Time,Device name,Chip Time(),Acceleration X(g),Acceleration Y(g),Acceleration Z(g),Angular velocity X(°/s),Angular velocity Y(°/s),Angular velocity Z(°/s),ShiftX(mm),ShiftY(mm),ShiftZ(mm),SpeedX(mm/s),SpeedY(mm/s),SpeedZ(mm/s),Angle X(°),Angle Y(°),Angle Z(°)
 12:50:14.195,eb:33:2e:f9:57:b5, 2015-01-01 00:36:15.030,0.982,1.06,1.535,-104.492,-228.943,129.15, , , , , , ,23.681,4.142,-124.98
 12:50:14.196,eb:33:2e:f9:57:b5, 2015-01-01 00:36:15.030,0.817,0.486,2.785,-92.59,-175.842,117.188, , , , , , ,23.198,2.977,-124.827
 12:50:14.196,eb:33:2e:f9:57:b5, 2015-01-01 00:36:15.030,0.943,0.422,2.478,-82.764,-119.263,112.244, , , , , , ,22.78,2.115,-124.568
 12:50:14.196,eb:33:2e:f9:57:b5, 2015-01-01 00:36:15.030,1.178,0.611,1.929,-74.768,-96.558,98.206, , , , , , ,22.39,1.434,-124.283
 12:50:14.196,eb:33:2e:f9:57:b5, 2015-01-01 00:36:15.030,1.226,0.751,1.645,-63.843,-94.604,75.012, , , , , , ,22.055,0.835,-124.074
 12:50:14.196,eb:33:2e:f9:57:b5, 2015-01-01 00:36:15.030,1.038,0.716,1.568,-54.26,-88.867,52.917, , , , , , ,21.769,0.297,-123.959
 12:50:14.196,eb:33:2e:f9:57:b5, 2015-01-01 00:36:15.030,0.75,0.659,1.649,-46.082,-71.228,35.583, , , , , , ,21.522,-0.143,-123.909
 12:50:14.196,eb:33:2e:f9:57:b5, 2015-01-01 00:36:15.030,0.529,0.591,1.642,-40.344,-48.95,23.193, , , , , , ,21.308,-0.461,-123.882
 12:50:14.199,eb:33:2e:f9:57:b5, 2015-01-01 00:36:15.030,0.331,0.461,1.558,-34.302,-30.334,15.686, , , , , , ,21.121,-0.67,-123.865
 12:50:14.199,eb:33:2e:f9:57:b5, 2015-01-01 00:36:15.030,0.169,0.389,1.383,-28.137,-20.447,10.62, , , , , , ,20.967,-0.802,-123.849
 12:50:14.199,eb:33:2e:f9:57:b5, 2015-01-01 00:36:15.030,0.034,0.367,1.26,-22.705,-19.043,7.019, , , , , , ,20.841,-0.906,-123.843
 12:50:14.200,eb:33:2e:f9:57:b5, 2015-01-01 00:36:15.030,-0.06,0.31,1.191,-17.456,-20.02,6.226, , , , , , ,20.742,-1.011,-123.843
 12:50:14.200,eb:33:2e:f9:57:b5, 2015-01-01 00:36:15.030,-0.158,0.256,1.131,-12.939,-20.325,8.789, , , , , , ,20.671,-1.121,-123.843
 12:50:14.200,eb:33:2e:f9:57:b5, 2015-01-01 00:36:15.030,-0.186,0.254,1.006,-9.949,-24.963,12.207, , , , , , ,20.616,-1.247,-123.838
 12:50:14.200,eb:33:2e:f9:57:b5, 2015-01-01 00:36:15.030,-0.17,0.281,0.936,-8.667,-31.433,15.991, , , , , , ,20.566,-1.406,-123.821
 12:50:14.200,eb:33:2e:f9:57:b5, 2015-01-01 00:36:15.030,-0.104,0.293,0.884,-8.301,-36.133,19.714, , , , , , ,20.522,-1.599,-123.788
 12:50:14.354,eb:33:2e:f9:57:b5, 2015-01-01 00:36:15.030,-0.008,0.329,0.849,-8.606,-39.856,22.034, , , , , , ,20.479,-1.818,-123.755
 12:50:14.355,eb:33:2e:f9:57:b5, 2015-01-01 00:36:15.030,0.117,0.375,0.814,-10.376,-41.382,22.949, , , , , , ,20.429,-2.049,-123.723
 12:50:14.355,eb:33:2e:f9:57:b5, 2015-01-01 00:36:15.030,0.259,0.449,0.794,-13.733,-40.71,21.545, , , , , , ,20.369,-2.285,-123.69
 12:50:14.355,eb:33:2e:f9:57:b5, 2015-01-01 00:36:15.030,0.342,0.491,0.859,-18.127,-34.668,18.677, , , , , , ,20.281,-2.494,-123.657
 12:50:14.355,eb:33:2e:f9:57:b5, 2015-01-01 00:36:15.030,0.407,0.574,0.819,-22.4,-27.954,13.184, , , , , , ,20.176,-2.664,-123.64
 12:50:14.355,eb:33:2e:f9:57:b5, 2015-01-01 00:36:15.030,0.418,0.55,0.825,-27.039,-14.832,7.202, , , , , , ,20.05,-2.78,-123.629
 12:50:14.355,eb:33:2e:f9:57:b5, 2015-01-01 00:36:15.030,0.399,0.594,0.754,-32.349,-3.235,0.916, , , , , , ,19.896,-2.818,-123.624
 12:50:14.355,eb:33:2e:f9:57:b5, 2015-01-01 00:36:15.030,0.294,0.617,0.964,-42.114,13.306,-6.653, , , , , , ,19.704,-2.785,-123.624
 12:50:14.355,eb:33:2e:f9:57:b5, 2015-01-01 00:36:15.030,0.243,0.533,0.906,-48.584,28.748,-10.498, , , , , , ,19.473,-2.664,-123.629
 12:50:14.355,eb:33:2e:f9:57:b5, 2015-01-01 00:36:15.030,0.183,0.463,0.879,-52.917,37.842,-14.343, , , , , , ,19.221,-2.477,-123.629
 12:50:14.355,eb:33:2e:f9:57:b5, 2015-01-01 00:36:15.030,0.122,0.443,0.864,-56.335,41.504,-18.311, , , , , , ,18.946,-2.258,-123.646
 12:50:14.355,eb:33:2e:f9:57:b5, 2015-01-01 00:36:15.030,0.082,0.367,0.972,-59.082,47.546,-20.02, , , , , , ,18.655,-2.016,-123.657
 12:50:14.355,eb:33:2e:f9:57:b5, 2015-01-01 00:36:15.030,0.057,0.34,1.004,-60.791,51.086,-21.118, , , , , , ,18.353,-1.747,-123.679
 12:50:14.355,eb:33:2e:f9:57:b5, 2015-01-01 00:36:15.030,0.003,0.334,1.025,-59.937,50.72,-22.217, , , , , , ,18.051,-1.472,-123.701
 12:50:14.355,eb:33:2e:f9:57:b5, 2015-01-01 00:36:15.030,-0.038,0.281,1.106,-57.19,49.5,-22.4, , , , , , ,17.759,-1.198,-123.734
 12:50:14.356,eb:33:2e:f9:57:b5, 2015-01-01 00:36:15.030,-0.069,0.201,1.24,-51.514,47.18,-20.935, , , , , , ,17.485,-0.934,-123.755
 12:50:14.357,eb:33:2e:f9:57:b5, 2015-01-01 00:36:15.030,-0.083,0.138,1.379,-43.152,43.274,-18.311, , , , , , ,17.254,-0.692,-123.783
 12:50:14.357,eb:33:2e:f9:57:b5, 2015-01-01 00:36:15.030,-0.076,0.09,1.511,-31.738,38.696,-15.564, , , , , , ,17.073,-0.472,-123.805
 12:50:14.357,eb:33:2e:f9:57:b5, 2015-01-01 00:36:15.030,-0.028,0.04,1.69,-17.151,35.156,-12.207, , , , , , ,16.952,-0.28,-123.816
 12:50:14.357,eb:33:2e:f9:57:b5, 2015-01-01 00:36:15.030,0.033,-0.021,1.904,1.16,35.4,-8.362, , , , , , ,16.919,-0.099,-123.81
 12:50:14.358,eb:33:2e:f9:57:b5, 2015-01-01 00:36:15.030,0.125,-0.033,2.039,22.4,36.682,-6.226, , , , , , ,16.985,0.082,-123.788
 12:50:14.358,eb:33:2e:f9:57:b5, 2015-01-01 00:36:15.030,0.208,-0.032,2.207,46.326,41.565,-5.31, , , , , , ,17.172,0.275,-123.761
 12:50:14.358,eb:33:2e:f9:57:b5, 2015-01-01 00:36:15.030,0.303,-0.02,2.351,73.059,50.293,-5.981, , , , , , ,17.479,0.505,-123.717
 12:50:14.358,eb:33:2e:f9:57:b5, 2015-01-01 00:36:15.030,0.417,0.029,2.41,101.746,58.777,-9.033, , , , , , ,17.93,0.78,-123.662
 12:50:14.358,eb:33:2e:f9:57:b5, 2015-01-01 00:36:15.030,0.479,0.127,2.445,132.141,61.707,-15.442, , , , , , ,18.528,1.093,-123.629
 12:50:14.358,eb:33:2e:f9:57:b5, 2015-01-01 00:36:15.030,0.458,0.139,2.482,161.56,64.819,-25.635, , , , , , ,19.276,1.423,-123.624
 12:50:14.358,eb:33:2e:f9:57:b5, 2015-01-01 00:36:15.030,0.56,0.054,2.665,190.979,76.782,-32.349, , , , , , ,20.171,1.813,-123.64
 12:50:14.358,eb:33:2e:f9:57:b5, 2015-01-01 00:36:15.030,0.549,0.128,2.551,218.506,81.543,-42.542, , , , , , ,21.209,2.258,-123.668
 12:50:14.358,eb:33:2e:f9:57:b5, 2015-01-01 00:36:15.030,0.361,-0.004,2.456,246.643,88.44,-52.551, , , , , , ,22.385,2.741,-123.739
 12:50:14.358,eb:33:2e:f9:57:b5, 2015-01-01 00:36:15.030,0.143,-0.161,2.52,268.372,104.492,-58.533, , , , , , ,23.676,3.296,-123.81
 12:50:14.358,eb:33:2e:f9:57:b5, 2015-01-01 00:36:15.030,0.109,-0.225,2.553,293.518,122.498,-57.739, , , , , , ,25.093,3.95,-123.832
 12:50:14.359,eb:33:2e:f9:57:b5, 2015-01-01 00:36:15.030,0.134,-0.165,2.089,319.031,114.319,-61.523, , , , , , ,26.636,4.62,-123.827
 12:50:14.398,eb:33:2e:f9:57:b5, 2015-01-01 00:36:15.030,0.035,-0.14,1.993,343.262,97.046,-67.078, , , , , , ,28.295,5.229,-123.882
 12:50:14.398,eb:33:2e:f9:57:b5, 2015-01-01 00:36:15.030,-0.084,-0.229,2.179,368.958,94.116,-68.97, , , , , , ,30.081,5.801,-123.948
 12:50:14.398,eb:33:2e:f9:57:b5, 2015-01-01 00:36:15.030,-0.284,-0.257,2.397,388.367,104.248,-68.97, , , , , , ,31.981,6.405,-123.986
 12:50:14.398,eb:33:2e:f9:57:b5, 2015-01-01 00:36:15.030,-0.423,-0.372,2.711,411.56,124.878,-63.538, , , , , , ,33.997,7.075,-123.937
 12:50:14.398,eb:33:2e:f9:57:b5, 2015-01-01 00:36:15.030,-0.243,-0.491,2.741,436.707,143.372,-48.523, , , , , , ,36.151,7.795,-123.766
 12:50:14.398,eb:33:2e:f9:57:b5, 2015-01-01 00:36:15.030,0.038,0.002,2.263,464.172,123.779,-47.913, , , , , , ,38.441,8.47,-123.53
 12:50:14.398,eb:33:2e:f9:57:b5, 2015-01-01 00:36:15.030,-0.38,0.126,2.196,487.427,93.201,-53.894, , , , , , ,40.853,9.036,-123.409
 12:50:14.398,eb:33:2e:f9:57:b5, 2015-01-01 00:36:15.030,-0.32,0.171,2.331,490.051,80.933,-40.894, , , , , , ,43.33,9.509,-123.272
 12:50:14.466,eb:33:2e:f9:57:b5, 2015-01-01 00:36:15.030,-0.481,0.263,2.039,469.666,61.523,-31.433, , , , , , ,45.742,9.888,-123.162
 12:50:14.466,eb:33:2e:f9:57:b5, 2015-01-01 00:36:15.030,-0.441,0.89,1.876,451.477,41.504,-30.396, , , , , , ,48.027,10.168,-123.102
 12:50:14.466,eb:33:2e:f9:57:b5, 2015-01-01 00:36:15.030,-0.525,0.935,2.003,422.852,58.35,-27.344, , , , , , ,50.235,10.437,-123.019
 12:50:14.466,eb:33:2e:f9:57:b5, 2015-01-01 00:36:15.030,-0.265,0.304,1.542,378.357,77.026,-15.625, , , , , , ,52.256,10.734,-122.761
 12:50:14.466,eb:33:2e:f9:57:b5, 2015-01-01 00:36:15.030,-0.163,0.111,2.181,344.177,100.525,-15.869, , , , , , ,54.097,11.063,-122.465
 12:50:14.466,eb:33:2e:f9:57:b5, 2015-01-01 00:36:15.030,0.084,-0.653,1.878,321.655,132.751,-2.441, , , , , , ,55.833,11.448,-121.959
 12:50:14.466,eb:33:2e:f9:57:b5, 2015-01-01 00:36:15.030,0.25,-0.715,1.619,316.101,133.057,3.845, , , , , , ,57.53,11.81,-121.382
 12:50:14.468,eb:33:2e:f9:57:b5, 2015-01-01 00:36:15.030,0.289,-0.547,1.86,334.29,126.892,6.775, , , , , , ,59.271,12.118,-120.789
 12:50:14.488,eb:33:2e:f9:57:b5, 2015-01-01 00:36:18.000,0.197,-0.438,2.265,374.634,124.207,11.536, , , , , , ,61.183,12.393,-120.218
 12:50:14.488,eb:33:2e:f9:57:b5, 2015-01-01 00:36:18.000,0.34,0.236,2.297,426.819,117.432,0.366, , , , , , ,63.314,12.662,-119.652
 12:50:14.488,eb:33:2e:f9:57:b5, 2015-01-01 00:36:18.000,0.192,0.25,2.841,481.628,131.287,-5.493, , , , , , ,65.737,12.942,-119.086
 12:50:14.488,eb:33:2e:f9:57:b5, 2015-01-01 00:36:18.000,-0.257,-0.402,2.907,560.242,171.387,1.099, , , , , , ,68.527,13.26,-118.35
 12:50:14.488,eb:33:2e:f9:57:b5, 2015-01-01 00:36:18.000,-0.29,0.329,1.08,604.248,152.588,0.183, , , , , , ,71.691,13.535,-117.548
 12:50:14.488,eb:33:2e:f9:57:b5, 2015-01-01 00:36:18.000,-0.333,1.146,0.401,551.27,128.54,-1.892, , , , , , ,74.713,13.738,-116.884
 12:50:14.488,eb:33:2e:f9:57:b5, 2015-01-01 00:36:18.000,-0.321,0.515,1.451,481.567,128.662,12.695, , , , , , ,77.421,13.859,-116.235
 12:50:14.488,eb:33:2e:f9:57:b5, 2015-01-01 00:36:18.000,-0.123,0.454,1.379,396.667,120.605,26.611, , , , , , ,79.733,13.881,-115.571
 12:50:14.510,eb:33:2e:f9:57:b5, 2015-01-01 00:36:18.000,0.024,0.507,1.177,301.331,122.192,36.133, , , , , , ,81.584,13.815,-114.922
 12:50:14.510,eb:33:2e:f9:57:b5, 2015-01-01 00:36:18.000,0.201,0.494,0.943,206.665,123.108,35.767, , , , , , ,82.941,13.711,-114.274
 12:50:14.510,eb:33:2e:f9:57:b5, 2015-01-01 00:36:18.000,0.351,0.529,0.824,124.695,118.896,25.452, , , , , , ,83.875,13.634,-113.637
 12:50:14.510,eb:33:2e:f9:57:b5, 2015-01-01 00:36:18.000,0.434,0.717,0.868,59.875,105.103,4.578, , , , , , ,84.43,13.623,-113.038
 12:50:14.510,eb:33:2e:f9:57:b5, 2015-01-01 00:36:18.000,0.497,0.936,1.265,16.052,82.52,-24.719, , , , , , ,84.699,13.727,-112.571
 12:50:14.510,eb:33:2e:f9:57:b5, 2015-01-01 00:36:18.000,0.536,1.144,1.859,-7.629,59.448,-58.105, , , , , , ,84.76,13.98,-112.242
 12:50:14.510,eb:33:2e:f9:57:b5, 2015-01-01 00:36:18.000,0.555,1.295,2.39,-15.076,36.377,-95.032, , , , , , ,84.738,14.398,-112.044
 12:50:14.510,eb:33:2e:f9:57:b5, 2015-01-01 00:36:18.000,0.558,1.264,2.792,-11.414,14.648,-133.118, , , , , , ,84.683,14.996,-111.967
 12:50:14.557,eb:33:2e:f9:57:b5, 2015-01-01 00:36:18.000,0.551,1.048,3.014,-3.967,-0.305,-168.579, , , , , , ,84.633,15.771,-112.017
 12:50:14.557,eb:33:2e:f9:57:b5, 2015-01-01 00:36:18.000,0.502,0.717,3.07,0.671,-4.883,-198.12, , , , , , ,84.573,16.699,-112.132
 12:50:14.557,eb:33:2e:f9:57:b5, 2015-01-01 00:36:18.000,0.402,0.327,3.052,0.305,0.244,-219.482, , , , , , ,84.545,17.748,-112.247
 12:50:14.557,eb:33:2e:f9:57:b5, 2015-01-01 00:36:18.000,0.333,-0.076,3.017,-4.395,10.803,-232.544, , , , , , ,84.507,18.891,-112.313
 12:50:14.557,eb:33:2e:f9:57:b5, 2015-01-01 00:36:18.000,0.26,-0.435,2.95,-15.259,28.381,-237, , , , , , ,84.452,20.072,-112.324
 12:50:14.557,eb:33:2e:f9:57:b5, 2015-01-01 00:36:18.000,0.225,-0.698,2.713,-34.241,49.988,-233.887, , , , , , ,84.326,21.264,-112.231
 12:50:14.557,eb:33:2e:f9:57:b5, 2015-01-01 00:36:18.000,0.223,-0.897,2.431,-61.096,73.425,-223.145, , , , , , ,84.155,22.434,-112.011
 12:50:14.557,eb:33:2e:f9:57:b5, 2015-01-01 00:36:18.000,0.26,-1.057,2.25,-92.163,96.13,-209.9, , , , , , ,83.892,23.555,-111.649
 12:50:14.602,eb:33:2e:f9:57:b5, 2015-01-01 00:36:18.000,0.416,-1.168,2.179,-123.474,115.967,-194.702, , , , , , ,83.524,24.609,-111.182
 12:50:14.602,eb:33:2e:f9:57:b5, 2015-01-01 00:36:18.000,0.55,-1.156,2.082,-155.457,136.536,-180.115, , , , , , ,83.024,25.604,-110.605
 12:50:14.602,eb:33:2e:f9:57:b5, 2015-01-01 00:36:18.000,0.607,-1.135,1.92,-184.814,151.306,-167.664, , , , , , ,82.458,26.554,-109.924
 12:50:14.602,eb:33:2e:f9:57:b5, 2015-01-01 00:36:18.000,0.724,-1.126,1.714,-211.06,157.959,-157.41, , , , , , ,81.788,27.46,-109.166
 12:50:14.602,eb:33:2e:f9:57:b5, 2015-01-01 00:36:18.000,0.79,-1.101,1.553,-239.563,161.499,-147.034, , , , , , ,81.008,28.328,-108.397
 12:50:14.602,eb:33:2e:f9:57:b5, 2015-01-01 00:36:18.000,0.867,-1.053,1.393,-261.963,157.593,-140.564, , , , , , ,80.068,29.163,-107.65
 12:50:14.602,eb:33:2e:f9:57:b5, 2015-01-01 00:36:18.000,0.956,-1.023,1.211,-283.63,151.062,-135.803, , , , , , ,79.052,29.982,-106.924
 12:50:14.602,eb:33:2e:f9:57:b5, 2015-01-01 00:36:18.000,1.11,-1.004,0.962,-304.688,141.113,-132.019, , , , , , ,77.91,30.778,-106.238
 12:50:14.713,eb:33:2e:f9:57:b5, 2015-01-01 00:36:18.000,1.149,-1.026,0.694,-324.463,131.226,-126.16, , , , , , ,76.641,31.553,-105.623
 12:50:14.713,eb:33:2e:f9:57:b5, 2015-01-01 00:36:18.000,1.292,-1.011,0.238,-346.619,100.708,-126.953, , , , , , ,75.157,32.305,-105.183
 12:50:14.713,eb:33:2e:f9:57:b5, 2015-01-01 00:36:18.000,1.476,-1.043,-0.129,-369.568,68.42,-124.329, , , , , , ,73.499,33.019,-104.914
 12:50:14.713,eb:33:2e:f9:57:b5, 2015-01-01 00:36:18.000,1.598,-0.952,-0.688,-396.973,26.611,-122.009, , , , , , ,71.587,33.673,-104.87
 12:50:14.713,eb:33:2e:f9:57:b5, 2015-01-01 00:36:18.000,1.619,-0.893,-1.138,-426.941,-21.606,-119.385, , , , , , ,69.368,34.233,-105.123
 12:50:14.713,eb:33:2e:f9:57:b5, 2015-01-01 00:36:18.000,1.606,-0.894,-1.125,-451.66,-81.055,-118.103, , , , , , ,66.775,34.678,-105.743
 12:50:14.713,eb:33:2e:f9:57:b5, 2015-01-01 00:36:18.000,1.475,-0.953,-0.506,-463.562,-138.367,-113.647, , , , , , ,63.946,34.964,-106.677
 12:50:14.713,eb:33:2e:f9:57:b5, 2015-01-01 00:36:18.000,1.369,-0.939,0.038,-464.05,-194.336,-106.018, , , , , , ,60.903,35.046,-107.902
 12:50:14.716,eb:33:2e:f9:57:b5, 2015-01-01 00:36:18.000,1.237,-0.872,0.456,-458.679,-238.342,-92.102, , , , , , ,57.755,34.904,-109.374
 12:50:14.716,eb:33:2e:f9:57:b5, 2015-01-01 00:36:18.000,1.074,-0.859,0.757,-451.233,-272.461,-71.35, , , , , , ,54.536,34.508,-110.989
 12:50:14.716,eb:33:2e:f9:57:b5, 2015-01-01 00:36:18.000,0.963,-0.904,1.052,-444.214,-297.607,-44.189, , , , , , ,51.405,33.86,-112.582
 12:50:14.716,eb:33:2e:f9:57:b5, 2015-01-01 00:36:18.000,0.87,-0.92,1.358,-439.636,-309.753,-12.695, , , , , , ,48.373,32.975,-114.071
 12:50:14.716,eb:33:2e:f9:57:b5, 2015-01-01 00:36:18.000,0.821,-0.874,1.517,-439.331,-311.768,20.813, , , , , , ,45.467,31.888,-115.389
 12:50:14.716,eb:33:2e:f9:57:b5, 2015-01-01 00:36:18.000,0.801,-0.811,1.567,-442.2,-310.791,53.772, , , , , , ,42.649,30.613,-116.516
 12:50:14.716,eb:33:2e:f9:57:b5, 2015-01-01 00:36:18.000,0.816,-0.763,1.574,-447.266,-310.059,84.473, , , , , , ,39.99,29.213,-117.383
 12:50:14.716,eb:33:2e:f9:57:b5, 2015-01-01 00:36:18.000,0.814,-0.687,1.575,-453.369,-310.73,113.831, , , , , , ,37.425,27.68,-118.021
 12:50:14.718,eb:33:2e:f9:57:b5, 2015-01-01 00:36:18.000,0.807,-0.631,1.598,-457.886,-313.354,141.541, , , , , , ,34.942,26.032,-118.466
 12:50:14.718,eb:33:2e:f9:57:b5, 2015-01-01 00:36:18.000,0.834,-0.598,1.628,-458.069,-318.176,166.382, , , , , , ,32.498,24.269,-118.746
 12:50:14.718,eb:33:2e:f9:57:b5, 2015-01-01 00:36:18.000,0.868,-0.56,1.639,-454.651,-322.327,187.988, , , , , , ,30.185,22.434,-118.823
 12:50:14.718,eb:33:2e:f9:57:b5, 2015-01-01 00:36:18.000,0.903,-0.51,1.571,-447.937,-330.078,205.872, , , , , , ,27.96,20.522,-118.729
 12:50:14.719,eb:33:2e:f9:57:b5, 2015-01-01 00:36:18.000,0.933,-0.46,1.495,-441.223,-341.248,218.933, , , , , , ,25.807,18.534,-118.526
 12:50:14.719,eb:33:2e:f9:57:b5, 2015-01-01 00:36:18.000,0.953,-0.418,1.492,-436.646,-353.21,227.6, , , , , , ,23.665,16.469,-118.24
 12:50:14.719,eb:33:2e:f9:57:b5, 2015-01-01 00:36:18.000,0.995,-0.339,1.53,-435.059,-365.479,231.14, , , , , , ,21.588,14.359,-117.861
 12:50:14.719,eb:33:2e:f9:57:b5, 2015-01-01 00:36:18.000,1.013,-0.211,1.623,-436.218,-374.573,229.37, , , , , , ,19.506,12.217,-117.416
 12:50:14.826,eb:33:2e:f9:57:b5, 2015-01-01 00:36:18.000,0.945,0,1.695,-438.538,-383.972,221.558, , , , , , ,17.413,10.058,-116.944
 12:50:14.826,eb:33:2e:f9:57:b5, 2015-01-01 00:36:18.000,0.845,0.299,1.792,-441.528,-397.278,207.703, , , , , , ,15.244,7.861,-116.477
 12:50:14.826,eb:33:2e:f9:57:b5, 2015-01-01 00:36:18.000,0.674,0.621,2.057,-445.068,-406.494,189.636, , , , , , ,13.079,5.663,-116.016
 12:50:14.826,eb:33:2e:f9:57:b5, 2015-01-01 00:36:18.000,0.476,0.917,2.46,-448.059,-403.015,169.556, , , , , , ,10.876,3.494,-115.565
 12:50:14.826,eb:33:2e:f9:57:b5, 2015-01-01 00:36:18.000,0.244,1.209,2.958,-448.914,-380.188,149.841, , , , , , ,8.652,1.434,-115.12
 12:50:14.826,eb:33:2e:f9:57:b5, 2015-01-01 00:36:18.000,-0.015,1.549,3.36,-447.388,-339.783,130.493, , , , , , ,6.372,-0.439,-114.675
 12:50:14.826,eb:33:2e:f9:57:b5, 2015-01-01 00:36:18.000,-0.174,2.022,3.643,-445.618,-275.391,107.117, , , , , , ,4.131,-2.005,-114.23
 12:50:14.826,eb:33:2e:f9:57:b5, 2015-01-01 00:36:18.000,-0.307,2.444,3.711,-445.251,-216.309,87.097, , , , , , ,1.884,-3.23,-113.824
 12:50:14.849,eb:33:2e:f9:57:b5, 2015-01-01 00:36:18.000,-0.392,2.854,3.569,-444.519,-162.903,65.674, , , , , , ,-0.363,-4.153,-113.461
 12:50:14.849,eb:33:2e:f9:57:b5, 2015-01-01 00:36:18.000,-0.431,3.237,3.29,-440.186,-122.803,42.786, , , , , , ,-2.631,-4.85,-113.187
 12:50:14.849,eb:33:2e:f9:57:b5, 2015-01-01 00:36:18.000,-0.46,3.605,3.01,-429.016,-99.426,18.311, , , , , , ,-4.823,-5.378,-113.011
 12:50:14.849,eb:33:2e:f9:57:b5, 2015-01-01 00:36:18.000,-0.521,3.963,2.823,-409.18,-92.468,-7.751, , , , , , ,-6.916,-5.845,-112.95
 12:50:14.849,eb:33:2e:f9:57:b5, 2015-01-01 00:36:18.000,-0.632,4.346,2.729,-382.141,-97.534,-34.119, , , , , , ,-8.877,-6.328,-113.005
 12:50:14.849,eb:33:2e:f9:57:b5, 2015-01-01 00:36:18.000,-0.773,4.752,2.583,-349.365,-113.525,-61.218, , , , , , ,-10.706,-6.91,-113.165
 12:50:14.849,eb:33:2e:f9:57:b5, 2015-01-01 00:36:18.000,-0.987,5.035,2.64,-309.326,-133.545,-86.426, , , , , , ,-12.305,-7.603,-113.417
 12:50:14.849,eb:33:2e:f9:57:b5, 2015-01-01 00:36:18.000,-1.192,5.229,2.82,-263.428,-150.208,-107.422, , , , , , ,-13.672,-8.416,-113.741
 12:50:14.938,eb:33:2e:f9:57:b5, 2015-01-01 00:36:18.000,-1.379,5.382,3.054,-215.576,-154.48,-123.169, , , , , , ,-14.788,-9.311,-114.126
 12:50:14.938,eb:33:2e:f9:57:b5, 2015-01-01 00:36:18.000,-1.571,5.453,3.29,-169.189,-143.005,-132.935, , , , , , ,-15.672,-10.212,-114.56
 12:50:14.938,eb:33:2e:f9:57:b5, 2015-01-01 00:36:18.000,-1.749,5.425,3.466,-125.671,-115.723,-136.475, , , , , , ,-16.298,-11.014,-115.049
 12:50:14.938,eb:33:2e:f9:57:b5, 2015-01-01 00:36:18.000,-1.887,5.306,3.505,-85.083,-78.125,-133.362, , , , , , ,-16.705,-11.651,-115.576
 12:50:14.938,eb:33:2e:f9:57:b5, 2015-01-01 00:36:18.000,-1.988,5.082,3.353,-46.021,-38.696,-123.352, , , , , , ,-16.902,-12.096,-116.12
 12:50:14.938,eb:33:2e:f9:57:b5, 2015-01-01 00:36:18.000,-2.011,4.79,3.056,-5.798,-5.493,-108.704, , , , , , ,-16.908,-12.36,-116.658
 12:50:14.939,eb:33:2e:f9:57:b5, 2015-01-01 00:36:18.000,-1.961,4.445,2.706,35.034,17.7,-91.614, , , , , , ,-16.71,-12.458,-117.153
 12:50:14.939,eb:33:2e:f9:57:b5, 2015-01-01 00:36:18.000,-1.915,4.04,2.324,73.12,30.273,-72.388, , , , , , ,-16.326,-12.448,-117.587
 12:50:14.961,eb:33:2e:f9:57:b5, 2015-01-01 00:36:18.000,-1.827,3.591,1.861,104.858,33.02,-50.537, , , , , , ,-15.787,-12.376,-117.927
 12:50:14.961,eb:33:2e:f9:57:b5, 2015-01-01 00:36:18.000,-1.695,3.113,1.38,130.249,30.884,-26.794, , , , , , ,-15.139,-12.277,-118.152
 12:50:14.961,eb:33:2e:f9:57:b5, 2015-01-01 00:36:18.000,-1.567,2.625,1.137,151.794,29.541,-2.258, , , , , , ,-14.403,-12.145,-118.251
 12:50:14.961,eb:33:2e:f9:57:b5, 2015-01-01 00:36:18.000,1.017,2.198,0.97,173.401,15.869,16.541, , , , , , ,-13.59,-12.003,-118.229
 12:50:14.961,eb:33:2e:f9:57:b5, 2015-01-01 00:36:18.000,-3.364,2.907,9.274,356.628,179.871,2.319, , , , , , ,-12.206,-11.689,-118.383
 12:50:14.961,eb:33:2e:f9:57:b5, 2015-01-01 00:36:18.000,1.792,3.896,1.753,433.167,233.948,-26.794, , , , , , ,-10.074,-10.519,-118.597
 12:50:14.961,eb:33:2e:f9:57:b5, 2015-01-01 00:36:18.000,0.991,1.268,0.207,397.949,278.748,11.719, , , , , , ,-7.954,-9.174,-118.817
 12:50:14.961,eb:33:2e:f9:57:b5, 2015-01-01 00:36:18.000,2.416,1.556,4.459,303.711,414.246,-11.658, , , , , , ,-6.202,-7.399,-118.987
 12:50:15.028,eb:33:2e:f9:57:b5, 2015-01-01 00:36:18.000,0.077,0.431,3.343,238.831,575.623,-24.048, , , , , , ,-4.872,-4.856,-119.383
 12:50:15.029,eb:33:2e:f9:57:b5, 2015-01-01 00:36:18.000,-3.929,1.415,2.601,167.786,559.509,-33.203, , , , , , ,-3.834,-1.961,-119.762
 12:50:15.029,eb:33:2e:f9:57:b5, 2015-01-01 00:36:18.000,-3.042,0.707,1.326,113.037,479.248,-17.212, , , , , , ,-3.175,0.637,-120.064
 12:50:15.029,eb:33:2e:f9:57:b5, 2015-01-01 00:36:18.000,-2.1,1.197,-0.024,63.232,292.114,-19.897, , , , , , ,-2.752,2.494,-120.218
 12:50:15.029,eb:33:2e:f9:57:b5, 2015-01-01 00:36:18.000,-0.654,-0.17,-0.035,56.03,145.874,-16.052, , , , , , ,-2.483,3.477,-120.355
 12:50:15.029,eb:33:2e:f9:57:b5, 2015-01-01 00:36:18.000,0.142,-0.57,0.459,66.833,74.219,-0.61, , , , , , ,-2.17,3.961,-120.405
 12:50:15.029,eb:33:2e:f9:57:b5, 2015-01-01 00:36:18.000,-0.226,0.09,1.041,63.599,61.829,7.385, , , , , , ,-1.835,4.274,-120.388
 12:50:15.029,eb:33:2e:f9:57:b5, 2015-01-01 00:36:18.000,-0.039,0.162,0.928,49.744,53.589,20.02, , , , , , ,-1.555,4.57,-120.317
 12:50:15.095,eb:33:2e:f9:57:b5, 2015-01-01 00:36:18.000,-0.015,0.232,0.969,41.016,50.598,12.207, , , , , , ,-1.329,4.807,-120.223
 12:50:15.095,eb:33:2e:f9:57:b5, 2015-01-01 00:36:18.000,-0.336,0.136,0.994,38.574,58.167,-0.61, , , , , , ,-1.126,5.103,-120.218
 12:50:15.095,eb:33:2e:f9:57:b5, 2015-01-01 00:36:18.000,-0.134,0.014,0.839,33.508,39.612,0.061, , , , , , ,-0.95,5.334,-120.223
 12:50:15.095,eb:33:2e:f9:57:b5, 2015-01-01 00:36:18.000,-0.057,0.023,1.067,34.79,39.795,-3.235, , , , , , ,-0.786,5.526,-120.24
 12:50:15.095,eb:33:2e:f9:57:b5, 2015-01-01 00:36:18.000,0.095,0.001,1.048,37.598,39.856,-5.249, , , , , , ,-0.604,5.724,-120.262
 12:50:15.095,eb:33:2e:f9:57:b5, 2015-01-01 00:36:18.000,0.09,0.136,1.114,36.377,48.523,-12.085, , , , , , ,-0.417,5.949,-120.311
 12:50:15.096,eb:33:2e:f9:57:b5, 2015-01-01 00:36:18.000,-0.144,0.12,1.15,36.072,56.519,-18.311, , , , , , ,-0.247,6.213,-120.394
 12:50:15.096,eb:33:2e:f9:57:b5, 2015-01-01 00:36:18.000,-0.344,0,0.99,35.4,57.739,-16.296, , , , , , ,-0.077,6.509,-120.487
 12:50:15.118,eb:33:2e:f9:57:b5, 2015-01-01 00:36:18.515,-0.26,0.009,0.765,31.494,37.109,-13.55, , , , , , ,0.071,6.74,-120.558
 12:50:15.118,eb:33:2e:f9:57:b5, 2015-01-01 00:36:18.515,-0.212,0.02,0.865,30.09,23.071,-12.146, , , , , , ,0.225,6.877,-120.619
 12:50:15.118,eb:33:2e:f9:57:b5, 2015-01-01 00:36:18.515,-0.195,0.042,0.912,31.433,12.085,-11.902, , , , , , ,0.368,6.96,-120.679
 12:50:15.118,eb:33:2e:f9:57:b5, 2015-01-01 00:36:18.515,-0.11,-0.027,0.996,35.034,4.028,-9.46, , , , , , ,0.527,6.998,-120.729
 12:50:15.118,eb:33:2e:f9:57:b5, 2015-01-01 00:36:18.515,0.069,0.018,1.078,39.734,-1.465,-9.46, , , , , , ,0.709,6.998,-120.778
 12:50:15.118,eb:33:2e:f9:57:b5, 2015-01-01 00:36:18.515,-0.022,0.156,1.09,45.166,-1.587,-13.611, , , , , , ,0.928,6.987,-120.833
 12:50:15.119,eb:33:2e:f9:57:b5, 2015-01-01 00:36:18.515,-0.139,0.057,1.147,46.326,2.93,-14.648, , , , , , ,1.148,6.993,-120.91
 12:50:15.119,eb:33:2e:f9:57:b5, 2015-01-01 00:36:18.515,-0.11,-0.186,1.552,50.354,18.982,-6.042, , , , , , ,1.379,7.059,-120.954
 12:50:15.163,eb:33:2e:f9:57:b5, 2015-01-01 00:36:18.515,-0.235,-0.08,1.363,57.983,20.569,-1.709, , , , , , ,1.653,7.163,-120.965
 12:50:15.163,eb:33:2e:f9:57:b5, 2015-01-01 00:36:18.515,-0.289,-0.152,1.4,69.397,15.137,3.052, , , , , , ,1.983,7.256,-120.959
 12:50:15.163,eb:33:2e:f9:57:b5, 2015-01-01 00:36:18.515,-0.27,-0.12,1.309,83.679,-2.93,7.263, , , , , , ,2.379,7.278,-120.921
 12:50:15.163,eb:33:2e:f9:57:b5, 2015-01-01 00:36:18.515,-0.457,-0.185,1.708,94.482,-9.399,10.986, , , , , , ,2.834,7.234,-120.883
 12:50:15.163,eb:33:2e:f9:57:b5, 2015-01-01 00:36:18.515,-0.279,-0.482,2.203,112.366,-2.869,26.733, , , , , , ,3.367,7.207,-120.778
 12:50:15.164,eb:33:2e:f9:57:b5, 2015-01-01 00:36:18.515,-0.236,-0.321,2.105,136.902,-11.963,34.485, , , , , , ,4.026,7.163,-120.619
 12:50:15.164,eb:33:2e:f9:57:b5, 2015-01-01 00:36:18.515,-0.238,-0.328,2.359,166.26,-20.874,38.879, , , , , , ,4.818,7.059,-120.438
 12:50:15.164,eb:33:2e:f9:57:b5, 2015-01-01 00:36:18.515,-0.082,-0.482,2.983,201.782,-19.226,46.509, , , , , , ,5.779,6.932,-120.223
 12:50:15.164,eb:33:2e:f9:57:b5, 2015-01-01 00:36:18.515,-0.015,-0.599,3.039,245.117,-13.489,53.467, , , , , , ,6.949,6.828,-119.976
 12:50:15.164,eb:33:2e:f9:57:b5, 2015-01-01 00:36:18.515,0.208,-0.656,3.283,284.363,0.488,58.899, , , , , , ,8.333,6.762,-119.696
 12:50:15.164,eb:33:2e:f9:57:b5, 2015-01-01 00:36:18.515,0.296,-0.694,3.521,328.979,22.217,60.059, , , , , , ,9.921,6.784,-119.383
 12:50:15.164,eb:33:2e:f9:57:b5, 2015-01-01 00:36:18.515,0.547,-0.673,3.531,367.798,39.124,52.49, , , , , , ,11.722,6.888,-119.07
 12:50:15.164,eb:33:2e:f9:57:b5, 2015-01-01 00:36:18.515,0.614,-0.695,3.624,411.377,64.88,44.006, , , , , , ,13.727,7.108,-118.768
 12:50:15.164,eb:33:2e:f9:57:b5, 2015-01-01 00:36:18.515,0.803,-0.469,3.632,457.153,80.566,16.846, , , , , , ,15.952,7.427,-118.526
 12:50:15.164,eb:33:2e:f9:57:b5, 2015-01-01 00:36:18.515,0.771,-1.01,3.728,487.793,112,7.568, , , , , , ,18.364,7.883,-118.323
 12:50:15.164,eb:33:2e:f9:57:b5, 2015-01-01 00:36:18.515,0.892,-0.761,3.44,525.818,130.188,-16.846, , , , , , ,20.934,8.476,-118.13
 12:50:15.166,eb:33:2e:f9:57:b5, 2015-01-01 00:36:18.515,0.904,-0.781,3.034,570.129,143.127,-35.278, , , , , , ,23.719,9.174,-117.999
 12:50:15.166,eb:33:2e:f9:57:b5, 2015-01-01 00:36:18.515,0.796,-0.793,2.697,599.976,125.977,-57.007, , , , , , ,26.675,9.882,-117.916
 12:50:15.166,eb:33:2e:f9:57:b5, 2015-01-01 00:36:18.515,0.02,-0.674,3.532,636.475,124.329,-83.984, , , , , , ,29.773,10.585,-117.971
 12:50:15.166,eb:33:2e:f9:57:b5, 2015-01-01 00:36:18.515,-0.558,-1.089,4.438,654.785,184.753,-87.83, , , , , , ,33.03,11.486,-117.916
 12:50:15.166,eb:33:2e:f9:57:b5, 2015-01-01 00:36:18.515,-0.663,-1.29,5.245,657.349,250.916,-63.538, , , , , , ,36.381,12.623,-117.57
 12:50:15.167,eb:33:2e:f9:57:b5, 2015-01-01 00:36:18.515,-0.542,-0.641,4.246,664.246,242.432,-47.058, , , , , , ,39.814,13.782,-116.993
 12:50:15.167,eb:33:2e:f9:57:b5, 2015-01-01 00:36:18.515,-0.139,0.435,3.062,641.907,173.584,-34.058, , , , , , ,43.209,14.661,-116.45
 12:50:15.167,eb:33:2e:f9:57:b5, 2015-01-01 00:36:18.515,-0.149,0.362,2.684,585.266,133.423,-22.644, , , , , , ,46.373,15.271,-116.01
 12:50:15.171,eb:33:2e:f9:57:b5, 2015-01-01 00:36:18.515,-0.079,0.416,2.558,521.057,131.104,-18.005, , , , , , ,49.219,15.771,-115.571
 12:50:15.171,eb:33:2e:f9:57:b5, 2015-01-01 00:36:18.515,-0.152,0.396,3.678,497.742,195.19,-7.812, , , , , , ,51.888,16.331,-114.944
 12:50:15.171,eb:33:2e:f9:57:b5, 2015-01-01 00:36:18.515,0.038,-0.227,5.029,535.95,298.279,15.564, , , , , , ,54.772,17.078,-113.868
 12:50:15.171,eb:33:2e:f9:57:b5, 2015-01-01 00:36:18.515,0.974,-0.339,3.586,619.812,350.891,35.828, , , , , , ,58.184,17.875,-112.275
 12:50:15.171,eb:33:2e:f9:57:b5, 2015-01-01 00:36:18.515,-0.523,-1.862,4.055,757.202,464.111,111.328, , , , , , ,62.309,18.567,-110.176
 12:50:15.171,eb:33:2e:f9:57:b5, 2015-01-01 00:36:18.515,0.01,0.206,-1.059,828.43,375.977,124.817, , , , , , ,67.148,18.924,-107.814
 12:50:15.171,eb:33:2e:f9:57:b5, 2015-01-01 00:36:18.515,-0.032,1.471,-1.17,760.925,290.283,149.292, , , , , , ,71.686,18.831,-105.996
 12:50:15.171,eb:33:2e:f9:57:b5, 2015-01-01 00:36:18.515,0.151,0.68,0.472,699.768,215.149,176.514, , , , , , ,75.784,18.38,-104.496
 12:50:15.209,eb:33:2e:f9:57:b5, 2015-01-01 00:36:18.515,0.364,0.795,0.456,620.667,149.78,187.927, , , , , , ,79.387,17.672,-103.398
 12:50:15.209,eb:33:2e:f9:57:b5, 2015-01-01 00:36:18.515,0.5,0.8,0.753,528.564,112.305,188.66, , , , , , ,82.436,16.831,-102.59
 12:50:15.209,eb:33:2e:f9:57:b5, 2015-01-01 00:36:18.515,0.625,0.748,1.482,445.618,97.351,177.612, , , , , , ,85.001,15.98,-101.959
 12:50:15.209,eb:33:2e:f9:57:b5, 2015-01-01 00:36:18.515,0.66,0.957,2.173,379.883,89.417,154.968, , , , , , ,87.171,15.189,-101.398
 12:50:15.209,eb:33:2e:f9:57:b5, 2015-01-01 00:36:18.515,0.672,1.319,2.573,329.895,77.087,121.765, , , , , , ,89.028,14.524,-100.953
 12:50:15.209,eb:33:2e:f9:57:b5, 2015-01-01 00:36:18.515,0.677,1.613,2.869,294.128,61.707,80.017, , , , , , ,90.632,14.035,-100.596
 12:50:15.209,eb:33:2e:f9:57:b5, 2015-01-01 00:36:18.515,0.708,1.802,3.068,270.691,43.396,33.264, , , , , , ,92.087,13.766,-100.338
 12:50:15.209,eb:33:2e:f9:57:b5, 2015-01-01 00:36:18.515,0.761,1.806,3.265,258.667,23.132,-15.625, , , , , , ,93.439,13.744,-100.157
 12:50:15.275,eb:33:2e:f9:57:b5, 2015-01-01 00:36:18.515,0.792,1.562,3.524,254.517,3.601,-62.134, , , , , , ,94.735,13.958,-100.085
 12:50:15.275,eb:33:2e:f9:57:b5, 2015-01-01 00:36:18.515,0.737,1.185,3.744,253.052,-8.728,-101.135, , , , , , ,95.982,14.387,-100.063
 12:50:15.275,eb:33:2e:f9:57:b5, 2015-01-01 00:36:18.515,0.633,0.817,3.801,250.366,-15.564,-132.446, , , , , , ,97.24,14.991,-100.058
 12:50:15.275,eb:33:2e:f9:57:b5, 2015-01-01 00:36:18.515,0.58,0.458,3.772,244.446,-20.813,-156.311, , , , , , ,98.476,15.732,-100.031
 12:50:15.276,eb:33:2e:f9:57:b5, 2015-01-01 00:36:18.515,0.562,0.079,3.749,233.826,-22.644,-173.462, , , , , , ,99.673,16.578,-100.009
 12:50:15.276,eb:33:2e:f9:57:b5, 2015-01-01 00:36:18.515,0.557,-0.266,3.715,217.224,-20.02,-184.204, , , , , , ,100.778,17.479,-99.954
 12:50:15.276,eb:33:2e:f9:57:b5, 2015-01-01 00:36:18.515,0.531,-0.572,3.686,194.946,-12.268,-189.209, , , , , , ,101.838,18.413,-99.838
 12:50:15.276,eb:33:2e:f9:57:b5, 2015-01-01 00:36:18.515,0.512,-0.812,3.648,167.969,-1.709,-189.453, , , , , , ,102.788,19.347,-99.635
 12:50:15.278,eb:33:2e:f9:57:b5, 2015-01-01 00:36:18.515,0.512,-1.018,3.571,130.554,13.855,-184.753, , , , , , ,103.612,20.253,-99.371
 12:50:15.278,eb:33:2e:f9:57:b5, 2015-01-01 00:36:18.515,0.52,-1.141,3.488,103.821,24.902,-179.565, , , , , , ,104.26,21.105,-99.036
 12:50:15.278,eb:33:2e:f9:57:b5, 2015-01-01 00:36:18.515,0.526,-1.273,3.333,69.336,38.452,-171.021, , , , , , ,104.826,21.907,-98.63
 12:50:15.278,eb:33:2e:f9:57:b5, 2015-01-01 00:36:18.515,0.506,-1.39,3.144,35.217,50.72,-160.645, , , , , , ,105.249,22.643,-98.135
 12:50:15.278,eb:33:2e:f9:57:b5, 2015-01-01 00:36:18.515,0.373,-1.487,2.939,2.502,58.472,-148.804, , , , , , ,105.524,23.313,-97.625
 12:50:15.278,eb:33:2e:f9:57:b5, 2015-01-01 00:36:18.515,0.246,-1.646,2.635,-32.349,56.702,-132.751, , , , , , ,105.595,23.901,-97.125
 12:50:15.278,eb:33:2e:f9:57:b5, 2015-01-01 00:36:18.515,0.194,-1.844,2.413,-56.763,47.363,-117.798, , , , , , ,105.54,24.428,-96.674
 12:50:15.278,eb:33:2e:f9:57:b5, 2015-01-01 00:36:18.515,0.255,-2.034,2.259,-79.163,35.95,-101.013, , , , , , ,105.348,24.895,-96.279
 12:50:15.321,eb:33:2e:f9:57:b5, 2015-01-01 00:36:18.515,0.399,-2.108,2.084,-103.394,27.832,-83.801, , , , , , ,105.002,25.296,-95.982
 12:50:15.321,eb:33:2e:f9:57:b5, 2015-01-01 00:36:18.515,0.633,-2.07,1.814,-132.202,23.132,-69.519, , , , , , ,104.453,25.626,-95.768
 12:50:15.321,eb:33:2e:f9:57:b5, 2015-01-01 00:36:18.515,0.877,-1.992,1.587,-166.382,24.719,-58.96, , , , , , ,103.782,25.9,-95.554
 12:50:15.321,eb:33:2e:f9:57:b5, 2015-01-01 00:36:18.515,1.044,-2.007,1.233,-207.275,31.982,-51.758, , , , , , ,102.931,26.136,-95.306
 12:50:15.321,eb:33:2e:f9:57:b5, 2015-01-01 00:36:18.515,1.202,-2.102,0.273,-263.55,40.222,-47.119, , , , , , ,101.849,26.334,-95.048
 12:50:15.321,eb:33:2e:f9:57:b5, 2015-01-01 00:36:18.515,1.458,-2.143,-1.17,-342.224,47.302,-45.837, , , , , , ,100.382,26.516,-94.779
 12:50:15.321,eb:33:2e:f9:57:b5, 2015-01-01 00:36:18.515,1.69,-2.161,-1.947,-426.514,38.879,-52.002, , , , , , ,98.542,26.724,-94.493
 12:50:15.321,eb:33:2e:f9:57:b5, 2015-01-01 00:36:18.515,1.619,-2.198,-0.925,-486.816,17.212,-64.514, , , , , , ,96.301,26.999,-94.285
 12:50:15.367,eb:33:2e:f9:57:b5, 2015-01-01 00:36:18.515,1.424,-2.043,-0.225,-523.071,-14.832,-75.745, , , , , , ,93.763,27.356,-94.252
 12:50:15.367,eb:33:2e:f9:57:b5, 2015-01-01 00:36:18.515,1.39,-1.741,-0.409,-551.208,-58.411,-85.205, , , , , , ,90.923,27.768,-94.493
 12:50:15.367,eb:33:2e:f9:57:b5, 2015-01-01 00:36:18.515,1.42,-1.487,-0.751,-579.712,-107.117,-93.384, , , , , , ,87.841,28.218,-94.993
 12:50:15.367,eb:33:2e:f9:57:b5, 2015-01-01 00:36:18.515,1.365,-1.355,-0.733,-604.98,-155.396,-99.915, , , , , , ,84.479,28.658,-95.79
 12:50:15.367,eb:33:2e:f9:57:b5, 2015-01-01 00:36:18.515,1.22,-1.371,-0.333,-619.568,-200.012,-101.99, , , , , , ,80.87,29.042,-96.894
 12:50:15.367,eb:33:2e:f9:57:b5, 2015-01-01 00:36:18.515,1.042,-1.433,0.179,-622.437,-240.479,-97.168, , , , , , ,77.042,29.312,-98.3
 12:50:15.367,eb:33:2e:f9:57:b5, 2015-01-01 00:36:18.515,0.877,-1.475,0.661,-618.103,-274.902,-84.717, , , , , , ,73.163,29.416,-99.882
 12:50:15.367,eb:33:2e:f9:57:b5, 2015-01-01 00:36:18.515,0.722,-1.493,1.105,-612.854,-299.744,-64.941, , , , , , ,69.247,29.295,-101.585
 12:50:15.410,eb:33:2e:f9:57:b5, 2015-01-01 00:36:18.515,0.581,-1.487,1.459,-610.901,-313.66,-38.025, , , , , , ,65.341,28.927,-103.321
 12:50:15.410,eb:33:2e:f9:57:b5, 2015-01-01 00:36:18.515,0.498,-1.473,1.756,-613.159,-318.481,-6.287, , , , , , ,61.436,28.295,-105.024
 12:50:15.410,eb:33:2e:f9:57:b5, 2015-01-01 00:36:18.515,0.474,-1.453,2.078,-617.676,-315.125,28.015, , , , , , ,57.651,27.427,-106.529
 12:50:15.410,eb:33:2e:f9:57:b5, 2015-01-01 00:36:18.515,0.5,-1.387,2.347,-622.498,-307.8,61.462, , , , , , ,53.959,26.356,-107.803
 12:50:15.410,eb:33:2e:f9:57:b5, 2015-01-01 00:36:18.515,0.575,-1.263,2.498,-626.16,-300.232,91.187, , , , , , ,50.378,25.115,-108.864
 12:50:15.410,eb:33:2e:f9:57:b5, 2015-01-01 00:36:18.515,0.661,-1.108,2.555,-626.892,-294.8,116.028, , , , , , ,46.846,23.719,-109.731
 12:50:15.410,eb:33:2e:f9:57:b5, 2015-01-01 00:36:18.515,0.707,-0.969,2.567,-623.413,-292.847,135.803, , , , , , ,43.467,22.231,-110.369
 12:50:15.410,eb:33:2e:f9:57:b5, 2015-01-01 00:36:18.515,0.709,-0.879,2.546,-615.784,-295.41,152.771, , , , , , ,40.199,20.649,-110.83
 12:50:15.456,eb:33:2e:f9:57:b5, 2015-01-01 00:36:18.960,0.766,-0.826,2.536,-607.971,-298.828,168.762, , , , , , ,37.035,18.979,-111.143
 12:50:15.456,eb:33:2e:f9:57:b5, 2015-01-01 00:36:18.960,0.837,-0.77,2.611,-602.539,-294.983,183.716, , , , , , ,33.92,17.238,-111.319
 12:50:15.456,eb:33:2e:f9:57:b5, 2015-01-01 00:36:18.960,0.879,-0.649,2.525,-599.67,-291.809,195.74, , , , , , ,30.921,15.491,-111.292
 12:50:15.456,eb:33:2e:f9:57:b5, 2015-01-01 00:36:18.960,0.853,-0.476,2.303,-598.206,-300.537,202.332, , , , , , ,27.96,13.705,-111.138
 12:50:15.456,eb:33:2e:f9:57:b5, 2015-01-01 00:36:18.960,0.863,-0.296,2.169,-597.046,-321.167,202.515, , , , , , ,25.021,11.854,-110.923
 12:50:15.456,eb:33:2e:f9:57:b5, 2015-01-01 00:36:18.960,0.897,-0.133,2.335,-596.008,-339.539,198.181, , , , , , ,22.033,9.91,-110.687
 12:50:15.456,eb:33:2e:f9:57:b5, 2015-01-01 00:36:18.960,0.854,0.067,2.63,-595.764,-349.426,190.796, , , , , , ,19.105,7.949,-110.385
 12:50:15.457,eb:33:2e:f9:57:b5, 2015-01-01 00:36:18.960,0.721,0.403,2.94,-597.839,-355.164,178.833, , , , , , ,16.161,5.988,-110.039
 12:50:15.479,eb:33:2e:f9:57:b5, 2015-01-01 00:36:18.960,0.545,0.728,3.221,-602.112,-354.858,167.053, , , , , , ,13.189,4.048,-109.655
 12:50:15.479,eb:33:2e:f9:57:b5, 2015-01-01 00:36:18.960,0.386,1.104,3.573,-608.215,-344.238,154.968, , , , , , ,10.135,2.159,-109.243
 12:50:15.479,eb:33:2e:f9:57:b5, 2015-01-01 00:36:18.960,0.178,1.562,4,-612.244,-317.2,143.494, , , , , , ,7.086,0.417,-108.754
 12:50:15.479,eb:33:2e:f9:57:b5, 2015-01-01 00:36:18.960,0.022,2.135,4.344,-607.178,-280.151,129.822, , , , , , ,4.032,-1.115,-108.232
 12:50:15.479,eb:33:2e:f9:57:b5, 2015-01-01 00:36:18.960,-0.13,2.802,4.655,-591.553,-239.197,113.464, , , , , , ,1.022,-2.417,-107.688
 12:50:15.479,eb:33:2e:f9:57:b5, 2015-01-01 00:36:18.960,-0.283,3.482,4.843,-567.383,-206.36,93.323, , , , , , ,-1.939,-3.527,-107.172
 12:50:15.479,eb:33:2e:f9:57:b5, 2015-01-01 00:36:18.960,-0.512,4.09,4.921,-537.964,-184.082,72.021, , , , , , ,-4.724,-4.46,-106.716
 12:50:15.479,eb:33:2e:f9:57:b5, 2015-01-01 00:36:18.960,-0.778,4.662,4.935,-502.686,-173.95,50.72, , , , , , ,-7.344,-5.312,-106.331
 12:50:15.523,eb:33:2e:f9:57:b5, 2015-01-01 00:36:18.960,-0.965,5.258,4.976,-460.693,-172.241,28.992, , , , , , ,-9.767,-6.136,-106.013
 12:50:15.523,eb:33:2e:f9:57:b5, 2015-01-01 00:36:18.960,-1.135,5.929,4.998,-416.016,-173.401,7.629, , , , , , ,-12.003,-6.982,-105.771
 12:50:15.523,eb:33:2e:f9:57:b5, 2015-01-01 00:36:18.960,-1.252,6.631,4.875,-371.948,-175.537,-15.137, , , , , , ,-13.975,-7.844,-105.601
 12:50:15.523,eb:33:2e:f9:57:b5, 2015-01-01 00:36:18.960,-1.343,7.267,4.891,-325.806,-169.617,-39.429, , , , , , ,-15.71,-8.718,-105.529
 12:50:15.523,eb:33:2e:f9:57:b5, 2015-01-01 00:36:18.960,-1.423,7.843,5.093,-271.118,-150.513,-65.491, , , , , , ,-17.172,-9.564,-105.568
 12:50:15.523,eb:33:2e:f9:57:b5, 2015-01-01 00:36:18.960,-1.57,8.284,5.147,-205.994,-120.789,-91.919, , , , , , ,-18.331,-10.333,-105.754
 12:50:15.523,eb:33:2e:f9:57:b5, 2015-01-01 00:36:18.960,-1.747,8.373,4.748,-135.498,-89.05,-115.173, , , , , , ,-19.083,-10.986,-106.1
 12:50:15.523,eb:33:2e:f9:57:b5, 2015-01-01 00:36:18.960,-1.951,8.034,4.027,-68.848,-60.059,-128.601, , , , , , ,-19.468,-11.53,-106.584
 12:50:15.592,eb:33:2e:f9:57:b5, 2015-01-01 00:36:18.960,-2.109,7.4,3.231,-9.46,-37.476,-130.066, , , , , , ,-19.517,-11.964,-107.133
 12:50:15.592,eb:33:2e:f9:57:b5, 2015-01-01 00:36:18.960,-2.15,6.641,2.631,41.809,-21.179,-121.399, , , , , , ,-19.303,-12.31,-107.693
 12:50:15.592,eb:33:2e:f9:57:b5, 2015-01-01 00:36:18.960,-2.105,5.897,2.372,83.618,-8.24,-105.286, , , , , , ,-18.853,-12.557,-108.215
 12:50:15.592,eb:33:2e:f9:57:b5, 2015-01-01 00:36:18.960,-1.999,5.287,2.261,116.882,2.747,-86.548, , , , , , ,-18.232,-12.717,-108.677
 12:50:15.592,eb:33:2e:f9:57:b5, 2015-01-01 00:36:18.960,-1.858,4.748,2.106,145.508,10.864,-67.627, , , , , , ,-17.479,-12.794,-109.056
 12:50:15.592,eb:33:2e:f9:57:b5, 2015-01-01 00:36:18.960,-0.999,4.153,1.939,208.374,-18.677,-85.022, , , , , , ,-16.545,-12.876,-109.385
 12:50:15.592,eb:33:2e:f9:57:b5, 2015-01-01 00:36:18.960,-2.216,3.761,10.176,405.151,222.595,-31.067, , , , , , ,-14.738,-12.376,-109.907
 12:50:15.592,eb:33:2e:f9:57:b5, 2015-01-01 00:36:18.960,0.63,4.701,2.352,528.015,222.595,-104.736, , , , , , ,-12.211,-11.574,-110.61
 12:50:15.702,eb:33:2e:f9:57:b5, 2015-01-01 00:36:18.960,0.636,5.14,1.879,528.992,300.842,-121.521, , , , , , ,-9.344,-10.228,-111.39
 12:50:15.702,eb:33:2e:f9:57:b5, 2015-01-01 00:36:18.960,1.794,1.741,3.906,440.674,432.068,-117.981, , , , , , ,-6.79,-8.416,-112.242
 12:50:15.702,eb:33:2e:f9:57:b5, 2015-01-01 00:36:18.960,-0.897,2.248,3.925,329.712,499.207,-143.799, , , , , , ,-4.812,-6.081,-113.159
 12:50:15.702,eb:33:2e:f9:57:b5, 2015-01-01 00:36:18.960,-2.914,1.208,3.416,247.62,495.605,-102.539, , , , , , ,-3.329,-3.631,-114.011
 12:50:15.702,eb:33:2e:f9:57:b5, 2015-01-01 00:36:18.960,-2.539,1.328,1.475,156.677,433.777,-23.438, , , , , , ,-2.351,-1.313,-114.428
 12:50:15.702,eb:33:2e:f9:57:b5, 2015-01-01 00:36:18.960,-1.506,1.594,0.239,72.266,298.95,-9.277, , , , , , ,-1.84,0.445,-114.549
 12:50:15.702,eb:33:2e:f9:57:b5, 2015-01-01 00:36:18.960,-0.08,-0.261,0.036,70.74,164.185,-0.916, , , , , , ,-1.5,1.494,-114.598
 12:50:15.702,eb:33:2e:f9:57:b5, 2015-01-01 00:36:18.960,0.168,-0.458,0.685,89.355,109.924,2.747, , , , , , ,-1.082,2.131,-114.593
 12:50:15.727,eb:33:2e:f9:57:b5, 2015-01-01 00:36:18.960,-0.775,0.608,1.119,68.298,132.08,3.662, , , , , , ,-0.67,2.741,-114.587
 12:50:15.727,eb:33:2e:f9:57:b5, 2015-01-01 00:36:18.960,-0.136,0.072,0.47,50.781,83.923,6.042, , , , , , ,-0.396,3.301,-114.549
 12:50:15.728,eb:33:2e:f9:57:b5, 2015-01-01 00:36:18.960,-0.441,0.186,0.854,41.809,79.285,0.61, , , , , , ,-0.159,3.708,-114.549
 12:50:15.728,eb:33:2e:f9:57:b5, 2015-01-01 00:36:18.960,-0.331,0.1,0.775,33.691,51.086,1.038, , , , , , ,0.016,3.994,-114.538
 12:50:15.728,eb:33:2e:f9:57:b5, 2015-01-01 00:36:18.960,0.037,0.007,0.92,32.898,42.114,-0.122, , , , , , ,0.176,4.241,-114.538
 12:50:15.728,eb:33:2e:f9:57:b5, 2015-01-01 00:36:18.960,0.086,0.138,1.137,34.18,45.532,-7.507, , , , , , ,0.357,4.449,-114.56
 12:50:15.728,eb:33:2e:f9:57:b5, 2015-01-01 00:36:18.960,-0.072,0.122,1.203,38.391,53.772,-17.883, , , , , , ,0.533,4.702,-114.626
 12:50:15.728,eb:33:2e:f9:57:b5, 2015-01-01 00:36:18.960,-0.2,0.043,1.118,42.908,54.321,-24.475, , , , , , ,0.731,4.977,-114.736
 12:50:15.748,eb:33:2e:f9:57:b5, 2015-01-01 00:36:18.960,-0.333,-0.003,1.05,44.25,49.316,-23.743, , , , , , ,0.939,5.235,-114.857
 12:50:15.748,eb:33:2e:f9:57:b5, 2015-01-01 00:36:18.960,-0.298,-0.108,0.999,48.279,33.875,-19.592, , , , , , ,1.176,5.444,-114.955
 12:50:15.748,eb:33:2e:f9:57:b5, 2015-01-01 00:36:18.960,-0.221,0.025,0.803,47.913,15.808,-17.151, , , , , , ,1.406,5.565,-115.043
 12:50:15.748,eb:33:2e:f9:57:b5, 2015-01-01 00:36:18.960,-0.188,0.032,0.98,50.659,-0.427,-14.16, , , , , , ,1.642,5.592,-115.12
 12:50:15.748,eb:33:2e:f9:57:b5, 2015-01-01 00:36:18.960,-0.156,-0.097,1.236,64.087,-13.306,-10.681, , , , , , ,1.928,5.554,-115.175
 12:50:15.748,eb:33:2e:f9:57:b5, 2015-01-01 00:36:18.960,-0.09,-0.119,1.402,72.632,-7.568,-5.615, , , , , , ,2.285,5.504,-115.219
 12:50:15.748,eb:33:2e:f9:57:b5, 2015-01-01 00:36:18.960,-0.086,-0.134,1.488,85.632,-5.676,-1.16, , , , , , ,2.686,5.477,-115.23
 12:50:15.748,eb:33:2e:f9:57:b5, 2015-01-01 00:36:18.960,-0.064,0.047,1.226,95.154,-21.179,-0.671, , , , , , ,3.142,5.405,-115.241
 12:50:15.748,eb:33:2e:f9:57:b5, 2015-01-01 00:36:18.960,-0.241,-0.042,1.604,113.342,-33.752,4.15, , , , , , ,3.669,5.262,-115.236
 12:50:15.748,eb:33:2e:f9:57:b5, 2015-01-01 00:36:18.960,-0.421,-0.256,2.19,129.456,-36.255,15.137, , , , , , ,4.296,5.059,-115.203
 12:50:15.748,eb:33:2e:f9:57:b5, 2015-01-01 00:36:18.960,-0.444,-0.547,2.776,162.72,-31.921,32.043, , , , , , ,5.048,4.911,-115.082
 12:50:15.748,eb:33:2e:f9:57:b5, 2015-01-01 00:36:18.960,-0.351,-0.666,3.047,206.421,-53.955,46.875, , , , , , ,5.999,4.647,-114.906
 12:50:15.750,eb:33:2e:f9:57:b5, 2015-01-01 00:36:18.960,-0.198,-0.669,3.386,260.437,-71.106,57.617, , , , , , ,7.207,4.29,-114.675
 12:50:15.750,eb:33:2e:f9:57:b5, 2015-01-01 00:36:18.960,0.045,-0.894,3.929,311.279,-62.378,64.331, , , , , , ,8.685,3.911,-114.406
 12:50:15.750,eb:33:2e:f9:57:b5, 2015-01-01 00:36:18.960,0.757,-1.095,4.36,375.244,-30.212,70.801, , , , , , ,10.459,3.653,-114.082
 12:50:15.750,eb:33:2e:f9:57:b5, 2015-01-01 00:36:18.960,1.044,-0.828,4.185,437.439,-16.357,56.702, , , , , , ,12.541,3.488,-113.791
 12:50:15.793,eb:33:2e:f9:57:b5, 2015-01-01 00:36:18.960,1.076,-0.751,4.687,490.845,23.193,28.87, , , , , , ,14.897,3.45,-113.604
 12:50:15.793,eb:33:2e:f9:57:b5, 2015-01-01 00:36:18.960,1.344,-1.082,4.901,537.476,93.079,7.69, , , , , , ,17.518,3.741,-113.412
 12:50:15.793,eb:33:2e:f9:57:b5, 2015-01-01 00:36:18.960,1.415,-1.307,4.666,584.229,156.494,-12.573, , , , , , ,20.363,4.384,-113.214
 12:50:15.793,eb:33:2e:f9:57:b5, 2015-01-01 00:36:18.960,1.538,-0.928,3.98,635.864,179.321,-57.678, , , , , , ,23.439,5.251,-113.055
 12:50:15.793,eb:33:2e:f9:57:b5, 2015-01-01 00:36:18.960,1.357,-0.995,4.272,681.58,195.679,-80.505, , , , , , ,26.768,6.262,-112.994
 12:50:15.793,eb:33:2e:f9:57:b5, 2015-01-01 00:36:18.960,1.103,-0.907,4.184,732.91,192.017,-99.609, , , , , , ,30.344,7.344,-112.901
 12:50:15.793,eb:33:2e:f9:57:b5, 2015-01-01 00:36:18.960,0.18,-0.788,5.296,759.705,189.636,-123.047, , , , , , ,34.107,8.438,-112.896
 12:50:15.793,eb:33:2e:f9:57:b5, 2015-01-01 00:36:18.960,0.296,-1.023,5.452,780.334,187.317,-116.272, , , , , , ,37.991,9.575,-112.747
 12:50:15.817,eb:33:2e:f9:57:b5, 2015-01-01 00:36:18.960,-0.384,0.005,4.286,757.69,125.305,-117.249, , , , , , ,41.863,10.508,-112.703
 12:50:15.817,eb:33:2e:f9:57:b5, 2015-01-01 00:36:18.960,-0.236,-0.115,4.249,721.375,122.864,-82.642, , , , , , ,45.549,11.288,-112.632
 12:50:15.817,eb:33:2e:f9:57:b5, 2015-01-01 00:36:18.960,0.295,0.76,1.741,664.307,35.095,-88.257, , , , , , ,48.999,11.843,-112.637
 12:50:15.817,eb:33:2e:f9:57:b5, 2015-01-01 00:36:18.960,0.424,1.551,2.664,623.779,-12.329,-119.263, , , , , , ,52.097,12.239,-112.967
 12:50:15.819,eb:33:2e:f9:57:b5, 2015-01-01 00:36:18.960,-0.077,0.817,5.018,635.437,95.642,-110.229, , , , , , ,55.173,12.843,-113.181
 12:50:15.819,eb:33:2e:f9:57:b5, 2015-01-01 00:36:18.960,-0.014,-0.853,4.386,763.977,234.253,-88.074, , , , , , ,58.804,13.738,-112.654
 12:50:15.819,eb:33:2e:f9:57:b5, 2015-01-01 00:36:18.960,-0.457,-0.098,1.722,862.61,303.467,-51.147, , , , , , ,63.309,14.727,-111.462
 12:50:15.819,eb:33:2e:f9:57:b5, 2015-01-01 00:36:18.960,-0.482,2.458,-1.321,766.052,246.399,-44.922, , , , , , ,67.637,15.518,-110.352
 12:50:15.838,eb:33:2e:f9:57:b5, 2015-01-01 00:36:18.960,-0.501,1.032,0.68,680.176,236.755,3.845, , , , , , ,71.516,16.018,-109.182
 12:50:15.838,eb:33:2e:f9:57:b5, 2015-01-01 00:36:18.960,0.088,0.675,0.596,592.529,188.293,47.668, , , , , , ,74.943,16.166,-108.105
 12:50:15.838,eb:33:2e:f9:57:b5, 2015-01-01 00:36:18.960,0.358,0.662,0.931,494.019,177.124,82.642, , , , , , ,77.888,16.035,-107.111
 12:50:15.838,eb:33:2e:f9:57:b5, 2015-01-01 00:36:18.960,0.533,0.607,1.56,411.743,179.688,102.234, , , , , , ,80.37,15.732,-106.089
 12:50:15.838,eb:33:2e:f9:57:b5, 2015-01-01 00:36:18.960,0.645,0.896,2.34,356.14,178.894,105.774, , , , , , ,82.524,15.348,-105.084
 12:50:15.838,eb:33:2e:f9:57:b5, 2015-01-01 00:36:18.960,0.816,1.312,3.108,326.782,170.41,94.36, , , , , , ,84.441,14.941,-104.123
 12:50:15.838,eb:33:2e:f9:57:b5, 2015-01-01 00:36:18.960,0.93,1.767,3.687,316.711,152.771,69.946, , , , , , ,86.259,14.606,-103.26
 12:50:15.838,eb:33:2e:f9:57:b5, 2015-01-01 00:36:18.960,0.916,2.12,3.948,319.397,121.887,34.18, , , , , , ,88.022,14.398,-102.53
 12:50:15.883,eb:33:2e:f9:57:b5, 2015-01-01 00:36:19.385,0.947,2.199,3.887,330.017,81.055,-9.155, , , , , , ,89.775,14.365,-102.019
 12:50:15.883,eb:33:2e:f9:57:b5, 2015-01-01 00:36:19.385,1.104,1.968,3.741,342.834,40.588,-55.176, , , , , , ,91.516,14.54,-101.722
 12:50:15.883,eb:33:2e:f9:57:b5, 2015-01-01 00:36:19.385,1.196,1.451,3.826,354.919,12.085,-98.999, , , , , , ,93.301,14.941,-101.591
 12:50:15.883,eb:33:2e:f9:57:b5, 2015-01-01 00:36:19.385,1.12,0.813,4.073,367.126,-2.258,-136.23, , , , , , ,95.125,15.551,-101.508
 12:50:15.883,eb:33:2e:f9:57:b5, 2015-01-01 00:36:19.385,1.059,0.271,4.185,377.197,-9.338,-167.908, , , , , , ,97.004,16.331,-101.459
 12:50:15.883,eb:33:2e:f9:57:b5, 2015-01-01 00:36:19.385,0.95,-0.139,4.146,377.93,-9.521,-192.993, , , , , , ,98.893,17.238,-101.376
 12:50:15.883,eb:33:2e:f9:57:b5, 2015-01-01 00:36:19.385,0.875,-0.549,3.976,368.225,-6.104,-211.67, , , , , , ,100.8,18.254,-101.234
 12:50:15.883,eb:33:2e:f9:57:b5, 2015-01-01 00:36:19.385,0.815,-0.902,3.915,348.877,1.221,-222.656, , , , , , ,102.662,19.325,-100.981
 12:50:15.928,eb:33:2e:f9:57:b5, 2015-01-01 00:36:19.385,0.735,-1.096,3.733,319.275,8.301,-226.562, , , , , , ,104.425,20.418,-100.673
 12:50:15.928,eb:33:2e:f9:57:b5, 2015-01-01 00:36:19.385,0.669,-1.254,3.543,282.349,14.404,-224.976, , , , , , ,106.013,21.484,-100.294
 12:50:15.929,eb:33:2e:f9:57:b5, 2015-01-01 00:36:19.385,0.616,-1.424,3.402,241.394,20.081,-218.506, , , , , , ,107.468,22.516,-99.86
 12:50:15.929,eb:33:2e:f9:57:b5, 2015-01-01 00:36:19.385,0.583,-1.577,3.291,199.524,25.818,-207.581, , , , , , ,108.732,23.489,-99.355
 12:50:15.929,eb:33:2e:f9:57:b5, 2015-01-01 00:36:19.385,0.565,-1.714,3.222,159.485,32.471,-193.42, , , , , , ,109.819,24.384,-98.844
 12:50:15.929,eb:33:2e:f9:57:b5, 2015-01-01 00:36:19.385,0.559,-1.798,3.164,121.216,41.138,-177.246, , , , , , ,110.687,25.175,-98.311
 12:50:15.929,eb:33:2e:f9:57:b5, 2015-01-01 00:36:19.385,0.519,-1.813,3.123,83.862,52.551,-159.973, , , , , , ,111.429,25.867,-97.729
 12:50:15.929,eb:33:2e:f9:57:b5, 2015-01-01 00:36:19.385,0.428,-1.767,2.996,46.509,63.293,-142.517, , , , , , ,112.006,26.455,-97.092
 12:50:15.996,eb:33:2e:f9:57:b5, 2015-01-01 00:36:19.385,0.338,-1.73,2.836,10.681,70.435,-125.183, , , , , , ,112.418,26.938,-96.46
 12:50:15.996,eb:33:2e:f9:57:b5, 2015-01-01 00:36:19.385,0.227,-1.746,2.703,-22.522,72.571,-108.032, , , , , , ,112.604,27.323,-95.856
 12:50:15.996,eb:33:2e:f9:57:b5, 2015-01-01 00:36:19.385,0.119,-1.832,2.553,-52.368,68.542,-90.21, , , , , , ,112.67,27.642,-95.279
 12:50:15.996,eb:33:2e:f9:57:b5, 2015-01-01 00:36:19.385,0.075,-1.998,2.422,-78.613,60.059,-71.411, , , , , , ,112.56,27.883,-94.746
 12:50:15.996,eb:33:2e:f9:57:b5, 2015-01-01 00:36:19.385,0.16,-2.159,2.301,-103.271,51.575,-52.063, , , , , , ,112.286,28.054,-94.334
 12:50:15.996,eb:33:2e:f9:57:b5, 2015-01-01 00:36:19.385,0.346,-2.238,2.195,-129.944,50.537,-32.715, , , , , , ,111.808,28.147,-94.005
 12:50:15.996,eb:33:2e:f9:57:b5, 2015-01-01 00:36:19.385,0.548,-2.198,1.912,-168.396,56.641,-12.756, , , , , , ,111.198,28.147,-93.68
 12:50:15.997,eb:33:2e:f9:57:b5, 2015-01-01 00:36:19.385,0.831,-2.172,1.333,-210.327,64.27,-0.854, , , , , , ,110.396,28.059,-93.323
 12:50:16.018,eb:33:2e:f9:57:b5, 2015-01-01 00:36:19.385,1.109,-2.159,0.387,-269.287,73.73,5.798, , , , , , ,109.347,27.927,-92.955
 12:50:16.018,eb:33:2e:f9:57:b5, 2015-01-01 00:36:19.385,1.454,-2.166,-1.03,-349.121,76.355,4.089, , , , , , ,107.902,27.779,-92.587
 12:50:16.018,eb:33:2e:f9:57:b5, 2015-01-01 00:36:19.385,1.599,-2.25,-1.697,-433.777,63.171,-6.958, , , , , , ,106.078,27.686,-92.208
 12:50:16.019,eb:33:2e:f9:57:b5, 2015-01-01 00:36:19.385,1.494,-2.355,-0.937,-494.812,32.959,-23.438, , , , , , ,103.843,27.708,-91.906
 12:50:16.019,eb:33:2e:f9:57:b5, 2015-01-01 00:36:19.385,1.424,-2.147,-0.488,-534.79,-15.93,-40.649, , , , , , ,101.272,27.867,-91.84
 12:50:16.019,eb:33:2e:f9:57:b5, 2015-01-01 00:36:19.385,1.488,-1.787,-0.669,-572.327,-73.792,-57.19, , , , , , ,98.333,28.158,-92.104
 12:50:16.019,eb:33:2e:f9:57:b5, 2015-01-01 00:36:19.385,1.559,-1.515,-0.917,-613.22,-130.798,-73.975, , , , , , ,95.076,28.553,-92.67
 12:50:16.019,eb:33:2e:f9:57:b5, 2015-01-01 00:36:19.385,1.54,-1.393,-0.779,-650.085,-184.57,-90.942, , , , , , ,91.461,29.02,-93.554
 12:50:16.087,eb:33:2e:f9:57:b5, 2015-01-01 00:36:19.385,1.464,-1.408,-0.25,-674.438,-231.995,-105.774, , , , , , ,87.528,29.515,-94.785
 12:50:16.087,eb:33:2e:f9:57:b5, 2015-01-01 00:36:19.385,1.326,-1.45,0.387,-686.707,-270.996,-115.967, , , , , , ,83.315,29.971,-96.339
 12:50:16.087,eb:33:2e:f9:57:b5, 2015-01-01 00:36:19.385,1.142,-1.467,0.926,-689.758,-302.673,-120.117, , , , , , ,78.981,30.333,-98.108
 12:50:16.087,eb:33:2e:f9:57:b5, 2015-01-01 00:36:19.385,0.925,-1.467,1.4,-686.218,-327.759,-116.943, , , , , , ,74.548,30.547,-100.047
 12:50:16.087,eb:33:2e:f9:57:b5, 2015-01-01 00:36:19.385,0.672,-1.422,1.811,-681.396,-346.375,-105.408, , , , , , ,70.076,30.558,-102.118
 12:50:16.087,eb:33:2e:f9:57:b5, 2015-01-01 00:36:19.385,0.464,-1.357,2.153,-678.833,-358.154,-86.975, , , , , , ,65.561,30.322,-104.266
 12:50:16.087,eb:33:2e:f9:57:b5, 2015-01-01 00:36:19.385,0.313,-1.306,2.525,-679.382,-359.009,-61.646, , , , , , ,61.139,29.839,-106.309
 12:50:16.087,eb:33:2e:f9:57:b5, 2015-01-01 00:36:19.385,0.204,-1.27,2.899,-681.458,-348.938,-31.189, , , , , , ,56.81,29.114,-108.166
 12:50:16.087,eb:33:2e:f9:57:b5, 2015-01-01 00:36:19.385,0.13,-1.253,3.221,-682.434,-330.688,2.808, , , , , , ,52.625,28.185,-109.775
 12:50:16.088,eb:33:2e:f9:57:b5, 2015-01-01 00:36:19.385,0.126,-1.231,3.443,-681.152,-308.716,38.452, , , , , , ,48.56,27.07,-111.11
 12:50:16.088,eb:33:2e:f9:57:b5, 2015-01-01 00:36:19.385,0.22,-1.177,3.587,-678.467,-283.691,73.914, , , , , , ,44.731,25.845,-112.077
 12:50:16.088,eb:33:2e:f9:57:b5, 2015-01-01 00:36:19.385,0.423,-1.064,3.611,-675.415,-257.874,105.408, , , , , , ,41.078,24.543,-112.698
 12:50:16.088,eb:33:2e:f9:57:b5, 2015-01-01 00:36:19.385,0.647,-0.919,3.459,-672.18,-237.183,131.592, , , , , , ,37.573,23.214,-113.033
 12:50:16.088,eb:33:2e:f9:57:b5, 2015-01-01 00:36:19.385,0.884,-0.769,3.177,-666.687,-228.943,149.719, , , , , , ,34.135,21.841,-113.17
 12:50:16.088,eb:33:2e:f9:57:b5, 2015-01-01 00:36:19.385,1.075,-0.586,2.896,-657.898,-237.488,157.898, , , , , , ,30.833,20.44,-113.137
 12:50:16.088,eb:33:2e:f9:57:b5, 2015-01-01 00:36:19.385,1.187,-0.325,2.594,-647.278,-266.235,155.396, , , , , , ,27.598,18.951,-113.055
 12:50:16.266,eb:33:2e:f9:57:b5, 2015-01-01 00:36:19.385,1.221,-0.017,2.338,-636.108,-313.965,142.639, , , , , , ,24.406,17.309,-113.033
 12:50:16.266,eb:33:2e:f9:57:b5, 2015-01-01 00:36:19.385,1.147,0.288,2.226,-625.732,-374.756,122.681, , , , , , ,21.182,15.419,-113.137
 12:50:16.266,eb:33:2e:f9:57:b5, 2015-01-01 00:36:19.385,0.992,0.489,2.37,-616.821,-438.049,100.342, , , , , , ,18.034,13.288,-113.324
 12:50:16.266,eb:33:2e:f9:57:b5, 2015-01-01 00:36:19.385,0.824,0.586,2.803,-610.413,-488.22,81.726, , , , , , ,14.914,10.909,-113.566
 12:50:16.266,eb:33:2e:f9:57:b5, 2015-01-01 00:36:19.385,0.568,0.658,3.465,-607.239,-511.353,70.984, , , , , , ,11.832,8.366,-113.791
 12:50:16.266,eb:33:2e:f9:57:b5, 2015-01-01 00:36:19.385,0.22,0.796,4.154,-605.774,-504.456,67.566, , , , , , ,8.734,5.773,-113.928
 12:50:16.266,eb:33:2e:f9:57:b5, 2015-01-01 00:36:19.385,-0.11,1.014,4.738,-604.675,-471.375,68.542, , , , , , ,5.707,3.318,-113.901
 12:50:16.266,eb:33:2e:f9:57:b5, 2015-01-01 00:36:19.385,-0.378,1.336,5.175,-602.844,-417.358,70.862, , , , , , ,2.697,1.093,-113.714
 12:50:16.267,eb:33:2e:f9:57:b5, 2015-01-01 00:36:19.385,-0.526,1.811,5.459,-600.403,-336.304,71.655, , , , , , ,-0.308,-0.758,-113.395
 12:50:16.267,eb:33:2e:f9:57:b5, 2015-01-01 00:36:19.385,-0.628,2.173,5.493,-597.656,-270.447,70.618, , , , , , ,-3.362,-2.252,-113
 12:50:16.267,eb:33:2e:f9:57:b5, 2015-01-01 00:36:19.385,-0.765,2.418,5.502,-590.881,-217.529,70.129, , , , , , ,-6.356,-3.406,-112.555
 12:50:16.267,eb:33:2e:f9:57:b5, 2015-01-01 00:36:19.385,-0.908,2.631,5.49,-575.5,-185.608,70.129, , , , , , ,-9.3,-4.334,-112.077
 12:50:16.267,eb:33:2e:f9:57:b5, 2015-01-01 00:36:19.385,-1.014,2.943,5.417,-550.964,-178.65,69.336, , , , , , ,-12.151,-5.153,-111.566
 12:50:16.267,eb:33:2e:f9:57:b5, 2015-01-01 00:36:19.385,-1.107,3.432,5.291,-519.104,-194.946,66.162, , , , , , ,-14.914,-5.999,-111.011
 12:50:16.267,eb:33:2e:f9:57:b5, 2015-01-01 00:36:19.385,-1.136,4.131,5.146,-477.356,-228.638,57.19, , , , , , ,-17.457,-6.943,-110.413
 12:50:16.267,eb:33:2e:f9:57:b5, 2015-01-01 00:36:19.385,-1.155,4.938,5.15,-421.021,-265.503,40.466, , , , , , ,-19.764,-8.058,-109.786
 12:50:16.271,eb:33:2e:f9:57:b5, 2015-01-01 00:36:19.385,-1.275,5.748,5.289,-353.027,-290.771,15.747, , , , , , ,-21.764,-9.333,-109.155
 12:50:16.271,eb:33:2e:f9:57:b5, 2015-01-01 00:36:19.385,-1.522,6.421,5.296,-283.936,-296.448,-13.184, , , , , , ,-23.45,-10.712,-108.583
 12:50:16.271,eb:33:2e:f9:57:b5, 2015-01-01 00:36:19.385,-1.718,6.938,4.883,-226.318,-284.424,-42.969, , , , , , ,-24.785,-12.107,-108.122
 12:50:16.271,eb:33:2e:f9:57:b5, 2015-01-01 00:36:19.385,-1.996,7.14,4.546,-181.03,-249.939,-68.604, , , , , , ,-25.845,-13.431,-107.82
 12:50:16.271,eb:33:2e:f9:57:b5, 2015-01-01 00:36:19.385,-2.35,6.928,4.264,-139.038,-198.12,-85.693, , , , , , ,-26.658,-14.595,-107.688
 12:50:16.271,eb:33:2e:f9:57:b5, 2015-01-01 00:36:19.385,-2.588,6.427,3.932,-94.91,-135.62,-89.966, , , , , , ,-27.23,-15.529,-107.721
 12:50:16.271,eb:33:2e:f9:57:b5, 2015-01-01 00:36:19.385,-2.644,5.938,3.577,-50.964,-69.275,-83.069, , , , , , ,-27.526,-16.155,-107.891
 12:50:16.271,eb:33:2e:f9:57:b5, 2015-01-01 00:36:19.385,-2.498,5.585,3.126,-11.719,-11.536,-68.604, , , , , , ,-27.587,-16.474,-108.166
 12:50:16.273,eb:33:2e:f9:57:b5, 2015-01-01 00:36:19.385,-2.125,5.338,2.577,21.606,30.579,-52.551, , , , , , ,-27.455,-16.545,-108.474
 12:50:16.273,eb:33:2e:f9:57:b5, 2015-01-01 00:36:19.385,-1.725,5.158,2.351,53.955,58.655,-39.551, , , , , , ,-27.164,-16.436,-108.798
 12:50:16.273,eb:33:2e:f9:57:b5, 2015-01-01 00:36:19.385,-1.396,5.074,2.229,89.294,69.397,-33.63, , , , , , ,-26.702,-16.221,-109.122
 12:50:16.273,eb:33:2e:f9:57:b5, 2015-01-01 00:36:19.385,-1.178,4.942,2.018,127.808,63.416,-33.691, , , , , , ,-26.054,-15.996,-109.44
 12:50:16.273,eb:33:2e:f9:57:b5, 2015-01-01 00:36:19.385,-1.035,4.625,1.857,169.495,46.814,-36.621, , , , , , ,-25.214,-15.831,-109.726
 12:50:16.273,eb:33:2e:f9:57:b5, 2015-01-01 00:36:19.385,-0.936,4.046,1.895,213.135,30.029,-38.147, , , , , , ,-24.159,-15.749,-109.99
 12:50:16.273,eb:33:2e:f9:57:b5, 2015-01-01 00:36:19.385,0.428,3.224,1.865,257.812,19.409,-36.865, , , , , , ,-22.896,-15.721,-110.22
 12:50:16.273,eb:33:2e:f9:57:b5, 2015-01-01 00:36:19.385,-3.836,2.744,6.707,509.033,125.916,-132.996, , , , , , ,-20.918,-15.798,-110.72
 12:50:16.378,eb:33:2e:f9:57:b5, 2015-01-01 00:36:19.385,3.202,5.638,0.498,652.1,350.098,-130.371, , , , , , ,-17.573,-14.183,-111.489
 12:50:16.378,eb:33:2e:f9:57:b5, 2015-01-01 00:36:19.385,-0.408,1.026,2.695,667.603,483.459,-51.514, , , , , , ,-13.975,-12.327,-112.555
 12:50:16.378,eb:33:2e:f9:57:b5, 2015-01-01 00:36:19.385,-0.258,2.317,4.527,645.142,571.899,-96.008, , , , , , ,-10.503,-9.833,-113.593
 12:50:16.378,eb:33:2e:f9:57:b5, 2015-01-01 00:36:19.385,-3.584,0.181,3.059,614.99,573.73,-45.776, , , , , , ,-7.284,-7.07,-114.456
 12:50:16.378,eb:33:2e:f9:57:b5, 2015-01-01 00:36:19.385,-2.394,2.307,2.854,480.225,376.526,6.775, , , , , , ,-4.46,-4.664,-114.736
 12:50:16.378,eb:33:2e:f9:57:b5, 2015-01-01 00:36:19.385,-0.644,3.127,2.906,290.1,265.808,49.133, , , , , , ,-2.681,-3.148,-114.708
 12:50:16.378,eb:33:2e:f9:57:b5, 2015-01-01 00:36:19.385,-1.383,3.297,2.068,145.264,232.727,30.701, , , , , , ,-1.681,-1.945,-114.543
 12:50:16.378,eb:33:2e:f9:57:b5, 2015-01-01 00:36:19.385,-0.832,0.503,0.473,92.346,165.283,27.222, , , , , , ,-1.17,-0.923,-114.467
 12:50:16.401,eb:33:2e:f9:57:b5, 2015-01-01 00:36:19.385,-0.104,-0.83,0.363,115.845,79.041,44.617, , , , , , ,-0.659,-0.374,-114.302
 12:50:16.401,eb:33:2e:f9:57:b5, 2015-01-01 00:36:19.385,-0.282,0.302,0.627,97.717,49.377,47.241, , , , , , ,-0.06,-0.126,-114.06
 12:50:16.401,eb:33:2e:f9:57:b5, 2015-01-01 00:36:19.385,-0.046,0.386,0.907,59.692,63.538,26.917, , , , , , ,0.264,0.236,-113.912
 12:50:16.401,eb:33:2e:f9:57:b5, 2015-01-01 00:36:19.385,-0.304,0.213,0.982,53.223,59.814,13.794, , , , , , ,0.544,0.516,-113.818
 12:50:16.401,eb:33:2e:f9:57:b5, 2015-01-01 00:36:19.385,-0.358,0.222,0.849,46.448,46.265,3.357, , , , , , ,0.797,0.769,-113.774
 12:50:16.401,eb:33:2e:f9:57:b5, 2015-01-01 00:36:19.385,-0.254,-0.061,0.983,47.607,35.156,0.488, , , , , , ,1.044,0.989,-113.769
 12:50:16.401,eb:33:2e:f9:57:b5, 2015-01-01 00:36:19.385,0.231,0.056,0.935,46.143,22.888,-2.014, , , , , , ,1.28,1.121,-113.769
 12:50:16.401,eb:33:2e:f9:57:b5, 2015-01-01 00:36:19.385,0.346,0.139,1.17,45.166,29.48,-11.414, , , , , , ,1.505,1.247,-113.802
 12:50:16.401,eb:33:2e:f9:57:b5, 2015-01-01 00:36:19.385,-0.024,0.172,1.275,46.692,45.288,-21.729, , , , , , ,1.736,1.445,-113.89
 12:50:16.402,eb:33:2e:f9:57:b5, 2015-01-01 00:36:19.385,-0.234,0.197,0.938,41.626,42.786,-24.536, , , , , , ,1.972,1.681,-114
 12:50:16.402,eb:33:2e:f9:57:b5, 2015-01-01 00:36:19.385,-0.087,0.024,0.822,40.466,18.921,-24.109, , , , , , ,2.17,1.829,-114.115
 12:50:16.402,eb:33:2e:f9:57:b5, 2015-01-01 00:36:19.385,-0.152,0.042,0.896,44.556,-1.648,-23.132, , , , , , ,2.379,1.873,-114.23
 12:50:16.402,eb:33:2e:f9:57:b5, 2015-01-01 00:36:19.385,-0.173,-0.065,1.232,50.476,-8.606,-17.334, , , , , , ,2.609,1.84,-114.346
 12:50:16.402,eb:33:2e:f9:57:b5, 2015-01-01 00:36:19.385,-0.005,-0.203,1.534,64.392,-16.418,-7.263, , , , , , ,2.922,1.774,-114.406
 12:50:16.402,eb:33:2e:f9:57:b5, 2015-01-01 00:36:19.385,-0.168,-0.191,1.766,83.679,-12.207,-2.258, , , , , , ,3.29,1.703,-114.434
 12:50:16.404,eb:33:2e:f9:57:b5, 2015-01-01 00:36:19.385,-0.198,-0.221,1.732,104.736,-21.179,0.305, , , , , , ,3.785,1.609,-114.439
 12:50:16.424,eb:33:2e:f9:57:b5, 2015-01-01 00:36:19.855,0.102,-0.379,2.073,129.883,-18.677,16.113, , , , , , ,4.378,1.533,-114.39
 12:50:16.424,eb:33:2e:f9:57:b5, 2015-01-01 00:36:19.855,0.06,0.047,1.918,161.316,-45.837,12.817, , , , , , ,5.142,1.357,-114.329
 12:50:16.424,eb:33:2e:f9:57:b5, 2015-01-01 00:36:19.855,-0.15,-0.202,2.577,188.416,-57.617,14.954, , , , , , ,6.037,1.06,-114.302
 12:50:16.424,eb:33:2e:f9:57:b5, 2015-01-01 00:36:19.855,0.22,-0.834,3.975,232.361,-19.958,42.297, , , , , , ,7.097,0.884,-114.153
 12:50:16.424,eb:33:2e:f9:57:b5, 2015-01-01 00:36:19.855,0.627,-0.438,3.735,300.476,-45.227,35.339, , , , , , ,8.454,0.692,-113.978
 12:50:16.424,eb:33:2e:f9:57:b5, 2015-01-01 00:36:19.855,0.466,-0.47,4.313,365.906,-61.157,16.479, , , , , , ,10.179,0.368,-113.912
 12:50:16.424,eb:33:2e:f9:57:b5, 2015-01-01 00:36:19.855,0.72,-1.506,5.729,427.246,19.47,24.353, , , , , , ,12.189,0.275,-113.818
 12:50:16.424,eb:33:2e:f9:57:b5, 2015-01-01 00:36:19.855,1.049,-1.53,5.431,494.568,90.698,19.348, , , , , , ,14.529,0.566,-113.632
 12:50:16.445,eb:33:2e:f9:57:b5, 2015-01-01 00:36:19.855,1.427,-1.166,4.604,560.364,117.737,-5.798, , , , , , ,17.205,1.093,-113.45
 12:50:16.445,eb:33:2e:f9:57:b5, 2015-01-01 00:36:19.855,1.127,-1.048,4.592,625.549,130.31,-39.612, , , , , , ,20.22,1.725,-113.379
 12:50:16.445,eb:33:2e:f9:57:b5, 2015-01-01 00:36:19.855,0.807,-1.379,4.629,670.837,159.058,-64.941, , , , , , ,23.494,2.494,-113.373
 12:50:16.445,eb:33:2e:f9:57:b5, 2015-01-01 00:36:19.855,1.048,-1.062,5.412,717.529,207.092,-79.773, , , , , , ,26.982,3.499,-113.291
 12:50:16.445,eb:33:2e:f9:57:b5, 2015-01-01 00:36:19.855,0.469,-0.844,5.517,795.349,239.685,-98.206, , , , , , ,30.806,4.719,-113.143
 12:50:16.445,eb:33:2e:f9:57:b5, 2015-01-01 00:36:19.855,-0.442,-0.733,5.003,838.989,233.459,-115.662, , , , , , ,34.953,6.004,-112.939
 12:50:16.446,eb:33:2e:f9:57:b5, 2015-01-01 00:36:19.855,-1.179,-1.454,6.085,819.58,241.577,-99.915, , , , , , ,39.172,7.278,-112.659
 12:50:16.446,eb:33:2e:f9:57:b5, 2015-01-01 00:36:19.855,-0.88,-1.477,6.016,757.324,296.875,-44.434, , , , , , ,43.154,8.52,-111.978
 12:50:16.491,eb:33:2e:f9:57:b5, 2015-01-01 00:36:19.855,-0.645,-1.096,3.113,674.255,249.39,1.343, , , , , , ,46.857,9.542,-111.066
 12:50:16.491,eb:33:2e:f9:57:b5, 2015-01-01 00:36:19.855,-0.089,-0.533,3.023,624.634,241.211,48.645, , , , , , ,50.213,10.228,-110.039
 12:50:16.491,eb:33:2e:f9:57:b5, 2015-01-01 00:36:19.855,0.378,-0.299,3.096,653.259,264.587,81.665, , , , , , ,53.635,10.723,-108.781
 12:50:16.491,eb:33:2e:f9:57:b5, 2015-01-01 00:36:19.855,1.479,1.186,2.128,711.06,228.394,89.478, , , , , , ,57.316,11.058,-107.474
 12:50:16.491,eb:33:2e:f9:57:b5, 2015-01-01 00:36:19.855,0.512,0.622,2.43,924.866,217.102,108.643, , , , , , ,61.661,11.157,-106.249
 12:50:16.491,eb:33:2e:f9:57:b5, 2015-01-01 00:36:19.855,0.447,3.843,-1.613,938.477,92.102,81.726, , , , , , ,66.638,11.014,-105.266
 12:50:16.491,eb:33:2e:f9:57:b5, 2015-01-01 00:36:19.855,-0.209,2.816,1.007,844.299,77.332,98.694, , , , , , ,71.125,10.723,-104.771
 12:50:16.491,eb:33:2e:f9:57:b5, 2015-01-01 00:36:19.855,0.015,1.261,2.022,762.939,70.374,123.047, , , , , , ,75.207,10.3,-104.222
 12:50:16.558,eb:33:2e:f9:57:b5, 2015-01-01 00:36:19.855,0.225,1.119,1.482,659.79,59.998,142.761, , , , , , ,78.794,9.712,-103.766
 12:50:16.558,eb:33:2e:f9:57:b5, 2015-01-01 00:36:19.855,0.575,0.826,1.614,558.899,76.538,151.55, , , , , , ,81.865,9.036,-103.288
 12:50:16.558,eb:33:2e:f9:57:b5, 2015-01-01 00:36:19.855,0.757,0.824,2.253,469.727,105.591,148.621, , , , , , ,84.463,8.339,-102.728
 12:50:16.558,eb:33:2e:f9:57:b5, 2015-01-01 00:36:19.855,0.955,1.321,2.897,407.898,121.033,123.108, , , , , , ,86.704,7.712,-102.063
 12:50:16.558,eb:33:2e:f9:57:b5, 2015-01-01 00:36:19.855,1.095,1.915,3.556,370.544,118.103,80.444, , , , , , ,88.704,7.24,-101.431
 12:50:16.558,eb:33:2e:f9:57:b5, 2015-01-01 00:36:19.855,1.191,2.419,3.985,354.37,94.36,20.935, , , , , , ,90.555,7.009,-100.893
 12:50:16.558,eb:33:2e:f9:57:b5, 2015-01-01 00:36:19.855,1.31,2.57,4.236,353.821,60.73,-45.227, , , , , , ,92.362,7.092,-100.514
 12:50:16.558,eb:33:2e:f9:57:b5, 2015-01-01 00:36:19.855,1.258,2.335,4.487,364.197,19.897,-116.272, , , , , , ,94.186,7.526,-100.278
 12:50:16.603,eb:33:2e:f9:57:b5, 2015-01-01 00:36:19.855,1.156,1.692,4.443,376.404,-20.325,-181.091, , , , , , ,96.048,8.306,-100.234
 12:50:16.603,eb:33:2e:f9:57:b5, 2015-01-01 00:36:19.855,1.083,0.941,4.216,379.15,-50.964,-232.666, , , , , , ,97.916,9.382,-100.294
 12:50:16.603,eb:33:2e:f9:57:b5, 2015-01-01 00:36:19.855,0.969,0.295,3.975,368.103,-72.144,-271.667, , , , , , ,99.761,10.701,-100.415
 12:50:16.603,eb:33:2e:f9:57:b5, 2015-01-01 00:36:19.855,0.792,-0.341,3.965,347.534,-82.886,-297.791, , , , , , ,101.514,12.195,-100.514
 12:50:16.603,eb:33:2e:f9:57:b5, 2015-01-01 00:36:19.855,0.674,-0.871,4.104,322.571,-86.121,-311.34, , , , , , ,103.156,13.782,-100.607
 12:50:16.603,eb:33:2e:f9:57:b5, 2015-01-01 00:36:19.855,0.565,-1.251,4.261,293.03,-79.529,-313.843, , , , , , ,104.65,15.397,-100.635
 12:50:16.603,eb:33:2e:f9:57:b5, 2015-01-01 00:36:19.855,0.505,-1.549,4.313,259.033,-63.049,-307.434, , , , , , ,106.035,16.99,-100.558
 12:50:16.603,eb:33:2e:f9:57:b5, 2015-01-01 00:36:19.855,0.454,-1.774,4.286,221.069,-37.048,-292.297, , , , , , ,107.276,18.495,-100.322
 12:50:16.605,eb:33:2e:f9:57:b5, 2015-01-01 00:36:19.855,0.422,-1.903,4.134,180.725,-7.202,-271.79, , , , , , ,108.38,19.858,-99.97
 12:50:16.605,eb:33:2e:f9:57:b5, 2015-01-01 00:36:19.855,0.348,-1.948,3.945,139.587,24.109,-247.62, , , , , , ,109.297,21.05,-99.47
 12:50:16.605,eb:33:2e:f9:57:b5, 2015-01-01 00:36:19.855,0.269,-1.95,3.732,99.304,51.025,-222.046, , , , , , ,110.105,22.077,-98.844
 12:50:16.605,eb:33:2e:f9:57:b5, 2015-01-01 00:36:19.855,0.197,-1.94,3.597,61.157,72.083,-195.801, , , , , , ,110.759,22.934,-98.102
 12:50:16.605,eb:33:2e:f9:57:b5, 2015-01-01 00:36:19.855,0.101,-1.922,3.572,25.635,88.928,-169.678, , , , , , ,111.264,23.626,-97.333
 12:50:16.605,eb:33:2e:f9:57:b5, 2015-01-01 00:36:19.855,0,-1.925,3.542,-6.775,100.525,-143.799, , , , , , ,111.572,24.164,-96.548
 12:50:16.605,eb:33:2e:f9:57:b5, 2015-01-01 00:36:19.855,-0.024,-1.971,3.431,-36.255,106.873,-118.591, , , , , , ,111.775,24.571,-95.757
 12:50:16.605,eb:33:2e:f9:57:b5, 2015-01-01 00:36:19.855,0.059,-2.043,3.297,-63.965,111.694,-94.971, , , , , , ,111.83,24.851,-94.955
 12:50:16.649,eb:33:2e:f9:57:b5, 2015-01-01 00:36:19.855,0.241,-2.078,3.162,-91.614,120.178,-73.669, , , , , , ,111.753,25.016,-94.191
 12:50:16.650,eb:33:2e:f9:57:b5, 2015-01-01 00:36:19.855,0.473,-2.053,2.994,-120.483,133.545,-55.847, , , , , , ,111.489,25.071,-93.433
 12:50:16.650,eb:33:2e:f9:57:b5, 2015-01-01 00:36:19.855,0.758,-1.976,2.771,-150.818,149.17,-44.312, , , , , , ,111.149,25.038,-92.598
 12:50:16.650,eb:33:2e:f9:57:b5, 2015-01-01 00:36:19.855,0.988,-1.884,2.568,-182.373,167.908,-39.49, , , , , , ,110.682,24.944,-91.67
 12:50:16.650,eb:33:2e:f9:57:b5, 2015-01-01 00:36:19.855,1.337,-1.781,2.28,-214.844,183.716,-42.114, , , , , , ,110.089,24.824,-90.67
 12:50:16.650,eb:33:2e:f9:57:b5, 2015-01-01 00:36:19.855,1.559,-1.685,1.336,-263.672,194.275,-54.199, , , , , , ,109.281,24.736,-89.626
 12:50:16.650,eb:33:2e:f9:57:b5, 2015-01-01 00:36:19.855,1.907,-1.596,-0.365,-328.369,185.242,-73.608, , , , , , ,108.243,24.736,-88.517
 12:50:16.650,eb:33:2e:f9:57:b5, 2015-01-01 00:36:19.855,2.165,-1.58,-2.476,-422.058,154.785,-100.952, , , , , , ,106.76,24.911,-87.457
 12:50:16.694,eb:33:2e:f9:57:b5, 2015-01-01 00:36:19.855,1.956,-1.958,-2.449,-503.601,96.68,-131.836, , , , , , ,104.744,25.318,-86.627
 12:50:16.694,eb:33:2e:f9:57:b5, 2015-01-01 00:36:19.855,1.734,-2.288,-1.414,-547.791,13.611,-157.104, , , , , , ,102.222,25.983,-86.21
 12:50:16.694,eb:33:2e:f9:57:b5, 2015-01-01 00:36:19.855,1.829,-2.072,-1.149,-574.219,-75.623,-176.27, , , , , , ,99.382,26.851,-86.254
 12:50:16.694,eb:33:2e:f9:57:b5, 2015-01-01 00:36:19.855,1.831,-1.736,-0.987,-600.098,-149.17,-192.078, , , , , , ,96.185,27.856,-86.77
 12:50:16.694,eb:33:2e:f9:57:b5, 2015-01-01 00:36:19.855,1.682,-1.656,-0.597,-622.498,-209.229,-203.369, , , , , , ,92.653,28.922,-87.737
 12:50:16.694,eb:33:2e:f9:57:b5, 2015-01-01 00:36:19.855,1.458,-1.774,0.051,-635.071,-254.883,-206.665, , , , , , ,88.786,29.965,-89.127
 12:50:16.694,eb:33:2e:f9:57:b5, 2015-01-01 00:36:19.855,1.211,-1.898,0.726,-638.428,-286.255,-199.89, , , , , , ,84.76,30.905,-90.786
 12:50:16.694,eb:33:2e:f9:57:b5, 2015-01-01 00:36:19.855,0.945,-1.934,1.3,-636.597,-306.335,-184.021, , , , , , ,80.59,31.663,-92.642
 12:50:16.738,eb:33:2e:f9:57:b5, 2015-01-01 00:36:20.235,0.684,-1.87,1.708,-634.399,-321.655,-161.316, , , , , , ,76.344,32.184,-94.669
 12:50:16.738,eb:33:2e:f9:57:b5, 2015-01-01 00:36:20.235,0.432,-1.747,1.958,-635.132,-336.67,-133.484, , , , , , ,71.988,32.426,-96.828
 12:50:16.738,eb:33:2e:f9:57:b5, 2015-01-01 00:36:20.235,0.276,-1.64,2.14,-638.611,-352.478,-101.501, , , , , , ,67.643,32.371,-98.987
 12:50:16.738,eb:33:2e:f9:57:b5, 2015-01-01 00:36:20.235,0.203,-1.595,2.417,-642.761,-363.586,-65.491, , , , , , ,63.303,31.992,-101.096
 12:50:16.738,eb:33:2e:f9:57:b5, 2015-01-01 00:36:20.235,0.198,-1.566,2.718,-645.447,-369.629,-27.893, , , , , , ,59.024,31.295,-103.112
 12:50:16.738,eb:33:2e:f9:57:b5, 2015-01-01 00:36:20.235,0.25,-1.527,2.973,-646.851,-369.934,9.827, , , , , , ,54.8,30.295,-104.98
 12:50:16.738,eb:33:2e:f9:57:b5, 2015-01-01 00:36:20.235,0.354,-1.472,3.161,-648.193,-365.112,45.471, , , , , , ,50.784,29.059,-106.551
 12:50:16.738,eb:33:2e:f9:57:b5, 2015-01-01 00:36:20.235,0.478,-1.383,3.285,-650.879,-356.018,77.148, , , , , , ,46.912,27.631,-107.836
 12:50:16.783,eb:33:2e:f9:57:b5, 2015-01-01 00:36:20.235,0.601,-1.285,3.328,-654.297,-344.36,103.943, , , , , , ,43.193,26.071,-108.853
 12:50:16.783,eb:33:2e:f9:57:b5, 2015-01-01 00:36:20.235,0.667,-1.191,3.338,-657.104,-334.473,126.465, , , , , , ,39.534,24.395,-109.644
 12:50:16.783,eb:33:2e:f9:57:b5, 2015-01-01 00:36:20.235,0.767,-1.071,3.29,-657.41,-332.458,143.127, , , , , , ,36.035,22.659,-110.16
 12:50:16.783,eb:33:2e:f9:57:b5, 2015-01-01 00:36:20.235,0.921,-0.926,3.25,-654.48,-337.463,153.137, , , , , , ,32.624,20.858,-110.506
 12:50:16.783,eb:33:2e:f9:57:b5, 2015-01-01 00:36:20.235,1.071,-0.751,3.204,-648.987,-347.9,155.945, , , , , , ,29.284,18.984,-110.737
 12:50:16.784,eb:33:2e:f9:57:b5, 2015-01-01 00:36:20.235,1.17,-0.543,3.144,-642.761,-364.258,150.513, , , , , , ,25.95,17.023,-110.934
 12:50:16.784,eb:33:2e:f9:57:b5, 2015-01-01 00:36:20.235,1.243,-0.293,3.131,-636.902,-385.437,136.475, , , , , , ,22.72,15.013,-111.061
 12:50:16.784,eb:33:2e:f9:57:b5, 2015-01-01 00:36:20.235,1.19,0.026,3.217,-633.972,-407.471,115.723, , , , , , ,19.506,12.931,-111.204
 12:50:16.828,eb:33:2e:f9:57:b5, 2015-01-01 00:36:20.235,1.075,0.379,3.4,-634.521,-431.213,91.125, , , , , , ,16.298,10.767,-111.374
 12:50:16.828,eb:33:2e:f9:57:b5, 2015-01-01 00:36:20.235,0.831,0.719,3.791,-638.611,-447.754,66.528, , , , , , ,13.024,8.509,-111.594
 12:50:16.828,eb:33:2e:f9:57:b5, 2015-01-01 00:36:20.235,0.484,1.011,4.189,-645.325,-453.491,45.471, , , , , , ,9.789,6.235,-111.78
 12:50:16.828,eb:33:2e:f9:57:b5, 2015-01-01 00:36:20.235,0.131,1.263,4.539,-652.771,-445.74,29.541, , , , , , ,6.526,3.983,-111.929
 12:50:16.828,eb:33:2e:f9:57:b5, 2015-01-01 00:36:20.235,-0.166,1.498,4.81,-658.508,-423.95,18.433, , , , , , ,3.235,1.813,-112
 12:50:16.828,eb:33:2e:f9:57:b5, 2015-01-01 00:36:20.235,-0.414,1.776,5.035,-661.438,-389.709,12.695, , , , , , ,-0.115,-0.231,-112
 12:50:16.828,eb:33:2e:f9:57:b5, 2015-01-01 00:36:20.235,-0.628,2.055,5.255,-659.424,-348.328,11.597, , , , , , ,-3.422,-2.054,-111.885
 12:50:16.828,eb:33:2e:f9:57:b5, 2015-01-01 00:36:20.235,-0.87,2.322,5.589,-649.719,-304.382,15.564, , , , , , ,-6.707,-3.653,-111.682
 12:50:16.874,eb:33:2e:f9:57:b5, 2015-01-01 00:36:20.235,-1.205,2.692,6.021,-627.563,-265.076,22.827, , , , , , ,-9.921,-5.021,-111.379
 12:50:16.874,eb:33:2e:f9:57:b5, 2015-01-01 00:36:20.235,-1.443,3.503,6.503,-577.209,-237.915,27.466, , , , , , ,-13.013,-6.229,-111.006
 12:50:16.874,eb:33:2e:f9:57:b5, 2015-01-01 00:36:20.235,-1.6,4.46,6.662,-518.555,-236.572,24.048, , , , , , ,-15.776,-7.339,-110.583
 12:50:16.874,eb:33:2e:f9:57:b5, 2015-01-01 00:36:20.235,-1.66,5.45,6.43,-453.064,-251.587,12.207, , , , , , ,-18.237,-8.487,-110.143
 12:50:16.874,eb:33:2e:f9:57:b5, 2015-01-01 00:36:20.235,-1.775,6.26,6.002,-388.123,-271.118,-6.409, , , , , , ,-20.38,-9.728,-109.693
 12:50:16.874,eb:33:2e:f9:57:b5, 2015-01-01 00:36:20.235,-1.962,6.98,5.625,-326.172,-287.964,-30.396, , , , , , ,-22.247,-11.091,-109.265
 12:50:16.874,eb:33:2e:f9:57:b5, 2015-01-01 00:36:20.235,-2.245,7.603,5.417,-266.602,-294.128,-57.373, , , , , , ,-23.774,-12.535,-108.902
 12:50:16.874,eb:33:2e:f9:57:b5, 2015-01-01 00:36:20.235,-2.572,7.935,5.146,-210.876,-282.837,-82.275, , , , , , ,-24.999,-14.002,-108.638
 12:50:16.896,eb:33:2e:f9:57:b5, 2015-01-01 00:36:20.235,-2.823,7.798,4.79,-159.241,-243.958,-97.961, , , , , , ,-25.939,-15.381,-108.484
 12:50:16.896,eb:33:2e:f9:57:b5, 2015-01-01 00:36:20.235,-3.011,7.412,4.414,-110.962,-175.842,-101.562, , , , , , ,-26.603,-16.54,-108.484
 12:50:16.896,eb:33:2e:f9:57:b5, 2015-01-01 00:36:20.235,-3.087,6.906,4.062,-65.247,-89.294,-92.163, , , , , , ,-26.977,-17.314,-108.644
 12:50:16.896,eb:33:2e:f9:57:b5, 2015-01-01 00:36:20.235,-3.036,6.414,3.61,-21.79,-2.991,-71.533, , , , , , ,-27.087,-17.661,-108.94
 12:50:16.896,eb:33:2e:f9:57:b5, 2015-01-01 00:36:20.235,-2.788,5.963,2.888,18.066,62.5,-44.312, , , , , , ,-26.966,-17.617,-109.292
 12:50:16.896,eb:33:2e:f9:57:b5, 2015-01-01 00:36:20.235,-2.414,5.664,2.398,57.922,99.609,-17.761, , , , , , ,-26.658,-17.292,-109.633
 12:50:16.896,eb:33:2e:f9:57:b5, 2015-01-01 00:36:20.235,-2.083,5.42,2.05,99.121,107.056,4.028, , , , , , ,-26.169,-16.831,-109.902
 12:50:16.896,eb:33:2e:f9:57:b5, 2015-01-01 00:36:20.235,-1.836,5.069,1.582,140.564,87.524,23.071, , , , , , ,-25.51,-16.353,-110.056
 12:50:16.963,eb:33:2e:f9:57:b5, 2015-01-01 00:36:20.235,-1.637,4.454,1.199,185.12,57.678,38.086, , , , , , ,-24.67,-15.974,-110.061
 12:50:16.963,eb:33:2e:f9:57:b5, 2015-01-01 00:36:20.235,-1.649,3.666,0.83,229.797,26.062,56.03, , , , , , ,-23.643,-15.694,-109.924
 12:50:16.963,eb:33:2e:f9:57:b5, 2015-01-01 00:36:20.235,-0.605,2.832,0.529,273.193,-5.005,75.134, , , , , , ,-22.445,-15.535,-109.616
 12:50:16.963,eb:33:2e:f9:57:b5, 2015-01-01 00:36:20.235,-2.581,2.278,2.547,556.946,-70.068,-149.292, , , , , , ,-20.572,-15.842,-109.495
 12:50:16.963,eb:33:2e:f9:57:b5, 2015-01-01 00:36:20.235,4.026,6.583,-2.242,823.12,150.94,-136.23, , , , , , ,-16.589,-14.755,-109.819
 12:50:16.963,eb:33:2e:f9:57:b5, 2015-01-01 00:36:20.235,3.195,0.027,4.007,837.158,465.576,-188.049, , , , , , ,-11.986,-13.508,-111.176
 12:50:16.963,eb:33:2e:f9:57:b5, 2015-01-01 00:36:20.235,-0.333,4.876,6.297,686.646,691.345,-209.351, , , , , , ,-7.899,-10.552,-112.791
 12:50:16.963,eb:33:2e:f9:57:b5, 2015-01-01 00:36:20.235,-2.769,3.545,5.534,510.01,658.875,-137.329, , , , , , ,-4.839,-7.317,-113.967
 12:50:17.008,eb:33:2e:f9:57:b5, 2015-01-01 00:36:20.235,-1.411,2.191,3.283,341.736,530.396,-9.399, , , , , , ,-2.725,-4.499,-114.532
 12:50:17.008,eb:33:2e:f9:57:b5, 2015-01-01 00:36:20.235,-4.001,5.796,0.099,99.304,452.82,22.095, , , , , , ,-1.802,-2.032,-114.472
 12:50:17.008,eb:33:2e:f9:57:b5, 2015-01-01 00:36:20.235,-1.253,0.508,-1.017,84.839,221.069,42.725, , , , , , ,-1.39,-0.505,-114.285
 12:50:17.008,eb:33:2e:f9:57:b5, 2015-01-01 00:36:20.235,0.537,-1.525,0.03,129.456,54.871,58.777, , , , , , ,-0.813,-0.022,-114.011
 12:50:17.008,eb:33:2e:f9:57:b5, 2015-01-01 00:36:20.235,-1.315,1.445,1.328,84.839,132.507,29.236, , , , , , ,-0.302,0.549,-113.835
 12:50:17.008,eb:33:2e:f9:57:b5, 2015-01-01 00:36:20.235,-0.806,0.004,-0.2,69.092,28.259,32.104, , , , , , ,0.088,0.873,-113.681
 12:50:17.008,eb:33:2e:f9:57:b5, 2015-01-01 00:36:20.235,0.037,0.093,0.661,61.218,-3.418,26.672, , , , , , ,0.406,0.95,-113.544
 12:50:17.008,eb:33:2e:f9:57:b5, 2015-01-01 00:36:20.235,-0.068,0.32,1.424,55.481,1.099,9.033, , , , , , ,0.687,0.895,-113.478
 12:50:17.033,eb:33:2e:f9:57:b5, 2015-01-01 00:36:20.235,-0.41,-0.019,1.304,64.392,8.667,-1.099, , , , , , ,0.989,0.945,-113.467
 12:50:17.033,eb:33:2e:f9:57:b5, 2015-01-01 00:36:20.235,0.31,0.139,0.764,65.063,-16.602,-10.803, , , , , , ,1.351,0.912,-113.494
 12:50:17.033,eb:33:2e:f9:57:b5, 2015-01-01 00:36:20.235,-0.105,0.208,1.169,59.021,4.639,-23.621, , , , , , ,1.648,0.89,-113.588
 12:50:17.033,eb:33:2e:f9:57:b5, 2015-01-01 00:36:20.235,0.321,0.016,0.996,62.134,-5.249,-26.978, , , , , , ,1.95,0.906,-113.725
 12:50:17.033,eb:33:2e:f9:57:b5, 2015-01-01 00:36:20.235,0.129,0.23,1.245,62.5,0.854,-34.668, , , , , , ,2.258,0.884,-113.89
 12:50:17.033,eb:33:2e:f9:57:b5, 2015-01-01 00:36:20.235,-0.058,-0.023,1.193,69.275,-5.249,-28.748, , , , , , ,2.609,0.901,-114.049
 12:50:17.033,eb:33:2e:f9:57:b5, 2015-01-01 00:36:20.235,0.113,-0.061,1.541,85.449,-18.127,-28.87, , , , , , ,2.994,0.818,-114.203
 12:50:17.033,eb:33:2e:f9:57:b5, 2015-01-01 00:36:20.235,-0.477,-0.227,2.19,122.925,-5.737,-20.142, , , , , , ,3.527,0.786,-114.307
 12:50:17.053,eb:33:2e:f9:57:b5, 2015-01-01 00:36:20.550,0.371,-0.502,2.335,173.401,-50.415,-11.353, , , , , , ,4.29,0.632,-114.395
 12:50:17.053,eb:33:2e:f9:57:b5, 2015-01-01 00:36:20.550,0.484,-0.254,3.106,196.96,-25.757,-2.625, , , , , , ,5.251,0.412,-114.456
 12:50:17.053,eb:33:2e:f9:57:b5, 2015-01-01 00:36:20.550,0.583,-0.03,2.756,211.06,-2.625,5.493, , , , , , ,6.284,0.368,-114.439
 12:50:17.053,eb:33:2e:f9:57:b5, 2015-01-01 00:36:20.550,0.444,-0.03,3.352,231.445,20.508,10.864, , , , , , ,7.394,0.428,-114.379
 12:50:17.053,eb:33:2e:f9:57:b5, 2015-01-01 00:36:20.550,0.011,-0.521,3.66,271.301,40.771,16.357, , , , , , ,8.663,0.582,-114.296
 12:50:17.054,eb:33:2e:f9:57:b5, 2015-01-01 00:36:20.550,0.09,-0.911,3.319,324.829,46.082,20.691, , , , , , ,10.201,0.791,-114.17
 12:50:17.054,eb:33:2e:f9:57:b5, 2015-01-01 00:36:20.550,0.143,-0.986,3.492,381.592,53.284,25.208, , , , , , ,11.997,1.016,-114.005
 12:50:17.054,eb:33:2e:f9:57:b5, 2015-01-01 00:36:20.550,0.496,-0.966,3.633,440.491,46.692,20.752, , , , , , ,14.079,1.23,-113.835
 12:50:17.098,eb:33:2e:f9:57:b5, 2015-01-01 00:36:20.550,0.481,-0.777,3.834,491.028,42.969,4.822, , , , , , ,16.447,1.428,-113.703
 12:50:17.098,eb:33:2e:f9:57:b5, 2015-01-01 00:36:20.550,0.567,-1.276,4.403,533.264,69.519,-13.062, , , , , , ,19.039,1.703,-113.659
 12:50:17.098,eb:33:2e:f9:57:b5, 2015-01-01 00:36:20.550,0.609,-1.784,4.831,581.543,144.47,-14.648, , , , , , ,21.863,2.263,-113.527
 12:50:17.098,eb:33:2e:f9:57:b5, 2015-01-01 00:36:20.550,1.027,-0.878,4.041,626.587,164.49,-36.438, , , , , , ,24.911,3.054,-113.324
 12:50:17.098,eb:33:2e:f9:57:b5, 2015-01-01 00:36:20.550,0.497,-0.923,3.765,664.062,158.997,-58.716, , , , , , ,28.174,3.895,-113.176
 12:50:17.098,eb:33:2e:f9:57:b5, 2015-01-01 00:36:20.550,-0.325,-0.662,5.003,693.604,183.594,-79.834, , , , , , ,31.597,4.796,-113.093
 12:50:17.098,eb:33:2e:f9:57:b5, 2015-01-01 00:36:20.550,-0.306,-1.812,6.231,723.083,274.231,-50.476, , , , , , ,35.2,5.977,-112.709
 12:50:17.098,eb:33:2e:f9:57:b5, 2015-01-01 00:36:20.550,0.241,-1.368,3.812,723.816,219.788,-32.715, , , , , , ,38.908,7.119,-112.028
 12:50:17.144,eb:33:2e:f9:57:b5, 2015-01-01 00:36:20.550,-0.701,0.057,5.034,685.974,175.964,-37.842, , , , , , ,42.468,7.916,-111.643
 12:50:17.144,eb:33:2e:f9:57:b5, 2015-01-01 00:36:20.550,0.078,-1.286,4.819,669.373,228.699,15.015, , , , , , ,45.95,8.712,-110.869
 12:50:17.144,eb:33:2e:f9:57:b5, 2015-01-01 00:36:20.550,0.722,0.525,3.799,651.55,179.199,-4.517, , , , , , ,49.373,9.355,-110.127
 12:50:17.144,eb:33:2e:f9:57:b5, 2015-01-01 00:36:20.550,-0.047,-0.348,4.35,612.244,243.225,9.583, , , , , , ,52.663,10.031,-109.248
 12:50:17.144,eb:33:2e:f9:57:b5, 2015-01-01 00:36:20.550,0.389,-0.426,2.743,584.9,261.475,14.954, , , , , , ,55.827,10.712,-108.127
 12:50:17.144,eb:33:2e:f9:57:b5, 2015-01-01 00:36:20.550,1.121,-0.844,3.127,641.357,256.592,48.767, , , , , , ,59.106,11.239,-106.891
 12:50:17.144,eb:33:2e:f9:57:b5, 2015-01-01 00:36:20.550,0.386,-0.059,1.555,795.41,260.559,80.872, , , , , , ,63.067,11.569,-105.518
 12:50:17.144,eb:33:2e:f9:57:b5, 2015-01-01 00:36:20.550,0.144,3.071,-2.434,748.718,137.573,61.951, , , , , , ,67.214,11.64,-104.431
 12:50:17.190,eb:33:2e:f9:57:b5, 2015-01-01 00:36:20.550,-0.262,2.133,0.103,630.127,82.581,87.219, , , , , , ,70.708,11.475,-103.821
 12:50:17.190,eb:33:2e:f9:57:b5, 2015-01-01 00:36:20.550,0.302,1.506,0.543,516.296,16.724,105.286, , , , , , ,73.608,11.063,-103.458
 12:50:17.190,eb:33:2e:f9:57:b5, 2015-01-01 00:36:20.550,0.467,1.392,0.506,384.888,4.272,109.619, , , , , , ,75.822,10.547,-103.277
 12:50:17.190,eb:33:2e:f9:57:b5, 2015-01-01 00:36:20.550,0.641,0.884,0.834,272.888,16.174,105.103, , , , , , ,77.426,10.036,-103.085
 12:50:17.190,eb:33:2e:f9:57:b5, 2015-01-01 00:36:20.550,0.587,0.708,1.9,200.989,46.387,92.285, , , , , , ,78.602,9.591,-102.81
 12:50:17.190,eb:33:2e:f9:57:b5, 2015-01-01 00:36:20.550,0.619,1.236,3.221,173.828,72.815,58.838, , , , , , ,79.563,9.283,-102.426
 12:50:17.190,eb:33:2e:f9:57:b5, 2015-01-01 00:36:20.550,0.763,1.792,4.049,189.148,70.435,17.456, , , , , , ,80.53,9.179,-102.025
 12:50:17.190,eb:33:2e:f9:57:b5, 2015-01-01 00:36:20.550,0.781,2.05,4.524,224.854,47.119,-30.029, , , , , , ,81.617,9.278,-101.722
 12:50:17.346,eb:33:2e:f9:57:b5, 2015-01-01 00:36:20.550,0.795,1.895,4.374,267.639,4.578,-78.247, , , , , , ,82.881,9.586,-101.646
 12:50:17.346,eb:33:2e:f9:57:b5, 2015-01-01 00:36:20.550,0.847,1.376,3.881,302.917,-45.227,-122.253, , , , , , ,84.287,10.091,-101.832
 12:50:17.346,eb:33:2e:f9:57:b5, 2015-01-01 00:36:20.550,0.86,0.757,3.382,321.228,-90.515,-159.424, , , , , , ,85.787,10.783,-102.266
 12:50:17.346,eb:33:2e:f9:57:b5, 2015-01-01 00:36:20.550,0.782,0.163,3.086,320.923,-125.061,-189.819, , , , , , ,87.275,11.64,-102.865
 12:50:17.346,eb:33:2e:f9:57:b5, 2015-01-01 00:36:20.550,0.731,-0.401,3.123,308.838,-146.301,-212.83, , , , , , ,88.687,12.64,-103.612
 12:50:17.346,eb:33:2e:f9:57:b5, 2015-01-01 00:36:20.550,0.676,-0.756,3.461,288.452,-154.48,-228.455, , , , , , ,89.967,13.738,-104.409
 12:50:17.346,eb:33:2e:f9:57:b5, 2015-01-01 00:36:20.550,0.648,-0.985,3.708,262.573,-151.123,-238.22, , , , , , ,91.143,14.919,-105.189
 12:50:17.346,eb:33:2e:f9:57:b5, 2015-01-01 00:36:20.550,0.65,-1.261,3.93,233.154,-131.531,-242.737, , , , , , ,92.181,16.15,-105.853
 12:50:17.348,eb:33:2e:f9:57:b5, 2015-01-01 00:36:20.550,0.642,-1.547,4.028,202.332,-98.511,-241.821, , , , , , ,93.104,17.386,-106.381
 12:50:17.348,eb:33:2e:f9:57:b5, 2015-01-01 00:36:20.550,0.614,-1.738,3.895,170.715,-60.486,-237, , , , , , ,93.889,18.594,-106.71
 12:50:17.348,eb:33:2e:f9:57:b5, 2015-01-01 00:36:20.550,0.587,-1.818,3.604,139.038,-25.696,-229.492, , , , , , ,94.609,19.77,-106.826
 12:50:17.348,eb:33:2e:f9:57:b5, 2015-01-01 00:36:20.550,0.626,-1.832,3.282,108.765,1.587,-221.558, , , , , , ,95.229,20.896,-106.743
 12:50:17.348,eb:33:2e:f9:57:b5, 2015-01-01 00:36:20.550,0.699,-1.821,3.108,81.299,24.475,-213.745, , , , , , ,95.762,21.967,-106.545
 12:50:17.348,eb:33:2e:f9:57:b5, 2015-01-01 00:36:20.550,0.752,-1.795,3.053,57.19,44.312,-206.482, , , , , , ,96.18,22.978,-106.249
 12:50:17.348,eb:33:2e:f9:57:b5, 2015-01-01 00:36:20.550,0.769,-1.744,3,36.133,59.753,-200.073, , , , , , ,96.564,23.956,-105.831
 12:50:17.350,eb:33:2e:f9:57:b5, 2015-01-01 00:36:20.550,0.787,-1.685,2.887,17.151,69.275,-194.336, , , , , , ,96.888,24.895,-105.315
 12:50:17.350,eb:33:2e:f9:57:b5, 2015-01-01 00:36:20.550,0.857,-1.64,2.746,-0.366,73.73,-189.88, , , , , , ,97.147,25.801,-104.793
 12:50:17.350,eb:33:2e:f9:57:b5, 2015-01-01 00:36:20.550,0.896,-1.613,2.668,-17.334,76.477,-186.646, , , , , , ,97.289,26.68,-104.266
 12:50:17.350,eb:33:2e:f9:57:b5, 2015-01-01 00:36:20.550,0.863,-1.639,2.591,-33.691,77.393,-183.838, , , , , , ,97.41,27.548,-103.7
 12:50:17.350,eb:33:2e:f9:57:b5, 2015-01-01 00:36:20.550,0.738,-1.724,2.497,-49.683,73.425,-180.359, , , , , , ,97.454,28.405,-103.118
 12:50:17.350,eb:33:2e:f9:57:b5, 2015-01-01 00:36:20.550,0.623,-1.871,2.338,-65.613,61.157,-174.927, , , , , , ,97.399,29.24,-102.612
 12:50:17.350,eb:33:2e:f9:57:b5, 2015-01-01 00:36:20.550,0.596,-2.073,2.183,-82.458,45.471,-167.358, , , , , , ,97.174,30.048,-102.222
 12:50:17.350,eb:33:2e:f9:57:b5, 2015-01-01 00:36:20.550,0.606,-2.234,1.966,-103.333,31.921,-156.799, , , , , , ,96.866,30.828,-101.898
 12:50:17.350,eb:33:2e:f9:57:b5, 2015-01-01 00:36:20.550,0.654,-2.438,1.19,-137.573,23.743,-140.076, , , , , , ,96.389,31.547,-101.618
 12:50:17.352,eb:33:2e:f9:57:b5, 2015-01-01 00:36:20.550,0.737,-2.634,-0.328,-199.341,22.522,-117.188, , , , , , ,95.641,32.162,-101.404
 12:50:17.352,eb:33:2e:f9:57:b5, 2015-01-01 00:36:20.550,1.096,-2.829,-2.306,-294.128,18.005,-92.651, , , , , , ,94.406,32.662,-101.266
 12:50:17.353,eb:33:2e:f9:57:b5, 2015-01-01 00:36:20.550,1.318,-3.139,-1.83,-382.507,8.301,-72.571, , , , , , ,92.714,33.058,-101.168
 12:50:17.353,eb:33:2e:f9:57:b5, 2015-01-01 00:36:20.550,1.082,-3.202,0.025,-435.913,3.296,-57.678, , , , , , ,90.648,33.376,-101.102
 12:50:17.353,eb:33:2e:f9:57:b5, 2015-01-01 00:36:20.550,1.065,-2.787,0.393,-469.91,-9.705,-44.617, , , , , , ,88.352,33.624,-101.124
 12:50:17.353,eb:33:2e:f9:57:b5, 2015-01-01 00:36:20.550,1.254,-2.158,-0.049,-506.897,-29.724,-34.241, , , , , , ,85.759,33.81,-101.31
 12:50:17.353,eb:33:2e:f9:57:b5, 2015-01-01 00:36:20.550,1.312,-1.601,-0.397,-546.875,-59.204,-29.236, , , , , , ,82.936,33.942,-101.607
 12:50:17.353,eb:33:2e:f9:57:b5, 2015-01-01 00:36:20.550,1.209,-1.292,-0.218,-578.247,-104.675,-27.405, , , , , , ,79.799,34.014,-102.118
 12:50:17.369,eb:33:2e:f9:57:b5, 2015-01-01 00:36:20.550,1.184,-1.244,0.179,-581.604,-150.574,-27.344, , , , , , ,76.437,34.014,-102.931
 12:50:17.369,eb:33:2e:f9:57:b5, 2015-01-01 00:36:20.550,1.183,-1.197,0.596,-571.35,-198.669,-26.611, , , , , , ,72.894,33.904,-104.062
 12:50:17.369,eb:33:2e:f9:57:b5, 2015-01-01 00:36:20.550,1.091,-1.146,0.858,-560.12,-244.873,-23.499, , , , , , ,69.329,33.651,-105.403
 12:50:17.369,eb:33:2e:f9:57:b5, 2015-01-01 00:36:20.550,0.974,-1.156,0.971,-558.044,-285.278,-16.357, , , , , , ,65.693,33.228,-106.924
 12:50:17.369,eb:33:2e:f9:57:b5, 2015-01-01 00:36:20.550,0.864,-1.234,1.168,-568.237,-312.439,-2.93, , , , , , ,61.979,32.602,-108.567
 12:50:17.369,eb:33:2e:f9:57:b5, 2015-01-01 00:36:20.550,0.791,-1.355,1.534,-586.731,-325.928,16.357, , , , , , ,58.167,31.756,-110.237
 12:50:17.369,eb:33:2e:f9:57:b5, 2015-01-01 00:36:20.550,0.727,-1.425,1.967,-609.07,-328.125,39.307, , , , , , ,54.388,30.718,-111.736
 12:50:17.370,eb:33:2e:f9:57:b5, 2015-01-01 00:36:20.550,0.688,-1.389,2.338,-630.127,-323.364,63.232, , , , , , ,50.62,29.515,-113.022
 12:50:17.413,eb:33:2e:f9:57:b5, 2015-01-01 00:36:20.550,0.684,-1.283,2.681,-645.386,-314.697,86.487, , , , , , ,46.901,28.18,-114.099
 12:50:17.413,eb:33:2e:f9:57:b5, 2015-01-01 00:36:20.550,0.719,-1.165,2.997,-652.039,-304.016,107.666, , , , , , ,43.209,26.719,-114.983
 12:50:17.413,eb:33:2e:f9:57:b5, 2015-01-01 00:36:20.550,0.856,-1.067,3.244,-650.024,-290.771,126.709, , , , , , ,39.688,25.214,-115.576
 12:50:17.413,eb:33:2e:f9:57:b5, 2015-01-01 00:36:20.550,1.007,-0.942,3.403,-642.334,-275.33,141.968, , , , , , ,36.304,23.687,-115.928
 12:50:17.413,eb:33:2e:f9:57:b5, 2015-01-01 00:36:20.550,1.182,-0.728,3.315,-633.118,-266.663,150.146, , , , , , ,33.052,22.159,-116.104
 12:50:17.413,eb:33:2e:f9:57:b5, 2015-01-01 00:36:20.550,1.326,-0.458,3.13,-624.268,-267.761,148.621, , , , , , ,29.833,20.616,-116.208
 12:50:17.413,eb:33:2e:f9:57:b5, 2015-01-01 00:36:20.550,1.406,-0.167,2.815,-616.699,-286.316,137.451, , , , , , ,26.724,19.056,-116.235
 12:50:17.413,eb:33:2e:f9:57:b5, 2015-01-01 00:36:20.550,1.377,0.06,2.537,-611.572,-320.618,119.629, , , , , , ,23.632,17.397,-116.307
 12:50:17.458,eb:33:2e:f9:57:b5, 2015-01-01 00:36:20.550,1.265,0.165,2.481,-610.84,-360.596,100.159, , , , , , ,20.533,15.595,-116.461
 12:50:17.458,eb:33:2e:f9:57:b5, 2015-01-01 00:36:20.550,1.14,0.153,2.689,-615.417,-392.822,84.717, , , , , , ,17.358,13.623,-116.697
 12:50:17.458,eb:33:2e:f9:57:b5, 2015-01-01 00:36:20.550,1.003,0.112,3.085,-624.878,-407.959,76.843, , , , , , ,14.216,11.574,-116.867
 12:50:17.458,eb:33:2e:f9:57:b5, 2015-01-01 00:36:20.550,0.71,0.178,3.577,-636.719,-404.419,76.782, , , , , , ,11.041,9.503,-116.944
 12:50:17.458,eb:33:2e:f9:57:b5, 2015-01-01 00:36:20.550,0.35,0.405,3.979,-645.63,-394.287,81.299, , , , , , ,7.833,7.471,-116.878
 12:50:17.458,eb:33:2e:f9:57:b5, 2015-01-01 00:36:20.550,0.047,0.747,4.37,-649.414,-377.625,89.478, , , , , , ,4.559,5.488,-116.68
 12:50:17.458,eb:33:2e:f9:57:b5, 2015-01-01 00:36:20.550,-0.152,1.195,4.741,-649.78,-350.708,100.647, , , , , , ,1.34,3.653,-116.296
 12:50:17.458,eb:33:2e:f9:57:b5, 2015-01-01 00:36:20.550,-0.267,1.729,5.004,-647.339,-315.918,112.915, , , , , , ,-1.873,2.005,-115.752
 12:50:17.503,eb:33:2e:f9:57:b5, 2015-01-01 00:36:20.995,-0.274,2.276,5.099,-639.038,-281.494,124.329, , , , , , ,-5.076,0.566,-115.065
 12:50:17.503,eb:33:2e:f9:57:b5, 2015-01-01 00:36:20.995,-0.271,2.753,5.146,-621.948,-251.953,133.972, , , , , , ,-8.278,-0.687,-114.28
 12:50:17.503,eb:33:2e:f9:57:b5, 2015-01-01 00:36:20.995,-0.299,3.197,5.212,-595.032,-235.474,140.93, , , , , , ,-11.332,-1.752,-113.39
 12:50:17.503,eb:33:2e:f9:57:b5, 2015-01-01 00:36:20.995,-0.443,3.672,5.283,-558.716,-236.633,145.447, , , , , , ,-14.238,-2.736,-112.434
 12:50:17.503,eb:33:2e:f9:57:b5, 2015-01-01 00:36:20.995,-0.613,4.344,5.236,-509.338,-261.047,145.569, , , , , , ,-16.952,-3.741,-111.39
 12:50:17.503,eb:33:2e:f9:57:b5, 2015-01-01 00:36:20.995,-0.688,5.27,5.224,-442.566,-302.673,138.489, , , , , , ,-19.435,-4.894,-110.275
 12:50:17.503,eb:33:2e:f9:57:b5, 2015-01-01 00:36:20.995,-0.719,6.272,5.402,-363.159,-348.022,120.239, , , , , , ,-21.528,-6.218,-109.089
 12:50:17.503,eb:33:2e:f9:57:b5, 2015-01-01 00:36:20.995,-0.831,7.097,5.548,-283.264,-378.662,93.323, , , , , , ,-23.247,-7.718,-107.902
 12:50:17.549,eb:33:2e:f9:57:b5, 2015-01-01 00:36:20.995,-1.018,7.806,5.519,-213.135,-387.024,56.274, , , , , , ,-24.615,-9.338,-106.782
 12:50:17.549,eb:33:2e:f9:57:b5, 2015-01-01 00:36:20.995,-1.378,8.387,5.307,-158.386,-371.46,12.695, , , , , , ,-25.708,-11.008,-105.82
 12:50:17.549,eb:33:2e:f9:57:b5, 2015-01-01 00:36:20.995,-1.823,8.601,4.87,-110.168,-325.256,-43.091, , , , , , ,-26.494,-12.607,-105.134
 12:50:17.549,eb:33:2e:f9:57:b5, 2015-01-01 00:36:20.995,-2.33,8.29,4.385,-77.576,-269.958,-85.51, , , , , , ,-27.026,-14.073,-104.782
 12:50:17.549,eb:33:2e:f9:57:b5, 2015-01-01 00:36:20.995,-2.751,7.585,4.002,-44.25,-200.562,-116.272, , , , , , ,-27.334,-15.337,-104.727
 12:50:17.549,eb:33:2e:f9:57:b5, 2015-01-01 00:36:20.995,-2.92,6.752,3.809,-10.01,-113.953,-131.653, , , , , , ,-27.394,-16.304,-104.958
 12:50:17.549,eb:33:2e:f9:57:b5, 2015-01-01 00:36:20.995,-2.876,6.043,3.698,20.447,-16.479,-133.057, , , , , , ,-27.213,-16.859,-105.447
 12:50:17.550,eb:33:2e:f9:57:b5, 2015-01-01 00:36:20.995,-2.612,5.552,3.228,42.969,67.566,-125.671, , , , , , ,-26.84,-16.99,-106.144
 12:50:17.571,eb:33:2e:f9:57:b5, 2015-01-01 00:36:20.995,-2.289,5.155,2.654,63.416,123.23,-115.723, , , , , , ,-26.334,-16.793,-106.946
 12:50:17.571,eb:33:2e:f9:57:b5, 2015-01-01 00:36:20.995,-2.013,4.626,2.277,92.102,147.034,-104.675, , , , , , ,-25.686,-16.408,-107.792
 12:50:17.571,eb:33:2e:f9:57:b5, 2015-01-01 00:36:20.995,-1.858,3.883,1.868,132.568,144.897,-89.478, , , , , , ,-24.89,-15.947,-108.572
 12:50:17.571,eb:33:2e:f9:57:b5, 2015-01-01 00:36:20.995,-1.854,3.103,1.253,180.908,119.202,-67.688, , , , , , ,-23.912,-15.507,-109.226
 12:50:17.571,eb:33:2e:f9:57:b5, 2015-01-01 00:36:20.995,-2.055,2.244,0.83,232.971,78.125,-39.124, , , , , , ,-22.736,-15.178,-109.666
 12:50:17.571,eb:33:2e:f9:57:b5, 2015-01-01 00:36:20.995,-2.171,1.12,0.643,281.921,39.001,-0.244, , , , , , ,-21.357,-14.958,-109.869
 12:50:17.571,eb:33:2e:f9:57:b5, 2015-01-01 00:36:20.995,-1.9,-0.162,0.607,320.679,21.606,51.88, , , , , , ,-19.847,-14.782,-109.77
 12:50:17.571,eb:33:2e:f9:57:b5, 2015-01-01 00:36:20.995,1.327,-1.253,0.77,455.444,-100.403,-0.488, , , , , , ,-18.111,-14.722,-109.462
 12:50:17.615,eb:33:2e:f9:57:b5, 2015-01-01 00:36:20.995,2.586,2.011,4.392,858.887,139.16,101.624, , , , , , ,-14.453,-14.628,-109.506
 12:50:17.615,eb:33:2e:f9:57:b5, 2015-01-01 00:36:20.995,4.995,2.409,4.79,906.128,312.561,-224.67, , , , , , ,-9.701,-14.337,-110.687
 12:50:17.615,eb:33:2e:f9:57:b5, 2015-01-01 00:36:20.995,-0.961,7.671,7,649.109,576.599,-293.152, , , , , , ,-5.526,-12.233,-112.352
 12:50:17.615,eb:33:2e:f9:57:b5, 2015-01-01 00:36:20.995,0.32,5.905,6.155,365.967,667.603,-166.626, , , , , , ,-2.906,-9.278,-113.637
 12:50:17.615,eb:33:2e:f9:57:b5, 2015-01-01 00:36:20.995,-5.272,5.202,2.829,79.773,592.712,-26.855, , , , , , ,-1.631,-6.169,-113.785
 12:50:17.615,eb:33:2e:f9:57:b5, 2015-01-01 00:36:20.995,-2.521,-0.855,-1.957,34.485,337.83,53.833, , , , , , ,-1.45,-3.713,-113.632
 12:50:17.615,eb:33:2e:f9:57:b5, 2015-01-01 00:36:20.995,1.365,-2.807,-0.851,124.695,39.429,46.448, , , , , , ,-1.082,-3.115,-113.39
 12:50:17.615,eb:33:2e:f9:57:b5, 2015-01-01 00:36:20.995,-1.451,1.721,1.902,82.764,170.227,26.794, , , , , , ,-0.56,-2.428,-113.286
 12:50:17.661,eb:33:2e:f9:57:b5, 2015-01-01 00:36:20.995,-1.452,0.301,0.044,63.843,60.547,34.79, , , , , , ,-0.209,-2.01,-113.115
 12:50:17.661,eb:33:2e:f9:57:b5, 2015-01-01 00:36:20.995,0.186,-0.222,0.068,66.833,-12.024,15.259, , , , , , ,0.143,-1.873,-112.994
 12:50:17.661,eb:33:2e:f9:57:b5, 2015-01-01 00:36:20.995,0.049,0.266,1.354,57.861,1.099,2.441, , , , , , ,0.439,-1.945,-112.978
 12:50:17.661,eb:33:2e:f9:57:b5, 2015-01-01 00:36:20.995,-0.428,0.272,1.35,54.565,16.113,-8.972, , , , , , ,0.72,-1.879,-112.989
 12:50:17.661,eb:33:2e:f9:57:b5, 2015-01-01 00:36:20.995,0.402,0.08,0.757,49.683,-9.888,-15.015, , , , , , ,0.983,-1.868,-113.049
 12:50:17.661,eb:33:2e:f9:57:b5, 2015-01-01 00:36:20.995,0.026,0.104,1.305,47.302,10.132,-24.414, , , , , , ,1.252,-1.857,-113.159
 12:50:17.661,eb:33:2e:f9:57:b5, 2015-01-01 00:36:20.995,-0.056,-0.052,1.129,49.927,11.169,-26.917, , , , , , ,1.505,-1.791,-113.291
 12:50:17.661,eb:33:2e:f9:57:b5, 2015-01-01 00:36:20.995,0.441,0.193,0.909,44.128,-5.005,-24.475, , , , , , ,1.741,-1.78,-113.428
 12:50:17.706,eb:33:2e:f9:57:b5, 2015-01-01 00:36:20.995,-0.636,0.143,1.256,43.64,-3.54,-26.611, , , , , , ,1.95,-1.813,-113.56
 12:50:17.706,eb:33:2e:f9:57:b5, 2015-01-01 00:36:20.995,-0.63,-0.568,1.341,75.5,-41.748,-6.042, , , , , , ,2.285,-1.901,-113.643
 12:50:17.706,eb:33:2e:f9:57:b5, 2015-01-01 00:36:20.995,0.62,-0.376,1.833,111.755,-86.304,4.028, , , , , , ,2.78,-2.274,-113.637
 12:50:17.706,eb:33:2e:f9:57:b5, 2015-01-01 00:36:20.995,-0.373,-0.269,3.036,147.705,-39.185,6.714, , , , , , ,3.444,-2.565,-113.626
 12:50:17.706,eb:33:2e:f9:57:b5, 2015-01-01 00:36:20.995,-0.06,-0.545,2.912,196.777,-38.818,12.451, , , , , , ,4.312,-2.758,-113.599
 12:50:17.706,eb:33:2e:f9:57:b5, 2015-01-01 00:36:20.995,0.341,-0.67,3.348,232.605,-20.996,31.067, , , , , , ,5.433,-2.911,-113.494
 12:50:17.706,eb:33:2e:f9:57:b5, 2015-01-01 00:36:20.995,0.192,-0.225,2.852,264.954,-22.949,35.767, , , , , , ,6.685,-3.027,-113.329
 12:50:17.706,eb:33:2e:f9:57:b5, 2015-01-01 00:36:20.995,0.298,-0.531,2.619,305.115,-36.499,41.26, , , , , , ,8.119,-3.197,-113.148
 12:50:17.751,eb:33:2e:f9:57:b5, 2015-01-01 00:36:20.995,0.523,-0.732,3.755,360.229,-18.494,35.767, , , , , , ,9.794,-3.378,-112.994
 12:50:17.751,eb:33:2e:f9:57:b5, 2015-01-01 00:36:20.995,0.814,-1.215,4.561,418.335,26.794,36.682, , , , , , ,11.783,-3.367,-112.808
 12:50:17.751,eb:33:2e:f9:57:b5, 2015-01-01 00:36:20.995,1.176,-1.068,4.967,483.704,80.2,20.935, , , , , , ,14.057,-3.115,-112.61
 12:50:17.751,eb:33:2e:f9:57:b5, 2015-01-01 00:36:20.995,1.526,-1.233,4.726,539.307,133.728,10.681, , , , , , ,16.633,-2.582,-112.379
 12:50:17.751,eb:33:2e:f9:57:b5, 2015-01-01 00:36:20.995,1.402,-0.798,4.368,590.454,159.851,-16.174, , , , , , ,19.468,-1.862,-112.165
 12:50:17.751,eb:33:2e:f9:57:b5, 2015-01-01 00:36:20.995,1.217,-0.854,3.442,629.395,156.311,-44.25, , , , , , ,22.577,-1.044,-112.022
 12:50:17.752,eb:33:2e:f9:57:b5, 2015-01-01 00:36:20.995,0.725,-0.679,4.874,640.564,194.275,-69.031, , , , , , ,25.741,-0.137,-111.951
 12:50:17.752,eb:33:2e:f9:57:b5, 2015-01-01 00:36:20.995,0.435,-1.185,5.462,678.162,275.33,-73.669, , , , , , ,29.064,1.11,-111.693
 12:50:17.818,eb:33:2e:f9:57:b5, 2015-01-01 00:36:21.285,-0.056,-1.162,5.478,684.082,321.289,-63.904, , , , , , ,32.503,2.604,-111.215
 12:50:17.818,eb:33:2e:f9:57:b5, 2015-01-01 00:36:21.285,0.289,-0.771,5.394,692.017,329.163,-51.331, , , , , , ,35.991,4.12,-110.484
 12:50:17.818,eb:33:2e:f9:57:b5, 2015-01-01 00:36:21.285,0.128,-0.516,5.077,697.998,319.336,-32.288, , , , , , ,39.556,5.526,-109.633
 12:50:17.818,eb:33:2e:f9:57:b5, 2015-01-01 00:36:21.285,-0.046,-0.478,4.126,661.499,301.331,-7.935, , , , , , ,43.055,6.751,-108.688
 12:50:17.818,eb:33:2e:f9:57:b5, 2015-01-01 00:36:21.285,0.34,-0.206,3.135,617.859,258.728,9.644, , , , , , ,46.346,7.723,-107.688
 12:50:17.819,eb:33:2e:f9:57:b5, 2015-01-01 00:36:21.285,0.834,0.415,3.245,601.501,223.511,-0.366, , , , , , ,49.51,8.481,-106.765
 12:50:17.819,eb:33:2e:f9:57:b5, 2015-01-01 00:36:21.285,0.796,0.025,4.473,632.141,257.385,26.001, , , , , , ,52.74,9.163,-105.765
 12:50:17.819,eb:33:2e:f9:57:b5, 2015-01-01 00:36:21.285,0.499,-1.554,5.161,723.389,355.835,70.984, , , , , , ,56.365,9.866,-104.337
 12:50:17.821,eb:33:2e:f9:57:b5, 2015-01-01 00:36:21.285,-0.012,-1.448,2.437,902.161,400.085,118.896, , , , , , ,60.936,10.475,-102.31
 12:50:17.821,eb:33:2e:f9:57:b5, 2015-01-01 00:36:21.285,0.299,2.387,-2.455,808.35,262.268,116.028, , , , , , ,65.544,10.673,-100.651
 12:50:17.821,eb:33:2e:f9:57:b5, 2015-01-01 00:36:21.285,0.012,1.125,0.604,690.552,210.693,154.297, , , , , , ,69.467,10.492,-99.283
 12:50:17.821,eb:33:2e:f9:57:b5, 2015-01-01 00:36:21.285,0.476,1.342,0.291,565.43,112.061,167.114, , , , , , ,72.735,9.954,-98.278
 12:50:17.821,eb:33:2e:f9:57:b5, 2015-01-01 00:36:21.285,0.661,1.499,0.158,430.725,52.673,160.583, , , , , , ,75.251,9.267,-97.679
 12:50:17.821,eb:33:2e:f9:57:b5, 2015-01-01 00:36:21.285,0.899,1.299,0.464,325.134,-0.549,130.859, , , , , , ,77.113,8.586,-97.405
 12:50:17.821,eb:33:2e:f9:57:b5, 2015-01-01 00:36:21.285,0.953,1.255,1.516,262.39,-35.645,87.219, , , , , , ,78.53,8.047,-97.405
 12:50:17.821,eb:33:2e:f9:57:b5, 2015-01-01 00:36:21.285,1.029,1.65,2.695,242.065,-62.561,29.602, , , , , , ,79.739,7.74,-97.592
 12:50:17.863,eb:33:2e:f9:57:b5, 2015-01-01 00:36:21.285,1.164,2.073,3.908,255.249,-93.567,-38.086, , , , , , ,80.92,7.723,-97.998
 12:50:17.863,eb:33:2e:f9:57:b5, 2015-01-01 00:36:21.285,1.117,2.214,5.018,290.405,-127.625,-110.596, , , , , , ,82.205,8.036,-98.624
 12:50:17.863,eb:33:2e:f9:57:b5, 2015-01-01 00:36:21.285,1.039,1.902,5.521,333.801,-158.02,-179.565, , , , , , ,83.666,8.707,-99.454
 12:50:17.863,eb:33:2e:f9:57:b5, 2015-01-01 00:36:21.285,1.037,1.128,5.485,368.713,-174.438,-236.633, , , , , , ,85.292,9.695,-100.388
 12:50:17.863,eb:33:2e:f9:57:b5, 2015-01-01 00:36:21.285,1.01,0.298,5.161,383.85,-174.927,-278.503, , , , , , ,87.012,10.948,-101.365
 12:50:17.863,eb:33:2e:f9:57:b5, 2015-01-01 00:36:21.285,0.805,-0.453,4.812,378.479,-161.56,-306.396, , , , , , ,88.72,12.393,-102.277
 12:50:17.863,eb:33:2e:f9:57:b5, 2015-01-01 00:36:21.285,0.794,-1.27,4.589,355.835,-135.132,-323.181, , , , , , ,90.379,13.975,-103.041
 12:50:17.863,eb:33:2e:f9:57:b5, 2015-01-01 00:36:21.285,0.887,-1.759,4.588,325.867,-101.929,-324.097, , , , , , ,91.923,15.606,-103.579
 12:50:17.908,eb:33:2e:f9:57:b5, 2015-01-01 00:36:21.285,0.872,-2.105,4.633,287.415,-53.406,-315.918, , , , , , ,93.356,17.221,-103.887
 12:50:17.908,eb:33:2e:f9:57:b5, 2015-01-01 00:36:21.285,0.792,-2.346,4.411,244.263,-2.014,-300.964, , , , , , ,94.631,18.754,-103.898
 12:50:17.908,eb:33:2e:f9:57:b5, 2015-01-01 00:36:21.285,0.753,-2.483,3.973,200.745,39.185,-282.288, , , , , , ,95.812,20.182,-103.629
 12:50:17.908,eb:33:2e:f9:57:b5, 2015-01-01 00:36:21.285,0.789,-2.535,3.521,159.302,69.275,-262.451, , , , , , ,96.855,21.495,-103.129
 12:50:17.908,eb:33:2e:f9:57:b5, 2015-01-01 00:36:21.285,0.848,-2.526,3.184,121.826,91.125,-243.286, , , , , , ,97.773,22.687,-102.513
 12:50:17.908,eb:33:2e:f9:57:b5, 2015-01-01 00:36:21.285,0.927,-2.459,2.916,88.806,104.736,-226.074, , , , , , ,98.525,23.763,-101.81
 12:50:17.908,eb:33:2e:f9:57:b5, 2015-01-01 00:36:21.285,1.003,-2.356,2.725,59.57,111.694,-210.815, , , , , , ,99.196,24.747,-101.036
 12:50:17.908,eb:33:2e:f9:57:b5, 2015-01-01 00:36:21.285,1.059,-2.23,2.572,32.959,113.647,-197.998, , , , , , ,99.756,25.659,-100.206
 12:50:17.954,eb:33:2e:f9:57:b5, 2015-01-01 00:36:21.285,1.09,-2.105,2.458,8.423,110.291,-187.439, , , , , , ,100.195,26.505,-99.41
 12:50:17.954,eb:33:2e:f9:57:b5, 2015-01-01 00:36:21.285,1.083,-2.048,2.409,-14.16,102.234,-178.711, , , , , , ,100.47,27.301,-98.668
 12:50:17.954,eb:33:2e:f9:57:b5, 2015-01-01 00:36:21.285,0.972,-2.073,2.308,-37.415,87.402,-169.556, , , , , , ,100.657,28.065,-97.965
 12:50:17.954,eb:33:2e:f9:57:b5, 2015-01-01 00:36:21.285,0.827,-2.212,2.048,-63.843,64.087,-157.776, , , , , , ,100.668,28.801,-97.35
 12:50:17.954,eb:33:2e:f9:57:b5, 2015-01-01 00:36:21.285,0.7,-2.426,1.659,-97.961,41.077,-140.808, , , , , , ,100.459,29.482,-96.916
 12:50:17.954,eb:33:2e:f9:57:b5, 2015-01-01 00:36:21.285,0.654,-2.689,1.03,-144.226,24.048,-117.676, , , , , , ,99.937,30.075,-96.652
 12:50:17.954,eb:33:2e:f9:57:b5, 2015-01-01 00:36:21.285,0.687,-2.984,0.159,-207.703,16.479,-88.623, , , , , , ,99.135,30.558,-96.443
 12:50:17.954,eb:33:2e:f9:57:b5, 2015-01-01 00:36:21.285,0.894,-3.235,-0.658,-285.767,10.986,-58.167, , , , , , ,97.938,30.894,-96.279
 12:50:17.975,eb:33:2e:f9:57:b5, 2015-01-01 00:36:21.285,1.07,-3.36,-0.516,-360.596,8.728,-30.396, , , , , , ,96.317,31.097,-96.196
 12:50:17.975,eb:33:2e:f9:57:b5, 2015-01-01 00:36:21.285,1.078,-3.16,0.242,-414.856,9.644,-10.193, , , , , , ,94.323,31.179,-96.169
 12:50:17.975,eb:33:2e:f9:57:b5, 2015-01-01 00:36:21.285,1.161,-2.83,0.685,-445.862,7.324,2.258, , , , , , ,92.175,31.185,-96.119
 12:50:17.975,eb:33:2e:f9:57:b5, 2015-01-01 00:36:21.285,1.374,-2.554,0.628,-464.294,-4.15,8.911, , , , , , ,89.89,31.157,-96.086
 12:50:17.975,eb:33:2e:f9:57:b5, 2015-01-01 00:36:21.285,1.555,-2.302,0.164,-483.582,-25.085,10.803, , , , , , ,87.468,31.102,-96.18
 12:50:17.975,eb:33:2e:f9:57:b5, 2015-01-01 00:36:21.285,1.599,-1.958,-0.398,-511.658,-56.458,7.69, , , , , , ,84.787,31.036,-96.471
 12:50:17.975,eb:33:2e:f9:57:b5, 2015-01-01 00:36:21.285,1.547,-1.583,-0.599,-543.152,-99.731,-0.488, , , , , , ,81.892,30.976,-96.943
 12:50:17.975,eb:33:2e:f9:57:b5, 2015-01-01 00:36:21.285,1.506,-1.295,-0.349,-568.97,-150.818,-11.475, , , , , , ,78.706,30.899,-97.674
 12:50:18.043,eb:33:2e:f9:57:b5, 2015-01-01 00:36:21.285,1.486,-1.116,0.146,-584.9,-203.918,-22.949, , , , , , ,75.262,30.784,-98.734
 12:50:18.043,eb:33:2e:f9:57:b5, 2015-01-01 00:36:21.285,1.438,-1.033,0.653,-593.933,-252.991,-32.471, , , , , , ,71.57,30.586,-100.135
 12:50:18.043,eb:33:2e:f9:57:b5, 2015-01-01 00:36:21.285,1.356,-1.039,1.071,-601.257,-293.335,-37.72, , , , , , ,67.775,30.267,-101.722
 12:50:18.043,eb:33:2e:f9:57:b5, 2015-01-01 00:36:21.285,1.213,-1.107,1.428,-609.619,-320.129,-36.865, , , , , , ,63.88,29.806,-103.425
 12:50:18.043,eb:33:2e:f9:57:b5, 2015-01-01 00:36:21.285,1.057,-1.185,1.737,-618.958,-335.999,-29.114, , , , , , ,59.93,29.174,-105.189
 12:50:18.043,eb:33:2e:f9:57:b5, 2015-01-01 00:36:21.285,0.92,-1.225,2.059,-628.662,-342.407,-15.991, , , , , , ,55.931,28.35,-106.952
 12:50:18.043,eb:33:2e:f9:57:b5, 2015-01-01 00:36:21.285,0.825,-1.178,2.384,-636.841,-341.187,1.404, , , , , , ,52.02,27.367,-108.534
 12:50:18.043,eb:33:2e:f9:57:b5, 2015-01-01 00:36:21.285,0.777,-1.07,2.701,-640.747,-333.862,20.874, , , , , , ,48.192,26.235,-109.918
 12:50:18.066,eb:33:2e:f9:57:b5, 2015-01-01 00:36:21.285,0.83,-0.913,3.002,-637.268,-323.181,42.419, , , , , , ,44.478,24.983,-111.105
 12:50:18.066,eb:33:2e:f9:57:b5, 2015-01-01 00:36:21.285,0.937,-0.772,3.118,-627.93,-316.895,56.213, , , , , , ,40.858,23.621,-112.132
 12:50:18.066,eb:33:2e:f9:57:b5, 2015-01-01 00:36:21.285,1.019,-0.633,3.048,-616.089,-318.237,65.002, , , , , , ,37.43,22.198,-112.961
 12:50:18.067,eb:33:2e:f9:57:b5, 2015-01-01 00:36:21.285,1.126,-0.502,2.89,-605.042,-328.43,67.871, , , , , , ,34.118,20.682,-113.676
 12:50:18.067,eb:33:2e:f9:57:b5, 2015-01-01 00:36:21.285,1.209,-0.372,2.861,-596.741,-339.6,65.43, , , , , , ,30.894,19.094,-114.329
 12:50:18.067,eb:33:2e:f9:57:b5, 2015-01-01 00:36:21.285,1.301,-0.288,2.831,-589.905,-354.736,57.495, , , , , , ,27.68,17.397,-114.988
 12:50:18.067,eb:33:2e:f9:57:b5, 2015-01-01 00:36:21.285,1.287,-0.259,2.818,-585.693,-372.437,46.082, , , , , , ,24.576,15.645,-115.593
 12:50:18.067,eb:33:2e:f9:57:b5, 2015-01-01 00:36:21.285,1.169,-0.221,2.777,-585.693,-395.508,32.959, , , , , , ,21.495,13.793,-116.18
 12:50:18.110,eb:33:2e:f9:57:b5, 2015-01-01 00:36:21.285,1.062,-0.171,2.817,-590.759,-422.363,20.203, , , , , , ,18.419,11.816,-116.779
 12:50:18.110,eb:33:2e:f9:57:b5, 2015-01-01 00:36:21.285,0.967,-0.111,3.109,-600.83,-443.237,11.414, , , , , , ,15.271,9.679,-117.389
 12:50:18.110,eb:33:2e:f9:57:b5, 2015-01-01 00:36:21.285,0.766,-0.011,3.607,-614.197,-449.524,8.362, , , , , , ,12.156,7.487,-117.883
 12:50:18.110,eb:33:2e:f9:57:b5, 2015-01-01 00:36:21.285,0.46,0.147,4.106,-627.075,-443.604,10.254, , , , , , ,9.003,5.284,-118.246
 12:50:18.110,eb:33:2e:f9:57:b5, 2015-01-01 00:36:21.285,0.186,0.357,4.549,-635.376,-430.42,16.113, , , , , , ,5.823,3.115,-118.46
 12:50:18.110,eb:33:2e:f9:57:b5, 2015-01-01 00:36:21.285,-0.068,0.648,5.004,-637.634,-408.264,25.757, , , , , , ,2.576,0.989,-118.526
 12:50:18.110,eb:33:2e:f9:57:b5, 2015-01-01 00:36:21.285,-0.293,1.055,5.41,-633.667,-378.601,38.879, , , , , , ,-0.599,-0.967,-118.394
 12:50:18.110,eb:33:2e:f9:57:b5, 2015-01-01 00:36:21.285,-0.494,1.512,5.762,-622.925,-344.666,54.077, , , , , , ,-3.746,-2.747,-118.087
 12:50:18.155,eb:33:2e:f9:57:b5, 2015-01-01 00:36:21.620,-0.688,1.971,6.021,-604.858,-314.087,70.557, , , , , , ,-6.839,-4.34,-117.62
 12:50:18.155,eb:33:2e:f9:57:b5, 2015-01-01 00:36:21.620,-0.872,2.369,6.117,-579.346,-296.204,87.341, , , , , , ,-9.899,-5.806,-117.004
 12:50:18.155,eb:33:2e:f9:57:b5, 2015-01-01 00:36:21.620,-1.072,2.754,6.014,-546.448,-298.706,103.333, , , , , , ,-12.788,-7.163,-116.235
 12:50:18.155,eb:33:2e:f9:57:b5, 2015-01-01 00:36:21.620,-1.307,3.26,5.761,-505.981,-326.538,116.211, , , , , , ,-15.529,-8.542,-115.307
 12:50:18.155,eb:33:2e:f9:57:b5, 2015-01-01 00:36:21.620,-1.596,3.947,5.538,-454.285,-375.671,123.108, , , , , , ,-18.089,-10.069,-114.197
 12:50:18.155,eb:33:2e:f9:57:b5, 2015-01-01 00:36:21.620,-1.829,4.777,5.518,-386.169,-430.054,120.85, , , , , , ,-20.451,-11.821,-112.923
 12:50:18.155,eb:33:2e:f9:57:b5, 2015-01-01 00:36:21.620,-2.011,5.583,5.815,-307.617,-462.158,108.948, , , , , , ,-22.456,-13.716,-111.528
 12:50:18.155,eb:33:2e:f9:57:b5, 2015-01-01 00:36:21.620,-2.174,6.271,6.12,-233.582,-451.416,89.783, , , , , , ,-24.12,-15.634,-110.132
 12:50:18.177,eb:33:2e:f9:57:b5, 2015-01-01 00:36:21.620,-2.392,6.848,6.182,-177.856,-391.357,67.261, , , , , , ,-25.477,-17.375,-108.853
 12:50:18.177,eb:33:2e:f9:57:b5, 2015-01-01 00:36:21.620,-2.7,7.219,5.777,-144.104,-291.565,46.753, , , , , , ,-26.603,-18.77,-107.825
 12:50:18.177,eb:33:2e:f9:57:b5, 2015-01-01 00:36:21.620,-2.943,7.112,5.036,-123.535,-171.509,35.339, , , , , , ,-27.493,-19.666,-107.111
 12:50:18.177,eb:33:2e:f9:57:b5, 2015-01-01 00:36:21.620,-3.013,6.643,4.245,-103.21,-51.086,38.208, , , , , , ,-28.196,-20.017,-106.71
 12:50:18.177,eb:33:2e:f9:57:b5, 2015-01-01 00:36:21.620,-2.879,6.186,3.553,-70.801,45.532,50.354, , , , , , ,-28.685,-19.869,-106.529
 12:50:18.177,eb:33:2e:f9:57:b5, 2015-01-01 00:36:21.620,-2.507,5.983,2.887,-24.414,97.29,61.584, , , , , , ,-28.927,-19.38,-106.474
 12:50:18.177,eb:33:2e:f9:57:b5, 2015-01-01 00:36:21.620,-2.004,6.01,2.227,27.405,103.943,65.613, , , , , , ,-28.905,-18.77,-106.441
 12:50:18.178,eb:33:2e:f9:57:b5, 2015-01-01 00:36:21.620,-1.583,6.049,1.711,76.355,80.383,60.425, , , , , , ,-28.641,-18.215,-106.392
 12:50:18.224,eb:33:2e:f9:57:b5, 2015-01-01 00:36:21.620,-1.264,5.811,1.457,121.582,45.227,47.302, , , , , , ,-28.152,-17.825,-106.298
 12:50:18.224,eb:33:2e:f9:57:b5, 2015-01-01 00:36:21.620,-1.239,5.258,1.419,160.156,19.104,32.776, , , , , , ,-27.444,-17.617,-106.205
 12:50:18.224,eb:33:2e:f9:57:b5, 2015-01-01 00:36:21.620,1.545,4.434,1.557,200.745,-4.639,19.104, , , , , , ,-26.559,-17.54,-106.1
 12:50:18.224,eb:33:2e:f9:57:b5, 2015-01-01 00:36:21.620,-3.876,6.965,9.01,582.581,217.468,-1.831, , , , , , ,-24.373,-17.787,-106.501
 12:50:18.224,eb:33:2e:f9:57:b5, 2015-01-01 00:36:21.620,1.085,8.158,-3.567,657.532,216.919,-211.914, , , , , , ,-20.88,-16.474,-107.254
 12:50:18.224,eb:33:2e:f9:57:b5, 2015-01-01 00:36:21.620,-1.228,3.869,2.686,765.625,508.545,-209.351, , , , , , ,-16.76,-14.771,-108.809
 12:50:18.224,eb:33:2e:f9:57:b5, 2015-01-01 00:36:21.620,-1.661,3.519,4.048,753.235,632.69,-238.22, , , , , , ,-12.475,-12.156,-110.841
 12:50:18.224,eb:33:2e:f9:57:b5, 2015-01-01 00:36:21.620,-2.385,0.972,3.254,672.913,583.74,-81.604, , , , , , ,-8.69,-9.294,-112.088
 12:50:18.291,eb:33:2e:f9:57:b5, 2015-01-01 00:36:21.620,-1.967,2.724,3.467,494.751,455.811,11.536, , , , , , ,-5.812,-6.85,-112.5
 12:50:18.291,eb:33:2e:f9:57:b5, 2015-01-01 00:36:21.620,-0.201,3.538,2.571,316.467,292.908,42.542, , , , , , ,-3.873,-5.136,-112.516
 12:50:18.291,eb:33:2e:f9:57:b5, 2015-01-01 00:36:21.620,-1.597,4.214,1.96,138,297.607,54.321, , , , , , ,-2.818,-3.647,-112.264
 12:50:18.291,eb:33:2e:f9:57:b5, 2015-01-01 00:36:21.620,-1.805,0.184,0.035,84.961,195.374,66.956, , , , , , ,-2.384,-2.406,-112.05
 12:50:18.291,eb:33:2e:f9:57:b5, 2015-01-01 00:36:21.620,0.351,-1.226,-0.222,125.732,54.81,70.251, , , , , , ,-1.851,-1.829,-111.742
 12:50:18.291,eb:33:2e:f9:57:b5, 2015-01-01 00:36:21.620,-0.787,1.585,0.831,72.083,82.153,40.71, , , , , , ,-1.318,-1.527,-111.473
 12:50:18.291,eb:33:2e:f9:57:b5, 2015-01-01 00:36:21.620,-0.016,0.223,0.438,62.988,37.354,34.424, , , , , , ,-1,-1.247,-111.275
 12:50:18.291,eb:33:2e:f9:57:b5, 2015-01-01 00:36:21.620,-0.103,0.102,1.21,60.669,54.138,16.602, , , , , , ,-0.703,-0.967,-111.176
 12:50:18.313,eb:33:2e:f9:57:b5, 2015-01-01 00:36:21.620,-0.13,0.412,1.104,47.729,53.772,1.709, , , , , , ,-0.439,-0.725,-111.143
 12:50:18.313,eb:33:2e:f9:57:b5, 2015-01-01 00:36:21.620,-0.575,0.006,1.112,47.363,58.105,-7.751, , , , , , ,-0.165,-0.417,-111.182
 12:50:18.313,eb:33:2e:f9:57:b5, 2015-01-01 00:36:21.620,0.125,0.163,0.635,39.734,28.442,-11.963, , , , , , ,0.049,-0.225,-111.226
 12:50:18.313,eb:33:2e:f9:57:b5, 2015-01-01 00:36:21.620,0.174,0.101,1.12,36.621,33.63,-18.188, , , , , , ,0.231,-0.071,-111.308
 12:50:18.313,eb:33:2e:f9:57:b5, 2015-01-01 00:36:21.620,-0.023,0.045,1.243,43.152,44.495,-24.597, , , , , , ,0.434,0.126,-111.418
 12:50:18.313,eb:33:2e:f9:57:b5, 2015-01-01 00:36:21.620,-0.279,0.069,1.042,42.236,42.969,-17.151, , , , , , ,0.681,0.368,-111.533
 12:50:18.313,eb:33:2e:f9:57:b5, 2015-01-01 00:36:21.620,-0.08,-0.029,0.827,42.542,8.728,-10.803, , , , , , ,0.895,0.478,-111.588
 12:50:18.313,eb:33:2e:f9:57:b5, 2015-01-01 00:36:21.620,-0.331,-0.241,1.509,62.622,-6.287,-6.287, , , , , , ,1.154,0.478,-111.638
 12:50:18.336,eb:33:2e:f9:57:b5, 2015-01-01 00:36:21.620,0.016,-0.266,1.707,95.52,-35.706,6.897, , , , , , ,1.571,0.357,-111.627
 12:50:18.336,eb:33:2e:f9:57:b5, 2015-01-01 00:36:21.620,0.031,-0.161,1.854,113.342,-42.419,12.512, , , , , , ,2.142,0.17,-111.588
 12:50:18.336,eb:33:2e:f9:57:b5, 2015-01-01 00:36:21.620,-0.141,-0.324,2.67,140.198,-42.419,16.296, , , , , , ,2.78,-0.049,-111.539
 12:50:18.336,eb:33:2e:f9:57:b5, 2015-01-01 00:36:21.620,-0.202,-0.628,3.152,177.124,-37.048,31.921, , , , , , ,3.593,-0.253,-111.423
 12:50:18.337,eb:33:2e:f9:57:b5, 2015-01-01 00:36:21.620,0.144,-0.341,2.54,208.801,-59.387,38.025, , , , , , ,4.57,-0.5,-111.253
 12:50:18.337,eb:33:2e:f9:57:b5, 2015-01-01 00:36:21.620,0.211,-0.325,3.037,240.295,-71.899,41.382, , , , , , ,5.735,-0.851,-111.088
 12:50:18.337,eb:33:2e:f9:57:b5, 2015-01-01 00:36:21.620,0.361,-0.768,3.59,290.894,-62.439,47.241, , , , , , ,7.075,-1.214,-110.901
 12:50:18.337,eb:33:2e:f9:57:b5, 2015-01-01 00:36:21.620,0.632,-0.912,3.821,360.474,-54.749,36.621, , , , , , ,8.734,-1.533,-110.742
 12:50:18.381,eb:33:2e:f9:57:b5, 2015-01-01 00:36:21.620,0.854,-0.753,4.465,426.27,-29.419,17.212, , , , , , ,10.728,-1.758,-110.649
 12:50:18.381,eb:33:2e:f9:57:b5, 2015-01-01 00:36:21.620,0.853,-1.246,4.872,485.474,23.193,7.568, , , , , , ,13.074,-1.741,-110.588
 12:50:18.381,eb:33:2e:f9:57:b5, 2015-01-01 00:36:21.620,0.895,-1.31,4.825,538.513,79.346,-11.841, , , , , , ,15.656,-1.472,-110.544
 12:50:18.381,eb:33:2e:f9:57:b5, 2015-01-01 00:36:21.620,0.733,-1.501,4.472,582.031,132.263,-26.184, , , , , , ,18.479,-0.906,-110.479
 12:50:18.381,eb:33:2e:f9:57:b5, 2015-01-01 00:36:21.620,0.555,-1.335,3.803,619.507,149.78,-48.035, , , , , , ,21.5,-0.148,-110.396
 12:50:18.381,eb:33:2e:f9:57:b5, 2015-01-01 00:36:21.620,0.103,-0.988,4.641,687.927,180.054,-66.833, , , , , , ,24.813,0.725,-110.347
 12:50:18.381,eb:33:2e:f9:57:b5, 2015-01-01 00:36:21.620,-0.247,-1.375,5.263,727.356,227.844,-60.12, , , , , , ,28.4,1.807,-110.16
 12:50:18.381,eb:33:2e:f9:57:b5, 2015-01-01 00:36:21.620,-1.095,-1.743,6.631,700.867,320.068,-38.879, , , , , , ,31.987,3.12,-109.688
 12:50:18.448,eb:33:2e:f9:57:b5, 2015-01-01 00:36:21.620,-0.744,-2.707,6.612,697.144,445.068,22.217, , , , , , ,35.546,4.801,-108.567
 12:50:18.448,eb:33:2e:f9:57:b5, 2015-01-01 00:36:21.620,-0.223,-1.9,3.794,682.861,401.978,65.308, , , , , , ,39.166,6.378,-107.056
 12:50:18.448,eb:33:2e:f9:57:b5, 2015-01-01 00:36:21.620,0.396,-0.755,1.409,645.203,240.601,78.369, , , , , , ,42.627,7.3,-105.771
 12:50:18.448,eb:33:2e:f9:57:b5, 2015-01-01 00:36:21.620,0.033,-0.534,1.45,619.446,136.658,83.008, , , , , , ,45.879,7.625,-104.865
 12:50:18.448,eb:33:2e:f9:57:b5, 2015-01-01 00:36:21.620,-0.05,-0.489,3.854,630.127,156.311,109.009, , , , , , ,49.092,7.729,-104.035
 12:50:18.448,eb:33:2e:f9:57:b5, 2015-01-01 00:36:21.620,-0.071,-1.705,4.129,701.111,225.586,168.457, , , , , , ,52.614,7.795,-102.794
 12:50:18.448,eb:33:2e:f9:57:b5, 2015-01-01 00:36:21.620,0.236,-1.06,3.345,754.7,287.17,215.332, , , , , , ,56.486,7.817,-101.195
 12:50:18.448,eb:33:2e:f9:57:b5, 2015-01-01 00:36:21.620,0.046,-0.73,1.849,871.033,287.17,252.93, , , , , , ,60.859,7.575,-99.3
 12:50:18.471,eb:33:2e:f9:57:b5, 2015-01-01 00:36:21.955,0.369,2.192,-1.814,801.27,163.147,258.362, , , , , , ,65.292,6.899,-97.767
 12:50:18.471,eb:33:2e:f9:57:b5, 2015-01-01 00:36:21.955,0.014,1.658,0.141,674.988,130.615,276.978, , , , , , ,69.038,5.944,-96.575
 12:50:18.471,eb:33:2e:f9:57:b5, 2015-01-01 00:36:21.955,0.478,1.434,0.359,552.124,76.172,272.705, , , , , , ,72.153,4.796,-95.658
 12:50:18.471,eb:33:2e:f9:57:b5, 2015-01-01 00:36:21.955,0.745,1.349,0.546,424.316,59.387,250.488, , , , , , ,74.57,3.636,-94.949
 12:50:18.471,eb:33:2e:f9:57:b5, 2015-01-01 00:36:21.955,1.128,1.298,0.66,317.749,42.175,208.008, , , , , , ,76.388,2.604,-94.427
 12:50:18.472,eb:33:2e:f9:57:b5, 2015-01-01 00:36:21.955,1.244,1.474,1.33,245.789,31.616,147.217, , , , , , ,77.761,1.807,-94.059
 12:50:18.472,eb:33:2e:f9:57:b5, 2015-01-01 00:36:21.955,1.361,1.867,2.178,215.942,8.667,73.12, , , , , , ,78.887,1.318,-93.856
 12:50:18.472,eb:33:2e:f9:57:b5, 2015-01-01 00:36:21.955,1.355,2.336,2.993,222.412,-39.612,-10.132, , , , , , ,79.975,1.187,-93.895
 12:50:18.515,eb:33:2e:f9:57:b5, 2015-01-01 00:36:21.955,1.227,2.589,3.688,255.676,-111.145,-95.947, , , , , , ,81.167,1.428,-94.351
 12:50:18.515,eb:33:2e:f9:57:b5, 2015-01-01 00:36:21.955,1.183,2.458,4.199,300.598,-187.439,-178.955, , , , , , ,82.546,2.038,-95.229
 12:50:18.515,eb:33:2e:f9:57:b5, 2015-01-01 00:36:21.955,1.169,1.782,4.555,338.989,-241.516,-250.366, , , , , , ,84.117,3.021,-96.465
 12:50:18.515,eb:33:2e:f9:57:b5, 2015-01-01 00:36:21.955,1.074,0.923,4.637,358.459,-263.672,-304.016, , , , , , ,85.787,4.323,-97.844
 12:50:18.515,eb:33:2e:f9:57:b5, 2015-01-01 00:36:21.955,0.957,0.15,4.614,359.985,-259.583,-341.98, , , , , , ,87.462,5.883,-99.261
 12:50:18.515,eb:33:2e:f9:57:b5, 2015-01-01 00:36:21.955,0.793,-0.53,4.65,347.168,-234.558,-365.356, , , , , , ,89.066,7.625,-100.552
 12:50:18.515,eb:33:2e:f9:57:b5, 2015-01-01 00:36:21.955,0.759,-1.184,4.758,326.904,-197.449,-374.695, , , , , , ,90.582,9.487,-101.635
 12:50:18.515,eb:33:2e:f9:57:b5, 2015-01-01 00:36:21.955,0.74,-1.704,4.85,299.316,-147.156,-371.521, , , , , , ,91.989,11.371,-102.415
 12:50:18.561,eb:33:2e:f9:57:b5, 2015-01-01 00:36:21.955,0.699,-2.058,4.636,263.184,-87.708,-358.276, , , , , , ,93.279,13.217,-102.903
 12:50:18.561,eb:33:2e:f9:57:b5, 2015-01-01 00:36:21.955,0.636,-2.285,4.194,220.581,-27.588,-337.402, , , , , , ,94.406,14.958,-103.052
 12:50:18.561,eb:33:2e:f9:57:b5, 2015-01-01 00:36:21.955,0.57,-2.441,3.682,176.331,22.095,-310.913, , , , , , ,95.422,16.556,-102.887
 12:50:18.561,eb:33:2e:f9:57:b5, 2015-01-01 00:36:21.955,0.542,-2.524,3.217,135.376,56.335,-282.471, , , , , , ,96.295,17.996,-102.469
 12:50:18.561,eb:33:2e:f9:57:b5, 2015-01-01 00:36:21.955,0.583,-2.517,2.864,99.426,76.843,-254.395, , , , , , ,97.026,19.276,-101.942
 12:50:18.561,eb:33:2e:f9:57:b5, 2015-01-01 00:36:21.955,0.689,-2.408,2.623,67.139,87.341,-228.882, , , , , , ,97.597,20.402,-101.354
 12:50:18.561,eb:33:2e:f9:57:b5, 2015-01-01 00:36:21.955,0.795,-2.263,2.515,38.33,92.468,-206.604, , , , , , ,98.075,21.407,-100.717
 12:50:18.561,eb:33:2e:f9:57:b5, 2015-01-01 00:36:21.955,0.814,-2.103,2.504,8.362,93.018,-184.448, , , , , , ,98.416,22.297,-100.036
 12:50:18.584,eb:33:2e:f9:57:b5, 2015-01-01 00:36:21.955,0.814,-2.038,2.507,-12.268,88.379,-169.067, , , , , , ,98.635,23.099,-99.41
 12:50:18.584,eb:33:2e:f9:57:b5, 2015-01-01 00:36:21.955,0.789,-2.035,2.491,-30.151,81.604,-155.151, , , , , , ,98.712,23.824,-98.849
 12:50:18.584,eb:33:2e:f9:57:b5, 2015-01-01 00:36:21.955,0.704,-2.093,2.456,-46.692,72.937,-141.296, , , , , , ,98.729,24.494,-98.311
 12:50:18.584,eb:33:2e:f9:57:b5, 2015-01-01 00:36:21.955,0.573,-2.208,2.364,-64.026,60.547,-125.61, , , , , , ,98.641,25.098,-97.811
 12:50:18.584,eb:33:2e:f9:57:b5, 2015-01-01 00:36:21.955,0.524,-2.386,2.069,-87.097,47.119,-106.873, , , , , , ,98.416,25.626,-97.432
 12:50:18.584,eb:33:2e:f9:57:b5, 2015-01-01 00:36:21.955,0.589,-2.589,1.521,-123.23,40.1,-82.764, , , , , , ,97.965,26.054,-97.158
 12:50:18.584,eb:33:2e:f9:57:b5, 2015-01-01 00:36:21.955,0.736,-2.745,0.595,-179.565,40.894,-55.42, , , , , , ,97.311,26.362,-96.888
 12:50:18.584,eb:33:2e:f9:57:b5, 2015-01-01 00:36:21.955,1.076,-2.809,-0.521,-256.104,40.1,-30.029, , , , , , ,96.301,26.532,-96.603
 12:50:18.628,eb:33:2e:f9:57:b5, 2015-01-01 00:36:21.955,1.378,-2.809,-0.61,-334.839,38.147,-13.245, , , , , , ,94.878,26.609,-96.378
 12:50:18.628,eb:33:2e:f9:57:b5, 2015-01-01 00:36:21.955,1.398,-2.699,0.29,-392.517,36.804,-6.958, , , , , , ,93.071,26.642,-96.202
