Time,Device name,Chip Time(),Acceleration X(g),Acceleration Y(g),Acceleration Z(g),Angular velocity X(°/s),Angular velocity Y(°/s),Angular velocity Z(°/s),ShiftX(mm),ShiftY(mm),ShiftZ(mm),SpeedX(mm/s),SpeedY(mm/s),SpeedZ(mm/s),Angle X(°),Angle Y(°),Angle Z(°)
 12:41:27.524,eb:33:2e:f9:57:b5, 2015-01-01 00:27:34.970,-0.001,0.004,0.998,0.183,0.122,0.061, , , , , , ,0.181,0.115,-108.127
 12:41:27.524,eb:33:2e:f9:57:b5, 2015-01-01 00:27:34.970,-0.001,0.005,0.998,0.183,0.061,0.061, , , , , , ,0.181,0.115,-108.127
 12:41:27.525,eb:33:2e:f9:57:b5, 2015-01-01 00:27:34.970,-0.001,0.004,0.998,0.183,0.122,0, , , , , , ,0.181,0.115,-108.127
 12:41:27.525,eb:33:2e:f9:57:b5, 2015-01-01 00:27:34.970,-0.001,0.005,0.998,0.122,0.122,0, , , , , , ,0.181,0.115,-108.127
 12:41:27.525,eb:33:2e:f9:57:b5, 2015-01-01 00:27:34.970,-0.001,0.005,0.999,0.061,0.122,0, , , , , , ,0.181,0.115,-108.122
 12:41:27.525,eb:33:2e:f9:57:b5, 2015-01-01 00:27:34.970,-0.001,0.004,1,0.061,0.122,0, , , , , , ,0.181,0.115,-108.122
 12:41:27.525,eb:33:2e:f9:57:b5, 2015-01-01 00:27:34.970,-0.001,0.005,1,0.122,0.244,0, , , , , , ,0.181,0.115,-108.122
 12:41:27.525,eb:33:2e:f9:57:b5, 2015-01-01 00:27:34.970,-0.002,0.004,0.999,0.061,0.244,0, , , , , , ,0.181,0.115,-108.122
 12:41:27.545,eb:33:2e:f9:57:b5, 2015-01-01 00:27:34.970,-0.001,0.005,0.999,0.061,0.244,0, , , , , , ,0.187,0.115,-108.122
 12:41:27.545,eb:33:2e:f9:57:b5, 2015-01-01 00:27:34.970,-0.002,0.004,0.999,0,0.244,0, , , , , , ,0.187,0.115,-108.122
 12:41:27.545,eb:33:2e:f9:57:b5, 2015-01-01 00:27:34.970,-0.002,0.004,0.999,0.061,0.244,-0.061, , , , , , ,0.187,0.115,-108.122
 12:41:27.545,eb:33:2e:f9:57:b5, 2015-01-01 00:27:34.970,-0.002,0.004,0.999,0,0.244,0, , , , , , ,0.187,0.115,-108.122
 12:41:27.545,eb:33:2e:f9:57:b5, 2015-01-01 00:27:34.970,-0.002,0.004,0.998,0,0.183,0, , , , , , ,0.187,0.115,-108.122
 12:41:27.545,eb:33:2e:f9:57:b5, 2015-01-01 00:27:34.970,-0.002,0.004,0.998,0,0.244,-0.061, , , , , , ,0.187,0.115,-108.122
 12:41:27.545,eb:33:2e:f9:57:b5, 2015-01-01 00:27:34.970,-0.002,0.005,0.998,0,0.244,-0.061, , , , , , ,0.187,0.115,-108.122
 12:41:27.546,eb:33:2e:f9:57:b5, 2015-01-01 00:27:34.970,-0.002,0.005,0.999,0,0.183,-0.061, , , , , , ,0.187,0.115,-108.122
 12:41:27.591,eb:33:2e:f9:57:b5, 2015-01-01 00:27:34.970,-0.002,0.005,0.999,0,0.183,-0.061, , , , , , ,0.187,0.115,-108.122
 12:41:27.591,eb:33:2e:f9:57:b5, 2015-01-01 00:27:34.970,-0.001,0.004,0.999,0,0.122,-0.061, , , , , , ,0.187,0.115,-108.122
 12:41:27.591,eb:33:2e:f9:57:b5, 2015-01-01 00:27:34.970,-0.001,0.004,1,0,0.183,-0.061, , , , , , ,0.187,0.115,-108.122
 12:41:27.591,eb:33:2e:f9:57:b5, 2015-01-01 00:27:34.970,-0.001,0.004,0.999,0,0.183,-0.061, , , , , , ,0.187,0.115,-108.122
 12:41:27.591,eb:33:2e:f9:57:b5, 2015-01-01 00:27:34.970,-0.002,0.005,1,0,0.244,-0.122, , , , , , ,0.187,0.115,-108.122
 12:41:27.591,eb:33:2e:f9:57:b5, 2015-01-01 00:27:34.970,-0.001,0.005,0.999,0,0.244,-0.061, , , , , , ,0.187,0.115,-108.122
 12:41:27.591,eb:33:2e:f9:57:b5, 2015-01-01 00:27:34.970,-0.002,0.003,0.999,0,0.244,-0.061, , , , , , ,0.187,0.115,-108.122
 12:41:27.591,eb:33:2e:f9:57:b5, 2015-01-01 00:27:34.970,-0.002,0.004,0.999,0,0.244,-0.061, , , , , , ,0.187,0.115,-108.122
 12:41:27.614,eb:33:2e:f9:57:b5, 2015-01-01 00:27:34.970,-0.002,0.003,0.999,0,0.244,-0.061, , , , , , ,0.187,0.115,-108.122
 12:41:27.614,eb:33:2e:f9:57:b5, 2015-01-01 00:27:34.970,-0.003,0.004,0.999,0,0.244,-0.061, , , , , , ,0.187,0.115,-108.122
 12:41:27.614,eb:33:2e:f9:57:b5, 2015-01-01 00:27:34.970,-0.002,0.003,0.999,0,0.183,-0.061, , , , , , ,0.187,0.115,-108.122
 12:41:27.614,eb:33:2e:f9:57:b5, 2015-01-01 00:27:34.970,-0.002,0.004,0.999,0,0.183,-0.061, , , , , , ,0.187,0.115,-108.122
 12:41:27.614,eb:33:2e:f9:57:b5, 2015-01-01 00:27:34.970,-0.002,0.004,0.999,0,0.244,-0.061, , , , , , ,0.187,0.115,-108.122
 12:41:27.614,eb:33:2e:f9:57:b5, 2015-01-01 00:27:34.970,-0.002,0.004,0.999,0.061,0.122,-0.061, , , , , , ,0.187,0.115,-108.122
 12:41:27.614,eb:33:2e:f9:57:b5, 2015-01-01 00:27:34.970,-0.002,0.004,1,0,0.244,-0.061, , , , , , ,0.187,0.115,-108.122
 12:41:27.614,eb:33:2e:f9:57:b5, 2015-01-01 00:27:34.970,-0.002,0.004,0.999,0,0.244,-0.122, , , , , , ,0.187,0.115,-108.122
 12:41:27.659,eb:33:2e:f9:57:b5, 2015-01-01 00:27:34.970,-0.002,0.004,1,0,0.183,-0.061, , , , , , ,0.187,0.115,-108.116
 12:41:27.659,eb:33:2e:f9:57:b5, 2015-01-01 00:27:34.970,-0.002,0.004,1,0,0.244,-0.122, , , , , , ,0.187,0.115,-108.116
 12:41:27.659,eb:33:2e:f9:57:b5, 2015-01-01 00:27:34.970,-0.003,0.004,0.999,0,0.244,-0.061, , , , , , ,0.187,0.115,-108.116
 12:41:27.659,eb:33:2e:f9:57:b5, 2015-01-01 00:27:34.970,-0.003,0.004,1,0,0.244,-0.061, , , , , , ,0.187,0.115,-108.116
 12:41:27.659,eb:33:2e:f9:57:b5, 2015-01-01 00:27:34.970,-0.003,0.004,0.999,0,0.183,-0.061, , , , , , ,0.187,0.115,-108.116
 12:41:27.659,eb:33:2e:f9:57:b5, 2015-01-01 00:27:34.970,-0.002,0.004,1,0,0.183,-0.061, , , , , , ,0.187,0.115,-108.116
 12:41:27.659,eb:33:2e:f9:57:b5, 2015-01-01 00:27:34.970,-0.002,0.003,1,0,0.183,-0.061, , , , , , ,0.187,0.115,-108.116
 12:41:27.659,eb:33:2e:f9:57:b5, 2015-01-01 00:27:34.970,-0.003,0.003,0.999,0,0.183,0, , , , , , ,0.187,0.115,-108.116
 12:41:27.704,eb:33:2e:f9:57:b5, 2015-01-01 00:27:34.970,-0.003,0.004,0.999,0,0.183,0, , , , , , ,0.187,0.115,-108.116
 12:41:27.704,eb:33:2e:f9:57:b5, 2015-01-01 00:27:34.970,-0.002,0.004,0.999,0,0.061,0, , , , , , ,0.187,0.115,-108.116
 12:41:27.704,eb:33:2e:f9:57:b5, 2015-01-01 00:27:34.970,-0.002,0.004,0.999,0,0.061,0, , , , , , ,0.187,0.115,-108.116
 12:41:27.704,eb:33:2e:f9:57:b5, 2015-01-01 00:27:34.970,-0.003,0.004,0.999,0,0.061,-0.061, , , , , , ,0.187,0.115,-108.116
 12:41:27.704,eb:33:2e:f9:57:b5, 2015-01-01 00:27:34.970,-0.003,0.004,0.999,0,0.061,-0.061, , , , , , ,0.192,0.115,-108.116
 12:41:27.704,eb:33:2e:f9:57:b5, 2015-01-01 00:27:34.970,-0.002,0.004,0.999,0.061,0,0, , , , , , ,0.192,0.115,-108.116
 12:41:27.704,eb:33:2e:f9:57:b5, 2015-01-01 00:27:34.970,-0.002,0.004,0.999,0.061,0.061,0, , , , , , ,0.192,0.115,-108.116
 12:41:27.704,eb:33:2e:f9:57:b5, 2015-01-01 00:27:34.970,-0.002,0.004,0.999,0,0,0, , , , , , ,0.192,0.115,-108.116
 12:41:27.749,eb:33:2e:f9:57:b5, 2015-01-01 00:27:34.970,-0.003,0.003,0.998,0.061,0,0, , , , , , ,0.192,0.115,-108.116
 12:41:27.749,eb:33:2e:f9:57:b5, 2015-01-01 00:27:34.970,-0.003,0.004,0.999,0.061,0,0, , , , , , ,0.192,0.115,-108.116
 12:41:27.749,eb:33:2e:f9:57:b5, 2015-01-01 00:27:34.970,-0.002,0.004,0.999,0,0,0, , , , , , ,0.192,0.115,-108.116
 12:41:27.749,eb:33:2e:f9:57:b5, 2015-01-01 00:27:34.970,-0.003,0.004,0.999,0.061,0,0, , , , , , ,0.192,0.115,-108.116
 12:41:27.749,eb:33:2e:f9:57:b5, 2015-01-01 00:27:34.970,-0.002,0.003,0.998,0,0,0, , , , , , ,0.192,0.115,-108.116
 12:41:27.749,eb:33:2e:f9:57:b5, 2015-01-01 00:27:34.970,-0.002,0.004,0.999,0.061,0,0, , , , , , ,0.192,0.115,-108.116
 12:41:27.749,eb:33:2e:f9:57:b5, 2015-01-01 00:27:34.970,-0.002,0.004,0.999,0.122,0,0, , , , , , ,0.192,0.115,-108.116
 12:41:27.749,eb:33:2e:f9:57:b5, 2015-01-01 00:27:34.970,-0.003,0.004,1,0.061,0,0, , , , , , ,0.192,0.115,-108.116
 12:41:27.793,eb:33:2e:f9:57:b5, 2015-01-01 00:27:35.285,-0.002,0.003,0.998,0,0,0, , , , , , ,0.192,0.115,-108.116
 12:41:27.793,eb:33:2e:f9:57:b5, 2015-01-01 00:27:35.285,-0.002,0.003,0.999,0.061,0,0, , , , , , ,0.192,0.115,-108.116
 12:41:27.793,eb:33:2e:f9:57:b5, 2015-01-01 00:27:35.285,-0.002,0.003,0.999,0.061,0,0, , , , , , ,0.192,0.115,-108.116
 12:41:27.793,eb:33:2e:f9:57:b5, 2015-01-01 00:27:35.285,-0.002,0.003,0.999,0.061,0,0, , , , , , ,0.192,0.115,-108.116
 12:41:27.793,eb:33:2e:f9:57:b5, 2015-01-01 00:27:35.285,-0.002,0.003,0.999,0.061,0,0, , , , , , ,0.192,0.115,-108.116
 12:41:27.793,eb:33:2e:f9:57:b5, 2015-01-01 00:27:35.285,-0.003,0.004,1,0.061,0,0, , , , , , ,0.192,0.115,-108.116
 12:41:27.793,eb:33:2e:f9:57:b5, 2015-01-01 00:27:35.285,-0.003,0.005,1,0.061,0,0, , , , , , ,0.192,0.115,-108.116
 12:41:27.793,eb:33:2e:f9:57:b5, 2015-01-01 00:27:35.285,-0.002,0.004,0.999,0.061,0,0, , , , , , ,0.192,0.115,-108.116
 12:41:27.837,eb:33:2e:f9:57:b5, 2015-01-01 00:27:35.285,-0.003,0.004,0.999,0.061,0,0.061, , , , , , ,0.192,0.115,-108.116
 12:41:27.837,eb:33:2e:f9:57:b5, 2015-01-01 00:27:35.285,-0.003,0.004,0.999,0.061,0,0, , , , , , ,0.192,0.115,-108.116
 12:41:27.837,eb:33:2e:f9:57:b5, 2015-01-01 00:27:35.285,-0.003,0.004,0.999,0,0,0.061, , , , , , ,0.192,0.115,-108.116
 12:41:27.837,eb:33:2e:f9:57:b5, 2015-01-01 00:27:35.285,-0.003,0.005,0.999,0,0,0, , , , , , ,0.192,0.115,-108.116
 12:41:27.837,eb:33:2e:f9:57:b5, 2015-01-01 00:27:35.285,-0.002,0.003,0.999,0.061,-0.061,0.061, , , , , , ,0.192,0.115,-108.111
 12:41:27.837,eb:33:2e:f9:57:b5, 2015-01-01 00:27:35.285,-0.003,0.003,0.999,0.061,0,0.061, , , , , , ,0.192,0.115,-108.111
 12:41:27.837,eb:33:2e:f9:57:b5, 2015-01-01 00:27:35.285,-0.003,0.004,0.999,0.061,0,0, , , , , , ,0.192,0.115,-108.111
 12:41:27.837,eb:33:2e:f9:57:b5, 2015-01-01 00:27:35.285,-0.003,0.004,0.999,0.061,-0.061,0, , , , , , ,0.192,0.115,-108.111
 12:41:27.884,eb:33:2e:f9:57:b5, 2015-01-01 00:27:35.285,-0.002,0.004,1,0.061,-0.061,0.061, , , , , , ,0.192,0.115,-108.111
 12:41:27.884,eb:33:2e:f9:57:b5, 2015-01-01 00:27:35.285,-0.002,0.003,1,0.061,-0.061,0.061, , , , , , ,0.192,0.115,-108.111
 12:41:27.884,eb:33:2e:f9:57:b5, 2015-01-01 00:27:35.285,-0.002,0.004,1,0.061,-0.061,0, , , , , , ,0.192,0.115,-108.111
 12:41:27.884,eb:33:2e:f9:57:b5, 2015-01-01 00:27:35.285,-0.001,0.004,0.999,0.061,0,0, , , , , , ,0.192,0.115,-108.111
 12:41:27.884,eb:33:2e:f9:57:b5, 2015-01-01 00:27:35.285,-0.002,0.004,1,0.061,0,0.061, , , , , , ,0.192,0.115,-108.111
 12:41:27.884,eb:33:2e:f9:57:b5, 2015-01-01 00:27:35.285,-0.002,0.004,1,0.061,0,0, , , , , , ,0.192,0.115,-108.111
 12:41:27.884,eb:33:2e:f9:57:b5, 2015-01-01 00:27:35.285,-0.002,0.005,1,0.061,0,0, , , , , , ,0.192,0.115,-108.111
 12:41:27.884,eb:33:2e:f9:57:b5, 2015-01-01 00:27:35.285,-0.002,0.005,1,0.061,0.061,0.061, , , , , , ,0.192,0.115,-108.111
 12:41:27.906,eb:33:2e:f9:57:b5, 2015-01-01 00:27:35.285,-0.002,0.005,1,0,0.183,0, , , , , , ,0.192,0.115,-108.111
 12:41:27.906,eb:33:2e:f9:57:b5, 2015-01-01 00:27:35.285,-0.001,0.004,1,0,0.183,0.061, , , , , , ,0.192,0.115,-108.111
 12:41:27.906,eb:33:2e:f9:57:b5, 2015-01-01 00:27:35.285,-0.002,0.004,0.999,0,0.122,0.061, , , , , , ,0.192,0.115,-108.111
 12:41:27.906,eb:33:2e:f9:57:b5, 2015-01-01 00:27:35.285,-0.003,0.005,0.999,0,0.183,0.061, , , , , , ,0.192,0.115,-108.111
 12:41:27.906,eb:33:2e:f9:57:b5, 2015-01-01 00:27:35.285,-0.002,0.004,0.999,0.061,0.122,0.061, , , , , , ,0.192,0.121,-108.111
 12:41:27.906,eb:33:2e:f9:57:b5, 2015-01-01 00:27:35.285,-0.002,0.004,1,0.061,0.122,0, , , , , , ,0.192,0.121,-108.111
 12:41:27.906,eb:33:2e:f9:57:b5, 2015-01-01 00:27:35.285,-0.003,0.003,1,0.061,0.183,0, , , , , , ,0.192,0.121,-108.111
 12:41:27.906,eb:33:2e:f9:57:b5, 2015-01-01 00:27:35.285,-0.002,0.003,0.999,0.061,0.061,0, , , , , , ,0.192,0.121,-108.111
 12:41:27.951,eb:33:2e:f9:57:b5, 2015-01-01 00:27:35.285,-0.002,0.004,1,0.061,0.122,0.061, , , , , , ,0.192,0.121,-108.111
 12:41:27.951,eb:33:2e:f9:57:b5, 2015-01-01 00:27:35.285,-0.002,0.004,1,0.061,0.061,0.061, , , , , , ,0.192,0.121,-108.111
 12:41:27.951,eb:33:2e:f9:57:b5, 2015-01-01 00:27:35.285,-0.002,0.003,1,0.122,0.061,0.061, , , , , , ,0.192,0.121,-108.111
 12:41:27.951,eb:33:2e:f9:57:b5, 2015-01-01 00:27:35.285,-0.002,0.004,0.999,0.122,0.122,0, , , , , , ,0.192,0.121,-108.111
 12:41:27.951,eb:33:2e:f9:57:b5, 2015-01-01 00:27:35.285,-0.002,0.004,0.998,0.061,0.122,0.061, , , , , , ,0.192,0.121,-108.111
 12:41:27.951,eb:33:2e:f9:57:b5, 2015-01-01 00:27:35.285,-0.002,0.004,0.999,0.122,0.122,0, , , , , , ,0.192,0.121,-108.111
 12:41:27.951,eb:33:2e:f9:57:b5, 2015-01-01 00:27:35.285,-0.002,0.003,0.999,0.183,0.122,0, , , , , , ,0.192,0.121,-108.111
 12:41:27.951,eb:33:2e:f9:57:b5, 2015-01-01 00:27:35.285,-0.002,0.003,0.999,0.183,0.122,0.061, , , , , , ,0.192,0.121,-108.111
 12:41:27.995,eb:33:2e:f9:57:b5, 2015-01-01 00:27:35.285,-0.002,0.003,0.999,0.183,0.183,0.061, , , , , , ,0.192,0.121,-108.111
 12:41:27.995,eb:33:2e:f9:57:b5, 2015-01-01 00:27:35.285,-0.002,0.004,0.999,0.122,0.183,0.061, , , , , , ,0.192,0.121,-108.111
 12:41:27.995,eb:33:2e:f9:57:b5, 2015-01-01 00:27:35.285,-0.002,0.003,0.998,0.122,0.183,0.122, , , , , , ,0.192,0.121,-108.111
 12:41:27.995,eb:33:2e:f9:57:b5, 2015-01-01 00:27:35.285,-0.002,0.004,0.999,0.183,0.183,0.122, , , , , , ,0.192,0.121,-108.111
 12:41:27.995,eb:33:2e:f9:57:b5, 2015-01-01 00:27:35.285,-0.002,0.004,0.999,0.183,0.183,0.061, , , , , , ,0.192,0.121,-108.111
 12:41:27.995,eb:33:2e:f9:57:b5, 2015-01-01 00:27:35.285,-0.002,0.004,0.999,0.122,0.183,0.122, , , , , , ,0.192,0.121,-108.111
 12:41:27.995,eb:33:2e:f9:57:b5, 2015-01-01 00:27:35.285,-0.003,0.004,0.999,0.061,0.183,0.122, , , , , , ,0.192,0.121,-108.111
 12:41:27.995,eb:33:2e:f9:57:b5, 2015-01-01 00:27:35.285,-0.003,0.004,0.999,0.122,0.122,0, , , , , , ,0.192,0.121,-108.111
 12:41:28.042,eb:33:2e:f9:57:b5, 2015-01-01 00:27:35.285,-0.003,0.003,0.998,0.122,0.122,0.061, , , , , , ,0.198,0.121,-108.111
 12:41:28.042,eb:33:2e:f9:57:b5, 2015-01-01 00:27:35.285,-0.003,0.004,0.999,0.122,0.122,0.061, , , , , , ,0.198,0.121,-108.111
 12:41:28.042,eb:33:2e:f9:57:b5, 2015-01-01 00:27:35.285,-0.003,0.004,0.999,0.061,0.061,0, , , , , , ,0.198,0.121,-108.111
 12:41:28.042,eb:33:2e:f9:57:b5, 2015-01-01 00:27:35.285,-0.002,0.004,0.999,0,0.061,0.061, , , , , , ,0.198,0.121,-108.111
 12:41:28.042,eb:33:2e:f9:57:b5, 2015-01-01 00:27:35.285,-0.002,0.004,0.999,0.061,0.061,0.061, , , , , , ,0.198,0.121,-108.111
 12:41:28.042,eb:33:2e:f9:57:b5, 2015-01-01 00:27:35.285,-0.002,0.003,0.999,0.061,0.061,0, , , , , , ,0.198,0.121,-108.111
 12:41:28.043,eb:33:2e:f9:57:b5, 2015-01-01 00:27:35.285,-0.002,0.004,0.999,0.061,0.122,0.061, , , , , , ,0.198,0.121,-108.111
 12:41:28.043,eb:33:2e:f9:57:b5, 2015-01-01 00:27:35.285,-0.002,0.004,1,0.061,0.061,0, , , , , , ,0.198,0.121,-108.111
 12:41:28.154,eb:33:2e:f9:57:b5, 2015-01-01 00:27:35.285,-0.002,0.003,0.999,0.061,0.061,0, , , , , , ,0.198,0.121,-108.105
 12:41:28.154,eb:33:2e:f9:57:b5, 2015-01-01 00:27:35.285,-0.002,0.004,0.999,0.061,0.061,0, , , , , , ,0.198,0.121,-108.105
 12:41:28.154,eb:33:2e:f9:57:b5, 2015-01-01 00:27:35.285,-0.003,0.004,0.999,0.061,0.122,0, , , , , , ,0.198,0.121,-108.105
 12:41:28.154,eb:33:2e:f9:57:b5, 2015-01-01 00:27:35.285,-0.003,0.004,0.999,0.061,0.122,0, , , , , , ,0.198,0.121,-108.105
 12:41:28.154,eb:33:2e:f9:57:b5, 2015-01-01 00:27:35.285,-0.003,0.004,0.999,0.061,0.122,0, , , , , , ,0.198,0.121,-108.105
 12:41:28.154,eb:33:2e:f9:57:b5, 2015-01-01 00:27:35.285,-0.003,0.004,0.999,0.061,0.122,0, , , , , , ,0.198,0.121,-108.105
 12:41:28.154,eb:33:2e:f9:57:b5, 2015-01-01 00:27:35.285,-0.002,0.004,0.999,0.061,0.122,0, , , , , , ,0.198,0.121,-108.105
 12:41:28.154,eb:33:2e:f9:57:b5, 2015-01-01 00:27:35.285,-0.002,0.004,0.999,0.061,0.122,0, , , , , , ,0.198,0.121,-108.105
 12:41:28.154,eb:33:2e:f9:57:b5, 2015-01-01 00:27:35.285,-0.002,0.004,0.999,0.061,0.061,0, , , , , , ,0.198,0.121,-108.105
 12:41:28.154,eb:33:2e:f9:57:b5, 2015-01-01 00:27:35.285,-0.002,0.004,0.999,0.061,0.061,0, , , , , , ,0.198,0.121,-108.105
 12:41:28.154,eb:33:2e:f9:57:b5, 2015-01-01 00:27:35.285,-0.002,0.004,1,0,0.122,0, , , , , , ,0.198,0.121,-108.105
 12:41:28.155,eb:33:2e:f9:57:b5, 2015-01-01 00:27:35.285,-0.003,0.003,1,0,0.183,0, , , , , , ,0.198,0.121,-108.105
 12:41:28.155,eb:33:2e:f9:57:b5, 2015-01-01 00:27:35.285,-0.003,0.003,0.999,0,0.244,0, , , , , , ,0.198,0.121,-108.105
 12:41:28.155,eb:33:2e:f9:57:b5, 2015-01-01 00:27:35.285,-0.002,0.003,0.999,0,0.183,0, , , , , , ,0.198,0.121,-108.105
 12:41:28.155,eb:33:2e:f9:57:b5, 2015-01-01 00:27:35.285,-0.002,0.004,1,0,0.183,0, , , , , , ,0.198,0.121,-108.105
 12:41:28.155,eb:33:2e:f9:57:b5, 2015-01-01 00:27:35.285,-0.003,0.003,0.999,0,0.183,0, , , , , , ,0.198,0.121,-108.105
 12:41:28.157,eb:33:2e:f9:57:b5, 2015-01-01 00:27:35.620,-0.003,0.003,0.999,0.061,0.183,0, , , , , , ,0.198,0.121,-108.105
 12:41:28.157,eb:33:2e:f9:57:b5, 2015-01-01 00:27:35.620,-0.003,0.004,0.999,0.061,0.183,0, , , , , , ,0.198,0.121,-108.105
 12:41:28.157,eb:33:2e:f9:57:b5, 2015-01-01 00:27:35.620,-0.002,0.003,0.999,0.061,0.122,0, , , , , , ,0.198,0.121,-108.105
 12:41:28.157,eb:33:2e:f9:57:b5, 2015-01-01 00:27:35.620,-0.002,0.003,0.999,0.061,0.244,0, , , , , , ,0.198,0.121,-108.105
 12:41:28.157,eb:33:2e:f9:57:b5, 2015-01-01 00:27:35.620,-0.003,0.004,1,0.061,0.183,0, , , , , , ,0.198,0.121,-108.105
 12:41:28.157,eb:33:2e:f9:57:b5, 2015-01-01 00:27:35.620,-0.002,0.004,0.999,0.061,0.061,0, , , , , , ,0.198,0.121,-108.105
 12:41:28.157,eb:33:2e:f9:57:b5, 2015-01-01 00:27:35.620,-0.003,0.004,0.999,0.061,0.061,0, , , , , , ,0.198,0.121,-108.105
 12:41:28.157,eb:33:2e:f9:57:b5, 2015-01-01 00:27:35.620,-0.002,0.003,0.999,0.122,0.061,0, , , , , , ,0.198,0.121,-108.105
 12:41:28.177,eb:33:2e:f9:57:b5, 2015-01-01 00:27:35.620,-0.003,0.003,0.999,0.122,0.061,0, , , , , , ,0.198,0.121,-108.105
 12:41:28.177,eb:33:2e:f9:57:b5, 2015-01-01 00:27:35.620,-0.003,0.003,0.999,0.122,0.061,0, , , , , , ,0.198,0.121,-108.105
 12:41:28.177,eb:33:2e:f9:57:b5, 2015-01-01 00:27:35.620,-0.003,0.003,0.999,0.122,0.122,0.061, , , , , , ,0.198,0.121,-108.105
 12:41:28.177,eb:33:2e:f9:57:b5, 2015-01-01 00:27:35.620,-0.003,0.004,0.999,0.122,0.122,0.061, , , , , , ,0.198,0.121,-108.105
 12:41:28.177,eb:33:2e:f9:57:b5, 2015-01-01 00:27:35.620,-0.003,0.003,0.999,0.183,0.122,0.061, , , , , , ,0.198,0.121,-108.105
 12:41:28.177,eb:33:2e:f9:57:b5, 2015-01-01 00:27:35.620,-0.004,0.004,0.999,0.122,0.061,0, , , , , , ,0.198,0.121,-108.105
 12:41:28.177,eb:33:2e:f9:57:b5, 2015-01-01 00:27:35.620,-0.003,0.004,0.999,0.061,0.061,0, , , , , , ,0.198,0.121,-108.105
 12:41:28.177,eb:33:2e:f9:57:b5, 2015-01-01 00:27:35.620,-0.002,0.004,0.999,0.122,0.061,0.061, , , , , , ,0.198,0.121,-108.105
 12:41:28.220,eb:33:2e:f9:57:b5, 2015-01-01 00:27:35.620,-0.002,0.004,1,0.061,0.061,0, , , , , , ,0.198,0.121,-108.105
 12:41:28.220,eb:33:2e:f9:57:b5, 2015-01-01 00:27:35.620,-0.003,0.004,0.999,0.061,0.061,0, , , , , , ,0.198,0.121,-108.105
 12:41:28.221,eb:33:2e:f9:57:b5, 2015-01-01 00:27:35.620,-0.004,0.004,0.998,0.061,0.061,0, , , , , , ,0.198,0.121,-108.105
 12:41:28.221,eb:33:2e:f9:57:b5, 2015-01-01 00:27:35.620,-0.002,0.004,0.998,0.061,0.061,0, , , , , , ,0.198,0.121,-108.105
 12:41:28.221,eb:33:2e:f9:57:b5, 2015-01-01 00:27:35.620,-0.003,0.004,0.999,0.061,0.061,0, , , , , , ,0.198,0.121,-108.105
 12:41:28.221,eb:33:2e:f9:57:b5, 2015-01-01 00:27:35.620,-0.003,0.004,0.998,0,0.122,0, , , , , , ,0.198,0.121,-108.105
 12:41:28.221,eb:33:2e:f9:57:b5, 2015-01-01 00:27:35.620,-0.003,0.004,0.999,0.061,0.061,0, , , , , , ,0.198,0.121,-108.105
 12:41:28.221,eb:33:2e:f9:57:b5, 2015-01-01 00:27:35.620,-0.002,0.004,0.999,0,0.122,0, , , , , , ,0.198,0.121,-108.105
 12:41:28.265,eb:33:2e:f9:57:b5, 2015-01-01 00:27:35.620,-0.002,0.004,0.999,0,0.183,0, , , , , , ,0.198,0.126,-108.105
 12:41:28.265,eb:33:2e:f9:57:b5, 2015-01-01 00:27:35.620,-0.003,0.003,1,0,0.183,0, , , , , , ,0.198,0.126,-108.105
 12:41:28.265,eb:33:2e:f9:57:b5, 2015-01-01 00:27:35.620,-0.003,0.004,1,0,0.183,0, , , , , , ,0.198,0.126,-108.105
 12:41:28.265,eb:33:2e:f9:57:b5, 2015-01-01 00:27:35.620,-0.003,0.004,1,0,0.183,0, , , , , , ,0.198,0.126,-108.105
 12:41:28.265,eb:33:2e:f9:57:b5, 2015-01-01 00:27:35.620,-0.003,0.003,0.999,0,0.183,0, , , , , , ,0.198,0.126,-108.1
 12:41:28.265,eb:33:2e:f9:57:b5, 2015-01-01 00:27:35.620,-0.003,0.004,0.999,0.061,0.183,-0.061, , , , , , ,0.198,0.126,-108.1
 12:41:28.265,eb:33:2e:f9:57:b5, 2015-01-01 00:27:35.620,-0.003,0.004,0.998,0,0.183,0, , , , , , ,0.198,0.126,-108.1
 12:41:28.265,eb:33:2e:f9:57:b5, 2015-01-01 00:27:35.620,-0.002,0.004,0.999,0,0.183,0, , , , , , ,0.198,0.126,-108.1
 12:41:28.311,eb:33:2e:f9:57:b5, 2015-01-01 00:27:35.620,-0.002,0.004,0.999,0.061,0.183,0, , , , , , ,0.198,0.126,-108.1
 12:41:28.311,eb:33:2e:f9:57:b5, 2015-01-01 00:27:35.620,-0.003,0.004,0.999,0,0.183,0, , , , , , ,0.198,0.126,-108.1
 12:41:28.311,eb:33:2e:f9:57:b5, 2015-01-01 00:27:35.620,-0.003,0.003,0.999,0,0.183,0, , , , , , ,0.198,0.126,-108.1
 12:41:28.311,eb:33:2e:f9:57:b5, 2015-01-01 00:27:35.620,-0.003,0.003,0.999,0,0.122,-0.061, , , , , , ,0.198,0.126,-108.1
 12:41:28.311,eb:33:2e:f9:57:b5, 2015-01-01 00:27:35.620,-0.003,0.004,0.999,0,0.122,0, , , , , , ,0.198,0.126,-108.1
 12:41:28.311,eb:33:2e:f9:57:b5, 2015-01-01 00:27:35.620,-0.002,0.004,1,0.061,0.183,0, , , , , , ,0.198,0.126,-108.1
 12:41:28.311,eb:33:2e:f9:57:b5, 2015-01-01 00:27:35.620,-0.003,0.004,0.999,0,0.183,0, , , , , , ,0.198,0.126,-108.1
 12:41:28.311,eb:33:2e:f9:57:b5, 2015-01-01 00:27:35.620,-0.003,0.005,0.999,0,0.122,0, , , , , , ,0.198,0.126,-108.1
 12:41:28.379,eb:33:2e:f9:57:b5, 2015-01-01 00:27:35.620,-0.003,0.004,0.999,-0.061,0.122,-0.061, , , , , , ,0.198,0.126,-108.1
 12:41:28.379,eb:33:2e:f9:57:b5, 2015-01-01 00:27:35.620,-0.003,0.004,0.998,0,0.122,-0.061, , , , , , ,0.198,0.126,-108.1
 12:41:28.379,eb:33:2e:f9:57:b5, 2015-01-01 00:27:35.620,-0.003,0.003,0.998,-0.061,0.122,-0.061, , , , , , ,0.198,0.126,-108.1
 12:41:28.379,eb:33:2e:f9:57:b5, 2015-01-01 00:27:35.620,-0.002,0.003,0.998,-0.061,0.183,-0.061, , , , , , ,0.198,0.126,-108.1
 12:41:28.379,eb:33:2e:f9:57:b5, 2015-01-01 00:27:35.620,-0.004,0.004,1,-0.061,0.244,0, , , , , , ,0.198,0.126,-108.1
 12:41:28.379,eb:33:2e:f9:57:b5, 2015-01-01 00:27:35.620,-0.004,0.003,0.999,-0.061,0.183,0, , , , , , ,0.198,0.126,-108.1
 12:41:28.379,eb:33:2e:f9:57:b5, 2015-01-01 00:27:35.620,-0.003,0.004,0.999,0,0.122,0, , , , , , ,0.198,0.126,-108.1
 12:41:28.379,eb:33:2e:f9:57:b5, 2015-01-01 00:27:35.620,-0.003,0.004,0.999,0,0.183,-0.061, , , , , , ,0.198,0.126,-108.1
 12:41:28.381,eb:33:2e:f9:57:b5, 2015-01-01 00:27:35.620,-0.003,0.003,0.999,0,0.061,0, , , , , , ,0.198,0.126,-108.1
 12:41:28.381,eb:33:2e:f9:57:b5, 2015-01-01 00:27:35.620,-0.003,0.004,1,0,0.061,-0.061, , , , , , ,0.198,0.126,-108.1
 12:41:28.381,eb:33:2e:f9:57:b5, 2015-01-01 00:27:35.620,-0.003,0.003,0.999,0,0.061,0, , , , , , ,0.198,0.126,-108.1
 12:41:28.381,eb:33:2e:f9:57:b5, 2015-01-01 00:27:35.620,-0.004,0.003,1,0,0,0, , , , , , ,0.198,0.126,-108.1
 12:41:28.381,eb:33:2e:f9:57:b5, 2015-01-01 00:27:35.620,-0.003,0.004,1,0,0,-0.061, , , , , , ,0.203,0.126,-108.1
 12:41:28.381,eb:33:2e:f9:57:b5, 2015-01-01 00:27:35.620,-0.003,0.003,0.999,0,0,0, , , , , , ,0.203,0.126,-108.1
 12:41:28.382,eb:33:2e:f9:57:b5, 2015-01-01 00:27:35.620,-0.003,0.004,0.999,0,0,-0.061, , , , , , ,0.203,0.126,-108.1
 12:41:28.382,eb:33:2e:f9:57:b5, 2015-01-01 00:27:35.620,-0.003,0.004,0.999,-0.061,0,-0.061, , , , , , ,0.203,0.126,-108.1
 12:41:28.423,eb:33:2e:f9:57:b5, 2015-01-01 00:27:35.620,-0.002,0.004,0.999,0,0,0, , , , , , ,0.203,0.126,-108.1
 12:41:28.423,eb:33:2e:f9:57:b5, 2015-01-01 00:27:35.620,-0.003,0.003,1,0,0,0, , , , , , ,0.203,0.126,-108.1
 12:41:28.423,eb:33:2e:f9:57:b5, 2015-01-01 00:27:35.620,-0.005,0.003,1,0,0,0, , , , , , ,0.203,0.126,-108.1
 12:41:28.423,eb:33:2e:f9:57:b5, 2015-01-01 00:27:35.620,-0.003,0.003,0.999,0,-0.061,0, , , , , , ,0.203,0.126,-108.1
 12:41:28.423,eb:33:2e:f9:57:b5, 2015-01-01 00:27:35.620,-0.003,0.004,1,0,-0.061,0, , , , , , ,0.203,0.126,-108.1
 12:41:28.423,eb:33:2e:f9:57:b5, 2015-01-01 00:27:35.620,-0.004,0.004,0.999,0,-0.183,0, , , , , , ,0.203,0.126,-108.1
 12:41:28.423,eb:33:2e:f9:57:b5, 2015-01-01 00:27:35.620,-0.003,0.003,1,0,-0.183,0, , , , , , ,0.203,0.126,-108.1
 12:41:28.423,eb:33:2e:f9:57:b5, 2015-01-01 00:27:35.620,-0.001,0.004,0.999,0,-0.061,0, , , , , , ,0.203,0.126,-108.1
 12:41:28.468,eb:33:2e:f9:57:b5, 2015-01-01 00:27:35.620,-0.001,0.004,1,0,0,0, , , , , , ,0.203,0.126,-108.1
 12:41:28.468,eb:33:2e:f9:57:b5, 2015-01-01 00:27:35.620,-0.003,0.004,1,0,0,0, , , , , , ,0.203,0.126,-108.1
 12:41:28.468,eb:33:2e:f9:57:b5, 2015-01-01 00:27:35.620,-0.001,0.004,0.999,0,0,0, , , , , , ,0.203,0.126,-108.1
 12:41:28.468,eb:33:2e:f9:57:b5, 2015-01-01 00:27:35.620,-0.006,0.004,1,0,0.061,0, , , , , , ,0.203,0.126,-108.1
 12:41:28.468,eb:33:2e:f9:57:b5, 2015-01-01 00:27:35.620,-0.007,0.003,0.997,0,-0.122,0, , , , , , ,0.203,0.126,-108.1
 12:41:28.468,eb:33:2e:f9:57:b5, 2015-01-01 00:27:35.620,-0.002,0.004,0.996,-0.061,-0.366,0, , , , , , ,0.203,0.126,-108.1
 12:41:28.468,eb:33:2e:f9:57:b5, 2015-01-01 00:27:35.620,0.003,0.005,1,-0.061,-0.427,0, , , , , , ,0.203,0.126,-108.1
 12:41:28.468,eb:33:2e:f9:57:b5, 2015-01-01 00:27:35.620,-0.004,0.003,1.002,0,0,0, , , , , , ,0.203,0.126,-108.1
 12:41:28.514,eb:33:2e:f9:57:b5, 2015-01-01 00:27:36.000,-0.007,0.004,0.999,0,0,0, , , , , , ,0.203,0.126,-108.1
 12:41:28.514,eb:33:2e:f9:57:b5, 2015-01-01 00:27:36.000,-0.003,0.005,0.996,-0.061,-0.305,0, , , , , , ,0.203,0.126,-108.1
 12:41:28.514,eb:33:2e:f9:57:b5, 2015-01-01 00:27:36.000,-0.002,0.004,0.998,-0.061,-0.305,-0.061, , , , , , ,0.203,0.126,-108.1
 12:41:28.514,eb:33:2e:f9:57:b5, 2015-01-01 00:27:36.000,-0.007,0.004,0.998,-0.061,-0.305,-0.122, , , , , , ,0.203,0.126,-108.1
 12:41:28.514,eb:33:2e:f9:57:b5, 2015-01-01 00:27:36.000,0,0.004,0.997,-0.061,-0.549,-0.183, , , , , , ,0.203,0.132,-108.1
 12:41:28.514,eb:33:2e:f9:57:b5, 2015-01-01 00:27:36.000,-0.002,0.005,1,-0.183,-0.366,-0.244, , , , , , ,0.203,0.132,-108.1
 12:41:28.514,eb:33:2e:f9:57:b5, 2015-01-01 00:27:36.000,-0.005,0.003,1,-0.183,-0.244,-0.244, , , , , , ,0.203,0.132,-108.1
 12:41:28.514,eb:33:2e:f9:57:b5, 2015-01-01 00:27:36.000,-0.001,0.006,0.996,-0.244,-0.549,-0.244, , , , , , ,0.203,0.132,-108.1
 12:41:28.580,eb:33:2e:f9:57:b5, 2015-01-01 00:27:36.000,-0.002,0.004,1,-0.305,-0.366,-0.244, , , , , , ,0.203,0.132,-108.094
 12:41:28.580,eb:33:2e:f9:57:b5, 2015-01-01 00:27:36.000,-0.004,0.002,1,-0.305,-0.305,-0.305, , , , , , ,0.203,0.132,-108.094
 12:41:28.580,eb:33:2e:f9:57:b5, 2015-01-01 00:27:36.000,-0.001,0.004,0.999,-0.244,-0.427,-0.305, , , , , , ,0.203,0.132,-108.094
 12:41:28.580,eb:33:2e:f9:57:b5, 2015-01-01 00:27:36.000,-0.003,0.003,1.001,-0.183,-0.366,-0.305, , , , , , ,0.203,0.132,-108.094
 12:41:28.580,eb:33:2e:f9:57:b5, 2015-01-01 00:27:36.000,-0.004,0.004,0.998,-0.183,-0.366,-0.244, , , , , , ,0.203,0.132,-108.094
 12:41:28.580,eb:33:2e:f9:57:b5, 2015-01-01 00:27:36.000,0,0.003,0.999,-0.244,-0.488,-0.244, , , , , , ,0.203,0.132,-108.094
 12:41:28.580,eb:33:2e:f9:57:b5, 2015-01-01 00:27:36.000,-0.001,0.002,1.002,-0.061,-0.244,-0.183, , , , , , ,0.203,0.132,-108.094
 12:41:28.580,eb:33:2e:f9:57:b5, 2015-01-01 00:27:36.000,-0.001,0.001,1,0,-0.183,-0.183, , , , , , ,0.203,0.132,-108.094
 12:41:28.580,eb:33:2e:f9:57:b5, 2015-01-01 00:27:36.000,-0.001,0.004,1,0.061,-0.061,-0.183, , , , , , ,0.203,0.132,-108.094
 12:41:28.580,eb:33:2e:f9:57:b5, 2015-01-01 00:27:36.000,-0.001,0.002,1,0,0.061,-0.122, , , , , , ,0.203,0.132,-108.094
 12:41:28.580,eb:33:2e:f9:57:b5, 2015-01-01 00:27:36.000,-0.004,0.002,1,0.122,0.122,-0.061, , , , , , ,0.203,0.132,-108.094
 12:41:28.580,eb:33:2e:f9:57:b5, 2015-01-01 00:27:36.000,0,0.003,0.999,0.061,0,0, , , , , , ,0.203,0.132,-108.094
 12:41:28.580,eb:33:2e:f9:57:b5, 2015-01-01 00:27:36.000,-0.001,0.004,1,0.122,0.122,-0.061, , , , , , ,0.203,0.132,-108.094
 12:41:28.580,eb:33:2e:f9:57:b5, 2015-01-01 00:27:36.000,-0.002,0.004,1,0.122,0.183,-0.061, , , , , , ,0.203,0.132,-108.094
 12:41:28.580,eb:33:2e:f9:57:b5, 2015-01-01 00:27:36.000,-0.003,0.004,0.999,0.061,0.244,-0.061, , , , , , ,0.203,0.132,-108.094
 12:41:28.582,eb:33:2e:f9:57:b5, 2015-01-01 00:27:36.000,-0.003,0.003,0.998,0,0.244,-0.061, , , , , , ,0.203,0.132,-108.094
 12:41:28.626,eb:33:2e:f9:57:b5, 2015-01-01 00:27:36.000,-0.002,0.004,0.998,-0.061,0.305,-0.061, , , , , , ,0.203,0.132,-108.094
 12:41:28.626,eb:33:2e:f9:57:b5, 2015-01-01 00:27:36.000,-0.002,0.003,0.999,0,0.366,-0.061, , , , , , ,0.203,0.132,-108.094
 12:41:28.626,eb:33:2e:f9:57:b5, 2015-01-01 00:27:36.000,-0.002,0.003,1,0,0.366,0, , , , , , ,0.203,0.132,-108.094
 12:41:28.626,eb:33:2e:f9:57:b5, 2015-01-01 00:27:36.000,-0.003,0.004,0.999,0,0.305,-0.061, , , , , , ,0.203,0.132,-108.094
 12:41:28.626,eb:33:2e:f9:57:b5, 2015-01-01 00:27:36.000,-0.003,0.003,0.999,0,0.305,-0.122, , , , , , ,0.203,0.132,-108.094
 12:41:28.626,eb:33:2e:f9:57:b5, 2015-01-01 00:27:36.000,-0.003,0.003,0.998,-0.061,0.244,-0.061, , , , , , ,0.203,0.132,-108.094
 12:41:28.626,eb:33:2e:f9:57:b5, 2015-01-01 00:27:36.000,-0.003,0.002,0.999,0,0.183,-0.061, , , , , , ,0.203,0.132,-108.094
 12:41:28.628,eb:33:2e:f9:57:b5, 2015-01-01 00:27:36.000,-0.003,0.003,0.999,0,0.122,-0.061, , , , , , ,0.203,0.132,-108.094
 12:41:28.671,eb:33:2e:f9:57:b5, 2015-01-01 00:27:36.000,-0.002,0.003,0.999,0,0.183,-0.061, , , , , , ,0.203,0.132,-108.094
 12:41:28.671,eb:33:2e:f9:57:b5, 2015-01-01 00:27:36.000,-0.002,0.003,1,0,0.183,-0.122, , , , , , ,0.203,0.132,-108.094
 12:41:28.671,eb:33:2e:f9:57:b5, 2015-01-01 00:27:36.000,-0.002,0.003,0.999,0,0.244,-0.061, , , , , , ,0.203,0.132,-108.094
 12:41:28.671,eb:33:2e:f9:57:b5, 2015-01-01 00:27:36.000,-0.001,0.004,0.999,0,0.244,-0.061, , , , , , ,0.203,0.132,-108.094
 12:41:28.671,eb:33:2e:f9:57:b5, 2015-01-01 00:27:36.000,-0.001,0.003,1,0,0.305,-0.122, , , , , , ,0.203,0.132,-108.094
 12:41:28.671,eb:33:2e:f9:57:b5, 2015-01-01 00:27:36.000,-0.002,0.003,1,0,0.427,-0.061, , , , , , ,0.203,0.132,-108.094
 12:41:28.671,eb:33:2e:f9:57:b5, 2015-01-01 00:27:36.000,-0.002,0.002,1,0,0.427,0, , , , , , ,0.203,0.132,-108.094
 12:41:28.671,eb:33:2e:f9:57:b5, 2015-01-01 00:27:36.000,-0.003,0.003,0.999,0,0.427,-0.061, , , , , , ,0.203,0.132,-108.094
 12:41:28.717,eb:33:2e:f9:57:b5, 2015-01-01 00:27:36.000,-0.002,0.003,0.999,0,0.488,-0.061, , , , , , ,0.203,0.132,-108.094
 12:41:28.717,eb:33:2e:f9:57:b5, 2015-01-01 00:27:36.000,-0.003,0.001,1,0,0.488,-0.061, , , , , , ,0.203,0.132,-108.094
 12:41:28.717,eb:33:2e:f9:57:b5, 2015-01-01 00:27:36.000,-0.003,0.002,1,0.061,0.488,-0.061, , , , , , ,0.203,0.132,-108.094
 12:41:28.717,eb:33:2e:f9:57:b5, 2015-01-01 00:27:36.000,-0.004,0.002,0.999,0.122,0.488,0, , , , , , ,0.203,0.132,-108.094
 12:41:28.717,eb:33:2e:f9:57:b5, 2015-01-01 00:27:36.000,-0.005,0.002,0.998,0.061,0.427,0, , , , , , ,0.203,0.132,-108.094
 12:41:28.717,eb:33:2e:f9:57:b5, 2015-01-01 00:27:36.000,-0.008,0.002,0.998,0.061,0.244,0, , , , , , ,0.203,0.132,-108.094
 12:41:28.717,eb:33:2e:f9:57:b5, 2015-01-01 00:27:36.000,0,0.001,0.996,0.061,0.061,0, , , , , , ,0.203,0.132,-108.094
 12:41:28.717,eb:33:2e:f9:57:b5, 2015-01-01 00:27:36.000,0,0.004,1.001,0,0.305,0, , , , , , ,0.203,0.132,-108.094
 12:41:28.739,eb:33:2e:f9:57:b5, 2015-01-01 00:27:36.000,-0.003,0.003,1.001,0.061,0.427,0, , , , , , ,0.203,0.132,-108.094
 12:41:28.739,eb:33:2e:f9:57:b5, 2015-01-01 00:27:36.000,-0.011,0.003,0.999,0.122,0.427,0, , , , , , ,0.203,0.132,-108.094
 12:41:28.739,eb:33:2e:f9:57:b5, 2015-01-01 00:27:36.000,0,0.002,0.995,0.122,0.061,0, , , , , , ,0.203,0.132,-108.094
 12:41:28.739,eb:33:2e:f9:57:b5, 2015-01-01 00:27:36.000,-0.001,0.004,1.001,0.061,0.244,0, , , , , , ,0.203,0.132,-108.094
 12:41:28.739,eb:33:2e:f9:57:b5, 2015-01-01 00:27:36.000,-0.003,0.002,1.001,0.122,0.366,-0.061, , , , , , ,0.203,0.132,-108.094
 12:41:28.739,eb:33:2e:f9:57:b5, 2015-01-01 00:27:36.000,-0.008,0.003,0.999,0.061,0.366,0, , , , , , ,0.203,0.132,-108.094
 12:41:28.739,eb:33:2e:f9:57:b5, 2015-01-01 00:27:36.000,-0.001,0.003,0.996,0.061,0.122,0, , , , , , ,0.203,0.132,-108.094
 12:41:28.739,eb:33:2e:f9:57:b5, 2015-01-01 00:27:36.000,-0.001,0.004,1,0,0.244,0, , , , , , ,0.203,0.132,-108.094
 12:41:28.810,eb:33:2e:f9:57:b5, 2015-01-01 00:27:36.000,-0.003,0.002,1,0.061,0.366,0, , , , , , ,0.203,0.132,-108.094
 12:41:28.810,eb:33:2e:f9:57:b5, 2015-01-01 00:27:36.000,-0.008,0.003,0.999,0.061,0.366,0, , , , , , ,0.203,0.132,-108.094
 12:41:28.810,eb:33:2e:f9:57:b5, 2015-01-01 00:27:36.000,-0.001,0.003,0.996,0,0.183,0, , , , , , ,0.203,0.132,-108.094
 12:41:28.810,eb:33:2e:f9:57:b5, 2015-01-01 00:27:36.000,-0.001,0.005,1,0,0.244,-0.061, , , , , , ,0.203,0.132,-108.094
 12:41:28.810,eb:33:2e:f9:57:b5, 2015-01-01 00:27:36.000,-0.003,0.003,1,0,0.305,-0.061, , , , , , ,0.203,0.132,-108.094
 12:41:28.810,eb:33:2e:f9:57:b5, 2015-01-01 00:27:36.000,-0.005,0.003,0.999,0,0.366,-0.061, , , , , , ,0.203,0.132,-108.094
 12:41:28.810,eb:33:2e:f9:57:b5, 2015-01-01 00:27:36.000,-0.004,0.002,0.998,-0.061,0.183,-0.061, , , , , , ,0.203,0.132,-108.094
 12:41:28.810,eb:33:2e:f9:57:b5, 2015-01-01 00:27:36.000,-0.001,0.003,0.999,0,0.122,-0.061, , , , , , ,0.203,0.132,-108.094
 12:41:28.828,eb:33:2e:f9:57:b5, 2015-01-01 00:27:36.290,-0.002,0.002,1,0,0.244,0, , , , , , ,0.203,0.132,-108.094
 12:41:28.828,eb:33:2e:f9:57:b5, 2015-01-01 00:27:36.290,-0.005,0.003,0.999,0,0.305,-0.061, , , , , , ,0.203,0.132,-108.094
 12:41:28.828,eb:33:2e:f9:57:b5, 2015-01-01 00:27:36.290,-0.005,0.002,0.998,-0.061,0.183,-0.061, , , , , , ,0.203,0.132,-108.094
 12:41:28.828,eb:33:2e:f9:57:b5, 2015-01-01 00:27:36.290,-0.002,0.003,0.999,0,0.183,0, , , , , , ,0.203,0.132,-108.094
 12:41:28.828,eb:33:2e:f9:57:b5, 2015-01-01 00:27:36.290,-0.003,0.002,1,0,0.244,0, , , , , , ,0.203,0.132,-108.094
 12:41:28.829,eb:33:2e:f9:57:b5, 2015-01-01 00:27:36.290,-0.004,0.002,1,0,0.244,0, , , , , , ,0.203,0.132,-108.094
 12:41:28.829,eb:33:2e:f9:57:b5, 2015-01-01 00:27:36.290,-0.003,0.003,0.999,-0.061,0.183,0, , , , , , ,0.203,0.132,-108.094
 12:41:28.829,eb:33:2e:f9:57:b5, 2015-01-01 00:27:36.290,-0.004,0.003,0.999,0,0.183,0, , , , , , ,0.203,0.132,-108.094
 12:41:28.897,eb:33:2e:f9:57:b5, 2015-01-01 00:27:36.290,-0.005,0.003,0.999,-0.061,0.122,-0.061, , , , , , ,0.203,0.137,-108.094
 12:41:28.897,eb:33:2e:f9:57:b5, 2015-01-01 00:27:36.290,-0.003,0.004,0.999,0,0,-0.061, , , , , , ,0.203,0.137,-108.094
 12:41:28.897,eb:33:2e:f9:57:b5, 2015-01-01 00:27:36.290,-0.005,0.002,0.999,-0.061,0.122,-0.122, , , , , , ,0.203,0.137,-108.094
 12:41:28.897,eb:33:2e:f9:57:b5, 2015-01-01 00:27:36.290,-0.002,0.003,0.998,-0.061,0.061,-0.061, , , , , , ,0.203,0.137,-108.094
 12:41:28.897,eb:33:2e:f9:57:b5, 2015-01-01 00:27:36.290,-0.004,0.004,1,-0.061,0.122,-0.061, , , , , , ,0.203,0.137,-108.094
 12:41:28.897,eb:33:2e:f9:57:b5, 2015-01-01 00:27:36.290,-0.004,0.002,0.999,0,0.061,-0.061, , , , , , ,0.203,0.137,-108.094
 12:41:28.897,eb:33:2e:f9:57:b5, 2015-01-01 00:27:36.290,-0.003,0.002,1,0,0.122,-0.061, , , , , , ,0.203,0.137,-108.094
 12:41:28.897,eb:33:2e:f9:57:b5, 2015-01-01 00:27:36.290,-0.004,0.002,1,0,0.122,0, , , , , , ,0.203,0.137,-108.094
 12:41:28.919,eb:33:2e:f9:57:b5, 2015-01-01 00:27:36.290,-0.005,0.002,0.999,0,0.061,0, , , , , , ,0.203,0.137,-108.094
 12:41:28.919,eb:33:2e:f9:57:b5, 2015-01-01 00:27:36.290,-0.003,0.003,0.999,0,0,0, , , , , , ,0.203,0.137,-108.094
 12:41:28.919,eb:33:2e:f9:57:b5, 2015-01-01 00:27:36.290,-0.003,0.001,1,0.061,0.061,0, , , , , , ,0.203,0.137,-108.094
 12:41:28.919,eb:33:2e:f9:57:b5, 2015-01-01 00:27:36.290,-0.004,0.001,1,0.122,0.122,0.061, , , , , , ,0.203,0.137,-108.094
 12:41:28.919,eb:33:2e:f9:57:b5, 2015-01-01 00:27:36.290,-0.004,0.001,1,0.244,0.061,0.061, , , , , , ,0.203,0.137,-108.094
 12:41:28.919,eb:33:2e:f9:57:b5, 2015-01-01 00:27:36.290,-0.003,0.001,0.999,0.305,0.061,0.122, , , , , , ,0.203,0.137,-108.094
 12:41:28.919,eb:33:2e:f9:57:b5, 2015-01-01 00:27:36.290,-0.005,0.003,0.999,0.305,0,0.061, , , , , , ,0.203,0.137,-108.094
 12:41:28.919,eb:33:2e:f9:57:b5, 2015-01-01 00:27:36.290,-0.005,0.002,0.998,0.244,0,0.061, , , , , , ,0.203,0.137,-108.094
 12:41:28.942,eb:33:2e:f9:57:b5, 2015-01-01 00:27:36.290,-0.004,0.003,0.999,0.183,-0.061,0.122, , , , , , ,0.198,0.137,-108.094
 12:41:28.942,eb:33:2e:f9:57:b5, 2015-01-01 00:27:36.290,-0.004,0.003,0.999,0.244,-0.061,0.061, , , , , , ,0.198,0.137,-108.094
 12:41:28.942,eb:33:2e:f9:57:b5, 2015-01-01 00:27:36.290,-0.005,0.004,1,0.183,-0.061,0.061, , , , , , ,0.198,0.137,-108.094
 12:41:28.942,eb:33:2e:f9:57:b5, 2015-01-01 00:27:36.290,-0.003,0.003,0.998,0.183,-0.061,0, , , , , , ,0.198,0.137,-108.094
 12:41:28.942,eb:33:2e:f9:57:b5, 2015-01-01 00:27:36.290,-0.004,0.003,0.999,0.122,0,0.061, , , , , , ,0.198,0.137,-108.094
 12:41:28.942,eb:33:2e:f9:57:b5, 2015-01-01 00:27:36.290,-0.004,0.004,1,0.122,0,0, , , , , , ,0.198,0.137,-108.094
 12:41:28.942,eb:33:2e:f9:57:b5, 2015-01-01 00:27:36.290,-0.005,0.003,0.999,0.122,0,0, , , , , , ,0.198,0.137,-108.094
 12:41:28.942,eb:33:2e:f9:57:b5, 2015-01-01 00:27:36.290,-0.003,0.003,0.998,0.061,0,0, , , , , , ,0.198,0.137,-108.094
 12:41:29.077,eb:33:2e:f9:57:b5, 2015-01-01 00:27:36.290,-0.003,0.002,0.998,0,-0.061,0, , , , , , ,0.198,0.137,-108.094
 12:41:29.077,eb:33:2e:f9:57:b5, 2015-01-01 00:27:36.290,-0.003,0.002,0.999,0,-0.061,0, , , , , , ,0.198,0.137,-108.094
 12:41:29.077,eb:33:2e:f9:57:b5, 2015-01-01 00:27:36.290,-0.005,0.002,0.999,0,0,0, , , , , , ,0.198,0.137,-108.094
 12:41:29.077,eb:33:2e:f9:57:b5, 2015-01-01 00:27:36.290,-0.004,0.002,0.999,0,-0.061,0, , , , , , ,0.198,0.137,-108.094
 12:41:29.077,eb:33:2e:f9:57:b5, 2015-01-01 00:27:36.290,-0.004,0.002,0.999,0.061,-0.122,0, , , , , , ,0.198,0.137,-108.094
 12:41:29.077,eb:33:2e:f9:57:b5, 2015-01-01 00:27:36.290,-0.004,0.003,0.999,0.061,-0.122,0, , , , , , ,0.198,0.137,-108.094
 12:41:29.077,eb:33:2e:f9:57:b5, 2015-01-01 00:27:36.290,-0.003,0.003,0.999,0.122,-0.122,0, , , , , , ,0.198,0.137,-108.094
 12:41:29.077,eb:33:2e:f9:57:b5, 2015-01-01 00:27:36.290,-0.003,0.003,0.999,0.061,-0.122,0, , , , , , ,0.198,0.137,-108.094
 12:41:29.077,eb:33:2e:f9:57:b5, 2015-01-01 00:27:36.290,-0.003,0.002,1,0.122,-0.122,0, , , , , , ,0.198,0.143,-108.094
 12:41:29.077,eb:33:2e:f9:57:b5, 2015-01-01 00:27:36.290,-0.003,0.003,1,0.122,-0.061,0, , , , , , ,0.198,0.143,-108.094
 12:41:29.077,eb:33:2e:f9:57:b5, 2015-01-01 00:27:36.290,-0.004,0.003,1,0.122,-0.061,0.061, , , , , , ,0.198,0.143,-108.094
 12:41:29.077,eb:33:2e:f9:57:b5, 2015-01-01 00:27:36.290,-0.003,0.003,0.999,0.122,-0.061,0.061, , , , , , ,0.198,0.143,-108.094
 12:41:29.077,eb:33:2e:f9:57:b5, 2015-01-01 00:27:36.290,-0.003,0.002,1,0.122,0,0.061, , , , , , ,0.198,0.143,-108.094
 12:41:29.078,eb:33:2e:f9:57:b5, 2015-01-01 00:27:36.290,-0.004,0.003,0.999,0.061,0,0, , , , , , ,0.198,0.143,-108.094
 12:41:29.078,eb:33:2e:f9:57:b5, 2015-01-01 00:27:36.290,-0.003,0.002,0.999,0.061,-0.061,0.061, , , , , , ,0.198,0.143,-108.094
 12:41:29.078,eb:33:2e:f9:57:b5, 2015-01-01 00:27:36.290,-0.003,0.002,1,0.061,0,0, , , , , , ,0.198,0.143,-108.094
 12:41:29.080,eb:33:2e:f9:57:b5, 2015-01-01 00:27:36.290,-0.004,0.003,0.999,0.122,-0.061,0, , , , , , ,0.198,0.143,-108.094
 12:41:29.080,eb:33:2e:f9:57:b5, 2015-01-01 00:27:36.290,-0.004,0.004,0.999,0.122,-0.061,0, , , , , , ,0.198,0.143,-108.094
 12:41:29.080,eb:33:2e:f9:57:b5, 2015-01-01 00:27:36.290,-0.004,0.003,0.999,0.061,-0.122,0, , , , , , ,0.198,0.143,-108.094
 12:41:29.080,eb:33:2e:f9:57:b5, 2015-01-01 00:27:36.290,-0.004,0.003,0.999,0,-0.122,0, , , , , , ,0.198,0.143,-108.094
 12:41:29.080,eb:33:2e:f9:57:b5, 2015-01-01 00:27:36.290,-0.004,0.003,0.998,0.061,-0.122,0, , , , , , ,0.198,0.143,-108.094
 12:41:29.080,eb:33:2e:f9:57:b5, 2015-01-01 00:27:36.290,-0.004,0.002,0.999,0,-0.122,0, , , , , , ,0.198,0.143,-108.094
 12:41:29.080,eb:33:2e:f9:57:b5, 2015-01-01 00:27:36.290,-0.003,0.003,0.999,0,-0.061,0, , , , , , ,0.198,0.143,-108.094
 12:41:29.080,eb:33:2e:f9:57:b5, 2015-01-01 00:27:36.290,-0.003,0.003,0.999,0,0,0, , , , , , ,0.198,0.143,-108.094
 12:41:29.120,eb:33:2e:f9:57:b5, 2015-01-01 00:27:36.290,-0.003,0.003,1,0,0,0, , , , , , ,0.198,0.143,-108.094
 12:41:29.120,eb:33:2e:f9:57:b5, 2015-01-01 00:27:36.290,-0.003,0.002,0.999,0,0,0, , , , , , ,0.198,0.143,-108.094
 12:41:29.120,eb:33:2e:f9:57:b5, 2015-01-01 00:27:36.290,-0.003,0.003,1,0,0,0, , , , , , ,0.198,0.143,-108.094
 12:41:29.120,eb:33:2e:f9:57:b5, 2015-01-01 00:27:36.290,-0.003,0.002,0.999,0,-0.061,0, , , , , , ,0.198,0.143,-108.094
 12:41:29.120,eb:33:2e:f9:57:b5, 2015-01-01 00:27:36.290,-0.003,0.002,0.999,0.061,0,0, , , , , , ,0.198,0.143,-108.094
 12:41:29.120,eb:33:2e:f9:57:b5, 2015-01-01 00:27:36.290,-0.003,0.003,0.999,0.061,0,0, , , , , , ,0.198,0.143,-108.094
 12:41:29.120,eb:33:2e:f9:57:b5, 2015-01-01 00:27:36.290,-0.004,0.003,0.999,0,0,0, , , , , , ,0.198,0.143,-108.094
 12:41:29.120,eb:33:2e:f9:57:b5, 2015-01-01 00:27:36.290,-0.004,0.003,0.999,0.061,0.061,0.061, , , , , , ,0.198,0.143,-108.094
 12:41:29.143,eb:33:2e:f9:57:b5, 2015-01-01 00:27:36.290,-0.003,0.003,0.999,0.061,0,0, , , , , , ,0.198,0.143,-108.094
 12:41:29.143,eb:33:2e:f9:57:b5, 2015-01-01 00:27:36.290,-0.004,0.002,0.999,0.061,0,0, , , , , , ,0.198,0.143,-108.094
 12:41:29.143,eb:33:2e:f9:57:b5, 2015-01-01 00:27:36.290,-0.003,0.002,0.999,0.122,0,0, , , , , , ,0.198,0.143,-108.094
 12:41:29.143,eb:33:2e:f9:57:b5, 2015-01-01 00:27:36.290,-0.003,0.002,0.999,0.122,0,0, , , , , , ,0.198,0.143,-108.094
 12:41:29.143,eb:33:2e:f9:57:b5, 2015-01-01 00:27:36.290,-0.003,0.004,0.999,0.122,-0.061,0, , , , , , ,0.198,0.143,-108.094
 12:41:29.143,eb:33:2e:f9:57:b5, 2015-01-01 00:27:36.290,-0.004,0.003,0.999,0.122,0,0.061, , , , , , ,0.198,0.143,-108.094
 12:41:29.143,eb:33:2e:f9:57:b5, 2015-01-01 00:27:36.290,-0.003,0.003,0.999,0.122,-0.061,0.061, , , , , , ,0.198,0.143,-108.094
 12:41:29.143,eb:33:2e:f9:57:b5, 2015-01-01 00:27:36.290,-0.004,0.002,0.999,0.061,-0.061,0.061, , , , , , ,0.198,0.143,-108.094
 12:41:29.188,eb:33:2e:f9:57:b5, 2015-01-01 00:27:36.290,-0.003,0.003,0.998,0.061,-0.122,0, , , , , , ,0.198,0.143,-108.094
 12:41:29.188,eb:33:2e:f9:57:b5, 2015-01-01 00:27:36.290,-0.003,0.003,0.999,0.061,-0.122,0, , , , , , ,0.198,0.143,-108.094
 12:41:29.188,eb:33:2e:f9:57:b5, 2015-01-01 00:27:36.290,-0.003,0.003,0.999,0,-0.122,0, , , , , , ,0.198,0.143,-108.094
 12:41:29.188,eb:33:2e:f9:57:b5, 2015-01-01 00:27:36.290,-0.003,0.003,0.999,0,-0.122,0, , , , , , ,0.198,0.143,-108.094
 12:41:29.188,eb:33:2e:f9:57:b5, 2015-01-01 00:27:36.290,-0.004,0.004,0.999,0,-0.061,0, , , , , , ,0.198,0.143,-108.094
 12:41:29.188,eb:33:2e:f9:57:b5, 2015-01-01 00:27:36.290,-0.003,0.003,0.999,0,-0.122,0, , , , , , ,0.198,0.143,-108.094
 12:41:29.188,eb:33:2e:f9:57:b5, 2015-01-01 00:27:36.290,-0.003,0.003,0.999,0,-0.122,0, , , , , , ,0.198,0.143,-108.094
 12:41:29.188,eb:33:2e:f9:57:b5, 2015-01-01 00:27:36.290,-0.002,0.003,1,0.061,-0.122,0, , , , , , ,0.198,0.143,-108.094
 12:41:29.234,eb:33:2e:f9:57:b5, 2015-01-01 00:27:36.690,-0.002,0.003,0.999,0,-0.122,0, , , , , , ,0.198,0.143,-108.094
 12:41:29.234,eb:33:2e:f9:57:b5, 2015-01-01 00:27:36.690,-0.003,0.003,0.999,0,-0.122,0, , , , , , ,0.198,0.143,-108.094
 12:41:29.234,eb:33:2e:f9:57:b5, 2015-01-01 00:27:36.690,-0.004,0.004,0.999,0,-0.061,0, , , , , , ,0.198,0.143,-108.094
 12:41:29.234,eb:33:2e:f9:57:b5, 2015-01-01 00:27:36.690,-0.003,0.002,0.999,0,-0.061,0, , , , , , ,0.198,0.143,-108.094
 12:41:29.234,eb:33:2e:f9:57:b5, 2015-01-01 00:27:36.690,-0.003,0.002,1,0,-0.061,0, , , , , , ,0.198,0.143,-108.094
 12:41:29.234,eb:33:2e:f9:57:b5, 2015-01-01 00:27:36.690,-0.003,0.004,0.999,0,-0.061,0, , , , , , ,0.198,0.143,-108.094
 12:41:29.234,eb:33:2e:f9:57:b5, 2015-01-01 00:27:36.690,-0.004,0.003,0.999,-0.061,-0.061,0, , , , , , ,0.198,0.143,-108.094
 12:41:29.234,eb:33:2e:f9:57:b5, 2015-01-01 00:27:36.690,-0.004,0.002,0.999,-0.061,-0.122,-0.061, , , , , , ,0.198,0.143,-108.094
 12:41:29.300,eb:33:2e:f9:57:b5, 2015-01-01 00:27:36.690,-0.002,0.002,0.999,-0.061,-0.061,-0.061, , , , , , ,0.198,0.148,-108.094
 12:41:29.300,eb:33:2e:f9:57:b5, 2015-01-01 00:27:36.690,-0.004,0.002,1,0,0,-0.061, , , , , , ,0.198,0.148,-108.094
 12:41:29.300,eb:33:2e:f9:57:b5, 2015-01-01 00:27:36.690,-0.004,0.002,0.999,-0.061,-0.122,-0.061, , , , , , ,0.198,0.148,-108.094
 12:41:29.300,eb:33:2e:f9:57:b5, 2015-01-01 00:27:36.690,-0.003,0.003,0.999,-0.061,-0.122,0, , , , , , ,0.198,0.148,-108.094
 12:41:29.300,eb:33:2e:f9:57:b5, 2015-01-01 00:27:36.690,-0.004,0.003,0.999,-0.061,-0.061,-0.061, , , , , , ,0.198,0.148,-108.094
 12:41:29.300,eb:33:2e:f9:57:b5, 2015-01-01 00:27:36.690,-0.003,0.002,0.999,-0.122,-0.122,-0.122, , , , , , ,0.198,0.148,-108.094
 12:41:29.300,eb:33:2e:f9:57:b5, 2015-01-01 00:27:36.690,-0.002,0.003,0.999,-0.061,-0.061,-0.183, , , , , , ,0.198,0.148,-108.094
 12:41:29.300,eb:33:2e:f9:57:b5, 2015-01-01 00:27:36.690,-0.004,0.005,1,-0.122,0,-0.183, , , , , , ,0.198,0.148,-108.094
 12:41:29.323,eb:33:2e:f9:57:b5, 2015-01-01 00:27:36.690,-0.003,0.002,0.998,-0.061,-0.122,-0.183, , , , , , ,0.198,0.148,-108.094
 12:41:29.323,eb:33:2e:f9:57:b5, 2015-01-01 00:27:36.690,-0.002,0.003,0.999,-0.122,-0.122,-0.244, , , , , , ,0.198,0.148,-108.094
 12:41:29.323,eb:33:2e:f9:57:b5, 2015-01-01 00:27:36.690,-0.003,0.004,0.999,-0.244,0,-0.305, , , , , , ,0.198,0.148,-108.094
 12:41:29.323,eb:33:2e:f9:57:b5, 2015-01-01 00:27:36.690,-0.001,0.003,0.998,-0.244,0,-0.244, , , , , , ,0.198,0.148,-108.094
 12:41:29.323,eb:33:2e:f9:57:b5, 2015-01-01 00:27:36.690,-0.003,0.003,0.998,-0.305,0,-0.244, , , , , , ,0.198,0.148,-108.094
 12:41:29.323,eb:33:2e:f9:57:b5, 2015-01-01 00:27:36.690,-0.002,0.003,0.998,-0.305,0,-0.244, , , , , , ,0.198,0.148,-108.094
 12:41:29.323,eb:33:2e:f9:57:b5, 2015-01-01 00:27:36.690,-0.004,0.002,1,-0.366,0.061,-0.305, , , , , , ,0.198,0.148,-108.094
 12:41:29.323,eb:33:2e:f9:57:b5, 2015-01-01 00:27:36.690,-0.001,0.003,0.999,-0.366,0,-0.244, , , , , , ,0.198,0.148,-108.094
 12:41:29.414,eb:33:2e:f9:57:b5, 2015-01-01 00:27:36.690,-0.003,0.001,1,-0.244,0.061,-0.244, , , , , , ,0.198,0.148,-108.094
 12:41:29.414,eb:33:2e:f9:57:b5, 2015-01-01 00:27:36.690,0,0,1,-0.244,0.061,-0.183, , , , , , ,0.198,0.148,-108.094
 12:41:29.414,eb:33:2e:f9:57:b5, 2015-01-01 00:27:36.690,0.001,0,1.002,-0.122,0.305,-0.122, , , , , , ,0.198,0.148,-108.094
 12:41:29.414,eb:33:2e:f9:57:b5, 2015-01-01 00:27:36.690,-0.004,0,1.002,-0.061,0.488,-0.061, , , , , , ,0.198,0.148,-108.094
 12:41:29.414,eb:33:2e:f9:57:b5, 2015-01-01 00:27:36.690,-0.005,0,0.998,0,0.305,0, , , , , , ,0.198,0.148,-108.094
 12:41:29.414,eb:33:2e:f9:57:b5, 2015-01-01 00:27:36.690,-0.001,0.002,0.998,0,0.183,0, , , , , , ,0.198,0.148,-108.094
 12:41:29.414,eb:33:2e:f9:57:b5, 2015-01-01 00:27:36.690,-0.002,0.001,1,0.061,0.305,-0.061, , , , , , ,0.198,0.148,-108.094
 12:41:29.414,eb:33:2e:f9:57:b5, 2015-01-01 00:27:36.690,-0.005,0.001,1,0.122,0.366,0, , , , , , ,0.198,0.148,-108.094
 12:41:29.460,eb:33:2e:f9:57:b5, 2015-01-01 00:27:36.690,-0.007,0.002,0.999,0.061,0.244,0, , , , , , ,0.198,0.148,-108.094
 12:41:29.460,eb:33:2e:f9:57:b5, 2015-01-01 00:27:36.690,-0.003,0.002,0.997,0.061,0,0.061, , , , , , ,0.198,0.148,-108.094
 12:41:29.460,eb:33:2e:f9:57:b5, 2015-01-01 00:27:36.690,-0.003,0.002,0.999,0,0.061,0.061, , , , , , ,0.198,0.148,-108.094
 12:41:29.460,eb:33:2e:f9:57:b5, 2015-01-01 00:27:36.690,-0.004,0.002,0.999,0.061,0.061,0, , , , , , ,0.198,0.148,-108.094
 12:41:29.460,eb:33:2e:f9:57:b5, 2015-01-01 00:27:36.690,-0.004,0.002,0.998,0.061,0,0, , , , , , ,0.198,0.148,-108.094
 12:41:29.460,eb:33:2e:f9:57:b5, 2015-01-01 00:27:36.690,-0.003,0.004,0.998,0,0,0, , , , , , ,0.198,0.148,-108.094
 12:41:29.460,eb:33:2e:f9:57:b5, 2015-01-01 00:27:36.690,-0.003,0.003,0.999,0,0,-0.061, , , , , , ,0.198,0.148,-108.094
 12:41:29.460,eb:33:2e:f9:57:b5, 2015-01-01 00:27:36.690,-0.002,0.002,0.999,0,0,0, , , , , , ,0.198,0.148,-108.094
 12:41:29.463,eb:33:2e:f9:57:b5, 2015-01-01 00:27:36.690,-0.003,0.002,0.999,0,0,0, , , , , , ,0.198,0.148,-108.094
 12:41:29.463,eb:33:2e:f9:57:b5, 2015-01-01 00:27:36.690,-0.003,0.002,1,-0.061,0,-0.061, , , , , , ,0.198,0.148,-108.094
 12:41:29.463,eb:33:2e:f9:57:b5, 2015-01-01 00:27:36.690,-0.003,0.003,1,-0.061,0,0, , , , , , ,0.198,0.148,-108.094
 12:41:29.463,eb:33:2e:f9:57:b5, 2015-01-01 00:27:36.690,-0.002,0.002,0.999,0,0,0, , , , , , ,0.198,0.148,-108.094
 12:41:29.463,eb:33:2e:f9:57:b5, 2015-01-01 00:27:36.690,-0.001,0.002,1,0,0,0, , , , , , ,0.198,0.148,-108.094
 12:41:29.463,eb:33:2e:f9:57:b5, 2015-01-01 00:27:36.690,-0.003,0.002,1,0,0.061,0, , , , , , ,0.198,0.148,-108.094
 12:41:29.463,eb:33:2e:f9:57:b5, 2015-01-01 00:27:36.690,-0.003,0.001,1,0,0.122,0, , , , , , ,0.198,0.148,-108.094
 12:41:29.463,eb:33:2e:f9:57:b5, 2015-01-01 00:27:36.690,-0.003,0.002,0.999,0,0.061,-0.061, , , , , , ,0.198,0.148,-108.094
 12:41:29.465,eb:33:2e:f9:57:b5, 2015-01-01 00:27:36.690,-0.003,0.002,1,0,0.122,0, , , , , , ,0.192,0.148,-108.094
 12:41:29.465,eb:33:2e:f9:57:b5, 2015-01-01 00:27:36.690,-0.003,0.002,0.999,0,0.122,0, , , , , , ,0.192,0.148,-108.094
 12:41:29.465,eb:33:2e:f9:57:b5, 2015-01-01 00:27:36.690,-0.003,0.002,1,0,0.122,0, , , , , , ,0.192,0.148,-108.094
 12:41:29.465,eb:33:2e:f9:57:b5, 2015-01-01 00:27:36.690,-0.003,0.003,0.999,0,0.061,0, , , , , , ,0.192,0.148,-108.094
 12:41:29.465,eb:33:2e:f9:57:b5, 2015-01-01 00:27:36.690,-0.003,0.002,1,0,0.061,0, , , , , , ,0.192,0.148,-108.094
 12:41:29.465,eb:33:2e:f9:57:b5, 2015-01-01 00:27:36.690,-0.003,0.001,0.999,0,0.061,0, , , , , , ,0.192,0.148,-108.094
 12:41:29.465,eb:33:2e:f9:57:b5, 2015-01-01 00:27:36.690,-0.003,0.002,0.999,0.061,0,0, , , , , , ,0.192,0.148,-108.094
 12:41:29.465,eb:33:2e:f9:57:b5, 2015-01-01 00:27:36.690,-0.003,0.002,0.999,0,0,0, , , , , , ,0.192,0.148,-108.094
 12:41:29.503,eb:33:2e:f9:57:b5, 2015-01-01 00:27:36.690,-0.003,0.003,0.999,0,0,0, , , , , , ,0.192,0.148,-108.094
 12:41:29.503,eb:33:2e:f9:57:b5, 2015-01-01 00:27:36.690,-0.002,0.003,1,0.061,0,0, , , , , , ,0.192,0.148,-108.094
 12:41:29.503,eb:33:2e:f9:57:b5, 2015-01-01 00:27:36.690,-0.003,0.002,0.999,0,0.061,0, , , , , , ,0.192,0.148,-108.094
 12:41:29.503,eb:33:2e:f9:57:b5, 2015-01-01 00:27:36.690,-0.003,0.002,0.999,0,0.061,0, , , , , , ,0.192,0.148,-108.094
 12:41:29.503,eb:33:2e:f9:57:b5, 2015-01-01 00:27:36.690,-0.002,0.003,0.998,0,0.061,-0.061, , , , , , ,0.192,0.148,-108.094
 12:41:29.503,eb:33:2e:f9:57:b5, 2015-01-01 00:27:36.690,-0.006,0.005,0.997,-0.061,0.061,-0.122, , , , , , ,0.192,0.148,-108.094
 12:41:29.503,eb:33:2e:f9:57:b5, 2015-01-01 00:27:36.690,-0.001,0.002,0.997,-0.061,0,0, , , , , , ,0.192,0.148,-108.094
 12:41:29.503,eb:33:2e:f9:57:b5, 2015-01-01 00:27:36.690,-0.002,0.001,1,0,0.061,-0.061, , , , , , ,0.192,0.148,-108.094
 12:41:29.549,eb:33:2e:f9:57:b5, 2015-01-01 00:27:36.690,-0.004,0.002,1,0,0.122,-0.061, , , , , , ,0.192,0.148,-108.094
 12:41:29.549,eb:33:2e:f9:57:b5, 2015-01-01 00:27:36.690,-0.003,0.003,0.999,-0.122,0.122,-0.061, , , , , , ,0.192,0.148,-108.094
 12:41:29.549,eb:33:2e:f9:57:b5, 2015-01-01 00:27:36.690,-0.003,0.002,1,-0.122,0.183,-0.061, , , , , , ,0.192,0.148,-108.094
 12:41:29.549,eb:33:2e:f9:57:b5, 2015-01-01 00:27:36.690,-0.001,0.002,0.999,-0.122,0.244,-0.122, , , , , , ,0.192,0.148,-108.094
 12:41:29.549,eb:33:2e:f9:57:b5, 2015-01-01 00:27:36.690,-0.003,0.002,1,-0.061,0.305,-0.183, , , , , , ,0.192,0.148,-108.094
 12:41:29.549,eb:33:2e:f9:57:b5, 2015-01-01 00:27:36.690,-0.003,0.001,0.999,-0.061,0.305,-0.061, , , , , , ,0.192,0.148,-108.094
 12:41:29.549,eb:33:2e:f9:57:b5, 2015-01-01 00:27:36.690,-0.004,0.001,1,-0.061,0.427,-0.061, , , , , , ,0.192,0.148,-108.094
 12:41:29.549,eb:33:2e:f9:57:b5, 2015-01-01 00:27:36.690,-0.005,0,1,-0.061,0.427,-0.061, , , , , , ,0.192,0.148,-108.094
 12:41:29.594,eb:33:2e:f9:57:b5, 2015-01-01 00:27:37.070,-0.005,0.002,1,0,0.366,-0.061, , , , , , ,0.192,0.148,-108.094
 12:41:29.594,eb:33:2e:f9:57:b5, 2015-01-01 00:27:37.070,-0.003,0.001,0.999,0,0.305,0, , , , , , ,0.192,0.148,-108.094
 12:41:29.594,eb:33:2e:f9:57:b5, 2015-01-01 00:27:37.070,-0.005,0.001,1,0,0.305,0, , , , , , ,0.192,0.148,-108.094
 12:41:29.594,eb:33:2e:f9:57:b5, 2015-01-01 00:27:37.070,-0.002,0,0.998,0.061,0.122,0, , , , , , ,0.192,0.148,-108.094
 12:41:29.594,eb:33:2e:f9:57:b5, 2015-01-01 00:27:37.070,0,0.003,1,0.061,0.244,0, , , , , , ,0.192,0.148,-108.094
 12:41:29.594,eb:33:2e:f9:57:b5, 2015-01-01 00:27:37.070,-0.003,0.001,1.002,0.122,0.427,0.061, , , , , , ,0.192,0.148,-108.094
 12:41:29.594,eb:33:2e:f9:57:b5, 2015-01-01 00:27:37.070,-0.007,0.001,1,0.122,0.488,0.061, , , , , , ,0.192,0.148,-108.094
 12:41:29.594,eb:33:2e:f9:57:b5, 2015-01-01 00:27:37.070,-0.008,0.002,0.998,0.061,0.305,0.061, , , , , , ,0.192,0.148,-108.094
 12:41:29.683,eb:33:2e:f9:57:b5, 2015-01-01 00:27:37.070,-0.003,0.002,0.997,0.061,0,0.122, , , , , , ,0.192,0.154,-108.094
 12:41:29.683,eb:33:2e:f9:57:b5, 2015-01-01 00:27:37.070,-0.003,0.002,1,0.122,0.061,0.122, , , , , , ,0.192,0.154,-108.094
 12:41:29.683,eb:33:2e:f9:57:b5, 2015-01-01 00:27:37.070,-0.004,0.001,1,0.183,0.061,0.061, , , , , , ,0.192,0.154,-108.094
 12:41:29.683,eb:33:2e:f9:57:b5, 2015-01-01 00:27:37.070,-0.005,0.001,0.999,0.122,0,0.061, , , , , , ,0.192,0.154,-108.094
 12:41:29.683,eb:33:2e:f9:57:b5, 2015-01-01 00:27:37.070,-0.004,0.002,0.999,0.122,0,0.061, , , , , , ,0.192,0.154,-108.094
 12:41:29.683,eb:33:2e:f9:57:b5, 2015-01-01 00:27:37.070,-0.004,0.002,0.999,0.122,-0.061,0.061, , , , , , ,0.192,0.154,-108.094
 12:41:29.683,eb:33:2e:f9:57:b5, 2015-01-01 00:27:37.070,-0.003,0.002,1,0.061,-0.061,0.061, , , , , , ,0.192,0.154,-108.094
 12:41:29.683,eb:33:2e:f9:57:b5, 2015-01-01 00:27:37.070,-0.003,0.002,0.999,0.122,0,0, , , , , , ,0.192,0.154,-108.094
 12:41:29.683,eb:33:2e:f9:57:b5, 2015-01-01 00:27:37.070,-0.003,0.002,0.999,0.122,0,0.061, , , , , , ,0.192,0.154,-108.094
 12:41:29.684,eb:33:2e:f9:57:b5, 2015-01-01 00:27:37.070,-0.004,0.002,0.999,0.061,0,0, , , , , , ,0.192,0.154,-108.094
 12:41:29.684,eb:33:2e:f9:57:b5, 2015-01-01 00:27:37.070,-0.004,0.001,0.999,0.061,-0.061,0.061, , , , , , ,0.192,0.154,-108.094
 12:41:29.684,eb:33:2e:f9:57:b5, 2015-01-01 00:27:37.070,-0.003,0.002,0.999,0.061,-0.122,0, , , , , , ,0.192,0.154,-108.094
 12:41:29.684,eb:33:2e:f9:57:b5, 2015-01-01 00:27:37.070,-0.003,0.001,0.999,0.061,-0.061,0, , , , , , ,0.192,0.154,-108.094
 12:41:29.684,eb:33:2e:f9:57:b5, 2015-01-01 00:27:37.070,-0.004,0.002,0.999,0.061,0,0, , , , , , ,0.192,0.154,-108.094
 12:41:29.684,eb:33:2e:f9:57:b5, 2015-01-01 00:27:37.070,-0.003,0.002,0.999,0.061,0,0.061, , , , , , ,0.192,0.154,-108.094
 12:41:29.684,eb:33:2e:f9:57:b5, 2015-01-01 00:27:37.070,-0.003,0.002,0.999,0.061,-0.061,0.061, , , , , , ,0.192,0.154,-108.094
 12:41:29.773,eb:33:2e:f9:57:b5, 2015-01-01 00:27:37.070,-0.004,0.002,1,0.061,0,0.061, , , , , , ,0.187,0.154,-108.094
 12:41:29.773,eb:33:2e:f9:57:b5, 2015-01-01 00:27:37.070,-0.003,0.002,1,0.122,0,0.061, , , , , , ,0.187,0.154,-108.094
 12:41:29.773,eb:33:2e:f9:57:b5, 2015-01-01 00:27:37.070,-0.002,0.002,1,0.183,0,0.122, , , , , , ,0.187,0.154,-108.094
 12:41:29.773,eb:33:2e:f9:57:b5, 2015-01-01 00:27:37.070,-0.004,0.001,1,0.122,0.122,0.061, , , , , , ,0.187,0.154,-108.094
 12:41:29.773,eb:33:2e:f9:57:b5, 2015-01-01 00:27:37.070,-0.004,0.001,1,0.122,0.061,0.122, , , , , , ,0.187,0.154,-108.094
 12:41:29.773,eb:33:2e:f9:57:b5, 2015-01-01 00:27:37.070,-0.004,0.002,0.999,0.183,0.061,0.183, , , , , , ,0.187,0.154,-108.094
 12:41:29.773,eb:33:2e:f9:57:b5, 2015-01-01 00:27:37.070,-0.003,0.002,1,0.183,0.061,0.061, , , , , , ,0.187,0.154,-108.094
 12:41:29.773,eb:33:2e:f9:57:b5, 2015-01-01 00:27:37.070,-0.003,0.001,1,0.183,0.061,0.122, , , , , , ,0.187,0.154,-108.094
 12:41:29.798,eb:33:2e:f9:57:b5, 2015-01-01 00:27:37.070,-0.004,0.002,1,0.183,0,0.122, , , , , , ,0.187,0.154,-108.094
 12:41:29.798,eb:33:2e:f9:57:b5, 2015-01-01 00:27:37.070,-0.004,0.002,0.999,0.244,0.061,0.244, , , , , , ,0.187,0.154,-108.094
 12:41:29.798,eb:33:2e:f9:57:b5, 2015-01-01 00:27:37.070,-0.003,0.002,0.999,0.244,0.061,0.183, , , , , , ,0.187,0.154,-108.094
 12:41:29.798,eb:33:2e:f9:57:b5, 2015-01-01 00:27:37.070,-0.003,0.002,0.998,0.244,0,0.122, , , , , , ,0.187,0.154,-108.094
 12:41:29.798,eb:33:2e:f9:57:b5, 2015-01-01 00:27:37.070,-0.003,0.002,1,0.244,0,0.183, , , , , , ,0.187,0.154,-108.094
 12:41:29.798,eb:33:2e:f9:57:b5, 2015-01-01 00:27:37.070,-0.003,0.002,0.999,0.244,0,0.183, , , , , , ,0.187,0.154,-108.094
 12:41:29.798,eb:33:2e:f9:57:b5, 2015-01-01 00:27:37.070,-0.003,0.002,0.999,0.305,0,0.183, , , , , , ,0.187,0.154,-108.094
 12:41:29.798,eb:33:2e:f9:57:b5, 2015-01-01 00:27:37.070,-0.004,0.002,0.999,0.366,0,0.122, , , , , , ,0.187,0.154,-108.094
 12:41:29.800,eb:33:2e:f9:57:b5, 2015-01-01 00:27:37.070,-0.003,0.002,0.999,0.305,0,0.122, , , , , , ,0.187,0.154,-108.094
 12:41:29.800,eb:33:2e:f9:57:b5, 2015-01-01 00:27:37.070,-0.002,0.002,0.999,0.366,0,0.122, , , , , , ,0.187,0.154,-108.094
 12:41:29.800,eb:33:2e:f9:57:b5, 2015-01-01 00:27:37.070,-0.005,0.002,1,0.366,0.061,0.183, , , , , , ,0.187,0.154,-108.094
 12:41:29.800,eb:33:2e:f9:57:b5, 2015-01-01 00:27:37.070,-0.001,0.001,0.997,0.366,-0.061,0.122, , , , , , ,0.187,0.154,-108.094
 12:41:29.800,eb:33:2e:f9:57:b5, 2015-01-01 00:27:37.070,0,0.004,1,0.366,0,0.183, , , , , , ,0.187,0.154,-108.094
 12:41:29.800,eb:33:2e:f9:57:b5, 2015-01-01 00:27:37.070,-0.004,0.003,1,0.305,0.122,0.122, , , , , , ,0.187,0.154,-108.094
 12:41:29.800,eb:33:2e:f9:57:b5, 2015-01-01 00:27:37.070,0,0.003,0.999,0.366,0.061,0.183, , , , , , ,0.187,0.154,-108.094
 12:41:29.800,eb:33:2e:f9:57:b5, 2015-01-01 00:27:37.070,-0.004,0.002,1,0.305,0.305,0.122, , , , , , ,0.187,0.154,-108.094
 12:41:29.841,eb:33:2e:f9:57:b5, 2015-01-01 00:27:37.070,-0.002,0.001,0.998,0.366,0.244,0.183, , , , , , ,0.187,0.154,-108.094
 12:41:29.841,eb:33:2e:f9:57:b5, 2015-01-01 00:27:37.070,-0.002,0.004,1,0.305,0.244,0.122, , , , , , ,0.187,0.154,-108.094
 12:41:29.841,eb:33:2e:f9:57:b5, 2015-01-01 00:27:37.070,-0.007,0.001,1,0.305,0.366,0.122, , , , , , ,0.187,0.154,-108.094
 12:41:29.842,eb:33:2e:f9:57:b5, 2015-01-01 00:27:37.070,-0.001,0.001,0.997,0.305,0.244,0.244, , , , , , ,0.187,0.154,-108.094
 12:41:29.842,eb:33:2e:f9:57:b5, 2015-01-01 00:27:37.070,-0.004,0.004,1,0.305,0.427,0.183, , , , , , ,0.187,0.154,-108.094
 12:41:29.842,eb:33:2e:f9:57:b5, 2015-01-01 00:27:37.070,-0.003,0,0.998,0.366,0.244,0.183, , , , , , ,0.187,0.154,-108.094
 12:41:29.842,eb:33:2e:f9:57:b5, 2015-01-01 00:27:37.070,-0.003,0.004,0.999,0.305,0.183,0.061, , , , , , ,0.187,0.154,-108.094
 12:41:29.842,eb:33:2e:f9:57:b5, 2015-01-01 00:27:37.070,-0.008,0.002,0.999,0.366,0.305,0.122, , , , , , ,0.187,0.154,-108.094
 12:41:29.886,eb:33:2e:f9:57:b5, 2015-01-01 00:27:37.070,0,0.003,0.996,0.305,0.061,0.244, , , , , , ,0.187,0.154,-108.094
 12:41:29.886,eb:33:2e:f9:57:b5, 2015-01-01 00:27:37.070,-0.002,0.003,1.002,0.244,0.305,0.122, , , , , , ,0.187,0.154,-108.094
 12:41:29.886,eb:33:2e:f9:57:b5, 2015-01-01 00:27:37.070,-0.002,0,1,0.366,0.366,0.183, , , , , , ,0.187,0.154,-108.094
 12:41:29.886,eb:33:2e:f9:57:b5, 2015-01-01 00:27:37.070,-0.003,0.005,1,0.305,0.549,0.183, , , , , , ,0.187,0.154,-108.094
 12:41:29.886,eb:33:2e:f9:57:b5, 2015-01-01 00:27:37.070,-0.008,0.002,0.999,0.366,0.61,0.122, , , , , , ,0.187,0.154,-108.094
 12:41:29.886,eb:33:2e:f9:57:b5, 2015-01-01 00:27:37.070,-0.001,0.003,0.997,0.366,0.427,0.183, , , , , , ,0.187,0.154,-108.094
 12:41:29.886,eb:33:2e:f9:57:b5, 2015-01-01 00:27:37.070,-0.003,0.002,1.001,0.305,0.61,0.122, , , , , , ,0.187,0.154,-108.094
 12:41:29.886,eb:33:2e:f9:57:b5, 2015-01-01 00:27:37.070,-0.008,0.001,1,0.427,0.61,0.183, , , , , , ,0.187,0.154,-108.094
 12:41:29.909,eb:33:2e:f9:57:b5, 2015-01-01 00:27:37.405,-0.003,0.002,0.997,0.366,0.366,0.122, , , , , , ,0.187,0.154,-108.094
 12:41:29.909,eb:33:2e:f9:57:b5, 2015-01-01 00:27:37.405,-0.005,0.004,0.999,0.366,0.488,0.122, , , , , , ,0.187,0.154,-108.094
 12:41:29.909,eb:33:2e:f9:57:b5, 2015-01-01 00:27:37.405,-0.005,0.002,0.999,0.305,0.427,0.183, , , , , , ,0.187,0.154,-108.094
 12:41:29.909,eb:33:2e:f9:57:b5, 2015-01-01 00:27:37.405,-0.005,0.003,1,0.305,0.427,0.122, , , , , , ,0.187,0.154,-108.094
 12:41:29.909,eb:33:2e:f9:57:b5, 2015-01-01 00:27:37.405,-0.006,0.003,0.999,0.305,0.305,0.061, , , , , , ,0.187,0.159,-108.094
 12:41:29.909,eb:33:2e:f9:57:b5, 2015-01-01 00:27:37.405,-0.007,0.002,0.998,0.305,0.122,0.122, , , , , , ,0.187,0.159,-108.094
 12:41:29.909,eb:33:2e:f9:57:b5, 2015-01-01 00:27:37.405,-0.005,0.002,0.998,0.305,0,0.061, , , , , , ,0.187,0.159,-108.094
 12:41:29.909,eb:33:2e:f9:57:b5, 2015-01-01 00:27:37.405,-0.005,0.003,0.999,0.244,0,0.061, , , , , , ,0.187,0.159,-108.094
 12:41:29.953,eb:33:2e:f9:57:b5, 2015-01-01 00:27:37.405,-0.005,0.003,0.998,0.244,-0.122,0.061, , , , , , ,0.187,0.159,-108.094
 12:41:29.953,eb:33:2e:f9:57:b5, 2015-01-01 00:27:37.405,-0.005,0.003,0.998,0.183,-0.183,0.061, , , , , , ,0.187,0.159,-108.094
 12:41:29.953,eb:33:2e:f9:57:b5, 2015-01-01 00:27:37.405,-0.004,0.003,0.998,0.183,-0.122,0.061, , , , , , ,0.187,0.159,-108.094
 12:41:29.953,eb:33:2e:f9:57:b5, 2015-01-01 00:27:37.405,-0.004,0.003,0.998,0.183,-0.244,0.061, , , , , , ,0.187,0.159,-108.094
 12:41:29.953,eb:33:2e:f9:57:b5, 2015-01-01 00:27:37.405,-0.003,0.002,0.999,0.122,-0.305,0.061, , , , , , ,0.187,0.159,-108.094
 12:41:29.953,eb:33:2e:f9:57:b5, 2015-01-01 00:27:37.405,-0.004,0.003,1,0.122,-0.244,0, , , , , , ,0.187,0.159,-108.094
 12:41:29.953,eb:33:2e:f9:57:b5, 2015-01-01 00:27:37.405,-0.005,0.002,0.999,0.122,-0.183,0, , , , , , ,0.187,0.159,-108.094
 12:41:29.953,eb:33:2e:f9:57:b5, 2015-01-01 00:27:37.405,-0.004,0.002,1,0.183,-0.244,0.061, , , , , , ,0.187,0.159,-108.094
 12:41:29.999,eb:33:2e:f9:57:b5, 2015-01-01 00:27:37.405,-0.004,0.002,1,0.122,-0.305,0.061, , , , , , ,0.187,0.159,-108.094
 12:41:29.999,eb:33:2e:f9:57:b5, 2015-01-01 00:27:37.405,-0.004,0.002,0.999,0.122,-0.244,0.061, , , , , , ,0.187,0.159,-108.094
 12:41:29.999,eb:33:2e:f9:57:b5, 2015-01-01 00:27:37.405,-0.004,0.003,0.999,0.122,-0.244,0.122, , , , , , ,0.187,0.159,-108.094
 12:41:29.999,eb:33:2e:f9:57:b5, 2015-01-01 00:27:37.405,-0.005,0.002,0.999,0.183,-0.305,0.122, , , , , , ,0.187,0.159,-108.094
 12:41:29.999,eb:33:2e:f9:57:b5, 2015-01-01 00:27:37.405,-0.005,0.002,0.999,0.183,-0.366,0.061, , , , , , ,0.187,0.159,-108.094
 12:41:29.999,eb:33:2e:f9:57:b5, 2015-01-01 00:27:37.405,-0.004,0.002,0.999,0.122,-0.427,0.061, , , , , , ,0.187,0.159,-108.094
 12:41:29.999,eb:33:2e:f9:57:b5, 2015-01-01 00:27:37.405,-0.003,0.002,0.999,0.183,-0.427,0.061, , , , , , ,0.187,0.159,-108.094
 12:41:30.000,eb:33:2e:f9:57:b5, 2015-01-01 00:27:37.405,-0.009,0.002,1,0.183,-0.366,0.061, , , , , , ,0.187,0.159,-108.094
 12:41:30.043,eb:33:2e:f9:57:b5, 2015-01-01 00:27:37.405,-0.002,0.003,0.997,0.183,-0.61,0.061, , , , , , ,0.187,0.159,-108.094
 12:41:30.043,eb:33:2e:f9:57:b5, 2015-01-01 00:27:37.405,-0.006,0.005,1.001,0.061,-0.488,0.061, , , , , , ,0.187,0.159,-108.094
 12:41:30.043,eb:33:2e:f9:57:b5, 2015-01-01 00:27:37.405,-0.004,0.001,0.999,0.183,-0.549,0.122, , , , , , ,0.187,0.159,-108.094
 12:41:30.043,eb:33:2e:f9:57:b5, 2015-01-01 00:27:37.405,-0.001,0.003,1,0.183,-0.61,0.061, , , , , , ,0.187,0.159,-108.094
 12:41:30.043,eb:33:2e:f9:57:b5, 2015-01-01 00:27:37.405,-0.007,0.001,1,0.244,-0.427,0.061, , , , , , ,0.187,0.159,-108.094
 12:41:30.043,eb:33:2e:f9:57:b5, 2015-01-01 00:27:37.405,-0.003,0.003,0.997,0.305,-0.671,0.122, , , , , , ,0.187,0.159,-108.094
 12:41:30.043,eb:33:2e:f9:57:b5, 2015-01-01 00:27:37.405,-0.002,0.003,0.999,0.244,-0.671,0.122, , , , , , ,0.187,0.159,-108.094
 12:41:30.043,eb:33:2e:f9:57:b5, 2015-01-01 00:27:37.405,-0.003,0.001,1,0.305,-0.549,0.061, , , , , , ,0.187,0.159,-108.094
 12:41:30.089,eb:33:2e:f9:57:b5, 2015-01-01 00:27:37.405,-0.003,0.004,0.999,0.244,-0.61,0.061, , , , , , ,0.187,0.159,-108.094
 12:41:30.089,eb:33:2e:f9:57:b5, 2015-01-01 00:27:37.405,-0.001,0.003,0.999,0.305,-0.488,0.122, , , , , , ,0.187,0.159,-108.094
 12:41:30.089,eb:33:2e:f9:57:b5, 2015-01-01 00:27:37.405,0,0.002,1,0.305,-0.366,0.122, , , , , , ,0.187,0.159,-108.094
 12:41:30.089,eb:33:2e:f9:57:b5, 2015-01-01 00:27:37.405,-0.001,0.002,1.001,0.244,-0.183,0.122, , , , , , ,0.187,0.159,-108.094
 12:41:30.089,eb:33:2e:f9:57:b5, 2015-01-01 00:27:37.405,-0.001,0.003,1,0.305,-0.061,0.061, , , , , , ,0.187,0.159,-108.094
 12:41:30.089,eb:33:2e:f9:57:b5, 2015-01-01 00:27:37.405,-0.001,0.003,1,0.244,0.061,0.122, , , , , , ,0.187,0.159,-108.094
 12:41:30.089,eb:33:2e:f9:57:b5, 2015-01-01 00:27:37.405,-0.002,0.003,1,0.244,0.183,0.061, , , , , , ,0.187,0.159,-108.094
 12:41:30.089,eb:33:2e:f9:57:b5, 2015-01-01 00:27:37.405,-0.003,0.003,1,0.244,0.244,0.061, , , , , , ,0.187,0.159,-108.094
 12:41:30.111,eb:33:2e:f9:57:b5, 2015-01-01 00:27:37.405,-0.003,0.003,0.999,0.244,0.305,0.122, , , , , , ,0.187,0.159,-108.094
 12:41:30.111,eb:33:2e:f9:57:b5, 2015-01-01 00:27:37.405,-0.004,0.003,0.999,0.305,0.305,0.122, , , , , , ,0.187,0.159,-108.094
 12:41:30.111,eb:33:2e:f9:57:b5, 2015-01-01 00:27:37.405,-0.005,0.002,0.999,0.305,0.305,0.183, , , , , , ,0.187,0.159,-108.094
 12:41:30.111,eb:33:2e:f9:57:b5, 2015-01-01 00:27:37.405,-0.005,0.004,0.999,0.305,0.244,0.183, , , , , , ,0.187,0.159,-108.094
 12:41:30.111,eb:33:2e:f9:57:b5, 2015-01-01 00:27:37.405,-0.004,0.003,0.998,0.305,0.183,0.122, , , , , , ,0.187,0.159,-108.094
 12:41:30.111,eb:33:2e:f9:57:b5, 2015-01-01 00:27:37.405,-0.003,0.003,0.999,0.244,0.122,0.122, , , , , , ,0.187,0.159,-108.094
 12:41:30.111,eb:33:2e:f9:57:b5, 2015-01-01 00:27:37.405,-0.003,0.003,1,0.244,0.061,0.061, , , , , , ,0.187,0.159,-108.094
 12:41:30.111,eb:33:2e:f9:57:b5, 2015-01-01 00:27:37.405,-0.004,0.003,0.999,0.183,0,0.122, , , , , , ,0.187,0.159,-108.094
 12:41:30.156,eb:33:2e:f9:57:b5, 2015-01-01 00:27:37.405,-0.003,0.003,0.998,0.122,0,0.061, , , , , , ,0.187,0.165,-108.094
 12:41:30.156,eb:33:2e:f9:57:b5, 2015-01-01 00:27:37.405,-0.005,0.004,0.998,0.061,-0.061,0, , , , , , ,0.187,0.165,-108.094
 12:41:30.156,eb:33:2e:f9:57:b5, 2015-01-01 00:27:37.405,-0.004,0.003,0.998,0.061,-0.183,0, , , , , , ,0.187,0.165,-108.094
 12:41:30.156,eb:33:2e:f9:57:b5, 2015-01-01 00:27:37.405,-0.003,0.004,0.998,0.061,-0.244,0.061, , , , , , ,0.187,0.165,-108.094
 12:41:30.156,eb:33:2e:f9:57:b5, 2015-01-01 00:27:37.405,-0.003,0.004,0.999,0,-0.244,0, , , , , , ,0.187,0.165,-108.094
 12:41:30.156,eb:33:2e:f9:57:b5, 2015-01-01 00:27:37.405,-0.002,0.004,0.999,0,-0.244,0, , , , , , ,0.187,0.165,-108.094
 12:41:30.156,eb:33:2e:f9:57:b5, 2015-01-01 00:27:37.405,-0.003,0.004,0.999,0,-0.244,-0.061, , , , , , ,0.187,0.165,-108.094
 12:41:30.156,eb:33:2e:f9:57:b5, 2015-01-01 00:27:37.405,-0.004,0.003,0.999,0,-0.244,-0.061, , , , , , ,0.187,0.165,-108.094
 12:41:30.202,eb:33:2e:f9:57:b5, 2015-01-01 00:27:37.405,-0.003,0.003,0.999,-0.061,-0.305,-0.061, , , , , , ,0.187,0.165,-108.094
 12:41:30.202,eb:33:2e:f9:57:b5, 2015-01-01 00:27:37.405,-0.004,0.003,0.999,-0.061,-0.305,0, , , , , , ,0.187,0.165,-108.094
 12:41:30.202,eb:33:2e:f9:57:b5, 2015-01-01 00:27:37.405,-0.003,0.003,0.999,0,-0.366,0, , , , , , ,0.187,0.165,-108.094
 12:41:30.202,eb:33:2e:f9:57:b5, 2015-01-01 00:27:37.405,-0.003,0.002,1,0,-0.427,0, , , , , , ,0.187,0.165,-108.094
 12:41:30.202,eb:33:2e:f9:57:b5, 2015-01-01 00:27:37.405,-0.003,0.002,0.999,0.061,-0.488,0, , , , , , ,0.187,0.165,-108.094
 12:41:30.202,eb:33:2e:f9:57:b5, 2015-01-01 00:27:37.405,-0.002,0.003,1,0,-0.427,0, , , , , , ,0.187,0.165,-108.094
 12:41:30.202,eb:33:2e:f9:57:b5, 2015-01-01 00:27:37.405,-0.001,0.002,0.999,0,-0.427,0, , , , , , ,0.187,0.165,-108.094
 12:41:30.202,eb:33:2e:f9:57:b5, 2015-01-01 00:27:37.405,-0.002,0.003,1,0,-0.366,0, , , , , , ,0.187,0.165,-108.094
 12:41:30.246,eb:33:2e:f9:57:b5, 2015-01-01 00:27:37.720,-0.002,0.003,1,0.061,-0.305,0, , , , , , ,0.187,0.165,-108.094
 12:41:30.246,eb:33:2e:f9:57:b5, 2015-01-01 00:27:37.720,-0.003,0.003,0.999,0.061,-0.305,0, , , , , , ,0.187,0.165,-108.094
 12:41:30.246,eb:33:2e:f9:57:b5, 2015-01-01 00:27:37.720,-0.002,0.004,0.999,0,-0.305,0, , , , , , ,0.187,0.165,-108.094
 12:41:30.246,eb:33:2e:f9:57:b5, 2015-01-01 00:27:37.720,-0.002,0.003,0.999,0,-0.183,-0.061, , , , , , ,0.187,0.165,-108.094
 12:41:30.246,eb:33:2e:f9:57:b5, 2015-01-01 00:27:37.720,-0.002,0.003,0.999,-0.061,-0.183,0, , , , , , ,0.187,0.165,-108.094
 12:41:30.246,eb:33:2e:f9:57:b5, 2015-01-01 00:27:37.720,-0.003,0.003,0.999,0,-0.122,-0.061, , , , , , ,0.187,0.165,-108.094
 12:41:30.246,eb:33:2e:f9:57:b5, 2015-01-01 00:27:37.720,-0.001,0.003,0.998,0,-0.183,0, , , , , , ,0.187,0.165,-108.094
 12:41:30.246,eb:33:2e:f9:57:b5, 2015-01-01 00:27:37.720,-0.003,0.003,1,0,-0.122,-0.061, , , , , , ,0.187,0.165,-108.094
 12:41:30.291,eb:33:2e:f9:57:b5, 2015-01-01 00:27:37.720,0,0.003,0.999,-0.061,-0.122,-0.061, , , , , , ,0.187,0.165,-108.094
 12:41:30.291,eb:33:2e:f9:57:b5, 2015-01-01 00:27:37.720,-0.007,0.004,1.001,-0.061,0,-0.122, , , , , , ,0.187,0.165,-108.094
 12:41:30.291,eb:33:2e:f9:57:b5, 2015-01-01 00:27:37.720,-0.003,0.002,0.997,-0.122,-0.122,-0.122, , , , , , ,0.187,0.165,-108.094
 12:41:30.291,eb:33:2e:f9:57:b5, 2015-01-01 00:27:37.720,-0.001,0.004,0.999,-0.061,-0.244,-0.122, , , , , , ,0.187,0.165,-108.094
 12:41:30.291,eb:33:2e:f9:57:b5, 2015-01-01 00:27:37.720,0,0.002,1,-0.122,-0.183,-0.122, , , , , , ,0.187,0.165,-108.094
 12:41:30.291,eb:33:2e:f9:57:b5, 2015-01-01 00:27:37.720,-0.004,0.003,1.001,0,0.061,-0.122, , , , , , ,0.187,0.165,-108.094
 12:41:30.291,eb:33:2e:f9:57:b5, 2015-01-01 00:27:37.720,-0.003,0.003,0.998,0,0,-0.061, , , , , , ,0.187,0.165,-108.094
 12:41:30.291,eb:33:2e:f9:57:b5, 2015-01-01 00:27:37.720,-0.001,0.004,0.998,0,0,-0.122, , , , , , ,0.187,0.165,-108.094
 12:41:30.313,eb:33:2e:f9:57:b5, 2015-01-01 00:27:37.720,0,0.003,1,0,0.061,-0.061, , , , , , ,0.187,0.165,-108.094
 12:41:30.313,eb:33:2e:f9:57:b5, 2015-01-01 00:27:37.720,-0.005,0.002,1,0,0.122,-0.061, , , , , , ,0.187,0.165,-108.094
 12:41:30.313,eb:33:2e:f9:57:b5, 2015-01-01 00:27:37.720,-0.003,0.002,0.998,0,0,-0.061, , , , , , ,0.187,0.165,-108.094
 12:41:30.313,eb:33:2e:f9:57:b5, 2015-01-01 00:27:37.720,-0.001,0.002,0.998,-0.061,-0.061,0, , , , , , ,0.187,0.165,-108.094
 12:41:30.313,eb:33:2e:f9:57:b5, 2015-01-01 00:27:37.720,0,0.002,1,0.061,0,0, , , , , , ,0.187,0.165,-108.094
 12:41:30.313,eb:33:2e:f9:57:b5, 2015-01-01 00:27:37.720,0,0.002,1,0,0.061,0, , , , , , ,0.187,0.165,-108.094
 12:41:30.313,eb:33:2e:f9:57:b5, 2015-01-01 00:27:37.720,-0.004,0.003,1,0.061,0.244,0, , , , , , ,0.187,0.165,-108.094
 12:41:30.313,eb:33:2e:f9:57:b5, 2015-01-01 00:27:37.720,-0.004,0.002,0.999,0.122,0.183,0, , , , , , ,0.187,0.165,-108.094
 12:41:30.359,eb:33:2e:f9:57:b5, 2015-01-01 00:27:37.720,-0.003,0.002,0.999,0.061,0.061,0.061, , , , , , ,0.187,0.165,-108.094
 12:41:30.359,eb:33:2e:f9:57:b5, 2015-01-01 00:27:37.720,-0.002,0.003,0.999,0.122,0,0, , , , , , ,0.187,0.165,-108.094
 12:41:30.359,eb:33:2e:f9:57:b5, 2015-01-01 00:27:37.720,-0.002,0.002,1,0.183,0,0.061, , , , , , ,0.187,0.165,-108.094
 12:41:30.359,eb:33:2e:f9:57:b5, 2015-01-01 00:27:37.720,-0.003,0.002,1,0.122,0,0.061, , , , , , ,0.187,0.165,-108.094
 12:41:30.359,eb:33:2e:f9:57:b5, 2015-01-01 00:27:37.720,-0.003,0.003,0.999,0.183,0,0.061, , , , , , ,0.187,0.165,-108.094
 12:41:30.359,eb:33:2e:f9:57:b5, 2015-01-01 00:27:37.720,-0.001,0.003,0.999,0.183,-0.122,0.061, , , , , , ,0.187,0.165,-108.094
 12:41:30.359,eb:33:2e:f9:57:b5, 2015-01-01 00:27:37.720,-0.002,0.002,1,0.244,0,0.122, , , , , , ,0.187,0.165,-108.094
 12:41:30.359,eb:33:2e:f9:57:b5, 2015-01-01 00:27:37.720,-0.005,0.002,1,0.244,0,0.122, , , , , , ,0.187,0.165,-108.094
 12:41:30.427,eb:33:2e:f9:57:b5, 2015-01-01 00:27:37.720,-0.004,0.004,0.997,0.244,-0.061,0.122, , , , , , ,0.187,0.165,-108.094
 12:41:30.427,eb:33:2e:f9:57:b5, 2015-01-01 00:27:37.720,-0.002,0.002,0.999,0.244,-0.183,0.183, , , , , , ,0.187,0.165,-108.094
 12:41:30.427,eb:33:2e:f9:57:b5, 2015-01-01 00:27:37.720,-0.002,0.002,1,0.183,-0.061,0.183, , , , , , ,0.187,0.165,-108.094
 12:41:30.427,eb:33:2e:f9:57:b5, 2015-01-01 00:27:37.720,-0.002,0.001,1,0.305,0,0.183, , , , , , ,0.187,0.165,-108.094
 12:41:30.427,eb:33:2e:f9:57:b5, 2015-01-01 00:27:37.720,-0.002,0.002,0.999,0.244,0,0.244, , , , , , ,0.187,0.165,-108.094
 12:41:30.427,eb:33:2e:f9:57:b5, 2015-01-01 00:27:37.720,0,0.003,0.999,0.244,0,0.244, , , , , , ,0.187,0.165,-108.094
 12:41:30.427,eb:33:2e:f9:57:b5, 2015-01-01 00:27:37.720,-0.006,0.004,1.001,0.305,0.122,0.183, , , , , , ,0.187,0.165,-108.094
 12:41:30.427,eb:33:2e:f9:57:b5, 2015-01-01 00:27:37.720,-0.003,0.002,0.998,0.305,-0.061,0.244, , , , , , ,0.187,0.165,-108.094
 12:41:30.448,eb:33:2e:f9:57:b5, 2015-01-01 00:27:37.720,-0.003,0.005,0.999,0.305,-0.183,0.183, , , , , , ,0.187,0.165,-108.094
 12:41:30.448,eb:33:2e:f9:57:b5, 2015-01-01 00:27:37.720,0,0.003,0.999,0.305,-0.244,0.244, , , , , , ,0.187,0.165,-108.094
 12:41:30.448,eb:33:2e:f9:57:b5, 2015-01-01 00:27:37.720,0,0.004,1,0.305,-0.061,0.183, , , , , , ,0.187,0.165,-108.094
 12:41:30.448,eb:33:2e:f9:57:b5, 2015-01-01 00:27:37.720,-0.003,0.003,1,0.305,0.061,0.183, , , , , , ,0.187,0.165,-108.094
 12:41:30.448,eb:33:2e:f9:57:b5, 2015-01-01 00:27:37.720,-0.003,0.003,0.997,0.244,0,0.183, , , , , , ,0.187,0.165,-108.094
 12:41:30.448,eb:33:2e:f9:57:b5, 2015-01-01 00:27:37.720,0,0.004,0.998,0.183,-0.061,0.183, , , , , , ,0.187,0.165,-108.094
 12:41:30.448,eb:33:2e:f9:57:b5, 2015-01-01 00:27:37.720,-0.001,0.004,1,0.122,0.061,0.183, , , , , , ,0.187,0.165,-108.094
 12:41:30.448,eb:33:2e:f9:57:b5, 2015-01-01 00:27:37.720,-0.005,0.002,1,0.183,0.183,0.122, , , , , , ,0.187,0.165,-108.094
 12:41:30.493,eb:33:2e:f9:57:b5, 2015-01-01 00:27:37.720,-0.004,0.003,0.999,0.183,0,0.183, , , , , , ,0.187,0.165,-108.094
 12:41:30.493,eb:33:2e:f9:57:b5, 2015-01-01 00:27:37.720,-0.001,0.003,0.999,0.183,0,0.183, , , , , , ,0.187,0.165,-108.094
 12:41:30.493,eb:33:2e:f9:57:b5, 2015-01-01 00:27:37.720,-0.004,0.002,1,0.183,0.061,0.183, , , , , , ,0.187,0.165,-108.094
 12:41:30.493,eb:33:2e:f9:57:b5, 2015-01-01 00:27:37.720,0,0.003,0.998,0.183,0,0.061, , , , , , ,0.187,0.165,-108.094
 12:41:30.493,eb:33:2e:f9:57:b5, 2015-01-01 00:27:37.720,-0.004,0.005,1,0.183,0.061,0.061, , , , , , ,0.187,0.165,-108.094
 12:41:30.493,eb:33:2e:f9:57:b5, 2015-01-01 00:27:37.720,-0.003,0.002,0.998,0.122,0,0.122, , , , , , ,0.187,0.165,-108.094
 12:41:30.493,eb:33:2e:f9:57:b5, 2015-01-01 00:27:37.720,0,0.003,0.998,0.061,-0.061,0.122, , , , , , ,0.187,0.165,-108.094
 12:41:30.493,eb:33:2e:f9:57:b5, 2015-01-01 00:27:37.720,-0.004,0.003,1,0.061,0,0.061, , , , , , ,0.187,0.165,-108.094
 12:41:30.538,eb:33:2e:f9:57:b5, 2015-01-01 00:27:37.720,0,0.004,0.997,0.061,-0.122,0.061, , , , , , ,0.187,0.165,-108.094
 12:41:30.538,eb:33:2e:f9:57:b5, 2015-01-01 00:27:37.720,-0.005,0.004,1,0.061,0,0, , , , , , ,0.187,0.165,-108.094
 12:41:30.538,eb:33:2e:f9:57:b5, 2015-01-01 00:27:37.720,0,0.002,0.997,0.122,-0.061,0, , , , , , ,0.187,0.165,-108.094
 12:41:30.538,eb:33:2e:f9:57:b5, 2015-01-01 00:27:37.720,-0.007,0.005,1.001,0.122,0.061,0, , , , , , ,0.187,0.165,-108.094
 12:41:30.539,eb:33:2e:f9:57:b5, 2015-01-01 00:27:37.720,-0.001,0.002,0.997,0.122,-0.122,0.061, , , , , , ,0.187,0.165,-108.094
 12:41:30.539,eb:33:2e:f9:57:b5, 2015-01-01 00:27:37.720,-0.005,0.004,1,0.061,0,0.061, , , , , , ,0.187,0.165,-108.094
 12:41:30.540,eb:33:2e:f9:57:b5, 2015-01-01 00:27:37.720,-0.003,0.001,0.998,0.061,-0.122,0, , , , , , ,0.187,0.165,-108.094
 12:41:30.540,eb:33:2e:f9:57:b5, 2015-01-01 00:27:37.720,0,0.003,0.999,0,-0.122,0, , , , , , ,0.187,0.165,-108.094
 12:41:30.560,eb:33:2e:f9:57:b5, 2015-01-01 00:27:37.720,-0.005,0.003,1,0.061,0,0, , , , , , ,0.187,0.165,-108.094
 12:41:30.560,eb:33:2e:f9:57:b5, 2015-01-01 00:27:37.720,-0.003,0.003,0.997,0.122,-0.183,0, , , , , , ,0.187,0.165,-108.094
 12:41:30.560,eb:33:2e:f9:57:b5, 2015-01-01 00:27:37.720,0,0.004,0.998,0.061,-0.183,0, , , , , , ,0.187,0.165,-108.094
 12:41:30.560,eb:33:2e:f9:57:b5, 2015-01-01 00:27:37.720,-0.001,0.003,1,0.122,-0.061,0, , , , , , ,0.187,0.165,-108.094
 12:41:30.560,eb:33:2e:f9:57:b5, 2015-01-01 00:27:37.720,-0.002,0.002,1,0.122,0,0, , , , , , ,0.187,0.165,-108.094
 12:41:30.560,eb:33:2e:f9:57:b5, 2015-01-01 00:27:37.720,-0.003,0.003,0.999,0.183,-0.061,0, , , , , , ,0.187,0.165,-108.094
 12:41:30.560,eb:33:2e:f9:57:b5, 2015-01-01 00:27:37.720,-0.001,0.003,1,0.183,0,0, , , , , , ,0.187,0.165,-108.094
 12:41:30.560,eb:33:2e:f9:57:b5, 2015-01-01 00:27:37.720,0,0.003,1,0.122,0,0, , , , , , ,0.187,0.165,-108.094
 12:41:30.606,eb:33:2e:f9:57:b5, 2015-01-01 00:27:38.055,0,0.004,1,0.183,0.122,0, , , , , , ,0.187,0.165,-108.094
 12:41:30.606,eb:33:2e:f9:57:b5, 2015-01-01 00:27:38.055,-0.001,0.003,1,0.183,0.244,0, , , , , , ,0.187,0.165,-108.094
 12:41:30.606,eb:33:2e:f9:57:b5, 2015-01-01 00:27:38.055,-0.002,0.003,1,0.183,0.366,0, , , , , , ,0.187,0.165,-108.094
 12:41:30.606,eb:33:2e:f9:57:b5, 2015-01-01 00:27:38.055,-0.002,0.004,0.999,0.244,0.366,0.061, , , , , , ,0.187,0.165,-108.094
 12:41:30.606,eb:33:2e:f9:57:b5, 2015-01-01 00:27:38.055,-0.002,0.003,0.999,0.183,0.427,0, , , , , , ,0.187,0.165,-108.094
 12:41:30.606,eb:33:2e:f9:57:b5, 2015-01-01 00:27:38.055,-0.002,0.004,0.999,0.183,0.427,0, , , , , , ,0.187,0.165,-108.094
 12:41:30.606,eb:33:2e:f9:57:b5, 2015-01-01 00:27:38.055,-0.002,0.003,1,0.183,0.488,0, , , , , , ,0.187,0.165,-108.094
 12:41:30.606,eb:33:2e:f9:57:b5, 2015-01-01 00:27:38.055,-0.002,0.003,1,0.122,0.549,0.061, , , , , , ,0.187,0.165,-108.094
 12:41:30.651,eb:33:2e:f9:57:b5, 2015-01-01 00:27:38.055,-0.002,0.003,1,0.183,0.488,0.061, , , , , , ,0.187,0.165,-108.094
 12:41:30.651,eb:33:2e:f9:57:b5, 2015-01-01 00:27:38.055,-0.003,0.004,1,0.244,0.488,0, , , , , , ,0.187,0.165,-108.094
 12:41:30.651,eb:33:2e:f9:57:b5, 2015-01-01 00:27:38.055,-0.004,0.004,0.998,0.244,0.488,0.061, , , , , , ,0.187,0.165,-108.094
 12:41:30.651,eb:33:2e:f9:57:b5, 2015-01-01 00:27:38.055,-0.003,0.004,0.999,0.244,0.427,0.061, , , , , , ,0.187,0.165,-108.094
 12:41:30.651,eb:33:2e:f9:57:b5, 2015-01-01 00:27:38.055,-0.003,0.004,0.998,0.183,0.427,0.061, , , , , , ,0.187,0.165,-108.094
 12:41:30.651,eb:33:2e:f9:57:b5, 2015-01-01 00:27:38.055,-0.003,0.003,0.999,0.122,0.427,0, , , , , , ,0.187,0.165,-108.094
 12:41:30.651,eb:33:2e:f9:57:b5, 2015-01-01 00:27:38.055,-0.003,0.004,0.999,0.183,0.427,0, , , , , , ,0.187,0.165,-108.094
 12:41:30.651,eb:33:2e:f9:57:b5, 2015-01-01 00:27:38.055,-0.003,0.003,0.999,0.183,0.366,0, , , , , , ,0.187,0.165,-108.094
 12:41:30.673,eb:33:2e:f9:57:b5, 2015-01-01 00:27:38.055,-0.002,0.003,0.999,0.061,0.366,0, , , , , , ,0.187,0.165,-108.094
 12:41:30.673,eb:33:2e:f9:57:b5, 2015-01-01 00:27:38.055,-0.003,0.003,0.999,0.122,0.366,0.061, , , , , , ,0.187,0.165,-108.094
 12:41:30.673,eb:33:2e:f9:57:b5, 2015-01-01 00:27:38.055,-0.003,0.004,0.999,0.122,0.366,0.061, , , , , , ,0.187,0.165,-108.094
 12:41:30.673,eb:33:2e:f9:57:b5, 2015-01-01 00:27:38.055,-0.003,0.003,0.999,0.122,0.366,0.061, , , , , , ,0.187,0.165,-108.094
 12:41:30.673,eb:33:2e:f9:57:b5, 2015-01-01 00:27:38.055,-0.003,0.003,0.999,0.183,0.305,0, , , , , , ,0.187,0.165,-108.094
 12:41:30.673,eb:33:2e:f9:57:b5, 2015-01-01 00:27:38.055,-0.003,0.003,0.999,0.183,0.305,0, , , , , , ,0.187,0.165,-108.094
 12:41:30.673,eb:33:2e:f9:57:b5, 2015-01-01 00:27:38.055,-0.004,0.002,0.998,0.183,0.244,0.061, , , , , , ,0.187,0.165,-108.094
 12:41:30.673,eb:33:2e:f9:57:b5, 2015-01-01 00:27:38.055,-0.003,0.003,0.999,0.183,0.183,0.061, , , , , , ,0.187,0.165,-108.094
 12:41:30.763,eb:33:2e:f9:57:b5, 2015-01-01 00:27:38.055,-0.004,0.004,0.999,0.122,0.183,0.061, , , , , , ,0.187,0.165,-108.094
 12:41:30.763,eb:33:2e:f9:57:b5, 2015-01-01 00:27:38.055,-0.003,0.004,0.999,0.183,0.183,0.061, , , , , , ,0.187,0.165,-108.094
 12:41:30.763,eb:33:2e:f9:57:b5, 2015-01-01 00:27:38.055,-0.003,0.004,0.999,0.122,0.122,0.061, , , , , , ,0.187,0.165,-108.094
 12:41:30.763,eb:33:2e:f9:57:b5, 2015-01-01 00:27:38.055,-0.003,0.003,0.998,0.122,0.122,0.061, , , , , , ,0.187,0.165,-108.094
 12:41:30.763,eb:33:2e:f9:57:b5, 2015-01-01 00:27:38.055,-0.003,0.004,0.998,0.122,0.061,0, , , , , , ,0.187,0.165,-108.089
 12:41:30.763,eb:33:2e:f9:57:b5, 2015-01-01 00:27:38.055,-0.003,0.004,0.999,0.122,0.061,0.061, , , , , , ,0.187,0.165,-108.089
 12:41:30.763,eb:33:2e:f9:57:b5, 2015-01-01 00:27:38.055,-0.003,0.004,0.999,0.122,0,0.061, , , , , , ,0.187,0.165,-108.089
 12:41:30.764,eb:33:2e:f9:57:b5, 2015-01-01 00:27:38.055,-0.003,0.003,0.999,0.122,0,0.061, , , , , , ,0.187,0.165,-108.089
 12:41:30.766,eb:33:2e:f9:57:b5, 2015-01-01 00:27:38.055,-0.003,0.004,0.999,0.122,0,0, , , , , , ,0.187,0.165,-108.089
 12:41:30.767,eb:33:2e:f9:57:b5, 2015-01-01 00:27:38.055,-0.004,0.004,0.999,0.122,0,0, , , , , , ,0.187,0.165,-108.089
 12:41:30.767,eb:33:2e:f9:57:b5, 2015-01-01 00:27:38.055,-0.003,0.003,0.998,0,0,0, , , , , , ,0.187,0.165,-108.089
 12:41:30.767,eb:33:2e:f9:57:b5, 2015-01-01 00:27:38.055,-0.003,0.004,0.998,0,0,0, , , , , , ,0.187,0.165,-108.089
 12:41:30.769,eb:33:2e:f9:57:b5, 2015-01-01 00:27:38.055,-0.003,0.004,0.999,-0.061,0,0, , , , , , ,0.187,0.165,-108.089
 12:41:30.769,eb:33:2e:f9:57:b5, 2015-01-01 00:27:38.055,-0.003,0.004,0.999,0,0.061,0, , , , , , ,0.187,0.165,-108.089
 12:41:30.769,eb:33:2e:f9:57:b5, 2015-01-01 00:27:38.055,-0.002,0.003,0.999,-0.061,0.122,0, , , , , , ,0.187,0.165,-108.089
 12:41:30.769,eb:33:2e:f9:57:b5, 2015-01-01 00:27:38.055,-0.002,0.003,0.999,0,0.122,0, , , , , , ,0.187,0.165,-108.089
 12:41:30.808,eb:33:2e:f9:57:b5, 2015-01-01 00:27:38.055,-0.003,0.002,0.999,0,0.122,0, , , , , , ,0.187,0.165,-108.089
 12:41:30.808,eb:33:2e:f9:57:b5, 2015-01-01 00:27:38.055,-0.003,0.002,0.999,0,0.122,0, , , , , , ,0.187,0.165,-108.089
 12:41:30.808,eb:33:2e:f9:57:b5, 2015-01-01 00:27:38.055,-0.002,0.004,0.999,0,0.183,0, , , , , , ,0.187,0.165,-108.089
 12:41:30.808,eb:33:2e:f9:57:b5, 2015-01-01 00:27:38.055,-0.003,0.003,0.999,0,0.183,0, , , , , , ,0.187,0.165,-108.089
 12:41:30.808,eb:33:2e:f9:57:b5, 2015-01-01 00:27:38.055,-0.003,0.003,0.999,0,0.122,0, , , , , , ,0.187,0.165,-108.089
 12:41:30.808,eb:33:2e:f9:57:b5, 2015-01-01 00:27:38.055,-0.004,0.003,1,0,0.122,0, , , , , , ,0.187,0.165,-108.089
 12:41:30.809,eb:33:2e:f9:57:b5, 2015-01-01 00:27:38.055,-0.004,0.003,1,0,0.122,0, , , , , , ,0.187,0.165,-108.089
 12:41:30.809,eb:33:2e:f9:57:b5, 2015-01-01 00:27:38.055,-0.003,0.003,0.998,0.061,0,0, , , , , , ,0.187,0.165,-108.089
 12:41:30.854,eb:33:2e:f9:57:b5, 2015-01-01 00:27:38.055,-0.004,0.003,0.999,0.061,0,0, , , , , , ,0.187,0.165,-108.089
 12:41:30.854,eb:33:2e:f9:57:b5, 2015-01-01 00:27:38.055,-0.004,0.004,0.999,0,-0.061,0, , , , , , ,0.187,0.165,-108.089
 12:41:30.854,eb:33:2e:f9:57:b5, 2015-01-01 00:27:38.055,-0.004,0.004,0.998,0.061,-0.183,0, , , , , , ,0.187,0.165,-108.089
 12:41:30.854,eb:33:2e:f9:57:b5, 2015-01-01 00:27:38.055,-0.003,0.003,0.998,0.061,-0.183,-0.061, , , , , , ,0.187,0.165,-108.089
 12:41:30.854,eb:33:2e:f9:57:b5, 2015-01-01 00:27:38.055,-0.002,0.004,0.998,0,-0.244,-0.061, , , , , , ,0.187,0.165,-108.089
 12:41:30.854,eb:33:2e:f9:57:b5, 2015-01-01 00:27:38.055,-0.003,0.003,0.999,0,-0.183,-0.061, , , , , , ,0.187,0.165,-108.089
 12:41:30.854,eb:33:2e:f9:57:b5, 2015-01-01 00:27:38.055,-0.003,0.003,0.998,0,-0.244,-0.061, , , , , , ,0.187,0.165,-108.089
 12:41:30.854,eb:33:2e:f9:57:b5, 2015-01-01 00:27:38.055,-0.003,0.003,0.998,0,-0.244,-0.061, , , , , , ,0.187,0.165,-108.089
 12:41:30.876,eb:33:2e:f9:57:b5, 2015-01-01 00:27:38.055,-0.004,0.004,0.998,0,-0.244,-0.061, , , , , , ,0.187,0.165,-108.089
 12:41:30.876,eb:33:2e:f9:57:b5, 2015-01-01 00:27:38.055,-0.003,0.004,0.998,0,-0.244,-0.061, , , , , , ,0.187,0.165,-108.089
 12:41:30.876,eb:33:2e:f9:57:b5, 2015-01-01 00:27:38.055,-0.003,0.004,0.999,0,-0.305,-0.122, , , , , , ,0.187,0.165,-108.089
 12:41:30.876,eb:33:2e:f9:57:b5, 2015-01-01 00:27:38.055,-0.003,0.004,0.999,0,-0.305,-0.122, , , , , , ,0.187,0.165,-108.089
 12:41:30.876,eb:33:2e:f9:57:b5, 2015-01-01 00:27:38.055,-0.003,0.003,0.999,0,-0.366,-0.122, , , , , , ,0.187,0.165,-108.089
 12:41:30.876,eb:33:2e:f9:57:b5, 2015-01-01 00:27:38.055,-0.003,0.004,0.998,-0.061,-0.366,-0.183, , , , , , ,0.187,0.165,-108.089
 12:41:30.876,eb:33:2e:f9:57:b5, 2015-01-01 00:27:38.055,-0.003,0.004,0.999,-0.061,-0.427,-0.244, , , , , , ,0.187,0.165,-108.089
 12:41:30.876,eb:33:2e:f9:57:b5, 2015-01-01 00:27:38.055,-0.003,0.003,0.999,-0.122,-0.488,-0.244, , , , , , ,0.187,0.165,-108.089
 12:41:30.921,eb:33:2e:f9:57:b5, 2015-01-01 00:27:38.055,-0.002,0.004,0.999,-0.122,-0.488,-0.244, , , , , , ,0.187,0.165,-108.089
 12:41:30.921,eb:33:2e:f9:57:b5, 2015-01-01 00:27:38.055,-0.001,0.004,0.999,-0.183,-0.488,-0.244, , , , , , ,0.187,0.165,-108.089
 12:41:30.921,eb:33:2e:f9:57:b5, 2015-01-01 00:27:38.055,-0.001,0.004,0.999,-0.183,-0.488,-0.305, , , , , , ,0.187,0.165,-108.089
 12:41:30.921,eb:33:2e:f9:57:b5, 2015-01-01 00:27:38.055,-0.002,0.003,0.999,-0.244,-0.427,-0.244, , , , , , ,0.187,0.165,-108.089
 12:41:30.921,eb:33:2e:f9:57:b5, 2015-01-01 00:27:38.055,-0.002,0.003,1,-0.183,-0.305,-0.244, , , , , , ,0.187,0.165,-108.089
 12:41:30.921,eb:33:2e:f9:57:b5, 2015-01-01 00:27:38.055,-0.001,0.002,1,-0.183,-0.366,-0.305, , , , , , ,0.187,0.165,-108.089
 12:41:30.921,eb:33:2e:f9:57:b5, 2015-01-01 00:27:38.055,-0.001,0.003,1,-0.122,-0.305,-0.305, , , , , , ,0.187,0.165,-108.089
 12:41:30.922,eb:33:2e:f9:57:b5, 2015-01-01 00:27:38.055,-0.003,0.003,1,-0.122,-0.305,-0.244, , , , , , ,0.187,0.165,-108.089
 12:41:30.988,eb:33:2e:f9:57:b5, 2015-01-01 00:27:38.410,-0.002,0.003,0.999,-0.183,-0.305,-0.244, , , , , , ,0.187,0.165,-108.089
 12:41:30.988,eb:33:2e:f9:57:b5, 2015-01-01 00:27:38.410,-0.003,0.003,0.999,-0.122,-0.427,-0.244, , , , , , ,0.187,0.165,-108.089
 12:41:30.988,eb:33:2e:f9:57:b5, 2015-01-01 00:27:38.410,-0.003,0.003,0.999,-0.122,-0.427,-0.244, , , , , , ,0.187,0.165,-108.089
 12:41:30.988,eb:33:2e:f9:57:b5, 2015-01-01 00:27:38.410,-0.004,0.004,0.999,-0.122,-0.488,-0.244, , , , , , ,0.187,0.165,-108.089
 12:41:30.988,eb:33:2e:f9:57:b5, 2015-01-01 00:27:38.410,-0.002,0.003,0.999,-0.122,-0.549,-0.244, , , , , , ,0.187,0.165,-108.089
 12:41:30.988,eb:33:2e:f9:57:b5, 2015-01-01 00:27:38.410,-0.001,0.003,0.999,-0.122,-0.61,-0.366, , , , , , ,0.187,0.165,-108.089
 12:41:30.988,eb:33:2e:f9:57:b5, 2015-01-01 00:27:38.410,-0.003,0.004,0.999,-0.183,-0.61,-0.366, , , , , , ,0.187,0.165,-108.089
 12:41:30.988,eb:33:2e:f9:57:b5, 2015-01-01 00:27:38.410,-0.002,0.003,0.999,-0.183,-0.671,-0.366, , , , , , ,0.187,0.165,-108.089
 12:41:31.010,eb:33:2e:f9:57:b5, 2015-01-01 00:27:38.410,0,0.004,0.999,-0.305,-0.732,-0.366, , , , , , ,0.187,0.165,-108.089
 12:41:31.010,eb:33:2e:f9:57:b5, 2015-01-01 00:27:38.410,-0.002,0.004,1,-0.305,-0.61,-0.427, , , , , , ,0.187,0.165,-108.089
 12:41:31.010,eb:33:2e:f9:57:b5, 2015-01-01 00:27:38.410,-0.002,0.004,0.998,-0.305,-0.549,-0.488, , , , , , ,0.187,0.165,-108.089
 12:41:31.010,eb:33:2e:f9:57:b5, 2015-01-01 00:27:38.410,0,0.003,0.999,-0.366,-0.61,-0.488, , , , , , ,0.187,0.165,-108.089
 12:41:31.010,eb:33:2e:f9:57:b5, 2015-01-01 00:27:38.410,-0.001,0.004,0.999,-0.427,-0.427,-0.488, , , , , , ,0.187,0.165,-108.089
 12:41:31.010,eb:33:2e:f9:57:b5, 2015-01-01 00:27:38.410,0,0.003,0.999,-0.427,-0.305,-0.61, , , , , , ,0.187,0.165,-108.089
 12:41:31.010,eb:33:2e:f9:57:b5, 2015-01-01 00:27:38.410,0.001,0.004,1,-0.488,-0.244,-0.671, , , , , , ,0.187,0.165,-108.089
 12:41:31.010,eb:33:2e:f9:57:b5, 2015-01-01 00:27:38.410,0.001,0.002,1.001,-0.488,0,-0.549, , , , , , ,0.187,0.165,-108.089
 12:41:31.055,eb:33:2e:f9:57:b5, 2015-01-01 00:27:38.410,-0.001,0.002,1.002,-0.427,0.122,-0.549, , , , , , ,0.187,0.165,-108.089
 12:41:31.055,eb:33:2e:f9:57:b5, 2015-01-01 00:27:38.410,-0.003,0.002,1,-0.366,0.183,-0.488, , , , , , ,0.187,0.165,-108.089
 12:41:31.055,eb:33:2e:f9:57:b5, 2015-01-01 00:27:38.410,-0.002,0.002,0.999,-0.366,0.244,-0.488, , , , , , ,0.187,0.165,-108.089
 12:41:31.055,eb:33:2e:f9:57:b5, 2015-01-01 00:27:38.410,0,0.002,0.999,-0.366,0.183,-0.488, , , , , , ,0.187,0.165,-108.089
 12:41:31.055,eb:33:2e:f9:57:b5, 2015-01-01 00:27:38.410,0,0.002,1,-0.427,0.183,-0.488, , , , , , ,0.187,0.165,-108.089
 12:41:31.055,eb:33:2e:f9:57:b5, 2015-01-01 00:27:38.410,-0.002,0.001,1,-0.366,0.305,-0.488, , , , , , ,0.187,0.165,-108.089
 12:41:31.055,eb:33:2e:f9:57:b5, 2015-01-01 00:27:38.410,0,0.002,0.999,-0.366,0.244,-0.488, , , , , , ,0.187,0.165,-108.089
 12:41:31.055,eb:33:2e:f9:57:b5, 2015-01-01 00:27:38.410,-0.001,0.003,0.999,-0.366,0.244,-0.488, , , , , , ,0.187,0.165,-108.089
 12:41:31.077,eb:33:2e:f9:57:b5, 2015-01-01 00:27:38.410,-0.002,0.002,0.999,-0.366,0.305,-0.488, , , , , , ,0.187,0.165,-108.089
 12:41:31.077,eb:33:2e:f9:57:b5, 2015-01-01 00:27:38.410,0,0.004,0.998,-0.427,0.244,-0.488, , , , , , ,0.187,0.165,-108.089
 12:41:31.077,eb:33:2e:f9:57:b5, 2015-01-01 00:27:38.410,-0.001,0.003,0.998,-0.488,0.305,-0.61, , , , , , ,0.187,0.165,-108.089
 12:41:31.077,eb:33:2e:f9:57:b5, 2015-01-01 00:27:38.410,-0.002,0.004,0.998,-0.488,0.427,-0.549, , , , , , ,0.187,0.165,-108.089
 12:41:31.077,eb:33:2e:f9:57:b5, 2015-01-01 00:27:38.410,-0.001,0.002,0.999,-0.549,0.366,-0.488, , , , , , ,0.187,0.165,-108.089
 12:41:31.077,eb:33:2e:f9:57:b5, 2015-01-01 00:27:38.410,-0.001,0.003,0.999,-0.61,0.427,-0.549, , , , , , ,0.187,0.165,-108.089
 12:41:31.077,eb:33:2e:f9:57:b5, 2015-01-01 00:27:38.410,-0.001,0.002,0.999,-0.61,0.488,-0.549, , , , , , ,0.187,0.165,-108.089
 12:41:31.077,eb:33:2e:f9:57:b5, 2015-01-01 00:27:38.410,0,0.001,1,-0.61,0.488,-0.488, , , , , , ,0.187,0.165,-108.089
 12:41:31.125,eb:33:2e:f9:57:b5, 2015-01-01 00:27:38.410,-0.001,0,1,-0.61,0.61,-0.305, , , , , , ,0.187,0.159,-108.089
 12:41:31.125,eb:33:2e:f9:57:b5, 2015-01-01 00:27:38.410,-0.002,0,1.001,-0.427,0.549,-0.244, , , , , , ,0.187,0.159,-108.089
 12:41:31.125,eb:33:2e:f9:57:b5, 2015-01-01 00:27:38.410,-0.004,0,1,-0.244,0.488,-0.122, , , , , , ,0.187,0.159,-108.089
 12:41:31.125,eb:33:2e:f9:57:b5, 2015-01-01 00:27:38.410,-0.004,0,0.998,-0.183,0.244,-0.122, , , , , , ,0.187,0.159,-108.089
 12:41:31.125,eb:33:2e:f9:57:b5, 2015-01-01 00:27:38.410,-0.004,0,0.998,-0.122,0.061,-0.061, , , , , , ,0.187,0.159,-108.089
 12:41:31.125,eb:33:2e:f9:57:b5, 2015-01-01 00:27:38.410,-0.004,0,0.999,-0.061,0,-0.061, , , , , , ,0.187,0.159,-108.089
 12:41:31.125,eb:33:2e:f9:57:b5, 2015-01-01 00:27:38.410,-0.004,0,1,0,-0.183,0, , , , , , ,0.187,0.159,-108.089
 12:41:31.125,eb:33:2e:f9:57:b5, 2015-01-01 00:27:38.410,-0.004,0,0.999,0,-0.244,0, , , , , , ,0.187,0.159,-108.089
 12:41:31.170,eb:33:2e:f9:57:b5, 2015-01-01 00:27:38.410,-0.003,0.001,0.999,0.061,-0.366,0, , , , , , ,0.187,0.159,-108.089
 12:41:31.170,eb:33:2e:f9:57:b5, 2015-01-01 00:27:38.410,-0.002,0.002,0.999,0.061,-0.488,0, , , , , , ,0.187,0.159,-108.089
 12:41:31.170,eb:33:2e:f9:57:b5, 2015-01-01 00:27:38.410,-0.001,0.001,1,0.122,-0.488,0, , , , , , ,0.187,0.159,-108.089
 12:41:31.170,eb:33:2e:f9:57:b5, 2015-01-01 00:27:38.410,0,0.001,1,0.122,-0.427,0, , , , , , ,0.187,0.159,-108.089
 12:41:31.170,eb:33:2e:f9:57:b5, 2015-01-01 00:27:38.410,-0.002,0.001,1,0.122,-0.366,0, , , , , , ,0.187,0.159,-108.089
 12:41:31.170,eb:33:2e:f9:57:b5, 2015-01-01 00:27:38.410,-0.002,0.001,1,0.122,-0.366,0.061, , , , , , ,0.187,0.159,-108.089
 12:41:31.170,eb:33:2e:f9:57:b5, 2015-01-01 00:27:38.410,0,0.002,1,0.122,-0.305,0.122, , , , , , ,0.187,0.159,-108.089
 12:41:31.170,eb:33:2e:f9:57:b5, 2015-01-01 00:27:38.410,0,0.003,1,0.122,-0.244,0.061, , , , , , ,0.187,0.159,-108.089
 12:41:31.238,eb:33:2e:f9:57:b5, 2015-01-01 00:27:38.410,-0.001,0.001,1,0.122,-0.122,0.061, , , , , , ,0.187,0.159,-108.089
 12:41:31.238,eb:33:2e:f9:57:b5, 2015-01-01 00:27:38.410,-0.001,0.001,1,0.061,-0.122,0.122, , , , , , ,0.187,0.159,-108.089
 12:41:31.238,eb:33:2e:f9:57:b5, 2015-01-01 00:27:38.410,-0.002,0.002,1,0.183,-0.061,0.061, , , , , , ,0.187,0.159,-108.089
 12:41:31.238,eb:33:2e:f9:57:b5, 2015-01-01 00:27:38.410,-0.001,0.002,1,0.183,0,0.061, , , , , , ,0.187,0.159,-108.089
 12:41:31.238,eb:33:2e:f9:57:b5, 2015-01-01 00:27:38.410,-0.002,0.002,1,0.183,0,0.122, , , , , , ,0.187,0.159,-108.089
 12:41:31.238,eb:33:2e:f9:57:b5, 2015-01-01 00:27:38.410,-0.002,0.001,1,0.244,0,0.183, , , , , , ,0.187,0.159,-108.089
 12:41:31.238,eb:33:2e:f9:57:b5, 2015-01-01 00:27:38.410,-0.002,0.002,0.999,0.183,-0.061,0.122, , , , , , ,0.187,0.159,-108.089
 12:41:31.238,eb:33:2e:f9:57:b5, 2015-01-01 00:27:38.410,-0.001,0.002,1,0.183,-0.061,0.061, , , , , , ,0.187,0.159,-108.089
 12:41:31.259,eb:33:2e:f9:57:b5, 2015-01-01 00:27:38.725,-0.001,0.002,0.999,0.244,0,0.061, , , , , , ,0.187,0.159,-108.089
 12:41:31.259,eb:33:2e:f9:57:b5, 2015-01-01 00:27:38.725,-0.001,0.001,0.999,0.183,0,0.061, , , , , , ,0.187,0.159,-108.089
 12:41:31.259,eb:33:2e:f9:57:b5, 2015-01-01 00:27:38.725,-0.001,0.001,1,0.305,0,0.122, , , , , , ,0.187,0.159,-108.089
 12:41:31.259,eb:33:2e:f9:57:b5, 2015-01-01 00:27:38.725,-0.001,0.001,0.999,0.305,0,0.061, , , , , , ,0.187,0.159,-108.089
 12:41:31.259,eb:33:2e:f9:57:b5, 2015-01-01 00:27:38.725,-0.002,0.001,1,0.305,0,0.122, , , , , , ,0.187,0.159,-108.094
 12:41:31.259,eb:33:2e:f9:57:b5, 2015-01-01 00:27:38.725,-0.002,0.001,0.999,0.305,0,0.122, , , , , , ,0.187,0.159,-108.094
 12:41:31.259,eb:33:2e:f9:57:b5, 2015-01-01 00:27:38.725,-0.002,0.001,0.998,0.305,0,0.122, , , , , , ,0.187,0.159,-108.089
 12:41:31.259,eb:33:2e:f9:57:b5, 2015-01-01 00:27:38.725,-0.001,0.001,0.999,0.305,0,0.122, , , , , , ,0.187,0.159,-108.089
 12:41:31.281,eb:33:2e:f9:57:b5, 2015-01-01 00:27:38.725,-0.002,0.002,1,0.366,0,0.183, , , , , , ,0.181,0.159,-108.094
 12:41:31.281,eb:33:2e:f9:57:b5, 2015-01-01 00:27:38.725,-0.003,0.002,1,0.305,0,0.122, , , , , , ,0.181,0.159,-108.094
 12:41:31.281,eb:33:2e:f9:57:b5, 2015-01-01 00:27:38.725,-0.002,0.001,0.999,0.305,-0.061,0.061, , , , , , ,0.181,0.159,-108.094
 12:41:31.281,eb:33:2e:f9:57:b5, 2015-01-01 00:27:38.725,-0.001,0.002,0.999,0.305,-0.061,0.061, , , , , , ,0.181,0.159,-108.094
 12:41:31.281,eb:33:2e:f9:57:b5, 2015-01-01 00:27:38.725,0,0.002,1,0.183,0,0.122, , , , , , ,0.181,0.159,-108.094
 12:41:31.281,eb:33:2e:f9:57:b5, 2015-01-01 00:27:38.725,-0.002,0.001,1,0.183,0.061,0.122, , , , , , ,0.181,0.159,-108.094
 12:41:31.281,eb:33:2e:f9:57:b5, 2015-01-01 00:27:38.725,-0.001,0.001,0.999,0.244,0,0.122, , , , , , ,0.181,0.159,-108.094
 12:41:31.281,eb:33:2e:f9:57:b5, 2015-01-01 00:27:38.725,-0.002,0.002,0.999,0.244,0,0.183, , , , , , ,0.181,0.159,-108.094
 12:41:31.326,eb:33:2e:f9:57:b5, 2015-01-01 00:27:38.725,-0.002,0.002,0.998,0.305,0.061,0.122, , , , , , ,0.181,0.159,-108.094
 12:41:31.326,eb:33:2e:f9:57:b5, 2015-01-01 00:27:38.725,-0.002,0.001,0.999,0.244,0.061,0.122, , , , , , ,0.181,0.159,-108.094
 12:41:31.326,eb:33:2e:f9:57:b5, 2015-01-01 00:27:38.725,-0.002,0.002,0.998,0.244,0,0.061, , , , , , ,0.181,0.159,-108.094
 12:41:31.326,eb:33:2e:f9:57:b5, 2015-01-01 00:27:38.725,-0.002,0.003,0.999,0.122,0,0.061, , , , , , ,0.181,0.159,-108.094
 12:41:31.326,eb:33:2e:f9:57:b5, 2015-01-01 00:27:38.725,-0.001,0.002,0.998,0.122,0,0, , , , , , ,0.181,0.159,-108.094
 12:41:31.326,eb:33:2e:f9:57:b5, 2015-01-01 00:27:38.725,0,0.003,0.999,0,0,0.061, , , , , , ,0.181,0.159,-108.094
 12:41:31.326,eb:33:2e:f9:57:b5, 2015-01-01 00:27:38.725,0,0.002,0.999,0,0.061,0.061, , , , , , ,0.181,0.159,-108.094
 12:41:31.326,eb:33:2e:f9:57:b5, 2015-01-01 00:27:38.725,-0.002,0.002,0.999,0.061,0.061,0, , , , , , ,0.181,0.159,-108.094
 12:41:31.371,eb:33:2e:f9:57:b5, 2015-01-01 00:27:38.725,-0.002,0.002,0.999,0,0.061,0, , , , , , ,0.181,0.159,-108.094
 12:41:31.371,eb:33:2e:f9:57:b5, 2015-01-01 00:27:38.725,-0.002,0.002,0.999,0,0.061,0, , , , , , ,0.181,0.159,-108.094
 12:41:31.371,eb:33:2e:f9:57:b5, 2015-01-01 00:27:38.725,-0.002,0.002,0.999,0,0.061,0, , , , , , ,0.181,0.159,-108.094
 12:41:31.371,eb:33:2e:f9:57:b5, 2015-01-01 00:27:38.725,-0.002,0.002,0.998,0,0,0, , , , , , ,0.181,0.159,-108.094
 12:41:31.371,eb:33:2e:f9:57:b5, 2015-01-01 00:27:38.725,-0.001,0.002,0.999,0,0,0, , , , , , ,0.181,0.159,-108.094
 12:41:31.371,eb:33:2e:f9:57:b5, 2015-01-01 00:27:38.725,-0.001,0.001,0.999,0,0,0, , , , , , ,0.181,0.159,-108.094
 12:41:31.371,eb:33:2e:f9:57:b5, 2015-01-01 00:27:38.725,-0.001,0.002,1,0.061,0.061,0, , , , , , ,0.181,0.159,-108.094
 12:41:31.371,eb:33:2e:f9:57:b5, 2015-01-01 00:27:38.725,-0.001,0.002,0.999,0,0,0, , , , , , ,0.181,0.159,-108.094
 12:41:31.417,eb:33:2e:f9:57:b5, 2015-01-01 00:27:38.725,-0.001,0.002,0.999,0,0,0.061, , , , , , ,0.181,0.159,-108.094
 12:41:31.417,eb:33:2e:f9:57:b5, 2015-01-01 00:27:38.725,-0.002,0.002,0.999,0,0,0, , , , , , ,0.181,0.159,-108.094
 12:41:31.417,eb:33:2e:f9:57:b5, 2015-01-01 00:27:38.725,-0.001,0.003,0.998,0.061,0,0, , , , , , ,0.181,0.159,-108.094
 12:41:31.417,eb:33:2e:f9:57:b5, 2015-01-01 00:27:38.725,-0.001,0.003,1,0,0,-0.122, , , , , , ,0.181,0.159,-108.094
 12:41:31.417,eb:33:2e:f9:57:b5, 2015-01-01 00:27:38.725,-0.001,0.003,0.999,0,0.061,-0.061, , , , , , ,0.181,0.159,-108.094
 12:41:31.417,eb:33:2e:f9:57:b5, 2015-01-01 00:27:38.725,0,0.002,0.999,0,0.061,-0.061, , , , , , ,0.181,0.159,-108.094
 12:41:31.417,eb:33:2e:f9:57:b5, 2015-01-01 00:27:38.725,-0.001,0.003,1,0,0.061,0, , , , , , ,0.181,0.159,-108.094
 12:41:31.417,eb:33:2e:f9:57:b5, 2015-01-01 00:27:38.725,0,0.003,0.999,0,0.122,-0.061, , , , , , ,0.181,0.159,-108.094
 12:41:31.438,eb:33:2e:f9:57:b5, 2015-01-01 00:27:38.725,0,0.003,1,0,0.183,-0.061, , , , , , ,0.181,0.159,-108.094
 12:41:31.438,eb:33:2e:f9:57:b5, 2015-01-01 00:27:38.725,-0.001,0.003,1,-0.061,0.244,-0.061, , , , , , ,0.181,0.159,-108.094
 12:41:31.438,eb:33:2e:f9:57:b5, 2015-01-01 00:27:38.725,-0.001,0.002,1,-0.061,0.305,-0.122, , , , , , ,0.181,0.159,-108.094
 12:41:31.438,eb:33:2e:f9:57:b5, 2015-01-01 00:27:38.725,-0.001,0.002,1,-0.061,0.305,-0.061, , , , , , ,0.181,0.159,-108.094
 12:41:31.438,eb:33:2e:f9:57:b5, 2015-01-01 00:27:38.725,-0.002,0.002,0.999,-0.061,0.305,-0.061, , , , , , ,0.181,0.159,-108.094
 12:41:31.438,eb:33:2e:f9:57:b5, 2015-01-01 00:27:38.725,-0.002,0.002,0.999,-0.061,0.244,-0.061, , , , , , ,0.181,0.159,-108.094
 12:41:31.438,eb:33:2e:f9:57:b5, 2015-01-01 00:27:38.725,-0.003,0.002,0.998,-0.061,0.305,-0.061, , , , , , ,0.181,0.159,-108.094
 12:41:31.438,eb:33:2e:f9:57:b5, 2015-01-01 00:27:38.725,-0.003,0.002,1,-0.061,0.305,-0.122, , , , , , ,0.181,0.159,-108.094
 12:41:31.484,eb:33:2e:f9:57:b5, 2015-01-01 00:27:38.725,-0.003,0,1,-0.061,0.305,-0.183, , , , , , ,0.181,0.159,-108.094
 12:41:31.484,eb:33:2e:f9:57:b5, 2015-01-01 00:27:38.725,-0.003,0,0.999,-0.122,0.244,-0.061, , , , , , ,0.181,0.159,-108.094
 12:41:31.484,eb:33:2e:f9:57:b5, 2015-01-01 00:27:38.725,-0.003,0.002,0.998,-0.061,0.183,-0.061, , , , , , ,0.181,0.159,-108.094
 12:41:31.484,eb:33:2e:f9:57:b5, 2015-01-01 00:27:38.725,-0.003,0.002,0.998,-0.061,0.122,-0.122, , , , , , ,0.181,0.159,-108.094
 12:41:31.484,eb:33:2e:f9:57:b5, 2015-01-01 00:27:38.725,-0.003,0.002,0.998,-0.061,0.061,-0.122, , , , , , ,0.181,0.159,-108.094
 12:41:31.484,eb:33:2e:f9:57:b5, 2015-01-01 00:27:38.725,-0.002,0.001,0.999,-0.061,0,-0.122, , , , , , ,0.181,0.159,-108.094
 12:41:31.484,eb:33:2e:f9:57:b5, 2015-01-01 00:27:38.725,-0.002,0.001,1,-0.061,0,-0.122, , , , , , ,0.181,0.159,-108.094
 12:41:31.484,eb:33:2e:f9:57:b5, 2015-01-01 00:27:38.725,-0.004,0,1,0,0,-0.061, , , , , , ,0.181,0.159,-108.094
 12:41:31.529,eb:33:2e:f9:57:b5, 2015-01-01 00:27:38.725,-0.003,0.002,0.999,-0.061,0,-0.061, , , , , , ,0.181,0.159,-108.094
 12:41:31.529,eb:33:2e:f9:57:b5, 2015-01-01 00:27:38.725,-0.003,0.001,0.998,0,-0.061,0, , , , , , ,0.181,0.159,-108.094
 12:41:31.529,eb:33:2e:f9:57:b5, 2015-01-01 00:27:38.725,-0.002,0.002,1,0,-0.061,0, , , , , , ,0.181,0.159,-108.094
 12:41:31.529,eb:33:2e:f9:57:b5, 2015-01-01 00:27:38.725,-0.002,0.001,1,0,-0.122,0, , , , , , ,0.181,0.159,-108.094
 12:41:31.529,eb:33:2e:f9:57:b5, 2015-01-01 00:27:38.725,0,0.001,0.999,0,-0.122,0, , , , , , ,0.181,0.159,-108.094
 12:41:31.529,eb:33:2e:f9:57:b5, 2015-01-01 00:27:38.725,-0.006,0.001,1.001,0.061,0,-0.061, , , , , , ,0.181,0.159,-108.094
 12:41:31.529,eb:33:2e:f9:57:b5, 2015-01-01 00:27:38.725,-0.004,0.001,0.997,0.122,-0.122,0, , , , , , ,0.181,0.159,-108.094
 12:41:31.529,eb:33:2e:f9:57:b5, 2015-01-01 00:27:38.725,-0.003,0.003,0.998,0,-0.244,0, , , , , , ,0.181,0.159,-108.094
 12:41:31.573,eb:33:2e:f9:57:b5, 2015-01-01 00:27:39.035,-0.002,0.001,0.998,0,-0.305,0, , , , , , ,0.181,0.159,-108.094
 12:41:31.573,eb:33:2e:f9:57:b5, 2015-01-01 00:27:39.035,-0.001,0.002,0.999,0,-0.305,-0.061, , , , , , ,0.181,0.159,-108.094
 12:41:31.573,eb:33:2e:f9:57:b5, 2015-01-01 00:27:39.035,-0.001,0.002,0.999,0,-0.244,-0.061, , , , , , ,0.181,0.159,-108.094
 12:41:31.573,eb:33:2e:f9:57:b5, 2015-01-01 00:27:39.035,-0.001,0.002,0.998,0,-0.183,-0.061, , , , , , ,0.181,0.159,-108.094
 12:41:31.573,eb:33:2e:f9:57:b5, 2015-01-01 00:27:39.035,0,0.002,1,0,-0.061,-0.061, , , , , , ,0.181,0.159,-108.094
 12:41:31.573,eb:33:2e:f9:57:b5, 2015-01-01 00:27:39.035,-0.004,0.001,1,0,0,-0.061, , , , , , ,0.181,0.159,-108.094
 12:41:31.573,eb:33:2e:f9:57:b5, 2015-01-01 00:27:39.035,-0.003,0.001,0.997,0,-0.061,0, , , , , , ,0.181,0.159,-108.094
 12:41:31.573,eb:33:2e:f9:57:b5, 2015-01-01 00:27:39.035,-0.001,0.002,0.998,-0.061,-0.183,-0.061, , , , , , ,0.181,0.159,-108.094
 12:41:31.619,eb:33:2e:f9:57:b5, 2015-01-01 00:27:39.035,0,0.002,0.999,-0.061,-0.061,-0.061, , , , , , ,0.181,0.159,-108.094
 12:41:31.619,eb:33:2e:f9:57:b5, 2015-01-01 00:27:39.035,0,0.001,0.999,-0.122,-0.061,-0.122, , , , , , ,0.181,0.159,-108.094
 12:41:31.619,eb:33:2e:f9:57:b5, 2015-01-01 00:27:39.035,-0.001,0.001,0.999,-0.122,0,-0.122, , , , , , ,0.181,0.159,-108.094
 12:41:31.619,eb:33:2e:f9:57:b5, 2015-01-01 00:27:39.035,-0.001,0.001,0.998,-0.122,0,-0.122, , , , , , ,0.181,0.159,-108.094
 12:41:31.619,eb:33:2e:f9:57:b5, 2015-01-01 00:27:39.035,-0.001,0.001,0.999,-0.122,0.122,-0.061, , , , , , ,0.176,0.154,-108.094
 12:41:31.619,eb:33:2e:f9:57:b5, 2015-01-01 00:27:39.035,0,0.001,1,-0.183,0.183,-0.122, , , , , , ,0.176,0.154,-108.094
 12:41:31.619,eb:33:2e:f9:57:b5, 2015-01-01 00:27:39.035,-0.004,0.002,1,-0.183,0.244,-0.122, , , , , , ,0.176,0.154,-108.094
 12:41:31.619,eb:33:2e:f9:57:b5, 2015-01-01 00:27:39.035,-0.003,0.001,0.998,-0.122,0.061,-0.122, , , , , , ,0.176,0.154,-108.094
 12:41:31.640,eb:33:2e:f9:57:b5, 2015-01-01 00:27:39.035,-0.002,0.002,0.999,-0.183,0.061,-0.061, , , , , , ,0.176,0.154,-108.094
 12:41:31.640,eb:33:2e:f9:57:b5, 2015-01-01 00:27:39.035,-0.001,0.001,0.999,-0.122,0.061,-0.061, , , , , , ,0.176,0.154,-108.094
 12:41:31.640,eb:33:2e:f9:57:b5, 2015-01-01 00:27:39.035,-0.002,0.001,0.999,-0.122,0.061,-0.061, , , , , , ,0.176,0.154,-108.094
 12:41:31.640,eb:33:2e:f9:57:b5, 2015-01-01 00:27:39.035,-0.002,0.001,0.999,-0.122,0.122,-0.061, , , , , , ,0.176,0.154,-108.094
 12:41:31.640,eb:33:2e:f9:57:b5, 2015-01-01 00:27:39.035,-0.002,0,0.999,-0.122,0.061,-0.122, , , , , , ,0.176,0.154,-108.094
 12:41:31.640,eb:33:2e:f9:57:b5, 2015-01-01 00:27:39.035,-0.002,0.001,1,-0.122,0.061,-0.122, , , , , , ,0.176,0.154,-108.094
 12:41:31.640,eb:33:2e:f9:57:b5, 2015-01-01 00:27:39.035,-0.001,0.001,0.999,-0.061,0.061,0, , , , , , ,0.176,0.154,-108.094
 12:41:31.642,eb:33:2e:f9:57:b5, 2015-01-01 00:27:39.035,-0.001,0.001,0.999,-0.122,0.122,0, , , , , , ,0.176,0.154,-108.094
 12:41:31.686,eb:33:2e:f9:57:b5, 2015-01-01 00:27:39.035,-0.002,0.001,1,-0.061,0.244,0, , , , , , ,0.176,0.154,-108.094
 12:41:31.686,eb:33:2e:f9:57:b5, 2015-01-01 00:27:39.035,-0.001,0.001,0.999,-0.061,0.244,-0.061, , , , , , ,0.176,0.154,-108.094
 12:41:31.686,eb:33:2e:f9:57:b5, 2015-01-01 00:27:39.035,-0.001,0.001,1,-0.061,0.305,-0.061, , , , , , ,0.176,0.154,-108.094
 12:41:31.686,eb:33:2e:f9:57:b5, 2015-01-01 00:27:39.035,-0.002,0.001,1,-0.061,0.366,-0.061, , , , , , ,0.176,0.154,-108.094
 12:41:31.686,eb:33:2e:f9:57:b5, 2015-01-01 00:27:39.035,-0.002,0.001,0.999,-0.061,0.366,-0.061, , , , , , ,0.176,0.154,-108.094
 12:41:31.686,eb:33:2e:f9:57:b5, 2015-01-01 00:27:39.035,-0.002,0.001,0.999,-0.061,0.427,-0.061, , , , , , ,0.176,0.154,-108.094
 12:41:31.686,eb:33:2e:f9:57:b5, 2015-01-01 00:27:39.035,-0.002,0.001,0.999,0,0.427,-0.061, , , , , , ,0.176,0.154,-108.094
 12:41:31.686,eb:33:2e:f9:57:b5, 2015-01-01 00:27:39.035,-0.003,0.001,0.999,0,0.427,-0.061, , , , , , ,0.176,0.154,-108.094
 12:41:31.731,eb:33:2e:f9:57:b5, 2015-01-01 00:27:39.035,-0.003,0.001,0.998,-0.061,0.427,-0.061, , , , , , ,0.176,0.154,-108.094
 12:41:31.731,eb:33:2e:f9:57:b5, 2015-01-01 00:27:39.035,-0.002,0.001,0.998,-0.061,0.427,0, , , , , , ,0.176,0.154,-108.094
 12:41:31.731,eb:33:2e:f9:57:b5, 2015-01-01 00:27:39.035,-0.002,0.001,0.999,-0.061,0.366,-0.122, , , , , , ,0.176,0.154,-108.094
 12:41:31.731,eb:33:2e:f9:57:b5, 2015-01-01 00:27:39.035,-0.002,0.001,0.999,-0.061,0.366,-0.122, , , , , , ,0.176,0.154,-108.094
 12:41:31.731,eb:33:2e:f9:57:b5, 2015-01-01 00:27:39.035,-0.003,0,0.999,-0.061,0.366,-0.122, , , , , , ,0.176,0.154,-108.094
 12:41:31.731,eb:33:2e:f9:57:b5, 2015-01-01 00:27:39.035,-0.003,0,0.998,-0.061,0.366,-0.061, , , , , , ,0.176,0.154,-108.094
 12:41:31.731,eb:33:2e:f9:57:b5, 2015-01-01 00:27:39.035,-0.002,0.001,0.999,-0.061,0.366,-0.122, , , , , , ,0.176,0.154,-108.094
 12:41:31.731,eb:33:2e:f9:57:b5, 2015-01-01 00:27:39.035,-0.002,0.001,1,0,0.366,-0.122, , , , , , ,0.176,0.154,-108.094
 12:41:31.776,eb:33:2e:f9:57:b5, 2015-01-01 00:27:39.035,-0.002,0,1,-0.061,0.366,-0.061, , , , , , ,0.176,0.154,-108.094
 12:41:31.776,eb:33:2e:f9:57:b5, 2015-01-01 00:27:39.035,-0.002,0,1,0,0.427,-0.061, , , , , , ,0.176,0.154,-108.094
 12:41:31.776,eb:33:2e:f9:57:b5, 2015-01-01 00:27:39.035,-0.002,0,1,0,0.427,-0.122, , , , , , ,0.176,0.154,-108.094
 12:41:31.776,eb:33:2e:f9:57:b5, 2015-01-01 00:27:39.035,-0.003,0.001,1,0,0.427,-0.061, , , , , , ,0.176,0.154,-108.094
 12:41:31.776,eb:33:2e:f9:57:b5, 2015-01-01 00:27:39.035,-0.003,0.001,1,0,0.427,0, , , , , , ,0.176,0.154,-108.1
 12:41:31.776,eb:33:2e:f9:57:b5, 2015-01-01 00:27:39.035,-0.003,0.001,0.999,0,0.366,0, , , , , , ,0.176,0.154,-108.1
 12:41:31.776,eb:33:2e:f9:57:b5, 2015-01-01 00:27:39.035,-0.002,0.001,0.999,0,0.366,0, , , , , , ,0.176,0.154,-108.1
 12:41:31.776,eb:33:2e:f9:57:b5, 2015-01-01 00:27:39.035,-0.004,0.001,1,0,0.366,0, , , , , , ,0.176,0.154,-108.1
 12:41:31.821,eb:33:2e:f9:57:b5, 2015-01-01 00:27:39.035,-0.005,0.001,0.998,0,0.244,0, , , , , , ,0.176,0.154,-108.1
 12:41:31.821,eb:33:2e:f9:57:b5, 2015-01-01 00:27:39.035,-0.002,0.001,0.998,0,0.183,0, , , , , , ,0.176,0.154,-108.1
 12:41:31.821,eb:33:2e:f9:57:b5, 2015-01-01 00:27:39.035,-0.002,0.001,0.999,0,0.183,0, , , , , , ,0.176,0.154,-108.1
 12:41:31.821,eb:33:2e:f9:57:b5, 2015-01-01 00:27:39.035,-0.003,0,0.999,0,0.244,0, , , , , , ,0.176,0.154,-108.1
 12:41:31.821,eb:33:2e:f9:57:b5, 2015-01-01 00:27:39.035,-0.003,0,0.999,0,0.183,0, , , , , , ,0.17,0.154,-108.1
 12:41:31.821,eb:33:2e:f9:57:b5, 2015-01-01 00:27:39.035,-0.004,0,0.999,0,0.122,0, , , , , , ,0.17,0.154,-108.1
 12:41:31.821,eb:33:2e:f9:57:b5, 2015-01-01 00:27:39.035,-0.002,0,0.999,0,0.061,0.061, , , , , , ,0.17,0.154,-108.1
 12:41:31.821,eb:33:2e:f9:57:b5, 2015-01-01 00:27:39.035,-0.002,0,0.999,0.061,0.122,0, , , , , , ,0.17,0.154,-108.1
 12:41:31.843,eb:33:2e:f9:57:b5, 2015-01-01 00:27:39.325,-0.003,0,0.999,0.061,0.183,0.061, , , , , , ,0.17,0.154,-108.1
 12:41:31.843,eb:33:2e:f9:57:b5, 2015-01-01 00:27:39.325,-0.003,0.001,0.999,0.122,0.122,0.061, , , , , , ,0.17,0.154,-108.1
 12:41:31.843,eb:33:2e:f9:57:b5, 2015-01-01 00:27:39.325,-0.004,0.001,0.999,0.061,0.122,0, , , , , , ,0.17,0.154,-108.1
 12:41:31.843,eb:33:2e:f9:57:b5, 2015-01-01 00:27:39.325,-0.003,0.001,1,0.061,0.122,0.061, , , , , , ,0.17,0.154,-108.1
 12:41:31.843,eb:33:2e:f9:57:b5, 2015-01-01 00:27:39.325,-0.004,0.001,1,0.122,0.061,0.061, , , , , , ,0.17,0.154,-108.1
 12:41:31.843,eb:33:2e:f9:57:b5, 2015-01-01 00:27:39.325,-0.004,0,1,0.122,0.061,0.061, , , , , , ,0.17,0.154,-108.1
 12:41:31.843,eb:33:2e:f9:57:b5, 2015-01-01 00:27:39.325,-0.003,0,1,0.061,0,0.061, , , , , , ,0.17,0.154,-108.1
 12:41:31.843,eb:33:2e:f9:57:b5, 2015-01-01 00:27:39.325,-0.004,0,1,0.061,0,0.122, , , , , , ,0.17,0.154,-108.1
 12:41:31.888,eb:33:2e:f9:57:b5, 2015-01-01 00:27:39.325,-0.003,0.001,1,0.122,0,0.183, , , , , , ,0.17,0.154,-108.1
 12:41:31.888,eb:33:2e:f9:57:b5, 2015-01-01 00:27:39.325,-0.003,0.001,0.999,0.122,0,0.122, , , , , , ,0.17,0.154,-108.1
 12:41:31.888,eb:33:2e:f9:57:b5, 2015-01-01 00:27:39.325,-0.003,0.001,1,0.122,-0.061,0.061, , , , , , ,0.17,0.154,-108.1
 12:41:31.888,eb:33:2e:f9:57:b5, 2015-01-01 00:27:39.325,-0.003,0,0.999,0.122,0,0.061, , , , , , ,0.17,0.154,-108.1
 12:41:31.888,eb:33:2e:f9:57:b5, 2015-01-01 00:27:39.325,-0.003,0,1,0.183,-0.061,0.061, , , , , , ,0.17,0.154,-108.1
 12:41:31.888,eb:33:2e:f9:57:b5, 2015-01-01 00:27:39.325,-0.002,0.001,0.999,0.122,-0.061,0.061, , , , , , ,0.17,0.154,-108.1
 12:41:31.888,eb:33:2e:f9:57:b5, 2015-01-01 00:27:39.325,-0.003,0.001,0.999,0.122,0,0.061, , , , , , ,0.17,0.154,-108.1
 12:41:31.888,eb:33:2e:f9:57:b5, 2015-01-01 00:27:39.325,-0.002,0.001,0.999,0.122,0,0.061, , , , , , ,0.17,0.154,-108.1
 12:41:31.940,eb:33:2e:f9:57:b5, 2015-01-01 00:27:39.325,-0.003,0.001,1,0.183,0,0.122, , , , , , ,0.17,0.154,-108.1
 12:41:31.940,eb:33:2e:f9:57:b5, 2015-01-01 00:27:39.325,-0.004,0.001,1,0.122,0,0.122, , , , , , ,0.17,0.154,-108.1
 12:41:31.940,eb:33:2e:f9:57:b5, 2015-01-01 00:27:39.325,-0.003,0.001,0.999,0.122,-0.061,0.061, , , , , , ,0.17,0.154,-108.1
 12:41:31.940,eb:33:2e:f9:57:b5, 2015-01-01 00:27:39.325,-0.003,0.001,1,0.122,0,0.061, , , , , , ,0.17,0.154,-108.1
 12:41:31.940,eb:33:2e:f9:57:b5, 2015-01-01 00:27:39.325,-0.003,0,1,0.183,0,0.122, , , , , , ,0.17,0.154,-108.1
 12:41:31.940,eb:33:2e:f9:57:b5, 2015-01-01 00:27:39.325,-0.003,0,1,0.244,-0.061,0.122, , , , , , ,0.17,0.154,-108.1
 12:41:31.940,eb:33:2e:f9:57:b5, 2015-01-01 00:27:39.325,-0.003,0.001,1,0.183,-0.061,0.122, , , , , , ,0.17,0.154,-108.1
 12:41:31.940,eb:33:2e:f9:57:b5, 2015-01-01 00:27:39.325,-0.004,0,0.999,0.183,-0.061,0.061, , , , , , ,0.17,0.154,-108.1
 12:41:31.978,eb:33:2e:f9:57:b5, 2015-01-01 00:27:39.325,-0.003,0,0.998,0.122,-0.122,0.122, , , , , , ,0.17,0.159,-108.1
 12:41:31.978,eb:33:2e:f9:57:b5, 2015-01-01 00:27:39.325,-0.002,0.001,0.999,0.244,-0.122,0.122, , , , , , ,0.17,0.159,-108.1
 12:41:31.978,eb:33:2e:f9:57:b5, 2015-01-01 00:27:39.325,-0.002,0.001,1,0.244,-0.122,0.122, , , , , , ,0.17,0.159,-108.1
 12:41:31.978,eb:33:2e:f9:57:b5, 2015-01-01 00:27:39.325,-0.003,0.001,1,0.244,-0.061,0.122, , , , , , ,0.17,0.159,-108.1
 12:41:31.978,eb:33:2e:f9:57:b5, 2015-01-01 00:27:39.325,-0.002,0.001,0.999,0.244,-0.061,0.183, , , , , , ,0.17,0.159,-108.1
 12:41:31.978,eb:33:2e:f9:57:b5, 2015-01-01 00:27:39.325,-0.003,0.001,0.999,0.183,0,0.122, , , , , , ,0.17,0.159,-108.1
 12:41:31.978,eb:33:2e:f9:57:b5, 2015-01-01 00:27:39.325,0,0.001,0.999,0.244,-0.061,0.122, , , , , , ,0.17,0.159,-108.1
 12:41:31.978,eb:33:2e:f9:57:b5, 2015-01-01 00:27:39.325,-0.002,0.001,1.001,0.244,0.061,0.183, , , , , , ,0.17,0.159,-108.1
 12:41:32.047,eb:33:2e:f9:57:b5, 2015-01-01 00:27:39.325,-0.003,0.001,1,0.244,0.061,0.122, , , , , , ,0.165,0.159,-108.1
 12:41:32.047,eb:33:2e:f9:57:b5, 2015-01-01 00:27:39.325,-0.006,0.001,0.998,0.305,0,0.122, , , , , , ,0.165,0.159,-108.1
 12:41:32.047,eb:33:2e:f9:57:b5, 2015-01-01 00:27:39.325,-0.001,0.002,0.998,0.244,-0.061,0.122, , , , , , ,0.165,0.159,-108.1
 12:41:32.047,eb:33:2e:f9:57:b5, 2015-01-01 00:27:39.325,-0.001,0.001,1,0.183,0,0.061, , , , , , ,0.165,0.159,-108.1
 12:41:32.047,eb:33:2e:f9:57:b5, 2015-01-01 00:27:39.325,-0.002,0,1,0.183,0.061,0.122, , , , , , ,0.165,0.159,-108.1
 12:41:32.047,eb:33:2e:f9:57:b5, 2015-01-01 00:27:39.325,-0.004,0.002,1,0.244,0.122,0.122, , , , , , ,0.165,0.159,-108.1
 12:41:32.047,eb:33:2e:f9:57:b5, 2015-01-01 00:27:39.325,-0.004,0.001,0.998,0.183,0.061,0.061, , , , , , ,0.165,0.159,-108.1
 12:41:32.048,eb:33:2e:f9:57:b5, 2015-01-01 00:27:39.325,-0.003,0.002,0.998,0.183,0,0.122, , , , , , ,0.165,0.159,-108.1
 12:41:32.049,eb:33:2e:f9:57:b5, 2015-01-01 00:27:39.325,0,0,1,0.183,0,0.061, , , , , , ,0.165,0.159,-108.1
 12:41:32.049,eb:33:2e:f9:57:b5, 2015-01-01 00:27:39.325,-0.002,0.001,1,0.183,0,0.061, , , , , , ,0.165,0.159,-108.1
 12:41:32.049,eb:33:2e:f9:57:b5, 2015-01-01 00:27:39.325,-0.003,0.002,1,0.183,0.061,0.061, , , , , , ,0.165,0.159,-108.1
 12:41:32.049,eb:33:2e:f9:57:b5, 2015-01-01 00:27:39.325,-0.003,0.002,0.999,0.183,0.122,0.061, , , , , , ,0.165,0.159,-108.1
 12:41:32.051,eb:33:2e:f9:57:b5, 2015-01-01 00:27:39.325,-0.003,0.001,1,0.122,0.061,0.061, , , , , , ,0.165,0.159,-108.1
 12:41:32.051,eb:33:2e:f9:57:b5, 2015-01-01 00:27:39.325,-0.003,0.001,0.999,0.183,0.061,0.122, , , , , , ,0.165,0.159,-108.1
 12:41:32.051,eb:33:2e:f9:57:b5, 2015-01-01 00:27:39.325,-0.003,0.002,0.998,0.183,0.061,0.183, , , , , , ,0.165,0.159,-108.1
 12:41:32.051,eb:33:2e:f9:57:b5, 2015-01-01 00:27:39.325,-0.003,0.002,0.998,0.244,0.122,0.122, , , , , , ,0.165,0.159,-108.1
 12:41:32.113,eb:33:2e:f9:57:b5, 2015-01-01 00:27:39.325,-0.002,0.001,0.999,0.183,0.061,0.122, , , , , , ,0.165,0.159,-108.1
 12:41:32.113,eb:33:2e:f9:57:b5, 2015-01-01 00:27:39.325,-0.002,0.001,0.999,0.183,0.061,0.061, , , , , , ,0.165,0.159,-108.1
 12:41:32.113,eb:33:2e:f9:57:b5, 2015-01-01 00:27:39.325,-0.002,0.002,0.999,0.244,0.061,0.122, , , , , , ,0.165,0.159,-108.1
 12:41:32.113,eb:33:2e:f9:57:b5, 2015-01-01 00:27:39.325,-0.002,0.002,1,0.183,0.061,0.061, , , , , , ,0.165,0.159,-108.1
 12:41:32.113,eb:33:2e:f9:57:b5, 2015-01-01 00:27:39.325,-0.002,0.002,1,0.183,0.061,0.122, , , , , , ,0.165,0.159,-108.1
 12:41:32.113,eb:33:2e:f9:57:b5, 2015-01-01 00:27:39.325,-0.003,0.002,1,0.244,0.061,0.061, , , , , , ,0.165,0.159,-108.1
 12:41:32.113,eb:33:2e:f9:57:b5, 2015-01-01 00:27:39.325,-0.003,0.001,1,0.183,0.122,0.122, , , , , , ,0.165,0.159,-108.1
 12:41:32.114,eb:33:2e:f9:57:b5, 2015-01-01 00:27:39.325,-0.003,0.001,0.998,0.183,0,0.061, , , , , , ,0.165,0.159,-108.1
 12:41:32.136,eb:33:2e:f9:57:b5, 2015-01-01 00:27:39.325,-0.002,0.002,0.999,0.183,0,0, , , , , , ,0.165,0.159,-108.1
 12:41:32.136,eb:33:2e:f9:57:b5, 2015-01-01 00:27:39.325,-0.003,0.002,0.999,0.183,0,0.061, , , , , , ,0.165,0.159,-108.1
 12:41:32.136,eb:33:2e:f9:57:b5, 2015-01-01 00:27:39.325,-0.002,0.002,1,0.183,0.061,0.061, , , , , , ,0.165,0.159,-108.1
 12:41:32.136,eb:33:2e:f9:57:b5, 2015-01-01 00:27:39.325,-0.002,0.002,0.999,0.183,0.061,0.122, , , , , , ,0.165,0.159,-108.1
 12:41:32.136,eb:33:2e:f9:57:b5, 2015-01-01 00:27:39.325,-0.003,0.001,0.999,0.183,0.122,0.061, , , , , , ,0.165,0.159,-108.1
 12:41:32.136,eb:33:2e:f9:57:b5, 2015-01-01 00:27:39.325,-0.003,0.001,0.999,0.122,0.122,0.061, , , , , , ,0.165,0.159,-108.1
 12:41:32.136,eb:33:2e:f9:57:b5, 2015-01-01 00:27:39.325,-0.003,0.001,0.999,0.122,0.061,0.061, , , , , , ,0.165,0.159,-108.1
 12:41:32.136,eb:33:2e:f9:57:b5, 2015-01-01 00:27:39.325,-0.002,0.001,0.999,0.122,0.061,0.122, , , , , , ,0.165,0.159,-108.1
 12:41:32.181,eb:33:2e:f9:57:b5, 2015-01-01 00:27:39.325,-0.002,0.001,0.999,0.183,0.061,0.122, , , , , , ,0.165,0.159,-108.1
 12:41:32.181,eb:33:2e:f9:57:b5, 2015-01-01 00:27:39.325,-0.003,0.001,1,0.183,0.122,0.122, , , , , , ,0.165,0.159,-108.1
 12:41:32.181,eb:33:2e:f9:57:b5, 2015-01-01 00:27:39.325,-0.003,0.002,0.999,0.122,0.122,0.061, , , , , , ,0.165,0.159,-108.1
 12:41:32.181,eb:33:2e:f9:57:b5, 2015-01-01 00:27:39.325,-0.003,0.002,0.999,0.183,0.061,0.061, , , , , , ,0.165,0.159,-108.1
 12:41:32.181,eb:33:2e:f9:57:b5, 2015-01-01 00:27:39.325,-0.003,0.002,0.999,0.122,0.061,0.122, , , , , , ,0.165,0.159,-108.1
 12:41:32.181,eb:33:2e:f9:57:b5, 2015-01-01 00:27:39.325,-0.002,0.002,0.998,0.122,0.061,0.061, , , , , , ,0.165,0.159,-108.1
 12:41:32.181,eb:33:2e:f9:57:b5, 2015-01-01 00:27:39.325,-0.002,0.001,0.999,0.122,0.122,0.122, , , , , , ,0.165,0.159,-108.1
 12:41:32.181,eb:33:2e:f9:57:b5, 2015-01-01 00:27:39.325,-0.003,0.001,0.999,0.122,0.122,0.122, , , , , , ,0.165,0.159,-108.1
 12:41:32.204,eb:33:2e:f9:57:b5, 2015-01-01 00:27:39.660,-0.003,0.003,0.999,0.183,0.122,0.122, , , , , , ,0.165,0.159,-108.1
 12:41:32.204,eb:33:2e:f9:57:b5, 2015-01-01 00:27:39.660,-0.002,0.001,0.999,0.183,0.122,0.122, , , , , , ,0.165,0.159,-108.1
 12:41:32.204,eb:33:2e:f9:57:b5, 2015-01-01 00:27:39.660,-0.002,0.001,1,0.183,0.183,0.122, , , , , , ,0.165,0.159,-108.1
 12:41:32.204,eb:33:2e:f9:57:b5, 2015-01-01 00:27:39.660,-0.003,0.002,1,0.244,0.183,0.122, , , , , , ,0.165,0.159,-108.1
 12:41:32.204,eb:33:2e:f9:57:b5, 2015-01-01 00:27:39.660,-0.002,0.002,1,0.244,0.183,0.122, , , , , , ,0.165,0.159,-108.1
 12:41:32.204,eb:33:2e:f9:57:b5, 2015-01-01 00:27:39.660,-0.002,0.002,0.999,0.183,0.122,0.183, , , , , , ,0.165,0.159,-108.1
 12:41:32.204,eb:33:2e:f9:57:b5, 2015-01-01 00:27:39.660,-0.003,0.001,1,0.183,0.122,0.183, , , , , , ,0.165,0.159,-108.1
 12:41:32.204,eb:33:2e:f9:57:b5, 2015-01-01 00:27:39.660,-0.003,0.001,1,0.244,0.122,0.183, , , , , , ,0.165,0.159,-108.1
 12:41:32.316,eb:33:2e:f9:57:b5, 2015-01-01 00:27:39.660,-0.002,0.001,1,0.244,0.122,0.183, , , , , , ,0.165,0.159,-108.1
 12:41:32.316,eb:33:2e:f9:57:b5, 2015-01-01 00:27:39.660,-0.003,0.002,1,0.244,0.122,0.244, , , , , , ,0.165,0.159,-108.1
 12:41:32.316,eb:33:2e:f9:57:b5, 2015-01-01 00:27:39.660,-0.004,0.002,1,0.244,0.061,0.183, , , , , , ,0.165,0.159,-108.1
 12:41:32.316,eb:33:2e:f9:57:b5, 2015-01-01 00:27:39.660,-0.003,0.001,0.998,0.305,0,0.244, , , , , , ,0.165,0.159,-108.1
 12:41:32.317,eb:33:2e:f9:57:b5, 2015-01-01 00:27:39.660,-0.003,0.001,0.999,0.183,0,0.183, , , , , , ,0.165,0.159,-108.105
 12:41:32.317,eb:33:2e:f9:57:b5, 2015-01-01 00:27:39.660,-0.003,0.002,0.999,0.244,0,0.244, , , , , , ,0.165,0.159,-108.105
 12:41:32.317,eb:33:2e:f9:57:b5, 2015-01-01 00:27:39.660,-0.004,0.001,0.999,0.244,0,0.183, , , , , , ,0.165,0.159,-108.105
 12:41:32.317,eb:33:2e:f9:57:b5, 2015-01-01 00:27:39.660,-0.002,0.002,0.999,0.244,0,0.122, , , , , , ,0.165,0.159,-108.105
 12:41:32.317,eb:33:2e:f9:57:b5, 2015-01-01 00:27:39.660,-0.002,0.002,0.999,0.183,0,0.183, , , , , , ,0.159,0.159,-108.105
 12:41:32.317,eb:33:2e:f9:57:b5, 2015-01-01 00:27:39.660,-0.003,0.002,1,0.244,0,0.183, , , , , , ,0.159,0.159,-108.105
 12:41:32.317,eb:33:2e:f9:57:b5, 2015-01-01 00:27:39.660,-0.004,0.002,0.999,0.244,0,0.183, , , , , , ,0.159,0.159,-108.105
 12:41:32.317,eb:33:2e:f9:57:b5, 2015-01-01 00:27:39.660,-0.004,0.002,1,0.244,0,0.183, , , , , , ,0.159,0.159,-108.105
 12:41:32.317,eb:33:2e:f9:57:b5, 2015-01-01 00:27:39.660,-0.004,0.002,0.999,0.244,0,0.183, , , , , , ,0.159,0.159,-108.105
 12:41:32.317,eb:33:2e:f9:57:b5, 2015-01-01 00:27:39.660,-0.003,0.002,0.999,0.244,0,0.183, , , , , , ,0.159,0.159,-108.105
 12:41:32.317,eb:33:2e:f9:57:b5, 2015-01-01 00:27:39.660,-0.003,0.002,0.999,0.244,-0.061,0.122, , , , , , ,0.159,0.159,-108.105
 12:41:32.317,eb:33:2e:f9:57:b5, 2015-01-01 00:27:39.660,-0.002,0.002,0.999,0.244,-0.061,0.122, , , , , , ,0.159,0.159,-108.105
 12:41:32.338,eb:33:2e:f9:57:b5, 2015-01-01 00:27:39.660,-0.002,0.002,0.999,0.183,0,0.183, , , , , , ,0.159,0.159,-108.105
 12:41:32.338,eb:33:2e:f9:57:b5, 2015-01-01 00:27:39.660,-0.003,0.002,1,0.244,0,0.122, , , , , , ,0.159,0.159,-108.105
 12:41:32.338,eb:33:2e:f9:57:b5, 2015-01-01 00:27:39.660,-0.002,0.001,0.999,0.244,0,0.183, , , , , , ,0.159,0.159,-108.105
 12:41:32.338,eb:33:2e:f9:57:b5, 2015-01-01 00:27:39.660,-0.002,0.002,1,0.244,0,0.183, , , , , , ,0.159,0.159,-108.105
 12:41:32.338,eb:33:2e:f9:57:b5, 2015-01-01 00:27:39.660,-0.003,0.002,1,0.183,0.061,0.244, , , , , , ,0.159,0.159,-108.105
 12:41:32.338,eb:33:2e:f9:57:b5, 2015-01-01 00:27:39.660,-0.004,0.001,1,0.244,0.122,0.183, , , , , , ,0.159,0.159,-108.105
 12:41:32.338,eb:33:2e:f9:57:b5, 2015-01-01 00:27:39.660,-0.005,0.001,0.999,0.244,0.061,0.183, , , , , , ,0.159,0.159,-108.105
 12:41:32.338,eb:33:2e:f9:57:b5, 2015-01-01 00:27:39.660,-0.003,0,1,0.366,-0.061,0.305, , , , , , ,0.159,0.159,-108.105
 12:41:32.384,eb:33:2e:f9:57:b5, 2015-01-01 00:27:39.660,-0.001,0,1,0.488,-0.061,0.366, , , , , , ,0.159,0.159,-108.105
 12:41:32.384,eb:33:2e:f9:57:b5, 2015-01-01 00:27:39.660,-0.005,0.003,1,0.488,0,0.366, , , , , , ,0.159,0.159,-108.105
 12:41:32.384,eb:33:2e:f9:57:b5, 2015-01-01 00:27:39.660,-0.004,0.002,0.998,0.488,0,0.427, , , , , , ,0.159,0.159,-108.105
 12:41:32.384,eb:33:2e:f9:57:b5, 2015-01-01 00:27:39.660,-0.001,0.001,0.999,0.549,-0.122,0.427, , , , , , ,0.159,0.159,-108.105
