Time,Device name,Chip Time(),Acceleration X(g),Acceleration Y(g),Acceleration Z(g),Angular velocity X(°/s),Angular velocity Y(°/s),Angular velocity Z(°/s),ShiftX(mm),ShiftY(mm),ShiftZ(mm),SpeedX(mm/s),SpeedY(mm/s),SpeedZ(mm/s),Angle X(°),Angle Y(°),Angle Z(°)
 12:47:04.336,eb:33:2e:f9:57:b5, 2015-01-01 00:33:08.930,0.071,-0.282,0.98,-19.653,-2.136,52.063, , , , , , ,0.253,-0.659,-112.626
 12:47:04.336,eb:33:2e:f9:57:b5, 2015-01-01 00:33:08.930,0.019,-0.236,0.988,-23.254,-3.052,53.101, , , , , , ,0.137,-0.676,-112.363
 12:47:04.336,eb:33:2e:f9:57:b5, 2015-01-01 00:33:08.930,0.016,-0.186,0.955,-27.344,-9.888,48.889, , , , , , ,0.005,-0.709,-112.11
 12:47:04.336,eb:33:2e:f9:57:b5, 2015-01-01 00:33:08.930,0.011,-0.149,0.974,-32.654,-13.611,47.058, , , , , , ,-0.143,-0.769,-111.868
 12:47:04.336,eb:33:2e:f9:57:b5, 2015-01-01 00:33:08.930,0.005,-0.065,0.971,-39.062,-17.334,45.471, , , , , , ,-0.33,-0.846,-111.638
 12:47:04.336,eb:33:2e:f9:57:b5, 2015-01-01 00:33:08.930,-0.035,0.007,1.001,-46.509,-20.325,41.443, , , , , , ,-0.555,-0.945,-111.423
 12:47:04.336,eb:33:2e:f9:57:b5, 2015-01-01 00:33:08.930,-0.062,0.049,0.993,-53.772,-24.597,37.903, , , , , , ,-0.813,-1.055,-111.226
 12:47:04.336,eb:33:2e:f9:57:b5, 2015-01-01 00:33:08.930,-0.082,0.087,1.001,-60.852,-27.039,36.194, , , , , , ,-1.11,-1.187,-111.039
 12:47:04.358,eb:33:2e:f9:57:b5, 2015-01-01 00:33:09.245,-0.099,0.115,1.005,-66.589,-30.029,34.363, , , , , , ,-1.434,-1.329,-110.863
 12:47:04.358,eb:33:2e:f9:57:b5, 2015-01-01 00:33:09.245,-0.101,0.134,1.021,-70.74,-33.691,34.058, , , , , , ,-1.791,-1.483,-110.687
 12:47:04.358,eb:33:2e:f9:57:b5, 2015-01-01 00:33:09.245,-0.125,0.145,1.067,-73.608,-34.546,32.043, , , , , , ,-2.159,-1.648,-110.517
 12:47:04.358,eb:33:2e:f9:57:b5, 2015-01-01 00:33:09.245,-0.128,0.154,1.07,-74.707,-34.424,30.273, , , , , , ,-2.532,-1.818,-110.358
 12:47:04.358,eb:33:2e:f9:57:b5, 2015-01-01 00:33:09.245,-0.132,0.183,1.104,-74.402,-31.433,28.564, , , , , , ,-2.911,-1.972,-110.204
 12:47:04.358,eb:33:2e:f9:57:b5, 2015-01-01 00:33:09.245,-0.148,0.217,1.129,-72.937,-27.344,27.405, , , , , , ,-3.29,-2.109,-110.056
 12:47:04.358,eb:33:2e:f9:57:b5, 2015-01-01 00:33:09.245,-0.165,0.241,1.134,-70.679,-23.499,26.855, , , , , , ,-3.653,-2.23,-109.913
 12:47:04.358,eb:33:2e:f9:57:b5, 2015-01-01 00:33:09.245,-0.174,0.264,1.128,-67.81,-20.02,26.855, , , , , , ,-4.005,-2.324,-109.775
 12:47:04.402,eb:33:2e:f9:57:b5, 2015-01-01 00:33:09.245,-0.182,0.295,1.123,-64.819,-17.029,27.466, , , , , , ,-4.345,-2.406,-109.633
 12:47:04.402,eb:33:2e:f9:57:b5, 2015-01-01 00:33:09.245,-0.192,0.313,1.13,-62.073,-13.794,28.687, , , , , , ,-4.669,-2.472,-109.484
 12:47:04.402,eb:33:2e:f9:57:b5, 2015-01-01 00:33:09.245,-0.201,0.34,1.146,-59.998,-9.521,30.334, , , , , , ,-4.977,-2.516,-109.33
 12:47:04.402,eb:33:2e:f9:57:b5, 2015-01-01 00:33:09.245,-0.2,0.371,1.155,-58.716,-4.7,32.166, , , , , , ,-5.284,-2.538,-109.171
 12:47:04.402,eb:33:2e:f9:57:b5, 2015-01-01 00:33:09.245,-0.189,0.416,1.153,-57.739,1.648,34.18, , , , , , ,-5.581,-2.527,-109.006
 12:47:04.402,eb:33:2e:f9:57:b5, 2015-01-01 00:33:09.245,-0.176,0.459,1.126,-56.946,6.836,35.278, , , , , , ,-5.878,-2.483,-108.836
 12:47:04.402,eb:33:2e:f9:57:b5, 2015-01-01 00:33:09.245,-0.161,0.5,1.077,-55.42,10.376,35.95, , , , , , ,-6.169,-2.422,-108.66
 12:47:04.402,eb:33:2e:f9:57:b5, 2015-01-01 00:33:09.245,-0.149,0.545,1.028,-52.856,11.658,35.95, , , , , , ,-6.443,-2.346,-108.49
 12:47:04.449,eb:33:2e:f9:57:b5, 2015-01-01 00:33:09.245,-0.144,0.595,0.983,-49.072,10.559,35.156, , , , , , ,-6.707,-2.269,-108.32
 12:47:04.449,eb:33:2e:f9:57:b5, 2015-01-01 00:33:09.245,-0.141,0.643,0.946,-44.067,7.751,33.813, , , , , , ,-6.949,-2.203,-108.155
 12:47:04.449,eb:33:2e:f9:57:b5, 2015-01-01 00:33:09.245,-0.151,0.685,0.926,-38.452,3.906,32.349, , , , , , ,-7.158,-2.159,-107.996
 12:47:04.449,eb:33:2e:f9:57:b5, 2015-01-01 00:33:09.245,-0.171,0.719,0.917,-32.471,0.183,30.762, , , , , , ,-7.339,-2.131,-107.842
 12:47:04.449,eb:33:2e:f9:57:b5, 2015-01-01 00:33:09.245,-0.192,0.739,0.92,-26.611,-2.686,29.663, , , , , , ,-7.487,-2.12,-107.693
 12:47:04.449,eb:33:2e:f9:57:b5, 2015-01-01 00:33:09.245,-0.22,0.748,0.939,-20.813,-3.784,29.114, , , , , , ,-7.614,-2.115,-107.545
 12:47:04.449,eb:33:2e:f9:57:b5, 2015-01-01 00:33:09.245,-0.25,0.748,0.959,-15.503,-3.113,28.992, , , , , , ,-7.707,-2.115,-107.402
 12:47:04.449,eb:33:2e:f9:57:b5, 2015-01-01 00:33:09.245,-0.274,0.74,0.98,-10.681,-0.366,29.419, , , , , , ,-7.778,-2.104,-107.26
 12:47:04.492,eb:33:2e:f9:57:b5, 2015-01-01 00:33:09.245,-0.293,0.728,0.992,-6.592,3.784,30.212, , , , , , ,-7.822,-2.076,-107.111
 12:47:04.492,eb:33:2e:f9:57:b5, 2015-01-01 00:33:09.245,-0.305,0.713,0.988,-2.93,8.728,31.311, , , , , , ,-7.85,-2.021,-106.963
 12:47:04.492,eb:33:2e:f9:57:b5, 2015-01-01 00:33:09.245,-0.304,0.7,0.978,0.549,13.611,32.471, , , , , , ,-7.861,-1.939,-106.815
 12:47:04.492,eb:33:2e:f9:57:b5, 2015-01-01 00:33:09.245,-0.292,0.691,0.968,4.15,18.066,33.264, , , , , , ,-7.855,-1.835,-106.661
 12:47:04.492,eb:33:2e:f9:57:b5, 2015-01-01 00:33:09.245,-0.267,0.688,0.959,7.874,22.034,33.63, , , , , , ,-7.828,-1.714,-106.512
 12:47:04.492,eb:33:2e:f9:57:b5, 2015-01-01 00:33:09.245,-0.231,0.688,0.952,11.719,25.269,33.325, , , , , , ,-7.784,-1.571,-106.359
 12:47:04.493,eb:33:2e:f9:57:b5, 2015-01-01 00:33:09.245,-0.191,0.691,0.94,15.503,27.71,32.166, , , , , , ,-7.718,-1.417,-106.216
 12:47:04.493,eb:33:2e:f9:57:b5, 2015-01-01 00:33:09.245,-0.147,0.693,0.919,19.104,29.114,30.151, , , , , , ,-7.63,-1.252,-106.084
 12:47:04.539,eb:33:2e:f9:57:b5, 2015-01-01 00:33:09.245,-0.102,0.691,0.892,21.912,29.236,27.283, , , , , , ,-7.531,-1.088,-105.963
 12:47:04.539,eb:33:2e:f9:57:b5, 2015-01-01 00:33:09.245,0.25,0.677,0.862,23.804,28.015,23.682, , , , , , ,-7.416,-0.928,-105.859
 12:47:04.539,eb:33:2e:f9:57:b5, 2015-01-01 00:33:09.245,0.923,0.554,1.336,34.485,2.38,5.676, , , , , , ,-7.273,-0.84,-105.793
 12:47:04.539,eb:33:2e:f9:57:b5, 2015-01-01 00:33:09.245,0.566,-0.425,2.095,56.396,1.648,0.366, , , , , , ,-7.031,-0.862,-105.798
 12:47:04.539,eb:33:2e:f9:57:b5, 2015-01-01 00:33:09.245,0.885,-0.659,1.109,50.72,15.564,-9.521, , , , , , ,-6.768,-0.807,-105.831
 12:47:04.539,eb:33:2e:f9:57:b5, 2015-01-01 00:33:09.245,0.275,-1.559,1.145,51.819,21.057,-6.714, , , , , , ,-6.515,-0.725,-105.886
 12:47:04.539,eb:33:2e:f9:57:b5, 2015-01-01 00:33:09.245,0.241,-0.587,1.023,65.735,22.827,-19.897, , , , , , ,-6.213,-0.621,-105.963
 12:47:04.539,eb:33:2e:f9:57:b5, 2015-01-01 00:33:09.245,0.158,-0.609,1.037,82.52,30.396,-22.339, , , , , , ,-5.839,-0.5,-106.095
 12:47:04.583,eb:33:2e:f9:57:b5, 2015-01-01 00:33:09.245,0.041,-0.468,0.988,100.83,38.025,-15.137, , , , , , ,-5.367,-0.33,-106.199
 12:47:04.583,eb:33:2e:f9:57:b5, 2015-01-01 00:33:09.245,0,-0.37,1.008,112.61,43.213,-4.028, , , , , , ,-4.828,-0.132,-106.265
 12:47:04.583,eb:33:2e:f9:57:b5, 2015-01-01 00:33:09.245,-0.032,-0.265,0.992,119.751,45.959,6.104, , , , , , ,-4.241,0.088,-106.265
 12:47:04.584,eb:33:2e:f9:57:b5, 2015-01-01 00:33:09.245,-0.02,-0.219,1.008,123.596,46.936,13.733, , , , , , ,-3.631,0.33,-106.232
 12:47:04.584,eb:33:2e:f9:57:b5, 2015-01-01 00:33:09.245,-0.016,-0.11,1.106,121.765,46.753,17.456, , , , , , ,-3.016,0.571,-106.166
 12:47:04.584,eb:33:2e:f9:57:b5, 2015-01-01 00:33:09.245,-0.009,0.056,1.137,113.22,45.044,17.334, , , , , , ,-2.428,0.802,-106.089
 12:47:04.584,eb:33:2e:f9:57:b5, 2015-01-01 00:33:09.245,-0.24,0.261,1.24,99.731,49.744,12.634, , , , , , ,-1.901,1.044,-106.029
 12:47:04.584,eb:33:2e:f9:57:b5, 2015-01-01 00:33:09.245,-0.213,0.44,1.014,78.247,42.114,1.526, , , , , , ,-1.467,1.263,-106.007
 12:47:04.606,eb:33:2e:f9:57:b5, 2015-01-01 00:33:09.245,-0.216,0.314,0.944,63.049,33.386,-1.831, , , , , , ,-1.121,1.456,-106.018
 12:47:04.606,eb:33:2e:f9:57:b5, 2015-01-01 00:33:09.245,-0.126,0.265,0.898,47.974,21.423,-1.221, , , , , , ,-0.857,1.593,-106.035
 12:47:04.606,eb:33:2e:f9:57:b5, 2015-01-01 00:33:09.245,-0.115,0.177,0.943,35.767,15.869,-5.127, , , , , , ,-0.659,1.692,-106.068
 12:47:04.606,eb:33:2e:f9:57:b5, 2015-01-01 00:33:09.245,-0.063,0.143,0.959,28.198,9.827,-5.31, , , , , , ,-0.5,1.741,-106.095
 12:47:04.606,eb:33:2e:f9:57:b5, 2015-01-01 00:33:09.245,-0.039,0.059,0.993,24.414,8.057,-5.188, , , , , , ,-0.374,1.78,-106.117
 12:47:04.606,eb:33:2e:f9:57:b5, 2015-01-01 00:33:09.245,-0.018,0.009,1.015,22.522,8.362,-3.235, , , , , , ,-0.258,1.813,-106.122
 12:47:04.606,eb:33:2e:f9:57:b5, 2015-01-01 00:33:09.245,-0.053,-0.014,1.045,21.912,9.888,1.831, , , , , , ,-0.143,1.857,-106.128
 12:47:04.606,eb:33:2e:f9:57:b5, 2015-01-01 00:33:09.245,-0.038,-0.032,0.984,20.325,6.592,2.014, , , , , , ,-0.038,1.895,-106.122
 12:47:04.652,eb:33:2e:f9:57:b5, 2015-01-01 00:33:09.245,0.006,0.011,1.017,17.456,5.554,3.174, , , , , , ,0.049,1.928,-106.111
 12:47:04.652,eb:33:2e:f9:57:b5, 2015-01-01 00:33:09.245,-0.069,0.127,1.026,11.536,5.737,2.747, , , , , , ,0.121,1.956,-106.095
 12:47:04.652,eb:33:2e:f9:57:b5, 2015-01-01 00:33:09.245,-0.033,0.009,0.948,8.484,2.441,4.333, , , , , , ,0.165,1.972,-106.073
 12:47:04.652,eb:33:2e:f9:57:b5, 2015-01-01 00:33:09.245,-0.042,0.035,0.985,5.737,2.563,4.272, , , , , , ,0.198,1.994,-106.057
 12:47:04.652,eb:33:2e:f9:57:b5, 2015-01-01 00:33:09.245,-0.046,0.055,0.987,4.15,0.244,2.625, , , , , , ,0.225,1.994,-106.04
 12:47:04.652,eb:33:2e:f9:57:b5, 2015-01-01 00:33:09.245,-0.045,0.032,0.991,3.784,-1.038,2.38, , , , , , ,0.247,1.994,-106.024
 12:47:04.652,eb:33:2e:f9:57:b5, 2015-01-01 00:33:09.245,-0.044,0.03,0.979,2.38,-2.136,1.709, , , , , , ,0.258,1.983,-106.018
 12:47:04.652,eb:33:2e:f9:57:b5, 2015-01-01 00:33:09.245,-0.042,0.017,0.994,2.075,-2.747,1.77, , , , , , ,0.269,1.972,-106.007
 12:47:04.695,eb:33:2e:f9:57:b5, 2015-01-01 00:33:09.555,-0.04,0.025,0.991,1.282,-3.235,1.038, , , , , , ,0.28,1.956,-106.002
 12:47:04.695,eb:33:2e:f9:57:b5, 2015-01-01 00:33:09.555,-0.035,0.023,0.993,0.732,-4.089,-0.183, , , , , , ,0.28,1.934,-105.996
 12:47:04.695,eb:33:2e:f9:57:b5, 2015-01-01 00:33:09.555,-0.042,0.024,1.001,0,-3.784,-1.465, , , , , , ,0.28,1.917,-106.002
 12:47:04.695,eb:33:2e:f9:57:b5, 2015-01-01 00:33:09.555,-0.037,0.019,0.994,-0.427,-4.456,-2.258, , , , , , ,0.28,1.895,-106.018
 12:47:04.695,eb:33:2e:f9:57:b5, 2015-01-01 00:33:09.555,-0.036,0.015,0.997,-0.854,-4.7,-2.075, , , , , , ,0.275,1.873,-106.029
 12:47:04.695,eb:33:2e:f9:57:b5, 2015-01-01 00:33:09.555,-0.033,0.015,0.996,-1.282,-4.883,-2.014, , , , , , ,0.269,1.846,-106.04
 12:47:04.695,eb:33:2e:f9:57:b5, 2015-01-01 00:33:09.555,-0.035,0.011,1,-1.404,-4.7,-2.014, , , , , , ,0.258,1.824,-106.051
 12:47:04.695,eb:33:2e:f9:57:b5, 2015-01-01 00:33:09.555,-0.035,0.006,0.999,-1.526,-5.005,-1.099, , , , , , ,0.253,1.796,-106.057
 12:47:04.741,eb:33:2e:f9:57:b5, 2015-01-01 00:33:09.555,-0.038,0.005,0.998,-1.587,-5.249,-0.916, , , , , , ,0.242,1.774,-106.062
 12:47:04.741,eb:33:2e:f9:57:b5, 2015-01-01 00:33:09.555,-0.04,0.004,0.996,-1.709,-6.287,-0.305, , , , , , ,0.236,1.741,-106.068
 12:47:04.741,eb:33:2e:f9:57:b5, 2015-01-01 00:33:09.555,-0.034,0.008,0.991,-1.77,-7.568,-0.183, , , , , , ,0.225,1.708,-106.068
 12:47:04.741,eb:33:2e:f9:57:b5, 2015-01-01 00:33:09.555,-0.04,0.007,1.001,-1.648,-7.568,0.244, , , , , , ,0.214,1.67,-106.073
 12:47:04.741,eb:33:2e:f9:57:b5, 2015-01-01 00:33:09.555,-0.036,0.003,0.991,-1.648,-8.362,0.183, , , , , , ,0.203,1.626,-106.068
 12:47:04.741,eb:33:2e:f9:57:b5, 2015-01-01 00:33:09.555,-0.037,0.002,0.995,-1.587,-8.85,0.427, , , , , , ,0.198,1.582,-106.068
 12:47:04.741,eb:33:2e:f9:57:b5, 2015-01-01 00:33:09.555,-0.039,0.006,0.994,-1.587,-9.399,0.366, , , , , , ,0.187,1.538,-106.068
 12:47:04.741,eb:33:2e:f9:57:b5, 2015-01-01 00:33:09.555,-0.035,0.002,0.993,-1.587,-10.193,0.732, , , , , , ,0.181,1.489,-106.068
 12:47:04.762,eb:33:2e:f9:57:b5, 2015-01-01 00:33:09.555,-0.039,0.006,0.999,-1.465,-10.62,0.244, , , , , , ,0.17,1.434,-106.062
 12:47:04.762,eb:33:2e:f9:57:b5, 2015-01-01 00:33:09.555,-0.042,0.007,0.992,-1.648,-11.536,0.122, , , , , , ,0.165,1.379,-106.062
 12:47:04.762,eb:33:2e:f9:57:b5, 2015-01-01 00:33:09.555,-0.036,0.001,0.99,-1.648,-12.756,0.061, , , , , , ,0.154,1.318,-106.062
 12:47:04.762,eb:33:2e:f9:57:b5, 2015-01-01 00:33:09.555,-0.032,0,0.995,-1.526,-13.794,0.183, , , , , , ,0.143,1.252,-106.062
 12:47:04.762,eb:33:2e:f9:57:b5, 2015-01-01 00:33:09.555,-0.031,0.002,0.997,-1.465,-14.526,0.122, , , , , , ,0.137,1.181,-106.062
 12:47:04.762,eb:33:2e:f9:57:b5, 2015-01-01 00:33:09.555,-0.028,0.004,0.994,-1.404,-15.32,0.183, , , , , , ,0.126,1.104,-106.062
 12:47:04.762,eb:33:2e:f9:57:b5, 2015-01-01 00:33:09.555,-0.025,0.006,0.996,-1.343,-15.93,0, , , , , , ,0.121,1.022,-106.062
 12:47:04.762,eb:33:2e:f9:57:b5, 2015-01-01 00:33:09.555,-0.018,0.001,0.999,-1.343,-16.602,0.183, , , , , , ,0.115,0.945,-106.068
 12:47:04.808,eb:33:2e:f9:57:b5, 2015-01-01 00:33:09.555,-0.013,0.001,1.003,-1.343,-16.724,0.061, , , , , , ,0.104,0.857,-106.068
 12:47:04.808,eb:33:2e:f9:57:b5, 2015-01-01 00:33:09.555,-0.004,0.004,1.005,-1.282,-16.174,0, , , , , , ,0.099,0.775,-106.068
 12:47:04.808,eb:33:2e:f9:57:b5, 2015-01-01 00:33:09.555,-0.001,0.005,1.01,-1.221,-14.893,0, , , , , , ,0.093,0.698,-106.068
 12:47:04.808,eb:33:2e:f9:57:b5, 2015-01-01 00:33:09.555,-0.001,0.008,1.012,-1.221,-13.428,0.061, , , , , , ,0.082,0.626,-106.068
 12:47:04.808,eb:33:2e:f9:57:b5, 2015-01-01 00:33:09.555,-0.002,0.01,1.01,-1.343,-12.024,0.061, , , , , , ,0.077,0.566,-106.068
 12:47:04.808,eb:33:2e:f9:57:b5, 2015-01-01 00:33:09.555,-0.006,0.01,1.006,-1.526,-10.864,0.183, , , , , , ,0.071,0.505,-106.068
 12:47:04.808,eb:33:2e:f9:57:b5, 2015-01-01 00:33:09.555,-0.006,0.008,1.004,-1.648,-10.193,0.183, , , , , , ,0.06,0.456,-106.068
 12:47:04.809,eb:33:2e:f9:57:b5, 2015-01-01 00:33:09.555,0,0.008,1.003,-1.77,-9.399,0.183, , , , , , ,0.049,0.406,-106.068
 12:47:04.853,eb:33:2e:f9:57:b5, 2015-01-01 00:33:09.555,0,0.007,1.008,-1.77,-8.301,0.122, , , , , , ,0.038,0.363,-106.068
 12:47:04.853,eb:33:2e:f9:57:b5, 2015-01-01 00:33:09.555,0,0.007,1.008,-1.831,-7.141,0.122, , , , , , ,0.033,0.324,-106.068
 12:47:04.853,eb:33:2e:f9:57:b5, 2015-01-01 00:33:09.555,-0.001,0.006,1.007,-1.77,-6.042,0.183, , , , , , ,0.022,0.291,-106.068
 12:47:04.853,eb:33:2e:f9:57:b5, 2015-01-01 00:33:09.555,-0.002,0.006,1.006,-1.709,-5.188,0.122, , , , , , ,0.011,0.264,-106.068
 12:47:04.853,eb:33:2e:f9:57:b5, 2015-01-01 00:33:09.555,-0.004,0.004,1.005,-1.709,-4.456,0.061, , , , , , ,0,0.236,-106.068
 12:47:04.853,eb:33:2e:f9:57:b5, 2015-01-01 00:33:09.555,-0.005,0.003,1.005,-1.587,-3.906,0, , , , , , ,0,0.22,-106.068
 12:47:04.853,eb:33:2e:f9:57:b5, 2015-01-01 00:33:09.555,-0.007,0.001,1.005,-1.465,-3.296,0, , , , , , ,-0.011,0.198,-106.068
 12:47:04.853,eb:33:2e:f9:57:b5, 2015-01-01 00:33:09.555,-0.01,0,1.005,-1.16,-2.869,0, , , , , , ,-0.016,0.181,-106.068
 12:47:04.898,eb:33:2e:f9:57:b5, 2015-01-01 00:33:09.555,-0.012,-0.001,1.005,-0.793,-2.625,0.061, , , , , , ,-0.022,0.17,-106.068
 12:47:04.898,eb:33:2e:f9:57:b5, 2015-01-01 00:33:09.555,-0.014,-0.003,1.004,-0.305,-2.563,0, , , , , , ,-0.027,0.159,-106.068
 12:47:04.898,eb:33:2e:f9:57:b5, 2015-01-01 00:33:09.555,-0.009,-0.003,1.006,0.183,-2.563,0, , , , , , ,-0.027,0.143,-106.068
 12:47:04.898,eb:33:2e:f9:57:b5, 2015-01-01 00:33:09.555,-0.008,-0.002,1.008,0.549,-2.319,-0.061, , , , , , ,-0.027,0.132,-106.073
 12:47:04.898,eb:33:2e:f9:57:b5, 2015-01-01 00:33:09.555,-0.009,-0.002,1.008,1.038,-1.953,-0.061, , , , , , ,-0.022,0.121,-106.073
 12:47:04.898,eb:33:2e:f9:57:b5, 2015-01-01 00:33:09.555,-0.011,-0.002,1.007,1.526,-1.526,0, , , , , , ,-0.016,0.11,-106.073
 12:47:04.898,eb:33:2e:f9:57:b5, 2015-01-01 00:33:09.555,-0.005,0,1.005,1.892,-1.404,0.122, , , , , , ,-0.005,0.104,-106.073
 12:47:04.899,eb:33:2e:f9:57:b5, 2015-01-01 00:33:09.555,-0.001,0.001,1.007,2.197,-0.732,0.061, , , , , , ,0,0.099,-106.073
 12:47:04.967,eb:33:2e:f9:57:b5, 2015-01-01 00:33:09.555,-0.002,0.003,1.008,2.319,0,0, , , , , , ,0.005,0.093,-106.073
 12:47:04.967,eb:33:2e:f9:57:b5, 2015-01-01 00:33:09.555,-0.01,0.003,1.006,2.563,0.61,0, , , , , , ,0.022,0.099,-106.073
 12:47:04.967,eb:33:2e:f9:57:b5, 2015-01-01 00:33:09.555,-0.008,0.001,1.001,2.747,0.671,0, , , , , , ,0.033,0.099,-106.073
 12:47:04.967,eb:33:2e:f9:57:b5, 2015-01-01 00:33:09.555,-0.007,0,1.003,2.991,1.038,0, , , , , , ,0.044,0.104,-106.078
 12:47:04.967,eb:33:2e:f9:57:b5, 2015-01-01 00:33:09.555,-0.006,0,1.004,3.357,1.343,0.061, , , , , , ,0.06,0.11,-106.078
 12:47:04.967,eb:33:2e:f9:57:b5, 2015-01-01 00:33:09.555,-0.006,0,1.005,3.601,1.709,0.122, , , , , , ,0.077,0.121,-106.078
 12:47:04.967,eb:33:2e:f9:57:b5, 2015-01-01 00:33:09.555,-0.008,0.001,1.004,3.845,2.136,0.244, , , , , , ,0.099,0.126,-106.073
 12:47:04.968,eb:33:2e:f9:57:b5, 2015-01-01 00:33:09.555,-0.004,0,1.004,4.15,2.502,0.305, , , , , , ,0.115,0.137,-106.078
 12:47:04.968,eb:33:2e:f9:57:b5, 2015-01-01 00:33:09.555,0.006,0.002,1.007,4.395,3.235,0.244, , , , , , ,0.137,0.154,-106.073
 12:47:04.968,eb:33:2e:f9:57:b5, 2015-01-01 00:33:09.555,0.003,0.007,1.012,4.456,4.639,0, , , , , , ,0.159,0.176,-106.073
 12:47:04.968,eb:33:2e:f9:57:b5, 2015-01-01 00:33:09.555,-0.005,0.007,1.009,4.7,5.798,-0.244, , , , , , ,0.181,0.203,-106.078
 12:47:04.968,eb:33:2e:f9:57:b5, 2015-01-01 00:33:09.555,-0.008,0.007,1.003,4.761,6.287,-0.366, , , , , , ,0.203,0.231,-106.078
 12:47:04.968,eb:33:2e:f9:57:b5, 2015-01-01 00:33:09.555,-0.002,0.005,1.003,4.822,6.592,-0.366, , , , , , ,0.225,0.264,-106.084
 12:47:04.968,eb:33:2e:f9:57:b5, 2015-01-01 00:33:09.555,0.005,0.007,1.008,4.883,7.446,-0.366, , , , , , ,0.253,0.297,-106.084
 12:47:04.968,eb:33:2e:f9:57:b5, 2015-01-01 00:33:09.555,0.003,0.006,1.015,5.066,8.972,-0.427, , , , , , ,0.275,0.341,-106.084
 12:47:04.968,eb:33:2e:f9:57:b5, 2015-01-01 00:33:09.555,-0.002,0.006,1.014,5.249,10.376,-0.549, , , , , , ,0.302,0.39,-106.089
 12:47:05.011,eb:33:2e:f9:57:b5, 2015-01-01 00:33:09.845,-0.004,0.007,1.008,5.371,11.23,-0.61, , , , , , ,0.33,0.445,-106.095
 12:47:05.011,eb:33:2e:f9:57:b5, 2015-01-01 00:33:09.845,-0.001,0.007,1.007,5.554,11.963,-0.732, , , , , , ,0.352,0.505,-106.1
 12:47:05.011,eb:33:2e:f9:57:b5, 2015-01-01 00:33:09.845,-0.005,0.01,1.008,5.554,12.878,-0.916, , , , , , ,0.379,0.566,-106.1
 12:47:05.011,eb:33:2e:f9:57:b5, 2015-01-01 00:33:09.845,-0.006,0.013,1.005,5.493,13.733,-0.977, , , , , , ,0.406,0.632,-106.111
 12:47:05.011,eb:33:2e:f9:57:b5, 2015-01-01 00:33:09.845,-0.009,0.016,1.003,5.31,14.343,-1.038, , , , , , ,0.434,0.703,-106.111
 12:47:05.011,eb:33:2e:f9:57:b5, 2015-01-01 00:33:09.845,-0.011,0.012,1.004,5.31,14.648,-1.221, , , , , , ,0.461,0.775,-106.117
 12:47:05.011,eb:33:2e:f9:57:b5, 2015-01-01 00:33:09.845,-0.015,0.013,1.004,5.31,14.954,-1.404, , , , , , ,0.483,0.851,-106.128
 12:47:05.011,eb:33:2e:f9:57:b5, 2015-01-01 00:33:09.845,-0.018,0.014,1.002,5.249,15.015,-1.526, , , , , , ,0.511,0.923,-106.133
 12:47:05.169,eb:33:2e:f9:57:b5, 2015-01-01 00:33:09.845,-0.021,0.013,1,5.249,15.015,-1.709, , , , , , ,0.538,1,-106.144
 12:47:05.169,eb:33:2e:f9:57:b5, 2015-01-01 00:33:09.845,-0.024,0.013,1,5.188,15.015,-1.77, , , , , , ,0.566,1.077,-106.15
 12:47:05.169,eb:33:2e:f9:57:b5, 2015-01-01 00:33:09.845,-0.027,0.011,0.999,5.188,14.709,-1.77, , , , , , ,0.588,1.148,-106.161
 12:47:05.169,eb:33:2e:f9:57:b5, 2015-01-01 00:33:09.845,-0.032,0.012,0.997,5.249,14.221,-1.77, , , , , , ,0.615,1.219,-106.172
 12:47:05.169,eb:33:2e:f9:57:b5, 2015-01-01 00:33:09.845,-0.031,0.011,0.995,5.31,13.611,-1.831, , , , , , ,0.637,1.291,-106.177
 12:47:05.169,eb:33:2e:f9:57:b5, 2015-01-01 00:33:09.845,-0.031,0.014,0.995,5.371,13.062,-1.831, , , , , , ,0.665,1.357,-106.188
 12:47:05.169,eb:33:2e:f9:57:b5, 2015-01-01 00:33:09.845,-0.031,0.013,0.996,5.371,12.512,-1.892, , , , , , ,0.692,1.423,-106.194
 12:47:05.169,eb:33:2e:f9:57:b5, 2015-01-01 00:33:09.845,-0.033,0.013,0.996,5.371,12.085,-1.709, , , , , , ,0.72,1.483,-106.205
 12:47:05.172,eb:33:2e:f9:57:b5, 2015-01-01 00:33:09.845,-0.035,0.017,0.996,5.188,11.841,-1.709, , , , , , ,0.742,1.544,-106.216
 12:47:05.172,eb:33:2e:f9:57:b5, 2015-01-01 00:33:09.845,-0.04,0.013,0.999,5.371,11.108,-1.709, , , , , , ,0.769,1.599,-106.221
 12:47:05.172,eb:33:2e:f9:57:b5, 2015-01-01 00:33:09.845,-0.04,0.013,0.999,5.554,10.437,-1.77, , , , , , ,0.797,1.653,-106.232
 12:47:05.172,eb:33:2e:f9:57:b5, 2015-01-01 00:33:09.845,-0.035,0.016,0.996,5.615,9.888,-1.77, , , , , , ,0.824,1.703,-106.243
 12:47:05.172,eb:33:2e:f9:57:b5, 2015-01-01 00:33:09.845,-0.035,0.015,1.002,5.859,9.46,-1.831, , , , , , ,0.851,1.752,-106.249
 12:47:05.172,eb:33:2e:f9:57:b5, 2015-01-01 00:33:09.845,-0.036,0.016,1.001,5.981,9.277,-2.014, , , , , , ,0.879,1.796,-106.26
 12:47:05.172,eb:33:2e:f9:57:b5, 2015-01-01 00:33:09.845,-0.035,0.019,1,6.042,8.911,-2.075, , , , , , ,0.906,1.846,-106.271
 12:47:05.172,eb:33:2e:f9:57:b5, 2015-01-01 00:33:09.845,-0.037,0.016,1.003,6.409,8.85,-2.136, , , , , , ,0.939,1.89,-106.282
 12:47:05.175,eb:33:2e:f9:57:b5, 2015-01-01 00:33:09.845,-0.039,0.019,1.001,6.592,8.667,-2.38, , , , , , ,0.972,1.934,-106.293
 12:47:05.175,eb:33:2e:f9:57:b5, 2015-01-01 00:33:09.845,-0.039,0.019,1.002,6.836,8.667,-2.319, , , , , , ,1.005,1.978,-106.304
 12:47:05.175,eb:33:2e:f9:57:b5, 2015-01-01 00:33:09.845,-0.04,0.021,1.002,6.958,8.545,-2.319, , , , , , ,1.038,2.021,-106.315
 12:47:05.175,eb:33:2e:f9:57:b5, 2015-01-01 00:33:09.845,-0.037,0.019,1.002,7.263,8.118,-2.502, , , , , , ,1.071,2.06,-106.326
 12:47:05.175,eb:33:2e:f9:57:b5, 2015-01-01 00:33:09.845,-0.045,0.021,1.004,7.568,8.118,-2.563, , , , , , ,1.11,2.104,-106.342
 12:47:05.175,eb:33:2e:f9:57:b5, 2015-01-01 00:33:09.845,-0.038,0.019,1,7.874,7.385,-2.747, , , , , , ,1.148,2.142,-106.353
 12:47:05.175,eb:33:2e:f9:57:b5, 2015-01-01 00:33:09.845,-0.042,0.023,1.004,8.179,7.446,-2.808, , , , , , ,1.187,2.181,-106.364
 12:47:05.175,eb:33:2e:f9:57:b5, 2015-01-01 00:33:09.845,-0.048,0.021,1.006,8.484,7.385,-2.686, , , , , , ,1.225,2.214,-106.381
 12:47:05.175,eb:33:2e:f9:57:b5, 2015-01-01 00:33:09.845,-0.045,0.018,1.006,8.911,7.019,-2.563, , , , , , ,1.269,2.252,-106.392
 12:47:05.175,eb:33:2e:f9:57:b5, 2015-01-01 00:33:09.845,-0.048,0.015,1.011,9.583,6.836,-2.38, , , , , , ,1.313,2.285,-106.408
 12:47:05.175,eb:33:2e:f9:57:b5, 2015-01-01 00:33:09.845,-0.052,0.02,1.005,10.132,6.409,-2.319, , , , , , ,1.362,2.318,-106.419
 12:47:05.175,eb:33:2e:f9:57:b5, 2015-01-01 00:33:09.845,-0.055,0.018,1.005,10.681,5.859,-2.014, , , , , , ,1.412,2.351,-106.43
 12:47:05.175,eb:33:2e:f9:57:b5, 2015-01-01 00:33:09.845,-0.049,0.023,0.998,11.047,4.883,-1.831, , , , , , ,1.467,2.379,-106.441
 12:47:05.175,eb:33:2e:f9:57:b5, 2015-01-01 00:33:09.845,-0.052,0.028,1,11.292,4.211,-1.709, , , , , , ,1.522,2.401,-106.447
 12:47:05.175,eb:33:2e:f9:57:b5, 2015-01-01 00:33:09.845,-0.045,0.021,1.001,11.902,3.052,-1.77, , , , , , ,1.582,2.417,-106.458
 12:47:05.177,eb:33:2e:f9:57:b5, 2015-01-01 00:33:09.845,-0.034,0.037,0.989,12.573,1.099,-2.075, , , , , , ,1.642,2.428,-106.469
 12:47:05.212,eb:33:2e:f9:57:b5, 2015-01-01 00:33:09.845,-0.045,0.042,0.995,13.489,-0.488,-2.747, , , , , , ,1.703,2.428,-106.479
 12:47:05.212,eb:33:2e:f9:57:b5, 2015-01-01 00:33:09.845,-0.043,0.03,1.007,14.648,-1.343,-2.869, , , , , , ,1.774,2.422,-106.496
 12:47:05.212,eb:33:2e:f9:57:b5, 2015-01-01 00:33:09.845,-0.044,0.025,1.025,16.296,-2.441,-2.869, , , , , , ,1.851,2.411,-106.507
 12:47:05.212,eb:33:2e:f9:57:b5, 2015-01-01 00:33:09.845,-0.047,-0.002,1.071,18.86,-1.892,-2.502, , , , , , ,1.939,2.401,-106.529
 12:47:05.212,eb:33:2e:f9:57:b5, 2015-01-01 00:33:09.845,-0.036,0.013,1.06,21.179,-1.953,-2.441, , , , , , ,2.038,2.39,-106.54
 12:47:05.212,eb:33:2e:f9:57:b5, 2015-01-01 00:33:09.845,-0.013,0.013,1.068,23.682,-1.221,-2.075, , , , , , ,2.153,2.384,-106.551
 12:47:05.212,eb:33:2e:f9:57:b5, 2015-01-01 00:33:09.845,0,0.048,1.044,25.33,-1.953,-2.869, , , , , , ,2.274,2.373,-106.562
 12:47:05.212,eb:33:2e:f9:57:b5, 2015-01-01 00:33:09.845,0.01,0.052,1.063,27.466,-1.892,-3.601, , , , , , ,2.406,2.368,-106.584
 12:47:05.259,eb:33:2e:f9:57:b5, 2015-01-01 00:33:09.845,-0.028,0.045,1.094,30.09,-1.465,-4.639, , , , , , ,2.549,2.357,-106.606
 12:47:05.259,eb:33:2e:f9:57:b5, 2015-01-01 00:33:09.845,-0.01,0.013,1.095,31.86,-0.305,-4.272, , , , , , ,2.703,2.357,-106.628
 12:47:05.259,eb:33:2e:f9:57:b5, 2015-01-01 00:33:09.845,-0.002,0.007,1.19,33.63,2.686,-3.479, , , , , , ,2.867,2.362,-106.644
 12:47:05.259,eb:33:2e:f9:57:b5, 2015-01-01 00:33:09.845,-0.008,0.049,1.139,37.109,2.625,-4.211, , , , , , ,3.043,2.379,-106.666
 12:47:05.259,eb:33:2e:f9:57:b5, 2015-01-01 00:33:09.845,-0.062,0.025,1.179,40.71,4.7,-4.761, , , , , , ,3.235,2.395,-106.688
 12:47:05.259,eb:33:2e:f9:57:b5, 2015-01-01 00:33:09.845,-0.045,-0.02,1.183,44.922,5.493,-3.967, , , , , , ,3.455,2.428,-106.71
 12:47:05.259,eb:33:2e:f9:57:b5, 2015-01-01 00:33:09.845,-0.071,0,1.189,47.729,7.69,-2.625, , , , , , ,3.686,2.461,-106.721
 12:47:05.259,eb:33:2e:f9:57:b5, 2015-01-01 00:33:09.845,-0.045,0.009,1.165,50.903,8.484,-1.16, , , , , , ,3.933,2.505,-106.732
 12:47:05.303,eb:33:2e:f9:57:b5, 2015-01-01 00:33:09.845,-0.032,0.027,1.146,54.932,6.409,-0.793, , , , , , ,4.197,2.538,-106.732
 12:47:05.303,eb:33:2e:f9:57:b5, 2015-01-01 00:33:09.845,-0.06,0.048,1.131,58.716,4.7,-0.854, , , , , , ,4.482,2.565,-106.738
 12:47:05.303,eb:33:2e:f9:57:b5, 2015-01-01 00:33:09.845,-0.03,0.037,1.172,62.195,4.211,-0.061, , , , , , ,4.785,2.587,-106.738
 12:47:05.303,eb:33:2e:f9:57:b5, 2015-01-01 00:33:09.845,-0.018,0.055,1.201,66.528,3.601,-0.061, , , , , , ,5.109,2.604,-106.738
 12:47:05.303,eb:33:2e:f9:57:b5, 2015-01-01 00:33:09.845,-0.073,0.048,1.213,71.716,2.869,-0.916, , , , , , ,5.455,2.62,-106.738
 12:47:05.303,eb:33:2e:f9:57:b5, 2015-01-01 00:33:09.845,-0.091,-0.001,1.253,75.5,5.981,0, , , , , , ,5.828,2.642,-106.738
 12:47:05.303,eb:33:2e:f9:57:b5, 2015-01-01 00:33:09.845,-0.059,-0.011,1.254,78.613,8.85,2.014, , , , , , ,6.213,2.681,-106.727
 12:47:05.303,eb:33:2e:f9:57:b5, 2015-01-01 00:33:09.845,-0.024,0.008,1.274,82.031,11.78,3.906, , , , , , ,6.619,2.736,-106.705
 12:47:05.325,eb:33:2e:f9:57:b5, 2015-01-01 00:33:10.205,-0.015,0.054,1.237,86.731,13.123,4.7, , , , , , ,7.042,2.796,-106.677
 12:47:05.325,eb:33:2e:f9:57:b5, 2015-01-01 00:33:10.205,-0.011,0.083,1.19,91.37,12.512,4.272, , , , , , ,7.493,2.856,-106.65
 12:47:05.325,eb:33:2e:f9:57:b5, 2015-01-01 00:33:10.205,-0.015,0.089,1.208,95.52,13.55,4.7, , , , , , ,7.96,2.917,-106.617
 12:47:05.325,eb:33:2e:f9:57:b5, 2015-01-01 00:33:10.205,0.001,0.087,1.216,100.159,13,4.639, , , , , , ,8.454,2.977,-106.584
 12:47:05.325,eb:33:2e:f9:57:b5, 2015-01-01 00:33:10.205,-0.019,0.073,1.24,105.286,13.611,4.211, , , , , , ,8.97,3.043,-106.551
 12:47:05.325,eb:33:2e:f9:57:b5, 2015-01-01 00:33:10.205,-0.019,0.049,1.277,110.596,14.832,4.028, , , , , , ,9.514,3.109,-106.523
 12:47:05.325,eb:33:2e:f9:57:b5, 2015-01-01 00:33:10.205,-0.011,0.051,1.333,115.845,17.517,4.272, , , , , , ,10.085,3.186,-106.49
 12:47:05.325,eb:33:2e:f9:57:b5, 2015-01-01 00:33:10.205,-0.01,0.071,1.328,121.765,19.043,3.662, , , , , , ,10.684,3.274,-106.452
 12:47:05.370,eb:33:2e:f9:57:b5, 2015-01-01 00:33:10.205,-0.026,0.059,1.372,127.747,22.583,3.784, , , , , , ,11.31,3.373,-106.414
 12:47:05.370,eb:33:2e:f9:57:b5, 2015-01-01 00:33:10.205,0.028,0.056,1.4,134.766,25.818,3.418, , , , , , ,11.97,3.488,-106.37
 12:47:05.370,eb:33:2e:f9:57:b5, 2015-01-01 00:33:10.205,0.036,0.085,1.403,141.785,28.503,2.258, , , , , , ,12.667,3.62,-106.326
 12:47:05.370,eb:33:2e:f9:57:b5, 2015-01-01 00:33:10.205,0.064,0.098,1.394,148.743,30.762,-0.183, , , , , , ,13.398,3.763,-106.287
 12:47:05.370,eb:33:2e:f9:57:b5, 2015-01-01 00:33:10.205,0.062,0.084,1.449,155.884,36.377,-2.014, , , , , , ,14.167,3.933,-106.254
 12:47:05.370,eb:33:2e:f9:57:b5, 2015-01-01 00:33:10.205,0.069,0.105,1.479,163.147,42.175,-4.028, , , , , , ,14.969,4.131,-106.221
 12:47:05.370,eb:33:2e:f9:57:b5, 2015-01-01 00:33:10.205,0.088,0.127,1.493,171.387,46.143,-6.47, , , , , , ,15.809,4.351,-106.188
 12:47:05.370,eb:33:2e:f9:57:b5, 2015-01-01 00:33:10.205,0.082,0.137,1.391,179.077,48.035,-9.338, , , , , , ,16.694,4.592,-106.161
 12:47:05.415,eb:33:2e:f9:57:b5, 2015-01-01 00:33:10.205,0.033,0.125,1.37,185.486,49.744,-12.512, , , , , , ,17.611,4.839,-106.144
 12:47:05.415,eb:33:2e:f9:57:b5, 2015-01-01 00:33:10.205,0.036,0.079,1.475,190.369,55.42,-14.282, , , , , , ,18.55,5.114,-106.128
 12:47:05.415,eb:33:2e:f9:57:b5, 2015-01-01 00:33:10.205,0.061,0.059,1.56,197.693,65.063,-14.587, , , , , , ,19.528,5.427,-106.095
 12:47:05.415,eb:33:2e:f9:57:b5, 2015-01-01 00:33:10.205,0.079,0.121,1.435,205.383,69.702,-16.296, , , , , , ,20.544,5.773,-106.051
 12:47:05.415,eb:33:2e:f9:57:b5, 2015-01-01 00:33:10.205,0.058,0.159,1.398,213.928,72.266,-19.165, , , , , , ,21.599,6.136,-106.007
 12:47:05.415,eb:33:2e:f9:57:b5, 2015-01-01 00:33:10.205,0.033,0.137,1.435,222.412,77.454,-21.362, , , , , , ,22.698,6.526,-105.963
 12:47:05.415,eb:33:2e:f9:57:b5, 2015-01-01 00:33:10.205,0.054,0.137,1.491,231.079,83.069,-22.827, , , , , , ,23.84,6.938,-105.903
 12:47:05.415,eb:33:2e:f9:57:b5, 2015-01-01 00:33:10.205,0.136,0.251,1.522,239.868,84.29,-25.085, , , , , , ,25.032,7.372,-105.837
 12:47:05.459,eb:33:2e:f9:57:b5, 2015-01-01 00:33:10.205,0.154,0.241,1.468,250,82.581,-28.992, , , , , , ,26.268,7.811,-105.776
 12:47:05.459,eb:33:2e:f9:57:b5, 2015-01-01 00:33:10.205,0.111,0.285,1.484,260.559,78.064,-34.302, , , , , , ,27.554,8.24,-105.743
 12:47:05.459,eb:33:2e:f9:57:b5, 2015-01-01 00:33:10.205,0.021,0.251,1.772,270.203,82.642,-39.856, , , , , , ,28.889,8.679,-105.721
 12:47:05.459,eb:33:2e:f9:57:b5, 2015-01-01 00:33:10.205,-0.039,0.203,1.865,276.123,92.529,-41.199, , , , , , ,30.262,9.168,-105.672
 12:47:05.459,eb:33:2e:f9:57:b5, 2015-01-01 00:33:10.205,-0.011,0.293,2.036,280.212,104.187,-42.664, , , , , , ,31.668,9.701,-105.601
 12:47:05.459,eb:33:2e:f9:57:b5, 2015-01-01 00:33:10.205,0.01,0.21,1.922,284.119,110.962,-40.222, , , , , , ,33.096,10.272,-105.485
 12:47:05.459,eb:33:2e:f9:57:b5, 2015-01-01 00:33:10.205,-0.027,0.401,1.752,284.363,104.675,-44.678, , , , , , ,34.541,10.833,-105.364
 12:47:05.459,eb:33:2e:f9:57:b5, 2015-01-01 00:33:10.205,0.09,0.369,1.965,295.41,106.445,-42.908, , , , , , ,36.013,11.393,-105.222
 12:47:05.506,eb:33:2e:f9:57:b5, 2015-01-01 00:33:10.205,0.134,0.482,1.682,304.81,93.079,-45.166, , , , , , ,37.546,11.926,-105.106
 12:47:05.506,eb:33:2e:f9:57:b5, 2015-01-01 00:33:10.205,0.147,0.443,1.464,305.725,68.481,-47.974, , , , , , ,39.084,12.376,-105.046
 12:47:05.506,eb:33:2e:f9:57:b5, 2015-01-01 00:33:10.205,0.192,0.548,1.813,308.777,51.636,-52.429, , , , , , ,40.616,12.755,-105.062
 12:47:05.506,eb:33:2e:f9:57:b5, 2015-01-01 00:33:10.205,0.114,0.481,2.069,309.326,56.213,-58.044, , , , , , ,42.16,13.14,-105.09
 12:47:05.506,eb:33:2e:f9:57:b5, 2015-01-01 00:33:10.205,0.093,0.33,2.156,303.711,68.542,-61.401, , , , , , ,43.687,13.574,-105.095
 12:47:05.506,eb:33:2e:f9:57:b5, 2015-01-01 00:33:10.205,0.203,0.188,2.268,303.467,80.078,-64.026, , , , , , ,45.209,14.062,-105.057
 12:47:05.506,eb:33:2e:f9:57:b5, 2015-01-01 00:33:10.205,0.251,-0.014,2.268,305.115,92.773,-65.735, , , , , , ,46.752,14.601,-104.969
 12:47:05.506,eb:33:2e:f9:57:b5, 2015-01-01 00:33:10.205,0.257,-0.137,2.08,306.335,102.661,-66.223, , , , , , ,48.312,15.178,-104.815
 12:47:05.528,eb:33:2e:f9:57:b5, 2015-01-01 00:33:10.205,0.39,-0.113,2.041,313.171,108.459,-70.435, , , , , , ,49.916,15.787,-104.628
 12:47:05.528,eb:33:2e:f9:57:b5, 2015-01-01 00:33:10.205,0.418,-0.376,1.93,318.604,114.014,-72.021, , , , , , ,51.553,16.414,-104.42
 12:47:05.528,eb:33:2e:f9:57:b5, 2015-01-01 00:33:10.205,0.437,-0.507,1.565,320.068,113.647,-74.341, , , , , , ,53.218,17.056,-104.183
 12:47:05.528,eb:33:2e:f9:57:b5, 2015-01-01 00:33:10.205,0.485,-0.56,1.218,320.801,102.051,-78.979, , , , , , ,54.882,17.688,-103.953
 12:47:05.528,eb:33:2e:f9:57:b5, 2015-01-01 00:33:10.205,0.438,-0.509,1.087,326.538,84.29,-84.717, , , , , , ,56.547,18.287,-103.799
 12:47:05.528,eb:33:2e:f9:57:b5, 2015-01-01 00:33:10.205,0.505,-0.541,1.081,341.553,63.293,-92.59, , , , , , ,58.233,18.853,-103.738
 12:47:05.528,eb:33:2e:f9:57:b5, 2015-01-01 00:33:10.205,0.586,-0.693,1.371,367.859,42.419,-103.149, , , , , , ,60.002,19.407,-103.782
 12:47:05.528,eb:33:2e:f9:57:b5, 2015-01-01 00:33:10.205,0.35,-0.595,1.356,397.095,22.888,-120.728, , , , , , ,61.88,19.968,-103.92
 12:47:05.573,eb:33:2e:f9:57:b5, 2015-01-01 00:33:10.205,0.262,0.058,0.437,381.287,-9.766,-140.137, , , , , , ,63.748,20.566,-104.216
 12:47:05.573,eb:33:2e:f9:57:b5, 2015-01-01 00:33:10.205,0.074,0.414,-0.141,310.608,-23.132,-148.621, , , , , , ,65.292,21.182,-104.65
 12:47:05.573,eb:33:2e:f9:57:b5, 2015-01-01 00:33:10.205,0.008,0.057,-0.261,226.99,-37.415,-149.536, , , , , , ,66.418,21.802,-105.134
 12:47:05.573,eb:33:2e:f9:57:b5, 2015-01-01 00:33:10.205,-0.04,-0.474,-0.359,130.92,-47.607,-142.883, , , , , , ,67.066,22.385,-105.65
 12:47:05.573,eb:33:2e:f9:57:b5, 2015-01-01 00:33:10.205,-0.051,-0.957,-0.565,30.945,-46.692,-129.15, , , , , , ,67.22,22.912,-106.177
 12:47:05.573,eb:33:2e:f9:57:b5, 2015-01-01 00:33:10.205,-0.055,-1.192,-0.659,-64.636,-32.166,-110.229, , , , , , ,66.901,23.379,-106.622
 12:47:05.573,eb:33:2e:f9:57:b5, 2015-01-01 00:33:10.205,-0.029,-1.16,-0.33,-142.212,-17.456,-91.248, , , , , , ,66.204,23.785,-106.957
 12:47:05.573,eb:33:2e:f9:57:b5, 2015-01-01 00:33:10.205,-0.072,-0.995,0.375,-193.42,-6.165,-74.402, , , , , , ,65.231,24.137,-107.172
 12:47:05.619,eb:33:2e:f9:57:b5, 2015-01-01 00:33:10.205,-0.06,-0.779,0.796,-222.168,-4.761,-60.364, , , , , , ,64.094,24.423,-107.353
 12:47:05.619,eb:33:2e:f9:57:b5, 2015-01-01 00:33:10.205,0.005,-0.648,1,-234.009,-8.911,-48.706, , , , , , ,62.864,24.642,-107.523
 12:47:05.619,eb:33:2e:f9:57:b5, 2015-01-01 00:33:10.205,0.082,-0.608,1.002,-235.474,-15.137,-38.086, , , , , , ,61.617,24.802,-107.693
 12:47:05.619,eb:33:2e:f9:57:b5, 2015-01-01 00:33:10.205,0.154,-0.611,0.836,-232.3,-22.949,-28.015, , , , , , ,60.37,24.895,-107.858
 12:47:05.619,eb:33:2e:f9:57:b5, 2015-01-01 00:33:10.205,0.181,-0.624,0.572,-228.943,-34.119,-16.174, , , , , , ,59.134,24.911,-108.062
 12:47:05.619,eb:33:2e:f9:57:b5, 2015-01-01 00:33:10.205,0.176,-0.597,0.415,-229.736,-44.434,-7.141, , , , , , ,57.887,24.846,-108.287
 12:47:05.619,eb:33:2e:f9:57:b5, 2015-01-01 00:33:10.205,0.163,-0.537,0.343,-234.497,-55.359,0.488, , , , , , ,56.618,24.719,-108.528
 12:47:05.619,eb:33:2e:f9:57:b5, 2015-01-01 00:33:10.205,0.162,-0.501,0.357,-242.004,-65.491,7.446, , , , , , ,55.311,24.527,-108.781
 12:47:05.664,eb:33:2e:f9:57:b5, 2015-01-01 00:33:10.515,0.181,-0.502,0.419,-250.671,-74.402,13.855, , , , , , ,53.959,24.28,-109.067
 12:47:05.664,eb:33:2e:f9:57:b5, 2015-01-01 00:33:10.515,0.195,-0.515,0.488,-259.399,-81.909,19.47, , , , , , ,52.548,23.967,-109.363
 12:47:05.664,eb:33:2e:f9:57:b5, 2015-01-01 00:33:10.515,0.214,-0.521,0.539,-267.273,-88.196,24.231, , , , , , ,51.108,23.615,-109.655
 12:47:05.664,eb:33:2e:f9:57:b5, 2015-01-01 00:33:10.515,0.233,-0.511,0.59,-273.621,-93.445,28.503, , , , , , ,49.636,23.22,-109.935
 12:47:05.664,eb:33:2e:f9:57:b5, 2015-01-01 00:33:10.515,0.247,-0.488,0.651,-277.466,-97.961,31.738, , , , , , ,48.142,22.791,-110.22
 12:47:05.664,eb:33:2e:f9:57:b5, 2015-01-01 00:33:10.515,0.252,-0.459,0.714,-278.137,-102.722,34.119, , , , , , ,46.631,22.319,-110.506
 12:47:05.664,eb:33:2e:f9:57:b5, 2015-01-01 00:33:10.515,0.255,-0.414,0.757,-276.978,-107.788,35.706, , , , , , ,45.137,21.824,-110.781
 12:47:05.664,eb:33:2e:f9:57:b5, 2015-01-01 00:33:10.515,0.25,-0.376,0.779,-275.33,-113.037,36.621, , , , , , ,43.654,21.302,-111.05
 12:47:05.708,eb:33:2e:f9:57:b5, 2015-01-01 00:33:10.515,0.238,-0.346,0.778,-274.17,-118.835,37.048, , , , , , ,42.182,20.753,-111.33
 12:47:05.708,eb:33:2e:f9:57:b5, 2015-01-01 00:33:10.515,0.226,-0.32,0.765,-274.231,-125.244,37.354, , , , , , ,40.699,20.165,-111.621
 12:47:05.708,eb:33:2e:f9:57:b5, 2015-01-01 00:33:10.515,0.208,-0.311,0.78,-274.902,-131.226,37.598, , , , , , ,39.227,19.55,-111.907
 12:47:05.708,eb:33:2e:f9:57:b5, 2015-01-01 00:33:10.515,0.189,-0.304,0.818,-275.635,-136.475,37.903, , , , , , ,37.755,18.902,-112.187
 12:47:05.708,eb:33:2e:f9:57:b5, 2015-01-01 00:33:10.515,0.169,-0.287,0.869,-276.733,-140.686,38.147, , , , , , ,36.282,18.232,-112.467
 12:47:05.708,eb:33:2e:f9:57:b5, 2015-01-01 00:33:10.515,0.159,-0.267,0.919,-277.283,-143.982,38.391, , , , , , ,34.799,17.534,-112.742
 12:47:05.708,eb:33:2e:f9:57:b5, 2015-01-01 00:33:10.515,0.145,-0.239,0.976,-277.161,-145.874,38.391, , , , , , ,33.333,16.826,-113
 12:47:05.708,eb:33:2e:f9:57:b5, 2015-01-01 00:33:10.515,0.128,-0.211,1.023,-276.428,-146.973,37.72, , , , , , ,31.877,16.106,-113.242
 12:47:05.731,eb:33:2e:f9:57:b5, 2015-01-01 00:33:10.515,0.112,-0.18,1.059,-275.513,-147.766,36.377, , , , , , ,30.438,15.381,-113.472
 12:47:05.731,eb:33:2e:f9:57:b5, 2015-01-01 00:33:10.515,0.089,-0.147,1.083,-275.269,-148.315,34.546, , , , , , ,28.987,14.645,-113.698
 12:47:05.731,eb:33:2e:f9:57:b5, 2015-01-01 00:33:10.515,0.075,-0.122,1.1,-276.001,-149.353,32.043, , , , , , ,27.554,13.909,-113.912
 12:47:05.731,eb:33:2e:f9:57:b5, 2015-01-01 00:33:10.515,0.054,-0.111,1.143,-277.649,-148.926,29.419, , , , , , ,26.12,13.173,-114.115
 12:47:05.731,eb:33:2e:f9:57:b5, 2015-01-01 00:33:10.515,0.043,-0.105,1.193,-279.846,-147.766,26.611, , , , , , ,24.681,12.442,-114.313
 12:47:05.731,eb:33:2e:f9:57:b5, 2015-01-01 00:33:10.515,0.024,-0.105,1.263,-282.349,-144.714,24.231, , , , , , ,23.22,11.717,-114.5
 12:47:05.731,eb:33:2e:f9:57:b5, 2015-01-01 00:33:10.515,0.011,-0.107,1.314,-284.607,-141.174,22.095, , , , , , ,21.769,11.014,-114.67
 12:47:05.731,eb:33:2e:f9:57:b5, 2015-01-01 00:33:10.515,0,-0.104,1.355,-286.438,-137.512,20.203, , , , , , ,20.308,10.327,-114.818
 12:47:05.774,eb:33:2e:f9:57:b5, 2015-01-01 00:33:10.515,-0.001,-0.1,1.385,-287.537,-134.949,18.25, , , , , , ,18.847,9.657,-114.961
 12:47:05.774,eb:33:2e:f9:57:b5, 2015-01-01 00:33:10.515,-0.001,-0.088,1.405,-287.964,-135.925,15.747, , , , , , ,17.369,8.981,-115.093
 12:47:05.774,eb:33:2e:f9:57:b5, 2015-01-01 00:33:10.515,0.015,-0.082,1.414,-286.682,-137.207,13.855, , , , , , ,15.914,8.306,-115.225
 12:47:05.774,eb:33:2e:f9:57:b5, 2015-01-01 00:33:10.515,0.016,-0.072,1.495,-283.813,-136.78,12.634, , , , , , ,14.469,7.63,-115.334
 12:47:05.774,eb:33:2e:f9:57:b5, 2015-01-01 00:33:10.515,0.007,-0.051,1.583,-278.564,-137.146,11.23, , , , , , ,13.052,6.949,-115.444
 12:47:05.774,eb:33:2e:f9:57:b5, 2015-01-01 00:33:10.515,-0.029,-0.031,1.685,-271.545,-135.986,10.01, , , , , , ,11.651,6.262,-115.543
 12:47:05.774,eb:33:2e:f9:57:b5, 2015-01-01 00:33:10.515,-0.051,-0.006,1.798,-261.475,-132.202,9.521, , , , , , ,10.316,5.592,-115.62
 12:47:05.774,eb:33:2e:f9:57:b5, 2015-01-01 00:33:10.515,-0.08,0.012,1.887,-253.052,-130.066,8.728, , , , , , ,9.025,4.944,-115.686
 12:47:05.820,eb:33:2e:f9:57:b5, 2015-01-01 00:33:10.515,-0.082,0.04,1.959,-244.385,-125.183,9.216, , , , , , ,7.778,4.301,-115.73
 12:47:05.820,eb:33:2e:f9:57:b5, 2015-01-01 00:33:10.515,-0.124,0.058,2.064,-236.572,-117.249,10.559, , , , , , ,6.564,3.691,-115.757
 12:47:05.820,eb:33:2e:f9:57:b5, 2015-01-01 00:33:10.515,-0.126,0.074,2.095,-227.844,-111.877,9.949, , , , , , ,5.405,3.115,-115.768
 12:47:05.820,eb:33:2e:f9:57:b5, 2015-01-01 00:33:10.515,-0.17,0.103,2.205,-217.712,-102.6,10.132, , , , , , ,4.296,2.587,-115.763
 12:47:05.820,eb:33:2e:f9:57:b5, 2015-01-01 00:33:10.515,-0.203,0.127,2.245,-205.078,-95.886,10.376, , , , , , ,3.246,2.093,-115.741
 12:47:05.820,eb:33:2e:f9:57:b5, 2015-01-01 00:33:10.515,-0.252,0.183,2.253,-190.247,-91.064,12.39, , , , , , ,2.247,1.62,-115.708
 12:47:05.820,eb:33:2e:f9:57:b5, 2015-01-01 00:33:10.515,-0.306,0.222,2.216,-174.805,-90.271,14.893, , , , , , ,1.346,1.165,-115.653
 12:47:05.820,eb:33:2e:f9:57:b5, 2015-01-01 00:33:10.515,-0.356,0.272,2.171,-160.522,-94.421,17.029, , , , , , ,0.511,0.703,-115.576
 12:47:05.866,eb:33:2e:f9:57:b5, 2015-01-01 00:33:10.515,-0.431,0.326,2.158,-148.01,-101.013,21.301, , , , , , ,-0.247,0.209,-115.477
 12:47:05.866,eb:33:2e:f9:57:b5, 2015-01-01 00:33:10.515,-0.528,0.397,2.184,-140.564,-107.605,26.428, , , , , , ,-0.978,-0.319,-115.351
 12:47:05.866,eb:33:2e:f9:57:b5, 2015-01-01 00:33:10.515,-0.624,0.493,2.215,-141.174,-112.427,33.142, , , , , , ,-1.681,-0.868,-115.186
 12:47:05.866,eb:33:2e:f9:57:b5, 2015-01-01 00:33:10.515,-0.712,0.625,2.234,-152.832,-113.525,40.527, , , , , , ,-2.422,-1.428,-114.983
 12:47:05.866,eb:33:2e:f9:57:b5, 2015-01-01 00:33:10.515,-0.769,0.725,2.218,-176.88,-110.352,48.157, , , , , , ,-3.263,-1.978,-114.73
 12:47:05.866,eb:33:2e:f9:57:b5, 2015-01-01 00:33:10.515,-0.761,0.813,2.133,-211.06,-103.455,54.932, , , , , , ,-4.274,-2.494,-114.434
 12:47:05.866,eb:33:2e:f9:57:b5, 2015-01-01 00:33:10.515,-0.71,0.873,2.004,-251.099,-93.323,60.791, , , , , , ,-5.46,-2.955,-114.099
 12:47:05.866,eb:33:2e:f9:57:b5, 2015-01-01 00:33:10.515,-0.611,0.923,1.86,-290.222,-83.069,65.308, , , , , , ,-6.861,-3.356,-113.736
 12:47:05.888,eb:33:2e:f9:57:b5, 2015-01-01 00:33:10.515,-0.461,1.007,1.775,-321.35,-74.829,67.261, , , , , , ,-8.432,-3.702,-113.357
 12:47:05.888,eb:33:2e:f9:57:b5, 2015-01-01 00:33:10.515,-0.309,1.137,1.77,-340.271,-68.298,66.833, , , , , , ,-10.14,-3.999,-112.967
 12:47:05.888,eb:33:2e:f9:57:b5, 2015-01-01 00:33:10.515,-0.18,1.351,1.787,-344.971,-64.575,63.171, , , , , , ,-11.893,-4.263,-112.588
 12:47:05.888,eb:33:2e:f9:57:b5, 2015-01-01 00:33:10.515,-0.071,1.635,1.809,-335.51,-61.707,55.969, , , , , , ,-13.623,-4.504,-112.231
 12:47:05.888,eb:33:2e:f9:57:b5, 2015-01-01 00:33:10.515,0.001,1.957,1.804,-313.416,-59.387,45.776, , , , , , ,-15.266,-4.735,-111.912
 12:47:05.888,eb:33:2e:f9:57:b5, 2015-01-01 00:33:10.515,-0.027,2.279,1.726,-281.25,-61.462,33.386, , , , , , ,-16.771,-4.977,-111.643
 12:47:05.888,eb:33:2e:f9:57:b5, 2015-01-01 00:33:10.515,-0.19,2.545,1.521,-241.882,-72.449,20.386, , , , , , ,-18.083,-5.257,-111.418
 12:47:05.888,eb:33:2e:f9:57:b5, 2015-01-01 00:33:10.515,-0.452,2.712,1.207,-198.303,-94.299,8.911, , , , , , ,-19.182,-5.636,-111.226
 12:47:05.933,eb:33:2e:f9:57:b5, 2015-01-01 00:33:10.515,-0.755,2.794,0.877,-154.846,-124.756,1.099, , , , , , ,-20.067,-6.158,-111.017
 12:47:05.933,eb:33:2e:f9:57:b5, 2015-01-01 00:33:10.515,-1.032,2.808,0.646,-115.295,-157.593,-1.709, , , , , , ,-20.753,-6.844,-110.77
 12:47:05.933,eb:33:2e:f9:57:b5, 2015-01-01 00:33:10.515,-1.259,2.771,0.621,-81.177,-183.96,0.916, , , , , , ,-21.27,-7.657,-110.457
 12:47:05.933,eb:33:2e:f9:57:b5, 2015-01-01 00:33:10.515,-1.435,2.697,0.798,-52.49,-196.655,8.606, , , , , , ,-21.638,-8.547,-110.078
 12:47:05.933,eb:33:2e:f9:57:b5, 2015-01-01 00:33:10.515,-1.542,2.583,1.101,-27.832,-190.979,19.897, , , , , , ,-21.896,-9.421,-109.644
 12:47:05.933,eb:33:2e:f9:57:b5, 2015-01-01 00:33:10.515,-1.569,2.431,1.44,-6.531,-166.382,33.203, , , , , , ,-22.055,-10.201,-109.171
 12:47:05.933,eb:33:2e:f9:57:b5, 2015-01-01 00:33:10.515,-1.533,2.231,1.737,11.78,-124.573,47.668, , , , , , ,-22.121,-10.778,-108.704
 12:47:05.933,eb:33:2e:f9:57:b5, 2015-01-01 00:33:10.515,-1.416,2.019,1.924,26.978,-71.594,62.195, , , , , , ,-22.099,-11.107,-108.259
 12:47:05.978,eb:33:2e:f9:57:b5, 2015-01-01 00:33:10.810,-1.244,1.774,1.991,40.466,-2.441,78.674, , , , , , ,-22,-11.118,-107.864
 12:47:05.978,eb:33:2e:f9:57:b5, 2015-01-01 00:33:10.810,-1.059,1.604,1.947,48.462,52.368,90.515, , , , , , ,-21.841,-10.811,-107.512
 12:47:05.978,eb:33:2e:f9:57:b5, 2015-01-01 00:33:10.810,-0.87,1.484,1.797,54.81,96.619,99.304, , , , , , ,-21.638,-10.267,-107.21
 12:47:05.978,eb:33:2e:f9:57:b5, 2015-01-01 00:33:10.810,-0.663,1.404,1.576,60.669,126.099,104.187, , , , , , ,-21.39,-9.536,-106.946
 12:47:05.978,eb:33:2e:f9:57:b5, 2015-01-01 00:33:10.810,-0.445,1.359,1.312,66.467,139.221,104.858, , , , , , ,-21.11,-8.718,-106.699
 12:47:05.978,eb:33:2e:f9:57:b5, 2015-01-01 00:33:10.810,-0.257,1.336,1.057,72.51,137.146,101.196, , , , , , ,-20.792,-7.883,-106.463
 12:47:05.978,eb:33:2e:f9:57:b5, 2015-01-01 00:33:10.810,-0.043,1.319,0.834,78.613,122.681,93.506, , , , , , ,-20.44,-7.108,-106.238
 12:47:05.978,eb:33:2e:f9:57:b5, 2015-01-01 00:33:10.810,2.295,1.164,0.929,151.123,-0.488,32.471, , , , , , ,-19.957,-6.603,-106.035
 12:47:06.022,eb:33:2e:f9:57:b5, 2015-01-01 00:33:10.810,0.259,-1.718,5.54,204.59,63.293,43.457, , , , , , ,-18.951,-6.586,-105.892
 12:47:06.022,eb:33:2e:f9:57:b5, 2015-01-01 00:33:10.810,1.081,-3.188,0.391,218.323,54.749,40.527, , , , , , ,-17.924,-6.18,-105.826
 12:47:06.022,eb:33:2e:f9:57:b5, 2015-01-01 00:33:10.810,-0.136,-2.17,0.86,240.784,55.176,32.776, , , , , , ,-16.765,-5.861,-105.705
 12:47:06.022,eb:33:2e:f9:57:b5, 2015-01-01 00:33:10.810,0.196,-0.684,1.084,259.277,45.349,-9.094, , , , , , ,-15.507,-5.603,-105.749
 12:47:06.022,eb:33:2e:f9:57:b5, 2015-01-01 00:33:10.810,-0.068,-1.113,0.751,292.175,48.34,-17.029, , , , , , ,-14.101,-5.405,-105.881
 12:47:06.022,eb:33:2e:f9:57:b5, 2015-01-01 00:33:10.810,-0.17,-0.174,1.126,308.594,57.739,-24.109, , , , , , ,-12.563,-5.158,-106.046
 12:47:06.022,eb:33:2e:f9:57:b5, 2015-01-01 00:33:10.810,-0.083,-0.045,1.015,309.998,53.406,-19.958, , , , , , ,-10.997,-4.911,-106.216
 12:47:06.023,eb:33:2e:f9:57:b5, 2015-01-01 00:33:10.810,0.07,0.13,1.058,297.607,46.021,-16.724, , , , , , ,-9.47,-4.686,-106.348
 12:47:06.067,eb:33:2e:f9:57:b5, 2015-01-01 00:33:10.810,0.003,0.396,1.32,272.4,48.584,-14.099, , , , , , ,-8.047,-4.455,-106.458
 12:47:06.067,eb:33:2e:f9:57:b5, 2015-01-01 00:33:10.810,-0.035,0.386,1.302,244.324,49.377,-14.587, , , , , , ,-6.762,-4.219,-106.562
 12:47:06.067,eb:33:2e:f9:57:b5, 2015-01-01 00:33:10.810,-0.056,0.265,1.287,220.276,50.232,-12.878, , , , , , ,-5.603,-3.983,-106.655
 12:47:06.067,eb:33:2e:f9:57:b5, 2015-01-01 00:33:10.810,-0.074,0.234,1.354,198.364,51.086,-9.338, , , , , , ,-4.57,-3.73,-106.738
 12:47:06.067,eb:33:2e:f9:57:b5, 2015-01-01 00:33:10.810,-0.245,0.146,1.243,185.059,50.903,-8.057, , , , , , ,-3.615,-3.477,-106.798
 12:47:06.067,eb:33:2e:f9:57:b5, 2015-01-01 00:33:10.810,-0.22,0.221,1.092,169.678,39.978,-8.362, , , , , , ,-2.73,-3.257,-106.859
 12:47:06.070,eb:33:2e:f9:57:b5, 2015-01-01 00:33:10.810,-0.124,0.427,1.174,141.846,21.118,-5.127, , , , , , ,-1.961,-3.126,-106.897
 12:47:06.070,eb:33:2e:f9:57:b5, 2015-01-01 00:33:10.810,-0.114,0.327,1.062,122.375,13.184,-0.916, , , , , , ,-1.318,-3.043,-106.913
 12:47:06.090,eb:33:2e:f9:57:b5, 2015-01-01 00:33:10.810,-0.147,0.324,0.988,109.314,2.747,-4.517, , , , , , ,-0.747,-3.01,-106.924
 12:47:06.090,eb:33:2e:f9:57:b5, 2015-01-01 00:33:10.810,-0.124,0.312,1.087,96.741,-5.432,-8.545, , , , , , ,-0.231,-3.027,-106.963
 12:47:06.090,eb:33:2e:f9:57:b5, 2015-01-01 00:33:10.810,-0.098,0.255,1.086,86.67,-8.606,-9.216, , , , , , ,0.214,-3.071,-107.012
 12:47:06.090,eb:33:2e:f9:57:b5, 2015-01-01 00:33:10.810,0.174,0.239,1.054,71.106,-23.621,-3.723, , , , , , ,0.615,-3.142,-107.045
 12:47:06.090,eb:33:2e:f9:57:b5, 2015-01-01 00:33:10.810,0.125,0.493,1.085,43.457,-23.926,-1.16, , , , , , ,0.879,-3.279,-107.067
 12:47:06.090,eb:33:2e:f9:57:b5, 2015-01-01 00:33:10.810,0.079,0.463,1.091,25.574,-11.963,-1.343, , , , , , ,1.044,-3.362,-107.073
 12:47:06.090,eb:33:2e:f9:57:b5, 2015-01-01 00:33:10.810,0.051,0.154,1.053,19.958,-9.949,1.465, , , , , , ,1.154,-3.411,-107.073
 12:47:06.090,eb:33:2e:f9:57:b5, 2015-01-01 00:33:10.810,0.09,0.02,1.04,18.494,-8.057,4.7, , , , , , ,1.247,-3.455,-107.056
 12:47:06.135,eb:33:2e:f9:57:b5, 2015-01-01 00:33:10.810,0.092,0.056,1.031,16.541,-6.042,6.775, , , , , , ,1.329,-3.494,-107.029
 12:47:06.135,eb:33:2e:f9:57:b5, 2015-01-01 00:33:10.810,0.03,0.091,0.989,13.367,-2.869,5.066, , , , , , ,1.401,-3.51,-107.001
 12:47:06.135,eb:33:2e:f9:57:b5, 2015-01-01 00:33:10.810,0.062,0.061,0.964,11.169,-2.563,4.15, , , , , , ,1.461,-3.521,-106.979
 12:47:06.135,eb:33:2e:f9:57:b5, 2015-01-01 00:33:10.810,0.101,0.054,0.982,9.888,-2.563,4.211, , , , , , ,1.511,-3.538,-106.963
 12:47:06.135,eb:33:2e:f9:57:b5, 2015-01-01 00:33:10.810,0.111,0.07,1.004,7.935,0.488,4.639, , , , , , ,1.549,-3.543,-106.941
 12:47:06.135,eb:33:2e:f9:57:b5, 2015-01-01 00:33:10.810,0.092,0.067,1.019,6.287,4.089,5.127, , , , , , ,1.588,-3.527,-106.913
 12:47:06.135,eb:33:2e:f9:57:b5, 2015-01-01 00:33:10.810,0.079,0.051,1.013,5.31,6.836,5.31, , , , , , ,1.615,-3.499,-106.886
 12:47:06.135,eb:33:2e:f9:57:b5, 2015-01-01 00:33:10.810,0.069,0.054,1.003,4.395,8.606,5.371, , , , , , ,1.637,-3.461,-106.864
 12:47:06.181,eb:33:2e:f9:57:b5, 2015-01-01 00:33:10.810,0.06,0.055,0.997,3.418,10.071,5.127, , , , , , ,1.653,-3.411,-106.837
 12:47:06.181,eb:33:2e:f9:57:b5, 2015-01-01 00:33:10.810,0.059,0.05,0.995,2.808,10.803,5.066, , , , , , ,1.664,-3.362,-106.809
 12:47:06.181,eb:33:2e:f9:57:b5, 2015-01-01 00:33:10.810,0.067,0.035,1,2.808,11.353,5.371, , , , , , ,1.675,-3.307,-106.782
 12:47:06.181,eb:33:2e:f9:57:b5, 2015-01-01 00:33:10.810,0.069,0.031,1.01,3.052,12.634,5.493, , , , , , ,1.692,-3.246,-106.754
 12:47:06.181,eb:33:2e:f9:57:b5, 2015-01-01 00:33:10.810,0.046,0.039,1.01,2.991,13.916,5.432, , , , , , ,1.703,-3.181,-106.721
 12:47:06.181,eb:33:2e:f9:57:b5, 2015-01-01 00:33:10.810,0.03,0.041,0.996,2.747,13.977,5.432, , , , , , ,1.719,-3.109,-106.694
 12:47:06.181,eb:33:2e:f9:57:b5, 2015-01-01 00:33:10.810,0.028,0.035,0.988,2.869,13,5.432, , , , , , ,1.73,-3.043,-106.666
 12:47:06.181,eb:33:2e:f9:57:b5, 2015-01-01 00:33:10.810,0.027,0.031,0.99,3.296,11.841,5.249, , , , , , ,1.741,-2.983,-106.639
 12:47:06.225,eb:33:2e:f9:57:b5, 2015-01-01 00:33:10.810,0.031,0.028,0.995,3.906,10.925,5.31, , , , , , ,1.758,-2.928,-106.611
 12:47:06.225,eb:33:2e:f9:57:b5, 2015-01-01 00:33:10.810,0.032,0.028,1.001,4.578,10.498,5.249, , , , , , ,1.78,-2.873,-106.584
 12:47:06.225,eb:33:2e:f9:57:b5, 2015-01-01 00:33:10.810,0.037,0.032,1.003,5.188,10.132,5.005, , , , , , ,1.802,-2.823,-106.556
 12:47:06.225,eb:33:2e:f9:57:b5, 2015-01-01 00:33:10.810,0.032,0.037,1.007,5.371,10.437,4.822, , , , , , ,1.829,-2.774,-106.529
 12:47:06.225,eb:33:2e:f9:57:b5, 2015-01-01 00:33:10.810,0.031,0.038,1.003,5.676,10.254,4.333, , , , , , ,1.857,-2.719,-106.507
 12:47:06.225,eb:33:2e:f9:57:b5, 2015-01-01 00:33:10.810,0.031,0.04,1.004,5.859,10.132,3.723, , , , , , ,1.884,-2.67,-106.485
 12:47:06.225,eb:33:2e:f9:57:b5, 2015-01-01 00:33:10.810,0.033,0.036,1.006,6.104,10.132,3.479, , , , , , ,1.912,-2.62,-106.463
 12:47:06.225,eb:33:2e:f9:57:b5, 2015-01-01 00:33:10.810,0.038,0.034,1.008,6.348,10.071,3.174, , , , , , ,1.945,-2.571,-106.452
 12:47:06.271,eb:33:2e:f9:57:b5, 2015-01-01 00:33:11.120,0.042,0.037,1.011,6.531,10.498,2.869, , , , , , ,1.972,-2.521,-106.436
 12:47:06.271,eb:33:2e:f9:57:b5, 2015-01-01 00:33:11.120,0.042,0.036,1.014,6.836,11.108,2.625, , , , , , ,2.005,-2.466,-106.419
 12:47:06.271,eb:33:2e:f9:57:b5, 2015-01-01 00:33:11.120,0.04,0.039,1.013,6.958,11.963,2.441, , , , , , ,2.043,-2.406,-106.403
 12:47:06.271,eb:33:2e:f9:57:b5, 2015-01-01 00:33:11.120,0.038,0.038,1.013,7.141,12.817,2.441, , , , , , ,2.076,-2.346,-106.392
 12:47:06.271,eb:33:2e:f9:57:b5, 2015-01-01 00:33:11.120,0.037,0.041,1.01,7.141,13.306,2.319, , , , , , ,2.109,-2.28,-106.375
 12:47:06.271,eb:33:2e:f9:57:b5, 2015-01-01 00:33:11.120,0.044,0.037,1.011,7.202,13.916,2.319, , , , , , ,2.148,-2.208,-106.364
 12:47:06.271,eb:33:2e:f9:57:b5, 2015-01-01 00:33:11.120,0.037,0.041,1.015,7.141,14.832,2.197, , , , , , ,2.181,-2.137,-106.348
 12:47:06.271,eb:33:2e:f9:57:b5, 2015-01-01 00:33:11.120,0.036,0.039,1.012,6.714,15.686,2.441, , , , , , ,2.214,-2.065,-106.337
 12:47:06.293,eb:33:2e:f9:57:b5, 2015-01-01 00:33:11.120,0.027,0.053,1.003,5.981,16.541,2.258, , , , , , ,2.247,-1.983,-106.32
 12:47:06.293,eb:33:2e:f9:57:b5, 2015-01-01 00:33:11.120,0.033,0.059,0.994,5.371,16.602,1.892, , , , , , ,2.274,-1.901,-106.309
 12:47:06.293,eb:33:2e:f9:57:b5, 2015-01-01 00:33:11.120,0.027,0.067,0.999,4.822,16.785,0.977, , , , , , ,2.296,-1.813,-106.298
 12:47:06.293,eb:33:2e:f9:57:b5, 2015-01-01 00:33:11.120,0.027,0.058,0.997,4.333,16.724,0.427, , , , , , ,2.318,-1.73,-106.293
 12:47:06.293,eb:33:2e:f9:57:b5, 2015-01-01 00:33:11.120,0.026,0.05,1.003,4.089,16.968,0.183, , , , , , ,2.34,-1.648,-106.287
 12:47:06.293,eb:33:2e:f9:57:b5, 2015-01-01 00:33:11.120,0.026,0.049,1.004,3.906,17.151,-0.061, , , , , , ,2.362,-1.56,-106.287
 12:47:06.293,eb:33:2e:f9:57:b5, 2015-01-01 00:33:11.120,0.024,0.051,1.003,3.662,17.517,-0.427, , , , , , ,2.379,-1.478,-106.282
 12:47:06.294,eb:33:2e:f9:57:b5, 2015-01-01 00:33:11.120,0.023,0.054,1,3.601,17.456,-0.916, , , , , , ,2.395,-1.39,-106.287
 12:47:06.337,eb:33:2e:f9:57:b5, 2015-01-01 00:33:11.120,0.024,0.049,1.002,3.479,17.822,-1.099, , , , , , ,2.417,-1.296,-106.287
 12:47:06.337,eb:33:2e:f9:57:b5, 2015-01-01 00:33:11.120,0.017,0.051,1.003,3.418,18.066,-1.526, , , , , , ,2.433,-1.208,-106.293
 12:47:06.337,eb:33:2e:f9:57:b5, 2015-01-01 00:33:11.120,0.014,0.05,0.998,3.479,18.066,-1.831, , , , , , ,2.45,-1.115,-106.298
 12:47:06.337,eb:33:2e:f9:57:b5, 2015-01-01 00:33:11.120,0.019,0.052,0.996,3.601,17.944,-2.197, , , , , , ,2.466,-1.027,-106.304
 12:47:06.337,eb:33:2e:f9:57:b5, 2015-01-01 00:33:11.120,0.021,0.054,1.002,3.601,18.127,-2.686, , , , , , ,2.483,-0.934,-106.315
 12:47:06.337,eb:33:2e:f9:57:b5, 2015-01-01 00:33:11.120,0.008,0.054,1.004,3.784,18.555,-3.296, , , , , , ,2.505,-0.84,-106.326
 12:47:06.337,eb:33:2e:f9:57:b5, 2015-01-01 00:33:11.120,0.006,0.049,0.997,3.845,18.433,-3.418, , , , , , ,2.521,-0.747,-106.337
 12:47:06.337,eb:33:2e:f9:57:b5, 2015-01-01 00:33:11.120,0,0.05,0.995,3.845,18.188,-3.54, , , , , , ,2.543,-0.659,-106.353
 12:47:06.383,eb:33:2e:f9:57:b5, 2015-01-01 00:33:11.120,-0.002,0.047,0.995,4.028,17.761,-3.54, , , , , , ,2.56,-0.566,-106.37
 12:47:06.383,eb:33:2e:f9:57:b5, 2015-01-01 00:33:11.120,0.001,0.048,0.991,3.967,17.334,-3.418, , , , , , ,2.582,-0.478,-106.381
 12:47:06.383,eb:33:2e:f9:57:b5, 2015-01-01 00:33:11.120,0,0.053,0.991,3.845,17.151,-3.296, , , , , , ,2.604,-0.39,-106.397
 12:47:06.383,eb:33:2e:f9:57:b5, 2015-01-01 00:33:11.120,0,0.054,0.993,3.662,16.846,-3.296, , , , , , ,2.62,-0.308,-106.414
 12:47:06.383,eb:33:2e:f9:57:b5, 2015-01-01 00:33:11.120,0,0.054,0.994,3.54,16.785,-3.296, , , , , , ,2.637,-0.22,-106.425
 12:47:06.383,eb:33:2e:f9:57:b5, 2015-01-01 00:33:11.120,0.001,0.052,1,3.601,16.724,-3.296, , , , , , ,2.659,-0.137,-106.441
 12:47:06.383,eb:33:2e:f9:57:b5, 2015-01-01 00:33:11.120,-0.001,0.053,1,3.601,16.907,-3.418, , , , , , ,2.675,-0.055,-106.452
 12:47:06.383,eb:33:2e:f9:57:b5, 2015-01-01 00:33:11.120,0.003,0.053,1,3.54,16.846,-3.357, , , , , , ,2.692,0.027,-106.469
 12:47:06.429,eb:33:2e:f9:57:b5, 2015-01-01 00:33:11.120,0.004,0.058,1.003,3.54,17.273,-3.662, , , , , , ,2.708,0.115,-106.479
 12:47:06.429,eb:33:2e:f9:57:b5, 2015-01-01 00:33:11.120,-0.005,0.057,1.004,3.784,17.761,-3.845, , , , , , ,2.73,0.203,-106.496
 12:47:06.429,eb:33:2e:f9:57:b5, 2015-01-01 00:33:11.120,-0.018,0.058,0.996,3.479,18.005,-3.906, , , , , , ,2.747,0.297,-106.512
 12:47:06.429,eb:33:2e:f9:57:b5, 2015-01-01 00:33:11.120,-0.02,0.053,0.99,3.784,16.052,-4.517, , , , , , ,2.763,0.379,-106.529
 12:47:06.429,eb:33:2e:f9:57:b5, 2015-01-01 00:33:11.120,-0.023,0.047,1,4.15,15.808,-4.761, , , , , , ,2.785,0.461,-106.551
 12:47:06.429,eb:33:2e:f9:57:b5, 2015-01-01 00:33:11.120,-0.02,0.061,0.985,3.784,15.137,-4.578, , , , , , ,2.807,0.538,-106.573
 12:47:06.429,eb:33:2e:f9:57:b5, 2015-01-01 00:33:11.120,-0.015,0.055,0.999,4.089,14.099,-5.005, , , , , , ,2.823,0.61,-106.589
 12:47:06.429,eb:33:2e:f9:57:b5, 2015-01-01 00:33:11.120,-0.028,0.054,1.006,5.005,13.245,-5.432, , , , , , ,2.845,0.681,-106.617
 12:47:06.473,eb:33:2e:f9:57:b5, 2015-01-01 00:33:11.120,-0.027,0.049,0.997,5.249,13.062,-5.371, , , , , , ,2.873,0.747,-106.639
 12:47:06.473,eb:33:2e:f9:57:b5, 2015-01-01 00:33:11.120,-0.025,0.056,0.995,5.31,12.512,-5.432, , , , , , ,2.9,0.813,-106.666
 12:47:06.473,eb:33:2e:f9:57:b5, 2015-01-01 00:33:11.120,-0.029,0.062,0.993,4.944,12.817,-5.371, , , , , , ,2.922,0.879,-106.688
 12:47:06.473,eb:33:2e:f9:57:b5, 2015-01-01 00:33:11.120,-0.024,0.052,0.997,5.432,11.902,-5.615, , , , , , ,2.95,0.939,-106.716
 12:47:06.473,eb:33:2e:f9:57:b5, 2015-01-01 00:33:11.120,-0.036,0.054,0.998,5.859,11.597,-5.676, , , , , , ,2.977,1,-106.743
 12:47:06.473,eb:33:2e:f9:57:b5, 2015-01-01 00:33:11.120,-0.035,0.05,0.994,6.165,10.742,-5.554, , , , , , ,3.01,1.06,-106.765
 12:47:06.473,eb:33:2e:f9:57:b5, 2015-01-01 00:33:11.120,-0.024,0.059,0.984,6.042,9.949,-5.554, , , , , , ,3.038,1.11,-106.793
 12:47:06.473,eb:33:2e:f9:57:b5, 2015-01-01 00:33:11.120,-0.031,0.06,0.998,6.348,9.216,-5.798, , , , , , ,3.071,1.159,-106.82
 12:47:06.496,eb:33:2e:f9:57:b5, 2015-01-01 00:33:11.120,-0.028,0.057,0.998,6.836,8.301,-6.348, , , , , , ,3.098,1.203,-106.848
 12:47:06.496,eb:33:2e:f9:57:b5, 2015-01-01 00:33:11.120,-0.018,0.061,0.997,7.324,7.202,-6.653, , , , , , ,3.137,1.247,-106.88
 12:47:06.496,eb:33:2e:f9:57:b5, 2015-01-01 00:33:11.120,-0.022,0.064,1.006,7.751,7.019,-7.019, , , , , , ,3.175,1.285,-106.913
 12:47:06.496,eb:33:2e:f9:57:b5, 2015-01-01 00:33:11.120,-0.023,0.069,1,8.545,5.493,-7.446, , , , , , ,3.214,1.313,-106.946
 12:47:06.496,eb:33:2e:f9:57:b5, 2015-01-01 00:33:11.120,-0.049,0.057,1.02,9.644,5.127,-7.629, , , , , , ,3.257,1.346,-106.985
 12:47:06.496,eb:33:2e:f9:57:b5, 2015-01-01 00:33:11.120,-0.044,0.037,1.031,11.658,3.601,-7.446, , , , , , ,3.312,1.368,-107.023
 12:47:06.496,eb:33:2e:f9:57:b5, 2015-01-01 00:33:11.120,-0.045,0.031,1.059,12.817,5.859,-6.348, , , , , , ,3.373,1.395,-107.056
 12:47:06.496,eb:33:2e:f9:57:b5, 2015-01-01 00:33:11.120,-0.036,0.022,1.074,15.564,5.798,-5.859, , , , , , ,3.444,1.423,-107.084
 12:47:06.540,eb:33:2e:f9:57:b5, 2015-01-01 00:33:11.120,-0.055,0.033,1.061,17.761,6.653,-5.493, , , , , , ,3.527,1.461,-107.111
 12:47:06.540,eb:33:2e:f9:57:b5, 2015-01-01 00:33:11.120,-0.022,0.036,1.033,19.47,6.104,-4.822, , , , , , ,3.62,1.494,-107.133
 12:47:06.540,eb:33:2e:f9:57:b5, 2015-01-01 00:33:11.120,-0.005,0.065,1.027,20.63,6.042,-4.944, , , , , , ,3.719,1.522,-107.155
 12:47:06.540,eb:33:2e:f9:57:b5, 2015-01-01 00:33:11.120,-0.029,0.069,1.04,22.034,6.653,-5.371, , , , , , ,3.829,1.56,-107.183
 12:47:06.540,eb:33:2e:f9:57:b5, 2015-01-01 00:33:11.120,-0.019,0.056,1.023,23.193,6.348,-4.761, , , , , , ,3.939,1.593,-107.205
 12:47:06.540,eb:33:2e:f9:57:b5, 2015-01-01 00:33:11.120,-0.002,0.074,1.007,24.536,4.395,-4.761, , , , , , ,4.059,1.62,-107.227
 12:47:06.540,eb:33:2e:f9:57:b5, 2015-01-01 00:33:11.120,-0.013,0.091,1.021,25.879,3.052,-5.493, , , , , , ,4.186,1.642,-107.254
 12:47:06.540,eb:33:2e:f9:57:b5, 2015-01-01 00:33:11.120,-0.013,0.078,1.042,27.771,2.075,-5.127, , , , , , ,4.318,1.653,-107.281
 12:47:06.585,eb:33:2e:f9:57:b5, 2015-01-01 00:33:11.410,-0.03,0.087,1.043,30.273,-0.793,-5.432, , , , , , ,4.466,1.659,-107.303
 12:47:06.585,eb:33:2e:f9:57:b5, 2015-01-01 00:33:11.410,-0.045,0.022,1.2,33.997,0.549,-4.028, , , , , , ,4.625,1.664,-107.331
 12:47:06.585,eb:33:2e:f9:57:b5, 2015-01-01 00:33:11.410,0.021,-0.043,1.408,40.588,3.54,-1.404, , , , , , ,4.812,1.67,-107.342
 12:47:06.585,eb:33:2e:f9:57:b5, 2015-01-01 00:33:11.410,0.025,-0.001,1.386,49.866,5.859,-0.488, , , , , , ,5.043,1.697,-107.342
 12:47:06.585,eb:33:2e:f9:57:b5, 2015-01-01 00:33:11.410,-0.061,0.058,1.298,55.298,6.714,-2.502, , , , , , ,5.312,1.73,-107.347
 12:47:06.585,eb:33:2e:f9:57:b5, 2015-01-01 00:33:11.410,-0.105,-0.078,1.542,62.805,11.597,-1.77, , , , , , ,5.609,1.78,-107.353
 12:47:06.585,eb:33:2e:f9:57:b5, 2015-01-01 00:33:11.410,-0.005,-0.151,1.662,73.975,17.944,1.526, , , , , , ,5.955,1.857,-107.347
 12:47:06.585,eb:33:2e:f9:57:b5, 2015-01-01 00:33:11.410,-0.014,-0.031,1.479,84.656,19.104,2.563, , , , , , ,6.356,1.95,-107.325
 12:47:06.630,eb:33:2e:f9:57:b5, 2015-01-01 00:33:11.410,-0.081,0.005,1.339,92.529,17.578,2.441, , , , , , ,6.806,2.038,-107.303
 12:47:06.630,eb:33:2e:f9:57:b5, 2015-01-01 00:33:11.410,-0.069,-0.044,1.376,98.267,21.301,5.737, , , , , , ,7.289,2.131,-107.271
 12:47:06.630,eb:33:2e:f9:57:b5, 2015-01-01 00:33:11.410,-0.009,-0.001,1.347,106.14,20.02,7.874, , , , , , ,7.806,2.236,-107.221
 12:47:06.630,eb:33:2e:f9:57:b5, 2015-01-01 00:33:11.410,-0.05,0.039,1.317,114.502,17.822,8.24, , , , , , ,8.361,2.318,-107.172
 12:47:06.630,eb:33:2e:f9:57:b5, 2015-01-01 00:33:11.410,-0.047,0.007,1.322,122.009,17.029,9.399, , , , , , ,8.959,2.395,-107.111
 12:47:06.630,eb:33:2e:f9:57:b5, 2015-01-01 00:33:11.410,-0.001,0.005,1.344,129.822,17.334,10.437, , , , , , ,9.597,2.477,-107.051
 12:47:06.630,eb:33:2e:f9:57:b5, 2015-01-01 00:33:11.410,0.021,0.04,1.352,138.55,16.052,9.888, , , , , , ,10.272,2.549,-106.985
 12:47:06.630,eb:33:2e:f9:57:b5, 2015-01-01 00:33:11.410,0.024,0.045,1.41,147.827,16.541,9.033, , , , , , ,10.997,2.62,-106.924
 12:47:06.676,eb:33:2e:f9:57:b5, 2015-01-01 00:33:11.410,0.021,0.042,1.446,157.166,18.311,7.69, , , , , , ,11.766,2.697,-106.864
 12:47:06.676,eb:33:2e:f9:57:b5, 2015-01-01 00:33:11.410,0.007,0.035,1.434,169.312,19.592,6.165, , , , , , ,12.59,2.785,-106.815
 12:47:06.676,eb:33:2e:f9:57:b5, 2015-01-01 00:33:11.410,-0.012,0.027,1.499,180.664,18.616,4.456, , , , , , ,13.469,2.873,-106.765
 12:47:06.676,eb:33:2e:f9:57:b5, 2015-01-01 00:33:11.410,0.026,-0.003,1.612,193.481,18.982,2.38, , , , , , ,14.414,2.961,-106.727
 12:47:06.676,eb:33:2e:f9:57:b5, 2015-01-01 00:33:11.410,0.096,-0.019,1.728,208.496,23.743,0.427, , , , , , ,15.425,3.06,-106.694
 12:47:06.676,eb:33:2e:f9:57:b5, 2015-01-01 00:33:11.410,0.118,-0.015,1.783,223.083,32.41,-1.526, , , , , , ,16.512,3.203,-106.661
 12:47:06.676,eb:33:2e:f9:57:b5, 2015-01-01 00:33:11.410,0.127,0.029,1.776,236.816,38.574,-6.042, , , , , , ,17.672,3.378,-106.628
 12:47:06.676,eb:33:2e:f9:57:b5, 2015-01-01 00:33:11.410,0.124,0.016,1.782,252.625,43.579,-11.475, , , , , , ,18.902,3.593,-106.606
 12:47:06.698,eb:33:2e:f9:57:b5, 2015-01-01 00:33:11.410,0.156,-0.039,1.877,269.165,51.025,-16.724, , , , , , ,20.215,3.845,-106.595
 12:47:06.698,eb:33:2e:f9:57:b5, 2015-01-01 00:33:11.410,0.288,-0.049,2.095,283.447,65.186,-21.362, , , , , , ,21.605,4.153,-106.584
 12:47:06.698,eb:33:2e:f9:57:b5, 2015-01-01 00:33:11.410,0.354,-0.014,2.083,300.232,74.524,-27.161, , , , , , ,23.071,4.532,-106.562
 12:47:06.698,eb:33:2e:f9:57:b5, 2015-01-01 00:33:11.410,0.284,0.1,2.003,319.336,72.021,-36.255, , , , , , ,24.631,4.938,-106.556
 12:47:06.698,eb:33:2e:f9:57:b5, 2015-01-01 00:33:11.410,0.156,0.067,2.047,339.905,68.909,-44.373, , , , , , ,26.285,5.339,-106.595
 12:47:06.698,eb:33:2e:f9:57:b5, 2015-01-01 00:33:11.410,0.014,0.001,2.296,360.168,76.904,-47.18, , , , , , ,28.037,5.773,-106.633
 12:47:06.698,eb:33:2e:f9:57:b5, 2015-01-01 00:33:11.410,0.029,-0.109,2.305,378.357,82.947,-43.823, , , , , , ,29.894,6.24,-106.639
 12:47:06.698,eb:33:2e:f9:57:b5, 2015-01-01 00:33:11.410,0.14,0.207,2.106,394.714,67.261,-49.561, , , , , , ,31.833,6.68,-106.644
 12:47:06.766,eb:33:2e:f9:57:b5, 2015-01-01 00:33:11.410,0.095,0.07,2.074,410.645,53.04,-50.11, , , , , , ,33.849,7.064,-106.688
 12:47:06.766,eb:33:2e:f9:57:b5, 2015-01-01 00:33:11.410,-0.296,0.163,2.163,406.616,41.199,-53.833, , , , , , ,35.881,7.388,-106.804
 12:47:06.766,eb:33:2e:f9:57:b5, 2015-01-01 00:33:11.410,-0.246,0.276,2.737,403.931,56.763,-53.406, , , , , , ,37.892,7.751,-106.864
 12:47:06.766,eb:33:2e:f9:57:b5, 2015-01-01 00:33:11.410,-0.134,0.36,2.902,405.945,76.477,-50.72, , , , , , ,39.919,8.185,-106.837
 12:47:06.766,eb:33:2e:f9:57:b5, 2015-01-01 00:33:11.410,0.164,0.181,2.435,412.292,77.698,-41.199, , , , , , ,41.984,8.635,-106.727
 12:47:06.766,eb:33:2e:f9:57:b5, 2015-01-01 00:33:11.410,0.236,0.321,2.106,417.664,48.096,-45.41, , , , , , ,44.061,9.003,-106.688
 12:47:06.766,eb:33:2e:f9:57:b5, 2015-01-01 00:33:11.410,0.071,0.168,2.392,416.687,31.86,-51.819, , , , , , ,46.143,9.305,-106.743
 12:47:06.766,eb:33:2e:f9:57:b5, 2015-01-01 00:33:11.410,0.184,-0.072,2.625,415.894,31.372,-51.575, , , , , , ,48.208,9.608,-106.793
 12:47:06.787,eb:33:2e:f9:57:b5, 2015-01-01 00:33:11.410,0.398,-0.014,2.547,412.537,19.104,-57.373, , , , , , ,50.268,9.893,-106.88
 12:47:06.787,eb:33:2e:f9:57:b5, 2015-01-01 00:33:11.410,0.409,-0.343,2.65,400.879,25.269,-61.462, , , , , , ,52.267,10.195,-106.996
 12:47:06.787,eb:33:2e:f9:57:b5, 2015-01-01 00:33:11.410,0.58,-0.701,2.624,394.409,39.551,-62.805, , , , , , ,54.24,10.547,-107.04
 12:47:06.787,eb:33:2e:f9:57:b5, 2015-01-01 00:33:11.410,0.774,-0.777,2.44,397.583,46.875,-72.083, , , , , , ,56.217,10.948,-107.045
 12:47:06.787,eb:33:2e:f9:57:b5, 2015-01-01 00:33:11.410,0.777,-1.14,2.063,405.396,51.941,-80.322, , , , , , ,58.228,11.409,-107.04
 12:47:06.787,eb:33:2e:f9:57:b5, 2015-01-01 00:33:11.410,0.778,-1.404,1.777,416.748,56.458,-89.294, , , , , , ,60.271,11.92,-107.04
 12:47:06.787,eb:33:2e:f9:57:b5, 2015-01-01 00:33:11.410,0.914,-1.287,1.587,437.195,56.03,-103.455, , , , , , ,62.419,12.48,-107.018
 12:47:06.787,eb:33:2e:f9:57:b5, 2015-01-01 00:33:11.410,0.69,-0.58,1.67,476.746,49.683,-147.949, , , , , , ,64.698,13.167,-107.067
 12:47:06.877,eb:33:2e:f9:57:b5, 2015-01-01 00:33:11.410,0.565,-0.053,0.974,482.117,29.968,-186.462, , , , , , ,67.094,14.03,-107.238
 12:47:06.877,eb:33:2e:f9:57:b5, 2015-01-01 00:33:11.410,0.417,0.316,0.502,418.213,24.475,-208.557, , , , , , ,69.241,15.007,-107.512
 12:47:06.877,eb:33:2e:f9:57:b5, 2015-01-01 00:33:11.410,0.278,-0.096,0.54,346.619,19.714,-214.783, , , , , , ,71.054,16.051,-107.776
 12:47:06.877,eb:33:2e:f9:57:b5, 2015-01-01 00:33:11.410,0.306,-0.456,0.207,240.234,1.831,-213.867, , , , , , ,72.394,17.084,-108.062
 12:47:06.877,eb:33:2e:f9:57:b5, 2015-01-01 00:33:11.410,0.194,-0.817,-0.166,142.639,-5.859,-207.153, , , , , , ,73.202,18.083,-108.402
 12:47:06.877,eb:33:2e:f9:57:b5, 2015-01-01 00:33:11.410,0.176,-1.221,-0.823,40.833,-9.705,-194.214, , , , , , ,73.482,19.028,-108.765
 12:47:06.877,eb:33:2e:f9:57:b5, 2015-01-01 00:33:11.410,0.202,-1.477,-1.1,-56.03,-1.221,-175.415, , , , , , ,73.29,19.896,-109.067
 12:47:06.877,eb:33:2e:f9:57:b5, 2015-01-01 00:33:11.410,0.201,-1.539,-0.913,-137.573,8.789,-156.006, , , , , , ,72.675,20.687,-109.281
 12:47:06.881,eb:33:2e:f9:57:b5, 2015-01-01 00:33:11.410,0.129,-1.385,-0.229,-193.97,13.794,-139.16, , , , , , ,71.746,21.401,-109.457
 12:47:06.881,eb:33:2e:f9:57:b5, 2015-01-01 00:33:11.410,0.069,-1.085,0.34,-228.088,14.343,-125.732, , , , , , ,70.593,22.039,-109.622
 12:47:06.881,eb:33:2e:f9:57:b5, 2015-01-01 00:33:11.410,0.046,-0.835,0.672,-247.07,14.893,-114.075, , , , , , ,69.335,22.621,-109.764
 12:47:06.881,eb:33:2e:f9:57:b5, 2015-01-01 00:33:11.410,0.09,-0.72,0.796,-255.798,15.564,-103.271, , , , , , ,68.016,23.154,-109.885
 12:47:06.881,eb:33:2e:f9:57:b5, 2015-01-01 00:33:11.410,0.113,-0.704,0.794,-259.46,18.677,-92.773, , , , , , ,66.676,23.632,-110.006
 12:47:06.881,eb:33:2e:f9:57:b5, 2015-01-01 00:33:11.410,0.153,-0.743,0.578,-262.268,20.081,-81.543, , , , , , ,65.319,24.066,-110.099
 12:47:06.881,eb:33:2e:f9:57:b5, 2015-01-01 00:33:11.410,0.182,-0.797,0.354,-266.174,20.447,-70.374, , , , , , ,63.962,24.445,-110.176
 12:47:06.881,eb:33:2e:f9:57:b5, 2015-01-01 00:33:11.410,0.188,-0.808,0.194,-272.095,18.616,-59.021, , , , , , ,62.589,24.774,-110.226
 12:47:06.900,eb:33:2e:f9:57:b5, 2015-01-01 00:33:11.410,0.173,-0.782,0.139,-279.053,14.282,-47.974, , , , , , ,61.183,25.043,-110.281
 12:47:06.900,eb:33:2e:f9:57:b5, 2015-01-01 00:33:11.410,0.157,-0.708,0.156,-286.56,7.08,-37.476, , , , , , ,59.716,25.247,-110.352
 12:47:06.900,eb:33:2e:f9:57:b5, 2015-01-01 00:33:11.410,0.161,-0.649,0.203,-294.312,-2.747,-27.222, , , , , , ,58.228,25.384,-110.435
 12:47:06.900,eb:33:2e:f9:57:b5, 2015-01-01 00:33:11.410,0.186,-0.629,0.244,-303.223,-13.123,-16.968, , , , , , ,56.684,25.45,-110.528
 12:47:06.901,eb:33:2e:f9:57:b5, 2015-01-01 00:33:11.410,0.25,-0.611,0.233,-314.392,-24.597,-7.629, , , , , , ,55.08,25.439,-110.654
 12:47:06.901,eb:33:2e:f9:57:b5, 2015-01-01 00:33:11.410,0.313,-0.601,0.242,-327.698,-35.4,0.671, , , , , , ,53.383,25.356,-110.814
 12:47:06.901,eb:33:2e:f9:57:b5, 2015-01-01 00:33:11.410,0.339,-0.598,0.3,-341.003,-45.288,8.118, , , , , , ,51.636,25.208,-110.973
 12:47:06.901,eb:33:2e:f9:57:b5, 2015-01-01 00:33:11.410,0.365,-0.594,0.379,-352.356,-56.03,14.648, , , , , , ,49.818,24.999,-111.143
 12:47:06.944,eb:33:2e:f9:57:b5, 2015-01-01 00:33:11.410,0.396,-0.567,0.479,-361.023,-67.505,20.02, , , , , , ,47.944,24.725,-111.341
 12:47:06.944,eb:33:2e:f9:57:b5, 2015-01-01 00:33:11.410,0.431,-0.515,0.569,-366.699,-79.651,24.292, , , , , , ,46.011,24.379,-111.561
 12:47:06.944,eb:33:2e:f9:57:b5, 2015-01-01 00:33:11.410,0.453,-0.455,0.642,-369.751,-92.163,27.405, , , , , , ,44.072,23.983,-111.797
 12:47:06.944,eb:33:2e:f9:57:b5, 2015-01-01 00:33:11.410,0.465,-0.397,0.703,-370.3,-105.164,29.602, , , , , , ,42.111,23.516,-112.044
 12:47:06.944,eb:33:2e:f9:57:b5, 2015-01-01 00:33:11.410,0.468,-0.352,0.767,-368.835,-117.798,30.762, , , , , , ,40.155,22.994,-112.324
 12:47:06.944,eb:33:2e:f9:57:b5, 2015-01-01 00:33:11.410,0.462,-0.305,0.845,-366.028,-129.395,31.616, , , , , , ,38.183,22.401,-112.626
 12:47:06.944,eb:33:2e:f9:57:b5, 2015-01-01 00:33:11.410,0.454,-0.263,0.933,-362.244,-139.465,32.043, , , , , , ,36.249,21.769,-112.934
 12:47:06.946,eb:33:2e:f9:57:b5, 2015-01-01 00:33:11.410,0.442,-0.219,1.024,-358.032,-147.644,32.288, , , , , , ,34.338,21.083,-113.231
 12:47:06.991,eb:33:2e:f9:57:b5, 2015-01-01 00:33:11.815,0.413,-0.173,1.117,-353.638,-153.564,32.288, , , , , , ,32.448,20.363,-113.533
 12:47:06.991,eb:33:2e:f9:57:b5, 2015-01-01 00:33:11.815,0.377,-0.128,1.196,-348.999,-158.752,32.166, , , , , , ,30.575,19.605,-113.829
 12:47:06.991,eb:33:2e:f9:57:b5, 2015-01-01 00:33:11.815,0.328,-0.087,1.277,-344.543,-162.537,32.043, , , , , , ,28.751,18.825,-114.104
 12:47:06.991,eb:33:2e:f9:57:b5, 2015-01-01 00:33:11.815,0.272,-0.05,1.345,-340.576,-165.1,32.41, , , , , , ,26.96,18.023,-114.351
 12:47:06.991,eb:33:2e:f9:57:b5, 2015-01-01 00:33:11.815,0.23,-0.021,1.408,-336.853,-166.199,33.508, , , , , , ,25.197,17.205,-114.576
 12:47:06.991,eb:33:2e:f9:57:b5, 2015-01-01 00:33:11.815,0.155,-0.003,1.505,-333.74,-164.795,36.133, , , , , , ,23.45,16.37,-114.774
 12:47:06.991,eb:33:2e:f9:57:b5, 2015-01-01 00:33:11.815,0.099,0.002,1.599,-330.872,-160.156,41.626, , , , , , ,21.747,15.546,-114.911
 12:47:06.992,eb:33:2e:f9:57:b5, 2015-01-01 00:33:11.815,0.051,-0.002,1.676,-329.346,-153.931,48.157, , , , , , ,20.083,14.733,-114.977
 12:47:07.035,eb:33:2e:f9:57:b5, 2015-01-01 00:33:11.815,0.037,-0.009,1.745,-328.43,-146.606,56.152, , , , , , ,18.435,13.942,-114.972
 12:47:07.035,eb:33:2e:f9:57:b5, 2015-01-01 00:33:11.815,0.032,-0.016,1.801,-327.942,-138.55,65.613, , , , , , ,16.793,13.162,-114.895
 12:47:07.035,eb:33:2e:f9:57:b5, 2015-01-01 00:33:11.815,0.047,-0.029,1.841,-327.332,-130.554,75.562, , , , , , ,15.189,12.42,-114.736
 12:47:07.035,eb:33:2e:f9:57:b5, 2015-01-01 00:33:11.815,0.065,-0.033,1.879,-325.806,-123.718,85.754, , , , , , ,13.607,11.706,-114.483
 12:47:07.035,eb:33:2e:f9:57:b5, 2015-01-01 00:33:11.815,0.099,-0.021,1.933,-321.838,-119.568,95.093, , , , , , ,12.052,11.014,-114.17
 12:47:07.035,eb:33:2e:f9:57:b5, 2015-01-01 00:33:11.815,0.15,0.016,1.989,-315.308,-119.446,103.577, , , , , , ,10.508,10.322,-113.791
 12:47:07.035,eb:33:2e:f9:57:b5, 2015-01-01 00:33:11.815,0.189,0.057,2.038,-307.434,-121.46,110.718, , , , , , ,9.031,9.635,-113.357
 12:47:07.035,eb:33:2e:f9:57:b5, 2015-01-01 00:33:11.815,0.229,0.105,2.046,-299.5,-126.465,116.638, , , , , , ,7.592,8.937,-112.868
 12:47:07.058,eb:33:2e:f9:57:b5, 2015-01-01 00:33:11.815,0.226,0.163,2.066,-292.358,-132.385,121.094, , , , , , ,6.196,8.223,-112.352
 12:47:07.058,eb:33:2e:f9:57:b5, 2015-01-01 00:33:11.815,0.251,0.231,2.119,-284.79,-140.991,123.84, , , , , , ,4.807,7.471,-111.802
 12:47:07.058,eb:33:2e:f9:57:b5, 2015-01-01 00:33:11.815,0.255,0.318,2.239,-276.306,-147.217,125.61, , , , , , ,3.477,6.702,-111.226
 12:47:07.058,eb:33:2e:f9:57:b5, 2015-01-01 00:33:11.815,0.245,0.415,2.365,-265.564,-150.513,126.343, , , , , , ,2.192,5.922,-110.632
 12:47:07.058,eb:33:2e:f9:57:b5, 2015-01-01 00:33:11.815,0.222,0.531,2.467,-252.563,-152.039,126.16, , , , , , ,0.961,5.147,-110.017
 12:47:07.058,eb:33:2e:f9:57:b5, 2015-01-01 00:33:11.815,0.205,0.67,2.537,-236.755,-153.748,125.061, , , , , , ,-0.22,4.367,-109.396
 12:47:07.058,eb:33:2e:f9:57:b5, 2015-01-01 00:33:11.815,0.176,0.845,2.592,-220.398,-155.212,122.986, , , , , , ,-1.313,3.604,-108.765
 12:47:07.058,eb:33:2e:f9:57:b5, 2015-01-01 00:33:11.815,0.129,1.05,2.616,-205.994,-157.104,119.568, , , , , , ,-2.335,2.84,-108.138
 12:47:07.102,eb:33:2e:f9:57:b5, 2015-01-01 00:33:11.815,0.07,1.291,2.612,-197.021,-158.02,114.563, , , , , , ,-3.307,2.082,-107.518
 12:47:07.102,eb:33:2e:f9:57:b5, 2015-01-01 00:33:11.815,0.025,1.546,2.578,-195.007,-158.752,107.117, , , , , , ,-4.29,1.318,-106.919
 12:47:07.102,eb:33:2e:f9:57:b5, 2015-01-01 00:33:11.815,-0.043,1.791,2.532,-201.172,-157.043,97.107, , , , , , ,-5.268,0.577,-106.348
 12:47:07.102,eb:33:2e:f9:57:b5, 2015-01-01 00:33:11.815,-0.111,1.997,2.394,-215.088,-156.006,84.778, , , , , , ,-6.312,-0.154,-105.826
 12:47:07.102,eb:33:2e:f9:57:b5, 2015-01-01 00:33:11.815,-0.149,2.13,2.187,-234.802,-157.471,71.045, , , , , , ,-7.449,-0.884,-105.348
 12:47:07.102,eb:33:2e:f9:57:b5, 2015-01-01 00:33:11.815,-0.166,2.183,1.994,-256.165,-158.936,56.824, , , , , , ,-8.718,-1.637,-104.936
 12:47:07.102,eb:33:2e:f9:57:b5, 2015-01-01 00:33:11.815,-0.194,2.171,1.841,-273.499,-160.034,42.847, , , , , , ,-10.063,-2.384,-104.562
 12:47:07.102,eb:33:2e:f9:57:b5, 2015-01-01 00:33:11.815,-0.26,2.183,1.729,-282.227,-161.804,29.053, , , , , , ,-11.481,-3.142,-104.249
 12:47:07.149,eb:33:2e:f9:57:b5, 2015-01-01 00:33:11.815,-0.343,2.226,1.664,-280.029,-164.978,15.93, , , , , , ,-12.909,-3.917,-103.975
 12:47:07.149,eb:33:2e:f9:57:b5, 2015-01-01 00:33:11.815,-0.4,2.322,1.662,-266.785,-168.64,3.418, , , , , , ,-14.304,-4.73,-103.738
 12:47:07.149,eb:33:2e:f9:57:b5, 2015-01-01 00:33:11.815,-0.441,2.483,1.716,-244.751,-169.983,-8.545, , , , , , ,-15.595,-5.554,-103.535
 12:47:07.149,eb:33:2e:f9:57:b5, 2015-01-01 00:33:11.815,-0.507,2.675,1.776,-217.468,-166.016,-19.775, , , , , , ,-16.754,-6.383,-103.381
 12:47:07.149,eb:33:2e:f9:57:b5, 2015-01-01 00:33:11.815,-0.614,2.855,1.771,-187.988,-156.738,-30.151, , , , , , ,-17.765,-7.191,-103.266
 12:47:07.149,eb:33:2e:f9:57:b5, 2015-01-01 00:33:11.815,-0.759,2.985,1.701,-157.654,-143.982,-39.185, , , , , , ,-18.633,-7.96,-103.206
 12:47:07.149,eb:33:2e:f9:57:b5, 2015-01-01 00:33:11.815,-0.939,3.048,1.578,-127.38,-130.371,-45.593, , , , , , ,-19.336,-8.674,-103.189
 12:47:07.149,eb:33:2e:f9:57:b5, 2015-01-01 00:33:11.815,-1.176,3.047,1.428,-97.595,-118.469,-48.706, , , , , , ,-19.88,-9.333,-103.211
 12:47:07.216,eb:33:2e:f9:57:b5, 2015-01-01 00:33:11.815,-1.335,2.974,1.275,-62.561,-107.178,-47.546, , , , , , ,-20.259,-9.943,-103.25
 12:47:07.216,eb:33:2e:f9:57:b5, 2015-01-01 00:33:11.815,-1.433,2.88,1.219,-34.302,-98.083,-42.969, , , , , , ,-20.484,-10.503,-103.282
 12:47:07.216,eb:33:2e:f9:57:b5, 2015-01-01 00:33:11.815,-1.478,2.77,1.236,-7.935,-86.609,-35.583, , , , , , ,-20.572,-11.003,-103.304
 12:47:07.216,eb:33:2e:f9:57:b5, 2015-01-01 00:33:11.815,-1.484,2.637,1.307,15.686,-71.106,-26.367, , , , , , ,-20.539,-11.42,-103.315
 12:47:07.216,eb:33:2e:f9:57:b5, 2015-01-01 00:33:11.815,-1.461,2.475,1.398,35.278,-50.659,-15.32, , , , , , ,-20.402,-11.733,-103.304
 12:47:07.216,eb:33:2e:f9:57:b5, 2015-01-01 00:33:11.815,-1.407,2.293,1.459,50.232,-26.001,-3.235, , , , , , ,-20.187,-11.915,-103.282
 12:47:07.216,eb:33:2e:f9:57:b5, 2015-01-01 00:33:11.815,-1.323,2.101,1.456,60.669,0.305,9.888, , , , , , ,-19.913,-11.959,-103.244
 12:47:07.216,eb:33:2e:f9:57:b5, 2015-01-01 00:33:11.815,-1.135,1.905,1.396,68.237,24.353,23.804, , , , , , ,-19.594,-11.854,-103.189
 12:47:07.238,eb:33:2e:f9:57:b5, 2015-01-01 00:33:11.815,0.038,1.631,1.554,85.388,32.166,14.038, , , , , , ,-19.237,-11.667,-103.118
 12:47:07.238,eb:33:2e:f9:57:b5, 2015-01-01 00:33:11.815,-0.703,-2.76,8.445,159.424,293.335,107.727, , , , , , ,-18.517,-10.69,-103.134
 12:47:07.238,eb:33:2e:f9:57:b5, 2015-01-01 00:33:11.815,0.966,-0.873,-0.302,161.926,187.073,104.065, , , , , , ,-17.765,-9.492,-103.002
 12:47:07.238,eb:33:2e:f9:57:b5, 2015-01-01 00:33:11.815,0.31,-1.565,-0.17,198.608,194.824,91.37, , , , , , ,-16.886,-8.372,-102.794
 12:47:07.238,eb:33:2e:f9:57:b5, 2015-01-01 00:33:11.815,-0.576,-1.229,0.861,237.854,192.078,78.613, , , , , , ,-15.787,-7.311,-102.667
 12:47:07.238,eb:33:2e:f9:57:b5, 2015-01-01 00:33:11.815,0.036,-1.497,0.416,278.625,152.283,77.515, , , , , , ,-14.491,-6.394,-102.513
 12:47:07.238,eb:33:2e:f9:57:b5, 2015-01-01 00:33:11.815,-0.204,-0.647,1.099,304.321,148.438,74.402, , , , , , ,-13.035,-5.581,-102.321
 12:47:07.238,eb:33:2e:f9:57:b5, 2015-01-01 00:33:11.815,-0.285,-0.316,0.965,315.186,134.766,60.425, , , , , , ,-11.492,-4.823,-102.151
 12:47:07.260,eb:33:2e:f9:57:b5, 2015-01-01 00:33:11.815,-0.661,-0.004,0.919,314.88,118.835,44.006, , , , , , ,-9.926,-4.158,-102.019
 12:47:07.260,eb:33:2e:f9:57:b5, 2015-01-01 00:33:11.815,-0.569,0.293,0.823,303.711,99.243,26.855, , , , , , ,-8.383,-3.598,-101.937
 12:47:07.260,eb:33:2e:f9:57:b5, 2015-01-01 00:33:11.815,-0.993,0.282,0.747,289.185,83.374,15.564, , , , , , ,-6.91,-3.148,-101.893
 12:47:07.260,eb:33:2e:f9:57:b5, 2015-01-01 00:33:11.815,-0.403,0.391,0.599,272.095,53.406,9.338, , , , , , ,-5.515,-2.823,-101.876
 12:47:07.260,eb:33:2e:f9:57:b5, 2015-01-01 00:33:11.815,-0.042,0.56,1.409,241.882,34.058,4.211, , , , , , ,-4.241,-2.609,-101.86
 12:47:07.260,eb:33:2e:f9:57:b5, 2015-01-01 00:33:11.815,0.041,0.829,1.674,202.942,32.532,-4.639, , , , , , ,-3.148,-2.444,-101.876
 12:47:07.260,eb:33:2e:f9:57:b5, 2015-01-01 00:33:11.815,0.083,0.852,1.569,169.495,26.306,-20.264, , , , , , ,-2.236,-2.324,-101.953
 12:47:07.260,eb:33:2e:f9:57:b5, 2015-01-01 00:33:11.815,-0.128,0.472,1.354,147.339,31.189,-22.522, , , , , , ,-1.45,-2.186,-102.074
 12:47:07.305,eb:33:2e:f9:57:b5, 2015-01-01 00:33:12.150,-0.067,0.436,1.111,118.652,24.841,-13.855, , , , , , ,-0.797,-2.049,-102.173
 12:47:07.305,eb:33:2e:f9:57:b5, 2015-01-01 00:33:12.150,0.137,0.6,0.992,82.275,10.803,-3.052, , , , , , ,-0.302,-1.972,-102.206
 12:47:07.305,eb:33:2e:f9:57:b5, 2015-01-01 00:33:12.150,0.051,0.621,1.074,47.058,28.32,4.395, , , , , , ,-0.005,-1.873,-102.206
 12:47:07.305,eb:33:2e:f9:57:b5, 2015-01-01 00:33:12.150,-0.087,0.514,1.03,23.865,51.086,8.24, , , , , , ,0.148,-1.659,-102.178
 12:47:07.305,eb:33:2e:f9:57:b5, 2015-01-01 00:33:12.150,-0.105,0.153,0.916,15.625,46.204,10.864, , , , , , ,0.236,-1.406,-102.123
 12:47:07.305,eb:33:2e:f9:57:b5, 2015-01-01 00:33:12.150,-0.02,-0.085,0.925,18.005,33.997,13.611, , , , , , ,0.319,-1.214,-102.063
 12:47:07.305,eb:33:2e:f9:57:b5, 2015-01-01 00:33:12.150,0.003,-0.039,0.979,22.034,27.283,11.292, , , , , , ,0.423,-1.066,-101.992
 12:47:07.305,eb:33:2e:f9:57:b5, 2015-01-01 00:33:12.150,0.009,0.081,0.969,19.531,24.658,10.254, , , , , , ,0.527,-0.934,-101.942
 12:47:07.351,eb:33:2e:f9:57:b5, 2015-01-01 00:33:12.150,-0.111,0.166,0.962,12.695,26.855,7.629, , , , , , ,0.604,-0.802,-101.904
 12:47:07.351,eb:33:2e:f9:57:b5, 2015-01-01 00:33:12.150,-0.049,0.06,0.915,10.437,19.348,5.493, , , , , , ,0.665,-0.687,-101.865
 12:47:07.351,eb:33:2e:f9:57:b5, 2015-01-01 00:33:12.150,0.023,0.027,0.966,9.583,15.076,6.836, , , , , , ,0.709,-0.604,-101.832
 12:47:07.351,eb:33:2e:f9:57:b5, 2015-01-01 00:33:12.150,0.014,0.03,1.018,9.827,16.235,5.798, , , , , , ,0.758,-0.533,-101.81
 12:47:07.351,eb:33:2e:f9:57:b5, 2015-01-01 00:33:12.150,0.021,0.041,0.997,9.827,16.174,5.798, , , , , , ,0.807,-0.45,-101.777
 12:47:07.351,eb:33:2e:f9:57:b5, 2015-01-01 00:33:12.150,-0.014,0.039,1.042,10.132,21.912,8.301, , , , , , ,0.857,-0.357,-101.739
 12:47:07.352,eb:33:2e:f9:57:b5, 2015-01-01 00:33:12.150,-0.017,0.054,0.993,9.155,21.301,8.057, , , , , , ,0.906,-0.253,-101.7
 12:47:07.352,eb:33:2e:f9:57:b5, 2015-01-01 00:33:12.150,-0.015,0.067,0.958,6.409,15.869,3.967, , , , , , ,0.945,-0.154,-101.673
 12:47:07.395,eb:33:2e:f9:57:b5, 2015-01-01 00:33:12.150,0.02,0.041,0.983,5.066,12.268,3.723, , , , , , ,0.972,-0.093,-101.651
 12:47:07.395,eb:33:2e:f9:57:b5, 2015-01-01 00:33:12.150,0.012,-0.006,1.059,5.493,15.076,5.92, , , , , , ,1.005,-0.016,-101.624
 12:47:07.395,eb:33:2e:f9:57:b5, 2015-01-01 00:33:12.150,-0.032,-0.006,1.067,6.714,20.203,7.08, , , , , , ,1.033,0.06,-101.596
 12:47:07.395,eb:33:2e:f9:57:b5, 2015-01-01 00:33:12.150,-0.003,0.011,0.995,7.507,19.165,7.019, , , , , , ,1.071,0.154,-101.563
 12:47:07.395,eb:33:2e:f9:57:b5, 2015-01-01 00:33:12.150,-0.01,0.04,1,7.019,18.066,5.676, , , , , , ,1.104,0.247,-101.53
 12:47:07.395,eb:33:2e:f9:57:b5, 2015-01-01 00:33:12.150,-0.014,0.041,0.996,6.531,17.273,4.578, , , , , , ,1.143,0.335,-101.503
 12:47:07.396,eb:33:2e:f9:57:b5, 2015-01-01 00:33:12.150,-0.014,0.039,0.994,6.042,16.602,4.089, , , , , , ,1.176,0.423,-101.481
 12:47:07.396,eb:33:2e:f9:57:b5, 2015-01-01 00:33:12.150,-0.025,0.042,0.995,5.493,16.174,3.54, , , , , , ,1.203,0.5,-101.464
 12:47:07.440,eb:33:2e:f9:57:b5, 2015-01-01 00:33:12.150,-0.046,0.037,0.993,5.188,15.32,3.052, , , , , , ,1.225,0.582,-101.442
 12:47:07.440,eb:33:2e:f9:57:b5, 2015-01-01 00:33:12.150,-0.049,0.032,0.986,5.249,13.184,2.563, , , , , , ,1.258,0.654,-101.426
 12:47:07.440,eb:33:2e:f9:57:b5, 2015-01-01 00:33:12.150,-0.045,0.029,0.991,5.371,11.353,2.075, , , , , , ,1.285,0.714,-101.415
 12:47:07.440,eb:33:2e:f9:57:b5, 2015-01-01 00:33:12.150,-0.035,0.026,0.998,5.493,9.949,1.831, , , , , , ,1.313,0.764,-101.409
 12:47:07.440,eb:33:2e:f9:57:b5, 2015-01-01 00:33:12.150,-0.028,0.028,1.003,5.676,9.155,1.404, , , , , , ,1.34,0.813,-101.398
 12:47:07.440,eb:33:2e:f9:57:b5, 2015-01-01 00:33:12.150,-0.022,0.03,1.001,5.737,8.484,1.038, , , , , , ,1.373,0.857,-101.393
 12:47:07.440,eb:33:2e:f9:57:b5, 2015-01-01 00:33:12.150,-0.027,0.031,1.004,5.92,8.362,0.732, , , , , , ,1.401,0.901,-101.387
 12:47:07.440,eb:33:2e:f9:57:b5, 2015-01-01 00:33:12.150,-0.027,0.031,0.999,5.981,7.751,0.549, , , , , , ,1.428,0.939,-101.387
 12:47:07.462,eb:33:2e:f9:57:b5, 2015-01-01 00:33:12.150,-0.027,0.033,1,6.226,7.141,0.366, , , , , , ,1.461,0.978,-101.387
 12:47:07.462,eb:33:2e:f9:57:b5, 2015-01-01 00:33:12.150,-0.026,0.034,1,6.47,6.287,0.122, , , , , , ,1.494,1.011,-101.382
 12:47:07.462,eb:33:2e:f9:57:b5, 2015-01-01 00:33:12.150,-0.028,0.035,1.001,6.714,5.737,-0.122, , , , , , ,1.527,1.038,-101.382
 12:47:07.462,eb:33:2e:f9:57:b5, 2015-01-01 00:33:12.150,-0.026,0.033,1,6.897,5.249,-0.366, , , , , , ,1.56,1.066,-101.387
 12:47:07.462,eb:33:2e:f9:57:b5, 2015-01-01 00:33:12.150,-0.026,0.035,1,7.019,5.005,-0.488, , , , , , ,1.599,1.093,-101.387
 12:47:07.462,eb:33:2e:f9:57:b5, 2015-01-01 00:33:12.150,-0.03,0.034,1,7.141,4.517,-0.549, , , , , , ,1.637,1.121,-101.387
 12:47:07.462,eb:33:2e:f9:57:b5, 2015-01-01 00:33:12.150,-0.032,0.029,1.001,7.446,3.479,-0.366, , , , , , ,1.67,1.137,-101.393
 12:47:07.462,eb:33:2e:f9:57:b5, 2015-01-01 00:33:12.150,-0.021,0.031,0.997,7.935,2.014,-0.122, , , , , , ,1.708,1.154,-101.398
 12:47:07.508,eb:33:2e:f9:57:b5, 2015-01-01 00:33:12.150,-0.023,0.043,0.999,7.996,1.587,-0.183, , , , , , ,1.747,1.159,-101.398
 12:47:07.508,eb:33:2e:f9:57:b5, 2015-01-01 00:33:12.150,-0.024,0.045,0.994,7.812,1.465,-0.244, , , , , , ,1.791,1.17,-101.398
 12:47:07.508,eb:33:2e:f9:57:b5, 2015-01-01 00:33:12.150,-0.024,0.042,0.997,7.629,1.526,-0.183, , , , , , ,1.829,1.176,-101.398
 12:47:07.508,eb:33:2e:f9:57:b5, 2015-01-01 00:33:12.150,-0.021,0.044,0.993,7.263,1.282,-0.305, , , , , , ,1.868,1.187,-101.404
 12:47:07.508,eb:33:2e:f9:57:b5, 2015-01-01 00:33:12.150,-0.016,0.048,0.999,6.958,1.343,-0.427, , , , , , ,1.901,1.192,-101.409
 12:47:07.508,eb:33:2e:f9:57:b5, 2015-01-01 00:33:12.150,-0.015,0.05,1.003,6.775,1.526,-0.732, , , , , , ,1.939,1.198,-101.409
 12:47:07.508,eb:33:2e:f9:57:b5, 2015-01-01 00:33:12.150,-0.013,0.049,1.003,6.714,1.709,-0.977, , , , , , ,1.972,1.208,-101.415
 12:47:07.508,eb:33:2e:f9:57:b5, 2015-01-01 00:33:12.150,-0.018,0.048,1.007,6.775,2.014,-1.404, , , , , , ,2.005,1.219,-101.426
 12:47:07.554,eb:33:2e:f9:57:b5, 2015-01-01 00:33:12.150,-0.021,0.048,1.008,7.019,1.953,-1.77, , , , , , ,2.038,1.225,-101.437
 12:47:07.554,eb:33:2e:f9:57:b5, 2015-01-01 00:33:12.150,-0.021,0.047,1.009,7.568,1.709,-2.136, , , , , , ,2.082,1.236,-101.442
 12:47:07.554,eb:33:2e:f9:57:b5, 2015-01-01 00:33:12.150,-0.024,0.049,1.008,7.996,1.526,-2.441, , , , , , ,2.12,1.247,-101.453
 12:47:07.554,eb:33:2e:f9:57:b5, 2015-01-01 00:33:12.150,-0.025,0.045,1.001,8.057,1.404,-2.625, , , , , , ,2.159,1.252,-101.47
 12:47:07.554,eb:33:2e:f9:57:b5, 2015-01-01 00:33:12.150,-0.025,0.051,0.997,8.057,1.221,-2.93, , , , , , ,2.197,1.263,-101.486
 12:47:07.554,eb:33:2e:f9:57:b5, 2015-01-01 00:33:12.150,-0.025,0.049,1.004,8.24,1.465,-2.991, , , , , , ,2.241,1.269,-101.497
 12:47:07.555,eb:33:2e:f9:57:b5, 2015-01-01 00:33:12.150,-0.019,0.051,1.006,8.362,1.648,-3.418, , , , , , ,2.285,1.28,-101.514
 12:47:07.555,eb:33:2e:f9:57:b5, 2015-01-01 00:33:12.150,-0.02,0.058,1.005,8.362,2.258,-3.723, , , , , , ,2.324,1.291,-101.536
 12:47:07.599,eb:33:2e:f9:57:b5, 2015-01-01 00:33:12.440,-0.016,0.058,1.001,8.362,2.319,-3.906, , , , , , ,2.368,1.302,-101.558
 12:47:07.599,eb:33:2e:f9:57:b5, 2015-01-01 00:33:12.440,-0.011,0.055,1.014,8.545,3.418,-4.089, , , , , , ,2.411,1.318,-101.574
 12:47:07.599,eb:33:2e:f9:57:b5, 2015-01-01 00:33:12.440,-0.016,0.062,1.016,8.484,4.272,-4.578, , , , , , ,2.455,1.34,-101.596
 12:47:07.599,eb:33:2e:f9:57:b5, 2015-01-01 00:33:12.440,-0.012,0.063,1.005,8.484,4.883,-4.944, , , , , , ,2.494,1.368,-101.624
 12:47:07.599,eb:33:2e:f9:57:b5, 2015-01-01 00:33:12.440,0.001,0.063,1.006,8.423,5.371,-5.371, , , , , , ,2.532,1.395,-101.651
 12:47:07.599,eb:33:2e:f9:57:b5, 2015-01-01 00:33:12.440,-0.002,0.08,0.999,8.301,5.737,-6.409, , , , , , ,2.582,1.423,-101.678
 12:47:07.599,eb:33:2e:f9:57:b5, 2015-01-01 00:33:12.440,0,0.065,1.025,8.667,6.897,-7.019, , , , , , ,2.62,1.456,-101.706
 12:47:07.599,eb:33:2e:f9:57:b5, 2015-01-01 00:33:12.440,-0.008,0.067,1.031,8.972,8.362,-7.629, , , , , , ,2.664,1.5,-101.75
 12:47:07.621,eb:33:2e:f9:57:b5, 2015-01-01 00:33:12.440,-0.02,0.052,1.06,9.521,10.803,-7.935, , , , , , ,2.708,1.549,-101.788
 12:47:07.621,eb:33:2e:f9:57:b5, 2015-01-01 00:33:12.440,-0.029,0.042,1.069,9.949,13.672,-7.812, , , , , , ,2.763,1.615,-101.821
 12:47:07.621,eb:33:2e:f9:57:b5, 2015-01-01 00:33:12.440,-0.032,0.054,1.024,10.254,14.709,-7.874, , , , , , ,2.812,1.686,-101.86
 12:47:07.621,eb:33:2e:f9:57:b5, 2015-01-01 00:33:12.440,-0.036,0.055,1.018,10.437,15.442,-7.874, , , , , , ,2.862,1.769,-101.898
 12:47:07.621,eb:33:2e:f9:57:b5, 2015-01-01 00:33:12.440,-0.03,0.056,1.016,10.742,15.686,-7.996, , , , , , ,2.911,1.846,-101.931
 12:47:07.621,eb:33:2e:f9:57:b5, 2015-01-01 00:33:12.440,-0.03,0.062,1.02,11.108,16.296,-8.179, , , , , , ,2.972,1.928,-101.97
 12:47:07.621,eb:33:2e:f9:57:b5, 2015-01-01 00:33:12.440,-0.036,0.064,1.019,11.292,16.907,-8.362, , , , , , ,3.027,2.016,-102.008
 12:47:07.621,eb:33:2e:f9:57:b5, 2015-01-01 00:33:12.440,-0.029,0.06,1.016,11.658,17.09,-8.484, , , , , , ,3.082,2.104,-102.047
 12:47:07.665,eb:33:2e:f9:57:b5, 2015-01-01 00:33:12.440,-0.031,0.061,1.028,11.963,18.005,-8.545, , , , , , ,3.137,2.192,-102.085
 12:47:07.665,eb:33:2e:f9:57:b5, 2015-01-01 00:33:12.440,-0.044,0.067,1.014,12.146,18.86,-8.667, , , , , , ,3.203,2.291,-102.123
 12:47:07.665,eb:33:2e:f9:57:b5, 2015-01-01 00:33:12.440,-0.055,0.065,1.004,12.207,19.104,-8.789, , , , , , ,3.257,2.39,-102.162
 12:47:07.665,eb:33:2e:f9:57:b5, 2015-01-01 00:33:12.440,-0.06,0.066,0.993,12.207,19.043,-8.667, , , , , , ,3.318,2.488,-102.206
 12:47:07.666,eb:33:2e:f9:57:b5, 2015-01-01 00:33:12.440,-0.06,0.061,0.996,12.268,18.921,-8.24, , , , , , ,3.378,2.582,-102.239
 12:47:07.666,eb:33:2e:f9:57:b5, 2015-01-01 00:33:12.440,-0.052,0.062,0.997,12.268,18.921,-7.812, , , , , , ,3.439,2.681,-102.272
 12:47:07.666,eb:33:2e:f9:57:b5, 2015-01-01 00:33:12.440,-0.055,0.068,1.001,12.268,19.287,-7.446, , , , , , ,3.499,2.78,-102.305
 12:47:07.666,eb:33:2e:f9:57:b5, 2015-01-01 00:33:12.440,-0.047,0.068,1.004,12.512,19.043,-7.324, , , , , , ,3.56,2.878,-102.343
 12:47:07.732,eb:33:2e:f9:57:b5, 2015-01-01 00:33:12.440,-0.051,0.064,1.027,12.756,20.569,-6.958, , , , , , ,3.62,2.977,-102.371
 12:47:07.732,eb:33:2e:f9:57:b5, 2015-01-01 00:33:12.440,-0.051,0.062,1.035,13.55,20.691,-6.958, , , , , , ,3.691,3.087,-102.398
 12:47:07.732,eb:33:2e:f9:57:b5, 2015-01-01 00:33:12.440,-0.057,0.054,1.056,14.771,21.301,-6.836, , , , , , ,3.757,3.192,-102.426
 12:47:07.732,eb:33:2e:f9:57:b5, 2015-01-01 00:33:12.440,-0.037,0.049,1.07,16.418,21.79,-6.348, , , , , , ,3.834,3.301,-102.458
 12:47:07.732,eb:33:2e:f9:57:b5, 2015-01-01 00:33:12.440,-0.046,0.055,1.096,19.043,21.912,-6.348, , , , , , ,3.922,3.417,-102.48
 12:47:07.732,eb:33:2e:f9:57:b5, 2015-01-01 00:33:12.440,-0.109,0.044,1.119,22.522,21.79,-5.92, , , , , , ,4.032,3.527,-102.502
 12:47:07.732,eb:33:2e:f9:57:b5, 2015-01-01 00:33:12.440,-0.133,-0.004,1.17,27.344,20.569,-4.944, , , , , , ,4.153,3.636,-102.524
 12:47:07.732,eb:33:2e:f9:57:b5, 2015-01-01 00:33:12.440,-0.109,-0.05,1.239,33.142,21.057,-2.319, , , , , , ,4.307,3.741,-102.535
 12:47:07.757,eb:33:2e:f9:57:b5, 2015-01-01 00:33:12.440,-0.105,0.001,1.144,37.659,20.081,-0.671, , , , , , ,4.488,3.845,-102.535
 12:47:07.757,eb:33:2e:f9:57:b5, 2015-01-01 00:33:12.440,-0.118,0.029,1.094,40.833,18.25,0.549, , , , , , ,4.691,3.939,-102.53
 12:47:07.757,eb:33:2e:f9:57:b5, 2015-01-01 00:33:12.440,-0.123,0.018,1.132,44.922,15.991,2.319, , , , , , ,4.905,4.021,-102.513
 12:47:07.757,eb:33:2e:f9:57:b5, 2015-01-01 00:33:12.440,-0.139,0.004,1.185,49.866,14.893,4.028, , , , , , ,5.147,4.098,-102.491
 12:47:07.757,eb:33:2e:f9:57:b5, 2015-01-01 00:33:12.440,-0.131,-0.009,1.224,55.115,14.282,6.042, , , , , , ,5.411,4.169,-102.458
 12:47:07.757,eb:33:2e:f9:57:b5, 2015-01-01 00:33:12.440,-0.085,-0.008,1.253,61.401,12.756,7.629, , , , , , ,5.713,4.235,-102.415
 12:47:07.757,eb:33:2e:f9:57:b5, 2015-01-01 00:33:12.440,-0.065,0.013,1.285,68.542,11.719,8.606, , , , , , ,6.042,4.29,-102.371
 12:47:07.757,eb:33:2e:f9:57:b5, 2015-01-01 00:33:12.440,-0.061,0.024,1.298,75.439,11.963,9.521, , , , , , ,6.411,4.34,-102.321
 12:47:07.801,eb:33:2e:f9:57:b5, 2015-01-01 00:33:12.440,-0.047,0.037,1.271,81.97,12.268,10.62, , , , , , ,6.812,4.395,-102.266
 12:47:07.801,eb:33:2e:f9:57:b5, 2015-01-01 00:33:12.440,-0.083,0.064,1.242,87.341,12.512,11.475, , , , , , ,7.245,4.455,-102.2
 12:47:07.801,eb:33:2e:f9:57:b5, 2015-01-01 00:33:12.440,-0.07,0.058,1.222,93.323,9.521,11.963, , , , , , ,7.701,4.499,-102.134
 12:47:07.801,eb:33:2e:f9:57:b5, 2015-01-01 00:33:12.440,-0.049,0.035,1.357,101.013,9.155,12.634, , , , , , ,8.196,4.537,-102.068
 12:47:07.801,eb:33:2e:f9:57:b5, 2015-01-01 00:33:12.440,-0.022,0.013,1.454,109.924,11.536,13.55, , , , , , ,8.734,4.576,-101.997
 12:47:07.801,eb:33:2e:f9:57:b5, 2015-01-01 00:33:12.440,0.001,0.035,1.486,118.835,14.465,13.733, , , , , , ,9.322,4.636,-101.92
 12:47:07.801,eb:33:2e:f9:57:b5, 2015-01-01 00:33:12.440,0.019,0.039,1.521,128.296,16.968,13.123, , , , , , ,9.948,4.702,-101.838
 12:47:07.801,eb:33:2e:f9:57:b5, 2015-01-01 00:33:12.440,0.075,0.054,1.558,138.55,19.592,11.78, , , , , , ,10.629,4.785,-101.761
 12:47:07.822,eb:33:2e:f9:57:b5, 2015-01-01 00:33:12.440,0.086,0.058,1.615,149.658,23.682,9.949, , , , , , ,11.36,4.878,-101.689
 12:47:07.822,eb:33:2e:f9:57:b5, 2015-01-01 00:33:12.440,0.116,0.044,1.626,161.011,26.611,7.69, , , , , , ,12.151,4.999,-101.624
 12:47:07.822,eb:33:2e:f9:57:b5, 2015-01-01 00:33:12.440,0.117,0.038,1.754,172.058,32.715,4.883, , , , , , ,12.991,5.136,-101.563
 12:47:07.822,eb:33:2e:f9:57:b5, 2015-01-01 00:33:12.440,0.16,0.039,1.879,183.472,41.626,1.404, , , , , , ,13.892,5.317,-101.503
 12:47:07.822,eb:33:2e:f9:57:b5, 2015-01-01 00:33:12.440,0.187,0.04,2.033,196.594,55.908,-2.014, , , , , , ,14.854,5.559,-101.442
 12:47:07.822,eb:33:2e:f9:57:b5, 2015-01-01 00:33:12.440,0.154,-0.013,2,209.29,72.205,-4.7, , , , , , ,15.881,5.883,-101.376
 12:47:07.822,eb:33:2e:f9:57:b5, 2015-01-01 00:33:12.440,0.152,-0.051,1.882,221.558,85.083,-6.531, , , , , , ,16.974,6.273,-101.288
 12:47:07.822,eb:33:2e:f9:57:b5, 2015-01-01 00:33:12.440,0.245,-0.016,1.813,235.413,91.309,-10.254, , , , , , ,18.133,6.713,-101.195
 12:47:07.868,eb:33:2e:f9:57:b5, 2015-01-01 00:33:12.440,0.406,0.112,1.84,251.099,94.543,-17.517, , , , , , ,19.363,7.18,-101.113
 12:47:07.868,eb:33:2e:f9:57:b5, 2015-01-01 00:33:12.440,0.469,0.123,1.98,270.264,107.605,-27.405, , , , , , ,20.687,7.696,-101.052
 12:47:07.868,eb:33:2e:f9:57:b5, 2015-01-01 00:33:12.440,0.483,0.135,1.956,286.56,115.54,-35.4, , , , , , ,22.094,8.284,-100.992
 12:47:07.868,eb:33:2e:f9:57:b5, 2015-01-01 00:33:12.440,0.394,0.256,1.919,302.734,113.586,-47.119, , , , , , ,23.577,8.893,-100.964
 12:47:07.868,eb:33:2e:f9:57:b5, 2015-01-01 00:33:12.440,0.268,0.172,2.022,320.435,115.967,-56.152, , , , , , ,25.142,9.525,-100.97
 12:47:07.868,eb:33:2e:f9:57:b5, 2015-01-01 00:33:12.440,0.249,0.109,2.102,336.365,120.85,-62.805, , , , , , ,26.79,10.19,-100.986
 12:47:07.868,eb:33:2e:f9:57:b5, 2015-01-01 00:33:12.440,0.239,0.05,2.164,348.938,124.695,-64.514, , , , , , ,28.515,10.887,-100.981
 12:47:07.868,eb:33:2e:f9:57:b5, 2015-01-01 00:33:12.440,0.196,0.069,2.165,365.784,123.291,-69.641, , , , , , ,30.306,11.591,-100.964
 12:47:07.913,eb:33:2e:f9:57:b5, 2015-01-01 00:33:12.730,-0.01,0.053,2.224,379.639,120.789,-75.317, , , , , , ,32.179,12.305,-100.964
 12:47:07.913,eb:33:2e:f9:57:b5, 2015-01-01 00:33:12.730,-0.104,0.057,2.579,389.771,124.207,-75.745, , , , , , ,34.107,13.019,-100.953
 12:47:07.913,eb:33:2e:f9:57:b5, 2015-01-01 00:33:12.730,0.06,0.189,2.551,407.593,116.638,-75.073, , , , , , ,36.118,13.733,-100.909
 12:47:07.913,eb:33:2e:f9:57:b5, 2015-01-01 00:33:12.730,0.023,0.326,2.324,415.771,94.238,-76.538, , , , , , ,38.194,14.376,-100.893
 12:47:07.913,eb:33:2e:f9:57:b5, 2015-01-01 00:33:12.730,0.135,0.48,2.362,415.222,63.599,-79.59, , , , , , ,40.259,14.919,-100.948
 12:47:07.913,eb:33:2e:f9:57:b5, 2015-01-01 00:33:12.730,-0.035,0.539,2.872,399.475,59.57,-88.013, , , , , , ,42.248,15.408,-101.096
 12:47:07.914,eb:33:2e:f9:57:b5, 2015-01-01 00:33:12.730,0.079,0.008,3.385,382.996,94.91,-85.51, , , , , , ,44.187,15.996,-101.135
 12:47:07.914,eb:33:2e:f9:57:b5, 2015-01-01 00:33:12.730,0.274,-0.254,3.311,366.394,127.686,-84.9, , , , , , ,46.082,16.699,-101.019
 12:47:07.957,eb:33:2e:f9:57:b5, 2015-01-01 00:33:12.730,0.505,-0.616,3.21,359.192,159.363,-81.787, , , , , , ,47.966,17.507,-100.75
 12:47:07.957,eb:33:2e:f9:57:b5, 2015-01-01 00:33:12.730,0.74,-0.916,2.904,363.831,178.406,-81.482, , , , , , ,49.883,18.375,-100.36
 12:47:07.957,eb:33:2e:f9:57:b5, 2015-01-01 00:33:12.730,0.897,-1.321,2.438,372.681,185.669,-79.163, , , , , , ,51.888,19.27,-99.871
 12:47:07.957,eb:33:2e:f9:57:b5, 2015-01-01 00:33:12.730,0.987,-1.376,1.679,378.357,170.959,-82.825, , , , , , ,53.937,20.127,-99.366
 12:47:07.957,eb:33:2e:f9:57:b5, 2015-01-01 00:33:12.730,0.937,-1.192,1.323,387.207,153.87,-91.675, , , , , , ,55.997,20.945,-98.937
 12:47:07.957,eb:33:2e:f9:57:b5, 2015-01-01 00:33:12.730,0.856,-0.993,1.319,411.499,141.663,-106.689, , , , , , ,58.118,21.764,-98.586
 12:47:07.957,eb:33:2e:f9:57:b5, 2015-01-01 00:33:12.730,0.767,-1.014,1.542,461.792,122.559,-130.798, , , , , , ,60.425,22.615,-98.3
 12:47:07.957,eb:33:2e:f9:57:b5, 2015-01-01 00:33:12.730,0.513,-0.77,1.275,501.526,95.642,-158.142, , , , , , ,62.946,23.527,-98.141
 12:47:08.002,eb:33:2e:f9:57:b5, 2015-01-01 00:33:12.730,0.255,0.165,0.248,450.928,63.904,-176.636, , , , , , ,65.308,24.461,-98.174
 12:47:08.002,eb:33:2e:f9:57:b5, 2015-01-01 00:33:12.730,0.107,0.057,-0.088,378.418,35.522,-179.077, , , , , , ,67.269,25.367,-98.344
 12:47:08.002,eb:33:2e:f9:57:b5, 2015-01-01 00:33:12.730,0.114,-0.153,-0.412,281.311,9.583,-178.467, , , , , , ,68.763,26.235,-98.613
 12:47:08.002,eb:33:2e:f9:57:b5, 2015-01-01 00:33:12.730,0.224,-0.659,-0.988,160.645,-7.446,-172.18, , , , , , ,69.648,27.054,-98.959
 12:47:08.002,eb:33:2e:f9:57:b5, 2015-01-01 00:33:12.730,0.312,-1.199,-1.58,31.982,-7.263,-161.438, , , , , , ,69.895,27.817,-99.327
 12:47:08.002,eb:33:2e:f9:57:b5, 2015-01-01 00:33:12.730,0.257,-1.568,-1.573,-79.407,-2.197,-143.738, , , , , , ,69.543,28.515,-99.657
 12:47:08.002,eb:33:2e:f9:57:b5, 2015-01-01 00:33:12.730,0.065,-1.625,-0.555,-151.611,-1.404,-122.864, , , , , , ,68.785,29.13,-99.932
 12:47:08.002,eb:33:2e:f9:57:b5, 2015-01-01 00:33:12.730,-0.116,-1.363,0.314,-187.195,-6.531,-101.562, , , , , , ,67.78,29.63,-100.173
 12:47:08.025,eb:33:2e:f9:57:b5, 2015-01-01 00:33:12.730,-0.084,-1.042,0.694,-197.388,-21.423,-81.299, , , , , , ,66.665,30.015,-100.448
 12:47:08.025,eb:33:2e:f9:57:b5, 2015-01-01 00:33:12.730,0.015,-0.842,0.899,-192.566,-36.011,-63.171, , , , , , ,65.511,30.273,-100.783
 12:47:08.025,eb:33:2e:f9:57:b5, 2015-01-01 00:33:12.730,0.095,-0.816,0.809,-182.8,-49.072,-46.326, , , , , , ,64.396,30.421,-101.14
 12:47:08.025,eb:33:2e:f9:57:b5, 2015-01-01 00:33:12.730,0.124,-0.883,0.44,-174.561,-62.683,-24.841, , , , , , ,63.309,30.449,-101.514
 12:47:08.025,eb:33:2e:f9:57:b5, 2015-01-01 00:33:12.730,0.122,-0.912,0.15,-174.438,-71.106,-6.226, , , , , , ,62.243,30.355,-101.904
 12:47:08.025,eb:33:2e:f9:57:b5, 2015-01-01 00:33:12.730,0.089,-0.875,0.038,-180.786,-77.515,10.986, , , , , , ,61.15,30.152,-102.283
 12:47:08.025,eb:33:2e:f9:57:b5, 2015-01-01 00:33:12.730,0.05,-0.804,0.09,-191.162,-83.496,26.367, , , , , , ,60.04,29.866,-102.634
 12:47:08.025,eb:33:2e:f9:57:b5, 2015-01-01 00:33:12.730,0.046,-0.754,0.209,-203.369,-89.783,40.527, , , , , , ,58.881,29.493,-102.953
 12:47:08.071,eb:33:2e:f9:57:b5, 2015-01-01 00:33:12.730,0.081,-0.731,0.291,-217.712,-95.764,53.711, , , , , , ,57.673,29.042,-103.26
 12:47:08.071,eb:33:2e:f9:57:b5, 2015-01-01 00:33:12.730,0.138,-0.72,0.321,-234.07,-97.473,63.904, , , , , , ,56.382,28.521,-103.546
 12:47:08.071,eb:33:2e:f9:57:b5, 2015-01-01 00:33:12.730,0.208,-0.705,0.324,-251.343,-101.074,72.449, , , , , , ,55.042,27.955,-103.793
 12:47:08.071,eb:33:2e:f9:57:b5, 2015-01-01 00:33:12.730,0.257,-0.689,0.373,-267.639,-102.234,78.491, , , , , , ,53.635,27.345,-104.002
 12:47:08.071,eb:33:2e:f9:57:b5, 2015-01-01 00:33:12.730,0.305,-0.641,0.411,-281.921,-106.14,81.482, , , , , , ,52.163,26.713,-104.194
 12:47:08.071,eb:33:2e:f9:57:b5, 2015-01-01 00:33:12.730,0.35,-0.579,0.465,-293.457,-113.037,81.482, , , , , , ,50.614,26.043,-104.398
 12:47:08.071,eb:33:2e:f9:57:b5, 2015-01-01 00:33:12.730,0.386,-0.513,0.517,-302.063,-121.704,79.407, , , , , , ,49.026,25.356,-104.612
 12:47:08.071,eb:33:2e:f9:57:b5, 2015-01-01 00:33:12.730,0.408,-0.451,0.561,-308.167,-132.385,75.195, , , , , , ,47.39,24.642,-104.843
 12:47:08.116,eb:33:2e:f9:57:b5, 2015-01-01 00:33:12.730,0.418,-0.4,0.599,-312.378,-144.348,69.397, , , , , , ,45.72,23.901,-105.128
 12:47:08.116,eb:33:2e:f9:57:b5, 2015-01-01 00:33:12.730,0.424,-0.356,0.653,-315.247,-156.311,62.439, , , , , , ,44,23.126,-105.463
 12:47:08.116,eb:33:2e:f9:57:b5, 2015-01-01 00:33:12.730,0.417,-0.32,0.735,-316.956,-166.565,54.993, , , , , , ,42.27,22.335,-105.837
 12:47:08.116,eb:33:2e:f9:57:b5, 2015-01-01 00:33:12.730,0.399,-0.285,0.831,-317.932,-174.377,47.302, , , , , , ,40.529,21.528,-106.238
 12:47:08.116,eb:33:2e:f9:57:b5, 2015-01-01 00:33:12.730,0.367,-0.253,0.931,-318.115,-179.688,39.429, , , , , , ,38.782,20.704,-106.672
 12:47:08.116,eb:33:2e:f9:57:b5, 2015-01-01 00:33:12.730,0.333,-0.219,1.012,-318.054,-182.007,32.166, , , , , , ,37.018,19.874,-107.122
 12:47:08.116,eb:33:2e:f9:57:b5, 2015-01-01 00:33:12.730,0.305,-0.183,1.084,-317.444,-183.044,24.78, , , , , , ,35.277,19.056,-107.573
 12:47:08.116,eb:33:2e:f9:57:b5, 2015-01-01 00:33:12.730,0.267,-0.145,1.153,-316.467,-183.044,17.273, , , , , , ,33.547,18.243,-108.029
 12:47:08.162,eb:33:2e:f9:57:b5, 2015-01-01 00:33:12.730,0.222,-0.119,1.22,-314.819,-182.617,9.888, , , , , , ,31.822,17.441,-108.49
 12:47:08.162,eb:33:2e:f9:57:b5, 2015-01-01 00:33:12.730,0.178,-0.094,1.278,-312.5,-182.312,2.563, , , , , , ,30.103,16.633,-108.957
 12:47:08.162,eb:33:2e:f9:57:b5, 2015-01-01 00:33:12.730,0.123,-0.076,1.329,-310.059,-181.152,-3.967, , , , , , ,28.416,15.842,-109.429
 12:47:08.162,eb:33:2e:f9:57:b5, 2015-01-01 00:33:12.730,0.071,-0.07,1.366,-307.8,-179.81,-9.705, , , , , , ,26.746,15.062,-109.891
 12:47:08.162,eb:33:2e:f9:57:b5, 2015-01-01 00:33:12.730,0.018,-0.08,1.399,-306.396,-177.368,-13.916, , , , , , ,25.093,14.288,-110.352
 12:47:08.162,eb:33:2e:f9:57:b5, 2015-01-01 00:33:12.730,-0.033,-0.107,1.435,-305.908,-173.706,-16.235, , , , , , ,23.434,13.508,-110.797
 12:47:08.162,eb:33:2e:f9:57:b5, 2015-01-01 00:33:12.730,-0.104,-0.144,1.465,-306.213,-169.434,-16.479, , , , , , ,21.808,12.75,-111.215
 12:47:08.162,eb:33:2e:f9:57:b5, 2015-01-01 00:33:12.730,-0.102,-0.186,1.423,-307.678,-170.349,-15.381, , , , , , ,20.187,11.986,-111.599
 12:47:08.206,eb:33:2e:f9:57:b5, 2015-01-01 00:33:13.040,-0.136,-0.213,1.492,-309.082,-167.358,-12.146, , , , , , ,18.572,11.217,-111.951
 12:47:08.206,eb:33:2e:f9:57:b5, 2015-01-01 00:33:13.040,-0.164,-0.245,1.535,-309.143,-165.71,-7.69, , , , , , ,16.952,10.426,-112.258
 12:47:08.206,eb:33:2e:f9:57:b5, 2015-01-01 00:33:13.040,-0.179,-0.264,1.594,-307.617,-165.222,-1.343, , , , , , ,15.364,9.635,-112.511
 12:47:08.207,eb:33:2e:f9:57:b5, 2015-01-01 00:33:13.040,-0.185,-0.269,1.652,-304.26,-165.955,5.432, , , , , , ,13.804,8.833,-112.709
 12:47:08.207,eb:33:2e:f9:57:b5, 2015-01-01 00:33:13.040,-0.155,-0.267,1.715,-298.828,-166.931,11.658, , , , , , ,12.272,8.009,-112.852
 12:47:08.207,eb:33:2e:f9:57:b5, 2015-01-01 00:33:13.040,-0.149,-0.226,1.825,-290.649,-169.189,18.494, , , , , , ,10.767,7.158,-112.945
 12:47:08.208,eb:33:2e:f9:57:b5, 2015-01-01 00:33:13.040,-0.121,-0.19,1.921,-281.738,-169.556,25.208, , , , , , ,9.338,6.301,-112.983
 12:47:08.208,eb:33:2e:f9:57:b5, 2015-01-01 00:33:13.040,-0.105,-0.151,2.065,-272.156,-171.57,29.053, , , , , , ,7.954,5.438,-112.967
 12:47:08.228,eb:33:2e:f9:57:b5, 2015-01-01 00:33:13.040,-0.124,-0.054,2.181,-261.902,-169.8,33.691, , , , , , ,6.63,4.565,-112.923
 12:47:08.228,eb:33:2e:f9:57:b5, 2015-01-01 00:33:13.040,-0.097,-0.045,2.297,-252.319,-169.556,35.767, , , , , , ,5.334,3.686,-112.841
 12:47:08.228,eb:33:2e:f9:57:b5, 2015-01-01 00:33:13.040,-0.152,0.093,2.431,-243.347,-164.612,34.729, , , , , , ,4.103,2.84,-112.731
 12:47:08.228,eb:33:2e:f9:57:b5, 2015-01-01 00:33:13.040,-0.204,0.155,2.486,-233.276,-162.842,36.438, , , , , , ,2.922,2.005,-112.61
 12:47:08.228,eb:33:2e:f9:57:b5, 2015-01-01 00:33:13.040,-0.25,0.246,2.559,-222.473,-162.659,36.438, , , , , , ,1.791,1.181,-112.462
 12:47:08.228,eb:33:2e:f9:57:b5, 2015-01-01 00:33:13.040,-0.339,0.336,2.645,-210.266,-157.104,43.823, , , , , , ,0.692,0.368,-112.28
 12:47:08.228,eb:33:2e:f9:57:b5, 2015-01-01 00:33:13.040,-0.426,0.521,2.571,-203.125,-161.621,41.077, , , , , , ,-0.33,-0.423,-112.072
 12:47:08.228,eb:33:2e:f9:57:b5, 2015-01-01 00:33:13.040,-0.517,0.667,2.498,-199.524,-168.64,40.222, , , , , , ,-1.335,-1.252,-111.857
 12:47:08.272,eb:33:2e:f9:57:b5, 2015-01-01 00:33:13.040,-0.629,0.844,2.427,-201.172,-176.392,40.771, , , , , , ,-2.346,-2.109,-111.627
 12:47:08.272,eb:33:2e:f9:57:b5, 2015-01-01 00:33:13.040,-0.75,1.013,2.369,-208.801,-185.059,41.809, , , , , , ,-3.4,-3.016,-111.379
 12:47:08.272,eb:33:2e:f9:57:b5, 2015-01-01 00:33:13.040,-0.858,1.15,2.339,-221.619,-192.81,43.701, , , , , , ,-4.499,-3.95,-111.099
 12:47:08.272,eb:33:2e:f9:57:b5, 2015-01-01 00:33:13.040,-0.926,1.289,2.324,-239.563,-198.242,46.509, , , , , , ,-5.685,-4.905,-110.786
 12:47:08.272,eb:33:2e:f9:57:b5, 2015-01-01 00:33:13.040,-0.958,1.413,2.336,-261.658,-198.303,50.11, , , , , , ,-6.982,-5.867,-110.435
 12:47:08.272,eb:33:2e:f9:57:b5, 2015-01-01 00:33:13.040,-0.975,1.51,2.398,-285.828,-189.331,54.871, , , , , , ,-8.427,-6.801,-110.039
 12:47:08.272,eb:33:2e:f9:57:b5, 2015-01-01 00:33:13.040,-0.919,1.584,2.447,-307.678,-170.593,59.998, , , , , , ,-9.976,-7.641,-109.611
 12:47:08.272,eb:33:2e:f9:57:b5, 2015-01-01 00:33:13.040,-0.783,1.693,2.502,-323.853,-141.663,64.697, , , , , , ,-11.629,-8.339,-109.155
 12:47:08.319,eb:33:2e:f9:57:b5, 2015-01-01 00:33:13.040,-0.572,1.876,2.568,-330.505,-103.394,67.322, , , , , , ,-13.343,-8.849,-108.693
 12:47:08.319,eb:33:2e:f9:57:b5, 2015-01-01 00:33:13.040,-0.357,2.169,2.579,-324.402,-59.692,65.369, , , , , , ,-15.062,-9.146,-108.276
 12:47:08.319,eb:33:2e:f9:57:b5, 2015-01-01 00:33:13.040,-0.351,2.567,2.438,-306.091,-19.836,59.082, , , , , , ,-16.694,-9.229,-107.924
 12:47:08.319,eb:33:2e:f9:57:b5, 2015-01-01 00:33:13.040,-0.498,3.036,1.976,-275.391,-1.404,48.34, , , , , , ,-18.182,-9.185,-107.661
 12:47:08.319,eb:33:2e:f9:57:b5, 2015-01-01 00:33:13.040,-0.745,3.514,1.356,-233.765,-12.146,34.912, , , , , , ,-19.468,-9.141,-107.463
 12:47:08.319,eb:33:2e:f9:57:b5, 2015-01-01 00:33:13.040,-1.039,3.904,0.742,-185.425,-50.415,22.034, , , , , , ,-20.533,-9.256,-107.276
 12:47:08.319,eb:33:2e:f9:57:b5, 2015-01-01 00:33:13.040,-1.299,4.131,0.315,-133.728,-105.347,12.39, , , , , , ,-21.341,-9.613,-107.051
 12:47:08.319,eb:33:2e:f9:57:b5, 2015-01-01 00:33:13.040,-1.458,4.17,0.237,-81.665,-159.729,7.568, , , , , , ,-21.907,-10.245,-106.754
 12:47:08.363,eb:33:2e:f9:57:b5, 2015-01-01 00:33:13.040,-1.536,4.057,0.497,-31.677,-198.12,7.263, , , , , , ,-22.236,-11.085,-106.364
 12:47:08.363,eb:33:2e:f9:57:b5, 2015-01-01 00:33:13.040,-1.577,3.84,0.921,14.832,-212.708,10.437, , , , , , ,-22.346,-12.036,-105.914
 12:47:08.363,eb:33:2e:f9:57:b5, 2015-01-01 00:33:13.040,-1.583,3.541,1.375,56.824,-203.064,15.808, , , , , , ,-22.247,-12.975,-105.447
 12:47:08.363,eb:33:2e:f9:57:b5, 2015-01-01 00:33:13.040,-1.583,3.178,1.781,92.59,-171.448,22.766, , , , , , ,-21.956,-13.799,-104.996
 12:47:08.363,eb:33:2e:f9:57:b5, 2015-01-01 00:33:13.040,-1.451,2.784,2.059,119.568,-124.329,31.372, , , , , , ,-21.511,-14.414,-104.59
 12:47:08.363,eb:33:2e:f9:57:b5, 2015-01-01 00:33:13.040,0.07,2.31,2.454,145.691,-73.975,21.545, , , , , , ,-20.923,-14.804,-104.26
 12:47:08.363,eb:33:2e:f9:57:b5, 2015-01-01 00:33:13.040,-0.638,-0.484,9.789,207.764,168.762,78.613, , , , , , ,-20.023,-14.37,-104.145
 12:47:08.363,eb:33:2e:f9:57:b5, 2015-01-01 00:33:13.040,1.714,0.131,0.794,183.594,180.969,96.924, , , , , , ,-19.061,-13.387,-104.013
 12:47:08.408,eb:33:2e:f9:57:b5, 2015-01-01 00:33:13.040,2.401,-0.764,0.222,168.03,190.063,63.599, , , , , , ,-18.226,-12.409,-103.925
 12:47:08.408,eb:33:2e:f9:57:b5, 2015-01-01 00:33:13.040,1.223,-1.444,1.27,156.738,244.141,40.222, , , , , , ,-17.397,-11.255,-104.013
 12:47:08.408,eb:33:2e:f9:57:b5, 2015-01-01 00:33:13.040,0.369,-0.975,1.691,162.476,291.016,12.207, , , , , , ,-16.551,-9.904,-104.315
 12:47:08.409,eb:33:2e:f9:57:b5, 2015-01-01 00:33:13.040,-0.651,-0.922,1.289,184.021,300.842,-2.319, , , , , , ,-15.606,-8.454,-104.722
 12:47:08.409,eb:33:2e:f9:57:b5, 2015-01-01 00:33:13.040,-0.949,-0.974,0.801,220.459,268.86,6.226, , , , , , ,-14.529,-7.07,-105.09
 12:47:08.409,eb:33:2e:f9:57:b5, 2015-01-01 00:33:13.040,-0.667,-0.518,0.443,243.591,217.041,17.517, , , , , , ,-13.321,-5.894,-105.32
 12:47:08.409,eb:33:2e:f9:57:b5, 2015-01-01 00:33:13.040,-0.656,-0.392,0.418,256.104,173.828,33.752, , , , , , ,-12.057,-4.944,-105.397
 12:47:08.409,eb:33:2e:f9:57:b5, 2015-01-01 00:33:13.040,-0.416,-0.117,0.597,255.554,139.832,39.978, , , , , , ,-10.772,-4.158,-105.364
 12:47:08.430,eb:33:2e:f9:57:b5, 2015-01-01 00:33:13.040,-0.271,0.224,0.95,242.249,120.117,31.433, , , , , , ,-9.536,-3.505,-105.298
 12:47:08.430,eb:33:2e:f9:57:b5, 2015-01-01 00:33:13.040,-0.334,0.335,1.181,225.037,112.732,16.052, , , , , , ,-8.372,-2.911,-105.276
 12:47:08.430,eb:33:2e:f9:57:b5, 2015-01-01 00:33:13.040,-0.38,0.279,1.337,207.031,106.323,2.747, , , , , , ,-7.3,-2.368,-105.315
 12:47:08.430,eb:33:2e:f9:57:b5, 2015-01-01 00:33:13.040,-0.328,0.264,1.275,190.186,100.403,-6.653, , , , , , ,-6.317,-1.862,-105.403
 12:47:08.430,eb:33:2e:f9:57:b5, 2015-01-01 00:33:13.040,-0.321,0.162,1.135,178.101,92.224,-12.268, , , , , , ,-5.4,-1.39,-105.502
 12:47:08.430,eb:33:2e:f9:57:b5, 2015-01-01 00:33:13.040,-0.329,0.192,1.077,165.161,78.125,-13.672, , , , , , ,-4.537,-0.972,-105.601
 12:47:08.430,eb:33:2e:f9:57:b5, 2015-01-01 00:33:13.040,-0.202,0.205,1.042,149.902,59.509,-12.451, , , , , , ,-3.757,-0.648,-105.694
 12:47:08.430,eb:33:2e:f9:57:b5, 2015-01-01 00:33:13.040,-0.311,0.074,1.012,139.465,48.401,-6.409, , , , , , ,-3.043,-0.39,-105.76
 12:47:08.475,eb:33:2e:f9:57:b5, 2015-01-01 00:33:13.040,-0.237,0.116,0.997,130.432,42.725,-3.235, , , , , , ,-2.373,-0.159,-105.787
 12:47:08.475,eb:33:2e:f9:57:b5, 2015-01-01 00:33:13.040,-0.265,0.087,1.006,119.812,37.598,0.427, , , , , , ,-1.741,0.038,-105.804
 12:47:08.475,eb:33:2e:f9:57:b5, 2015-01-01 00:33:13.040,-0.037,0.662,1.069,84.656,6.226,0, , , , , , ,-1.241,0.132,-105.798
 12:47:08.475,eb:33:2e:f9:57:b5, 2015-01-01 00:33:13.040,0.012,0.483,1.092,59.265,-0.305,-0.977, , , , , , ,-0.906,0.137,-105.804
 12:47:08.475,eb:33:2e:f9:57:b5, 2015-01-01 00:33:13.040,-0.07,0.36,1.085,43.823,8.728,-2.563, , , , , , ,-0.659,0.159,-105.82
 12:47:08.475,eb:33:2e:f9:57:b5, 2015-01-01 00:33:13.040,-0.062,0.153,0.995,34.058,11.047,1.953, , , , , , ,-0.461,0.22,-105.82
 12:47:08.475,eb:33:2e:f9:57:b5, 2015-01-01 00:33:13.040,0.015,0.103,0.979,28.015,8.728,5.615, , , , , , ,-0.313,0.264,-105.798
 12:47:08.475,eb:33:2e:f9:57:b5, 2015-01-01 00:33:13.040,0.014,0.086,1,21.79,9.277,9.827, , , , , , ,-0.192,0.308,-105.76
 12:47:08.520,eb:33:2e:f9:57:b5, 2015-01-01 00:33:13.355,-0.021,0.128,1.01,16.418,14.282,11.23, , , , , , ,-0.099,0.368,-105.705
 12:47:08.520,eb:33:2e:f9:57:b5, 2015-01-01 00:33:13.355,-0.053,0.058,0.99,13.916,15.381,10.742, , , , , , ,-0.016,0.45,-105.65
 12:47:08.520,eb:33:2e:f9:57:b5, 2015-01-01 00:33:13.355,-0.009,0.009,0.972,13.855,13,10.376, , , , , , ,0.044,0.516,-105.595
 12:47:08.520,eb:33:2e:f9:57:b5, 2015-01-01 00:33:13.355,0.014,0.06,0.994,12.451,13.062,9.644, , , , , , ,0.11,0.582,-105.551
 12:47:08.520,eb:33:2e:f9:57:b5, 2015-01-01 00:33:13.355,0.002,0.079,1.008,9.766,16.235,9.338, , , , , , ,0.165,0.659,-105.502
 12:47:08.520,eb:33:2e:f9:57:b5, 2015-01-01 00:33:13.355,-0.001,0.033,1.014,8.911,18.372,9.583, , , , , , ,0.22,0.753,-105.458
 12:47:08.520,eb:33:2e:f9:57:b5, 2015-01-01 00:33:13.355,-0.005,0.029,1.018,8.789,19.653,9.338, , , , , , ,0.264,0.846,-105.408
 12:47:08.520,eb:33:2e:f9:57:b5, 2015-01-01 00:33:13.355,-0.029,0.033,1.014,8.606,20.813,8.667, , , , , , ,0.308,0.945,-105.364
 12:47:08.565,eb:33:2e:f9:57:b5, 2015-01-01 00:33:13.355,-0.056,0.034,0.995,8.423,20.325,7.751, , , , , , ,0.352,1.049,-105.326
 12:47:08.565,eb:33:2e:f9:57:b5, 2015-01-01 00:33:13.355,-0.063,0.039,0.979,7.507,18.433,7.202, , , , , , ,0.396,1.148,-105.287
 12:47:08.565,eb:33:2e:f9:57:b5, 2015-01-01 00:33:13.355,-0.06,0.034,0.98,6.897,16.235,6.714, , , , , , ,0.434,1.236,-105.249
 12:47:08.565,eb:33:2e:f9:57:b5, 2015-01-01 00:33:13.355,-0.041,0.029,0.986,6.47,14.465,6.348, , , , , , ,0.467,1.313,-105.222
 12:47:08.565,eb:33:2e:f9:57:b5, 2015-01-01 00:33:13.355,-0.058,0.042,0.998,6.226,14.038,4.944, , , , , , ,0.494,1.384,-105.194
 12:47:08.565,eb:33:2e:f9:57:b5, 2015-01-01 00:33:13.355,-0.072,0.033,0.985,5.981,12.146,2.747, , , , , , ,0.533,1.45,-105.172
 12:47:08.565,eb:33:2e:f9:57:b5, 2015-01-01 00:33:13.355,-0.076,0.012,0.985,6.409,10.254,4.395, , , , , , ,0.566,1.505,-105.156
 12:47:08.565,eb:33:2e:f9:57:b5, 2015-01-01 00:33:13.355,-0.071,0.005,0.983,6.958,7.69,6.897, , , , , , ,0.599,1.549,-105.128
 12:47:08.587,eb:33:2e:f9:57:b5, 2015-01-01 00:33:13.355,-0.065,0.018,0.99,7.141,5.798,7.446, , , , , , ,0.637,1.582,-105.09
 12:47:08.587,eb:33:2e:f9:57:b5, 2015-01-01 00:33:13.355,-0.064,0.032,0.998,7.202,4.15,5.798, , , , , , ,0.681,1.609,-105.057
 12:47:08.587,eb:33:2e:f9:57:b5, 2015-01-01 00:33:13.355,-0.056,0.027,1.003,7.446,2.563,4.272, , , , , , ,0.714,1.626,-105.029
 12:47:08.587,eb:33:2e:f9:57:b5, 2015-01-01 00:33:13.355,-0.055,0.024,1.013,7.507,2.014,3.54, , , , , , ,0.753,1.637,-105.013
 12:47:08.587,eb:33:2e:f9:57:b5, 2015-01-01 00:33:13.355,-0.051,0.022,1.008,7.751,1.892,2.991, , , , , , ,0.791,1.642,-104.996
 12:47:08.587,eb:33:2e:f9:57:b5, 2015-01-01 00:33:13.355,-0.043,0.033,1.006,7.751,1.892,2.197, , , , , , ,0.835,1.653,-104.985
 12:47:08.587,eb:33:2e:f9:57:b5, 2015-01-01 00:33:13.355,-0.04,0.027,1.013,7.507,3.113,1.77, , , , , , ,0.873,1.67,-104.974
 12:47:08.587,eb:33:2e:f9:57:b5, 2015-01-01 00:33:13.355,-0.036,0.029,1.01,7.507,3.479,1.587, , , , , , ,0.912,1.686,-104.969
 12:47:08.633,eb:33:2e:f9:57:b5, 2015-01-01 00:33:13.355,-0.035,0.031,1.004,7.568,2.625,0.977, , , , , , ,0.95,1.703,-104.963
 12:47:08.633,eb:33:2e:f9:57:b5, 2015-01-01 00:33:13.355,-0.032,0.03,1.011,7.568,2.808,0.854, , , , , , ,0.994,1.719,-104.958
 12:47:08.633,eb:33:2e:f9:57:b5, 2015-01-01 00:33:13.355,-0.032,0.034,1.015,7.446,3.784,0.793, , , , , , ,1.033,1.736,-104.952
 12:47:08.633,eb:33:2e:f9:57:b5, 2015-01-01 00:33:13.355,-0.033,0.034,1.014,7.324,4.883,0.366, , , , , , ,1.066,1.758,-104.952
 12:47:08.633,eb:33:2e:f9:57:b5, 2015-01-01 00:33:13.355,-0.039,0.034,1.012,7.141,6.042,0.122, , , , , , ,1.104,1.785,-104.952
 12:47:08.633,eb:33:2e:f9:57:b5, 2015-01-01 00:33:13.355,-0.038,0.035,1.005,7.08,6.47,-0.061, , , , , , ,1.148,1.818,-104.947
 12:47:08.633,eb:33:2e:f9:57:b5, 2015-01-01 00:33:13.355,-0.041,0.037,1.003,6.897,6.775,-0.305, , , , , , ,1.181,1.851,-104.947
 12:47:08.633,eb:33:2e:f9:57:b5, 2015-01-01 00:33:13.355,-0.036,0.037,0.998,6.592,6.653,-0.671, , , , , , ,1.214,1.884,-104.952
 12:47:08.679,eb:33:2e:f9:57:b5, 2015-01-01 00:33:13.355,-0.037,0.041,0.997,6.165,6.836,-0.916, , , , , , ,1.241,1.923,-104.958
 12:47:08.679,eb:33:2e:f9:57:b5, 2015-01-01 00:33:13.355,-0.038,0.041,0.997,5.859,7.141,-1.16, , , , , , ,1.28,1.961,-104.963
 12:47:08.679,eb:33:2e:f9:57:b5, 2015-01-01 00:33:13.355,-0.041,0.049,0.991,5.432,7.08,-1.709, , , , , , ,1.307,1.994,-104.969
 12:47:08.679,eb:33:2e:f9:57:b5, 2015-01-01 00:33:13.355,-0.041,0.045,0.993,5.188,7.202,-1.892, , , , , , ,1.335,2.032,-104.98
 12:47:08.679,eb:33:2e:f9:57:b5, 2015-01-01 00:33:13.355,-0.042,0.041,0.998,4.944,7.385,-2.136, , , , , , ,1.357,2.065,-104.991
 12:47:08.679,eb:33:2e:f9:57:b5, 2015-01-01 00:33:13.355,-0.036,0.041,1,4.883,7.446,-2.625, , , , , , ,1.39,2.109,-105.002
 12:47:08.679,eb:33:2e:f9:57:b5, 2015-01-01 00:33:13.355,-0.037,0.041,1.006,4.7,8.179,-3.113, , , , , , ,1.412,2.148,-105.018
 12:47:08.679,eb:33:2e:f9:57:b5, 2015-01-01 00:33:13.355,-0.033,0.046,1.001,4.578,8.606,-3.479, , , , , , ,1.434,2.192,-105.035
 12:47:08.722,eb:33:2e:f9:57:b5, 2015-01-01 00:33:13.355,-0.034,0.047,1.008,4.517,9.277,-4.028, , , , , , ,1.456,2.236,-105.051
 12:47:08.722,eb:33:2e:f9:57:b5, 2015-01-01 00:33:13.355,-0.048,0.053,0.996,4.211,9.705,-4.578, , , , , , ,1.483,2.285,-105.073
 12:47:08.722,eb:33:2e:f9:57:b5, 2015-01-01 00:33:13.355,-0.055,0.044,0.993,4.028,9.644,-4.7, , , , , , ,1.5,2.335,-105.095
 12:47:08.722,eb:33:2e:f9:57:b5, 2015-01-01 00:33:13.355,-0.048,0.042,0.993,4.089,8.423,-4.822, , , , , , ,1.516,2.379,-105.123
 12:47:08.722,eb:33:2e:f9:57:b5, 2015-01-01 00:33:13.355,-0.062,0.043,1,4.028,8.667,-4.883, , , , , , ,1.538,2.422,-105.145
 12:47:08.722,eb:33:2e:f9:57:b5, 2015-01-01 00:33:13.355,-0.044,0.042,0.983,4.028,7.69,-4.761, , , , , , ,1.566,2.472,-105.167
 12:47:08.722,eb:33:2e:f9:57:b5, 2015-01-01 00:33:13.355,-0.041,0.042,1.004,4.15,7.996,-5.005, , , , , , ,1.582,2.51,-105.189
 12:47:08.722,eb:33:2e:f9:57:b5, 2015-01-01 00:33:13.355,-0.055,0.046,1.004,4.15,8.789,-5.188, , , , , , ,1.599,2.554,-105.216
 12:47:08.768,eb:33:2e:f9:57:b5, 2015-01-01 00:33:13.355,-0.044,0.042,0.991,4.7,7.324,-5.615, , , , , , ,1.62,2.593,-105.244
 12:47:08.768,eb:33:2e:f9:57:b5, 2015-01-01 00:33:13.355,-0.053,0.042,1.007,5.737,6.47,-6.47, , , , , , ,1.653,2.631,-105.271
 12:47:08.768,eb:33:2e:f9:57:b5, 2015-01-01 00:33:13.355,-0.061,0.038,1.016,6.165,7.324,-6.287, , , , , , ,1.681,2.67,-105.304
 12:47:08.768,eb:33:2e:f9:57:b5, 2015-01-01 00:33:13.355,-0.044,0.037,1.01,7.751,5.249,-6.531, , , , , , ,1.714,2.697,-105.337
 12:47:08.768,eb:33:2e:f9:57:b5, 2015-01-01 00:33:13.355,-0.019,0.04,1.027,8.24,6.714,-6.592, , , , , , ,1.752,2.73,-105.37
 12:47:08.768,eb:33:2e:f9:57:b5, 2015-01-01 00:33:13.355,-0.046,0.058,1.032,7.812,10.62,-6.836, , , , , , ,1.796,2.78,-105.403
 12:47:08.768,eb:33:2e:f9:57:b5, 2015-01-01 00:33:13.355,-0.042,0.06,0.99,7.507,10.925,-7.324, , , , , , ,1.835,2.834,-105.436
 12:47:08.768,eb:33:2e:f9:57:b5, 2015-01-01 00:33:13.355,-0.056,0.056,1.013,7.812,11.414,-7.751, , , , , , ,1.868,2.889,-105.474
 12:47:08.791,eb:33:2e:f9:57:b5, 2015-01-01 00:33:13.645,-0.054,0.056,0.997,8.362,10.437,-8.24, , , , , , ,1.906,2.944,-105.513
 12:47:08.791,eb:33:2e:f9:57:b5, 2015-01-01 00:33:13.645,-0.052,0.056,1.001,8.911,9.521,-8.911, , , , , , ,1.956,2.999,-105.557
 12:47:08.791,eb:33:2e:f9:57:b5, 2015-01-01 00:33:13.645,-0.051,0.053,1.015,9.521,9.338,-9.216, , , , , , ,2,3.049,-105.601
 12:47:08.791,eb:33:2e:f9:57:b5, 2015-01-01 00:33:13.645,-0.048,0.06,0.991,10.193,7.812,-9.827, , , , , , ,2.043,3.093,-105.65
 12:47:08.791,eb:33:2e:f9:57:b5, 2015-01-01 00:33:13.645,-0.057,0.059,1.01,10.925,7.324,-10.193, , , , , , ,2.093,3.131,-105.699
 12:47:08.791,eb:33:2e:f9:57:b5, 2015-01-01 00:33:13.645,-0.062,0.053,1.006,11.841,6.165,-10.681, , , , , , ,2.159,3.17,-105.749
 12:47:08.791,eb:33:2e:f9:57:b5, 2015-01-01 00:33:13.645,-0.079,0.041,1.035,13,6.653,-10.559, , , , , , ,2.214,3.208,-105.804
 12:47:08.791,eb:33:2e:f9:57:b5, 2015-01-01 00:33:13.645,-0.087,0.033,1.035,14.282,6.714,-10.193, , , , , , ,2.28,3.241,-105.853
 12:47:08.834,eb:33:2e:f9:57:b5, 2015-01-01 00:33:13.645,-0.104,0.024,1.059,15.869,7.385,-9.521, , , , , , ,2.351,3.279,-105.903
 12:47:08.834,eb:33:2e:f9:57:b5, 2015-01-01 00:33:13.645,-0.101,0,1.078,18.738,7.324,-8.423, , , , , , ,2.444,3.323,-105.947
 12:47:08.834,eb:33:2e:f9:57:b5, 2015-01-01 00:33:13.645,-0.092,0.025,1.044,20.264,6.531,-7.812, , , , , , ,2.538,3.356,-105.985
 12:47:08.834,eb:33:2e:f9:57:b5, 2015-01-01 00:33:13.645,-0.088,0.032,1.056,21.301,7.019,-7.507, , , , , , ,2.642,3.395,-106.024
 12:47:08.834,eb:33:2e:f9:57:b5, 2015-01-01 00:33:13.645,-0.075,0.021,1.077,23.682,7.202,-7.08, , , , , , ,2.752,3.433,-106.057
 12:47:08.834,eb:33:2e:f9:57:b5, 2015-01-01 00:33:13.645,-0.043,0.037,1.066,26.428,6.104,-7.263, , , , , , ,2.884,3.472,-106.089
 12:47:08.834,eb:33:2e:f9:57:b5, 2015-01-01 00:33:13.645,-0.02,0.054,1.085,29.48,5.371,-7.935, , , , , , ,3.021,3.499,-106.128
 12:47:08.834,eb:33:2e:f9:57:b5, 2015-01-01 00:33:13.645,-0.031,0.071,1.091,32.349,5.737,-9.521, , , , , , ,3.175,3.527,-106.172
 12:47:08.881,eb:33:2e:f9:57:b5, 2015-01-01 00:33:13.645,-0.058,0.07,1.08,34.424,6.897,-10.193, , , , , , ,3.34,3.565,-106.221
 12:47:08.881,eb:33:2e:f9:57:b5, 2015-01-01 00:33:13.645,-0.071,0.047,1.093,36.56,7.629,-9.827, , , , , , ,3.521,3.609,-106.271
 12:47:08.881,eb:33:2e:f9:57:b5, 2015-01-01 00:33:13.645,-0.096,0.04,1.119,39.734,7.385,-9.399, , , , , , ,3.708,3.647,-106.315
 12:47:08.881,eb:33:2e:f9:57:b5, 2015-01-01 00:33:13.645,-0.123,0.026,1.148,42.786,7.751,-7.996, , , , , , ,3.911,3.686,-106.359
 12:47:08.881,eb:33:2e:f9:57:b5, 2015-01-01 00:33:13.645,-0.146,-0.004,1.193,45.654,9.094,-5.249, , , , , , ,4.131,3.73,-106.386
 12:47:08.881,eb:33:2e:f9:57:b5, 2015-01-01 00:33:13.645,-0.158,-0.015,1.156,49.744,7.751,-2.93, , , , , , ,4.378,3.779,-106.403
