Time,Device name,Chip Time(),Acceleration X(g),Acceleration Y(g),Acceleration Z(g),Angular velocity X(°/s),Angular velocity Y(°/s),Angular velocity Z(°/s),Angle X(°),Angle Y(°),Angle Z(°)
 14:14:47.779,eb:33:2e:f9:57:b5, 2085-97-106 00:42:00:2033,0.051,0.02,0.99,-0.061,0.061,0.427,0.489,-2.961,-103.738
 14:14:47.779,eb:33:2e:f9:57:b5, 2085-97-107 00:42:00:2031,0.051,0.021,0.991,-0.061,0,0.366,0.489,-2.961,-103.738
 14:14:47.779,eb:33:2e:f9:57:b5, 2085-97-107 00:44:00:2033,0.052,0.021,0.991,0,0,0.366,0.489,-2.961,-103.738
 14:14:47.779,eb:33:2e:f9:57:b5, 2085-97-107 00:42:00:2030,0.052,0.021,0.991,0,0.061,0.366,0.489,-2.961,-103.738
 14:14:47.810,eb:33:2e:f9:57:b5, 2085-97-107 00:41:00:2031,0.053,0.02,0.991,0,0.122,0.366,0.489,-2.961,-103.738
 14:14:47.810,eb:33:2e:f9:57:b5, 2085-97-108 00:42:00:2031,0.053,0.02,0.991,0.061,0.183,0.305,0.489,-2.961,-103.738
 14:14:47.810,eb:33:2e:f9:57:b5, 2085-97-108 00:43:00:2031,0.054,0.02,0.992,0,0.244,0.305,0.489,-2.961,-103.738
 14:14:47.810,eb:33:2e:f9:57:b5, 2085-97-107 00:41:00:2029,0.048,0.021,0.992,0.061,0.244,0.183,0.489,-2.961,-103.738
 14:14:47.839,eb:33:2e:f9:57:b5, 2085-97-98 00:41:00:2026,0.05,0.02,0.988,0,0.244,0.244,0.489,-2.961,-103.738
 14:14:47.839,eb:33:2e:f9:57:b5, 2085-97-109 00:42:00:2032,0.052,0.021,0.99,0,0,0.183,0.489,-2.961,-103.738
 14:14:47.839,eb:33:2e:f9:57:b5, 2085-97-107 00:40:00:2032,0.051,0.021,0.992,0,0.122,0.183,0.489,-2.961,-103.738
 14:14:47.839,eb:33:2e:f9:57:b5, 2085-97-103 00:41:00:2030,0.051,0.021,0.99,0,0,0.183,0.489,-2.961,-103.738
 14:14:47.900,eb:33:2e:f9:57:b5, 2085-97-107 00:41:00:2030,0.051,0.02,0.991,-0.061,0,0.061,0.489,-2.961,-103.738
 14:14:47.900,eb:33:2e:f9:57:b5, 2085-97-106 00:42:00:2030,0.052,0.02,0.991,0,0,0.061,0.489,-2.961,-103.738
 14:14:47.900,eb:33:2e:f9:57:b5, 2085-97-106 00:42:00:2031,0.052,0.02,0.992,0,0,0.061,0.489,-2.961,-103.738
 14:14:47.900,eb:33:2e:f9:57:b5, 2085-97-106 00:42:00:2030,0.051,0.02,0.991,0,0.061,0.061,0.489,-2.961,-103.738
 14:14:47.930,eb:33:2e:f9:57:b5, 2085-97-105 00:42:00:2028,0.051,0.02,0.99,0,0,-0.061,0.489,-2.961,-103.738
 14:14:47.930,eb:33:2e:f9:57:b5, 2085-97-107 00:42:00:2029,0.051,0.021,0.991,0,-0.122,-0.183,0.489,-2.961,-103.738
 14:14:47.930,eb:33:2e:f9:57:b5, 2085-97-105 00:42:00:2030,0.052,0.021,0.992,0,-0.122,-0.305,0.489,-2.961,-103.738
 14:14:47.930,eb:33:2e:f9:57:b5, 2085-97-106 00:44:00:2031,0.052,0.021,0.991,0.061,-0.122,-0.488,0.489,-2.961,-103.738
 14:14:47.990,eb:33:2e:f9:57:b5, 2085-97-107 00:43:00:2032,0.051,0.021,0.992,0.122,-0.061,-0.488,0.489,-2.961,-103.738
 14:14:47.990,eb:33:2e:f9:57:b5, 2085-97-106 00:41:00:2031,0.052,0.02,0.992,0.061,-0.061,-0.488,0.489,-2.961,-103.738
 14:14:47.990,eb:33:2e:f9:57:b5, 2085-97-105 00:41:00:2030,0.052,0.021,0.992,0.061,0,-0.366,0.489,-2.961,-103.738
 14:14:47.990,eb:33:2e:f9:57:b5, 2085-97-103 00:41:00:2028,0.05,0.019,0.991,0.061,0.061,-0.305,0.489,-2.961,-103.738
 14:14:48.049,eb:33:2e:f9:57:b5, 2085-97-104 00:42:00:2029,0.051,0.021,0.991,0.061,0,-0.305,0.489,-2.961,-103.738
 14:14:48.049,eb:33:2e:f9:57:b5, 2085-97-105 00:42:00:2030,0.051,0.02,0.991,0,0,-0.244,0.489,-2.961,-103.738
 14:14:48.049,eb:33:2e:f9:57:b5, 2085-97-105 00:42:00:2030,0.051,0.021,0.992,0,0,-0.122,0.489,-2.961,-103.738
 14:14:48.049,eb:33:2e:f9:57:b5, 2085-97-104 00:42:00:2028,0.051,0.021,0.991,0,0,-0.122,0.489,-2.961,-103.738
 14:14:48.051,eb:33:2e:f9:57:b5, 2085-97-105 00:42:00:2029,0.051,0.021,0.991,0,0,-0.122,0.489,-2.961,-103.738
 14:14:48.051,eb:33:2e:f9:57:b5, 2085-97-105 00:41:00:2030,0.051,0.021,0.991,0,-0.061,-0.183,0.489,-2.961,-103.738
 14:14:48.051,eb:33:2e:f9:57:b5, 2085-97-104 00:43:00:2031,0.05,0.021,0.99,0,-0.061,-0.183,0.489,-2.961,-103.738
 14:14:48.051,eb:33:2e:f9:57:b5, 2085-97-105 00:42:00:2031,0.053,0.021,0.99,0,-0.122,-0.183,0.489,-2.961,-103.738
 14:14:48.111,eb:33:2e:f9:57:b5, 2085-97-107 00:45:00:2031,0.052,0.021,0.993,0,-0.122,-0.183,0.489,-2.961,-103.738
 14:14:48.111,eb:33:2e:f9:57:b5, 2085-97-107 00:41:00:2029,0.051,0.021,0.991,0.061,0,-0.183,0.489,-2.961,-103.738
 14:14:48.111,eb:33:2e:f9:57:b5, 2085-97-106 00:42:00:2031,0.052,0.021,0.99,0,-0.061,-0.244,0.489,-2.961,-103.738
 14:14:48.111,eb:33:2e:f9:57:b5, 2085-97-106 00:41:00:2031,0.052,0.021,0.991,0,0,-0.183,0.489,-2.961,-103.738
 14:14:48.139,eb:33:2e:f9:57:b5, 2085-97-105 00:41:00:2031,0.051,0.02,0.992,0,0,-0.122,0.489,-2.961,-103.738
 14:14:48.139,eb:33:2e:f9:57:b5, 2085-97-104 00:42:00:2029,0.051,0.021,0.991,0,0.061,0,0.489,-2.961,-103.738
 14:14:48.139,eb:33:2e:f9:57:b5, 2085-97-107 00:43:00:2030,0.052,0.021,0.991,0,0,-0.061,0.489,-2.961,-103.738
 14:14:48.139,eb:33:2e:f9:57:b5, 2085-97-106 00:42:00:2031,0.052,0.021,0.992,0,0,-0.122,0.489,-2.961,-103.738
 14:14:48.169,eb:33:2e:f9:57:b5, 2085-97-104 00:41:00:2029,0.051,0.021,0.991,0,0,-0.061,0.489,-2.961,-103.738
 14:14:48.169,eb:33:2e:f9:57:b5, 2085-97-106 00:42:00:2029,0.052,0.021,0.991,0.061,-0.061,-0.122,0.489,-2.961,-103.738
 14:14:48.169,eb:33:2e:f9:57:b5, 2085-97-105 00:42:00:2031,0.052,0.021,0.991,0,0,-0.122,0.489,-2.961,-103.738
 14:14:48.169,eb:33:2e:f9:57:b5, 2085-97-104 00:43:00:2029,0.051,0.021,0.991,0,-0.061,-0.061,0.489,-2.961,-103.738
 14:14:48.229,eb:33:2e:f9:57:b5, 2085-97-105 00:43:00:2030,0.052,0.021,0.991,0,-0.061,-0.122,0.489,-2.961,-103.738
 14:14:48.229,eb:33:2e:f9:57:b5, 2085-97-105 00:43:00:2030,0.052,0.021,0.991,0,0,-0.061,0.489,-2.961,-103.738
 14:14:48.229,eb:33:2e:f9:57:b5, 2085-97-107 00:42:00:2030,0.052,0.02,0.992,0,0,0,0.489,-2.961,-103.738
 14:14:48.229,eb:33:2e:f9:57:b5, 2085-97-105 00:43:00:2031,0.051,0.021,0.991,0,0,0,0.489,-2.961,-103.738
 14:14:48.259,eb:33:2e:f9:57:b5, 2085-97-104 00:42:00:2030,0.052,0.021,0.991,0.061,0,-0.061,0.489,-2.961,-103.738
 14:14:48.259,eb:33:2e:f9:57:b5, 2085-97-107 00:45:00:2032,0.052,0.021,0.992,0.061,0,-0.061,0.489,-2.961,-103.738
 14:14:48.259,eb:33:2e:f9:57:b5, 2085-97-107 00:42:00:2030,0.053,0.021,0.992,0.061,0,-0.061,0.489,-2.961,-103.738
 14:14:48.259,eb:33:2e:f9:57:b5, 2085-97-109 00:43:00:2031,0.053,0.021,0.992,0.122,0,-0.061,0.489,-2.961,-103.738
 14:14:48.259,eb:33:2e:f9:57:b5, 2085-113-58 00:60:226:-1830,0.051,0.021,0.992,0.061,0.122,-0.061,0.489,-2.961,-103.738
 14:14:48.291,eb:33:2e:f9:57:b5, 2085-97-104 00:43:00:2029,0.05,0.02,0.991,0.122,0.122,0,0.489,-2.961,-103.738
 14:14:48.291,eb:33:2e:f9:57:b5, 2085-97-104 00:43:00:2030,0.05,0.021,0.99,0.061,0,0,0.489,-2.961,-103.738
 14:14:48.291,eb:33:2e:f9:57:b5, 2085-97-103 00:40:00:2027,0.051,0.02,0.991,0.061,0.061,0.122,0.489,-2.961,-103.738
 14:14:48.291,eb:33:2e:f9:57:b5, 2085-97-105 00:42:00:2028,0.052,0.02,0.991,0,0.122,0.122,0.489,-2.961,-103.738
 14:14:48.350,eb:33:2e:f9:57:b5, 2085-97-108 00:42:00:2031,0.052,0.021,0.991,0,0,0.122,0.489,-2.961,-103.738
 14:14:48.350,eb:33:2e:f9:57:b5, 2085-97-107 00:44:00:2030,0.052,0.021,0.991,0,0,0.122,0.489,-2.961,-103.738
 14:14:48.350,eb:33:2e:f9:57:b5, 2085-97-107 00:44:00:2028,0.052,0.022,0.991,0,0,0.061,0.489,-2.961,-103.738
 14:14:48.350,eb:33:2e:f9:57:b5, 2085-97-107 00:45:00:2029,0.052,0.021,0.991,0,0,0,0.489,-2.961,-103.738
 14:14:48.409,eb:33:2e:f9:57:b5, 2085-97-105 00:43:00:2029,0.052,0.021,0.991,0,0,0,0.489,-2.961,-103.738
 14:14:48.409,eb:33:2e:f9:57:b5, 2085-97-105 00:44:00:2029,0.052,0.021,0.991,0.061,-0.061,-0.061,0.489,-2.961,-103.738
 14:14:48.409,eb:33:2e:f9:57:b5, 2085-97-106 00:42:00:2030,0.052,0.021,0.992,0.061,-0.061,-0.061,0.489,-2.961,-103.738
 14:14:48.409,eb:33:2e:f9:57:b5, 2085-97-105 00:43:00:2029,0.051,0.021,0.991,0.061,0,0.061,0.489,-2.961,-103.738
 14:14:48.411,eb:33:2e:f9:57:b5, 2085-97-105 00:42:00:2028,0.051,0.021,0.99,0.061,0,0.183,0.489,-2.961,-103.738
 14:14:48.411,eb:33:2e:f9:57:b5, 2085-97-103 00:43:00:2030,0.051,0.021,0.991,0.061,0,0.305,0.489,-2.961,-103.738
 14:14:48.411,eb:33:2e:f9:57:b5, 2085-97-104 00:43:00:2031,0.052,0.021,0.991,0,-0.061,0.305,0.489,-2.961,-103.738
 14:14:48.411,eb:33:2e:f9:57:b5, 2085-97-107 00:44:00:2031,0.052,0.021,0.992,0,0,0.244,0.489,-2.961,-103.738
 14:14:48.470,eb:33:2e:f9:57:b5, 2085-97-106 00:44:00:2029,0.052,0.021,0.992,0,0,0.244,0.489,-2.966,-103.738
 14:14:48.470,eb:33:2e:f9:57:b5, 2085-97-108 00:42:00:2029,0.053,0.021,0.992,0.061,0.061,0.244,0.489,-2.961,-103.738
 14:14:48.470,eb:33:2e:f9:57:b5, 2085-97-107 00:43:00:2030,0.051,0.021,0.992,0,0.061,0.244,0.489,-2.966,-103.738
 14:14:48.470,eb:33:2e:f9:57:b5, 2085-97-104 00:44:00:2030,0.05,0.021,0.99,0.061,0,0.244,0.489,-2.966,-103.738
 14:14:48.500,eb:33:2e:f9:57:b5, 2085-97-103 00:42:00:2028,0.05,0.021,0.991,0,0.061,0.244,0.489,-2.966,-103.738
 14:14:48.500,eb:33:2e:f9:57:b5, 2085-97-104 00:42:00:2031,0.052,0.021,0.991,0,0,0.305,0.489,-2.966,-103.738
 14:14:48.500,eb:33:2e:f9:57:b5, 2085-97-104 00:42:00:2030,0.051,0.02,0.992,0,0,0.305,0.489,-2.966,-103.738
 14:14:48.500,eb:33:2e:f9:57:b5, 2085-97-106 00:42:00:2031,0.052,0.021,0.992,0,0,0.366,0.489,-2.966,-103.738
 14:14:48.530,eb:33:2e:f9:57:b5, 2085-97-106 00:44:00:2029,0.052,0.021,0.991,0,0.061,0.366,0.489,-2.966,-103.738
 14:14:48.530,eb:33:2e:f9:57:b5, 2085-97-108 00:43:00:2029,0.052,0.021,0.991,0,0.122,0.366,0.489,-2.966,-103.738
 14:14:48.530,eb:33:2e:f9:57:b5, 2085-97-107 00:43:00:2030,0.052,0.021,0.991,0,0.061,0.366,0.489,-2.966,-103.738
 14:14:48.530,eb:33:2e:f9:57:b5, 2085-97-109 00:44:00:2032,0.053,0.021,0.991,0.061,0.061,0.183,0.489,-2.966,-103.738
 14:14:48.590,eb:33:2e:f9:57:b5, 2085-97-107 00:46:00:2031,0.052,0.022,0.992,0.061,0.122,0.122,0.489,-2.966,-103.738
 14:14:48.590,eb:33:2e:f9:57:b5, 2085-97-109 00:41:00:2036,0.047,0.021,0.992,0.061,0.183,0.122,0.489,-2.966,-103.738
 14:14:48.590,eb:33:2e:f9:57:b5, 2085-97-106 00:39:00:2036,0.05,0.021,0.986,0.061,0,0.061,0.489,-2.966,-103.738
 14:14:48.590,eb:33:2e:f9:57:b5, 2085-97-104 00:44:00:2028,0.053,0.021,0.99,0,0.061,0.122,0.489,-2.966,-103.738
 14:14:48.621,eb:33:2e:f9:57:b5, 2085-97-105 00:44:00:2030,0.051,0.021,0.993,0,0.183,0.122,0.489,-2.966,-103.738
 14:14:48.621,eb:33:2e:f9:57:b5, 2085-97-103 00:43:00:2028,0.051,0.021,0.992,0,0.122,0.183,0.489,-2.966,-103.738
 14:14:48.621,eb:33:2e:f9:57:b5, 2085-97-104 00:44:00:2030,0.051,0.021,0.991,0,0.122,0.244,0.489,-2.966,-103.738
 14:14:48.621,eb:33:2e:f9:57:b5, 2085-97-106 00:44:00:2032,0.052,0.021,0.992,0,0,0.122,0.489,-2.966,-103.738
 14:14:48.651,eb:33:2e:f9:57:b5, 2085-97-107 00:45:00:2032,0.052,0.022,0.993,0,0,0.061,0.494,-2.966,-103.738
 14:14:48.651,eb:33:2e:f9:57:b5, 2085-97-106 00:42:00:2029,0.051,0.021,0.991,0.061,0.183,0.061,0.494,-2.966,-103.738
 14:14:48.651,eb:33:2e:f9:57:b5, 2085-97-105 00:44:00:2029,0.052,0.021,0.991,0,0.122,0,0.494,-2.966,-103.738
 14:14:48.651,eb:33:2e:f9:57:b5, 2085-97-106 00:43:00:2030,0.051,0.021,0.991,0,0.061,0.061,0.494,-2.966,-103.738
 14:14:48.740,eb:33:2e:f9:57:b5, 2085-97-104 00:42:00:2030,0.051,0.021,0.991,0,0.061,0.061,0.494,-2.966,-103.738
 14:14:48.740,eb:33:2e:f9:57:b5, 2085-97-105 00:44:00:2029,0.052,0.021,0.991,-0.061,0.061,0.122,0.494,-2.966,-103.738
 14:14:48.740,eb:33:2e:f9:57:b5, 2085-97-106 00:42:00:2030,0.051,0.021,0.992,0,0.122,0.183,0.494,-2.966,-103.738
 14:14:48.740,eb:33:2e:f9:57:b5, 2085-97-105 00:42:00:2030,0.051,0.021,0.991,0,0.122,0.183,0.494,-2.966,-103.738
 14:14:48.740,eb:33:2e:f9:57:b5, 2085-97-106 00:42:00:2031,0.052,0.021,0.992,0,0.122,0.183,0.494,-2.966,-103.738
 14:14:48.740,eb:33:2e:f9:57:b5, 2085-97-106 00:45:00:2029,0.051,0.021,0.991,0,0.122,0,0.494,-2.966,-103.744
 14:14:48.740,eb:33:2e:f9:57:b5, 2085-97-103 00:44:00:2027,0.051,0.021,0.99,0,0,-0.061,0.494,-2.966,-103.744
 14:14:48.740,eb:33:2e:f9:57:b5, 2085-97-104 00:43:00:2031,0.052,0.021,0.99,0,-0.061,-0.183,0.494,-2.966,-103.744
 14:14:48.769,eb:33:2e:f9:57:b5, 2085-97-107 00:44:00:2031,0.052,0.021,0.992,0,-0.061,-0.122,0.494,-2.966,-103.744
 14:14:48.769,eb:33:2e:f9:57:b5, 2085-97-103 00:43:00:2029,0.05,0.021,0.991,0,0,-0.183,0.494,-2.966,-103.744
 14:14:48.769,eb:33:2e:f9:57:b5, 2085-97-104 00:43:00:2030,0.051,0.021,0.992,0,0,-0.061,0.494,-2.966,-103.744
 14:14:48.769,eb:33:2e:f9:57:b5, 2085-97-104 00:44:00:2031,0.051,0.021,0.991,-0.061,0,0,0.494,-2.966,-103.744
 14:14:48.830,eb:33:2e:f9:57:b5, 2085-97-103 00:43:00:2029,0.051,0.021,0.991,-0.061,0.183,0.122,0.494,-2.966,-103.744
 14:14:48.830,eb:33:2e:f9:57:b5, 2085-97-103 00:45:00:2030,0.051,0.021,0.991,-0.061,0.061,0.183,0.494,-2.966,-103.744
 14:14:48.830,eb:33:2e:f9:57:b5, 2085-97-104 00:43:00:2031,0.052,0.021,0.992,-0.061,0.122,0.122,0.494,-2.966,-103.744
 14:14:48.830,eb:33:2e:f9:57:b5, 2085-97-106 00:44:00:2031,0.052,0.021,0.991,-0.061,0.061,0.122,0.494,-2.966,-103.744
 14:14:48.859,eb:33:2e:f9:57:b5, 2085-97-106 00:44:00:2031,0.052,0.021,0.991,-0.122,0.183,0.122,0.494,-2.966,-103.744
 14:14:48.859,eb:33:2e:f9:57:b5, 2085-97-106 00:43:00:2029,0.051,0.021,0.991,-0.122,0.183,0.183,0.494,-2.966,-103.744
 14:14:48.859,eb:33:2e:f9:57:b5, 2085-97-104 00:43:00:2029,0.051,0.021,0.991,-0.122,0,0,0.494,-2.966,-103.744
 14:14:48.859,eb:33:2e:f9:57:b5, 2085-113-58 00:150:226:-2085,0.051,0.022,0.99,-0.183,0,-0.061,0.494,-2.966,-103.744
 14:14:48.889,eb:33:2e:f9:57:b5, 2085-97-103 00:42:00:2030,0.051,0.021,0.99,-0.061,-0.061,-0.122,0.494,-2.966,-103.744
 14:14:48.889,eb:33:2e:f9:57:b5, 2085-97-106 00:43:00:2033,0.051,0.021,0.992,-0.061,-0.183,-0.183,0.494,-2.966,-103.744
 14:14:48.889,eb:33:2e:f9:57:b5, 2085-97-105 00:41:00:2032,0.051,0.02,0.993,0,-0.061,-0.122,0.494,-2.966,-103.744
 14:14:48.889,eb:33:2e:f9:57:b5, 2085-97-104 00:43:00:2030,0.051,0.019,0.992,0,0,0,0.494,-2.966,-103.744
 14:14:48.950,eb:33:2e:f9:57:b5, 2085-97-105 00:43:00:2030,0.05,0.021,0.991,0,0,0.122,0.494,-2.966,-103.744
 14:14:48.950,eb:33:2e:f9:57:b5, 2085-97-104 00:43:00:2030,0.051,0.021,0.99,0,0.061,0.122,0.494,-2.966,-103.744
 14:14:48.950,eb:33:2e:f9:57:b5, 2085-97-105 00:43:00:2029,0.052,0.021,0.991,0,0,0.122,0.494,-2.966,-103.744
 14:14:48.950,eb:33:2e:f9:57:b5, 2085-97-106 00:43:00:2032,0.051,0.021,0.99,0,0.061,0.061,0.494,-2.966,-103.744
 14:14:48.980,eb:33:2e:f9:57:b5, 2085-97-105 00:44:00:2030,0.052,0.021,0.992,-0.061,0,0.061,0.494,-2.966,-103.744
 14:14:48.980,eb:33:2e:f9:57:b5, 2085-97-107 00:43:00:2031,0.052,0.021,0.991,-0.061,0.061,0,0.494,-2.966,-103.744
 14:14:48.980,eb:33:2e:f9:57:b5, 2085-97-106 00:45:00:2030,0.051,0.021,0.991,0,0,0,0.494,-2.966,-103.744
 14:14:48.980,eb:33:2e:f9:57:b5, 2085-97-107 00:43:00:2029,0.052,0.021,0.991,0,0,-0.061,0.494,-2.966,-103.744
 14:14:49.039,eb:33:2e:f9:57:b5, 2085-97-106 00:43:00:2030,0.051,0.021,0.991,0,0,-0.122,0.494,-2.966,-103.744
 14:14:49.039,eb:33:2e:f9:57:b5, 2085-97-104 00:43:00:2028,0.05,0.021,0.991,0,0,-0.183,0.494,-2.966,-103.744
 14:14:49.039,eb:33:2e:f9:57:b5, 2085-97-104 00:42:00:2029,0.051,0.021,0.99,-0.061,-0.061,-0.183,0.494,-2.966,-103.744
 14:14:49.039,eb:33:2e:f9:57:b5, 2085-97-107 00:43:00:2030,0.052,0.021,0.991,0,-0.061,-0.122,0.494,-2.966,-103.744
 14:14:49.069,eb:33:2e:f9:57:b5, 2085-97-105 00:42:00:2030,0.05,0.021,0.992,0,-0.061,-0.244,0.494,-2.966,-103.744
 14:14:49.069,eb:33:2e:f9:57:b5, 2085-97-105 00:43:00:2030,0.052,0.021,0.991,0,-0.122,-0.183,0.494,-2.966,-103.744
 14:14:49.069,eb:33:2e:f9:57:b5, 2085-97-107 00:42:00:2031,0.052,0.021,0.991,-0.061,-0.122,-0.061,0.494,-2.966,-103.744
 14:14:49.069,eb:33:2e:f9:57:b5, 2085-97-106 00:43:00:2029,0.052,0.021,0.991,-0.061,-0.061,-0.122,0.494,-2.966,-103.744
 14:14:49.099,eb:33:2e:f9:57:b5, 2085-97-108 00:44:00:2031,0.053,0.021,0.991,0,-0.122,-0.122,0.494,-2.966,-103.744
 14:14:49.099,eb:33:2e:f9:57:b5, 2085-97-106 00:42:00:2030,0.051,0.021,0.991,0,0,-0.061,0.494,-2.966,-103.744
 14:14:49.099,eb:33:2e:f9:57:b5, 2085-97-106 00:41:00:2029,0.053,0.021,0.991,0,0,-0.061,0.494,-2.966,-103.744
 14:14:49.099,eb:33:2e:f9:57:b5, 2085-97-109 00:43:00:2031,0.052,0.021,0.991,0,0.061,0,0.494,-2.966,-103.744
 14:14:49.129,eb:33:2e:f9:57:b5, 2085-97-103 00:41:00:2029,0.051,0.021,0.991,0,0.061,0,0.494,-2.966,-103.744
 14:14:49.129,eb:33:2e:f9:57:b5, 2085-97-106 00:42:00:2030,0.052,0.021,0.991,0.061,0,0.061,0.494,-2.966,-103.744
 14:14:49.129,eb:33:2e:f9:57:b5, 2085-97-106 00:41:00:2030,0.052,0.021,0.991,0,0.122,0.122,0.494,-2.966,-103.744
 14:14:49.129,eb:33:2e:f9:57:b5, 2085-97-106 00:41:00:2029,0.051,0.021,0.991,0,0.061,0.183,0.494,-2.966,-103.744
 14:14:49.191,eb:33:2e:f9:57:b5, 2085-97-105 00:43:00:2029,0.051,0.021,0.991,0,0,0.183,0.494,-2.966,-103.744
 14:14:49.191,eb:33:2e:f9:57:b5, 2085-97-104 00:43:00:2028,0.051,0.021,0.99,0,0,0.183,0.494,-2.966,-103.744
 14:14:49.191,eb:33:2e:f9:57:b5, 2085-97-106 00:44:00:2032,0.053,0.021,0.991,0,0,0.183,0.494,-2.966,-103.744
 14:14:49.191,eb:33:2e:f9:57:b5, 2085-97-107 00:44:00:2032,0.052,0.021,0.992,0,0,0.122,0.494,-2.966,-103.744
 14:14:49.220,eb:33:2e:f9:57:b5, 2085-97-106 00:42:00:2030,0.051,0.021,0.991,0,0,0.061,0.494,-2.966,-103.744
 14:14:49.220,eb:33:2e:f9:57:b5, 2085-97-104 00:44:00:2030,0.052,0.021,0.99,0,0,0.122,0.494,-2.966,-103.744
 14:14:49.220,eb:33:2e:f9:57:b5, 2085-97-106 00:42:00:2031,0.053,0.021,0.991,0,-0.061,0.122,0.494,-2.966,-103.744
 14:14:49.220,eb:33:2e:f9:57:b5, 2085-97-106 00:43:00:2030,0.052,0.021,0.991,0,0,0.183,0.494,-2.966,-103.744
 14:14:49.251,eb:33:2e:f9:57:b5, 2085-97-105 00:42:00:2031,0.052,0.021,0.991,0,0,0.183,0.494,-2.966,-103.744
 14:14:49.251,eb:33:2e:f9:57:b5, 2085-97-106 00:43:00:2031,0.052,0.021,0.991,0,0,0.244,0.494,-2.966,-103.744
 14:14:49.251,eb:33:2e:f9:57:b5, 2085-97-108 00:43:00:2031,0.052,0.021,0.992,0,0.061,0.244,0.494,-2.966,-103.744
 14:14:49.251,eb:33:2e:f9:57:b5, 2085-97-107 00:42:00:2032,0.052,0.021,0.991,0,0.183,0.183,0.494,-2.966,-103.744
 14:14:49.310,eb:33:2e:f9:57:b5, 2085-97-105 00:43:00:2029,0.052,0.021,0.99,0,0.183,0.183,0.494,-2.966,-103.744
 14:14:49.310,eb:33:2e:f9:57:b5, 2085-97-108 00:42:00:2030,0.052,0.021,0.991,0,0.122,0.122,0.494,-2.966,-103.744
 14:14:49.310,eb:33:2e:f9:57:b5, 2085-97-105 00:44:00:2030,0.05,0.021,0.991,0.061,0.183,0.122,0.494,-2.966,-103.744
 14:14:49.310,eb:33:2e:f9:57:b5, 2085-97-104 00:44:00:2028,0.05,0.022,0.99,0.061,0.122,0.122,0.494,-2.966,-103.744
 14:14:49.340,eb:33:2e:f9:57:b5, 2085-97-104 00:43:00:2029,0.052,0.021,0.991,0.061,0.061,0.122,0.494,-2.966,-103.744
 14:14:49.340,eb:33:2e:f9:57:b5, 2085-97-105 00:43:00:2029,0.051,0.021,0.991,0.061,0.061,0.122,0.494,-2.966,-103.744
 14:14:49.340,eb:33:2e:f9:57:b5, 2085-97-105 00:42:00:2031,0.051,0.021,0.991,0.061,0.122,0.122,0.494,-2.966,-103.744
 14:14:49.340,eb:33:2e:f9:57:b5, 2085-97-104 00:41:00:2030,0.051,0.021,0.992,0,0.122,0.183,0.494,-2.966,-103.744
 14:14:49.399,eb:33:2e:f9:57:b5, 2085-97-106 00:43:00:2031,0.052,0.02,0.991,0,0.061,0.183,0.494,-2.966,-103.744
 14:14:49.399,eb:33:2e:f9:57:b5, 2085-97-106 00:43:00:2030,0.051,0.021,0.992,0,0.183,0.183,0.494,-2.966,-103.744
 14:14:49.399,eb:33:2e:f9:57:b5, 2085-97-108 00:43:00:2030,0.051,0.021,0.99,0,0.061,0.244,0.494,-2.966,-103.744
 14:14:49.399,eb:33:2e:f9:57:b5, 2085-97-105 00:45:00:2031,0.051,0.021,0.991,0,0.061,0.183,0.494,-2.966,-103.744
 14:14:49.431,eb:33:2e:f9:57:b5, 2085-97-106 00:43:00:2029,0.051,0.021,0.991,0,0.061,0.061,0.494,-2.966,-103.744
 14:14:49.431,eb:33:2e:f9:57:b5, 2085-97-105 00:42:00:2030,0.051,0.021,0.991,0,0.122,0,0.494,-2.966,-103.744
 14:14:49.431,eb:33:2e:f9:57:b5, 2085-97-103 00:42:00:2030,0.049,0.021,0.991,0,0.183,0.122,0.494,-2.966,-103.744
 14:14:49.431,eb:33:2e:f9:57:b5, 2085-97-104 00:42:00:2029,0.051,0.021,0.991,0,0,0.122,0.494,-2.966,-103.744
 14:14:49.461,eb:33:2e:f9:57:b5, 2085-97-104 00:42:00:2030,0.051,0.021,0.99,0,0,0.061,0.494,-2.966,-103.744
 14:14:49.461,eb:33:2e:f9:57:b5, 2085-97-104 00:43:00:2029,0.051,0.021,0.991,-0.061,0,0.122,0.494,-2.966,-103.744
 14:14:49.461,eb:33:2e:f9:57:b5, 2085-97-104 00:43:00:2029,0.05,0.021,0.991,-0.061,0,0.122,0.494,-2.966,-103.744
 14:14:49.461,eb:33:2e:f9:57:b5, 2085-113-58 00:105:226:-2070,0.051,0.021,0.991,-0.122,0,0.122,0.494,-2.966,-103.744
 14:14:49.461,eb:33:2e:f9:57:b5, 2085-97-105 00:43:00:2031,0.052,0.021,0.991,-0.061,0,0.122,0.494,-2.966,-103.744
 14:14:49.523,eb:33:2e:f9:57:b5, 2085-97-107 00:43:00:2030,0.053,0.021,0.992,-0.122,0,0,0.494,-2.966,-103.744
 14:14:49.523,eb:33:2e:f9:57:b5, 2085-97-106 00:42:00:2031,0.052,0.021,0.991,-0.061,0,0,0.494,-2.966,-103.744
 14:14:49.523,eb:33:2e:f9:57:b5, 2085-97-106 00:43:00:2030,0.052,0.021,0.991,-0.061,0.061,0,0.494,-2.966,-103.744
 14:14:49.523,eb:33:2e:f9:57:b5, 2085-97-105 00:43:00:2030,0.05,0.021,0.992,0,0.122,0,0.494,-2.966,-103.744
 14:14:49.550,eb:33:2e:f9:57:b5, 2085-97-104 00:42:00:2028,0.051,0.021,0.991,-0.122,0.122,0,0.494,-2.966,-103.744
 14:14:49.550,eb:33:2e:f9:57:b5, 2085-97-105 00:44:00:2029,0.052,0.021,0.991,-0.122,0.061,0,0.494,-2.966,-103.744
 14:14:49.550,eb:33:2e:f9:57:b5, 2085-97-105 00:43:00:2031,0.051,0.022,0.991,-0.122,0.061,0.061,0.494,-2.966,-103.744
 14:14:49.550,eb:33:2e:f9:57:b5, 2085-97-102 00:43:00:2029,0.05,0.021,0.992,-0.122,0.122,0.122,0.494,-2.966,-103.744
 14:14:49.579,eb:33:2e:f9:57:b5, 2085-97-105 00:43:00:2029,0.051,0.021,0.991,-0.122,0.061,0.122,0.494,-2.966,-103.744
 14:14:49.579,eb:33:2e:f9:57:b5, 2085-97-104 00:44:00:2029,0.051,0.021,0.991,-0.183,0.183,0.122,0.494,-2.966,-103.744
 14:14:49.579,eb:33:2e:f9:57:b5, 2085-97-104 00:42:00:2030,0.05,0.021,0.991,-0.122,0.122,0,0.494,-2.966,-103.744
 14:14:49.579,eb:33:2e:f9:57:b5, 2085-97-104 00:43:00:2028,0.051,0.02,0.99,-0.122,0,0,0.494,-2.966,-103.744
 14:14:49.640,eb:33:2e:f9:57:b5, 2085-97-105 00:44:00:2030,0.052,0.021,0.991,-0.183,0,0,0.494,-2.966,-103.744
 14:14:49.640,eb:33:2e:f9:57:b5, 2085-97-106 00:43:00:2027,0.051,0.021,0.991,-0.122,0,-0.061,0.494,-2.966,-103.744
 14:14:49.640,eb:33:2e:f9:57:b5, 2085-97-104 00:43:00:2029,0.05,0.021,0.991,-0.183,0,-0.122,0.494,-2.966,-103.744
 14:14:49.640,eb:33:2e:f9:57:b5, 2085-97-104 00:43:00:2029,0.05,0.021,0.99,-0.244,-0.061,-0.244,0.494,-2.966,-103.744
 14:14:49.670,eb:33:2e:f9:57:b5, 2085-97-104 00:43:00:2030,0.051,0.02,0.991,-0.183,-0.183,-0.183,0.494,-2.966,-103.744
 14:14:49.670,eb:33:2e:f9:57:b5, 2085-97-104 00:42:00:2029,0.051,0.021,0.991,-0.183,-0.061,-0.244,0.494,-2.966,-103.744
 14:14:49.670,eb:33:2e:f9:57:b5, 2085-97-104 00:40:00:2029,0.051,0.02,0.991,-0.183,-0.122,-0.244,0.494,-2.966,-103.744
 14:14:49.670,eb:33:2e:f9:57:b5, 2085-97-105 00:43:00:2029,0.051,0.019,0.991,-0.183,-0.122,-0.183,0.494,-2.966,-103.744
 14:14:49.701,eb:33:2e:f9:57:b5, 2085-97-103 00:43:00:2029,0.051,0.021,0.991,-0.183,-0.061,-0.183,0.494,-2.966,-103.744
 14:14:49.701,eb:33:2e:f9:57:b5, 2085-97-106 00:41:00:2032,0.053,0.021,0.991,-0.122,-0.061,-0.183,0.494,-2.966,-103.744
 14:14:49.701,eb:33:2e:f9:57:b5, 2085-97-106 00:41:00:2031,0.052,0.02,0.992,-0.061,0,-0.061,0.494,-2.966,-103.744
 14:14:49.701,eb:33:2e:f9:57:b5, 2085-97-105 00:41:00:2030,0.051,0.02,0.992,-0.061,0.122,0,0.494,-2.966,-103.744
 14:14:49.760,eb:33:2e:f9:57:b5, 2085-97-105 00:41:00:2030,0.052,0.02,0.992,0,0.061,0,0.494,-2.966,-103.744
 14:14:49.760,eb:33:2e:f9:57:b5, 2085-97-105 00:40:00:2029,0.052,0.02,0.992,0,0.061,0,0.494,-2.966,-103.744
 14:14:49.760,eb:33:2e:f9:57:b5, 2085-97-104 00:42:00:2029,0.05,0.02,0.992,0,0.183,0.061,0.494,-2.966,-103.744
 14:14:49.760,eb:33:2e:f9:57:b5, 2085-97-104 00:41:00:2027,0.051,0.021,0.99,0,0.122,0.061,0.494,-2.966,-103.744
 14:14:49.790,eb:33:2e:f9:57:b5, 2085-97-102 00:41:00:2029,0.049,0.021,0.991,0,0,0.061,0.494,-2.966,-103.744
 14:14:49.790,eb:33:2e:f9:57:b5, 2085-97-103 00:42:00:2029,0.051,0.02,0.991,-0.061,0,0,0.494,-2.966,-103.744
 14:14:49.790,eb:33:2e:f9:57:b5, 2085-97-105 00:42:00:2029,0.051,0.021,0.991,-0.061,-0.061,0,0.494,-2.966,-103.744
 14:14:49.790,eb:33:2e:f9:57:b5, 2085-97-106 00:42:00:2029,0.052,0.021,0.991,0,-0.061,0,0.494,-2.966,-103.744
 14:14:49.820,eb:33:2e:f9:57:b5, 2085-97-105 00:40:00:2030,0.052,0.021,0.991,0,-0.061,0,0.494,-2.966,-103.744
 14:14:49.820,eb:33:2e:f9:57:b5, 2085-97-106 00:41:00:2031,0.053,0.02,0.992,0,0,0,0.494,-2.966,-103.744
 14:14:49.821,eb:33:2e:f9:57:b5, 2085-97-105 00:44:00:2032,0.051,0.021,0.992,0,0,0,0.494,-2.966,-103.744
 14:14:49.821,eb:33:2e:f9:57:b5, 2085-97-105 00:43:00:2030,0.051,0.021,0.991,0,0,0,0.494,-2.966,-103.744
 14:14:49.880,eb:33:2e:f9:57:b5, 2085-97-105 00:41:00:2030,0.051,0.021,0.991,0,0.061,0,0.494,-2.966,-103.744
 14:14:49.880,eb:33:2e:f9:57:b5, 2085-97-105 00:41:00:2029,0.052,0.021,0.991,0,0.061,0,0.494,-2.966,-103.744
 14:14:49.880,eb:33:2e:f9:57:b5, 2085-97-107 00:42:00:2030,0.051,0.02,0.991,0,0.061,0,0.494,-2.966,-103.744
 14:14:49.880,eb:33:2e:f9:57:b5, 2085-97-104 00:41:00:2030,0.05,0.02,0.991,0,0.122,0.061,0.494,-2.966,-103.744
 14:14:49.910,eb:33:2e:f9:57:b5, 2085-97-105 00:42:00:2028,0.05,0.021,0.991,-0.061,0.061,0.122,0.494,-2.966,-103.744
 14:14:49.910,eb:33:2e:f9:57:b5, 2085-97-105 00:42:00:2029,0.051,0.021,0.991,-0.061,0.061,0.061,0.494,-2.966,-103.744
 14:14:49.910,eb:33:2e:f9:57:b5, 2085-97-104 00:42:00:2029,0.052,0.021,0.991,-0.061,0.061,0.061,0.494,-2.966,-103.744
 14:14:49.910,eb:33:2e:f9:57:b5, 2085-97-106 00:41:00:2030,0.052,0.021,0.991,-0.061,0.061,0.061,0.494,-2.966,-103.744
 14:14:49.940,eb:33:2e:f9:57:b5, 2085-97-105 00:41:00:2030,0.051,0.02,0.99,-0.061,0.061,0.061,0.494,-2.966,-103.744
 14:14:49.940,eb:33:2e:f9:57:b5, 2085-97-105 00:41:00:2028,0.052,0.021,0.991,-0.122,0.061,0.122,0.494,-2.966,-103.744
 14:14:49.940,eb:33:2e:f9:57:b5, 2085-97-105 00:41:00:2030,0.052,0.02,0.991,-0.061,0.061,0.061,0.494,-2.966,-103.744
 14:14:49.940,eb:33:2e:f9:57:b5, 2085-97-106 00:40:00:2031,0.05,0.02,0.991,-0.061,0,0.061,0.494,-2.966,-103.749
 14:14:49.999,eb:33:2e:f9:57:b5, 2085-97-103 00:42:00:2030,0.051,0.021,0.991,-0.122,0,0.061,0.494,-2.966,-103.749
 14:14:49.999,eb:33:2e:f9:57:b5, 2085-97-105 00:40:00:2031,0.051,0.019,0.991,-0.061,0,0.183,0.494,-2.966,-103.749
 14:14:49.999,eb:33:2e:f9:57:b5, 2085-97-104 00:42:00:2029,0.051,0.02,0.991,-0.061,0.061,0.122,0.494,-2.961,-103.749
 14:14:49.999,eb:33:2e:f9:57:b5, 2085-97-105 00:40:00:2030,0.051,0.021,0.991,-0.061,0.061,0.122,0.494,-2.961,-103.749
 14:14:50.030,eb:33:2e:f9:57:b5, 2085-97-104 00:42:00:2029,0.051,0.02,0.991,0,0.122,0.183,0.494,-2.961,-103.749
 14:14:50.030,eb:33:2e:f9:57:b5, 2085-97-105 00:41:00:2031,0.051,0.021,0.991,-0.061,0.061,0.122,0.494,-2.961,-103.749
 14:14:50.030,eb:33:2e:f9:57:b5, 2085-97-105 00:43:00:2032,0.051,0.021,0.992,-0.061,0.183,0.183,0.494,-2.961,-103.749
 14:14:50.030,eb:33:2e:f9:57:b5, 2085-97-103 00:42:00:2030,0.051,0.021,0.991,-0.061,0.244,0.244,0.494,-2.961,-103.749
 14:14:50.061,eb:33:2e:f9:57:b5, 2085-97-106 00:44:00:2029,0.051,0.021,0.992,-0.122,0.122,0.122,0.494,-2.961,-103.749
 14:14:50.061,eb:33:2e:f9:57:b5, 2085-97-104 00:42:00:2029,0.05,0.021,0.991,-0.122,0.183,0,0.494,-2.961,-103.749
 14:14:50.061,eb:33:2e:f9:57:b5, 2085-97-104 00:41:00:2029,0.05,0.021,0.991,-0.061,0,0,0.494,-2.961,-103.749
 14:14:50.061,eb:33:2e:f9:57:b5, 2085-97-105 00:41:00:2030,0.051,0.02,0.991,-0.122,0,0,0.494,-2.961,-103.749
 14:14:50.119,eb:33:2e:f9:57:b5, 2085-97-105 00:41:00:2030,0.051,0.021,0.991,-0.061,-0.061,0,0.494,-2.961,-103.749
 14:14:50.119,eb:33:2e:f9:57:b5, 2085-113-81 00:04:79:-455,0.05,0.02,0.99,-0.122,-0.061,0,0.494,-2.961,-103.749
 14:14:50.119,eb:33:2e:f9:57:b5, 2085-97-104 00:40:00:2030,0.051,0.02,0.99,-0.061,-0.122,0,0.494,-2.961,-103.749
 14:14:50.119,eb:33:2e:f9:57:b5, 2085-97-104 00:42:00:2030,0.052,0.02,0.991,-0.061,-0.122,0.061,0.494,-2.961,-103.749
 14:14:50.149,eb:33:2e:f9:57:b5, 2085-97-105 00:40:00:2030,0.051,0.02,0.991,-0.122,0,0.061,0.494,-2.961,-103.749
 14:14:50.149,eb:33:2e:f9:57:b5, 2085-97-106 00:39:00:2032,0.051,0.02,0.992,-0.122,0,0.061,0.494,-2.961,-103.749
 14:14:50.149,eb:33:2e:f9:57:b5, 2085-97-106 00:41:00:2030,0.051,0.021,0.991,-0.122,0.061,0.061,0.494,-2.961,-103.749
 14:14:50.149,eb:33:2e:f9:57:b5, 2085-97-105 00:41:00:2031,0.052,0.02,0.991,-0.122,0,0,0.494,-2.961,-103.749
 14:14:50.210,eb:33:2e:f9:57:b5, 2085-97-105 00:42:00:2030,0.052,0.02,0.992,-0.122,0.061,0,0.494,-2.961,-103.749
 14:14:50.210,eb:33:2e:f9:57:b5, 2085-97-103 00:41:00:2031,0.05,0.021,0.992,-0.122,0,0,0.494,-2.961,-103.749
 14:14:50.210,eb:33:2e:f9:57:b5, 2085-97-104 00:40:00:2031,0.051,0.019,0.991,-0.183,0,0,0.494,-2.961,-103.749
 14:14:50.210,eb:33:2e:f9:57:b5, 2085-97-105 00:42:00:2029,0.05,0.021,0.991,-0.183,0,0,0.494,-2.961,-103.749
 14:14:50.239,eb:33:2e:f9:57:b5, 2085-97-103 00:42:00:2032,0.052,0.019,0.99,-0.183,-0.122,0,0.494,-2.961,-103.749
 14:14:50.239,eb:33:2e:f9:57:b5, 2085-97-104 00:41:00:2031,0.053,0.02,0.992,-0.244,0.061,0.061,0.494,-2.961,-103.749
 14:14:50.239,eb:33:2e:f9:57:b5, 2085-97-103 00:40:00:2029,0.051,0.02,0.993,-0.244,0.122,0.061,0.494,-2.961,-103.749
 14:14:50.239,eb:33:2e:f9:57:b5, 2085-97-103 00:40:00:2029,0.051,0.02,0.992,-0.244,0.183,0.244,0.494,-2.961,-103.749
 14:14:50.270,eb:33:2e:f9:57:b5, 2085-97-105 00:39:00:2031,0.05,0.02,0.991,-0.244,0,0.244,0.494,-2.961,-103.749
 14:14:50.270,eb:33:2e:f9:57:b5, 2085-97-104 00:41:00:2030,0.051,0.021,0.991,-0.305,0,0.183,0.494,-2.961,-103.749
 14:14:50.270,eb:33:2e:f9:57:b5, 2085-97-104 00:40:00:2028,0.052,0.02,0.991,-0.305,0.061,0.183,0.494,-2.961,-103.749
 14:14:50.270,eb:33:2e:f9:57:b5, 2085-97-105 00:40:00:2030,0.052,0.02,0.991,-0.305,0,0.122,0.494,-2.961,-103.749
 14:14:50.299,eb:33:2e:f9:57:b5, 2085-97-107 00:40:00:2029,0.051,0.02,0.992,-0.305,0,0.061,0.494,-2.961,-103.749
 14:14:50.299,eb:33:2e:f9:57:b5, 2085-97-104 00:42:00:2026,0.053,0.02,0.992,-0.305,0,0.061,0.494,-2.961,-103.749
 14:14:50.299,eb:33:2e:f9:57:b5, 2085-97-106 00:38:00:2031,0.052,0.02,0.993,-0.305,0,0,0.494,-2.961,-103.749
 14:14:50.299,eb:33:2e:f9:57:b5, 2085-97-107 00:40:00:2031,0.052,0.02,0.99,-0.244,-0.122,0,0.494,-2.961,-103.749
 14:14:50.360,eb:33:2e:f9:57:b5, 2085-97-108 00:38:00:2032,0.051,0.02,0.991,-0.244,-0.122,0,0.494,-2.961,-103.749
 14:14:50.360,eb:33:2e:f9:57:b5, 2085-97-107 00:38:00:2033,0.052,0.019,0.992,-0.183,0.061,0,0.494,-2.961,-103.749
 14:14:50.360,eb:33:2e:f9:57:b5, 2085-97-106 00:40:00:2031,0.052,0.019,0.992,-0.122,0.122,0,0.489,-2.961,-103.749
 14:14:50.360,eb:33:2e:f9:57:b5, 2085-97-104 00:39:00:2028,0.051,0.019,0.992,-0.061,0.244,0,0.489,-2.961,-103.749
 14:14:50.389,eb:33:2e:f9:57:b5, 2085-97-104 00:38:00:2031,0.05,0.019,0.992,0,0.122,-0.061,0.489,-2.961,-103.749
 14:14:50.389,eb:33:2e:f9:57:b5, 2085-97-104 00:39:00:2030,0.05,0.019,0.99,-0.061,0.061,0,0.489,-2.961,-103.749
 14:14:50.389,eb:33:2e:f9:57:b5, 2085-97-103 00:38:00:2029,0.051,0.019,0.991,0,0,0.061,0.489,-2.961,-103.749
 14:14:50.389,eb:33:2e:f9:57:b5, 2085-97-106 00:38:00:2032,0.051,0.019,0.992,0,-0.061,0,0.489,-2.961,-103.749
 14:14:50.420,eb:33:2e:f9:57:b5, 2085-97-106 00:39:00:2028,0.052,0.019,0.992,0,0,0,0.489,-2.961,-103.749
 14:14:50.420,eb:33:2e:f9:57:b5, 2085-97-109 00:37:00:2034,0.052,0.019,0.992,0.061,0,0,0.489,-2.961,-103.749
 14:14:50.420,eb:33:2e:f9:57:b5, 2085-97-105 00:39:00:2031,0.051,0.019,0.992,0.122,0.183,0.061,0.489,-2.961,-103.749
 14:14:50.420,eb:33:2e:f9:57:b5, 2085-97-105 00:39:00:2031,0.051,0.019,0.991,0.061,0.122,0.061,0.489,-2.961,-103.749
 14:14:50.479,eb:33:2e:f9:57:b5, 2085-97-105 00:39:00:2030,0.051,0.02,0.991,0.122,0.183,0.122,0.489,-2.961,-103.749
 14:14:50.479,eb:33:2e:f9:57:b5, 2085-97-102 00:40:00:2030,0.05,0.02,0.99,0.061,0.183,0.183,0.489,-2.961,-103.749
 14:14:50.479,eb:33:2e:f9:57:b5, 2085-97-102 00:38:00:2029,0.051,0.019,0.991,0.061,0.061,0.061,0.489,-2.961,-103.749
 14:14:50.479,eb:33:2e:f9:57:b5, 2085-97-105 00:39:00:2030,0.051,0.019,0.992,0,0.061,0.061,0.489,-2.961,-103.749
 14:14:50.510,eb:33:2e:f9:57:b5, 2085-97-104 00:41:00:2031,0.051,0.019,0.991,0.122,0,0,0.489,-2.961,-103.749
 14:14:50.510,eb:33:2e:f9:57:b5, 2085-97-104 00:39:00:2029,0.051,0.02,0.991,0.061,0.061,0,0.489,-2.961,-103.749
 14:14:50.510,eb:33:2e:f9:57:b5, 2085-97-103 00:40:00:2029,0.051,0.019,0.991,0,0.061,0.061,0.489,-2.961,-103.749
 14:14:50.510,eb:33:2e:f9:57:b5, 2085-97-104 00:39:00:2031,0.052,0.02,0.99,0,0.061,0.061,0.489,-2.961,-103.749
 14:14:50.540,eb:33:2e:f9:57:b5, 2085-97-107 00:39:00:2030,0.051,0.02,0.992,0,0.061,0.122,0.489,-2.961,-103.749
 14:14:50.540,eb:33:2e:f9:57:b5, 2085-97-103 00:39:00:2029,0.051,0.019,0.991,0.061,0.122,0.061,0.489,-2.961,-103.749
 14:14:50.540,eb:33:2e:f9:57:b5, 2085-97-104 00:40:00:2028,0.051,0.02,0.991,0,0.061,0.061,0.489,-2.961,-103.749
 14:14:50.540,eb:33:2e:f9:57:b5, 2085-97-106 00:42:00:2030,0.051,0.02,0.991,0,0,0,0.489,-2.961,-103.749
 14:14:50.600,eb:33:2e:f9:57:b5, 2085-97-104 00:39:00:2029,0.05,0.02,0.991,0.061,0.061,-0.061,0.483,-2.961,-103.749
 14:14:50.600,eb:33:2e:f9:57:b5, 2085-97-104 00:38:00:2031,0.05,0.018,0.992,0,0.061,0,0.483,-2.961,-103.749
 14:14:50.600,eb:33:2e:f9:57:b5, 2085-97-103 00:39:00:2029,0.05,0.019,0.991,0.061,0.122,0,0.483,-2.961,-103.749
 14:14:50.600,eb:33:2e:f9:57:b5, 2085-97-104 00:38:00:2029,0.051,0.02,0.991,0,0.061,0.061,0.483,-2.961,-103.749
 14:14:50.630,eb:33:2e:f9:57:b5, 2085-97-103 00:40:00:2031,0.051,0.019,0.991,0,0.061,0.122,0.483,-2.961,-103.749
 14:14:50.630,eb:33:2e:f9:57:b5, 2085-97-104 00:42:00:2029,0.05,0.02,0.991,0,0.122,0.061,0.483,-2.961,-103.749
 14:14:50.630,eb:33:2e:f9:57:b5, 2085-97-103 00:40:00:2030,0.051,0.021,0.992,0,0,0,0.483,-2.961,-103.749
 14:14:50.630,eb:33:2e:f9:57:b5, 2085-97-105 00:41:00:2032,0.051,0.02,0.992,0,0.061,0,0.483,-2.961,-103.749
 14:14:50.661,eb:33:2e:f9:57:b5, 2085-97-103 00:42:00:2029,0.051,0.02,0.992,0,0,-0.061,0.483,-2.961,-103.749
 14:14:50.661,eb:33:2e:f9:57:b5, 2085-97-106 00:41:00:2030,0.052,0.02,0.991,0,0,-0.061,0.483,-2.961,-103.749
 14:14:50.661,eb:33:2e:f9:57:b5, 2085-97-105 00:39:00:2031,0.05,0.02,0.991,0,0,-0.061,0.483,-2.961,-103.749
 14:14:50.661,eb:33:2e:f9:57:b5, 2085-97-103 00:39:00:2029,0.051,0.019,0.991,0,0.061,0,0.483,-2.961,-103.749
 14:14:50.720,eb:33:2e:f9:57:b5, 2085-97-105 00:41:00:2031,0.051,0.02,0.991,0,0.122,0.061,0.483,-2.961,-103.749
 14:14:50.720,eb:33:2e:f9:57:b5, 2085-97-106 00:41:00:2030,0.052,0.021,0.991,0,0.061,0.122,0.483,-2.961,-103.749
 14:14:50.720,eb:33:2e:f9:57:b5, 2085-97-105 00:40:00:2032,0.051,0.02,0.992,0,0.061,0.061,0.483,-2.961,-103.749
 14:14:50.720,eb:33:2e:f9:57:b5, 2085-97-105 00:40:00:2031,0.052,0.02,0.991,0,0.061,0,0.483,-2.961,-103.749
 14:14:50.750,eb:33:2e:f9:57:b5, 2085-97-105 00:42:00:2030,0.051,0.02,0.991,0.061,0.061,0,0.483,-2.961,-103.749
 14:14:50.750,eb:33:2e:f9:57:b5, 2085-97-104 00:39:00:2031,0.05,0.021,0.991,0.061,0.122,0,0.483,-2.961,-103.749
 14:14:50.750,eb:33:2e:f9:57:b5, 2085-97-102 00:39:00:2030,0.05,0.019,0.991,0.061,0.061,0,0.483,-2.961,-103.749
 14:14:50.750,eb:33:2e:f9:57:b5, 2085-97-103 00:39:00:2029,0.051,0.02,0.991,0.061,0.122,0.122,0.483,-2.961,-103.755
 14:14:50.810,eb:33:2e:f9:57:b5, 2085-97-105 00:38:00:2030,0.05,0.019,0.991,0,0.061,0.183,0.483,-2.961,-103.755
 14:14:50.810,eb:33:2e:f9:57:b5, 2085-97-103 00:39:00:2030,0.051,0.02,0.991,0,0.122,0.183,0.483,-2.961,-103.755
 14:14:50.810,eb:33:2e:f9:57:b5, 2085-97-106 00:41:00:2031,0.053,0.02,0.991,0.061,0.061,0.122,0.483,-2.961,-103.755
 14:14:50.810,eb:33:2e:f9:57:b5, 2085-97-100 00:38:00:2031,0.048,0.02,0.993,0.122,0.244,0.183,0.483,-2.961,-103.755
 14:14:50.839,eb:33:2e:f9:57:b5, 2085-97-98 00:43:00:2027,0.049,0.021,0.989,0,0.244,0.366,0.483,-2.961,-103.755
 14:14:50.839,eb:33:2e:f9:57:b5, 2085-97-104 00:39:00:2032,0.051,0.019,0.991,0,0,0.183,0.483,-2.961,-103.755
 14:14:50.839,eb:33:2e:f9:57:b5, 2085-97-103 00:41:00:2030,0.052,0.02,0.992,0,0.244,0.183,0.483,-2.961,-103.755
 14:14:50.839,eb:33:2e:f9:57:b5, 2085-97-106 00:39:00:2030,0.051,0.02,0.991,0,0.061,0,0.483,-2.961,-103.755
 14:14:50.870,eb:33:2e:f9:57:b5, 2085-97-104 00:39:00:2028,0.049,0.019,0.992,0,0.061,0,0.483,-2.961,-103.755
 14:14:50.870,eb:33:2e:f9:57:b5, 2085-97-99 00:41:00:2027,0.05,0.02,0.991,0,0.122,0.061,0.483,-2.961,-103.755
 14:14:50.870,eb:33:2e:f9:57:b5, 2085-97-105 00:40:00:2031,0.05,0.02,0.992,0,-0.061,0.122,0.483,-2.961,-103.755
 14:14:50.870,eb:33:2e:f9:57:b5, 2085-97-109 00:43:00:2031,0.054,0.019,0.992,0,0.061,0.183,0.483,-2.961,-103.755
 14:14:50.931,eb:33:2e:f9:57:b5, 2085-97-108 00:38:00:2034,0.051,0.019,0.994,0,0.183,0.061,0.483,-2.961,-103.755
 14:14:50.931,eb:33:2e:f9:57:b5, 2085-97-100 00:41:00:2028,0.048,0.019,0.992,0.061,0.427,0.183,0.483,-2.961,-103.755
 14:14:50.931,eb:33:2e:f9:57:b5, 2085-97-102 00:39:00:2029,0.05,0.019,0.991,0.061,0.244,0.183,0.483,-2.961,-103.755
 14:14:50.931,eb:33:2e:f9:57:b5, 2085-97-103 00:39:00:2030,0.05,0.02,0.991,0.061,0.183,0.061,0.483,-2.961,-103.755
 14:14:50.931,eb:33:2e:f9:57:b5, 2085-97-104 00:39:00:2028,0.05,0.02,0.991,0,0.183,0.122,0.483,-2.961,-103.755
 14:14:50.961,eb:33:2e:f9:57:b5, 2085-113-58 00:225:226:-1740,0.05,0.019,0.991,0,0.122,0.122,0.483,-2.961,-103.755
 14:14:50.961,eb:33:2e:f9:57:b5, 2085-97-98 00:39:00:2026,0.047,0.019,0.991,-0.061,0.244,0.183,0.483,-2.961,-103.755
 14:14:50.961,eb:33:2e:f9:57:b5, 2085-97-104 00:44:00:2027,0.055,0.02,0.989,-0.122,0,0.305,0.478,-2.961,-103.755
 14:14:50.961,eb:33:2e:f9:57:b5, 2085-97-111 00:42:00:2036,0.052,0.021,0.995,0,0,0.061,0.478,-2.961,-103.755
 14:14:50.990,eb:33:2e:f9:57:b5, 2085-97-101 00:39:00:2028,0.049,0.021,0.993,0,0.366,0.122,0.478,-2.961,-103.755
 14:14:50.990,eb:33:2e:f9:57:b5, 2085-97-102 00:42:00:2030,0.05,0.021,0.99,0,0.183,0.061,0.478,-2.961,-103.755
 14:14:50.991,eb:33:2e:f9:57:b5, 2085-97-103 00:41:00:2031,0.05,0.021,0.991,0,0,-0.061,0.478,-2.955,-103.755
 14:14:50.991,eb:33:2e:f9:57:b5, 2085-97-102 00:39:00:2029,0.05,0.02,0.992,0,0,-0.122,0.478,-2.955,-103.755
 14:14:51.049,eb:33:2e:f9:57:b5, 2085-97-102 00:39:00:2029,0.049,0.019,0.991,0,0,-0.061,0.478,-2.955,-103.755
 14:14:51.049,eb:33:2e:f9:57:b5, 2085-97-101 00:40:00:2029,0.049,0.019,0.991,0,0,0,0.478,-2.955,-103.755
 14:14:51.049,eb:33:2e:f9:57:b5, 2085-97-102 00:42:00:2030,0.051,0.02,0.991,-0.061,-0.061,0,0.478,-2.955,-103.755
 14:14:51.049,eb:33:2e:f9:57:b5, 2085-97-103 00:40:00:2030,0.05,0.02,0.992,-0.061,-0.061,0,0.478,-2.955,-103.755
 14:14:51.079,eb:33:2e:f9:57:b5, 2085-97-102 00:39:00:2030,0.051,0.02,0.992,-0.061,-0.061,-0.061,0.478,-2.955,-103.755
 14:14:51.079,eb:33:2e:f9:57:b5, 2085-97-104 00:39:00:2032,0.051,0.019,0.992,-0.061,-0.061,0,0.478,-2.955,-103.755
 14:14:51.079,eb:33:2e:f9:57:b5, 2085-97-103 00:41:00:2032,0.05,0.02,0.993,0,0,0,0.478,-2.955,-103.755
 14:14:51.079,eb:33:2e:f9:57:b5, 2085-97-103 00:41:00:2029,0.05,0.02,0.992,0,0,0,0.478,-2.955,-103.755
 14:14:51.109,eb:33:2e:f9:57:b5, 2085-97-103 00:41:00:2030,0.05,0.02,0.991,0,0,0,0.478,-2.955,-103.755
 14:14:51.109,eb:33:2e:f9:57:b5, 2085-97-102 00:41:00:2031,0.05,0.02,0.992,0,0,0,0.478,-2.955,-103.755
 14:14:51.109,eb:33:2e:f9:57:b5, 2085-97-102 00:40:00:2030,0.05,0.02,0.991,0,0,0,0.478,-2.955,-103.755
 14:14:51.109,eb:33:2e:f9:57:b5, 2085-97-104 00:40:00:2031,0.05,0.02,0.991,0,-0.122,-0.061,0.478,-2.955,-103.755
 14:14:51.171,eb:33:2e:f9:57:b5, 2085-97-104 00:39:00:2029,0.051,0.019,0.992,0,-0.061,-0.061,0.478,-2.955,-103.755
 14:14:51.171,eb:33:2e:f9:57:b5, 2085-97-103 00:39:00:2029,0.05,0.019,0.991,0,0,0,0.478,-2.955,-103.755
 14:14:51.171,eb:33:2e:f9:57:b5, 2085-97-103 00:41:00:2030,0.051,0.02,0.991,0,0,0,0.478,-2.955,-103.755
 14:14:51.171,eb:33:2e:f9:57:b5, 2085-97-103 00:40:00:2029,0.05,0.02,0.991,0,0,0.061,0.478,-2.955,-103.755
 14:14:51.200,eb:33:2e:f9:57:b5, 2085-97-103 00:43:00:2029,0.05,0.021,0.991,0,0,0.122,0.478,-2.955,-103.755
 14:14:51.200,eb:33:2e:f9:57:b5, 2085-97-103 00:41:00:2029,0.05,0.021,0.991,0,0,0.061,0.478,-2.955,-103.755
 14:14:51.200,eb:33:2e:f9:57:b5, 2085-97-105 00:42:00:2030,0.051,0.021,0.992,0,-0.061,0,0.478,-2.955,-103.755
 14:14:51.200,eb:33:2e:f9:57:b5, 2085-97-104 00:41:00:2029,0.051,0.02,0.991,0,-0.061,0,0.478,-2.955,-103.755
 14:14:51.231,eb:33:2e:f9:57:b5, 2085-97-104 00:42:00:2031,0.051,0.02,0.991,0,0,0,0.478,-2.955,-103.755
 14:14:51.231,eb:33:2e:f9:57:b5, 2085-97-104 00:41:00:2029,0.05,0.02,0.992,0,0,0,0.478,-2.955,-103.755
 14:14:51.231,eb:33:2e:f9:57:b5, 2085-97-103 00:40:00:2030,0.05,0.021,0.991,0,0,0,0.478,-2.955,-103.755
 14:14:51.231,eb:33:2e:f9:57:b5, 2085-97-101 00:39:00:2029,0.05,0.02,0.992,-0.061,0,0,0.478,-2.955,-103.755
 14:14:51.291,eb:33:2e:f9:57:b5, 2085-97-104 00:40:00:2029,0.051,0.02,0.99,0,-0.061,0,0.478,-2.955,-103.755
 14:14:51.291,eb:33:2e:f9:57:b5, 2085-97-104 00:41:00:2029,0.051,0.02,0.99,-0.061,-0.122,0,0.478,-2.955,-103.755
 14:14:51.291,eb:33:2e:f9:57:b5, 2085-97-105 00:40:00:2032,0.051,0.019,0.992,0,-0.061,-0.061,0.478,-2.955,-103.755
 14:14:51.291,eb:33:2e:f9:57:b5, 2085-97-106 00:40:00:2030,0.052,0.019,0.991,0,0,0,0.478,-2.955,-103.755
 14:14:51.320,eb:33:2e:f9:57:b5, 2085-97-106 00:39:00:2030,0.051,0.019,0.991,0,-0.061,0,0.478,-2.955,-103.755
 14:14:51.320,eb:33:2e:f9:57:b5, 2085-97-103 00:39:00:2030,0.051,0.019,0.992,0,0,0.061,0.478,-2.955,-103.755
 14:14:51.320,eb:33:2e:f9:57:b5, 2085-97-104 00:40:00:2030,0.051,0.021,0.992,0,0.061,0.122,0.478,-2.955,-103.755
 14:14:51.320,eb:33:2e:f9:57:b5, 2085-97-104 00:40:00:2029,0.05,0.021,0.992,0,0,0.183,0.478,-2.955,-103.755
 14:14:51.349,eb:33:2e:f9:57:b5, 2085-97-104 00:41:00:2030,0.051,0.021,0.991,0,0,0.183,0.478,-2.955,-103.755
 14:14:51.349,eb:33:2e:f9:57:b5, 2085-97-104 00:41:00:2030,0.05,0.02,0.991,0,0.061,0.183,0.478,-2.955,-103.755
 14:14:51.349,eb:33:2e:f9:57:b5, 2085-97-104 00:43:00:2030,0.051,0.021,0.992,0,0.061,0.183,0.478,-2.955,-103.755
 14:14:51.349,eb:33:2e:f9:57:b5, 2085-97-104 00:41:00:2031,0.051,0.021,0.992,0,0,0.183,0.478,-2.955,-103.755
 14:14:51.439,eb:33:2e:f9:57:b5, 2085-97-104 00:42:00:2031,0.051,0.02,0.991,0,0.061,0.122,0.478,-2.955,-103.755
 14:14:51.439,eb:33:2e:f9:57:b5, 2085-97-105 00:40:00:2030,0.051,0.02,0.992,0,0,0.061,0.478,-2.955,-103.755
 14:14:51.439,eb:33:2e:f9:57:b5, 2085-97-105 00:41:00:2030,0.051,0.021,0.991,0,0.061,0.122,0.478,-2.955,-103.755
 14:14:51.439,eb:33:2e:f9:57:b5, 2085-97-104 00:40:00:2030,0.051,0.019,0.991,0,0.061,0.122,0.478,-2.955,-103.755
 14:14:51.442,eb:33:2e:f9:57:b5, 2085-97-103 00:41:00:2029,0.05,0.021,0.991,0,0.061,0.122,0.478,-2.955,-103.755
 14:14:51.442,eb:33:2e:f9:57:b5, 2085-97-104 00:41:00:2030,0.051,0.019,0.992,0,0.061,0.061,0.478,-2.955,-103.755
 14:14:51.442,eb:33:2e:f9:57:b5, 2085-97-105 00:41:00:2032,0.051,0.02,0.992,0,0.061,0.061,0.478,-2.955,-103.755
 14:14:51.442,eb:33:2e:f9:57:b5, 2085-97-103 00:41:00:2030,0.051,0.02,0.991,0,0.061,0.061,0.478,-2.955,-103.755
 14:14:51.471,eb:33:2e:f9:57:b5, 2085-97-104 00:40:00:2030,0.05,0.021,0.991,0,0,0.061,0.478,-2.955,-103.755
 14:14:51.471,eb:33:2e:f9:57:b5, 2085-97-103 00:40:00:2029,0.05,0.02,0.991,0,0.061,0,0.478,-2.955,-103.755
 14:14:51.471,eb:33:2e:f9:57:b5, 2085-97-102 00:42:00:2031,0.05,0.02,0.992,-0.061,0.061,0.061,0.478,-2.955,-103.755
 14:14:51.471,eb:33:2e:f9:57:b5, 2085-97-103 00:40:00:2031,0.05,0.02,0.992,-0.061,0.061,0.061,0.478,-2.955,-103.755
 14:14:51.530,eb:33:2e:f9:57:b5, 2085-97-104 00:39:00:2030,0.051,0.019,0.991,0,0.061,0.183,0.478,-2.95,-103.755
 14:14:51.530,eb:33:2e:f9:57:b5, 2085-113-58 00:181:225:-2055,0.05,0.02,0.991,-0.061,0.061,0.183,0.478,-2.95,-103.755
 14:14:51.530,eb:33:2e:f9:57:b5, 2085-97-102 00:40:00:2029,0.05,0.02,0.991,0,0,0.122,0.478,-2.95,-103.755
 14:14:51.530,eb:33:2e:f9:57:b5, 2085-97-104 00:42:00:2032,0.051,0.02,0.991,-0.061,0,0.183,0.478,-2.95,-103.755
 14:14:51.561,eb:33:2e:f9:57:b5, 2085-97-104 00:38:00:2030,0.051,0.02,0.992,-0.061,0.122,0.305,0.478,-2.95,-103.755
 14:14:51.561,eb:33:2e:f9:57:b5, 2085-97-104 00:41:00:2031,0.051,0.019,0.991,-0.061,0.244,0.305,0.478,-2.95,-103.755
 14:14:51.561,eb:33:2e:f9:57:b5, 2085-97-103 00:43:00:2030,0.05,0.021,0.992,-0.061,0.244,0.366,0.472,-2.95,-103.755
 14:14:51.561,eb:33:2e:f9:57:b5, 2085-97-105 00:42:00:2031,0.05,0.02,0.991,-0.061,0.183,0.366,0.472,-2.95,-103.755
 14:14:51.591,eb:33:2e:f9:57:b5, 2085-97-102 00:41:00:2029,0.051,0.02,0.991,-0.061,0.183,0.183,0.472,-2.95,-103.755
 14:14:51.591,eb:33:2e:f9:57:b5, 2085-97-105 00:39:00:2029,0.051,0.02,0.991,0,0.122,0.122,0.472,-2.95,-103.755
 14:14:51.591,eb:33:2e:f9:57:b5, 2085-97-103 00:39:00:2031,0.05,0.019,0.992,0,0.183,0.122,0.472,-2.95,-103.755
 14:14:51.591,eb:33:2e:f9:57:b5, 2085-97-103 00:40:00:2029,0.05,0.02,0.992,0,0.122,0.061,0.472,-2.95,-103.755
 14:14:51.650,eb:33:2e:f9:57:b5, 2085-97-103 00:39:00:2029,0.05,0.021,0.991,0,0.183,0,0.472,-2.95,-103.755
 14:14:51.650,eb:33:2e:f9:57:b5, 2085-97-101 00:39:00:2029,0.049,0.019,0.991,0,0.061,0,0.472,-2.95,-103.755
 14:14:51.650,eb:33:2e:f9:57:b5, 2085-97-101 00:41:00:2029,0.049,0.02,0.991,-0.061,0.061,0.061,0.472,-2.95,-103.755
 14:14:51.650,eb:33:2e:f9:57:b5, 2085-97-102 00:38:00:2029,0.05,0.02,0.991,-0.122,0,0.061,0.472,-2.95,-103.755
 14:14:51.679,eb:33:2e:f9:57:b5, 2085-97-102 00:39:00:2028,0.05,0.02,0.991,-0.061,-0.061,0.061,0.472,-2.95,-103.755
 14:14:51.679,eb:33:2e:f9:57:b5, 2085-97-104 00:39:00:2030,0.051,0.02,0.99,-0.061,-0.061,0,0.472,-2.95,-103.76
 14:14:51.679,eb:33:2e:f9:57:b5, 2085-97-105 00:40:00:2030,0.051,0.019,0.991,-0.061,-0.061,0,0.472,-2.95,-103.76
 14:14:51.679,eb:33:2e:f9:57:b5, 2085-97-106 00:40:00:2032,0.051,0.02,0.992,0,0,-0.061,0.472,-2.95,-103.76
 14:14:51.740,eb:33:2e:f9:57:b5, 2085-97-105 00:41:00:2031,0.051,0.02,0.992,0,0,-0.183,0.472,-2.95,-103.76
 14:14:51.740,eb:33:2e:f9:57:b5, 2085-97-103 00:41:00:2030,0.05,0.02,0.992,0,0.122,-0.122,0.472,-2.95,-103.76
 14:14:51.740,eb:33:2e:f9:57:b5, 2085-97-104 00:39:00:2031,0.051,0.019,0.991,0,0,-0.061,0.472,-2.95,-103.76
 14:14:51.740,eb:33:2e:f9:57:b5, 2085-97-106 00:38:00:2030,0.051,0.02,0.991,0,0.122,0,0.472,-2.95,-103.76
 14:14:51.769,eb:33:2e:f9:57:b5, 2085-97-103 00:40:00:2028,0.049,0.019,0.99,0,0.122,0,0.472,-2.95,-103.76
 14:14:51.769,eb:33:2e:f9:57:b5, 2085-97-100 00:41:00:2028,0.05,0.02,0.99,0.061,0.122,-0.061,0.472,-2.95,-103.76
 14:14:51.769,eb:33:2e:f9:57:b5, 2085-97-102 00:39:00:2030,0.05,0.02,0.99,0.061,0,-0.122,0.472,-2.95,-103.76
 14:14:51.769,eb:33:2e:f9:57:b5, 2085-97-102 00:40:00:2029,0.05,0.019,0.991,0,0,-0.122,0.472,-2.95,-103.76
 14:14:51.857,eb:33:2e:f9:57:b5, 2085-97-103 00:39:00:2031,0.05,0.02,0.991,0,-0.061,-0.061,0.472,-2.95,-103.76
 14:14:51.857,eb:33:2e:f9:57:b5, 2085-97-101 00:40:00:2031,0.049,0.02,0.991,0,0,0,0.472,-2.95,-103.76
 14:14:51.857,eb:33:2e:f9:57:b5, 2085-97-102 00:42:00:2032,0.05,0.019,0.992,0,0,0,0.472,-2.95,-103.76
 14:14:51.858,eb:33:2e:f9:57:b5, 2085-97-103 00:40:00:2030,0.05,0.02,0.991,0,0,0.061,0.472,-2.95,-103.76
 14:14:51.860,eb:33:2e:f9:57:b5, 2085-97-104 00:41:00:2031,0.051,0.02,0.991,0,0.061,0.061,0.472,-2.95,-103.76
 14:14:51.860,eb:33:2e:f9:57:b5, 2085-97-104 00:40:00:2031,0.05,0.02,0.992,0,0.061,0.061,0.472,-2.95,-103.76
 14:14:51.860,eb:33:2e:f9:57:b5, 2085-97-102 00:42:00:2031,0.049,0.02,0.992,0,0.061,0,0.472,-2.95,-103.76
 14:14:51.860,eb:33:2e:f9:57:b5, 2085-97-101 00:41:00:2029,0.049,0.019,0.991,0.061,0.122,0.061,0.472,-2.95,-103.76
 14:14:51.890,eb:33:2e:f9:57:b5, 2085-97-103 00:41:00:2028,0.05,0.02,0.99,0.061,0.061,0.061,0.472,-2.95,-103.76
 14:14:51.890,eb:33:2e:f9:57:b5, 2085-97-103 00:43:00:2031,0.051,0.02,0.991,0.061,0,0,0.472,-2.95,-103.76
 14:14:51.890,eb:33:2e:f9:57:b5, 2085-97-103 00:40:00:2029,0.05,0.021,0.991,0,0.061,0,0.472,-2.95,-103.76
 14:14:51.890,eb:33:2e:f9:57:b5, 2085-97-101 00:40:00:2030,0.05,0.021,0.991,0.061,0,-0.122,0.472,-2.95,-103.76
 14:14:51.921,eb:33:2e:f9:57:b5, 2085-97-103 00:41:00:2031,0.05,0.019,0.991,0,0,0,0.472,-2.95,-103.76
 14:14:51.921,eb:33:2e:f9:57:b5, 2085-97-104 00:40:00:2030,0.05,0.019,0.991,0.061,-0.061,-0.061,0.472,-2.95,-103.76
 14:14:51.921,eb:33:2e:f9:57:b5, 2085-97-103 00:40:00:2030,0.05,0.02,0.992,0,0,-0.061,0.472,-2.944,-103.76
 14:14:51.921,eb:33:2e:f9:57:b5, 2085-97-103 00:39:00:2030,0.05,0.019,0.991,0,-0.061,-0.061,0.472,-2.944,-103.76
 14:14:51.950,eb:33:2e:f9:57:b5, 2085-97-103 00:40:00:2029,0.051,0.02,0.991,0,0,-0.061,0.472,-2.944,-103.76
 14:14:51.950,eb:33:2e:f9:57:b5, 2085-97-104 00:41:00:2030,0.05,0.02,0.991,0,0,0,0.472,-2.944,-103.76
 14:14:51.950,eb:33:2e:f9:57:b5, 2085-97-103 00:41:00:2031,0.05,0.021,0.992,0,0,0,0.472,-2.944,-103.76
 14:14:51.950,eb:33:2e:f9:57:b5, 2085-97-104 00:42:00:2031,0.051,0.02,0.992,0,0,0,0.472,-2.944,-103.76
 14:14:52.010,eb:33:2e:f9:57:b5, 2085-97-104 00:40:00:2030,0.05,0.02,0.991,0,0.061,0.061,0.472,-2.944,-103.76
 14:14:52.010,eb:33:2e:f9:57:b5, 2085-97-104 00:38:00:2031,0.05,0.02,0.992,0.061,0,0.122,0.472,-2.944,-103.76
 14:14:52.010,eb:33:2e:f9:57:b5, 2085-97-102 00:41:00:2030,0.05,0.019,0.992,0,0,0.122,0.472,-2.944,-103.76
 14:14:52.010,eb:33:2e:f9:57:b5, 2085-97-103 00:41:00:2029,0.05,0.02,0.992,0,0.183,0.183,0.472,-2.944,-103.76
 14:14:52.040,eb:33:2e:f9:57:b5, 2085-97-103 00:41:00:2031,0.05,0.021,0.992,0,0.122,0.183,0.472,-2.944,-103.76
 14:14:52.040,eb:33:2e:f9:57:b5, 2085-97-104 00:40:00:2031,0.051,0.02,0.991,0,0,0.183,0.472,-2.944,-103.76
 14:14:52.040,eb:33:2e:f9:57:b5, 2085-97-104 00:43:00:2030,0.05,0.021,0.992,0,0.183,0.183,0.472,-2.944,-103.76
 14:14:52.040,eb:33:2e:f9:57:b5, 2085-97-103 00:42:00:2030,0.05,0.02,0.991,0,0.122,0.122,0.472,-2.944,-103.76
 14:14:52.070,eb:33:2e:f9:57:b5, 2085-97-103 00:43:00:2030,0.05,0.021,0.992,0,0.122,0.183,0.472,-2.944,-103.76
 14:14:52.070,eb:33:2e:f9:57:b5, 2085-97-101 00:42:00:2029,0.049,0.021,0.991,0,0.122,0.122,0.472,-2.944,-103.76
 14:14:52.070,eb:33:2e:f9:57:b5, 2085-97-101 00:42:00:2027,0.049,0.021,0.991,-0.122,0.061,0.183,0.472,-2.944,-103.76
 14:14:52.070,eb:33:2e:f9:57:b5, 2085-97-102 00:44:00:2028,0.054,0.021,0.99,-0.061,-0.061,0.122,0.472,-2.944,-103.76
 14:14:52.130,eb:33:2e:f9:57:b5, 2085-97-112 00:41:00:2035,0.053,0.02,0.996,0,0,0,0.472,-2.944,-103.76
 14:14:52.130,eb:33:2e:f9:57:b5, 2085-97-103 00:41:00:2029,0.049,0.02,0.994,0.061,0.366,0,0.472,-2.944,-103.76
 14:14:52.130,eb:33:2e:f9:57:b5, 2085-97-99 00:40:00:2026,0.05,0.021,0.99,0,0.061,0,0.472,-2.944,-103.76
 14:14:52.130,eb:33:2e:f9:57:b5, 2085-97-103 00:40:00:2032,0.05,0.02,0.991,0,0,0,0.472,-2.944,-103.76
 14:14:52.159,eb:33:2e:f9:57:b5, 2085-97-102 00:42:00:2029,0.05,0.02,0.992,-0.061,0.122,0,0.472,-2.944,-103.76
 14:14:52.159,eb:33:2e:f9:57:b5, 2085-97-101 00:40:00:2028,0.049,0.02,0.991,0,0.061,0.061,0.472,-2.944,-103.76
 14:14:52.159,eb:33:2e:f9:57:b5, 2085-97-101 00:41:00:2029,0.049,0.02,0.99,0,0,0.061,0.472,-2.944,-103.76
 14:14:52.159,eb:33:2e:f9:57:b5, 2085-97-103 00:40:00:2030,0.05,0.02,0.991,0,-0.061,0,0.472,-2.944,-103.76
 14:14:52.220,eb:33:2e:f9:57:b5, 2085-97-103 00:40:00:2030,0.05,0.02,0.991,-0.061,-0.061,0,0.472,-2.944,-103.76
 14:14:52.220,eb:33:2e:f9:57:b5, 2085-97-102 00:39:00:2031,0.051,0.021,0.991,-0.061,0,0,0.472,-2.944,-103.76
 14:14:52.220,eb:33:2e:f9:57:b5, 2085-97-104 00:42:00:2029,0.051,0.02,0.991,0,-0.122,0,0.472,-2.944,-103.76
 14:14:52.220,eb:33:2e:f9:57:b5, 2085-97-104 00:40:00:2032,0.05,0.02,0.991,0,-0.122,-0.061,0.472,-2.944,-103.76
 14:14:52.250,eb:33:2e:f9:57:b5, 2085-97-103 00:40:00:2031,0.051,0.02,0.992,-0.061,-0.122,0,0.472,-2.944,-103.76
 14:14:52.250,eb:33:2e:f9:57:b5, 2085-97-104 00:39:00:2030,0.05,0.019,0.992,-0.061,-0.061,0,0.472,-2.944,-103.76
 14:14:52.251,eb:33:2e:f9:57:b5, 2085-97-103 00:42:00:2031,0.05,0.02,0.992,0,0,0,0.467,-2.944,-103.76
 14:14:52.251,eb:33:2e:f9:57:b5, 2085-97-104 00:39:00:2031,0.05,0.02,0.992,0,-0.061,0,0.467,-2.944,-103.76
 14:14:52.280,eb:33:2e:f9:57:b5, 2085-97-105 00:41:00:2032,0.051,0.02,0.992,0.061,-0.061,0,0.467,-2.944,-103.76
 14:14:52.280,eb:33:2e:f9:57:b5, 2085-97-104 00:39:00:2030,0.05,0.02,0.992,0.061,0,0,0.467,-2.944,-103.76
 14:14:52.280,eb:33:2e:f9:57:b5, 2085-97-103 00:40:00:2031,0.049,0.02,0.992,0.061,0.122,0.122,0.467,-2.944,-103.76
 14:14:52.280,eb:33:2e:f9:57:b5, 2085-97-104 00:39:00:2030,0.051,0.02,0.991,0.061,0.122,0.305,0.467,-2.944,-103.76
 14:14:52.339,eb:33:2e:f9:57:b5, 2085-97-103 00:40:00:2029,0.05,0.02,0.992,0.061,0.122,0.305,0.467,-2.944,-103.76
 14:14:52.339,eb:33:2e:f9:57:b5, 2085-97-101 00:42:00:2028,0.05,0.021,0.991,0.061,0.122,0.305,0.467,-2.944,-103.76
 14:14:52.339,eb:33:2e:f9:57:b5, 2085-97-103 00:41:00:2029,0.051,0.02,0.991,0,0.061,0.244,0.467,-2.944,-103.76
 14:14:52.339,eb:33:2e:f9:57:b5, 2085-97-104 00:42:00:2028,0.05,0.021,0.991,0,0.061,0.183,0.467,-2.944,-103.76
 14:14:52.370,eb:33:2e:f9:57:b5, 2085-97-103 00:41:00:2029,0.051,0.02,0.991,0,0.061,0.061,0.467,-2.944,-103.76
 14:14:52.370,eb:33:2e:f9:57:b5, 2085-97-103 00:42:00:2030,0.051,0.02,0.991,0,0.061,0.122,0.467,-2.944,-103.76
 14:14:52.370,eb:33:2e:f9:57:b5, 2085-97-103 00:41:00:2029,0.05,0.02,0.99,0,0,0,0.467,-2.944,-103.76
 14:14:52.370,eb:33:2e:f9:57:b5, 2085-97-102 00:41:00:2030,0.05,0.02,0.991,0,-0.061,0,0.467,-2.944,-103.76
 14:14:52.401,eb:33:2e:f9:57:b5, 2085-97-102 00:41:00:2030,0.05,0.02,0.99,0,-0.061,0,0.467,-2.944,-103.76
 14:14:52.401,eb:33:2e:f9:57:b5, 2085-97-103 00:40:00:2030,0.051,0.02,0.991,-0.061,0,0,0.467,-2.944,-103.76
 14:14:52.401,eb:33:2e:f9:57:b5, 2085-97-104 00:40:00:2029,0.051,0.02,0.991,-0.061,-0.061,0,0.467,-2.939,-103.76
 14:14:52.401,eb:33:2e:f9:57:b5, 2085-97-104 00:43:00:2031,0.051,0.021,0.992,-0.122,-0.061,0,0.467,-2.939,-103.76
 14:14:52.489,eb:33:2e:f9:57:b5, 2085-97-105 00:41:00:2031,0.051,0.021,0.991,-0.061,-0.061,0,0.467,-2.939,-103.76
 14:14:52.489,eb:33:2e:f9:57:b5, 2085-97-104 00:41:00:2030,0.051,0.021,0.991,0,-0.061,-0.061,0.467,-2.939,-103.76
 14:14:52.489,eb:33:2e:f9:57:b5, 2085-113-58 00:165:226:-1815,0.051,0.02,0.991,0,-0.061,-0.122,0.467,-2.939,-103.76
 14:14:52.489,eb:33:2e:f9:57:b5, 2085-97-105 00:41:00:2030,0.05,0.02,0.991,0,-0.061,-0.244,0.467,-2.939,-103.76
 14:14:52.489,eb:33:2e:f9:57:b5, 2085-97-105 00:41:00:2032,0.051,0.02,0.991,0,-0.183,-0.305,0.467,-2.939,-103.76
 14:14:52.492,eb:33:2e:f9:57:b5, 2085-97-105 00:39:00:2031,0.051,0.02,0.991,0.122,-0.061,-0.305,0.467,-2.939,-103.76
 14:14:52.492,eb:33:2e:f9:57:b5, 2085-97-104 00:40:00:2027,0.05,0.019,0.991,0.122,0,-0.183,0.467,-2.939,-103.76
 14:14:52.492,eb:33:2e:f9:57:b5, 2085-97-100 00:41:00:2029,0.05,0.021,0.991,0.061,0,-0.061,0.467,-2.939,-103.76
 14:14:52.492,eb:33:2e:f9:57:b5, 2085-97-103 00:41:00:2029,0.051,0.02,0.991,0.061,0,-0.061,0.467,-2.939,-103.76
 14:14:52.520,eb:33:2e:f9:57:b5, 2085-97-104 00:41:00:2030,0.051,0.02,0.991,0.061,0,0,0.467,-2.939,-103.76
 14:14:52.520,eb:33:2e:f9:57:b5, 2085-97-103 00:41:00:2030,0.051,0.021,0.991,0,0,0.122,0.467,-2.939,-103.76
 14:14:52.521,eb:33:2e:f9:57:b5, 2085-97-106 00:41:00:2030,0.051,0.02,0.991,0,0,0.061,0.467,-2.939,-103.76
 14:14:52.521,eb:33:2e:f9:57:b5, 2085-97-103 00:42:00:2030,0.051,0.021,0.991,0,0,0.061,0.467,-2.939,-103.76
 14:14:52.579,eb:33:2e:f9:57:b5, 2085-97-104 00:43:00:2029,0.051,0.021,0.99,0,0,0,0.467,-2.939,-103.76
 14:14:52.579,eb:33:2e:f9:57:b5, 2085-97-103 00:41:00:2030,0.05,0.02,0.991,0,0,0,0.467,-2.939,-103.76
 14:14:52.579,eb:33:2e:f9:57:b5, 2085-97-102 00:40:00:2029,0.05,0.021,0.991,0,0,0,0.467,-2.939,-103.76
 14:14:52.579,eb:33:2e:f9:57:b5, 2085-97-103 00:41:00:2030,0.051,0.02,0.991,0,0,0.061,0.467,-2.939,-103.76
 14:14:52.609,eb:33:2e:f9:57:b5, 2085-97-106 00:40:00:2031,0.051,0.021,0.992,-0.061,-0.122,0,0.467,-2.939,-103.76
 14:14:52.609,eb:33:2e:f9:57:b5, 2085-97-105 00:41:00:2029,0.05,0.02,0.991,0,0,-0.061,0.467,-2.939,-103.76
 14:14:52.609,eb:33:2e:f9:57:b5, 2085-97-102 00:39:00:2030,0.05,0.02,0.99,0.061,-0.122,-0.183,0.467,-2.939,-103.76
 14:14:52.609,eb:33:2e:f9:57:b5, 2085-97-103 00:41:00:2031,0.051,0.02,0.991,0,-0.183,-0.122,0.467,-2.939,-103.76
 14:14:52.640,eb:33:2e:f9:57:b5, 2085-97-105 00:41:00:2032,0.051,0.02,0.991,0,-0.122,-0.061,0.467,-2.939,-103.76
 14:14:52.640,eb:33:2e:f9:57:b5, 2085-97-103 00:40:00:2030,0.05,0.021,0.992,0,-0.061,-0.061,0.467,-2.939,-103.76
 14:14:52.640,eb:33:2e:f9:57:b5, 2085-97-103 00:41:00:2027,0.05,0.021,0.991,0,0,-0.061,0.467,-2.939,-103.76
 14:14:52.640,eb:33:2e:f9:57:b5, 2085-97-105 00:41:00:2030,0.052,0.021,0.99,0,-0.183,-0.122,0.467,-2.939,-103.76
 14:14:52.700,eb:33:2e:f9:57:b5, 2085-97-106 00:42:00:2030,0.051,0.019,0.991,0,-0.122,-0.122,0.467,-2.939,-103.76
 14:14:52.700,eb:33:2e:f9:57:b5, 2085-97-104 00:42:00:2029,0.051,0.02,0.99,0,-0.122,-0.122,0.467,-2.939,-103.76
 14:14:52.700,eb:33:2e:f9:57:b5, 2085-97-103 00:42:00:2028,0.051,0.021,0.991,0,-0.122,-0.122,0.467,-2.939,-103.76
 14:14:52.700,eb:33:2e:f9:57:b5, 2085-97-105 00:41:00:2030,0.051,0.02,0.991,-0.061,-0.061,0,0.467,-2.939,-103.766
 14:14:52.729,eb:33:2e:f9:57:b5, 2085-97-106 00:43:00:2028,0.052,0.021,0.991,-0.061,-0.061,0,0.467,-2.939,-103.766
 14:14:52.729,eb:33:2e:f9:57:b5, 2085-97-103 00:41:00:2029,0.051,0.021,0.991,0,-0.061,0,0.467,-2.939,-103.766
 14:14:52.729,eb:33:2e:f9:57:b5, 2085-97-102 00:41:00:2029,0.051,0.021,0.991,-0.061,-0.122,0,0.467,-2.939,-103.766
 14:14:52.729,eb:33:2e:f9:57:b5, 2085-97-104 00:41:00:2028,0.051,0.02,0.991,-0.061,-0.122,-0.061,0.467,-2.939,-103.766
 14:14:52.760,eb:33:2e:f9:57:b5, 2085-97-104 00:40:00:2031,0.052,0.02,0.991,-0.122,-0.183,0,0.467,-2.939,-103.766
 14:14:52.760,eb:33:2e:f9:57:b5, 2085-97-105 00:42:00:2030,0.052,0.02,0.992,-0.061,-0.061,0,0.467,-2.939,-103.766
 14:14:52.760,eb:33:2e:f9:57:b5, 2085-97-108 00:40:00:2033,0.052,0.021,0.992,0,0,0,0.467,-2.939,-103.766
 14:14:52.760,eb:33:2e:f9:57:b5, 2085-97-106 00:42:00:2031,0.051,0.02,0.992,0,0.122,0,0.467,-2.939,-103.766
 14:14:52.821,eb:33:2e:f9:57:b5, 2085-97-103 00:41:00:2028,0.051,0.021,0.99,0.061,0.061,0.061,0.467,-2.939,-103.766
 14:14:52.821,eb:33:2e:f9:57:b5, 2085-97-106 00:42:00:2030,0.052,0.019,0.991,0.061,0.061,0.061,0.467,-2.939,-103.766
 14:14:52.821,eb:33:2e:f9:57:b5, 2085-97-104 00:42:00:2030,0.051,0.021,0.991,0,0,0,0.467,-2.939,-103.766
 14:14:52.821,eb:33:2e:f9:57:b5, 2085-97-107 00:42:00:2030,0.052,0.02,0.991,0.061,0,0,0.467,-2.939,-103.766
 14:14:52.850,eb:33:2e:f9:57:b5, 2085-97-103 00:41:00:2028,0.049,0.02,0.991,0.061,0.061,0,0.467,-2.939,-103.766
 14:14:52.850,eb:33:2e:f9:57:b5, 2085-97-99 00:41:00:2028,0.05,0.02,0.991,0,0,0.122,0.467,-2.939,-103.766
 14:14:52.850,eb:33:2e:f9:57:b5, 2085-97-102 00:40:00:2027,0.05,0.02,0.991,0,-0.061,0.122,0.467,-2.939,-103.766
 14:14:52.850,eb:33:2e:f9:57:b5, 2085-97-105 00:41:00:2028,0.052,0.019,0.99,-0.061,-0.122,0.122,0.467,-2.939,-103.766
 14:14:52.910,eb:33:2e:f9:57:b5, 2085-97-106 00:43:00:2030,0.052,0.021,0.992,-0.061,-0.061,0.122,0.467,-2.939,-103.766
 14:14:52.910,eb:33:2e:f9:57:b5, 2085-97-107 00:42:00:2031,0.053,0.021,0.991,-0.122,-0.122,0.061,0.467,-2.939,-103.766
 14:14:52.910,eb:33:2e:f9:57:b5, 2085-97-105 00:43:00:2032,0.052,0.021,0.992,-0.061,-0.061,0,0.467,-2.939,-103.766
 14:14:52.910,eb:33:2e:f9:57:b5, 2085-97-106 00:42:00:2030,0.052,0.021,0.991,-0.061,-0.061,0,0.467,-2.939,-103.766
 14:14:52.940,eb:33:2e:f9:57:b5, 2085-97-106 00:42:00:2030,0.051,0.021,0.991,0,-0.122,-0.061,0.467,-2.939,-103.766
 14:14:52.940,eb:33:2e:f9:57:b5, 2085-97-106 00:40:00:2031,0.051,0.019,0.992,0,-0.061,-0.061,0.467,-2.939,-103.766
 14:14:52.940,eb:33:2e:f9:57:b5, 2085-97-106 00:40:00:2030,0.052,0.019,0.991,0,-0.061,-0.061,0.467,-2.939,-103.766
 14:14:52.940,eb:33:2e:f9:57:b5, 2085-97-105 00:38:00:2030,0.05,0.019,0.992,0,0,0,0.467,-2.939,-103.766
 14:14:52.970,eb:33:2e:f9:57:b5, 2085-97-103 00:41:00:2030,0.051,0.02,0.991,0,0,0,0.467,-2.939,-103.766
 14:14:52.970,eb:33:2e:f9:57:b5, 2085-97-104 00:41:00:2029,0.051,0.02,0.99,0,0,0.183,0.467,-2.939,-103.766
 14:14:52.970,eb:33:2e:f9:57:b5, 2085-97-107 00:43:00:2031,0.052,0.02,0.991,0,0,0.122,0.467,-2.939,-103.766
 14:14:52.970,eb:33:2e:f9:57:b5, 2085-97-108 00:41:00:2030,0.052,0.02,0.992,0,0.061,0.244,0.467,-2.939,-103.766
 14:14:52.999,eb:33:2e:f9:57:b5, 2085-97-107 00:42:00:2030,0.052,0.02,0.993,0,0.122,0.244,0.467,-2.939,-103.766
 14:14:52.999,eb:33:2e:f9:57:b5, 2085-97-106 00:41:00:2028,0.051,0.021,0.99,0,0.061,0.183,0.467,-2.939,-103.766
 14:14:52.999,eb:33:2e:f9:57:b5, 2085-97-105 00:42:00:2028,0.051,0.021,0.991,0,0,0.061,0.467,-2.939,-103.766
 14:14:52.999,eb:33:2e:f9:57:b5, 2085-97-105 00:42:00:2031,0.052,0.021,0.991,0,0,0.061,0.467,-2.939,-103.766
 14:14:53.060,eb:33:2e:f9:57:b5, 2085-97-107 00:42:00:2031,0.051,0.02,0.992,0,0,0,0.467,-2.944,-103.766
 14:14:53.060,eb:33:2e:f9:57:b5, 2085-97-105 00:42:00:2028,0.05,0.02,0.991,0,0.061,0,0.467,-2.944,-103.766
 14:14:53.060,eb:33:2e:f9:57:b5, 2085-97-103 00:42:00:2029,0.051,0.02,0.991,0.061,0,0,0.467,-2.944,-103.766
 14:14:53.060,eb:33:2e:f9:57:b5, 2085-97-105 00:42:00:2030,0.051,0.02,0.991,0,0,0.122,0.467,-2.944,-103.766
 14:14:53.150,eb:33:2e:f9:57:b5, 2085-97-104 00:43:00:2029,0.051,0.021,0.991,0,0,0.061,0.467,-2.944,-103.766
 14:14:53.150,eb:33:2e:f9:57:b5, 2085-97-105 00:42:00:2030,0.052,0.021,0.991,0,0,0.183,0.467,-2.944,-103.766
 14:14:53.150,eb:33:2e:f9:57:b5, 2085-97-107 00:41:00:2030,0.051,0.02,0.992,0,0,0.061,0.467,-2.944,-103.766
 14:14:53.150,eb:33:2e:f9:57:b5, 2085-97-104 00:40:00:2029,0.05,0.02,0.992,0,0,0.061,0.467,-2.944,-103.766
 14:14:53.152,eb:33:2e:f9:57:b5, 2085-97-105 00:42:00:2029,0.052,0.021,0.99,0,0,0.122,0.467,-2.944,-103.766
 14:14:53.153,eb:33:2e:f9:57:b5, 2085-97-107 00:42:00:2030,0.051,0.021,0.991,0,0,0.061,0.467,-2.944,-103.766
 14:14:53.153,eb:33:2e:f9:57:b5, 2085-97-105 00:43:00:2028,0.051,0.021,0.992,0,0,0,0.467,-2.944,-103.766
 14:14:53.153,eb:33:2e:f9:57:b5, 2085-97-105 00:42:00:2030,0.052,0.02,0.99,-0.061,-0.061,0,0.467,-2.944,-103.766
 14:14:53.179,eb:33:2e:f9:57:b5, 2085-97-106 00:41:00:2029,0.052,0.021,0.992,-0.061,0,0,0.467,-2.944,-103.766
 14:14:53.179,eb:33:2e:f9:57:b5, 2085-97-106 00:40:00:2029,0.052,0.02,0.991,-0.061,0,0,0.467,-2.944,-103.766
 14:14:53.179,eb:33:2e:f9:57:b5, 2085-97-106 00:41:00:2030,0.052,0.021,0.991,-0.061,0,0,0.467,-2.944,-103.766
 14:14:53.180,eb:33:2e:f9:57:b5, 2085-97-108 00:40:00:2031,0.052,0.02,0.992,-0.061,0,0,0.467,-2.944,-103.766
 14:14:53.211,eb:33:2e:f9:57:b5, 2085-113-58 00:105:226:-2220,0.052,0.02,0.992,0,0.061,0,0.467,-2.944,-103.766
 14:14:53.211,eb:33:2e:f9:57:b5, 2085-97-106 00:40:00:2030,0.052,0.02,0.992,0,0,0,0.467,-2.944,-103.766
 14:14:53.211,eb:33:2e:f9:57:b5, 2085-97-105 00:43:00:2028,0.051,0.02,0.99,0,0,0,0.467,-2.944,-103.766
 14:14:53.211,eb:33:2e:f9:57:b5, 2085-97-105 00:42:00:2030,0.051,0.021,0.991,0,0,0,0.467,-2.944,-103.766
 14:14:53.241,eb:33:2e:f9:57:b5, 2085-97-105 00:40:00:2030,0.051,0.02,0.991,0,0,0,0.467,-2.944,-103.766
 14:14:53.241,eb:33:2e:f9:57:b5, 2085-97-106 00:42:00:2030,0.051,0.02,0.991,0.061,0,0,0.467,-2.944,-103.766
 14:14:53.241,eb:33:2e:f9:57:b5, 2085-97-105 00:39:00:2031,0.052,0.02,0.991,0,0,0,0.467,-2.944,-103.766
 14:14:53.241,eb:33:2e:f9:57:b5, 2085-97-106 00:41:00:2031,0.052,0.02,0.992,0.061,0,0,0.467,-2.944,-103.766
 14:14:53.303,eb:33:2e:f9:57:b5, 2085-97-105 00:42:00:2030,0.05,0.021,0.992,0,0,0,0.467,-2.944,-103.766
 14:14:53.303,eb:33:2e:f9:57:b5, 2085-97-106 00:43:00:2030,0.052,0.021,0.991,0,0,0,0.467,-2.944,-103.766
 14:14:53.303,eb:33:2e:f9:57:b5, 2085-97-106 00:42:00:2030,0.052,0.02,0.991,0,0.061,0,0.467,-2.944,-103.766
 14:14:53.303,eb:33:2e:f9:57:b5, 2085-97-108 00:42:00:2032,0.053,0.021,0.992,0,0.061,-0.061,0.467,-2.944,-103.766
 14:14:53.329,eb:33:2e:f9:57:b5, 2085-97-106 00:42:00:2029,0.051,0.02,0.992,0.061,0.122,-0.122,0.467,-2.944,-103.766
 14:14:53.329,eb:33:2e:f9:57:b5, 2085-97-104 00:41:00:2029,0.051,0.02,0.991,0.061,0.061,-0.061,0.467,-2.944,-103.766
 14:14:53.329,eb:33:2e:f9:57:b5, 2085-97-106 00:41:00:2030,0.052,0.02,0.991,0,0.061,0,0.467,-2.944,-103.766
 14:14:53.329,eb:33:2e:f9:57:b5, 2085-97-105 00:41:00:2028,0.052,0.02,0.991,0.061,0.061,0.061,0.467,-2.944,-103.766
 14:14:53.360,eb:33:2e:f9:57:b5, 2085-97-104 00:42:00:2029,0.052,0.021,0.992,0.061,0,0,0.467,-2.944,-103.766
 14:14:53.360,eb:33:2e:f9:57:b5, 2085-97-106 00:42:00:2032,0.052,0.021,0.991,0.061,0,0,0.467,-2.944,-103.766
 14:14:53.360,eb:33:2e:f9:57:b5, 2085-97-106 00:41:00:2031,0.051,0.02,0.992,0.122,0.061,0,0.467,-2.944,-103.766
 14:14:53.360,eb:33:2e:f9:57:b5, 2085-97-106 00:43:00:2030,0.052,0.021,0.992,0.061,0.122,0.061,0.467,-2.944,-103.766
 14:14:53.419,eb:33:2e:f9:57:b5, 2085-97-107 00:42:00:2032,0.052,0.02,0.991,0.122,0.122,0,0.467,-2.944,-103.766
 14:14:53.419,eb:33:2e:f9:57:b5, 2085-97-106 00:41:00:2031,0.051,0.021,0.992,0.061,0.244,0,0.467,-2.944,-103.766
 14:14:53.419,eb:33:2e:f9:57:b5, 2085-97-104 00:41:00:2028,0.051,0.021,0.991,0.061,0.183,0.061,0.467,-2.944,-103.766
 14:14:53.419,eb:33:2e:f9:57:b5, 2085-97-107 00:42:00:2031,0.052,0.021,0.991,0,0.183,0.183,0.467,-2.944,-103.766
 14:14:53.449,eb:33:2e:f9:57:b5, 2085-97-105 00:43:00:2030,0.05,0.021,0.991,0,0.244,0.122,0.467,-2.944,-103.766
 14:14:53.449,eb:33:2e:f9:57:b5, 2085-97-102 00:42:00:2030,0.05,0.021,0.992,0.061,0.183,0.183,0.467,-2.944,-103.766
 14:14:53.449,eb:33:2e:f9:57:b5, 2085-97-104 00:42:00:2028,0.051,0.02,0.99,0,0.122,0.244,0.467,-2.944,-103.766
 14:14:53.449,eb:33:2e:f9:57:b5, 2085-97-105 00:42:00:2031,0.052,0.02,0.99,0,0.122,0.244,0.467,-2.944,-103.766
 14:14:53.481,eb:33:2e:f9:57:b5, 2085-97-105 00:41:00:2030,0.051,0.02,0.991,0,0.183,0.305,0.467,-2.944,-103.766
 14:14:53.481,eb:33:2e:f9:57:b5, 2085-97-105 00:44:00:2029,0.051,0.021,0.991,0,0.183,0.305,0.467,-2.944,-103.766
 14:14:53.481,eb:33:2e:f9:57:b5, 2085-97-105 00:41:00:2031,0.052,0.021,0.992,0.061,0.122,0.244,0.467,-2.944,-103.766
 14:14:53.481,eb:33:2e:f9:57:b5, 2085-97-106 00:44:00:2029,0.051,0.021,0.991,0.061,0.183,0.122,0.467,-2.944,-103.766
 14:14:53.539,eb:33:2e:f9:57:b5, 2085-97-104 00:43:00:2029,0.051,0.022,0.991,0.061,0.122,0.061,0.467,-2.944,-103.766
 14:14:53.539,eb:33:2e:f9:57:b5, 2085-97-105 00:42:00:2030,0.052,0.021,0.991,0.061,0.061,0,0.467,-2.944,-103.766
 14:14:53.539,eb:33:2e:f9:57:b5, 2085-97-104 00:43:00:2030,0.05,0.021,0.991,0,0.061,0,0.467,-2.944,-103.766
 14:14:53.539,eb:33:2e:f9:57:b5, 2085-97-103 00:43:00:2029,0.049,0.021,0.99,0,0.122,0,0.467,-2.944,-103.766
 14:14:53.569,eb:33:2e:f9:57:b5, 2085-97-103 00:43:00:2028,0.05,0.021,0.99,0,0,0,0.467,-2.944,-103.766
 14:14:53.569,eb:33:2e:f9:57:b5, 2085-97-104 00:43:00:2028,0.051,0.021,0.99,0,0,0,0.467,-2.944,-103.766
 14:14:53.569,eb:33:2e:f9:57:b5, 2085-97-105 00:43:00:2031,0.051,0.021,0.991,0,0,0,0.467,-2.944,-103.766
 14:14:53.569,eb:33:2e:f9:57:b5, 2085-97-105 00:43:00:2031,0.052,0.021,0.991,0,0,0,0.467,-2.944,-103.766
 14:14:53.630,eb:33:2e:f9:57:b5, 2085-97-104 00:43:00:2030,0.051,0.021,0.992,-0.061,0.122,0,0.467,-2.944,-103.766
 14:14:53.630,eb:33:2e:f9:57:b5, 2085-97-106 00:44:00:2030,0.051,0.021,0.99,0,0,0,0.467,-2.944,-103.766
 14:14:53.630,eb:33:2e:f9:57:b5, 2085-97-104 00:42:00:2028,0.051,0.021,0.991,0,0,0,0.467,-2.944,-103.766
 14:14:53.630,eb:33:2e:f9:57:b5, 2085-97-104 00:43:00:2029,0.05,0.021,0.991,0,0,0,0.467,-2.944,-103.766
 14:14:53.659,eb:33:2e:f9:57:b5, 2085-97-104 00:42:00:2028,0.051,0.021,0.99,-0.061,0,0,0.467,-2.944,-103.766
 14:14:53.659,eb:33:2e:f9:57:b5, 2085-97-104 00:41:00:2030,0.051,0.02,0.991,-0.061,-0.061,0.061,0.467,-2.944,-103.766
 14:14:53.659,eb:33:2e:f9:57:b5, 2085-97-105 00:43:00:2030,0.051,0.02,0.992,-0.061,0,0.122,0.472,-2.944,-103.766
 14:14:53.659,eb:33:2e:f9:57:b5, 2085-97-104 00:42:00:2030,0.05,0.02,0.992,-0.061,0.122,0.122,0.472,-2.944,-103.766
 14:14:53.689,eb:33:2e:f9:57:b5, 2085-97-104 00:43:00:2029,0.051,0.021,0.991,0,0.061,0.183,0.472,-2.944,-103.766
 14:14:53.689,eb:33:2e:f9:57:b5, 2085-97-105 00:42:00:2030,0.052,0.02,0.991,-0.061,0.061,0.244,0.472,-2.944,-103.766
 14:14:53.689,eb:33:2e:f9:57:b5, 2085-97-107 00:43:00:2030,0.052,0.02,0.992,-0.061,0.122,0.244,0.472,-2.944,-103.766
 14:14:53.689,eb:33:2e:f9:57:b5, 2085-97-103 00:43:00:2030,0.05,0.02,0.991,0,0.183,0.183,0.472,-2.944,-103.766
 14:14:53.750,eb:33:2e:f9:57:b5, 2085-97-105 00:43:00:2031,0.051,0.021,0.991,0,0.061,0.183,0.472,-2.944,-103.766
 14:14:53.750,eb:33:2e:f9:57:b5, 2085-97-106 00:44:00:2030,0.052,0.02,0.992,-0.061,0.061,0.061,0.472,-2.944,-103.766
 14:14:53.750,eb:33:2e:f9:57:b5, 2085-97-105 00:44:00:2030,0.051,0.021,0.991,-0.061,0,0,0.472,-2.944,-103.766
 14:14:53.750,eb:33:2e:f9:57:b5, 2085-97-104 00:41:00:2030,0.051,0.021,0.992,0,0,0,0.472,-2.944,-103.766
 14:14:53.750,eb:33:2e:f9:57:b5, 2085-97-103 00:43:00:2030,0.051,0.021,0.992,-0.061,0.061,0,0.472,-2.944,-103.766
 14:14:53.780,eb:33:2e:f9:57:b5, 2085-113-58 00:105:226:-1905,0.051,0.021,0.991,0,0.061,0.061,0.472,-2.944,-103.766
 14:14:53.780,eb:33:2e:f9:57:b5, 2085-97-103 00:41:00:2029,0.051,0.021,0.991,0,0.061,0.122,0.472,-2.944,-103.766
 14:14:53.780,eb:33:2e:f9:57:b5, 2085-97-104 00:42:00:2031,0.051,0.021,0.991,-0.061,0,0.122,0.472,-2.944,-103.766
 14:14:53.780,eb:33:2e:f9:57:b5, 2085-97-105 00:43:00:2030,0.052,0.021,0.991,-0.061,0.122,0.122,0.472,-2.944,-103.766
 14:14:53.810,eb:33:2e:f9:57:b5, 2085-97-104 00:43:00:2029,0.052,0.021,0.991,0,-0.061,0,0.472,-2.944,-103.766
 14:14:53.810,eb:33:2e:f9:57:b5, 2085-97-106 00:43:00:2031,0.051,0.021,0.992,0,0,-0.061,0.472,-2.944,-103.766
 14:14:53.810,eb:33:2e:f9:57:b5, 2085-97-105 00:42:00:2031,0.052,0.021,0.992,0,-0.061,-0.122,0.472,-2.944,-103.766
 14:14:53.810,eb:33:2e:f9:57:b5, 2085-97-106 00:42:00:2032,0.052,0.021,0.992,0,0,-0.122,0.472,-2.944,-103.766
 14:14:53.870,eb:33:2e:f9:57:b5, 2085-97-104 00:43:00:2029,0.05,0.021,0.992,0,0,-0.061,0.472,-2.944,-103.766
 14:14:53.870,eb:33:2e:f9:57:b5, 2085-97-102 00:42:00:2027,0.05,0.02,0.991,0,0,-0.061,0.472,-2.944,-103.766
 14:14:53.870,eb:33:2e:f9:57:b5, 2085-97-103 00:41:00:2029,0.052,0.02,0.991,0,0,0,0.472,-2.944,-103.766
 14:14:53.870,eb:33:2e:f9:57:b5, 2085-97-105 00:42:00:2030,0.051,0.021,0.991,0,-0.061,0.061,0.472,-2.944,-103.766
 14:14:53.899,eb:33:2e:f9:57:b5, 2085-97-105 00:42:00:2030,0.052,0.021,0.992,0,-0.061,0,0.472,-2.944,-103.766
 14:14:53.899,eb:33:2e:f9:57:b5, 2085-97-104 00:41:00:2030,0.051,0.021,0.991,0,0.061,0.122,0.472,-2.944,-103.766
 14:14:53.899,eb:33:2e:f9:57:b5, 2085-97-106 00:42:00:2028,0.052,0.02,0.991,0,0.061,0.061,0.472,-2.944,-103.766
 14:14:53.899,eb:33:2e:f9:57:b5, 2085-97-105 00:41:00:2031,0.051,0.02,0.991,0,0,0.122,0.472,-2.944,-103.766
 14:14:53.930,eb:33:2e:f9:57:b5, 2085-97-103 00:41:00:2029,0.051,0.021,0.991,0,0,0,0.472,-2.944,-103.766
 14:14:53.930,eb:33:2e:f9:57:b5, 2085-97-104 00:42:00:2029,0.051,0.021,0.991,0,0,0,0.472,-2.944,-103.766
 14:14:53.930,eb:33:2e:f9:57:b5, 2085-97-105 00:41:00:2032,0.052,0.021,0.99,0,0,0.061,0.472,-2.944,-103.766
 14:14:53.930,eb:33:2e:f9:57:b5, 2085-97-104 00:40:00:2032,0.051,0.02,0.993,0,0.061,0.183,0.472,-2.944,-103.771
 14:14:53.990,eb:33:2e:f9:57:b5, 2085-97-104 00:42:00:2029,0.051,0.021,0.991,0,0.061,0.122,0.472,-2.944,-103.771
 14:14:53.990,eb:33:2e:f9:57:b5, 2085-97-105 00:42:00:2029,0.052,0.021,0.99,0,0,0.244,0.472,-2.944,-103.771
 14:14:53.990,eb:33:2e:f9:57:b5, 2085-97-106 00:43:00:2032,0.051,0.021,0.992,0,0.061,0.183,0.472,-2.944,-103.771
 14:14:53.990,eb:33:2e:f9:57:b5, 2085-97-105 00:42:00:2029,0.051,0.021,0.991,0,0.122,0.244,0.472,-2.944,-103.771
 14:14:54.020,eb:33:2e:f9:57:b5, 2085-97-105 00:42:00:2029,0.051,0.021,0.991,0,0.061,0.244,0.472,-2.944,-103.771
 14:14:54.020,eb:33:2e:f9:57:b5, 2085-97-104 00:43:00:2029,0.051,0.021,0.991,0,0.061,0.183,0.472,-2.944,-103.771
 14:14:54.020,eb:33:2e:f9:57:b5, 2085-97-105 00:42:00:2028,0.05,0.021,0.991,-0.061,0,0.061,0.472,-2.944,-103.771
 14:14:54.020,eb:33:2e:f9:57:b5, 2085-97-104 00:42:00:2030,0.051,0.021,0.991,0,-0.061,0.061,0.472,-2.944,-103.771
 14:14:54.050,eb:33:2e:f9:57:b5, 2085-97-105 00:43:00:2031,0.051,0.021,0.992,-0.061,0,0.122,0.472,-2.944,-103.771
 14:14:54.050,eb:33:2e:f9:57:b5, 2085-97-102 00:42:00:2028,0.051,0.021,0.991,-0.061,0,0.061,0.472,-2.944,-103.771
 14:14:54.050,eb:33:2e:f9:57:b5, 2085-97-105 00:42:00:2032,0.052,0.021,0.991,0,-0.061,0,0.472,-2.944,-103.771
 14:14:54.050,eb:33:2e:f9:57:b5, 2085-97-106 00:41:00:2030,0.052,0.021,0.992,0,-0.061,-0.061,0.472,-2.944,-103.771
 14:14:54.110,eb:33:2e:f9:57:b5, 2085-97-104 00:41:00:2029,0.051,0.021,0.992,0,0,0,0.472,-2.944,-103.771
 14:14:54.110,eb:33:2e:f9:57:b5, 2085-97-105 00:40:00:2031,0.051,0.02,0.991,0,0,0,0.472,-2.944,-103.771
 14:14:54.110,eb:33:2e:f9:57:b5, 2085-97-104 00:41:00:2029,0.051,0.02,0.99,0,0,0,0.472,-2.944,-103.771
 14:14:54.111,eb:33:2e:f9:57:b5, 2085-97-104 00:43:00:2029,0.051,0.021,0.991,0,0,0.061,0.472,-2.944,-103.771
 14:14:54.139,eb:33:2e:f9:57:b5, 2085-97-104 00:42:00:2031,0.051,0.021,0.99,0,-0.061,0.061,0.472,-2.944,-103.771
 14:14:54.139,eb:33:2e:f9:57:b5, 2085-97-107 00:44:00:2030,0.052,0.02,0.992,0,-0.061,0.061,0.472,-2.944,-103.771
 14:14:54.139,eb:33:2e:f9:57:b5, 2085-97-103 00:43:00:2028,0.051,0.021,0.991,0,-0.061,0.122,0.472,-2.944,-103.771
 14:14:54.139,eb:33:2e:f9:57:b5, 2085-97-104 00:42:00:2031,0.051,0.021,0.992,0,-0.061,0,0.472,-2.944,-103.771
 14:14:54.170,eb:33:2e:f9:57:b5, 2085-97-105 00:42:00:2032,0.051,0.02,0.992,0,0,0,0.472,-2.944,-103.771
 14:14:54.170,eb:33:2e:f9:57:b5, 2085-97-108 00:43:00:2031,0.051,0.021,0.992,0,0,0,0.472,-2.944,-103.771
 14:14:54.170,eb:33:2e:f9:57:b5, 2085-97-103 00:43:00:2029,0.051,0.021,0.991,0,0,0,0.472,-2.944,-103.771
 14:14:54.170,eb:33:2e:f9:57:b5, 2085-97-104 00:42:00:2029,0.051,0.02,0.991,-0.061,0,0,0.472,-2.944,-103.771
 14:14:54.230,eb:33:2e:f9:57:b5, 2085-97-105 00:43:00:2029,0.051,0.021,0.991,0,-0.061,0,0.472,-2.944,-103.771
 14:14:54.230,eb:33:2e:f9:57:b5, 2085-97-102 00:42:00:2029,0.051,0.021,0.991,0,0,0,0.472,-2.944,-103.771
 14:14:54.230,eb:33:2e:f9:57:b5, 2085-97-104 00:42:00:2029,0.051,0.02,0.991,0,0,-0.061,0.472,-2.944,-103.771
 14:14:54.230,eb:33:2e:f9:57:b5, 2085-97-105 00:42:00:2031,0.051,0.021,0.991,0,0,-0.061,0.472,-2.944,-103.771
 14:14:54.261,eb:33:2e:f9:57:b5, 2085-97-106 00:42:00:2032,0.052,0.02,0.992,0,-0.061,-0.061,0.472,-2.944,-103.771
 14:14:54.261,eb:33:2e:f9:57:b5, 2085-97-105 00:42:00:2032,0.052,0.021,0.992,0,0,-0.061,0.472,-2.944,-103.771
 14:14:54.261,eb:33:2e:f9:57:b5, 2085-97-105 00:43:00:2029,0.051,0.021,0.992,0,0,0,0.472,-2.944,-103.771
 14:14:54.261,eb:33:2e:f9:57:b5, 2085-97-103 00:43:00:2028,0.05,0.021,0.991,0,0,0,0.472,-2.944,-103.771
 14:14:54.291,eb:33:2e:f9:57:b5, 2085-97-105 00:41:00:2030,0.051,0.021,0.991,0,0.061,0,0.472,-2.944,-103.771
 14:14:54.291,eb:33:2e:f9:57:b5, 2085-97-105 00:43:00:2031,0.051,0.021,0.992,0.061,0.122,0.122,0.472,-2.944,-103.771
 14:14:54.291,eb:33:2e:f9:57:b5, 2085-97-104 00:41:00:2030,0.051,0.021,0.99,0,0.122,0.122,0.472,-2.944,-103.771
 14:14:54.291,eb:33:2e:f9:57:b5, 2085-97-105 00:42:00:2030,0.051,0.021,0.991,0,0.061,0.183,0.472,-2.944,-103.771
 14:14:54.350,eb:33:2e:f9:57:b5, 2085-97-104 00:42:00:2030,0.05,0.021,0.991,0,0.061,0.183,0.472,-2.944,-103.771
 14:14:54.350,eb:33:2e:f9:57:b5, 2085-97-105 00:44:00:2029,0.051,0.021,0.991,0,0.061,0.183,0.472,-2.944,-103.771
 14:14:54.350,eb:33:2e:f9:57:b5, 2085-97-105 00:43:00:2029,0.052,0.021,0.991,0,0,0.183,0.472,-2.944,-103.771
 14:14:54.350,eb:33:2e:f9:57:b5, 2085-97-105 00:41:00:2029,0.052,0.021,0.991,0,0.061,0.122,0.472,-2.944,-103.771
 14:14:54.380,eb:33:2e:f9:57:b5, 2085-97-105 00:42:00:2029,0.052,0.021,0.992,0,0,0.122,0.472,-2.944,-103.771
 14:14:54.380,eb:33:2e:f9:57:b5, 2085-97-111 00:45:00:2033,0.054,0.021,0.991,0,0,0,0.472,-2.944,-103.771
 14:14:54.380,eb:33:2e:f9:57:b5, 2085-97-103 00:42:00:2028,0.047,0.02,0.996,0.122,0.427,0,0.472,-2.944,-103.771
 14:14:54.380,eb:33:2e:f9:57:b5, 2085-97-91 00:40:00:2021,0.048,0.021,0.988,0.061,0.244,0.061,0.472,-2.944,-103.771
 14:14:54.410,eb:33:2e:f9:57:b5, 2085-97-108 00:41:00:2033,0.054,0.02,0.99,0,-0.244,0,0.472,-2.944,-103.771
 14:14:54.410,eb:33:2e:f9:57:b5, 2085-97-108 00:42:00:2033,0.051,0.021,0.994,0,0,0.061,0.472,-2.944,-103.771
 14:14:54.410,eb:33:2e:f9:57:b5, 2085-113-81 00:255:78:-455,0.05,0.021,0.991,0,0.061,0.061,0.472,-2.944,-103.771
 14:14:54.410,eb:33:2e:f9:57:b5, 2085-97-103 00:42:00:2028,0.051,0.021,0.99,0,0,0.061,0.472,-2.944,-103.771
 14:14:54.470,eb:33:2e:f9:57:b5, 2085-97-105 00:42:00:2030,0.052,0.021,0.991,0,0,0.061,0.472,-2.944,-103.771
 14:14:54.470,eb:33:2e:f9:57:b5, 2085-97-106 00:43:00:2030,0.052,0.021,0.992,0,0,0.061,0.472,-2.944,-103.771
 14:14:54.470,eb:33:2e:f9:57:b5, 2085-97-107 00:42:00:2029,0.051,0.021,0.991,0,0,0,0.472,-2.944,-103.771
 14:14:54.470,eb:33:2e:f9:57:b5, 2085-97-105 00:42:00:2028,0.051,0.021,0.99,0,0,0,0.472,-2.944,-103.771
 14:14:54.499,eb:33:2e:f9:57:b5, 2085-97-104 00:42:00:2029,0.051,0.021,0.991,0,-0.061,-0.061,0.472,-2.944,-103.771
 14:14:54.499,eb:33:2e:f9:57:b5, 2085-97-106 00:40:00:2032,0.052,0.02,0.991,-0.061,-0.061,0,0.472,-2.944,-103.771
 14:14:54.499,eb:33:2e:f9:57:b5, 2085-97-108 00:43:00:2029,0.052,0.02,0.991,0,0,0,0.472,-2.944,-103.771
 14:14:54.499,eb:33:2e:f9:57:b5, 2085-97-104 00:42:00:2028,0.05,0.021,0.991,0,0.061,0,0.472,-2.944,-103.771
 14:14:54.559,eb:33:2e:f9:57:b5, 2085-97-104 00:42:00:2030,0.052,0.021,0.991,0,-0.122,0,0.472,-2.944,-103.771
 14:14:54.559,eb:33:2e:f9:57:b5, 2085-97-105 00:41:00:2030,0.052,0.021,0.991,0,-0.122,0,0.472,-2.944,-103.771
 14:14:54.559,eb:33:2e:f9:57:b5, 2085-97-106 00:42:00:2030,0.052,0.021,0.991,0,0,-0.061,0.472,-2.944,-103.771
 14:14:54.559,eb:33:2e:f9:57:b5, 2085-97-105 00:44:00:2030,0.051,0.021,0.992,0,0,0,0.472,-2.944,-103.771
 14:14:54.619,eb:33:2e:f9:57:b5, 2085-97-105 00:42:00:2029,0.051,0.021,0.992,0,0.061,0,0.472,-2.944,-103.771
 14:14:54.619,eb:33:2e:f9:57:b5, 2085-97-104 00:42:00:2030,0.052,0.021,0.991,0,0,0,0.472,-2.944,-103.771
 14:14:54.619,eb:33:2e:f9:57:b5, 2085-97-105 00:43:00:2030,0.051,0.021,0.992,0,0.061,0,0.472,-2.944,-103.771
 14:14:54.619,eb:33:2e:f9:57:b5, 2085-97-104 00:41:00:2030,0.051,0.02,0.991,0,0.061,0,0.472,-2.944,-103.771
 14:14:54.622,eb:33:2e:f9:57:b5, 2085-97-106 00:43:00:2031,0.051,0.02,0.991,0,0.061,0,0.472,-2.944,-103.771
 14:14:54.622,eb:33:2e:f9:57:b5, 2085-97-105 00:43:00:2030,0.051,0.021,0.992,0.061,0.061,0,0.472,-2.944,-103.771
 14:14:54.622,eb:33:2e:f9:57:b5, 2085-97-104 00:43:00:2030,0.05,0.021,0.992,0.061,0.122,0,0.472,-2.944,-103.771
 14:14:54.622,eb:33:2e:f9:57:b5, 2085-97-104 00:42:00:2029,0.052,0.021,0.991,0.061,0.061,0,0.472,-2.944,-103.771
 14:14:54.651,eb:33:2e:f9:57:b5, 2085-97-105 00:43:00:2029,0.051,0.021,0.991,0,0.122,0,0.472,-2.944,-103.771
 14:14:54.651,eb:33:2e:f9:57:b5, 2085-97-105 00:42:00:2030,0.051,0.021,0.991,0,0.061,0.061,0.472,-2.944,-103.771
 14:14:54.651,eb:33:2e:f9:57:b5, 2085-97-107 00:42:00:2032,0.052,0.021,0.991,0,0,0,0.472,-2.944,-103.771
 14:14:54.651,eb:33:2e:f9:57:b5, 2085-97-104 00:42:00:2030,0.051,0.021,0.992,0,0,0,0.472,-2.944,-103.771
 14:14:54.711,eb:33:2e:f9:57:b5, 2085-97-105 00:44:00:2031,0.052,0.021,0.991,0,0,-0.122,0.472,-2.944,-103.771
 14:14:54.711,eb:33:2e:f9:57:b5, 2085-97-105 00:44:00:2029,0.051,0.021,0.992,0,0,-0.183,0.478,-2.944,-103.771
 14:14:54.711,eb:33:2e:f9:57:b5, 2085-97-103 00:44:00:2030,0.051,0.021,0.991,0,0,-0.122,0.478,-2.944,-103.771
 14:14:54.711,eb:33:2e:f9:57:b5, 2085-97-106 00:42:00:2030,0.051,0.021,0.991,0.061,0,-0.061,0.478,-2.944,-103.771
 14:14:54.769,eb:33:2e:f9:57:b5, 2085-97-103 00:43:00:2027,0.051,0.021,0.991,0,0,0,0.478,-2.944,-103.771
 14:14:54.769,eb:33:2e:f9:57:b5, 2085-97-104 00:42:00:2029,0.052,0.021,0.99,0,0,0,0.478,-2.944,-103.771
 14:14:54.769,eb:33:2e:f9:57:b5, 2085-97-107 00:42:00:2031,0.052,0.02,0.992,0,0,0.061,0.478,-2.944,-103.771
 14:14:54.769,eb:33:2e:f9:57:b5, 2085-97-105 00:44:00:2031,0.052,0.021,0.992,0,0.061,0.122,0.478,-2.944,-103.771
 14:14:54.772,eb:33:2e:f9:57:b5, 2085-97-106 00:44:00:2031,0.052,0.022,0.991,0,0.122,0.183,0.478,-2.944,-103.771
 14:14:54.772,eb:33:2e:f9:57:b5, 2085-97-107 00:42:00:2031,0.052,0.021,0.991,0,0.061,0.122,0.478,-2.944,-103.771
 14:14:54.772,eb:33:2e:f9:57:b5, 2085-97-105 00:42:00:2029,0.051,0.021,0.991,0,0.122,0.061,0.478,-2.944,-103.771
 14:14:54.772,eb:33:2e:f9:57:b5, 2085-97-104 00:43:00:2029,0.051,0.021,0.991,0,0.122,0.061,0.478,-2.944,-103.771
 14:14:54.830,eb:33:2e:f9:57:b5, 2085-97-105 00:43:00:2030,0.051,0.021,0.99,0,0.061,0,0.478,-2.95,-103.771
 14:14:54.830,eb:33:2e:f9:57:b5, 2085-97-104 00:42:00:2029,0.05,0.021,0.991,0,0,0.061,0.478,-2.95,-103.771
 14:14:54.830,eb:33:2e:f9:57:b5, 2085-97-104 00:43:00:2029,0.051,0.021,0.991,0,0,0.061,0.478,-2.95,-103.771
 14:14:54.830,eb:33:2e:f9:57:b5, 2085-97-104 00:42:00:2029,0.051,0.021,0.992,0,0,0,0.478,-2.95,-103.771
 14:14:54.860,eb:33:2e:f9:57:b5, 2085-97-104 00:42:00:2030,0.05,0.021,0.991,0,0,0.061,0.478,-2.95,-103.771
 14:14:54.860,eb:33:2e:f9:57:b5, 2085-97-104 00:42:00:2031,0.051,0.02,0.991,0,0,0.061,0.478,-2.95,-103.771
 14:14:54.860,eb:33:2e:f9:57:b5, 2085-97-105 00:43:00:2031,0.052,0.021,0.992,0,0,0.061,0.478,-2.95,-103.771
 14:14:54.860,eb:33:2e:f9:57:b5, 2085-97-107 00:43:00:2029,0.051,0.021,0.991,0,0.061,0.061,0.478,-2.95,-103.771
 14:14:54.890,eb:33:2e:f9:57:b5, 2085-97-105 00:44:00:2030,0.051,0.021,0.991,0,0.061,0.061,0.478,-2.95,-103.771
 14:14:54.890,eb:33:2e:f9:57:b5, 2085-97-105 00:44:00:2031,0.051,0.021,0.991,0,0,0,0.478,-2.95,-103.771
 14:14:54.890,eb:33:2e:f9:57:b5, 2085-97-105 00:44:00:2032,0.051,0.021,0.992,0,0.122,0,0.478,-2.95,-103.771
 14:14:54.890,eb:33:2e:f9:57:b5, 2085-97-105 00:43:00:2029,0.051,0.021,0.992,0,0.061,0,0.478,-2.95,-103.771
 14:14:54.950,eb:33:2e:f9:57:b5, 2085-97-106 00:42:00:2029,0.051,0.02,0.991,0.061,0,-0.061,0.478,-2.95,-103.771
 14:14:54.950,eb:33:2e:f9:57:b5, 2085-97-105 00:43:00:2030,0.051,0.021,0.991,0.061,0.061,0,0.478,-2.95,-103.771
 14:14:54.950,eb:33:2e:f9:57:b5, 2085-97-105 00:43:00:2029,0.051,0.021,0.991,0.061,0.061,0,0.478,-2.95,-103.771
 14:14:54.950,eb:33:2e:f9:57:b5, 2085-97-103 00:42:00:2030,0.05,0.021,0.991,0,0.061,0,0.478,-2.95,-103.771
 14:14:54.980,eb:33:2e:f9:57:b5, 2085-97-103 00:43:00:2028,0.05,0.021,0.991,0,0.122,0,0.478,-2.95,-103.771
 14:14:54.980,eb:33:2e:f9:57:b5, 2085-97-104 00:44:00:2029,0.051,0.021,0.99,0,0,0.061,0.478,-2.95,-103.771
 14:14:54.980,eb:33:2e:f9:57:b5, 2085-97-104 00:44:00:2028,0.051,0.021,0.991,0,0,0.122,0.478,-2.95,-103.771
 14:14:54.980,eb:33:2e:f9:57:b5, 2085-97-106 00:44:00:2028,0.051,0.021,0.991,0,0,0.061,0.478,-2.95,-103.771
 14:14:55.040,eb:33:2e:f9:57:b5, 2085-97-104 00:43:00:2030,0.051,0.021,0.992,0,0,0.122,0.478,-2.95,-103.771
 14:14:55.040,eb:33:2e:f9:57:b5, 2085-97-104 00:45:00:2030,0.051,0.021,0.99,0,0,0.061,0.478,-2.95,-103.771
 14:14:55.040,eb:33:2e:f9:57:b5, 2085-97-105 00:42:00:2031,0.051,0.021,0.991,0,-0.061,0,0.478,-2.95,-103.771
 14:14:55.040,eb:33:2e:f9:57:b5, 2085-97-105 00:44:00:2029,0.051,0.021,0.991,-0.122,-0.061,0,0.478,-2.95,-103.771
 14:14:55.070,eb:33:2e:f9:57:b5, 2085-97-105 00:43:00:2031,0.051,0.021,0.991,-0.061,0,0,0.478,-2.95,-103.771
 14:14:55.070,eb:33:2e:f9:57:b5, 2085-97-106 00:43:00:2030,0.051,0.021,0.991,-0.061,-0.061,-0.061,0.478,-2.95,-103.771
 14:14:55.070,eb:33:2e:f9:57:b5, 2085-97-104 00:42:00:2028,0.051,0.021,0.992,-0.061,0,0,0.478,-2.95,-103.771
 14:14:55.070,eb:33:2e:f9:57:b5, 2085-97-103 00:42:00:2031,0.051,0.021,0.991,-0.061,0,0,0.478,-2.95,-103.771
 14:14:55.100,eb:33:2e:f9:57:b5, 2085-97-104 00:41:00:2029,0.05,0.021,0.991,0,0,0,0.478,-2.95,-103.771
 14:14:55.100,eb:33:2e:f9:57:b5, 2085-97-103 00:42:00:2029,0.05,0.02,0.991,-0.061,0,0,0.478,-2.95,-103.771
 14:14:55.100,eb:33:2e:f9:57:b5, 2085-97-103 00:42:00:2029,0.051,0.021,0.99,-0.061,0,0.061,0.478,-2.95,-103.771
 14:14:55.100,eb:33:2e:f9:57:b5, 2085-97-107 00:43:00:2030,0.052,0.02,0.991,-0.061,-0.061,0.061,0.478,-2.95,-103.771
 14:14:55.190,eb:33:2e:f9:57:b5, 2085-97-105 00:43:00:2030,0.051,0.021,0.991,-0.122,0,0.122,0.478,-2.95,-103.771
 14:14:55.190,eb:33:2e:f9:57:b5, 2085-97-104 00:42:00:2030,0.051,0.021,0.992,-0.122,0.061,0.183,0.478,-2.95,-103.771
 14:14:55.190,eb:33:2e:f9:57:b5, 2085-97-107 00:44:00:2031,0.052,0.021,0.991,-0.122,0,0.122,0.478,-2.95,-103.771
 14:14:55.190,eb:33:2e:f9:57:b5, 2085-97-107 00:43:00:2032,0.051,0.021,0.992,-0.122,0.122,0.122,0.478,-2.95,-103.771
 14:14:55.193,eb:33:2e:f9:57:b5, 2085-97-105 00:43:00:2028,0.051,0.021,0.991,-0.122,0.122,0.122,0.478,-2.95,-103.771
 14:14:55.193,eb:33:2e:f9:57:b5, 2085-97-105 00:43:00:2030,0.051,0.021,0.991,-0.061,0.061,0.122,0.478,-2.95,-103.771
 14:14:55.193,eb:33:2e:f9:57:b5, 2085-97-105 00:42:00:2027,0.051,0.021,0.992,-0.122,0,0.122,0.478,-2.95,-103.771
 14:14:55.193,eb:33:2e:f9:57:b5, 2085-97-104 00:40:00:2028,0.051,0.021,0.991,-0.122,0.061,0,0.478,-2.95,-103.771
 14:14:55.220,eb:33:2e:f9:57:b5, 2085-97-105 00:42:00:2029,0.051,0.021,0.99,-0.122,0,0.122,0.478,-2.95,-103.771
 14:14:55.220,eb:33:2e:f9:57:b5, 2085-97-104 00:41:00:2029,0.051,0.021,0.991,-0.183,0,0,0.478,-2.95,-103.771
 14:14:55.220,eb:33:2e:f9:57:b5, 2085-97-105 00:42:00:2029,0.052,0.021,0.991,-0.183,0,0.122,0.478,-2.95,-103.771
 14:14:55.220,eb:33:2e:f9:57:b5, 2085-97-106 00:42:00:2030,0.051,0.021,0.992,-0.122,0.061,0.122,0.478,-2.95,-103.771
 14:14:55.280,eb:33:2e:f9:57:b5, 2085-97-104 00:43:00:2029,0.051,0.021,0.991,-0.122,0,0.061,0.478,-2.95,-103.771
 14:14:55.280,eb:33:2e:f9:57:b5, 2085-97-104 00:43:00:2031,0.052,0.021,0.991,-0.122,0,0,0.478,-2.95,-103.771
 14:14:55.280,eb:33:2e:f9:57:b5, 2085-113-58 00:255:226:-2130,0.052,0.022,0.991,-0.183,0,0,0.478,-2.95,-103.771
 14:14:55.280,eb:33:2e:f9:57:b5, 2085-97-105 00:43:00:2029,0.051,0.021,0.991,-0.183,0,0,0.478,-2.95,-103.771
 14:14:55.280,eb:33:2e:f9:57:b5, 2085-97-105 00:42:00:2030,0.051,0.021,0.991,-0.122,0,0,0.478,-2.95,-103.771
 14:14:55.310,eb:33:2e:f9:57:b5, 2085-97-104 00:41:00:2028,0.051,0.021,0.991,-0.183,0,-0.061,0.478,-2.95,-103.771
 14:14:55.310,eb:33:2e:f9:57:b5, 2085-97-107 00:43:00:2030,0.052,0.021,0.99,-0.183,-0.122,-0.183,0.478,-2.95,-103.771
 14:14:55.310,eb:33:2e:f9:57:b5, 2085-97-106 00:41:00:2030,0.051,0.02,0.992,-0.122,-0.061,-0.244,0.478,-2.95,-103.771
 14:14:55.310,eb:33:2e:f9:57:b5, 2085-97-104 00:39:00:2029,0.051,0.02,0.991,-0.061,-0.061,-0.183,0.478,-2.95,-103.771
 14:14:55.340,eb:33:2e:f9:57:b5, 2085-97-103 00:40:00:2030,0.051,0.02,0.991,-0.061,-0.061,0,0.478,-2.95,-103.771
 14:14:55.340,eb:33:2e:f9:57:b5, 2085-97-106 00:40:00:2031,0.052,0.02,0.991,-0.061,-0.061,0.061,0.478,-2.95,-103.771
 14:14:55.340,eb:33:2e:f9:57:b5, 2085-97-106 00:42:00:2031,0.052,0.019,0.992,0,0,0.061,0.478,-2.95,-103.771
 14:14:55.340,eb:33:2e:f9:57:b5, 2085-97-106 00:40:00:2030,0.053,0.02,0.991,-0.061,0,0.183,0.478,-2.95,-103.771
 14:14:55.401,eb:33:2e:f9:57:b5, 2085-97-106 00:40:00:2030,0.051,0.02,0.992,0,0,0.061,0.478,-2.95,-103.771
 14:14:55.401,eb:33:2e:f9:57:b5, 2085-97-104 00:42:00:2027,0.051,0.02,0.99,0,0.061,0.061,0.478,-2.95,-103.771
 14:14:55.401,eb:33:2e:f9:57:b5, 2085-97-106 00:43:00:2029,0.052,0.02,0.99,0,0,0,0.478,-2.95,-103.771
 14:14:55.401,eb:33:2e:f9:57:b5, 2085-97-106 00:43:00:2030,0.051,0.021,0.991,0,0,0.061,0.478,-2.95,-103.771
 14:14:55.430,eb:33:2e:f9:57:b5, 2085-97-105 00:41:00:2030,0.052,0.02,0.991,0,0,0,0.478,-2.95,-103.771
 14:14:55.430,eb:33:2e:f9:57:b5, 2085-97-106 00:40:00:2032,0.052,0.021,0.991,0,0,0.061,0.478,-2.95,-103.771
 14:14:55.430,eb:33:2e:f9:57:b5, 2085-97-107 00:42:00:2030,0.052,0.02,0.992,0,0.122,0.122,0.478,-2.95,-103.771
 14:14:55.430,eb:33:2e:f9:57:b5, 2085-97-106 00:42:00:2029,0.05,0.02,0.991,-0.061,0.061,0.183,0.478,-2.95,-103.771
 14:14:55.459,eb:33:2e:f9:57:b5, 2085-97-104 00:41:00:2030,0.052,0.021,0.991,0,0.061,0.061,0.478,-2.95,-103.771
 14:14:55.459,eb:33:2e:f9:57:b5, 2085-97-106 00:41:00:2031,0.052,0.02,0.992,0,0.061,0.122,0.478,-2.95,-103.771
 14:14:55.459,eb:33:2e:f9:57:b5, 2085-97-106 00:43:00:2030,0.052,0.021,0.991,0,0.061,0.061,0.478,-2.95,-103.771
 14:14:55.459,eb:33:2e:f9:57:b5, 2085-97-106 00:41:00:2030,0.052,0.021,0.991,0,0.061,0,0.478,-2.95,-103.771
 14:14:55.520,eb:33:2e:f9:57:b5, 2085-97-106 00:43:00:2031,0.051,0.021,0.991,0.061,0.061,-0.061,0.478,-2.95,-103.771
 14:14:55.520,eb:33:2e:f9:57:b5, 2085-97-104 00:42:00:2030,0.051,0.021,0.991,0.061,0.061,0,0.478,-2.95,-103.771
 14:14:55.520,eb:33:2e:f9:57:b5, 2085-97-104 00:42:00:2030,0.05,0.02,0.991,0.061,0,-0.122,0.478,-2.95,-103.771
 14:14:55.520,eb:33:2e:f9:57:b5, 2085-97-104 00:41:00:2026,0.051,0.02,0.991,0,0,-0.122,0.478,-2.95,-103.771
 14:14:55.551,eb:33:2e:f9:57:b5, 2085-97-104 00:41:00:2029,0.051,0.021,0.99,0,0,-0.061,0.478,-2.95,-103.771
 14:14:55.551,eb:33:2e:f9:57:b5, 2085-97-104 00:43:00:2030,0.051,0.021,0.991,0,-0.122,0,0.478,-2.95,-103.771
 14:14:55.551,eb:33:2e:f9:57:b5, 2085-97-105 00:42:00:2031,0.051,0.021,0.991,0,-0.061,-0.061,0.478,-2.95,-103.771
 14:14:55.552,eb:33:2e:f9:57:b5, 2085-97-107 00:41:00:2030,0.052,0.021,0.991,0,-0.122,-0.122,0.478,-2.95,-103.771
 14:14:55.611,eb:33:2e:f9:57:b5, 2085-97-107 00:43:00:2032,0.052,0.021,0.991,0,-0.183,-0.183,0.478,-2.95,-103.771
 14:14:55.611,eb:33:2e:f9:57:b5, 2085-97-107 00:41:00:2032,0.053,0.021,0.992,0,-0.061,-0.183,0.478,-2.95,-103.771
 14:14:55.611,eb:33:2e:f9:57:b5, 2085-97-106 00:42:00:2030,0.051,0.02,0.992,0,0,-0.122,0.478,-2.95,-103.771
 14:14:55.611,eb:33:2e:f9:57:b5, 2085-97-103 00:42:00:2029,0.051,0.02,0.991,0,0.061,-0.061,0.478,-2.95,-103.771
 14:14:55.640,eb:33:2e:f9:57:b5, 2085-97-105 00:39:00:2030,0.051,0.02,0.992,0,0,0,0.478,-2.95,-103.771
 14:14:55.640,eb:33:2e:f9:57:b5, 2085-97-104 00:41:00:2029,0.051,0.02,0.991,0,0.122,0,0.478,-2.95,-103.771
 14:14:55.640,eb:33:2e:f9:57:b5, 2085-97-105 00:43:00:2029,0.051,0.021,0.99,0,0,0,0.478,-2.95,-103.771
 14:14:55.640,eb:33:2e:f9:57:b5, 2085-97-104 00:41:00:2031,0.051,0.021,0.99,0,0,0.061,0.478,-2.95,-103.771
 14:14:55.670,eb:33:2e:f9:57:b5, 2085-97-105 00:42:00:2029,0.051,0.021,0.992,0,0.061,0,0.478,-2.95,-103.771
 14:14:55.670,eb:33:2e:f9:57:b5, 2085-97-105 00:42:00:2029,0.052,0.021,0.991,-0.061,0.061,0.061,0.478,-2.95,-103.777
 14:14:55.670,eb:33:2e:f9:57:b5, 2085-97-107 00:43:00:2030,0.052,0.02,0.991,-0.061,0,0.061,0.478,-2.95,-103.777
 14:14:55.670,eb:33:2e:f9:57:b5, 2085-97-105 00:42:00:2031,0.052,0.021,0.992,-0.061,0.061,0,0.478,-2.95,-103.777
 14:14:55.700,eb:33:2e:f9:57:b5, 2085-97-106 00:42:00:2030,0.051,0.021,0.992,-0.061,0.061,0,0.478,-2.95,-103.777
 14:14:55.700,eb:33:2e:f9:57:b5, 2085-97-104 00:43:00:2030,0.051,0.021,0.991,0,0.061,0,0.478,-2.95,-103.777
 14:14:55.700,eb:33:2e:f9:57:b5, 2085-97-103 00:41:00:2030,0.051,0.02,0.991,0,0.061,0,0.478,-2.95,-103.777
 14:14:55.700,eb:33:2e:f9:57:b5, 2085-97-105 00:42:00:2030,0.052,0.021,0.991,-0.061,0.061,0,0.478,-2.95,-103.777
 14:14:55.761,eb:33:2e:f9:57:b5, 2085-97-105 00:42:00:2031,0.051,0.021,0.991,0,0,0.061,0.478,-2.95,-103.777
 14:14:55.761,eb:33:2e:f9:57:b5, 2085-97-105 00:42:00:2030,0.051,0.02,0.991,0,0.061,0.061,0.478,-2.95,-103.777
 14:14:55.761,eb:33:2e:f9:57:b5, 2085-97-105 00:43:00:2030,0.052,0.021,0.991,-0.061,0.061,0.061,0.478,-2.95,-103.777
 14:14:55.761,eb:33:2e:f9:57:b5, 2085-97-105 00:43:00:2030,0.052,0.021,0.991,-0.061,0.061,0.061,0.478,-2.95,-103.777
 14:14:55.820,eb:33:2e:f9:57:b5, 2085-97-106 00:43:00:2032,0.052,0.021,0.992,-0.061,0,0.122,0.478,-2.95,-103.777
 14:14:55.820,eb:33:2e:f9:57:b5, 2085-97-106 00:42:00:2029,0.052,0.021,0.991,-0.061,0.122,0.061,0.478,-2.95,-103.777
 14:14:55.820,eb:33:2e:f9:57:b5, 2085-97-105 00:41:00:2030,0.051,0.02,0.991,-0.061,0,0.061,0.478,-2.95,-103.777
 14:14:55.820,eb:33:2e:f9:57:b5, 2085-97-107 00:41:00:2030,0.052,0.02,0.992,-0.061,0.061,0.122,0.478,-2.95,-103.777
 14:14:55.822,eb:33:2e:f9:57:b5, 2085-97-106 00:42:00:2031,0.051,0.021,0.991,0,0.122,0.061,0.478,-2.95,-103.777
 14:14:55.822,eb:33:2e:f9:57:b5, 2085-97-104 00:41:00:2029,0.052,0.02,0.991,0,0.122,0.061,0.478,-2.95,-103.777
 14:14:55.822,eb:33:2e:f9:57:b5, 2085-97-105 00:40:00:2030,0.051,0.02,0.991,-0.061,0.061,0.061,0.478,-2.95,-103.777
 14:14:55.822,eb:33:2e:f9:57:b5, 2085-97-105 00:41:00:2027,0.052,0.02,0.991,-0.061,0,0.183,0.478,-2.95,-103.777
 14:14:55.881,eb:33:2e:f9:57:b5, 2085-97-105 00:41:00:2031,0.051,0.021,0.99,0,0,0.122,0.478,-2.95,-103.777
 14:14:55.881,eb:33:2e:f9:57:b5, 2085-113-58 00:180:226:-1905,0.051,0.02,0.992,0,0.061,0.122,0.478,-2.95,-103.777
 14:14:55.881,eb:33:2e:f9:57:b5, 2085-97-107 00:42:00:2030,0.052,0.021,0.992,0,0.061,0.122,0.478,-2.95,-103.777
 14:14:55.881,eb:33:2e:f9:57:b5, 2085-97-105 00:42:00:2029,0.051,0.021,0.992,-0.061,0.061,0.183,0.478,-2.95,-103.777
 14:14:55.910,eb:33:2e:f9:57:b5, 2085-97-106 00:40:00:2029,0.052,0.021,0.991,0,0.061,0.183,0.478,-2.95,-103.777
 14:14:55.910,eb:33:2e:f9:57:b5, 2085-97-105 00:41:00:2031,0.051,0.02,0.991,0,0.122,0.122,0.478,-2.95,-103.777
 14:14:55.910,eb:33:2e:f9:57:b5, 2085-97-106 00:39:00:2030,0.052,0.02,0.991,-0.061,0.122,0.122,0.478,-2.95,-103.777
 14:14:55.910,eb:33:2e:f9:57:b5, 2085-97-104 00:42:00:2029,0.051,0.021,0.992,-0.061,0.061,0.122,0.478,-2.95,-103.777
 14:14:55.940,eb:33:2e:f9:57:b5, 2085-97-104 00:43:00:2030,0.05,0.021,0.992,-0.061,0.061,0.061,0.478,-2.95,-103.777
 14:14:55.940,eb:33:2e:f9:57:b5, 2085-97-103 00:41:00:2027,0.051,0.02,0.99,-0.061,0,0,0.478,-2.95,-103.777
 14:14:55.940,eb:33:2e:f9:57:b5, 2085-97-103 00:43:00:2029,0.051,0.021,0.991,0,-0.061,0,0.478,-2.95,-103.777
 14:14:55.940,eb:33:2e:f9:57:b5, 2085-97-105 00:41:00:2030,0.051,0.02,0.991,-0.061,-0.061,0,0.478,-2.95,-103.777
 14:14:56.000,eb:33:2e:f9:57:b5, 2085-97-105 00:42:00:2029,0.051,0.021,0.991,-0.061,0,0,0.478,-2.95,-103.777
 14:14:56.000,eb:33:2e:f9:57:b5, 2085-97-105 00:41:00:2029,0.051,0.02,0.991,-0.122,-0.122,-0.061,0.478,-2.95,-103.777
 14:14:56.001,eb:33:2e:f9:57:b5, 2085-97-105 00:43:00:2030,0.052,0.02,0.991,-0.061,-0.061,0,0.478,-2.95,-103.777
 14:14:56.001,eb:33:2e:f9:57:b5, 2085-97-105 00:42:00:2029,0.051,0.021,0.991,-0.061,-0.061,-0.061,0.478,-2.95,-103.777
 14:14:56.030,eb:33:2e:f9:57:b5, 2085-97-106 00:40:00:2031,0.052,0.021,0.991,-0.061,0,-0.061,0.478,-2.95,-103.777
 14:14:56.030,eb:33:2e:f9:57:b5, 2085-97-107 00:41:00:2031,0.052,0.021,0.992,0,-0.061,0,0.478,-2.95,-103.777
 14:14:56.030,eb:33:2e:f9:57:b5, 2085-97-108 00:42:00:2031,0.052,0.021,0.992,0,0,-0.061,0.478,-2.95,-103.777
 14:14:56.030,eb:33:2e:f9:57:b5, 2085-97-106 00:41:00:2029,0.051,0.02,0.991,0,0,0,0.478,-2.95,-103.777
 14:14:56.090,eb:33:2e:f9:57:b5, 2085-97-104 00:42:00:2030,0.051,0.02,0.991,0,0,0,0.478,-2.95,-103.777
 14:14:56.090,eb:33:2e:f9:57:b5, 2085-97-107 00:43:00:2032,0.052,0.021,0.992,0,0,-0.061,0.478,-2.95,-103.777
 14:14:56.090,eb:33:2e:f9:57:b5, 2085-97-106 00:43:00:2030,0.052,0.02,0.992,0,0,-0.061,0.478,-2.95,-103.777
 14:14:56.090,eb:33:2e:f9:57:b5, 2085-97-105 00:40:00:2030,0.051,0.021,0.991,0.061,0.061,0,0.478,-2.95,-103.777
 14:14:56.121,eb:33:2e:f9:57:b5, 2085-97-104 00:41:00:2030,0.052,0.021,0.992,0,0,0,0.478,-2.95,-103.777
 14:14:56.121,eb:33:2e:f9:57:b5, 2085-97-105 00:41:00:2030,0.051,0.02,0.99,0,0,0,0.478,-2.95,-103.777
 14:14:56.121,eb:33:2e:f9:57:b5, 2085-97-104 00:42:00:2029,0.051,0.02,0.991,0,0,0,0.478,-2.95,-103.777
 14:14:56.121,eb:33:2e:f9:57:b5, 2085-97-104 00:39:00:2029,0.051,0.02,0.991,0,-0.061,0,0.478,-2.95,-103.777
 14:14:56.151,eb:33:2e:f9:57:b5, 2085-97-105 00:42:00:2032,0.051,0.021,0.991,0,0,0.061,0.478,-2.95,-103.777
 14:14:56.151,eb:33:2e:f9:57:b5, 2085-97-105 00:42:00:2031,0.052,0.021,0.991,-0.061,0,0,0.478,-2.95,-103.777
 14:14:56.151,eb:33:2e:f9:57:b5, 2085-97-107 00:41:00:2029,0.052,0.02,0.991,0,0,0,0.478,-2.95,-103.777
 14:14:56.151,eb:33:2e:f9:57:b5, 2085-97-105 00:41:00:2032,0.052,0.02,0.992,0,0,0,0.478,-2.95,-103.777
 14:14:56.180,eb:33:2e:f9:57:b5, 2085-97-105 00:42:00:2029,0.051,0.02,0.992,-0.061,0,0,0.478,-2.95,-103.777
 14:14:56.180,eb:33:2e:f9:57:b5, 2085-97-106 00:42:00:2030,0.052,0.021,0.991,0,0,0,0.478,-2.95,-103.777
 14:14:56.180,eb:33:2e:f9:57:b5, 2085-97-107 00:41:00:2030,0.05,0.02,0.991,0,0,0,0.478,-2.95,-103.777
 14:14:56.180,eb:33:2e:f9:57:b5, 2085-97-102 00:40:00:2028,0.051,0.02,0.992,0,0.061,0,0.478,-2.95,-103.777
 14:14:56.240,eb:33:2e:f9:57:b5, 2085-97-104 00:40:00:2028,0.051,0.02,0.99,0,0,0.061,0.478,-2.95,-103.777
 14:14:56.240,eb:33:2e:f9:57:b5, 2085-97-103 00:40:00:2027,0.05,0.02,0.991,0,0,0.122,0.478,-2.95,-103.777
 14:14:56.240,eb:33:2e:f9:57:b5, 2085-97-104 00:43:00:2029,0.052,0.02,0.99,0,0,0.183,0.478,-2.95,-103.777
 14:14:56.240,eb:33:2e:f9:57:b5, 2085-97-108 00:42:00:2032,0.052,0.021,0.991,-0.061,0,0.183,0.478,-2.95,-103.777
 14:14:56.270,eb:33:2e:f9:57:b5, 2085-97-107 00:40:00:2031,0.052,0.02,0.993,0,0,0.122,0.478,-2.95,-103.777
 14:14:56.270,eb:33:2e:f9:57:b5, 2085-97-105 00:42:00:2029,0.051,0.02,0.991,0,0,0.183,0.478,-2.95,-103.777
 14:14:56.270,eb:33:2e:f9:57:b5, 2085-97-105 00:40:00:2029,0.052,0.021,0.991,0,0,0.122,0.478,-2.95,-103.777
 14:14:56.270,eb:33:2e:f9:57:b5, 2085-97-108 00:41:00:2031,0.053,0.02,0.991,-0.061,0,0.122,0.478,-2.95,-103.777
 14:14:56.300,eb:33:2e:f9:57:b5, 2085-97-107 00:42:00:2030,0.052,0.021,0.992,0,0,0.061,0.478,-2.95,-103.777
 14:14:56.300,eb:33:2e:f9:57:b5, 2085-97-106 00:41:00:2029,0.052,0.02,0.991,0,0,0.061,0.478,-2.95,-103.777
 14:14:56.300,eb:33:2e:f9:57:b5, 2085-97-105 00:42:00:2030,0.051,0.021,0.992,0,0.061,0,0.478,-2.95,-103.777
 14:14:56.300,eb:33:2e:f9:57:b5, 2085-97-108 00:42:00:2029,0.052,0.02,0.991,0,0.061,0.061,0.478,-2.95,-103.777
 14:14:56.361,eb:33:2e:f9:57:b5, 2085-97-105 00:42:00:2030,0.051,0.02,0.991,0,0.061,0.122,0.478,-2.955,-103.777
 14:14:56.361,eb:33:2e:f9:57:b5, 2085-97-105 00:41:00:2029,0.051,0.02,0.991,0,0.122,0.122,0.478,-2.955,-103.777
 14:14:56.361,eb:33:2e:f9:57:b5, 2085-97-106 00:42:00:2027,0.052,0.021,0.99,0,0,0,0.478,-2.955,-103.777
 14:14:56.361,eb:33:2e:f9:57:b5, 2085-97-105 00:42:00:2029,0.051,0.02,0.991,0,0,0.061,0.478,-2.955,-103.777
 14:14:56.390,eb:33:2e:f9:57:b5, 2085-97-105 00:42:00:2029,0.052,0.02,0.991,0,0.061,0,0.478,-2.955,-103.777
 14:14:56.390,eb:33:2e:f9:57:b5, 2085-97-107 00:42:00:2029,0.051,0.021,0.991,0,0,-0.061,0.478,-2.955,-103.777
 14:14:56.390,eb:33:2e:f9:57:b5, 2085-97-104 00:41:00:2030,0.052,0.021,0.991,0,0,-0.061,0.478,-2.955,-103.777
 14:14:56.390,eb:33:2e:f9:57:b5, 2085-97-105 00:41:00:2030,0.051,0.02,0.992,0,-0.122,-0.061,0.478,-2.955,-103.777
 14:14:56.420,eb:33:2e:f9:57:b5, 2085-97-105 00:41:00:2030,0.051,0.02,0.991,0,-0.061,-0.122,0.478,-2.955,-103.777
 14:14:56.420,eb:33:2e:f9:57:b5, 2085-97-105 00:42:00:2031,0.052,0.02,0.992,0,-0.061,-0.122,0.478,-2.955,-103.777
 14:14:56.420,eb:33:2e:f9:57:b5, 2085-97-106 00:41:00:2031,0.052,0.021,0.992,0,-0.061,-0.061,0.478,-2.955,-103.777
 14:14:56.420,eb:33:2e:f9:57:b5, 2085-97-106 00:40:00:2031,0.052,0.02,0.991,0,0,-0.061,0.478,-2.955,-103.777
 14:14:56.480,eb:33:2e:f9:57:b5, 2085-97-107 00:41:00:2031,0.052,0.02,0.992,-0.061,0,0,0.478,-2.955,-103.777
 14:14:56.480,eb:33:2e:f9:57:b5, 2085-97-108 00:40:00:2031,0.052,0.02,0.991,0,0,0,0.478,-2.955,-103.777
 14:14:56.480,eb:33:2e:f9:57:b5, 2085-97-107 00:42:00:2029,0.052,0.02,0.991,0,0.061,0,0.478,-2.955,-103.777
 14:14:56.480,eb:33:2e:f9:57:b5, 2085-97-104 00:43:00:2028,0.052,0.02,0.991,0,0,0,0.478,-2.955,-103.777
 14:14:56.510,eb:33:2e:f9:57:b5, 2085-97-106 00:41:00:2031,0.05,0.021,0.991,0,0.061,0,0.478,-2.955,-103.777
 14:14:56.510,eb:33:2e:f9:57:b5, 2085-97-104 00:41:00:2029,0.051,0.02,0.991,0,0.061,0,0.478,-2.955,-103.777
 14:14:56.510,eb:33:2e:f9:57:b5, 2085-97-106 00:42:00:2030,0.052,0.02,0.991,0,0,0.061,0.478,-2.955,-103.777
 14:14:56.510,eb:33:2e:f9:57:b5, 2085-97-107 00:43:00:2032,0.052,0.021,0.991,0,0,0.061,0.478,-2.955,-103.777
 14:14:56.570,eb:33:2e:f9:57:b5, 2085-97-104 00:43:00:2031,0.052,0.021,0.992,0,0,0.122,0.478,-2.955,-103.777
 14:14:56.570,eb:33:2e:f9:57:b5, 2085-97-104 00:43:00:2030,0.052,0.021,0.991,-0.061,0.061,0.183,0.478,-2.955,-103.777
 14:14:56.570,eb:33:2e:f9:57:b5, 2085-113-81 00:253:78:-456,0.051,0.021,0.991,0,0.061,0.183,0.478,-2.955,-103.777
 14:14:56.570,eb:33:2e:f9:57:b5, 2085-97-106 00:41:00:2030,0.052,0.021,0.991,-0.061,0.061,0.183,0.478,-2.955,-103.777
 14:14:56.570,eb:33:2e:f9:57:b5, 2085-97-105 00:42:00:2030,0.052,0.021,0.991,-0.061,0.061,0.183,0.478,-2.955,-103.777
 14:14:56.600,eb:33:2e:f9:57:b5, 2085-97-105 00:41:00:2028,0.051,0.021,0.991,-0.061,0.061,0.183,0.478,-2.955,-103.777
 14:14:56.600,eb:33:2e:f9:57:b5, 2085-97-105 00:40:00:2029,0.052,0.02,0.991,-0.122,0.122,0.122,0.478,-2.955,-103.777
 14:14:56.600,eb:33:2e:f9:57:b5, 2085-97-106 00:40:00:2029,0.051,0.02,0.992,0,0,0.183,0.478,-2.955,-103.777
 14:14:56.600,eb:33:2e:f9:57:b5, 2085-97-105 00:42:00:2031,0.051,0.02,0.991,-0.061,0.122,0.244,0.478,-2.955,-103.777
 14:14:56.660,eb:33:2e:f9:57:b5, 2085-97-104 00:41:00:2031,0.051,0.021,0.991,-0.122,0.061,0.244,0.478,-2.955,-103.777
 14:14:56.660,eb:33:2e:f9:57:b5, 2085-97-105 00:42:00:2029,0.051,0.02,0.991,-0.061,0,0.244,0.478,-2.955,-103.777
 14:14:56.660,eb:33:2e:f9:57:b5, 2085-97-107 00:41:00:2032,0.051,0.021,0.992,0,0.061,0.183,0.478,-2.955,-103.777
 14:14:56.660,eb:33:2e:f9:57:b5, 2085-97-106 00:40:00:2031,0.052,0.02,0.992,-0.061,0.061,0.244,0.478,-2.955,-103.777
 14:14:56.690,eb:33:2e:f9:57:b5, 2085-97-106 00:43:00:2031,0.051,0.02,0.992,-0.061,0.183,0.183,0.478,-2.955,-103.777
 14:14:56.690,eb:33:2e:f9:57:b5, 2085-97-104 00:42:00:2030,0.051,0.02,0.991,-0.061,0.122,0.183,0.478,-2.955,-103.777
 14:14:56.690,eb:33:2e:f9:57:b5, 2085-97-104 00:40:00:2030,0.051,0.02,0.991,-0.061,0.122,0.183,0.478,-2.955,-103.777
 14:14:56.690,eb:33:2e:f9:57:b5, 2085-97-104 00:42:00:2031,0.05,0.02,0.992,-0.061,0.122,0.183,0.478,-2.955,-103.777
 14:14:56.719,eb:33:2e:f9:57:b5, 2085-97-104 00:41:00:2031,0.051,0.02,0.991,-0.061,0.122,0.122,0.478,-2.955,-103.777
 14:14:56.719,eb:33:2e:f9:57:b5, 2085-97-105 00:41:00:2031,0.052,0.02,0.992,-0.061,0.122,0.122,0.478,-2.955,-103.777
 14:14:56.719,eb:33:2e:f9:57:b5, 2085-97-105 00:41:00:2030,0.051,0.02,0.991,-0.061,0.061,0.122,0.478,-2.955,-103.777
 14:14:56.719,eb:33:2e:f9:57:b5, 2085-97-104 00:39:00:2029,0.051,0.02,0.991,-0.061,0.122,0.061,0.478,-2.955,-103.777
 14:14:56.750,eb:33:2e:f9:57:b5, 2085-97-106 00:43:00:2028,0.052,0.02,0.991,-0.122,0.061,0,0.478,-2.955,-103.777
 14:14:56.750,eb:33:2e:f9:57:b5, 2085-97-105 00:41:00:2031,0.052,0.021,0.991,-0.061,0,0,0.478,-2.955,-103.777
 14:14:56.750,eb:33:2e:f9:57:b5, 2085-97-106 00:41:00:2030,0.051,0.021,0.991,-0.122,0,-0.061,0.478,-2.955,-103.777
 14:14:56.750,eb:33:2e:f9:57:b5, 2085-97-104 00:42:00:2031,0.049,0.02,0.991,-0.061,0.061,0,0.478,-2.955,-103.777
 14:14:56.810,eb:33:2e:f9:57:b5, 2085-97-105 00:40:00:2035,0.049,0.021,0.99,-0.061,-0.061,-0.061,0.478,-2.955,-103.777
 14:14:56.810,eb:33:2e:f9:57:b5, 2085-97-107 00:39:00:2034,0.051,0.019,0.991,-0.122,-0.244,-0.122,0.478,-2.955,-103.777
 14:14:56.810,eb:33:2e:f9:57:b5, 2085-97-107 00:40:00:2036,0.05,0.019,0.988,-0.122,-0.061,-0.061,0.478,-2.955,-103.777
 14:14:56.810,eb:33:2e:f9:57:b5, 2085-97-107 00:42:00:2032,0.051,0.021,0.99,-0.061,-0.122,-0.122,0.478,-2.955,-103.777
 14:14:56.841,eb:33:2e:f9:57:b5, 2085-97-105 00:41:00:2030,0.051,0.021,0.991,-0.122,0,-0.122,0.478,-2.955,-103.777
 14:14:56.841,eb:33:2e:f9:57:b5, 2085-97-102 00:41:00:2027,0.052,0.02,0.992,0,0.061,-0.061,0.478,-2.955,-103.777
 14:14:56.841,eb:33:2e:f9:57:b5, 2085-97-105 00:41:00:2029,0.052,0.02,0.992,-0.061,0.061,0,0.478,-2.955,-103.777
 14:14:56.841,eb:33:2e:f9:57:b5, 2085-97-106 00:40:00:2031,0.052,0.018,0.992,0,0.061,0,0.478,-2.955,-103.777
 14:14:56.870,eb:33:2e:f9:57:b5, 2085-97-105 00:40:00:2031,0.051,0.02,0.991,0,0.061,0,0.478,-2.955,-103.777
 14:14:56.870,eb:33:2e:f9:57:b5, 2085-97-104 00:40:00:2029,0.051,0.02,0.991,-0.061,0,0,0.478,-2.955,-103.777
 14:14:56.870,eb:33:2e:f9:57:b5, 2085-97-104 00:40:00:2030,0.052,0.021,0.991,0,0,0,0.478,-2.955,-103.777
 14:14:56.870,eb:33:2e:f9:57:b5, 2085-97-107 00:41:00:2031,0.052,0.02,0.992,0,-0.061,0,0.478,-2.955,-103.777
 14:14:56.930,eb:33:2e:f9:57:b5, 2085-97-106 00:42:00:2029,0.051,0.021,0.992,0,0.122,0,0.478,-2.955,-103.777
 14:14:56.930,eb:33:2e:f9:57:b5, 2085-97-104 00:41:00:2030,0.051,0.02,0.992,0,0,0,0.478,-2.955,-103.777
 14:14:56.930,eb:33:2e:f9:57:b5, 2085-97-104 00:40:00:2029,0.051,0.02,0.99,0,0,0,0.478,-2.955,-103.777
 14:14:56.930,eb:33:2e:f9:57:b5, 2085-97-106 00:40:00:2029,0.052,0.02,0.991,0,0.061,0,0.478,-2.955,-103.777
 14:14:56.960,eb:33:2e:f9:57:b5, 2085-97-106 00:43:00:2031,0.051,0.021,0.991,0,0.122,0.061,0.478,-2.955,-103.777
 14:14:56.960,eb:33:2e:f9:57:b5, 2085-97-104 00:40:00:2031,0.051,0.02,0.992,0,0.061,0,0.478,-2.955,-103.777
 14:14:56.960,eb:33:2e:f9:57:b5, 2085-97-104 00:41:00:2030,0.051,0.02,0.992,0,0.122,0.122,0.478,-2.955,-103.777
 14:14:56.960,eb:33:2e:f9:57:b5, 2085-97-104 00:41:00:2029,0.051,0.021,0.991,0,0.061,0.122,0.478,-2.955,-103.782
 14:14:56.991,eb:33:2e:f9:57:b5, 2085-97-104 00:39:00:2028,0.051,0.02,0.991,0,0.061,0.061,0.472,-2.955,-103.782
 14:14:56.991,eb:33:2e:f9:57:b5, 2085-97-104 00:41:00:2030,0.051,0.02,0.991,-0.061,0,0,0.472,-2.955,-103.782
 14:14:56.991,eb:33:2e:f9:57:b5, 2085-97-105 00:41:00:2029,0.051,0.02,0.991,-0.061,0,0,0.472,-2.955,-103.782
 14:14:56.991,eb:33:2e:f9:57:b5, 2085-97-104 00:41:00:2030,0.051,0.021,0.991,0,-0.061,0,0.472,-2.955,-103.782
 14:14:57.051,eb:33:2e:f9:57:b5, 2085-97-108 00:42:00:2031,0.052,0.021,0.992,0,0,-0.061,0.472,-2.955,-103.782
 14:14:57.051,eb:33:2e:f9:57:b5, 2085-97-107 00:39:00:2029,0.051,0.021,0.992,0,0,0,0.472,-2.955,-103.782
 14:14:57.051,eb:33:2e:f9:57:b5, 2085-97-105 00:41:00:2029,0.052,0.02,0.992,0,0,-0.061,0.472,-2.955,-103.782
 14:14:57.051,eb:33:2e:f9:57:b5, 2085-97-105 00:41:00:2029,0.052,0.02,0.991,0,0,-0.061,0.472,-2.955,-103.782
 14:14:57.081,eb:33:2e:f9:57:b5, 2085-97-106 00:42:00:2029,0.051,0.02,0.991,0,0,0,0.472,-2.955,-103.782
 14:14:57.081,eb:33:2e:f9:57:b5, 2085-97-104 00:39:00:2030,0.052,0.02,0.991,-0.061,0,-0.061,0.472,-2.955,-103.782
 14:14:57.081,eb:33:2e:f9:57:b5, 2085-97-104 00:42:00:2030,0.05,0.02,0.991,0,0,-0.061,0.472,-2.955,-103.782
 14:14:57.081,eb:33:2e:f9:57:b5, 2085-97-103 00:41:00:2029,0.05,0.021,0.991,-0.061,-0.061,-0.061,0.472,-2.955,-103.782
 14:14:57.111,eb:33:2e:f9:57:b5, 2085-97-104 00:41:00:2031,0.052,0.02,0.991,-0.061,-0.122,0,0.472,-2.955,-103.782
 14:14:57.111,eb:33:2e:f9:57:b5, 2085-97-107 00:39:00:2031,0.051,0.02,0.991,-0.061,-0.122,0,0.472,-2.955,-103.782
 14:14:57.111,eb:33:2e:f9:57:b5, 2085-97-105 00:45:00:2031,0.051,0.022,0.991,-0.122,0.061,0,0.472,-2.955,-103.782
 14:14:57.111,eb:33:2e:f9:57:b5, 2085-97-108 00:40:00:2032,0.051,0.019,0.993,-0.061,-0.183,0,0.472,-2.955,-103.782
 14:14:57.170,eb:33:2e:f9:57:b5, 2085-97-107 00:41:00:2033,0.05,0.019,0.992,-0.061,-0.122,0.122,0.472,-2.955,-103.782
 14:14:57.170,eb:33:2e:f9:57:b5, 2085-97-107 00:40:00:2034,0.05,0.02,0.99,-0.061,-0.061,0.122,0.472,-2.955,-103.782
 14:14:57.170,eb:33:2e:f9:57:b5, 2085-97-106 00:40:00:2032,0.051,0.02,0.99,-0.061,0,0.061,0.472,-2.955,-103.782
 14:14:57.170,eb:33:2e:f9:57:b5, 2085-97-105 00:39:00:2031,0.051,0.02,0.991,-0.061,0.061,0.122,0.472,-2.955,-103.782
 14:14:57.200,eb:33:2e:f9:57:b5, 2085-97-106 00:40:00:2027,0.051,0.02,0.991,-0.122,0.183,0.183,0.472,-2.955,-103.782
 14:14:57.200,eb:33:2e:f9:57:b5, 2085-97-104 00:39:00:2028,0.051,0.02,0.99,-0.122,0.183,0.244,0.472,-2.955,-103.782
 14:14:57.200,eb:33:2e:f9:57:b5, 2085-97-103 00:41:00:2028,0.051,0.02,0.991,-0.122,0.061,0.244,0.472,-2.955,-103.782
 14:14:57.200,eb:33:2e:f9:57:b5, 2085-97-104 00:40:00:2029,0.051,0.021,0.991,-0.122,0,0.244,0.472,-2.955,-103.782
 14:14:57.231,eb:33:2e:f9:57:b5, 2085-97-105 00:41:00:2030,0.052,0.02,0.991,-0.122,0,0.183,0.472,-2.955,-103.782
 14:14:57.231,eb:33:2e:f9:57:b5, 2085-97-106 00:41:00:2029,0.052,0.02,0.991,-0.122,0,0.244,0.472,-2.955,-103.782
 14:14:57.231,eb:33:2e:f9:57:b5, 2085-97-107 00:41:00:2031,0.052,0.02,0.991,-0.122,0,0.122,0.472,-2.955,-103.782
 14:14:57.231,eb:33:2e:f9:57:b5, 2085-97-106 00:41:00:2031,0.051,0.019,0.992,-0.061,0.061,0.061,0.472,-2.955,-103.782
 14:14:57.290,eb:33:2e:f9:57:b5, 2085-97-103 00:41:00:2028,0.05,0.02,0.991,-0.061,0.061,0.061,0.472,-2.955,-103.782
 14:14:57.290,eb:33:2e:f9:57:b5, 2085-97-103 00:40:00:2028,0.052,0.02,0.99,-0.122,-0.061,0.061,0.472,-2.955,-103.782
 14:14:57.290,eb:33:2e:f9:57:b5, 2085-97-105 00:39:00:2031,0.051,0.019,0.991,-0.122,0,0,0.472,-2.955,-103.782
 14:14:57.290,eb:33:2e:f9:57:b5, 2085-97-104 00:40:00:2030,0.051,0.02,0.991,0,0,0.061,0.472,-2.955,-103.782
 14:14:57.321,eb:33:2e:f9:57:b5, 2085-97-106 00:40:00:2032,0.052,0.02,0.99,0,-0.183,0,0.472,-2.955,-103.782
 14:14:57.321,eb:33:2e:f9:57:b5, 2085-97-108 00:40:00:2033,0.052,0.02,0.992,0,-0.122,-0.122,0.472,-2.955,-103.782
 14:14:57.321,eb:33:2e:f9:57:b5, 2085-97-106 00:40:00:2030,0.051,0.019,0.992,0,0,-0.061,0.472,-2.955,-103.782
 14:14:57.321,eb:33:2e:f9:57:b5, 2085-97-105 00:40:00:2030,0.051,0.019,0.992,0,0,0,0.472,-2.955,-103.782
 14:14:57.350,eb:33:2e:f9:57:b5, 2085-97-105 00:41:00:2030,0.051,0.02,0.991,0,0,0,0.472,-2.955,-103.782
 14:14:57.350,eb:33:2e:f9:57:b5, 2085-97-104 00:41:00:2029,0.051,0.02,0.992,0,0.122,0,0.472,-2.955,-103.782
 14:14:57.350,eb:33:2e:f9:57:b5, 2085-97-104 00:40:00:2030,0.051,0.021,0.991,0,0.061,0.122,0.472,-2.955,-103.782
 14:14:57.350,eb:33:2e:f9:57:b5, 2085-97-107 00:39:00:2031,0.052,0.02,0.991,0.061,0,0.122,0.472,-2.955,-103.782
 14:14:57.410,eb:33:2e:f9:57:b5, 2085-97-105 00:39:00:2030,0.051,0.02,0.992,0,0,0.061,0.472,-2.955,-103.782
 14:14:57.410,eb:33:2e:f9:57:b5, 2085-113-58 00:195:226:-1950,0.05,0.019,0.992,0.061,0,0.061,0.472,-2.955,-103.782
 14:14:57.410,eb:33:2e:f9:57:b5, 2085-97-103 00:40:00:2028,0.05,0.02,0.991,0,0,0.061,0.472,-2.955,-103.782
 14:14:57.410,eb:33:2e:f9:57:b5, 2085-97-103 00:40:00:2031,0.051,0.02,0.991,0,0,0.122,0.472,-2.955,-103.782
 14:14:57.441,eb:33:2e:f9:57:b5, 2085-97-106 00:39:00:2031,0.052,0.019,0.992,0,0,0.061,0.472,-2.955,-103.782
 14:14:57.441,eb:33:2e:f9:57:b5, 2085-97-108 00:42:00:2033,0.051,0.019,0.991,0,0.061,0.061,0.472,-2.955,-103.782
 14:14:57.441,eb:33:2e:f9:57:b5, 2085-97-112 00:53:00:2035,0.05,0.024,0.987,0.061,0,0.061,0.472,-2.955,-103.782
 14:14:57.441,eb:33:2e:f9:57:b5, 2085-97-115 00:38:00:2039,0.049,0.021,0.993,0,-0.549,-0.183,0.472,-2.955,-103.782
 14:14:57.500,eb:33:2e:f9:57:b5, 2085-97-110 00:40:00:2044,0.047,0.02,0.985,0,-0.061,0,0.472,-2.955,-103.782
 14:14:57.500,eb:33:2e:f9:57:b5, 2085-97-109 00:38:00:2040,0.049,0.021,0.983,0,-0.427,0,0.472,-2.955,-103.782
 14:14:57.500,eb:33:2e:f9:57:b5, 2085-97-108 00:39:00:2035,0.051,0.021,0.987,0,-0.183,0,0.472,-2.955,-103.782
 14:14:57.500,eb:33:2e:f9:57:b5, 2085-97-104 00:40:00:2028,0.052,0.02,0.992,0,0.122,0,0.472,-2.955,-103.782
 14:14:57.560,eb:33:2e:f9:57:b5, 2085-97-102 00:40:00:2026,0.05,0.019,0.992,0,0.122,0.061,0.472,-2.955,-103.782
 14:14:57.560,eb:33:2e:f9:57:b5, 2085-97-104 00:38:00:2030,0.052,0.019,0.991,0,0,0,0.472,-2.955,-103.782
 14:14:57.560,eb:33:2e:f9:57:b5, 2085-97-108 00:40:00:2032,0.051,0.02,0.991,0,0,0,0.472,-2.955,-103.782
 14:14:57.560,eb:33:2e:f9:57:b5, 2085-97-106 00:41:00:2031,0.051,0.021,0.99,0,0,0.061,0.472,-2.955,-103.782
 14:14:57.561,eb:33:2e:f9:57:b5, 2085-97-103 00:40:00:2032,0.052,0.021,0.991,0,0,0.061,0.467,-2.955,-103.782
 14:14:57.561,eb:33:2e:f9:57:b5, 2085-97-107 00:40:00:2029,0.052,0.02,0.991,0,0,0.061,0.467,-2.955,-103.782
 14:14:57.561,eb:33:2e:f9:57:b5, 2085-97-104 00:40:00:2031,0.051,0.02,0.992,0,0.061,0.061,0.467,-2.955,-103.782
 14:14:57.561,eb:33:2e:f9:57:b5, 2085-97-107 00:41:00:2032,0.051,0.02,0.992,0,0.061,0.061,0.467,-2.955,-103.782
 14:14:57.591,eb:33:2e:f9:57:b5, 2085-97-105 00:40:00:2029,0.051,0.02,0.991,0,0.061,0,0.467,-2.955,-103.782
 14:14:57.591,eb:33:2e:f9:57:b5, 2085-97-104 00:43:00:2030,0.051,0.02,0.991,0,0,-0.061,0.467,-2.955,-103.782
 14:14:57.591,eb:33:2e:f9:57:b5, 2085-97-105 00:40:00:2029,0.051,0.02,0.991,0,0,-0.122,0.467,-2.955,-103.782
 14:14:57.591,eb:33:2e:f9:57:b5, 2085-97-105 00:41:00:2031,0.052,0.02,0.992,0,-0.122,-0.183,0.467,-2.955,-103.782
 14:14:57.681,eb:33:2e:f9:57:b5, 2085-97-107 00:42:00:2030,0.052,0.02,0.992,0.122,-0.061,-0.183,0.467,-2.955,-103.782
 14:14:57.681,eb:33:2e:f9:57:b5, 2085-97-104 00:40:00:2031,0.051,0.02,0.991,0.061,0,-0.183,0.467,-2.955,-103.782
 14:14:57.681,eb:33:2e:f9:57:b5, 2085-97-104 00:39:00:2028,0.05,0.019,0.991,0.061,0,-0.122,0.467,-2.955,-103.782
 14:14:57.681,eb:33:2e:f9:57:b5, 2085-97-104 00:39:00:2030,0.051,0.019,0.991,0.061,0,-0.061,0.467,-2.955,-103.782
 14:14:57.684,eb:33:2e:f9:57:b5, 2085-97-104 00:41:00:2029,0.051,0.02,0.991,0.061,0,-0.061,0.467,-2.955,-103.782
 14:14:57.684,eb:33:2e:f9:57:b5, 2085-97-105 00:42:00:2029,0.051,0.02,0.991,0.061,0,0,0.467,-2.955,-103.782
 14:14:57.684,eb:33:2e:f9:57:b5, 2085-97-105 00:42:00:2031,0.052,0.02,0.991,0,0,-0.061,0.467,-2.955,-103.782
 14:14:57.684,eb:33:2e:f9:57:b5, 2085-97-106 00:40:00:2030,0.052,0.02,0.991,0,0,-0.061,0.467,-2.955,-103.782
 14:14:57.711,eb:33:2e:f9:57:b5, 2085-97-106 00:39:00:2030,0.051,0.019,0.991,0,0,0,0.467,-2.955,-103.782
 14:14:57.711,eb:33:2e:f9:57:b5, 2085-97-105 00:40:00:2030,0.052,0.019,0.991,0,0,0,0.467,-2.955,-103.782
 14:14:57.711,eb:33:2e:f9:57:b5, 2085-97-105 00:43:00:2030,0.051,0.021,0.992,-0.061,0,0,0.467,-2.955,-103.782
 14:14:57.711,eb:33:2e:f9:57:b5, 2085-97-105 00:40:00:2029,0.051,0.02,0.992,0,0.061,0,0.467,-2.955,-103.782
 14:14:57.770,eb:33:2e:f9:57:b5, 2085-97-104 00:41:00:2030,0.051,0.02,0.991,0,0,0,0.467,-2.955,-103.782
 14:14:57.770,eb:33:2e:f9:57:b5, 2085-97-104 00:41:00:2028,0.051,0.02,0.992,0,0,0,0.467,-2.955,-103.782
 14:14:57.770,eb:33:2e:f9:57:b5, 2085-97-105 00:40:00:2030,0.051,0.02,0.991,0,0,0,0.467,-2.955,-103.782
 14:14:57.771,eb:33:2e:f9:57:b5, 2085-97-105 00:42:00:2029,0.051,0.02,0.991,0,-0.061,0,0.467,-2.955,-103.782
 14:14:57.799,eb:33:2e:f9:57:b5, 2085-97-104 00:42:00:2030,0.051,0.021,0.992,0,0,0,0.467,-2.955,-103.782
 14:14:57.799,eb:33:2e:f9:57:b5, 2085-97-105 00:42:00:2032,0.051,0.02,0.992,0.061,0,0,0.467,-2.955,-103.782
 14:14:57.799,eb:33:2e:f9:57:b5, 2085-97-105 00:40:00:2031,0.051,0.02,0.992,0,0.061,0.061,0.467,-2.955,-103.782
 14:14:57.799,eb:33:2e:f9:57:b5, 2085-97-105 00:40:00:2030,0.051,0.02,0.991,0,0.061,0.061,0.467,-2.955,-103.782
 14:14:57.859,eb:33:2e:f9:57:b5, 2085-97-106 00:41:00:2029,0.051,0.021,0.992,0,0.061,0.122,0.467,-2.955,-103.782
 14:14:57.859,eb:33:2e:f9:57:b5, 2085-97-105 00:41:00:2028,0.051,0.02,0.991,0,0,0.061,0.467,-2.955,-103.782
 14:14:57.859,eb:33:2e:f9:57:b5, 2085-97-104 00:40:00:2028,0.052,0.02,0.991,0,0,0.061,0.467,-2.955,-103.782
 14:14:57.859,eb:33:2e:f9:57:b5, 2085-97-106 00:41:00:2031,0.052,0.02,0.991,0,0,0.061,0.467,-2.955,-103.782
 14:14:57.889,eb:33:2e:f9:57:b5, 2085-97-107 00:41:00:2031,0.051,0.02,0.991,0,0,0.061,0.467,-2.955,-103.782
 14:14:57.889,eb:33:2e:f9:57:b5, 2085-97-106 00:42:00:2031,0.051,0.021,0.991,0,0,0,0.467,-2.955,-103.782
 14:14:57.889,eb:33:2e:f9:57:b5, 2085-97-105 00:41:00:2030,0.051,0.02,0.992,0,0,0.061,0.467,-2.955,-103.782
 14:14:57.889,eb:33:2e:f9:57:b5, 2085-97-105 00:40:00:2029,0.052,0.02,0.991,0,0,0.061,0.467,-2.955,-103.782
 14:14:57.920,eb:33:2e:f9:57:b5, 2085-97-106 00:40:00:2029,0.051,0.02,0.992,-0.061,0.061,0,0.467,-2.955,-103.782
 14:14:57.920,eb:33:2e:f9:57:b5, 2085-97-105 00:39:00:2029,0.051,0.02,0.991,0,0,0.061,0.467,-2.955,-103.782
 14:14:57.920,eb:33:2e:f9:57:b5, 2085-97-106 00:39:00:2029,0.051,0.02,0.991,0,0,0.061,0.467,-2.955,-103.782
 14:14:57.920,eb:33:2e:f9:57:b5, 2085-97-104 00:41:00:2029,0.051,0.019,0.991,0,0,0.122,0.467,-2.955,-103.782
 14:14:57.981,eb:33:2e:f9:57:b5, 2085-97-106 00:41:00:2031,0.051,0.02,0.991,-0.061,0,0.061,0.467,-2.955,-103.782
 14:14:57.981,eb:33:2e:f9:57:b5, 2085-97-105 00:40:00:2031,0.052,0.02,0.992,0,0.061,0.183,0.467,-2.955,-103.782
 14:14:57.981,eb:33:2e:f9:57:b5, 2085-97-103 00:41:00:2030,0.051,0.019,0.991,0,0.061,0.122,0.467,-2.955,-103.782
 14:14:57.981,eb:33:2e:f9:57:b5, 2085-97-105 00:42:00:2029,0.052,0.021,0.991,0,0.061,0.061,0.467,-2.955,-103.782
 14:14:57.981,eb:33:2e:f9:57:b5, 2085-97-105 00:41:00:2028,0.051,0.02,0.991,0,0.061,0,0.467,-2.955,-103.782
 14:14:58.010,eb:33:2e:f9:57:b5, 2085-113-58 00:165:226:-1905,0.052,0.021,0.991,0,0,0.061,0.467,-2.955,-103.782
 14:14:58.010,eb:33:2e:f9:57:b5, 2085-97-105 00:41:00:2030,0.051,0.02,0.991,0,0,0.061,0.467,-2.955,-103.782
 14:14:58.010,eb:33:2e:f9:57:b5, 2085-97-104 00:41:00:2029,0.052,0.019,0.991,0,0,0,0.467,-2.955,-103.782
 14:14:58.010,eb:33:2e:f9:57:b5, 2085-97-105 00:40:00:2029,0.051,0.02,0.991,-0.061,0,0.122,0.467,-2.955,-103.782
 14:14:58.040,eb:33:2e:f9:57:b5, 2085-97-103 00:38:00:2030,0.05,0.02,0.991,0,0,0.122,0.467,-2.955,-103.782
 14:14:58.040,eb:33:2e:f9:57:b5, 2085-97-104 00:41:00:2029,0.051,0.019,0.991,0,0,0.122,0.467,-2.955,-103.782
 14:14:58.040,eb:33:2e:f9:57:b5, 2085-97-104 00:42:00:2029,0.052,0.02,0.991,-0.061,0.061,0.122,0.467,-2.955,-103.782
 14:14:58.040,eb:33:2e:f9:57:b5, 2085-97-105 00:41:00:2029,0.051,0.021,0.991,0,0,0.061,0.467,-2.955,-103.782
 14:14:58.099,eb:33:2e:f9:57:b5, 2085-97-106 00:41:00:2029,0.051,0.02,0.991,0,0,0,0.467,-2.955,-103.782
 14:14:58.099,eb:33:2e:f9:57:b5, 2085-97-106 00:43:00:2030,0.051,0.021,0.991,0,0,0,0.467,-2.955,-103.782
 14:14:58.099,eb:33:2e:f9:57:b5, 2085-97-104 00:40:00:2028,0.051,0.02,0.991,0,0,0.061,0.467,-2.955,-103.782
 14:14:58.099,eb:33:2e:f9:57:b5, 2085-97-105 00:39:00:2028,0.051,0.019,0.991,0,-0.061,0,0.467,-2.955,-103.782
 14:14:58.130,eb:33:2e:f9:57:b5, 2085-97-104 00:40:00:2029,0.051,0.02,0.991,0,0,0.061,0.467,-2.955,-103.782
 14:14:58.130,eb:33:2e:f9:57:b5, 2085-97-106 00:41:00:2029,0.053,0.02,0.991,0,0,0.183,0.467,-2.955,-103.788
 14:14:58.130,eb:33:2e:f9:57:b5, 2085-97-106 00:40:00:2030,0.052,0.02,0.991,0,0,0.061,0.467,-2.955,-103.788
 14:14:58.130,eb:33:2e:f9:57:b5, 2085-97-107 00:42:00:2030,0.051,0.02,0.991,0.122,0,0.061,0.467,-2.955,-103.788
 14:14:58.160,eb:33:2e:f9:57:b5, 2085-97-104 00:40:00:2031,0.051,0.021,0.991,0.122,0,0,0.467,-2.955,-103.788
 14:14:58.160,eb:33:2e:f9:57:b5, 2085-97-105 00:42:00:2030,0.051,0.02,0.991,0.061,0,0,0.467,-2.955,-103.788
 14:14:58.160,eb:33:2e:f9:57:b5, 2085-97-105 00:43:00:2031,0.052,0.021,0.991,0.061,0,0.061,0.467,-2.955,-103.788
 14:14:58.160,eb:33:2e:f9:57:b5, 2085-97-105 00:42:00:2030,0.051,0.02,0.992,0.061,0,0.061,0.467,-2.955,-103.788
 14:14:58.220,eb:33:2e:f9:57:b5, 2085-97-104 00:40:00:2030,0.051,0.02,0.991,0.061,0.061,0,0.467,-2.955,-103.788
 14:14:58.220,eb:33:2e:f9:57:b5, 2085-97-106 00:41:00:2030,0.051,0.019,0.991,0.122,0.061,0,0.467,-2.955,-103.788
 14:14:58.220,eb:33:2e:f9:57:b5, 2085-97-105 00:41:00:2030,0.052,0.02,0.991,0.061,0,0,0.467,-2.955,-103.788
 14:14:58.220,eb:33:2e:f9:57:b5, 2085-97-106 00:40:00:2030,0.052,0.02,0.992,0.061,0,0,0.467,-2.955,-103.788
 14:14:58.252,eb:33:2e:f9:57:b5, 2085-97-106 00:41:00:2029,0.051,0.02,0.991,0.122,0.061,0,0.467,-2.955,-103.788
 14:14:58.252,eb:33:2e:f9:57:b5, 2085-97-106 00:42:00:2029,0.053,0.02,0.99,0.061,0,0,0.467,-2.955,-103.788
 14:14:58.252,eb:33:2e:f9:57:b5, 2085-97-107 00:43:00:2032,0.052,0.021,0.992,0.061,0,0,0.467,-2.955,-103.788
 14:14:58.252,eb:33:2e:f9:57:b5, 2085-97-103 00:41:00:2029,0.051,0.02,0.992,0.061,0,0,0.467,-2.955,-103.788
 14:14:58.281,eb:33:2e:f9:57:b5, 2085-97-104 00:42:00:2029,0.052,0.02,0.991,0.061,0,0,0.467,-2.955,-103.788
 14:14:58.281,eb:33:2e:f9:57:b5, 2085-97-105 00:43:00:2030,0.051,0.021,0.991,0.061,0,0,0.467,-2.955,-103.788
 14:14:58.281,eb:33:2e:f9:57:b5, 2085-97-106 00:41:00:2028,0.052,0.021,0.991,0.122,0,0,0.467,-2.955,-103.788
 14:14:58.281,eb:33:2e:f9:57:b5, 2085-97-107 00:43:00:2031,0.051,0.021,0.991,0,0,0,0.467,-2.955,-103.788
 14:14:58.341,eb:33:2e:f9:57:b5, 2085-97-103 00:43:00:2030,0.051,0.021,0.991,0.061,0.122,0.061,0.467,-2.955,-103.788
 14:14:58.341,eb:33:2e:f9:57:b5, 2085-97-104 00:42:00:2029,0.052,0.021,0.991,0,0,0,0.467,-2.955,-103.788
 14:14:58.341,eb:33:2e:f9:57:b5, 2085-97-105 00:43:00:2030,0.05,0.02,0.99,0,0,0,0.467,-2.955,-103.788
 14:14:58.341,eb:33:2e:f9:57:b5, 2085-97-105 00:41:00:2031,0.052,0.021,0.991,0,0,-0.061,0.467,-2.955,-103.788
 14:14:58.370,eb:33:2e:f9:57:b5, 2085-97-106 00:42:00:2031,0.052,0.021,0.991,0.061,0,0,0.467,-2.955,-103.788
 14:14:58.370,eb:33:2e:f9:57:b5, 2085-97-105 00:40:00:2031,0.051,0.02,0.992,0.061,0,0,0.467,-2.955,-103.788
 14:14:58.370,eb:33:2e:f9:57:b5, 2085-97-105 00:42:00:2029,0.051,0.021,0.991,0.061,0.061,0,0.467,-2.955,-103.788
 14:14:58.370,eb:33:2e:f9:57:b5, 2085-97-103 00:41:00:2029,0.052,0.021,0.99,0.061,0,-0.061,0.467,-2.955,-103.788
 14:14:58.431,eb:33:2e:f9:57:b5, 2085-97-107 00:41:00:2029,0.052,0.021,0.99,0.061,-0.122,-0.061,0.467,-2.955,-103.788
 14:14:58.431,eb:33:2e:f9:57:b5, 2085-97-107 00:42:00:2030,0.052,0.02,0.992,0.061,0,-0.061,0.467,-2.955,-103.788
 14:14:58.431,eb:33:2e:f9:57:b5, 2085-97-104 00:42:00:2029,0.051,0.02,0.991,0,0,0,0.467,-2.955,-103.788
 14:14:58.431,eb:33:2e:f9:57:b5, 2085-97-106 00:41:00:2030,0.052,0.021,0.99,0,0,0,0.467,-2.955,-103.788
