Time,Device name,Chip Time(),Acceleration X(g),Acceleration Y(g),Acceleration Z(g),Angular velocity X(°/s),Angular velocity Y(°/s),Angular velocity Z(°/s),Angle X(°),Angle Y(°),Angle Z(°)
 14:22:52.101,eb:33:2e:f9:57:b5, 2085-97-48 02:247:255:1914,0.277,-0.004,0.929,0.671,5.859,0,1.412,-12.651,43.489
 14:22:52.101,eb:33:2e:f9:57:b5, 2085-97-63 02:253:255:1924,0.284,-0.003,0.938,0.366,4.944,0.427,1.417,-12.596,43.489
 14:22:52.101,eb:33:2e:f9:57:b5, 2085-97-71 02:253:255:1933,0.29,-0.001,0.942,0.427,3.235,0.183,1.423,-12.557,43.495
 14:22:52.101,eb:33:2e:f9:57:b5, 2085-97-90 02:251:255:1955,0.289,-0.004,0.948,0.488,2.502,-0.183,1.428,-12.53,43.489
 14:22:52.101,eb:33:2e:f9:57:b5, 2085-97-74 02:250:255:1951,0.282,-0.003,0.956,0.305,5.92,0,1.434,-12.491,43.484
 14:22:52.101,eb:33:2e:f9:57:b5, 2085-97-53 02:253:255:1919,0.272,-0.001,0.945,0.244,8.24,0.122,1.439,-12.42,43.484
 14:22:52.101,eb:33:2e:f9:57:b5, 2085-97-51 02:252:255:1912,0.276,-0.002,0.933,0.366,5.127,-0.366,1.445,-12.349,43.484
 14:22:52.102,eb:33:2e:f9:57:b5, 2085-97-62 02:249:255:1937,0.283,-0.003,0.939,0.793,0.305,-1.221,1.456,-12.327,43.467
 14:22:52.104,eb:33:2e:f9:57:b5, 2085-97-65 02:250:255:1945,0.278,-0.003,0.949,0.671,1.16,-1.16,1.467,-12.327,43.456
 14:22:52.104,eb:33:2e:f9:57:b5, 2085-97-51 02:246:255:1930,0.276,-0.003,0.946,0.488,3.174,-0.854,1.478,-12.299,43.44
 14:22:52.104,eb:33:2e:f9:57:b5, 2085-97-56 02:250:255:1932,0.279,-0.004,0.941,0.61,0.977,-1.038,1.483,-12.277,43.429
 14:22:52.104,eb:33:2e:f9:57:b5, 2085-97-59 02:245:255:1947,0.279,-0.003,0.947,0.61,0.244,-1.038,1.5,-12.277,43.412
 14:22:52.161,eb:33:2e:f9:57:b5, 2085-97-58 02:245:255:1943,0.279,-0.005,0.95,0.549,1.831,-0.61,1.505,-12.266,43.407
 14:22:52.161,eb:33:2e:f9:57:b5, 2085-97-65 02:250:255:1947,0.283,-0.005,0.948,0.793,1.587,-0.427,1.516,-12.25,43.396
 14:22:52.161,eb:33:2e:f9:57:b5, 2085-97-69 02:251:255:1959,0.283,-0.003,0.955,0.977,1.77,-0.366,1.527,-12.233,43.391
 14:22:52.161,eb:33:2e:f9:57:b5, 2085-97-68 02:00:00:1952,0.281,-0.002,0.956,0.916,4.333,0,1.538,-12.206,43.385
 14:22:52.221,eb:33:2e:f9:57:b5, 2085-97-61 02:253:255:1944,0.278,-0.001,0.953,0.916,5.798,0,1.549,-12.151,43.385
 14:22:52.221,eb:33:2e:f9:57:b5, 2085-97-54 02:254:255:1940,0.274,-0.001,0.948,0.854,5.798,-0.183,1.56,-12.096,43.38
 14:22:52.221,eb:33:2e:f9:57:b5, 2085-97-52 02:00:00:1937,0.275,0,0.946,0.732,6.348,-0.122,1.571,-12.036,43.38
 14:22:52.221,eb:33:2e:f9:57:b5, 2085-97-48 02:00:00:1939,0.271,0,0.947,0.732,5.615,-0.427,1.582,-11.975,43.369
 14:22:52.224,eb:33:2e:f9:57:b5, 2085-97-34 02:253:255:1929,0.263,-0.002,0.946,0.549,6.47,-0.305,1.588,-11.915,43.369
 14:22:52.224,eb:33:2e:f9:57:b5, 2085-97-23 02:254:255:1915,0.26,-0.002,0.939,0.305,5.981,-0.061,1.599,-11.854,43.358
 14:22:52.224,eb:33:2e:f9:57:b5, 2085-97-21 02:254:255:1915,0.262,-0.001,0.934,0.122,2.747,-0.122,1.599,-11.81,43.358
 14:22:52.224,eb:33:2e:f9:57:b5, 2085-97-32 02:255:255:1928,0.268,0,0.938,0,0,-0.183,1.604,-11.799,43.352
 14:22:52.341,eb:33:2e:f9:57:b5, 2085-97-41 02:255:255:1939,0.272,0,0.944,-0.061,-1.038,-0.183,1.604,-11.805,43.352
 14:22:52.341,eb:33:2e:f9:57:b5, 2085-97-48 02:253:255:1952,0.275,-0.001,0.95,-0.122,-1.16,-0.183,1.604,-11.821,43.341
 14:22:52.341,eb:33:2e:f9:57:b5, 2085-97-50 02:252:255:1952,0.272,-0.002,0.953,-0.122,-0.183,-0.122,1.604,-11.827,43.341
 14:22:52.341,eb:33:2e:f9:57:b5, 2085-97-42 02:254:255:1942,0.269,-0.001,0.952,-0.183,0.854,0,1.604,-11.827,43.336
 14:22:52.343,eb:33:2e:f9:57:b5, 2085-97-38 02:253:255:1932,0.27,-0.001,0.945,-0.122,0.671,-0.061,1.599,-11.816,43.336
 14:22:52.343,eb:33:2e:f9:57:b5, 2085-97-48 02:251:255:1948,0.277,-0.003,0.946,0.061,-1.648,-0.366,1.604,-11.821,43.33
 14:22:52.343,eb:33:2e:f9:57:b5, 2085-97-54 02:255:255:1960,0.273,-0.001,0.955,0.122,-0.732,-0.183,1.604,-11.838,43.325
 14:22:52.343,eb:33:2e:f9:57:b5, 2085-97-43 02:254:255:1943,0.269,0,0.954,-0.061,2.747,0.122,1.609,-11.827,43.319
 14:22:52.345,eb:33:2e:f9:57:b5, 2085-97-37 02:251:255:1938,0.27,-0.001,0.945,0.061,1.282,-0.122,1.609,-11.805,43.319
 14:22:52.345,eb:33:2e:f9:57:b5, 2085-97-40 02:252:255:1946,0.271,-0.002,0.949,0.244,0,-0.244,1.615,-11.805,43.314
 14:22:52.345,eb:33:2e:f9:57:b5, 2085-97-44 02:254:255:1948,0.272,-0.001,0.951,0.122,0.854,0,1.615,-11.799,43.308
 14:22:52.345,eb:33:2e:f9:57:b5, 2085-97-39 02:254:255:1940,0.266,0,0.95,0,1.526,0,1.62,-11.788,43.308
 14:22:52.433,eb:33:2e:f9:57:b5, 2085-97-28 02:254:255:1927,0.262,0,0.945,-0.183,2.319,0.305,1.615,-11.766,43.308
 14:22:52.433,eb:33:2e:f9:57:b5, 2085-97-25 02:00:00:1921,0.263,-0.001,0.939,-0.366,0.732,0.305,1.615,-11.75,43.308
 14:22:52.433,eb:33:2e:f9:57:b5, 2085-97-29 02:00:00:1924,0.264,0,0.938,-0.61,-1.404,0.305,1.609,-11.755,43.314
 14:22:52.433,eb:33:2e:f9:57:b5, 2085-97-30 02:00:00:1924,0.265,-0.001,0.94,-0.977,-2.136,0.427,1.599,-11.777,43.308
 14:22:52.433,eb:33:2e:f9:57:b5, 2085-97-32 02:251:255:1926,0.265,-0.001,0.94,-1.221,-3.296,0.427,1.588,-11.805,43.314
 14:22:52.433,eb:33:2e:f9:57:b5, 2085-97-37 02:254:255:1929,0.271,-0.002,0.941,-1.343,-5.005,0.488,1.577,-11.849,43.314
 14:22:52.433,eb:33:2e:f9:57:b5, 2085-97-46 02:252:255:1942,0.272,-0.001,0.945,-1.526,-6.042,0.366,1.56,-11.909,43.319
 14:22:52.433,eb:33:2e:f9:57:b5, 2085-97-43 02:247:255:1943,0.272,-0.003,0.95,-1.648,-5.432,0.549,1.544,-11.964,43.319
 14:22:52.491,eb:33:2e:f9:57:b5, 2085-97-50 02:247:255:1942,0.278,-0.005,0.948,-1.587,-5.859,0.671,1.522,-12.019,43.325
 14:22:52.491,eb:33:2e:f9:57:b5, 2085-97-62 02:248:255:1957,0.279,-0.002,0.952,-1.343,-6.653,0.488,1.511,-12.09,43.325
 14:22:52.491,eb:33:2e:f9:57:b5, 2085-97-52 02:245:255:1945,0.275,-0.006,0.955,-1.343,-3.906,0.977,1.494,-12.14,43.336
 14:22:52.491,eb:33:2e:f9:57:b5, 2085-97-49 02:248:255:1929,0.274,-0.004,0.945,-1.404,-3.296,1.221,1.478,-12.173,43.341
 14:22:52.551,eb:33:2e:f9:57:b5, 2085-97-50 02:248:255:1931,0.274,-0.002,0.942,-1.343,-5.31,0.916,1.461,-12.222,43.352
 14:22:52.551,eb:33:2e:f9:57:b5, 2085-97-43 02:246:255:1926,0.277,-0.004,0.941,-1.587,-5.188,1.221,1.445,-12.272,43.358
 14:22:52.551,eb:33:2e:f9:57:b5, 2085-97-55 02:248:255:1927,0.279,-0.002,0.939,-1.709,-6.775,1.16,1.423,-12.332,43.374
 14:22:52.551,eb:33:2e:f9:57:b5, 2085-97-69 02:248:255:1938,0.286,-0.004,0.943,-1.709,-8.24,1.038,1.406,-12.409,43.38
 14:22:52.553,eb:33:2e:f9:57:b5, 2085-97-71 02:245:255:1944,0.283,-0.004,0.949,-1.831,-7.568,1.038,1.384,-12.491,43.391
 14:22:52.553,eb:33:2e:f9:57:b5, 2085-97-64 02:245:255:1933,0.28,-0.005,0.948,-2.014,-5.554,1.404,1.362,-12.557,43.396
 14:22:52.553,eb:33:2e:f9:57:b5, 2085-97-65 02:244:255:1925,0.285,-0.006,0.94,-2.075,-6.287,1.465,1.34,-12.618,43.412
 14:22:52.553,eb:33:2e:f9:57:b5, 2085-97-81 02:246:255:1938,0.293,-0.005,0.941,-1.709,-9.033,0.977,1.318,-12.695,43.418
 14:22:52.700,eb:33:2e:f9:57:b5, 2085-97-91 02:243:255:1950,0.295,-0.005,0.95,-1.465,-8.972,0.61,1.296,-12.788,43.423
 14:22:52.700,eb:33:2e:f9:57:b5, 2085-97-88 02:241:255:1944,0.292,-0.007,0.952,-1.404,-6.287,0.793,1.285,-12.865,43.429
 14:22:52.700,eb:33:2e:f9:57:b5, 2085-113-58 00:216:235:-5625,0.29,-0.007,0.948,-1.282,-5.188,0.732,1.269,-12.92,43.434
 14:22:52.700,eb:33:2e:f9:57:b5, 2085-97-80 02:241:255:1931,0.289,-0.008,0.945,-1.282,-5.066,0.671,1.263,-12.947,43.434
 14:22:52.700,eb:33:2e:f9:57:b5, 2085-97-76 02:240:255:1926,0.287,-0.007,0.941,-1.16,-5.493,0.671,1.247,-13.002,43.445
 14:22:52.703,eb:33:2e:f9:57:b5, 2085-97-77 02:240:255:1918,0.289,-0.007,0.939,-1.221,-5.92,0.793,1.236,-13.063,43.445
 14:22:52.703,eb:33:2e:f9:57:b5, 2085-97-84 02:239:255:1920,0.294,-0.009,0.936,-1.099,-7.874,0.671,1.219,-13.129,43.451
 14:22:52.703,eb:33:2e:f9:57:b5, 2085-97-97 02:239:255:1937,0.297,-0.009,0.941,-1.038,-9.155,0.549,1.208,-13.217,43.456
 14:22:52.703,eb:33:2e:f9:57:b5, 2085-97-99 02:241:255:1934,0.297,-0.008,0.947,-1.038,-7.751,0.793,1.198,-13.304,43.462
 14:22:52.705,eb:33:2e:f9:57:b5, 2085-97-94 02:239:255:1927,0.298,-0.008,0.943,-1.099,-6.714,0.854,1.187,-13.376,43.467
 14:22:52.705,eb:33:2e:f9:57:b5, 2085-97-100 02:238:255:1926,0.302,-0.008,0.938,-0.977,-7.446,0.732,1.176,-13.447,43.473
 14:22:52.705,eb:33:2e:f9:57:b5, 2085-97-112 02:236:255:1937,0.305,-0.009,0.943,-0.854,-7.874,0.61,1.165,-13.524,43.478
 14:22:52.706,eb:33:2e:f9:57:b5, 2085-97-116 02:237:255:1939,0.307,-0.01,0.947,-0.732,-6.165,0.732,1.154,-13.596,43.484
 14:22:52.708,eb:33:2e:f9:57:b5, 2085-97-120 02:242:255:1935,0.306,-0.009,0.947,-0.671,-4.15,0.671,1.148,-13.651,43.484
 14:22:52.708,eb:33:2e:f9:57:b5, 2085-97-110 02:237:255:1930,0.3,-0.009,0.945,-0.549,-2.93,0.427,1.143,-13.683,43.489
 14:22:52.708,eb:33:2e:f9:57:b5, 2085-97-97 02:238:255:1913,0.295,-0.01,0.938,-0.671,-1.526,0.61,1.132,-13.705,43.495
 14:22:52.708,eb:33:2e:f9:57:b5, 2085-97-94 02:238:255:1903,0.297,-0.008,0.931,-0.732,-3.357,0.61,1.126,-13.727,43.5
 14:22:52.851,eb:33:2e:f9:57:b5, 2085-97-99 02:234:255:1911,0.3,-0.01,0.932,-0.793,-5.859,0.427,1.115,-13.777,43.5
 14:22:52.851,eb:33:2e:f9:57:b5, 2085-97-103 02:234:255:1912,0.299,-0.01,0.933,-1.038,-6.897,0.671,1.104,-13.843,43.506
 14:22:52.851,eb:33:2e:f9:57:b5, 2085-97-102 02:234:255:1908,0.3,-0.011,0.933,-1.16,-7.935,1.038,1.093,-13.92,43.511
 14:22:52.851,eb:33:2e:f9:57:b5, 2085-97-109 02:234:255:1909,0.311,-0.011,0.931,-1.099,-9.888,1.221,1.077,-14.008,43.522
 14:22:52.853,eb:33:2e:f9:57:b5, 2085-97-135 02:237:255:1924,0.319,-0.01,0.935,-0.793,-12.512,0.671,1.066,-14.123,43.528
 14:22:52.853,eb:33:2e:f9:57:b5, 2085-97-142 02:235:255:1937,0.317,-0.01,0.944,-0.671,-11.475,0.366,1.055,-14.249,43.533
 14:22:52.853,eb:33:2e:f9:57:b5, 2085-97-132 02:230:255:1920,0.308,-0.012,0.943,-0.793,-7.507,0.732,1.049,-14.343,43.533
 14:22:52.853,eb:33:2e:f9:57:b5, 2085-97-96 02:228:255:1892,0.283,-0.013,0.932,-0.977,-6.47,1.038,1.033,-14.409,43.544
 14:22:52.855,eb:33:2e:f9:57:b5, 2085-97-55 02:234:255:1836,0.292,-0.012,0.911,-2.136,-7.935,2.808,1.011,-14.48,43.561
 14:22:52.855,eb:33:2e:f9:57:b5, 2085-97-92 02:243:255:1843,0.288,-0.003,0.889,-2.075,-23.804,2.075,0.978,-14.634,43.594
 14:22:52.855,eb:33:2e:f9:57:b5, 2085-97-40 02:222:255:1842,0.26,-0.01,0.91,-3.235,-30.64,2.93,0.95,-14.93,43.61
 14:22:52.855,eb:33:2e:f9:57:b5, 2085-97-06 02:215:255:1756,0.252,-0.018,0.875,-5.371,-41.321,7.324,0.884,-15.271,43.671
 14:22:53.063,eb:33:2e:f9:57:b5, 2085-97-39 02:182:255:1790,0.293,-0.03,0.86,-4.15,-73.975,10.132,0.802,-15.853,43.764
 14:22:53.063,eb:33:2e:f9:57:b5, 2085-97-144 02:184:255:1875,0.348,-0.035,0.893,0,-103.394,16.174,0.731,-16.771,43.912
 14:22:53.063,eb:33:2e:f9:57:b5, 2085-97-39 03:217:255:1904,0.419,-0.028,0.926,2.441,-109.68,24.048,0.665,-17.858,44.138
 14:22:53.063,eb:33:2e:f9:57:b5, 2085-97-150 03:250:255:1941,0.459,-0.016,0.94,6.531,-110.352,26.184,0.599,-18.962,44.423
 14:22:53.067,eb:33:2e:f9:57:b5, 2085-97-161 03:232:255:1948,0.447,-0.006,0.953,8.179,-94.604,27.222,0.56,-19.995,44.72
 14:22:53.067,eb:33:2e:f9:57:b5, 2085-97-135 03:235:255:1863,0.454,-0.01,0.934,7.202,-71.228,30.029,0.5,-20.803,45.049
 14:22:53.067,eb:33:2e:f9:57:b5, 2085-97-193 03:11:00:1830,0.477,-0.005,0.893,7.202,-66.528,28.87,0.428,-21.473,45.385
 14:22:53.067,eb:33:2e:f9:57:b5, 2085-97-209 03:247:255:1885,0.476,0.003,0.908,5.859,-57.556,25.024,0.363,-22.099,45.692
 14:22:53.069,eb:33:2e:f9:57:b5, 2085-97-204 03:246:255:1873,0.482,-0.005,0.922,3.052,-34.241,24.841,0.28,-22.549,45.972
 14:22:53.069,eb:33:2e:f9:57:b5, 2085-97-235 03:202:255:1817,0.486,-0.003,0.899,0.793,-18.127,23.499,0.176,-22.786,46.247
 14:22:53.069,eb:33:2e:f9:57:b5, 2085-97-218 03:194:255:1837,0.481,-0.014,0.896,-0.793,-6.775,21.484,0.06,-22.906,46.494
 14:22:53.069,eb:33:2e:f9:57:b5, 2085-97-200 03:190:255:1814,0.469,-0.025,0.891,-2.319,5.371,21.423,-0.066,-22.896,46.736
 14:22:53.074,eb:33:2e:f9:57:b5, 2085-97-179 03:158:255:1789,0.458,-0.031,0.877,-2.991,10.742,18.738,-0.192,-22.802,46.956
 14:22:53.074,eb:33:2e:f9:57:b5, 2085-97-173 03:168:255:1779,0.456,-0.052,0.871,-2.563,12.878,15.198,-0.302,-22.676,47.142
 14:22:53.074,eb:33:2e:f9:57:b5, 2085-97-155 03:169:255:1794,0.447,-0.056,0.869,-2.075,12.817,12.024,-0.396,-22.544,47.28
 14:22:53.074,eb:33:2e:f9:57:b5, 2085-97-134 03:159:255:1787,0.432,-0.043,0.874,-2.197,13.611,8.728,-0.467,-22.407,47.39
 14:22:53.124,eb:33:2e:f9:57:b5, 2085-97-117 03:134:255:1769,0.434,-0.052,0.87,-1.709,11.719,5.249,-0.516,-22.28,47.455
 14:22:53.124,eb:33:2e:f9:57:b5, 2085-97-121 03:121:255:1775,0.432,-0.066,0.861,-0.244,6.287,2.075,-0.538,-22.187,47.494
 14:22:53.124,eb:33:2e:f9:57:b5, 2085-97-112 03:159:255:1797,0.431,-0.057,0.874,1.221,4.456,0.977,-0.538,-22.143,47.499
 14:22:53.124,eb:33:2e:f9:57:b5, 2085-97-113 03:174:255:1800,0.43,-0.043,0.877,1.831,3.479,0.793,-0.527,-22.099,47.51
 14:22:53.124,eb:33:2e:f9:57:b5, 2085-97-116 03:190:255:1803,0.433,-0.036,0.879,2.197,2.197,0.122,-0.505,-22.072,47.51
 14:22:53.124,eb:33:2e:f9:57:b5, 2085-97-120 03:195:255:1814,0.431,-0.029,0.883,2.136,1.343,-0.793,-0.483,-22.055,47.505
 14:22:53.124,eb:33:2e:f9:57:b5, 2085-97-123 03:192:255:1804,0.437,-0.036,0.884,2.258,3.052,-1.953,-0.45,-22.033,47.483
 14:22:53.124,eb:33:2e:f9:57:b5, 2085-97-125 03:187:255:1813,0.438,-0.03,0.882,2.563,2.991,-4.517,-0.412,-22.006,47.444
 14:22:53.181,eb:33:2e:f9:57:b5, 2085-97-161 03:190:255:1798,0.48,-0.032,0.884,3.235,4.333,-9.216,-0.346,-21.973,47.362
 14:22:53.181,eb:33:2e:f9:57:b5, 2085-97-32 04:159:255:1816,0.562,-0.041,0.878,4.272,3.357,-20.996,-0.236,-21.94,47.192
 14:22:53.181,eb:33:2e:f9:57:b5, 2085-97-246 04:01:00:1910,0.689,-0.035,0.904,2.625,14.893,-38.269,-0.049,-21.868,46.857
 14:22:53.181,eb:33:2e:f9:57:b5, 2085-97-241 05:122:00:2197,0.793,0.024,0.982,-3.174,55.969,-70.251,0.209,-21.533,46.241
 14:22:53.183,eb:33:2e:f9:57:b5, 2085-97-100 04:00:255:2707,0.371,0.062,1.188,-0.549,150.208,-108.032,0.615,-20.511,45.198
 14:22:53.183,eb:33:2e:f9:57:b5, 2085-97-255 05:167:254:2664,1.307,-0.155,1.372,13.55,284.973,-52.917,1.016,-18.182,44.302
 14:22:53.183,eb:33:2e:f9:57:b5, 2085-97-202 14:192:254:5428,2.623,-0.049,1.69,49.194,14.099,-64.88,1.588,-16.545,43.764
 14:22:53.183,eb:33:2e:f9:57:b5, 2085-97-245 24:02:254:8038,3.206,-0.102,3.463,102.356,-81.116,-103.394,2.631,-17.43,42.836
 14:22:53.211,eb:33:2e:f9:57:b5, 2085-97-62 22:169:248:3448,2.101,-0.55,3.252,165.771,266.846,-136.841,4.57,-16.408,41.534
 14:22:53.211,eb:33:2e:f9:57:b5, 2085-97-150 15:38:245:-1431,2.063,-1.298,0.027,98.999,517.822,-92.957,6.257,-11.953,40.622
 14:22:53.211,eb:33:2e:f9:57:b5, 2085-97-74 17:48:239:-680,2.176,-1.639,-0.763,41.87,151.917,-118.164,6.987,-8.267,39.974
 14:22:53.211,eb:33:2e:f9:57:b5, 2085-97-95 15:37:235:1379,1.571,-2.454,0.23,44.617,-63.293,-105.103,7.718,-8.438,38.688
 14:22:53.241,eb:33:2e:f9:57:b5, 2085-97-199 12:07:238:-2156,1.685,-2.42,0.066,7.751,327.637,23.071,8.036,-6.998,38.474
 14:22:53.241,eb:33:2e:f9:57:b5, 2085-97-194 12:173:239:-3381,1.465,-2.169,-1.628,-9.399,180.969,54.199,7.806,-3.961,39.419
 14:22:53.241,eb:33:2e:f9:57:b5, 2085-97-77 11:236:240:-1628,1.379,-1.91,-1.329,-4.456,-177.002,6.531,7.729,-4.384,39.617
 14:22:53.241,eb:33:2e:f9:57:b5, 2085-97-55 10:78:240:-149,1.102,-1.937,-0.323,-11.475,-223.511,16.785,7.679,-6.641,39.435
 14:22:53.301,eb:33:2e:f9:57:b5, 2085-97-120 07:201:240:-105,0.802,-1.965,-0.013,-35.4,-91.003,55.542,7.383,-8.201,39.644
 14:22:53.301,eb:33:2e:f9:57:b5, 2085-97-147 05:84:242:-014,0.615,-1.8,-0.068,-53.955,-88.074,65.43,6.79,-9.009,40.226
 14:22:53.301,eb:33:2e:f9:57:b5, 2085-97-111 04:98:243:635,0.502,-1.639,0.129,-66.895,-164.001,56.335,6.048,-10.393,40.715
 14:22:53.301,eb:33:2e:f9:57:b5, 2085-97-149 03:157:244:1365,0.39,-1.506,0.497,-83.435,-178.345,57.373,5.175,-12.211,41.149
 14:22:53.332,eb:33:2e:f9:57:b5, 2085-97-166 02:27:246:1887,0.281,-1.334,0.807,-100.891,-158.997,60.791,4.07,-13.936,41.666
 14:22:53.332,eb:33:2e:f9:57:b5, 2085-97-254 01:235:247:2307,0.235,-1.128,1.025,-113.22,-149.78,60.486,2.802,-15.491,42.242
 14:22:53.332,eb:33:2e:f9:57:b5, 2085-97-210 01:179:249:2745,0.223,-0.894,1.232,-120.117,-149.475,57.922,1.395,-17.007,42.847
 14:22:53.332,eb:33:2e:f9:57:b5, 2085-97-220 01:116:251:3085,0.245,-0.682,1.433,-123.352,-141.907,56.641,-0.055,-18.468,43.478
 14:22:53.421,eb:33:2e:f9:57:b5, 2085-97-04 02:54:253:3334,0.25,-0.454,1.574,-123.352,-128.113,56.824,-1.577,-19.808,44.149
 14:22:53.421,eb:33:2e:f9:57:b5, 2085-97-236 01:20:255:3385,0.239,-0.241,1.652,-116.211,-106.689,60.059,-3.076,-20.945,44.863
 14:22:53.421,eb:33:2e:f9:57:b5, 2085-97-03 02:107:01:3394,0.252,0.037,1.646,-92.834,-87.097,63.171,-4.493,-21.841,45.643
 14:22:53.422,eb:33:2e:f9:57:b5, 2085-97-230 01:01:03:3558,0.221,0.292,1.698,-58.716,-89.844,65.735,-5.598,-22.648,46.461
 14:22:53.424,eb:33:2e:f9:57:b5, 2085-97-169 01:220:03:3568,0.166,0.445,1.766,-26.123,-82.031,77.576,-6.443,-23.434,47.39
 14:22:53.424,eb:33:2e:f9:57:b5, 2085-97-226 00:146:04:3109,0.067,0.509,1.645,-6.958,-58.044,102.295,-7.108,-24.005,48.505
 14:22:53.424,eb:33:2e:f9:57:b5, 2085-97-106 00:89:06:2812,0.056,0.672,1.425,2.014,-55.542,126.404,-7.806,-24.351,49.911
 14:22:53.424,eb:33:2e:f9:57:b5, 2085-97-141 00:177:08:2774,0.07,0.931,1.349,7.812,-91.675,135.803,-8.531,-24.873,51.542
 14:22:53.451,eb:33:2e:f9:57:b5, 2085-97-86 00:194:10:3025,0.005,1.236,1.398,8.24,-110.107,138.428,-9.333,-25.675,53.311
 14:22:53.451,eb:33:2e:f9:57:b5, 2085-97-190 255:255:11:3305,-0.073,1.429,1.553,6.47,-91.492,135.498,-10.151,-26.417,55.096
 14:22:53.451,eb:33:2e:f9:57:b5, 2085-97-255 254:124:12:3416,-0.177,1.546,1.655,0.061,-59.631,125.061,-10.981,-26.884,56.761
 14:22:53.451,eb:33:2e:f9:57:b5, 2085-97-61 254:201:12:3205,-0.255,1.569,1.636,-14.282,-9.46,112.427,-11.788,-26.96,58.189
 14:22:53.482,eb:33:2e:f9:57:b5, 2085-113-58 00:184:237:-2760,-0.274,1.658,1.469,-31.555,48.889,95.703,-12.618,-26.494,59.31
 14:22:53.482,eb:33:2e:f9:57:b5, 2085-97-223 253:229:14:2590,-0.246,1.75,1.367,-37.659,67.383,82.092,-13.002,-26.093,59.716
 14:22:53.482,eb:33:2e:f9:57:b5, 2085-97-50 254:86:16:2243,-0.214,1.968,1.173,-43.579,72.144,43.457,-13.651,-25.23,60.194
 14:22:53.482,eb:33:2e:f9:57:b5, 2085-97-79 254:117:16:2044,-0.213,2.069,1.038,-43.945,59.753,1.16,-14.117,-24.549,60.222
 14:22:53.511,eb:33:2e:f9:57:b5, 2085-97-73 254:199:15:1982,-0.23,2.021,0.974,-39.673,45.349,-35.706,-14.359,-24.099,59.848
 14:22:53.511,eb:33:2e:f9:57:b5, 2085-97-251 253:152:14:2114,-0.273,1.903,0.984,-35.156,27.039,-62.5,-14.425,-23.901,59.172
 14:22:53.511,eb:33:2e:f9:57:b5, 2085-97-187 253:140:13:2442,1.456,1.752,1.108,-31.189,11.414,-78.552,-14.359,-23.917,58.332
 14:22:53.511,eb:33:2e:f9:57:b5, 2085-97-31 248:139:09:7010,0.268,2.324,2.052,113.098,-256.592,-302.124,-13.755,-24.626,57.03
 14:22:53.602,eb:33:2e:f9:57:b5, 2085-97-193 06:110:05:2860,0.871,2.205,2.572,68.115,66.04,-197.998,-11.689,-26.927,55.096
 14:22:53.602,eb:33:2e:f9:57:b5, 2085-97-22 04:214:252:1818,0.459,-0.433,0.772,78.003,330.688,-157.043,-9.783,-25.005,52.635
 14:22:53.602,eb:33:2e:f9:57:b5, 2085-97-237 03:161:252:1776,0.575,0.25,1.19,100.159,318.054,-97.473,-7.877,-21.643,50.565
 14:22:53.602,eb:33:2e:f9:57:b5, 2085-97-211 05:95:249:1267,0.751,-0.961,0.537,120.544,73.12,-76.782,-6.328,-19.924,49.356
 14:22:53.602,eb:33:2e:f9:57:b5, 2085-97-88 04:11:255:2940,0.409,-0.468,0.996,134.094,-36.377,-106.873,-4.576,-20.176,48.279
 14:22:53.603,eb:33:2e:f9:57:b5, 2085-97-160 02:08:01:2692,0.279,0.056,1.488,97.229,75.562,-32.166,-3.087,-20.001,47.488
 14:22:53.603,eb:33:2e:f9:57:b5, 2085-97-67 02:165:00:1954,0.296,0.147,1.114,65.002,98.816,17.395,-2.291,-19.023,47.433
 14:22:53.603,eb:33:2e:f9:57:b5, 2085-97-47 02:103:255:1796,0.256,0.015,0.863,61.584,27.039,17.761,-1.741,-18.391,47.593
 14:22:53.690,eb:33:2e:f9:57:b5, 2085-97-228 01:116:255:1944,0.245,-0.066,0.921,65.857,-38.635,28.503,-1.192,-18.506,47.845
 14:22:53.690,eb:33:2e:f9:57:b5, 2085-97-177 02:74:01:1869,0.381,-0.018,0.968,57.922,-61.096,34.302,-0.698,-19.001,48.224
 14:22:53.690,eb:33:2e:f9:57:b5, 2085-97-73 03:06:01:1680,0.461,0.206,0.854,17.578,-117.432,-7.019,-0.434,-19.951,48.422
 14:22:53.690,eb:33:2e:f9:57:b5, 2085-97-64 05:204:00:2057,0.638,0.068,0.95,8.911,-123.474,-19.531,-0.247,-21.231,48.263
 14:22:53.693,eb:33:2e:f9:57:b5, 2085-97-04 04:154:255:2396,0.347,0.034,1.146,-1.587,-8.179,-1.099,-0.154,-21.967,48.175
 14:22:53.693,eb:33:2e:f9:57:b5, 2085-97-101 02:197:255:1634,0.287,-0.081,1.028,-8.362,111.633,24.78,-0.286,-21.248,48.312
 14:22:53.693,eb:33:2e:f9:57:b5, 2085-97-112 02:44:00:1420,0.342,0.023,0.672,-0.244,21.423,3.967,-0.401,-20.49,48.472
 14:22:53.693,eb:33:2e:f9:57:b5, 2085-97-71 03:183:255:1826,0.49,-0.015,0.8,7.263,-71.838,-16.479,-0.313,-20.891,48.373
 14:22:53.723,eb:33:2e:f9:57:b5, 2085-97-125 04:255:255:1979,0.586,-0.031,0.948,7.141,-57.068,-13.489,-0.17,-21.599,48.219
 14:22:53.723,eb:33:2e:f9:57:b5, 2085-97-75 04:03:00:2005,0.469,0.018,0.977,-0.61,6.531,-12.878,-0.071,-21.852,48.082
 14:22:53.723,eb:33:2e:f9:57:b5, 2085-97-53 03:198:255:1823,0.364,-0.014,0.942,-5.31,52.856,-14.282,-0.044,-21.495,47.928
 14:22:53.723,eb:33:2e:f9:57:b5, 2085-97-21 03:183:255:1704,0.429,-0.042,0.844,-2.136,37.109,-20.447,0.005,-21.011,47.708
 14:22:53.782,eb:33:2e:f9:57:b5, 2085-97-144 03:206:255:1925,0.424,-0.023,0.874,1.526,9.705,-25.635,0.121,-20.83,47.444
 14:22:53.782,eb:33:2e:f9:57:b5, 2085-97-45 03:179:255:1954,0.394,-0.036,0.976,-0.549,42.297,-20.203,0.242,-20.594,47.175
 14:22:53.782,eb:33:2e:f9:57:b5, 2085-97-255 02:239:255:1783,0.368,-0.016,0.899,-0.977,58.35,-15.259,0.308,-20.034,46.983
 14:22:53.782,eb:33:2e:f9:57:b5, 2085-97-00 03:238:255:1780,0.397,-0.004,0.861,0.244,37.842,-15.259,0.374,-19.556,46.807
 14:22:53.782,eb:33:2e:f9:57:b5, 2085-97-66 03:222:255:1884,0.411,-0.005,0.889,1.221,22.278,-16.602,0.456,-19.281,46.626
 14:22:53.840,eb:33:2e:f9:57:b5, 2085-113-81 00:180:140:-2411,0.418,-0.026,0.944,0.61,34.485,-10.315,0.527,-19.012,46.467
 14:22:53.840,eb:33:2e:f9:57:b5, 2085-97-86 03:211:255:1938,0.418,-0.019,0.945,0.427,44.006,-7.019,0.549,-18.809,46.423
 14:22:53.840,eb:33:2e:f9:57:b5, 2085-97-44 03:212:255:1962,0.388,-0.013,0.948,2.014,59.998,-2.869,0.582,-18.281,46.362
 14:22:53.840,eb:33:2e:f9:57:b5, 2085-97-16 03:235:255:1922,0.366,-0.014,0.948,3.784,76.111,0.854,0.621,-17.584,46.351
 14:22:53.842,eb:33:2e:f9:57:b5, 2085-97-214 02:233:255:1894,0.355,-0.009,0.93,5.981,78.064,-0.305,0.676,-16.804,46.335
 14:22:53.842,eb:33:2e:f9:57:b5, 2085-97-201 02:234:255:1914,0.36,-0.002,0.922,8.85,70.007,-3.235,0.758,-16.062,46.318
 14:22:53.842,eb:33:2e:f9:57:b5, 2085-97-227 02:237:255:1990,0.362,-0.007,0.949,12.634,64.148,-6.958,0.89,-15.403,46.252
 14:22:53.842,eb:33:2e:f9:57:b5, 2085-97-160 02:199:255:2051,0.325,0.004,0.977,13.672,79.407,-8.301,1.055,-14.7,46.165
 14:22:53.931,eb:33:2e:f9:57:b5, 2085-97-109 02:210:255:2007,0.314,0,0.979,12.695,102.112,-3.54,1.203,-13.771,46.104
 14:22:53.931,eb:33:2e:f9:57:b5, 2085-97-213 01:156:255:2012,0.258,0.012,0.952,11.902,108.887,-2.258,1.335,-12.706,46.088
 14:22:53.931,eb:33:2e:f9:57:b5, 2085-97-76 01:81:255:2162,0.146,0.005,0.948,13.245,110.962,4.15,1.45,-11.569,46.126
 14:22:53.931,eb:33:2e:f9:57:b5, 2085-97-201 01:155:255:2240,0.232,-0.154,1.114,37.781,85.51,9.888,1.664,-10.541,46.203
 14:22:53.933,eb:33:2e:f9:57:b5, 2085-97-228 01:23:00:2065,0.269,-0.03,1.062,57.556,15.381,-5.432,2.175,-10.113,46.203
 14:22:53.933,eb:33:2e:f9:57:b5, 2085-97-236 01:236:255:2211,0.251,0.046,1.003,52.734,5.31,-10.559,2.747,-10.02,46.132
 14:22:53.933,eb:33:2e:f9:57:b5, 2085-97-56 02:44:00:2186,0.277,-0.016,1.092,58.777,-2.747,-13.733,3.329,-10.009,45.994
 14:22:53.933,eb:33:2e:f9:57:b5, 2085-97-37 02:64:00:2168,0.264,0.032,1.049,62.805,-3.54,-18.433,3.988,-10.047,45.818
 14:22:54.052,eb:33:2e:f9:57:b5, 2085-97-52 02:86:00:2183,0.291,0.028,1.065,64.575,-3.052,-20.569,4.675,-10.063,45.61
 14:22:54.052,eb:33:2e:f9:57:b5, 2085-97-116 02:139:00:2226,0.308,0.058,1.065,67.81,-8.789,-24.902,5.4,-10.102,45.374
 14:22:54.052,eb:33:2e:f9:57:b5, 2085-97-136 02:87:00:2399,0.33,0.051,1.131,71.838,-11.292,-30.212,6.169,-10.195,45.066
 14:22:54.052,eb:33:2e:f9:57:b5, 2085-97-170 02:117:00:2386,0.319,0.043,1.181,81.299,1.343,-34.607,7.02,-10.223,44.731
 14:22:54.054,eb:33:2e:f9:57:b5, 2085-97-91 02:142:00:2277,0.279,0.068,1.136,86.426,33.875,-35.767,7.954,-10.003,44.379
 14:22:54.054,eb:33:2e:f9:57:b5, 2085-97-41 02:168:00:2219,0.272,0.072,1.095,90.027,54.199,-35.217,8.91,-9.481,44.083
 14:22:54.054,eb:33:2e:f9:57:b5, 2085-97-72 02:201:00:2257,0.303,0.095,1.083,97.29,48.34,-36.621,9.915,-8.915,43.792
 14:22:54.054,eb:33:2e:f9:57:b5, 2085-97-179 02:243:00:2442,0.382,0.108,1.142,105.774,43.823,-40.344,11.003,-8.405,43.473
 14:22:54.057,eb:33:2e:f9:57:b5, 2085-97-61 03:24:01:2661,0.412,0.138,1.241,116.211,46.875,-46.143,12.195,-7.894,43.116
 14:22:54.057,eb:33:2e:f9:57:b5, 2085-97-25 03:01:01:2791,0.362,0.135,1.346,123.84,80.872,-47.302,13.469,-7.185,42.77
 14:22:54.057,eb:33:2e:f9:57:b5, 2085-97-129 02:237:00:2683,0.229,0.122,1.344,130.676,129.333,-41.443,14.782,-6.021,42.583
 14:22:54.057,eb:33:2e:f9:57:b5, 2085-97-103 01:154:00:2499,0.118,0.094,1.252,142.334,148.926,-33.997,16.15,-4.548,42.572
 14:22:54.111,eb:33:2e:f9:57:b5, 2085-97-205 00:98:00:2535,0.096,0.056,1.219,158.936,125.427,-29.175,17.65,-3.12,42.643
 14:22:54.111,eb:33:2e:f9:57:b5, 2085-97-239 00:97:00:2761,0.17,0.054,1.279,182.068,80.688,-29.358,19.358,-2.076,42.665
 14:22:54.111,eb:33:2e:f9:57:b5, 2085-97-229 01:133:00:3134,0.301,0.062,1.435,210.327,45.471,-33.325,21.341,-1.406,42.567
 14:22:54.112,eb:33:2e:f9:57:b5, 2085-97-38 03:172:00:3500,0.469,0.07,1.635,243.958,28.931,-41.809,23.643,-0.945,42.341
 14:22:54.171,eb:33:2e:f9:57:b5, 2085-97-143 04:209:00:3724,0.596,0.093,1.768,282.471,35.95,-56.091,26.318,-0.467,42.012
 14:22:54.171,eb:33:2e:f9:57:b5, 2085-97-236 04:20:00:4176,0.6,0.069,1.917,327.637,42.725,-77.637,29.416,0.181,41.583
 14:22:54.171,eb:33:2e:f9:57:b5, 2085-97-103 05:35:255:4887,0.813,-0.064,2.205,386.475,44.006,-101.624,33.03,1.033,41.028
 14:22:54.171,eb:33:2e:f9:57:b5, 2085-97-52 07:215:255:5567,0.802,-0.088,2.609,461.731,-6.958,-144.531,37.348,1.868,40.1
 14:22:54.203,eb:33:2e:f9:57:b5, 2085-97-130 04:198:04:6398,0.477,0.202,2.965,533.203,41.565,-158.508,42.413,2.944,38.963
 14:22:54.203,eb:33:2e:f9:57:b5, 2085-97-66 02:81:12:6839,0.397,1.014,3.123,576.416,-6.348,-139.465,48.016,4.219,38.128
 14:22:54.203,eb:33:2e:f9:57:b5, 2085-97-00 03:114:13:7371,0.679,1.677,3.482,591.309,-148.071,-162.415,53.833,4.807,36.579
 14:22:54.203,eb:33:2e:f9:57:b5, 2085-97-73 06:182:08:7340,0.919,1.556,3.541,583.374,-214.905,-218.811,59.678,5.312,33.986
 14:22:54.231,eb:33:2e:f9:57:b5, 2085-97-82 08:65:01:7610,1.096,0.57,3.643,546.326,-200.867,-261.902,65.226,6.443,30.948
 14:22:54.231,eb:33:2e:f9:57:b5, 2085-97-181 09:106:03:7381,1.535,0.324,3.719,493.042,-90.82,-237.122,70.291,8.152,28.553
 14:22:54.231,eb:33:2e:f9:57:b5, 2085-97-216 13:229:250:5742,1.618,-0.09,3.209,434.082,-35.4,-217.224,74.756,10.118,27.438
 14:22:54.231,eb:33:2e:f9:57:b5, 2085-97-112 11:128:249:3944,1.373,-0.846,2.434,362.366,-29.663,-182.8,78.657,12.003,26.488
 14:22:54.261,eb:33:2e:f9:57:b5, 2085-97-134 11:153:245:2405,1.632,-1.037,0.894,205.2,65.857,-138.855,81.464,13.579,26.395
 14:22:54.261,eb:33:2e:f9:57:b5, 2085-97-88 255:13:01:-609,-0.372,-1.472,-0.365,245.728,193.054,-162.781,83.518,15.425,26.856
 14:22:54.261,eb:33:2e:f9:57:b5, 2085-97-191 04:206:249:-2262,0.398,-0.629,-0.85,-198.242,596.985,43.518,84.457,16.655,31.981
 14:22:54.261,eb:33:2e:f9:57:b5, 2085-97-182 04:222:234:-058,0.368,-2.478,-0.484,-267.09,-67.322,-56.458,82.315,17.254,34.618
 14:22:54.291,eb:33:2e:f9:57:b5, 2085-97-201 02:227:241:1826,0.597,-2.334,0.463,-268.311,-388.367,-26.306,78.986,17.227,31.311
 14:22:54.291,eb:33:2e:f9:57:b5, 2085-97-182 06:88:246:2487,0.94,-1.386,1.141,-340.698,-163.452,70.679,75.284,16.265,28.658
 14:22:54.291,eb:33:2e:f9:57:b5, 2085-97-38 07:65:247:1971,0.787,-1.103,1.123,-351.562,-57.556,89.478,71.636,15.161,28.004
 14:22:54.291,eb:33:2e:f9:57:b5, 2085-97-83 05:133:247:1230,0.556,-1.095,0.781,-340.881,-8.362,88.684,68.181,14.227,28.015
 14:22:54.321,eb:33:2e:f9:57:b5, 2085-97-13 04:198:248:658,0.476,-0.986,0.433,-321.167,-5.615,84.412,64.918,13.425,28.361
 14:22:54.321,eb:33:2e:f9:57:b5, 2085-97-159 03:211:248:691,0.45,-0.875,0.297,-308.777,-80.933,67.261,61.776,12.546,28.328
 14:22:54.321,eb:33:2e:f9:57:b5, 2085-97-174 03:146:248:908,0.466,-0.92,0.396,-313.11,-117.249,61.096,58.574,11.437,27.691
 14:22:54.321,eb:33:2e:f9:57:b5, 2085-97-172 03:194:248:1060,0.437,-0.922,0.481,-335.266,-83.923,69.153,55.272,10.333,27.224
 14:22:54.475,eb:33:2e:f9:57:b5, 2085-97-75 03:38:249:1136,0.396,-0.883,0.546,-357.056,-60.303,73.547,51.757,9.327,27.098
 14:22:54.475,eb:33:2e:f9:57:b5, 2085-97-32 03:194:249:1031,0.395,-0.82,0.531,-375,-59.204,75.928,48.087,8.388,27.164
 14:22:54.475,eb:33:2e:f9:57:b5, 2085-97-75 03:62:250:1088,0.433,-0.747,0.5,-388.794,-89.111,74.036,44.231,7.317,27.153
 14:22:54.475,eb:33:2e:f9:57:b5, 2085-97-167 03:225:250:1377,0.484,-0.685,0.592,-394.958,-123.962,72.998,40.292,6.01,26.988
 14:22:54.475,eb:33:2e:f9:57:b5, 2085-97-17 04:133:251:1726,0.528,-0.595,0.759,-393.188,-145.752,74.768,36.31,4.46,26.735
 14:22:54.475,eb:33:2e:f9:57:b5, 2085-97-108 04:252:251:2052,0.579,-0.525,0.92,-384.216,-163.635,77.942,32.426,2.741,26.521
 14:22:54.475,eb:33:2e:f9:57:b5, 2085-97-199 04:234:251:2322,0.614,-0.501,1.065,-373.474,-179.749,84.351,28.619,0.818,26.367
 14:22:54.475,eb:33:2e:f9:57:b5, 2085-97-16 05:252:251:2685,0.667,-0.514,1.215,-365.784,-193.359,94.055,24.928,-1.252,26.367
 14:22:54.478,eb:33:2e:f9:57:b5, 2085-97-162 05:201:252:3158,0.741,-0.468,1.422,-358.826,-210.632,103.271,21.259,-3.521,26.516
 14:22:54.478,eb:33:2e:f9:57:b5, 2085-97-70 06:252:254:3616,0.822,-0.287,1.658,-347.656,-212.708,111.511,17.672,-5.9,26.873
 14:22:54.478,eb:33:2e:f9:57:b5, 2085-97-205 06:73:02:4060,0.857,0.074,1.873,-327.148,-202.881,111.816,14.15,-8.201,27.444
 14:22:54.478,eb:33:2e:f9:57:b5, 2085-97-214 06:55:05:4552,0.837,0.479,2.101,-295.898,-206.787,100.281,10.893,-10.404,28.098
 14:22:54.512,eb:33:2e:f9:57:b5, 2085-97-97 06:208:06:5202,0.742,0.779,2.368,-264.099,-228.088,87.463,7.91,-12.7,28.729
 14:22:54.512,eb:33:2e:f9:57:b5, 2085-97-120 05:93:07:5887,0.63,0.887,2.717,-245.178,-252.502,82.947,5.191,-15.205,29.366
 14:22:54.512,eb:33:2e:f9:57:b5, 2085-97-154 04:193:08:6159,0.53,0.979,2.979,-245.667,-225.952,95.825,2.428,-17.693,30.196
 14:22:54.512,eb:33:2e:f9:57:b5, 2085-97-237 03:30:12:5956,0.464,1.283,2.968,-251.465,-160.767,116.089,-0.516,-19.583,31.366
 14:22:54.532,eb:33:2e:f9:57:b5, 2085-97-130 03:236:15:5812,0.397,1.759,2.863,-242.432,-141.785,120.728,-3.609,-20.978,32.778
 14:22:54.532,eb:33:2e:f9:57:b5, 2085-97-136 02:112:18:5720,0.195,2.182,2.816,-221.863,-155.457,117.92,-6.57,-22.33,34.272
 14:22:54.532,eb:33:2e:f9:57:b5, 2085-97-103 00:47:19:5596,-0.078,2.367,2.762,-207.825,-156.006,127.686,-9.476,-23.698,35.92
 14:22:54.532,eb:33:2e:f9:57:b5, 2085-113-81 00:89:138:917,-0.184,2.454,2.726,-197.693,-148.743,145.142,-12.398,-24.901,37.809
 14:22:54.561,eb:33:2e:f9:57:b5, 2085-97-255 253:25:22:5559,-0.292,2.574,2.729,-190.247,-135.864,152.832,-13.87,-25.4,38.842
 14:22:54.561,eb:33:2e:f9:57:b5, 2085-97-116 253:48:25:5111,-0.338,2.971,2.642,-168.579,-69.092,163.086,-16.727,-25.95,40.946
 14:22:54.561,eb:33:2e:f9:57:b5, 2085-97-242 252:140:27:4042,-0.429,3.302,2.264,-136.414,20.874,164.001,-19.171,-25.587,42.808
 14:22:54.561,eb:33:2e:f9:57:b5, 2085-97-37 252:221:29:2722,-0.53,3.587,1.663,-99.365,83.496,154.358,-21.055,-24.456,44.264
 14:22:54.622,eb:33:2e:f9:57:b5, 2085-97-90 251:137:30:2071,-0.627,3.799,1.124,-58.838,66.101,123.474,-22.33,-23.17,45.352
 14:22:54.622,eb:33:2e:f9:57:b5, 2085-97-187 250:17:30:2201,-0.671,3.805,0.998,-15.625,-2.808,83.069,-23.104,-22.484,46.252
 14:22:54.622,eb:33:2e:f9:57:b5, 2085-97-208 250:37:28:2758,-2.007,3.671,1.217,34.851,-73.547,42.847,-23.351,-22.626,47.076
 14:22:54.622,eb:33:2e:f9:57:b5, 2085-97-172 251:161:32:9598,-0.131,2.505,7.036,329.468,-410.95,-150.208,-21.736,-25.032,47.115
 14:22:54.651,eb:33:2e:f9:57:b5, 2085-97-132 11:155:255:805,1.311,1.495,2.536,307.861,170.593,-100.647,-18.018,-26.592,46.335
 14:22:54.651,eb:33:2e:f9:57:b5, 2085-97-255 254:73:250:4688,-0.256,0.588,0.902,324.036,310.242,-125.732,-13.76,-24.456,44.132
 14:22:54.651,eb:33:2e:f9:57:b5, 2085-97-212 00:201:244:1734,0.397,-2.12,1.48,291.992,468.933,43.701,-10.135,-20.237,42.704
 14:22:54.651,eb:33:2e:f9:57:b5, 2085-97-125 00:185:03:4426,-0.235,-0.14,1.318,327.637,-15.015,-39.551,-6.861,-18.045,42.374
 14:22:54.683,eb:33:2e:f9:57:b5, 2085-97-176 253:29:04:4125,-0.273,0.282,2.403,272.339,102.783,31.982,-3.801,-18.133,42.204
 14:22:54.683,eb:33:2e:f9:57:b5, 2085-97-108 254:199:05:2505,0.125,0.644,1.588,229.797,225.403,114.624,-1.609,-16.007,43
 14:22:54.683,eb:33:2e:f9:57:b5, 2085-97-245 01:158:05:1129,0.558,0.963,0.741,103.088,-75.5,44.983,-0.291,-15.216,44.017
 14:22:54.683,eb:33:2e:f9:57:b5, 2085-97-120 05:234:00:1863,0.848,0.572,0.528,38.33,-353.577,-89.722,0.45,-17.715,43.654
 14:22:54.861,eb:33:2e:f9:57:b5, 2085-97-230 06:20:00:3072,0.746,0.011,1.246,25.94,-247.192,-82.886,1.176,-21.011,42.654
 14:22:54.861,eb:33:2e:f9:57:b5, 2085-97-89 03:29:00:2727,0.198,0.056,1.53,-8.911,126.221,9.277,1.417,-21.467,42.281
 14:22:54.861,eb:33:2e:f9:57:b5, 2085-97-111 01:185:00:995,0.234,-0.009,0.896,-17.395,262.329,56.885,1.049,-19.05,42.759
 14:22:54.861,eb:33:2e:f9:57:b5, 2085-97-231 02:01:01:1055,0.479,0.129,0.347,4.822,-12.512,-4.761,0.884,-17.776,43.044
 14:22:54.863,eb:33:2e:f9:57:b5, 2085-97-169 04:230:255:2367,0.582,0.061,0.841,13.977,-155.64,-48.34,1.148,-18.995,42.665
 14:22:54.863,eb:33:2e:f9:57:b5, 2085-97-22 04:235:255:2323,0.417,-0.035,1.242,-2.258,17.09,-22.522,1.368,-19.698,42.264
 14:22:54.863,eb:33:2e:f9:57:b5, 2085-97-250 02:67:00:1625,0.353,-0.002,0.947,-9.583,102.417,-11.902,1.351,-18.875,42.111
 14:22:54.863,eb:33:2e:f9:57:b5, 2085-97-196 02:240:255:1726,0.358,0.027,0.769,-3.296,31.189,-25.391,1.373,-18.199,41.896
 14:22:54.865,eb:33:2e:f9:57:b5, 2085-97-196 02:177:255:2010,0.345,-0.021,0.936,-0.549,11.597,-20.386,1.456,-18.078,41.638
 14:22:54.865,eb:33:2e:f9:57:b5, 2085-97-106 02:177:255:1929,0.327,-0.036,0.963,-0.488,38.696,-2.258,1.5,-17.792,41.523
 14:22:54.865,eb:33:2e:f9:57:b5, 2085-97-193 02:249:255:1907,0.353,-0.012,0.919,1.343,42.48,8.362,1.472,-17.364,41.594
 14:22:54.865,eb:33:2e:f9:57:b5, 2085-97-47 03:43:00:1965,0.418,-0.018,0.947,3.601,46.875,10.681,1.472,-16.924,41.688
 14:22:54.866,eb:33:2e:f9:57:b5, 2085-97-63 03:09:00:2104,0.425,0.014,0.996,5.005,65.857,4.761,1.489,-16.37,41.765
 14:22:54.866,eb:33:2e:f9:57:b5, 2085-97-92 03:46:00:2085,0.394,0.011,1.031,7.507,99.365,4.456,1.538,-15.518,41.819
 14:22:54.866,eb:33:2e:f9:57:b5, 2085-97-31 03:40:00:2094,0.398,0.002,1.025,10.071,118.469,4.822,1.609,-14.403,41.874
 14:22:54.866,eb:33:2e:f9:57:b5, 2085-97-31 03:10:00:2167,0.337,0.001,1.052,15.442,110.413,0.549,1.719,-13.233,41.913
 14:22:54.921,eb:33:2e:f9:57:b5, 2085-97-103 02:229:255:2158,0.284,-0.004,1.048,17.944,120.972,0.671,1.906,-12.123,41.918
 14:22:54.921,eb:33:2e:f9:57:b5, 2085-97-37 02:242:255:2109,0.219,-0.022,1.044,20.996,128.418,3.113,2.082,-10.811,41.968
 14:22:54.921,eb:33:2e:f9:57:b5, 2085-97-132 01:190:255:2353,0.215,-0.011,1.083,25.757,107.849,-1.221,2.313,-9.651,41.99
 14:22:54.921,eb:33:2e:f9:57:b5, 2085-97-71 01:160:255:2186,0.124,-0.029,1.111,41.443,79.712,-2.686,2.648,-8.712,41.99
 14:22:54.924,eb:33:2e:f9:57:b5, 2085-97-13 01:41:00:1867,0.154,-0.026,0.991,55.359,52.49,-2.38,3.153,-8.042,41.984
 14:22:54.924,eb:33:2e:f9:57:b5, 2085-97-48 01:72:00:1886,0.169,0.054,0.862,56.458,1.038,-11.047,3.735,-7.8,41.918
 14:22:54.924,eb:33:2e:f9:57:b5, 2085-97-130 01:40:00:2117,0.206,0.021,1.003,59.082,-30.212,-15.198,4.34,-7.971,41.77
 14:22:54.924,eb:33:2e:f9:57:b5, 2085-97-189 01:109:00:2045,0.223,0.035,1.024,62.073,-28.931,-14.282,4.993,-8.273,41.594
 14:22:54.981,eb:33:2e:f9:57:b5, 2085-97-209 01:155:00:1967,0.238,0.066,0.974,61.035,-22.522,-13.916,5.647,-8.509,41.429
 14:22:54.981,eb:33:2e:f9:57:b5, 2085-97-13 02:193:00:1985,0.271,0.085,0.959,61.279,-28.625,-16.235,6.301,-8.74,41.254
 14:22:54.981,eb:33:2e:f9:57:b5, 2085-97-72 02:211:00:2050,0.294,0.101,0.984,62.927,-35.706,-20.447,6.971,-9.058,41.028
 14:22:54.981,eb:33:2e:f9:57:b5, 2085-97-118 02:240:00:2085,0.31,0.108,1.014,64.148,-26.794,-22.4,7.674,-9.349,40.77
 14:22:55.070,eb:33:2e:f9:57:b5, 2085-97-121 02:244:00:2115,0.312,0.118,1.026,65.43,-17.944,-25.085,8.383,-9.536,40.501
 14:22:55.070,eb:33:2e:f9:57:b5, 2085-97-138 02:25:01:2091,0.308,0.127,1.029,67.139,-10.254,-27.344,9.124,-9.635,40.21
 14:22:55.070,eb:33:2e:f9:57:b5, 2085-97-92 02:31:01:2057,0.275,0.139,1.017,68.054,-0.61,-29.785,9.871,-9.651,39.902
 14:22:55.070,eb:33:2e:f9:57:b5, 2085-97-03 02:44:01:1959,0.251,0.142,0.983,67.505,16.357,-29.785,10.624,-9.514,39.611
 14:22:55.074,eb:33:2e:f9:57:b5, 2085-97-02 02:113:01:1848,0.253,0.17,0.919,67.261,22.095,-30.579,11.36,-9.25,39.348
 14:22:55.074,eb:33:2e:f9:57:b5, 2085-97-49 02:172:01:1908,0.297,0.194,0.908,67.322,10.681,-35.767,12.107,-9.031,39.04
 14:22:55.074,eb:33:2e:f9:57:b5, 2085-97-110 02:165:01:2098,0.304,0.219,0.971,64.88,13.672,-41.687,12.854,-8.866,38.661
 14:22:55.074,eb:33:2e:f9:57:b5, 2085-97-62 02:120:01:2205,0.256,0.198,1.059,62.073,51.575,-41.199,13.568,-8.448,38.315
 14:22:55.101,eb:33:2e:f9:57:b5, 2085-97-196 01:107:01:2136,0.19,0.181,1.062,61.646,86.304,-37.842,14.233,-7.657,38.084
 14:22:55.101,eb:33:2e:f9:57:b5, 2085-97-75 01:100:01:2074,0.15,0.177,1.022,62.5,100.22,-33.752,14.886,-6.636,37.952
 14:22:55.101,eb:33:2e:f9:57:b5, 2085-97-24 01:89:01:2133,0.144,0.175,1.015,67.078,88.379,-31.372,15.546,-5.63,37.87
 14:22:55.101,eb:33:2e:f9:57:b5, 2085-97-47 01:97:01:2277,0.156,0.175,1.076,76.172,66.833,-30.518,16.282,-4.812,37.766
 14:22:55.131,eb:33:2e:f9:57:b5, 2085-97-74 01:92:01:2410,0.149,0.173,1.148,84.717,62.256,-27.283,17.111,-4.125,37.65
 14:22:55.131,eb:33:2e:f9:57:b5, 2085-97-49 01:72:01:2521,0.169,0.158,1.208,94.91,68.481,-22.644,18.023,-3.428,37.595
 14:22:55.131,eb:33:2e:f9:57:b5, 2085-97-148 01:118:01:2610,0.227,0.167,1.25,109.741,64.941,-20.874,19.05,-2.714,37.595
 14:22:55.131,eb:33:2e:f9:57:b5, 2085-97-50 02:169:01:2814,0.313,0.192,1.323,129.395,51.331,-25.33,20.259,-2.093,37.557
 14:22:55.221,eb:33:2e:f9:57:b5, 2085-97-208 02:196:01:3001,0.389,0.215,1.424,150.391,48.767,-32.898,21.682,-1.544,37.441
 14:22:55.221,eb:33:2e:f9:57:b5, 2085-97-58 03:212:01:3081,0.424,0.237,1.486,170.654,71.106,-39.856,23.313,-0.851,37.315
 14:22:55.221,eb:33:2e:f9:57:b5, 2085-97-119 03:208:01:3135,0.446,0.233,1.517,192.749,94.971,-47.119,25.142,0.104,37.249
 14:22:55.221,eb:33:2e:f9:57:b5, 2085-97-218 03:237:01:3209,0.526,0.227,1.547,218.384,108.887,-57.8,27.213,1.263,37.211
 14:22:55.221,eb:33:2e:f9:57:b5, 2085-97-102 04:207:01:3425,0.569,0.248,1.597,249.207,113.586,-73.914,29.57,2.56,37.134
 14:22:55.223,eb:33:2e:f9:57:b5, 2085-113-58 00:52:234:-7185,0.639,0.203,1.79,288.147,115.662,-93.384,32.267,3.988,36.98
 14:22:55.223,eb:33:2e:f9:57:b5, 2085-97-149 05:163:01:4245,0.71,0.198,1.921,312.988,103.516,-107.239,33.777,4.713,36.837
 14:22:55.223,eb:33:2e:f9:57:b5, 2085-97-97 05:100:01:4849,0.503,0.095,2.197,368.286,102.295,-130.188,37.194,6.202,36.381
 14:22:55.223,eb:33:2e:f9:57:b5, 2085-97-149 02:223:03:5760,0.396,0.248,2.564,423.34,98.511,-138.367,41.149,7.872,35.947
 14:22:55.252,eb:33:2e:f9:57:b5, 2085-97-34 03:100:09:6084,0.405,0.829,2.945,467.651,15.015,-135.62,45.593,9.234,35.354
 14:22:55.252,eb:33:2e:f9:57:b5, 2085-97-17 05:216:12:5826,0.475,1.56,3.032,491.638,-15.869,-137.817,50.317,10.146,34.354
 14:22:55.252,eb:33:2e:f9:57:b5, 2085-97-50 04:110:09:5508,0.434,1.541,2.804,509.033,-22.278,-169.373,55.206,11.217,33.206
 14:22:55.252,eb:33:2e:f9:57:b5, 2085-97-228 03:247:03:6387,0.725,0.783,2.807,512.573,-133.484,-225.159,60.117,12.519,31.525
 14:22:55.311,eb:33:2e:f9:57:b5, 2085-97-144 08:86:01:8047,1.501,0.377,3.542,482.727,-280.09,-266.663,64.589,13.618,28.345
 14:22:55.311,eb:33:2e:f9:57:b5, 2085-97-247 13:201:01:8248,1.876,0.136,4.09,456.787,-175.232,-274.353,68.643,15.051,24.813
 14:22:55.311,eb:33:2e:f9:57:b5, 2085-97-94 14:44:251:5139,1.24,-0.057,3.509,401.917,137.573,-242.371,72.757,17.468,23.884
 14:22:55.311,eb:33:2e:f9:57:b5, 2085-97-133 08:175:241:-079,0.723,-1.393,1.265,266.052,372.62,-140.625,76.663,20.116,25.977
 14:22:55.341,eb:33:2e:f9:57:b5, 2085-97-104 04:216:239:-1651,0.874,-2.08,-0.993,58.594,412.476,-30.09,79.382,21.72,29.949
 14:22:55.341,eb:33:2e:f9:57:b5, 2085-97-127 00:27:253:-947,-0.015,-2.672,-0.668,106.018,159.912,-47.302,80.447,22.769,32.712
 14:22:55.341,eb:33:2e:f9:57:b5, 2085-97-195 04:00:00:-784,0.569,0.083,-0.325,-98.633,33.875,-32.043,81.156,23.538,34.036
 14:22:55.341,eb:33:2e:f9:57:b5, 2085-97-153 05:143:237:1110,0.518,-1.681,0.362,-234.253,-286.438,-53.894,78.58,23.785,32.228
 14:22:55.371,eb:33:2e:f9:57:b5, 2085-97-36 04:247:242:1223,0.669,-2.211,0.619,-278.076,-151.428,40.222,75.229,23.269,29.724
 14:22:55.371,eb:33:2e:f9:57:b5, 2085-97-115 06:69:247:1661,0.864,-1.244,0.643,-354.431,-109.253,65.857,71.697,22.363,28.872
 14:22:55.371,eb:33:2e:f9:57:b5, 2085-97-212 06:238:248:2027,0.808,-0.97,0.952,-363.037,-159.607,62.561,67.709,21.231,27.636
 14:22:55.371,eb:33:2e:f9:57:b5, 2085-97-04 06:230:248:1408,0.695,-0.879,0.898,-371.094,-74.097,74.524,63.792,20.11,26.807
 14:22:55.431,eb:33:2e:f9:57:b5, 2085-97-70 05:231:249:612,0.636,-0.854,0.453,-356.506,-57.983,70.679,60.101,19.193,26.686
 14:22:55.431,eb:33:2e:f9:57:b5, 2085-97-223 04:140:250:881,0.585,-0.692,0.297,-337.28,-165.894,49.194,56.486,18.083,26.01
 14:22:55.431,eb:33:2e:f9:57:b5, 2085-97-146 04:209:249:1631,0.554,-0.716,0.621,-327.026,-234.619,45.288,52.822,16.441,24.494
 14:22:55.431,eb:33:2e:f9:57:b5, 2085-97-66 04:250:248:2022,0.508,-0.834,0.921,-336.548,-198.669,68.909,49.241,14.595,23.154
 14:22:55.492,eb:33:2e:f9:57:b5, 2085-97-242 03:219:248:2195,0.505,-0.899,1.023,-354.675,-151.672,97.168,45.648,12.788,22.473
 14:22:55.492,eb:33:2e:f9:57:b5, 2085-97-58 04:181:249:2373,0.564,-0.857,1.125,-372.375,-123.352,124.268,41.979,11.036,22.39
 14:22:55.492,eb:33:2e:f9:57:b5, 2085-97-208 04:104:251:2328,0.64,-0.688,1.161,-379.395,-93.811,145.142,38.221,9.327,22.758
 14:22:55.492,eb:33:2e:f9:57:b5, 2085-97-99 05:42:253:2167,0.71,-0.458,1.1,-375.549,-81.543,156.311,34.503,7.762,23.522
 14:22:55.494,eb:33:2e:f9:57:b5, 2085-97-09 06:134:254:2069,0.81,-0.261,1.022,-360.779,-100.586,156.25,30.839,6.163,24.373
 14:22:55.494,eb:33:2e:f9:57:b5, 2085-97-221 06:45:255:2243,0.886,-0.13,1.037,-341.003,-140.625,150.024,27.356,4.367,25.159
 14:22:55.494,eb:33:2e:f9:57:b5, 2085-97-43 07:245:254:2573,0.904,-0.104,1.173,-323.73,-171.265,147.4,24.011,2.291,25.823
 14:22:55.494,eb:33:2e:f9:57:b5, 2085-97-85 07:137:254:2929,0.938,-0.16,1.338,-313.416,-188.904,150.879,20.797,0.066,26.565
 14:22:55.582,eb:33:2e:f9:57:b5, 2085-97-198 07:236:254:3417,1.024,-0.179,1.538,-303.101,-211.609,156.128,17.611,-2.34,27.394
 14:22:55.582,eb:33:2e:f9:57:b5, 2085-97-170 08:42:00:4029,1.141,-0.065,1.819,-288.391,-229.553,162.292,14.524,-4.9,28.372
 14:22:55.582,eb:33:2e:f9:57:b5, 2085-97-139 09:229:01:4451,1.239,0.123,2.089,-269.775,-226.013,168.884,11.503,-7.509,29.537
 14:22:55.582,eb:33:2e:f9:57:b5, 2085-97-57 10:130:04:4696,1.301,0.385,2.226,-248.535,-216.003,172.18,8.613,-9.932,30.927
 14:22:55.584,eb:33:2e:f9:57:b5, 2085-97-81 10:74:07:5239,1.26,0.745,2.413,-230.835,-237.366,166.992,5.806,-12.376,32.426
 14:22:55.585,eb:33:2e:f9:57:b5, 2085-97-192 09:131:09:5589,1.166,1.056,2.673,-224.365,-232.849,164.429,3.06,-14.859,34.014
 14:22:55.585,eb:33:2e:f9:57:b5, 2085-97-209 08:26:12:5538,1.028,1.34,2.729,-223.45,-200.195,165.405,0.198,-17.034,35.76
 14:22:55.585,eb:33:2e:f9:57:b5, 2085-97-132 07:108:15:5355,0.842,1.715,2.666,-215.698,-177.49,158.569,-2.692,-18.836,37.595
 14:22:55.612,eb:33:2e:f9:57:b5, 2085-97-224 05:98:18:5143,0.601,2.126,2.561,-201.416,-155.09,144.531,-5.526,-20.347,39.413
 14:22:55.612,eb:33:2e:f9:57:b5, 2085-97-134 03:46:20:4953,0.231,2.429,2.466,-187.012,-149.475,126.77,-8.179,-21.66,41.116
 14:22:55.612,eb:33:2e:f9:57:b5, 2085-97-89 00:31:21:4739,-0.14,2.595,2.354,-176.575,-132.385,117.798,-10.734,-22.841,42.748
 14:22:55.612,eb:33:2e:f9:57:b5, 2085-97-135 253:27:22:4599,-0.443,2.689,2.283,-164.673,-105.957,115.784,-13.167,-23.73,44.324
 14:22:55.703,eb:33:2e:f9:57:b5, 2085-97-172 251:239:23:4361,-0.599,2.868,2.196,-141.663,-70.679,111.511,-15.425,-24.274,45.84
 14:22:55.703,eb:33:2e:f9:57:b5, 2085-97-240 250:210:26:3852,-0.665,3.151,2.027,-108.093,-31.921,100.281,-17.292,-24.434,47.159
 14:22:55.703,eb:33:2e:f9:57:b5, 2085-97-96 250:191:29:3128,-0.751,3.562,1.706,-74.646,22.583,83.496,-18.666,-24.164,48.159
 14:22:55.703,eb:33:2e:f9:57:b5, 2085-97-126 249:13:30:2488,-0.873,3.788,1.354,-47.668,57.556,60.669,-19.534,-23.489,48.735
 14:22:55.760,eb:33:2e:f9:57:b5, 2085-97-157 248:81:28:2272,-0.951,3.663,1.129,-18.86,37.476,31.799,-19.979,-22.852,48.999
 14:22:55.760,eb:33:2e:f9:57:b5, 2085-97-101 248:08:26:2569,-0.924,3.402,1.155,15.137,-19.47,2.197,-20.045,-22.725,49.131
 14:22:55.760,eb:33:2e:f9:57:b5, 2085-97-32 249:160:23:3123,0.989,3.1,1.389,54.382,-63.721,-21.484,-19.709,-23.209,49.186
 14:22:55.760,eb:33:2e:f9:57:b5, 2085-97-70 249:242:17:11385,0.524,2.671,7.094,288.635,-411.255,-270.081,-17.913,-25.422,48.433
 14:22:55.763,eb:33:2e:f9:57:b5, 2085-97-153 11:188:253:2046,1.227,0.919,2.966,254.272,172.424,-105.469,-14.343,-27.109,47.346
 14:22:55.763,eb:33:2e:f9:57:b5, 2085-97-128 04:17:253:2174,-0.329,-0.431,0.757,233.459,567.505,-50.537,-11.014,-23.176,45.335
 14:22:55.763,eb:33:2e:f9:57:b5, 2085-97-199 251:71:244:1123,-0.547,-1.466,1.235,242.371,610.107,82.336,-8.19,-16.919,44.154
 14:22:55.763,eb:33:2e:f9:57:b5, 2085-97-45 253:83:02:3086,-0.317,-0.672,0.533,289.062,98.694,23.254,-5.543,-13.392,44.242
 14:22:55.792,eb:33:2e:f9:57:b5, 2085-97-94 254:47:03:4053,-0.324,0.589,2.038,249.756,-114.868,-15.808,-2.747,-14.156,44.214
 14:22:55.792,eb:33:2e:f9:57:b5, 2085-97-18 254:250:04:3473,0.333,0.325,1.931,184.814,62.927,92.651,-0.736,-14.249,44.561
 14:22:55.792,eb:33:2e:f9:57:b5, 2085-97-227 02:113:03:1307,0.637,1.435,0.857,23.56,-47.546,42.725,-0.115,-14.134,45.703
 14:22:55.792,eb:33:2e:f9:57:b5, 2085-97-247 04:188:01:2448,0.496,0.327,0.726,19.897,-207.458,-30.273,0.066,-15.595,45.846
 14:22:55.822,eb:33:2e:f9:57:b5, 2085-97-41 03:13:255:2724,0.272,-0.049,1.417,-1.587,0.977,-4.7,0.253,-16.771,45.571
 14:22:55.822,eb:33:2e:f9:57:b5, 2085-97-244 01:77:00:1561,0.271,-0.092,1.061,-10.925,168.762,40.344,0.082,-15.59,45.797
 14:22:55.822,eb:33:2e:f9:57:b5, 2085-97-40 02:250:00:1332,0.304,0.149,0.608,-1.77,40.222,10.498,-0.066,-14.436,46.071
 14:22:55.822,eb:33:2e:f9:57:b5, 2085-97-251 02:02:00:1921,0.439,0.054,0.789,5.92,-81.177,-17.09,-0.005,-14.832,45.989
 14:22:55.882,eb:33:2e:f9:57:b5, 2085-97-166 03:20:00:2205,0.419,0.002,1.037,2.869,-47.607,-11.475,0.104,-15.557,45.835
 14:22:55.882,eb:33:2e:f9:57:b5, 2085-97-213 02:227:255:1977,0.303,-0.002,1.039,-2.686,29.297,-9.216,0.132,-15.579,45.736
 14:22:55.882,eb:33:2e:f9:57:b5, 2085-97-75 02:252:255:1740,0.301,-0.013,0.892,-1.709,32.898,-12.939,0.159,-15.194,45.604
 14:22:55.882,eb:33:2e:f9:57:b5, 2085-97-158 02:248:255:1842,0.335,0.002,0.854,2.563,-10.62,-19.897,0.225,-15.112,45.428
 14:22:55.912,eb:33:2e:f9:57:b5, 2085-97-170 02:200:255:1980,0.323,-0.019,0.95,3.052,-14.587,-20.569,0.341,-15.287,45.198
 14:22:55.912,eb:33:2e:f9:57:b5, 2085-97-126 02:210:255:1901,0.303,-0.031,0.957,2.319,4.15,-14.343,0.423,-15.32,45.011
 14:22:55.912,eb:33:2e:f9:57:b5, 2085-97-86 02:196:255:1856,0.304,-0.025,0.911,3.845,-0.671,-11.536,0.511,-15.287,44.874
 14:22:55.912,eb:33:2e:f9:57:b5, 2085-97-134 02:223:255:1856,0.368,-0.029,0.9,6.226,-15.808,-8.789,0.593,-15.375,44.775
 14:22:55.941,eb:33:2e:f9:57:b5, 2085-97-47 03:243:255:1932,0.415,-0.001,0.92,7.019,-24.841,-9.399,0.698,-15.584,44.676
 14:22:55.941,eb:33:2e:f9:57:b5, 2085-97-102 03:250:255:1995,0.404,-0.002,0.958,4.944,-11.841,-4.883,0.786,-15.782,44.604
 14:22:55.941,eb:33:2e:f9:57:b5, 2085-97-69 03:251:255:2030,0.395,-0.006,0.99,1.465,18.616,5.127,0.824,-15.738,44.599
 14:22:55.941,eb:33:2e:f9:57:b5, 2085-97-34 03:212:255:2016,0.42,-0.019,0.993,1.343,48.34,12.39,0.807,-15.392,44.687
 14:22:55.971,eb:33:2e:f9:57:b5, 2085-97-131 03:33:00:2054,0.442,0.013,0.972,4.944,60.364,13.977,0.797,-14.815,44.835
 14:22:55.971,eb:33:2e:f9:57:b5, 2085-97-65 03:249:255:2141,0.379,0.01,1.036,13.916,67.505,1.648,0.873,-14.189,44.907
 14:22:55.971,eb:33:2e:f9:57:b5, 2085-113-81 00:15:139:-1851,0.352,-0.007,1.04,16.846,96.497,-0.183,1.038,-13.343,44.901
 14:22:55.971,eb:33:2e:f9:57:b5, 2085-97-115 02:242:255:2018,0.277,-0.006,1.014,18.494,104.858,-1.282,1.132,-12.838,44.896
 14:22:56.031,eb:33:2e:f9:57:b5, 2085-97-04 02:238:255:1910,0.256,-0.002,0.953,19.409,107.971,-1.709,1.318,-11.75,44.885
 14:22:56.031,eb:33:2e:f9:57:b5, 2085-97-204 01:15:00:1869,0.211,0.021,0.898,19.653,88.989,-3.723,1.533,-10.761,44.863
 14:22:56.031,eb:33:2e:f9:57:b5, 2085-97-139 01:241:255:2066,0.166,0.009,0.93,17.334,78.186,-2.319,1.719,-9.937,44.835
 14:22:56.031,eb:33:2e:f9:57:b5, 2085-97-217 01:102:255:2384,0.245,-0.057,1.116,29.175,51.331,-2.808,1.956,-9.261,44.802
 14:22:56.062,eb:33:2e:f9:57:b5, 2085-97-248 01:255:255:2169,0.259,-0.055,1.154,56.213,-15.991,-15.015,2.433,-9.163,44.703
 14:22:56.062,eb:33:2e:f9:57:b5, 2085-97-39 02:93:00:2057,0.256,0.041,1.003,52.246,7.019,-11.23,3.032,-9.218,44.561
 14:22:56.062,eb:33:2e:f9:57:b5, 2085-97-29 02:88:00:2118,0.29,0.031,1.026,52.002,6.165,-13.367,3.571,-9.119,44.44
 14:22:56.062,eb:33:2e:f9:57:b5, 2085-97-86 02:113:00:2109,0.289,0.069,1.037,54.688,-19.165,-19.653,4.153,-9.185,44.264
 14:22:56.091,eb:33:2e:f9:57:b5, 2085-97-88 02:141:00:2075,0.292,0.061,1.021,55.115,-10.803,-20.142,4.763,-9.349,44.044
 14:22:56.091,eb:33:2e:f9:57:b5, 2085-97-79 02:162:00:2027,0.285,0.073,1.002,55.298,-1.587,-21.423,5.367,-9.371,43.824
 14:22:56.091,eb:33:2e:f9:57:b5, 2085-97-65 02:170:00:2030,0.28,0.082,0.986,56.946,-2.808,-24.536,5.988,-9.377,43.588
 14:22:56.091,eb:33:2e:f9:57:b5, 2085-97-69 02:169:00:2066,0.286,0.081,1,57.861,-4.15,-26.611,6.636,-9.388,43.314
 14:22:56.153,eb:33:2e:f9:57:b5, 2085-97-65 02:193:00:2041,0.276,0.087,1.008,58.96,1.648,-27.344,7.284,-9.382,43.033
 14:22:56.153,eb:33:2e:f9:57:b5, 2085-97-25 02:238:00:1945,0.249,0.109,0.972,58.228,17.029,-26.367,7.943,-9.25,42.77
 14:22:56.153,eb:33:2e:f9:57:b5, 2085-97-07 02:24:01:1920,0.251,0.121,0.938,56.946,23.926,-26.428,8.569,-8.998,42.528
 14:22:56.153,eb:33:2e:f9:57:b5, 2085-97-229 01:01:01:2017,0.242,0.143,0.953,56.213,21.362,-30.029,9.207,-8.751,42.264
 14:22:56.183,eb:33:2e:f9:57:b5, 2085-97-225 01:229:00:2133,0.228,0.125,1.014,55.908,36.194,-29.358,9.816,-8.416,42.012
 14:22:56.183,eb:33:2e:f9:57:b5, 2085-97-191 01:209:00:2218,0.222,0.11,1.061,57.983,47.058,-27.344,10.443,-7.949,41.792
 14:22:56.183,eb:33:2e:f9:57:b5, 2085-97-196 01:205:00:2314,0.223,0.107,1.104,63.354,46.082,-25.635,11.085,-7.427,41.611
 14:22:56.183,eb:33:2e:f9:57:b5, 2085-97-213 01:207:00:2421,0.25,0.103,1.157,72.449,40.1,-25.146,11.81,-6.965,41.429
 14:22:56.183,eb:33:2e:f9:57:b5, 2085-113-58 00:97:234:-5700,0.254,0.109,1.201,83.801,37.354,-25.574,12.629,-6.537,41.254
 14:22:56.211,eb:33:2e:f9:57:b5, 2085-97-25 02:235:00:2532,0.256,0.109,1.221,90.027,38.818,-25.94,13.09,-6.323,41.16
 14:22:56.211,eb:33:2e:f9:57:b5, 2085-97-17 02:228:00:2600,0.252,0.114,1.255,102.722,47.668,-25.391,14.09,-5.845,40.995
 14:22:56.211,eb:33:2e:f9:57:b5, 2085-97-49 02:222:00:2756,0.308,0.109,1.304,118.713,49.438,-27.466,15.233,-5.29,40.853
 14:22:56.211,eb:33:2e:f9:57:b5, 2085-97-206 02:239:00:2970,0.402,0.117,1.399,139.771,36.316,-33.203,16.562,-4.812,40.66
 14:22:56.273,eb:33:2e:f9:57:b5, 2085-97-136 03:15:01:3176,0.477,0.136,1.498,163.208,41.809,-39.978,18.133,-4.345,40.408
 14:22:56.273,eb:33:2e:f9:57:b5, 2085-113-81 00:36:138:-5748,0.497,0.141,1.579,186.646,66.04,-47.18,19.929,-3.697,40.155
 14:22:56.273,eb:33:2e:f9:57:b5, 2085-97-21 04:15:01:3322,0.531,0.147,1.603,198.547,82.397,-50.659,20.912,-3.257,40.045
 14:22:56.273,eb:33:2e:f9:57:b5, 2085-97-146 04:253:00:3407,0.627,0.129,1.649,224.67,107.727,-59.265,23.06,-2.137,39.88
 14:22:56.302,eb:33:2e:f9:57:b5, 2085-97-105 05:57:01:3437,0.703,0.146,1.662,256.104,114.075,-73.486,25.499,-0.857,39.699
 14:22:56.302,eb:33:2e:f9:57:b5, 2085-97-26 06:178:00:3781,0.842,0.124,1.748,291.382,131.226,-92.59,28.268,0.621,39.479
 14:22:56.302,eb:33:2e:f9:57:b5, 2085-97-70 07:124:00:4337,1.028,0.084,1.975,340.942,125.122,-119.629,31.459,2.274,39.166
 14:22:56.302,eb:33:2e:f9:57:b5, 2085-97-181 07:159:255:4843,0.809,0.044,2.206,400.146,118.896,-152.954,35.2,4.032,38.65
 14:22:56.332,eb:33:2e:f9:57:b5, 2085-97-163 05:146:00:5328,0.585,-0.042,2.508,465.393,142.212,-169.067,39.562,6.108,38.134
 14:22:56.332,eb:33:2e:f9:57:b5, 2085-97-251 04:117:08:6342,0.566,0.502,2.891,522.949,47.241,-171.509,44.528,7.96,37.469
 14:22:56.332,eb:33:2e:f9:57:b5, 2085-97-158 04:39:10:6631,0.413,1.386,3.288,534.729,-12.939,-173.645,49.757,9.24,36.293
 14:22:56.333,eb:33:2e:f9:57:b5, 2085-97-169 03:177:12:5858,0.38,1.572,3.029,557.373,32.532,-184.998,55.168,10.662,35.222
 14:22:56.392,eb:33:2e:f9:57:b5, 2085-97-109 03:152:03:5895,0.529,1.077,2.796,544.739,-88.684,-238.464,60.485,12.382,33.909
 14:22:56.392,eb:33:2e:f9:57:b5, 2085-97-192 06:78:03:7631,1.298,0.615,3.277,501.648,-248.901,-266.052,65.286,13.733,31.02
 14:22:56.392,eb:33:2e:f9:57:b5, 2085-97-03 14:86:00:7588,1.943,0.373,3.825,458.252,-197.754,-267.944,69.456,15.178,27.554
 14:22:56.392,eb:33:2e:f9:57:b5, 2085-97-191 13:33:250:5033,1.504,-0.476,3.174,384.583,68.42,-228.394,73.356,17.325,26.098
 14:22:56.421,eb:33:2e:f9:57:b5, 2085-97-62 09:215:242:980,1.087,-1.019,1.328,255.798,276.794,-151.184,76.937,19.66,27.537
 14:22:56.421,eb:33:2e:f9:57:b5, 2085-97-11 13:55:241:-015,0.357,-1.538,-0.215,75.256,211.121,-82.275,79.255,21.215,30.026
 14:22:56.421,eb:33:2e:f9:57:b5, 2085-97-110 02:06:255:-1411,0.245,-2.044,-0.408,150.94,380.615,-67.322,80.92,22.808,31.871
 14:22:56.421,eb:33:2e:f9:57:b5, 2085-97-34 04:139:248:-1239,0.477,-0.126,-0.933,-150.33,315.186,-4.883,82.139,23.758,36.403
 14:22:56.451,eb:33:2e:f9:57:b5, 2085-97-63 03:247:236:058,0.348,-2.043,-0.202,-198.303,-225.708,-59.326,80.118,24.219,36.205
 14:22:56.451,eb:33:2e:f9:57:b5, 2085-97-240 03:01:244:991,0.757,-1.938,0.234,-244.08,-270.935,16.846,76.965,23.802,33.217
 14:22:56.451,eb:33:2e:f9:57:b5, 2085-97-174 07:188:246:2213,1.014,-1.266,0.798,-314.026,-244.934,49.438,73.262,22.731,30.74
 14:22:56.451,eb:33:2e:f9:57:b5, 2085-97-173 07:241:248:2403,0.825,-1.012,1.208,-332.031,-168.335,69.214,69.412,21.434,28.801
 14:22:56.511,eb:33:2e:f9:57:b5, 2085-97-143 05:63:249:1420,0.59,-0.856,0.991,-350.159,-16.785,88.074,65.847,20.385,28.323
 14:22:56.511,eb:33:2e:f9:57:b5, 2085-97-127 04:29:250:349,0.567,-0.799,0.346,-341.492,-15.076,79.407,62.479,19.611,28.74
 14:22:56.511,eb:33:2e:f9:57:b5, 2085-97-146 04:190:250:491,0.579,-0.673,0.135,-327.087,-156.738,51.392,59.03,18.605,28.246
 14:22:56.511,eb:33:2e:f9:57:b5, 2085-97-176 04:09:250:1232,0.584,-0.683,0.416,-324.158,-246.521,40.71,55.388,17.018,26.62
 14:22:56.542,eb:33:2e:f9:57:b5, 2085-97-84 04:59:249:1708,0.484,-0.799,0.744,-335.876,-212.219,58.777,51.757,15.2,25.027
 14:22:56.542,eb:33:2e:f9:57:b5, 2085-97-100 03:06:249:1839,0.399,-0.871,0.876,-349.609,-157.776,83.801,48.142,13.458,24.126
 14:22:56.542,eb:33:2e:f9:57:b5, 2085-97-77 03:118:249:1998,0.445,-0.848,0.925,-357.239,-156.372,101.501,44.533,11.711,23.703
 14:22:56.542,eb:33:2e:f9:57:b5, 2085-97-233 03:42:250:2206,0.528,-0.782,1.034,-360.718,-165.588,118.225,40.886,9.734,23.417
 14:22:56.631,eb:33:2e:f9:57:b5, 2085-97-135 04:109:251:2225,0.604,-0.657,1.093,-362.366,-136.536,139.465,37.277,7.745,23.511
 14:22:56.631,eb:33:2e:f9:57:b5, 2085-97-52 05:210:252:2189,0.704,-0.485,1.071,-358.093,-123.535,153.015,33.668,5.856,24.005
 14:22:56.631,eb:33:2e:f9:57:b5, 2085-97-48 06:214:253:2320,0.838,-0.327,1.092,-346.436,-151.55,155.823,30.157,3.895,24.642
 14:22:56.631,eb:33:2e:f9:57:b5, 2085-97-35 07:88:254:2546,0.93,-0.236,1.192,-334.106,-176.086,156.921,26.724,1.675,25.247
 14:22:56.782,eb:33:2e:f9:57:b5, 2085-97-168 07:186:254:2637,0.988,-0.184,1.271,-325.684,-176.208,161.072,23.384,-0.588,25.988
 14:22:56.782,eb:33:2e:f9:57:b5, 2085-97-62 08:105:255:2815,1.082,-0.123,1.31,-319.275,-188.477,162.476,20.045,-2.862,26.867
 14:22:56.782,eb:33:2e:f9:57:b5, 2085-97-04 09:132:00:3336,1.173,-0.014,1.488,-308.716,-225.525,158.142,16.776,-5.334,27.79
 14:22:56.782,eb:33:2e:f9:57:b5, 2085-97-214 09:210:02:3823,1.258,0.185,1.756,-290.527,-235.596,155.762,13.568,-8.004,28.751
 14:22:56.783,eb:33:2e:f9:57:b5, 2085-97-248 09:169:05:4392,1.214,0.542,1.987,-263.855,-237.183,150.635,10.558,-10.602,29.839
 14:22:56.783,eb:33:2e:f9:57:b5, 2085-97-139 09:108:07:5218,1.173,0.832,2.336,-233.765,-262.634,145.691,7.729,-13.282,31.003
 14:22:56.783,eb:33:2e:f9:57:b5, 2085-97-63 09:200:08:5868,1.115,1.016,2.77,-205.688,-285.461,146.729,5.153,-16.216,32.25
 14:22:56.783,eb:33:2e:f9:57:b5, 2085-97-132 08:205:10:5694,1.013,1.197,2.865,-199.707,-218.567,166.748,2.538,-18.842,33.81
 14:22:56.785,eb:33:2e:f9:57:b5, 2085-97-207 07:164:14:5146,0.952,1.568,2.653,-197.144,-156.25,182.007,-0.231,-20.643,35.739
 14:22:56.785,eb:33:2e:f9:57:b5, 2085-97-94 07:195:18:4765,0.858,2.091,2.401,-187.256,-139.771,178.101,-3.076,-22.006,37.826
 14:22:56.785,eb:33:2e:f9:57:b5, 2085-97-227 05:145:21:4782,0.566,2.559,2.312,-171.997,-156.616,164.978,-5.79,-23.297,39.891
 14:22:56.785,eb:33:2e:f9:57:b5, 2085-97-251 02:97:22:4857,0.167,2.762,2.36,-159.241,-183.838,155.396,-8.438,-24.785,41.968
 14:22:56.787,eb:33:2e:f9:57:b5, 2085-97-184 255:185:22:4854,-0.217,2.816,2.374,-152.283,-174.133,156.189,-11.047,-26.29,44.116
 14:22:56.787,eb:33:2e:f9:57:b5, 2085-97-51 253:167:23:4781,-0.43,2.882,2.356,-140.442,-122.559,161.926,-13.672,-27.361,46.335
 14:22:56.787,eb:33:2e:f9:57:b5, 2085-97-30 252:175:25:4543,-0.523,3.066,2.298,-114.99,-78.247,156.982,-16.057,-27.845,48.461
 14:22:56.787,eb:33:2e:f9:57:b5, 2085-97-189 251:237:27:3765,-0.536,3.359,2.065,-89.111,-14.404,146.301,-18.056,-27.828,50.328
 14:22:56.811,eb:33:2e:f9:57:b5, 2085-97-139 251:77:29:2722,-0.596,3.593,1.577,-69.946,57.434,129.944,-19.583,-27.092,51.74
 14:22:56.811,eb:33:2e:f9:57:b5, 2085-97-229 250:91:29:2055,-0.677,3.688,1.131,-47.424,79.041,101.074,-20.643,-25.983,52.668
 14:22:56.811,eb:33:2e:f9:57:b5, 2085-97-91 250:01:28:2039,-0.719,3.608,0.958,-12.268,29.053,61.279,-21.231,-25.153,53.267
 14:22:56.811,eb:33:2e:f9:57:b5, 2085-97-247 248:241:21:15295,-1.045,3.333,1.103,37.231,-46.143,-6.104,-21.324,-25.17,53.707
 14:22:56.905,eb:33:2e:f9:57:b5, 2085-97-05 249:104:13:8743,0.943,3.633,5.501,277.283,-141.113,-166.382,-18.452,-28.922,53.053
 14:22:56.905,eb:33:2e:f9:57:b5, 2085-97-119 05:07:252:792,0.97,1.397,1.233,245.3,446.716,-83.74,-14.826,-26.796,51.301
 14:22:56.905,eb:33:2e:f9:57:b5, 2085-97-66 00:146:252:3439,-0.469,0.474,0.441,283.691,460.51,-91.492,-11.107,-22.44,49.175
 14:22:56.905,eb:33:2e:f9:57:b5, 2085-97-141 251:62:246:2023,0.13,-1.926,1.329,270.752,492.371,41.992,-7.866,-17.693,47.944
 14:22:56.905,eb:33:2e:f9:57:b5, 2085-97-51 255:113:07:5053,-0.229,0.208,1.495,298.035,-77.087,-13.733,-4.977,-15.749,48.005
 14:22:56.905,eb:33:2e:f9:57:b5, 2085-113-58 00:65:236:-4380,-0.33,0.823,2.383,183.899,48.462,13.245,-2.543,-16.375,47.878
 14:22:56.905,eb:33:2e:f9:57:b5, 2085-97-222 253:185:03:2592,-0.027,0.668,1.965,127.075,163.635,62.5,-1.868,-15.738,48.071
 14:22:56.905,eb:33:2e:f9:57:b5, 2085-97-165 02:50:06:020,0.467,0.521,0.59,51.27,29.236,43.335,-1.28,-14.354,48.774
 14:22:56.905,eb:33:2e:f9:57:b5, 2085-97-219 06:11:01:1809,0.784,0.186,0.432,33.63,-360.291,-70.129,-0.857,-16.49,48.554
 14:22:56.908,eb:33:2e:f9:57:b5, 2085-97-189 05:255:254:3406,0.642,-0.146,1.445,21.24,-209.778,-55.969,-0.269,-19.786,47.802
 14:22:56.908,eb:33:2e:f9:57:b5, 2085-97-217 03:143:00:2356,0.226,-0.064,1.475,-10.62,192.749,32.349,-0.225,-19.523,47.747
 14:22:56.908,eb:33:2e:f9:57:b5, 2085-97-139 00:150:00:1142,0.104,0.089,0.842,-19.897,259.827,52.124,-0.566,-16.891,48.192
 14:22:56.908,eb:33:2e:f9:57:b5, 2085-97-59 02:154:00:904,0.478,0.073,0.363,1.16,1.831,5.554,-0.758,-15.518,48.472
 14:22:56.962,eb:33:2e:f9:57:b5, 2085-97-134 04:32:00:2276,0.567,0.072,0.754,13.977,-183.35,-38.574,-0.566,-16.82,48.263
 14:22:56.962,eb:33:2e:f9:57:b5, 2085-97-239 03:130:255:2545,0.359,-0.069,1.303,0.061,-15.137,-15.381,-0.385,-17.924,47.977
 14:22:56.962,eb:33:2e:f9:57:b5, 2085-97-75 02:208:255:1637,0.306,-0.056,1.029,-8.606,119.324,2.991,-0.423,-17.133,47.922
 14:22:56.962,eb:33:2e:f9:57:b5, 2085-97-195 02:44:00:1522,0.394,0.027,0.682,0.793,22.644,-17.578,-0.428,-16.359,47.834
 14:22:57.052,eb:33:2e:f9:57:b5, 2085-97-49 03:191:255:2087,0.364,0.001,0.889,4.333,-37.231,-31.006,-0.28,-16.606,47.538
 14:22:57.052,eb:33:2e:f9:57:b5, 2085-97-177 02:158:255:1989,0.322,-0.052,1.044,-0.488,27.161,-17.822,-0.17,-16.655,47.274
 14:22:57.052,eb:33:2e:f9:57:b5, 2085-97-137 02:206:255:1763,0.33,-0.038,0.894,0.916,36.377,-12.939,-0.104,-16.26,47.109
 14:22:57.052,eb:33:2e:f9:57:b5, 2085-97-218 02:217:255:1860,0.386,-0.029,0.88,4.211,6.958,-12.512,-0.027,-16.073,46.967
 14:22:57.111,eb:33:2e:f9:57:b5, 2085-97-84 03:242:255:1935,0.463,-0.012,0.932,5.005,5.493,-10.681,0.082,-16.04,46.835
 14:22:57.111,eb:33:2e:f9:57:b5, 2085-97-120 03:220:255:2058,0.428,0.018,0.958,3.113,25.391,-7.874,0.154,-15.892,46.741
 14:22:57.111,eb:33:2e:f9:57:b5, 2085-97-127 03:249:255:2065,0.417,-0.019,1.02,1.648,74.158,3.296,0.192,-15.375,46.708
 14:22:57.111,eb:33:2e:f9:57:b5, 2085-97-32 03:220:255:2050,0.381,-0.013,1.01,4.639,112.366,3.479,0.22,-14.414,46.73
 14:22:57.113,eb:33:2e:f9:57:b5, 2085-97-217 02:238:255:1994,0.332,-0.001,0.973,9.033,130.554,0.671,0.302,-13.162,46.736
 14:22:57.113,eb:33:2e:f9:57:b5, 2085-97-199 02:240:255:2011,0.305,-0.037,0.994,16.113,125.977,-0.977,0.434,-11.865,46.703
 14:22:57.113,eb:33:2e:f9:57:b5, 2085-97-37 02:201:255:2077,0.247,-0.027,1.018,19.226,128.662,-0.244,0.637,-10.618,46.659
 14:22:57.113,eb:33:2e:f9:57:b5, 2085-97-176 01:248:255:1920,0.164,-0.012,0.982,16.479,138.245,6.287,0.807,-9.25,46.692
 14:22:57.115,eb:33:2e:f9:57:b5, 2085-97-242 00:188:255:1863,0.1,-0.009,0.906,13.367,120.605,7.08,0.956,-7.954,46.747
 14:22:57.115,eb:33:2e:f9:57:b5, 2085-97-237 00:143:255:1967,0.112,-0.064,0.959,21.24,81.36,9.277,1.099,-6.932,46.835
 14:22:57.115,eb:33:2e:f9:57:b5, 2085-97-202 00:166:255:2129,0.165,-0.031,0.972,31.433,45.715,8.24,1.373,-6.35,46.917
 14:22:57.115,eb:33:2e:f9:57:b5, 2085-97-136 01:254:255:2136,0.181,-0.025,1.037,41.748,18.066,5.981,1.719,-6.026,47
 14:22:57.173,eb:33:2e:f9:57:b5, 2085-97-139 01:20:00:2137,0.199,-0.009,1.059,47.18,10.071,2.686,2.181,-5.922,47.027
 14:22:57.173,eb:33:2e:f9:57:b5, 2085-97-146 01:52:00:2066,0.192,0.024,1.03,48.462,11.292,0.793,2.659,-5.806,47.054
 14:22:57.173,eb:33:2e:f9:57:b5, 2085-97-130 01:84:00:2016,0.194,0.033,0.992,50.232,1.038,-2.197,3.164,-5.74,47.043
 14:22:57.173,eb:33:2e:f9:57:b5, 2085-97-174 01:103:00:2057,0.233,0.045,0.991,52.429,-17.334,-7.202,3.686,-5.817,46.989
 14:22:57.202,eb:33:2e:f9:57:b5, 2085-97-239 01:131:00:2114,0.24,0.064,1.008,55.115,-36.194,-14.038,4.257,-6.097,46.862
 14:22:57.202,eb:33:2e:f9:57:b5, 2085-97-253 01:107:00:2205,0.248,0.051,1.067,57.739,-36.987,-18.188,4.856,-6.465,46.67
 14:22:57.202,eb:33:2e:f9:57:b5, 2085-97-254 01:153:00:2109,0.248,0.059,1.059,62.439,-33.752,-21.24,5.515,-6.806,46.439
 14:22:57.202,eb:33:2e:f9:57:b5, 2085-97-251 01:197:00:2024,0.248,0.085,1.009,64.392,-34.241,-24.475,6.202,-7.119,46.176
 14:22:57.232,eb:33:2e:f9:57:b5, 2085-97-04 02:220:00:2004,0.262,0.103,0.977,64.27,-37.781,-28.137,6.916,-7.454,45.868
 14:22:57.232,eb:33:2e:f9:57:b5, 2085-97-66 02:240:00:2058,0.297,0.107,0.993,64.697,-41.565,-31.006,7.63,-7.817,45.522
 14:22:57.232,eb:33:2e:f9:57:b5, 2085-97-122 02:10:01:2122,0.308,0.123,1.018,67.139,-40.039,-34.79,8.383,-8.19,45.126
 14:22:57.232,eb:33:2e:f9:57:b5, 2085-97-107 02:247:00:2236,0.309,0.132,1.063,67.139,-17.151,-36.926,9.146,-8.438,44.72
 14:22:57.262,eb:33:2e:f9:57:b5, 2085-97-122 02:05:01:2261,0.292,0.122,1.103,68.665,14.648,-36.377,9.91,-8.372,44.346
 14:22:57.262,eb:33:2e:f9:57:b5, 2085-97-53 02:08:01:2235,0.255,0.131,1.098,70.557,38.452,-36.133,10.684,-8.042,44.022
 14:22:57.262,eb:33:2e:f9:57:b5, 2085-97-233 01:255:00:2245,0.231,0.125,1.091,72.388,57.312,-34.607,11.459,-7.487,43.753
 14:22:57.262,eb:33:2e:f9:57:b5, 2085-97-201 01:246:00:2268,0.216,0.124,1.1,76.965,59.265,-32.654,12.25,-6.844,43.528
 14:22:57.321,eb:33:2e:f9:57:b5, 2085-97-160 01:243:00:2352,0.18,0.123,1.128,84.412,57.007,-30.09,13.107,-6.207,43.33
 14:22:57.321,eb:33:2e:f9:57:b5, 2085-97-82 01:196:00:2450,0.174,0.107,1.17,93.201,58.655,-25.024,14.024,-5.587,43.182
 14:22:57.321,eb:33:2e:f9:57:b5, 2085-97-164 01:200:00:2626,0.252,0.096,1.231,107.178,48.462,-21.423,15.051,-4.993,43.088
 14:22:57.321,eb:33:2e:f9:57:b5, 2085-97-123 02:07:01:2880,0.376,0.113,1.345,129.15,17.456,-26.062,16.26,-4.631,42.94
 14:22:57.352,eb:33:2e:f9:57:b5, 2085-97-83 03:33:01:3121,0.437,0.147,1.467,152.405,14.893,-33.264,17.732,-4.427,42.682
 14:22:57.352,eb:33:2e:f9:57:b5, 2085-97-135 03:23:01:3224,0.463,0.143,1.56,174.927,48.279,-38.574,19.413,-4.016,42.429
 14:22:57.352,eb:33:2e:f9:57:b5, 2085-97-203 03:62:01:3192,0.517,0.146,1.566,200.623,74.707,-46.143,21.335,-3.257,42.242
 14:22:57.352,eb:33:2e:f9:57:b5, 2085-97-99 04:62:01:3254,0.591,0.164,1.553,232.788,80.261,-62.012,23.549,-2.318,42.023
 14:22:57.411,eb:33:2e:f9:57:b5, 2085-97-57 05:35:01:3583,0.784,0.149,1.657,265.747,82.642,-81.116,26.098,-1.291,41.688
 14:22:57.411,eb:33:2e:f9:57:b5, 2085-97-12 07:38:01:3962,0.955,0.147,1.816,307.678,85.876,-106.445,29.015,-0.11,41.221
 14:22:57.411,eb:33:2e:f9:57:b5, 2085-97-187 07:137:00:4538,0.913,0.138,2.063,357.178,111.206,-137.024,32.399,1.346,40.627
 14:22:57.411,eb:33:2e:f9:57:b5, 2085-97-119 06:88:255:4974,0.676,-0.031,2.335,417.725,133.545,-161.133,36.31,3.235,40.062
 14:22:57.441,eb:33:2e:f9:57:b5, 2085-97-54 04:89:01:5879,0.463,-0.065,2.621,484.741,81.421,-173.767,40.853,5.153,39.397
 14:22:57.441,eb:33:2e:f9:57:b5, 2085-97-155 03:129:08:6462,0.394,0.626,3.113,536.56,13,-162.17,45.978,6.608,38.425
 14:22:57.441,eb:33:2e:f9:57:b5, 2085-97-242 02:160:12:6220,0.266,1.366,3.116,562.073,-3.845,-151.001,51.443,7.718,37.381
 14:22:57.441,eb:33:2e:f9:57:b5, 2085-97-155 02:140:11:6306,0.403,1.693,3.098,562.378,-54.871,-180.115,57.014,8.893,36.222
 14:22:57.471,eb:33:2e:f9:57:b5, 2085-97-41 05:03:03:6575,0.949,0.807,3.146,546.814,-195.251,-238.953,62.353,10.047,33.975
 14:22:57.471,eb:33:2e:f9:57:b5, 2085-97-14 10:252:00:7419,1.548,0.281,3.398,493.286,-216.37,-258.118,67.192,11.305,30.839
 14:22:57.471,eb:33:2e:f9:57:b5, 2085-97-48 15:246:255:7318,1.949,0.208,3.711,451.172,-73.792,-249.573,71.537,13.079,28.499
 14:22:57.472,eb:33:2e:f9:57:b5, 2085-113-58 00:189:247:-7770,1.709,-0.577,3.178,412.903,76.233,-230.835,75.767,15.43,27.768
 14:22:57.501,eb:33:2e:f9:57:b5, 2085-97-160 12:134:243:2351,0.871,-1.178,2.469,370.972,166.504,-192.627,77.789,16.606,28.163
 14:22:57.501,eb:33:2e:f9:57:b5, 2085-97-225 07:108:243:-1875,1.152,-2.071,0.208,207.764,310.73,-64.514,81.2,18.402,30.388
 14:22:57.501,eb:33:2e:f9:57:b5, 2085-97-115 03:139:235:-1757,0.408,-1.581,-0.721,28.198,192.383,-146.057,82.678,19.567,32.871
 14:22:57.501,eb:33:2e:f9:57:b5, 2085-97-15 01:214:251:-1156,0.389,-0.221,-0.772,-38.208,262.939,-70.923,83.974,20.627,35.365
 14:22:57.562,eb:33:2e:f9:57:b5, 2085-97-01 04:210:236:878,0.423,-1.486,-0.024,-254.822,-175.476,-72.693,82.277,21.253,35.629
 14:22:57.562,eb:33:2e:f9:57:b5, 2085-97-40 03:225:239:1724,0.466,-2.603,0.753,-264.099,-240.845,6.714,78.893,21.143,32.937
 14:22:57.562,eb:33:2e:f9:57:b5, 2085-97-173 05:66:246:1910,0.932,-1.531,0.858,-351.379,-116.516,81.177,75.361,20.237,31.432
 14:22:57.562,eb:33:2e:f9:57:b5, 2085-97-02 08:57:248:2434,0.929,-1.092,1.097,-381.775,-153.076,80.994,71.329,19.034,30.361
 14:22:57.592,eb:33:2e:f9:57:b5, 2085-97-110 06:07:249:1922,0.708,-0.888,1.143,-408.386,-43.274,103.333,67.209,17.792,29.614
 14:22:57.592,eb:33:2e:f9:57:b5, 2085-97-105 05:179:249:617,0.701,-0.855,0.613,-417.419,61.096,117.493,63.204,16.891,30.399
 14:22:57.592,eb:33:2e:f9:57:b5, 2085-97-248 05:134:251:279,0.792,-0.676,0.124,-397.644,-61.462,88.501,59.26,16.024,31.014
 14:22:57.592,eb:33:2e:f9:57:b5, 2085-97-126 06:230:251:1198,0.825,-0.494,0.312,-377.747,-226.624,58.716,55.201,14.524,30.037
 14:22:57.624,eb:33:2e:f9:57:b5, 2085-97-134 06:13:251:2029,0.787,-0.559,0.831,-374.573,-225.098,66.833,51.202,12.574,28.504
 14:22:57.624,eb:33:2e:f9:57:b5, 2085-97-01 06:188:250:2094,0.726,-0.65,1.045,-383.545,-147.095,90.942,47.28,10.756,27.664
 14:22:57.624,eb:33:2e:f9:57:b5, 2085-97-197 05:205:250:1930,0.742,-0.659,0.978,-397.034,-115.173,110.352,43.358,9.146,27.521
 14:22:57.624,eb:33:2e:f9:57:b5, 2085-97-58 06:122:251:1939,0.818,-0.623,0.932,-409.424,-110.291,126.831,39.304,7.504,27.691
 14:22:57.682,eb:33:2e:f9:57:b5, 2085-97-220 06:223:252:2074,0.896,-0.487,0.979,-413.635,-98.145,141.174,35.2,5.867,28.169
 14:22:57.682,eb:33:2e:f9:57:b5, 2085-97-145 07:178:254:2215,1.016,-0.278,1.049,-401.367,-97.656,146.729,31.102,4.268,28.872
 14:22:57.682,eb:33:2e:f9:57:b5, 2085-97-176 08:73:00:2413,1.139,-0.05,1.12,-374.451,-124.939,143.005,27.224,2.615,29.641
 14:22:57.682,eb:33:2e:f9:57:b5, 2085-97-82 09:48:00:2642,1.178,0.065,1.243,-346.069,-152.771,139.526,23.588,0.72,30.322
 14:22:57.711,eb:33:2e:f9:57:b5, 2085-97-145 09:39:255:2688,1.224,-0.045,1.305,-325.867,-156.494,145.508,20.187,-1.23,31.108
 14:22:57.711,eb:33:2e:f9:57:b5, 2085-97-50 10:246:254:2992,1.343,-0.14,1.351,-314.27,-179.749,154.48,16.864,-3.296,32.036
 14:22:57.711,eb:33:2e:f9:57:b5, 2085-97-102 11:60:00:3575,1.497,-0.073,1.594,-299.744,-208.679,167.053,13.634,-5.603,33.135
 14:22:57.711,eb:33:2e:f9:57:b5, 2085-97-101 12:189:02:4154,1.58,0.167,1.897,-278.137,-214.233,178.711,10.47,-8.047,34.453
 14:22:57.742,eb:33:2e:f9:57:b5, 2085-97-229 12:58:06:4478,1.632,0.551,2.123,-248.352,-207.031,182.373,7.493,-10.377,36.013
 14:22:57.742,eb:33:2e:f9:57:b5, 2085-97-17 13:221:08:4814,1.595,0.975,2.255,-223.511,-219.971,179.443,4.675,-12.656,37.689
 14:22:57.742,eb:33:2e:f9:57:b5, 2085-97-03 12:145:09:5096,1.372,1.167,2.446,-211.06,-249.268,179.138,1.967,-15.095,39.474
 14:22:57.742,eb:33:2e:f9:57:b5, 2085-97-81 10:81:11:4942,1.244,1.258,2.459,-208.313,-220.947,191.711,-0.846,-17.485,41.479
 14:22:57.834,eb:33:2e:f9:57:b5, 2085-97-144 09:66:15:5288,1.111,1.645,2.444,-198.303,-223.206,195.74,-3.757,-19.517,43.737
 14:22:57.834,eb:33:2e:f9:57:b5, 2085-97-251 07:242:18:5771,0.866,2.151,2.735,-173.523,-217.102,188.11,-6.625,-21.583,46.115
 14:22:57.834,eb:33:2e:f9:57:b5, 2085-97-128 05:238:21:5521,0.453,2.572,2.796,-148.193,-165.283,179.382,-9.267,-23.137,48.477
 14:22:57.834,eb:33:2e:f9:57:b5, 2085-97-145 01:80:23:5003,-0.059,2.853,2.568,-135.437,-128.845,167.542,-11.728,-24.225,50.729
 14:22:57.836,eb:33:2e:f9:57:b5, 2085-97-185 253:222:23:4710,-0.465,2.948,2.349,-133.179,-101.013,157.959,-14.079,-24.917,52.833
 14:22:57.836,eb:33:2e:f9:57:b5, 2085-97-93 251:42:25:4673,-0.638,3.043,2.285,-123.291,-91.919,142.273,-16.342,-25.422,54.8
 14:22:57.836,eb:33:2e:f9:57:b5, 2085-97-162 250:141:27:4482,-0.686,3.289,2.264,-103.149,-69.031,119.69,-18.32,-25.796,56.525
 14:22:57.836,eb:33:2e:f9:57:b5, 2085-97-134 250:248:29:3668,-0.695,3.604,2.032,-85.144,20.813,100.769,-19.891,-25.659,57.805
 14:22:57.893,eb:33:2e:f9:57:b5, 2085-97-28 250:116:31:2551,-0.801,3.863,1.509,-67.383,112.854,78.674,-20.962,-24.626,58.436
 14:22:57.893,eb:33:2e:f9:57:b5, 2085-97-254 248:232:30:1978,-0.95,3.936,1.051,-38.33,125.183,44.8,-21.533,-23.214,58.513
 14:22:57.893,eb:33:2e:f9:57:b5, 2085-97-02 248:20:28:2355,-1,3.72,0.995,7.019,33.813,-1.038,-21.61,-22.385,58.37
 14:22:57.893,eb:33:2e:f9:57:b5, 2085-97-77 248:171:24:3244,2.69,3.305,1.353,59.875,-78.613,-48.157,-21.16,-22.83,58.206
 14:22:57.921,eb:33:2e:f9:57:b5, 2085-97-30 249:141:07:9185,1.508,2.667,5.682,309.631,-504.944,-401.733,-19.325,-25.296,57.228
 14:22:57.921,eb:33:2e:f9:57:b5, 2085-97-224 10:193:01:3030,1.533,0.483,2.451,265.686,212.524,-126.526,-15.452,-27.334,55.898
 14:22:57.921,eb:33:2e:f9:57:b5, 2085-97-65 06:138:249:1016,-0.756,-1.013,0.415,205.261,719.116,-71.838,-12.019,-21.901,53.163
 14:22:57.921,eb:33:2e:f9:57:b5, 2085-97-187 250:200:239:-1112,-0.302,-2.374,0.843,248.596,733.887,69.58,-9.113,-14.513,51.438
 14:22:57.951,eb:33:2e:f9:57:b5, 2085-97-93 255:80:05:3819,-0.491,-0.728,0.152,370.728,-126.953,-46.082,-5.883,-11.459,51.18
 14:22:57.951,eb:33:2e:f9:57:b5, 2085-97-02 254:152:07:5643,-0.278,0.875,3.209,290.71,-162.781,-51.208,-2.258,-13.958,50.559
 14:22:57.951,eb:33:2e:f9:57:b5, 2085-97-196 255:108:07:2453,0.342,0.468,2.04,145.081,131.409,106.14,-0.313,-13.771,50.955
 14:22:57.951,eb:33:2e:f9:57:b5, 2085-97-27 05:188:02:600,0.7,1.042,0.475,16.846,-22.339,7.69,0.071,-12.936,51.74
 14:22:58.011,eb:33:2e:f9:57:b5, 2085-97-231 03:251:255:2710,0.482,0.331,0.781,17.212,-241.089,-69.458,0.39,-14.804,51.383
 14:22:58.011,eb:33:2e:f9:57:b5, 2085-97-17 03:09:255:2744,0.271,-0.091,1.466,-3.052,23.315,-2.075,0.593,-15.93,51.004
 14:22:58.011,eb:33:2e:f9:57:b5, 2085-97-201 01:102:00:1545,0.229,-0.069,1.048,-11.414,190.857,42.786,0.406,-14.502,51.279
 14:22:58.011,eb:33:2e:f9:57:b5, 2085-97-93 02:220:00:1186,0.36,0.104,0.581,-0.854,49.011,13.855,0.258,-13.195,51.592
 14:22:58.070,eb:33:2e:f9:57:b5, 2085-97-40 03:48:00:2003,0.438,0.09,0.759,7.324,-100.098,-24.17,0.341,-13.689,51.487
 14:22:58.071,eb:33:2e:f9:57:b5, 2085-97-203 03:19:00:2241,0.426,-0.008,1.096,1.709,-38.696,-13.55,0.467,-14.474,51.279
 14:22:58.071,eb:33:2e:f9:57:b5, 2085-97-207 02:221:255:1975,0.3,-0.005,1.043,-4.822,46.997,-12.573,0.483,-14.343,51.152
 14:22:58.071,eb:33:2e:f9:57:b5, 2085-97-55 02:231:255:1744,0.279,-0.016,0.887,-3.174,48.218,-16.541,0.5,-13.788,50.982
 14:22:58.074,eb:33:2e:f9:57:b5, 2085-97-99 02:225:255:1857,0.299,-0.013,0.869,1.587,1.709,-18.555,0.555,-13.563,50.79
 14:22:58.074,eb:33:2e:f9:57:b5, 2085-97-83 02:183:255:1959,0.295,-0.027,0.948,2.319,-1.465,-14.099,0.643,-13.601,50.603
 14:22:58.074,eb:33:2e:f9:57:b5, 2085-97-80 02:198:255:1873,0.296,-0.02,0.931,2.991,6.714,-5.981,0.698,-13.557,50.51
 14:22:58.074,eb:33:2e:f9:57:b5, 2085-97-83 02:198:255:1878,0.309,-0.02,0.907,5.554,-5.737,-2.136,0.769,-13.552,50.466
 14:22:58.162,eb:33:2e:f9:57:b5, 2085-97-153 02:226:255:1896,0.347,-0.014,0.92,7.812,-13.611,-0.732,0.84,-13.656,50.46
 14:22:58.162,eb:33:2e:f9:57:b5, 2085-97-56 03:38:00:1910,0.424,-0.011,0.933,8.057,-15.259,1.831,0.934,-13.804,50.46
 14:22:58.162,eb:33:2e:f9:57:b5, 2085-97-90 03:249:255:2051,0.439,0.009,0.967,5.493,-3.54,1.526,1,-13.92,50.466
 14:22:58.162,eb:33:2e:f9:57:b5, 2085-97-65 03:246:255:2104,0.38,0.009,1.013,1.282,40.405,8.362,1.022,-13.722,50.532
 14:22:58.162,eb:33:2e:f9:57:b5, 2085-97-30 03:47:00:1976,0.373,-0.01,1,-1.038,84.167,13.794,0.983,-13.052,50.647
 14:22:58.164,eb:33:2e:f9:57:b5, 2085-113-58 00:02:239:-4770,0.383,0.004,0.968,0.977,87.83,8.24,0.961,-12.173,50.751
 14:22:58.164,eb:33:2e:f9:57:b5, 2085-97-41 03:250:255:2071,0.389,0.006,0.972,3.296,86.121,5.493,0.967,-11.739,50.784
 14:22:58.164,eb:33:2e:f9:57:b5, 2085-97-21 03:230:255:2213,0.36,-0.017,1.051,10.437,91.797,1.099,1.044,-10.865,50.795
 14:22:58.164,eb:33:2e:f9:57:b5, 2085-97-136 02:204:255:2215,0.253,-0.035,1.112,16.418,118.835,1.953,1.176,-9.805,50.801
 14:22:58.222,eb:33:2e:f9:57:b5, 2085-97-116 01:209:255:2002,0.063,-0.025,1.017,16.724,141.907,7.019,1.346,-8.481,50.845
 14:22:58.222,eb:33:2e:f9:57:b5, 2085-97-73 01:237:254:2331,0.19,-0.063,1.09,25.208,119.263,8.972,1.511,-7.103,50.944
 14:22:58.222,eb:33:2e:f9:57:b5, 2085-97-173 01:253:255:2125,0.231,-0.088,1.127,65.063,-2.136,-9.46,2.021,-6.636,50.933
 14:22:58.222,eb:33:2e:f9:57:b5, 2085-97-03 02:60:00:2118,0.235,0.036,1.013,58.777,5.188,-8.362,2.681,-6.685,50.834
 14:22:58.252,eb:33:2e:f9:57:b5, 2085-97-152 01:30:00:2090,0.201,0.011,1.052,57.495,19.592,-7.69,3.274,-6.537,50.757
 14:22:58.252,eb:33:2e:f9:57:b5, 2085-97-144 01:108:00:1888,0.192,0.043,0.963,59.875,11.963,-9.216,3.878,-6.345,50.685
 14:22:58.252,eb:33:2e:f9:57:b5, 2085-97-156 01:117:00:1930,0.235,0.056,0.922,60.669,-17.09,-14.771,4.515,-6.378,50.554
 14:22:58.252,eb:33:2e:f9:57:b5, 2085-97-11 02:159:00:2013,0.271,0.073,0.955,62.073,-40.1,-19.348,5.169,-6.674,50.356
 14:22:58.283,eb:33:2e:f9:57:b5, 2085-97-59 02:162:00:2096,0.295,0.081,1.006,61.401,-38.574,-21.79,5.845,-7.07,50.109
 14:22:58.283,eb:33:2e:f9:57:b5, 2085-97-112 02:196:00:2089,0.299,0.087,1.025,61.096,-27.466,-22.461,6.504,-7.372,49.856
 14:22:58.283,eb:33:2e:f9:57:b5, 2085-97-103 02:224:00:2043,0.298,0.099,1.014,60.486,-16.052,-24.109,7.18,-7.564,49.587
 14:22:58.283,eb:33:2e:f9:57:b5, 2085-97-99 02:254:00:1988,0.291,0.118,0.984,59.082,-3.296,-25.085,7.828,-7.625,49.329
 14:22:58.311,eb:33:2e:f9:57:b5, 2085-97-54 02:17:01:1951,0.273,0.129,0.958,58.777,6.714,-27.344,8.481,-7.57,49.059
 14:22:58.311,eb:33:2e:f9:57:b5, 2085-97-65 02:53:01:1945,0.29,0.139,0.948,58.228,12.756,-29.053,9.119,-7.421,48.79
 14:22:58.311,eb:33:2e:f9:57:b5, 2085-97-137 02:101:01:2044,0.323,0.157,0.969,59.326,7.324,-34.607,9.778,-7.278,48.477
 14:22:58.311,eb:33:2e:f9:57:b5, 2085-97-145 02:66:01:2204,0.316,0.167,1.038,58.411,20.325,-39.551,10.443,-7.108,48.115
 14:22:58.371,eb:33:2e:f9:57:b5, 2085-97-77 02:37:01:2234,0.236,0.15,1.096,57.373,57.373,-39.001,11.091,-6.641,47.78
 14:22:58.371,eb:33:2e:f9:57:b5, 2085-97-112 01:237:00:2148,0.131,0.127,1.074,56.091,94.055,-34.546,11.7,-5.812,47.549
 14:22:58.371,eb:33:2e:f9:57:b5, 2085-97-201 00:216:00:2047,0.093,0.109,1.02,56.641,108.093,-26.917,12.288,-4.724,47.444
 14:22:58.371,eb:33:2e:f9:57:b5, 2085-97-205 00:243:00:2100,0.114,0.114,1.001,63.11,78.186,-24.17,12.892,-3.746,47.39
 14:22:58.403,eb:33:2e:f9:57:b5, 2085-97-30 01:254:00:2288,0.156,0.122,1.069,73.73,39.368,-25.452,13.612,-3.153,47.258
 14:22:58.403,eb:33:2e:f9:57:b5, 2085-97-98 01:254:00:2465,0.173,0.121,1.167,84.045,31.433,-23.438,14.431,-2.785,47.087
 14:22:58.403,eb:33:2e:f9:57:b5, 2085-97-122 01:230:00:2644,0.211,0.11,1.257,97.046,41.504,-19.592,15.359,-2.379,46.961
 14:22:58.403,eb:33:2e:f9:57:b5, 2085-97-252 01:29:01:2764,0.292,0.122,1.32,114.807,36.56,-20.264,16.43,-1.939,46.873
 14:22:58.431,eb:33:2e:f9:57:b5, 2085-97-157 02:67:01:2988,0.366,0.149,1.395,137.207,26.123,-27.527,17.726,-1.582,46.725
 14:22:58.431,eb:33:2e:f9:57:b5, 2085-97-42 03:69:01:3228,0.431,0.164,1.525,161.072,32.227,-35.278,19.248,-1.219,46.505
 14:22:58.431,eb:33:2e:f9:57:b5, 2085-97-165 03:80:01:3279,0.484,0.158,1.595,184.998,59.387,-42.358,21.022,-0.665,46.28
 14:22:58.432,eb:33:2e:f9:57:b5, 2085-97-234 03:115:01:3232,0.507,0.169,1.588,208.557,94.788,-49.866,23.011,0.242,46.132
 14:22:58.521,eb:33:2e:f9:57:b5, 2085-97-62 04:102:01:3249,0.599,0.182,1.569,234.985,113.831,-61.035,25.252,1.45,46.044
 14:22:58.521,eb:33:2e:f9:57:b5, 2085-97-144 05:162:01:3502,0.791,0.181,1.63,269.287,106.995,-80.75,27.79,2.769,45.884
 14:22:58.521,eb:33:2e:f9:57:b5, 2085-97-50 07:114:01:4050,0.929,0.202,1.843,312.073,95.52,-111.023,30.723,4.087,45.489
 14:22:58.521,eb:33:2e:f9:57:b5, 2085-97-71 07:51:00:4644,0.806,0.128,2.139,362.549,128.357,-140.625,34.107,5.696,44.967
 14:22:58.523,eb:33:2e:f9:57:b5, 2085-97-160 05:190:255:4951,0.621,-0.041,2.336,421.265,159.119,-156.006,38.035,7.773,44.594
 14:22:58.523,eb:33:2e:f9:57:b5, 2085-97-203 04:21:04:5523,0.603,0.091,2.517,488.342,80.994,-166.809,42.561,9.767,44.116
 14:22:58.523,eb:33:2e:f9:57:b5, 2085-97-159 03:04:11:5841,0.379,1.016,2.755,533.63,13.55,-161.743,47.615,11.168,43.176
 14:22:58.523,eb:33:2e:f9:57:b5, 2085-97-155 01:88:13:6184,0.126,1.627,2.912,552.307,-9.033,-162.781,52.927,12.387,42.171
 14:22:58.554,eb:33:2e:f9:57:b5, 2085-97-33 02:220:08:5980,0.437,1.348,2.958,566.772,-82.031,-201.355,58.293,13.645,40.759
 14:22:58.554,eb:33:2e:f9:57:b5, 2085-97-38 05:13:07:6819,1.056,0.716,3.008,555.359,-251.404,-248.657,63.446,14.771,38.051
 14:22:58.554,eb:33:2e:f9:57:b5, 2085-97-68 10:58:02:7556,1.634,0.407,3.615,487,-301.27,-279.541,67.846,15.947,34.167
 14:22:58.554,eb:33:2e:f9:57:b5, 2085-97-22 15:101:254:6514,1.811,0.343,3.551,413.208,-12.695,-256.775,71.807,17.82,31.63
 14:22:58.643,eb:33:2e:f9:57:b5, 2085-97-135 12:100:247:3895,1.185,-0.652,2.587,358.887,114.807,-225.769,75.63,20.292,31.487
 14:22:58.643,eb:33:2e:f9:57:b5, 2085-97-133 06:248:240:190,0.892,-1.344,0.866,226.44,210.022,-153.625,78.953,22.511,32.613
 14:22:58.643,eb:33:2e:f9:57:b5, 2085-97-219 09:15:233:-332,-0.038,-1.448,-0.042,28.198,153.076,-121.094,80.76,23.868,34.574
 14:22:58.643,eb:33:2e:f9:57:b5, 2085-97-07 00:109:251:-1294,0.558,-1.224,-0.372,80.566,426.941,-39.917,82.623,25.142,36.815
 14:22:58.643,eb:33:2e:f9:57:b5, 2085-97-124 02:26:241:-288,0.403,-0.414,-0.905,-197.571,154.175,5.066,83.046,25.477,40.529
 14:22:58.643,eb:33:2e:f9:57:b5, 2085-97-90 01:155:237:604,0.267,-2.304,0.07,-213.318,-230.774,9.033,80.491,25.296,39.375
 14:22:58.643,eb:33:2e:f9:57:b5, 2085-97-49 04:200:245:1026,0.799,-1.671,0.379,-286.072,-158.508,107.178,77.366,24.197,37.458
 14:22:58.644,eb:33:2e:f9:57:b5, 2085-97-231 07:102:248:2054,1.042,-1.097,0.76,-338.074,-212.341,116.516,73.647,22.582,35.92
 14:22:58.671,eb:33:2e:f9:57:b5, 2085-97-236 07:38:251:2245,0.88,-0.764,1.131,-354.736,-166.626,122.925,69.681,20.77,34.272
 14:22:58.671,eb:33:2e:f9:57:b5, 2085-97-02 06:173:251:1249,0.637,-0.547,0.904,-381.287,-0.427,136.292,65.934,19.286,34.091
 14:22:58.671,eb:33:2e:f9:57:b5, 2085-97-176 04:203:251:173,0.579,-0.543,0.302,-378.174,13.855,120.422,62.309,18.221,34.898
 14:22:58.671,eb:33:2e:f9:57:b5, 2085-97-195 04:99:252:110,0.624,-0.49,0,-358.154,-129.089,80.811,58.64,17.067,34.92
 14:22:58.734,eb:33:2e:f9:57:b5, 2085-97-20 05:43:252:852,0.653,-0.44,0.21,-341.858,-266.785,51.758,54.844,15.32,33.464
 14:22:58.734,eb:33:2e:f9:57:b5, 2085-97-57 05:60:251:1560,0.62,-0.53,0.605,-341.003,-276.184,53.955,51.097,13.178,31.542
 14:22:58.734,eb:33:2e:f9:57:b5, 2085-97-134 04:95:250:2041,0.499,-0.659,0.889,-347.839,-233.643,68.481,47.422,11.019,30.037
 14:22:58.734,eb:33:2e:f9:57:b5, 2085-97-168 03:32:250:2391,0.454,-0.735,1.092,-354.431,-207.947,86.365,43.808,8.915,29.059
 14:22:59.331,eb:33:2e:f9:57:b5, 2085-97-02 04:184:250:2557,0.55,-0.712,1.218,-362.122,-184.631,107.544,40.166,6.779,28.499
 14:22:59.331,eb:33:2e:f9:57:b5, 2085-97-204 04:170:251:2564,0.64,-0.605,1.256,-370.85,-143.921,131.042,36.491,4.746,28.477
 14:22:59.331,eb:33:2e:f9:57:b5, 2085-97-109 05:210:252:2477,0.725,-0.474,1.237,-374.573,-105.225,148.071,32.728,2.95,28.965
 14:22:59.331,eb:33:2e:f9:57:b5, 2085-97-86 06:16:254:2375,0.875,-0.317,1.181,-368.347,-108.093,154.297,28.982,1.302,29.784
 14:22:59.333,eb:33:2e:f9:57:b5, 2085-97-171 07:196:254:2471,1.028,-0.184,1.164,-356.75,-148.743,153.015,25.285,-0.549,30.586
 14:22:59.333,eb:33:2e:f9:57:b5, 2085-97-159 08:202:254:2728,1.113,-0.149,1.268,-345.459,-181.213,153.259,21.709,-2.697,31.366
 14:22:59.333,eb:33:2e:f9:57:b5, 2085-97-44 09:80:255:2984,1.189,-0.131,1.394,-334.412,-191.162,157.532,18.166,-4.988,32.228
 14:22:59.333,eb:33:2e:f9:57:b5, 2085-97-231 09:230:00:3427,1.292,0,1.545,-317.322,-213.501,157.959,14.727,-7.35,33.245
 14:22:59.361,eb:33:2e:f9:57:b5, 2085-97-176 10:108:03:4125,1.364,0.257,1.835,-288.33,-237.732,153.931,11.437,-9.932,34.316
 14:22:59.361,eb:33:2e:f9:57:b5, 2085-97-238 10:88:06:4842,1.345,0.62,2.191,-249.023,-233.521,151.001,8.454,-12.508,35.502
 14:22:59.361,eb:33:2e:f9:57:b5, 2085-97-131 10:202:07:5537,1.281,0.909,2.537,-209.412,-244.934,150.757,5.751,-15.035,36.815
 14:22:59.361,eb:33:2e:f9:57:b5, 2085-97-229 09:121:08:5894,1.192,1.012,2.832,-181.152,-262.39,157.593,3.318,-17.704,38.287
 14:22:59.363,eb:33:2e:f9:57:b5, 2085-97-32 09:165:10:5628,1.074,1.159,2.835,-175.476,-212.585,180.298,0.829,-20.143,40.089
 14:22:59.363,eb:33:2e:f9:57:b5, 2085-97-219 07:245:14:5295,0.864,1.574,2.658,-176.27,-151.428,198.425,-1.857,-21.857,42.259
 14:22:59.363,eb:33:2e:f9:57:b5, 2085-97-04 06:177:19:5125,0.633,2.166,2.53,-164.551,-119.385,197.449,-4.636,-23.027,44.604
 14:22:59.363,eb:33:2e:f9:57:b5, 2085-97-212 03:66:23:5080,0.282,2.724,2.49,-144.47,-143.433,175.354,-7.224,-24.077,46.873
 14:22:59.368,eb:33:2e:f9:57:b5, 2085-97-141 00:184:23:4880,-0.165,2.987,2.443,-134.277,-146.851,155.396,-9.635,-25.307,49.005
 14:22:59.368,eb:33:2e:f9:57:b5, 2085-97-159 252:100:23:4725,-0.576,2.914,2.345,-133.667,-108.704,149.536,-11.981,-26.235,51.015
 14:22:59.368,eb:33:2e:f9:57:b5, 2085-97-206 250:140:24:4579,-0.668,2.979,2.273,-125.366,-61.829,143.738,-14.249,-26.675,52.91
 14:22:59.368,eb:33:2e:f9:57:b5, 2085-97-160 250:124:27:4168,-0.666,3.225,2.168,-106.628,-24.292,127.441,-16.254,-26.708,54.564
 14:22:59.390,eb:33:2e:f9:57:b5, 2085-97-185 250:121:30:3137,0.241,3.642,1.817,-88.928,71.899,110.718,-17.842,-26.115,55.772
 14:22:59.390,eb:33:2e:f9:57:b5, 2085-97-222 01:90:00:2002,0.224,0.04,0.993,38.33,31.555,-1.343,4.01,-7.355,50.867
 14:22:59.390,eb:33:2e:f9:57:b5, 2085-97-182 01:78:00:2019,0.224,0.042,0.978,41.26,17.761,-4.578,4.422,-7.092,50.85
 14:22:59.390,eb:33:2e:f9:57:b5, 2085-113-58 00:81:235:-4185,0.237,0.05,0.98,45.776,-4.517,-8.667,4.878,-7.037,50.784
 14:22:59.421,eb:33:2e:f9:57:b5, 2085-97-237 01:137:00:1991,0.249,0.064,0.968,46.814,-10.254,-10.681,5.12,-7.075,50.729
 14:22:59.421,eb:33:2e:f9:57:b5, 2085-97-09 02:147:00:2029,0.264,0.07,0.981,47.485,-15.076,-13.184,5.625,-7.202,50.598
 14:22:59.421,eb:33:2e:f9:57:b5, 2085-97-50 02:184:00:2063,0.273,0.077,0.999,49.683,-19.531,-16.418,6.147,-7.366,50.427
 14:22:59.421,eb:33:2e:f9:57:b5, 2085-97-75 02:178:00:2100,0.301,0.08,1.022,51.575,-22.644,-20.264,6.707,-7.564,50.213
 14:22:59.452,eb:33:2e:f9:57:b5, 2085-97-108 02:229:00:2070,0.289,0.099,1.016,54.504,-21.24,-23.621,7.289,-7.762,49.96
 14:22:59.452,eb:33:2e:f9:57:b5, 2085-97-66 02:207:00:2089,0.277,0.105,1.017,54.26,-8.85,-25.452,7.905,-7.883,49.686
 14:22:59.452,eb:33:2e:f9:57:b5, 2085-97-59 02:231:00:2071,0.277,0.106,1.017,56.702,-5.188,-27.344,8.514,-7.91,49.411
 14:22:59.452,eb:33:2e:f9:57:b5, 2085-97-60 02:24:01:2072,0.259,0.12,1.007,58.655,-3.113,-29.236,9.168,-7.921,49.109
 14:22:59.452,eb:33:2e:f9:57:b5, 2085-113-81 00:207:140:-3626,0.263,0.116,1.038,57.251,14.709,-29.602,9.805,-7.828,48.812
 14:22:59.482,eb:33:2e:f9:57:b5, 2085-97-10 02:194:00:2263,0.244,0.119,1.073,58.472,20.447,-29.785,10.135,-7.712,48.675
 14:22:59.482,eb:33:2e:f9:57:b5, 2085-97-215 01:164:00:2308,0.21,0.087,1.129,65.918,23.743,-29.297,10.811,-7.443,48.411
 14:22:59.482,eb:33:2e:f9:57:b5, 2085-97-136 01:163:00:2286,0.165,0.08,1.124,72.876,33.936,-25.513,11.569,-7.114,48.181
 14:22:59.482,eb:33:2e:f9:57:b5, 2085-97-94 01:162:00:2317,0.216,0.074,1.118,80.261,36.377,-20.081,12.365,-6.707,48.027
 14:22:59.542,eb:33:2e:f9:57:b5, 2085-97-75 02:08:01:2519,0.364,0.099,1.159,96.863,2.38,-23.254,13.288,-6.465,47.862
 14:22:59.542,eb:33:2e:f9:57:b5, 2085-97-155 03:34:01:3020,0.503,0.126,1.343,120.361,-34.607,-36.255,14.447,-6.603,47.51
 14:22:59.542,eb:33:2e:f9:57:b5, 2085-97-126 04:11:01:3422,0.573,0.111,1.594,144.836,-15.991,-45.898,15.886,-6.795,47.016
 14:22:59.542,eb:33:2e:f9:57:b5, 2085-97-145 04:221:00:3443,0.568,0.116,1.686,166.565,48.462,-50.171,17.534,-6.498,46.588
 14:22:59.572,eb:33:2e:f9:57:b5, 2085-97-131 04:214:00:3364,0.566,0.117,1.655,190.979,99.67,-55.054,19.385,-5.581,46.324
 14:22:59.572,eb:33:2e:f9:57:b5, 2085-97-206 04:207:00:3448,0.664,0.109,1.656,219.238,118.53,-63.721,21.478,-4.323,46.132
 14:22:59.572,eb:33:2e:f9:57:b5, 2085-97-216 05:231:00:3624,0.792,0.119,1.713,252.319,113.403,-78.43,23.89,-2.983,45.89
 14:22:59.572,eb:33:2e:f9:57:b5, 2085-97-245 06:162:00:4100,0.987,0.095,1.876,291.321,117.737,-99.67,26.658,-1.571,45.538
 14:22:59.632,eb:33:2e:f9:57:b5, 2085-97-114 08:199:255:4518,0.994,0.041,2.121,343.811,129.7,-126.892,29.894,0.049,45.093
 14:22:59.632,eb:33:2e:f9:57:b5, 2085-97-208 07:95:254:4805,0.96,-0.144,2.311,406.006,169.189,-151.001,33.69,2.071,44.643
 14:22:59.632,eb:33:2e:f9:57:b5, 2085-97-97 07:70:255:4871,0.867,-0.209,2.311,475.464,147.583,-173.767,38.145,4.334,44.236
 14:22:59.632,eb:33:2e:f9:57:b5, 2085-97-219 05:78:05:5516,0.619,0.221,2.524,547.607,61.218,-191.467,43.292,6.29,43.423
 14:22:59.662,eb:33:2e:f9:57:b5, 2085-97-254 02:18:11:6264,0.221,0.988,2.815,579.224,12.268,-172.363,48.928,7.811,42.369
 14:22:59.662,eb:33:2e:f9:57:b5, 2085-97-129 02:95:13:7170,0.279,1.69,3.371,585.999,-67.444,-187.805,54.662,8.992,41.05
 14:22:59.662,eb:33:2e:f9:57:b5, 2085-97-122 04:42:06:6413,0.782,1.319,3.466,573.303,-135.254,-241.028,60.244,10.157,38.82
 14:22:59.662,eb:33:2e:f9:57:b5, 2085-97-173 07:215:03:5684,1.042,0.487,2.865,518.005,-68.42,-236.45,65.484,11.816,36.755
 14:22:59.721,eb:33:2e:f9:57:b5, 2085-97-211 10:126:04:5876,1.667,0.577,2.854,456.909,-31.006,-219.116,70.076,13.7,35.469
 14:22:59.721,eb:33:2e:f9:57:b5, 2085-97-96 15:108:251:5602,1.763,-0.051,2.936,434.387,-118.652,-254.089,74.224,15.738,33.942
 14:22:59.721,eb:33:2e:f9:57:b5, 2085-97-34 12:198:245:3796,1.303,-1.06,2.438,365.601,-26.123,-226.135,77.899,17.875,32.355
 14:22:59.721,eb:33:2e:f9:57:b5, 2085-97-46 07:80:242:-016,1.741,-1.291,0.559,223.511,164.307,-158.569,80.991,19.83,32.673
 14:22:59.724,eb:33:2e:f9:57:b5, 2085-97-172 04:195:233:-862,0.086,-1.411,-0.142,84.412,29.358,-218.75,82.524,21.473,33.799
 14:22:59.724,eb:33:2e:f9:57:b5, 2085-97-98 00:204:247:-1683,0.436,-0.961,-0.634,-28.381,466.98,-55.481,84.271,23.038,36.271
 14:22:59.724,eb:33:2e:f9:57:b5, 2085-97-06 02:168:235:002,0.288,-1.493,-0.571,-249.512,83.008,-32.715,83.589,23.505,39.589
 14:22:59.724,eb:33:2e:f9:57:b5, 2085-97-108 01:84:239:1140,0.357,-2.553,0.261,-247.375,-235.168,4.822,80.645,23.472,38.051
 14:22:59.811,eb:33:2e:f9:57:b5, 2085-97-103 05:203:245:1894,0.944,-1.581,0.751,-335.144,-172.546,93.384,77.075,22.451,36.079
 14:22:59.811,eb:33:2e:f9:57:b5, 2085-97-240 08:32:248:2607,1.108,-1.167,1.154,-381.104,-153.809,114.075,73.01,20.967,34.711
 14:22:59.811,eb:33:2e:f9:57:b5, 2085-97-214 07:241:250:2121,0.815,-0.77,1.237,-412.354,-28.198,130.676,68.89,19.479,34.173
 14:22:59.811,eb:33:2e:f9:57:b5, 2085-97-112 05:34:251:603,0.637,-0.611,0.719,-441.711,115.845,142.456,64.874,18.479,35.376
 14:22:59.814,eb:33:2e:f9:57:b5, 2085-97-104 05:202:251:-222,0.739,-0.592,0.017,-427.307,24.292,106.873,60.826,17.748,36.738
 14:22:59.814,eb:33:2e:f9:57:b5, 2085-97-96 06:163:252:340,0.819,-0.458,-0.043,-396.24,-186.462,57.373,56.646,16.578,36.376
 14:22:59.814,eb:33:2e:f9:57:b5, 2085-97-162 06:253:251:1333,0.815,-0.445,0.434,-379.578,-269.714,41.199,52.421,14.716,34.59
 14:22:59.814,eb:33:2e:f9:57:b5, 2085-97-241 05:225:250:1733,0.615,-0.563,0.78,-382.019,-208.008,54.626,48.362,12.783,33.052
 14:23:00.381,eb:33:2e:f9:57:b5, 2085-97-01 04:226:249:1811,0.448,-0.716,0.874,-390.137,-152.466,74.951,44.368,11.08,32.256
 14:23:00.381,eb:33:2e:f9:57:b5, 2085-97-216 03:52:250:1914,0.556,-0.772,0.901,-392.456,-165.588,91.125,40.408,9.366,31.882
 14:23:00.381,eb:33:2e:f9:57:b5, 2085-97-32 05:81:251:2294,0.706,-0.661,1.01,-388.916,-204.773,104.248,36.453,7.24,31.487
 14:23:00.381,eb:33:2e:f9:57:b5, 2085-97-254 05:154:252:2710,0.79,-0.507,1.238,-383.789,-178.894,125.122,32.58,4.971,31.377
 14:23:00.590,eb:33:2e:f9:57:b5, 2085-97-176 06:23:254:2738,0.898,-0.328,1.353,-370.605,-135.315,141.418,28.784,2.966,31.778
 14:23:00.590,eb:33:2e:f9:57:b5, 2085-97-167 07:06:255:2693,1.006,-0.157,1.31,-349.792,-143.25,143.555,25.164,1.121,32.487
 14:23:00.590,eb:33:2e:f9:57:b5, 2085-97-82 08:224:254:2799,1.065,-0.123,1.342,-331.116,-169.373,143.066,21.703,-0.912,33.195
 14:23:00.590,eb:33:2e:f9:57:b5, 2085-97-193 08:221:254:2911,1.135,-0.15,1.386,-319.946,-184.509,148.071,18.375,-3.06,34.003
 14:23:00.595,eb:33:2e:f9:57:b5, 2085-97-143 09:152:255:3364,1.257,-0.112,1.504,-311.035,-217.834,153.687,15.062,-5.427,34.92
 14:23:00.595,eb:33:2e:f9:57:b5, 2085-97-148 10:145:01:4150,1.373,0.048,1.825,-294.495,-251.282,157.166,11.838,-8.091,35.953
 14:23:00.595,eb:33:2e:f9:57:b5, 2085-97-22 11:204:04:4963,1.362,0.388,2.229,-266.418,-242.737,161.56,8.729,-10.833,37.156
 14:23:00.595,eb:33:2e:f9:57:b5, 2085-97-134 10:111:07:5627,1.261,0.786,2.599,-232.056,-223.999,166.687,5.845,-13.299,38.606
 14:23:00.623,eb:33:2e:f9:57:b5, 2085-97-186 09:242:08:5956,1.155,1.035,2.857,-197.571,-238.831,171.143,3.17,-15.721,40.243
 14:23:00.623,eb:33:2e:f9:57:b5, 2085-97-203 08:136:10:5754,1.02,1.206,2.885,-179.626,-219.238,187.256,0.643,-18.094,42.116
 14:23:00.623,eb:33:2e:f9:57:b5, 2085-97-99 07:231:13:5348,0.834,1.498,2.708,-173.523,-155.701,205.261,-2.016,-19.907,44.335
 14:23:00.623,eb:33:2e:f9:57:b5, 2085-97-49 06:187:18:5242,0.711,2.022,2.562,-158.386,-121.338,206.787,-4.675,-21.039,46.73
 14:23:00.625,eb:33:2e:f9:57:b5, 2085-97-246 04:211:22:5351,0.475,2.633,2.593,-132.935,-158.081,183.777,-7.158,-22.203,49.081
 14:23:00.625,eb:33:2e:f9:57:b5, 2085-97-66 02:15:24:5002,0.044,2.982,2.568,-119.141,-143.921,165.283,-9.388,-23.483,51.279
 14:23:00.625,eb:33:2e:f9:57:b5, 2085-97-99 254:47:24:4387,-0.424,2.991,2.296,-124.573,-76.477,160.828,-11.58,-24.225,53.333
 14:23:00.625,eb:33:2e:f9:57:b5, 2085-97-73 251:17:25:3955,-0.681,3.071,2.015,-132.446,-19.836,153.625,-13.755,-24.258,55.184
 14:23:00.653,eb:33:2e:f9:57:b5, 2085-97-52 250:97:27:3822,0.254,3.243,1.895,-123.23,-13.977,127.747,-15.804,-24.005,56.766
 14:23:00.653,eb:33:2e:f9:57:b5, 2085-97-27 02:74:00:1877,0.26,0.027,0.908,11.719,46.204,-4.272,2.845,-9.421,50.515
 14:23:00.653,eb:33:2e:f9:57:b5, 2085-97-39 02:57:00:1970,0.27,0.024,0.944,11.23,37.72,-5.066,2.983,-9.02,50.471
 14:23:00.653,eb:33:2e:f9:57:b5, 2085-113-58 00:141:235:-4530,0.316,0.001,1.028,17.029,29.419,-6.042,3.126,-8.668,50.422
 14:23:00.653,eb:33:2e:f9:57:b5, 2085-97-189 02:05:00:2250,0.332,-0.022,1.094,27.222,13.428,-8.911,3.246,-8.569,50.389
 14:23:00.653,eb:33:2e:f9:57:b5, 2085-97-225 01:255:00:2557,0.303,0.03,1.071,34.424,26.184,-10.376,3.615,-8.427,50.273
 14:23:00.653,eb:33:2e:f9:57:b5, 2085-97-12 03:22:01:2978,0.458,0.136,1.341,120.667,-14.282,-26.672,14.661,-2.895,47.208
 14:23:00.654,eb:33:2e:f9:57:b5, 2085-97-249 03:45:01:3290,0.508,0.154,1.546,143.005,-8.179,-36.255,16.051,-2.972,46.851
 14:23:00.656,eb:33:2e:f9:57:b5, 2085-97-246 03:10:01:3292,0.468,0.135,1.626,161.865,53.65,-38.818,17.622,-2.642,46.549
 14:23:00.656,eb:33:2e:f9:57:b5, 2085-97-155 03:32:01:3151,0.451,0.125,1.569,181.641,108.948,-40.955,19.374,-1.692,46.428
 14:23:00.656,eb:33:2e:f9:57:b5, 2085-97-233 03:23:01:3190,0.558,0.132,1.532,206.36,115.845,-48.889,21.324,-0.445,46.39
 14:23:00.656,eb:33:2e:f9:57:b5, 2085-97-06 05:76:01:3410,0.697,0.155,1.6,239.136,98.999,-66.65,23.593,0.747,46.225
 14:23:00.682,eb:33:2e:f9:57:b5, 2085-97-20 06:23:01:3794,0.842,0.171,1.748,271.301,110.413,-84.961,26.169,2,45.939
 14:23:00.682,eb:33:2e:f9:57:b5, 2085-97-236 07:19:01:4219,1.075,0.132,1.976,315.247,118.591,-110.352,29.13,3.483,45.599
 14:23:00.682,eb:33:2e:f9:57:b5, 2085-97-183 08:80:00:4541,0.967,0.125,2.141,367.493,135.376,-145.386,32.569,5.18,45.071
 14:23:00.682,eb:33:2e:f9:57:b5, 2085-97-112 06:224:254:4816,0.667,-0.105,2.296,425.049,185.242,-165.527,36.541,7.41,44.659
 14:23:00.744,eb:33:2e:f9:57:b5, 2085-97-140 04:209:02:5514,0.612,0.003,2.495,491.821,123.352,-177.673,41.127,9.778,44.297
 14:23:00.744,eb:33:2e:f9:57:b5, 2085-97-132 04:23:10:5689,0.405,0.75,2.758,540.588,30.64,-174.622,46.241,11.459,43.434
 14:23:00.744,eb:33:2e:f9:57:b5, 2085-97-114 02:107:13:6137,0.161,1.611,2.875,544.006,18.372,-176.758,51.564,12.909,42.446
 14:23:00.744,eb:33:2e:f9:57:b5, 2085-97-184 00:14:07:6445,0.224,1.258,3.105,545.837,-37.415,-221.741,56.772,14.442,41.1
 14:23:00.771,eb:33:2e:f9:57:b5, 2085-97-173 04:18:04:6180,0.801,0.623,3.135,531.982,-104.187,-232.605,61.826,16.057,39.282
 14:23:00.771,eb:33:2e:f9:57:b5, 2085-97-199 08:40:05:5791,1.399,0.515,3.006,492.859,-138.184,-220.703,66.429,17.474,36.958
 14:23:00.771,eb:33:2e:f9:57:b5, 2085-97-09 14:105:00:4966,1.782,0.465,2.612,434.387,-65.125,-219.604,70.626,19.138,35.167
 14:23:00.771,eb:33:2e:f9:57:b5, 2085-97-159 13:135:249:4392,1.517,-0.392,2.34,372.864,-83.252,-228.027,74.202,21.022,33.635
 14:23:00.861,eb:33:2e:f9:57:b5, 2085-97-215 10:51:246:2031,1.041,-1.041,1.803,293.945,-12.817,-191.895,77.195,22.945,32.552
 14:23:00.861,eb:33:2e:f9:57:b5, 2085-97-142 13:173:238:1681,0.177,-1.473,0.74,127.93,28.32,-141.357,79.222,24.609,32.421
 14:23:00.861,eb:33:2e:f9:57:b5, 2085-97-93 00:170:247:-1438,0.281,-2.315,0.13,162.72,377.075,-82.581,81.046,26.307,33.168
 14:23:00.861,eb:33:2e:f9:57:b5, 2085-97-131 02:206:238:-1126,0.271,-1.001,-1.149,-162.17,478.271,71.472,83.024,26.927,39.078
 14:23:00.863,eb:33:2e:f9:57:b5, 2085-97-222 00:212:236:018,0.214,-2.566,-0.295,-209.412,-154.602,24.292,81.293,26.741,39.974
 14:23:00.863,eb:33:2e:f9:57:b5, 2085-97-28 04:26:245:1066,0.829,-1.728,0.265,-269.775,-242.798,99.731,78.113,25.631,37.727
 14:23:00.863,eb:33:2e:f9:57:b5, 2085-97-144 08:132:246:2154,1.158,-1.257,0.821,-334.167,-267.761,131.836,74.169,23.796,35.332
 14:23:00.863,eb:33:2e:f9:57:b5, 2085-97-50 09:166:249:2204,1.038,-1.02,1.147,-357.971,-170.105,152.405,70.12,21.693,33.558
 14:23:00.892,eb:33:2e:f9:57:b5, 2085-97-51 07:235:250:1304,0.78,-0.671,0.881,-390.137,-37.537,157.898,66.281,19.902,33.256
 14:23:00.892,eb:33:2e:f9:57:b5, 2085-97-198 05:115:250:370,0.732,-0.667,0.386,-396.912,-24.231,141.907,62.446,18.457,33.788
 14:23:00.892,eb:33:2e:f9:57:b5, 2085-97-45 06:14:251:281,0.797,-0.673,0.085,-378.296,-158.264,103.577,58.535,16.946,33.646
 14:23:00.892,eb:33:2e:f9:57:b5, 2085-97-86 06:234:250:1223,0.787,-0.595,0.333,-361.633,-303.772,73.303,54.514,14.821,32.047
 14:23:01.040,eb:33:2e:f9:57:b5, 2085-97-235 05:197:249:2185,0.678,-0.698,0.848,-360.474,-308.167,77.637,50.581,12.266,30.009
 14:23:01.040,eb:33:2e:f9:57:b5, 2085-97-169 04:246:248:2701,0.511,-0.837,1.221,-365.234,-247.62,98.267,46.752,9.739,28.548
 14:23:01.040,eb:33:2e:f9:57:b5, 2085-97-229 03:249:248:2772,0.525,-0.898,1.357,-370.117,-199.646,122.986,43.017,7.383,27.834
 14:23:01.040,eb:33:2e:f9:57:b5, 2085-97-162 04:53:250:2769,0.623,-0.811,1.34,-374.268,-174.988,144.348,39.265,5.076,27.664
 14:23:01.040,eb:33:2e:f9:57:b5, 2085-97-51 05:156:251:2885,0.676,-0.636,1.384,-378.54,-140.137,162.903,35.497,2.895,27.977
 14:23:01.221,eb:33:2e:f9:57:b5, 2085-113-58 00:48:238:-7035,0.713,-0.457,1.395,-377.258,-100.708,177.307,31.657,0.972,28.784
 14:23:01.221,eb:33:2e:f9:57:b5, 2085-97-54 06:225:253:2669,0.854,-0.359,1.349,-372.681,-99.609,179.138,29.751,0.104,29.317
 14:23:01.221,eb:33:2e:f9:57:b5, 2085-97-113 07:205:254:2734,0.979,-0.192,1.298,-358.154,-133.728,173.767,25.988,-1.752,30.366
 14:23:01.221,eb:33:2e:f9:57:b5, 2085-97-44 08:218:254:2917,1.045,-0.141,1.39,-343.018,-161.133,168.64,22.374,-3.812,31.349
 14:23:01.226,eb:33:2e:f9:57:b5, 2085-97-145 08:173:254:3056,1.112,-0.152,1.447,-333.008,-180.054,167.419,18.82,-6.004,32.366
 14:23:01.226,eb:33:2e:f9:57:b5, 2085-97-106 09:54:255:3524,1.251,-0.148,1.573,-324.097,-222.168,165.344,15.331,-8.41,33.431
 14:23:01.226,eb:33:2e:f9:57:b5, 2085-97-144 10:206:00:4449,1.38,-0.02,1.932,-311.096,-254.211,163.574,11.86,-11.151,34.541
 14:23:01.226,eb:33:2e:f9:57:b5, 2085-97-102 11:224:03:5365,1.455,0.273,2.407,-286.194,-240.723,161.804,8.514,-13.887,35.81
 14:23:01.229,eb:33:2e:f9:57:b5, 2085-97-183 11:31:07:5991,1.431,0.702,2.797,-255.432,-200.806,158.936,5.312,-16.238,37.26
 14:23:01.229,eb:33:2e:f9:57:b5, 2085-97-223 10:210:08:5985,1.266,1.019,2.975,-231.75,-187.378,158.203,2.318,-18.226,38.859
 14:23:01.229,eb:33:2e:f9:57:b5, 2085-97-106 09:24:10:5407,1.079,1.171,2.79,-227.478,-169.25,167.908,-0.681,-20.023,40.649
 14:23:01.229,eb:33:2e:f9:57:b5, 2085-97-200 07:100:12:5187,0.877,1.385,2.544,-234.375,-151.367,180.115,-3.851,-21.5,42.676
 14:23:01.233,eb:33:2e:f9:57:b5, 2085-97-100 06:203:15:5592,0.723,1.754,2.605,-229.492,-162.659,183.777,-7.196,-22.835,44.912
 14:23:01.233,eb:33:2e:f9:57:b5, 2085-97-07 05:05:19:5990,0.512,2.185,2.859,-211.365,-189.392,176.331,-10.486,-24.296,47.269
 14:23:01.233,eb:33:2e:f9:57:b5, 2085-97-209 02:166:21:5700,0.169,2.542,2.891,-197.266,-139.343,173.462,-13.689,-25.56,49.664
 14:23:01.233,eb:33:2e:f9:57:b5, 2085-97-186 255:113:24:5000,-0.227,2.891,2.618,-186.34,-46.814,170.959,-16.699,-25.917,51.855
 14:23:01.491,eb:33:2e:f9:57:b5, 2085-97-235 252:155:26:4345,-0.506,3.194,2.27,-163.818,4.944,156.921,-19.385,-25.51,53.701
 14:23:01.491,eb:33:2e:f9:57:b5, 2085-97-54 251:21:29:3921,-0.685,3.465,2.008,-126.343,-4.944,125.549,-21.555,-24.966,55.19
 14:23:01.491,eb:33:2e:f9:57:b5, 2085-97-224 249:65:32:3529,-0.836,3.836,1.826,-86.182,5.92,90.027,-23.143,-24.604,56.321
 14:23:01.491,eb:33:2e:f9:57:b5, 2085-97-190 248:252:33:3017,-0.979,4.179,1.601,-54.749,60.12,58.594,-24.104,-23.972,56.898
 14:23:01.702,eb:33:2e:f9:57:b5, 2085-97-174 247:53:33:2665,-0.033,4.231,1.363,-18.555,80.872,20.447,-24.472,-23.132,56.915
 14:23:01.702,eb:33:2e:f9:57:b5, 2085-97-97 03:164:07:1336,0.374,0.537,1.049,161.499,-25.391,127.014,-0.461,-11.393,48.521
 14:23:01.702,eb:33:2e:f9:57:b5, 2085-97-152 04:162:04:1770,0.599,0.67,0.717,52.246,-275.635,-36.255,0.385,-13.211,48.84
 14:23:01.702,eb:33:2e:f9:57:b5, 2085-97-115 06:152:00:2543,0.775,-0.09,1.106,26.611,-241.028,-61.096,0.901,-15.985,48.126
 14:23:01.704,eb:33:2e:f9:57:b5, 2085-97-35 05:158:00:2853,0.392,0.023,1.375,1.038,9.949,-10.803,1.203,-17.166,47.681
 14:23:01.704,eb:33:2e:f9:57:b5, 2085-97-98 01:18:00:1890,0.094,0.029,1.226,-22.705,255.859,42.542,0.989,-15.54,47.9
 14:23:01.704,eb:33:2e:f9:57:b5, 2085-97-35 01:171:00:844,0.26,0.041,0.597,-12.634,171.57,35.889,0.659,-13.134,48.367
 14:23:01.704,eb:33:2e:f9:57:b5, 2085-97-91 03:176:00:1473,0.519,0.106,0.47,9.216,-105.774,-24.17,0.654,-12.986,48.395
 14:23:01.704,eb:33:2e:f9:57:b5, 2085-97-59 04:244:255:2571,0.47,0.047,1.038,8.545,-134.705,-37.842,0.901,-14.513,48.005
 14:23:01.704,eb:33:2e:f9:57:b5, 2085-97-12 03:191:255:2164,0.308,-0.046,1.243,-7.385,57.861,-5.981,0.961,-14.799,47.791
 14:23:01.704,eb:33:2e:f9:57:b5, 2085-97-62 02:38:00:1524,0.296,-0.008,0.861,-6.897,87.28,-4.089,0.895,-13.876,47.763
 14:23:01.704,eb:33:2e:f9:57:b5, 2085-97-149 02:03:00:1788,0.338,0.021,0.773,2.38,-15.015,-22.4,0.934,-13.596,47.598
 14:23:01.707,eb:33:2e:f9:57:b5, 2085-97-160 02:177:255:2038,0.26,-0.016,0.963,2.991,-20.386,-19.226,1.055,-13.865,47.362
 14:23:01.707,eb:33:2e:f9:57:b5, 2085-97-100 02:184:255:2342,0.301,-0.062,1.137,33.142,2.319,-4.456,2.45,-7.526,47.466
 14:23:01.707,eb:33:2e:f9:57:b5, 2085-97-77 02:51:00:2184,0.276,0.002,1.109,47.302,-6.042,-9.644,2.922,-7.641,47.368
 14:23:01.707,eb:33:2e:f9:57:b5, 2085-97-51 02:75:00:2057,0.258,0.035,1.042,42.419,24.658,-6.531,3.378,-7.493,47.296
 14:23:01.710,eb:33:2e:f9:57:b5, 2085-97-31 02:85:00:2037,0.257,0.027,1.001,48.706,5.737,-12.695,3.862,-7.328,47.203
 14:23:01.710,eb:33:2e:f9:57:b5, 2085-97-208 01:211:00:2112,0.202,0.119,1.021,56.274,66.711,-34.241,9.492,-6.268,44.874
 14:23:01.710,eb:33:2e:f9:57:b5, 2085-97-112 01:188:00:2142,0.169,0.094,1.041,57.983,69.458,-30.457,10.113,-5.537,44.654
 14:23:01.710,eb:33:2e:f9:57:b5, 2085-97-82 01:188:00:2184,0.169,0.092,1.05,62.134,63.599,-25.696,10.745,-4.834,44.484
 14:23:01.761,eb:33:2e:f9:57:b5, 2085-97-114 01:196:00:2310,0.424,0.094,1.093,69.702,46.143,-23.315,11.437,-4.252,44.341
 14:23:01.761,eb:33:2e:f9:57:b5, 2085-97-208 03:35:01:3298,0.49,0.139,1.534,155.884,-2.869,-34.363,16.831,-2.774,43.533
 14:23:01.761,eb:33:2e:f9:57:b5, 2085-97-245 03:234:00:3444,0.48,0.122,1.673,176.27,45.837,-38.025,18.55,-2.466,43.237
 14:23:01.761,eb:33:2e:f9:57:b5, 2085-97-207 03:248:00:3283,0.463,0.11,1.655,198.975,102.234,-39.49,20.446,-1.604,43.116
 14:23:01.823,eb:33:2e:f9:57:b5, 2085-97-188 03:221:00:3158,0.476,0.099,1.565,225.22,122.07,-45.898,22.582,-0.374,43.121
 14:23:01.823,eb:33:2e:f9:57:b5, 2085-97-13 04:165:00:3376,0.568,0.097,1.572,257.324,113.647,-57.983,25.01,0.934,43.099
 14:23:01.823,eb:33:2e:f9:57:b5, 2085-97-150 05:167:00:3872,0.875,0.07,1.765,299.805,81.116,-78.796,27.823,2.109,42.902
 14:23:01.823,eb:33:2e:f9:57:b5, 2085-97-120 08:46:01:4377,1.176,0.101,2.022,350.098,57.617,-113.281,31.108,3.137,42.352
 14:23:01.825,eb:33:2e:f9:57:b5, 2085-97-147 09:08:01:4864,1.03,0.172,2.261,399.78,102.966,-150.208,34.893,4.488,41.633
 14:23:01.825,eb:33:2e:f9:57:b5, 2085-97-164 06:221:00:5601,0.747,0.064,2.527,455.933,151.855,-175.476,39.183,6.537,41.072
 14:23:01.825,eb:33:2e:f9:57:b5, 2085-97-227 05:192:06:6390,0.695,0.346,2.967,522.034,55.298,-185.791,44.072,8.558,40.408
 14:23:01.825,eb:33:2e:f9:57:b5, 2085-97-31 04:110:12:7081,0.455,1.21,3.267,542.908,-11.719,-187.805,49.334,9.948,39.122
 14:23:01.851,eb:33:2e:f9:57:b5, 2085-97-190 02:217:09:6983,0.54,1.5,3.577,541.809,28.503,-208.862,54.608,11.558,38.007
 14:23:01.851,eb:33:2e:f9:57:b5, 2085-97-03 05:211:06:5559,0.903,1.118,2.954,547.913,19.409,-228.577,59.958,13.541,37.079
 14:23:01.851,eb:33:2e:f9:57:b5, 2085-97-01 09:126:04:6107,1.399,0.839,2.696,499.207,-110.474,-245.483,64.918,15.375,35.513
 14:23:01.851,eb:33:2e:f9:57:b5, 2085-97-42 14:246:00:6260,2.091,0.388,3.104,455.872,-133.362,-252.869,69.164,17.073,33.08
 14:23:01.913,eb:33:2e:f9:57:b5, 2085-97-101 16:172:249:5279,1.831,-0.39,2.869,396.912,-30.823,-249.817,73.004,19.166,31.432
 14:23:01.913,eb:33:2e:f9:57:b5, 2085-97-61 13:56:246:3115,1.196,-0.985,2.125,313.477,109.375,-194.275,76.498,21.429,31.267
 14:23:01.913,eb:33:2e:f9:57:b5, 2085-97-105 11:176:243:2172,1.361,-1.654,0.879,181.335,118.958,-142.456,79.222,23.357,32.08
 14:23:01.913,eb:33:2e:f9:57:b5, 2085-97-10 01:165:246:-1111,-0.002,-2.96,0.331,217.712,232.849,-130.554,81.063,25.159,32.679
 14:23:01.943,eb:33:2e:f9:57:b5, 2085-113-58 00:70:246:-8685,0.736,-1.266,-1.052,-111.206,630.92,85.388,83.771,26.197,38.76
 14:23:01.943,eb:33:2e:f9:57:b5, 2085-97-104 02:190:234:-978,0.39,-1.158,-1.223,-216.736,345.032,21.118,83.837,26.241,41.353
 14:23:01.943,eb:33:2e:f9:57:b5, 2085-97-152 01:47:239:169,0.437,-2.531,-0.282,-204.407,-208.618,12.207,81.716,26.098,41.265
 14:23:01.943,eb:33:2e:f9:57:b5, 2085-97-18 06:192:244:1475,1.054,-1.542,0.38,-291.016,-286.438,79.041,78.256,25.032,38.562
 14:23:01.972,eb:33:2e:f9:57:b5, 2085-97-165 09:06:246:2411,1.2,-1.383,1.028,-341.431,-256.836,113.22,74.103,23.357,35.887
 14:23:01.972,eb:33:2e:f9:57:b5, 2085-97-207 08:82:249:1927,0.944,-1.021,1.139,-374.634,-94.055,138.184,70.104,21.566,34.612
 14:23:01.972,eb:33:2e:f9:57:b5, 2085-97-116 06:187:249:866,0.724,-0.77,0.677,-405.457,-3.662,138.55,66.242,20.16,34.81
 14:23:01.972,eb:33:2e:f9:57:b5, 2085-97-181 05:91:249:182,0.763,-0.82,0.215,-408.325,-56.152,116.577,62.243,18.896,35.2
 14:23:02.183,eb:33:2e:f9:57:b5, 2085-97-143 06:02:250:445,0.853,-0.786,0.084,-393.127,-213.806,80.078,58.068,17.342,34.497
 14:23:02.191,eb:33:2e:f9:57:b5, 2085-97-240 06:255:249:1469,0.84,-0.737,0.461,-383.728,-322.327,62.134,53.767,15.117,32.492
 14:23:02.191,eb:33:2e:f9:57:b5, 2085-97-29 06:243:248:2340,0.641,-0.803,0.953,-390.259,-293.335,73.608,49.554,12.607,30.46
 14:23:02.191,eb:33:2e:f9:57:b5, 2085-97-25 04:30:248:2751,0.442,-0.95,1.274,-396.912,-230.591,98.206,45.423,10.179,29.163
 14:23:02.303,eb:33:2e:f9:57:b5, 2085-97-189 03:197:248:2789,0.548,-0.973,1.362,-397.339,-211.182,123.169,41.391,7.839,28.548
 14:23:02.303,eb:33:2e:f9:57:b5, 2085-97-227 04:63:250:3011,0.647,-0.808,1.394,-395.264,-213.928,141.357,37.397,5.301,28.24
 14:23:02.303,eb:33:2e:f9:57:b5, 2085-97-82 05:177:251:3185,0.694,-0.632,1.533,-394.348,-160.156,162.781,33.442,2.889,28.444
 14:23:02.303,eb:33:2e:f9:57:b5, 2085-97-243 05:154:253:3034,0.812,-0.421,1.524,-383.728,-113.953,174.194,29.493,0.89,29.246
 14:23:02.307,eb:33:2e:f9:57:b5, 2085-97-16 07:200:254:3089,0.948,-0.204,1.477,-363.586,-138.367,168.152,25.692,-0.978,30.24
 14:23:02.307,eb:33:2e:f9:57:b5, 2085-97-242 07:143:254:3298,1.017,-0.153,1.567,-342.651,-173.645,159.973,22.055,-3.109,31.119
 14:23:02.307,eb:33:2e:f9:57:b5, 2085-97-70 08:36:254:3349,1.056,-0.21,1.625,-331.299,-182.373,161.011,18.567,-5.328,32.047
 14:23:02.307,eb:33:2e:f9:57:b5, 2085-97-186 08:23:254:3674,1.149,-0.248,1.682,-328.247,-203.186,165.466,15.046,-7.635,33.113
 14:23:02.811,eb:33:2e:f9:57:b5, 2085-97-210 09:107:255:4479,1.313,-0.191,1.97,-318.97,-241.394,170.105,11.536,-10.184,34.316
 14:23:02.811,eb:33:2e:f9:57:b5, 2085-97-253 10:174:02:5429,1.412,0.111,2.422,-298.218,-254.333,173.645,8.047,-12.958,35.689
 14:23:02.811,eb:33:2e:f9:57:b5, 2085-97-109 11:89:06:6210,1.404,0.569,2.861,-273.438,-229.797,176.88,4.697,-15.535,37.299
 14:23:02.811,eb:33:2e:f9:57:b5, 2085-97-184 10:24:09:6443,1.256,0.981,3.136,-252.38,-203.674,179.626,1.401,-17.765,39.128
 14:23:02.814,eb:33:2e:f9:57:b5, 2085-97-80 09:135:11:6015,1.066,1.283,3.067,-240.173,-168.579,184.509,-1.818,-19.578,41.149
 14:23:02.814,eb:33:2e:f9:57:b5, 2085-97-182 07:34:15:5613,0.869,1.64,2.811,-233.704,-137.817,185.181,-5.114,-20.945,43.319
 14:23:02.814,eb:33:2e:f9:57:b5, 2085-97-69 06:247:19:5809,0.699,2.188,2.75,-218.994,-136.23,174.5,-8.322,-22.022,45.505
 14:23:02.814,eb:33:2e:f9:57:b5, 2085-97-218 04:163:24:6271,0.49,2.796,2.963,-190.552,-166.199,152.283,-11.343,-23.225,47.637
 14:23:02.842,eb:33:2e:f9:57:b5, 2085-97-150 02:84:28:6039,0.103,3.339,3.067,-162.598,-142.334,133.728,-14.008,-24.461,49.62
 14:23:02.842,eb:33:2e:f9:57:b5, 2085-97-85 254:58:30:4713,-0.465,3.678,2.705,-150.513,-15.564,134.094,-16.403,-24.857,51.334
 14:23:02.842,eb:33:2e:f9:57:b5, 2085-97-114 250:175:30:3467,-0.884,3.831,1.957,-134.338,98.572,136.475,-18.424,-23.857,52.586
 14:23:02.842,eb:33:2e:f9:57:b5, 2085-97-184 247:241:30:3041,-1.13,3.832,1.545,-102.661,64.27,118.408,-20.083,-22.577,53.591
 14:23:02.845,eb:33:2e:f9:57:b5, 2085-97-199 246:84:32:3086,-1.118,3.946,1.477,-58.838,-12.085,89.355,-21.302,-22.011,54.575
 14:23:02.845,eb:33:2e:f9:57:b5, 2085-97-56 01:93:04:6006,-0.113,4.119,1.544,-19.653,-44.678,58.899,-22.066,-22.061,55.464
 14:23:02.846,eb:33:2e:f9:57:b5, 2085-97-213 255:213:03:4899,0.134,0.602,3.279,284.058,47.119,9.216,-1.406,-15.809,47.329
 14:23:02.846,eb:33:2e:f9:57:b5, 2085-97-218 03:223:12:1821,0.505,0.705,1.707,118.835,127.747,152.649,0.33,-14.469,48.439
 14:23:02.847,eb:33:2e:f9:57:b5, 2085-97-53 06:119:04:1155,0.393,0.235,0.442,21.362,-47.607,1.099,0.538,-13.865,48.763
 14:23:02.847,eb:33:2e:f9:57:b5, 2085-97-194 03:31:01:3406,0.493,0.17,1.154,-1.465,-89.111,-43.396,0.775,-15.051,48.235
 14:23:02.847,eb:33:2e:f9:57:b5, 2085-97-250 03:255:00:3409,0.502,0.132,1.677,171.265,69.885,-39.917,17.045,0.231,43.797
 14:23:02.847,eb:33:2e:f9:57:b5, 2085-97-250 03:22:01:3283,0.489,0.138,1.625,192.322,117.676,-44.739,18.891,1.28,43.682
 14:23:02.871,eb:33:2e:f9:57:b5, 2085-97-09 04:220:00:3369,0.548,0.12,1.612,217.651,134.46,-54.016,20.951,2.67,43.627
 14:23:02.871,eb:33:2e:f9:57:b5, 2085-97-235 04:214:00:3633,0.704,0.112,1.694,249.146,126.099,-68.42,23.307,4.092,43.522
 14:23:02.871,eb:33:2e:f9:57:b5, 2085-97-186 06:200:00:4141,0.944,0.098,1.895,288.574,123.291,-89.6,26.005,5.554,43.292
 14:23:02.871,eb:33:2e:f9:57:b5, 2085-97-46 08:23:00:4623,0.991,0.073,2.159,335.693,134.155,-118.103,29.141,7.13,42.907
 14:23:02.932,eb:33:2e:f9:57:b5, 2085-97-164 07:214:254:4774,0.955,-0.069,2.329,389.954,201.233,-139.282,32.767,9.245,42.61
 14:23:02.932,eb:33:2e:f9:57:b5, 2085-97-224 06:101:00:5088,0.834,-0.137,2.336,455.139,189.331,-161.499,37.013,11.799,42.523
 14:23:02.932,eb:33:2e:f9:57:b5, 2085-97-116 06:138:06:5311,0.676,0.448,2.645,527.222,97.046,-187.073,41.863,14.002,42.006
 14:23:02.932,eb:33:2e:f9:57:b5, 2085-113-81 00:122:144:-10828,0.375,1.36,2.6,553.284,61.218,-186.279,47.175,15.842,41.171
 14:23:02.932,eb:33:2e:f9:57:b5, 2085-97-11 02:187:13:6105,0.104,1.765,2.776,551.88,18.982,-197.937,49.828,16.677,40.655
 14:23:02.991,eb:33:2e:f9:57:b5, 2085-97-149 01:103:08:7084,0.531,1.33,3.271,555.664,-111.633,-249.084,54.932,18.073,38.743
 14:23:02.991,eb:33:2e:f9:57:b5, 2085-97-41 06:138:04:7623,1.167,0.828,3.551,528.442,-218.872,-286.56,59.606,19.347,35.717
 14:23:02.991,eb:33:2e:f9:57:b5, 2085-97-143 09:03:01:7276,1.648,0.35,3.651,465.027,-167.725,-283.63,63.644,20.764,32.371
 14:23:02.991,eb:33:2e:f9:57:b5, 2085-97-74 15:172:254:5996,2.081,0.302,3.145,393.86,32.166,-254.456,67.434,22.879,30.729
 14:23:02.994,eb:33:2e:f9:57:b5, 2085-97-06 15:22:248:3894,1.508,-0.693,2.453,332.153,62.683,-247.681,70.856,25.367,30.157
 14:23:02.994,eb:33:2e:f9:57:b5, 2085-97-94 09:155:239:901,1.561,-1.44,1.087,192.2,224.365,-179.443,73.839,27.872,30.899
 14:23:02.994,eb:33:2e:f9:57:b5, 2085-97-84 05:136:228:081,0.244,-2.009,0.602,33.02,196.655,-147.461,75.498,29.702,32.877
 14:23:02.994,eb:33:2e:f9:57:b5, 2085-97-110 01:181:248:-2660,0.648,-1.191,-0.848,12.329,785.339,40.405,78.953,31.3,38.425
 14:23:03.021,eb:33:2e:f9:57:b5, 2085-97-82 02:74:239:-1413,0.321,-0.935,-1.304,-193.298,250.366,55.115,80.733,31.481,44.945
 14:23:03.021,eb:33:2e:f9:57:b5, 2085-97-191 02:235:239:-115,0.652,-2.288,-0.443,-181.396,-320.801,30.09,78.283,30.888,43.616
 14:23:03.021,eb:33:2e:f9:57:b5, 2085-97-229 07:80:245:1637,1.187,-1.553,0.343,-256.226,-383.667,94.666,74.427,29.257,39.798
 14:23:03.021,eb:33:2e:f9:57:b5, 2085-97-190 09:88:247:2646,1.113,-1.257,1.194,-300.598,-262.329,136.414,70.307,27.07,36.656
 14:23:03.564,eb:33:2e:f9:57:b5, 2085-97-245 07:45:250:1512,0.915,-0.875,1.082,-333.191,-24.109,167.969,66.885,25.142,36.068
 14:23:03.564,eb:33:2e:f9:57:b5, 2085-97-176 06:205:250:450,0.772,-0.653,0.43,-342.346,-28.564,142.517,63.715,23.687,36.694
 14:23:03.564,eb:33:2e:f9:57:b5, 2085-97-00 06:159:250:174,0.747,-0.67,0.108,-335.083,-136.78,105.835,60.255,22.17,36.48
 14:23:03.564,eb:33:2e:f9:57:b5, 2085-97-242 05:79:250:579,0.731,-0.687,0.161,-330.688,-235.535,80.933,56.585,20.363,35.321
 14:23:03.834,eb:33:2e:f9:57:b5, 2085-97-229 05:195:249:1225,0.728,-0.747,0.44,-333.13,-281.311,73.608,52.8,18.155,33.547
 14:23:03.834,eb:33:2e:f9:57:b5, 2085-97-124 05:220:248:1829,0.586,-0.833,0.755,-345.459,-278.076,79.346,49.021,15.749,31.838
 14:23:03.834,eb:33:2e:f9:57:b5, 2085-97-208 03:250:247:2304,0.408,-0.963,1.026,-360.718,-239.563,100.586,45.231,13.282,30.553
 14:23:03.834,eb:33:2e:f9:57:b5, 2085-97-48 03:126:248:2491,0.446,-0.997,1.187,-368.103,-212.769,123.718,41.484,10.882,29.905
 14:23:03.836,eb:33:2e:f9:57:b5, 2085-97-34 04:247:249:2650,0.577,-0.85,1.245,-367.371,-221.802,140.381,37.755,8.328,29.575
 14:23:03.836,eb:33:2e:f9:57:b5, 2085-97-252 04:91:251:2884,0.674,-0.667,1.357,-365.723,-204.834,157.959,34.085,5.696,29.575
 14:23:03.836,eb:33:2e:f9:57:b5, 2085-97-210 05:206:252:2956,0.785,-0.49,1.435,-360.229,-160.95,171.814,30.432,3.279,30.048
 14:23:03.836,eb:33:2e:f9:57:b5, 2085-97-200 06:22:254:2995,0.9,-0.308,1.447,-345.825,-154.785,171.875,26.878,1.115,30.872
 14:23:03.838,eb:33:2e:f9:57:b5, 2085-97-126 07:154:254:3050,0.964,-0.199,1.482,-329.895,-176.392,164.795,23.423,-1.115,31.712
 14:23:03.838,eb:33:2e:f9:57:b5, 2085-97-212 07:125:254:3115,1.003,-0.17,1.495,-323.12,-199.524,160.339,20.078,-3.455,32.569
 14:23:03.838,eb:33:2e:f9:57:b5, 2085-97-97 08:87:254:3481,1.115,-0.207,1.583,-325.256,-227.112,160.706,16.672,-5.999,33.464
 14:23:03.839,eb:33:2e:f9:57:b5, 2085-97-149 09:47:255:4312,1.276,-0.177,1.875,-324.768,-268.433,162.476,13.222,-8.806,34.464
 14:23:03.951,eb:33:2e:f9:57:b5, 2085-97-197 10:122:01:5302,0.417,0.02,2.362,-315.002,-281.494,166.138,9.701,-11.887,35.601
 14:23:03.951,eb:33:2e:f9:57:b5, 2085-97-146 03:61:00:1876,0.478,0.019,0.914,7.019,-11.841,-7.141,1.95,-15.705,45.445
 14:23:03.951,eb:33:2e:f9:57:b5, 2085-97-233 03:80:00:1953,0.468,0.045,0.931,4.456,-2.441,-12.573,2.06,-15.793,45.33
 14:23:03.951,eb:33:2e:f9:57:b5, 2085-113-58 00:43:243:-3270,0.457,0.029,0.955,-1.221,28.015,-8.484,2.115,-15.645,45.209
 14:23:03.953,eb:33:2e:f9:57:b5, 2085-97-67 03:00:00:1955,0.402,0.036,0.946,-2.319,37.964,-6.714,2.115,-15.474,45.176
 14:23:03.953,eb:33:2e:f9:57:b5, 2085-97-27 03:07:00:1957,0.379,0.007,0.956,-2.258,58.96,4.333,2.104,-14.98,45.176
 14:23:03.953,eb:33:2e:f9:57:b5, 2085-97-230 02:29:00:1935,0.368,0.009,0.953,-1.16,75.867,10.254,2.054,-14.299,45.275
 14:23:03.954,eb:33:2e:f9:57:b5, 2085-97-213 02:31:00:1914,0.339,0.028,0.931,0.061,80.933,8.179,2.027,-13.497,45.396
 14:23:03.956,eb:33:2e:f9:57:b5, 2085-97-143 02:15:00:1904,0.322,0.023,0.93,2.991,75.684,1.77,2.021,-12.711,45.461
 14:23:03.956,eb:33:2e:f9:57:b5, 2085-97-135 01:113:00:2399,0.236,0.019,0.929,6.531,62.5,-2.136,2.087,-12.019,45.467
 14:23:03.956,eb:33:2e:f9:57:b5, 2085-97-143 02:214:00:2654,0.417,0.077,1.211,107.727,-0.732,-24.78,12.118,-5.62,42.407
 14:23:03.956,eb:33:2e:f9:57:b5, 2085-97-227 03:09:01:3148,0.549,0.118,1.405,131.47,-34.668,-40.039,13.403,-5.784,42.034
 14:23:03.956,eb:33:2e:f9:57:b5, 2085-97-185 04:186:00:3563,0.604,0.106,1.661,152.649,-3.967,-48.95,14.919,-5.894,41.528
 14:23:03.956,eb:33:2e:f9:57:b5, 2085-97-232 04:188:00:3483,0.604,0.093,1.745,174.133,66.284,-50.781,16.644,-5.46,41.122
 14:23:03.956,eb:33:2e:f9:57:b5, 2085-97-164 04:179:00:3357,0.583,0.102,1.652,197.205,119.324,-55.176,18.545,-4.351,40.897
 14:23:03.956,eb:33:2e:f9:57:b5, 2085-97-252 04:162:00:3471,0.68,0.081,1.662,226.746,133.179,-66.223,20.709,-2.939,40.732
 14:23:03.960,eb:33:2e:f9:57:b5, 2085-97-207 05:116:00:3763,0.781,0.088,1.742,261.23,131.165,-82.336,23.187,-1.445,40.496
 14:23:03.960,eb:33:2e:f9:57:b5, 2085-97-96 07:18:00:4293,1.067,0.022,1.955,302.673,141.541,-99.792,26.049,0.176,40.215
 14:23:03.960,eb:33:2e:f9:57:b5, 2085-97-170 09:35:00:4553,1.237,0.028,2.183,363.525,136.658,-133.85,29.438,1.934,39.771
 14:23:03.960,eb:33:2e:f9:57:b5, 2085-97-192 08:176:254:4704,0.993,-0.033,2.242,423.401,184.509,-165.039,33.415,4.059,39.276
 14:23:04.013,eb:33:2e:f9:57:b5, 2085-97-128 07:188:255:4938,0.944,-0.163,2.342,488.342,180.725,-182.8,37.991,6.663,38.941
 14:23:04.013,eb:33:2e:f9:57:b5, 2085-97-43 07:251:05:5497,0.673,0.305,2.513,558.105,48.462,-201.233,43.226,8.74,38.145
 14:23:04.013,eb:33:2e:f9:57:b5, 2085-97-33 04:179:11:7360,0.239,1.508,3.111,567.139,-34.668,-209.412,48.79,10.151,36.661
 14:23:04.013,eb:33:2e:f9:57:b5, 2085-97-68 03:00:07:7655,0.525,1.338,3.921,568.481,-52.429,-236.389,54.218,11.486,34.788
 14:23:04.013,eb:33:2e:f9:57:b5, 2085-97-190 06:36:06:6087,0.958,1.208,3.296,569.092,-33.752,-253.601,59.733,13.282,33.052
 14:23:04.043,eb:33:2e:f9:57:b5, 2085-113-81 00:240:149:-15841,1.081,0.251,2.769,526.733,-114.99,-257.141,64.808,15.189,31.02
 14:23:04.043,eb:33:2e:f9:57:b5, 2085-97-66 10:19:04:6146,1.836,0.71,2.841,483.398,-90.332,-263.245,67.104,16.144,29.987
 14:23:04.043,eb:33:2e:f9:57:b5, 2085-97-98 16:161:252:6099,2.102,0.159,2.974,428.467,-112.366,-276.489,71.186,18.232,28.114
 14:23:04.043,eb:33:2e:f9:57:b5, 2085-97-205 14:65:245:4780,1.635,-0.872,2.763,351.685,-13.367,-259.399,74.663,20.577,26.428
 14:23:04.102,eb:33:2e:f9:57:b5, 2085-97-91 08:105:239:1192,1.586,-1.541,1.171,224.06,171.509,-187.5,77.668,22.879,26.669
 14:23:04.102,eb:33:2e:f9:57:b5, 2085-97-180 03:115:231:-578,0.24,-2.124,0.557,90.149,176.636,-175.415,79.519,24.758,28.389
 14:23:04.102,eb:33:2e:f9:57:b5, 2085-97-165 02:90:247:-2458,0.594,-1.101,-0.909,-24.475,651.367,-0.122,82.277,26.23,33.102
 14:23:04.102,eb:33:2e:f9:57:b5, 2085-97-179 02:134:234:-548,0.272,-1.679,-0.811,-239.99,139.099,6.226,82.332,26.488,37.65
 14:23:04.162,eb:33:2e:f9:57:b5, 2085-97-13 02:136:240:350,0.552,-2.547,-0.055,-234.375,-197.388,47.058,79.623,26.082,36.612
 14:23:04.162,eb:33:2e:f9:57:b5, 2085-97-175 07:55:245:1570,1.164,-1.514,0.391,-328.979,-215.942,111.694,76.08,24.736,34.689
