Time,Device name,Chip Time(),Acceleration X(g),Acceleration Y(g),Acceleration Z(g),Angular velocity X(°/s),Angular velocity Y(°/s),Angular velocity Z(°/s),Angle X(°),Angle Y(°),Angle Z(°)
 14:26:20.821,eb:33:2e:f9:57:b5, 2085-97-130 01:46:01:1518,0.422,0.425,0.867,25.33,44.922,3.418,-6.531,8.146,-29.993
 14:26:20.822,eb:33:2e:f9:57:b5, 2085-97-25 03:251:255:3129,0.178,0.038,1.214,34.241,-1.099,-39.673,-6.29,8.289,-30.229
 14:26:20.822,eb:33:2e:f9:57:b5, 2085-97-230 00:83:255:1950,0.143,-0.003,1.239,60.791,-23.743,-77.698,-5.823,8.097,-30.822
 14:26:20.822,eb:33:2e:f9:57:b5, 2085-97-187 01:217:252:2357,0.215,-0.217,1.011,64.27,-37.292,-99.915,-5.24,7.625,-31.712
 14:26:20.826,eb:33:2e:f9:57:b5, 2085-97-160 01:181:251:2247,0.231,-0.458,1.173,61.157,-7.324,-106.689,-4.68,7.295,-32.717
 14:26:20.826,eb:33:2e:f9:57:b5, 2085-97-16 02:22:251:2382,0.297,-0.505,1.138,64.88,5.676,-107.544,-4.109,7.185,-33.81
 14:26:20.826,eb:33:2e:f9:57:b5, 2085-97-65 02:168:250:2491,0.229,-0.655,1.234,65.857,29.419,-101.807,-3.51,7.262,-34.865
 14:26:20.826,eb:33:2e:f9:57:b5, 2085-97-36 01:150:252:2708,0.089,-0.6,1.231,69.214,56.213,-89.905,-2.895,7.663,-35.865
 14:26:20.852,eb:33:2e:f9:57:b5, 2085-97-109 00:97:254:3014,0.044,-0.291,1.423,84.351,68.298,-82.092,-2.186,8.245,-36.749
 14:26:20.852,eb:33:2e:f9:57:b5, 2085-97-165 00:152:255:2915,0.088,-0.135,1.446,102.295,64.27,-82.825,-1.307,8.877,-37.628
 14:26:20.852,eb:33:2e:f9:57:b5, 2085-97-117 00:117:00:2675,0.047,0.012,1.355,117.615,71.35,-88.379,-0.286,9.509,-38.502
 14:26:20.852,eb:33:2e:f9:57:b5, 2085-97-149 00:102:00:2685,0.089,0.082,1.292,132.324,66.162,-91.125,0.884,10.217,-39.441
 14:26:20.942,eb:33:2e:f9:57:b5, 2085-97-135 00:26:01:2472,0.104,0.043,1.25,139.893,63.538,-90.637,2.142,10.838,-40.347
 14:26:20.942,eb:33:2e:f9:57:b5, 2085-97-174 00:207:01:2296,0.084,0.166,1.184,145.569,73.792,-85.754,3.466,11.558,-41.232
 14:26:20.942,eb:33:2e:f9:57:b5, 2085-97-21 01:132:01:1857,0.098,0.279,1.048,152.771,57.495,-89.355,4.845,12.277,-42.067
 14:26:20.942,eb:33:2e:f9:57:b5, 2085-97-45 00:232:255:1117,-0.25,0.094,0.691,151.428,38.94,-99.06,6.251,12.816,-43
 14:26:20.944,eb:33:2e:f9:57:b5, 2085-97-56 252:106:252:739,-0.792,-0.165,0.394,135.803,26.062,-106.079,7.509,13.244,-44.006
 14:26:20.944,eb:33:2e:f9:57:b5, 2085-97-206 246:255:247:1098,-1.465,-0.722,0.409,118.896,29.907,-93.445,8.63,13.601,-45.022
 14:26:20.944,eb:33:2e:f9:57:b5, 2085-97-21 242:230:246:1206,-1.62,-1.205,0.617,90.515,89.172,-45.105,9.564,14.255,-45.643
 14:26:20.944,eb:33:2e:f9:57:b5, 2085-97-189 246:225:254:-592,-0.75,-0.721,0.281,68.359,95.276,20.569,10.344,15.342,-45.577
 14:26:20.971,eb:33:2e:f9:57:b5, 2085-97-174 251:19:03:-854,-0.476,0.292,-0.63,52.063,-60.547,37.231,11.019,15.458,-45.203
 14:26:20.971,eb:33:2e:f9:57:b5, 2085-97-08 253:152:01:1157,-0.048,0.266,0.142,23.132,-173.157,42.664,11.415,14.062,-45.071
 14:26:20.971,eb:33:2e:f9:57:b5, 2085-97-193 02:127:03:1795,0.634,0.252,0.765,5.554,-175.964,42.419,11.552,12.184,-44.967
 14:26:20.971,eb:33:2e:f9:57:b5, 2085-97-195 05:197:03:3485,0.721,0.521,1.229,-1.953,-122.62,17.7,11.569,10.629,-44.967
 14:26:21.001,eb:33:2e:f9:57:b5, 2085-97-87 05:143:02:4139,0.491,0.367,2.045,-2.625,4.15,-5.31,11.525,10.069,-45.027
 14:26:21.001,eb:33:2e:f9:57:b5, 2085-97-244 01:77:01:3613,-0.002,0.268,1.827,12.085,111.267,-23.254,11.563,10.761,-45.077
 14:26:21.001,eb:33:2e:f9:57:b5, 2085-97-00 254:249:255:3014,-0.508,0.062,1.668,31.738,146.973,-26.245,11.783,12.134,-45.093
 14:26:21.001,eb:33:2e:f9:57:b5, 2085-97-27 250:65:254:2353,-0.872,-0.108,1.299,55.42,115.356,-17.761,12.233,13.502,-45.077
 14:26:21.093,eb:33:2e:f9:57:b5, 2085-97-186 248:06:254:1710,-0.891,-0.271,1.011,79.224,47.791,2.747,12.936,14.288,-44.989
 14:26:21.093,eb:33:2e:f9:57:b5, 2085-97-117 249:254:254:1402,-0.695,-0.185,0.704,95.947,-33.264,24.353,13.854,14.299,-44.852
 14:26:21.093,eb:33:2e:f9:57:b5, 2085-97-232 251:88:00:1557,-0.327,-0.049,0.711,105.835,-104.431,39.795,14.897,13.491,-44.687
 14:26:21.093,eb:33:2e:f9:57:b5, 2085-97-145 254:155:01:1690,-0.042,0.125,0.763,109.924,-136.292,45.227,16.002,12.167,-44.594
 14:26:21.093,eb:33:2e:f9:57:b5, 2085-97-01 01:244:02:2036,0.332,0.265,0.945,109.192,-130.554,41.87,17.111,10.739,-44.528
 14:26:21.094,eb:33:2e:f9:57:b5, 2085-97-119 04:223:04:1734,0.725,0.486,0.921,97.9,-83.435,30.64,18.155,9.613,-44.5
 14:26:21.094,eb:33:2e:f9:57:b5, 2085-97-70 06:113:06:1596,0.764,0.733,0.789,74.463,-15.93,7.69,19.017,9.102,-44.456
 14:26:21.094,eb:33:2e:f9:57:b5, 2085-97-129 05:113:06:1324,0.565,0.817,0.732,41.809,70.19,-20.386,19.589,9.415,-44.462
 14:26:21.121,eb:33:2e:f9:57:b5, 2085-97-87 03:157:05:1261,0.277,0.764,0.59,8.911,143.066,-42.053,19.825,10.591,-44.407
 14:26:21.121,eb:33:2e:f9:57:b5, 2085-97-28 01:163:04:1170,0.097,0.62,0.62,-16.296,186.34,-54.321,19.775,12.354,-44.363
 14:26:21.121,eb:33:2e:f9:57:b5, 2085-97-111 00:44:05:739,-0.203,0.638,0.486,-27.771,179.138,-61.279,19.539,14.326,-44.308
 14:26:21.121,eb:33:2e:f9:57:b5, 2085-97-225 251:205:00:1634,-0.608,0.403,0.519,-30.945,127.808,-72.327,19.204,15.958,-44.522
 14:26:21.152,eb:33:2e:f9:57:b5, 2085-97-03 251:131:00:1632,-0.645,0.027,0.832,-30.64,112.671,-58.289,18.836,17.292,-44.786
 14:26:21.152,eb:33:2e:f9:57:b5, 2085-97-82 250:155:255:2047,-0.841,0.049,0.849,-23.193,73.425,-46.875,18.512,18.325,-45.027
 14:26:21.152,eb:33:2e:f9:57:b5, 2085-113-58 00:150:226:-5790,-0.932,-0.177,1.184,-9.705,45.288,-25.146,18.298,18.984,-45.209
 14:26:21.152,eb:33:2e:f9:57:b5, 2085-97-213 247:114:253:2826,-1.143,-0.237,1.293,0,31.372,-11.902,18.27,19.188,-45.236
 14:26:21.212,eb:33:2e:f9:57:b5, 2085-97-116 246:09:252:3764,-1.13,-0.439,1.613,30.396,-4.7,18.494,18.446,19.286,-45.187
 14:26:21.212,eb:33:2e:f9:57:b5, 2085-97-138 247:129:251:4992,-0.975,-0.5,2.067,81.604,-53.345,52.734,19.083,18.885,-44.901
 14:26:21.212,eb:33:2e:f9:57:b5, 2085-97-227 248:119:249:7120,-0.652,-0.675,2.906,160.95,-96.497,81.177,20.407,17.924,-44.511
 14:26:21.212,eb:33:2e:f9:57:b5, 2085-97-132 254:160:247:9514,0.376,-0.965,4.085,281.311,-119.629,97.961,22.747,16.545,-44.017
 14:26:21.241,eb:33:2e:f9:57:b5, 2085-97-183 08:51:249:10775,1.878,-0.999,4.986,444.397,-78.186,80.444,26.521,15.244,-43.577
 14:26:21.241,eb:33:2e:f9:57:b5, 2085-97-233 19:132:254:9959,2.831,-0.734,5.122,623.352,46.997,13.245,32.02,14.908,-43.182
 14:26:21.241,eb:33:2e:f9:57:b5, 2085-97-42 26:156:19:8728,3.752,0.93,4.822,804.626,131.714,-67.322,39.282,16.018,-42.852
 14:26:21.241,eb:33:2e:f9:57:b5, 2085-97-103 24:143:27:8295,1.695,3.131,4.253,1002.014,-61.157,-148.499,48.444,17.238,-43.22
 14:26:21.302,eb:33:2e:f9:57:b5, 2085-97-209 06:174:20:16063,0.013,3.692,5.394,1023.01,-528.809,-298.157,57.75,17.188,-47.203
 14:26:21.302,eb:33:2e:f9:57:b5, 2085-97-142 250:120:08:14747,-1.313,1.319,8.22,916.504,-556.396,-320.923,65.891,17.1,-54.19
 14:26:21.302,eb:33:2e:f9:57:b5, 2085-97-138 241:101:01:10652,-1.662,1.141,6.002,717.041,-207.092,-216.98,72.971,18.177,-58.832
 14:26:21.302,eb:33:2e:f9:57:b5, 2085-97-209 248:180:223:14487,-0.752,-2.21,5.206,411.072,165.283,-0.854,78.47,19.276,-58.991
 14:26:21.332,eb:33:2e:f9:57:b5, 2085-97-118 01:161:14:6788,0.045,-3.156,8.24,498.779,1007.751,317.2,84.391,18.693,-52.52
 14:26:21.332,eb:33:2e:f9:57:b5, 2085-97-115 19:49:00:12112,2.394,2.439,5.011,363.892,661.133,482.056,90.939,14.507,-43.094
 14:26:21.332,eb:33:2e:f9:57:b5, 2085-97-121 17:159:01:7884,1.947,-0.843,5.575,447.571,431.763,456.055,95.691,9.47,-37.848
 14:26:21.332,eb:33:2e:f9:57:b5, 2085-97-171 13:200:19:5052,1.568,1.755,2.928,494.324,117.31,264.893,100.646,5.576,-35.623
 14:26:21.391,eb:33:2e:f9:57:b5, 2085-97-00 11:27:10:5477,0.966,2.196,2.486,381.287,-179.932,-41.565,105.128,4.636,-36.359
 14:26:21.391,eb:33:2e:f9:57:b5, 2085-97-29 03:200:249:6425,-0.081,0.158,3.005,206.787,-258.484,-290.71,107.886,7.081,-38.062
 14:26:21.391,eb:33:2e:f9:57:b5, 2085-97-140 253:244:239:7119,-0.519,-1.454,3.217,35.095,-257.935,-398.865,108.891,11.299,-39.49
 14:26:21.391,eb:33:2e:f9:57:b5, 2085-97-72 249:191:230:8323,-1.237,-2.588,3.792,-133.423,-186.096,-395.386,108.1,15.837,-40.347
 14:26:21.393,eb:33:2e:f9:57:b5, 2085-97-89 244:191:223:8743,-1.331,-3.654,4.212,-272.644,-33.936,-296.814,105.947,19.479,-40.452
 14:26:21.393,eb:33:2e:f9:57:b5, 2085-97-106 248:10:222:7316,-0.423,-4.24,4.162,-368.103,177.429,-159.424,102.991,21.467,-39.095
 14:26:21.393,eb:33:2e:f9:57:b5, 2085-97-117 00:14:225:3779,0.523,-4.114,2.708,-453.064,360.413,-49.5,99.805,21.89,-35.931
 14:26:21.393,eb:33:2e:f9:57:b5, 2085-97-215 07:111:231:1550,1.393,-3.506,1.209,-523.987,398.499,-2.869,96.064,21.61,-31.783
 14:26:21.452,eb:33:2e:f9:57:b5, 2085-97-86 14:228:237:245,2.169,-2.647,0.384,-582.092,323.059,-23.621,91.642,21.517,-27.982
 14:26:21.452,eb:33:2e:f9:57:b5, 2085-97-251 18:182:242:-470,2.368,-1.915,-0.036,-629.028,202.576,-97.351,86.303,22.225,-25.329
 14:26:21.452,eb:33:2e:f9:57:b5, 2085-97-122 18:54:243:-897,2.227,-1.552,-0.443,-672.913,86.06,-187.622,80.167,23.862,-24.093
 14:26:21.452,eb:33:2e:f9:57:b5, 2085-97-53 17:89:241:226,1.97,-1.715,-0.236,-704.346,-19.47,-260.864,73.048,26.153,-24.483
 14:26:21.513,eb:33:2e:f9:57:b5, 2085-97-92 13:97:240:1424,1.329,-1.932,0.42,-728.271,-56.702,-292.48,65.237,28.597,-26.109
 14:26:21.513,eb:33:2e:f9:57:b5, 2085-97-19 08:150:241:2145,0.821,-1.889,0.887,-744.385,-91.797,-272.766,56.794,30.718,-28.427
 14:26:21.513,eb:33:2e:f9:57:b5, 2085-97-147 05:254:241:3107,0.511,-1.781,1.272,-735.413,-161.133,-195.74,48.093,31.734,-31.24
 14:26:21.513,eb:33:2e:f9:57:b5, 2085-97-26 03:238:246:3436,0.415,-1.562,1.625,-696.594,-193.787,-75.439,39.732,31.306,-33.717
 14:26:21.515,eb:33:2e:f9:57:b5, 2085-97-23 04:01:01:3445,0.511,-0.515,1.713,-641.113,-224.548,30.457,32.404,29.663,-35.211
 14:26:21.515,eb:33:2e:f9:57:b5, 2085-97-162 03:207:08:2646,0.408,0.757,1.449,-584.534,-282.41,107.422,25.994,27.109,-35.799
 14:26:21.515,eb:33:2e:f9:57:b5, 2085-97-117 03:55:12:3286,0.483,1.325,1.314,-539.795,-370.728,149.414,20.391,23.549,-35.832
 14:26:21.515,eb:33:2e:f9:57:b5, 2085-97-22 04:109:18:4954,0.479,1.83,2.023,-492.432,-405.884,180.481,15.326,19.259,-35.365
 14:26:21.602,eb:33:2e:f9:57:b5, 2085-97-196 02:139:29:6201,0.182,2.938,2.764,-436.096,-392.822,193.176,10.942,14.969,-34.327
 14:26:21.602,eb:33:2e:f9:57:b5, 2085-97-151 00:151:40:7442,-0.012,4.428,3.286,-365.967,-424.988,163.757,7.086,10.679,-33.085
 14:26:21.602,eb:33:2e:f9:57:b5, 2085-97-20 255:144:50:8793,-0.176,5.691,3.99,-310.486,-381.47,111.267,3.851,6.476,-32.047
 14:26:21.602,eb:33:2e:f9:57:b5, 2085-97-133 254:64:60:9668,-0.165,6.922,4.609,-297.18,-240.906,27.771,0.807,3.329,-31.437
 14:26:21.690,eb:33:2e:f9:57:b5, 2085-97-243 254:91:70:8252,-0.064,8.187,4.477,-288.147,-52.429,-84.717,-2.126,1.994,-31.74
 14:26:21.690,eb:33:2e:f9:57:b5, 2085-97-203 255:30:74:6606,-0.075,9.19,3.602,-227.722,16.846,-226.746,-4.713,1.813,-33.354
 14:26:21.690,eb:33:2e:f9:57:b5, 2085-97-249 253:130:67:5307,-0.575,8.976,2.869,-112.976,-23.987,-349.548,-6.257,1.472,-36.343
 14:26:21.690,eb:33:2e:f9:57:b5, 2085-97-236 247:85:56:5027,-1.415,7.786,2.446,-8.179,-102.051,-411.316,-6.608,0.275,-40.128
 14:26:21.693,eb:33:2e:f9:57:b5, 2085-97-253 241:175:43:5430,-2,6.227,2.598,75.073,-127.747,-390.625,-5.9,-1.5,-44.033
 14:26:21.693,eb:33:2e:f9:57:b5, 2085-97-100 238:190:34:4099,-2.333,4.838,2.457,136.292,-63.782,-302.185,-4.449,-2.845,-47.395
 14:26:21.693,eb:33:2e:f9:57:b5, 2085-97-26 237:247:26:2219,-2.311,3.872,1.519,208.069,-28.809,-193.237,-2.411,-3.439,-49.818
 14:26:21.693,eb:33:2e:f9:57:b5, 2085-97-125 241:47:58:17315,-1.875,4.035,0.542,235.535,-204.102,11.414,0.242,-4.092,-50.96
 14:26:21.695,eb:33:2e:f9:57:b5, 2085-97-117 207:52:248:7018,0.854,-3.743,9.924,57.983,515.625,116.516,1.763,-6.048,-51.817
 14:26:21.695,eb:33:2e:f9:57:b5, 2085-97-186 13:127:22:-3748,-1.869,3.939,-3.667,-261.047,428.711,43.884,0.571,-0.901,-50.537
 14:26:21.695,eb:33:2e:f9:57:b5, 2085-97-56 06:106:247:4805,-0.737,-3.459,5.42,-182.739,169.189,-142.395,-2.252,0.121,-52.064
 14:26:21.695,eb:33:2e:f9:57:b5, 2085-97-185 03:247:07:1535,0.87,-0.856,0.535,40.039,142.822,12.329,-2.274,2.653,-52.57
 14:26:21.721,eb:33:2e:f9:57:b5, 2085-97-111 252:155:00:397,0.137,-0.559,2.16,8.85,290.955,9.644,-2.302,4.647,-52.927
 14:26:21.721,eb:33:2e:f9:57:b5, 2085-97-209 254:154:00:1844,-0.172,0.104,1.484,-0.549,205.017,-10.925,-2.17,6.169,-52.987
 14:26:21.721,eb:33:2e:f9:57:b5, 2085-97-158 254:234:254:2171,-0.491,-0.063,1.03,-18.738,243.713,-17.883,-2.252,8.3,-53.344
 14:26:21.721,eb:33:2e:f9:57:b5, 2085-97-146 250:123:254:652,-0.23,-0.235,0.681,-17.151,196.472,6.897,-2.466,10.624,-53.531
 14:26:21.782,eb:33:2e:f9:57:b5, 2085-97-80 01:161:254:3446,0.166,-0.173,1.007,6.897,41.443,6.531,-2.505,11.492,-53.553
 14:26:21.782,eb:33:2e:f9:57:b5, 2085-97-03 255:108:254:3113,-0.544,-0.2,1.829,28.748,120.789,41.687,-2.291,12.354,-53.361
 14:26:21.782,eb:33:2e:f9:57:b5, 2085-97-208 250:72:252:4809,-0.918,-0.382,1.86,70.007,75.623,68.787,-1.714,13.403,-52.883
 14:26:21.782,eb:33:2e:f9:57:b5, 2085-97-56 248:249:250:4852,-1.132,-0.623,2.542,122.375,64.575,98.206,-0.582,14.216,-52.004
 14:26:21.782,eb:33:2e:f9:57:b5, 2085-97-247 246:42:246:7272,-0.905,-1.005,2.984,200.623,-46.753,95.215,1.214,14.211,-51.075
 14:26:21.811,eb:33:2e:f9:57:b5, 2085-113-81 00:109:115:1838,-0.597,-1.342,4.086,313.538,-119.385,91.736,3.972,13.282,-50.12
 14:26:21.811,eb:33:2e:f9:57:b5, 2085-97-83 254:50:240:10863,0.446,-1.733,4.821,378.967,-84.106,103.821,5.806,12.75,-49.675
 14:26:21.811,eb:33:2e:f9:57:b5, 2085-97-109 08:70:239:10459,1.727,-2.066,5.314,525.757,18.555,108.643,10.53,12.299,-48.582
 14:26:21.811,eb:33:2e:f9:57:b5, 2085-97-107 19:151:239:8761,2.769,-2.255,4.984,702.148,104.614,58.594,16.886,12.733,-47.637
 14:26:21.872,eb:33:2e:f9:57:b5, 2085-97-58 22:14:12:7996,2.768,-0.912,3.747,926.025,137.207,-29.358,25.126,13.953,-47.01
 14:26:21.872,eb:33:2e:f9:57:b5, 2085-97-51 23:83:38:12048,2.36,3.964,4.124,1287.964,-2.38,-130.005,36.282,15.057,-47.494
 14:26:21.872,eb:33:2e:f9:57:b5, 2085-97-49 10:122:29:20903,0.204,3.825,8.898,1396.057,-403.625,-215.393,49.543,14.672,-50.136
 14:26:21.872,eb:33:2e:f9:57:b5, 2085-97-11 251:21:18:15920,-1.551,3.767,8.87,1194.092,-702.759,-330.505,61.469,13.535,-56.772
 14:26:21.902,eb:33:2e:f9:57:b5, 2085-97-228 240:50:228:12401,-2.106,-0.626,7.435,757.019,-414.124,-229.736,69.955,13.607,-63.523
 14:26:21.902,eb:33:2e:f9:57:b5, 2085-97-226 251:107:255:12765,-1.539,-5.434,10.527,648.499,645.081,-21.423,76.218,14.683,-63.671
 14:26:21.902,eb:33:2e:f9:57:b5, 2085-97-212 05:91:19:13118,2.525,4.22,5.569,401.55,824.28,310.303,83.589,14.496,-54.399
 14:26:21.902,eb:33:2e:f9:57:b5, 2085-97-118 23:158:245:16347,2.943,-1.207,9.455,350.952,936.646,356.689,88.292,12.134,-45.818
 14:26:21.931,eb:33:2e:f9:57:b5, 2085-97-63 22:243:13:8288,2.791,0.492,5.338,470.642,573.303,323.669,93.296,8.685,-37.749
 14:26:21.931,eb:33:2e:f9:57:b5, 2085-97-247 18:187:13:7093,1.843,2.015,3.726,561.401,17.639,124.634,98.74,6.312,-35.524
 14:26:21.931,eb:33:2e:f9:57:b5, 2085-97-104 12:83:03:9336,1.197,1.155,3.625,510.62,-288.818,-124.817,104.073,6.735,-36.98
 14:26:21.931,eb:33:2e:f9:57:b5, 2085-97-143 05:06:246:12368,0.217,-0.444,5.547,369.446,-346.741,-314.209,108.259,9.943,-39.672
 14:26:21.961,eb:33:2e:f9:57:b5, 2085-97-147 255:166:234:12681,-0.145,-1.977,6.16,200.928,-241.699,-367.859,110.737,14.211,-41.265
 14:26:21.961,eb:33:2e:f9:57:b5, 2085-97-224 254:225:226:11792,-0.283,-3.239,6.085,45.105,-51.697,-327.209,111.852,18.007,-41.413
 14:26:21.961,eb:33:2e:f9:57:b5, 2085-97-121 253:214:222:9167,-0.158,-3.955,5.107,-96.008,181.702,-235.596,111.929,20.33,-39.534
 14:26:21.961,eb:33:2e:f9:57:b5, 2085-97-19 01:180:222:7405,0.477,-4.196,4.015,-209.29,324.768,-135.742,111.264,21.072,-36.26
 14:26:22.021,eb:33:2e:f9:57:b5, 2085-97-221 06:230:223:5692,1.219,-4.098,3.222,-289.429,379.7,-68.359,109.764,20.77,-32.316
 14:26:22.021,eb:33:2e:f9:57:b5, 2085-97-142 12:151:224:2720,1.96,-3.944,2.127,-353.455,367.432,-39.185,107.622,20.094,-28.411
 14:26:22.022,eb:33:2e:f9:57:b5, 2085-97-254 18:37:225:-880,2.731,-3.924,0.453,-425.659,308.716,-53.772,104.59,19.655,-24.906
 14:26:22.022,eb:33:2e:f9:57:b5, 2085-97-202 23:220:227:-2815,3.012,-3.702,-1.152,-534.424,214.294,-117.188,100.53,19.957,-22.083
 14:26:22.052,eb:33:2e:f9:57:b5, 2085-97-47 23:95:229:-1410,2.764,-3.388,-1.186,-645.813,94.177,-214.111,94.971,21.473,-20.358
 14:26:22.052,eb:33:2e:f9:57:b5, 2085-97-192 20:185:229:221,2.274,-3.317,-0.275,-726.929,-5.066,-306.519,88.132,24.159,-20.017
 14:26:22.052,eb:33:2e:f9:57:b5, 2085-97-224 15:154:229:1593,1.833,-3.298,0.368,-776.917,-50.11,-340.942,80.211,27.405,-20.808
 14:26:22.052,eb:33:2e:f9:57:b5, 2085-97-202 13:37:232:3688,1.54,-3.211,1.333,-791.992,-88.44,-340.027,71.581,30.515,-22.621
 14:26:22.083,eb:33:2e:f9:57:b5, 2085-97-54 10:129:235:4528,0.99,-2.72,2.039,-789.185,-110.168,-291.321,62.435,33.014,-25.137
 14:26:22.083,eb:33:2e:f9:57:b5, 2085-97-28 06:192:236:5513,0.662,-2.493,2.4,-766.479,-190.857,-193.665,53.19,34.206,-28.12
 14:26:22.083,eb:33:2e:f9:57:b5, 2085-97-85 05:108:240:6594,0.803,-2.223,3.012,-734.924,-277.771,-49.561,44.138,33.437,-31.124
 14:26:22.083,eb:33:2e:f9:57:b5, 2085-97-99 07:98:246:6623,0.953,-1.59,3.358,-708.862,-309.204,104.675,36.079,30.872,-32.953
 14:26:22.262,eb:33:2e:f9:57:b5, 2085-97-210 08:40:252:5262,1.302,-0.834,2.779,-682.373,-338.44,224.121,28.965,27.252,-33.162
 14:26:22.262,eb:33:2e:f9:57:b5, 2085-97-191 11:101:04:5623,1.54,-0.045,2.58,-657.043,-392.395,288.635,22.615,22.791,-32.261
 14:26:22.262,eb:33:2e:f9:57:b5, 2085-97-188 11:54:17:7009,1.282,1.298,3.037,-641.479,-431.458,294.739,16.49,17.924,-30.701
 14:26:22.262,eb:33:2e:f9:57:b5, 2085-97-97 08:72:29:8898,0.848,2.983,3.925,-610.413,-494.446,245.3,10.558,12.805,-29.031
 14:26:22.264,eb:33:2e:f9:57:b5, 2085-97-249 05:186:37:10039,0.698,4.207,4.635,-560.059,-504.15,168.518,4.807,7.509,-27.57
 14:26:22.264,eb:33:2e:f9:57:b5, 2085-97-194 03:235:47:11700,0.126,5.293,5.304,-520.996,-408.936,81.665,-0.522,2.9,-26.466
 14:26:22.264,eb:33:2e:f9:57:b5, 2085-97-127 254:36:59:13360,-0.45,6.705,6.148,-491.272,-288.025,-28.564,-5.674,-0.522,-25.972
 14:26:22.265,eb:33:2e:f9:57:b5, 2085-97-32 251:251:66:13058,-0.624,7.969,6.653,-430.481,-141.907,-151.184,-10.217,-2.752,-26.614
 14:26:22.265,eb:33:2e:f9:57:b5, 2085-97-95 251:11:69:11243,-0.564,8.609,5.866,-340.942,-33.02,-273.682,-13.837,-3.988,-28.575
 14:26:22.265,eb:33:2e:f9:57:b5, 2085-97-29 251:235:66:9745,-0.726,8.515,5.136,-243.408,3.479,-380.493,-16.227,-5.021,-31.833
 14:26:22.265,eb:33:2e:f9:57:b5, 2085-97-124 248:35:63:9112,-1.175,8.111,4.582,-149.963,-10.193,-454.224,-17.507,-6.378,-35.909
 14:26:22.265,eb:33:2e:f9:57:b5, 2085-97-79 245:21:58:7800,-1.472,7.633,4.171,-61.951,8.301,-458.069,-17.672,-7.899,-40.375
 14:26:22.267,eb:33:2e:f9:57:b5, 2085-97-247 242:222:48:5684,-1.754,6.759,3.339,42.664,43.457,-401.672,-16.815,-9.003,-44.676
 14:26:22.267,eb:33:2e:f9:57:b5, 2085-97-15 241:25:35:3522,-1.942,5.299,2.242,161.56,30.151,-297.241,-14.925,-9.635,-48.241
 14:26:22.267,eb:33:2e:f9:57:b5, 2085-97-70 241:191:22:2367,-2.292,3.521,1.324,280.64,-56.396,-164.062,-12.112,-10.344,-50.471
 14:26:22.267,eb:33:2e:f9:57:b5, 2085-97-23 194:123:81:-528,2.658,0.739,9.516,605.774,186.768,38.025,-6.998,-11.481,-51.647
 14:26:22.293,eb:33:2e:f9:57:b5, 2085-97-132 34:03:44:4661,1.729,-0.708,8.479,196.472,718.079,163.33,-3.043,-11.871,-51.152
 14:26:22.293,eb:33:2e:f9:57:b5, 2085-97-153 223:237:246:-5921,-3.453,1.901,0.303,-146.729,1277.649,-45.959,-3.027,-1.967,-51.866
 14:26:22.293,eb:33:2e:f9:57:b5, 2085-97-115 254:146:249:2725,0.88,-0.503,-3.444,40.71,-122.192,-41.077,-3.521,4.131,-52.614
 14:26:22.293,eb:33:2e:f9:57:b5, 2085-97-102 237:142:09:-5930,-1.193,-1.793,4.234,88.684,635.498,76.904,-2.554,4.466,-52.861
 14:26:22.322,eb:33:2e:f9:57:b5, 2085-97-107 19:133:06:8034,-1.091,-0.361,-0.967,56.58,-382.324,27.344,-2.433,6.317,-52.482
 14:26:22.322,eb:33:2e:f9:57:b5, 2085-97-178 253:191:02:776,0.251,-0.157,-0.507,-0.977,15.747,14.893,-2.313,6.768,-52.355
 14:26:22.322,eb:33:2e:f9:57:b5, 2085-97-121 04:230:255:4016,0.322,-0.22,1.721,13.123,-73.303,-6.226,-2.219,5.641,-52.46
 14:26:22.322,eb:33:2e:f9:57:b5, 2085-97-239 252:39:254:1989,-0.221,-0.12,1.938,16.785,148.071,1.892,-1.978,5.773,-52.542
 14:26:22.411,eb:33:2e:f9:57:b5, 2085-97-246 01:88:254:4358,-0.419,-0.074,1.212,21.79,147.156,0.305,-1.802,7.421,-52.581
 14:26:22.411,eb:33:2e:f9:57:b5, 2085-97-178 245:218:249:3910,-1.308,-0.338,1.527,36.316,249.573,46.143,-1.533,9.866,-52.493
 14:26:22.411,eb:33:2e:f9:57:b5, 2085-97-152 247:33:247:8077,-0.989,-1.142,3.632,129.517,137.146,96.252,-0.599,11.354,-51.877
 14:26:22.411,eb:33:2e:f9:57:b5, 2085-97-140 247:61:245:8054,-0.995,-1.009,3.474,224.976,80.627,124.512,1.324,12.794,-50.702
 14:26:22.413,eb:33:2e:f9:57:b5, 2085-97-86 251:208:237:12992,0.191,-1.793,5.11,369.446,-64.148,125.61,4.526,12.59,-49.488
 14:26:22.413,eb:33:2e:f9:57:b5, 2085-97-239 08:98:237:11107,1.984,-2.446,6.305,538.208,23.499,149.658,9.327,12.222,-48.098
 14:26:22.413,eb:33:2e:f9:57:b5, 2085-97-250 20:02:242:8457,2.722,-2.169,4.635,748.596,45.837,83.069,16.018,12.393,-46.813
 14:26:22.413,eb:33:2e:f9:57:b5, 2085-97-181 21:92:18:8735,2.459,-0.364,4.207,1039.612,5.859,-26.672,25.054,12.618,-46.533
 14:26:22.442,eb:33:2e:f9:57:b5, 2085-97-188 17:19:36:17525,0.766,4.526,5.372,1389.343,-180.969,-92.285,37.392,12.398,-47.401
 14:26:22.442,eb:33:2e:f9:57:b5, 2085-97-106 252:138:25:22492,-1.883,4.198,10.571,1474.487,-511.047,-213.867,51.476,10.712,-51.251
 14:26:22.442,eb:33:2e:f9:57:b5, 2085-97-172 236:79:14:14855,-2.4,3.01,8.78,1295.593,-488.525,-189.453,64.786,9.63,-56.733
 14:26:22.442,eb:33:2e:f9:57:b5, 2085-97-26 235:81:215:13265,-2.755,-1.687,5.189,825.256,-277.771,28.748,75.064,9.009,-60.76
 14:26:22.502,eb:33:2e:f9:57:b5, 2085-97-67 250:157:42:3978,-1.094,-0.294,3.488,840.759,701.538,329.895,83.633,8.146,-57.453
 14:26:22.502,eb:33:2e:f9:57:b5, 2085-97-253 07:241:16:15062,2.217,5.359,3.332,400.085,320.801,424.622,89.83,4.032,-52.108
 14:26:22.502,eb:33:2e:f9:57:b5, 2085-97-17 21:109:29:14291,2.8,1.977,8.327,357.483,720.703,446.411,93.214,-0.516,-46.456
 14:26:22.502,eb:33:2e:f9:57:b5, 2085-97-251 23:02:42:12503,3.109,4.977,6.342,459.29,418.64,276.672,96.575,-4.504,-40.803
 14:26:22.533,eb:33:2e:f9:57:b5, 2085-97-01 25:105:35:10186,2.869,4.893,5.407,618.286,27.405,20.447,101.739,-6.136,-38.826
 14:26:22.533,eb:33:2e:f9:57:b5, 2085-97-45 19:218:22:13010,1.845,3.744,5.329,669.983,-307.861,-267.517,108.528,-4.351,-40.122
 14:26:22.533,eb:33:2e:f9:57:b5, 2085-97-248 10:78:06:16093,0.961,1.89,7.249,622.803,-466.187,-460.266,115.225,0.692,-42.429
 14:26:22.533,eb:33:2e:f9:57:b5, 2085-97-231 04:19:245:17027,0.306,-0.353,8.196,519.897,-497.742,-530.762,120.938,7.471,-44.528
 14:26:22.561,eb:33:2e:f9:57:b5, 2085-97-198 255:159:231:16087,-0.266,-2.217,8.209,380.066,-338.501,-480.896,125.222,14.068,-45.319
 14:26:22.561,eb:33:2e:f9:57:b5, 2085-97-240 252:123:225:14094,-0.299,-3.546,7.409,210.449,15.503,-313.965,128.309,18.073,-44.176
 14:26:22.561,eb:33:2e:f9:57:b5, 2085-97-111 255:81:226:12453,0.259,-3.843,6.448,76.05,306.58,-143.494,130.292,18.649,-41.232
 14:26:22.561,eb:33:2e:f9:57:b5, 2085-97-35 05:196:229:11159,0.967,-3.505,5.767,-28.625,484.07,-14.282,131.331,16.518,-37.496
 14:26:22.622,eb:33:2e:f9:57:b5, 2085-97-126 09:133:232:9135,1.323,-3.065,5.005,-96.436,532.593,48.157,131.276,12.958,-33.574
 14:26:22.622,eb:33:2e:f9:57:b5, 2085-97-202 11:157:230:6268,1.848,-2.963,3.832,-118.713,442.749,44.8,130.583,9.399,-30.064
 14:26:22.622,eb:33:2e:f9:57:b5, 2085-97-156 17:165:221:1593,2.364,-3.574,2.187,-115.112,267.517,-11.597,129.523,7.092,-27.471
 14:26:22.622,eb:33:2e:f9:57:b5, 2085-97-91 20:203:204:-6793,2.69,-5.33,-1.473,-210.815,162.598,-93.445,128.09,6.251,-25.461
 14:26:22.652,eb:33:2e:f9:57:b5, 2085-113-58 00:159:247:-7530,2.491,-6.906,-3.326,-457.336,41.382,-162.17,124.64,6.757,-23.906
 14:26:22.652,eb:33:2e:f9:57:b5, 2085-97-121 19:15:205:-1168,2.381,-6.684,-2.16,-558.533,-42.175,-204.468,122.064,7.575,-23.45
 14:26:22.652,eb:33:2e:f9:57:b5, 2085-97-139 18:29:210:800,2.305,-6.095,0.188,-721.924,-28.32,-271.851,115.615,9.965,-22.742
 14:26:22.652,eb:33:2e:f9:57:b5, 2085-97-63 18:188:217:1744,2.208,-5.271,0.585,-871.704,13.062,-325.5,107.633,12.816,-21.764
 14:26:22.682,eb:33:2e:f9:57:b5, 2085-97-05 12:44:221:2141,0.547,-4.377,1.149,-977.051,27.466,-375.793,98.47,16.249,-20.836
 14:26:22.682,eb:33:2e:f9:57:b5, 2085-97-123 06:57:225:6376,0.975,-4.309,1.208,-998.108,-92.896,-381.531,88.38,19.979,-20.852
 14:26:22.682,eb:33:2e:f9:57:b5, 2085-97-116 05:231:234:9227,0.469,-3.07,4.285,-918.396,-199.89,-363.281,78.129,23.478,-22.934
 14:26:22.682,eb:33:2e:f9:57:b5, 2085-97-59 03:03:235:9741,0.333,-2.605,4.659,-786.499,-406.921,-315.613,68.06,25.692,-27.4
 14:26:22.742,eb:33:2e:f9:57:b5, 2085-97-83 01:39:239:9016,0.025,-2.42,4.644,-717.59,-444.702,-229.797,58.574,26.016,-32.953
 14:26:22.742,eb:33:2e:f9:57:b5, 2085-97-53 255:215:241:9080,-0.141,-1.872,4.354,-701.172,-455.627,-138.855,49.592,24.736,-38.051
 14:26:22.742,eb:33:2e:f9:57:b5, 2085-97-158 254:189:242:9241,-0.166,-1.732,4.569,-705.872,-441.772,-29.846,41.243,22.083,-42.045
 14:26:22.742,eb:33:2e:f9:57:b5, 2085-97-110 255:54:245:9200,-0.008,-1.536,4.411,-718.628,-427.795,70.19,33.333,18.43,-44.528
 14:26:22.801,eb:33:2e:f9:57:b5, 2085-97-240 255:00:251:9195,-0.017,-1.044,4.558,-726.379,-388.733,152.832,25.889,14.293,-45.489
 14:26:22.801,eb:33:2e:f9:57:b5, 2085-97-180 00:125:03:9531,0.221,-0.127,4.463,-709.167,-375.122,203.613,18.644,10.091,-45.154
 14:26:22.801,eb:33:2e:f9:57:b5, 2085-97-196 01:216:14:10003,0.152,1.098,4.879,-674.011,-357.239,216.614,11.821,6.004,-44.006
 14:26:22.801,eb:33:2e:f9:57:b5, 2085-97-137 00:253:25:10427,-0.006,2.596,4.907,-633.545,-370.483,190.186,5.202,2.159,-42.424
 14:26:22.803,eb:33:2e:f9:57:b5, 2085-97-205 254:252:34:12571,-0.393,3.822,5.494,-591.98,-396.667,142.761,-1,-1.747,-40.864
 14:26:22.803,eb:33:2e:f9:57:b5, 2085-97-154 250:181:44:15654,-0.882,4.97,6.896,-549.622,-359.497,93.628,-6.982,-5.471,-39.331
 14:26:22.803,eb:33:2e:f9:57:b5, 2085-97-202 248:166:54:17379,-0.745,6.207,8.219,-496.521,-214.722,49.194,-12.442,-8.196,-38.123
 14:26:22.803,eb:33:2e:f9:57:b5, 2085-97-194 251:31:66:15915,-0.278,7.501,8.283,-423.767,13.306,-6.775,-17.199,-9.009,-37.656
 14:26:22.863,eb:33:2e:f9:57:b5, 2085-97-79 00:97:78:12833,0.25,9.081,7.079,-318.481,117.92,-102.112,-20.704,-8.383,-38.524
 14:26:22.863,eb:33:2e:f9:57:b5, 2085-97-247 01:197:84:9961,0.109,10.333,5.472,-194.275,47.119,-230.164,-22.835,-8.24,-40.485
 14:26:22.863,eb:33:2e:f9:57:b5, 2085-97-228 254:29:80:8440,-0.507,10.496,4.497,-76.416,-36.133,-339.233,-23.527,-9.514,-43.226
 14:26:22.863,eb:33:2e:f9:57:b5, 2085-97-42 248:65:64:6364,-1.595,9.169,3.66,41.321,-40.405,-380.432,-22.852,-11.437,-46.527
 14:26:23.011,eb:33:2e:f9:57:b5, 2085-97-205 238:201:43:4919,-2.682,6.772,2.617,166.504,-59.448,-338.562,-20.819,-13.26,-49.856
 14:26:23.011,eb:33:2e:f9:57:b5, 2085-97-143 230:243:23:3424,-1.808,4.202,2.041,297.546,-130.005,-229.919,-17.677,-15.161,-52.339
 14:26:23.011,eb:33:2e:f9:57:b5, 2085-97-26 209:61:23:11278,-8.421,2.859,3.403,644.47,-320.374,-254.272,-13.2,-17.606,-53.547
 14:26:23.011,eb:33:2e:f9:57:b5, 2085-97-176 55:187:25:23617,8.528,9.554,1.477,665.955,-1084.29,126.221,-5.718,-20.198,-52.339
 14:26:23.014,eb:33:2e:f9:57:b5, 2085-97-213 00:255:06:-3264,-5.734,5.06,4.414,275.024,-668.518,-177.734,-1.302,-24.077,-53.196
 14:26:23.014,eb:33:2e:f9:57:b5, 2085-97-148 231:91:246:-3744,-0.908,1.009,-8.392,69.763,-150.757,-255.249,1.917,-28.339,-56.052
 14:26:23.014,eb:33:2e:f9:57:b5, 2085-97-165 244:04:09:-1978,-0.288,-2.113,2.747,142.09,180.969,-38.513,4.515,-30.542,-58.409
 14:26:23.014,eb:33:2e:f9:57:b5, 2085-97-46 00:246:00:2227,-0.475,0.34,0.543,24.963,-66.101,24.902,4.285,-29.29,-57.645
 14:26:23.014,eb:33:2e:f9:57:b5, 2085-97-67 02:216:00:3250,-0.086,0.029,0.419,0.183,-107.239,34.302,4.18,-29.361,-57.321
 14:26:23.014,eb:33:2e:f9:57:b5, 2085-97-208 07:40:01:5257,0.333,-0.292,0.977,19.165,-51.819,18.127,4.263,-29.729,-57.294
 14:26:23.014,eb:33:2e:f9:57:b5, 2085-97-218 246:144:254:-539,-0.665,-0.19,1.948,16.052,230.225,32.532,4.351,-28.965,-57.03
 14:26:23.014,eb:33:2e:f9:57:b5, 2085-97-68 01:186:255:4077,-0.349,-0.053,0.458,19.226,-17.273,13.55,4.356,-28.13,-56.733
 14:26:23.017,eb:33:2e:f9:57:b5, 2085-97-196 250:148:247:7141,-0.176,-0.463,3.141,24.902,147.278,20.081,4.46,-27.466,-56.585
 14:26:23.017,eb:33:2e:f9:57:b5, 2085-97-01 00:09:247:13332,-0.136,-0.662,3.542,160.95,18.86,68.054,4.933,-26.433,-55.865
 14:26:23.017,eb:33:2e:f9:57:b5, 2085-97-111 255:05:237:13827,0.6,-1.964,7.48,336.67,123.413,65.674,7.191,-26.109,-55.239
 14:26:23.017,eb:33:2e:f9:57:b5, 2085-97-193 10:124:237:10071,1.716,-2.42,5.901,510.071,227.783,83.862,10.92,-24.401,-54.102
 14:26:23.073,eb:33:2e:f9:57:b5, 2085-97-240 19:84:237:10594,2.621,-2.223,4.795,695.312,224.792,48.096,16.436,-22.154,-52.756
 14:26:23.073,eb:33:2e:f9:57:b5, 2085-97-03 19:250:00:10735,2.307,-2.127,4.457,912.292,172.913,-10.193,24.06,-20.259,-51.844
 14:26:23.073,eb:33:2e:f9:57:b5, 2085-97-93 15:159:28:17603,1.396,2.538,7.202,1319.58,74.951,-100.586,35.233,-18.88,-51.85
 14:26:23.073,eb:33:2e:f9:57:b5, 2085-97-136 02:08:34:17321,-0.753,4.134,9.051,1489.685,-321.045,-229.614,50.691,-18.539,-54.069
 14:26:23.073,eb:33:2e:f9:57:b5, 2085-97-189 242:26:22:12871,-3.042,3.689,7.556,1291.748,-637.756,-289.246,67.143,-18.896,-60.518
 14:26:23.101,eb:33:2e:f9:57:b5, 2085-113-81 00:130:89:14327,-2.861,0.186,3.686,795.044,-448.12,-128.052,80.261,-18.517,-67.022
 14:26:23.101,eb:33:2e:f9:57:b5, 2085-97-89 230:85:254:11507,-1.785,-4.068,7.216,785.95,143.738,-18.127,84.402,-18.16,-68.071
 14:26:23.101,eb:33:2e:f9:57:b5, 2085-97-62 245:235:33:9249,0.702,4.247,4.366,580.139,680.176,357.727,88.984,-19.72,-61.106
 14:26:23.101,eb:33:2e:f9:57:b5, 2085-97-41 15:253:21:17519,2.368,2.246,7.953,431.396,698.364,416.565,90.363,-23.368,-53.871
 14:26:23.131,eb:33:2e:f9:57:b5, 2085-97-224 20:219:47:14048,3.008,4.48,7.58,495.728,624.512,360.962,91,-27.285,-45.797
 14:26:23.131,eb:33:2e:f9:57:b5, 2085-97-105 25:233:45:14776,3.04,6.209,7.206,619.385,299.683,133.362,93.796,-29.8,-40.507
 14:26:23.131,eb:33:2e:f9:57:b5, 2085-97-164 21:71:37:15243,2.191,5.318,7.035,729.004,39.856,-143.433,99.476,-29.696,-38.397
 14:26:23.131,eb:33:2e:f9:57:b5, 2085-97-21 13:174:20:17809,1.114,3.703,8.154,753.235,-198.486,-363.22,107.221,-26.796,-38.837
 14:26:23.191,eb:33:2e:f9:57:b5, 2085-97-38 05:179:00:19508,0.274,1.291,9.206,692.444,-306.519,-472.046,114.988,-21.753,-39.919
 14:26:23.191,eb:33:2e:f9:57:b5, 2085-97-108 00:199:242:19230,-0.106,-0.863,9.594,567.932,-177.124,-456.787,121.328,-16.386,-40.029
 14:26:23.191,eb:33:2e:f9:57:b5, 2085-97-140 254:216:233:16719,-0.187,-2.319,8.856,414.062,125.732,-329.468,125.436,-12.947,-37.864
 14:26:23.191,eb:33:2e:f9:57:b5, 2085-97-69 255:180:232:13977,0.103,-2.925,7.402,272.766,390.686,-154.053,127.683,-12.717,-34.036
 14:26:23.252,eb:33:2e:f9:57:b5, 2085-97-233 02:28:233:12799,0.638,-2.87,6.512,185.364,461.121,-12.329,128.518,-14.771,-29.773
 14:26:23.252,eb:33:2e:f9:57:b5, 2085-97-207 06:196:230:11476,0.998,-2.932,5.884,148.926,400.879,71.777,128.947,-17.743,-26.323
 14:26:23.252,eb:33:2e:f9:57:b5, 2085-97-60 08:154:228:10675,1.101,-3.351,5.468,163.879,257.141,90.759,129.545,-20.358,-24.082
 14:26:23.252,eb:33:2e:f9:57:b5, 2085-97-225 08:206:228:6775,1.182,-3.384,4.859,144.836,198.669,78.43,130.649,-22.357,-22.863
 14:26:23.252,eb:33:2e:f9:57:b5, 2085-97-111 11:195:214:-327,1.498,-3.95,1.601,5.005,233.337,44.983,130.485,-24.406,-21.121
 14:26:23.252,eb:33:2e:f9:57:b5, 2085-97-23 17:231:187:-4104,2.367,-7.025,-1.957,-229.248,198.181,-16.602,128.408,-25.862,-19.215
 14:26:23.252,eb:33:2e:f9:57:b5, 2085-97-22 17:137:192:-054,2.101,-8.499,-0.692,-458.191,51.697,-108.704,124.025,-25.79,-17.88
 14:26:23.252,eb:33:2e:f9:57:b5, 2085-97-55 18:158:198:727,2.578,-7.52,0.203,-678.894,40.71,-173.828,117.68,-24.697,-16.639
 14:26:23.372,eb:33:2e:f9:57:b5, 2085-97-30 21:121:207:2776,2.406,-6.7,0.814,-906.494,64.331,-253.54,108.847,-22.896,-15.189
 14:26:23.372,eb:33:2e:f9:57:b5, 2085-97-218 16:221:217:4431,1.723,-5.372,1.79,-1051.575,26.978,-363.098,98.361,-19.94,-13.876
 14:26:23.372,eb:33:2e:f9:57:b5, 2085-97-98 09:221:221:6181,0.356,-4.383,2.394,-1138.367,-42.847,-443.42,87.286,-15.815,-13.942
 14:26:23.372,eb:33:2e:f9:57:b5, 2085-97-26 01:60:233:11903,0.087,-3.423,4.227,-1175.964,-108.459,-468.811,75.938,-11.431,-15.309
 14:26:23.433,eb:33:2e:f9:57:b5, 2085-97-01 01:103:233:13677,0.326,-2.767,6.746,-1031.555,-403.076,-447.632,65.819,-8.091,-19.682
 14:26:23.433,eb:33:2e:f9:57:b5, 2085-97-100 03:30:236:12410,0.32,-2.768,6.445,-904.419,-468.811,-368.225,57.469,-6.823,-25.823
 14:26:23.433,eb:33:2e:f9:57:b5, 2085-97-115 01:225:241:10953,0.086,-2.102,5.557,-833.862,-417.236,-281.555,49.785,-6.96,-31.344
 14:26:23.433,eb:33:2e:f9:57:b5, 2085-97-133 00:48:244:10386,0.075,-1.587,5.202,-800.964,-415.283,-216.125,42.61,-8.141,-36.129
 14:26:23.642,eb:33:2e:f9:57:b5, 2085-97-253 255:239:244:9221,-0.057,-1.393,4.872,-810.791,-407.715,-144.775,35.37,-10.305,-40.139
 14:26:23.642,eb:33:2e:f9:57:b5, 2085-97-189 255:52:247:8608,0.01,-1.335,4.194,-810.181,-448.425,-61.707,28.092,-13.458,-43.308
 14:26:23.642,eb:33:2e:f9:57:b5, 2085-97-243 255:52:255:9344,-0.13,-0.652,4.411,-780.457,-485.596,9.827,20.731,-17.715,-45.417
 14:26:23.642,eb:33:2e:f9:57:b5, 2085-97-96 254:142:06:9091,-0.212,0.426,4.494,-726.746,-538.086,57.434,13.661,-22.714,-46.577
 14:26:23.642,eb:33:2e:f9:57:b5, 2085-97-39 254:69:12:10255,-0.323,1.139,4.564,-663.269,-601.074,91.553,6.685,-28.553,-46.659
 14:26:23.642,eb:33:2e:f9:57:b5, 2085-97-66 252:67:20:14196,-0.618,2.035,5.857,-602.844,-635.132,124.023,-0.258,-34.777,-45.599
 14:26:23.642,eb:33:2e:f9:57:b5, 2085-97-146 249:81:26:18104,-0.891,2.928,7.985,-549.5,-630.798,153.076,-7.91,-41.05,-42.814
 14:26:23.643,eb:33:2e:f9:57:b5, 2085-97-87 249:185:35:20222,-0.739,3.869,9.626,-530.273,-441.65,189.758,-16.512,-46,-38.485
 14:26:23.645,eb:33:2e:f9:57:b5, 2085-97-194 250:92:49:18892,-0.649,5.196,9.649,-510.925,-171.265,185.974,-25.433,-47.955,-33.816
 14:26:23.645,eb:33:2e:f9:57:b5, 2085-97-89 251:214:68:17001,-0.394,7.38,8.812,-434.57,-22.644,113.525,-32.327,-47.834,-31.119
 14:26:23.645,eb:33:2e:f9:57:b5, 2085-97-148 254:183:79:13362,-0.1,9.529,7.436,-306.213,-21.973,-25.146,-36.606,-47.653,-30.405
 14:26:23.645,eb:33:2e:f9:57:b5, 2085-97-106 255:71:81:11402,-0.027,10.124,5.928,-204.041,-75.5,-189.087,-38.364,-48.84,-31.306
 14:26:23.647,eb:33:2e:f9:57:b5, 2085-113-81 00:164:96:-13425,0.079,10.021,4.958,-136.719,27.466,-317.2,-37.535,-50.707,-34.47
 14:26:23.648,eb:33:2e:f9:57:b5, 2085-97-225 00:47:70:6728,-0.036,9.508,4.079,-100.525,96.375,-362.61,-35.848,-51.493,-37.227
 14:26:23.648,eb:33:2e:f9:57:b5, 2085-97-121 252:121:55:4033,-0.821,7.935,2.604,-8.179,168.457,-403.625,-30.328,-52.487,-44.55
 14:26:23.648,eb:33:2e:f9:57:b5, 2085-97-210 246:226:33:3112,-0.895,5.636,1.666,137.695,49.927,-362.183,-23.599,-53.311,-51.855
 14:26:23.648,eb:33:2e:f9:57:b5, 2085-97-147 191:238:50:-3090,-0.705,2.121,8.706,675.598,431.824,-127.869,-15.095,-54.366,-57.502
 14:26:23.649,eb:33:2e:f9:57:b5, 2085-97-135 253:85:232:10227,0.522,6.822,8.453,1028.076,588.623,108.948,-4.257,-51.262,-59.233
 14:26:23.649,eb:33:2e:f9:57:b5, 2085-97-01 11:135:231:10159,1.632,-2.939,4.615,732.91,36.987,113.831,18.973,-38.699,-57.184
 14:26:23.649,eb:33:2e:f9:57:b5, 2085-97-90 15:13:237:10928,2.152,-3.268,4.793,956.299,-0.244,48.584,26.785,-38.87,-56.234
 14:26:23.702,eb:33:2e:f9:57:b5, 2085-97-58 22:235:07:15647,1.657,0.133,6.604,1289.185,-16.113,-36.682,37.908,-38.804,-56.041
 14:26:23.702,eb:33:2e:f9:57:b5, 2085-97-246 04:146:20:16478,0.35,1.959,7.339,1401.733,-340.21,-172.485,53.613,-39.106,-58.81
 14:26:23.702,eb:33:2e:f9:57:b5, 2085-97-233 248:170:18:14301,-2.099,2.607,9.383,1236.511,-673.767,-277.893,72.977,-39.666,-67.747
 14:26:23.702,eb:33:2e:f9:57:b5, 2085-97-07 233:213:238:4852,-2.502,0.739,3.865,845.337,-538.452,-186.646,89.5,-38.188,-76.74
 14:26:23.732,eb:33:2e:f9:57:b5, 2085-97-35 234:221:243:7458,-1.268,-5.16,6.142,578.674,374.817,91.919,97.789,-37.645,-79.634
 14:26:23.732,eb:33:2e:f9:57:b5, 2085-97-99 03:132:42:7136,2.062,3.778,1.596,357.605,775.696,439.636,96.367,-41.347,-70.148
 14:26:23.732,eb:33:2e:f9:57:b5, 2085-97-140 20:112:25:14373,2.502,3.136,6.391,166.016,773.315,419.373,90.066,-45.846,-58.876
 14:26:23.732,eb:33:2e:f9:57:b5, 2085-97-30 22:118:47:9573,3.216,5.16,5.36,307.678,521.912,321.472,83.639,-49.016,-47.73
 14:26:23.792,eb:33:2e:f9:57:b5, 2085-97-166 24:176:35:10310,2.762,5.197,4.878,480.896,0.122,88.44,84.512,-50.652,-43.781
 14:26:23.792,eb:33:2e:f9:57:b5, 2085-97-245 18:122:25:14473,2.062,3.844,5.771,567.017,-264.16,-156.738,92.076,-50.114,-46.516
 14:26:23.792,eb:33:2e:f9:57:b5, 2085-97-242 14:153:09:18678,1.687,2.214,8.583,571.655,-300.659,-362.793,101.47,-47.115,-51.015
 14:26:23.792,eb:33:2e:f9:57:b5, 2085-97-94 11:165:249:16339,1.156,0.125,8.83,534.912,-166.382,-455.505,108.331,-42.374,-52.811
 14:26:23.822,eb:33:2e:f9:57:b5, 2085-97-18 08:04:239:13718,0.901,-1.526,7.151,448.73,-82.214,-461.06,112.802,-37.623,-52.103
 14:26:23.822,eb:33:2e:f9:57:b5, 2085-97-02 06:88:232:11945,0.609,-2.585,6.318,323.608,14.771,-393.555,115.384,-33.442,-50.257
 14:26:23.822,eb:33:2e:f9:57:b5, 2085-97-88 04:167:227:10794,0.514,-3.291,5.434,201.538,110.046,-279.297,116.444,-30.712,-47.697
 14:26:23.822,eb:33:2e:f9:57:b5, 2085-97-206 03:131:226:10235,0.539,-3.65,5.153,115.723,199.158,-157.043,116.279,-29.383,-44.835
 14:26:23.853,eb:33:2e:f9:57:b5, 2085-97-224 05:105:225:10349,0.989,-3.748,4.993,70.557,271.729,-52.979,115.433,-29.504,-41.682
 14:26:23.853,eb:33:2e:f9:57:b5, 2085-97-230 09:135:224:9731,1.469,-3.885,4.977,71.96,314.087,16.113,114.12,-30.498,-38.287
 14:26:23.853,eb:33:2e:f9:57:b5, 2085-97-100 13:112:223:7618,1.805,-3.994,4.445,94.238,323.853,52.002,112.983,-32.058,-34.816
 14:26:23.853,eb:33:2e:f9:57:b5, 2085-97-180 16:18:218:122,2.605,-4.329,1.929,63.049,293.884,68.054,111.698,-33.69,-31.399
 14:26:23.913,eb:33:2e:f9:57:b5, 2085-97-214 22:129:205:-7641,2.879,-5.304,-2.259,-95.581,231.445,30.945,109.962,-34.986,-28.707
 14:26:23.913,eb:33:2e:f9:57:b5, 2085-97-166 20:47:204:-5152,2.41,-6.819,-3.614,-325.867,115.601,-36.194,105.914,-35.502,-26.142
 14:26:23.913,eb:33:2e:f9:57:b5, 2085-97-109 17:190:205:-2549,2.033,-6.107,-1.494,-464.172,-81.238,-124.207,101.931,-34.612,-26.147
 14:26:23.913,eb:33:2e:f9:57:b5, 2085-97-34 16:15:208:-1109,2.006,-6.398,-1.119,-622.07,-89.844,-169.861,96.877,-32.904,-27.026
 14:26:23.942,eb:33:2e:f9:57:b5, 2085-97-88 15:78:219:2615,1.759,-5.287,0.413,-782.104,-46.875,-213.257,90.225,-30.943,-27.784
 14:26:23.942,eb:33:2e:f9:57:b5, 2085-97-124 12:128:227:4313,1.245,-3.976,1.845,-909.302,13.245,-255.676,81.81,-28.537,-28.218
 14:26:23.942,eb:33:2e:f9:57:b5, 2085-97-242 01:221:228:4317,0.548,-3.444,2.27,-1011.841,18.921,-267.212,72.455,-25.884,-28.795
 14:26:23.942,eb:33:2e:f9:57:b5, 2085-97-31 08:15:247:14741,0.11,-2.455,4.977,-1021.851,-6.287,-274.353,62.666,-23.489,-30.157
 14:26:24.332,eb:33:2e:f9:57:b5, 2085-97-02 255:146:252:10717,0.223,-0.227,6.09,-845.886,-199.585,-296.387,54.267,-21.489,-32.437
 14:26:24.332,eb:33:2e:f9:57:b5, 2085-97-199 03:135:248:8384,0.448,-0.884,4.708,-714.111,-336.487,-290.466,48.56,-21.099,-37.15
 14:26:24.332,eb:33:2e:f9:57:b5, 2085-97-117 02:115:249:7978,0.074,-0.813,3.672,-695.923,-326.416,-261.658,43.583,-21.467,-41.885
 14:26:24.332,eb:33:2e:f9:57:b5, 2085-97-140 255:234:247:8727,-0.003,-0.929,4.165,-703.552,-321.838,-223.328,38.381,-22.401,-46.28
 14:26:24.334,eb:33:2e:f9:57:b5, 2085-97-161 00:193:247:8432,0.111,-1.051,4.232,-714.355,-307.8,-168.396,33.036,-23.873,-50.125
 14:26:24.334,eb:33:2e:f9:57:b5, 2085-97-79 00:02:249:8293,-0.063,-0.967,4.034,-733.459,-293.518,-105.652,27.092,-25.829,-53.086
 14:26:24.334,eb:33:2e:f9:57:b5, 2085-97-15 255:243:251:8988,-0.061,-0.742,4.206,-729.614,-307.983,-41.138,20.836,-28.312,-55.239
 14:26:24.334,eb:33:2e:f9:57:b5, 2085-97-59 00:65:02:9154,0.068,-0.146,4.532,-691.956,-321.228,21.118,14.205,-31.311,-56.31
 14:26:24.336,eb:33:2e:f9:57:b5, 2085-97-207 00:07:09:8868,0.091,0.715,4.325,-640.564,-356.995,66.406,7.63,-34.7,-56.459
 14:26:24.336,eb:33:2e:f9:57:b5, 2085-97-40 00:224:14:9822,-0.089,1.514,4.506,-592.163,-420.41,92.468,0.802,-38.639,-55.547
 14:26:24.336,eb:33:2e:f9:57:b5, 2085-97-77 254:201:18:12342,-0.384,2.14,5.311,-545.959,-506.653,111.694,-6.207,-43.215,-53.674
 14:26:24.336,eb:33:2e:f9:57:b5, 2085-97-158 251:181:22:14853,-0.671,2.559,6.698,-521.484,-538.635,146.545,-14.453,-48.153,-49.944
 14:26:24.338,eb:33:2e:f9:57:b5, 2085-97-246 249:165:30:16520,-0.784,3.236,7.734,-506.409,-436.218,195.435,-24.247,-52.169,-44.264
 14:26:24.338,eb:33:2e:f9:57:b5, 2085-97-142 249:145:46:15611,-0.782,4.707,8.039,-438.477,-234.497,217.041,-34.541,-53.839,-37.755
 14:26:24.338,eb:33:2e:f9:57:b5, 2085-97-94 250:76:61:13132,-0.666,6.861,7.047,-299.561,-169.8,162.781,-42.424,-53.987,-32.811
 14:26:24.338,eb:33:2e:f9:57:b5, 2085-97-202 250:62:70:11502,-0.623,8.278,5.901,-168.152,-256.897,46.448,-48.411,-54.624,-28.466
 14:26:24.338,eb:33:2e:f9:57:b5, 2085-97-92 251:128:73:10681,-0.634,9.112,5.496,-91.003,-259.033,-87.769,-52.987,-56.514,-24.598
 14:26:24.338,eb:33:2e:f9:57:b5, 2085-97-186 249:242:68:8395,-1.094,9.007,4.679,-55.115,-87.097,-227.478,-54.415,-58.771,-23.84
 14:26:24.338,eb:33:2e:f9:57:b5, 2085-97-243 244:153:58:7269,-1.531,8.044,3.656,2.747,36.804,-314.575,-51.476,-61.1,-27.449
 14:26:24.339,eb:33:2e:f9:57:b5, 2085-97-245 243:151:43:6241,-1.39,6.462,3.382,106.812,78.064,-332.764,-44.885,-63.116,-34.129
 14:26:24.392,eb:33:2e:f9:57:b5, 2085-97-130 245:42:24:4309,-2.835,4.303,2.614,217.163,66.467,-289.551,-36.194,-64.649,-41.721
 14:26:24.392,eb:33:2e:f9:57:b5, 2085-97-53 229:87:217:17392,-1.657,-0.336,8.611,685.242,523.254,-134.583,-24.966,-65.468,-49.07
 14:26:24.392,eb:33:2e:f9:57:b5, 2085-97-118 241:129:19:5036,1.059,-1.389,2.214,572.876,731.689,424.011,93.873,-44.242,-74.537
 14:26:24.392,eb:33:2e:f9:57:b5, 2085-97-59 22:150:17:12480,3.186,2.543,3.602,249.268,754.578,491.516,88.116,-48.911,-62.556
 14:26:24.421,eb:33:2e:f9:57:b5, 2085-97-139 23:59:48:8111,3.193,3.857,5.394,274.292,645.203,440.308,79.579,-52.74,-49.043
 14:26:24.421,eb:33:2e:f9:57:b5, 2085-97-254 28:95:46:8089,3.451,6.584,3.587,424.255,102.6,177.185,76.212,-54.717,-40.952
 14:26:24.422,eb:33:2e:f9:57:b5, 2085-97-85 24:136:33:10325,2.702,4.941,4.212,523.438,-267.151,-138.306,83.057,-54.976,-43.154
 14:26:24.422,eb:33:2e:f9:57:b5, 2085-97-92 19:231:18:16411,2.125,3.372,6.629,511.841,-397.583,-406.677,94.125,-52.02,-50.07
 14:26:24.511,eb:33:2e:f9:57:b5, 2085-97-61 15:195:01:16182,1.754,1.249,8.397,448.425,-234.375,-561.462,102.453,-46.653,-54.377
 14:26:24.511,eb:33:2e:f9:57:b5, 2085-97-76 13:30:246:12590,1.649,-0.61,6.995,353.882,-34.973,-597.412,106.122,-40.49,-53.987
 14:26:24.511,eb:33:2e:f9:57:b5, 2085-97-72 12:22:239:11227,1.316,-1.745,5.747,246.338,61.035,-553.162,107.49,-34.98,-51.559
 14:26:24.511,eb:33:2e:f9:57:b5, 2085-97-15 09:232:234:10388,0.984,-2.428,5.252,151.489,141.663,-443.787,107.545,-30.311,-48.505
 14:26:24.514,eb:33:2e:f9:57:b5, 2085-97-09 07:173:232:9707,0.818,-2.794,4.884,94.666,209.351,-318.665,106.946,-27.202,-45.165
 14:26:24.514,eb:33:2e:f9:57:b5, 2085-97-03 07:201:230:9855,1.055,-3.027,4.7,67.383,241.272,-192.444,105.947,-25.252,-41.797
 14:26:24.514,eb:33:2e:f9:57:b5, 2085-97-87 10:145:228:10110,1.552,-3.288,4.945,72.998,278.198,-85.144,105.068,-24.615,-38.524
 14:26:24.514,eb:33:2e:f9:57:b5, 2085-97-223 14:125:226:9567,2.165,-3.58,4.808,102.966,307.251,-9.155,104.222,-24.758,-35.09
 14:26:24.541,eb:33:2e:f9:57:b5, 2085-97-226 18:233:225:7998,2.669,-3.736,4.454,136.414,327.759,27.405,103.76,-25.582,-31.575
 14:26:24.541,eb:33:2e:f9:57:b5, 2085-97-147 21:253:221:1137,3.266,-3.84,2.754,109.863,325.134,48.035,103.107,-26.559,-27.867
 14:26:24.541,eb:33:2e:f9:57:b5, 2085-97-180 27:189:207:-7479,3.203,-4.937,-1.623,-28.809,243.103,26.55,101.937,-27.548,-24.714
 14:26:24.541,eb:33:2e:f9:57:b5, 2085-97-05 23:72:205:-6030,2.732,-6.645,-4.151,-290.955,162.842,-27.771,98.712,-27.779,-22.028
 14:26:24.602,eb:33:2e:f9:57:b5, 2085-97-194 19:64:206:-1063,2.133,-6.053,-1.157,-464.111,-57.861,-91.553,94.757,-27.125,-21.879
 14:26:24.602,eb:33:2e:f9:57:b5, 2085-97-151 14:168:207:218,1.748,-6.416,-0.423,-604.187,-66.833,-122.864,89.637,-25.867,-22.582
 14:26:24.602,eb:33:2e:f9:57:b5, 2085-97-89 15:21:221:3830,2.226,-5.226,1.053,-763.489,-29.602,-118.103,83.112,-24.697,-23.313
 14:26:24.602,eb:33:2e:f9:57:b5, 2085-97-200 19:203:231:5739,2.543,-3.623,2.449,-901.123,67.749,-135.62,74.68,-23.329,-23.456
 14:26:24.632,eb:33:2e:f9:57:b5, 2085-97-102 20:237:237:6092,3.074,-2.632,2.959,-987.915,129.333,-195.312,64.951,-21.379,-23.005
 14:26:24.632,eb:33:2e:f9:57:b5, 2085-97-253 21:41:252:10107,1.386,-1.514,3.971,-1041.992,204.407,-275.635,54.778,-18.556,-23.192
 14:26:24.632,eb:33:2e:f9:57:b5, 2085-97-39 10:215:00:10381,1.217,0.297,4.159,-962.83,21.057,-375.305,44.599,-14.656,-23.538
 14:26:24.632,eb:33:2e:f9:57:b5, 2085-97-243 10:163:249:8903,1.313,-0.313,4.831,-790.894,-340.942,-411.255,37.37,-13.645,-28.257
 14:26:24.991,eb:33:2e:f9:57:b5, 2085-97-196 06:13:244:8953,0.401,-1.164,4.17,-733.215,-432.19,-365.906,31.657,-14.892,-34.091
 14:26:24.991,eb:33:2e:f9:57:b5, 2085-97-02 01:190:239:10788,0.098,-1.765,4.854,-706.177,-448.792,-264.343,26.136,-17.32,-39.276
 14:26:24.991,eb:33:2e:f9:57:b5, 2085-97-250 01:60:237:10667,0.418,-2.244,5.373,-689.88,-396.667,-131.592,20.632,-20.517,-43.011
 14:26:24.991,eb:33:2e:f9:57:b5, 2085-97-92 05:202:239:9082,0.872,-2.262,4.743,-716.614,-302.612,-0.549,14.211,-23.544,-44.665
 14:26:24.995,eb:33:2e:f9:57:b5, 2085-97-174 07:23:246:9372,0.881,-1.668,4.377,-744.507,-310.12,85.449,6.855,-26.532,-44.687
 14:26:24.995,eb:33:2e:f9:57:b5, 2085-97-164 06:165:252:10173,0.93,-0.805,4.701,-724.731,-441.589,140.93,-1.373,-30.229,-43.33
 14:26:24.995,eb:33:2e:f9:57:b5, 2085-97-69 07:191:04:12145,0.713,-0.008,5.423,-659.79,-565.491,186.646,-9.97,-35.167,-40.534
 14:26:24.995,eb:33:2e:f9:57:b5, 2085-97-96 03:142:14:14315,0.14,1.274,6.437,-604.858,-609.863,215.82,-19.649,-40.199,-35.585
 14:26:24.995,eb:33:2e:f9:57:b5, 2085-97-254 255:64:20:16463,-0.019,2.203,7.518,-566.406,-564.331,229.675,-30.344,-44.561,-28.9
 14:26:24.995,eb:33:2e:f9:57:b5, 2085-97-12 255:127:27:18317,-0.267,2.925,8.598,-563.66,-406.372,232.178,-41.748,-46.912,-21.396
 14:26:24.995,eb:33:2e:f9:57:b5, 2085-97-27 253:42:38:18917,-0.427,4.046,9.188,-559.631,-239.807,205.444,-52.103,-47.368,-15.397
 14:26:24.995,eb:33:2e:f9:57:b5, 2085-97-233 251:123:50:16914,-0.656,5.572,8.851,-506.165,-120.056,139.221,-60.348,-46.659,-11.689
 14:26:24.997,eb:33:2e:f9:57:b5, 2085-97-22 249:37:60:14650,-1.066,6.928,7.662,-410.339,-147.095,29.968,-66.703,-46.461,-9.388
 14:26:24.997,eb:33:2e:f9:57:b5, 2085-97-84 246:143:70:12994,-1.24,8.177,6.742,-299.316,-166.992,-87.524,-71.944,-47.203,-7.158
 14:26:24.997,eb:33:2e:f9:57:b5, 2085-97-243 245:09:71:10387,-1.465,9.08,5.82,-187.073,-99.06,-208.679,-75.454,-49.048,-5.724
 14:26:24.997,eb:33:2e:f9:57:b5, 2085-97-161 240:83:64:7646,-2.47,8.495,4.279,-106.201,-21.667,-304.565,-76.624,-51.636,-6.048
 14:26:24.999,eb:33:2e:f9:57:b5, 2085-97-95 233:224:54:8163,-3.024,7.504,3.686,-10.986,-18.127,-334.961,-76.344,-54.866,-7.081
 14:26:24.999,eb:33:2e:f9:57:b5, 2085-97-03 240:118:51:11533,-0.512,6.146,4.082,94.116,41.26,-294.495,-74.224,-57.827,-9.031
 14:26:24.999,eb:33:2e:f9:57:b5, 2085-97-146 229:197:50:-20765,1.559,7.734,1.466,786.255,888.794,131.653,-63.023,-58.37,-16.095
 14:26:24.999,eb:33:2e:f9:57:b5, 2085-97-61 212:144:78:15803,-5.112,5.555,3.954,1146.912,-657.288,-322.144,-60.095,-61.595,-9.432
 14:26:25.051,eb:33:2e:f9:57:b5, 2085-97-185 17:86:70:20543,2.818,5.995,10.869,916.26,-758.606,241.516,-55.223,-61.957,-2.681
 14:26:25.051,eb:33:2e:f9:57:b5, 2085-97-190 13:121:26:10873,1.058,2.883,4.098,350.098,-1.526,-68.665,-58.749,-63.853,6.103
 14:26:25.051,eb:33:2e:f9:57:b5, 2085-97-180 244:222:07:4024,-1.984,1.946,4.309,730.164,-562.012,-280.212,44.434,-41.232,-41.666
 14:26:25.051,eb:33:2e:f9:57:b5, 2085-113-58 00:172:234:-7635,-2.352,-1.388,3.339,348.45,-165.771,-174.133,54.481,-41.968,-48.499
 14:26:25.051,eb:33:2e:f9:57:b5, 2085-97-181 245:31:253:11083,-2.315,-3.129,7.769,354.37,405.823,-52.002,55.898,-40.968,-48.049
 14:26:25.083,eb:33:2e:f9:57:b5, 2085-97-163 06:92:37:11298,2.803,3.58,3.795,251.892,797.363,234.68,52.729,-37.771,-38.496
 14:26:25.083,eb:33:2e:f9:57:b5, 2085-97-142 21:205:34:15118,2.452,4.056,8.922,291.077,556.213,161.865,49.894,-35.178,-30.542
 14:26:25.083,eb:33:2e:f9:57:b5, 2085-97-155 25:178:28:10172,3.442,4.538,5.125,483.521,280.884,-4.7,51.031,-32.646,-25.648
 14:26:25.083,eb:33:2e:f9:57:b5, 2085-97-128 22:12:14:10170,2.32,2.564,5.159,536.621,32.471,-207.703,56.129,-30.954,-25.51
 14:26:25.115,eb:33:2e:f9:57:b5, 2085-97-136 15:113:01:11478,1.528,0.988,5.257,484.558,-132.446,-355.042,62.803,-28.559,-28.059
 14:26:25.115,eb:33:2e:f9:57:b5, 2085-97-225 08:225:244:12167,0.794,-0.626,5.771,356.628,-174.011,-409.851,68.873,-25.703,-31.74
 14:26:25.115,eb:33:2e:f9:57:b5, 2085-97-228 04:238:235:13141,0.557,-2.027,6.193,237.61,-116.333,-383.85,73.295,-22.242,-34.909
 14:26:25.115,eb:33:2e:f9:57:b5, 2085-97-131 04:98:232:12400,0.685,-2.822,6.42,158.386,81.909,-302.673,75.751,-19.017,-36.178
 14:26:25.205,eb:33:2e:f9:57:b5, 2085-97-32 07:153:232:10459,1.121,-2.962,5.544,106.384,276.001,-210.205,76.536,-15.875,-34.799
 14:26:25.205,eb:33:2e:f9:57:b5, 2085-97-199 10:254:232:9290,1.562,-2.895,4.775,84.167,358.765,-141.846,76.652,-13.376,-31.976
 14:26:25.205,eb:33:2e:f9:57:b5, 2085-97-176 13:33:233:8342,1.947,-2.86,4.314,87.952,343.14,-101.013,76.58,-11.135,-28.669
 14:26:25.205,eb:33:2e:f9:57:b5, 2085-97-190 15:237:230:5797,2.051,-2.895,3.742,79.163,302.002,-74.829,76.756,-9.498,-25.774
 14:26:25.205,eb:33:2e:f9:57:b5, 2085-97-34 18:148:224:1900,2.604,-3.45,1.955,7.385,261.414,-46.814,76.591,-8.047,-23.099
 14:26:25.205,eb:33:2e:f9:57:b5, 2085-97-24 22:78:213:-1874,2.664,-4.677,-0.091,-118.774,268.433,-42.297,75.575,-6.971,-20.715
 14:26:25.205,eb:33:2e:f9:57:b5, 2085-97-181 20:02:216:-2212,2.629,-5.458,-1.306,-274.597,195.19,-53.833,73.125,-5.63,-18.479
 14:26:25.205,eb:33:2e:f9:57:b5, 2085-97-217 21:237:219:-278,2.763,-4.568,-0.583,-421.448,111.755,-73.73,69.401,-4.554,-17.43
 14:26:25.292,eb:33:2e:f9:57:b5, 2085-97-36 22:228:221:357,2.858,-4.518,0.096,-525.513,77.332,-98.816,64.528,-3.214,-16.985
 14:26:25.292,eb:33:2e:f9:57:b5, 2085-97-22 24:200:230:1479,3.164,-3.757,0.381,-636.719,41.748,-125.183,58.711,-1.956,-17.095
 14:26:25.292,eb:33:2e:f9:57:b5, 2085-97-55 26:103:239:2502,3.332,-2.566,1.031,-760.498,55.237,-153.87,51.696,-0.396,-17.6
 14:26:25.292,eb:33:2e:f9:57:b5, 2085-97-244 24:113:243:2933,2.861,-1.733,1.433,-848.816,68.054,-192.81,43.621,1.296,-18.408
 14:26:25.294,eb:33:2e:f9:57:b5, 2085-97-122 20:199:250:5007,2.54,-1.39,1.845,-880.188,71.716,-216.98,34.953,3.203,-19.753
 14:26:25.294,eb:33:2e:f9:57:b5, 2085-97-11 18:196:00:5909,1.856,-0.009,2.924,-821.35,-70.801,-250.671,26.411,4.493,-21.758
 14:26:25.294,eb:33:2e:f9:57:b5, 2085-97-56 13:47:250:6611,1.413,-0.303,2.901,-706.055,-360.596,-256.47,18.803,3.378,-25.038
 14:26:25.294,eb:33:2e:f9:57:b5, 2085-97-138 08:208:246:7327,0.75,-0.955,3.436,-633.972,-485.84,-199.707,12.327,-0.335,-28.389
 14:26:25.651,eb:33:2e:f9:57:b5, 2085-97-67 04:181:242:8375,0.432,-1.395,3.864,-606.079,-530.701,-99.976,6.372,-5.125,-30.635
 14:26:25.651,eb:33:2e:f9:57:b5, 2085-97-168 03:102:240:8355,0.619,-1.866,4.11,-615.417,-482.483,20.935,0.412,-10.206,-31.234
 14:26:25.651,eb:33:2e:f9:57:b5, 2085-97-87 06:103:241:8695,0.96,-1.936,4.163,-665.71,-379.028,141.907,-6.405,-14.299,-30.031
 14:26:25.651,eb:33:2e:f9:57:b5, 2085-97-78 09:249:245:9143,1.408,-1.627,4.337,-712.891,-283.081,232.849,-14.266,-17.045,-27.361
 14:26:25.654,eb:33:2e:f9:57:b5, 2085-97-55 11:29:03:8772,1.276,-0.593,4.635,-728.027,-224.609,273.376,-22.863,-18.419,-23.824
 14:26:25.654,eb:33:2e:f9:57:b5, 2085-97-138 10:60:15:8776,1.248,1.205,4.034,-698.181,-301.88,246.643,-31.492,-19.276,-20.05
 14:26:25.654,eb:33:2e:f9:57:b5, 2085-97-186 07:91:21:9428,0.725,2.423,4.478,-656.86,-445.374,170.593,-40.023,-20.995,-15.705
 14:26:25.654,eb:33:2e:f9:57:b5, 2085-97-200 03:45:22:12621,0.053,2.691,5.204,-632.507,-527.222,113.037,-48.686,-23.549,-10.673
 14:26:25.658,eb:33:2e:f9:57:b5, 2085-97-119 252:183:28:17003,-0.857,3.077,7.221,-615.479,-483.948,97.961,-57.469,-25.56,-5.334
 14:26:25.658,eb:33:2e:f9:57:b5, 2085-97-28 247:75:40:19233,-1.16,4.257,9.144,-567.505,-349.487,93.262,-65.819,-26.647,-0.538
 14:26:25.658,eb:33:2e:f9:57:b5, 2085-97-41 247:18:53:18274,-1.156,5.827,9.227,-488.953,-168.762,61.34,-72.521,-26.62,2.39
 14:26:25.658,eb:33:2e:f9:57:b5, 2085-97-185 245:210:68:15765,-1.437,7.558,8.388,-384.216,-77.026,-21.24,-77.492,-26.675,3.593
 14:26:25.742,eb:33:2e:f9:57:b5, 2085-97-206 243:173:80:13343,-1.653,9.567,7.062,-263.489,-107.056,-156.982,-80.958,-27.631,4.334
 14:26:25.742,eb:33:2e:f9:57:b5, 2085-97-82 241:54:74:10689,-2.197,9.942,5.833,-166.504,-85.938,-289.917,-83.507,-30.07,5.18
 14:26:25.742,eb:33:2e:f9:57:b5, 2085-97-216 235:252:61:8701,-2.795,8.558,4.713,-88.867,9.766,-351.868,-84.606,-33.316,5.092
 14:26:25.742,eb:33:2e:f9:57:b5, 2085-97-165 232:130:46:7388,-2.881,6.803,3.8,18.005,90.759,-319.702,-84.227,-36.672,3.944
 14:26:25.863,eb:33:2e:f9:57:b5, 2085-97-237 234:113:30:5495,-2.413,4.847,3.314,139.587,151.978,-216.37,-81.771,-39.128,1.637
 14:26:25.863,eb:33:2e:f9:57:b5, 2085-97-98 228:240:36:9096,-4.734,2.243,2.126,521.362,-41.321,-144.165,-77.849,-40.496,-0.5
 14:26:25.863,eb:33:2e:f9:57:b5, 2085-97-89 234:169:54:-8351,-2.5,5.068,-7.125,884.827,-729.37,167.603,-72.466,-39.897,2.67
 14:26:25.863,eb:33:2e:f9:57:b5, 2085-97-238 19:135:95:15075,4.542,5.58,11.199,1075.623,-628.906,195.74,-71.213,-41.896,17.254
 14:26:26.252,eb:33:2e:f9:57:b5, 2085-97-222 53:17:22:15291,-1.097,4.821,3.93,492.004,-448.12,-303.65,-69.543,-44.456,23.758
 14:26:26.252,eb:33:2e:f9:57:b5, 2085-97-237 232:63:00:7346,-2.774,1.796,4.688,732.666,-636.169,-282.288,27.806,-31.36,-24.719
 14:26:26.252,eb:33:2e:f9:57:b5, 2085-97-175 236:68:221:17692,-1.162,-2.389,4.887,474.426,-7.935,-103.21,36.112,-33.64,-29.218
 14:26:26.252,eb:33:2e:f9:57:b5, 2085-97-231 247:251:12:3391,1.224,-1.317,2.979,408.875,890.747,339.6,37.48,-29.883,-23.857
 14:26:26.283,eb:33:2e:f9:57:b5, 2085-97-213 22:30:25:11749,2.798,1.79,3.868,257.507,635.559,369.995,35.733,-25.686,-15.062
 14:26:26.283,eb:33:2e:f9:57:b5, 2085-97-240 17:99:47:6946,3.093,5.282,4.432,306.641,570.801,260.193,35.2,-22.341,-8.097
 14:26:26.283,eb:33:2e:f9:57:b5, 2085-97-61 26:214:31:9452,2.733,4.918,4.51,432.556,24.536,-20.691,37.914,-21,-5.663
 14:26:26.283,eb:33:2e:f9:57:b5, 2085-97-188 20:216:20:10503,2.363,3.348,4.168,466.614,-151.367,-265.991,43.226,-20.369,-7.405
 14:26:26.342,eb:33:2e:f9:57:b5, 2085-97-189 16:50:08:12805,1.917,1.797,5.982,401.611,-174.744,-439.575,49.34,-19.072,-11.717
 14:26:26.342,eb:33:2e:f9:57:b5, 2085-97-114 13:196:251:12558,1.36,0.232,6.304,297.058,-82.153,-527.832,54.448,-16.018,-16.21
 14:26:26.342,eb:33:2e:f9:57:b5, 2085-97-220 08:116:242:11758,0.989,-1.181,5.867,193.787,6.714,-523.743,57.909,-11.827,-19.666
 14:26:26.342,eb:33:2e:f9:57:b5, 2085-97-37 07:76:237:11349,0.835,-2.073,5.719,116.577,108.276,-451.843,59.947,-7.383,-21.912
 14:26:26.344,eb:33:2e:f9:57:b5, 2085-97-136 06:221:234:10183,0.812,-2.522,5.258,62.805,242.31,-341.064,61.04,-2.812,-22.324
 14:26:26.344,eb:33:2e:f9:57:b5, 2085-113-81 00:29:109:16018,0.867,-2.729,4.685,34.241,333.618,-222.839,61.403,1.071,-21.143
 14:26:26.344,eb:33:2e:f9:57:b5, 2085-97-65 08:02:233:9003,1.276,-2.802,4.481,33.569,348.267,-170.959,61.529,2.752,-20.127
 14:26:26.344,eb:33:2e:f9:57:b5, 2085-97-169 12:01:232:8965,1.878,-2.935,4.337,52.979,346.497,-87.28,62.106,5.779,-17.65
 14:26:26.347,eb:33:2e:f9:57:b5, 2085-97-126 17:17:232:7774,2.359,-3.015,4.285,86.609,340.698,-36.499,62.974,7.927,-14.963
 14:26:26.347,eb:33:2e:f9:57:b5, 2085-97-125 15:132:241:3454,2.112,-3.066,2.941,69.763,356.079,0.732,64.21,9.926,-11.882
 14:26:26.347,eb:33:2e:f9:57:b5, 2085-97-206 19:242:251:7873,1.935,-1.29,2.764,-811.584,-74.463,-227.6,19.918,20.561,-11.03
 14:26:26.347,eb:33:2e:f9:57:b5, 2085-97-35 11:106:252:6320,1.279,-0.138,3.304,-743.835,-181.152,-231.689,11.497,20.374,-13.651
 14:26:26.349,eb:33:2e:f9:57:b5, 2085-97-56 09:20:247:7696,0.976,-0.918,3.562,-662.109,-415.894,-213.318,3.856,17.271,-16.403
 14:26:26.349,eb:33:2e:f9:57:b5, 2085-97-34 07:179:239:12075,0.856,-1.23,3.934,-635.559,-480.835,-139.709,-2.84,12.816,-18.232
 14:26:26.349,eb:33:2e:f9:57:b5, 2085-97-94 09:16:236:9658,1.702,-2.455,5.411,535.278,522.095,3.113,-38.403,-15.216,6.246
 14:26:26.349,eb:33:2e:f9:57:b5, 2085-97-72 16:223:237:9331,2.509,-2.449,4.523,679.626,482.849,13.916,-31.333,-11.03,3.208
 14:26:26.351,eb:33:2e:f9:57:b5, 2085-97-198 20:66:04:9749,2.693,-1.69,5.024,856.201,436.768,-0.916,-23.115,-7.059,1
 14:26:26.351,eb:33:2e:f9:57:b5, 2085-97-125 19:71:20:9771,1.645,1.811,4.521,1070.618,135.376,-114.563,-13.096,-4.312,-0.599
 14:26:26.351,eb:33:2e:f9:57:b5, 2085-97-202 06:217:28:12257,0.317,3.026,4.767,1127.136,-494.385,-244.629,-1.555,-6.432,-2.411
 14:26:26.351,eb:33:2e:f9:57:b5, 2085-97-211 240:187:12:11666,-3.427,2.597,6.874,950.562,-797.302,-315.918,9.783,-13.557,-5.999
 14:26:26.353,eb:33:2e:f9:57:b5, 2085-97-37 233:67:235:11271,-1.92,-0.2,4.694,653.015,-355.286,-168.64,19.1,-18.792,-10.025
 14:26:26.353,eb:33:2e:f9:57:b5, 2085-97-137 252:45:247:5145,-0.713,-4.104,8.548,553.772,762.756,163.757,24.576,-16.88,-9.322
 14:26:26.353,eb:33:2e:f9:57:b5, 2085-97-94 14:41:16:7953,3.634,1.648,1.856,338.44,909.607,421.021,26.9,-9.69,-1.62
 14:26:26.353,eb:33:2e:f9:57:b5, 2085-97-142 25:211:39:8550,2.465,3.167,6.16,309.143,821.899,425.354,28.471,-4.153,6.169
 14:26:26.432,eb:33:2e:f9:57:b5, 2085-97-85 27:35:45:7388,3.646,5.985,2.657,469.36,319.458,214.844,31.707,-0.258,12.041
 14:26:26.432,eb:33:2e:f9:57:b5, 2085-97-120 23:00:34:7887,2.728,4.87,3.861,608.337,-117.676,-118.225,37.233,-0.198,12.519
 14:26:26.432,eb:33:2e:f9:57:b5, 2085-97-246 18:221:19:13659,1.921,3.385,5.523,604.065,-348.633,-396.484,43.704,-0.555,8.514
 14:26:26.432,eb:33:2e:f9:57:b5, 2085-97-150 12:113:04:14090,1.269,1.56,6.936,516.235,-314.392,-562.927,49.73,0.692,2.697
 14:26:26.434,eb:33:2e:f9:57:b5, 2085-97-57 08:241:245:13643,0.791,-0.43,6.734,379.028,-228.21,-604.675,54.382,3.615,-3.214
 14:26:26.434,eb:33:2e:f9:57:b5, 2085-97-116 04:58:237:13090,0.401,-1.891,6.577,246.155,-74.829,-545.471,57.31,7.465,-7.778
 14:26:26.434,eb:33:2e:f9:57:b5, 2085-97-161 02:228:233:11725,0.307,-2.649,6.131,148.804,130.554,-415.283,59.019,11.662,-10.135
 14:26:26.434,eb:33:2e:f9:57:b5, 2085-97-98 02:38:235:10025,0.258,-2.722,5.25,75.073,304.871,-264.709,60.139,15.727,-9.871
 14:26:26.492,eb:33:2e:f9:57:b5, 2085-97-221 02:65:236:9859,0.596,-2.515,4.705,35.828,360.779,-131.042,61.133,19.105,-7.822
 14:26:26.492,eb:33:2e:f9:57:b5, 2085-97-144 06:120:236:10014,1.044,-2.443,4.96,41.565,359.375,-32.715,62.314,21.517,-4.955
 14:26:26.492,eb:33:2e:f9:57:b5, 2085-97-35 10:23:235:9459,1.511,-2.507,4.785,67.383,352.6,28.687,63.913,23.154,-1.664
 14:26:26.492,eb:33:2e:f9:57:b5, 2085-97-99 14:200:234:8085,1.923,-2.666,4.382,100.098,341.492,55.115,65.967,24.274,1.829
 14:26:26.582,eb:33:2e:f9:57:b5, 2085-97-153 15:120:231:4103,1.941,-2.758,3.02,81.116,337.524,64.453,68.203,25.12,5.411
 14:26:26.582,eb:33:2e:f9:57:b5, 2085-97-121 15:08:218:-2093,1.813,-3.691,0.662,8.362,260.376,40.161,69.835,25.724,8.564
 14:26:26.582,eb:33:2e:f9:57:b5, 2085-97-181 14:204:207:-5063,2.13,-5.701,-2.536,-200.623,196.472,28.625,69.829,26.285,11.08
 14:26:26.582,eb:33:2e:f9:57:b5, 2085-97-183 19:95:216:158,2.703,-5.615,-1.099,-419.983,41.138,4.883,66.962,26.466,12.09
 14:26:26.611,eb:33:2e:f9:57:b5, 2085-97-184 21:30:225:396,2.527,-4.366,0.412,-602.966,114.258,-55.542,61.935,26.993,12.524
 14:26:26.611,eb:33:2e:f9:57:b5, 2085-97-66 20:18:233:242,2.648,-3.362,-0.08,-758.667,136.597,-130.127,55.327,28.597,13.343
 14:26:26.611,eb:33:2e:f9:57:b5, 2085-97-10 22:175:240:2157,2.678,-2.378,0.511,-847.778,62.073,-214.172,47.021,30.542,12.859
 14:26:26.611,eb:33:2e:f9:57:b5, 2085-113-58 00:132:229:-7995,2.627,-1.689,1.349,-901.306,23.804,-293.64,37.304,32.514,10.893
 14:26:26.611,eb:33:2e:f9:57:b5, 2085-97-68 16:176:248:5089,1.716,-1.456,2.07,-929.138,110.474,-309.143,32.102,33.602,9.547
 14:26:26.614,eb:33:2e:f9:57:b5, 2085-97-153 14:37:01:6917,1.722,-0.239,2.857,-892.761,50.293,-355.225,21.863,36.354,6.801
 14:26:26.614,eb:33:2e:f9:57:b5, 2085-97-228 12:75:254:6779,1.484,0.068,3.405,-780.457,-193.42,-365.234,11.162,36.475,2.357
 14:26:26.614,eb:33:2e:f9:57:b5, 2085-97-165 09:174:251:6155,1.002,-0.43,3.244,-687.805,-332.031,-322.632,2.027,34.041,-1.972
 14:26:26.614,eb:33:2e:f9:57:b5, 2085-97-235 06:80:249:6990,0.733,-0.642,3.09,-634.094,-410.278,-243.896,-5.922,30.141,-4.966
 14:26:26.704,eb:33:2e:f9:57:b5, 2085-97-28 05:143:246:7731,0.609,-1.033,3.682,-610.657,-429.321,-128.54,-12.244,25.757,-6.169
 14:26:26.704,eb:33:2e:f9:57:b5, 2085-97-125 05:226:245:7486,0.826,-1.26,3.718,-615.723,-417.664,4.822,-18.133,21.55,-5.526
 14:26:26.704,eb:33:2e:f9:57:b5, 2085-97-229 07:143:247:7682,1.14,-1.203,3.635,-636.169,-400.33,128.052,-23.472,18.16,-3.345
 14:26:26.704,eb:33:2e:f9:57:b5, 2085-97-30 11:44:252:8857,1.75,-0.81,3.976,-650.33,-393.127,216.98,-29.158,15.502,0.093
 14:26:26.852,eb:33:2e:f9:57:b5, 2085-97-102 14:32:05:9001,1.514,0.039,4.701,-641.113,-351.807,262.634,-34.547,13.716,4.153
 14:26:26.852,eb:33:2e:f9:57:b5, 2085-97-109 10:73:15:7201,1.156,1.282,3.7,-607.056,-383.667,254.944,-40.111,12.64,8.394
 14:26:26.853,eb:33:2e:f9:57:b5, 2085-113-81 00:121:116:-12914,1.055,2.414,3.762,-550.903,-556.885,195.801,-44.868,10.745,13.217
 14:26:26.853,eb:33:2e:f9:57:b5, 2085-97-175 07:45:22:9470,0.808,2.69,4.195,-526.428,-633.423,167.175,-47.252,9.344,16.062
 14:26:26.855,eb:33:2e:f9:57:b5, 2085-97-167 03:128:23:11601,0.011,2.789,5.149,-503.052,-661.133,130.554,-51.949,6.246,22.083
 14:26:26.855,eb:33:2e:f9:57:b5, 2085-97-82 253:177:29:14145,-0.539,3.266,6.238,-495.422,-565.186,111.267,-56.854,3.774,27.812
 14:26:26.855,eb:33:2e:f9:57:b5, 2085-97-158 250:238:37:14802,-0.707,4.227,7.346,-473.328,-379.15,83.801,-61.76,2.28,32.333
 14:26:26.855,eb:33:2e:f9:57:b5, 2085-97-59 251:147:45:12930,-0.517,5.18,6.794,-460.815,-185.974,27.527,-66.522,1.659,34.986
 14:26:26.856,eb:33:2e:f9:57:b5, 2085-97-73 252:215:53:11658,-0.467,6.188,5.981,-421.753,-76.172,-68.97,-70.988,1.027,35.914
 14:26:26.856,eb:33:2e:f9:57:b5, 2085-97-238 251:110:62:9418,-0.594,7.292,5.212,-338.745,-54.443,-184.814,-74.8,-0.396,36.123
 14:26:26.856,eb:33:2e:f9:57:b5, 2085-97-31 250:90:63:7963,-0.979,8.054,4.107,-238.403,-119.873,-306.213,-77.651,-3.049,36.343
 14:26:26.856,eb:33:2e:f9:57:b5, 2085-97-146 245:46:55:7483,-1.639,7.482,3.8,-158.936,-134.766,-379.761,-79.695,-6.762,37.101
 14:26:26.971,eb:33:2e:f9:57:b5, 2085-97-183 240:132:45:6510,-2.098,6.282,3.408,-86.853,-39.673,-370.911,-80.953,-10.668,37.343
 14:26:26.971,eb:33:2e:f9:57:b5, 2085-97-179 238:72:36:5289,-2.048,5.11,2.945,3.54,72.327,-289.673,-81.145,-13.925,36.639
 14:26:26.971,eb:33:2e:f9:57:b5, 2085-97-10 241:107:27:3597,1.101,3.954,2.17,124.146,106.201,-169.006,-80.002,-16.007,35.184
 14:26:26.971,eb:33:2e:f9:57:b5, 2085-97-229 213:35:38:2911,-5.04,4.297,5.997,591.553,-98.694,-193.542,-77.069,-17.32,34.563
 14:26:26.973,eb:33:2e:f9:57:b5, 2085-97-169 253:00:60:23703,-1.799,5.782,-1.423,1005.981,-201.416,4.028,-68.659,-16.381,33.014
 14:26:26.973,eb:33:2e:f9:57:b5, 2085-97-121 17:71:27:17408,6.941,7.161,-0.965,450.562,-270.02,-58.655,-60.222,-13.997,31.02
 14:26:26.973,eb:33:2e:f9:57:b5, 2085-97-70 221:51:25:-17277,-3.836,4.824,9.3,346.13,-52.429,-103.271,-56.47,-13.997,30.449
 14:26:26.973,eb:33:2e:f9:57:b5, 2085-97-60 01:172:255:5157,1.551,-1.92,-2.469,69.824,-680.42,-145.874,-55.992,-16.87,31.827
 14:26:27.001,eb:33:2e:f9:57:b5, 2085-97-83 247:83:20:-8364,1.318,-2.872,4.831,81.482,494.934,113.647,-55.443,-17.743,32.437
 14:26:27.001,eb:33:2e:f9:57:b5, 2085-97-201 254:114:10:-2038,0.896,-1.613,4.452,38.33,79.59,16.479,-55.3,-17.43,32.124
 14:26:27.001,eb:33:2e:f9:57:b5, 2085-97-61 252:25:00:245,-0.07,-0.311,2.92,15.869,109.863,-21.912,-54.926,-17.194,31.404
 14:26:27.001,eb:33:2e:f9:57:b5, 2085-97-37 01:143:255:3151,-0.536,-0.165,0.986,14.587,25.024,-23.926,-54.459,-17.106,30.569
 14:26:27.003,eb:33:2e:f9:57:b5, 2085-97-112 249:133:254:507,-0.206,-0.174,0.801,5.981,135.376,6.592,-53.987,-16.518,29.46
 14:26:27.003,eb:33:2e:f9:57:b5, 2085-97-215 01:05:255:3390,0.228,-0.206,1.158,11.23,2.075,26.245,-53.844,-16.21,29.268
 14:26:27.003,eb:33:2e:f9:57:b5, 2085-97-12 253:86:252:4896,-0.682,-0.225,2.216,4.883,172.729,50.537,-53.591,-15.43,28.74
 14:26:27.003,eb:33:2e:f9:57:b5, 2085-97-129 252:135:250:6829,0.014,-0.439,2.48,59.143,158.875,68.42,-52.883,-13.557,27.191
 14:26:27.005,eb:33:2e:f9:57:b5, 2085-97-15 03:32:248:12981,0.177,-0.946,4.859,220.154,13.367,60.73,-51.394,-12.881,27.257
 14:26:27.005,eb:33:2e:f9:57:b5, 2085-97-32 254:255:235:12682,0.131,-1.792,6.632,395.63,89.905,40.344,-48.23,-12.047,26.927
 14:26:27.005,eb:33:2e:f9:57:b5, 2085-97-52 08:181:234:11102,1.692,-2.606,5.753,582.642,132.69,50.537,-43.061,-11.052,26.422
 14:26:27.005,eb:33:2e:f9:57:b5, 2085-97-169 16:130:237:8651,2.169,-2.606,4.747,748.901,179.138,47.058,-36.156,-9.316,25.697
 14:26:27.007,eb:33:2e:f9:57:b5, 2085-97-78 17:23:02:12252,2.056,-1.489,4.659,977.844,129.15,-32.776,-27.307,-8.108,24.84
 14:26:27.007,eb:33:2e:f9:57:b5, 2085-97-248 18:253:13:14634,0.952,2.493,7.234,1263.245,-35.583,-121.033,-15.705,-7.641,23.818
 14:26:27.007,eb:33:2e:f9:57:b5, 2085-97-01 03:11:26:14879,-0.729,3.516,5.927,1314.941,-474.976,-239.685,-2.219,-10.294,22.313
 14:26:27.007,eb:33:2e:f9:57:b5, 2085-97-178 237:24:14:9018,-3.215,2.463,6.35,1137.756,-673.584,-262.695,11.146,-16.458,19.028
 14:26:27.033,eb:33:2e:f9:57:b5, 2085-97-15 234:238:231:8404,-3.243,-0.444,3.413,745.605,-460.388,-132.69,21.989,-21.423,15.167
 14:26:27.033,eb:33:2e:f9:57:b5, 2085-97-65 242:235:15:2218,-1.79,-2.215,6.07,743.835,599.792,102.539,29.037,-20.819,15.293
 14:26:27.033,eb:33:2e:f9:57:b5, 2085-97-204 02:72:17:11304,1.9,4.188,3.424,411.56,542.847,283.447,32.596,-16.804,21.149
 14:26:27.033,eb:33:2e:f9:57:b5, 2085-97-112 19:171:29:10519,2.321,1.798,6.839,386.108,695.618,307.922,34.409,-13.299,27.285
 14:26:27.241,eb:33:2e:f9:57:b5, 2085-97-120 23:146:44:8651,3.323,5.299,3.555,409.851,460.388,170.044,36.782,-9.322,33.223
 14:26:27.242,eb:33:2e:f9:57:b5, 2085-97-220 24:216:36:9847,2.846,5.184,4.813,489.197,74.036,-68.176,40.957,-7.861,34.871
 14:26:27.242,eb:33:2e:f9:57:b5, 2085-97-143 20:229:24:13745,2.257,3.941,5.557,518.921,-187.866,-315.735,46.522,-7.042,32.651
 14:26:27.242,eb:33:2e:f9:57:b5, 2085-97-158 15:15:10:16485,1.673,2.216,7.64,509.583,-222.9,-462.28,52.465,-5.499,28.235
 14:26:27.244,eb:33:2e:f9:57:b5, 2085-97-254 10:173:251:15707,1.082,0.303,8.031,481.75,-153.442,-515.869,58.101,-2.538,23.676
 14:26:27.244,eb:33:2e:f9:57:b5, 2085-97-46 07:191:241:14001,0.778,-1.228,7.22,415.527,-48.096,-475.708,62.875,1.258,20.27
 14:26:27.244,eb:33:2e:f9:57:b5, 2085-97-90 05:247:235:12057,0.599,-2.207,6.399,316.345,114.197,-360.718,66.561,5.147,18.682
 14:26:27.244,eb:33:2e:f9:57:b5, 2085-97-119 04:172:234:10704,0.541,-2.656,5.475,214.05,253.113,-217.59,69.192,8.514,19.374
 14:26:27.246,eb:33:2e:f9:57:b5, 2085-97-205 04:65:235:10800,0.769,-2.617,5.173,142.944,313.354,-93.567,71.153,10.926,21.539
 14:26:27.246,eb:33:2e:f9:57:b5, 2085-97-210 07:240:233:10940,1.141,-2.638,5.366,116.699,316.345,-5.737,72.79,12.365,24.423
 14:26:27.246,eb:33:2e:f9:57:b5, 2085-97-225 10:70:231:10349,1.542,-2.941,5.202,130.798,290.71,40.71,74.471,13.057,27.394
 14:26:27.246,eb:33:2e:f9:57:b5, 2085-97-251 11:161:229:8760,1.481,-3.169,4.772,160.889,276.733,52.795,76.421,13.348,30.223
 14:26:27.632,eb:33:2e:f9:57:b5, 2085-97-166 12:35:221:3985,1.636,-3.622,3.635,164.856,231.995,47.913,78.53,13.425,32.877
 14:26:27.632,eb:33:2e:f9:57:b5, 2085-97-187 14:240:203:-6729,2.079,-5.364,-0.433,48.889,203.369,46.936,80.096,13.414,35.277
 14:26:27.632,eb:33:2e:f9:57:b5, 2085-97-96 19:238:202:-3689,2.552,-7.216,-3.515,-289.49,189.758,36.987,79.135,13.403,37.392
 14:26:27.632,eb:33:2e:f9:57:b5, 2085-97-121 19:23:216:829,2.284,-5.715,0.262,-475.83,45.837,-41.138,75.24,13.623,38.095
 14:26:27.634,eb:33:2e:f9:57:b5, 2085-97-231 18:205:218:-1582,2.542,-4.777,-0.403,-631.836,55.115,-112.976,69.708,14.601,38.436
 14:26:27.634,eb:33:2e:f9:57:b5, 2085-97-214 20:173:224:-072,2.417,-4.336,-0.553,-753.723,-14.832,-195.007,62.562,16.062,37.892
 14:26:27.634,eb:33:2e:f9:57:b5, 2085-97-171 16:72:229:1635,1.744,-3.562,0.456,-827.332,-43.152,-279.785,54.24,17.924,36.2
 14:26:27.634,eb:33:2e:f9:57:b5, 2085-97-117 10:05:229:3193,0.291,-3.25,1.116,-870.605,-102.966,-335.449,45.016,19.775,33.481
 14:26:27.636,eb:33:2e:f9:57:b5, 2085-97-224 255:96:230:5174,0.836,-3.564,1.507,-909.119,-200.928,-312.805,35.046,20.709,29.828
 14:26:27.636,eb:33:2e:f9:57:b5, 2085-97-13 04:202:243:11864,-0.234,-2.428,5.351,-868.164,-241.882,-293.762,24.988,19.841,25.631
 14:26:27.636,eb:33:2e:f9:57:b5, 2085-97-183 253:63:242:10550,-0.147,-1.362,5.174,-749.512,-408.386,-267.029,15.952,17.847,21.846
 14:26:27.636,eb:33:2e:f9:57:b5, 2085-97-12 255:99:241:8666,-0.123,-1.876,4.785,-675.964,-437.561,-195.923,8.284,13.942,18.677
 14:26:27.691,eb:33:2e:f9:57:b5, 2085-97-118 254:243:240:8613,-0.351,-1.806,4.079,-683.838,-410.034,-121.704,1.28,9.827,16.771
 14:26:27.691,eb:33:2e:f9:57:b5, 2085-97-230 252:141:239:9399,-0.299,-1.987,4.34,-718.445,-368.591,-35.156,-5.784,5.955,16.249
 14:26:27.691,eb:33:2e:f9:57:b5, 2085-97-95 254:45:242:9497,-0.044,-1.951,4.807,-739.258,-323.669,50.049,-13.101,2.587,16.93
 14:26:27.691,eb:33:2e:f9:57:b5, 2085-97-169 00:253:247:9367,0.129,-1.426,4.53,-731.689,-327.332,108.093,-20.561,-0.198,18.737
 14:26:27.693,eb:33:2e:f9:57:b5, 2085-97-228 00:17:01:9818,0.107,-0.458,4.69,-719.727,-356.934,122.925,-28.048,-2.78,21.22
 14:26:27.693,eb:33:2e:f9:57:b5, 2085-97-235 00:19:09:10211,0.036,0.683,4.921,-707.214,-400.391,109.07,-35.618,-5.328,24.318
 14:26:27.693,eb:33:2e:f9:57:b5, 2085-97-203 254:16:14:9711,-0.35,1.497,4.877,-686.279,-415.955,84.656,-43.22,-7.822,27.697
 14:26:27.693,eb:33:2e:f9:57:b5, 2085-97-227 251:143:17:10761,-0.613,1.975,4.826,-638.672,-432.617,67.81,-50.702,-10.107,31.459
 14:26:27.697,eb:33:2e:f9:57:b5, 2085-97-37 250:52:22:13553,-0.838,2.471,5.974,-564.941,-416.687,65.369,-57.733,-12.014,35.431
 14:26:27.697,eb:33:2e:f9:57:b5, 2085-97-47 10:236:236:8792,1.6,3.1,7.027,-518.921,-323.853,76.416,-64.166,-13.123,39.183
 14:26:27.697,eb:33:2e:f9:57:b5, 2085-97-224 14:239:234:8976,1.833,-2.327,4.233,754.15,173.157,23.071,-32.657,-16.188,27.367
 14:26:27.697,eb:33:2e:f9:57:b5, 2085-97-45 14:56:247:10365,2.125,-2.542,4.51,932.983,221.985,-16.846,-23.78,-14.502,26.345
 14:26:27.697,eb:33:2e:f9:57:b5, 2085-97-177 19:76:14:11299,1.525,0.472,5.869,1113.403,97.351,-72.693,-13.085,-12.898,25.076
 14:26:27.752,eb:33:2e:f9:57:b5, 2085-113-81 00:172:123:396,1.886,4.059,5.457,1097.473,-466.003,-260.681,-1.324,-14.579,23.741
 14:26:27.752,eb:33:2e:f9:57:b5, 2085-97-162 253:184:10:14120,-1.916,2.575,8.387,997.681,-614.197,-318.298,4.46,-17.529,21.962
 14:26:27.753,eb:33:2e:f9:57:b5, 2085-97-156 233:64:00:5477,-2.391,1.12,3.769,751.282,-532.776,-250.61,14.925,-23.033,17.858
 14:26:27.753,eb:33:2e:f9:57:b5, 2085-97-88 232:75:236:17313,-1.083,-2.629,4.34,438.416,-85.754,-78.003,21.687,-25.955,14.826
 14:26:27.781,eb:33:2e:f9:57:b5, 2085-97-128 246:225:28:8177,1.485,1.153,2.007,397.949,799.194,289.978,24.609,-21.709,18.402
 14:26:27.781,eb:33:2e:f9:57:b5, 2085-97-37 19:51:25:15694,2.658,3.218,6.062,189.636,760.681,252.502,24.697,-15.941,24.28
 14:26:27.781,eb:33:2e:f9:57:b5, 2085-97-253 22:84:42:9952,3.464,4.455,6.164,350.281,676.27,141.968,25.823,-9.816,29.432
 14:26:27.781,eb:33:2e:f9:57:b5, 2085-97-247 28:52:25:9757,3.039,4.382,4.532,512.329,157.715,-103.516,29.899,-6.301,31.185
 14:26:27.784,eb:33:2e:f9:57:b5, 2085-97-96 21:52:12:11025,2.415,2.256,4.702,561.096,-68.726,-311.035,35.667,-4.845,29.449
 14:26:27.784,eb:33:2e:f9:57:b5, 2085-97-241 15:206:254:13107,1.587,0.731,6.19,508.545,-162.354,-446.045,41.655,-3.538,25.334
 14:26:27.784,eb:33:2e:f9:57:b5, 2085-97-132 10:222:240:13279,1.077,-1.069,6.44,404.053,-171.326,-486.45,46.725,-1.533,20.665
 14:26:27.784,eb:33:2e:f9:57:b5, 2085-97-127 07:240:231:12318,0.911,-2.601,6.31,286.316,-54.26,-432.8,50.471,1.082,16.54
 14:26:27.811,eb:33:2e:f9:57:b5, 2085-97-234 07:08:229:10943,1.061,-3.269,5.686,202.942,111.023,-334.595,52.916,4.224,14.392
 14:26:27.811,eb:33:2e:f9:57:b5, 2085-97-14 09:181:229:9388,1.204,-3.351,4.933,143.372,270.447,-226.99,54.624,7.641,14.293
 14:26:27.811,eb:33:2e:f9:57:b5, 2085-97-247 10:45:230:8598,1.585,-3.242,4.301,116.089,323.486,-143.188,56.014,10.898,15.76
 14:26:27.811,eb:33:2e:f9:57:b5, 2085-97-100 14:10:230:8262,1.966,-3.228,4.121,119.751,300.11,-88.135,57.486,13.574,17.666
 14:26:27.841,eb:33:2e:f9:57:b5, 2085-97-51 17:228:228:6787,2.154,-3.284,3.836,124.084,274.353,-54.749,59.101,15.699,19.726
 14:26:27.841,eb:33:2e:f9:57:b5, 2085-97-05 18:57:225:2756,2.547,-3.607,2.388,80.994,276.184,-26.306,60.667,17.474,21.896
 14:26:27.841,eb:33:2e:f9:57:b5, 2085-97-125 23:98:219:-557,3.051,-4.113,0.372,-25.146,253.54,-18.616,61.49,18.918,24.104
 14:26:27.841,eb:33:2e:f9:57:b5, 2085-97-195 21:00:214:-2535,2.27,-5.024,-0.786,-170.227,238.708,-44.556,61.029,20.468,26.241
 14:26:27.931,eb:33:2e:f9:57:b5, 2085-97-35 17:150:216:-2151,2.313,-5.102,-1.467,-303.65,41.687,-76.05,58.881,21.72,27.147
 14:26:27.931,eb:33:2e:f9:57:b5, 2085-97-30 20:247:216:-176,2.599,-4.914,-0.368,-460.388,-42.542,-89.905,54.761,22.258,26.356
 14:26:27.931,eb:33:2e:f9:57:b5, 2085-97-128 19:139:220:259,2.292,-4.773,-0.041,-582.642,4.822,-116.699,49.213,22.972,25.554
 14:26:27.931,eb:33:2e:f9:57:b5, 2085-97-189 17:162:231:2155,2.174,-3.808,0.616,-702.393,-34.119,-148.682,42.374,23.802,24.335
 14:26:27.933,eb:33:2e:f9:57:b5, 2085-97-179 16:198:239:3115,1.929,-2.388,1.318,-827.759,-31.067,-167.358,34.107,24.478,22.764
 14:26:27.933,eb:33:2e:f9:57:b5, 2085-97-255 14:158:242:5453,2.063,-1.958,1.861,-906.372,-28.076,-186.401,24.703,25.06,20.858
 14:26:27.933,eb:33:2e:f9:57:b5, 2085-97-91 14:218:00:9404,0.963,-0.784,4.238,-902.039,31.677,-220.947,14.826,25.67,18.781
 14:26:27.933,eb:33:2e:f9:57:b5, 2085-97-204 06:28:255:8266,1.093,0.296,3.936,-784.241,-242.737,-274.109,5.372,25.318,15.98
 14:26:28.264,eb:33:2e:f9:57:b5, 2085-97-13 09:222:251:7633,0.977,-0.468,3.978,-691.223,-400.452,-259.888,-2.851,21.72,13.09
 14:26:28.264,eb:33:2e:f9:57:b5, 2085-97-173 05:165:250:8094,0.485,-0.566,3.727,-678.955,-396.79,-218.994,-10.173,17.446,11.118
 14:26:28.264,eb:33:2e:f9:57:b5, 2085-97-223 02:254:248:8798,0.318,-0.786,4.154,-675.781,-398.926,-167.419,-17.117,13.134,10.256
 14:26:28.264,eb:33:2e:f9:57:b5, 2085-97-138 02:96:247:9124,0.298,-0.98,4.382,-681.03,-405.701,-93.75,-23.857,8.91,10.459
 14:26:28.267,eb:33:2e:f9:57:b5, 2085-97-135 02:08:248:9555,0.373,-1.096,4.512,-691.406,-392.7,-3.906,-30.652,5.208,11.959
 14:26:28.267,eb:33:2e:f9:57:b5, 2085-97-186 03:196:252:10121,0.569,-0.755,4.856,-696.35,-369.141,82.397,-37.612,2.357,14.425
 14:26:28.267,eb:33:2e:f9:57:b5, 2085-97-253 04:61:03:9654,0.642,-0.01,4.853,-688.721,-352.295,145.996,-44.698,0.533,17.715
 14:26:28.267,eb:33:2e:f9:57:b5, 2085-97-155 04:146:11:10176,0.392,0.86,4.725,-651.245,-390.686,173.523,-51.674,-0.61,21.478
 14:26:28.294,eb:33:2e:f9:57:b5, 2085-97-54 01:181:20:11744,-0.082,2.083,5.32,-584.9,-494.019,162.781,-58.26,-1.637,26.12
 14:26:28.294,eb:33:2e:f9:57:b5, 2085-97-57 254:64:23:14036,-0.395,2.848,6.222,-523.254,-598.877,140.198,-64.369,-2.878,31.8
 14:26:28.294,eb:33:2e:f9:57:b5, 2085-97-219 250:39:25:15745,-0.926,2.969,7.335,-500.061,-550.781,145.02,-70.219,-3.713,37.798
 14:26:28.294,eb:33:2e:f9:57:b5, 2085-97-29 246:249:32:17155,-1.504,3.515,8.102,-484.009,-425.903,163.94,-75.844,-3.549,42.951
 14:26:28.352,eb:33:2e:f9:57:b5, 2085-97-141 242:206:46:15752,-1.733,4.936,8.232,-420.654,-250.977,160.4,-80.832,-2.532,46.533
 14:26:28.352,eb:33:2e:f9:57:b5, 2085-97-03 243:172:60:13263,-1.376,6.742,7.027,-323.853,-125.122,97.168,-84.71,-1.417,48.433
 14:26:28.352,eb:33:2e:f9:57:b5, 2085-97-142 247:26:71:10830,-0.775,8.355,5.966,-238.525,-27.1,-22.888,-87.528,-1.104,49.186
 14:26:28.352,eb:33:2e:f9:57:b5, 2085-97-180 250:151:70:7387,-0.824,9.035,4.43,-174.927,58.533,-171.57,-89.528,-2.148,48.939
 14:26:28.354,eb:33:2e:f9:57:b5, 2085-97-61 246:03:64:5851,1.482,8.483,3.077,-102.051,62.927,-294.128,-90.818,-4.598,48.307
 14:26:28.354,eb:33:2e:f9:57:b5, 2085-97-85 10:03:237:11983,1.197,-1.818,6.318,462.219,340.576,-49.744,-46.368,-10.168,43.654
 14:26:28.354,eb:33:2e:f9:57:b5, 2085-97-243 11:92:235:7947,1.429,-2.487,4.609,616.638,472.473,-27.832,-40.117,-7.147,40.133
 14:26:28.354,eb:33:2e:f9:57:b5, 2085-97-108 09:17:235:8335,0.979,-2.688,3.701,757.69,416.687,-17.151,-32.629,-3.763,37.079
 14:26:28.356,eb:33:2e:f9:57:b5, 2085-97-82 06:22:246:9154,0.783,-2.055,4.345,871.826,383.667,-23.682,-24.17,-0.352,34.926
 14:26:28.356,eb:33:2e:f9:57:b5, 2085-97-95 04:196:12:8888,0.473,0.2,4.256,920.898,104.675,-52.429,-15.024,1.956,33.525
 14:26:28.356,eb:33:2e:f9:57:b5, 2085-97-89 03:226:10:10025,-0.589,2.841,5.06,880.188,-309.143,-156.128,-5.872,0.33,32.816
 14:26:28.356,eb:33:2e:f9:57:b5, 2085-97-63 242:186:254:6688,-1.617,0.499,3.925,668.152,-385.132,-156.616,2.038,-3.554,31.163
 14:26:28.412,eb:33:2e:f9:57:b5, 2085-97-107 243:218:227:9306,-0.49,-1.943,3.22,345.154,-117.615,-67.932,7.202,-6.273,29.789
 14:26:28.412,eb:33:2e:f9:57:b5, 2085-97-77 251:103:02:3569,-0.69,-3.001,7.028,328.796,664.124,210.938,10.135,-3.609,30.723
 14:26:28.412,eb:33:2e:f9:57:b5, 2085-97-134 10:158:09:8178,2.668,1.728,0.985,163.208,592.285,297.241,12.349,3.472,35.118
 14:26:28.412,eb:33:2e:f9:57:b5, 2085-97-57 20:70:29:9053,2.109,2.002,5.997,221.13,485.046,243.164,14.249,7.267,38.661
 14:26:28.414,eb:33:2e:f9:57:b5, 2085-97-246 18:109:28:6520,2.499,4.461,3.07,307.434,247.009,53.162,17.166,11.168,41.276
 14:26:28.414,eb:33:2e:f9:57:b5, 2085-97-62 17:206:12:6393,1.926,2.379,3.502,379.944,-28.748,-157.837,20.616,11.783,40.737
 14:26:28.414,eb:33:2e:f9:57:b5, 2085-97-209 13:91:03:7252,1.507,1.012,3.214,368.225,-183.289,-323.425,24.06,11.596,37.919
 14:26:28.414,eb:33:2e:f9:57:b5, 2085-97-155 10:05:251:7736,1.129,-0.115,3.691,283.203,-192.383,-423.401,26.757,11.431,33.492
 14:26:28.442,eb:33:2e:f9:57:b5, 2085-97-199 07:50:243:8149,0.804,-1.122,3.844,185.73,-181.946,-462.769,28.405,11.761,28.592
 14:26:28.442,eb:33:2e:f9:57:b5, 2085-97-190 04:208:236:8246,0.46,-2.036,4.06,110.657,-116.516,-442.932,29.169,12.513,23.687
 14:26:28.443,eb:33:2e:f9:57:b5, 2085-97-122 03:217:232:8303,0.549,-2.688,4.038,65.002,-23.254,-376.16,29.377,13.859,19.715
 14:26:28.443,eb:33:2e:f9:57:b5, 2085-97-38 06:56:231:7807,1.033,-3.024,4.005,31.677,106.567,-283.936,29.355,15.787,16.902
 14:26:28.502,eb:33:2e:f9:57:b5, 2085-97-241 09:243:229:6342,1.492,-3.165,3.405,-9.888,255.249,-177.795,29.207,18.528,15.765
 14:26:28.502,eb:33:2e:f9:57:b5, 2085-113-58 00:89:227:-7275,1.683,-3.412,2.906,-48.462,342.529,-94.421,28.993,21.835,15.952
 14:26:28.502,eb:33:2e:f9:57:b5, 2085-97-222 13:148:223:3881,1.727,-3.668,2.576,-66.895,362.854,-56.396,28.867,23.582,16.501
 14:26:28.503,eb:33:2e:f9:57:b5, 2085-97-38 14:177:218:-257,1.979,-4.436,0.936,-112.732,307.739,11.536,28.526,26.686,18.023
 14:26:28.893,eb:33:2e:f9:57:b5, 2085-97-141 18:146:221:-1314,2.689,-4.612,-0.772,-228.149,211.731,64.636,27.521,28.746,19.605
 14:26:28.893,eb:33:2e:f9:57:b5, 2085-97-123 23:36:227:940,2.977,-3.895,-0.041,-367.676,151.55,75.684,25.115,30.004,21.187
 14:26:28.893,eb:33:2e:f9:57:b5, 2085-97-05 23:54:230:1164,2.885,-3.442,0.61,-458.923,107.849,53.284,21.467,30.987,22.335
 14:26:28.893,eb:33:2e:f9:57:b5, 2085-97-181 23:170:236:1297,3.055,-2.863,0.619,-538.513,38.696,23.804,16.738,31.465,22.945
 14:26:28.896,eb:33:2e:f9:57:b5, 2085-97-223 24:122:242:1554,3.077,-2.007,0.66,-628.906,19.653,-8.728,10.931,31.718,23
 14:26:28.896,eb:33:2e:f9:57:b5, 2085-97-16 24:63:245:2024,2.892,-1.462,0.843,-686.829,-11.108,-55.298,4.109,31.822,22.643
 14:26:28.896,eb:33:2e:f9:57:b5, 2085-97-62 21:132:245:3108,2.425,-1.302,1.239,-693.542,-107.605,-105.408,-3.235,31.19,21.616
 14:26:28.896,eb:33:2e:f9:57:b5, 2085-97-36 18:54:247:4914,2.121,-1.289,1.905,-681.763,-228.882,-129.272,-10.574,29.262,20.566
 14:26:29.044,eb:33:2e:f9:57:b5, 2085-97-51 14:169:249:6239,1.456,-0.842,2.968,-680.115,-249.634,-120.056,-17.617,26.516,19.841
 14:26:29.044,eb:33:2e:f9:57:b5, 2085-97-168 10:236:244:6904,1.223,-1.068,3.126,-658.997,-351.135,-83.74,-24.263,23.384,20.039
 14:26:29.044,eb:33:2e:f9:57:b5, 2085-97-05 09:180:243:6925,1.065,-1.514,3.421,-632.935,-383.484,-13.672,-30.256,19.847,21.374
 14:26:29.044,eb:33:2e:f9:57:b5, 2085-97-19 08:130:244:7421,1.021,-1.511,3.466,-632.446,-375.977,70.557,-35.947,16.886,23.868
 14:26:29.044,eb:33:2e:f9:57:b5, 2085-97-111 08:204:247:8718,0.954,-1.287,3.92,-646.667,-379.089,147.583,-41.666,14.727,27.109
 14:26:29.044,eb:33:2e:f9:57:b5, 2085-97-191 06:55:255:9275,0.854,-0.625,4.396,-664.795,-356.812,211.853,-47.543,13.491,31.091
 14:26:29.044,eb:33:2e:f9:57:b5, 2085-97-228 05:91:13:11013,0.505,0.736,4.964,-660.889,-332.581,245.3,-53.52,13.167,35.31
 14:26:29.044,eb:33:2e:f9:57:b5, 2085-97-90 02:215:26:11363,0.156,2.62,5.549,-631.348,-312.866,212.952,-59.348,13.447,39.282
 14:26:29.046,eb:33:2e:f9:57:b5, 2085-97-185 00:174:33:11817,-0.1,3.813,5.545,-595.398,-297.119,139.465,-64.863,13.612,42.863
 14:26:29.046,eb:33:2e:f9:57:b5, 2085-97-25 10:79:240:5917,1.209,4.794,6.062,-560.181,-252.93,64.453,-70.159,13.552,45.764
 14:26:29.046,eb:33:2e:f9:57:b5, 2085-97-222 07:132:239:6858,0.769,-2.154,3.247,714.05,319.214,-46.204,-36.167,13.304,47.499
 14:26:29.046,eb:33:2e:f9:57:b5, 2085-97-17 03:191:251:8256,-0.055,-1.594,3.509,786.072,351.929,-38.391,-29.004,15.941,45.187
 14:26:29.162,eb:33:2e:f9:57:b5, 2085-97-62 253:67:07:10176,0.025,0.467,4.913,790.405,173.218,-63.11,-21.473,18.171,43.44
 14:26:29.162,eb:33:2e:f9:57:b5, 2085-97-119 01:102:12:9626,-0.126,1.968,4.886,749.268,-112.305,-90.149,-13.925,17.847,42.66
 14:26:29.162,eb:33:2e:f9:57:b5, 2085-97-224 253:82:255:6047,-1.119,1.562,4.057,586.548,-134.094,-123.779,-7.449,16.177,41.869
 14:26:29.162,eb:33:2e:f9:57:b5, 2085-97-101 249:201:243:5006,0.029,-0.585,1.158,329.407,23.621,-114.075,-3.137,15.408,40.809
 14:26:29.220,eb:33:2e:f9:57:b5, 2085-97-74 254:235:14:4920,-0.65,-1.193,6.479,316.345,522.339,59.753,-0.472,17.452,40.232
 14:26:29.220,eb:33:2e:f9:57:b5, 2085-97-117 14:161:23:8981,2.89,3.422,1.088,206.604,488.708,58.044,2.604,24.84,41.391
 14:26:29.220,eb:33:2e:f9:57:b5, 2085-97-128 14:167:26:6598,1.642,2.757,6.222,276.184,389.404,-40.71,4.999,27.642,41.49
 14:26:29.222,eb:33:2e:f9:57:b5, 2085-97-116 19:65:17:7280,2.289,3.184,2.103,315.063,39.673,-215.271,7.542,30.526,40.342
 14:26:29.224,eb:33:2e:f9:57:b5, 2085-97-73 13:132:05:7940,1.417,1.214,4.14,301.27,37.964,-333.74,9.212,30.932,37.013
 14:26:29.224,eb:33:2e:f9:57:b5, 2085-97-244 10:156:237:7798,1.475,0.245,4.231,256.592,-9.46,-391.968,10.124,31.525,32.888
 14:26:29.224,eb:33:2e:f9:57:b5, 2085-97-153 12:50:236:7269,1.687,-2.388,3.67,131.775,298.035,-122.925,11.184,41.523,17.726
 14:26:29.224,eb:33:2e:f9:57:b5, 2085-97-78 14:133:234:6497,1.878,-2.567,3.39,131.714,305.115,-62.073,12.25,44.67,17.314
 14:26:29.671,eb:33:2e:f9:57:b5, 2085-97-00 15:124:230:5429,1.824,-2.874,2.946,118.042,283.386,-5.371,13.793,47.626,17.622
 14:26:29.671,eb:33:2e:f9:57:b5, 2085-97-137 14:223:222:3484,1.834,-3.646,2.262,84.656,197.876,47.668,15.606,49.922,18.748
 14:26:29.671,eb:33:2e:f9:57:b5, 2085-97-157 15:201:218:107,2.156,-4.498,0.783,-1.16,150.574,104.126,17.336,51.317,20.396
 14:26:29.672,eb:33:2e:f9:57:b5, 2085-97-68 19:61:220:698,2.587,-4.615,-0.04,-154.602,131.348,140.686,18.281,52.289,22.808
 14:26:29.676,eb:33:2e:f9:57:b5, 2085-97-02 21:62:224:748,2.607,-4.262,0.587,-280.701,136.414,143.616,18.023,53.113,25.367
 14:26:29.676,eb:33:2e:f9:57:b5, 2085-97-236 20:146:229:-916,2.722,-3.681,-0.055,-390.503,124.512,125,16.578,54.025,27.96
 14:26:29.676,eb:33:2e:f9:57:b5, 2085-97-247 22:246:235:-946,2.965,-2.917,-0.54,-503.906,41.077,74.097,13.414,54.547,29.647
 14:26:29.676,eb:33:2e:f9:57:b5, 2085-97-141 23:172:240:263,2.738,-2.146,-0.236,-596.619,-30.579,4.7,8.306,54.465,30.229
 14:26:29.676,eb:33:2e:f9:57:b5, 2085-97-218 19:140:241:1577,2.286,-1.816,0.443,-662.598,-62.683,-63.11,1.511,54.009,29.537
 14:26:29.676,eb:33:2e:f9:57:b5, 2085-97-132 16:94:241:3431,1.846,-1.834,1.246,-693.909,-136.719,-112.61,-6.295,52.91,28.224
 14:26:29.677,eb:33:2e:f9:57:b5, 2085-97-04 13:79:242:5086,1.496,-1.78,2.073,-716.736,-210.083,-134.46,-14.326,50.905,26.779
 14:26:29.677,eb:33:2e:f9:57:b5, 2085-97-251 10:244:243:7517,1.288,-1.646,3.052,-742.615,-264.587,-130.92,-22.094,48.153,26.142
 14:26:29.704,eb:33:2e:f9:57:b5, 2085-97-109 08:48:247:9595,0.755,-1.265,4.373,-753.662,-255.554,-114.319,-29.504,45.236,26.29
 14:26:29.704,eb:33:2e:f9:57:b5, 2085-97-156 04:231:244:9871,0.479,-1.182,4.726,-728.821,-307.068,-82.397,-36.337,42.435,27.23
 14:26:29.704,eb:33:2e:f9:57:b5, 2085-97-37 03:239:242:9567,0.41,-1.553,4.797,-697.266,-325.989,-13.855,-42.127,39.65,29.405
 14:26:29.704,eb:33:2e:f9:57:b5, 2085-113-58 00:101:230:-2940,0.549,-1.652,4.646,-679.81,-306.885,78.552,-47.269,37.727,32.454
 14:26:29.704,eb:33:2e:f9:57:b5, 2085-97-183 05:218:244:9700,0.875,-1.582,4.708,-673.34,-296.753,124.39,-49.669,37.161,34.239
 14:26:29.704,eb:33:2e:f9:57:b5, 2085-97-82 08:54:250:9909,0.65,-1.105,4.754,-658.63,-304.626,197.632,-54.135,36.711,38.271
 14:26:29.704,eb:33:2e:f9:57:b5, 2085-97-33 03:48:36:14992,0.19,3.834,6.71,-555.847,-411.072,130.249,-70.774,37.842,63.452
 14:26:29.704,eb:33:2e:f9:57:b5, 2085-97-124 00:138:52:16166,0.053,5.399,7.777,-481.323,-359.07,96.069,-73.268,37.809,68.318
 14:26:29.705,eb:33:2e:f9:57:b5, 2085-97-102 00:139:64:14618,-0.091,7.402,7.667,-367.554,-276.306,9.155,-75.322,37.546,72.241
 14:26:29.707,eb:33:2e:f9:57:b5, 2085-97-241 252:19:72:11995,3.038,8.62,6.433,-287.72,-244.08,-115.173,-77.02,36.453,75.004
 14:26:29.707,eb:33:2e:f9:57:b5, 2085-97-170 22:40:29:7053,2.393,4.148,3.204,475.159,-118.835,-45.959,20.682,41.358,63.1
 14:26:29.707,eb:33:2e:f9:57:b5, 2085-97-47 18:168:24:9297,2.146,3.377,3.622,462.708,-250.183,-255.432,23.807,40.248,60.381
 14:26:29.707,eb:33:2e:f9:57:b5, 2085-97-70 16:03:17:12684,1.915,2.67,5.446,382.141,-242.126,-417.603,24.994,39.243,55.168
 14:26:29.732,eb:33:2e:f9:57:b5, 2085-97-245 13:177:06:13605,1.583,1.475,6.622,300.171,-109.558,-514.404,24.758,39.545,48.961
 14:26:29.732,eb:33:2e:f9:57:b5, 2085-97-144 11:62:254:12350,1.318,0.272,6.399,245.789,31.982,-543.335,23.752,41.38,42.561
 14:26:29.732,eb:33:2e:f9:57:b5, 2085-97-220 09:153:247:11124,1.144,-0.665,5.675,202.271,139.893,-515.32,22.291,44.242,36.689
 14:26:29.732,eb:33:2e:f9:57:b5, 2085-97-184 08:65:243:9953,1.064,-1.354,5.16,166.748,232.727,-442.993,20.693,47.686,31.415
 14:26:29.912,eb:33:2e:f9:57:b5, 2085-97-247 07:234:239:8887,0.884,-1.806,4.585,134.827,288.147,-340.82,19.33,51.482,27.405
 14:26:29.912,eb:33:2e:f9:57:b5, 2085-113-81 00:77:113:1366,0.895,-2.202,4.179,106.873,299.072,-227.234,18.484,55.157,24.593
 14:26:29.912,eb:33:2e:f9:57:b5, 2085-97-61 08:137:235:8871,1.163,-2.394,4.227,101.44,302.551,-172.913,18.386,56.876,23.807
 14:26:29.912,eb:33:2e:f9:57:b5, 2085-97-150 10:233:233:8483,1.526,-2.67,4.261,105.164,327.454,-74.89,19.193,60.266,23.544
 14:26:29.942,eb:33:2e:f9:57:b5, 2085-97-70 14:234:231:8351,2.036,-2.878,4.066,124.695,316.956,-4.028,21.539,63.424,24.824
 14:26:29.942,eb:33:2e:f9:57:b5, 2085-97-188 17:238:229:7356,2.283,-3.132,4.058,150.94,317.749,37.109,25.389,66.237,27.625
 14:26:29.942,eb:33:2e:f9:57:b5, 2085-97-22 16:247:220:1038,1.815,-3.652,2.467,135.925,331.482,67.627,30.8,68.89,31.86
 14:26:29.942,eb:33:2e:f9:57:b5, 2085-97-249 16:32:208:-6144,2.481,-5.111,-2.191,-4.578,242.493,103.638,36.782,70.829,37.617
 14:26:29.942,eb:33:2e:f9:57:b5, 2085-97-246 22:46:215:-1906,3.05,-5.786,-2.571,-255.676,207.52,112.915,41.342,72.131,44.05
 14:26:29.943,eb:33:2e:f9:57:b5, 2085-97-241 22:220:221:171,2.647,-4.526,0.282,-393.188,158.386,55.176,41.99,72.719,48.362
 14:26:29.943,eb:33:2e:f9:57:b5, 2085-97-224 20:131:225:-1634,2.745,-4.174,-0.513,-509.155,136.841,-3.723,40.49,73.768,51.504
 14:26:29.943,eb:33:2e:f9:57:b5, 2085-97-116 23:208:231:-696,2.929,-3.381,-0.716,-630.981,78.979,-69.397,35.623,74.85,52.504
 14:26:29.947,eb:33:2e:f9:57:b5, 2085-97-249 21:54:235:418,2.511,-2.769,-0.013,-716.125,67.993,-139.221,27.081,75.987,50.521
 14:26:29.947,eb:33:2e:f9:57:b5, 2085-97-100 18:29:237:1653,2.104,-2.476,0.446,-783.386,22.217,-193.97,14.963,77.009,45.725
 14:26:29.947,eb:33:2e:f9:57:b5, 2085-97-46 15:124:238:3728,1.866,-2.265,1.269,-833.679,-58.533,-222.29,-0.082,77.009,38.315
 14:26:29.947,eb:33:2e:f9:57:b5, 2085-97-122 16:14:248:8859,1.769,-1.878,2.697,-870.361,-90.332,-228.333,-15.216,75.784,31.41
 14:26:29.949,eb:33:2e:f9:57:b5, 2085-97-79 08:243:255:9135,0.885,-0.133,4.835,-857.483,-13.062,-244.324,-30.185,74.713,24.818
 14:26:29.949,eb:33:2e:f9:57:b5, 2085-97-11 08:97:251:10043,1.007,-0.371,4.793,-747.925,-312.988,-252.197,-40.32,71.598,22.505
 14:26:29.949,eb:33:2e:f9:57:b5, 2085-97-129 07:154:251:9049,0.861,-0.586,4.565,-700.012,-322.815,-191.956,-45.956,67.714,24.186
 14:26:29.949,eb:33:2e:f9:57:b5, 2085-97-10 06:117:251:8960,0.809,-0.556,4.429,-686.951,-264.832,-109.07,-50.477,64.671,26.906
 14:26:30.392,eb:33:2e:f9:57:b5, 2085-97-231 07:62:252:8865,1.171,-0.556,4.402,-666.992,-231.018,-26.794,-54.553,62.732,30.026
 14:26:30.392,eb:33:2e:f9:57:b5, 2085-97-07 11:46:254:7878,1.596,-0.341,4.053,-652.954,-244.446,44.067,-57.87,61.595,33.865
 14:26:30.392,eb:33:2e:f9:57:b5, 2085-97-83 14:195:01:8600,1.916,-0.066,3.905,-661.194,-285.095,99.06,-60.222,60.925,38.875
 14:26:30.392,eb:33:2e:f9:57:b5, 2085-97-43 16:146:09:9725,2.113,0.651,4.499,-667.114,-287.781,133.423,-62.15,60.656,44.533
 14:26:30.394,eb:33:2e:f9:57:b5, 2085-97-87 16:56:18:9454,1.844,1.765,4.875,-637.939,-306.274,134.827,-63.726,60.617,50.647
 14:26:30.394,eb:33:2e:f9:57:b5, 2085-97-187 13:115:23:8428,1.569,2.657,4.183,-570.801,-423.95,110.046,-64.078,60.238,57.469
 14:26:30.394,eb:33:2e:f9:57:b5, 2085-97-114 10:226:26:9932,0.954,3.169,4.382,-502.136,-592.102,90.881,-61.941,58.898,66.643
 14:26:30.394,eb:33:2e:f9:57:b5, 2085-97-177 04:117:29:12667,0.121,3.515,5.47,-454.59,-723.938,96.436,-58.085,56.481,77.322
 14:26:30.482,eb:33:2e:f9:57:b5, 2085-97-94 254:142:36:15430,-0.494,4.034,6.944,-418.274,-728.149,126.099,-54.003,53.41,88.308
 14:26:30.482,eb:33:2e:f9:57:b5, 2085-97-200 249:176:51:15589,-0.988,5.405,7.878,-372.986,-580.322,131.531,-51.191,50.587,97.427
 14:26:30.483,eb:33:2e:f9:57:b5, 2085-97-18 247:70:66:12580,-1.153,7.518,6.901,-289.917,-387.878,70.374,-50.048,48.505,103.766
 14:26:30.483,eb:33:2e:f9:57:b5, 2085-97-108 246:41:68:10610,-1.424,8.593,5.589,-202.148,-321.777,-65.857,-49.905,46.34,107.463
 14:26:30.486,eb:33:2e:f9:57:b5, 2085-97-55 242:129:62:9365,-1.897,8.247,4.836,-145.935,-272.705,-213.562,-50.361,43.33,109.429
 14:26:30.486,eb:33:2e:f9:57:b5, 2085-97-31 240:168:53:8381,-2.076,7.267,4.407,-132.385,-178.772,-309.57,-51.603,39.776,109.611
 14:26:30.486,eb:33:2e:f9:57:b5, 2085-97-134 238:123:46:6798,-2.268,6.2,3.668,-128.906,-9.949,-338.562,-53.745,36.584,108.254
 14:26:30.486,eb:33:2e:f9:57:b5, 2085-97-179 237:48:40:6119,-2.232,5.473,3.125,-73.12,117.798,-315.735,-56.239,34.222,105.447
 14:26:30.486,eb:33:2e:f9:57:b5, 2085-97-231 238:123:29:4855,-2.041,4.398,2.757,45.532,152.222,-254.333,-57.865,32.552,102.48
 14:26:30.486,eb:33:2e:f9:57:b5, 2085-97-102 240:18:19:3438,-1.897,2.992,1.983,173.218,98.511,-161.621,-57.843,31.454,100.036
 14:26:30.486,eb:33:2e:f9:57:b5, 2085-97-124 01:112:17:18401,-6.067,1.849,1.471,287.598,12.878,-58.655,-55.959,30.839,99.075
 14:26:30.488,eb:33:2e:f9:57:b5, 2085-97-203 211:185:42:-2874,1.482,2.626,1.519,775.33,197.937,224.487,-50.394,31.827,97.394
 14:26:30.489,eb:33:2e:f9:57:b5, 2085-97-195 58:181:25:3942,6.81,-0.628,9.323,259.949,380.371,215.637,-42.687,27.9,103.881
 14:26:30.489,eb:33:2e:f9:57:b5, 2085-97-05 20:89:33:10691,1.982,3.418,3.74,14.404,980.896,-13.123,-43.775,34.761,99.388
 14:26:30.489,eb:33:2e:f9:57:b5, 2085-97-246 11:85:26:12600,0.961,3.847,5.437,582.214,-198.975,-166.992,59.222,56.536,95.587
 14:26:30.489,eb:33:2e:f9:57:b5, 2085-113-58 00:119:242:-7245,0.505,2.576,6.61,529.785,-277.222,-314.087,60.249,57.426,89.868
 14:26:30.489,eb:33:2e:f9:57:b5, 2085-97-124 00:194:05:14468,-0.349,1.687,6.909,483.887,-270.447,-352.844,59.952,58.167,86.385
 14:26:30.489,eb:33:2e:f9:57:b5, 2085-97-97 250:141:248:14928,-0.948,-0.169,7.18,383.545,-174.5,-348.389,58.788,60.029,79.728
 14:26:30.489,eb:33:2e:f9:57:b5, 2085-97-237 247:241:238:14644,-0.914,-1.588,7.322,293.64,36.194,-250.916,58.771,62.194,75.553
 14:26:30.489,eb:33:2e:f9:57:b5, 2085-97-100 250:157:233:12271,-0.441,-2.531,6.663,219.543,299.805,-107.3,62.479,64.611,76.921
 14:26:30.489,eb:33:2e:f9:57:b5, 2085-97-32 254:170:229:9426,0.119,-3.027,5.302,154.175,440.43,33.508,70.675,66.489,83.985
 14:26:30.573,eb:33:2e:f9:57:b5, 2085-97-96 04:83:227:7992,0.765,-3.534,4.227,132.263,381.409,123.84,80.288,66.753,93.252
 14:26:30.573,eb:33:2e:f9:57:b5, 2085-97-116 08:106:227:4655,0.908,-3.513,3.252,122.009,340.881,157.593,88.687,65.72,101.124
 14:26:30.573,eb:33:2e:f9:57:b5, 2085-97-69 07:214:215:-4671,1.485,-4.143,0.493,54.321,323.975,151.55,95.554,64.094,107.908
 14:26:30.573,eb:33:2e:f9:57:b5, 2085-97-05 16:90:201:-9088,2.262,-6.309,-4.372,-177.002,258.667,98.022,99.327,62.562,112.736
 14:26:30.576,eb:33:2e:f9:57:b5, 2085-97-140 18:164:209:-1908,2.008,-6.248,-2.763,-413.391,52.368,-29.663,98.569,61.946,115.648
 14:26:30.576,eb:33:2e:f9:57:b5, 2085-97-139 14:238:208:-3753,1.906,-5.738,-1.069,-572.693,153.625,-151.489,95.334,62.836,117.559
 14:26:30.576,eb:33:2e:f9:57:b5, 2085-97-196 15:75:212:-2157,1.892,-5.814,-1.735,-726.746,87.219,-259.216,90.912,64.891,120.059
 14:26:30.576,eb:33:2e:f9:57:b5, 2085-97-27 13:203:218:580,1.412,-5.072,-0.354,-848.45,56.519,-366.211,83.864,68.115,121.108
 14:26:30.579,eb:33:2e:f9:57:b5, 2085-97-105 09:44:222:2492,0.47,-4.379,0.774,-934.265,-22.888,-448.73,73.103,72.197,119.202
 14:26:30.579,eb:33:2e:f9:57:b5, 2085-97-125 249:24:221:2847,-0.152,-4.361,1.499,-1010.01,-45.532,-433.289,56.547,76.042,111.956
 14:26:30.579,eb:33:2e:f9:57:b5, 2085-97-79 06:09:237:13847,-0.236,-3.797,3.828,-998.108,-195.557,-417.847,33.041,77.899,97.943
 14:26:30.579,eb:33:2e:f9:57:b5, 2085-97-247 251:142:242:10872,-0.211,-1.433,5.715,-895.447,-198.608,-382.08,9.382,78.107,83.293
 14:26:30.843,eb:33:2e:f9:57:b5, 2085-97-06 255:28:241:8643,-0.066,-2.019,5.05,-771.79,-258.606,-322.51,-10.036,75.267,71.543
 14:26:30.851,eb:33:2e:f9:57:b5, 2085-97-52 00:15:246:7194,0.093,-1.5,3.643,-724.792,-204.773,-250.732,-22.89,72.328,65.956
 14:26:30.851,eb:33:2e:f9:57:b5, 2085-97-87 02:134:247:6530,0.31,-1.146,3.347,-704.163,-218.689,-185.73,-32.091,69.472,63.71
 14:26:30.851,eb:33:2e:f9:57:b5, 2085-97-62 01:10:251:4231,0.194,-0.921,2.689,-684.937,-237.183,-118.286,-38.705,66.78,64.281
 14:26:31.022,eb:33:2e:f9:57:b5, 2085-97-75 02:168:03:4393,0.155,-0.139,1.968,-644.592,-332.458,-77.026,-43.028,64.023,66.912
 14:26:31.022,eb:33:2e:f9:57:b5, 2085-97-30 255:74:12:4149,-0.268,1.051,2.147,-612.305,-396.912,-61.218,-45.747,60.996,71.252
 14:26:31.022,eb:33:2e:f9:57:b5, 2085-97-216 252:94:18:4572,-0.611,1.916,2.097,-570.374,-477.478,-54.138,-47.444,57.574,76.366
 14:26:31.022,eb:33:2e:f9:57:b5, 2085-97-178 248:18:25:5345,-1.247,2.71,2.333,-525.635,-515.564,-29.663,-48.472,54.031,82.189
 14:26:31.024,eb:33:2e:f9:57:b5, 2085-97-52 243:08:32:9207,-1.902,3.552,3.344,-470.398,-614.441,8.057,-48.642,50.268,88.621
 14:26:31.024,eb:33:2e:f9:57:b5, 2085-97-101 239:152:42:13187,-2.036,4.566,5.674,-408.447,-552.063,64.453,-48.241,46.67,95.587
 14:26:31.024,eb:33:2e:f9:57:b5, 2085-97-165 241:132:58:13424,-1.475,6.25,6.717,-357.056,-270.325,88.013,-48.785,44.626,100.486
 14:26:31.024,eb:33:2e:f9:57:b5, 2085-97-152 246:168:73:11031,-0.901,8.386,6.001,-300.049,-7.019,27.527,-50.999,44.445,102.283
 14:26:31.083,eb:33:2e:f9:57:b5, 2085-97-124 250:181:76:8804,-0.771,9.599,4.892,-194.824,20.996,-107.056,-53.828,44.22,101.711
 14:26:31.083,eb:33:2e:f9:57:b5, 2085-97-218 246:86:71:7650,-1.71,9.354,3.85,-77.393,-102.844,-251.16,-55.668,42.424,100.92
 14:26:31.083,eb:33:2e:f9:57:b5, 2085-97-224 237:185:59:9138,-2.741,8.249,4,-8.972,-214.844,-317.139,-56.14,38.99,100.772
 14:26:31.083,eb:33:2e:f9:57:b5, 2085-97-55 231:213:47:8688,-3.313,6.707,4.611,62.561,-111.938,-289.429,-55.959,35.453,100.717
 14:26:31.291,eb:33:2e:f9:57:b5, 2085-97-178 228:10:34:5604,-3.386,5.186,3.56,143.677,23.438,-203.796,-55.519,33.234,99.47
 14:26:31.291,eb:33:2e:f9:57:b5, 2085-97-180 221:124:38:12510,-6.652,3.735,2.796,486.389,-109.253,-159.485,-53.712,32.086,98.465
 14:26:31.291,eb:33:2e:f9:57:b5, 2085-97-240 252:107:64:2846,7.273,7.626,0.438,491.943,-1228.699,101.501,-46.132,30.866,101.514
 14:26:31.291,eb:33:2e:f9:57:b5, 2085-97-128 53:248:34:2777,-0.704,3.155,8.613,148.743,118.53,344.91,-39.463,25.411,111.841
 14:26:31.411,eb:33:2e:f9:57:b5, 2085-97-255 253:189:243:1449,0.69,-1.033,0.646,36.255,214.111,-199.341,-40.122,27.175,109.396
 14:26:31.411,eb:33:2e:f9:57:b5, 2085-97-173 03:163:254:3784,0.042,-0.026,1.752,59.204,256.897,-29.175,-45.088,37.299,93.906
 14:26:31.411,eb:33:2e:f9:57:b5, 2085-97-122 253:252:254:1959,-0.175,-0.251,1.503,75.134,383.667,-10.437,-46.192,39.507,90.692
 14:26:31.411,eb:33:2e:f9:57:b5, 2085-97-31 06:00:01:5780,1.72,0.083,1.192,85.999,193.848,-43.701,-47.137,41.446,87.935
 14:26:31.413,eb:33:2e:f9:57:b5, 2085-97-99 10:28:252:8310,1.956,-0.259,4.482,76.538,372.131,-71.472,-47.741,42.089,85.611
 14:26:31.413,eb:33:2e:f9:57:b5, 2085-97-03 13:144:01:14103,1.256,1.263,6.544,474.548,-325.256,-545.166,44.182,65.951,77.728
 14:26:31.413,eb:33:2e:f9:57:b5, 2085-97-22 07:194:242:14350,0.513,-0.82,7.026,361.511,-285.706,-559.57,36.14,67.094,64.017
 14:26:31.414,eb:33:2e:f9:57:b5, 2085-97-29 02:111:233:13385,0.135,-2.398,6.85,250.549,-116.272,-464.844,28.07,67.945,51.394
 14:26:31.415,eb:33:2e:f9:57:b5, 2085-97-45 01:201:230:11363,0.285,-3.064,6.089,155.029,139.465,-314.148,22.786,69.703,43.358
 14:26:31.415,eb:33:2e:f9:57:b5, 2085-97-181 03:243:231:9770,0.63,-3.11,5.101,76.172,358.948,-155.457,21.154,73.01,40.177
 14:26:31.415,eb:33:2e:f9:57:b5, 2085-97-214 06:38:233:8820,1.155,-2.91,4.511,40.833,443.665,-30.823,23.873,77.212,42.49
 14:26:31.415,eb:33:2e:f9:57:b5, 2085-97-122 11:06:233:8099,1.685,-2.854,4.15,51.575,398.071,45.654,31.915,80.925,50.136
 14:26:31.534,eb:33:2e:f9:57:b5, 2085-97-34 15:28:233:7178,0.277,-2.866,3.751,81.116,314.941,76.599,45.192,83.326,63.001
 14:26:31.534,eb:33:2e:f9:57:b5, 2085-97-137 02:33:00:6337,0.482,-0.42,3.137,-682.434,-237.915,133.911,-42.407,67.571,67.687
 14:26:31.534,eb:33:2e:f9:57:b5, 2085-97-181 04:142:09:7815,0.526,0.585,3.452,-658.936,-314.819,151.001,-43.215,66.577,74.312
 14:26:31.534,eb:33:2e:f9:57:b5, 2085-97-01 03:234:16:7675,0.274,1.731,3.875,-616.516,-382.202,143.372,-42.995,65.132,81.985
 14:26:31.534,eb:33:2e:f9:57:b5, 2085-97-102 01:115:20:8404,-0.515,2.364,3.79,-568.726,-470.886,126.709,-42.012,62.924,89.923
 14:26:31.534,eb:33:2e:f9:57:b5, 2085-97-224 249:227:53:5975,-1.106,7.24,3.195,-42.236,-11.536,-326.904,-52.487,46.044,116.895
 14:26:31.534,eb:33:2e:f9:57:b5, 2085-97-168 244:21:43:4928,-1.701,6.16,2.574,47.668,32.532,-321.35,-54.261,43.522,114.115
 14:26:31.534,eb:33:2e:f9:57:b5, 2085-97-123 240:96:28:4421,-2.079,4.493,2.286,170.776,-6.531,-264.648,-54.498,41.166,112.072
 14:26:31.833,eb:33:2e:f9:57:b5, 2085-97-205 238:219:11:3665,0.229,2.527,2.065,286.316,-50.049,-170.288,-52.828,39.205,110.891
 14:26:31.833,eb:33:2e:f9:57:b5, 2085-97-58 219:43:28:11890,-6.476,3.097,5.258,700.439,-243.652,-249.023,-48.785,37.414,110.94
 14:26:31.833,eb:33:2e:f9:57:b5, 2085-97-46 45:250:65:22323,6.534,6.688,4.832,901.855,-1092.59,-39.734,-39.067,36.628,112.385
 14:26:31.833,eb:33:2e:f9:57:b5, 2085-97-251 59:168:44:13272,-4.869,1.667,9.375,436.707,-15.015,72.449,-33.931,35.607,113.599
 14:26:31.834,eb:33:2e:f9:57:b5, 2085-97-159 219:225:241:-3664,-1.745,2.479,-9.004,118.958,-384.338,-299.194,-29.899,30.465,115.043
 14:26:31.834,eb:33:2e:f9:57:b5, 2085-97-74 254:187:21:838,1.04,-1.398,1.416,146.118,-30.762,-103.271,-28.911,26.713,115.203
 14:26:31.834,eb:33:2e:f9:57:b5, 2085-97-235 02:225:04:1044,1.778,-0.004,1.753,31.982,-185.181,8.24,-28.268,25.845,115.966
 14:26:31.834,eb:33:2e:f9:57:b5, 2085-97-224 253:88:02:464,-0.56,-0.17,3.08,19.47,87.158,-9.46,-28.015,25.637,116.329
 14:26:31.838,eb:33:2e:f9:57:b5, 2085-97-246 02:22:255:3436,0.099,-0.062,0.164,10.376,-49.744,-35.217,-28.229,26.422,115.461
 14:26:31.838,eb:33:2e:f9:57:b5, 2085-97-218 00:56:255:2379,0.07,-0.088,1.168,20.386,80.627,-29.907,-28.284,26.636,115.115
 14:26:31.838,eb:33:2e:f9:57:b5, 2085-97-205 255:133:254:2448,0.192,-0.236,1.302,17.883,130.92,0.183,-28.367,27.46,114.434
 14:26:31.838,eb:33:2e:f9:57:b5, 2085-97-51 03:104:254:5518,-0.231,-0.176,1.9,19.226,159.485,24.841,-28.411,28.674,114.038
 14:26:31.838,eb:33:2e:f9:57:b5, 2085-113-81 00:249:59:-10686,-0.29,-0.725,3.491,66.467,288.696,52.063,-28.499,31.102,113.011
 14:26:31.838,eb:33:2e:f9:57:b5, 2085-97-201 252:251:247:7131,0.214,-0.849,3.375,146.179,179.016,59.937,-28.109,32.223,112.648
 14:26:31.838,eb:33:2e:f9:57:b5, 2085-97-78 13:205:242:17406,1.901,-0.668,4.699,302.795,-82.153,4.028,-25.62,32.855,113.104
 14:26:31.838,eb:33:2e:f9:57:b5, 2085-97-159 09:127:233:11578,2.81,-2.869,9.881,515.32,383.606,27.71,-21.797,33.992,112.434
 14:26:31.922,eb:33:2e:f9:57:b5, 2085-97-25 28:242:240:9558,3.489,-2.476,5.214,731.995,422.607,1.038,-16.117,37.76,111.127
 14:26:31.922,eb:33:2e:f9:57:b5, 2085-97-37 20:53:223:1369,2.41,-0.877,4.224,952.209,287.354,-81.848,-8.58,41.226,109.578
 14:26:31.922,eb:33:2e:f9:57:b5, 2085-97-43 21:81:227:-1081,2.921,-3.74,-0.211,-630.432,70.618,-48.95,111.396,56.239,141.416
 14:26:31.922,eb:33:2e:f9:57:b5, 2085-97-127 23:138:230:-354,2.533,-3.378,-0.425,-755.371,18.005,-150.818,105.172,57.112,142.454
 14:26:31.922,eb:33:2e:f9:57:b5, 2085-97-78 16:75:230:650,1.707,-3.133,0.015,-827.454,-22.705,-250.366,97.756,59.139,143.152
 14:26:31.924,eb:33:2e:f9:57:b5, 2085-113-100 00:154:01:000,1.407,-3.332,0.849,-873.108,-164.49,-303.101,87.775,62.001,141.422
 14:26:31.924,eb:33:2e:f9:57:b5, 2085-97-196 05:29:227:3639,0.32,-3.422,1.396,-906.189,-202.576,-297.791,81.48,63.391,139.268
 14:26:31.924,eb:33:2e:f9:57:b5, 2085-97-122 10:17:235:11568,1.562,-3.377,2.527,-939.392,-321.35,-271.362,66.643,65.281,132.962
 14:26:31.924,eb:33:2e:f9:57:b5, 2085-97-198 01:27:247:12301,-0.072,-1.492,7.381,-907.41,-165.771,-224.731,50.707,65.973,125.409
 14:26:32.283,eb:33:2e:f9:57:b5, 2085-97-246 02:172:241:11362,0.424,-1.541,5.601,-792.358,-410.706,-206.787,35.552,65.165,117.746
 14:26:32.283,eb:33:2e:f9:57:b5, 2085-97-219 02:229:243:8677,0.269,-1.677,4.709,-763.855,-332.703,-122.009,22.478,62.721,111.846
 14:26:32.283,eb:33:2e:f9:57:b5, 2085-97-141 02:63:245:9550,0.516,-1.439,4.333,-769.043,-323.181,-34.302,12.299,59.788,108.875
 14:26:32.283,eb:33:2e:f9:57:b5, 2085-97-115 05:68:249:9748,0.829,-1.137,4.928,-757.141,-280.823,40.161,4.224,56.744,108.605
 14:26:32.313,eb:33:2e:f9:57:b5, 2085-97-171 05:71:255:7988,0.479,-0.457,4.451,-742.004,-245.3,87.219,-2.373,54.163,109.731
 14:26:32.313,eb:33:2e:f9:57:b5, 2085-97-38 04:05:06:6905,0.583,0.315,3.275,-714.783,-306.396,101.746,-8.196,51.746,111.918
 14:26:32.313,eb:33:2e:f9:57:b5, 2085-97-11 04:154:11:8255,0.302,1.144,3.747,-673.767,-463.257,93.506,-13.271,48.06,114.489
 14:26:32.313,eb:33:2e:f9:57:b5, 2085-97-39 01:79:14:9362,0.013,1.645,4.209,-635.132,-558.35,100.891,-17.65,43.352,117.944
 14:26:32.341,eb:33:2e:f9:57:b5, 2085-97-189 254:39:18:11912,-0.341,1.983,5.141,-599.365,-556.274,128.967,-21.484,38.469,121.794
 14:26:32.341,eb:33:2e:f9:57:b5, 2085-97-251 251:172:24:14637,-0.595,2.633,6.53,-573.853,-471.802,160.889,-25.131,34.365,126.107
 14:26:32.341,eb:33:2e:f9:57:b5, 2085-97-73 251:87:33:15910,-0.539,3.612,7.572,-554.688,-319.458,184.021,-28.9,31.745,129.968
 14:26:32.343,eb:33:2e:f9:57:b5, 2085-97-127 252:145:42:15110,-0.274,4.735,7.667,-518.188,-152.405,184.448,-32.849,30.817,133.264
 14:26:32.343,eb:33:2e:f9:57:b5, 2085-97-111 255:171:52:13866,0.122,5.934,7.077,-451.355,-58.716,147.888,-36.727,31.047,135.396
 14:26:32.343,eb:33:2e:f9:57:b5, 2085-97-52 02:37:62:11962,0.353,7.214,6.387,-360.901,-51.636,71.655,-40.161,31.344,136.868
 14:26:32.343,eb:33:2e:f9:57:b5, 2085-97-97 03:138:68:10036,0.467,8.225,5.253,-250.671,-86.487,-31.799,-42.869,30.959,137.527
 14:26:32.343,eb:33:2e:f9:57:b5, 2085-97-232 03:129:69:8712,0.421,8.737,4.649,-143.738,-86.731,-142.761,-44.764,29.614,137.697
 14:26:32.346,eb:33:2e:f9:57:b5, 2085-97-38 02:181:61:6288,3.337,8.324,3.611,-54.199,-26.428,-230.103,-46.132,27.839,136.659
 14:26:32.346,eb:33:2e:f9:57:b5, 2085-97-138 30:140:20:11067,3.273,1.398,4.501,1140.991,65.735,-104.065,9.69,23.884,130.204
 14:26:32.346,eb:33:2e:f9:57:b5, 2085-97-12 13:137:26:14859,0.633,2.769,6.838,1359.497,-437.683,-296.57,21.808,22.505,127.474
 14:26:32.346,eb:33:2e:f9:57:b5, 2085-97-182 251:76:14:17022,-2.347,2.446,8.632,1216.125,-879.944,-451.416,32.668,17.831,120.608
 14:26:32.612,eb:33:2e:f9:57:b5, 2085-97-191 232:214:248:6315,-2.519,0.852,5.137,892.639,-579.895,-334.473,41.644,14.464,113.038
 14:26:32.612,eb:33:2e:f9:57:b5, 2085-97-27 235:239:239:11301,-1.707,-3.375,4.12,615.723,14.648,-159.363,47.807,13.744,109.001
 14:26:32.612,eb:33:2e:f9:57:b5, 2085-97-200 244:64:31:5393,0.683,1.787,0.627,507.996,713.501,219.604,54.932,16.837,113.824
 14:26:32.612,eb:33:2e:f9:57:b5, 2085-97-10 13:137:13:13656,1.638,2.066,5.592,307.8,511.536,249.146,59.76,17.902,119.581
 14:26:32.672,eb:33:2e:f9:57:b5, 2085-97-109 13:97:35:8611,2.276,3.286,4.919,372.681,544.373,242.92,64.803,18.43,126.134
 14:26:32.672,eb:33:2e:f9:57:b5, 2085-97-172 20:80:35:10227,2.503,4.493,4.697,451.416,166.26,91.675,69.846,18.259,129.831
 14:26:32.672,eb:33:2e:f9:57:b5, 2085-97-08 19:71:32:11074,2.248,4.311,4.949,510.681,-0.183,-101.624,74.905,18.638,130.556
 14:26:32.672,eb:33:2e:f9:57:b5, 2085-97-110 16:165:23:14464,1.848,3.604,6.255,519.47,-106.689,-280.884,79.772,20.457,129.359
 14:26:32.762,eb:33:2e:f9:57:b5, 2085-97-63 13:173:10:15842,1.498,2.146,7.623,508.362,-86.121,-406.799,84.397,23.802,127.683
 14:26:32.762,eb:33:2e:f9:57:b5, 2085-97-138 10:198:255:14706,1.11,0.602,7.534,480.408,7.202,-457.336,89.077,28.136,126.606
 14:26:32.762,eb:33:2e:f9:57:b5, 2085-97-179 07:117:248:13100,0.894,-0.538,6.755,416.443,100.769,-439.758,93.873,32.651,127.304
 14:26:32.762,eb:33:2e:f9:57:b5, 2085-97-122 06:63:243:11875,0.674,-1.297,6.137,329.529,197.205,-364.197,98.663,36.524,129.122
 14:26:32.765,eb:33:2e:f9:57:b5, 2085-97-120 04:187:239:10783,0.444,-1.839,5.444,244.507,264.709,-255.615,103.425,39.122,132.61
 14:26:32.765,eb:33:2e:f9:57:b5, 2085-97-04 03:162:236:10836,0.38,-2.198,5.202,184.875,280.884,-143.86,107.77,40.32,136.165
 14:26:32.765,eb:33:2e:f9:57:b5, 2085-97-254 03:73:232:11189,0.714,-2.662,5.365,159.241,270.447,-34.668,111.539,40.21,139.702
 14:26:32.765,eb:33:2e:f9:57:b5, 2085-97-107 07:22:228:10878,1.159,-3.275,5.519,174.561,273.132,41.565,114.933,39.128,142.377
 14:26:33.031,eb:33:2e:f9:57:b5, 2085-97-241 10:152:227:9536,1.528,-3.556,5.017,207.214,259.094,85.327,118.312,37.359,144.943
 14:26:33.031,eb:33:2e:f9:57:b5, 2085-97-111 11:228:221:4322,1.104,-3.682,3.994,197.815,309.57,112.183,121.613,35.118,146.948
 14:26:33.031,eb:33:2e:f9:57:b5, 2085-97-94 10:78:204:-7806,1.673,-5.277,-0.677,82.764,282.043,139.404,124.255,32.272,149.337
 14:26:33.031,eb:33:2e:f9:57:b5, 2085-97-116 18:87:196:-5732,2.742,-7.635,-4.43,-231.018,193.604,135.925,124.091,29.795,150.474
 14:26:33.035,eb:33:2e:f9:57:b5, 2085-97-85 22:233:209:1097,0.472,-6.616,-0.271,-405.334,-35.461,36.621,120.608,28.976,150.172
 14:26:33.035,eb:33:2e:f9:57:b5, 2085-97-04 03:98:251:8723,0.246,-0.74,4.454,-759.277,-223.45,-218.14,36.535,43.533,134.824
 14:26:33.035,eb:33:2e:f9:57:b5, 2085-97-06 02:02:250:8485,0.362,-0.611,4.216,-760.071,-235.901,-154.968,26.697,42.506,131.309
 14:26:33.035,eb:33:2e:f9:57:b5, 2085-97-239 03:100:249:7763,0.659,-0.811,3.979,-737.244,-284.851,-65.674,17.688,40.435,129.133
 14:26:33.035,eb:33:2e:f9:57:b5, 2085-97-13 07:99:252:8095,-0.263,-0.77,3.744,-713.745,-324.89,22.278,9.86,37.463,128.128
 14:26:33.035,eb:33:2e:f9:57:b5, 2085-97-119 252:29:24:12923,-0.56,2.733,5.547,-490.967,-690.063,141.418,-17.386,12.92,137.769
 14:26:33.035,eb:33:2e:f9:57:b5, 2085-97-251 250:17:31:14672,-0.624,3.412,6.886,-469.543,-554.077,179.993,-21.775,7.663,141.526
 14:26:33.035,eb:33:2e:f9:57:b5, 2085-97-145 251:147:39:14511,-0.428,4.393,7.206,-459.717,-342.59,193.298,-26.296,4.46,145.3
 14:26:33.038,eb:33:2e:f9:57:b5, 2085-97-249 253:35:50:13211,-0.63,5.555,6.813,-442.505,-147.217,163.452,-30.833,3.351,148.008
 14:26:33.038,eb:33:2e:f9:57:b5, 2085-97-246 248:07:49:6080,-1.185,6.82,3.248,6.409,-47.302,-344.177,-40.732,-4.664,147.557
 14:26:33.038,eb:33:2e:f9:57:b5, 2085-97-79 244:168:37:4402,-0.888,5.458,2.586,78.796,51.331,-330.505,-39.842,-6.828,144.877
 14:26:33.038,eb:33:2e:f9:57:b5, 2085-97-170 02:233:38:14320,-6.978,4.329,2.806,464.966,-137.329,-374.817,-37.48,-8.707,142.443
 14:26:33.040,eb:33:2e:f9:57:b5, 2085-97-179 253:94:79:16042,4.606,5.324,-0.533,972.412,-509.216,-125.305,-29.323,-7.745,139.081
 14:26:33.040,eb:33:2e:f9:57:b5, 2085-97-182 66:54:24:16926,3.52,4.341,5.185,277.161,588.379,-166.199,-23.741,-9.624,138.104
 14:26:33.040,eb:33:2e:f9:57:b5, 2085-97-30 206:29:25:-20718,-4.814,2.489,1.345,364.075,-587.219,-264.038,-19.764,-12.442,137.076
 14:26:33.040,eb:33:2e:f9:57:b5, 2085-97-199 250:214:246:2776,1.533,-2.33,-3.261,132.202,-763.672,-173.279,-18.375,-17.913,136.736
 14:26:33.182,eb:33:2e:f9:57:b5, 2085-97-141 02:179:10:-524,2.238,1.838,3.915,13.916,228.821,66.528,-17.463,-20.956,137.269
 14:26:33.182,eb:33:2e:f9:57:b5, 2085-97-233 14:55:31:11049,1.583,4.339,4.706,470.032,-88.013,-45.593,71.373,-12.755,147.892
 14:26:33.182,eb:33:2e:f9:57:b5, 2085-97-29 11:146:21:14989,1.223,3.331,6.41,502.136,-167.786,-198.303,76.805,-11.898,146.014
 14:26:33.182,eb:33:2e:f9:57:b5, 2085-97-153 08:136:10:16326,0.976,2.021,7.853,522.034,-119.507,-294.495,82.452,-9.778,143.635
 14:26:33.182,eb:33:2e:f9:57:b5, 2085-97-45 07:73:00:15285,0.816,0.637,7.782,528.137,-31.799,-338.501,87.968,-6.652,142.553
 14:26:33.182,eb:33:2e:f9:57:b5, 2085-97-77 06:187:248:13962,0.802,-0.477,7.123,499.573,84.351,-334.839,93.076,-3.301,142.443
 14:26:33.182,eb:33:2e:f9:57:b5, 2085-97-199 06:101:243:12271,0.877,-1.271,6.45,440.735,207.153,-283.142,97.597,-0.33,144.207
 14:26:33.182,eb:33:2e:f9:57:b5, 2085-97-178 06:241:239:9960,0.759,-1.828,5.454,363.953,277.039,-201.843,101.42,1.648,146.651
 14:26:33.242,eb:33:2e:f9:57:b5, 2085-97-63 05:14:238:8471,0.673,-2.134,4.412,287.781,251.587,-120.544,104.535,2.626,149.612
 14:26:33.243,eb:33:2e:f9:57:b5, 2085-97-102 05:20:236:8948,0.675,-2.375,4.26,234.009,173.95,-57.8,107.056,2.933,151.804
 14:26:33.243,eb:33:2e:f9:57:b5, 2085-97-36 06:28:233:9786,0.885,-2.641,4.525,206.787,115.601,-11.658,109.188,2.807,153.265
 14:26:33.243,eb:33:2e:f9:57:b5, 2085-97-03 08:35:231:9803,1.124,-3.026,4.887,194.458,121.216,23.438,111.165,2.357,154.286
 14:26:33.243,eb:33:2e:f9:57:b5, 2085-97-98 09:191:229:7671,1.209,-3.162,4.526,159.729,198.853,50.537,112.906,1.439,155.616
 14:26:33.243,eb:33:2e:f9:57:b5, 2085-97-200 11:213:222:2932,1.735,-3.561,2.658,78.796,246.46,71.655,113.961,-0.071,157.577
 14:26:33.243,eb:33:2e:f9:57:b5, 2085-97-93 15:200:202:-4054,1.874,-5.228,-0.28,-36.621,231.873,49.561,114.027,-1.538,159.478
 14:26:33.243,eb:33:2e:f9:57:b5, 2085-97-247 13:105:196:-6248,1.764,-7.44,-3.24,-240.173,142.151,27.039,112.352,-2.741,161.406
 14:26:33.392,eb:33:2e:f9:57:b5, 2085-97-155 14:125:200:-1382,1.814,-7.179,-1.815,-440.552,-52.246,-5.432,108.847,-2.845,161.433
 14:26:33.392,eb:33:2e:f9:57:b5, 2085-97-112 14:90:211:936,1.836,-6.393,-0.016,-637.024,-25.574,-27.283,103.414,-2.554,161.043
 14:26:33.392,eb:33:2e:f9:57:b5, 2085-97-213 14:34:223:3179,1.866,-4.826,1.032,-828.003,16.113,-65.857,95.944,-2.098,161.125
 14:26:33.392,eb:33:2e:f9:57:b5, 2085-97-54 14:140:233:4803,1.515,-3.382,2.037,-955.872,18.127,-127.258,86.896,-1.115,161.257
 14:26:33.392,eb:33:2e:f9:57:b5, 2085-97-42 11:108:236:6203,0.896,-2.578,2.542,-1031.006,8.606,-196.35,76.888,0.544,161.197
 14:26:33.392,eb:33:2e:f9:57:b5, 2085-97-82 01:101:252:10871,-0.219,-1.805,4.358,-1089.294,146.729,-222.046,66.215,2.752,160.977
 14:26:33.392,eb:33:2e:f9:57:b5, 2085-97-123 255:03:254:12439,0.015,0.06,5.868,-928.711,-308.533,-303.711,56.03,4.708,159.077
 14:26:33.392,eb:33:2e:f9:57:b5, 2085-97-25 01:03:247:9247,0.032,-0.784,5.122,-783.325,-455.444,-288.391,47.335,4.636,154.418
 14:26:33.395,eb:33:2e:f9:57:b5, 2085-97-87 254:223:246:8344,-0.395,-1.187,4.071,-739.258,-428.101,-235.657,39.803,3.098,149.496
 14:26:33.395,eb:33:2e:f9:57:b5, 2085-97-154 251:40:248:10018,-0.596,-1.081,4.513,-729.37,-410.461,-180.115,32.36,0.797,145.673
 14:26:33.395,eb:33:2e:f9:57:b5, 2085-97-237 250:84:249:10159,-0.657,-0.897,5.096,-720.398,-356.14,-114.441,25.362,-1.912,142.608
 14:26:33.395,eb:33:2e:f9:57:b5, 2085-97-77 251:162:251:8624,-0.444,-0.766,4.582,-721.252,-312.073,-51.636,18.276,-4.796,140.938
 14:26:33.603,eb:33:2e:f9:57:b5, 2085-97-117 253:107:01:8567,-0.245,-0.225,4.132,-739.319,-279.724,-3.174,11.135,-7.619,140.021
 14:26:33.603,eb:33:2e:f9:57:b5, 2085-97-28 254:165:07:8538,-0.268,0.594,4.231,-749.756,-247.864,10.498,3.669,-10.283,139.993
 14:26:33.603,eb:33:2e:f9:57:b5, 2085-97-91 253:80:11:7882,-0.43,1.219,4.027,-724.609,-256.104,5.31,-3.757,-12.772,140.136
 14:26:33.603,eb:33:2e:f9:57:b5, 2085-97-26 252:198:13:7882,-0.482,1.572,3.725,-665.161,-315.674,6.348,-10.876,-15.612,140.817
 14:26:33.722,eb:33:2e:f9:57:b5, 2085-97-155 251:199:17:10072,-0.692,1.931,4.331,-582.092,-403.992,20.386,-17.512,-19.105,142.009
 14:26:33.722,eb:33:2e:f9:57:b5, 2085-97-41 249:72:21:12352,-0.948,2.484,5.507,-512.695,-468.506,46.936,-23.868,-23.126,144.36
 14:26:33.722,eb:33:2e:f9:57:b5, 2085-97-142 248:142:23:13702,-0.884,2.799,6.439,-487.305,-437.134,99.67,-30.394,-26.834,147.601
 14:26:33.722,eb:33:2e:f9:57:b5, 2085-97-196 249:151:27:13531,-0.632,3.139,6.674,-491.699,-313.171,160.645,-37.326,-29.136,151.567
 14:26:33.724,eb:33:2e:f9:57:b5, 2085-97-216 251:147:37:13159,-0.441,3.972,6.569,-466.248,-179.016,197.266,-44.105,-29.68,155.105
 14:26:33.724,eb:33:2e:f9:57:b5, 2085-97-34 253:49:49:11587,-0.315,5.47,6.106,-380.92,-117.065,180.481,-49.872,-29.169,158.011
 14:26:33.724,eb:33:2e:f9:57:b5, 2085-97-239 253:253:56:9869,-0.1,6.685,5.173,-261.78,-152.527,116.15,-54.283,-28.762,160.318
 14:26:33.724,eb:33:2e:f9:57:b5, 2085-97-52 01:102:62:8673,0.465,7.486,4.571,-160.217,-163.94,27.161,-57.486,-29.13,162.62
 14:26:33.726,eb:33:2e:f9:57:b5, 2085-97-53 06:86:64:5813,0.948,7.986,3.619,-102.051,-18.433,-74.585,-59.194,-29.855,163.438
 14:26:33.726,eb:33:2e:f9:57:b5, 2085-97-157 06:215:60:3226,0.422,7.961,2.154,-54.565,91.858,-193.542,-59.161,-30.811,162.158
 14:26:33.726,eb:33:2e:f9:57:b5, 2085-97-113 255:136:49:2770,-0.552,6.994,1.283,22.034,5.371,-284.241,-58.057,-32.662,159.988
 14:26:33.726,eb:33:2e:f9:57:b5, 2085-97-98 248:255:33:4583,-1.207,5.26,1.721,128.479,-133.972,-295.227,-56.569,-35.634,159.011
 14:26:33.728,eb:33:2e:f9:57:b5, 2085-97-68 245:98:18:5098,-1.454,3.269,2.569,220.642,-123.291,-231.018,-54.536,-38.628,158.67
 14:26:33.728,eb:33:2e:f9:57:b5, 2085-97-25 244:74:00:2862,0.587,1.078,1.934,306.702,-48.889,-109.436,-51.548,-40.496,158.318
 14:26:33.728,eb:33:2e:f9:57:b5, 2085-97-128 206:130:21:-2046,0.827,1.104,8.363,782.471,86.426,-17.212,-46.829,-41.962,158.527
 14:26:33.728,eb:33:2e:f9:57:b5, 2085-97-65 70:42:49:13051,-0.216,6.762,8.823,1057.373,-36.438,122.07,-37.947,-40.825,160.829
 14:26:33.730,eb:33:2e:f9:57:b5, 2085-97-42 63:184:26:18658,-0.364,4.333,6.668,379.761,1126.221,31.311,-28.444,-34.722,154.797
 14:26:33.730,eb:33:2e:f9:57:b5, 2085-97-111 252:62:250:6886,-0.321,-0.343,4.102,118.591,94.849,37.415,-22.275,-37.798,156.682
 14:26:33.730,eb:33:2e:f9:57:b5, 2085-97-179 00:17:247:8806,0.659,-0.979,3.822,282.104,-165.955,0.366,-20.561,-38.441,157.247
 14:26:33.730,eb:33:2e:f9:57:b5, 2085-97-07 11:25:245:11463,1.807,-1.213,4.496,429.932,-117.004,-22.644,-17.342,-40.04,157.928
 14:26:33.812,eb:33:2e:f9:57:b5, 2085-97-80 09:218:234:11931,1.312,-1.904,7.034,558.289,190.857,-33.997,-11.975,-39.82,157.423
 14:26:33.812,eb:33:2e:f9:57:b5, 2085-97-132 14:128:13:9152,2.553,1.039,5.44,218.933,774.353,131.226,62.781,-41.869,143.146
 14:26:33.813,eb:33:2e:f9:57:b5, 2085-97-43 23:166:33:5875,3.028,3.321,3.486,279.236,628.174,70.557,58.612,-39.095,152.71
 14:26:33.813,eb:33:2e:f9:57:b5, 2085-97-81 25:49:27:6775,2.994,4.016,2.966,353.638,206.97,-104.065,58.623,-36.799,156.945
 14:26:33.816,eb:33:2e:f9:57:b5, 2085-97-235 21:92:17:7413,2.502,2.775,3.3,401.55,-11.414,-274.78,62.743,-34.651,156.522
 14:26:33.816,eb:33:2e:f9:57:b5, 2085-97-247 17:159:07:10218,2.031,1.538,4.378,399.597,-142.273,-396.545,68.472,-32.053,153.232
 14:26:33.816,eb:33:2e:f9:57:b5, 2085-97-06 15:14:255:11168,1.734,0.42,5.343,376.526,-149.658,-457.153,74.328,-28.477,149.744
 14:26:33.816,eb:33:2e:f9:57:b5, 2085-97-170 12:70:246:10820,1.482,-0.669,5.392,327.148,-93.14,-461.121,79.2,-24.406,146.629
 14:26:33.843,eb:33:2e:f9:57:b5, 2085-97-142 11:76:239:10530,1.406,-1.703,5.224,263.489,12.695,-409.363,82.705,-20.187,145.327
 14:26:33.843,eb:33:2e:f9:57:b5, 2085-97-244 10:235:236:9052,1.364,-2.326,4.872,208.252,177.917,-316.04,84.803,-16.589,145.497
 14:26:33.843,eb:33:2e:f9:57:b5, 2085-97-41 11:08:238:7757,1.427,-2.328,4.006,155.334,275.269,-214.6,85.858,-13.771,147.744
 14:26:33.843,eb:33:2e:f9:57:b5, 2085-97-221 11:221:238:7610,1.583,-2.19,3.731,116.272,297.791,-132.446,86.347,-11.931,150.161
 14:26:33.903,eb:33:2e:f9:57:b5, 2085-97-29 14:198:238:7908,1.935,-2.133,3.759,105.042,276.306,-69.153,86.644,-10.761,153.078
 14:26:33.903,eb:33:2e:f9:57:b5, 2085-97-184 16:225:237:7799,2.226,-2.198,3.876,119.629,261.047,-38.818,87.094,-10.058,155.775
 14:26:33.903,eb:33:2e:f9:57:b5, 2085-97-137 18:83:236:6929,2.415,-2.34,3.681,133.362,263.489,-24.231,87.742,-9.586,158.434
 14:26:33.903,eb:33:2e:f9:57:b5, 2085-97-54 20:76:230:3152,2.543,-2.719,2.552,119.385,254.456,-16.602,88.407,-9.256,161.12
 14:26:33.933,eb:33:2e:f9:57:b5, 2085-97-79 17:140:216:-3668,1.79,-4.017,0.262,54.443,174.744,-29.968,88.841,-8.91,163.213
 14:26:33.933,eb:33:2e:f9:57:b5, 2085-97-54 14:11:212:-3622,1.87,-5.602,-2.789,-150.757,18.433,-14.282,88.143,-8.619,164.246
 14:26:33.933,eb:33:2e:f9:57:b5, 2085-97-90 15:236:218:2470,1.786,-4.996,0.038,-340.027,-100.159,-2.319,85.671,-8.608,163.531
 14:26:33.933,eb:33:2e:f9:57:b5, 2085-97-183 12:199:222:2176,1.57,-4.487,1.401,-460.632,-42.847,-0.305,81.727,-8.685,162.839
