Time,Device name,Chip Time(),Acceleration X(g),Acceleration Y(g),Acceleration Z(g),Angular velocity X(°/s),Angular velocity Y(°/s),Angular velocity Z(°/s),Angle X(°),Angle Y(°),Angle Z(°)
 14:13:48.196,eb:33:2e:f9:57:b5, 2085-97-102 00:43:00:2030,0.05,0.021,0.99,-0.061,0.366,0.671,-0.209,-2.368,-156.352
 14:13:48.196,eb:33:2e:f9:57:b5, 2085-97-104 00:42:00:2031,0.051,0.021,0.991,0,0.427,0.671,-0.209,-2.362,-156.341
 14:13:48.196,eb:33:2e:f9:57:b5, 2085-97-103 00:42:00:2032,0.049,0.021,0.992,-0.061,0.488,0.671,-0.209,-2.362,-156.335
 14:13:48.196,eb:33:2e:f9:57:b5, 2085-97-102 00:42:00:2027,0.05,0.021,0.991,-0.061,0.549,0.793,-0.209,-2.357,-156.324
 14:13:48.226,eb:33:2e:f9:57:b5, 2085-97-104 00:43:00:2029,0.051,0.021,0.99,-0.122,0.366,0.793,-0.209,-2.351,-156.313
 14:13:48.226,eb:33:2e:f9:57:b5, 2085-97-107 00:45:00:2029,0.05,0.021,0.991,-0.244,0.61,0.732,-0.214,-2.351,-156.302
 14:13:48.226,eb:33:2e:f9:57:b5, 2085-97-103 00:44:00:2028,0.05,0.022,0.988,-0.244,0.305,0.61,-0.214,-2.346,-156.297
 14:13:48.226,eb:33:2e:f9:57:b5, 2085-97-103 00:43:00:2029,0.05,0.021,0.989,-0.183,0.122,0.183,-0.214,-2.346,-156.286
 14:13:48.257,eb:33:2e:f9:57:b5, 2085-97-105 00:43:00:2031,0.052,0.021,0.991,-0.061,0,0,-0.214,-2.346,-156.286
 14:13:48.257,eb:33:2e:f9:57:b5, 2085-97-103 00:43:00:2029,0.05,0.021,0.992,0,0.061,-0.061,-0.214,-2.346,-156.286
 14:13:48.257,eb:33:2e:f9:57:b5, 2085-97-104 00:41:00:2030,0.051,0.021,0.991,0.061,0,0,-0.214,-2.351,-156.286
 14:13:48.257,eb:33:2e:f9:57:b5, 2085-97-103 00:43:00:2031,0.05,0.021,0.991,0,0.061,0.061,-0.214,-2.351,-156.281
 14:13:48.316,eb:33:2e:f9:57:b5, 2085-97-102 00:42:00:2029,0.05,0.021,0.991,0,0.122,0.122,-0.214,-2.351,-156.281
 14:13:48.316,eb:33:2e:f9:57:b5, 2085-97-103 00:44:00:2030,0.051,0.021,0.991,0,0,0.244,-0.214,-2.351,-156.275
 14:13:48.316,eb:33:2e:f9:57:b5, 2085-97-106 00:41:00:2035,0.051,0.02,0.992,0,0.122,0.427,-0.214,-2.351,-156.27
 14:13:48.316,eb:33:2e:f9:57:b5, 2085-97-103 00:42:00:2029,0.049,0.021,0.991,0,0.305,0.427,-0.214,-2.351,-156.259
 14:13:48.347,eb:33:2e:f9:57:b5, 2085-97-100 00:45:00:2028,0.05,0.021,0.991,0.061,0.244,0.305,-0.209,-2.351,-156.259
 14:13:48.347,eb:33:2e:f9:57:b5, 2085-97-101 00:44:00:2029,0.049,0.021,0.991,0.061,0.183,0.366,-0.209,-2.351,-156.248
 14:13:48.347,eb:33:2e:f9:57:b5, 2085-97-105 00:44:00:2031,0.052,0.021,0.99,0,0.061,0.244,-0.209,-2.351,-156.248
 14:13:48.347,eb:33:2e:f9:57:b5, 2085-97-106 00:43:00:2031,0.052,0.021,0.993,0,0.183,0.244,-0.209,-2.351,-156.237
 14:13:48.376,eb:33:2e:f9:57:b5, 2085-97-105 00:42:00:2031,0.051,0.021,0.992,0.061,0.122,0.122,-0.203,-2.351,-156.237
 14:13:48.376,eb:33:2e:f9:57:b5, 2085-97-103 00:44:00:2029,0.049,0.021,0.991,0.183,0.183,0.061,-0.203,-2.351,-156.231
 14:13:48.376,eb:33:2e:f9:57:b5, 2085-97-102 00:45:00:2028,0.05,0.022,0.99,0.183,0,0,-0.198,-2.351,-156.231
 14:13:48.376,eb:33:2e:f9:57:b5, 2085-97-103 00:46:00:2031,0.051,0.021,0.991,0.244,-0.122,-0.244,-0.198,-2.351,-156.231
 14:13:48.466,eb:33:2e:f9:57:b5, 2085-97-106 00:45:00:2031,0.051,0.022,0.992,0.305,-0.305,-0.488,-0.192,-2.357,-156.237
 14:13:48.466,eb:33:2e:f9:57:b5, 2085-97-103 00:45:00:2028,0.051,0.021,0.992,0.305,-0.183,-0.366,-0.192,-2.362,-156.237
 14:13:48.466,eb:33:2e:f9:57:b5, 2085-97-102 00:47:00:2024,0.051,0.022,0.99,0.244,-0.488,-0.61,-0.187,-2.368,-156.242
 14:13:48.466,eb:33:2e:f9:57:b5, 2085-97-105 00:47:00:2030,0.051,0.023,0.989,0.183,-0.916,-0.977,-0.181,-2.373,-106.584
 14:13:48.468,eb:33:2e:f9:57:b5, 2085-97-105 00:43:00:2032,0.051,0.022,0.991,0.122,-0.916,-1.099,-0.181,-2.373,-106.584
 14:13:48.468,eb:33:2e:f9:57:b5, 2085-97-104 00:44:00:2030,0.05,0.021,0.991,0.061,-0.854,-0.916,-0.181,-2.373,-106.584
 14:13:48.468,eb:33:2e:f9:57:b5, 2085-97-103 00:45:00:2028,0.049,0.022,0.991,0,-0.793,-0.916,0.352,-2.889,-106.381
 14:13:48.468,eb:33:2e:f9:57:b5, 2085-97-103 00:43:00:2030,0.051,0.021,0.99,0,-0.732,-0.732,0.341,-2.889,-106.364
 14:13:48.497,eb:33:2e:f9:57:b5, 2085-97-106 00:43:00:2031,0.051,0.021,0.992,-0.061,-0.549,-0.671,0.461,-2.906,-106.298
 14:13:48.497,eb:33:2e:f9:57:b5, 2085-97-104 00:43:00:2032,0.052,0.021,0.991,-0.061,-0.427,-0.488,0.456,-2.906,-106.282
 14:13:48.497,eb:33:2e:f9:57:b5, 2085-97-107 00:43:00:2034,0.052,0.02,0.992,-0.061,-0.305,-0.244,0.483,-2.922,-106.271
 14:13:48.497,eb:33:2e:f9:57:b5, 2085-97-106 00:46:00:2032,0.052,0.022,0.993,0,-0.061,-0.122,0.483,-2.922,-106.26
 14:13:48.556,eb:33:2e:f9:57:b5, 2085-97-107 00:44:00:2032,0.052,0.021,0.992,0,0,-0.061,0.494,-2.939,-106.26
 14:13:48.556,eb:33:2e:f9:57:b5, 2085-97-107 00:44:00:2031,0.053,0.022,0.992,0,0.061,-0.061,0.494,-2.939,-106.249
 14:13:48.556,eb:33:2e:f9:57:b5, 2085-97-107 00:45:00:2030,0.052,0.022,0.992,-0.061,0.244,0,0.505,-2.955,-106.249
 14:13:48.556,eb:33:2e:f9:57:b5, 2085-97-106 00:44:00:2032,0.052,0.021,0.991,-0.061,0.183,0.061,0.505,-2.955,-106.238
 14:13:48.585,eb:33:2e:f9:57:b5, 2085-97-106 00:44:00:2032,0.052,0.021,0.992,-0.122,0.244,0.122,0.516,-2.966,-106.232
 14:13:48.585,eb:33:2e:f9:57:b5, 2085-97-105 00:44:00:2028,0.051,0.022,0.991,-0.122,0.305,0.244,0.511,-2.966,-106.227
 14:13:48.585,eb:33:2e:f9:57:b5, 2085-97-106 00:45:00:2031,0.052,0.022,0.991,-0.122,0.244,0.244,0.516,-2.972,-106.221
 14:13:48.585,eb:33:2e:f9:57:b5, 2085-97-104 00:45:00:2029,0.05,0.021,0.991,-0.122,0.244,0.305,0.516,-2.972,-106.216
 14:13:48.676,eb:33:2e:f9:57:b5, 2085-97-100 00:43:00:2026,0.05,0.021,0.99,-0.122,0.244,0.244,0.522,-2.972,-106.21
 14:13:48.676,eb:33:2e:f9:57:b5, 2085-97-103 00:43:00:2029,0.051,0.021,0.991,-0.122,0.061,0.305,0.522,-2.972,-106.205
 14:13:48.676,eb:33:2e:f9:57:b5, 2085-97-104 00:42:00:2026,0.051,0.021,0.991,-0.183,0.061,0.366,0.522,-2.966,-106.199
 14:13:48.676,eb:33:2e:f9:57:b5, 2085-97-106 00:42:00:2031,0.05,0.021,0.99,-0.122,-0.061,0.183,0.522,-2.966,-106.194
 14:13:48.706,eb:33:2e:f9:57:b5, 2085-97-102 00:38:00:2028,0.049,0.02,0.991,0,0.061,0.366,0.522,-2.961,-106.188
 14:13:48.706,eb:33:2e:f9:57:b5, 2085-97-100 00:43:00:2027,0.049,0.021,0.99,0,0.061,0.366,0.522,-2.961,-106.188
 14:13:48.706,eb:33:2e:f9:57:b5, 2085-97-99 00:44:00:2026,0.05,0.022,0.99,-0.061,-0.061,0.183,0.522,-2.955,-106.183
 14:13:48.706,eb:33:2e:f9:57:b5, 2085-97-109 00:45:00:2032,0.055,0.021,0.991,-0.061,-0.366,0.183,0.522,-2.955,-106.177
 14:13:48.706,eb:33:2e:f9:57:b5, 2085-113-58 00:30:226:-1860,0.054,0.022,0.993,0,-0.122,0,0.522,-2.95,-106.172
 14:13:48.765,eb:33:2e:f9:57:b5, 2085-97-108 00:44:00:2031,0.052,0.022,0.993,0,-0.061,0,0.522,-2.95,-106.172
 14:13:48.765,eb:33:2e:f9:57:b5, 2085-97-105 00:46:00:2030,0.052,0.021,0.991,0,-0.061,0,0.522,-2.95,-106.172
 14:13:48.765,eb:33:2e:f9:57:b5, 2085-97-106 00:44:00:2030,0.052,0.021,0.99,-0.061,-0.183,-0.183,0.522,-2.95,-106.166
 14:13:48.765,eb:33:2e:f9:57:b5, 2085-97-108 00:44:00:2034,0.053,0.022,0.992,0,-0.183,-0.244,0.522,-2.95,-106.166
 14:13:48.769,eb:33:2e:f9:57:b5, 2085-97-108 00:44:00:2031,0.052,0.021,0.993,0,0,-0.061,0.522,-2.95,-106.166
 14:13:48.769,eb:33:2e:f9:57:b5, 2085-97-109 00:44:00:2031,0.051,0.021,0.992,0,0.122,0,0.522,-2.95,-106.166
 14:13:48.769,eb:33:2e:f9:57:b5, 2085-97-105 00:44:00:2031,0.051,0.022,0.992,0,0.183,0.061,0.522,-2.955,-106.161
 14:13:48.769,eb:33:2e:f9:57:b5, 2085-97-105 00:43:00:2030,0.052,0.021,0.992,-0.061,0.183,0.061,0.522,-2.955,-106.161
 14:13:48.796,eb:33:2e:f9:57:b5, 2085-97-108 00:40:00:2031,0.051,0.02,0.991,0,0.183,0.122,0.527,-2.961,-106.161
 14:13:48.796,eb:33:2e:f9:57:b5, 2085-97-103 00:43:00:2028,0.051,0.021,0.991,0,0.244,0.183,0.527,-2.961,-106.161
 14:13:48.796,eb:33:2e:f9:57:b5, 2085-97-105 00:45:00:2029,0.053,0.022,0.991,0,0.122,0.183,0.522,-2.961,-106.161
 14:13:48.796,eb:33:2e:f9:57:b5, 2085-97-106 00:44:00:2030,0.051,0.021,0.991,0,0.122,0.122,0.522,-2.961,-106.161
 14:13:48.827,eb:33:2e:f9:57:b5, 2085-113-81 00:226:76:-466,0.051,0.021,0.991,0,0.122,0.061,0.522,-2.961,-106.155
 14:13:48.827,eb:33:2e:f9:57:b5, 2085-97-106 00:45:00:2031,0.052,0.021,0.991,0,0.122,0.061,0.522,-2.961,-106.155
 14:13:48.827,eb:33:2e:f9:57:b5, 2085-97-107 00:46:00:2032,0.053,0.021,0.992,0,0.061,0,0.527,-2.961,-106.155
 14:13:48.827,eb:33:2e:f9:57:b5, 2085-97-107 00:45:00:2033,0.052,0.022,0.992,-0.061,0.183,-0.061,0.527,-2.961,-106.155
 14:13:48.885,eb:33:2e:f9:57:b5, 2085-97-105 00:44:00:2029,0.051,0.022,0.992,0,0.244,-0.061,0.527,-2.966,-106.155
 14:13:48.885,eb:33:2e:f9:57:b5, 2085-97-105 00:44:00:2029,0.052,0.021,0.991,0,0.061,-0.183,0.527,-2.966,-106.155
 14:13:48.885,eb:33:2e:f9:57:b5, 2085-97-106 00:44:00:2031,0.052,0.021,0.992,0,0.122,-0.122,0.527,-2.966,-106.15
 14:13:48.885,eb:33:2e:f9:57:b5, 2085-97-105 00:44:00:2030,0.051,0.021,0.992,-0.061,0.244,-0.061,0.527,-2.966,-106.15
 14:13:48.916,eb:33:2e:f9:57:b5, 2085-97-102 00:42:00:2030,0.049,0.021,0.991,-0.122,0.244,0,0.527,-2.966,-106.15
 14:13:48.916,eb:33:2e:f9:57:b5, 2085-97-102 00:44:00:2027,0.05,0.021,0.99,-0.122,0.122,0.061,0.527,-2.966,-106.15
 14:13:48.916,eb:33:2e:f9:57:b5, 2085-97-104 00:44:00:2028,0.05,0.021,0.99,-0.244,-0.061,0,0.527,-2.966,-106.15
 14:13:48.916,eb:33:2e:f9:57:b5, 2085-97-102 00:44:00:2026,0.05,0.021,0.99,-0.305,-0.183,-0.061,0.527,-2.966,-106.15
 14:13:48.946,eb:33:2e:f9:57:b5, 2085-97-99 00:45:00:2024,0.049,0.022,0.989,-0.366,-0.427,-0.122,0.527,-2.961,-106.144
 14:13:48.946,eb:33:2e:f9:57:b5, 2085-97-101 00:45:00:2025,0.049,0.021,0.988,-0.549,-0.732,-0.244,0.527,-2.961,-106.144
 14:13:48.946,eb:33:2e:f9:57:b5, 2085-97-100 00:44:00:2027,0.051,0.021,0.99,-0.732,-1.038,-0.366,0.527,-2.961,-106.144
 14:13:48.946,eb:33:2e:f9:57:b5, 2085-97-106 00:43:00:2030,0.052,0.021,0.991,-0.793,-1.221,-0.488,0.527,-2.961,-106.144
 14:13:49.006,eb:33:2e:f9:57:b5, 2085-97-106 00:45:00:2027,0.051,0.022,0.991,-0.854,-1.343,-0.671,0.527,-2.955,-106.139
 14:13:49.006,eb:33:2e:f9:57:b5, 2085-97-106 00:46:00:2025,0.052,0.023,0.989,-0.916,-1.648,-1.038,0.527,-2.955,-106.139
 14:13:49.006,eb:33:2e:f9:57:b5, 2085-97-109 00:44:00:2030,0.053,0.022,0.99,-0.916,-2.197,-1.526,0.522,-2.977,-106.155
 14:13:49.006,eb:33:2e:f9:57:b5, 2085-97-107 00:42:00:2029,0.053,0.021,0.991,-0.916,-2.441,-1.831,0.511,-2.999,-106.172
 14:13:49.006,eb:33:2e:f9:57:b5, 2085-97-112 00:40:00:2033,0.056,0.02,0.992,-0.916,-2.686,-1.831,0.5,-3.027,-106.194
 14:13:49.037,eb:33:2e:f9:57:b5, 2085-113-58 00:119:227:-2190,0.055,0.02,0.994,-0.793,-2.38,-1.648,0.494,-3.054,-106.216
 14:13:49.037,eb:33:2e:f9:57:b5, 2085-97-111 00:37:00:2034,0.052,0.019,0.993,-0.732,-2.197,-1.526,0.489,-3.065,-106.221
 14:13:49.037,eb:33:2e:f9:57:b5, 2085-97-105 00:38:00:2025,0.053,0.018,0.991,-0.671,-1.953,-1.282,0.483,-3.087,-106.238
 14:13:49.037,eb:33:2e:f9:57:b5, 2085-97-110 00:37:00:2029,0.055,0.018,0.99,-0.549,-2.258,-1.221,0.478,-3.109,-106.254
 14:13:49.067,eb:33:2e:f9:57:b5, 2085-97-115 00:38:00:2032,0.055,0.019,0.991,-0.549,-2.075,-0.977,0.472,-3.131,-106.265
 14:13:49.067,eb:33:2e:f9:57:b5, 2085-97-108 00:38:00:2028,0.052,0.018,0.992,-0.549,-1.709,-0.549,0.467,-3.153,-106.271
 14:13:49.067,eb:33:2e:f9:57:b5, 2085-97-107 00:37:00:2026,0.054,0.019,0.989,-0.549,-1.831,-0.244,0.461,-3.17,-106.276
 14:13:49.067,eb:33:2e:f9:57:b5, 2085-97-116 00:38:00:2029,0.058,0.019,0.99,-0.61,-2.075,0,0.456,-3.192,-106.282
 14:13:49.126,eb:33:2e:f9:57:b5, 2085-97-118 00:36:00:2034,0.058,0.019,0.991,-0.488,-1.892,0.183,0.45,-3.214,-106.282
 14:13:49.126,eb:33:2e:f9:57:b5, 2085-97-119 00:37:00:2031,0.058,0.018,0.992,-0.427,-1.526,0.427,0.445,-3.23,-106.276
 14:13:49.126,eb:33:2e:f9:57:b5, 2085-97-119 00:39:00:2031,0.057,0.018,0.992,-0.427,-1.282,0.732,0.439,-3.246,-106.271
 14:13:49.126,eb:33:2e:f9:57:b5, 2085-97-119 00:39:00:2030,0.061,0.019,0.991,-0.427,-1.099,0.793,0.434,-3.257,-106.265
 14:13:49.156,eb:33:2e:f9:57:b5, 2085-97-127 00:39:00:2036,0.06,0.019,0.994,-0.366,-0.793,0.916,0.428,-3.268,-106.26
 14:13:49.156,eb:33:2e:f9:57:b5, 2085-97-118 00:39:00:2028,0.058,0.019,0.993,-0.366,-0.305,0.977,0.423,-3.274,-106.249
 14:13:49.156,eb:33:2e:f9:57:b5, 2085-97-116 00:41:00:2028,0.056,0.02,0.989,-0.305,-0.427,0.854,0.417,-3.279,-106.238
 14:13:49.156,eb:33:2e:f9:57:b5, 2085-97-122 00:42:00:2027,0.06,0.02,0.988,-0.305,-0.916,0.61,0.417,-3.29,-106.232
 14:13:49.186,eb:33:2e:f9:57:b5, 2085-97-116 00:39:00:2024,0.055,0.02,0.991,-0.427,-1.038,0.305,0.412,-3.301,-106.232
 14:13:49.186,eb:33:2e:f9:57:b5, 2085-97-106 00:38:00:2018,0.054,0.019,0.987,-0.366,-1.587,0.061,0.406,-3.318,-106.227
 14:13:49.186,eb:33:2e:f9:57:b5, 2085-97-119 00:37:00:2029,0.059,0.019,0.987,-0.427,-2.38,0.122,0.401,-3.334,-106.227
 14:13:49.186,eb:33:2e:f9:57:b5, 2085-97-116 00:36:00:2028,0.056,0.018,0.992,-0.427,-2.319,0.366,0.396,-3.362,-106.227
 14:13:49.247,eb:33:2e:f9:57:b5, 2085-97-110 00:34:00:2021,0.055,0.018,0.988,-0.488,-2.441,0.427,0.396,-3.384,-106.227
 14:13:49.247,eb:33:2e:f9:57:b5, 2085-97-115 00:32:00:2023,0.058,0.016,0.988,-0.488,-2.991,0.671,0.39,-3.417,-106.221
 14:13:49.247,eb:33:2e:f9:57:b5, 2085-97-124 00:34:00:2030,0.062,0.016,0.989,-0.488,-3.113,0.977,0.379,-3.45,-106.216
 14:13:49.247,eb:33:2e:f9:57:b5, 2085-97-132 00:39:00:2034,0.062,0.018,0.992,-0.366,-2.869,0.854,0.374,-3.477,-106.205
 14:13:49.307,eb:33:2e:f9:57:b5, 2085-97-123 00:32:00:2031,0.061,0.018,0.991,-0.305,-2.625,0.61,0.374,-3.505,-106.199
 14:13:49.307,eb:33:2e:f9:57:b5, 2085-97-131 00:34:00:2034,0.065,0.016,0.991,-0.244,-2.136,0.916,0.368,-3.532,-106.194
 14:13:49.307,eb:33:2e:f9:57:b5, 2085-97-136 00:36:00:2035,0.07,0.017,0.993,-0.061,-1.831,0.732,0.368,-3.554,-106.183
 14:13:49.307,eb:33:2e:f9:57:b5, 2085-113-58 00:120:226:-1935,0.073,0.018,0.996,0,-0.977,0.793,0.368,-3.565,-106.177
 14:13:49.309,eb:33:2e:f9:57:b5, 2085-97-143 00:36:00:2037,0.067,0.018,0.998,0.061,-0.244,0.732,0.368,-3.571,-106.177
 14:13:49.309,eb:33:2e:f9:57:b5, 2085-97-133 00:39:00:2030,0.067,0.017,0.993,0.183,0.427,0.488,0.368,-3.571,-106.172
 14:13:49.309,eb:33:2e:f9:57:b5, 2085-97-143 00:43:00:2032,0.072,0.021,0.992,0.366,0.244,-0.122,0.368,-3.565,-106.166
 14:13:49.309,eb:33:2e:f9:57:b5, 2085-97-147 00:36:00:2041,0.07,0.02,0.995,0.549,0.366,-1.038,0.374,-3.565,-106.177
 14:13:49.366,eb:33:2e:f9:57:b5, 2085-97-140 00:40:00:2035,0.067,0.019,0.995,0.793,1.221,-1.465,0.385,-3.554,-106.188
 14:13:49.366,eb:33:2e:f9:57:b5, 2085-97-134 00:44:00:2029,0.064,0.021,0.991,0.854,1.282,-1.831,0.396,-3.543,-106.205
 14:13:49.366,eb:33:2e:f9:57:b5, 2085-97-133 00:44:00:2032,0.064,0.021,0.991,0.854,0.854,-2.136,0.401,-3.532,-106.227
 14:13:49.366,eb:33:2e:f9:57:b5, 2085-97-130 00:43:00:2027,0.062,0.021,0.991,0.854,0.916,-2.38,0.412,-3.527,-106.254
 14:13:49.427,eb:33:2e:f9:57:b5, 2085-97-123 00:41:00:2023,0.058,0.021,0.989,0.793,0.488,-2.625,0.423,-3.516,-106.276
 14:13:49.427,eb:33:2e:f9:57:b5, 2085-97-116 00:40:00:2020,0.056,0.019,0.986,0.732,-0.061,-3.052,0.434,-3.516,-106.309
 14:13:49.427,eb:33:2e:f9:57:b5, 2085-97-116 00:39:00:2023,0.058,0.019,0.986,0.793,-0.732,-3.418,0.445,-3.521,-106.342
 14:13:49.427,eb:33:2e:f9:57:b5, 2085-97-123 00:37:00:2028,0.062,0.02,0.988,0.854,-1.221,-3.479,0.456,-3.532,-106.381
 14:13:49.427,eb:33:2e:f9:57:b5, 2085-97-125 00:39:00:2029,0.061,0.019,0.992,0.916,-0.732,-3.296,0.467,-3.543,-106.414
 14:13:49.427,eb:33:2e:f9:57:b5, 2085-97-125 00:41:00:2030,0.063,0.019,0.991,0.977,-0.854,-3.113,0.478,-3.549,-106.447
 14:13:49.427,eb:33:2e:f9:57:b5, 2085-97-133 00:44:00:2031,0.065,0.021,0.991,0.977,-0.732,-2.869,0.489,-3.56,-106.479
 14:13:49.427,eb:33:2e:f9:57:b5, 2085-97-134 00:41:00:2033,0.066,0.021,0.992,1.038,-0.732,-2.991,0.5,-3.565,-106.512
 14:13:49.486,eb:33:2e:f9:57:b5, 2085-97-132 00:41:00:2035,0.065,0.02,0.994,1.038,-0.122,-2.625,0.511,-3.571,-106.54
 14:13:49.486,eb:33:2e:f9:57:b5, 2085-97-128 00:44:00:2029,0.065,0.021,0.993,1.038,0.183,-2.197,0.522,-3.571,-106.567
 14:13:49.486,eb:33:2e:f9:57:b5, 2085-97-128 00:36:00:2034,0.064,0.021,0.996,1.16,0.427,-2.014,0.538,-3.571,-106.589
 14:13:49.486,eb:33:2e:f9:57:b5, 2085-97-127 00:35:00:2034,0.063,0.017,0.995,1.343,1.282,-1.099,0.549,-3.56,-106.606
 14:13:49.517,eb:33:2e:f9:57:b5, 2085-97-127 00:43:00:2028,0.058,0.019,0.992,1.282,2.014,-0.183,0.566,-3.543,-106.611
 14:13:49.517,eb:33:2e:f9:57:b5, 2085-97-113 00:47:00:2016,0.055,0.023,0.986,1.16,1.953,-0.061,0.577,-3.527,-106.611
 14:13:49.517,eb:33:2e:f9:57:b5, 2085-97-111 00:44:00:2015,0.056,0.022,0.984,0.854,1.282,0,0.588,-3.51,-106.611
 14:13:49.517,eb:33:2e:f9:57:b5, 2085-97-119 00:45:00:2023,0.059,0.021,0.985,0.488,0.671,0,0.593,-3.505,-106.617
 14:13:49.547,eb:33:2e:f9:57:b5, 2085-97-121 00:43:00:2026,0.058,0.021,0.989,0.244,0.732,0.305,0.599,-3.494,-106.617
 14:13:49.547,eb:33:2e:f9:57:b5, 2085-97-120 00:43:00:2027,0.06,0.02,0.989,0.122,0.793,0.793,0.599,-3.488,-106.611
 14:13:49.547,eb:33:2e:f9:57:b5, 2085-97-124 00:45:00:2029,0.061,0.022,0.99,0.061,0.854,0.977,0.599,-3.483,-106.6
 14:13:49.547,eb:33:2e:f9:57:b5, 2085-97-123 00:42:00:2031,0.061,0.021,0.993,0.183,1.038,1.282,0.599,-3.472,-106.589
 14:13:49.607,eb:33:2e:f9:57:b5, 2085-97-123 00:45:00:2029,0.059,0.022,0.992,0.122,1.404,1.77,0.599,-3.461,-106.573
 14:13:49.607,eb:33:2e:f9:57:b5, 2085-97-124 00:48:00:2028,0.062,0.022,0.989,0,1.526,1.953,0.599,-3.45,-106.556
 14:13:49.607,eb:33:2e:f9:57:b5, 2085-97-128 00:47:00:2033,0.062,0.023,0.992,-0.061,1.587,1.77,0.599,-3.433,-106.534
 14:13:49.607,eb:33:2e:f9:57:b5, 2085-97-128 00:47:00:2038,0.062,0.022,0.994,0,2.075,1.953,0.593,-3.417,-106.518
 14:13:49.637,eb:33:2e:f9:57:b5, 2085-97-123 00:47:00:2028,0.058,0.022,0.993,0,2.747,2.197,0.593,-3.389,-106.496
 14:13:49.637,eb:33:2e:f9:57:b5, 2085-97-117 00:48:00:2024,0.058,0.023,0.989,0,2.502,1.892,0.593,-3.367,-106.474
 14:13:49.637,eb:33:2e:f9:57:b5, 2085-97-123 00:47:00:2030,0.06,0.023,0.99,0,2.258,1.648,0.593,-3.345,-106.458
 14:13:49.637,eb:33:2e:f9:57:b5, 2085-97-120 00:45:00:2030,0.058,0.022,0.992,0,2.38,1.77,0.593,-3.323,-106.441
 14:13:49.667,eb:33:2e:f9:57:b5, 2085-97-117 00:46:00:2026,0.056,0.022,0.99,-0.061,2.502,1.831,0.588,-3.296,-106.425
 14:13:49.667,eb:33:2e:f9:57:b5, 2085-97-113 00:49:00:2019,0.055,0.023,0.987,-0.244,2.197,1.526,0.588,-3.274,-106.408
 14:13:49.667,eb:33:2e:f9:57:b5, 2085-97-116 00:39:00:2028,0.057,0.021,0.988,-0.183,1.343,1.038,0.582,-3.257,-106.397
 14:13:49.667,eb:33:2e:f9:57:b5, 2085-97-122 00:44:00:2035,0.058,0.02,0.992,-0.183,1.526,1.526,0.582,-3.246,-106.381
 14:13:49.727,eb:33:2e:f9:57:b5, 2085-97-114 00:45:00:2027,0.053,0.021,0.993,-0.244,2.014,2.075,0.577,-3.23,-106.364
 14:13:49.727,eb:33:2e:f9:57:b5, 2085-97-113 00:45:00:2030,0.058,0.022,0.988,-0.366,1.953,2.075,0.571,-3.208,-106.342
 14:13:49.727,eb:33:2e:f9:57:b5, 2085-97-119 00:38:00:2040,0.056,0.021,0.996,-0.366,2.258,2.38,0.566,-3.192,-106.326
 14:13:49.727,eb:33:2e:f9:57:b5, 2085-97-107 00:42:00:2029,0.05,0.019,0.994,-0.305,3.418,3.418,0.56,-3.164,-106.293
 14:13:49.756,eb:33:2e:f9:57:b5, 2085-97-103 00:47:00:2023,0.051,0.021,0.989,-0.305,3.357,3.601,0.555,-3.126,-106.254
 14:13:49.756,eb:33:2e:f9:57:b5, 2085-97-106 00:49:00:2023,0.052,0.023,0.988,-0.549,2.93,3.296,0.549,-3.098,-106.221
 14:13:49.756,eb:33:2e:f9:57:b5, 2085-97-111 00:47:00:2026,0.054,0.023,0.988,-0.61,2.38,2.747,0.538,-3.071,-106.194
 14:13:49.756,eb:33:2e:f9:57:b5, 2085-97-110 00:47:00:2029,0.054,0.023,0.991,-0.61,2.014,2.258,0.533,-3.054,-106.166
 14:13:49.785,eb:33:2e:f9:57:b5, 2085-97-108 00:44:00:2029,0.052,0.023,0.991,-0.61,1.892,1.953,0.522,-3.032,-106.15
 14:13:49.785,eb:33:2e:f9:57:b5, 2085-97-105 00:45:00:2027,0.051,0.022,0.99,-0.549,1.648,1.709,0.516,-3.016,-106.128
 14:13:49.785,eb:33:2e:f9:57:b5, 2085-97-106 00:42:00:2028,0.053,0.021,0.99,-0.549,1.16,1.404,0.511,-3.005,-106.117
 14:13:49.785,eb:33:2e:f9:57:b5, 2085-97-112 00:38:00:2036,0.055,0.021,0.992,-0.488,0.977,1.282,0.505,-2.994,-106.1
 14:13:49.846,eb:33:2e:f9:57:b5, 2085-97-115 00:36:00:2039,0.056,0.018,0.995,-0.305,1.343,1.709,0.5,-2.983,-106.089
 14:13:49.846,eb:33:2e:f9:57:b5, 2085-97-109 00:39:00:2037,0.051,0.019,0.996,-0.183,2.258,2.258,0.494,-2.966,-106.068
 14:13:49.846,eb:33:2e:f9:57:b5, 2085-97-101 00:43:00:2026,0.047,0.02,0.992,-0.122,2.93,2.686,0.494,-2.944,-106.04
 14:13:49.846,eb:33:2e:f9:57:b5, 2085-97-94 00:43:00:2023,0.047,0.021,0.987,-0.183,2.625,2.441,0.489,-2.917,-106.018
 14:13:49.877,eb:33:2e:f9:57:b5, 2085-97-99 00:43:00:2029,0.05,0.021,0.988,-0.183,2.075,2.075,0.483,-2.895,-105.996
 14:13:49.877,eb:33:2e:f9:57:b5, 2085-97-102 00:43:00:2029,0.05,0.022,0.991,-0.122,1.892,1.831,0.483,-2.873,-105.974
 14:13:49.877,eb:33:2e:f9:57:b5, 2085-97-102 00:45:00:2028,0.049,0.021,0.992,-0.183,1.77,1.648,0.478,-2.856,-105.958
 14:13:49.877,eb:33:2e:f9:57:b5, 2085-97-101 00:45:00:2026,0.049,0.021,0.99,-0.061,1.465,1.282,0.478,-2.84,-105.947
 14:13:49.936,eb:33:2e:f9:57:b5, 2085-97-101 00:45:00:2029,0.05,0.022,0.99,-0.183,0.977,0.793,0.472,-2.829,-105.936
 14:13:49.936,eb:33:2e:f9:57:b5, 2085-97-103 00:44:00:2030,0.051,0.021,0.991,-0.122,0.61,0.549,0.472,-2.823,-105.93
 14:13:49.936,eb:33:2e:f9:57:b5, 2085-97-102 00:44:00:2027,0.048,0.021,0.991,-0.183,0.488,0.305,0.472,-2.818,-105.925
 14:13:49.936,eb:33:2e:f9:57:b5, 2085-97-100 00:40:00:2030,0.048,0.021,0.991,-0.183,0.183,0.061,0.467,-2.818,-105.925
 14:13:49.996,eb:33:2e:f9:57:b5, 2085-97-99 00:41:00:2030,0.048,0.019,0.992,-0.183,0.305,0.244,0.467,-2.812,-105.925
 14:13:49.996,eb:33:2e:f9:57:b5, 2085-97-99 00:39:00:2029,0.047,0.021,0.991,-0.122,0.183,0.122,0.467,-2.812,-105.925
 14:13:49.996,eb:33:2e:f9:57:b5, 2085-97-99 00:39:00:2030,0.047,0.019,0.991,-0.122,0.305,0.366,0.461,-2.812,-105.919
 14:13:49.996,eb:33:2e:f9:57:b5, 2085-97-96 00:43:00:2027,0.046,0.021,0.99,-0.122,0.305,0.427,0.461,-2.807,-105.919
 14:13:49.998,eb:33:2e:f9:57:b5, 2085-97-94 00:40:00:2027,0.048,0.02,0.989,-0.244,0,0.366,0.456,-2.807,-105.914
 14:13:49.998,eb:33:2e:f9:57:b5, 2085-97-100 00:40:00:2032,0.05,0.02,0.991,-0.244,-0.122,0.366,0.456,-2.807,-105.908
 14:13:49.998,eb:33:2e:f9:57:b5, 2085-97-102 00:42:00:2031,0.049,0.02,0.992,-0.244,0,0.305,0.45,-2.812,-105.908
 14:13:49.998,eb:33:2e:f9:57:b5, 2085-97-100 00:42:00:2029,0.048,0.021,0.991,-0.244,0,0.244,0.45,-2.812,-105.908
 14:13:50.087,eb:33:2e:f9:57:b5, 2085-97-101 00:43:00:2031,0.051,0.02,0.991,-0.183,-0.183,0.061,0.445,-2.812,-105.903
 14:13:50.087,eb:33:2e:f9:57:b5, 2085-97-105 00:42:00:2033,0.05,0.02,0.993,-0.183,-0.061,0,0.445,-2.812,-105.908
 14:13:50.087,eb:33:2e:f9:57:b5, 2085-97-102 00:43:00:2029,0.048,0.021,0.993,-0.061,0,-0.061,0.445,-2.818,-105.908
 14:13:50.087,eb:33:2e:f9:57:b5, 2085-97-100 00:40:00:2027,0.049,0.021,0.99,-0.122,-0.244,-0.305,0.439,-2.818,-105.908
 14:13:50.087,eb:33:2e:f9:57:b5, 2085-97-101 00:41:00:2031,0.05,0.02,0.991,0,-0.427,-0.427,0.439,-2.823,-105.914
 14:13:50.087,eb:33:2e:f9:57:b5, 2085-97-102 00:41:00:2031,0.049,0.02,0.992,-0.061,-0.366,-0.488,0.439,-2.829,-105.919
 14:13:50.087,eb:33:2e:f9:57:b5, 2085-97-99 00:40:00:2031,0.05,0.02,0.992,-0.061,-0.366,-0.488,0.439,-2.834,-105.93
 14:13:50.088,eb:33:2e:f9:57:b5, 2085-97-104 00:36:00:2036,0.051,0.019,0.992,0,-0.366,-0.61,0.439,-2.84,-105.936
 14:13:50.146,eb:33:2e:f9:57:b5, 2085-97-103 00:38:00:2034,0.049,0.018,0.994,0.122,0,-0.305,0.439,-2.84,-105.941
 14:13:50.146,eb:33:2e:f9:57:b5, 2085-97-97 00:41:00:2030,0.048,0.019,0.992,0.122,0.305,0,0.439,-2.84,-105.941
 14:13:50.146,eb:33:2e:f9:57:b5, 2085-97-101 00:43:00:2025,0.048,0.02,0.992,0.061,0.488,0,0.445,-2.834,-105.947
 14:13:50.146,eb:33:2e:f9:57:b5, 2085-97-105 00:38:00:2036,0.048,0.019,0.989,0.183,-0.061,0,0.445,-2.834,-105.947
 14:13:50.177,eb:33:2e:f9:57:b5, 2085-97-100 00:41:00:2031,0.047,0.02,0.99,0.122,0.244,0.183,0.445,-2.834,-105.947
 14:13:50.177,eb:33:2e:f9:57:b5, 2085-97-93 00:44:00:2021,0.047,0.021,0.989,0,0.305,0.122,0.445,-2.829,-105.941
 14:13:50.177,eb:33:2e:f9:57:b5, 2085-97-94 00:42:00:2022,0.048,0.021,0.988,-0.122,-0.244,-0.244,0.445,-2.829,-105.947
 14:13:50.177,eb:33:2e:f9:57:b5, 2085-97-103 00:42:00:2031,0.05,0.021,0.991,-0.122,-0.732,-0.549,0.445,-2.84,-105.952
 14:13:50.206,eb:33:2e:f9:57:b5, 2085-97-101 00:41:00:2032,0.048,0.02,0.993,-0.061,-0.549,-0.61,0.445,-2.845,-105.958
 14:13:50.206,eb:33:2e:f9:57:b5, 2085-97-99 00:42:00:2026,0.049,0.021,0.991,0,-0.549,-0.732,0.445,-2.851,-105.969
 14:13:50.206,eb:33:2e:f9:57:b5, 2085-97-103 00:40:00:2031,0.053,0.021,0.991,0,-0.732,-0.977,0.445,-2.856,-105.974
 14:13:50.206,eb:33:2e:f9:57:b5, 2085-97-110 00:42:00:2038,0.054,0.021,0.993,0.183,-0.854,-1.16,0.445,-2.867,-105.991
 14:13:50.206,eb:33:2e:f9:57:b5, 2085-113-58 00:226:225:-2160,0.054,0.021,0.994,0.244,-0.366,-1.16,0.45,-2.873,-106.002
 14:13:50.237,eb:33:2e:f9:57:b5, 2085-97-104 00:40:00:2031,0.05,0.02,0.995,0.305,0,-1.038,0.45,-2.873,-106.007
 14:13:50.237,eb:33:2e:f9:57:b5, 2085-97-100 00:41:00:2030,0.049,0.02,0.992,0.366,0,-0.916,0.456,-2.878,-106.018
 14:13:50.237,eb:33:2e:f9:57:b5, 2085-97-99 00:41:00:2027,0.048,0.02,0.991,0.305,0,-0.977,0.456,-2.878,-106.029
 14:13:50.237,eb:33:2e:f9:57:b5, 2085-97-99 00:40:00:2026,0.049,0.02,0.991,0.366,-0.122,-1.099,0.461,-2.878,-106.04
 14:13:50.297,eb:33:2e:f9:57:b5, 2085-97-104 00:42:00:2031,0.049,0.02,0.992,0.305,-0.427,-0.977,0.467,-2.884,-106.051
 14:13:50.297,eb:33:2e:f9:57:b5, 2085-97-104 00:41:00:2033,0.051,0.021,0.991,0.366,-0.427,-1.038,0.472,-2.889,-106.062
 14:13:50.297,eb:33:2e:f9:57:b5, 2085-97-104 00:41:00:2031,0.05,0.02,0.992,0.366,-0.122,-0.916,0.472,-2.889,-106.073
 14:13:50.297,eb:33:2e:f9:57:b5, 2085-97-102 00:42:00:2029,0.049,0.021,0.991,0.305,0,-0.732,0.478,-2.895,-106.084
 14:13:50.326,eb:33:2e:f9:57:b5, 2085-97-99 00:41:00:2030,0.05,0.021,0.99,0.305,-0.122,-0.549,0.483,-2.895,-106.089
 14:13:50.326,eb:33:2e:f9:57:b5, 2085-97-103 00:43:00:2031,0.049,0.021,0.992,0.183,-0.061,-0.427,0.483,-2.895,-106.095
 14:13:50.326,eb:33:2e:f9:57:b5, 2085-97-100 00:42:00:2028,0.049,0.021,0.991,0.183,-0.122,-0.244,0.489,-2.9,-106.1
 14:13:50.327,eb:33:2e:f9:57:b5, 2085-97-103 00:43:00:2033,0.05,0.021,0.99,0.244,-0.244,-0.427,0.489,-2.9,-106.106
 14:13:50.356,eb:33:2e:f9:57:b5, 2085-97-108 00:43:00:2038,0.053,0.021,0.99,0.244,-0.366,-0.366,0.494,-2.906,-106.111
 14:13:50.356,eb:33:2e:f9:57:b5, 2085-97-106 00:44:00:2032,0.051,0.021,0.994,0.244,0.061,-0.183,0.494,-2.906,-106.117
 14:13:50.356,eb:33:2e:f9:57:b5, 2085-97-102 00:42:00:2028,0.049,0.021,0.993,0.244,0.244,-0.061,0.5,-2.906,-106.117
 14:13:50.356,eb:33:2e:f9:57:b5, 2085-97-101 00:44:00:2028,0.049,0.021,0.99,0.183,0.061,-0.061,0.5,-2.906,-106.122
 14:13:50.416,eb:33:2e:f9:57:b5, 2085-97-98 00:42:00:2027,0.048,0.021,0.99,0.122,-0.061,0,0.505,-2.906,-106.122
 14:13:50.416,eb:33:2e:f9:57:b5, 2085-97-100 00:42:00:2029,0.05,0.021,0.99,0,-0.244,0,0.505,-2.906,-106.122
 14:13:50.416,eb:33:2e:f9:57:b5, 2085-97-104 00:44:00:2032,0.052,0.021,0.992,0.061,-0.366,-0.061,0.505,-2.911,-106.128
 14:13:50.416,eb:33:2e:f9:57:b5, 2085-97-106 00:44:00:2031,0.053,0.021,0.992,0.122,-0.244,-0.061,0.505,-2.917,-106.128
 14:13:50.447,eb:33:2e:f9:57:b5, 2085-97-106 00:44:00:2033,0.05,0.021,0.993,0.183,-0.183,-0.122,0.505,-2.917,-106.128
 14:13:50.447,eb:33:2e:f9:57:b5, 2085-97-104 00:46:00:2031,0.05,0.021,0.992,0.244,0,-0.061,0.511,-2.922,-106.133
 14:13:50.447,eb:33:2e:f9:57:b5, 2085-97-102 00:44:00:2030,0.048,0.022,0.99,0.366,0,-0.122,0.511,-2.922,-106.133
 14:13:50.447,eb:33:2e:f9:57:b5, 2085-97-99 00:46:00:2027,0.049,0.021,0.99,0.305,0,-0.061,0.516,-2.922,-106.133
 14:13:50.477,eb:33:2e:f9:57:b5, 2085-97-100 00:46:00:2029,0.05,0.022,0.99,0.305,-0.305,-0.183,0.522,-2.922,-106.139
 14:13:50.477,eb:33:2e:f9:57:b5, 2085-97-101 00:44:00:2024,0.05,0.021,0.99,0.122,-0.366,-0.122,0.522,-2.928,-106.139
 14:13:50.477,eb:33:2e:f9:57:b5, 2085-97-105 00:46:00:2030,0.052,0.021,0.99,0.122,-0.61,-0.244,0.522,-2.933,-106.144
 14:13:50.477,eb:33:2e:f9:57:b5, 2085-97-105 00:44:00:2032,0.05,0.021,0.993,0.122,-0.366,-0.305,0.522,-2.939,-106.15
 14:13:50.536,eb:33:2e:f9:57:b5, 2085-97-101 00:44:00:2030,0.05,0.022,0.991,0.122,-0.305,-0.244,0.527,-2.944,-106.15
 14:13:50.536,eb:33:2e:f9:57:b5, 2085-97-100 00:44:00:2030,0.051,0.021,0.991,0,-0.305,-0.183,0.527,-2.95,-106.155
 14:13:50.537,eb:33:2e:f9:57:b5, 2085-97-105 00:43:00:2032,0.052,0.021,0.992,0,-0.305,-0.061,0.527,-2.955,-106.155
 14:13:50.537,eb:33:2e:f9:57:b5, 2085-97-104 00:42:00:2032,0.05,0.021,0.993,0,-0.122,0.061,0.527,-2.955,-106.161
 14:13:50.597,eb:33:2e:f9:57:b5, 2085-97-104 00:45:00:2030,0.051,0.021,0.991,0,-0.061,0.183,0.527,-2.961,-106.161
 14:13:50.597,eb:33:2e:f9:57:b5, 2085-97-104 00:45:00:2030,0.052,0.022,0.991,0,-0.122,0.122,0.527,-2.961,-106.155
 14:13:50.597,eb:33:2e:f9:57:b5, 2085-97-109 00:44:00:2035,0.054,0.022,0.992,0.061,-0.122,0,0.527,-2.961,-106.155
 14:13:50.597,eb:33:2e:f9:57:b5, 2085-97-109 00:45:00:2034,0.052,0.022,0.993,0.122,0.122,0.122,0.527,-2.966,-106.155
 14:13:50.599,eb:33:2e:f9:57:b5, 2085-97-105 00:46:00:2031,0.051,0.022,0.993,0.183,0.366,0.183,0.527,-2.961,-106.155
 14:13:50.599,eb:33:2e:f9:57:b5, 2085-97-103 00:44:00:2032,0.049,0.021,0.991,0.183,0.366,0.244,0.533,-2.961,-106.155
 14:13:50.599,eb:33:2e:f9:57:b5, 2085-97-103 00:45:00:2032,0.049,0.022,0.991,0.183,0.427,0.305,0.533,-2.955,-106.155
 14:13:50.599,eb:33:2e:f9:57:b5, 2085-97-100 00:45:00:2028,0.048,0.021,0.991,0.183,0.427,0.427,0.533,-2.95,-106.15
 14:13:50.686,eb:33:2e:f9:57:b5, 2085-97-100 00:46:00:2026,0.05,0.022,0.989,0.061,0.244,0.427,0.533,-2.95,-106.144
 14:13:50.686,eb:33:2e:f9:57:b5, 2085-97-105 00:46:00:2029,0.052,0.023,0.99,0.061,0,0.366,0.538,-2.95,-106.144
 14:13:50.686,eb:33:2e:f9:57:b5, 2085-97-105 00:45:00:2032,0.053,0.022,0.991,0.061,0,0.122,0.538,-2.95,-106.144
 14:13:50.686,eb:33:2e:f9:57:b5, 2085-97-108 00:47:00:2031,0.053,0.022,0.993,0,0.183,0.183,0.538,-2.95,-106.139
 14:13:50.688,eb:33:2e:f9:57:b5, 2085-97-106 00:45:00:2032,0.05,0.022,0.992,0.061,0.366,0.244,0.538,-2.944,-106.139
 14:13:50.688,eb:33:2e:f9:57:b5, 2085-97-103 00:45:00:2027,0.05,0.022,0.991,0.061,0.305,0.244,0.538,-2.944,-106.139
 14:13:50.688,eb:33:2e:f9:57:b5, 2085-97-100 00:45:00:2028,0.048,0.022,0.99,0,0.305,0.244,0.538,-2.939,-106.133
 14:13:50.688,eb:33:2e:f9:57:b5, 2085-97-100 00:45:00:2027,0.048,0.022,0.989,0,0.122,0.244,0.538,-2.939,-106.133
 14:13:50.717,eb:33:2e:f9:57:b5, 2085-97-101 00:43:00:2030,0.051,0.021,0.991,0,0.061,0.305,0.538,-2.939,-106.133
 14:13:50.717,eb:33:2e:f9:57:b5, 2085-97-105 00:44:00:2032,0.051,0.021,0.993,-0.061,0.122,0.488,0.538,-2.939,-106.128
 14:13:50.717,eb:33:2e:f9:57:b5, 2085-97-105 00:45:00:2031,0.05,0.021,0.992,0,0.305,0.671,0.538,-2.939,-106.122
 14:13:50.717,eb:33:2e:f9:57:b5, 2085-97-102 00:46:00:2028,0.049,0.023,0.991,-0.061,0.366,0.732,0.533,-2.933,-106.117
 14:13:50.778,eb:33:2e:f9:57:b5, 2085-97-100 00:45:00:2029,0.048,0.021,0.99,-0.061,0.366,0.671,0.533,-2.928,-106.111
 14:13:50.778,eb:33:2e:f9:57:b5, 2085-97-103 00:46:00:2028,0.051,0.022,0.99,-0.122,0.244,0.732,0.533,-2.928,-106.106
 14:13:50.778,eb:33:2e:f9:57:b5, 2085-97-103 00:45:00:2027,0.05,0.022,0.99,-0.244,0.183,0.61,0.527,-2.928,-106.095
 14:13:50.778,eb:33:2e:f9:57:b5, 2085-97-104 00:45:00:2031,0.051,0.023,0.991,-0.183,0.122,0.488,0.527,-2.922,-106.095
 14:13:50.808,eb:33:2e:f9:57:b5, 2085-97-104 00:46:00:2030,0.051,0.022,0.992,-0.244,0.061,0.366,0.522,-2.922,-106.089
 14:13:50.808,eb:33:2e:f9:57:b5, 2085-97-103 00:45:00:2032,0.05,0.021,0.992,-0.183,0.122,0.305,0.522,-2.922,-106.084
 14:13:50.808,eb:33:2e:f9:57:b5, 2085-97-103 00:46:00:2029,0.051,0.021,0.991,-0.244,0.183,0.305,0.516,-2.922,-106.084
 14:13:50.808,eb:33:2e:f9:57:b5, 2085-113-58 00:44:227:-1785,0.05,0.022,0.99,-0.244,0.122,0.183,0.516,-2.922,-106.084
 14:13:50.837,eb:33:2e:f9:57:b5, 2085-97-102 00:45:00:2029,0.05,0.022,0.991,-0.244,0,0.122,0.516,-2.922,-106.084
 14:13:50.837,eb:33:2e:f9:57:b5, 2085-97-103 00:44:00:2034,0.049,0.022,0.991,-0.183,0.061,0.244,0.511,-2.922,-106.078
 14:13:50.837,eb:33:2e:f9:57:b5, 2085-97-103 00:43:00:2030,0.051,0.021,0.991,-0.183,0.061,0.122,0.511,-2.922,-106.078
 14:13:50.837,eb:33:2e:f9:57:b5, 2085-97-103 00:43:00:2032,0.05,0.021,0.992,-0.183,0.183,0.244,0.505,-2.922,-106.078
 14:13:50.896,eb:33:2e:f9:57:b5, 2085-97-100 00:42:00:2030,0.049,0.021,0.992,-0.183,0.244,0.427,0.505,-2.922,-106.073
 14:13:50.896,eb:33:2e:f9:57:b5, 2085-97-100 00:43:00:2030,0.049,0.021,0.991,-0.183,0.244,0.427,0.5,-2.917,-106.068
 14:13:50.896,eb:33:2e:f9:57:b5, 2085-97-101 00:45:00:2029,0.049,0.021,0.991,-0.244,0.244,0.427,0.5,-2.917,-106.068
 14:13:50.896,eb:33:2e:f9:57:b5, 2085-97-102 00:44:00:2027,0.049,0.021,0.99,-0.244,0.244,0.427,0.494,-2.911,-106.062
 14:13:50.957,eb:33:2e:f9:57:b5, 2085-97-101 00:44:00:2027,0.049,0.021,0.99,-0.305,0.061,0.366,0.489,-2.911,-106.057
 14:13:50.957,eb:33:2e:f9:57:b5, 2085-97-102 00:44:00:2028,0.05,0.021,0.99,-0.305,0.061,0.305,0.489,-2.911,-105.969
 14:13:50.957,eb:33:2e:f9:57:b5, 2085-97-102 00:46:00:2028,0.05,0.021,0.99,-0.427,0,0.183,0.489,-2.917,-105.952
 14:13:50.957,eb:33:2e:f9:57:b5, 2085-97-105 00:43:00:2033,0.051,0.022,0.991,-0.305,-0.061,0.061,0.489,-2.917,-105.864
 14:13:50.959,eb:33:2e:f9:57:b5, 2085-97-105 00:42:00:2033,0.05,0.021,0.993,-0.244,0,0,0.489,-2.917,-105.864
 14:13:50.959,eb:33:2e:f9:57:b5, 2085-97-103 00:41:00:2029,0.05,0.021,0.992,-0.183,0.122,0.061,0.489,-2.917,-105.787
 14:13:50.959,eb:33:2e:f9:57:b5, 2085-97-99 00:42:00:2028,0.048,0.021,0.99,-0.244,0.122,0.122,0.489,-2.917,-105.787
 14:13:50.959,eb:33:2e:f9:57:b5, 2085-97-102 00:44:00:2030,0.05,0.021,0.99,-0.183,0,0.122,0.489,-2.917,-105.71
 14:13:51.016,eb:33:2e:f9:57:b5, 2085-97-103 00:43:00:2030,0.05,0.021,0.992,-0.183,0,0.061,0.489,-2.917,-105.71
 14:13:51.016,eb:33:2e:f9:57:b5, 2085-97-103 00:44:00:2033,0.052,0.021,0.991,-0.061,0,0,0.489,-2.917,-105.634
 14:13:51.016,eb:33:2e:f9:57:b5, 2085-97-104 00:42:00:2032,0.05,0.021,0.992,0,0.122,0,0.489,-2.917,-105.634
 14:13:51.016,eb:33:2e:f9:57:b5, 2085-97-99 00:42:00:2029,0.049,0.021,0.992,0,0.183,0,0.489,-2.917,-105.568
 14:13:51.137,eb:33:2e:f9:57:b5, 2085-97-99 00:41:00:2029,0.049,0.02,0.989,0,0.061,0,0.489,-2.917,-105.568
 14:13:51.137,eb:33:2e:f9:57:b5, 2085-97-102 00:45:00:2030,0.05,0.021,0.991,0,0,0.061,0.483,-2.917,-105.502
 14:13:51.137,eb:33:2e:f9:57:b5, 2085-97-100 00:43:00:2031,0.048,0.021,0.993,0,0.061,0.061,0.483,-2.917,-105.502
 14:13:51.137,eb:33:2e:f9:57:b5, 2085-97-100 00:44:00:2029,0.049,0.021,0.991,-0.061,0,0.122,0.483,-2.917,-105.436
 14:13:51.167,eb:33:2e:f9:57:b5, 2085-97-102 00:45:00:2031,0.05,0.021,0.991,-0.061,-0.061,0.122,0.483,-2.917,-105.436
 14:13:51.167,eb:33:2e:f9:57:b5, 2085-97-104 00:42:00:2031,0.051,0.021,0.992,-0.061,0,0.061,0.483,-2.917,-105.375
 14:13:51.167,eb:33:2e:f9:57:b5, 2085-97-103 00:40:00:2031,0.051,0.02,0.992,-0.061,0.061,0.183,0.483,-2.917,-105.375
 14:13:51.167,eb:33:2e:f9:57:b5, 2085-97-104 00:44:00:2031,0.05,0.021,0.992,-0.061,0.122,0.061,0.483,-2.917,-105.315
 14:13:51.169,eb:33:2e:f9:57:b5, 2085-97-102 00:43:00:2029,0.049,0.021,0.992,-0.061,0.244,0.061,0.483,-2.917,-105.315
 14:13:51.169,eb:33:2e:f9:57:b5, 2085-97-100 00:43:00:2028,0.049,0.021,0.991,-0.122,0.183,0.061,0.483,-2.917,-105.26
 14:13:51.169,eb:33:2e:f9:57:b5, 2085-97-99 00:42:00:2029,0.049,0.021,0.991,-0.122,0.122,0.122,0.483,-2.911,-105.26
 14:13:51.169,eb:33:2e:f9:57:b5, 2085-97-100 00:43:00:2028,0.05,0.021,0.991,-0.122,0.122,0.122,0.483,-2.911,-105.211
 14:13:51.195,eb:33:2e:f9:57:b5, 2085-97-100 00:41:00:2028,0.049,0.021,0.991,-0.122,0.122,0.122,0.483,-2.911,-105.205
 14:13:51.195,eb:33:2e:f9:57:b5, 2085-97-102 00:41:00:2030,0.05,0.02,0.991,-0.183,0.061,0.122,0.483,-2.911,-105.156
 14:13:51.195,eb:33:2e:f9:57:b5, 2085-97-103 00:41:00:2032,0.05,0.021,0.992,-0.122,0.122,0.244,0.483,-2.911,-105.156
 14:13:51.195,eb:33:2e:f9:57:b5, 2085-97-99 00:43:00:2030,0.048,0.021,0.992,-0.122,0.244,0.366,0.483,-2.911,-105.106
 14:13:51.256,eb:33:2e:f9:57:b5, 2085-97-100 00:43:00:2029,0.049,0.022,0.991,-0.122,0.183,0.244,0.483,-2.911,-105.106
 14:13:51.256,eb:33:2e:f9:57:b5, 2085-97-101 00:42:00:2027,0.049,0.021,0.991,-0.122,0.183,0.183,0.483,-2.911,-105.062
 14:13:51.256,eb:33:2e:f9:57:b5, 2085-97-100 00:43:00:2026,0.05,0.021,0.99,-0.183,0.061,0.061,0.483,-2.911,-105.062
 14:13:51.256,eb:33:2e:f9:57:b5, 2085-97-104 00:43:00:2031,0.051,0.021,0.991,-0.183,0,0,0.483,-2.911,-105.013
 14:13:51.258,eb:33:2e:f9:57:b5, 2085-97-101 00:44:00:2029,0.05,0.021,0.992,-0.122,0.061,0,0.483,-2.911,-105.013
 14:13:51.258,eb:33:2e:f9:57:b5, 2085-97-102 00:42:00:2029,0.05,0.021,0.992,-0.122,0.061,-0.122,0.483,-2.911,-104.969
 14:13:51.258,eb:33:2e:f9:57:b5, 2085-97-102 00:42:00:2031,0.049,0.021,0.992,-0.183,0,-0.122,0.483,-2.911,-104.969
 14:13:51.258,eb:33:2e:f9:57:b5, 2085-97-102 00:43:00:2032,0.05,0.021,0.991,-0.183,0,-0.122,0.483,-2.911,-104.93
 14:13:51.286,eb:33:2e:f9:57:b5, 2085-97-100 00:41:00:2031,0.05,0.02,0.992,-0.183,0.061,-0.061,0.483,-2.911,-104.93
 14:13:51.286,eb:33:2e:f9:57:b5, 2085-97-100 00:41:00:2029,0.049,0.02,0.991,-0.183,0.061,0,0.483,-2.911,-104.886
 14:13:51.286,eb:33:2e:f9:57:b5, 2085-97-101 00:40:00:2030,0.049,0.021,0.991,-0.122,0.061,0,0.483,-2.911,-104.886
 14:13:51.286,eb:33:2e:f9:57:b5, 2085-97-102 00:42:00:2030,0.049,0.021,0.992,-0.122,0.061,0.122,0.483,-2.911,-104.848
 14:13:51.348,eb:33:2e:f9:57:b5, 2085-97-101 00:40:00:2031,0.05,0.02,0.991,-0.183,0.061,0.122,0.483,-2.911,-104.848
 14:13:51.348,eb:33:2e:f9:57:b5, 2085-97-101 00:41:00:2031,0.049,0.02,0.992,-0.122,0.122,0.183,0.483,-2.911,-104.81
 14:13:51.348,eb:33:2e:f9:57:b5, 2085-97-99 00:42:00:2030,0.049,0.02,0.991,-0.244,0.122,0.122,0.483,-2.911,-104.81
 14:13:51.348,eb:33:2e:f9:57:b5, 2085-97-101 00:43:00:2030,0.05,0.021,0.991,-0.183,0,0.122,0.483,-2.911,-104.777
 14:13:51.408,eb:33:2e:f9:57:b5, 2085-97-103 00:41:00:2032,0.05,0.02,0.992,-0.183,0,0.061,0.483,-2.911,-104.777
 14:13:51.408,eb:33:2e:f9:57:b5, 2085-97-101 00:41:00:2029,0.049,0.021,0.992,-0.122,0.122,0.061,0.478,-2.911,-104.738
 14:13:51.408,eb:33:2e:f9:57:b5, 2085-97-101 00:41:00:2029,0.05,0.019,0.991,-0.183,0.061,0.061,0.478,-2.911,-104.738
 14:13:51.408,eb:33:2e:f9:57:b5, 2085-97-103 00:45:00:2031,0.049,0.021,0.991,-0.122,0,0,0.478,-2.911,-104.705
 14:13:51.526,eb:33:2e:f9:57:b5, 2085-97-101 00:42:00:2030,0.048,0.021,0.991,-0.122,0,0,0.478,-2.906,-104.705
 14:13:51.526,eb:33:2e:f9:57:b5, 2085-97-102 00:42:00:2030,0.05,0.021,0.992,-0.122,0,-0.061,0.478,-2.906,-104.672
 14:13:51.526,eb:33:2e:f9:57:b5, 2085-97-100 00:41:00:2030,0.049,0.021,0.991,-0.183,-0.061,-0.061,0.478,-2.906,-104.672
 14:13:51.526,eb:33:2e:f9:57:b5, 2085-97-100 00:42:00:2030,0.049,0.021,0.99,-0.183,-0.061,-0.061,0.478,-2.906,-104.645
 14:13:51.676,eb:33:2e:f9:57:b5, 2085-97-101 00:41:00:2031,0.049,0.02,0.991,-0.183,-0.122,-0.061,0.478,-2.906,-104.639
 14:13:51.676,eb:33:2e:f9:57:b5, 2085-97-101 00:40:00:2030,0.05,0.02,0.991,-0.183,-0.122,-0.122,0.478,-2.906,-104.612
 14:13:51.676,eb:33:2e:f9:57:b5, 2085-97-103 00:40:00:2031,0.051,0.02,0.991,-0.183,-0.061,-0.122,0.478,-2.906,-104.612
 14:13:51.676,eb:33:2e:f9:57:b5, 2085-97-103 00:41:00:2030,0.05,0.021,0.992,-0.122,-0.061,-0.183,0.478,-2.906,-104.584
 14:13:51.765,eb:33:2e:f9:57:b5, 2085-97-103 00:40:00:2034,0.051,0.02,0.992,-0.122,-0.122,-0.183,0.478,-2.906,-104.579
 14:13:51.765,eb:33:2e:f9:57:b5, 2085-97-103 00:39:00:2032,0.05,0.02,0.993,-0.061,0,0,0.478,-2.906,-104.551
 14:13:51.765,eb:33:2e:f9:57:b5, 2085-97-102 00:41:00:2030,0.05,0.02,0.992,0,0.244,0.061,0.478,-2.906,-104.551
 14:13:51.765,eb:33:2e:f9:57:b5, 2085-97-101 00:41:00:2031,0.049,0.02,0.991,0,0.122,0.061,0.478,-2.906,-104.524
 14:13:51.856,eb:33:2e:f9:57:b5, 2085-97-99 00:41:00:2026,0.05,0.02,0.993,0,0.183,0.183,0.478,-2.906,-104.524
 14:13:51.856,eb:33:2e:f9:57:b5, 2085-97-100 00:42:00:2026,0.049,0.021,0.991,-0.122,0.305,0.122,0.478,-2.906,-104.496
 14:13:51.856,eb:33:2e:f9:57:b5, 2085-97-100 00:39:00:2030,0.05,0.021,0.992,-0.122,0,0.122,0.478,-2.906,-104.496
 14:13:51.856,eb:33:2e:f9:57:b5, 2085-97-101 00:41:00:2031,0.049,0.02,0.991,-0.183,0,0.061,0.478,-2.906,-104.474
 14:13:51.919,eb:33:2e:f9:57:b5, 2085-97-101 00:41:00:2030,0.05,0.021,0.992,-0.183,0,0.183,0.478,-2.906,-104.474
 14:13:51.920,eb:33:2e:f9:57:b5, 2085-97-101 00:41:00:2030,0.049,0.02,0.992,-0.122,0.061,0.122,0.478,-2.906,-104.447
 14:13:51.920,eb:33:2e:f9:57:b5, 2085-97-101 00:40:00:2030,0.049,0.021,0.992,-0.183,0.183,0.244,0.478,-2.906,-104.447
 14:13:51.920,eb:33:2e:f9:57:b5, 2085-97-100 00:39:00:2029,0.05,0.02,0.991,-0.122,0.122,0.244,0.478,-2.906,-104.42
 14:13:51.922,eb:33:2e:f9:57:b5, 2085-97-101 00:40:00:2030,0.05,0.02,0.991,-0.122,0.061,0.183,0.478,-2.906,-104.42
 14:13:51.922,eb:33:2e:f9:57:b5, 2085-97-102 00:40:00:2031,0.05,0.02,0.992,-0.122,0.061,0.244,0.478,-2.906,-104.398
 14:13:51.922,eb:33:2e:f9:57:b5, 2085-97-101 00:40:00:2032,0.049,0.02,0.992,-0.122,0.244,0.244,0.472,-2.906,-104.398
 14:13:51.922,eb:33:2e:f9:57:b5, 2085-97-102 00:42:00:2031,0.049,0.02,0.992,-0.183,0.183,0.244,0.472,-2.906,-104.376
 14:13:51.924,eb:33:2e:f9:57:b5, 2085-97-102 00:41:00:2031,0.049,0.021,0.992,-0.122,0.244,0.305,0.472,-2.906,-104.376
 14:13:51.924,eb:33:2e:f9:57:b5, 2085-97-103 00:42:00:2033,0.049,0.02,0.991,-0.122,0.244,0.366,0.472,-2.906,-104.354
 14:13:51.924,eb:33:2e:f9:57:b5, 2085-97-100 00:41:00:2030,0.048,0.02,0.991,-0.061,0.183,0.244,0.472,-2.9,-104.31
 14:13:51.924,eb:33:2e:f9:57:b5, 2085-97-99 00:39:00:2030,0.048,0.019,0.991,-0.061,0.244,0.244,0.472,-2.9,-104.288
 14:13:51.926,eb:33:2e:f9:57:b5, 2085-97-100 00:41:00:2029,0.049,0.02,0.992,-0.061,0.122,0.183,0.472,-2.9,-104.288
 14:13:51.926,eb:33:2e:f9:57:b5, 2085-97-101 00:39:00:2033,0.046,0.02,0.991,-0.061,0.122,0.122,0.472,-2.9,-104.266
 14:13:51.926,eb:33:2e:f9:57:b5, 2085-97-96 00:42:00:2028,0.046,0.02,0.989,0.061,0.427,0.305,0.467,-2.9,-104.189
 14:13:51.926,eb:33:2e:f9:57:b5, 2085-97-101 00:42:00:2032,0.048,0.02,0.989,0,0.122,0.122,0.467,-2.9,-104.172
 14:13:52.008,eb:33:2e:f9:57:b5, 2085-97-101 00:40:00:2030,0.048,0.019,0.992,0,0.244,0.122,0.467,-2.9,-104.172
 14:13:52.008,eb:33:2e:f9:57:b5, 2085-97-102 00:39:00:2030,0.05,0.02,0.991,0,0.244,0.122,0.467,-2.9,-104.156
 14:13:52.008,eb:33:2e:f9:57:b5, 2085-97-102 00:39:00:2031,0.049,0.019,0.993,-0.061,0,0,0.467,-2.895,-104.123
 14:13:52.008,eb:33:2e:f9:57:b5, 2085-97-101 00:37:00:2032,0.048,0.018,0.992,0,0.122,0,0.467,-2.895,-104.106
 14:13:52.037,eb:33:2e:f9:57:b5, 2085-97-97 00:39:00:2029,0.048,0.019,0.992,0,0.122,0.122,0.467,-2.895,-104.106
 14:13:52.037,eb:33:2e:f9:57:b5, 2085-97-100 00:39:00:2032,0.049,0.019,0.991,0,0,0,0.467,-2.895,-104.09
 14:13:52.037,eb:33:2e:f9:57:b5, 2085-97-99 00:38:00:2030,0.048,0.019,0.992,0,0,0,0.467,-2.895,-104.057
 14:13:52.037,eb:33:2e:f9:57:b5, 2085-97-99 00:39:00:2031,0.048,0.019,0.991,0,0,0,0.467,-2.895,-104.046
 14:13:52.039,eb:33:2e:f9:57:b5, 2085-97-98 00:39:00:2031,0.049,0.019,0.992,0,0.061,0.122,0.467,-2.895,-104.046
 14:13:52.039,eb:33:2e:f9:57:b5, 2085-97-98 00:39:00:2030,0.048,0.02,0.992,0,0,0.061,0.461,-2.895,-104.03
 14:13:52.039,eb:33:2e:f9:57:b5, 2085-97-100 00:41:00:2029,0.048,0.02,0.992,0,0,0.122,0.461,-2.895,-104.03
 14:13:52.039,eb:33:2e:f9:57:b5, 2085-97-100 00:39:00:2031,0.049,0.02,0.991,0,-0.061,0,0.461,-2.895,-104.013
 14:13:52.187,eb:33:2e:f9:57:b5, 2085-97-103 00:41:00:2032,0.05,0.02,0.992,0,-0.122,0,0.461,-2.895,-104.013
 14:13:52.187,eb:33:2e:f9:57:b5, 2085-97-102 00:41:00:2032,0.05,0.02,0.992,0,-0.122,-0.122,0.461,-2.895,-104.002
 14:13:52.187,eb:33:2e:f9:57:b5, 2085-113-81 00:203:78:-447,0.05,0.019,0.992,0.061,0,-0.183,0.461,-2.895,-104.002
 14:13:52.187,eb:33:2e:f9:57:b5, 2085-97-100 00:39:00:2032,0.048,0.019,0.993,0.061,0.061,-0.061,0.461,-2.895,-104.002
 14:13:52.187,eb:33:2e:f9:57:b5, 2085-97-98 00:39:00:2031,0.047,0.019,0.992,0.061,0.122,-0.061,0.461,-2.895,-103.986
 14:13:52.276,eb:33:2e:f9:57:b5, 2085-97-96 00:39:00:2029,0.048,0.02,0.99,0.061,0.061,0,0.461,-2.889,-103.986
 14:13:52.276,eb:33:2e:f9:57:b5, 2085-97-100 00:39:00:2031,0.048,0.019,0.99,0.061,0,0,0.461,-2.889,-103.975
 14:13:52.276,eb:33:2e:f9:57:b5, 2085-97-98 00:38:00:2029,0.047,0.02,0.992,0,0.061,0.061,0.461,-2.889,-103.975
 14:13:52.276,eb:33:2e:f9:57:b5, 2085-97-100 00:39:00:2032,0.049,0.019,0.991,0,0,0.122,0.461,-2.889,-103.964
 14:13:52.279,eb:33:2e:f9:57:b5, 2085-97-100 00:40:00:2032,0.048,0.02,0.992,0,0,0.122,0.461,-2.889,-103.964
 14:13:52.279,eb:33:2e:f9:57:b5, 2085-97-99 00:39:00:2030,0.049,0.019,0.992,-0.061,0.061,0.183,0.461,-2.889,-103.947
 14:13:52.279,eb:33:2e:f9:57:b5, 2085-97-100 00:39:00:2031,0.049,0.019,0.992,-0.061,0.061,0.244,0.461,-2.889,-103.947
 14:13:52.279,eb:33:2e:f9:57:b5, 2085-97-99 00:38:00:2031,0.048,0.02,0.992,0,0.183,0.305,0.461,-2.889,-103.936
 14:13:52.336,eb:33:2e:f9:57:b5, 2085-97-100 00:38:00:2029,0.048,0.019,0.991,-0.061,0.183,0.366,0.461,-2.889,-103.936
 14:13:52.336,eb:33:2e:f9:57:b5, 2085-97-98 00:40:00:2030,0.048,0.02,0.991,0,0.183,0.366,0.461,-2.889,-103.925
 14:13:52.336,eb:33:2e:f9:57:b5, 2085-97-100 00:40:00:2030,0.048,0.019,0.991,0,0.183,0.305,0.461,-2.889,-103.925
 14:13:52.336,eb:33:2e:f9:57:b5, 2085-97-101 00:40:00:2031,0.049,0.02,0.991,0,0.122,0.305,0.461,-2.889,-103.914
 14:13:52.338,eb:33:2e:f9:57:b5, 2085-97-99 00:39:00:2031,0.049,0.02,0.992,-0.061,0.122,0.305,0.461,-2.889,-103.914
 14:13:52.338,eb:33:2e:f9:57:b5, 2085-97-99 00:38:00:2032,0.049,0.019,0.991,0,0.183,0.244,0.456,-2.889,-103.903
 14:13:52.338,eb:33:2e:f9:57:b5, 2085-97-98 00:41:00:2029,0.048,0.02,0.992,-0.061,0.122,0.244,0.456,-2.889,-103.903
 14:13:52.338,eb:33:2e:f9:57:b5, 2085-97-98 00:40:00:2029,0.048,0.019,0.991,-0.061,0.122,0.183,0.456,-2.889,-103.887
 14:13:52.340,eb:33:2e:f9:57:b5, 2085-97-98 00:38:00:2030,0.048,0.019,0.991,-0.122,0.061,0.183,0.456,-2.889,-103.887
 14:13:52.340,eb:33:2e:f9:57:b5, 2085-97-99 00:40:00:2029,0.048,0.019,0.991,-0.061,0.061,0.122,0.456,-2.889,-103.876
 14:13:52.340,eb:33:2e:f9:57:b5, 2085-97-99 00:39:00:2029,0.048,0.02,0.991,-0.122,0,0.122,0.456,-2.884,-103.876
 14:13:52.340,eb:33:2e:f9:57:b5, 2085-97-100 00:39:00:2030,0.049,0.02,0.991,-0.122,0,0.122,0.456,-2.884,-103.865
 14:13:52.342,eb:33:2e:f9:57:b5, 2085-97-101 00:39:00:2031,0.048,0.019,0.992,-0.061,0,0.183,0.456,-2.884,-103.865
 14:13:52.342,eb:33:2e:f9:57:b5, 2085-97-99 00:39:00:2031,0.048,0.019,0.992,-0.061,0.183,0.183,0.456,-2.884,-103.854
 14:13:52.342,eb:33:2e:f9:57:b5, 2085-97-98 00:39:00:2029,0.048,0.02,0.991,0,0.061,0.122,0.456,-2.884,-103.854
 14:13:52.342,eb:33:2e:f9:57:b5, 2085-97-98 00:39:00:2029,0.048,0.02,0.991,0,0,0.122,0.456,-2.884,-103.843
 14:13:52.345,eb:33:2e:f9:57:b5, 2085-97-99 00:41:00:2030,0.049,0.02,0.99,-0.061,0,0.061,0.456,-2.884,-103.843
 14:13:52.345,eb:33:2e:f9:57:b5, 2085-97-99 00:39:00:2030,0.048,0.02,0.992,0,0,0,0.456,-2.884,-103.837
 14:13:52.345,eb:33:2e:f9:57:b5, 2085-97-99 00:41:00:2030,0.048,0.019,0.991,-0.061,0,0,0.456,-2.884,-103.837
 14:13:52.345,eb:33:2e:f9:57:b5, 2085-97-99 00:39:00:2032,0.047,0.02,0.992,0,0,0,0.456,-2.884,-103.826
 14:13:52.396,eb:33:2e:f9:57:b5, 2085-97-99 00:39:00:2031,0.048,0.02,0.992,0,0,0,0.456,-2.884,-103.826
 14:13:52.396,eb:33:2e:f9:57:b5, 2085-97-100 00:40:00:2030,0.049,0.019,0.991,-0.061,0,0,0.456,-2.884,-103.815
 14:13:52.396,eb:33:2e:f9:57:b5, 2085-97-98 00:39:00:2030,0.048,0.021,0.991,0,0,0,0.456,-2.884,-103.815
 14:13:52.396,eb:33:2e:f9:57:b5, 2085-97-99 00:39:00:2031,0.048,0.02,0.992,-0.061,0,0.061,0.456,-2.884,-103.804
 14:13:52.516,eb:33:2e:f9:57:b5, 2085-97-100 00:39:00:2031,0.049,0.02,0.992,-0.061,0,0.061,0.456,-2.884,-103.804
 14:13:52.516,eb:33:2e:f9:57:b5, 2085-113-58 00:166:225:-1875,0.049,0.02,0.992,-0.061,0,0.061,0.456,-2.884,-103.793
 14:13:52.516,eb:33:2e:f9:57:b5, 2085-97-101 00:41:00:2031,0.049,0.019,0.991,0,0,0.122,0.456,-2.878,-103.793
 14:13:52.516,eb:33:2e:f9:57:b5, 2085-97-99 00:40:00:2031,0.049,0.02,0.991,0,0,0.061,0.456,-2.878,-103.788
 14:13:52.517,eb:33:2e:f9:57:b5, 2085-97-101 00:40:00:2031,0.048,0.019,0.992,0,0,0.061,0.456,-2.878,-103.788
 14:13:52.517,eb:33:2e:f9:57:b5, 2085-97-98 00:40:00:2031,0.048,0.02,0.991,0,0.061,0,0.456,-2.878,-103.777
 14:13:52.517,eb:33:2e:f9:57:b5, 2085-97-98 00:38:00:2031,0.048,0.019,0.991,0,0,0.061,0.45,-2.878,-103.777
 14:13:52.517,eb:33:2e:f9:57:b5, 2085-97-97 00:39:00:2029,0.048,0.019,0.992,-0.061,-0.061,0.061,0.45,-2.878,-103.766
 14:13:52.519,eb:33:2e:f9:57:b5, 2085-97-99 00:40:00:2029,0.048,0.02,0.991,-0.061,0,0.061,0.45,-2.878,-103.766
 14:13:52.519,eb:33:2e:f9:57:b5, 2085-97-99 00:39:00:2029,0.048,0.02,0.991,0,-0.061,0,0.45,-2.878,-103.76
 14:13:52.519,eb:33:2e:f9:57:b5, 2085-97-100 00:38:00:2031,0.049,0.02,0.991,0,-0.122,0,0.45,-2.878,-103.755
 14:13:52.519,eb:33:2e:f9:57:b5, 2085-97-100 00:39:00:2032,0.049,0.02,0.992,0,-0.061,-0.061,0.45,-2.878,-103.749
 14:13:52.547,eb:33:2e:f9:57:b5, 2085-97-100 00:40:00:2032,0.048,0.019,0.992,0,0,-0.061,0.45,-2.878,-103.749
 14:13:52.548,eb:33:2e:f9:57:b5, 2085-97-99 00:39:00:2030,0.048,0.02,0.991,0,0,-0.061,0.45,-2.878,-103.738
 14:13:52.548,eb:33:2e:f9:57:b5, 2085-97-100 00:40:00:2032,0.048,0.02,0.991,0,-0.061,-0.061,0.45,-2.878,-103.738
 14:13:52.548,eb:33:2e:f9:57:b5, 2085-97-100 00:38:00:2030,0.048,0.02,0.991,0,0,0,0.45,-2.878,-103.733
 14:13:52.636,eb:33:2e:f9:57:b5, 2085-97-99 00:38:00:2029,0.049,0.019,0.991,0,-0.061,-0.061,0.45,-2.878,-103.733
 14:13:52.636,eb:33:2e:f9:57:b5, 2085-97-101 00:40:00:2031,0.049,0.019,0.991,0,-0.061,-0.061,0.45,-2.878,-103.722
 14:13:52.636,eb:33:2e:f9:57:b5, 2085-97-100 00:42:00:2032,0.049,0.02,0.992,-0.061,-0.061,0,0.45,-2.878,-103.722
 14:13:52.636,eb:33:2e:f9:57:b5, 2085-97-99 00:39:00:2029,0.048,0.019,0.992,0,-0.061,0,0.45,-2.878,-103.716
 14:13:52.666,eb:33:2e:f9:57:b5, 2085-97-99 00:41:00:2030,0.049,0.019,0.991,0,0,0,0.45,-2.878,-103.716
 14:13:52.666,eb:33:2e:f9:57:b5, 2085-97-99 00:40:00:2030,0.048,0.02,0.991,0,0,0.061,0.45,-2.878,-103.705
 14:13:52.666,eb:33:2e:f9:57:b5, 2085-97-98 00:38:00:2030,0.048,0.02,0.991,0,0,0,0.45,-2.878,-103.705
 14:13:52.666,eb:33:2e:f9:57:b5, 2085-97-98 00:38:00:2031,0.048,0.019,0.992,0,0,0.061,0.45,-2.878,-103.7
 14:13:52.668,eb:33:2e:f9:57:b5, 2085-97-100 00:40:00:2032,0.049,0.02,0.992,0,-0.061,0,0.45,-2.873,-103.7
 14:13:52.668,eb:33:2e:f9:57:b5, 2085-97-100 00:38:00:2031,0.049,0.019,0.992,-0.061,0,0.061,0.45,-2.873,-103.689
 14:13:52.668,eb:33:2e:f9:57:b5, 2085-97-101 00:38:00:2033,0.05,0.019,0.992,-0.061,0,0.122,0.45,-2.873,-103.689
 14:13:52.668,eb:33:2e:f9:57:b5, 2085-97-101 00:40:00:2031,0.048,0.02,0.992,0,0,0.122,0.45,-2.873,-103.683
 14:13:52.755,eb:33:2e:f9:57:b5, 2085-97-99 00:41:00:2029,0.047,0.019,0.991,-0.061,0,0.061,0.45,-2.873,-103.683
 14:13:52.755,eb:33:2e:f9:57:b5, 2085-97-98 00:39:00:2032,0.048,0.019,0.991,0,-0.122,0,0.45,-2.873,-103.678
 14:13:52.755,eb:33:2e:f9:57:b5, 2085-97-99 00:39:00:2030,0.048,0.019,0.991,0,-0.061,0,0.45,-2.873,-103.678
 14:13:52.755,eb:33:2e:f9:57:b5, 2085-97-100 00:39:00:2030,0.048,0.019,0.992,0,-0.061,0,0.45,-2.873,-103.667
 14:13:52.758,eb:33:2e:f9:57:b5, 2085-97-101 00:40:00:2030,0.049,0.02,0.991,-0.061,-0.061,0,0.45,-2.873,-103.667
 14:13:52.758,eb:33:2e:f9:57:b5, 2085-97-99 00:39:00:2030,0.049,0.02,0.991,-0.061,-0.061,-0.061,0.445,-2.873,-103.661
 14:13:52.758,eb:33:2e:f9:57:b5, 2085-97-100 00:39:00:2029,0.049,0.019,0.991,0,-0.061,0,0.445,-2.873,-103.661
 14:13:52.758,eb:33:2e:f9:57:b5, 2085-97-102 00:40:00:2031,0.049,0.018,0.991,0,-0.061,-0.061,0.445,-2.873,-103.656
 14:13:52.786,eb:33:2e:f9:57:b5, 2085-97-101 00:38:00:2031,0.048,0.019,0.992,0,0,0,0.445,-2.873,-103.656
 14:13:52.786,eb:33:2e:f9:57:b5, 2085-97-100 00:39:00:2030,0.048,0.02,0.991,0,-0.061,0,0.445,-2.873,-103.645
 14:13:52.786,eb:33:2e:f9:57:b5, 2085-97-99 00:37:00:2031,0.049,0.019,0.992,0,0,0,0.445,-2.873,-103.645
 14:13:52.786,eb:33:2e:f9:57:b5, 2085-97-101 00:39:00:2031,0.05,0.019,0.992,-0.061,0,0.061,0.445,-2.873,-103.64
 14:13:52.816,eb:33:2e:f9:57:b5, 2085-97-100 00:40:00:2029,0.049,0.02,0.992,-0.061,0,0.061,0.445,-2.873,-103.64
 14:13:52.816,eb:33:2e:f9:57:b5, 2085-97-99 00:38:00:2031,0.048,0.019,0.991,-0.061,0,0,0.445,-2.873,-103.634
 14:13:52.817,eb:33:2e:f9:57:b5, 2085-97-101 00:38:00:2031,0.048,0.018,0.992,0,0,0.061,0.445,-2.873,-103.634
 14:13:52.817,eb:33:2e:f9:57:b5, 2085-97-100 00:38:00:2031,0.05,0.019,0.992,0,0.061,0.122,0.445,-2.873,-103.623
 14:13:52.876,eb:33:2e:f9:57:b5, 2085-97-101 00:38:00:2031,0.048,0.019,0.992,0,0.183,0.183,0.445,-2.873,-103.623
 14:13:52.876,eb:33:2e:f9:57:b5, 2085-97-97 00:38:00:2030,0.048,0.02,0.991,-0.061,0.122,0.244,0.445,-2.873,-103.618
 14:13:52.876,eb:33:2e:f9:57:b5, 2085-113-58 00:15:226:-1725,0.049,0.02,0.991,0,0.061,0.244,0.445,-2.873,-103.618
 14:13:52.876,eb:33:2e:f9:57:b5, 2085-97-101 00:40:00:2030,0.049,0.02,0.992,-0.061,0.061,0.244,0.445,-2.873,-103.618
 14:13:52.877,eb:33:2e:f9:57:b5, 2085-97-99 00:40:00:2031,0.049,0.019,0.992,0,0.122,0.183,0.445,-2.873,-103.612
 14:13:52.907,eb:33:2e:f9:57:b5, 2085-97-102 00:40:00:2031,0.049,0.019,0.991,0,0.061,0.183,0.445,-2.873,-103.612
 14:13:52.907,eb:33:2e:f9:57:b5, 2085-97-101 00:39:00:2032,0.049,0.019,0.992,-0.061,0.122,0.122,0.445,-2.873,-103.607
 14:13:52.907,eb:33:2e:f9:57:b5, 2085-97-100 00:38:00:2032,0.05,0.019,0.992,0,0.122,0.183,0.445,-2.873,-103.607
 14:13:52.907,eb:33:2e:f9:57:b5, 2085-97-98 00:40:00:2030,0.048,0.018,0.992,0,0.183,0.122,0.445,-2.873,-103.601
 14:13:52.937,eb:33:2e:f9:57:b5, 2085-97-98 00:40:00:2029,0.049,0.02,0.99,0,0.061,0.061,0.445,-2.867,-103.601
 14:13:52.937,eb:33:2e:f9:57:b5, 2085-97-101 00:39:00:2030,0.049,0.019,0.991,-0.061,0,0.122,0.445,-2.867,-103.596
 14:13:52.937,eb:33:2e:f9:57:b5, 2085-97-99 00:38:00:2029,0.048,0.02,0.992,-0.061,0.061,0.061,0.445,-2.867,-103.596
 14:13:52.937,eb:33:2e:f9:57:b5, 2085-97-99 00:39:00:2028,0.048,0.019,0.991,-0.061,0.061,0.122,0.445,-2.867,-103.585
 14:13:52.996,eb:33:2e:f9:57:b5, 2085-97-100 00:39:00:2030,0.049,0.019,0.99,-0.061,0,0,0.445,-2.867,-103.585
 14:13:52.996,eb:33:2e:f9:57:b5, 2085-97-99 00:38:00:2031,0.049,0.019,0.992,-0.061,0,0.061,0.445,-2.867,-103.579
 14:13:52.996,eb:33:2e:f9:57:b5, 2085-97-99 00:38:00:2030,0.049,0.018,0.992,-0.061,0,0.122,0.439,-2.867,-103.579
 14:13:52.996,eb:33:2e:f9:57:b5, 2085-97-99 00:38:00:2031,0.05,0.019,0.991,-0.061,0,0.061,0.439,-2.867,-103.574
 14:13:53.087,eb:33:2e:f9:57:b5, 2085-97-100 00:39:00:2030,0.048,0.019,0.991,-0.061,0,0.061,0.439,-2.867,-103.574
 14:13:53.087,eb:33:2e:f9:57:b5, 2085-97-100 00:38:00:2031,0.049,0.019,0.992,-0.061,-0.061,0,0.439,-2.867,-103.568
 14:13:53.087,eb:33:2e:f9:57:b5, 2085-97-100 00:39:00:2031,0.049,0.019,0.991,-0.061,0,0.061,0.439,-2.867,-103.568
 14:13:53.087,eb:33:2e:f9:57:b5, 2085-97-99 00:39:00:2030,0.048,0.019,0.991,-0.061,0.122,0.122,0.439,-2.867,-103.563
 14:13:53.089,eb:33:2e:f9:57:b5, 2085-97-98 00:38:00:2029,0.048,0.019,0.991,0,0.122,0.122,0.439,-2.867,-103.563
 14:13:53.089,eb:33:2e:f9:57:b5, 2085-97-100 00:38:00:2030,0.049,0.019,0.991,0,0.061,0.183,0.439,-2.867,-103.557
 14:13:53.089,eb:33:2e:f9:57:b5, 2085-97-100 00:39:00:2030,0.049,0.018,0.991,-0.061,0.061,0.122,0.439,-2.867,-103.557
 14:13:53.089,eb:33:2e:f9:57:b5, 2085-97-102 00:39:00:2029,0.049,0.02,0.99,-0.061,0,0.061,0.439,-2.867,-103.552
 14:13:53.117,eb:33:2e:f9:57:b5, 2085-97-100 00:38:00:2030,0.05,0.019,0.991,0,0,0,0.439,-2.867,-103.552
 14:13:53.117,eb:33:2e:f9:57:b5, 2085-97-102 00:38:00:2031,0.049,0.018,0.992,0,0.061,0.061,0.439,-2.867,-103.546
 14:13:53.117,eb:33:2e:f9:57:b5, 2085-97-101 00:38:00:2029,0.049,0.019,0.991,0,0,0,0.439,-2.867,-103.546
 14:13:53.117,eb:33:2e:f9:57:b5, 2085-97-101 00:39:00:2030,0.049,0.018,0.991,0,0.061,0,0.439,-2.867,-103.541
 14:13:53.148,eb:33:2e:f9:57:b5, 2085-97-99 00:39:00:2028,0.048,0.019,0.991,0,0.061,0,0.439,-2.867,-103.541
 14:13:53.148,eb:33:2e:f9:57:b5, 2085-97-100 00:39:00:2029,0.049,0.02,0.991,0,0,0,0.439,-2.867,-103.535
 14:13:53.148,eb:33:2e:f9:57:b5, 2085-97-100 00:39:00:2029,0.049,0.019,0.991,0,0,0,0.439,-2.867,-103.535
 14:13:53.148,eb:33:2e:f9:57:b5, 2085-97-99 00:38:00:2030,0.047,0.019,0.992,0,-0.061,-0.122,0.439,-2.867,-103.53
 14:13:53.178,eb:33:2e:f9:57:b5, 2085-97-100 00:38:00:2032,0.049,0.019,0.991,0,-0.122,-0.061,0.439,-2.867,-103.53
 14:13:53.178,eb:33:2e:f9:57:b5, 2085-97-100 00:40:00:2031,0.048,0.019,0.991,0,-0.122,-0.122,0.439,-2.867,-103.524
 14:13:53.178,eb:33:2e:f9:57:b5, 2085-97-99 00:40:00:2031,0.049,0.02,0.991,0,-0.122,-0.061,0.439,-2.867,-103.524
 14:13:53.178,eb:33:2e:f9:57:b5, 2085-97-100 00:38:00:2032,0.049,0.019,0.991,0,-0.061,-0.122,0.439,-2.867,-103.519
 14:13:53.236,eb:33:2e:f9:57:b5, 2085-97-102 00:38:00:2031,0.05,0.018,0.992,0.061,-0.061,-0.061,0.439,-2.867,-103.519
 14:13:53.236,eb:33:2e:f9:57:b5, 2085-97-101 00:39:00:2031,0.049,0.019,0.992,0.061,0,0,0.439,-2.867,-103.513
 14:13:53.236,eb:33:2e:f9:57:b5, 2085-97-100 00:38:00:2031,0.049,0.018,0.991,0.061,0,0.061,0.434,-2.867,-103.513
 14:13:53.236,eb:33:2e:f9:57:b5, 2085-97-98 00:40:00:2031,0.048,0.019,0.992,0.061,0.061,0,0.434,-2.867,-103.508
 14:13:53.267,eb:33:2e:f9:57:b5, 2085-97-101 00:39:00:2031,0.048,0.019,0.991,0.061,0,0,0.434,-2.867,-103.508
 14:13:53.267,eb:33:2e:f9:57:b5, 2085-97-100 00:39:00:2029,0.049,0.02,0.992,0,0,0.061,0.434,-2.867,-103.502
 14:13:53.267,eb:33:2e:f9:57:b5, 2085-97-98 00:38:00:2029,0.048,0.019,0.991,0,0,0.061,0.434,-2.862,-103.502
 14:13:53.267,eb:33:2e:f9:57:b5, 2085-97-99 00:38:00:2031,0.049,0.019,0.991,0,-0.061,0.061,0.434,-2.867,-103.502
 14:13:53.297,eb:33:2e:f9:57:b5, 2085-97-100 00:38:00:2029,0.049,0.019,0.991,0,0,0.061,0.434,-2.862,-103.502
 14:13:53.297,eb:33:2e:f9:57:b5, 2085-97-99 00:40:00:2029,0.048,0.02,0.991,0,0,0.061,0.434,-2.862,-103.497
 14:13:53.297,eb:33:2e:f9:57:b5, 2085-97-101 00:40:00:2031,0.049,0.02,0.99,0,0,0.061,0.434,-2.862,-103.497
 14:13:53.297,eb:33:2e:f9:57:b5, 2085-97-100 00:39:00:2031,0.049,0.019,0.992,0,0,0.122,0.434,-2.862,-103.491
 14:13:53.387,eb:33:2e:f9:57:b5, 2085-97-98 00:39:00:2030,0.048,0.019,0.992,0,0.061,0.122,0.434,-2.862,-103.491
 14:13:53.387,eb:33:2e:f9:57:b5, 2085-97-98 00:40:00:2031,0.048,0.02,0.991,0,0.061,0.122,0.434,-2.862,-103.486
 14:13:53.387,eb:33:2e:f9:57:b5, 2085-97-99 00:39:00:2030,0.049,0.02,0.991,0,0,0.122,0.434,-2.862,-103.486
 14:13:53.387,eb:33:2e:f9:57:b5, 2085-97-100 00:38:00:2032,0.049,0.019,0.991,0,0.061,0.122,0.434,-2.862,-103.48
 14:13:53.387,eb:33:2e:f9:57:b5, 2085-97-100 00:40:00:2031,0.047,0.02,0.992,0,0,0.183,0.434,-2.862,-103.48
 14:13:53.387,eb:33:2e:f9:57:b5, 2085-97-99 00:38:00:2030,0.048,0.019,0.991,0,0.061,0.122,0.434,-2.862,-103.475
 14:13:53.387,eb:33:2e:f9:57:b5, 2085-97-100 00:38:00:2030,0.049,0.019,0.991,0,0.061,0.122,0.434,-2.862,-103.475
 14:13:53.387,eb:33:2e:f9:57:b5, 2085-97-100 00:38:00:2031,0.049,0.019,0.992,0,0,0.122,0.434,-2.862,-103.469
 14:13:53.419,eb:33:2e:f9:57:b5, 2085-97-100 00:38:00:2030,0.049,0.02,0.991,0,0,0.122,0.434,-2.862,-103.469
 14:13:53.419,eb:33:2e:f9:57:b5, 2085-97-100 00:38:00:2032,0.048,0.019,0.991,0,0.061,0.122,0.434,-2.862,-103.469
 14:13:53.419,eb:33:2e:f9:57:b5, 2085-97-99 00:36:00:2031,0.049,0.018,0.991,0,0.122,0.183,0.434,-2.862,-103.469
 14:13:53.419,eb:33:2e:f9:57:b5, 2085-97-100 00:39:00:2030,0.048,0.019,0.992,0,0,0.183,0.434,-2.862,-103.464
 14:13:53.476,eb:33:2e:f9:57:b5, 2085-97-99 00:40:00:2031,0.049,0.02,0.991,0,0,0.183,0.434,-2.862,-103.464
 14:13:53.476,eb:33:2e:f9:57:b5, 2085-97-101 00:39:00:2030,0.049,0.02,0.991,0,0,0.122,0.434,-2.862,-103.458
 14:13:53.476,eb:33:2e:f9:57:b5, 2085-97-101 00:38:00:2032,0.049,0.019,0.992,0,0,0.061,0.434,-2.862,-103.458
 14:13:53.477,eb:33:2e:f9:57:b5, 2085-97-98 00:40:00:2030,0.048,0.019,0.992,0,0.061,0.061,0.434,-2.862,-103.453
 14:13:53.507,eb:33:2e:f9:57:b5, 2085-97-99 00:39:00:2028,0.049,0.019,0.991,0,0,0,0.434,-2.862,-103.453
 14:13:53.507,eb:33:2e:f9:57:b5, 2085-97-100 00:38:00:2031,0.05,0.019,0.991,-0.061,0,0,0.434,-2.862,-103.447
 14:13:53.507,eb:33:2e:f9:57:b5, 2085-97-101 00:38:00:2029,0.049,0.019,0.992,-0.061,0.061,0.122,0.434,-2.862,-103.447
 14:13:53.507,eb:33:2e:f9:57:b5, 2085-97-99 00:39:00:2029,0.049,0.02,0.991,-0.061,0,0.061,0.434,-2.862,-103.447
 14:13:53.536,eb:33:2e:f9:57:b5, 2085-97-100 00:39:00:2030,0.049,0.019,0.99,0,0,0.061,0.428,-2.862,-103.447
 14:13:53.536,eb:33:2e:f9:57:b5, 2085-97-101 00:39:00:2030,0.048,0.019,0.991,-0.061,0,0,0.428,-2.862,-103.442
 14:13:53.536,eb:33:2e:f9:57:b5, 2085-113-81 00:73:79:-441,0.048,0.02,0.992,0,0,0.122,0.428,-2.862,-103.442
 14:13:53.536,eb:33:2e:f9:57:b5, 2085-97-99 00:38:00:2030,0.047,0.019,0.991,-0.061,0,0.122,0.428,-2.862,-103.436
 14:13:53.657,eb:33:2e:f9:57:b5, 2085-97-101 00:41:00:2032,0.05,0.019,0.99,-0.061,-0.122,0.061,0.428,-2.862,-103.436
 14:13:53.657,eb:33:2e:f9:57:b5, 2085-97-105 00:39:00:2034,0.05,0.02,0.993,-0.061,-0.061,0.061,0.428,-2.862,-103.431
 14:13:53.657,eb:33:2e:f9:57:b5, 2085-97-101 00:38:00:2030,0.048,0.019,0.992,0,0.122,0.122,0.428,-2.862,-103.431
 14:13:53.657,eb:33:2e:f9:57:b5, 2085-97-98 00:40:00:2028,0.049,0.019,0.991,0,0,0.122,0.428,-2.862,-103.431
 14:13:53.658,eb:33:2e:f9:57:b5, 2085-97-99 00:38:00:2030,0.049,0.019,0.991,0,0,0,0.428,-2.862,-103.431
 14:13:53.658,eb:33:2e:f9:57:b5, 2085-97-101 00:38:00:2033,0.049,0.019,0.992,0,-0.122,0,0.428,-2.862,-103.425
 14:13:53.658,eb:33:2e:f9:57:b5, 2085-97-100 00:39:00:2030,0.048,0.019,0.992,0,0,0.061,0.428,-2.862,-103.425
 14:13:53.658,eb:33:2e:f9:57:b5, 2085-97-98 00:40:00:2030,0.048,0.02,0.99,-0.061,0,0.061,0.428,-2.862,-103.42
 14:13:53.660,eb:33:2e:f9:57:b5, 2085-97-99 00:39:00:2028,0.048,0.02,0.991,0,-0.061,0.061,0.428,-2.862,-103.42
 14:13:53.660,eb:33:2e:f9:57:b5, 2085-97-100 00:39:00:2030,0.049,0.02,0.991,-0.061,-0.122,0,0.428,-2.862,-103.414
 14:13:53.660,eb:33:2e:f9:57:b5, 2085-97-100 00:39:00:2032,0.048,0.019,0.991,-0.061,-0.122,0,0.428,-2.856,-103.414
 14:13:53.660,eb:33:2e:f9:57:b5, 2085-97-100 00:38:00:2032,0.049,0.019,0.993,-0.122,-0.122,0,0.428,-2.856,-103.414
 14:13:53.718,eb:33:2e:f9:57:b5, 2085-97-100 00:38:00:2031,0.049,0.019,0.992,-0.061,0,0,0.428,-2.856,-103.414
 14:13:53.718,eb:33:2e:f9:57:b5, 2085-97-99 00:38:00:2030,0.049,0.019,0.991,-0.061,0,0,0.428,-2.856,-103.409
 14:13:53.718,eb:33:2e:f9:57:b5, 2085-97-101 00:38:00:2030,0.05,0.019,0.991,-0.061,-0.122,0.061,0.428,-2.856,-103.409
 14:13:53.718,eb:33:2e:f9:57:b5, 2085-97-100 00:37:00:2031,0.049,0.018,0.992,-0.061,-0.061,0.061,0.428,-2.856,-103.403
 14:13:53.747,eb:33:2e:f9:57:b5, 2085-97-100 00:38:00:2031,0.049,0.019,0.992,0,0,0.122,0.428,-2.856,-103.403
 14:13:53.747,eb:33:2e:f9:57:b5, 2085-97-99 00:38:00:2030,0.048,0.019,0.991,-0.061,0.061,0.183,0.428,-2.856,-103.403
 14:13:53.747,eb:33:2e:f9:57:b5, 2085-97-99 00:40:00:2030,0.048,0.019,0.992,-0.061,0,0.122,0.428,-2.856,-103.403
 14:13:53.747,eb:33:2e:f9:57:b5, 2085-97-100 00:37:00:2031,0.049,0.02,0.991,-0.061,0,0.061,0.428,-2.856,-103.398
 14:13:53.777,eb:33:2e:f9:57:b5, 2085-97-102 00:40:00:2030,0.049,0.019,0.992,0,0,0.122,0.428,-2.856,-103.398
 14:13:53.777,eb:33:2e:f9:57:b5, 2085-97-101 00:39:00:2030,0.049,0.019,0.991,0,0.061,0.061,0.428,-2.856,-103.392
 14:13:53.777,eb:33:2e:f9:57:b5, 2085-97-100 00:39:00:2029,0.048,0.019,0.991,0,0.061,0.122,0.428,-2.856,-103.392
 14:13:53.777,eb:33:2e:f9:57:b5, 2085-97-100 00:39:00:2028,0.049,0.019,0.99,-0.061,-0.061,0.061,0.428,-2.856,-103.392
 14:13:53.838,eb:33:2e:f9:57:b5, 2085-97-104 00:39:00:2033,0.051,0.02,0.991,0,-0.244,0,0.428,-2.856,-103.392
 14:13:53.838,eb:33:2e:f9:57:b5, 2085-97-101 00:37:00:2029,0.048,0.019,0.992,0,0.122,0.061,0.428,-2.856,-103.387
 14:13:53.838,eb:33:2e:f9:57:b5, 2085-97-98 00:39:00:2027,0.049,0.019,0.991,0,0,0,0.428,-2.856,-103.387
 14:13:53.838,eb:33:2e:f9:57:b5, 2085-97-103 00:38:00:2031,0.05,0.02,0.991,0,-0.183,0,0.428,-2.856,-103.381
 14:13:53.867,eb:33:2e:f9:57:b5, 2085-97-101 00:39:00:2032,0.05,0.019,0.992,0,0,0,0.428,-2.856,-103.381
 14:13:53.867,eb:33:2e:f9:57:b5, 2085-97-101 00:40:00:2030,0.049,0.019,0.993,0.061,0,0,0.428,-2.856,-103.381
 14:13:53.867,eb:33:2e:f9:57:b5, 2085-97-100 00:40:00:2031,0.049,0.019,0.991,0,-0.061,0,0.428,-2.856,-103.381
 14:13:53.867,eb:33:2e:f9:57:b5, 2085-97-99 00:39:00:2031,0.049,0.02,0.992,0,-0.061,0,0.428,-2.856,-103.376
 14:13:53.898,eb:33:2e:f9:57:b5, 2085-97-100 00:39:00:2029,0.049,0.019,0.991,0,-0.061,0,0.428,-2.856,-103.376
 14:13:53.898,eb:33:2e:f9:57:b5, 2085-97-103 00:39:00:2030,0.05,0.02,0.991,0,-0.061,0,0.423,-2.856,-103.37
 14:13:53.898,eb:33:2e:f9:57:b5, 2085-97-102 00:38:00:2030,0.05,0.019,0.992,0,0,0,0.423,-2.856,-103.37
 14:13:53.898,eb:33:2e:f9:57:b5, 2085-97-103 00:41:00:2029,0.05,0.02,0.991,0,0,0,0.423,-2.856,-103.37
 14:13:53.957,eb:33:2e:f9:57:b5, 2085-97-100 00:39:00:2028,0.049,0.02,0.991,0,0,0,0.423,-2.856,-103.37
 14:13:53.957,eb:33:2e:f9:57:b5, 2085-97-100 00:38:00:2029,0.05,0.019,0.991,0,0,0,0.423,-2.856,-103.365
 14:13:53.957,eb:33:2e:f9:57:b5, 2085-97-101 00:38:00:2030,0.049,0.018,0.991,0,0,-0.061,0.423,-2.856,-103.365
 14:13:53.957,eb:33:2e:f9:57:b5, 2085-97-101 00:39:00:2030,0.05,0.019,0.992,0,-0.061,-0.061,0.423,-2.856,-103.365
 14:13:53.986,eb:33:2e:f9:57:b5, 2085-97-101 00:39:00:2030,0.049,0.019,0.991,0,0,-0.122,0.423,-2.856,-103.365
 14:13:53.986,eb:33:2e:f9:57:b5, 2085-97-101 00:38:00:2031,0.049,0.019,0.992,0,0,-0.061,0.423,-2.856,-103.359
 14:13:53.986,eb:33:2e:f9:57:b5, 2085-97-101 00:39:00:2030,0.05,0.018,0.991,0,0,0,0.423,-2.856,-103.359
 14:13:53.986,eb:33:2e:f9:57:b5, 2085-97-100 00:39:00:2029,0.049,0.02,0.992,0,0.061,0,0.423,-2.856,-103.354
 14:13:54.016,eb:33:2e:f9:57:b5, 2085-97-100 00:38:00:2030,0.049,0.019,0.991,0,0,0,0.423,-2.856,-103.354
 14:13:54.016,eb:33:2e:f9:57:b5, 2085-97-101 00:37:00:2031,0.049,0.018,0.991,0,0,0,0.423,-2.856,-103.354
 14:13:54.017,eb:33:2e:f9:57:b5, 2085-97-101 00:39:00:2030,0.049,0.02,0.991,0,0,0.061,0.423,-2.856,-103.354
 14:13:54.017,eb:33:2e:f9:57:b5, 2085-97-101 00:38:00:2029,0.049,0.02,0.992,0,0.061,0.061,0.423,-2.856,-103.348
 14:13:54.108,eb:33:2e:f9:57:b5, 2085-97-101 00:39:00:2029,0.049,0.018,0.991,0,0,0.061,0.423,-2.856,-103.348
 14:13:54.108,eb:33:2e:f9:57:b5, 2085-97-101 00:40:00:2030,0.049,0.019,0.991,0,0.061,0,0.423,-2.856,-103.348
 14:13:54.108,eb:33:2e:f9:57:b5, 2085-97-100 00:38:00:2030,0.049,0.019,0.991,0,0,0,0.423,-2.856,-103.348
 14:13:54.108,eb:33:2e:f9:57:b5, 2085-97-101 00:39:00:2030,0.05,0.019,0.992,0,0.061,0.061,0.423,-2.856,-103.343
 14:13:54.110,eb:33:2e:f9:57:b5, 2085-97-102 00:40:00:2028,0.049,0.019,0.991,0,0.061,0.061,0.423,-2.856,-103.343
 14:13:54.110,eb:33:2e:f9:57:b5, 2085-97-100 00:40:00:2030,0.049,0.02,0.991,0,0.061,0.061,0.423,-2.856,-103.343
 14:13:54.111,eb:33:2e:f9:57:b5, 2085-97-100 00:40:00:2029,0.049,0.02,0.991,0,0.061,0.061,0.423,-2.856,-103.343
 14:13:54.111,eb:33:2e:f9:57:b5, 2085-97-102 00:39:00:2031,0.049,0.019,0.991,0,0.061,0,0.423,-2.856,-103.337
 14:13:54.136,eb:33:2e:f9:57:b5, 2085-97-100 00:40:00:2032,0.049,0.02,0.992,0,0,0,0.423,-2.856,-103.337
 14:13:54.136,eb:33:2e:f9:57:b5, 2085-97-101 00:38:00:2030,0.049,0.019,0.992,0,0.061,0,0.423,-2.856,-103.332
 14:13:54.136,eb:33:2e:f9:57:b5, 2085-97-100 00:40:00:2029,0.049,0.019,0.991,0,0,0,0.423,-2.856,-103.332
 14:13:54.136,eb:33:2e:f9:57:b5, 2085-97-101 00:39:00:2030,0.049,0.019,0.991,0,0.061,0,0.423,-2.856,-103.332
 14:13:54.196,eb:33:2e:f9:57:b5, 2085-97-99 00:40:00:2030,0.049,0.019,0.991,0,0,0,0.423,-2.856,-103.332
 14:13:54.196,eb:33:2e:f9:57:b5, 2085-97-101 00:39:00:2030,0.049,0.02,0.992,0,0,0.061,0.423,-2.856,-103.326
 14:13:54.196,eb:33:2e:f9:57:b5, 2085-97-101 00:38:00:2030,0.049,0.02,0.991,0,0,0,0.423,-2.856,-103.326
 14:13:54.196,eb:33:2e:f9:57:b5, 2085-97-101 00:38:00:2029,0.049,0.019,0.991,0,0,0.061,0.423,-2.856,-103.326
 14:13:54.227,eb:33:2e:f9:57:b5, 2085-97-100 00:39:00:2030,0.049,0.019,0.991,0,0.061,0.061,0.423,-2.856,-103.326
 14:13:54.227,eb:33:2e:f9:57:b5, 2085-97-101 00:39:00:2031,0.049,0.019,0.991,0,0,0,0.423,-2.856,-103.321
 14:13:54.227,eb:33:2e:f9:57:b5, 2085-97-101 00:39:00:2032,0.05,0.02,0.991,0,0,0,0.423,-2.856,-103.321
 14:13:54.227,eb:33:2e:f9:57:b5, 2085-97-102 00:38:00:2031,0.049,0.02,0.993,0,0,0,0.423,-2.856,-103.321
 14:13:54.286,eb:33:2e:f9:57:b5, 2085-97-101 00:39:00:2030,0.049,0.019,0.991,0,0.122,0,0.423,-2.856,-103.321
 14:13:54.286,eb:33:2e:f9:57:b5, 2085-97-101 00:39:00:2030,0.049,0.019,0.991,0,0.061,0.061,0.423,-2.856,-103.315
 14:13:54.287,eb:33:2e:f9:57:b5, 2085-97-101 00:39:00:2031,0.049,0.02,0.991,0,0.122,0.061,0.423,-2.856,-103.315
 14:13:54.287,eb:33:2e:f9:57:b5, 2085-97-100 00:40:00:2031,0.048,0.019,0.992,0,0.122,0.122,0.423,-2.856,-103.315
 14:13:54.347,eb:33:2e:f9:57:b5, 2085-97-99 00:39:00:2029,0.049,0.019,0.991,0,0.061,0.122,0.423,-2.856,-103.315
 14:13:54.347,eb:33:2e:f9:57:b5, 2085-97-101 00:40:00:2029,0.049,0.019,0.991,0,0,0,0.423,-2.856,-103.31
 14:13:54.347,eb:33:2e:f9:57:b5, 2085-97-101 00:37:00:2031,0.049,0.019,0.992,0,0.061,0,0.423,-2.856,-103.31
 14:13:54.347,eb:33:2e:f9:57:b5, 2085-97-100 00:39:00:2030,0.048,0.019,0.99,0,0.061,0.061,0.423,-2.856,-103.31
 14:13:54.377,eb:33:2e:f9:57:b5, 2085-97-100 00:40:00:2029,0.049,0.02,0.991,0,0.061,0.061,0.423,-2.856,-103.31
 14:13:54.377,eb:33:2e:f9:57:b5, 2085-97-100 00:40:00:2030,0.05,0.02,0.992,0,0.061,0.061,0.423,-2.856,-103.304
 14:13:54.377,eb:33:2e:f9:57:b5, 2085-97-101 00:39:00:2031,0.049,0.019,0.992,0,0.061,0,0.423,-2.856,-103.304
 14:13:54.377,eb:33:2e:f9:57:b5, 2085-97-99 00:39:00:2030,0.048,0.019,0.992,0,0,0.061,0.423,-2.856,-103.304
 14:13:54.377,eb:33:2e:f9:57:b5, 2085-97-101 00:39:00:2031,0.049,0.018,0.991,0,0,0.061,0.417,-2.856,-103.304
 14:13:54.378,eb:33:2e:f9:57:b5, 2085-97-100 00:39:00:2031,0.049,0.019,0.992,0,0,0.122,0.417,-2.856,-103.299
 14:13:54.378,eb:33:2e:f9:57:b5, 2085-97-100 00:38:00:2031,0.049,0.02,0.992,0,0,0.061,0.417,-2.856,-103.299
 14:13:54.378,eb:33:2e:f9:57:b5, 2085-97-100 00:40:00:2029,0.049,0.019,0.992,0,0,0.061,0.417,-2.856,-103.299
 14:13:54.437,eb:33:2e:f9:57:b5, 2085-97-100 00:39:00:2031,0.049,0.019,0.991,0,0,0.122,0.417,-2.856,-103.299
 14:13:54.437,eb:33:2e:f9:57:b5, 2085-97-100 00:38:00:2031,0.049,0.02,0.992,0,0,0.061,0.417,-2.856,-103.293
 14:13:54.437,eb:33:2e:f9:57:b5, 2085-97-101 00:40:00:2030,0.049,0.019,0.992,0,0.061,0.122,0.417,-2.856,-103.293
 14:13:54.437,eb:33:2e:f9:57:b5, 2085-97-102 00:41:00:2030,0.049,0.019,0.991,0,0.061,0.122,0.417,-2.856,-103.293
 14:13:54.466,eb:33:2e:f9:57:b5, 2085-97-101 00:40:00:2030,0.049,0.021,0.992,0,0.061,0,0.417,-2.856,-103.293
 14:13:54.466,eb:33:2e:f9:57:b5, 2085-97-101 00:40:00:2030,0.049,0.02,0.991,-0.061,0,0,0.417,-2.856,-103.288
 14:13:54.466,eb:33:2e:f9:57:b5, 2085-97-100 00:41:00:2030,0.049,0.02,0.991,0,0,0,0.417,-2.856,-103.288
 14:13:54.466,eb:33:2e:f9:57:b5, 2085-97-101 00:40:00:2030,0.049,0.019,0.991,0,0,-0.061,0.417,-2.856,-103.288
 14:13:54.526,eb:33:2e:f9:57:b5, 2085-97-101 00:39:00:2031,0.048,0.019,0.991,0,-0.061,-0.122,0.417,-2.856,-103.288
 14:13:54.526,eb:33:2e:f9:57:b5, 2085-97-99 00:41:00:2030,0.049,0.019,0.991,0,-0.122,-0.244,0.417,-2.856,-103.282
 14:13:54.526,eb:33:2e:f9:57:b5, 2085-113-81 00:108:79:-441,0.048,0.019,0.991,0.061,-0.122,-0.244,0.417,-2.856,-103.282
 14:13:54.526,eb:33:2e:f9:57:b5, 2085-97-99 00:40:00:2029,0.049,0.02,0.991,0,-0.183,-0.244,0.417,-2.856,-103.282
 14:13:54.526,eb:33:2e:f9:57:b5, 2085-97-100 00:40:00:2029,0.049,0.02,0.991,0,-0.244,-0.244,0.417,-2.856,-103.282
 14:13:54.557,eb:33:2e:f9:57:b5, 2085-97-101 00:39:00:2030,0.048,0.019,0.991,-0.061,-0.305,-0.244,0.417,-2.856,-103.282
 14:13:54.557,eb:33:2e:f9:57:b5, 2085-97-99 00:41:00:2029,0.049,0.019,0.991,0,-0.305,-0.183,0.417,-2.856,-103.277
 14:13:54.557,eb:33:2e:f9:57:b5, 2085-97-100 00:38:00:2031,0.049,0.019,0.992,0,-0.244,-0.183,0.417,-2.856,-103.277
 14:13:54.557,eb:33:2e:f9:57:b5, 2085-97-100 00:39:00:2032,0.048,0.018,0.992,0,-0.061,-0.122,0.417,-2.856,-103.277
 14:13:54.586,eb:33:2e:f9:57:b5, 2085-97-99 00:39:00:2030,0.048,0.019,0.99,0,-0.122,-0.061,0.417,-2.851,-103.277
 14:13:54.586,eb:33:2e:f9:57:b5, 2085-97-102 00:39:00:2031,0.05,0.02,0.991,0,-0.122,-0.061,0.417,-2.856,-103.277
 14:13:54.586,eb:33:2e:f9:57:b5, 2085-97-104 00:41:00:2031,0.05,0.019,0.992,0,-0.122,0,0.417,-2.851,-103.277
 14:13:54.586,eb:33:2e:f9:57:b5, 2085-97-102 00:39:00:2030,0.05,0.02,0.992,0,0,0,0.417,-2.851,-103.271
 14:13:54.676,eb:33:2e:f9:57:b5, 2085-97-101 00:39:00:2028,0.049,0.019,0.991,0,0.061,0,0.417,-2.851,-103.271
 14:13:54.676,eb:33:2e:f9:57:b5, 2085-97-100 00:40:00:2030,0.049,0.02,0.991,0,0,0,0.417,-2.851,-103.271
 14:13:54.676,eb:33:2e:f9:57:b5, 2085-97-102 00:38:00:2031,0.049,0.019,0.991,0,0,0,0.417,-2.851,-103.271
 14:13:54.676,eb:33:2e:f9:57:b5, 2085-97-100 00:38:00:2031,0.048,0.019,0.992,0,0,-0.061,0.417,-2.851,-103.266
 14:13:54.678,eb:33:2e:f9:57:b5, 2085-97-100 00:39:00:2029,0.049,0.018,0.991,0,0,-0.061,0.417,-2.851,-103.266
 14:13:54.678,eb:33:2e:f9:57:b5, 2085-97-99 00:40:00:2030,0.049,0.019,0.992,0,0,-0.061,0.417,-2.851,-103.266
 14:13:54.678,eb:33:2e:f9:57:b5, 2085-97-101 00:41:00:2031,0.05,0.02,0.991,0,0,0,0.417,-2.851,-103.266
 14:13:54.679,eb:33:2e:f9:57:b5, 2085-97-103 00:41:00:2030,0.051,0.02,0.992,0,0,0,0.417,-2.851,-103.26
 14:13:54.708,eb:33:2e:f9:57:b5, 2085-97-101 00:38:00:2031,0.047,0.019,0.992,0,0,0,0.417,-2.851,-103.26
 14:13:54.708,eb:33:2e:f9:57:b5, 2085-97-99 00:40:00:2028,0.049,0.019,0.99,0,0,0,0.417,-2.851,-103.26
 14:13:54.708,eb:33:2e:f9:57:b5, 2085-97-103 00:40:00:2032,0.051,0.02,0.99,0,-0.183,0,0.417,-2.851,-103.26
 14:13:54.708,eb:33:2e:f9:57:b5, 2085-97-103 00:39:00:2031,0.049,0.019,0.992,0,0,0.061,0.417,-2.851,-103.26
 14:13:54.797,eb:33:2e:f9:57:b5, 2085-97-99 00:39:00:2031,0.049,0.019,0.992,0,0,0.061,0.417,-2.851,-103.26
 14:13:54.797,eb:33:2e:f9:57:b5, 2085-97-103 00:39:00:2033,0.051,0.02,0.991,0,-0.061,0,0.417,-2.851,-103.255
 14:13:54.797,eb:33:2e:f9:57:b5, 2085-97-104 00:40:00:2033,0.05,0.019,0.992,0,0,0.061,0.417,-2.851,-103.255
 14:13:54.797,eb:33:2e:f9:57:b5, 2085-97-101 00:41:00:2031,0.049,0.02,0.992,0,0.122,0.122,0.417,-2.851,-103.255
 14:13:54.797,eb:33:2e:f9:57:b5, 2085-97-102 00:40:00:2031,0.049,0.02,0.991,0,0.122,0.061,0.417,-2.851,-103.255
 14:13:54.797,eb:33:2e:f9:57:b5, 2085-97-101 00:41:00:2029,0.05,0.02,0.991,0,0.122,0.061,0.417,-2.851,-103.25
 14:13:54.797,eb:33:2e:f9:57:b5, 2085-97-101 00:40:00:2029,0.05,0.02,0.991,0,0.122,0.061,0.417,-2.851,-103.25
 14:13:54.798,eb:33:2e:f9:57:b5, 2085-97-100 00:41:00:2031,0.049,0.02,0.992,0,0.122,0,0.417,-2.851,-103.25
 14:13:54.886,eb:33:2e:f9:57:b5, 2085-97-102 00:41:00:2030,0.049,0.019,0.992,0,0.061,0.122,0.417,-2.851,-103.25
 14:13:54.886,eb:33:2e:f9:57:b5, 2085-97-99 00:40:00:2030,0.049,0.021,0.99,-0.061,0,0.061,0.417,-2.851,-103.25
 14:13:54.886,eb:33:2e:f9:57:b5, 2085-97-101 00:40:00:2031,0.049,0.02,0.991,0,0,0,0.417,-2.851,-103.244
 14:13:54.886,eb:33:2e:f9:57:b5, 2085-97-103 00:38:00:2029,0.049,0.019,0.992,0,0,0,0.417,-2.851,-103.244
 14:13:54.888,eb:33:2e:f9:57:b5, 2085-97-101 00:40:00:2028,0.049,0.02,0.991,-0.061,0,0,0.417,-2.851,-103.244
 14:13:54.888,eb:33:2e:f9:57:b5, 2085-97-102 00:40:00:2030,0.05,0.019,0.991,-0.061,-0.061,0,0.417,-2.851,-103.244
 14:13:54.888,eb:33:2e:f9:57:b5, 2085-97-101 00:39:00:2030,0.049,0.019,0.991,-0.061,0,0,0.417,-2.851,-103.244
 14:13:54.888,eb:33:2e:f9:57:b5, 2085-97-101 00:40:00:2030,0.05,0.019,0.991,-0.061,0,0,0.417,-2.851,-103.239
 14:13:54.917,eb:33:2e:f9:57:b5, 2085-97-102 00:40:00:2032,0.049,0.02,0.992,-0.061,0,0,0.417,-2.856,-103.239
 14:13:54.917,eb:33:2e:f9:57:b5, 2085-97-101 00:38:00:2030,0.049,0.019,0.992,0,0,0,0.417,-2.856,-103.239
 14:13:54.917,eb:33:2e:f9:57:b5, 2085-97-101 00:39:00:2030,0.049,0.02,0.991,-0.061,0,0.061,0.417,-2.856,-103.239
 14:13:54.917,eb:33:2e:f9:57:b5, 2085-97-101 00:38:00:2031,0.05,0.019,0.991,0,0,0.122,0.417,-2.856,-103.233
 14:13:54.976,eb:33:2e:f9:57:b5, 2085-97-103 00:40:00:2030,0.05,0.02,0.992,-0.061,0,0.122,0.417,-2.856,-103.233
 14:13:54.976,eb:33:2e:f9:57:b5, 2085-97-103 00:40:00:2030,0.05,0.02,0.991,0,0,0.061,0.417,-2.856,-103.233
 14:13:54.976,eb:33:2e:f9:57:b5, 2085-97-102 00:40:00:2030,0.05,0.02,0.991,0,0,0,0.417,-2.856,-103.233
 14:13:54.976,eb:33:2e:f9:57:b5, 2085-97-103 00:40:00:2032,0.051,0.02,0.992,0,0,0,0.417,-2.856,-103.233
 14:13:55.006,eb:33:2e:f9:57:b5, 2085-97-104 00:40:00:2030,0.051,0.02,0.992,0,0.061,0,0.417,-2.856,-103.233
 14:13:55.006,eb:33:2e:f9:57:b5, 2085-97-103 00:38:00:2030,0.051,0.019,0.991,0,0.061,-0.122,0.417,-2.856,-103.228
 14:13:55.007,eb:33:2e:f9:57:b5, 2085-97-100 00:40:00:2030,0.048,0.019,0.992,0,0.122,0,0.417,-2.856,-103.228
 14:13:55.007,eb:33:2e:f9:57:b5, 2085-97-99 00:41:00:2027,0.048,0.02,0.99,0.061,0.122,0,0.417,-2.856,-103.228
 14:13:55.036,eb:33:2e:f9:57:b5, 2085-97-101 00:39:00:2030,0.05,0.019,0.99,0,0,-0.061,0.417,-2.856,-103.228
 14:13:55.036,eb:33:2e:f9:57:b5, 2085-97-101 00:39:00:2030,0.048,0.019,0.991,0,0.061,0,0.417,-2.856,-103.228
 14:13:55.036,eb:33:2e:f9:57:b5, 2085-97-99 00:41:00:2030,0.048,0.02,0.991,0,0,-0.061,0.417,-2.856,-103.228
 14:13:55.036,eb:33:2e:f9:57:b5, 2085-97-101 00:40:00:2031,0.05,0.02,0.991,0,-0.061,-0.061,0.417,-2.856,-103.222
 14:13:55.097,eb:33:2e:f9:57:b5, 2085-97-102 00:41:00:2030,0.05,0.02,0.991,-0.061,-0.122,0,0.417,-2.856,-103.222
 14:13:55.097,eb:33:2e:f9:57:b5, 2085-97-102 00:40:00:2032,0.049,0.019,0.991,0,-0.122,-0.061,0.417,-2.856,-103.222
 14:13:55.097,eb:33:2e:f9:57:b5, 2085-97-103 00:38:00:2030,0.05,0.02,0.992,0,-0.061,0,0.417,-2.856,-103.222
 14:13:55.097,eb:33:2e:f9:57:b5, 2085-97-102 00:41:00:2032,0.05,0.019,0.992,0,0,0.122,0.417,-2.856,-103.217
 14:13:55.126,eb:33:2e:f9:57:b5, 2085-97-103 00:38:00:2031,0.051,0.019,0.992,0,0.061,0.183,0.417,-2.856,-103.217
 14:13:55.126,eb:33:2e:f9:57:b5, 2085-97-102 00:41:00:2030,0.05,0.019,0.992,0,0.122,0.244,0.417,-2.856,-103.217
 14:13:55.126,eb:33:2e:f9:57:b5, 2085-97-102 00:40:00:2031,0.049,0.02,0.992,0,0.244,0.366,0.417,-2.856,-103.217
 14:13:55.126,eb:33:2e:f9:57:b5, 2085-97-101 00:39:00:2030,0.05,0.019,0.992,0,0.183,0.305,0.417,-2.856,-103.217
 14:13:55.157,eb:33:2e:f9:57:b5, 2085-97-103 00:40:00:2030,0.049,0.019,0.992,0.061,0.122,0.305,0.417,-2.856,-103.217
 14:13:55.157,eb:33:2e:f9:57:b5, 2085-97-102 00:39:00:2030,0.05,0.02,0.992,0.061,0.122,0.305,0.417,-2.856,-103.211
 14:13:55.157,eb:33:2e:f9:57:b5, 2085-97-102 00:40:00:2030,0.049,0.019,0.991,0.061,0.122,0.305,0.417,-2.856,-103.211
 14:13:55.157,eb:33:2e:f9:57:b5, 2085-97-102 00:41:00:2031,0.049,0.02,0.991,0.061,0.061,0.183,0.417,-2.856,-103.211
 14:13:55.307,eb:33:2e:f9:57:b5, 2085-97-102 00:40:00:2030,0.049,0.02,0.992,0.122,0.122,0.122,0.417,-2.856,-103.211
 14:13:55.307,eb:33:2e:f9:57:b5, 2085-97-101 00:41:00:2029,0.049,0.02,0.992,0.122,0.061,0.183,0.417,-2.856,-103.211
 14:13:55.307,eb:33:2e:f9:57:b5, 2085-113-81 00:125:79:-441,0.049,0.02,0.991,0.122,0,0.122,0.417,-2.856,-103.211
 14:13:55.307,eb:33:2e:f9:57:b5, 2085-97-102 00:41:00:2031,0.05,0.019,0.99,0.061,0,0.061,0.417,-2.856,-103.206
 14:13:55.307,eb:33:2e:f9:57:b5, 2085-97-102 00:39:00:2030,0.05,0.02,0.992,0,0,0.061,0.417,-2.856,-103.206
 14:13:55.307,eb:33:2e:f9:57:b5, 2085-97-102 00:41:00:2029,0.049,0.02,0.992,0.122,0.122,0.122,0.417,-2.856,-103.206
 14:13:55.307,eb:33:2e:f9:57:b5, 2085-97-99 00:40:00:2028,0.049,0.02,0.991,0.061,0,0.122,0.417,-2.856,-103.206
 14:13:55.307,eb:33:2e:f9:57:b5, 2085-97-100 00:40:00:2031,0.049,0.019,0.991,0.061,-0.061,0.061,0.417,-2.856,-103.206
 14:13:55.397,eb:33:2e:f9:57:b5, 2085-97-100 00:40:00:2031,0.049,0.02,0.991,0.061,0,0.061,0.417,-2.856,-103.206
 14:13:55.397,eb:33:2e:f9:57:b5, 2085-97-102 00:39:00:2030,0.05,0.02,0.991,0,0,0.061,0.417,-2.856,-103.2
 14:13:55.397,eb:33:2e:f9:57:b5, 2085-97-103 00:41:00:2031,0.051,0.02,0.992,0,0,0,0.417,-2.856,-103.2
 14:13:55.397,eb:33:2e:f9:57:b5, 2085-97-103 00:40:00:2030,0.051,0.02,0.992,0.061,0,0,0.417,-2.856,-103.2
 14:13:55.399,eb:33:2e:f9:57:b5, 2085-97-104 00:42:00:2030,0.05,0.02,0.991,0.061,0,0,0.417,-2.856,-103.2
 14:13:55.399,eb:33:2e:f9:57:b5, 2085-97-101 00:40:00:2028,0.049,0.021,0.991,0.061,0.061,0,0.417,-2.856,-103.2
 14:13:55.399,eb:33:2e:f9:57:b5, 2085-97-99 00:40:00:2029,0.05,0.02,0.991,0,0.061,0,0.417,-2.856,-103.2
 14:13:55.399,eb:33:2e:f9:57:b5, 2085-97-103 00:39:00:2032,0.048,0.02,0.991,0,0,0.061,0.417,-2.856,-103.195
 14:13:55.401,eb:33:2e:f9:57:b5, 2085-97-103 00:40:00:2031,0.049,0.019,0.99,0.061,-0.061,0.122,0.417,-2.856,-103.195
 14:13:55.401,eb:33:2e:f9:57:b5, 2085-97-101 00:41:00:2029,0.05,0.02,0.991,0.061,0,0.183,0.417,-2.856,-103.195
 14:13:55.401,eb:33:2e:f9:57:b5, 2085-97-98 00:41:00:2027,0.049,0.02,0.991,0.061,0.183,0.183,0.417,-2.856,-103.195
 14:13:55.401,eb:33:2e:f9:57:b5, 2085-97-100 00:42:00:2030,0.049,0.02,0.991,0,0,0.122,0.417,-2.856,-103.195
 14:13:55.403,eb:33:2e:f9:57:b5, 2085-97-102 00:41:00:2031,0.051,0.02,0.991,0,0,0.183,0.417,-2.856,-103.195
 14:13:55.403,eb:33:2e:f9:57:b5, 2085-97-102 00:42:00:2031,0.05,0.021,0.992,0,0.061,0.122,0.417,-2.856,-103.189
 14:13:55.403,eb:33:2e:f9:57:b5, 2085-97-100 00:43:00:2031,0.049,0.021,0.992,0,0,0.183,0.417,-2.856,-103.189
 14:13:55.403,eb:33:2e:f9:57:b5, 2085-97-103 00:42:00:2031,0.052,0.021,0.991,0.061,-0.061,0,0.417,-2.856,-103.189
 14:13:55.427,eb:33:2e:f9:57:b5, 2085-97-103 00:40:00:2032,0.05,0.02,0.992,0.061,0,0,0.417,-2.856,-103.189
 14:13:55.427,eb:33:2e:f9:57:b5, 2085-97-102 00:41:00:2030,0.05,0.02,0.992,0.061,0.061,0,0.417,-2.856,-103.189
 14:13:55.427,eb:33:2e:f9:57:b5, 2085-97-101 00:40:00:2027,0.05,0.019,0.991,0.061,0,-0.061,0.417,-2.856,-103.189
 14:13:55.427,eb:33:2e:f9:57:b5, 2085-97-102 00:40:00:2032,0.049,0.02,0.991,0.122,0,-0.122,0.417,-2.856,-103.184
 14:13:55.487,eb:33:2e:f9:57:b5, 2085-97-100 00:40:00:2032,0.049,0.02,0.991,0.122,0,0,0.417,-2.856,-103.184
 14:13:55.487,eb:33:2e:f9:57:b5, 2085-97-104 00:42:00:2031,0.048,0.02,0.99,0.183,0,-0.183,0.417,-2.856,-103.184
 14:13:55.487,eb:33:2e:f9:57:b5, 2085-97-96 00:38:00:2025,0.047,0.02,0.991,0.183,0.061,-0.122,0.417,-2.856,-103.184
 14:13:55.487,eb:33:2e:f9:57:b5, 2085-97-101 00:40:00:2031,0.05,0.019,0.99,0.183,-0.244,-0.061,0.417,-2.856,-103.184
 14:13:55.517,eb:33:2e:f9:57:b5, 2085-97-105 00:42:00:2031,0.051,0.02,0.992,0.122,-0.122,0,0.417,-2.856,-103.184
 14:13:55.517,eb:33:2e:f9:57:b5, 2085-97-101 00:42:00:2028,0.049,0.021,0.992,0.061,-0.061,0,0.417,-2.856,-103.178
 14:13:55.517,eb:33:2e:f9:57:b5, 2085-97-99 00:42:00:2028,0.05,0.02,0.99,0,-0.061,0.061,0.417,-2.856,-103.178
 14:13:55.517,eb:33:2e:f9:57:b5, 2085-97-104 00:42:00:2032,0.05,0.021,0.991,0,-0.244,0.061,0.417,-2.856,-103.178
 14:13:55.547,eb:33:2e:f9:57:b5, 2085-97-104 00:41:00:2031,0.051,0.021,0.992,0,-0.122,0.061,0.417,-2.856,-103.178
 14:13:55.547,eb:33:2e:f9:57:b5, 2085-97-105 00:40:00:2034,0.051,0.02,0.993,0.061,-0.061,0.122,0.417,-2.856,-103.178
 14:13:55.547,eb:33:2e:f9:57:b5, 2085-97-103 00:43:00:2030,0.049,0.021,0.992,0.122,0.244,0.183,0.417,-2.856,-103.178
 14:13:55.547,eb:33:2e:f9:57:b5, 2085-97-100 00:42:00:2028,0.049,0.02,0.99,0.061,0.183,0.122,0.417,-2.856,-103.173
 14:13:55.607,eb:33:2e:f9:57:b5, 2085-97-102 00:43:00:2029,0.05,0.021,0.99,0.061,0.122,0.061,0.417,-2.856,-103.173
 14:13:55.607,eb:33:2e:f9:57:b5, 2085-97-101 00:42:00:2027,0.049,0.021,0.99,0,0.061,0.061,0.417,-2.856,-103.173
 14:13:55.607,eb:33:2e:f9:57:b5, 2085-97-100 00:42:00:2026,0.049,0.021,0.989,0,0.061,0,0.417,-2.856,-103.173
 14:13:55.607,eb:33:2e:f9:57:b5, 2085-97-101 00:42:00:2029,0.05,0.021,0.99,-0.061,0,-0.061,0.417,-2.856,-103.173
 14:13:55.636,eb:33:2e:f9:57:b5, 2085-97-101 00:42:00:2030,0.05,0.021,0.991,0,-0.061,-0.061,0.417,-2.856,-103.173
 14:13:55.636,eb:33:2e:f9:57:b5, 2085-97-102 00:42:00:2029,0.049,0.02,0.991,-0.061,-0.061,-0.122,0.417,-2.856,-103.167
 14:13:55.636,eb:33:2e:f9:57:b5, 2085-97-102 00:41:00:2030,0.05,0.02,0.99,0,-0.122,-0.122,0.417,-2.856,-103.167
 14:13:55.636,eb:33:2e:f9:57:b5, 2085-97-103 00:41:00:2030,0.05,0.02,0.991,0,-0.122,-0.122,0.417,-2.856,-103.167
 14:13:55.697,eb:33:2e:f9:57:b5, 2085-97-101 00:40:00:2030,0.049,0.02,0.991,-0.061,-0.061,-0.122,0.417,-2.856,-103.167
 14:13:55.697,eb:33:2e:f9:57:b5, 2085-97-103 00:42:00:2028,0.05,0.021,0.991,-0.061,-0.061,-0.122,0.417,-2.856,-103.167
 14:13:55.697,eb:33:2e:f9:57:b5, 2085-97-102 00:41:00:2030,0.05,0.021,0.991,-0.122,-0.122,-0.122,0.417,-2.856,-103.167
 14:13:55.697,eb:33:2e:f9:57:b5, 2085-97-101 00:42:00:2028,0.049,0.02,0.991,-0.061,-0.122,-0.122,0.417,-2.856,-103.162
 14:13:55.726,eb:33:2e:f9:57:b5, 2085-97-102 00:41:00:2031,0.051,0.021,0.991,-0.122,-0.122,-0.122,0.417,-2.856,-103.162
 14:13:55.726,eb:33:2e:f9:57:b5, 2085-97-105 00:42:00:2031,0.051,0.02,0.992,-0.061,-0.122,-0.122,0.417,-2.856,-103.162
 14:13:55.726,eb:33:2e:f9:57:b5, 2085-97-104 00:41:00:2031,0.05,0.021,0.992,0,0,-0.061,0.417,-2.856,-103.162
 14:13:55.726,eb:33:2e:f9:57:b5, 2085-97-104 00:42:00:2030,0.05,0.021,0.992,0,0,0,0.417,-2.856,-103.162
 14:13:55.757,eb:33:2e:f9:57:b5, 2085-97-103 00:40:00:2030,0.049,0.02,0.991,0,0.122,0,0.417,-2.856,-103.162
 14:13:55.757,eb:33:2e:f9:57:b5, 2085-97-101 00:41:00:2031,0.05,0.02,0.992,0,0.122,0.061,0.417,-2.856,-103.156
 14:13:55.757,eb:33:2e:f9:57:b5, 2085-97-101 00:42:00:2030,0.05,0.02,0.991,0,0.244,0.183,0.417,-2.856,-103.156
 14:13:55.757,eb:33:2e:f9:57:b5, 2085-97-101 00:42:00:2029,0.05,0.021,0.991,0,0.183,0.183,0.417,-2.856,-103.156
 14:13:55.817,eb:33:2e:f9:57:b5, 2085-97-102 00:41:00:2030,0.05,0.02,0.991,0,0.061,0.183,0.423,-2.856,-103.156
 14:13:55.817,eb:33:2e:f9:57:b5, 2085-97-103 00:44:00:2031,0.05,0.021,0.992,0,0.122,0.122,0.423,-2.856,-103.156
 14:13:55.817,eb:33:2e:f9:57:b5, 2085-97-102 00:42:00:2031,0.049,0.021,0.992,0.061,0.061,0.122,0.423,-2.856,-103.156
 14:13:55.817,eb:33:2e:f9:57:b5, 2085-97-101 00:44:00:2029,0.05,0.021,0.991,0,0,0.061,0.423,-2.856,-103.156
 14:13:55.817,eb:33:2e:f9:57:b5, 2085-97-104 00:43:00:2031,0.051,0.021,0.992,0,0.061,0,0.423,-2.856,-103.156
 14:13:55.847,eb:33:2e:f9:57:b5, 2085-113-58 00:136:225:-1920,0.05,0.021,0.992,0,0.061,0,0.423,-2.856,-103.151
 14:13:55.847,eb:33:2e:f9:57:b5, 2085-97-101 00:41:00:2029,0.049,0.02,0.991,0,0.061,0,0.423,-2.856,-103.151
 14:13:55.847,eb:33:2e:f9:57:b5, 2085-97-103 00:42:00:2030,0.05,0.02,0.991,0,0,0,0.423,-2.856,-103.151
 14:13:55.847,eb:33:2e:f9:57:b5, 2085-97-101 00:42:00:2030,0.049,0.021,0.991,0,0,0,0.423,-2.856,-103.151
 14:13:55.877,eb:33:2e:f9:57:b5, 2085-97-102 00:42:00:2031,0.05,0.021,0.991,0,0,0,0.423,-2.856,-103.151
 14:13:55.877,eb:33:2e:f9:57:b5, 2085-97-101 00:43:00:2031,0.049,0.021,0.992,0,0,0,0.423,-2.856,-103.151
 14:13:55.877,eb:33:2e:f9:57:b5, 2085-97-104 00:43:00:2031,0.051,0.021,0.991,0,0,-0.061,0.423,-2.856,-103.151
 14:13:55.877,eb:33:2e:f9:57:b5, 2085-97-104 00:41:00:2033,0.05,0.021,0.992,0.061,0,-0.061,0.423,-2.856,-103.145
 14:13:55.937,eb:33:2e:f9:57:b5, 2085-97-104 00:41:00:2032,0.05,0.02,0.992,0.061,0.122,-0.061,0.423,-2.856,-103.145
 14:13:55.937,eb:33:2e:f9:57:b5, 2085-97-101 00:42:00:2029,0.05,0.02,0.992,0.061,0.122,0,0.423,-2.856,-103.145
 14:13:55.937,eb:33:2e:f9:57:b5, 2085-97-101 00:41:00:2030,0.049,0.02,0.991,0.122,0.122,0,0.423,-2.856,-103.145
 14:13:55.937,eb:33:2e:f9:57:b5, 2085-97-104 00:42:00:2030,0.051,0.02,0.991,0.122,0.122,0.061,0.423,-2.856,-103.145
 14:13:55.967,eb:33:2e:f9:57:b5, 2085-97-102 00:41:00:2030,0.049,0.021,0.991,0.061,0.183,0.122,0.423,-2.856,-103.145
 14:13:55.967,eb:33:2e:f9:57:b5, 2085-97-100 00:43:00:2030,0.049,0.02,0.991,0.061,0.183,0.061,0.423,-2.856,-103.14
 14:13:55.967,eb:33:2e:f9:57:b5, 2085-97-101 00:44:00:2028,0.05,0.021,0.991,0,0.122,0.061,0.423,-2.856,-103.14
 14:13:55.967,eb:33:2e:f9:57:b5, 2085-97-101 00:42:00:2029,0.049,0.021,0.99,0,0,0,0.423,-2.856,-103.14
 14:13:55.997,eb:33:2e:f9:57:b5, 2085-97-101 00:41:00:2032,0.05,0.021,0.992,0,0,0,0.423,-2.856,-103.14
 14:13:55.997,eb:33:2e:f9:57:b5, 2085-97-102 00:42:00:2031,0.05,0.02,0.992,0.061,0.061,0,0.423,-2.856,-103.14
 14:13:55.997,eb:33:2e:f9:57:b5, 2085-97-102 00:44:00:2030,0.049,0.022,0.991,0,0.061,0,0.423,-2.856,-103.14
 14:13:55.997,eb:33:2e:f9:57:b5, 2085-97-102 00:42:00:2031,0.049,0.021,0.991,0,0,0,0.423,-2.856,-103.14
 14:13:56.056,eb:33:2e:f9:57:b5, 2085-97-101 00:42:00:2031,0.05,0.021,0.991,0,0,0,0.423,-2.856,-103.14
 14:13:56.056,eb:33:2e:f9:57:b5, 2085-97-104 00:42:00:2030,0.05,0.021,0.991,0,0,0,0.423,-2.856,-103.134
 14:13:56.056,eb:33:2e:f9:57:b5, 2085-97-101 00:42:00:2030,0.049,0.021,0.991,0,0,-0.061,0.423,-2.856,-103.134
 14:13:56.056,eb:33:2e:f9:57:b5, 2085-97-103 00:43:00:2030,0.05,0.021,0.991,0.061,0,-0.061,0.423,-2.856,-103.134
 14:13:56.086,eb:33:2e:f9:57:b5, 2085-97-102 00:42:00:2029,0.05,0.021,0.991,0,0,-0.061,0.423,-2.856,-103.134
 14:13:56.086,eb:33:2e:f9:57:b5, 2085-97-102 00:42:00:2030,0.049,0.021,0.991,0,0.061,-0.061,0.423,-2.856,-103.134
 14:13:56.086,eb:33:2e:f9:57:b5, 2085-97-100 00:43:00:2027,0.049,0.021,0.99,0,0.061,-0.061,0.423,-2.856,-103.134
 14:13:56.086,eb:33:2e:f9:57:b5, 2085-97-104 00:43:00:2032,0.051,0.021,0.99,0,-0.183,-0.244,0.423,-2.856,-103.129
 14:13:56.146,eb:33:2e:f9:57:b5, 2085-97-104 00:42:00:2032,0.05,0.021,0.993,0.122,0,-0.305,0.423,-2.856,-103.129
 14:13:56.146,eb:33:2e:f9:57:b5, 2085-97-100 00:42:00:2029,0.049,0.021,0.991,0.183,0,-0.183,0.423,-2.856,-103.129
 14:13:56.146,eb:33:2e:f9:57:b5, 2085-97-102 00:43:00:2030,0.05,0.021,0.99,0.122,-0.061,-0.183,0.423,-2.862,-103.129
 14:13:56.146,eb:33:2e:f9:57:b5, 2085-97-102 00:43:00:2031,0.049,0.021,0.991,0.122,-0.061,-0.122,0.423,-2.862,-103.129
 14:13:56.178,eb:33:2e:f9:57:b5, 2085-97-102 00:43:00:2029,0.049,0.021,0.992,0.061,0.061,-0.061,0.428,-2.862,-103.129
 14:13:56.178,eb:33:2e:f9:57:b5, 2085-97-99 00:42:00:2028,0.049,0.021,0.991,0.061,0.061,0,0.423,-2.862,-103.129
 14:13:56.178,eb:33:2e:f9:57:b5, 2085-97-103 00:42:00:2033,0.051,0.02,0.991,0.061,-0.061,0,0.428,-2.862,-103.129
 14:13:56.178,eb:33:2e:f9:57:b5, 2085-97-101 00:43:00:2029,0.049,0.022,0.992,0.061,0.122,0,0.428,-2.862,-103.123
 14:13:56.206,eb:33:2e:f9:57:b5, 2085-97-100 00:43:00:2029,0.05,0.022,0.99,0,0.061,0,0.428,-2.862,-103.123
 14:13:56.206,eb:33:2e:f9:57:b5, 2085-97-99 00:45:00:2028,0.048,0.021,0.991,0.061,0.061,0,0.428,-2.862,-103.123
 14:13:56.206,eb:33:2e:f9:57:b5, 2085-97-99 00:43:00:2028,0.047,0.021,0.989,0,0,0,0.428,-2.862,-103.123
 14:13:56.206,eb:33:2e:f9:57:b5, 2085-97-101 00:44:00:2028,0.049,0.02,0.99,0,-0.061,0,0.428,-2.862,-103.123
 14:13:56.237,eb:33:2e:f9:57:b5, 2085-97-102 00:43:00:2030,0.048,0.021,0.99,0,-0.183,-0.183,0.428,-2.862,-103.123
 14:13:56.237,eb:33:2e:f9:57:b5, 2085-97-101 00:43:00:2031,0.048,0.021,0.99,-0.061,-0.244,-0.122,0.428,-2.862,-103.123
 14:13:56.237,eb:33:2e:f9:57:b5, 2085-97-103 00:43:00:2030,0.051,0.021,0.991,0,-0.244,-0.244,0.428,-2.856,-103.118
 14:13:56.237,eb:33:2e:f9:57:b5, 2085-97-105 00:44:00:2030,0.051,0.021,0.992,-0.061,-0.183,-0.183,0.428,-2.862,-103.118
 14:13:56.327,eb:33:2e:f9:57:b5, 2085-97-101 00:42:00:2027,0.05,0.021,0.992,-0.061,-0.122,-0.305,0.428,-2.856,-103.118
 14:13:56.327,eb:33:2e:f9:57:b5, 2085-97-104 00:43:00:2032,0.052,0.021,0.99,-0.061,-0.244,-0.305,0.428,-2.862,-103.118
 14:13:56.327,eb:33:2e:f9:57:b5, 2085-97-109 00:44:00:2032,0.05,0.021,0.992,0,-0.183,-0.366,0.428,-2.862,-103.118
 14:13:56.327,eb:33:2e:f9:57:b5, 2085-97-98 00:41:00:2026,0.047,0.02,0.99,-0.061,0,-0.122,0.428,-2.862,-103.118
 14:13:56.329,eb:33:2e:f9:57:b5, 2085-97-99 00:43:00:2028,0.051,0.021,0.988,-0.061,-0.183,0,0.428,-2.862,-103.118
 14:13:56.329,eb:33:2e:f9:57:b5, 2085-97-106 00:43:00:2034,0.052,0.021,0.992,-0.122,-0.305,0,0.428,-2.862,-103.112
 14:13:56.329,eb:33:2e:f9:57:b5, 2085-97-104 00:42:00:2031,0.05,0.021,0.994,-0.061,0,0.183,0.428,-2.862,-103.112
 14:13:56.329,eb:33:2e:f9:57:b5, 2085-97-104 00:43:00:2032,0.051,0.021,0.992,-0.061,0.122,0.183,0.428,-2.862,-103.112
 14:13:56.387,eb:33:2e:f9:57:b5, 2085-97-106 00:44:00:2032,0.052,0.022,0.992,-0.061,0.122,0.183,0.428,-2.862,-103.112
 14:13:56.387,eb:33:2e:f9:57:b5, 2085-97-105 00:43:00:2032,0.051,0.021,0.992,-0.061,0.244,0.122,0.428,-2.862,-103.112
 14:13:56.387,eb:33:2e:f9:57:b5, 2085-97-103 00:42:00:2029,0.05,0.021,0.992,-0.061,0.244,0.122,0.428,-2.862,-103.112
 14:13:56.387,eb:33:2e:f9:57:b5, 2085-97-103 00:42:00:2028,0.05,0.022,0.991,-0.061,0.244,0.061,0.428,-2.862,-103.112
 14:13:56.416,eb:33:2e:f9:57:b5, 2085-97-100 00:42:00:2028,0.049,0.021,0.99,-0.122,0.122,0,0.428,-2.862,-103.112
 14:13:56.416,eb:33:2e:f9:57:b5, 2085-113-58 00:91:225:-1890,0.049,0.021,0.99,-0.183,0,0,0.428,-2.862,-103.107
 14:13:56.416,eb:33:2e:f9:57:b5, 2085-97-101 00:43:00:2028,0.05,0.021,0.99,-0.183,-0.122,0,0.428,-2.862,-103.107
 14:13:56.417,eb:33:2e:f9:57:b5, 2085-97-100 00:44:00:2031,0.049,0.021,0.991,-0.244,-0.183,-0.061,0.428,-2.862,-103.107
 14:13:56.446,eb:33:2e:f9:57:b5, 2085-97-102 00:43:00:2033,0.051,0.021,0.991,-0.244,-0.183,-0.061,0.434,-2.862,-103.107
 14:13:56.446,eb:33:2e:f9:57:b5, 2085-97-106 00:41:00:2033,0.051,0.021,0.992,-0.244,0,0,0.434,-2.862,-103.107
 14:13:56.446,eb:33:2e:f9:57:b5, 2085-97-104 00:43:00:2031,0.05,0.021,0.993,-0.122,0.244,0.122,0.434,-2.862,-103.107
 14:13:56.446,eb:33:2e:f9:57:b5, 2085-97-105 00:43:00:2032,0.052,0.021,0.992,-0.061,0.244,0.122,0.434,-2.862,-103.107
 14:13:56.478,eb:33:2e:f9:57:b5, 2085-97-107 00:42:00:2034,0.053,0.021,0.993,0,0.366,0.061,0.434,-2.862,-103.107
 14:13:56.478,eb:33:2e:f9:57:b5, 2085-97-99 00:44:00:2026,0.048,0.021,0.994,0,0.732,0.122,0.434,-2.862,-103.101
 14:13:56.478,eb:33:2e:f9:57:b5, 2085-97-98 00:44:00:2027,0.048,0.022,0.99,0,0.549,0.122,0.434,-2.862,-103.101
 14:13:56.478,eb:33:2e:f9:57:b5, 2085-97-103 00:43:00:2032,0.049,0.021,0.989,0,0.183,0,0.434,-2.862,-103.101
 14:13:56.538,eb:33:2e:f9:57:b5, 2085-97-102 00:41:00:2032,0.049,0.021,0.99,-0.061,0.183,0,0.434,-2.862,-103.101
 14:13:56.538,eb:33:2e:f9:57:b5, 2085-97-101 00:41:00:2029,0.048,0.02,0.991,-0.061,0.244,0.061,0.434,-2.862,-103.101
 14:13:56.539,eb:33:2e:f9:57:b5, 2085-97-100 00:41:00:2031,0.049,0.021,0.991,-0.061,0.244,0.061,0.434,-2.862,-103.101
 14:13:56.539,eb:33:2e:f9:57:b5, 2085-97-100 00:42:00:2030,0.049,0.02,0.991,0,0.122,0.122,0.434,-2.862,-103.101
 14:13:56.567,eb:33:2e:f9:57:b5, 2085-97-103 00:41:00:2031,0.05,0.021,0.992,-0.061,0.122,0.244,0.434,-2.862,-103.101
 14:13:56.567,eb:33:2e:f9:57:b5, 2085-97-103 00:41:00:2032,0.049,0.021,0.993,0,0.244,0.244,0.434,-2.862,-103.096
 14:13:56.567,eb:33:2e:f9:57:b5, 2085-97-101 00:43:00:2031,0.049,0.021,0.992,0,0.305,0.366,0.434,-2.862,-103.096
 14:13:56.567,eb:33:2e:f9:57:b5, 2085-97-101 00:43:00:2029,0.05,0.021,0.991,0,0.305,0.244,0.434,-2.862,-103.096
 14:13:56.597,eb:33:2e:f9:57:b5, 2085-97-102 00:41:00:2033,0.051,0.02,0.991,0,0.244,0.244,0.434,-2.862,-103.096
 14:13:56.598,eb:33:2e:f9:57:b5, 2085-97-101 00:42:00:2031,0.05,0.02,0.992,0.061,0.427,0.244,0.434,-2.862,-103.096
 14:13:56.598,eb:33:2e:f9:57:b5, 2085-97-101 00:43:00:2032,0.048,0.021,0.992,0.122,0.366,0.244,0.434,-2.862,-103.096
 14:13:56.598,eb:33:2e:f9:57:b5, 2085-97-100 00:43:00:2029,0.049,0.021,0.991,0.122,0.488,0.244,0.434,-2.862,-103.096
 14:13:56.658,eb:33:2e:f9:57:b5, 2085-97-102 00:42:00:2029,0.05,0.021,0.991,0.122,0.305,0.183,0.434,-2.862,-103.096
 14:13:56.658,eb:33:2e:f9:57:b5, 2085-97-101 00:43:00:2031,0.048,0.021,0.992,0.122,0.366,0.244,0.434,-2.862,-103.09
 14:13:56.658,eb:33:2e:f9:57:b5, 2085-97-99 00:45:00:2029,0.048,0.021,0.99,0.061,0.244,0.122,0.434,-2.862,-103.09
 14:13:56.658,eb:33:2e:f9:57:b5, 2085-97-98 00:44:00:2029,0.049,0.021,0.991,0,0.122,0,0.434,-2.862,-103.09
 14:13:56.687,eb:33:2e:f9:57:b5, 2085-97-101 00:42:00:2030,0.049,0.021,0.991,0,0.061,0,0.434,-2.862,-103.09
 14:13:56.687,eb:33:2e:f9:57:b5, 2085-97-97 00:43:00:2029,0.049,0.021,0.992,0,0.061,0,0.434,-2.862,-103.09
 14:13:56.687,eb:33:2e:f9:57:b5, 2085-97-102 00:43:00:2031,0.049,0.022,0.991,0,0,-0.061,0.434,-2.862,-103.09
 14:13:56.687,eb:33:2e:f9:57:b5, 2085-97-99 00:43:00:2030,0.049,0.02,0.992,0,0.122,0,0.434,-2.862,-103.09
 14:13:56.717,eb:33:2e:f9:57:b5, 2085-97-100 00:43:00:2030,0.048,0.021,0.992,0.061,0.061,0,0.434,-2.862,-103.09
 14:13:56.717,eb:33:2e:f9:57:b5, 2085-97-97 00:43:00:2028,0.048,0.021,0.991,0.061,0.183,0.183,0.434,-2.862,-103.085
 14:13:56.717,eb:33:2e:f9:57:b5, 2085-97-99 00:44:00:2031,0.048,0.021,0.992,0,0,0.122,0.434,-2.862,-103.085
 14:13:56.717,eb:33:2e:f9:57:b5, 2085-97-100 00:43:00:2031,0.049,0.021,0.991,0,-0.061,0.305,0.434,-2.862,-103.085
 14:13:56.776,eb:33:2e:f9:57:b5, 2085-97-101 00:44:00:2028,0.049,0.021,0.991,-0.061,-0.061,0.244,0.434,-2.862,-103.085
 14:13:56.776,eb:33:2e:f9:57:b5, 2085-97-100 00:43:00:2029,0.049,0.021,0.991,-0.061,-0.061,0.244,0.434,-2.862,-103.085
 14:13:56.776,eb:33:2e:f9:57:b5, 2085-97-100 00:42:00:2029,0.048,0.021,0.991,-0.061,-0.061,0.305,0.434,-2.862,-103.085
 14:13:56.776,eb:33:2e:f9:57:b5, 2085-97-101 00:44:00:2032,0.049,0.021,0.991,-0.122,-0.122,0.183,0.434,-2.862,-103.085
 14:13:56.807,eb:33:2e:f9:57:b5, 2085-97-100 00:42:00:2030,0.049,0.02,0.991,-0.122,0,0.366,0.434,-2.862,-103.085
 14:13:56.807,eb:33:2e:f9:57:b5, 2085-97-99 00:43:00:2030,0.047,0.021,0.992,-0.122,0.061,0.427,0.434,-2.862,-103.079
 14:13:56.807,eb:33:2e:f9:57:b5, 2085-97-99 00:41:00:2030,0.047,0.021,0.99,-0.061,0,0.427,0.439,-2.862,-103.079
 14:13:56.807,eb:33:2e:f9:57:b5, 2085-97-100 00:42:00:2029,0.048,0.02,0.989,-0.183,-0.061,0.427,0.439,-2.862,-103.079
 14:13:56.837,eb:33:2e:f9:57:b5, 2085-97-98 00:45:00:2027,0.049,0.021,0.99,-0.305,-0.122,0.427,0.439,-2.862,-103.079
 14:13:56.837,eb:33:2e:f9:57:b5, 2085-97-101 00:44:00:2028,0.05,0.021,0.992,-0.305,-0.122,0.305,0.439,-2.862,-103.079
 14:13:56.837,eb:33:2e:f9:57:b5, 2085-97-102 00:43:00:2031,0.048,0.021,0.991,-0.366,-0.244,0.183,0.439,-2.862,-103.079
 14:13:56.837,eb:33:2e:f9:57:b5, 2085-97-101 00:41:00:2029,0.049,0.021,0.99,-0.366,-0.305,0.122,0.439,-2.862,-103.079
 14:13:56.897,eb:33:2e:f9:57:b5, 2085-97-102 00:41:00:2032,0.051,0.021,0.991,-0.366,-0.305,0,0.439,-2.856,-103.079
 14:13:56.897,eb:33:2e:f9:57:b5, 2085-97-104 00:39:00:2036,0.05,0.019,0.994,-0.244,-0.183,0,0.439,-2.856,-103.074
 14:13:56.897,eb:33:2e:f9:57:b5, 2085-97-101 00:41:00:2033,0.049,0.019,0.994,-0.183,0.183,0.244,0.439,-2.856,-103.074
 14:13:56.897,eb:33:2e:f9:57:b5, 2085-97-101 00:41:00:2030,0.049,0.02,0.992,-0.122,0.122,0.244,0.439,-2.856,-103.074
 14:13:56.928,eb:33:2e:f9:57:b5, 2085-97-100 00:42:00:2030,0.048,0.02,0.992,0,0.244,0.305,0.439,-2.856,-103.074
 14:13:56.928,eb:33:2e:f9:57:b5, 2085-97-100 00:42:00:2029,0.049,0.02,0.99,-0.061,0.244,0.244,0.439,-2.856,-103.074
 14:13:56.928,eb:33:2e:f9:57:b5, 2085-97-102 00:44:00:2029,0.05,0.021,0.99,-0.061,0.122,0.122,0.439,-2.856,-103.074
 14:13:56.928,eb:33:2e:f9:57:b5, 2085-97-101 00:43:00:2028,0.048,0.021,0.991,-0.061,0.122,0.061,0.439,-2.856,-103.074
 14:13:56.958,eb:33:2e:f9:57:b5, 2085-97-100 00:43:00:2028,0.049,0.021,0.991,-0.183,0,-0.122,0.439,-2.856,-103.074
 14:13:56.958,eb:33:2e:f9:57:b5, 2085-97-99 00:40:00:2028,0.049,0.021,0.991,-0.183,-0.183,-0.183,0.439,-2.856,-103.074
 14:13:56.958,eb:33:2e:f9:57:b5, 2085-97-101 00:41:00:2030,0.048,0.02,0.991,-0.244,-0.183,-0.244,0.439,-2.856,-103.074
 14:13:56.958,eb:33:2e:f9:57:b5, 2085-97-100 00:42:00:2031,0.049,0.02,0.992,-0.244,-0.244,-0.244,0.439,-2.856,-103.068
 14:13:57.017,eb:33:2e:f9:57:b5, 2085-97-100 00:40:00:2031,0.049,0.02,0.991,-0.183,-0.183,-0.183,0.439,-2.856,-103.068
 14:13:57.017,eb:33:2e:f9:57:b5, 2085-97-100 00:41:00:2031,0.049,0.02,0.992,-0.183,-0.061,-0.122,0.439,-2.856,-103.068
 14:13:57.017,eb:33:2e:f9:57:b5, 2085-97-101 00:41:00:2031,0.049,0.02,0.991,-0.122,0,0,0.439,-2.856,-103.068
 14:13:57.017,eb:33:2e:f9:57:b5, 2085-97-101 00:41:00:2031,0.049,0.02,0.991,-0.244,-0.061,0,0.439,-2.856,-103.068
 14:13:57.047,eb:33:2e:f9:57:b5, 2085-97-103 00:40:00:2031,0.05,0.02,0.991,-0.183,-0.183,0,0.439,-2.856,-103.068
 14:13:57.047,eb:33:2e:f9:57:b5, 2085-97-102 00:38:00:2033,0.05,0.02,0.992,-0.122,0,0.122,0.439,-2.856,-103.068
 14:13:57.047,eb:33:2e:f9:57:b5, 2085-97-104 00:39:00:2032,0.051,0.019,0.992,-0.061,0.122,0.244,0.439,-2.856,-103.068
 14:13:57.047,eb:33:2e:f9:57:b5, 2085-97-102 00:41:00:2032,0.049,0.019,0.992,0,0.305,0.427,0.439,-2.856,-103.068
 14:13:57.138,eb:33:2e:f9:57:b5, 2085-97-101 00:39:00:2029,0.049,0.02,0.992,-0.061,0.366,0.427,0.439,-2.856,-103.068
 14:13:57.138,eb:33:2e:f9:57:b5, 2085-97-102 00:41:00:2032,0.05,0.019,0.992,0,0.305,0.427,0.439,-2.856,-103.063
 14:13:57.138,eb:33:2e:f9:57:b5, 2085-113-81 00:157:79:-437,0.05,0.019,0.992,0,0.488,0.61,0.439,-2.856,-103.063
 14:13:57.138,eb:33:2e:f9:57:b5, 2085-97-101 00:39:00:2030,0.05,0.02,0.992,0,0.488,0.61,0.439,-2.856,-103.063
 14:13:57.138,eb:33:2e:f9:57:b5, 2085-97-101 00:41:00:2027,0.048,0.02,0.991,0,0.488,0.549,0.439,-2.856,-103.063
 14:13:57.138,eb:33:2e:f9:57:b5, 2085-97-98 00:40:00:2026,0.048,0.02,0.99,0,0.366,0.427,0.439,-2.856,-103.063
 14:13:57.138,eb:33:2e:f9:57:b5, 2085-97-96 00:39:00:2027,0.045,0.019,0.989,-0.122,0.183,0.305,0.439,-2.856,-103.063
 14:13:57.138,eb:33:2e:f9:57:b5, 2085-97-106 00:43:00:2034,0.051,0.02,0.988,-0.061,-0.061,0.183,0.439,-2.856,-103.063
 14:13:57.138,eb:33:2e:f9:57:b5, 2085-97-105 00:41:00:2033,0.048,0.02,0.993,0,0.061,0.061,0.439,-2.856,-103.063
 14:13:57.167,eb:33:2e:f9:57:b5, 2085-97-100 00:41:00:2028,0.048,0.02,0.99,0,0.122,0.061,0.439,-2.856,-103.063
 14:13:57.167,eb:33:2e:f9:57:b5, 2085-97-99 00:40:00:2030,0.048,0.02,0.99,0,-0.061,-0.183,0.439,-2.856,-103.063
 14:13:57.167,eb:33:2e:f9:57:b5, 2085-97-98 00:40:00:2029,0.048,0.019,0.991,0,0,-0.061,0.439,-2.856,-103.063
 14:13:57.167,eb:33:2e:f9:57:b5, 2085-97-98 00:40:00:2029,0.049,0.019,0.991,-0.061,0,0,0.439,-2.856,-103.063
 14:13:57.227,eb:33:2e:f9:57:b5, 2085-97-100 00:39:00:2030,0.049,0.02,0.991,-0.061,-0.122,0,0.439,-2.856,-103.057
 14:13:57.227,eb:33:2e:f9:57:b5, 2085-97-103 00:40:00:2032,0.049,0.02,0.992,0,0,-0.061,0.439,-2.856,-103.057
 14:13:57.227,eb:33:2e:f9:57:b5, 2085-97-103 00:40:00:2031,0.05,0.02,0.991,0,-0.061,-0.122,0.439,-2.856,-103.057
 14:13:57.227,eb:33:2e:f9:57:b5, 2085-97-100 00:40:00:2030,0.049,0.019,0.992,0,0.061,-0.183,0.439,-2.856,-103.057
 14:13:57.286,eb:33:2e:f9:57:b5, 2085-97-101 00:38:00:2029,0.049,0.019,0.992,0.061,0.122,-0.061,0.439,-2.856,-103.057
 14:13:57.286,eb:33:2e:f9:57:b5, 2085-97-100 00:42:00:2028,0.049,0.021,0.99,0.061,0.061,-0.061,0.439,-2.856,-103.057
 14:13:57.286,eb:33:2e:f9:57:b5, 2085-97-101 00:40:00:2029,0.049,0.02,0.99,0,0.061,-0.061,0.439,-2.856,-103.057
 14:13:57.286,eb:33:2e:f9:57:b5, 2085-97-101 00:40:00:2031,0.049,0.02,0.99,0,0,-0.122,0.439,-2.856,-103.057
 14:13:57.316,eb:33:2e:f9:57:b5, 2085-97-101 00:41:00:2031,0.049,0.02,0.991,0.061,0,-0.122,0.439,-2.856,-103.057
 14:13:57.316,eb:33:2e:f9:57:b5, 2085-97-99 00:39:00:2029,0.048,0.02,0.992,0.122,-0.061,-0.244,0.439,-2.856,-103.057
 14:13:57.316,eb:33:2e:f9:57:b5, 2085-97-100 00:38:00:2030,0.049,0.019,0.991,0.122,-0.061,-0.244,0.439,-2.856,-103.057
 14:13:57.316,eb:33:2e:f9:57:b5, 2085-97-102 00:37:00:2034,0.048,0.019,0.991,0.244,0,-0.122,0.439,-2.856,-103.052
 14:13:57.348,eb:33:2e:f9:57:b5, 2085-97-101 00:42:00:2030,0.047,0.021,0.989,0.122,-0.061,0,0.439,-2.856,-103.052
 14:13:57.348,eb:33:2e:f9:57:b5, 2085-97-96 00:42:00:2025,0.049,0.02,0.99,0.122,-0.061,-0.061,0.439,-2.856,-103.052
 14:13:57.348,eb:33:2e:f9:57:b5, 2085-97-98 00:42:00:2026,0.05,0.02,0.991,0.061,-0.366,-0.244,0.439,-2.856,-103.052
 14:13:57.348,eb:33:2e:f9:57:b5, 2085-97-100 00:42:00:2031,0.051,0.021,0.993,0.061,-0.488,-0.244,0.439,-2.856,-103.052
 14:13:57.377,eb:33:2e:f9:57:b5, 2085-97-102 00:41:00:2030,0.05,0.021,0.992,0.061,-0.488,-0.427,0.439,-2.856,-103.052
 14:13:57.377,eb:33:2e:f9:57:b5, 2085-97-101 00:41:00:2030,0.051,0.019,0.993,0.122,-0.366,-0.305,0.439,-2.856,-103.052
 14:13:57.377,eb:33:2e:f9:57:b5, 2085-97-103 00:40:00:2032,0.049,0.021,0.992,0.122,-0.427,-0.305,0.439,-2.856,-103.052
 14:13:57.377,eb:33:2e:f9:57:b5, 2085-97-103 00:43:00:2031,0.05,0.02,0.991,0.061,-0.305,-0.183,0.439,-2.856,-103.052
 14:13:57.407,eb:33:2e:f9:57:b5, 2085-97-100 00:42:00:2028,0.049,0.02,0.991,0.122,-0.244,-0.183,0.439,-2.856,-103.052
 14:13:57.407,eb:33:2e:f9:57:b5, 2085-97-101 00:44:00:2028,0.049,0.021,0.991,0,-0.366,-0.122,0.439,-2.856,-103.046
 14:13:57.407,eb:33:2e:f9:57:b5, 2085-97-100 00:41:00:2026,0.047,0.021,0.99,0,-0.366,-0.122,0.439,-2.856,-103.046
 14:13:57.407,eb:33:2e:f9:57:b5, 2085-97-106 00:46:00:2029,0.051,0.019,0.991,-0.122,-0.305,0,0.439,-2.856,-103.046
 14:13:57.496,eb:33:2e:f9:57:b5, 2085-97-100 00:40:00:2026,0.052,0.021,0.992,0,-0.488,-0.244,0.439,-2.856,-103.046
 14:13:57.496,eb:33:2e:f9:57:b5, 2085-97-100 00:41:00:2030,0.048,0.019,0.995,0,-0.183,-0.061,0.439,-2.856,-103.046
 14:13:57.496,eb:33:2e:f9:57:b5, 2085-97-105 00:41:00:2033,0.05,0.02,0.991,0.061,-0.488,-0.122,0.439,-2.856,-103.046
 14:13:57.496,eb:33:2e:f9:57:b5, 2085-97-105 00:40:00:2035,0.051,0.021,0.991,0.061,-0.549,-0.183,0.439,-2.856,-103.046
 14:13:57.498,eb:33:2e:f9:57:b5, 2085-97-104 00:40:00:2033,0.05,0.019,0.992,0.183,-0.183,-0.122,0.439,-2.856,-103.046
 14:13:57.498,eb:33:2e:f9:57:b5, 2085-97-103 00:41:00:2034,0.051,0.02,0.992,0.244,0,-0.061,0.439,-2.856,-103.046
 14:13:57.498,eb:33:2e:f9:57:b5, 2085-97-102 00:42:00:2030,0.05,0.021,0.992,0.183,0.061,0,0.439,-2.856,-103.046
 14:13:57.498,eb:33:2e:f9:57:b5, 2085-97-101 00:44:00:2030,0.049,0.021,0.992,0.122,0.122,0,0.439,-2.856,-103.046
 14:13:57.527,eb:33:2e:f9:57:b5, 2085-97-101 00:43:00:2027,0.049,0.022,0.99,0.061,0,0,0.439,-2.856,-103.046
 14:13:57.527,eb:33:2e:f9:57:b5, 2085-97-103 00:44:00:2028,0.051,0.02,0.989,0.061,-0.122,0,0.439,-2.856,-103.041
 14:13:57.527,eb:33:2e:f9:57:b5, 2085-97-103 00:44:00:2032,0.05,0.021,0.991,0,-0.122,-0.061,0.439,-2.856,-103.041
 14:13:57.527,eb:33:2e:f9:57:b5, 2085-97-100 00:42:00:2030,0.049,0.021,0.992,0,-0.061,-0.061,0.439,-2.856,-103.041
 14:13:57.587,eb:33:2e:f9:57:b5, 2085-97-100 00:40:00:2031,0.05,0.02,0.991,0,0,0,0.439,-2.856,-103.041
 14:13:57.587,eb:33:2e:f9:57:b5, 2085-97-104 00:42:00:2031,0.051,0.02,0.992,0,0,0.122,0.439,-2.856,-103.041
 14:13:57.587,eb:33:2e:f9:57:b5, 2085-97-104 00:39:00:2033,0.051,0.02,0.992,0,0,0.244,0.439,-2.856,-103.041
 14:13:57.587,eb:33:2e:f9:57:b5, 2085-97-103 00:40:00:2031,0.051,0.02,0.991,0,0.122,0.305,0.439,-2.856,-103.041
 14:13:57.648,eb:33:2e:f9:57:b5, 2085-97-103 00:42:00:2031,0.05,0.02,0.992,0.061,0.122,0.427,0.439,-2.856,-103.041
 14:13:57.648,eb:33:2e:f9:57:b5, 2085-97-104 00:42:00:2031,0.05,0.021,0.992,0,0.305,0.488,0.439,-2.856,-103.041
 14:13:57.648,eb:33:2e:f9:57:b5, 2085-97-101 00:42:00:2032,0.05,0.021,0.992,0.061,0.427,0.488,0.439,-2.856,-103.041
 14:13:57.648,eb:33:2e:f9:57:b5, 2085-97-103 00:41:00:2030,0.05,0.021,0.992,0.061,0.488,0.549,0.439,-2.856,-103.041
 14:13:57.648,eb:33:2e:f9:57:b5, 2085-97-103 00:41:00:2031,0.049,0.02,0.991,0.061,0.427,0.61,0.439,-2.856,-103.041
 14:13:57.648,eb:33:2e:f9:57:b5, 2085-97-101 00:42:00:2029,0.049,0.02,0.991,0.061,0.549,0.732,0.439,-2.856,-103.035
 14:13:57.648,eb:33:2e:f9:57:b5, 2085-97-100 00:42:00:2029,0.049,0.021,0.991,0,0.427,0.732,0.439,-2.856,-103.035
 14:13:57.648,eb:33:2e:f9:57:b5, 2085-97-102 00:42:00:2031,0.05,0.02,0.991,0,0.488,0.732,0.439,-2.856,-103.035
 14:13:57.737,eb:33:2e:f9:57:b5, 2085-97-101 00:43:00:2028,0.049,0.021,0.992,0,0.61,0.732,0.439,-2.856,-103.035
 14:13:57.737,eb:33:2e:f9:57:b5, 2085-97-100 00:44:00:2029,0.05,0.021,0.991,0,0.488,0.671,0.439,-2.856,-103.035
 14:13:57.737,eb:33:2e:f9:57:b5, 2085-97-102 00:41:00:2030,0.05,0.021,0.992,0,0.366,0.549,0.439,-2.856,-103.035
 14:13:57.737,eb:33:2e:f9:57:b5, 2085-97-103 00:43:00:2028,0.05,0.021,0.991,0,0.305,0.488,0.439,-2.856,-103.035
 14:13:57.739,eb:33:2e:f9:57:b5, 2085-97-101 00:43:00:2030,0.049,0.02,0.991,0,0.244,0.305,0.439,-2.856,-103.035
 14:13:57.739,eb:33:2e:f9:57:b5, 2085-97-99 00:43:00:2031,0.049,0.021,0.992,-0.061,0.244,0.305,0.439,-2.856,-103.035
 14:13:57.739,eb:33:2e:f9:57:b5, 2085-97-100 00:41:00:2027,0.05,0.021,0.991,-0.061,0.122,0.183,0.439,-2.856,-103.035
 14:13:57.739,eb:33:2e:f9:57:b5, 2085-97-102 00:42:00:2030,0.049,0.02,0.992,0,0.122,0.305,0.439,-2.856,-103.03
 14:13:57.767,eb:33:2e:f9:57:b5, 2085-97-101 00:42:00:2029,0.049,0.021,0.991,0,0.183,0.244,0.439,-2.856,-103.03
 14:13:57.767,eb:33:2e:f9:57:b5, 2085-97-101 00:41:00:2031,0.049,0.021,0.992,0,0.183,0.305,0.439,-2.856,-103.03
 14:13:57.767,eb:33:2e:f9:57:b5, 2085-97-99 00:43:00:2029,0.049,0.021,0.991,0,0.305,0.305,0.439,-2.856,-103.03
 14:13:57.767,eb:33:2e:f9:57:b5, 2085-97-102 00:43:00:2029,0.049,0.021,0.991,0,0.244,0.244,0.439,-2.856,-103.03
 14:13:57.826,eb:33:2e:f9:57:b5, 2085-97-101 00:41:00:2030,0.049,0.02,0.991,0,0.305,0.183,0.439,-2.856,-103.03
 14:13:57.826,eb:33:2e:f9:57:b5, 2085-97-100 00:41:00:2031,0.048,0.02,0.991,0,0.183,0.122,0.439,-2.856,-103.03
 14:13:57.826,eb:33:2e:f9:57:b5, 2085-97-99 00:42:00:2032,0.049,0.021,0.992,0,0.244,0.183,0.439,-2.856,-103.03
 14:13:57.826,eb:33:2e:f9:57:b5, 2085-97-99 00:42:00:2032,0.048,0.021,0.992,0,0.244,0.122,0.439,-2.856,-103.03
 14:13:57.856,eb:33:2e:f9:57:b5, 2085-97-98 00:41:00:2031,0.049,0.02,0.991,0,0.183,0.122,0.439,-2.856,-103.03
 14:13:57.856,eb:33:2e:f9:57:b5, 2085-97-100 00:43:00:2032,0.048,0.021,0.993,0,0.122,0.183,0.439,-2.856,-103.03
 14:13:57.856,eb:33:2e:f9:57:b5, 2085-97-99 00:42:00:2030,0.049,0.021,0.991,0,0.183,0.244,0.439,-2.856,-103.03
 14:13:57.856,eb:33:2e:f9:57:b5, 2085-97-98 00:43:00:2028,0.049,0.021,0.99,0,0.122,0.244,0.439,-2.856,-103.024
 14:13:57.887,eb:33:2e:f9:57:b5, 2085-97-101 00:43:00:2030,0.05,0.021,0.991,-0.061,0.122,0.244,0.439,-2.856,-103.024
 14:13:57.887,eb:33:2e:f9:57:b5, 2085-97-99 00:41:00:2030,0.049,0.021,0.991,-0.122,0.061,0.244,0.439,-2.856,-103.024
 14:13:57.887,eb:33:2e:f9:57:b5, 2085-97-100 00:41:00:2029,0.049,0.021,0.991,-0.122,0.061,0.183,0.439,-2.856,-103.024
 14:13:57.887,eb:33:2e:f9:57:b5, 2085-97-103 00:43:00:2032,0.05,0.021,0.991,-0.061,0,0.122,0.439,-2.856,-103.024
 14:13:57.948,eb:33:2e:f9:57:b5, 2085-97-100 00:41:00:2031,0.049,0.021,0.992,-0.122,0.061,0.122,0.439,-2.856,-103.024
 14:13:57.948,eb:33:2e:f9:57:b5, 2085-97-98 00:42:00:2030,0.048,0.02,0.991,-0.122,0.061,0.061,0.439,-2.856,-103.024
 14:13:57.948,eb:33:2e:f9:57:b5, 2085-97-99 00:42:00:2030,0.049,0.021,0.991,-0.122,0,0,0.439,-2.856,-103.024
 14:13:57.948,eb:33:2e:f9:57:b5, 2085-97-100 00:42:00:2031,0.048,0.021,0.992,-0.183,0,0.061,0.439,-2.856,-103.024
 14:13:57.977,eb:33:2e:f9:57:b5, 2085-113-58 00:105:226:-1740,0.049,0.02,0.991,-0.122,0,0.061,0.439,-2.856,-103.024
 14:13:57.977,eb:33:2e:f9:57:b5, 2085-97-99 00:42:00:2029,0.048,0.021,0.991,-0.122,0,0.122,0.439,-2.856,-103.024
 14:13:57.977,eb:33:2e:f9:57:b5, 2085-97-98 00:41:00:2028,0.048,0.02,0.991,-0.122,0,0.061,0.439,-2.856,-103.024
 14:13:57.977,eb:33:2e:f9:57:b5, 2085-97-101 00:43:00:2031,0.051,0.02,0.99,-0.122,-0.061,0.061,0.439,-2.856,-103.019
 14:13:58.037,eb:33:2e:f9:57:b5, 2085-97-105 00:40:00:2034,0.048,0.02,0.992,0,0,-0.061,0.439,-2.856,-103.019
 14:13:58.037,eb:33:2e:f9:57:b5, 2085-97-98 00:42:00:2028,0.048,0.02,0.991,0,0.244,0,0.439,-2.856,-103.019
 14:13:58.037,eb:33:2e:f9:57:b5, 2085-97-98 00:43:00:2028,0.05,0.02,0.99,0,-0.122,-0.183,0.439,-2.856,-103.019
 14:13:58.037,eb:33:2e:f9:57:b5, 2085-97-101 00:41:00:2031,0.05,0.021,0.992,0,-0.183,-0.244,0.439,-2.856,-103.019
 14:13:58.069,eb:33:2e:f9:57:b5, 2085-97-101 00:34:00:2044,0.044,0.02,0.993,0.122,-0.305,-0.305,0.439,-2.856,-103.019
 14:13:58.069,eb:33:2e:f9:57:b5, 2085-97-106 00:46:00:2036,0.044,0.022,0.985,0,-0.183,0,0.439,-2.856,-103.019
 14:13:58.069,eb:33:2e:f9:57:b5, 2085-97-101 00:38:00:2034,0.047,0.021,0.987,0,-0.305,-0.183,0.439,-2.856,-103.019
 14:13:58.069,eb:33:2e:f9:57:b5, 2085-97-100 00:41:00:2029,0.049,0.02,0.989,-0.122,-0.305,-0.183,0.439,-2.856,-103.019
 14:13:58.096,eb:33:2e:f9:57:b5, 2085-97-103 00:41:00:2030,0.05,0.021,0.991,-0.122,-0.305,-0.244,0.445,-2.856,-103.019
 14:13:58.096,eb:33:2e:f9:57:b5, 2085-97-100 00:44:00:2030,0.049,0.021,0.992,-0.183,-0.244,-0.244,0.439,-2.856,-103.019
 14:13:58.096,eb:33:2e:f9:57:b5, 2085-97-101 00:43:00:2033,0.049,0.021,0.991,-0.244,-0.244,-0.305,0.445,-2.856,-103.019
 14:13:58.096,eb:33:2e:f9:57:b5, 2085-97-101 00:41:00:2031,0.05,0.021,0.992,-0.183,-0.305,-0.305,0.445,-2.856,-103.013
 14:13:58.157,eb:33:2e:f9:57:b5, 2085-97-105 00:41:00:2033,0.05,0.02,0.992,-0.244,-0.305,-0.305,0.445,-2.856,-103.013
 14:13:58.157,eb:33:2e:f9:57:b5, 2085-97-103 00:42:00:2031,0.047,0.02,0.99,-0.183,-0.366,-0.305,0.445,-2.856,-103.013
 14:13:58.157,eb:33:2e:f9:57:b5, 2085-97-97 00:42:00:2026,0.047,0.02,0.989,-0.183,-0.549,-0.427,0.445,-2.856,-103.013
 14:13:58.157,eb:33:2e:f9:57:b5, 2085-97-104 00:39:00:2034,0.05,0.02,0.989,-0.183,-0.854,-0.549,0.445,-2.856,-103.013
 14:13:58.188,eb:33:2e:f9:57:b5, 2085-97-102 00:42:00:2030,0.051,0.019,0.992,-0.183,-0.61,-0.549,0.445,-2.856,-103.013
 14:13:58.188,eb:33:2e:f9:57:b5, 2085-97-105 00:41:00:2034,0.05,0.021,0.992,-0.183,-0.671,-0.549,0.445,-2.856,-103.013
 14:13:58.188,eb:33:2e:f9:57:b5, 2085-97-103 00:41:00:2031,0.05,0.02,0.992,-0.183,-0.488,-0.549,0.445,-2.856,-103.013
 14:13:58.188,eb:33:2e:f9:57:b5, 2085-97-100 00:41:00:2028,0.049,0.02,0.991,-0.122,-0.488,-0.732,0.445,-2.856,-103.013
 14:13:58.217,eb:33:2e:f9:57:b5, 2085-97-101 00:42:00:2029,0.049,0.02,0.991,-0.061,-0.549,-0.732,0.445,-2.856,-103.013
 14:13:58.225,eb:33:2e:f9:57:b5, 2085-97-102 00:40:00:2030,0.049,0.021,0.99,-0.122,-0.732,-0.793,0.445,-2.856,-103.013
 14:13:58.225,eb:33:2e:f9:57:b5, 2085-97-99 00:40:00:2028,0.05,0.02,0.991,-0.061,-0.671,-0.61,0.445,-2.856,-103.013
 14:13:58.225,eb:33:2e:f9:57:b5, 2085-97-104 00:41:00:2030,0.051,0.02,0.991,-0.122,-0.732,-0.488,0.445,-2.856,-103.013
 14:13:58.335,eb:33:2e:f9:57:b5, 2085-97-105 00:41:00:2031,0.05,0.02,0.992,-0.183,-0.732,-0.427,0.445,-2.856,-103.013
 14:13:58.335,eb:33:2e:f9:57:b5, 2085-97-102 00:39:00:2030,0.051,0.02,0.992,-0.244,-0.671,-0.305,0.445,-2.856,-103.008
 14:13:58.335,eb:33:2e:f9:57:b5, 2085-97-106 00:39:00:2033,0.053,0.019,0.992,-0.183,-0.671,-0.244,0.445,-2.856,-103.008
 14:13:58.335,eb:33:2e:f9:57:b5, 2085-97-108 00:37:00:2034,0.053,0.018,0.992,-0.183,-0.488,-0.061,0.445,-2.856,-103.008
 14:13:58.335,eb:33:2e:f9:57:b5, 2085-97-108 00:41:00:2034,0.054,0.019,0.994,-0.122,-0.183,0,0.445,-2.856,-103.008
 14:13:58.335,eb:33:2e:f9:57:b5, 2085-97-107 00:39:00:2036,0.053,0.019,0.994,0,0,0.122,0.445,-2.856,-103.008
 14:13:58.336,eb:33:2e:f9:57:b5, 2085-97-108 00:39:00:2031,0.051,0.02,0.993,0.061,0.366,0.366,0.439,-2.856,-103.008
 14:13:58.336,eb:33:2e:f9:57:b5, 2085-97-104 00:39:00:2030,0.05,0.02,0.992,0.061,0.366,0.427,0.439,-2.856,-103.008
 14:13:58.339,eb:33:2e:f9:57:b5, 2085-97-105 00:41:00:2032,0.053,0.019,0.991,0.061,0.305,0.488,0.439,-2.856,-103.008
 14:13:58.339,eb:33:2e:f9:57:b5, 2085-97-102 00:42:00:2027,0.05,0.02,0.993,0.183,0.427,0.61,0.439,-2.856,-103.008
 14:13:58.339,eb:33:2e:f9:57:b5, 2085-97-101 00:42:00:2027,0.049,0.021,0.991,0,0.488,0.549,0.439,-2.856,-103.008
 14:13:58.339,eb:33:2e:f9:57:b5, 2085-97-104 00:39:00:2033,0.052,0.02,0.99,0,0.183,0.488,0.439,-2.856,-103.008
 14:13:58.366,eb:33:2e:f9:57:b5, 2085-97-104 00:39:00:2030,0.05,0.02,0.992,0,0.427,0.549,0.439,-2.856,-103.008
 14:13:58.366,eb:33:2e:f9:57:b5, 2085-97-102 00:40:00:2030,0.051,0.019,0.991,0.061,0.549,0.671,0.439,-2.856,-103.008
 14:13:58.366,eb:33:2e:f9:57:b5, 2085-97-103 00:41:00:2031,0.05,0.02,0.992,0.061,0.61,0.732,0.439,-2.862,-103.008
 14:13:58.366,eb:33:2e:f9:57:b5, 2085-97-102 00:41:00:2032,0.049,0.021,0.992,0.061,0.671,0.732,0.439,-2.862,-103.008
 14:13:58.487,eb:33:2e:f9:57:b5, 2085-97-103 00:40:00:2032,0.05,0.02,0.992,0,0.732,0.793,0.439,-2.862,-103.008
 14:13:58.487,eb:33:2e:f9:57:b5, 2085-97-103 00:39:00:2032,0.049,0.02,0.992,0.061,0.854,0.854,0.439,-2.862,-103.002
 14:13:58.487,eb:33:2e:f9:57:b5, 2085-97-101 00:40:00:2029,0.049,0.02,0.992,0.061,0.854,0.916,0.439,-2.862,-103.002
 14:13:58.487,eb:33:2e:f9:57:b5, 2085-97-101 00:41:00:2029,0.048,0.02,0.991,0.122,0.854,0.977,0.439,-2.862,-103.002
 14:13:58.489,eb:33:2e:f9:57:b5, 2085-97-99 00:40:00:2031,0.049,0.02,0.991,0,0.854,1.038,0.439,-2.862,-103.002
 14:13:58.489,eb:33:2e:f9:57:b5, 2085-97-102 00:40:00:2031,0.049,0.02,0.992,0.061,0.854,1.038,0.439,-2.862,-103.002
 14:13:58.489,eb:33:2e:f9:57:b5, 2085-97-100 00:41:00:2029,0.048,0.021,0.991,0,0.854,1.038,0.439,-2.862,-103.002
 14:13:58.489,eb:33:2e:f9:57:b5, 2085-97-98 00:40:00:2028,0.048,0.02,0.991,0,0.793,1.038,0.439,-2.862,-103.002
 14:13:58.491,eb:33:2e:f9:57:b5, 2085-97-99 00:40:00:2029,0.049,0.019,0.991,0,0.61,0.854,0.439,-2.862,-103.002
 14:13:58.491,eb:33:2e:f9:57:b5, 2085-97-101 00:43:00:2030,0.049,0.021,0.992,0,0.61,0.793,0.439,-2.862,-103.002
 14:13:58.491,eb:33:2e:f9:57:b5, 2085-97-100 00:42:00:2030,0.049,0.021,0.991,0,0.549,0.61,0.439,-2.862,-103.002
 14:13:58.491,eb:33:2e:f9:57:b5, 2085-97-100 00:42:00:2031,0.048,0.02,0.991,0,0.549,0.488,0.439,-2.862,-103.002
 14:13:58.578,eb:33:2e:f9:57:b5, 2085-97-98 00:42:00:2030,0.048,0.021,0.99,0,0.427,0.366,0.439,-2.862,-103.002
 14:13:58.578,eb:33:2e:f9:57:b5, 2085-97-101 00:40:00:2030,0.048,0.021,0.991,-0.061,0.305,0.305,0.439,-2.862,-103.002
 14:13:58.578,eb:33:2e:f9:57:b5, 2085-97-100 00:42:00:2030,0.048,0.02,0.992,-0.061,0.244,0.244,0.439,-2.862,-103.002
 14:13:58.578,eb:33:2e:f9:57:b5, 2085-97-99 00:40:00:2029,0.048,0.02,0.992,-0.061,0.244,0.183,0.439,-2.862,-102.997
 14:13:58.578,eb:33:2e:f9:57:b5, 2085-113-100 00:154:01:000,0.048,0.02,0.991,-0.061,0.183,0.244,0.439,-2.856,-102.997
 14:13:58.578,eb:33:2e:f9:57:b5, 2085-97-99 00:38:00:2031,0.048,0.019,0.991,-0.061,0.122,0.183,0.439,-2.856,-102.997
 14:13:58.579,eb:33:2e:f9:57:b5, 2085-97-101 00:40:00:2030,0.048,0.019,0.991,0,0.183,0.183,0.439,-2.856,-102.997
 14:13:58.579,eb:33:2e:f9:57:b5, 2085-97-99 00:41:00:2028,0.049,0.02,0.991,-0.122,0.061,0.061,0.439,-2.856,-102.997
 14:13:58.579,eb:33:2e:f9:57:b5, 2085-97-99 00:41:00:2031,0.049,0.02,0.991,-0.122,0,0.061,0.439,-2.856,-102.997
 14:13:58.638,eb:33:2e:f9:57:b5, 2085-97-101 00:39:00:2032,0.048,0.019,0.992,-0.061,0,0,0.439,-2.856,-102.997
 14:13:58.638,eb:33:2e:f9:57:b5, 2085-97-98 00:39:00:2030,0.048,0.02,0.992,-0.061,0.061,0.061,0.439,-2.856,-102.997
 14:13:58.638,eb:33:2e:f9:57:b5, 2085-97-99 00:40:00:2030,0.049,0.019,0.992,-0.061,0,0,0.439,-2.856,-102.997
 14:13:58.638,eb:33:2e:f9:57:b5, 2085-97-101 00:41:00:2030,0.049,0.019,0.991,-0.061,0,0,0.439,-2.856,-102.997
 14:13:58.666,eb:33:2e:f9:57:b5, 2085-97-100 00:41:00:2030,0.048,0.02,0.991,0,0,-0.061,0.439,-2.856,-102.997
 14:13:58.666,eb:33:2e:f9:57:b5, 2085-97-100 00:41:00:2031,0.049,0.02,0.991,0,-0.061,-0.122,0.439,-2.856,-102.997
 14:13:58.666,eb:33:2e:f9:57:b5, 2085-97-101 00:39:00:2033,0.049,0.02,0.991,0,-0.061,-0.122,0.439,-2.856,-102.997
 14:13:58.666,eb:33:2e:f9:57:b5, 2085-97-102 00:41:00:2033,0.049,0.02,0.992,0,0.061,-0.061,0.439,-2.856,-102.997
 14:13:58.696,eb:33:2e:f9:57:b5, 2085-97-98 00:40:00:2030,0.048,0.02,0.991,0,0.122,0,0.439,-2.856,-102.997
 14:13:58.696,eb:33:2e:f9:57:b5, 2085-97-97 00:40:00:2030,0.047,0.02,0.991,0,0.061,-0.061,0.439,-2.856,-102.997
 14:13:58.696,eb:33:2e:f9:57:b5, 2085-97-98 00:40:00:2030,0.047,0.019,0.992,0,0,0,0.439,-2.856,-102.997
 14:13:58.696,eb:33:2e:f9:57:b5, 2085-97-98 00:39:00:2029,0.048,0.019,0.991,0,0,0,0.439,-2.856,-102.991
 14:13:58.757,eb:33:2e:f9:57:b5, 2085-97-100 00:40:00:2030,0.049,0.02,0.991,-0.061,-0.061,0,0.439,-2.856,-102.991
 14:13:58.757,eb:33:2e:f9:57:b5, 2085-97-100 00:41:00:2030,0.048,0.02,0.991,0,-0.122,-0.061,0.439,-2.856,-102.991
 14:13:58.757,eb:33:2e:f9:57:b5, 2085-97-99 00:39:00:2029,0.048,0.02,0.991,0,-0.122,-0.122,0.439,-2.856,-102.991
 14:13:58.757,eb:33:2e:f9:57:b5, 2085-97-100 00:41:00:2030,0.049,0.02,0.991,-0.061,-0.122,-0.122,0.439,-2.856,-102.991
 14:13:58.786,eb:33:2e:f9:57:b5, 2085-97-102 00:40:00:2030,0.05,0.02,0.991,-0.061,-0.183,-0.061,0.439,-2.856,-102.991
 14:13:58.786,eb:33:2e:f9:57:b5, 2085-97-101 00:40:00:2032,0.048,0.02,0.992,-0.061,-0.122,-0.061,0.439,-2.856,-102.991
 14:13:58.786,eb:33:2e:f9:57:b5, 2085-97-100 00:40:00:2033,0.048,0.019,0.992,0,0,-0.061,0.439,-2.856,-102.991
 14:13:58.786,eb:33:2e:f9:57:b5, 2085-97-99 00:42:00:2030,0.049,0.02,0.99,-0.061,-0.122,-0.061,0.439,-2.856,-102.991
 14:13:58.818,eb:33:2e:f9:57:b5, 2085-97-100 00:39:00:2030,0.05,0.02,0.993,0,-0.061,-0.183,0.439,-2.856,-102.991
 14:13:58.818,eb:33:2e:f9:57:b5, 2085-97-100 00:41:00:2029,0.05,0.02,0.992,0,-0.122,-0.244,0.439,-2.856,-102.991
 14:13:58.818,eb:33:2e:f9:57:b5, 2085-97-103 00:40:00:2033,0.049,0.02,0.993,0,-0.122,-0.366,0.439,-2.856,-102.991
