Time,Device name,Chip Time(),Acceleration X(g),Acceleration Y(g),Acceleration Z(g),Angular velocity X(°/s),Angular velocity Y(°/s),Angular velocity Z(°/s),Angle X(°),Angle Y(°),Angle Z(°)
 14:21:20.689,eb:33:2e:f9:57:b5, 2085-97-104 08:93:04:7349,0.971,0.292,3.385,-689.514,-286.011,-72.937,37.584,33.964,-146.343
 14:21:20.690,eb:33:2e:f9:57:b5, 2085-97-129 07:133:05:8037,0.911,0.677,3.755,-663.513,-360.901,-30.579,29.564,31.459,-148.865
 14:21:20.690,eb:33:2e:f9:57:b5, 2085-97-08 07:202:05:8579,0.871,0.67,4.094,-637.939,-385.315,26.306,22.297,27.999,-150.628
 14:21:20.691,eb:33:2e:f9:57:b5, 2085-97-105 07:213:08:8721,0.965,0.873,4.25,-601.685,-357.91,84.778,15.793,24.258,-151.276
 14:21:20.806,eb:33:2e:f9:57:b5, 2085-97-86 07:32:13:7293,0.891,1.36,4.066,-541.016,-339.355,124.817,10.201,20.671,-150.903
 14:21:20.806,eb:33:2e:f9:57:b5, 2085-97-13 07:120:17:6874,0.805,1.911,3.338,-454.102,-407.166,133.179,5.438,16.793,-150.002
 14:21:20.806,eb:33:2e:f9:57:b5, 2085-97-107 05:172:19:7154,0.559,2.361,3.418,-377.808,-489.746,125.854,1.544,12.2,-148.859
 14:21:20.806,eb:33:2e:f9:57:b5, 2085-97-92 03:58:20:8274,0.237,2.491,3.711,-332.336,-544.678,114.502,-1.879,6.954,-147.541
 14:21:20.808,eb:33:2e:f9:57:b5, 2085-97-00 00:140:22:9746,-0.261,2.635,4.41,-322.144,-531.006,116.333,-5.12,1.664,-145.959
 14:21:20.808,eb:33:2e:f9:57:b5, 2085-97-91 251:121:26:10765,-0.902,3.051,5.069,-324.89,-508.484,133.728,-8.58,-3.323,-143.987
 14:21:20.808,eb:33:2e:f9:57:b5, 2085-97-54 246:193:31:11311,-1.551,3.616,5.396,-310.425,-486.023,155.823,-12.189,-7.894,-141.526
 14:21:20.808,eb:33:2e:f9:57:b5, 2085-97-124 241:98:39:11626,-2.012,4.398,5.615,-271.24,-393.188,171.753,-15.826,-11.755,-138.669
 14:21:20.810,eb:33:2e:f9:57:b5, 2085-97-13 240:190:50:9992,-1.771,5.643,5.469,-222.046,-159.119,154.907,-19.039,-13.892,-136.082
 14:21:20.810,eb:33:2e:f9:57:b5, 2085-97-89 245:152:58:7577,-0.79,6.976,4.247,-172.119,20.02,80.933,-21.429,-13.931,-134.714
 14:21:20.810,eb:33:2e:f9:57:b5, 2085-97-119 253:245:58:4663,-0.064,7.415,3.067,-150.513,116.455,-30.396,-22.972,-13.14,-134.83
 14:21:20.810,eb:33:2e:f9:57:b5, 2085-97-22 255:226:55:2107,-0.5,7.265,1.515,-129.944,114.014,-151.794,-23.978,-12.404,-136.313
 14:21:20.812,eb:33:2e:f9:57:b5, 2085-97-25 247:05:46:2919,-1.733,6.461,1.019,-57.129,-14.038,-231.75,-24.329,-12.832,-138.428
 14:21:20.812,eb:33:2e:f9:57:b5, 2085-97-59 239:43:32:5273,-2.192,4.917,2.027,62.256,-99.67,-220.52,-23.692,-14.48,-140.323
 14:21:20.812,eb:33:2e:f9:57:b5, 2085-97-243 238:214:18:6133,-1.888,3.038,3.083,166.138,-18.066,-133.24,-21.995,-15.886,-141.724
 14:21:20.812,eb:33:2e:f9:57:b5, 2085-97-138 232:145:02:21677,-3.755,1.926,2.507,351.196,116.821,-52.734,-19.484,-15.568,-142.767
 14:21:20.988,eb:33:2e:f9:57:b5, 2085-97-207 02:135:45:18122,3.164,7.311,-0.738,822.632,170.593,231.934,-12.931,-12.87,-142.526
 14:21:20.988,eb:33:2e:f9:57:b5, 2085-97-228 12:91:48:7254,1.819,4.432,4.563,572.937,654.602,-14.465,-5.801,-7.888,-141.218
 14:21:20.988,eb:33:2e:f9:57:b5, 2085-97-102 254:239:32:-8777,-1.957,-1.714,5.68,254.028,-68.237,-48.34,-2.582,-4.109,-143.13
 14:21:20.988,eb:33:2e:f9:57:b5, 2085-97-77 245:118:250:1644,0.23,-0.701,-0.393,94.91,-373.596,-128.052,-1.697,-3.587,-143.871
 14:21:20.991,eb:33:2e:f9:57:b5, 2085-97-114 254:14:00:1752,0.344,-0.569,2.015,54.932,178.284,-6.653,-1.038,-4.241,-144.212
 14:21:20.991,eb:33:2e:f9:57:b5, 2085-97-178 03:88:252:3550,0.505,1.908,-0.345,27.039,-203.247,-51.147,-0.681,-3.807,-144.124
 14:21:20.991,eb:33:2e:f9:57:b5, 2085-97-72 06:200:06:2220,0.48,-0.095,1.388,14.648,17.273,2.441,-0.428,-3.928,-144.25
 14:21:20.991,eb:33:2e:f9:57:b5, 2085-97-209 04:204:00:2667,-0.024,-0.248,1.17,27.588,22.461,-65.674,-0.104,-3.686,-144.882
 14:21:20.991,eb:33:2e:f9:57:b5, 2085-97-100 251:181:254:966,-0.493,-0.037,1.216,35.339,70.435,-66.284,0.291,-3.318,-145.607
 14:21:20.991,eb:33:2e:f9:57:b5, 2085-97-97 255:247:254:3045,-0.002,-0.182,0.798,32.166,-18.921,-31.616,0.709,-3.241,-146.118
 14:21:20.991,eb:33:2e:f9:57:b5, 2085-97-13 255:68:254:3356,-0.291,-0.193,1.494,37.781,48.096,21.667,1.082,-3.076,-146.168
 14:21:20.991,eb:33:2e:f9:57:b5, 2085-97-160 255:96:255:4617,-0.285,-0.251,2.075,36.621,148.254,55.42,1.373,-2.065,-145.728
 14:21:20.993,eb:33:2e:f9:57:b5, 2085-97-162 00:251:251:6444,0.579,-0.482,2.772,136.963,56.641,36.255,2.164,-0.906,-145.25
 14:21:20.993,eb:33:2e:f9:57:b5, 2085-97-145 05:206:252:8573,0.22,-0.1,3.378,232.178,50.72,-33.264,4.125,-0.527,-145.179
 14:21:20.993,eb:33:2e:f9:57:b5, 2085-97-66 255:188:244:9873,0.287,-0.926,4.569,341.003,90.82,-72.266,7.031,0.374,-145.761
 14:21:20.993,eb:33:2e:f9:57:b5, 2085-97-11 05:60:244:7348,0.92,-1.636,4.483,454.773,145.02,-24.536,11.135,1.522,-146.118
 14:21:21.046,eb:33:2e:f9:57:b5, 2085-97-43 08:149:242:6791,1.08,-1.325,3.172,562.378,120.422,-19.47,16.249,2.972,-145.915
 14:21:21.046,eb:33:2e:f9:57:b5, 2085-97-95 09:160:237:7602,1.453,-2.067,3.577,692.993,127.991,-39.917,22.593,4.191,-145.854
 14:21:21.046,eb:33:2e:f9:57:b5, 2085-97-43 13:159:246:7904,1.491,-2.002,3.631,833.069,186.218,-55.115,30.267,5.834,-145.607
 14:21:21.046,eb:33:2e:f9:57:b5, 2085-97-62 11:171:07:12634,0.378,0.539,5.252,982.117,146.179,-53.65,39.441,7.663,-145.031
 14:21:21.077,eb:33:2e:f9:57:b5, 2085-97-233 255:87:24:10370,-0.264,2.071,5.371,1007.08,-86.731,-52.795,49.576,8.262,-145.047
 14:21:21.077,eb:33:2e:f9:57:b5, 2085-97-158 248:177:15:5180,-1.182,2,4.592,902.344,-360.229,-150.879,58.947,7.69,-148.024
 14:21:21.077,eb:33:2e:f9:57:b5, 2085-97-62 245:253:253:3710,-1.587,1.525,1.447,595.764,-327.393,-155.029,66.209,7.361,-151.891
 14:21:21.078,eb:33:2e:f9:57:b5, 2085-97-206 246:92:235:8186,-0.348,-1.752,1.907,260.193,32.166,-62.378,70.043,7.723,-153.787
 14:21:21.108,eb:33:2e:f9:57:b5, 2085-97-30 252:246:31:-1821,-0.369,-0.701,3.916,331.97,877.258,134.521,72.971,9.179,-148.497
 14:21:21.108,eb:33:2e:f9:57:b5, 2085-97-253 11:114:31:7530,1.163,4.676,2.882,193.787,579.529,146.973,76.586,10.036,-141.608
 14:21:21.108,eb:33:2e:f9:57:b5, 2085-97-17 10:01:29:4137,1.586,2.883,3.659,317.871,364.136,25.024,79.481,10.256,-136.939
 14:21:21.108,eb:33:2e:f9:57:b5, 2085-97-185 13:190:24:4838,1.477,3.687,1.846,402.527,81.543,-117.188,83.502,11.19,-134.956
 14:21:21.197,eb:33:2e:f9:57:b5, 2085-97-204 09:89:17:7229,1.099,2.548,2.949,414.49,-63.11,-244.324,87.578,13.068,-135.253
 14:21:21.197,eb:33:2e:f9:57:b5, 2085-97-97 08:87:10:9699,0.981,1.759,4.152,394.165,-101.868,-322.571,91.428,15.969,-136.241
 14:21:21.197,eb:33:2e:f9:57:b5, 2085-97-63 07:01:02:10490,0.818,0.784,5.063,361.206,-86.121,-341.614,94.982,19.374,-137.115
 14:21:21.198,eb:33:2e:f9:57:b5, 2085-97-248 05:222:249:9680,0.672,-0.294,4.984,322.571,-28.503,-315.369,98.284,22.714,-137.395
 14:21:21.200,eb:33:2e:f9:57:b5, 2085-97-255 04:151:244:8573,0.615,-1.156,4.444,276.306,58.289,-257.202,101.486,25.51,-136.741
 14:21:21.200,eb:33:2e:f9:57:b5, 2085-97-48 05:06:243:7680,0.727,-1.576,3.951,230.713,142.09,-184.875,104.568,27.411,-135.148
 14:21:21.200,eb:33:2e:f9:57:b5, 2085-97-182 06:130:243:7178,0.952,-1.599,3.598,190.125,197.632,-117.615,107.567,28.383,-132.88
 14:21:21.200,eb:33:2e:f9:57:b5, 2085-97-114 08:128:243:6902,1.158,-1.55,3.442,157.227,229.309,-66.406,110.292,28.553,-130.331
 14:21:21.226,eb:33:2e:f9:57:b5, 2085-113-58 00:97:249:-8610,1.294,-1.591,3.287,133.423,240.356,-29.785,112.802,28.163,-127.716
 14:21:21.226,eb:33:2e:f9:57:b5, 2085-97-101 11:82:242:6489,1.448,-1.609,3.198,121.765,245.544,-17.7,113.956,27.801,-126.442
 14:21:21.226,eb:33:2e:f9:57:b5, 2085-97-193 11:121:238:6192,1.588,-1.896,3.031,100.098,240.845,9.155,115.977,26.818,-123.97
 14:21:21.226,eb:33:2e:f9:57:b5, 2085-97-164 12:159:232:4360,1.577,-2.541,2.854,93.079,200.5,19.043,117.719,25.735,-121.91
 14:21:21.707,eb:33:2e:f9:57:b5, 2085-97-222 12:190:227:-164,1.924,-3.234,1.098,31.128,150.452,35.95,118.894,24.703,-120.41
 14:21:21.707,eb:33:2e:f9:57:b5, 2085-97-28 18:165:225:-675,2.373,-3.735,-0.697,-149.292,141.846,61.035,118.658,23.593,-119.323
 14:21:21.708,eb:33:2e:f9:57:b5, 2085-97-103 18:246:230:1398,2.212,-3.53,0.3,-310.486,128.54,46.631,116.488,22.434,-118.273
 14:21:21.708,eb:33:2e:f9:57:b5, 2085-97-152 17:31:235:465,2.255,-2.781,0.564,-405.64,68.542,6.897,113.099,21.808,-117.411
 14:21:21.708,eb:33:2e:f9:57:b5, 2085-97-11 18:75:237:-656,2.181,-2.516,-0.052,-484.741,-13.977,-36.987,108.633,21.901,-117.175
 14:21:21.708,eb:33:2e:f9:57:b5, 2085-97-76 16:08:240:-568,1.903,-2.154,-0.379,-561.279,-90.881,-88.928,103.211,22.687,-117.57
 14:21:21.708,eb:33:2e:f9:57:b5, 2085-97-29 14:33:241:712,1.662,-1.904,-0.005,-613.586,-173.828,-127.136,96.839,23.994,-118.85
 14:21:21.708,eb:33:2e:f9:57:b5, 2085-97-182 12:144:241:2198,1.53,-1.85,0.747,-655.518,-230.652,-144.775,89.698,25.45,-121.003
 14:21:21.710,eb:33:2e:f9:57:b5, 2085-97-226 10:155:243:3611,1.09,-1.703,1.393,-699.707,-258.057,-140.076,81.799,26.653,-123.854
 14:21:21.710,eb:33:2e:f9:57:b5, 2085-97-106 08:126:248:5815,1.071,-1.284,2.321,-734.497,-224.548,-119.324,73.449,27.334,-126.738
 14:21:21.710,eb:33:2e:f9:57:b5, 2085-97-147 07:72:251:6477,0.831,-0.743,3.198,-722.107,-234.619,-96.68,64.995,27.488,-129.523
 14:21:21.710,eb:33:2e:f9:57:b5, 2085-97-60 06:255:251:6040,0.731,-0.532,3.049,-681.763,-289.001,-68.97,56.838,26.867,-132.429
 14:21:21.712,eb:33:2e:f9:57:b5, 2085-97-163 05:02:252:5674,0.677,-0.468,2.811,-639.099,-331.909,-29.236,49.087,25.285,-135.406
 14:21:21.712,eb:33:2e:f9:57:b5, 2085-97-03 05:208:250:5984,0.568,-0.57,2.827,-598.328,-376.282,15.991,42.006,22.769,-138.087
 14:21:21.712,eb:33:2e:f9:57:b5, 2085-97-42 04:29:250:6363,0.51,-0.706,3.008,-563.477,-416.26,67.017,35.524,19.325,-140.279
 14:21:21.712,eb:33:2e:f9:57:b5, 2085-97-97 04:247:249:7232,0.569,-0.754,3.267,-541.443,-443.665,123.596,29.685,15.117,-141.729
 14:21:21.714,eb:33:2e:f9:57:b5, 2085-97-120 04:70:252:8099,0.558,-0.656,3.773,-532.41,-423.401,174.683,24.186,10.503,-142.262
 14:21:21.714,eb:33:2e:f9:57:b5, 2085-97-90 04:205:01:8891,0.502,-0.162,4.131,-522.949,-393.982,210.266,18.935,6.015,-141.839
 14:21:21.714,eb:33:2e:f9:57:b5, 2085-97-120 03:120:08:9844,0.351,0.652,4.562,-500.549,-380.554,231.812,13.749,1.708,-140.685
 14:21:21.714,eb:33:2e:f9:57:b5, 2085-97-72 02:110:13:10472,0.25,1.397,5.016,-467.163,-398.987,239.014,8.795,-2.554,-139.026
 14:21:21.736,eb:33:2e:f9:57:b5, 2085-97-203 01:129:18:10509,0.174,1.968,5.125,-451.538,-367.188,230.164,3.873,-6.652,-137
 14:21:21.736,eb:33:2e:f9:57:b5, 2085-97-252 08:82:240:7629,1.245,2.725,5.212,-468.262,-285.034,205.994,-1.187,-9.899,-134.786
 14:21:21.736,eb:33:2e:f9:57:b5, 2085-97-190 11:213:245:7084,1.179,-1.874,3.211,795.776,89.417,-55.725,25.054,6.169,-139.9
 14:21:21.736,eb:33:2e:f9:57:b5, 2085-97-86 11:229:11:8009,0.654,0.262,3.973,951.904,56.763,-34.241,33.849,7.245,-139.839
 14:21:21.887,eb:33:2e:f9:57:b5, 2085-97-13 00:22:29:9069,-0.296,2.829,3.145,1047.18,-366.089,-105.347,44.033,6.471,-141.235
 14:21:21.887,eb:33:2e:f9:57:b5, 2085-97-28 246:23:16:12694,-2.441,3.127,6.023,905.884,-717.163,-211.304,53.773,3.713,-147.003
 14:21:21.887,eb:33:2e:f9:57:b5, 2085-97-223 230:230:250:5783,-2.721,0.522,4.568,651.611,-442.871,-121.521,61.628,1.879,-153.007
 14:21:21.887,eb:33:2e:f9:57:b5, 2085-97-185 239:52:230:11288,-0.815,-1.684,2.367,357.605,-20.691,7.141,66.566,1.357,-155.099
 14:21:21.889,eb:33:2e:f9:57:b5, 2085-97-187 244:16:29:4085,0.804,1.273,1.059,445.618,735.352,187.073,69.988,2.082,-149.908
 14:21:21.889,eb:33:2e:f9:57:b5, 2085-97-223 06:198:21:7852,1.135,3.733,4.043,195.74,730.713,261.902,72.828,2.362,-142.905
 14:21:21.889,eb:33:2e:f9:57:b5, 2085-97-25 12:83:31:4102,1.884,2.843,3.373,315.979,558.899,132.996,75.108,2.422,-136.296
 14:21:21.889,eb:33:2e:f9:57:b5, 2085-97-253 15:200:30:2760,1.867,4.235,1.376,412.964,193.909,-34.241,78.788,2.939,-132.583
 14:21:21.889,eb:33:2e:f9:57:b5, 2085-97-115 13:245:23:4824,1.487,3.356,1.716,441.589,-92.773,-235.352,83.128,4.433,-132.643
 14:21:21.889,eb:33:2e:f9:57:b5, 2085-97-169 10:190:16:8728,1.193,2.606,3.253,399.475,-228.821,-390.564,87.286,7.504,-134.753
 14:21:21.889,eb:33:2e:f9:57:b5, 2085-97-110 08:111:07:11305,0.938,1.502,5.065,335.815,-212.402,-464.661,90.676,11.799,-137.241
 14:21:21.890,eb:33:2e:f9:57:b5, 2085-97-160 06:128:254:11769,0.724,0.361,5.727,293.274,-104.187,-470.337,93.521,16.556,-138.763
 14:21:21.917,eb:33:2e:f9:57:b5, 2085-97-107 05:175:247:10661,0.669,-0.657,5.535,267.151,56.396,-415.894,96.312,20.995,-138.658
 14:21:21.917,eb:33:2e:f9:57:b5, 2085-97-108 05:217:243:9007,0.766,-1.325,4.795,247.437,210.999,-324.89,99.52,24.478,-136.675
 14:21:21.917,eb:33:2e:f9:57:b5, 2085-97-32 07:232:241:8083,0.997,-1.66,4.148,228.088,300.964,-213.562,103.068,26.609,-133.391
 14:21:21.917,eb:33:2e:f9:57:b5, 2085-97-180 08:58:241:7148,1.189,-1.82,3.712,211.365,342.163,-103.455,106.76,27.312,-129.529
 14:21:22.006,eb:33:2e:f9:57:b5, 2085-97-83 10:17:241:6733,1.401,-1.849,3.342,205.322,318.787,-11.719,110.215,26.812,-125.909
 14:21:22.006,eb:33:2e:f9:57:b5, 2085-97-28 12:29:240:6822,1.635,-1.912,3.294,215.027,254.944,53.101,113.362,25.565,-123.118
 14:21:22.006,eb:33:2e:f9:57:b5, 2085-97-91 14:33:239:7135,1.947,-2.069,3.372,242.493,174.744,82.031,116.235,24.066,-121.366
 14:21:22.006,eb:33:2e:f9:57:b5, 2085-97-222 15:253:238:7091,1.918,-2.087,3.508,261.23,136.108,80.627,119.125,22.681,-120.355
 14:21:22.008,eb:33:2e:f9:57:b5, 2085-97-159 14:250:233:4119,2.044,-2.311,2.981,232.361,138.123,96.375,121.827,21.226,-119.526
 14:21:22.008,eb:33:2e:f9:57:b5, 2085-97-248 16:248:222:-2159,2.096,-3.314,1.011,146.057,90.149,91.98,123.871,19.808,-119.059
 14:21:22.008,eb:33:2e:f9:57:b5, 2085-113-81 00:129:18:16228,2.204,-4.654,-1.851,-102.234,60.364,83.862,124.036,18.693,-118.9
 14:21:22.008,eb:33:2e:f9:57:b5, 2085-97-102 17:206:224:468,2.098,-4.413,-1.195,-203.43,-6.409,69.214,123.173,18.314,-118.998
 14:21:22.008,eb:33:2e:f9:57:b5, 2085-97-146 15:147:229:2002,1.842,-3.484,1.055,-329.712,-45.898,23.071,120.201,18.16,-119.619
 14:21:22.038,eb:33:2e:f9:57:b5, 2085-97-118 14:160:230:083,1.841,-3.269,0.53,-419.434,-66.04,-16.113,116.279,18.408,-120.114
 14:21:22.038,eb:33:2e:f9:57:b5, 2085-97-180 14:64:234:-539,1.765,-2.978,-0.219,-510.803,-92.957,-52.429,111.385,19.067,-120.773
 14:21:22.038,eb:33:2e:f9:57:b5, 2085-97-223 12:156:237:157,1.403,-2.479,-0.105,-592.163,-125.122,-93.262,105.579,20.11,-121.624
 14:21:22.038,eb:33:2e:f9:57:b5, 2085-97-191 09:133:238:1023,1.028,-2.215,0.269,-653.32,-175.293,-124.207,98.888,21.5,-122.959
 14:21:22.457,eb:33:2e:f9:57:b5, 2085-97-103 06:219:237:2152,0.552,-2.209,0.761,-693.787,-244.446,-128.479,91.445,22.928,-125.079
 14:21:22.457,eb:33:2e:f9:57:b5, 2085-97-153 03:154:239:3871,0.749,-2.217,1.389,-715.027,-317.932,-98.572,83.298,23.868,-128.21
 14:21:22.457,eb:33:2e:f9:57:b5, 2085-97-207 09:51:248:8057,0.81,-1.612,2.683,-707.581,-345.642,-83.374,74.894,23.978,-131.907
 14:21:22.457,eb:33:2e:f9:57:b5, 2085-97-168 02:52:252:7648,0.218,-0.575,4.084,-681.519,-291.321,-65.125,66.775,23.692,-135.231
 14:21:22.459,eb:33:2e:f9:57:b5, 2085-97-106 02:145:249:7324,0.454,-0.685,3.705,-627.991,-376.038,-28.564,59.128,22.456,-138.686
 14:21:22.459,eb:33:2e:f9:57:b5, 2085-97-64 04:207:249:6947,0.508,-0.816,3.436,-602.173,-372.803,10.864,51.987,20.292,-141.96
 14:21:22.459,eb:33:2e:f9:57:b5, 2085-97-17 04:140:251:7200,0.538,-0.68,3.417,-597.107,-351.929,47.119,45.346,17.628,-144.476
 14:21:22.459,eb:33:2e:f9:57:b5, 2085-97-02 04:64:254:7466,0.439,-0.393,3.63,-594.238,-355.652,70.496,38.941,14.551,-146.387
 14:21:22.460,eb:33:2e:f9:57:b5, 2085-97-113 03:232:00:8187,0.353,-0.062,3.723,-597.107,-389.099,90.576,32.761,11.025,-147.838
 14:21:22.460,eb:33:2e:f9:57:b5, 2085-97-152 01:80:04:9135,0.011,0.308,4.265,-595.398,-407.776,108.093,26.642,6.998,-148.887
 14:21:22.460,eb:33:2e:f9:57:b5, 2085-97-06 255:226:08:9897,-0.247,0.833,4.706,-575.806,-413.696,135.376,20.764,2.725,-149.343
 14:21:22.460,eb:33:2e:f9:57:b5, 2085-97-54 253:133:13:10095,-0.421,1.396,4.909,-541.931,-385.315,161.56,15.101,-1.571,-149.062
 14:21:22.462,eb:33:2e:f9:57:b5, 2085-97-75 252:202:17:9959,-0.484,1.969,4.92,-498.596,-329.285,182.251,9.778,-5.394,-148.046
 14:21:22.462,eb:33:2e:f9:57:b5, 2085-97-47 252:14:22:9643,-0.468,2.471,4.776,-456.787,-264.404,188.599,4.669,-8.531,-146.459
 14:21:22.462,eb:33:2e:f9:57:b5, 2085-97-75 252:138:27:9628,-0.452,3.084,4.683,-425.415,-206.604,178.589,-0.154,-10.876,-144.602
 14:21:22.462,eb:33:2e:f9:57:b5, 2085-97-148 252:184:33:9830,-0.429,3.826,4.75,-398.193,-161.682,153.687,-4.807,-12.596,-142.751
 14:21:22.465,eb:33:2e:f9:57:b5, 2085-97-70 252:14:39:9438,-0.564,4.575,4.759,-376.16,-128.845,116.089,-9.141,-13.804,-141.147
 14:21:22.465,eb:33:2e:f9:57:b5, 2085-97-65 250:18:43:8122,-0.883,5.16,4.311,-344.971,-134.705,64.026,-13.162,-14.875,-139.938
 14:21:22.466,eb:33:2e:f9:57:b5, 2085-97-143 247:176:44:7229,-1.226,5.518,3.706,-295.288,-170.837,12.024,-16.622,-16.271,-139.125
 14:21:22.466,eb:33:2e:f9:57:b5, 2085-97-43 245:142:45:6672,-1.435,5.633,3.386,-231.323,-170.349,-28.198,-19.44,-17.968,-138.604
 14:21:22.466,eb:33:2e:f9:57:b5, 2085-97-13 245:237:45:5655,0.566,5.752,3.044,-161.133,-99.304,-56.396,-21.407,-19.396,-138.51
 14:21:22.466,eb:33:2e:f9:57:b5, 2085-97-36 05:120:246:5899,0.901,-1.251,3.241,537.415,38.147,-20.02,14.584,-14.068,-144.575
 14:21:22.466,eb:33:2e:f9:57:b5, 2085-97-200 08:107:242:6889,1.15,-1.376,3.31,640.015,1.099,-48.34,20.616,-13.876,-144.91
 14:21:22.466,eb:33:2e:f9:57:b5, 2085-97-130 11:25:243:7693,1.148,-1.74,3.361,751.709,46.265,-70.984,27.801,-13.387,-145.377
 14:21:22.518,eb:33:2e:f9:57:b5, 2085-97-78 08:188:253:12112,0.162,-1.005,4.612,857.91,127.93,-56.519,35.942,-12.294,-145.552
 14:21:22.518,eb:33:2e:f9:57:b5, 2085-97-101 02:246:16:9770,0.338,1.284,5.943,886.963,131.226,-13,44.621,-10.909,-144.745
 14:21:22.518,eb:33:2e:f9:57:b5, 2085-97-129 03:133:17:3472,-0.065,2.335,3.07,861.328,-86.243,-95.093,53.487,-10.327,-145.014
 14:21:22.518,eb:33:2e:f9:57:b5, 2085-97-158 254:64:19:3586,-0.391,2.542,1.386,695.496,-176.819,-97.412,61.76,-10.322,-146.942
 14:21:22.547,eb:33:2e:f9:57:b5, 2085-97-21 252:223:255:3314,-0.233,1.097,2.035,479.675,-68.726,-59.204,67.972,-10.19,-148.629
 14:21:22.547,eb:33:2e:f9:57:b5, 2085-97-11 252:232:252:6361,0.239,-0.647,1.967,369.385,304.81,2.991,71.719,-9.646,-147.788
 14:21:22.547,eb:33:2e:f9:57:b5, 2085-97-186 252:68:40:2414,1.167,4.649,-1.443,495.972,412.292,113.831,74.96,-8.877,-141.888
 14:21:22.547,eb:33:2e:f9:57:b5, 2085-97-101 09:102:17:5154,1.085,3.434,2.032,385.315,127.625,110.535,78.398,-9.476,-139.29
 14:21:22.637,eb:33:2e:f9:57:b5, 2085-97-245 08:05:25:2730,1.248,2.506,1.594,430.176,45.837,20.508,82.315,-9.915,-138.274
 14:21:22.637,eb:33:2e:f9:57:b5, 2085-97-48 10:02:27:5771,1.2,3.404,1.85,414.612,-126.892,-82.886,86.677,-9.608,-138.807
 14:21:22.637,eb:33:2e:f9:57:b5, 2085-97-211 08:99:23:8326,1.034,3.229,3.543,387.573,-192.932,-199.707,91.071,-8.185,-140.625
 14:21:22.638,eb:33:2e:f9:57:b5, 2085-97-57 08:249:15:9977,1.035,2.495,4.5,359.192,-187.5,-281.006,95.153,-5.625,-142.509
 14:21:22.639,eb:33:2e:f9:57:b5, 2085-97-00 08:156:08:10921,0.929,1.521,5.149,330.811,-127.258,-325.012,98.756,-2.395,-143.762
 14:21:22.639,eb:33:2e:f9:57:b5, 2085-97-180 06:111:02:10761,0.77,0.663,5.379,306.824,-23.987,-333.74,101.931,1.027,-143.97
 14:21:22.639,eb:33:2e:f9:57:b5, 2085-97-237 05:240:253:9469,0.738,0.004,4.979,280.64,103.394,-310.242,104.837,4.081,-142.806
 14:21:22.639,eb:33:2e:f9:57:b5, 2085-97-255 05:52:250:8118,0.764,-0.5,4.266,247.314,184.692,-266.174,107.49,6.476,-140.587
 14:21:22.726,eb:33:2e:f9:57:b5, 2085-97-96 06:54:247:7393,0.836,-0.929,3.742,209.167,211.609,-210.754,109.907,8.124,-137.917
 14:21:22.726,eb:33:2e:f9:57:b5, 2085-97-27 07:232:244:7405,0.937,-1.246,3.575,171.753,208.557,-156.006,111.967,9.124,-135.319
 14:21:22.726,eb:33:2e:f9:57:b5, 2085-97-252 07:254:242:7501,1.074,-1.531,3.647,143.066,203.674,-107.239,113.741,9.569,-132.902
 14:21:22.726,eb:33:2e:f9:57:b5, 2085-97-142 09:147:241:7477,1.389,-1.705,3.634,128.418,199.768,-74.158,115.263,9.602,-130.693
 14:21:22.728,eb:33:2e:f9:57:b5, 2085-97-75 12:06:240:7373,1.473,-1.864,3.656,114.563,217.712,-51.27,116.68,9.289,-128.535
 14:21:22.728,eb:33:2e:f9:57:b5, 2085-97-123 11:161:234:6434,1.654,-2.274,3.346,96.924,228.821,-29.114,117.872,8.657,-126.299
 14:21:22.728,eb:33:2e:f9:57:b5, 2085-97-125 11:29:225:2135,1.489,-3.161,2.557,89.478,196.167,-20.081,118.96,7.888,-124.294
 14:21:22.728,eb:33:2e:f9:57:b5, 2085-97-193 12:128:217:-4732,1.856,-4.422,-0.727,-6.165,144.409,9.277,119.504,7.18,-122.772
 14:21:22.757,eb:33:2e:f9:57:b5, 2085-97-105 18:246:219:-1700,2.393,-5.004,-2.113,-233.215,102.295,50.842,118.268,6.317,-121.833
 14:21:22.757,eb:33:2e:f9:57:b5, 2085-97-164 17:39:228:1748,1.95,-3.956,0.522,-361.694,8.85,-6.836,115.12,5.944,-121.553
 14:21:22.757,eb:33:2e:f9:57:b5, 2085-97-143 14:102:230:-079,1.814,-3.258,0.418,-455.872,-18.86,-50.354,110.989,6.262,-121.426
 14:21:22.757,eb:33:2e:f9:57:b5, 2085-113-58 00:145:246:-8745,1.887,-3.053,-0.26,-539.429,-74.951,-75.073,105.908,7.026,-121.712
 14:21:22.787,eb:33:2e:f9:57:b5, 2085-97-18 15:73:236:-001,1.774,-2.765,-0.195,-573.669,-97.961,-91.309,103.09,7.542,-122.053
 14:21:22.787,eb:33:2e:f9:57:b5, 2085-97-175 12:70:239:682,1.37,-2.219,0.184,-627.319,-136.902,-124.207,96.965,8.806,-123.047
 14:21:22.787,eb:33:2e:f9:57:b5, 2085-97-189 09:96:239:1392,1.161,-2.062,0.47,-665.161,-200.256,-143.616,90.286,10.245,-124.689
 14:21:22.787,eb:33:2e:f9:57:b5, 2085-97-26 09:112:240:2978,1.17,-2.047,0.994,-693.97,-284.363,-139.709,83.161,11.475,-127.277
 14:21:23.208,eb:33:2e:f9:57:b5, 2085-97-24 10:121:245:6137,1.18,-1.759,2.154,-716.431,-336.853,-127.747,75.586,12.112,-130.704
 14:21:23.208,eb:33:2e:f9:57:b5, 2085-97-24 07:00:252:7577,0.653,-0.868,3.731,-721.313,-274.292,-127.441,67.896,12.338,-134.094
 14:21:23.208,eb:33:2e:f9:57:b5, 2085-97-109 04:49:252:7464,0.519,-0.421,3.684,-679.138,-334.656,-102.661,60.375,11.981,-137.324
 14:21:23.209,eb:33:2e:f9:57:b5, 2085-97-234 03:248:251:6758,0.454,-0.517,3.508,-631.958,-384.094,-67.993,53.416,10.607,-140.856
 14:21:23.209,eb:33:2e:f9:57:b5, 2085-97-226 02:58:251:7238,0.286,-0.536,3.331,-606.812,-412.231,-18.677,46.884,8.3,-144.185
 14:21:23.209,eb:33:2e:f9:57:b5, 2085-97-177 01:116:250:8165,0.164,-0.666,3.822,-593.018,-404.724,43.823,40.759,5.169,-146.86
 14:21:23.209,eb:33:2e:f9:57:b5, 2085-97-106 01:86:251:8210,0.212,-0.658,4.011,-583.008,-372.742,111.45,34.854,1.571,-148.519
 14:21:23.209,eb:33:2e:f9:57:b5, 2085-97-85 02:13:254:8466,0.361,-0.454,4.033,-584.167,-337.891,175.11,29.059,-2.214,-149.062
 14:21:23.210,eb:33:2e:f9:57:b5, 2085-97-82 03:231:01:8505,0.471,-0.016,4.172,-578.735,-300.11,218.811,23.099,-5.938,-148.563
 14:21:23.210,eb:33:2e:f9:57:b5, 2085-97-20 04:21:07:8501,0.507,0.534,4.144,-549.5,-287.781,237.854,17.194,-9.432,-147.288
 14:21:23.210,eb:33:2e:f9:57:b5, 2085-97-224 03:177:12:8512,0.469,1.268,4.147,-508.301,-308.472,238.953,11.409,-12.876,-145.552
 14:21:23.210,eb:33:2e:f9:57:b5, 2085-97-223 03:156:15:8841,0.503,1.805,4.187,-468.201,-356.873,226.257,5.911,-16.49,-143.564
 14:21:23.212,eb:33:2e:f9:57:b5, 2085-97-227 03:113:18:10071,0.434,2.093,4.577,-441.956,-380.371,207.825,0.5,-20.319,-141.35
 14:21:23.212,eb:33:2e:f9:57:b5, 2085-97-197 02:06:24:11562,0.241,2.618,5.297,-436.829,-347.839,191.65,-4.96,-23.857,-138.895
 14:21:23.212,eb:33:2e:f9:57:b5, 2085-97-00 01:132:31:12390,-0.07,3.457,5.882,-427.673,-285.522,171.021,-10.629,-26.68,-136.252
 14:21:23.212,eb:33:2e:f9:57:b5, 2085-97-121 253:38:38:11665,-0.553,4.374,6.019,-402.161,-230.957,138.428,-16.095,-28.757,-133.753
 14:21:23.214,eb:33:2e:f9:57:b5, 2085-97-219 249:200:44:9712,-0.896,5.169,5.225,-360.962,-189.087,96.985,-21.143,-30.311,-131.572
 14:21:23.214,eb:33:2e:f9:57:b5, 2085-97-203 248:69:51:7869,-0.779,6.009,4.317,-299.622,-137.024,43.823,-25.34,-31.509,-129.979
 14:21:23.214,eb:33:2e:f9:57:b5, 2085-97-250 251:49:58:5860,-0.246,6.844,3.372,-216.858,-40.833,-31.982,-28.235,-32.267,-129.408
 14:21:23.214,eb:33:2e:f9:57:b5, 2085-97-54 255:164:59:2822,-0.171,7.532,2.108,-144.897,74.585,-124.084,-29.366,-32.399,-130.479
 14:21:23.236,eb:33:2e:f9:57:b5, 2085-97-01 252:08:53:1501,-1.124,7.136,0.886,-67.322,42.358,-215.088,-29.009,-32.684,-132.814
 14:21:23.236,eb:33:2e:f9:57:b5, 2085-97-07 07:95:242:6457,1.161,5.742,1.048,36.743,-135.254,-255.92,-27.719,-34.288,-135.181
 14:21:23.236,eb:33:2e:f9:57:b5, 2085-97-153 10:14:245:6158,0.781,-1.687,2.984,742.31,133.606,-70.068,27.356,-15.425,-144.316
 14:21:23.236,eb:33:2e:f9:57:b5, 2085-97-176 05:207:02:10576,-0.26,-0.203,3.966,863.098,143.921,-59.875,35.376,-13.87,-144.19
 14:21:23.297,eb:33:2e:f9:57:b5, 2085-97-35 249:232:15:8908,-0.7,0.709,4.936,927.734,-21.24,-46.021,44.544,-12.997,-144.278
 14:21:23.297,eb:33:2e:f9:57:b5, 2085-97-106 247:187:11:9824,-1.536,1.816,5.021,881.165,-273.132,-119.995,54.245,-13.546,-146.453
 14:21:23.297,eb:33:2e:f9:57:b5, 2085-97-24 242:123:09:5706,-1.754,1.877,3.844,734.497,-119.629,-104.004,63.155,-13.705,-148.964
 14:21:23.297,eb:33:2e:f9:57:b5, 2085-97-137 243:36:249:3299,-0.862,0.455,2.121,475.22,111.389,-20.508,69.175,-13.195,-149.194
 14:21:23.327,eb:33:2e:f9:57:b5, 2085-97-140 251:162:243:5147,0.208,-1.883,2.096,320.312,522.949,63.171,72.004,-12.48,-146.316
 14:21:23.327,eb:33:2e:f9:57:b5, 2085-97-238 248:187:42:3614,0.801,4.151,-1.58,442.81,629.028,157.776,73.954,-11.667,-138.087
 14:21:23.327,eb:33:2e:f9:57:b5, 2085-97-133 09:00:23:6603,1.416,4.306,2.413,305.42,418.274,170.715,75.591,-11.909,-132.308
 14:21:23.327,eb:33:2e:f9:57:b5, 2085-97-100 11:96:32:1994,1.526,3.337,1.86,412.292,272.034,54.688,78.256,-12.134,-128.546
 14:21:23.358,eb:33:2e:f9:57:b5, 2085-97-149 11:125:32:4315,1.199,4.244,1.254,440.308,-7.69,-86.243,82.249,-11.635,-127.397
 14:21:23.358,eb:33:2e:f9:57:b5, 2085-97-35 08:05:27:7472,0.905,3.771,2.856,451.538,-178.284,-229.492,87.067,-10.085,-128.716
 14:21:23.358,eb:33:2e:f9:57:b5, 2085-97-125 06:61:18:10430,0.718,2.858,4.414,437.988,-241.943,-322.937,92.054,-7.229,-131.089
 14:21:23.358,eb:33:2e:f9:57:b5, 2085-97-245 04:223:07:11953,0.55,1.691,5.585,409.363,-208.679,-350.891,96.625,-3.669,-133.215
 14:21:23.447,eb:33:2e:f9:57:b5, 2085-97-26 04:229:254:11295,0.484,0.394,5.77,382.629,-87.036,-319.336,100.668,-0.088,-134.231
 14:21:23.447,eb:33:2e:f9:57:b5, 2085-97-225 03:211:249:9745,0.525,-0.537,5.143,352.783,66.528,-250.732,104.315,2.697,-133.693
 14:21:23.447,eb:33:2e:f9:57:b5, 2085-97-232 04:32:248:8543,0.724,-0.895,4.421,313.538,198.059,-167.053,107.606,4.356,-131.797
 14:21:23.447,eb:33:2e:f9:57:b5, 2085-97-204 06:79:247:7682,0.963,-1.047,3.948,273.926,276.978,-84.839,110.544,4.746,-129.062
 14:21:23.447,eb:33:2e:f9:57:b5, 2085-97-153 08:255:246:7068,1.183,-1.103,3.566,242.249,283.569,-22.095,113.099,4.23,-126.211
 14:21:23.449,eb:33:2e:f9:57:b5, 2085-113-58 00:65:251:-7965,1.3,-1.177,3.444,223.816,229.736,5.737,115.4,3.274,-123.816
 14:21:23.450,eb:33:2e:f9:57:b5, 2085-97-77 11:92:246:7068,1.552,-1.208,3.474,213.806,209.167,13.855,116.444,2.818,-122.86
 14:21:23.450,eb:33:2e:f9:57:b5, 2085-97-20 13:236:244:7292,1.704,-1.282,3.549,188.477,188.171,15.442,118.405,1.851,-121.179
 14:21:23.450,eb:33:2e:f9:57:b5, 2085-97-142 14:81:240:6086,1.831,-1.579,3.316,145.996,197.937,16.235,119.965,0.835,-119.548
 14:21:23.508,eb:33:2e:f9:57:b5, 2085-97-168 14:142:231:1886,1.887,-2.476,2.257,88.013,187.5,5.493,121.014,-0.22,-117.872
 14:21:23.508,eb:33:2e:f9:57:b5, 2085-97-103 16:52:220:-2855,2.053,-3.85,-0.623,-42.786,123.962,-16.968,121.141,-0.868,-116.505
 14:21:23.508,eb:33:2e:f9:57:b5, 2085-97-229 14:31:222:-247,1.759,-4.599,-1.005,-212.341,4.578,-36.499,119.652,-0.967,-115.785
 14:21:23.508,eb:33:2e:f9:57:b5, 2085-97-227 12:147:226:1488,1.503,-3.85,0.622,-323.486,-84.534,-65.918,116.906,-0.181,-116.043
 14:21:23.538,eb:33:2e:f9:57:b5, 2085-97-226 11:51:227:618,1.538,-3.663,0.536,-429.199,-106.873,-69.397,113.132,0.857,-116.664
 14:21:23.538,eb:33:2e:f9:57:b5, 2085-97-122 12:224:230:187,1.49,-3.406,0.132,-526.917,-102.478,-74.097,108.292,1.895,-117.389
 14:21:23.538,eb:33:2e:f9:57:b5, 2085-97-150 10:102:235:390,1.166,-2.846,0.138,-592.529,-131.042,-92.224,102.662,2.999,-118.295
 14:21:23.538,eb:33:2e:f9:57:b5, 2085-97-57 08:119:238:1030,0.861,-2.36,0.31,-635.925,-194.153,-100.403,96.471,4.219,-119.773
 14:21:24.017,eb:33:2e:f9:57:b5, 2085-97-155 05:63:240:2230,0.672,-2.08,0.716,-667.175,-264.404,-86.121,89.896,5.246,-122.047
 14:21:24.017,eb:33:2e:f9:57:b5, 2085-97-15 07:106:244:4532,1.133,-1.815,1.554,-681.213,-337.463,-60.669,83.024,5.713,-125.189
 14:21:24.017,eb:33:2e:f9:57:b5, 2085-97-184 07:250:250:6674,0.686,-0.959,3.004,-688.782,-316.101,-56.885,76.08,5.62,-128.6
 14:21:24.017,eb:33:2e:f9:57:b5, 2085-97-28 04:222:250:6734,0.437,-0.521,3.237,-688.232,-348.999,-29.175,69.066,4.982,-131.792
 14:21:24.046,eb:33:2e:f9:57:b5, 2085-97-86 03:159:249:6628,0.449,-0.751,3.267,-679.382,-380.188,7.507,62.221,3.483,-135.165
 14:21:24.046,eb:33:2e:f9:57:b5, 2085-97-144 03:25:250:6938,0.415,-0.786,3.274,-671.936,-382.629,49.805,55.508,1.187,-138.241
 14:21:24.046,eb:33:2e:f9:57:b5, 2085-97-234 02:50:251:7721,0.324,-0.673,3.577,-652.893,-376.099,95.642,49.065,-1.769,-140.718
 14:21:24.046,eb:33:2e:f9:57:b5, 2085-97-170 02:250:252:8029,0.387,-0.51,3.894,-629.089,-365.479,142.639,42.847,-5.251,-142.476
 14:21:24.049,eb:33:2e:f9:57:b5, 2085-97-118 03:96:255:7715,0.452,-0.238,3.874,-612.122,-345.215,176.331,36.837,-9.031,-143.438
 14:21:24.049,eb:33:2e:f9:57:b5, 2085-97-161 03:251:02:7956,0.413,0.118,3.781,-602.661,-328.674,194.763,30.773,-12.87,-143.668
 14:21:24.049,eb:33:2e:f9:57:b5, 2085-97-200 02:161:07:8301,0.289,0.664,3.998,-588.013,-312.988,201.965,24.692,-16.622,-143.295
 14:21:24.049,eb:33:2e:f9:57:b5, 2085-97-229 01:226:11:8216,0.177,1.233,4.039,-558.35,-302.551,198.853,18.567,-20.193,-142.388
 14:21:24.049,eb:33:2e:f9:57:b5, 2085-97-253 00:246:14:8192,0.071,1.705,3.973,-518.005,-297.058,189.758,12.64,-23.56,-141.119
 14:21:24.049,eb:33:2e:f9:57:b5, 2085-97-62 00:42:17:8770,-0.009,2.001,4.106,-476.562,-295.105,178.04,6.866,-26.757,-139.521
 14:21:24.049,eb:33:2e:f9:57:b5, 2085-97-180 255:198:20:9699,-0.073,2.337,4.497,-453.552,-270.447,172.729,1.241,-29.68,-137.631
 14:21:24.050,eb:33:2e:f9:57:b5, 2085-97-53 255:140:26:10553,-0.088,2.919,4.958,-458.252,-220.337,170.898,-4.636,-32.02,-135.363
 14:21:24.052,eb:33:2e:f9:57:b5, 2085-97-46 255:116:34:11081,-0.174,3.785,5.337,-470.398,-141.663,160.767,-10.728,-33.541,-132.973
 14:21:24.052,eb:33:2e:f9:57:b5, 2085-97-167 253:151:43:10232,-0.395,4.838,5.333,-456.055,-58.289,132.019,-16.716,-34.041,-130.847
 14:21:24.052,eb:33:2e:f9:57:b5, 2085-97-60 252:152:50:7936,-0.512,5.921,4.488,-390.869,-11.78,76.172,-21.764,-33.937,-129.518
 14:21:24.052,eb:33:2e:f9:57:b5, 2085-97-168 251:89:54:5892,-0.603,6.607,3.321,-297.119,-31.921,4.517,-25.527,-33.92,-128.963
 14:21:24.109,eb:33:2e:f9:57:b5, 2085-97-216 250:123:55:4315,-1.217,6.904,2.469,-193.848,-50.781,-71.899,-27.839,-34.486,-129.117
 14:21:24.109,eb:33:2e:f9:57:b5, 2085-97-11 240:144:230:13616,-0.514,-1.077,3.418,407.471,-66.406,-10.437,79.014,-24.56,-156.346
 14:21:24.109,eb:33:2e:f9:57:b5, 2085-97-110 245:45:34:5116,0.406,2.076,1.11,598.328,625.488,141.846,81.151,-24.824,-150.656
 14:21:24.109,eb:33:2e:f9:57:b5, 2085-97-15 03:237:17:6296,1.176,4.038,2.467,346.069,510.498,187.744,82.48,-25.56,-144.316
 14:21:24.110,eb:33:2e:f9:57:b5, 2085-97-67 13:04:25:4957,1.812,2.286,3.004,382.507,497.07,129.517,83.073,-26.488,-138.312
 14:21:24.110,eb:33:2e:f9:57:b5, 2085-97-20 14:189:32:3168,1.764,3.842,1.74,415.588,275.818,11.047,84.71,-26.559,-133.676
 14:21:24.110,eb:33:2e:f9:57:b5, 2085-97-197 13:212:28:4623,1.623,3.926,1.831,440.43,-33.508,-159.058,88.478,-25.637,-132.638
 14:21:24.111,eb:33:2e:f9:57:b5, 2085-97-62 12:106:21:7933,1.397,3.19,2.961,427.795,-226.746,-308.533,93.675,-23.088,-134.368
 14:21:24.137,eb:33:2e:f9:57:b5, 2085-97-34 10:199:12:10508,1.133,2.133,4.644,386.597,-257.141,-404.846,98.778,-19.204,-136.824
 14:21:24.137,eb:33:2e:f9:57:b5, 2085-97-228 07:215:03:11163,0.862,1.043,5.405,347.656,-209.9,-438.599,103.03,-14.502,-138.521
 14:21:24.137,eb:33:2e:f9:57:b5, 2085-97-90 06:232:251:10703,0.753,-0.042,5.365,313.416,-123.352,-419.25,106.501,-9.899,-139.131
 14:21:24.137,eb:33:2e:f9:57:b5, 2085-97-128 05:179:246:9450,0.652,-0.893,4.974,271.179,28.32,-356.323,109.248,-5.982,-138.417
 14:21:24.229,eb:33:2e:f9:57:b5, 2085-97-73 05:90:244:8451,0.713,-1.335,4.296,219.177,165.222,-266.541,111.374,-3.417,-136.346
 14:21:24.229,eb:33:2e:f9:57:b5, 2085-97-67 06:32:243:8302,0.868,-1.548,4.086,169.434,272.522,-167.053,112.917,-2.164,-133.467
 14:21:24.229,eb:33:2e:f9:57:b5, 2085-97-203 07:18:242:7841,1.135,-1.665,3.961,135.742,333.252,-71.777,114.049,-2.291,-130.095
 14:21:24.229,eb:33:2e:f9:57:b5, 2085-113-81 00:70:37:11215,1.361,-1.832,3.728,123.047,320.007,0.061,114.922,-3.246,-126.931
 14:21:24.231,eb:33:2e:f9:57:b5, 2085-97-19 13:207:239:7687,1.87,-1.934,3.68,125,300.232,20.508,115.356,-3.933,-125.535
 14:21:24.231,eb:33:2e:f9:57:b5, 2085-97-20 15:183:238:6938,1.834,-2.069,3.692,131.226,285.339,40.222,116.274,-5.411,-123.003
 14:21:24.231,eb:33:2e:f9:57:b5, 2085-97-155 15:64:234:4263,1.971,-2.412,3.076,124.512,273.499,62.866,117.109,-7.015,-120.652
 14:21:24.231,eb:33:2e:f9:57:b5, 2085-97-04 18:53:226:-2157,2.44,-3.246,0.673,84.9,194.946,62.256,117.806,-8.652,-118.724
 14:21:24.256,eb:33:2e:f9:57:b5, 2085-97-08 21:145:220:-4933,2.634,-4.22,-2.583,-94.91,119.385,43.823,117.521,-9.728,-117.565
 14:21:24.256,eb:33:2e:f9:57:b5, 2085-97-183 18:81:227:480,1.99,-4.097,-1.127,-261.108,-51.208,-25.94,115.466,-9.998,-117.279
 14:21:24.256,eb:33:2e:f9:57:b5, 2085-97-84 14:54:228:310,1.692,-3.379,0.322,-381.653,-118.53,-88.013,112.313,-8.954,-117.933
 14:21:24.256,eb:33:2e:f9:57:b5, 2085-97-156 13:166:228:-166,1.695,-3.535,-0.074,-488.281,-134.644,-107.544,108.089,-7.581,-118.823
 14:21:24.287,eb:33:2e:f9:57:b5, 2085-97-228 12:28:233:647,1.424,-3.155,0.088,-576.05,-132.629,-127.319,102.892,-6.048,-119.861
 14:21:24.287,eb:33:2e:f9:57:b5, 2085-97-135 09:11:236:1107,0.944,-2.636,0.458,-638.916,-129.028,-146.851,96.932,-4.466,-120.905
 14:21:24.287,eb:33:2e:f9:57:b5, 2085-97-36 05:179:236:1551,0.416,-2.405,0.595,-685.181,-181.763,-143.066,90.461,-2.884,-122.377
 14:21:24.287,eb:33:2e:f9:57:b5, 2085-97-109 03:61:238:3241,0.662,-2.383,1.108,-713.745,-264.526,-111.267,83.683,-1.802,-124.744
 14:21:24.317,eb:33:2e:f9:57:b5, 2085-97-73 08:169:244:5903,1.193,-1.916,2.129,-723.022,-310.913,-87.891,76.767,-1.379,-127.831
 14:21:24.317,eb:33:2e:f9:57:b5, 2085-97-57 06:169:251:7435,0.393,-0.925,3.723,-716.553,-253.418,-101.135,69.851,-1.335,-130.902
 14:21:24.317,eb:33:2e:f9:57:b5, 2085-97-121 02:62:252:7134,0.333,-0.438,3.445,-671.57,-327.881,-103.577,63.144,-1.56,-133.879
 14:21:24.317,eb:33:2e:f9:57:b5, 2085-97-211 02:79:252:6762,0.329,-0.468,3.397,-625.732,-391.174,-92.773,57.096,-2.609,-137.543
 14:21:24.706,eb:33:2e:f9:57:b5, 2085-97-05 02:152:251:7336,0.118,-0.494,3.36,-610.657,-423.523,-73.669,51.383,-4.389,-141.35
 14:21:24.706,eb:33:2e:f9:57:b5, 2085-97-192 255:94:251:8423,-0.139,-0.577,3.853,-608.643,-422.18,-37.354,45.89,-6.85,-144.899
 14:21:24.706,eb:33:2e:f9:57:b5, 2085-97-115 254:75:251:9129,-0.188,-0.579,4.329,-612.854,-400.696,16.541,40.342,-9.827,-147.783
 14:21:24.706,eb:33:2e:f9:57:b5, 2085-97-245 254:172:251:9264,-0.049,-0.59,4.51,-620.85,-346.252,79.895,34.662,-13.134,-149.65
 14:21:24.738,eb:33:2e:f9:57:b5, 2085-97-18 00:212:254:8862,0.051,-0.393,4.476,-621.582,-257.996,133.911,28.553,-16.238,-150.216
 14:21:24.738,eb:33:2e:f9:57:b5, 2085-97-219 00:98:04:8086,0.157,0.174,4.14,-599.182,-215.759,160.034,22.258,-18.929,-149.738
 14:21:24.738,eb:33:2e:f9:57:b5, 2085-97-166 01:122:09:7671,0.235,0.901,3.806,-551.514,-256.042,163.757,16.057,-21.605,-148.788
 14:21:24.738,eb:33:2e:f9:57:b5, 2085-97-203 01:227:11:7859,0.2,1.381,3.773,-491.699,-341.431,157.41,10.366,-24.901,-147.711
 14:21:24.767,eb:33:2e:f9:57:b5, 2085-97-91 01:232:13:8972,0.099,1.588,4.038,-443.054,-386.963,151.794,4.982,-28.702,-146.376
 14:21:24.767,eb:33:2e:f9:57:b5, 2085-97-75 00:136:17:10628,-0.005,1.936,4.794,-413.696,-391.418,157.715,-0.275,-32.668,-144.597
 14:21:24.767,eb:33:2e:f9:57:b5, 2085-97-139 255:193:22:11418,-0.173,2.487,5.466,-402.405,-346.741,171.57,-5.949,-36.189,-142.092
 14:21:24.767,eb:33:2e:f9:57:b5, 2085-97-127 253:139:28:11291,-0.472,3.227,5.58,-396.851,-302.124,180.176,-11.997,-39.012,-139.005
 14:21:24.770,eb:33:2e:f9:57:b5, 2085-97-233 250:141:34:10239,-0.84,3.914,5.314,-374.756,-278.748,176.331,-18.391,-41.221,-135.428
 14:21:24.770,eb:33:2e:f9:57:b5, 2085-97-126 247:94:42:9100,-1.183,4.785,4.693,-318.054,-260.254,154.785,-24.538,-43.066,-131.71
 14:21:24.770,eb:33:2e:f9:57:b5, 2085-97-178 246:182:50:7811,-0.937,5.839,4.196,-241.15,-179.199,110.107,-29.773,-44.352,-128.375
 14:21:24.770,eb:33:2e:f9:57:b5, 2085-97-223 250:24:56:5966,-0.406,6.758,3.447,-187.195,-19.897,32.898,-33.102,-44.775,-126.705
 14:21:24.773,eb:33:2e:f9:57:b5, 2085-97-42 253:53:55:3291,-0.491,7.042,2.261,-163.33,99.915,-69.702,-34.255,-44.368,-127.485
 14:21:24.773,eb:33:2e:f9:57:b5, 2085-97-215 249:169:49:2204,-1.156,6.633,1.145,-102.539,60.364,-168.396,-33.854,-44.346,-129.831
 14:21:24.773,eb:33:2e:f9:57:b5, 2085-97-64 244:83:39:3454,-1.342,5.634,1.3,3.784,-48.096,-219.055,-32.399,-45.428,-132.363
 14:21:24.773,eb:33:2e:f9:57:b5, 2085-97-254 226:231:10:21770,-6.428,4.432,2.25,297.791,-159.485,-305.359,-29.625,-47.28,-134.808
 14:21:24.858,eb:33:2e:f9:57:b5, 2085-97-141 04:16:57:6819,0.542,3.704,-0.59,687.439,266.479,40.527,-21.78,-45.95,-137.483
 14:21:24.858,eb:33:2e:f9:57:b5, 2085-97-10 07:36:244:7464,0.948,4.373,11.756,798.828,1058.777,197.021,-10.388,-43.572,-141.773
 14:21:24.858,eb:33:2e:f9:57:b5, 2085-97-242 08:235:243:6678,0.906,-1.362,3.33,582.031,201.355,-50.72,20.852,-35.695,-144.41
 14:21:24.859,eb:33:2e:f9:57:b5, 2085-97-206 04:178:247:6275,0.536,-1.495,3.15,670.166,275.818,-42.542,26.785,-33.311,-143.789
 14:21:24.861,eb:33:2e:f9:57:b5, 2085-97-249 02:135:03:6976,0.051,-0.324,3.279,756.775,234.619,-30.029,33.223,-30.624,-142.553
 14:21:24.861,eb:33:2e:f9:57:b5, 2085-97-19 01:241:15:7367,-0.286,1.721,3.339,842.224,-39.246,-45.166,41.028,-29.487,-142.075
 14:21:24.861,eb:33:2e:f9:57:b5, 2085-97-116 251:180:20:6873,-1.446,2.665,3.252,840.088,-392.883,-109.314,51.01,-30.482,-144.706
 14:21:24.861,eb:33:2e:f9:57:b5, 2085-97-81 240:245:18:7489,-2.145,2.758,3.273,739.38,-418.64,-111.328,61.902,-31.959,-149.788
 14:21:24.863,eb:33:2e:f9:57:b5, 2085-97-245 238:10:252:9035,-1.712,0.904,4.415,537.72,-231.14,-75.928,70.84,-32.393,-154.221
 14:21:24.863,eb:33:2e:f9:57:b5, 2085-97-91 255:122:249:10350,-1.284,-2.23,6.183,449.219,377.441,21.484,75.245,-31.954,-153.902
 14:21:24.863,eb:33:2e:f9:57:b5, 2085-97-80 254:56:23:4910,0.866,2.748,1.77,453.308,752.502,151.489,75.07,-31.262,-144.734
 14:21:24.863,eb:33:2e:f9:57:b5, 2085-97-185 11:74:19:6215,1.859,1.992,3.295,332.947,709.106,196.594,73.356,-30.883,-135.632
 14:21:24.864,eb:33:2e:f9:57:b5, 2085-97-08 16:20:29:3491,1.857,3.148,2.323,369.141,525.879,85.388,72.559,-30.13,-127.991
 14:21:24.864,eb:33:2e:f9:57:b5, 2085-97-188 14:122:29:2697,1.909,3.813,1.255,387.878,204.102,-61.584,74.059,-29.092,-123.86
 14:21:24.864,eb:33:2e:f9:57:b5, 2085-97-107 14:164:23:5533,1.631,3.388,1.884,386.719,-86.975,-231.14,78.058,-27.356,-124.014
 14:21:24.864,eb:33:2e:f9:57:b5, 2085-97-171 11:97:15:8834,1.272,2.446,3.592,360.291,-202.698,-362.427,83.046,-24.609,-126.546
 14:21:24.948,eb:33:2e:f9:57:b5, 2085-97-82 09:31:07:9714,1.083,1.412,4.638,335.632,-191.223,-430.237,87.748,-20.66,-129.26
 14:21:24.948,eb:33:2e:f9:57:b5, 2085-97-217 07:28:255:9159,0.926,0.366,4.684,304.749,-161.926,-442.078,91.736,-16.293,-131.292
 14:21:24.948,eb:33:2e:f9:57:b5, 2085-97-95 07:212:248:8429,0.943,-0.523,4.268,253.113,-102.173,-409.302,94.911,-11.849,-132.539
 14:21:24.949,eb:33:2e:f9:57:b5, 2085-97-203 07:54:244:8129,0.985,-1.227,4.015,187.622,14.771,-336.243,97.108,-8.08,-132.61
 14:21:24.949,eb:33:2e:f9:57:b5, 2085-97-40 08:127:242:7803,1.143,-1.635,3.909,122.803,169.495,-236.633,98.383,-5.268,-131.309
 14:21:24.949,eb:33:2e:f9:57:b5, 2085-97-138 10:244:242:7636,1.58,-1.671,3.771,72.449,312.561,-138.306,98.91,-3.785,-128.524
 14:21:24.949,eb:33:2e:f9:57:b5, 2085-113-81 00:98:44:10214,1.787,-1.58,3.623,47.18,403.625,-56.091,98.965,-3.252,-124.728
 14:21:24.949,eb:33:2e:f9:57:b5, 2085-97-238 16:147:243:6932,2.337,-1.554,3.531,47.058,413.208,-36.865,98.932,-3.301,-122.624
 14:21:24.949,eb:33:2e:f9:57:b5, 2085-97-31 20:131:242:6402,2.651,-1.615,3.277,65.491,385.803,-16.663,98.954,-3.516,-118.575
 14:21:24.976,eb:33:2e:f9:57:b5, 2085-97-201 21:246:239:3972,2.903,-1.764,2.759,77.332,328.491,-15.137,99.212,-3.845,-114.95
 14:21:24.976,eb:33:2e:f9:57:b5, 2085-97-128 23:188:230:-707,2.822,-2.443,1.069,51.575,218.75,-32.166,99.503,-3.928,-112.231
 14:21:24.976,eb:33:2e:f9:57:b5, 2085-97-117 21:51:221:-5230,2.508,-3.948,-2.013,-73.059,102.234,-55.481,99.229,-3.691,-110.544
 14:21:24.976,eb:33:2e:f9:57:b5, 2085-97-83 18:255:224:-380,2.136,-4.198,-1.583,-241.76,-80.933,-77.576,97.498,-2.95,-110.451
 14:21:25.006,eb:33:2e:f9:57:b5, 2085-97-172 15:69:226:2062,1.809,-3.725,0.73,-339.05,-144.836,-96.558,94.642,-1.928,-111.643
 14:21:25.006,eb:33:2e:f9:57:b5, 2085-97-42 14:142:229:1358,1.816,-3.627,0.886,-425.72,-115.417,-83.618,90.928,-0.89,-112.972
 14:21:25.006,eb:33:2e:f9:57:b5, 2085-97-01 15:31:237:964,1.869,-2.831,0.5,-537.781,-33.813,-68.665,86.116,-0.176,-113.692
 14:21:25.006,eb:33:2e:f9:57:b5, 2085-97-83 14:219:241:1164,1.656,-2.01,0.531,-625.854,4.944,-81.543,80.233,0.626,-113.884
 14:21:25.067,eb:33:2e:f9:57:b5, 2085-97-30 12:143:243:1328,1.385,-1.625,0.574,-672.302,-23.987,-104.98,73.702,1.533,-114.142
 14:21:25.067,eb:33:2e:f9:57:b5, 2085-97-223 09:58:244:2248,1.192,-1.518,0.84,-690.002,-118.469,-115.112,66.901,2.379,-115.247
 14:21:25.067,eb:33:2e:f9:57:b5, 2085-97-32 11:254:249:4945,1.386,-1.261,1.545,-692.993,-193.359,-116.028,60.024,2.609,-117.23
 14:21:25.067,eb:33:2e:f9:57:b5, 2085-97-12 09:65:255:5651,0.973,-0.327,2.896,-692.2,-157.349,-112.122,53.146,2.675,-119.366
 14:21:25.516,eb:33:2e:f9:57:b5, 2085-97-187 07:241:253:6211,0.943,-0.176,2.847,-660.767,-264.526,-110.962,46.434,2.082,-121.701
 14:21:25.516,eb:33:2e:f9:57:b5, 2085-97-95 07:232:254:5978,0.883,-0.208,2.986,-625.366,-307.251,-98.938,40.139,0.698,-124.415
 14:21:25.516,eb:33:2e:f9:57:b5, 2085-97-175 06:23:254:6485,0.829,-0.149,2.997,-616.394,-353.76,-75.439,34.156,-1.494,-127.084
 14:21:25.516,eb:33:2e:f9:57:b5, 2085-97-131 06:128:252:7407,0.809,-0.35,3.403,-619.69,-377.625,-40.833,28.229,-4.356,-129.446
 14:21:25.518,eb:33:2e:f9:57:b5, 2085-97-107 06:149:252:8050,0.761,-0.459,3.801,-625.122,-356.262,12.817,22.28,-7.657,-131.094
 14:21:25.518,eb:33:2e:f9:57:b5, 2085-97-28 06:191:253:8306,0.787,-0.36,3.997,-621.826,-327.515,67.2,16.144,-10.953,-131.743
 14:21:25.518,eb:33:2e:f9:57:b5, 2085-97-143 06:22:255:8356,0.895,-0.207,4.101,-602.905,-315.979,122.498,9.926,-14.282,-131.435
 14:21:25.518,eb:33:2e:f9:57:b5, 2085-97-207 07:26:01:8293,1.02,-0.013,4.077,-567.993,-328.369,171.021,3.598,-17.567,-130.161
 14:21:25.520,eb:33:2e:f9:57:b5, 2085-97-55 08:206:04:8007,1.019,0.341,3.979,-523.987,-366.943,204.346,-2.686,-21,-128.024
 14:21:25.520,eb:33:2e:f9:57:b5, 2085-97-232 07:174:09:8531,0.946,0.906,3.954,-479.553,-449.036,223.267,-9.064,-24.741,-125.03
 14:21:25.520,eb:33:2e:f9:57:b5, 2085-97-218 06:233:13:10181,0.713,1.484,4.529,-436.035,-527.527,240.234,-15.672,-29.009,-121.042
 14:21:25.520,eb:33:2e:f9:57:b5, 2085-97-151 04:66:18:12305,0.448,1.982,5.468,-396.423,-536.072,260.132,-22.819,-33.129,-115.84
 14:21:25.522,eb:33:2e:f9:57:b5, 2085-97-148 02:196:24:13790,0.208,2.66,6.475,-374.695,-435.242,275.024,-30.394,-36.211,-109.863
 14:21:25.522,eb:33:2e:f9:57:b5, 2085-97-125 00:217:32:13234,-0.102,3.604,6.729,-361.328,-292.847,266.724,-37.755,-37.447,-104.222
 14:21:25.522,eb:33:2e:f9:57:b5, 2085-97-182 253:63:41:11181,-0.521,4.616,6.004,-341.919,-219.36,222.046,-44.352,-37.623,-99.586
 14:21:25.522,eb:33:2e:f9:57:b5, 2085-97-201 249:49:51:9006,-0.993,5.756,4.906,-305.664,-194.031,139.282,-49.944,-37.568,-95.988
 14:21:25.609,eb:33:2e:f9:57:b5, 2085-97-166 247:64:57:7353,-1.007,6.917,3.958,-256.653,-147.949,26.367,-54.399,-37.974,-93.483
 14:21:25.609,eb:33:2e:f9:57:b5, 2085-97-192 247:08:56:5323,-1.172,7.156,3.219,-210.51,-32.166,-90.942,-57.074,-38.732,-92.845
 14:21:25.609,eb:33:2e:f9:57:b5, 2085-97-80 244:09:51:3974,-1.783,6.721,2.12,-157.898,15.869,-186.401,-58.151,-39.963,-93.955
 14:21:25.610,eb:33:2e:f9:57:b5, 2085-97-84 239:152:43:4932,-2.23,5.963,2.106,-75.684,-23.743,-234.131,-58.123,-41.803,-95.543
 14:21:25.612,eb:33:2e:f9:57:b5, 2085-97-151 238:96:33:5342,-0.359,4.854,2.619,18.677,25.635,-229.736,-57.123,-43.857,-97.234
 14:21:25.612,eb:33:2e:f9:57:b5, 2085-97-51 250:129:21:3969,-1.587,3.393,1.515,666.565,-328.735,-142.334,35.821,-20.627,-116.158
 14:21:25.612,eb:33:2e:f9:57:b5, 2085-97-102 239:249:05:5391,-1.663,1.642,2.077,451.782,-280.518,-141.235,42.896,-22.33,-119.762
 14:21:25.612,eb:33:2e:f9:57:b5, 2085-97-105 244:110:244:12444,0.6,-0.357,3.606,270.386,148.254,-82.947,47.038,-21.923,-121.284
 14:21:25.612,eb:33:2e:f9:57:b5, 2085-97-154 241:220:23:3584,0.875,1.379,3.521,396.24,827.942,105.103,48.571,-18.474,-117.026
 14:21:25.612,eb:33:2e:f9:57:b5, 2085-97-122 12:203:19:8797,1.566,3.836,2.16,245.178,497.498,77.087,49.301,-14.194,-110.533
 14:21:25.612,eb:33:2e:f9:57:b5, 2085-97-164 11:100:24:3850,1.671,2.489,3.224,327.454,451.965,62.317,50.878,-11.7,-106.249
 14:21:25.612,eb:33:2e:f9:57:b5, 2085-97-227 15:95:20:5027,2.023,2.959,1.796,361.45,57.129,-64.27,54.058,-10.063,-104.474
 14:21:25.612,eb:33:2e:f9:57:b5, 2085-97-230 14:32:16:6603,1.733,2.217,2.98,354.98,-40.161,-180.237,57.881,-9.108,-105.425
 14:21:25.612,eb:33:2e:f9:57:b5, 2085-97-182 13:212:10:8155,1.7,1.755,3.529,325.195,-98.511,-279.358,61.776,-7.333,-107.309
 14:21:25.612,eb:33:2e:f9:57:b5, 2085-97-248 12:07:03:8731,1.513,0.87,4.28,286.682,-80.017,-341.553,65.242,-4.977,-109.698
 14:21:25.613,eb:33:2e:f9:57:b5, 2085-97-47 11:109:251:7903,1.325,-0.079,4.077,245.789,-25.94,-362.793,68.225,-1.824,-111.649
 14:21:25.757,eb:33:2e:f9:57:b5, 2085-97-108 10:117:246:7437,1.322,-0.917,3.722,192.627,21.79,-344.116,70.488,1.478,-112.972
 14:21:25.757,eb:33:2e:f9:57:b5, 2085-97-208 10:149:243:7171,1.373,-1.404,3.578,145.508,93.445,-298.34,72.23,4.796,-113.527
 14:21:25.757,eb:33:2e:f9:57:b5, 2085-97-74 11:218:242:6745,1.512,-1.626,3.399,103.821,185.669,-236.633,73.471,7.762,-112.983
 14:21:25.757,eb:33:2e:f9:57:b5, 2085-97-63 13:84:243:6387,1.83,-1.621,3.204,75.684,255.066,-180.054,74.537,10.486,-111.423
 14:21:25.759,eb:33:2e:f9:57:b5, 2085-113-81 00:40:54:13059,2.05,-1.544,3.013,62.5,289.612,-138.794,75.509,12.755,-109.149
 14:21:25.759,eb:33:2e:f9:57:b5, 2085-97-211 17:203:242:6083,2.372,-1.547,2.991,60.547,288.818,-126.343,76.014,13.771,-107.913
 14:21:25.759,eb:33:2e:f9:57:b5, 2085-97-248 18:226:238:4648,2.241,-1.822,2.743,57.007,289.612,-100.342,77.135,15.677,-105.32
 14:21:25.759,eb:33:2e:f9:57:b5, 2085-97-75 16:222:232:256,2.035,-2.495,1.379,40.405,241.272,-69.824,78.184,17.144,-102.821
 14:21:25.761,eb:33:2e:f9:57:b5, 2085-97-67 17:253:226:-2744,2.25,-3.229,-1.107,-56.396,106.934,-31.921,78.569,18.034,-101.179
 14:21:25.761,eb:33:2e:f9:57:b5, 2085-97-140 17:04:228:-129,2.104,-3.744,-0.738,-194.946,39.978,-8.301,77.355,18.369,-100.558
 14:21:25.761,eb:33:2e:f9:57:b5, 2085-97-92 16:05:233:1086,2.063,-3.152,0.405,-288.94,-16.418,6.348,74.943,18.463,-100.525
 14:21:25.761,eb:33:2e:f9:57:b5, 2085-97-68 17:162:237:214,2.278,-2.607,0.364,-395.813,7.69,29.785,71.477,18.254,-100.525
 14:21:25.788,eb:33:2e:f9:57:b5, 2085-97-196 18:76:243:-475,2.373,-1.935,-0.09,-513.977,67.627,40.588,67.05,18.133,-100.003
 14:21:25.788,eb:33:2e:f9:57:b5, 2085-97-36 19:173:247:-279,2.421,-1.287,-0.257,-609.68,71.35,27.588,61.562,18.16,-99.13
 14:21:25.788,eb:33:2e:f9:57:b5, 2085-97-79 19:109:251:598,2.372,-0.805,0.072,-668.701,41.077,4.028,55.305,18.391,-98.575
 14:21:25.788,eb:33:2e:f9:57:b5, 2085-97-239 18:194:255:1878,2.224,-0.337,0.5,-703.125,7.568,-16.907,48.444,18.605,-98.421
 14:21:26.177,eb:33:2e:f9:57:b5, 2085-97-213 16:231:03:2900,1.966,0.234,1.323,-718.506,29.602,-31.25,41.336,18.951,-98.531
 14:21:26.177,eb:33:2e:f9:57:b5, 2085-97-218 14:145:02:2859,1.801,0.528,1.372,-699.707,-86.365,-33.875,34.124,19.001,-98.921
 14:21:26.177,eb:33:2e:f9:57:b5, 2085-97-246 13:83:255:3642,1.694,0.086,1.545,-658.203,-225.891,-6.592,27.142,17.628,-99.981
 14:21:26.177,eb:33:2e:f9:57:b5, 2085-97-75 13:53:254:4870,1.647,-0.176,2.069,-618.835,-284.18,44.8,20.599,15.145,-100.822
 14:21:26.179,eb:33:2e:f9:57:b5, 2085-97-117 13:21:254:5533,1.762,-0.247,2.596,-579.895,-314.575,114.746,14.65,12.079,-100.876
 14:21:26.179,eb:33:2e:f9:57:b5, 2085-97-204 14:171:254:5675,1.914,-0.214,2.771,-544.617,-341.064,180.786,9.152,8.536,-100.003
 14:21:26.179,eb:33:2e:f9:57:b5, 2085-97-02 16:48:255:5599,2.123,-0.116,2.725,-523.438,-347.534,242.249,3.95,4.971,-98.179
 14:21:26.179,eb:33:2e:f9:57:b5, 2085-97-08 18:56:00:5838,2.371,-0.089,2.804,-502.014,-364.99,286.926,-1.208,1.373,-95.51
 14:21:26.182,eb:33:2e:f9:57:b5, 2085-97-217 19:121:05:6181,2.525,0.282,2.892,-481.812,-369.08,303.284,-6.323,-1.989,-92.219
 14:21:26.182,eb:33:2e:f9:57:b5, 2085-97-164 19:116:13:6762,2.119,1.185,3.197,-471.375,-361.023,298.645,-11.558,-5.059,-88.588
 14:21:26.182,eb:33:2e:f9:57:b5, 2085-97-04 14:198:16:5905,1.543,1.937,3.112,-457.52,-391.052,293.335,-16.864,-7.839,-84.716
 14:21:26.182,eb:33:2e:f9:57:b5, 2085-97-139 11:36:19:7878,1.245,2.224,3.146,-411.865,-580.994,269.043,-22.258,-11.382,-80.239
 14:21:26.184,eb:33:2e:f9:57:b5, 2085-97-216 07:27:23:10341,0.779,2.609,4.541,-382.996,-612.854,280.701,-27.773,-15.765,-74.833
 14:21:26.184,eb:33:2e:f9:57:b5, 2085-97-188 05:152:30:12066,0.64,3.258,5.499,-377.686,-473.877,288.269,-33.668,-18.902,-69.12
 14:21:26.184,eb:33:2e:f9:57:b5, 2085-97-69 04:87:45:11728,0.404,4.624,6.016,-379.7,-162.842,266.052,-39.155,-19.688,-64.715
 14:21:26.184,eb:33:2e:f9:57:b5, 2085-97-208 02:01:60:9468,0.309,6.693,5.235,-347.29,-8.423,174.561,-43.671,-18.589,-62.551
 14:21:26.187,eb:33:2e:f9:57:b5, 2085-97-249 00:188:65:6578,-0.223,7.99,3.915,-279.724,-88.318,35.339,-47.076,-18.155,-61.567
 14:21:26.187,eb:33:2e:f9:57:b5, 2085-97-114 251:115:63:6100,-0.956,8.18,2.847,-211.121,-270.264,-95.947,-49.993,-19.671,-60.282
 14:21:26.187,eb:33:2e:f9:57:b5, 2085-97-135 244:180:56:6770,-1.701,7.593,3.252,-151.733,-300.049,-171.692,-52.366,-22.709,-58.645
 14:21:26.187,eb:33:2e:f9:57:b5, 2085-97-120 241:42:48:5528,-1.906,6.577,3.078,-88.684,-119.873,-185.242,-53.855,-25.417,-57.969
 14:21:26.298,eb:33:2e:f9:57:b5, 2085-97-08 241:196:38:3767,-1.821,5.423,2.207,-9.155,38.757,-150.208,-53.707,-26.966,-58.997
 14:21:26.298,eb:33:2e:f9:57:b5, 2085-97-51 13:45:248:6834,1.282,4.336,1.462,108.459,50.659,-85.449,-52.487,-27.592,-60.337
 14:21:26.298,eb:33:2e:f9:57:b5, 2085-97-253 05:86:03:10817,0.276,-0.223,4.385,785.461,344.971,-149.048,1.747,-7.328,-77.558
 14:21:26.298,eb:33:2e:f9:57:b5, 2085-97-142 00:50:14:8853,0.043,1.314,4.993,835.327,157.227,-110.84,10.085,-4.499,-78.569
 14:21:26.301,eb:33:2e:f9:57:b5, 2085-97-83 251:72:20:4914,-0.915,2.15,3.023,873.901,-128.906,-146.851,18.864,-4.224,-79.838
 14:21:26.301,eb:33:2e:f9:57:b5, 2085-97-61 241:120:12:4885,-2.1,2.233,2.239,759.583,-275.879,-158.325,27.466,-5.63,-82.222
 14:21:26.301,eb:33:2e:f9:57:b5, 2085-97-227 241:57:248:5330,-1.403,0.397,2.331,562.195,-152.893,-88.928,34.393,-6.949,-84.315
 14:21:26.301,eb:33:2e:f9:57:b5, 2085-97-154 241:246:236:10822,0.402,-1.801,3.143,396.301,198.242,-7.08,38.974,-6.691,-84.54
 14:21:26.303,eb:33:2e:f9:57:b5, 2085-97-204 242:48:33:1542,0.576,2.511,1.345,517.09,892.883,190.308,43.182,-2.582,-79.382
 14:21:26.303,eb:33:2e:f9:57:b5, 2085-97-00 10:182:12:7320,1.664,3.072,1.94,336.609,262.878,124.084,46.593,-0.066,-74.839
 14:21:26.303,eb:33:2e:f9:57:b5, 2085-97-169 12:135:25:2824,1.434,2.039,2.677,358.276,438.049,91.309,49.894,1.544,-71.406
 14:21:26.303,eb:33:2e:f9:57:b5, 2085-97-39 12:54:29:3009,1.697,3.739,0.839,330.322,163.94,-35.4,53.245,3.444,-68.698
 14:21:26.447,eb:33:2e:f9:57:b5, 2085-97-103 13:93:23:6558,1.478,3.288,2.545,317.322,-74.341,-182.373,56.492,4.373,-69.5
 14:21:26.447,eb:33:2e:f9:57:b5, 2085-97-23 11:98:15:8478,1.359,2.41,3.655,298.462,-112.61,-294.617,59.507,5.944,-71.537
 14:21:26.447,eb:33:2e:f9:57:b5, 2085-97-77 10:232:07:9445,1.187,1.444,4.513,294.25,-97.656,-356.14,62.331,8.245,-74.213
 14:21:26.447,eb:33:2e:f9:57:b5, 2085-97-225 08:182:00:9009,1.05,0.537,4.52,292.175,-73.486,-376.831,65.023,11.157,-76.646
 14:21:26.447,eb:33:2e:f9:57:b5, 2085-97-250 07:179:250:8286,0.961,-0.316,4.248,275.696,-27.771,-363.098,67.566,14.304,-78.728
 14:21:26.450,eb:33:2e:f9:57:b5, 2085-113-81 00:02:75:16108,0.941,-0.945,3.812,234.924,46.875,-314.636,69.879,17.49,-79.92
 14:21:26.450,eb:33:2e:f9:57:b5, 2085-97-146 07:79:244:6918,0.985,-1.215,3.589,209.412,82.764,-280.09,71.12,19.034,-80.101
 14:21:26.450,eb:33:2e:f9:57:b5, 2085-97-180 08:65:242:6403,1.219,-1.629,3.188,164.307,114.807,-206.482,73.026,21.638,-79.871
 14:21:26.450,eb:33:2e:f9:57:b5, 2085-97-158 10:30:242:6322,1.481,-1.737,3.121,117.004,148.682,-138.977,74.844,23.676,-79.085
 14:21:26.450,eb:33:2e:f9:57:b5, 2085-97-88 13:209:241:5877,1.845,-1.729,2.997,59.204,223.328,-73.364,76.284,25.17,-77.448
 14:21:26.450,eb:33:2e:f9:57:b5, 2085-97-229 15:116:239:4813,2.076,-1.879,2.673,-0.916,309.387,-11.353,77.723,26.241,-74.647
 14:21:26.450,eb:33:2e:f9:57:b5, 2085-97-220 16:57:234:2324,2.161,-2.376,1.874,-34.79,297.058,19.897,78.772,26.851,-71.356
 14:21:26.451,eb:33:2e:f9:57:b5, 2085-97-230 17:228:230:-1256,2.365,-2.973,0.21,-80.139,217.346,27.527,79.481,27.142,-68.5
 14:21:26.452,eb:33:2e:f9:57:b5, 2085-97-78 20:180:229:-1973,2.601,-3.237,-1.047,-177.002,72.388,13.794,78.783,27.219,-66.934
 14:21:26.452,eb:33:2e:f9:57:b5, 2085-97-241 19:139:230:-731,2.304,-3.271,-0.598,-274.353,-62.866,-19.958,76.591,27.23,-67.006
 14:21:26.452,eb:33:2e:f9:57:b5, 2085-97-34 17:200:231:-540,2.019,-3.085,-0.289,-366.638,-135.376,-43.457,72.867,27.263,-68.209
 14:21:26.452,eb:33:2e:f9:57:b5, 2085-97-90 15:207:232:-216,1.801,-2.976,-0.219,-453.979,-186.401,-52.49,68.137,27.142,-70.032
 14:21:26.566,eb:33:2e:f9:57:b5, 2085-97-75 13:246:234:309,1.502,-2.783,0.03,-525.635,-208.74,-49.316,62.325,26.73,-72.252
 14:21:26.566,eb:33:2e:f9:57:b5, 2085-97-156 10:164:236:1335,1.133,-2.514,0.366,-578.735,-242.432,-33.752,56.036,25.895,-74.548
 14:21:26.566,eb:33:2e:f9:57:b5, 2085-97-128 08:115:238:2912,1.136,-2.331,1.07,-619.202,-253.052,9.033,49.23,24.445,-76.723
 14:21:26.566,eb:33:2e:f9:57:b5, 2085-97-36 10:191:242:4589,1.422,-1.958,1.792,-640.015,-288.696,53.406,42.473,22.302,-78.464
 14:21:26.568,eb:33:2e:f9:57:b5, 2085-97-124 11:158:248:6516,1.27,-1.259,2.774,-660.339,-267.944,94.299,35.607,19.583,-79.667
 14:21:26.568,eb:33:2e:f9:57:b5, 2085-97-157 08:125:250:6546,1.013,-0.729,3.259,-672.852,-210.51,141.602,28.993,17.023,-79.81
 14:21:26.568,eb:33:2e:f9:57:b5, 2085-97-78 08:60:251:6887,1.057,-0.664,3.216,-645.264,-298.462,168.335,22.473,14.057,-79.431
 14:21:26.568,eb:33:2e:f9:57:b5, 2085-97-19 08:179:253:6968,0.968,-0.456,3.44,-614.929,-294.678,209.9,16.425,10.574,-78.585
 14:21:26.898,eb:33:2e:f9:57:b5, 2085-97-140 07:56:255:6944,0.968,-0.157,3.371,-586.853,-292.847,248.718,10.569,7.256,-76.937
 14:21:26.898,eb:33:2e:f9:57:b5, 2085-97-36 08:00:00:7116,1.041,-0.055,3.408,-557.861,-318.542,280.945,5.026,3.917,-74.647
 14:21:26.898,eb:33:2e:f9:57:b5, 2085-97-153 08:97:02:6879,1.126,0.102,3.393,-536.987,-295.654,304.871,-0.516,0.797,-71.768
 14:21:26.898,eb:33:2e:f9:57:b5, 2085-97-35 09:118:08:7741,1.104,0.618,3.504,-524.78,-308.533,306.091,-5.971,-2.005,-68.5
 14:21:26.900,eb:33:2e:f9:57:b5, 2085-97-72 08:164:16:8643,0.949,1.571,4.044,-528.87,-289.734,297.241,-11.678,-4.427,-64.984
 14:21:26.900,eb:33:2e:f9:57:b5, 2085-97-205 06:69:22:8752,0.735,2.487,4.306,-525.757,-273.926,267.944,-17.435,-6.416,-61.501
 14:21:26.900,eb:33:2e:f9:57:b5, 2085-97-38 05:126:25:8523,0.597,3.001,4.155,-508.728,-242.371,226.257,-23.247,-7.877,-58.233
 14:21:26.900,eb:33:2e:f9:57:b5, 2085-97-105 04:43:29:9667,0.461,3.388,4.405,-481.812,-240.967,176.514,-28.707,-9.19,-55.344
 14:21:26.900,eb:33:2e:f9:57:b5, 2085-97-241 02:72:34:10100,0.299,3.951,4.896,-464.966,-182.983,139.587,-34.014,-10.146,-52.833
 14:21:26.900,eb:33:2e:f9:57:b5, 2085-97-255 01:150:40:10040,0.173,4.646,4.936,-456.787,-115.051,100.952,-38.952,-10.651,-51.01
 14:21:26.900,eb:33:2e:f9:57:b5, 2085-97-56 00:76:48:9100,-0.141,5.564,4.793,-436.401,-38.879,59.204,-43.709,-10.662,-49.922
 14:21:26.900,eb:33:2e:f9:57:b5, 2085-97-250 253:84:53:6434,-0.316,6.418,3.837,-376.282,-24.841,8.606,-47.719,-10.624,-49.603
 14:21:26.903,eb:33:2e:f9:57:b5, 2085-97-154 252:89:53:4343,-0.585,6.716,2.619,-277.832,-78.064,-56.274,-51.004,-11.195,-49.373
 14:21:26.903,eb:33:2e:f9:57:b5, 2085-97-172 249:75:51:2742,-0.913,6.571,1.675,-166.809,-124.878,-105.774,-53.097,-12.557,-49.109
 14:21:26.903,eb:33:2e:f9:57:b5, 2085-97-31 248:242:46:2685,-1.067,6.155,1.215,-51.331,-180.176,-140.564,-54.294,-14.48,-48.554
 14:21:26.903,eb:33:2e:f9:57:b5, 2085-97-178 246:114:43:3294,-1.292,5.646,1.406,28.503,-200.562,-155.823,-54.602,-16.815,-47.752
 14:21:26.927,eb:33:2e:f9:57:b5, 2085-97-162 244:166:37:4378,-3.946,5.108,1.903,69.641,-171.692,-150.269,-54.349,-19.182,-47.005
 14:21:26.927,eb:33:2e:f9:57:b5, 2085-97-62 212:89:34:14925,-2.763,4.068,10.687,417.542,-49.194,-215.332,-52.191,-22.297,-46.56
 14:21:26.927,eb:33:2e:f9:57:b5, 2085-97-08 249:246:63:17571,-3.581,6.198,-0.662,615.417,-76.904,-120.85,-45.791,-19.88,-50.032
 14:21:26.927,eb:33:2e:f9:57:b5, 2085-97-192 05:94:45:2484,5.252,5.571,4.324,196.411,303.528,-12.268,-40.21,-18.622,-51.685
 14:21:26.959,eb:33:2e:f9:57:b5, 2085-97-61 17:195:09:3895,1.462,-0.797,8.592,140.137,-58.96,-29.602,-38.996,-19.061,-51.987
 14:21:26.959,eb:33:2e:f9:57:b5, 2085-97-156 13:208:14:5663,1.24,-0.118,2.834,857.544,158.752,-77.881,-4.351,-19.319,-54.657
 14:21:26.959,eb:33:2e:f9:57:b5, 2085-97-91 06:227:27:9072,0.066,2.604,3.592,1053.528,-82.092,-103.577,5.9,-19.023,-55.783
 14:21:26.959,eb:33:2e:f9:57:b5, 2085-97-201 250:243:24:10748,-1.23,3.425,5.336,1054.138,-412.109,-183.655,17.441,-21.627,-58.134
 14:21:27.019,eb:33:2e:f9:57:b5, 2085-97-100 241:37:17:8585,-2.668,2.425,5.157,998.962,-501.648,-168.884,29.734,-25.477,-62.325
 14:21:27.019,eb:33:2e:f9:57:b5, 2085-97-213 234:104:252:8779,-1.938,1.458,3.815,785.828,-404.358,-78.857,40.77,-28.553,-66.412
 14:21:27.019,eb:33:2e:f9:57:b5, 2085-97-193 239:149:242:14468,-0.046,-2.4,5.995,623.23,39.978,0.549,48.84,-30.245,-68.967
 14:21:27.019,eb:33:2e:f9:57:b5, 2085-97-104 244:165:30:6764,-0.009,3.796,2.67,694.824,672.485,213.074,52.515,-27.587,-61.957
 14:21:27.048,eb:33:2e:f9:57:b5, 2085-97-189 12:186:15:9929,2.808,2.186,3.588,497.925,564.88,211.426,54.399,-25.757,-55.201
 14:21:27.048,eb:33:2e:f9:57:b5, 2085-97-126 23:16:35:7016,2.489,2.964,5.064,470.459,789.124,157.715,55.794,-23.335,-47.856
 14:21:27.048,eb:33:2e:f9:57:b5, 2085-113-81 00:194:107:12049,2.665,5.371,1.6,492.126,378.845,-34.546,57.524,-20.089,-41.067
 14:21:27.048,eb:33:2e:f9:57:b5, 2085-97-40 24:222:35:5140,2.873,5.061,1.938,509.46,98.511,-165.955,59.832,-19.083,-40.529
 14:21:27.076,eb:33:2e:f9:57:b5, 2085-97-207 19:00:26:6982,2.166,3.932,2.742,472.9,-49.438,-350.586,65.209,-16.611,-41.743
 14:21:27.076,eb:33:2e:f9:57:b5, 2085-97-105 14:87:14:10610,1.384,2.526,4.367,440.063,-259.216,-484.802,70.922,-13.315,-45.313
 14:21:27.076,eb:33:2e:f9:57:b5, 2085-97-119 08:06:03:12316,0.929,1.06,5.639,402.283,-335.388,-515.015,76.317,-9.377,-49.861
 14:21:27.076,eb:33:2e:f9:57:b5, 2085-97-128 06:38:249:13466,0.61,-0.245,6.402,365.417,-347.9,-486.816,81.079,-5.219,-54.569
 14:21:27.258,eb:33:2e:f9:57:b5, 2085-97-47 03:139:241:11619,0.332,-1.385,6.216,289.612,-98.999,-372.864,84.71,-1.302,-57.36
 14:21:27.258,eb:33:2e:f9:57:b5, 2085-97-45 03:60:239:10483,0.501,-2.069,5.316,208.801,125.549,-226.868,87.166,1.631,-57.354
 14:21:27.258,eb:33:2e:f9:57:b5, 2085-97-25 05:202:240:9794,0.871,-1.992,4.935,126.648,327.515,-80.505,89,3.235,-55.003
 14:21:27.258,eb:33:2e:f9:57:b5, 2085-97-216 09:29:241:9257,1.641,-1.87,4.653,77.515,388.916,27.649,89.923,3.51,-51.262
 14:21:27.258,eb:33:2e:f9:57:b5, 2085-97-47 15:222:240:8596,2.008,-1.849,4.385,65.308,356.262,71.655,90.791,2.983,-47.494
 14:21:27.258,eb:33:2e:f9:57:b5, 2085-97-239 15:221:239:6902,2.15,-1.905,3.79,60.608,318.726,77.881,91.351,2.225,-44.149
 14:21:27.258,eb:33:2e:f9:57:b5, 2085-97-235 18:171:235:2156,2.6,-2.167,2.426,23.01,338.44,72.021,91.862,1.39,-40.869
 14:21:27.259,eb:33:2e:f9:57:b5, 2085-97-126 20:131:221:-4865,2.513,-3.155,-0.683,-70.251,238.831,8.789,91.538,0.923,-38.018
 14:21:27.587,eb:33:2e:f9:57:b5, 2085-97-153 18:25:216:-4096,2.139,-5.13,-2.978,-268.86,38.94,-55.054,89.819,1.088,-36.365
 14:21:27.587,eb:33:2e:f9:57:b5, 2085-97-54 16:218:223:1221,1.858,-4.358,-0.424,-398.193,-251.587,-145.447,86.49,2.093,-37.991
 14:21:27.587,eb:33:2e:f9:57:b5, 2085-97-157 13:33:223:861,1.635,-4.056,0.771,-536.438,-158.752,-162.781,81.991,3.345,-40.298
 14:21:27.587,eb:33:2e:f9:57:b5, 2085-97-241 12:00:226:194,1.532,-4.008,0.112,-644.226,-127.93,-186.218,76.009,4.774,-41.979
 14:21:27.591,eb:33:2e:f9:57:b5, 2085-97-208 10:138:229:1109,1.135,-3.517,0.322,-729.37,-126.892,-212.158,69.197,6.207,-43.841
 14:21:27.591,eb:33:2e:f9:57:b5, 2085-97-08 05:237:230:1631,0.296,-3.102,0.628,-776.733,-155.334,-214.172,61.529,7.553,-46.022
 14:21:27.591,eb:33:2e:f9:57:b5, 2085-97-210 03:152:233:3451,0.917,-3.024,1.04,-794.25,-223.267,-176.208,53.597,8.124,-48.428
 14:21:27.591,eb:33:2e:f9:57:b5, 2085-97-240 08:81:243:7940,0.874,-2.262,2.865,-756.958,-382.935,-166.992,45.637,7.13,-52.191
 14:21:27.675,eb:33:2e:f9:57:b5, 2085-97-243 03:176:247:7454,0.4,-1.166,4.012,-727.417,-268.005,-110.107,38.243,5.647,-55.256
 14:21:27.675,eb:33:2e:f9:57:b5, 2085-97-42 04:140:248:7187,0.581,-1.017,3.441,-638.794,-431.396,-100.464,31.421,3.29,-58.057
 14:21:27.676,eb:33:2e:f9:57:b5, 2085-97-11 04:96:251:6873,0.406,-0.711,3.48,-595.886,-422.424,-61.218,25.604,-0.269,-60.82
 14:21:27.676,eb:33:2e:f9:57:b5, 2085-97-184 02:179:250:7106,0.327,-0.566,3.334,-585.205,-455.2,-25.085,19.929,-4.131,-62.809
 14:21:27.678,eb:33:2e:f9:57:b5, 2085-97-169 02:189:248:7886,0.358,-0.796,3.663,-594.116,-506.531,30.64,14.442,-8.833,-64.193
 14:21:27.678,eb:33:2e:f9:57:b5, 2085-97-247 02:253:248:8259,0.349,-0.936,3.998,-612.793,-476.013,101.257,8.443,-13.837,-64.424
 14:21:27.678,eb:33:2e:f9:57:b5, 2085-97-90 02:124:252:8617,0.306,-0.701,4.081,-624.695,-393.738,169.617,2.005,-18.259,-63.353
 14:21:27.678,eb:33:2e:f9:57:b5, 2085-97-241 02:231:01:9391,0.395,-0.11,4.403,-611.633,-360.168,213.684,-5.164,-21.841,-61.024
 14:21:27.682,eb:33:2e:f9:57:b5, 2085-97-204 02:144:08:8659,0.298,0.63,4.525,-574.646,-289.673,240.295,-12.376,-24.692,-57.947
 14:21:27.682,eb:33:2e:f9:57:b5, 2085-97-213 01:124:15:7824,0.171,1.533,3.924,-530.151,-272.522,234.009,-19.644,-26.532,-54.41
 14:21:27.682,eb:33:2e:f9:57:b5, 2085-97-58 01:113:19:8534,0.171,2.239,3.92,-480.713,-354.065,206.116,-26.521,-28.515,-50.647
 14:21:27.682,eb:33:2e:f9:57:b5, 2085-97-88 01:205:22:10009,0.082,2.593,4.51,-432.678,-391.968,186.279,-33.486,-30.817,-46.274
 14:21:27.682,eb:33:2e:f9:57:b5, 2085-97-55 255:115:30:11274,-0.342,3.252,5.23,-406.311,-315.613,183.594,-40.067,-32.525,-41.929
 14:21:27.682,eb:33:2e:f9:57:b5, 2085-97-73 08:245:244:7878,1.146,4.55,5.894,-373.474,-311.523,161.438,-46.511,-33.448,-37.733
 14:21:27.682,eb:33:2e:f9:57:b5, 2085-97-49 10:90:246:5853,1.252,-1.008,2.559,556.335,152.954,-17.273,-26.796,-54.053,-32.706
 14:21:27.682,eb:33:2e:f9:57:b5, 2085-97-246 08:110:241:7166,1.378,-1.628,3.327,670.349,128.113,-57.251,-19.133,-53.124,-34.459
 14:21:27.736,eb:33:2e:f9:57:b5, 2085-97-56 08:31:252:8312,1.077,-1.689,3.751,780.762,173.584,-66.956,-10.223,-51.872,-36.376
 14:21:27.736,eb:33:2e:f9:57:b5, 2085-97-71 243:73:240:9605,0.009,1,4.767,941.956,89.111,-62.378,-0.417,-50.317,-37.787
 14:21:27.736,eb:33:2e:f9:57:b5, 2085-97-193 244:223:40:2094,0.548,1.296,1.967,616.516,777.771,304.932,39.666,-50.663,-40.77
 14:21:27.736,eb:33:2e:f9:57:b5, 2085-97-242 04:210:17:6895,1.174,3.858,2.544,425.293,359.68,255.493,38.09,-48.477,-32.585
 14:21:27.767,eb:33:2e:f9:57:b5, 2085-97-184 12:69:26:5515,1.51,2.303,3.167,478.516,264.038,228.638,37.628,-47.483,-26.263
 14:21:27.767,eb:33:2e:f9:57:b5, 2085-97-165 11:122:33:5107,1.602,3.953,2.271,472.473,128.906,135.437,38.979,-46.868,-21.863
 14:21:27.767,eb:33:2e:f9:57:b5, 2085-113-81 00:81:109:8003,1.648,4.23,3.244,484.558,-141.418,-30.273,43.698,-47.461,-21.758
 14:21:27.767,eb:33:2e:f9:57:b5, 2085-97-137 12:159:30:9111,1.482,4.16,3.831,479.98,-190.552,-112.732,47.23,-47.796,-23.187
 14:21:27.767,eb:33:2e:f9:57:b5, 2085-97-109 11:89:22:12095,1.348,3.33,5.218,455.933,-207.825,-253.662,55.547,-47.664,-27.812
 14:21:27.798,eb:33:2e:f9:57:b5, 2085-97-248 09:245:12:12995,1.21,2.241,6.286,432.8,-112.305,-348.267,63.677,-45.862,-32.503
 14:21:27.798,eb:33:2e:f9:57:b5, 2085-97-92 09:28:03:11972,1.049,0.99,6.185,408.02,1.099,-385.559,70.082,-42.66,-35.447
 14:21:27.799,eb:33:2e:f9:57:b5, 2085-97-75 07:199:251:9412,0.852,-0.118,5.232,360.657,85.815,-370.3,74.691,-38.881,-36.447
 14:21:27.799,eb:33:2e:f9:57:b5, 2085-97-211 06:50:246:8293,0.842,-0.892,4.204,282.593,90.271,-321.594,77.91,-35.305,-36.469
 14:21:27.858,eb:33:2e:f9:57:b5, 2085-97-112 06:39:243:8377,0.756,-1.475,4.028,197.632,118.408,-246.033,79.942,-32.322,-35.898
 14:21:27.858,eb:33:2e:f9:57:b5, 2085-97-236 05:249:241:8898,0.78,-1.675,4.193,119.141,168.457,-163.269,80.771,-30.086,-34.662
 14:21:27.858,eb:33:2e:f9:57:b5, 2085-97-254 06:179:240:9257,1.021,-1.846,4.47,59.937,256.47,-82.825,80.359,-28.515,-32.333
 14:21:27.858,eb:33:2e:f9:57:b5, 2085-97-136 09:26:239:9067,1.278,-1.987,4.502,37.354,296.814,-30.579,79.146,-27.449,-29.185
 14:21:27.916,eb:33:2e:f9:57:b5, 2085-97-122 10:105:234:8171,1.448,-2.37,4.252,48.035,286.255,-5.005,77.844,-26.636,-25.829
 14:21:27.916,eb:33:2e:f9:57:b5, 2085-97-163 13:31:230:6175,1.572,-2.999,3.666,95.032,208.496,-9.888,77.179,-26.005,-23.077
 14:21:27.916,eb:33:2e:f9:57:b5, 2085-97-47 13:66:222:-1544,1.928,-3.77,1.448,59.448,288.391,14.404,76.816,-25.362,-20.473
 14:21:27.916,eb:33:2e:f9:57:b5, 2085-97-32 17:78:212:-6058,2.498,-4.835,-2.862,-139.648,246.704,20.203,75.251,-24.901,-17.314
 14:21:27.918,eb:33:2e:f9:57:b5, 2085-97-231 18:144:221:-040,2.218,-4.993,-1.281,-327.454,-41.138,-57.678,72.158,-24.489,-16.144
 14:21:27.918,eb:33:2e:f9:57:b5, 2085-97-54 16:198:224:-424,1.895,-3.915,0.309,-446.411,-43.152,-121.277,69.164,-23.901,-17.402
 14:21:27.918,eb:33:2e:f9:57:b5, 2085-97-154 15:150:226:-2143,2.066,-3.892,-0.885,-569.397,-33.081,-154.48,64.446,-22.687,-18.133
 14:21:27.918,eb:33:2e:f9:57:b5, 2085-97-127 16:244:230:-035,1.919,-3.383,-0.612,-652.344,-153.137,-213.562,59.518,-21.687,-20.303
 14:21:27.949,eb:33:2e:f9:57:b5, 2085-97-21 13:68:234:1011,1.358,-2.902,0.345,-710.388,-128.174,-246.277,53.844,-20.522,-23.066
 14:21:27.949,eb:33:2e:f9:57:b5, 2085-97-04 07:248:234:1827,0.41,-2.555,0.612,-744.873,-176.88,-256.958,48.065,-19.622,-26.158
 14:21:27.949,eb:33:2e:f9:57:b5, 2085-97-69 04:127:237:3434,1.124,-2.625,1.203,-752.319,-227.356,-219.727,41.819,-19.363,-29.471
 14:21:27.949,eb:33:2e:f9:57:b5, 2085-97-248 11:215:246:8704,1.159,-1.796,2.877,-695.801,-457.764,-226.624,36.705,-21.006,-34.008
 14:21:28.007,eb:33:2e:f9:57:b5, 2085-97-31 04:88:250:7960,0.288,-0.773,4.525,-669.8,-288.757,-169.25,31.712,-22.994,-38.161
 14:21:28.007,eb:33:2e:f9:57:b5, 2085-97-216 03:216:248:7324,0.671,-0.779,3.413,-604.431,-487.915,-149.658,27.318,-25.587,-41.814
 14:21:28.007,eb:33:2e:f9:57:b5, 2085-97-248 04:41:250:7718,0.461,-0.824,3.767,-585.266,-480.469,-83.069,23.384,-29.789,-45.56
 14:21:28.007,eb:33:2e:f9:57:b5, 2085-97-178 02:222:250:7797,0.303,-0.68,3.741,-580.75,-426.331,-22.461,19.226,-33.695,-48.098
 14:21:28.036,eb:33:2e:f9:57:b5, 2085-97-136 02:96:251:8224,0.366,-0.604,3.948,-570.984,-458.13,31.982,14.436,-38.007,-49.62
 14:21:28.036,eb:33:2e:f9:57:b5, 2085-97-40 03:167:251:8378,0.381,-0.555,4.042,-571.411,-454.407,91.736,9.229,-42.578,-50.076
 14:21:28.036,eb:33:2e:f9:57:b5, 2085-97-232 02:188:253:8683,0.395,-0.459,4.142,-578.674,-407.227,150.94,2.461,-46.961,-48.757
 14:21:28.036,eb:33:2e:f9:57:b5, 2085-97-102 03:237:01:8919,0.429,-0.041,4.351,-568.604,-377.258,187.744,-5.46,-50.718,-45.829
 14:21:28.427,eb:33:2e:f9:57:b5, 2085-97-93 03:82:07:8388,0.371,0.562,4.255,-539.49,-351.746,208.313,-15.018,-53.849,-41.028
 14:21:28.427,eb:33:2e:f9:57:b5, 2085-97-75 02:86:12:8200,0.233,1.241,4,-499.146,-373.657,203.979,-25.192,-56.415,-35.019
 14:21:28.427,eb:33:2e:f9:57:b5, 2085-97-187 01:113:14:8814,0.2,1.686,4.088,-448.73,-441.223,187.927,-37.035,-58.837,-26.944
 14:21:28.427,eb:33:2e:f9:57:b5, 2085-97-59 01:236:18:10514,0.056,2.013,4.658,-416.199,-436.829,183.472,-49.85,-60.754,-17.243
 14:21:28.427,eb:33:2e:f9:57:b5, 2085-97-93 255:253:25:12461,-0.204,2.807,5.663,-410.278,-372.131,190.613,-63.419,-61.304,-6.866
 14:21:28.427,eb:33:2e:f9:57:b5, 2085-97-237 253:28:31:12984,-0.288,3.585,6.319,-414.49,-323.12,189.88,-75.333,-60.749,1.934
 14:21:28.427,eb:33:2e:f9:57:b5, 2085-97-09 253:237:38:12002,-0.555,4.294,6.173,-424.561,-200.439,184.753,-85.468,-59.277,8.487
 14:21:28.427,eb:33:2e:f9:57:b5, 2085-97-228 249:153:49:9944,-0.859,5.524,5.438,-399.414,-55.42,152.71,-91.862,-57.585,10.992
 14:21:28.430,eb:33:2e:f9:57:b5, 2085-97-161 249:166:58:7606,-0.698,6.851,4.239,-293.518,-45.959,75.195,-95.883,-56.404,11.574
 14:21:28.430,eb:33:2e:f9:57:b5, 2085-97-160 251:167:61:5151,-0.421,7.623,2.988,-169.678,-49.011,-19.531,-98.795,-56.091,12.343
 14:21:28.430,eb:33:2e:f9:57:b5, 2085-97-144 252:70:59:3899,-0.64,7.654,2.188,-89.783,-69.519,-122.498,-101.343,-56.722,13.843
 14:21:28.430,eb:33:2e:f9:57:b5, 2085-97-159 247:36:52:3667,-1.521,7.002,1.783,-48.645,-88.562,-204.285,-104.233,-58.178,16.381
 14:21:28.432,eb:33:2e:f9:57:b5, 2085-97-00 240:164:42:4082,-2.335,5.971,1.908,15.625,-86.67,-229.858,-107.375,-60.062,19.709
 14:21:28.432,eb:33:2e:f9:57:b5, 2085-97-13 236:144:28:4483,-2.467,4.539,2.114,121.46,-73.486,-187.927,-109.858,-61.782,23.242
 14:21:28.432,eb:33:2e:f9:57:b5, 2085-97-49 237:196:11:3515,2.665,2.531,2.087,231.323,-16.296,-84.229,-110.078,-62.88,25.477
 14:21:28.432,eb:33:2e:f9:57:b5, 2085-97-193 207:132:02:17624,-1.72,5.718,9.184,656.494,-538.391,-386.658,-111.264,-63.616,31.322
 14:21:28.487,eb:33:2e:f9:57:b5, 2085-97-92 70:123:59:18720,8.029,8.084,4.384,986.511,-912.72,-73.425,-99.24,-62.051,28.378
 14:21:28.487,eb:33:2e:f9:57:b5, 2085-97-122 75:216:29:17193,-4.241,2.394,10.442,382.874,-1251.038,-226.379,-113.599,-62.677,48.653
 14:21:28.487,eb:33:2e:f9:57:b5, 2085-97-51 219:123:252:-11497,0.539,4.301,-7.912,228.027,-642.151,-396.851,-134.874,-57.903,76.437
 14:21:28.487,eb:33:2e:f9:57:b5, 2085-97-213 22:243:22:16992,-0.036,-2.044,2.051,190.308,-1257.263,-238.22,-151.523,-48.159,98.701
 14:21:28.489,eb:33:2e:f9:57:b5, 2085-97-00 252:40:251:-1903,2.328,-1.367,0.164,-42.664,566.711,87.646,-148.453,-50.164,95.114
 14:21:28.489,eb:33:2e:f9:57:b5, 2085-97-133 17:48:35:2044,2.111,3.481,2.158,372.437,505.188,182.129,-53.635,-49.807,89.517
 14:21:28.489,eb:33:2e:f9:57:b5, 2085-97-04 18:05:36:2520,2.383,4.679,0.715,388.55,2.625,-18.799,-47.725,-47.521,86.869
 14:21:28.489,eb:33:2e:f9:57:b5, 2085-97-92 18:32:28:6016,2.154,4.059,2.051,378.174,-286.072,-232.971,-44.451,-49.916,87.649
 14:21:28.516,eb:33:2e:f9:57:b5, 2085-97-70 16:243:18:9747,1.863,2.963,3.837,337.708,-351.379,-393.188,-40.721,-54.498,87.495
 14:21:28.516,eb:33:2e:f9:57:b5, 2085-97-106 13:145:09:11571,1.587,1.761,5.417,301.086,-279.297,-482.117,-34.937,-59.875,84.529
 14:21:28.516,eb:33:2e:f9:57:b5, 2085-97-161 12:40:01:11780,1.473,0.65,5.707,272.888,-151.794,-509.033,-24.752,-64.221,76.586
 14:21:28.516,eb:33:2e:f9:57:b5, 2085-97-234 09:27:251:10306,1.037,-0.28,5.556,235.291,19.409,-482.117,-10.179,-66.467,63.754
 14:21:28.577,eb:33:2e:f9:57:b5, 2085-97-183 07:110:246:8297,0.994,-0.888,4.402,182.373,156.311,-406.616,4.345,-65.676,50.57
 14:21:28.577,eb:33:2e:f9:57:b5, 2085-97-226 07:36:243:8208,0.907,-1.462,3.995,123.779,207.703,-306.396,14.15,-63.397,41.66
 14:21:28.577,eb:33:2e:f9:57:b5, 2085-97-182 06:81:243:8004,0.899,-1.61,3.932,67.627,287.72,-191.162,18.787,-60.287,37.65
 14:21:28.577,eb:33:2e:f9:57:b5, 2085-97-151 08:153:242:8526,1.267,-1.604,4.017,33.813,293.518,-99.06,20.028,-57.063,36.782
 14:21:28.608,eb:33:2e:f9:57:b5, 2085-97-133 11:30:241:8053,1.614,-1.774,4.141,29.663,332.153,-30.518,19.6,-53.926,37.672
 14:21:28.608,eb:33:2e:f9:57:b5, 2085-97-126 13:46:238:7167,1.703,-1.974,3.746,64.941,281.86,-7.324,18.792,-50.883,39.199
 14:21:28.608,eb:33:2e:f9:57:b5, 2085-97-255 13:45:234:6140,2.036,-2.461,3.253,122.314,162.415,-12.512,18.962,-48.768,40.243
 14:21:28.608,eb:33:2e:f9:57:b5, 2085-97-41 15:09:225:521,1.816,-3,1.846,109.131,198.181,-17.883,19.935,-47.384,40.655
 14:21:28.638,eb:33:2e:f9:57:b5, 2085-97-164 14:177:214:-6209,2.131,-4.561,-2.038,-73.364,300.598,26.184,19.023,-44.835,42.215
 14:21:28.638,eb:33:2e:f9:57:b5, 2085-97-243 17:238:222:-733,2.288,-4.836,-2.129,-293.274,1.831,-9.766,16.1,-43.171,43.292
 14:21:28.638,eb:33:2e:f9:57:b5, 2085-97-224 17:67:231:1704,2.025,-3.454,0.861,-395.813,-110.962,-82.581,13.596,-44.275,42.045
 14:21:28.638,eb:33:2e:f9:57:b5, 2085-113-58 00:110:236:-9390,1.895,-3.055,-0.061,-508.606,57.251,-114.746,10.047,-44,40.611
 14:21:28.728,eb:33:2e:f9:57:b5, 2085-97-60 15:65:232:-2137,1.906,-3.054,-0.847,-543.701,-8.972,-149.048,8.113,-43.792,39.644
 14:21:28.728,eb:33:2e:f9:57:b5, 2085-97-127 14:234:234:-568,1.598,-2.805,-0.72,-598.755,-148.56,-212.708,4.554,-44.637,36.777
 14:21:28.728,eb:33:2e:f9:57:b5, 2085-97-158 10:67:236:606,1.059,-2.521,0.059,-645.325,-164.795,-243.835,1.06,-46.143,33.14
 14:21:28.728,eb:33:2e:f9:57:b5, 2085-97-77 05:124:235:2005,0.326,-2.48,0.601,-676.025,-244.751,-246.033,-2.554,-48.301,29.339
 14:21:28.731,eb:33:2e:f9:57:b5, 2085-97-71 03:69:237:3652,0.704,-2.558,1.356,-686.218,-308.899,-209.045,-6.768,-51.207,26.038
 14:21:28.731,eb:33:2e:f9:57:b5, 2085-97-97 08:124:243:6913,1.048,-2.013,2.48,-660.522,-481.323,-188.782,-11.613,-55.679,23.873
 14:21:28.731,eb:33:2e:f9:57:b5, 2085-97-86 05:145:248:8253,0.24,-1.184,4.088,-634.155,-370.789,-159.058,-17.106,-60.408,22.78
 14:21:28.731,eb:33:2e:f9:57:b5, 2085-97-204 00:61:249:6450,0.221,-0.828,3.508,-588.501,-364.197,-132.324,-22.983,-63.995,22.511
 14:21:29.116,eb:33:2e:f9:57:b5, 2085-97-253 02:209:246:7345,0.375,-0.974,3.228,-554.199,-554.077,-110.962,-32.124,-68.813,26.202
 14:21:29.116,eb:33:2e:f9:57:b5, 2085-97-19 02:237:244:8365,0.156,-1.297,3.912,-564.148,-499.146,-40.039,-49.059,-73.334,37.936
 14:21:29.116,eb:33:2e:f9:57:b5, 2085-97-18 01:244:244:9017,0.193,-1.412,4.255,-577.942,-438.782,37.476,-75.053,-75.427,58.612
 14:21:29.116,eb:33:2e:f9:57:b5, 2085-97-250 01:72:247:8989,0.293,-1.264,4.47,-594.421,-343.079,125.977,-101.338,-74.625,79.393
 14:21:29.120,eb:33:2e:f9:57:b5, 2085-97-179 02:243:251:8437,0.383,-0.834,4.249,-600.586,-281.616,184.509,-117.449,-72.048,89.753
 14:21:29.120,eb:33:2e:f9:57:b5, 2085-97-53 03:29:02:8053,0.4,-0.129,4.008,-582.397,-303.101,209.656,-127.919,-68.78,94.466
 14:21:29.120,eb:33:2e:f9:57:b5, 2085-97-13 03:190:08:8044,0.37,0.682,3.892,-546.753,-371.643,213.501,-136.434,-64.896,97.509
 14:21:29.120,eb:33:2e:f9:57:b5, 2085-97-148 02:68:13:8779,0.275,1.442,4.064,-507.874,-459.595,204.224,-143.954,-60.304,99.976
 14:21:29.147,eb:33:2e:f9:57:b5, 2085-97-241 01:224:14:10141,0.247,1.774,4.577,-473.999,-498.23,201.904,-150.403,-55.085,101.744
 14:21:29.147,eb:33:2e:f9:57:b5, 2085-97-94 02:213:18:12342,0.278,2.025,5.457,-445.801,-450.745,210.51,-155.358,-49.872,102.189
 14:21:29.147,eb:33:2e:f9:57:b5, 2085-97-203 01:177:26:13657,0.166,2.806,6.471,-429.81,-296.875,228.76,-158.89,-45.599,101.129
 14:21:29.147,eb:33:2e:f9:57:b5, 2085-97-244 00:40:34:13215,0.077,3.832,6.665,-415.527,-194.275,230.957,-161.499,-42.665,98.959
 14:21:29.149,eb:33:2e:f9:57:b5, 2085-97-168 255:86:42:11413,-0.266,4.742,6.045,-394.409,-150.085,218.323,-163.817,-40.441,96.526
 14:21:29.149,eb:33:2e:f9:57:b5, 2085-97-133 251:08:53:9354,-0.793,5.942,5.079,-335.876,-126.709,187.439,-165.916,-38.633,94.257
 14:21:29.149,eb:33:2e:f9:57:b5, 2085-97-153 248:216:60:7383,-0.948,7.241,4.05,-232.3,-152.1,123.901,-167.618,-36.985,92.587
 14:21:29.149,eb:33:2e:f9:57:b5, 2085-97-160 248:250:59:6238,-0.944,7.641,3.259,-129.15,-154.663,39.246,-168.953,-35.261,91.972
 14:21:29.151,eb:33:2e:f9:57:b5, 2085-97-04 247:167:56:4906,-1.43,7.289,2.743,-72.754,-51.636,-36.438,-170.063,-34.222,92.241
 14:21:29.151,eb:33:2e:f9:57:b5, 2085-97-248 232:219:250:7349,-2.626,6.798,2.195,-22.705,2.197,-105.164,-171.145,-34.178,93.219
 14:21:29.152,eb:33:2e:f9:57:b5, 2085-113-58 00:243:223:-6105,-1.965,-1.404,5.336,330.872,8.057,-1.831,-103.859,-46.824,118.35
 14:21:29.152,eb:33:2e:f9:57:b5, 2085-97-123 254:141:18:9167,-0.437,-1.408,7.503,425.964,429.993,149.902,-100.327,-46.741,116.274
 14:21:29.152,eb:33:2e:f9:57:b5, 2085-97-68 11:116:29:7450,1.669,2.879,4.286,242.92,947.327,256.47,-86.539,-45.192,102.964
 14:21:29.208,eb:33:2e:f9:57:b5, 2085-97-158 16:149:34:7538,2.265,3.579,4.388,359.619,353.943,56.03,-77.64,-43.204,94.966
 14:21:29.208,eb:33:2e:f9:57:b5, 2085-97-251 17:197:29:3695,2.118,4.35,2.482,400.94,341.919,-110.107,-69.51,-42.462,89.182
 14:21:29.208,eb:33:2e:f9:57:b5, 2085-97-190 16:00:19:6636,2.02,2.986,2.264,413.574,-106.384,-340.698,-63.655,-44.445,86.907
 14:21:29.208,eb:33:2e:f9:57:b5, 2085-97-152 14:120:08:10415,1.587,1.761,4.272,330.627,-150.696,-474.06,-59.233,-48.928,86.028
 14:21:29.237,eb:33:2e:f9:57:b5, 2085-97-20 11:173:253:11794,1.249,0.349,5.578,239.99,-47.424,-507.507,-53.718,-53.652,82.776
 14:21:29.237,eb:33:2e:f9:57:b5, 2085-97-120 09:236:244:11305,1.152,-0.867,5.704,187.439,44.128,-468.262,-46.318,-57.453,76.63
 14:21:29.237,eb:33:2e:f9:57:b5, 2085-97-51 09:247:238:10124,1.182,-1.825,5.268,161.255,135.986,-385.498,-37.381,-59.705,68.577
 14:21:29.237,eb:33:2e:f9:57:b5, 2085-97-69 10:15:237:8477,1.433,-2.307,4.547,147.522,261.353,-279.846,-27.96,-59.826,59.793
 14:21:29.296,eb:33:2e:f9:57:b5, 2085-97-129 12:73:237:7273,1.644,-2.368,3.812,140.869,329.285,-178.833,-20.012,-58.035,52.553
 14:21:29.296,eb:33:2e:f9:57:b5, 2085-97-201 13:179:237:6504,1.848,-2.311,3.334,142.212,349.731,-93.14,-14.464,-55.157,47.812
 14:21:29.296,eb:33:2e:f9:57:b5, 2085-97-123 16:173:237:6274,2.204,-2.275,3.095,161.438,268.433,-41.443,-10.789,-52.3,45.335
 14:21:29.296,eb:33:2e:f9:57:b5, 2085-97-67 18:117:236:5373,2.277,-2.347,2.903,167.908,216.98,-2.747,-8.201,-50.092,44.242
 14:21:29.386,eb:33:2e:f9:57:b5, 2085-97-92 18:166:233:3382,2.437,-2.584,2.175,131.348,234.619,37.598,-6.476,-47.834,44.05
 14:21:29.386,eb:33:2e:f9:57:b5, 2085-97-240 20:193:226:1922,2.59,-3.155,1.268,62.195,205.872,59.143,-5.812,-45.566,44.423
 14:21:29.386,eb:33:2e:f9:57:b5, 2085-97-103 19:79:222:-930,2.34,-4.09,0.364,-34.546,201.599,70.129,-6.125,-43.517,45.071
 14:21:29.387,eb:33:2e:f9:57:b5, 2085-97-49 19:185:224:-1620,2.579,-4.054,-0.949,-180.237,125.854,76.05,-7.778,-41.677,45.813
 14:21:29.389,eb:33:2e:f9:57:b5, 2085-97-199 21:236:225:139,2.703,-3.869,-0.241,-308.472,10.315,58.228,-10.898,-41.105,46.686
 14:21:29.389,eb:33:2e:f9:57:b5, 2085-97-85 20:217:230:-608,2.428,-3.5,-0.06,-407.532,62.988,38.635,-14.914,-40.616,47.219
 14:21:29.389,eb:33:2e:f9:57:b5, 2085-97-215 19:128:237:-503,2.725,-2.72,-0.392,-495.789,-18.005,2.258,-19.572,-40.259,47.411
 14:21:29.389,eb:33:2e:f9:57:b5, 2085-97-04 24:166:243:996,3.052,-1.908,0.061,-575.745,-127.625,-44.128,-25.109,-41.111,47.609
 14:21:29.448,eb:33:2e:f9:57:b5, 2085-97-208 22:144:246:1754,2.556,-1.312,0.838,-657.654,-60.73,-87.219,-31.24,-42.457,47.582
 14:21:29.449,eb:33:2e:f9:57:b5, 2085-97-149 18:163:246:1604,2.175,-1.136,0.711,-705.261,-32.959,-122.192,-37.332,-43.226,46.483
 14:21:29.449,eb:33:2e:f9:57:b5, 2085-97-168 16:230:246:3327,1.973,-1.226,1.123,-711.67,-173.828,-143.433,-44.149,-45,46.176
 14:21:29.449,eb:33:2e:f9:57:b5, 2085-97-79 15:204:251:5842,1.716,-0.815,2.35,-699.036,-202.332,-127.808,-51.954,-47.318,47.131
 14:21:29.569,eb:33:2e:f9:57:b5, 2085-97-160 11:55:249:6228,1.349,-0.605,3.026,-651.306,-282.715,-92.712,-60.551,-49.51,49.433
 14:21:29.569,eb:33:2e:f9:57:b5, 2085-97-26 11:99:248:6427,1.438,-0.988,3.043,-582.886,-445.923,-49.377,-71.125,-51.597,54.888
 14:21:29.569,eb:33:2e:f9:57:b5, 2085-97-171 11:15:250:7265,1.453,-0.854,3.317,-565.857,-460.388,14.709,-83.622,-52.674,63.078
 14:21:29.569,eb:33:2e:f9:57:b5, 2085-97-169 11:86:252:8173,1.445,-0.623,3.781,-575.684,-410.828,68.848,-95.845,-52.147,70.873
 14:21:29.573,eb:33:2e:f9:57:b5, 2085-97-146 11:221:253:8606,1.454,-0.334,4.116,-578.125,-397.888,115.784,-106.968,-50.339,77.371
 14:21:29.573,eb:33:2e:f9:57:b5, 2085-97-151 11:187:253:8808,1.447,-0.261,4.261,-571.594,-392.7,160.217,-116.818,-47.499,82.496
 14:21:29.573,eb:33:2e:f9:57:b5, 2085-97-213 11:136:253:9041,1.561,-0.312,4.342,-556.946,-396.729,209.167,-125.2,-43.835,86.072
 14:21:29.573,eb:33:2e:f9:57:b5, 2085-97-49 13:172:255:9498,1.713,-0.229,4.54,-527.71,-423.401,257.446,-132.303,-39.375,88.418
 14:21:29.573,eb:33:2e:f9:57:b5, 2085-97-145 13:226:04:9649,1.665,0.277,4.687,-496.033,-431.763,293.335,-138.219,-34.332,89.665
 14:21:29.573,eb:33:2e:f9:57:b5, 2085-97-04 13:234:09:9879,1.593,0.945,4.751,-469.849,-442.627,309.631,-143.234,-29.059,89.989
 14:21:29.573,eb:33:2e:f9:57:b5, 2085-97-152 12:157:13:10432,1.531,1.492,4.917,-444.885,-478.577,308.716,-147.761,-23.472,89.945
 14:21:29.573,eb:33:2e:f9:57:b5, 2085-97-12 11:07:18:12997,1.186,1.937,5.533,-439.148,-502.563,303.711,-152.029,-17.693,89.604
 14:21:29.837,eb:33:2e:f9:57:b5, 2085-97-47 08:210:27:16010,0.858,2.75,7.218,-431.641,-435.425,297.913,-156.149,-12.057,88.857
 14:21:29.837,eb:33:2e:f9:57:b5, 2085-97-253 04:169:41:15583,0.358,4.336,7.946,-429.199,-214.905,275.757,-160.06,-8.086,87.237
 14:21:29.837,eb:33:2e:f9:57:b5, 2085-97-97 00:87:55:13026,-0.296,6.081,7,-409.79,-91.248,199.463,-163.905,-6.114,85.309
 14:21:29.837,eb:33:2e:f9:57:b5, 2085-97-211 250:218:66:10394,-0.897,7.73,5.751,-349.915,-74.585,83.008,-167.503,-5.032,84.133
 14:21:29.867,eb:33:2e:f9:57:b5, 2085-97-118 247:119:69:7763,-1.236,8.64,4.332,-268.433,-77.454,-49.072,-170.568,-4.268,84.15
 14:21:29.867,eb:33:2e:f9:57:b5, 2085-97-52 243:123:66:6163,-2.107,8.562,3.355,-192.322,-16.357,-153.442,-172.991,-3.851,85.342
 14:21:29.867,eb:33:2e:f9:57:b5, 2085-97-145 235:125:60:5541,-2.816,7.973,2.751,-101.868,31.555,-204.102,-174.705,-4.246,87.177
 14:21:29.867,eb:33:2e:f9:57:b5, 2085-113-81 00:94:09:-23179,-2.838,6.98,2.888,14.343,1.831,-212.83,-175.402,-4.466,89.324
 14:21:29.868,eb:33:2e:f9:57:b5, 2085-97-125 234:228:41:6002,-2.41,6.178,3.038,67.81,38.208,-197.144,-175.32,-4.631,90.352
 14:21:29.868,eb:33:2e:f9:57:b5, 2085-97-74 218:211:18:20129,-4.368,4.246,2.581,163.025,138.611,-169.983,-174.375,-5.691,92.032
 14:21:29.868,eb:33:2e:f9:57:b5, 2085-97-225 241:186:65:-16244,-6.918,0.935,2.222,716.309,295.898,392.395,-168.289,-5.823,92.609
 14:21:29.868,eb:33:2e:f9:57:b5, 2085-97-18 18:109:66:17828,4.175,-1.767,6.858,1215.698,-1301.086,5.554,-158.714,0.027,95.735
 14:21:29.870,eb:33:2e:f9:57:b5, 2085-97-190 46:69:214:15078,5.603,4.611,9.951,351.074,-546.448,-10.132,-150.013,12.162,100.613
 14:21:29.870,eb:33:2e:f9:57:b5, 2085-97-214 243:182:233:-12888,0.967,7.212,0.881,201.172,20.081,-236.023,-146.739,14.112,101.365
 14:21:29.870,eb:33:2e:f9:57:b5, 2085-97-194 01:104:226:11180,-0.973,0.134,-2.312,122.314,-701.233,-357.788,-144.937,14.65,104.711
 14:21:29.870,eb:33:2e:f9:57:b5, 2085-97-29 244:159:253:-9164,0.316,2.63,1.607,-67.871,1034.302,80.505,-144.871,11.349,102.931
 14:21:29.928,eb:33:2e:f9:57:b5, 2085-97-172 16:189:02:8733,0.92,-0.043,-0.465,65.063,-704.895,-78.308,-144.514,12.068,103.837
 14:21:29.928,eb:33:2e:f9:57:b5, 2085-97-243 07:149:07:8588,1.058,0.153,1.792,-5.615,361.267,-27.039,-144.196,12.036,104.447
 14:21:29.928,eb:33:2e:f9:57:b5, 2085-97-179 19:159:21:6355,2.338,2.938,3.839,303.467,634.583,101.196,-85.825,-8.273,90.494
 14:21:29.928,eb:33:2e:f9:57:b5, 2085-97-226 17:198:06:6742,2.099,1.034,4.111,344.055,155.701,-70.007,-82.255,-8.069,87.836
 14:21:29.987,eb:33:2e:f9:57:b5, 2085-97-117 18:218:03:2865,2.23,0.835,1.871,344.788,247.62,-182.739,-78.036,-8.855,84.655
 14:21:29.987,eb:33:2e:f9:57:b5, 2085-97-165 15:216:245:4766,1.622,-0.448,1.992,298.828,-52.429,-358.032,-74.564,-11.684,83.881
 14:21:29.988,eb:33:2e:f9:57:b5, 2085-97-148 10:168:237:4260,1.129,-1.809,2.126,194.153,38.452,-395.447,-71.746,-15.293,82.546
 14:21:29.988,eb:33:2e:f9:57:b5, 2085-97-228 07:43:233:5524,0.875,-2.682,2.367,107.361,-62.622,-396.118,-69.906,-19.204,81.568
 14:21:29.988,eb:33:2e:f9:57:b5, 2085-97-39 06:13:234:5954,0.662,-2.826,2.87,28.32,32.227,-334.045,-68.802,-22.709,80.436
 14:21:29.988,eb:33:2e:f9:57:b5, 2085-97-08 05:200:234:5551,0.665,-2.686,2.844,-12.39,131.226,-262.512,-67.758,-25.148,78.36
 14:21:29.989,eb:33:2e:f9:57:b5, 2085-97-233 05:09:235:4419,0.82,-2.633,2.463,-24.048,171.509,-195.618,-66.632,-26.669,75.723
 14:21:29.989,eb:33:2e:f9:57:b5, 2085-97-61 07:192:234:3472,1.036,-2.627,1.883,-43.274,177.734,-130.859,-65.599,-27.46,73.169
 14:21:30.018,eb:33:2e:f9:57:b5, 2085-97-73 09:199:234:2918,1.271,-2.678,1.553,-69.885,190.308,-64.941,-64.913,-27.62,70.768
 14:21:30.018,eb:33:2e:f9:57:b5, 2085-97-58 11:49:236:2630,1.586,-2.58,1.305,-85.022,191.711,-20.081,-64.512,-27.175,68.571
 14:21:30.018,eb:33:2e:f9:57:b5, 2085-97-69 14:14:236:3151,1.923,-2.422,1.405,-98.572,155.334,4.272,-64.479,-26.516,66.725
 14:21:30.018,eb:33:2e:f9:57:b5, 2085-97-159 15:195:232:1753,1.9,-2.684,1.384,-126.648,168.884,18.494,-64.792,-25.768,65.209
 14:21:30.078,eb:33:2e:f9:57:b5, 2085-97-149 14:136:231:-611,1.798,-3.054,0.13,-202.698,183.838,36.499,-65.533,-24.769,63.391
 14:21:30.078,eb:33:2e:f9:57:b5, 2085-97-03 15:77:235:705,2.045,-2.882,-0.172,-313.782,105.042,51.941,-67.544,-23.791,62.15
 14:21:30.078,eb:33:2e:f9:57:b5, 2085-97-166 17:182:240:2663,2.287,-2.256,0.924,-393.799,64.575,61.89,-70.895,-23,61.595
 14:21:30.078,eb:33:2e:f9:57:b5, 2085-97-205 18:45:247:2728,2.514,-1.525,1.391,-441.711,57.129,52.979,-74.888,-22.258,61.084
 14:21:30.078,eb:33:2e:f9:57:b5, 2085-97-248 21:90:253:2539,2.863,-0.684,1.269,-483.643,47.791,35.645,-79.349,-21.725,60.65
 14:21:30.078,eb:33:2e:f9:57:b5, 2085-97-119 22:29:01:1771,2.674,-0.072,1.14,-510.62,77.332,3.418,-84.073,-21.467,60.002
 14:21:30.078,eb:33:2e:f9:57:b5, 2085-97-115 20:32:03:831,2.5,0.303,0.557,-505.92,19.348,-35.034,-88.896,-21.61,59.343
 14:21:30.078,eb:33:2e:f9:57:b5, 2085-97-243 19:95:03:1500,2.377,0.427,0.489,-484.68,-128.235,-60.425,-94.158,-22.088,60.073
 14:21:30.557,eb:33:2e:f9:57:b5, 2085-97-175 16:180:00:2665,1.74,0.301,1.051,-468.628,-166.931,-47.119,-99.756,-22.423,61.974
 14:21:30.557,eb:33:2e:f9:57:b5, 2085-97-24 12:246:253:3247,1.409,-0.137,1.477,-427.124,-188.904,-3.418,-105.079,-22.258,63.814
 14:21:30.557,eb:33:2e:f9:57:b5, 2085-97-165 11:184:255:3547,1.527,-0.208,1.665,-354.309,-330.933,35.828,-110.143,-21.215,66.583
 14:21:30.557,eb:33:2e:f9:57:b5, 2085-97-233 11:73:01:4157,1.388,0.119,1.866,-318.726,-390.198,80.2,-114.868,-19.171,70.027
 14:21:30.559,eb:33:2e:f9:57:b5, 2085-97-114 10:48:00:4924,1.292,0.105,2.205,-317.566,-406.433,124.634,-119.246,-16.359,73.262
 14:21:30.559,eb:33:2e:f9:57:b5, 2085-97-107 10:212:00:6215,1.292,0.003,2.733,-319.58,-449.036,158.997,-123.398,-12.821,76.295
 14:21:30.559,eb:33:2e:f9:57:b5, 2085-97-01 10:188:05:7182,1.194,0.352,3.294,-330.627,-379.15,187.317,-127.277,-8.926,78.706
 14:21:30.559,eb:33:2e:f9:57:b5, 2085-97-219 08:40:12:8058,0.959,1.124,3.739,-337.83,-280.212,199.646,-130.88,-5.35,79.926
 14:21:30.561,eb:33:2e:f9:57:b5, 2085-97-37 06:235:17:7840,0.566,1.884,3.99,-308.044,-205.444,196.106,-134.182,-2.274,80.277
 14:21:30.561,eb:33:2e:f9:57:b5, 2085-97-88 03:17:23:6574,0.319,2.571,3.526,-243.774,-172.302,182.434,-136.917,0.341,80.14
 14:21:30.561,eb:33:2e:f9:57:b5, 2085-97-248 01:182:25:5754,0.19,3.115,2.971,-164.307,-196.899,160.889,-138.917,2.862,80.057
 14:21:30.561,eb:33:2e:f9:57:b5, 2085-97-11 01:129:26:5250,0.048,3.255,2.682,-82.642,-199.951,143.738,-140.114,5.361,80.151
 14:21:30.561,eb:33:2e:f9:57:b5, 2085-97-107 255:217:28:4791,-0.213,3.438,2.451,-5.188,-208.191,129.272,-140.493,7.789,80.354
 14:21:30.561,eb:33:2e:f9:57:b5, 2085-97-33 253:203:30:4747,-0.495,3.758,2.285,51.025,-254.517,119.141,-140.169,10.349,80.804
 14:21:30.561,eb:33:2e:f9:57:b5, 2085-97-15 251:01:32:4261,-0.802,3.911,2.304,75.317,-309.021,116.089,-139.362,13.326,81.738
 14:21:30.561,eb:33:2e:f9:57:b5, 2085-97-94 247:76:32:2903,-1.388,4.072,1.729,43.945,-338.318,133.728,-138.51,16.617,82.886
 14:21:30.565,eb:33:2e:f9:57:b5, 2085-97-42 243:02:32:2524,-1.692,3.963,1.252,-27.649,-335.083,152.893,-138.175,20.16,84.04
 14:21:30.565,eb:33:2e:f9:57:b5, 2085-97-141 242:57:37:2726,-1.627,4.229,1.301,-82.886,-214.355,147.888,-138.565,23.302,84.749
 14:21:30.565,eb:33:2e:f9:57:b5, 2085-97-156 243:236:44:1848,-1.464,5.169,1.196,-104.919,-1.77,105.164,-139.691,24.851,84.348
 14:21:30.565,eb:33:2e:f9:57:b5, 2085-97-72 245:149:47:086,-1.204,5.881,0.527,-70.19,87.402,22.278,-140.916,24.763,83.441
 14:21:30.567,eb:33:2e:f9:57:b5, 2085-97-224 246:40:45:-2324,-1.184,5.851,-0.563,-14.648,87.952,-52.673,-141.46,23.895,83.018
 14:21:30.567,eb:33:2e:f9:57:b5, 2085-97-232 09:106:18:12042,-0.134,5.366,-1.396,29.724,-16.602,-102.417,-141.207,23.093,83.458
 14:21:30.567,eb:33:2e:f9:57:b5, 2085-97-08 244:79:09:9001,-2.387,1.63,5.74,805.969,-252.869,-309.387,-93.691,4.79,84.194
 14:21:30.567,eb:33:2e:f9:57:b5, 2085-97-21 234:219:252:3290,-2.333,1.598,2.453,602.417,-191.345,-202.881,-86.754,2.62,85.765
 14:21:30.618,eb:33:2e:f9:57:b5, 2085-97-186 239:254:232:6892,-1.54,-1.667,2.064,299.255,-70.129,-117.249,-82.524,0.775,87.616
 14:21:30.618,eb:33:2e:f9:57:b5, 2085-97-06 02:128:20:5103,0.5,-1.66,4.837,416.565,542.175,106.812,-79.448,0.994,85.402
 14:21:30.618,eb:33:2e:f9:57:b5, 2085-97-168 10:212:20:6397,1.831,3.463,2.687,210.632,710.449,156.494,-75.948,3.906,77.8
 14:21:30.618,eb:33:2e:f9:57:b5, 2085-97-110 16:212:20:6219,2.321,2.17,3.884,353.271,296.814,25.024,-73.306,5.669,74.064
 14:21:30.676,eb:33:2e:f9:57:b5, 2085-97-253 17:88:23:3029,2.029,3.211,1.892,389.038,298.645,-65.796,-69.521,6.493,70.807
 14:21:30.676,eb:33:2e:f9:57:b5, 2085-97-105 15:92:18:4388,1.937,2.486,1.745,380.554,12.512,-202.698,-65.737,5.62,69.203
 14:21:30.676,eb:33:2e:f9:57:b5, 2085-97-108 15:124:15:6375,1.862,2.185,2.566,324.158,-61.279,-306.763,-62.205,3.087,68.412
 14:21:30.676,eb:33:2e:f9:57:b5, 2085-97-240 13:174:09:8370,1.626,1.587,3.685,260.376,-57.556,-370.178,-59.271,-0.275,67.456
 14:21:30.706,eb:33:2e:f9:57:b5, 2085-97-42 12:123:03:8997,1.417,0.832,4.289,223.083,-7.568,-387.512,-56.706,-3.702,65.726
 14:21:30.714,eb:33:2e:f9:57:b5, 2085-97-149 10:208:252:8929,1.243,-0.042,4.433,201.05,41.199,-369.08,-54.229,-6.817,63.572
 14:21:30.714,eb:33:2e:f9:57:b5, 2085-97-171 09:93:248:8357,1.226,-0.7,4.222,185.181,120.3,-313.904,-51.729,-9.086,60.831
 14:21:30.714,eb:33:2e:f9:57:b5, 2085-97-32 10:157:245:7791,1.312,-1.156,3.948,170.959,192.627,-236.389,-49.224,-10.239,57.892
 14:21:30.768,eb:33:2e:f9:57:b5, 2085-97-24 11:82:244:7190,1.497,-1.396,3.645,159.119,251.77,-151.367,-46.829,-10.179,54.827
 14:21:30.768,eb:33:2e:f9:57:b5, 2085-97-244 12:165:243:6837,1.769,-1.503,3.417,157.837,253.906,-83.374,-44.594,-9.25,52.202
 14:21:30.768,eb:33:2e:f9:57:b5, 2085-97-44 15:117:243:6390,2.058,-1.548,3.231,159.241,235.413,-35.583,-42.528,-7.905,50.037
 14:21:30.768,eb:33:2e:f9:57:b5, 2085-97-62 17:35:242:6083,2.168,-1.602,3.042,149.048,237.122,-2.991,-40.638,-6.312,48.395
 14:21:30.768,eb:33:2e:f9:57:b5, 2085-97-70 17:18:238:4515,2.153,-1.946,2.715,128.601,276.123,27.1,-38.99,-4.224,46.758
 14:21:30.768,eb:33:2e:f9:57:b5, 2085-97-196 16:245:231:783,2.024,-2.583,1.497,94.177,238.281,27.893,-37.667,-2.087,45.439
 14:21:30.768,eb:33:2e:f9:57:b5, 2085-97-43 16:224:224:-3078,2.087,-3.513,-0.856,-49.622,260.376,48.889,-37.288,0.082,44.176
 14:21:30.769,eb:33:2e:f9:57:b5, 2085-97-60 17:100:228:-768,2.238,-3.862,-1.178,-208.13,98.694,38.086,-38.699,1.901,43.451
 14:21:30.856,eb:33:2e:f9:57:b5, 2085-97-158 17:236:233:536,2.006,-2.976,0.206,-307.8,15.686,3.357,-41.314,2.203,43.407
 14:21:30.856,eb:33:2e:f9:57:b5, 2085-97-231 14:204:234:-1365,1.845,-2.738,-0.138,-411.133,68.054,-15.991,-44.956,2.532,43.083
 14:21:30.856,eb:33:2e:f9:57:b5, 2085-113-58 00:123:238:-6465,1.939,-2.468,-0.923,-501.587,-39.673,-53.284,-49.559,2.39,42.715
 14:21:30.858,eb:33:2e:f9:57:b5, 2085-97-233 15:120:239:-905,1.965,-2.246,-0.774,-546.509,-91.187,-69.702,-52.202,1.912,42.808
 14:21:30.858,eb:33:2e:f9:57:b5, 2085-97-223 14:125:241:306,1.739,-1.936,-0.09,-632.446,-96.924,-83.252,-58.167,0.676,43.231
 14:21:30.858,eb:33:2e:f9:57:b5, 2085-97-52 13:138:243:952,1.648,-1.684,0.271,-702.148,-102.417,-81.787,-64.924,-0.467,43.654
 14:21:30.858,eb:33:2e:f9:57:b5, 2085-97-25 13:192:245:2461,1.662,-1.421,0.819,-752.869,-160.767,-68.115,-72.328,-1.664,44.709
 14:21:30.858,eb:33:2e:f9:57:b5, 2085-97-32 13:212:253:5176,1.755,-0.87,1.756,-787.537,-138.489,-42.847,-80.222,-2.516,46.104
 14:21:30.858,eb:33:2e:f9:57:b5, 2085-97-27 13:35:04:6123,1.44,0.337,2.93,-783.081,-85.51,-28.015,-88.22,-2.95,47.098
 14:21:30.917,eb:33:2e:f9:57:b5, 2085-97-85 10:172:02:5484,1.245,0.452,2.825,-716.431,-188.416,-22.4,-95.894,-3.087,48.367
 14:21:30.917,eb:33:2e:f9:57:b5, 2085-97-249 09:159:02:5451,1.186,0.312,2.635,-631.531,-337.585,-7.019,-102.909,-2.73,51.196
 14:21:30.917,eb:33:2e:f9:57:b5, 2085-97-179 08:81:01:5652,1.043,0.285,2.709,-581.238,-355.774,46.387,-109.286,-1.483,54.487
 14:21:30.917,eb:33:2e:f9:57:b5, 2085-97-186 08:176:255:6230,1.196,0.041,2.856,-539.124,-416.565,104.858,-115.12,0.764,57.706
 14:21:31.278,eb:33:2e:f9:57:b5, 2085-97-105 10:125:255:7022,1.391,-0.063,3.268,-508.667,-441.162,175.354,-120.421,4.131,60.853
 14:21:31.278,eb:33:2e:f9:57:b5, 2085-97-211 11:188:00:7319,1.567,-0.021,3.52,-494.751,-385.315,250.916,-125.343,8.251,63.062
 14:21:31.278,eb:33:2e:f9:57:b5, 2085-97-03 13:179:04:7106,1.664,0.289,3.566,-482.483,-327.576,302.551,-130.133,12.645,64.028
 14:21:31.278,eb:33:2e:f9:57:b5, 2085-97-201 12:103:11:6429,1.524,1.017,3.335,-458.618,-296.021,323.914,-134.835,17.056,64.067
 14:21:31.278,eb:33:2e:f9:57:b5, 2085-97-134 11:224:17:6053,1.386,1.866,2.984,-412.781,-326.599,319.763,-139.307,21.462,63.622
 14:21:31.278,eb:33:2e:f9:57:b5, 2085-97-186 10:15:21:6908,1.27,2.494,3.09,-348.083,-506.042,290.833,-143.02,26.664,63.781
 14:21:31.278,eb:33:2e:f9:57:b5, 2085-97-133 09:128:22:8294,1.092,2.709,3.706,-298.218,-594.604,278.992,-145.767,32.97,64.775
 14:21:31.278,eb:33:2e:f9:57:b5, 2085-97-15 08:250:25:9813,0.92,2.983,4.412,-279.175,-544.617,283.264,-148.228,39.32,65.528
 14:21:31.517,eb:33:2e:f9:57:b5, 2085-97-190 06:157:31:11000,0.764,3.582,5.147,-277.588,-440.552,284.912,-151.073,45,65.418
 14:21:31.517,eb:33:2e:f9:57:b5, 2085-97-120 05:95:37:10625,0.559,4.299,5.396,-288.574,-291.382,272.095,-154.764,49.488,64.166
 14:21:31.517,eb:33:2e:f9:57:b5, 2085-97-30 03:248:44:8948,0.129,5.107,4.809,-303.528,-123.413,234.619,-159.521,52.339,61.683
 14:21:31.517,eb:33:2e:f9:57:b5, 2085-97-68 255:56:55:6519,-0.255,6.305,3.764,-279.297,-31.372,140.564,-164.344,53.547,59.222
 14:21:31.520,eb:33:2e:f9:57:b5, 2085-97-71 253:51:61:4079,-0.351,7.404,2.575,-210.022,-41.138,8.667,-167.525,54.036,58.195
 14:21:31.520,eb:33:2e:f9:57:b5, 2085-97-88 253:191:56:3025,-0.353,7.509,1.547,-147.644,-117.737,-133.85,-168.228,54.712,59.529
 14:21:31.520,eb:33:2e:f9:57:b5, 2085-97-58 252:106:48:3380,-0.696,6.582,1.612,-127.258,-92.041,-229.004,-166.882,55.58,62.919
 14:21:31.520,eb:33:2e:f9:57:b5, 2085-97-48 248:138:41:3249,-1.282,5.589,1.567,-120.544,38.513,-253.784,-165.086,55.162,66.819
 14:21:31.522,eb:33:2e:f9:57:b5, 2085-97-95 243:145:35:4201,-1.802,4.825,1.791,-67.505,41.138,-239.136,-163.982,54.152,69.598
 14:21:31.522,eb:33:2e:f9:57:b5, 2085-97-190 240:218:27:4884,-1.892,4.005,2.265,34.363,23.071,-190.43,-161.801,53.267,72.647
 14:21:31.522,eb:33:2e:f9:57:b5, 2085-97-26 241:167:17:4148,-1.935,2.899,2.313,156.921,78.247,-127.441,-158.846,52.619,75.092
 14:21:31.522,eb:33:2e:f9:57:b5, 2085-97-204 247:86:16:19093,-5.392,1.355,1.574,280.09,122.009,-54.932,-156.198,51.24,75.646
 14:21:31.526,eb:33:2e:f9:57:b5, 2085-97-190 206:67:21:1594,1.532,-1.144,10.056,830.872,371.46,341.003,-147.81,52.086,77.943
 14:21:31.526,eb:33:2e:f9:57:b5, 2085-97-169 13:218:244:5557,1.814,-1.185,2.562,607.666,316.101,-153.198,-103.892,55.294,91.143
 14:21:31.526,eb:33:2e:f9:57:b5, 2085-97-45 11:205:254:5219,0.896,-1.15,2.619,689.575,419.983,-153.381,-100.915,52.943,86.534
 14:21:31.526,eb:33:2e:f9:57:b5, 2085-97-70 07:209:17:8595,0.631,1.946,3.06,835.632,284.607,-164.124,-97.427,50.828,81.079
 14:21:31.526,eb:33:2e:f9:57:b5, 2085-97-155 05:55:26:9295,-0.697,3.271,4.678,980.469,22.339,-113.342,-89.615,49.274,79.14
 14:21:31.526,eb:33:2e:f9:57:b5, 2085-97-40 248:107:20:10433,-0.944,2.384,5.471,979.187,-347.534,-188.232,-77.097,47.296,82.678
 14:21:31.526,eb:33:2e:f9:57:b5, 2085-97-136 238:191:248:7522,-2.652,0.438,4.132,809.875,-322.449,-100.281,-65.808,44.973,86.331
 14:21:31.526,eb:33:2e:f9:57:b5, 2085-97-192 243:222:240:4909,-1.555,-0.421,1.653,613.281,-6.47,26.733,-57.969,44.742,87.545
 14:21:31.529,eb:33:2e:f9:57:b5, 2085-97-254 06:101:09:7120,2.843,-2.43,5.256,583.618,147.888,65.674,-51.949,44.703,88.566
 14:21:31.529,eb:33:2e:f9:57:b5, 2085-97-38 20:61:225:-5078,2.347,-3.061,-0.93,-72.266,336.06,-16.907,-53.817,40.111,32.822
 14:21:31.529,eb:33:2e:f9:57:b5, 2085-97-17 18:217:223:-5337,2.284,-4.221,-3.191,-233.154,137.39,-18.494,-57.222,41.545,29.85
 14:21:31.529,eb:33:2e:f9:57:b5, 2085-97-157 18:57:228:396,2.2,-3.636,-0.99,-331.482,-371.521,-95.459,-59.271,40.166,31.234
 14:21:32.059,eb:33:2e:f9:57:b5, 2085-113-58 00:12:244:-5835,1.912,-3.378,0.692,-445.251,-193.604,-57.434,-61.545,37.985,34.195
 14:21:32.059,eb:33:2e:f9:57:b5, 2085-97-183 13:222:232:342,1.669,-3.193,0.441,-496.216,-112.915,-40.222,-63.589,37.474,34.816
 14:21:32.059,eb:33:2e:f9:57:b5, 2085-97-158 13:66:238:560,1.707,-2.529,0.104,-572.51,-152.527,-36.194,-68.346,36.667,35.997
 14:21:32.059,eb:33:2e:f9:57:b5, 2085-97-230 12:76:241:1437,1.412,-2,0.549,-635.62,-163.94,-28.32,-73.449,35.826,37.908
 14:21:32.061,eb:33:2e:f9:57:b5, 2085-97-230 08:23:242:1780,0.866,-1.741,0.741,-687.073,-133.911,-5.737,-79.272,35.354,39.496
 14:21:32.061,eb:33:2e:f9:57:b5, 2085-97-76 08:142:245:3048,1.456,-1.666,1.091,-709.29,-173.34,26.428,-85.435,35.354,41.281
 14:21:32.061,eb:33:2e:f9:57:b5, 2085-97-13 13:25:253:6356,1.44,-0.736,2.285,-681.763,-396.79,16.479,-90.505,35.524,44.863
 14:21:32.061,eb:33:2e:f9:57:b5, 2085-97-169 08:40:253:6423,0.8,-0.274,3.401,-676.575,-235.291,76.355,-95.328,36.233,48.713
 14:21:32.063,eb:33:2e:f9:57:b5, 2085-97-16 06:138:251:5808,0.871,-0.47,2.829,-619.995,-341.003,93.933,-100.228,37.535,51.636
 14:21:32.063,eb:33:2e:f9:57:b5, 2085-97-249 07:64:251:7135,1.032,-0.606,3.143,-566.223,-487.488,138.123,-103.321,39.655,56.635
 14:21:32.063,eb:33:2e:f9:57:b5, 2085-97-230 07:112:252:7383,0.983,-0.539,3.654,-542.969,-405.579,220.886,-105.925,42.643,61.469
 14:21:32.063,eb:33:2e:f9:57:b5, 2085-97-99 08:40:254:7123,1.171,-0.332,3.487,-533.813,-352.6,285.706,-109.061,46.285,65.001
 14:21:32.088,eb:33:2e:f9:57:b5, 2085-97-07 10:25:01:7368,1.343,-0.075,3.542,-526.855,-327.576,330.872,-112.374,50.46,67.846
 14:21:32.088,eb:33:2e:f9:57:b5, 2085-97-203 10:178:06:7105,1.333,0.444,3.524,-515.137,-260.437,357.056,-116.378,54.849,69.532
 14:21:32.088,eb:33:2e:f9:57:b5, 2085-97-53 10:118:14:6954,1.187,1.314,3.429,-494.324,-262.207,349.304,-120.833,59.205,70.28
 14:21:32.088,eb:33:2e:f9:57:b5, 2085-97-180 08:03:20:6872,1.004,2.212,3.373,-467.468,-309.875,318.604,-124.827,63.594,71.268
 14:21:32.176,eb:33:2e:f9:57:b5, 2085-97-174 07:59:22:7476,0.929,2.667,3.397,-434.753,-393.921,276.611,-127.507,68.077,73.339
 14:21:32.176,eb:33:2e:f9:57:b5, 2085-97-219 248:52:249:5391,0.117,2.874,4.022,-402.588,-464.294,238.098,-127.249,72.85,78.162
 14:21:32.176,eb:33:2e:f9:57:b5, 2085-97-08 03:153:41:2391,0.52,5.647,2.353,575.989,899.17,307.8,18.045,73.597,148.123
 14:21:32.176,eb:33:2e:f9:57:b5, 2085-97-72 14:233:26:3927,2.255,3.045,1.492,491.76,122.986,255.188,39.238,77.278,165.663
 14:21:32.179,eb:33:2e:f9:57:b5, 2085-97-129 19:209:38:4498,2.205,4.066,2.404,527.222,-78.43,52.734,44.973,75.564,166.014
 14:21:32.179,eb:33:2e:f9:57:b5, 2085-97-91 15:68:40:2869,1.898,5.14,1.562,430.298,122.681,-62.012,52.383,76.339,169.003
 14:21:32.179,eb:33:2e:f9:57:b5, 2085-97-48 17:136:31:7723,2.325,4.585,2.251,402.893,-412.231,-314.087,48.005,76.718,160.06
 14:21:32.179,eb:33:2e:f9:57:b5, 2085-97-230 17:100:20:12311,1.956,3.211,5.229,327.942,-364.624,-434.082,33.322,75.828,140.922
 14:21:32.208,eb:33:2e:f9:57:b5, 2085-97-146 13:245:10:12406,1.607,1.957,6.15,294.128,-146.606,-465.027,21.066,75.844,124.827
 14:21:32.208,eb:33:2e:f9:57:b5, 2085-97-206 12:43:01:12268,1.505,0.746,6.013,300.476,-160.95,-479.126,8.948,75.46,109.034
 14:21:32.208,eb:33:2e:f9:57:b5, 2085-97-107 10:181:249:10691,1.085,-0.379,5.742,275.635,3.601,-425.293,-1.555,74.789,94.856
 14:21:32.208,eb:33:2e:f9:57:b5, 2085-97-194 07:11:245:8507,0.979,-1.105,4.608,229.553,145.386,-332.031,-10.168,75.289,83.205
 14:21:32.237,eb:33:2e:f9:57:b5, 2085-97-120 08:134:242:7815,1.135,-1.577,3.924,174.805,164.734,-227.6,-17.402,76.097,73.477
 14:21:32.237,eb:33:2e:f9:57:b5, 2085-97-225 09:187:242:7495,1.411,-1.697,3.716,117.432,203.308,-126.465,-23.192,77.217,66.033
 14:21:32.237,eb:33:2e:f9:57:b5, 2085-97-41 13:156:242:7814,1.91,-1.649,3.729,73.12,191.101,-63.232,-28.103,78.591,59.969
 14:21:32.237,eb:33:2e:f9:57:b5, 2085-97-125 17:215:241:7717,2.346,-1.71,3.829,43.213,198.73,-29.968,-32.734,80.019,54.734
 14:21:32.297,eb:33:2e:f9:57:b5, 2085-97-26 19:15:237:6749,2.412,-1.946,3.646,15.808,242.065,-15.259,-38.683,81.601,48.329
 14:21:32.297,eb:33:2e:f9:57:b5, 2085-97-67 18:141:228:1822,2.083,-2.792,2.322,-15.564,318.42,-6.042,-49.136,83.622,37.798
 14:21:32.297,eb:33:2e:f9:57:b5, 2085-97-74 15:146:216:-5150,1.906,-4.133,-0.923,-121.887,339.539,6.897,-66.808,85.331,20.511
 14:21:32.297,eb:33:2e:f9:57:b5, 2085-97-208 15:144:215:-4069,2.048,-5.351,-2.859,-318.115,117.432,19.47,-86.6,86.138,3.01
 14:21:32.297,eb:33:2e:f9:57:b5, 2085-113-58 00:68:248:-5910,2.136,-4.577,-0.55,-414.612,-330.505,-48.462,-78.783,85.748,14.672
 14:21:32.299,eb:33:2e:f9:57:b5, 2085-97-31 17:142:223:1682,1.951,-4.261,0.562,-475.22,-275.146,-34.363,-71.202,85.172,24.73
 14:21:32.299,eb:33:2e:f9:57:b5, 2085-97-99 14:142:227:-536,1.759,-3.856,0.335,-601.135,-13.123,-1.404,-70.417,84.699,31.08
 14:21:32.299,eb:33:2e:f9:57:b5, 2085-97-235 13:04:232:-454,1.712,-3.242,-0.464,-678.955,-119.202,-35.522,-74.103,84.402,34.008
 14:21:32.299,eb:33:2e:f9:57:b5, 2085-97-55 13:38:235:1254,1.53,-2.796,0.229,-739.929,-199.829,-51.636,-72.219,83.452,43.165
 14:21:32.357,eb:33:2e:f9:57:b5, 2085-97-187 10:110:236:2336,1.1,-2.487,0.858,-790.1,-185.364,-43.213,-71.428,82.452,51.905
 14:21:32.357,eb:33:2e:f9:57:b5, 2085-97-145 10:158:241:4779,1.703,-2.33,1.615,-806.335,-218.201,-26.184,-70.928,81.513,60.628
 14:21:32.357,eb:33:2e:f9:57:b5, 2085-97-166 13:58:251:8521,1.366,-1.048,3.393,-750.244,-394.409,-55.054,-66.484,80.008,73.257
 14:21:32.357,eb:33:2e:f9:57:b5, 2085-97-09 08:252:250:7554,0.873,-0.517,4.222,-699.768,-259.094,-10.681,-63.149,78.409,84.21
 14:21:32.806,eb:33:2e:f9:57:b5, 2085-97-86 07:109:249:6517,0.981,-0.726,3.229,-621.521,-435.852,-3.906,-59.524,76.805,94.889
 14:21:32.806,eb:33:2e:f9:57:b5, 2085-97-89 07:146:248:7281,0.762,-0.884,3.382,-595.947,-462.341,51.331,-53.086,74.399,108.023
 14:21:32.806,eb:33:2e:f9:57:b5, 2085-97-40 05:30:248:7367,0.655,-0.962,3.59,-595.703,-355.408,134.277,-49.125,72.762,118.685
 14:21:32.806,eb:33:2e:f9:57:b5, 2085-97-160 06:11:249:7645,0.991,-0.968,3.627,-578.674,-395.142,200.5,-45.253,71.592,129.194
 14:21:32.808,eb:33:2e:f9:57:b5, 2085-97-239 08:76:252:7680,1.2,-0.71,3.792,-561.523,-376.953,259.583,-40.49,70.34,140.598
 14:21:32.808,eb:33:2e:f9:57:b5, 2085-97-245 09:178:03:7956,1.265,-0.015,3.767,-548.95,-317.078,292.542,-36.403,69.549,151.161
 14:21:32.808,eb:33:2e:f9:57:b5, 2085-97-231 09:236:11:8395,1.157,0.987,4.004,-528.381,-326.904,284.973,-32.662,68.621,161.263
 14:21:32.808,eb:33:2e:f9:57:b5, 2085-97-86 08:249:17:8381,0.927,1.923,4.122,-502.747,-317.261,264.221,-29.531,67.368,170.464
 14:21:32.810,eb:33:2e:f9:57:b5, 2085-97-235 06:191:20:8815,0.836,2.46,4.132,-471.008,-359.497,228.088,-27.103,65.654,178.715
 14:21:32.810,eb:33:2e:f9:57:b5, 2085-97-100 06:45:23:9994,0.723,2.707,4.598,-439.514,-360.962,197.632,-25.323,63.303,-174.029
 14:21:32.810,eb:33:2e:f9:57:b5, 2085-97-19 05:12:29:10594,0.563,3.213,5.057,-425.903,-242.188,184.021,-24.73,61.463,-168.25
 14:21:32.810,eb:33:2e:f9:57:b5, 2085-97-05 04:36:36:10694,0.446,4.09,5.234,-422.485,-143.738,160.461,-25.345,60.557,-163.927
 14:21:32.812,eb:33:2e:f9:57:b5, 2085-97-251 02:122:40:9947,0.29,4.841,5.097,-418.152,-90.82,129.089,-26.889,60.249,-160.697
 14:21:32.812,eb:33:2e:f9:57:b5, 2085-97-98 01:124:44:9022,-0.045,5.272,4.59,-399.17,-107.178,88.623,-28.889,59.93,-158.17
 14:21:32.812,eb:33:2e:f9:57:b5, 2085-97-181 252:18:52:8149,-0.839,5.976,4.258,-339.233,-102.478,43.091,-30.948,59.288,-156.154
 14:21:32.812,eb:33:2e:f9:57:b5, 2085-97-140 246:159:60:5453,-1.313,7.115,3.393,-219.604,-49.744,-13.428,-33.041,58.832,-155.319
 14:21:32.817,eb:33:2e:f9:57:b5, 2085-97-73 246:48:59:4490,-1.1,7.675,2.195,-86.121,-222.29,-109.009,-34.173,57.382,-154.918
 14:21:32.817,eb:33:2e:f9:57:b5, 2085-97-120 247:95:52:5290,-1.184,6.968,2.457,-8.24,-248.413,-177.124,-34.146,54.355,-154.424
 14:21:32.817,eb:33:2e:f9:57:b5, 2085-97-99 244:127:46:4960,-1.724,6.184,2.521,7.019,-78.003,-201.721,-34.887,51.965,-155.407
 14:21:32.817,eb:33:2e:f9:57:b5, 2085-97-246 219:69:32:21303,-5.061,5.377,2.367,188.538,-57.007,-267.822,-36.2,50.537,-157.72
 14:21:32.868,eb:33:2e:f9:57:b5, 2085-97-106 245:191:55:118,-1.426,4.667,10.471,538.391,1150.818,6.348,-34.343,50.29,-162.076
 14:21:32.869,eb:33:2e:f9:57:b5, 2085-97-207 251:242:24:6825,0.559,4.06,3.172,341.003,651.001,256.836,59.255,31.646,-167.393
 14:21:32.869,eb:33:2e:f9:57:b5, 2085-97-197 13:232:21:9435,2.396,2.2,4.428,445.374,194.092,131.165,65.341,32.02,-162.268
 14:21:32.869,eb:33:2e:f9:57:b5, 2085-97-171 19:191:34:5507,2.263,3.81,3.978,455.75,504.639,77.332,71.757,32.322,-158.593
 14:21:32.869,eb:33:2e:f9:57:b5, 2085-113-58 00:224:242:-8445,2.188,4.512,1.716,461.914,302.307,-75.256,78.821,33.547,-153.138
 14:21:32.869,eb:33:2e:f9:57:b5, 2085-97-31 19:198:33:4027,2.609,4.469,1.482,475.403,30.029,-201.843,81.469,34.42,-152.562
 14:21:32.869,eb:33:2e:f9:57:b5, 2085-97-149 20:26:26:7983,2.371,3.821,2.874,429.81,-169.983,-385.437,85.067,37.359,-154.396
 14:21:32.869,eb:33:2e:f9:57:b5, 2085-97-160 17:46:17:10672,2.072,2.71,4.686,370.728,-138.611,-484.192,87.643,41.66,-156.616
 14:21:32.898,eb:33:2e:f9:57:b5, 2085-97-139 15:142:06:11614,1.783,1.514,5.569,339.172,-168.274,-530.334,89.67,46.736,-158.945
 14:21:32.898,eb:33:2e:f9:57:b5, 2085-97-215 12:187:252:10677,1.482,0.149,5.492,301.819,-78.613,-500.977,91.511,51.927,-160.719
 14:21:32.898,eb:33:2e:f9:57:b5, 2085-97-54 11:80:247:9990,1.33,-0.807,4.982,262.634,10.742,-425.171,94.164,56.541,-160.928
 14:21:32.898,eb:33:2e:f9:57:b5, 2085-97-19 10:112:245:9410,1.204,-1.253,4.78,215.881,157.043,-315.247,98.108,60.123,-158.868
 14:21:32.988,eb:33:2e:f9:57:b5, 2085-97-133 09:143:245:8539,1.243,-1.319,4.347,175.049,286.194,-191.284,104.37,62.117,-153.71
 14:21:32.988,eb:33:2e:f9:57:b5, 2085-97-18 11:132:244:8274,1.542,-1.34,4.095,156.372,278.503,-94.482,111.061,62.606,-147.629
 14:21:32.988,eb:33:2e:f9:57:b5, 2085-97-204 13:36:243:7824,1.939,-1.516,3.945,151.245,265.869,-10.01,116.922,61.952,-142.531
 14:21:32.988,eb:33:2e:f9:57:b5, 2085-97-73 17:62:241:7647,2.414,-1.724,3.736,168.274,184.631,16.479,121.558,60.787,-138.757
 14:21:32.990,eb:33:2e:f9:57:b5, 2085-97-09 21:158:241:7420,2.669,-1.87,3.731,195.435,100.586,6.714,124.975,60.013,-136.884
 14:21:32.990,eb:33:2e:f9:57:b5, 2085-97-223 22:139:241:5361,3.029,-1.771,3.404,156.494,203.918,24.475,128.293,59.09,-134.896
 14:21:32.990,eb:33:2e:f9:57:b5, 2085-97-116 24:146:235:643,2.779,-2.119,1.65,66.895,294.495,22.217,132.045,57.173,-131.622
 14:21:32.990,eb:33:2e:f9:57:b5, 2085-97-178 19:78:214:-5375,2.353,-3.69,-1.295,-91.003,384.277,-13.55,135.038,54.932,-127.518
 14:21:33.077,eb:33:2e:f9:57:b5, 2085-97-216 15:15:212:-5808,1.942,-5.747,-3.288,-226.44,120.605,-34.546,136.005,52.899,-123.953
 14:21:33.077,eb:33:2e:f9:57:b5, 2085-97-139 16:19:213:-871,2.074,-5.179,-1.717,-323.486,-443.542,-100.952,131.902,54.904,-125.557
 14:21:33.077,eb:33:2e:f9:57:b5, 2085-97-178 15:15:214:1541,1.785,-5.561,0.495,-462.158,-343.872,-44.739,123.904,58.25,-130.633
 14:21:33.077,eb:33:2e:f9:57:b5, 2085-97-253 13:55:225:1559,1.792,-4.562,0.672,-614.319,-137.085,20.142,115.983,59.238,-133.484
 14:21:33.196,eb:33:2e:f9:57:b5, 2085-97-165 14:28:233:2577,1.794,-3.31,1.044,-726.99,-159.79,31.372,106.979,59.529,-136.176
 14:21:33.196,eb:33:2e:f9:57:b5, 2085-97-163 13:191:237:2724,1.603,-2.503,1.333,-812.866,-99.121,45.349,97.284,59.387,-138.384
 14:21:33.196,eb:33:2e:f9:57:b5, 2085-97-142 12:07:240:3538,1.374,-2.196,1.388,-854.004,-176.208,31.982,87.039,59.008,-140.63
 14:21:33.196,eb:33:2e:f9:57:b5, 2085-97-55 12:118:249:7465,1.466,-1.689,2.638,-848.755,-233.276,25.452,75.427,58.359,-144.245
 14:21:33.199,eb:33:2e:f9:57:b5, 2085-97-114 09:44:254:9077,1.003,-0.324,4.281,-782.959,-331.665,14.771,63.71,57.167,-148.645
 14:21:33.199,eb:33:2e:f9:57:b5, 2085-97-65 08:175:251:8060,1.26,-0.37,4.173,-664.856,-507.69,12.207,52.185,54.75,-154.045
 14:21:33.199,eb:33:2e:f9:57:b5, 2085-97-144 11:44:252:8541,1.426,-0.55,3.906,-597.839,-614.319,41.077,41.369,50.4,-160.197
 14:21:33.199,eb:33:2e:f9:57:b5, 2085-97-234 09:60:253:8853,1.119,-0.392,4.381,-620.117,-401.855,107.117,32.932,45.807,-163.521
 14:21:33.202,eb:33:2e:f9:57:b5, 2085-97-201 08:110:253:8636,1.12,-0.343,4.257,-648.438,-331.421,146.79,26.136,42.149,-164.169
 14:21:33.203,eb:33:2e:f9:57:b5, 2085-97-32 09:123:255:8469,1.116,-0.242,4.171,-666.504,-327.637,182.373,19.753,38.436,-163.74
 14:21:33.203,eb:33:2e:f9:57:b5, 2085-97-207 08:104:03:8694,1.104,0.155,4.139,-677.49,-312.317,215.576,13.711,34.882,-162.438
 14:21:33.203,eb:33:2e:f9:57:b5, 2085-97-143 08:228:07:9436,0.958,0.702,4.445,-657.288,-365.295,230.591,7.916,31.135,-160.505
 14:21:33.207,eb:33:2e:f9:57:b5, 2085-97-136 06:21:13:9057,0.656,1.291,4.609,-613.647,-323.425,254.639,2.593,27.466,-158.104
 14:21:33.207,eb:33:2e:f9:57:b5, 2085-97-37 04:63:18:8233,0.432,1.976,4.192,-547.791,-308.35,260.986,-2.137,24.456,-155.204
 14:21:33.207,eb:33:2e:f9:57:b5, 2085-97-71 03:170:21:8753,0.418,2.507,4.026,-465.637,-387.817,249.634,-6.191,21.242,-152.166
 14:21:33.207,eb:33:2e:f9:57:b5, 2085-97-103 03:173:25:10949,0.427,2.937,4.756,-387.329,-479.797,241.211,-9.564,17.254,-148.909
 14:21:33.470,eb:33:2e:f9:57:b5, 2085-97-175 03:108:31:12988,0.543,3.53,5.901,-344.482,-448.059,252.075,-12.486,13.134,-145.437
 14:21:33.470,eb:33:2e:f9:57:b5, 2085-97-151 04:195:40:13277,0.446,4.457,6.574,-344.238,-296.387,252.197,-15.463,10.184,-141.96
 14:21:33.470,eb:33:2e:f9:57:b5, 2085-97-132 01:201:52:11330,-0.128,5.838,6.109,-351.013,-38.391,227.6,-18.682,9.465,-139.175
 14:21:33.470,eb:33:2e:f9:57:b5, 2085-97-42 252:96:62:8455,-0.836,7.286,4.838,-308.289,32.776,142.883,-21.852,10.377,-137.51
 14:21:33.473,eb:33:2e:f9:57:b5, 2085-97-08 247:130:64:6511,-1.268,8.033,3.542,-216.614,-103.516,17.944,-24.351,10.36,-136.675
 14:21:33.473,eb:33:2e:f9:57:b5, 2085-97-183 245:09:62:5706,-1.218,7.975,2.988,-131.409,-173.645,-83.984,-25.994,8.773,-136.335
 14:21:33.473,eb:33:2e:f9:57:b5, 2085-97-139 247:217:57:4805,-0.981,7.458,2.59,-73.669,-97.961,-156.555,-26.993,6.954,-136.802
 14:21:33.474,eb:33:2e:f9:57:b5, 2085-97-50 247:91:53:3400,-1.427,7.008,2.049,-41.443,55.908,-207.947,-27.614,5.9,-138.351
 14:21:33.474,eb:33:2e:f9:57:b5, 2085-97-100 242:97:41:2541,-1.864,5.995,1.31,52.246,91.797,-223.694,-27.691,5.702,-140.762
 14:21:33.474,eb:33:2e:f9:57:b5, 2085-97-102 254:92:41:18163,-0.765,4.198,1.307,197.083,-24.658,-186.89,-26.444,4.96,-142.707
 14:21:33.474,eb:33:2e:f9:57:b5, 2085-97-111 231:130:06:8617,-2.902,5.149,8.133,690.308,654.114,-217.712,-20.451,2.313,-144.959
 14:21:33.474,eb:33:2e:f9:57:b5, 2085-97-12 59:136:20:12402,11.973,11.199,-2.612,371.46,-1258.972,-160.95,-13.293,3.51,-144.3
 14:21:33.498,eb:33:2e:f9:57:b5, 2085-97-174 40:123:08:8414,-3.951,3.807,11.784,193.237,-1020.508,-247.375,-11.739,-4.818,-143.992
 14:21:33.498,eb:33:2e:f9:57:b5, 2085-97-163 228:134:01:-16148,1.765,2.287,-9.571,187.012,-624.695,-308.35,-8.833,-17.007,-144.02
 14:21:33.498,eb:33:2e:f9:57:b5, 2085-97-171 16:80:26:15221,1.384,-1.131,-0.838,224.304,-1830.017,-358.215,-5.834,-32.805,-145.97
 14:21:33.498,eb:33:2e:f9:57:b5, 2085-97-102 08:73:03:3838,0.207,-1.444,4.553,-41.077,415.588,79.346,-5.587,-38.15,-145.338
 14:21:33.500,eb:33:2e:f9:57:b5, 2085-97-254 253:120:00:-319,-0.248,0.564,-0.834,-42.053,354.858,55.908,-6.125,-31.811,-144.998
 14:21:33.500,eb:33:2e:f9:57:b5, 2085-97-88 05:73:00:2615,0.791,0.025,0.331,24.719,-220.093,-29.907,-5.795,-32.415,-145.201
 14:21:33.500,eb:33:2e:f9:57:b5, 2085-97-156 01:221:253:3999,-0.244,0.047,2.118,34.973,-2.686,-23.865,-5.312,-34.211,-145.388
 14:21:33.500,eb:33:2e:f9:57:b5, 2085-97-213 254:50:00:606,0.081,-0.245,1.079,0.732,362.305,60.974,-5.24,-31.437,-145.393
 14:21:33.588,eb:33:2e:f9:57:b5, 2085-97-106 01:187:254:3078,-0.04,0.07,0.635,41.016,-57.983,4.272,-5.131,-30.13,-145.162
 14:21:33.589,eb:33:2e:f9:57:b5, 2085-97-09 00:80:19:11309,-0.623,-0.541,2.586,48.279,147.949,51.392,-4.818,-30.114,-144.959
 14:21:33.589,eb:33:2e:f9:57:b5, 2085-97-120 248:87:17:11442,-1.573,2.46,5.139,958.801,-259.949,-212.341,48.406,-17.287,-150.178
 14:21:33.589,eb:33:2e:f9:57:b5, 2085-97-156 239:59:11:7085,-1.995,1.642,5.002,882.324,-117.981,-152.588,58.799,-16.968,-153.193
 14:21:33.589,eb:33:2e:f9:57:b5, 2085-97-161 244:70:244:3235,-1.524,0.3,2.314,642.029,39.185,-30.029,66.583,-16.342,-153.77
 14:21:33.589,eb:33:2e:f9:57:b5, 2085-113-81 00:165:218:085,-0.819,-2.695,2.509,518.555,290.649,75.317,71.367,-16.133,-152.1
 14:21:33.589,eb:33:2e:f9:57:b5, 2085-97-100 07:203:49:3074,0.659,-0.533,1.603,720.215,664.673,270.935,73.597,-16.249,-149.139
 14:21:33.589,eb:33:2e:f9:57:b5, 2085-97-232 05:46:24:4604,1.678,5.453,1.592,392.151,582.581,276.917,75.981,-16.82,-140.718
 14:21:33.589,eb:33:2e:f9:57:b5, 2085-97-233 16:204:30:5021,2.372,3.052,2.528,537.231,-25.33,137.207,79.849,-18.314,-138.334
 14:21:33.592,eb:33:2e:f9:57:b5, 2085-97-112 17:131:41:3990,1.869,4.766,2.102,513.184,140.259,55.542,84.831,-19.122,-137.324
 14:21:33.592,eb:33:2e:f9:57:b5, 2085-97-140 14:71:38:6425,1.983,5.178,2.227,508.85,-220.459,-137.695,89.956,-18.704,-137.483
 14:21:33.592,eb:33:2e:f9:57:b5, 2085-97-186 16:07:27:11402,2.045,4.141,4.434,482.3,-464.722,-327.271,96.487,-15.996,-141.52
 14:21:33.592,eb:33:2e:f9:57:b5, 2085-97-201 14:136:16:12955,1.622,2.678,6.173,422.058,-270.813,-394.043,101.997,-11.816,-144.8
 14:21:33.647,eb:33:2e:f9:57:b5, 2085-97-221 11:118:07:12559,1.455,1.496,6.234,390.747,-186.89,-425.171,106.287,-7.322,-145.772
 14:21:33.647,eb:33:2e:f9:57:b5, 2085-97-170 11:144:255:11983,1.412,0.401,6.053,349.976,-93.323,-420.41,110.034,-2.796,-145.975
 14:21:33.647,eb:33:2e:f9:57:b5, 2085-97-103 10:199:250:9738,1.2,-0.437,5.336,276.306,155.09,-347.412,113.011,0.698,-144.113
 14:21:33.647,eb:33:2e:f9:57:b5, 2085-97-55 09:119:248:7989,1.168,-0.822,4.265,211.67,233.154,-261.353,115.285,2.615,-140.971
 14:21:33.706,eb:33:2e:f9:57:b5, 2085-97-156 09:49:248:7202,1.223,-0.982,3.678,156.86,199.341,-186.584,117.043,3.697,-137.939
 14:21:33.706,eb:33:2e:f9:57:b5, 2085-97-110 10:104:247:7268,1.45,-1,3.447,106.567,150.208,-129.578,118.323,4.268,-135.67
 14:21:33.706,eb:33:2e:f9:57:b5, 2085-97-242 12:231:244:8246,1.82,-1.199,3.78,76.965,73.73,-107.3,119.207,4.812,-134.055
 14:21:33.706,eb:33:2e:f9:57:b5, 2085-97-60 16:09:242:8392,2.292,-1.586,4.15,63.843,69.519,-100.708,119.916,5.389,-132.973
 14:21:33.709,eb:33:2e:f9:57:b5, 2085-97-01 20:237:240:7491,2.496,-1.823,3.918,35.645,95.093,-95.337,120.46,5.872,-131.66
 14:21:33.709,eb:33:2e:f9:57:b5, 2085-97-56 19:120:232:4146,2.265,-2.227,3.071,-48.95,294.739,-57.312,120.449,5.641,-129.65
 14:21:33.709,eb:33:2e:f9:57:b5, 2085-97-245 15:250:215:-3046,1.984,-3.907,0.525,-113.647,359.863,-37.903,119.619,4.301,-126.172
 14:21:33.709,eb:33:2e:f9:57:b5, 2085-97-55 16:192:206:-6930,1.981,-5.826,-3.176,-271.667,293.579,-0.427,117.724,2.889,-123.107
 14:21:33.798,eb:33:2e:f9:57:b5, 2085-97-137 15:170:213:-2168,1.97,-5.809,-2.437,-399.048,-176.086,-35.767,114.153,2.681,-122.349
 14:21:33.798,eb:33:2e:f9:57:b5, 2085-97-251 15:31:218:1101,1.922,-4.985,0.044,-510.193,-334.167,-30.151,109.638,4.263,-125.261
 14:21:33.798,eb:33:2e:f9:57:b5, 2085-97-155 14:48:225:380,1.767,-4.355,0.432,-658.02,-80.322,33.386,103.683,4.713,-126.909
 14:21:33.798,eb:33:2e:f9:57:b5, 2085-97-222 13:25:232:1036,1.694,-3.375,0.198,-759.216,-120.117,22.766,96.493,4.532,-127.782
 14:21:33.798,eb:33:2e:f9:57:b5, 2085-97-223 12:231:235:2451,1.356,-2.691,0.86,-825.867,-163.025,14.099,88.484,4.427,-129.155
 14:21:33.798,eb:33:2e:f9:57:b5, 2085-97-34 08:85:237:3773,1.275,-2.479,1.539,-862.427,-140.747,19.653,79.997,4.098,-130.677
 14:21:33.798,eb:33:2e:f9:57:b5, 2085-97-160 13:77:250:7526,1.669,-1.68,2.456,-822.327,-304.749,-15.686,71.455,3.51,-132.264
 14:21:33.798,eb:33:2e:f9:57:b5, 2085-97-47 09:238:253:9174,0.798,-0.192,4.635,-769.958,-366.516,-10.132,63.644,2.131,-136.088
 14:21:34.218,eb:33:2e:f9:57:b5, 2085-97-237 05:193:250:6199,0.926,-0.507,3.621,-683.716,-363.281,7.385,56.453,0.516,-138.516
 14:21:34.218,eb:33:2e:f9:57:b5, 2085-97-139 08:204:250:7290,1.052,-0.671,3.104,-627.502,-568.176,10.193,50.323,-2.582,-142.427
 14:21:34.218,eb:33:2e:f9:57:b5, 2085-97-95 07:133:251:8553,0.778,-0.602,3.992,-623.474,-425.842,77.942,44.506,-6.378,-145.679
 14:21:34.218,eb:33:2e:f9:57:b5, 2085-97-193 05:178:252:8238,0.719,-0.504,4.129,-614.014,-368.958,126.953,38.639,-9.915,-147.31
 14:21:34.220,eb:33:2e:f9:57:b5, 2085-97-214 05:155:254:7797,0.74,-0.321,3.888,-607.117,-371.338,166.443,32.761,-13.865,-148.184
 14:21:34.220,eb:33:2e:f9:57:b5, 2085-97-32 06:160:01:8310,0.786,0.002,3.869,-614.075,-368.958,196.228,26.697,-17.963,-148.321
 14:21:34.220,eb:33:2e:f9:57:b5, 2085-97-67 06:57:05:8787,0.742,0.427,4.226,-614.014,-342.041,219.788,20.292,-22.088,-147.706
 14:21:34.220,eb:33:2e:f9:57:b5, 2085-97-68 05:166:09:8268,0.553,0.903,4.234,-595.642,-272.217,233.093,13.497,-25.626,-146.151
 14:21:34.220,eb:33:2e:f9:57:b5, 2085-97-208 03:186:14:7583,0.461,1.532,3.821,-550.72,-239.746,222.9,6.636,-28.427,-143.976
 14:21:34.220,eb:33:2e:f9:57:b5, 2085-97-174 03:85:18:7997,0.456,2.108,3.716,-488.892,-309.204,191.956,0.143,-31.207,-141.597
 14:21:34.220,eb:33:2e:f9:57:b5, 2085-97-125 03:67:21:9594,0.414,2.453,4.255,-432.129,-376.099,168.335,-5.927,-34.59,-139.109
