Time,Device name,Chip Time(),Acceleration X(g),Acceleration Y(g),Acceleration Z(g),Angular velocity X(°/s),Angular velocity Y(°/s),Angular velocity Z(°/s),Angle X(°),Angle Y(°),Angle Z(°)
 14:18:51.495,eb:33:2e:f9:57:b5, 2085-97-126 255:150:255:2045,-0.069,-0.059,1.039,11.047,24.719,-1.221,-2.142,6.152,58.425
 14:18:51.497,eb:33:2e:f9:57:b5, 2085-97-144 255:148:255:2054,-0.034,-0.057,0.991,7.874,30.212,6.042,-2.049,6.438,58.436
 14:18:51.497,eb:33:2e:f9:57:b5, 2085-97-203 255:184:255:2106,-0.042,-0.038,1.018,5.371,38.696,12.024,-1.978,6.79,58.513
 14:18:51.497,eb:33:2e:f9:57:b5, 2085-97-149 255:165:255:2065,-0.051,-0.045,1.017,4.7,48.584,15.198,-1.923,7.24,58.629
 14:18:51.550,eb:33:2e:f9:57:b5, 2085-97-215 255:223:255:2100,-0.038,-0.024,1.001,6.348,47.241,15.442,-1.862,7.734,58.76
 14:18:51.550,eb:33:2e:f9:57:b5, 2085-97-118 255:165:255:2112,-0.088,-0.032,1.028,8.789,50.11,11.902,-1.78,8.24,58.865
 14:18:51.550,eb:33:2e:f9:57:b5, 2085-97-14 255:111:255:2068,-0.109,-0.05,1.007,16.479,39.978,10.803,-1.648,8.707,58.947
 14:18:51.550,eb:33:2e:f9:57:b5, 2085-97-43 255:157:255:2167,-0.1,-0.048,1.027,25.269,23.56,11.902,-1.428,9.02,59.052
 14:18:51.553,eb:33:2e:f9:57:b5, 2085-97-79 255:155:255:2166,-0.107,-0.056,1.076,36.316,3.601,9.583,-1.099,9.146,59.15
 14:18:51.553,eb:33:2e:f9:57:b5, 2085-97-251 254:98:255:2342,-0.126,-0.079,1.104,45.044,-8.606,8.301,-0.681,9.119,59.238
 14:18:51.553,eb:33:2e:f9:57:b5, 2085-97-168 254:43:255:2527,-0.141,-0.093,1.219,56.03,-18.311,7.141,-0.17,8.981,59.321
 14:18:51.553,eb:33:2e:f9:57:b5, 2085-97-245 254:81:255:2566,-0.09,-0.063,1.2,66.895,-20.386,4.7,0.456,8.806,59.398
 14:18:51.611,eb:33:2e:f9:57:b5, 2085-97-105 255:159:255:2525,-0.084,-0.06,1.231,76.294,-17.639,0.244,1.176,8.624,59.42
 14:18:51.611,eb:33:2e:f9:57:b5, 2085-97-84 255:185:255:2541,-0.078,-0.043,1.23,84.351,-14.709,-3.174,1.978,8.47,59.403
 14:18:51.611,eb:33:2e:f9:57:b5, 2085-97-117 255:191:255:2555,-0.07,-0.034,1.221,91.37,-11.353,-5.859,2.856,8.344,59.348
 14:18:51.611,eb:33:2e:f9:57:b5, 2085-97-141 255:223:255:2612,-0.039,-0.03,1.266,98.511,-5.127,-6.042,3.807,8.267,59.282
 14:18:51.640,eb:33:2e:f9:57:b5, 2085-97-195 255:226:255:2673,-0.038,-0.024,1.287,105.286,4.944,-3.662,4.828,8.267,59.233
 14:18:51.640,eb:33:2e:f9:57:b5, 2085-97-158 255:236:255:2631,-0.043,-0.012,1.301,112.366,17.944,0.366,5.916,8.394,59.227
 14:18:51.640,eb:33:2e:f9:57:b5, 2085-97-157 255:01:00:2689,-0.051,0,1.286,120.911,24.109,2.38,7.092,8.608,59.26
 14:18:51.640,eb:33:2e:f9:57:b5, 2085-97-108 255:230:255:2698,-0.066,-0.003,1.322,129.333,28.259,4.822,8.35,8.86,59.326
 14:18:51.669,eb:33:2e:f9:57:b5, 2085-97-94 255:219:255:2802,-0.094,-0.005,1.34,140.076,32.837,7.141,9.712,9.168,59.425
 14:18:51.669,eb:33:2e:f9:57:b5, 2085-97-79 255:173:255:3010,-0.065,-0.038,1.44,155.579,29.541,10.01,11.206,9.465,59.562
 14:18:51.669,eb:33:2e:f9:57:b5, 2085-97-223 255:214:255:3148,0.037,-0.033,1.482,176.392,25.085,10.62,12.887,9.706,59.722
 14:18:51.669,eb:33:2e:f9:57:b5, 2085-97-143 00:06:00:3193,0.107,-0.007,1.563,200.134,31.86,8.301,14.793,9.954,59.875
 14:18:51.759,eb:33:2e:f9:57:b5, 2085-97-185 00:08:00:3203,0.086,0.018,1.564,227.844,37.048,0.183,16.957,10.283,60.002
 14:18:51.759,eb:33:2e:f9:57:b5, 2085-97-127 00:153:255:3240,0.066,-0.023,1.593,260.437,33.569,-9.216,19.418,10.635,60.057
 14:18:51.759,eb:33:2e:f9:57:b5, 2085-97-143 00:63:255:3276,0.085,-0.071,1.581,298.401,23.01,-19.897,22.22,10.953,60.013
 14:18:51.759,eb:33:2e:f9:57:b5, 2085-97-251 00:237:254:3489,0.123,-0.138,1.667,342.407,13.367,-33.264,25.422,11.206,59.81
 14:18:51.761,eb:33:2e:f9:57:b5, 2085-97-28 01:226:254:3554,0.102,-0.139,1.692,389.343,7.629,-48.401,29.059,11.475,59.474
 14:18:51.761,eb:33:2e:f9:57:b5, 2085-97-125 00:131:255:3879,-0.019,-0.105,1.802,435.73,6.897,-59.998,33.151,11.816,59.035
 14:18:51.761,eb:33:2e:f9:57:b5, 2085-97-37 254:05:04:4192,-0.373,0.135,1.94,486.145,4.028,-58.044,37.705,12.217,58.568
 14:18:51.761,eb:33:2e:f9:57:b5, 2085-97-67 252:178:07:5586,-0.616,0.784,2.326,522.217,-31.799,-43.274,42.715,12.442,58.096
 14:18:51.818,eb:33:2e:f9:57:b5, 2085-97-88 251:51:10:7361,-0.503,1.192,3.198,529.114,-23.926,-18.127,47.939,12.415,57.678
 14:18:51.818,eb:33:2e:f9:57:b5, 2085-97-103 253:225:06:7362,-0.161,1.05,3.815,508.545,7.202,-13.611,53.102,12.442,57.458
 14:18:51.818,eb:33:2e:f9:57:b5, 2085-97-82 255:204:02:6549,0.044,0.63,3.446,487.976,60.669,-41.138,58.079,12.854,57.535
 14:18:51.818,eb:33:2e:f9:57:b5, 2085-97-219 01:79:255:6174,0.205,0.057,3.269,465.271,110.962,-34.119,62.93,13.672,58.085
 14:18:51.850,eb:33:2e:f9:57:b5, 2085-97-142 03:27:02:4996,0.803,0.111,2.589,448.425,137.512,2.686,67.692,14.376,59.255
 14:18:51.850,eb:33:2e:f9:57:b5, 2085-97-96 06:253:251:4899,0.617,0.025,2.46,392.578,86.304,-15.442,72.087,14.782,60.244
 14:18:51.851,eb:33:2e:f9:57:b5, 2085-97-203 05:85:244:1226,0.83,-1.031,1.698,288.513,60.669,-24.536,75.608,15.244,60.886
 14:18:51.851,eb:33:2e:f9:57:b5, 2085-97-164 08:239:235:688,1.854,-1.871,-0.482,114.441,63.171,-20.386,77.657,15.584,61.397
 14:18:51.880,eb:33:2e:f9:57:b5, 2085-97-20 01:97:250:-3715,0.494,-1.882,-1.012,71.716,95.886,-43.518,78.673,16.199,63.012
 14:18:51.880,eb:33:2e:f9:57:b5, 2085-97-49 05:200:244:1988,0.737,-0.752,0.335,-171.997,-92.102,-74.097,78.03,16.787,61.628
 14:18:51.881,eb:33:2e:f9:57:b5, 2085-97-90 05:131:234:2469,0.335,-2.278,1.322,-296.814,-27.039,-81.055,75.289,17.408,61.177
 14:18:51.881,eb:33:2e:f9:57:b5, 2085-97-140 02:194:238:1851,0.504,-2.421,0.793,-340.759,-78.186,-61.462,71.938,17.941,60.463
 14:18:51.940,eb:33:2e:f9:57:b5, 2085-97-11 05:144:241:2545,0.679,-1.945,1.144,-369.202,-73.547,-30.579,68.088,18.045,59.551
 14:18:51.940,eb:33:2e:f9:57:b5, 2085-97-90 05:202:242:2535,0.592,-1.706,1.265,-369.934,-80.383,-29.724,64.193,17.99,58.722
 14:18:51.940,eb:33:2e:f9:57:b5, 2085-97-57 04:32:243:1930,0.53,-1.628,1.111,-375.305,-83.252,-26.428,60.233,17.836,57.838
 14:18:51.940,eb:33:2e:f9:57:b5, 2085-97-136 04:126:243:1678,0.588,-1.59,0.833,-395.264,-94.177,-19.775,56.173,17.545,56.942
 14:18:51.971,eb:33:2e:f9:57:b5, 2085-97-146 04:58:244:1946,0.531,-1.53,0.879,-429.626,-91.309,-14.893,51.806,17.106,56.058
 14:18:51.971,eb:33:2e:f9:57:b5, 2085-97-06 04:40:246:2288,0.464,-1.35,1.025,-457.397,-81.421,-13,47.181,16.639,55.311
 14:18:51.971,eb:33:2e:f9:57:b5, 2085-97-148 03:145:248:2579,0.426,-1.084,1.196,-462.708,-78.491,-13.977,42.391,16.15,54.646
 14:18:51.971,eb:33:2e:f9:57:b5, 2085-97-75 03:226:250:2620,0.401,-0.784,1.284,-448.364,-73.364,-19.043,37.7,15.661,54.025
 14:18:51.971,eb:33:2e:f9:57:b5, 2085-113-58 00:192:229:-6750,0.397,-0.511,1.269,-418.579,-73.303,-23.865,33.223,15.183,53.421
 14:18:51.999,eb:33:2e:f9:57:b5, 2085-97-14 03:17:253:2675,0.355,-0.414,1.281,-400.391,-80.383,-25.33,31.124,14.914,53.108
 14:18:51.999,eb:33:2e:f9:57:b5, 2085-97-175 02:249:252:2808,0.318,-0.36,1.336,-367.859,-105.896,-25.574,27.153,14.2,52.427
 14:18:51.999,eb:33:2e:f9:57:b5, 2085-97-93 02:42:252:3082,0.271,-0.417,1.418,-355.469,-136.169,-20.935,23.439,13.178,51.696
 14:18:52.000,eb:33:2e:f9:57:b5, 2085-97-250 01:55:251:3754,0.216,-0.548,1.648,-362,-155.029,-8.301,19.726,11.827,51.031
 14:18:52.059,eb:33:2e:f9:57:b5, 2085-97-120 01:166:251:4337,0.167,-0.596,1.998,-372.681,-157.471,9.705,15.991,10.322,50.592
 14:18:52.059,eb:33:2e:f9:57:b5, 2085-97-90 01:72:253:4762,0.177,-0.457,2.223,-377.625,-159.485,30.457,12.184,8.718,50.438
 14:18:52.059,eb:33:2e:f9:57:b5, 2085-97-127 01:230:255:5108,0.2,-0.192,2.414,-375,-159.546,48.767,8.421,7.075,50.592
 14:18:52.059,eb:33:2e:f9:57:b5, 2085-97-175 01:122:03:5322,0.194,0.194,2.561,-362.732,-161.499,57.983,4.713,5.416,50.982
 14:18:52.088,eb:33:2e:f9:57:b5, 2085-97-55 01:87:07:5538,0.083,0.676,2.638,-338.013,-172.913,54.138,1.214,3.741,51.498
 14:18:52.088,eb:33:2e:f9:57:b5, 2085-97-237 255:84:10:6069,-0.107,1.132,2.821,-305.725,-198.608,45.105,-2.027,1.873,52.048
 14:18:52.088,eb:33:2e:f9:57:b5, 2085-97-122 254:232:11:6415,-0.249,1.397,3.076,-279.907,-211.426,36.316,-4.966,-0.165,52.614
 14:18:52.088,eb:33:2e:f9:57:b5, 2085-97-162 253:171:13:6328,-0.325,1.583,3.142,-266.968,-197.144,28.87,-7.767,-2.17,53.207
 14:18:52.119,eb:33:2e:f9:57:b5, 2085-97-190 02:67:20:10990,-0.657,1.874,3.033,-253.052,-182.434,20.691,-10.448,-3.977,53.789
 14:18:52.119,eb:33:2e:f9:57:b5, 2085-97-154 246:39:16:4526,-0.336,2.92,2.733,-202.271,-157.043,-3.601,-12.651,-5.576,54.19
 14:18:52.119,eb:33:2e:f9:57:b5, 2085-97-01 254:107:22:4052,-0.935,2.602,1.345,-236.206,-130.31,-0.854,-14.936,-6.806,54.651
 14:18:52.119,eb:33:2e:f9:57:b5, 2085-97-195 248:37:22:5022,-0.63,2.635,2.17,-232.605,-126.77,-16.357,-17.408,-8.004,54.948
 14:18:52.178,eb:33:2e:f9:57:b5, 2085-97-195 250:141:24:3970,-1.024,3.215,1.586,-198.425,-134.949,-36.377,-19.605,-9.283,55.151
 14:18:52.178,eb:33:2e:f9:57:b5, 2085-97-55 249:230:25:4652,-0.853,3.025,1.9,-144.409,-106.506,-36.56,-21.324,-10.569,55.234
 14:18:52.178,eb:33:2e:f9:57:b5, 2085-97-149 243:95:26:2416,-2.591,3.388,2.661,-56.213,-75.989,-53.772,-22.225,-11.739,55.102
 14:18:52.178,eb:33:2e:f9:57:b5, 2085-97-209 240:12:21:4783,-1.609,2.201,1.396,3.113,-33.508,-29.663,-22.511,-12.244,54.965
 14:18:52.210,eb:33:2e:f9:57:b5, 2085-97-143 243:27:27:4824,-1.639,3.294,2.56,84.595,41.443,-25.635,-21.923,-12.453,54.564
 14:18:52.210,eb:33:2e:f9:57:b5, 2085-97-154 243:234:28:3729,-1.386,3.223,2.419,176.331,140.747,-4.456,-20.413,-11.794,54.058
 14:18:52.210,eb:33:2e:f9:57:b5, 2085-97-85 252:85:27:3758,0.5,4.525,1.812,288.94,190.43,-23.254,-17.88,-10.201,53.443
 14:18:52.210,eb:33:2e:f9:57:b5, 2085-97-154 00:54:255:4280,-0.595,-0.405,1.195,308.044,265.93,-67.2,-14.491,-8.503,52.075
 14:18:52.239,eb:33:2e:f9:57:b5, 2085-97-178 254:133:242:3396,-0.415,-1.225,1.998,284.729,296.57,59.143,-11.415,-5.405,51.454
 14:18:52.239,eb:33:2e:f9:57:b5, 2085-97-237 249:52:02:2893,-0.728,-0.567,1.71,244.995,264.954,131.958,-8.756,-2.428,51.855
 14:18:52.239,eb:33:2e:f9:57:b5, 2085-97-53 250:06:05:2699,-0.614,0.523,1.282,180.359,146.362,154.48,-6.795,-0.258,53.047
 14:18:52.239,eb:33:2e:f9:57:b5, 2085-97-227 252:194:04:2827,-0.185,0.742,1.34,127.747,125.183,135.376,-5.35,1.252,54.349
 14:18:52.299,eb:33:2e:f9:57:b5, 2085-97-180 254:56:01:1965,-0.104,0.388,1.162,88.257,107.971,64.27,-4.356,2.56,55.217
 14:18:52.299,eb:33:2e:f9:57:b5, 2085-97-17 00:02:254:2236,0.258,-0.102,0.938,79.956,23.865,9.46,-3.532,3.186,55.443
 14:18:52.299,eb:33:2e:f9:57:b5, 2085-97-102 02:01:00:2554,0.4,-0.009,1.247,55.176,52.368,23.01,-2.823,3.411,55.53
 14:18:52.299,eb:33:2e:f9:57:b5, 2085-97-242 02:83:01:2513,0.021,0.097,1.318,17.883,184.387,40.71,-2.461,4.653,55.789
 14:18:52.329,eb:33:2e:f9:57:b5, 2085-97-162 253:74:02:1274,-0.404,0.402,0.735,-9.277,160.889,37.354,-2.444,6.729,56.113
 14:18:52.329,eb:33:2e:f9:57:b5, 2085-97-24 254:94:255:1755,0.014,0.081,0.66,-3.418,13.916,0.671,-2.516,7.476,56.223
 14:18:52.329,eb:33:2e:f9:57:b5, 2085-97-151 00:114:255:2297,-0.051,-0.098,1.112,4.639,5.554,-6.104,-2.494,7.421,56.173
 14:18:52.329,eb:33:2e:f9:57:b5, 2085-97-221 254:193:255:1870,-0.115,-0.005,0.966,4.822,14.526,-6.531,-2.444,7.608,56.107
 14:18:52.389,eb:33:2e:f9:57:b5, 2085-97-08 255:148:255:1965,-0.088,-0.054,0.998,5.005,1.953,-5.188,-2.395,7.619,56.036
 14:18:52.389,eb:33:2e:f9:57:b5, 2085-97-174 255:136:255:2083,-0.041,-0.045,0.96,8.728,-13.855,-11.23,-2.329,7.57,55.959
 14:18:52.389,eb:33:2e:f9:57:b5, 2085-97-122 255:155:255:2030,-0.084,-0.061,1.018,9.521,-11.047,-11.108,-2.241,7.427,55.849
 14:18:52.389,eb:33:2e:f9:57:b5, 2085-97-51 255:165:255:1979,-0.105,-0.038,0.976,8.911,-12.39,-9.033,-2.148,7.311,55.756
 14:18:52.419,eb:33:2e:f9:57:b5, 2085-97-46 255:95:255:2042,-0.082,-0.054,0.97,8.545,-15.869,-7.385,-2.065,7.158,55.684
 14:18:52.419,eb:33:2e:f9:57:b5, 2085-97-119 255:140:255:2041,-0.029,-0.068,1.005,6.592,-5.493,-0.305,-1.983,7.053,55.651
 14:18:52.419,eb:33:2e:f9:57:b5, 2085-97-212 255:152:255:2113,-0.003,-0.05,1.033,5.127,4.333,4.15,-1.928,7.037,55.673
 14:18:52.419,eb:33:2e:f9:57:b5, 2085-97-234 255:165:255:2147,-0.031,-0.041,1.054,4.272,20.081,9.277,-1.868,7.163,55.734
 14:18:52.449,eb:33:2e:f9:57:b5, 2085-97-164 255:190:255:2087,-0.045,-0.038,1.036,3.54,33.936,14.648,-1.824,7.454,55.844
 14:18:52.449,eb:33:2e:f9:57:b5, 2085-97-175 255:220:255:2108,-0.041,-0.036,1.023,3.418,39.917,16.541,-1.78,7.844,55.981
 14:18:52.449,eb:33:2e:f9:57:b5, 2085-97-141 255:180:255:2111,-0.072,-0.025,1.037,3.967,47.18,15.442,-1.73,8.289,56.118
 14:18:52.449,eb:33:2e:f9:57:b5, 2085-97-112 255:188:255:2113,-0.062,-0.022,1.007,5.676,48.035,13.428,-1.67,8.784,56.239
 14:18:52.479,eb:33:2e:f9:57:b5, 2085-97-153 255:173:255:2257,-0.092,-0.036,1.095,9.583,48.828,10.254,-1.582,9.261,56.332
 14:18:52.479,eb:33:2e:f9:57:b5, 2085-97-15 255:205:255:2027,-0.123,-0.037,1.038,12.451,53.833,8.118,-1.456,9.794,56.398
 14:18:52.479,eb:33:2e:f9:57:b5, 2085-97-14 255:185:255:2088,-0.133,-0.039,1.01,14.648,45.288,5.92,-1.318,10.3,56.442
 14:18:52.479,eb:33:2e:f9:57:b5, 2085-97-185 254:165:255:2024,-0.165,-0.038,0.997,14.893,45.227,4.395,-1.159,10.739,56.47
 14:18:52.539,eb:33:2e:f9:57:b5, 2085-97-129 254:102:255:2192,-0.197,-0.061,1.042,17.578,35.767,4.639,-0.994,11.14,56.497
 14:18:52.539,eb:33:2e:f9:57:b5, 2085-97-191 254:160:255:2281,-0.231,-0.047,1.078,24.17,24.841,4.395,-0.775,11.437,56.536
 14:18:52.539,eb:33:2e:f9:57:b5, 2085-97-74 254:110:255:2163,-0.157,-0.102,1.154,30.457,25.391,3.357,-0.494,11.678,56.552
 14:18:52.539,eb:33:2e:f9:57:b5, 2085-97-143 254:164:255:2120,-0.164,0.023,0.888,38.208,-4.7,5.249,-0.143,11.827,56.607
 14:18:52.599,eb:33:2e:f9:57:b5, 2085-97-229 254:244:255:2060,-0.139,-0.067,1.116,41.992,-7.385,6.47,0.286,11.695,56.656
 14:18:52.599,eb:33:2e:f9:57:b5, 2085-97-199 254:224:255:2130,-0.146,0.007,0.979,42.542,-9.949,4.883,0.714,11.629,56.717
 14:18:52.599,eb:33:2e:f9:57:b5, 2085-97-243 254:246:255:2186,-0.122,-0.017,1.077,45.837,-12.878,3.174,1.165,11.508,56.761
 14:18:52.599,eb:33:2e:f9:57:b5, 2085-97-255 254:07:00:2174,-0.14,0.007,1.057,49.316,-14.343,0.793,1.642,11.371,56.777
 14:18:52.599,eb:33:2e:f9:57:b5, 2085-97-04 255:34:00:2224,-0.107,0.005,1.07,53.711,-17.822,-0.916,2.159,11.217,56.777
 14:18:52.599,eb:33:2e:f9:57:b5, 2085-97-67 255:73:00:2232,-0.069,0.023,1.098,59.692,-20.874,-5.92,2.73,11.014,56.733
 14:18:52.599,eb:33:2e:f9:57:b5, 2085-97-105 255:89:00:2282,-0.086,0.051,1.108,63.782,-15.625,-11.23,3.34,10.822,56.635
 14:18:52.599,eb:33:2e:f9:57:b5, 2085-97-90 255:114:00:2203,-0.087,0.044,1.102,65.125,-1.16,-14.16,3.972,10.756,56.503
 14:18:52.660,eb:33:2e:f9:57:b5, 2085-97-57 255:109:00:2206,-0.119,0.06,1.067,66.284,10.071,-17.273,4.614,10.816,56.343
 14:18:52.660,eb:33:2e:f9:57:b5, 2085-113-58 00:163:228:-5250,-0.134,0.051,1.069,67.383,22.034,-17.944,5.268,10.997,56.173
 14:18:52.660,eb:33:2e:f9:57:b5, 2085-97-239 254:150:00:2058,-0.132,0.059,1.032,68.481,23.926,-18.982,5.598,11.118,56.091
 14:18:52.660,eb:33:2e:f9:57:b5, 2085-97-251 254:176:00:2058,-0.136,0.078,1.003,69.275,25.574,-20.508,6.268,11.376,55.904
 14:18:52.689,eb:33:2e:f9:57:b5, 2085-97-213 254:172:00:2117,-0.146,0.086,1.016,69.946,27.344,-20.264,6.943,11.667,55.723
 14:18:52.689,eb:33:2e:f9:57:b5, 2085-97-221 254:155:00:2267,-0.145,0.079,1.067,71.96,27.466,-18.738,7.63,11.959,55.558
 14:18:52.689,eb:33:2e:f9:57:b5, 2085-97-207 254:150:00:2387,-0.154,0.076,1.13,75.562,30.579,-14.099,8.35,12.272,55.426
 14:18:52.690,eb:33:2e:f9:57:b5, 2085-97-160 254:125:00:2477,-0.182,0.066,1.197,82.336,32.654,-9.644,9.13,12.596,55.349
 14:18:52.749,eb:33:2e:f9:57:b5, 2085-97-104 254:119:00:2447,-0.212,0.058,1.208,90.881,33.813,-4.211,10.003,12.942,55.333
 14:18:52.749,eb:33:2e:f9:57:b5, 2085-97-46 254:110:00:2405,-0.241,0.062,1.176,101.013,27.283,1.16,10.97,13.25,55.371
 14:18:52.749,eb:33:2e:f9:57:b5, 2085-97-12 254:91:00:2501,-0.236,0.043,1.196,112.488,14.954,7.996,12.063,13.447,55.453
 14:18:52.749,eb:33:2e:f9:57:b5, 2085-97-65 254:112:00:2650,-0.206,0.047,1.251,126.953,1.709,14.16,13.282,13.497,55.585
 14:18:52.780,eb:33:2e:f9:57:b5, 2085-97-153 254:118:00:2875,-0.146,0.055,1.345,145.447,-8.85,17.212,14.683,13.42,55.728
 14:18:52.780,eb:33:2e:f9:57:b5, 2085-97-10 255:129:00:3101,-0.102,0.059,1.464,167.48,-10.925,17.578,16.276,13.271,55.876
 14:18:52.780,eb:33:2e:f9:57:b5, 2085-97-66 255:104:00:3170,-0.079,0.065,1.537,192.383,-7.812,16.479,18.111,13.134,56.014
 14:18:52.780,eb:33:2e:f9:57:b5, 2085-97-135 255:75:00:3333,-0.014,0.046,1.582,221.008,-4.517,12.024,20.209,13.035,56.129
 14:18:52.808,eb:33:2e:f9:57:b5, 2085-97-120 00:44:00:3751,0.147,0.028,1.725,254.761,-0.977,4.333,22.61,12.986,56.201
 14:18:52.808,eb:33:2e:f9:57:b5, 2085-97-100 01:41:00:3907,0.169,0.026,1.865,295.288,13.245,-6.409,25.378,13.052,56.217
 14:18:52.808,eb:33:2e:f9:57:b5, 2085-97-182 01:07:255:4576,0.285,-0.053,2.033,346.802,17.761,-21.729,28.597,13.26,56.151
 14:18:52.808,eb:33:2e:f9:57:b5, 2085-97-129 02:141:254:5013,0.232,-0.157,2.41,417.358,38.574,-40.344,32.399,13.661,56.014
 14:18:52.839,eb:33:2e:f9:57:b5, 2085-97-137 00:42:254:5670,-0.239,-0.197,2.584,494.385,40.039,-58.716,36.953,14.282,55.805
 14:18:52.839,eb:33:2e:f9:57:b5, 2085-97-168 251:67:03:7134,-0.592,-0.021,3.117,565.735,54.626,-45.105,42.286,14.991,55.651
 14:18:52.839,eb:33:2e:f9:57:b5, 2085-97-175 250:110:10:7152,-0.644,0.755,3.61,608.398,72.632,-0.488,48.257,15.606,55.964
 14:18:52.839,eb:33:2e:f9:57:b5, 2085-97-52 252:241:12:6532,-0.252,1.648,3.257,615.173,46.509,-5.005,54.52,16.029,56.525
 14:18:52.898,eb:33:2e:f9:57:b5, 2085-97-117 255:89:07:6124,0.23,1.236,3.091,599.426,5.676,-32.837,60.601,16.326,56.563
 14:18:52.898,eb:33:2e:f9:57:b5, 2085-97-157 01:74:01:7074,0.085,0.546,3.144,554.26,5.188,-55.176,66.319,16.721,56.338
 14:18:52.898,eb:33:2e:f9:57:b5, 2085-97-31 01:88:255:7528,0.428,0.098,3.543,518.127,75.867,-38.574,71.691,17.32,56.613
 14:18:52.898,eb:33:2e:f9:57:b5, 2085-97-205 04:45:249:6153,0.561,-0.515,3.622,488.098,98.877,-30.884,76.91,17.897,57.42
 14:18:52.929,eb:33:2e:f9:57:b5, 2085-97-106 07:18:248:2440,1.157,-0.774,2.239,403.87,34.241,-32.715,81.53,18.331,58.134
 14:18:52.929,eb:33:2e:f9:57:b5, 2085-97-165 11:238:240:1907,2.132,-1.438,0.054,224.426,-24.719,-67.993,84.639,18.82,58.057
 14:18:52.929,eb:33:2e:f9:57:b5, 2085-97-254 251:247:252:-6180,-0.192,-2.01,-0.21,179.321,245.483,-67.566,86.83,19.797,59.793
 14:18:52.929,eb:33:2e:f9:57:b5, 2085-97-68 07:163:244:1557,0.512,-0.674,-0.604,-62.805,-179.749,-107.91,87.374,20.94,58.585
 14:18:52.959,eb:33:2e:f9:57:b5, 2085-97-66 03:33:231:1405,0.062,-2.387,0.562,-243.53,-92.041,-90.149,85.215,21.753,57.706
 14:18:52.959,eb:33:2e:f9:57:b5, 2085-97-21 00:50:237:1949,0.242,-2.893,0.684,-318.542,-165.344,-34.485,81.925,22.187,55.992
 14:18:52.959,eb:33:2e:f9:57:b5, 2085-97-73 04:93:244:3538,0.63,-1.868,1.354,-413.025,-77.637,12.573,77.761,22,54.728
 14:18:52.959,eb:33:2e:f9:57:b5, 2085-97-43 04:43:247:2921,0.451,-1.213,1.789,-442.627,-14.282,0,73.323,21.841,54.344
 14:18:53.021,eb:33:2e:f9:57:b5, 2085-97-219 03:97:247:1393,0.613,-1.093,0.999,-439.27,-43.823,-10.681,68.78,21.808,54.086
 14:18:53.021,eb:33:2e:f9:57:b5, 2085-97-13 06:02:249:794,0.801,-0.996,0.473,-411.438,-123.169,-29.175,64.265,21.627,53.179
 14:18:53.021,eb:33:2e:f9:57:b5, 2085-97-251 05:192:249:709,0.668,-0.784,0.335,-397.278,-188.049,-48.584,59.716,21.187,51.498
 14:18:53.021,eb:33:2e:f9:57:b5, 2085-97-203 04:215:248:1108,0.552,-0.825,0.421,-400.574,-233.948,-59.509,55.107,20.451,49.312
 14:18:53.050,eb:33:2e:f9:57:b5, 2085-97-183 03:179:247:1773,0.296,-0.96,0.691,-415.405,-259.46,-65.43,50.334,19.385,46.868
 14:18:53.050,eb:33:2e:f9:57:b5, 2085-97-239 00:210:246:2609,-0.028,-1.106,1.034,-432.251,-272.034,-54.26,45.461,18.001,44.434
 14:18:53.050,eb:33:2e:f9:57:b5, 2085-97-141 255:171:247:3444,0.002,-1.113,1.485,-438.782,-246.948,-30.945,40.583,16.326,42.319
 14:18:53.050,eb:33:2e:f9:57:b5, 2085-97-120 00:167:249:3652,0.08,-0.922,1.792,-437.683,-188.416,-4.211,35.909,14.7,40.853
 14:18:53.078,eb:33:2e:f9:57:b5, 2085-97-140 00:49:251:3476,0.083,-0.69,1.745,-432.373,-133.667,16.174,31.388,13.321,40.051
 14:18:53.078,eb:33:2e:f9:57:b5, 2085-97-23 01:154:252:3483,0.2,-0.514,1.684,-418.213,-100.891,28.87,27.081,12.211,39.721
 14:18:53.078,eb:33:2e:f9:57:b5, 2085-97-12 02:193:253:3510,0.302,-0.343,1.715,-399.963,-99.243,35.034,22.961,11.179,39.628
 14:18:53.078,eb:33:2e:f9:57:b5, 2085-97-196 02:125:254:3471,0.392,-0.234,1.699,-386.536,-119.934,34.18,19.034,10.025,39.584
 14:18:53.139,eb:33:2e:f9:57:b5, 2085-97-105 03:77:255:3754,0.437,-0.143,1.735,-378.235,-149.231,29.846,15.183,8.624,39.518
 14:18:53.139,eb:33:2e:f9:57:b5, 2085-97-120 03:172:00:4511,0.402,-0.012,1.983,-369.873,-187.012,22.339,11.437,6.91,39.413
 14:18:53.139,eb:33:2e:f9:57:b5, 2085-97-217 02:193:02:5449,0.298,0.204,2.434,-358.704,-216.431,15.259,7.762,4.85,39.298
 14:18:53.139,eb:33:2e:f9:57:b5, 2085-97-196 01:67:05:6423,0.131,0.498,2.898,-341.309,-233.643,13.611,4.263,2.582,39.243
 14:18:53.169,eb:33:2e:f9:57:b5, 2085-97-68 00:255:07:7177,-0.049,0.822,3.351,-316.528,-235.962,20.325,0.95,0.198,39.353
 14:18:53.169,eb:33:2e:f9:57:b5, 2085-97-248 254:98:11:7272,-0.182,1.182,3.587,-290.1,-215.454,34.18,-2.098,-2.06,39.694
 14:18:53.169,eb:33:2e:f9:57:b5, 2085-97-74 254:219:14:6560,-0.242,1.631,3.414,-269.104,-178.894,53.894,-4.977,-3.966,40.314
 14:18:53.169,eb:33:2e:f9:57:b5, 2085-97-196 253:213:18:5885,-0.329,2.102,3,-250.305,-173.828,66.711,-7.701,-5.598,41.16
 14:18:53.200,eb:33:2e:f9:57:b5, 2085-97-233 252:176:22:5643,-0.455,2.605,2.801,-221.313,-192.932,74.89,-10.272,-7.289,42.209
 14:18:53.200,eb:33:2e:f9:57:b5, 2085-97-196 251:43:25:5241,-0.643,3.008,2.67,-184.57,-207.092,80.505,-12.541,-9.091,43.44
 14:18:53.200,eb:33:2e:f9:57:b5, 2085-97-228 249:155:26:4395,-0.869,3.252,2.375,-156.738,-194.946,85.815,-14.573,-10.849,44.808
 14:18:53.200,eb:33:2e:f9:57:b5, 2085-97-122 248:199:26:3737,-0.983,3.346,1.951,-135.986,-170.349,89.172,-16.408,-12.349,46.225
 14:18:53.258,eb:33:2e:f9:57:b5, 2085-97-200 247:149:27:3480,-1.06,3.369,1.772,-113.22,-129.456,88.013,-18.062,-13.491,47.604
 14:18:53.258,eb:33:2e:f9:57:b5, 2085-97-164 247:101:29:3091,-1.007,3.566,1.592,-85.327,-83.374,78.979,-19.413,-14.172,48.801
 14:18:53.258,eb:33:2e:f9:57:b5, 2085-97-54 248:236:29:2715,-0.953,3.736,1.428,-56.396,-49.438,62.378,-20.407,-14.524,49.735
 14:18:53.258,eb:33:2e:f9:57:b5, 2085-97-110 248:223:28:2432,-0.938,3.692,1.241,-26.245,-29.785,40.955,-21.017,-14.683,50.378
 14:18:53.320,eb:33:2e:f9:57:b5, 2085-97-144 248:211:26:2530,-0.912,3.494,1.188,9.888,-23.438,19.592,-21.209,-14.81,50.762
 14:18:53.320,eb:33:2e:f9:57:b5, 2085-97-224 248:117:24:2852,-0.866,3.202,1.315,50.049,-16.846,0.793,-20.945,-14.969,50.938
 14:18:53.320,eb:33:2e:f9:57:b5, 2085-97-253 08:222:21:5330,-2.544,2.911,1.493,91.98,-2.319,-12.634,-20.198,-15.084,50.894
 14:18:53.320,eb:33:2e:f9:57:b5, 2085-97-30 251:235:04:-855,-0.759,-4.642,7.248,194.031,552.979,191.711,-17.941,-14.854,49.664
 14:18:53.350,eb:33:2e:f9:57:b5, 2085-97-208 06:163:246:934,1.789,-0.094,0.988,233.765,264.404,66.65,-15.546,-11.041,49.01
 14:18:53.350,eb:33:2e:f9:57:b5, 2085-97-208 02:102:241:1435,-0.346,-2.169,0.454,219.238,292.603,69.275,-13.2,-8.372,48.807
 14:18:53.350,eb:33:2e:f9:57:b5, 2085-97-13 00:162:246:2122,-0.602,-1.693,0.442,255.066,186.523,87.28,-10.915,-5.746,49.12
 14:18:53.350,eb:33:2e:f9:57:b5, 2085-97-33 246:39:02:4139,-0.995,-0.582,1.52,282.715,208.801,143.799,-8.245,-3.669,49.878
 14:18:53.350,eb:33:2e:f9:57:b5, 2085-97-120 250:166:04:3444,-0.751,0.675,1.854,217.407,201.172,163.635,-5.911,-1.346,51.207
 14:18:53.380,eb:33:2e:f9:57:b5, 2085-113-81 00:180:114:-1005,-0.458,0.701,1.535,142.578,217.957,122.437,-4.191,1.077,52.487
 14:18:53.380,eb:33:2e:f9:57:b5, 2085-97-190 254:173:04:1751,0.236,0.987,1.116,81.665,126.16,69.824,-3.669,1.934,52.872
 14:18:53.380,eb:33:2e:f9:57:b5, 2085-97-23 01:192:01:2138,0.07,0.386,1.1,38.818,32.104,6.287,-3.148,2.505,53.091
 14:18:53.380,eb:33:2e:f9:57:b5, 2085-97-147 00:249:255:2349,0.022,0.058,1.074,22.278,45.471,5.31,-2.84,2.873,53.075
 14:18:53.409,eb:33:2e:f9:57:b5, 2085-97-16 255:146:00:1742,-0.193,0.005,1.065,5.798,104.126,29.968,-2.714,3.708,53.212
 14:18:53.409,eb:33:2e:f9:57:b5, 2085-97-225 254:68:00:1732,-0.081,0.067,0.793,2.625,36.987,19.409,-2.675,4.455,53.432
 14:18:53.409,eb:33:2e:f9:57:b5, 2085-97-239 255:198:255:2071,0.063,0.009,0.907,10.193,-15.625,-6.47,-2.609,4.482,53.47
 14:18:53.409,eb:33:2e:f9:57:b5, 2085-97-219 00:06:00:2229,0.105,-0.022,1.068,10.132,-2.197,-8.667,-2.494,4.367,53.383
 14:18:53.469,eb:33:2e:f9:57:b5, 2085-97-112 00:246:255:2128,-0.007,0.013,1.056,6.47,13.611,-6.47,-2.411,4.455,53.317
 14:18:53.469,eb:33:2e:f9:57:b5, 2085-97-145 255:210:255:1976,-0.053,-0.026,1.008,7.324,19.348,-10.62,-2.34,4.625,53.218
 14:18:53.469,eb:33:2e:f9:57:b5, 2085-97-232 255:135:255:2056,0.011,-0.029,0.95,11.597,0.854,-19.409,-2.247,4.73,53.053
 14:18:53.469,eb:33:2e:f9:57:b5, 2085-97-233 255:121:255:2093,-0.062,-0.056,1.028,11.78,1.892,-17.029,-2.12,4.708,52.861
 14:18:53.499,eb:33:2e:f9:57:b5, 2085-97-143 255:162:255:1965,-0.042,-0.048,0.958,12.329,-1.953,-13.611,-2.005,4.73,52.712
 14:18:53.499,eb:33:2e:f9:57:b5, 2085-97-198 255:108:255:2144,-0.058,-0.08,1.023,13.428,-1.526,-9.949,-1.862,4.658,52.581
 14:18:53.499,eb:33:2e:f9:57:b5, 2085-97-139 255:98:255:2124,-0.053,-0.102,1.045,9.46,25.146,7.69,-1.747,4.796,52.564
 14:18:53.499,eb:33:2e:f9:57:b5, 2085-97-115 255:193:255:2061,-0.043,-0.057,1.039,6.104,49.5,22.766,-1.664,5.191,52.712
 14:18:53.531,eb:33:2e:f9:57:b5, 2085-97-199 255:217:255:2139,-0.009,-0.033,1.032,3.052,63.416,27.161,-1.615,5.773,52.943
 14:18:53.531,eb:33:2e:f9:57:b5, 2085-97-205 255:227:255:2171,-0.015,-0.017,1.076,4.272,73.486,23.438,-1.566,6.487,53.168
 14:18:53.531,eb:33:2e:f9:57:b5, 2085-97-210 255:215:255:2244,-0.042,-0.019,1.087,8.423,71.96,18.25,-1.494,7.224,53.339
 14:18:53.531,eb:33:2e:f9:57:b5, 2085-97-179 255:200:255:2273,-0.065,-0.031,1.106,12.878,72.51,15.259,-1.368,7.96,53.47
 14:18:53.591,eb:33:2e:f9:57:b5, 2085-97-63 255:201:255:2125,-0.101,-0.042,1.093,18.738,70.068,13.062,-1.198,8.679,53.575
 14:18:53.591,eb:33:2e:f9:57:b5, 2085-97-237 254:198:255:2110,-0.179,-0.011,1.032,19.775,68.665,9.644,-0.983,9.377,53.663
 14:18:53.591,eb:33:2e:f9:57:b5, 2085-97-48 254:115:255:2226,-0.303,-0.028,1.017,22.461,62.073,8.545,-0.769,10.036,53.729
 14:18:53.591,eb:33:2e:f9:57:b5, 2085-97-153 253:42:255:2064,-0.216,-0.098,1.084,36.682,35.339,13.55,-0.461,10.563,53.822
 14:18:53.619,eb:33:2e:f9:57:b5, 2085-97-234 254:240:255:2140,-0.172,-0.068,1.12,55.237,-18.066,14.343,0.044,10.536,53.976
 14:18:53.619,eb:33:2e:f9:57:b5, 2085-97-156 254:02:00:2045,-0.151,0.015,0.931,49.683,-8.179,11.78,0.593,10.453,54.108
 14:18:53.619,eb:33:2e:f9:57:b5, 2085-97-213 254:245:255:2079,-0.153,-0.005,1.043,50.903,-15.442,8.667,1.104,10.322,54.207
 14:18:53.619,eb:33:2e:f9:57:b5, 2085-97-212 254:57:00:1971,-0.13,0.014,0.959,51.636,-20.264,7.263,1.631,10.151,54.289
 14:18:53.650,eb:33:2e:f9:57:b5, 2085-97-249 254:66:00:2077,-0.117,0.032,0.999,50.903,-24.536,5.615,2.148,9.915,54.349
 14:18:53.650,eb:33:2e:f9:57:b5, 2085-97-57 255:95:00:2087,-0.089,0.038,1.009,52.612,-28.809,2.869,2.675,9.651,54.388
 14:18:53.650,eb:33:2e:f9:57:b5, 2085-97-89 255:105:00:2183,-0.08,0.05,1.045,55.115,-31.311,-0.427,3.219,9.344,54.382
 14:18:53.650,eb:33:2e:f9:57:b5, 2085-97-115 255:120:00:2153,-0.077,0.052,1.065,58.228,-28.748,-3.54,3.79,9.047,54.349
 14:18:53.709,eb:33:2e:f9:57:b5, 2085-97-69 255:126:00:2048,-0.088,0.062,1.033,61.157,-26.428,-6.287,4.384,8.773,54.283
 14:18:53.709,eb:33:2e:f9:57:b5, 2085-97-97 255:160:00:2096,-0.076,0.073,1,63.477,-26.489,-7.996,5.01,8.514,54.19
 14:18:53.709,eb:33:2e:f9:57:b5, 2085-97-131 255:194:00:2156,-0.063,0.086,1.038,64.026,-19.775,-10.376,5.641,8.289,54.08
 14:18:53.709,eb:33:2e:f9:57:b5, 2085-97-125 255:220:00:2107,-0.062,0.099,1.031,62.866,-6.958,-12.573,6.273,8.179,53.954
 14:18:53.739,eb:33:2e:f9:57:b5, 2085-97-127 255:222:00:2124,-0.09,0.104,1.046,61.829,3.906,-14.282,6.888,8.174,53.811
 14:18:53.739,eb:33:2e:f9:57:b5, 2085-97-67 255:209:00:2139,-0.097,0.103,1.042,61.523,12.024,-14.648,7.504,8.273,53.674
 14:18:53.739,eb:33:2e:f9:57:b5, 2085-97-35 255:222:00:2079,-0.127,0.104,1.035,62.256,17.822,-13.794,8.113,8.443,53.542
 14:18:53.739,eb:33:2e:f9:57:b5, 2085-97-213 254:204:00:2067,-0.146,0.104,1.001,63.293,17.456,-10.864,8.74,8.641,53.443
 14:18:53.769,eb:33:2e:f9:57:b5, 2085-97-232 254:195:00:2290,-0.124,0.092,1.054,66.101,10.925,-6.47,9.382,8.795,53.377
 14:18:53.769,eb:33:2e:f9:57:b5, 2085-97-09 255:201:00:2504,-0.119,0.097,1.179,73.303,7.019,-3.479,10.08,8.888,53.344
 14:18:53.769,eb:33:2e:f9:57:b5, 2085-97-19 255:175:00:2602,-0.135,0.094,1.257,84.229,5.493,-2.625,10.871,8.948,53.322
 14:18:53.769,eb:33:2e:f9:57:b5, 2085-97-219 254:168:00:2555,-0.159,0.083,1.261,97.351,2.075,0.305,11.788,8.998,53.317
 14:18:53.830,eb:33:2e:f9:57:b5, 2085-97-157 254:154:00:2512,-0.168,0.077,1.233,111.267,-7.202,4.578,12.843,8.965,53.333
 14:18:53.830,eb:33:2e:f9:57:b5, 2085-97-235 254:160:00:2683,-0.095,0.08,1.252,126.648,-22.4,8.179,14.046,8.8,53.366
 14:18:53.830,eb:33:2e:f9:57:b5, 2085-97-124 255:219:00:2913,-0.025,0.09,1.372,145.142,-29.602,8.972,15.414,8.514,53.383
 14:18:53.830,eb:33:2e:f9:57:b5, 2085-97-17 00:240:00:3109,0.034,0.112,1.479,166.565,-29.358,5.005,16.99,8.207,53.372
 14:18:53.861,eb:33:2e:f9:57:b5, 2085-97-113 00:237:00:3200,0.084,0.115,1.539,189.819,-17.395,-1.16,18.776,7.982,53.322
 14:18:53.861,eb:33:2e:f9:57:b5, 2085-97-11 01:208:00:3324,0.148,0.113,1.601,215.027,-2.441,-7.874,20.814,7.905,53.245
 14:18:53.861,eb:33:2e:f9:57:b5, 2085-97-104 01:169:00:3503,0.199,0.099,1.655,246.155,17.273,-17.517,23.126,8.031,53.146
 14:18:53.861,eb:33:2e:f9:57:b5, 2085-97-228 01:239:255:4127,0.338,0.05,1.849,284.851,27.039,-28.625,25.785,8.328,53.015
 14:18:53.890,eb:33:2e:f9:57:b5, 2085-97-03 04:219:255:4769,0.557,-0.023,2.201,335.144,53.711,-42.603,28.894,8.839,52.861
 14:18:53.890,eb:33:2e:f9:57:b5, 2085-97-104 04:29:00:4808,0.399,0.041,2.279,394.287,87.28,-60.059,32.552,9.761,52.8
 14:18:53.890,eb:33:2e:f9:57:b5, 2085-97-94 01:66:255:5778,-0.094,-0.049,2.521,466.736,75.806,-80.261,36.87,10.849,52.641
 14:18:53.890,eb:33:2e:f9:57:b5, 2085-97-93 253:15:04:7035,-0.49,0.086,3.172,532.715,82.336,-57.495,41.913,11.898,52.548
 14:18:53.949,eb:33:2e:f9:57:b5, 2085-97-89 252:215:10:7112,-0.39,0.877,3.56,573.853,86.426,-8.606,47.538,12.728,52.921
 14:18:53.949,eb:33:2e:f9:57:b5, 2085-97-189 253:238:11:5868,-0.114,1.609,3.198,580.994,59.753,-26.428,53.416,13.337,53.394
 14:18:53.949,eb:33:2e:f9:57:b5, 2085-97-120 255:156:06:5162,0.085,1.065,2.566,566.162,12.024,-62.622,59.156,13.909,53.339
 14:18:53.950,eb:33:2e:f9:57:b5, 2085-97-215 00:33:01:7042,0.125,0.381,3.049,516.052,21.729,-75.317,64.495,14.584,53.026
 14:18:53.980,eb:33:2e:f9:57:b5, 2085-97-236 01:32:01:7045,0.508,0.046,3.471,480.774,102.478,-47.18,69.516,15.414,53.432
 14:18:53.980,eb:33:2e:f9:57:b5, 2085-97-50 05:14:251:5887,0.498,-0.193,3.434,453.918,108.887,-48.035,74.372,16.21,54.355
 14:18:53.980,eb:33:2e:f9:57:b5, 2085-97-60 06:52:249:2327,1.039,-0.724,2.055,391.418,58.411,-43.701,78.772,16.886,55.157
 14:18:53.980,eb:33:2e:f9:57:b5, 2085-97-08 10:89:243:1120,1.969,-1.298,0.358,246.948,-7.69,-68.726,81.958,17.474,55.206
 14:18:54.009,eb:33:2e:f9:57:b5, 2085-97-32 00:251:250:-5529,-0.419,-2.156,1.164,187.561,325.073,-64.453,84.243,18.501,56.525
 14:18:54.009,eb:33:2e:f9:57:b5, 2085-97-88 07:172:249:1330,0.533,-0.336,-1.085,28.931,-179.199,-115.234,85.622,19.605,56.107
 14:18:54.009,eb:33:2e:f9:57:b5, 2085-97-78 03:02:235:1067,0.049,-1.885,0.653,-183.105,-14.343,-82.092,84.337,20.402,55.503
 14:18:54.009,eb:33:2e:f9:57:b5, 2085-97-08 00:224:239:1127,0.235,-2.503,0.316,-256.531,-138.672,-47.058,81.859,20.984,54.448
 14:18:54.070,eb:33:2e:f9:57:b5, 2085-97-227 03:242:245:2799,0.627,-1.592,0.985,-351.257,-76.904,-0.793,78.387,20.956,53.174
 14:18:54.070,eb:33:2e:f9:57:b5, 2085-97-112 04:229:248:2563,0.481,-1.027,1.525,-376.16,-28.87,-15.015,74.537,20.901,52.646
 14:18:54.070,eb:33:2e:f9:57:b5, 2085-97-136 03:254:248:1343,0.468,-0.859,0.956,-377.014,-45.044,-26.367,70.631,21,52.24
 14:18:54.070,eb:33:2e:f9:57:b5, 2085-97-98 04:103:249:600,0.615,-0.877,0.427,-358.826,-105.713,-37.231,66.682,21,51.367
 14:18:54.098,eb:33:2e:f9:57:b5, 2085-97-15 05:248:249:641,0.612,-0.781,0.272,-346.375,-164.246,-47.607,62.737,20.764,49.85
 14:18:54.098,eb:33:2e:f9:57:b5, 2085-97-143 04:170:249:1024,0.522,-0.758,0.383,-348.572,-201.05,-52.734,58.7,20.253,47.906
 14:18:54.098,eb:33:2e:f9:57:b5, 2085-97-185 03:14:249:1683,0.308,-0.829,0.66,-362.183,-219.971,-53.833,54.564,19.49,45.764
 14:18:54.098,eb:33:2e:f9:57:b5, 2085-97-44 01:234:247:2278,0.02,-0.945,0.95,-379.395,-233.887,-42.053,50.268,18.452,43.61
 14:18:54.129,eb:33:2e:f9:57:b5, 2085-97-247 255:250:247:2932,0.066,-1.042,1.292,-393.738,-218.811,-15.503,45.934,17.084,41.682
 14:18:54.129,eb:33:2e:f9:57:b5, 2085-97-74 01:180:249:3211,0.191,-0.912,1.534,-406.128,-161.682,13.428,41.622,15.677,40.358
 14:18:54.129,eb:33:2e:f9:57:b5, 2085-97-108 01:103:251:3031,0.18,-0.672,1.535,-415.527,-99.976,35.4,37.386,14.529,39.771
 14:18:54.129,eb:33:2e:f9:57:b5, 2085-97-207 01:07:253:2892,0.308,-0.479,1.44,-412.781,-67.383,48.401,33.19,13.623,39.677
 14:18:54.189,eb:33:2e:f9:57:b5, 2085-97-31 03:186:254:2862,0.452,-0.259,1.4,-398.376,-64.819,53.955,29.158,12.81,39.809
 14:18:54.189,eb:33:2e:f9:57:b5, 2085-113-58 00:220:231:-6840,0.496,-0.084,1.387,-378.479,-87.28,52.979,25.274,11.887,39.963
 14:18:54.189,eb:33:2e:f9:57:b5, 2085-97-44 04:147:255:2823,0.54,-0.051,1.383,-367.859,-106.201,51.331,23.423,11.332,40.007
 14:18:54.189,eb:33:2e:f9:57:b5, 2085-97-112 04:238:254:3053,0.551,-0.088,1.404,-350.098,-151.672,47.852,19.847,9.932,40.012
 14:18:54.250,eb:33:2e:f9:57:b5, 2085-97-65 04:172:254:3740,0.523,-0.165,1.625,-342.773,-186.462,47.058,16.364,8.135,39.963
 14:18:54.250,eb:33:2e:f9:57:b5, 2085-97-37 04:163:255:4493,0.522,-0.127,2.019,-343.079,-200.134,48.889,12.936,6.108,39.968
 14:18:54.250,eb:33:2e:f9:57:b5, 2085-97-36 04:215:01:5067,0.498,0.073,2.347,-342.163,-195.801,48.34,9.481,4.059,40.1
 14:18:54.250,eb:33:2e:f9:57:b5, 2085-97-169 03:221:04:5486,0.4,0.414,2.581,-332.275,-195.496,45.227,6.097,2.076,40.342
 14:18:54.252,eb:33:2e:f9:57:b5, 2085-97-167 02:201:07:5828,0.252,0.798,2.767,-311.89,-210.876,43.091,2.834,0.016,40.666
 14:18:54.252,eb:33:2e:f9:57:b5, 2085-97-92 01:79:10:6019,0.067,1.13,2.905,-286.194,-228.76,43.091,-0.176,-2.203,41.089
 14:18:54.252,eb:33:2e:f9:57:b5, 2085-97-144 255:241:12:6124,-0.181,1.447,2.97,-259.766,-229.675,45.166,-2.988,-4.504,41.649
 14:18:54.253,eb:33:2e:f9:57:b5, 2085-97-138 253:195:15:6092,-0.43,1.792,3,-234.07,-214.233,50.781,-5.565,-6.669,42.352
 14:18:54.309,eb:33:2e:f9:57:b5, 2085-97-179 251:239:18:5970,-0.647,2.157,2.94,-209.412,-201.782,52.734,-7.96,-8.657,43.176
 14:18:54.309,eb:33:2e:f9:57:b5, 2085-97-229 249:137:22:5683,-0.857,2.599,2.875,-186.096,-180.786,51.575,-10.129,-10.453,44.055
 14:18:54.309,eb:33:2e:f9:57:b5, 2085-97-86 248:115:25:5175,-1.075,3.015,2.672,-164.185,-146.79,51.208,-12.118,-11.948,44.94
 14:18:54.309,eb:33:2e:f9:57:b5, 2085-97-194 246:17:27:4253,-1.205,3.309,2.297,-146.973,-105.835,51.514,-13.903,-13.019,45.775
 14:18:54.339,eb:33:2e:f9:57:b5, 2085-97-30 246:214:27:3414,-1.269,3.433,1.858,-128.54,-67.566,52.307,-15.513,-13.694,46.544
 14:18:54.339,eb:33:2e:f9:57:b5, 2085-97-169 245:206:28:2772,-1.285,3.541,1.498,-102.844,-38.391,50.964,-16.875,-14.019,47.219
 14:18:54.339,eb:33:2e:f9:57:b5, 2085-97-226 245:64:29:2566,-1.238,3.641,1.286,-67.566,-24.048,45.959,-17.902,-14.156,47.807
 14:18:54.339,eb:33:2e:f9:57:b5, 2085-97-29 07:86:39:7887,-1.981,3.632,1.218,-27.588,-13.306,38.757,-18.506,-14.183,48.285
 14:18:54.369,eb:33:2e:f9:57:b5, 2085-97-183 236:109:25:4451,-1.498,2.801,3.945,126.831,205.75,32.227,-17.677,-13.865,48.054
 14:18:54.369,eb:33:2e:f9:57:b5, 2085-97-18 248:95:24:3229,-0.73,3.067,1.943,217.102,166.992,10.742,-15.705,-12.486,47.609
 14:18:54.369,eb:33:2e:f9:57:b5, 2085-97-191 02:05:02:2272,0.236,2.453,1.579,245.239,257.751,16.846,-13.189,-10.124,47.065
 14:18:54.369,eb:33:2e:f9:57:b5, 2085-97-224 248:182:250:4729,-0.681,-0.527,1.312,240.601,346.985,48.279,-10.64,-7.289,46.516
 14:18:54.518,eb:33:2e:f9:57:b5, 2085-97-206 255:67:248:3174,-0.354,-1.462,1.409,227.051,276.672,90.21,-8.394,-3.878,46.829
 14:18:54.518,eb:33:2e:f9:57:b5, 2085-97-109 247:65:02:2250,-0.921,-0.014,1.763,192.627,256.836,92.896,-6.279,-1.291,47.214
 14:18:54.518,eb:33:2e:f9:57:b5, 2085-97-183 250:130:05:2320,-0.446,0.705,0.796,144.653,121.643,81.848,-4.669,0.824,47.977
 14:18:54.518,eb:33:2e:f9:57:b5, 2085-97-244 00:146:04:1964,0.487,0.685,1.18,65.979,57.678,37.598,-3.625,1.681,48.4
 14:18:54.524,eb:33:2e:f9:57:b5, 2085-97-177 03:28:255:2886,0.133,0.02,1.222,21.179,48.218,29.785,-3.29,2.082,48.675
 14:18:54.524,eb:33:2e:f9:57:b5, 2085-97-105 00:133:255:2142,-0.06,0,0.993,6.226,131.531,42.175,-3.192,3.274,48.988
 14:18:54.524,eb:33:2e:f9:57:b5, 2085-97-33 254:180:00:1515,-0.262,-0.001,1.037,3.052,163.391,44.434,-3.126,4.768,49.312
 14:18:54.524,eb:33:2e:f9:57:b5, 2085-97-214 253:19:01:1379,-0.127,0.206,0.658,2.747,50.781,13.367,-3.087,5.883,49.51
 14:18:54.524,eb:33:2e:f9:57:b5, 2085-97-80 00:84:255:2356,0.077,-0.004,0.917,5.859,-36.865,-10.254,-3.027,5.757,49.477
 14:18:54.524,eb:33:2e:f9:57:b5, 2085-97-17 00:205:255:2108,-0.054,-0.054,1.137,2.319,18.982,2.38,-2.994,5.696,49.46
 14:18:54.524,eb:33:2e:f9:57:b5, 2085-97-64 255:220:255:1930,-0.108,-0.006,0.951,5.859,9.644,-6.897,-2.944,5.894,49.433
 14:18:54.524,eb:33:2e:f9:57:b5, 2085-97-100 255:119:255:2027,0.004,-0.048,0.953,10.559,-8.301,-17.273,-2.862,5.861,49.296
 14:18:54.549,eb:33:2e:f9:57:b5, 2085-97-70 00:42:255:2331,-0.03,-0.094,1.082,12.451,6.165,-14.221,-2.736,5.801,49.125
 14:18:54.549,eb:33:2e:f9:57:b5, 2085-97-104 255:136:255:2047,-0.102,-0.095,1.061,12.939,45.959,-4.639,-2.615,6.119,49.021
 14:18:54.549,eb:33:2e:f9:57:b5, 2085-97-72 255:203:255:2002,-0.07,-0.033,0.964,12.695,41.443,-2.686,-2.472,6.575,48.95
 14:18:54.549,eb:33:2e:f9:57:b5, 2085-97-37 255:151:255:2032,-0.132,-0.062,1.029,8.789,46.326,7.141,-2.368,6.976,48.939
 14:18:54.580,eb:33:2e:f9:57:b5, 2085-97-42 255:177:255:2010,-0.062,-0.041,0.956,6.775,45.593,11.658,-2.274,7.471,49.01
 14:18:54.580,eb:33:2e:f9:57:b5, 2085-97-145 255:183:255:2121,-0.083,-0.037,1.026,5.371,45.593,15.137,-2.208,7.916,49.12
 14:18:54.580,eb:33:2e:f9:57:b5, 2085-97-93 255:195:255:2073,-0.077,-0.042,1.007,5.249,49.622,17.883,-2.131,8.421,49.257
 14:18:54.580,eb:33:2e:f9:57:b5, 2085-97-130 255:187:255:2159,-0.064,-0.035,1.026,5.676,50.598,17.944,-2.065,8.926,49.406
 14:18:54.639,eb:33:2e:f9:57:b5, 2085-97-114 255:180:255:2156,-0.085,-0.041,1.06,8.789,51.575,18.311,-1.972,9.459,49.554
 14:18:54.639,eb:33:2e:f9:57:b5, 2085-97-19 255:193:255:2059,-0.116,-0.033,1.039,12.085,49.011,16.907,-1.84,9.954,49.702
 14:18:54.639,eb:33:2e:f9:57:b5, 2085-97-252 254:182:255:2119,-0.158,-0.025,1.024,13.245,42.664,13.916,-1.692,10.415,49.834
 14:18:54.639,eb:33:2e:f9:57:b5, 2085-97-136 254:166:255:1943,-0.192,-0.047,1.001,17.334,31.86,12.024,-1.522,10.8,49.944
 14:18:54.669,eb:33:2e:f9:57:b5, 2085-97-36 254:62:255:2022,-0.307,-0.054,1.021,21.362,15.625,14.16,-1.307,11.025,50.065
 14:18:54.669,eb:33:2e:f9:57:b5, 2085-97-154 253:252:254:2443,-0.229,-0.065,1.001,34.485,-19.592,19.348,-1,10.997,50.246
 14:18:54.669,eb:33:2e:f9:57:b5, 2085-97-108 254:228:255:1971,-0.188,-0.087,1.109,48.462,-31.006,21.057,-0.533,10.745,50.455
 14:18:54.669,eb:33:2e:f9:57:b5, 2085-97-161 254:216:255:2135,-0.161,-0.006,0.969,48.401,-38.452,16.907,-0.022,10.388,50.652
 14:18:54.699,eb:33:2e:f9:57:b5, 2085-97-174 254:254:255:2034,-0.15,-0.012,1.035,49.255,-36.56,13.672,0.494,10.02,50.812
 14:18:54.699,eb:33:2e:f9:57:b5, 2085-97-35 255:40:00:2099,-0.093,0.013,0.992,48.828,-41.382,10.62,1,9.63,50.938
 14:18:54.699,eb:33:2e:f9:57:b5, 2085-97-66 255:62:00:2172,-0.095,0.026,1.046,48.889,-38.94,6.958,1.5,9.229,51.021
 14:18:54.699,eb:33:2e:f9:57:b5, 2085-97-60 255:47:00:2170,-0.072,0.024,1.058,50.659,-37.476,3.54,2,8.849,51.064
 14:18:54.759,eb:33:2e:f9:57:b5, 2085-97-142 255:104:00:2141,-0.062,0.035,1.066,53.528,-36.133,1.099,2.538,8.481,51.081
 14:18:54.759,eb:33:2e:f9:57:b5, 2085-97-107 255:122:00:2065,-0.071,0.058,1.019,54.565,-31.677,-2.197,3.076,8.146,51.064
 14:18:54.759,eb:33:2e:f9:57:b5, 2085-97-121 255:131:00:2117,-0.073,0.064,1.011,52.246,-26.672,-4.7,3.62,7.861,51.015
 14:18:54.759,eb:33:2e:f9:57:b5, 2085-97-79 255:110:00:2161,-0.084,0.062,1.045,52.795,-24.78,-7.202,4.136,7.619,50.944
 14:18:54.791,eb:33:2e:f9:57:b5, 2085-97-133 255:135:00:2147,-0.048,0.056,1.05,55.42,-27.1,-8.362,4.686,7.366,50.845
 14:18:54.791,eb:33:2e:f9:57:b5, 2085-97-156 255:187:00:2022,-0.046,0.08,1.022,55.481,-20.996,-8.423,5.235,7.13,50.746
 14:18:54.791,eb:33:2e:f9:57:b5, 2085-97-154 255:211:00:2025,-0.049,0.097,0.988,54.688,-16.052,-9.216,5.795,6.954,50.641
 14:18:54.791,eb:33:2e:f9:57:b5, 2085-97-171 255:222:00:2100,-0.051,0.11,0.989,52.673,-9.155,-10.01,6.323,6.844,50.532
 14:18:54.792,eb:33:2e:f9:57:b5, 2085-113-58 00:31:225:-5445,-0.063,0.102,1.05,52.307,-0.854,-10.315,6.85,6.817,50.427
 14:18:54.820,eb:33:2e:f9:57:b5, 2085-97-90 255:173:00:2234,-0.081,0.092,1.08,53.467,1.282,-10.071,7.114,6.823,50.372
 14:18:54.820,eb:33:2e:f9:57:b5, 2085-97-100 255:208:00:2144,-0.103,0.09,1.079,58.289,2.258,-9.705,7.679,6.855,50.279
 14:18:54.820,eb:33:2e:f9:57:b5, 2085-97-229 254:192:00:2058,-0.145,0.103,1.008,60.791,2.38,-8.118,8.273,6.899,50.191
 14:18:54.820,eb:33:2e:f9:57:b5, 2085-97-243 254:155:00:2347,-0.112,0.083,1.059,65.308,-9.644,-6.47,8.91,6.877,50.109
 14:18:54.909,eb:33:2e:f9:57:b5, 2085-97-88 255:153:00:2658,-0.061,0.077,1.221,75.073,-17.578,-4.883,9.608,6.74,50.037
 14:18:54.909,eb:33:2e:f9:57:b5, 2085-97-149 255:168:00:2796,-0.069,0.079,1.35,89.844,-19.348,-5.188,10.443,6.564,49.955
 14:18:54.909,eb:33:2e:f9:57:b5, 2085-97-56 255:142:00:2660,-0.098,0.077,1.334,105.713,-18.86,-5.066,11.426,6.389,49.872
 14:18:54.909,eb:33:2e:f9:57:b5, 2085-97-47 255:121:00:2731,-0.09,0.068,1.3,122.803,-28.32,-3.174,12.579,6.169,49.785
 14:18:54.911,eb:33:2e:f9:57:b5, 2085-97-158 255:108:00:3033,-0.009,0.052,1.397,143.433,-39.185,-2.319,13.914,5.834,49.686
 14:18:54.911,eb:33:2e:f9:57:b5, 2085-97-70 00:145:00:3150,0.074,0.061,1.511,169.556,-37.598,-3.479,15.491,5.466,49.565
 14:18:54.911,eb:33:2e:f9:57:b5, 2085-97-194 00:162:00:3221,0.106,0.078,1.571,195.129,-27.527,-9.705,17.325,5.164,49.411
 14:18:54.911,eb:33:2e:f9:57:b5, 2085-97-17 01:137:00:3343,0.18,0.079,1.582,222.351,-16.418,-18.188,19.429,5.004,49.208
 14:18:54.939,eb:33:2e:f9:57:b5, 2085-97-92 01:88:00:3434,0.246,0.053,1.665,253.296,-3.479,-27.893,21.813,4.988,48.955
 14:18:54.939,eb:33:2e:f9:57:b5, 2085-97-143 02:246:255:3939,0.392,0.012,1.849,290.894,15.198,-39.49,24.549,5.169,48.658
 14:18:54.939,eb:33:2e:f9:57:b5, 2085-97-103 03:230:255:4210,0.421,0,1.964,337.83,44.8,-53.528,27.697,5.658,48.373
 14:18:54.939,eb:33:2e:f9:57:b5, 2085-97-211 02:121:254:4810,0.247,-0.069,2.197,398.865,52.368,-74.219,31.393,6.422,48.043
 14:18:55.028,eb:33:2e:f9:57:b5, 2085-97-75 00:21:254:5451,-0.303,-0.244,2.529,467.773,59.998,-76.965,35.744,7.311,47.681
 14:18:55.029,eb:33:2e:f9:57:b5, 2085-97-122 252:91:02:6620,-0.383,-0.008,2.943,532.898,67.932,-45.288,40.781,8.218,47.571
 14:18:55.029,eb:33:2e:f9:57:b5, 2085-97-153 252:54:10:6643,-0.343,0.842,3.302,580.75,48.035,1.648,46.423,8.767,47.851
 14:18:55.029,eb:33:2e:f9:57:b5, 2085-97-242 253:147:11:5678,-0.146,1.509,2.948,592.712,-18.188,-9.155,52.328,8.877,47.977
 14:18:55.032,eb:33:2e:f9:57:b5, 2085-97-96 255:178:06:5900,-0.039,1.234,2.541,577.942,-68.359,-44.373,58.156,8.839,47.45
 14:18:55.032,eb:33:2e:f9:57:b5, 2085-97-172 00:166:01:7907,0.193,0.515,3.444,533.02,-32.043,-56.58,63.627,8.992,46.637
 14:18:55.032,eb:33:2e:f9:57:b5, 2085-97-211 00:111:00:7465,0.366,0.021,3.863,495.544,87.463,-44.128,68.741,9.586,46.736
 14:18:55.032,eb:33:2e:f9:57:b5, 2085-97-85 04:94:251:6630,0.38,-0.142,3.622,485.474,96.68,-43.091,73.713,10.311,47.571
 14:18:55.090,eb:33:2e:f9:57:b5, 2085-97-133 04:12:247:2701,0.636,-0.965,2.165,431.274,45.044,-32.227,78.409,10.904,48.285
 14:18:55.090,eb:33:2e:f9:57:b5, 2085-97-198 09:36:247:-703,1.67,-1.208,0.138,288.757,-36.56,-39.49,82.002,11.234,48.032
 14:18:55.090,eb:33:2e:f9:57:b5, 2085-97-18 08:146:248:-3924,-0.335,-1.591,1.068,124.573,270.691,-79.041,83.919,11.986,48.4
 14:18:55.090,eb:33:2e:f9:57:b5, 2085-97-93 05:178:252:1422,0.466,0.042,-1.622,46.692,-246.582,-173.218,85.078,13.277,48.148
 14:18:55.121,eb:33:2e:f9:57:b5, 2085-97-162 02:112:238:1476,0.163,-1.424,0.965,-212.097,29.602,-111.877,83.743,14.474,47.131
 14:18:55.121,eb:33:2e:f9:57:b5, 2085-97-209 254:25:239:1271,-0.066,-2.562,0.748,-252.747,-101.501,-110.107,81.227,15.595,46.489
 14:18:55.121,eb:33:2e:f9:57:b5, 2085-97-210 01:126:245:2952,0.41,-1.668,1.059,-341.37,-80.75,-62.317,77.986,16.21,45.027
 14:18:55.121,eb:33:2e:f9:57:b5, 2085-97-171 03:170:247:2894,0.38,-1.15,1.543,-392.883,31.738,-50.049,74.163,16.705,44.83
 14:18:55.150,eb:33:2e:f9:57:b5, 2085-97-145 02:60:248:1824,0.338,-0.989,1.155,-399.109,43.823,-54.138,70.23,17.336,45.055
 14:18:55.150,eb:33:2e:f9:57:b5, 2085-97-101 03:160:249:1124,0.514,-0.919,0.671,-378.662,12.756,-56.641,66.33,17.963,45.115
 14:18:55.150,eb:33:2e:f9:57:b5, 2085-97-142 04:185:251:1145,0.57,-0.648,0.529,-353.699,-36.011,-64.331,62.584,18.435,44.692
 14:18:55.150,eb:33:2e:f9:57:b5, 2085-97-63 04:136:251:1077,0.515,-0.507,0.564,-342.651,-63.66,-68.787,58.892,18.748,43.863
 14:18:55.179,eb:33:2e:f9:57:b5, 2085-97-50 04:106:250:1063,0.536,-0.638,0.503,-347.473,-82.092,-67.688,55.184,18.896,42.825
 14:18:55.179,eb:33:2e:f9:57:b5, 2085-97-52 04:240:249:1321,0.504,-0.736,0.568,-366.211,-87.585,-61.462,51.306,18.875,41.699
 14:18:55.179,eb:33:2e:f9:57:b5, 2085-97-232 03:15:250:1762,0.472,-0.761,0.747,-391.235,-77.82,-48.706,47.252,18.732,40.682
 14:18:55.179,eb:33:2e:f9:57:b5, 2085-97-169 03:174:250:2000,0.458,-0.71,0.934,-415.222,-63.416,-33.875,42.979,18.512,39.869
 14:18:55.240,eb:33:2e:f9:57:b5, 2085-97-204 03:172:251:2110,0.507,-0.604,0.996,-432.434,-55.542,-17.883,38.578,18.221,39.287
 14:18:55.240,eb:33:2e:f9:57:b5, 2085-97-98 04:224:252:2300,0.573,-0.468,1.079,-438.538,-55.847,-3.113,34.085,17.825,38.875
 14:18:55.240,eb:33:2e:f9:57:b5, 2085-97-224 04:27:254:2484,0.649,-0.31,1.155,-431.335,-66.406,8.85,29.658,17.287,38.589
 14:18:55.240,eb:33:2e:f9:57:b5, 2085-97-126 05:11:255:2808,0.7,-0.174,1.287,-411.926,-79.834,19.653,25.373,16.545,38.381
 14:18:55.300,eb:33:2e:f9:57:b5, 2085-97-178 05:138:255:3047,0.727,-0.085,1.427,-378.418,-100.769,30.64,21.412,15.612,38.276
 14:18:55.300,eb:33:2e:f9:57:b5, 2085-97-224 05:218:255:3373,0.746,-0.033,1.558,-346.497,-131.104,41.138,17.781,14.381,38.249
 14:18:55.300,eb:33:2e:f9:57:b5, 2085-97-252 05:65:00:3885,0.741,-0.006,1.775,-327.148,-162.781,49.805,14.442,12.816,38.309
 14:18:55.300,eb:33:2e:f9:57:b5, 2085-97-217 05:209:01:4370,0.721,0.112,2.004,-319.885,-182.983,55.42,11.212,10.992,38.474
 14:18:55.302,eb:33:2e:f9:57:b5, 2085-97-130 05:27:04:5067,0.631,0.362,2.298,-315.308,-205.017,58.105,8.064,8.981,38.754
 14:18:55.302,eb:33:2e:f9:57:b5, 2085-97-81 04:108:06:5689,0.425,0.666,2.639,-305.542,-226.746,59.814,4.96,6.751,39.139
 14:18:55.302,eb:33:2e:f9:57:b5, 2085-97-139 02:101:08:6167,0.234,0.925,2.893,-288.94,-244.568,65.552,2.005,4.351,39.672
 14:18:55.302,eb:33:2e:f9:57:b5, 2085-97-63 01:221:10:6524,0.087,1.191,3.126,-269.409,-237.732,72.632,-0.807,1.912,40.386
 14:18:55.449,eb:33:2e:f9:57:b5, 2085-97-55 00:249:13:6207,-0.038,1.546,3.163,-254.028,-201.477,77.698,-3.466,-0.225,41.276
 14:18:55.449,eb:33:2e:f9:57:b5, 2085-97-89 255:18:17:5397,-0.136,1.939,2.813,-239.136,-180.481,72.449,-6.031,-2.016,42.226
 14:18:55.449,eb:33:2e:f9:57:b5, 2085-97-00 254:231:19:4921,-0.393,2.324,2.514,-222.961,-195.435,55.298,-8.443,-3.768,43.138
 14:18:55.449,eb:33:2e:f9:57:b5, 2085-97-157 251:19:21:4729,-0.687,2.595,2.337,-207.52,-223.938,37.964,-10.739,-5.773,43.989
 14:18:55.569,eb:33:2e:f9:57:b5, 2085-97-96 249:81:21:4914,-0.988,2.644,2.342,-190.002,-228.271,28.87,-12.876,-7.938,44.835
 14:18:55.569,eb:33:2e:f9:57:b5, 2085-97-107 247:25:22:4705,-1.093,2.711,2.369,-171.936,-184.265,30.884,-14.881,-9.871,45.681
 14:18:55.569,eb:33:2e:f9:57:b5, 2085-97-116 247:237:23:3988,-1.054,2.844,2.15,-151.001,-105.408,38.818,-16.683,-11.129,46.456
 14:18:55.569,eb:33:2e:f9:57:b5, 2085-97-196 247:246:26:2983,-1.01,3.182,1.692,-119.446,-43.457,38.879,-18.204,-11.64,47.071
 14:18:55.571,eb:33:2e:f9:57:b5, 2085-97-210 247:76:28:2224,-1.06,3.5,1.276,-76.66,-40.466,29.541,-19.292,-11.882,47.538
 14:18:55.571,eb:33:2e:f9:57:b5, 2085-97-20 247:28:27:2026,-1.166,3.478,0.995,-29.846,-66.162,16.479,-19.907,-12.321,47.955
 14:18:55.571,eb:33:2e:f9:57:b5, 2085-97-86 246:248:25:2525,-0.847,3.315,1.072,15.259,-70.496,6.958,-20.072,-12.942,48.329
 14:18:55.571,eb:33:2e:f9:57:b5, 2085-97-43 226:173:253:16241,-2.815,3.347,1.607,153.748,-179.26,-153.503,-19.55,-13.733,48.461
 14:18:55.574,eb:33:2e:f9:57:b5, 2085-97-241 239:98:14:4489,0.144,2.855,2.581,257.812,222.839,4.089,-17.007,-12.892,47.538
 14:18:55.574,eb:33:2e:f9:57:b5, 2085-97-91 04:90:254:1172,0.369,1.184,1.064,261.658,273.254,28.748,-14.15,-10.629,47.032
 14:18:55.574,eb:33:2e:f9:57:b5, 2085-97-231 247:76:250:2619,-1.09,0,1.178,255.798,336.304,83.923,-11.525,-7.509,46.851
 14:18:55.574,eb:33:2e:f9:57:b5, 2085-97-65 254:100:247:3337,-0.272,-1.888,1.45,264.648,221.497,136.353,-9.014,-4.708,47.455
 14:18:55.576,eb:33:2e:f9:57:b5, 2085-97-196 247:04:03:3427,-1.203,-0.14,1.927,252.136,233.398,117.554,-6.487,-2.39,48.334
 14:18:55.576,eb:33:2e:f9:57:b5, 2085-97-59 249:60:05:2485,-0.624,0.607,1.005,193.848,151.428,133.728,-4.4,-0.209,49.438
 14:18:55.576,eb:33:2e:f9:57:b5, 2085-97-233 254:111:08:1828,0.246,0.807,1.458,112.976,112.488,71.899,-2.889,1.143,50.383
 14:18:55.576,eb:33:2e:f9:57:b5, 2085-97-225 03:35:00:2684,0.249,0.412,0.919,35.339,8.789,21.301,-2.318,1.692,50.773
 14:18:55.630,eb:33:2e:f9:57:b5, 2085-97-239 00:136:00:1946,0.026,0.091,1.176,10.864,89.905,28.381,-2.104,2.274,50.982
 14:18:55.630,eb:33:2e:f9:57:b5, 2085-97-205 255:241:255:1985,-0.051,0.002,1.016,2.502,3.418,-5.249,-1.917,3.977,51.471
 14:18:55.630,eb:33:2e:f9:57:b5, 2085-97-134 255:157:255:2017,-0.055,-0.036,0.988,7.263,-9.338,-16.174,-1.862,3.906,51.35
 14:18:55.630,eb:33:2e:f9:57:b5, 2085-97-193 255:161:255:2047,-0.012,-0.05,0.986,9.888,-11.841,-18.25,-1.758,3.796,51.174
 14:18:55.632,eb:33:2e:f9:57:b5, 2085-97-230 255:157:255:2090,-0.042,-0.045,1.02,10.132,-9.033,-15.381,-1.653,3.675,51.01
 14:18:55.632,eb:33:2e:f9:57:b5, 2085-97-140 255:137:255:2039,-0.053,-0.06,1.003,10.132,-2.38,-12.146,-1.538,3.62,50.872
 14:18:55.632,eb:33:2e:f9:57:b5, 2085-97-192 255:170:255:2052,-0.038,-0.047,0.983,10.254,-2.075,-8.179,-1.434,3.604,50.773
 14:18:55.632,eb:33:2e:f9:57:b5, 2085-113-81 00:164:115:-596,-0.041,-0.062,1.018,10.071,4.944,-3.601,-1.318,3.615,50.713
 14:18:55.691,eb:33:2e:f9:57:b5, 2085-97-188 255:168:255:2074,-0.006,-0.052,1.018,9.155,11.353,0.183,-1.269,3.658,50.702
 14:18:55.691,eb:33:2e:f9:57:b5, 2085-97-20 00:202:255:2130,0.007,-0.022,1.019,7.874,18.494,5.005,-1.187,3.812,50.724
 14:18:55.691,eb:33:2e:f9:57:b5, 2085-97-20 00:193:255:2175,0.01,-0.033,1.056,5.005,35.095,14.221,-1.11,4.081,50.806
 14:18:55.691,eb:33:2e:f9:57:b5, 2085-97-247 255:195:255:2157,-0.015,-0.02,1.062,3.357,55.115,20.752,-1.071,4.554,50.971
 14:18:55.779,eb:33:2e:f9:57:b5, 2085-97-232 255:214:255:2158,-0.011,-0.017,1.039,4.578,60.669,23.926,-1.011,5.158,51.174
 14:18:55.779,eb:33:2e:f9:57:b5, 2085-97-169 255:216:255:2173,-0.051,-0.016,1.067,7.996,62.378,23.56,-0.939,5.779,51.389
 14:18:55.779,eb:33:2e:f9:57:b5, 2085-97-144 255:221:255:2196,-0.054,-0.019,1.061,13.306,56.152,19.897,-0.813,6.389,51.586
 14:18:55.779,eb:33:2e:f9:57:b5, 2085-97-85 255:235:255:2088,-0.113,-0.005,1.057,16.907,54.626,13.611,-0.654,6.943,51.729
 14:18:55.781,eb:33:2e:f9:57:b5, 2085-97-57 255:207:255:2114,-0.141,-0.013,1.005,17.7,49.744,9.399,-0.461,7.487,51.828
 14:18:55.781,eb:33:2e:f9:57:b5, 2085-97-137 254:92:255:2251,-0.22,-0.046,1.058,21.484,45.776,9.338,-0.264,7.965,51.899
 14:18:55.781,eb:33:2e:f9:57:b5, 2085-97-229 253:78:255:2143,-0.268,-0.08,1.107,33.447,26.428,12.451,0.038,8.333,52.004
 14:18:55.781,eb:33:2e:f9:57:b5, 2085-97-195 254:168:255:2302,-0.153,-0.054,1.027,45.837,-13.489,13.184,0.45,8.405,52.141
 14:18:55.783,eb:33:2e:f9:57:b5, 2085-97-213 254:28:00:1965,-0.139,-0.011,1.028,49.805,-17.151,10.193,0.961,8.245,52.256
 14:18:55.783,eb:33:2e:f9:57:b5, 2085-97-227 254:09:00:2072,-0.136,0.011,0.978,49.194,-25.269,7.324,1.456,8.031,52.339
 14:18:55.783,eb:33:2e:f9:57:b5, 2085-97-251 254:36:00:2032,-0.107,0.007,1.006,50.476,-31.555,5.554,1.972,7.745,52.399
 14:18:55.783,eb:33:2e:f9:57:b5, 2085-97-98 255:88:00:2115,-0.053,0.028,1.005,51.453,-38.086,3.662,2.488,7.388,52.438
 14:18:55.870,eb:33:2e:f9:57:b5, 2085-97-171 255:107:00:2167,-0.033,0.051,1.05,52.612,-37.109,0.122,3.021,7.015,52.443
 14:18:55.870,eb:33:2e:f9:57:b5, 2085-97-205 255:120:00:2194,-0.029,0.054,1.069,55.603,-36.194,-3.662,3.56,6.652,52.41
 14:18:55.870,eb:33:2e:f9:57:b5, 2085-97-194 255:153:00:2062,-0.04,0.063,1.036,58.228,-31.067,-6.409,4.142,6.328,52.339
 14:18:55.870,eb:33:2e:f9:57:b5, 2085-97-166 255:161:00:2064,-0.042,0.078,1.002,59.204,-27.649,-8.789,4.73,6.042,52.24
 14:18:55.872,eb:33:2e:f9:57:b5, 2085-97-169 255:165:00:2081,-0.04,0.08,1.02,59.326,-23.132,-10.681,5.328,5.795,52.125
 14:18:55.872,eb:33:2e:f9:57:b5, 2085-97-178 255:186:00:2115,-0.014,0.088,1.011,60.059,-18.677,-12.268,5.922,5.603,51.993
 14:18:55.872,eb:33:2e:f9:57:b5, 2085-97-18 00:233:00:2276,-0.009,0.104,1.081,60.852,-9.216,-14.893,6.537,5.477,51.844
 14:18:55.872,eb:33:2e:f9:57:b5, 2085-97-204 255:239:00:2195,-0.027,0.109,1.095,60.364,12.39,-18.066,7.136,5.521,51.674
 14:18:55.901,eb:33:2e:f9:57:b5, 2085-97-181 255:214:00:2268,-0.059,0.112,1.084,62.256,22.766,-22.339,7.762,5.729,51.487
 14:18:55.901,eb:33:2e:f9:57:b5, 2085-97-65 255:175:00:2251,-0.114,0.092,1.111,64.026,33.752,-21.79,8.383,6.048,51.301
 14:18:55.901,eb:33:2e:f9:57:b5, 2085-97-00 255:164:00:2218,-0.125,0.083,1.09,66.895,34.79,-18.677,9.047,6.427,51.141
 14:18:55.901,eb:33:2e:f9:57:b5, 2085-97-249 254:161:00:2298,-0.133,0.081,1.101,71.228,29.114,-11.23,9.734,6.762,51.037
 14:18:55.959,eb:33:2e:f9:57:b5, 2085-97-231 254:165:00:2400,-0.142,0.08,1.142,78.613,21.973,-4.761,10.492,7.031,51.004
 14:18:55.959,eb:33:2e:f9:57:b5, 2085-97-198 254:144:00:2497,-0.163,0.074,1.2,90.271,12.39,0.488,11.343,7.196,51.01
 14:18:55.959,eb:33:2e:f9:57:b5, 2085-97-186 254:131:00:2592,-0.155,0.068,1.236,102.966,1.343,6.226,12.332,7.267,51.059
 14:18:55.959,eb:33:2e:f9:57:b5, 2085-97-04 255:135:00:2832,-0.082,0.057,1.315,119.446,-12.329,10.803,13.447,7.185,51.136
 14:18:55.988,eb:33:2e:f9:57:b5, 2085-97-172 255:168:00:3131,0,0.074,1.461,141.174,-20.691,10.681,14.777,6.987,51.196
 14:18:55.988,eb:33:2e:f9:57:b5, 2085-97-45 00:204:00:3263,0.06,0.095,1.573,165.833,-17.517,6.104,16.32,6.773,51.229
 14:18:55.988,eb:33:2e:f9:57:b5, 2085-97-183 00:184:00:3403,0.092,0.1,1.624,191.467,-7.507,-1.77,18.133,6.647,51.213
 14:18:55.988,eb:33:2e:f9:57:b5, 2085-97-14 01:165:00:3463,0.165,0.079,1.675,218.567,9.094,-7.568,20.193,6.68,51.169
 14:18:56.048,eb:33:2e:f9:57:b5, 2085-97-150 01:96:00:3594,0.238,0.079,1.726,248.657,26.733,-16.052,22.544,6.899,51.108
 14:18:56.048,eb:33:2e:f9:57:b5, 2085-97-25 02:17:00:3960,0.354,0.025,1.835,286.133,42.542,-26.306,25.225,7.3,51.042
 14:18:56.048,eb:33:2e:f9:57:b5, 2085-97-239 03:183:255:4729,0.554,-0.021,2.131,335.571,60.547,-40.894,28.356,7.91,50.955
 14:18:56.048,eb:33:2e:f9:57:b5, 2085-97-52 04:79:255:5026,0.408,-0.06,2.372,398.865,89.172,-58.899,32.036,8.833,50.894
 14:18:56.141,eb:33:2e:f9:57:b5, 2085-97-214 01:116:254:5802,0.03,-0.144,2.643,475.647,80.811,-79.285,36.442,9.948,50.762
 14:18:56.141,eb:33:2e:f9:57:b5, 2085-97-145 254:33:03:6877,-0.205,0.022,3.109,550.11,78.064,-62.683,41.605,11.019,50.663
 14:18:56.141,eb:33:2e:f9:57:b5, 2085-97-29 253:78:10:6839,-0.311,0.762,3.386,600.159,68.542,-16.174,47.439,11.843,50.933
 14:18:56.141,eb:33:2e:f9:57:b5, 2085-97-120 253:85:11:6709,-0.27,1.591,3.384,610.657,21.79,-32.227,53.564,12.294,51.185
 14:18:56.141,eb:33:2e:f9:57:b5, 2085-97-127 254:55:06:5766,-0.041,1.098,2.827,605.591,-15.991,-72.51,59.617,12.766,50.916
 14:18:56.141,eb:33:2e:f9:57:b5, 2085-97-04 01:160:255:7513,0.207,0.498,3.191,551.697,-10.132,-85.449,65.319,13.376,50.35
 14:18:56.141,eb:33:2e:f9:57:b5, 2085-97-97 01:234:255:7415,0.553,-0.094,3.736,500.061,102.6,-57.861,70.543,14.216,50.51
 14:18:56.141,eb:33:2e:f9:57:b5, 2085-97-12 05:133:248:5886,0.55,-0.347,3.564,463.684,112.122,-58.838,75.547,15.095,51.394
 14:18:56.144,eb:33:2e:f9:57:b5, 2085-97-83 05:00:245:1425,1.013,-1.256,1.933,384.094,39.062,-52.856,79.915,15.837,52.147
 14:18:56.144,eb:33:2e:f9:57:b5, 2085-97-243 10:244:240:2312,1.917,-1.597,-0.162,214.905,-0.793,-66.711,82.892,16.425,52.037
 14:18:56.144,eb:33:2e:f9:57:b5, 2085-97-147 252:58:254:-5133,0.241,-1.817,-0.647,191.772,206.299,-68.481,85.04,17.402,53.937
 14:18:56.144,eb:33:2e:f9:57:b5, 2085-97-44 06:243:246:1940,0.396,-0.362,-0.135,-33.569,-135.559,-105.591,85.809,18.512,52.603
 14:18:56.200,eb:33:2e:f9:57:b5, 2085-97-53 02:242:233:958,-0.07,-2.067,0.597,-198.608,-43.396,-90.027,84.21,19.319,52.339
 14:18:56.200,eb:33:2e:f9:57:b5, 2085-97-27 00:37:240:1215,0.293,-2.453,0.147,-259.094,-171.936,-46.509,81.612,19.83,50.911
 14:18:56.200,eb:33:2e:f9:57:b5, 2085-97-142 03:30:245:2890,0.556,-1.617,1.171,-357.788,-88.623,-1.465,78.019,19.742,49.466
 14:18:56.200,eb:33:2e:f9:57:b5, 2085-97-21 04:199:247:2611,0.448,-1.158,1.486,-385.01,-48.096,-13.306,74.103,19.644,48.708
 14:18:56.348,eb:33:2e:f9:57:b5, 2085-97-83 03:33:248:1468,0.422,-0.987,1.01,-392.273,-49.561,-23.987,70.032,19.682,48.197
 14:18:56.348,eb:33:2e:f9:57:b5, 2085-97-13 04:231:248:716,0.582,-0.959,0.437,-379.089,-100.403,-35.4,65.956,19.666,47.269
 14:18:56.348,eb:33:2e:f9:57:b5, 2085-97-178 04:232:249:912,0.533,-0.804,0.383,-369.507,-157.288,-46.57,61.826,19.418,45.829
 14:18:56.348,eb:33:2e:f9:57:b5, 2085-113-81 00:160:106:12848,0.48,-0.771,0.51,-372.07,-193.909,-55.237,57.64,18.929,43.978
 14:18:56.348,eb:33:2e:f9:57:b5, 2085-97-123 03:42:249:1537,0.352,-0.81,0.617,-377.625,-205.261,-58.105,55.486,18.589,42.946
 14:18:56.412,eb:33:2e:f9:57:b5, 2085-97-105 01:06:248:1953,-0.012,-0.921,0.871,-393.005,-217.041,-57.068,51.114,17.754,40.842
 14:18:56.412,eb:33:2e:f9:57:b5, 2085-97-21 255:93:247:2644,-0.1,-1.068,1.102,-407.654,-226.379,-35.461,46.615,16.578,38.809
 14:18:56.412,eb:33:2e:f9:57:b5, 2085-97-248 255:08:249:3238,0.055,-1.023,1.479,-419.006,-184.082,-10.254,42.138,15.222,37.194
 14:18:56.412,eb:33:2e:f9:57:b5, 2085-97-121 00:32:251:3152,0.036,-0.728,1.577,-427.673,-113.77,10.315,37.705,14.084,36.288
 14:18:56.439,eb:33:2e:f9:57:b5, 2085-97-85 00:188:252:2952,0.087,-0.508,1.478,-422.974,-72.815,18.982,33.376,13.271,35.914
 14:18:56.439,eb:33:2e:f9:57:b5, 2085-97-70 01:87:254:2901,0.227,-0.304,1.417,-403.259,-67.322,21.24,29.196,12.585,35.755
 14:18:56.439,eb:33:2e:f9:57:b5, 2085-97-63 02:46:255:2965,0.3,-0.136,1.428,-376.77,-87.463,17.09,25.285,11.805,35.59
 14:18:56.439,eb:33:2e:f9:57:b5, 2085-97-73 02:123:254:2993,0.275,-0.122,1.465,-354.736,-126.648,9.949,21.583,10.75,35.294
 14:18:56.441,eb:33:2e:f9:57:b5, 2085-97-37 02:25:253:3302,0.258,-0.286,1.51,-347.717,-172.241,7.935,18.045,9.278,34.882
 14:18:56.441,eb:33:2e:f9:57:b5, 2085-97-240 01:242:252:3897,0.234,-0.398,1.747,-353.333,-197.51,13.184,14.485,7.427,34.492
 14:18:56.441,eb:33:2e:f9:57:b5, 2085-97-00 02:91:254:4699,0.278,-0.316,2.082,-357.605,-206.604,23.01,10.909,5.4,34.261
 14:18:56.441,eb:33:2e:f9:57:b5, 2085-97-67 02:06:01:5607,0.242,-0.051,2.524,-352.661,-205.811,29.724,7.322,3.312,34.25
 14:18:56.498,eb:33:2e:f9:57:b5, 2085-97-140 01:239:03:6152,0.135,0.312,2.886,-339.6,-205.322,33.325,3.856,1.247,34.404
 14:18:56.498,eb:33:2e:f9:57:b5, 2085-97-168 00:214:06:6572,0.026,0.667,3.116,-320.251,-206.787,38.513,0.516,-0.835,34.733
 14:18:56.498,eb:33:2e:f9:57:b5, 2085-97-190 255:03:10:6653,-0.092,1.048,3.261,-296.631,-191.345,45.654,-2.609,-2.812,35.233
 14:18:56.499,eb:33:2e:f9:57:b5, 2085-97-214 254:48:13:6261,-0.186,1.452,3.178,-270.02,-179.626,50.659,-5.548,-4.603,35.898
 14:18:56.503,eb:33:2e:f9:57:b5, 2085-97-70 254:143:16:5810,-0.257,1.852,2.93,-243.53,-187.744,51.025,-8.229,-6.339,36.672
 14:18:56.503,eb:33:2e:f9:57:b5, 2085-97-126 253:05:20:5744,-0.373,2.291,2.806,-216.492,-205.872,48.523,-10.712,-8.201,37.551
 14:18:56.503,eb:33:2e:f9:57:b5, 2085-97-89 252:72:23:5672,-0.572,2.706,2.819,-186.707,-205.566,47.424,-12.931,-10.129,38.513
 14:18:56.503,eb:33:2e:f9:57:b5, 2085-97-72 250:208:25:4496,-0.831,3.09,2.563,-161.499,-176.331,49.194,-14.93,-11.838,39.512
 14:18:56.505,eb:33:2e:f9:57:b5, 2085-97-129 248:100:26:3396,-1.036,3.275,1.884,-133.728,-156.372,49.377,-16.672,-13.255,40.391
 14:18:56.505,eb:33:2e:f9:57:b5, 2085-97-246 246:30:27:3041,-1.216,3.327,1.54,-103.516,-149.048,45.776,-18.16,-14.551,41.38
 14:18:56.505,eb:33:2e:f9:57:b5, 2085-97-215 245:142:28:3046,-1.294,3.484,1.461,-73.486,-130.188,40.222,-19.336,-15.721,42.198
 14:18:56.505,eb:33:2e:f9:57:b5, 2085-97-158 245:43:29:3020,-1.284,3.625,1.508,-48.889,-90.271,33.752,-20.204,-16.622,42.984
 14:18:56.739,eb:33:2e:f9:57:b5, 2085-97-241 245:187:28:2782,-1.218,3.638,1.407,-23.315,-37.354,25.574,-20.748,-17.078,43.407
 14:18:56.739,eb:33:2e:f9:57:b5, 2085-97-235 14:76:40:10818,-1.75,3.506,1.352,8.911,1.038,14.404,-20.896,-17.139,43.654
 14:18:56.739,eb:33:2e:f9:57:b5, 2085-97-199 233:144:22:3911,-1.039,2.548,5.239,204.346,296.509,-4.7,-19.001,-17.166,42.649
 14:18:56.739,eb:33:2e:f9:57:b5, 2085-97-00 04:71:03:1199,1.129,1.92,1.701,282.593,191.467,-33.325,-15.974,-15.529,41.539
 14:18:56.799,eb:33:2e:f9:57:b5, 2085-97-102 03:51:00:3621,-0.162,0.091,0.959,273.56,323.73,-19.836,-12.892,-13.079,40.556
 14:18:56.799,eb:33:2e:f9:57:b5, 2085-97-94 254:14:239:2427,-0.069,-1.047,1.46,265.015,301.758,16.418,-10.02,-9.811,39.831
 14:18:56.799,eb:33:2e:f9:57:b5, 2085-97-106 255:161:253:3533,-1.147,-1.21,1.469,284.119,276.917,43.213,-7.218,-6.938,39.76
 14:18:56.800,eb:33:2e:f9:57:b5, 2085-97-145 246:48:04:2012,-0.806,0.274,1.36,233.276,234.436,114.441,-4.691,-4.125,40.226
 14:18:56.888,eb:33:2e:f9:57:b5, 2085-97-32 252:118:06:4024,-0.291,0.549,1.411,187.5,127.441,137.939,-2.708,-2.329,41.298
 14:18:56.888,eb:33:2e:f9:57:b5, 2085-97-88 01:119:03:1760,0.533,1.337,1.321,46.265,120.056,97.595,-1.681,-0.884,42.517
 14:18:56.888,eb:33:2e:f9:57:b5, 2085-97-152 00:64:01:2051,-0.077,0.06,1.324,20.935,101.501,41.626,-1.434,-0.022,43
 14:18:56.888,eb:33:2e:f9:57:b5, 2085-97-176 00:11:00:2407,0.027,0.092,0.785,9.216,57.617,27.649,-1.313,0.945,43.308
 14:18:56.891,eb:33:2e:f9:57:b5, 2085-97-186 255:98:00:1891,-0.106,-0.005,1.012,2.747,108.887,34.363,-1.28,1.89,43.588
 14:18:56.891,eb:33:2e:f9:57:b5, 2085-97-255 254:168:00:1653,-0.058,0.136,0.798,-0.122,40.71,18.86,-1.269,2.747,43.841
 14:18:56.892,eb:33:2e:f9:57:b5, 2085-97-35 00:215:255:2214,0.005,0.008,0.968,4.7,-7.202,0.549,-1.236,2.758,43.896
 14:18:56.892,eb:33:2e:f9:57:b5, 2085-97-79 00:36:00:2050,0.096,0.005,1.001,4.089,10.132,-0.366,-1.181,2.845,43.901
 14:18:56.896,eb:33:2e:f9:57:b5, 2085-97-100 00:12:00:2125,-0.043,0.009,1.065,5.676,10.803,-8.118,-1.132,2.917,43.852
 14:18:56.896,eb:33:2e:f9:57:b5, 2085-97-109 255:219:255:1943,-0.046,-0.019,0.979,8.301,11.597,-16.296,-1.044,3.065,43.715
 14:18:56.896,eb:33:2e:f9:57:b5, 2085-97-197 255:164:255:2058,-0.038,-0.023,0.974,10.437,-3.54,-20.386,-0.945,3.071,43.517
 14:18:56.896,eb:33:2e:f9:57:b5, 2085-97-141 255:120:255:2083,-0.065,-0.065,1.013,9.705,2.197,-14.099,-0.824,3.06,43.336
 14:18:56.896,eb:33:2e:f9:57:b5, 2085-97-141 255:192:255:2000,-0.01,-0.029,0.978,9.888,10.559,-9.216,-0.725,3.148,43.226
 14:18:56.896,eb:33:2e:f9:57:b5, 2085-97-212 255:224:255:2153,-0.017,-0.01,1.04,-1.526,58.411,20.63,-0.5,4.867,43.693
 14:18:56.896,eb:33:2e:f9:57:b5, 2085-97-32 00:05:00:2336,0.001,-0.021,1.074,-0.977,64.819,20.691,-0.516,5.515,43.885
 14:18:56.896,eb:33:2e:f9:57:b5, 2085-97-124 255:191:255:2157,-0.076,-0.005,1.132,5.432,67.444,12.695,-0.467,6.18,44.022
 14:18:56.896,eb:33:2e:f9:57:b5, 2085-97-115 255:207:255:2151,-0.177,-0.014,1.012,7.69,61.646,12.573,-0.396,6.833,44.132
 14:18:56.896,eb:33:2e:f9:57:b5, 2085-97-53 254:207:255:1966,-0.224,-0.033,1.044,47.485,-2.686,7.202,0.956,8.789,44.412
 14:18:56.896,eb:33:2e:f9:57:b5, 2085-97-138 254:08:00:1977,-0.16,-0.01,0.92,46.326,-12.024,7.202,1.423,8.734,44.484
 14:18:56.897,eb:33:2e:f9:57:b5, 2085-97-226 254:22:00:2033,-0.127,0.002,1.012,47.546,-22.217,4.944,1.912,8.547,44.539
 14:18:56.949,eb:33:2e:f9:57:b5, 2085-97-10 255:74:00:1976,-0.058,0.031,0.961,46.875,-25.269,3.784,2.39,8.306,44.583
 14:18:56.949,eb:33:2e:f9:57:b5, 2085-97-119 255:153:00:2063,-0.078,0.077,1.018,55.542,-25.696,-9.46,4.927,6.993,44.401
 14:18:56.949,eb:33:2e:f9:57:b5, 2085-97-97 255:173:00:1999,-0.08,0.079,0.988,56.458,-22.644,-11.047,5.488,6.762,44.28
 14:18:56.949,eb:33:2e:f9:57:b5, 2085-97-102 255:200:00:1984,-0.069,0.091,0.962,55.969,-20.447,-12.451,6.053,6.564,44.143
 14:18:57.039,eb:33:2e:f9:57:b5, 2085-97-146 255:210:00:2103,-0.04,0.099,0.99,54.932,-16.724,-13.367,6.603,6.394,43.995
 14:18:57.039,eb:33:2e:f9:57:b5, 2085-97-192 255:233:00:2245,-0.059,0.11,1.072,54.688,-5.92,-15.991,7.158,6.295,43.835
 14:18:57.039,eb:33:2e:f9:57:b5, 2085-113-81 00:167:118:1478,-0.068,0.112,1.059,53.955,10.437,-18.188,7.69,6.361,43.665
 14:18:57.039,eb:33:2e:f9:57:b5, 2085-97-98 255:221:00:2189,-0.104,0.11,1.064,53.772,14.343,-19.043,7.96,6.432,43.577
 14:18:57.070,eb:33:2e:f9:57:b5, 2085-97-01 255:194:00:2106,-0.14,0.099,1.046,53.406,24.109,-17.273,8.498,6.669,43.418
 14:18:57.070,eb:33:2e:f9:57:b5, 2085-97-220 254:187:00:2142,-0.142,0.092,1.02,53.894,24.414,-12.207,9.025,6.932,43.308
 14:18:57.070,eb:33:2e:f9:57:b5, 2085-97-231 254:188:00:2288,-0.134,0.087,1.091,57.251,21.301,-7.08,9.591,7.18,43.242
 14:18:57.070,eb:33:2e:f9:57:b5, 2085-97-241 254:177:00:2436,-0.141,0.09,1.151,64.392,17.09,-3.052,10.201,7.377,43.22
 14:18:57.070,eb:33:2e:f9:57:b5, 2085-97-215 254:147:00:2565,-0.159,0.078,1.224,75.5,12.39,0.244,10.915,7.531,43.231
 14:18:57.070,eb:33:2e:f9:57:b5, 2085-97-154 254:134:00:2533,-0.175,0.064,1.254,88.562,7.263,4.456,11.744,7.625,43.275
 14:18:57.070,eb:33:2e:f9:57:b5, 2085-97-170 254:133:00:2682,-0.15,0.07,1.255,103.943,-6.042,7.751,12.728,7.625,43.336
 14:18:57.070,eb:33:2e:f9:57:b5, 2085-97-14 255:134:00:2952,-0.08,0.057,1.373,123.596,-19.287,9.46,13.876,7.471,43.396
 14:18:57.072,eb:33:2e:f9:57:b5, 2085-97-167 255:172:00:3198,-0.017,0.074,1.501,146.79,-25.146,7.935,15.249,7.234,43.429
 14:18:57.072,eb:33:2e:f9:57:b5, 2085-97-227 255:162:00:3233,0.03,0.079,1.582,171.814,-19.592,3.784,16.853,6.998,43.423
 14:18:57.072,eb:33:2e:f9:57:b5, 2085-97-99 00:150:00:3364,0.073,0.093,1.611,197.51,-10.742,-2.563,18.721,6.861,43.391
 14:18:57.072,eb:33:2e:f9:57:b5, 2085-97-180 00:124:00:3501,0.142,0.064,1.664,225.281,3.601,-9.094,20.841,6.855,43.319
 14:18:57.129,eb:33:2e:f9:57:b5, 2085-97-162 01:78:00:3825,0.27,0.04,1.792,257.629,21.912,-16.846,23.275,7.031,43.242
 14:18:57.129,eb:33:2e:f9:57:b5, 2085-97-161 02:16:00:4180,0.389,0.025,1.95,297.119,46.57,-26.794,26.06,7.443,43.182
 14:18:57.129,eb:33:2e:f9:57:b5, 2085-97-01 04:137:255:4721,0.563,-0.029,2.162,347.778,71.594,-42.48,29.306,8.141,43.132
 14:18:57.129,eb:33:2e:f9:57:b5, 2085-97-216 03:181:255:4773,0.339,-0.055,2.347,409.546,105.896,-59.937,33.113,9.201,43.149
 14:18:57.160,eb:33:2e:f9:57:b5, 2085-97-100 01:54:255:5522,-0.147,-0.066,2.504,484.985,82.031,-80.322,37.617,10.404,43.077
 14:18:57.160,eb:33:2e:f9:57:b5, 2085-97-171 253:96:04:6960,-0.328,0.188,3.195,557.434,80.444,-54.443,42.874,11.448,42.99
 14:18:57.160,eb:33:2e:f9:57:b5, 2085-97-143 252:166:12:6850,-0.43,1.019,3.409,589.478,75.5,-12.817,48.697,12.222,43.33
 14:18:57.160,eb:33:2e:f9:57:b5, 2085-97-113 254:04:11:6178,-0.087,1.709,3.346,591.37,46.814,-34.973,54.673,12.788,43.665
 14:18:57.189,eb:33:2e:f9:57:b5, 2085-97-95 255:23:06:5696,0.212,1.027,2.752,576.843,2.38,-66.284,60.502,13.348,43.484
 14:18:57.189,eb:33:2e:f9:57:b5, 2085-97-251 01:11:00:7591,0.234,0.368,3.193,524.414,23.438,-77.515,65.945,14.03,43.182
 14:18:57.189,eb:33:2e:f9:57:b5, 2085-97-111 03:90:255:7843,0.704,0.008,3.818,486.389,122.742,-59.875,71.038,14.958,43.698
 14:18:57.189,eb:33:2e:f9:57:b5, 2085-97-64 05:195:248:5474,0.786,-0.45,3.586,452.454,145.935,-59.509,75.976,15.958,44.725
 14:18:57.250,eb:33:2e:f9:57:b5, 2085-97-78 07:198:243:1202,1.195,-1.179,1.804,380.92,28.687,-63.538,80.316,16.754,45.527
 14:18:57.250,eb:33:2e:f9:57:b5, 2085-97-189 11:45:240:1489,1.688,-1.704,-0.298,188.904,16.663,-77.332,83.167,17.435,45.439
 14:18:57.250,eb:33:2e:f9:57:b5, 2085-97-40 253:75:251:-4934,0.162,-2.292,-0.452,135.376,236.877,-61.279,84.919,18.468,47.532
 14:18:57.250,eb:33:2e:f9:57:b5, 2085-97-194 06:42:246:2096,0.417,-0.628,-0.097,-60.181,-146.973,-97.9,85.347,19.539,46.335
 14:18:57.280,eb:33:2e:f9:57:b5, 2085-97-70 02:79:234:1564,-0.029,-2.102,0.822,-232.056,-24.658,-76.965,83.436,20.242,46.049
 14:18:57.280,eb:33:2e:f9:57:b5, 2085-97-126 00:180:240:1676,0.362,-2.393,0.473,-285.4,-131.897,-34.729,80.607,20.66,44.962
 14:18:57.280,eb:33:2e:f9:57:b5, 2085-97-55 04:162:245:3099,0.613,-1.54,1.318,-373.718,-53.894,5.066,76.91,20.544,43.901
 14:18:57.280,eb:33:2e:f9:57:b5, 2085-97-158 04:105:248:2497,0.526,-1.103,1.484,-394.714,-13.062,-8.545,72.96,20.484,43.533
 14:18:57.310,eb:33:2e:f9:57:b5, 2085-97-23 04:233:248:1288,0.554,-0.892,0.925,-400.33,-25.085,-23.56,68.884,20.588,43.308
 14:18:57.310,eb:33:2e:f9:57:b5, 2085-97-14 05:186:249:661,0.68,-0.852,0.405,-386.353,-86.67,-37.72,64.759,20.638,42.643
 14:18:57.310,eb:33:2e:f9:57:b5, 2085-97-86 05:76:250:851,0.626,-0.721,0.332,-378.479,-154.419,-52.246,60.54,20.451,41.27
 14:18:57.310,eb:33:2e:f9:57:b5, 2085-97-182 04:200:249:1331,0.571,-0.738,0.522,-383.667,-189.697,-60.303,56.223,19.973,39.413
 14:18:57.461,eb:33:2e:f9:57:b5, 2085-97-05 04:32:249:1940,0.304,-0.811,0.802,-397.766,-207.336,-66.223,51.735,19.265,37.343
 14:18:57.461,eb:33:2e:f9:57:b5, 2085-97-208 00:06:248:2284,-0.031,-0.924,0.987,-414.124,-219.849,-53.528,47.137,18.32,35.288
 14:18:57.461,eb:33:2e:f9:57:b5, 2085-97-214 255:89:248:3054,0.08,-1.014,1.297,-423.157,-217.163,-22.766,42.479,16.963,33.426
 14:18:57.461,eb:33:2e:f9:57:b5, 2085-97-71 01:86:250:3426,0.184,-0.843,1.632,-426.086,-168.396,7.996,37.952,15.502,32.13
 14:18:57.461,eb:33:2e:f9:57:b5, 2085-97-81 01:241:251:3342,0.164,-0.599,1.673,-423.828,-115.112,32.104,33.552,14.238,31.503
 14:18:57.461,eb:33:2e:f9:57:b5, 2085-97-189 01:85:253:3282,0.299,-0.422,1.596,-410.828,-82.947,49.5,29.355,13.206,31.388
 14:18:57.461,eb:33:2e:f9:57:b5, 2085-97-12 03:167:254:3350,0.446,-0.244,1.626,-388.977,-79.651,60.181,25.362,12.244,31.536
 14:18:57.461,eb:33:2e:f9:57:b5, 2085-97-239 03:09:255:3273,0.519,-0.127,1.63,-367.859,-101.196,63.171,21.627,11.179,31.772
 14:18:57.463,eb:33:2e:f9:57:b5, 2085-97-87 04:147:254:3264,0.569,-0.149,1.572,-357.239,-139.16,62.927,18.012,9.822,31.981
 14:18:57.463,eb:33:2e:f9:57:b5, 2085-97-208 04:25:255:3820,0.629,-0.172,1.694,-353.882,-176.208,63.721,14.474,8.102,32.179
 14:18:57.464,eb:33:2e:f9:57:b5, 2085-97-05 05:53:01:4737,0.59,0,2.085,-348.816,-193.604,60.974,10.942,6.136,32.415
 14:18:57.464,eb:33:2e:f9:57:b5, 2085-97-53 04:166:03:5542,0.458,0.308,2.52,-334.29,-200.928,54.382,7.531,4.098,32.701
 14:18:57.700,eb:33:2e:f9:57:b5, 2085-97-242 02:191:05:6223,0.266,0.592,2.892,-312.073,-211.914,51.88,4.274,1.989,33.058
 14:18:57.700,eb:33:2e:f9:57:b5, 2085-97-98 01:119:07:6513,0.106,0.831,3.134,-294.128,-214.966,56.458,1.23,-0.176,33.536
 14:18:57.700,eb:33:2e:f9:57:b5, 2085-97-117 00:55:09:6460,0.018,1.032,3.189,-287.842,-195.496,67.505,-1.752,-2.23,34.211
 14:18:57.700,eb:33:2e:f9:57:b5, 2085-97-240 255:79:12:6180,-0.019,1.308,3.094,-286.987,-166.626,80.75,-4.741,-3.955,35.101
 14:18:57.910,eb:33:2e:f9:57:b5, 2085-97-199 255:202:15:5934,-0.051,1.754,2.956,-276.794,-149.048,91.309,-7.751,-5.389,36.189
 14:18:57.910,eb:33:2e:f9:57:b5, 2085-97-52 255:57:19:5528,-0.179,2.194,2.824,-258.423,-148.438,94.055,-10.635,-6.674,37.386
 14:18:57.910,eb:33:2e:f9:57:b5, 2085-97-208 253:211:21:4728,-0.398,2.583,2.509,-237.549,-161.865,90.21,-13.376,-7.971,38.672
 14:18:57.910,eb:33:2e:f9:57:b5, 2085-97-150 251:173:23:4116,-0.717,2.849,2.132,-214.478,-182.007,81.421,-15.925,-9.404,39.886
 14:18:57.910,eb:33:2e:f9:57:b5, 2085-97-25 249:210:24:4132,-0.982,3.043,1.975,-181.641,-196.838,72.449,-18.248,-10.986,41.259
 14:18:57.910,eb:33:2e:f9:57:b5, 2085-97-90 247:245:25:4237,-1.148,3.161,2.077,-142.09,-174.011,66.528,-20.215,-12.513,42.501
 14:18:57.910,eb:33:2e:f9:57:b5, 2085-97-181 246:193:27:3819,-1.148,3.354,1.983,-107.422,-114.868,60.913,-21.791,-13.596,43.687
 14:18:57.910,eb:33:2e:f9:57:b5, 2085-97-11 247:71:29:3152,-1.089,3.577,1.708,-79.346,-50.537,51.331,-22.978,-14.09,44.44
 14:18:57.912,eb:33:2e:f9:57:b5, 2085-97-135 247:174:29:2626,-1.037,3.706,1.386,-46.387,-13.428,34.912,-23.763,-14.156,44.967
 14:18:57.912,eb:33:2e:f9:57:b5, 2085-97-209 247:194:28:2473,-1.01,3.671,1.228,-1.892,-7.019,15.015,-24.077,-14.128,45.231
 14:18:57.912,eb:33:2e:f9:57:b5, 2085-97-255 247:190:26:2691,-0.991,3.49,1.226,51.331,-12.39,-3.967,-23.824,-14.194,45.313
 14:18:57.912,eb:33:2e:f9:57:b5, 2085-97-27 247:146:07:17196,-0.386,3.14,1.436,106.506,-18.555,-43.457,-23,-14.392,45.115
 14:18:57.915,eb:33:2e:f9:57:b5, 2085-97-46 254:208:254:-433,0.445,2.335,2.734,266.724,404.358,-45.471,-19.83,-13.744,43.511
 14:18:57.915,eb:33:2e:f9:57:b5, 2085-97-14 255:144:01:1835,-0.201,-0.377,0.341,250.793,263.55,19.47,-16.897,-11.656,42.643
 14:18:57.915,eb:33:2e:f9:57:b5, 2085-97-251 254:224:255:1871,-0.046,0.084,0.785,1.892,28.992,16.907,-0.978,1.604,46.088
 14:18:57.915,eb:33:2e:f9:57:b5, 2085-97-65 00:19:00:2070,0.062,0.016,0.907,7.385,-6.531,0.61,-0.928,1.714,46.165
 14:18:57.917,eb:33:2e:f9:57:b5, 2085-97-99 00:55:00:2098,0.04,0.03,1.024,6.104,-8.362,-4.028,-0.84,1.615,46.137
 14:18:57.917,eb:33:2e:f9:57:b5, 2085-97-67 00:15:00:2071,0.033,0.01,1.027,4.395,-0.488,-6.531,-0.791,1.571,46.088
 14:18:57.917,eb:33:2e:f9:57:b5, 2085-97-40 00:251:255:2049,-0.02,0.007,1,6.531,-2.625,-15.991,-0.714,1.566,45.967
 14:18:57.917,eb:33:2e:f9:57:b5, 2085-97-254 255:167:255:2099,0.01,-0.028,0.983,7.751,-6.531,-19.897,-0.632,1.516,45.775
 14:18:57.919,eb:33:2e:f9:57:b5, 2085-97-206 255:150:255:2065,-0.039,-0.045,1.04,6.287,9.827,-12.512,-0.538,1.527,45.604
 14:18:57.919,eb:33:2e:f9:57:b5, 2085-97-160 253:28:255:2176,-0.301,-0.054,1.008,5.554,18.005,-4.517,-0.478,1.675,45.527
 14:18:57.919,eb:33:2e:f9:57:b5, 2085-97-66 254:137:255:2112,-0.162,-0.091,1.037,42.48,-5.92,0.854,0.906,7.526,46.566
 14:18:57.919,eb:33:2e:f9:57:b5, 2085-97-228 254:27:00:1928,-0.134,-0.016,1.003,48.828,-23.682,1.831,1.379,7.317,46.582
 14:18:58.002,eb:33:2e:f9:57:b5, 2085-97-254 254:64:00:1947,-0.123,0.032,0.911,43.579,-21.729,1.648,1.851,7.114,46.599
 14:18:58.002,eb:33:2e:f9:57:b5, 2085-97-10 255:36:00:2079,-0.116,0.019,1,42.48,-24.475,-0.244,2.28,6.877,46.599
 14:18:58.002,eb:33:2e:f9:57:b5, 2085-97-47 255:62:00:2065,-0.08,0.021,1.011,43.823,-26.672,-1.282,2.725,6.63,46.577
 14:18:58.002,eb:33:2e:f9:57:b5, 2085-97-118 255:87:00:2142,-0.064,0.039,1.03,45.288,-28.748,-3.296,3.17,6.345,46.544
 14:18:58.002,eb:33:2e:f9:57:b5, 2085-113-81 00:148:117:415,-0.064,0.048,1.035,47.302,-26.611,-5.432,3.647,6.081,46.489
 14:18:58.004,eb:33:2e:f9:57:b5, 2085-97-138 255:134:00:2040,-0.051,0.056,1.016,48.218,-26.184,-6.531,3.884,5.955,46.45
 14:18:58.004,eb:33:2e:f9:57:b5, 2085-97-149 255:148:00:2020,-0.053,0.072,0.987,49.316,-24.719,-8.606,4.384,5.707,46.357
 14:18:58.004,eb:33:2e:f9:57:b5, 2085-97-126 255:157:00:2040,-0.055,0.074,0.99,48.584,-18.25,-9.216,4.872,5.499,46.252
 14:18:58.004,eb:33:2e:f9:57:b5, 2085-97-129 255:155:00:2130,-0.055,0.079,1.026,48.95,-13.123,-11.292,5.372,5.356,46.137
 14:18:58.059,eb:33:2e:f9:57:b5, 2085-97-169 255:181:00:2200,-0.04,0.087,1.051,49.622,-5.92,-13.306,5.861,5.279,46.005
 14:18:58.059,eb:33:2e:f9:57:b5, 2085-97-184 255:193:00:2257,-0.029,0.092,1.093,51.819,3.845,-16.418,6.378,5.295,45.857
 14:18:58.059,eb:33:2e:f9:57:b5, 2085-97-186 255:213:00:2294,-0.04,0.101,1.116,55.054,14.832,-21.24,6.91,5.405,45.676
 14:18:58.059,eb:33:2e:f9:57:b5, 2085-97-148 255:195:00:2318,-0.076,0.103,1.125,58.411,25.879,-25.146,7.487,5.652,45.461
 14:18:58.209,eb:33:2e:f9:57:b5, 2085-97-53 255:167:00:2281,-0.119,0.088,1.127,62.073,35.034,-26.733,8.086,5.993,45.231
 14:18:58.209,eb:33:2e:f9:57:b5, 2085-97-238 254:168:00:2188,-0.154,0.078,1.087,65.308,37.231,-22.4,8.729,6.4,45.027
 14:18:58.209,eb:33:2e:f9:57:b5, 2085-97-185 254:150:00:2210,-0.161,0.077,1.065,68.848,30.884,-16.296,9.393,6.762,44.885
 14:18:58.209,eb:33:2e:f9:57:b5, 2085-97-155 254:148:00:2282,-0.17,0.072,1.098,74.341,22.034,-8.911,10.118,7.048,44.797
 14:18:58.211,eb:33:2e:f9:57:b5, 2085-97-162 254:156:00:2368,-0.181,0.076,1.14,82.581,11.475,-2.38,10.904,7.213,44.775
 14:18:58.211,eb:33:2e:f9:57:b5, 2085-97-116 254:140:00:2450,-0.178,0.071,1.157,92.773,1.953,3.601,11.799,7.289,44.797
 14:18:58.211,eb:33:2e:f9:57:b5, 2085-97-199 254:124:00:2778,-0.13,0.062,1.27,107.361,-11.902,7.629,12.805,7.224,44.841
 14:18:58.211,eb:33:2e:f9:57:b5, 2085-97-86 255:149:00:3068,-0.04,0.064,1.427,126.282,-16.541,10.437,13.997,7.07,44.901
 14:18:58.213,eb:33:2e:f9:57:b5, 2085-97-215 255:207:00:3171,-0.014,0.083,1.537,149.048,-12.939,10.193,15.386,6.894,44.962
 14:18:58.213,eb:33:2e:f9:57:b5, 2085-97-231 255:171:00:3199,0.004,0.101,1.545,173.279,-6.531,6.287,17.023,6.79,45.016
 14:18:58.213,eb:33:2e:f9:57:b5, 2085-97-24 00:161:00:3159,0.016,0.076,1.57,198.486,1.77,2.441,18.896,6.746,45.044
 14:18:58.213,eb:33:2e:f9:57:b5, 2085-97-86 00:111:00:3305,0.072,0.075,1.543,225.952,5.188,-4.089,21.039,6.806,45.049
 14:18:58.217,eb:33:2e:f9:57:b5, 2085-97-238 00:66:00:3524,0.15,0.04,1.67,261.902,7.69,-12.512,23.494,6.894,44.995
 14:18:58.217,eb:33:2e:f9:57:b5, 2085-97-153 01:220:255:3854,0.27,0.007,1.802,303.345,14.282,-21.912,26.334,7.07,44.874
 14:18:58.217,eb:33:2e:f9:57:b5, 2085-97-229 02:161:255:4470,0.334,-0.035,2.018,357.3,27.161,-39.124,29.647,7.394,44.692
 14:18:58.217,eb:33:2e:f9:57:b5, 2085-97-250 01:110:254:5058,0.103,-0.056,2.275,423.34,34.729,-61.096,33.563,7.954,44.429
 14:18:58.239,eb:33:2e:f9:57:b5, 2085-97-193 254:90:255:6019,-0.416,-0.186,2.696,495.483,41.809,-65.308,38.177,8.635,44.088
 14:18:58.239,eb:33:2e:f9:57:b5, 2085-97-141 251:15:05:7017,-0.49,0.213,3.201,548.95,62.744,-26.123,43.451,9.333,44.05
 14:18:58.239,eb:33:2e:f9:57:b5, 2085-97-18 253:36:10:6773,-0.33,1.058,3.54,579.895,63.232,15.381,49.18,9.778,44.5
 14:18:58.239,eb:33:2e:f9:57:b5, 2085-97-111 255:33:10:5682,0.032,1.504,2.941,580.444,24.048,-5.798,55.042,10.042,44.94
 14:18:58.300,eb:33:2e:f9:57:b5, 2085-97-22 01:75:05:5447,0.188,0.991,2.55,566.345,-17.944,-38.208,60.765,10.228,44.802
 14:18:58.300,eb:33:2e:f9:57:b5, 2085-97-185 01:194:00:7061,0.217,0.26,3.059,529.053,3.052,-54.504,66.204,10.624,44.445
 14:18:58.300,eb:33:2e:f9:57:b5, 2085-97-85 02:110:255:7741,0.541,0.018,3.696,504.761,79.163,-45.593,71.356,11.25,44.681
 14:18:58.300,eb:33:2e:f9:57:b5, 2085-97-204 04:112:250:5909,0.605,-0.347,3.591,487.488,93.079,-41.443,76.437,11.937,45.428
 14:18:58.357,eb:33:2e:f9:57:b5, 2085-97-60 07:69:245:1736,1.09,-0.997,2.118,420.288,10.132,-41.26,81.052,12.453,45.829
 14:18:58.357,eb:33:2e:f9:57:b5, 2085-97-236 10:171:242:-476,1.294,-1.622,-0.052,251.587,-44.373,-56.274,84.375,12.876,45.412
 14:18:58.357,eb:33:2e:f9:57:b5, 2085-97-210 02:99:246:-4522,-0.216,-2.533,0.708,111.084,266.113,-50.537,86.056,13.661,46.335
 14:18:58.357,eb:33:2e:f9:57:b5, 2085-113-81 00:77:89:19579,0.797,-0.564,-0.749,-7.019,-231.323,-124.084,86.83,14.694,45.588
 14:18:58.360,eb:33:2e:f9:57:b5, 2085-97-215 02:215:239:2131,0.237,-0.963,1.086,-163.635,-45.41,-81.909,86.177,15.117,44.907
 14:18:58.361,eb:33:2e:f9:57:b5, 2085-97-232 255:145:235:1414,-0.01,-2.647,0.767,-261.475,-60.913,-67.261,83.793,15.82,44.588
 14:18:58.361,eb:33:2e:f9:57:b5, 2085-97-101 02:131:243:2621,0.591,-1.991,0.855,-346.13,-105.347,-13.489,80.519,16.007,43.473
 14:18:58.361,eb:33:2e:f9:57:b5, 2085-97-166 05:116:247:3338,0.532,-1.243,1.575,-408.447,-9.033,-7.996,76.547,15.936,42.885
 14:18:58.419,eb:33:2e:f9:57:b5, 2085-97-62 03:213:248:1724,0.4,-0.921,1.189,-431.335,13.916,-23.804,72.328,16.15,42.973
 14:18:58.419,eb:33:2e:f9:57:b5, 2085-97-179 03:252:248:916,0.578,-0.905,0.629,-432.251,-37.354,-31.25,67.945,16.364,42.753
 14:18:58.419,eb:33:2e:f9:57:b5, 2085-97-163 05:90:250:876,0.76,-0.798,0.365,-418.091,-113.647,-42.725,63.484,16.359,41.852
 14:18:58.419,eb:33:2e:f9:57:b5, 2085-97-228 05:18:251:1103,0.688,-0.641,0.484,-413.269,-159.851,-52.795,59.024,16.073,40.347
 14:18:58.449,eb:33:2e:f9:57:b5, 2085-97-35 05:108:250:1602,0.554,-0.644,0.642,-420.41,-193.115,-58.655,54.47,15.529,38.507
 14:18:58.449,eb:33:2e:f9:57:b5, 2085-97-91 03:35:249:2214,0.293,-0.773,0.906,-435.974,-214.355,-54.565,49.796,14.689,36.519
 14:18:58.449,eb:33:2e:f9:57:b5, 2085-97-132 01:230:248:3007,0.175,-0.9,1.304,-449.829,-214.294,-36.438,45,13.497,34.579
 14:18:58.449,eb:33:2e:f9:57:b5, 2085-97-205 01:64:250:3461,0.297,-0.826,1.608,-460.632,-170.349,-12.329,40.21,12.211,33.107
 14:18:58.779,eb:33:2e:f9:57:b5, 2085-97-167 02:78:252:3518,0.335,-0.589,1.727,-465.82,-111.45,9.644,35.431,11.102,32.267
 14:18:58.779,eb:33:2e:f9:57:b5, 2085-97-209 02:77:254:3410,0.396,-0.339,1.679,-458.008,-63.782,22.278,30.767,10.305,31.97
 14:18:58.779,eb:33:2e:f9:57:b5, 2085-97-142 03:53:00:3476,0.493,-0.084,1.683,-431.091,-43.457,27.771,26.29,9.739,31.965
 14:18:58.779,eb:33:2e:f9:57:b5, 2085-97-68 04:44:01:3311,0.572,0.106,1.681,-392.578,-61.707,27.283,22.192,9.168,32.025
 14:18:58.784,eb:33:2e:f9:57:b5, 2085-97-203 04:171:00:3182,0.613,0.14,1.549,-360.046,-107.422,26.489,18.43,8.267,31.992
 14:18:58.784,eb:33:2e:f9:57:b5, 2085-97-230 04:171:255:3629,0.602,0.008,1.634,-343.384,-149.048,29.785,14.925,6.921,31.91
 14:18:58.784,eb:33:2e:f9:57:b5, 2085-97-165 04:02:00:4512,0.565,-0.048,1.954,-335.327,-171.57,37.903,11.508,5.251,31.899
 14:18:58.784,eb:33:2e:f9:57:b5, 2085-97-105 04:156:01:5330,0.538,0.082,2.419,-324.951,-176.514,51.819,8.212,3.444,32.08
 14:18:59.081,eb:33:2e:f9:57:b5, 2085-97-25 04:241:03:5731,0.476,0.345,2.733,-310.364,-170.288,64.575,4.999,1.664,32.509
 14:18:59.081,eb:33:2e:f9:57:b5, 2085-97-133 03:03:06:5777,0.402,0.629,2.822,-296.57,-176.453,77.087,1.934,-0.088,33.151
 14:18:59.081,eb:33:2e:f9:57:b5, 2085-97-235 02:213:07:5641,0.324,0.866,2.792,-288.757,-188.293,89.722,-1.082,-1.912,34.025
 14:18:59.081,eb:33:2e:f9:57:b5, 2085-97-56 02:174:09:5637,0.214,1.093,2.735,-284.058,-201.05,103.027,-4.076,-3.801,35.129
 14:18:59.139,eb:33:2e:f9:57:b5, 2085-97-10 01:192:11:5660,0.014,1.337,2.779,-275.391,-205.017,116.699,-7.108,-5.702,36.491
 14:18:59.139,eb:33:2e:f9:57:b5, 2085-97-69 255:166:13:5331,-0.176,1.587,2.673,-256.775,-211.548,127.38,-10.063,-7.531,38.084
 14:18:59.139,eb:33:2e:f9:57:b5, 2085-97-225 253:30:16:5404,-0.376,1.845,2.6,-233.276,-227.966,130.005,-12.914,-9.41,39.88
 14:18:59.139,eb:33:2e:f9:57:b5, 2085-97-12 252:239:18:5504,-0.594,2.195,2.673,-213.806,-223.938,129.15,-15.612,-11.261,41.803
 14:18:59.260,eb:33:2e:f9:57:b5, 2085-97-199 250:150:21:5371,-0.67,2.53,2.675,-196.655,-186.829,124.329,-18.21,-12.838,43.737
 14:18:59.260,eb:33:2e:f9:57:b5, 2085-97-218 250:212:24:4829,-0.598,2.888,2.511,-175.171,-113.708,111.633,-20.572,-13.81,45.439
 14:18:59.260,eb:33:2e:f9:57:b5, 2085-97-138 251:196:28:3784,-0.544,3.346,2.138,-147.4,-34.851,84.961,-22.571,-14.068,46.675
 14:18:59.260,eb:33:2e:f9:57:b5, 2085-97-140 251:252:31:2463,-0.598,3.826,1.519,-112.122,-0.305,44.556,-24.06,-13.898,47.329
 14:18:59.293,eb:33:2e:f9:57:b5, 2085-97-161 250:114:32:1828,-0.774,4.081,0.986,-68.481,-31.616,-1.892,-25.021,-13.936,47.571
 14:18:59.293,eb:33:2e:f9:57:b5, 2085-97-87 03:163:255:2901,0.359,3.942,0.932,-18.372,-75.562,-41.626,-25.444,-14.568,47.488
 14:18:59.293,eb:33:2e:f9:57:b5, 2085-97-09 01:242:01:1813,-0.102,0.128,1.139,6.592,137.39,40.283,-1.719,-0.231,46.708
 14:18:59.293,eb:33:2e:f9:57:b5, 2085-97-171 254:142:00:1585,-0.038,0.144,0.855,-5.371,77.881,27.649,-1.758,0.824,47.005
 14:18:59.293,eb:33:2e:f9:57:b5, 2085-97-107 00:13:00:2002,0.071,0.01,0.925,2.686,16.602,0.366,-1.758,1.208,47.098
 14:18:59.294,eb:33:2e:f9:57:b5, 2085-97-121 00:231:255:2099,0.041,0.007,1.015,4.15,6.042,-9.949,-1.714,1.291,47.027
 14:18:59.294,eb:33:2e:f9:57:b5, 2085-97-11 00:212:255:2077,-0.064,-0.011,1.027,1.77,13.489,-8.728,-1.664,1.39,46.923
 14:18:59.294,eb:33:2e:f9:57:b5, 2085-97-132 255:161:255:1947,-0.025,-0.037,0.945,4.272,9.277,-14.404,-1.631,1.533,46.807
 14:18:59.296,eb:33:2e:f9:57:b5, 2085-97-218 255:141:255:2043,-0.008,-0.059,0.998,8.179,0,-19.775,-1.538,1.544,46.615
 14:18:59.296,eb:33:2e:f9:57:b5, 2085-97-164 255:122:00:2131,-0.024,-0.047,1.01,7.263,5.798,-15.686,-1.45,1.566,46.434
 14:18:59.296,eb:33:2e:f9:57:b5, 2085-97-237 255:144:00:2247,0.007,0.067,1.07,50.11,-11.414,-18.616,4.631,5.548,47.01
 14:18:59.296,eb:33:2e:f9:57:b5, 2085-97-236 255:163:00:2310,-0.014,0.084,1.128,52.368,5.676,-24.658,5.142,5.521,46.791
 14:18:59.298,eb:33:2e:f9:57:b5, 2085-97-193 255:140:00:2329,-0.065,0.08,1.133,53.894,26.001,-30.334,5.674,5.724,46.527
 14:18:59.298,eb:33:2e:f9:57:b5, 2085-97-94 255:127:00:2339,-0.1,0.062,1.135,57.434,40.161,-33.203,6.224,6.097,46.23
 14:18:59.298,eb:33:2e:f9:57:b5, 2085-97-248 254:105:00:2263,-0.151,0.053,1.124,62.012,47.485,-33.875,6.828,6.581,45.934
 14:18:59.298,eb:33:2e:f9:57:b5, 2085-97-148 254:47:00:2289,-0.195,0.041,1.099,65.674,46.57,-29.48,7.454,7.092,45.665
 14:18:59.351,eb:33:2e:f9:57:b5, 2085-97-89 254:17:00:2363,-0.215,0.012,1.144,70.557,42.786,-20.569,8.135,7.57,45.467
 14:18:59.351,eb:33:2e:f9:57:b5, 2085-97-56 02:176:254:5183,0.05,0.014,1.13,76.904,35.095,-8.545,8.871,7.976,45.374
 14:18:59.351,eb:33:2e:f9:57:b5, 2085-97-85 254:153:00:6648,-0.258,-0.181,2.711,543.335,36.56,-62.744,39.331,10.668,46.022
 14:18:59.351,eb:33:2e:f9:57:b5, 2085-97-206 252:42:07:6945,-0.389,0.374,3.448,594.727,46.509,-14.587,45.066,11.245,45.994
 14:18:59.351,eb:33:2e:f9:57:b5, 2085-97-51 253:193:11:6629,-0.391,1.307,3.384,616.089,17.944,-7.751,51.185,11.497,46.236
 14:18:59.379,eb:33:2e:f9:57:b5, 2085-113-81 00:76:105:13393,-0.227,1.437,2.993,606.384,-24.902,-47.485,57.294,11.717,46.049
 14:18:59.379,eb:33:2e:f9:57:b5, 2085-97-15 255:129:04:5834,0.025,1.032,2.859,587.769,-28.687,-61.279,60.238,11.882,45.78
 14:18:59.379,eb:33:2e:f9:57:b5, 2085-97-218 00:59:00:6862,0.181,0.178,3.054,531.067,24.658,-62.5,65.764,12.437,45.434
 14:18:59.379,eb:33:2e:f9:57:b5, 2085-97-44 03:221:00:7235,0.709,0.136,3.412,493.835,96.558,-43.152,70.895,13.156,45.868
 14:18:59.409,eb:33:2e:f9:57:b5, 2085-97-96 05:230:248:4890,0.592,-0.455,3.214,456.97,97.961,-54.382,75.806,13.909,46.631
 14:18:59.409,eb:33:2e:f9:57:b5, 2085-97-103 06:92:245:2062,0.953,-1.089,1.857,384.094,-3.662,-62.622,80.052,14.601,46.978
 14:18:59.409,eb:33:2e:f9:57:b5, 2085-97-52 10:201:240:3277,1.689,-1.572,0.384,232.971,-23.01,-81.543,83.051,15.266,46.478
 14:18:59.409,eb:33:2e:f9:57:b5, 2085-97-188 251:120:251:-5241,0.181,-1.954,-0.384,192.261,188.477,-74.951,85.254,16.298,48.016
 14:18:59.470,eb:33:2e:f9:57:b5, 2085-97-40 06:23:242:1785,0.264,-0.824,-0.393,-65.186,-89.6,-85.327,85.913,17.309,47.164
 14:18:59.470,eb:33:2e:f9:57:b5, 2085-97-06 01:41:234:926,-0.104,-2.456,0.418,-228.21,-0.061,-57.922,84.128,17.908,47.422
 14:18:59.470,eb:33:2e:f9:57:b5, 2085-97-76 00:253:241:1809,0.334,-2.203,0.442,-297.913,-116.821,-8.484,81.337,18.116,46.461
 14:18:59.470,eb:33:2e:f9:57:b5, 2085-97-69 04:248:245:3124,0.689,-1.466,1.33,-387.268,-41.199,27.771,77.596,17.809,45.665
 14:18:59.499,eb:33:2e:f9:57:b5, 2085-97-199 04:250:248:2606,0.491,-1.044,1.606,-409.424,5.005,7.202,73.564,17.595,45.434
 14:18:59.499,eb:33:2e:f9:57:b5, 2085-97-172 03:107:249:1420,0.479,-0.816,0.938,-415.588,-7.69,-9.827,69.406,17.639,45.456
 14:18:59.499,eb:33:2e:f9:57:b5, 2085-97-178 04:33:250:876,0.663,-0.804,0.467,-397.888,-68.726,-23.804,65.231,17.639,45.044
 14:18:59.499,eb:33:2e:f9:57:b5, 2085-97-92 05:52:251:930,0.631,-0.653,0.437,-382.019,-123.474,-39.368,61.078,17.457,43.956
 14:18:59.560,eb:33:2e:f9:57:b5, 2085-97-161 04:209:250:1238,0.53,-0.603,0.516,-381.47,-157.532,-49.011,56.931,17.073,42.457
 14:18:59.560,eb:33:2e:f9:57:b5, 2085-97-245 03:211:249:1753,0.396,-0.711,0.712,-393.494,-173.279,-54.932,52.663,16.501,40.748
 14:18:59.560,eb:33:2e:f9:57:b5, 2085-97-191 01:217:248:2232,0.082,-0.833,0.986,-411.621,-173.95,-48.157,48.268,15.771,39.045
 14:18:59.560,eb:33:2e:f9:57:b5, 2085-97-71 00:242:248:2743,0.109,-0.92,1.219,-426.147,-158.691,-24.719,43.753,14.826,37.551
 14:18:59.590,eb:33:2e:f9:57:b5, 2085-97-196 01:180:250:3110,0.274,-0.784,1.452,-434.326,-113.586,-0.183,39.265,13.87,36.579
 14:18:59.590,eb:33:2e:f9:57:b5, 2085-97-81 02:169:252:2901,0.304,-0.541,1.49,-436.096,-64.819,17.151,34.81,13.123,36.151
 14:18:59.590,eb:33:2e:f9:57:b5, 2085-97-215 02:48:254:2765,0.433,-0.32,1.358,-424.072,-40.71,27.649,30.493,12.585,36.096
 14:18:59.590,eb:33:2e:f9:57:b5, 2085-97-14 04:154:255:2840,0.562,-0.131,1.369,-398.56,-43.884,31.738,26.367,12.085,36.178
 14:18:59.681,eb:33:2e:f9:57:b5, 2085-97-197 04:224:255:2793,0.61,-0.006,1.382,-365.601,-77.881,31.189,22.571,11.409,36.233
 14:18:59.681,eb:33:2e:f9:57:b5, 2085-97-246 04:187:254:2865,0.637,-0.079,1.358,-341.309,-131.714,31.067,19.023,10.289,36.156
 14:18:59.681,eb:33:2e:f9:57:b5, 2085-97-44 05:52:254:3460,0.639,-0.213,1.514,-334.656,-172.668,33.813,15.65,8.701,36.03
 14:18:59.681,eb:33:2e:f9:57:b5, 2085-97-254 04:238:254:4348,0.612,-0.201,1.898,-337.83,-190.43,40.039,12.255,6.817,35.986
 14:18:59.709,eb:33:2e:f9:57:b5, 2085-97-189 04:11:01:5179,0.559,-0.02,2.342,-337.769,-193.542,45.593,8.871,4.839,36.096
 14:18:59.709,eb:33:2e:f9:57:b5, 2085-97-25 04:185:03:5699,0.456,0.298,2.663,-330.505,-192.322,51.941,5.499,2.878,36.381
 14:18:59.709,eb:33:2e:f9:57:b5, 2085-97-33 03:44:06:6141,0.318,0.624,2.898,-315.735,-199.097,60.059,2.252,0.895,36.848
 14:18:59.709,eb:33:2e:f9:57:b5, 2085-97-11 02:63:08:6340,0.201,0.905,3.065,-300.049,-199.829,72.021,-0.89,-1.11,37.535
 14:18:59.711,eb:33:2e:f9:57:b5, 2085-97-29 01:57:10:6179,0.07,1.152,3.087,-290.466,-190.857,85.938,-3.933,-3.01,38.458
 14:18:59.711,eb:33:2e:f9:57:b5, 2085-97-11 00:128:12:5792,-0.05,1.415,2.902,-284.18,-184.57,97.046,-6.987,-4.763,39.611
 14:18:59.711,eb:33:2e:f9:57:b5, 2085-97-25 255:115:15:5924,-0.198,1.732,2.84,-275.146,-189.514,101.746,-10.003,-6.438,40.935
 14:18:59.711,eb:33:2e:f9:57:b5, 2085-97-150 253:181:18:5876,-0.379,2.145,2.922,-262.085,-184.875,100.647,-12.986,-8.058,42.374
 14:19:00.190,eb:33:2e:f9:57:b5, 2085-97-86 252:226:21:5525,-0.548,2.531,2.788,-242.798,-171.143,94.604,-15.831,-9.509,43.83
 14:19:00.190,eb:33:2e:f9:57:b5, 2085-97-16 251:03:25:4939,-0.663,2.942,2.562,-218.689,-143.433,83.435,-18.484,-10.717,45.22
 14:19:00.190,eb:33:2e:f9:57:b5, 2085-97-114 250:167:27:4157,-0.721,3.285,2.241,-185.242,-107.91,68.97,-20.808,-11.613,46.406
 14:19:00.190,eb:33:2e:f9:57:b5, 2085-97-223 249:206:29:3305,-0.82,3.596,1.838,-140.869,-70.007,48.035,-22.665,-12.173,47.307
 14:19:00.193,eb:33:2e:f9:57:b5, 2085-97-01 249:66:31:2610,-0.938,3.832,1.42,-95.276,-60.242,24.414,-24,-12.59,47.911
 14:19:00.193,eb:33:2e:f9:57:b5, 2085-97-221 247:98:31:2409,-1.109,3.94,1.183,-45.532,-70.801,-0.916,-24.796,-13.134,48.301
 14:19:00.193,eb:33:2e:f9:57:b5, 2085-97-85 246:235:29:2797,0.769,3.85,1.255,6.592,-77.026,-22.705,-25.032,-13.881,48.527
 14:19:00.193,eb:33:2e:f9:57:b5, 2085-97-172 238:01:19:11036,-2.874,4.353,4.922,214.233,-236.694,-264.954,-24.137,-15.293,48.142
 14:19:00.281,eb:33:2e:f9:57:b5, 2085-97-23 244:82:16:4097,0.218,2.494,2.959,296.021,156.799,-56.03,-21.193,-14.266,46.747
 14:19:00.281,eb:33:2e:f9:57:b5, 2085-97-45 05:139:02:1126,-0.399,1.081,0.747,287.109,285.095,-65.43,-17.776,-12.409,45.319
 14:19:00.281,eb:33:2e:f9:57:b5, 2085-97-87 246:157:243:807,-0.123,-0.493,1.095,291.138,341.431,44.434,-14.573,-9.338,44.061
 14:19:00.281,eb:33:2e:f9:57:b5, 2085-97-83 02:47:245:3805,-0.407,-2.374,0.893,350.159,132.141,48.462,-11.327,-7.465,44.033
 14:19:00.281,eb:33:2e:f9:57:b5, 2085-97-51 247:219:06:3987,-1.041,0.021,2.488,321.655,207.031,93.323,-7.861,-5.652,44.313
 14:19:00.281,eb:33:2e:f9:57:b5, 2085-97-136 250:220:05:3346,-0.378,0.78,1.5,236.267,99.487,124.939,-5.295,-4.081,45.258
 14:19:00.281,eb:33:2e:f9:57:b5, 2085-97-232 254:42:04:3232,-0.021,0.541,1.522,162.842,137.024,135.315,-3.494,-2.703,46.549
 14:19:00.281,eb:33:2e:f9:57:b5, 2085-97-00 01:116:03:2085,0.232,0.422,1.212,85.571,75.195,41.443,-2.39,-1.56,47.324
 14:19:00.285,eb:33:2e:f9:57:b5, 2085-97-242 02:50:255:2750,0.411,0.123,1.044,37.537,26.001,31.25,-1.879,-1.187,47.609
 14:19:00.285,eb:33:2e:f9:57:b5, 2085-97-117 01:32:02:1775,-0.086,-0.013,1.419,11.78,185.547,59.692,-1.631,-0.071,47.977
 14:19:00.285,eb:33:2e:f9:57:b5, 2085-97-176 253:75:01:1290,-0.185,0.272,0.838,-5.31,117.31,41.321,-1.648,1.467,48.422
 14:19:00.285,eb:33:2e:f9:57:b5, 2085-97-18 00:50:00:1959,0.167,0.036,0.801,1.709,1.77,7.935,-1.664,1.95,48.615
 14:19:00.287,eb:33:2e:f9:57:b5, 2085-97-65 01:29:00:2246,-0.118,-0.005,1.125,4.028,0.549,-5.188,-1.62,1.868,48.604
 14:19:00.287,eb:33:2e:f9:57:b5, 2085-97-01 255:122:00:1809,-0.138,0.055,0.913,30.701,-10.742,-6.409,3.763,7.267,48.329
 14:19:00.287,eb:33:2e:f9:57:b5, 2085-97-238 254:131:00:1714,-0.12,0.06,0.85,25.024,-11.719,-5.493,4.032,7.158,48.263
 14:19:00.287,eb:33:2e:f9:57:b5, 2085-113-58 00:12:229:-5280,-0.111,0.069,0.846,17.517,-10.437,-2.747,4.257,7.059,48.214
 14:19:00.370,eb:33:2e:f9:57:b5, 2085-97-36 255:160:00:1796,-0.09,0.073,0.859,14.465,-9.46,-1.587,4.334,7.009,48.197
 14:19:00.370,eb:33:2e:f9:57:b5, 2085-97-132 255:189:00:1943,-0.04,0.083,0.912,10.071,-8.728,-1.648,4.449,6.921,48.175
 14:19:00.370,eb:33:2e:f9:57:b5, 2085-97-188 255:175:00:2165,-0.024,0.096,0.993,9.277,-4.822,-5.31,4.554,6.861,48.137
 14:19:00.370,eb:33:2e:f9:57:b5, 2085-97-187 255:146:00:2327,-0.073,0.076,1.111,11.353,9.644,-10.437,4.658,6.883,48.054
 14:19:00.374,eb:33:2e:f9:57:b5, 2085-97-38 255:75:00:2373,-0.108,0.058,1.138,15.137,26.917,-16.052,4.796,7.108,47.928
 14:19:00.374,eb:33:2e:f9:57:b5, 2085-97-14 255:46:00:2383,-0.15,0.025,1.177,20.813,38.757,-20.386,4.966,7.449,47.758
 14:19:00.374,eb:33:2e:f9:57:b5, 2085-97-149 254:248:255:2317,-0.2,0.013,1.143,27.466,43.518,-20.203,5.213,7.905,47.576
 14:19:00.374,eb:33:2e:f9:57:b5, 2085-97-66 254:226:255:2297,-0.241,-0.007,1.118,34.668,38.574,-14.343,5.515,8.333,47.433
 14:19:00.374,eb:33:2e:f9:57:b5, 2085-97-253 253:190:255:2422,-0.246,-0.026,1.147,44.128,25.33,-7.629,5.922,8.668,47.351
 14:19:00.375,eb:33:2e:f9:57:b5, 2085-97-105 254:209:255:2763,-0.144,-0.038,1.242,57.373,8.179,-0.916,6.427,8.828,47.324
 14:19:00.375,eb:33:2e:f9:57:b5, 2085-97-42 255:226:255:3219,-0.078,-0.015,1.459,75.256,3.418,1.526,7.114,8.877,47.329
 14:19:00.376,eb:33:2e:f9:57:b5, 2085-97-117 255:174:255:3637,-0.04,-0.026,1.692,98.145,14.282,1.282,7.987,8.954,47.351
 14:19:00.399,eb:33:2e:f9:57:b5, 2085-97-227 255:193:255:3814,0.007,-0.043,1.836,125.366,35.278,2.075,9.135,9.212,47.401
 14:19:00.399,eb:33:2e:f9:57:b5, 2085-97-36 00:216:255:3836,-0.002,-0.018,1.87,153.259,58.289,1.648,10.552,9.684,47.494
 14:19:00.399,eb:33:2e:f9:57:b5, 2085-97-219 255:116:255:3792,-0.038,-0.048,1.871,181.58,77.82,1.526,12.266,10.377,47.631
 14:19:00.399,eb:33:2e:f9:57:b5, 2085-97-192 255:33:255:3705,0.002,-0.085,1.826,212.891,89.844,2.93,14.271,11.212,47.834
 14:19:00.429,eb:33:2e:f9:57:b5, 2085-97-03 00:212:254:3678,-0.014,-0.128,1.828,247.253,92.773,5.859,16.633,12.09,48.098
 14:19:00.429,eb:33:2e:f9:57:b5, 2085-97-161 255:238:253:3820,-0.083,-0.19,1.838,286.072,86.06,6.958,19.363,12.925,48.417
 14:19:00.429,eb:33:2e:f9:57:b5, 2085-97-237 255:10:253:4064,0.022,-0.324,1.894,332.092,72.571,6.775,22.533,13.667,48.768
 14:19:00.429,eb:33:2e:f9:57:b5, 2085-97-105 00:121:252:4210,0.151,-0.396,1.974,387.512,58.716,2.075,26.208,14.249,49.076
 14:19:00.460,eb:33:2e:f9:57:b5, 2085-97-193 01:192:251:5013,0.266,-0.522,2.3,463.196,47.913,-13.855,30.504,14.733,49.252
 14:19:00.460,eb:33:2e:f9:57:b5, 2085-97-15 02:65:251:6157,0.146,-0.606,2.676,544.373,51.27,-32.593,35.585,15.266,49.29
 14:19:00.460,eb:33:2e:f9:57:b5, 2085-97-61 00:220:00:8104,-0.132,-0.427,3.443,629.944,76.904,-36.377,41.512,16.002,49.389
 14:19:00.460,eb:33:2e:f9:57:b5, 2085-97-26 255:234:12:8771,-0.354,0.739,4.273,706.604,79.102,-8.24,48.362,16.776,49.834
 14:19:00.519,eb:33:2e:f9:57:b5, 2085-97-19 252:117:16:8017,-0.329,2.116,4.183,728.943,62.927,-49.805,55.684,17.424,50.279
 14:19:00.519,eb:33:2e:f9:57:b5, 2085-97-66 253:146:10:8570,-0.326,1.651,3.634,717.896,-23.376,-91.431,62.897,18.221,50.087
 14:19:00.519,eb:33:2e:f9:57:b5, 2085-97-115 253:113:03:11280,0.021,0.913,4.969,643.494,-54.138,-91.064,69.472,18.847,49.18
 14:19:00.519,eb:33:2e:f9:57:b5, 2085-97-172 04:29:252:11695,1.087,0.313,5.563,545.776,44.067,-78.674,75.306,19.561,48.933
 14:19:00.549,eb:33:2e:f9:57:b5, 2085-97-119 11:253:239:6035,0.984,-1.157,5.02,389.16,185.608,-89.478,80.261,20.704,49.856
 14:19:00.549,eb:33:2e:f9:57:b5, 2085-97-238 18:249:222:5535,1.313,-2.9,1.416,124.207,340.027,-38.635,83.419,21.703,52.174
 14:19:00.549,eb:33:2e:f9:57:b5, 2085-97-189 01:167:244:-5559,2.158,-2.035,-4.027,104.248,274.536,-12.695,86.116,22.132,57.415
 14:19:00.549,eb:33:2e:f9:57:b5, 2085-97-183 13:165:227:2173,1.277,-2.328,-0.124,-278.137,74.28,15.686,85.133,22.258,58.09
 14:19:00.581,eb:33:2e:f9:57:b5, 2085-97-49 04:201:231:1311,0.921,-3.704,1.148,-326.843,-98.999,-22.766,81.865,22.423,57.75
 14:19:00.581,eb:33:2e:f9:57:b5, 2085-97-135 11:123:234:4910,1.446,-2.697,1.544,-387.329,-224.548,20.386,77.64,22,55.585
 14:19:00.581,eb:33:2e:f9:57:b5, 2085-97-120 10:244:233:4074,1.093,-2.762,2.349,-402.466,-122.009,11.963,73.141,21.363,54.119
 14:19:00.581,eb:33:2e:f9:57:b5, 2085-97-181 07:07:235:2496,0.869,-2.648,1.525,-408.813,-128.113,-8.972,68.763,20.956,52.872
 14:19:00.640,eb:33:2e:f9:57:b5, 2085-97-135 06:184:234:1757,0.8,-2.646,0.952,-461.06,-116.821,-1.038,64.045,20.511,51.724
 14:19:00.640,eb:33:2e:f9:57:b5, 2085-97-154 06:48:236:2659,0.837,-2.604,1.042,-526.733,-135.62,4.028,58.766,19.852,50.565
 14:19:00.640,eb:33:2e:f9:57:b5, 2085-97-155 06:78:239:3081,0.814,-2.29,1.459,-570.862,-121.216,-5.676,52.916,19.111,49.471
 14:19:00.640,eb:33:2e:f9:57:b5, 2085-97-55 06:67:242:2715,0.718,-1.903,1.443,-591.553,-114.868,-29.358,46.807,18.474,48.433
 14:19:00.640,eb:33:2e:f9:57:b5, 2085-97-79 05:119:245:2544,0.691,-1.507,1.22,-588.928,-129.761,-56.03,40.562,17.869,47.236
 14:19:00.669,eb:33:2e:f9:57:b5, 2085-113-58 00:41:230:-7845,0.654,-1.087,1.454,-561.707,-149.902,-76.111,34.475,17.122,45.818
 14:19:00.669,eb:33:2e:f9:57:b5, 2085-97-30 04:118:249:3868,0.404,-0.918,1.757,-541.626,-152.527,-84.839,31.514,16.688,45.044
 14:19:00.669,eb:33:2e:f9:57:b5, 2085-97-189 02:26:249:4000,0.325,-0.8,1.942,-494.873,-181.763,-91.003,26.016,15.623,43.44
 14:19:00.669,eb:33:2e:f9:57:b5, 2085-97-90 02:215:247:4228,0.253,-0.957,1.993,-459.778,-212.463,-76.233,20.94,14.073,41.863
 14:19:01.270,eb:33:2e:f9:57:b5, 2085-97-173 01:236:247:4865,0.196,-1.038,2.19,-449.036,-215.271,-49.805,16.216,12.2,40.605
 14:19:01.270,eb:33:2e:f9:57:b5, 2085-97-175 01:128:249:5956,0.232,-0.944,2.636,-448.12,-199.89,-16.113,11.585,10.234,39.831
 14:19:01.270,eb:33:2e:f9:57:b5, 2085-97-240 01:43:253:6756,0.246,-0.614,3.137,-432.129,-178.528,16.052,7.152,8.377,39.584
 14:19:01.270,eb:33:2e:f9:57:b5, 2085-97-185 01:57:02:6860,0.17,-0.042,3.376,-397.705,-173.462,40.71,2.972,6.619,39.776
 14:19:01.272,eb:33:2e:f9:57:b5, 2085-97-246 00:244:06:6943,0.024,0.584,3.335,-364.502,-215.698,54.565,-0.791,4.691,40.276
 14:19:01.272,eb:33:2e:f9:57:b5, 2085-97-33 255:94:11:7153,-0.263,1.148,3.442,-349.182,-268.86,57.068,-4.389,2.274,41.017
 14:19:01.272,eb:33:2e:f9:57:b5, 2085-97-105 252:70:15:7708,-0.651,1.672,3.602,-339.905,-322.571,59.204,-7.883,-0.621,41.852
 14:19:01.272,eb:33:2e:f9:57:b5, 2085-97-37 249:157:19:8556,-1.062,2.157,3.957,-316.711,-364.075,65.308,-11.354,-3.922,43.143
 14:19:01.275,eb:33:2e:f9:57:b5, 2085-97-240 245:241:24:9370,-1.383,2.776,4.415,-276.062,-366.699,77.881,-14.579,-7.339,44.648
 14:19:01.275,eb:33:2e:f9:57:b5, 2085-97-134 244:214:30:9282,-1.412,3.469,4.63,-242.249,-307.739,90.515,-17.589,-10.344,46.544
 14:19:01.275,eb:33:2e:f9:57:b5, 2085-97-12 245:215:38:7987,-1.316,4.392,4.248,-228.577,-164.185,88.074,-20.385,-12.261,48.159
 14:19:01.275,eb:33:2e:f9:57:b5, 2085-97-40 246:132:44:5869,-1.175,5.263,3.391,-210.999,-27.649,62.561,-22.923,-12.744,49.252
 14:19:01.275,eb:33:2e:f9:57:b5, 2085-97-228 246:246:45:3666,-1.16,5.733,2.296,-166.504,25.33,15.747,-24.901,-12.491,49.444
 14:19:01.275,eb:33:2e:f9:57:b5, 2085-97-244 245:185:43:2733,-1.422,5.64,1.432,-101.807,-10.498,-32.715,-26.18,-12.448,49.29
 14:19:01.275,eb:33:2e:f9:57:b5, 2085-97-115 01:193:47:12622,-2.215,5.256,1.478,-38.208,-61.89,-61.707,-26.768,-13.052,48.911
 14:19:01.275,eb:33:2e:f9:57:b5, 2085-97-208 234:102:36:3693,-1.258,5.531,4.733,203.125,68.481,-59.692,-25.258,-14.101,48.279
 14:19:01.277,eb:33:2e:f9:57:b5, 2085-97-251 237:25:38:5486,-0.894,4.061,2.906,378.845,28.442,-87.463,-21.962,-14.892,47.527
 14:19:01.277,eb:33:2e:f9:57:b5, 2085-97-98 05:45:00:6981,-0.013,5.098,0.84,481.384,93.75,-203.369,-17.194,-13.541,46.384
 14:19:01.277,eb:33:2e:f9:57:b5, 2085-97-146 02:48:233:4493,-0.051,-0.609,4.038,408.813,442.139,63.477,-12.266,-10.827,44.665
 14:19:01.277,eb:33:2e:f9:57:b5, 2085-97-212 241:215:07:4062,-1.052,-1.167,2.628,368.225,416.26,123.169,-8.141,-6.965,44.467
 14:19:01.299,eb:33:2e:f9:57:b5, 2085-97-13 250:24:10:3313,0.249,1.259,1.439,213.806,167.053,175.232,-5.581,-4.098,45.725
 14:19:01.299,eb:33:2e:f9:57:b5, 2085-97-14 08:15:12:6091,1.128,0.992,3.705,669.434,82.336,8.118,54.921,16.754,51.081
 14:19:01.299,eb:33:2e:f9:57:b5, 2085-97-140 04:134:16:7991,0.304,1.663,2.979,768.127,-152.954,-45.837,62.117,16.705,50.581
 14:19:01.299,eb:33:2e:f9:57:b5, 2085-97-115 253:161:04:14637,-0.453,1.479,5.718,759.338,-281.86,-149.536,69.23,16.611,47.884
 14:19:01.389,eb:33:2e:f9:57:b5, 2085-97-38 252:234:247:16102,-0.028,-0.432,7.944,714.294,-78.857,-191.956,76.058,17.666,45.346
 14:19:01.389,eb:33:2e:f9:57:b5, 2085-97-60 09:243:242:10080,1.095,-1.099,7.416,580.872,273.01,-113.464,82.892,19.391,46.324
 14:19:01.389,eb:33:2e:f9:57:b5, 2085-97-19 07:48:221:-2922,2.022,-2.847,0.786,229.553,309.814,-49.5,87.836,20.418,49.504
 14:19:01.389,eb:33:2e:f9:57:b5, 2085-97-169 05:238:243:-7239,-0.195,-4.96,-0.02,23.132,489.868,39.734,89.566,20.775,53.427
 14:19:01.392,eb:33:2e:f9:57:b5, 2085-97-13 10:159:249:3925,1.104,-0.803,0.059,-210.327,-65.979,-43.335,89.341,21.16,54.009
 14:19:01.392,eb:33:2e:f9:57:b5, 2085-97-59 06:247:236:5604,0.206,-1.924,3.385,-350.22,-52.551,-57.312,85.946,21.583,53.366
 14:19:01.392,eb:33:2e:f9:57:b5, 2085-97-107 04:48:238:4224,0.82,-2.316,1.853,-347.656,-121.948,-44.189,82.249,22.022,52.454
 14:19:01.392,eb:33:2e:f9:57:b5, 2085-97-116 07:22:238:3379,0.871,-2.23,2.043,-370.239,-69.031,-17.761,78.289,22.11,51.405
 14:19:01.420,eb:33:2e:f9:57:b5, 2085-97-174 06:58:238:1707,0.848,-2.237,1.159,-393.25,-82.458,-23.987,74.246,22.143,50.636
 14:19:01.420,eb:33:2e:f9:57:b5, 2085-97-248 06:220:237:1084,0.868,-2.232,0.61,-456.238,-107.483,-13.672,69.642,22.011,49.62
 14:19:01.420,eb:33:2e:f9:57:b5, 2085-97-01 07:79:238:1666,0.9,-2.273,0.619,-522.522,-147.278,-8.789,64.314,21.577,48.329
 14:19:01.420,eb:33:2e:f9:57:b5, 2085-97-87 07:48:240:2383,0.88,-2.11,1.019,-573.975,-161.316,-10.498,58.31,20.874,46.84
 14:19:02.019,eb:33:2e:f9:57:b5, 2085-97-35 06:69:243:2679,0.647,-1.8,1.23,-599.976,-160.217,-16.479,51.998,20.039,45.401
 14:19:02.020,eb:33:2e:f9:57:b5, 2085-97-194 04:204:247:3276,0.619,-1.325,1.438,-592.102,-160.828,-20.63,45.604,19.094,44.017
 14:19:02.020,eb:33:2e:f9:57:b5, 2085-97-252 04:183:251:4013,0.531,-0.742,1.83,-554.749,-145.996,-29.541,39.556,18.1,42.77
 14:19:02.020,eb:33:2e:f9:57:b5, 2085-97-162 03:157:251:3496,0.429,-0.494,1.823,-506.226,-139.099,-26.062,33.997,17.155,41.704
 14:19:02.021,eb:33:2e:f9:57:b5, 2085-113-58 00:05:236:-5715,0.427,-0.613,1.644,-474.487,-158.02,-16.541,28.916,15.969,40.743
 14:19:02.021,eb:33:2e:f9:57:b5, 2085-97-134 03:96:250:3580,0.45,-0.665,1.653,-467.041,-161.438,-8.972,26.483,15.276,40.325
 14:19:02.021,eb:33:2e:f9:57:b5, 2085-97-147 03:68:250:4174,0.444,-0.723,1.896,-463.623,-159.363,8.606,21.676,13.788,39.688
 14:19:02.021,eb:33:2e:f9:57:b5, 2085-97-172 03:254:250:4718,0.483,-0.688,2.162,-460.938,-167.053,22.827,16.996,12.195,39.342
 14:19:02.079,eb:33:2e:f9:57:b5, 2085-97-224 03:210:252:5408,0.468,-0.527,2.477,-454.712,-186.218,30.029,12.354,10.399,39.194
 14:19:02.079,eb:33:2e:f9:57:b5, 2085-97-144 03:240:254:6205,0.393,-0.267,2.825,-444.946,-202.759,31.677,7.855,8.421,39.199
 14:19:02.079,eb:33:2e:f9:57:b5, 2085-97-184 02:33:01:6888,0.292,-0.001,3.21,-429.81,-215.576,30.457,3.45,6.295,39.353
 14:19:02.079,eb:33:2e:f9:57:b5, 2085-97-234 01:45:04:7320,0.163,0.31,3.49,-409.79,-225.891,25.635,-0.731,4.07,39.628
 14:19:02.081,eb:33:2e:f9:57:b5, 2085-97-70 00:88:08:7510,-0.141,0.779,3.631,-385.01,-227.661,19.714,-4.752,1.824,40.029
 14:19:02.081,eb:33:2e:f9:57:b5, 2085-97-147 253:170:11:7538,-0.437,1.271,3.664,-352.112,-242.493,16.113,-8.459,-0.472,40.518
 14:19:02.081,eb:33:2e:f9:57:b5, 2085-97-110 251:244:13:7495,-0.698,1.607,3.692,-317.81,-255.92,16.235,-11.898,-2.917,41.199
 14:19:02.081,eb:33:2e:f9:57:b5, 2085-97-55 249:43:16:7676,-0.988,1.881,3.681,-294.922,-265.137,21.423,-15.057,-5.394,42.05
 14:19:02.083,eb:33:2e:f9:57:b5, 2085-97-40 247:242:19:7916,-1.193,2.219,3.81,-289.612,-257.935,32.837,-18.204,-7.822,43.165
 14:19:02.083,eb:33:2e:f9:57:b5, 2085-97-10 245:138:40:3914,-1.467,2.849,3.906,-289.429,-208.984,46.448,-21.385,-9.871,44.412
 14:19:02.083,eb:33:2e:f9:57:b5, 2085-97-187 243:195:40:4382,-1.568,5.098,2.01,-19.531,-51.941,4.089,-30.992,-12.349,47.911
 14:19:02.083,eb:33:2e:f9:57:b5, 2085-97-136 243:250:39:4692,-1.501,5.066,2.238,20.203,-7.568,-3.967,-31.009,-12.612,48.076
 14:19:02.085,eb:33:2e:f9:57:b5, 2085-97-194 244:228:36:4788,1.874,4.847,2.319,60.669,47.058,-11.902,-30.526,-12.453,47.867
 14:19:02.085,eb:33:2e:f9:57:b5, 2085-97-154 00:145:00:2912,0.13,5.343,4.92,369.812,-161.804,-324.524,-28.823,-12.75,47.01
 14:19:02.085,eb:33:2e:f9:57:b5, 2085-97-47 01:240:00:2976,0.066,0.104,1.454,153.625,46.875,-27.344,9.338,9.146,46.434
 14:19:02.085,eb:33:2e:f9:57:b5, 2085-97-25 00:157:00:2747,-0.064,0.094,1.392,161.255,91.614,-38.94,10.893,9.932,46.208
 14:19:02.088,eb:33:2e:f9:57:b5, 2085-97-244 254:06:00:2712,-0.155,0.026,1.318,168.762,115.234,-39.062,12.541,11.063,45.989
 14:19:02.088,eb:33:2e:f9:57:b5, 2085-97-180 254:179:255:2922,-0.156,-0.027,1.385,179.688,120.239,-25.818,14.277,12.288,45.923
 14:19:02.088,eb:33:2e:f9:57:b5, 2085-97-206 254:115:255:3103,-0.169,-0.062,1.477,196.289,122.253,-9.277,16.194,13.519,46.06
 14:19:02.088,eb:33:2e:f9:57:b5, 2085-97-74 254:240:254:3067,-0.279,-0.091,1.529,219.177,120.728,7.019,18.336,14.689,46.401
 14:19:02.109,eb:33:2e:f9:57:b5, 2085-97-107 253:136:254:3082,-0.32,-0.165,1.481,248.535,102.661,21.484,20.797,15.732,46.917
 14:19:02.109,eb:33:2e:f9:57:b5, 2085-97-48 253:214:253:3241,-0.358,-0.237,1.565,285.278,69.702,31.494,23.593,16.414,47.472
 14:19:02.109,eb:33:2e:f9:57:b5, 2085-97-100 253:122:253:3618,-0.293,-0.286,1.655,332.214,26.184,32.288,26.818,16.732,47.988
 14:19:02.109,eb:33:2e:f9:57:b5, 2085-113-81 00:197:113:6100,-0.263,-0.388,1.876,390.503,-9.094,25.391,30.515,16.644,48.274
 14:19:02.109,eb:33:2e:f9:57:b5, 2085-97-226 253:05:253:4597,-0.236,-0.358,2,422.302,-24.78,19.043,32.58,16.523,48.329
 14:19:02.199,eb:33:2e:f9:57:b5, 2085-97-18 255:123:254:5547,-0.092,-0.336,2.482,491.516,-27.222,10.315,37.167,16.199,48.274
 14:19:02.199,eb:33:2e:f9:57:b5, 2085-97-33 254:118:03:6786,-0.451,0.072,2.995,562.622,4.7,2.869,42.484,16.089,48.246
 14:19:02.199,eb:33:2e:f9:57:b5, 2085-97-07 250:94:06:9765,-0.784,0.66,4.022,621.277,27.649,2.38,48.461,16.194,48.373
 14:19:02.199,eb:33:2e:f9:57:b5, 2085-97-225 254:244:11:9446,0.333,1.329,4.857,688.11,34.729,31.616,55.14,16.331,48.961
 14:19:02.229,eb:33:2e:f9:57:b5, 2085-97-83 03:218:12:9044,-0.003,2.025,4.152,736.633,-77.393,-3.601,62.347,16.057,48.999
 14:19:02.229,eb:33:2e:f9:57:b5, 2085-97-199 254:08:02:11828,-0.163,1.034,4.845,723.877,-127.502,-73.608,69.428,16.018,47.829
 14:19:02.229,eb:33:2e:f9:57:b5, 2085-97-130 255:109:255:12821,0.438,-0.042,6.281,676.941,-0.061,-88.318,76.245,16.551,46.593
 14:19:02.229,eb:33:2e:f9:57:b5, 2085-97-183 06:84:245:10070,1.062,-0.7,6.161,509.277,193.359,-57.8,82.397,17.534,47.505
 14:19:02.231,eb:33:2e:f9:57:b5, 2085-97-173 08:201:230:6106,3.113,-2.213,2.484,251.648,231.567,-44.128,86.666,18.259,49.636
 14:19:02.231,eb:33:2e:f9:57:b5, 2085-97-206 248:167:246:-5577,0.347,-2.427,-0.38,215.393,442.139,-20.935,89.736,18.842,53.987
 14:19:02.231,eb:33:2e:f9:57:b5, 2085-97-252 11:179:234:2593,1.108,-1.478,-0.724,-164.124,31.494,-24.658,90.313,19.276,55.14
 14:19:02.231,eb:33:2e:f9:57:b5, 2085-97-89 06:76:232:3394,0.404,-3.208,1.719,-298.828,-23.56,-54.504,87.742,19.572,55.492
 14:19:02.291,eb:33:2e:f9:57:b5, 2085-97-84 06:100:239:4142,1.047,-2.276,1.429,-372.803,-105.774,-37.476,84.188,19.973,54.646
 14:19:02.291,eb:33:2e:f9:57:b5, 2085-97-236 07:195:237:3839,0.853,-2.159,2.266,-411.804,-73.059,-32.837,79.887,20.143,53.696
 14:19:02.291,eb:33:2e:f9:57:b5, 2085-97-120 06:154:237:1577,0.838,-2.309,1.22,-414.246,-121.155,-49.744,75.487,20.358,52.509
 14:19:02.291,eb:33:2e:f9:57:b5, 2085-97-01 07:209:237:836,0.918,-2.278,0.506,-454.59,-177.49,-37.292,70.653,20.303,50.861
 14:19:02.350,eb:33:2e:f9:57:b5, 2085-97-163 07:03:238:1556,1.014,-2.265,0.526,-512.939,-239.868,-28.259,65.193,19.753,48.691
 14:19:02.350,eb:33:2e:f9:57:b5, 2085-97-122 08:202:238:2397,1.044,-2.216,0.997,-566.406,-262.268,-25.879,59.079,18.743,46.236
 14:19:02.350,eb:33:2e:f9:57:b5, 2085-97-239 06:65:241:2899,0.597,-2.014,1.323,-597.717,-265.076,-22.888,52.641,17.43,43.852
 14:19:02.350,eb:33:2e:f9:57:b5, 2085-97-16 03:182:245:4207,0.313,-1.641,1.602,-595.581,-274.902,-7.202,46.126,15.71,41.666
 14:19:02.352,eb:33:2e:f9:57:b5, 2085-97-101 02:90:250:5000,0.312,-1.011,2.333,-563.293,-204.712,-2.319,40.04,13.991,40.023
 14:19:02.352,eb:33:2e:f9:57:b5, 2085-97-82 02:233:251:4364,0.269,-0.578,2.354,-508.911,-149.231,8.85,34.508,12.579,39.029
 14:19:02.352,eb:33:2e:f9:57:b5, 2085-97-45 02:241:251:3530,0.299,-0.494,1.899,-473.45,-117.249,14.465,29.553,11.393,38.452
 14:19:02.352,eb:33:2e:f9:57:b5, 2085-97-215 02:143:251:3404,0.42,-0.535,1.65,-456.116,-97.046,18.127,24.846,10.377,38.139
 14:19:02.470,eb:33:2e:f9:57:b5, 2085-97-234 03:128:251:3568,0.555,-0.562,1.687,-450.989,-96.558,21.362,20.303,9.426,37.98
 14:19:02.470,eb:33:2e:f9:57:b5, 2085-97-234 04:200:251:4062,0.653,-0.55,1.845,-447.144,-121.704,20.508,15.754,8.317,37.875
 14:19:02.470,eb:33:2e:f9:57:b5, 2085-97-91 05:224:252:4612,0.655,-0.487,2.12,-442.688,-153.625,15.869,11.299,6.916,37.755
 14:19:02.470,eb:33:2e:f9:57:b5, 2085-97-206 04:35:255:5195,0.537,-0.257,2.387,-436.096,-190.369,9.583,6.855,5.175,37.645
 14:19:02.800,eb:33:2e:f9:57:b5, 2085-97-165 03:157:01:6093,0.342,0.042,2.751,-426.147,-241.943,5.981,2.543,2.999,37.59
 14:19:02.800,eb:33:2e:f9:57:b5, 2085-97-120 01:98:05:6753,0.013,0.413,3.15,-408.875,-280.579,3.784,-1.675,0.335,37.689
 14:19:02.800,eb:33:2e:f9:57:b5, 2085-97-136 254:240:09:7945,-0.411,0.961,3.543,-374.451,-308.533,7.751,-5.62,-2.609,37.996
 14:19:02.800,eb:33:2e:f9:57:b5, 2085-97-244 250:180:13:8976,-0.79,1.498,4.176,-326.904,-306.58,19.348,-9.24,-5.68,38.633
 14:19:02.921,eb:33:2e:f9:57:b5, 2085-97-174 248:205:16:9298,-1.013,1.895,4.52,-290.649,-253.845,38.635,-12.464,-8.377,39.529
 14:19:02.921,eb:33:2e:f9:57:b5, 2085-97-86 247:133:22:9134,-0.633,2.398,4.495,-277.1,-177.124,55.969,-15.568,-10.294,40.611
 14:19:02.921,eb:33:2e:f9:57:b5, 2085-97-142 236:135:24:8371,-1.362,3.857,5.007,-218.994,-174.072,-10.742,-18.441,-11.585,41.451
 14:19:02.921,eb:33:2e:f9:57:b5, 2085-97-42 249:125:38:6997,-1.335,4.117,2.788,-256.958,-68.42,68.665,-21.253,-11.843,42.462
 14:19:02.950,eb:33:2e:f9:57:b5, 2085-97-127 244:53:44:5893,-1.429,5.362,2.861,-234.924,-35.156,47.119,-23.939,-11.904,43.039
 14:19:02.950,eb:33:2e:f9:57:b5, 2085-97-212 244:181:44:4243,-1.35,5.61,2.479,-166.443,-31.921,35.278,-26.098,-12.036,43.605
 14:19:02.950,eb:33:2e:f9:57:b5, 2085-97-222 244:149:44:3548,-1.434,5.566,1.778,-89.844,-16.785,17.151,-27.444,-12.134,43.83
 14:19:02.950,eb:33:2e:f9:57:b5, 2085-97-66 244:27:44:4074,-1.477,5.565,1.854,-37.109,-5.981,4.883,-28.087,-12.173,43.978
 14:19:02.952,eb:33:2e:f9:57:b5, 2085-97-60 244:58:41:4206,0.812,5.379,2.059,6.042,9.216,-4.272,-28.213,-12.162,43.841
 14:19:02.952,eb:33:2e:f9:57:b5, 2085-97-86 239:169:47:9613,-3.131,6.235,8.463,280.945,-22.095,-197.388,-26.878,-12.953,43.193
 14:19:02.952,eb:33:2e:f9:57:b5, 2085-97-21 05:137:11:1009,1.669,3.063,0.148,436.707,-76.05,-73.303,-22.923,-11.931,42.177
 14:19:02.953,eb:33:2e:f9:57:b5, 2085-97-29 243:243:253:1876,-0.121,0.399,2.595,389.282,398.254,28.442,-18.364,-11.294,40.897
 14:19:02.957,eb:33:2e:f9:57:b5, 2085-97-218 10:138:233:5355,-0.219,-2.757,1.655,433.777,123.352,-12.39,-14.156,-8.569,40.303
 14:19:02.957,eb:33:2e:f9:57:b5, 2085-97-160 242:235:11:4241,-1.223,-0.611,2.693,380.432,252.625,106.201,-9.888,-6.312,40.155
 14:19:02.957,eb:33:2e:f9:57:b5, 2085-97-72 254:180:07:4220,0.253,1.357,1.685,247.986,79.468,235.229,-7.147,-4.592,41.77
 14:19:02.957,eb:33:2e:f9:57:b5, 2085-97-216 01:05:02:2792,-0.081,0.512,1.734,153.992,152.832,234.253,-5.521,-3.071,44.088
 14:19:02.957,eb:33:2e:f9:57:b5, 2085-97-05 253:12:02:2774,-0.245,0.265,1.27,127.441,155.09,128.845,-4.34,-1.335,45.703
 14:19:02.957,eb:33:2e:f9:57:b5, 2085-97-254 253:34:255:2421,-0.323,-0.076,1.065,103.088,4.578,-12.512,3.268,10.574,44.72
 14:19:02.957,eb:33:2e:f9:57:b5, 2085-113-58 00:146:230:-3930,-0.316,-0.104,1.074,110.107,3.845,-8.118,4.323,10.651,44.621
 14:19:02.957,eb:33:2e:f9:57:b5, 2085-97-10 254:227:255:2121,-0.155,-0.07,0.987,113.892,-7.69,-6.653,4.883,10.64,44.583
 14:19:03.010,eb:33:2e:f9:57:b5, 2085-97-131 255:138:00:2527,0.062,0.015,1.126,122.986,-17.578,-12.085,6.07,10.508,44.484
 14:19:03.010,eb:33:2e:f9:57:b5, 2085-97-232 254:12:255:6019,-0.2,0.109,1.432,130.249,23.193,-30.273,7.328,10.481,44.253
 14:19:03.010,eb:33:2e:f9:57:b5, 2085-97-73 253:156:04:8123,-0.529,0.184,3.438,598.755,-12.207,19.836,43.715,17.413,46.434
 14:19:03.010,eb:33:2e:f9:57:b5, 2085-97-204 248:38:09:10632,-0.5,0.829,4.777,652.893,49.194,32.166,50.081,17.358,46.697
 14:19:03.070,eb:33:2e:f9:57:b5, 2085-97-166 255:33:14:8798,0.154,1.506,4.904,712.769,37.292,46.387,57.101,17.347,47.422
 14:19:03.070,eb:33:2e:f9:57:b5, 2085-97-240 01:206:09:9215,-0.212,1.862,4.149,737,-79.224,-6.958,64.396,17.04,47.335
 14:19:03.070,eb:33:2e:f9:57:b5, 2085-97-169 253:172:00:12964,-0.164,0.547,5.403,697.205,-102.661,-70.19,71.323,17.045,46.143
 14:19:03.070,eb:33:2e:f9:57:b5, 2085-97-156 00:116:248:12538,0.589,-0.017,6.665,613.953,124.023,-67.505,77.855,17.71,45.95
 14:19:03.072,eb:33:2e:f9:57:b5, 2085-97-25 08:47:237:3390,1.104,-1.776,4.405,420.105,212.891,-21.484,83.496,18.468,47.961
 14:19:03.072,eb:33:2e:f9:57:b5, 2085-97-74 22:62:227:2803,0.159,-2.417,0.844,124.573,282.166,-73.12,86.561,18.99,50.065
 14:19:03.072,eb:33:2e:f9:57:b5, 2085-97-226 254:37:245:-1221,1.338,-1.504,-2.655,75.073,87.769,-106.14,88.621,19.759,53.394
 14:19:03.072,eb:33:2e:f9:57:b5, 2085-97-229 07:53:232:4330,0.891,-1.935,1.209,-263.55,19.714,-76.66,87.242,20.687,53.251
 14:19:03.129,eb:33:2e:f9:57:b5, 2085-97-175 02:73:234:3070,0.489,-3.197,2.125,-309.204,-73.425,-104.065,84.089,21.654,52.701
 14:19:03.129,eb:33:2e:f9:57:b5, 2085-97-217 06:165:235:4347,0.937,-2.476,1.755,-379.272,-117.554,-64.697,80.228,22.308,51.229
 14:19:03.129,eb:33:2e:f9:57:b5, 2085-97-232 06:173:234:3109,0.789,-2.691,1.99,-410.461,-76.66,-53.772,75.866,22.654,50.235
 14:19:03.129,eb:33:2e:f9:57:b5, 2085-97-89 06:116:236:1619,0.872,-2.528,1.048,-440.979,-117.554,-42.847,71.257,22.835,49.081
 14:19:03.669,eb:33:2e:f9:57:b5, 2085-97-185 07:106:237:1555,1.065,-2.385,0.708,-494.141,-151.672,-18.616,66.061,22.582,47.642
 14:19:03.669,eb:33:2e:f9:57:b5, 2085-97-30 09:207:238:2230,1.179,-2.251,0.941,-540.222,-187.073,-10.315,60.337,21.89,45.967
 14:19:03.669,eb:33:2e:f9:57:b5, 2085-97-14 09:203:240:2726,1.055,-2.049,1.258,-575.256,-206.177,-13.062,54.157,20.874,44.143
 14:19:03.669,eb:33:2e:f9:57:b5, 2085-97-74 07:190:243:2892,0.743,-1.716,1.377,-595.642,-215.698,-12.39,47.78,19.616,42.369
 14:19:03.732,eb:33:2e:f9:57:b5, 2085-97-126 05:24:247:3592,0.717,-1.354,1.53,-591.675,-215.149,-3.723,41.369,18.089,40.754
 14:19:03.732,eb:33:2e:f9:57:b5, 2085-97-96 05:242:251:4642,0.599,-0.796,2.108,-556.213,-165.955,-7.263,35.338,16.578,39.507
 14:19:03.732,eb:33:2e:f9:57:b5, 2085-97-111 04:200:253:4481,0.552,-0.313,2.221,-497.681,-139.282,-3.235,29.872,15.375,38.683
 14:19:03.732,eb:33:2e:f9:57:b5, 2085-97-199 04:46:253:3994,0.659,-0.31,2.068,-440.857,-136.108,4.822,25.104,14.123,38.068
 14:19:03.733,eb:33:2e:f9:57:b5, 2085-97-174 05:10:252:3914,0.748,-0.41,1.89,-425.11,-121.704,14.648,20.698,12.892,37.672
 14:19:03.733,eb:33:2e:f9:57:b5, 2085-97-109 06:248:250:4252,0.854,-0.583,1.978,-432.617,-117.371,25.269,16.392,11.711,37.524
 14:19:03.733,eb:33:2e:f9:57:b5, 2085-97-30 07:41:252:4760,0.907,-0.599,2.189,-441.223,-143.311,27.405,11.97,10.382,37.496
 14:19:03.733,eb:33:2e:f9:57:b5, 2085-97-41 07:79:255:5548,0.861,-0.296,2.5,-445.618,-183.96,25.269,7.526,8.701,37.513
 14:19:03.735,eb:33:2e:f9:57:b5, 2085-97-63 06:100:02:6421,0.612,0.119,2.944,-442.627,-222.229,23.743,3.038,6.63,37.617
 14:19:03.735,eb:33:2e:f9:57:b5, 2085-97-202 03:07:05:6654,0.375,0.452,3.171,-427.49,-268.982,26.367,-1.307,4.169,37.881
 14:19:03.735,eb:33:2e:f9:57:b5, 2085-97-190 01:104:08:7391,0.048,0.82,3.422,-400.33,-316.04,30.457,-5.499,1.225,38.414
 14:19:03.735,eb:33:2e:f9:57:b5, 2085-97-224 254:29:12:8889,-0.338,1.282,3.946,-365.967,-346.191,42.48,-9.388,-2.038,39.287
 14:19:03.739,eb:33:2e:f9:57:b5, 2085-97-250 251:125:16:9706,-0.627,1.777,4.607,-334.29,-309.753,63.11,-13.074,-5.169,40.562
 14:19:03.739,eb:33:2e:f9:57:b5, 2085-97-25 250:07:22:9525,-0.832,2.379,4.751,-315.063,-230.469,83.74,-16.573,-7.542,42.039
 14:19:03.739,eb:33:2e:f9:57:b5, 2085-97-197 248:175:29:8655,-0.995,3.2,4.466,-303.162,-149.78,95.215,-20.017,-8.981,43.577
 14:19:03.739,eb:33:2e:f9:57:b5, 2085-97-59 247:220:37:7142,-1.17,4.246,3.915,-281.433,-98.389,92.834,-23.264,-9.712,44.951
 14:19:03.820,eb:33:2e:f9:57:b5, 2085-97-34 246:118:43:5555,-1.286,5.144,3.067,-233.337,-78.186,79.956,-26.147,-10.102,46.165
 14:19:03.820,eb:33:2e:f9:57:b5, 2085-97-219 00:39:01:2557,0.034,5.594,2.384,-161.621,-73.364,62.683,-28.345,-10.421,47.043
 14:19:03.820,eb:33:2e:f9:57:b5, 2085-97-216 255:170:00:2640,-0.068,0.121,1.221,172.668,80.078,-37.537,11.349,11.86,48.186
 14:19:03.820,eb:33:2e:f9:57:b5, 2085-97-245 254:220:255:2898,-0.147,0.013,1.39,180.481,108.276,-34.729,13.085,12.849,47.983
 14:19:03.820,eb:33:2e:f9:57:b5, 2085-113-58 00:222:229:-5250,-0.102,-0.005,1.423,191.711,123.047,-21.973,14.963,14.079,47.983
