Time,Device name,Chip Time(),Acceleration X(g),Acceleration Y(g),Acceleration Z(g),Angular velocity X(°/s),Angular velocity Y(°/s),Angular velocity Z(°/s),Angle X(°),Angle Y(°),Angle Z(°)
 15:26:05.234,eb:33:2e:f9:57:b5, 2085-97-23 00:246:255:2019,0.006,-0.015,0.988,-1.587,22.461,-2.808,1.45,-0.868,-125.728
 15:26:05.234,eb:33:2e:f9:57:b5, 2085-97-233 255:03:00:2002,-0.019,0.006,0.984,-0.488,20.447,-2.93,1.439,-0.654,-125.755
 15:26:05.234,eb:33:2e:f9:57:b5, 2085-97-05 00:24:00:2014,0.02,0.011,0.973,0.305,16.968,-3.235,1.445,-0.467,-125.782
 15:26:05.234,eb:33:2e:f9:57:b5, 2085-97-43 00:245:255:2037,0.021,0.007,0.992,1.099,15.686,-3.784,1.45,-0.308,-125.815
 15:26:05.262,eb:33:2e:f9:57:b5, 2085-97-46 00:223:255:2057,0.031,-0.013,0.994,2.441,15.076,-3.845,1.467,-0.154,-125.854
 15:26:05.262,eb:33:2e:f9:57:b5, 2085-97-80 00:220:255:2126,0.053,-0.015,1.02,3.54,15.564,-2.747,1.5,0,-125.887
 15:26:05.262,eb:33:2e:f9:57:b5, 2085-97-122 00:224:255:2131,0.044,-0.024,1.049,4.883,18.86,-0.671,1.544,0.17,-125.898
 15:26:05.262,eb:33:2e:f9:57:b5, 2085-97-12 00:12:00:2050,-0.014,-0.003,1.026,6.348,21.79,-1.465,1.599,0.379,-125.909
 15:26:05.293,eb:33:2e:f9:57:b5, 2085-97-230 255:31:00:2037,0.06,0.015,0.991,7.019,20.325,-2.563,1.67,0.588,-125.925
 15:26:05.293,eb:33:2e:f9:57:b5, 2085-97-235 255:42:00:2059,-0.002,0.01,1.069,6.165,31.25,-3.662,1.736,0.829,-125.964
 15:26:05.293,eb:33:2e:f9:57:b5, 2085-97-10 00:01:00:2100,0.032,-0.001,1.022,7.263,26.978,-2.38,1.802,1.115,-125.997
 15:26:05.293,eb:33:2e:f9:57:b5, 2085-97-47 00:246:255:2134,0.009,0.006,1.043,8.85,27.283,-0.366,1.884,1.373,-126.002
 15:26:05.352,eb:33:2e:f9:57:b5, 2085-97-55 00:246:255:2157,0.013,-0.007,1.043,10.864,28.442,-0.671,1.983,1.653,-125.997
 15:26:05.352,eb:33:2e:f9:57:b5, 2085-97-57 00:53:00:2180,0.02,0.018,1.036,11.475,30.151,-5.737,2.098,1.95,-126.024
 15:26:05.352,eb:33:2e:f9:57:b5, 2085-97-250 255:45:00:2154,-0.027,0.037,1.052,10.315,38.025,-6.042,2.203,2.302,-126.074
 15:26:05.352,eb:33:2e:f9:57:b5, 2085-97-217 255:75:00:2113,-0.041,0.027,1.036,9.216,40.466,-6.348,2.302,2.703,-126.123
 15:26:05.384,eb:33:2e:f9:57:b5, 2085-97-80 255:57:00:1990,-0.108,0.039,1.004,7.446,40.894,-7.08,2.379,3.115,-126.183
 15:26:05.384,eb:33:2e:f9:57:b5, 2085-97-77 255:54:00:1992,-0.046,0.014,0.968,6.958,34.241,-7.69,2.45,3.494,-126.244
 15:26:05.384,eb:33:2e:f9:57:b5, 2085-97-04 00:55:00:2111,0.038,0.037,0.998,5.31,27.771,-9.216,2.505,3.801,-126.321
 15:26:05.384,eb:33:2e:f9:57:b5, 2085-97-155 00:46:00:2187,0.177,0.047,1.013,0.61,27.466,-10.376,2.538,4.076,-126.403
 15:26:05.414,eb:33:2e:f9:57:b5, 2085-97-12 03:15:02:1661,0.137,-0.119,1.261,2.258,35.4,0.122,2.532,4.378,-126.48
 15:26:05.414,eb:33:2e:f9:57:b5, 2085-97-57 01:152:00:2106,-0.075,0.423,0.747,-6.042,-3.601,-19.653,2.499,4.57,-126.535
 15:26:05.414,eb:33:2e:f9:57:b5, 2085-97-34 255:70:253:3509,-0.105,-0.01,1.169,10.254,-25.269,-12.878,2.488,4.477,-126.639
 15:26:05.414,eb:33:2e:f9:57:b5, 2085-97-00 255:142:249:5930,-0.197,-0.644,2.34,74.158,-39.978,9.888,2.933,4.048,-126.727
 15:26:05.472,eb:33:2e:f9:57:b5, 2085-97-153 255:195:253:3277,0.044,-0.736,2.553,111.084,22.095,83.984,3.911,3.994,-126.233
 15:26:05.472,eb:33:2e:f9:57:b5, 2085-97-109 00:74:255:2705,0.036,0.033,1.156,144.043,-28.076,63.599,5.268,3.939,-125.431
 15:26:05.472,eb:33:2e:f9:57:b5, 2085-97-12 00:182:252:3901,0.024,-0.275,1.745,163.879,-54.871,32.837,6.844,3.406,-125.046
 15:26:05.472,eb:33:2e:f9:57:b5, 2085-97-154 00:122:254:3340,0.09,-0.331,1.809,183.35,-43.579,18.494,8.597,2.911,-124.827
 15:26:05.503,eb:33:2e:f9:57:b5, 2085-97-85 01:76:254:4137,0.317,-0.172,1.66,211.243,-71.899,-27.954,10.574,2.346,-124.975
 15:26:05.503,eb:33:2e:f9:57:b5, 2085-97-254 02:115:253:4540,0.515,-0.285,2.108,246.887,-65.674,-60.364,12.865,1.73,-125.596
 15:26:05.503,eb:33:2e:f9:57:b5, 2085-97-121 04:138:252:4460,0.542,-0.325,2.153,281.311,-27.283,-80.688,15.513,1.467,-126.392
 15:26:05.503,eb:33:2e:f9:57:b5, 2085-97-71 04:231:253:4992,0.72,-0.392,2.324,304.565,28.687,-87.402,18.446,1.714,-127.222
 15:26:05.533,eb:33:2e:f9:57:b5, 2085-97-195 05:185:255:4470,0.771,-0.121,2.295,335.571,78.247,-86.548,21.632,2.587,-127.809
 15:26:05.533,eb:33:2e:f9:57:b5, 2085-97-36 07:103:253:5831,1.045,-0.166,2.452,356.018,99.243,-103.76,25.082,3.73,-128.403
 15:26:05.533,eb:33:2e:f9:57:b5, 2085-97-128 07:02:254:5513,0.981,-0.216,2.834,370.728,178.528,-87.524,28.707,5.433,-128.622
 15:26:05.533,eb:33:2e:f9:57:b5, 2085-97-139 04:00:01:4549,0.64,-0.207,2.248,384.094,213.745,-74.158,32.525,7.625,-128.287
 15:26:05.593,eb:33:2e:f9:57:b5, 2085-97-213 05:78:255:5442,0.871,0.016,2.395,387.512,210.266,-103.333,36.42,9.915,-127.853
 15:26:05.593,eb:33:2e:f9:57:b5, 2085-97-226 07:111:250:5453,1.066,-0.337,2.755,380.371,202.332,-159.546,40.32,12.332,-127.65
 15:26:05.593,eb:33:2e:f9:57:b5, 2085-97-12 11:69:247:5100,1.934,-0.863,2.456,376.343,206.238,-199.402,44.094,15.095,-127.617
 15:26:05.593,eb:33:2e:f9:57:b5, 2085-97-21 21:147:240:7474,2.226,-1.509,3.118,399.353,185.73,-230.53,47.851,17.968,-127.908
 15:26:05.622,eb:33:2e:f9:57:b5, 2085-97-165 07:19:249:232,0.591,-1.988,2.34,456.116,186.584,-222.412,52.213,21,-127.87
 15:26:05.622,eb:33:2e:f9:57:b5, 2085-97-09 02:204:245:-4485,0.269,-1.449,-1.15,317.017,27.466,-213.745,55.778,23.5,-128.661
 15:26:05.622,eb:33:2e:f9:57:b5, 2085-97-217 02:96:248:-5311,0.687,-0.782,-2.968,81.909,-38.818,-154.968,57.239,24.835,-129.792
 15:26:05.622,eb:33:2e:f9:57:b5, 2085-97-145 06:138:244:1605,0.682,-1.278,-0.738,-97.412,-105.042,-147.4,56.239,25.598,-131.572
 15:26:05.652,eb:33:2e:f9:57:b5, 2085-97-79 03:157:244:3306,0.44,-1.479,1.515,-178.528,-25.085,-98.572,54.141,26.191,-132.957
 15:26:05.652,eb:33:2e:f9:57:b5, 2085-97-05 04:252:246:2337,0.433,-1.291,1.484,-196.96,40.405,-74.646,52.031,26.944,-133.412
 15:26:05.652,eb:33:2e:f9:57:b5, 2085-97-10 03:201:248:652,0.373,-0.979,0.632,-204.895,48.706,-56.58,49.999,27.757,-133.429
 15:26:05.652,eb:33:2e:f9:57:b5, 2085-97-11 03:178:249:129,0.392,-0.84,0.145,-213.928,12.085,-50.598,47.834,28.35,-133.572
 15:26:05.712,eb:33:2e:f9:57:b5, 2085-97-98 03:40:250:237,0.433,-0.746,0.052,-224.365,-40.771,-46.936,45.385,28.57,-134.088
 15:26:05.712,eb:33:2e:f9:57:b5, 2085-97-104 03:194:249:713,0.404,-0.753,0.23,-235.596,-86.731,-42.419,42.654,28.383,-134.984
 15:26:05.712,eb:33:2e:f9:57:b5, 2085-97-13 03:104:249:1092,0.352,-0.8,0.439,-247.437,-113.159,-29.114,39.727,27.823,-136.044
 15:26:05.712,eb:33:2e:f9:57:b5, 2085-97-131 02:127:249:1358,0.287,-0.832,0.616,-257.446,-128.357,-9.888,36.744,26.966,-137.043
 15:26:05.742,eb:33:2e:f9:57:b5, 2085-97-227 01:37:250:1351,0.219,-0.776,0.684,-268.372,-139.465,15.991,33.739,25.823,-137.862
 15:26:05.742,eb:33:2e:f9:57:b5, 2085-97-178 01:165:250:1416,0.221,-0.694,0.668,-281.128,-158.691,41.992,30.751,24.39,-138.439
 15:26:05.742,eb:33:2e:f9:57:b5, 2085-97-245 01:14:251:1616,0.279,-0.645,0.738,-295.898,-180.786,68.42,27.702,22.604,-138.785
 15:26:05.742,eb:33:2e:f9:57:b5, 2085-97-102 02:149:251:1928,0.309,-0.587,0.861,-309.143,-201.172,93.018,24.637,20.511,-138.867
 15:26:05.773,eb:33:2e:f9:57:b5, 2085-97-141 02:241:251:2357,0.243,-0.526,1.035,-316.04,-221.497,113.159,21.539,18.138,-138.702
 15:26:05.773,eb:33:2e:f9:57:b5, 2085-97-32 253:98:246:5662,0.146,-0.556,1.392,-318.054,-226.562,133.24,18.49,15.584,-138.263
 15:26:05.773,eb:33:2e:f9:57:b5, 2085-113-81 00:81:44:4900,0.616,-0.205,0.535,-325.806,-203.369,163.269,15.551,13.282,-137.203
 15:26:05.773,eb:33:2e:f9:57:b5, 2085-97-22 04:07:255:2921,0.493,-0.223,1.281,-318.42,-228.76,171.814,14.057,11.975,-136.664
 15:26:05.833,eb:33:2e:f9:57:b5, 2085-97-130 04:38:255:3361,0.552,-0.189,1.574,-307.739,-230.591,169.067,11.14,9.377,-135.417
 15:26:05.833,eb:33:2e:f9:57:b5, 2085-97-196 04:150:00:3909,0.587,0.041,1.714,-281.921,-253.296,157.715,8.355,6.702,-134.16
 15:26:05.833,eb:33:2e:f9:57:b5, 2085-97-47 04:189:02:4434,0.465,0.162,2.076,-252.502,-246.338,144.653,5.801,4.043,-132.929
 15:26:05.833,eb:33:2e:f9:57:b5, 2085-97-142 03:172:05:3990,0.401,0.535,2.133,-230.103,-244.995,115.234,3.439,1.505,-131.786
 15:26:05.862,eb:33:2e:f9:57:b5, 2085-97-200 02:220:06:3640,0.284,0.816,1.8,-240.173,-259.583,73.547,1.11,-1.033,-130.935
 15:26:05.862,eb:33:2e:f9:57:b5, 2085-97-191 01:126:06:4264,0.143,0.842,1.89,-257.935,-283.875,31.25,-1.445,-3.768,-130.38
 15:26:05.862,eb:33:2e:f9:57:b5, 2085-97-151 00:119:06:5203,0,0.801,2.308,-258.24,-300.781,-10.01,-4.065,-6.702,-130.106
 15:26:05.862,eb:33:2e:f9:57:b5, 2085-97-40 255:214:06:5898,-0.278,0.825,2.744,-246.765,-297.424,-45.532,-6.608,-9.739,-130.084
 15:26:05.893,eb:33:2e:f9:57:b5, 2085-97-14 252:244:07:5867,-0.717,0.915,2.918,-235.962,-279.907,-64.697,-8.987,-12.673,-130.221
 15:26:05.893,eb:33:2e:f9:57:b5, 2085-97-110 248:69:09:5126,-1.135,1.081,2.709,-249.512,-251.343,-61.279,-11.371,-15.419,-130.353
 15:26:05.893,eb:33:2e:f9:57:b5, 2085-97-155 245:141:09:4970,-1.398,1.186,2.382,-287.537,-211.487,-33.142,-14.101,-17.759,-130.27
 15:26:05.893,eb:33:2e:f9:57:b5, 2085-97-121 244:242:10:5500,-1.407,1.246,2.569,-305.908,-156.982,6.653,-17.265,-19.572,-129.836
 15:26:05.952,eb:33:2e:f9:57:b5, 2085-97-125 245:87:15:5363,-1.214,1.594,2.698,-289.673,-73.303,48.096,-20.506,-20.522,-129.128
 15:26:05.952,eb:33:2e:f9:57:b5, 2085-97-216 246:81:21:4555,-1.106,2.278,2.449,-256.226,1.77,70.618,-23.505,-20.555,-128.386
 15:26:05.952,eb:33:2e:f9:57:b5, 2085-97-84 247:255:26:4330,-0.561,3.036,2.104,-205.261,33.813,67.932,-26.021,-20.05,-127.804
 15:26:05.952,eb:33:2e:f9:57:b5, 2085-97-36 244:125:40:5568,-1.626,2.393,6.814,-9.155,104.797,119.446,-27.438,-19.407,-127.403
 15:26:06.014,eb:33:2e:f9:57:b5, 2085-97-229 238:188:30:4954,-2.34,3.349,3.089,152.344,205.627,87.769,-26.658,-17.518,-127.463
 15:26:06.014,eb:33:2e:f9:57:b5, 2085-97-202 240:254:17:1323,-0.839,3.395,2.382,249.695,304.321,77.759,-24.417,-14.854,-127.842
 15:26:06.014,eb:33:2e:f9:57:b5, 2085-97-155 06:173:249:1595,1.815,0.755,-0.374,190.063,160.767,48.157,-22.039,-12.552,-128.353
 15:26:06.014,eb:33:2e:f9:57:b5, 2085-97-250 13:187:238:5004,1.08,-2.422,2.298,222.839,151.611,53.65,-20.072,-11.201,-128.441
 15:26:06.014,eb:33:2e:f9:57:b5, 2085-97-177 255:244:04:4203,-1.505,-0.952,2.385,283.02,242.798,70.251,-17.435,-9.025,-128.496
 15:26:06.014,eb:33:2e:f9:57:b5, 2085-97-230 242:02:09:2595,-1.224,1.14,1.763,279.48,244.324,48.767,-14.54,-6.372,-128.666
 15:26:06.014,eb:33:2e:f9:57:b5, 2085-97-94 250:240:03:1789,-0.114,0.758,1.18,266.724,112.488,12.451,-11.821,-4.636,-128.826
 15:26:06.014,eb:33:2e:f9:57:b5, 2085-97-85 255:164:00:2353,-0.195,0.089,1.223,216.614,54.26,-6.653,-9.377,-4.081,-129.012
 15:26:06.073,eb:33:2e:f9:57:b5, 2085-97-203 252:149:02:1801,-0.41,0.188,1.059,183.472,52.185,-6.592,-7.399,-3.543,-129.155
 15:26:06.073,eb:33:2e:f9:57:b5, 2085-97-83 254:03:01:1767,-0.006,0.303,0.804,159.79,19.653,-33.813,-5.674,-3.241,-129.408
 15:26:06.073,eb:33:2e:f9:57:b5, 2085-97-248 00:95:255:1914,0.435,-0.066,0.929,139.648,15.32,-39.917,-4.164,-3.115,-129.825
 15:26:06.073,eb:33:2e:f9:57:b5, 2085-97-252 02:88:02:2779,0.019,-0.137,0.971,96.497,-9.216,-17.517,-3.032,-3.148,-130.144
 15:26:06.103,eb:33:2e:f9:57:b5, 2085-97-62 255:133:02:1746,-0.065,0.499,1.053,67.749,22.278,3.357,-2.214,-3.049,-130.193
 15:26:06.103,eb:33:2e:f9:57:b5, 2085-97-120 00:239:01:1942,0.064,0.314,0.848,32.715,23.56,12.268,-1.747,-2.78,-130.089
 15:26:06.103,eb:33:2e:f9:57:b5, 2085-97-118 255:76:00:1871,-0.116,0.092,1.007,22.949,24.353,-4.822,-1.494,-2.576,-130.078
 15:26:06.103,eb:33:2e:f9:57:b5, 2085-97-212 255:10:01:1852,0.078,0.099,0.849,16.357,17.761,-5.005,-1.285,-2.346,-130.144
 15:26:06.133,eb:33:2e:f9:57:b5, 2085-97-162 00:215:255:2061,0.008,0.049,0.997,6.226,12.756,-4.822,-1.181,-2.214,-130.199
 15:26:06.133,eb:33:2e:f9:57:b5, 2085-97-131 255:219:255:1842,-0.078,-0.014,0.956,4.883,12.146,-4.7,-1.121,-2.076,-130.248
 15:26:06.133,eb:33:2e:f9:57:b5, 2085-97-245 255:06:00:2026,-0.016,0.01,0.907,3.357,-10.01,-4.578,-1.077,-2.076,-130.298
 15:26:06.133,eb:33:2e:f9:57:b5, 2085-97-43 00:193:255:2124,0.015,-0.018,1.006,1.465,-11.475,-5.676,-1.049,-2.181,-130.342
 15:26:06.194,eb:33:2e:f9:57:b5, 2085-97-46 00:213:255:2073,0.054,-0.034,1.019,0.671,-9.338,-4.7,-1.038,-2.28,-130.391
 15:26:06.194,eb:33:2e:f9:57:b5, 2085-97-13 00:240:255:1987,0.001,-0.01,1.026,-1.404,-6.958,-4.883,-1.033,-2.368,-130.435
 15:26:06.194,eb:33:2e:f9:57:b5, 2085-97-94 00:252:255:2022,0.066,-0.009,0.966,-0.977,-17.822,-5.493,-1.044,-2.505,-130.49
 15:26:06.194,eb:33:2e:f9:57:b5, 2085-97-54 00:49:00:2009,0.049,0.008,1.018,-2.502,-11.169,-2.808,-1.055,-2.664,-130.523
 15:26:06.222,eb:33:2e:f9:57:b5, 2085-97-90 00:11:00:2058,0.073,0.008,0.993,-3.54,-10.437,-3.601,-1.082,-2.774,-130.556
 15:26:06.222,eb:33:2e:f9:57:b5, 2085-97-181 00:187:255:2144,0.129,-0.022,1.017,-3.845,-8.728,-3.174,-1.115,-2.878,-130.589
 15:26:06.222,eb:33:2e:f9:57:b5, 2085-97-96 00:85:00:1871,0.064,-0.053,1.171,-5.798,23.804,8.118,-1.159,-2.845,-130.573
 15:26:06.222,eb:33:2e:f9:57:b5, 2085-97-218 00:24:00:2113,0.099,0.009,0.986,-5.249,0.427,-1.16,-1.214,-2.741,-130.556
 15:26:06.252,eb:33:2e:f9:57:b5, 2085-97-206 00:245:255:2098,0.08,0.011,1.021,-6.104,4.15,-2.258,-1.269,-2.708,-130.567
 15:26:06.252,eb:33:2e:f9:57:b5, 2085-97-172 00:237:255:2059,0.092,-0.01,1.014,-6.592,8.24,-2.991,-1.329,-2.642,-130.6
 15:26:06.252,eb:33:2e:f9:57:b5, 2085-97-200 00:24:00:2085,0.088,0.015,1.006,-7.69,10.193,-4.028,-1.401,-2.554,-130.638
 15:26:06.252,eb:33:2e:f9:57:b5, 2085-97-174 00:107:255:2048,0.081,-0.036,1.005,-7.812,15.32,-5.066,-1.472,-2.422,-130.688
 15:26:06.312,eb:33:2e:f9:57:b5, 2085-97-154 00:77:255:2050,0.062,-0.074,1.002,-5.371,16.357,-5.798,-1.538,-2.263,-130.754
 15:26:06.312,eb:33:2e:f9:57:b5, 2085-97-117 00:128:255:2062,0.039,-0.08,0.999,-2.563,16.663,-5.859,-1.571,-2.098,-130.82
 15:26:06.312,eb:33:2e:f9:57:b5, 2085-97-56 00:177:255:2038,0.062,-0.046,1.014,-0.793,17.761,-5.981,-1.582,-1.928,-130.886
 15:26:06.312,eb:33:2e:f9:57:b5, 2085-97-00 00:112:255:1986,0.021,-0.039,1.042,-0.671,22.766,-4.517,-1.582,-1.741,-130.946
 15:26:06.342,eb:33:2e:f9:57:b5, 2085-97-58 00:116:255:2022,0.037,-0.084,0.989,0.916,18.188,-3.845,-1.582,-1.544,-130.995
 15:26:06.342,eb:33:2e:f9:57:b5, 2085-97-198 00:114:255:2180,0.017,-0.067,0.997,2.747,10.498,-6.775,-1.555,-1.417,-131.061
 15:26:06.342,eb:33:2e:f9:57:b5, 2085-97-58 00:200:255:2037,0.049,-0.018,0.949,2.686,14.221,-6.958,-1.527,-1.252,-131.116
 15:26:06.342,eb:33:2e:f9:57:b5, 2085-97-92 00:203:255:2091,0.047,-0.029,1.019,2.136,17.517,-5.066,-1.494,-1.104,-131.188
 15:26:06.433,eb:33:2e:f9:57:b5, 2085-97-76 00:179:255:2096,0.046,-0.029,1.022,2.625,21.179,-5.92,-1.467,-0.912,-131.248
 15:26:06.434,eb:33:2e:f9:57:b5, 2085-97-121 00:94:255:2202,0.09,-0.052,1.042,4.15,24.17,-6.531,-1.428,-0.692,-131.32
 15:26:06.434,eb:33:2e:f9:57:b5, 2085-97-08 01:168:255:2242,0.1,-0.079,1.09,8.057,29.846,-7.446,-1.368,-0.423,-131.402
 15:26:06.434,eb:33:2e:f9:57:b5, 2085-97-83 00:213:255:2119,0.011,-0.024,1.069,8.667,39.062,-9.338,-1.274,-0.071,-131.501
 15:26:06.434,eb:33:2e:f9:57:b5, 2085-97-92 00:196:255:2154,0.093,-0.03,1.027,8.728,41.382,-10.742,-1.187,0.33,-131.616
 15:26:06.434,eb:33:2e:f9:57:b5, 2085-97-194 00:138:255:2299,0.06,-0.031,1.084,9.277,49.072,-13.306,-1.093,0.769,-131.754
 15:26:06.434,eb:33:2e:f9:57:b5, 2085-97-70 00:165:255:2165,-0.004,-0.059,1.087,10.01,60.547,-14.771,-1,1.329,-131.907
 15:26:06.434,eb:33:2e:f9:57:b5, 2085-97-216 255:17:00:2110,-0.037,-0.004,1.025,7.751,64.087,-17.212,-0.912,1.956,-132.089
 15:26:06.461,eb:33:2e:f9:57:b5, 2085-97-89 255:193:255:2018,-0.123,-0.011,1.024,5.92,63.354,-14.587,-0.851,2.593,-132.27
 15:26:06.461,eb:33:2e:f9:57:b5, 2085-97-25 255:231:255:1980,-0.097,-0.028,0.955,5.432,52.673,-11.597,-0.797,3.175,-132.418
 15:26:06.461,eb:33:2e:f9:57:b5, 2085-97-141 255:171:255:2099,-0.019,-0.017,0.978,4.578,41.443,-9.644,-0.753,3.631,-132.534
 15:26:06.461,eb:33:2e:f9:57:b5, 2085-97-21 00:142:255:2190,0.073,-0.094,1.099,6.226,37.17,-1.526,-0.698,4.01,-132.61
 15:26:06.523,eb:33:2e:f9:57:b5, 2085-97-19 01:16:00:2033,0.267,-0.057,1.081,8.057,26.489,11.963,-0.626,4.334,-132.572
 15:26:06.523,eb:33:2e:f9:57:b5, 2085-97-177 02:234:07:064,0.061,-0.113,1.311,22.034,-10.681,48.096,-0.483,4.367,-132.363
 15:26:06.523,eb:33:2e:f9:57:b5, 2085-97-118 254:188:244:8828,-0.32,-0.47,2.253,64.636,-109.802,-20.081,-0.049,3.422,-132.341
 15:26:06.523,eb:33:2e:f9:57:b5, 2085-97-55 254:206:253:2696,0.141,-1.514,3.43,121.338,33.203,116.882,0.928,3.164,-131.885
 15:26:06.553,eb:33:2e:f9:57:b5, 2085-97-230 00:09:00:2553,-0.065,0.239,0.61,155.334,-62.439,53.65,2.39,3.071,-130.941
 15:26:06.553,eb:33:2e:f9:57:b5, 2085-97-223 254:53:251:4156,-0.021,-0.569,2.05,171.204,-71.35,17.944,4.048,2.236,-130.732
 15:26:06.553,eb:33:2e:f9:57:b5, 2085-97-239 00:36:254:3402,0.239,-0.38,1.733,190.369,-59.998,3.54,5.856,1.642,-130.627
 15:26:06.553,eb:33:2e:f9:57:b5, 2085-97-156 02:136:254:3767,0.317,-0.112,1.767,217.651,-65.674,-40.283,7.91,1.027,-130.897
 15:26:06.581,eb:33:2e:f9:57:b5, 2085-97-227 02:236:252:3896,0.392,-0.251,1.855,242.065,-56.091,-63.721,10.217,0.489,-131.528
 15:26:06.581,eb:33:2e:f9:57:b5, 2085-97-59 03:112:253:4001,0.561,-0.413,1.886,266.479,-18.616,-70.129,12.772,0.253,-132.275
 15:26:06.581,eb:33:2e:f9:57:b5, 2085-97-81 05:236:253:3940,0.732,-0.302,1.899,287.964,24.78,-75.256,15.562,0.478,-132.962
 15:26:06.581,eb:33:2e:f9:57:b5, 2085-97-113 06:13:254:4245,0.966,-0.193,2.034,307.983,64.087,-89.478,18.545,1.148,-133.627
 15:26:06.643,eb:33:2e:f9:57:b5, 2085-97-32 08:49:254:4189,1.042,-0.219,2.027,335.327,101.624,-103.271,21.758,2.274,-134.253
 15:26:06.643,eb:33:2e:f9:57:b5, 2085-97-227 06:46:00:5226,0.89,-0.127,2.188,352.051,146.362,-114.014,25.186,3.851,-134.78
 15:26:06.643,eb:33:2e:f9:57:b5, 2085-97-232 07:186:254:5882,1.128,0.003,2.877,372.925,210.388,-112.854,28.801,5.977,-135.011
 15:26:06.643,eb:33:2e:f9:57:b5, 2085-97-188 11:218:254:5422,1.218,0.191,2.756,390.747,250,-112.427,32.673,8.525,-134.758
 15:26:06.643,eb:33:2e:f9:57:b5, 2085-97-99 09:79:00:5425,0.897,-0.007,2.634,386.414,286.316,-105.652,36.661,11.343,-134.193
 15:26:06.674,eb:33:2e:f9:57:b5, 2085-113-58 00:218:233:-9765,0.651,0.208,2.514,396.484,289.307,-107.422,40.776,14.31,-133.187
 15:26:06.674,eb:33:2e:f9:57:b5, 2085-97-170 07:57:00:5941,1.133,0.246,2.593,396.423,270.264,-135.437,42.88,15.76,-132.731
 15:26:06.674,eb:33:2e:f9:57:b5, 2085-97-176 11:90:255:7562,2.479,-0.238,3.313,368.591,284.18,-214.417,46.857,18.935,-132.149
 15:26:06.674,eb:33:2e:f9:57:b5, 2085-97-178 27:93:230:12270,1.498,-1.411,4.98,371.216,326.843,-284.729,50.609,22.934,-131.748
 15:26:06.704,eb:33:2e:f9:57:b5, 2085-97-213 02:24:01:-3243,0.069,-2.663,2.534,413.635,420.837,-138.428,55.596,27.092,-129.589
 15:26:06.704,eb:33:2e:f9:57:b5, 2085-97-217 00:46:249:-6770,0.334,-0.781,-3.028,159.79,222.778,-139.587,59.216,30.267,-127.722
 15:26:06.704,eb:33:2e:f9:57:b5, 2085-97-245 05:149:247:-1224,0.851,-0.774,-2.548,-87.036,21.423,-106.873,59.716,31.838,-127.222
 15:26:06.704,eb:33:2e:f9:57:b5, 2085-97-53 05:161:246:3510,0.544,-1.162,0.981,-186.34,-9.705,-72.632,57.821,32.525,-127.936
 15:26:06.762,eb:33:2e:f9:57:b5, 2085-97-72 04:129:247:3300,0.537,-1.154,1.888,-184.998,40.894,-56.641,55.767,33.151,-128.167
 15:26:06.762,eb:33:2e:f9:57:b5, 2085-97-42 04:251:248:858,0.502,-0.998,1.059,-157.837,41.87,-43.762,54.13,33.827,-128.073
 15:26:06.762,eb:33:2e:f9:57:b5, 2085-97-15 04:99:250:-689,0.46,-0.765,-0.082,-149.292,-12.634,-33.569,52.531,34.206,-128.188
 15:26:06.762,eb:33:2e:f9:57:b5, 2085-97-128 03:140:250:-707,0.467,-0.69,-0.4,-154.114,-91.248,-32.593,50.592,34.102,-128.952
 15:26:06.793,eb:33:2e:f9:57:b5, 2085-97-226 03:225:249:-038,0.469,-0.701,-0.213,-168.335,-157.654,-31.372,48.175,33.475,-130.386
 15:26:06.793,eb:33:2e:f9:57:b5, 2085-97-120 03:171:249:436,0.439,-0.794,0.139,-187.561,-187.927,-20.447,45.467,32.426,-132.111
 15:26:06.793,eb:33:2e:f9:57:b5, 2085-97-118 03:156:249:854,0.381,-0.787,0.299,-211.853,-196.899,-6.531,42.572,31.086,-133.781
 15:26:06.793,eb:33:2e:f9:57:b5, 2085-97-230 02:119:250:679,0.345,-0.739,0.393,-237.244,-189.575,11.169,39.617,29.592,-135.192
 15:26:06.824,eb:33:2e:f9:57:b5, 2085-97-107 02:14:251:713,0.271,-0.667,0.336,-261.475,-192.322,23.56,36.541,27.949,-136.34
 15:26:06.824,eb:33:2e:f9:57:b5, 2085-97-249 01:151:251:822,0.209,-0.573,0.368,-280.701,-204.346,32.043,33.376,26.147,-137.324
 15:26:06.824,eb:33:2e:f9:57:b5, 2085-97-89 01:168:251:1087,0.134,-0.546,0.446,-291.26,-224.365,37.17,30.114,24.109,-138.214
 15:26:06.824,eb:33:2e:f9:57:b5, 2085-97-196 00:131:251:1717,0.049,-0.554,0.673,-291.382,-243.347,41.809,26.884,21.835,-139.021
 15:26:06.883,eb:33:2e:f9:57:b5, 2085-97-242 255:180:251:2195,-0.073,-0.556,0.978,-285.278,-244.263,49.5,23.758,19.396,-139.664
 15:26:06.883,eb:33:2e:f9:57:b5, 2085-97-05 255:254:251:2333,-0.155,-0.51,1.114,-280.151,-235.779,58.167,20.819,16.968,-140.054
 15:26:06.883,eb:33:2e:f9:57:b5, 2085-97-145 254:216:251:2454,-0.185,-0.509,1.171,-280.579,-225.281,68.542,17.963,14.568,-140.197
 15:26:06.883,eb:33:2e:f9:57:b5, 2085-97-146 254:03:252:2499,-0.162,-0.521,1.214,-285.889,-213.379,80.322,15.161,12.261,-140.065
 15:26:06.942,eb:33:2e:f9:57:b5, 2085-97-243 254:164:252:2661,-0.106,-0.464,1.245,-293.152,-204.651,92.712,12.31,10.02,-139.669
 15:26:06.942,eb:33:2e:f9:57:b5, 2085-97-68 255:146:253:2951,-0.073,-0.368,1.368,-295.044,-196.228,99.792,9.448,7.877,-139.059
 15:26:06.942,eb:33:2e:f9:57:b5, 2085-97-149 255:197:254:3271,-0.038,-0.232,1.523,-286.865,-186.584,100.342,6.597,5.839,-138.296
 15:26:06.942,eb:33:2e:f9:57:b5, 2085-97-211 255:108:00:3275,-0.005,-0.058,1.627,-270.569,-178.101,94.238,3.878,3.955,-137.455
 15:26:06.973,eb:33:2e:f9:57:b5, 2085-97-241 255:08:02:3032,-0.026,0.161,1.531,-259.155,-184.265,75.745,1.258,2.12,-136.659
 15:26:06.973,eb:33:2e:f9:57:b5, 2085-97-48 255:135:02:3615,-0.183,0.311,1.539,-261.658,-202.393,48.34,-1.329,0.187,-136.016
 15:26:06.973,eb:33:2e:f9:57:b5, 2085-97-31 254:174:03:3899,-0.334,0.416,1.829,-265.381,-202.209,25.024,-3.994,-1.84,-135.533
 15:26:06.973,eb:33:2e:f9:57:b5, 2085-97-92 252:209:04:4119,-0.575,0.52,1.996,-268.738,-195.862,6.531,-6.685,-3.801,-135.17
 15:26:07.004,eb:33:2e:f9:57:b5, 2085-97-37 250:216:04:4397,-0.849,0.643,2.062,-274.475,-189.392,-8.423,-9.454,-5.718,-134.896
 15:26:07.004,eb:33:2e:f9:57:b5, 2085-97-182 247:140:04:4796,-1.176,0.562,2.199,-274.536,-180.237,-6.592,-12.239,-7.537,-134.615
 15:26:07.004,eb:33:2e:f9:57:b5, 2085-97-234 245:163:04:5583,-1.381,0.581,2.405,-263,-172.485,9.705,-15.024,-9.245,-134.149
 15:26:07.004,eb:33:2e:f9:57:b5, 2085-97-123 243:217:10:5257,-1.374,0.602,3.549,-225.281,-145.386,58.655,-17.633,-10.723,-133.352
 15:26:07.063,eb:33:2e:f9:57:b5, 2085-97-162 247:95:11:4015,-1.221,1.52,1.023,-258.24,-134.338,59.631,-20.22,-11.744,-132.358
 15:26:07.063,eb:33:2e:f9:57:b5, 2085-97-107 247:213:14:5760,-0.89,1.828,2.604,-279.541,-97.168,93.506,-23.231,-12.535,-131.017
 15:26:07.063,eb:33:2e:f9:57:b5, 2085-97-132 249:128:20:4449,-0.722,2.208,2.528,-246.826,-33.02,109.558,-26.158,-12.629,-129.798
 15:26:07.063,eb:33:2e:f9:57:b5, 2085-97-227 250:109:26:3939,-0.576,2.901,2.066,-193.359,-7.446,101.013,-28.592,-12.255,-128.76
 15:26:07.063,eb:33:2e:f9:57:b5, 2085-97-08 253:150:25:4331,-4.262,3.608,1.767,-117.126,-20.447,64.27,-30.306,-11.948,-127.969
 15:26:07.063,eb:33:2e:f9:57:b5, 2085-97-125 241:33:46:1193,-1.42,0.371,11.278,288.086,280.09,394.287,-29.833,-11.266,-126.711
 15:26:07.063,eb:33:2e:f9:57:b5, 2085-97-160 235:118:23:664,-0.614,3.18,-1.05,407.227,114.441,139.893,-26.082,-9.272,-126.074
 15:26:07.063,eb:33:2e:f9:57:b5, 2085-97-118 13:123:250:4523,3.269,1.667,1.152,317.017,1.221,14.038,-22.879,-8.448,-125.612
 15:26:07.122,eb:33:2e:f9:57:b5, 2085-97-114 25:34:243:7821,1.62,-1.964,3.206,368.53,33.63,-47.668,-19.446,-8.613,-125.837
 15:26:07.122,eb:33:2e:f9:57:b5, 2085-97-33 252:80:09:2810,-1.288,-0.481,3.247,413.33,243.286,-56.458,-15.293,-7.306,-126.87
 15:26:07.122,eb:33:2e:f9:57:b5, 2085-97-249 237:127:15:2032,-1.887,1.989,2.183,360.474,214.966,-46.387,-11.431,-5.169,-127.963
 15:26:07.122,eb:33:2e:f9:57:b5, 2085-97-89 252:102:02:2383,0.557,1.243,0.472,300.964,-0.732,-60.242,-8.031,-4.268,-128.644
 15:26:07.183,eb:33:2e:f9:57:b5, 2085-97-148 04:82:254:3461,-0.068,-0.321,1.685,236.511,25.085,-27.222,-5.389,-4.406,-129.106
 15:26:07.183,eb:33:2e:f9:57:b5, 2085-97-181 252:229:03:1814,-0.465,0.23,1.243,202.148,72.571,-18.616,-3.214,-3.763,-129.298
 15:26:07.183,eb:33:2e:f9:57:b5, 2085-97-217 253:113:00:1258,0.076,0.337,0.667,183.594,40.405,-64.575,-1.269,-3.235,-129.776
 15:26:07.183,eb:33:2e:f9:57:b5, 2085-97-125 02:175:250:1530,0.423,0.064,0.579,147.888,-1.953,-82.886,0.505,-3.06,-130.562
 15:26:07.185,eb:33:2e:f9:57:b5, 2085-97-225 01:75:10:2697,-0.015,0.959,1.395,111.084,-17.761,-17.151,1.84,-3.252,-130.869
 15:26:07.185,eb:33:2e:f9:57:b5, 2085-97-214 254:221:04:1672,-0.231,0.78,0.96,37.415,65.063,26.55,2.543,-2.988,-130.787
 15:26:07.185,eb:33:2e:f9:57:b5, 2085-97-139 251:159:254:1440,-0.521,-0.022,1.061,18.86,82.031,4.944,2.752,-2.28,-130.671
 15:26:07.185,eb:33:2e:f9:57:b5, 2085-97-51 255:15:02:1632,0.106,0.176,0.493,23.926,-14.038,-3.235,2.988,-1.873,-130.622
 15:26:07.242,eb:33:2e:f9:57:b5, 2085-97-95 00:154:00:2108,-0.008,0.143,1.034,13.977,-13.916,-7.507,3.17,-2.12,-130.688
 15:26:07.242,eb:33:2e:f9:57:b5, 2085-97-25 00:149:00:2059,-0.004,0.103,0.947,12.207,-9.277,-5.859,3.296,-2.17,-130.726
 15:26:07.242,eb:33:2e:f9:57:b5, 2085-97-167 255:108:00:2025,0.015,0.046,1.019,10.498,-15.747,-2.441,3.411,-2.307,-130.776
 15:26:07.242,eb:33:2e:f9:57:b5, 2085-97-35 00:146:00:2047,0.023,0.078,1.016,6.958,-23.682,-7.019,3.505,-2.516,-130.831
 15:26:07.272,eb:33:2e:f9:57:b5, 2085-97-04 00:02:00:2099,-0.013,0.031,1.039,8.911,-26.001,-7.202,3.593,-2.785,-130.924
 15:26:07.272,eb:33:2e:f9:57:b5, 2085-97-88 00:65:00:2122,0.112,0.013,0.981,13.184,-27.954,-4.578,3.713,-3.032,-130.99
 15:26:07.272,eb:33:2e:f9:57:b5, 2085-97-38 01:249:00:2131,0.073,0.069,1.09,12.634,-9.949,5.066,3.856,-3.246,-131.001
 15:26:07.272,eb:33:2e:f9:57:b5, 2085-97-211 00:186:00:2075,0.151,0.117,0.931,8.972,-21.484,0.427,3.955,-3.329,-130.968
 15:26:07.305,eb:33:2e:f9:57:b5, 2085-97-226 00:206:00:1979,0.122,0.096,1.002,8.118,-19.165,-0.549,4.048,-3.565,-130.99
 15:26:07.305,eb:33:2e:f9:57:b5, 2085-97-208 00:114:00:2085,0.138,0.099,1.004,6.897,-20.386,-1.892,4.125,-3.774,-131.017
 15:26:07.305,eb:33:2e:f9:57:b5, 2085-113-81 00:27:53:-755,0.167,0.027,1.05,8.24,-19.043,-0.061,4.208,-3.977,-131.039
 15:26:07.305,eb:33:2e:f9:57:b5, 2085-97-157 01:49:00:2159,0.227,0.007,1.063,10.01,-16.296,0.61,4.252,-4.059,-131.039
 15:26:07.363,eb:33:2e:f9:57:b5, 2085-97-201 01:164:00:2152,0.192,0.051,1.062,10.864,-7.324,-0.732,4.362,-4.186,-131.05
 15:26:07.363,eb:33:2e:f9:57:b5, 2085-97-55 01:232:00:2054,0.121,0.097,1.036,8.911,4.761,0,4.466,-4.186,-131.056
 15:26:07.363,eb:33:2e:f9:57:b5, 2085-97-218 00:175:00:2021,0.088,0.103,0.986,6.042,10.01,0.427,4.537,-4.103,-131.045
 15:26:07.363,eb:33:2e:f9:57:b5, 2085-97-140 00:177:00:1975,0.066,0.078,0.981,5.127,11.78,-0.244,4.598,-3.994,-131.039
 15:26:07.394,eb:33:2e:f9:57:b5, 2085-97-107 00:167:00:2003,0.056,0.095,0.966,4.028,11.536,-1.16,4.642,-3.878,-131.039
 15:26:07.394,eb:33:2e:f9:57:b5, 2085-97-157 00:126:00:2066,0.109,0.063,0.991,4.089,10.437,-1.282,4.691,-3.763,-131.045
 15:26:07.394,eb:33:2e:f9:57:b5, 2085-97-91 01:197:00:2218,0.097,0.069,1.025,4.761,12.817,-1.77,4.735,-3.653,-131.056
 15:26:07.394,eb:33:2e:f9:57:b5, 2085-97-24 01:180:00:2156,0.113,0.074,1.004,3.845,20.996,-1.648,4.79,-3.455,-131.067
 15:26:07.422,eb:33:2e:f9:57:b5, 2085-97-194 00:165:00:2093,0.12,0.087,1.033,1.465,30.334,-3.113,4.812,-3.197,-131.072
 15:26:07.422,eb:33:2e:f9:57:b5, 2085-97-176 01:56:01:2080,-0.341,0.106,1.048,-1.282,39.185,-6.653,4.818,-2.851,-131.094
 15:26:07.422,eb:33:2e:f9:57:b5, 2085-97-253 06:171:252:3535,-0.03,-0.229,0.57,31.128,-82.031,-52.795,4.894,-2.708,-131.248
 15:26:07.422,eb:33:2e:f9:57:b5, 2085-97-178 254:192:254:1947,-0.145,0.551,0.621,-33.508,86.121,0.916,4.653,-1.928,-131.188
 15:26:07.482,eb:33:2e:f9:57:b5, 2085-97-04 06:33:00:3237,-0.05,0.366,0.609,-20.752,27.222,-23.804,4.504,-1.395,-131.243
 15:26:07.482,eb:33:2e:f9:57:b5, 2085-97-79 253:196:00:1432,0.125,0.196,0.718,-13,69.336,-15.137,4.351,-0.615,-131.281
 15:26:07.482,eb:33:2e:f9:57:b5, 2085-97-146 02:99:00:2624,0.057,0.026,1.043,-9.583,22.278,-24.841,4.263,-0.275,-131.583
 15:26:07.482,eb:33:2e:f9:57:b5, 2085-97-130 254:201:255:1897,-0.21,0.042,1.036,-10.132,73.303,-11.047,4.169,0.352,-131.715
 15:26:07.513,eb:33:2e:f9:57:b5, 2085-97-105 255:185:255:2152,-0.13,-0.054,0.958,1.709,46.57,-21.423,4.136,0.945,-131.852
 15:26:07.513,eb:33:2e:f9:57:b5, 2085-97-246 254:196:255:2117,-0.105,-0.013,1.011,8.057,41.016,-17.334,4.191,1.412,-132.012
 15:26:07.513,eb:33:2e:f9:57:b5, 2085-97-11 255:51:00:2035,-0.08,-0.037,1.057,14.16,31.25,-14.282,4.301,1.763,-132.155
 15:26:07.513,eb:33:2e:f9:57:b5, 2085-97-115 255:86:00:2064,-0.044,0.032,1.026,15.808,22.705,-13.123,4.455,2.032,-132.281
 15:26:07.543,eb:33:2e:f9:57:b5, 2085-97-25 00:40:04:715,-0.134,0.099,0.957,10.742,21.423,-11.047,4.598,2.258,-132.374
 15:26:07.543,eb:33:2e:f9:57:b5, 2085-97-250 01:118:254:3428,0.082,0.395,0.471,-51.575,5.432,-29.663,4.351,2.45,-132.594
 15:26:07.543,eb:33:2e:f9:57:b5, 2085-97-72 255:109:03:1416,0.021,-0.14,1.346,-28.503,70.923,-12.573,3.999,2.856,-132.77
 15:26:07.543,eb:33:2e:f9:57:b5, 2085-97-156 255:183:254:3201,0.19,-0.158,1.365,-24.902,42.908,2.319,3.675,3.345,-132.836
 15:26:07.603,eb:33:2e:f9:57:b5, 2085-97-119 02:80:250:5997,-0.013,-0.292,2.369,42.603,-4.639,-1.953,3.768,3.477,-132.83
 15:26:07.603,eb:33:2e:f9:57:b5, 2085-97-162 255:169:254:2793,-0.046,-0.532,2.184,102.051,43.945,75.195,4.581,3.686,-132.418
 15:26:07.603,eb:33:2e:f9:57:b5, 2085-97-110 255:14:00:2303,-0.125,0.081,0.999,121.216,4.028,74.646,5.762,3.906,-131.594
 15:26:07.603,eb:33:2e:f9:57:b5, 2085-97-131 254:142:253:3320,-0.176,-0.212,1.438,137.085,-36.133,59.387,7.103,3.615,-130.984
 15:26:07.632,eb:33:2e:f9:57:b5, 2085-97-82 255:104:254:3267,-0.02,-0.292,1.646,153.076,-46.509,45.959,8.58,3.137,-130.507
 15:26:07.632,eb:33:2e:f9:57:b5, 2085-97-38 00:129:254:3658,0.028,-0.105,1.633,177.734,-72.571,7.385,10.256,2.51,-130.331
 15:26:07.632,eb:33:2e:f9:57:b5, 2085-97-150 00:142:253:4685,0.286,-0.365,2.05,208.374,-80.322,-23.804,12.184,1.736,-130.605
 15:26:07.632,eb:33:2e:f9:57:b5, 2085-97-03 04:245:254:3836,0.54,-0.172,2.093,248.413,-55.054,-44.617,14.474,1.176,-131.083
 15:26:07.663,eb:33:2e:f9:57:b5, 2085-97-168 03:20:253:4170,0.374,-0.232,1.876,283.569,-52.246,-78.003,17.144,0.824,-131.83
 15:26:07.663,eb:33:2e:f9:57:b5, 2085-97-228 02:90:252:4951,0.495,-0.476,2.209,319.946,-27.588,-94.177,20.182,0.698,-132.803
 15:26:07.663,eb:33:2e:f9:57:b5, 2085-97-132 05:01:254:4914,0.598,-0.339,2.532,365.295,18.127,-96.497,23.615,1.022,-133.693
 15:26:07.663,eb:33:2e:f9:57:b5, 2085-97-167 03:238:251:6192,0.496,-0.305,2.564,395.935,47.18,-113.647,27.449,1.758,-134.528
 15:26:07.722,eb:33:2e:f9:57:b5, 2085-97-220 04:162:253:6964,0.823,-0.5,3.393,415.344,124.084,-91.003,31.509,2.999,-135.011
 15:26:07.722,eb:33:2e:f9:57:b5, 2085-97-66 05:127:254:5424,0.685,-0.485,3.152,420.715,220.52,-49.316,35.739,4.872,-134.648
 15:26:07.722,eb:33:2e:f9:57:b5, 2085-97-222 07:251:00:5188,1.131,0.214,2.363,416.87,243.713,-42.297,40.029,7.053,-133.44
 15:26:07.722,eb:33:2e:f9:57:b5, 2085-97-234 07:39:252:6387,1.284,-0.225,2.836,423.462,197.51,-105.042,44.33,9.174,-132.578
 15:26:07.753,eb:33:2e:f9:57:b5, 2085-97-08 13:240:247:6663,2.049,-1.004,3.234,420.532,169.8,-197.937,48.582,11.574,-132.38
 15:26:07.753,eb:33:2e:f9:57:b5, 2085-97-238 24:94:244:8469,2.806,-1.113,3.488,449.524,167.358,-266.846,52.828,14.458,-132.572
 15:26:07.753,eb:33:2e:f9:57:b5, 2085-97-237 07:118:253:-870,0.927,-1.226,2.777,489.929,182.861,-302.124,57.612,17.853,-132.814
 15:26:07.753,eb:33:2e:f9:57:b5, 2085-97-69 04:160:244:-3448,0.098,-1.563,-0.62,315.857,-36.438,-331.909,60.996,21.116,-134.577
 15:26:07.811,eb:33:2e:f9:57:b5, 2085-97-134 02:69:246:-4752,0.625,-0.905,-2.787,49.011,-52.307,-258.789,62.078,23.357,-136.313
 15:26:07.811,eb:33:2e:f9:57:b5, 2085-97-65 05:46:244:1130,0.587,-1.429,-0.715,-145.752,-76.904,-210.449,60.601,24.999,-138.307
 15:26:07.811,eb:33:2e:f9:57:b5, 2085-97-235 02:15:243:3454,0.243,-1.564,1.379,-230.042,-23.193,-155.151,57.936,26.274,-139.845
 15:26:07.811,eb:33:2e:f9:57:b5, 2085-97-207 01:243:244:2514,0.178,-1.572,1.623,-238.892,66.528,-94.238,55.3,27.422,-140.394
 15:26:07.843,eb:33:2e:f9:57:b5, 2085-97-234 00:224:246:796,0.115,-1.25,0.76,-231.018,93.018,-50.232,53.108,28.504,-140.048
 15:26:07.843,eb:33:2e:f9:57:b5, 2085-97-37 01:248:247:122,0.15,-1.065,0.189,-227.173,66.101,-18.921,51.031,29.246,-139.587
 15:26:07.843,eb:33:2e:f9:57:b5, 2085-97-119 01:242:248:-261,0.229,-0.945,-0.061,-231.384,30.396,12.268,48.944,29.57,-139.175
 15:26:07.843,eb:33:2e:f9:57:b5, 2085-97-92 02:196:249:-131,0.355,-0.826,-0.124,-238.953,-19.531,32.288,46.675,29.405,-138.966
 15:26:07.872,eb:33:2e:f9:57:b5, 2085-97-53 03:87:250:109,0.423,-0.745,0.003,-248.779,-62.988,47.913,44.22,28.801,-138.988
 15:26:07.872,eb:33:2e:f9:57:b5, 2085-97-102 03:252:250:377,0.415,-0.661,0.113,-261.108,-98.816,61.096,41.567,27.795,-139.158
 15:26:07.872,eb:33:2e:f9:57:b5, 2085-97-58 03:86:251:735,0.396,-0.601,0.269,-274.414,-127.258,70.251,38.776,26.483,-139.4
 15:26:07.872,eb:33:2e:f9:57:b5, 2085-97-253 02:215:251:1053,0.376,-0.556,0.45,-290.039,-144.897,80.017,35.826,24.911,-139.647
 15:26:07.932,eb:33:2e:f9:57:b5, 2085-97-29 03:149:252:1385,0.364,-0.461,0.561,-310.364,-153.259,92.285,32.772,23.181,-139.757
 15:26:07.932,eb:33:2e:f9:57:b5, 2085-97-211 02:21:253:1758,0.355,-0.384,0.771,-327.026,-157.837,100.098,29.57,21.335,-139.708
 15:26:07.932,eb:33:2e:f9:57:b5, 2085-113-81 00:61:38:7407,0.354,-0.358,0.943,-336.182,-163.513,105.347,26.307,19.429,-139.515
 15:26:07.932,eb:33:2e:f9:57:b5, 2085-97-210 02:89:253:2160,0.347,-0.345,1.003,-338.562,-166.443,107.3,24.642,18.446,-139.373
 15:26:07.932,eb:33:2e:f9:57:b5, 2085-97-196 02:119:253:2469,0.339,-0.321,1.117,-340.332,-176.025,110.779,21.357,16.447,-138.994
 15:26:07.962,eb:33:2e:f9:57:b5, 2085-97-180 02:155:253:2796,0.336,-0.307,1.282,-338.013,-186.768,114.258,18.067,14.343,-138.499
 15:26:07.962,eb:33:2e:f9:57:b5, 2085-97-156 02:189:253:3200,0.324,-0.293,1.462,-332.886,-193.97,117.554,14.848,12.189,-137.884
 15:26:07.962,eb:33:2e:f9:57:b5, 2085-97-103 02:62:254:3776,0.28,-0.26,1.7,-322.571,-194.885,121.338,11.684,10.009,-137.126
 15:26:07.962,eb:33:2e:f9:57:b5, 2085-97-253 01:162:255:4216,0.219,-0.147,1.981,-301.392,-189.819,122.986,8.701,7.916,-136.219
 15:26:07.992,eb:33:2e:f9:57:b5, 2085-97-174 01:50:01:4028,0.223,0.061,2.045,-280.396,-195.19,117.676,5.894,5.861,-135.231
 15:26:07.992,eb:33:2e:f9:57:b5, 2085-97-201 01:19:02:4024,0.25,0.211,1.917,-281.006,-215.576,107.117,3.186,3.741,-134.242
 15:26:07.992,eb:33:2e:f9:57:b5, 2085-97-45 02:169:02:4985,0.305,0.311,2.136,-298.035,-239.014,93.323,0.302,1.423,-133.275
 15:26:07.992,eb:33:2e:f9:57:b5, 2085-97-206 02:96:04:6165,0.303,0.409,2.736,-310.791,-242.432,79.834,-2.763,-0.972,-132.325
 15:26:08.052,eb:33:2e:f9:57:b5, 2085-97-158 01:93:08:6351,0.109,0.789,3.124,-315.247,-215.637,68.176,-5.971,-3.208,-131.38
 15:26:08.052,eb:33:2e:f9:57:b5, 2085-97-241 255:178:11:5958,-0.171,1.253,3.018,-308.899,-190.002,48.889,-9.168,-5.098,-130.512
 15:26:08.054,eb:33:2e:f9:57:b5, 2085-97-129 253:17:14:5341,-0.441,1.61,2.791,-298.828,-187.012,30.945,-12.305,-6.866,-129.76
 15:26:08.054,eb:33:2e:f9:57:b5, 2085-97-56 255:47:10:7661,-1.242,1.874,2.432,-296.265,-196.472,24.963,-15.381,-8.652,-129.001
 15:26:08.083,eb:33:2e:f9:57:b5, 2085-97-65 250:109:13:1661,-0.599,3.471,1.303,-292.664,-201.416,-14.038,-18.248,-10.486,-128.029
 15:26:08.083,eb:33:2e:f9:57:b5, 2085-97-13 249:157:20:6707,-1.084,2.096,2.402,-288.94,-236.877,47.363,-21.429,-12.574,-127.057
 15:26:08.083,eb:33:2e:f9:57:b5, 2085-97-171 247:238:29:5569,-0.888,2.76,4.073,-204.834,-117.981,37.842,-24.247,-14.161,-125.98
 15:26:08.083,eb:33:2e:f9:57:b5, 2085-97-209 246:184:35:5993,-1.544,4.174,2.169,-104.797,-49.683,2.747,-25.9,-14.705,-125.519
 15:26:08.142,eb:33:2e:f9:57:b5, 2085-97-14 240:33:36:4785,-2.508,4.591,2.962,36.987,20.447,-21.606,-26.191,-14.81,-125.513
 15:26:08.142,eb:33:2e:f9:57:b5, 2085-97-105 231:29:29:6596,-2.813,3.963,2.957,174.011,132.935,13.123,-24.922,-14.128,-125.947
 15:26:08.142,eb:33:2e:f9:57:b5, 2085-97-116 242:184:15:1215,-0.292,3.585,2.434,263.672,274.963,3.906,-22.456,-12.052,-126.694
 15:26:08.142,eb:33:2e:f9:57:b5, 2085-97-72 12:100:248:2948,2.179,0.915,-0.368,200.317,138.123,-39.185,-19.913,-10.19,-127.705
 15:26:08.173,eb:33:2e:f9:57:b5, 2085-97-203 15:95:238:4876,1.139,-2.651,2.506,273.865,137.024,-39.978,-17.446,-9.333,-128.622
 15:26:08.173,eb:33:2e:f9:57:b5, 2085-97-150 00:39:04:4591,-1.043,-0.626,2.136,339.355,221.985,-7.507,-14.156,-7.592,-129.309
 15:26:08.173,eb:33:2e:f9:57:b5, 2085-97-175 244:76:09:2807,-1.392,1.29,1.964,328.186,224.487,14.465,-10.728,-5.208,-129.787
 15:26:08.173,eb:33:2e:f9:57:b5, 2085-97-13 249:44:04:1500,-0.137,0.998,0.864,298.279,122.925,10.681,-7.581,-3.516,-129.919
 15:26:08.202,eb:33:2e:f9:57:b5, 2085-97-18 01:173:255:2565,-0.253,0.104,1.074,244.385,54.016,0,-4.883,-2.763,-129.985
 15:26:08.202,eb:33:2e:f9:57:b5, 2085-97-149 253:57:07:1851,-0.072,0.099,0.905,208.008,54.871,-13.55,-2.664,-2.126,-130.078
 15:26:08.202,eb:33:2e:f9:57:b5, 2085-97-04 03:89:05:2773,0.185,0.04,0.613,146.362,-42.053,-27.1,-0.934,-2.181,-130.424
 15:26:08.202,eb:33:2e:f9:57:b5, 2085-97-40 01:114:04:2173,0.134,0.714,1.302,99.426,5.371,-14.771,0.291,-2.379,-130.649
 15:26:08.233,eb:33:2e:f9:57:b5, 2085-97-163 255:248:02:1745,-0.433,0.455,0.947,44.983,47.058,7.507,0.972,-2.087,-130.66
 15:26:08.233,eb:33:2e:f9:57:b5, 2085-97-127 250:19:01:1047,-0.416,0.098,0.746,27.771,55.908,-2.625,1.302,-1.538,-130.666
 15:26:08.233,eb:33:2e:f9:57:b5, 2085-97-60 00:59:01:2086,0.073,0.217,0.657,18.25,-10.437,-8.728,1.544,-1.329,-130.715
 15:26:08.233,eb:33:2e:f9:57:b5, 2085-97-147 00:04:01:2165,-0.025,0.115,1.061,10.498,-4.15,-5.981,1.681,-1.428,-130.798
 15:26:08.292,eb:33:2e:f9:57:b5, 2085-97-20 255:113:00:1854,-0.093,0.117,0.968,4.944,12.573,-5.92,1.763,-1.351,-130.847
 15:26:08.292,eb:33:2e:f9:57:b5, 2085-97-235 254:56:00:1743,0.06,0.041,0.908,5.066,-2.563,-8.667,1.813,-1.291,-130.919
 15:26:08.292,eb:33:2e:f9:57:b5, 2085-97-124 00:131:00:2123,0.026,0.047,1.044,4.639,-22.888,-6.165,1.879,-1.494,-130.995
 15:26:08.292,eb:33:2e:f9:57:b5, 2085-97-37 00:136:00:2095,0.013,0.053,1.023,3.235,-15.137,-6.653,1.917,-1.664,-131.061
 15:26:08.323,eb:33:2e:f9:57:b5, 2085-97-241 255:22:00:2141,0.009,0.035,1.045,3.052,-16.663,-8.423,1.956,-1.813,-131.149
 15:26:08.323,eb:33:2e:f9:57:b5, 2085-97-61 00:84:00:2141,0.021,0.022,1.042,3.479,-16.968,-7.019,1.994,-1.994,-131.232
 15:26:08.323,eb:33:2e:f9:57:b5, 2085-97-26 00:78:00:2082,0.015,0.048,1.021,3.052,-9.705,-4.456,2.038,-2.115,-131.292
 15:26:08.323,eb:33:2e:f9:57:b5, 2085-97-97 00:135:00:2119,0.031,0.062,1.016,2.441,-7.324,-1.16,2.065,-2.197,-131.314
 15:26:08.352,eb:33:2e:f9:57:b5, 2085-97-32 00:126:00:2000,0.032,0.072,1.028,0.427,2.502,1.526,2.087,-2.208,-131.314
 15:26:08.352,eb:33:2e:f9:57:b5, 2085-97-85 00:93:00:2059,0.071,0.054,1.002,0,-4.883,0,2.093,-2.225,-131.303
 15:26:08.352,eb:33:2e:f9:57:b5, 2085-97-130 00:122:00:2020,0.093,0.055,1.009,-0.732,-4.517,1.099,2.098,-2.274,-131.298
 15:26:08.352,eb:33:2e:f9:57:b5, 2085-97-225 00:17:00:2137,0.132,0.018,1.03,-1.038,-4.883,1.953,2.087,-2.335,-131.292
 15:26:08.413,eb:33:2e:f9:57:b5, 2085-97-29 01:17:00:2155,0.153,0.014,1.041,-0.427,-0.366,2.502,2.087,-2.357,-131.265
 15:26:08.413,eb:33:2e:f9:57:b5, 2085-97-57 01:42:00:2154,0.138,0.008,1.058,0.488,5.859,2.747,2.087,-2.329,-131.243
 15:26:08.413,eb:33:2e:f9:57:b5, 2085-97-233 00:104:00:2100,0.091,0.036,1.042,0.244,13.672,2.93,2.098,-2.225,-131.21
 15:26:08.413,eb:33:2e:f9:57:b5, 2085-97-161 00:112:00:2055,0.063,0.059,1.01,-1.282,19.897,2.563,2.093,-2.054,-131.177
 15:26:08.442,eb:33:2e:f9:57:b5, 2085-97-91 00:91:00:2030,0.024,0.05,0.995,-2.441,23.682,1.648,2.076,-1.829,-131.149
 15:26:08.442,eb:33:2e:f9:57:b5, 2085-97-28 00:66:00:2021,0.034,0.041,0.982,-2.991,24.292,0.061,2.049,-1.582,-131.138
 15:26:08.442,eb:33:2e:f9:57:b5, 2085-97-191 255:76:00:1947,-0.01,0.006,1.014,-2.502,28.748,-0.366,2.027,-1.313,-131.144
 15:26:08.442,eb:33:2e:f9:57:b5, 2085-97-249 254:01:00:1841,-0.042,0.06,0.995,-1.221,25.879,-13.062,2.01,-1.071,-131.177
 15:26:08.472,eb:33:2e:f9:57:b5, 2085-97-194 01:253:253:2935,0.064,0.473,0.795,7.141,-32.593,-61.096,2.054,-1.121,-131.287
 15:26:08.472,eb:33:2e:f9:57:b5, 2085-97-152 254:192:00:1623,0.027,-0.025,0.995,-1.282,44.8,11.23,2,-0.709,-131.232
 15:26:08.472,eb:33:2e:f9:57:b5, 2085-97-47 00:36:00:2125,-0.023,-0.04,1.085,-0.61,24.78,-0.854,2.038,-0.538,-131.347
 15:26:08.472,eb:33:2e:f9:57:b5, 2085-97-146 00:37:00:2174,0.086,0.054,0.955,0.977,20.447,-6.897,2.038,-0.28,-131.358
 15:26:08.532,eb:33:2e:f9:57:b5, 2085-97-117 00:31:00:2158,0.096,0.021,1.074,2.075,30.579,-8.667,2.06,-0.016,-131.424
 15:26:08.532,eb:33:2e:f9:57:b5, 2085-97-32 01:178:00:2202,0.113,0.066,1.062,2.563,34.363,-13.855,2.082,0.313,-131.523
 15:26:08.532,eb:33:2e:f9:57:b5, 2085-97-75 00:116:00:2131,0.008,0.065,1.073,3.357,51.086,-16.602,2.12,0.736,-131.666
 15:26:08.533,eb:33:2e:f9:57:b5, 2085-97-238 255:54:00:2076,-0.04,0.062,1.017,3.54,59.998,-19.104,2.153,1.318,-131.83
 15:26:08.563,eb:33:2e:f9:57:b5, 2085-97-104 255:54:00:2007,-0.084,0.035,1.002,4.456,60.73,-18.433,2.197,1.934,-131.995
 15:26:08.563,eb:33:2e:f9:57:b5, 2085-97-03 255:11:00:2001,-0.18,0.04,0.978,5.127,52.673,-16.541,2.241,2.505,-132.16
 15:26:08.563,eb:33:2e:f9:57:b5, 2085-97-206 254:219:255:2031,-0.083,-0.001,0.948,7.019,39.246,-13.611,2.302,2.972,-132.286
 15:26:08.563,eb:33:2e:f9:57:b5, 2085-97-225 255:26:00:2220,-0.029,-0.004,1.042,9.277,29.297,-12.207,2.384,3.307,-132.407
 15:26:08.593,eb:33:2e:f9:57:b5, 2085-97-179 255:51:00:2117,0.006,0.015,1.065,7.263,30.518,-6.958,2.477,3.615,-132.495
 15:26:08.593,eb:33:2e:f9:57:b5, 2085-97-222 00:18:01:1925,0.303,0.064,1.021,2.93,23.987,-7.507,2.521,3.889,-132.567
 15:26:08.593,eb:33:2e:f9:57:b5, 2085-97-228 01:237:00:2326,-0.167,1.024,0.024,-23.01,-18.433,-39.917,2.461,4.037,-132.671
 15:26:08.593,eb:33:2e:f9:57:b5, 2085-97-163 253:255:250:4897,0.012,-0.785,2.235,-5.798,2.319,17.395,2.17,3.917,-132.863
 15:26:08.652,eb:33:2e:f9:57:b5, 2085-97-205 254:61:248:5835,-0.239,-0.596,2.726,91.553,-48.218,24.292,2.686,3.609,-132.687
 15:26:08.652,eb:33:2e:f9:57:b5, 2085-97-187 254:165:253:2970,-0.099,-0.708,2.213,137.817,-9.705,106.384,3.922,3.329,-131.984
 15:26:08.652,eb:33:2e:f9:57:b5, 2085-97-227 255:157:254:3208,0.031,-0.036,1.234,167.847,-74.829,72.571,5.521,2.862,-131.039
 15:26:08.652,eb:33:2e:f9:57:b5, 2085-97-101 00:43:252:4243,0.122,-0.379,1.928,192.993,-100.769,32.227,7.355,1.868,-130.66
 15:26:08.682,eb:33:2e:f9:57:b5, 2085-97-148 01:188:252:4491,0.393,-0.472,2.212,223.755,-87.646,-3.601,9.448,0.895,-130.649
 15:26:08.682,eb:33:2e:f9:57:b5, 2085-97-251 02:75:253:4233,0.333,-0.229,2.011,259.827,-72.205,-49.316,11.898,0.198,-131.061
 15:26:08.682,eb:33:2e:f9:57:b5, 2085-97-249 02:115:253:4559,0.535,-0.305,2.172,295.776,-38.025,-73.242,14.694,-0.198,-131.797
 15:26:08.682,eb:33:2e:f9:57:b5, 2085-97-142 05:249:250:4494,0.745,-0.608,2.145,330.383,-3.784,-89.661,17.853,-0.187,-132.671
 15:26:08.713,eb:33:2e:f9:57:b5, 2085-97-101 06:227:254:5188,0.875,-0.553,2.364,358.276,64.453,-89.478,21.319,0.39,-133.451
 15:26:08.713,eb:33:2e:f9:57:b5, 2085-97-37 07:92:254:5249,0.761,-0.208,2.606,388,138.733,-88.257,25.06,1.73,-133.863
 15:26:08.713,eb:33:2e:f9:57:b5, 2085-97-214 05:220:254:6401,0.972,-0.343,2.818,407.104,194.641,-78.186,29.07,3.615,-133.874
 15:26:08.713,eb:33:2e:f9:57:b5, 2085-97-22 09:53:252:6273,0.879,0.007,3.233,416.626,276.489,-61.646,33.267,6.01,-133.237
 15:26:08.773,eb:33:2e:f9:57:b5, 2085-97-41 09:175:00:5143,1.188,-0.222,2.815,398.804,351.318,-20.142,37.513,8.844,-131.71
 15:26:08.773,eb:33:2e:f9:57:b5, 2085-113-58 00:142:234:-9780,0.998,0.351,2.387,414.185,284.546,-76.416,41.902,11.629,-129.919
 15:26:08.773,eb:33:2e:f9:57:b5, 2085-97-158 09:219:249:5707,1.364,-0.054,2.554,408.447,240.784,-140.198,44.044,12.975,-129.485
 15:26:08.773,eb:33:2e:f9:57:b5, 2085-97-196 12:178:249:6035,2.46,-0.978,2.76,401.733,202.209,-211.487,48.175,15.771,-129.155
 15:26:08.804,eb:33:2e:f9:57:b5, 2085-97-84 28:19:238:9903,2.671,-1.401,3.948,425.11,199.768,-252.258,52.158,18.814,-129.37
 15:26:08.804,eb:33:2e:f9:57:b5, 2085-97-199 07:84:248:319,0.506,-2.388,3.07,499.939,249.939,-240.479,57.107,22.346,-128.82
 15:26:08.804,eb:33:2e:f9:57:b5, 2085-97-89 01:199:246:-5277,0.109,-1.342,-1.27,329.468,58.411,-244.08,61.106,25.406,-129.051
 15:26:08.804,eb:33:2e:f9:57:b5, 2085-97-178 02:178:246:-5300,0.656,-0.779,-3.3,43.701,-2.869,-151.672,62.54,27.037,-129.754
 15:26:08.832,eb:33:2e:f9:57:b5, 2085-97-231 06:213:243:1621,0.729,-1.564,-0.644,-149.536,-49.5,-121.033,61.276,28.054,-130.93
 15:26:08.832,eb:33:2e:f9:57:b5, 2085-97-46 03:06:245:3409,0.341,-1.469,1.552,-228.577,27.283,-68.42,58.942,28.784,-131.594
 15:26:08.832,eb:33:2e:f9:57:b5, 2085-97-123 03:31:247:2382,0.355,-1.261,1.512,-241.333,82.092,-37.415,56.684,29.548,-131.331
 15:26:08.832,eb:33:2e:f9:57:b5, 2085-97-01 03:188:248:462,0.379,-0.987,0.589,-238.22,77.087,-14.648,54.591,30.223,-130.671
 15:26:08.893,eb:33:2e:f9:57:b5, 2085-97-75 03:26:250:-256,0.403,-0.805,-0.021,-238.77,30.64,-3.54,52.432,30.613,-130.232
 15:26:08.893,eb:33:2e:f9:57:b5, 2085-97-74 03:182:250:-302,0.458,-0.674,-0.193,-247.925,-30.762,6.226,49.988,30.569,-130.226
 15:26:08.893,eb:33:2e:f9:57:b5, 2085-97-253 03:147:250:238,0.507,-0.67,-0.017,-260.559,-95.703,8.301,47.181,30.059,-130.759
 15:26:08.893,eb:33:2e:f9:57:b5, 2085-97-01 04:81:250:709,0.474,-0.692,0.232,-281.067,-130.554,20.264,44.044,29.114,-131.589
 15:26:08.923,eb:33:2e:f9:57:b5, 2085-97-154 03:94:250:1133,0.433,-0.711,0.45,-301.147,-149.17,33.081,40.726,27.872,-132.424
 15:26:08.923,eb:33:2e:f9:57:b5, 2085-97-51 03:225:250:1479,0.375,-0.684,0.655,-317.078,-156.86,48.34,37.288,26.389,-133.132
 15:26:08.923,eb:33:2e:f9:57:b5, 2085-97-202 02:199:251:1674,0.342,-0.581,0.772,-328.979,-160.767,63.721,33.843,24.763,-133.621
 15:26:08.923,eb:33:2e:f9:57:b5, 2085-97-174 02:149:252:1854,0.345,-0.474,0.862,-338.928,-166.016,77.759,30.372,22.978,-133.885
 15:26:08.952,eb:33:2e:f9:57:b5, 2085-97-176 02:68:253:1988,0.332,-0.382,0.955,-344.727,-174.194,87.219,26.922,21.083,-133.951
 15:26:08.952,eb:33:2e:f9:57:b5, 2085-97-200 02:93:253:2204,0.329,-0.333,1.03,-346.436,-189.026,92.773,23.467,19.034,-133.879
 15:26:08.952,eb:33:2e:f9:57:b5, 2085-97-212 00:38:252:3581,0.204,-0.324,1.158,-342.529,-206.604,100.098,20.072,16.842,-133.682
 15:26:08.952,eb:33:2e:f9:57:b5, 2085-97-130 03:167:253:2427,0.396,-0.053,0.673,-354.309,-179.321,102.722,16.765,14.749,-133.088
 15:26:09.013,eb:33:2e:f9:57:b5, 2085-97-156 02:01:254:3134,0.386,-0.151,1.395,-334.961,-216.553,122.62,13.491,12.404,-132.468
 15:26:09.013,eb:33:2e:f9:57:b5, 2085-97-203 02:35:255:3514,0.336,-0.216,1.633,-315.735,-225.708,118.042,10.349,10.003,-131.721
 15:26:09.013,eb:33:2e:f9:57:b5, 2085-97-114 02:171:255:4102,0.254,-0.096,1.874,-297.18,-231.445,113.647,7.41,7.548,-130.897
 15:26:09.013,eb:33:2e:f9:57:b5, 2085-97-179 01:50:01:4292,0.198,0.052,2.075,-279.663,-224.304,106.262,4.609,5.169,-129.996
 15:26:09.043,eb:33:2e:f9:57:b5, 2085-97-84 01:99:02:4296,0.141,0.222,2.1,-274.231,-224.365,91.187,1.912,2.889,-129.106
 15:26:09.043,eb:33:2e:f9:57:b5, 2085-97-00 01:13:03:4620,0.102,0.357,2.129,-287.231,-231.689,72.021,-0.895,0.604,-128.282
 15:26:09.043,eb:33:2e:f9:57:b5, 2085-97-115 00:171:03:5489,-0.011,0.408,2.455,-303.528,-236.755,53.345,-3.873,-1.708,-127.54
 15:26:09.043,eb:33:2e:f9:57:b5, 2085-97-28 255:134:05:6104,-0.23,0.551,2.877,-307.556,-220.276,38.818,-7.009,-3.961,-126.837
 15:26:09.103,eb:33:2e:f9:57:b5, 2085-97-61 253:64:08:6036,-0.468,0.858,2.979,-295.532,-196.655,25.696,-10.091,-5.944,-126.183
 15:26:09.103,eb:33:2e:f9:57:b5, 2085-97-47 251:127:11:5902,-0.746,1.222,2.92,-272.827,-186.646,14.893,-13.03,-7.778,-125.579
 15:26:09.103,eb:33:2e:f9:57:b5, 2085-97-30 249:164:15:5207,-0.966,1.688,2.766,-252.991,-176.086,10.193,-15.732,-9.492,-124.975
 15:26:09.103,eb:33:2e:f9:57:b5, 2085-97-97 247:152:17:4296,-1.172,2.128,2.269,-253.662,-170.227,7.08,-18.38,-11.118,-124.354
 15:26:09.132,eb:33:2e:f9:57:b5, 2085-97-21 246:253:18:4339,-1.228,2.284,2.041,-258.179,-161.865,16.357,-21.105,-12.64,-123.646
 15:26:09.132,eb:33:2e:f9:57:b5, 2085-97-42 246:42:23:5371,-1.259,2.539,2.344,-236.328,-126.099,34.729,-23.818,-13.876,-122.805
 15:26:09.132,eb:33:2e:f9:57:b5, 2085-97-203 245:115:32:4980,-1.339,3.48,2.681,-162.964,-55.786,37.231,-26.005,-14.507,-122.031
 15:26:09.132,eb:33:2e:f9:57:b5, 2085-97-252 243:98:36:3229,-1.713,4.407,1.99,-75.928,-13.733,1.648,-27.235,-14.661,-121.723
 15:26:09.163,eb:33:2e:f9:57:b5, 2085-97-191 240:253:33:2835,-1.976,4.495,1.323,5.371,-25.452,-39.612,-27.521,-14.919,-121.827
 15:26:09.163,eb:33:2e:f9:57:b5, 2085-97-180 239:166:249:17224,-2.01,4.031,1.56,78.43,-33.569,-67.261,-26.911,-15.491,-122.19
 15:26:09.163,eb:33:2e:f9:57:b5, 2085-97-86 244:96:03:2666,0.432,5.366,-1.042,255.981,241.76,6.775,-24.758,-14.134,-122.327
 15:26:09.163,eb:33:2e:f9:57:b5, 2085-97-236 16:86:246:1459,2.722,-0.414,-1.384,168.213,224.731,24.963,-22.319,-11.656,-123.267
 15:26:09.222,eb:33:2e:f9:57:b5, 2085-97-165 18:37:236:4099,1.278,-2.771,2.247,224.121,194.214,-20.874,-20.385,-9.943,-124.085
 15:26:09.222,eb:33:2e:f9:57:b5, 2085-97-194 255:248:02:3083,-1.123,-1.022,2.123,330.811,276.489,2.625,-17.369,-7.74,-124.953
 15:26:09.222,eb:33:2e:f9:57:b5, 2085-97-92 242:33:07:3546,-1.483,1.135,1.776,328.003,257.202,5.615,-13.925,-5.087,-125.684
 15:26:09.222,eb:33:2e:f9:57:b5, 2085-97-126 247:130:03:2249,-0.578,0.756,1.336,327.576,118.164,3.601,-10.607,-3.329,-126.024
 15:26:09.252,eb:33:2e:f9:57:b5, 2085-97-238 253:87:02:2222,-0.129,0.325,1.063,291.87,10.437,-18.616,-7.476,-2.845,-126.189
 15:26:09.253,eb:33:2e:f9:57:b5, 2085-97-98 254:108:02:2384,-0.275,0.273,1.225,252.136,19.714,-33.325,-4.785,-2.802,-126.475
 15:26:09.253,eb:33:2e:f9:57:b5, 2085-97-205 254:156:04:2000,0.306,0.264,0.983,229.919,34.912,-46.936,-2.357,-2.483,-126.903
 15:26:09.253,eb:33:2e:f9:57:b5, 2085-97-126 06:101:08:3397,0.339,-0.378,0.879,160.461,-45.593,-7.141,-0.45,-2.62,-127.293
 15:26:09.312,eb:33:2e:f9:57:b5, 2085-97-122 255:85:06:1755,-0.401,0.976,1.49,91.858,48.157,7.324,0.78,-2.653,-127.343
 15:26:09.312,eb:33:2e:f9:57:b5, 2085-97-34 252:70:00:1568,-0.477,0.56,0.65,34.363,75.806,0.854,1.329,-1.901,-127.277
 15:26:09.312,eb:33:2e:f9:57:b5, 2085-97-09 253:111:01:1416,-0.194,-0.008,0.69,29.602,39.551,4.456,1.637,-1.302,-127.238
 15:26:09.312,eb:33:2e:f9:57:b5, 2085-97-173 255:17:01:1979,-0.006,0.246,0.796,20.386,-14.648,-7.629,1.901,-1.252,-127.249
 15:26:09.342,eb:33:2e:f9:57:b5, 2085-97-44 00:241:00:2000,-0.011,0.114,0.972,12.085,-1.526,-2.38,2.054,-1.335,-127.299
 15:26:09.342,eb:33:2e:f9:57:b5, 2085-97-162 255:231:00:1868,0.006,0.122,0.94,6.897,1.587,-2.686,2.159,-1.307,-127.315
 15:26:09.342,eb:33:2e:f9:57:b5, 2085-97-96 00:160:00:2126,-0.105,0.102,0.968,2.808,-9.583,-5.249,2.208,-1.373,-127.359
 15:26:09.342,eb:33:2e:f9:57:b5, 2085-97-77 00:55:00:2233,-0.044,0.104,0.932,2.258,-15.442,-12.207,2.241,-1.45,-127.425
 15:26:09.342,eb:33:2e:f9:57:b5, 2085-97-16 00:12:00:2175,-0.042,0.042,1.005,1.16,-7.324,-5.127,2.258,-1.522,-127.48
 15:26:09.372,eb:33:2e:f9:57:b5, 2085-113-58 00:67:204:-6315,-0.011,0.023,0.999,3.174,-10.254,-3.784,2.285,-1.582,-127.513
 15:26:09.372,eb:33:2e:f9:57:b5, 2085-97-96 00:109:00:2192,0.039,0.039,1.026,3.479,-12.451,-4.761,2.307,-1.642,-127.54
 15:26:09.372,eb:33:2e:f9:57:b5, 2085-97-01 00:104:00:2092,-0.004,0.053,1.058,2.197,1.282,-2.563,2.346,-1.686,-127.579
 15:26:09.372,eb:33:2e:f9:57:b5, 2085-97-44 00:106:00:2060,0.029,0.06,0.997,2.197,0.122,-5.371,2.368,-1.664,-127.612
 15:26:09.404,eb:33:2e:f9:57:b5, 2085-97-73 00:115:00:2037,0.049,0.055,1.005,1.709,0.366,-5.493,2.401,-1.659,-127.667
 15:26:09.404,eb:33:2e:f9:57:b5, 2085-97-99 00:93:00:2054,0.063,0.054,1.011,0.916,-1.587,-2.747,2.417,-1.664,-127.711
 15:26:09.404,eb:33:2e:f9:57:b5, 2085-97-126 00:118:00:2038,0.062,0.066,1.007,0.183,-2.93,-0.427,2.433,-1.692,-127.722
 15:26:09.404,eb:33:2e:f9:57:b5, 2085-97-191 00:131:00:2070,0.109,0.06,1.002,-1.16,-2.747,1.648,2.428,-1.719,-127.711
 15:26:09.463,eb:33:2e:f9:57:b5, 2085-97-225 00:146:00:2081,0.124,0.067,1.017,-2.625,1.831,2.38,2.417,-1.719,-127.689
 15:26:09.463,eb:33:2e:f9:57:b5, 2085-97-20 01:166:00:2108,0.114,0.089,1.025,-4.822,8.118,2.441,2.379,-1.67,-127.661
 15:26:09.463,eb:33:2e:f9:57:b5, 2085-97-143 00:68:00:2062,0.038,0.053,1.015,-6.531,16.113,1.953,2.329,-1.538,-127.634
 15:26:09.463,eb:33:2e:f9:57:b5, 2085-97-52 00:02:00:2040,0.016,0.03,0.987,-5.493,19.104,-0.183,2.269,-1.357,-127.617
 15:26:09.492,eb:33:2e:f9:57:b5, 2085-97-91 00:233:255:2144,0.104,-0.011,1.014,-2.747,19.348,-0.671,2.236,-1.159,-127.617
 15:26:09.492,eb:33:2e:f9:57:b5, 2085-97-208 00:238:255:2221,0.038,-0.006,1.08,-0.061,25.024,-1.831,2.225,-0.945,-127.623
 15:26:09.492,eb:33:2e:f9:57:b5, 2085-97-237 255:46:00:1998,-0.003,0.012,1.029,0.122,33.02,-1.892,2.236,-0.632,-127.634
 15:26:09.492,eb:33:2e:f9:57:b5, 2085-97-21 00:37:255:2384,-0.02,0.038,0.643,2.747,-6.897,-10.01,2.252,-0.396,-127.661
 15:26:09.523,eb:33:2e:f9:57:b5, 2085-97-00 00:134:00:1914,-0.06,0.006,1.124,-0.793,50.049,2.625,2.274,-0.187,-127.738
 15:26:09.523,eb:33:2e:f9:57:b5, 2085-97-143 00:234:00:2102,0.16,0.017,0.968,6.165,18.921,-11.78,2.329,0.099,-127.787
 15:26:09.523,eb:33:2e:f9:57:b5, 2085-97-15 00:75:00:2061,0.001,0.045,1.127,2.808,39.856,-9.644,2.368,0.39,-127.875
 15:26:09.523,eb:33:2e:f9:57:b5, 2085-97-138 00:142:00:2134,0.067,0.068,0.991,3.357,31.738,-13.855,2.395,0.758,-127.969
 15:26:09.583,eb:33:2e:f9:57:b5, 2085-97-255 255:78:00:2087,-0.041,0.061,1.043,4.15,40.527,-15.381,2.439,1.121,-128.112
 15:26:09.583,eb:33:2e:f9:57:b5, 2085-97-218 255:81:00:2085,0.017,0.03,1.016,7.08,43.884,-18.86,2.494,1.555,-128.265
 15:26:09.583,eb:33:2e:f9:57:b5, 2085-97-05 00:77:00:2148,-0.036,0.032,1.059,8.545,48.584,-20.142,2.576,2.016,-128.452
 15:26:09.583,eb:33:2e:f9:57:b5, 2085-97-199 255:119:00:2150,-0.027,0.047,1.023,7.996,51.941,-19.714,2.653,2.538,-128.628
 15:26:09.613,eb:33:2e:f9:57:b5, 2085-97-127 255:52:00:2146,-0.101,0.066,1.022,7.385,51.208,-17.883,2.736,3.054,-128.809
 15:26:09.614,eb:33:2e:f9:57:b5, 2085-97-29 255:239:255:2140,-0.122,-0.005,1.064,10.254,47.363,-14.587,2.818,3.554,-128.952
 15:26:09.614,eb:33:2e:f9:57:b5, 2085-97-71 255:10:01:1708,0.013,0,0.977,6.653,43.396,-10.315,2.917,4.01,-129.056
 15:26:09.614,eb:33:2e:f9:57:b5, 2085-97-07 01:136:06:-495,0.083,0.008,1.122,-2.441,40.649,-6.226,2.922,4.367,-129.155
 15:26:09.644,eb:33:2e:f9:57:b5, 2085-97-181 00:128:249:4805,-0.343,0.39,1.059,-49.072,-3.052,-42.725,2.576,4.554,-129.446
 15:26:09.644,eb:33:2e:f9:57:b5, 2085-97-113 00:132:252:5083,-0.08,-0.059,1.273,23.254,-24.719,-2.014,2.466,4.796,-129.348
 15:26:09.644,eb:33:2e:f9:57:b5, 2085-97-33 254:39:249:5101,-0.231,-1.024,3.176,91.064,-2.625,54.565,3.115,4.471,-129.254
 15:26:09.644,eb:33:2e:f9:57:b5, 2085-97-189 254:205:00:1957,-0.075,-0.258,1.338,128.113,-2.686,103.882,4.312,4.554,-128.293
 15:26:09.702,eb:33:2e:f9:57:b5, 2085-97-222 255:40:253:3836,-0.043,-0.023,1.382,152.649,-80.383,53.894,5.79,3.988,-127.59
 15:26:09.702,eb:33:2e:f9:57:b5, 2085-97-116 00:41:253:3929,0.179,-0.441,2.006,174.988,-73.547,44.617,7.454,3.131,-127.167
 15:26:09.702,eb:33:2e:f9:57:b5, 2085-97-99 02:42:254:4314,0.328,-0.228,1.915,203.491,-80.444,1.892,9.366,2.351,-127.035
 15:26:09.702,eb:33:2e:f9:57:b5, 2085-97-56 03:198:253:4598,0.518,-0.289,2.259,240.356,-65.918,-39.368,11.596,1.642,-127.365
 15:26:09.732,eb:33:2e:f9:57:b5, 2085-97-121 04:234:253:4423,0.652,-0.158,2.185,280.151,-46.021,-72.449,14.205,1.23,-128.04
 15:26:09.732,eb:33:2e:f9:57:b5, 2085-97-237 04:102:251:4777,0.596,-0.407,2.206,316.345,-15.137,-98.206,17.205,1.159,-128.963
 15:26:09.732,eb:33:2e:f9:57:b5, 2085-97-126 04:31:252:5511,0.749,-0.567,2.456,347.168,41.321,-104.248,20.528,1.62,-129.88
 15:26:09.732,eb:33:2e:f9:57:b5, 2085-97-91 06:00:253:5006,0.615,-0.417,2.55,390.747,99.182,-104.309,24.208,2.736,-130.556
 15:26:09.763,eb:33:2e:f9:57:b5, 2085-97-228 04:189:251:6806,0.81,-0.461,2.811,419.006,133.362,-113.831,28.251,4.23,-131.089
 15:26:09.763,eb:33:2e:f9:57:b5, 2085-97-10 08:155:251:6599,0.91,-0.463,3.425,433.777,229.248,-82.336,32.542,6.273,-131.056
 15:26:09.763,eb:33:2e:f9:57:b5, 2085-97-111 07:41:254:5267,1.054,-0.44,2.892,423.462,316.956,-37.964,36.969,8.954,-129.957
 15:26:09.763,eb:33:2e:f9:57:b5, 2085-97-178 08:19:00:5458,1.131,0.037,2.545,429.749,315.125,-50.11,41.512,11.744,-128.21
 15:26:09.822,eb:33:2e:f9:57:b5, 2085-97-230 09:136:248:5424,1.338,-0.471,2.666,426.514,259.155,-135.864,46.077,14.491,-126.947
 15:26:09.822,eb:33:2e:f9:57:b5, 2085-97-197 13:43:247:6265,2.889,-1.183,2.664,416.26,215.088,-215.515,50.411,17.43,-126.42
 15:26:09.822,eb:33:2e:f9:57:b5, 2085-97-173 28:255:234:9042,1.711,-1.822,4.426,469.666,236.877,-265.442,54.767,20.632,-126.348
 15:26:09.822,eb:33:2e:f9:57:b5, 2085-97-125 05:00:250:-2104,0.547,-1.099,1.438,486.328,196.716,-301.758,60.09,24.241,-125.7
 15:26:09.883,eb:33:2e:f9:57:b5, 2085-97-155 03:175:248:-5949,0.314,-1.495,-1.883,275.513,-6.897,-267.212,63.342,27.29,-126.865
 15:26:09.883,eb:33:2e:f9:57:b5, 2085-97-15 03:113:244:-3442,0.799,-0.913,-3.345,-30.762,-49.255,-226.379,63.693,29.295,-128.309
 15:26:09.883,eb:33:2e:f9:57:b5, 2085-97-119 05:02:242:3264,0.385,-1.669,0.302,-203.857,-61.157,-184.753,61.353,30.789,-130.199
 15:26:09.883,eb:33:2e:f9:57:b5, 2085-97-90 01:155:242:3821,0.222,-1.763,2.011,-249.146,32.166,-108.459,58.497,31.921,-131.111
 15:26:09.885,eb:33:2e:f9:57:b5, 2085-97-158 01:205:245:1497,0.157,-1.44,1.395,-241.028,93.628,-54.138,56.135,32.959,-130.924
 15:26:09.885,eb:33:2e:f9:57:b5, 2085-97-90 01:18:248:-269,0.191,-1.123,0.175,-241.699,74.524,-10.803,54.091,33.712,-130.265
 15:26:09.885,eb:33:2e:f9:57:b5, 2085-97-206 01:91:249:-492,0.306,-0.897,-0.254,-251.892,18.677,18.738,51.866,33.931,-129.792
 15:26:09.885,eb:33:2e:f9:57:b5, 2085-97-66 03:127:250:-062,0.489,-0.762,-0.154,-260.315,-48.218,33.936,49.323,33.596,-129.743
 15:26:09.944,eb:33:2e:f9:57:b5, 2085-97-94 04:115:251:459,0.565,-0.619,0.095,-268.982,-100.769,40.833,46.456,32.767,-130.128
 15:26:09.944,eb:33:2e:f9:57:b5, 2085-97-184 04:17:252:929,0.577,-0.531,0.339,-278.198,-134.277,42.725,43.385,31.608,-130.748
 15:26:09.944,eb:33:2e:f9:57:b5, 2085-97-136 04:228:252:1222,0.537,-0.437,0.536,-288.391,-152.466,42.236,40.155,30.218,-131.49
 15:26:09.944,eb:33:2e:f9:57:b5, 2085-97-06 04:141:253:1398,0.475,-0.34,0.639,-302.246,-163.208,40.71,36.843,28.707,-132.22
 15:26:09.973,eb:33:2e:f9:57:b5, 2085-97-94 03:245:253:1482,0.391,-0.272,0.706,-319.519,-171.021,41.443,33.393,27.081,-132.913
 15:26:09.973,eb:33:2e:f9:57:b5, 2085-97-239 02:224:253:1795,0.347,-0.261,0.798,-336.792,-182.129,42.053,29.833,25.345,-133.528
 15:26:09.973,eb:33:2e:f9:57:b5, 2085-97-82 02:177:253:2007,0.25,-0.283,0.938,-351.135,-190.735,47.546,26.158,23.467,-134.033
 15:26:09.973,eb:33:2e:f9:57:b5, 2085-97-168 01:246:252:2390,0.162,-0.328,1.062,-357.3,-206.97,54.626,22.473,21.434,-134.39
 15:26:10.004,eb:33:2e:f9:57:b5, 2085-97-153 00:61:252:2757,-0.016,-0.43,1.278,-354.248,-219.666,71.716,18.836,19.188,-134.539
 15:26:10.004,eb:33:2e:f9:57:b5, 2085-97-65 255:167:251:3445,0.067,-0.504,1.464,-346.069,-225.525,99.426,15.397,16.793,-134.33
 15:26:10.004,eb:33:2e:f9:57:b5, 2085-113-81 00:87:48:4883,0.087,-0.484,1.728,-333.13,-222.534,132.507,12.151,14.337,-133.66
 15:26:10.004,eb:33:2e:f9:57:b5, 2085-97-213 00:20:253:3890,0.146,-0.424,1.83,-323.303,-218.201,146.423,10.629,13.123,-133.16
 15:26:10.063,eb:33:2e:f9:57:b5, 2085-97-108 01:184:254:4362,0.204,-0.254,2.032,-296.143,-207.886,173.462,7.789,10.794,-131.847
 15:26:10.063,eb:33:2e:f9:57:b5, 2085-97-247 01:60:01:4131,0.324,-0.016,2.128,-270.935,-203.491,187.805,5.213,8.558,-130.215
 15:26:10.063,eb:33:2e:f9:57:b5, 2085-97-81 03:66:03:3853,0.462,0.3,1.91,-271.79,-212.341,184.387,2.741,6.389,-128.441
 15:26:10.063,eb:33:2e:f9:57:b5, 2085-97-231 03:100:04:4276,0.523,0.501,1.933,-295.044,-232.239,167.419,0.027,4.125,-126.694
 15:26:10.092,eb:33:2e:f9:57:b5, 2085-97-190 04:38:05:5407,0.625,0.583,2.343,-309.937,-246.582,138.367,-2.95,1.774,-125.074
 15:26:10.092,eb:33:2e:f9:57:b5, 2085-97-105 04:84:07:6016,0.399,0.751,2.868,-310.303,-242.981,106.567,-6.075,-0.571,-123.646
 15:26:10.092,eb:33:2e:f9:57:b5, 2085-97-22 02:19:10:5562,0.139,1.107,2.858,-308.716,-231.14,72.998,-9.212,-2.78,-122.415
 15:26:10.092,eb:33:2e:f9:57:b5, 2085-97-251 255:210:11:5212,-0.176,1.373,2.594,-313.354,-235.168,37.842,-12.42,-4.949,-121.421
 15:26:10.123,eb:33:2e:f9:57:b5, 2085-97-80 253:230:13:5514,-0.452,1.604,2.566,-310.059,-262.329,7.324,-15.645,-7.306,-120.564
 15:26:10.123,eb:33:2e:f9:57:b5, 2085-97-18 252:44:16:5906,-0.505,1.853,2.84,-291.626,-257.446,-18.738,-18.792,-9.855,-119.811
 15:26:10.123,eb:33:2e:f9:57:b5, 2085-97-219 251:197:20:6099,-0.558,2.257,2.936,-266.418,-205.872,-30.396,-21.698,-12.118,-119.202
 15:26:10.123,eb:33:2e:f9:57:b5, 2085-97-232 250:13:28:5330,-0.792,3.052,2.882,-219.849,-127.563,-48.584,-24.214,-13.777,-118.878
 15:26:10.183,eb:33:2e:f9:57:b5, 2085-97-213 247:239:33:3652,-1.299,3.909,2.166,-156.616,-92.896,-92.834,-26.021,-15.002,-119.075
 15:26:10.183,eb:33:2e:f9:57:b5, 2085-97-50 243:247:35:2893,-1.869,4.446,1.546,-77.271,-122.62,-151.306,-26.993,-16.529,-119.718
 15:26:10.183,eb:33:2e:f9:57:b5, 2085-97-50 239:173:32:3532,-2.306,4.356,1.486,13.916,-160.095,-200.989,-26.966,-18.66,-120.679
 15:26:10.183,eb:33:2e:f9:57:b5, 2085-97-154 236:75:26:4694,-4.874,3.726,2.017,87.83,-141.357,-212.036,-25.961,-21.028,-121.91
 15:26:10.212,eb:33:2e:f9:57:b5, 2085-97-130 237:20:36:-1934,-1.682,-3.26,11.365,192.993,354.248,102.905,-24.175,-22.088,-123.333
 15:26:10.212,eb:33:2e:f9:57:b5, 2085-97-172 12:53:249:-2607,2.836,0.966,0.094,176.697,343.628,11.475,-21.791,-18.045,-124.283
 15:26:10.212,eb:33:2e:f9:57:b5, 2085-97-205 18:34:229:4252,1.537,-2.305,0.762,155.64,208.801,14.099,-20.094,-15.661,-125.145
 15:26:10.212,eb:33:2e:f9:57:b5, 2085-97-193 05:133:252:3705,-0.202,-2.379,2.082,298.035,292.175,75.012,-17.639,-13.079,-125.552
 15:26:10.243,eb:33:2e:f9:57:b5, 2085-97-161 244:228:09:4741,-1.965,1.063,1.592,303.711,304.443,63.843,-14.387,-10.014,-125.777
 15:26:10.243,eb:33:2e:f9:57:b5, 2085-97-225 242:93:05:2599,-1.049,0.906,1.863,321.472,240.479,53.04,-11.299,-7.311,-125.865
 15:26:10.243,eb:33:2e:f9:57:b5, 2085-97-109 251:147:02:1945,-0.329,0.398,0.926,307.922,114.746,-7.568,-8.086,-5.548,-126.002
 15:26:10.243,eb:33:2e:f9:57:b5, 2085-97-56 254:128:02:2585,-0.263,0.233,1.123,268.005,44.312,-51.27,-5.202,-5.026,-126.469
 15:26:10.303,eb:33:2e:f9:57:b5, 2085-97-146 254:230:04:1846,0.297,0.323,1.052,251.343,74.585,-59.448,-2.549,-4.427,-127.084
 15:26:10.303,eb:33:2e:f9:57:b5, 2085-97-226 07:221:09:3558,0.588,-0.646,0.749,176.331,-25.024,-11.292,-0.401,-4.224,-127.612
 15:26:10.303,eb:33:2e:f9:57:b5, 2085-97-45 01:237:05:2311,-0.328,1.334,1.813,95.276,41.321,5.554,0.923,-4.296,-127.645
 15:26:10.303,eb:33:2e:f9:57:b5, 2085-97-186 250:136:00:1336,-0.69,0.614,0.635,31.616,120.422,21.301,1.467,-3.257,-127.37
 15:26:10.332,eb:33:2e:f9:57:b5, 2085-97-148 252:204:00:1389,-0.075,-0.094,0.597,30.64,69.214,12.268,1.747,-2.302,-127.216
 15:26:10.332,eb:33:2e:f9:57:b5, 2085-97-241 00:32:01:2229,0.101,0.234,0.906,20.996,22.888,7.507,2.021,-1.934,-127.101
 15:26:10.332,eb:33:2e:f9:57:b5, 2085-97-245 255:53:01:1878,-0.123,0.127,1.028,12.817,51.331,16.174,2.175,-1.549,-126.974
 15:26:10.332,eb:33:2e:f9:57:b5, 2085-97-236 254:206:00:1721,-0.091,0.122,0.826,8.423,39.368,9.766,2.285,-1.066,-126.826
 15:26:10.363,eb:33:2e:f9:57:b5, 2085-97-76 255:128:00:1902,-0.088,0.088,0.892,6.287,16.907,2.38,2.357,-0.813,-126.766
 15:26:10.363,eb:33:2e:f9:57:b5, 2085-97-178 255:76:00:2131,-0.029,0.062,0.959,6.042,2.441,-1.587,2.428,-0.714,-126.76
 15:26:10.363,eb:33:2e:f9:57:b5, 2085-97-233 255:70:00:2164,0,0.025,1.055,7.935,-3.052,-2.38,2.499,-0.72,-126.782
 15:26:10.363,eb:33:2e:f9:57:b5, 2085-97-04 00:114:00:2113,0.005,0.024,1.043,7.507,0.061,-0.916,2.593,-0.742,-126.81
 15:26:10.423,eb:33:2e:f9:57:b5, 2085-97-34 00:69:00:2168,-0.002,0.087,1,5.249,2.014,-1.282,2.653,-0.714,-126.815
 15:26:10.423,eb:33:2e:f9:57:b5, 2085-97-100 255:15:00:1991,-0.071,0.012,1.039,4.761,11.78,2.075,2.714,-0.626,-126.799
 15:26:10.423,eb:33:2e:f9:57:b5, 2085-97-225 255:70:00:2060,0.043,0.017,0.97,6.348,-0.366,-1.404,2.774,-0.577,-126.799
 15:26:10.423,eb:33:2e:f9:57:b5, 2085-97-182 00:203:00:1983,0.107,0.061,1.039,5.981,0.183,-2.197,2.845,-0.582,-126.821
 15:26:10.452,eb:33:2e:f9:57:b5, 2085-97-48 01:114:00:2210,0.09,0.007,1.148,4.883,9.644,-0.854,2.889,-0.577,-126.859
 15:26:10.452,eb:33:2e:f9:57:b5, 2085-97-236 00:185:00:2139,0.115,0.065,1.046,3.784,15.32,-1.953,2.944,-0.417,-126.859
 15:26:10.452,eb:33:2e:f9:57:b5, 2085-97-164 00:216:00:2046,0.034,0.11,1.034,0.061,25.085,-2.258,2.966,-0.22,-126.87
 15:26:10.452,eb:33:2e:f9:57:b5, 2085-97-201 255:129:00:1932,-0.051,0.079,0.976,-1.526,30.151,-3.357,2.966,0.071,-126.892
 15:26:10.482,eb:33:2e:f9:57:b5, 2085-97-176 255:152:00:1941,-0.012,0.062,0.946,-1.465,25.574,-5.371,2.95,0.346,-126.931
 15:26:10.482,eb:33:2e:f9:57:b5, 2085-97-189 255:107:00:1943,-0.068,0.057,0.979,-2.38,23.743,-6.409,2.944,0.588,-126.985
 15:26:10.482,eb:33:2e:f9:57:b5, 2085-97-152 255:124:00:1906,0,0.036,0.931,-7.141,20.142,-9.888,2.895,0.813,-127.057
 15:26:10.482,eb:33:2e:f9:57:b5, 2085-97-183 255:132:00:1968,-0.022,0.043,0.992,-7.019,17.761,-12.329,2.829,0.989,-127.178
 15:26:10.542,eb:33:2e:f9:57:b5, 2085-97-233 255:181:00:1932,-0.021,0.066,0.972,-6.714,15.686,-13.367,2.758,1.159,-127.299
 15:26:10.542,eb:33:2e:f9:57:b5, 2085-97-109 255:166:00:1882,-0.075,0.059,0.971,-6.653,17.578,-12.207,2.703,1.329,-127.425
 15:26:10.542,eb:33:2e:f9:57:b5, 2085-97-230 254:106:00:1838,-0.044,0.054,0.918,-5.066,17.334,-10.193,2.642,1.5,-127.535
 15:26:10.542,eb:33:2e:f9:57:b5, 2085-97-54 00:101:00:2135,0.098,0.052,0.982,-3.296,14.343,-9.827,2.609,1.642,-127.634
 15:26:10.573,eb:33:2e:f9:57:b5, 2085-97-240 00:80:00:2313,0.016,0.07,1.088,-1.831,24.841,-11.719,2.582,1.846,-127.727
 15:26:10.573,eb:33:2e:f9:57:b5, 2085-97-154 255:58:00:2112,-0.026,0.005,1.082,0.488,38.025,-11.23,2.582,2.186,-127.831
 15:26:10.573,eb:33:2e:f9:57:b5, 2085-97-225 255:84:00:2128,-0.003,0.033,1.048,2.136,38.086,-15.015,2.593,2.56,-127.963
 15:26:10.573,eb:33:2e:f9:57:b5, 2085-97-230 255:144:00:2084,-0.052,0.056,1.038,1.953,41.138,-17.883,2.62,2.972,-128.112
 15:26:10.634,eb:33:2e:f9:57:b5, 2085-97-95 255:125:00:2012,-0.032,0.046,0.999,0.488,43.579,-18.677,2.626,3.406,-128.282
 15:26:10.634,eb:33:2e:f9:57:b5, 2085-97-201 255:100:00:2092,0.007,0.07,1.006,-0.916,41.565,-23.804,2.62,3.829,-128.491
 15:26:10.634,eb:33:2e:f9:57:b5, 2085-97-152 00:101:03:1080,0.043,0.229,0.841,-6.775,40.344,-32.898,2.576,4.268,-128.738
 15:26:10.634,eb:33:2e:f9:57:b5, 2085-97-162 00:41:252:3993,-0.05,0.302,0.845,-25.574,19.409,-65.491,2.373,4.587,-129.227
 15:26:10.664,eb:33:2e:f9:57:b5, 2085-97-129 255:159:02:1081,0.027,0.042,1.022,-6.47,67.444,-24.963,2.23,5.186,-129.556
 15:26:10.664,eb:33:2e:f9:57:b5, 2085-97-36 00:177:254:3585,0.009,0.093,1.026,-17.578,43.884,-38.94,2.071,5.652,-129.924
 15:26:10.664,eb:33:2e:f9:57:b5, 2085-97-164 254:163:254:2945,-0.297,-0.221,1.581,0.793,74.219,-5.554,1.967,6.323,-130.122
 15:26:10.664,eb:33:2e:f9:57:b5, 2085-97-99 254:242:250:4519,-0.238,-0.486,1.922,31.799,52.49,13.55,2.126,6.938,-130.089
 15:26:10.723,eb:33:2e:f9:57:b5, 2085-97-220 253:50:255:2412,-0.212,-0.414,1.652,72.388,52.002,70.801,2.747,7.493,-129.595
 15:26:10.723,eb:33:2e:f9:57:b5, 2085-97-173 253:153:254:2728,-0.396,-0.056,1.161,95.947,0.61,65.247,3.697,7.712,-128.903
 15:26:10.723,eb:33:2e:f9:57:b5, 2085-97-70 252:165:252:3120,-0.458,-0.327,1.466,115.967,-32.288,66.284,4.85,7.476,-128.254
 15:26:10.723,eb:33:2e:f9:57:b5, 2085-97-13 253:63:253:3217,-0.251,-0.378,1.54,135.742,-56.702,59.998,6.196,6.971,-127.639
 15:26:10.753,eb:33:2e:f9:57:b5, 2085-97-236 254:189:253:3503,0.022,-0.314,1.619,156.86,-82.092,39.429,7.718,6.218,-127.222
 15:26:10.753,eb:33:2e:f9:57:b5, 2085-97-43 01:232:254:4197,0.333,-0.215,1.852,181.519,-98.206,13.062,9.437,5.273,-127.095
 15:26:10.753,eb:33:2e:f9:57:b5, 2085-97-40 03:142:255:4237,0.529,-0.095,2.026,216.187,-89.417,-25.452,11.431,4.373,-127.332
 15:26:10.753,eb:33:2e:f9:57:b5, 2085-97-194 04:22:254:4701,0.648,-0.231,2.209,247.375,-65.674,-55.176,13.738,3.686,-127.93
 15:26:10.782,eb:33:2e:f9:57:b5, 2085-97-124 06:114:254:4462,0.87,-0.242,2.325,278.503,-1.526,-61.584,16.342,3.521,-128.589
 15:26:10.782,eb:33:2e:f9:57:b5, 2085-97-193 07:235:254:4583,1.042,-0.182,2.162,307.922,46.143,-78.796,19.265,3.972,-129.177
 15:26:10.782,eb:33:2e:f9:57:b5, 2085-97-232 08:78:253:4597,1.135,-0.157,2.271,344.971,79.224,-105.652,22.5,4.905,-129.825
 15:26:10.782,eb:33:2e:f9:57:b5, 2085-97-77 09:35:253:5138,1.034,-0.396,2.465,381.287,123.84,-128.418,26.087,6.301,-130.518
 15:26:10.873,eb:33:2e:f9:57:b5, 2085-97-64 06:106:02:5957,0.645,-0.141,2.543,416.016,169.861,-139.099,30.037,8.267,-131.012
 15:26:10.873,eb:33:2e:f9:57:b5, 2085-97-93 05:10:255:6868,1.144,-0.084,3.285,440.857,201.599,-149.292,34.277,10.64,-131.353
 15:26:10.873,eb:33:2e:f9:57:b5, 2085-97-92 08:148:253:5985,0.739,-0.441,3.165,431.702,271.423,-126.648,38.721,13.381,-131.1
 15:26:10.873,eb:33:2e:f9:57:b5, 2085-97-46 05:119:252:6341,0.778,-0.414,2.96,410.767,333.008,-102.173,43.187,16.447,-129.946
 15:26:10.873,eb:33:2e:f9:57:b5, 2085-97-184 07:98:253:5727,1.264,-0.307,3.017,400.818,358.948,-116.089,47.823,19.671,-128.09
 15:26:10.873,eb:33:2e:f9:57:b5, 2085-97-99 17:178:252:7241,4.667,-0.099,2.866,369.019,299.438,-270.447,52.158,23.291,-126.656
 15:26:10.873,eb:33:2e:f9:57:b5, 2085-97-182 28:219:229:9088,0.084,-2.813,6.286,393.494,344.91,-233.765,55.937,27.307,-126.447
 15:26:10.874,eb:33:2e:f9:57:b5, 2085-97-153 01:07:252:-6311,0.282,-0.788,-0.358,331.299,374.817,-194.031,61.562,31.179,-123.069
 15:26:10.904,eb:33:2e:f9:57:b5, 2085-97-117 04:11:248:-6372,0.729,-0.972,-3.216,95.215,151.733,-149.597,64.358,33.882,-121.558
 15:26:10.904,eb:33:2e:f9:57:b5, 2085-97-32 07:213:245:-221,0.767,-1.023,-1.845,-111.572,-0.977,-126.892,64.094,35.359,-121.542
 15:26:10.904,eb:33:2e:f9:57:b5, 2085-97-175 04:251:243:3449,0.504,-1.417,1.093,-193.176,-12.939,-79.102,61.996,36.167,-122.311
 15:26:10.904,eb:33:2e:f9:57:b5, 2085-97-37 04:37:245:2776,0.498,-1.468,1.752,-187.622,28.015,-35.889,59.87,36.705,-122.591
 15:26:10.904,eb:33:2e:f9:57:b5, 2085-113-58 00:205:231:-10065,0.459,-1.25,0.776,-176.331,38.696,7.996,58.271,37.002,-122.256
 15:26:10.932,eb:33:2e:f9:57:b5, 2085-97-108 03:148:248:-489,0.434,-1.102,0.215,-180.603,23.499,28.564,57.497,36.985,-122.036
 15:26:10.932,eb:33:2e:f9:57:b5, 2085-97-175 03:128:249:-1009,0.528,-0.834,-0.474,-205.566,-40.71,49.622,55.684,36.584,-121.844
 15:26:10.932,eb:33:2e:f9:57:b5, 2085-97-158 04:160:249:-428,0.655,-0.81,-0.36,-238.22,-109.314,60.913,53.201,35.645,-122.234
 15:26:10.932,eb:33:2e:f9:57:b5, 2085-97-173 05:147:249:490,0.711,-0.823,0.047,-265.381,-158.081,67.81,50.202,34.261,-123.052
 15:26:10.992,eb:33:2e:f9:57:b5, 2085-97-196 05:90:250:867,0.731,-0.759,0.332,-289.246,-176.331,77.881,46.906,32.569,-123.959
 15:26:10.992,eb:33:2e:f9:57:b5, 2085-97-178 05:84:251:1070,0.687,-0.633,0.482,-310.852,-186.584,81.055,43.467,30.707,-124.794
 15:26:10.992,eb:33:2e:f9:57:b5, 2085-97-65 05:23:252:1210,0.634,-0.553,0.583,-331.482,-194.702,77.698,39.858,28.724,-125.546
 15:26:10.992,eb:33:2e:f9:57:b5, 2085-97-223 04:112:252:1352,0.581,-0.457,0.606,-351.196,-205.261,72.754,36.118,26.68,-126.233
 15:26:11.022,eb:33:2e:f9:57:b5, 2085-97-94 04:105:252:1686,0.509,-0.436,0.721,-368.408,-218.811,70.312,32.217,24.5,-126.876
 15:26:11.022,eb:33:2e:f9:57:b5, 2085-97-164 03:67:252:2091,0.386,-0.455,0.927,-382.019,-232.422,69.275,28.24,22.181,-127.43
 15:26:11.022,eb:33:2e:f9:57:b5, 2085-97-246 02:78:251:2795,0.214,-0.489,1.147,-389.893,-243.286,75.745,24.208,19.704,-127.842
 15:26:11.022,eb:33:2e:f9:57:b5, 2085-97-70 03:138:251:2999,0.347,-0.543,1.274,-396.667,-229.065,82.153,20.226,17.205,-127.93
 15:26:11.052,eb:33:2e:f9:57:b5, 2085-97-113 02:229:252:3300,0.244,-0.313,1.549,-368.835,-250.854,96.558,16.447,14.601,-127.755
 15:26:11.052,eb:33:2e:f9:57:b5, 2085-97-91 01:44:254:4402,0.133,-0.342,1.884,-321.411,-267.578,108.582,13.085,11.816,-127.381
 15:26:11.052,eb:33:2e:f9:57:b5, 2085-97-247 00:66:00:4738,0.123,-0.111,2.321,-263.733,-260.803,119.873,10.272,8.981,-126.744
 15:26:11.052,eb:33:2e:f9:57:b5, 2085-97-100 01:168:02:3951,0.235,0.194,2.136,-235.046,-256.775,123.169,7.943,6.262,-125.898
 15:26:11.112,eb:33:2e:f9:57:b5, 2085-97-67 02:65:04:3877,0.302,0.461,1.793,-262.817,-275.818,113.403,5.532,3.488,-124.986
 15:26:11.112,eb:33:2e:f9:57:b5, 2085-97-241 01:77:05:5309,0.154,0.574,2.187,-290.222,-305.115,93.079,2.752,0.511,-124.129
 15:26:11.112,eb:33:2e:f9:57:b5, 2085-97-234 00:249:06:6443,0.057,0.761,2.943,-284.241,-303.162,64.453,-0.176,-2.593,-123.376
 15:26:11.112,eb:33:2e:f9:57:b5, 2085-97-254 255:138:09:6333,-0.028,1.009,3.187,-268.127,-257.263,44.617,-2.983,-5.367,-122.739
 15:26:11.143,eb:33:2e:f9:57:b5, 2085-97-141 255:83:12:6018,-0.112,1.364,3.011,-259.277,-216.37,26.001,-5.696,-7.674,-122.173
 15:26:11.143,eb:33:2e:f9:57:b5, 2085-97-92 254:239:15:5146,-0.312,1.758,2.769,-254.333,-197.083,0.793,-8.328,-9.668,-121.767
 15:26:11.143,eb:33:2e:f9:57:b5, 2085-97-149 252:172:17:4169,-0.588,2.163,2.244,-249.756,-221.375,-41.016,-10.893,-11.755,-121.591
 15:26:11.143,eb:33:2e:f9:57:b5, 2085-97-181 249:198:15:3803,-0.991,2.133,1.902,-249.329,-260.62,-77.515,-13.37,-14.271,-121.657
 15:26:11.173,eb:33:2e:f9:57:b5, 2085-97-198 246:146:13:4061,-1.279,1.802,1.883,-252.38,-276.55,-81.848,-15.87,-17.128,-121.729
 15:26:11.173,eb:33:2e:f9:57:b5, 2085-97-237 244:135:14:4675,-1.467,1.691,2.132,-257.141,-238.098,-52.551,-18.479,-19.814,-121.558
 15:26:11.173,eb:33:2e:f9:57:b5, 2085-97-108 244:201:18:5600,-1.41,2.048,2.457,-245.544,-163.94,-15.503,-21.176,-21.786,-121.124
 15:26:11.173,eb:33:2e:f9:57:b5, 2085-97-172 244:199:25:6449,-1.38,2.691,3.117,-181.946,-66.162,2.502,-23.522,-22.863,-120.674
 15:26:11.232,eb:33:2e:f9:57:b5, 2085-97-208 244:146:31:4247,-1.509,3.706,2.733,-66.895,42.664,-14.771,-24.703,-22.879,-120.707
 15:26:11.232,eb:33:2e:f9:57:b5, 2085-97-236 242:103:31:2381,-1.705,4.012,1.484,19.836,51.025,-52.246,-24.615,-22.544,-121.306
 15:26:11.232,eb:33:2e:f9:57:b5, 2085-97-47 242:141:27:2760,-1.481,3.725,1.13,70.557,14.099,-78.552,-23.791,-22.549,-122.13
 15:26:11.232,eb:33:2e:f9:57:b5, 2085-97-81 245:145:15:2289,-2.381,0.424,7.195,136.536,128.601,-53.955,-22.467,-22.857,-123.074
 15:26:11.262,eb:33:2e:f9:57:b5, 2085-97-150 01:180:248:-2416,2.487,-0.576,2.197,174.805,328.43,85.876,-20.577,-19.111,-123.239
 15:26:11.262,eb:33:2e:f9:57:b5, 2085-97-114 19:09:232:4068,1.861,-2.155,0.209,125.183,166.565,56.763,-19.149,-16.88,-123.503
 15:26:11.262,eb:33:2e:f9:57:b5, 2085-97-213 08:192:249:3637,0.031,-2.55,2.15,254.822,284.058,111.145,-17.238,-14.436,-123.448
 15:26:11.262,eb:33:2e:f9:57:b5, 2085-97-211 247:154:14:2844,-1.577,0.634,1.485,295.349,320.007,84.9,-14.343,-11.173,-123.376
 15:26:11.293,eb:33:2e:f9:57:b5, 2085-97-182 241:246:06:2479,-1.428,1.146,2.44,286.133,326.843,60.486,-11.552,-7.976,-123.503
 15:26:11.293,eb:33:2e:f9:57:b5, 2085-97-29 250:41:00:1844,-0.271,0.218,0.828,284.79,145.142,-6.897,-8.663,-5.537,-123.717
 15:26:11.293,eb:33:2e:f9:57:b5, 2085-97-241 252:77:01:1850,-0.287,0.049,1.03,257.69,81.177,-26.55,-5.889,-4.691,-124.091
 15:26:11.293,eb:33:2e:f9:57:b5, 2085-97-174 253:41:04:2267,0.443,0.08,1.097,238.892,68.42,-20.935,-3.433,-4.043,-124.415
 15:26:11.353,eb:33:2e:f9:57:b5, 2085-97-34 07:94:07:3728,0.471,-0.003,0.924,167.908,-16.663,11.78,-1.434,-3.823,-124.53
 15:26:11.353,eb:33:2e:f9:57:b5, 2085-97-152 254:165:05:1679,-0.734,1.12,1.654,102.234,89.294,25.94,-0.143,-3.527,-124.371
 15:26:11.353,eb:33:2e:f9:57:b5, 2085-97-200 249:132:02:1014,-0.524,0.477,0.459,46.997,90.027,18.616,0.538,-2.433,-124.107
 15:26:11.353,eb:33:2e:f9:57:b5, 2085-97-02 254:11:01:1664,-0.059,0.026,0.73,34.668,31.128,2.014,0.912,-1.928,-124.085
 15:26:11.382,eb:33:2e:f9:57:b5, 2085-97-176 255:234:00:2010,-0.105,0.16,0.972,23.132,18.372,2.502,1.203,-1.736,-124.058
 15:26:11.382,eb:33:2e:f9:57:b5, 2085-97-59 255:07:01:1779,-0.058,0.133,0.895,17.029,26.001,4.456,1.401,-1.483,-124.014
 15:26:11.382,eb:33:2e:f9:57:b5, 2085-97-191 255:195:00:1905,-0.119,0.107,0.896,10.986,18.616,1.282,1.549,-1.258,-123.986
 15:26:11.382,eb:33:2e:f9:57:b5, 2085-97-45 00:93:00:2176,0.019,0.136,0.832,9.583,-11.475,-12.329,1.653,-1.192,-124.014
 15:26:11.412,eb:33:2e:f9:57:b5, 2085-97-104 255:87:00:1992,-0.012,0.067,1.027,3.967,2.38,-2.808,1.725,-1.203,-124.074
 15:26:11.412,eb:33:2e:f9:57:b5, 2085-97-250 255:32:00:2120,0.033,0.001,1.048,4.333,-6.592,-3.784,1.769,-1.263,-124.124
 15:26:11.412,eb:33:2e:f9:57:b5, 2085-97-95 00:03:00:2250,0.033,0.018,1.066,3.845,-2.686,-1.282,1.824,-1.313,-124.156
 15:26:11.412,eb:33:2e:f9:57:b5, 2085-97-95 00:50:00:2165,0.051,0.014,1.066,4.15,7.69,3.235,1.862,-1.263,-124.135
 15:26:11.472,eb:33:2e:f9:57:b5, 2085-97-57 00:43:00:2114,0.006,0.027,1.049,4.517,12.085,2.38,1.917,-1.159,-124.107
 15:26:11.472,eb:33:2e:f9:57:b5, 2085-97-25 00:00:00:2092,0.016,0.007,1.021,4.883,11.841,1.953,1.967,-1.033,-124.085
 15:26:11.472,eb:33:2e:f9:57:b5, 2085-97-61 00:44:00:2091,0.033,0,1.015,4.944,10.254,2.075,2.027,-0.917,-124.063
 15:26:11.472,eb:33:2e:f9:57:b5, 2085-97-118 00:96:00:2087,0.09,0.024,1.017,4.761,9.033,2.136,2.076,-0.824,-124.047
 15:26:11.503,eb:33:2e:f9:57:b5, 2085-97-184 00:101:00:2126,0.088,0.045,1.041,3.418,12.695,1.953,2.131,-0.72,-124.025
 15:26:11.503,eb:33:2e:f9:57:b5, 2085-97-183 00:117:00:2129,0.062,0.052,1.042,2.197,19.165,1.343,2.159,-0.555,-124.008
 15:26:11.503,eb:33:2e:f9:57:b5, 2085-97-56 00:65:00:2063,0,0.046,1.023,1.099,24.414,0.122,2.186,-0.324,-123.997
 15:26:11.503,eb:33:2e:f9:57:b5, 2085-113-58 00:28:228:-7650,-0.012,0.024,1.006,1.099,24.414,0.061,2.197,-0.082,-123.992
 15:26:11.532,eb:33:2e:f9:57:b5, 2085-97-213 255:70:00:1984,-0.022,0.027,0.996,1.282,23.804,-0.183,2.203,0.038,-123.992
 15:26:11.532,eb:33:2e:f9:57:b5, 2085-97-200 255:67:00:1972,-0.025,0.027,0.975,1.709,22.034,-1.404,2.23,0.275,-123.997
 15:26:11.532,eb:33:2e:f9:57:b5, 2085-97-215 255:62:00:2000,-0.028,0.032,0.974,1.709,19.714,-3.174,2.247,0.478,-124.014
 15:26:11.532,eb:33:2e:f9:57:b5, 2085-97-153 255:87:00:1933,-0.024,0.042,0.963,-0.61,19.714,-5.798,2.269,0.681,-124.047
 15:26:11.593,eb:33:2e:f9:57:b5, 2085-97-232 255:58:00:2041,-0.027,0.041,0.981,-2.869,16.907,-8.667,2.241,0.868,-124.124
 15:26:11.593,eb:33:2e:f9:57:b5, 2085-97-47 00:119:00:2040,0.005,0.032,0.996,-4.7,16.907,-9.888,2.208,1.055,-124.211
 15:26:11.593,eb:33:2e:f9:57:b5, 2085-97-08 00:137:00:2000,-0.023,0.025,1.038,-3.662,20.142,-10.62,2.159,1.252,-124.31
 15:26:11.593,eb:33:2e:f9:57:b5, 2085-97-16 00:115:00:2083,0.011,0.067,0.961,-6.409,21.667,-14.099,2.115,1.483,-124.431
 15:26:11.623,eb:33:2e:f9:57:b5, 2085-97-13 00:196:00:1879,0.059,0.117,0.926,-9.705,25.33,-17.212,2.038,1.714,-124.59
 15:26:11.623,eb:33:2e:f9:57:b5, 2085-97-246 00:114:01:1945,0.029,0.191,0.854,-19.287,26.184,-24.963,1.906,1.983,-124.788
 15:26:11.623,eb:33:2e:f9:57:b5, 2085-97-227 255:23:01:1777,-0.024,-0.096,1.231,-16.602,40.955,-22.827,1.692,2.318,-125.046
 15:26:11.623,eb:33:2e:f9:57:b5, 2085-97-73 00:210:255:2516,0.06,0.063,0.902,-20.081,38.086,-29.846,1.511,2.719,-125.316
 15:26:11.653,eb:33:2e:f9:57:b5, 2085-97-242 00:115:01:2031,0.099,-0.041,1.23,-10.376,53.162,-28.015,1.351,3.159,-125.629
 15:26:11.653,eb:33:2e:f9:57:b5, 2085-97-125 00:224:254:3541,-0.014,0.035,1.201,-7.935,55.298,-28.625,1.241,3.702,-125.92
 15:26:11.653,eb:33:2e:f9:57:b5, 2085-97-142 255:74:251:4339,-0.14,-0.589,2.338,27.161,76.355,-0.488,1.307,4.34,-126.123
 15:26:11.653,eb:33:2e:f9:57:b5, 2085-97-182 254:67:00:1703,-0.188,-0.25,1.28,66.895,70.068,43.091,1.868,5.136,-125.826
 15:26:11.713,eb:33:2e:f9:57:b5, 2085-97-205 253:145:254:2410,-0.324,-0.036,0.957,77.576,28.32,45.166,2.637,5.57,-125.398
 15:26:11.713,eb:33:2e:f9:57:b5, 2085-97-119 253:63:254:2605,-0.222,-0.272,1.262,91.003,6.47,63.965,3.543,5.713,-124.832
 15:26:11.713,eb:33:2e:f9:57:b5, 2085-97-252 254:16:255:2819,-0.067,-0.149,1.292,108.093,-23.621,63.843,4.603,5.581,-124.189
 15:26:11.713,eb:33:2e:f9:57:b5, 2085-97-118 255:30:255:3048,-0.051,-0.106,1.444,123.474,-44.373,49.805,5.828,5.18,-123.64
 15:26:11.743,eb:33:2e:f9:57:b5, 2085-97-23 255:124:254:3144,-0.164,-0.142,1.511,139.526,-57.861,26.55,7.174,4.631,-123.322
 15:26:11.743,eb:33:2e:f9:57:b5, 2085-97-77 254:223:253:3225,-0.223,-0.244,1.552,159.241,-72.083,2.075,8.69,3.972,-123.272
 15:26:11.743,eb:33:2e:f9:57:b5, 2085-97-71 254:82:253:3519,-0.145,-0.289,1.608,180.908,-92.285,-19.592,10.382,3.175,-123.503
 15:26:11.743,eb:33:2e:f9:57:b5, 2085-97-42 00:207:253:3998,0.172,-0.338,1.9,209.473,-100.525,-39.307,12.332,2.258,-123.986
 15:26:11.773,eb:33:2e:f9:57:b5, 2085-97-168 02:36:254:4339,0.504,-0.205,2.001,246.46,-92.896,-57.922,14.612,1.412,-124.678
 15:26:11.773,eb:33:2e:f9:57:b5, 2085-97-72 05:247:252:4438,0.792,-0.363,2.128,283.813,-65.308,-74.219,17.281,0.829,-125.541
 15:26:11.773,eb:33:2e:f9:57:b5, 2085-97-25 07:254:253:4608,0.972,-0.322,2.218,320.19,-16.968,-91.064,20.325,0.72,-126.458
 15:26:11.773,eb:33:2e:f9:57:b5, 2085-97-174 08:204:254:5108,1.206,-0.077,2.449,356.812,35.4,-110.779,23.714,1.192,-127.348
 15:26:11.833,eb:33:2e:f9:57:b5, 2085-97-111 08:67:254:4916,0.78,-0.197,2.343,397.339,82.703,-132.751,27.499,2.274,-128.199
 15:26:11.833,eb:33:2e:f9:57:b5, 2085-97-55 04:67:254:6269,0.461,-0.252,2.717,420.044,137.573,-135.437,31.586,3.906,-128.881
 15:26:11.833,eb:33:2e:f9:57:b5, 2085-97-60 04:110:253:6953,0.938,-0.037,3.242,441.467,195.557,-107.849,35.909,5.982,-128.952
 15:26:11.833,eb:33:2e:f9:57:b5, 2085-97-23 08:15:254:6099,1.145,-0.463,3.241,440.552,260.864,-70.312,40.419,8.361,-128.249
 15:26:11.862,eb:33:2e:f9:57:b5, 2085-97-96 08:145:00:5234,1.117,0.069,2.708,435.425,309.143,-52.979,45.033,10.948,-126.672
 15:26:11.862,eb:33:2e:f9:57:b5, 2085-97-51 10:202:249:6105,1.345,-0.262,2.625,410.217,275.085,-118.103,49.581,13.574,-125.101
 15:26:11.862,eb:33:2e:f9:57:b5, 2085-97-176 13:32:251:7365,2.89,-0.956,3.277,410.461,255.981,-201.233,53.904,16.501,-124.019
 15:26:11.862,eb:33:2e:f9:57:b5, 2085-97-209 28:138:234:9680,1.243,-1.47,4.748,472.656,254.15,-318.665,58.354,20.149,-123.651
 15:26:11.893,eb:33:2e:f9:57:b5, 2085-97-11 03:158:02:-4530,0.668,-0.445,1.104,478.638,229.919,-297.974,63.902,23.862,-122.531
 15:26:11.893,eb:33:2e:f9:57:b5, 2085-97-235 04:24:247:-4180,0.284,-1.338,-1.663,265.442,-62.622,-324.951,66.846,27.301,-124.058
 15:26:11.893,eb:33:2e:f9:57:b5, 2085-97-81 03:100:245:-2483,0.649,-0.975,-2.387,-7.69,-90.088,-252.991,67.055,29.586,-125.975
 15:26:11.893,eb:33:2e:f9:57:b5, 2085-97-87 04:25:243:2297,0.298,-1.521,0.254,-170.471,-88.135,-192.627,64.907,31.141,-128.134
 15:26:11.952,eb:33:2e:f9:57:b5, 2085-97-206 00:30:242:3765,0.016,-1.676,1.646,-229.065,-30.212,-127.808,62.067,32.261,-129.545
 15:26:11.952,eb:33:2e:f9:57:b5, 2085-97-156 00:179:243:2422,0.067,-1.695,1.668,-224.548,43.396,-67.383,59.518,33.129,-130.018
 15:26:11.953,eb:33:2e:f9:57:b5, 2085-97-144 00:122:246:333,0.084,-1.381,0.615,-214.905,54.504,-13.123,57.524,33.728,-129.661
 15:26:11.953,eb:33:2e:f9:57:b5, 2085-97-172 01:76:248:-575,0.296,-1.04,-0.219,-217.102,-9.766,18.555,55.514,33.821,-129.375
 15:26:11.983,eb:33:2e:f9:57:b5, 2085-97-70 03:170:249:-432,0.495,-0.892,-0.275,-227.661,-72.632,33.081,53.163,33.333,-129.606
 15:26:11.983,eb:33:2e:f9:57:b5, 2085-97-127 04:178:250:030,0.598,-0.715,-0.111,-242.249,-128.113,35.156,50.416,32.393,-130.309
 15:26:11.983,eb:33:2e:f9:57:b5, 2085-97-223 04:86:251:409,0.588,-0.607,0.106,-258.728,-165.283,30.457,47.362,31.141,-131.358
 15:26:11.983,eb:33:2e:f9:57:b5, 2085-97-108 04:110:251:865,0.506,-0.583,0.325,-272.4,-193.176,19.226,44.039,29.674,-132.649
 15:26:12.043,eb:33:2e:f9:57:b5, 2085-97-167 03:88:251:1182,0.391,-0.578,0.512,-286.865,-209.045,12.39,40.573,28.059,-134.05
 15:26:12.043,eb:33:2e:f9:57:b5, 2085-97-162 02:03:251:1419,0.272,-0.598,0.626,-307.922,-217.041,13.245,36.958,26.285,-135.423
 15:26:12.043,eb:33:2e:f9:57:b5, 2085-97-208 01:134:250:1767,0.193,-0.656,0.78,-333.74,-217.529,22.095,33.234,24.384,-136.62
 15:26:12.043,eb:33:2e:f9:57:b5, 2085-97-92 01:61:250:2022,0.163,-0.708,0.932,-358.215,-212.769,37.292,29.383,22.368,-137.532
 15:26:12.072,eb:33:2e:f9:57:b5, 2085-97-89 01:66:250:2260,0.178,-0.724,1.042,-373.718,-213.989,53.589,25.499,20.259,-138.109
 15:26:12.072,eb:33:2e:f9:57:b5, 2085-97-120 01:159:250:2578,0,-0.697,1.174,-375.305,-223.999,68.542,21.627,17.99,-138.4
 15:26:12.072,eb:33:2e:f9:57:b5, 2085-97-145 00:108:251:2498,0.194,-0.876,1.774,-366.211,-222.595,92.651,17.919,15.568,-138.417
 15:26:12.072,eb:33:2e:f9:57:b5, 2085-97-49 02:225:251:3117,0.208,-0.483,1.376,-353.821,-256.47,91.37,14.354,13.068,-138.12
 15:26:12.104,eb:33:2e:f9:57:b5, 2085-97-206 01:64:252:3677,0.205,-0.499,1.625,-337.463,-268.616,102.539,10.992,10.283,-137.675
 15:26:12.104,eb:33:2e:f9:57:b5, 2085-97-161 01:231:253:4733,0.187,-0.357,2.015,-313.293,-276.001,106.995,7.817,7.405,-137.032
 15:26:12.104,eb:33:2e:f9:57:b5, 2085-97-55 01:36:00:5328,0.118,-0.15,2.546,-284.729,-254.944,104.553,4.916,4.653,-136.225
 15:26:12.104,eb:33:2e:f9:57:b5, 2085-113-58 00:226:225:-6885,0.111,0.189,2.48,-275.757,-244.751,86.792,2.17,2.131,-135.379
 15:26:12.104,eb:33:2e:f9:57:b5, 2085-97-188 00:47:03:4697,0.05,0.313,2.337,-286.682,-251.526,73.425,0.775,0.89,-135
 15:26:12.163,eb:33:2e:f9:57:b5, 2085-97-252 255:173:03:5772,-0.102,0.437,2.474,-328.735,-277.832,43.152,-2.346,-1.752,-134.352
 15:26:12.163,eb:33:2e:f9:57:b5, 2085-97-10 254:08:06:7171,-0.405,0.559,3.206,-347.351,-276.062,23.193,-5.801,-4.526,-133.792
 15:26:12.163,eb:33:2e:f9:57:b5, 2085-97-194 251:166:09:7251,-0.689,0.999,3.606,-331.299,-236.511,0.671,-9.283,-7.048,-133.303
 15:26:12.163,eb:33:2e:f9:57:b5, 2085-97-87 249:190:12:6203,-0.994,1.397,3.322,-316.345,-203.064,-19.897,-12.541,-9.201,-132.968
 15:26:12.193,eb:33:2e:f9:57:b5, 2085-97-242 246:178:14:5667,-1.226,1.76,2.83,-323.242,-196.594,-29.907,-15.804,-11.184,-132.704
 15:26:12.193,eb:33:2e:f9:57:b5, 2085-97-189 245:15:16:5941,-1.271,1.875,2.841,-316.101,-184.265,-28.076,-19.094,-13.118,-132.374
 15:26:12.193,eb:33:2e:f9:57:b5, 2085-97-235 245:188:20:5846,-1.274,2.241,2.896,-283.936,-127.197,-11.963,-22.203,-14.634,-131.979
 15:26:12.193,eb:33:2e:f9:57:b5, 2085-97-23 245:83:28:5270,-1.504,3.018,2.763,-224.243,-68.909,-7.446,-24.835,-15.518,-131.649
 15:26:12.222,eb:33:2e:f9:57:b5, 2085-97-148 242:204:34:3903,-1.919,4.033,2.276,-131.714,-47.729,-31.86,-26.614,-16.078,-131.572
 15:26:12.222,eb:33:2e:f9:57:b5, 2085-97-154 238:184:34:3058,-2.375,4.448,1.581,-37.72,-70.923,-68.665,-27.345,-16.842,-131.765
 15:26:12.222,eb:33:2e:f9:57:b5, 2085-97-88 239:171:26:5780,-3.82,4.105,1.672,44.495,-83.435,-84.778,-27.153,-17.941,-132.1
 15:26:12.222,eb:33:2e:f9:57:b5, 2085-97-60 228:67:30:7610,-1.806,-0.016,9.359,241.882,282.715,238.281,-25.801,-17.776,-132.188
 15:26:12.314,eb:33:2e:f9:57:b5, 2085-97-16 255:190:08:-2103,1.152,2.701,1.184,227.417,356.018,48.462,-23.176,-14.189,-132.841
 15:26:12.314,eb:33:2e:f9:57:b5, 2085-97-87 15:203:236:4374,2.205,-0.543,0.016,134.766,197.571,36.743,-21.363,-11.525,-133.572
 15:26:12.314,eb:33:2e:f9:57:b5, 2085-97-03 13:46:238:4342,0.411,-3.319,2.169,259.216,245.911,72.998,-19.303,-9.377,-133.89
 15:26:12.314,eb:33:2e:f9:57:b5, 2085-97-227 248:227:05:3161,-1.793,-0.478,1.378,353.027,292.419,92.102,-16.062,-6.367,-133.945
 15:26:12.314,eb:33:2e:f9:57:b5, 2085-97-41 240:87:10:3034,-1.828,1.188,1.535,341.553,217.957,83.679,-12.563,-3.598,-133.764
 15:26:12.314,eb:33:2e:f9:57:b5, 2085-97-110 254:157:01:3441,-0.307,1.313,0.005,316.895,-9.399,-36.194,-9.207,-2.335,-133.621
 15:26:12.314,eb:33:2e:f9:57:b5, 2085-97-54 254:101:255:2041,-0.133,0.282,0.914,269.165,47.485,-41.443,-6.29,-2.005,-133.896
 15:26:12.314,eb:33:2e:f9:57:b5, 2085-97-55 253:42:03:1928,-0.407,-0.004,1.124,242.432,47.729,-48.828,-3.746,-1.697,-134.418
 15:26:12.343,eb:33:2e:f9:57:b5, 2085-97-92 05:42:09:2769,0.549,-0.332,0.702,177.673,-46.997,-31.494,-1.582,-1.686,-134.951
 15:26:12.343,eb:33:2e:f9:57:b5, 2085-97-81 02:36:07:2721,-0.249,1.281,1.8,97.412,3.479,-4.272,-0.236,-2.109,-135.104
 15:26:12.343,eb:33:2e:f9:57:b5, 2085-97-103 250:203:255:1389,-0.796,0.667,0.862,32.837,105.408,5.737,0.33,-1.379,-135
 15:26:12.343,eb:33:2e:f9:57:b5, 2085-97-05 253:72:02:1363,0.005,-0.048,0.476,29.968,47.424,8.301,0.632,-0.527,-134.918
 15:26:12.404,eb:33:2e:f9:57:b5, 2085-97-159 255:87:00:2076,-0.146,0.186,1.003,18.86,-3.967,-12.024,0.879,-0.472,-134.989
 15:26:12.404,eb:33:2e:f9:57:b5, 2085-97-239 254:220:00:1888,-0.096,0.101,0.917,16.235,5.249,-9.583,1.049,-0.439,-135.077
 15:26:12.404,eb:33:2e:f9:57:b5, 2085-97-106 255:164:00:1934,0.002,0.043,0.957,10.01,3.296,-1.16,1.192,-0.374,-135.132
 15:26:12.404,eb:33:2e:f9:57:b5, 2085-97-18 00:182:00:2100,0.004,0.09,1.003,6.653,-6.653,-6.592,1.274,-0.423,-135.176
 15:26:12.433,eb:33:2e:f9:57:b5, 2085-97-223 255:73:00:2143,-0.035,0.053,1.055,3.052,2.686,-5.432,1.329,-0.434,-135.242
 15:26:12.433,eb:33:2e:f9:57:b5, 2085-97-188 255:69:00:2069,-0.022,0.034,1.017,2.93,4.7,-5.066,1.362,-0.385,-135.291
 15:26:12.433,eb:33:2e:f9:57:b5, 2085-97-159 255:22:00:2101,-0.035,0.021,1.034,1.587,8.423,-2.93,1.401,-0.319,-135.341
 15:26:12.433,eb:33:2e:f9:57:b5, 2085-97-251 255:46:00:2141,-0.002,0.016,1.03,2.136,6.653,-1.709,1.417,-0.242,-135.352
 15:26:12.462,eb:33:2e:f9:57:b5, 2085-97-04 00:66:00:2097,-0.005,0.033,1.032,2.502,6.836,-2.197,1.456,-0.159,-135.368
 15:26:12.462,eb:33:2e:f9:57:b5, 2085-97-56 255:155:255:2166,0.004,0.11,0.863,1.648,-11.108,-14.587,1.478,-0.126,-135.417
 15:26:12.462,eb:33:2e:f9:57:b5, 2085-97-228 255:03:00:2143,0.04,-0.02,1.062,2.686,3.54,-1.892,1.516,-0.181,-135.511
 15:26:12.462,eb:33:2e:f9:57:b5, 2085-97-185 00:29:00:2117,0.063,-0.014,1.045,3.052,14.038,5.493,1.544,-0.082,-135.489
 15:26:12.522,eb:33:2e:f9:57:b5, 2085-97-218 00:29:00:2124,0.146,0.024,1.017,2.441,14.099,2.502,1.588,0.082,-135.439
 15:26:12.522,eb:33:2e:f9:57:b5, 2085-97-21 01:20:00:2172,0.111,0.022,1.062,1.465,19.592,0.854,1.604,0.242,-135.417
 15:26:12.522,eb:33:2e:f9:57:b5, 2085-97-168 00:122:00:2089,0.065,0.032,1.04,0.916,26.611,-0.366,1.631,0.483,-135.412
 15:26:12.522,eb:33:2e:f9:57:b5, 2085-97-142 00:162:00:2074,0.07,0.067,1.021,-0.244,32.043,-3.723,1.631,0.78,-135.428
 15:26:12.552,eb:33:2e:f9:57:b5, 2085-97-183 00:60:00:2028,0.011,0.058,1.018,-1.831,39.978,-5.615,1.631,1.148,-135.478
 15:26:12.552,eb:33:2e:f9:57:b5, 2085-97-181 255:107:00:1952,-0.004,0.047,0.998,-0.977,50.232,-2.502,1.626,1.62,-135.5
 15:26:12.552,eb:33:2e:f9:57:b5, 2085-97-222 255:234:255:2162,-0.044,0.057,0.998,-0.183,43.518,-12.451,1.631,2.076,-135.571
 15:26:12.552,eb:33:2e:f9:57:b5, 2085-97-62 00:17:00:2180,0.024,0.047,1.03,-0.977,49.133,-16.724,1.631,2.549,-135.692
 15:26:12.582,eb:33:2e:f9:57:b5, 2085-97-233 254:58:00:1837,-0.05,0.052,0.944,-1.221,53.406,-15.015,1.631,3.109,-135.813
 15:26:12.582,eb:33:2e:f9:57:b5, 2085-97-69 00:133:255:2199,-0.207,-0.02,1.086,-2.808,52.307,-21.423,1.588,3.582,-136.033
 15:26:12.582,eb:33:2e:f9:57:b5, 2085-97-25 255:184:00:1835,-0.001,0.046,0.872,-2.38,54.932,-17.639,1.571,4.241,-136.143
 15:26:12.582,eb:33:2e:f9:57:b5, 2085-97-230 254:98:00:1897,-0.165,0.019,1.041,-1.343,51.208,-22.095,1.527,4.708,-136.384
 15:26:12.672,eb:33:2e:f9:57:b5, 2085-97-226 254:101:00:1878,-0.16,0.011,1,-0.671,43.274,-23.56,1.511,5.191,-136.604
 15:26:12.672,eb:33:2e:f9:57:b5, 2085-97-112 255:154:00:1924,-0.115,0.044,0.952,-1.404,33.142,-25.146,1.478,5.587,-136.829
 15:26:12.672,eb:33:2e:f9:57:b5, 2085-97-238 255:72:02:1407,-0.004,0.126,0.896,-6.042,27.405,-32.654,1.428,5.916,-137.104
 15:26:12.672,eb:33:2e:f9:57:b5, 2085-97-80 01:00:00:2560,-0.078,0.201,0.95,-15.32,9.583,-57.739,1.263,6.092,-137.576
 15:26:12.674,eb:33:2e:f9:57:b5, 2085-97-201 255:04:01:1926,-0.062,0.014,1.075,-11.719,40.649,-40.039,1.104,6.427,-138.032
 15:26:12.674,eb:33:2e:f9:57:b5, 2085-97-148 255:66:254:3260,-0.056,-0.117,1.312,-9.338,51.147,-32.288,0.945,6.855,-138.428
 15:26:12.675,eb:33:2e:f9:57:b5, 2085-97-137 255:127:254:2920,-0.092,-0.249,1.609,4.028,90.942,-2.38,0.912,7.614,-138.598
 15:26:12.675,eb:33:2e:f9:57:b5, 2085-97-43 254:67:253:3571,-0.151,-0.121,1.324,19.714,80.75,20.081,1.049,8.503,-138.477
 15:26:12.704,eb:33:2e:f9:57:b5, 2085-97-231 253:250:252:3378,-0.273,-0.535,2.039,63.477,66.162,57.495,1.549,9.163,-138.12
 15:26:12.704,eb:33:2e:f9:57:b5, 2085-97-237 253:208:254:2536,-0.347,-0.146,1.323,91.187,38.208,75.378,2.466,9.706,-137.362
 15:26:12.704,eb:33:2e:f9:57:b5, 2085-97-140 252:63:253:3093,-0.483,-0.192,1.311,112.061,-5.798,72.693,3.636,9.822,-136.593
 15:26:12.704,eb:33:2e:f9:57:b5, 2085-97-121 252:03:253:3258,-0.386,-0.38,1.582,130.615,-28.32,71.594,4.977,9.602,-135.851
 15:26:12.763,eb:33:2e:f9:57:b5, 2085-97-187 253:176:253:3570,-0.174,-0.329,1.666,152.771,-58.716,49.744,6.498,9.108,-135.28
 15:26:12.763,eb:33:2e:f9:57:b5, 2085-97-132 255:20:254:3906,-0.007,-0.259,1.799,179.993,-84.961,18.433,8.207,8.333,-135.044
 15:26:12.763,eb:33:2e:f9:57:b5, 2085-97-59 00:187:253:4067,0.101,-0.247,1.979,212.402,-98.572,-13.306,10.173,7.41,-135.159
 15:26:12.763,eb:33:2e:f9:57:b5, 2085-97-149 01:214:252:4444,0.318,-0.407,2.114,245.728,-88.501,-39.49,12.426,6.526,-135.632
 15:26:12.792,eb:33:2e:f9:57:b5, 2085-97-62 03:254:252:4597,0.626,-0.369,2.2,280.273,-51.27,-51.147,15.018,5.949,-136.241
 15:26:12.792,eb:33:2e:f9:57:b5, 2085-97-80 06:154:254:4419,0.938,-0.307,2.267,314.941,3.601,-58.35,17.957,5.905,-136.818
 15:26:12.792,eb:33:2e:f9:57:b5, 2085-97-89 08:01:254:4362,1.025,-0.159,2.165,351.562,41.626,-86.121,21.248,6.394,-137.422
 15:26:12.792,eb:33:2e:f9:57:b5, 2085-97-72 07:54:253:4883,0.703,-0.311,2.295,392.578,78.491,-115.967,24.911,7.333,-138.153
 15:26:12.882,eb:33:2e:f9:57:b5, 2085-97-127 03:126:00:6372,0.498,-0.263,2.539,416.321,122.314,-125.732,28.905,8.8,-138.807
 15:26:12.882,eb:33:2e:f9:57:b5, 2085-97-175 06:142:253:7080,1.199,-0.091,3.615,432.617,202.271,-114.807,33.124,10.838,-139.059
 15:26:12.882,eb:33:2e:f9:57:b5, 2085-97-54 08:30:254:5705,0.67,-0.329,3.057,419.006,311.707,-74.646,37.557,13.563,-138.252
 15:26:12.882,eb:33:2e:f9:57:b5, 2085-97-128 06:64:255:6319,0.959,-0.074,2.929,412.72,347.595,-65.308,42.127,16.567,-136.62
 15:26:12.883,eb:33:2e:f9:57:b5, 2085-97-204 09:161:254:6233,1.336,-0.083,3.168,397.888,350.342,-93.384,46.785,19.589,-134.632
 15:26:12.883,eb:33:2e:f9:57:b5, 2085-97-229 14:123:00:6648,4.179,0.237,2.953,362.549,287.476,-258.789,51.07,23.038,-133.237
 15:26:12.883,eb:33:2e:f9:57:b5, 2085-97-51 40:229:229:11705,1.179,-1.752,5.357,368.774,241.211,-290.771,54.415,26.922,-133.726
 15:26:12.884,eb:33:2e:f9:57:b5, 2085-97-28 01:104:250:-4525,0.155,-1.602,1.142,354.614,431.03,-181.213,59.744,30.883,-130.836
 15:26:12.942,eb:33:2e:f9:57:b5, 2085-97-216 02:200:249:-6011,0.411,-0.683,-2.82,143.127,168.579,-154.785,63.018,33.766,-129.183
 15:26:12.942,eb:33:2e:f9:57:b5, 2085-97-56 06:43:247:-2030,1.021,-0.808,-2.566,-77.576,30.334,-120.911,63.413,35.376,-128.793
 15:26:12.942,eb:33:2e:f9:57:b5, 2085-97-91 06:247:244:2752,0.511,-1.33,0.513,-200.378,0.916,-73.73,61.458,36.244,-129.463
 15:26:12.942,eb:33:2e:f9:57:b5, 2085-97-103 03:161:245:3679,0.499,-1.384,1.726,-219.849,46.204,-26.428,59.299,36.771,-129.435
 15:26:12.944,eb:33:2e:f9:57:b5, 2085-97-189 03:224:247:1684,0.441,-1.131,1.467,-200.012,74.158,7.568,57.552,37.178,-128.842
 15:26:12.944,eb:33:2e:f9:57:b5, 2085-97-168 03:215:249:-394,0.492,-0.9,0.228,-198.792,52.979,40.405,56.107,37.326,-127.963
 15:26:12.944,eb:33:2e:f9:57:b5, 2085-97-210 03:218:250:-777,0.494,-0.686,-0.369,-218.567,2.014,60.73,54.388,37.04,-127.326
 15:26:12.944,eb:33:2e:f9:57:b5, 2085-97-165 04:49:251:-062,0.647,-0.622,-0.237,-241.699,-63.538,69.641,52.169,36.299,-127.161
 15:26:13.003,eb:33:2e:f9:57:b5, 2085-97-159 05:102:251:585,0.724,-0.574,0.127,-262.024,-108.521,70.984,49.455,35.167,-127.458
 15:26:13.003,eb:33:2e:f9:57:b5, 2085-97-214 05:06:252:800,0.74,-0.53,0.339,-284.546,-131.653,74.036,46.445,33.799,-127.941
 15:26:13.003,eb:33:2e:f9:57:b5, 2085-97-169 05:66:252:1071,0.693,-0.496,0.492,-309.021,-146.24,72.937,43.154,32.272,-128.496
 15:26:13.003,eb:33:2e:f9:57:b5, 2085-97-80 05:164:252:1135,0.629,-0.442,0.545,-340.21,-153.687,76.416,39.644,30.641,-128.979
 15:26:13.033,eb:33:2e:f9:57:b5, 2085-97-214 04:158:252:1391,0.581,-0.427,0.606,-367.31,-160.278,76.233,35.876,28.911,-129.38
 15:26:13.033,eb:33:2e:f9:57:b5, 2085-97-123 04:241:252:1732,0.55,-0.411,0.778,-387.329,-166.992,77.637,31.954,27.12,-129.666
 15:26:13.033,eb:33:2e:f9:57:b5, 2085-97-78 04:105:253:1988,0.518,-0.353,0.912,-399.902,-175.415,80.2,27.916,25.225,-129.836
 15:26:13.033,eb:33:2e:f9:57:b5, 2085-97-255 03:187:253:2168,0.496,-0.299,1.011,-406.982,-186.401,83.618,23.862,23.236,-129.864
 15:26:13.093,eb:33:2e:f9:57:b5, 2085-97-155 02:63:252:3171,0.107,-0.282,1.132,-409.424,-200.928,88.44,19.792,21.105,-129.754
 15:26:13.093,eb:33:2e:f9:57:b5, 2085-97-230 03:250:253:2702,0.539,-0.463,1.551,-412.048,-181.458,112.976,15.831,18.979,-129.326
 15:26:13.093,eb:33:2e:f9:57:b5, 2085-113-81 00:11:53:5534,0.495,-0.116,1.449,-395.325,-211.975,115.967,11.953,16.782,-128.65
 15:26:13.093,eb:33:2e:f9:57:b5, 2085-97-00 04:251:254:3506,0.485,-0.125,1.548,-380.859,-219.177,118.469,10.129,15.612,-128.243
 15:26:13.122,eb:33:2e:f9:57:b5, 2085-97-189 03:76:00:4017,0.481,-0.043,1.834,-344.604,-234.619,125.488,6.746,13.2,-127.304
 15:26:13.122,eb:33:2e:f9:57:b5, 2085-97-229 03:35:01:4535,0.478,0.081,2.113,-309.082,-241.638,130.249,3.691,10.69,-126.194
 15:26:13.122,eb:33:2e:f9:57:b5, 2085-97-193 03:181:02:4758,0.491,0.235,2.277,-281.433,-244.934,133.667,0.967,8.24,-124.915
 15:26:13.122,eb:33:2e:f9:57:b5, 2085-97-101 04:51:04:4992,0.59,0.438,2.356,-280.762,-254.822,130.127,-1.675,5.74,-123.536
 15:26:13.154,eb:33:2e:f9:57:b5, 2085-97-190 04:196:05:5483,0.596,0.625,2.558,-306.824,-253.235,128.967,-4.515,3.29,-122.069
 15:26:13.154,eb:33:2e:f9:57:b5, 2085-97-167 04:49:08:6294,0.536,0.838,2.842,-321.35,-246.643,123.291,-7.668,0.945,-120.515
 15:26:13.154,eb:33:2e:f9:57:b5, 2085-97-189 03:125:13:6462,0.41,1.332,3.201,-303.04,-234.131,104.797,-10.822,-1.208,-118.96
 15:26:13.154,eb:33:2e:f9:57:b5, 2085-97-173 02:107:17:5841,0.197,1.973,3,-275.391,-241.089,58.289,-13.771,-3.334,-117.636
 15:26:13.182,eb:33:2e:f9:57:b5, 2085-97-128 255:143:20:5160,-0.294,2.367,2.694,-259.705,-262.817,9.033,-16.518,-5.669,-116.636
 15:26:13.182,eb:33:2e:f9:57:b5, 2085-97-57 252:143:21:4942,-0.603,2.666,2.436,-237.549,-300.293,-49.622,-19.111,-8.465,-115.944
 15:26:13.182,eb:33:2e:f9:57:b5, 2085-97-21 250:146:22:4905,-0.869,2.72,2.409,-214.6,-294.006,-83.069,-21.429,-11.536,-115.51
 15:26:13.182,eb:33:2e:f9:57:b5, 2085-97-239 247:56:25:5013,-1.172,2.973,2.408,-202.209,-248.718,-97.229,-23.566,-14.398,-115.269
 15:26:13.242,eb:33:2e:f9:57:b5, 2085-97-61 245:54:29:5138,-1.524,3.398,2.483,-171.692,-190.674,-112,-25.444,-16.809,-115.28
 15:26:13.242,eb:33:2e:f9:57:b5, 2085-97-63 242:198:31:4893,-1.939,3.853,2.472,-108.459,-131.348,-134.583,-26.708,-18.781,-115.697
 15:26:13.242,eb:33:2e:f9:57:b5, 2085-97-239 238:234:30:4531,-2.276,3.976,2.31,-17.517,-85.571,-155.029,-27.01,-20.396,-116.554
 15:26:13.242,eb:33:2e:f9:57:b5, 2085-97-36 237:87:27:4081,-1.5,3.668,2.093,66.772,-53.101,-156.494,-26.257,-21.725,-117.729
 15:26:13.273,eb:33:2e:f9:57:b5, 2085-97-144 222:249:230:11213,-4.447,1.339,5.006,89.6,-5.493,-205.75,-24.829,-22.917,-119.086
 15:26:13.273,eb:33:2e:f9:57:b5, 2085-97-209 251:69:247:-4209,2.26,-0.989,2.228,148.071,446.472,176.636,-23.214,-18.353,-119.515
 15:26:13.273,eb:33:2e:f9:57:b5, 2085-97-79 21:244:227:2634,1.8,-2.367,-1.084,108.093,201.965,130.615,-22.115,-15.057,-119.46
 15:26:13.273,eb:33:2e:f9:57:b5, 2085-97-195 04:110:243:3266,-0.469,-3.324,1.816,274.536,219.055,156.616,-20.336,-12.678,-118.9
 15:26:13.305,eb:33:2e:f9:57:b5, 2085-97-193 247:222:15:3650,-1.39,0.57,1.438,354.309,218.994,124.084,-17.084,-10.031,-118.251
 15:26:13.305,eb:33:2e:f9:57:b5, 2085-97-124 241:100:07:4003,-0.928,1.665,1.932,303.345,221.375,74.829,-13.81,-7.696,-117.982
 15:26:13.305,eb:33:2e:f9:57:b5, 2085-97-169 251:205:02:2493,-0.529,0.296,1.874,318.604,177.734,19.531,-10.723,-5.927,-118.004
 15:26:13.305,eb:33:2e:f9:57:b5, 2085-97-238 252:37:03:2734,-0.384,0.439,0.902,281.738,42.908,-43.274,-7.679,-4.856,-118.35
 15:26:13.362,eb:33:2e:f9:57:b5, 2085-97-178 253:129:01:2056,-0.025,0.548,1.022,251.892,64.453,-49.011,-4.949,-4.334,-118.922
 15:26:13.362,eb:33:2e:f9:57:b5, 2085-97-13 00:218:249:2156,1.067,-0.307,1.108,234.009,49.438,-31.494,-2.483,-3.845,-119.427
 15:26:13.363,eb:33:2e:f9:57:b5, 2085-97-17 06:144:10:4113,0.363,0.939,1.253,148.743,-25.635,-2.319,-0.654,-3.801,-119.564
 15:26:13.363,eb:33:2e:f9:57:b5, 2085-97-71 253:11:04:1345,-0.675,0.896,1.356,66.284,134.827,29.785,0.379,-3.224,-119.46
 15:26:13.392,eb:33:2e:f9:57:b5, 2085-97-173 251:158:255:1207,-0.323,0.255,0.5,32.288,102.478,14.587,0.78,-1.868,-119.196
 15:26:13.392,eb:33:2e:f9:57:b5, 2085-97-49 255:190:02:1769,0.058,0.144,0.739,29.663,45.776,8.057,1.104,-1.192,-119.081
 15:26:13.392,eb:33:2e:f9:57:b5, 2085-97-95 00:155:00:2162,-0.126,0.209,1.035,12.695,52.856,4.944,1.302,-0.764,-119.042
 15:26:13.392,eb:33:2e:f9:57:b5, 2085-97-14 254:114:00:1639,-0.276,0.042,0.904,10.498,59.082,7.568,1.423,-0.132,-118.965
 15:26:13.422,eb:33:2e:f9:57:b5, 2085-97-158 254:98:00:1849,-0.131,0.062,0.79,10.01,15.259,-0.732,1.527,0.22,-118.932
 15:26:13.422,eb:33:2e:f9:57:b5, 2085-97-54 255:37:00:2034,-0.039,0.033,0.95,9.644,0.366,-3.418,1.637,0.286,-118.954
 15:26:13.422,eb:33:2e:f9:57:b5, 2085-97-199 255:26:00:2150,-0.039,0.019,1.042,10.376,-4.456,-4.883,1.736,0.253,-118.998
 15:26:13.422,eb:33:2e:f9:57:b5, 2085-97-156 255:233:255:2144,-0.078,0.012,1.045,11.169,-4.028,-5.432,1.857,0.225,-119.042
 15:26:13.483,eb:33:2e:f9:57:b5, 2085-97-121 255:18:00:2087,-0.019,0,1.027,11.414,-5.127,-1.099,1.978,0.181,-119.081
 15:26:13.483,eb:33:2e:f9:57:b5, 2085-97-14 00:00:00:2134,0.019,0.002,1.038,11.353,-4.517,0.183,2.104,0.132,-119.086
 15:26:13.483,eb:33:2e:f9:57:b5, 2085-97-95 00:78:00:2136,0.095,0.014,1.039,12.695,-4.944,1.221,2.225,0.088,-119.075
 15:26:13.483,eb:33:2e:f9:57:b5, 2085-97-23 01:122:00:2168,0.131,0.052,1.049,11.23,-3.052,0.549,2.362,0.049,-119.07
 15:26:13.513,eb:33:2e:f9:57:b5, 2085-97-31 01:212:00:2149,0.161,0.073,1.057,8.85,6.226,-0.305,2.461,0.066,-119.07
 15:26:13.513,eb:33:2e:f9:57:b5, 2085-97-31 01:195:00:2112,0.057,0.125,1.039,3.357,18.188,-3.235,2.538,0.198,-119.081
 15:26:13.513,eb:33:2e:f9:57:b5, 2085-97-204 255:142:00:1955,-0.031,0.075,0.996,-0.244,28.87,-3.662,2.543,0.45,-119.108
 15:26:13.513,eb:33:2e:f9:57:b5, 2085-97-205 255:23:00:2025,-0.059,0.039,0.957,-1.282,24.597,-7.263,2.549,0.731,-119.158
 15:26:13.602,eb:33:2e:f9:57:b5, 2085-97-120 255:89:00:1940,-0.06,0.034,0.963,-0.061,23.193,-7.446,2.543,0.978,-119.224
 15:26:13.602,eb:33:2e:f9:57:b5, 2085-97-75 255:237:255:1993,-0.064,0.004,0.978,1.404,18.799,-8.057,2.56,1.192,-119.301
 15:26:13.602,eb:33:2e:f9:57:b5, 2085-97-13 00:107:00:2057,-0.015,0.048,0.968,2.808,14.465,-9.155,2.587,1.362,-119.372
 15:26:13.602,eb:33:2e:f9:57:b5, 2085-97-128 255:105:00:1955,0.003,0.043,0.969,-4.272,19.714,-10.498,2.593,1.544,-119.471
 15:26:13.602,eb:33:2e:f9:57:b5, 2085-97-246 255:245:255:2190,-0.054,0.021,1.033,-3.54,18.25,-12.146,2.538,1.719,-119.597
 15:26:13.604,eb:33:2e:f9:57:b5, 2085-113-58 00:166:225:-6495,0,0.078,0.931,-2.991,19.897,-12.451,2.527,1.945,-119.696
 15:26:13.604,eb:33:2e:f9:57:b5, 2085-97-235 255:156:00:1949,-0.015,0.027,1.031,-1.831,21.545,-13.062,2.516,2.043,-119.762
 15:26:13.604,eb:33:2e:f9:57:b5, 2085-97-42 00:251:01:1495,0.035,0.131,0.921,-9.277,23.987,-21.423,2.477,2.285,-119.905
 15:26:13.604,eb:33:2e:f9:57:b5, 2085-97-137 01:181:255:2658,-0.002,0.139,0.999,-26.55,23.071,-30.518,2.241,2.549,-120.174
 15:26:13.634,eb:33:2e:f9:57:b5, 2085-97-135 255:130:00:2070,0.052,0.118,0.91,-21.362,48.828,-20.447,2.038,2.999,-120.394
 15:26:13.634,eb:33:2e:f9:57:b5, 2085-97-38 00:171:00:1989,0.052,0.065,1.038,-21.057,51.392,-20.569,1.818,3.461,-120.619
 15:26:13.634,eb:33:2e:f9:57:b5, 2085-97-37 00:242:255:2323,0.019,0.103,0.999,-22.034,49.744,-19.714,1.599,3.966,-120.8
 15:26:13.634,eb:33:2e:f9:57:b5, 2085-97-215 255:00:00:2535,-0.047,-0.049,1.185,-8.24,44.8,-11.108,1.428,4.449,-120.959
 15:26:13.693,eb:33:2e:f9:57:b5, 2085-97-115 255:50:251:4539,-0.227,-0.305,1.939,24.109,29.236,-5.188,1.516,4.779,-121.064
 15:26:13.693,eb:33:2e:f9:57:b5, 2085-97-61 254:03:255:2307,-0.158,-0.45,1.724,57.312,49.744,50.232,1.983,5.224,-120.767
 15:26:13.693,eb:33:2e:f9:57:b5, 2085-97-94 254:156:255:2127,-0.283,0.025,0.945,75.317,9.277,47.729,2.719,5.51,-120.251
 15:26:13.693,eb:33:2e:f9:57:b5, 2085-97-63 253:11:254:2622,-0.299,-0.189,1.201,87.219,-19.104,50.11,3.582,5.405,-119.773
 15:26:13.722,eb:33:2e:f9:57:b5, 2085-97-75 254:05:255:2601,-0.119,-0.184,1.271,101.013,-40.222,50.537,4.581,5.092,-119.262
 15:26:13.722,eb:33:2e:f9:57:b5, 2085-97-209 255:28:255:2981,0.028,-0.083,1.331,112.61,-61.523,31.982,5.685,4.532,-118.889
 15:26:13.722,eb:33:2e:f9:57:b5, 2085-97-170 00:46:255:3225,0.103,-0.092,1.551,124.695,-63.599,12.939,6.899,3.878,-118.735
 15:26:13.722,eb:33:2e:f9:57:b5, 2085-97-140 00:217:254:3428,0.02,-0.117,1.599,141.174,-63.293,-5.432,8.234,3.246,-118.773
 15:26:13.753,eb:33:2e:f9:57:b5, 2085-97-47 00:44:254:3562,0.031,-0.18,1.742,162.109,-57.861,-24.353,9.756,2.675,-119.026
 15:26:13.753,eb:33:2e:f9:57:b5, 2085-97-131 00:19:254:3723,0.152,-0.247,1.768,185.486,-53.101,-35.156,11.492,2.181,-119.421
 15:26:13.753,eb:33:2e:f9:57:b5, 2085-97-38 02:06:255:3812,0.419,-0.173,1.866,213.806,-42.419,-44.617,13.497,1.796,-119.91
 15:26:13.753,eb:33:2e:f9:57:b5, 2085-97-38 04:10:254:4042,0.604,-0.133,1.876,243.896,-30.151,-61.096,15.787,1.582,-120.515
 15:26:13.813,eb:33:2e:f9:57:b5, 2085-97-191 05:226:253:4336,0.853,-0.296,2.088,273.254,2.869,-74.341,18.386,1.642,-121.212
 15:26:13.813,eb:33:2e:f9:57:b5, 2085-97-160 07:100:00:4554,1.142,-0.157,2.141,299.988,47.119,-86.731,21.253,2.159,-121.888
 15:26:13.813,eb:33:2e:f9:57:b5, 2085-97-47 10:91:00:4131,1.231,0.111,2.12,337.524,83.618,-114.319,24.428,3.192,-122.552
 15:26:13.813,eb:33:2e:f9:57:b5, 2085-97-179 07:184:254:4742,0.597,-0.126,2.088,370.483,111.511,-144.287,27.944,4.642,-123.344
 15:26:13.842,eb:33:2e:f9:57:b5, 2085-97-60 03:231:255:6627,0.545,-0.101,2.832,389.099,169.006,-141.846,31.707,6.57,-123.948
 15:26:13.842,eb:33:2e:f9:57:b5, 2085-97-129 06:67:253:6512,1.087,-0.065,3.305,404.724,236.084,-113.098,35.728,8.976,-123.882
 15:26:13.842,eb:33:2e:f9:57:b5, 2085-97-30 09:175:00:5337,0.803,-0.15,3.008,402.771,292.419,-84.534,39.93,11.695,-123.008
 15:26:13.842,eb:33:2e:f9:57:b5, 2085-97-163 05:140:00:5257,0.962,0.222,2.476,410.583,307.373,-81.665,44.319,14.535,-121.558
 15:26:13.873,eb:33:2e:f9:57:b5, 2085-97-200 10:146:254:6416,1.398,-0.034,2.896,403.32,282.227,-123.779,48.801,17.271,-120.053
 15:26:13.873,eb:33:2e:f9:57:b5, 2085-97-61 17:128:250:8391,3.936,0.001,3.489,382.141,259.399,-253.174,53.02,20.424,-119.141
 15:26:13.873,eb:33:2e:f9:57:b5, 2085-97-238 23:163:234:8277,0.334,-2.306,5.723,429.321,317.2,-307.251,57.052,24.478,-118.9
 15:26:13.873,eb:33:2e:f9:57:b5, 2085-97-30 03:56:251:-5371,0.326,-0.154,-0.285,354.858,257.935,-290.222,62.106,28.317,-117.169
 15:26:13.932,eb:33:2e:f9:57:b5, 2085-97-117 02:246:246:-5165,0.35,-1.271,-2.368,135.193,59.326,-212.036,64.336,31.234,-117.378
 15:26:13.932,eb:33:2e:f9:57:b5, 2085-97-117 05:191:245:-339,0.698,-1.093,-1.788,-85.449,-40.771,-152.405,63.99,32.833,-118.18
 15:26:13.932,eb:33:2e:f9:57:b5, 2085-97-118 04:171:244:3118,0.487,-1.363,0.916,-199.89,-28.442,-99.182,61.787,33.712,-119.333
 15:26:13.932,eb:33:2e:f9:57:b5, 2085-97-178 03:88:244:3667,0.496,-1.506,1.83,-223.328,31.555,-55.969,59.365,34.382,-119.762
 15:26:13.962,eb:33:2e:f9:57:b5, 2085-97-207 03:216:246:1819,0.444,-1.301,1.425,-205.566,75.5,-15.076,57.426,34.969,-119.366
 15:26:13.962,eb:33:2e:f9:57:b5, 2085-97-196 03:146:249:-202,0.482,-0.949,0.319,-189.514,52.307,9.338,55.871,35.359,-118.663
 15:26:13.962,eb:33:2e:f9:57:b5, 2085-97-215 03:224:250:-1003,0.523,-0.701,-0.371,-187.5,-22.644,15.32,54.119,35.31,-118.438
 15:26:13.962,eb:33:2e:f9:57:b5, 2085-97-167 04:230:250:-442,0.607,-0.623,-0.414,-198.242,-111.694,12.817,51.855,34.755,-119.031
 15:26:13.993,eb:33:2e:f9:57:b5, 2085-97-01 05:141:250:275,0.631,-0.668,-0.018,-217.468,-170.227,11.353,49.054,33.701,-120.3
 15:26:13.994,eb:33:2e:f9:57:b5, 2085-97-217 04:41:250:885,0.557,-0.688,0.264,-243.042,-195.862,15.503,45.934,32.322,-121.794
 15:26:13.994,eb:33:2e:f9:57:b5, 2085-97-236 03:07:250:1331,0.422,-0.746,0.577,-265.869,-201.05,23.01,42.61,30.723,-123.25
 15:26:13.994,eb:33:2e:f9:57:b5, 2085-97-12 03:18:250:1379,0.325,-0.744,0.659,-288.147,-196.899,36.316,39.243,29.009,-124.448
 15:26:14.085,eb:33:2e:f9:57:b5, 2085-97-96 02:127:250:1368,0.275,-0.717,0.66,-308.533,-198.486,48.462,35.793,27.164,-125.398
 15:26:14.085,eb:33:2e:f9:57:b5, 2085-97-23 02:204:250:1495,0.253,-0.666,0.691,-329.773,-204.834,62.561,32.283,25.164,-126.101
 15:26:14.085,eb:33:2e:f9:57:b5, 2085-97-12 02:226:250:1789,0.264,-0.643,0.79,-346.802,-214.844,75.012,28.674,22.983,-126.584
 15:26:14.085,eb:33:2e:f9:57:b5, 2085-97-54 02:42:251:2152,0.268,-0.625,0.974,-355.591,-225.525,87.708,25.06,20.643,-126.837
 15:26:14.085,eb:33:2e:f9:57:b5, 2085-97-89 253:198:247:4503,-0.078,-0.6,1.184,-355.774,-236.389,96.252,21.467,18.133,-126.87
 15:26:14.085,eb:33:2e:f9:57:b5, 2085-97-160 04:230:252:2675,0.377,-0.597,0.675,-370.422,-221.863,111.084,17.952,15.886,-126.348
 15:26:14.085,eb:33:2e:f9:57:b5, 2085-97-111 03:95:252:2828,0.456,-0.292,1.14,-363.342,-255.371,111.877,14.392,13.217,-125.876
 15:26:14.085,eb:33:2e:f9:57:b5, 2085-97-85 03:203:253:3477,0.431,-0.38,1.496,-347.656,-276.184,107.422,10.937,10.404,-125.332
 15:26:14.113,eb:33:2e:f9:57:b5, 2085-97-82 03:128:254:4728,0.358,-0.258,2.03,-325.073,-286.011,97.229,7.641,7.41,-124.755
 15:26:14.113,eb:33:2e:f9:57:b5, 2085-97-107 02:217:00:5248,0.254,-0.044,2.484,-300.415,-268.372,89.172,4.598,4.576,-124.074
 15:26:14.113,eb:33:2e:f9:57:b5, 2085-97-154 01:111:02:5089,0.155,0.222,2.55,-292.419,-259.399,74.28,1.67,1.901,-123.371
 15:26:14.113,eb:33:2e:f9:57:b5, 2085-97-06 01:119:03:4965,0.12,0.371,2.407,-313.721,-260.62,64.026,-1.346,-0.67,-122.662
 15:26:14.173,eb:33:2e:f9:57:b5, 2085-97-234 00:41:05:5944,0.07,0.519,2.596,-336.243,-281.372,54.626,-4.68,-3.356,-121.888
 15:26:14.173,eb:33:2e:f9:57:b5, 2085-97-222 255:93:08:7069,-0.126,0.822,3.239,-332.153,-287.354,42.053,-8.119,-6.152,-121.042
 15:26:14.173,eb:33:2e:f9:57:b5, 2085-97-15 254:182:12:7120,-0.387,1.298,3.533,-308.228,-260.315,29.602,-11.459,-8.8,-120.185
 15:26:14.173,eb:33:2e:f9:57:b5, 2085-97-173 251:214:17:6201,-0.679,1.918,3.283,-288.208,-233.032,19.897,-14.568,-11.102,-119.35
 15:26:14.233,eb:33:2e:f9:57:b5, 2085-97-56 249:225:20:5705,-1,2.426,2.872,-274.78,-241.272,2.197,-17.578,-13.332,-118.542
 15:26:14.233,eb:33:2e:f9:57:b5, 2085-97-252 246:101:24:6209,-1.26,2.812,2.838,-236.206,-260.559,-22.095,-20.352,-15.754,-117.751
 15:26:14.233,eb:33:2e:f9:57:b5, 2085-97-47 245:251:29:6176,-1.47,3.389,3.132,-156.555,-212.769,-43.518,-22.5,-18.127,-117.125
 15:26:14.233,eb:33:2e:f9:57:b5, 2085-97-67 242:149:35:4460,-1.923,4.094,2.66,-76.782,-139.465,-62.988,-23.67,-19.891,-116.922
 15:26:14.235,eb:33:2e:f9:57:b5, 2085-97-82 239:93:38:3334,-2.242,4.736,1.766,-16.174,-120.361,-96.497,-24.027,-21.363,-117.136
 15:26:14.235,eb:33:2e:f9:57:b5, 2085-97-212 238:230:33:4408,-4.072,4.668,1.641,34.729,-116.699,-123.23,-23.703,-22.912,-117.697
 15:26:14.235,eb:33:2e:f9:57:b5, 2085-97-95 226:97:29:8667,-2.763,-0.749,10.785,185.852,291.382,169.8,-22.462,-23.39,-118.328
 15:26:14.235,eb:33:2e:f9:57:b5, 2085-97-189 250:162:09:-2797,1.477,2.187,1.472,169.983,384.033,60.486,-20.303,-19.111,-119.13
 15:26:14.293,eb:33:2e:f9:57:b5, 2085-97-124 16:173:231:4207,2.197,-1.456,-0.121,98.694,161.499,18.25,-18.875,-16.809,-119.855
 15:26:14.293,eb:33:2e:f9:57:b5, 2085-97-116 14:173:239:4363,0.577,-3.719,2.5,254.211,274.841,93.933,-17.056,-14.562,-120.009
 15:26:14.293,eb:33:2e:f9:57:b5, 2085-97-29 250:27:11:3898,-2.1,-0.124,1.886,341.309,326.416,66.528,-13.876,-11.365,-120.075
 15:26:14.293,eb:33:2e:f9:57:b5, 2085-97-30 235:38:13:801,-1.734,1.363,1.961,328.247,325.317,53.711,-10.519,-8.026,-120.3
 15:26:14.323,eb:33:2e:f9:57:b5, 2085-97-55 250:72:01:1488,-0.052,0.521,0.914,317.627,132.446,0.61,-7.339,-5.812,-120.531
 15:26:14.323,eb:33:2e:f9:57:b5, 2085-97-21 01:138:250:2171,1.046,0.393,1.112,257.324,26.123,-69.397,-4.356,-5.026,-120.981
 15:26:14.323,eb:33:2e:f9:57:b5, 2085-97-82 01:24:08:3739,0.009,0.723,1.802,195.74,9.155,-34.058,-2.071,-5.142,-121.465
 15:26:14.323,eb:33:2e:f9:57:b5, 2085-97-246 255:43:05:2095,0.008,1.055,1.257,117.554,90.637,19.165,-0.505,-4.537,-121.52
 15:26:14.352,eb:33:2e:f9:57:b5, 2085-97-91 254:216:01:1355,-0.527,0.578,0.781,47.607,103.76,31.616,0.22,-3.433,-121.174
 15:26:14.352,eb:33:2e:f9:57:b5, 2085-97-252 249:07:00:988,-0.412,0.01,0.687,41.87,87.219,7.08,0.626,-2.521,-121.036
 15:26:14.352,eb:33:2e:f9:57:b5, 2085-97-220 00:55:03:2004,0.162,0.333,0.607,28.381,7.263,1.404,1.011,-2.071,-120.987
 15:26:14.352,eb:33:2e:f9:57:b5, 2085-97-69 00:123:00:2146,-0.162,0.15,1.121,10.376,20.996,-3.174,1.181,-2.005,-121.036
 15:26:14.444,eb:33:2e:f9:57:b5, 2085-97-185 253:20:00:1636,-0.242,0.045,0.896,8.24,37.231,-0.061,1.285,-1.653,-121.053
 15:26:14.444,eb:33:2e:f9:57:b5, 2085-113-58 00:41:230:-6915,-0.088,0.027,0.8,7.629,8.545,-0.61,1.368,-1.417,-121.042
 15:26:14.444,eb:33:2e:f9:57:b5, 2085-97-134 00:134:00:2168,0.073,0.047,0.918,6.47,-5.066,-3.662,1.401,-1.423,-121.058
 15:26:14.444,eb:33:2e:f9:57:b5, 2085-97-244 255:02:00:2150,-0.059,0.042,1.086,5.188,8.057,-2.808,1.472,-1.406,-121.097
 15:26:14.472,eb:33:2e:f9:57:b5, 2085-97-108 255:230:255:2041,-0.04,-0.019,1.021,7.385,6.226,-1.648,1.538,-1.318,-121.119
 15:26:14.472,eb:33:2e:f9:57:b5, 2085-97-38 00:68:00:2132,0.042,0.012,1.002,9.216,-3.235,-3.601,1.642,-1.307,-121.146
 15:26:14.472,eb:33:2e:f9:57:b5, 2085-97-65 00:112:00:2061,0.054,0.035,1.057,6.836,0.793,-0.977,1.719,-1.324,-121.174
 15:26:14.472,eb:33:2e:f9:57:b5, 2085-97-253 255:13:00:2099,-0.032,-0.009,1.09,5.127,8.362,1.587,1.796,-1.296,-121.185
 15:26:14.475,eb:33:2e:f9:57:b5, 2085-97-51 00:33:00:2081,0.05,0.006,0.995,5.371,4.944,1.465,1.846,-1.214,-121.163
 15:26:14.475,eb:33:2e:f9:57:b5, 2085-97-126 00:97:00:2081,0.054,0.029,1.019,4.272,5.981,1.953,1.912,-1.159,-121.146
 15:26:14.475,eb:33:2e:f9:57:b5, 2085-97-144 00:148:00:2050,0.122,0.056,1.004,2.991,8.972,2.441,1.945,-1.077,-121.124
 15:26:14.475,eb:33:2e:f9:57:b5, 2085-97-24 01:93:00:2194,0.123,0.068,1.046,0.916,11.597,0.183,1.978,-0.978,-121.113
 15:26:14.532,eb:33:2e:f9:57:b5, 2085-97-223 00:93:00:2163,0.066,0.043,1.069,-0.427,21.362,1.038,1.983,-0.807,-121.108
 15:26:14.532,eb:33:2e:f9:57:b5, 2085-97-50 00:74:00:2020,-0.016,0.023,1.035,-1.465,26.917,0.671,1.983,-0.544,-121.091
 15:26:14.532,eb:33:2e:f9:57:b5, 2085-97-178 255:68:00:1930,-0.056,0.019,0.982,-1.221,24.597,-1.465,1.967,-0.286,-121.097
 15:26:14.532,eb:33:2e:f9:57:b5, 2085-97-100 255:122:00:1824,-0.022,0.025,0.935,-4.822,20.874,-4.333,1.956,-0.055,-121.124
 15:26:14.593,eb:33:2e:f9:57:b5, 2085-97-184 255:208:255:2077,-0.082,0.046,0.925,-7.874,13.916,-8.545,1.884,0.11,-121.196
 15:26:14.593,eb:33:2e:f9:57:b5, 2085-97-120 255:24:00:1981,-0.008,0.03,0.912,-6.958,13.062,-7.629,1.835,0.264,-121.262
 15:26:14.593,eb:33:2e:f9:57:b5, 2085-97-250 255:53:00:2006,-0.267,0.047,0.967,-6.714,10.071,-8.24,1.769,0.357,-121.339
 15:26:14.593,eb:33:2e:f9:57:b5, 2085-97-222 03:34:00:2699,0.541,0.097,0.682,10.071,-63.721,-44.678,1.747,0.264,-121.41
 15:26:14.593,eb:33:2e:f9:57:b5, 2085-97-141 254:00:01:1758,-0.174,0.23,1.035,-31.738,69.885,31.006,1.631,0.417,-121.635
 15:26:14.593,eb:33:2e:f9:57:b5, 2085-97-136 00:161:00:1990,0.084,-0.015,0.902,-15.747,16.235,-18.005,1.428,0.791,-121.685
 15:26:14.593,eb:33:2e:f9:57:b5, 2085-97-32 00:229:255:2209,0.047,-0.014,1.13,-16.174,28.076,-17.334,1.252,1.011,-121.882
 15:26:14.593,eb:33:2e:f9:57:b5, 2085-97-168 00:44:00:2255,0.037,0.085,0.988,-12.695,29.907,-25.513,1.132,1.318,-122.097
 15:26:14.652,eb:33:2e:f9:57:b5, 2085-97-101 00:103:00:2107,0.091,0.071,0.995,-12.146,39.795,-25.269,1.011,1.692,-122.338
 15:26:14.652,eb:33:2e:f9:57:b5, 2085-97-36 01:233:00:2151,0.082,0.059,1.097,-9.277,46.143,-30.762,0.901,2.12,-122.618
 15:26:14.652,eb:33:2e:f9:57:b5, 2085-97-254 255:110:255:2726,-0.065,0.041,1.154,-6.775,59.937,-30.762,0.818,2.648,-122.937
 15:26:14.652,eb:33:2e:f9:57:b5, 2085-97-94 255:138:255:2128,-0.102,-0.107,1.22,2.991,73.303,-17.578,0.802,3.356,-123.19
 15:26:14.683,eb:33:2e:f9:57:b5, 2085-97-150 255:117:254:3083,-0.05,-0.007,1.042,13.489,52.551,-11.23,0.873,4.005,-123.316
 15:26:14.683,eb:33:2e:f9:57:b5, 2085-97-65 255:139:253:3220,-0.11,-0.376,1.773,34.79,58.105,19.531,1.126,4.548,-123.3
 15:26:14.683,eb:33:2e:f9:57:b5, 2085-97-34 255:29:255:2520,-0.157,-0.151,1.285,59.937,43.091,40.771,1.642,5.092,-122.948
 15:26:14.683,eb:33:2e:f9:57:b5, 2085-97-40 254:219:253:2848,-0.266,-0.174,1.314,76.294,19.531,54.626,2.39,5.383,-122.465
 15:26:14.712,eb:33:2e:f9:57:b5, 2085-97-88 254:49:254:2893,-0.155,-0.251,1.383,93.75,0.732,66.589,3.301,5.455,-121.827
 15:26:14.712,eb:33:2e:f9:57:b5, 2085-97-212 254:152:254:2978,-0.184,-0.189,1.43,112.732,-18.982,62.073,4.411,5.328,-121.174
 15:26:14.712,eb:33:2e:f9:57:b5, 2085-97-21 254:159:253:3243,-0.274,-0.198,1.502,130.188,-40.466,41.504,5.674,4.988,-120.685
 15:26:14.712,eb:33:2e:f9:57:b5, 2085-97-71 254:157:253:3460,-0.128,-0.309,1.661,151.123,-58.35,18.494,7.125,4.466,-120.432
 15:26:14.774,eb:33:2e:f9:57:b5, 2085-97-197 255:162:253:3661,-0.006,-0.296,1.677,175.964,-80.566,-4.944,8.767,3.757,-120.465
 15:26:14.774,eb:33:2e:f9:57:b5, 2085-97-145 00:55:253:3949,0.185,-0.326,1.867,209.29,-91.125,-30.945,10.712,2.922,-120.795
 15:26:14.774,eb:33:2e:f9:57:b5, 2085-97-148 02:102:254:4313,0.499,-0.297,2.029,242.92,-88.013,-52.185,12.964,2.115,-121.393
 15:26:14.774,eb:33:2e:f9:57:b5, 2085-97-80 05:126:254:4474,0.792,-0.164,2.164,284.607,-71.96,-76.416,15.612,1.489,-122.206
 15:26:14.803,eb:33:2e:f9:57:b5, 2085-97-32 07:134:252:4774,0.995,-0.352,2.199,320.19,-30.457,-100.708,18.649,1.241,-123.223
 15:26:14.803,eb:33:2e:f9:57:b5, 2085-97-94 08:141:254:4820,1.108,-0.338,2.276,351.074,33.264,-113.953,22.011,1.653,-124.211
 15:26:14.803,eb:33:2e:f9:57:b5, 2085-97-76 09:89:254:4714,1.113,0.002,2.38,389.099,87.769,-137.329,25.697,2.741,-125.112
 15:26:14.803,eb:33:2e:f9:57:b5, 2085-97-102 06:167:253:5370,0.407,-0.356,2.357,420.715,128.906,-153.198,29.751,4.367,-125.942
 15:26:14.833,eb:33:2e:f9:57:b5, 2085-97-252 02:187:00:6989,0.627,-0.012,3.019,445.374,194.519,-128.54,34.047,6.52,-126.321
