Time,Device name,Chip Time(),Acceleration X(g),Acceleration Y(g),Acceleration Z(g),Angular velocity X(°/s),Angular velocity Y(°/s),Angular velocity Z(°/s),Angle X(°),Angle Y(°),Angle Z(°)
 15:29:10.431,eb:33:2e:f9:57:b5, 2085-97-42 254:162:03:2740,-0.28,0.499,1.555,269.104,-19.836,-13.062,-8.767,-0.747,-117.762
 15:29:10.431,eb:33:2e:f9:57:b5, 2085-97-53 253:178:03:2061,-0.316,0.496,1.114,230.957,-22.766,-53.955,-6.251,-1.049,-118.07
 15:29:10.431,eb:33:2e:f9:57:b5, 2085-97-215 254:02:00:2018,0.053,0.3,0.97,203.247,-17.395,-86.182,-4.098,-1.291,-118.779
 15:29:10.431,eb:33:2e:f9:57:b5, 2085-97-178 01:171:01:2341,0.289,-0.251,1.017,196.35,-17.334,-80.872,-2.082,-1.549,-119.625
 15:29:10.462,eb:33:2e:f9:57:b5, 2085-97-47 07:84:06:3453,0.39,-0.644,1.022,143.677,-53.833,-22.583,-0.39,-1.928,-120.218
 15:29:10.462,eb:33:2e:f9:57:b5, 2085-97-40 255:193:04:1875,-0.399,0.927,1.667,88.562,46.448,6.836,0.736,-2.005,-120.295
 15:29:10.462,eb:33:2e:f9:57:b5, 2085-97-128 252:49:02:1481,-0.419,0.583,0.705,37.842,62.134,8.606,1.307,-1.346,-120.157
 15:29:10.462,eb:33:2e:f9:57:b5, 2085-97-220 253:27:01:1616,0.021,-0.108,0.771,32.654,19.47,-5.92,1.642,-0.978,-120.234
 15:29:10.492,eb:33:2e:f9:57:b5, 2085-97-128 00:242:00:2153,-0.018,0.232,0.988,20.63,-4.517,-13.367,1.917,-0.983,-120.333
 15:29:10.492,eb:33:2e:f9:57:b5, 2085-97-48 255:107:00:1858,-0.183,0.042,0.985,14.038,17.578,-3.601,2.082,-0.884,-120.405
 15:29:10.493,eb:33:2e:f9:57:b5, 2085-97-194 254:123:00:1869,-0.068,0.045,0.876,10.376,7.202,-5.31,2.203,-0.736,-120.443
 15:29:10.493,eb:33:2e:f9:57:b5, 2085-97-181 255:70:00:2090,-0.038,0.053,0.987,7.812,-2.869,-7.507,2.296,-0.742,-120.515
 15:29:10.551,eb:33:2e:f9:57:b5, 2085-97-160 255:12:00:2110,-0.069,0.023,1.024,6.836,-2.93,-6.775,2.373,-0.764,-120.586
 15:29:10.551,eb:33:2e:f9:57:b5, 2085-97-99 255:10:00:2011,-0.065,0.002,1.004,7.324,-5.615,-5.249,2.444,-0.802,-120.646
 15:29:10.551,eb:33:2e:f9:57:b5, 2085-97-174 255:65:00:2033,-0.011,0.016,0.978,8.179,-12.878,-5.554,2.527,-0.901,-120.701
 15:29:10.551,eb:33:2e:f9:57:b5, 2085-97-28 00:77:00:2118,0.025,0.041,1.011,7.08,-14.526,-5.31,2.604,-1.044,-120.762
 15:29:10.581,eb:33:2e:f9:57:b5, 2085-97-20 00:120:00:2071,0.009,0.04,1.034,5.493,-9.644,-3.54,2.67,-1.159,-120.811
 15:29:10.581,eb:33:2e:f9:57:b5, 2085-97-35 00:99:00:2072,0.03,0.05,1.006,3.601,-7.69,-2.38,2.714,-1.236,-120.839
 15:29:10.581,eb:33:2e:f9:57:b5, 2085-97-82 00:136:00:2099,0.071,0.051,1.037,2.563,-6.104,-2.258,2.747,-1.307,-120.866
 15:29:10.581,eb:33:2e:f9:57:b5, 2085-97-216 00:76:00:2173,0.123,0.059,1.054,0,-0.854,-0.916,2.758,-1.346,-120.883
 15:29:10.613,eb:33:2e:f9:57:b5, 2085-97-229 00:43:00:2136,0.086,0.018,1.078,-0.366,8.972,0.977,2.758,-1.307,-120.883
 15:29:10.613,eb:33:2e:f9:57:b5, 2085-97-222 00:36:00:2177,0.079,0.022,1.033,-0.305,10.62,-2.869,2.752,-1.208,-120.894
 15:29:10.613,eb:33:2e:f9:57:b5, 2085-97-139 00:251:255:2108,0.076,0.019,1.041,-0.793,19.348,-1.587,2.747,-1.038,-120.905
 15:29:10.613,eb:33:2e:f9:57:b5, 2085-97-147 00:24:00:2124,0.093,0.002,1.029,-0.183,22.339,-2.502,2.741,-0.835,-120.916
 15:29:10.671,eb:33:2e:f9:57:b5, 2085-97-103 255:247:255:1932,-0.041,0.013,1.038,-0.977,38.147,-3.601,2.736,-0.522,-120.938
 15:29:10.671,eb:33:2e:f9:57:b5, 2085-97-145 255:03:00:1977,-0.035,-0.008,0.965,1.465,24.109,-2.319,2.741,-0.225,-120.97
 15:29:10.671,eb:33:2e:f9:57:b5, 2085-97-219 255:45:00:2015,-0.058,0.012,0.979,3.113,19.409,-4.578,2.769,-0.022,-121.003
 15:29:10.671,eb:33:2e:f9:57:b5, 2085-97-217 255:196:255:2011,-0.103,0.029,0.966,4.395,21.912,-9.338,2.807,0.176,-121.047
 15:29:10.701,eb:33:2e:f9:57:b5, 2085-97-198 01:228:255:2449,0.036,0.038,0.87,7.019,-9.949,-18.738,2.862,0.291,-121.179
 15:29:10.701,eb:33:2e:f9:57:b5, 2085-97-152 254:166:00:1746,0.088,0.068,0.957,3.418,21.484,-8.179,2.895,0.489,-121.306
 15:29:10.701,eb:33:2e:f9:57:b5, 2085-97-135 00:209:255:2236,-0.005,0.034,1.074,2.747,17.456,-11.475,2.933,0.582,-121.443
 15:29:10.701,eb:33:2e:f9:57:b5, 2085-97-139 00:147:00:2081,-0.037,0.121,1.001,4.15,31.067,-10.864,2.966,0.873,-121.514
 15:29:10.731,eb:33:2e:f9:57:b5, 2085-97-217 255:37:00:2084,0.012,0.065,0.959,4.089,27.588,-15.747,3.005,1.187,-121.613
 15:29:10.731,eb:33:2e:f9:57:b5, 2085-97-218 255:60:00:2090,-0.07,0.026,1.022,5.432,31.738,-13,3.06,1.483,-121.756
 15:29:10.731,eb:33:2e:f9:57:b5, 2085-97-24 00:54:00:2146,-0.047,0.054,0.954,6.714,27.283,-17.09,3.12,1.802,-121.888
 15:29:10.731,eb:33:2e:f9:57:b5, 2085-97-08 255:83:00:1954,-0.069,0.055,0.973,6.958,35.767,-12.695,3.186,2.148,-122.003
 15:29:10.791,eb:33:2e:f9:57:b5, 2085-97-79 255:30:00:2064,-0.101,0.034,0.991,8.911,26.794,-17.029,3.268,2.444,-122.151
 15:29:10.791,eb:33:2e:f9:57:b5, 2085-97-106 255:86:00:2054,-0.022,0.021,1.005,9.949,23.987,-15.808,3.356,2.714,-122.3
 15:29:10.791,eb:33:2e:f9:57:b5, 2085-97-20 00:23:02:1407,0.164,0.079,0.979,6.042,25.757,-15.503,3.439,2.961,-122.448
 15:29:10.791,eb:33:2e:f9:57:b5, 2085-97-140 01:135:254:3059,-0.087,0.532,0.597,-24.719,9.766,-48.828,3.329,3.181,-122.745
 15:29:10.821,eb:33:2e:f9:57:b5, 2085-97-138 255:122:01:1555,0.01,-0.143,1.305,-11.353,48.279,-24.902,3.131,3.554,-123.041
 15:29:10.821,eb:33:2e:f9:57:b5, 2085-97-214 255:80:254:2873,-0.08,0.159,0.954,-18.982,28.381,-33.936,2.955,3.906,-123.344
 15:29:10.822,eb:33:2e:f9:57:b5, 2085-97-144 00:152:255:2779,0.093,-0.153,1.319,8.118,25.085,-15.32,2.867,4.274,-123.525
 15:29:10.822,eb:33:2e:f9:57:b5, 2085-97-205 255:117:250:5425,-0.197,-0.177,1.912,53.284,-7.69,-21.423,3.203,4.263,-123.734
 15:29:10.851,eb:33:2e:f9:57:b5, 2085-97-31 254:244:252:3291,-0.161,-0.846,2.415,78.003,71.167,67.444,3.878,4.631,-123.503
 15:29:10.851,eb:33:2e:f9:57:b5, 2085-97-213 254:91:00:2069,-0.165,-0.038,0.969,110.901,25.452,80.75,4.905,5.125,-122.646
 15:29:10.851,eb:33:2e:f9:57:b5, 2085-97-125 254:37:253:3421,-0.206,-0.188,1.449,129.639,-23.804,73.425,6.185,4.982,-121.943
 15:29:10.851,eb:33:2e:f9:57:b5, 2085-97-192 254:45:254:3342,-0.036,-0.276,1.693,148.804,-40.833,81.665,7.646,4.581,-121.141
 15:29:10.912,eb:33:2e:f9:57:b5, 2085-97-28 00:78:254:3742,0.03,-0.209,1.666,175.903,-69.58,41.931,9.316,3.939,-120.597
 15:29:10.912,eb:33:2e:f9:57:b5, 2085-97-10 00:118:253:4225,0.135,-0.34,1.955,206.543,-79.163,9.46,11.25,3.148,-120.498
 15:29:10.912,eb:33:2e:f9:57:b5, 2085-97-238 02:85:255:4091,0.456,-0.191,2.131,238.647,-70.374,-23.254,13.469,2.433,-120.734
 15:29:10.912,eb:33:2e:f9:57:b5, 2085-97-55 03:184:252:4137,0.267,-0.173,1.934,278.137,-68.42,-64.392,16.062,1.862,-121.349
 15:29:10.941,eb:33:2e:f9:57:b5, 2085-97-168 01:71:250:5196,0.282,-0.608,2.3,309.875,-28.137,-80.322,19.001,1.609,-122.234
 15:29:10.941,eb:33:2e:f9:57:b5, 2085-97-91 04:192:253:5186,0.891,-0.561,2.637,343.933,63.538,-55.481,22.253,2.01,-122.811
 15:29:10.941,eb:33:2e:f9:57:b5, 2085-97-21 06:23:255:4812,0.518,-0.223,2.227,382.935,93.567,-65.369,25.9,3.032,-123.014
 15:29:10.941,eb:33:2e:f9:57:b5, 2085-97-246 04:28:254:6766,0.66,-0.118,2.845,404.663,132.324,-74.646,29.844,4.351,-123.179
 15:29:10.972,eb:33:2e:f9:57:b5, 2085-97-164 06:203:250:6485,0.635,-0.241,3.422,411.987,230.896,-52.856,33.986,6.218,-122.767
 15:29:10.972,eb:33:2e:f9:57:b5, 2085-97-29 05:143:00:4978,0.727,-0.232,2.721,409.241,278.198,-36.682,38.243,8.58,-121.542
 15:29:10.973,eb:33:2e:f9:57:b5, 2085-97-195 05:79:255:5841,1.002,0.302,2.38,407.471,213.684,-97.412,42.512,10.92,-120.416
 15:29:10.973,eb:33:2e:f9:57:b5, 2085-97-108 08:49:244:7744,1.126,-1.014,3.504,409.302,157.166,-182.251,46.549,13.244,-120.355
 15:29:11.031,eb:33:2e:f9:57:b5, 2085-97-85 13:138:245:7943,2.833,-1.207,3.597,452.759,184.448,-208.13,50.872,15.853,-120.306
 15:29:11.031,eb:33:2e:f9:57:b5, 2085-97-19 22:254:235:7992,0.522,-1.941,4.918,537.781,240.295,-243.286,55.854,18.88,-120.185
 15:29:11.031,eb:33:2e:f9:57:b5, 2085-97-224 02:132:250:-1405,0.274,-0.883,0.707,545.105,147.522,-272.461,61.853,22.077,-119.301
 15:29:11.031,eb:33:2e:f9:57:b5, 2085-97-79 05:230:245:-1842,-0.014,-1.333,-0.533,382.019,-21.24,-258.484,65.989,24.857,-120.355
 15:29:11.060,eb:33:2e:f9:57:b5, 2085-97-253 254:91:250:-5969,0.225,-0.921,-2.068,139.221,-12.817,-158.325,68.071,26.609,-121.503
 15:29:11.060,eb:33:2e:f9:57:b5, 2085-97-29 03:128:245:-1275,0.477,-1.132,-2.06,-84.351,-70.496,-136.169,67.615,27.795,-122.668
 15:29:11.060,eb:33:2e:f9:57:b5, 2085-97-154 02:18:245:2499,0.056,-1.354,0.611,-199.829,-61.707,-102.844,65.424,28.592,-124.003
 15:29:11.060,eb:33:2e:f9:57:b5, 2085-97-53 00:111:245:2433,0.162,-1.377,1.314,-233.582,-15.747,-59.814,62.842,29.136,-124.733
 15:29:11.090,eb:33:2e:f9:57:b5, 2085-97-164 01:142:247:1178,0.184,-1.205,0.942,-233.948,-2.502,-28.625,60.331,29.465,-125.041
 15:29:11.090,eb:33:2e:f9:57:b5, 2085-97-120 01:124:249:106,0.279,-0.917,0.243,-238.708,-24.109,-9.155,57.87,29.542,-125.255
 15:29:11.090,eb:33:2e:f9:57:b5, 2085-97-196 02:18:251:087,0.389,-0.732,0.035,-254.15,-60.486,-5.737,55.157,29.339,-125.739
 15:29:11.090,eb:33:2e:f9:57:b5, 2085-97-116 03:198:251:352,0.452,-0.552,0.09,-280.823,-94.116,-9.766,52.097,28.911,-126.508
 15:29:11.152,eb:33:2e:f9:57:b5, 2085-97-133 03:192:251:600,0.458,-0.529,0.248,-302.368,-119.568,-18.433,48.647,28.312,-127.562
 15:29:11.152,eb:33:2e:f9:57:b5, 2085-113-58 00:205:231:-9795,0.439,-0.523,0.379,-316.04,-142.517,-29.297,44.962,27.559,-128.831
 15:29:11.152,eb:33:2e:f9:57:b5, 2085-97-69 03:203:251:1016,0.359,-0.524,0.443,-321.35,-153.442,-33.936,43.044,27.125,-129.534
 15:29:11.152,eb:33:2e:f9:57:b5, 2085-97-120 02:132:251:1197,0.274,-0.537,0.528,-330.139,-171.204,-38.086,39.1,26.109,-131.034
 15:29:11.181,eb:33:2e:f9:57:b5, 2085-97-172 01:97:251:1343,0.151,-0.559,0.625,-337.646,-185.913,-34.973,35.123,24.879,-132.539
 15:29:11.181,eb:33:2e:f9:57:b5, 2085-97-177 00:218:250:1618,0.045,-0.605,0.727,-340.515,-204.407,-27.283,31.13,23.373,-133.973
 15:29:11.181,eb:33:2e:f9:57:b5, 2085-97-226 255:32:250:1901,-0.039,-0.688,0.858,-337.952,-220.764,-15.137,27.246,21.594,-135.269
 15:29:11.181,eb:33:2e:f9:57:b5, 2085-97-94 255:02:250:2247,-0.124,-0.726,1.012,-334.473,-236.145,5.066,23.5,19.506,-136.324
 15:29:11.213,eb:33:2e:f9:57:b5, 2085-97-146 254:235:249:2603,-0.221,-0.761,1.191,-331.238,-245.3,28.87,19.951,17.183,-137.054
 15:29:11.213,eb:33:2e:f9:57:b5, 2085-97-16 254:68:250:3242,-0.246,-0.79,1.443,-327.271,-247.131,56.03,16.54,14.683,-137.401
 15:29:11.213,eb:33:2e:f9:57:b5, 2085-97-220 254:236:250:3791,-0.182,-0.661,1.563,-320.007,-239.441,79.163,13.321,12.2,-137.274
 15:29:11.213,eb:33:2e:f9:57:b5, 2085-97-191 254:246:252:4187,-0.142,-0.519,1.957,-299.133,-215.027,98.022,10.289,9.805,-136.802
 15:29:11.270,eb:33:2e:f9:57:b5, 2085-97-39 255:166:255:3836,-0.072,-0.196,1.998,-279.053,-201.538,99.121,7.52,7.63,-136.088
 15:29:11.270,eb:33:2e:f9:57:b5, 2085-97-146 255:12:01:3567,-0.065,0.065,1.766,-282.654,-209.717,84.473,4.785,5.493,-135.357
 15:29:11.270,eb:33:2e:f9:57:b5, 2085-97-32 255:254:00:4163,-0.18,0.146,1.83,-305.115,-230.347,61.035,1.884,3.252,-134.731
 15:29:11.270,eb:33:2e:f9:57:b5, 2085-97-211 253:154:00:5447,-0.397,0.086,2.332,-324.768,-236.023,41.626,-1.291,0.89,-134.214
 15:29:11.302,eb:33:2e:f9:57:b5, 2085-97-109 251:21:01:6385,-0.679,0.081,2.935,-331.36,-214.966,34.18,-4.587,-1.346,-133.704
 15:29:11.302,eb:33:2e:f9:57:b5, 2085-97-224 249:67:03:6195,-0.828,0.234,3.137,-332.336,-175.11,43.091,-7.965,-3.219,-133.088
 15:29:11.302,eb:33:2e:f9:57:b5, 2085-97-230 248:155:06:5611,-0.964,0.614,2.878,-335.022,-162.048,56.213,-11.365,-4.746,-132.286
 15:29:11.303,eb:33:2e:f9:57:b5, 2085-97-93 245:38:09:5150,-1.185,1.039,2.765,-339.905,-163.757,58.838,-14.865,-6.235,-131.309
 15:29:11.330,eb:33:2e:f9:57:b5, 2085-97-12 246:250:10:6048,-1.205,1.29,2.783,-335.022,-201.355,78.979,-18.402,-7.938,-130.007
 15:29:11.330,eb:33:2e:f9:57:b5, 2085-97-54 247:188:14:6318,-1.152,1.507,3.143,-327.576,-128.845,112.488,-21.984,-9.185,-128.502
 15:29:11.330,eb:33:2e:f9:57:b5, 2085-97-66 248:43:24:5125,-0.489,2.013,4.388,-263.367,-7.08,182.007,-25.252,-9.245,-126.865
 15:29:11.330,eb:33:2e:f9:57:b5, 2085-97-90 252:119:33:4056,-0.4,3.497,2.371,-196.777,9.521,163.879,-27.828,-8.531,-125.497
 15:29:11.392,eb:33:2e:f9:57:b5, 2085-97-12 251:186:40:4254,-0.988,4.537,2.438,-77.698,-7.568,134.583,-29.41,-7.888,-124.217
 15:29:11.392,eb:33:2e:f9:57:b5, 2085-97-31 242:25:35:6181,-2.319,4.826,2.168,71.106,-10.498,99.304,-29.559,-7.421,-123.212
 15:29:11.392,eb:33:2e:f9:57:b5, 2085-97-85 235:13:30:5298,-2.251,4.375,2.76,246.887,73.425,85.754,-27.927,-6.707,-122.531
 15:29:11.392,eb:33:2e:f9:57:b5, 2085-97-177 242:208:17:1501,-0.449,3.928,1.025,314.392,104.98,61.096,-24.879,-5.29,-122.201
 15:29:11.421,eb:33:2e:f9:57:b5, 2085-97-212 05:17:247:3827,1.567,0.492,1.356,244.934,65.552,3.784,-22.192,-4.411,-122.355
 15:29:11.421,eb:33:2e:f9:57:b5, 2085-97-19 12:35:244:4711,0.562,-1.932,2.352,285.217,65.613,-2.38,-19.539,-3.889,-122.602
 15:29:11.422,eb:33:2e:f9:57:b5, 2085-97-76 252:137:07:3620,-0.758,-0.221,2.132,332.336,108.032,2.014,-16.353,-3.021,-122.871
 15:29:11.422,eb:33:2e:f9:57:b5, 2085-97-119 250:209:10:3229,-0.427,1.438,1.66,291.809,51.636,-9.583,-13.195,-2.23,-123.107
 15:29:11.451,eb:33:2e:f9:57:b5, 2085-97-140 00:200:03:2897,0.393,1.017,1.406,223.328,7.141,-26.855,-10.635,-2.016,-123.349
 15:29:11.451,eb:33:2e:f9:57:b5, 2085-97-25 01:116:255:2381,-0.329,0.062,1.372,152.039,15.869,-7.324,-8.789,-1.994,-123.558
 15:29:11.451,eb:33:2e:f9:57:b5, 2085-97-18 252:93:02:1425,-0.536,0.127,0.859,125.61,25.757,-8.85,-7.443,-1.708,-123.602
 15:29:11.451,eb:33:2e:f9:57:b5, 2085-97-60 252:76:255:1153,-0.166,0.128,0.645,122.375,-10.132,-67.505,-6.202,-1.697,-124.03
 15:29:11.511,eb:33:2e:f9:57:b5, 2085-97-141 01:44:253:1770,0.271,-0.27,0.649,128.784,-37.598,-117.249,-4.911,-2.082,-124.953
 15:29:11.511,eb:33:2e:f9:57:b5, 2085-97-233 00:169:254:1993,0.091,-0.438,1.039,139.404,-18.616,-110.474,-3.505,-2.477,-126.123
 15:29:11.511,eb:33:2e:f9:57:b5, 2085-97-49 02:33:02:2514,0.289,-0.248,0.885,108.154,-50.049,-62.378,-2.181,-2.867,-127.024
 15:29:11.511,eb:33:2e:f9:57:b5, 2085-97-39 02:25:05:2712,0.234,0.851,1.399,62.683,-30.029,-20.691,-1.302,-3.323,-127.31
 15:29:11.541,eb:33:2e:f9:57:b5, 2085-97-133 00:176:00:2011,-0.153,0.147,1.167,22.095,36.255,10.986,-0.923,-3.241,-127.365
 15:29:11.541,eb:33:2e:f9:57:b5, 2085-97-98 253:218:254:1585,-0.457,0.021,0.858,21.79,24.231,-14.099,-0.72,-2.9,-127.37
 15:29:11.541,eb:33:2e:f9:57:b5, 2085-97-180 254:116:01:1785,0.206,0.01,0.646,20.081,-20.081,-2.319,-0.489,-2.856,-127.458
 15:29:11.541,eb:33:2e:f9:57:b5, 2085-97-153 02:24:01:2523,0.114,0.189,1.129,5.066,-26.306,-3.723,-0.352,-3.175,-127.507
 15:29:11.571,eb:33:2e:f9:57:b5, 2085-97-77 255:56:255:2014,-0.153,-0.025,1.126,-2.075,8.118,-4.456,-0.357,-3.214,-127.551
 15:29:11.571,eb:33:2e:f9:57:b5, 2085-97-251 254:186:255:1911,-0.052,-0.073,0.936,-0.732,1.038,1.77,-0.363,-3.159,-127.557
 15:29:11.571,eb:33:2e:f9:57:b5, 2085-97-102 00:14:00:2114,0.076,-0.009,0.97,0.122,-8.728,-0.854,-0.368,-3.203,-127.546
 15:29:11.571,eb:33:2e:f9:57:b5, 2085-97-70 00:09:00:2058,-0.011,0.004,1.042,-0.427,-5.005,-1.709,-0.363,-3.268,-127.568
 15:29:11.631,eb:33:2e:f9:57:b5, 2085-97-195 255:10:00:1986,-0.036,0.001,0.968,-1.099,-7.996,-3.174,-0.368,-3.329,-127.59
 15:29:11.631,eb:33:2e:f9:57:b5, 2085-97-212 255:250:255:2025,0.005,0.003,0.97,-1.282,-10.193,-4.456,-0.374,-3.417,-127.628
 15:29:11.631,eb:33:2e:f9:57:b5, 2085-97-46 00:11:00:2088,0.042,0.003,1.004,-0.793,-8.972,-6.165,-0.385,-3.521,-127.678
 15:29:11.631,eb:33:2e:f9:57:b5, 2085-97-84 00:253:255:2097,0.046,0.002,1.03,-1.709,-1.77,-3.845,-0.39,-3.571,-127.733
 15:29:11.663,eb:33:2e:f9:57:b5, 2085-97-150 00:198:255:2070,0.119,-0.032,1.012,-1.892,-1.16,-4.578,-0.406,-3.576,-127.776
 15:29:11.663,eb:33:2e:f9:57:b5, 2085-97-158 00:215:255:2089,0.035,0.01,1.028,-1.404,-1.038,-13.245,-0.412,-3.598,-127.859
 15:29:11.663,eb:33:2e:f9:57:b5, 2085-97-193 00:16:00:2103,0.111,0.012,0.982,-3.967,-6.165,-8.484,-0.434,-3.609,-127.947
 15:29:11.663,eb:33:2e:f9:57:b5, 2085-97-01 01:205:255:2167,0.069,-0.022,1.051,-5.859,-2.136,-6.653,-0.472,-3.664,-128.035
 15:29:11.721,eb:33:2e:f9:57:b5, 2085-97-42 01:227:255:2190,0.13,-0.019,1.004,-7.507,-2.625,-3.113,-0.538,-3.669,-128.073
 15:29:11.721,eb:33:2e:f9:57:b5, 2085-97-215 00:178:255:2078,0.167,-0.022,1.043,-8.85,7.507,-0.427,-0.615,-3.631,-128.095
 15:29:11.721,eb:33:2e:f9:57:b5, 2085-97-50 01:88:255:2139,0.098,-0.077,1.065,-7.751,14.587,-0.61,-0.698,-3.543,-128.106
 15:29:11.722,eb:33:2e:f9:57:b5, 2085-97-248 00:50:255:2136,0.062,-0.083,0.999,-4.456,15.747,-2.319,-0.753,-3.362,-128.123
 15:29:11.723,eb:33:2e:f9:57:b5, 2085-97-124 00:81:255:2051,0.047,-0.084,0.999,-0.793,19.226,-3.723,-0.775,-3.175,-128.156
 15:29:11.751,eb:33:2e:f9:57:b5, 2085-113-58 00:149:227:-6240,0.083,-0.076,0.992,2.075,22.583,-2.991,-0.758,-2.966,-128.194
 15:29:11.751,eb:33:2e:f9:57:b5, 2085-97-185 255:155:255:1948,0.034,-0.06,1.031,3.174,30.151,-2.93,-0.747,-2.829,-128.216
 15:29:11.751,eb:33:2e:f9:57:b5, 2085-97-196 255:112:255:1938,-0.051,-0.098,1.059,4.883,29.602,3.052,-0.703,-2.565,-128.216
 15:29:11.751,eb:33:2e:f9:57:b5, 2085-97-15 01:79:255:2192,-0.036,-0.058,0.958,11.963,15.991,-13,-0.61,-2.351,-128.287
 15:29:11.782,eb:33:2e:f9:57:b5, 2085-97-204 255:240:255:1953,0.084,-0.035,0.936,12.756,14.587,-3.662,-0.478,-2.148,-128.359
 15:29:11.782,eb:33:2e:f9:57:b5, 2085-97-73 00:230:255:2123,0.028,0.019,1.035,12.512,17.517,-8.667,-0.346,-2.038,-128.43
 15:29:11.782,eb:33:2e:f9:57:b5, 2085-97-165 00:208:255:2153,0.108,-0.022,1.02,12.573,24.719,-9.888,-0.214,-1.807,-128.524
 15:29:11.782,eb:33:2e:f9:57:b5, 2085-97-25 01:174:255:2227,0.17,-0.04,1.079,14.343,32.593,-12.939,-0.071,-1.527,-128.65
 15:29:11.842,eb:33:2e:f9:57:b5, 2085-97-110 00:57:00:2069,0.028,0.008,1.105,14.099,49.377,-14.343,0.071,-1.132,-128.776
 15:29:11.842,eb:33:2e:f9:57:b5, 2085-97-21 00:79:00:1998,-0.008,0.019,0.987,14.954,48.828,-20.508,0.225,-0.637,-128.969
 15:29:11.842,eb:33:2e:f9:57:b5, 2085-97-202 255:228:255:2000,-0.052,0.013,0.979,15.015,50.293,-23.499,0.385,-0.143,-129.199
 15:29:11.842,eb:33:2e:f9:57:b5, 2085-97-77 255:253:255:1975,-0.104,-0.013,0.963,15.808,43.64,-20.63,0.538,0.335,-129.424
 15:29:11.871,eb:33:2e:f9:57:b5, 2085-97-136 255:28:00:2062,-0.05,-0.001,0.975,14.771,34.485,-19.897,0.698,0.72,-129.622
 15:29:11.871,eb:33:2e:f9:57:b5, 2085-97-184 255:29:00:2100,0.007,0.017,1.021,13.733,32.41,-20.813,0.835,1.055,-129.825
 15:29:11.871,eb:33:2e:f9:57:b5, 2085-97-252 255:250:255:2225,0.019,-0.001,1.084,12.756,30.823,-21.606,0.961,1.357,-130.04
 15:29:11.871,eb:33:2e:f9:57:b5, 2085-97-232 00:199:00:2158,0.111,0.01,1.064,12.695,30.762,-23.01,1.077,1.681,-130.254
 15:29:11.902,eb:33:2e:f9:57:b5, 2085-97-11 01:23:01:2084,0.302,0.017,1.099,11.047,34.485,-20.203,1.203,2.01,-130.485
 15:29:11.902,eb:33:2e:f9:57:b5, 2085-97-99 00:24:255:2773,0.022,0.206,0.938,14.771,7.568,-18.677,1.34,2.225,-130.688
 15:29:11.902,eb:33:2e:f9:57:b5, 2085-97-151 00:251:251:5337,-0.005,-0.415,1.862,77.698,-67.871,-19.226,1.752,1.901,-130.858
 15:29:11.902,eb:33:2e:f9:57:b5, 2085-97-36 254:194:246:5829,-0.029,-1.133,3.477,116.455,11.169,24.841,2.812,1.439,-130.995
 15:29:11.961,eb:33:2e:f9:57:b5, 2085-97-176 01:219:01:2289,0.237,-0.353,1.773,145.874,56.091,109.436,4.153,1.967,-130.073
 15:29:11.961,eb:33:2e:f9:57:b5, 2085-97-238 00:137:254:3272,0,0.161,1.154,181.885,-38.879,73.608,5.85,1.934,-129.144
 15:29:11.961,eb:33:2e:f9:57:b5, 2085-97-206 254:33:251:4450,-0.09,-0.587,2.003,202.454,-53.101,62.073,7.806,1.318,-128.578
 15:29:11.961,eb:33:2e:f9:57:b5, 2085-97-100 01:194:252:4166,0.254,-0.435,2.14,228.088,-44.8,25.94,9.959,0.818,-128.172
 15:29:11.991,eb:33:2e:f9:57:b5, 2085-97-150 03:237:253:4681,0.548,-0.03,2.266,273.132,-68.909,-41.748,12.502,0.258,-128.337
 15:29:11.991,eb:33:2e:f9:57:b5, 2085-97-80 04:205:251:4979,0.598,-0.335,2.373,317.81,-47.119,-80.872,15.496,-0.22,-129.095
 15:29:11.991,eb:33:2e:f9:57:b5, 2085-97-41 04:129:251:5031,0.466,-0.569,2.44,351.929,30.09,-83.313,18.88,-0.055,-129.919
 15:29:11.991,eb:33:2e:f9:57:b5, 2085-97-196 05:212:251:5229,0.601,-0.556,2.607,378.906,98.389,-79.651,22.533,0.868,-130.452
 15:29:12.022,eb:33:2e:f9:57:b5, 2085-97-175 03:156:253:6334,0.75,-0.39,2.773,409.302,121.643,-86.06,26.526,2.214,-130.721
 15:29:12.022,eb:33:2e:f9:57:b5, 2085-97-198 08:11:253:6836,1.042,-0.264,3.346,431.763,180.786,-79.712,30.756,3.928,-130.748
 15:29:12.022,eb:33:2e:f9:57:b5, 2085-97-187 06:57:255:5971,0.848,-0.431,3.071,439.758,240.356,-69.214,35.167,6.152,-130.243
 15:29:12.022,eb:33:2e:f9:57:b5, 2085-97-29 07:108:254:6173,1.109,-0.003,2.781,437.5,218.14,-128.418,39.6,8.652,-129.6
 15:29:12.082,eb:33:2e:f9:57:b5, 2085-97-214 10:182:246:7046,1.567,-0.729,3.266,434.021,162.903,-216.125,43.907,11.245,-129.771
 15:29:12.082,eb:33:2e:f9:57:b5, 2085-97-240 16:130:243:9081,2.966,-1.061,3.674,453.857,140.137,-252.014,48.224,13.953,-130.369
 15:29:12.082,eb:33:2e:f9:57:b5, 2085-97-164 20:254:227:9013,0.679,-2.688,5.46,534.058,212.769,-282.898,52.982,17.161,-130.88
 15:29:12.082,eb:33:2e:f9:57:b5, 2085-97-216 03:14:242:-480,0.355,-2.062,1.349,516.541,144.531,-256.104,58.656,20.363,-130.594
 15:29:12.111,eb:33:2e:f9:57:b5, 2085-97-06 00:247:249:-7571,-0.015,-1.786,-2.038,295.959,74.585,-114.868,62.562,22.538,-130.836
 15:29:12.111,eb:33:2e:f9:57:b5, 2085-97-101 03:99:243:-4428,0.878,-0.802,-4.556,-41.077,-13.672,-94.971,63.605,23.527,-130.902
 15:29:12.111,eb:33:2e:f9:57:b5, 2085-97-222 07:64:243:3138,0.573,-1.676,0.208,-225.464,-41.26,-76.111,61.644,24.082,-131.786
 15:29:12.111,eb:33:2e:f9:57:b5, 2085-97-55 03:60:245:3027,0.432,-1.441,1.7,-285.156,41.382,-39.185,58.92,24.582,-131.973
 15:29:12.142,eb:33:2e:f9:57:b5, 2085-97-255 04:246:248:1248,0.649,-1.231,1.071,-283.752,42.908,-30.151,56.124,25.142,-131.732
 15:29:12.142,eb:33:2e:f9:57:b5, 2085-97-70 03:37:249:-086,0.494,-0.901,0.326,-291.016,24.353,-33.02,53.267,25.62,-131.726
 15:29:12.142,eb:33:2e:f9:57:b5, 2085-97-01 04:221:249:-035,0.517,-0.826,-0.051,-296.082,-33.997,-47.974,50.142,25.862,-132.133
 15:29:12.142,eb:33:2e:f9:57:b5, 2085-97-05 04:21:250:440,0.441,-0.77,0.113,-301.575,-77.698,-64.087,46.747,25.878,-133.061
 15:29:12.201,eb:33:2e:f9:57:b5, 2085-97-91 03:21:250:744,0.347,-0.731,0.289,-307.495,-101.624,-66.04,43.149,25.664,-134.286
 15:29:12.201,eb:33:2e:f9:57:b5, 2085-97-135 02:217:249:969,0.264,-0.744,0.399,-310.425,-115.784,-62.317,39.496,25.247,-135.599
 15:29:12.201,eb:33:2e:f9:57:b5, 2085-97-209 01:37:250:915,0.173,-0.757,0.479,-314.758,-124.817,-49.927,35.815,24.604,-136.895
 15:29:12.201,eb:33:2e:f9:57:b5, 2085-97-67 01:167:250:721,0.173,-0.706,0.385,-324.28,-138.306,-31.86,32.151,23.725,-138.049
 15:29:12.231,eb:33:2e:f9:57:b5, 2085-97-37 01:111:250:965,0.128,-0.653,0.378,-334.656,-157.837,-13.55,28.438,22.527,-139.048
 15:29:12.231,eb:33:2e:f9:57:b5, 2085-97-204 00:92:250:1462,0.086,-0.699,0.595,-331.543,-180.969,5.859,24.796,21,-139.878
 15:29:12.231,eb:33:2e:f9:57:b5, 2085-97-114 00:141:250:1735,0.024,-0.695,0.813,-317.261,-197.449,27.71,21.324,19.155,-140.477
 15:29:12.231,eb:33:2e:f9:57:b5, 2085-97-220 255:48:250:2626,-0.085,-0.669,0.875,-303.589,-212.891,50.049,18.144,17.078,-140.779
 15:29:12.262,eb:33:2e:f9:57:b5, 2085-97-127 00:35:252:1937,0.33,-0.508,1.148,-303.711,-181.458,82.031,15.178,14.947,-140.603
 15:29:12.262,eb:33:2e:f9:57:b5, 2085-97-79 01:75:253:2705,0.235,-0.428,1.311,-289.673,-202.026,99.304,12.316,12.755,-140.191
 15:29:12.262,eb:33:2e:f9:57:b5, 2085-97-52 02:130:254:3152,0.239,-0.338,1.464,-276.672,-192.505,101.196,9.575,10.635,-139.554
 15:29:12.262,eb:33:2e:f9:57:b5, 2085-97-197 01:164:255:3011,0.226,-0.086,1.503,-264.099,-188.416,98.267,7.004,8.613,-138.79
 15:29:12.322,eb:33:2e:f9:57:b5, 2085-97-179 01:124:00:2917,0.188,0.016,1.445,-259.521,-193.054,89.233,4.466,6.636,-138.016
 15:29:12.322,eb:33:2e:f9:57:b5, 2085-97-136 01:98:00:3239,0.149,0.086,1.435,-260.803,-215.454,74.585,1.934,4.559,-137.274
 15:29:12.322,eb:33:2e:f9:57:b5, 2085-97-172 00:63:00:4121,0.013,0.021,1.793,-262.817,-234.436,64.026,-0.676,2.28,-136.582
 15:29:12.322,eb:33:2e:f9:57:b5, 2085-97-154 255:05:01:4848,-0.114,0.062,2.223,-264.465,-237.488,57.068,-3.301,-0.06,-135.868
 15:29:12.351,eb:33:2e:f9:57:b5, 2085-97-124 254:112:02:5272,-0.255,0.209,2.46,-274.17,-223.999,54.016,-6.042,-2.318,-135.093
 15:29:12.351,eb:33:2e:f9:57:b5, 2085-97-88 253:55:04:5691,-0.435,0.394,2.681,-283.691,-202.515,57.129,-8.904,-4.334,-134.242
 15:29:12.351,eb:33:2e:f9:57:b5, 2085-97-137 251:196:07:5963,-0.678,0.709,2.862,-268.616,-189.209,62.866,-11.81,-6.136,-133.264
 15:29:12.351,eb:33:2e:f9:57:b5, 2085-97-208 249:42:13:5751,-0.82,1.3,2.909,-231.873,-187.134,60.12,-14.436,-7.806,-132.193
 15:29:12.382,eb:33:2e:f9:57:b5, 2085-97-27 249:161:18:5068,-0.849,1.993,2.655,-211.243,-186.279,50.598,-16.809,-9.448,-131.116
 15:29:12.382,eb:33:2e:f9:57:b5, 2085-97-26 249:97:22:4569,-0.932,2.602,2.342,-225.22,-171.326,40.833,-19.166,-11.008,-130.078
 15:29:12.382,eb:33:2e:f9:57:b5, 2085-97-223 247:242:23:4277,-1.085,2.919,2.155,-239.868,-135.681,32.349,-21.731,-12.316,-129.166
 15:29:12.382,eb:33:2e:f9:57:b5, 2085-97-175 246:121:26:4077,-1.181,3.094,2.025,-221.375,-95.52,30.64,-24.225,-13.217,-128.408
 15:29:12.442,eb:33:2e:f9:57:b5, 2085-97-157 246:152:31:4033,-1.19,3.616,2.007,-174.866,-69.824,24.841,-26.367,-13.821,-127.771
 15:29:12.442,eb:33:2e:f9:57:b5, 2085-97-56 246:82:34:3726,-1.283,4.21,1.829,-112.854,-51.453,1.038,-27.889,-14.266,-127.365
 15:29:12.442,eb:33:2e:f9:57:b5, 2085-97-09 245:113:33:4333,-1.418,4.25,1.976,-24.17,-48.035,-34.058,-28.586,-14.799,-127.271
 15:29:12.442,eb:33:2e:f9:57:b5, 2085-97-16 251:93:15:8278,-4.813,4.044,2.185,79.407,-22.644,-68.787,-28.163,-15.37,-127.573
 15:29:12.472,eb:33:2e:f9:57:b5, 2085-97-10 235:205:04:263,0.322,-2.601,6.86,273.621,450.745,321.35,-26.296,-14.2,-127.848
 15:29:12.472,eb:33:2e:f9:57:b5, 2085-97-229 16:126:235:-023,2.752,-0.99,-2.637,163.818,264.404,102.661,-24.049,-10.673,-128.348
 15:29:12.472,eb:33:2e:f9:57:b5, 2085-97-221 17:68:230:3759,1.072,-3.736,1.641,277.649,158.508,59.326,-22.039,-8.679,-128.397
 15:29:12.472,eb:33:2e:f9:57:b5, 2085-97-02 251:234:04:4104,-1.597,-1.353,2.186,450.928,232.117,74.036,-18.232,-6.63,-128.441
 15:29:12.502,eb:33:2e:f9:57:b5, 2085-97-154 238:90:21:2327,-1.532,2.065,2.124,439.27,185.791,55.115,-13.634,-4.274,-128.436
 15:29:12.502,eb:33:2e:f9:57:b5, 2085-97-249 247:97:08:1954,-0.03,1.619,1.579,372.864,55.542,5.005,-9.673,-3.263,-128.425
 15:29:12.502,eb:33:2e:f9:57:b5, 2085-97-57 01:167:01:3037,-0.116,0.406,1.44,302.063,-1.953,-56.946,-6.345,-3.192,-128.771
 15:29:12.502,eb:33:2e:f9:57:b5, 2085-97-227 252:154:03:1987,-0.257,0.277,1.331,274.841,36.804,-80.933,-3.45,-3.054,-129.485
 15:29:12.561,eb:33:2e:f9:57:b5, 2085-97-172 255:116:248:1139,0.989,0.689,0.885,215.149,-39.001,-117.493,-0.824,-3.054,-130.485
 15:29:12.561,eb:33:2e:f9:57:b5, 2085-97-203 05:144:13:3462,0.501,0.897,1.766,160.034,-92.102,-35.461,0.994,-3.944,-131.045
 15:29:12.561,eb:33:2e:f9:57:b5, 2085-97-97 255:123:03:1991,-0.417,0.954,1.374,67.139,66.833,-15.747,2.126,-4.12,-131.369
 15:29:12.561,eb:33:2e:f9:57:b5, 2085-97-224 250:96:254:1083,-0.424,-0.008,0.738,38.025,119.751,4.028,2.576,-2.972,-131.325
 15:29:12.591,eb:33:2e:f9:57:b5, 2085-97-00 255:42:03:1758,-0.003,0.208,0.61,36.682,32.837,3.662,2.966,-2.247,-131.215
 15:29:12.591,eb:33:2e:f9:57:b5, 2085-97-43 00:96:01:1989,-0.003,0.297,0.985,16.357,41.321,3.113,3.224,-1.945,-131.193
 15:29:12.591,eb:33:2e:f9:57:b5, 2085-97-164 255:250:00:1884,-0.135,0.117,0.945,10.742,36.438,2.625,3.345,-1.516,-131.133
 15:29:12.591,eb:33:2e:f9:57:b5, 2085-113-58 00:103:228:-6180,-0.192,0.127,0.86,6.47,15.259,-2.747,3.428,-1.258,-131.116
 15:29:12.621,eb:33:2e:f9:57:b5, 2085-97-175 254:158:00:1806,-0.052,0.085,0.852,5.249,3.235,-5.676,3.461,-1.219,-131.138
 15:29:12.621,eb:33:2e:f9:57:b5, 2085-97-223 255:158:00:2081,-0.051,0.07,0.979,4.883,-11.719,-11.353,3.516,-1.28,-131.232
 15:29:12.621,eb:33:2e:f9:57:b5, 2085-97-124 00:197:255:2367,-0.034,0.099,1.031,6.409,-25.085,-20.02,3.582,-1.461,-131.391
 15:29:12.621,eb:33:2e:f9:57:b5, 2085-97-72 00:147:00:2156,0.055,0.069,1.034,8.545,-21.362,-16.235,3.669,-1.642,-131.517
 15:29:12.681,eb:33:2e:f9:57:b5, 2085-97-54 00:116:00:2097,-0.012,0.022,1.088,3.357,-4.089,-7.69,3.719,-1.78,-131.655
 15:29:12.681,eb:33:2e:f9:57:b5, 2085-97-254 255:35:00:2095,0.011,0.022,1.018,2.747,-0.916,-5.615,3.757,-1.791,-131.726
 15:29:12.681,eb:33:2e:f9:57:b5, 2085-97-41 00:63:00:2063,-0.004,0.039,1.01,2.808,7.507,0.305,3.785,-1.747,-131.743
 15:29:12.681,eb:33:2e:f9:57:b5, 2085-97-70 00:82:00:2080,0.1,0.054,0.979,2.869,5.798,-2.014,3.823,-1.659,-131.732
 15:29:12.711,eb:33:2e:f9:57:b5, 2085-97-171 00:89:00:2123,0.074,0.02,1.064,3.296,9.033,-2.991,3.856,-1.599,-131.776
 15:29:12.711,eb:33:2e:f9:57:b5, 2085-97-51 01:75:00:2255,0.199,0.095,0.969,2.747,2.319,-10.01,3.895,-1.527,-131.825
 15:29:12.711,eb:33:2e:f9:57:b5, 2085-97-251 00:210:00:2097,0.086,0.101,1.059,1.221,21.729,-5.554,3.928,-1.395,-131.88
 15:29:12.711,eb:33:2e:f9:57:b5, 2085-97-93 00:161:00:2020,0.01,0.099,0.999,-1.099,26.978,-7.629,3.933,-1.137,-131.929
 15:29:12.771,eb:33:2e:f9:57:b5, 2085-97-86 01:13:01:2247,0.031,0.076,0.964,-1.953,28.015,-8.85,3.917,-0.851,-131.995
 15:29:12.771,eb:33:2e:f9:57:b5, 2085-97-143 255:142:00:1870,-0.037,0.017,1.037,-2.686,53.65,-5.493,3.895,-0.39,-132.05
 15:29:12.771,eb:33:2e:f9:57:b5, 2085-97-217 254:115:00:1817,-0.161,0.009,0.968,-3.723,34.607,-1.038,3.856,0.027,-132.1
 15:29:12.771,eb:33:2e:f9:57:b5, 2085-97-142 00:86:00:2161,-0.045,0.06,0.876,0,9.583,-13.977,3.851,0.247,-132.182
 15:29:12.802,eb:33:2e:f9:57:b5, 2085-97-138 254:76:00:1816,0.013,0.129,0.948,-0.61,17.883,-13.123,3.851,0.417,-132.275
 15:29:12.802,eb:33:2e:f9:57:b5, 2085-97-60 00:70:00:2078,-0.057,0.05,1.041,1.221,14.587,-11.841,3.862,0.505,-132.363
 15:29:12.802,eb:33:2e:f9:57:b5, 2085-97-49 00:81:00:2124,0.03,0.08,0.96,2.441,17.334,-11.963,3.878,0.703,-132.429
 15:29:12.802,eb:33:2e:f9:57:b5, 2085-97-20 00:143:00:2071,0.07,0.054,1.028,2.563,26.55,-11.719,3.906,0.939,-132.534
 15:29:12.831,eb:33:2e:f9:57:b5, 2085-97-161 00:172:00:2187,0.037,0.104,1.016,0.671,29.297,-16.968,3.928,1.214,-132.665
 15:29:12.831,eb:33:2e:f9:57:b5, 2085-97-150 255:118:00:1957,-0.102,0.102,0.992,-0.427,38.879,-19.897,3.933,1.582,-132.83
 15:29:12.831,eb:33:2e:f9:57:b5, 2085-97-54 255:14:00:2054,-0.158,0.086,0.896,-1.282,31.372,-22.888,3.917,1.956,-133.017
 15:29:12.831,eb:33:2e:f9:57:b5, 2085-97-214 254:144:00:1869,-0.046,0.053,0.925,1.77,30.457,-19.043,3.922,2.302,-133.204
 15:29:12.891,eb:33:2e:f9:57:b5, 2085-97-160 254:37:00:1994,-0.12,0.014,1.081,2.625,30.151,-10.315,3.933,2.554,-133.325
 15:29:12.891,eb:33:2e:f9:57:b5, 2085-97-129 255:206:00:2022,0.022,0.046,0.98,7.263,21.118,-18.799,3.994,2.818,-133.473
 15:29:12.891,eb:33:2e:f9:57:b5, 2085-97-124 00:235:00:2129,0.116,0.202,0.89,-0.671,15.442,-32.837,4.026,3.016,-133.731
 15:29:12.891,eb:33:2e:f9:57:b5, 2085-97-86 00:07:00:2427,0.096,0.293,0.835,-15.625,16.541,-41.26,3.928,3.208,-134.061
 15:29:12.981,eb:33:2e:f9:57:b5, 2085-97-114 00:44:02:1550,0.06,0.148,1.019,-20.447,30.701,-38.33,3.735,3.455,-134.434
 15:29:12.982,eb:33:2e:f9:57:b5, 2085-97-158 255:123:255:2763,-0.049,0.012,1.155,-32.104,31.555,-41.382,3.422,3.73,-134.846
 15:29:12.982,eb:33:2e:f9:57:b5, 2085-97-24 255:169:253:3514,0.073,-0.074,1.231,-11.353,35.583,-37.231,3.186,4.147,-135.214
 15:29:12.982,eb:33:2e:f9:57:b5, 2085-97-107 00:25:248:6282,-0.177,-0.557,2.803,50.415,29.48,-33.02,3.384,4.362,-135.599
 15:29:12.984,eb:33:2e:f9:57:b5, 2085-97-120 255:93:254:2831,-0.052,-0.641,2.18,92.346,104.431,52.429,4.158,5.213,-135.352
 15:29:12.984,eb:33:2e:f9:57:b5, 2085-97-37 00:250:255:2903,0.009,0.071,1.144,121.765,40.344,76.172,5.317,5.911,-134.594
 15:29:12.984,eb:33:2e:f9:57:b5, 2085-97-04 255:56:253:3596,-0.139,-0.347,1.674,145.691,-2.991,106.995,6.757,5.927,-133.72
 15:29:12.984,eb:33:2e:f9:57:b5, 2085-97-108 255:56:254:3497,-0.007,-0.329,1.736,163.879,-25.94,103.882,8.416,5.641,-132.649
 15:29:12.984,eb:33:2e:f9:57:b5, 2085-97-167 00:129:254:4114,0.164,-0.108,1.824,188.904,-45.776,46.631,10.256,5.164,-131.946
 15:29:12.984,eb:33:2e:f9:57:b5, 2085-97-214 02:22:254:4206,0.271,-0.017,2.183,220.337,-50.537,-7.385,12.327,4.658,-131.852
 15:29:12.984,eb:33:2e:f9:57:b5, 2085-97-156 02:169:252:4494,0.276,-0.247,2.163,256.165,-39.856,-49.316,14.7,4.23,-132.242
 15:29:12.984,eb:33:2e:f9:57:b5, 2085-97-216 02:247:252:4889,0.455,-0.435,2.263,292.786,3.906,-62.683,17.43,4.219,-132.852
 15:29:13.043,eb:33:2e:f9:57:b5, 2085-97-135 04:244:252:5126,0.688,-0.389,2.452,325.745,62.439,-68.542,20.506,4.757,-133.363
 15:29:13.043,eb:33:2e:f9:57:b5, 2085-97-119 06:147:253:5092,0.793,-0.416,2.432,360.413,115.601,-72.083,23.928,5.911,-133.66
 15:29:13.043,eb:33:2e:f9:57:b5, 2085-97-79 06:65:00:6734,1.244,-0.097,2.738,385.254,144.47,-82.458,27.691,7.399,-133.797
 15:29:13.043,eb:33:2e:f9:57:b5, 2085-97-64 09:09:00:6326,1.221,-0.216,3.443,394.165,253.601,-71.655,31.63,9.542,-133.555
 15:29:13.071,eb:33:2e:f9:57:b5, 2085-97-87 06:62:00:5199,0.521,-0.177,2.532,393.555,296.021,-83.374,35.733,12.382,-132.572
 15:29:13.071,eb:33:2e:f9:57:b5, 2085-97-06 04:143:255:5957,0.902,-0.066,2.709,381.348,281.494,-142.761,39.798,15.392,-131.726
 15:29:13.071,eb:33:2e:f9:57:b5, 2085-97-174 10:84:249:6949,1.738,-0.229,3.04,371.765,232.117,-223.877,43.665,18.55,-131.375
 15:29:13.071,eb:33:2e:f9:57:b5, 2085-97-26 19:106:250:9051,3.772,-0.882,3.797,382.935,228.638,-207.031,47.384,21.687,-131.468
 15:29:13.130,eb:33:2e:f9:57:b5, 2085-97-228 21:178:230:9083,0.594,-2.327,6.186,438.477,375.549,-209.9,51.68,25.098,-130.809
 15:29:13.130,eb:33:2e:f9:57:b5, 2085-97-166 01:160:247:-1915,0.617,-1.591,0.562,417.48,388.489,-166.016,57.519,29.048,-127.892
 15:29:13.130,eb:33:2e:f9:57:b5, 2085-97-65 03:85:251:-5290,0.217,-0.937,-1.725,259.338,222.107,-113.525,61.798,31.794,-125.969
 15:29:13.130,eb:33:2e:f9:57:b5, 2085-97-87 03:51:252:-5655,0.7,-0.263,-3.459,30.579,96.069,-80.078,63.748,33.3,-124.772
 15:29:13.162,eb:33:2e:f9:57:b5, 2085-97-213 05:180:247:728,0.571,-0.914,-0.966,-116.333,-38.635,-87.341,62.891,34.118,-125.228
 15:29:13.162,eb:33:2e:f9:57:b5, 2085-97-188 03:201:246:2625,0.489,-1.102,1.027,-163.574,-35.339,-61.646,60.914,34.563,-126.074
 15:29:13.162,eb:33:2e:f9:57:b5, 2085-97-210 03:232:247:1844,0.426,-1.115,1.257,-158.142,-22.888,-37.354,58.947,34.821,-126.689
 15:29:13.162,eb:33:2e:f9:57:b5, 2085-97-44 03:161:249:353,0.388,-0.889,0.466,-157.471,-28.076,-14.832,57.145,34.893,-127.084
 15:29:13.192,eb:33:2e:f9:57:b5, 2085-97-05 03:112:250:044,0.351,-0.73,0.036,-173.828,-54.443,1.16,55.234,34.7,-127.54
 15:29:13.192,eb:33:2e:f9:57:b5, 2085-97-221 02:207:250:117,0.41,-0.684,0.037,-196.899,-83.191,10.315,52.998,34.228,-128.183
 15:29:13.192,eb:33:2e:f9:57:b5, 2085-97-133 03:254:250:283,0.453,-0.633,0.101,-225.281,-107.849,19.47,50.438,33.486,-128.979
 15:29:13.192,eb:33:2e:f9:57:b5, 2085-97-164 03:246:250:569,0.454,-0.628,0.195,-251.282,-123.962,26.367,47.554,32.525,-129.836
 15:29:13.253,eb:33:2e:f9:57:b5, 2085-97-118 03:53:251:874,0.421,-0.621,0.366,-266.663,-138.977,30.212,44.495,31.388,-130.699
 15:29:13.253,eb:33:2e:f9:57:b5, 2085-97-73 03:154:251:874,0.397,-0.571,0.431,-278.809,-156.067,33.997,41.298,30.059,-131.589
 15:29:13.253,eb:33:2e:f9:57:b5, 2085-97-10 03:184:251:977,0.361,-0.541,0.439,-292.297,-171.143,37.415,38.024,28.553,-132.446
 15:29:13.254,eb:33:2e:f9:57:b5, 2085-97-215 02:230:251:1163,0.346,-0.529,0.52,-307.495,-184.204,43.152,34.623,26.856,-133.253
 15:29:13.254,eb:33:2e:f9:57:b5, 2085-97-103 02:30:252:1321,0.309,-0.488,0.613,-321.167,-195.068,49.011,31.179,24.994,-133.929
 15:29:13.282,eb:33:2e:f9:57:b5, 2085-113-58 00:223:228:-9375,0.312,-0.493,0.729,-328.308,-212.036,49.866,27.664,22.945,-134.539
 15:29:13.282,eb:33:2e:f9:57:b5, 2085-97-88 02:235:251:1828,0.315,-0.503,0.817,-329.895,-218.445,51.208,25.917,21.863,-134.802
 15:29:13.282,eb:33:2e:f9:57:b5, 2085-97-75 02:32:252:2168,0.269,-0.497,1.002,-330.627,-228.882,56.946,22.44,19.567,-135.236
 15:29:13.282,eb:33:2e:f9:57:b5, 2085-97-210 01:195:251:2736,0.177,-0.473,1.112,-330.811,-238.892,60.669,19.056,17.166,-135.489
 15:29:13.312,eb:33:2e:f9:57:b5, 2085-97-23 02:24:253:2491,0.234,-0.519,1.341,-333.069,-231.506,71.411,15.699,14.7,-135.533
 15:29:13.312,eb:33:2e:f9:57:b5, 2085-97-58 02:63:253:3492,0.175,-0.354,1.438,-326.782,-242.31,70.618,12.42,12.261,-135.357
 15:29:13.312,eb:33:2e:f9:57:b5, 2085-97-28 01:105:254:4308,0.082,-0.271,1.882,-298.218,-232.056,73.364,9.322,9.805,-135.027
 15:29:13.312,eb:33:2e:f9:57:b5, 2085-97-83 00:35:00:4518,0.024,-0.088,2.231,-253.784,-226.135,68.665,6.647,7.443,-134.599
 15:29:13.371,eb:33:2e:f9:57:b5, 2085-97-52 00:222:01:3793,0.016,0.137,2.033,-241.211,-225.098,60.486,4.246,5.147,-134.132
 15:29:13.371,eb:33:2e:f9:57:b5, 2085-97-06 00:164:01:4210,-0.005,0.258,1.839,-275.94,-244.812,47.852,1.697,2.774,-133.687
 15:29:13.371,eb:33:2e:f9:57:b5, 2085-97-105 255:210:00:5850,-0.151,0.113,2.433,-313.416,-253.906,45.044,-1.302,0.253,-133.215
 15:29:13.371,eb:33:2e:f9:57:b5, 2085-97-49 254:53:02:7035,-0.3,0.156,3.239,-322.205,-226.624,53.772,-4.521,-2.142,-132.567
 15:29:13.402,eb:33:2e:f9:57:b5, 2085-97-56 253:128:07:6441,-0.402,0.541,3.397,-309.143,-175.476,71.777,-7.762,-4.032,-131.688
 15:29:13.402,eb:33:2e:f9:57:b5, 2085-97-61 252:45:13:5271,-0.521,1.256,2.894,-296.387,-169.128,78.125,-10.871,-5.532,-130.622
 15:29:13.402,eb:33:2e:f9:57:b5, 2085-97-67 251:177:16:4753,-0.696,1.903,2.371,-291.504,-218.445,64.514,-13.953,-7.273,-129.474
 15:29:13.402,eb:33:2e:f9:57:b5, 2085-97-99 249:19:18:4937,-0.908,2.183,2.373,-291.992,-256.653,52.795,-17.062,-9.437,-128.216
 15:29:13.431,eb:33:2e:f9:57:b5, 2085-97-82 248:163:19:5903,-1.05,2.314,2.56,-281.86,-253.052,47.791,-20.226,-11.717,-126.865
 15:29:13.431,eb:33:2e:f9:57:b5, 2085-97-48 247:233:26:6239,-1.122,2.807,3.146,-228.577,-181.824,52.429,-23.099,-13.568,-125.513
 15:29:13.431,eb:33:2e:f9:57:b5, 2085-97-116 246:94:35:4272,-1.341,3.942,2.589,-160.4,-97.168,26.306,-25.247,-14.568,-124.557
 15:29:13.432,eb:33:2e:f9:57:b5, 2085-97-145 243:21:39:3180,-1.772,4.746,1.745,-96.375,-84.656,-25.085,-26.614,-15.342,-124.162
 15:29:13.492,eb:33:2e:f9:57:b5, 2085-97-105 240:104:37:3378,-2.09,4.853,1.52,-10.132,-106.323,-82.764,-27.109,-16.458,-124.217
 15:29:13.492,eb:33:2e:f9:57:b5, 2085-97-55 241:66:29:5335,-6.138,4.42,1.865,83.496,-106.323,-124.451,-26.543,-17.935,-124.678
 15:29:13.492,eb:33:2e:f9:57:b5, 2085-97-30 228:38:20:-522,-0.469,-4.715,10.383,211.121,489.258,306.763,-24.999,-17.913,-125.316
 15:29:13.492,eb:33:2e:f9:57:b5, 2085-97-69 09:201:243:-1632,2.693,0.317,-1.399,134.949,300.293,85.693,-23.088,-13.92,-125.766
 15:29:13.550,eb:33:2e:f9:57:b5, 2085-97-51 20:111:226:3055,1.7,-2.784,0.751,131.531,222.351,78.186,-21.934,-11.212,-125.953
 15:29:13.550,eb:33:2e:f9:57:b5, 2085-97-149 02:51:249:2759,-1.297,-2.465,1.803,288.635,253.54,103.455,-19.781,-8.646,-125.953
 15:29:13.550,eb:33:2e:f9:57:b5, 2085-97-105 242:26:11:2252,-1.455,0.657,1.235,359.619,230.042,104.553,-16.403,-5.922,-125.777
 15:29:13.550,eb:33:2e:f9:57:b5, 2085-97-24 251:20:10:3722,-0.351,1.535,1.462,317.017,96.069,54.749,-13.085,-4.323,-125.398
 15:29:13.611,eb:33:2e:f9:57:b5, 2085-97-104 251:70:02:2828,-0.525,0.406,1.928,292.297,75.5,-1.709,-10.085,-3.565,-125.409
 15:29:13.611,eb:33:2e:f9:57:b5, 2085-97-217 251:77:05:2165,-0.46,0.456,0.958,256.714,14.526,-38.269,-7.311,-3.164,-125.695
 15:29:13.611,eb:33:2e:f9:57:b5, 2085-97-00 254:79:01:2049,0.056,0.6,1.063,229.797,8.423,-70.74,-4.856,-3.131,-126.271
 15:29:13.611,eb:33:2e:f9:57:b5, 2085-97-107 00:156:248:1850,0.961,-0.215,1.038,204.834,-19.409,-74.463,-2.615,-3.208,-127.068
 15:29:13.613,eb:33:2e:f9:57:b5, 2085-97-208 04:202:08:3977,0.161,0.421,1.497,145.447,-59.143,-25.94,-0.939,-3.752,-127.507
 15:29:13.613,eb:33:2e:f9:57:b5, 2085-97-152 253:03:03:1518,-0.476,0.706,1.216,79.895,64.941,13,0.17,-3.691,-127.606
 15:29:13.613,eb:33:2e:f9:57:b5, 2085-97-40 253:23:01:1553,-0.381,0.54,0.552,39.856,50.964,3.052,0.687,-2.939,-127.37
 15:29:13.613,eb:33:2e:f9:57:b5, 2085-97-212 253:235:01:1541,0.095,-0.086,0.794,37.354,23.438,-1.587,1.06,-2.587,-127.436
 15:29:13.641,eb:33:2e:f9:57:b5, 2085-97-245 00:201:00:2243,-0.065,0.299,1.004,20.264,-2.075,-11.475,1.357,-2.576,-127.502
 15:29:13.641,eb:33:2e:f9:57:b5, 2085-97-127 254:159:00:1698,-0.19,0.042,0.942,13.611,29.236,3.235,1.516,-2.368,-127.524
 15:29:13.641,eb:33:2e:f9:57:b5, 2085-97-38 255:156:00:1861,-0.01,0.08,0.837,10.132,3.479,-3.784,1.642,-2.197,-127.524
 15:29:13.641,eb:33:2e:f9:57:b5, 2085-97-124 00:104:00:2196,-0.02,0.069,1.009,7.324,-7.141,-7.385,1.73,-2.252,-127.59
 15:29:13.671,eb:33:2e:f9:57:b5, 2085-97-161 255:02:00:2099,-0.047,0.035,1.028,6.714,-1.77,-6.592,1.807,-2.258,-127.65
 15:29:13.671,eb:33:2e:f9:57:b5, 2085-97-113 255:252:255:2042,-0.009,0.013,1.009,7.935,-7.751,-6.958,1.884,-2.307,-127.711
 15:29:13.671,eb:33:2e:f9:57:b5, 2085-97-38 00:48:00:2126,0.031,0.007,1.036,7.996,-11.841,-3.967,1.972,-2.417,-127.776
 15:29:13.671,eb:33:2e:f9:57:b5, 2085-97-101 00:95:00:2130,0.043,0.041,1.034,7.446,-8.484,-2.136,2.054,-2.516,-127.804
 15:29:13.732,eb:33:2e:f9:57:b5, 2085-97-67 00:97:00:2050,0.031,0.047,1.024,5.798,0.549,0.549,2.126,-2.543,-127.815
 15:29:13.732,eb:33:2e:f9:57:b5, 2085-97-41 00:78:00:2039,0.047,0.048,0.994,4.822,-0.244,0.183,2.181,-2.532,-127.804
 15:29:13.732,eb:33:2e:f9:57:b5, 2085-97-173 00:84:00:2113,0.093,0.047,1.012,4.639,-4.7,-2.93,2.236,-2.554,-127.82
 15:29:13.732,eb:33:2e:f9:57:b5, 2085-97-140 00:216:255:2184,0.174,0.073,0.975,3.662,-10.01,-9.338,2.28,-2.609,-127.864
 15:29:13.790,eb:33:2e:f9:57:b5, 2085-97-239 00:129:00:2062,0.085,0.074,1.038,2.625,8.362,-2.38,2.329,-2.62,-127.919
 15:29:13.790,eb:33:2e:f9:57:b5, 2085-97-151 00:129:00:2013,0.024,0.044,1.011,0.916,10.925,-4.028,2.346,-2.516,-127.947
 15:29:13.790,eb:33:2e:f9:57:b5, 2085-97-212 00:132:00:2059,0.06,0.01,1.041,-0.244,12.451,-4.822,2.357,-2.411,-128.013
 15:29:13.790,eb:33:2e:f9:57:b5, 2085-97-129 00:14:00:2049,0.072,0.045,0.969,-1.465,15.625,-6.47,2.351,-2.247,-128.057
 15:29:13.790,eb:33:2e:f9:57:b5, 2085-97-104 00:41:00:2028,0.026,0.012,1,-1.038,17.7,-5.432,2.346,-2.071,-128.112
 15:29:13.790,eb:33:2e:f9:57:b5, 2085-97-00 00:46:00:1984,0.037,0.014,0.983,-0.061,17.273,-5.92,2.346,-1.895,-128.161
 15:29:13.790,eb:33:2e:f9:57:b5, 2085-97-131 255:87:00:1904,-0.015,0.013,0.998,0.488,21.729,-4.517,2.357,-1.697,-128.227
 15:29:13.790,eb:33:2e:f9:57:b5, 2085-97-221 255:180:255:2020,-0.105,-0.013,1.02,1.953,18.921,-5.737,2.368,-1.527,-128.265
 15:29:13.851,eb:33:2e:f9:57:b5, 2085-97-06 01:214:255:2263,-0.037,0.001,0.929,5.615,6.348,-8.789,2.417,-1.384,-128.32
 15:29:13.851,eb:33:2e:f9:57:b5, 2085-97-182 255:99:00:1991,0.114,0.033,0.953,6.897,8.484,-1.16,2.483,-1.247,-128.353
 15:29:13.851,eb:33:2e:f9:57:b5, 2085-97-55 00:103:00:2052,0.013,0.034,1.078,7.629,14.709,-4.456,2.565,-1.176,-128.414
 15:29:13.851,eb:33:2e:f9:57:b5, 2085-97-91 00:100:00:2063,0.056,0.042,0.997,8.972,18.066,-7.935,2.648,-1.005,-128.469
 15:29:13.881,eb:33:2e:f9:57:b5, 2085-113-58 00:17:224:-7620,0.058,0.058,1.012,9.46,24.902,-8.728,2.752,-0.78,-128.546
 15:29:13.881,eb:33:2e:f9:57:b5, 2085-97-105 00:103:00:2102,0.031,0.054,1.025,9.644,29.358,-9.216,2.802,-0.643,-128.584
 15:29:13.881,eb:33:2e:f9:57:b5, 2085-97-25 00:83:00:2055,-0.003,0.038,1.014,10.437,35.706,-10.437,2.906,-0.302,-128.677
 15:29:13.881,eb:33:2e:f9:57:b5, 2085-97-190 255:118:00:1971,-0.043,0.045,0.991,11.047,37.476,-10.925,3.021,0.071,-128.776
 15:29:13.913,eb:33:2e:f9:57:b5, 2085-97-87 255:73:00:2007,-0.073,0.037,1.002,10.986,39.124,-8.606,3.126,0.439,-128.848
 15:29:13.913,eb:33:2e:f9:57:b5, 2085-97-122 255:33:00:2105,-0.038,0.021,1.005,13.123,37.292,-10.254,3.257,0.835,-128.941
 15:29:13.913,eb:33:2e:f9:57:b5, 2085-97-16 00:116:00:2217,0.01,0.03,1.055,15.198,33.325,-9.583,3.4,1.187,-129.018
 15:29:13.913,eb:33:2e:f9:57:b5, 2085-97-09 00:107:00:2248,0,0.052,1.098,15.442,35.156,-10.681,3.56,1.533,-129.111
 15:29:13.972,eb:33:2e:f9:57:b5, 2085-97-36 00:119:00:2230,0.037,0.064,1.079,14.709,34.912,-11.963,3.713,1.89,-129.21
 15:29:13.972,eb:33:2e:f9:57:b5, 2085-97-53 00:103:00:2200,-0.02,0.075,1.087,12.085,36.194,-7.812,3.845,2.263,-129.287
 15:29:13.972,eb:33:2e:f9:57:b5, 2085-97-37 00:184:04:562,-0.021,0.096,0.957,6.409,36.56,-7.263,3.944,2.642,-129.326
 15:29:13.972,eb:33:2e:f9:57:b5, 2085-97-73 00:213:251:3482,-0.057,0.263,0.918,-15.808,-19.836,-54.993,3.867,2.692,-129.688
 15:29:14.031,eb:33:2e:f9:57:b5, 2085-97-11 00:145:00:2609,0.256,0.082,1.163,2.502,5.615,-16.418,3.796,2.84,-129.886
 15:29:14.031,eb:33:2e:f9:57:b5, 2085-97-118 00:78:251:4390,-0.051,-0.241,2.349,30.762,-14.221,-18.677,4.005,2.631,-130.172
 15:29:14.031,eb:33:2e:f9:57:b5, 2085-97-169 00:58:252:4511,0.025,-0.149,1.633,44.312,7.812,48.218,4.389,2.769,-129.798
 15:29:14.031,eb:33:2e:f9:57:b5, 2085-97-251 255:31:251:4871,0.012,-0.654,2.509,110.779,-6.531,85.754,5.208,2.703,-129.106
 15:29:14.034,eb:33:2e:f9:57:b5, 2085-97-254 00:91:254:3508,0.024,-0.347,2.006,164.429,-19.714,81.543,6.68,2.516,-128.227
 15:29:14.034,eb:33:2e:f9:57:b5, 2085-97-02 00:45:253:3913,0.046,-0.274,1.695,192.078,-49.927,27.649,8.498,2.071,-127.755
 15:29:14.034,eb:33:2e:f9:57:b5, 2085-97-122 00:143:252:4523,0.183,-0.447,2.127,224.854,-52.307,-14.343,10.585,1.56,-127.831
 15:29:14.034,eb:33:2e:f9:57:b5, 2085-97-106 02:98:253:4326,0.383,-0.333,2.157,269.531,-59.204,-53.955,13.068,1.104,-128.271
 15:29:14.091,eb:33:2e:f9:57:b5, 2085-97-222 03:204:250:5269,0.608,-0.554,2.335,314.819,-42.725,-87.891,16.007,0.731,-129.15
 15:29:14.091,eb:33:2e:f9:57:b5, 2085-97-118 05:29:251:5400,0.736,-0.711,2.629,351.929,29.114,-86.243,19.363,0.934,-130.007
 15:29:14.091,eb:33:2e:f9:57:b5, 2085-97-62 07:203:252:5511,1.072,-0.3,2.671,390.198,99.548,-88.135,23.077,1.895,-130.551
 15:29:14.091,eb:33:2e:f9:57:b5, 2085-97-16 07:234:254:6488,1.265,-0.444,2.753,427.979,141.663,-92.529,27.213,3.373,-130.886
 15:29:14.122,eb:33:2e:f9:57:b5, 2085-97-43 08:208:253:6615,0.75,-0.329,3.43,431.702,262.939,-65.186,31.536,5.63,-130.589
 15:29:14.122,eb:33:2e:f9:57:b5, 2085-97-219 04:215:254:5431,0.408,-0.36,2.889,419.067,342.529,-30.396,35.953,8.52,-129.232
 15:29:14.122,eb:33:2e:f9:57:b5, 2085-97-55 04:126:253:6256,0.961,0,2.839,411.865,303.65,-80.566,40.369,11.442,-127.628
 15:29:14.122,eb:33:2e:f9:57:b5, 2085-97-84 10:102:247:6457,1.523,-0.801,3.065,393.677,251.831,-159.424,44.555,14.326,-126.733
 15:29:14.152,eb:33:2e:f9:57:b5, 2085-97-04 19:195:240:9244,3.337,-1.213,3.682,392.334,215.393,-218.567,48.516,17.353,-126.524
 15:29:14.152,eb:33:2e:f9:57:b5, 2085-97-141 22:205:233:7137,0.829,-2.562,5.06,477.905,327.332,-194.031,53.102,20.61,-125.711
 15:29:14.152,eb:33:2e:f9:57:b5, 2085-97-118 03:102:245:-1834,0.636,-1.44,0.639,444.092,267.944,-193.665,58.672,23.934,-123.871
 15:29:14.152,eb:33:2e:f9:57:b5, 2085-97-249 03:15:250:-5257,0.415,-1.488,-1.61,283.691,100.464,-134.521,62.441,26.274,-123.404
 15:29:14.211,eb:33:2e:f9:57:b5, 2085-97-249 02:81:250:-5709,0.651,-0.303,-3.357,23.865,40.588,-111.084,63.924,27.603,-123.223
 15:29:14.211,eb:33:2e:f9:57:b5, 2085-97-154 06:139:244:1351,0.552,-1.236,-0.927,-144.348,-66.65,-117.432,62.661,28.515,-124.189
 15:29:14.211,eb:33:2e:f9:57:b5, 2085-97-204 02:63:244:2621,0.359,-1.448,1.164,-201.599,-23.193,-80.261,60.381,29.147,-125.134
 15:29:14.211,eb:33:2e:f9:57:b5, 2085-97-55 03:09:246:1774,0.351,-1.403,1.203,-204.102,-2.441,-50.171,58.074,29.625,-125.64
 15:29:14.242,eb:33:2e:f9:57:b5, 2085-97-121 02:243:247:349,0.311,-1.106,0.445,-204.895,-2.869,-28.015,55.926,29.938,-125.859
 15:29:14.242,eb:33:2e:f9:57:b5, 2085-97-148 02:212:248:110,0.319,-0.94,0.068,-215.515,-30.334,-14.465,53.657,29.993,-126.172
 15:29:14.242,eb:33:2e:f9:57:b5, 2085-97-166 02:178:249:080,0.367,-0.84,0.043,-230.896,-59.143,-2.136,51.191,29.762,-126.634
 15:29:14.242,eb:33:2e:f9:57:b5, 2085-97-04 03:00:250:221,0.438,-0.747,0.061,-249.878,-89.233,1.892,48.439,29.246,-127.293
 15:29:14.271,eb:33:2e:f9:57:b5, 2085-97-54 03:174:250:415,0.444,-0.707,0.192,-271.484,-112.61,13.428,45.445,28.471,-128.095
 15:29:14.271,eb:33:2e:f9:57:b5, 2085-97-101 03:19:251:771,0.42,-0.649,0.33,-289.795,-137.085,17.212,42.209,27.433,-128.963
 15:29:14.271,eb:33:2e:f9:57:b5, 2085-97-54 03:169:251:940,0.406,-0.583,0.435,-303.467,-153.137,21.606,38.848,26.18,-129.836
 15:29:14.271,eb:33:2e:f9:57:b5, 2085-97-67 03:68:252:1134,0.378,-0.492,0.492,-318.359,-167.358,25.757,35.354,24.725,-130.682
 15:29:14.331,eb:33:2e:f9:57:b5, 2085-97-191 02:141:252:1312,0.348,-0.444,0.604,-332.703,-180.115,29.358,31.783,23.11,-131.457
 15:29:14.331,eb:33:2e:f9:57:b5, 2085-97-215 02:122:252:1600,0.354,-0.439,0.708,-344.299,-195.862,32.043,28.103,21.297,-132.171
 15:29:14.331,eb:33:2e:f9:57:b5, 2085-97-138 02:145:252:1945,0.188,-0.441,0.863,-352.051,-208.13,36.194,24.406,19.319,-132.77
 15:29:14.331,eb:33:2e:f9:57:b5, 2085-97-45 01:126:252:2688,0.056,-0.43,1.1,-353.455,-217.651,44.922,20.715,17.172,-133.215
 15:29:14.362,eb:33:2e:f9:57:b5, 2085-97-64 00:217:252:2170,0.352,-0.578,1.765,-354.431,-187.927,61.096,17.144,14.991,-133.352
 15:29:14.362,eb:33:2e:f9:57:b5, 2085-97-163 01:26:254:2968,0.33,-0.264,1.474,-337.524,-229.553,67.078,13.678,12.662,-133.325
 15:29:14.362,eb:33:2e:f9:57:b5, 2085-97-121 02:94:254:3746,0.244,-0.289,1.683,-316.284,-234.558,65.918,10.443,10.228,-133.149
 15:29:14.362,eb:33:2e:f9:57:b5, 2085-97-175 01:144:255:4339,0.163,-0.095,1.982,-284.668,-240.906,64.453,7.476,7.762,-132.825
 15:29:14.393,eb:33:2e:f9:57:b5, 2085-97-223 00:245:00:4373,0.064,0.017,2.176,-264.16,-230.469,63.782,4.807,5.356,-132.402
 15:29:14.393,eb:33:2e:f9:57:b5, 2085-97-89 00:119:01:4388,0.058,0.182,2.081,-270.02,-234.802,57.739,2.159,3.01,-131.896
 15:29:14.393,eb:33:2e:f9:57:b5, 2085-97-96 00:241:00:5534,-0.008,0.14,2.371,-291.26,-247.864,52.307,-0.637,0.582,-131.358
 15:29:14.393,eb:33:2e:f9:57:b5, 2085-97-143 255:01:02:6784,-0.084,0.143,3.044,-305.908,-242.676,58.716,-3.686,-1.868,-130.671
 15:29:14.452,eb:33:2e:f9:57:b5, 2085-97-179 254:73:06:6966,-0.273,0.462,3.456,-301.392,-203.125,72.021,-6.79,-4.016,-129.781
 15:29:14.452,eb:33:2e:f9:57:b5, 2085-97-254 252:97:12:5875,-0.475,1.171,3.147,-286.072,-182.129,73.792,-9.844,-5.751,-128.732
 15:29:14.452,eb:33:2e:f9:57:b5, 2085-97-67 251:170:16:5155,-0.732,1.855,2.673,-283.813,-207.397,52.368,-12.799,-7.52,-127.7
 15:29:14.452,eb:33:2e:f9:57:b5, 2085-97-103 249:53:18:4825,-0.95,2.231,2.383,-293.945,-228.882,30.579,-15.875,-9.553,-126.711
 15:29:14.481,eb:33:2e:f9:57:b5, 2085-97-72 248:26:20:4947,-0.942,2.439,2.303,-294.434,-218.018,23.682,-19.028,-11.618,-125.711
 15:29:14.481,eb:33:2e:f9:57:b5, 2085-97-226 248:90:24:6082,-0.902,2.704,2.67,-261.963,-173.34,21.545,-22.061,-13.37,-124.761
 15:29:14.481,eb:33:2e:f9:57:b5, 2085-97-64 248:156:34:5519,-1.104,3.618,3.059,-173.584,-85.144,7.935,-24.406,-14.474,-124.058
 15:29:14.481,eb:33:2e:f9:57:b5, 2085-97-46 245:86:41:2595,-1.635,4.873,1.987,-71.289,-39.795,-48.828,-25.587,-15.018,-124.014
 15:29:14.541,eb:33:2e:f9:57:b5, 2085-97-30 241:241:38:1936,-1.298,5.155,0.866,9.583,-89.05,-120.3,-25.692,-15.98,-124.547
 15:29:14.541,eb:33:2e:f9:57:b5, 2085-97-73 219:224:12:9581,-4.583,1.342,6.454,146.423,-45.959,-126.892,-24.824,-17.831,-125.447
 15:29:14.541,eb:33:2e:f9:57:b5, 2085-113-81 00:244:53:-6610,-2.175,1.565,3.259,267.639,416.809,124.756,-22.341,-14.128,-125.59
 15:29:14.541,eb:33:2e:f9:57:b5, 2085-97-47 03:123:02:-2173,2.041,1.828,-0.026,210.449,363.464,61.89,-21.061,-12.162,-125.958
 15:29:14.541,eb:33:2e:f9:57:b5, 2085-97-171 16:112:230:4281,1.618,-1.223,0.931,146.667,268.127,50.537,-19.446,-9.13,-126.53
 15:29:14.572,eb:33:2e:f9:57:b5, 2085-97-155 05:41:245:3594,-0.905,-3.03,1.986,279.724,278.198,110.229,-17.232,-6.323,-126.656
 15:29:14.572,eb:33:2e:f9:57:b5, 2085-97-184 240:77:09:2604,-1.962,0.031,1.643,355.286,272.217,137.207,-13.98,-3.285,-126.233
 15:29:14.572,eb:33:2e:f9:57:b5, 2085-97-170 244:32:13:2526,-0.741,1.38,1.507,341.431,94.666,107.605,-10.53,-1.214,-125.458
 15:29:14.572,eb:33:2e:f9:57:b5, 2085-97-229 253:25:03:2469,-0.105,1.117,1.096,302.979,-10.071,-1.221,-7.289,-0.813,-125.046
 15:29:14.600,eb:33:2e:f9:57:b5, 2085-97-193 253:41:01:2164,-0.501,0.137,1.193,251.709,-5.981,-26.428,-4.543,-0.978,-125.228
 15:29:14.600,eb:33:2e:f9:57:b5, 2085-97-21 251:219:05:1835,-0.334,0.278,0.891,238.464,-9.521,-60.791,-2.115,-1.033,-125.645
 15:29:14.600,eb:33:2e:f9:57:b5, 2085-97-03 07:111:05:3012,0.69,-0.58,0.5,169.617,-113.159,-63.66,0.016,-1.692,-126.469
 15:29:14.600,eb:33:2e:f9:57:b5, 2085-97-155 02:196:06:2377,-0.115,0.864,2.059,109.192,-13.428,-13.123,1.384,-2.461,-126.87
 15:29:14.661,eb:33:2e:f9:57:b5, 2085-97-62 252:50:02:1374,-0.725,0.639,0.877,37.048,84.473,14.282,2.016,-1.906,-126.749
 15:29:14.661,eb:33:2e:f9:57:b5, 2085-97-38 252:215:00:1334,-0.03,-0.077,0.521,34.546,43.518,2.136,2.357,-1.203,-126.689
 15:29:14.661,eb:33:2e:f9:57:b5, 2085-97-184 01:75:02:2389,0.155,0.381,0.919,21.057,-1.526,-5.188,2.653,-1.099,-126.689
 15:29:14.661,eb:33:2e:f9:57:b5, 2085-97-09 00:138:00:2062,-0.176,0.136,1.145,7.507,41.077,7.507,2.774,-0.879,-126.672
 15:29:14.691,eb:33:2e:f9:57:b5, 2085-97-49 254:192:00:1640,-0.186,0.053,0.85,7.141,33.02,6.592,2.856,-0.45,-126.568
 15:29:14.691,eb:33:2e:f9:57:b5, 2085-97-247 254:151:00:1846,-0.09,0.085,0.845,5.432,1.648,-6.775,2.917,-0.313,-126.579
 15:29:14.691,eb:33:2e:f9:57:b5, 2085-97-103 255:91:00:2004,-0.053,0.067,0.955,3.723,-10.559,-8.179,2.972,-0.363,-126.656
 15:29:14.691,eb:33:2e:f9:57:b5, 2085-97-211 255:69:00:2171,-0.064,0.057,1.019,4.272,-19.043,-10.437,3.016,-0.522,-126.76
 15:29:14.721,eb:33:2e:f9:57:b5, 2085-97-184 255:67:00:2149,-0.03,0.037,1.035,5.31,-17.944,-9.216,3.076,-0.681,-126.848
 15:29:14.721,eb:33:2e:f9:57:b5, 2085-97-197 255:99:00:2093,-0.042,0.046,1.037,4.883,-18.372,-8.545,3.131,-0.862,-126.942
 15:29:14.721,eb:33:2e:f9:57:b5, 2085-97-151 255:37:00:2069,-0.013,0.038,1.01,4.272,-16.418,-6.165,3.186,-1.022,-127.024
 15:29:14.721,eb:33:2e:f9:57:b5, 2085-97-32 00:64:00:2109,0.023,0.026,1.02,5.432,-14.404,-1.709,3.241,-1.176,-127.062
 15:29:14.781,eb:33:2e:f9:57:b5, 2085-97-39 00:94:00:2099,0.036,0.036,1.039,6.104,-9.583,0.977,3.307,-1.285,-127.073
 15:29:14.781,eb:33:2e:f9:57:b5, 2085-97-56 00:112:00:2107,0.094,0.046,1.04,6.47,-7.141,0.061,3.373,-1.373,-127.068
 15:29:14.781,eb:33:2e:f9:57:b5, 2085-97-236 00:117:00:2191,0.099,0.102,1.018,4.639,-4.272,-3.601,3.439,-1.428,-127.095
 15:29:14.781,eb:33:2e:f9:57:b5, 2085-97-187 00:247:00:1984,0.177,0.107,1.006,2.93,0.427,-5.981,3.477,-1.412,-127.112
 15:29:14.811,eb:33:2e:f9:57:b5, 2085-97-30 01:137:00:2238,0.08,0.08,1.079,0.122,13.55,-4.395,3.505,-1.379,-127.2
 15:29:14.811,eb:33:2e:f9:57:b5, 2085-97-21 00:129:00:2036,0.169,0.085,1.006,-1.221,19.531,-7.446,3.499,-1.154,-127.211
 15:29:14.811,eb:33:2e:f9:57:b5, 2085-97-91 00:41:00:2122,-0.03,0.042,1.076,-1.282,25.94,-6.592,3.499,-0.967,-127.31
 15:29:14.811,eb:33:2e:f9:57:b5, 2085-97-200 255:115:00:1985,-0.032,0.07,0.945,-0.916,25.94,-6.104,3.488,-0.67,-127.337
 15:29:14.841,eb:33:2e:f9:57:b5, 2085-97-104 255:59:00:1977,-0.055,0.059,0.956,-0.916,23.682,-6.287,3.488,-0.412,-127.386
 15:29:14.841,eb:33:2e:f9:57:b5, 2085-97-104 255:60:00:1973,-0.052,0.042,0.949,0.244,19.348,-5.615,3.488,-0.198,-127.43
 15:29:14.841,eb:33:2e:f9:57:b5, 2085-97-215 255:114:00:1998,-0.003,0.04,0.97,1.892,13.245,-6.47,3.51,-0.027,-127.485
 15:29:14.841,eb:33:2e:f9:57:b5, 2085-97-248 255:53:00:2540,-0.03,0.074,0.933,8.179,3.235,-11.841,3.549,0.049,-127.579
 15:29:14.900,eb:33:2e:f9:57:b5, 2085-97-250 00:52:00:2241,-0.164,0.097,0.896,5.737,0.916,-13.977,3.615,0.148,-127.678
 15:29:14.900,eb:33:2e:f9:57:b5, 2085-97-188 02:137:00:2541,0.026,0.109,0.86,4.761,4.639,-20.203,3.653,0.28,-127.782
 15:29:14.900,eb:33:2e:f9:57:b5, 2085-97-126 254:134:00:1816,0.035,0.082,0.993,0,47.791,-0.061,3.686,0.654,-127.842
 15:29:14.900,eb:33:2e:f9:57:b5, 2085-97-113 255:93:00:1924,-0.092,-0.002,1.046,3.418,39.49,-11.047,3.708,1.027,-127.947
 15:29:14.931,eb:33:2e:f9:57:b5, 2085-97-80 255:107:00:1944,-0.084,0.058,0.951,4.456,24.597,-15.015,3.752,1.362,-128.046
 15:29:14.931,eb:33:2e:f9:57:b5, 2085-97-222 255:112:00:2104,-0.02,0.072,0.96,4.456,20.447,-16.846,3.796,1.582,-128.172
 15:29:14.931,eb:33:2e:f9:57:b5, 2085-97-229 255:140:00:2103,-0.038,0.091,0.992,3.967,25.024,-18.066,3.84,1.84,-128.331
 15:29:14.931,eb:33:2e:f9:57:b5, 2085-97-147 255:229:00:1959,-0.051,0.084,1.001,4.028,28.992,-18.677,3.884,2.126,-128.496
 15:29:14.961,eb:33:2e:f9:57:b5, 2085-97-188 255:159:00:2060,-0.018,0.043,1.037,4.333,28.259,-21.912,3.922,2.422,-128.699
 15:29:14.961,eb:33:2e:f9:57:b5, 2085-97-82 00:143:00:2152,0.091,0.062,1.024,3.723,25.574,-27.649,3.955,2.719,-128.93
 15:29:14.961,eb:33:2e:f9:57:b5, 2085-97-51 01:09:05:912,0.128,0.238,0.839,-4.211,27.649,-31.677,3.961,3.016,-129.205
 15:29:14.961,eb:33:2e:f9:57:b5, 2085-97-113 255:77:254:2669,-0.081,-0.167,1.57,-19.043,27.71,-44.922,3.752,3.17,-129.716
 15:29:15.021,eb:33:2e:f9:57:b5, 2085-97-14 00:189:00:2147,-0.098,0.363,0.53,-16.724,22.095,-46.021,3.625,3.625,-130.045
 15:29:15.021,eb:33:2e:f9:57:b5, 2085-97-97 254:211:252:3782,-0.074,-0.225,1.5,-7.751,36.438,-30.457,3.439,3.928,-130.424
 15:29:15.021,eb:33:2e:f9:57:b5, 2085-97-253 254:68:252:3696,-0.224,-0.45,2.139,40.955,42.297,-8.24,3.631,4.296,-130.622
 15:29:15.021,eb:33:2e:f9:57:b5, 2085-97-248 254:143:254:2950,-0.197,-0.196,1.399,66.589,44.006,32.288,4.213,4.823,-130.38
 15:29:15.111,eb:33:2e:f9:57:b5, 2085-97-03 254:211:252:3381,-0.2,-0.332,1.586,91.064,19.836,62.683,5.048,5.098,-129.891
 15:29:15.111,eb:33:2e:f9:57:b5, 2085-97-83 255:60:254:3270,-0.021,-0.324,1.622,121.094,-2.075,94.36,6.191,5.12,-129.067
 15:29:15.111,eb:33:2e:f9:57:b5, 2085-97-30 00:10:255:3419,0.002,-0.127,1.578,150.757,-36.194,100.83,7.657,4.828,-128.068
 15:29:15.111,eb:33:2e:f9:57:b5, 2085-97-230 255:47:254:3891,0.03,-0.155,1.787,173.828,-61.768,70.312,9.355,4.191,-127.277
 15:29:15.113,eb:33:2e:f9:57:b5, 2085-97-202 00:48:254:4167,0.186,-0.255,2.006,203.857,-74.158,25.085,11.277,3.439,-126.953
 15:29:15.113,eb:33:2e:f9:57:b5, 2085-97-71 02:253:253:4376,0.365,-0.249,2.158,240.662,-78.979,-17.273,13.513,2.67,-127.09
 15:29:15.113,eb:33:2e:f9:57:b5, 2085-97-200 03:85:254:4493,0.478,-0.198,2.182,282.532,-64.453,-52.673,16.128,2.065,-127.628
 15:29:15.113,eb:33:2e:f9:57:b5, 2085-97-147 02:76:251:4904,0.261,-0.347,2.192,325.134,-44.434,-91.919,19.182,1.752,-128.491
 15:29:15.142,eb:33:2e:f9:57:b5, 2085-97-123 02:245:250:5438,0.497,-0.671,2.64,363.098,24.536,-87.341,22.61,1.989,-129.402
 15:29:15.142,eb:33:2e:f9:57:b5, 2085-97-187 03:223:252:5126,0.394,-0.555,2.494,408.813,66.833,-79.285,26.472,2.807,-129.941
 15:29:15.142,eb:33:2e:f9:57:b5, 2085-97-103 04:195:252:6593,0.692,-0.373,2.947,437.988,99.121,-88.745,30.712,3.911,-130.342
 15:29:15.142,eb:33:2e:f9:57:b5, 2085-97-199 05:103:253:5994,0.495,-0.199,3.19,449.707,184.082,-58.105,35.233,5.493,-130.144
 15:29:15.172,eb:33:2e:f9:57:b5, 2085-97-249 04:162:00:4616,0.595,0.158,2.533,422.852,264.526,-39.917,39.71,7.635,-129.1
 15:29:15.172,eb:33:2e:f9:57:b5, 2085-97-38 05:135:249:7897,0.831,-0.296,3.076,407.349,211.975,-100.952,43.951,9.937,-128.073
 15:29:15.172,eb:33:2e:f9:57:b5, 2085-97-220 08:185:241:8137,1.332,-1.493,4.256,429.382,170.776,-181.519,48.131,12.299,-127.881
 15:29:15.172,eb:33:2e:f9:57:b5, 2085-97-174 15:95:244:7308,2.997,-1.563,3.344,460.938,183.716,-199.219,52.663,14.941,-127.694
 15:29:15.202,eb:33:2e:f9:57:b5, 2085-97-47 21:06:236:7106,0.644,-2.161,4.548,522.278,239.99,-228.516,57.596,17.897,-127.436
 15:29:15.202,eb:33:2e:f9:57:b5, 2085-97-70 04:71:246:-1290,0.541,-1.136,0.627,509.155,122.498,-289.185,63.27,21.028,-126.683
 15:29:15.202,eb:33:2e:f9:57:b5, 2085-97-166 04:89:243:-2436,0.206,-1.514,-0.394,344.055,-29.541,-238.953,67.028,23.632,-127.831
 15:29:15.202,eb:33:2e:f9:57:b5, 2085-97-17 01:17:250:-6235,0.074,-0.974,-2.283,92.163,15.991,-127.686,68.868,25.153,-128.6
 15:29:15.262,eb:33:2e:f9:57:b5, 2085-97-126 01:122:244:-818,0.357,-1.294,-2.039,-131.714,-35.217,-102.905,68.203,26.169,-129.144
 15:29:15.263,eb:33:2e:f9:57:b5, 2085-97-51 01:123:243:2846,0,-1.545,0.949,-231.628,-27.039,-55.359,65.885,26.724,-129.99
 15:29:15.263,eb:33:2e:f9:57:b5, 2085-97-199 00:234:244:2153,0.304,-1.508,1.324,-258.545,19.409,-8.179,63.32,26.966,-130.1
 15:29:15.263,eb:33:2e:f9:57:b5, 2085-97-176 01:118:248:638,0.226,-1.119,0.741,-278.015,42.236,41.26,60.815,26.927,-129.694
 15:29:15.292,eb:33:2e:f9:57:b5, 2085-97-135 02:22:250:346,0.356,-0.844,0.156,-294.006,17.273,51.025,58.178,26.675,-129.133
 15:29:15.292,eb:33:2e:f9:57:b5, 2085-97-209 03:202:251:468,0.529,-0.649,0.208,-308.105,-10.376,50.964,55.305,26.257,-128.782
 15:29:15.292,eb:33:2e:f9:57:b5, 2085-97-159 04:96:253:237,0.605,-0.414,0.16,-324.341,-38.818,44.922,52.163,25.714,-128.677
 15:29:15.292,eb:33:2e:f9:57:b5, 2085-97-24 05:219:253:364,0.649,-0.282,0.101,-338.928,-78.186,23.743,48.724,25.065,-128.936
 15:29:15.321,eb:33:2e:f9:57:b5, 2085-97-27 05:01:254:792,0.612,-0.257,0.286,-347.107,-111.511,-0.366,44.984,24.307,-129.639
 15:29:15.321,eb:33:2e:f9:57:b5, 2085-97-145 04:25:254:1104,0.532,-0.24,0.492,-350.159,-140.137,-24.719,41.078,23.456,-130.677
 15:29:15.321,eb:33:2e:f9:57:b5, 2085-97-238 03:239:253:1284,0.45,-0.237,0.574,-354.919,-159.607,-40.649,37.035,22.467,-131.99
 15:29:15.321,eb:33:2e:f9:57:b5, 2085-97-50 03:132:253:1555,0.349,-0.285,0.699,-361.816,-176.147,-52.368,32.921,21.335,-133.429
 15:29:15.383,eb:33:2e:f9:57:b5, 2085-97-102 02:211:252:1833,0.252,-0.353,0.822,-369.568,-190.125,-56.091,28.718,20.012,-134.923
 15:29:15.383,eb:33:2e:f9:57:b5, 2085-97-127 01:08:252:2193,-0.018,-0.443,0.973,-372.681,-204.529,-54.016,24.538,18.468,-136.362
 15:29:15.383,eb:33:2e:f9:57:b5, 2085-97-177 255:55:251:2703,0.022,-0.56,1.275,-369.69,-211.67,-40.161,20.429,16.683,-137.626
 15:29:15.383,eb:33:2e:f9:57:b5, 2085-97-122 00:127:252:2953,-0.013,-0.542,1.08,-355.652,-227.051,-20.447,16.54,14.711,-138.582
 15:29:15.411,eb:33:2e:f9:57:b5, 2085-113-58 00:241:225:-6390,-0.03,-0.491,1.551,-329.529,-242.126,-1.221,12.936,12.415,-139.279
 15:29:15.411,eb:33:2e:f9:57:b5, 2085-97-215 255:79:252:3858,-0.023,-0.494,1.705,-314.331,-244.446,7.935,11.294,11.212,-139.499
 15:29:15.411,eb:33:2e:f9:57:b5, 2085-97-190 255:110:253:4419,-0.04,-0.398,2.066,-282.043,-239.746,28.87,8.295,8.778,-139.686
 15:29:15.412,eb:33:2e:f9:57:b5, 2085-97-154 255:85:255:4372,-0.069,-0.218,2.172,-259.888,-230.53,43.335,5.603,6.405,-139.559
 15:29:15.442,eb:33:2e:f9:57:b5, 2085-97-68 255:78:00:4243,-0.13,0.008,2.07,-263.672,-240.723,47.18,3.032,4.037,-139.241
 15:29:15.442,eb:33:2e:f9:57:b5, 2085-97-141 254:164:255:4994,-0.266,0.016,2.174,-287.781,-260.925,52.307,0.264,1.5,-138.785
 15:29:15.442,eb:33:2e:f9:57:b5, 2085-97-44 253:126:255:6504,-0.428,-0.072,2.806,-305.176,-270.081,68.726,-2.725,-1.148,-138.076
 15:29:15.442,eb:33:2e:f9:57:b5, 2085-97-62 252:177:00:7265,-0.488,-0.028,3.432,-308.838,-241.333,93.323,-5.883,-3.658,-137.038
 15:29:15.502,eb:33:2e:f9:57:b5, 2085-97-109 251:163:05:6576,-0.685,0.327,3.502,-304.993,-184.814,126.831,-9.086,-5.576,-135.621
 15:29:15.502,eb:33:2e:f9:57:b5, 2085-97-140 249:182:11:5546,-0.872,1.098,2.892,-294.25,-180.542,136.23,-12.305,-7.037,-133.923
 15:29:15.502,eb:33:2e:f9:57:b5, 2085-97-48 248:172:14:5299,-1.028,1.636,2.659,-285.034,-208.862,121.765,-15.436,-8.641,-132.166
 15:29:15.502,eb:33:2e:f9:57:b5, 2085-97-166 248:141:18:5142,-0.811,2.08,2.508,-294.128,-198.425,113.586,-18.649,-10.272,-130.38
 15:29:15.532,eb:33:2e:f9:57:b5, 2085-97-80 250:213:24:5398,-0.585,2.663,2.576,-307.007,-130.737,113.953,-22.006,-11.404,-128.683
 15:29:15.532,eb:33:2e:f9:57:b5, 2085-97-30 252:198:34:5202,-0.458,3.672,2.645,-276.611,-46.753,87.524,-25.247,-11.739,-127.375
 15:29:15.532,eb:33:2e:f9:57:b5, 2085-97-192 250:170:46:3435,-0.969,5.126,2.21,-179.077,-6.409,17.761,-27.658,-11.646,-126.804
 15:29:15.532,eb:33:2e:f9:57:b5, 2085-97-46 246:162:48:2412,-1.518,6.232,1.202,-29.846,-89.539,-116.821,-28.586,-12.288,-127.04
 15:29:15.562,eb:33:2e:f9:57:b5, 2085-97-174 241:166:40:3664,-1.984,5.625,1.455,84.351,-148.56,-218.201,-27.977,-14.304,-127.991
 15:29:15.562,eb:33:2e:f9:57:b5, 2085-97-153 242:160:26:6518,-5.519,4.502,2.154,138.428,-108.765,-252.747,-26.356,-16.622,-129.562
 15:29:15.562,eb:33:2e:f9:57:b5, 2085-97-73 234:149:09:-554,0.748,-5.359,9.314,174.194,503.662,127.808,-24.335,-16.985,-131.83
 15:29:15.562,eb:33:2e:f9:57:b5, 2085-97-101 21:52:232:342,3.564,-0.814,-1.574,96.008,326.05,-25.818,-22.511,-13.546,-133.687
 15:29:15.622,eb:33:2e:f9:57:b5, 2085-97-01 21:244:224:2608,1.257,-4.163,1.016,145.264,301.575,39.734,-21.242,-10.679,-134.791
 15:29:15.622,eb:33:2e:f9:57:b5, 2085-97-158 253:10:255:1062,-1.283,-2.098,1.341,310.242,313.293,113.464,-18.776,-7.454,-135.148
 15:29:15.622,eb:33:2e:f9:57:b5, 2085-97-186 238:56:09:2563,-1.704,1.23,0.662,315.125,215.088,140.442,-15.562,-4.565,-134.714
 15:29:15.623,eb:33:2e:f9:57:b5, 2085-97-178 247:116:04:3275,-0.557,0.887,1.391,319.641,71.35,118.652,-12.497,-3.032,-133.77
 15:29:15.652,eb:33:2e:f9:57:b5, 2085-97-111 253:169:05:2777,-0.329,0.607,1.559,313.538,-17.761,33.203,-9.371,-2.648,-133.083
 15:29:15.652,eb:33:2e:f9:57:b5, 2085-97-203 251:204:05:2079,-0.594,0.775,1.096,279.419,-39.978,-49.866,-6.383,-3.038,-133.165
 15:29:15.652,eb:33:2e:f9:57:b5, 2085-97-98 252:249:255:2017,-0.01,0.502,1.012,257.874,-26.855,-95.398,-3.702,-3.444,-133.907
 15:29:15.652,eb:33:2e:f9:57:b5, 2085-97-39 04:19:249:2044,1.275,0.273,1.106,220.215,-71.167,-104.675,-1.121,-3.911,-134.868
 15:29:15.682,eb:33:2e:f9:57:b5, 2085-97-147 04:118:12:3511,0.013,1.529,2.021,157.41,-77.637,-18.433,0.791,-4.867,-135.198
 15:29:15.682,eb:33:2e:f9:57:b5, 2085-97-163 252:236:02:1671,-0.602,0.563,1.107,51.453,86.792,18.921,1.752,-4.664,-135.253
 15:29:15.682,eb:33:2e:f9:57:b5, 2085-97-188 250:199:255:1013,-0.422,-0.101,0.602,34.363,80.75,21.118,2.104,-3.713,-135.038
 15:29:15.682,eb:33:2e:f9:57:b5, 2085-97-180 00:58:02:1996,0.324,0.287,0.534,34.729,-12.39,-7.446,2.494,-3.406,-134.967
 15:29:15.741,eb:33:2e:f9:57:b5, 2085-97-216 01:219:00:2376,-0.049,0.154,1.226,17.639,26.184,8.423,2.741,-3.417,-134.984
 15:29:15.741,eb:33:2e:f9:57:b5, 2085-97-22 254:162:00:1628,-0.187,0.071,0.954,11.841,56.274,19.592,2.873,-2.9,-134.797
 15:29:15.741,eb:33:2e:f9:57:b5, 2085-97-89 255:229:00:1845,-0.045,0.123,0.812,10.437,13,4.333,2.977,-2.582,-134.665
 15:29:15.741,eb:33:2e:f9:57:b5, 2085-97-168 255:123:00:2049,-0.059,0.093,0.955,7.629,-5.188,-1.892,3.076,-2.56,-134.665
 15:29:15.771,eb:33:2e:f9:57:b5, 2085-97-121 255:76:00:2033,-0.01,0.047,0.995,8.85,-12.512,-3.845,3.159,-2.642,-134.687
 15:29:15.771,eb:33:2e:f9:57:b5, 2085-97-00 00:81:00:2155,0.035,0.03,1.042,8.423,-15.625,-1.16,3.257,-2.791,-134.731
 15:29:15.771,eb:33:2e:f9:57:b5, 2085-97-146 00:94:00:2260,0.074,0.052,1.085,8.179,-11.292,0.61,3.34,-2.933,-134.736
 15:29:15.771,eb:33:2e:f9:57:b5, 2085-97-76 00:108:00:2118,0.002,0.045,1.086,7.202,2.563,4.761,3.422,-2.955,-134.709
 15:29:15.801,eb:33:2e:f9:57:b5, 2085-97-255 255:109:00:2020,0.018,0.052,0.998,8.362,-2.625,0,3.499,-2.95,-134.681
 15:29:15.801,eb:33:2e:f9:57:b5, 2085-97-113 00:102:00:2082,0.099,0.032,1.007,8.24,-8.179,-0.671,3.598,-3.005,-134.692
 15:29:15.801,eb:33:2e:f9:57:b5, 2085-97-07 01:105:00:2171,0.161,0.045,1.045,8.118,-7.385,-1.892,3.68,-3.093,-134.714
 15:29:15.801,eb:33:2e:f9:57:b5, 2085-97-115 01:137:00:2184,0.181,0.066,1.048,7.141,-0.305,-3.113,3.768,-3.115,-134.742
 15:29:15.862,eb:33:2e:f9:57:b5, 2085-97-108 01:164:00:2145,0.146,0.083,1.058,4.7,10.986,-4.211,3.829,-3.054,-134.775
 15:29:15.862,eb:33:2e:f9:57:b5, 2085-97-246 00:157:00:2104,0.117,0.067,1.043,2.319,21.606,-5.31,3.873,-2.873,-134.813
 15:29:15.862,eb:33:2e:f9:57:b5, 2085-97-251 00:154:00:2127,0.109,0.085,1.027,0.793,29.114,-8.972,3.895,-2.62,-134.874
 15:29:15.862,eb:33:2e:f9:57:b5, 2085-97-118 00:134:00:2026,-0.014,0.064,1.028,0.122,38.452,-10.498,3.906,-2.263,-134.962
 15:29:15.892,eb:33:2e:f9:57:b5, 2085-97-152 255:113:00:1931,-0.046,0.066,0.953,-0.061,38.635,-11.292,3.911,-1.857,-135.044
 15:29:15.892,eb:33:2e:f9:57:b5, 2085-97-205 255:130:00:1976,0.003,0.048,0.955,0.183,33.691,-11.414,3.928,-1.489,-135.143
 15:29:15.892,eb:33:2e:f9:57:b5, 2085-97-66 00:176:00:2023,0.061,0.052,0.992,0.244,34.119,-12.085,3.933,-1.148,-135.247
 15:29:15.892,eb:33:2e:f9:57:b5, 2085-97-17 00:210:00:1908,0.034,0.082,0.983,-3.662,38.025,-16.357,3.933,-0.786,-135.374
 15:29:15.951,eb:33:2e:f9:57:b5, 2085-97-101 00:24:01:1939,0.041,0.079,1.014,-6.958,38.391,-21.118,3.873,-0.401,-135.549
 15:29:15.951,eb:33:2e:f9:57:b5, 2085-97-55 00:03:01:1959,0.043,0.083,0.971,-9.583,46.143,-23.071,3.796,0.038,-135.758
 15:29:15.951,eb:33:2e:f9:57:b5, 2085-97-18 00:152:00:2014,-0.104,0.121,1.007,-8.057,50.415,-27.527,3.708,0.522,-135.978
 15:29:15.951,eb:33:2e:f9:57:b5, 2085-97-177 254:247:255:1941,-0.148,0.04,0.929,-6.165,53.65,-22.4,3.636,1.099,-136.181
 15:29:15.951,eb:33:2e:f9:57:b5, 2085-97-199 254:15:00:1978,-0.13,0.018,0.955,-1.587,43.64,-20.447,3.598,1.582,-136.368
 15:29:15.981,eb:33:2e:f9:57:b5, 2085-113-58 00:29:227:-6285,-0.126,0.017,0.967,2.319,35.583,-19.165,3.609,1.994,-136.549
 15:29:15.981,eb:33:2e:f9:57:b5, 2085-97-185 254:243:255:2004,-0.167,-0.001,1.003,4.639,33.813,-18.372,3.625,2.17,-136.631
 15:29:15.981,eb:33:2e:f9:57:b5, 2085-97-29 255:96:00:2024,-0.084,0.038,0.933,7.263,21.606,-18.066,3.691,2.461,-136.791
 15:29:15.981,eb:33:2e:f9:57:b5, 2085-97-182 255:106:01:1788,-0.038,0.079,0.972,5.249,17.09,-16.663,3.757,2.664,-136.956
 15:29:16.012,eb:33:2e:f9:57:b5, 2085-97-177 255:193:00:2021,-0.027,0.223,0.802,-4.211,3.906,-27.1,3.768,2.796,-137.164
 15:29:16.012,eb:33:2e:f9:57:b5, 2085-97-126 255:24:00:2162,-0.137,0.155,0.934,-10.193,2.502,-30.579,3.686,2.845,-137.45
 15:29:16.012,eb:33:2e:f9:57:b5, 2085-97-198 255:23:00:2280,-0.067,-0.117,1.123,-8.728,11.719,-18.127,3.576,2.933,-137.692
 15:29:16.013,eb:33:2e:f9:57:b5, 2085-97-77 255:125:255:2412,-0.117,0.047,1.033,-5.92,8.911,-11.719,3.499,3.054,-137.84
 15:29:16.071,eb:33:2e:f9:57:b5, 2085-97-123 255:02:254:3312,-0.021,-0.18,1.425,19.775,-18.127,-2.93,3.549,3.032,-137.906
 15:29:16.071,eb:33:2e:f9:57:b5, 2085-97-47 255:237:250:4952,-0.199,-0.356,2.04,70.007,-42.786,6.592,4.048,2.653,-137.922
 15:29:16.071,eb:33:2e:f9:57:b5, 2085-97-195 254:97:253:3414,-0.001,-0.668,2.161,98.022,-3.296,75.989,4.922,2.444,-137.505
 15:29:16.071,eb:33:2e:f9:57:b5, 2085-97-98 00:179:255:2854,0.059,-0.043,1.3,128.784,-44.312,80.383,6.097,2.181,-136.675
 15:29:16.131,eb:33:2e:f9:57:b5, 2085-97-33 01:27:254:3963,0.173,-0.135,1.667,151.917,-77.087,58.716,7.542,1.445,-136.071
 15:29:16.131,eb:33:2e:f9:57:b5, 2085-97-108 01:30:254:3879,0.161,-0.289,1.953,176.086,-70.19,46.326,9.19,0.632,-135.643
 15:29:16.131,eb:33:2e:f9:57:b5, 2085-97-23 01:127:253:4054,0.195,-0.222,1.864,205.872,-72.693,1.099,11.118,-0.077,-135.527
 15:29:16.131,eb:33:2e:f9:57:b5, 2085-97-50 02:98:252:4828,0.302,-0.364,2.255,242.615,-70.312,-38.025,13.381,-0.758,-135.901
 15:29:16.133,eb:33:2e:f9:57:b5, 2085-97-253 03:64:254:4546,0.637,-0.427,2.317,286.194,-30.701,-52.49,16.057,-1.132,-136.472
 15:29:16.133,eb:33:2e:f9:57:b5, 2085-97-35 05:220:252:4192,0.538,-0.282,2.045,328.796,-14.954,-84.839,19.177,-1.121,-137.197
 15:29:16.133,eb:33:2e:f9:57:b5, 2085-97-193 02:173:250:5415,0.271,-0.677,2.312,369.446,23.438,-102.905,22.709,-0.764,-138.131
 15:29:16.133,eb:33:2e:f9:57:b5, 2085-97-175 03:08:252:5985,0.478,-0.432,2.877,411.194,97.412,-81.848,26.642,0.192,-138.702
 15:29:16.222,eb:33:2e:f9:57:b5, 2085-97-109 03:179:253:6069,0.617,-0.491,2.846,436.401,168.701,-53.955,30.927,1.686,-138.686
 15:29:16.222,eb:33:2e:f9:57:b5, 2085-97-240 04:250:00:5298,0.624,0.257,2.671,428.65,263.428,-16.846,35.327,3.719,-137.736
 15:29:16.222,eb:33:2e:f9:57:b5, 2085-97-159 08:220:255:7163,1.185,0.11,2.592,379.944,293.03,-8.362,39.424,6.108,-136.11
 15:29:16.222,eb:33:2e:f9:57:b5, 2085-97-154 07:36:248:9548,0.95,-0.458,4.729,434.143,195.374,-113.77,43.572,8.306,-134.918
 15:29:16.224,eb:33:2e:f9:57:b5, 2085-97-61 10:229:248:6204,1.869,-1.266,3.432,470.581,182.251,-191.284,48.197,10.783,-134.786
 15:29:16.224,eb:33:2e:f9:57:b5, 2085-97-13 22:171:244:9034,3.551,-0.965,3.467,488.098,154.602,-261.719,52.91,13.618,-134.995
 15:29:16.224,eb:33:2e:f9:57:b5, 2085-97-85 15:53:241:4815,0.588,-2.155,4.574,563.721,257.629,-270.996,58.151,17.117,-134.929
 15:29:16.224,eb:33:2e:f9:57:b5, 2085-97-56 05:24:244:-794,0.696,-1.058,0.158,496.094,87.585,-337.952,63.715,20.599,-134.747
 15:29:16.252,eb:33:2e:f9:57:b5, 2085-97-200 04:151:245:-2908,-0.147,-1.404,-0.326,336.975,-16.418,-265.32,67.374,23.439,-136
 15:29:16.252,eb:33:2e:f9:57:b5, 2085-97-55 255:43:251:-6649,0.189,-0.677,-2.848,79.529,14.099,-159.729,69.159,25.285,-136.637
 15:29:16.252,eb:33:2e:f9:57:b5, 2085-97-38 03:136:245:-708,0.46,-1.145,-1.877,-144.897,-34.485,-127.441,68.275,26.576,-137.444
 15:29:16.252,eb:33:2e:f9:57:b5, 2085-97-167 02:208:244:2565,0.069,-1.395,0.74,-252.869,-10.742,-76.66,65.797,27.378,-138.214
 15:29:16.311,eb:33:2e:f9:57:b5, 2085-97-161 00:191:245:2395,0.209,-1.342,1.258,-288.635,44.861,-16.602,63.034,27.839,-138.17
 15:29:16.311,eb:33:2e:f9:57:b5, 2085-97-01 02:123:248:1065,0.243,-1.123,0.899,-298.462,75.317,21.912,60.403,28.109,-137.51
 15:29:16.311,eb:33:2e:f9:57:b5, 2085-97-16 03:164:250:360,0.428,-0.794,0.239,-310.669,64.514,39.551,57.744,28.202,-136.626
 15:29:16.311,eb:33:2e:f9:57:b5, 2085-97-01 04:230:251:217,0.539,-0.582,0.122,-328.003,51.697,50.781,54.937,28.147,-135.764
 15:29:16.342,eb:33:2e:f9:57:b5, 2085-97-189 04:25:253:047,0.637,-0.425,0.057,-340.271,23.56,48.157,51.888,27.971,-135.082
 15:29:16.342,eb:33:2e:f9:57:b5, 2085-97-87 05:201:253:013,0.693,-0.303,0.005,-348.877,-20.142,33.813,48.576,27.653,-134.78
 15:29:16.342,eb:33:2e:f9:57:b5, 2085-97-160 05:200:253:264,0.707,-0.272,0.053,-356.201,-66.345,16.602,44.94,27.153,-134.973
 15:29:16.342,eb:33:2e:f9:57:b5, 2085-97-84 05:201:253:637,0.644,-0.28,0.236,-362.366,-102.234,4.456,41.089,26.439,-135.549
 15:29:16.370,eb:33:2e:f9:57:b5, 2085-97-223 04:201:253:1005,0.59,-0.272,0.405,-367.554,-131.592,-3.052,37.057,25.499,-136.379
 15:29:16.370,eb:33:2e:f9:57:b5, 2085-97-42 04:145:253:1378,0.479,-0.297,0.599,-371.704,-151.001,-3.662,32.975,24.335,-137.307
 15:29:16.370,eb:33:2e:f9:57:b5, 2085-97-117 03:79:253:1616,0.392,-0.319,0.735,-370.605,-169.006,0.366,28.878,22.945,-138.214
 15:29:16.370,eb:33:2e:f9:57:b5, 2085-97-141 02:27:253:1793,0.275,-0.352,0.838,-364.014,-186.523,10.803,24.917,21.313,-138.999
 15:29:16.432,eb:33:2e:f9:57:b5, 2085-97-46 02:214:252:2243,0.269,-0.383,0.927,-355.652,-205.566,27.405,21.094,19.413,-139.609
 15:29:16.432,eb:33:2e:f9:57:b5, 2085-97-164 01:51:253:2675,0.169,-0.339,1.256,-348.511,-205.566,49.438,17.49,17.303,-139.905
 15:29:16.432,eb:33:2e:f9:57:b5, 2085-97-225 01:07:254:2309,0.459,-0.396,1.469,-344.482,-203.43,73.425,14.019,15.123,-139.856
 15:29:16.432,eb:33:2e:f9:57:b5, 2085-97-81 03:77:254:2967,0.448,-0.271,1.432,-335.632,-219.238,84.778,10.684,12.843,-139.526
 15:29:16.462,eb:33:2e:f9:57:b5, 2085-97-11 04:23:255:3584,0.519,-0.177,1.572,-316.467,-225.708,90.332,7.509,10.503,-138.961
 15:29:16.462,eb:33:2e:f9:57:b5, 2085-97-20 04:214:00:4039,0.456,-0.012,1.9,-289.429,-225.647,92.651,4.603,8.163,-138.241
 15:29:16.462,eb:33:2e:f9:57:b5, 2085-97-134 03:234:01:4246,0.411,0.176,2.022,-264.893,-231.14,83.557,1.912,5.845,-137.444
 15:29:16.462,eb:33:2e:f9:57:b5, 2085-97-233 02:91:02:4163,0.333,0.279,2.044,-263.123,-242.31,71.899,-0.637,3.477,-136.67
 15:29:16.492,eb:33:2e:f9:57:b5, 2085-97-142 02:69:01:5084,0.251,0.253,2.167,-285.706,-261.78,64.575,-3.384,0.978,-135.868
 15:29:16.492,eb:33:2e:f9:57:b5, 2085-97-28 01:107:01:6559,0.021,0.11,2.863,-306.152,-264.771,76.477,-6.378,-1.599,-134.918
 15:29:16.492,eb:33:2e:f9:57:b5, 2085-97-163 254:00:06:6191,-0.312,0.379,3.315,-301.941,-226.807,99.731,-9.536,-3.906,-133.66
 15:29:16.492,eb:33:2e:f9:57:b5, 2085-97-154 252:87:11:5499,-0.592,1.131,2.716,-278.625,-247.131,94.91,-12.568,-5.944,-132.188
 15:29:16.552,eb:33:2e:f9:57:b5, 2085-97-152 249:129:13:5848,-1.047,1.573,2.771,-257.263,-305.725,69.824,-15.458,-8.465,-130.671
 15:29:16.552,eb:33:2e:f9:57:b5, 2085-97-05 246:229:15:6507,-1.315,1.808,2.998,-239.99,-339.6,57.373,-18.226,-11.393,-129.062
 15:29:16.552,eb:33:2e:f9:57:b5, 2085-97-120 246:138:20:7403,-0.927,2.236,3.388,-223.572,-288.147,61.584,-20.94,-14.222,-127.343
 15:29:16.552,eb:33:2e:f9:57:b5, 2085-97-183 249:174:30:7113,-0.841,3.194,3.711,-213.074,-81.848,86.548,-23.522,-15.661,-125.859
 15:29:16.581,eb:33:2e:f9:57:b5, 2085-97-120 247:87:40:4088,-1.36,4.476,2.825,-169.8,57.495,55.786,-25.648,-15.249,-125.195
 15:29:16.581,eb:33:2e:f9:57:b5, 2085-97-158 242:102:43:1651,-1.938,5.358,1.275,-84.778,20.874,-29.114,-26.873,-14.771,-125.321
 15:29:16.581,eb:33:2e:f9:57:b5, 2085-97-88 239:51:39:2479,-1.677,5.253,0.776,20.264,-79.834,-106.262,-27.01,-15.43,-125.826
 15:29:16.581,eb:33:2e:f9:57:b5, 2085-97-114 228:227:22:610,-3.72,0.52,6.944,171.082,-10.01,-91.37,-25.988,-17.128,-126.579
 15:29:16.612,eb:33:2e:f9:57:b5, 2085-97-200 250:189:03:-2153,1.62,0.181,2.737,230.53,319.824,77.271,-23.478,-13.678,-126.898
 15:29:16.612,eb:33:2e:f9:57:b5, 2085-97-95 23:19:235:3307,2.695,-1.041,-0.131,129.211,204.102,8.179,-21.66,-11.42,-127.661
 15:29:16.613,eb:33:2e:f9:57:b5, 2085-97-244 13:152:239:4239,0.438,-3.361,1.884,230.469,236.877,29.48,-19.748,-9.443,-128.364
 15:29:16.613,eb:33:2e:f9:57:b5, 2085-97-123 249:245:06:2194,-1.838,-0.411,1.492,329.773,288.513,51.025,-16.71,-6.729,-128.848
 15:29:16.671,eb:33:2e:f9:57:b5, 2085-97-159 241:11:07:3042,-1.16,1.464,0.971,305.725,200.439,36.804,-13.469,-4.12,-129.073
 15:29:16.671,eb:33:2e:f9:57:b5, 2085-97-59 252:129:03:2838,-0.386,0.698,1.498,314.697,75.256,15.442,-10.338,-2.851,-129.056
 15:29:16.671,eb:33:2e:f9:57:b5, 2085-97-167 253:158:02:2237,-0.247,0.433,0.992,276.55,-5.92,-28.198,-7.311,-2.587,-129.21
 15:29:16.671,eb:33:2e:f9:57:b5, 2085-97-94 253:251:02:2138,-0.312,0.349,1.131,237.671,13.794,-45.288,-4.768,-2.648,-129.578
 15:29:16.701,eb:33:2e:f9:57:b5, 2085-97-176 254:02:00:1640,0.517,0.183,0.945,224.915,6.836,-76.05,-2.428,-2.527,-130.232
 15:29:16.701,eb:33:2e:f9:57:b5, 2085-97-44 07:24:07:3601,0.37,-0.549,1.041,163.269,-64.27,-30.273,-0.566,-2.961,-130.902
 15:29:16.701,eb:33:2e:f9:57:b5, 2085-97-108 00:110:06:2084,-0.454,1.239,1.462,93.384,20.813,-4.944,0.736,-3.159,-131.05
 15:29:16.701,eb:33:2e:f9:57:b5, 2085-97-187 250:59:01:1268,-0.63,0.555,0.727,36.499,80.566,7.751,1.285,-2.516,-130.952
 15:29:16.731,eb:33:2e:f9:57:b5, 2085-97-143 254:170:01:1704,0.027,-0.067,0.628,31.494,18.127,-1.648,1.609,-2.01,-130.957
 15:29:16.731,eb:33:2e:f9:57:b5, 2085-97-172 00:63:01:2300,0.013,0.258,1.011,18.372,-0.549,-9.277,1.873,-2.027,-131.028
 15:29:16.731,eb:33:2e:f9:57:b5, 2085-97-159 254:66:00:1802,-0.159,0.126,0.988,8.911,37.537,2.93,2,-1.774,-131.028
 15:29:16.731,eb:33:2e:f9:57:b5, 2085-97-65 255:147:00:1912,-0.072,0.037,0.886,7.324,17.944,1.404,2.082,-1.505,-131.001
 15:29:16.791,eb:33:2e:f9:57:b5, 2085-97-144 255:142:00:2028,-0.03,0.095,0.95,4.639,3.967,-3.357,2.148,-1.39,-131.001
 15:29:16.791,eb:33:2e:f9:57:b5, 2085-97-54 255:237:255:2065,-0.056,0.032,1.04,4.395,-1.77,-5.859,2.192,-1.395,-131.056
 15:29:16.791,eb:33:2e:f9:57:b5, 2085-97-178 255:237:255:2136,-0.062,-0.024,1.068,8.423,-9.277,-6.042,2.274,-1.461,-131.116
 15:29:16.791,eb:33:2e:f9:57:b5, 2085-97-26 00:77:00:2145,0.047,0.027,0.998,9.705,-15.747,-6.409,2.368,-1.571,-131.171
 15:29:16.823,eb:33:2e:f9:57:b5, 2085-97-29 00:80:00:2127,-0.003,0.047,1.067,7.385,-5.249,-2.38,2.466,-1.675,-131.215
 15:29:16.823,eb:33:2e:f9:57:b5, 2085-97-247 255:56:00:2090,0.025,0.034,1.02,5.554,-2.258,-1.038,2.532,-1.703,-131.232
 15:29:16.823,eb:33:2e:f9:57:b5, 2085-97-83 00:69:00:2112,0.004,0.034,1.031,5.676,0.793,-0.854,2.598,-1.703,-131.243
 15:29:16.823,eb:33:2e:f9:57:b5, 2085-113-58 00:77:224:-7140,0.069,0.015,1.021,5.249,-0.244,-2.014,2.653,-1.692,-131.265
 15:29:16.853,eb:33:2e:f9:57:b5, 2085-97-206 00:137:00:2079,0.097,0.024,1.051,4.822,3.845,0.183,2.681,-1.686,-131.265
 15:29:16.853,eb:33:2e:f9:57:b5, 2085-97-169 00:146:00:2077,0.069,0.05,1.039,2.502,11.353,0.793,2.725,-1.599,-131.265
 15:29:16.853,eb:33:2e:f9:57:b5, 2085-97-166 00:90:00:2103,0.074,0.058,1.012,0.183,13.062,-2.258,2.736,-1.478,-131.27
 15:29:16.853,eb:33:2e:f9:57:b5, 2085-97-129 00:55:00:2116,0.07,0.032,1.029,-0.549,18.066,-2.808,2.747,-1.307,-131.292
 15:29:16.911,eb:33:2e:f9:57:b5, 2085-97-152 00:137:00:2085,0.05,0.058,1.03,-1.221,21.667,-3.723,2.736,-1.104,-131.314
 15:29:16.911,eb:33:2e:f9:57:b5, 2085-97-71 00:101:00:2075,-0.004,0.062,0.997,-3.052,25.757,-5.371,2.725,-0.851,-131.353
 15:29:16.911,eb:33:2e:f9:57:b5, 2085-97-130 255:58:00:1957,-0.07,0.049,0.982,-2.319,28.503,-5.92,2.703,-0.571,-131.402
 15:29:16.911,eb:33:2e:f9:57:b5, 2085-97-120 255:17:00:1981,-0.058,0.027,0.944,-0.61,22.888,-7.202,2.697,-0.302,-131.457
 15:29:16.942,eb:33:2e:f9:57:b5, 2085-97-159 255:27:00:2031,-0.001,0.003,0.987,2.075,20.752,-6.592,2.708,-0.082,-131.517
 15:29:16.942,eb:33:2e:f9:57:b5, 2085-97-12 254:170:00:1873,0.269,0.048,1,7.324,12.146,-11.475,2.758,0.115,-131.589
 15:29:16.942,eb:33:2e:f9:57:b5, 2085-97-68 00:36:00:2003,-0.178,-0.038,1.335,1.038,36.255,-3.174,2.812,0.181,-131.754
 15:29:16.942,eb:33:2e:f9:57:b5, 2085-97-136 00:82:00:2206,0.029,0.077,0.851,4.028,14.709,-18.311,2.851,0.489,-131.83
 15:29:16.971,eb:33:2e:f9:57:b5, 2085-97-154 255:136:00:1868,-0.068,0.091,0.991,1.465,37.17,-10.193,2.878,0.78,-131.935
 15:29:16.971,eb:33:2e:f9:57:b5, 2085-97-178 255:128:00:1959,-0.064,0.034,0.971,0.427,28.931,-15.93,2.889,1.143,-132.056
 15:29:16.971,eb:33:2e:f9:57:b5, 2085-97-163 255:191:00:1937,-0.054,0.09,0.94,-0.549,27.588,-19.775,2.889,1.439,-132.22
 15:29:16.971,eb:33:2e:f9:57:b5, 2085-97-137 255:189:00:1903,-0.084,0.072,0.959,-2.197,29.968,-20.874,2.878,1.747,-132.413
 15:29:17.032,eb:33:2e:f9:57:b5, 2085-97-86 255:91:00:1995,-0.065,0.007,1.032,-1.77,32.776,-21.362,2.845,2.06,-132.627
 15:29:17.032,eb:33:2e:f9:57:b5, 2085-97-114 255:42:00:2129,-0.058,0.027,1.007,-0.488,33.325,-19.409,2.84,2.401,-132.825
 15:29:17.032,eb:33:2e:f9:57:b5, 2085-97-143 255:09:00:2162,-0.058,0.022,1.037,1.221,34.607,-16.602,2.84,2.758,-132.984
 15:29:17.032,eb:33:2e:f9:57:b5, 2085-97-133 255:37:00:2127,-0.062,0.018,1.034,3.296,36.499,-16.113,2.867,3.137,-133.138
 15:29:17.061,eb:33:2e:f9:57:b5, 2085-97-187 255:201:01:1512,-0.041,0.071,0.977,1.77,35.4,-17.212,2.889,3.51,-133.286
 15:29:17.061,eb:33:2e:f9:57:b5, 2085-97-188 255:68:255:2578,-0.086,0.203,0.8,-13.062,18.005,-29.358,2.829,3.785,-133.517
 15:29:17.061,eb:33:2e:f9:57:b5, 2085-97-41 255:115:01:1671,-0.104,-0.052,1.065,-9.705,32.104,-17.639,2.697,4.07,-133.737
 15:29:17.061,eb:33:2e:f9:57:b5, 2085-97-136 254:189:254:2460,-0.326,0.011,1.036,-17.151,18.311,-14.465,2.549,4.301,-133.923
 15:29:17.091,eb:33:2e:f9:57:b5, 2085-97-220 254:113:253:3697,-0.006,-0.353,1.468,16.907,-23.865,2.747,2.494,4.329,-133.956
 15:29:17.091,eb:33:2e:f9:57:b5, 2085-97-196 254:200:248:5417,-0.142,-0.615,2.683,72.021,-43.274,19.409,3.01,3.84,-133.923
 15:29:17.091,eb:33:2e:f9:57:b5, 2085-97-27 00:189:254:3043,0.095,-0.553,2.104,112.427,-18.188,86.914,3.999,3.593,-133.281
 15:29:17.091,eb:33:2e:f9:57:b5, 2085-97-209 00:211:254:3289,0.084,0.024,1.323,143.921,-77.393,70.435,5.361,3.065,-132.468
 15:29:17.152,eb:33:2e:f9:57:b5, 2085-97-97 00:02:253:4073,0.098,-0.322,1.904,164.795,-87.524,53.04,6.938,2.126,-131.968
 15:29:17.152,eb:33:2e:f9:57:b5, 2085-97-95 01:245:252:4323,0.224,-0.318,2.004,190.43,-84.473,17.273,8.734,1.263,-131.704
 15:29:17.152,eb:33:2e:f9:57:b5, 2085-97-133 02:52:252:4529,0.311,-0.473,2.339,230.896,-68.359,-26.062,10.849,0.483,-131.885
 15:29:17.152,eb:33:2e:f9:57:b5, 2085-97-55 03:116:252:4614,0.551,-0.312,2.212,269.409,-49.316,-61.157,13.392,0.022,-132.429
 15:29:17.181,eb:33:2e:f9:57:b5, 2085-97-17 05:246:251:4801,0.818,-0.14,2.283,317.505,-33.508,-94.482,16.364,-0.159,-133.253
 15:29:17.181,eb:33:2e:f9:57:b5, 2085-97-12 07:189:249:5663,0.852,-0.713,2.469,361.145,9.094,-116.943,19.803,0.022,-134.335
 15:29:17.181,eb:33:2e:f9:57:b5, 2085-97-72 07:10:253:6326,1.197,-0.515,2.969,404.968,103.149,-108.887,23.643,0.983,-135.17
 15:29:17.181,eb:33:2e:f9:57:b5, 2085-97-255 07:45:251:5987,0.715,-0.591,2.854,456.055,160.339,-114.99,27.982,2.719,-135.604
 15:29:17.214,eb:33:2e:f9:57:b5, 2085-97-108 06:193:254:7204,0.854,-0.387,3.356,461.182,269.592,-79.59,32.607,5.07,-135.434
 15:29:17.214,eb:33:2e:f9:57:b5, 2085-97-186 03:136:253:5970,0.741,-0.357,3.181,442.261,375,-19.836,37.299,8.069,-133.929
 15:29:17.214,eb:33:2e:f9:57:b5, 2085-97-195 07:102:252:7627,1.271,-0.29,2.755,421.875,378.357,-9.216,41.979,11.173,-131.457
 15:29:17.214,eb:33:2e:f9:57:b5, 2085-97-204 09:172:243:8047,1.215,-1.131,4.252,423.95,342.468,-101.135,46.593,14.167,-129.435
 15:29:17.271,eb:33:2e:f9:57:b5, 2085-97-51 14:04:245:7205,3.075,-1.303,3.41,425.964,333.13,-173.157,51.312,17.501,-127.771
 15:29:17.271,eb:33:2e:f9:57:b5, 2085-97-214 30:41:232:9294,2.115,-2.042,4.737,491.028,360.718,-221.497,56.25,21.094,-126.354
 15:29:17.272,eb:33:2e:f9:57:b5, 2085-97-204 04:210:244:-681,0.35,-1.928,2.059,532.104,406.067,-164.856,62.715,24.659,-123.536
 15:29:17.272,eb:33:2e:f9:57:b5, 2085-97-86 07:135:243:-2870,0.714,-1.585,-0.896,407.41,157.043,-177.49,68.099,27.515,-121.712
 15:29:17.302,eb:33:2e:f9:57:b5, 2085-97-06 02:187:01:-9958,-0.096,-0.665,-2.914,180.603,114.319,-79.224,71.455,29.086,-121.014
 15:29:17.302,eb:33:2e:f9:57:b5, 2085-97-155 03:18:248:-4043,0.893,-0.355,-4.462,-108.215,-58.472,-97.229,71.603,30.004,-120.888
 15:29:17.302,eb:33:2e:f9:57:b5, 2085-97-78 05:210:245:1631,0.413,-1.186,0.033,-240.906,-110.046,-63.965,68.917,30.388,-122.443
 15:29:17.302,eb:33:2e:f9:57:b5, 2085-97-249 02:04:246:2385,0.447,-1.297,1.102,-272.888,-89.539,-36.56,65.643,30.438,-123.679
 15:29:17.362,eb:33:2e:f9:57:b5, 2085-97-231 03:15:249:1452,0.402,-1.093,1.042,-271.484,-73.853,-10.376,62.435,30.262,-124.651
 15:29:17.362,eb:33:2e:f9:57:b5, 2085-97-204 02:227:250:390,0.376,-0.723,0.346,-279.846,-64.331,5.737,59.337,29.938,-125.316
 15:29:17.362,eb:33:2e:f9:57:b5, 2085-97-50 03:89:251:702,0.37,-0.605,0.232,-294.006,-72.815,11.719,56.162,29.482,-125.936
 15:29:17.362,eb:33:2e:f9:57:b5, 2085-97-230 02:228:251:809,0.394,-0.545,0.385,-305.481,-72.998,19.653,52.872,28.916,-126.491
 15:29:17.392,eb:33:2e:f9:57:b5, 2085-97-21 03:61:252:750,0.396,-0.482,0.4,-313.293,-84.839,22.644,49.515,28.246,-127.029
 15:29:17.392,eb:33:2e:f9:57:b5, 2085-97-35 03:58:252:732,0.403,-0.471,0.355,-321.655,-102.417,26.184,46.049,27.416,-127.628
 15:29:17.392,eb:33:2e:f9:57:b5, 2085-97-80 03:92:252:920,0.443,-0.472,0.396,-334.351,-118.652,31.189,42.49,26.406,-128.254
 15:29:17.392,eb:33:2e:f9:57:b5, 2085-97-94 03:198:252:1068,0.417,-0.436,0.517,-351.501,-129.944,38.208,38.776,25.214,-128.859
 15:29:17.423,eb:33:2e:f9:57:b5, 2085-97-79 03:28:253:1235,0.412,-0.385,0.555,-368.164,-146.667,41.138,34.948,23.857,-129.397
 15:29:17.423,eb:33:2e:f9:57:b5, 2085-97-41 03:25:253:1488,0.386,-0.357,0.668,-378.601,-166.504,42.664,30.976,22.291,-129.924
 15:29:17.423,eb:33:2e:f9:57:b5, 2085-97-246 02:239:252:1879,0.347,-0.375,0.803,-378.052,-190.613,45.288,27.01,20.5,-130.419
 15:29:17.423,eb:33:2e:f9:57:b5, 2085-113-58 00:75:226:-7950,0.323,-0.386,1.018,-367.676,-214.233,51.27,23.121,18.43,-130.842
 15:29:17.423,eb:33:2e:f9:57:b5, 2085-97-250 01:93:252:2820,0.025,-0.382,1.126,-362.061,-222.29,55.237,21.253,17.309,-131.001
 15:29:17.512,eb:33:2e:f9:57:b5, 2085-97-193 00:159:253:2385,0.318,-0.541,1.567,-356.873,-206.97,82.214,17.633,15.018,-131.067
 15:29:17.512,eb:33:2e:f9:57:b5, 2085-97-160 02:184:253:3448,0.243,-0.272,1.55,-345.764,-224.548,83.984,14.156,12.673,-130.869
 15:29:17.512,eb:33:2e:f9:57:b5, 2085-97-48 02:215:254:3978,0.243,-0.224,1.756,-326.965,-209.167,95.764,10.86,10.388,-130.38
 15:29:17.512,eb:33:2e:f9:57:b5, 2085-97-147 01:121:00:4397,0.191,-0.021,2.078,-295.41,-200.378,96.863,7.861,8.223,-129.71
 15:29:17.514,eb:33:2e:f9:57:b5, 2085-97-144 01:246:01:4309,0.176,0.138,2.156,-267.456,-191.772,89.722,5.136,6.174,-128.969
 15:29:17.514,eb:33:2e:f9:57:b5, 2085-97-240 00:35:03:3815,0.081,0.34,1.987,-266.296,-198.486,76.05,2.554,4.197,-128.243
 15:29:17.514,eb:33:2e:f9:57:b5, 2085-97-211 00:48:02:4396,0.123,0.365,1.893,-293.396,-221.741,58.167,-0.231,2.071,-127.595
 15:29:17.514,eb:33:2e:f9:57:b5, 2085-97-86 00:116:01:6090,-0.093,0.187,2.554,-320.984,-230.652,53.955,-3.323,-0.187,-126.953
 15:29:17.541,eb:33:2e:f9:57:b5, 2085-97-119 254:218:02:7121,-0.261,0.216,3.315,-324.402,-216.858,57.8,-6.63,-2.379,-126.156
 15:29:17.541,eb:33:2e:f9:57:b5, 2085-97-76 253:94:08:6262,-0.459,0.658,3.365,-302.734,-185.547,61.157,-9.822,-4.241,-125.25
 15:29:17.541,eb:33:2e:f9:57:b5, 2085-97-36 251:85:13:5511,-0.782,1.415,2.801,-280.762,-205.872,44.006,-12.838,-6.021,-124.305
 15:29:17.541,eb:33:2e:f9:57:b5, 2085-97-93 248:224:14:5460,-1.074,1.795,2.664,-271.301,-235.535,17.761,-15.694,-8.119,-123.431
 15:29:17.631,eb:33:2e:f9:57:b5, 2085-97-82 247:95:16:5597,-1.027,1.933,2.647,-271.301,-210.144,11.902,-18.556,-10.239,-122.602
 15:29:17.631,eb:33:2e:f9:57:b5, 2085-97-103 248:122:23:6525,-0.872,2.29,2.986,-245.239,-135.803,23.56,-21.335,-11.794,-121.8
 15:29:17.631,eb:33:2e:f9:57:b5, 2085-97-150 249:192:32:4830,-0.929,3.497,2.997,-175.11,-24.353,6.958,-23.489,-12.349,-121.355
 15:29:17.631,eb:33:2e:f9:57:b5, 2085-97-203 245:188:38:1952,-1.568,4.565,1.572,-103.638,-12.39,-49.194,-24.802,-12.497,-121.525
 15:29:17.633,eb:33:2e:f9:57:b5, 2085-97-73 241:58:37:1809,-2.078,4.819,0.801,-21.973,-89.905,-116.211,-25.247,-13.387,-122.108
 15:29:17.633,eb:33:2e:f9:57:b5, 2085-97-40 238:141:32:3152,-2.305,4.399,1.146,52.49,-136.963,-145.02,-24.873,-15.057,-122.811
 15:29:17.633,eb:33:2e:f9:57:b5, 2085-97-05 212:207:228:23012,-2.155,3.66,2.026,108.154,-181.702,-177.185,-23.78,-16.941,-123.618
 15:29:17.633,eb:33:2e:f9:57:b5, 2085-97-91 250:174:07:173,0.533,4.986,-1.193,226.44,302.246,-2.319,-21.643,-14.969,-123.898
 15:29:17.692,eb:33:2e:f9:57:b5, 2085-97-97 17:101:241:837,2.395,-0.687,-0.665,142.578,258.972,47.546,-19.589,-12.047,-124.492
 15:29:17.692,eb:33:2e:f9:57:b5, 2085-97-141 14:131:234:3259,0.907,-3.259,1.585,206.909,215.515,62.012,-17.924,-9.789,-124.81
 15:29:17.692,eb:33:2e:f9:57:b5, 2085-97-04 254:30:03:3460,-1.357,-1.14,1.5,321.289,225.525,89.111,-15.183,-7.438,-124.689
 15:29:17.692,eb:33:2e:f9:57:b5, 2085-97-227 241:197:10:3122,-1.686,0.955,2.176,351.074,204.041,80.322,-11.81,-5.175,-124.437
 15:29:17.721,eb:33:2e:f9:57:b5, 2085-97-87 247:126:08:1526,-0.45,1.337,1.093,349.304,74.646,17.334,-8.317,-3.774,-124.2
 15:29:17.721,eb:33:2e:f9:57:b5, 2085-97-150 255:32:00:2315,0.015,0.427,0.94,299.133,0.366,-49.622,-5.065,-3.587,-124.47
 15:29:17.721,eb:33:2e:f9:57:b5, 2085-97-201 253:60:251:2018,0.667,0.116,1.259,257.568,-13.123,-75.989,-2.225,-3.582,-125.134
 15:29:17.721,eb:33:2e:f9:57:b5, 2085-97-14 05:64:13:3929,0.348,0.634,1.524,186.89,-70.068,-41.077,-0.071,-4.186,-125.771
 15:29:17.751,eb:33:2e:f9:57:b5, 2085-97-217 00:197:07:1958,-0.367,1.549,1.206,72.388,48.645,-1.038,1.225,-4.208,-125.958
 15:29:17.751,eb:33:2e:f9:57:b5, 2085-97-165 248:226:252:1081,-0.938,-0.003,0.952,24.353,120.239,6.775,1.582,-3.235,-125.931
 15:29:17.751,eb:33:2e:f9:57:b5, 2085-97-159 252:28:02:1251,0.134,0.029,0.321,38.33,8.484,-3.174,1.939,-2.51,-125.821
 15:29:17.752,eb:33:2e:f9:57:b5, 2085-97-96 01:190:01:2229,-0.012,0.225,1.059,21.973,-13.184,-10.193,2.247,-2.747,-125.975
 15:29:17.782,eb:33:2e:f9:57:b5, 2085-97-198 254:111:00:1892,-0.222,0.171,0.977,11.475,18.921,-3.357,2.411,-2.631,-126.008
 15:29:17.782,eb:33:2e:f9:57:b5, 2085-97-177 254:128:00:1781,-0.05,0.027,0.842,9.644,4.822,-2.075,2.516,-2.477,-126.035
 15:29:17.782,eb:33:2e:f9:57:b5, 2085-97-86 00:193:00:2098,0.054,0.094,0.946,7.141,-14.282,-4.822,2.615,-2.543,-126.074
 15:29:17.782,eb:33:2e:f9:57:b5, 2085-97-83 00:75:00:2207,-0.027,0.069,1.064,5.554,-7.385,-7.141,2.675,-2.659,-126.14
 15:29:17.841,eb:33:2e:f9:57:b5, 2085-97-197 255:73:00:2079,-0.001,0.031,1.018,5.371,-3.662,-5.066,2.747,-2.675,-126.205
 15:29:17.841,eb:33:2e:f9:57:b5, 2085-97-237 255:59:00:2122,-0.007,0.035,1.035,6.775,-8.667,-6.165,2.812,-2.747,-126.266
 15:29:17.841,eb:33:2e:f9:57:b5, 2085-97-91 00:106:00:2193,0.072,0.034,1.038,7.019,-11.963,-4.272,2.906,-2.845,-126.332
 15:29:17.841,eb:33:2e:f9:57:b5, 2085-97-129 00:94:00:2166,0.023,0.052,1.076,4.272,-1.099,1.16,2.961,-2.911,-126.348
 15:29:17.901,eb:33:2e:f9:57:b5, 2085-97-230 255:129:00:1999,0.007,0.055,1.018,3.479,5.676,1.526,3.01,-2.862,-126.326
 15:29:17.901,eb:33:2e:f9:57:b5, 2085-97-91 00:75:00:2144,0.01,0.035,1.017,3.601,1.221,-1.953,3.043,-2.845,-126.343
 15:29:17.901,eb:33:2e:f9:57:b5, 2085-97-202 00:59:00:2185,0.069,0.066,0.998,2.075,-1.709,-5.127,3.087,-2.818,-126.37
 15:29:17.901,eb:33:2e:f9:57:b5, 2085-97-00 01:92:00:2213,0.093,0.016,1.074,1.221,8.911,1.343,3.104,-2.785,-126.387
 15:29:17.903,eb:33:2e:f9:57:b5, 2085-97-30 01:89:00:2156,0.168,0.054,1.017,-0.793,15.259,2.258,3.109,-2.626,-126.354
 15:29:17.903,eb:33:2e:f9:57:b5, 2085-97-28 01:54:00:2174,0.081,0.042,1.069,-1.16,23.438,0.427,3.104,-2.439,-126.337
 15:29:17.903,eb:33:2e:f9:57:b5, 2085-97-108 00:89:00:2066,0.03,0.025,1.035,-0.61,28.87,-2.014,3.104,-2.153,-126.337
 15:29:17.903,eb:33:2e:f9:57:b5, 2085-97-26 00:154:00:1955,0.01,0.056,0.985,-0.977,29.053,-4.15,3.098,-1.862,-126.359
 15:29:17.962,eb:33:2e:f9:57:b5, 2085-97-07 00:101:00:1990,-0.021,0.069,0.958,-2.686,26.489,-7.202,3.087,-1.571,-126.409
 15:29:17.962,eb:33:2e:f9:57:b5, 2085-97-192 255:69:00:1996,-0.012,0.033,0.976,-1.77,26.184,-7.141,3.065,-1.296,-126.469
 15:29:17.962,eb:33:2e:f9:57:b5, 2085-97-228 255:88:00:2029,-0.016,0.033,0.992,0.244,21.851,-8.728,3.076,-1.055,-126.546
 15:29:17.962,eb:33:2e:f9:57:b5, 2085-97-06 01:67:00:2181,-0.164,0.028,1.011,2.075,25.146,-11.047,3.087,-0.829,-126.628
 15:29:17.992,eb:33:2e:f9:57:b5, 2085-97-26 00:193:00:2001,-0.001,0.074,0.864,1.404,17.578,-13.123,3.115,-0.505,-126.716
 15:29:17.992,eb:33:2e:f9:57:b5, 2085-97-87 255:138:00:1941,0.078,0.065,0.917,-6.409,19.836,-7.324,3.093,-0.319,-126.859
 15:29:17.992,eb:33:2e:f9:57:b5, 2085-97-149 00:183:00:2055,0.017,0.088,1.004,-3.967,18.86,-19.043,3.065,-0.17,-127.018
 15:29:17.992,eb:33:2e:f9:57:b5, 2085-97-20 00:241:00:1946,0.025,0.068,1.005,-3.54,31.067,-19.287,3.032,0.099,-127.194
 15:29:18.022,eb:33:2e:f9:57:b5, 2085-97-166 255:153:00:1892,-0.061,0.06,1.007,-3.662,36.865,-21.973,3.005,0.439,-127.397
 15:29:18.022,eb:33:2e:f9:57:b5, 2085-97-178 255:81:00:2034,-0.065,0.045,0.984,-3.418,33.142,-24.353,2.961,0.797,-127.617
 15:29:18.022,eb:33:2e:f9:57:b5, 2085-97-43 255:07:00:2027,-0.104,0.053,0.971,-1.892,36.926,-23.682,2.95,1.176,-127.837
 15:29:18.022,eb:33:2e:f9:57:b5, 2085-97-251 254:37:00:1979,-0.118,0.029,0.957,0.427,33.875,-20.081,2.939,1.533,-128.04
 15:29:18.082,eb:33:2e:f9:57:b5, 2085-97-23 255:68:00:1982,-0.096,-0.001,1.024,3.662,33.02,-16.357,2.966,1.868,-128.21
 15:29:18.082,eb:33:2e:f9:57:b5, 2085-97-131 255:69:00:2090,-0.008,0.004,1.031,5.432,29.419,-13.977,3.005,2.181,-128.348
 15:29:18.082,eb:33:2e:f9:57:b5, 2085-97-91 00:137:01:1840,0.029,0.105,0.984,4.089,26.794,-16.846,3.065,2.477,-128.485
 15:29:18.082,eb:33:2e:f9:57:b5, 2085-97-103 00:49:01:2053,0.063,0.125,0.971,-3.418,22.522,-23.193,3.049,2.73,-128.683
 15:29:18.142,eb:33:2e:f9:57:b5, 2085-97-90 00:87:01:1859,0,0.06,1.095,-7.202,27.222,-25.33,2.988,2.972,-128.941
 15:29:18.142,eb:33:2e:f9:57:b5, 2085-97-73 00:106:255:2604,-0.143,0.098,1.081,-13.55,26.733,-32.288,2.867,3.23,-129.216
 15:29:18.142,eb:33:2e:f9:57:b5, 2085-97-04 254:155:253:3245,-0.172,-0.119,1.21,1.16,27.527,-13,2.785,3.593,-129.402
 15:29:18.142,eb:33:2e:f9:57:b5, 2085-97-190 254:229:248:5359,-0.263,-0.549,2.359,48.645,9.338,-0.671,3.049,3.686,-129.507
 15:29:18.142,eb:33:2e:f9:57:b5, 2085-97-192 254:215:254:2584,-0.09,-0.52,1.83,89.172,36.072,83.13,3.801,4.026,-128.996
 15:29:18.142,eb:33:2e:f9:57:b5, 2085-97-95 255:101:254:3105,-0.12,-0.014,1.241,119.08,-29.968,80.566,4.916,3.983,-128.145
 15:29:18.142,eb:33:2e:f9:57:b5, 2085-97-80 255:80:253:3756,-0.048,-0.334,1.762,141.724,-59.937,90.088,6.295,3.417,-127.332
 15:29:18.143,eb:33:2e:f9:57:b5, 2085-97-150 00:47:254:3517,0.114,-0.244,1.772,164.795,-72.815,72.021,7.877,2.659,-126.557
 15:29:18.201,eb:33:2e:f9:57:b5, 2085-97-168 01:97:253:4215,0.19,-0.248,1.861,191.223,-82.703,19.592,9.679,1.818,-126.244
 15:29:18.201,eb:33:2e:f9:57:b5, 2085-97-135 01:49:253:4705,0.228,-0.367,2.24,225.22,-67.932,-15.869,11.772,1.055,-126.381
 15:29:18.201,eb:33:2e:f9:57:b5, 2085-97-102 02:37:254:4184,0.434,-0.333,2.075,261.902,-41.931,-44.8,14.227,0.626,-126.821
 15:29:18.202,eb:33:2e:f9:57:b5, 2085-97-249 03:48:253:4166,0.562,-0.247,2.015,299.255,-19.409,-69.641,17.045,0.494,-127.474
 15:29:18.231,eb:33:2e:f9:57:b5, 2085-97-96 04:24:251:5227,0.621,-0.604,2.244,332.275,19.592,-84.839,20.226,0.72,-128.254
 15:29:18.231,eb:33:2e:f9:57:b5, 2085-97-74 07:138:254:5159,1.087,-0.427,2.694,362.427,115.112,-67.871,23.708,1.653,-128.71
 15:29:18.231,eb:33:2e:f9:57:b5, 2085-97-14 08:219:254:5006,0.655,-0.14,2.322,393.799,160.461,-78.186,27.526,3.274,-128.738
 15:29:18.231,eb:33:2e:f9:57:b5, 2085-97-103 05:220:255:6508,0.605,0.112,2.838,411.438,218.14,-71.106,31.586,5.279,-128.496
 15:29:18.262,eb:33:2e:f9:57:b5, 2085-97-105 04:03:251:7102,0.755,-0.138,3.41,399.109,303.223,-49.988,35.777,7.778,-127.584
 15:29:18.262,eb:33:2e:f9:57:b5, 2085-97-88 05:166:00:5759,0.643,-0.538,3.163,380.066,382.629,-6.836,39.93,10.745,-125.607
 15:29:18.262,eb:33:2e:f9:57:b5, 2085-97-82 07:185:251:6315,1.069,0.044,2.683,378.54,294.312,-109.07,44.138,13.689,-123.613
 15:29:18.262,eb:33:2e:f9:57:b5, 2085-97-222 10:55:246:8342,2.136,-0.965,3.479,373.291,224.731,-205.078,48.049,16.628,-123.014
 15:29:18.321,eb:33:2e:f9:57:b5, 2085-97-86 27:235:239:11379,3.146,-1.602,4.64,418.518,273.926,-172.791,52.141,19.655,-122.41
 15:29:18.321,eb:33:2e:f9:57:b5, 2085-113-58 00:36:235:-10215,0.881,-2.69,4.195,518.311,438.721,-123.535,57.695,23.143,-120.168
 15:29:18.321,eb:33:2e:f9:57:b5, 2085-97-13 03:92:248:-1955,0.662,-1.134,0.962,456.482,365.173,-159.18,60.727,24.78,-118.68
 15:29:18.321,eb:33:2e:f9:57:b5, 2085-97-29 06:09:250:-4557,0.374,-1.233,-1.363,307.007,152.466,-120.117,65.067,27.296,-117.235
 15:29:18.351,eb:33:2e:f9:57:b5, 2085-97-161 02:143:254:-6970,0.621,0.011,-3.616,56.824,108.765,-75.623,67.319,28.608,-116.12
 15:29:18.351,eb:33:2e:f9:57:b5, 2085-97-27 06:146:247:525,0.595,-0.837,-1.444,-112.305,-41.443,-101.013,66.649,29.542,-116.472
 15:29:18.351,eb:33:2e:f9:57:b5, 2085-97-29 03:107:246:2813,0.319,-1.155,1.109,-162.109,-21.301,-77.026,64.786,30.201,-117.257
 15:29:18.351,eb:33:2e:f9:57:b5, 2085-97-216 02:42:248:1691,0.308,-1.102,1.194,-156.921,-3.235,-49.561,62.957,30.712,-117.68
 15:29:18.382,eb:33:2e:f9:57:b5, 2085-97-68 02:180:249:252,0.276,-0.871,0.392,-159.241,-5.188,-28.015,61.282,31.031,-117.911
 15:29:18.383,eb:33:2e:f9:57:b5, 2085-97-127 02:180:250:-016,0.309,-0.732,0.011,-183.594,-21.057,-9.949,59.425,31.113,-118.158
 15:29:18.383,eb:33:2e:f9:57:b5, 2085-97-231 02:137:251:-122,0.432,-0.6,-0.059,-219.421,-38.452,2.441,57.244,30.97,-118.46
 15:29:18.383,eb:33:2e:f9:57:b5, 2085-97-213 03:203:251:117,0.531,-0.54,-0.013,-254.456,-59.082,4.211,54.608,30.646,-118.916
 15:29:18.442,eb:33:2e:f9:57:b5, 2085-97-56 04:100:252:384,0.537,-0.5,0.173,-277.893,-78.003,0.793,51.614,30.196,-119.542
 15:29:18.442,eb:33:2e:f9:57:b5, 2085-97-87 04:04:253:385,0.54,-0.401,0.175,-292.358,-105.469,-5.249,48.329,29.597,-120.366
 15:29:18.442,eb:33:2e:f9:57:b5, 2085-97-30 04:245:252:572,0.5,-0.363,0.22,-303.955,-135.742,-18.066,44.813,28.828,-121.465
 15:29:18.442,eb:33:2e:f9:57:b5, 2085-97-208 03:213:252:803,0.421,-0.398,0.348,-318.481,-156.921,-26.367,41.056,27.878,-122.8
 15:29:18.473,eb:33:2e:f9:57:b5, 2085-97-231 02:153:252:1050,0.33,-0.401,0.429,-336.487,-170.593,-31.494,37.145,26.768,-124.195
 15:29:18.473,eb:33:2e:f9:57:b5, 2085-97-115 02:29:252:1478,0.278,-0.455,0.624,-349.609,-183.777,-37.415,33.058,25.483,-125.64
 15:29:18.473,eb:33:2e:f9:57:b5, 2085-97-252 01:239:251:1785,0.152,-0.5,0.799,-355.469,-190.735,-38.818,28.949,24.049,-127.04
 15:29:18.473,eb:33:2e:f9:57:b5, 2085-97-212 00:102:251:2023,0.051,-0.53,0.907,-352.051,-203.308,-37.109,24.873,22.445,-128.359
 15:29:18.502,eb:33:2e:f9:57:b5, 2085-97-14 254:33:251:3313,-0.093,-0.596,1.192,-339.111,-216.003,-20.752,20.989,20.61,-129.529
 15:29:18.502,eb:33:2e:f9:57:b5, 2085-97-177 01:62:252:2610,0.037,-0.534,0.826,-333.435,-228.76,-19.531,17.309,18.682,-130.402
 15:29:18.502,eb:33:2e:f9:57:b5, 2085-97-03 00:41:252:2894,-0.024,-0.471,1.299,-318.97,-238.708,-6.348,13.843,16.436,-131.133
 15:29:18.502,eb:33:2e:f9:57:b5, 2085-97-97 255:13:253:3714,-0.097,-0.386,1.613,-297.18,-257.019,1.587,10.613,13.986,-131.666
 15:29:18.561,eb:33:2e:f9:57:b5, 2085-97-244 254:220:253:4330,-0.153,-0.362,2.007,-272.4,-252.319,11.414,7.701,11.442,-131.979
 15:29:18.561,eb:33:2e:f9:57:b5, 2085-97-144 254:64:255:4201,-0.226,-0.173,2.133,-252.197,-251.587,15.259,5.065,8.921,-132.083
 15:29:18.561,eb:33:2e:f9:57:b5, 2085-97-199 253:56:255:4305,-0.348,-0.056,1.982,-264.832,-266.785,15.381,2.505,6.328,-132.067
 15:29:18.561,eb:33:2e:f9:57:b5, 2085-97-138 252:31:254:5751,-0.522,-0.175,2.42,-297.485,-272.461,28.503,-0.324,3.593,-131.863
 15:29:18.592,eb:33:2e:f9:57:b5, 2085-97-74 251:05:255:6791,-0.648,-0.226,3.134,-317.993,-245.728,60.486,-3.411,1.016,-131.298
 15:29:18.592,eb:33:2e:f9:57:b5, 2085-97-167 250:24:04:6644,-0.645,0.125,3.329,-308.044,-210.51,102.051,-6.597,-1.137,-130.232
 15:29:18.592,eb:33:2e:f9:57:b5, 2085-97-236 250:69:11:6131,-0.68,0.961,3.118,-277.771,-213.806,122.986,-9.58,-3.016,-128.76
 15:29:18.592,eb:33:2e:f9:57:b5, 2085-97-217 249:234:16:5742,-0.861,1.773,2.917,-261.597,-239.868,119.69,-12.404,-5.01,-127.084
 15:29:18.622,eb:33:2e:f9:57:b5, 2085-97-225 247:67:19:5191,-1.098,2.218,2.725,-264.404,-245.117,108.643,-15.222,-7.097,-125.376
 15:29:18.622,eb:33:2e:f9:57:b5, 2085-97-105 247:201:20:4729,-0.984,2.525,2.319,-274.78,-226.379,98.328,-18.188,-9.058,-123.668
 15:29:18.622,eb:33:2e:f9:57:b5, 2085-97-146 248:111:25:5967,-0.906,2.784,2.576,-266.052,-177.49,101.44,-21.231,-10.607,-121.992
 15:29:18.622,eb:33:2e:f9:57:b5, 2085-97-155 248:21:36:5068,-0.997,3.809,2.964,-186.157,-87.402,81.97,-23.796,-11.415,-120.575
 15:29:18.681,eb:33:2e:f9:57:b5, 2085-97-46 246:112:42:2396,-1.526,5.032,1.754,-86.548,-71.594,3.723,-25.241,-11.86,-119.877
 15:29:18.681,eb:33:2e:f9:57:b5, 2085-97-99 241:91:39:2416,-2.091,5.227,1.035,-4.028,-124.512,-88.562,-25.626,-12.986,-119.877
 15:29:18.681,eb:33:2e:f9:57:b5, 2085-97-211 237:164:31:3980,-2.348,4.46,1.515,71.899,-152.405,-145.569,-25.126,-14.815,-120.361
 15:29:18.681,eb:33:2e:f9:57:b5, 2085-97-210 241:232:253:13923,-1.807,3.405,2.42,135.62,-107.483,-157.654,-23.78,-16.727,-121.234
 15:29:18.711,eb:33:2e:f9:57:b5, 2085-97-234 236:155:245:2436,0.911,-1.081,1.248,176.147,359.192,165.955,-22.077,-15.694,-121.97
 15:29:18.711,eb:33:2e:f9:57:b5, 2085-97-129 20:100:231:299,2.625,-1.657,-1.135,88.135,274.109,48.035,-20.627,-12.645,-122.728
 15:29:18.712,eb:33:2e:f9:57:b5, 2085-97-195 14:23:235:3003,0.678,-3.585,1.192,172.363,254.395,64.88,-19.38,-10.069,-123.113
 15:29:18.712,eb:33:2e:f9:57:b5, 2085-97-120 249:126:07:-310,-1.672,-1.109,1.458,316.772,257.324,79.895,-16.754,-7.366,-123.261
 15:29:18.771,eb:33:2e:f9:57:b5, 2085-97-68 241:177:09:3202,-1.355,1.267,1.689,325.806,156.433,47.729,-13.59,-5.306,-123.234
 15:29:18.771,eb:33:2e:f9:57:b5, 2085-97-122 250:238:04:3120,-0.324,1.077,1.531,330.811,27.649,-23.804,-10.333,-4.362,-123.311
 15:29:18.771,eb:33:2e:f9:57:b5, 2085-97-231 254:72:02:2242,-0.062,0.502,1.205,307.739,-34.302,-70.618,-7.015,-4.554,-123.794
 15:29:18.771,eb:33:2e:f9:57:b5, 2085-97-177 255:14:07:2684,-0.106,0.068,1.184,258.118,-13.855,-82.397,-4.175,-4.966,-124.579
 15:29:18.832,eb:33:2e:f9:57:b5, 2085-97-123 05:44:05:3069,0.542,-0.535,0.806,182.983,-68.115,-31.433,-1.928,-5.35,-125.255
 15:29:18.832,eb:33:2e:f9:57:b5, 2085-97-117 02:15:06:2702,0.037,0.875,1.908,123.169,-3.296,8.423,-0.374,-5.894,-125.359
 15:29:18.832,eb:33:2e:f9:57:b5, 2085-97-62 254:214:05:1177,-0.704,0.483,0.974,59.082,91.187,47.119,0.456,-5.345,-125.079
 15:29:18.832,eb:33:2e:f9:57:b5, 2085-97-02 250:239:255:968,-0.271,0.127,0.617,35.95,75.806,7.69,0.862,-4.433,-124.887
 15:29:18.832,eb:33:2e:f9:57:b5, 2085-97-57 02:129:02:2301,0.178,0.356,0.688,21.423,-2.502,-2.502,1.165,-4.12,-124.821
 15:29:18.832,eb:33:2e:f9:57:b5, 2085-97-254 254:65:00:1862,-0.245,0.045,1.172,8.911,41.87,3.113,1.296,-3.95,-124.843
 15:29:18.832,eb:33:2e:f9:57:b5, 2085-97-49 254:64:00:1616,-0.081,0.063,0.773,7.141,18.311,-3.601,1.379,-3.582,-124.827
 15:29:18.832,eb:33:2e:f9:57:b5, 2085-97-117 00:121:00:2069,0.043,0.087,0.901,3.784,-13.062,-6.531,1.456,-3.598,-124.876
 15:29:18.950,eb:33:2e:f9:57:b5, 2085-97-00 00:94:00:2090,-0.039,0.071,1.022,1.587,-6.104,-4.822,1.483,-3.691,-124.92
 15:29:18.950,eb:33:2e:f9:57:b5, 2085-97-94 255:228:255:2043,-0.076,0.004,1.021,2.38,-5.005,-6.165,1.516,-3.73,-124.98
 15:29:18.950,eb:33:2e:f9:57:b5, 2085-97-209 255:02:00:2119,0.001,-0.003,1,5.188,-15.015,-7.263,1.56,-3.834,-125.046
 15:29:18.950,eb:33:2e:f9:57:b5, 2085-97-22 00:30:00:2156,0.011,0.012,1.045,6.47,-14.038,-6.47,1.642,-3.972,-125.118
 15:29:18.950,eb:33:2e:f9:57:b5, 2085-97-220 255:20:00:2106,0.001,0.014,1.05,6.409,-9.46,-4.944,1.708,-4.087,-125.184
 15:29:18.952,eb:33:2e:f9:57:b5, 2085-113-58 00:45:226:-6135,0.033,0.015,1.026,6.897,-12.146,-4.639,1.796,-4.186,-125.233
 15:29:18.952,eb:33:2e:f9:57:b5, 2085-97-92 00:92:00:2101,0.029,0.038,1.022,6.592,-11.23,-5.249,1.829,-4.241,-125.261
 15:29:18.952,eb:33:2e:f9:57:b5, 2085-97-49 00:124:00:2043,0.057,0.05,1.013,4.883,-7.996,-4.639,1.906,-4.323,-125.316
 15:29:18.952,eb:33:2e:f9:57:b5, 2085-97-182 00:164:00:2085,0.13,0.07,0.982,3.235,-11.108,-5.188,1.95,-4.422,-125.365
 15:29:18.954,eb:33:2e:f9:57:b5, 2085-97-44 01:177:00:2118,0.179,0.099,1.021,-0.793,-4.456,-2.441,1.978,-4.482,-125.403
 15:29:18.954,eb:33:2e:f9:57:b5, 2085-97-132 01:195:00:2134,0.197,0.067,1.037,-4.761,4.089,1.77,1.945,-4.482,-125.409
 15:29:18.954,eb:33:2e:f9:57:b5, 2085-97-46 01:106:00:2124,0.135,0.07,1.049,-7.69,15.32,0.854,1.895,-4.373,-125.398
 15:29:18.954,eb:33:2e:f9:57:b5, 2085-97-29 01:33:00:2140,0.128,0.044,1.012,-9.277,21.24,-0.244,1.802,-4.175,-125.387
 15:29:19.041,eb:33:2e:f9:57:b5, 2085-97-211 00:196:255:2102,0.076,-0.013,1.048,-8.057,27.771,-3.784,1.73,-3.917,-125.409
 15:29:19.041,eb:33:2e:f9:57:b5, 2085-97-67 00:183:255:2060,-0.023,-0.04,1.021,-4.761,28.137,-8.362,1.67,-3.636,-125.469
 15:29:19.041,eb:33:2e:f9:57:b5, 2085-97-165 255:161:255:1998,-0.059,-0.033,0.975,-1.648,24.475,-9.521,1.659,-3.351,-125.557
 15:29:19.041,eb:33:2e:f9:57:b5, 2085-97-184 255:208:255:1995,0,-0.041,0.963,1.16,18.005,-8.179,1.664,-3.137,-125.645
 15:29:19.044,eb:33:2e:f9:57:b5, 2085-97-133 01:189:255:2301,-0.164,-0.023,1.003,4.456,15.686,-10.193,1.708,-2.972,-125.728
 15:29:19.044,eb:33:2e:f9:57:b5, 2085-97-228 254:37:00:1833,0.084,-0.018,0.862,5.005,17.578,-1.099,1.769,-2.675,-125.821
 15:29:19.044,eb:33:2e:f9:57:b5, 2085-97-73 01:83:00:2227,0.1,0.039,1.06,7.019,7.751,-11.292,1.846,-2.609,-125.898
 15:29:19.044,eb:33:2e:f9:57:b5, 2085-97-177 00:116:00:2119,0.128,0.074,1.036,6.042,23.987,-11.841,1.917,-2.417,-125.986
 15:29:19.071,eb:33:2e:f9:57:b5, 2085-97-25 01:109:00:2211,0.14,0.055,1.083,5.493,35.278,-15.564,1.989,-2.115,-126.123
 15:29:19.071,eb:33:2e:f9:57:b5, 2085-97-61 01:125:00:2240,0.133,0.051,1.083,5.066,51.575,-19.836,2.049,-1.67,-126.288
 15:29:19.071,eb:33:2e:f9:57:b5, 2085-97-158 00:139:00:2117,0.072,0.074,1.058,3.296,71.106,-22.705,2.109,-1.033,-126.497
 15:29:19.071,eb:33:2e:f9:57:b5, 2085-97-41 00:69:00:2120,-0.05,0.065,1.039,2.014,82.458,-24.231,2.142,-0.253,-126.716
 15:29:19.131,eb:33:2e:f9:57:b5, 2085-97-133 255:75:00:2002,-0.045,0.005,1.021,2.625,86.365,-20.447,2.175,0.615,-126.92
 15:29:19.131,eb:33:2e:f9:57:b5, 2085-97-37 255:112:00:1857,-0.201,0.048,0.99,1.526,79.407,-17.7,2.197,1.439,-127.095
 15:29:19.131,eb:33:2e:f9:57:b5, 2085-97-173 254:155:255:2054,-0.152,0.056,0.83,-2.014,59.937,-17.456,2.197,2.175,-127.238
 15:29:19.131,eb:33:2e:f9:57:b5, 2085-97-230 254:252:255:2173,-0.071,-0.031,1.011,2.502,55.481,-10.864,2.197,2.747,-127.365
 15:29:19.162,eb:33:2e:f9:57:b5, 2085-97-230 255:206:00:2069,0.191,0.016,0.976,4.028,47.119,-4.089,2.241,3.285,-127.43
 15:29:19.162,eb:33:2e:f9:57:b5, 2085-97-32 01:217:03:1571,0.071,0.41,0.448,-7.874,28.931,-15.442,2.241,3.68,-127.496
 15:29:19.162,eb:33:2e:f9:57:b5, 2085-97-13 00:11:252:4359,-0.188,-0.329,1.826,-19.714,47.729,0.366,2.032,3.944,-127.705
 15:29:19.162,eb:33:2e:f9:57:b5, 2085-97-255 253:238:251:4249,-0.13,-0.416,1.839,19.287,56.335,51.147,2.054,4.554,-127.348
 15:29:19.191,eb:33:2e:f9:57:b5, 2085-97-138 253:149:253:2904,-0.363,-0.605,2.079,83.252,36.377,87.036,2.67,4.944,-126.7
 15:29:19.191,eb:33:2e:f9:57:b5, 2085-97-237 252:61:254:2691,-0.385,-0.196,1.204,112.61,-13,81.36,3.768,5.021,-125.799
 15:29:19.191,eb:33:2e:f9:57:b5, 2085-97-42 253:03:253:3350,-0.23,-0.313,1.497,134.033,-62.805,61.523,5.076,4.565,-125.123
 15:29:19.191,eb:33:2e:f9:57:b5, 2085-97-77 255:98:253:3798,0.032,-0.384,1.737,155.579,-86.548,36.316,6.559,3.752,-124.695
 15:29:19.252,eb:33:2e:f9:57:b5, 2085-97-45 01:107:253:4221,0.174,-0.339,1.936,183.167,-89.355,2.93,8.273,2.856,-124.618
 15:29:19.252,eb:33:2e:f9:57:b5, 2085-97-191 01:167:253:4334,0.273,-0.3,2.154,220.398,-81.36,-28.687,10.294,2.032,-124.882
 15:29:19.252,eb:33:2e:f9:57:b5, 2085-97-54 03:57:254:4412,0.546,-0.345,2.191,258.423,-70.374,-57.007,12.7,1.368,-125.475
 15:29:19.252,eb:33:2e:f9:57:b5, 2085-97-73 05:114:252:4396,0.663,-0.173,2.092,300.293,-49.438,-85.022,15.513,0.95,-126.299
 15:29:19.282,eb:33:2e:f9:57:b5, 2085-97-172 04:193:250:5273,0.662,-0.62,2.359,336.975,-3.906,-100.22,18.715,0.945,-127.293
 15:29:19.282,eb:33:2e:f9:57:b5, 2085-97-60 07:109:252:5706,1.192,-0.485,2.727,371.948,73.608,-98.694,22.264,1.615,-128.117
 15:29:19.282,eb:33:2e:f9:57:b5, 2085-97-97 09:69:253:4973,0.82,-0.457,2.502,410.4,143.616,-100.952,26.18,3.082,-128.573
 15:29:19.282,eb:33:2e:f9:57:b5, 2085-97-136 05:75:254:7090,0.648,-0.191,2.813,434.509,188.904,-109.253,30.405,5.037,-128.765
 15:29:19.312,eb:33:2e:f9:57:b5, 2085-97-67 06:227:251:6838,0.827,-0.539,3.668,446.838,292.297,-63.66,34.893,7.57,-128.276
 15:29:19.312,eb:33:2e:f9:57:b5, 2085-97-27 07:237:253:5681,0.705,-0.452,3.091,434.692,371.338,-22.949,39.573,10.58,-126.508
 15:29:19.312,eb:33:2e:f9:57:b5, 2085-97-197 05:136:255:5093,1.001,-0.035,2.522,428.04,344.604,-46.509,44.308,13.546,-124.299
 15:29:19.312,eb:33:2e:f9:57:b5, 2085-97-236 09:40:250:6300,1.787,-0.336,2.677,397.766,245.361,-180.176,48.757,16.419,-123.008
 15:29:19.372,eb:33:2e:f9:57:b5, 2085-97-211 25:82:240:10978,3.854,-1.175,4.021,394.043,195.068,-250.793,52.619,19.556,-122.981
 15:29:19.372,eb:33:2e:f9:57:b5, 2085-97-221 13:126:240:5288,0.297,-2.987,5.468,501.648,373.901,-183.472,57.524,23.049,-121.827
 15:29:19.373,eb:33:2e:f9:57:b5, 2085-97-219 03:155:245:-3009,0.443,-0.76,-0.74,378.54,212.524,-223.328,62.941,26.318,-119.872
 15:29:19.373,eb:33:2e:f9:57:b5, 2085-97-252 01:35:252:-6923,0.269,-1,-2.172,169.861,112.244,-115.173,65.951,28.383,-119.377
 15:29:19.401,eb:33:2e:f9:57:b5, 2085-97-239 03:05:247:-2583,0.743,-0.584,-3.161,-91.797,7.263,-99.915,66.237,29.575,-119.13
 15:29:19.401,eb:33:2e:f9:57:b5, 2085-97-226 05:254:244:2590,0.514,-1.313,0.401,-217.529,-27.466,-78.003,64.155,30.273,-119.877
 15:29:19.401,eb:33:2e:f9:57:b5, 2085-97-192 03:81:245:2994,0.513,-1.397,1.482,-244.507,23.01,-42.542,61.617,30.8,-120.146
 15:29:19.401,eb:33:2e:f9:57:b5, 2085-97-176 03:221:247:1395,0.43,-1.186,1.183,-225.769,38.574,-17.761,59.354,31.212,-119.976
 15:29:19.431,eb:33:2e:f9:57:b5, 2085-97-121 03:124:249:-145,0.452,-0.903,0.238,-214.111,9.46,-5.615,57.244,31.437,-119.806
 15:29:19.431,eb:33:2e:f9:57:b5, 2085-97-158 03:106:250:-549,0.44,-0.752,-0.221,-223.145,-35.339,3.54,54.998,31.355,-119.954
 15:29:19.431,eb:33:2e:f9:57:b5, 2085-97-184 03:134:250:-238,0.511,-0.661,-0.255,-245.422,-84.778,9.033,52.355,30.921,-120.482
 15:29:19.431,eb:33:2e:f9:57:b5, 2085-97-54 04:98:250:270,0.547,-0.691,0.024,-269.531,-121.582,14.954,49.34,30.141,-121.349
 15:29:19.492,eb:33:2e:f9:57:b5, 2085-97-12 04:153:250:587,0.507,-0.699,0.254,-293.213,-143.616,23.926,46.016,29.07,-122.338
 15:29:19.492,eb:33:2e:f9:57:b5, 2085-97-242 03:161:250:946,0.463,-0.672,0.371,-315.491,-161.987,28.381,42.495,27.762,-123.322
 15:29:19.492,eb:33:2e:f9:57:b5, 2085-97-57 03:163:250:1295,0.37,-0.672,0.56,-335.144,-172.974,35.278,38.793,26.263,-124.272
 15:29:19.492,eb:33:2e:f9:57:b5, 2085-97-145 02:109:250:1560,0.297,-0.688,0.722,-352.844,-176.392,44.678,35.008,24.604,-125.057
 15:29:19.523,eb:33:2e:f9:57:b5, 2085-97-78 02:107:250:1706,0.296,-0.697,0.797,-369.019,-177.795,58.105,31.146,22.824,-125.618
 15:29:19.523,eb:33:2e:f9:57:b5, 2085-97-104 02:162:250:1910,0.297,-0.691,0.886,-381.287,-180.359,73.181,27.279,20.934,-125.903
 15:29:19.523,eb:33:2e:f9:57:b5, 2085-97-03 02:67:251:1936,0.302,-0.65,0.971,-386.169,-188.049,86.609,23.395,18.918,-125.942
 15:29:19.523,eb:33:2e:f9:57:b5, 2085-113-58 00:75:226:-7020,0.325,-0.586,1.133,-380.676,-212.708,95.825,19.6,16.705,-125.793
 15:29:19.551,eb:33:2e:f9:57:b5, 2085-97-184 01:15:251:3330,0.266,-0.577,1.344,-375.061,-218.201,101.562,17.748,15.518,-125.651
 15:29:19.551,eb:33:2e:f9:57:b5, 2085-97-163 02:35:253:3344,0.334,-0.395,1.321,-361.511,-227.844,105.469,14.156,13.134,-125.167
 15:29:19.551,eb:33:2e:f9:57:b5, 2085-97-10 02:88:253:4106,0.207,-0.381,1.858,-339.722,-238.586,108.765,10.772,10.58,-124.601
 15:29:19.551,eb:33:2e:f9:57:b5, 2085-97-63 01:132:254:4757,0.13,-0.26,2.15,-320.129,-237.183,107.361,7.57,8.058,-123.871
 15:29:19.611,eb:33:2e:f9:57:b5, 2085-97-159 00:178:255:5405,0.042,-0.133,2.519,-312.805,-226.257,106.628,4.521,5.641,-123.019
 15:29:19.611,eb:33:2e:f9:57:b5, 2085-97-60 00:205:00:5739,0.006,0.043,2.7,-324.28,-208.984,103.149,1.384,3.439,-122.047
 15:29:19.611,eb:33:2e:f9:57:b5, 2085-97-226 255:37:02:6455,-0.041,0.161,2.953,-339.355,-194.458,104.126,-1.912,1.445,-120.981
 15:29:19.611,eb:33:2e:f9:57:b5, 2085-97-180 255:29:06:6826,-0.014,0.479,3.306,-337.585,-172.241,110.229,-5.334,-0.302,-119.762
 15:29:19.641,eb:33:2e:f9:57:b5, 2085-97-15 00:31:11:6547,-0.006,1.083,3.26,-325.806,-149.963,107.788,-8.685,-1.719,-118.46
 15:29:19.641,eb:33:2e:f9:57:b5, 2085-97-131 255:116:15:6304,-0.163,1.67,3.146,-305.115,-152.71,90.576,-11.926,-2.999,-117.186
 15:29:19.641,eb:33:2e:f9:57:b5, 2085-97-104 253:103:20:5321,-0.481,2.229,2.924,-278.259,-171.387,63.477,-14.908,-4.378,-116.043
 15:29:19.641,eb:33:2e:f9:57:b5, 2085-97-205 250:144:23:4023,-0.829,2.808,2.234,-265.747,-214.539,21.729,-17.721,-6.114,-115.065
 15:29:19.671,eb:33:2e:f9:57:b5, 2085-97-213 247:125:22:3911,-1.17,2.89,1.907,-267.761,-250.244,-16.663,-20.49,-8.355,-114.263
 15:29:19.671,eb:33:2e:f9:57:b5, 2085-97-74 246:112:23:4406,-1.208,2.818,1.963,-267.639,-231.689,-24.719,-23.318,-10.701,-113.511
 15:29:19.671,eb:33:2e:f9:57:b5, 2085-97-21 246:209:29:5480,-1.309,3.209,2.455,-241.882,-170.166,-25.635,-26.027,-12.623,-112.852
 15:29:19.671,eb:33:2e:f9:57:b5, 2085-97-07 245:67:38:4830,-1.498,4.322,2.645,-177.979,-76.05,-53.101,-28.185,-13.848,-112.621
 15:29:19.731,eb:33:2e:f9:57:b5, 2085-97-45 247:255:33:6146,-3.225,4.973,2.112,-75.989,-33.63,-115.662,-29.301,-14.689,-113.148
 15:29:19.731,eb:33:2e:f9:57:b5, 2085-97-224 227:165:19:9670,-2.636,3.394,5.901,191.101,263.855,2.441,-28.427,-14.667,-114.055
 15:29:19.731,eb:33:2e:f9:57:b5, 2085-97-29 240:129:12:624,-0.146,3.597,1.771,270.081,408.752,6.592,-25.521,-11.58,-115.735
 15:29:19.731,eb:33:2e:f9:57:b5, 2085-97-123 08:236:240:2121,1.847,0.23,-0.9,141.602,299.683,-22.095,-23.236,-8.3,-117.51
 15:29:19.762,eb:33:2e:f9:57:b5, 2085-97-47 14:213:233:3991,0.754,-3.225,1.846,255.005,194.031,-2.014,-21.187,-6.202,-118.57
 15:29:19.762,eb:33:2e:f9:57:b5, 2085-97-169 252:85:02:3499,-1.379,-1.333,1.985,380.676,206.848,43.579,-17.82,-4.246,-119.031
 15:29:19.762,eb:33:2e:f9:57:b5, 2085-97-10 245:82:12:3540,-1.199,1.141,1.727,356.018,164.49,51.819,-14.002,-2.307,-119.059
 15:29:19.762,eb:33:2e:f9:57:b5, 2085-97-188 249:27:07:2102,-0.51,1.26,1.457,333.191,25.146,13.123,-10.607,-1.582,-118.932
 15:29:19.791,eb:33:2e:f9:57:b5, 2085-97-12 255:234:01:2334,-0.122,0.481,1.001,277.1,-27.466,-47.852,-7.57,-1.637,-119.125
 15:29:19.792,eb:33:2e:f9:57:b5, 2085-97-90 253:124:01:2320,-0.357,0.188,1.282,240.662,-1.221,-77.393,-4.999,-1.917,-119.773
 15:29:19.792,eb:33:2e:f9:57:b5, 2085-97-77 00:165:248:1223,0.774,0.419,0.751,197.205,-47.668,-103.455,-2.686,-2.098,-120.652
 15:29:19.792,eb:33:2e:f9:57:b5, 2085-97-63 04:240:05:3787,0.276,0.05,1.644,163.025,-74.28,-24.658,-0.906,-2.972,-121.168
 15:29:19.881,eb:33:2e:f9:57:b5, 2085-97-30 00:18:06:1940,0.143,0.755,1.277,110.474,26.978,23.743,0.478,-3.109,-121.113
 15:29:19.881,eb:33:2e:f9:57:b5, 2085-97-27 252:163:04:1369,-0.623,1.011,0.856,49.316,72.571,17.212,1.198,-2.538,-120.822
 15:29:19.881,eb:33:2e:f9:57:b5, 2085-97-25 252:234:01:1470,-0.102,0.002,0.67,30.457,33.997,-5.493,1.582,-2.016,-120.905
 15:29:19.881,eb:33:2e:f9:57:b5, 2085-97-152 00:143:00:2279,-0.07,0.299,0.932,14.465,-0.916,-15.32,1.813,-1.906,-120.992
 15:29:19.883,eb:33:2e:f9:57:b5, 2085-97-108 254:145:00:1772,-0.233,-0.016,1.02,10.437,32.654,2.869,1.928,-1.714,-121.064
 15:29:19.883,eb:33:2e:f9:57:b5, 2085-97-17 254:165:00:1680,-0.105,0.086,0.823,7.874,21.729,2.93,2.032,-1.406,-121.014
 15:29:19.883,eb:33:2e:f9:57:b5, 2085-97-85 255:152:00:1983,-0.1,0.068,0.929,3.296,-0.366,2.258,2.082,-1.335,-120.992
 15:29:19.883,eb:33:2e:f9:57:b5, 2085-97-112 255:38:00:2106,-0.091,0.059,0.971,3.54,-12.39,-4.028,2.137,-1.395,-121.009
 15:29:19.912,eb:33:2e:f9:57:b5, 2085-97-242 254:45:00:1976,-0.087,0.011,1.012,4.822,-14.038,-2.686,2.175,-1.522,-121.036
 15:29:19.912,eb:33:2e:f9:57:b5, 2085-97-165 255:99:00:2047,-0.009,0.022,0.994,5.981,-24.353,-4.028,2.252,-1.719,-121.091
 15:29:19.912,eb:33:2e:f9:57:b5, 2085-97-250 255:40:00:2142,-0.002,0.033,1.032,5.188,-19.409,0.549,2.307,-1.95,-121.119
 15:29:19.912,eb:33:2e:f9:57:b5, 2085-97-184 255:95:00:2087,-0.017,0.041,1.036,5.249,-11.963,5.981,2.373,-2.082,-121.075
 15:29:19.971,eb:33:2e:f9:57:b5, 2085-97-237 255:199:00:2038,0,0.062,1.006,4.517,-13.184,5.615,2.422,-2.214,-121.02
 15:29:19.971,eb:33:2e:f9:57:b5, 2085-97-11 00:137:00:2001,0.053,0.105,1.004,2.014,-11.719,3.784,2.466,-2.335,-120.981
 15:29:19.971,eb:33:2e:f9:57:b5, 2085-97-11 01:111:00:2201,0.175,0.055,1.023,0.793,-13.733,0.793,2.472,-2.466,-120.965
 15:29:19.971,eb:33:2e:f9:57:b5, 2085-97-187 01:145:00:2249,0.293,0.034,1.07,0.549,-3.662,-0.366,2.494,-2.538,-120.965
 15:29:20.003,eb:33:2e:f9:57:b5, 2085-97-104 02:108:00:2330,0.259,0.063,1.125,-0.671,10.681,-3.235,2.494,-2.51,-120.992
 15:29:20.003,eb:33:2e:f9:57:b5, 2085-97-119 01:74:00:2271,0.082,0.047,1.126,-0.183,31.311,-5.798,2.505,-2.269,-121.031
 15:29:20.003,eb:33:2e:f9:57:b5, 2085-97-31 00:68:00:2060,-0.021,0.035,1.052,0.366,42.48,-7.446,2.51,-1.873,-121.091
 15:29:20.003,eb:33:2e:f9:57:b5, 2085-97-149 255:71:00:1955,-0.083,0.033,0.979,0.549,39.673,-11.23,2.532,-1.45,-121.174
 15:29:20.091,eb:33:2e:f9:57:b5, 2085-97-243 254:27:00:1868,-0.131,0.02,0.941,0.61,34.302,-10.681,2.543,-1.082,-121.278
 15:29:20.091,eb:33:2e:f9:57:b5, 2085-97-243 254:10:00:1902,-0.108,-0.005,0.919,2.075,21.851,-10.376,2.571,-0.791,-121.377
