Time,Device name,Chip Time(),Acceleration X(g),Acceleration Y(g),Acceleration Z(g),Angular velocity X(°/s),Angular velocity Y(°/s),Angular velocity Z(°/s),Angle X(°),Angle Y(°),Angle Z(°)
 15:31:45.208,eb:33:2e:f9:57:b5, 2085-97-161 255:06:00:2039,-0.04,0.003,0.995,-0.122,-0.488,-0.061,0.945,2.241,-129.847
 15:31:45.208,eb:33:2e:f9:57:b5, 2085-97-181 255:03:00:2054,-0.037,0.002,1,-0.305,-0.854,-0.183,0.945,2.241,-129.847
 15:31:45.208,eb:33:2e:f9:57:b5, 2085-97-176 255:03:00:2052,-0.039,0.001,1.002,-0.244,-0.671,-0.183,0.945,2.247,-129.847
 15:31:45.208,eb:33:2e:f9:57:b5, 2085-97-175 255:04:00:2051,-0.039,0.001,1.002,-0.244,-0.488,-0.183,0.945,2.247,-129.847
 15:31:45.238,eb:33:2e:f9:57:b5, 2085-97-176 255:05:00:2050,-0.039,0.002,1.001,-0.183,-0.366,-0.183,0.945,2.252,-129.847
 15:31:45.238,eb:33:2e:f9:57:b5, 2085-97-173 255:03:00:2053,-0.042,0.002,1.002,-0.183,-0.183,-0.183,0.945,2.252,-129.847
 15:31:45.238,eb:33:2e:f9:57:b5, 2085-97-168 255:00:00:2047,-0.045,0.001,1.002,-0.183,-0.122,-0.122,0.945,2.258,-129.853
 15:31:45.238,eb:33:2e:f9:57:b5, 2085-97-160 255:01:00:2042,-0.052,0,0.999,-0.183,-0.305,-0.061,0.945,2.258,-129.853
 15:31:45.268,eb:33:2e:f9:57:b5, 2085-97-146 255:00:00:2035,-0.048,0,0.996,-0.183,-0.916,0.061,0.945,2.263,-129.853
 15:31:45.268,eb:33:2e:f9:57:b5, 2085-97-165 255:253:255:2047,-0.038,-0.001,0.998,-0.122,-1.892,0,0.945,2.263,-129.853
 15:31:45.268,eb:33:2e:f9:57:b5, 2085-97-193 255:00:00:2065,-0.026,0,1.003,0,-2.197,0.061,0.945,2.274,-129.853
 15:31:45.268,eb:33:2e:f9:57:b5, 2085-97-202 255:255:255:2070,-0.033,0,1.011,0.122,-1.465,0.061,0.945,2.274,-129.853
 15:31:45.329,eb:33:2e:f9:57:b5, 2085-97-183 255:255:255:2062,-0.034,-0.001,1.009,0.244,-0.61,0.244,0.945,2.28,-129.853
 15:31:45.329,eb:33:2e:f9:57:b5, 2085-113-58 00:211:225:-5955,-0.032,0,1.007,0.427,-0.122,0.183,0.945,2.28,-129.853
 15:31:45.329,eb:33:2e:f9:57:b5, 2085-97-191 255:01:00:2064,-0.031,0.001,1.007,0.427,0.122,0.122,0.945,2.28,-129.853
 15:31:45.329,eb:33:2e:f9:57:b5, 2085-97-193 255:250:255:2076,-0.032,-0.002,1.013,0.549,0.916,0.061,0.945,2.285,-129.858
 15:31:45.358,eb:33:2e:f9:57:b5, 2085-97-177 255:03:00:2056,-0.041,-0.001,1.011,0.793,1.526,-0.061,0.945,2.285,-129.858
 15:31:45.358,eb:33:2e:f9:57:b5, 2085-97-163 255:01:00:2037,-0.043,0.001,1,0.854,1.526,-0.305,0.945,2.291,-129.858
 15:31:45.358,eb:33:2e:f9:57:b5, 2085-97-168 255:01:00:2041,-0.044,0.001,0.996,0.916,0.977,-0.305,0.945,2.291,-129.858
 15:31:45.358,eb:33:2e:f9:57:b5, 2085-97-165 255:07:00:2038,-0.044,0.002,0.997,1.038,0.732,-0.244,0.939,2.296,-129.858
 15:31:45.388,eb:33:2e:f9:57:b5, 2085-97-167 255:04:00:2044,-0.042,0.004,0.994,0.977,0.427,0,0.939,2.296,-129.858
 15:31:45.388,eb:33:2e:f9:57:b5, 2085-97-168 255:14:00:2033,-0.04,0,0.997,1.099,0,0,0.939,2.302,-129.858
 15:31:45.388,eb:33:2e:f9:57:b5, 2085-97-171 255:11:00:2042,-0.042,0.006,0.997,0.977,-0.244,-0.122,0.939,2.302,-129.858
 15:31:45.388,eb:33:2e:f9:57:b5, 2085-97-175 255:13:00:2044,-0.041,0.005,0.996,0.854,-0.488,-0.122,0.939,2.307,-129.864
 15:31:45.448,eb:33:2e:f9:57:b5, 2085-97-174 255:10:00:2048,-0.038,0.006,0.997,0.61,-0.305,0,0.939,2.307,-129.864
 15:31:45.448,eb:33:2e:f9:57:b5, 2085-97-189 255:09:00:2061,-0.034,0.005,1.002,0.488,-0.122,-0.122,0.939,2.313,-129.864
 15:31:45.448,eb:33:2e:f9:57:b5, 2085-97-178 255:06:00:2057,-0.039,0.004,1.005,0.366,0.305,-0.122,0.939,2.313,-129.864
 15:31:45.448,eb:33:2e:f9:57:b5, 2085-97-175 255:06:00:2052,-0.044,0.003,1.004,0.427,0.366,-0.305,0.939,2.313,-129.864
 15:31:45.479,eb:33:2e:f9:57:b5, 2085-97-165 255:05:00:2048,-0.043,0,0.998,0.61,-0.183,-0.366,0.939,2.313,-129.864
 15:31:45.479,eb:33:2e:f9:57:b5, 2085-97-165 255:08:00:2046,-0.04,0.004,1,0.61,-0.366,-0.366,0.939,2.318,-129.864
 15:31:45.479,eb:33:2e:f9:57:b5, 2085-97-173 255:08:00:2049,-0.04,0.004,1.002,0.549,-0.427,-0.427,0.939,2.318,-129.864
 15:31:45.479,eb:33:2e:f9:57:b5, 2085-97-172 255:09:00:2047,-0.037,0.003,1.002,0.61,-0.488,-0.366,0.939,2.324,-129.869
 15:31:45.538,eb:33:2e:f9:57:b5, 2085-97-172 255:16:00:2043,-0.038,0.004,1.003,0.732,-0.305,-0.427,0.939,2.324,-129.869
 15:31:45.538,eb:33:2e:f9:57:b5, 2085-97-161 255:09:00:2036,-0.043,0.006,0.999,0.366,-0.488,-0.427,0.939,2.329,-129.869
 15:31:45.538,eb:33:2e:f9:57:b5, 2085-97-157 255:09:00:2030,-0.038,0.003,0.998,0.427,-1.404,-0.488,0.939,2.329,-129.869
 15:31:45.538,eb:33:2e:f9:57:b5, 2085-97-170 255:07:00:2045,-0.032,0.003,1.003,0.183,-1.465,-0.183,0.939,2.335,-129.869
 15:31:45.568,eb:33:2e:f9:57:b5, 2085-97-190 255:07:00:2060,-0.021,0.003,1.008,0,-1.099,0,0.939,2.335,-129.869
 15:31:45.568,eb:33:2e:f9:57:b5, 2085-97-201 255:04:00:2066,-0.026,0.002,1.015,-0.183,-0.061,-0.244,0.939,2.34,-129.869
 15:31:45.568,eb:33:2e:f9:57:b5, 2085-97-198 255:13:00:2063,-0.029,0.003,1.011,0.061,0.366,-0.244,0.939,2.34,-129.869
 15:31:45.568,eb:33:2e:f9:57:b5, 2085-97-185 255:02:00:2056,-0.035,0.004,1.007,0,1.526,-0.183,0.945,2.346,-129.869
 15:31:45.599,eb:33:2e:f9:57:b5, 2085-97-186 255:03:00:2065,-0.035,0,1.006,0.183,1.526,-0.244,0.945,2.346,-129.869
 15:31:45.599,eb:33:2e:f9:57:b5, 2085-97-186 255:09:00:2059,-0.034,0.002,1.007,0.183,2.075,-0.244,0.945,2.346,-129.875
 15:31:45.599,eb:33:2e:f9:57:b5, 2085-97-180 255:02:00:2056,-0.044,0.004,1.005,0.366,2.075,-0.549,0.945,2.346,-129.875
 15:31:45.599,eb:33:2e:f9:57:b5, 2085-97-160 255:06:00:2043,-0.044,0.002,0.999,0.61,1.892,-0.61,0.945,2.351,-129.875
 15:31:45.659,eb:33:2e:f9:57:b5, 2085-97-160 255:04:00:2045,-0.047,0.003,1,0.671,1.343,-0.793,0.945,2.351,-129.875
 15:31:45.659,eb:33:2e:f9:57:b5, 2085-97-157 255:05:00:2040,-0.042,0.001,0.999,0.854,0.793,-0.671,0.945,2.357,-129.875
 15:31:45.659,eb:33:2e:f9:57:b5, 2085-97-174 255:09:00:2053,-0.041,0.003,1.001,1.038,0.427,-0.671,0.945,2.357,-129.875
 15:31:45.659,eb:33:2e:f9:57:b5, 2085-97-179 255:11:00:2061,-0.044,0.005,1.005,1.038,0.488,-0.427,0.945,2.362,-129.875
 15:31:45.689,eb:33:2e:f9:57:b5, 2085-97-179 255:08:00:2057,-0.039,0.004,1.001,1.038,0.671,-0.427,0.945,2.362,-129.875
 15:31:45.690,eb:33:2e:f9:57:b5, 2085-97-190 255:20:00:2057,-0.031,0.008,0.999,0.916,1.221,-0.244,0.945,2.362,-129.88
 15:31:45.690,eb:33:2e:f9:57:b5, 2085-97-184 255:15:00:2055,-0.041,0.012,1.004,0.732,2.258,-0.61,0.945,2.362,-129.88
 15:31:45.690,eb:33:2e:f9:57:b5, 2085-97-151 255:247:255:2031,-0.052,0.003,0.993,0.793,2.563,0,0.95,2.379,-129.88
 15:31:45.718,eb:33:2e:f9:57:b5, 2085-97-154 255:16:00:2042,-0.046,0.004,0.991,1.343,1.038,0.122,0.961,2.395,-129.875
 15:31:45.718,eb:33:2e:f9:57:b5, 2085-97-164 255:11:00:2055,-0.038,0.008,1,1.343,0.854,-0.244,0.972,2.406,-129.875
 15:31:45.718,eb:33:2e:f9:57:b5, 2085-97-175 255:27:00:2059,-0.045,0.006,1.009,1.343,0.854,-0.183,0.989,2.411,-129.88
 15:31:45.718,eb:33:2e:f9:57:b5, 2085-97-165 255:12:00:2052,-0.049,0.003,1,1.343,0.61,-0.183,1,2.417,-129.88
 15:31:45.748,eb:33:2e:f9:57:b5, 2085-97-154 255:14:00:2043,-0.052,0.006,0.998,1.16,0.366,-0.366,1.016,2.422,-129.886
 15:31:45.748,eb:33:2e:f9:57:b5, 2085-97-142 255:253:255:2044,-0.041,0.003,0.997,1.221,-0.244,-0.061,1.027,2.422,-129.891
 15:31:45.748,eb:33:2e:f9:57:b5, 2085-97-163 255:03:00:2049,-0.04,0,1.007,1.221,-0.366,0.977,1.038,2.417,-129.88
 15:31:45.748,eb:33:2e:f9:57:b5, 2085-97-185 255:21:00:2056,-0.033,0.009,1.001,1.282,-1.16,0.793,1.055,2.406,-129.875
 15:31:45.809,eb:33:2e:f9:57:b5, 2085-97-177 255:25:00:2049,-0.042,0.012,1.007,0.977,-0.305,0.854,1.066,2.395,-129.864
 15:31:45.809,eb:33:2e:f9:57:b5, 2085-97-181 255:23:00:2051,-0.04,0.011,0.999,0.671,-0.366,0.549,1.077,2.39,-129.858
 15:31:45.809,eb:33:2e:f9:57:b5, 2085-97-183 255:26:00:2050,-0.036,0.011,0.998,0.427,-0.244,-0.122,1.082,2.39,-129.853
 15:31:45.809,eb:33:2e:f9:57:b5, 2085-97-183 255:22:00:2057,-0.038,0.011,1.003,0.244,-0.244,-0.549,1.082,2.384,-129.858
 15:31:45.838,eb:33:2e:f9:57:b5, 2085-97-178 255:21:00:2049,-0.038,0.01,1.001,0.244,0.61,-0.305,1.088,2.384,-129.864
 15:31:45.838,eb:33:2e:f9:57:b5, 2085-97-177 255:17:00:2051,-0.043,0.009,1.001,0.122,0.977,-0.671,1.088,2.395,-129.864
 15:31:45.838,eb:33:2e:f9:57:b5, 2085-97-162 255:18:00:2040,-0.047,0.009,0.998,0.061,1.465,-0.366,1.088,2.406,-129.869
 15:31:45.838,eb:33:2e:f9:57:b5, 2085-97-164 255:23:00:2042,-0.046,0.01,0.997,0,0.916,-0.305,1.088,2.417,-129.875
 15:31:45.901,eb:33:2e:f9:57:b5, 2085-97-163 255:17:00:2042,-0.045,0.008,0.997,-0.122,0.61,-0.793,1.088,2.422,-129.88
 15:31:45.901,eb:33:2e:f9:57:b5, 2085-97-166 255:18:00:2044,-0.047,0.009,0.998,-0.122,0.183,-0.61,1.088,2.428,-129.886
 15:31:45.901,eb:33:2e:f9:57:b5, 2085-97-159 255:12:00:2045,-0.044,0.007,0.999,-0.305,0.427,-0.305,1.088,2.433,-129.891
 15:31:45.901,eb:33:2e:f9:57:b5, 2085-97-174 255:19:00:2048,-0.04,0.008,1,-0.305,0,-0.122,1.082,2.433,-129.891
 15:31:45.901,eb:33:2e:f9:57:b5, 2085-97-176 255:21:00:2052,-0.042,0.011,1,-0.427,0.122,-0.122,1.082,2.433,-129.891
 15:31:45.930,eb:33:2e:f9:57:b5, 2085-113-58 00:14:227:-6210,-0.044,0.01,0.999,-0.61,0.732,0,1.088,2.439,-129.897
 15:31:45.930,eb:33:2e:f9:57:b5, 2085-97-166 255:22:00:2042,-0.044,0.011,0.996,-0.732,0.549,-0.061,1.088,2.439,-129.897
 15:31:45.930,eb:33:2e:f9:57:b5, 2085-97-163 255:15:00:2042,-0.044,0.007,0.998,-0.916,0.671,0,1.088,2.45,-129.897
 15:31:45.930,eb:33:2e:f9:57:b5, 2085-97-173 255:12:00:2051,-0.036,0.006,0.999,-0.977,0.549,0.061,1.088,2.45,-129.897
 15:31:45.960,eb:33:2e:f9:57:b5, 2085-97-190 255:15:00:2063,-0.033,0.006,1.006,-0.854,0.793,0,1.093,2.455,-129.902
 15:31:45.960,eb:33:2e:f9:57:b5, 2085-97-179 255:12:00:2061,-0.042,0.007,1.008,-0.916,1.648,-0.061,1.093,2.455,-129.902
 15:31:45.960,eb:33:2e:f9:57:b5, 2085-97-169 255:15:00:2058,-0.043,0.007,1.003,-0.916,2.014,0,1.093,2.466,-129.902
 15:31:45.960,eb:33:2e:f9:57:b5, 2085-97-169 255:10:00:2063,-0.041,0.007,1.005,-0.854,2.38,0.061,1.093,2.466,-129.902
 15:31:46.019,eb:33:2e:f9:57:b5, 2085-97-175 255:10:00:2059,-0.042,0.005,1.005,-0.793,2.563,0.061,1.099,2.472,-129.908
 15:31:46.019,eb:33:2e:f9:57:b5, 2085-97-161 255:13:00:2051,-0.046,0.006,1.004,-0.732,2.93,0,1.093,2.472,-129.908
 15:31:46.019,eb:33:2e:f9:57:b5, 2085-97-164 255:08:00:2054,-0.041,0.005,1.003,-0.671,3.052,0.122,1.088,2.505,-129.902
 15:31:46.019,eb:33:2e:f9:57:b5, 2085-97-170 255:11:00:2057,-0.045,0.006,1.005,-0.488,3.174,0.061,1.082,2.532,-129.902
 15:31:46.049,eb:33:2e:f9:57:b5, 2085-97-160 255:15:00:2046,-0.049,0.006,1.001,-0.488,3.662,0.122,1.077,2.571,-129.902
 15:31:46.049,eb:33:2e:f9:57:b5, 2085-97-156 255:15:00:2044,-0.05,0.007,0.998,-0.61,3.662,0.244,1.071,2.604,-129.897
 15:31:46.049,eb:33:2e:f9:57:b5, 2085-97-156 255:12:00:2049,-0.047,0.007,0.998,-0.671,3.479,0.183,1.066,2.642,-129.897
 15:31:46.049,eb:33:2e:f9:57:b5, 2085-97-155 255:03:00:2055,-0.05,0,1.005,-0.549,3.54,0.305,1.06,2.675,-129.891
 15:31:46.079,eb:33:2e:f9:57:b5, 2085-97-152 255:18:00:2049,-0.05,0.005,1.001,-0.488,3.113,0.427,1.055,2.708,-129.886
 15:31:46.079,eb:33:2e:f9:57:b5, 2085-97-143 255:08:00:2044,-0.056,0.005,1.002,-0.61,2.991,0.305,1.049,2.736,-129.886
 15:31:46.079,eb:33:2e:f9:57:b5, 2085-97-145 255:12:00:2044,-0.053,0.006,0.996,-0.61,2.014,0.366,1.044,2.758,-129.88
 15:31:46.079,eb:33:2e:f9:57:b5, 2085-97-151 255:08:00:2052,-0.05,0.005,1,-0.61,1.587,0.305,1.038,2.774,-129.875
 15:31:46.139,eb:33:2e:f9:57:b5, 2085-97-154 255:06:00:2051,-0.049,0.002,1.002,-0.549,1.221,0.305,1.033,2.791,-129.869
 15:31:46.139,eb:33:2e:f9:57:b5, 2085-97-152 255:14:00:2047,-0.051,0.005,1.001,-0.488,1.16,0.244,1.027,2.802,-129.869
 15:31:46.139,eb:33:2e:f9:57:b5, 2085-97-145 255:11:00:2048,-0.053,0.005,1.003,-0.61,1.221,0.244,1.022,2.812,-129.864
 15:31:46.139,eb:33:2e:f9:57:b5, 2085-97-147 255:06:00:2049,-0.054,0.005,1,-0.549,0.977,0.305,1.016,2.818,-129.864
 15:31:46.198,eb:33:2e:f9:57:b5, 2085-97-146 255:08:00:2050,-0.054,0.003,1,-0.366,0.488,0.305,1.011,2.829,-129.858
 15:31:46.198,eb:33:2e:f9:57:b5, 2085-97-146 255:06:00:2045,-0.053,0.004,1,-0.305,0.061,0.305,1.005,2.829,-129.853
 15:31:46.198,eb:33:2e:f9:57:b5, 2085-97-155 255:09:00:2052,-0.05,0.003,0.999,-0.183,-0.305,0.305,1.005,2.829,-129.847
 15:31:46.198,eb:33:2e:f9:57:b5, 2085-97-149 255:09:00:2051,-0.055,0.005,1.002,-0.183,-0.061,0.366,1,2.823,-129.847
 15:31:46.201,eb:33:2e:f9:57:b5, 2085-97-144 255:12:00:2043,-0.054,0.005,0.998,-0.183,-0.061,0.427,1,2.823,-129.842
 15:31:46.201,eb:33:2e:f9:57:b5, 2085-97-152 255:10:00:2052,-0.051,0.007,0.999,-0.305,-0.488,0.122,1,2.818,-129.836
 15:31:46.201,eb:33:2e:f9:57:b5, 2085-97-153 255:11:00:2053,-0.049,0.005,1.001,-0.305,-0.305,0.244,0.994,2.812,-129.836
 15:31:46.201,eb:33:2e:f9:57:b5, 2085-97-161 255:05:00:2062,-0.045,0.006,1.003,-0.305,-0.122,0.183,0.994,2.812,-129.831
 15:31:46.258,eb:33:2e:f9:57:b5, 2085-97-166 255:08:00:2060,-0.046,0.001,1.006,-0.122,0.305,0.183,0.989,2.812,-129.825
 15:31:46.258,eb:33:2e:f9:57:b5, 2085-97-149 255:03:00:2051,-0.056,0.005,1.003,0,0.61,-0.061,0.989,2.812,-129.825
 15:31:46.258,eb:33:2e:f9:57:b5, 2085-97-140 255:07:00:2042,-0.055,0.003,0.999,0.183,0.61,0.183,0.989,2.823,-129.825
 15:31:46.258,eb:33:2e:f9:57:b5, 2085-97-147 255:04:00:2050,-0.054,0.003,1,0.183,0.183,0,0.994,2.823,-129.825
 15:31:46.288,eb:33:2e:f9:57:b5, 2085-97-148 255:10:00:2050,-0.052,0.004,1,0.305,0,0.122,0.994,2.823,-129.825
 15:31:46.288,eb:33:2e:f9:57:b5, 2085-97-153 255:03:00:2055,-0.05,0.002,1.004,0.305,-0.122,0,1,2.823,-129.825
 15:31:46.288,eb:33:2e:f9:57:b5, 2085-97-156 255:02:00:2058,-0.053,0.003,1.003,0.427,-0.183,-0.122,1.005,2.84,-129.825
 15:31:46.288,eb:33:2e:f9:57:b5, 2085-97-151 255:03:00:2052,-0.053,0.004,1,0.549,-0.427,0.122,1.005,2.84,-129.825
 15:31:46.318,eb:33:2e:f9:57:b5, 2085-97-149 255:07:00:2050,-0.055,0.006,0.997,0.549,-0.916,-0.183,1.005,2.856,-129.831
 15:31:46.318,eb:33:2e:f9:57:b5, 2085-97-149 255:14:00:2047,-0.052,0.009,0.995,0.366,-0.854,0,1.005,2.856,-129.831
 15:31:46.318,eb:33:2e:f9:57:b5, 2085-97-155 255:15:00:2053,-0.043,0.007,0.999,0.183,-0.427,0.305,1.011,2.867,-129.836
 15:31:46.318,eb:33:2e:f9:57:b5, 2085-97-169 255:12:00:2062,-0.045,0.002,1.01,0.122,0,0.305,1.011,2.867,-129.836
 15:31:46.380,eb:33:2e:f9:57:b5, 2085-97-150 255:13:00:2050,-0.054,0.004,1.008,0.122,0.488,0.122,1.011,2.878,-129.836
 15:31:46.380,eb:33:2e:f9:57:b5, 2085-97-149 255:05:00:2048,-0.05,0.002,1.001,0.183,0.366,0.183,1.011,2.878,-129.836
 15:31:46.380,eb:33:2e:f9:57:b5, 2085-97-153 255:13:00:2049,-0.055,0.005,1.001,0.305,0.122,0.122,1.016,2.884,-129.842
 15:31:46.380,eb:33:2e:f9:57:b5, 2085-97-140 255:20:00:2035,-0.054,0.008,0.995,0.305,-0.122,0.122,1.016,2.884,-129.842
 15:31:46.408,eb:33:2e:f9:57:b5, 2085-97-148 255:10:00:2048,-0.05,0.005,1,0.305,-0.122,0.122,1.016,2.895,-129.842
 15:31:46.408,eb:33:2e:f9:57:b5, 2085-97-153 255:12:00:2049,-0.052,0.006,1.001,0.244,-0.122,0.183,1.016,2.895,-129.842
 15:31:46.408,eb:33:2e:f9:57:b5, 2085-97-140 255:08:00:2046,-0.055,0.004,1.002,0.244,-0.122,0.183,1.016,2.9,-129.847
 15:31:46.408,eb:33:2e:f9:57:b5, 2085-97-148 255:11:00:2046,-0.051,0.003,0.999,0.305,-0.488,0.244,1.016,2.9,-129.842
 15:31:46.438,eb:33:2e:f9:57:b5, 2085-97-156 255:14:00:2056,-0.049,0.006,1.001,0.183,-0.732,0.244,1.022,2.906,-129.847
 15:31:46.438,eb:33:2e:f9:57:b5, 2085-97-148 255:13:00:2052,-0.056,0.007,1.004,0.122,-0.488,0.244,1.022,2.906,-129.847
 15:31:46.438,eb:33:2e:f9:57:b5, 2085-97-140 255:10:00:2044,-0.055,0.006,0.998,0.122,-0.61,0.183,1.022,2.917,-129.847
 15:31:46.438,eb:33:2e:f9:57:b5, 2085-97-156 255:08:00:2047,-0.043,0.003,0.999,0.183,-1.038,0.061,1.022,2.917,-129.847
 15:31:46.499,eb:33:2e:f9:57:b5, 2085-97-175 255:12:00:2065,-0.04,0.004,1.003,0.305,-1.099,0,1.022,2.922,-129.847
 15:31:46.499,eb:33:2e:f9:57:b5, 2085-97-163 255:12:00:2067,-0.05,0.006,1.011,0.488,-0.061,0.244,1.022,2.922,-129.847
 15:31:46.499,eb:33:2e:f9:57:b5, 2085-97-144 255:11:00:2046,-0.055,0.006,1.003,0.61,0.488,0.305,1.027,2.928,-129.847
 15:31:46.499,eb:33:2e:f9:57:b5, 2085-97-153 255:10:00:2054,-0.047,0.005,1,0.671,-0.061,0,1.027,2.928,-129.847
 15:31:46.528,eb:33:2e:f9:57:b5, 2085-97-164 255:13:00:2052,-0.046,0.006,1.004,0.61,-0.183,-0.305,1.027,2.933,-129.853
 15:31:46.528,eb:33:2e:f9:57:b5, 2085-97-158 255:18:00:2043,-0.048,0.008,1,0.549,0,-0.305,1.027,2.933,-129.853
 15:31:46.528,eb:33:2e:f9:57:b5, 2085-97-153 255:19:00:2040,-0.053,0.01,0.998,0.488,0.305,-0.305,1.027,2.933,-129.853
 15:31:46.528,eb:33:2e:f9:57:b5, 2085-97-141 255:11:00:2053,-0.059,0.008,0.999,0.366,0.427,-0.183,1.027,2.933,-129.853
 15:31:46.559,eb:33:2e:f9:57:b5, 2085-97-139 255:12:00:2045,-0.057,0.004,1,0.427,0.244,-0.061,1.027,2.939,-129.853
 15:31:46.559,eb:33:2e:f9:57:b5, 2085-97-148 255:13:00:2048,-0.051,0.004,1,0.488,-0.366,-0.427,1.027,2.939,-129.853
 15:31:46.559,eb:33:2e:f9:57:b5, 2085-97-153 255:13:00:2050,-0.052,0.007,1,0.427,-0.793,-0.732,1.033,2.944,-129.853
 15:31:46.559,eb:33:2e:f9:57:b5, 2085-97-155 255:10:00:2053,-0.046,0.005,0.999,0.366,-1.16,-0.671,1.033,2.944,-129.853
 15:31:46.622,eb:33:2e:f9:57:b5, 2085-97-160 255:13:00:2055,-0.049,0.006,1.003,0.366,-1.16,-0.488,1.033,2.95,-129.853
 15:31:46.622,eb:33:2e:f9:57:b5, 2085-97-151 255:17:00:2043,-0.048,0.008,1.002,0.244,-0.61,-0.244,1.033,2.95,-129.853
 15:31:46.622,eb:33:2e:f9:57:b5, 2085-97-168 255:22:00:2055,-0.043,0.01,0.995,0.122,-0.549,-0.183,1.033,2.955,-129.853
 15:31:46.622,eb:33:2e:f9:57:b5, 2085-97-153 255:07:00:2056,-0.053,0.006,1.009,0.061,0.183,-0.183,1.033,2.955,-129.853
 15:31:46.649,eb:33:2e:f9:57:b5, 2085-97-142 255:15:00:2035,-0.056,0.007,0.997,0.183,-0.183,-0.366,1.033,2.955,-129.858
 15:31:46.649,eb:33:2e:f9:57:b5, 2085-97-141 255:10:00:2041,-0.055,0.006,0.995,0.183,-0.732,-0.427,1.033,2.955,-129.853
 15:31:46.649,eb:33:2e:f9:57:b5, 2085-97-149 255:13:00:2048,-0.051,0.005,0.999,0.244,-1.526,-0.549,1.033,2.961,-129.858
 15:31:46.649,eb:33:2e:f9:57:b5, 2085-97-150 255:13:00:2048,-0.051,0.006,1,0.305,-1.892,-0.488,1.033,2.961,-129.858
 15:31:46.679,eb:33:2e:f9:57:b5, 2085-97-155 255:12:00:2049,-0.047,0.007,0.999,0.366,-2.075,-0.427,1.038,2.966,-129.858
 15:31:46.679,eb:33:2e:f9:57:b5, 2085-97-164 255:17:00:2055,-0.045,0.006,1,0.366,-2.319,-0.305,1.038,2.966,-129.858
 15:31:46.679,eb:33:2e:f9:57:b5, 2085-97-161 255:21:00:2047,-0.045,0.008,1.002,0.305,-2.075,-0.305,1.038,2.966,-129.858
 15:31:46.679,eb:33:2e:f9:57:b5, 2085-97-166 255:21:00:2047,-0.043,0.01,1,0.244,-2.014,-0.244,1.038,2.966,-129.858
 15:31:46.739,eb:33:2e:f9:57:b5, 2085-97-170 255:16:00:2057,-0.041,0.01,1,0,-1.465,-0.244,1.038,2.972,-129.858
 15:31:46.739,eb:33:2e:f9:57:b5, 2085-97-170 255:05:00:2067,-0.042,0.003,1.01,0.061,-1.038,-0.122,1.038,2.972,-129.858
 15:31:46.739,eb:33:2e:f9:57:b5, 2085-97-160 255:15:00:2054,-0.052,0.007,1.006,0.305,-0.793,-0.122,1.038,2.972,-129.858
 15:31:46.739,eb:33:2e:f9:57:b5, 2085-97-153 255:10:00:2049,-0.052,0.005,1.001,0.366,-0.916,-0.061,1.038,2.972,-129.858
 15:31:46.770,eb:33:2e:f9:57:b5, 2085-97-154 255:19:00:2045,-0.05,0.007,0.998,0.366,-1.465,-0.061,1.044,2.977,-129.864
 15:31:46.770,eb:33:2e:f9:57:b5, 2085-97-151 255:17:00:2039,-0.051,0.008,0.999,0.366,-1.587,0.183,1.044,2.977,-129.864
 15:31:46.770,eb:33:2e:f9:57:b5, 2085-97-156 255:15:00:2045,-0.045,0.008,0.996,0.183,-1.953,0.183,1.044,2.983,-129.864
 15:31:46.770,eb:33:2e:f9:57:b5, 2085-113-58 00:120:226:-5820,-0.039,0.005,1.001,0.244,-1.892,0.244,1.044,2.983,-129.864
 15:31:46.798,eb:33:2e:f9:57:b5, 2085-97-178 255:08:00:2063,-0.044,0.004,1.007,0.305,-1.77,0.061,1.044,2.983,-129.864
 15:31:46.798,eb:33:2e:f9:57:b5, 2085-97-156 255:20:00:2040,-0.051,0.008,1,0.488,-1.526,0.122,1.044,2.983,-129.864
 15:31:46.798,eb:33:2e:f9:57:b5, 2085-97-155 255:17:00:2038,-0.045,0.01,0.994,0.427,-1.892,0.061,1.044,2.983,-129.864
 15:31:46.798,eb:33:2e:f9:57:b5, 2085-97-164 255:20:00:2046,-0.044,0.009,0.997,0.366,-2.014,0,1.044,2.983,-129.864
 15:31:46.858,eb:33:2e:f9:57:b5, 2085-97-170 255:21:00:2051,-0.042,0.012,1,0.122,-1.648,0.183,1.044,2.983,-129.864
 15:31:46.858,eb:33:2e:f9:57:b5, 2085-97-170 255:11:00:2060,-0.04,0.007,1.004,0,-1.282,0.122,1.044,2.988,-129.864
 15:31:46.858,eb:33:2e:f9:57:b5, 2085-97-181 255:10:00:2068,-0.034,0.007,1.007,0,-1.16,0.183,1.044,2.988,-129.864
 15:31:46.858,eb:33:2e:f9:57:b5, 2085-97-177 255:11:00:2064,-0.042,0.005,1.01,0.244,-0.732,0.183,1.049,2.988,-129.864
 15:31:46.889,eb:33:2e:f9:57:b5, 2085-97-164 255:21:00:2046,-0.047,0.009,1.002,0.305,-0.732,0,1.049,2.988,-129.864
 15:31:46.889,eb:33:2e:f9:57:b5, 2085-97-158 255:22:00:2039,-0.045,0.009,0.997,0.122,-0.916,0,1.049,2.994,-129.864
 15:31:46.889,eb:33:2e:f9:57:b5, 2085-97-167 255:23:00:2043,-0.042,0.011,0.997,0.122,-0.854,0.122,1.049,2.994,-129.864
 15:31:46.889,eb:33:2e:f9:57:b5, 2085-97-175 255:17:00:2052,-0.038,0.011,1,-0.122,-0.671,0.183,1.049,2.994,-129.869
 15:31:46.918,eb:33:2e:f9:57:b5, 2085-97-179 255:13:00:2059,-0.039,0.006,1.003,-0.122,-0.305,0.061,1.049,2.994,-129.864
 15:31:46.920,eb:33:2e:f9:57:b5, 2085-97-177 255:23:00:2051,-0.044,0.007,1.004,0,-0.122,0.122,1.049,2.994,-129.869
 15:31:46.920,eb:33:2e:f9:57:b5, 2085-97-160 255:24:00:2036,-0.045,0.012,0.997,-0.122,0,0,1.049,2.994,-129.869
 15:31:46.920,eb:33:2e:f9:57:b5, 2085-97-163 255:25:00:2038,-0.042,0.013,0.995,-0.366,-0.061,0,1.055,2.999,-129.869
 15:31:47.008,eb:33:2e:f9:57:b5, 2085-97-172 255:15:00:2051,-0.039,0.011,0.998,-0.671,0.183,0.122,1.055,2.999,-129.864
 15:31:47.008,eb:33:2e:f9:57:b5, 2085-97-179 255:06:00:2065,-0.035,0.004,1.007,-0.61,0.366,0.244,1.055,2.999,-129.869
 15:31:47.008,eb:33:2e:f9:57:b5, 2085-97-180 255:08:00:2064,-0.039,0.004,1.009,-0.366,0.549,0.244,1.055,2.999,-129.864
 15:31:47.008,eb:33:2e:f9:57:b5, 2085-97-172 255:12:00:2056,-0.042,0.004,1.005,-0.061,0.488,0.183,1.055,2.999,-129.869
 15:31:47.010,eb:33:2e:f9:57:b5, 2085-97-171 255:21:00:2050,-0.042,0.008,1.003,0,0.427,0,1.055,2.999,-129.869
 15:31:47.010,eb:33:2e:f9:57:b5, 2085-97-169 255:17:00:2052,-0.042,0.01,1.001,-0.122,0.61,-0.183,1.06,2.999,-129.869
 15:31:47.010,eb:33:2e:f9:57:b5, 2085-97-169 255:16:00:2051,-0.042,0.007,1.003,-0.244,0.793,-0.305,1.06,2.999,-129.869
 15:31:47.010,eb:33:2e:f9:57:b5, 2085-97-169 255:17:00:2053,-0.042,0.009,1.002,-0.061,0.916,-0.244,1.06,2.999,-129.869
 15:31:47.069,eb:33:2e:f9:57:b5, 2085-97-171 255:23:00:2047,-0.043,0.011,1.001,-0.061,1.099,-0.305,1.06,2.999,-129.869
 15:31:47.069,eb:33:2e:f9:57:b5, 2085-97-162 255:24:00:2042,-0.049,0.011,0.998,-0.244,1.465,-0.427,1.06,3.005,-129.869
 15:31:47.069,eb:33:2e:f9:57:b5, 2085-97-158 255:17:00:2039,-0.042,0.009,0.995,-0.427,1.648,-0.305,1.06,3.005,-129.869
 15:31:47.069,eb:33:2e:f9:57:b5, 2085-97-176 255:13:00:2055,-0.038,0.009,1,-0.61,1.648,-0.305,1.06,3.005,-129.869
 15:31:47.100,eb:33:2e:f9:57:b5, 2085-97-180 255:07:00:2064,-0.041,0.003,1.006,-0.488,1.892,-0.244,1.06,3.005,-129.869
 15:31:47.100,eb:33:2e:f9:57:b5, 2085-97-167 255:08:00:2057,-0.044,0.002,1.007,-0.244,2.014,-0.061,1.066,3.005,-129.869
 15:31:47.100,eb:33:2e:f9:57:b5, 2085-97-173 255:21:00:2055,-0.042,0.007,1.002,-0.061,2.075,-0.122,1.066,3.005,-129.869
 15:31:47.100,eb:33:2e:f9:57:b5, 2085-97-164 255:22:00:2047,-0.043,0.01,1.003,-0.244,2.38,-0.305,1.066,3.005,-129.869
 15:31:47.129,eb:33:2e:f9:57:b5, 2085-97-161 255:26:00:2042,-0.047,0.013,0.999,-0.61,2.686,-0.549,1.066,3.005,-129.869
 15:31:47.129,eb:33:2e:f9:57:b5, 2085-97-166 255:17:00:2051,-0.041,0.01,0.997,-1.038,2.991,-0.61,1.055,3.027,-129.875
 15:31:47.129,eb:33:2e:f9:57:b5, 2085-97-176 255:14:00:2067,-0.036,0.007,1.007,-1.099,3.54,-0.793,1.044,3.06,-129.88
 15:31:47.129,eb:33:2e:f9:57:b5, 2085-97-173 255:14:00:2063,-0.048,0.008,1.011,-1.099,4.456,-0.977,1.033,3.098,-129.886
 15:31:47.159,eb:33:2e:f9:57:b5, 2085-97-151 255:16:00:2038,-0.056,0.008,0.999,-1.099,5.005,-0.977,1.022,3.148,-129.897
 15:31:47.159,eb:33:2e:f9:57:b5, 2085-97-141 255:13:00:2033,-0.053,0.006,0.994,-1.16,4.578,-0.977,1.011,3.197,-129.908
 15:31:47.159,eb:33:2e:f9:57:b5, 2085-97-146 255:09:00:2045,-0.053,0.007,0.996,-1.221,3.967,-0.977,0.994,3.235,-129.913
 15:31:47.159,eb:33:2e:f9:57:b5, 2085-97-148 255:08:00:2056,-0.052,0.004,1,-1.099,3.418,-1.16,0.983,3.274,-129.924
 15:31:47.219,eb:33:2e:f9:57:b5, 2085-97-150 255:09:00:2054,-0.06,0.006,1.005,-0.977,3.235,-1.587,0.972,3.307,-129.941
 15:31:47.219,eb:33:2e:f9:57:b5, 2085-97-147 255:16:00:2053,-0.049,0.004,0.997,-0.977,2.625,-1.587,0.961,3.334,-129.952
 15:31:47.219,eb:33:2e:f9:57:b5, 2085-97-155 255:01:00:2065,-0.047,0.007,1.005,-1.038,2.991,-1.709,0.95,3.362,-129.968
 15:31:47.219,eb:33:2e:f9:57:b5, 2085-97-161 255:08:00:2065,-0.047,0,1.008,-1.038,3.052,-1.648,0.939,3.389,-129.985
 15:31:47.248,eb:33:2e:f9:57:b5, 2085-97-151 255:08:00:2062,-0.048,0.006,1.005,-1.099,3.54,-1.709,0.928,3.422,-130.001
 15:31:47.248,eb:33:2e:f9:57:b5, 2085-97-164 255:09:00:2075,-0.042,0.006,1.008,-1.038,3.784,-1.831,0.917,3.461,-130.018
 15:31:47.248,eb:33:2e:f9:57:b5, 2085-97-159 255:04:00:2069,-0.052,0.003,1.016,-0.916,4.883,-1.892,0.906,3.505,-130.04
 15:31:47.248,eb:33:2e:f9:57:b5, 2085-97-141 255:11:00:2043,-0.062,0.006,1.002,-0.916,5.188,-2.014,0.895,3.554,-130.056
 15:31:47.309,eb:33:2e:f9:57:b5, 2085-97-120 255:07:00:2025,-0.067,0.003,0.992,-1.038,4.944,-1.709,0.884,3.604,-130.078
 15:31:47.309,eb:33:2e:f9:57:b5, 2085-97-123 255:06:00:2028,-0.063,0.003,0.988,-0.916,3.845,-1.343,0.873,3.647,-130.089
 15:31:47.309,eb:33:2e:f9:57:b5, 2085-97-124 255:04:00:2037,-0.068,0.002,0.994,-0.793,3.174,-1.16,0.862,3.68,-130.106
 15:31:47.309,eb:33:2e:f9:57:b5, 2085-97-115 255:08:00:2034,-0.068,0.002,0.993,-0.671,2.319,-1.099,0.857,3.708,-130.117
 15:31:47.369,eb:33:2e:f9:57:b5, 2085-97-120 255:08:00:2039,-0.065,0.003,0.995,-0.732,1.526,-1.099,0.846,3.724,-130.122
 15:31:47.369,eb:33:2e:f9:57:b5, 2085-97-124 255:254:255:2043,-0.067,0.002,0.997,-0.671,0.671,-1.16,0.84,3.735,-130.133
 15:31:47.369,eb:33:2e:f9:57:b5, 2085-97-122 255:02:00:2037,-0.065,0,0.996,-0.488,0,-1.099,0.835,3.741,-130.144
 15:31:47.369,eb:33:2e:f9:57:b5, 2085-97-128 255:05:00:2038,-0.057,0.003,0.994,-0.244,-1.038,-1.282,0.835,3.73,-130.155
 15:31:47.369,eb:33:2e:f9:57:b5, 2085-97-150 255:247:255:2075,-0.052,0,1.004,0,-1.465,-1.404,0.835,3.719,-130.172
 15:31:47.369,eb:33:2e:f9:57:b5, 2085-97-149 255:249:255:2073,-0.053,-0.006,1.012,0.488,-1.038,-1.282,0.835,3.702,-130.182
 15:31:47.370,eb:33:2e:f9:57:b5, 2085-97-143 255:17:00:2052,-0.059,0.002,1.008,0.61,-0.854,-0.793,0.835,3.697,-130.193
 15:31:47.370,eb:33:2e:f9:57:b5, 2085-97-128 255:15:00:2033,-0.061,0.008,0.998,0.244,-0.305,-0.732,0.84,3.686,-130.199
 15:31:47.429,eb:33:2e:f9:57:b5, 2085-97-139 255:19:00:2038,-0.056,0.008,0.993,-0.122,-0.427,-0.793,0.84,3.68,-130.204
 15:31:47.429,eb:33:2e:f9:57:b5, 2085-97-140 255:12:00:2045,-0.06,0.009,0.997,-0.549,-0.061,-0.671,0.835,3.68,-130.215
 15:31:47.429,eb:33:2e:f9:57:b5, 2085-113-58 00:135:226:-6255,-0.061,0.003,0.999,-0.61,0.305,-0.305,0.835,3.68,-130.221
 15:31:47.429,eb:33:2e:f9:57:b5, 2085-97-135 255:01:00:2048,-0.058,0.003,0.999,-0.549,0.244,-0.244,0.835,3.68,-130.221
 15:31:47.429,eb:33:2e:f9:57:b5, 2085-97-140 255:02:00:2055,-0.058,0.001,1.002,-0.366,0,-0.244,0.829,3.68,-130.221
 15:31:47.459,eb:33:2e:f9:57:b5, 2085-97-136 255:09:00:2049,-0.06,0.002,1.002,-0.183,0,-0.305,0.824,3.68,-130.226
 15:31:47.459,eb:33:2e:f9:57:b5, 2085-97-130 255:07:00:2046,-0.062,0.004,0.999,-0.305,0.122,-0.427,0.824,3.68,-130.226
 15:31:47.459,eb:33:2e:f9:57:b5, 2085-97-138 255:02:00:2053,-0.055,0.002,1,-0.366,0,-0.671,0.818,3.68,-130.232
 15:31:47.459,eb:33:2e:f9:57:b5, 2085-97-145 255:03:00:2057,-0.058,0.002,1.002,-0.305,-0.122,-0.671,0.813,3.68,-130.237
 15:31:47.489,eb:33:2e:f9:57:b5, 2085-97-133 255:02:00:2048,-0.062,0,1.002,-0.122,-0.061,-0.488,0.813,3.675,-130.243
 15:31:47.489,eb:33:2e:f9:57:b5, 2085-97-130 255:08:00:2041,-0.058,0.002,0.998,-0.061,-0.427,-0.366,0.807,3.675,-130.248
 15:31:47.489,eb:33:2e:f9:57:b5, 2085-97-143 255:08:00:2048,-0.058,0.005,0.998,-0.122,-0.549,-0.427,0.807,3.669,-130.254
 15:31:47.489,eb:33:2e:f9:57:b5, 2085-97-135 255:10:00:2042,-0.06,0.004,0.998,-0.305,-0.488,-0.427,0.807,3.664,-130.259
 15:31:47.548,eb:33:2e:f9:57:b5, 2085-97-132 255:14:00:2043,-0.057,0.005,0.997,-0.427,-0.488,-0.427,0.802,3.653,-130.259
 15:31:47.548,eb:33:2e:f9:57:b5, 2085-97-141 255:10:00:2048,-0.056,0.006,1,-0.671,-0.488,-0.488,0.797,3.647,-130.265
 15:31:47.548,eb:33:2e:f9:57:b5, 2085-97-139 255:04:00:2047,-0.055,0.004,0.999,-0.671,-0.366,-0.488,0.791,3.642,-130.27
 15:31:47.548,eb:33:2e:f9:57:b5, 2085-97-141 255:253:255:2051,-0.057,0,1.003,-0.488,-0.488,-0.488,0.78,3.636,-130.276
 15:31:47.578,eb:33:2e:f9:57:b5, 2085-97-137 255:02:00:2047,-0.057,0,1,-0.305,-0.549,-0.183,0.78,3.631,-130.276
 15:31:47.578,eb:33:2e:f9:57:b5, 2085-97-137 255:02:00:2048,-0.06,0.001,1,-0.122,-0.793,0,0.775,3.625,-130.276
 15:31:47.578,eb:33:2e:f9:57:b5, 2085-97-139 255:04:00:2048,-0.056,0.001,0.999,-0.122,-0.977,0,0.775,3.615,-130.276
 15:31:47.578,eb:33:2e:f9:57:b5, 2085-97-139 255:03:00:2051,-0.059,0.002,1.001,-0.122,-1.038,0,0.775,3.604,-130.276
 15:31:47.640,eb:33:2e:f9:57:b5, 2085-97-138 255:08:00:2047,-0.057,0.002,1,-0.183,-1.038,0,0.769,3.593,-130.276
 15:31:47.640,eb:33:2e:f9:57:b5, 2085-97-138 255:05:00:2046,-0.057,0.001,1.002,-0.305,-1.038,-0.122,0.769,3.576,-130.276
 15:31:47.640,eb:33:2e:f9:57:b5, 2085-97-139 255:07:00:2046,-0.058,0.004,0.999,-0.366,-1.038,-0.061,0.764,3.565,-130.276
 15:31:47.640,eb:33:2e:f9:57:b5, 2085-97-139 255:06:00:2049,-0.053,0.004,0.999,-0.488,-1.099,-0.366,0.764,3.554,-130.281
 15:31:47.669,eb:33:2e:f9:57:b5, 2085-97-152 255:250:255:2063,-0.055,0.001,1.003,-0.427,-0.977,-0.427,0.758,3.543,-130.281
 15:31:47.669,eb:33:2e:f9:57:b5, 2085-97-141 255:250:255:2058,-0.054,-0.004,1.006,-0.183,-0.671,-0.244,0.753,3.532,-130.281
 15:31:47.669,eb:33:2e:f9:57:b5, 2085-97-141 255:00:00:2052,-0.058,-0.001,1.006,0,-0.793,0,0.753,3.527,-130.287
 15:31:47.669,eb:33:2e:f9:57:b5, 2085-97-139 255:02:00:2044,-0.059,0.001,0.999,0.122,-1.038,0.061,0.753,3.516,-130.281
 15:31:47.730,eb:33:2e:f9:57:b5, 2085-97-138 255:06:00:2040,-0.057,0.003,0.996,0,-1.343,0,0.753,3.505,-130.281
 15:31:47.730,eb:33:2e:f9:57:b5, 2085-97-137 255:06:00:2040,-0.055,0.002,0.997,-0.061,-1.343,0.183,0.753,3.488,-130.276
 15:31:47.730,eb:33:2e:f9:57:b5, 2085-97-143 255:01:00:2048,-0.055,0.002,0.999,-0.122,-1.587,0.244,0.753,3.472,-130.276
 15:31:47.730,eb:33:2e:f9:57:b5, 2085-97-146 255:00:00:2057,-0.052,0,1.003,0,-1.648,0.183,0.753,3.455,-130.27
 15:31:47.758,eb:33:2e:f9:57:b5, 2085-97-152 255:02:00:2057,-0.05,0,1.005,0,-1.465,0.244,0.753,3.439,-130.27
 15:31:47.758,eb:33:2e:f9:57:b5, 2085-97-149 255:00:00:2057,-0.053,0,1.005,0,-1.221,0.183,0.753,3.422,-130.265
 15:31:47.758,eb:33:2e:f9:57:b5, 2085-97-148 255:07:00:2047,-0.052,0.001,1.002,0,-1.099,0.183,0.753,3.411,-130.265
 15:31:47.758,eb:33:2e:f9:57:b5, 2085-97-150 255:04:00:2050,-0.051,0.003,1,0,-0.977,0.122,0.753,3.4,-130.259
 15:31:47.789,eb:33:2e:f9:57:b5, 2085-97-156 255:254:255:2063,-0.051,0.001,1.002,-0.061,-0.916,-0.061,0.753,3.389,-130.259
 15:31:47.789,eb:33:2e:f9:57:b5, 2085-97-151 255:252:255:2062,-0.051,0,1.008,0.061,-0.427,0.244,0.753,3.378,-130.259
 15:31:47.789,eb:33:2e:f9:57:b5, 2085-97-151 255:254:255:2056,-0.051,-0.001,1.006,0.305,-0.427,0.183,0.758,3.373,-130.254
 15:31:47.789,eb:33:2e:f9:57:b5, 2085-97-151 255:06:00:2053,-0.051,0.001,1.003,0.427,-0.366,0.305,0.764,3.367,-130.248
 15:31:47.849,eb:33:2e:f9:57:b5, 2085-97-142 255:03:00:2047,-0.057,0.003,1.003,0.427,-0.122,0.305,0.769,3.367,-130.248
 15:31:47.849,eb:33:2e:f9:57:b5, 2085-97-134 255:01:00:2044,-0.058,0.001,0.999,0.427,-0.305,0.427,0.769,3.362,-130.243
 15:31:47.849,eb:33:2e:f9:57:b5, 2085-97-145 255:254:255:2050,-0.051,-0.001,1,0.488,-0.732,0.549,0.775,3.356,-130.237
 15:31:47.849,eb:33:2e:f9:57:b5, 2085-97-155 255:00:00:2064,-0.049,-0.001,1.006,0.671,-1.221,0.427,0.786,3.345,-130.232
 15:31:47.879,eb:33:2e:f9:57:b5, 2085-97-161 255:09:00:2057,-0.05,0,1.008,0.916,-1.221,0.427,0.791,3.329,-130.226
 15:31:47.879,eb:33:2e:f9:57:b5, 2085-97-143 255:16:00:2038,-0.057,0.004,1.001,0.854,-0.732,0.366,0.802,3.318,-130.221
 15:31:47.879,eb:33:2e:f9:57:b5, 2085-97-144 255:15:00:2040,-0.051,0.009,0.995,0.488,-0.977,0.061,0.807,3.312,-130.215
 15:31:47.879,eb:33:2e:f9:57:b5, 2085-97-162 255:07:00:2059,-0.041,0.005,0.999,0.183,-0.977,0.122,0.813,3.301,-130.215
 15:31:47.908,eb:33:2e:f9:57:b5, 2085-97-172 255:02:00:2067,-0.045,0.002,1.01,0.122,0.061,0.244,0.813,3.296,-130.21
 15:31:47.908,eb:33:2e:f9:57:b5, 2085-97-149 255:02:00:2052,-0.053,0,1.006,0.305,0.854,0.488,0.818,3.301,-130.204
 15:31:47.908,eb:33:2e:f9:57:b5, 2085-97-147 255:00:00:2053,-0.053,0,1.002,0.549,0.61,0.671,0.824,3.307,-130.199
 15:31:47.908,eb:33:2e:f9:57:b5, 2085-97-150 255:02:00:2053,-0.051,0,1.003,0.732,0.305,0.671,0.829,3.307,-130.193
 15:31:47.938,eb:33:2e:f9:57:b5, 2085-97-140 255:03:00:2045,-0.059,0.002,1.002,0.854,0.305,0.61,0.835,3.312,-130.182
 15:31:47.938,eb:33:2e:f9:57:b5, 2085-97-136 255:06:00:2040,-0.058,0.002,0.997,0.854,-0.183,0.549,0.84,3.312,-130.177
 15:31:47.938,eb:33:2e:f9:57:b5, 2085-97-139 255:10:00:2039,-0.055,0.003,0.995,0.793,-0.977,0.427,0.851,3.307,-130.172
 15:31:47.938,eb:33:2e:f9:57:b5, 2085-97-148 255:09:00:2051,-0.052,0.004,0.998,0.732,-1.343,0.244,0.857,3.29,-130.166
 15:31:47.969,eb:33:2e:f9:57:b5, 2085-97-163 255:18:00:2055,-0.04,-0.009,1.005,0.854,-1.526,0.671,0.868,3.274,-130.161
 15:31:47.969,eb:33:2e:f9:57:b5, 2085-97-150 255:08:00:2054,-0.051,0.006,1.012,0.732,-0.488,0.183,0.879,3.263,-130.155
 15:31:47.969,eb:33:2e:f9:57:b5, 2085-97-156 255:15:00:2049,-0.052,0.005,1.001,0.732,-0.732,0.244,0.884,3.252,-130.155
 15:31:47.969,eb:33:2e:f9:57:b5, 2085-97-151 255:14:00:2049,-0.047,0.008,0.999,0.427,-0.488,0.122,0.89,3.246,-130.15
 15:31:48.030,eb:33:2e:f9:57:b5, 2085-97-165 255:07:00:2061,-0.044,0.004,1.004,0.244,0,0.061,0.895,3.241,-130.15
 15:31:48.030,eb:33:2e:f9:57:b5, 2085-97-162 255:11:00:2055,-0.051,0.004,1.005,0.305,0.366,0.122,0.895,3.246,-130.144
 15:31:48.030,eb:33:2e:f9:57:b5, 2085-97-146 255:11:00:2043,-0.057,0.005,1,0.305,0.671,0.244,0.901,3.252,-130.144
 15:31:48.030,eb:33:2e:f9:57:b5, 2085-97-141 255:10:00:2039,-0.053,0.004,0.995,0.305,0.366,0.244,0.906,3.257,-130.139
 15:31:48.059,eb:33:2e:f9:57:b5, 2085-97-147 255:12:00:2041,-0.054,0.004,0.997,0.427,0,0.122,0.912,3.257,-130.133
 15:31:48.059,eb:33:2e:f9:57:b5, 2085-97-139 255:12:00:2037,-0.06,0.006,0.997,0.244,-0.366,0,0.912,3.252,-130.133
 15:31:48.059,eb:33:2e:f9:57:b5, 2085-97-139 255:17:00:2035,-0.055,0.007,0.992,0.122,-0.854,-0.061,0.917,3.246,-130.133
 15:31:48.059,eb:33:2e:f9:57:b5, 2085-97-147 255:10:00:2044,-0.049,0.006,0.996,-0.122,-1.038,-0.122,0.917,3.235,-130.133
 15:31:48.088,eb:33:2e:f9:57:b5, 2085-97-167 255:07:00:2064,-0.041,0.004,1.002,-0.183,-1.038,-0.183,0.912,3.219,-130.133
 15:31:48.088,eb:33:2e:f9:57:b5, 2085-97-171 255:04:00:2067,-0.047,0.001,1.01,0,-0.488,-0.122,0.912,3.214,-130.133
 15:31:48.088,eb:33:2e:f9:57:b5, 2085-113-81 00:239:53:723,-0.05,0.002,1.006,0.244,-0.122,-0.122,0.912,3.208,-130.139
 15:31:48.088,eb:33:2e:f9:57:b5, 2085-97-153 255:08:00:2052,-0.049,0.003,1.002,0.244,-0.061,-0.122,0.917,3.208,-130.139
 15:31:48.150,eb:33:2e:f9:57:b5, 2085-97-154 255:13:00:2052,-0.051,0.004,1.003,0.305,0,-0.183,0.917,3.208,-130.139
 15:31:48.150,eb:33:2e:f9:57:b5, 2085-97-157 255:13:00:2051,-0.045,0.007,1.001,0.122,0.244,-0.305,0.923,3.208,-130.144
 15:31:48.150,eb:33:2e:f9:57:b5, 2085-97-160 255:06:00:2057,-0.049,0.004,1.004,0,0.732,-0.366,0.923,3.214,-130.144
 15:31:48.150,eb:33:2e:f9:57:b5, 2085-97-153 255:07:00:2051,-0.053,0.004,1.002,0.122,0.916,-0.244,0.923,3.219,-130.15
 15:31:48.179,eb:33:2e:f9:57:b5, 2085-97-147 255:10:00:2043,-0.051,0.003,0.999,0.244,0.916,-0.061,0.928,3.23,-130.15
 15:31:48.179,eb:33:2e:f9:57:b5, 2085-97-145 255:11:00:2041,-0.054,0.005,0.999,0.244,0.671,-0.061,0.928,3.235,-130.15
 15:31:48.179,eb:33:2e:f9:57:b5, 2085-97-142 255:17:00:2035,-0.055,0.007,0.996,0.183,0.366,-0.183,0.934,3.241,-130.15
 15:31:48.179,eb:33:2e:f9:57:b5, 2085-97-143 255:15:00:2035,-0.055,0.009,0.993,0.061,0.122,-0.183,0.934,3.241,-130.15
 15:31:48.209,eb:33:2e:f9:57:b5, 2085-97-145 255:12:00:2043,-0.051,0.007,0.995,0,-0.183,-0.122,0.934,3.241,-130.15
 15:31:48.209,eb:33:2e:f9:57:b5, 2085-97-155 255:05:00:2058,-0.048,0.004,1,-0.122,-0.183,-0.061,0.934,3.235,-130.15
 15:31:48.209,eb:33:2e:f9:57:b5, 2085-97-158 255:03:00:2066,-0.05,0,1.008,0.122,0,0,0.934,3.235,-130.15
 15:31:48.209,eb:33:2e:f9:57:b5, 2085-97-149 255:01:00:2057,-0.053,0.001,1.007,0.366,0.122,0.122,0.934,3.235,-130.15
 15:31:48.269,eb:33:2e:f9:57:b5, 2085-97-152 255:04:00:2056,-0.049,0,1.003,0.549,-0.122,0.183,0.939,3.235,-130.144
 15:31:48.269,eb:33:2e:f9:57:b5, 2085-97-163 255:15:00:2060,-0.047,0.005,1.004,0.732,-0.305,0.122,0.95,3.23,-130.144
 15:31:48.269,eb:33:2e:f9:57:b5, 2085-97-153 255:11:00:2054,-0.054,0.005,1.005,0.61,0.183,0.183,0.95,3.23,-130.144
 15:31:48.269,eb:33:2e:f9:57:b5, 2085-97-142 255:04:00:2049,-0.056,0.003,1.002,0.61,0.305,0.427,0.967,3.241,-130.15
 15:31:48.301,eb:33:2e:f9:57:b5, 2085-97-145 255:05:00:2047,-0.052,0.003,0.999,0.671,-0.061,0.61,0.967,3.241,-130.15
 15:31:48.301,eb:33:2e:f9:57:b5, 2085-97-157 255:07:00:2054,-0.042,0.002,1.002,0.793,-0.305,0.671,0.978,3.246,-130.15
 15:31:48.301,eb:33:2e:f9:57:b5, 2085-97-158 255:15:00:2051,-0.056,0.013,1.004,0.732,0,0.671,0.978,3.246,-130.15
 15:31:48.301,eb:33:2e:f9:57:b5, 2085-97-135 255:01:00:2042,-0.06,0.004,0.997,0.61,0.244,0.916,0.983,3.252,-130.155
 15:31:48.329,eb:33:2e:f9:57:b5, 2085-97-142 255:01:00:2052,-0.049,0,1,0.732,-0.122,1.343,0.994,3.252,-130.139
 15:31:48.329,eb:33:2e:f9:57:b5, 2085-97-169 255:16:00:2062,-0.04,0.001,1.005,1.038,-0.671,1.465,1.005,3.246,-130.122
 15:31:48.330,eb:33:2e:f9:57:b5, 2085-97-165 255:22:00:2057,-0.046,0.012,1.008,0.916,0.122,1.526,1.016,3.241,-130.106
 15:31:48.330,eb:33:2e:f9:57:b5, 2085-97-159 255:20:00:2050,-0.051,0.01,1,0.732,0.854,1.343,1.022,3.246,-130.089
 15:31:48.388,eb:33:2e:f9:57:b5, 2085-97-153 255:15:00:2049,-0.049,0.008,0.999,0.671,1.16,1.16,1.033,3.257,-130.078
 15:31:48.388,eb:33:2e:f9:57:b5, 2085-97-158 255:13:00:2056,-0.049,0.008,1.001,0.671,1.16,0.671,1.038,3.268,-130.067
 15:31:48.388,eb:33:2e:f9:57:b5, 2085-97-149 255:12:00:2053,-0.056,0.005,1.004,0.793,1.465,0.488,1.049,3.279,-130.062
 15:31:48.388,eb:33:2e:f9:57:b5, 2085-97-132 255:12:00:2043,-0.062,0.007,0.999,0.916,1.282,0.488,1.055,3.296,-130.056
 15:31:48.418,eb:33:2e:f9:57:b5, 2085-97-138 255:12:00:2043,-0.055,0.005,0.996,0.793,0.305,0.366,1.066,3.301,-130.045
 15:31:48.418,eb:33:2e:f9:57:b5, 2085-97-148 255:22:00:2042,-0.054,0.008,0.999,0.793,-0.488,0.305,1.071,3.301,-130.045
 15:31:48.418,eb:33:2e:f9:57:b5, 2085-97-144 255:21:00:2037,-0.052,0.011,0.997,0.549,-0.549,0.427,1.082,3.29,-130.04
 15:31:48.418,eb:33:2e:f9:57:b5, 2085-97-155 255:20:00:2046,-0.05,0.01,0.995,0.366,-0.671,0.366,1.088,3.285,-130.034
 15:31:48.448,eb:33:2e:f9:57:b5, 2085-97-157 255:20:00:2043,-0.047,0.009,0.999,0.305,-0.183,0.61,1.088,3.279,-130.029
 15:31:48.448,eb:33:2e:f9:57:b5, 2085-97-157 255:19:00:2048,-0.048,0.009,1,0.244,-0.061,0.366,1.093,3.279,-130.023
 15:31:48.448,eb:33:2e:f9:57:b5, 2085-97-149 255:19:00:2049,-0.054,0.01,1.001,0.122,0.61,0.427,1.093,3.279,-130.018
 15:31:48.448,eb:33:2e:f9:57:b5, 2085-97-147 255:18:00:2049,-0.053,0.008,1,0.061,0.61,0.122,1.099,3.285,-130.012
 15:31:48.508,eb:33:2e:f9:57:b5, 2085-97-147 255:16:00:2055,-0.055,0.01,1.001,0,0.305,-0.183,1.099,3.29,-130.012
 15:31:48.508,eb:33:2e:f9:57:b5, 2085-97-145 255:15:00:2048,-0.055,0.008,1,0,0.366,-0.122,1.099,3.29,-130.012
 15:31:48.508,eb:33:2e:f9:57:b5, 2085-97-147 255:16:00:2048,-0.052,0.007,0.999,-0.061,0.061,-0.366,1.099,3.296,-130.018
 15:31:48.508,eb:33:2e:f9:57:b5, 2085-97-148 255:13:00:2049,-0.052,0.007,1,-0.061,-0.122,-0.366,1.099,3.29,-130.018
 15:31:48.539,eb:33:2e:f9:57:b5, 2085-97-152 255:13:00:2052,-0.052,0.005,1.001,0,-0.244,-0.183,1.093,3.29,-130.023
 15:31:48.539,eb:33:2e:f9:57:b5, 2085-97-147 255:18:00:2043,-0.054,0.008,1,0,-0.366,-0.061,1.099,3.285,-130.023
 15:31:48.539,eb:33:2e:f9:57:b5, 2085-97-150 255:20:00:2045,-0.05,0.009,0.998,0,-0.488,-0.061,1.099,3.279,-130.023
 15:31:48.539,eb:33:2e:f9:57:b5, 2085-97-155 255:17:00:2055,-0.05,0.009,1.001,-0.122,-0.305,-0.061,1.093,3.274,-130.023
 15:31:48.571,eb:33:2e:f9:57:b5, 2085-97-150 255:14:00:2056,-0.051,0.008,1.003,-0.122,-0.061,0,1.093,3.274,-130.023
 15:31:48.571,eb:33:2e:f9:57:b5, 2085-97-155 255:13:00:2057,-0.052,0.006,1.003,0,-0.061,-0.122,1.093,3.274,-130.023
 15:31:48.571,eb:33:2e:f9:57:b5, 2085-97-148 255:16:00:2049,-0.052,0.006,1.004,0.061,-0.061,-0.366,1.093,3.268,-130.029
 15:31:48.571,eb:33:2e:f9:57:b5, 2085-97-148 255:15:00:2044,-0.052,0.007,1,0,-0.183,-0.366,1.093,3.268,-130.029
 15:31:48.631,eb:33:2e:f9:57:b5, 2085-97-148 255:18:00:2044,-0.051,0.008,0.998,0,-0.305,-0.305,1.093,3.263,-130.034
 15:31:48.631,eb:33:2e:f9:57:b5, 2085-97-150 255:16:00:2046,-0.053,0.008,1,-0.061,-0.244,-0.244,1.093,3.257,-130.034
 15:31:48.631,eb:33:2e:f9:57:b5, 2085-97-150 255:15:00:2045,-0.052,0.008,0.998,-0.122,-0.305,-0.183,1.093,3.257,-130.04
 15:31:48.631,eb:33:2e:f9:57:b5, 2085-97-150 255:17:00:2048,-0.052,0.008,1,-0.183,-0.366,-0.244,1.088,3.252,-130.04
 15:31:48.658,eb:33:2e:f9:57:b5, 2085-97-152 255:17:00:2052,-0.049,0.008,1,-0.244,-0.366,-0.183,1.088,3.246,-130.04
 15:31:48.658,eb:33:2e:f9:57:b5, 2085-97-158 255:18:00:2054,-0.049,0.007,1.002,-0.244,-0.305,-0.305,1.082,3.241,-130.045
 15:31:48.658,eb:33:2e:f9:57:b5, 2085-97-148 255:16:00:2048,-0.053,0.008,1.003,-0.244,0,-0.305,1.082,3.241,-130.045
 15:31:48.658,eb:33:2e:f9:57:b5, 2085-97-149 255:14:00:2051,-0.052,0.007,1,-0.305,-0.122,-0.366,1.077,3.235,-130.051
 15:31:48.719,eb:33:2e:f9:57:b5, 2085-97-148 255:11:00:2048,-0.053,0.006,1.001,-0.244,-0.305,-0.366,1.077,3.235,-130.051
 15:31:48.719,eb:33:2e:f9:57:b5, 2085-97-149 255:15:00:2047,-0.052,0.006,0.999,-0.244,-0.61,-0.366,1.071,3.23,-130.056
 15:31:48.719,eb:33:2e:f9:57:b5, 2085-113-81 00:02:54:744,-0.052,0.007,1,-0.183,-0.793,-0.427,1.071,3.219,-130.056
 15:31:48.719,eb:33:2e:f9:57:b5, 2085-97-148 255:12:00:2050,-0.052,0.006,1.001,-0.183,-0.916,-0.427,1.071,3.214,-130.062
 15:31:48.719,eb:33:2e:f9:57:b5, 2085-97-153 255:14:00:2049,-0.05,0.006,1,-0.122,-1.099,-0.427,1.066,3.203,-130.062
 15:31:48.748,eb:33:2e:f9:57:b5, 2085-97-155 255:16:00:2051,-0.049,0.007,1.001,-0.122,-1.16,-0.427,1.066,3.192,-130.067
 15:31:48.748,eb:33:2e:f9:57:b5, 2085-97-154 255:14:00:2050,-0.05,0.008,1.002,-0.122,-1.038,-0.366,1.066,3.181,-130.073
 15:31:48.749,eb:33:2e:f9:57:b5, 2085-97-154 255:14:00:2052,-0.049,0.006,1.001,-0.122,-0.916,-0.244,1.06,3.17,-130.073
 15:31:48.749,eb:33:2e:f9:57:b5, 2085-97-153 255:15:00:2048,-0.048,0.008,1.002,-0.244,-0.732,-0.183,1.06,3.159,-130.078
 15:31:48.778,eb:33:2e:f9:57:b5, 2085-97-156 255:12:00:2050,-0.048,0.007,1.001,-0.183,-0.671,-0.061,1.06,3.153,-130.078
 15:31:48.778,eb:33:2e:f9:57:b5, 2085-97-159 255:09:00:2059,-0.047,0.005,1.002,-0.122,-0.549,0.061,1.055,3.142,-130.078
 15:31:48.778,eb:33:2e:f9:57:b5, 2085-97-162 255:11:00:2061,-0.046,0.005,1.004,0,-0.366,0.183,1.055,3.137,-130.073
 15:31:48.778,eb:33:2e:f9:57:b5, 2085-97-156 255:14:00:2055,-0.048,0.006,1.005,0.061,-0.122,0.244,1.055,3.137,-130.073
 15:31:48.899,eb:33:2e:f9:57:b5, 2085-97-156 255:16:00:2052,-0.049,0.008,1.003,0.122,-0.122,0.122,1.06,3.131,-130.067
 15:31:48.899,eb:33:2e:f9:57:b5, 2085-97-154 255:14:00:2050,-0.049,0.007,1.001,0.061,-0.122,0.061,1.06,3.131,-130.067
 15:31:48.899,eb:33:2e:f9:57:b5, 2085-97-155 255:13:00:2051,-0.049,0.006,1.002,0.061,0,0,1.06,3.131,-130.067
 15:31:48.899,eb:33:2e:f9:57:b5, 2085-97-154 255:15:00:2051,-0.049,0.007,1.001,0,0,0,1.06,3.126,-130.062
 15:31:48.901,eb:33:2e:f9:57:b5, 2085-97-155 255:15:00:2051,-0.049,0.007,1.001,0.061,0.122,0,1.06,3.126,-130.062
 15:31:48.901,eb:33:2e:f9:57:b5, 2085-97-153 255:16:00:2048,-0.049,0.008,1,0.061,0.061,0.061,1.066,3.131,-130.062
 15:31:48.901,eb:33:2e:f9:57:b5, 2085-97-159 255:17:00:2048,-0.049,0.008,1,0,0,0,1.066,3.131,-130.062
 15:31:48.901,eb:33:2e:f9:57:b5, 2085-97-154 255:17:00:2048,-0.05,0.008,1,0,0.122,0,1.066,3.126,-130.056
 15:31:48.903,eb:33:2e:f9:57:b5, 2085-97-154 255:16:00:2047,-0.05,0.008,1,-0.122,0.183,0,1.06,3.131,-130.056
 15:31:48.903,eb:33:2e:f9:57:b5, 2085-97-157 255:15:00:2049,-0.048,0.007,1,-0.122,0.183,0,1.06,3.131,-130.056
 15:31:48.903,eb:33:2e:f9:57:b5, 2085-97-156 255:13:00:2051,-0.048,0.007,1.001,-0.183,0.305,0,1.06,3.131,-130.056
 15:31:48.903,eb:33:2e:f9:57:b5, 2085-97-157 255:12:00:2054,-0.048,0.006,1.002,-0.183,0.488,0.122,1.06,3.137,-130.056
 15:31:48.958,eb:33:2e:f9:57:b5, 2085-97-153 255:12:00:2048,-0.051,0.005,1.002,-0.061,0.549,0.183,1.055,3.142,-130.051
 15:31:48.958,eb:33:2e:f9:57:b5, 2085-97-152 255:15:00:2050,-0.051,0.006,1,0,0.244,0.183,1.06,3.142,-130.051
 15:31:48.958,eb:33:2e:f9:57:b5, 2085-113-58 00:241:225:-6135,-0.051,0.007,1.001,0,0.183,0.061,1.06,3.148,-130.045
 15:31:48.958,eb:33:2e:f9:57:b5, 2085-97-150 255:14:00:2048,-0.051,0.007,1,0,0.061,0,1.06,3.148,-130.045
 15:31:48.989,eb:33:2e:f9:57:b5, 2085-97-155 255:15:00:2050,-0.05,0.007,1,0,-0.061,-0.061,1.06,3.142,-130.045
 15:31:48.989,eb:33:2e:f9:57:b5, 2085-97-152 255:12:00:2051,-0.049,0.006,1.002,0,-0.061,0,1.06,3.142,-130.045
 15:31:48.989,eb:33:2e:f9:57:b5, 2085-97-156 255:12:00:2053,-0.047,0.006,1.002,0,-0.122,0,1.06,3.142,-130.045
 15:31:48.989,eb:33:2e:f9:57:b5, 2085-97-160 255:14:00:2056,-0.047,0.007,1.002,0,-0.061,0,1.06,3.142,-130.045
 15:31:49.020,eb:33:2e:f9:57:b5, 2085-97-157 255:15:00:2051,-0.048,0.007,1.003,0,0.183,0.122,1.06,3.137,-130.04
 15:31:49.020,eb:33:2e:f9:57:b5, 2085-97-157 255:18:00:2045,-0.049,0.009,1,0,0.122,0,1.06,3.142,-130.04
 15:31:49.020,eb:33:2e:f9:57:b5, 2085-97-156 255:14:00:2051,-0.05,0.008,1,-0.122,0.366,0,1.06,3.142,-130.04
 15:31:49.020,eb:33:2e:f9:57:b5, 2085-113-81 00:07:54:723,-0.052,0.006,1.001,-0.122,0.488,0.061,1.06,3.148,-130.04
 15:31:49.020,eb:33:2e:f9:57:b5, 2085-97-150 255:11:00:2048,-0.052,0.006,1.001,-0.061,0.488,0.061,1.055,3.148,-130.04
 15:31:49.078,eb:33:2e:f9:57:b5, 2085-97-150 255:14:00:2048,-0.051,0.006,1,-0.061,0.366,0.061,1.055,3.153,-130.034
 15:31:49.078,eb:33:2e:f9:57:b5, 2085-97-153 255:15:00:2049,-0.051,0.007,1.001,0,0.061,0,1.055,3.153,-130.034
 15:31:49.078,eb:33:2e:f9:57:b5, 2085-97-150 255:16:00:2043,-0.053,0.008,0.999,-0.061,0.061,0.061,1.055,3.153,-130.034
 15:31:49.078,eb:33:2e:f9:57:b5, 2085-97-148 255:14:00:2043,-0.05,0.006,0.998,-0.122,-0.061,0,1.055,3.153,-130.034
 15:31:49.109,eb:33:2e:f9:57:b5, 2085-97-157 255:16:00:2053,-0.047,0.007,1,-0.122,-0.244,0,1.055,3.153,-130.034
 15:31:49.109,eb:33:2e:f9:57:b5, 2085-97-159 255:13:00:2053,-0.048,0.007,1.002,-0.183,0,0,1.055,3.148,-130.029
 15:31:49.109,eb:33:2e:f9:57:b5, 2085-97-157 255:13:00:2055,-0.047,0.007,1.003,-0.183,0.122,0.061,1.049,3.148,-130.029
 15:31:49.109,eb:33:2e:f9:57:b5, 2085-97-159 255:11:00:2058,-0.049,0.005,1.004,-0.061,0.244,0,1.049,3.148,-130.029
 15:31:49.138,eb:33:2e:f9:57:b5, 2085-97-155 255:14:00:2053,-0.049,0.007,1.004,-0.061,0.366,0.061,1.049,3.153,-130.029
 15:31:49.138,eb:33:2e:f9:57:b5, 2085-97-154 255:15:00:2051,-0.05,0.007,1.001,0,0.366,0,1.049,3.153,-130.029
 15:31:49.138,eb:33:2e:f9:57:b5, 2085-97-153 255:14:00:2051,-0.051,0.007,1.001,0,0.488,-0.122,1.049,3.159,-130.029
 15:31:49.138,eb:33:2e:f9:57:b5, 2085-97-152 255:14:00:2050,-0.051,0.006,1.001,-0.061,0.427,-0.183,1.049,3.164,-130.029
 15:31:49.199,eb:33:2e:f9:57:b5, 2085-97-149 255:14:00:2048,-0.051,0.006,1.001,-0.061,0.305,-0.244,1.049,3.164,-130.029
 15:31:49.199,eb:33:2e:f9:57:b5, 2085-97-155 255:14:00:2053,-0.051,0.007,1,0.122,-0.122,-0.427,1.049,3.164,-130.029
 15:31:49.199,eb:33:2e:f9:57:b5, 2085-97-150 255:14:00:2046,-0.053,0.006,1,0,0.061,-0.366,1.049,3.164,-130.034
 15:31:49.199,eb:33:2e:f9:57:b5, 2085-97-153 255:12:00:2050,-0.047,0.006,1,0,0,-0.183,1.049,3.164,-130.034
 15:31:49.261,eb:33:2e:f9:57:b5, 2085-97-159 255:13:00:2057,-0.049,0.006,1.002,0,-0.061,-0.183,1.049,3.164,-130.04
 15:31:49.261,eb:33:2e:f9:57:b5, 2085-97-154 255:12:00:2050,-0.051,0.006,1.002,0.061,0.183,-0.061,1.049,3.164,-130.04
 15:31:49.261,eb:33:2e:f9:57:b5, 2085-97-155 255:18:00:2046,-0.049,0.007,0.999,0.061,0.122,-0.061,1.049,3.164,-130.04
 15:31:49.261,eb:33:2e:f9:57:b5, 2085-97-155 255:15:00:2048,-0.049,0.008,1,-0.061,0.305,-0.061,1.049,3.164,-130.04
 15:31:49.290,eb:33:2e:f9:57:b5, 2085-97-153 255:16:00:2048,-0.05,0.008,1,-0.122,0.427,-0.061,1.049,3.17,-130.04
 15:31:49.290,eb:33:2e:f9:57:b5, 2085-97-152 255:14:00:2049,-0.052,0.008,1,-0.244,0.488,-0.061,1.044,3.175,-130.04
 15:31:49.290,eb:33:2e:f9:57:b5, 2085-97-151 255:12:00:2049,-0.051,0.006,1,-0.183,0.549,-0.061,1.044,3.181,-130.04
 15:31:49.290,eb:33:2e:f9:57:b5, 2085-97-150 255:14:00:2047,-0.052,0.006,1,-0.122,0.427,-0.122,1.044,3.181,-130.04
 15:31:49.319,eb:33:2e:f9:57:b5, 2085-97-151 255:14:00:2049,-0.051,0.007,1,-0.183,0.183,-0.061,1.038,3.186,-130.04
 15:31:49.319,eb:33:2e:f9:57:b5, 2085-97-153 255:15:00:2051,-0.05,0.006,1.001,-0.183,0.244,-0.122,1.038,3.186,-130.04
 15:31:49.319,eb:33:2e:f9:57:b5, 2085-97-152 255:15:00:2051,-0.05,0.007,1.001,-0.244,0.366,-0.122,1.038,3.192,-130.045
 15:31:49.319,eb:33:2e:f9:57:b5, 2085-97-152 255:12:00:2051,-0.05,0.007,1.002,-0.305,0.366,-0.061,1.033,3.192,-130.045
 15:31:49.348,eb:33:2e:f9:57:b5, 2085-97-152 255:12:00:2051,-0.05,0.005,1.002,-0.183,0.427,-0.061,1.104,3.246,-130.067
 15:31:49.348,eb:33:2e:f9:57:b5, 2085-97-150 255:14:00:2051,-0.053,0.006,1.001,-0.183,0.366,-0.061,1.104,3.246,-130.045
 15:31:49.348,eb:33:2e:f9:57:b5, 2085-97-149 255:12:00:2049,-0.052,0.006,1.001,-0.122,0.305,-0.122,1.104,3.246,-130.045
 15:31:49.348,eb:33:2e:f9:57:b5, 2085-97-150 255:13:00:2047,-0.05,0.006,1,-0.061,0.183,-0.183,1.104,3.246,-130.018
 15:31:49.379,eb:33:2e:f9:57:b5, 2085-97-152 255:13:00:2050,-0.05,0.007,1,-0.122,0.183,-0.122,1.104,3.246,-130.018
 15:31:49.379,eb:33:2e:f9:57:b5, 2085-97-154 255:11:00:2054,-0.05,0.006,1.001,-0.061,0.244,-0.122,1.104,3.246,-129.996
 15:31:49.379,eb:33:2e:f9:57:b5, 2085-97-157 255:13:00:2055,-0.05,0.005,1.002,0.061,0.183,-0.061,1.11,3.246,-129.996
 15:31:49.379,eb:33:2e:f9:57:b5, 2085-97-153 255:14:00:2050,-0.052,0.007,1.003,0,0.427,0,1.11,3.246,-129.974
 15:31:49.439,eb:33:2e:f9:57:b5, 2085-97-147 255:16:00:2043,-0.053,0.008,0.998,-0.061,0.427,-0.061,1.11,3.246,-129.974
 15:31:49.439,eb:33:2e:f9:57:b5, 2085-97-151 255:16:00:2045,-0.05,0.008,0.997,-0.183,0.305,-0.244,1.11,3.246,-129.957
 15:31:49.439,eb:33:2e:f9:57:b5, 2085-97-152 255:13:00:2050,-0.051,0.007,1,-0.183,0.244,-0.122,1.11,3.246,-129.957
 15:31:49.439,eb:33:2e:f9:57:b5, 2085-97-151 255:13:00:2053,-0.052,0.006,1.001,-0.183,0.549,-0.061,1.11,3.246,-129.935
 15:31:49.468,eb:33:2e:f9:57:b5, 2085-97-149 255:12:00:2050,-0.051,0.006,1.002,-0.183,0.61,-0.061,1.11,3.252,-129.935
 15:31:49.468,eb:33:2e:f9:57:b5, 2085-97-152 255:15:00:2051,-0.05,0.007,1,-0.183,0.549,-0.183,1.11,3.252,-129.913
 15:31:49.468,eb:33:2e:f9:57:b5, 2085-97-155 255:16:00:2051,-0.05,0.007,1.002,-0.244,0.732,-0.244,1.11,3.252,-129.913
 15:31:49.468,eb:33:2e:f9:57:b5, 2085-97-148 255:11:00:2048,-0.053,0.006,1.002,-0.305,0.977,-0.244,1.11,3.252,-129.897
 15:31:49.499,eb:33:2e:f9:57:b5, 2085-97-149 255:12:00:2051,-0.051,0.005,1,-0.183,0.977,-0.366,1.11,3.252,-129.897
 15:31:49.499,eb:33:2e:f9:57:b5, 2085-97-155 255:12:00:2054,-0.049,0.005,1.002,-0.305,1.282,-0.366,1.11,3.252,-129.88
 15:31:49.499,eb:33:2e:f9:57:b5, 2085-97-153 255:13:00:2057,-0.051,0.007,1.005,-0.305,1.648,-0.549,1.11,3.252,-129.88
 15:31:49.499,eb:33:2e:f9:57:b5, 2085-97-155 255:14:00:2055,-0.05,0.006,1.004,-0.427,1.892,-0.732,1.11,3.252,-129.88
 15:31:49.560,eb:33:2e:f9:57:b5, 2085-97-151 255:12:00:2054,-0.051,0.006,1.003,-0.488,2.258,-0.793,1.11,3.252,-129.88
 15:31:49.560,eb:33:2e:f9:57:b5, 2085-113-58 00:60:226:-5895,-0.054,0.005,1,-0.488,2.502,-0.549,1.11,3.252,-129.88
 15:31:49.560,eb:33:2e:f9:57:b5, 2085-97-140 255:12:00:2043,-0.057,0.005,0.999,-0.366,2.441,-0.488,1.11,3.252,-129.88
 15:31:49.560,eb:33:2e:f9:57:b5, 2085-97-144 255:13:00:2055,-0.048,0.005,1.001,-0.244,2.502,-0.61,1.11,3.252,-129.88
 15:31:49.588,eb:33:2e:f9:57:b5, 2085-97-157 255:15:00:2061,-0.05,0.007,1.007,-0.305,2.686,-0.793,1.11,3.252,-129.88
 15:31:49.588,eb:33:2e:f9:57:b5, 2085-97-144 255:10:00:2052,-0.057,0.005,1.006,-0.488,3.357,-0.977,1.11,3.279,-129.886
 15:31:49.588,eb:33:2e:f9:57:b5, 2085-97-135 255:12:00:2042,-0.061,0.005,1,-0.488,3.357,-0.916,1.104,3.312,-129.897
 15:31:49.588,eb:33:2e:f9:57:b5, 2085-97-128 255:04:00:2038,-0.065,0.004,0.994,-0.366,2.747,-0.916,1.099,3.345,-129.908
 15:31:49.648,eb:33:2e:f9:57:b5, 2085-97-119 255:04:00:2032,-0.067,0.001,0.992,-0.244,2.014,-0.488,1.093,3.367,-129.913
 15:31:49.648,eb:33:2e:f9:57:b5, 2085-97-117 255:03:00:2036,-0.066,0.002,0.994,0,0.793,-0.305,1.093,3.378,-129.913
 15:31:49.648,eb:33:2e:f9:57:b5, 2085-97-124 255:04:00:2044,-0.063,0,0.996,0.183,-0.488,-0.183,1.093,3.384,-129.919
 15:31:49.648,eb:33:2e:f9:57:b5, 2085-97-127 255:06:00:2047,-0.062,0.003,0.999,0.305,-1.282,-0.061,1.093,3.373,-129.919
 15:31:49.680,eb:33:2e:f9:57:b5, 2085-97-135 255:07:00:2046,-0.059,0.002,1,0.427,-1.892,0,1.099,3.351,-129.919
 15:31:49.680,eb:33:2e:f9:57:b5, 2085-97-135 255:15:00:2042,-0.059,0.005,0.999,0.488,-2.258,0,1.104,3.329,-129.919
 15:31:49.680,eb:33:2e:f9:57:b5, 2085-97-138 255:14:00:2043,-0.053,0.007,0.996,0.427,-2.319,-0.061,1.11,3.307,-129.919
 15:31:49.680,eb:33:2e:f9:57:b5, 2085-97-155 255:17:00:2055,-0.048,0.008,1.001,0.244,-2.319,0,1.11,3.279,-129.919
 15:31:49.739,eb:33:2e:f9:57:b5, 2085-97-160 255:17:00:2060,-0.049,0.008,1.005,0.122,-1.587,-0.061,1.115,3.257,-129.919
 15:31:49.739,eb:33:2e:f9:57:b5, 2085-97-152 255:17:00:2053,-0.054,0.008,1.004,0,-0.916,-0.122,1.115,3.246,-129.919
 15:31:49.739,eb:33:2e:f9:57:b5, 2085-97-145 255:15:00:2053,-0.049,0.008,1,-0.244,-0.366,-0.183,1.115,3.241,-129.919
 15:31:49.739,eb:33:2e:f9:57:b5, 2085-97-161 255:17:00:2059,-0.049,0.008,1.005,-0.427,-0.061,-0.366,1.11,3.235,-129.924
 15:31:49.741,eb:33:2e:f9:57:b5, 2085-97-150 255:10:00:2054,-0.052,0.005,1.005,-0.549,0.793,-0.122,1.104,3.241,-129.924
 15:31:49.741,eb:33:2e:f9:57:b5, 2085-97-139 255:06:00:2046,-0.057,0.001,1.004,-0.488,0.977,0,1.099,3.246,-129.93
 15:31:49.741,eb:33:2e:f9:57:b5, 2085-97-146 255:08:00:2054,-0.056,0.004,1,-0.305,0.488,0.061,1.093,3.252,-129.924
 15:31:49.741,eb:33:2e:f9:57:b5, 2085-97-137 255:05:00:2051,-0.06,0.003,1.001,-0.244,0.305,0.061,1.093,3.257,-129.924
 15:31:49.798,eb:33:2e:f9:57:b5, 2085-97-135 255:08:00:2045,-0.061,0.003,0.999,-0.183,0.061,0.122,1.088,3.257,-129.924
 15:31:49.798,eb:33:2e:f9:57:b5, 2085-97-135 255:09:00:2044,-0.06,0.004,0.997,-0.122,-0.305,0.366,1.088,3.257,-129.919
 15:31:49.798,eb:33:2e:f9:57:b5, 2085-97-138 255:09:00:2048,-0.055,0.004,0.998,-0.122,-0.793,0.305,1.088,3.252,-129.913
 15:31:49.798,eb:33:2e:f9:57:b5, 2085-97-148 255:09:00:2059,-0.055,0.004,1.003,-0.183,-0.854,0.183,1.088,3.241,-129.913
 15:31:49.829,eb:33:2e:f9:57:b5, 2085-97-144 255:10:00:2054,-0.057,0.004,1.004,-0.061,-0.793,0.244,1.088,3.241,-129.913
 15:31:49.829,eb:33:2e:f9:57:b5, 2085-97-141 255:09:00:2046,-0.053,0.004,1.001,-0.122,-0.854,0.122,1.088,3.241,-129.913
 15:31:49.829,eb:33:2e:f9:57:b5, 2085-97-151 255:15:00:2049,-0.05,0.007,0.999,-0.183,-1.038,0.061,1.088,3.241,-129.913
 15:31:49.829,eb:33:2e:f9:57:b5, 2085-97-157 255:15:00:2052,-0.05,0.008,1.002,-0.366,-0.61,0.061,1.088,3.246,-129.913
 15:31:49.859,eb:33:2e:f9:57:b5, 2085-97-153 255:12:00:2054,-0.054,0.007,1,-0.488,-0.183,0,1.088,3.246,-129.913
 15:31:49.859,eb:33:2e:f9:57:b5, 2085-97-149 255:11:00:2053,-0.053,0.007,1.001,-0.61,0.244,0,1.088,3.246,-129.913
 15:31:49.859,eb:33:2e:f9:57:b5, 2085-97-151 255:10:00:2059,-0.053,0.005,1.001,-0.671,0.427,0,1.088,3.246,-129.913
 15:31:49.859,eb:33:2e:f9:57:b5, 2085-97-144 255:03:00:2057,-0.058,0.004,1.006,-0.671,0.793,0.244,1.088,3.246,-129.913
 15:31:49.920,eb:33:2e:f9:57:b5, 2085-97-129 255:02:00:2037,-0.063,0.001,1,-0.427,0.916,0.305,1.088,3.246,-129.913
 15:31:49.920,eb:33:2e:f9:57:b5, 2085-97-132 255:08:00:2039,-0.057,0.003,0.995,-0.305,0.183,0.488,1.088,3.246,-129.913
 15:31:49.920,eb:33:2e:f9:57:b5, 2085-97-144 255:08:00:2043,-0.054,0.005,0.996,-0.366,-0.366,0.488,1.088,3.246,-129.913
 15:31:49.920,eb:33:2e:f9:57:b5, 2085-97-152 255:17:00:2043,-0.051,0.005,0.996,-0.488,-0.305,0.549,1.088,3.252,-129.913
 15:31:49.950,eb:33:2e:f9:57:b5, 2085-97-154 255:14:00:2048,-0.051,0.008,0.998,-0.671,-0.122,0.305,1.088,3.252,-129.913
 15:31:49.950,eb:33:2e:f9:57:b5, 2085-97-151 255:15:00:2049,-0.053,0.008,0.999,-0.916,0.366,0.549,1.088,3.252,-129.913
 15:31:49.950,eb:33:2e:f9:57:b5, 2085-97-148 255:09:00:2052,-0.053,0.007,0.999,-0.977,0.671,0.366,1.088,3.252,-129.913
 15:31:49.950,eb:33:2e:f9:57:b5, 2085-97-144 255:08:00:2054,-0.054,0.002,1.004,-1.038,0.977,0.305,1.088,3.252,-129.913
 15:31:49.979,eb:33:2e:f9:57:b5, 2085-97-144 255:09:00:2054,-0.057,0.002,1.005,-0.977,1.16,0.305,1.088,3.252,-129.913
 15:31:49.979,eb:33:2e:f9:57:b5, 2085-97-144 255:07:00:2054,-0.055,0.003,1.001,-0.916,1.221,0.183,1.088,3.257,-129.913
 15:31:49.979,eb:33:2e:f9:57:b5, 2085-97-149 255:07:00:2055,-0.051,0.002,1.003,-0.977,1.16,0,1.088,3.257,-129.913
 15:31:49.979,eb:33:2e:f9:57:b5, 2085-97-153 255:10:00:2058,-0.05,0.005,1.004,-1.16,1.587,-0.122,1.088,3.257,-129.913
 15:31:50.040,eb:33:2e:f9:57:b5, 2085-97-154 255:04:00:2063,-0.052,0.004,1.005,-1.16,2.075,-0.244,1.088,3.257,-129.913
 15:31:50.040,eb:33:2e:f9:57:b5, 2085-97-149 255:04:00:2059,-0.053,0.001,1.005,-1.038,2.686,-0.183,1.088,3.257,-129.913
 15:31:50.040,eb:33:2e:f9:57:b5, 2085-97-142 255:03:00:2055,-0.057,0,1.004,-0.916,2.991,-0.122,1.082,3.279,-129.913
 15:31:50.040,eb:33:2e:f9:57:b5, 2085-97-143 255:00:00:2061,-0.057,0,1.004,-0.793,3.113,-0.244,1.071,3.312,-129.919
 15:31:50.069,eb:33:2e:f9:57:b5, 2085-97-135 255:06:00:2050,-0.059,0.001,1.004,-0.671,3.296,-0.244,1.066,3.34,-129.919
 15:31:50.069,eb:33:2e:f9:57:b5, 2085-97-136 255:06:00:2046,-0.059,0.003,0.999,-0.61,3.052,-0.427,1.06,3.373,-129.924
 15:31:50.069,eb:33:2e:f9:57:b5, 2085-97-130 255:01:00:2041,-0.064,0.002,0.998,-0.671,2.869,-0.244,1.055,3.4,-129.924
 15:31:50.069,eb:33:2e:f9:57:b5, 2085-97-123 255:01:00:2036,-0.067,0,0.994,-0.549,2.625,0,1.044,3.428,-129.924
 15:31:50.131,eb:33:2e:f9:57:b5, 2085-97-117 255:255:255:2034,-0.069,0,0.994,-0.427,2.014,0.244,1.038,3.45,-129.924
 15:31:50.131,eb:33:2e:f9:57:b5, 2085-97-117 255:01:00:2036,-0.066,0,0.993,-0.305,1.038,0.366,1.038,3.466,-129.919
 15:31:50.131,eb:33:2e:f9:57:b5, 2085-97-118 255:00:00:2041,-0.069,0,0.997,-0.183,0,0.305,1.033,3.472,-129.913
 15:31:50.131,eb:33:2e:f9:57:b5, 2085-97-116 255:252:255:2044,-0.07,0,0.996,-0.183,-1.282,0.061,1.033,3.461,-129.913
 15:31:50.131,eb:33:2e:f9:57:b5, 2085-97-111 255:253:255:2040,-0.067,-0.003,0.998,0,-1.953,0.488,1.033,3.444,-129.908
 15:31:50.159,eb:33:2e:f9:57:b5, 2085-113-58 00:227:224:-6195,-0.067,-0.001,0.998,0.305,-2.991,0.732,1.033,3.417,-129.902
 15:31:50.159,eb:33:2e:f9:57:b5, 2085-97-122 255:254:255:2046,-0.063,-0.001,0.998,0.366,-3.601,0.61,1.038,3.4,-129.897
 15:31:50.159,eb:33:2e:f9:57:b5, 2085-97-131 255:00:00:2047,-0.062,0,1,0.549,-4.211,0.427,1.044,3.356,-129.891
 15:31:50.159,eb:33:2e:f9:57:b5, 2085-97-129 255:03:00:2040,-0.061,0.001,0.996,0.732,-4.7,0.61,1.049,3.312,-129.886
 15:31:50.189,eb:33:2e:f9:57:b5, 2085-97-136 255:00:00:2047,-0.059,0.001,0.998,0.732,-5.554,0.366,1.06,3.257,-129.88
 15:31:50.189,eb:33:2e:f9:57:b5, 2085-97-141 255:10:00:2038,-0.054,0.001,0.996,0.793,-5.737,0.61,1.066,3.203,-129.875
 15:31:50.189,eb:33:2e:f9:57:b5, 2085-97-149 255:07:00:2056,-0.051,0.004,1.001,0.549,-5.859,0.305,1.071,3.142,-129.869
 15:31:50.189,eb:33:2e:f9:57:b5, 2085-97-152 255:06:00:2059,-0.054,0.002,1.004,0.488,-5.432,0.244,1.077,3.082,-129.869
 15:31:50.249,eb:33:2e:f9:57:b5, 2085-97-149 255:05:00:2047,-0.052,0.004,1.001,0.366,-5.249,0.244,1.082,3.032,-129.864
 15:31:50.249,eb:33:2e:f9:57:b5, 2085-97-151 255:10:00:2047,-0.048,0.004,0.996,0.244,-4.944,0.488,1.088,2.977,-129.858
 15:31:50.249,eb:33:2e:f9:57:b5, 2085-97-162 255:08:00:2060,-0.047,0.004,1.004,0.061,-4.944,0.061,1.088,2.928,-129.858
 15:31:50.250,eb:33:2e:f9:57:b5, 2085-97-157 255:07:00:2055,-0.051,0.007,1,0,-4.517,-0.061,1.088,2.878,-129.853
 15:31:50.279,eb:33:2e:f9:57:b5, 2085-97-152 255:00:00:2048,-0.054,0.002,1,0.061,-4.395,0,1.088,2.834,-129.853
 15:31:50.279,eb:33:2e:f9:57:b5, 2085-97-149 255:02:00:2044,-0.048,0.001,0.996,0.183,-4.883,0.122,1.093,2.791,-129.853
 15:31:50.279,eb:33:2e:f9:57:b5, 2085-97-170 255:08:00:2059,-0.04,0.001,1,0.305,-4.883,0.122,1.093,2.741,-129.853
 15:31:50.279,eb:33:2e:f9:57:b5, 2085-97-179 255:01:00:2069,-0.039,0.004,1.006,0.244,-4.089,-0.305,1.099,2.692,-129.853
 15:31:50.309,eb:33:2e:f9:57:b5, 2085-97-165 255:02:00:2060,-0.047,0.002,1.009,0.488,-2.991,0.244,1.104,2.659,-129.847
 15:31:50.309,eb:33:2e:f9:57:b5, 2085-97-161 255:08:00:2050,-0.045,0.001,1.004,0.549,-2.869,0.183,1.11,2.626,-129.847
 15:31:50.309,eb:33:2e:f9:57:b5, 2085-97-162 255:06:00:2048,-0.046,0.003,1.001,0.549,-2.747,0.122,1.115,2.598,-129.847
 15:31:50.309,eb:33:2e:f9:57:b5, 2085-97-162 255:11:00:2043,-0.045,0.004,0.999,0.488,-2.747,0.183,1.121,2.571,-129.847
 15:31:50.369,eb:33:2e:f9:57:b5, 2085-97-168 255:12:00:2045,-0.042,0.006,0.998,0.366,-2.563,0.244,1.126,2.543,-129.842
 15:31:50.369,eb:33:2e:f9:57:b5, 2085-97-171 255:01:00:2053,-0.042,0.007,0.998,0,-3.052,-0.366,1.126,2.516,-129.842
 15:31:50.369,eb:33:2e:f9:57:b5, 2085-97-176 255:13:00:2047,-0.039,0.004,0.999,0.122,-2.075,0.183,1.126,2.488,-129.842
 15:31:50.369,eb:33:2e:f9:57:b5, 2085-97-170 255:07:00:2053,-0.04,0,1.007,0,-1.526,0.122,1.132,2.466,-129.842
 15:31:50.401,eb:33:2e:f9:57:b5, 2085-97-175 255:02:00:2057,-0.043,0.008,0.999,0,-1.892,-0.854,1.132,2.45,-129.842
 15:31:50.401,eb:33:2e:f9:57:b5, 2085-97-173 255:07:00:2053,-0.042,0.004,1,0.183,-1.709,-0.061,1.132,2.433,-129.842
 15:31:50.401,eb:33:2e:f9:57:b5, 2085-97-167 255:08:00:2046,-0.043,0.003,1.001,0.122,-1.404,0.061,1.132,2.417,-129.842
 15:31:50.401,eb:33:2e:f9:57:b5, 2085-97-169 255:09:00:2043,-0.041,0.003,0.999,0,-1.404,0,1.137,2.401,-129.842
 15:31:50.429,eb:33:2e:f9:57:b5, 2085-97-178 255:06:00:2056,-0.037,0.004,1,0,-1.404,0.061,1.137,2.384,-129.842
 15:31:50.429,eb:33:2e:f9:57:b5, 2085-97-178 255:00:00:2063,-0.036,0,1.005,0.122,-1.099,0.061,1.137,2.373,-129.836
 15:31:50.429,eb:33:2e:f9:57:b5, 2085-97-187 255:254:255:2071,-0.033,-0.002,1.01,0.488,-0.732,0.061,1.143,2.362,-129.836
 15:31:50.429,eb:33:2e:f9:57:b5, 2085-97-182 255:251:255:2066,-0.046,0.004,1.007,0.549,-1.16,-0.916,1.148,2.357,-129.836
 15:31:50.489,eb:33:2e:f9:57:b5, 2085-97-168 255:12:00:2043,-0.043,0.005,0.996,0.671,-0.305,0,1.154,2.351,-129.836
 15:31:50.489,eb:33:2e:f9:57:b5, 2085-97-177 255:17:00:2045,-0.036,0.006,0.998,0.488,-0.305,0.061,1.159,2.346,-129.836
 15:31:50.489,eb:33:2e:f9:57:b5, 2085-97-178 255:20:00:2043,-0.041,0.009,1,0.061,0.305,0.061,1.165,2.346,-129.836
 15:31:50.489,eb:33:2e:f9:57:b5, 2085-97-167 255:11:00:2042,-0.044,0.007,0.998,-0.183,0.916,0.183,1.159,2.351,-129.836
 15:31:50.519,eb:33:2e:f9:57:b5, 2085-97-166 255:06:00:2045,-0.042,0.004,0.998,-0.305,0.916,0.305,1.159,2.362,-129.831
 15:31:50.519,eb:33:2e:f9:57:b5, 2085-97-175 255:09:00:2051,-0.04,0.003,1.001,-0.183,0.732,0.305,1.159,2.368,-129.825
 15:31:50.519,eb:33:2e:f9:57:b5, 2085-97-182 255:07:00:2058,-0.044,0.003,1.004,-0.549,0.732,-0.366,1.154,2.373,-129.831
 15:31:50.519,eb:33:2e:f9:57:b5, 2085-97-178 255:08:00:2055,-0.042,0.004,0.996,-0.488,0.854,0,1.148,2.384,-129.831
 15:31:50.549,eb:33:2e:f9:57:b5, 2085-97-169 255:02:00:2059,-0.041,0.003,1.001,-0.427,1.038,0,1.143,2.395,-129.825
 15:31:50.549,eb:33:2e:f9:57:b5, 2085-97-168 255:02:00:2061,-0.044,0,1.008,-0.244,1.099,0,1.137,2.401,-129.825
 15:31:50.549,eb:33:2e:f9:57:b5, 2085-97-183 255:00:00:2070,-0.045,0.003,1.002,-0.061,0.366,-0.61,1.137,2.411,-129.825
 15:31:50.549,eb:33:2e:f9:57:b5, 2085-97-170 255:06:00:2053,-0.043,0.002,0.999,0.061,0.488,-0.244,1.137,2.411,-129.825
 15:31:50.609,eb:33:2e:f9:57:b5, 2085-97-174 255:09:00:2053,-0.041,0.004,1,0,0.549,-0.061,1.137,2.422,-129.825
 15:31:50.609,eb:33:2e:f9:57:b5, 2085-97-169 255:09:00:2052,-0.042,0.004,1.002,0,0.793,0.061,1.137,2.422,-129.825
 15:31:50.609,eb:33:2e:f9:57:b5, 2085-97-161 255:06:00:2045,-0.045,0.004,1,-0.122,0.854,0.122,1.137,2.433,-129.831
 15:31:50.609,eb:33:2e:f9:57:b5, 2085-97-161 255:02:00:2051,-0.048,0.001,1.002,-0.244,0.244,-0.427,1.137,2.433,-129.831
 15:31:50.669,eb:33:2e:f9:57:b5, 2085-97-165 255:01:00:2053,-0.047,0,1,0,-0.122,-0.061,1.132,2.439,-129.831
 15:31:50.669,eb:33:2e:f9:57:b5, 2085-97-158 255:254:255:2048,-0.047,0,1,0.061,-0.488,-0.183,1.132,2.439,-129.831
 15:31:50.669,eb:33:2e:f9:57:b5, 2085-97-157 255:00:00:2042,-0.05,0.001,0.999,0.244,-1.16,0.061,1.132,2.444,-129.831
 15:31:50.669,eb:33:2e:f9:57:b5, 2085-97-161 255:05:00:2041,-0.046,0.001,0.995,0.427,-2.014,0.183,1.132,2.444,-129.831
 15:31:50.671,eb:33:2e:f9:57:b5, 2085-97-165 255:09:00:2044,-0.042,0.003,0.998,0.549,-2.686,0.183,1.132,2.45,-129.831
 15:31:50.671,eb:33:2e:f9:57:b5, 2085-97-166 255:03:00:2048,-0.042,0.003,1.001,0.427,-2.747,0.244,1.132,2.45,-129.831
 15:31:50.671,eb:33:2e:f9:57:b5, 2085-97-172 255:05:00:2048,-0.042,0.002,1,0.488,-3.113,0.366,1.137,2.433,-129.825
 15:31:50.671,eb:33:2e:f9:57:b5, 2085-97-178 255:14:00:2046,-0.038,0.002,1,0.549,-3.418,0.244,1.143,2.401,-129.825
 15:31:50.729,eb:33:2e:f9:57:b5, 2085-97-174 255:01:00:2056,-0.039,0,1.006,0.549,-3.479,0.122,1.148,2.362,-129.825
 15:31:50.729,eb:33:2e:f9:57:b5, 2085-97-178 255:09:00:2053,-0.04,0.003,1.002,0.61,-3.662,0.122,1.154,2.324,-129.82
 15:31:50.729,eb:33:2e:f9:57:b5, 2085-97-172 255:10:00:2045,-0.04,0.005,1,0.61,-3.601,0.305,1.159,2.285,-129.82
 15:31:50.729,eb:33:2e:f9:57:b5, 2085-97-176 255:10:00:2047,-0.038,0.004,1,0.61,-3.723,0.305,1.165,2.247,-129.814
 15:31:50.759,eb:33:2e:f9:57:b5, 2085-97-180 255:10:00:2046,-0.04,0.003,1,0.549,-3.662,0.244,1.17,2.208,-129.814
 15:31:50.759,eb:33:2e:f9:57:b5, 2085-97-172 255:08:00:2041,-0.038,0.001,1,0.61,-3.662,0.122,1.176,2.17,-129.809
 15:31:50.759,eb:33:2e:f9:57:b5, 2085-97-180 255:11:00:2049,-0.035,0.005,1,0.671,-4.089,0.061,1.181,2.131,-129.809
 15:31:50.759,eb:33:2e:f9:57:b5, 2085-97-184 255:05:00:2057,-0.036,0.004,1.005,0.61,-4.028,0,1.192,2.087,-129.809
 15:31:50.790,eb:33:2e:f9:57:b5, 2085-97-175 255:01:00:2053,-0.042,0.001,1.003,0.671,-3.906,0.122,1.198,2.049,-129.809
 15:31:50.790,eb:33:2e:f9:57:b5, 2085-97-179 255:05:00:2055,-0.036,0.001,1,1.038,-4.456,0,1.208,2.005,-129.809
 15:31:50.790,eb:33:2e:f9:57:b5, 2085-97-193 255:11:00:2059,-0.026,0.005,1.003,1.221,-4.944,-0.305,1.219,1.956,-129.809
 15:31:50.790,eb:33:2e:f9:57:b5, 2085-97-189 255:18:00:2040,-0.023,0.008,1.005,0.793,-4.456,-0.488,1.23,1.906,-129.814
 15:31:50.849,eb:33:2e:f9:57:b5, 2085-97-214 255:22:00:2052,-0.021,0.009,1.002,0.732,-4.15,-0.366,1.236,1.862,-129.82
 15:31:50.849,eb:33:2e:f9:57:b5, 2085-97-213 255:21:00:2064,-0.022,0.012,1.002,0.366,-2.747,-0.244,1.241,1.824,-129.82
 15:31:50.849,eb:33:2e:f9:57:b5, 2085-97-204 255:13:00:2061,-0.029,0.01,1.006,0.061,-1.343,-0.366,1.247,1.807,-129.825
 15:31:50.849,eb:33:2e:f9:57:b5, 2085-97-192 255:15:00:2050,-0.03,0.005,1.003,0.061,-0.427,-0.366,1.247,1.796,-129.825
 15:31:50.878,eb:33:2e:f9:57:b5, 2085-97-190 255:08:00:2053,-0.032,0.007,1.002,-0.061,-0.122,-0.549,1.247,1.791,-129.831
 15:31:50.878,eb:33:2e:f9:57:b5, 2085-97-190 255:14:00:2042,-0.031,0.004,1.001,0,0.122,-0.549,1.247,1.791,-129.836
 15:31:50.878,eb:33:2e:f9:57:b5, 2085-97-206 255:20:00:2046,-0.02,0.007,0.996,0,0.244,-0.549,1.247,1.791,-129.842
 15:31:50.878,eb:33:2e:f9:57:b5, 2085-97-227 255:23:00:2060,-0.013,0.011,1.001,-0.366,1.282,-0.366,1.241,1.802,-129.847
 15:31:50.908,eb:33:2e:f9:57:b5, 2085-97-228 255:26:00:2059,-0.016,0.012,1.005,-0.793,2.991,-0.061,1.236,1.824,-129.847
 15:31:50.908,eb:33:2e:f9:57:b5, 2085-97-215 255:26:00:2050,-0.02,0.013,1.003,-1.343,5.066,0.244,1.225,1.862,-129.847
 15:31:50.908,eb:33:2e:f9:57:b5, 2085-97-210 255:21:00:2055,-0.024,0.012,1.002,-1.953,6.592,0.366,1.208,1.923,-129.842
 15:31:50.908,eb:33:2e:f9:57:b5, 2085-97-196 255:14:00:2058,-0.032,0.009,1.001,-2.197,6.47,-0.366,1.187,1.989,-129.836
 15:31:50.998,eb:33:2e:f9:57:b5, 2085-97-175 255:05:00:2050,-0.042,0.008,1.004,-2.441,7.446,-0.549,1.165,2.06,-129.842
 15:31:50.998,eb:33:2e:f9:57:b5, 2085-97-162 255:254:255:2043,-0.048,0,1,-2.38,7.08,-0.549,1.137,2.131,-129.847
 15:31:50.998,eb:33:2e:f9:57:b5, 2085-97-157 255:254:255:2039,-0.045,-0.001,0.995,-2.014,5.798,-0.549,1.115,2.197,-129.853
 15:31:50.998,eb:33:2e:f9:57:b5, 2085-97-165 255:254:255:2046,-0.042,0,0.998,-1.709,4.761,-0.427,1.099,2.247,-129.858
 15:31:51.088,eb:33:2e:f9:57:b5, 2085-97-177 255:02:00:2050,-0.042,0,1,-1.465,4.395,-0.244,1.082,2.291,-129.858
 15:31:51.088,eb:33:2e:f9:57:b5, 2085-97-174 255:01:00:2045,-0.043,0,0.998,-1.282,4.028,-0.061,1.066,2.335,-129.864
 15:31:51.088,eb:33:2e:f9:57:b5, 2085-97-172 255:03:00:2046,-0.041,0.002,0.996,-1.343,3.479,0,1.055,2.373,-129.858
 15:31:51.088,eb:33:2e:f9:57:b5, 2085-113-58 00:15:226:-6435,-0.035,0.001,1.001,-1.282,3.113,0,1.038,2.401,-129.858
 15:31:51.090,eb:33:2e:f9:57:b5, 2085-97-189 255:01:00:2067,-0.034,0.002,1.006,-1.282,3.235,0,1.033,2.417,-129.858
 15:31:51.090,eb:33:2e:f9:57:b5, 2085-97-178 255:00:00:2062,-0.04,0,1.008,-1.282,4.028,0.061,1.022,2.455,-129.858
 15:31:51.090,eb:33:2e:f9:57:b5, 2085-97-168 255:252:255:2064,-0.05,-0.001,1.009,-1.099,3.967,-0.061,1.011,2.494,-129.858
 15:31:51.090,eb:33:2e:f9:57:b5, 2085-97-155 255:00:00:2037,-0.049,-0.001,1,-0.977,3.601,-0.061,1,2.532,-129.858
 15:31:51.119,eb:33:2e:f9:57:b5, 2085-97-155 255:02:00:2035,-0.045,0.002,0.994,-0.916,2.686,-0.183,0.989,2.565,-129.858
 15:31:51.119,eb:33:2e:f9:57:b5, 2085-97-167 255:02:00:2032,-0.042,0,0.994,-0.732,2.136,0,0.978,2.587,-129.858
 15:31:51.119,eb:33:2e:f9:57:b5, 2085-97-165 255:03:00:2043,-0.047,0.002,0.994,-0.671,1.892,0.183,0.972,2.604,-129.858
 15:31:51.119,eb:33:2e:f9:57:b5, 2085-97-153 255:251:255:2049,-0.052,0,1.001,-0.61,1.709,0.305,0.967,2.62,-129.853
 15:31:51.121,eb:33:2e:f9:57:b5, 2085-97-148 255:253:255:2046,-0.055,-0.002,1,-0.366,0.977,0.427,0.961,2.631,-129.853
 15:31:51.121,eb:33:2e:f9:57:b5, 2085-97-148 255:253:255:2042,-0.048,-0.002,0.997,-0.244,0,0.427,0.956,2.637,-129.847
 15:31:51.121,eb:33:2e:f9:57:b5, 2085-97-168 255:02:00:2056,-0.042,0.002,0.998,-0.244,-0.916,0.305,0.956,2.631,-129.842
 15:31:51.121,eb:33:2e:f9:57:b5, 2085-97-168 255:249:255:2057,-0.044,-0.001,1.006,-0.122,-0.793,0.366,0.956,2.62,-129.836
 15:31:51.150,eb:33:2e:f9:57:b5, 2085-97-150 255:249:255:2051,-0.057,0,1.006,0,-0.916,0.366,0.956,2.609,-129.831
 15:31:51.150,eb:33:2e:f9:57:b5, 2085-97-150 255:250:255:2045,-0.05,-0.005,0.999,0.305,-1.892,0.488,0.956,2.598,-129.831
 15:31:51.150,eb:33:2e:f9:57:b5, 2085-97-160 255:02:00:2046,-0.043,0,0.998,0.427,-2.991,0.305,0.961,2.571,-129.825
 15:31:51.151,eb:33:2e:f9:57:b5, 2085-97-165 255:06:00:2047,-0.044,0.003,1.001,0.427,-3.052,0.427,0.967,2.538,-129.82
 15:31:51.208,eb:33:2e:f9:57:b5, 2085-97-166 255:03:00:2047,-0.046,0.002,1,0.305,-3.113,0.549,0.967,2.505,-129.814
 15:31:51.208,eb:33:2e:f9:57:b5, 2085-97-161 255:253:255:2047,-0.045,0,0.999,0.305,-3.235,0.671,0.972,2.472,-129.809
 15:31:51.208,eb:33:2e:f9:57:b5, 2085-97-168 255:247:255:2054,-0.044,-0.003,1.001,0.488,-3.601,0.732,0.978,2.439,-129.798
 15:31:51.208,eb:33:2e:f9:57:b5, 2085-97-168 255:00:00:2052,-0.042,-0.003,1.003,0.854,-4.028,0.671,0.983,2.401,-129.792
 15:31:51.238,eb:33:2e:f9:57:b5, 2085-97-165 255:255:255:2046,-0.044,0,1.002,0.977,-4.333,0.61,0.994,2.357,-129.787
 15:31:51.238,eb:33:2e:f9:57:b5, 2085-97-168 255:01:00:2042,-0.041,0,0.999,1.038,-4.822,0.549,1.005,2.307,-129.776
 15:31:51.238,eb:33:2e:f9:57:b5, 2085-97-186 255:09:00:2048,-0.031,0.003,0.996,1.099,-5.432,0.488,1.016,2.258,-129.771
 15:31:51.238,eb:33:2e:f9:57:b5, 2085-97-190 255:00:00:2056,-0.028,0.002,1.004,0.916,-5.127,0.427,1.027,2.203,-129.765
 15:31:51.268,eb:33:2e:f9:57:b5, 2085-97-206 255:09:00:2065,-0.03,0.001,1.005,0.854,-4.578,0.427,1.038,2.153,-129.76
 15:31:51.268,eb:33:2e:f9:57:b5, 2085-97-192 255:13:00:2052,-0.035,0.003,1.005,0.61,-3.601,0.366,1.044,2.109,-129.76
 15:31:51.268,eb:33:2e:f9:57:b5, 2085-97-191 255:10:00:2055,-0.031,0.005,1,0.549,-3.357,0.244,1.049,2.076,-129.754
 15:31:51.268,eb:33:2e:f9:57:b5, 2085-97-192 255:09:00:2053,-0.027,0.006,1.002,0.244,-2.319,0.244,1.055,2.049,-129.749
 15:31:51.330,eb:33:2e:f9:57:b5, 2085-97-195 255:10:00:2051,-0.033,0.004,1.005,0.122,-1.404,0.366,1.06,2.027,-129.749
 15:31:51.330,eb:33:2e:f9:57:b5, 2085-97-193 255:08:00:2053,-0.037,0.004,1,0.061,-0.977,0.305,1.06,2.016,-129.743
 15:31:51.330,eb:33:2e:f9:57:b5, 2085-97-189 255:10:00:2049,-0.033,0.004,0.997,0,-0.793,0.122,1.06,2.005,-129.738
 15:31:51.330,eb:33:2e:f9:57:b5, 2085-97-189 255:06:00:2051,-0.032,0.002,1.001,-0.061,-0.61,0,1.06,2,-129.738
 15:31:51.360,eb:33:2e:f9:57:b5, 2085-97-183 255:04:00:2050,-0.035,0.002,1.003,0,-0.244,0.061,1.06,1.994,-129.738
 15:31:51.360,eb:33:2e:f9:57:b5, 2085-97-181 255:01:00:2051,-0.037,0.002,1.001,0,-0.244,-0.061,1.06,1.989,-129.738
 15:31:51.360,eb:33:2e:f9:57:b5, 2085-97-182 255:00:00:2052,-0.034,0,1.002,0.183,-0.549,-0.122,1.06,1.983,-129.738
 15:31:51.360,eb:33:2e:f9:57:b5, 2085-97-187 255:255:255:2055,-0.033,-0.001,1.003,0.305,-0.549,-0.183,1.066,1.978,-129.743
 15:31:51.389,eb:33:2e:f9:57:b5, 2085-97-187 255:02:00:2055,-0.034,0,1.004,0.366,-0.488,-0.122,1.066,1.972,-129.743
 15:31:51.389,eb:33:2e:f9:57:b5, 2085-97-183 255:04:00:2052,-0.033,0.002,1.002,0.427,-0.427,-0.244,1.071,1.967,-129.743
 15:31:51.389,eb:33:2e:f9:57:b5, 2085-97-193 255:07:00:2056,-0.029,0.003,1.003,0.366,-0.305,-0.244,1.077,1.961,-129.749
 15:31:51.389,eb:33:2e:f9:57:b5, 2085-97-196 255:11:00:2055,-0.027,0.004,1.004,0.183,0.122,-0.183,1.077,1.956,-129.749
 15:31:51.449,eb:33:2e:f9:57:b5, 2085-97-198 255:09:00:2058,-0.027,0.005,1.004,0,0.732,-0.183,1.082,1.961,-129.749
 15:31:51.449,eb:33:2e:f9:57:b5, 2085-97-195 255:08:00:2054,-0.03,0.004,1.005,-0.244,1.465,-0.122,1.077,1.972,-129.749
 15:31:51.449,eb:33:2e:f9:57:b5, 2085-97-189 255:10:00:2048,-0.03,0.004,1.003,-0.305,2.014,-0.183,1.077,1.989,-129.754
 15:31:51.449,eb:33:2e:f9:57:b5, 2085-97-188 255:10:00:2048,-0.035,0.004,1.003,-0.366,2.136,-0.427,1.071,2.01,-129.76
 15:31:51.480,eb:33:2e:f9:57:b5, 2085-97-183 255:01:00:2048,-0.038,0.001,1.001,-0.427,2.319,-0.488,1.066,2.032,-129.76
 15:31:51.480,eb:33:2e:f9:57:b5, 2085-97-171 255:255:255:2047,-0.041,0,1,-0.244,1.953,-0.549,1.06,2.049,-129.765
 15:31:51.480,eb:33:2e:f9:57:b5, 2085-97-170 255:255:255:2042,-0.041,0,1.001,-0.122,1.587,-0.427,1.06,2.065,-129.771
 15:31:51.480,eb:33:2e:f9:57:b5, 2085-97-183 255:06:00:2046,-0.033,0.002,0.997,0,0.854,-0.488,1.055,2.093,-129.776
 15:31:51.540,eb:33:2e:f9:57:b5, 2085-97-191 255:05:00:2052,-0.032,0.002,1,0,0.549,-0.488,1.055,2.093,-129.776
 15:31:51.540,eb:33:2e:f9:57:b5, 2085-97-190 255:12:00:2046,-0.032,0.004,1,-0.061,0.793,-0.305,1.055,2.109,-129.776
 15:31:51.540,eb:33:2e:f9:57:b5, 2085-97-188 255:11:00:2049,-0.033,0.006,1,-0.244,1.099,-0.366,1.055,2.109,-129.776
 15:31:51.540,eb:33:2e:f9:57:b5, 2085-97-187 255:10:00:2048,-0.032,0.005,1,-0.427,1.465,-0.366,1.049,2.126,-129.776
 15:31:51.569,eb:33:2e:f9:57:b5, 2085-97-189 255:10:00:2053,-0.033,0.006,1.002,-0.671,1.77,-0.488,1.049,2.126,-129.776
 15:31:51.569,eb:33:2e:f9:57:b5, 2085-97-188 255:09:00:2044,-0.038,0.004,1,-0.854,2.258,-0.488,1.049,2.137,-129.776
 15:31:51.569,eb:33:2e:f9:57:b5, 2085-97-179 255:05:00:2046,-0.035,0.003,0.998,-0.854,2.563,-0.366,1.049,2.137,-129.776
 15:31:51.569,eb:33:2e:f9:57:b5, 2085-97-192 255:01:00:2054,-0.035,0.001,1,-0.854,2.686,-0.366,1.049,2.142,-129.776
 15:31:51.599,eb:33:2e:f9:57:b5, 2085-97-172 255:01:00:2044,-0.041,0.001,1,-0.854,3.174,-0.244,1.038,2.164,-129.776
 15:31:51.599,eb:33:2e:f9:57:b5, 2085-97-167 255:04:00:2042,-0.042,0.002,0.999,-0.793,2.808,-0.183,1.033,2.197,-129.776
 15:31:51.599,eb:33:2e:f9:57:b5, 2085-97-178 255:03:00:2050,-0.035,0.002,0.999,-0.793,2.319,-0.183,1.022,2.219,-129.781
 15:31:51.599,eb:33:2e:f9:57:b5, 2085-97-186 255:03:00:2057,-0.035,0.002,1.002,-0.793,2.197,-0.122,1.016,2.241,-129.781
 15:31:51.660,eb:33:2e:f9:57:b5, 2085-97-176 255:00:00:2059,-0.042,0,1.005,-0.854,2.441,-0.061,1.005,2.263,-129.781
 15:31:51.660,eb:33:2e:f9:57:b5, 2085-97-167 255:251:255:2052,-0.043,-0.003,1.004,-0.793,2.319,0,1,2.285,-129.781
 15:31:51.660,eb:33:2e:f9:57:b5, 2085-97-166 255:252:255:2046,-0.043,-0.001,1.001,-0.671,1.709,-0.061,0.989,2.307,-129.781
 15:31:51.660,eb:33:2e:f9:57:b5, 2085-97-167 255:254:255:2051,-0.044,-0.001,1.001,-0.549,1.221,-0.061,0.983,2.318,-129.781
 15:31:51.660,eb:33:2e:f9:57:b5, 2085-97-163 255:250:255:2049,-0.046,-0.002,1.003,-0.427,0.793,0,0.978,2.329,-129.781
 15:31:51.690,eb:33:2e:f9:57:b5, 2085-113-58 00:15:226:-6105,-0.046,-0.005,1,-0.122,0.061,0.122,0.978,2.329,-129.781
 15:31:51.690,eb:33:2e:f9:57:b5, 2085-97-160 255:246:255:2049,-0.048,-0.005,1,0,-0.305,0.305,0.978,2.329,-129.776
 15:31:51.690,eb:33:2e:f9:57:b5, 2085-97-157 255:247:255:2050,-0.049,-0.005,1,0.366,-1.221,0.488,0.978,2.324,-129.771
 15:31:51.690,eb:33:2e:f9:57:b5, 2085-97-158 255:250:255:2048,-0.045,-0.004,1,0.854,-2.258,0.549,0.983,2.302,-129.765
 15:31:51.719,eb:33:2e:f9:57:b5, 2085-97-169 255:00:00:2047,-0.041,-0.002,0.999,1.16,-3.174,0.366,0.994,2.274,-129.76
 15:31:51.719,eb:33:2e:f9:57:b5, 2085-97-174 255:01:00:2047,-0.041,0,1,1.221,-3.54,0.183,1.011,2.236,-129.76
 15:31:51.719,eb:33:2e:f9:57:b5, 2085-97-172 255:00:00:2051,-0.038,0.002,1,1.221,-3.845,0.183,1.022,2.197,-129.754
 15:31:51.719,eb:33:2e:f9:57:b5, 2085-97-180 255:254:255:2059,-0.037,0.001,1.002,1.282,-3.784,0.183,1.033,2.159,-129.754
 15:31:51.778,eb:33:2e:f9:57:b5, 2085-97-182 255:02:00:2057,-0.037,0,1.004,1.343,-3.784,0.122,1.049,2.12,-129.749
 15:31:51.778,eb:33:2e:f9:57:b5, 2085-97-180 255:08:00:2048,-0.039,0.005,1.002,1.282,-3.723,0.183,1.06,2.082,-129.743
 15:31:51.778,eb:33:2e:f9:57:b5, 2085-97-181 255:06:00:2047,-0.034,0.003,0.999,1.099,-3.479,0.183,1.077,2.049,-129.743
 15:31:51.778,eb:33:2e:f9:57:b5, 2085-97-188 255:08:00:2050,-0.034,0.004,1.001,1.038,-3.357,0.122,1.088,2.01,-129.743
 15:31:51.808,eb:33:2e:f9:57:b5, 2085-97-186 255:07:00:2049,-0.034,0.006,1,0.793,-2.93,-0.061,1.093,1.978,-129.738
 15:31:51.808,eb:33:2e:f9:57:b5, 2085-97-185 255:03:00:2046,-0.034,0.002,1.001,0.854,-2.747,0,1.104,1.95,-129.738
 15:31:51.808,eb:33:2e:f9:57:b5, 2085-97-184 255:06:00:2045,-0.037,0.003,0.998,0.916,-2.747,0,1.115,1.923,-129.738
 15:31:51.808,eb:33:2e:f9:57:b5, 2085-97-186 255:08:00:2046,-0.034,0.002,0.998,0.977,-2.808,0.061,1.121,1.89,-129.738
 15:31:51.839,eb:33:2e:f9:57:b5, 2085-97-185 255:07:00:2050,-0.032,0.004,1,0.977,-2.93,-0.061,1.132,1.862,-129.738
 15:31:51.839,eb:33:2e:f9:57:b5, 2085-97-189 255:09:00:2049,-0.033,0.004,1.001,0.916,-2.93,-0.122,1.143,1.829,-129.738
 15:31:51.839,eb:33:2e:f9:57:b5, 2085-97-191 255:04:00:2046,-0.029,0.002,1,0.977,-2.991,-0.183,1.154,1.802,-129.738
 15:31:51.839,eb:33:2e:f9:57:b5, 2085-97-205 255:13:00:2057,-0.028,0.005,1,0.916,-2.93,-0.183,1.165,1.769,-129.743
 15:31:51.900,eb:33:2e:f9:57:b5, 2085-97-194 255:10:00:2049,-0.032,0.003,1.004,0.793,-2.258,-0.244,1.17,1.741,-129.743
 15:31:51.900,eb:33:2e:f9:57:b5, 2085-97-185 255:07:00:2049,-0.03,0.003,1,0.793,-2.136,-0.488,1.176,1.719,-129.749
 15:31:51.900,eb:33:2e:f9:57:b5, 2085-97-198 255:09:00:2059,-0.026,0.005,1.003,0.732,-2.014,-0.244,1.187,1.697,-129.749
 15:31:51.900,eb:33:2e:f9:57:b5, 2085-97-198 255:09:00:2059,-0.027,0.003,1.007,0.671,-1.465,-0.244,1.192,1.681,-129.754
 15:31:51.929,eb:33:2e:f9:57:b5, 2085-97-200 255:12:00:2054,-0.03,0.005,1.003,0.549,-1.038,-0.305,1.203,1.664,-129.754
 15:31:51.929,eb:33:2e:f9:57:b5, 2085-97-195 255:10:00:2051,-0.029,0.005,1.002,0.427,-0.549,-0.183,1.203,1.659,-129.754
 15:31:51.929,eb:33:2e:f9:57:b5, 2085-97-198 255:14:00:2050,-0.028,0.006,1.001,0.366,-0.305,-0.183,1.208,1.653,-129.76
 15:31:51.929,eb:33:2e:f9:57:b5, 2085-97-197 255:12:00:2050,-0.026,0.006,1.001,0.183,0,-0.244,1.214,1.648,-129.76
 15:31:51.958,eb:33:2e:f9:57:b5, 2085-97-207 255:16:00:2052,-0.023,0.007,1.001,0,0.122,-0.244,1.214,1.648,-129.76
 15:31:51.958,eb:33:2e:f9:57:b5, 2085-97-211 255:17:00:2052,-0.022,0.008,1,-0.183,0.671,-0.122,1.214,1.653,-129.765
 15:31:51.958,eb:33:2e:f9:57:b5, 2085-97-204 255:04:00:2063,-0.031,0.007,1.006,-0.427,1.587,-0.122,1.208,1.664,-129.765
 15:31:51.958,eb:33:2e:f9:57:b5, 2085-97-189 255:00:00:2053,-0.035,0.001,1.005,-0.366,1.892,0,1.208,1.681,-129.765
 15:31:52.020,eb:33:2e:f9:57:b5, 2085-97-186 255:07:00:2045,-0.033,0.001,0.999,-0.183,1.465,-0.122,1.203,1.697,-129.765
 15:31:52.020,eb:33:2e:f9:57:b5, 2085-97-188 255:08:00:2049,-0.031,0.004,1,-0.244,1.099,-0.183,1.203,1.714,-129.765
 15:31:52.020,eb:33:2e:f9:57:b5, 2085-97-190 255:08:00:2043,-0.033,0.003,1,-0.183,0.854,-0.122,1.198,1.719,-129.765
 15:31:52.020,eb:33:2e:f9:57:b5, 2085-97-193 255:10:00:2044,-0.029,0.005,0.995,-0.305,0.671,-0.244,1.198,1.73,-129.765
 15:31:52.049,eb:33:2e:f9:57:b5, 2085-97-198 255:08:00:2050,-0.029,0.005,1,-0.427,0.671,-0.061,1.192,1.736,-129.765
 15:31:52.049,eb:33:2e:f9:57:b5, 2085-97-196 255:11:00:2052,-0.03,0.005,1,-0.366,0.793,0,1.187,1.741,-129.765
 15:31:52.049,eb:33:2e:f9:57:b5, 2085-97-198 255:11:00:2051,-0.028,0.005,1.002,-0.488,0.854,0,1.181,1.747,-129.765
 15:31:52.049,eb:33:2e:f9:57:b5, 2085-97-198 255:11:00:2052,-0.027,0.005,1.002,-0.671,1.16,0,1.176,1.758,-129.765
 15:31:52.079,eb:33:2e:f9:57:b5, 2085-97-197 255:08:00:2057,-0.03,0.005,1.003,-0.854,1.526,0,1.17,1.78,-129.765
 15:31:52.079,eb:33:2e:f9:57:b5, 2085-97-187 255:05:00:2053,-0.035,0.003,1.003,-0.854,1.953,0,1.17,1.78,-129.765
 15:31:52.079,eb:33:2e:f9:57:b5, 2085-97-188 255:02:00:2052,-0.035,0.003,1,-0.854,1.648,-0.061,1.17,1.791,-129.765
 15:31:52.079,eb:33:2e:f9:57:b5, 2085-97-187 255:03:00:2053,-0.034,0.002,1,-0.732,1.526,-0.061,1.17,1.791,-129.765
 15:31:52.140,eb:33:2e:f9:57:b5, 2085-97-183 255:02:00:2046,-0.035,0.001,1.001,-0.549,1.343,0,1.165,1.802,-129.765
 15:31:52.140,eb:33:2e:f9:57:b5, 2085-97-185 255:03:00:2048,-0.035,0.002,0.999,-0.488,0.916,0,1.165,1.802,-129.765
 15:31:52.140,eb:33:2e:f9:57:b5, 2085-97-185 255:06:00:2046,-0.034,0.002,1,-0.488,0.671,0,1.165,1.813,-129.765
 15:31:52.140,eb:33:2e:f9:57:b5, 2085-97-188 255:08:00:2045,-0.032,0.003,0.998,-0.488,0.549,0.061,1.165,1.813,-129.765
 15:31:52.169,eb:33:2e:f9:57:b5, 2085-97-190 255:03:00:2053,-0.034,0.003,1,-0.488,0.732,0.122,1.165,1.818,-129.765
 15:31:52.169,eb:33:2e:f9:57:b5, 2085-97-186 255:04:00:2051,-0.034,0.002,1.002,-0.488,0.732,0.183,1.165,1.818,-129.765
 15:31:52.169,eb:33:2e:f9:57:b5, 2085-97-184 255:06:00:2047,-0.034,0.003,1,-0.549,0.732,0.183,1.159,1.829,-129.765
 15:31:52.169,eb:33:2e:f9:57:b5, 2085-97-189 255:07:00:2051,-0.032,0.004,1,-0.549,0.671,0.183,1.159,1.829,-129.765
 15:31:52.198,eb:33:2e:f9:57:b5, 2085-97-188 255:06:00:2050,-0.034,0.003,1.001,-0.61,0.854,0.183,1.159,1.835,-129.765
 15:31:52.198,eb:33:2e:f9:57:b5, 2085-97-187 255:07:00:2049,-0.033,0.003,1.001,-0.549,0.977,0.244,1.159,1.835,-129.765
 15:31:52.198,eb:33:2e:f9:57:b5, 2085-97-189 255:06:00:2053,-0.032,0.003,1,-0.61,0.977,0.244,1.159,1.84,-129.765
 15:31:52.199,eb:33:2e:f9:57:b5, 2085-97-187 255:04:00:2054,-0.035,0.002,1.003,-0.549,1.221,0.244,1.159,1.84,-129.765
 15:31:52.259,eb:33:2e:f9:57:b5, 2085-97-183 255:03:00:2051,-0.037,0.002,1.002,-0.549,1.282,0.244,1.159,1.84,-129.765
 15:31:52.259,eb:33:2e:f9:57:b5, 2085-97-179 255:255:255:2050,-0.038,0.001,1.001,-0.549,1.099,0.183,1.159,1.84,-129.765
 15:31:52.259,eb:33:2e:f9:57:b5, 2085-97-177 255:00:00:2052,-0.039,0,1.001,-0.366,0.732,0.183,1.159,1.846,-129.765
 15:31:52.259,eb:33:2e:f9:57:b5, 2085-97-177 255:00:00:2046,-0.038,0,1,-0.244,0.305,0.061,1.159,1.846,-129.765
 15:31:52.289,eb:33:2e:f9:57:b5, 2085-97-178 255:02:00:2043,-0.038,0,0.999,-0.061,-0.061,0.122,1.154,1.851,-129.765
 15:31:52.289,eb:33:2e:f9:57:b5, 2085-97-181 255:03:00:2045,-0.035,0.001,0.998,0,-0.427,0.122,1.154,1.851,-129.765
 15:31:52.289,eb:33:2e:f9:57:b5, 2085-97-186 255:05:00:2048,-0.034,0.002,1,0,-0.61,0.244,1.154,1.857,-129.765
 15:31:52.289,eb:33:2e:f9:57:b5, 2085-97-189 255:07:00:2048,-0.033,0.002,1,0,-0.549,0.305,1.154,1.857,-129.765
 15:31:52.319,eb:33:2e:f9:57:b5, 2085-97-188 255:03:00:2054,-0.034,0.002,1.003,0,-0.488,0.305,1.154,1.857,-129.765
 15:31:52.319,eb:33:2e:f9:57:b5, 2085-97-182 255:02:00:2053,-0.037,0,1.004,0,-0.244,0.244,1.154,1.857,-129.765
 15:31:52.319,eb:33:2e:f9:57:b5, 2085-113-81 00:82:54:402,-0.035,0.001,1.001,0,-0.244,0.183,1.154,1.862,-129.765
 15:31:52.319,eb:33:2e:f9:57:b5, 2085-97-188 255:07:00:2053,-0.032,0.002,1.001,0.061,-0.244,0.122,1.154,1.862,-129.765
 15:31:52.378,eb:33:2e:f9:57:b5, 2085-97-189 255:07:00:2051,-0.031,0.003,1.003,0,0.122,0.122,1.154,1.862,-129.76
 15:31:52.378,eb:33:2e:f9:57:b5, 2085-97-189 255:05:00:2055,-0.035,0.003,1.003,0,0.427,0,1.154,1.868,-129.76
 15:31:52.378,eb:33:2e:f9:57:b5, 2085-97-188 255:04:00:2054,-0.033,0.001,1.003,-0.061,0.671,0.061,1.154,1.868,-129.76
 15:31:52.378,eb:33:2e:f9:57:b5, 2085-97-188 255:05:00:2057,-0.036,0.003,1.004,-0.122,0.854,-0.061,1.154,1.868,-129.76
 15:31:52.409,eb:33:2e:f9:57:b5, 2085-97-180 255:04:00:2044,-0.036,0.001,1.001,-0.183,1.221,-0.122,1.154,1.868,-129.765
 15:31:52.409,eb:33:2e:f9:57:b5, 2085-97-176 255:01:00:2042,-0.038,0.002,1,-0.183,1.038,-0.244,1.148,1.873,-129.765
 15:31:52.409,eb:33:2e:f9:57:b5, 2085-97-178 255:01:00:2044,-0.036,0.001,0.998,-0.183,0.671,-0.183,1.148,1.873,-129.76
 15:31:52.409,eb:33:2e:f9:57:b5, 2085-97-185 255:05:00:2046,-0.035,0.001,0.998,-0.183,0.366,-0.183,1.148,1.873,-129.76
 15:31:52.439,eb:33:2e:f9:57:b5, 2085-97-189 255:05:00:2048,-0.033,0.001,0.999,-0.061,0.366,-0.122,1.148,1.873,-129.76
 15:31:52.439,eb:33:2e:f9:57:b5, 2085-97-186 255:04:00:2048,-0.033,0.002,1.001,0,0.549,0,1.148,1.879,-129.76
 15:31:52.439,eb:33:2e:f9:57:b5, 2085-97-190 255:05:00:2051,-0.033,0.002,1.001,0,0.671,0,1.148,1.879,-129.76
 15:31:52.439,eb:33:2e:f9:57:b5, 2085-97-190 255:10:00:2046,-0.031,0.003,1,0.061,0.854,-0.061,1.148,1.884,-129.76
 15:31:52.500,eb:33:2e:f9:57:b5, 2085-97-189 255:07:00:2045,-0.033,0.002,1,0.122,1.221,-0.366,1.148,1.884,-129.76
 15:31:52.500,eb:33:2e:f9:57:b5, 2085-97-183 255:00:00:2061,-0.039,0.002,1.004,0.061,1.526,-0.366,1.148,1.884,-129.76
 15:31:52.500,eb:33:2e:f9:57:b5, 2085-97-170 255:253:255:2057,-0.044,-0.002,1.007,0,1.953,-0.427,1.148,1.884,-129.76
 15:31:52.500,eb:33:2e:f9:57:b5, 2085-97-160 255:252:255:2052,-0.049,-0.001,1.002,0.183,1.587,-0.488,1.148,1.89,-129.76
 15:31:52.531,eb:33:2e:f9:57:b5, 2085-97-158 255:250:255:2054,-0.048,-0.002,1.002,0.244,0.671,-0.732,1.148,1.89,-129.76
 15:31:52.531,eb:33:2e:f9:57:b5, 2085-97-154 255:249:255:2049,-0.044,-0.004,1.002,0.305,-0.366,-0.793,1.143,1.89,-129.76
 15:31:52.531,eb:33:2e:f9:57:b5, 2085-97-167 255:252:255:2047,-0.042,0,0.999,0.488,-1.77,-0.977,1.143,1.89,-129.76
 15:31:52.531,eb:33:2e:f9:57:b5, 2085-97-176 255:00:00:2047,-0.036,0,0.998,0.61,-2.869,-0.854,1.143,1.89,-129.76
 15:31:52.560,eb:33:2e:f9:57:b5, 2085-97-189 255:06:00:2049,-0.03,0.001,1,0.732,-3.296,-0.793,1.154,1.857,-129.771
 15:31:52.560,eb:33:2e:f9:57:b5, 2085-97-199 255:13:00:2053,-0.025,0.004,1.001,0.671,-2.808,-0.549,1.159,1.824,-129.776
 15:31:52.560,eb:33:2e:f9:57:b5, 2085-97-207 255:15:00:2054,-0.021,0.006,1.003,0.366,-1.892,-0.305,1.165,1.796,-129.781
 15:31:52.560,eb:33:2e:f9:57:b5, 2085-97-211 255:17:00:2053,-0.024,0.008,1.002,0.183,-0.366,-0.183,1.17,1.785,-129.781
 15:31:52.622,eb:33:2e:f9:57:b5, 2085-97-200 255:12:00:2050,-0.031,0.007,1.002,0,1.16,0,1.17,1.791,-129.781
 15:31:52.622,eb:33:2e:f9:57:b5, 2085-97-187 255:05:00:2044,-0.035,0.004,1,-0.122,2.075,0.244,1.17,1.807,-129.781
 15:31:52.622,eb:33:2e:f9:57:b5, 2085-97-178 255:03:00:2043,-0.041,0.002,0.998,-0.122,2.197,0.366,1.17,1.824,-129.776
 15:31:52.622,eb:33:2e:f9:57:b5, 2085-97-169 255:255:255:2045,-0.043,0,0.998,0,1.526,0.305,1.165,1.846,-129.771
 15:31:52.650,eb:33:2e:f9:57:b5, 2085-97-160 255:247:255:2047,-0.052,-0.001,1.001,0.061,0.549,0,1.17,1.851,-129.771
 15:31:52.650,eb:33:2e:f9:57:b5, 2085-97-151 255:252:255:2042,-0.049,-0.004,0.997,0.366,-0.854,-0.061,1.17,1.851,-129.771
 15:31:52.650,eb:33:2e:f9:57:b5, 2085-97-163 255:255:255:2045,-0.042,-0.001,0.998,0.549,-2.625,-0.183,1.176,1.829,-129.771
 15:31:52.650,eb:33:2e:f9:57:b5, 2085-97-181 255:03:00:2049,-0.033,0,1,0.671,-3.601,-0.305,1.181,1.796,-129.776
 15:31:52.678,eb:33:2e:f9:57:b5, 2085-97-191 255:05:00:2045,-0.029,0.002,1,0.732,-3.906,-0.305,1.187,1.758,-129.776
 15:31:52.678,eb:33:2e:f9:57:b5, 2085-97-198 255:09:00:2050,-0.026,0.003,1,0.732,-3.784,-0.061,1.198,1.719,-129.781
 15:31:52.678,eb:33:2e:f9:57:b5, 2085-97-205 255:11:00:2058,-0.026,0.005,1.004,0.671,-3.235,0,1.203,1.681,-129.781
 15:31:52.678,eb:33:2e:f9:57:b5, 2085-97-205 255:11:00:2063,-0.026,0.005,1.006,0.488,-2.441,0.183,1.208,1.653,-129.776
 15:31:52.740,eb:33:2e:f9:57:b5, 2085-97-201 255:08:00:2060,-0.027,0.005,1.007,0.244,-1.648,0.244,1.214,1.631,-129.776
 15:31:52.740,eb:33:2e:f9:57:b5, 2085-97-195 255:08:00:2057,-0.033,0.007,1.004,0.122,-1.099,0.183,1.214,1.615,-129.771
 15:31:52.740,eb:33:2e:f9:57:b5, 2085-97-184 255:00:00:2052,-0.034,0,1.002,0.061,-0.793,0.366,1.219,1.609,-129.765
 15:31:52.740,eb:33:2e:f9:57:b5, 2085-97-183 255:01:00:2049,-0.035,0,1.002,0.183,-0.793,0.305,1.219,1.599,-129.765
 15:31:52.768,eb:33:2e:f9:57:b5, 2085-97-185 255:05:00:2044,-0.037,0.001,1,0.305,-1.282,0.305,1.225,1.588,-129.76
 15:31:52.768,eb:33:2e:f9:57:b5, 2085-97-182 255:08:00:2042,-0.034,0.005,0.994,0.305,-2.075,0.305,1.225,1.566,-129.754
 15:31:52.768,eb:33:2e:f9:57:b5, 2085-97-187 255:07:00:2049,-0.031,0.001,1,0.305,-2.563,0.427,1.23,1.544,-129.749
 15:31:52.768,eb:33:2e:f9:57:b5, 2085-97-193 255:08:00:2049,-0.029,0.001,1.002,0.366,-2.808,0.244,1.23,1.511,-129.749
 15:31:52.800,eb:33:2e:f9:57:b5, 2085-97-198 255:06:00:2044,-0.025,0.002,1,0.488,-3.113,0.183,1.236,1.483,-129.743
 15:31:52.800,eb:33:2e:f9:57:b5, 2085-97-212 255:12:00:2062,-0.023,0.006,1,0.366,-3.357,0.122,1.241,1.445,-129.743
 15:31:52.800,eb:33:2e:f9:57:b5, 2085-97-201 255:05:00:2064,-0.032,0.004,1.009,0.122,-2.38,0.244,1.247,1.417,-129.738
 15:31:52.800,eb:33:2e:f9:57:b5, 2085-97-184 255:04:00:2044,-0.035,0.002,1,0.122,-2.136,0.305,1.247,1.395,-129.738
 15:31:52.859,eb:33:2e:f9:57:b5, 2085-97-192 255:03:00:2045,-0.026,0.001,0.997,0.305,-2.747,0.244,1.252,1.373,-129.732
 15:31:52.859,eb:33:2e:f9:57:b5, 2085-97-202 255:15:00:2032,-0.026,0.003,0.996,0.427,-3.174,0.427,1.252,1.34,-129.732
 15:31:52.859,eb:33:2e:f9:57:b5, 2085-97-201 255:07:00:2048,-0.025,0.005,0.997,0.305,-3.235,0.61,1.258,1.307,-129.721
 15:31:52.859,eb:33:2e:f9:57:b5, 2085-97-199 255:05:00:2059,-0.034,0.003,1.004,0.244,-3.357,0.549,1.263,1.269,-129.716
 15:31:52.919,eb:33:2e:f9:57:b5, 2085-97-188 255:06:00:2046,-0.031,0,1.001,0.488,-3.54,0.549,1.263,1.236,-129.71
 15:31:52.919,eb:33:2e:f9:57:b5, 2085-97-202 255:06:00:2056,-0.021,0.002,1.001,0.488,-4.456,0.305,1.269,1.192,-129.705
 15:31:52.919,eb:33:2e:f9:57:b5, 2085-97-221 255:14:00:2063,-0.015,0.005,1.005,0.366,-4.578,0.183,1.274,1.148,-129.705
 15:31:52.919,eb:33:2e:f9:57:b5, 2085-97-220 255:12:00:2057,-0.014,0.006,1.007,0.183,-3.601,0.183,1.28,1.104,-129.705
 15:31:52.950,eb:33:2e:f9:57:b5, 2085-97-226 255:14:00:2059,-0.017,0.007,1.006,0.061,-2.502,0.305,1.28,1.077,-129.699
 15:31:52.950,eb:33:2e:f9:57:b5, 2085-97-220 255:14:00:2051,-0.018,0.008,1.002,-0.061,-1.587,0.122,1.28,1.055,-129.694
 15:31:52.950,eb:33:2e:f9:57:b5, 2085-97-205 255:18:00:2039,-0.021,0.007,1.002,-0.183,-0.793,0.183,1.28,1.038,-129.694
 15:31:52.950,eb:33:2e:f9:57:b5, 2085-97-207 255:10:00:2041,-0.024,0.007,0.999,-0.366,-0.732,0.488,1.274,1.027,-129.688
 15:31:52.950,eb:33:2e:f9:57:b5, 2085-97-209 255:04:00:2043,-0.031,0.003,0.998,-0.366,-0.977,0.61,1.269,1.022,-129.683
 15:31:52.979,eb:33:2e:f9:57:b5, 2085-113-81 00:106:54:194,-0.032,0,0.994,-0.183,-1.831,0.488,1.269,1.005,-129.677
 15:31:52.979,eb:33:2e:f9:57:b5, 2085-97-191 255:255:255:2041,-0.032,-0.001,0.996,-0.122,-2.38,0.427,1.269,0.994,-129.672
 15:31:52.979,eb:33:2e:f9:57:b5, 2085-97-201 255:05:00:2047,-0.023,0,0.996,0.305,-3.54,0.549,1.269,0.961,-129.666
 15:31:52.980,eb:33:2e:f9:57:b5, 2085-97-196 255:00:00:2041,-0.023,0.001,1,0.305,-4.15,0.427,1.274,0.923,-129.661
 15:31:53.009,eb:33:2e:f9:57:b5, 2085-97-218 255:13:00:2050,-0.014,0.002,1,0.671,-5.066,0.61,1.28,0.873,-129.655
 15:31:53.009,eb:33:2e:f9:57:b5, 2085-97-236 255:12:00:2065,-0.006,0.007,1.004,0.549,-4.578,0.488,1.285,0.824,-129.65
 15:31:53.009,eb:33:2e:f9:57:b5, 2085-97-252 255:12:00:2073,-0.006,0.005,1.01,0.366,-3.662,0.366,1.291,0.78,-129.65
 15:31:53.009,eb:33:2e:f9:57:b5, 2085-97-238 255:12:00:2060,-0.009,0.006,1.007,0.244,-1.953,0.366,1.291,0.753,-129.644
 15:31:53.069,eb:33:2e:f9:57:b5, 2085-97-220 255:13:00:2048,-0.014,0.006,1.006,0,-0.549,0.671,1.296,0.742,-129.639
 15:31:53.069,eb:33:2e:f9:57:b5, 2085-97-232 255:13:00:2058,-0.012,0.005,1.004,-0.061,-0.305,0.61,1.296,0.736,-129.633
 15:31:53.069,eb:33:2e:f9:57:b5, 2085-97-228 255:12:00:2058,-0.015,0.007,1.005,-0.122,0.305,0.732,1.291,0.731,-129.622
 15:31:53.069,eb:33:2e:f9:57:b5, 2085-97-227 255:11:00:2058,-0.014,0.006,1.004,-0.244,0.793,0.488,1.291,0.736,-129.617
 15:31:53.099,eb:33:2e:f9:57:b5, 2085-97-224 255:06:00:2057,-0.02,0.003,1.007,-0.244,1.16,0.366,1.291,0.747,-129.611
 15:31:53.099,eb:33:2e:f9:57:b5, 2085-97-215 255:01:00:2052,-0.02,0.002,1.002,-0.122,1.343,0.305,1.285,0.758,-129.606
 15:31:53.099,eb:33:2e:f9:57:b5, 2085-97-218 255:00:00:2056,-0.019,0.001,1.002,0.122,1.221,0.244,1.285,0.775,-129.606
 15:31:53.099,eb:33:2e:f9:57:b5, 2085-97-213 255:00:00:2058,-0.022,0,1.006,0.183,1.282,0.244,1.291,0.786,-129.6
 15:31:53.134,eb:33:2e:f9:57:b5, 2085-97-209 255:04:00:2047,-0.02,0.001,1.002,0.427,1.282,0.244,1.291,0.797,-129.595
 15:31:53.134,eb:33:2e:f9:57:b5, 2085-97-221 255:15:00:2045,-0.015,0.005,1,0.549,0.854,0.244,1.296,0.807,-129.595
 15:31:53.134,eb:33:2e:f9:57:b5, 2085-97-226 255:15:00:2045,-0.015,0.007,0.999,0.488,0.793,0.122,1.302,0.813,-129.589
 15:31:53.134,eb:33:2e:f9:57:b5, 2085-97-218 255:13:00:2044,-0.02,0.007,0.998,0.427,1.099,0.061,1.307,0.824,-129.589
 15:31:53.190,eb:33:2e:f9:57:b5, 2085-97-218 255:14:00:2048,-0.016,0.006,0.998,0.427,1.038,0.061,1.313,0.835,-129.589
 15:31:53.190,eb:33:2e:f9:57:b5, 2085-97-220 255:15:00:2052,-0.018,0.007,1.002,0.244,1.038,0,1.313,0.84,-129.589
 15:31:53.190,eb:33:2e:f9:57:b5, 2085-97-218 255:16:00:2052,-0.019,0.007,1.002,0,1.282,0,1.318,0.851,-129.589
 15:31:53.190,eb:33:2e:f9:57:b5, 2085-97-218 255:13:00:2053,-0.019,0.007,1.002,-0.122,1.526,-0.122,1.318,0.868,-129.589
 15:31:53.220,eb:33:2e:f9:57:b5, 2085-97-219 255:11:00:2057,-0.019,0.006,1.002,-0.305,1.648,-0.183,1.313,0.884,-129.589
 15:31:53.220,eb:33:2e:f9:57:b5, 2085-97-219 255:13:00:2053,-0.02,0.005,1.003,-0.366,2.075,-0.244,1.313,0.901,-129.589
 15:31:53.220,eb:33:2e:f9:57:b5, 2085-97-219 255:12:00:2057,-0.019,0.006,1.001,-0.427,2.563,-0.305,1.307,0.923,-129.595
 15:31:53.220,eb:33:2e:f9:57:b5, 2085-97-216 255:12:00:2049,-0.019,0.006,1.002,-0.549,3.052,-0.305,1.302,0.939,-129.595
 15:31:53.252,eb:33:2e:f9:57:b5, 2085-97-216 255:13:00:2047,-0.019,0.007,1,-0.61,3.357,-0.305,1.296,0.972,-129.595
 15:31:53.252,eb:33:2e:f9:57:b5, 2085-97-215 255:09:00:2055,-0.022,0.006,1.001,-0.793,3.479,-0.488,1.291,1.005,-129.6
 15:31:53.252,eb:33:2e:f9:57:b5, 2085-97-206 255:05:00:2051,-0.026,0.003,1.002,-0.854,3.723,-0.488,1.28,1.044,-129.6
 15:31:53.252,eb:33:2e:f9:57:b5, 2085-97-201 255:06:00:2044,-0.027,0.004,1,-0.732,3.235,-0.61,1.274,1.077,-129.606
 15:31:53.310,eb:33:2e:f9:57:b5, 2085-97-205 255:06:00:2049,-0.026,0.004,0.998,-0.61,2.869,-0.61,1.263,1.104,-129.611
 15:31:53.310,eb:33:2e:f9:57:b5, 2085-97-200 255:06:00:2047,-0.028,0.003,1,-0.488,2.441,-0.732,1.258,1.132,-129.617
 15:31:53.310,eb:33:2e:f9:57:b5, 2085-97-197 255:05:00:2044,-0.027,0.002,1,-0.427,2.319,-0.61,1.258,1.154,-129.628
 15:31:53.310,eb:33:2e:f9:57:b5, 2085-97-207 255:08:00:2050,-0.025,0.004,1,-0.305,1.892,-0.671,1.252,1.176,-129.633
 15:31:53.341,eb:33:2e:f9:57:b5, 2085-97-201 255:09:00:2044,-0.024,0.004,1,-0.305,2.075,-0.732,1.247,1.192,-129.639
 15:31:53.343,eb:33:2e:f9:57:b5, 2085-97-208 255:11:00:2052,-0.024,0.005,1,-0.244,1.953,-0.732,1.247,1.214,-129.644
 15:31:53.343,eb:33:2e:f9:57:b5, 2085-97-212 255:08:00:2055,-0.023,0.005,1.002,-0.366,2.258,-0.61,1.241,1.236,-129.65
 15:31:53.343,eb:33:2e:f9:57:b5, 2085-97-210 255:12:00:2058,-0.023,0.006,1.003,-0.427,2.747,-0.671,1.236,1.258,-129.655
 15:31:53.368,eb:33:2e:f9:57:b5, 2085-97-205 255:09:00:2056,-0.027,0.004,1.004,-0.549,3.357,-0.732,1.23,1.291,-129.661
 15:31:53.368,eb:33:2e:f9:57:b5, 2085-97-202 255:05:00:2058,-0.03,0.003,1.003,-0.61,3.54,-0.793,1.225,1.324,-129.672
 15:31:53.368,eb:33:2e:f9:57:b5, 2085-97-198 255:04:00:2056,-0.031,0,1.005,-0.549,3.845,-0.793,1.219,1.362,-129.677
 15:31:53.368,eb:33:2e:f9:57:b5, 2085-97-193 255:01:00:2056,-0.033,0.001,1.002,-0.427,3.479,-0.793,1.214,1.401,-129.683
 15:31:53.430,eb:33:2e:f9:57:b5, 2085-97-191 255:03:00:2051,-0.033,0.001,1.001,-0.366,3.357,-0.671,1.208,1.434,-129.694
 15:31:53.430,eb:33:2e:f9:57:b5, 2085-97-187 255:02:00:2046,-0.03,0.001,1,-0.244,2.93,-0.671,1.208,1.467,-129.699
 15:31:53.430,eb:33:2e:f9:57:b5, 2085-97-192 255:02:00:2048,-0.032,0,1.003,-0.244,2.625,-0.671,1.203,1.489,-129.705
 15:31:53.430,eb:33:2e:f9:57:b5, 2085-97-187 255:03:00:2046,-0.033,0.001,1,0,2.319,-0.61,1.203,1.516,-129.71
 15:31:53.460,eb:33:2e:f9:57:b5, 2085-97-187 255:05:00:2045,-0.03,0.002,0.998,-0.061,1.892,-0.488,1.203,1.533,-129.716
 15:31:53.460,eb:33:2e:f9:57:b5, 2085-97-193 255:06:00:2056,-0.029,0.003,1.002,-0.122,1.831,-0.488,1.203,1.555,-129.716
 15:31:53.460,eb:33:2e:f9:57:b5, 2085-97-188 255:07:00:2051,-0.036,0.003,1.003,-0.244,2.197,-0.305,1.198,1.571,-129.721
 15:31:53.460,eb:33:2e:f9:57:b5, 2085-97-185 255:06:00:2049,-0.036,0.004,1,-0.305,2.136,-0.305,1.198,1.593,-129.721
 15:31:53.491,eb:33:2e:f9:57:b5, 2085-97-187 255:07:00:2050,-0.033,0.002,0.999,-0.244,1.77,-0.305,1.192,1.609,-129.727
 15:31:53.491,eb:33:2e:f9:57:b5, 2085-97-189 255:06:00:2048,-0.034,0.003,1.001,-0.366,1.77,-0.305,1.187,1.631,-129.727
 15:31:53.491,eb:33:2e:f9:57:b5, 2085-97-181 255:06:00:2044,-0.037,0.002,0.999,-0.305,1.831,-0.305,1.187,1.648,-129.732
 15:31:53.491,eb:33:2e:f9:57:b5, 2085-97-181 255:03:00:2048,-0.036,0.003,0.999,-0.244,1.587,-0.183,1.181,1.664,-129.732
 15:31:53.549,eb:33:2e:f9:57:b5, 2085-97-183 255:04:00:2052,-0.035,0.002,1.001,-0.183,1.465,-0.122,1.181,1.681,-129.738
 15:31:53.549,eb:33:2e:f9:57:b5, 2085-97-181 255:02:00:2051,-0.036,0.001,1.002,-0.183,1.404,-0.183,1.176,1.692,-129.738
 15:31:53.549,eb:33:2e:f9:57:b5, 2085-97-184 255:07:00:2052,-0.034,0.002,1.002,-0.122,1.221,-0.244,1.176,1.703,-129.738
 15:31:53.549,eb:33:2e:f9:57:b5, 2085-97-187 255:04:00:2053,-0.035,0.002,1.003,-0.244,1.16,-0.366,1.176,1.714,-129.738
 15:31:53.579,eb:33:2e:f9:57:b5, 2085-97-184 255:03:00:2049,-0.035,0.002,1.001,-0.183,1.038,-0.366,1.17,1.725,-129.743
 15:31:53.579,eb:33:2e:f9:57:b5, 2085-97-187 255:02:00:2049,-0.035,0.002,1,-0.122,1.038,-0.366,1.17,1.736,-129.749
 15:31:53.579,eb:33:2e:f9:57:b5, 2085-97-188 255:06:00:2048,-0.033,0.001,0.999,-0.061,0.916,-0.305,1.165,1.747,-129.749
 15:31:53.579,eb:33:2e:f9:57:b5, 2085-97-188 255:05:00:2056,-0.035,0.003,1.004,-0.122,1.099,-0.366,1.165,1.758,-129.754
 15:31:53.610,eb:33:2e:f9:57:b5, 2085-97-183 255:05:00:2051,-0.037,0.004,1.001,-0.305,1.465,-0.244,1.165,1.769,-129.754
 15:31:53.610,eb:33:2e:f9:57:b5, 2085-97-176 255:03:00:2049,-0.038,0.002,0.999,-0.305,1.343,-0.183,1.159,1.785,-129.754
 15:31:53.610,eb:33:2e:f9:57:b5, 2085-97-179 255:00:00:2057,-0.038,0.001,1.001,-0.305,1.221,-0.244,1.148,1.824,-129.76
 15:31:53.610,eb:33:2e:f9:57:b5, 2085-97-176 255:03:00:2049,-0.038,0,1.003,-0.305,1.221,-0.183,1.148,1.824,-129.76
 15:31:53.670,eb:33:2e:f9:57:b5, 2085-97-176 255:02:00:2049,-0.039,0.001,1,-0.244,0.854,-0.244,1.143,1.857,-129.76
 15:31:53.670,eb:33:2e:f9:57:b5, 2085-97-179 255:02:00:2049,-0.039,0,0.999,-0.183,0.61,-0.183,1.143,1.857,-129.76
 15:31:53.670,eb:33:2e:f9:57:b5, 2085-97-179 255:02:00:2054,-0.037,0,1.002,-0.122,0.366,-0.244,1.132,1.879,-129.76
 15:31:53.670,eb:33:2e:f9:57:b5, 2085-97-178 255:03:00:2050,-0.04,0.001,1.003,-0.061,0.366,-0.244,1.132,1.879,-129.76
 15:31:53.700,eb:33:2e:f9:57:b5, 2085-97-180 255:06:00:2045,-0.036,0.001,1,-0.061,0.305,-0.244,1.132,1.895,-129.76
 15:31:53.700,eb:33:2e:f9:57:b5, 2085-97-178 255:06:00:2043,-0.032,0.003,1,-0.061,0.366,-0.305,1.132,1.895,-129.76
 15:31:53.700,eb:33:2e:f9:57:b5, 2085-97-189 255:07:00:2054,-0.032,0.004,1.003,-0.183,0.549,-0.244,1.126,1.906,-129.76
 15:31:53.700,eb:33:2e:f9:57:b5, 2085-97-185 255:04:00:2057,-0.037,0.002,1.005,-0.305,1.16,-0.244,1.126,1.906,-129.76
 15:31:53.732,eb:33:2e:f9:57:b5, 2085-97-179 255:02:00:2057,-0.04,0.001,1.005,-0.427,1.404,-0.122,1.121,1.917,-129.76
 15:31:53.732,eb:33:2e:f9:57:b5, 2085-97-173 255:01:00:2052,-0.041,0.001,1.002,-0.366,1.465,-0.244,1.121,1.917,-129.76
 15:31:53.732,eb:33:2e:f9:57:b5, 2085-97-164 255:253:255:2050,-0.045,0,1.003,-0.183,1.221,-0.244,1.121,1.928,-129.76
 15:31:53.732,eb:33:2e:f9:57:b5, 2085-97-164 255:254:255:2045,-0.044,-0.002,0.999,0,0.549,-0.305,1.121,1.928,-129.754
 15:31:53.789,eb:33:2e:f9:57:b5, 2085-97-166 255:00:00:2042,-0.04,0,0.997,0.061,-0.061,-0.305,1.115,1.934,-129.76
 15:31:53.789,eb:33:2e:f9:57:b5, 2085-113-58 00:210:226:-6210,-0.037,0,0.999,0.061,-0.488,-0.122,1.115,1.934,-129.754
 15:31:53.789,eb:33:2e:f9:57:b5, 2085-97-179 255:06:00:2046,-0.037,0.003,1,0.061,-0.488,-0.183,1.115,1.934,-129.754
 15:31:53.789,eb:33:2e:f9:57:b5, 2085-97-182 255:03:00:2054,-0.035,0.001,1.001,0,-0.61,0,1.115,1.945,-129.76
 15:31:53.850,eb:33:2e:f9:57:b5, 2085-97-177 255:00:00:2054,-0.037,0,1.004,0.061,-0.488,0,1.115,1.945,-129.754
 15:31:53.850,eb:33:2e:f9:57:b5, 2085-97-180 255:00:00:2055,-0.037,0,1.003,0.183,-0.732,0.061,1.115,1.95,-129.754
 15:31:53.850,eb:33:2e:f9:57:b5, 2085-97-180 255:00:00:2056,-0.036,0,1.004,0.244,-0.793,-0.061,1.115,1.95,-129.754
 15:31:53.850,eb:33:2e:f9:57:b5, 2085-97-183 255:00:00:2051,-0.037,0,1.002,0.305,-0.854,-0.122,1.11,1.956,-129.754
 15:31:53.850,eb:33:2e:f9:57:b5, 2085-97-183 255:05:00:2048,-0.037,0,1,0.488,-0.732,-0.061,1.11,1.956,-129.754
 15:31:53.850,eb:33:2e:f9:57:b5, 2085-97-182 255:08:00:2048,-0.037,0.003,0.999,0.427,-0.732,0,1.11,1.961,-129.754
 15:31:53.850,eb:33:2e:f9:57:b5, 2085-97-179 255:04:00:2052,-0.039,0.003,1.001,0.305,-0.549,0.183,1.11,1.961,-129.754
 15:31:53.851,eb:33:2e:f9:57:b5, 2085-97-177 255:01:00:2056,-0.04,0,1.003,0.366,-0.427,0.244,1.11,1.967,-129.754
 15:31:53.908,eb:33:2e:f9:57:b5, 2085-97-174 255:01:00:2049,-0.039,0.001,1.002,0.427,-0.549,0.244,1.11,1.967,-129.754
 15:31:53.908,eb:33:2e:f9:57:b5, 2085-97-176 255:02:00:2047,-0.039,0.001,1,0.549,-0.732,0.305,1.104,1.972,-129.754
 15:31:53.908,eb:33:2e:f9:57:b5, 2085-97-185 255:06:00:2047,-0.036,0.001,1,0.61,-0.977,0.244,1.104,1.972,-129.754
 15:31:53.908,eb:33:2e:f9:57:b5, 2085-97-186 255:08:00:2048,-0.033,0.003,1,0.549,-0.854,0.244,1.104,1.978,-129.754
 15:31:53.939,eb:33:2e:f9:57:b5, 2085-97-184 255:08:00:2047,-0.035,0.004,1,0.427,-0.732,0.122,1.104,1.978,-129.754
 15:31:53.939,eb:33:2e:f9:57:b5, 2085-97-183 255:10:00:2048,-0.035,0.005,1,0.244,-0.549,0.061,1.104,1.983,-129.754
 15:31:53.939,eb:33:2e:f9:57:b5, 2085-97-189 255:10:00:2055,-0.032,0.005,1.001,0.244,-0.488,0,1.104,1.983,-129.754
 15:31:53.939,eb:33:2e:f9:57:b5, 2085-97-192 255:07:00:2060,-0.032,0.004,1.004,0.061,0,0,1.104,1.983,-129.754
 15:31:53.969,eb:33:2e:f9:57:b5, 2085-97-189 255:05:00:2061,-0.032,0.003,1.007,0,0.488,0,1.104,1.983,-129.754
 15:31:53.969,eb:33:2e:f9:57:b5, 2085-97-187 255:00:00:2060,-0.034,0.002,1.006,0,0.854,0,1.104,1.989,-129.754
 15:31:53.969,eb:33:2e:f9:57:b5, 2085-97-186 255:09:00:2055,-0.04,0.002,1.004,0,1.221,0,1.104,1.989,-129.754
 15:31:53.969,eb:33:2e:f9:57:b5, 2085-97-176 255:03:00:2050,-0.037,0.001,1.001,0.061,1.404,-0.061,1.099,1.994,-129.754
 15:31:54.029,eb:33:2e:f9:57:b5, 2085-97-176 255:08:00:2046,-0.042,0.001,1.001,0.244,1.16,-0.183,1.099,1.994,-129.754
 15:31:54.029,eb:33:2e:f9:57:b5, 2085-97-169 255:03:00:2038,-0.039,0,0.996,0.244,1.038,0,1.099,1.994,-129.754
 15:31:54.030,eb:33:2e:f9:57:b5, 2085-97-174 255:08:00:2040,-0.041,0.002,0.998,0.366,0.61,0,1.099,1.994,-129.754
 15:31:54.030,eb:33:2e:f9:57:b5, 2085-97-176 255:11:00:2043,-0.04,0.005,0.996,0.305,0.427,-0.122,1.099,2,-129.754
 15:31:54.060,eb:33:2e:f9:57:b5, 2085-97-177 255:08:00:2043,-0.039,0.005,0.997,0.183,0.305,0,1.099,2,-129.754
 15:31:54.060,eb:33:2e:f9:57:b5, 2085-97-182 255:10:00:2043,-0.035,0.005,0.997,0.122,0.305,-0.061,1.099,2.005,-129.754
 15:31:54.060,eb:33:2e:f9:57:b5, 2085-97-185 255:11:00:2053,-0.035,0.005,1.001,0,0.244,-0.122,1.099,2.005,-129.754
 15:31:54.060,eb:33:2e:f9:57:b5, 2085-97-183 255:09:00:2050,-0.038,0.005,1.001,0,0.488,-0.122,1.099,2.005,-129.754
 15:31:54.088,eb:33:2e:f9:57:b5, 2085-97-180 255:09:00:2043,-0.037,0.004,0.998,-0.122,0.61,-0.122,1.099,2.005,-129.754
 15:31:54.088,eb:33:2e:f9:57:b5, 2085-97-177 255:09:00:2046,-0.039,0.005,1,-0.244,0.61,-0.183,1.099,2.01,-129.754
 15:31:54.088,eb:33:2e:f9:57:b5, 2085-97-177 255:05:00:2045,-0.038,0.004,0.999,-0.366,0.488,-0.183,1.099,2.01,-129.754
 15:31:54.088,eb:33:2e:f9:57:b5, 2085-97-178 255:05:00:2043,-0.038,0.002,0.999,-0.305,0.427,-0.122,1.093,2.016,-129.754
 15:31:54.149,eb:33:2e:f9:57:b5, 2085-97-172 255:05:00:2044,-0.042,0.002,0.997,-0.244,0.305,0.061,1.093,2.016,-129.754
 15:31:54.149,eb:33:2e:f9:57:b5, 2085-97-172 255:02:00:2045,-0.04,0.001,0.999,-0.122,0.122,0.244,1.093,2.016,-129.754
 15:31:54.150,eb:33:2e:f9:57:b5, 2085-97-175 255:00:00:2054,-0.043,0.003,0.999,-0.122,-0.366,-0.122,1.093,2.016,-129.754
 15:31:54.150,eb:33:2e:f9:57:b5, 2085-97-177 255:04:00:2050,-0.042,0.003,0.999,0,-0.671,0.061,1.093,2.021,-129.754
 15:31:54.180,eb:33:2e:f9:57:b5, 2085-97-182 255:03:00:2054,-0.039,0.001,1,0.061,-1.099,0.122,1.093,2.021,-129.754
 15:31:54.180,eb:33:2e:f9:57:b5, 2085-97-183 255:08:00:2045,-0.036,0.003,0.999,0.061,-1.16,0.122,1.093,2.021,-129.754
 15:31:54.180,eb:33:2e:f9:57:b5, 2085-97-186 255:11:00:2046,-0.033,0.005,0.998,0,-0.916,0.122,1.093,2.021,-129.754
 15:31:54.180,eb:33:2e:f9:57:b5, 2085-97-189 255:08:00:2058,-0.032,0.005,1.002,-0.183,-0.732,0.122,1.093,2.027,-129.754
 15:31:54.209,eb:33:2e:f9:57:b5, 2085-97-188 255:01:00:2067,-0.035,0.003,1.008,-0.244,-0.244,0.122,1.093,2.027,-129.754
 15:31:54.209,eb:33:2e:f9:57:b5, 2085-97-179 255:254:255:2065,-0.04,0,1.01,-0.183,0.061,0.061,1.093,2.032,-129.754
 15:31:54.209,eb:33:2e:f9:57:b5, 2085-97-175 255:00:00:2058,-0.039,-0.001,1.008,0,-0.061,0.061,1.093,2.032,-129.754
 15:31:54.209,eb:33:2e:f9:57:b5, 2085-97-176 255:00:00:2051,-0.038,0,1.003,0.183,-0.427,0,1.093,2.032,-129.754
 15:31:54.269,eb:33:2e:f9:57:b5, 2085-97-180 255:04:00:2048,-0.035,0.001,1,0.305,-0.793,-0.061,1.093,2.032,-129.754
 15:31:54.269,eb:33:2e:f9:57:b5, 2085-97-182 255:10:00:2045,-0.037,0.004,0.999,0.305,-0.793,0,1.093,2.038,-129.754
 15:31:54.269,eb:33:2e:f9:57:b5, 2085-97-184 255:09:00:2046,-0.035,0.004,0.998,0.305,-0.549,0.061,1.093,2.038,-129.754
 15:31:54.269,eb:33:2e:f9:57:b5, 2085-97-185 255:12:00:2045,-0.036,0.004,1,0.305,-0.61,0.061,1.093,2.038,-129.754
 15:31:54.299,eb:33:2e:f9:57:b5, 2085-97-178 255:07:00:2047,-0.038,0.004,1,0.305,-0.305,-0.122,1.093,2.038,-129.754
 15:31:54.299,eb:33:2e:f9:57:b5, 2085-97-180 255:06:00:2052,-0.037,0.003,1.001,0.244,-0.366,-0.122,1.088,2.043,-129.754
 15:31:54.299,eb:33:2e:f9:57:b5, 2085-97-183 255:08:00:2051,-0.035,0.003,1.002,0.183,-0.305,-0.122,1.088,2.043,-129.754
 15:31:54.299,eb:33:2e:f9:57:b5, 2085-97-181 255:08:00:2046,-0.037,0.004,1.001,0.061,-0.122,-0.122,1.088,2.043,-129.754
 15:31:54.389,eb:33:2e:f9:57:b5, 2085-97-179 255:11:00:2040,-0.035,0.005,0.997,0,-0.183,-0.122,1.088,2.043,-129.754
 15:31:54.389,eb:33:2e:f9:57:b5, 2085-97-185 255:12:00:2045,-0.037,0.005,0.996,-0.183,-0.061,-0.122,1.088,2.049,-129.754
 15:31:54.389,eb:33:2e:f9:57:b5, 2085-97-187 255:08:00:2049,-0.033,0.003,1,-0.244,0,0,1.088,2.049,-129.754
 15:31:54.389,eb:33:2e:f9:57:b5, 2085-97-188 255:09:00:2052,-0.033,0.004,1.001,-0.244,0.183,0,1.088,2.049,-129.754
 15:31:54.391,eb:33:2e:f9:57:b5, 2085-97-186 255:07:00:2052,-0.036,0.004,1.003,-0.366,0.549,0.122,1.088,2.049,-129.754
 15:31:54.391,eb:33:2e:f9:57:b5, 2085-97-180 255:04:00:2050,-0.038,0.003,1.001,-0.366,0.671,0.183,1.088,2.054,-129.754
 15:31:54.391,eb:33:2e:f9:57:b5, 2085-97-179 255:04:00:2048,-0.038,0.002,1,-0.305,0.732,0.244,1.088,2.054,-129.754
 15:31:54.391,eb:33:2e:f9:57:b5, 2085-97-178 255:03:00:2049,-0.038,0.002,0.999,-0.183,0.488,0.244,1.088,2.054,-129.754
 15:31:54.420,eb:33:2e:f9:57:b5, 2085-97-183 255:08:00:2048,-0.037,0.002,0.999,-0.061,0.488,0.366,1.088,2.054,-129.754
 15:31:54.420,eb:33:2e:f9:57:b5, 2085-97-180 255:09:00:2047,-0.036,0.004,0.999,-0.122,0.671,0.488,1.088,2.06,-129.754
 15:31:54.420,eb:33:2e:f9:57:b5, 2085-97-180 255:07:00:2050,-0.036,0.005,0.999,-0.183,0.793,0.488,1.088,2.06,-129.754
 15:31:54.420,eb:33:2e:f9:57:b5, 2085-97-188 255:09:00:2055,-0.036,0.003,1.002,-0.305,0.854,0.488,1.088,2.065,-129.754
 15:31:54.509,eb:33:2e:f9:57:b5, 2085-97-169 255:00:00:2049,-0.041,0.001,1.004,-0.305,1.343,0.488,1.088,2.065,-129.754
 15:31:54.509,eb:33:2e:f9:57:b5, 2085-97-174 255:02:00:2048,-0.041,0.001,1,-0.244,0.793,0.244,1.088,2.065,-129.754
 15:31:54.509,eb:33:2e:f9:57:b5, 2085-97-172 255:02:00:2049,-0.041,0,1,-0.122,0.366,0.183,1.088,2.065,-129.754
 15:31:54.509,eb:33:2e:f9:57:b5, 2085-97-171 255:253:255:2054,-0.042,0,1.003,-0.061,0.122,0.183,1.088,2.071,-129.754
 15:31:54.509,eb:33:2e:f9:57:b5, 2085-97-171 255:00:00:2048,-0.042,-0.001,0.999,0,-0.488,0.183,1.088,2.071,-129.754
 15:31:54.509,eb:33:2e:f9:57:b5, 2085-113-81 00:85:54:448,-0.041,0,1,0.122,-0.916,0.305,1.082,2.071,-129.754
 15:31:54.509,eb:33:2e:f9:57:b5, 2085-97-177 255:04:00:2054,-0.036,0.001,1,0.122,-1.099,0.244,1.082,2.071,-129.749
 15:31:54.510,eb:33:2e:f9:57:b5, 2085-97-183 255:05:00:2052,-0.036,0.001,1.004,0.183,-1.221,0.061,1.082,2.076,-129.749
 15:31:54.510,eb:33:2e:f9:57:b5, 2085-97-179 255:02:00:2058,-0.037,0.003,1.005,0.122,-1.221,0,1.082,2.076,-129.749
 15:31:54.541,eb:33:2e:f9:57:b5, 2085-97-183 255:03:00:2054,-0.034,0.003,1.002,0.183,-1.099,0,1.082,2.076,-129.749
 15:31:54.541,eb:33:2e:f9:57:b5, 2085-97-186 255:08:00:2051,-0.035,0.002,1.001,0.305,-1.16,-0.061,1.082,2.076,-129.749
 15:31:54.541,eb:33:2e:f9:57:b5, 2085-97-186 255:08:00:2054,-0.032,0.003,1.002,0.183,-0.854,-0.061,1.082,2.082,-129.749
 15:31:54.541,eb:33:2e:f9:57:b5, 2085-97-187 255:10:00:2055,-0.036,0.003,1.005,0.122,-0.549,0,1.082,2.082,-129.749
 15:31:54.599,eb:33:2e:f9:57:b5, 2085-97-179 255:04:00:2051,-0.037,0.002,1.003,0,-0.122,0.122,1.082,2.082,-129.749
 15:31:54.599,eb:33:2e:f9:57:b5, 2085-97-177 255:06:00:2047,-0.039,0.002,1.001,-0.061,-0.183,0.122,1.082,2.082,-129.749
 15:31:54.599,eb:33:2e:f9:57:b5, 2085-97-180 255:05:00:2048,-0.038,0.003,1.001,-0.061,-0.244,0.305,1.082,2.087,-129.749
 15:31:54.599,eb:33:2e:f9:57:b5, 2085-97-185 255:07:00:2051,-0.034,0.003,0.999,-0.122,-0.671,0.244,1.082,2.087,-129.749
 15:31:54.629,eb:33:2e:f9:57:b5, 2085-97-184 255:07:00:2047,-0.032,0.005,1,-0.183,-0.366,0.244,1.082,2.087,-129.749
 15:31:54.629,eb:33:2e:f9:57:b5, 2085-97-191 255:10:00:2051,-0.033,0.005,1.001,-0.305,-0.244,0.183,1.082,2.087,-129.749
 15:31:54.629,eb:33:2e:f9:57:b5, 2085-97-184 255:07:00:2052,-0.035,0.004,1.001,-0.305,0.122,0.122,1.082,2.093,-129.749
 15:31:54.629,eb:33:2e:f9:57:b5, 2085-97-189 255:08:00:2053,-0.035,0.003,1.002,-0.305,0,0,1.082,2.093,-129.749
 15:31:54.688,eb:33:2e:f9:57:b5, 2085-97-184 255:06:00:2055,-0.035,0.003,1.003,-0.427,0.183,-0.061,1.082,2.093,-129.749
 15:31:54.688,eb:33:2e:f9:57:b5, 2085-97-184 255:05:00:2055,-0.035,0.002,1.004,-0.427,0.366,-0.244,1.082,2.093,-129.749
 15:31:54.688,eb:33:2e:f9:57:b5, 2085-97-184 255:03:00:2048,-0.037,0.003,1.001,-0.549,0.671,-0.244,1.082,2.098,-129.749
 15:31:54.688,eb:33:2e:f9:57:b5, 2085-97-185 255:06:00:2052,-0.034,0.002,1,-0.549,0.549,-0.366,1.082,2.098,-129.749
 15:31:54.719,eb:33:2e:f9:57:b5, 2085-97-188 255:04:00:2055,-0.034,0.002,1.003,-0.61,0.732,-0.305,1.082,2.098,-129.749
 15:31:54.719,eb:33:2e:f9:57:b5, 2085-97-179 255:00:00:2051,-0.039,0.001,1.003,-0.671,0.977,-0.244,1.082,2.098,-129.743
 15:31:54.719,eb:33:2e:f9:57:b5, 2085-97-176 255:01:00:2049,-0.038,0,1.001,-0.671,0.732,-0.122,1.082,2.104,-129.743
 15:31:54.719,eb:33:2e:f9:57:b5, 2085-97-177 255:01:00:2043,-0.038,0,1,-0.488,0.488,-0.122,1.082,2.104,-129.743
 15:31:54.750,eb:33:2e:f9:57:b5, 2085-97-178 255:04:00:2043,-0.036,0.001,0.999,-0.427,0.183,-0.061,1.077,2.104,-129.743
 15:31:54.750,eb:33:2e:f9:57:b5, 2085-97-186 255:04:00:2049,-0.034,0.002,1,-0.427,0,0,1.077,2.104,-129.743
 15:31:54.750,eb:33:2e:f9:57:b5, 2085-97-186 255:04:00:2052,-0.036,0.002,1.001,-0.549,0.061,0.061,1.077,2.104,-129.743
 15:31:54.750,eb:33:2e:f9:57:b5, 2085-97-183 255:02:00:2060,-0.036,0.002,1.002,-0.671,0.305,0.061,1.077,2.104,-129.743
 15:31:54.780,eb:33:2e:f9:57:b5, 2085-97-181 255:01:00:2057,-0.037,0,1.005,-0.671,0.488,0.061,1.077,2.109,-129.743
 15:31:54.780,eb:33:2e:f9:57:b5, 2085-97-181 255:00:00:2053,-0.036,0,1.003,-0.671,0.549,0.122,1.077,2.109,-129.743
 15:31:54.780,eb:33:2e:f9:57:b5, 2085-97-181 255:00:00:2048,-0.037,0,1.001,-0.61,0.366,0,1.077,2.109,-129.743
 15:31:54.780,eb:33:2e:f9:57:b5, 2085-97-181 255:03:00:2045,-0.037,0,0.999,-0.549,0.244,0.061,1.077,2.109,-129.743
 15:31:54.838,eb:33:2e:f9:57:b5, 2085-97-182 255:02:00:2047,-0.036,0.001,0.999,-0.488,0.183,0.183,1.077,2.115,-129.743
 15:31:54.838,eb:33:2e:f9:57:b5, 2085-97-181 255:255:255:2051,-0.038,0,1.001,-0.488,0.244,0.305,1.077,2.115,-129.743
 15:31:54.838,eb:33:2e:f9:57:b5, 2085-97-175 255:00:00:2049,-0.04,0,1,-0.427,0.244,0.488,1.077,2.115,-129.743
 15:31:54.838,eb:33:2e:f9:57:b5, 2085-97-173 255:00:00:2053,-0.039,0,1.002,-0.366,0,0.427,1.077,2.115,-129.743
 15:31:54.899,eb:33:2e:f9:57:b5, 2085-97-174 255:252:255:2051,-0.039,0,1.001,-0.244,-0.366,0.305,1.077,2.12,-129.743
 15:31:54.899,eb:33:2e:f9:57:b5, 2085-97-178 255:00:00:2049,-0.038,0,0.999,-0.244,-0.671,0.305,1.077,2.12,-129.743
 15:31:54.899,eb:33:2e:f9:57:b5, 2085-97-179 255:254:255:2051,-0.038,0,1.001,-0.244,-0.793,0.244,1.077,2.12,-129.743
 15:31:54.899,eb:33:2e:f9:57:b5, 2085-97-178 255:00:00:2048,-0.038,0,1.001,-0.122,-0.854,0.366,1.077,2.12,-129.743
 15:31:54.901,eb:33:2e:f9:57:b5, 2085-97-183 255:01:00:2048,-0.035,0,1,0,-1.038,0.305,1.077,2.126,-129.743
 15:31:54.901,eb:33:2e:f9:57:b5, 2085-97-187 255:02:00:2052,-0.034,0,1,0,-1.16,0.305,1.077,2.126,-129.743
 15:31:54.901,eb:33:2e:f9:57:b5, 2085-97-185 255:04:00:2045,-0.034,0.001,1,0,-0.977,0.244,1.071,2.126,-129.743
 15:31:54.901,eb:33:2e:f9:57:b5, 2085-97-188 255:04:00:2048,-0.032,0.001,0.999,-0.061,-0.793,0.244,1.071,2.126,-129.743
 15:31:54.959,eb:33:2e:f9:57:b5, 2085-97-192 255:06:00:2055,-0.029,0.002,1.002,-0.122,-0.427,0.183,1.071,2.126,-129.743
 15:31:54.959,eb:33:2e:f9:57:b5, 2085-97-189 255:01:00:2061,-0.034,0.001,1.006,-0.183,0.122,0.061,1.071,2.126,-129.738
 15:31:54.959,eb:33:2e:f9:57:b5, 2085-97-187 255:00:00:2060,-0.036,0,1.006,-0.305,0.61,0.061,1.071,2.131,-129.738
 15:31:54.959,eb:33:2e:f9:57:b5, 2085-97-184 255:00:00:2057,-0.036,0,1.005,-0.305,0.854,0,1.071,2.131,-129.738
 15:31:55.018,eb:33:2e:f9:57:b5, 2085-97-181 255:00:00:2053,-0.038,0,1.004,-0.366,0.916,-0.183,1.071,2.131,-129.738
 15:31:55.018,eb:33:2e:f9:57:b5, 2085-97-179 255:00:00:2049,-0.037,-0.001,1.001,-0.305,0.916,-0.244,1.071,2.131,-129.738
 15:31:55.018,eb:33:2e:f9:57:b5, 2085-97-184 255:02:00:2047,-0.036,0,1,-0.244,0.793,-0.366,1.071,2.137,-129.738
 15:31:55.018,eb:33:2e:f9:57:b5, 2085-97-183 255:01:00:2047,-0.038,0,1,-0.305,0.977,-0.305,1.071,2.137,-129.738
 15:31:55.020,eb:33:2e:f9:57:b5, 2085-97-178 255:00:00:2044,-0.038,0,0.998,-0.183,1.099,-0.183,1.071,2.137,-129.738
 15:31:55.020,eb:33:2e:f9:57:b5, 2085-97-176 255:02:00:2040,-0.038,0,0.999,-0.183,0.977,-0.122,1.071,2.137,-129.738
 15:31:55.020,eb:33:2e:f9:57:b5, 2085-97-177 255:03:00:2043,-0.038,0.001,0.997,-0.183,0.732,-0.122,1.071,2.142,-129.738
 15:31:55.020,eb:33:2e:f9:57:b5, 2085-97-180 255:01:00:2046,-0.038,0.001,0.999,-0.244,0.793,0,1.071,2.142,-129.738
 15:31:55.081,eb:33:2e:f9:57:b5, 2085-97-180 255:255:255:2051,-0.036,0,1,-0.305,0.671,-0.061,1.066,2.142,-129.738
 15:31:55.081,eb:33:2e:f9:57:b5, 2085-97-183 255:01:00:2050,-0.036,0,1.002,-0.244,0.61,-0.061,1.066,2.142,-129.738
 15:31:55.081,eb:33:2e:f9:57:b5, 2085-97-181 255:255:255:2045,-0.037,0.001,1,-0.305,0.732,0,1.066,2.142,-129.738
 15:31:55.081,eb:33:2e:f9:57:b5, 2085-97-179 255:250:255:2055,-0.037,0.001,1.001,-0.305,0.671,0,1.066,2.142,-129.738
 15:31:55.109,eb:33:2e:f9:57:b5, 2085-113-81 00:88:54:465,-0.039,-0.001,1.002,-0.305,0.61,0,1.066,2.148,-129.738
 15:31:55.109,eb:33:2e:f9:57:b5, 2085-97-176 255:254:255:2054,-0.039,-0.002,1.005,-0.244,0.549,0.061,1.066,2.148,-129.738
 15:31:55.109,eb:33:2e:f9:57:b5, 2085-97-174 255:249:255:2054,-0.042,-0.002,1.004,-0.183,0.366,0,1.066,2.148,-129.738
 15:31:55.109,eb:33:2e:f9:57:b5, 2085-97-169 255:251:255:2048,-0.042,-0.002,1,0,0,0,1.066,2.148,-129.738
 15:31:55.168,eb:33:2e:f9:57:b5, 2085-97-175 255:249:255:2056,-0.039,-0.002,1.002,0.061,-0.488,0,1.066,2.148,-129.738
 15:31:55.168,eb:33:2e:f9:57:b5, 2085-97-181 255:254:255:2058,-0.036,-0.001,1.003,0.244,-0.732,-0.061,1.066,2.153,-129.738
 15:31:55.168,eb:33:2e:f9:57:b5, 2085-97-178 255:255:255:2050,-0.037,-0.001,1.003,0.244,-0.61,-0.061,1.066,2.153,-129.738
 15:31:55.168,eb:33:2e:f9:57:b5, 2085-97-180 255:253:255:2055,-0.036,0,1.001,0.366,-0.793,-0.244,1.066,2.153,-129.738
 15:31:55.200,eb:33:2e:f9:57:b5, 2085-97-183 255:255:255:2053,-0.035,-0.001,1.004,0.366,-0.549,-0.183,1.066,2.153,-129.738
 15:31:55.200,eb:33:2e:f9:57:b5, 2085-97-184 255:00:00:2055,-0.036,-0.002,1.003,0.549,-0.305,0,1.06,2.159,-129.738
 15:31:55.208,eb:33:2e:f9:57:b5, 2085-97-179 255:01:00:2051,-0.038,0.001,1.003,0.427,0.122,0.122,1.06,2.159,-129.738
 15:31:55.208,eb:33:2e:f9:57:b5, 2085-97-177 255:01:00:2048,-0.038,0.001,1,0.305,0.244,0.061,1.06,2.159,-129.738
 15:31:55.230,eb:33:2e:f9:57:b5, 2085-97-180 255:00:00:2049,-0.037,0,1.001,0.305,0.122,0,1.06,2.159,-129.738
 15:31:55.230,eb:33:2e:f9:57:b5, 2085-97-182 255:03:00:2049,-0.039,0,1.001,0.305,0,-0.061,1.06,2.159,-129.738
 15:31:55.230,eb:33:2e:f9:57:b5, 2085-97-178 255:00:00:2045,-0.038,0,1,0.244,-0.061,0,1.06,2.159,-129.738
 15:31:55.230,eb:33:2e:f9:57:b5, 2085-97-176 255:01:00:2045,-0.038,0,0.999,0.305,-0.366,-0.122,1.06,2.164,-129.738
 15:31:55.289,eb:33:2e:f9:57:b5, 2085-97-179 255:02:00:2047,-0.036,0,1,0.488,-0.549,-0.122,1.06,2.164,-129.738
 15:31:55.289,eb:33:2e:f9:57:b5, 2085-97-180 255:02:00:2045,-0.037,0.002,1,0.305,-0.305,-0.122,1.06,2.164,-129.738
 15:31:55.289,eb:33:2e:f9:57:b5, 2085-97-185 255:02:00:2050,-0.037,0.001,1,0.244,-0.244,-0.122,1.06,2.164,-129.732
 15:31:55.289,eb:33:2e:f9:57:b5, 2085-97-183 255:02:00:2048,-0.036,0.001,1,0.244,-0.244,-0.183,1.055,2.17,-129.732
 15:31:55.319,eb:33:2e:f9:57:b5, 2085-97-180 255:02:00:2049,-0.037,0.001,1,0.244,-0.183,-0.183,1.055,2.17,-129.732
 15:31:55.319,eb:33:2e:f9:57:b5, 2085-97-180 255:01:00:2054,-0.038,0.001,1.001,0.183,-0.244,-0.183,1.055,2.17,-129.732
 15:31:55.319,eb:33:2e:f9:57:b5, 2085-97-178 255:00:00:2050,-0.04,0,1.003,0.122,-0.061,-0.061,1.055,2.17,-129.738
 15:31:55.319,eb:33:2e:f9:57:b5, 2085-97-177 255:03:00:2049,-0.038,0,1,0.183,-0.305,-0.122,1.055,2.175,-129.738
 15:31:55.350,eb:33:2e:f9:57:b5, 2085-97-180 255:02:00:2045,-0.037,0.001,1.001,0.244,-0.366,-0.183,1.055,2.175,-129.732
 15:31:55.350,eb:33:2e:f9:57:b5, 2085-97-183 255:01:00:2047,-0.035,0.001,0.998,0.244,-0.488,-0.305,1.055,2.175,-129.732
