Time,Device name,Chip Time(),Acceleration X(g),Acceleration Y(g),Acceleration Z(g),Angular velocity X(°/s),Angular velocity Y(°/s),Angular velocity Z(°/s),Angle X(°),Angle Y(°),Angle Z(°)
 15:30:48.806,eb:33:2e:f9:57:b5, 2085-97-102 02:136:00:7447,0.105,0.229,2.786,284.729,82.642,-273.987,51.625,18.627,-69.554
 15:30:48.806,eb:33:2e:f9:57:b5, 2085-97-92 00:87:250:6472,0.079,-0.326,3.567,307.617,75.684,-299.438,54.168,21.44,-70.796
 15:30:48.806,eb:33:2e:f9:57:b5, 2085-97-142 00:175:246:5502,-0.058,-1.053,2.859,309.082,66.895,-265.869,56.832,24.17,-71.971
 15:30:48.806,eb:33:2e:f9:57:b5, 2085-97-182 254:79:246:5430,-0.168,-1.172,2.618,278.992,84.839,-191.711,59.496,26.466,-72.598
 15:30:48.837,eb:33:2e:f9:57:b5, 2085-97-163 254:156:245:5916,-0.128,-1.25,2.77,246.399,110.84,-126.038,62.144,28.301,-72.526
 15:30:48.837,eb:33:2e:f9:57:b5, 2085-97-239 255:55:245:6511,0.255,-1.322,3.022,222.229,147.4,-61.401,64.847,29.691,-71.691
 15:30:48.837,eb:33:2e:f9:57:b5, 2085-97-77 04:58:245:6935,0.789,-1.36,3.343,212.402,211.975,-8.118,67.874,30.712,-69.95
 15:30:48.837,eb:33:2e:f9:57:b5, 2085-97-202 07:138:246:6337,1.113,-1.272,3.287,218.506,260.62,14.893,71.351,31.52,-67.297
 15:30:48.866,eb:33:2e:f9:57:b5, 2085-97-123 09:172:247:5398,1.138,-1.108,2.852,235.352,250.61,3.357,75.157,32.206,-64.352
 15:30:48.866,eb:33:2e:f9:57:b5, 2085-97-244 07:106:247:4859,0.913,-1.005,2.487,246.765,177.673,-31.494,78.843,32.855,-61.941
 15:30:48.866,eb:33:2e:f9:57:b5, 2085-97-165 05:02:243:4939,0.56,-1.231,2.336,234.558,66.711,-75.012,81.942,33.624,-60.699
 15:30:48.866,eb:33:2e:f9:57:b5, 2085-97-107 03:34:237:5081,0.428,-2.046,2.551,201.721,-21.423,-88.928,84.084,34.503,-60.716
 15:30:48.955,eb:33:2e:f9:57:b5, 2085-97-244 03:98:235:3871,0.612,-2.541,2.27,142.151,-11.047,-42.236,85.573,35.162,-61.122
 15:30:48.955,eb:33:2e:f9:57:b5, 2085-97-237 04:166:236:1490,0.583,-2.503,1.363,42.603,75.073,49.5,86.688,35.123,-60.699
 15:30:48.955,eb:33:2e:f9:57:b5, 2085-97-96 05:234:239:-493,0.872,-2.267,0.124,-74.646,125.732,133.057,87.242,34.217,-59.326
 15:30:48.955,eb:33:2e:f9:57:b5, 2085-97-169 08:01:246:-1695,1.364,-1.664,-0.504,-186.157,127.808,175.537,86.743,32.706,-57.673
 15:30:48.958,eb:33:2e:f9:57:b5, 2085-97-56 13:156:252:-2436,1.883,-0.813,-1.083,-275.757,71.289,156.799,85.067,31.097,-56.332
 15:30:48.958,eb:33:2e:f9:57:b5, 2085-97-159 15:35:00:-2288,2.136,-0.145,-1.146,-324.402,-25.146,87.158,82.161,29.916,-55.953
 15:30:48.958,eb:33:2e:f9:57:b5, 2085-97-53 17:53:00:-1874,2.081,0.006,-0.868,-323.975,-145.691,-16.785,78.409,29.46,-56.981
 15:30:48.958,eb:33:2e:f9:57:b5, 2085-97-160 14:110:254:-1747,1.603,-0.033,-0.953,-344.055,-247.009,-93.445,73.872,29.504,-59.414
 15:30:48.986,eb:33:2e:f9:57:b5, 2085-97-64 11:223:248:323,1.18,-0.554,-0.342,-398.315,-332.214,-164.124,68.346,29.767,-63.166
 15:30:48.986,eb:33:2e:f9:57:b5, 2085-97-159 07:08:246:1806,0.742,-1.12,0.538,-457.581,-328.003,-175.72,61.875,29.877,-67.522
 15:30:48.986,eb:33:2e:f9:57:b5, 2085-97-58 04:07:246:2772,0.401,-1.276,1.176,-496.704,-300.964,-166.87,55.058,29.658,-71.598
 15:30:48.986,eb:33:2e:f9:57:b5, 2085-97-234 02:127:246:3218,0.336,-1.207,1.468,-506.287,-300.598,-157.349,48.137,29.009,-75.438
 15:30:49.046,eb:33:2e:f9:57:b5, 2085-97-215 01:227:247:3201,0.16,-1.12,1.596,-497.131,-322.571,-140.564,41.402,27.806,-79.091
 15:30:49.046,eb:33:2e:f9:57:b5, 2085-97-237 00:65:249:3636,0.05,-0.925,1.622,-477.722,-375.671,-124.39,34.915,25.796,-82.661
 15:30:49.046,eb:33:2e:f9:57:b5, 2085-97-207 255:139:251:4585,-0.107,-0.731,1.972,-451.538,-415.039,-99.731,28.932,22.95,-85.957
 15:30:49.046,eb:33:2e:f9:57:b5, 2085-97-47 254:112:255:5533,-0.421,-0.32,2.507,-412.842,-416.992,-80.505,23.588,19.523,-88.753
 15:30:49.076,eb:33:2e:f9:57:b5, 2085-97-27 251:199:01:5617,-0.738,0.128,2.758,-368.896,-401.733,-77.942,19.034,15.969,-91.011
 15:30:49.076,eb:33:2e:f9:57:b5, 2085-97-67 250:10:01:5612,-0.639,0.205,2.715,-340.82,-383.667,-80.627,15.024,12.393,-92.95
 15:30:49.076,eb:33:2e:f9:57:b5, 2085-97-86 249:192:01:4914,-1.106,0.115,2.726,-335.449,-338.44,-73.242,11.382,9.047,-94.504
 15:30:49.076,eb:33:2e:f9:57:b5, 2085-97-83 245:129:03:4998,-1.562,0.376,2.256,-338.867,-354.37,-80.383,7.817,5.762,-95.784
 15:30:49.105,eb:33:2e:f9:57:b5, 2085-97-175 241:174:04:6008,-2.009,0.498,2.674,-334.656,-378.967,-76.843,4.367,2.148,-96.932
 15:30:49.105,eb:33:2e:f9:57:b5, 2085-97-63 238:243:07:6835,-2.381,0.749,3.167,-318.481,-374.023,-57.312,1.066,-1.631,-97.723
 15:30:49.105,eb:33:2e:f9:57:b5, 2085-97-222 235:70:12:7142,-2.658,1.262,3.449,-297.363,-344.91,-50.232,-1.967,-5.235,-98.163
 15:30:49.105,eb:33:2e:f9:57:b5, 2085-97-83 233:252:14:6903,-2.996,1.731,3.443,-282.227,-302.734,-62.073,-4.845,-8.514,-98.481
 15:30:49.167,eb:33:2e:f9:57:b5, 2085-97-01 231:31:17:7187,-3.163,2.025,3.395,-265.076,-247.62,-84.045,-7.509,-11.332,-98.882
 15:30:49.167,eb:33:2e:f9:57:b5, 2085-97-227 230:47:18:7115,-3.069,2.21,3.613,-241.943,-155.212,-102.173,-9.921,-13.486,-99.509
 15:30:49.167,eb:33:2e:f9:57:b5, 2085-97-67 232:94:19:5697,-2.818,2.359,3.176,-215.088,-28.442,-95.276,-11.986,-14.496,-100.349
 15:30:49.167,eb:33:2e:f9:57:b5, 2085-97-29 235:19:19:3850,-2.362,2.425,2.323,-165.771,39.795,-71.533,-13.683,-14.557,-101.223
 15:30:49.195,eb:33:2e:f9:57:b5, 2085-97-20 239:122:17:2216,-1.902,2.297,1.472,-88.989,42.725,-35.095,-14.771,-14.244,-101.871
 15:30:49.195,eb:33:2e:f9:57:b5, 2085-97-08 242:149:17:1127,-1.63,2.145,0.767,-5.249,-7.812,8.728,-15.172,-14.101,-102.03
 15:30:49.195,eb:33:2e:f9:57:b5, 2085-97-155 243:169:16:1479,-1.352,2.195,0.535,62.561,-75.989,27.649,-14.925,-14.491,-101.673
 15:30:49.195,eb:33:2e:f9:57:b5, 2085-97-148 246:136:246:14684,-1.244,1.663,2.189,126.343,-89.355,-23.56,-14.117,-15.348,-101.223
 15:30:49.285,eb:33:2e:f9:57:b5, 2085-97-12 248:178:08:5059,-0.551,3.313,3.415,294.8,248.901,44.556,-12.162,-12.881,-100.569
 15:30:49.285,eb:33:2e:f9:57:b5, 2085-97-222 255:195:14:3501,-3.755,4.568,-3.041,250.488,133.728,-70.557,-9.179,-9.91,-100.41
 15:30:49.286,eb:33:2e:f9:57:b5, 2085-97-140 247:123:14:721,1.648,-4.978,8.967,461.182,676.453,123.047,-5.916,-7.344,-100.975
 15:30:49.286,eb:33:2e:f9:57:b5, 2085-97-252 20:167:28:12353,-0.636,0.088,3.588,403.503,204.651,-18.494,-1.143,-3.719,-101.398
 15:30:49.286,eb:33:2e:f9:57:b5, 2085-97-151 200:128:05:-8759,-5.458,6.649,1.105,-3.113,780.64,61.829,0.544,1.489,-100.662
 15:30:49.286,eb:33:2e:f9:57:b5, 2085-97-80 05:73:247:6131,0.85,-1.32,-3.429,-24.048,-100.647,6.592,0.143,5.164,-99.734
 15:30:49.286,eb:33:2e:f9:57:b5, 2085-97-01 249:239:01:603,-1.863,-0.627,3.049,26.367,233.337,71.777,0.231,5.537,-99.745
 15:30:49.286,eb:33:2e:f9:57:b5, 2085-97-149 243:93:255:557,-0.64,-0.387,-0.114,37.292,77.454,30.64,0.577,7.07,-99.256
 15:30:49.315,eb:33:2e:f9:57:b5, 2085-97-24 250:151:253:2269,-0.741,-0.407,1.076,47.485,-16.296,4.333,1.005,7.097,-99.256
 15:30:49.315,eb:33:2e:f9:57:b5, 2085-97-148 251:153:254:2224,-0.25,-0.184,0.99,59.509,-35.278,12.329,1.571,6.916,-99.08
 15:30:49.315,eb:33:2e:f9:57:b5, 2085-97-184 255:98:255:2822,0.194,-0.051,1.227,57.495,-37.72,-2.38,2.181,6.498,-99.031
 15:30:49.315,eb:33:2e:f9:57:b5, 2085-97-158 01:233:02:2409,0.03,0.26,1.354,39.856,0.549,-6.409,2.675,6.361,-99.053
 15:30:49.376,eb:33:2e:f9:57:b5, 2085-97-135 00:169:00:1929,0.458,0.183,0.908,17.944,27.1,-17.212,2.922,6.592,-99.174
 15:30:49.376,eb:33:2e:f9:57:b5, 2085-97-254 08:34:06:2691,0.697,0.137,1.452,19.104,44.678,-13.611,3.087,6.927,-99.355
 15:30:49.376,eb:33:2e:f9:57:b5, 2085-97-162 04:220:10:183,-0.104,0.044,1.548,11.353,74.829,9.827,3.126,7.52,-99.514
 15:30:49.376,eb:33:2e:f9:57:b5, 2085-97-27 255:206:05:-052,-0.275,-0.157,0.794,-10.742,0.732,-9.155,3.054,7.668,-99.8
 15:30:49.406,eb:33:2e:f9:57:b5, 2085-97-234 251:99:245:4725,-1.459,-0.418,1.311,-26.489,-106.995,9.949,2.78,6.938,-100.042
 15:30:49.406,eb:33:2e:f9:57:b5, 2085-97-128 252:189:244:9350,-0.63,-1.349,3.071,59.082,-95.215,86.975,2.999,5.977,-99.119
 15:30:49.406,eb:33:2e:f9:57:b5, 2085-97-35 251:111:250:4371,-0.211,-1.607,3.656,179.565,-37.842,85.754,4.296,5.262,-98.569
 15:30:49.406,eb:33:2e:f9:57:b5, 2085-97-250 255:201:253:3458,0.016,-0.402,1.417,228.943,-99.243,34.241,6.405,4.614,-98.042
 15:30:49.436,eb:33:2e:f9:57:b5, 2085-97-159 255:197:249:5353,0.131,-0.56,2.26,282.776,-155.762,-41.382,8.959,3.252,-98.322
 15:30:49.436,eb:33:2e:f9:57:b5, 2085-97-165 255:26:248:5833,0.136,-0.919,2.615,329.651,-124.634,-64.758,12.019,1.978,-99.119
 15:30:49.436,eb:33:2e:f9:57:b5, 2085-97-37 02:01:247:6103,0.588,-1.065,2.982,372.437,-42.603,-58.35,15.535,1.34,-99.904
 15:30:49.436,eb:33:2e:f9:57:b5, 2085-97-213 06:77:251:5749,1.023,-0.791,2.972,401.794,45.593,-37.292,19.44,1.516,-100.311
 15:30:49.497,eb:33:2e:f9:57:b5, 2085-97-27 06:121:03:3475,0.531,0.173,2.177,392.517,130.859,-35.583,23.439,2.527,-100.267
 15:30:49.497,eb:33:2e:f9:57:b5, 2085-97-77 03:113:04:2488,0.366,0.253,1.25,341.858,157.898,-42.786,27.065,4.098,-100.058
 15:30:49.497,eb:33:2e:f9:57:b5, 2085-97-198 02:131:13:3506,0.204,1.15,1.259,319.336,183.838,-58.167,30.355,5.817,-99.613
 15:30:49.497,eb:33:2e:f9:57:b5, 2085-97-37 03:53:09:5894,0.604,1.354,2.571,325.439,251.953,-111.816,33.607,8.097,-99.305
 15:30:49.497,eb:33:2e:f9:57:b5, 2085-97-172 06:32:09:3809,0.829,1.167,2.784,385.315,364.075,-101.379,37.31,11.332,-98.344
 15:30:49.526,eb:33:2e:f9:57:b5, 2085-113-58 00:168:223:-4800,0.841,1.834,-0.144,419.556,206.97,-196.716,41.671,14.59,-97.421
 15:30:49.526,eb:33:2e:f9:57:b5, 2085-97-45 09:189:06:-2168,1.232,1.659,-1.276,363.403,86.975,-258.545,43.478,15.903,-97.91
 15:30:49.526,eb:33:2e:f9:57:b5, 2085-97-118 07:182:02:2775,0.501,0.738,-0.018,271.057,3.723,-221.252,46.126,17.732,-99.432
 15:30:49.526,eb:33:2e:f9:57:b5, 2085-97-25 02:126:253:5527,0.208,-0.062,2.304,259.399,3.357,-249.573,48.186,19.44,-101.118
 15:30:49.557,eb:33:2e:f9:57:b5, 2085-97-236 00:23:250:5090,0.045,-0.502,2.658,274.597,-8.667,-262.573,50.229,21.385,-102.975
 15:30:49.557,eb:33:2e:f9:57:b5, 2085-97-175 255:136:246:5170,-0.111,-0.989,2.459,270.264,-22.278,-236.145,52.262,23.203,-104.87
 15:30:49.557,eb:33:2e:f9:57:b5, 2085-97-36 255:233:244:5594,-0.096,-1.305,2.61,250.732,21.851,-162.781,54.311,24.758,-106.221
 15:30:49.557,eb:33:2e:f9:57:b5, 2085-97-38 255:95:245:5723,-0.039,-1.386,2.785,231.689,99.609,-77.698,56.656,26.076,-106.364
 15:30:49.615,eb:33:2e:f9:57:b5, 2085-97-217 00:211:246:5854,0.306,-1.252,2.846,213.074,162.72,-8.85,59.288,27.12,-105.37
 15:30:49.615,eb:33:2e:f9:57:b5, 2085-97-29 04:210:249:5560,0.709,-0.973,2.797,191.956,244.507,41.565,62.281,27.966,-103.217
 15:30:49.615,eb:33:2e:f9:57:b5, 2085-97-224 06:181:253:5074,0.95,-0.526,2.609,182.556,281.982,42.114,65.5,28.784,-100.261
 15:30:49.615,eb:33:2e:f9:57:b5, 2085-97-70 08:113:255:4550,1.151,-0.124,2.32,191.956,246.582,-10.193,68.747,29.707,-97.377
 15:30:49.645,eb:33:2e:f9:57:b5, 2085-97-58 09:12:254:4676,0.869,-0.107,2.23,206.665,178.833,-87.341,71.735,30.938,-95.356
 15:30:49.645,eb:33:2e:f9:57:b5, 2085-97-103 05:240:248:4809,0.36,-0.518,2.266,207.153,108.215,-158.569,74.405,32.585,-94.219
 15:30:49.645,eb:33:2e:f9:57:b5, 2085-97-25 01:78:240:4534,-0.022,-1.341,2.251,176.941,41.382,-195.801,76.432,34.547,-93.994
 15:30:49.645,eb:33:2e:f9:57:b5, 2085-97-49 255:165:235:3049,-0.083,-2.407,1.957,120.728,21.545,-161.926,77.767,36.414,-94.263
 15:30:49.677,eb:33:2e:f9:57:b5, 2085-97-155 255:41:236:1431,-0.084,-2.535,1.083,26.672,78.491,-45.898,78.635,37.513,-93.966
 15:30:49.677,eb:33:2e:f9:57:b5, 2085-97-85 00:08:238:092,0.433,-2.419,0.309,-85.022,133.423,80.2,79.146,37.491,-92.527
 15:30:49.677,eb:33:2e:f9:57:b5, 2085-97-06 06:226:242:-486,0.865,-1.897,-0.076,-180.603,158.63,168.152,78.97,36.458,-90.385
 15:30:49.677,eb:33:2e:f9:57:b5, 2085-97-167 10:251:250:-2118,1.717,-1.13,-0.791,-241.333,116.699,195.251,78.091,34.871,-88.182
 15:30:49.736,eb:33:2e:f9:57:b5, 2085-97-204 15:218:01:-2776,2.029,-0.175,-1.21,-286.682,18.372,145.447,76.08,33.409,-86.957
 15:30:49.736,eb:33:2e:f9:57:b5, 2085-97-158 16:154:01:-2079,2.048,0.309,-1.288,-314.209,-126.648,52.917,72.839,32.283,-87.319
 15:30:49.736,eb:33:2e:f9:57:b5, 2085-97-97 15:220:255:-774,1.752,0.095,-0.682,-331.848,-235.596,-42.175,68.461,31.641,-89.484
 15:30:49.736,eb:33:2e:f9:57:b5, 2085-97-97 12:225:252:161,1.372,-0.204,-0.118,-379.211,-276.306,-111.084,63.27,31.278,-92.675
 15:30:49.796,eb:33:2e:f9:57:b5, 2085-97-121 09:76:250:1088,0.989,-0.539,0.28,-446.472,-282.227,-155.212,57.211,31.031,-96.334
 15:30:49.796,eb:33:2e:f9:57:b5, 2085-97-00 06:162:247:2068,0.539,-0.899,0.805,-489.136,-286.316,-179.138,50.543,30.685,-100.151
 15:30:49.796,eb:33:2e:f9:57:b5, 2085-97-105 03:79:246:2749,0.396,-1.142,1.167,-486.389,-307.678,-179.321,43.643,29.938,-104.09
 15:30:49.796,eb:33:2e:f9:57:b5, 2085-97-223 02:163:246:3056,0.309,-1.235,1.47,-458.252,-334.656,-158.203,37.079,28.526,-107.919
 15:30:49.797,eb:33:2e:f9:57:b5, 2085-97-50 02:19:248:3414,0.252,-1.061,1.522,-426.514,-381.348,-131.104,31.02,26.296,-111.489
 15:30:49.797,eb:33:2e:f9:57:b5, 2085-97-208 01:198:248:4188,0.188,-0.952,1.86,-398.254,-419.617,-106.018,25.593,23.242,-114.681
 15:30:49.797,eb:33:2e:f9:57:b5, 2085-97-08 01:51:251:4898,0.048,-0.785,2.215,-373.779,-421.326,-78.491,20.759,19.655,-117.323
 15:30:49.797,eb:33:2e:f9:57:b5, 2085-97-48 255:101:254:5082,-0.292,-0.384,2.519,-344.36,-403.381,-69.397,16.573,15.952,-119.35
 15:30:49.856,eb:33:2e:f9:57:b5, 2085-97-46 252:68:254:4846,-0.62,-0.137,2.37,-323.486,-406.128,-78.125,12.805,12.2,-121.102
 15:30:49.856,eb:33:2e:f9:57:b5, 2085-97-131 249:30:253:5383,-1.001,-0.336,2.522,-321.716,-404.602,-65.491,9.344,8.311,-122.58
 15:30:49.856,eb:33:2e:f9:57:b5, 2085-97-02 247:201:255:5162,-1.203,-0.25,2.598,-333.496,-391.296,-33.936,5.927,4.422,-123.541
 15:30:49.856,eb:33:2e:f9:57:b5, 2085-97-12 246:133:03:5929,-1.328,0.235,2.609,-358.948,-397.949,-10.315,2.439,0.494,-123.975
 15:30:49.886,eb:33:2e:f9:57:b5, 2085-97-139 244:147:07:6882,-1.491,0.676,3.177,-362.244,-377.686,3.052,-1.236,-3.411,-123.986
 15:30:49.886,eb:33:2e:f9:57:b5, 2085-97-72 243:174:13:7241,-1.764,1.303,3.496,-334.412,-339.233,-2.319,-4.746,-6.965,-123.717
 15:30:49.886,eb:33:2e:f9:57:b5, 2085-97-73 240:188:17:7248,-2.192,2.044,3.529,-297.546,-320.007,-45.532,-7.96,-10.261,-123.525
 15:30:49.886,eb:33:2e:f9:57:b5, 2085-97-146 236:251:16:7360,-2.671,2.216,3.567,-261.292,-294.189,-103.882,-10.679,-13.436,-123.75
 15:30:49.916,eb:33:2e:f9:57:b5, 2085-97-48 233:150:16:7535,-2.926,2.046,3.638,-236.084,-231.506,-131.531,-13.002,-16.287,-124.387
 15:30:49.916,eb:33:2e:f9:57:b5, 2085-97-18 233:43:19:7802,-2.679,2.185,3.778,-204.102,-125.732,-119.507,-14.963,-18.325,-125.211
 15:30:49.916,eb:33:2e:f9:57:b5, 2085-97-155 236:217:23:5781,-2.201,2.703,3.49,-136.719,-4.883,-81.116,-16.408,-19.149,-126.041
 15:30:49.916,eb:33:2e:f9:57:b5, 2085-97-145 239:65:26:2610,-1.954,3.156,2.041,-54.199,30.945,-48.523,-17.089,-19.111,-126.738
 15:30:50.006,eb:33:2e:f9:57:b5, 2085-97-204 240:70:26:1072,-1.862,3.307,0.747,31.067,-42.419,-34.058,-17.045,-19.265,-127.117
 15:30:50.006,eb:33:2e:f9:57:b5, 2085-97-96 241:06:25:1484,-4.878,3.241,0.543,97.168,-136.963,-38.147,-16.337,-20.286,-127.156
 15:30:50.006,eb:33:2e:f9:57:b5, 2085-97-243 231:15:38:8869,-2.117,-2.092,9.222,178.589,227.661,232.849,-15.084,-20.984,-127.09
 15:30:50.006,eb:33:2e:f9:57:b5, 2085-97-254 255:59:33:-7768,0.93,0.704,2.592,425.293,428.284,263.062,-11.975,-17.507,-125.942
 15:30:50.006,eb:33:2e:f9:57:b5, 2085-97-49 04:82:250:15236,-0.444,0.579,5.609,376.709,294.25,8.362,-8.674,-15.271,-125.799
 15:30:50.006,eb:33:2e:f9:57:b5, 2085-97-206 246:25:254:4909,1.084,-0.22,2.551,494.812,391.968,-54.321,-3.549,-10.388,-126.524
 15:30:50.006,eb:33:2e:f9:57:b5, 2085-97-191 00:01:46:3504,-3.942,4.957,2.822,222.046,251.526,-13.306,0.39,-7.916,-126.81
 15:30:50.006,eb:33:2e:f9:57:b5, 2085-97-193 217:18:235:-3189,-2.321,0.31,-0.707,-24.963,440.43,46.448,0.786,-3.851,-126.777
 15:30:50.035,eb:33:2e:f9:57:b5, 2085-97-111 255:250:255:3566,-0.203,-0.728,-0.157,42.114,5.859,-2.625,0.928,-2.104,-126.458
 15:30:50.035,eb:33:2e:f9:57:b5, 2085-97-94 255:117:02:1116,-0.506,0.152,0.877,37.109,93.201,44.922,1.357,-1.401,-126.227
 15:30:50.035,eb:33:2e:f9:57:b5, 2085-97-188 248:112:02:148,-0.507,0.066,0.319,33.081,76.599,29.541,1.692,-0.544,-125.936
 15:30:50.035,eb:33:2e:f9:57:b5, 2085-97-212 00:34:254:3052,0.221,-0.112,0.756,30.64,-20.325,-7.935,1.983,-0.439,-125.881
 15:30:50.096,eb:33:2e:f9:57:b5, 2085-97-101 254:204:255:2278,-0.438,-0.22,1.585,45.41,24.597,6.714,2.373,-0.412,-125.903
 15:30:50.096,eb:33:2e:f9:57:b5, 2085-113-58 00:97:234:-675,-0.175,0.094,0.776,43.579,10.193,1.892,2.834,-0.176,-125.821
 15:30:50.096,eb:33:2e:f9:57:b5, 2085-97-46 01:199:00:2215,0.239,0.095,0.908,40.283,0.671,-2.869,3.038,-0.159,-125.826
 15:30:50.096,eb:33:2e:f9:57:b5, 2085-97-189 00:37:01:2439,0.126,0.122,1.181,33.997,14.465,-8.24,3.411,-0.077,-125.892
 15:30:50.126,eb:33:2e:f9:57:b5, 2085-97-05 01:62:01:2454,-0.112,0.312,1.113,21.667,32.593,-19.592,3.691,0.192,-125.991
 15:30:50.126,eb:33:2e:f9:57:b5, 2085-97-169 252:166:253:2147,-0.292,-0.028,1.068,10.193,56.763,-12.756,3.84,0.703,-126.118
 15:30:50.126,eb:33:2e:f9:57:b5, 2085-97-38 01:188:255:2812,0.409,-0.009,1.055,4.761,41.992,-8.606,3.928,1.225,-126.156
 15:30:50.126,eb:33:2e:f9:57:b5, 2085-97-141 04:246:04:1226,0.453,0.257,1.123,4.578,32.715,3.418,3.988,1.62,-126.123
 15:30:50.218,eb:33:2e:f9:57:b5, 2085-97-117 01:73:02:703,0.119,0.604,0.801,-13.245,-20.508,-45.349,3.983,1.637,-126.315
 15:30:50.218,eb:33:2e:f9:57:b5, 2085-97-24 02:162:252:3165,-0.304,1.041,-0.016,-37.964,-107.91,-82.886,3.752,1.225,-126.672
 15:30:50.218,eb:33:2e:f9:57:b5, 2085-97-141 244:147:240:9606,-1.101,-1.18,2.352,-39.124,-44.983,122.803,3.334,0.423,-126.59
 15:30:50.218,eb:33:2e:f9:57:b5, 2085-97-198 252:30:248:4913,0.36,-2.417,5.13,119.08,11.841,97.046,3.664,0.209,-125.612
 15:30:50.218,eb:33:2e:f9:57:b5, 2085-97-114 03:171:00:3045,0.258,0.189,0.652,203.857,-116.76,53.528,5.405,-0.203,-124.794
 15:30:50.218,eb:33:2e:f9:57:b5, 2085-97-134 00:104:247:6125,0.153,-0.625,2.488,245.422,-161.743,-23.743,7.674,-1.796,-124.926
 15:30:50.218,eb:33:2e:f9:57:b5, 2085-97-151 02:44:253:4407,0.565,-0.909,2.687,295.837,-80.872,-12.634,10.393,-2.895,-125.255
 15:30:50.218,eb:33:2e:f9:57:b5, 2085-97-79 04:171:252:4572,0.435,-0.215,2.018,349.976,-81.909,-83.801,13.733,-3.56,-125.876
 15:30:50.246,eb:33:2e:f9:57:b5, 2085-97-143 07:185:252:5464,0.852,-0.742,2.639,358.276,12.451,-86.731,17.358,-3.68,-126.92
 15:30:50.246,eb:33:2e:f9:57:b5, 2085-97-179 05:126:02:4316,0.664,0.103,2.415,369.812,82.458,-71.289,21.072,-2.922,-127.403
 15:30:50.246,eb:33:2e:f9:57:b5, 2085-97-149 08:79:04:3442,0.999,0.277,1.912,359.985,85.205,-91.492,24.714,-1.758,-127.87
 15:30:50.246,eb:33:2e:f9:57:b5, 2085-97-159 07:71:10:2215,0.923,0.964,0.97,337.524,80.444,-115.601,28.224,-0.555,-128.397
 15:30:50.276,eb:33:2e:f9:57:b5, 2085-97-61 06:210:06:4539,0.553,0.858,1.835,321.35,108.337,-157.837,31.454,0.945,-129.271
 15:30:50.276,eb:33:2e:f9:57:b5, 2085-97-225 05:197:06:4950,0.806,1.042,2.236,362.732,164.124,-163.818,34.865,2.994,-129.76
 15:30:50.276,eb:33:2e:f9:57:b5, 2085-97-38 07:224:07:3884,1.251,0.787,2.255,425.659,202.759,-174.622,38.782,5.499,-130.062
 15:30:50.276,eb:33:2e:f9:57:b5, 2085-97-155 08:29:15:-722,1.127,1.446,0.704,495.483,28.442,-268.372,43.385,8.004,-130.798
 15:30:50.337,eb:33:2e:f9:57:b5, 2085-97-42 09:44:03:469,0.947,0.963,-0.602,378.906,-153.503,-381.226,47.28,9.855,-133.962
 15:30:50.337,eb:33:2e:f9:57:b5, 2085-97-06 04:157:254:4028,0.299,0.245,1.109,278.931,-166.199,-378.052,49.796,11.486,-137.802
 15:30:50.337,eb:33:2e:f9:57:b5, 2085-97-27 01:163:248:6491,0.011,-0.612,2.801,244.08,-101.501,-392.395,51.592,13.601,-141.427
 15:30:50.337,eb:33:2e:f9:57:b5, 2085-97-87 255:194:245:5876,-0.175,-1.146,3.134,232.666,-14.954,-353.455,53.256,16.199,-144.267
 15:30:50.396,eb:33:2e:f9:57:b5, 2085-97-180 253:165:245:4817,-0.385,-1.316,2.562,205.811,54.077,-286.316,54.932,18.896,-146.041
 15:30:50.396,eb:33:2e:f9:57:b5, 2085-97-136 252:146:246:5365,-0.42,-1.25,2.364,172.974,96.924,-211.67,56.508,21.357,-146.854
 15:30:50.396,eb:33:2e:f9:57:b5, 2085-97-05 253:175:245:6625,-0.176,-1.155,2.974,163.208,148.193,-142.395,58.189,23.472,-146.772
 15:30:50.396,eb:33:2e:f9:57:b5, 2085-97-224 255:171:244:6956,0.171,-1.384,3.421,182.19,207.153,-80.139,60.315,25.329,-145.723
 15:30:50.426,eb:33:2e:f9:57:b5, 2085-97-45 02:212:245:6029,0.286,-1.352,3.165,203.125,248.23,-32.654,63.116,26.917,-143.751
 15:30:50.426,eb:33:2e:f9:57:b5, 2085-97-00 02:210:245:5634,0.133,-1.225,2.804,204.285,226.868,-21.301,66.187,28.202,-141.449
 15:30:50.426,eb:33:2e:f9:57:b5, 2085-97-181 00:41:242:5242,0.091,-1.453,2.678,184.387,151.062,-29.907,69.016,29.185,-139.598
 15:30:50.426,eb:33:2e:f9:57:b5, 2085-97-196 00:03:238:4266,0.062,-2.075,2.394,141.602,88.379,-21.362,71.12,29.855,-138.532
 15:30:50.456,eb:33:2e:f9:57:b5, 2085-97-205 00:23:238:3466,0.135,-2.24,1.793,78.247,86.243,35.217,72.658,30.048,-137.609
 15:30:50.456,eb:33:2e:f9:57:b5, 2085-97-32 01:195:238:2610,0.176,-2.239,1.557,8.972,114.136,102.051,73.674,29.674,-136.263
 15:30:50.456,eb:33:2e:f9:57:b5, 2085-97-17 02:229:241:988,0.446,-2.003,0.92,-51.147,112.732,147.583,74.246,28.768,-134.566
 15:30:50.456,eb:33:2e:f9:57:b5, 2085-97-232 05:65:246:-355,1.059,-1.491,0.078,-109.497,92.102,158.875,74.114,27.576,-132.979
 15:30:50.486,eb:33:2e:f9:57:b5, 2085-97-77 10:125:251:-1116,1.515,-0.914,-0.315,-174.561,58.044,139.465,73.235,26.334,-131.693
 15:30:50.486,eb:33:2e:f9:57:b5, 2085-97-233 12:187:254:-1652,1.72,-0.332,-0.666,-237.122,10.864,80.933,71.389,25.417,-131.006
 15:30:50.486,eb:33:2e:f9:57:b5, 2085-97-35 14:239:00:-2131,1.746,-0.01,-0.917,-283.264,-48.767,-2.991,68.73,24.999,-131.067
 15:30:50.486,eb:33:2e:f9:57:b5, 2085-97-113 13:27:00:-1965,1.587,0.125,-1.084,-321.777,-138.672,-97.778,65.127,25.12,-132.314
 15:30:50.517,eb:33:2e:f9:57:b5, 2085-97-163 11:46:253:-950,1.285,-0.175,-0.707,-358.032,-216.675,-176.392,60.634,25.516,-134.863
 15:30:50.517,eb:33:2e:f9:57:b5, 2085-97-178 08:141:250:-050,0.887,-0.525,-0.24,-396.912,-253.052,-217.712,55.327,25.917,-138.329
 15:30:50.517,eb:33:2e:f9:57:b5, 2085-97-146 05:174:248:867,0.535,-0.81,0.183,-427.002,-269.287,-230.713,49.521,26.065,-142.163
 15:30:50.517,eb:33:2e:f9:57:b5, 2085-97-113 03:182:247:1819,0.367,-0.998,0.671,-431.396,-281.433,-222.473,43.451,25.757,-146.146
 15:30:50.576,eb:33:2e:f9:57:b5, 2085-97-106 02:95:248:2250,0.195,-1.017,1.052,-411.377,-291.931,-198.73,37.634,24.895,-149.941
 15:30:50.576,eb:33:2e:f9:57:b5, 2085-97-151 00:240:248:2283,-0.027,-0.879,1.06,-381.47,-332.336,-174.5,32.195,23.34,-153.545
 15:30:50.576,eb:33:2e:f9:57:b5, 2085-97-248 254:220:247:2716,-0.25,-0.967,1.201,-356.14,-382.08,-138.794,27.296,20.923,-156.89
 15:30:50.576,eb:33:2e:f9:57:b5, 2085-97-28 253:223:248:3343,-0.398,-1.008,1.5,-345.886,-392.334,-88.013,22.841,17.803,-159.692
 15:30:50.638,eb:33:2e:f9:57:b5, 2085-97-50 253:07:251:3691,-0.228,-0.759,1.729,-342.346,-377.563,-41.931,18.875,14.392,-161.653
 15:30:50.638,eb:33:2e:f9:57:b5, 2085-97-162 254:140:254:3681,-0.167,-0.445,1.835,-347.412,-352.356,-12.573,15.106,10.948,-162.949
 15:30:50.638,eb:33:2e:f9:57:b5, 2085-97-78 254:177:03:4059,-0.312,0.152,1.821,-353.638,-351.318,-14.587,11.459,7.553,-163.806
 15:30:50.638,eb:33:2e:f9:57:b5, 2085-97-29 252:132:06:4762,-0.699,0.725,2.186,-348.816,-361.023,-48.096,7.817,4.054,-164.685
 15:30:50.638,eb:33:2e:f9:57:b5, 2085-97-99 248:202:05:4949,-1.172,0.797,2.391,-340.088,-343.811,-69.275,4.345,0.577,-165.624
 15:30:50.638,eb:33:2e:f9:57:b5, 2085-97-107 245:252:06:5340,-1.404,0.733,2.495,-324.402,-312.866,-54.382,0.994,-2.681,-166.371
 15:30:50.638,eb:33:2e:f9:57:b5, 2085-97-68 244:202:11:5586,-1.551,1.122,2.691,-302.063,-286.926,-34.79,-2.098,-5.663,-166.718
 15:30:50.638,eb:33:2e:f9:57:b5, 2085-97-214 242:75:17:6027,-1.801,1.85,2.78,-274.414,-291.199,-40.222,-4.999,-8.558,-166.849
 15:30:50.696,eb:33:2e:f9:57:b5, 2085-97-73 240:206:19:6691,-2.166,2.38,3.113,-235.962,-307.922,-70.068,-7.509,-11.624,-167.02
 15:30:50.696,eb:33:2e:f9:57:b5, 2085-97-172 236:160:20:7271,-2.688,2.538,3.425,-192.566,-296.936,-93.445,-9.586,-14.782,-167.366
 15:30:50.696,eb:33:2e:f9:57:b5, 2085-97-07 233:159:21:7129,-2.928,2.646,3.56,-146.667,-257.751,-95.154,-11.14,-17.693,-167.767
 15:30:50.696,eb:33:2e:f9:57:b5, 2085-97-221 232:112:22:6364,-2.792,2.741,3.313,-94.482,-183.594,-71.045,-12.239,-20.023,-168.135
 15:30:50.726,eb:33:2e:f9:57:b5, 2085-97-74 235:05:24:5085,-2.347,2.897,2.854,-24.109,-103.638,-31.799,-12.755,-21.484,-168.289
 15:30:50.726,eb:33:2e:f9:57:b5, 2085-97-17 236:40:17:11078,-2.247,3.057,1.934,51.575,-67.932,-15.381,-12.59,-22.28,-168.3
 15:30:50.726,eb:33:2e:f9:57:b5, 2085-97-171 242:02:244:15517,-2.95,2.439,0.98,202.637,294.067,163.757,-11.646,-21.083,-167.822
 15:30:50.726,eb:33:2e:f9:57:b5, 2085-113-58 00:116:230:-2550,-0.412,2.787,-0.355,457.642,264.648,99.915,-7.866,-18.094,-167.948
 15:30:50.726,eb:33:2e:f9:57:b5, 2085-97-255 10:128:15:9839,0.381,5.668,-2.769,374.878,-19.043,-109.985,-5.757,-17.6,-168.058
 15:30:50.786,eb:33:2e:f9:57:b5, 2085-97-187 02:198:252:4988,1.235,1.446,6.787,400.33,581.543,-53.223,-1.549,-14.689,-168.926
 15:30:50.786,eb:33:2e:f9:57:b5, 2085-97-24 250:121:26:3897,-3.64,2.233,4.214,192.017,404.846,56.885,1.434,-10.239,-168.942
 15:30:50.786,eb:33:2e:f9:57:b5, 2085-97-109 224:29:251:-3209,-1.301,1.216,-1.495,19.775,409.058,34.363,2.104,-5.438,-168.245
 15:30:50.786,eb:33:2e:f9:57:b5, 2085-97-136 09:199:03:4402,0.788,-1.473,0.704,50.72,76.599,-9.338,2.422,-3.691,-168.354
 15:30:50.817,eb:33:2e:f9:57:b5, 2085-97-175 250:159:00:394,-1.449,0.667,1.368,32.227,188.416,11.536,2.845,-2.362,-168.3
 15:30:50.817,eb:33:2e:f9:57:b5, 2085-97-44 245:206:00:162,-0.485,-0.025,-0.188,23.438,111.572,15.503,3.109,-0.802,-168.058
 15:30:50.817,eb:33:2e:f9:57:b5, 2085-97-54 01:149:253:3408,-0.133,-0.045,1.029,23.926,25.574,-9.216,3.323,-0.297,-168.058
 15:30:50.817,eb:33:2e:f9:57:b5, 2085-97-161 252:198:255:1952,-0.362,-0.245,1.349,37.72,51.147,14.893,3.631,0.132,-167.943
 15:30:50.846,eb:33:2e:f9:57:b5, 2085-97-201 254:108:01:2390,-0.094,-0.12,1.111,38.818,35.034,-0.916,4.021,0.5,-167.915
 15:30:50.846,eb:33:2e:f9:57:b5, 2085-97-245 251:50:255:1544,-0.537,0.125,1.071,19.775,45.654,7.263,4.296,0.89,-167.844
 15:30:50.846,eb:33:2e:f9:57:b5, 2085-97-46 254:209:00:2002,0.321,-0.134,0.881,12.817,25.208,5.92,4.438,1.236,-167.728
 15:30:50.846,eb:33:2e:f9:57:b5, 2085-97-163 05:234:00:3194,0.438,0.229,1.194,3.113,21.79,-8.362,4.515,1.467,-167.712
 15:30:50.905,eb:33:2e:f9:57:b5, 2085-97-72 02:94:02:1520,0.668,0.202,1.319,2.258,25.024,7.446,4.521,1.807,-167.657
 15:30:50.905,eb:33:2e:f9:57:b5, 2085-97-211 05:38:03:1301,0.59,1.367,0.05,4.333,-92.834,-49.805,4.631,1.544,-167.668
 15:30:50.905,eb:33:2e:f9:57:b5, 2085-97-147 247:116:247:4634,-1.288,-0.32,1.375,14.587,-157.104,85.632,4.691,0.242,-167.717
 15:30:50.905,eb:33:2e:f9:57:b5, 2085-97-203 246:104:231:12252,-0.33,-1.683,5.732,80.688,-107.971,17.334,5.12,-1.285,-166.794
 15:30:50.936,eb:33:2e:f9:57:b5, 2085-97-189 04:248:02:1513,0.483,-0.737,2.003,211.731,-26.794,79.956,6.735,-1.511,-166.025
 15:30:50.936,eb:33:2e:f9:57:b5, 2085-97-135 02:127:249:5379,0.035,0.123,1.566,272.766,-193.726,-80.872,9.234,-2.829,-166.267
 15:30:50.936,eb:33:2e:f9:57:b5, 2085-97-113 01:128:250:5695,0.588,-1.108,3.31,315.552,-110.168,-76.538,12.261,-4.279,-167.415
 15:30:50.936,eb:33:2e:f9:57:b5, 2085-97-193 05:190:252:3776,0.596,-0.187,1.722,368.042,-69.702,-99.67,15.826,-4.785,-168.338
 15:30:50.966,eb:33:2e:f9:57:b5, 2085-97-219 02:234:246:6880,0.827,-0.774,2.537,397.888,-42.419,-126.892,19.786,-5.043,-169.689
 15:30:50.966,eb:33:2e:f9:57:b5, 2085-97-122 05:96:250:6288,0.912,-0.993,3.281,440.369,68.909,-75.439,24.055,-4.477,-170.508
 15:30:50.966,eb:33:2e:f9:57:b5, 2085-97-200 09:161:255:5661,1.356,-0.323,3.007,448.059,157.593,-64.392,28.515,-3.115,-170.629
 15:30:50.966,eb:33:2e:f9:57:b5, 2085-97-155 08:204:04:2537,0.806,-0.086,2.148,430.481,234.619,-49.5,32.899,-1.06,-170.096
 15:30:51.026,eb:33:2e:f9:57:b5, 2085-97-250 05:98:09:2884,0.405,0.747,1.012,383.545,205.017,-109.436,36.931,1.258,-169.431
 15:30:51.026,eb:33:2e:f9:57:b5, 2085-97-16 02:66:05:6191,0.11,1.106,2.291,359.253,230.835,-167.725,40.616,3.735,-169.266
 15:30:51.026,eb:33:2e:f9:57:b5, 2085-97-103 01:84:255:6545,0.523,0.454,3.208,411.072,343.872,-127.075,44.5,6.954,-168.349
 15:30:51.026,eb:33:2e:f9:57:b5, 2085-97-87 02:77:07:-271,0.187,-0.707,2.892,539.734,393.494,-30.64,49.581,10.184,-166.234
 15:30:51.057,eb:33:2e:f9:57:b5, 2085-97-43 07:202:11:-5479,1.067,2.882,-2.887,465.454,47.119,-156.921,55.173,12.299,-164.866
 15:30:51.057,eb:33:2e:f9:57:b5, 2085-97-159 05:57:06:109,-0.058,0.923,-1.322,282.776,-42.419,-104.675,58.579,13.167,-165.811
 15:30:51.057,eb:33:2e:f9:57:b5, 2085-97-240 252:97:02:6596,-0.614,0.491,1.567,219.788,-57.739,-120.483,60.672,13.876,-166.783
 15:30:51.057,eb:33:2e:f9:57:b5, 2085-97-122 250:33:254:9053,-0.677,-0.014,4.211,263.489,-46.692,-169.495,62.765,14.936,-168.03
 15:30:51.086,eb:33:2e:f9:57:b5, 2085-97-175 250:158:251:7261,-0.717,-0.423,3.997,300.842,5.188,-162.598,65.369,16.37,-169.014
 15:30:51.086,eb:33:2e:f9:57:b5, 2085-97-244 249:147:251:6924,-0.702,-0.57,3.349,295.776,57.617,-122.192,68.297,17.792,-169.272
 15:30:51.086,eb:33:2e:f9:57:b5, 2085-97-150 251:17:252:7324,-0.368,-0.537,3.444,279.968,132.996,-87.585,71.307,19.094,-168.684
 15:30:51.086,eb:33:2e:f9:57:b5, 2085-97-37 254:145:251:7975,-0.138,-0.47,3.787,277.71,171.57,-94.055,74.515,20.407,-167.382
 15:30:51.148,eb:33:2e:f9:57:b5, 2085-97-143 255:162:249:7272,0,-0.699,3.797,278.625,199.829,-119.446,77.844,21.934,-165.745
 15:30:51.148,eb:33:2e:f9:57:b5, 2085-97-64 00:98:249:6164,-0.036,-0.811,3.256,267.395,203.796,-146.606,81.299,23.648,-163.839
 15:30:51.148,eb:33:2e:f9:57:b5, 2085-97-118 254:138:246:5825,-0.354,-0.933,2.852,243.164,168.945,-176.88,84.529,25.538,-162.065
 15:30:51.148,eb:33:2e:f9:57:b5, 2085-97-195 252:33:241:5910,-0.566,-1.515,2.882,216.797,98.206,-196.533,87.38,27.532,-160.763
 15:30:51.175,eb:33:2e:f9:57:b5, 2085-97-142 251:180:236:4672,-0.544,-2.123,2.594,173.706,41.077,-183.167,89.583,29.487,-160.137
 15:30:51.175,eb:33:2e:f9:57:b5, 2085-97-45 253:17:235:2651,-0.084,-2.543,1.771,92.163,41.382,-116.272,91.088,30.987,-159.752
 15:30:51.175,eb:33:2e:f9:57:b5, 2085-97-194 00:11:237:881,0.231,-2.514,0.804,-27.161,111.938,-15.625,91.807,31.619,-158.846
 15:30:51.175,eb:33:2e:f9:57:b5, 2085-97-04 03:02:239:091,0.615,-2.286,0.22,-151.184,137.634,66.65,91.604,31.273,-157.33
 15:30:51.205,eb:33:2e:f9:57:b5, 2085-97-109 07:130:244:-779,1.239,-1.824,-0.161,-250.671,144.653,111.755,90.308,30.339,-155.704
 15:30:51.205,eb:33:2e:f9:57:b5, 2085-97-192 12:132:251:-2074,1.89,-0.988,-0.709,-330.933,117.249,101.624,88.116,29.257,-154.122
 15:30:51.205,eb:33:2e:f9:57:b5, 2085-97-183 16:10:00:-2961,2.222,-0.197,-1.294,-393.555,51.575,43.823,84.864,28.603,-153.138
 15:30:51.205,eb:33:2e:f9:57:b5, 2085-97-115 18:158:00:-2794,2.331,0.062,-1.435,-415.283,-61.707,-53.162,80.722,28.663,-153.248
 15:30:51.266,eb:33:2e:f9:57:b5, 2085-97-207 17:125:255:-2387,2.077,0.048,-1.285,-420.166,-185.486,-148.987,75.668,29.443,-155.001
 15:30:51.266,eb:33:2e:f9:57:b5, 2085-97-02 15:91:251:-1100,1.603,-0.301,-0.895,-433.411,-295.349,-222.229,69.725,30.487,-158.401
 15:30:51.266,eb:33:2e:f9:57:b5, 2085-97-164 10:222:247:413,0.979,-0.815,-0.168,-452.881,-361.877,-251.465,62.847,31.3,-163.136
 15:30:51.266,eb:33:2e:f9:57:b5, 2085-97-165 05:67:245:1848,0.39,-1.213,0.607,-470.886,-393.188,-248.108,55.475,31.443,-168.453
 15:30:51.296,eb:33:2e:f9:57:b5, 2085-97-66 01:255:243:2527,-0.076,-1.442,1.086,-478.271,-407.959,-217.651,47.944,30.734,-173.826
 15:30:51.296,eb:33:2e:f9:57:b5, 2085-97-118 253:41:244:3179,-0.496,-1.502,1.434,-488.22,-406.555,-154.541,40.748,29.037,-178.594
 15:30:51.296,eb:33:2e:f9:57:b5, 2085-97-60 251:93:245:3452,-0.613,-1.422,1.607,-490.906,-394.165,-73.425,34.091,26.488,177.682
 15:30:51.296,eb:33:2e:f9:57:b5, 2085-97-116 251:135:248:3786,-0.478,-1.169,1.786,-480.103,-382.812,12.939,28.229,23.269,175.292
 15:30:51.327,eb:33:2e:f9:57:b5, 2085-97-98 253:203:252:3827,-0.09,-0.668,1.877,-458.252,-375.183,80.444,23.055,19.616,174.073
 15:30:51.327,eb:33:2e:f9:57:b5, 2085-97-04 02:97:00:3893,0.75,-0.183,1.87,-432.068,-368.591,112.61,18.512,15.771,173.749
 15:30:51.327,eb:33:2e:f9:57:b5, 2085-97-227 08:205:06:3989,1.139,0.381,1.996,-416.077,-330.872,100.037,14.26,12.074,173.848
 15:30:51.327,eb:33:2e:f9:57:b5, 2085-97-35 08:139:15:3265,0.796,1.475,1.662,-410.034,-338.501,16.602,10.135,8.773,173.837
 15:30:51.386,eb:33:2e:f9:57:b5, 2085-97-192 02:222:11:4514,-0.301,1.915,1.917,-404.48,-415.955,-145.813,5.889,5.026,172.606
 15:30:51.386,eb:33:2e:f9:57:b5, 2085-97-155 248:222:03:5323,-1.464,0.96,2.344,-407.959,-441.162,-235.168,1.736,0.802,170.37
 15:30:51.386,eb:33:2e:f9:57:b5, 2085-97-40 241:103:00:6854,-2.105,0.148,2.976,-410.339,-404.358,-228.577,-2.34,-3.532,168.052
 15:30:51.386,eb:33:2e:f9:57:b5, 2085-97-54 238:44:07:7146,-2.288,0.304,3.539,-389.587,-304.138,-168.884,-6.185,-7.191,166.41
 15:30:51.417,eb:33:2e:f9:57:b5, 2085-97-221 236:193:17:6733,-2.541,1.613,3.36,-347.107,-264.038,-158.569,-9.734,-10.157,165.273
 15:30:51.417,eb:33:2e:f9:57:b5, 2085-97-67 234:230:21:7209,-3.006,2.6,3.348,-291.199,-281.189,-215.271,-12.629,-13.217,164.009
 15:30:51.417,eb:33:2e:f9:57:b5, 2085-97-143 229:157:20:7974,-3.58,2.722,3.691,-241.455,-278.381,-265.259,-14.837,-16.584,162.279
 15:30:51.417,eb:33:2e:f9:57:b5, 2085-97-245 225:253:17:8295,-3.802,2.362,4.038,-208.069,-194.458,-243.958,-16.441,-19.644,160.367
 15:30:51.445,eb:33:2e:f9:57:b5, 2085-97-82 226:18:20:6935,-3.556,2.286,3.893,-171.936,-38.818,-141.785,-17.803,-21.275,158.785
 15:30:51.445,eb:33:2e:f9:57:b5, 2085-97-04 229:217:21:4224,-5.703,2.695,2.771,-82.581,48.767,-33.569,-18.754,-21.308,157.939
 15:30:51.445,eb:33:2e:f9:57:b5, 2085-97-82 239:239:49:3347,-1.829,-2.229,10.242,216.492,470.581,356.201,-18.517,-20.072,158.088
 15:30:51.445,eb:33:2e:f9:57:b5, 2085-97-46 05:130:43:031,1.676,4.106,1.259,583.862,245.789,100.769,-14.2,-16.545,158.676
 15:30:51.507,eb:33:2e:f9:57:b5, 2085-97-134 10:251:08:14413,-0.145,3.293,6.973,489.685,396.179,-37.537,-9.179,-14.65,158.06
 15:30:51.507,eb:33:2e:f9:57:b5, 2085-97-34 246:148:248:3892,-1.044,0.027,4.312,481.873,568.054,-42.542,-3.994,-8.981,157.017
 15:30:51.507,eb:33:2e:f9:57:b5, 2085-97-243 248:96:30:3405,-1.114,0.025,-0.227,354.187,126.404,-8.179,0.319,-5.411,156.533
 15:30:51.507,eb:33:2e:f9:57:b5, 2085-97-242 249:108:00:1052,-0.83,2.513,1.819,113.831,175.049,-5.066,2.406,-4.296,156.456
 15:30:51.565,eb:33:2e:f9:57:b5, 2085-97-239 247:138:01:-079,-0.71,-0.255,-0.037,97.229,196.594,-3.357,3.329,-2.17,156.66
 15:30:51.565,eb:33:2e:f9:57:b5, 2085-97-253 252:121:01:1814,-0.297,1.102,0.299,42.542,95.093,-20.386,4.07,-0.758,156.703
 15:30:51.565,eb:33:2e:f9:57:b5, 2085-97-68 252:200:255:1966,-0.117,-0.221,0.962,36.865,124.207,-4.7,4.406,0.341,156.594
 15:30:51.566,eb:33:2e:f9:57:b5, 2085-97-136 00:186:254:2599,-0.343,-0.178,1.244,33.752,76.904,-18.982,4.752,1.291,156.511
 15:30:51.568,eb:33:2e:f9:57:b5, 2085-97-249 253:225:01:1906,-0.228,0.212,0.92,24.902,89.539,-3.662,5.07,2.219,156.473
 15:30:51.569,eb:33:2e:f9:57:b5, 2085-97-162 253:255:00:1865,-0.364,0.029,1.017,9.583,81.909,1.221,5.224,3.06,156.484
 15:30:51.569,eb:33:2e:f9:57:b5, 2085-97-123 252:185:255:1931,-0.206,-0.123,0.961,4.272,56.58,1.221,5.268,3.746,156.533
 15:30:51.571,eb:33:2e:f9:57:b5, 2085-97-211 255:248:00:2225,0.131,0.297,0.974,-3.052,32.043,-14.893,5.295,4.18,156.533
 15:30:51.626,eb:33:2e:f9:57:b5, 2085-97-111 02:123:02:2083,0.254,0.197,1.064,-7.996,11.841,-29.48,5.202,4.444,156.374
 15:30:51.626,eb:33:2e:f9:57:b5, 2085-97-128 04:154:05:1008,0.661,-0.164,1.464,8.057,-37.476,-5.554,5.158,4.301,156.116
 15:30:51.626,eb:33:2e:f9:57:b5, 2085-97-104 00:97:05:3395,-0.19,1.041,-0.461,19.592,-253.479,-34.668,5.295,3.016,155.825
 15:30:51.626,eb:33:2e:f9:57:b5, 2085-97-174 252:250:221:16953,-0.715,-3.28,7.009,42.786,-167.297,-10.498,5.29,0.335,154.677
 15:30:51.655,eb:33:2e:f9:57:b5, 2085-97-200 02:122:254:2512,1.038,-2.425,4.662,239.624,56.458,167.603,6.839,0.17,155.978
 15:30:51.655,eb:33:2e:f9:57:b5, 2085-97-230 05:201:249:6825,0.961,0.076,1.148,329.407,-178.223,-67.871,9.767,-0.56,156.335
 15:30:51.655,eb:33:2e:f9:57:b5, 2085-97-51 10:126:243:9081,1.505,-1.016,4.722,404.114,-91.125,-122.986,13.546,-1.818,154.951
 15:30:51.655,eb:33:2e:f9:57:b5, 2085-97-85 15:47:251:6832,2.169,-1.254,3.664,456.299,127.869,-71.594,17.935,-1.313,154.177
 15:30:51.687,eb:33:2e:f9:57:b5, 2085-97-193 18:53:254:5121,1.557,-0.581,2.919,497.192,220.459,-99.609,22.676,0.736,153.962
 15:30:51.687,eb:33:2e:f9:57:b5, 2085-97-71 11:170:253:5421,0.841,0.191,2.745,519.409,250.183,-143.433,27.79,3.395,153.82
 15:30:51.687,eb:33:2e:f9:57:b5, 2085-113-81 00:92:226:-525,0.508,-0.244,2.238,512.939,227.783,-153.259,32.986,6.196,153.726
 15:30:51.687,eb:33:2e:f9:57:b5, 2085-97-102 04:84:04:3249,0.274,0.149,1.882,475.098,231.628,-154.053,35.453,7.581,153.754
 15:30:51.746,eb:33:2e:f9:57:b5, 2085-97-105 01:30:06:5656,0.18,1.389,1.692,375.793,259.094,-225.647,39.644,10.613,153.759
 15:30:51.746,eb:33:2e:f9:57:b5, 2085-97-25 02:238:237:9656,0.031,-0.664,4.211,393.921,395.752,-198.914,43.385,14.546,154.045
 15:30:51.746,eb:33:2e:f9:57:b5, 2085-97-239 247:120:06:-3551,-0.481,-1.663,1.775,469.177,473.145,98.999,48.735,18.062,157.121
 15:30:51.746,eb:33:2e:f9:57:b5, 2085-97-81 05:63:02:-4303,1.063,0.05,-2.785,270.569,301.758,138.123,53.509,19.819,160.999
 15:30:51.776,eb:33:2e:f9:57:b5, 2085-97-243 05:248:03:649,0.879,0.755,-1.186,122.681,240.845,179.26,56.459,19.918,164.262
 15:30:51.776,eb:33:2e:f9:57:b5, 2085-97-191 05:221:05:5931,0.487,0.539,2.225,125.671,208.862,138.977,58.502,19.72,167.097
 15:30:51.776,eb:33:2e:f9:57:b5, 2085-97-151 04:139:05:5139,0.599,0.841,2.809,226.135,109.131,25.757,60.925,19.902,169.08
 15:30:51.776,eb:33:2e:f9:57:b5, 2085-97-183 03:247:01:3981,0.251,0.404,2.124,290.649,10.071,-53.284,63.688,20.358,169.398
 15:30:51.836,eb:33:2e:f9:57:b5, 2085-97-70 01:251:00:5528,0.125,0.173,2.175,291.077,-35.034,-93.75,66.451,20.962,168.893
 15:30:51.836,eb:33:2e:f9:57:b5, 2085-97-31 01:65:255:7125,0.231,0.003,3.206,283.569,-12.085,-122.803,69.011,21.868,168.146
 15:30:51.836,eb:33:2e:f9:57:b5, 2085-97-180 02:247:254:7317,0.44,-0.112,3.573,290.527,28.137,-156.86,71.724,23.225,167.75
 15:30:51.836,eb:33:2e:f9:57:b5, 2085-97-82 04:201:252:7540,0.596,-0.231,3.594,290.1,55.054,-199.341,74.537,25.071,167.58
 15:30:51.865,eb:33:2e:f9:57:b5, 2085-97-251 04:103:250:7400,0.63,-0.575,3.713,270.325,100.281,-225.708,77.448,27.356,167.827
 15:30:51.865,eb:33:2e:f9:57:b5, 2085-97-25 05:232:248:6507,0.631,-0.794,3.404,233.337,142.334,-234.253,80.31,29.877,168.657
 15:30:51.865,eb:33:2e:f9:57:b5, 2085-97-209 04:66:247:5743,0.53,-0.993,2.976,187.805,154.663,-230.347,83.062,32.421,169.975
 15:30:51.865,eb:33:2e:f9:57:b5, 2085-97-120 02:231:245:5081,0.2,-1.169,2.656,139.221,152.466,-209.9,85.452,34.788,171.48
 15:30:51.896,eb:33:2e:f9:57:b5, 2085-97-77 01:162:242:4578,0.128,-1.447,2.387,94.177,119.507,-184.448,87.44,36.854,172.958
 15:30:51.896,eb:33:2e:f9:57:b5, 2085-97-176 00:38:240:3112,0.112,-1.851,1.933,42.358,103.638,-130.249,88.802,38.485,174.177
 15:30:51.896,eb:33:2e:f9:57:b5, 2085-97-35 02:235:237:1661,0.483,-2.128,1.13,-21.118,116.943,-57.068,89.725,39.413,175.551
 15:30:51.896,eb:33:2e:f9:57:b5, 2085-97-49 05:92:237:345,0.765,-2.346,0.509,-97.656,142.578,15.93,90.093,39.617,177.188
 15:30:51.926,eb:33:2e:f9:57:b5, 2085-97-03 07:42:244:-1830,1.039,-2.12,-0.196,-194.702,161.865,95.459,89.879,39.122,179.182
 15:30:51.926,eb:33:2e:f9:57:b5, 2085-97-21 09:112:250:-3419,1.452,-0.829,-1.541,-337.28,157.104,121.643,88.401,37.958,-178.737
 15:30:51.926,eb:33:2e:f9:57:b5, 2085-97-03 13:154:252:-2846,1.749,-0.551,-1.478,-455.566,102.478,105.591,85.353,36.887,-177.045
 15:30:51.926,eb:33:2e:f9:57:b5, 2085-97-04 15:09:254:-2300,1.918,-0.325,-1.234,-514.709,26.306,54.321,80.87,36.161,-176.204
 15:30:51.986,eb:33:2e:f9:57:b5, 2085-97-32 15:03:255:-2373,1.828,-0.16,-1.127,-526.978,-74.768,-13.855,75.476,35.92,-176.462
 15:30:51.986,eb:33:2e:f9:57:b5, 2085-97-09 14:232:253:-1413,1.658,-0.124,-1.072,-528.687,-204.285,-80.994,69.033,35.947,-178.412
 15:30:51.986,eb:33:2e:f9:57:b5, 2085-97-186 12:92:251:517,1.541,-0.435,-0.246,-541.26,-302.307,-125.854,61.639,35.788,178.072
 15:30:51.986,eb:33:2e:f9:57:b5, 2085-97-112 11:214:250:2015,1.312,-0.68,0.71,-556.946,-314.758,-131.775,53.718,35.173,173.919
 15:30:52.016,eb:33:2e:f9:57:b5, 2085-97-124 09:242:252:2328,0.991,-0.513,1.114,-566.528,-304.443,-131.226,45.928,34.146,170.09
 15:30:52.016,eb:33:2e:f9:57:b5, 2085-97-47 06:57:253:2726,0.516,-0.317,1.167,-564.819,-340.271,-142.456,38.167,32.629,166.3
 15:30:52.016,eb:33:2e:f9:57:b5, 2085-97-227 01:166:251:3593,0.004,-0.436,1.531,-553.284,-388.245,-133.301,30.641,30.344,162.581
 15:30:52.016,eb:33:2e:f9:57:b5, 2085-97-197 254:55:250:4465,-0.232,-0.667,1.969,-530.579,-417.725,-90.454,23.643,27.186,159.34
 15:30:52.106,eb:33:2e:f9:57:b5, 2085-97-45 254:153:252:5228,-0.133,-0.661,2.406,-501.16,-401.001,-15.32,17.617,23.478,157.297
 15:30:52.106,eb:33:2e:f9:57:b5, 2085-97-19 00:116:02:5154,0.127,-0.075,2.572,-465.027,-366.211,43.945,12.458,19.72,156.473
 15:30:52.106,eb:33:2e:f9:57:b5, 2085-97-81 01:80:06:4572,0.109,0.625,2.41,-431.763,-355.286,49.316,7.971,16.111,156.412
 15:30:52.106,eb:33:2e:f9:57:b5, 2085-97-154 00:35:04:4374,0.037,0.742,2.058,-412.048,-386.841,28.015,3.73,12.365,156.434
 15:30:52.108,eb:33:2e:f9:57:b5, 2085-97-59 255:228:03:4441,-0.202,0.367,2.267,-408.203,-378.662,45.593,-0.308,8.492,156.736
 15:30:52.108,eb:33:2e:f9:57:b5, 2085-97-162 253:98:08:4530,-0.437,0.778,2.097,-390.625,-393.86,57.739,-4.29,4.691,157.484
 15:30:52.108,eb:33:2e:f9:57:b5, 2085-97-40 251:07:11:5378,-0.675,1.21,2.422,-352.478,-432.678,43.823,-7.96,0.621,158.516
 15:30:52.108,eb:33:2e:f9:57:b5, 2085-97-236 249:75:13:6351,-0.954,1.505,2.898,-323.364,-432.434,28.198,-11.398,-3.631,159.642
 15:30:52.136,eb:33:2e:f9:57:b5, 2085-97-08 246:231:16:6971,-1.588,1.888,3.23,-301.88,-411.377,13.489,-14.65,-7.652,160.889
 15:30:52.136,eb:33:2e:f9:57:b5, 2085-97-220 240:119:18:7780,-2.143,2.256,3.612,-263.306,-394.775,-23.804,-17.721,-11.558,162.026
 15:30:52.136,eb:33:2e:f9:57:b5, 2085-97-29 237:35:18:8300,-2.504,2.302,3.943,-228.455,-333.313,-47.913,-20.352,-15.117,162.949
 15:30:52.136,eb:33:2e:f9:57:b5, 2085-97-171 235:04:18:8853,-2.482,2.229,4.252,-214.417,-213.44,-47.485,-22.769,-17.88,163.564
 15:30:52.198,eb:33:2e:f9:57:b5, 2085-97-102 237:96:21:7508,-2.095,2.422,4.088,-205.872,-56.885,-20.264,-24.944,-19.166,163.823
 15:30:52.198,eb:33:2e:f9:57:b5, 2085-97-21 241:127:24:5685,-1.692,2.917,3.222,-179.688,39.551,-7.446,-26.884,-19.193,163.702
 15:30:52.198,eb:33:2e:f9:57:b5, 2085-97-75 243:155:23:3741,-1.551,3.06,2.28,-111.084,52.063,-9.216,-28.224,-18.754,163.378
 15:30:52.198,eb:33:2e:f9:57:b5, 2085-97-65 243:07:21:3148,-1.673,2.777,1.555,-10.742,-9.644,-9.766,-28.751,-18.611,163.163
 15:30:52.198,eb:33:2e:f9:57:b5, 2085-97-112 242:10:19:3606,-4.138,2.502,1.658,89.844,-70.312,-4.333,-28.35,-19.05,163.367
 15:30:52.226,eb:33:2e:f9:57:b5, 2085-113-58 00:114:232:-5100,0.988,-7.042,10.434,359.68,520.813,453.186,-26.774,-19.116,163.96
 15:30:52.226,eb:33:2e:f9:57:b5, 2085-97-63 00:138:21:-8055,0.915,4.326,-0.96,547.913,299.194,-69.885,-24.516,-16.721,163.987
 15:30:52.226,eb:33:2e:f9:57:b5, 2085-97-236 08:47:254:12980,1.94,0.782,1.582,470.703,73.486,11.169,-19.528,-14.447,163.889
 15:30:52.226,eb:33:2e:f9:57:b5, 2085-97-67 05:23:03:13145,-1.372,-0.05,7.162,678.833,339.417,-116.943,-13.271,-12.601,162.598
 15:30:52.257,eb:33:2e:f9:57:b5, 2085-97-156 241:30:11:2581,-1.671,1.475,2.955,694.397,375.793,-116.516,-5.768,-8.773,160.692
 15:30:52.257,eb:33:2e:f9:57:b5, 2085-97-221 07:02:37:1759,1.531,-1.295,-0.065,453.43,43.274,-35.889,0.269,-6.553,159.445
 15:30:52.257,eb:33:2e:f9:57:b5, 2085-97-238 00:20:254:4981,-2.15,6.786,2.476,42.847,28.442,-102.6,2.543,-7.163,158.95
 15:30:52.257,eb:33:2e:f9:57:b5, 2085-97-199 236:01:03:-3223,-1.249,-1.717,-0.524,63.721,323.669,48.035,2.961,-4.07,158.873
 15:30:52.316,eb:33:2e:f9:57:b5, 2085-97-198 04:177:04:2612,1.331,0.424,-0.002,57.495,-72.815,-85.449,3.576,-3.455,158.599
 15:30:52.316,eb:33:2e:f9:57:b5, 2085-97-236 01:54:253:3607,-1.03,0.053,2.344,36.377,128.723,-36.865,4.01,-3.433,158.005
 15:30:52.316,eb:33:2e:f9:57:b5, 2085-97-182 249:08:253:1144,-0.132,-0.313,0.69,52.856,138.611,-8.85,4.493,-1.664,157.956
 15:30:52.317,eb:33:2e:f9:57:b5, 2085-97-89 255:236:01:2751,-0.079,-0.037,1.228,55.359,44.006,-26.672,5.059,-1.071,157.742
 15:30:52.347,eb:33:2e:f9:57:b5, 2085-97-151 254:101:00:2140,0.001,0.129,0.985,27.344,83.679,0.061,5.444,-0.286,157.764
 15:30:52.347,eb:33:2e:f9:57:b5, 2085-97-23 02:65:01:2790,0.175,0.157,1.129,8.667,56.213,-4.883,5.63,0.417,157.83
 15:30:52.347,eb:33:2e:f9:57:b5, 2085-97-185 255:253:00:2368,0.005,0.132,1.343,-5.981,71.045,-4.944,5.62,1.06,157.808
 15:30:52.347,eb:33:2e:f9:57:b5, 2085-97-170 00:86:255:2804,0.231,0.039,1.181,-10.498,29.785,-35.522,5.521,1.555,157.659
 15:30:52.376,eb:33:2e:f9:57:b5, 2085-97-131 01:23:251:3793,0.644,0.352,0.929,-28.87,15.869,-30.029,5.361,1.868,157.396
 15:30:52.376,eb:33:2e:f9:57:b5, 2085-97-137 253:253:12:-1482,1.444,2.556,-3.02,-81.421,-137.024,-35.4,5.092,1.67,157.445
 15:30:52.376,eb:33:2e:f9:57:b5, 2085-97-17 02:166:224:19877,-0.463,-3.267,7.784,0.916,-168.335,36.194,4.257,-0.901,156.182
 15:30:52.376,eb:33:2e:f9:57:b5, 2085-97-47 02:158:246:4356,1.237,-3.132,6.519,238.586,110.352,201.233,5.625,-1.077,157.72
 15:30:52.436,eb:33:2e:f9:57:b5, 2085-97-03 08:155:01:5972,1.418,0.136,1.094,338.623,-35.828,26.306,8.597,-0.604,158.978
 15:30:52.436,eb:33:2e:f9:57:b5, 2085-97-84 09:175:248:7730,1.128,-0.557,3.728,420.776,-47.852,-107.91,12.458,-1.082,158.247
 15:30:52.436,eb:33:2e:f9:57:b5, 2085-97-175 10:130:243:7774,1.427,-1.292,3.889,469.849,103.271,-113.342,16.952,-0.494,157.209
 15:30:52.436,eb:33:2e:f9:57:b5, 2085-97-152 12:01:250:6285,1.236,-1.368,3.287,527.588,201.111,-115.662,21.978,1.423,156.709
 15:30:52.466,eb:33:2e:f9:57:b5, 2085-97-170 07:142:254:5877,0.688,-0.424,3.208,552.612,236.084,-144.226,27.4,4.005,156.401
 15:30:52.466,eb:33:2e:f9:57:b5, 2085-97-46 06:141:05:3079,0.49,0.208,1.978,519.897,222.9,-157.593,32.811,6.762,156.319
 15:30:52.466,eb:33:2e:f9:57:b5, 2085-97-147 03:241:11:5078,0.43,1.369,1.725,447.266,236.572,-230.53,37.529,9.673,155.995
 15:30:52.466,eb:33:2e:f9:57:b5, 2085-97-208 05:114:01:9470,1.188,0.989,3.537,427.185,329.712,-291.626,41.737,13.59,155.577
 15:30:52.497,eb:33:2e:f9:57:b5, 2085-97-190 252:56:249:1151,-1.071,-2.04,4.947,507.263,466.125,-134.46,46.631,18.259,156.61
 15:30:52.497,eb:33:2e:f9:57:b5, 2085-97-217 255:194:254:-5034,0.904,0.57,-2.493,361.694,369.995,-46.692,52.202,21.594,159.697
 15:30:52.497,eb:33:2e:f9:57:b5, 2085-97-31 05:204:05:924,0.587,0.465,-1.094,210.327,219.543,36.987,55.789,23.033,162.048
 15:30:52.497,eb:33:2e:f9:57:b5, 2085-97-79 03:55:06:9304,0.275,0.698,2.907,194.641,165.894,-9.033,58.354,23.906,163.828
 15:30:52.586,eb:33:2e:f9:57:b5, 2085-97-233 02:89:04:8570,0.438,0.788,4.816,277.954,135.437,-99.854,61.15,25.203,164.894
 15:30:52.586,eb:33:2e:f9:57:b5, 2085-97-252 02:129:00:6056,0.344,0.191,3.389,313.66,111.877,-137.573,64.429,26.911,165.46
 15:30:52.586,eb:33:2e:f9:57:b5, 2085-97-42 03:28:252:7038,0.474,-0.123,3.094,291.321,97.29,-147.461,67.582,28.63,165.784
 15:30:52.586,eb:33:2e:f9:57:b5, 2085-97-171 04:10:247:7462,0.707,-0.857,3.66,269.287,137.146,-141.052,70.664,30.405,166.426
 15:30:52.588,eb:33:2e:f9:57:b5, 2085-97-101 06:153:245:6523,0.851,-1.25,3.466,260.559,163.147,-132.996,73.883,32.184,167.613
 15:30:52.589,eb:33:2e:f9:57:b5, 2085-97-18 07:222:245:5272,0.883,-1.297,2.856,242.92,159.729,-130.554,77.19,33.882,169.085
 15:30:52.589,eb:33:2e:f9:57:b5, 2085-97-167 06:127:246:4652,0.766,-1.22,2.379,211.731,135.315,-131.226,80.195,35.475,170.475
 15:30:52.589,eb:33:2e:f9:57:b5, 2085-97-179 05:244:245:4919,0.634,-1.198,2.29,175.11,96.741,-131.653,82.766,36.958,171.617
 15:30:52.616,eb:33:2e:f9:57:b5, 2085-97-06 04:02:245:4874,0.411,-1.311,2.467,136.719,74.28,-119.019,84.754,38.315,172.414
 15:30:52.616,eb:33:2e:f9:57:b5, 2085-97-94 03:41:243:4010,0.434,-1.472,2.196,93.872,57.007,-94.238,86.325,39.43,173.134
 15:30:52.616,eb:33:2e:f9:57:b5, 2085-97-154 03:135:242:2557,0.516,-1.666,1.609,43.091,47.974,-54.565,87.297,40.21,173.677
 15:30:52.616,eb:33:2e:f9:57:b5, 2085-97-41 05:104:241:1790,0.806,-1.733,1.017,-19.836,65.735,-4.517,87.836,40.512,174.397
 15:30:52.677,eb:33:2e:f9:57:b5, 2085-97-23 07:160:240:1206,0.904,-1.937,0.812,-85.144,86.67,40.405,87.858,40.353,175.364
 15:30:52.677,eb:33:2e:f9:57:b5, 2085-97-178 07:210:244:-1083,1.039,-1.723,0.108,-169.739,115.356,91.614,87.457,39.721,176.77
 15:30:52.677,eb:33:2e:f9:57:b5, 2085-97-57 09:149:251:-3454,1.424,-0.973,-1.204,-299.316,119.202,127.075,86.039,38.672,178.363
 15:30:52.677,eb:33:2e:f9:57:b5, 2085-97-224 12:157:252:-2584,1.822,-0.357,-1.63,-457.581,74.036,102.417,83.035,37.595,179.775
 15:30:52.707,eb:33:2e:f9:57:b5, 2085-97-121 15:17:252:-1395,1.876,-0.48,-0.9,-534.851,25.024,57.373,78.354,36.909,-179.533
 15:30:52.707,eb:33:2e:f9:57:b5, 2085-97-05 14:35:253:-1636,1.736,-0.405,-0.727,-558.228,-30.334,10.925,72.9,36.579,-179.418
 15:30:52.707,eb:33:2e:f9:57:b5, 2085-97-240 12:182:253:-1264,1.489,-0.308,-0.735,-564.941,-126.404,-32.837,66.627,36.425,179.506
 15:30:52.707,eb:33:2e:f9:57:b5, 2085-97-239 10:137:251:197,1.279,-0.389,-0.314,-570.312,-233.459,-76.355,59.562,36.057,177.155
 15:30:52.767,eb:33:2e:f9:57:b5, 2085-97-150 09:37:250:1899,1.072,-0.686,0.523,-575.012,-295.105,-88.623,51.855,35.189,173.776
 15:30:52.767,eb:33:2e:f9:57:b5, 2085-97-142 07:42:251:3431,0.796,-0.673,1.307,-582.703,-309.143,-85.754,44.154,33.745,170.387
 15:30:52.767,eb:33:2e:f9:57:b5, 2085-97-86 05:34:251:4399,0.534,-0.592,1.974,-589.355,-299.072,-84.778,36.573,31.932,167.25
 15:30:52.767,eb:33:2e:f9:57:b5, 2085-97-30 03:113:250:4604,0.31,-0.65,2.231,-594.116,-275.513,-63.171,29.377,29.91,164.762
 15:30:52.797,eb:33:2e:f9:57:b5, 2085-97-88 02:109:250:4719,0.281,-0.71,2.283,-582.397,-268.799,-27.527,22.582,27.642,162.96
 15:30:52.797,eb:33:2e:f9:57:b5, 2085-97-161 02:180:251:4659,0.417,-0.641,2.279,-553.772,-284.241,14.404,16.458,25.054,161.949
 15:30:52.797,eb:33:2e:f9:57:b5, 2085-97-12 04:07:255:4644,0.582,-0.363,2.285,-524.414,-308.594,58.594,10.904,22.044,161.609
 15:30:52.797,eb:33:2e:f9:57:b5, 2085-97-05 05:125:04:4760,0.606,0.202,2.265,-501.343,-337.341,92.712,5.922,18.737,162.015
 15:30:52.827,eb:33:2e:f9:57:b5, 2085-97-53 04:244:09:5001,0.442,0.925,2.39,-469.666,-377.502,95.581,1.247,15.09,162.828
 15:30:52.827,eb:33:2e:f9:57:b5, 2085-97-04 03:228:11:5402,0.25,1.421,2.517,-426.147,-408.447,63.477,-2.999,11.146,163.784
 15:30:52.827,eb:33:2e:f9:57:b5, 2085-97-166 00:82:13:5624,-0.146,1.549,2.709,-393.982,-396.912,37.842,-6.987,7.141,164.669
 15:30:52.827,eb:33:2e:f9:57:b5, 2085-97-01 253:105:15:5854,-0.593,1.801,2.772,-376.343,-383.362,15.198,-10.745,3.373,165.602
 15:30:52.915,eb:33:2e:f9:57:b5, 2085-97-111 248:252:16:6374,-1.305,2.025,2.998,-356.445,-389.954,-14.343,-14.442,-0.396,166.481
 15:30:52.916,eb:33:2e:f9:57:b5, 2085-97-64 242:36:19:7185,-2.167,2.259,3.265,-312.134,-420.471,-52.795,-17.814,-4.384,167.36
 15:30:52.916,eb:33:2e:f9:57:b5, 2085-113-81 00:32:241:-1929,-2.591,2.441,3.802,-263.611,-434.448,-98.389,-20.797,-8.723,168.124
 15:30:52.916,eb:33:2e:f9:57:b5, 2085-97-117 232:236:18:9262,-3.21,2.418,4.176,-244.08,-410.95,-113.342,-22.11,-10.882,168.431
 15:30:52.916,eb:33:2e:f9:57:b5, 2085-97-181 229:234:20:9720,-3.158,2.39,4.728,-221.008,-280.762,-114.868,-24.489,-14.551,168.81
 15:30:52.916,eb:33:2e:f9:57:b5, 2085-97-72 232:212:26:8181,-2.761,2.984,4.485,-212.28,-76.111,-96.436,-26.625,-16.523,168.618
 15:30:52.916,eb:33:2e:f9:57:b5, 2085-97-129 235:70:30:5708,-2.422,3.642,3.386,-183.594,52.185,-103.821,-28.35,-16.952,167.712
 15:30:52.916,eb:33:2e:f9:57:b5, 2085-97-209 236:03:27:3412,-2.454,3.708,2.208,-103.638,63.293,-122.559,-29.394,-16.93,166.317
 15:30:52.946,eb:33:2e:f9:57:b5, 2085-97-89 235:189:19:2533,-2.695,2.907,1.279,5.981,-18.311,-120.911,-29.454,-17.358,165.086
 15:30:52.946,eb:33:2e:f9:57:b5, 2085-97-93 221:83:198:19830,0.535,2.143,1.418,112,-104.126,-88.196,-28.625,-18.446,164.504
 15:30:52.946,eb:33:2e:f9:57:b5, 2085-97-182 250:229:12:-4482,1.5,4.796,-2.254,580.688,249.695,-39.246,-25.214,-16.194,164.971
 15:30:52.946,eb:33:2e:f9:57:b5, 2085-97-95 22:172:00:17795,2.988,1.476,1.32,528.748,9.949,-23.438,-19.506,-14.442,164.718
 15:30:52.976,eb:33:2e:f9:57:b5, 2085-97-76 06:96:254:12105,-1.566,-0.695,7.898,763,438.721,-122.559,-12.453,-12.332,163.01
 15:30:52.976,eb:33:2e:f9:57:b5, 2085-97-206 237:190:252:548,-0.419,0.64,2.52,795.227,385.01,-112.915,-3.999,-7.982,161.104
 15:30:52.976,eb:33:2e:f9:57:b5, 2085-97-122 15:193:96:4203,-0.109,6.364,-0.057,270.813,-91.98,114.807,1.604,-6.603,160.757
 15:30:52.976,eb:33:2e:f9:57:b5, 2085-97-91 225:60:225:-1565,-4.091,-3.584,2.928,-32.471,575.317,90.271,1.84,-5.191,159.648
 15:30:53.035,eb:33:2e:f9:57:b5, 2085-97-57 245:183:254:436,2.033,1.515,-3.303,70.801,-124.634,-123.535,2.428,-1.45,160.9
 15:30:53.035,eb:33:2e:f9:57:b5, 2085-97-44 19:155:03:5190,0.038,0.501,2.171,50.171,-68.909,-58.777,3.12,-3.389,159.642
 15:30:53.035,eb:33:2e:f9:57:b5, 2085-97-134 241:16:255:156,-1.149,-0.083,1.157,52.856,234.802,32.959,3.658,-1.813,159.626
 15:30:53.035,eb:33:2e:f9:57:b5, 2085-97-163 00:26:00:3057,0.039,-0.607,0.556,67.139,-18.311,-59.509,4.224,-0.934,159.467
 15:30:53.067,eb:33:2e:f9:57:b5, 2085-97-66 254:110:02:1684,0.087,-0.04,1.388,50.842,70.679,25.696,4.883,-0.588,159.175
 15:30:53.067,eb:33:2e:f9:57:b5, 2085-97-22 05:241:02:2875,0.386,0.287,1.19,37.476,45.776,-39.124,5.301,-0.077,159.088
 15:30:53.067,eb:33:2e:f9:57:b5, 2085-97-207 255:49:03:1809,0.022,0.141,1.227,8.118,100.403,-5.371,5.493,0.725,158.912
 15:30:53.067,eb:33:2e:f9:57:b5, 2085-97-127 01:187:01:2062,-0.069,0.311,1.044,-11.108,69.824,-35.278,5.471,1.577,158.714
 15:30:53.096,eb:33:2e:f9:57:b5, 2085-97-30 00:19:02:1498,0.137,0.026,1.006,-24.048,58.533,-29.968,5.268,2.28,158.456
 15:30:53.096,eb:33:2e:f9:57:b5, 2085-97-06 03:139:17:-4083,0.672,1.782,-1.673,-92.59,-56.885,-84.961,4.845,2.461,158.038
 15:30:53.096,eb:33:2e:f9:57:b5, 2085-97-178 254:150:234:15774,-0.045,-2.771,5.242,-112.183,-113.586,18.188,3.224,0.632,156.588
 15:30:53.096,eb:33:2e:f9:57:b5, 2085-97-192 250:91:241:8769,0.191,-3.491,7.652,171.692,-0.183,170.227,3.642,0.044,157.516
 15:30:53.156,eb:33:2e:f9:57:b5, 2085-97-116 05:16:252:3726,0.701,-0.973,1.839,299.622,-66.284,98.816,6.196,-0.192,158.961
 15:30:53.156,eb:33:2e:f9:57:b5, 2085-97-00 08:242:247:8926,1.267,-1.064,3.691,366.577,-89.844,-29.114,9.531,-1.285,159.005
 15:30:53.156,eb:33:2e:f9:57:b5, 2085-97-125 09:174:247:7050,1.461,-0.993,3.47,440.308,19.47,-63.538,13.661,-1.406,158.511
 15:30:53.156,eb:33:2e:f9:57:b5, 2085-97-184 13:18:246:7652,2.02,-1.222,4.123,508.423,130.249,-96.68,18.43,-0.396,157.906
 15:30:53.186,eb:33:2e:f9:57:b5, 2085-97-251 11:254:253:6727,1.549,-0.859,3.13,547.729,227.112,-106.873,23.78,1.719,157.615
 15:30:53.186,eb:33:2e:f9:57:b5, 2085-97-195 08:21:255:4035,0.779,-0.404,2.952,543.213,305.847,-96.008,29.24,4.708,157.841
 15:30:53.186,eb:33:2e:f9:57:b5, 2085-97-144 01:137:03:4034,-0.096,0.433,1.588,482.422,271.24,-151.367,34.431,7.822,158.324
 15:30:53.186,eb:33:2e:f9:57:b5, 2085-97-27 255:247:04:6900,0.128,0.718,2.468,432.678,295.837,-209.778,38.952,11.162,158.5
 15:30:53.247,eb:33:2e:f9:57:b5, 2085-97-52 05:249:237:10288,-0.247,-0.515,4.94,473.999,455.2,-217.285,43.522,15.309,159.175
 15:30:53.247,eb:33:2e:f9:57:b5, 2085-97-75 249:170:04:-4969,0.263,-1.228,0.922,541.077,515.564,57.861,49.856,19.369,162.576
 15:30:53.247,eb:33:2e:f9:57:b5, 2085-97-39 09:107:255:-1923,1.069,-0.402,-2.248,367.981,274.902,117.31,55.41,21.127,166.295
 15:30:53.247,eb:33:2e:f9:57:b5, 2085-97-167 02:105:09:-2293,0.528,1.243,-1.715,193.97,338.867,153.442,59.496,21.627,169.969
 15:30:53.276,eb:33:2e:f9:57:b5, 2085-97-211 05:145:09:5749,0.562,1.051,1.328,177.673,160.706,80.139,62.199,21.742,172.678
 15:30:53.276,eb:33:2e:f9:57:b5, 2085-97-169 02:164:08:6557,0.211,1.2,3.269,244.202,84.167,-30.457,64.748,22.187,173.947
 15:30:53.277,eb:33:2e:f9:57:b5, 2085-97-239 01:50:03:6004,0.272,0.664,2.981,291.931,14.771,-110.962,67.511,23.093,173.99
 15:30:53.277,eb:33:2e:f9:57:b5, 2085-97-165 01:184:03:5881,0.187,0.424,2.932,283.63,23.621,-138.55,70.258,24.335,173.622
 15:30:53.305,eb:33:2e:f9:57:b5, 2085-97-184 01:90:02:6492,0.265,0.417,2.958,264.954,16.174,-178.711,72.834,25.906,173.287
 15:30:53.305,eb:33:2e:f9:57:b5, 2085-97-25 02:52:00:7231,0.242,0.161,3.403,258.667,0.427,-225.037,75.146,27.889,172.689
 15:30:53.305,eb:33:2e:f9:57:b5, 2085-97-244 01:240:253:7364,0.269,-0.118,3.569,250.916,-6.409,-259.583,77.344,30.256,171.969
 15:30:53.305,eb:33:2e:f9:57:b5, 2085-97-58 02:207:250:7663,0.302,-0.434,3.662,229.004,-3.845,-274.109,79.316,32.877,171.2
 15:30:53.335,eb:33:2e:f9:57:b5, 2085-97-148 02:21:247:7865,0.407,-0.884,3.827,197.144,20.63,-264.832,81.151,35.552,170.7
 15:30:53.335,eb:33:2e:f9:57:b5, 2085-97-17 03:158:244:7010,0.397,-1.318,3.769,157.043,89.294,-224.548,82.974,38.062,170.876
 15:30:53.335,eb:33:2e:f9:57:b5, 2085-97-180 02:184:244:5144,0.309,-1.42,2.969,104.187,168.274,-158.02,85.15,40.095,172.304
 15:30:53.335,eb:33:2e:f9:57:b5, 2085-97-140 02:241:242:3831,0.44,-1.49,2.167,43.518,203.674,-93.323,87.33,41.462,174.65
 15:30:53.396,eb:33:2e:f9:57:b5, 2085-97-221 04:187:241:2557,0.83,-1.765,1.591,-13.794,211.426,-35.095,89.258,42.166,177.396
 15:30:53.396,eb:33:2e:f9:57:b5, 2085-97-238 08:116:241:1146,1.369,-1.755,0.915,-82.031,220.154,19.897,90.615,42.237,-179.742
 15:30:53.396,eb:33:2e:f9:57:b5, 2085-97-199 11:164:240:-937,1.426,-1.925,0.21,-162.354,213.867,61.951,91.269,41.786,-176.825
 15:30:53.396,eb:33:2e:f9:57:b5, 2085-97-162 10:198:245:-4708,1.803,-1.658,-1.405,-265.32,185.486,96.436,90.802,40.957,-174.194
 15:30:53.457,eb:33:2e:f9:57:b5, 2085-97-201 15:147:249:-4287,1.872,-0.967,-2.266,-406.555,102.722,77.087,88.467,40.144,-172.551
 15:30:53.457,eb:33:2e:f9:57:b5, 2085-97-152 16:72:248:-2918,2.104,-0.83,-1.833,-515.076,25.94,42.236,84.26,39.551,-171.628
 15:30:53.457,eb:33:2e:f9:57:b5, 2085-97-76 17:28:248:-1870,2.229,-1.018,-1.155,-550.11,-48.34,-1.038,78.788,39.337,-171.749
 15:30:53.457,eb:33:2e:f9:57:b5, 2085-97-73 16:12:252:-1873,1.934,-0.695,-0.807,-567.566,-115.967,-25.146,72.433,39.249,-172.936
 15:30:53.459,eb:33:2e:f9:57:b5, 2085-97-102 15:205:250:-409,1.81,-0.525,-0.692,-578.979,-225.403,-68.481,65.231,39.04,-175.232
 15:30:53.459,eb:33:2e:f9:57:b5, 2085-97-228 13:229:249:1450,1.691,-0.773,0.3,-574.707,-299.377,-82.336,57.239,38.392,-178.759
 15:30:53.459,eb:33:2e:f9:57:b5, 2085-97-210 13:74:252:2633,1.744,-0.645,0.989,-569.458,-332.52,-83.496,49.213,37.09,177.435
 15:30:53.459,eb:33:2e:f9:57:b5, 2085-97-95 13:231:254:3541,1.503,-0.292,1.563,-568.909,-339.783,-99.976,41.292,35.316,173.672
 15:30:53.516,eb:33:2e:f9:57:b5, 2085-97-209 09:145:255:3672,0.89,-0.024,1.786,-561.89,-365.295,-130.371,33.613,33.19,170.052
 15:30:53.516,eb:33:2e:f9:57:b5, 2085-97-127 04:51:252:4073,0.25,-0.237,1.789,-547.668,-425.415,-148.804,26.071,30.399,166.284
 15:30:53.516,eb:33:2e:f9:57:b5, 2085-97-186 255:135:249:5254,-0.261,-0.696,2.296,-533.264,-457.153,-111.938,19.122,26.741,163.021
 15:30:53.516,eb:33:2e:f9:57:b5, 2085-97-161 252:04:252:5476,-0.49,-0.763,2.71,-513.672,-429.077,-30.762,13.002,22.615,160.961
 15:30:53.546,eb:33:2e:f9:57:b5, 2085-97-36 252:248:02:5241,-0.445,-0.083,2.594,-486.755,-408.142,54.26,7.806,18.506,160.439
 15:30:53.546,eb:33:2e:f9:57:b5, 2085-97-221 252:19:09:4912,-0.314,0.828,2.491,-440.918,-424.377,92.407,3.252,14.293,160.9
 15:30:53.546,eb:33:2e:f9:57:b5, 2085-97-217 254:111:09:5214,-0.085,1.232,2.365,-383.667,-461.365,81.238,-0.659,9.833,161.79
 15:30:53.546,eb:33:2e:f9:57:b5, 2085-97-24 254:10:11:5409,-0.404,1.178,2.715,-342.102,-447.266,65.735,-4.175,5.284,162.768
 15:30:53.607,eb:33:2e:f9:57:b5, 2085-97-88 251:41:14:5804,-0.797,1.637,2.686,-330.444,-437.866,22.339,-7.471,0.945,163.751
 15:30:53.607,eb:33:2e:f9:57:b5, 2085-97-177 247:177:13:6147,-1.257,1.768,2.926,-334.473,-414.185,-32.776,-10.849,-3.285,164.394
 15:30:53.607,eb:33:2e:f9:57:b5, 2085-97-198 243:235:12:6687,-1.823,1.657,3.131,-334.167,-378.235,-69.092,-14.244,-7.256,164.8
 15:30:53.607,eb:33:2e:f9:57:b5, 2085-97-143 239:77:12:6881,-2.217,1.581,3.342,-309.448,-344.788,-89.722,-17.551,-10.948,165.064
 15:30:53.635,eb:33:2e:f9:57:b5, 2085-97-173 237:18:13:7105,-2.33,1.544,3.369,-278.015,-313.477,-94.238,-20.522,-14.354,165.328
 15:30:53.635,eb:33:2e:f9:57:b5, 2085-97-85 237:108:16:7494,-2.29,1.808,3.593,-250.977,-260.803,-86.792,-23.269,-17.353,165.613
 15:30:53.635,eb:33:2e:f9:57:b5, 2085-97-73 238:251:19:7342,-2.127,2.288,3.688,-220.581,-177.246,-80.261,-25.675,-19.682,165.822
 15:30:53.635,eb:33:2e:f9:57:b5, 2085-97-139 239:138:21:6249,-2.07,2.634,3.351,-184.57,-87.463,-71.289,-27.68,-21.143,165.729
 15:30:53.665,eb:33:2e:f9:57:b5, 2085-97-216 238:144:20:5205,-2.237,2.676,2.778,-135.681,-50.476,-62.195,-29.163,-22.011,165.46
 15:30:53.665,eb:33:2e:f9:57:b5, 2085-97-152 237:11:18:4661,-2.259,2.417,2.342,-63.843,-56.824,-41.443,-30.081,-22.72,165.251
 15:30:53.665,eb:33:2e:f9:57:b5, 2085-97-118 239:95:17:4469,-1.797,2.174,2.253,19.653,-58.35,-2.93,-30.311,-23.346,165.421
 15:30:53.665,eb:33:2e:f9:57:b5, 2085-97-69 252:167:252:10811,0.255,2.243,2.068,85.266,-34.607,30.64,-29.916,-23.637,165.839
 15:30:53.726,eb:33:2e:f9:57:b5, 2085-97-113 04:119:233:6987,1.15,3.133,-0.378,401.306,358.032,157.104,-27.806,-21.209,166.399
 15:30:53.726,eb:33:2e:f9:57:b5, 2085-97-62 07:75:250:11638,1.754,2.147,-2.475,421.692,125.244,1.16,-22.538,-18.506,165.328
 15:30:53.726,eb:33:2e:f9:57:b5, 2085-97-76 07:138:253:13321,-1.249,-1.192,6.78,619.141,442.139,-51.697,-16.826,-15.732,164.026
 15:30:53.726,eb:33:2e:f9:57:b5, 2085-97-109 239:73:11:3320,-1.435,0.998,3.743,686.34,476.868,-49.683,-9.586,-10.909,162.23
 15:30:53.786,eb:33:2e:f9:57:b5, 2085-97-91 252:221:03:-1405,0.848,1.645,0.65,527.771,220.886,-95.764,-3.23,-7.723,161.208
 15:30:53.786,eb:33:2e:f9:57:b5, 2085-97-158 10:202:26:6199,-0.624,6.008,1.199,145.02,-107.849,-77.393,0.121,-7.767,160.774
 15:30:53.786,eb:33:2e:f9:57:b5, 2085-97-140 230:131:253:-4131,-2.666,-1.427,1.239,76.111,422.18,49.438,0.807,-5.883,160.4
 15:30:53.786,eb:33:2e:f9:57:b5, 2085-97-31 253:181:05:1225,1.438,0.908,-1.526,38.208,-71.655,-41.931,1.401,-3.966,160.686
 15:30:53.786,eb:33:2e:f9:57:b5, 2085-113-58 00:118:228:-6345,0.843,0.073,2.182,28.503,32.227,-58.472,1.747,-4.746,159.95
 15:30:53.788,eb:33:2e:f9:57:b5, 2085-97-99 250:125:253:2011,-0.91,-0.395,2.086,37.354,152.771,-5.005,1.928,-4.153,159.818
 15:30:53.788,eb:33:2e:f9:57:b5, 2085-97-31 253:05:255:2114,-0.044,-0.058,0.442,49.255,38.208,-32.227,2.39,-3.021,159.813
 15:30:53.788,eb:33:2e:f9:57:b5, 2085-97-187 254:23:00:2640,-0.119,-0.135,1.415,53.65,53.955,-18.616,2.933,-2.653,159.521
 15:30:53.788,eb:33:2e:f9:57:b5, 2085-97-147 02:229:00:2759,0.127,0.241,1.021,38.391,49.194,-12.878,3.422,-2.032,159.456
 15:30:53.847,eb:33:2e:f9:57:b5, 2085-97-28 00:215:01:2362,0.241,0.153,1.137,16.907,85.266,5.066,3.702,-1.247,159.412
 15:30:53.847,eb:33:2e:f9:57:b5, 2085-97-230 00:45:02:2174,0.016,0.142,1.374,3.479,85.693,-6.836,3.812,-0.5,159.373
 15:30:53.847,eb:33:2e:f9:57:b5, 2085-97-34 255:98:255:2547,0.095,0.104,1.036,-8.667,51.514,-27.405,3.763,0.198,159.219
 15:30:53.847,eb:33:2e:f9:57:b5, 2085-97-183 00:146:253:2460,0.405,0.449,0.712,-22.522,16.174,-26.978,3.658,0.593,159.049
 15:30:53.876,eb:33:2e:f9:57:b5, 2085-97-144 03:152:23:-6239,0.992,1.292,-1.034,-61.34,-94.299,-7.996,3.406,0.406,158.972
 15:30:53.876,eb:33:2e:f9:57:b5, 2085-97-157 05:175:218:20851,-1.199,-2.459,5.984,-65.796,-251.343,3.845,2.258,-2.384,157.972
 15:30:53.876,eb:33:2e:f9:57:b5, 2085-97-176 02:177:247:3319,1.583,-3.64,8.669,228.455,110.596,169.006,3.241,-3.093,159.313
 15:30:53.876,eb:33:2e:f9:57:b5, 2085-97-175 05:23:250:7392,1.25,0.074,0.367,306.702,-94.604,25.391,5.993,-2.845,160.466
 15:30:53.907,eb:33:2e:f9:57:b5, 2085-97-31 10:243:248:7280,0.934,-0.665,3.638,406.25,-42.114,-75.623,9.684,-3.433,159.89
 15:30:53.907,eb:33:2e:f9:57:b5, 2085-97-251 10:48:247:7595,1.506,-1.429,3.816,461.182,86.304,-87.341,14.035,-3.093,159.033
 15:30:53.907,eb:33:2e:f9:57:b5, 2085-97-105 14:71:248:6608,1.276,-1.33,3.409,530.273,181.213,-113.77,19.056,-1.401,158.401
 15:30:53.907,eb:33:2e:f9:57:b5, 2085-97-190 09:68:252:6008,0.707,-0.156,3.267,571.289,224.182,-147.095,24.648,0.956,157.978
 15:30:53.966,eb:33:2e:f9:57:b5, 2085-97-183 02:103:04:3990,0.02,0.053,1.958,564.819,209.961,-147.461,30.366,3.604,157.769
 15:30:53.966,eb:33:2e:f9:57:b5, 2085-97-99 254:111:09:5661,-0.453,1.103,2.46,533.081,239.319,-181.885,35.837,6.295,157.538
 15:30:53.966,eb:33:2e:f9:57:b5, 2085-97-97 254:23:04:7564,0.163,1.077,3.153,516.235,362.976,-238.159,41.056,9.97,157.687
 15:30:53.966,eb:33:2e:f9:57:b5, 2085-97-10 04:143:243:6079,-0.66,-0.8,4.437,588.928,483.826,-194.702,46.807,14.694,158.978
 15:30:53.995,eb:33:2e:f9:57:b5, 2085-97-08 251:172:00:-4079,0.221,0.547,-0.696,549.561,447.449,-22.034,53.817,18.276,162.372
 15:30:53.995,eb:33:2e:f9:57:b5, 2085-97-72 06:13:05:-1298,0.711,-0.388,-1.186,387.512,270.63,84.534,59.293,19.924,165.438
 15:30:53.995,eb:33:2e:f9:57:b5, 2085-97-19 03:247:06:3254,0.223,0.946,0.07,245.667,241.882,98.755,63.27,20.396,168.354
 15:30:53.995,eb:33:2e:f9:57:b5, 2085-97-103 00:235:07:8297,0.078,0.994,3.094,252.93,157.715,45.288,66.434,20.522,170.585
 15:30:54.026,eb:33:2e:f9:57:b5, 2085-97-115 01:04:05:8523,0.375,0.856,4.454,328.003,87.952,-37.598,69.736,21.011,171.689
 15:30:54.026,eb:33:2e:f9:57:b5, 2085-97-112 04:79:04:7239,0.615,0.515,3.766,361.45,86.121,-72.876,73.471,21.852,172.326
 15:30:54.026,eb:33:2e:f9:57:b5, 2085-97-217 04:167:03:7097,0.553,0.576,3.457,354.126,90.027,-102.112,77.305,22.939,173.04
 15:30:54.026,eb:33:2e:f9:57:b5, 2085-97-142 04:221:255:6737,0.669,0.214,3.376,341.125,58.716,-147.949,80.975,24.346,173.557
 15:30:54.085,eb:33:2e:f9:57:b5, 2085-97-73 06:207:252:6822,0.804,-0.224,3.274,317.993,31.555,-180.542,84.32,26.065,173.754
 15:30:54.085,eb:33:2e:f9:57:b5, 2085-97-54 06:150:249:6769,0.76,-0.604,3.343,281.738,36.377,-199.768,87.38,28.01,173.947
 15:30:54.087,eb:33:2e:f9:57:b5, 2085-97-21 06:200:247:6404,0.583,-0.943,3.223,238.525,58.777,-198.975,90.148,30.037,174.391
 15:30:54.087,eb:33:2e:f9:57:b5, 2085-97-215 03:104:246:5533,0.456,-1.079,2.859,178.04,66.589,-181.58,92.637,31.926,175.226
 15:30:54.116,eb:33:2e:f9:57:b5, 2085-97-232 03:115:243:4525,0.462,-1.394,2.516,117.065,51.208,-160.095,94.444,33.618,175.974
 15:30:54.116,eb:33:2e:f9:57:b5, 2085-97-137 03:36:241:3155,0.473,-1.723,1.844,50.354,58.35,-111.145,95.674,34.926,176.765
 15:30:54.116,eb:33:2e:f9:57:b5, 2085-97-150 04:42:239:2271,0.793,-1.997,1.307,-13.733,82.275,-54.138,96.295,35.667,177.66
 15:30:54.116,eb:33:2e:f9:57:b5, 2085-97-200 09:216:237:2173,1.038,-2.191,0.957,-80.444,124.878,7.935,96.559,35.771,179.011
 15:30:54.147,eb:33:2e:f9:57:b5, 2085-97-160 06:35:242:-1281,0.998,-2.248,0.533,-156.86,186.951,67.2,96.405,35.321,-179.154
 15:30:54.147,eb:33:2e:f9:57:b5, 2085-97-143 09:253:246:-4278,1.402,-1.416,-1.462,-278.198,186.096,101.685,95.438,34.272,-176.935
 15:30:54.147,eb:33:2e:f9:57:b5, 2085-97-85 13:20:250:-4390,1.928,-0.873,-2.326,-424.927,125.732,84.351,92.791,33.217,-175.166
 15:30:54.147,eb:33:2e:f9:57:b5, 2085-97-142 16:195:250:-3251,2.049,-0.659,-1.839,-541.077,53.406,32.715,88.401,32.64,-174.139
 15:30:54.207,eb:33:2e:f9:57:b5, 2085-97-127 15:22:250:-2663,1.798,-0.681,-1.491,-606.201,-19.653,-28.137,82.639,32.662,-173.996
 15:30:54.207,eb:33:2e:f9:57:b5, 2085-97-19 13:71:249:-991,1.527,-0.818,-0.944,-622.437,-122.62,-83.923,75.894,33.096,-175.023
 15:30:54.207,eb:33:2e:f9:57:b5, 2085-97-76 11:66:250:601,1.302,-0.8,0.008,-609.497,-201.904,-115.601,68.428,33.53,-177.363
 15:30:54.207,eb:33:2e:f9:57:b5, 2085-97-251 09:194:249:1021,1.186,-0.709,0.399,-592.224,-266.418,-138.245,60.667,33.624,179.423
 15:30:54.237,eb:33:2e:f9:57:b5, 2085-97-143 08:230:248:1817,0.915,-0.853,0.663,-585.51,-314.575,-141.663,52.646,33.146,175.523
 15:30:54.237,eb:33:2e:f9:57:b5, 2085-97-202 05:250:247:3130,0.516,-0.943,1.201,-580.994,-347.595,-132.935,44.681,31.926,171.541
 15:30:54.237,eb:33:2e:f9:57:b5, 2085-97-203 02:179:247:4428,0.189,-1.031,1.854,-573.547,-367.92,-107.117,36.958,29.921,167.739
 15:30:54.237,eb:33:2e:f9:57:b5, 2085-97-125 00:50:248:5021,0.045,-1.024,2.348,-567.688,-355.591,-62.683,29.822,27.323,164.74
 15:30:54.267,eb:33:2e:f9:57:b5, 2085-97-228 00:243:250:5048,0.189,-0.873,2.534,-562.195,-327.454,-8.057,23.275,24.384,162.729
 15:30:54.267,eb:33:2e:f9:57:b5, 2085-97-137 02:47:255:4585,0.412,-0.368,2.298,-551.208,-314.758,34.302,17.342,21.346,161.812
 15:30:54.267,eb:33:2e:f9:57:b5, 2085-97-103 03:80:02:4756,0.416,0.122,2.299,-524.963,-340.393,33.02,11.766,18.073,161.334
 15:30:54.267,eb:33:2e:f9:57:b5, 2085-97-171 02:165:02:4711,0.194,0.365,2.308,-498.535,-380.249,13.977,6.586,14.447,161.038
 15:30:54.327,eb:33:2e:f9:57:b5, 2085-97-135 00:24:02:5037,-0.066,0.277,2.322,-479.431,-408.936,15.137,1.631,10.464,160.922
 15:30:54.327,eb:33:2e:f9:57:b5, 2085-97-111 254:130:03:5409,-0.324,0.311,2.564,-456.787,-426.331,33.752,-2.988,6.284,161.301
 15:30:54.327,eb:33:2e:f9:57:b5, 2085-97-86 252:227:06:6353,-0.58,0.626,2.815,-436.279,-445.862,52.429,-7.427,1.967,162.202
 15:30:54.327,eb:33:2e:f9:57:b5, 2085-97-99 250:235:10:7560,-0.854,1.119,3.426,-419.373,-439.575,60.974,-11.717,-2.307,163.603
 15:30:54.356,eb:33:2e:f9:57:b5, 2085-97-71 247:247:15:8199,-1.432,1.663,3.851,-391.907,-405.151,53.955,-15.952,-6.24,165.245
 15:30:54.356,eb:33:2e:f9:57:b5, 2085-97-227 241:00:18:8692,-2.117,2.216,4.143,-345.886,-375.244,9.705,-19.863,-9.822,166.838
 15:30:54.356,eb:33:2e:f9:57:b5, 2085-97-06 237:65:16:9075,-2.541,2.152,4.293,-302.795,-329.651,-28.259,-23.362,-13.134,168.085
 15:30:54.356,eb:33:2e:f9:57:b5, 2085-113-58 00:12:229:-4815,-2.584,2.01,4.643,-281.677,-224.976,-28.32,-26.505,-15.798,169.069
 15:30:54.388,eb:33:2e:f9:57:b5, 2085-97-92 236:94:19:9063,-2.166,2.13,4.712,-275.696,-139.16,-12.817,-27.993,-16.611,169.409
 15:30:54.388,eb:33:2e:f9:57:b5, 2085-97-31 241:183:24:6887,-1.641,2.774,3.97,-255.92,21.729,16.357,-30.767,-16.99,169.689
 15:30:54.388,eb:33:2e:f9:57:b5, 2085-97-225 243:247:26:3598,-1.505,3.298,2.541,-188.904,72.144,18.555,-32.959,-16.348,169.541
 15:30:54.388,eb:33:2e:f9:57:b5, 2085-97-255 241:161:26:1887,-1.937,3.336,1.159,-71.533,-18.127,-0.61,-34.206,-16.035,169.42
 15:30:54.448,eb:33:2e:f9:57:b5, 2085-97-215 239:131:24:3692,-1.377,3.247,1.27,43.884,-135.559,-24.353,-34.382,-16.853,169.865
 15:30:54.448,eb:33:2e:f9:57:b5, 2085-97-02 213:168:249:15816,-0.798,1.629,3.089,179.443,-262.207,-89.966,-33.657,-18.413,170.502
 15:30:54.448,eb:33:2e:f9:57:b5, 2085-97-103 254:206:34:-5794,0.002,-0.489,4.146,665.1,375.244,152.588,-28.477,-14.892,170.53
 15:30:54.448,eb:33:2e:f9:57:b5, 2085-97-43 00:29:00:13501,0.733,1.602,4.93,601.013,134.766,-100.159,-22.566,-13.574,169.711
 15:30:54.476,eb:33:2e:f9:57:b5, 2085-97-70 01:121:05:7948,-0.538,-0.032,6.543,802.429,261.78,-165.344,-14.93,-12.003,167.58
 15:30:54.476,eb:33:2e:f9:57:b5, 2085-97-229 250:192:243:527,0.294,0.189,2.613,786.56,256.653,-165.833,-6.422,-9.767,165.278
 15:30:54.476,eb:33:2e:f9:57:b5, 2085-97-86 25:198:100:3530,1.165,4.848,0.363,315.247,-130.249,159.485,-0.604,-9.064,164.828
 15:30:54.476,eb:33:2e:f9:57:b5, 2085-97-51 227:140:222:-1646,-4.692,-2.785,3.822,-49.194,601.379,1.77,-0.264,-8.262,163.564
 15:30:54.537,eb:33:2e:f9:57:b5, 2085-97-88 240:93:255:-381,1.786,1.453,-3.903,40.71,-89.355,-80.322,0,-3.697,164.443
 15:30:54.537,eb:33:2e:f9:57:b5, 2085-97-129 21:163:00:6353,0.462,0.138,2.351,48.096,-132.751,-93.933,0.626,-6.207,163.141
 15:30:54.537,eb:33:2e:f9:57:b5, 2085-97-173 244:65:255:312,-1.376,-0.296,1.609,52.124,271.912,25.391,1.148,-4.647,162.96
 15:30:54.537,eb:33:2e:f9:57:b5, 2085-97-127 252:165:251:2267,0.382,-0.362,0.053,67.139,-15.442,-62.561,1.73,-3.29,162.872
 15:30:54.596,eb:33:2e:f9:57:b5, 2085-97-120 02:136:03:2481,0.021,0.3,1.75,56.396,19.958,-6.348,2.444,-3.631,162.521
 15:30:54.596,eb:33:2e:f9:57:b5, 2085-97-209 04:127:04:2470,0.941,0.226,0.922,29.114,44.312,-19.836,2.845,-3.054,162.444
 15:30:54.596,eb:33:2e:f9:57:b5, 2085-97-01 03:232:01:2551,-0.331,0.4,1.601,1.221,94.971,-39.429,3.027,-2.494,162.004
 15:30:54.596,eb:33:2e:f9:57:b5, 2085-97-154 253:101:01:1440,-0.046,0.198,0.868,-10.071,90.576,-60.974,2.961,-1.357,161.636
 15:30:54.598,eb:33:2e:f9:57:b5, 2085-97-160 01:187:00:2423,0.609,-0.36,1.337,-12.39,33.142,-28.992,2.851,-0.895,161.109
 15:30:54.598,eb:33:2e:f9:57:b5, 2085-97-211 04:111:22:-6872,0.279,1.692,-1.335,-61.584,-3.784,-48.035,2.703,-0.599,160.812
 15:30:54.598,eb:33:2e:f9:57:b5, 2085-97-131 00:09:229:18043,-0.17,-2.299,4.637,-134.644,-120.667,5.249,1.132,-2.027,159.725
 15:30:54.598,eb:33:2e:f9:57:b5, 2085-97-52 253:90:243:6107,0.541,-3.393,8.117,171.509,57.556,185.669,1.434,-2.197,160.889
 15:30:54.657,eb:33:2e:f9:57:b5, 2085-97-125 05:11:252:4600,0.09,-0.092,0.655,284.485,-102.6,67.261,3.856,-2.203,162.438
 15:30:54.657,eb:33:2e:f9:57:b5, 2085-97-105 07:29:248:7892,0.879,-1.341,4.431,355.286,-47.241,-20.02,7.07,-3.29,162.367
 15:30:54.657,eb:33:2e:f9:57:b5, 2085-97-31 08:73:248:6371,1.264,-1.026,3.002,408.875,34.241,-47.302,10.948,-3.224,162.059
 15:30:54.657,eb:33:2e:f9:57:b5, 2085-97-05 12:127:245:7780,1.824,-0.892,3.644,486.267,100.83,-103.271,15.496,-2.324,161.483
 15:30:54.685,eb:33:2e:f9:57:b5, 2085-97-106 12:234:252:7383,1.492,-1.159,3.589,539.001,198.914,-107.544,20.72,-0.533,160.933
 15:30:54.685,eb:33:2e:f9:57:b5, 2085-97-146 08:150:00:4960,1.068,-0.516,3.376,546.997,295.776,-97.9,26.175,2.296,160.955
 15:30:54.685,eb:33:2e:f9:57:b5, 2085-97-62 07:172:04:3609,0.742,0.332,1.917,528.381,267.334,-136.23,31.586,5.323,161.318
 15:30:54.685,eb:33:2e:f9:57:b5, 2085-97-98 04:180:10:5317,0.397,1.285,1.953,508.728,246.338,-218.506,36.738,8.405,161.268
 15:30:54.717,eb:33:2e:f9:57:b5, 2085-97-242 02:221:252:10122,0.572,0.862,3.604,520.935,299.5,-295.837,41.759,12.14,160.796
 15:30:54.717,eb:33:2e:f9:57:b5, 2085-97-12 253:33:243:2620,-0.546,-2.286,5.174,634.521,451.782,-183.044,47.752,16.924,161.636
 15:30:54.717,eb:33:2e:f9:57:b5, 2085-97-01 254:34:245:-5188,0.865,0,-1.845,545.959,335.754,-46.997,54.877,20.121,164.641
 15:30:54.717,eb:33:2e:f9:57:b5, 2085-97-31 02:65:05:-6902,-0.067,-0.518,-3.096,354.248,260.254,133.85,60.293,21.05,167.322
 15:30:54.747,eb:33:2e:f9:57:b5, 2085-97-82 01:53:03:4127,-0.077,0.474,-0.932,208.74,102.783,112.732,63.666,20.847,169.662
 15:30:54.747,eb:33:2e:f9:57:b5, 2085-97-170 254:169:07:8340,-0.062,0.676,3.375,205.017,111.572,74.646,66.187,20.457,171.2
 15:30:54.747,eb:33:2e:f9:57:b5, 2085-97-202 255:223:05:7565,0.056,1.036,4.126,253.479,94.91,-0.916,68.879,20.544,172.31
 15:30:54.747,eb:33:2e:f9:57:b5, 2085-97-64 01:40:03:6388,0.188,0.446,3.358,288.757,91.736,-35.706,71.9,21.099,173.134
 15:30:54.807,eb:33:2e:f9:57:b5, 2085-97-191 01:39:05:5948,0.246,0.507,2.953,304.688,92.529,-58.716,75.185,21.824,173.99
 15:30:54.807,eb:33:2e:f9:57:b5, 2085-97-88 02:254:04:6028,0.396,0.725,2.891,311.951,48.523,-120.361,78.453,22.874,174.501
 15:30:54.807,eb:33:2e:f9:57:b5, 2085-97-223 03:208:00:6607,0.486,0.379,3.088,303.223,14.404,-179.382,81.524,24.439,174.496
 15:30:54.807,eb:33:2e:f9:57:b5, 2085-97-198 03:61:253:6549,0.521,-0.143,3.252,276.672,17.639,-212.891,84.337,26.444,174.353
 15:30:54.837,eb:33:2e:f9:57:b5, 2085-97-90 04:160:250:6100,0.559,-0.517,3.137,235.718,28.931,-229.858,86.902,28.691,174.391
 15:30:54.837,eb:33:2e:f9:57:b5, 2085-97-249 03:143:249:5107,0.413,-0.729,2.727,177.185,48.279,-223.267,89.077,30.981,174.716
 15:30:54.837,eb:33:2e:f9:57:b5, 2085-97-184 02:163:246:4336,0.337,-0.949,2.303,107.91,52.856,-203.735,90.764,33.124,175.309
 15:30:54.837,eb:33:2e:f9:57:b5, 2085-97-173 02:205:243:3497,0.333,-1.372,1.916,43.335,62.195,-166.26,91.818,34.986,175.968
 15:30:54.896,eb:33:2e:f9:57:b5, 2085-97-232 02:83:241:2520,0.415,-1.663,1.493,-21.057,96.741,-107.056,92.488,36.304,177.023
 15:30:54.896,eb:33:2e:f9:57:b5, 2085-97-153 03:01:239:813,0.505,-2,0.867,-89.539,123.535,-44.006,92.697,37.013,178.412
 15:30:54.896,eb:33:2e:f9:57:b5, 2085-97-93 04:150:239:-1339,0.637,-2.161,-0.12,-180.115,142.883,33.63,92.329,36.991,-179.885
 15:30:54.896,eb:33:2e:f9:57:b5, 2085-97-160 06:241:244:-2575,1.045,-1.756,-1.067,-298.035,140.137,97.717,90.895,36.26,-178.138
 15:30:54.929,eb:33:2e:f9:57:b5, 2085-97-80 11:185:249:-2114,1.849,-1.112,-1.285,-418.762,89.783,111.45,88.088,35.2,-176.622
 15:30:54.929,eb:33:2e:f9:57:b5, 2085-97-252 14:46:253:-2486,1.906,-0.63,-0.918,-521.545,85.327,83.679,83.831,34.437,-175.732
 15:30:54.929,eb:33:2e:f9:57:b5, 2085-97-245 14:102:252:-2290,1.959,-0.435,-1.188,-585.693,20.142,30.518,78.624,33.931,-174.913
 15:30:54.929,eb:33:2e:f9:57:b5, 2085-97-97 15:205:250:-1246,1.863,-0.543,-0.882,-597.412,-78.857,-42.48,72.361,33.981,-175.457
 15:30:54.957,eb:33:2e:f9:57:b5, 2085-97-42 14:150:253:-326,1.572,-0.511,-0.35,-587.891,-161.743,-81.604,65.495,34.08,-177.133
 15:30:54.957,eb:33:2e:f9:57:b5, 2085-97-214 11:149:253:492,1.394,-0.241,-0.015,-575.134,-247.192,-124.451,58.107,33.992,-179.94
 15:30:54.957,eb:33:2e:f9:57:b5, 2085-97-111 10:144:252:1932,1.144,-0.398,0.535,-557.251,-316.101,-154.968,50.372,33.415,176.281
 15:30:54.957,eb:33:2e:f9:57:b5, 2085-97-27 07:127:253:2906,0.621,-0.393,1.234,-540.161,-345.825,-161.194,42.627,32.217,172.084
 15:30:55.046,eb:33:2e:f9:57:b5, 2085-97-142 03:144:253:3926,0.215,-0.264,1.612,-533.447,-367.065,-158.875,35.195,30.383,168.058
 15:30:55.046,eb:33:2e:f9:57:b5, 2085-97-182 255:124:253:4387,-0.241,-0.327,2.102,-529.785,-349.365,-133.118,28.125,28.037,164.476
 15:30:55.046,eb:33:2e:f9:57:b5, 2085-97-16 253:252:253:4121,-0.473,-0.284,2.094,-522.156,-321.533,-87.646,21.698,25.444,161.867
 15:30:55.046,eb:33:2e:f9:57:b5, 2085-97-238 251:99:254:3816,-0.474,-0.211,1.888,-502.991,-316.711,-32.776,15.859,22.61,160.175
 15:30:55.046,eb:33:2e:f9:57:b5, 2085-97-224 252:79:254:4094,-0.228,-0.22,1.954,-468.933,-324.097,30.64,10.745,19.468,159.472
 15:30:55.048,eb:33:2e:f9:57:b5, 2085-113-81 00:215:232:4122,-0.031,-0.147,1.936,-426.27,-327.881,93.262,6.312,16.144,159.675
 15:30:55.048,eb:33:2e:f9:57:b5, 2085-97-114 01:163:01:3533,0.364,-0.015,1.813,-406.86,-337.28,118.469,4.351,14.442,160.126
 15:30:55.048,eb:33:2e:f9:57:b5, 2085-97-104 03:34:06:3462,0.374,0.473,1.708,-378.174,-368.591,144.958,0.681,10.86,161.389
 15:30:55.048,eb:33:2e:f9:57:b5, 2085-97-81 02:73:10:4107,0.197,1.061,1.73,-355.713,-426.392,135.864,-2.741,6.927,162.999
 15:30:55.076,eb:33:2e:f9:57:b5, 2085-97-22 00:187:12:5800,-0.254,1.445,2.464,-342.346,-457.764,97.29,-6.13,2.538,164.553
 15:30:55.076,eb:33:2e:f9:57:b5, 2085-97-50 251:238:13:6555,-0.939,1.699,3.027,-346.252,-438.11,49.377,-9.569,-1.78,165.965
 15:30:55.076,eb:33:2e:f9:57:b5, 2085-97-58 245:193:13:7797,-1.783,1.745,3.473,-346.924,-400.574,1.953,-13.167,-5.85,167.064
 15:30:55.076,eb:33:2e:f9:57:b5, 2085-97-246 238:55:13:7902,-2.373,1.697,3.918,-325.317,-321.655,-23.682,-16.65,-9.349,167.937
 15:30:55.137,eb:33:2e:f9:57:b5, 2085-97-249 235:120:12:7389,-2.457,1.593,3.726,-299.866,-237.488,-25.574,-19.913,-12.03,168.596
 15:30:55.137,eb:33:2e:f9:57:b5, 2085-97-167 237:237:13:7400,-2.089,1.582,3.608,-286.011,-155.029,-9.277,-22.956,-13.898,169.2
 15:30:55.137,eb:33:2e:f9:57:b5, 2085-97-143 241:107:18:6532,-1.541,2.013,3.473,-274.963,-49.805,18.188,-25.911,-14.744,169.684
 15:30:55.137,eb:33:2e:f9:57:b5, 2085-97-177 245:79:24:4144,-1.133,2.645,2.736,-236.572,26.978,37.537,-28.559,-14.617,169.991
 15:30:55.167,eb:33:2e:f9:57:b5, 2085-97-150 247:45:26:2030,-1.255,3.233,1.433,-147.217,-7.202,20.874,-30.509,-14.282,170.167
 15:30:55.167,eb:33:2e:f9:57:b5, 2085-97-169 242:244:24:2011,-2.052,3.242,0.778,-40.649,-131.714,-12.268,-31.514,-14.859,170.618
 15:30:55.167,eb:33:2e:f9:57:b5, 2085-97-25 238:228:19:3850,-2.249,2.824,1.45,67.566,-225.159,-45.166,-31.525,-16.655,171.392
 15:30:55.167,eb:33:2e:f9:57:b5, 2085-97-67 239:78:17:4922,-4.686,2.271,2.212,128.052,-168.213,-30.823,-30.712,-18.622,172.216
 15:30:55.196,eb:33:2e:f9:57:b5, 2085-97-38 15:19:37:979,0.339,-5.865,11.098,466.98,530.09,463.989,-28.63,-18.853,172.864
 15:30:55.196,eb:33:2e:f9:57:b5, 2085-97-155 10:188:10:2862,1.459,2.827,-4.434,526.978,261.78,-3.357,-22.56,-15.276,171.914
 15:30:55.196,eb:33:2e:f9:57:b5, 2085-97-61 14:20:250:14368,0.186,0.015,7.844,646.79,296.448,-190.674,-16.727,-14.002,169.98
 15:30:55.196,eb:33:2e:f9:57:b5, 2085-97-227 248:149:253:5958,-1.542,-0.578,4.598,846.802,374.451,-179.565,-8.3,-10.761,167.217
 15:30:55.315,eb:33:2e:f9:57:b5, 2085-97-187 18:20:68:-7506,0.886,-2.798,0.565,644.165,122.253,4.7,-0.242,-8.135,165.344
 15:30:55.315,eb:33:2e:f9:57:b5, 2085-97-183 233:46:203:4225,-6.241,7.607,6.272,-127.625,368.164,-302.063,1.406,-8.344,165.657
 15:30:55.315,eb:33:2e:f9:57:b5, 2085-97-220 231:231:12:-1565,1.641,-1.534,-5.207,85.571,156.494,131.042,1.181,-1.697,167.717
 15:30:55.315,eb:33:2e:f9:57:b5, 2085-97-115 18:08:252:4830,-0.838,-0.59,3.646,63.049,-72.021,-87.097,1.802,-3.999,165.965
 15:30:55.318,eb:33:2e:f9:57:b5, 2085-97-19 241:100:05:-1114,-1.319,-0.404,0.866,92.407,184.387,56.885,2.659,-2.714,165.943
 15:30:55.318,eb:33:2e:f9:57:b5, 2085-97-80 01:61:255:3473,-0.018,-1.025,0.607,89.294,-93.384,-73.303,3.472,-2.615,165.515
 15:30:55.318,eb:33:2e:f9:57:b5, 2085-97-150 02:169:02:2121,0.702,0.189,1.395,67.932,27.71,6.165,4.318,-2.873,165.152
 15:30:55.318,eb:33:2e:f9:57:b5, 2085-97-89 10:63:06:2726,1.119,0.678,1.229,42.664,-10.254,-74.463,4.966,-2.807,164.663
 15:30:55.320,eb:33:2e:f9:57:b5, 2085-97-243 02:69:03:2020,-0.237,0.327,1.652,0,86.731,-31.677,5.109,-2.488,164.18
 15:30:55.320,eb:33:2e:f9:57:b5, 2085-97-202 255:226:15:-3478,0.34,0.413,0.196,-23.682,78.308,-59.082,5.026,-1.461,163.817
 15:30:55.320,eb:33:2e:f9:57:b5, 2085-97-128 05:162:247:4986,-0.628,0.852,0.068,-146.484,-56.519,-136.108,4.081,-1.533,162.631
 15:30:55.320,eb:33:2e:f9:57:b5, 2085-97-218 246:229:247:6192,0.303,-0.499,1.772,-79.102,82.031,-50.476,2.961,-0.835,161.993
 15:30:55.377,eb:33:2e:f9:57:b5, 2085-97-234 252:158:238:9705,-0.185,-2.478,6.062,93.811,-8.24,59.082,3.109,-1.132,161.675
 15:30:55.377,eb:33:2e:f9:57:b5, 2085-97-87 02:110:253:3249,0.511,-1.073,2.902,216.125,-14.832,169.128,4.763,-1.181,163.174
 15:30:55.377,eb:33:2e:f9:57:b5, 2085-97-210 05:162:252:5618,0.914,-0.055,1.669,266.846,-114.136,62.622,7.224,-2.016,164.366
 15:30:55.377,eb:33:2e:f9:57:b5, 2085-97-63 09:248:247:9636,1.224,-0.816,4.154,329.773,-39.551,-10.376,10.184,-2.9,164.383
 15:30:55.407,eb:33:2e:f9:57:b5, 2085-97-62 10:249:249:7193,1.461,-1.084,3.869,426.147,77.271,-43.335,14.024,-2.538,164.13
 15:30:55.407,eb:33:2e:f9:57:b5, 2085-97-161 13:39:248:8137,1.723,-0.835,3.869,495.605,144.897,-95.398,18.682,-1.236,163.751
 15:30:55.407,eb:33:2e:f9:57:b5, 2085-97-124 10:76:02:5353,1.173,-0.44,3.408,563.293,189.331,-112.915,24.066,0.764,163.389
 15:30:55.407,eb:33:2e:f9:57:b5, 2085-97-96 04:154:04:2736,0.052,0.274,1.733,548.279,143.555,-178.589,29.647,3.021,162.817
 15:30:55.465,eb:33:2e:f9:57:b5, 2085-97-78 254:165:14:3082,-0.401,1.047,1.134,492.676,98.816,-236.877,34.75,5.103,161.609
 15:30:55.465,eb:33:2e:f9:57:b5, 2085-97-134 251:83:05:7790,-0.398,1.575,2.597,450.378,140.564,-341.187,39.188,7.773,159.774
 15:30:55.465,eb:33:2e:f9:57:b5, 2085-97-02 254:149:249:7754,-0.907,-0.037,4.365,497.864,346.436,-276.855,43.753,11.744,159.022
 15:30:55.465,eb:33:2e:f9:57:b5, 2085-97-104 248:16:04:-2903,-0.08,-0.204,1.024,538.879,368.591,-92.712,49.565,15.617,160.604
 15:30:55.497,eb:33:2e:f9:57:b5, 2085-97-86 01:208:251:-3605,0.359,-0.641,-1.755,368.347,310.303,41.26,54.591,17.891,162.971
 15:30:55.497,eb:33:2e:f9:57:b5, 2085-97-219 02:182:05:439,0.516,0.435,-1.181,241.516,282.898,131.348,58.557,18.682,166.223
 15:30:55.497,eb:33:2e:f9:57:b5, 2085-97-127 02:97:08:5405,0.127,0.921,1.875,217.468,194.58,109.375,61.617,18.787,168.97
 15:30:55.497,eb:33:2e:f9:57:b5, 2085-97-31 02:119:06:5833,0.351,0.99,2.741,276.367,86.609,22.156,64.594,18.907,170.612
 15:30:55.526,eb:33:2e:f9:57:b5, 2085-97-79 02:14:03:5547,0.21,0.552,2.816,317.078,26.733,-29.663,67.742,19.221,171.019
 15:30:55.526,eb:33:2e:f9:57:b5, 2085-97-191 01:09:01:6132,0.318,0.268,2.729,321.472,2.747,-52.795,70.944,19.666,170.997
 15:30:55.526,eb:33:2e:f9:57:b5, 2085-97-00 03:43:253:7388,0.372,-0.075,3.395,307.983,11.169,-69.885,74.015,20.281,170.81
 15:30:55.526,eb:33:2e:f9:57:b5, 2085-97-170 02:122:249:6303,0.331,-0.624,3.455,289.795,51.819,-73.73,77.042,21.077,170.969
 15:30:55.557,eb:33:2e:f9:57:b5, 2085-97-204 02:98:250:4802,0.423,-0.837,2.684,266.846,71.838,-63.965,79.991,21.896,171.497
 15:30:55.557,eb:33:2e:f9:57:b5, 2085-97-17 04:236:252:4569,0.572,-0.509,2.174,234.314,46.265,-71.96,82.683,22.648,172.046
 15:30:55.557,eb:33:2e:f9:57:b5, 2085-97-84 05:124:251:5922,0.664,-0.422,2.504,202.454,9.277,-101.624,84.869,23.555,172.189
 15:30:55.557,eb:33:2e:f9:57:b5, 2085-97-93 05:96:250:6311,0.706,-0.689,3.103,184.326,7.568,-130.188,86.765,24.741,172.161
 15:30:55.616,eb:33:2e:f9:57:b5, 2085-97-138 05:27:250:5748,0.569,-0.709,2.98,159.302,24.048,-148.804,88.478,26.169,172.222
 15:30:55.616,eb:33:2e:f9:57:b5, 2085-97-130 03:161:248:4631,0.396,-0.794,2.523,119.812,44.128,-154.724,90.027,27.708,172.623
 15:30:55.616,eb:33:2e:f9:57:b5, 2085-97-111 03:209:245:3804,0.491,-1.103,2.067,75.928,40.955,-152.71,91.165,29.262,173.068
 15:30:55.616,eb:33:2e:f9:57:b5, 2085-97-127 04:220:242:2836,0.736,-1.429,1.621,21.606,56.396,-133.606,91.906,30.696,173.661
 15:30:55.646,eb:33:2e:f9:57:b5, 2085-97-140 05:233:240:1550,0.467,-1.919,1.532,-37.842,109.009,-99.854,92.258,31.915,174.573
 15:30:55.646,eb:33:2e:f9:57:b5, 2085-97-73 04:141:242:-2146,0.576,-1.767,-0.252,-146.179,154.907,-24.536,92.192,32.41,176.27
 15:30:55.646,eb:33:2e:f9:57:b5, 2085-97-116 05:42:247:-3913,0.858,-1.447,-1.737,-304.199,158.936,39.551,90.868,32.272,178.143
 15:30:55.646,eb:33:2e:f9:57:b5, 2085-97-132 08:53:249:-1934,1.127,-0.95,-1.483,-467.041,121.155,55.42,87.731,31.789,179.813
 15:30:55.677,eb:33:2e:f9:57:b5, 2085-97-238 11:71:250:-897,1.728,-0.843,-0.694,-557.922,69.641,35.034,83.095,31.432,-178.984
 15:30:55.677,eb:33:2e:f9:57:b5, 2085-97-190 10:15:251:-1222,1.455,-0.681,-0.32,-586.853,43.091,6.348,77.635,31.41,-178.369
 15:30:55.677,eb:33:2e:f9:57:b5, 2085-113-81 00:27:237:7367,1.421,-0.652,-0.341,-569.031,-71.716,-54.199,71.587,31.646,-178.83
 15:30:55.677,eb:33:2e:f9:57:b5, 2085-97-193 10:36:252:-383,1.151,-0.579,-0.231,-564.453,-117.188,-65.918,68.406,31.756,-179.506
 15:30:55.736,eb:33:2e:f9:57:b5, 2085-97-213 08:206:250:609,1.02,-0.517,-0.065,-560.303,-216.736,-100.159,61.639,31.75,178.303
 15:30:55.736,eb:33:2e:f9:57:b5, 2085-97-137 07:174:248:2009,0.861,-0.79,0.627,-567.017,-274.902,-107.422,54.333,31.278,175.111
 15:30:55.736,eb:33:2e:f9:57:b5, 2085-97-117 06:174:249:3239,0.731,-0.909,1.296,-575.256,-285.522,-94.604,46.967,30.218,171.87
 15:30:55.736,eb:33:2e:f9:57:b5, 2085-97-199 04:70:251:4150,0.449,-0.678,1.821,-581.665,-281.494,-83.862,39.699,28.74,168.898
 15:30:55.767,eb:33:2e:f9:57:b5, 2085-97-88 02:149:252:4662,0.166,-0.487,2.212,-573.12,-279.419,-67.505,32.756,26.884,166.399
 15:30:55.767,eb:33:2e:f9:57:b5, 2085-97-170 00:128:253:4410,0.005,-0.37,2.221,-546.814,-286.743,-43.64,26.241,24.67,164.333
 15:30:55.767,eb:33:2e:f9:57:b5, 2085-97-144 255:76:255:4809,-0.075,-0.229,2.215,-514.221,-305.664,-4.822,20.374,22.011,162.889
 15:30:55.767,eb:33:2e:f9:57:b5, 2085-97-228 255:148:02:4867,0.087,0.106,2.391,-478.149,-312.5,33.508,15.112,18.99,162.081
 15:30:55.826,eb:33:2e:f9:57:b5, 2085-97-153 00:113:05:4420,0.001,0.527,2.326,-452.026,-321.899,52.917,10.421,15.798,161.889
 15:30:55.826,eb:33:2e:f9:57:b5, 2085-97-235 255:53:05:4522,-0.123,0.74,2.049,-440.979,-365.051,54.138,5.955,12.305,161.977
 15:30:55.826,eb:33:2e:f9:57:b5, 2085-97-140 253:166:05:4763,-0.426,0.634,2.273,-440.491,-381.836,73.669,1.62,8.52,162.449
 15:30:55.826,eb:33:2e:f9:57:b5, 2085-97-39 252:221:08:6127,-0.566,0.869,2.618,-428.345,-390.381,88.196,-2.675,4.636,163.367
 15:30:55.886,eb:33:2e:f9:57:b5, 2085-97-155 250:124:13:6801,-0.79,1.375,3.23,-410.278,-347.961,83.923,-6.812,1.044,164.63
 15:30:55.886,eb:33:2e:f9:57:b5, 2085-97-66 248:101:19:6811,-1.333,2.055,3.349,-390.381,-305.725,45.227,-10.871,-2.027,165.822
 15:30:55.886,eb:33:2e:f9:57:b5, 2085-97-137 242:167:22:6840,-2.049,2.761,3.286,-364.136,-307.983,-46.265,-14.689,-4.977,166.575
 15:30:55.886,eb:33:2e:f9:57:b5, 2085-97-163 236:108:20:7467,-2.681,2.729,3.468,-330.139,-311.157,-126.343,-18.188,-8.245,166.608
 15:30:55.946,eb:33:2e:f9:57:b5, 2085-97-156 233:145:19:7847,-2.746,2.432,3.803,-292.053,-252.38,-145.935,-21.215,-11.42,166.3
 15:30:55.946,eb:33:2e:f9:57:b5, 2085-97-192 235:09:23:7001,-2.247,2.615,3.679,-263.062,-130.676,-116.272,-23.884,-13.667,165.817
 15:30:55.946,eb:33:2e:f9:57:b5, 2085-97-32 240:151:27:5426,-1.863,3.162,3.099,-211.975,-27.893,-80.078,-26.131,-14.711,165.273
 15:30:55.946,eb:33:2e:f9:57:b5, 2085-97-136 241:109:28:2878,-1.787,3.622,2.087,-102.173,-15.808,-67.2,-27.554,-15.139,164.685
 15:30:55.948,eb:33:2e:f9:57:b5, 2085-97-01 241:22:24:1139,-2.789,3.25,0.802,25.269,-106.018,-65.43,-27.762,-15.98,164.388
 15:30:55.948,eb:33:2e:f9:57:b5, 2085-97-81 250:89:51:-4849,-2.161,-4.159,8.097,351.379,-27.649,175.354,-26.636,-17.776,164.927
 15:30:55.948,eb:33:2e:f9:57:b5, 2085-97-30 237:44:43:-2929,-0.769,1.11,2.553,651.55,317.017,266.541,-21.687,-14.54,166.234
 15:30:55.948,eb:33:2e:f9:57:b5, 2085-97-45 251:112:28:15354,0.394,5.131,4.807,561.768,54.932,-51.941,-16.024,-13.162,166.74
 15:30:55.977,eb:33:2e:f9:57:b5, 2085-97-11 04:24:03:8885,-0.422,1.913,4.819,664.673,221.497,-126.099,-9.256,-11.53,165.482
 15:30:55.977,eb:33:2e:f9:57:b5, 2085-97-08 04:93:33:2036,0.932,-2.085,1.316,471.252,243.103,-57.617,-2.983,-8.855,163.729
 15:30:55.977,eb:33:2e:f9:57:b5, 2085-97-170 01:63:02:4957,-2.224,8.802,2.094,45.349,33.569,-112.244,-0.577,-8.438,163.954
 15:30:55.977,eb:33:2e:f9:57:b5, 2085-97-39 227:210:254:-4795,-2.22,-2.721,0.368,65.063,484.802,137.207,-0.352,-4.763,164.031
 15:30:56.036,eb:33:2e:f9:57:b5, 2085-97-253 02:132:05:2191,1.523,0.969,-0.886,55.359,-160.95,-99.609,0.379,-3.801,164.185
 15:30:56.036,eb:33:2e:f9:57:b5, 2085-97-107 08:193:02:3718,-0.389,0.248,2.105,36.133,27.954,-44.495,0.851,-4.746,163.427
 15:30:56.036,eb:33:2e:f9:57:b5, 2085-97-68 246:51:253:855,-0.487,-0.157,1.045,38.33,154.114,-15.564,1.241,-3.428,163.174
 15:30:56.036,eb:33:2e:f9:57:b5, 2085-97-54 01:123:255:3111,-0.218,-0.198,0.95,48.767,1.038,-57.983,1.708,-2.867,162.817
 15:30:56.066,eb:33:2e:f9:57:b5, 2085-97-209 252:23:02:1638,0.275,0.044,1.066,35.339,86.426,0.122,2.142,-2.274,162.636
 15:30:56.066,eb:33:2e:f9:57:b5, 2085-97-25 04:179:255:3042,-0.09,0.347,1.251,20.081,41.748,-56.03,2.472,-1.73,162.279
 15:30:56.066,eb:33:2e:f9:57:b5, 2085-97-203 253:22:03:1763,0.272,0.17,1.01,9.277,83.862,-18.127,2.604,-0.912,162.12
 15:30:56.066,eb:33:2e:f9:57:b5, 2085-97-57 255:136:254:2221,-0.329,0.362,1.354,-4.883,89.661,-79.285,2.642,-0.225,161.565
 15:30:56.096,eb:33:2e:f9:57:b5, 2085-97-56 02:30:05:909,0.065,0.194,0.704,-5.554,13.855,-54.138,2.587,0.39,161.186
 15:30:56.096,eb:33:2e:f9:57:b5, 2085-97-172 06:250:25:-5706,0.351,0.282,0.195,-42.175,-56.763,-21.851,2.357,0.055,160.703
 15:30:56.096,eb:33:2e:f9:57:b5, 2085-97-110 253:167:227:14830,-0.105,-1.435,3.194,-129.456,-169.189,-49.5,1.225,-1.807,159.461
 15:30:56.096,eb:33:2e:f9:57:b5, 2085-97-186 248:190:239:9866,0.387,-3.634,8.396,139.099,-17.944,197.632,1.274,-2.494,160.719
 15:30:56.127,eb:33:2e:f9:57:b5, 2085-97-193 07:145:255:1420,0.949,-0.271,1.138,296.997,-69.092,70.251,3.664,-2.664,162.18
 15:30:56.127,eb:33:2e:f9:57:b5, 2085-97-92 04:113:242:10633,0.944,-0.862,3.319,334.351,-155.396,-27.832,6.828,-4.208,162.169
 15:30:56.127,eb:33:2e:f9:57:b5, 2085-97-173 07:179:245:6868,1.169,-1.167,4.323,423.767,36.804,-23.071,10.739,-4.504,161.938
 15:30:56.127,eb:33:2e:f9:57:b5, 2085-97-155 12:60:249:7613,1.804,-1.401,3.646,482.91,140.198,-39.856,15.309,-3.516,161.796
 15:30:56.157,eb:33:2e:f9:57:b5, 2085-97-63 11:94:255:5230,1.182,-0.805,2.9,533.813,216.614,-69.214,20.429,-1.516,161.785
 15:30:56.157,eb:33:2e:f9:57:b5, 2085-97-243 02:109:254:3726,-0.142,-0.101,2.524,530.884,240.051,-98.083,25.763,1.005,161.84
 15:30:56.157,eb:33:2e:f9:57:b5, 2085-97-79 253:182:07:2171,-0.205,0.283,1.257,477.783,161.011,-148.438,30.855,3.345,161.708
 15:30:56.157,eb:33:2e:f9:57:b5, 2085-97-21 254:04:05:6697,-0.139,1.394,1.855,398.132,154.907,-232.788,35.09,5.592,160.812
 15:30:56.217,eb:33:2e:f9:57:b5, 2085-97-38 02:219:244:9119,-0.287,-0.273,4.359,460.632,340.454,-174.011,39.265,8.8,160.615
 15:30:56.217,eb:33:2e:f9:57:b5, 2085-97-22 251:09:10:-3424,-0.021,-0.123,0.91,545.837,356.14,24.17,44.967,12.063,162.554
 15:30:56.217,eb:33:2e:f9:57:b5, 2085-97-38 06:211:03:-3178,0.963,0.218,-2.172,360.291,237.427,82.031,49.823,13.81,165.042
 15:30:56.218,eb:33:2e:f9:57:b5, 2085-97-37 07:250:06:1192,0.967,1.031,-0.912,227.722,194.824,80.933,53.223,14.48,167.388
 15:30:56.247,eb:33:2e:f9:57:b5, 2085-97-00 06:202:06:6040,0.555,0.911,2.276,220.886,129.089,19.531,55.756,14.919,168.992
 15:30:56.247,eb:33:2e:f9:57:b5, 2085-97-15 05:07:04:5372,0.713,0.742,2.905,300.72,28.015,-95.764,58.491,15.76,169.442
 15:30:56.247,eb:33:2e:f9:57:b5, 2085-97-211 04:222:255:4414,0.374,0.177,2.329,344.116,-44.617,-163.452,61.545,16.864,168.547
 15:30:56.247,eb:33:2e:f9:57:b5, 2085-97-230 01:147:254:4868,0.149,-0.101,2.153,327.82,-67.322,-190.186,64.517,18.188,167.141
 15:30:56.277,eb:33:2e:f9:57:b5, 2085-97-71 01:30:252:6252,0.175,-0.306,2.698,287.476,-65.674,-207.397,67.083,19.709,165.597
 15:30:56.277,eb:33:2e:f9:57:b5, 2085-97-198 01:167:250:6726,0.291,-0.628,3.245,246.948,6.226,-193.481,69.335,21.473,164.46
 15:30:56.277,eb:33:2e:f9:57:b5, 2085-97-182 02:97:251:6071,0.426,-0.634,3.175,210.693,100.525,-167.297,71.576,23.346,164.421
 15:30:56.277,eb:33:2e:f9:57:b5, 2085-97-03 04:214:252:5508,0.613,-0.476,2.785,184.082,144.958,-159.851,73.834,25.296,165.207
 15:30:56.366,eb:33:2e:f9:57:b5, 2085-97-134 05:157:252:5764,0.765,-0.366,2.731,168.884,141.602,-173.218,76.036,27.285,166.278
 15:30:56.366,eb:33:2e:f9:57:b5, 2085-97-233 05:230:250:5489,0.75,-0.532,2.843,160.278,137.024,-187.805,78.124,29.394,167.283
 15:30:56.367,eb:33:2e:f9:57:b5, 2085-97-254 05:211:249:4614,0.704,-0.717,2.461,146.79,136.597,-190.735,80.211,31.531,168.415
 15:30:56.367,eb:33:2e:f9:57:b5, 2085-97-128 04:125:248:3993,0.422,-0.842,2.082,121.216,136.108,-180.847,82.161,33.613,169.618
 15:30:56.369,eb:33:2e:f9:57:b5, 2085-97-171 02:42:245:3696,0.291,-1.118,1.888,91.37,113.647,-165.1,83.892,35.486,170.87
 15:30:56.369,eb:33:2e:f9:57:b5, 2085-97-230 02:138:240:2818,0.534,-1.634,1.602,60.303,75.5,-139.099,85.144,37.112,171.782
 15:30:56.369,eb:33:2e:f9:57:b5, 2085-97-20 05:170:236:1492,0.592,-2.2,1.114,23.926,66.956,-88.318,85.974,38.315,172.507
 15:30:56.369,eb:33:2e:f9:57:b5, 2085-97-243 03:155:238:-2004,0.601,-2.36,-0.005,-60.608,115.54,15.381,86.479,38.716,173.661
 15:30:56.427,eb:33:2e:f9:57:b5, 2085-97-246 05:77:243:-4269,0.912,-1.995,-1.716,-203.674,115.356,95.215,86.089,38.21,175.232
 15:30:56.427,eb:33:2e:f9:57:b5, 2085-97-112 08:245:247:-2813,1.24,-1.207,-1.895,-383.972,86.609,133.24,83.853,37.134,176.622
 15:30:56.427,eb:33:2e:f9:57:b5, 2085-97-115 11:91:249:-1319,1.531,-0.911,-0.909,-492.004,50.476,125.732,79.969,35.925,177.704
 15:30:56.428,eb:33:2e:f9:57:b5, 2085-97-246 13:162:250:-740,1.806,-0.739,-0.584,-521.545,-9.827,87.036,75.119,34.942,178.248
 15:30:56.457,eb:33:2e:f9:57:b5, 2085-97-150 15:61:253:-773,1.844,-0.576,-0.283,-501.953,-81.909,33.508,69.802,34.239,177.918
 15:30:56.457,eb:33:2e:f9:57:b5, 2085-97-28 13:158:255:-1502,1.661,-0.024,-0.69,-497.314,-177.49,-7.568,64.045,33.569,176.556
 15:30:56.457,eb:33:2e:f9:57:b5, 2085-97-43 13:65:252:602,1.525,-0.245,-0.23,-493.591,-303.65,-70.74,57.535,32.679,173.672
 15:30:56.457,eb:33:2e:f9:57:b5, 2085-97-247 10:39:251:2232,1.206,-0.584,0.717,-500.244,-343.933,-88.318,50.603,31.371,169.969
 15:30:56.486,eb:33:2e:f9:57:b5, 2085-97-183 08:97:251:3494,0.927,-0.606,1.426,-509.827,-346.619,-102.112,43.709,29.663,166.317
 15:30:56.486,eb:33:2e:f9:57:b5, 2085-97-81 06:06:252:4100,0.662,-0.522,1.881,-521.667,-332.397,-114.685,36.898,27.74,162.889
 15:30:56.486,eb:33:2e:f9:57:b5, 2085-97-118 04:153:251:4490,0.508,-0.507,2.113,-526.672,-328.979,-126.465,30.262,25.62,159.78
 15:30:56.486,eb:33:2e:f9:57:b5, 2085-97-203 03:227:251:4680,0.39,-0.569,2.264,-516.907,-328.979,-128.906,23.829,23.231,156.896
 15:30:56.547,eb:33:2e:f9:57:b5, 2085-97-213 01:49:254:4686,0.037,-0.395,2.294,-491.943,-338.257,-123.169,17.875,20.539,154.429
 15:30:56.547,eb:33:2e:f9:57:b5, 2085-97-181 254:132:00:4756,-0.359,-0.046,2.281,-456.665,-377.197,-117.432,12.415,17.353,152.249
 15:30:56.548,eb:33:2e:f9:57:b5, 2085-97-01 252:228:00:5385,-0.603,0.102,2.451,-417.358,-416.992,-100.586,7.597,13.568,150.502
 15:30:56.548,eb:33:2e:f9:57:b5, 2085-97-57 250:157:01:5599,-0.877,0.137,2.744,-377.319,-426.025,-69.763,3.378,9.399,149.277
 15:30:56.637,eb:33:2e:f9:57:b5, 2085-97-253 247:96:03:5272,-1.148,0.304,2.619,-351.257,-429.749,-29.724,-0.308,5.136,148.76
 15:30:56.637,eb:33:2e:f9:57:b5, 2085-97-251 245:95:06:5987,-1.328,0.577,2.653,-341.98,-441.162,6.592,-3.801,0.764,148.881
 15:30:56.637,eb:33:2e:f9:57:b5, 2085-97-200 244:187:10:7130,-1.444,1.071,3.255,-332.581,-418.701,30.884,-7.196,-3.51,149.601
 15:30:56.637,eb:33:2e:f9:57:b5, 2085-97-131 243:87:14:6917,-1.753,1.604,3.55,-314.636,-358.154,41.016,-10.58,-7.267,150.628
 15:30:56.637,eb:33:2e:f9:57:b5, 2085-113-58 00:135:226:-6690,-1.964,2.08,3.106,-271.423,-343.323,29.724,-13.694,-10.53,151.826
 15:30:56.637,eb:33:2e:f9:57:b5, 2085-97-206 238:171:20:6098,-2.375,2.422,2.969,-244.995,-361.084,0.549,-15.117,-12.217,152.364
 15:30:56.637,eb:33:2e:f9:57:b5, 2085-97-92 235:150:19:7095,-2.774,2.579,3.119,-196.289,-391.724,-63.293,-17.496,-15.963,153.21
 15:30:56.637,eb:33:2e:f9:57:b5, 2085-97-70 232:82:19:8080,-2.999,2.335,3.859,-145.02,-342.468,-82.092,-19.363,-19.759,153.721
 15:30:56.637,eb:33:2e:f9:57:b5, 2085-97-130 233:199:22:6699,-2.547,2.621,3.706,-99.854,-191.284,-52.734,-20.665,-22.473,154.083
 15:30:56.666,eb:33:2e:f9:57:b5, 2085-97-155 237:252:23:4086,-2.092,2.989,2.697,-65.796,-48.035,-11.475,-21.55,-23.555,154.21
 15:30:56.666,eb:33:2e:f9:57:b5, 2085-97-226 239:40:23:1189,-1.935,2.937,1.218,-2.502,-28.442,13.916,-21.945,-23.758,154.385
 15:30:56.666,eb:33:2e:f9:57:b5, 2085-97-93 217:129:226:18060,-2.111,2.729,0.375,94.238,-221.619,-35.583,-21.709,-24.587,154.863
 15:30:56.666,eb:33:2e:f9:57:b5, 2085-97-220 235:143:29:-4993,1.488,4.219,3.502,578.003,102.112,-117.737,-18.413,-23.269,155.797
 15:30:56.698,eb:33:2e:f9:57:b5, 2085-97-213 02:249:17:22000,-1.084,8.448,0.125,503.784,3.113,-158.142,-12.409,-21.682,155.479
 15:30:56.699,eb:33:2e:f9:57:b5, 2085-97-125 246:233:241:9251,0.193,1.857,4.862,676.147,525.208,-114.624,-5.592,-17.501,153.94
 15:30:56.699,eb:33:2e:f9:57:b5, 2085-97-107 42:45:95:-671,-1.512,-0.252,1.547,394.409,198.792,251.526,0.132,-13.118,153.693
 15:30:56.699,eb:33:2e:f9:57:b5, 2085-97-79 214:68:221:-2091,-6.458,2.531,3.483,-76.721,702.759,26.733,0.89,-9.882,153.6
 15:30:56.726,eb:33:2e:f9:57:b5, 2085-97-71 244:242:255:768,2.102,-0.747,-4.219,52.246,-56.396,-7.08,0.527,-4.609,155.748
 15:30:56.726,eb:33:2e:f9:57:b5, 2085-97-102 04:144:255:2186,-1.409,0.349,3.038,50.232,97.351,5.737,1.236,-6.24,154.622
 15:30:56.726,eb:33:2e:f9:57:b5, 2085-97-20 247:205:04:-159,-0.087,0.115,-0.362,49.194,81.055,30.762,1.747,-4.62,154.94
 15:30:56.726,eb:33:2e:f9:57:b5, 2085-97-167 03:122:255:3779,0.157,-0.287,1.178,44.434,-55.054,-55.603,2.203,-4.812,154.545
 15:30:56.786,eb:33:2e:f9:57:b5, 2085-97-23 255:213:00:1785,-0.178,0.024,1.2,31.738,55.786,13.428,2.615,-4.548,154.424
 15:30:56.786,eb:33:2e:f9:57:b5, 2085-97-46 05:92:03:3098,0.239,0.072,0.908,34.241,9.216,-17.944,2.928,-4.257,154.462
 15:30:56.786,eb:33:2e:f9:57:b5, 2085-97-48 04:142:04:2636,0.471,0.417,1.021,14.221,18.005,-11.963,3.268,-3.928,154.056
 15:30:56.786,eb:33:2e:f9:57:b5, 2085-97-32 254:214:255:1396,-0.866,0.221,1.249,-7.935,92.773,-7.69,3.246,-3.378,153.984
 15:30:56.815,eb:33:2e:f9:57:b5, 2085-97-45 250:125:00:1582,0.382,0.23,-0.056,-13.672,11.414,-28.015,3.186,-2.664,153.853
 15:30:56.815,eb:33:2e:f9:57:b5, 2085-97-175 06:117:09:-958,1.07,0.48,0.899,-13.489,-58.044,-74.097,3.126,-3.104,153.292
 15:30:56.815,eb:33:2e:f9:57:b5, 2085-97-169 03:13:243:7377,-1.278,1.552,-0.147,-106.934,-110.962,-127.869,2.609,-3.823,152.292
 15:30:56.815,eb:33:2e:f9:57:b5, 2085-97-83 252:136:246:8960,0.502,-1.696,3.267,-6.531,41.26,23.376,1.934,-3.356,152.161
 15:30:56.845,eb:33:2e:f9:57:b5, 2085-97-157 253:130:248:5005,-0.128,-1.765,4.393,150.391,43.701,38.086,2.785,-3.345,152.023
 15:30:56.845,eb:33:2e:f9:57:b5, 2085-97-65 00:49:254:2443,-0.076,-0.459,1.544,209.961,-16.235,71.411,4.642,-3.263,152.666
 15:30:56.845,eb:33:2e:f9:57:b5, 2085-97-237 255:170:252:3326,0.098,-0.307,1.234,219.055,-72.449,75.378,6.779,-3.79,153.408
 15:30:56.845,eb:33:2e:f9:57:b5, 2085-97-192 00:240:247:6911,0.082,-0.574,2.373,244.507,-61.035,37.17,9.025,-4.587,153.875
 15:30:56.907,eb:33:2e:f9:57:b5, 2085-97-160 02:134:249:5655,0.446,-0.958,3.625,330.444,25.696,7.446,11.942,-4.73,154.05
 15:30:56.907,eb:33:2e:f9:57:b5, 2085-97-66 04:159:250:4775,0.745,-0.752,2.021,349.365,93.262,0.305,15.381,-4.092,154.265
 15:30:56.907,eb:33:2e:f9:57:b5, 2085-97-195 04:26:255:5533,0.364,-0.365,2.763,379.272,145.02,-7.08,18.995,-2.895,154.545
 15:30:56.907,eb:33:2e:f9:57:b5, 2085-97-172 05:147:02:5052,1.065,0.062,2.481,371.948,172.607,-34.851,22.819,-1.274,154.968
 15:30:56.937,eb:33:2e:f9:57:b5, 2085-97-237 06:74:02:4078,0.721,0.616,2.238,329.285,195.19,-73.303,26.29,0.681,155.182
 15:30:56.937,eb:33:2e:f9:57:b5, 2085-97-37 07:220:06:2670,0.846,0.365,1.293,284.607,207.764,-66.772,29.317,2.878,155.577
 15:30:56.937,eb:33:2e:f9:57:b5, 2085-97-209 05:112:07:6412,0.722,1.397,2.146,278.442,202.82,-131.653,32.102,5.087,155.687
 15:30:56.937,eb:33:2e:f9:57:b5, 2085-97-36 07:173:06:6652,0.519,0.931,3.534,362.305,309.57,-120.056,35.365,7.877,156.105
 15:30:56.966,eb:33:2e:f9:57:b5, 2085-97-121 01:46:17:-2592,0.424,1,1.173,445.496,283.142,-141.174,39.677,11.266,157.055
 15:30:56.966,eb:33:2e:f9:57:b5, 2085-97-10 06:114:08:-1966,0.821,1.342,-1.76,335.754,88.684,-211.304,43.44,13.837,156.605
 15:30:56.966,eb:33:2e:f9:57:b5, 2085-97-26 02:104:01:3676,0.048,0.721,0.426,257.874,28.992,-225.708,45.989,15.694,155.303
 15:30:56.966,eb:33:2e:f9:57:b5, 2085-97-216 255:203:251:7771,-0.04,-0.19,3.115,269.165,9.277,-281.311,48.115,17.611,153.589
 15:30:57.027,eb:33:2e:f9:57:b5, 2085-97-191 255:114:247:7234,0.028,-0.829,3.839,282.471,42.297,-301.331,50.312,20.017,151.694
 15:30:57.027,eb:33:2e:f9:57:b5, 2085-97-170 00:254:245:5953,0.075,-1.211,3.198,255.188,106.75,-268.982,52.548,22.709,150.386
 15:30:57.027,eb:33:2e:f9:57:b5, 2085-97-35 00:58:247:4933,0.078,-1.221,2.649,206.543,183.533,-208.069,54.728,25.521,150.128
 15:30:57.027,eb:33:2e:f9:57:b5, 2085-97-04 01:147:249:4830,0.199,-0.919,2.342,168.274,215.149,-160.278,56.882,28.158,150.875
 15:30:57.057,eb:33:2e:f9:57:b5, 2085-97-75 02:142:248:5716,0.366,-0.803,2.519,161.438,200.256,-138,59.013,30.542,151.952
 15:30:57.058,eb:33:2e:f9:57:b5, 2085-97-125 03:234:246:6127,0.537,-1.074,2.969,180.054,199.402,-116.638,61.353,32.64,153.21
 15:30:57.058,eb:33:2e:f9:57:b5, 2085-97-206 04:208:246:5763,0.599,-1.132,2.937,198.364,201.904,-97.778,64.072,34.541,154.715
 15:30:57.058,eb:33:2e:f9:57:b5, 2085-97-171 03:116:245:5036,0.432,-1.213,2.688,197.205,194.946,-80.994,67.061,36.189,156.484
 15:30:57.087,eb:33:2e:f9:57:b5, 2085-97-188 02:48:242:4494,0.27,-1.48,2.307,176.27,142.822,-69.336,69.857,37.546,158.055
 15:30:57.087,eb:33:2e:f9:57:b5, 2085-97-53 02:26:239:3847,0.41,-1.93,2.053,144.043,81.299,-41.504,72.081,38.43,159.131
 15:30:57.087,eb:33:2e:f9:57:b5, 2085-97-63 04:38:236:3094,0.578,-2.288,1.777,105.042,54.688,9.277,73.68,38.793,159.763
 15:30:57.087,eb:33:2e:f9:57:b5, 2085-97-210 05:199:237:423,0.645,-2.506,1.04,55.603,84.045,85.938,75.119,38.491,160.823
 15:30:57.148,eb:33:2e:f9:57:b5, 2085-97-243 04:07:247:-4605,0.78,-1.713,-1.237,-56.702,111.694,185.242,76.174,37.414,162.592
 15:30:57.148,eb:33:2e:f9:57:b5, 2085-97-55 07:20:248:-2946,1.053,-0.858,-2.231,-218.567,43.64,202.148,75.624,35.678,164.191
 15:30:57.148,eb:33:2e:f9:57:b5, 2085-97-179 09:118:249:-795,1.46,-1.004,-0.658,-294.373,-27.954,195.862,73.29,33.783,164.839
 15:30:57.148,eb:33:2e:f9:57:b5, 2085-97-46 13:137:253:-1245,1.857,-0.563,-0.434,-317.871,-79.834,167.48,70.241,31.871,164.943
 15:30:57.176,eb:33:2e:f9:57:b5, 2085-97-232 14:81:255:-1352,1.823,-0.138,-0.633,-329.102,-144.226,105.957,66.632,30.201,164.251
 15:30:57.176,eb:33:2e:f9:57:b5, 2085-97-198 13:108:255:-1160,1.7,-0.057,-0.63,-347.656,-212.891,45.105,62.529,28.718,162.806
 15:30:57.176,eb:33:2e:f9:57:b5, 2085-97-208 12:83:253:130,1.5,-0.193,-0.278,-380.127,-274.475,-23.804,57.744,27.405,160.356
 15:30:57.176,eb:33:2e:f9:57:b5, 2085-113-58 00:186:235:-10650,1.328,-0.442,0.446,-423.096,-283.325,-69.214,52.416,26.158,157.478
 15:30:57.206,eb:33:2e:f9:57:b5, 2085-97-62 09:31:252:1818,0.992,-0.489,0.727,-440.796,-277.161,-89.478,49.609,25.571,156
 15:30:57.206,eb:33:2e:f9:57:b5, 2085-97-248 06:05:252:2188,0.779,-0.49,1.001,-457.947,-276.489,-133.057,43.786,24.478,152.93
 15:30:57.206,eb:33:2e:f9:57:b5, 2085-97-139 05:162:251:2578,0.562,-0.517,1.165,-456.421,-293.518,-172.607,37.897,23.291,149.661
 15:30:57.206,eb:33:2e:f9:57:b5, 2085-97-23 03:238:249:2898,0.203,-0.641,1.333,-448.486,-320.129,-200.378,31.998,21.813,146.08
 15:30:57.267,eb:33:2e:f9:57:b5, 2085-97-04 00:112:248:3528,-0.164,-0.877,1.568,-442.688,-342.468,-201.904,26.285,19.836,142.509
 15:30:57.267,eb:33:2e:f9:57:b5, 2085-97-173 253:130:249:4396,-0.502,-0.912,1.925,-428.467,-353.76,-179.504,20.863,17.347,139.208
 15:30:57.267,eb:33:2e:f9:57:b5, 2085-97-177 250:193:252:4509,-0.769,-0.582,2.233,-401.428,-356.628,-143.188,15.996,14.453,136.549
 15:30:57.267,eb:33:2e:f9:57:b5, 2085-97-29 250:242:253:4898,-0.675,-0.322,2.23,-373.291,-369.507,-110.657,11.64,11.184,134.429
 15:30:57.297,eb:33:2e:f9:57:b5, 2085-97-20 250:152:02:4823,-0.855,-0.059,2.487,-344.91,-359.863,-72.876,7.833,7.718,133
 15:30:57.297,eb:33:2e:f9:57:b5, 2085-97-78 248:219:06:5051,-1.138,0.672,2.297,-329.773,-374.695,-64.209,4.34,4.125,131.99
 15:30:57.297,eb:33:2e:f9:57:b5, 2085-97-41 245:143:08:5742,-1.551,0.983,2.652,-318.42,-376.465,-61.157,1.071,0.379,131.276
 15:30:57.297,eb:33:2e:f9:57:b5, 2085-97-93 242:69:09:5937,-1.732,1.13,2.881,-298.401,-358.704,-49.805,-2.027,-3.318,130.792
 15:30:57.326,eb:33:2e:f9:57:b5, 2085-97-162 242:118:11:6252,-1.773,1.225,2.981,-277.588,-324.768,-25.024,-4.883,-6.768,130.715
 15:30:57.326,eb:33:2e:f9:57:b5, 2085-97-39 240:148:19:5708,-2.238,1.84,2.914,-241.943,-289.001,-16.052,-7.559,-9.778,130.93
 15:30:57.326,eb:33:2e:f9:57:b5, 2085-97-156 235:221:21:5914,-2.896,2.782,2.815,-180.969,-304.26,-102.234,-9.641,-12.799,130.897
 15:30:57.326,eb:33:2e:f9:57:b5, 2085-97-79 230:41:18:6330,-3.487,2.521,3.002,-135.803,-263.306,-191.406,-10.937,-15.936,129.897
 15:30:57.387,eb:33:2e:f9:57:b5, 2085-97-244 226:93:14:5681,-3.625,2.008,3.014,-126.709,-144.287,-228.821,-11.678,-18.38,128.156
 15:30:57.387,eb:33:2e:f9:57:b5, 2085-97-90 228:253:13:4126,-3.136,1.708,2.415,-124.939,2.075,-205.383,-12.261,-19.462,126.024
 15:30:57.387,eb:33:2e:f9:57:b5, 2085-97-216 233:154:16:2277,-2.456,1.9,1.58,-90.637,87.463,-161.011,-12.667,-19.325,124.052
 15:30:57.387,eb:33:2e:f9:57:b5, 2085-97-09 238:157:16:806,-2.135,2.147,0.677,-17.212,67.749,-124.329,-12.667,-18.809,122.382
 15:30:57.417,eb:33:2e:f9:57:b5, 2085-97-44 239:162:13:286,-2.085,1.933,0.241,68.97,-12.634,-81.543,-11.986,-18.798,121.322
 15:30:57.417,eb:33:2e:f9:57:b5, 2085-97-181 255:220:215:6051,-3.779,0.943,0.565,147.705,-116.516,-90.454,-10.778,-19.528,120.762
 15:30:57.417,eb:33:2e:f9:57:b5, 2085-97-62 01:224:31:6469,-0.476,2.87,2.393,494.263,229.187,153.748,-7.559,-17.078,121.761
 15:30:57.417,eb:33:2e:f9:57:b5, 2085-97-189 234:105:234:8275,4.728,3.38,4.64,619.385,453.247,-13.794,-1.758,-14.112,121.377
 15:30:57.447,eb:33:2e:f9:57:b5, 2085-97-37 229:122:06:1090,-5.511,9.579,-1.414,56.152,302.368,11.414,1.241,-10.349,122.476
 15:30:57.447,eb:33:2e:f9:57:b5, 2085-97-194 223:199:245:-1753,-0.738,-2.642,-1.225,-66.772,360.596,168.64,0.533,-5.823,123.113
 15:30:57.447,eb:33:2e:f9:57:b5, 2085-97-221 255:205:00:3447,-0.61,-2.108,2.124,51.086,12.695,-17.639,0.588,-5.696,123.129
 15:30:57.447,eb:33:2e:f9:57:b5, 2085-97-140 254:167:01:1118,-0.237,0.236,0.868,36.743,48.34,22.766,1.033,-5.015,123.256
 15:30:57.506,eb:33:2e:f9:57:b5, 2085-97-160 249:84:02:383,-0.554,0.134,0.395,37.231,55.054,9.888,1.395,-4.466,123.42
 15:30:57.506,eb:33:2e:f9:57:b5, 2085-97-101 01:41:253:3165,0.256,0.014,0.76,37.109,-34.058,-26.733,1.763,-4.395,123.338
 15:30:57.506,eb:33:2e:f9:57:b5, 2085-97-28 254:92:255:2372,-0.669,-0.186,1.635,47.546,27.588,-7.019,2.225,-4.444,123.195
 15:30:57.506,eb:33:2e:f9:57:b5, 2085-97-11 251:253:00:1502,0.132,-0.045,0.806,39.124,20.447,8.85,2.653,-4.076,123.195
 15:30:57.536,eb:33:2e:f9:57:b5, 2085-97-72 06:80:02:3367,0.658,0.212,1.201,26.794,-13.306,-20.142,2.977,-4.175,123.179
 15:30:57.536,eb:33:2e:f9:57:b5, 2085-97-116 255:92:01:2040,-0.563,0.279,1.516,6.653,75.195,-13.55,3.153,-3.774,122.975
 15:30:57.536,eb:33:2e:f9:57:b5, 2085-97-161 251:193:254:1452,-0.126,-0.042,0.608,-7.935,46.204,-11.658,3.12,-3.06,122.943
 15:30:57.536,eb:33:2e:f9:57:b5, 2085-97-125 02:103:01:2898,0.411,-0.073,1.127,-2.38,-0.488,-15.686,3.082,-2.873,122.778
 15:30:57.567,eb:33:2e:f9:57:b5, 2085-97-196 04:167:01:2376,0.445,0.14,1.359,-14.709,16.663,-15.991,2.983,-2.725,122.657
 15:30:57.567,eb:33:2e:f9:57:b5, 2085-97-227 08:220:09:-125,1.115,0.366,0.934,-6.775,-3.052,-22.217,2.862,-2.543,122.415
 15:30:57.567,eb:33:2e:f9:57:b5, 2085-97-95 05:142:245:5174,-1.326,1.025,0.588,-29.053,-108.459,-67.688,2.719,-3.17,121.877
 15:30:57.567,eb:33:2e:f9:57:b5, 2085-97-145 254:254:235:13953,-0.513,-1.579,4.365,42.419,-35.583,94.788,2.593,-3.433,122.629
 15:30:57.626,eb:33:2e:f9:57:b5, 2085-97-201 00:71:254:2732,0.409,-1.798,4.262,220.398,72.388,147.4,3.955,-3.082,123.832
 15:30:57.626,eb:33:2e:f9:57:b5, 2085-97-111 01:247:253:4873,0.172,0.076,1.217,271.729,-78.43,13.367,6.383,-3.131,124.547
 15:30:57.626,eb:33:2e:f9:57:b5, 2085-97-112 04:43:254:3627,0.337,-0.198,2.475,325.012,-86.121,-80.811,9.437,-3.972,124.091
 15:30:57.626,eb:33:2e:f9:57:b5, 2085-97-83 02:113:248:7485,0.781,-0.392,2.182,332.092,-80.811,-100.159,12.827,-4.664,122.981
 15:30:57.686,eb:33:2e:f9:57:b5, 2085-97-205 10:13:251:6663,1.281,-1.318,4.437,392.273,49.133,-73.853,16.518,-4.587,122.108
 15:30:57.686,eb:33:2e:f9:57:b5, 2085-97-52 12:120:06:3270,1.208,0.486,1.833,398.376,107.178,-105.042,20.588,-3.406,121.646
 15:30:57.686,eb:33:2e:f9:57:b5, 2085-97-72 08:220:07:2277,0.872,0.825,1.274,365.845,92.102,-149.475,24.445,-1.967,120.811
 15:30:57.686,eb:33:2e:f9:57:b5, 2085-97-236 04:91:09:3590,0.399,0.871,1.329,331.543,71.716,-191.345,27.927,-0.489,119.526
 15:30:57.689,eb:33:2e:f9:57:b5, 2085-97-211 01:156:03:6981,0.283,0.895,2.746,321.777,160.889,-234.863,31.157,1.533,118.136
 15:30:57.689,eb:33:2e:f9:57:b5, 2085-97-59 03:136:01:7062,0.509,0.276,3.489,356.873,346.436,-182.312,34.503,4.9,117.751
 15:30:57.689,eb:33:2e:f9:57:b5, 2085-97-252 02:159:09:-014,0.539,-0.106,2.751,413.025,422.546,-106.323,38.546,9.02,118.993
 15:30:57.689,eb:33:2e:f9:57:b5, 2085-97-129 06:219:04:-1332,1.025,1.108,-1.215,338.806,217.59,-216.614,42.506,12.662,119.756
 15:30:57.747,eb:33:2e:f9:57:b5, 2085-97-137 04:203:01:2769,0.424,0.761,0.224,243.774,104.797,-207.275,45.192,15.101,119.229
 15:30:57.747,eb:33:2e:f9:57:b5, 2085-97-123 02:188:251:6360,0.27,-0.243,2.497,248.413,69.397,-250.671,47.274,17.342,118.114
 15:30:57.747,eb:33:2e:f9:57:b5, 2085-97-117 01:52:247:6215,0.144,-0.804,3.233,274.902,65.857,-269.714,49.499,19.726,116.768
 15:30:57.747,eb:33:2e:f9:57:b5, 2085-97-155 00:144:245:5376,-0.024,-1.26,2.812,262.207,91.553,-246.582,51.784,22.236,115.576
 15:30:57.777,eb:33:2e:f9:57:b5, 2085-97-34 255:195:245:5221,-0.186,-1.307,2.522,224.06,130.981,-197.144,54.014,24.67,115.126
 15:30:57.777,eb:33:2e:f9:57:b5, 2085-97-125 254:243:245:5444,-0.019,-1.206,2.578,190.491,161.682,-147.583,56.129,26.938,115.351
 15:30:57.777,eb:33:2e:f9:57:b5, 2085-97-18 01:230:243:6594,0.244,-1.358,2.958,178.772,185.486,-104.431,58.343,28.911,116.224
 15:30:57.777,eb:33:2e:f9:57:b5, 2085-113-58 00:171:250:-10305,0.308,-1.541,3.212,185.12,243.774,-53.894,60.947,30.707,117.883
 15:30:57.777,eb:33:2e:f9:57:b5, 2085-97-217 02:242:243:6050,0.402,-1.529,3.08,191.345,254.395,-37.659,62.479,31.503,119.081
 15:30:57.836,eb:33:2e:f9:57:b5, 2085-97-47 03:186:242:5523,0.284,-1.544,2.859,198.364,230.103,-22.705,65.665,32.882,121.454
 15:30:57.836,eb:33:2e:f9:57:b5, 2085-97-102 02:121:240:4039,0.471,-1.778,2.315,180.054,179.321,-16.296,68.741,33.86,123.657
 15:30:57.836,eb:33:2e:f9:57:b5, 2085-97-40 04:194:240:2936,0.558,-1.957,1.712,137.085,122.009,2.197,71.147,34.508,125.167
 15:30:57.837,eb:33:2e:f9:57:b5, 2085-97-21 05:221:240:2278,0.705,-1.894,1.255,72.144,110.596,43.884,72.938,34.623,126.601
 15:30:57.866,eb:33:2e:f9:57:b5, 2085-97-236 05:85:242:1054,0.749,-1.867,0.899,12.573,118.103,81.116,74.136,34.382,128.106
 15:30:57.866,eb:33:2e:f9:57:b5, 2085-97-122 06:19:246:-899,0.907,-1.502,0.029,-45.41,102.356,113.098,74.85,33.739,129.787
 15:30:57.866,eb:33:2e:f9:57:b5, 2085-97-219 08:20:252:-3025,1.196,-0.881,-0.947,-114.746,71.411,123.413,74.707,32.833,131.094
 15:30:57.866,eb:33:2e:f9:57:b5, 2085-97-174 10:255:252:-2909,1.368,-0.351,-1.636,-197.632,-3.967,108.765,73.471,31.783,131.869
 15:30:57.897,eb:33:2e:f9:57:b5, 2085-97-23 11:60:253:-2206,1.463,-0.363,-1.212,-238.159,-98.572,70.984,71.038,30.789,131.534
 15:30:57.897,eb:33:2e:f9:57:b5, 2085-97-226 11:47:253:-1575,1.421,-0.319,-0.947,-257.446,-190.735,23.438,67.841,29.828,130.139
 15:30:57.899,eb:33:2e:f9:57:b5, 2085-97-56 10:70:252:-568,1.126,-0.417,-0.526,-292.725,-245.239,-8.972,63.918,28.867,127.771
 15:30:57.899,eb:33:2e:f9:57:b5, 2085-97-247 07:221:251:215,0.902,-0.485,-0.069,-339.172,-258.057,-33.386,59.502,27.823,125.173
 15:30:57.957,eb:33:2e:f9:57:b5, 2085-97-176 06:74:251:879,0.812,-0.563,0.27,-378.723,-262.939,-55.359,54.602,26.779,122.41
 15:30:57.957,eb:33:2e:f9:57:b5, 2085-97-22 06:21:252:1266,0.708,-0.557,0.548,-397.522,-266.785,-72.876,49.499,25.626,119.707
 15:30:57.957,eb:33:2e:f9:57:b5, 2085-97-13 05:114:252:1763,0.525,-0.435,0.722,-395.569,-295.105,-99.915,44.269,24.318,116.774
 15:30:57.957,eb:33:2e:f9:57:b5, 2085-97-53 03:169:250:2684,0.318,-0.526,1.043,-388.672,-329.529,-120.789,39.117,22.665,113.643
 15:30:57.987,eb:33:2e:f9:57:b5, 2085-97-63 02:77:249:3482,0.286,-0.778,1.525,-388.672,-329.529,-119.568,34.036,20.682,110.451
 15:30:57.987,eb:33:2e:f9:57:b5, 2085-97-105 02:205:250:3725,0.276,-0.798,1.806,-389.648,-301.575,-107.605,29.24,18.556,107.759
 15:30:57.987,eb:33:2e:f9:57:b5, 2085-97-159 01:128:253:3584,0.129,-0.477,1.774,-378.113,-296.021,-109.131,24.642,16.375,105.353
 15:30:57.987,eb:33:2e:f9:57:b5, 2085-97-179 255:164:254:3676,-0.272,-0.19,1.782,-358.887,-324.036,-122.375,20.38,13.925,103.096
 15:30:58.017,eb:33:2e:f9:57:b5, 2085-97-208 251:174:252:3775,-0.785,-0.244,1.794,-342.163,-370.544,-121.826,16.353,10.964,100.772
 15:30:58.017,eb:33:2e:f9:57:b5, 2085-97-47 248:04:249:4372,-1.102,-0.662,1.975,-339.905,-391.785,-75.867,12.656,7.454,98.904
 15:30:58.017,eb:33:2e:f9:57:b5, 2085-97-04 247:154:249:4557,-1.045,-0.958,2.225,-338.745,-367.737,7.629,9.108,3.757,97.894
 15:30:58.017,eb:33:2e:f9:57:b5, 2085-97-226 248:09:00:4618,-0.718,-0.453,2.213,-336.121,-344.177,83.069,5.729,0.192,98.058
 15:30:58.076,eb:33:2e:f9:57:b5, 2085-97-70 251:239:07:4747,-0.512,0.506,2.275,-335.327,-330.322,103.455,2.285,-3.219,98.849
 15:30:58.076,eb:33:2e:f9:57:b5, 2085-97-47 251:98:15:5442,-0.851,1.51,2.433,-331.177,-339.111,52.917,-1.126,-6.537,99.728
 15:30:58.076,eb:33:2e:f9:57:b5, 2085-97-168 246:95:17:6511,-1.568,2.157,2.95,-312.073,-349.426,-47.424,-4.433,-10.014,99.948
 15:30:58.076,eb:33:2e:f9:57:b5, 2085-97-253 239:248:14:6829,-2.392,2.045,3.295,-283.142,-315.552,-128.052,-7.267,-13.442,99.415
 15:30:58.106,eb:33:2e:f9:57:b5, 2085-97-82 234:93:13:6690,-2.892,1.739,3.317,-257.019,-257.874,-151.428,-9.739,-16.49,98.405
 15:30:58.106,eb:33:2e:f9:57:b5, 2085-97-132 232:47:16:6329,-2.868,1.754,3.202,-229.126,-192.993,-126.099,-11.854,-18.957,97.482
 15:30:58.106,eb:33:2e:f9:57:b5, 2085-97-25 234:17:22:5566,-2.626,2.4,2.918,-187.805,-125.427,-83.801,-13.755,-20.704,96.806
 15:30:58.106,eb:33:2e:f9:57:b5, 2085-97-157 235:121:25:4095,-2.393,3.035,2.442,-103.516,-65.979,-47.852,-15.062,-21.747,96.465
 15:30:58.136,eb:33:2e:f9:57:b5, 2085-97-231 218:252:249:15253,-2.608,2.995,1.572,18.555,-135.376,-73.975,-15.425,-22.522,96.224
 15:30:58.136,eb:33:2e:f9:57:b5, 2085-97-138 226:215:38:-1960,-1.957,0.54,5.757,386.23,171.509,59.143,-13.453,-20.847,96.724
 15:30:58.136,eb:33:2e:f9:57:b5, 2085-97-109 241:165:32:16647,-2.069,6.561,1.541,379.028,157.043,10.01,-9.926,-18.583,97.531
 15:30:58.136,eb:33:2e:f9:57:b5, 2085-97-200 248:106:03:6821,-2.394,4.255,5.274,560.12,484.497,-114.014,-4.675,-14.936,96.526
 15:30:58.196,eb:33:2e:f9:57:b5, 2085-97-26 31:93:67:2066,-2.318,-3.358,1.927,421.997,330.505,71.35,0.775,-10.986,95.405
 15:30:58.196,eb:33:2e:f9:57:b5, 2085-97-80 229:250:248:-650,-4.14,2.994,4.739,2.747,458.252,30.884,2.159,-8.597,95.449
 15:30:58.196,eb:33:2e:f9:57:b5, 2085-97-74 236:235:250:-1139,-0.061,-2.423,-1.636,53.955,164.307,87.891,2.098,-4.949,96.46
 15:30:58.196,eb:33:2e:f9:57:b5, 2085-97-163 02:73:04:2178,0.304,0.303,1.523,70.374,18.066,-14.893,2.856,-4.872,96.257
 15:30:58.226,eb:33:2e:f9:57:b5, 2085-97-12 251:27:01:813,-1.018,0.219,0.877,48.157,94.604,26.184,3.362,-4.246,96.35
 15:30:58.226,eb:33:2e:f9:57:b5, 2085-97-07 255:112:254:2331,0.357,0.229,0.208,38.025,6.897,-0.244,3.796,-3.587,96.685
 15:30:58.226,eb:33:2e:f9:57:b5, 2085-97-11 255:57:01:2130,-0.599,-0.25,1.63,49.377,39.062,-0.305,4.252,-3.494,96.432
 15:30:58.226,eb:33:2e:f9:57:b5, 2085-97-218 249:227:255:1204,-0.313,0.128,0.574,35.583,17.578,5.432,4.669,-3.142,96.564
 15:30:58.256,eb:33:2e:f9:57:b5, 2085-97-230 03:240:01:3179,0.482,0.082,1.042,28.442,-23.499,-17.883,4.971,-3.214,96.498
 15:30:58.256,eb:33:2e:f9:57:b5, 2085-97-101 254:168:00:1920,-0.589,0.198,1.452,11.292,39.062,-1.038,5.175,-3.126,96.416
 15:30:58.256,eb:33:2e:f9:57:b5, 2085-97-28 250:90:255:1324,-0.398,-0.057,0.708,0.427,15.869,-0.793,5.197,-2.763,96.405
 15:30:58.256,eb:33:2e:f9:57:b5, 2085-97-51 01:239:01:2398,0.553,-0.019,0.947,-3.174,-32.043,-15.259,5.186,-2.895,96.378
 15:30:58.316,eb:33:2e:f9:57:b5, 2085-97-112 02:39:255:2837,0.22,0.252,1.338,-10.986,-21.118,-29.724,5.12,-3.137,96.092
 15:30:58.316,eb:33:2e:f9:57:b5, 2085-97-109 03:14:06:652,0.859,0.537,0.567,-10.376,-41.077,-33.752,5.054,-3.307,95.894
