Time,Device name,Chip Time(),Acceleration X(g),Acceleration Y(g),Acceleration Z(g),Angular velocity X(°/s),Angular velocity Y(°/s),Angular velocity Z(°/s),Angle X(°),Angle Y(°),Angle Z(°)
 15:28:16.558,eb:33:2e:f9:57:b5, 2085-97-244 255:237:255:2045,-0.008,-0.009,1,-0.122,0,0.061,0.346,0.994,-129.672
 15:28:16.558,eb:33:2e:f9:57:b5, 2085-97-241 255:238:255:2045,-0.007,-0.009,0.998,-0.061,-0.122,0.122,0.346,0.989,-129.672
 15:28:16.559,eb:33:2e:f9:57:b5, 2085-97-243 255:237:255:2049,-0.005,-0.01,1,-0.061,-0.305,0.183,0.346,0.989,-129.672
 15:28:16.559,eb:33:2e:f9:57:b5, 2085-97-245 255:238:255:2051,-0.004,-0.009,1.001,0,-0.488,0.122,0.346,0.989,-129.672
 15:28:16.610,eb:33:2e:f9:57:b5, 2085-97-247 255:235:255:2054,-0.005,-0.01,1.002,0,-0.61,0.122,0.346,0.989,-129.672
 15:28:16.610,eb:33:2e:f9:57:b5, 2085-97-247 255:239:255:2050,-0.004,-0.01,1.001,0,-0.61,0.061,0.346,0.983,-129.672
 15:28:16.610,eb:33:2e:f9:57:b5, 2085-113-81 00:109:54:076,-0.004,-0.01,1.002,0.061,-0.488,0.061,0.346,0.983,-129.672
 15:28:16.610,eb:33:2e:f9:57:b5, 2085-97-245 255:241:255:2047,-0.007,-0.009,1.001,0.061,-0.427,0.122,0.346,0.983,-129.672
 15:28:16.610,eb:33:2e:f9:57:b5, 2085-97-248 255:238:255:2048,-0.004,-0.007,0.998,0,-0.488,0.122,0.346,0.983,-129.672
 15:28:16.668,eb:33:2e:f9:57:b5, 2085-97-249 255:237:255:2052,-0.003,-0.009,1.001,0.061,-0.488,0.061,0.346,0.978,-129.666
 15:28:16.668,eb:33:2e:f9:57:b5, 2085-97-249 255:236:255:2052,-0.003,-0.009,1.002,0.122,-0.427,0.122,0.346,0.978,-129.666
 15:28:16.668,eb:33:2e:f9:57:b5, 2085-97-250 255:236:255:2052,-0.003,-0.01,1.002,0.183,-0.427,0.244,0.346,0.972,-129.666
 15:28:16.668,eb:33:2e:f9:57:b5, 2085-97-246 255:239:255:2050,-0.005,-0.009,1.001,0.183,-0.427,0.244,0.346,0.972,-129.666
 15:28:16.670,eb:33:2e:f9:57:b5, 2085-97-246 255:237:255:2052,-0.003,-0.009,1,0.244,-0.488,0.244,0.346,0.972,-129.666
 15:28:16.670,eb:33:2e:f9:57:b5, 2085-97-249 255:237:255:2054,-0.003,-0.008,1.003,0.305,-0.427,0.122,0.346,0.972,-129.666
 15:28:16.670,eb:33:2e:f9:57:b5, 2085-97-253 255:237:255:2054,-0.003,-0.009,1.002,0.244,-0.183,0.183,0.346,0.967,-129.666
 15:28:16.670,eb:33:2e:f9:57:b5, 2085-97-251 255:239:255:2051,-0.003,-0.009,1.001,0.366,-0.061,0.183,0.346,0.967,-129.666
 15:28:16.728,eb:33:2e:f9:57:b5, 2085-97-249 255:239:255:2051,-0.003,-0.008,1.001,0.244,0,0.061,0.346,0.961,-129.666
 15:28:16.728,eb:33:2e:f9:57:b5, 2085-97-249 255:242:255:2051,-0.004,-0.008,1.001,0.244,0.061,0,0.346,0.961,-129.666
 15:28:16.728,eb:33:2e:f9:57:b5, 2085-97-250 255:239:255:2050,-0.003,-0.007,1.001,0.183,0.122,0,0.346,0.956,-129.666
 15:28:16.728,eb:33:2e:f9:57:b5, 2085-97-251 255:241:255:2051,-0.002,-0.007,1.001,0.183,0.183,0,0.346,0.956,-129.666
 15:28:16.758,eb:33:2e:f9:57:b5, 2085-97-251 255:240:255:2050,-0.003,-0.007,1.001,0.122,0.305,-0.061,0.346,0.95,-129.661
 15:28:16.758,eb:33:2e:f9:57:b5, 2085-97-250 255:240:255:2050,-0.003,-0.008,1.001,0.122,0.366,0,0.346,0.95,-129.661
 15:28:16.758,eb:33:2e:f9:57:b5, 2085-97-250 255:240:255:2051,-0.004,-0.008,1.001,0.061,0.366,0,0.346,0.945,-129.661
 15:28:16.758,eb:33:2e:f9:57:b5, 2085-97-248 255:239:255:2048,-0.004,-0.009,1.001,0.061,0.305,0,0.346,0.945,-129.661
 15:28:16.788,eb:33:2e:f9:57:b5, 2085-97-248 255:240:255:2050,-0.003,-0.008,1.001,0.061,0.244,0,0.346,0.939,-129.661
 15:28:16.788,eb:33:2e:f9:57:b5, 2085-97-248 255:238:255:2050,-0.004,-0.008,1.001,0.122,0.244,0,0.346,0.939,-129.661
 15:28:16.788,eb:33:2e:f9:57:b5, 2085-97-246 255:239:255:2050,-0.005,-0.007,1.001,0.061,0.244,0,0.346,0.934,-129.661
 15:28:16.788,eb:33:2e:f9:57:b5, 2085-97-248 255:240:255:2050,-0.004,-0.008,1.001,0.061,0.061,-0.061,0.346,0.934,-129.661
 15:28:16.849,eb:33:2e:f9:57:b5, 2085-97-247 255:238:255:2050,-0.004,-0.008,1.001,0.122,0,0,0.346,0.928,-129.661
 15:28:16.849,eb:33:2e:f9:57:b5, 2085-97-249 255:240:255:2050,-0.003,-0.008,1.001,0.183,-0.061,0,0.346,0.928,-129.661
 15:28:16.850,eb:33:2e:f9:57:b5, 2085-97-248 255:239:255:2051,-0.004,-0.008,1.002,0.122,0,0,0.346,0.928,-129.655
 15:28:16.850,eb:33:2e:f9:57:b5, 2085-97-247 255:240:255:2050,-0.004,-0.007,1.001,0.183,0,-0.061,0.346,0.928,-129.655
 15:28:16.878,eb:33:2e:f9:57:b5, 2085-97-248 255:240:255:2049,-0.003,-0.008,1.001,0.183,0,-0.061,0.346,0.923,-129.655
 15:28:16.878,eb:33:2e:f9:57:b5, 2085-97-247 255:236:255:2051,-0.005,-0.008,1.001,0.122,-0.061,-0.122,0.346,0.923,-129.655
 15:28:16.878,eb:33:2e:f9:57:b5, 2085-97-248 255:239:255:2051,-0.003,-0.009,1.001,0.244,-0.061,-0.061,0.346,0.917,-129.655
 15:28:16.878,eb:33:2e:f9:57:b5, 2085-97-252 255:241:255:2052,-0.003,-0.008,1.002,0.183,0,0,0.346,0.917,-129.655
 15:28:16.938,eb:33:2e:f9:57:b5, 2085-97-249 255:239:255:2052,-0.004,-0.008,1.001,0.122,0.183,0,0.346,0.912,-129.655
 15:28:16.938,eb:33:2e:f9:57:b5, 2085-97-242 255:234:255:2048,-0.005,-0.009,1,0.244,0.183,0.061,0.346,0.912,-129.655
 15:28:16.938,eb:33:2e:f9:57:b5, 2085-97-247 255:239:255:2050,-0.002,-0.009,1,0.427,0.061,0.244,0.346,0.906,-129.655
 15:28:16.938,eb:33:2e:f9:57:b5, 2085-97-253 255:241:255:2053,-0.005,-0.008,1.002,0.549,0.122,0.244,0.346,0.906,-129.655
 15:28:16.969,eb:33:2e:f9:57:b5, 2085-97-241 255:237:255:2051,-0.007,-0.007,1.002,0.488,0.366,0.366,0.346,0.901,-129.655
 15:28:16.969,eb:33:2e:f9:57:b5, 2085-97-243 255:235:255:2050,0,-0.008,1,0.549,0.061,0.427,0.346,0.901,-129.655
 15:28:16.969,eb:33:2e:f9:57:b5, 2085-97-255 255:242:255:2055,-0.001,-0.008,1.004,0.549,0.122,0.488,0.346,0.895,-129.655
 15:28:16.969,eb:33:2e:f9:57:b5, 2085-97-238 255:236:255:2052,-0.01,-0.007,1.003,0.549,0.671,0.671,0.346,0.895,-129.655
 15:28:16.998,eb:33:2e:f9:57:b5, 2085-97-227 255:221:255:2052,-0.011,-0.014,1.003,0.732,0.671,0.977,0.346,0.895,-129.65
 15:28:16.998,eb:33:2e:f9:57:b5, 2085-97-247 255:229:255:2059,0.004,-0.016,1.002,1.282,0,1.343,0.346,0.895,-129.65
 15:28:16.998,eb:33:2e:f9:57:b5, 2085-97-18 00:245:255:2067,0.005,-0.008,1.008,1.465,0.61,1.709,0.357,0.895,-129.639
 15:28:16.998,eb:33:2e:f9:57:b5, 2085-97-255 255:254:255:2053,-0.006,-0.002,1.006,1.343,1.831,1.953,0.368,0.912,-129.622
 15:28:17.029,eb:33:2e:f9:57:b5, 2085-97-236 255:247:255:2040,-0.006,-0.002,0.998,1.099,1.77,1.587,0.385,0.928,-129.6
 15:28:17.029,eb:33:2e:f9:57:b5, 2085-97-248 255:251:255:2052,-0.002,-0.003,0.998,0.916,0.977,1.038,0.39,0.945,-129.589
 15:28:17.029,eb:33:2e:f9:57:b5, 2085-97-254 255:255:255:2053,-0.001,-0.001,1.002,0.671,1.587,0.793,0.401,0.956,-129.578
 15:28:17.029,eb:33:2e:f9:57:b5, 2085-97-251 255:250:255:2048,-0.003,-0.003,1.001,0.427,2.197,0.488,0.406,0.978,-129.573
 15:28:17.089,eb:33:2e:f9:57:b5, 2085-97-244 255:249:255:2044,-0.005,-0.003,0.999,0.305,2.258,0.244,0.412,1,-129.567
 15:28:17.089,eb:33:2e:f9:57:b5, 2085-97-242 255:247:255:2045,-0.007,-0.004,0.999,0.122,2.197,0.122,0.412,1.022,-129.567
 15:28:17.089,eb:33:2e:f9:57:b5, 2085-97-242 255:247:255:2047,-0.007,-0.004,1,0.061,1.953,0,0.412,1.044,-129.562
 15:28:17.089,eb:33:2e:f9:57:b5, 2085-97-241 255:246:255:2048,-0.008,-0.004,1,0,1.587,-0.061,0.412,1.06,-129.562
 15:28:17.118,eb:33:2e:f9:57:b5, 2085-97-238 255:246:255:2047,-0.009,-0.004,1,-0.061,1.343,-0.122,0.412,1.077,-129.562
 15:28:17.118,eb:33:2e:f9:57:b5, 2085-97-239 255:245:255:2048,-0.006,-0.005,0.999,-0.061,1.038,-0.122,0.412,1.088,-129.567
 15:28:17.118,eb:33:2e:f9:57:b5, 2085-97-241 255:244:255:2048,-0.012,-0.005,1.001,-0.183,0.977,-0.122,0.406,1.099,-129.567
 15:28:17.118,eb:33:2e:f9:57:b5, 2085-97-247 255:242:255:2053,-0.006,0,0.994,-0.244,-0.244,-1.282,0.406,1.104,-129.573
 15:28:17.149,eb:33:2e:f9:57:b5, 2085-97-242 255:248:255:2049,-0.004,-0.007,1.003,-0.305,0.549,-0.671,0.401,1.11,-129.584
 15:28:17.149,eb:33:2e:f9:57:b5, 2085-97-241 255:247:255:2049,-0.007,-0.005,1.003,-0.305,0.854,-0.366,0.401,1.115,-129.589
 15:28:17.149,eb:33:2e:f9:57:b5, 2085-97-243 255:246:255:2051,-0.008,-0.005,1,-0.244,0.854,-0.305,0.396,1.126,-129.589
 15:28:17.149,eb:33:2e:f9:57:b5, 2085-97-239 255:245:255:2051,-0.011,-0.005,1,-0.305,0.916,-0.305,0.396,1.137,-129.595
 15:28:17.209,eb:33:2e:f9:57:b5, 2085-97-236 255:244:255:2050,-0.009,-0.006,1,-0.366,0.854,-0.366,0.39,1.148,-129.595
 15:28:17.209,eb:33:2e:f9:57:b5, 2085-97-238 255:244:255:2050,-0.009,-0.006,1,-0.488,0.61,-0.427,0.385,1.154,-129.6
 15:28:17.209,eb:33:2e:f9:57:b5, 2085-97-236 255:242:255:2050,-0.01,-0.006,1.001,-0.427,0.488,-0.549,0.379,1.159,-129.606
 15:28:17.209,eb:33:2e:f9:57:b5, 2085-97-239 255:243:255:2050,-0.008,-0.006,1.002,-0.488,0.427,-0.488,0.374,1.165,-129.611
 15:28:17.238,eb:33:2e:f9:57:b5, 2085-97-239 255:245:255:2049,-0.008,-0.006,1.001,-0.488,0.366,-0.427,0.368,1.17,-129.611
 15:28:17.238,eb:33:2e:f9:57:b5, 2085-97-239 255:244:255:2051,-0.008,-0.006,1,-0.549,0.366,-0.488,0.363,1.176,-129.617
 15:28:17.238,eb:33:2e:f9:57:b5, 2085-97-241 255:245:255:2051,-0.007,-0.006,1.001,-0.549,0.366,-0.488,0.357,1.181,-129.622
 15:28:17.238,eb:33:2e:f9:57:b5, 2085-97-240 255:243:255:2049,-0.008,-0.005,1.001,-0.549,0.488,-0.427,0.352,1.187,-129.628
 15:28:17.268,eb:33:2e:f9:57:b5, 2085-97-236 255:241:255:2051,-0.009,-0.007,1,-0.61,0.549,-0.427,0.341,1.192,-129.633
 15:28:17.268,eb:33:2e:f9:57:b5, 2085-97-236 255:241:255:2053,-0.013,-0.007,1.002,-0.549,0.427,-0.488,0.335,1.198,-129.633
 15:28:17.268,eb:33:2e:f9:57:b5, 2085-97-233 255:243:255:2051,-0.01,-0.008,1.001,-0.549,0.244,-0.549,0.33,1.203,-129.639
 15:28:17.268,eb:33:2e:f9:57:b5, 2085-97-231 255:240:255:2049,-0.009,-0.008,1.003,-0.488,0.122,-0.61,0.324,1.203,-129.644
 15:28:17.329,eb:33:2e:f9:57:b5, 2085-97-235 255:239:255:2050,-0.01,-0.007,1.001,-0.488,-0.061,-0.671,0.319,1.203,-129.65
 15:28:17.329,eb:33:2e:f9:57:b5, 2085-97-235 255:238:255:2053,-0.011,-0.007,1.001,-0.427,-0.122,-0.671,0.313,1.203,-129.661
 15:28:17.329,eb:33:2e:f9:57:b5, 2085-97-237 255:237:255:2053,-0.011,-0.008,1,-0.366,-0.244,-0.671,0.308,1.203,-129.666
 15:28:17.329,eb:33:2e:f9:57:b5, 2085-97-241 255:239:255:2052,-0.008,-0.01,1.002,-0.366,-0.183,-0.488,0.308,1.198,-129.672
 15:28:17.358,eb:33:2e:f9:57:b5, 2085-97-241 255:241:255:2050,-0.006,-0.008,1.001,-0.366,-0.122,-0.488,0.302,1.198,-129.677
 15:28:17.358,eb:33:2e:f9:57:b5, 2085-97-236 255:240:255:2051,-0.009,-0.008,1.002,-0.366,0.122,-0.427,0.297,1.198,-129.677
 15:28:17.358,eb:33:2e:f9:57:b5, 2085-97-238 255:240:255:2051,-0.009,-0.007,1.001,-0.427,0.183,-0.427,0.291,1.198,-129.683
 15:28:17.358,eb:33:2e:f9:57:b5, 2085-97-242 255:242:255:2054,-0.013,-0.007,1,-0.366,0.244,-0.427,0.291,1.203,-129.688
 15:28:17.420,eb:33:2e:f9:57:b5, 2085-97-234 255:237:255:2060,-0.009,-0.019,1.009,0.305,0.793,1.404,0.286,1.208,-129.688
 15:28:17.420,eb:33:2e:f9:57:b5, 2085-97-241 255:243:255:2054,-0.006,-0.004,0.999,0,0.916,0.244,0.286,1.219,-129.677
 15:28:17.420,eb:33:2e:f9:57:b5, 2085-97-236 255:240:255:2049,-0.012,-0.005,1.002,-0.122,1.648,0.122,0.286,1.236,-129.677
 15:28:17.420,eb:33:2e:f9:57:b5, 2085-97-231 255:242:255:2047,-0.009,-0.008,1,-0.183,0.671,-0.244,0.286,1.247,-129.677
 15:28:17.449,eb:33:2e:f9:57:b5, 2085-97-236 255:238:255:2054,-0.011,-0.008,1.003,-0.366,0.916,-0.366,0.28,1.252,-129.677
 15:28:17.449,eb:33:2e:f9:57:b5, 2085-113-58 00:196:225:-6210,-0.01,-0.01,1.001,-0.244,1.16,-0.244,0.275,1.263,-129.683
 15:28:17.449,eb:33:2e:f9:57:b5, 2085-97-235 255:239:255:2049,-0.01,-0.009,1.001,-0.183,0.793,-0.305,0.275,1.269,-129.683
 15:28:17.449,eb:33:2e:f9:57:b5, 2085-97-236 255:237:255:2053,-0.01,-0.008,1.002,-0.244,0.427,-0.427,0.275,1.274,-129.688
 15:28:17.478,eb:33:2e:f9:57:b5, 2085-97-235 255:239:255:2050,-0.009,-0.009,1.002,-0.183,0.916,-0.244,0.269,1.285,-129.688
 15:28:17.478,eb:33:2e:f9:57:b5, 2085-97-239 255:240:255:2054,-0.011,-0.008,1.002,-0.061,1.038,-0.061,0.269,1.296,-129.694
 15:28:17.478,eb:33:2e:f9:57:b5, 2085-97-231 255:241:255:2050,-0.012,-0.007,1.003,-0.122,1.16,-0.122,0.269,1.307,-129.694
 15:28:17.478,eb:33:2e:f9:57:b5, 2085-97-232 255:238:255:2049,-0.013,-0.007,1,-0.122,1.038,-0.122,0.269,1.318,-129.694
 15:28:17.509,eb:33:2e:f9:57:b5, 2085-97-225 255:229:255:2057,-0.011,-0.009,1.001,-0.061,0.916,-0.183,0.264,1.329,-129.694
 15:28:17.509,eb:33:2e:f9:57:b5, 2085-97-233 255:249:255:2045,-0.01,-0.004,0.998,0.549,1.404,1.221,0.269,1.34,-129.688
 15:28:17.509,eb:33:2e:f9:57:b5, 2085-97-226 255:240:255:2045,-0.011,-0.005,1.001,0.122,1.404,0.183,0.275,1.357,-129.683
 15:28:17.509,eb:33:2e:f9:57:b5, 2085-97-224 255:239:255:2042,-0.012,-0.009,1.001,0.183,0.854,-0.061,0.275,1.368,-129.677
 15:28:17.599,eb:33:2e:f9:57:b5, 2085-97-233 255:241:255:2055,-0.013,-0.006,0.999,0,0,-0.427,0.275,1.373,-129.683
 15:28:17.599,eb:33:2e:f9:57:b5, 2085-97-232 255:239:255:2051,-0.012,-0.008,1.002,0,0.793,-0.061,0.275,1.373,-129.683
 15:28:17.599,eb:33:2e:f9:57:b5, 2085-97-232 255:243:255:2049,-0.011,-0.007,1,0,0.305,-0.244,0.275,1.384,-129.683
 15:28:17.599,eb:33:2e:f9:57:b5, 2085-97-234 255:243:255:2052,-0.01,-0.007,1.001,0,0.305,-0.305,0.275,1.384,-129.688
 15:28:17.599,eb:33:2e:f9:57:b5, 2085-97-233 255:239:255:2052,-0.012,-0.007,1.002,0,0.793,-0.122,0.275,1.39,-129.688
 15:28:17.599,eb:33:2e:f9:57:b5, 2085-97-232 255:241:255:2051,-0.012,-0.008,1.001,0,0.854,-0.061,0.275,1.401,-129.688
 15:28:17.599,eb:33:2e:f9:57:b5, 2085-97-231 255:238:255:2052,-0.012,-0.007,1.002,-0.061,0.854,-0.122,0.275,1.412,-129.688
 15:28:17.599,eb:33:2e:f9:57:b5, 2085-97-227 255:237:255:2050,-0.011,-0.007,1.001,0,0.916,0,0.275,1.417,-129.688
 15:28:17.629,eb:33:2e:f9:57:b5, 2085-97-228 255:240:255:2045,-0.012,-0.004,0.998,0.305,0.854,0.61,0.275,1.428,-129.688
 15:28:17.629,eb:33:2e:f9:57:b5, 2085-97-227 255:238:255:2050,-0.015,-0.009,1.001,0.122,0.793,0.244,0.275,1.439,-129.683
 15:28:17.629,eb:33:2e:f9:57:b5, 2085-97-229 255:237:255:2048,-0.015,-0.01,1,0.183,0.549,0,0.28,1.445,-129.677
 15:28:17.629,eb:33:2e:f9:57:b5, 2085-97-228 255:238:255:2054,-0.015,-0.009,1,0.122,-0.183,-0.183,0.28,1.45,-129.677
 15:28:17.689,eb:33:2e:f9:57:b5, 2085-97-228 255:239:255:2053,-0.014,-0.007,1.001,0.122,0.183,-0.061,0.28,1.45,-129.677
 15:28:17.689,eb:33:2e:f9:57:b5, 2085-97-226 255:239:255:2049,-0.014,-0.007,1,0.183,-0.061,-0.061,0.28,1.45,-129.677
 15:28:17.689,eb:33:2e:f9:57:b5, 2085-97-228 255:241:255:2049,-0.014,-0.007,1,0.122,-0.244,-0.122,0.286,1.45,-129.677
 15:28:17.689,eb:33:2e:f9:57:b5, 2085-97-228 255:240:255:2049,-0.013,-0.008,1.001,0.061,-0.122,-0.061,0.286,1.45,-129.683
 15:28:17.749,eb:33:2e:f9:57:b5, 2085-97-231 255:242:255:2048,-0.011,-0.009,1.001,0.122,-0.244,-0.061,0.286,1.445,-129.683
 15:28:17.749,eb:33:2e:f9:57:b5, 2085-97-230 255:242:255:2050,-0.01,-0.009,1.002,0.122,-0.244,-0.122,0.286,1.445,-129.683
 15:28:17.749,eb:33:2e:f9:57:b5, 2085-97-228 255:242:255:2048,-0.013,-0.007,1.003,0.061,-0.061,-0.061,0.291,1.439,-129.683
 15:28:17.749,eb:33:2e:f9:57:b5, 2085-97-228 255:243:255:2048,-0.013,-0.007,1.001,0.122,-0.183,-0.183,0.291,1.439,-129.683
 15:28:17.751,eb:33:2e:f9:57:b5, 2085-97-232 255:244:255:2048,-0.011,-0.007,1,0.061,-0.183,-0.183,0.291,1.439,-129.683
 15:28:17.751,eb:33:2e:f9:57:b5, 2085-97-232 255:244:255:2049,-0.011,-0.006,1.001,0,-0.122,-0.183,0.291,1.434,-129.688
 15:28:17.751,eb:33:2e:f9:57:b5, 2085-97-232 255:241:255:2051,-0.011,-0.007,1.001,-0.061,0,-0.122,0.291,1.434,-129.688
 15:28:17.751,eb:33:2e:f9:57:b5, 2085-97-231 255:242:255:2050,-0.013,-0.007,1.001,-0.061,0.122,-0.122,0.291,1.439,-129.688
 15:28:17.809,eb:33:2e:f9:57:b5, 2085-97-228 255:239:255:2048,-0.015,-0.008,1,-0.122,0.305,-0.061,0.286,1.439,-129.688
 15:28:17.809,eb:33:2e:f9:57:b5, 2085-97-226 255:237:255:2048,-0.016,-0.008,1,-0.061,0.122,-0.061,0.286,1.445,-129.688
 15:28:17.809,eb:33:2e:f9:57:b5, 2085-97-224 255:237:255:2048,-0.014,-0.01,1,0,-0.244,-0.122,0.286,1.439,-129.688
 15:28:17.809,eb:33:2e:f9:57:b5, 2085-97-229 255:238:255:2050,-0.013,-0.01,1.002,0,-0.549,-0.061,0.286,1.434,-129.694
 15:28:17.840,eb:33:2e:f9:57:b5, 2085-97-230 255:242:255:2049,-0.012,-0.007,1.001,0.061,-0.671,-0.061,0.286,1.428,-129.694
 15:28:17.840,eb:33:2e:f9:57:b5, 2085-97-230 255:241:255:2048,-0.012,-0.007,1,0.061,-0.61,0,0.286,1.423,-129.694
 15:28:17.840,eb:33:2e:f9:57:b5, 2085-97-231 255:243:255:2048,-0.011,-0.008,1.001,0.122,-0.671,0.061,0.291,1.417,-129.694
 15:28:17.840,eb:33:2e:f9:57:b5, 2085-97-233 255:242:255:2051,-0.011,-0.007,1.002,0.061,-0.671,0,0.291,1.406,-129.688
 15:28:17.899,eb:33:2e:f9:57:b5, 2085-97-232 255:240:255:2050,-0.011,-0.008,1.002,0,-0.549,-0.061,0.291,1.401,-129.688
 15:28:17.899,eb:33:2e:f9:57:b5, 2085-97-233 255:242:255:2049,-0.011,-0.007,1,0,-0.488,0,0.291,1.395,-129.688
 15:28:17.899,eb:33:2e:f9:57:b5, 2085-97-235 255:241:255:2048,-0.01,-0.007,1.001,0,-0.366,0,0.291,1.395,-129.688
 15:28:17.899,eb:33:2e:f9:57:b5, 2085-97-233 255:242:255:2049,-0.012,-0.007,1.001,0,-0.244,0,0.291,1.39,-129.688
 15:28:17.959,eb:33:2e:f9:57:b5, 2085-97-228 255:239:255:2051,-0.013,-0.009,1.001,0,-0.122,0.061,0.291,1.39,-129.688
 15:28:17.959,eb:33:2e:f9:57:b5, 2085-97-228 255:239:255:2049,-0.013,-0.008,1.002,0.061,-0.244,0.061,0.291,1.384,-129.688
 15:28:17.959,eb:33:2e:f9:57:b5, 2085-97-230 255:240:255:2051,-0.013,-0.008,1,0.122,-0.488,0,0.291,1.384,-129.683
 15:28:17.959,eb:33:2e:f9:57:b5, 2085-97-233 255:242:255:2047,-0.012,-0.008,1.001,0.122,-0.549,-0.061,0.291,1.379,-129.683
 15:28:17.961,eb:33:2e:f9:57:b5, 2085-97-234 255:239:255:2051,-0.01,-0.007,1,0.122,-0.61,0,0.297,1.373,-129.683
 15:28:17.961,eb:33:2e:f9:57:b5, 2085-97-237 255:243:255:2052,-0.009,-0.007,1.002,0.061,-0.366,0,0.297,1.368,-129.683
 15:28:17.961,eb:33:2e:f9:57:b5, 2085-97-237 255:244:255:2050,-0.011,-0.007,1.001,0.061,-0.122,0,0.297,1.362,-129.683
 15:28:17.961,eb:33:2e:f9:57:b5, 2085-97-235 255:242:255:2049,-0.01,-0.007,1,0,0.061,0,0.297,1.362,-129.683
 15:28:18.049,eb:33:2e:f9:57:b5, 2085-97-233 255:241:255:2049,-0.01,-0.008,1.002,0,0.061,0,0.297,1.368,-129.683
 15:28:18.049,eb:33:2e:f9:57:b5, 2085-97-235 255:240:255:2051,-0.011,-0.007,1.001,-0.061,0.122,0,0.297,1.368,-129.683
 15:28:18.049,eb:33:2e:f9:57:b5, 2085-97-232 255:240:255:2049,-0.011,-0.007,1,0,0.305,0.061,0.297,1.368,-129.683
 15:28:18.049,eb:33:2e:f9:57:b5, 2085-97-233 255:240:255:2050,-0.012,-0.008,1,0,0.244,0.061,0.297,1.373,-129.677
 15:28:18.049,eb:33:2e:f9:57:b5, 2085-97-232 255:240:255:2049,-0.012,-0.008,1.001,0,0.244,0.122,0.297,1.373,-129.677
 15:28:18.049,eb:33:2e:f9:57:b5, 2085-113-58 00:166:225:-6210,-0.013,-0.008,1.001,0.061,0.183,0.122,0.297,1.379,-129.677
 15:28:18.049,eb:33:2e:f9:57:b5, 2085-97-230 255:239:255:2050,-0.013,-0.008,1,0.122,0.122,0.061,0.297,1.379,-129.677
 15:28:18.049,eb:33:2e:f9:57:b5, 2085-97-231 255:241:255:2051,-0.01,-0.008,1.001,0.122,0,0,0.297,1.379,-129.672
 15:28:18.049,eb:33:2e:f9:57:b5, 2085-97-236 255:242:255:2051,-0.011,-0.007,1.002,0.061,0,0,0.302,1.379,-129.672
 15:28:18.111,eb:33:2e:f9:57:b5, 2085-97-234 255:239:255:2052,-0.011,-0.008,1.001,0.061,0.122,0,0.302,1.379,-129.672
 15:28:18.111,eb:33:2e:f9:57:b5, 2085-97-231 255:241:255:2052,-0.013,-0.008,1.002,0.061,0.183,0,0.302,1.384,-129.672
 15:28:18.111,eb:33:2e:f9:57:b5, 2085-97-232 255:240:255:2051,-0.012,-0.007,1.001,0.122,0.122,0,0.302,1.384,-129.672
 15:28:18.111,eb:33:2e:f9:57:b5, 2085-97-233 255:240:255:2050,-0.011,-0.007,1.001,0.122,0.061,0,0.302,1.39,-129.672
 15:28:18.111,eb:33:2e:f9:57:b5, 2085-97-235 255:243:255:2052,-0.011,-0.007,1.002,0.122,0,0,0.308,1.39,-129.666
 15:28:18.111,eb:33:2e:f9:57:b5, 2085-97-231 255:240:255:2051,-0.012,-0.007,1.002,0.122,0.122,0,0.308,1.39,-129.666
 15:28:18.111,eb:33:2e:f9:57:b5, 2085-97-232 255:242:255:2052,-0.011,-0.007,1.001,0.122,0.061,0,0.308,1.39,-129.666
 15:28:18.111,eb:33:2e:f9:57:b5, 2085-97-234 255:242:255:2051,-0.011,-0.007,1.001,0.183,0.061,0,0.308,1.39,-129.677
 15:28:18.167,eb:33:2e:f9:57:b5, 2085-97-231 255:238:255:2051,-0.012,-0.008,1.001,0.122,0.244,0,0.357,1.258,-129.666
 15:28:18.167,eb:33:2e:f9:57:b5, 2085-97-232 255:241:255:2052,-0.01,-0.009,1.002,0.122,0.183,0,0.357,1.258,-129.677
 15:28:18.167,eb:33:2e:f9:57:b5, 2085-97-233 255:239:255:2056,-0.011,-0.007,1.003,0.183,0.244,0.061,0.357,1.258,-129.677
 15:28:18.167,eb:33:2e:f9:57:b5, 2085-97-229 255:240:255:2049,-0.014,-0.007,1.002,0.183,0.305,0.122,0.357,1.258,-129.688
 15:28:18.229,eb:33:2e:f9:57:b5, 2085-97-230 255:241:255:2048,-0.012,-0.008,1,0.244,0.244,0,0.357,1.258,-129.688
 15:28:18.229,eb:33:2e:f9:57:b5, 2085-97-234 255:242:255:2049,-0.01,-0.007,1,0.305,0,0.061,0.357,1.258,-129.699
 15:28:18.229,eb:33:2e:f9:57:b5, 2085-97-234 255:244:255:2053,-0.01,-0.007,1.002,0.244,0.183,0.061,0.357,1.258,-129.699
 15:28:18.229,eb:33:2e:f9:57:b5, 2085-97-233 255:244:255:2050,-0.012,-0.006,1.001,0.244,0.305,0.061,0.357,1.258,-129.71
 15:28:18.259,eb:33:2e:f9:57:b5, 2085-97-230 255:241:255:2049,-0.013,-0.007,1.001,0.244,0.305,0.061,0.357,1.252,-129.71
 15:28:18.259,eb:33:2e:f9:57:b5, 2085-97-232 255:243:255:2051,-0.011,-0.007,1.001,0.244,0.305,0,0.357,1.252,-129.721
 15:28:18.259,eb:33:2e:f9:57:b5, 2085-97-233 255:243:255:2050,-0.013,-0.006,1.001,0.183,0.244,0,0.357,1.252,-129.721
 15:28:18.259,eb:33:2e:f9:57:b5, 2085-97-228 255:243:255:2049,-0.013,-0.007,1,0.183,0.244,0,0.357,1.252,-129.727
 15:28:18.290,eb:33:2e:f9:57:b5, 2085-97-232 255:243:255:2048,-0.012,-0.006,1,0.183,0.122,0,0.363,1.252,-129.727
 15:28:18.290,eb:33:2e:f9:57:b5, 2085-97-232 255:243:255:2050,-0.013,-0.006,1.001,0.122,0.122,0,0.363,1.252,-129.738
 15:28:18.290,eb:33:2e:f9:57:b5, 2085-97-231 255:242:255:2050,-0.014,-0.007,1.001,0.122,0.061,0,0.363,1.252,-129.738
 15:28:18.290,eb:33:2e:f9:57:b5, 2085-97-227 255:242:255:2050,-0.013,-0.007,1,0.122,0,0,0.363,1.252,-129.749
 15:28:18.319,eb:33:2e:f9:57:b5, 2085-97-230 255:242:255:2050,-0.013,-0.006,1,0.122,-0.122,0,0.363,1.252,-129.749
 15:28:18.319,eb:33:2e:f9:57:b5, 2085-97-229 255:244:255:2049,-0.013,-0.006,1,0.061,-0.122,0,0.363,1.252,-129.754
 15:28:18.319,eb:33:2e:f9:57:b5, 2085-97-231 255:244:255:2049,-0.012,-0.005,1,0.061,-0.122,0,0.363,1.252,-129.754
 15:28:18.319,eb:33:2e:f9:57:b5, 2085-97-230 255:243:255:2050,-0.012,-0.006,1.001,0,-0.061,0,0.363,1.252,-129.76
 15:28:18.411,eb:33:2e:f9:57:b5, 2085-97-233 255:243:255:2052,-0.011,-0.006,1.001,0.061,-0.061,0,0.363,1.252,-129.76
 15:28:18.411,eb:33:2e:f9:57:b5, 2085-97-231 255:244:255:2051,-0.012,-0.006,1.002,0,0,0,0.363,1.252,-129.771
 15:28:18.411,eb:33:2e:f9:57:b5, 2085-97-231 255:244:255:2050,-0.011,-0.006,1.002,0.061,0,0,0.363,1.247,-129.771
 15:28:18.411,eb:33:2e:f9:57:b5, 2085-97-235 255:244:255:2049,-0.011,-0.005,1,0,0,0,0.363,1.247,-129.776
 15:28:18.411,eb:33:2e:f9:57:b5, 2085-97-233 255:244:255:2051,-0.012,-0.007,1.001,0,0.061,0,0.363,1.247,-129.776
 15:28:18.411,eb:33:2e:f9:57:b5, 2085-97-231 255:242:255:2048,-0.013,-0.006,1.001,0,0.244,0.061,0.363,1.247,-129.781
 15:28:18.411,eb:33:2e:f9:57:b5, 2085-97-228 255:241:255:2050,-0.014,-0.007,1.001,0,0.183,0.061,0.368,1.247,-129.781
 15:28:18.411,eb:33:2e:f9:57:b5, 2085-97-229 255:242:255:2049,-0.013,-0.007,1.001,0.061,0,0,0.368,1.247,-129.787
 15:28:18.438,eb:33:2e:f9:57:b5, 2085-97-231 255:242:255:2049,-0.012,-0.006,1,0.061,-0.122,0,0.368,1.247,-129.787
 15:28:18.438,eb:33:2e:f9:57:b5, 2085-97-231 255:242:255:2050,-0.012,-0.007,1,0.061,-0.183,0,0.368,1.247,-129.792
 15:28:18.438,eb:33:2e:f9:57:b5, 2085-97-232 255:241:255:2052,-0.013,-0.006,1.001,0.061,-0.244,0,0.368,1.247,-129.792
 15:28:18.438,eb:33:2e:f9:57:b5, 2085-97-231 255:243:255:2052,-0.012,-0.006,1.002,0.061,-0.183,0,0.368,1.247,-129.798
 15:28:18.498,eb:33:2e:f9:57:b5, 2085-97-231 255:241:255:2051,-0.012,-0.006,1.002,0.122,-0.305,0,0.368,1.247,-129.798
 15:28:18.498,eb:33:2e:f9:57:b5, 2085-97-232 255:243:255:2050,-0.012,-0.006,1.001,0.122,-0.366,-0.061,0.368,1.247,-129.803
 15:28:18.498,eb:33:2e:f9:57:b5, 2085-97-232 255:244:255:2049,-0.01,-0.006,1,0.183,-0.305,0,0.368,1.247,-129.803
 15:28:18.498,eb:33:2e:f9:57:b5, 2085-97-234 255:244:255:2050,-0.01,-0.006,1,0.122,-0.183,0,0.368,1.247,-129.809
 15:28:18.528,eb:33:2e:f9:57:b5, 2085-97-235 255:243:255:2050,-0.011,-0.006,1.001,0.122,-0.061,-0.061,0.368,1.241,-129.809
 15:28:18.528,eb:33:2e:f9:57:b5, 2085-97-234 255:244:255:2050,-0.011,-0.006,1.001,0.122,-0.061,0,0.368,1.241,-129.814
 15:28:18.528,eb:33:2e:f9:57:b5, 2085-97-234 255:244:255:2050,-0.011,-0.007,1.001,0.061,0,0,0.368,1.241,-129.814
 15:28:18.528,eb:33:2e:f9:57:b5, 2085-97-232 255:244:255:2051,-0.011,-0.006,1.001,0,0.061,0,0.368,1.241,-129.82
 15:28:18.560,eb:33:2e:f9:57:b5, 2085-97-234 255:243:255:2051,-0.01,-0.006,1.001,0,0.122,0,0.374,1.241,-129.82
 15:28:18.560,eb:33:2e:f9:57:b5, 2085-97-234 255:245:255:2053,-0.011,-0.005,1.002,0,0.244,0,0.374,1.241,-129.825
 15:28:18.560,eb:33:2e:f9:57:b5, 2085-97-230 255:242:255:2053,-0.013,-0.007,1.002,0,0.305,0,0.374,1.241,-129.825
 15:28:18.560,eb:33:2e:f9:57:b5, 2085-97-230 255:242:255:2052,-0.012,-0.006,1.001,0,0.183,0,0.374,1.241,-129.831
 15:28:18.619,eb:33:2e:f9:57:b5, 2085-97-231 255:243:255:2050,-0.013,-0.006,1.001,0.061,0.061,-0.061,0.374,1.241,-129.831
 15:28:18.619,eb:33:2e:f9:57:b5, 2085-97-229 255:241:255:2050,-0.012,-0.007,1,0.122,0,-0.061,0.374,1.241,-129.831
 15:28:18.619,eb:33:2e:f9:57:b5, 2085-97-230 255:242:255:2050,-0.013,-0.007,1.001,0.183,-0.183,-0.061,0.374,1.241,-129.831
 15:28:18.619,eb:33:2e:f9:57:b5, 2085-97-230 255:242:255:2050,-0.013,-0.006,1.001,0.183,-0.183,-0.122,0.374,1.241,-129.836
 15:28:18.650,eb:33:2e:f9:57:b5, 2085-97-230 255:244:255:2047,-0.012,-0.007,1,0.244,-0.427,-0.183,0.374,1.236,-129.836
 15:28:18.650,eb:33:2e:f9:57:b5, 2085-97-232 255:244:255:2049,-0.011,-0.006,1,0.183,-0.549,-0.183,0.374,1.236,-129.842
 15:28:18.650,eb:33:2e:f9:57:b5, 2085-97-232 255:246:255:2050,-0.011,-0.005,1,0.183,-0.427,-0.122,0.374,1.236,-129.842
 15:28:18.650,eb:33:2e:f9:57:b5, 2085-97-236 255:244:255:2051,-0.009,-0.006,1.001,0.122,-0.427,-0.122,0.374,1.236,-129.847
 15:28:18.710,eb:33:2e:f9:57:b5, 2085-97-236 255:243:255:2050,-0.01,-0.006,1.002,0.122,-0.244,-0.061,0.374,1.236,-129.847
 15:28:18.710,eb:33:2e:f9:57:b5, 2085-97-233 255:244:255:2050,-0.01,-0.006,1.001,0.122,-0.122,-0.061,0.374,1.236,-129.847
 15:28:18.710,eb:33:2e:f9:57:b5, 2085-113-81 00:62:54:145,-0.011,-0.006,1,0.122,-0.122,0,0.379,1.236,-129.847
 15:28:18.710,eb:33:2e:f9:57:b5, 2085-97-234 255:244:255:2049,-0.01,-0.006,1.001,0.061,-0.061,-0.061,0.379,1.236,-129.847
 15:28:18.740,eb:33:2e:f9:57:b5, 2085-97-234 255:245:255:2051,-0.011,-0.005,1,0.061,0,-0.061,0.379,1.236,-129.853
 15:28:18.740,eb:33:2e:f9:57:b5, 2085-97-232 255:243:255:2049,-0.012,-0.006,1,0.061,0.061,0,0.379,1.236,-129.853
 15:28:18.740,eb:33:2e:f9:57:b5, 2085-97-230 255:243:255:2051,-0.012,-0.006,1.001,0,0.061,0,0.379,1.236,-129.858
 15:28:18.740,eb:33:2e:f9:57:b5, 2085-97-235 255:244:255:2051,-0.01,-0.005,1,0,0,0,0.379,1.23,-129.858
 15:28:18.798,eb:33:2e:f9:57:b5, 2085-97-233 255:242:255:2053,-0.012,-0.006,1.003,0,0,-0.061,0.379,1.23,-129.858
 15:28:18.798,eb:33:2e:f9:57:b5, 2085-97-232 255:243:255:2050,-0.011,-0.006,1.001,0,-0.061,0,0.379,1.23,-129.858
 15:28:18.798,eb:33:2e:f9:57:b5, 2085-97-235 255:247:255:2051,-0.01,-0.005,1.001,0.061,-0.061,0,0.379,1.23,-129.864
 15:28:18.798,eb:33:2e:f9:57:b5, 2085-97-235 255:247:255:2050,-0.009,-0.004,1.002,0,0.122,-0.061,0.379,1.23,-129.864
 15:28:18.800,eb:33:2e:f9:57:b5, 2085-97-238 255:244:255:2050,-0.01,-0.006,1.001,-0.061,0.305,-0.061,0.379,1.23,-129.864
 15:28:18.800,eb:33:2e:f9:57:b5, 2085-97-233 255:245:255:2051,-0.011,-0.006,1.001,0,0.366,0,0.379,1.23,-129.864
 15:28:18.800,eb:33:2e:f9:57:b5, 2085-97-232 255:242:255:2052,-0.011,-0.006,1.001,0,0.488,0.061,0.379,1.23,-129.869
 15:28:18.800,eb:33:2e:f9:57:b5, 2085-97-237 255:243:255:2053,-0.009,-0.007,1.003,0,0.549,0.122,0.385,1.23,-129.869
 15:28:18.860,eb:33:2e:f9:57:b5, 2085-97-232 255:244:255:2051,-0.013,-0.005,1.001,0,0.671,0.122,0.385,1.23,-129.869
 15:28:18.860,eb:33:2e:f9:57:b5, 2085-97-231 255:243:255:2051,-0.013,-0.006,1.001,-0.061,0.671,0.183,0.385,1.225,-129.869
 15:28:18.860,eb:33:2e:f9:57:b5, 2085-97-228 255:241:255:2049,-0.014,-0.007,1.001,0,0.488,0.122,0.385,1.225,-129.875
 15:28:18.860,eb:33:2e:f9:57:b5, 2085-97-231 255:243:255:2051,-0.01,-0.006,1,0.122,0.366,0.183,0.385,1.225,-129.875
 15:28:18.889,eb:33:2e:f9:57:b5, 2085-97-237 255:246:255:2053,-0.012,-0.006,1.002,0.183,0.366,0.122,0.385,1.225,-129.875
 15:28:18.889,eb:33:2e:f9:57:b5, 2085-97-227 255:242:255:2048,-0.015,-0.005,1.001,0.122,0.305,0.122,0.385,1.225,-129.875
 15:28:18.889,eb:33:2e:f9:57:b5, 2085-97-230 255:241:255:2050,-0.009,-0.007,1,0.183,0.061,0.244,0.385,1.225,-129.88
 15:28:18.889,eb:33:2e:f9:57:b5, 2085-97-238 255:245:255:2055,-0.01,-0.006,1.003,0.183,0.122,0.244,0.385,1.225,-129.88
 15:28:18.920,eb:33:2e:f9:57:b5, 2085-97-236 255:247:255:2050,-0.012,-0.004,1.002,0.183,0.427,0.244,0.385,1.225,-129.88
 15:28:18.920,eb:33:2e:f9:57:b5, 2085-97-230 255:245:255:2046,-0.013,-0.004,1,0.122,0.366,0.244,0.385,1.225,-129.88
 15:28:18.920,eb:33:2e:f9:57:b5, 2085-97-231 255:246:255:2048,-0.012,-0.005,0.999,0.061,0.427,0.122,0.385,1.225,-129.886
 15:28:18.920,eb:33:2e:f9:57:b5, 2085-97-232 255:245:255:2048,-0.012,-0.005,1.001,0.122,0.488,0.183,0.385,1.225,-129.886
 15:28:19.010,eb:33:2e:f9:57:b5, 2085-97-234 255:245:255:2051,-0.012,-0.005,1,0.061,0.488,0.061,0.385,1.225,-129.886
 15:28:19.010,eb:33:2e:f9:57:b5, 2085-97-231 255:244:255:2052,-0.013,-0.005,1.001,0.061,0.61,0.183,0.39,1.225,-129.886
 15:28:19.010,eb:33:2e:f9:57:b5, 2085-97-232 255:245:255:2048,-0.012,-0.005,1.001,0.122,0.732,0.183,0.39,1.225,-129.891
 15:28:19.010,eb:33:2e:f9:57:b5, 2085-97-227 255:243:255:2049,-0.017,-0.005,1,0.122,0.61,0.183,0.39,1.225,-129.891
 15:28:19.010,eb:33:2e:f9:57:b5, 2085-97-221 255:242:255:2045,-0.016,-0.007,0.999,0.244,0.244,0.183,0.39,1.225,-129.891
 15:28:19.010,eb:33:2e:f9:57:b5, 2085-97-229 255:244:255:2050,-0.012,-0.006,1,0.305,-0.183,0.122,0.39,1.219,-129.891
 15:28:19.010,eb:33:2e:f9:57:b5, 2085-97-230 255:245:255:2051,-0.014,-0.005,1.001,0.366,-0.183,0.061,0.39,1.219,-129.897
 15:28:19.010,eb:33:2e:f9:57:b5, 2085-97-226 255:244:255:2048,-0.013,-0.005,1.001,0.305,-0.122,0.061,0.39,1.219,-129.897
 15:28:19.039,eb:33:2e:f9:57:b5, 2085-97-232 255:247:255:2053,-0.011,-0.005,1,0.366,-0.244,0.061,0.39,1.219,-129.897
 15:28:19.039,eb:33:2e:f9:57:b5, 2085-97-232 255:246:255:2052,-0.012,-0.004,1.002,0.366,-0.122,0.122,0.39,1.225,-129.897
 15:28:19.039,eb:33:2e:f9:57:b5, 2085-97-231 255:246:255:2049,-0.012,-0.005,1.001,0.366,0,0.061,0.39,1.225,-129.902
 15:28:19.039,eb:33:2e:f9:57:b5, 2085-97-226 255:244:255:2049,-0.016,-0.005,1,0.305,0,0.061,0.396,1.219,-129.902
 15:28:19.098,eb:33:2e:f9:57:b5, 2085-97-229 255:243:255:2050,-0.013,-0.006,1,0.427,-0.244,0.061,0.39,1.219,-129.902
 15:28:19.098,eb:33:2e:f9:57:b5, 2085-97-233 255:248:255:2051,-0.012,-0.005,1.001,0.366,-0.366,0,0.396,1.219,-129.902
 15:28:19.100,eb:33:2e:f9:57:b5, 2085-97-229 255:248:255:2048,-0.012,-0.003,1,0.366,-0.244,0,0.396,1.219,-129.902
 15:28:19.100,eb:33:2e:f9:57:b5, 2085-97-230 255:242:255:2050,-0.012,-0.005,1.001,0.244,-0.244,0,0.396,1.219,-129.902
 15:28:19.128,eb:33:2e:f9:57:b5, 2085-97-229 255:244:255:2051,-0.015,-0.006,1.002,0.427,-0.305,0.122,0.396,1.219,-129.908
 15:28:19.128,eb:33:2e:f9:57:b5, 2085-97-226 255:247:255:2049,-0.015,-0.006,1.001,0.549,-0.488,0.122,0.396,1.219,-129.908
 15:28:19.128,eb:33:2e:f9:57:b5, 2085-97-226 255:247:255:2048,-0.014,-0.005,1,0.488,-0.793,0.061,0.396,1.219,-129.908
 15:28:19.128,eb:33:2e:f9:57:b5, 2085-97-231 255:249:255:2050,-0.012,-0.004,1,0.488,-1.038,-0.061,0.396,1.219,-129.908
 15:28:19.159,eb:33:2e:f9:57:b5, 2085-97-234 255:251:255:2048,-0.009,-0.003,1,0.366,-0.977,-0.183,0.396,1.219,-129.913
 15:28:19.159,eb:33:2e:f9:57:b5, 2085-97-238 255:246:255:2052,-0.01,-0.003,1.001,0.244,-0.854,-0.122,0.396,1.219,-129.913
 15:28:19.159,eb:33:2e:f9:57:b5, 2085-97-236 255:250:255:2049,-0.009,-0.004,1.001,0.244,-0.549,0,0.396,1.219,-129.913
 15:28:19.159,eb:33:2e:f9:57:b5, 2085-97-236 255:249:255:2052,-0.01,-0.002,1.001,0.122,-0.488,-0.061,0.401,1.219,-129.913
 15:28:19.219,eb:33:2e:f9:57:b5, 2085-97-237 255:249:255:2051,-0.01,-0.004,1.001,0.122,-0.427,-0.061,0.401,1.219,-129.913
 15:28:19.219,eb:33:2e:f9:57:b5, 2085-97-232 255:247:255:2051,-0.011,-0.005,1.003,0,-0.183,-0.061,0.401,1.219,-129.913
 15:28:19.219,eb:33:2e:f9:57:b5, 2085-97-230 255:244:255:2047,-0.01,-0.003,1,0.061,-0.061,0,0.401,1.219,-129.919
 15:28:19.219,eb:33:2e:f9:57:b5, 2085-97-241 255:248:255:2051,-0.007,-0.002,0.999,0.061,-0.122,0.061,0.401,1.219,-129.919
 15:28:19.249,eb:33:2e:f9:57:b5, 2085-97-242 255:251:255:2055,-0.009,-0.002,1.002,0,0.122,0,0.401,1.219,-129.919
 15:28:19.249,eb:33:2e:f9:57:b5, 2085-97-234 255:248:255:2050,-0.012,-0.003,1.002,-0.061,0.488,0.122,0.406,1.219,-129.919
 15:28:19.249,eb:33:2e:f9:57:b5, 2085-97-234 255:246:255:2055,-0.012,-0.005,1.001,-0.061,0.366,0.061,0.406,1.219,-129.919
 15:28:19.249,eb:33:2e:f9:57:b5, 2085-97-233 255:247:255:2052,-0.012,-0.005,1.003,0,0.366,0.061,0.406,1.219,-129.919
 15:28:19.278,eb:33:2e:f9:57:b5, 2085-97-233 255:246:255:2056,-0.011,-0.005,1.002,0,0.061,-0.061,0.406,1.214,-129.924
 15:28:19.278,eb:33:2e:f9:57:b5, 2085-97-234 255:250:255:2050,-0.012,-0.004,1.001,0,0,0,0.406,1.214,-129.924
 15:28:19.278,eb:33:2e:f9:57:b5, 2085-97-236 255:248:255:2052,-0.013,-0.003,1,0,-0.122,-0.061,0.406,1.214,-129.924
 15:28:19.278,eb:33:2e:f9:57:b5, 2085-97-234 255:249:255:2051,-0.012,-0.003,1.001,0,-0.061,-0.061,0.406,1.214,-129.924
 15:28:19.339,eb:33:2e:f9:57:b5, 2085-97-232 255:248:255:2049,-0.011,-0.004,1.001,0,0,-0.061,0.406,1.214,-129.924
 15:28:19.339,eb:33:2e:f9:57:b5, 2085-97-229 255:247:255:2048,-0.012,-0.005,1.001,-0.061,-0.061,-0.061,0.412,1.214,-129.924
 15:28:19.339,eb:33:2e:f9:57:b5, 2085-97-233 255:246:255:2049,-0.011,-0.004,1,-0.061,-0.244,-0.183,0.412,1.214,-129.93
 15:28:19.339,eb:33:2e:f9:57:b5, 2085-97-234 255:249:255:2051,-0.011,-0.003,1,-0.122,-0.305,-0.183,0.412,1.214,-129.93
 15:28:19.369,eb:33:2e:f9:57:b5, 2085-97-233 255:247:255:2052,-0.011,-0.004,1.001,-0.061,-0.305,-0.244,0.412,1.214,-129.93
 15:28:19.369,eb:33:2e:f9:57:b5, 2085-97-235 255:248:255:2050,-0.01,-0.004,1.002,-0.122,-0.244,-0.183,0.412,1.214,-129.93
 15:28:19.369,eb:33:2e:f9:57:b5, 2085-97-233 255:248:255:2049,-0.012,-0.004,1.001,-0.183,-0.305,-0.183,0.412,1.214,-129.93
 15:28:19.369,eb:33:2e:f9:57:b5, 2085-97-231 255:248:255:2047,-0.011,-0.004,1,-0.122,-0.183,-0.183,0.412,1.214,-129.93
 15:28:19.430,eb:33:2e:f9:57:b5, 2085-97-234 255:250:255:2050,-0.01,-0.003,1,-0.183,-0.305,-0.244,0.412,1.214,-129.935
 15:28:19.430,eb:33:2e:f9:57:b5, 2085-97-236 255:248:255:2051,-0.011,-0.003,1.001,-0.244,-0.366,-0.305,0.412,1.208,-129.935
 15:28:19.430,eb:33:2e:f9:57:b5, 2085-113-64 00:07:13:000,-0.01,-0.004,1.001,-0.305,-0.183,-0.244,0.412,1.208,-129.935
 15:28:19.433,eb:33:2e:f9:57:b5, 2085-97-234 255:246:255:2051,-0.011,-0.004,1.001,-0.305,-0.122,-0.183,0.417,1.208,-129.935
 15:28:19.433,eb:33:2e:f9:57:b5, 2085-97-234 255:245:255:2050,-0.01,-0.005,1.001,-0.305,-0.183,-0.183,0.417,1.208,-129.935
 15:28:19.461,eb:33:2e:f9:57:b5, 2085-97-237 255:247:255:2052,-0.01,-0.005,1.002,-0.366,-0.061,-0.183,0.417,1.208,-129.935
 15:28:19.461,eb:33:2e:f9:57:b5, 2085-97-236 255:247:255:2052,-0.009,-0.005,1.002,-0.366,0,-0.061,0.417,1.208,-129.935
 15:28:19.461,eb:33:2e:f9:57:b5, 2085-97-237 255:247:255:2053,-0.009,-0.004,1.002,-0.427,0.122,-0.061,0.417,1.208,-129.935
 15:28:19.461,eb:33:2e:f9:57:b5, 2085-97-239 255:247:255:2053,-0.009,-0.004,1.001,-0.427,0.366,0,0.417,1.208,-129.941
 15:28:19.489,eb:33:2e:f9:57:b5, 2085-97-237 255:246:255:2052,-0.011,-0.005,1.002,-0.427,0.488,0,0.417,1.208,-129.941
 15:28:19.489,eb:33:2e:f9:57:b5, 2085-97-226 255:245:255:2047,-0.01,-0.005,1.001,-0.427,0.671,0,0.417,1.208,-129.941
 15:28:19.489,eb:33:2e:f9:57:b5, 2085-97-235 255:243:255:2050,-0.01,-0.005,1.001,-0.427,0.427,0,0.423,1.203,-129.941
 15:28:19.489,eb:33:2e:f9:57:b5, 2085-97-231 255:241:255:2050,-0.014,-0.005,1,-0.305,0.488,0,0.423,1.203,-129.941
 15:28:19.548,eb:33:2e:f9:57:b5, 2085-97-227 255:241:255:2049,-0.013,-0.006,1,-0.183,0.427,0,0.423,1.203,-129.941
 15:28:19.548,eb:33:2e:f9:57:b5, 2085-97-231 255:242:255:2052,-0.012,-0.006,1.002,-0.122,0.244,0,0.423,1.203,-129.941
 15:28:19.548,eb:33:2e:f9:57:b5, 2085-97-234 255:246:255:2051,-0.012,-0.005,1,0,0.061,0,0.423,1.203,-129.941
 15:28:19.548,eb:33:2e:f9:57:b5, 2085-97-235 255:243:255:2051,-0.013,-0.005,1,0,0,-0.061,0.423,1.203,-129.946
 15:28:19.579,eb:33:2e:f9:57:b5, 2085-97-231 255:246:255:2049,-0.013,-0.007,1,-0.061,0.122,0,0.423,1.203,-129.946
 15:28:19.579,eb:33:2e:f9:57:b5, 2085-97-229 255:245:255:2050,-0.013,-0.005,1,0,0.061,0,0.423,1.203,-129.946
 15:28:19.579,eb:33:2e:f9:57:b5, 2085-97-233 255:243:255:2054,-0.011,-0.005,1.001,0,-0.061,0,0.423,1.203,-129.946
 15:28:19.579,eb:33:2e:f9:57:b5, 2085-97-233 255:245:255:2051,-0.012,-0.006,1.002,0,0,0,0.423,1.203,-129.946
 15:28:19.610,eb:33:2e:f9:57:b5, 2085-97-231 255:245:255:2051,-0.012,-0.005,1.001,0,-0.122,0,0.423,1.203,-129.946
 15:28:19.610,eb:33:2e:f9:57:b5, 2085-97-232 255:245:255:2048,-0.012,-0.006,1,0.061,-0.183,0,0.423,1.203,-129.946
 15:28:19.610,eb:33:2e:f9:57:b5, 2085-97-231 255:246:255:2047,-0.012,-0.005,1,0.061,-0.305,0,0.423,1.203,-129.946
 15:28:19.610,eb:33:2e:f9:57:b5, 2085-97-232 255:243:255:2050,-0.011,-0.005,1,0.061,-0.427,0,0.423,1.203,-129.946
 15:28:19.669,eb:33:2e:f9:57:b5, 2085-97-232 255:244:255:2050,-0.013,-0.006,1,0.061,-0.488,0,0.423,1.203,-129.946
 15:28:19.669,eb:33:2e:f9:57:b5, 2085-97-228 255:242:255:2049,-0.012,-0.006,1,0.183,-0.671,0.061,0.423,1.203,-129.952
 15:28:19.669,eb:33:2e:f9:57:b5, 2085-97-231 255:245:255:2049,-0.01,-0.006,1.001,0.183,-0.916,0,0.423,1.203,-129.952
 15:28:19.669,eb:33:2e:f9:57:b5, 2085-97-235 255:244:255:2051,-0.01,-0.005,1.001,0.183,-1.099,0,0.423,1.203,-129.952
 15:28:19.698,eb:33:2e:f9:57:b5, 2085-97-233 255:245:255:2049,-0.011,-0.005,1,0.244,-1.099,-0.061,0.428,1.203,-129.952
 15:28:19.698,eb:33:2e:f9:57:b5, 2085-97-236 255:246:255:2049,-0.009,-0.006,1.001,0.244,-1.16,0,0.428,1.203,-129.952
 15:28:19.698,eb:33:2e:f9:57:b5, 2085-97-235 255:243:255:2051,-0.01,-0.005,1.001,0.244,-0.977,0,0.428,1.203,-129.952
 15:28:19.698,eb:33:2e:f9:57:b5, 2085-97-236 255:245:255:2051,-0.009,-0.006,1.002,0.244,-0.916,0,0.428,1.203,-129.952
 15:28:19.729,eb:33:2e:f9:57:b5, 2085-97-239 255:248:255:2052,-0.007,-0.005,1.001,0.305,-0.732,0.061,0.428,1.198,-129.952
 15:28:19.729,eb:33:2e:f9:57:b5, 2085-97-241 255:250:255:2052,-0.007,-0.004,1.003,0.244,-0.61,0.061,0.428,1.198,-129.952
 15:28:19.729,eb:33:2e:f9:57:b5, 2085-97-237 255:246:255:2051,-0.009,-0.003,1.001,0.122,-0.427,0,0.428,1.198,-129.952
 15:28:19.729,eb:33:2e:f9:57:b5, 2085-97-238 255:247:255:2051,-0.007,-0.005,1.001,0.122,-0.183,0.061,0.428,1.198,-129.957
 15:28:19.788,eb:33:2e:f9:57:b5, 2085-97-239 255:245:255:2050,-0.01,-0.005,1.002,0.061,0,0.061,0.428,1.198,-129.957
 15:28:19.788,eb:33:2e:f9:57:b5, 2085-97-234 255:245:255:2050,-0.009,-0.005,1.001,0.122,0.122,0.183,0.428,1.198,-129.957
 15:28:19.788,eb:33:2e:f9:57:b5, 2085-97-236 255:247:255:2049,-0.009,-0.004,1.001,0.122,-0.061,0.122,0.428,1.198,-129.957
 15:28:19.788,eb:33:2e:f9:57:b5, 2085-97-239 255:248:255:2048,-0.01,-0.004,1,0.183,-0.061,0.122,0.428,1.198,-129.957
 15:28:19.820,eb:33:2e:f9:57:b5, 2085-97-233 255:242:255:2048,-0.012,-0.005,0.998,0.183,-0.305,0,0.428,1.192,-129.957
 15:28:19.820,eb:33:2e:f9:57:b5, 2085-97-231 255:244:255:2048,-0.01,-0.008,1,0.305,-0.427,0.061,0.428,1.192,-129.957
 15:28:19.820,eb:33:2e:f9:57:b5, 2085-97-235 255:243:255:2051,-0.01,-0.005,1.001,0.366,-0.61,0.061,0.428,1.192,-129.957
 15:28:19.820,eb:33:2e:f9:57:b5, 2085-97-236 255:248:255:2052,-0.011,-0.004,1.001,0.427,-0.854,0.061,0.428,1.192,-129.957
 15:28:19.849,eb:33:2e:f9:57:b5, 2085-97-236 255:246:255:2050,-0.008,-0.004,1,0.427,-0.977,0.061,0.434,1.192,-129.957
 15:28:19.849,eb:33:2e:f9:57:b5, 2085-97-240 255:248:255:2054,-0.005,-0.003,1.002,0.366,-1.099,-0.061,0.434,1.192,-129.963
 15:28:19.849,eb:33:2e:f9:57:b5, 2085-97-243 255:250:255:2053,-0.005,-0.002,1.004,0.305,-0.916,-0.061,0.434,1.192,-129.957
 15:28:19.849,eb:33:2e:f9:57:b5, 2085-97-244 255:247:255:2055,-0.006,-0.003,1.003,0.183,-0.671,-0.061,0.434,1.192,-129.963
 15:28:19.911,eb:33:2e:f9:57:b5, 2085-97-243 255:250:255:2053,-0.007,-0.003,1.002,0.122,-0.305,0,0.434,1.192,-129.963
 15:28:19.911,eb:33:2e:f9:57:b5, 2085-97-244 255:250:255:2051,-0.007,-0.003,1.002,0,-0.244,0,0.434,1.192,-129.963
 15:28:19.911,eb:33:2e:f9:57:b5, 2085-97-240 255:247:255:2050,-0.008,-0.004,1.001,0,-0.183,0,0.434,1.187,-129.963
 15:28:19.911,eb:33:2e:f9:57:b5, 2085-97-240 255:250:255:2049,-0.008,-0.004,1,0,-0.061,0.061,0.434,1.187,-129.963
 15:28:19.942,eb:33:2e:f9:57:b5, 2085-97-237 255:246:255:2048,-0.009,-0.004,1,0.061,-0.244,0.061,0.434,1.187,-129.963
 15:28:19.942,eb:33:2e:f9:57:b5, 2085-97-237 255:246:255:2047,-0.009,-0.005,1,0.122,-0.427,0.122,0.434,1.187,-129.963
 15:28:19.942,eb:33:2e:f9:57:b5, 2085-97-236 255:245:255:2046,-0.01,-0.004,0.999,0.183,-0.671,0.122,0.439,1.187,-129.963
 15:28:19.942,eb:33:2e:f9:57:b5, 2085-97-236 255:246:255:2049,-0.008,-0.005,1,0.244,-1.038,0.061,0.439,1.187,-129.963
 15:28:19.970,eb:33:2e:f9:57:b5, 2085-97-237 255:248:255:2048,-0.007,-0.003,1,0.366,-1.343,0.122,0.439,1.187,-129.963
 15:28:19.970,eb:33:2e:f9:57:b5, 2085-97-238 255:249:255:2051,-0.007,-0.004,1,0.305,-1.526,0,0.439,1.187,-129.963
 15:28:19.970,eb:33:2e:f9:57:b5, 2085-97-245 255:252:255:2053,-0.005,-0.002,1.002,0.305,-1.526,0,0.439,1.181,-129.963
 15:28:19.970,eb:33:2e:f9:57:b5, 2085-97-247 255:251:255:2053,-0.004,-0.002,1.002,0.183,-1.282,0,0.439,1.181,-129.963
 15:28:20.029,eb:33:2e:f9:57:b5, 2085-97-246 255:249:255:2052,-0.004,-0.003,1.001,0,-0.977,0,0.439,1.181,-129.963
 15:28:20.029,eb:33:2e:f9:57:b5, 2085-97-246 255:249:255:2055,-0.004,-0.002,1.002,0,-0.732,0,0.439,1.181,-129.963
 15:28:20.029,eb:33:2e:f9:57:b5, 2085-97-246 255:251:255:2052,-0.006,-0.002,1.002,0,-0.427,0,0.439,1.181,-129.963
 15:28:20.029,eb:33:2e:f9:57:b5, 2085-97-240 255:247:255:2046,-0.008,-0.004,1,-0.061,-0.366,0,0.439,1.181,-129.963
 15:28:20.059,eb:33:2e:f9:57:b5, 2085-97-239 255:248:255:2048,-0.007,-0.004,1,0,-0.61,0.061,0.439,1.181,-129.963
 15:28:20.059,eb:33:2e:f9:57:b5, 2085-97-241 255:249:255:2051,-0.006,-0.004,1.001,0,-0.793,0,0.439,1.181,-129.963
 15:28:20.059,eb:33:2e:f9:57:b5, 2085-97-241 255:249:255:2048,-0.007,-0.004,1.001,0,-0.977,0,0.439,1.181,-129.963
 15:28:20.059,eb:33:2e:f9:57:b5, 2085-97-244 255:250:255:2045,-0.006,-0.003,0.999,-0.061,-1.282,-0.061,0.439,1.181,-129.963
 15:28:20.089,eb:33:2e:f9:57:b5, 2085-97-244 255:247:255:2048,-0.004,-0.005,1,-0.061,-1.343,-0.061,0.439,1.181,-129.963
 15:28:20.089,eb:33:2e:f9:57:b5, 2085-97-245 255:247:255:2050,-0.005,-0.005,1.001,0.122,-1.282,0,0.439,1.181,-129.963
 15:28:20.089,eb:33:2e:f9:57:b5, 2085-97-245 255:248:255:2051,-0.003,-0.004,1.001,0.122,-1.404,0.061,0.439,1.181,-129.963
 15:28:20.089,eb:33:2e:f9:57:b5, 2085-97-247 255:248:255:2049,-0.003,-0.004,1.001,0.061,-1.404,0,0.439,1.181,-129.963
 15:28:20.149,eb:33:2e:f9:57:b5, 2085-97-246 255:246:255:2049,-0.005,-0.004,1.001,0,-1.343,0,0.439,1.181,-129.963
 15:28:20.149,eb:33:2e:f9:57:b5, 2085-97-247 255:249:255:2049,-0.002,-0.003,1,0.061,-1.404,-0.061,0.439,1.181,-129.963
 15:28:20.149,eb:33:2e:f9:57:b5, 2085-97-253 255:250:255:2052,-0.002,-0.003,1.001,0.061,-1.343,0,0.439,1.181,-129.963
 15:28:20.149,eb:33:2e:f9:57:b5, 2085-97-251 255:249:255:2051,-0.001,-0.004,1.001,0,-0.977,0,0.439,1.181,-129.963
 15:28:20.210,eb:33:2e:f9:57:b5, 2085-97-250 255:246:255:2054,-0.003,-0.004,1.003,-0.122,-0.854,0,0.439,1.181,-129.963
 15:28:20.210,eb:33:2e:f9:57:b5, 2085-97-250 255:248:255:2052,-0.002,-0.004,1.002,0,-0.732,0.061,0.439,1.181,-129.963
 15:28:20.210,eb:33:2e:f9:57:b5, 2085-97-251 255:250:255:2054,-0.003,-0.003,1.003,-0.061,-0.671,0,0.439,1.181,-129.963
 15:28:20.210,eb:33:2e:f9:57:b5, 2085-97-251 255:249:255:2051,-0.003,-0.004,1.002,0,-0.549,0.061,0.439,1.181,-129.963
 15:28:20.210,eb:33:2e:f9:57:b5, 2085-97-251 255:247:255:2052,-0.002,-0.004,1.001,-0.061,-0.61,-0.061,0.439,1.176,-129.963
 15:28:20.210,eb:33:2e:f9:57:b5, 2085-97-251 255:249:255:2052,-0.002,-0.003,1.002,-0.061,-0.427,-0.061,0.439,1.176,-129.963
 15:28:20.211,eb:33:2e:f9:57:b5, 2085-97-252 255:251:255:2049,-0.002,-0.003,1.001,-0.183,-0.427,-0.244,0.439,1.176,-129.963
 15:28:20.211,eb:33:2e:f9:57:b5, 2085-97-251 255:247:255:2050,-0.002,-0.003,1.001,-0.183,-0.427,-0.244,0.439,1.176,-129.963
 15:28:20.269,eb:33:2e:f9:57:b5, 2085-97-252 255:249:255:2052,0,-0.004,1.001,-0.244,-0.305,-0.244,0.439,1.176,-129.963
 15:28:20.269,eb:33:2e:f9:57:b5, 2085-113-58 00:225:226:-6150,0,-0.004,1.002,-0.244,-0.183,-0.244,0.439,1.176,-129.963
 15:28:20.269,eb:33:2e:f9:57:b5, 2085-97-255 255:246:255:2052,-0.001,-0.003,1.001,-0.183,-0.183,-0.244,0.439,1.176,-129.963
 15:28:20.269,eb:33:2e:f9:57:b5, 2085-97-253 255:247:255:2049,-0.003,-0.005,1,-0.122,0,-0.061,0.439,1.176,-129.963
 15:28:20.299,eb:33:2e:f9:57:b5, 2085-97-245 255:244:255:2047,-0.004,-0.005,0.999,0,0,0,0.439,1.176,-129.963
 15:28:20.299,eb:33:2e:f9:57:b5, 2085-97-248 255:247:255:2050,-0.005,-0.004,1,0.061,0,0,0.439,1.17,-129.963
 15:28:20.299,eb:33:2e:f9:57:b5, 2085-97-245 255:247:255:2049,-0.004,-0.005,1,0.122,-0.244,0,0.439,1.17,-129.963
 15:28:20.299,eb:33:2e:f9:57:b5, 2085-97-248 255:247:255:2050,-0.003,-0.004,1,0.122,-0.671,-0.122,0.445,1.17,-129.963
 15:28:20.329,eb:33:2e:f9:57:b5, 2085-97-251 255:248:255:2053,-0.001,-0.004,1.002,0.061,-0.854,-0.183,0.445,1.17,-129.963
 15:28:20.329,eb:33:2e:f9:57:b5, 2085-97-254 255:247:255:2054,-0.002,-0.004,1.002,0.061,-0.671,-0.122,0.445,1.17,-129.963
 15:28:20.329,eb:33:2e:f9:57:b5, 2085-97-253 255:248:255:2052,0,-0.003,1.002,0.061,-0.488,-0.122,0.445,1.17,-129.963
 15:28:20.329,eb:33:2e:f9:57:b5, 2085-97-253 255:247:255:2050,-0.001,-0.004,1,0,-0.427,-0.122,0.445,1.165,-129.963
 15:28:20.388,eb:33:2e:f9:57:b5, 2085-97-254 255:249:255:2050,0,-0.004,1,0,-0.366,-0.122,0.445,1.165,-129.963
 15:28:20.388,eb:33:2e:f9:57:b5, 2085-97-00 00:250:255:2052,0,-0.003,1.001,0,-0.183,0,0.445,1.165,-129.963
 15:28:20.388,eb:33:2e:f9:57:b5, 2085-97-253 255:246:255:2051,-0.001,-0.003,1,-0.061,-0.061,0,0.445,1.165,-129.963
 15:28:20.388,eb:33:2e:f9:57:b5, 2085-97-253 255:246:255:2049,-0.001,-0.005,1,-0.061,-0.061,0,0.445,1.165,-129.963
 15:28:20.419,eb:33:2e:f9:57:b5, 2085-97-251 255:248:255:2047,-0.001,-0.005,1,0,-0.183,0,0.445,1.165,-129.963
 15:28:20.419,eb:33:2e:f9:57:b5, 2085-97-252 255:247:255:2047,-0.004,-0.004,1,0,-0.183,0.061,0.445,1.159,-129.963
 15:28:20.419,eb:33:2e:f9:57:b5, 2085-97-249 255:247:255:2048,-0.003,-0.005,0.999,0.061,-0.305,0.061,0.445,1.159,-129.963
 15:28:20.419,eb:33:2e:f9:57:b5, 2085-97-249 255:246:255:2049,-0.003,-0.005,0.999,0.061,-0.488,0.183,0.445,1.159,-129.963
 15:28:20.448,eb:33:2e:f9:57:b5, 2085-97-251 255:248:255:2049,-0.002,-0.004,1.001,0.122,-0.732,0.183,0.445,1.159,-129.963
 15:28:20.448,eb:33:2e:f9:57:b5, 2085-97-253 255:247:255:2049,0,-0.005,1,0.122,-0.977,0.122,0.445,1.154,-129.963
 15:28:20.448,eb:33:2e:f9:57:b5, 2085-97-253 255:246:255:2049,-0.001,-0.004,1.001,0.122,-0.977,0.122,0.445,1.154,-129.963
 15:28:20.448,eb:33:2e:f9:57:b5, 2085-97-254 255:248:255:2050,0,-0.005,1,0.244,-1.038,0.122,0.45,1.154,-129.963
 15:28:20.509,eb:33:2e:f9:57:b5, 2085-97-255 255:251:255:2049,0,-0.003,1,0.244,-0.977,0.183,0.45,1.154,-129.963
 15:28:20.509,eb:33:2e:f9:57:b5, 2085-97-00 00:250:255:2049,0.001,-0.003,1.001,0.183,-0.854,0.244,0.45,1.148,-129.963
 15:28:20.509,eb:33:2e:f9:57:b5, 2085-97-01 00:249:255:2051,0,-0.003,1.002,0.122,-0.793,0.122,0.45,1.148,-129.963
 15:28:20.509,eb:33:2e:f9:57:b5, 2085-97-00 00:248:255:2051,0,-0.004,1.001,0.122,-0.732,0.122,0.45,1.148,-129.963
 15:28:20.570,eb:33:2e:f9:57:b5, 2085-97-02 00:250:255:2049,0,-0.004,1.001,0.061,-0.671,0.122,0.45,1.148,-129.963
 15:28:20.571,eb:33:2e:f9:57:b5, 2085-97-00 00:248:255:2049,0,-0.003,1,0.122,-0.549,0.183,0.45,1.143,-129.957
 15:28:20.571,eb:33:2e:f9:57:b5, 2085-97-253 255:246:255:2048,-0.001,-0.004,1,0.183,-0.61,0.305,0.45,1.143,-129.957
 15:28:20.571,eb:33:2e:f9:57:b5, 2085-97-251 255:246:255:2049,-0.001,-0.005,1,0.305,-0.854,0.305,0.45,1.143,-129.957
 15:28:20.571,eb:33:2e:f9:57:b5, 2085-97-252 255:250:255:2044,-0.003,-0.005,1.001,0.427,-1.099,0.366,0.45,1.143,-129.957
 15:28:20.571,eb:33:2e:f9:57:b5, 2085-97-250 255:247:255:2044,-0.001,-0.003,0.996,0.366,-1.526,0.427,0.45,1.137,-129.957
 15:28:20.571,eb:33:2e:f9:57:b5, 2085-97-00 00:248:255:2052,0.001,-0.004,1,0.549,-1.953,0.427,0.45,1.137,-129.957
 15:28:20.571,eb:33:2e:f9:57:b5, 2085-97-04 00:247:255:2052,0.002,-0.003,1.002,0.549,-2.014,0.305,0.456,1.137,-129.957
 15:28:20.629,eb:33:2e:f9:57:b5, 2085-97-08 00:252:255:2054,0.006,-0.004,1.002,0.61,-1.831,0.305,0.456,1.137,-129.957
 15:28:20.630,eb:33:2e:f9:57:b5, 2085-97-14 00:249:255:2058,0.006,-0.002,1.005,0.366,-1.526,0.061,0.456,1.132,-129.957
 15:28:20.630,eb:33:2e:f9:57:b5, 2085-97-10 00:251:255:2053,0.002,0,1.003,0.122,-0.916,0.061,0.456,1.132,-129.957
 15:28:20.630,eb:33:2e:f9:57:b5, 2085-97-00 00:250:255:2047,0.001,-0.004,1,0.122,-0.549,0.061,0.456,1.132,-129.957
 15:28:20.688,eb:33:2e:f9:57:b5, 2085-97-01 00:251:255:2047,0.002,-0.001,1,0.122,-0.488,0.244,0.456,1.132,-129.957
 15:28:20.688,eb:33:2e:f9:57:b5, 2085-97-04 00:253:255:2049,0,0,1,0.183,-0.671,0.305,0.456,1.126,-129.957
 15:28:20.688,eb:33:2e:f9:57:b5, 2085-97-07 00:247:255:2049,0.003,-0.003,0.999,0.061,-0.732,0.427,0.456,1.126,-129.957
 15:28:20.688,eb:33:2e:f9:57:b5, 2085-97-09 00:245:255:2054,0.004,-0.006,1.003,0.183,-0.671,0.305,0.456,1.121,-129.957
 15:28:20.688,eb:33:2e:f9:57:b5, 2085-97-07 00:244:255:2056,0.003,-0.003,1.002,0.122,-0.671,0.244,0.456,1.121,-129.957
 15:28:20.688,eb:33:2e:f9:57:b5, 2085-97-06 00:248:255:2056,0.004,-0.004,1.003,0.183,-0.549,0.183,0.456,1.121,-129.957
 15:28:20.688,eb:33:2e:f9:57:b5, 2085-97-06 00:250:255:2056,0.006,-0.003,1.004,0.183,-0.549,0.061,0.456,1.121,-129.957
 15:28:20.689,eb:33:2e:f9:57:b5, 2085-97-14 00:251:255:2055,0.004,-0.003,1.004,0.061,-0.366,0.061,0.461,1.115,-129.957
 15:28:20.750,eb:33:2e:f9:57:b5, 2085-97-11 00:252:255:2049,0.004,-0.002,1.002,0,-0.061,0.061,0.461,1.115,-129.957
 15:28:20.750,eb:33:2e:f9:57:b5, 2085-97-14 00:251:255:2052,0.006,-0.002,1.001,0,0,0.061,0.461,1.11,-129.957
 15:28:20.750,eb:33:2e:f9:57:b5, 2085-97-11 00:249:255:2054,0.004,-0.003,1.002,-0.061,0.183,0,0.461,1.11,-129.957
 15:28:20.750,eb:33:2e:f9:57:b5, 2085-97-10 00:251:255:2052,0.004,-0.003,1.002,-0.061,0.427,0,0.461,1.11,-129.957
 15:28:20.780,eb:33:2e:f9:57:b5, 2085-97-07 00:250:255:2049,0.002,-0.003,1.001,-0.061,0.61,0,0.461,1.11,-129.957
 15:28:20.780,eb:33:2e:f9:57:b5, 2085-97-02 00:249:255:2050,0.002,-0.003,1.001,-0.122,0.549,-0.061,0.461,1.104,-129.957
 15:28:20.780,eb:33:2e:f9:57:b5, 2085-97-06 00:250:255:2050,0.002,-0.002,1.001,-0.061,0.427,-0.061,0.461,1.104,-129.957
 15:28:20.780,eb:33:2e:f9:57:b5, 2085-97-01 00:247:255:2049,0.003,-0.004,1,-0.061,0.427,-0.122,0.461,1.099,-129.957
 15:28:20.840,eb:33:2e:f9:57:b5, 2085-97-01 00:253:255:2045,0.001,0,1.001,-0.305,0.671,0,0.461,1.099,-129.957
 15:28:20.840,eb:33:2e:f9:57:b5, 2085-97-02 00:248:255:2051,0.003,-0.004,1.002,-0.061,0.122,-0.061,0.461,1.093,-129.952
 15:28:20.840,eb:33:2e:f9:57:b5, 2085-97-05 00:251:255:2053,0.003,-0.003,1.002,-0.061,0,-0.061,0.461,1.093,-129.952
 15:28:20.840,eb:33:2e:f9:57:b5, 2085-97-07 00:249:255:2054,0.002,-0.002,1.003,-0.244,0.427,-0.122,0.467,1.093,-129.952
 15:28:20.840,eb:33:2e:f9:57:b5, 2085-97-09 00:251:255:2053,0.004,-0.002,1.002,-0.183,0.244,-0.244,0.467,1.093,-129.952
 15:28:20.868,eb:33:2e:f9:57:b5, 2085-113-58 00:60:226:-6510,0.005,-0.002,1.004,-0.244,0.732,-0.183,0.467,1.088,-129.952
 15:28:20.868,eb:33:2e:f9:57:b5, 2085-97-10 00:249:255:2054,0.004,-0.003,1.003,-0.305,0.977,-0.122,0.467,1.088,-129.952
 15:28:20.869,eb:33:2e:f9:57:b5, 2085-97-06 00:246:255:2053,0.001,-0.004,1.002,-0.244,1.099,-0.183,0.467,1.082,-129.952
 15:28:20.870,eb:33:2e:f9:57:b5, 2085-97-06 00:247:255:2054,0.004,-0.004,1.002,-0.244,1.343,-0.122,0.467,1.082,-129.952
 15:28:20.900,eb:33:2e:f9:57:b5, 2085-97-05 00:246:255:2052,0,-0.004,1.002,-0.244,1.404,-0.183,0.467,1.077,-129.952
 15:28:20.900,eb:33:2e:f9:57:b5, 2085-97-255 255:246:255:2051,0,-0.005,1.002,-0.244,1.404,-0.244,0.467,1.077,-129.952
 15:28:20.900,eb:33:2e:f9:57:b5, 2085-97-02 00:248:255:2050,0.002,-0.004,1,-0.183,1.282,-0.183,0.467,1.077,-129.952
 15:28:20.900,eb:33:2e:f9:57:b5, 2085-97-03 00:249:255:2052,0.001,-0.004,1.002,-0.183,1.221,-0.305,0.467,1.077,-129.952
 15:28:20.959,eb:33:2e:f9:57:b5, 2085-97-02 00:250:255:2051,0.001,-0.003,1.001,-0.183,1.526,-0.183,0.472,1.071,-129.952
 15:28:20.959,eb:33:2e:f9:57:b5, 2085-97-01 00:248:255:2051,0.002,-0.004,1.001,-0.122,1.648,-0.183,0.472,1.071,-129.952
 15:28:20.959,eb:33:2e:f9:57:b5, 2085-97-06 00:250:255:2053,0.002,-0.004,1.002,-0.183,1.831,-0.183,0.472,1.066,-129.952
 15:28:20.959,eb:33:2e:f9:57:b5, 2085-97-02 00:249:255:2049,0,-0.003,1.002,-0.244,2.014,-0.122,0.472,1.066,-129.952
 15:28:20.988,eb:33:2e:f9:57:b5, 2085-97-249 255:245:255:2048,-0.003,-0.004,0.999,-0.244,2.136,0,0.472,1.06,-129.952
 15:28:20.988,eb:33:2e:f9:57:b5, 2085-97-254 255:244:255:2051,0,-0.006,1,-0.061,2.014,0.061,0.472,1.06,-129.952
 15:28:20.988,eb:33:2e:f9:57:b5, 2085-97-252 255:244:255:2050,-0.004,-0.006,1.002,0.061,1.892,0.061,0.472,1.06,-129.952
 15:28:20.988,eb:33:2e:f9:57:b5, 2085-97-240 255:243:255:2045,-0.01,-0.005,1,0.183,1.526,0.122,0.472,1.06,-129.952
 15:28:21.019,eb:33:2e:f9:57:b5, 2085-97-237 255:245:255:2042,-0.007,-0.006,0.997,0.366,0.488,0.061,0.472,1.055,-129.952
 15:28:21.019,eb:33:2e:f9:57:b5, 2085-97-247 255:243:255:2049,-0.002,-0.006,0.999,0.61,-0.183,0,0.472,1.055,-129.952
 15:28:21.019,eb:33:2e:f9:57:b5, 2085-97-00 00:251:255:2052,0,-0.005,1.001,0.732,-0.427,0,0.472,1.049,-129.946
 15:28:21.019,eb:33:2e:f9:57:b5, 2085-97-255 255:253:255:2050,0.002,-0.002,1,0.61,-0.305,-0.061,0.472,1.049,-129.946
 15:28:21.079,eb:33:2e:f9:57:b5, 2085-97-05 00:255:255:2054,0.004,-0.001,1.002,0.549,0,-0.122,0.472,1.049,-129.946
 15:28:21.079,eb:33:2e:f9:57:b5, 2085-97-07 00:00:00:2055,0.004,0,1.003,0.305,0.671,-0.061,0.472,1.049,-129.946
 15:28:21.079,eb:33:2e:f9:57:b5, 2085-97-08 00:254:255:2051,0.003,0,1.002,0.122,1.648,-0.061,0.478,1.044,-129.946
 15:28:21.079,eb:33:2e:f9:57:b5, 2085-97-04 00:253:255:2055,0,-0.001,1.003,-0.122,2.258,-0.061,0.478,1.044,-129.946
 15:28:21.110,eb:33:2e:f9:57:b5, 2085-97-254 255:251:255:2049,-0.004,-0.001,1.002,-0.183,2.747,0,0.478,1.038,-129.946
 15:28:21.110,eb:33:2e:f9:57:b5, 2085-97-246 255:249:255:2046,-0.005,-0.003,0.999,-0.305,2.869,0,0.478,1.038,-129.946
 15:28:21.110,eb:33:2e:f9:57:b5, 2085-97-241 255:246:255:2046,-0.008,-0.004,0.999,-0.183,2.502,0,0.478,1.038,-129.946
 15:28:21.110,eb:33:2e:f9:57:b5, 2085-97-239 255:247:255:2046,-0.009,-0.005,0.999,-0.061,1.953,0,0.478,1.038,-129.946
 15:28:21.140,eb:33:2e:f9:57:b5, 2085-97-238 255:248:255:2044,-0.006,-0.004,0.999,0,1.465,0,0.478,1.033,-129.946
 15:28:21.140,eb:33:2e:f9:57:b5, 2085-97-245 255:248:255:2049,-0.006,-0.003,1,0.061,0.916,-0.061,0.478,1.033,-129.946
 15:28:21.140,eb:33:2e:f9:57:b5, 2085-97-248 255:249:255:2050,-0.004,-0.004,1,0.122,0.671,-0.061,0.478,1.027,-129.946
 15:28:21.140,eb:33:2e:f9:57:b5, 2085-97-248 255:251:255:2049,-0.003,-0.002,1,0.122,0.61,-0.061,0.478,1.027,-129.946
 15:28:21.200,eb:33:2e:f9:57:b5, 2085-97-250 255:253:255:2048,-0.003,-0.001,1,0.061,0.61,-0.122,0.478,1.027,-129.946
 15:28:21.200,eb:33:2e:f9:57:b5, 2085-97-248 255:251:255:2050,-0.004,-0.002,1,0,0.793,-0.061,0.478,1.027,-129.946
 15:28:21.200,eb:33:2e:f9:57:b5, 2085-97-248 255:252:255:2049,-0.005,-0.002,1,0,0.793,-0.061,0.483,1.022,-129.946
 15:28:21.200,eb:33:2e:f9:57:b5, 2085-97-246 255:252:255:2049,-0.005,-0.002,1,-0.061,0.793,0,0.483,1.022,-129.946
 15:28:21.229,eb:33:2e:f9:57:b5, 2085-97-246 255:251:255:2049,-0.006,-0.002,1,-0.061,0.854,-0.061,0.483,1.022,-129.946
 15:28:21.229,eb:33:2e:f9:57:b5, 2085-97-246 255:250:255:2050,-0.005,-0.003,1.001,-0.183,0.793,0,0.483,1.022,-129.946
 15:28:21.229,eb:33:2e:f9:57:b5, 2085-97-244 255:250:255:2051,-0.006,-0.002,1.001,-0.183,0.732,0,0.483,1.016,-129.946
 15:28:21.229,eb:33:2e:f9:57:b5, 2085-97-245 255:249:255:2051,-0.005,-0.003,1.001,-0.183,0.671,-0.122,0.483,1.016,-129.946
 15:28:21.259,eb:33:2e:f9:57:b5, 2085-97-243 255:250:255:2051,-0.008,-0.004,1.001,-0.183,0.671,-0.122,0.483,1.011,-129.946
 15:28:21.259,eb:33:2e:f9:57:b5, 2085-97-242 255:246:255:2048,-0.007,-0.004,1,-0.183,0.61,-0.061,0.483,1.011,-129.946
 15:28:21.260,eb:33:2e:f9:57:b5, 2085-97-242 255:249:255:2047,-0.007,-0.004,1.001,-0.061,0.427,-0.061,0.483,1.011,-129.946
 15:28:21.260,eb:33:2e:f9:57:b5, 2085-97-242 255:247:255:2049,-0.006,-0.003,1,-0.061,0.183,-0.122,0.483,1.011,-129.946
 15:28:21.319,eb:33:2e:f9:57:b5, 2085-97-245 255:248:255:2050,-0.005,-0.004,1.001,-0.122,0.122,-0.122,0.489,1.005,-129.946
 15:28:21.319,eb:33:2e:f9:57:b5, 2085-97-246 255:249:255:2050,-0.005,-0.004,1.001,-0.122,0.061,-0.122,0.489,1.005,-129.946
 15:28:21.319,eb:33:2e:f9:57:b5, 2085-97-245 255:248:255:2048,-0.006,-0.003,1,-0.183,0.061,-0.122,0.489,1.005,-129.946
 15:28:21.319,eb:33:2e:f9:57:b5, 2085-97-243 255:251:255:2049,-0.005,-0.003,1,-0.061,0.122,-0.061,0.489,1.005,-129.946
 15:28:21.349,eb:33:2e:f9:57:b5, 2085-97-247 255:251:255:2051,-0.005,-0.002,1,-0.122,0.183,0,0.489,1,-129.946
 15:28:21.349,eb:33:2e:f9:57:b5, 2085-97-246 255:248:255:2052,-0.005,-0.003,1.002,-0.244,0.366,0,0.489,1,-129.946
 15:28:21.349,eb:33:2e:f9:57:b5, 2085-97-245 255:249:255:2053,-0.004,-0.003,1.002,-0.244,0.488,0,0.489,1,-129.946
 15:28:21.349,eb:33:2e:f9:57:b5, 2085-97-244 255:249:255:2052,-0.006,-0.004,1.002,-0.305,0.488,-0.061,0.489,1,-129.946
 15:28:21.379,eb:33:2e:f9:57:b5, 2085-97-242 255:248:255:2050,-0.007,-0.003,1.001,-0.244,0.61,-0.061,0.489,1,-129.941
 15:28:21.379,eb:33:2e:f9:57:b5, 2085-97-242 255:247:255:2050,-0.007,-0.004,1.001,-0.305,0.61,-0.061,0.489,1,-129.941
 15:28:21.379,eb:33:2e:f9:57:b5, 2085-97-242 255:247:255:2052,-0.007,-0.004,1.002,-0.244,0.549,0,0.489,0.994,-129.941
 15:28:21.379,eb:33:2e:f9:57:b5, 2085-97-242 255:247:255:2051,-0.006,-0.004,1.002,-0.305,0.488,-0.061,0.489,0.994,-129.941
 15:28:21.439,eb:33:2e:f9:57:b5, 2085-97-242 255:247:255:2050,-0.007,-0.004,1.001,-0.183,0.488,-0.061,0.489,0.994,-129.941
 15:28:21.439,eb:33:2e:f9:57:b5, 2085-97-241 255:246:255:2052,-0.006,-0.005,1.002,-0.183,0.488,-0.061,0.489,0.994,-129.941
 15:28:21.439,eb:33:2e:f9:57:b5, 2085-97-244 255:248:255:2051,-0.007,-0.004,1.001,-0.122,0.427,-0.122,0.494,0.989,-129.941
 15:28:21.439,eb:33:2e:f9:57:b5, 2085-97-243 255:246:255:2055,-0.005,-0.005,1.002,-0.122,0.427,-0.122,0.494,0.989,-129.941
 15:28:21.470,eb:33:2e:f9:57:b5, 2085-97-247 255:250:255:2055,-0.005,-0.004,1.003,-0.061,0.61,-0.122,0.494,0.989,-129.941
 15:28:21.470,eb:33:2e:f9:57:b5, 2085-97-243 255:249:255:2052,-0.006,-0.004,1.004,-0.122,0.916,-0.122,0.494,0.989,-129.941
 15:28:21.470,eb:33:2e:f9:57:b5, 2085-97-241 255:247:255:2051,-0.006,-0.004,1.001,-0.183,1.16,-0.061,0.494,0.989,-129.941
 15:28:21.470,eb:33:2e:f9:57:b5, 2085-97-246 255:246:255:2053,-0.006,-0.005,1.002,-0.122,1.343,-0.122,0.494,0.989,-129.941
 15:28:21.500,eb:33:2e:f9:57:b5, 2085-97-239 255:247:255:2047,-0.008,-0.005,1.002,-0.122,1.648,-0.061,0.494,0.983,-129.941
 15:28:21.500,eb:33:2e:f9:57:b5, 2085-97-234 255:247:255:2047,-0.009,-0.005,1.001,-0.122,1.587,-0.061,0.494,0.983,-129.941
 15:28:21.500,eb:33:2e:f9:57:b5, 2085-113-81 00:38:54:094,-0.009,-0.005,1.001,-0.061,1.526,-0.122,0.494,0.983,-129.941
 15:28:21.500,eb:33:2e:f9:57:b5, 2085-97-237 255:246:255:2051,-0.009,-0.004,1.001,0,1.526,0,0.494,0.983,-129.941
 15:28:21.558,eb:33:2e:f9:57:b5, 2085-97-236 255:247:255:2049,-0.01,-0.004,1.001,-0.061,1.404,-0.061,0.494,0.983,-129.941
 15:28:21.558,eb:33:2e:f9:57:b5, 2085-97-237 255:244:255:2048,-0.01,-0.005,1,0,1.099,-0.122,0.494,0.983,-129.941
 15:28:21.558,eb:33:2e:f9:57:b5, 2085-97-239 255:247:255:2049,-0.009,-0.003,0.999,0,1.038,-0.183,0.494,0.983,-129.941
 15:28:21.558,eb:33:2e:f9:57:b5, 2085-97-236 255:247:255:2049,-0.011,-0.004,1.001,0,0.977,-0.122,0.494,0.978,-129.941
 15:28:21.588,eb:33:2e:f9:57:b5, 2085-97-234 255:246:255:2049,-0.01,-0.005,1,0.061,0.793,-0.061,0.494,0.978,-129.941
 15:28:21.588,eb:33:2e:f9:57:b5, 2085-97-236 255:245:255:2053,-0.009,-0.005,1.002,0.183,0.671,-0.122,0.5,0.978,-129.941
 15:28:21.588,eb:33:2e:f9:57:b5, 2085-97-240 255:248:255:2054,-0.007,-0.004,1.002,0.183,0.671,-0.122,0.5,0.978,-129.941
 15:28:21.588,eb:33:2e:f9:57:b5, 2085-97-245 255:251:255:2055,-0.006,-0.002,1.003,0.061,0.793,-0.244,0.5,0.978,-129.941
 15:28:21.620,eb:33:2e:f9:57:b5, 2085-97-241 255:248:255:2050,-0.011,-0.003,1.001,0,1.282,-0.122,0.5,0.978,-129.941
 15:28:21.620,eb:33:2e:f9:57:b5, 2085-97-236 255:249:255:2050,-0.01,-0.003,1,0,1.404,-0.122,0.5,0.972,-129.941
 15:28:21.620,eb:33:2e:f9:57:b5, 2085-97-238 255:245:255:2052,-0.01,-0.004,1.001,0,1.526,-0.183,0.5,0.972,-129.941
 15:28:21.620,eb:33:2e:f9:57:b5, 2085-97-234 255:249:255:2050,-0.012,-0.004,1.001,0,1.709,-0.183,0.5,0.972,-129.941
 15:28:21.678,eb:33:2e:f9:57:b5, 2085-97-230 255:248:255:2048,-0.013,-0.004,1.001,0,1.465,-0.244,0.5,0.972,-129.941
 15:28:21.678,eb:33:2e:f9:57:b5, 2085-97-226 255:248:255:2044,-0.013,-0.004,1,0,1.404,-0.183,0.5,0.972,-129.941
 15:28:21.678,eb:33:2e:f9:57:b5, 2085-97-231 255:246:255:2050,-0.011,-0.004,1,0,1.16,-0.305,0.5,0.972,-129.941
 15:28:21.678,eb:33:2e:f9:57:b5, 2085-97-238 255:245:255:2057,-0.009,-0.006,1.003,0,1.16,-0.244,0.5,0.972,-129.941
 15:28:21.709,eb:33:2e:f9:57:b5, 2085-97-231 255:249:255:2049,-0.013,-0.004,1.004,0,1.282,-0.366,0.5,0.972,-129.941
 15:28:21.709,eb:33:2e:f9:57:b5, 2085-97-230 255:246:255:2048,-0.012,-0.004,1,0,1.038,-0.366,0.5,0.972,-129.941
 15:28:21.709,eb:33:2e:f9:57:b5, 2085-97-232 255:250:255:2050,-0.012,-0.004,1,0,1.099,-0.366,0.5,0.972,-129.941
 15:28:21.709,eb:33:2e:f9:57:b5, 2085-97-231 255:247:255:2051,-0.012,-0.004,1.001,0,1.16,-0.244,0.5,0.967,-129.941
 15:28:21.739,eb:33:2e:f9:57:b5, 2085-97-228 255:248:255:2050,-0.014,-0.004,1.001,-0.061,1.16,-0.366,0.5,0.967,-129.941
 15:28:21.739,eb:33:2e:f9:57:b5, 2085-97-226 255:246:255:2047,-0.012,-0.003,0.999,-0.061,1.038,-0.366,0.505,0.967,-129.941
 15:28:21.739,eb:33:2e:f9:57:b5, 2085-97-231 255:248:255:2051,-0.013,-0.005,1.001,0,0.916,-0.305,0.505,0.967,-129.941
 15:28:21.739,eb:33:2e:f9:57:b5, 2085-97-230 255:250:255:2048,-0.014,-0.003,1.001,0,0.916,-0.305,0.505,0.967,-129.941
 15:28:21.798,eb:33:2e:f9:57:b5, 2085-97-227 255:247:255:2046,-0.014,-0.003,1,-0.061,0.793,-0.366,0.505,0.967,-129.941
 15:28:21.798,eb:33:2e:f9:57:b5, 2085-97-226 255:247:255:2045,-0.015,-0.004,0.999,-0.061,0.732,-0.366,0.505,0.967,-129.941
 15:28:21.798,eb:33:2e:f9:57:b5, 2085-97-224 255:247:255:2047,-0.014,-0.004,1,-0.061,0.61,-0.305,0.505,0.967,-129.941
 15:28:21.798,eb:33:2e:f9:57:b5, 2085-97-225 255:247:255:2046,-0.014,-0.004,1,-0.122,0.61,-0.183,0.505,0.967,-129.941
 15:28:21.829,eb:33:2e:f9:57:b5, 2085-97-226 255:250:255:2047,-0.015,-0.004,1,-0.122,0.549,-0.183,0.505,0.967,-129.941
 15:28:21.829,eb:33:2e:f9:57:b5, 2085-97-226 255:246:255:2050,-0.014,-0.004,1,-0.122,0.488,-0.183,0.505,0.967,-129.941
 15:28:21.829,eb:33:2e:f9:57:b5, 2085-97-227 255:246:255:2050,-0.015,-0.005,1.002,-0.061,0.366,-0.183,0.505,0.967,-129.941
 15:28:21.829,eb:33:2e:f9:57:b5, 2085-97-225 255:248:255:2048,-0.014,-0.004,1,-0.122,0.244,-0.244,0.505,0.967,-129.941
 15:28:21.858,eb:33:2e:f9:57:b5, 2085-97-228 255:248:255:2049,-0.014,-0.004,1,-0.122,0.244,-0.244,0.505,0.967,-129.941
 15:28:21.858,eb:33:2e:f9:57:b5, 2085-97-225 255:248:255:2048,-0.015,-0.004,1,-0.183,0.305,-0.122,0.505,0.967,-129.941
 15:28:21.859,eb:33:2e:f9:57:b5, 2085-97-226 255:246:255:2049,-0.015,-0.005,1.001,-0.122,0.305,-0.122,0.505,0.967,-129.941
 15:28:21.859,eb:33:2e:f9:57:b5, 2085-97-224 255:246:255:2050,-0.015,-0.005,1,-0.122,0.183,-0.122,0.505,0.967,-129.941
 15:28:21.919,eb:33:2e:f9:57:b5, 2085-97-228 255:246:255:2050,-0.014,-0.005,1,-0.122,0,-0.122,0.505,0.967,-129.941
 15:28:21.919,eb:33:2e:f9:57:b5, 2085-97-228 255:249:255:2047,-0.013,-0.003,0.999,-0.122,0,-0.122,0.505,0.967,-129.941
 15:28:21.919,eb:33:2e:f9:57:b5, 2085-97-228 255:247:255:2048,-0.013,-0.003,0.999,-0.183,0,-0.122,0.505,0.967,-129.941
 15:28:21.919,eb:33:2e:f9:57:b5, 2085-97-228 255:244:255:2050,-0.013,-0.005,1.002,-0.183,0.061,-0.122,0.505,0.967,-129.941
 15:28:21.948,eb:33:2e:f9:57:b5, 2085-97-229 255:246:255:2052,-0.015,-0.005,1.001,-0.122,0.122,-0.061,0.505,0.967,-129.941
 15:28:21.948,eb:33:2e:f9:57:b5, 2085-97-226 255:247:255:2051,-0.014,-0.004,1.001,-0.122,0.122,-0.061,0.511,0.967,-129.941
 15:28:21.948,eb:33:2e:f9:57:b5, 2085-97-228 255:244:255:2052,-0.014,-0.004,1.002,-0.122,0.122,-0.061,0.511,0.967,-129.941
 15:28:21.948,eb:33:2e:f9:57:b5, 2085-97-227 255:245:255:2051,-0.015,-0.006,1.003,-0.061,0.122,-0.061,0.511,0.967,-129.941
 15:28:21.978,eb:33:2e:f9:57:b5, 2085-97-225 255:248:255:2049,-0.014,-0.005,1.001,0,0.061,-0.061,0.511,0.967,-129.941
 15:28:21.978,eb:33:2e:f9:57:b5, 2085-97-227 255:248:255:2048,-0.014,-0.004,1.001,-0.061,0,-0.061,0.511,0.967,-129.941
 15:28:21.978,eb:33:2e:f9:57:b5, 2085-97-226 255:247:255:2049,-0.014,-0.004,1,-0.061,0.061,-0.061,0.511,0.967,-129.941
 15:28:21.978,eb:33:2e:f9:57:b5, 2085-97-225 255:246:255:2050,-0.016,-0.005,1.001,-0.061,0,-0.122,0.511,0.967,-129.941
 15:28:22.069,eb:33:2e:f9:57:b5, 2085-97-226 255:245:255:2051,-0.015,-0.004,1,-0.061,0,-0.061,0.511,0.967,-129.941
 15:28:22.069,eb:33:2e:f9:57:b5, 2085-97-226 255:246:255:2050,-0.015,-0.004,1.001,-0.122,-0.061,-0.061,0.511,0.967,-129.941
 15:28:22.069,eb:33:2e:f9:57:b5, 2085-97-228 255:246:255:2048,-0.013,-0.005,1,-0.122,0,-0.061,0.511,0.967,-129.941
 15:28:22.069,eb:33:2e:f9:57:b5, 2085-97-230 255:246:255:2052,-0.014,-0.004,1,-0.061,0,0,0.511,0.972,-129.941
 15:28:22.071,eb:33:2e:f9:57:b5, 2085-97-227 255:246:255:2050,-0.014,-0.005,1.001,-0.061,0.061,0,0.511,0.972,-129.941
 15:28:22.071,eb:33:2e:f9:57:b5, 2085-97-227 255:246:255:2053,-0.015,-0.005,1.001,-0.061,0,0,0.511,0.972,-129.941
 15:28:22.071,eb:33:2e:f9:57:b5, 2085-97-227 255:245:255:2053,-0.014,-0.005,1.003,0,0.061,-0.061,0.511,0.972,-129.941
 15:28:22.071,eb:33:2e:f9:57:b5, 2085-97-226 255:244:255:2054,-0.015,-0.006,1.004,0,0.061,-0.061,0.511,0.972,-129.941
 15:28:22.098,eb:33:2e:f9:57:b5, 2085-97-222 255:246:255:2046,-0.017,-0.005,1,0,0,-0.061,0.511,0.972,-129.941
 15:28:22.098,eb:33:2e:f9:57:b5, 2085-97-225 255:245:255:2049,-0.014,-0.006,1,0,-0.122,-0.122,0.511,0.972,-129.941
 15:28:22.098,eb:33:2e:f9:57:b5, 2085-97-229 255:248:255:2051,-0.014,-0.004,1.003,0.061,0,-0.061,0.511,0.972,-129.941
 15:28:22.098,eb:33:2e:f9:57:b5, 2085-97-226 255:247:255:2050,-0.014,-0.004,1.001,0.061,0,-0.061,0.511,0.972,-129.941
 15:28:22.158,eb:33:2e:f9:57:b5, 2085-97-229 255:246:255:2052,-0.012,-0.004,1.001,0,-0.122,-0.061,0.511,0.972,-129.941
 15:28:22.158,eb:33:2e:f9:57:b5, 2085-97-229 255:247:255:2052,-0.013,-0.005,1.002,0,0,-0.061,0.511,0.972,-129.946
 15:28:22.158,eb:33:2e:f9:57:b5, 2085-97-229 255:248:255:2051,-0.013,-0.004,1.002,0,0.122,0,0.511,0.972,-129.946
 15:28:22.159,eb:33:2e:f9:57:b5, 2085-97-228 255:247:255:2051,-0.015,-0.004,1.001,0,0.244,0,0.511,0.972,-129.946
 15:28:22.189,eb:33:2e:f9:57:b5, 2085-97-226 255:247:255:2050,-0.014,-0.005,1.001,0,0.122,0,0.511,0.972,-129.946
 15:28:22.189,eb:33:2e:f9:57:b5, 2085-97-228 255:247:255:2050,-0.014,-0.005,1.001,0,0.122,0,0.511,0.978,-129.946
 15:28:22.189,eb:33:2e:f9:57:b5, 2085-97-227 255:245:255:2052,-0.015,-0.005,1.001,0.061,0.061,0,0.511,0.978,-129.946
 15:28:22.189,eb:33:2e:f9:57:b5, 2085-97-226 255:245:255:2051,-0.014,-0.005,1.002,0.122,0,0,0.516,0.978,-129.946
 15:28:22.249,eb:33:2e:f9:57:b5, 2085-97-227 255:247:255:2049,-0.014,-0.005,1.001,0.061,0,-0.061,0.516,0.978,-129.946
 15:28:22.249,eb:33:2e:f9:57:b5, 2085-97-227 255:246:255:2050,-0.014,-0.004,1.001,0.122,0,-0.122,0.516,0.978,-129.946
 15:28:22.249,eb:33:2e:f9:57:b5, 2085-97-228 255:248:255:2050,-0.014,-0.005,1,0.061,0,-0.122,0.516,0.978,-129.946
 15:28:22.249,eb:33:2e:f9:57:b5, 2085-97-226 255:246:255:2049,-0.015,-0.004,1,0.061,0.061,0,0.516,0.978,-129.946
 15:28:22.280,eb:33:2e:f9:57:b5, 2085-97-226 255:248:255:2051,-0.013,-0.005,1,0,0.061,0,0.516,0.978,-129.946
 15:28:22.280,eb:33:2e:f9:57:b5, 2085-97-228 255:246:255:2050,-0.014,-0.004,1.002,0.061,0,0,0.516,0.978,-129.946
 15:28:22.280,eb:33:2e:f9:57:b5, 2085-97-230 255:245:255:2053,-0.014,-0.005,1.001,0.061,-0.061,-0.061,0.516,0.978,-129.946
 15:28:22.280,eb:33:2e:f9:57:b5, 2085-97-229 255:246:255:2052,-0.013,-0.005,1.002,0.183,0.122,0,0.516,0.983,-129.946
 15:28:22.309,eb:33:2e:f9:57:b5, 2085-97-230 255:246:255:2053,-0.013,-0.004,1.003,0.122,0.122,-0.061,0.516,0.983,-129.946
 15:28:22.309,eb:33:2e:f9:57:b5, 2085-97-227 255:246:255:2051,-0.014,-0.005,1.002,0.122,0.305,0,0.516,0.983,-129.946
 15:28:22.309,eb:33:2e:f9:57:b5, 2085-97-227 255:249:255:2052,-0.016,-0.005,1.001,0.122,0.183,-0.122,0.516,0.983,-129.946
 15:28:22.309,eb:33:2e:f9:57:b5, 2085-97-222 255:247:255:2048,-0.016,-0.004,1.001,0.122,0.244,-0.061,0.516,0.983,-129.946
 15:28:22.370,eb:33:2e:f9:57:b5, 2085-97-224 255:246:255:2049,-0.015,-0.005,1,0.183,0.061,-0.122,0.516,0.983,-129.946
 15:28:22.370,eb:33:2e:f9:57:b5, 2085-97-222 255:247:255:2049,-0.016,-0.005,1,0.183,0,-0.122,0.516,0.983,-129.946
 15:28:22.370,eb:33:2e:f9:57:b5, 2085-97-224 255:247:255:2051,-0.014,-0.004,1,0.183,-0.244,-0.122,0.516,0.983,-129.946
 15:28:22.370,eb:33:2e:f9:57:b5, 2085-97-229 255:247:255:2053,-0.012,-0.004,1.001,0.183,-0.122,0,0.516,0.983,-129.946
 15:28:22.370,eb:33:2e:f9:57:b5, 2085-97-231 255:247:255:2051,-0.014,-0.004,1.002,0.122,0,-0.061,0.516,0.983,-129.946
 15:28:22.400,eb:33:2e:f9:57:b5, 2085-113-58 00:104:227:-6570,-0.013,-0.005,1.002,0.122,0.122,-0.061,0.516,0.989,-129.946
 15:28:22.400,eb:33:2e:f9:57:b5, 2085-97-227 255:246:255:2053,-0.014,-0.005,1.003,0.122,0.183,-0.061,0.516,0.989,-129.946
 15:28:22.400,eb:33:2e:f9:57:b5, 2085-97-228 255:247:255:2054,-0.014,-0.004,1.002,0.122,0.305,-0.061,0.516,0.989,-129.946
 15:28:22.400,eb:33:2e:f9:57:b5, 2085-97-228 255:249:255:2052,-0.014,-0.004,1.003,0.122,0.488,-0.061,0.516,0.989,-129.952
 15:28:22.429,eb:33:2e:f9:57:b5, 2085-97-225 255:249:255:2052,-0.015,-0.004,1.001,0.122,0.549,-0.122,0.516,0.989,-129.952
 15:28:22.429,eb:33:2e:f9:57:b5, 2085-97-224 255:248:255:2049,-0.017,-0.004,1,0.061,0.488,-0.183,0.516,0.989,-129.952
 15:28:22.429,eb:33:2e:f9:57:b5, 2085-97-219 255:249:255:2047,-0.017,-0.004,0.999,0.061,0.366,-0.061,0.516,0.989,-129.952
 15:28:22.429,eb:33:2e:f9:57:b5, 2085-97-225 255:248:255:2048,-0.015,-0.004,1,0.061,0,-0.122,0.516,0.989,-129.952
 15:28:22.488,eb:33:2e:f9:57:b5, 2085-97-223 255:247:255:2047,-0.016,-0.005,1,0.061,0,-0.122,0.516,0.994,-129.952
 15:28:22.488,eb:33:2e:f9:57:b5, 2085-97-225 255:249:255:2047,-0.014,-0.003,1,0,-0.061,-0.122,0.516,0.994,-129.952
 15:28:22.488,eb:33:2e:f9:57:b5, 2085-97-228 255:251:255:2047,-0.014,-0.003,1,0,0,-0.061,0.516,0.994,-129.952
 15:28:22.488,eb:33:2e:f9:57:b5, 2085-97-226 255:249:255:2049,-0.016,-0.002,1,0,0.183,0,0.516,0.994,-129.952
 15:28:22.519,eb:33:2e:f9:57:b5, 2085-97-225 255:249:255:2046,-0.015,-0.004,1,-0.061,0.183,0.061,0.516,0.994,-129.952
 15:28:22.519,eb:33:2e:f9:57:b5, 2085-97-227 255:247:255:2048,-0.013,-0.004,1,-0.061,0.183,0.061,0.516,0.994,-129.952
 15:28:22.519,eb:33:2e:f9:57:b5, 2085-97-236 255:252:255:2061,-0.013,-0.005,1.003,-0.061,0.183,0.061,0.516,0.994,-129.952
 15:28:22.519,eb:33:2e:f9:57:b5, 2085-97-209 255:246:255:2041,-0.018,-0.008,1.007,-0.122,0.61,0,0.516,0.994,-129.952
 15:28:22.550,eb:33:2e:f9:57:b5, 2085-97-224 255:246:255:2049,-0.016,-0.004,1.001,0,0,0,0.522,1,-129.952
 15:28:22.550,eb:33:2e:f9:57:b5, 2085-97-225 255:246:255:2051,-0.016,-0.005,1.001,0.061,-0.183,-0.061,0.522,1,-129.952
 15:28:22.550,eb:33:2e:f9:57:b5, 2085-97-222 255:248:255:2044,-0.015,-0.005,1,0.061,-0.061,-0.061,0.522,1,-129.952
 15:28:22.550,eb:33:2e:f9:57:b5, 2085-97-229 255:250:255:2051,-0.012,-0.004,0.999,0.061,-0.305,0,0.522,1,-129.952
 15:28:22.608,eb:33:2e:f9:57:b5, 2085-97-230 255:248:255:2052,-0.012,-0.003,1.003,0.061,-0.122,0.061,0.522,1,-129.952
 15:28:22.608,eb:33:2e:f9:57:b5, 2085-97-226 255:249:255:2050,-0.016,-0.003,1.001,0,0.122,0,0.522,1,-129.952
 15:28:22.608,eb:33:2e:f9:57:b5, 2085-97-224 255:249:255:2047,-0.016,-0.004,0.999,0,0.183,0,0.522,1,-129.952
 15:28:22.608,eb:33:2e:f9:57:b5, 2085-97-222 255:248:255:2049,-0.017,-0.004,1,-0.061,0.122,0,0.522,1,-129.952
 15:28:22.639,eb:33:2e:f9:57:b5, 2085-97-224 255:248:255:2052,-0.015,-0.004,1.001,0,0.061,0.061,0.522,1.005,-129.952
 15:28:22.639,eb:33:2e:f9:57:b5, 2085-97-229 255:247:255:2055,-0.014,-0.004,1.003,0,-0.061,0,0.522,1.005,-129.952
 15:28:22.639,eb:33:2e:f9:57:b5, 2085-97-227 255:246:255:2054,-0.014,-0.004,1.002,-0.061,0.061,0.061,0.522,1.005,-129.952
 15:28:22.639,eb:33:2e:f9:57:b5, 2085-97-228 255:247:255:2053,-0.013,-0.004,1.002,0,0.244,0.061,0.522,1.005,-129.952
 15:28:22.669,eb:33:2e:f9:57:b5, 2085-97-225 255:248:255:2050,-0.014,-0.004,1.002,-0.061,0.305,0.061,0.522,1.005,-129.952
 15:28:22.669,eb:33:2e:f9:57:b5, 2085-97-228 255:250:255:2052,-0.015,-0.003,1.001,0,0.366,0.061,0.522,1.005,-129.952
 15:28:22.669,eb:33:2e:f9:57:b5, 2085-97-224 255:248:255:2049,-0.017,-0.003,1.001,-0.061,0.366,0,0.522,1.011,-129.952
 15:28:22.669,eb:33:2e:f9:57:b5, 2085-97-222 255:247:255:2049,-0.016,-0.004,1,-0.061,0.183,0,0.522,1.011,-129.952
 15:28:22.728,eb:33:2e:f9:57:b5, 2085-97-226 255:248:255:2052,-0.015,-0.004,1.001,0,0.122,0,0.522,1.011,-129.952
 15:28:22.728,eb:33:2e:f9:57:b5, 2085-97-226 255:248:255:2052,-0.015,-0.003,1.002,0,0.244,0,0.522,1.011,-129.952
 15:28:22.728,eb:33:2e:f9:57:b5, 2085-97-226 255:247:255:2049,-0.015,-0.004,1,-0.061,0.305,0,0.522,1.011,-129.952
 15:28:22.728,eb:33:2e:f9:57:b5, 2085-97-221 255:246:255:2048,-0.016,-0.004,1.001,-0.061,0.305,0,0.522,1.011,-129.957
 15:28:22.760,eb:33:2e:f9:57:b5, 2085-97-218 255:244:255:2047,-0.019,-0.005,1,0,0.183,0,0.522,1.011,-129.957
 15:28:22.760,eb:33:2e:f9:57:b5, 2085-97-220 255:245:255:2046,-0.017,-0.006,1,0.061,-0.061,0,0.522,1.011,-129.957
 15:28:22.760,eb:33:2e:f9:57:b5, 2085-97-223 255:249:255:2048,-0.014,-0.005,1,0.183,-0.244,0.061,0.522,1.016,-129.957
 15:28:22.760,eb:33:2e:f9:57:b5, 2085-97-225 255:246:255:2053,-0.014,-0.004,1.003,0.183,-0.244,0,0.522,1.016,-129.957
 15:28:22.818,eb:33:2e:f9:57:b5, 2085-97-231 255:247:255:2054,-0.013,-0.004,1.003,0.183,-0.244,0,0.522,1.016,-129.957
 15:28:22.818,eb:33:2e:f9:57:b5, 2085-97-227 255:246:255:2053,-0.014,-0.004,1.003,0.305,0,0,0.522,1.016,-129.957
 15:28:22.818,eb:33:2e:f9:57:b5, 2085-97-228 255:248:255:2052,-0.014,-0.005,1.002,0.305,0,0,0.522,1.016,-129.957
 15:28:22.818,eb:33:2e:f9:57:b5, 2085-97-226 255:250:255:2051,-0.015,-0.004,1.003,0.305,0.122,0,0.522,1.016,-129.957
 15:28:22.849,eb:33:2e:f9:57:b5, 2085-97-226 255:248:255:2050,-0.014,-0.004,1.002,0.244,0.183,0,0.522,1.016,-129.957
 15:28:22.849,eb:33:2e:f9:57:b5, 2085-97-225 255:249:255:2052,-0.015,-0.004,1.002,0.244,0.183,-0.061,0.522,1.016,-129.957
 15:28:22.849,eb:33:2e:f9:57:b5, 2085-97-222 255:249:255:2047,-0.017,-0.003,1,0.183,0.366,0,0.522,1.022,-129.957
 15:28:22.849,eb:33:2e:f9:57:b5, 2085-97-220 255:249:255:2047,-0.016,-0.003,0.999,0.122,0.244,-0.061,0.522,1.022,-129.957
 15:28:22.879,eb:33:2e:f9:57:b5, 2085-97-222 255:248:255:2049,-0.016,-0.004,1,0.061,0.122,-0.061,0.527,1.022,-129.957
 15:28:22.879,eb:33:2e:f9:57:b5, 2085-97-227 255:250:255:2048,-0.013,-0.003,1,0,0.061,0.061,0.527,1.022,-129.957
 15:28:22.879,eb:33:2e:f9:57:b5, 2085-97-226 255:250:255:2050,-0.015,-0.003,1.001,0.061,0.061,0,0.527,1.022,-129.957
 15:28:22.879,eb:33:2e:f9:57:b5, 2085-97-223 255:247:255:2046,-0.017,-0.003,1,0,0.244,0,0.527,1.022,-129.957
 15:28:22.908,eb:33:2e:f9:57:b5, 2085-97-223 255:248:255:2049,-0.016,-0.004,1.001,0,0.122,0,0.527,1.027,-129.957
 15:28:22.908,eb:33:2e:f9:57:b5, 2085-97-224 255:250:255:2050,-0.016,-0.002,1,-0.061,0.122,0.061,0.527,1.027,-129.946
 15:28:22.908,eb:33:2e:f9:57:b5, 2085-97-224 255:250:255:2049,-0.015,-0.003,1,-0.122,0.366,0.061,0.533,1.049,-129.952
 15:28:22.908,eb:33:2e:f9:57:b5, 2085-97-226 255:248:255:2050,-0.015,-0.003,1,-0.122,0.366,0.122,0.533,1.049,-129.941
 15:28:22.999,eb:33:2e:f9:57:b5, 2085-97-225 255:249:255:2049,-0.016,-0.003,1,-0.183,0.366,0.122,0.533,1.055,-129.941
 15:28:22.999,eb:33:2e:f9:57:b5, 2085-113-58 00:180:226:-6375,-0.017,-0.004,1,-0.244,0.427,0.122,0.533,1.055,-129.935
 15:28:22.999,eb:33:2e:f9:57:b5, 2085-97-222 255:248:255:2049,-0.017,-0.003,1,-0.244,0.488,0.122,0.533,1.055,-129.935
 15:28:22.999,eb:33:2e:f9:57:b5, 2085-97-220 255:247:255:2049,-0.018,-0.004,1,-0.244,0.366,0.061,0.533,1.055,-129.935
 15:28:22.999,eb:33:2e:f9:57:b5, 2085-97-222 255:248:255:2049,-0.017,-0.004,1.001,-0.244,0.244,0.122,0.533,1.055,-129.924
 15:28:22.999,eb:33:2e:f9:57:b5, 2085-97-221 255:250:255:2049,-0.016,-0.003,1,-0.244,0.183,0.061,0.533,1.06,-129.924
 15:28:22.999,eb:33:2e:f9:57:b5, 2085-97-224 255:247:255:2050,-0.016,-0.003,1.001,-0.244,0.061,0.061,0.533,1.06,-129.919
 15:28:22.999,eb:33:2e:f9:57:b5, 2085-97-224 255:248:255:2050,-0.016,-0.004,1,-0.244,0,0.122,0.533,1.06,-129.919
 15:28:23.028,eb:33:2e:f9:57:b5, 2085-97-225 255:245:255:2051,-0.016,-0.005,1.001,-0.244,0,0,0.533,1.06,-129.908
 15:28:23.028,eb:33:2e:f9:57:b5, 2085-97-222 255:247:255:2051,-0.017,-0.005,1.002,-0.183,0,0,0.533,1.06,-129.908
 15:28:23.028,eb:33:2e:f9:57:b5, 2085-97-222 255:246:255:2048,-0.015,-0.005,1.001,-0.244,0,0.061,0.533,1.06,-129.902
 15:28:23.028,eb:33:2e:f9:57:b5, 2085-97-226 255:246:255:2054,-0.015,-0.005,1.001,-0.122,-0.061,0,0.533,1.066,-129.902
 15:28:23.089,eb:33:2e:f9:57:b5, 2085-97-225 255:247:255:2049,-0.016,-0.004,1.001,-0.122,0,0,0.533,1.066,-129.897
 15:28:23.089,eb:33:2e:f9:57:b5, 2085-97-220 255:246:255:2047,-0.016,-0.005,0.999,-0.183,0,0,0.533,1.066,-129.897
 15:28:23.089,eb:33:2e:f9:57:b5, 2085-97-224 255:246:255:2049,-0.017,-0.005,1.001,-0.122,0,0.122,0.533,1.066,-129.886
 15:28:23.089,eb:33:2e:f9:57:b5, 2085-97-220 255:246:255:2046,-0.02,-0.004,1,-0.183,-0.122,0.061,0.533,1.066,-129.886
 15:28:23.119,eb:33:2e:f9:57:b5, 2085-97-216 255:245:255:2044,-0.017,-0.004,0.997,-0.183,-0.244,0.122,0.533,1.071,-129.88
 15:28:23.119,eb:33:2e:f9:57:b5, 2085-97-225 255:247:255:2050,-0.016,-0.004,1,-0.122,-0.732,0.061,0.533,1.071,-129.88
 15:28:23.119,eb:33:2e:f9:57:b5, 2085-97-226 255:248:255:2050,-0.015,-0.003,1.001,-0.183,-0.671,0.061,0.533,1.071,-129.869
 15:28:23.119,eb:33:2e:f9:57:b5, 2085-97-225 255:248:255:2049,-0.016,-0.005,1.001,-0.244,-0.549,0.122,0.538,1.071,-129.869
 15:28:23.149,eb:33:2e:f9:57:b5, 2085-97-223 255:246:255:2045,-0.016,-0.003,1,-0.244,-0.671,0.183,0.538,1.071,-129.864
 15:28:23.149,eb:33:2e:f9:57:b5, 2085-97-224 255:246:255:2047,-0.016,-0.005,1,-0.244,-0.732,0.122,0.538,1.077,-129.864
 15:28:23.149,eb:33:2e:f9:57:b5, 2085-97-224 255:249:255:2046,-0.016,-0.004,1,-0.305,-0.793,0.122,0.538,1.077,-129.858
 15:28:23.149,eb:33:2e:f9:57:b5, 2085-97-224 255:247:255:2050,-0.015,-0.003,1,-0.366,-0.916,0.061,0.538,1.077,-129.858
 15:28:23.238,eb:33:2e:f9:57:b5, 2085-97-226 255:247:255:2050,-0.015,-0.004,1.001,-0.488,-0.977,0.061,0.538,1.077,-129.853
 15:28:23.238,eb:33:2e:f9:57:b5, 2085-97-225 255:246:255:2050,-0.014,-0.004,1,-0.427,-0.977,0.061,0.538,1.077,-129.853
 15:28:23.238,eb:33:2e:f9:57:b5, 2085-97-227 255:247:255:2048,-0.015,-0.005,1,-0.488,-1.099,0,0.538,1.077,-129.842
 15:28:23.238,eb:33:2e:f9:57:b5, 2085-97-228 255:243:255:2053,-0.013,-0.005,1,-0.488,-1.16,0.122,0.538,1.082,-129.842
 15:28:23.240,eb:33:2e:f9:57:b5, 2085-97-231 255:243:255:2056,-0.012,-0.006,1.003,-0.427,-1.099,0,0.538,1.082,-129.836
 15:28:23.240,eb:33:2e:f9:57:b5, 2085-97-229 255:243:255:2053,-0.014,-0.006,1.003,-0.427,-1.038,0,0.538,1.082,-129.836
 15:28:23.240,eb:33:2e:f9:57:b5, 2085-97-229 255:241:255:2054,-0.013,-0.006,1.003,-0.305,-1.038,0,0.538,1.082,-129.831
 15:28:23.240,eb:33:2e:f9:57:b5, 2085-97-230 255:245:255:2052,-0.013,-0.006,1.002,-0.244,-0.977,0,0.538,1.082,-129.831
 15:28:23.269,eb:33:2e:f9:57:b5, 2085-97-229 255:245:255:2053,-0.014,-0.006,1.002,-0.183,-0.977,0,0.538,1.082,-129.825
 15:28:23.269,eb:33:2e:f9:57:b5, 2085-97-228 255:244:255:2052,-0.013,-0.006,1.002,-0.183,-0.916,0,0.538,1.082,-129.825
 15:28:23.269,eb:33:2e:f9:57:b5, 2085-97-228 255:246:255:2050,-0.014,-0.005,1.001,-0.244,-0.793,0,0.538,1.082,-129.82
 15:28:23.270,eb:33:2e:f9:57:b5, 2085-97-229 255:243:255:2053,-0.013,-0.006,1.001,-0.244,-0.854,-0.061,0.538,1.082,-129.82
 15:28:23.329,eb:33:2e:f9:57:b5, 2085-97-232 255:245:255:2054,-0.011,-0.006,1.003,-0.122,-0.793,-0.061,0.538,1.082,-129.809
 15:28:23.329,eb:33:2e:f9:57:b5, 2085-97-234 255:244:255:2053,-0.011,-0.005,1.003,-0.061,-0.61,-0.061,0.538,1.088,-129.809
 15:28:23.329,eb:33:2e:f9:57:b5, 2085-97-233 255:244:255:2055,-0.01,-0.006,1.004,-0.122,-0.305,-0.122,0.538,1.088,-129.803
 15:28:23.329,eb:33:2e:f9:57:b5, 2085-97-235 255:244:255:2055,-0.01,-0.006,1.004,-0.122,-0.183,-0.122,0.538,1.088,-129.803
 15:28:23.359,eb:33:2e:f9:57:b5, 2085-97-232 255:244:255:2052,-0.013,-0.006,1.003,-0.122,0.061,-0.122,0.538,1.088,-129.798
 15:28:23.359,eb:33:2e:f9:57:b5, 2085-97-229 255:241:255:2050,-0.012,-0.007,1,-0.061,0.183,-0.122,0.538,1.088,-129.798
 15:28:23.359,eb:33:2e:f9:57:b5, 2085-97-235 255:243:255:2055,-0.009,-0.007,1.002,0,0.061,-0.061,0.538,1.088,-129.792
 15:28:23.359,eb:33:2e:f9:57:b5, 2085-97-235 255:245:255:2052,-0.014,-0.006,1.003,0,0.427,0,0.538,1.088,-129.792
 15:28:23.390,eb:33:2e:f9:57:b5, 2085-97-227 255:245:255:2048,-0.012,-0.006,1,0.061,0.366,0,0.538,1.088,-129.787
 15:28:23.390,eb:33:2e:f9:57:b5, 2085-97-233 255:245:255:2051,-0.01,-0.005,1.001,0,0.244,0,0.538,1.088,-129.787
 15:28:23.390,eb:33:2e:f9:57:b5, 2085-97-232 255:247:255:2049,-0.01,-0.005,1.002,0,0.488,0,0.538,1.088,-129.781
 15:28:23.390,eb:33:2e:f9:57:b5, 2085-97-233 255:245:255:2051,-0.012,-0.004,1.001,0,0.793,0,0.538,1.088,-129.781
 15:28:23.448,eb:33:2e:f9:57:b5, 2085-97-234 255:245:255:2055,-0.012,-0.004,1.001,-0.061,0.977,0,0.538,1.088,-129.776
 15:28:23.448,eb:33:2e:f9:57:b5, 2085-97-234 255:244:255:2054,-0.013,-0.006,1.001,-0.061,1.16,0,0.538,1.088,-129.776
 15:28:23.448,eb:33:2e:f9:57:b5, 2085-97-232 255:241:255:2052,-0.014,-0.006,1.001,-0.061,1.282,0,0.538,1.088,-129.771
 15:28:23.448,eb:33:2e:f9:57:b5, 2085-97-225 255:242:255:2051,-0.015,-0.007,1.001,-0.061,1.282,0,0.533,1.088,-129.771
 15:28:23.507,eb:33:2e:f9:57:b5, 2085-97-225 255:242:255:2049,-0.016,-0.006,1,0.061,1.099,0,0.533,1.088,-129.76
 15:28:23.507,eb:33:2e:f9:57:b5, 2085-97-223 255:241:255:2050,-0.018,-0.007,1,0,0.977,0,0.533,1.088,-129.76
 15:28:23.507,eb:33:2e:f9:57:b5, 2085-97-224 255:241:255:2047,-0.016,-0.007,1,0.122,0.732,0,0.533,1.088,-129.754
 15:28:23.507,eb:33:2e:f9:57:b5, 2085-97-228 255:244:255:2049,-0.013,-0.006,1,0.244,0.488,0,0.533,1.088,-129.754
 15:28:23.509,eb:33:2e:f9:57:b5, 2085-97-227 255:245:255:2050,-0.016,-0.006,1.001,0.183,0.61,0,0.533,1.088,-129.749
 15:28:23.509,eb:33:2e:f9:57:b5, 2085-97-222 255:243:255:2049,-0.016,-0.006,1.001,0.244,0.488,0.061,0.533,1.093,-129.749
 15:28:23.509,eb:33:2e:f9:57:b5, 2085-97-222 255:243:255:2049,-0.017,-0.006,1.001,0.183,0.366,0.061,0.533,1.093,-129.743
 15:28:23.509,eb:33:2e:f9:57:b5, 2085-97-225 255:244:255:2051,-0.015,-0.006,1,0.244,0.183,0,0.533,1.093,-129.743
 15:28:23.569,eb:33:2e:f9:57:b5, 2085-97-228 255:249:255:2048,-0.012,-0.005,1,0.244,0.061,0,0.533,1.093,-129.738
 15:28:23.569,eb:33:2e:f9:57:b5, 2085-97-230 255:247:255:2053,-0.014,-0.004,1.002,0.183,0.366,0,0.533,1.093,-129.738
 15:28:23.569,eb:33:2e:f9:57:b5, 2085-97-228 255:247:255:2050,-0.016,-0.005,1.004,0.122,0.549,0,0.533,1.093,-129.732
 15:28:23.569,eb:33:2e:f9:57:b5, 2085-97-219 255:242:255:2044,-0.018,-0.005,1,0.122,0.488,0,0.533,1.093,-129.732
 15:28:23.601,eb:33:2e:f9:57:b5, 2085-97-222 255:242:255:2048,-0.014,-0.007,0.999,0.183,0.183,0,0.533,1.093,-129.732
 15:28:23.601,eb:33:2e:f9:57:b5, 2085-97-226 255:245:255:2051,-0.016,-0.005,1.001,0.305,0.061,0,0.533,1.099,-129.732
 15:28:23.601,eb:33:2e:f9:57:b5, 2085-97-220 255:243:255:2049,-0.018,-0.005,1,0.305,0.061,0,0.533,1.099,-129.727
 15:28:23.601,eb:33:2e:f9:57:b5, 2085-97-224 255:243:255:2052,-0.013,-0.007,1,0.366,-0.183,0,0.533,1.099,-129.727
 15:28:23.659,eb:33:2e:f9:57:b5, 2085-97-228 255:244:255:2053,-0.015,-0.006,1.002,0.427,-0.244,0,0.533,1.099,-129.721
 15:28:23.659,eb:33:2e:f9:57:b5, 2085-97-224 255:245:255:2047,-0.015,-0.006,1,0.366,-0.244,0,0.533,1.099,-129.721
 15:28:23.659,eb:33:2e:f9:57:b5, 2085-97-230 255:247:255:2053,-0.012,-0.004,1.001,0.427,-0.488,0,0.533,1.099,-129.716
 15:28:23.659,eb:33:2e:f9:57:b5, 2085-97-229 255:249:255:2049,-0.015,-0.004,1.002,0.366,-0.122,0,0.533,1.099,-129.716
 15:28:23.659,eb:33:2e:f9:57:b5, 2085-97-225 255:248:255:2048,-0.013,-0.004,1,0.366,-0.122,0,0.533,1.099,-129.71
 15:28:23.718,eb:33:2e:f9:57:b5, 2085-113-81 00:98:54:129,-0.013,-0.004,1.002,0.305,-0.183,0,0.533,1.104,-129.71
 15:28:23.718,eb:33:2e:f9:57:b5, 2085-97-230 255:249:255:2052,-0.014,-0.004,1.001,0.244,0,-0.061,0.533,1.104,-129.705
 15:28:23.718,eb:33:2e:f9:57:b5, 2085-97-229 255:248:255:2050,-0.014,-0.004,1.001,0.183,0.183,0,0.533,1.104,-129.705
 15:28:23.718,eb:33:2e:f9:57:b5, 2085-97-227 255:248:255:2051,-0.014,-0.003,1,0.061,0.305,0,0.533,1.104,-129.699
 15:28:23.720,eb:33:2e:f9:57:b5, 2085-97-224 255:246:255:2046,-0.017,-0.004,1,0.061,0.366,0,0.533,1.104,-129.699
 15:28:23.720,eb:33:2e:f9:57:b5, 2085-97-220 255:245:255:2045,-0.016,-0.005,0.999,0.061,0.183,0,0.533,1.104,-129.694
 15:28:23.720,eb:33:2e:f9:57:b5, 2085-97-225 255:246:255:2047,-0.016,-0.004,1,0.061,-0.061,0,0.533,1.104,-129.694
 15:28:23.720,eb:33:2e:f9:57:b5, 2085-97-224 255:246:255:2048,-0.015,-0.006,1,0.061,-0.061,0.061,0.533,1.104,-129.688
 15:28:23.780,eb:33:2e:f9:57:b5, 2085-97-227 255:247:255:2051,-0.015,-0.003,0.999,0.061,-0.244,0,0.533,1.11,-129.688
 15:28:23.780,eb:33:2e:f9:57:b5, 2085-97-225 255:247:255:2051,-0.015,-0.004,1,0.061,-0.183,0,0.533,1.11,-129.683
 15:28:23.780,eb:33:2e:f9:57:b5, 2085-97-227 255:247:255:2050,-0.014,-0.003,1,0,-0.122,0,0.533,1.11,-129.688
 15:28:23.781,eb:33:2e:f9:57:b5, 2085-97-229 255:248:255:2052,-0.014,-0.004,1.001,-0.061,-0.122,0.061,0.533,1.11,-129.683
 15:28:23.809,eb:33:2e:f9:57:b5, 2085-97-225 255:247:255:2050,-0.015,-0.004,1.002,0,0,0.061,0.533,1.11,-129.683
 15:28:23.809,eb:33:2e:f9:57:b5, 2085-97-226 255:246:255:2049,-0.015,-0.004,1.001,0,-0.122,0,0.533,1.11,-129.677
 15:28:23.809,eb:33:2e:f9:57:b5, 2085-97-227 255:248:255:2050,-0.014,-0.004,1.001,-0.061,-0.061,0.061,0.533,1.11,-129.677
 15:28:23.809,eb:33:2e:f9:57:b5, 2085-97-228 255:249:255:2049,-0.013,-0.004,1,-0.122,0,0.061,0.533,1.11,-129.672
 15:28:23.839,eb:33:2e:f9:57:b5, 2085-97-230 255:248:255:2048,-0.013,-0.004,1,-0.244,0.061,0.122,0.538,1.11,-129.672
 15:28:23.839,eb:33:2e:f9:57:b5, 2085-97-225 255:247:255:2048,-0.016,-0.004,1,-0.305,0.183,0.122,0.538,1.11,-129.666
 15:28:23.839,eb:33:2e:f9:57:b5, 2085-97-226 255:246:255:2047,-0.014,-0.004,1,-0.366,0.061,0.183,0.538,1.115,-129.666
 15:28:23.839,eb:33:2e:f9:57:b5, 2085-97-227 255:248:255:2050,-0.015,-0.005,1,-0.366,0,0.122,0.538,1.115,-129.661
 15:28:23.899,eb:33:2e:f9:57:b5, 2085-97-227 255:242:255:2052,-0.017,-0.006,1.002,-0.244,-0.183,0.122,0.538,1.115,-129.661
 15:28:23.899,eb:33:2e:f9:57:b5, 2085-97-224 255:240:255:2054,-0.015,-0.007,1,-0.244,-0.427,0,0.538,1.115,-129.661
 15:28:23.901,eb:33:2e:f9:57:b5, 2085-97-223 255:247:255:2048,-0.018,-0.006,1.001,-0.122,-0.61,0,0.538,1.115,-129.661
 15:28:23.901,eb:33:2e:f9:57:b5, 2085-97-220 255:241:255:2049,-0.016,-0.007,1,-0.061,-0.732,0,0.538,1.115,-129.655
 15:28:23.929,eb:33:2e:f9:57:b5, 2085-97-227 255:245:255:2049,-0.012,-0.007,1,0,-1.099,0,0.538,1.115,-129.655
 15:28:23.929,eb:33:2e:f9:57:b5, 2085-97-230 255:244:255:2051,-0.012,-0.006,1.002,0.061,-1.16,0,0.538,1.115,-129.65
 15:28:23.929,eb:33:2e:f9:57:b5, 2085-97-230 255:244:255:2048,-0.014,-0.006,1.001,0.122,-1.099,0.061,0.538,1.115,-129.65
 15:28:23.929,eb:33:2e:f9:57:b5, 2085-97-226 255:247:255:2047,-0.013,-0.005,1,0.183,-1.099,0.061,0.538,1.115,-129.644
 15:28:23.959,eb:33:2e:f9:57:b5, 2085-97-228 255:245:255:2048,-0.013,-0.006,1,0.122,-1.221,0.061,0.538,1.121,-129.644
 15:28:23.959,eb:33:2e:f9:57:b5, 2085-97-226 255:244:255:2049,-0.014,-0.006,1,0.183,-1.16,0.061,0.538,1.121,-129.644
 15:28:23.959,eb:33:2e:f9:57:b5, 2085-97-229 255:245:255:2053,-0.012,-0.005,1.001,0.244,-1.343,0.061,0.538,1.121,-129.644
 15:28:23.959,eb:33:2e:f9:57:b5, 2085-97-232 255:246:255:2050,-0.011,-0.005,1.001,0.244,-1.343,0,0.538,1.121,-129.639
 15:28:24.018,eb:33:2e:f9:57:b5, 2085-97-232 255:246:255:2052,-0.013,-0.004,1.002,0.244,-1.16,0,0.538,1.121,-129.639
 15:28:24.018,eb:33:2e:f9:57:b5, 2085-97-228 255:244:255:2048,-0.015,-0.005,1.001,0.183,-1.16,0.061,0.538,1.121,-129.633
 15:28:24.018,eb:33:2e:f9:57:b5, 2085-97-226 255:244:255:2049,-0.014,-0.006,1.001,0.305,-1.343,0.122,0.538,1.121,-129.633
 15:28:24.018,eb:33:2e:f9:57:b5, 2085-97-232 255:249:255:2050,-0.01,-0.004,1,0.366,-1.648,0.122,0.538,1.121,-129.633
 15:28:24.048,eb:33:2e:f9:57:b5, 2085-97-233 255:246:255:2049,-0.01,-0.004,1.001,0.366,-1.709,0,0.538,1.121,-129.633
 15:28:24.048,eb:33:2e:f9:57:b5, 2085-97-237 255:247:255:2047,-0.011,-0.004,1,0.366,-1.77,0,0.538,1.121,-129.633
 15:28:24.048,eb:33:2e:f9:57:b5, 2085-97-237 255:248:255:2049,-0.009,-0.004,1,0.366,-1.77,0,0.538,1.121,-129.633
 15:28:24.049,eb:33:2e:f9:57:b5, 2085-97-239 255:250:255:2052,-0.008,-0.003,1.001,0.366,-1.587,0,0.538,1.121,-129.633
 15:28:24.079,eb:33:2e:f9:57:b5, 2085-97-238 255:248:255:2051,-0.009,-0.003,1.002,0.244,-1.282,0.061,0.538,1.121,-129.633
 15:28:24.079,eb:33:2e:f9:57:b5, 2085-97-237 255:250:255:2050,-0.01,-0.003,1.001,0.122,-1.16,0.122,0.538,1.121,-129.633
 15:28:24.079,eb:33:2e:f9:57:b5, 2085-97-238 255:248:255:2051,-0.008,-0.004,1,0.061,-1.16,0.061,0.538,1.121,-129.633
 15:28:24.079,eb:33:2e:f9:57:b5, 2085-97-236 255:247:255:2052,-0.01,-0.004,1.003,0.061,-1.16,0.061,0.538,1.121,-129.633
 15:28:24.139,eb:33:2e:f9:57:b5, 2085-97-233 255:247:255:2050,-0.009,-0.004,1,0.061,-1.221,0.061,0.538,1.121,-129.633
 15:28:24.139,eb:33:2e:f9:57:b5, 2085-97-241 255:248:255:2052,-0.009,-0.003,1.001,0.061,-1.343,0.061,0.538,1.121,-129.633
 15:28:24.139,eb:33:2e:f9:57:b5, 2085-97-236 255:246:255:2050,-0.01,-0.004,1.001,0.061,-1.221,0.061,0.538,1.121,-129.633
 15:28:24.139,eb:33:2e:f9:57:b5, 2085-97-236 255:248:255:2051,-0.007,-0.004,1.001,0,-1.16,0.061,0.538,1.121,-129.633
 15:28:24.170,eb:33:2e:f9:57:b5, 2085-97-246 255:249:255:2056,-0.003,-0.003,1.002,0,-1.16,0.061,0.538,1.121,-129.633
 15:28:24.170,eb:33:2e:f9:57:b5, 2085-97-248 255:250:255:2057,-0.004,-0.003,1.004,-0.122,-0.671,0,0.538,1.121,-129.633
 15:28:24.170,eb:33:2e:f9:57:b5, 2085-97-245 255:247:255:2053,-0.007,-0.003,1.003,-0.183,-0.183,0.061,0.538,1.121,-129.633
 15:28:24.170,eb:33:2e:f9:57:b5, 2085-97-238 255:249:255:2048,-0.008,-0.004,1.001,-0.183,0,0,0.538,1.121,-129.633
 15:28:24.198,eb:33:2e:f9:57:b5, 2085-97-237 255:246:255:2050,-0.009,-0.003,1,-0.183,0,0.061,0.538,1.121,-129.633
 15:28:24.198,eb:33:2e:f9:57:b5, 2085-97-238 255:244:255:2051,-0.008,-0.006,1.002,-0.122,-0.061,0,0.538,1.121,-129.633
 15:28:24.198,eb:33:2e:f9:57:b5, 2085-97-236 255:242:255:2049,-0.011,-0.005,1.002,-0.122,-0.305,0,0.538,1.121,-129.633
 15:28:24.198,eb:33:2e:f9:57:b5, 2085-97-237 255:246:255:2049,-0.009,-0.005,0.999,0,-0.488,0.122,0.538,1.121,-129.633
 15:28:24.260,eb:33:2e:f9:57:b5, 2085-97-243 255:245:255:2055,-0.005,-0.006,1.001,0.061,-0.671,0,0.538,1.121,-129.633
 15:28:24.260,eb:33:2e:f9:57:b5, 2085-97-247 255:249:255:2055,-0.008,-0.005,1.004,0.061,-0.549,0.061,0.538,1.121,-129.633
 15:28:24.260,eb:33:2e:f9:57:b5, 2085-97-238 255:247:255:2050,-0.007,-0.004,1,0.061,-0.549,0.122,0.538,1.121,-129.633
 15:28:24.260,eb:33:2e:f9:57:b5, 2085-97-242 255:247:255:2053,-0.005,-0.005,1.002,0.061,-0.61,0,0.538,1.121,-129.633
 15:28:24.290,eb:33:2e:f9:57:b5, 2085-97-244 255:250:255:2054,-0.006,-0.003,1.004,0.061,-0.305,0.061,0.538,1.121,-129.633
 15:28:24.290,eb:33:2e:f9:57:b5, 2085-97-240 255:247:255:2051,-0.008,-0.004,1.002,0,-0.122,0.061,0.538,1.121,-129.633
 15:28:24.290,eb:33:2e:f9:57:b5, 2085-97-240 255:246:255:2050,-0.007,-0.004,1.001,0,-0.183,0.061,0.538,1.121,-129.633
 15:28:24.290,eb:33:2e:f9:57:b5, 2085-97-240 255:245:255:2051,-0.007,-0.005,1.001,0,-0.305,0.061,0.538,1.121,-129.633
 15:28:24.320,eb:33:2e:f9:57:b5, 2085-97-244 255:248:255:2050,-0.006,-0.005,1.002,0.061,-0.183,0.061,0.538,1.121,-129.633
 15:28:24.320,eb:33:2e:f9:57:b5, 2085-97-243 255:247:255:2050,-0.006,-0.004,1,0.061,-0.305,0,0.538,1.121,-129.633
 15:28:24.320,eb:33:2e:f9:57:b5, 2085-97-245 255:249:255:2050,-0.004,-0.004,1.001,0.061,-0.366,0,0.538,1.121,-129.633
 15:28:24.320,eb:33:2e:f9:57:b5, 2085-97-249 255:248:255:2053,-0.004,-0.003,1.002,0.061,-0.183,0,0.538,1.121,-129.633
 15:28:24.380,eb:33:2e:f9:57:b5, 2085-97-245 255:246:255:2057,-0.003,-0.004,1.003,0,0.183,0.061,0.538,1.121,-129.633
 15:28:24.380,eb:33:2e:f9:57:b5, 2085-97-251 255:248:255:2058,-0.005,-0.005,1.005,0,0.488,0,0.538,1.121,-129.633
 15:28:24.380,eb:33:2e:f9:57:b5, 2085-97-240 255:247:255:2051,-0.009,-0.004,1.004,0,0.916,0.061,0.538,1.115,-129.633
 15:28:24.380,eb:33:2e:f9:57:b5, 2085-97-235 255:246:255:2047,-0.009,-0.005,1,0,0.671,0,0.538,1.115,-129.633
 15:28:24.408,eb:33:2e:f9:57:b5, 2085-97-239 255:244:255:2050,-0.009,-0.006,1,0.122,0.244,0,0.538,1.115,-129.633
 15:28:24.408,eb:33:2e:f9:57:b5, 2085-97-237 255:246:255:2050,-0.009,-0.005,1.001,0.122,0.366,0.061,0.538,1.115,-129.633
 15:28:24.408,eb:33:2e:f9:57:b5, 2085-97-237 255:246:255:2046,-0.008,-0.005,0.999,0.183,0.122,0,0.538,1.115,-129.633
 15:28:24.408,eb:33:2e:f9:57:b5, 2085-97-240 255:250:255:2049,-0.008,-0.005,1,0.183,0,0,0.538,1.115,-129.633
 15:28:24.439,eb:33:2e:f9:57:b5, 2085-97-242 255:249:255:2053,-0.005,-0.003,1.001,0.122,0.244,0.122,0.538,1.115,-129.633
 15:28:24.439,eb:33:2e:f9:57:b5, 2085-97-246 255:249:255:2052,-0.006,-0.003,1.001,0.061,0.305,0.061,0.538,1.115,-129.633
 15:28:24.439,eb:33:2e:f9:57:b5, 2085-97-238 255:246:255:2048,-0.008,-0.005,1.003,0.122,0.427,0.061,0.538,1.115,-129.633
 15:28:24.439,eb:33:2e:f9:57:b5, 2085-97-239 255:248:255:2045,-0.007,-0.004,1,0.122,0.366,0.061,0.538,1.115,-129.633
 15:28:24.499,eb:33:2e:f9:57:b5, 2085-97-242 255:249:255:2051,-0.007,-0.004,0.999,0.122,0.183,0,0.538,1.115,-129.633
 15:28:24.499,eb:33:2e:f9:57:b5, 2085-113-58 00:226:225:-6240,-0.008,-0.003,1.002,0.122,0.366,0.061,0.538,1.115,-129.633
 15:28:24.499,eb:33:2e:f9:57:b5, 2085-97-240 255:247:255:2052,-0.007,-0.004,1.002,0.122,0.488,0.061,0.538,1.115,-129.633
 15:28:24.499,eb:33:2e:f9:57:b5, 2085-97-242 255:246:255:2054,-0.007,-0.004,1.002,0.061,0.549,0.061,0.538,1.115,-129.633
 15:28:24.531,eb:33:2e:f9:57:b5, 2085-97-239 255:246:255:2050,-0.01,-0.004,1.002,0.122,0.732,0,0.538,1.115,-129.633
 15:28:24.531,eb:33:2e:f9:57:b5, 2085-97-235 255:246:255:2047,-0.009,-0.005,0.999,0.183,0.488,0,0.538,1.11,-129.633
 15:28:24.531,eb:33:2e:f9:57:b5, 2085-97-238 255:250:255:2050,-0.008,-0.004,1.001,0.183,0.305,0,0.538,1.11,-129.633
 15:28:24.531,eb:33:2e:f9:57:b5, 2085-97-240 255:248:255:2049,-0.008,-0.004,1,0.183,0.244,0,0.538,1.11,-129.633
 15:28:24.559,eb:33:2e:f9:57:b5, 2085-97-239 255:250:255:2050,-0.008,-0.004,1,0.244,0.183,0,0.538,1.11,-129.633
 15:28:24.559,eb:33:2e:f9:57:b5, 2085-97-238 255:247:255:2051,-0.009,-0.003,1.001,0.244,0.244,0,0.538,1.11,-129.633
 15:28:24.559,eb:33:2e:f9:57:b5, 2085-97-237 255:247:255:2046,-0.008,-0.005,1.001,0.244,0.549,0.061,0.538,1.11,-129.633
 15:28:24.559,eb:33:2e:f9:57:b5, 2085-97-236 255:249:255:2046,-0.011,-0.003,0.999,0.305,0.366,0.122,0.538,1.11,-129.633
 15:28:24.618,eb:33:2e:f9:57:b5, 2085-97-230 255:249:255:2046,-0.011,-0.003,0.999,0.305,0.427,0.122,0.538,1.11,-129.633
 15:28:24.618,eb:33:2e:f9:57:b5, 2085-97-236 255:245:255:2051,-0.009,-0.004,1.001,0.366,0.183,0.122,0.538,1.11,-129.633
 15:28:24.618,eb:33:2e:f9:57:b5, 2085-97-235 255:240:255:2050,-0.015,-0.007,1.002,0.549,0.061,0.183,0.538,1.11,-129.633
 15:28:24.618,eb:33:2e:f9:57:b5, 2085-97-228 255:244:255:2047,-0.01,-0.008,0.998,0.854,-0.183,0.366,0.538,1.11,-129.633
 15:28:24.649,eb:33:2e:f9:57:b5, 2085-97-239 255:249:255:2051,-0.007,-0.005,1.001,1.099,-0.61,0.305,0.538,1.11,-129.633
 15:28:24.649,eb:33:2e:f9:57:b5, 2085-97-238 255:253:255:2048,-0.009,-0.002,1.001,1.038,-0.61,0.244,0.538,1.11,-129.633
 15:28:24.649,eb:33:2e:f9:57:b5, 2085-97-240 255:254:255:2048,-0.006,-0.001,1,0.977,-0.671,0.122,0.538,1.11,-129.633
 15:28:24.649,eb:33:2e:f9:57:b5, 2085-97-240 255:251:255:2052,-0.007,-0.001,1.001,0.916,-0.549,0.183,0.538,1.104,-129.633
 15:28:24.678,eb:33:2e:f9:57:b5, 2085-97-246 255:253:255:2053,-0.005,-0.003,1.002,0.977,-0.305,0.244,0.538,1.104,-129.633
 15:28:24.678,eb:33:2e:f9:57:b5, 2085-97-246 255:00:00:2051,-0.005,-0.001,1.002,0.916,-0.122,0.244,0.538,1.104,-129.633
 15:28:24.678,eb:33:2e:f9:57:b5, 2085-97-242 255:255:255:2049,-0.009,0,1.002,0.854,0.305,0.244,0.538,1.104,-129.633
 15:28:24.678,eb:33:2e:f9:57:b5, 2085-97-238 255:255:255:2047,-0.009,0,1,0.61,0.305,0.183,0.538,1.104,-129.633
 15:28:24.740,eb:33:2e:f9:57:b5, 2085-97-238 255:255:255:2050,-0.007,-0.001,1.001,0.549,0,0.061,0.538,1.104,-129.633
 15:28:24.740,eb:33:2e:f9:57:b5, 2085-97-243 255:254:255:2051,-0.007,-0.001,1.001,0.488,0.183,0,0.538,1.104,-129.633
 15:28:24.740,eb:33:2e:f9:57:b5, 2085-97-240 255:253:255:2049,-0.009,-0.002,1.001,0.366,0.305,0.061,0.538,1.104,-129.633
 15:28:24.740,eb:33:2e:f9:57:b5, 2085-97-236 255:253:255:2047,-0.011,-0.001,0.999,0.366,0.061,0.061,0.538,1.104,-129.633
 15:28:24.769,eb:33:2e:f9:57:b5, 2085-97-236 255:252:255:2047,-0.008,-0.003,1,0.427,-0.122,0.122,0.538,1.104,-129.633
 15:28:24.769,eb:33:2e:f9:57:b5, 2085-97-241 255:255:255:2048,-0.009,-0.001,1,0.488,-0.244,0.061,0.538,1.104,-129.633
 15:28:24.769,eb:33:2e:f9:57:b5, 2085-97-239 255:255:255:2047,-0.007,0,1,0.366,-0.244,0,0.538,1.104,-129.633
 15:28:24.769,eb:33:2e:f9:57:b5, 2085-97-243 255:254:255:2053,-0.006,-0.001,1.001,0.305,-0.244,0,0.544,1.104,-129.633
 15:28:24.800,eb:33:2e:f9:57:b5, 2085-97-243 255:00:00:2050,-0.008,0,1.002,0.366,0,0,0.544,1.104,-129.633
 15:28:24.800,eb:33:2e:f9:57:b5, 2085-97-237 255:252:255:2048,-0.01,-0.001,1,0.183,0.122,0,0.544,1.099,-129.633
 15:28:24.800,eb:33:2e:f9:57:b5, 2085-97-237 255:251:255:2049,-0.007,-0.002,1,0.244,-0.122,0,0.544,1.099,-129.633
 15:28:24.800,eb:33:2e:f9:57:b5, 2085-97-238 255:251:255:2051,-0.008,-0.002,1.001,0.305,-0.183,0.061,0.544,1.099,-129.633
 15:28:24.860,eb:33:2e:f9:57:b5, 2085-97-244 255:254:255:2053,-0.007,-0.002,1.002,0.427,-0.122,0.061,0.544,1.099,-129.633
 15:28:24.860,eb:33:2e:f9:57:b5, 2085-97-237 255:249:255:2048,-0.012,-0.001,1.002,0.366,-0.061,0,0.544,1.099,-129.633
 15:28:24.860,eb:33:2e:f9:57:b5, 2085-97-233 255:251:255:2049,-0.009,-0.003,1,0.427,-0.122,0.122,0.544,1.099,-129.633
 15:28:24.860,eb:33:2e:f9:57:b5, 2085-97-243 255:01:00:2054,-0.004,0,1.001,0.427,-0.366,0,0.544,1.099,-129.633
 15:28:24.889,eb:33:2e:f9:57:b5, 2085-97-242 255:00:00:2052,-0.009,0,1.003,0.366,-0.061,0,0.544,1.099,-129.633
 15:28:24.889,eb:33:2e:f9:57:b5, 2085-97-238 255:254:255:2046,-0.006,0,0.999,0.366,-0.183,0.061,0.544,1.099,-129.633
 15:28:24.889,eb:33:2e:f9:57:b5, 2085-97-246 255:00:00:2052,-0.004,-0.001,1.001,0.305,-0.305,0,0.544,1.099,-129.633
 15:28:24.889,eb:33:2e:f9:57:b5, 2085-97-241 255:01:00:2048,-0.009,0.001,1.001,0.244,-0.061,0,0.544,1.099,-129.633
 15:28:24.918,eb:33:2e:f9:57:b5, 2085-97-238 255:00:00:2048,-0.006,0,1,0.244,-0.122,0,0.544,1.099,-129.633
 15:28:24.918,eb:33:2e:f9:57:b5, 2085-97-243 255:01:00:2051,-0.007,0.001,1.001,0.122,-0.183,-0.061,0.544,1.093,-129.633
 15:28:24.918,eb:33:2e:f9:57:b5, 2085-97-238 255:00:00:2046,-0.013,0,1.001,0,0.061,0,0.544,1.093,-129.633
 15:28:24.918,eb:33:2e:f9:57:b5, 2085-97-230 255:251:255:2042,-0.011,-0.002,0.997,0.122,-0.183,0.061,0.544,1.093,-129.633
 15:28:24.979,eb:33:2e:f9:57:b5, 2085-97-236 255:00:00:2048,-0.008,-0.001,0.999,0.305,-0.671,0,0.544,1.093,-129.633
 15:28:24.979,eb:33:2e:f9:57:b5, 2085-97-237 255:254:255:2047,-0.007,-0.002,1,0.305,-0.671,0.061,0.549,1.093,-129.633
 15:28:24.979,eb:33:2e:f9:57:b5, 2085-97-247 255:03:00:2052,-0.007,0,1.001,0.366,-0.916,0,0.549,1.093,-129.633
 15:28:24.979,eb:33:2e:f9:57:b5, 2085-97-240 255:00:00:2047,-0.006,-0.001,1.001,0.244,-0.916,0.061,0.549,1.093,-129.633
 15:28:25.008,eb:33:2e:f9:57:b5, 2085-97-241 255:00:00:2049,-0.004,0,1.001,0.244,-0.977,0,0.549,1.093,-129.633
 15:28:25.008,eb:33:2e:f9:57:b5, 2085-97-245 255:01:00:2052,-0.006,0,1.002,0.183,-0.916,0,0.549,1.093,-129.633
 15:28:25.008,eb:33:2e:f9:57:b5, 2085-97-244 255:00:00:2048,-0.006,0,1.001,0.183,-0.671,0,0.549,1.093,-129.633
 15:28:25.008,eb:33:2e:f9:57:b5, 2085-97-246 255:02:00:2053,-0.004,0,1.002,0.061,-0.671,0,0.549,1.093,-129.633
 15:28:25.070,eb:33:2e:f9:57:b5, 2085-97-245 255:01:00:2050,-0.004,0,1.001,0,-0.549,0,0.549,1.093,-129.633
 15:28:25.070,eb:33:2e:f9:57:b5, 2085-97-246 255:00:00:2055,-0.005,0.001,1.003,-0.122,-0.366,-0.061,0.566,1.077,-129.633
 15:28:25.070,eb:33:2e:f9:57:b5, 2085-97-245 255:00:00:2052,-0.006,0,1.002,-0.122,-0.183,0,0.566,1.077,-129.633
 15:28:25.070,eb:33:2e:f9:57:b5, 2085-97-246 255:255:255:2050,-0.006,-0.001,1.002,-0.183,0,-0.061,0.566,1.071,-129.633
 15:28:25.070,eb:33:2e:f9:57:b5, 2085-97-241 255:254:255:2048,-0.008,-0.001,1,-0.122,0,-0.061,0.566,1.071,-129.639
 15:28:25.099,eb:33:2e:f9:57:b5, 2085-113-58 00:165:226:-6390,-0.006,0,1,-0.122,-0.122,-0.122,0.566,1.071,-129.639
 15:28:25.099,eb:33:2e:f9:57:b5, 2085-97-245 255:00:00:2053,-0.005,0,1.002,-0.122,-0.183,-0.061,0.566,1.071,-129.639
 15:28:25.099,eb:33:2e:f9:57:b5, 2085-97-245 255:00:00:2053,-0.004,0,1.003,-0.183,-0.061,-0.061,0.571,1.071,-129.639
 15:28:25.099,eb:33:2e:f9:57:b5, 2085-97-245 255:255:255:2051,-0.006,0,1.002,-0.183,0,-0.122,0.571,1.071,-129.639
 15:28:25.132,eb:33:2e:f9:57:b5, 2085-97-242 255:255:255:2048,-0.006,0,1,-0.122,0,-0.061,0.571,1.071,-129.639
 15:28:25.132,eb:33:2e:f9:57:b5, 2085-97-242 255:255:255:2050,-0.007,-0.001,1.001,-0.061,-0.061,-0.122,0.571,1.071,-129.639
 15:28:25.132,eb:33:2e:f9:57:b5, 2085-97-241 255:01:00:2048,-0.006,0,1.001,-0.183,-0.061,-0.183,0.571,1.066,-129.639
 15:28:25.132,eb:33:2e:f9:57:b5, 2085-97-244 255:255:255:2051,-0.005,0,1.001,-0.244,-0.122,-0.244,0.571,1.066,-129.639
 15:28:25.190,eb:33:2e:f9:57:b5, 2085-97-245 255:255:255:2053,-0.004,0,1.002,-0.244,-0.061,-0.122,0.571,1.066,-129.639
 15:28:25.190,eb:33:2e:f9:57:b5, 2085-97-248 255:255:255:2054,-0.004,0,1.003,-0.305,0.061,-0.183,0.571,1.066,-129.644
 15:28:25.190,eb:33:2e:f9:57:b5, 2085-97-246 255:254:255:2053,-0.005,0,1.002,-0.366,0.244,-0.122,0.571,1.066,-129.644
 15:28:25.190,eb:33:2e:f9:57:b5, 2085-97-246 255:255:255:2053,-0.004,-0.001,1.002,-0.366,0.305,-0.183,0.571,1.066,-129.644
 15:28:25.219,eb:33:2e:f9:57:b5, 2085-97-249 255:253:255:2053,-0.006,-0.001,1.002,-0.366,0.427,-0.244,0.577,1.066,-129.644
 15:28:25.219,eb:33:2e:f9:57:b5, 2085-97-240 255:252:255:2051,-0.008,-0.002,1.002,-0.305,0.549,-0.122,0.577,1.066,-129.644
 15:28:25.219,eb:33:2e:f9:57:b5, 2085-97-240 255:254:255:2049,-0.007,-0.002,1,-0.183,0.427,-0.061,0.577,1.06,-129.644
 15:28:25.219,eb:33:2e:f9:57:b5, 2085-97-243 255:253:255:2050,-0.007,-0.001,1,-0.183,0.305,-0.061,0.577,1.06,-129.644
 15:28:25.249,eb:33:2e:f9:57:b5, 2085-97-241 255:254:255:2050,-0.006,-0.001,1.001,-0.183,0.305,-0.122,0.577,1.06,-129.644
 15:28:25.249,eb:33:2e:f9:57:b5, 2085-97-242 255:252:255:2049,-0.007,-0.001,1,-0.183,0.244,-0.122,0.577,1.06,-129.644
 15:28:25.249,eb:33:2e:f9:57:b5, 2085-97-242 255:253:255:2050,-0.006,-0.002,1.001,-0.122,0.183,-0.122,0.577,1.06,-129.644
 15:28:25.249,eb:33:2e:f9:57:b5, 2085-97-244 255:254:255:2053,-0.006,0,1.001,-0.061,0.183,-0.183,0.577,1.06,-129.644
 15:28:25.310,eb:33:2e:f9:57:b5, 2085-97-245 255:253:255:2053,-0.006,-0.001,1.002,-0.061,0.366,-0.061,0.577,1.06,-129.644
 15:28:25.310,eb:33:2e:f9:57:b5, 2085-97-244 255:254:255:2053,-0.006,-0.001,1.001,-0.122,0.488,-0.122,0.577,1.06,-129.65
 15:28:25.310,eb:33:2e:f9:57:b5, 2085-97-244 255:253:255:2054,-0.007,-0.001,1.002,-0.122,0.671,0,0.582,1.055,-129.65
 15:28:25.310,eb:33:2e:f9:57:b5, 2085-97-242 255:254:255:2048,-0.007,-0.001,1.001,-0.061,0.671,-0.061,0.582,1.055,-129.65
 15:28:25.341,eb:33:2e:f9:57:b5, 2085-97-235 255:249:255:2045,-0.012,-0.002,1,0,0.671,0,0.582,1.055,-129.65
 15:28:25.341,eb:33:2e:f9:57:b5, 2085-97-234 255:253:255:2047,-0.009,-0.004,0.999,0.122,0.183,0,0.582,1.055,-129.65
 15:28:25.341,eb:33:2e:f9:57:b5, 2085-97-239 255:252:255:2048,-0.008,-0.001,1,0.183,0.122,0,0.582,1.055,-129.65
 15:28:25.341,eb:33:2e:f9:57:b5, 2085-97-242 255:255:255:2048,-0.008,-0.001,1,0.183,0,-0.061,0.582,1.055,-129.65
 15:28:25.369,eb:33:2e:f9:57:b5, 2085-97-242 255:00:00:2048,-0.005,0,1,0.183,0,0,0.582,1.055,-129.65
 15:28:25.369,eb:33:2e:f9:57:b5, 2085-97-244 255:253:255:2050,-0.007,0,1,0.183,0,0,0.582,1.055,-129.65
 15:28:25.369,eb:33:2e:f9:57:b5, 2085-97-240 255:255:255:2048,-0.007,-0.001,1,0.244,0.061,0,0.582,1.055,-129.65
 15:28:25.369,eb:33:2e:f9:57:b5, 2085-97-246 255:00:00:2052,-0.004,0,1.001,0.183,0,-0.061,0.582,1.055,-129.65
 15:28:25.429,eb:33:2e:f9:57:b5, 2085-97-247 255:00:00:2050,-0.007,0,1.002,0.183,0.183,-0.061,0.582,1.049,-129.65
 15:28:25.429,eb:33:2e:f9:57:b5, 2085-97-240 255:255:255:2045,-0.008,0,0.999,0.122,0.366,0,0.582,1.049,-129.655
 15:28:25.429,eb:33:2e:f9:57:b5, 2085-97-239 255:253:255:2049,-0.008,-0.001,0.999,0.061,0.244,0,0.588,1.049,-129.655
 15:28:25.429,eb:33:2e:f9:57:b5, 2085-97-239 255:253:255:2049,-0.009,-0.001,1.001,0.061,0.244,0.061,0.588,1.049,-129.655
 15:28:25.459,eb:33:2e:f9:57:b5, 2085-97-242 255:254:255:2051,-0.006,-0.002,1,0.122,0.061,0,0.588,1.049,-129.655
 15:28:25.459,eb:33:2e:f9:57:b5, 2085-97-243 255:255:255:2052,-0.007,0,1.001,0.061,0.061,0,0.588,1.049,-129.655
 15:28:25.459,eb:33:2e:f9:57:b5, 2085-97-241 255:255:255:2049,-0.006,0,1.001,0.061,0.122,0,0.588,1.049,-129.655
 15:28:25.459,eb:33:2e:f9:57:b5, 2085-97-245 255:00:00:2053,-0.005,0,1.002,0,0.061,0,0.588,1.049,-129.655
 15:28:25.489,eb:33:2e:f9:57:b5, 2085-97-243 255:00:00:2050,-0.007,0,1.002,0,0.366,0,0.588,1.049,-129.655
 15:28:25.489,eb:33:2e:f9:57:b5, 2085-97-239 255:255:255:2052,-0.007,0,1.001,-0.122,0.427,0,0.588,1.049,-129.655
 15:28:25.489,eb:33:2e:f9:57:b5, 2085-97-241 255:00:00:2050,-0.007,-0.001,1.001,-0.122,0.366,0,0.588,1.049,-129.655
 15:28:25.489,eb:33:2e:f9:57:b5, 2085-97-241 255:255:255:2048,-0.008,-0.001,1,-0.122,0.366,-0.061,0.588,1.049,-129.655
 15:28:25.549,eb:33:2e:f9:57:b5, 2085-97-239 255:253:255:2047,-0.007,0,1.001,-0.183,0.366,0,0.593,1.044,-129.655
 15:28:25.549,eb:33:2e:f9:57:b5, 2085-97-239 255:254:255:2048,-0.009,-0.001,1,-0.122,0.366,-0.061,0.593,1.044,-129.661
 15:28:25.549,eb:33:2e:f9:57:b5, 2085-97-237 255:254:255:2052,-0.009,0,1,-0.183,0.366,-0.061,0.593,1.044,-129.661
 15:28:25.549,eb:33:2e:f9:57:b5, 2085-97-239 255:253:255:2053,-0.008,-0.001,1.002,-0.122,0.183,0,0.593,1.044,-129.661
 15:28:25.580,eb:33:2e:f9:57:b5, 2085-97-239 255:253:255:2050,-0.008,-0.001,1.002,-0.183,0.183,-0.061,0.593,1.044,-129.661
 15:28:25.580,eb:33:2e:f9:57:b5, 2085-97-240 255:254:255:2051,-0.007,-0.002,1.001,-0.122,0.183,-0.061,0.593,1.044,-129.661
 15:28:25.580,eb:33:2e:f9:57:b5, 2085-97-241 255:254:255:2050,-0.007,-0.001,1.001,-0.183,0.122,-0.122,0.593,1.044,-129.661
 15:28:25.580,eb:33:2e:f9:57:b5, 2085-97-243 255:253:255:2052,-0.007,-0.001,1.002,-0.183,0.183,-0.061,0.593,1.044,-129.661
 15:28:25.610,eb:33:2e:f9:57:b5, 2085-97-240 255:253:255:2051,-0.009,-0.001,1.001,-0.122,0.244,0,0.593,1.044,-129.661
 15:28:25.610,eb:33:2e:f9:57:b5, 2085-97-236 255:252:255:2048,-0.01,-0.001,1,-0.122,0.305,0,0.593,1.044,-129.661
 15:28:25.610,eb:33:2e:f9:57:b5, 2085-97-237 255:254:255:2049,-0.008,-0.002,0.999,-0.122,0.122,-0.061,0.599,1.044,-129.661
 15:28:25.610,eb:33:2e:f9:57:b5, 2085-97-241 255:255:255:2051,-0.008,0,1,-0.122,0.061,-0.061,0.599,1.044,-129.661
 15:28:25.698,eb:33:2e:f9:57:b5, 2085-97-240 255:253:255:2051,-0.008,0,1.001,-0.183,0.183,-0.061,0.599,1.044,-129.661
 15:28:25.698,eb:33:2e:f9:57:b5, 2085-97-240 255:251:255:2052,-0.008,-0.001,1.001,-0.244,0.183,-0.061,0.599,1.044,-129.666
 15:28:25.698,eb:33:2e:f9:57:b5, 2085-97-239 255:252:255:2050,-0.009,-0.002,1.001,-0.122,0.183,-0.122,0.599,1.038,-129.666
 15:28:25.698,eb:33:2e:f9:57:b5, 2085-97-236 255:253:255:2048,-0.009,-0.001,1.001,-0.183,0.244,0,0.599,1.038,-129.666
 15:28:25.700,eb:33:2e:f9:57:b5, 2085-97-238 255:251:255:2049,-0.009,-0.001,1,-0.183,0.122,-0.061,0.599,1.038,-129.666
 15:28:25.700,eb:33:2e:f9:57:b5, 2085-97-240 255:252:255:2049,-0.009,-0.002,1,-0.061,0.122,-0.061,0.599,1.038,-129.666
 15:28:25.700,eb:33:2e:f9:57:b5, 2085-97-239 255:252:255:2050,-0.008,-0.001,1,-0.061,0,-0.061,0.599,1.038,-129.666
 15:28:25.700,eb:33:2e:f9:57:b5, 2085-97-241 255:254:255:2050,-0.008,-0.001,1.001,-0.061,0,0,0.599,1.038,-129.666
 15:28:25.729,eb:33:2e:f9:57:b5, 2085-97-241 255:255:255:2050,-0.008,-0.001,1.001,-0.183,0,-0.061,0.599,1.038,-129.666
 15:28:25.730,eb:33:2e:f9:57:b5, 2085-97-240 255:00:00:2050,-0.007,0,1.001,-0.244,0.183,-0.061,0.599,1.038,-129.666
 15:28:25.730,eb:33:2e:f9:57:b5, 2085-97-240 255:254:255:2051,-0.008,-0.001,1.001,-0.305,0.244,0,0.599,1.038,-129.666
 15:28:25.730,eb:33:2e:f9:57:b5, 2085-97-238 255:252:255:2052,-0.008,-0.001,1.002,-0.305,0.183,0,0.599,1.038,-129.666
 15:28:25.819,eb:33:2e:f9:57:b5, 2085-97-238 255:252:255:2050,-0.008,-0.002,1.001,-0.427,0.183,-0.061,0.604,1.038,-129.666
 15:28:25.819,eb:33:2e:f9:57:b5, 2085-113-81 00:109:54:121,-0.008,-0.002,1.001,-0.305,0.122,-0.122,0.604,1.038,-129.666
 15:28:25.819,eb:33:2e:f9:57:b5, 2085-97-239 255:252:255:2052,-0.009,-0.002,1.001,-0.366,0.122,-0.183,0.604,1.038,-129.666
 15:28:25.819,eb:33:2e:f9:57:b5, 2085-97-237 255:251:255:2050,-0.009,-0.002,1.001,-0.305,0.061,-0.122,0.604,1.038,-129.666
 15:28:25.821,eb:33:2e:f9:57:b5, 2085-97-240 255:252:255:2048,-0.009,-0.002,1,-0.305,0,-0.183,0.604,1.038,-129.672
 15:28:25.821,eb:33:2e:f9:57:b5, 2085-97-237 255:252:255:2048,-0.008,-0.002,1,-0.244,0,-0.183,0.604,1.038,-129.672
 15:28:25.821,eb:33:2e:f9:57:b5, 2085-97-240 255:251:255:2049,-0.008,-0.002,1.001,-0.244,0,-0.122,0.604,1.038,-129.672
 15:28:25.821,eb:33:2e:f9:57:b5, 2085-97-239 255:251:255:2046,-0.009,-0.002,1,-0.244,0,-0.122,0.604,1.038,-129.672
 15:28:25.852,eb:33:2e:f9:57:b5, 2085-97-238 255:252:255:2049,-0.008,-0.002,1,-0.244,-0.061,-0.122,0.604,1.038,-129.672
 15:28:25.852,eb:33:2e:f9:57:b5, 2085-97-241 255:250:255:2050,-0.007,-0.002,1,-0.305,-0.061,-0.122,0.604,1.038,-129.672
 15:28:25.852,eb:33:2e:f9:57:b5, 2085-97-242 255:251:255:2051,-0.007,-0.002,1.002,-0.305,-0.061,-0.183,0.604,1.038,-129.672
 15:28:25.852,eb:33:2e:f9:57:b5, 2085-97-243 255:252:255:2051,-0.007,-0.001,1.001,-0.305,0,-0.061,0.604,1.038,-129.672
 15:28:25.910,eb:33:2e:f9:57:b5, 2085-97-240 255:251:255:2053,-0.008,-0.001,1.002,-0.366,0.244,-0.122,0.604,1.038,-129.672
 15:28:25.910,eb:33:2e:f9:57:b5, 2085-97-239 255:250:255:2053,-0.009,-0.002,1.001,-0.366,0.366,-0.061,0.604,1.033,-129.672
 15:28:25.910,eb:33:2e:f9:57:b5, 2085-97-237 255:249:255:2050,-0.01,-0.003,1.001,-0.305,0.305,-0.061,0.604,1.033,-129.672
 15:28:25.910,eb:33:2e:f9:57:b5, 2085-97-237 255:249:255:2051,-0.009,-0.003,1.001,-0.305,0.244,-0.183,0.604,1.033,-129.672
 15:28:25.947,eb:33:2e:f9:57:b5, 2085-97-239 255:251:255:2053,-0.008,-0.003,1.002,-0.305,0.183,-0.122,0.604,1.033,-129.672
 15:28:25.947,eb:33:2e:f9:57:b5, 2085-97-239 255:249:255:2052,-0.009,-0.003,1.001,-0.305,0.244,-0.122,0.604,1.033,-129.672
 15:28:25.947,eb:33:2e:f9:57:b5, 2085-97-239 255:249:255:2052,-0.008,-0.003,1.002,-0.244,0.305,-0.122,0.604,1.033,-129.677
 15:28:25.947,eb:33:2e:f9:57:b5, 2085-97-240 255:251:255:2046,-0.009,-0.003,1,-0.183,0.244,-0.061,0.604,1.033,-129.677
 15:28:25.969,eb:33:2e:f9:57:b5, 2085-97-236 255:248:255:2047,-0.009,-0.003,0.999,-0.183,0.244,-0.122,0.604,1.033,-129.677
 15:28:25.969,eb:33:2e:f9:57:b5, 2085-97-239 255:248:255:2053,-0.009,-0.003,1.001,-0.122,0.183,-0.061,0.61,1.033,-129.677
 15:28:25.969,eb:33:2e:f9:57:b5, 2085-97-234 255:246:255:2054,-0.011,-0.004,1.003,-0.122,0.183,-0.061,0.61,1.033,-129.677
 15:28:25.969,eb:33:2e:f9:57:b5, 2085-97-236 255:248:255:2052,-0.01,-0.004,1.002,0,0.122,-0.061,0.61,1.033,-129.677
 15:28:26.090,eb:33:2e:f9:57:b5, 2085-97-237 255:247:255:2052,-0.009,-0.004,1.001,0,0.061,0,0.61,1.033,-129.677
 15:28:26.090,eb:33:2e:f9:57:b5, 2085-97-237 255:250:255:2048,-0.008,-0.004,1,0.122,0.122,-0.061,0.61,1.033,-129.677
 15:28:26.090,eb:33:2e:f9:57:b5, 2085-97-239 255:251:255:2050,-0.008,-0.001,1,0.122,0.061,-0.061,0.61,1.033,-129.677
 15:28:26.090,eb:33:2e:f9:57:b5, 2085-97-238 255:249:255:2045,-0.009,-0.002,1,0.061,0.183,0,0.61,1.033,-129.677
 15:28:26.090,eb:33:2e:f9:57:b5, 2085-97-239 255:250:255:2048,-0.007,-0.003,0.999,0.061,0.122,-0.061,0.61,1.033,-129.677
 15:28:26.090,eb:33:2e:f9:57:b5, 2085-97-240 255:251:255:2052,-0.009,-0.002,1.001,0,0.305,0,0.61,1.033,-129.677
 15:28:26.090,eb:33:2e:f9:57:b5, 2085-97-236 255:249:255:2052,-0.01,-0.003,1.001,0,0.305,0,0.61,1.033,-129.677
 15:28:26.091,eb:33:2e:f9:57:b5, 2085-97-235 255:250:255:2048,-0.009,-0.003,1,0,0.305,0,0.61,1.033,-129.677
 15:28:26.093,eb:33:2e:f9:57:b5, 2085-97-239 255:249:255:2052,-0.009,-0.003,1.001,0,0.183,0,0.61,1.033,-129.677
 15:28:26.093,eb:33:2e:f9:57:b5, 2085-97-236 255:249:255:2051,-0.01,-0.004,1.001,0.061,0.305,0,0.61,1.033,-129.677
 15:28:26.093,eb:33:2e:f9:57:b5, 2085-97-237 255:246:255:2053,-0.009,-0.003,1.001,0.122,0.183,0,0.61,1.033,-129.683
 15:28:26.093,eb:33:2e:f9:57:b5, 2085-97-239 255:247:255:2053,-0.007,-0.004,1.003,0.244,0.122,0.122,0.61,1.033,-129.683
 15:28:26.151,eb:33:2e:f9:57:b5, 2085-97-239 255:252:255:2051,-0.008,-0.003,1.001,0.244,0.183,0.061,0.61,1.033,-129.683
 15:28:26.151,eb:33:2e:f9:57:b5, 2085-97-239 255:252:255:2051,-0.009,-0.001,1.002,0.244,0.244,0.061,0.61,1.033,-129.683
 15:28:26.151,eb:33:2e:f9:57:b5, 2085-97-243 255:253:255:2052,-0.008,-0.001,1.001,0.183,0.244,0,0.61,1.033,-129.683
 15:28:26.151,eb:33:2e:f9:57:b5, 2085-97-241 255:252:255:2051,-0.007,-0.002,1.002,0.122,0.366,0,0.61,1.033,-129.683
 15:28:26.178,eb:33:2e:f9:57:b5, 2085-97-238 255:251:255:2052,-0.009,-0.002,1.002,0,0.671,0,0.61,1.033,-129.683
 15:28:26.178,eb:33:2e:f9:57:b5, 2085-97-236 255:249:255:2051,-0.009,-0.002,1.002,0,0.732,-0.061,0.61,1.033,-129.683
 15:28:26.178,eb:33:2e:f9:57:b5, 2085-97-234 255:250:255:2049,-0.013,-0.003,1.001,0,0.732,-0.061,0.61,1.033,-129.683
 15:28:26.178,eb:33:2e:f9:57:b5, 2085-97-230 255:249:255:2048,-0.01,-0.003,0.999,0,0.549,-0.122,0.61,1.027,-129.683
 15:28:26.329,eb:33:2e:f9:57:b5, 2085-97-238 255:250:255:2051,-0.009,-0.003,1.001,0,0.366,-0.122,0.61,1.027,-129.683
 15:28:26.329,eb:33:2e:f9:57:b5, 2085-97-236 255:252:255:2049,-0.01,-0.002,1.001,0,0.427,-0.061,0.61,1.027,-129.683
 15:28:26.329,eb:33:2e:f9:57:b5, 2085-97-235 255:251:255:2052,-0.009,-0.002,1,0,0.427,-0.061,0.61,1.027,-129.683
 15:28:26.329,eb:33:2e:f9:57:b5, 2085-97-240 255:252:255:2052,-0.008,-0.002,1.001,0,0.488,-0.122,0.61,1.027,-129.683
 15:28:26.359,eb:33:2e:f9:57:b5, 2085-97-242 255:251:255:2056,-0.008,-0.003,1.004,0,0.793,0,0.61,1.027,-129.683
 15:28:26.359,eb:33:2e:f9:57:b5, 2085-97-236 255:251:255:2051,-0.012,-0.002,1.002,0,1.038,-0.061,0.61,1.027,-129.683
 15:28:26.359,eb:33:2e:f9:57:b5, 2085-97-230 255:248:255:2047,-0.012,-0.002,1,-0.061,0.854,-0.244,0.61,1.027,-129.683
 15:28:26.359,eb:33:2e:f9:57:b5, 2085-97-235 255:251:255:2049,-0.01,-0.004,1,-0.061,0.732,-0.244,0.61,1.027,-129.683
 15:28:26.361,eb:33:2e:f9:57:b5, 2085-97-234 255:250:255:2049,-0.011,-0.003,1,-0.061,0.732,-0.244,0.61,1.027,-129.688
 15:28:26.361,eb:33:2e:f9:57:b5, 2085-97-232 255:252:255:2047,-0.011,-0.002,1,-0.061,0.61,-0.183,0.61,1.027,-129.688
 15:28:26.361,eb:33:2e:f9:57:b5, 2085-97-236 255:253:255:2050,-0.01,-0.001,1,-0.122,0.549,-0.244,0.61,1.027,-129.688
 15:28:26.361,eb:33:2e:f9:57:b5, 2085-97-235 255:252:255:2050,-0.012,-0.002,1.001,-0.061,0.671,-0.305,0.61,1.027,-129.688
 15:28:26.363,eb:33:2e:f9:57:b5, 2085-97-231 255:251:255:2049,-0.012,-0.003,1,-0.122,0.732,-0.244,0.61,1.027,-129.688
 15:28:26.363,eb:33:2e:f9:57:b5, 2085-97-233 255:251:255:2049,-0.01,-0.002,1,-0.122,0.732,-0.183,0.61,1.033,-129.688
 15:28:26.363,eb:33:2e:f9:57:b5, 2085-97-234 255:251:255:2051,-0.011,-0.002,1.002,-0.183,0.793,-0.122,0.61,1.033,-129.688
 15:28:26.363,eb:33:2e:f9:57:b5, 2085-97-231 255:250:255:2051,-0.012,-0.002,1.001,-0.122,1.038,-0.061,0.61,1.033,-129.688
 15:28:26.389,eb:33:2e:f9:57:b5, 2085-97-235 255:250:255:2053,-0.01,-0.004,1.001,-0.122,1.038,-0.061,0.61,1.033,-129.688
 15:28:26.389,eb:33:2e:f9:57:b5, 2085-97-232 255:251:255:2053,-0.013,-0.003,1.002,-0.061,1.038,-0.122,0.615,1.033,-129.688
 15:28:26.389,eb:33:2e:f9:57:b5, 2085-97-228 255:250:255:2047,-0.014,-0.002,1,-0.122,1.038,-0.183,0.615,1.033,-129.688
 15:28:26.389,eb:33:2e:f9:57:b5, 2085-97-228 255:249:255:2048,-0.013,-0.003,1,-0.122,0.793,-0.183,0.615,1.033,-129.688
 15:28:26.418,eb:33:2e:f9:57:b5, 2085-97-228 255:250:255:2049,-0.014,-0.003,1,-0.061,0.854,-0.122,0.615,1.033,-129.688
 15:28:26.418,eb:33:2e:f9:57:b5, 2085-97-228 255:250:255:2047,-0.014,-0.003,1,-0.061,0.854,-0.061,0.615,1.033,-129.688
 15:28:26.418,eb:33:2e:f9:57:b5, 2085-97-231 255:251:255:2050,-0.012,-0.003,1.001,-0.122,0.732,-0.061,0.615,1.033,-129.688
 15:28:26.418,eb:33:2e:f9:57:b5, 2085-97-233 255:249:255:2053,-0.012,-0.002,1.001,-0.183,0.732,-0.183,0.615,1.033,-129.688
 15:28:26.481,eb:33:2e:f9:57:b5, 2085-97-230 255:249:255:2049,-0.013,-0.003,1.002,-0.183,0.916,-0.061,0.615,1.033,-129.694
 15:28:26.481,eb:33:2e:f9:57:b5, 2085-97-230 255:250:255:2051,-0.012,-0.003,1,-0.183,0.916,-0.061,0.615,1.033,-129.694
 15:28:26.481,eb:33:2e:f9:57:b5, 2085-113-81 00:103:54:121,-0.014,-0.002,1.002,-0.244,1.038,-0.061,0.615,1.033,-129.694
 15:28:26.481,eb:33:2e:f9:57:b5, 2085-97-228 255:249:255:2050,-0.014,-0.003,1.001,-0.183,1.038,0,0.615,1.033,-129.694
 15:28:26.481,eb:33:2e:f9:57:b5, 2085-97-224 255:249:255:2047,-0.016,-0.003,1,-0.244,1.038,-0.061,0.615,1.033,-129.694
 15:28:26.508,eb:33:2e:f9:57:b5, 2085-97-226 255:249:255:2051,-0.015,-0.003,1,-0.183,0.916,0,0.615,1.038,-129.694
 15:28:26.508,eb:33:2e:f9:57:b5, 2085-97-229 255:248:255:2051,-0.013,-0.003,1.001,-0.183,0.732,-0.061,0.615,1.038,-129.694
 15:28:26.508,eb:33:2e:f9:57:b5, 2085-97-228 255:249:255:2053,-0.016,-0.003,1.002,-0.122,0.793,-0.122,0.615,1.038,-129.694
 15:28:26.508,eb:33:2e:f9:57:b5, 2085-97-225 255:250:255:2046,-0.015,-0.003,1,-0.122,0.732,0,0.615,1.038,-129.694
 15:28:26.540,eb:33:2e:f9:57:b5, 2085-97-226 255:249:255:2047,-0.015,-0.003,1,-0.244,0.732,-0.061,0.615,1.038,-129.694
 15:28:26.540,eb:33:2e:f9:57:b5, 2085-97-226 255:249:255:2047,-0.016,-0.004,1.001,-0.244,0.793,0,0.615,1.038,-129.694
 15:28:26.542,eb:33:2e:f9:57:b5, 2085-97-225 255:250:255:2048,-0.016,-0.003,0.999,-0.305,0.732,-0.061,0.615,1.038,-129.694
 15:28:26.542,eb:33:2e:f9:57:b5, 2085-97-224 255:249:255:2048,-0.015,-0.002,1,-0.305,0.671,0,0.615,1.038,-129.694
 15:28:26.628,eb:33:2e:f9:57:b5, 2085-97-226 255:249:255:2049,-0.016,-0.004,1,-0.305,0.61,0,0.615,1.044,-129.694
 15:28:26.628,eb:33:2e:f9:57:b5, 2085-97-224 255:250:255:2046,-0.016,-0.003,1,-0.427,0.61,0,0.615,1.044,-129.694
 15:28:26.628,eb:33:2e:f9:57:b5, 2085-97-223 255:249:255:2048,-0.016,-0.003,1,-0.427,0.549,0,0.615,1.044,-129.699
 15:28:26.628,eb:33:2e:f9:57:b5, 2085-97-224 255:247:255:2051,-0.015,-0.004,1,-0.427,0.427,0,0.615,1.044,-129.699
 15:28:26.630,eb:33:2e:f9:57:b5, 2085-97-224 255:249:255:2049,-0.015,-0.004,1.001,-0.427,0.427,0,0.615,1.044,-129.699
 15:28:26.630,eb:33:2e:f9:57:b5, 2085-97-224 255:248:255:2048,-0.017,-0.003,1,-0.427,0.305,0,0.615,1.044,-129.699
 15:28:26.630,eb:33:2e:f9:57:b5, 2085-97-220 255:245:255:2047,-0.017,-0.005,0.999,-0.488,0.244,0,0.615,1.049,-129.699
