Time,Device name,Chip Time(),Acceleration X(g),Acceleration Y(g),Acceleration Z(g),Angular velocity X(°/s),Angular velocity Y(°/s),Angular velocity Z(°/s),Angle X(°),Angle Y(°),Angle Z(°)
 15:27:11.565,eb:33:2e:f9:57:b5, 2085-97-184 247:83:244:2808,-4,6.343,3.56,49.011,219.727,-115.417,-0.412,-0.879,-152.342
 15:27:11.565,eb:33:2e:f9:57:b5, 2085-97-226 234:68:06:-2184,0.058,-1.467,-2.516,79.224,162.415,143.188,0.082,3.027,-151.216
 15:27:11.566,eb:33:2e:f9:57:b5, 2085-97-231 04:45:02:2663,0.445,0.041,1.392,61.646,-39.978,-36.316,0.731,2.401,-151.743
 15:27:11.566,eb:33:2e:f9:57:b5, 2085-97-153 00:204:02:2209,-0.435,0.075,1.224,61.89,54.932,-27.649,1.307,2.648,-151.957
 15:27:11.566,eb:33:2e:f9:57:b5, 2085-97-75 251:49:00:1514,-0.083,-0.062,0.813,42.542,61.035,-8.362,1.807,3.34,-152.128
 15:27:11.596,eb:33:2e:f9:57:b5, 2085-113-81 00:112:30:980,0.092,0.053,1.151,39.917,26.428,-34.302,2.219,3.647,-152.43
 15:27:11.596,eb:33:2e:f9:57:b5, 2085-97-88 00:74:01:2620,-0.093,0.202,1.264,29.785,48.706,-26.367,2.384,3.856,-152.551
 15:27:11.596,eb:33:2e:f9:57:b5, 2085-97-244 253:106:254:2140,-0.358,0.161,1.076,16.724,54.993,-33.997,2.598,4.411,-152.847
 15:27:11.596,eb:33:2e:f9:57:b5, 2085-97-104 254:104:01:1919,0.228,-0.028,0.865,18.982,29.175,-25.818,2.769,4.845,-153.116
 15:27:11.596,eb:33:2e:f9:57:b5, 2085-97-195 03:177:02:1880,0.407,0.303,1.062,9.705,19.592,-43.701,2.884,5.054,-153.474
 15:27:11.596,eb:33:2e:f9:57:b5, 2085-97-214 01:123:01:2121,0.294,0.681,0.764,-10.925,6.775,-78.613,2.856,5.24,-153.99
 15:27:11.596,eb:33:2e:f9:57:b5, 2085-97-22 01:89:05:935,-0.25,1.534,-1.062,-30.09,-93.811,-114.807,2.631,5.142,-154.72
 15:27:11.597,eb:33:2e:f9:57:b5, 2085-97-249 248:251:240:10935,-0.533,-2.188,3.792,-67.017,26.245,29.907,1.796,4.263,-155.786
 15:27:11.599,eb:33:2e:f9:57:b5, 2085-97-179 250:117:248:3988,-0.198,-2.657,4.995,147.766,87.708,127.747,2.186,4.768,-155.083
 15:27:11.599,eb:33:2e:f9:57:b5, 2085-97-146 255:15:00:2301,-0.284,0.108,0.592,223.083,-65.369,109.07,4.296,4.938,-153.759
 15:27:11.599,eb:33:2e:f9:57:b5, 2085-97-195 255:126:249:5115,0.25,-0.507,1.837,249.451,-147.766,62.927,6.729,3.664,-153.001
 15:27:11.599,eb:33:2e:f9:57:b5, 2085-97-70 04:26:252:5974,0.838,-0.736,2.898,283.081,-110.474,33.081,9.41,2.269,-152.699
 15:27:11.655,eb:33:2e:f9:57:b5, 2085-97-203 08:136:251:6729,1.011,-0.265,3.04,343.079,-56.458,-32.043,12.552,1.478,-152.836
 15:27:11.655,eb:33:2e:f9:57:b5, 2085-97-107 06:63:246:8262,1.217,-0.998,3.634,402.039,37.842,-71.96,16.342,1.511,-153.435
 15:27:11.655,eb:33:2e:f9:57:b5, 2085-97-109 11:116:252:7372,1.176,-0.93,4.04,457.825,151.733,-47.241,20.616,2.719,-153.682
 15:27:11.655,eb:33:2e:f9:57:b5, 2085-97-53 11:29:03:4854,1.289,0.1,2.831,469.849,213.989,-87.891,25.312,4.741,-153.495
 15:27:11.717,eb:33:2e:f9:57:b5, 2085-97-182 05:110:07:943,0.604,0.063,1.448,462.036,179.016,-108.765,29.976,7.02,-153.567
 15:27:11.717,eb:33:2e:f9:57:b5, 2085-97-65 06:137:07:2049,0.455,0.958,0.284,397.583,62.195,-221.191,34.14,8.965,-154.391
 15:27:11.717,eb:33:2e:f9:57:b5, 2085-97-97 01:158:05:5631,0.193,1.04,1.838,371.399,93.628,-276.917,37.595,10.981,-156.094
 15:27:11.717,eb:33:2e:f9:57:b5, 2085-97-29 04:24:255:5241,-0.375,0.562,3.165,439.331,201.782,-271.851,41.402,13.837,-157.335
 15:27:11.776,eb:33:2e:f9:57:b5, 2085-97-83 253:242:10:-4205,0.468,0.501,0.085,483.948,135.132,-214.294,46.143,16.771,-157.769
 15:27:11.776,eb:33:2e:f9:57:b5, 2085-97-173 03:201:01:-3833,0.467,0.488,-2.184,289.001,53.833,-205.2,49.526,18.935,-158.857
 15:27:11.776,eb:33:2e:f9:57:b5, 2085-97-09 01:175:00:1091,0.178,0.258,-1.041,134.46,67.017,-147.888,51.279,20.616,-159.5
 15:27:11.776,eb:33:2e:f9:57:b5, 2085-97-80 00:103:00:5654,-0.103,0.125,2.121,109.497,53.284,-167.297,52.213,22.132,-160.093
 15:27:11.776,eb:33:2e:f9:57:b5, 2085-97-197 255:170:253:5918,0.113,-0.065,2.949,149.109,29.968,-196.472,53.163,23.851,-160.944
 15:27:11.776,eb:33:2e:f9:57:b5, 2085-97-120 01:122:250:5127,0.15,-0.541,2.685,179.565,22.4,-194.214,54.393,25.576,-162.054
 15:27:11.777,eb:33:2e:f9:57:b5, 2085-97-220 00:229:249:5198,0.068,-0.738,2.473,170.654,49.438,-157.837,55.8,27.202,-162.867
 15:27:11.777,eb:33:2e:f9:57:b5, 2085-97-94 00:176:249:5364,0.209,-0.791,2.606,145.935,91.003,-116.028,57.294,28.724,-163.043
 15:27:11.809,eb:33:2e:f9:57:b5, 2085-97-179 02:152:249:5540,0.414,-0.752,2.67,124.451,134.521,-77.393,58.865,30.119,-162.532
 15:27:11.809,eb:33:2e:f9:57:b5, 2085-97-248 03:41:248:5547,0.649,-0.878,2.69,123.962,155.579,-55.481,60.639,31.432,-161.422
 15:27:11.809,eb:33:2e:f9:57:b5, 2085-97-229 05:130:246:5727,0.767,-1.089,2.795,145.752,165.833,-44.739,62.682,32.64,-160.065
 15:27:11.809,eb:33:2e:f9:57:b5, 2085-97-45 06:128:245:5049,0.766,-1.253,2.675,171.265,167.969,-40.283,65.127,33.772,-158.5
 15:27:11.866,eb:33:2e:f9:57:b5, 2085-97-192 05:51:245:3982,0.648,-1.348,2.212,181.824,151.672,-36.987,67.769,34.788,-156.94
 15:27:11.866,eb:33:2e:f9:57:b5, 2085-97-163 04:235:245:3020,0.49,-1.319,1.693,164.673,110.962,-31.86,70.274,35.59,-155.605
 15:27:11.866,eb:33:2e:f9:57:b5, 2085-97-247 02:56:246:2506,0.306,-1.208,1.305,118.408,58.96,-23.376,72.147,36.129,-154.781
 15:27:11.867,eb:33:2e:f9:57:b5, 2085-97-03 02:114:244:2537,0.256,-1.305,1.246,56.03,9.338,-6.775,73.169,36.365,-154.479
 15:27:11.895,eb:33:2e:f9:57:b5, 2085-97-200 02:80:242:2201,0.439,-1.618,1.184,-8.484,-7.08,22.827,73.334,36.271,-154.512
 15:27:11.895,eb:33:2e:f9:57:b5, 2085-97-200 03:171:242:1466,0.554,-1.699,0.905,-81.299,26.184,75.5,73.026,35.815,-154.204
 15:27:11.895,eb:33:2e:f9:57:b5, 2085-97-207 05:126:243:914,0.822,-1.674,0.586,-159.424,61.951,123.596,72.29,34.98,-153.298
 15:27:11.895,eb:33:2e:f9:57:b5, 2085-97-37 07:232:250:-738,1.006,-1.185,0.108,-255.493,91.248,165.222,71.021,33.843,-151.804
 15:27:11.926,eb:33:2e:f9:57:b5, 2085-97-122 09:18:01:-1529,1.362,-0.135,-0.748,-369.324,80.139,164.734,68.736,32.569,-150.09
 15:27:11.926,eb:33:2e:f9:57:b5, 2085-97-152 11:74:02:095,1.748,0.276,-0.437,-439.27,23.071,103.577,65.22,31.52,-148.892
 15:27:11.926,eb:33:2e:f9:57:b5, 2085-97-21 14:103:05:213,1.629,0.448,0.416,-449.463,-17.212,20.447,60.848,31.003,-148.645
 15:27:11.926,eb:33:2e:f9:57:b5, 2085-97-149 11:119:06:-1075,1.389,0.848,-0.354,-433.228,-106.689,-74.219,56.047,30.916,-149.392
 15:27:11.985,eb:33:2e:f9:57:b5, 2085-97-233 09:154:01:-070,1.027,0.539,-0.307,-411.377,-246.033,-171.753,50.471,30.822,-152.062
 15:27:11.985,eb:33:2e:f9:57:b5, 2085-97-106 06:101:253:956,0.542,-0.073,0.182,-415.222,-329.407,-214.539,44.33,30.223,-156.121
 15:27:11.985,eb:33:2e:f9:57:b5, 2085-97-102 02:23:250:2456,0.083,-0.558,0.84,-445.496,-349.182,-213.867,37.815,28.971,-160.598
 15:27:11.985,eb:33:2e:f9:57:b5, 2085-97-149 255:56:249:3691,-0.138,-0.851,1.521,-470.947,-309.204,-182.434,31.371,27.334,-164.526
 15:27:12.046,eb:33:2e:f9:57:b5, 2085-97-47 254:246:250:3756,-0.298,-0.77,1.94,-468.018,-261.047,-142.334,25.296,25.582,-167.563
 15:27:12.046,eb:33:2e:f9:57:b5, 2085-97-121 253:143:251:3307,-0.331,-0.547,1.692,-441.223,-273.254,-109.863,19.792,23.599,-169.876
 15:27:12.046,eb:33:2e:f9:57:b5, 2085-97-84 253:210:250:3324,-0.321,-0.616,1.592,-405.579,-313.354,-67.2,14.87,21,-171.7
 15:27:12.046,eb:33:2e:f9:57:b5, 2085-97-229 253:38:252:3616,-0.189,-0.601,1.676,-369.263,-348.45,-10.986,10.657,17.82,-172.787
 15:27:12.046,eb:33:2e:f9:57:b5, 2085-97-96 255:206:254:4024,-0.001,-0.317,1.866,-339.905,-370.544,34.424,7.004,14.2,-173.156
 15:27:12.046,eb:33:2e:f9:57:b5, 2085-97-243 255:80:01:4119,-0.075,0.003,2.018,-325.684,-382.996,56.152,3.735,10.41,-172.958
 15:27:12.046,eb:33:2e:f9:57:b5, 2085-97-97 254:249:02:4460,-0.372,0.292,2.062,-328.674,-405.64,60.852,0.522,6.422,-172.452
 15:27:12.046,eb:33:2e:f9:57:b5, 2085-97-222 251:38:03:5212,-0.666,0.419,2.324,-336.06,-423.157,63.904,-2.758,2.28,-171.672
 15:27:12.105,eb:33:2e:f9:57:b5, 2085-97-88 249:204:02:5810,-0.912,0.342,2.754,-341.064,-402.527,86.365,-6.185,-1.796,-170.557
 15:27:12.105,eb:33:2e:f9:57:b5, 2085-97-221 248:119:06:5914,-0.932,0.485,2.872,-334.229,-357.178,123.413,-9.69,-5.372,-168.904
 15:27:12.105,eb:33:2e:f9:57:b5, 2085-97-94 247:09:16:5642,-1.345,1.336,2.8,-318.97,-333.313,133.667,-13.244,-8.416,-166.86
 15:27:12.105,eb:33:2e:f9:57:b5, 2085-97-195 242:159:23:6341,-2.044,2.61,2.854,-284.241,-371.399,69.336,-16.628,-11.503,-164.844
 15:27:12.137,eb:33:2e:f9:57:b5, 2085-97-41 237:206:22:8191,-2.552,2.999,3.539,-229.248,-398.56,-33.569,-19.539,-15.183,-163.4
 15:27:12.137,eb:33:2e:f9:57:b5, 2085-97-45 235:124:22:9852,-2.5,2.764,4.488,-206.421,-300.598,-67.932,-21.912,-18.743,-162.576
 15:27:12.137,eb:33:2e:f9:57:b5, 2085-97-221 237:171:27:8750,-2.019,3.071,4.715,-215.149,-50.72,-36.621,-24.093,-20.506,-162.372
 15:27:12.137,eb:33:2e:f9:57:b5, 2085-97-230 241:198:32:6019,-1.568,3.816,3.662,-207.397,147.644,-22.156,-26.043,-19.99,-162.922
 15:27:12.167,eb:33:2e:f9:57:b5, 2085-97-228 243:68:33:2488,-1.606,4.224,2.085,-129.272,176.208,-55.481,-27.339,-18.572,-164.158
 15:27:12.167,eb:33:2e:f9:57:b5, 2085-97-134 241:230:26:594,-2.133,3.848,0.5,2.563,29.602,-105.591,-27.51,-18.034,-165.454
 15:27:12.167,eb:33:2e:f9:57:b5, 2085-97-179 236:91:18:2303,-5.868,2.833,0.66,133.789,-139.465,-116.333,-26.51,-19.193,-166.185
 15:27:12.167,eb:33:2e:f9:57:b5, 2085-97-38 246:225:16:2162,-0.872,-6.331,10.049,224.976,409.18,322.327,-24.752,-20.089,-166.19
 15:27:12.260,eb:33:2e:f9:57:b5, 2085-97-189 22:98:05:-088,4.706,2.756,-4.308,442.261,36.072,-10.437,-20.566,-17.908,-166.454
 15:27:12.260,eb:33:2e:f9:57:b5, 2085-97-137 43:05:247:15415,1.738,-0.625,6.399,516.602,255.188,-114.258,-15.897,-18.078,-167.19
 15:27:12.260,eb:33:2e:f9:57:b5, 2085-97-08 235:179:253:4552,-3.911,-1.47,7.047,671.692,794.25,-57.129,-9.179,-12.42,-169.574
 15:27:12.260,eb:33:2e:f9:57:b5, 2085-97-91 252:110:47:-2593,1.615,-0.329,-0.766,540.161,284.668,9.155,-2.543,-6.773,-170.524
 15:27:12.260,eb:33:2e:f9:57:b5, 2085-97-55 03:82:08:6373,-3.747,7.462,2.622,62.317,122.437,-65.063,0.28,-6.493,-170.662
 15:27:12.260,eb:33:2e:f9:57:b5, 2085-97-34 226:64:10:-4864,-1.064,-3.162,-1.775,61.829,509.46,224.426,0.5,-1.472,-169.871
 15:27:12.261,eb:33:2e:f9:57:b5, 2085-97-221 05:250:251:3417,0.848,-0.138,1.011,47.852,-37.476,-86.304,1.027,-0.681,-169.953
 15:27:12.261,eb:33:2e:f9:57:b5, 2085-97-10 251:47:01:1445,-1.02,-0.129,1.479,77.332,147.156,-23.926,1.692,-0.005,-170.453
 15:27:12.287,eb:33:2e:f9:57:b5, 2085-97-203 253:94:254:2479,-0.63,0.038,0.396,58.411,62.5,-20.996,2.379,1.324,-170.37
 15:27:12.287,eb:33:2e:f9:57:b5, 2085-97-18 252:98:02:1303,0.331,-0.112,1.073,54.199,89.905,38.452,2.966,2.032,-170.321
 15:27:12.287,eb:33:2e:f9:57:b5, 2085-97-101 02:147:01:2755,0.25,0.228,1.534,30.334,46.692,-13.977,3.367,2.406,-170.349
 15:27:12.287,eb:33:2e:f9:57:b5, 2085-97-196 253:186:01:1645,-0.282,0.096,1.25,23.499,62.5,-19.897,3.609,2.999,-170.486
 15:27:12.347,eb:33:2e:f9:57:b5, 2085-97-04 00:175:01:1322,0.065,0.172,0.722,5.92,20.691,-29.785,3.752,3.477,-170.711
 15:27:12.347,eb:33:2e:f9:57:b5, 2085-97-45 03:49:01:2022,0.877,0.621,0.672,-20.813,-29.724,-54.321,3.686,3.472,-171.03
 15:27:12.347,eb:33:2e:f9:57:b5, 2085-97-27 02:219:02:1881,0.323,2.64,-2.145,-92.529,-156.494,-135.254,3.274,2.895,-171.683
 15:27:12.347,eb:33:2e:f9:57:b5, 2085-97-64 255:176:236:15997,-0.431,-3.321,5.495,-38.452,-63.416,117.493,2.126,1.329,-172.425
 15:27:12.435,eb:33:2e:f9:57:b5, 2085-97-252 252:190:248:3734,0.069,-2.676,5.4,201.477,54.749,118.347,3.093,1.368,-171.381
 15:27:12.435,eb:33:2e:f9:57:b5, 2085-97-105 01:221:253:3200,0.152,-0.116,0.815,265.747,-68.115,54.749,5.603,1.39,-170.42
 15:27:12.435,eb:33:2e:f9:57:b5, 2085-97-89 03:253:248:6574,0.628,-0.767,2.293,306.824,-110.229,-30.823,8.454,0.357,-170.519
 15:27:12.435,eb:33:2e:f9:57:b5, 2085-113-58 00:210:226:-6105,0.828,-1.062,3.764,374.939,-38.513,-53.467,11.871,-0.352,-171.101
 15:27:12.438,eb:33:2e:f9:57:b5, 2085-97-244 08:228:245:7681,1.017,-1.016,3.894,417.48,22.217,-61.462,13.881,-0.302,-171.381
 15:27:12.438,eb:33:2e:f9:57:b5, 2085-97-106 12:220:248:7306,1.563,-1.024,3.722,456.299,166.199,-60.608,18.32,0.797,-171.7
 15:27:12.438,eb:33:2e:f9:57:b5, 2085-97-130 10:126:02:5255,1.462,-0.346,3.171,500.61,238.953,-45.532,23.176,2.939,-171.425
 15:27:12.438,eb:33:2e:f9:57:b5, 2085-97-158 09:192:02:3135,0.924,0.584,2.11,471.13,247.437,-108.276,28.081,5.537,-171.107
 15:27:12.465,eb:33:2e:f9:57:b5, 2085-97-179 05:135:06:1537,1.16,0.71,1.016,385.681,225.098,-156.677,32.333,8.223,-171.156
 15:27:12.465,eb:33:2e:f9:57:b5, 2085-97-51 07:94:11:3140,0.808,0.725,0.942,331.848,149.78,-225.037,35.706,10.844,-171.887
 15:27:12.465,eb:33:2e:f9:57:b5, 2085-97-220 09:131:255:7064,0.374,0.658,2.65,366.943,180.298,-282.959,38.842,13.716,-173.112
 15:27:12.465,eb:33:2e:f9:57:b5, 2085-97-115 252:222:09:-3550,-0.045,0.123,1.317,435.486,223.389,-180.237,42.935,16.875,-173.419
 15:27:12.496,eb:33:2e:f9:57:b5, 2085-97-04 03:183:02:-3565,0.351,0.233,-1.971,274.719,80.383,-172.974,46.176,19.215,-173.963
 15:27:12.496,eb:33:2e:f9:57:b5, 2085-97-244 00:01:02:063,0.083,0.489,-1.315,130.798,71.655,-106.14,47.972,20.682,-174.359
 15:27:12.496,eb:33:2e:f9:57:b5, 2085-97-244 255:183:254:4748,-0.071,0.014,1.538,91.003,73.792,-96.13,48.917,21.846,-174.534
 15:27:12.496,eb:33:2e:f9:57:b5, 2085-97-127 255:243:252:5260,-0.029,-0.254,2.603,125.183,74.646,-93.567,49.955,23.077,-174.578
 15:27:12.586,eb:33:2e:f9:57:b5, 2085-97-62 00:250:249:4463,0.062,-0.596,2.354,169.495,59.143,-82.886,51.438,24.181,-174.639
 15:27:12.586,eb:33:2e:f9:57:b5, 2085-97-132 00:228:249:4279,0.048,-0.796,2.089,187.073,55.908,-56.458,53.251,25.065,-174.633
 15:27:12.586,eb:33:2e:f9:57:b5, 2085-97-88 00:236:249:4571,0.078,-0.732,2.145,182.495,61.951,-32.837,55.206,25.763,-174.386
 15:27:12.586,eb:33:2e:f9:57:b5, 2085-97-76 01:111:249:5129,0.264,-0.808,2.361,173.767,80.627,-10.193,57.195,26.329,-173.87
 15:27:12.586,eb:33:2e:f9:57:b5, 2085-97-56 02:181:250:4928,0.307,-0.741,2.56,167.664,120.728,10.864,59.321,26.856,-172.892
 15:27:12.586,eb:33:2e:f9:57:b5, 2085-97-40 03:103:252:4472,0.449,-0.567,2.241,174.622,130.432,9.094,61.6,27.405,-171.584
 15:27:12.586,eb:33:2e:f9:57:b5, 2085-97-197 03:05:254:4662,0.521,-0.333,2.199,189.453,101.807,-16.174,63.957,27.982,-170.414
 15:27:12.587,eb:33:2e:f9:57:b5, 2085-97-170 04:109:252:5344,0.613,-0.302,2.438,202.454,62.622,-60.913,66.187,28.691,-169.816
 15:27:12.615,eb:33:2e:f9:57:b5, 2085-97-247 04:221:249:5443,0.627,-0.612,2.688,203.552,55.542,-94.543,68.34,29.652,-169.59
 15:27:12.615,eb:33:2e:f9:57:b5, 2085-97-46 05:60:248:4786,0.523,-0.878,2.524,184.326,70.19,-109.619,70.378,30.85,-169.371
 15:27:12.615,eb:33:2e:f9:57:b5, 2085-97-53 03:133:247:3582,0.3,-1.025,2.029,142.944,80.688,-105.469,72.241,32.135,-168.909
 15:27:12.615,eb:33:2e:f9:57:b5, 2085-97-15 02:221:244:2825,0.383,-1.151,1.565,86.365,61.096,-93.14,73.57,33.294,-168.492
 15:27:12.645,eb:33:2e:f9:57:b5, 2085-97-100 04:146:241:1893,0.665,-1.684,1.214,25.879,62.927,-60.974,74.312,34.211,-168.102
 15:27:12.645,eb:33:2e:f9:57:b5, 2085-97-191 05:30:241:564,0.822,-1.822,0.528,-57.312,104.37,5.31,74.625,34.706,-167.212
 15:27:12.645,eb:33:2e:f9:57:b5, 2085-97-156 06:105:244:-583,0.822,-1.797,0.129,-146.851,120.972,64.209,74.394,34.667,-165.756
 15:27:12.645,eb:33:2e:f9:57:b5, 2085-97-08 07:38:253:-2353,0.906,-0.873,-0.79,-266.418,119.812,112.854,73.235,34.118,-164.02
 15:27:12.707,eb:33:2e:f9:57:b5, 2085-97-14 09:181:253:-1399,1.255,-0.181,-1.164,-378.906,62.317,98.083,70.73,33.354,-162.504
 15:27:12.707,eb:33:2e:f9:57:b5, 2085-97-52 10:173:252:-248,1.561,-0.21,-0.413,-427.063,-11.719,60.242,66.885,32.651,-161.966
 15:27:12.707,eb:33:2e:f9:57:b5, 2085-97-125 11:152:00:-1046,1.402,-0.256,0.078,-428.467,-68.298,32.471,62.474,32.058,-162.213
 15:27:12.707,eb:33:2e:f9:57:b5, 2085-97-146 10:100:00:-1400,1.255,0.124,-0.767,-435.425,-190.491,-28.503,57.437,31.382,-163.548
 15:27:12.765,eb:33:2e:f9:57:b5, 2085-97-185 08:169:252:245,0.908,-0.202,-0.287,-450.623,-308.044,-77.942,51.564,30.317,-166.377
 15:27:12.765,eb:33:2e:f9:57:b5, 2085-97-202 05:123:249:2030,0.545,-0.614,0.527,-466.37,-366.089,-89.172,45.198,28.614,-169.975
 15:27:12.765,eb:33:2e:f9:57:b5, 2085-97-18 03:127:247:3566,0.254,-0.976,1.418,-475.098,-350.952,-67.566,38.947,26.411,-173.331
 15:27:12.765,eb:33:2e:f9:57:b5, 2085-97-106 01:90:248:3953,0.139,-1.042,1.899,-479.187,-295.959,-24.78,33.118,24.038,-175.787
 15:27:12.767,eb:33:2e:f9:57:b5, 2085-97-09 01:118:249:3833,0.151,-0.879,1.908,-481.506,-261.475,13,27.735,21.671,-177.275
 15:27:12.767,eb:33:2e:f9:57:b5, 2085-97-143 01:250:249:3581,0.245,-0.785,1.833,-479.675,-247.681,43.884,22.61,19.232,-178.099
 15:27:12.767,eb:33:2e:f9:57:b5, 2085-97-173 02:15:251:3083,0.434,-0.696,1.613,-468.018,-257.202,66.162,17.776,16.683,-178.391
 15:27:12.767,eb:33:2e:f9:57:b5, 2085-97-18 04:236:253:2822,0.534,-0.459,1.43,-451.904,-291.138,72.937,13.156,13.832,-178.396
 15:27:12.825,eb:33:2e:f9:57:b5, 2085-97-08 04:226:00:3160,0.377,-0.052,1.407,-439.575,-349.609,56.091,8.729,10.547,-178.297
 15:27:12.825,eb:33:2e:f9:57:b5, 2085-97-184 01:86:00:4346,0.056,0.141,1.786,-432.678,-404.48,25.33,4.34,6.691,-178.292
 15:27:12.825,eb:33:2e:f9:57:b5, 2085-97-192 254:238:254:5694,-0.353,-0.092,2.49,-435.425,-402.832,22.888,0.022,2.582,-178.176
 15:27:12.825,eb:33:2e:f9:57:b5, 2085-97-03 252:106:02:5973,-0.573,0.014,2.861,-444.031,-344.849,59.143,-4.427,-1.088,-177.561
 15:27:12.857,eb:33:2e:f9:57:b5, 2085-97-213 250:151:08:6339,-0.76,0.649,3.002,-435.608,-329.956,78.796,-8.899,-4.301,-176.396
 15:27:12.857,eb:33:2e:f9:57:b5, 2085-97-216 248:60:15:7208,-1.111,1.496,3.248,-409.912,-334.778,65.186,-13.321,-7.41,-174.968
 15:27:12.857,eb:33:2e:f9:57:b5, 2085-97-02 245:32:19:8543,-1.634,2.223,3.864,-372.375,-328.43,25.208,-17.446,-10.492,-173.578
 15:27:12.857,eb:33:2e:f9:57:b5, 2085-97-59 241:233:20:9198,-1.984,2.509,4.375,-335.327,-279.419,-4.822,-21.231,-13.348,-172.43
 15:27:12.915,eb:33:2e:f9:57:b5, 2085-97-93 239:150:25:9594,-2.148,2.837,4.592,-299.683,-203.369,-17.212,-24.62,-15.584,-171.535
 15:27:12.915,eb:33:2e:f9:57:b5, 2085-97-103 238:82:31:8882,-2.188,3.599,4.613,-253.662,-100.586,-32.166,-27.532,-17.029,-171.063
 15:27:12.915,eb:33:2e:f9:57:b5, 2085-97-121 238:159:33:7257,-2.188,4.119,3.993,-190.674,-4.028,-43.152,-29.696,-17.628,-171.172
 15:27:12.915,eb:33:2e:f9:57:b5, 2085-97-19 238:230:30:4527,-2.286,4.089,2.899,-96.741,44.067,-36.316,-30.959,-17.589,-171.7
 15:27:12.945,eb:33:2e:f9:57:b5, 2085-97-128 237:121:28:2746,-2.291,3.641,1.665,25.024,-1.221,-13.123,-31.163,-17.496,-172.04
 15:27:12.945,eb:33:2e:f9:57:b5, 2085-97-87 238:35:28:3570,-3.081,3.584,1.404,141.846,-94.482,-2.808,-30.333,-17.974,-171.793
 15:27:12.945,eb:33:2e:f9:57:b5, 2085-97-134 02:153:43:-5519,-0.069,-3.152,8.441,248.535,182.129,148.438,-28.586,-18.94,-171.178
 15:27:12.945,eb:33:2e:f9:57:b5, 2085-97-08 15:89:09:-4446,1.681,-1.154,0.74,485.413,334.167,166.992,-24.45,-14.782,-171.321
 15:27:12.974,eb:33:2e:f9:57:b5, 2085-97-134 25:19:238:10501,2.708,-2.935,3.573,524.536,100.891,-7.69,-19.99,-14.271,-171.387
 15:27:12.974,eb:33:2e:f9:57:b5, 2085-97-143 248:28:02:10018,-2.902,-1.224,7.682,786.804,505.188,-76.66,-12.98,-11.569,-172.969
 15:27:12.974,eb:33:2e:f9:57:b5, 2085-97-43 233:237:03:-1807,3.102,2.216,1.181,752.258,327.82,-119.69,-4.438,-7.18,-174.485
 15:27:12.974,eb:33:2e:f9:57:b5, 2085-97-99 21:208:28:12785,-2.15,11.35,0.675,147.644,-238.831,-171.265,0.121,-7.185,-174.858
 15:27:13.063,eb:33:2e:f9:57:b5, 2085-97-218 216:216:11:-7769,-2.447,-4.813,-0.243,72.815,647.949,361.755,0.275,-3.571,-174.672
 15:27:13.063,eb:33:2e:f9:57:b5, 2085-97-245 06:67:255:3463,2.216,0.673,-0.618,55.725,-150.574,-158.264,1.104,-2.554,-174.677
 15:27:13.063,eb:33:2e:f9:57:b5, 2085-97-96 01:203:00:3111,-1.322,-0.215,2.666,56.885,157.776,-31.067,1.703,-2.736,-175.765
 15:27:13.063,eb:33:2e:f9:57:b5, 2085-97-196 246:44:254:1035,-0.52,0.06,0.018,48.584,147.766,3.784,2.241,-0.5,-175.397
 15:27:13.063,eb:33:2e:f9:57:b5, 2085-97-48 250:178:02:1169,-0.17,-0.335,1.254,52.429,58.716,-5.554,2.763,0.121,-175.633
 15:27:13.065,eb:33:2e:f9:57:b5, 2085-113-58 00:92:224:-6645,0.156,0.127,0.913,26.184,12.451,-29.114,3.12,0.467,-175.737
 15:27:13.065,eb:33:2e:f9:57:b5, 2085-97-133 02:150:02:2203,0.171,0.001,1.469,28.015,47.302,-16.785,3.263,0.643,-175.82
 15:27:13.065,eb:33:2e:f9:57:b5, 2085-97-26 00:02:02:2270,0.29,0.2,1.146,13.123,48.279,-28.198,3.461,1.088,-176.089
 15:27:13.065,eb:33:2e:f9:57:b5, 2085-97-197 01:80:04:1372,0.355,0.228,0.894,-7.568,43.213,-18.738,3.466,1.549,-176.309
 15:27:13.096,eb:33:2e:f9:57:b5, 2085-97-202 03:171:15:-3023,0.521,0.58,0.616,-37.903,1.526,-74.219,3.219,1.769,-176.819
 15:27:13.096,eb:33:2e:f9:57:b5, 2085-97-21 01:57:232:9729,-0.72,1.667,-0.818,-163.147,-190.918,-203.857,2.258,0.868,-178.248
 15:27:13.096,eb:33:2e:f9:57:b5, 2085-97-53 254:152:231:12761,-0.806,-2.301,6.249,-4.639,28.442,74.768,1.269,0.676,-178.05
 15:27:13.096,eb:33:2e:f9:57:b5, 2085-97-106 253:223:254:1213,-0.281,-1.4,2.722,218.323,47.058,156.982,2.631,1.318,-176.726
 15:27:13.156,eb:33:2e:f9:57:b5, 2085-97-96 253:82:250:4127,0.047,-0.229,1.1,259.46,-143.677,58.472,5.081,0.549,-175.748
 15:27:13.156,eb:33:2e:f9:57:b5, 2085-97-179 02:183:249:6138,0.682,-1.013,2.676,292.114,-131.409,10.803,7.817,-0.928,-175.649
 15:27:13.156,eb:33:2e:f9:57:b5, 2085-97-150 07:124:251:6928,1.222,-0.762,3.144,349.854,-67.078,-30.518,11.041,-1.868,-175.902
 15:27:13.156,eb:33:2e:f9:57:b5, 2085-97-52 11:31:246:7600,1.299,-0.786,3.521,419.983,27.771,-68.665,14.963,-1.939,-176.468
 15:27:13.185,eb:33:2e:f9:57:b5, 2085-97-120 12:113:249:7921,1.259,-1.066,3.908,460.693,167.603,-64.392,19.402,-0.753,-176.803
 15:27:13.185,eb:33:2e:f9:57:b5, 2085-97-52 07:102:03:6293,1.275,-0.293,3.539,507.507,235.046,-62.988,24.346,1.373,-176.589
 15:27:13.185,eb:33:2e:f9:57:b5, 2085-97-238 05:110:05:1792,0.597,-0.003,2.237,476.318,241.577,-115.784,29.257,4.048,-176.484
 15:27:13.185,eb:33:2e:f9:57:b5, 2085-97-207 04:79:16:1005,0.435,1.141,-0.018,417.847,156.433,-176.514,33.657,6.581,-176.561
 15:27:13.216,eb:33:2e:f9:57:b5, 2085-97-201 01:193:06:5924,0.082,1.393,1.97,405.396,117.981,-285.645,37.491,8.976,-178.022
 15:27:13.216,eb:33:2e:f9:57:b5, 2085-97-18 03:43:00:4213,-0.639,0.618,3.056,487.854,232.3,-268.372,41.803,12.173,-178.956
 15:27:13.216,eb:33:2e:f9:57:b5, 2085-97-14 254:192:04:-2199,-0.193,1.017,-0.045,488.525,136.414,-220.947,46.945,15.013,-179.269
 15:27:13.216,eb:33:2e:f9:57:b5, 2085-97-230 255:239:01:-2427,0.192,-0.133,-1.228,335.754,121.094,-138.184,50.823,17.254,-179.626
 15:27:13.306,eb:33:2e:f9:57:b5, 2085-97-52 01:149:02:2254,0.171,0.398,-0.312,195.007,131.165,-80.505,53.454,18.809,-179.28
 15:27:13.306,eb:33:2e:f9:57:b5, 2085-97-98 00:153:01:5649,0.066,0.289,2.223,153.32,144.592,-87.097,55.327,20.281,-178.616
 15:27:13.307,eb:33:2e:f9:57:b5, 2085-97-111 01:08:255:6350,0.247,0.093,3.105,182.983,116.211,-107.605,57.178,21.824,-178.066
 15:27:13.307,eb:33:2e:f9:57:b5, 2085-97-80 02:66:252:5148,0.301,-0.353,2.812,214.355,109.192,-105.408,59.337,23.346,-177.676
 15:27:13.335,eb:33:2e:f9:57:b5, 2085-97-132 02:123:252:4815,0.329,-0.464,2.344,219.299,108.337,-84.106,61.727,24.703,-177.171
 15:27:13.335,eb:33:2e:f9:57:b5, 2085-97-108 02:45:253:5093,0.355,-0.418,2.458,209.229,114.441,-67.2,64.16,25.878,-176.462
 15:27:13.335,eb:33:2e:f9:57:b5, 2085-97-115 03:173:253:5093,0.568,-0.285,2.472,200.012,124.023,-61.523,66.583,26.96,-175.556
 15:27:13.335,eb:33:2e:f9:57:b5, 2085-97-232 04:24:252:5352,0.634,-0.366,2.582,199.28,112.549,-73.059,68.989,28.043,-174.622
 15:27:13.337,eb:33:2e:f9:57:b5, 2085-97-42 05:39:251:5261,0.65,-0.557,2.595,205.933,110.107,-84.595,71.4,29.169,-173.765
 15:27:13.337,eb:33:2e:f9:57:b5, 2085-97-222 04:218:250:4971,0.548,-0.61,2.514,213.928,92.712,-102.295,73.889,30.377,-172.974
 15:27:13.337,eb:33:2e:f9:57:b5, 2085-97-17 04:137:248:5154,0.469,-0.769,2.417,211.853,58.105,-121.826,76.245,31.668,-172.513
 15:27:13.337,eb:33:2e:f9:57:b5, 2085-97-47 03:235:245:5533,0.286,-1.108,2.647,198.975,45.715,-124.878,78.409,32.997,-172.282
 15:27:13.396,eb:33:2e:f9:57:b5, 2085-97-202 01:82:244:4793,0.172,-1.356,2.562,171.57,46.082,-108.459,80.381,34.233,-172.035
 15:27:13.396,eb:33:2e:f9:57:b5, 2085-97-76 01:32:242:3290,0.27,-1.591,2.012,125,48.584,-76.172,82.068,35.222,-171.634
 15:27:13.396,eb:33:2e:f9:57:b5, 2085-97-235 03:225:240:2096,0.553,-1.83,1.263,60.791,62.012,-22.888,83.265,35.777,-171.096
 15:27:13.396,eb:33:2e:f9:57:b5, 2085-97-243 04:58:241:618,0.741,-1.929,0.673,-22.034,109.009,51.697,84.062,35.706,-169.997
 15:27:13.425,eb:33:2e:f9:57:b5, 2085-97-191 06:222:243:-1210,0.949,-1.721,-0.124,-129.456,145.081,117.249,84.188,34.98,-168.333
 15:27:13.425,eb:33:2e:f9:57:b5, 2085-97-214 08:186:251:-2740,1.288,-1.1,-1.026,-256.897,150.513,161.682,83.342,33.717,-166.289
 15:27:13.425,eb:33:2e:f9:57:b5, 2085-97-180 10:120:255:-2537,1.723,-0.178,-1.319,-386.841,112,137.512,80.969,32.388,-164.487
 15:27:13.425,eb:33:2e:f9:57:b5, 2085-97-91 14:56:00:-1485,1.661,-0.099,-0.793,-454.346,32.532,79.529,77.184,31.514,-163.526
 15:27:13.456,eb:33:2e:f9:57:b5, 2085-97-06 15:103:255:-1110,1.684,-0.121,-0.699,-463.135,-74.036,-2.502,72.449,31.152,-163.696
 15:27:13.456,eb:33:2e:f9:57:b5, 2085-97-70 12:76:255:-1352,1.442,0.022,-0.768,-463.501,-174.744,-60.181,67.061,30.998,-165.168
 15:27:13.456,eb:33:2e:f9:57:b5, 2085-97-60 10:232:251:119,1.082,-0.288,-0.277,-464.355,-282.532,-115.723,60.892,30.756,-168.162
 15:27:13.456,eb:33:2e:f9:57:b5, 2085-97-251 06:98:248:1148,0.662,-0.732,0.325,-477.783,-347.656,-128.845,54.24,30.042,-172.046
 15:27:13.515,eb:33:2e:f9:57:b5, 2085-97-253 03:194:245:2438,0.392,-1.136,0.824,-507.812,-365.112,-104.431,47.329,28.614,-176.089
 15:27:13.515,eb:33:2e:f9:57:b5, 2085-97-62 02:95:246:3955,0.201,-1.304,1.61,-539.062,-322.876,-51.392,40.562,26.62,-179.363
 15:27:13.515,eb:33:2e:f9:57:b5, 2085-97-28 01:255:249:4475,0.097,-0.978,2.115,-548.584,-281.128,-5.92,34.146,24.373,178.456
 15:27:13.515,eb:33:2e:f9:57:b5, 2085-97-157 00:233:251:4325,0.058,-0.59,2.186,-534.485,-280.457,15.137,28.158,21.934,177.006
 15:27:13.545,eb:33:2e:f9:57:b5, 2085-97-10 00:230:252:4039,-0.053,-0.457,2.03,-503.052,-297.485,39.978,22.604,19.177,175.995
 15:27:13.545,eb:33:2e:f9:57:b5, 2085-97-100 255:59:254:4298,-0.083,-0.312,1.994,-462.524,-333.313,61.218,17.617,16.018,175.435
 15:27:13.545,eb:33:2e:f9:57:b5, 2085-97-127 255:23:00:4821,-0.062,-0.099,2.221,-424.316,-356.445,82.153,13.134,12.448,175.254
 15:27:13.545,eb:33:2e:f9:57:b5, 2085-97-183 255:118:01:5149,-0.035,0.103,2.454,-400.33,-350.037,99.426,9.08,8.795,175.551
 15:27:13.576,eb:33:2e:f9:57:b5, 2085-97-147 255:37:04:4838,-0.132,0.331,2.466,-397.461,-329.041,108.765,5.158,5.295,176.221
 15:27:13.576,eb:33:2e:f9:57:b5, 2085-97-89 254:172:07:4624,-0.266,0.745,2.246,-412.048,-325.012,110.84,1.159,2.016,177.215
 15:27:13.576,eb:33:2e:f9:57:b5, 2085-97-85 252:237:11:5236,-0.74,1.162,2.445,-415.527,-343.445,100.708,-3.032,-1.302,178.369
 15:27:13.576,eb:33:2e:f9:57:b5, 2085-97-248 247:45:15:6195,-1.237,1.729,2.714,-389.099,-385.376,63.232,-7.141,-4.85,179.588
 15:27:13.635,eb:33:2e:f9:57:b5, 2085-97-53 244:128:17:7985,-1.734,2.044,3.481,-348.816,-387.39,28.076,-10.975,-8.668,-179.302
 15:27:13.635,eb:33:2e:f9:57:b5, 2085-97-90 240:241:19:8776,-2.135,2.362,4.155,-324.829,-309.082,13.733,-14.507,-12.019,-178.264
 15:27:13.635,eb:33:2e:f9:57:b5, 2085-97-105 238:188:21:8839,-2.137,2.577,4.336,-308.411,-197.144,6.897,-17.891,-14.37,-177.424
 15:27:13.635,eb:33:2e:f9:57:b5, 2085-97-225 239:176:25:8009,-1.89,2.942,4.185,-286.926,-77.515,1.892,-21,-15.59,-176.891
 15:27:13.695,eb:33:2e:f9:57:b5, 2085-97-253 241:94:29:6210,-1.645,3.475,3.508,-250.61,22.339,-8.85,-23.714,-15.776,-176.841
 15:27:13.695,eb:33:2e:f9:57:b5, 2085-97-91 243:68:29:3724,-1.6,3.736,2.454,-190.552,62.561,-25.879,-25.801,-15.397,-177.22
 15:27:13.695,eb:33:2e:f9:57:b5, 2085-97-192 242:137:25:2075,-1.785,3.457,1.283,-108.215,16.541,-38.269,-27.142,-15.161,-177.737
 15:27:13.695,eb:33:2e:f9:57:b5, 2085-113-58 00:105:226:-4815,-2.012,2.981,1.005,-8.179,-65.857,-32.532,-27.631,-15.584,-177.913
 15:27:13.697,eb:33:2e:f9:57:b5, 2085-97-208 238:207:22:3185,-2.096,2.912,1.175,44.922,-103.21,-27.161,-27.537,-16.046,-177.825
 15:27:13.697,eb:33:2e:f9:57:b5, 2085-97-226 223:86:224:20797,-0.217,2.753,1.919,130.188,-109.436,-16.663,-26.686,-17.166,-177.457
 15:27:13.697,eb:33:2e:f9:57:b5, 2085-97-69 254:131:07:-357,1.918,6.584,-0.946,500.732,233.398,-88.806,-23.434,-15.518,-176.825
 15:27:13.697,eb:33:2e:f9:57:b5, 2085-97-254 15:196:01:9104,0.658,2.678,-2.324,359.558,80.383,-59.204,-18.611,-13.574,-177.61
 15:27:13.757,eb:33:2e:f9:57:b5, 2085-97-109 04:155:247:10686,-0.823,-2.569,7.168,588.44,371.948,-92.59,-13.678,-11.838,-179.143
 15:27:13.757,eb:33:2e:f9:57:b5, 2085-97-192 244:110:17:2385,-1.363,0.597,2.799,698.364,322.266,-105.469,-6.63,-8.432,179.132
 15:27:13.757,eb:33:2e:f9:57:b5, 2085-97-205 10:38:64:3112,1.426,0.172,-0.535,384.705,0.977,58.594,-0.884,-6.696,178.209
 15:27:13.757,eb:33:2e:f9:57:b5, 2085-97-16 00:163:238:4122,-2.335,3.837,4.287,26.306,219.666,-62.927,0.648,-6.658,177.863
 15:27:13.786,eb:33:2e:f9:57:b5, 2085-97-22 235:40:255:-1009,-1.426,0.309,-1.351,85.632,263.062,-46.631,1.351,-2.51,178.22
 15:27:13.786,eb:33:2e:f9:57:b5, 2085-97-211 04:234:01:2661,1.037,0.423,-0.154,53.223,-54.077,-82.642,2.027,-1.769,177.957
 15:27:13.786,eb:33:2e:f9:57:b5, 2085-97-72 254:173:254:2006,-0.892,-0.009,2.286,45.837,147.4,-35.645,2.582,-1.736,177.034
 15:27:13.786,eb:33:2e:f9:57:b5, 2085-97-133 249:122:255:1656,-0.502,-0.25,0.473,42.847,92.224,-6.287,2.966,-0.148,177.204
 15:27:13.816,eb:33:2e:f9:57:b5, 2085-97-172 255:254:00:2033,0.031,0.325,0.723,30.396,41.992,-31.25,3.378,0.434,176.951
 15:27:13.816,eb:33:2e:f9:57:b5, 2085-97-153 01:48:02:2053,0.101,0.136,1.164,15.32,62.317,-10.986,3.598,0.934,176.765
 15:27:13.816,eb:33:2e:f9:57:b5, 2085-97-189 255:62:03:1774,0.234,0.189,1.142,2.808,54.382,-18.25,3.675,1.428,176.644
 15:27:13.816,eb:33:2e:f9:57:b5, 2085-97-92 02:149:00:2438,0.29,0.292,0.974,-16.479,39.368,-39.307,3.604,1.873,176.32
 15:27:13.875,eb:33:2e:f9:57:b5, 2085-97-118 03:101:09:-1249,0.129,0.611,0.697,-23.56,13.733,-46.814,3.411,2.307,176.039
 15:27:13.875,eb:33:2e:f9:57:b5, 2085-97-22 255:168:233:9669,-0.609,1.955,-1.494,-125.549,-210.938,-158.447,2.736,1.599,175.204
 15:27:13.875,eb:33:2e:f9:57:b5, 2085-97-79 254:20:229:14212,-0.688,-2.654,6.701,17.761,-51.208,52.673,2.098,0.456,175.166
 15:27:13.875,eb:33:2e:f9:57:b5, 2085-97-133 255:59:255:1745,0.213,-1.478,2.841,241.943,-15.137,182.739,3.631,0.401,176.583
 15:27:13.905,eb:33:2e:f9:57:b5, 2085-97-173 02:254:248:5698,0.527,-0.097,1.419,294.495,-195.801,11.963,6.367,-0.884,177.352
 15:27:13.905,eb:33:2e:f9:57:b5, 2085-97-62 06:135:247:8282,1.16,-1.438,4.084,355.835,-112.122,-36.072,9.635,-2.543,176.858
 15:27:13.905,eb:33:2e:f9:57:b5, 2085-97-157 10:90:249:6316,1.351,-0.668,3.171,425.72,1.16,-59.631,13.612,-2.84,176.38
 15:27:13.905,eb:33:2e:f9:57:b5, 2085-97-54 09:47:248:8714,1.467,-1.194,3.513,476.501,92.285,-100.342,18.21,-2.159,175.649
 15:27:13.937,eb:33:2e:f9:57:b5, 2085-97-69 10:92:254:6064,1.521,-1.009,3.822,522.339,257.568,-61.157,23.247,-0.093,175.518
 15:27:13.937,eb:33:2e:f9:57:b5, 2085-97-10 11:60:01:3201,0.91,0.433,2.24,495.361,317.444,-69.702,28.367,2.9,176.237
 15:27:13.937,eb:33:2e:f9:57:b5, 2085-97-139 05:56:05:1535,0.426,0.603,1.053,452.515,265.259,-112,33.157,5.883,177.001
 15:27:13.937,eb:33:2e:f9:57:b5, 2085-97-227 01:19:08:4211,-0.057,1.312,1.128,413.94,169.739,-222.168,37.452,8.514,176.808
 15:27:13.996,eb:33:2e:f9:57:b5, 2085-97-51 255:241:253:7118,0.196,0.424,2.98,400.146,258.545,-244.629,41.347,11.624,176.116
 15:27:13.996,eb:33:2e:f9:57:b5, 2085-97-57 01:130:247:3696,-0.933,-1.269,3.802,496.094,354.37,-136.475,45.972,15.452,176.869
 15:27:13.996,eb:33:2e:f9:57:b5, 2085-97-219 250:227:252:-4931,-0.002,0.468,-1.114,418.823,310.669,-6.836,51.586,17.924,179.264
 15:27:13.996,eb:33:2e:f9:57:b5, 2085-97-254 03:167:01:-2952,0.317,-0.585,-2.107,277.344,193.97,117.798,55.673,18.913,-178.341
 15:27:14.057,eb:33:2e:f9:57:b5, 2085-97-60 02:127:04:2590,0.363,0.458,-0.48,173.157,172.058,140.259,58.535,18.825,-175.82
 15:27:14.057,eb:33:2e:f9:57:b5, 2085-97-213 01:95:06:6530,0.261,0.709,2.679,193.665,129.578,76.538,60.897,18.611,-173.958
 15:27:14.057,eb:33:2e:f9:57:b5, 2085-97-83 02:130:04:5895,0.313,0.789,3.211,257.629,70.679,-16.663,63.517,18.864,-172.952
 15:27:14.057,eb:33:2e:f9:57:b5, 2085-97-104 02:169:01:5189,0.28,0.291,2.639,285.583,50.781,-58.594,66.379,19.517,-172.617
 15:27:14.057,eb:33:2e:f9:57:b5, 2085-97-96 02:132:02:5504,0.305,0.261,2.586,276.855,49.744,-79.529,69.274,20.341,-172.403
 15:27:14.057,eb:33:2e:f9:57:b5, 2085-97-56 03:17:03:5419,0.532,0.348,2.662,261.963,56.946,-117.554,72.01,21.473,-172.205
 15:27:14.057,eb:33:2e:f9:57:b5, 2085-97-219 04:179:02:5472,0.648,0.39,2.665,255.249,24.841,-176.27,74.57,23.016,-172.255
 15:27:14.057,eb:33:2e:f9:57:b5, 2085-97-131 05:135:255:5995,0.713,0.174,2.76,241.028,-9.888,-235.718,76.811,25.054,-172.815
 15:27:14.145,eb:33:2e:f9:57:b5, 2085-97-217 05:110:252:6603,0.74,-0.265,3.086,215.82,-13.245,-271.729,78.745,27.532,-173.6
 15:27:14.145,eb:33:2e:f9:57:b5, 2085-97-97 05:118:249:6762,0.546,-0.627,3.305,179.382,13.184,-287.598,80.381,30.306,-174.254
 15:27:14.145,eb:33:2e:f9:57:b5, 2085-97-151 03:61:246:6304,0.391,-1.019,3.231,133.545,51.27,-276.367,81.848,33.151,-174.391
 15:27:14.145,eb:33:2e:f9:57:b5, 2085-97-246 02:127:243:5028,0.388,-1.396,2.808,83.618,88.257,-237,83.106,35.804,-174.012
 15:27:14.147,eb:33:2e:f9:57:b5, 2085-97-80 03:174:241:3327,0.41,-1.701,2.059,25.574,128.357,-166.931,84.26,37.93,-172.941
 15:27:14.147,eb:33:2e:f9:57:b5, 2085-97-40 04:94:241:1695,0.706,-1.808,1.16,-45.105,169.067,-77.271,85.188,39.265,-171.205
 15:27:14.147,eb:33:2e:f9:57:b5, 2085-97-10 06:150:241:338,0.745,-1.877,0.601,-129.028,196.96,9.827,85.748,39.727,-168.86
 15:27:14.147,eb:33:2e:f9:57:b5, 2085-97-197 07:148:246:-1874,1.083,-1.58,-0.432,-222.595,192.444,80.139,85.567,39.397,-166.267
 15:27:14.176,eb:33:2e:f9:57:b5, 2085-97-42 10:41:252:-3110,1.541,-0.781,-1.399,-339.294,148.621,108.398,84.15,38.557,-163.911
 15:27:14.176,eb:33:2e:f9:57:b5, 2085-97-145 13:189:253:-2650,1.706,-0.302,-1.446,-436.707,59.143,79.834,80.997,37.782,-162.565
 15:27:14.176,eb:33:2e:f9:57:b5, 2085-97-140 13:172:253:-2039,1.749,-0.277,-1.15,-484.802,-28.503,39.551,76.503,37.2,-162.241
 15:27:14.176,eb:33:2e:f9:57:b5, 2085-97-212 12:254:253:-1580,1.45,-0.29,-0.803,-490.479,-122.009,-9.827,71.005,36.87,-163.207
 15:27:14.235,eb:33:2e:f9:57:b5, 2085-97-177 10:107:252:-883,1.305,-0.328,-0.669,-481.567,-232.544,-45.959,64.83,36.442,-165.416
 15:27:14.235,eb:33:2e:f9:57:b5, 2085-97-170 09:48:251:113,1.089,-0.549,-0.163,-481.628,-315.491,-57.739,58.046,35.535,-168.799
 15:27:14.235,eb:33:2e:f9:57:b5, 2085-97-216 07:31:250:1590,0.96,-0.674,0.41,-495.117,-369.385,-53.406,51.031,33.931,-172.557
 15:27:14.235,eb:33:2e:f9:57:b5, 2085-97-232 06:91:250:3221,0.725,-0.762,1.239,-500.977,-373.962,-40.344,44.061,31.696,-176.21
 15:27:14.267,eb:33:2e:f9:57:b5, 2085-97-60 04:124:252:3643,0.348,-0.593,1.743,-503.357,-353.638,-15.259,37.573,29.097,-179.121
 15:27:14.267,eb:33:2e:f9:57:b5, 2085-97-152 01:18:253:3877,0.059,-0.361,1.804,-502.625,-350.647,0,31.476,26.208,178.61
 15:27:14.267,eb:33:2e:f9:57:b5, 2085-97-168 255:12:253:4062,-0.083,-0.368,1.966,-494.568,-351.501,28.381,25.807,23.027,176.968
 15:27:14.267,eb:33:2e:f9:57:b5, 2085-97-55 255:169:253:4236,-0.052,-0.35,2.007,-483.398,-350.586,68.054,20.544,19.589,176.012
 15:27:14.327,eb:33:2e:f9:57:b5, 2085-97-68 00:217:254:4927,0.14,-0.228,2.247,-464.478,-341.431,108.215,15.749,16.002,175.853
 15:27:14.327,eb:33:2e:f9:57:b5, 2085-97-133 01:210:00:4404,0.233,-0.015,2.362,-440.491,-315.796,138,11.327,12.53,176.369
 15:27:14.327,eb:33:2e:f9:57:b5, 2085-97-156 02:42:02:4088,0.372,0.196,1.996,-428.162,-320.496,148.682,7.18,9.185,177.369
 15:27:14.327,eb:33:2e:f9:57:b5, 2085-97-205 02:125:05:3723,0.312,0.434,1.936,-427.856,-324.036,156.494,3.027,5.856,178.66
 15:27:14.387,eb:33:2e:f9:57:b5, 2085-97-204 01:79:10:3889,0.01,0.995,1.779,-422.485,-366.028,136.963,-1.132,2.422,-179.824
 15:27:14.387,eb:33:2e:f9:57:b5, 2085-97-237 253:251:12:5150,-0.564,1.505,2.151,-401.245,-436.462,83.496,-5.284,-1.544,-178.434
 15:27:14.387,eb:33:2e:f9:57:b5, 2085-97-228 248:47:13:7323,-1.253,1.649,3.013,-372.253,-473.755,30.762,-9.223,-6.053,-177.248
 15:27:14.387,eb:33:2e:f9:57:b5, 2085-97-100 243:67:14:9219,-1.817,1.684,4.133,-349.426,-424.011,14.771,-13.013,-10.481,-176.105
 15:27:14.387,eb:33:2e:f9:57:b5, 2085-113-58 00:12:229:-5085,-1.99,1.924,4.565,-339.111,-274.78,31.677,-16.699,-13.755,-174.913
 15:27:14.415,eb:33:2e:f9:57:b5, 2085-97-223 239:44:19:8873,-1.864,2.131,4.434,-335.815,-199.341,41.565,-18.556,-14.782,-174.348
 15:27:14.415,eb:33:2e:f9:57:b5, 2085-97-39 243:30:25:7986,-1.31,2.748,4.199,-319.275,-63.66,44.8,-22.077,-15.771,-173.43
 15:27:14.415,eb:33:2e:f9:57:b5, 2085-97-197 247:142:30:5848,-0.87,3.525,3.419,-286.987,36.499,18.494,-25.214,-15.661,-173.101
 15:27:14.415,eb:33:2e:f9:57:b5, 2085-97-116 248:232:30:3154,-1.16,3.945,2.081,-224.67,45.654,-36.743,-27.702,-15.249,-173.414
 15:27:14.417,eb:33:2e:f9:57:b5, 2085-97-192 244:212:25:2321,-1.748,3.566,1.244,-113.892,-37.354,-78.369,-29.235,-15.507,-173.996
 15:27:14.417,eb:33:2e:f9:57:b5, 2085-97-168 239:23:23:2810,-2.176,3.028,1.156,14.16,-140.198,-90.027,-29.57,-16.76,-174.254
 15:27:14.417,eb:33:2e:f9:57:b5, 2085-97-37 249:159:245:11431,-2.146,2.681,1.706,101.013,-180.359,-80.627,-28.938,-18.677,-174.144
 15:27:14.417,eb:33:2e:f9:57:b5, 2085-97-26 02:105:253:10336,-0.56,3.808,0.546,455.383,308.35,157.288,-26.268,-18.012,-173.381
 15:27:14.507,eb:33:2e:f9:57:b5, 2085-97-117 255:201:16:6264,0.872,4.958,-3.226,523.926,115.662,-40.466,-20.023,-15.32,-174.315
 15:27:14.507,eb:33:2e:f9:57:b5, 2085-113-81 00:106:02:-4294,0.336,0.778,7.07,617.31,278.809,-143.677,-14.216,-14.189,-175.853
 15:27:14.507,eb:33:2e:f9:57:b5, 2085-97-63 252:184:00:7335,-0.714,-0.537,6.835,731.323,379.028,-117.798,-10.519,-12.59,-176.913
 15:27:14.507,eb:33:2e:f9:57:b5, 2085-97-36 249:203:254:-383,2.564,0.942,2.283,672.119,279.846,-180.786,-2.736,-9.454,-178.797
 15:27:14.567,eb:33:2e:f9:57:b5, 2085-97-71 10:62:37:11616,-0.628,11.485,0.071,103.516,-143.555,-75.928,1.417,-9.377,-179.121
 15:27:14.567,eb:33:2e:f9:57:b5, 2085-97-172 228:114:02:-7517,-2.33,-5.448,2.423,52.002,776.184,225.891,1.329,-5.609,-179.44
 15:27:14.567,eb:33:2e:f9:57:b5, 2085-97-222 250:69:07:688,0.523,-0.048,-0.777,67.505,-78.064,1.648,2.049,-2.999,-178.874
 15:27:14.567,eb:33:2e:f9:57:b5, 2085-97-173 03:46:01:3406,-0.169,0.199,1.058,67.81,-73.059,-147.156,2.889,-3.933,179.989
 15:27:14.596,eb:33:2e:f9:57:b5, 2085-97-07 252:04:254:2073,-0.834,-0.347,1.046,33.447,101.746,14.893,3.384,-3.301,179.473
 15:27:14.596,eb:33:2e:f9:57:b5, 2085-97-62 252:129:01:1299,0.221,-0.046,0.726,39.246,41.931,-1.16,3.785,-2.505,179.61
 15:27:14.596,eb:33:2e:f9:57:b5, 2085-97-179 03:132:05:2371,0.4,0.101,1.361,30.579,27.1,-20.325,4.142,-2.395,179.385
 15:27:14.596,eb:33:2e:f9:57:b5, 2085-97-132 00:100:01:2030,0.105,0.125,1.35,3.052,57.983,-23.315,4.29,-1.945,179.132
 15:27:14.598,eb:33:2e:f9:57:b5, 2085-97-99 04:225:255:3221,0.35,0.412,1.056,-9.766,34.729,-53.101,4.274,-1.428,178.841
 15:27:14.598,eb:33:2e:f9:57:b5, 2085-97-172 03:69:11:-1969,0.368,-0.15,1.613,-15.137,97.9,13.123,4.12,-0.593,178.665
 15:27:14.598,eb:33:2e:f9:57:b5, 2085-97-39 02:44:237:8972,-0.104,3.275,-3.373,-143.982,-237.549,-206.604,3.499,-0.956,178.039
 15:27:14.598,eb:33:2e:f9:57:b5, 2085-97-99 00:70:234:13970,-0.672,-3.241,6.935,24.353,-24.353,98.389,2.67,-2.241,177.594
 15:27:14.626,eb:33:2e:f9:57:b5, 2085-97-191 252:239:253:2532,-0.016,-2.19,3.587,237.61,13.855,210.388,4.092,-2.236,179.011
 15:27:14.626,eb:33:2e:f9:57:b5, 2085-97-10 01:108:250:4552,0.188,-0.351,1.057,282.532,-144.409,51.27,6.696,-3.054,-179.967
 15:27:14.626,eb:33:2e:f9:57:b5, 2085-97-236 04:222:246:7036,0.858,-1.187,3.853,333.618,-80.872,-18.921,9.778,-4.422,179.901
 15:27:14.626,eb:33:2e:f9:57:b5, 2085-97-125 08:78:250:6229,1.493,-0.672,2.898,382.019,37.415,-27.466,13.436,-4.471,179.709
 15:27:14.687,eb:33:2e:f9:57:b5, 2085-97-211 11:52:253:6110,1.647,-0.839,2.906,432.556,139.404,-43.64,17.551,-3.444,179.594
 15:27:14.687,eb:33:2e:f9:57:b5, 2085-97-60 11:154:251:6470,0.927,-0.477,3.177,480.225,202.942,-75.5,22.121,-1.5,179.583
 15:27:14.687,eb:33:2e:f9:57:b5, 2085-97-121 07:117:00:5861,0.786,0.192,3.162,499.939,248.047,-90.027,27.098,0.868,179.813
 15:27:14.687,eb:33:2e:f9:57:b5, 2085-97-123 04:25:05:2475,0.472,0.027,1.869,465.637,241.577,-100.342,31.965,3.543,-179.846
 15:27:14.716,eb:33:2e:f9:57:b5, 2085-97-64 02:31:12:2161,0.241,0.79,0.67,403.625,173.157,-178.345,36.249,6.108,-179.824
 15:27:14.716,eb:33:2e:f9:57:b5, 2085-97-235 00:37:10:6190,0.048,1.647,1.766,385.742,151.306,-275.208,40.007,8.795,179.231
 15:27:14.716,eb:33:2e:f9:57:b5, 2085-97-222 02:32:250:6643,-0.979,0.308,3.609,444.214,296.387,-251.526,44.017,12.354,178.676
 15:27:14.716,eb:33:2e:f9:57:b5, 2085-97-42 245:109:05:-5015,-0.482,0.386,-0.198,462.952,304.321,-84.29,49.18,15.634,-179.995
 15:27:14.716,eb:33:2e:f9:57:b5, 2085-113-58 00:248:233:-9825,0.155,-0.436,-2.402,286.682,193.848,17.517,53.152,17.518,-178.473
 15:27:14.746,eb:33:2e:f9:57:b5, 2085-97-63 00:243:03:-1968,-0.03,-0.018,-1.81,211.609,206.055,72.876,54.668,17.913,-177.462
 15:27:14.746,eb:33:2e:f9:57:b5, 2085-97-191 00:144:06:5335,-0.008,0.568,0.765,152.1,171.387,85.876,56.981,18.298,-175.287
 15:27:14.746,eb:33:2e:f9:57:b5, 2085-97-218 255:144:07:6319,0.132,0.949,3.096,208.313,126.038,8.606,59.255,18.754,-173.639
 15:27:14.746,eb:33:2e:f9:57:b5, 2085-97-43 02:05:03:5238,0.277,0.69,2.826,272.827,54.871,-73.059,61.902,19.517,-173.09
 15:27:14.808,eb:33:2e:f9:57:b5, 2085-97-116 01:82:01:4705,0.115,0.232,2.354,280.762,41.931,-98.755,64.709,20.533,-173.117
 15:27:14.808,eb:33:2e:f9:57:b5, 2085-97-43 00:244:00:5381,0.002,0.125,2.441,258.545,42.053,-107.239,67.379,21.654,-173.161
 15:27:14.808,eb:33:2e:f9:57:b5, 2085-97-147 00:151:01:5866,0.143,0.148,2.783,237.61,46.143,-113.586,69.824,22.846,-173.194
 15:27:14.808,eb:33:2e:f9:57:b5, 2085-97-103 02:180:01:6108,0.514,0.228,2.853,223.755,59.265,-126.892,72.175,24.153,-173.04
 15:27:14.836,eb:33:2e:f9:57:b5, 2085-97-46 05:205:255:7207,0.701,0.117,3.274,218.018,59.082,-160.156,74.41,25.714,-172.93
 15:27:14.836,eb:33:2e:f9:57:b5, 2085-97-221 05:59:253:7221,0.786,-0.201,3.605,214.966,91.248,-186.401,76.701,27.609,-172.617
 15:27:14.836,eb:33:2e:f9:57:b5, 2085-97-201 06:169:251:6473,0.966,-0.454,3.364,204.956,120.789,-201.172,79.124,29.756,-171.914
 15:27:14.836,eb:33:2e:f9:57:b5, 2085-97-06 07:49:250:5588,0.771,-0.633,2.996,176.758,135.62,-205.383,81.562,32.009,-170.859
 15:27:14.865,eb:33:2e:f9:57:b5, 2085-97-65 05:68:247:4879,0.589,-0.876,2.529,135.071,123.596,-198.547,83.721,34.2,-169.673
 15:27:14.865,eb:33:2e:f9:57:b5, 2085-97-96 04:55:243:4165,0.566,-1.344,2.238,89.844,98.877,-174.561,85.441,36.183,-168.58
 15:27:14.865,eb:33:2e:f9:57:b5, 2085-97-215 04:90:240:2906,0.693,-1.807,1.763,38.147,94.666,-122.07,86.627,37.744,-167.596
 15:27:14.865,eb:33:2e:f9:57:b5, 2085-97-05 07:36:238:1755,1.111,-2.053,1.058,-24.963,123.962,-52.551,87.468,38.644,-166.267
 15:27:14.926,eb:33:2e:f9:57:b5, 2085-97-251 07:98:237:657,0.993,-2.441,0.89,-81.177,168.152,16.907,87.99,38.87,-164.471
 15:27:14.926,eb:33:2e:f9:57:b5, 2085-97-53 07:14:247:-3377,1.399,-1.782,-0.514,-174.194,188.965,115.54,88.154,38.238,-162.136
 15:27:14.926,eb:33:2e:f9:57:b5, 2085-97-65 13:204:252:-3910,1.643,-0.47,-2.032,-323.303,152.222,115.051,86.891,37.101,-160.027
 15:27:14.926,eb:33:2e:f9:57:b5, 2085-97-84 15:108:252:-2053,1.982,-0.435,-1.521,-459.595,70.374,87.402,83.798,36.123,-158.39
 15:27:14.955,eb:33:2e:f9:57:b5, 2085-97-215 15:214:252:-1681,1.933,-0.43,-0.836,-500.61,2.197,35.156,79.2,35.607,-157.885
 15:27:14.955,eb:33:2e:f9:57:b5, 2085-97-107 14:97:254:-2059,1.72,-0.282,-0.88,-499.268,-92.163,-23.987,73.872,35.453,-158.417
 15:27:14.955,eb:33:2e:f9:57:b5, 2085-97-130 13:76:253:-1259,1.654,-0.244,-0.892,-494.263,-219.543,-80.688,67.67,35.409,-160.543
 15:27:14.956,eb:33:2e:f9:57:b5, 2085-97-28 12:65:252:-160,1.393,-0.412,-0.321,-496.765,-306.519,-111.023,60.732,35.085,-164.02
 15:27:14.986,eb:33:2e:f9:57:b5, 2085-97-64 10:61:251:1336,1.098,-0.533,0.246,-499.939,-371.521,-129.15,53.306,34.173,-168.316
 15:27:14.986,eb:33:2e:f9:57:b5, 2085-97-16 07:12:251:2725,0.698,-0.622,1.014,-502.686,-401.794,-125.916,45.84,32.569,-172.809
 15:27:14.986,eb:33:2e:f9:57:b5, 2085-97-100 04:34:251:4065,0.366,-0.608,1.67,-507.141,-407.41,-110.229,38.606,30.284,-177.006
 15:27:14.986,eb:33:2e:f9:57:b5, 2085-97-148 01:09:252:4428,0.068,-0.566,2.119,-505.859,-382.812,-75.195,31.904,27.565,179.604
 15:27:15.076,eb:33:2e:f9:57:b5, 2085-97-15 00:36:253:4614,-0.035,-0.427,2.203,-490.295,-370.422,-36.255,25.818,24.5,177.111
 15:27:15.076,eb:33:2e:f9:57:b5, 2085-97-181 255:121:254:4671,0,-0.28,2.27,-459.412,-360.474,6.653,20.451,21.171,175.512
 15:27:15.076,eb:33:2e:f9:57:b5, 2085-97-174 00:114:00:4516,0.136,-0.076,2.273,-418.762,-353.455,43.03,15.771,17.672,174.666
 15:27:15.076,eb:33:2e:f9:57:b5, 2085-97-15 01:109:03:3691,0.094,0.235,2.005,-392.09,-356.75,66.101,11.684,14.106,174.441
 15:27:15.078,eb:33:2e:f9:57:b5, 2085-97-79 00:167:05:3397,-0.06,0.586,1.692,-379.7,-388.062,68.665,7.828,10.316,174.545
 15:27:15.078,eb:33:2e:f9:57:b5, 2085-97-135 254:168:05:3875,-0.368,0.747,1.716,-364.929,-437.378,53.467,4.142,6.125,174.809
 15:27:15.078,eb:33:2e:f9:57:b5, 2085-97-108 251:183:04:5047,-0.764,0.644,2.147,-354.126,-464.05,46.814,0.555,1.549,175.166
 15:27:15.078,eb:33:2e:f9:57:b5, 2085-97-161 248:191:04:6343,-1.05,0.557,2.827,-351.074,-444.336,63.904,-2.983,-2.999,175.897
 15:27:15.167,eb:33:2e:f9:57:b5, 2085-97-100 246:29:09:6901,-1.383,0.777,3.235,-347.656,-395.447,87.28,-6.625,-7.075,177.083
 15:27:15.167,eb:33:2e:f9:57:b5, 2085-97-57 243:10:13:7529,-1.835,1.445,3.501,-330.75,-367.493,73.181,-10.256,-10.668,178.561
 15:27:15.168,eb:33:2e:f9:57:b5, 2085-97-109 239:22:13:8141,-2.231,1.69,3.854,-306.946,-333.74,39.001,-13.749,-13.986,179.907
 15:27:15.168,eb:33:2e:f9:57:b5, 2085-97-155 237:127:11:8827,-2.31,1.52,4.125,-295.044,-256.47,32.593,-17.062,-16.743,-178.89
 15:27:15.226,eb:33:2e:f9:57:b5, 2085-97-123 238:29:14:8590,-1.902,1.506,4.364,-290.71,-106.384,75.928,-20.369,-18.248,-177.737
 15:27:15.226,eb:33:2e:f9:57:b5, 2085-97-103 243:100:20:6306,-1.224,2.13,3.756,-271.362,45.349,127.93,-23.544,-18.001,-176.616
 15:27:15.226,eb:33:2e:f9:57:b5, 2085-97-80 249:21:26:3469,-0.641,2.927,2.377,-208.557,88.074,146.484,-26.268,-16.666,-175.633
 15:27:15.226,eb:33:2e:f9:57:b5, 2085-97-17 250:42:32:796,-0.889,3.639,0.911,-95.032,-0.366,118.652,-28.037,-15.546,-174.622
 15:27:15.229,eb:33:2e:f9:57:b5, 2085-113-81 00:85:02:-5041,-0.732,4.038,0.535,32.104,-193.298,28.503,-28.614,-16.144,-173.425
 15:27:15.229,eb:33:2e:f9:57:b5, 2085-97-255 207:225:248:20345,-2.39,3.13,1.609,123.718,-323.425,-56.824,-28.422,-17.265,-172.826
 15:27:15.229,eb:33:2e:f9:57:b5, 2085-97-206 240:94:35:-1346,-1.108,2.222,4.303,576.294,206.665,170.715,-24.966,-15.672,-171.321
 15:27:15.229,eb:33:2e:f9:57:b5, 2085-97-150 254:71:30:6487,0.576,5.279,0.996,542.053,80.994,36.865,-19.314,-13.629,-170.711
 15:27:15.229,eb:33:2e:f9:57:b5, 2085-97-252 01:196:00:12297,-0.097,1.882,5.984,560.242,169.739,-112.122,-13.777,-12.975,-171.552
 15:27:15.230,eb:33:2e:f9:57:b5, 2085-97-10 252:156:02:4767,-1.256,-0.222,4.375,710.815,308.655,-113.22,-6.828,-10.41,-173.188
 15:27:15.230,eb:33:2e:f9:57:b5, 2085-97-04 11:38:50:2288,2.393,-2.037,0.4,513.916,112.793,-42.114,-0.099,-8.13,-174.754
 15:27:15.230,eb:33:2e:f9:57:b5, 2085-97-158 04:185:248:7266,-2.337,9.87,2.676,-16.235,105.225,-75.195,2.12,-7.894,-174.589
 15:27:15.286,eb:33:2e:f9:57:b5, 2085-97-233 226:88:09:-4956,-2.097,-2.767,-0.409,85.388,526.245,174.927,2.115,-3.104,-173.589
 15:27:15.286,eb:33:2e:f9:57:b5, 2085-97-44 09:245:253:4114,1.188,0.481,-0.544,42.786,-196.96,-115.723,2.895,-2.576,-174.183
 15:27:15.286,eb:33:2e:f9:57:b5, 2085-97-62 254:92:01:1705,-0.876,0,2.229,59.143,129.7,-40.344,3.483,-2.878,-175.067
 15:27:15.286,eb:33:2e:f9:57:b5, 2085-97-86 248:30:254:1509,-1.031,-0.644,0.687,45.959,80.627,-10.681,3.955,-1.544,-175.221
 15:27:15.315,eb:33:2e:f9:57:b5, 2085-97-125 254:92:02:1697,0.587,0.077,0.628,38.696,9.583,-12.756,4.417,-1.126,-175.358
 15:27:15.315,eb:33:2e:f9:57:b5, 2085-97-10 08:95:01:3687,0.41,0.442,1.388,22.583,2.197,-48.096,4.79,-1.241,-175.803
 15:27:15.315,eb:33:2e:f9:57:b5, 2085-97-29 00:35:02:1917,0.33,0.796,0.708,-9.033,67.81,-36.255,4.883,-0.648,-176.017
 15:27:15.315,eb:33:2e:f9:57:b5, 2085-97-200 03:218:14:-1945,0.758,0.664,0.033,-36.011,37.476,-67.078,4.708,-0.165,-176.512
 15:27:15.346,eb:33:2e:f9:57:b5, 2085-97-206 04:22:250:5092,-1.074,0.079,1.508,-116.394,-1.16,-108.521,3.774,-0.39,-177.737
 15:27:15.346,eb:33:2e:f9:57:b5, 2085-97-208 254:195:241:10811,-0.382,-1.004,2.242,-20.081,-43.884,-13.062,2.999,0.115,-178.044
 15:27:15.346,eb:33:2e:f9:57:b5, 2085-97-168 249:138:243:6175,-0.426,-2.823,5.466,169.373,15.32,130.676,3.856,-0.28,-177.858
 15:27:15.346,eb:33:2e:f9:57:b5, 2085-97-148 255:69:255:1970,0.118,-0.411,1.105,239.197,-64.514,143.738,5.999,-0.456,-176.237
 15:27:15.405,eb:33:2e:f9:57:b5, 2085-97-237 02:215:250:5538,0.533,-0.237,1.618,264.221,-150.696,17.273,8.525,-1.791,-175.633
 15:27:15.405,eb:33:2e:f9:57:b5, 2085-97-16 05:192:248:7477,0.915,-0.941,3.522,318.97,-78.552,-20.752,11.481,-2.95,-175.897
 15:27:15.405,eb:33:2e:f9:57:b5, 2085-97-99 08:211:248:6325,1.101,-0.829,3.144,385.132,29.358,-42.847,15.062,-3.01,-176.221
 15:27:15.405,eb:33:2e:f9:57:b5, 2085-97-108 10:141:251:6401,1.469,-0.711,3.098,436.34,126.282,-59.021,19.243,-2.038,-176.479
 15:27:15.436,eb:33:2e:f9:57:b5, 2085-97-232 08:147:254:5955,0.815,-0.56,3.006,483.643,183.105,-76.172,23.862,-0.264,-176.545
 15:27:15.436,eb:33:2e:f9:57:b5, 2085-97-211 05:221:01:4960,0.67,0.25,2.581,492.249,209.473,-101.379,28.801,1.978,-176.375
 15:27:15.436,eb:33:2e:f9:57:b5, 2085-97-225 02:75:04:2727,0.387,-0.017,1.804,477.417,171.875,-127.075,33.657,4.219,-176.429
 15:27:15.436,eb:33:2e:f9:57:b5, 2085-97-130 01:112:10:3223,-0.098,0.854,1.201,432.8,132.507,-206.482,38.123,6.498,-176.968
 15:27:15.466,eb:33:2e:f9:57:b5, 2085-97-229 255:82:03:6186,0.091,0.886,2.309,394.104,161.133,-251.892,42.045,9.108,-177.962
 15:27:15.466,eb:33:2e:f9:57:b5, 2085-97-179 02:102:248:5932,-0.773,-0.306,3.73,479.614,299.194,-206.36,46.351,12.371,-178.039
 15:27:15.466,eb:33:2e:f9:57:b5, 2085-97-00 250:200:07:-4221,-0.268,0.682,-0.157,505.798,260.742,-66.406,52.004,15.09,-176.611
 15:27:15.466,eb:33:2e:f9:57:b5, 2085-97-160 02:69:00:-3676,0.223,-0.519,-2.429,347.595,156.067,-3.479,56.453,16.93,-175.161
 15:27:15.527,eb:33:2e:f9:57:b5, 2085-97-194 255:83:04:1260,0.034,0.565,-0.979,222.229,131.165,42.847,59.59,17.457,-173.754
 15:27:15.527,eb:33:2e:f9:57:b5, 2085-97-244 254:136:05:6298,-0.125,0.63,2.29,216.003,93.811,20.081,62.029,17.666,-172.672
 15:27:15.527,eb:33:2e:f9:57:b5, 2085-97-232 255:04:05:7176,-0.008,0.748,3.492,275.94,48.462,-37.598,64.682,18.083,-172.057
 15:27:15.527,eb:33:2e:f9:57:b5, 2085-97-03 00:111:01:6191,0.009,0.362,3.235,318.237,44.495,-64.697,67.758,18.792,-171.887
 15:27:15.555,eb:33:2e:f9:57:b5, 2085-97-117 00:76:01:6081,0.15,0.153,2.927,326.233,68.176,-57.8,71.109,19.572,-171.557
 15:27:15.555,eb:33:2e:f9:57:b5, 2085-97-175 01:10:254:6893,0.271,0.013,3.174,324.097,92.59,-58.289,74.564,20.38,-170.925
 15:27:15.555,eb:33:2e:f9:57:b5, 2085-97-186 02:181:251:6737,0.447,-0.456,3.421,335.754,115.356,-62.439,78.179,21.226,-169.98
 15:27:15.555,eb:33:2e:f9:57:b5, 2085-97-143 04:152:251:5879,0.618,-0.547,3.092,346.375,112.122,-76.721,81.991,22.132,-168.898
 15:27:15.586,eb:33:2e:f9:57:b5, 2085-97-214 04:24:252:4570,0.572,-0.529,2.557,333.313,96.069,-94.849,85.787,23.121,-167.877
 15:27:15.586,eb:33:2e:f9:57:b5, 2085-97-122 04:150:252:3853,0.616,-0.445,1.992,294.678,61.279,-112.122,89.214,24.219,-167.097
 15:27:15.586,eb:33:2e:f9:57:b5, 2085-97-210 04:214:251:3813,0.601,-0.458,1.917,237.732,28.687,-131.348,92.043,25.45,-166.635
 15:27:15.586,eb:33:2e:f9:57:b5, 2085-97-119 04:49:251:3447,0.487,-0.532,1.739,173.035,12.085,-142.883,94.164,26.829,-166.377
 15:27:15.675,eb:33:2e:f9:57:b5, 2085-97-221 02:58:251:2951,0.272,-0.667,1.656,107.483,2.197,-138.672,95.62,28.295,-166.201
 15:27:15.675,eb:33:2e:f9:57:b5, 2085-97-92 01:208:247:1762,0.272,-0.733,1.203,31.555,-18.066,-120.483,96.279,29.619,-166.168
 15:27:15.675,eb:33:2e:f9:57:b5, 2085-97-147 02:180:243:969,0.33,-1.32,0.713,-57.678,-37.72,-86.182,95.944,30.685,-166.443
 15:27:15.675,eb:33:2e:f9:57:b5, 2085-97-78 02:90:241:-259,0.215,-1.698,0.208,-148.682,-19.836,-34.18,94.713,31.3,-166.729
 15:27:15.677,eb:33:2e:f9:57:b5, 2085-97-235 01:106:242:-1726,0.453,-1.876,-0.52,-260.559,-9.033,28.809,92.554,31.317,-166.86
 15:27:15.677,eb:33:2e:f9:57:b5, 2085-97-136 05:176:247:-1441,0.99,-1.306,-0.939,-400.94,12.878,79.773,89.176,30.685,-166.833
 15:27:15.677,eb:33:2e:f9:57:b5, 2085-97-142 06:01:252:-1044,1.751,-0.566,-0.561,-542.053,45.532,121.094,84.573,29.625,-166.366
 15:27:15.677,eb:33:2e:f9:57:b5, 2085-97-226 09:87:252:-477,1.345,-0.342,0.28,-616.516,62.317,70.374,78.915,28.856,-165.976
 15:27:15.739,eb:33:2e:f9:57:b5, 2085-97-05 13:157:253:-010,1.491,-0.37,-0.16,-639.709,-15.625,22.217,72.746,28.323,-165.558
 15:27:15.739,eb:33:2e:f9:57:b5, 2085-97-157 11:121:00:-334,1.41,-0.081,-0.171,-632.69,-80.566,-39.612,66.099,28.246,-166.075
 15:27:15.739,eb:33:2e:f9:57:b5, 2085-97-168 10:54:00:210,1.204,0.11,0,-602.356,-181.213,-114.624,59.09,28.29,-167.855
 15:27:15.739,eb:33:2e:f9:57:b5, 2085-97-76 08:199:253:739,0.852,-0.101,0.189,-560.852,-279.358,-174.316,51.801,28.136,-171.019
 15:27:15.739,eb:33:2e:f9:57:b5, 2085-97-141 04:06:250:1740,0.205,-0.511,0.585,-526.733,-358.032,-194.397,44.495,27.328,-175.133
 15:27:15.796,eb:33:2e:f9:57:b5, 2085-113-58 00:191:230:-10665,-0.116,-1.008,1.149,-508.545,-414.551,-163.879,37.408,25.499,-179.489
 15:27:15.796,eb:33:2e:f9:57:b5, 2085-97-148 252:154:244:3896,-0.655,-1.252,1.548,-504.395,-417.053,-127.502,34.069,24.192,178.561
 15:27:15.796,eb:33:2e:f9:57:b5, 2085-97-200 249:190:244:4482,-0.798,-1.49,2.114,-498.901,-351.013,-22.888,27.966,21.226,175.77
 15:27:15.796,eb:33:2e:f9:57:b5, 2085-97-242 249:220:248:4266,-0.66,-1.188,2.156,-490.54,-288.94,88.44,22.687,18.226,174.809
 15:27:15.798,eb:33:2e:f9:57:b5, 2085-97-243 251:19:254:3999,-0.28,-0.57,1.996,-466.858,-283.508,160.706,17.946,15.128,175.117
 15:27:15.799,eb:33:2e:f9:57:b5, 2085-97-170 255:74:03:3967,0.162,0.095,1.948,-435.425,-300.11,186.401,13.678,11.843,176.133
 15:27:15.799,eb:33:2e:f9:57:b5, 2085-97-120 02:82:07:4141,0.259,0.676,1.969,-416.443,-312.622,166.138,9.613,8.476,177.319
 15:27:15.799,eb:33:2e:f9:57:b5, 2085-97-151 01:183:07:4277,0.095,1.016,1.985,-410.4,-325.134,108.582,5.603,5.158,178.319
 15:27:15.856,eb:33:2e:f9:57:b5, 2085-97-27 255:183:05:4933,-0.349,0.81,2.314,-417.175,-312.012,70.068,1.472,1.895,179
 15:27:15.856,eb:33:2e:f9:57:b5, 2085-97-210 251:16:06:5005,-0.65,0.709,2.422,-421.326,-279.297,62.683,-2.73,-1.005,179.747
 15:27:15.856,eb:33:2e:f9:57:b5, 2085-97-239 249:114:07:5276,-0.909,0.832,2.492,-410.645,-275.208,60.12,-6.965,-3.686,-179.368
 15:27:15.856,eb:33:2e:f9:57:b5, 2085-97-70 247:116:11:5982,-1.298,1.143,2.708,-389.404,-296.204,58.594,-11.069,-6.383,-178.253
 15:27:15.915,eb:33:2e:f9:57:b5, 2085-97-218 243:203:14:7127,-1.684,1.685,3.182,-361.755,-317.749,39.246,-15.018,-9.278,-177.012
 15:27:15.915,eb:33:2e:f9:57:b5, 2085-97-232 241:150:16:8634,-1.716,1.943,3.818,-331.421,-288.147,23.865,-18.71,-12.118,-175.759
 15:27:15.915,eb:33:2e:f9:57:b5, 2085-97-144 243:120:22:9326,-1.311,2.36,4.555,-297.119,-161.011,37.292,-22.121,-14.128,-174.628
 15:27:15.915,eb:33:2e:f9:57:b5, 2085-97-60 247:19:29:7015,-0.952,3.266,4.079,-272.766,4.028,43.213,-25.12,-14.535,-173.919
 15:27:15.917,eb:33:2e:f9:57:b5, 2085-97-11 249:73:31:4105,-0.824,3.854,2.726,-234.68,62.012,21.545,-27.702,-13.964,-173.837
 15:27:15.917,eb:33:2e:f9:57:b5, 2085-97-98 249:39:30:2075,-0.999,3.866,1.389,-140.137,8.301,-13.977,-29.531,-13.607,-173.979
 15:27:15.917,eb:33:2e:f9:57:b5, 2085-97-204 246:17:29:2339,-1.251,3.736,0.878,-11.963,-107.361,-55.725,-30.218,-14.222,-174.018
 15:27:15.917,eb:33:2e:f9:57:b5, 2085-97-174 245:227:25:4032,-1.284,3.414,1.599,88.074,-178.04,-91.919,-29.778,-15.952,-173.864
 15:27:15.976,eb:33:2e:f9:57:b5, 2085-97-217 245:98:21:4392,-1.174,2.975,2.145,138.184,-145.569,-95.093,-28.575,-17.853,-173.875
 15:27:15.976,eb:33:2e:f9:57:b5, 2085-97-111 252:243:223:15842,-0.185,2.342,2.12,169.067,-70.129,-88.928,-26.927,-19.215,-174.144
 15:27:15.976,eb:33:2e:f9:57:b5, 2085-97-154 254:194:229:206,2.203,3.809,-2.905,412.476,308.167,-23.621,-23.78,-17.699,-174.326
 15:27:15.976,eb:33:2e:f9:57:b5, 2085-97-195 24:197:246:10700,3.633,0.418,-3.303,423.706,-43.701,-94.36,-19.05,-16.139,-175.182
 15:27:16.065,eb:33:2e:f9:57:b5, 2085-97-01 05:94:01:12491,-1.95,-0.421,7.485,705.566,393.86,-170.532,-12.574,-15.013,-177.204
 15:27:16.065,eb:33:2e:f9:57:b5, 2085-97-104 232:213:247:497,0.208,1.066,2.312,723.816,420.959,-94.91,-4.62,-10.355,-179.209
 15:27:16.065,eb:33:2e:f9:57:b5, 2085-97-150 20:14:84:4462,1.162,6.708,-0.067,261.169,-134.094,21.057,0.505,-8.844,-179.418
 15:27:16.065,eb:33:2e:f9:57:b5, 2085-97-146 240:185:226:1307,-2.987,-1.026,4.789,-30.579,507.996,-30.457,1.104,-8.256,178.989
 15:27:16.067,eb:33:2e:f9:57:b5, 2085-97-196 238:111:02:-548,0.346,1.195,-2.222,48.279,127.502,31.189,1.56,-3.153,-179.769
 15:27:16.067,eb:33:2e:f9:57:b5, 2085-97-134 08:23:255:3999,-0.155,-0.168,1.23,71.594,-105.53,-118.286,2.208,-4.114,179.522
 15:27:16.069,eb:33:2e:f9:57:b5, 2085-97-54 249:139:253:501,-0.61,0.275,0.904,60.974,179.382,-19.531,2.988,-3.104,178.978
 15:27:16.069,eb:33:2e:f9:57:b5, 2085-97-62 252:104:255:2591,-0.491,-0.247,0.815,53.894,9.949,-23.315,3.521,-2.362,178.846
 15:27:16.097,eb:33:2e:f9:57:b5, 2085-97-254 01:89:02:2201,0.836,0.273,0.666,42.725,26.184,-7.507,4.054,-1.945,178.813
 15:27:16.097,eb:33:2e:f9:57:b5, 2085-97-212 05:26:04:2990,0.312,0.433,1.469,15.869,66.956,-16.724,4.373,-1.571,178.643
 15:27:16.097,eb:33:2e:f9:57:b5, 2085-97-103 255:122:01:1716,-0.12,0.511,1.12,-15.747,118.408,-19.958,4.356,-0.544,178.599
 15:27:16.097,eb:33:2e:f9:57:b5, 2085-97-17 254:166:00:1952,-0.298,-0.105,1.211,-12.573,87.219,-29.785,4.191,0.374,178.369
 15:27:16.155,eb:33:2e:f9:57:b5, 2085-97-250 254:41:10:-3251,-0.068,-0.404,1.251,-12.085,67.749,1.831,4.054,1.154,178.253
 15:27:16.155,eb:33:2e:f9:57:b5, 2085-97-147 06:39:237:9723,-0.287,3.115,-3.51,-206.97,-238.037,-184.631,3.065,0.681,177.632
 15:27:16.155,eb:33:2e:f9:57:b5, 2085-97-24 06:11:242:12899,-0.115,-2.673,5.498,8.057,-59.387,93.323,1.857,-0.428,177.61
 15:27:16.155,eb:33:2e:f9:57:b5, 2085-97-240 251:197:249:4923,0.022,-2.252,4.41,229.065,-40.405,163.269,3.257,-1.126,178.336
 15:27:16.186,eb:33:2e:f9:57:b5, 2085-97-240 01:118:250:4335,0.342,-0.819,1.806,265.442,-87.524,92.468,5.729,-1.824,179.39
 15:27:16.186,eb:33:2e:f9:57:b5, 2085-97-87 06:200:249:6204,0.968,-0.991,3.547,335.083,-51.514,-15.381,8.674,-2.719,179.643
 15:27:16.186,eb:33:2e:f9:57:b5, 2085-97-106 07:220:247:6372,1.086,-0.57,2.979,390.686,2.991,-62.744,12.415,-2.829,179.225
 15:27:16.186,eb:33:2e:f9:57:b5, 2085-97-170 10:90:250:6876,1.604,-1.064,3.191,443.115,132.507,-64.148,16.655,-1.961,178.808
 15:27:16.215,eb:33:2e:f9:57:b5, 2085-97-129 13:161:251:5881,1.109,-0.682,3.148,491.821,226.257,-69.214,21.374,0.066,178.764
 15:27:16.215,eb:33:2e:f9:57:b5, 2085-97-174 08:117:255:5098,0.672,0.109,2.793,501.526,293.03,-79.712,26.384,2.73,179.132
 15:27:16.215,eb:33:2e:f9:57:b5, 2085-97-194 02:65:01:2490,0.299,-0.083,1.751,488.403,264.771,-97.046,31.399,5.691,179.725
 15:27:16.215,eb:33:2e:f9:57:b5, 2085-97-253 03:202:04:2241,0.475,0.308,0.809,448.547,163.391,-164.062,36.085,8.196,179.835
 15:27:16.246,eb:33:2e:f9:57:b5, 2085-97-148 02:59:06:5326,0.244,1.019,1.764,405.457,143.738,-261.902,40.172,10.646,178.923
 15:27:16.246,eb:33:2e:f9:57:b5, 2085-97-61 02:210:253:7500,0.545,0.478,3.312,430.908,246.094,-286.987,44.138,13.903,178.132
 15:27:16.246,eb:33:2e:f9:57:b5, 2085-97-209 249:72:01:-523,-0.678,-1.109,3.023,551.147,311.829,-165.039,49.197,17.704,178.533
 15:27:16.246,eb:33:2e:f9:57:b5, 2085-97-50 254:237:249:-4110,0.207,0.607,-2.143,420.898,178.467,-109.985,54.586,20.171,179.802
 15:27:16.276,eb:33:2e:f9:57:b5, 2085-97-198 00:246:02:-4088,0.038,-0.39,-2.121,277.893,153.687,2.93,58.458,21.407,-179.11
 15:27:16.276,eb:33:2e:f9:57:b5, 2085-97-231 00:206:02:3165,-0.142,0.438,-0.356,161.133,104.004,20.935,60.952,21.929,-177.742
 15:27:16.276,eb:33:2e:f9:57:b5, 2085-97-181 253:248:02:6122,-0.191,0.362,2.468,160.645,113.647,4.15,62.919,22.346,-176.589
 15:27:16.276,eb:33:2e:f9:57:b5, 2085-97-55 255:192:01:5888,-0.114,0.375,3.134,211.975,82.947,-36.804,65.116,22.934,-175.77
 15:27:16.337,eb:33:2e:f9:57:b5, 2085-97-219 254:67:255:4351,-0.186,0.012,2.477,230.347,87.28,-41.687,67.626,23.687,-175.128
 15:27:16.337,eb:33:2e:f9:57:b5, 2085-97-125 254:221:255:3763,-0.123,-0.078,1.896,210.51,88.379,-25.085,70.153,24.329,-174.337
 15:27:16.337,eb:33:2e:f9:57:b5, 2085-97-33 00:171:255:4460,0.181,0.004,1.949,177.673,85.083,-14.221,72.4,24.796,-173.529
 15:27:16.337,eb:33:2e:f9:57:b5, 2085-97-239 02:109:255:5434,0.517,-0.074,2.419,166.321,85.571,-22.4,74.438,25.214,-172.656
 15:27:16.366,eb:33:2e:f9:57:b5, 2085-97-203 04:189:255:5772,0.639,-0.047,2.795,181.091,76.721,-52.551,76.481,25.801,-171.903
 15:27:16.366,eb:33:2e:f9:57:b5, 2085-97-70 05:69:255:5302,0.698,-0.055,2.743,195.618,61.523,-90.759,78.624,26.68,-171.332
 15:27:16.366,eb:33:2e:f9:57:b5, 2085-97-218 05:201:254:4619,0.687,-0.127,2.412,186.646,45.898,-121.826,80.695,27.856,-170.991
 15:27:16.366,eb:33:2e:f9:57:b5, 2085-97-08 05:04:253:4384,0.584,-0.211,2.141,146.851,26.917,-143.066,82.441,29.24,-170.799
 15:27:16.426,eb:33:2e:f9:57:b5, 2085-97-215 04:89:249:4642,0.538,-0.629,2.209,95.398,7.446,-153.32,83.568,30.756,-170.881
 15:27:16.426,eb:33:2e:f9:57:b5, 2085-97-190 03:47:247:3882,0.516,-0.982,2.135,39.551,25.33,-140.198,84.205,32.245,-170.881
 15:27:16.426,eb:33:2e:f9:57:b5, 2085-97-208 04:233:245:2526,0.654,-1.196,1.604,-27.039,68.054,-107.3,84.419,33.536,-170.53
 15:27:16.426,eb:33:2e:f9:57:b5, 2085-97-220 04:173:244:843,0.545,-1.34,0.837,-108.582,112.793,-57.434,84.276,34.442,-169.475
 15:27:16.455,eb:33:2e:f9:57:b5, 2085-97-104 04:30:246:-883,0.658,-1.399,-0.022,-199.158,131.775,-0.854,83.491,34.871,-168.036
 15:27:16.455,eb:33:2e:f9:57:b5, 2085-97-159 06:182:250:-1886,1.026,-0.962,-0.742,-308.044,129.15,42.664,81.837,34.799,-166.377
 15:27:16.455,eb:33:2e:f9:57:b5, 2085-97-224 11:205:253:-1253,1.4,-0.43,-0.939,-411.011,80.566,36.865,78.898,34.579,-165.053
 15:27:16.455,eb:33:2e:f9:57:b5, 2085-97-70 13:122:253:-848,1.88,-0.299,-0.612,-479.065,43.396,13.794,74.872,34.486,-164.13
 15:27:16.486,eb:33:2e:f9:57:b5, 2085-97-113 13:251:254:-1661,1.501,-0.297,-0.418,-503.662,3.479,-9.521,70.021,34.59,-163.932
 15:27:16.486,eb:33:2e:f9:57:b5, 2085-97-182 11:30:00:-1751,1.436,-0.034,-0.971,-492.371,-115.601,-71.716,64.561,34.75,-164.729
 15:27:16.486,eb:33:2e:f9:57:b5, 2085-97-101 11:14:254:-520,1.297,-0.091,-0.586,-469.666,-257.263,-119.019,58.25,34.656,-167.388
 15:27:16.486,eb:33:2e:f9:57:b5, 2085-97-136 08:160:251:541,0.791,-0.394,0,-456.848,-347.473,-133.301,51.443,33.871,-171.299
 15:27:16.516,eb:33:2e:f9:57:b5, 2085-97-199 04:159:248:2447,0.41,-0.747,0.718,-450.806,-410.95,-124.634,44.511,32.212,-175.721
 15:27:16.516,eb:33:2e:f9:57:b5, 2085-97-197 01:125:247:3962,0.116,-1.038,1.641,-454.407,-402.588,-84.412,37.941,29.751,-179.72
 15:27:16.516,eb:33:2e:f9:57:b5, 2085-97-186 00:177:248:4544,0.088,-1.011,2.114,-466.98,-348.938,-33.325,31.937,26.966,177.358
 15:27:16.516,eb:33:2e:f9:57:b5, 2085-97-180 00:187:250:4287,0.073,-0.793,2.207,-472.9,-305.542,9.338,26.466,24.181,175.6
 15:27:16.576,eb:33:2e:f9:57:b5, 2085-97-157 00:161:252:3715,0.027,-0.526,1.946,-459.29,-310.181,33.142,21.368,21.286,174.551
 15:27:16.576,eb:33:2e:f9:57:b5, 2085-97-244 255:72:253:3540,-0.089,-0.34,1.692,-431.458,-358.276,43.213,16.694,17.996,173.87
 15:27:16.576,eb:33:2e:f9:57:b5, 2085-97-137 254:221:251:4333,-0.288,-0.407,1.886,-406.86,-407.837,56.335,12.365,14.101,173.414
 15:27:16.576,eb:33:2e:f9:57:b5, 2085-97-25 253:157:250:4970,-0.406,-0.615,2.333,-398.254,-410.034,91.187,8.372,9.899,173.48
 15:27:16.607,eb:33:2e:f9:57:b5, 2085-97-85 253:71:251:5034,-0.196,-0.687,2.414,-412.903,-374.939,138.062,4.389,5.889,174.265
 15:27:16.607,eb:33:2e:f9:57:b5, 2085-97-44 255:255:255:5209,-0.012,-0.376,2.554,-439.026,-334.106,174.622,0.209,2.329,175.798
 15:27:16.607,eb:33:2e:f9:57:b5, 2085-97-20 00:102:07:5500,-0.202,0.435,2.527,-449.707,-332.642,167.969,-4.285,-0.868,177.715
 15:27:16.607,eb:33:2e:f9:57:b5, 2085-97-170 251:120:14:6632,-0.951,1.504,2.879,-436.89,-369.934,104.858,-8.822,-4.158,179.594
 15:27:16.637,eb:33:2e:f9:57:b5, 2085-97-100 244:169:14:8289,-2.001,1.894,3.661,-412.964,-395.691,8.728,-13.222,-7.866,-179.105
 15:27:16.637,eb:33:2e:f9:57:b5, 2085-97-82 236:81:13:9726,-2.737,1.74,4.348,-399.78,-363.647,-27.893,-17.435,-11.585,-178.16
 15:27:16.637,eb:33:2e:f9:57:b5, 2085-97-79 234:158:16:10902,-2.378,1.737,5.158,-372.864,-232.91,4.822,-21.55,-14.48,-177.22
 15:27:16.637,eb:33:2e:f9:57:b5, 2085-97-97 240:37:26:8935,-1.615,2.66,5.053,-333.313,-22.339,63.782,-25.285,-15.37,-176.342
 15:27:16.697,eb:33:2e:f9:57:b5, 2085-97-61 245:226:32:4702,-1.322,3.775,3.378,-278.809,76.477,76.843,-28.493,-14.606,-175.875
 15:27:16.697,eb:33:2e:f9:57:b5, 2085-113-58 00:40:231:-5145,-1.512,4.435,1.214,-167.847,-8.789,50.354,-30.8,-13.859,-175.501
 15:27:16.697,eb:33:2e:f9:57:b5, 2085-97-221 242:48:36:1681,-1.856,4.739,0.565,-80.078,-122.131,4.517,-31.465,-14.112,-175.188
 15:27:16.697,eb:33:2e:f9:57:b5, 2085-97-67 239:24:31:4740,-2.15,4.185,1.509,52.673,-233.582,-48.218,-31.729,-15.919,-174.342
 15:27:16.727,eb:33:2e:f9:57:b5, 2085-97-32 243:147:244:16133,-0.574,3.598,2.655,135.986,-158.569,-53.345,-30.888,-17.93,-173.655
 15:27:16.727,eb:33:2e:f9:57:b5, 2085-97-127 04:108:253:7731,-0.079,6.582,-1.379,498.718,286.072,18.494,-27.658,-16.71,-173.024
 15:27:16.727,eb:33:2e:f9:57:b5, 2085-97-181 08:74:08:5504,1.988,3.896,-3.92,429.565,130.31,-63.904,-21.72,-14.376,-174.315
 15:27:16.727,eb:33:2e:f9:57:b5, 2085-97-237 16:69:244:13961,-0.022,-0.882,6.016,568.176,258.545,-180.115,-16.485,-13.337,-176.259
 15:27:16.757,eb:33:2e:f9:57:b5, 2085-97-105 241:61:06:3108,-2.183,-0.529,4.388,755.92,407.471,-134.949,-9.009,-9.97,-178.753
 15:27:16.757,eb:33:2e:f9:57:b5, 2085-97-185 251:140:20:732,2.302,0.752,0.161,556.396,174.255,-125.671,-1.945,-7.245,179.533
 15:27:16.757,eb:33:2e:f9:57:b5, 2085-97-23 14:09:15:9221,-1.396,9.517,1.824,70.862,-65.491,-100.525,1,-7.674,179.533
 15:27:16.757,eb:33:2e:f9:57:b5, 2085-97-222 226:162:02:-5330,-3.114,-3.298,0.903,68.115,600.464,213.562,1.214,-3.68,179.758
 15:27:16.846,eb:33:2e:f9:57:b5, 2085-97-50 02:174:01:2198,1.979,0.664,-1.324,68.97,-182.556,-134.094,2.043,-2.137,179.967
 15:27:16.846,eb:33:2e:f9:57:b5, 2085-97-109 05:204:00:3432,-0.854,0.098,2.236,53.833,51.636,-51.392,2.692,-3.175,178.962
 15:27:16.846,eb:33:2e:f9:57:b5, 2085-97-249 248:215:253:1033,-0.346,0.228,0.331,40.955,115.417,-14.465,3.197,-1.686,178.901
 15:27:16.846,eb:33:2e:f9:57:b5, 2085-97-92 251:13:255:2028,-0.462,-0.089,1.042,47.302,31.25,-42.236,3.68,-1.159,178.577
 15:27:16.846,eb:33:2e:f9:57:b5, 2085-97-228 02:90:03:2616,0.724,0.392,0.626,35.645,-3.174,-30.212,4.098,-0.824,178.478
 15:27:16.846,eb:33:2e:f9:57:b5, 2085-97-178 02:210:00:2653,-0.203,0.248,1.515,11.536,79.041,-20.996,4.378,-0.467,178.033
 15:27:16.846,eb:33:2e:f9:57:b5, 2085-97-244 253:16:02:1740,-0.116,0.16,1.005,5.554,78.003,-32.837,4.46,0.412,177.863
 15:27:16.846,eb:33:2e:f9:57:b5, 2085-97-46 00:203:00:2286,-0.003,0.117,0.953,-10.681,33.997,-42.236,4.438,0.994,177.495
 15:27:16.876,eb:33:2e:f9:57:b5, 2085-97-189 255:97:08:-941,0.425,0.098,0.733,-18.677,28.442,-34.851,4.301,1.384,177.166
 15:27:16.876,eb:33:2e:f9:57:b5, 2085-97-61 06:88:248:5596,-0.007,2.955,-3.18,-186.646,-198.547,-168.274,3.439,0.802,176.232
 15:27:16.876,eb:33:2e:f9:57:b5, 2085-97-136 250:32:240:12876,0.187,-3.106,5.881,-69.519,96.436,94.604,1.763,0.461,175.71
 15:27:16.876,eb:33:2e:f9:57:b5, 2085-97-68 251:05:249:4510,0.019,-2.815,5.638,200.256,40.161,148.438,2.642,0.522,176.347
 15:27:16.936,eb:33:2e:f9:57:b5, 2085-97-83 00:224:252:2656,0.054,-0.47,1.167,263.733,-87.158,100.525,5.076,0.176,177.599
 15:27:16.936,eb:33:2e:f9:57:b5, 2085-97-23 04:180:248:6325,0.661,-0.53,2.08,287.109,-119.69,25.085,7.85,-1.033,178.099
 15:27:16.936,eb:33:2e:f9:57:b5, 2085-97-248 06:88:249:7436,0.821,-0.817,3.929,351.135,-27.222,-11.536,11.058,-1.796,178.088
 15:27:16.936,eb:33:2e:f9:57:b5, 2085-97-170 07:75:247:7087,1.25,-1.079,3.12,418.64,62.561,-39.062,14.996,-1.472,177.841
 15:27:16.998,eb:33:2e:f9:57:b5, 2085-97-45 13:128:251:6270,1.518,-0.702,3.712,454.651,178.711,-50.537,19.363,-0.143,177.759
 15:27:16.998,eb:33:2e:f9:57:b5, 2085-97-224 11:48:03:4406,0.91,0.229,2.424,462.891,243.164,-71.167,24.044,2.12,178.05
 15:27:16.998,eb:33:2e:f9:57:b5, 2085-97-112 04:140:03:2503,0.28,0.503,1.537,436.34,223.206,-129.272,28.537,4.757,178.226
 15:27:16.998,eb:33:2e:f9:57:b5, 2085-97-181 01:132:07:2245,0.079,0.585,0.734,394.958,140.625,-191.895,32.657,7.158,177.775
 15:27:16.998,eb:33:2e:f9:57:b5, 2085-97-32 01:243:01:6800,-0.031,1.307,1.936,371.155,113.953,-252.991,36.304,9.355,176.644
 15:27:16.998,eb:33:2e:f9:57:b5, 2085-97-36 00:82:246:8195,-0.237,-0.441,3.979,426.514,270.508,-172.119,40.15,12.206,176.067
 15:27:16.999,eb:33:2e:f9:57:b5, 2085-97-168 249:183:03:-1665,-0.556,-1.2,2.124,519.104,324.158,-10.254,45.396,15.167,177.534
 15:27:16.999,eb:33:2e:f9:57:b5, 2085-97-84 255:132:00:-5199,0.749,0.198,-2.467,342.407,266.724,51.941,50.323,17.15,-179.934
 15:27:17.057,eb:33:2e:f9:57:b5, 2085-97-92 04:30:06:-1783,0.591,0.569,-1.748,199.402,154.724,101.013,53.547,17.545,-177.924
 15:27:17.057,eb:33:2e:f9:57:b5, 2085-97-242 03:179:04:4510,0.293,0.676,1.12,155.64,71.96,38.696,55.596,17.595,-176.572
 15:27:17.057,eb:33:2e:f9:57:b5, 2085-97-192 02:219:02:5551,0.403,0.485,2.58,205.139,4.944,-52.124,57.475,17.919,-176.248
 15:27:17.057,eb:33:2e:f9:57:b5, 2085-97-37 03:11:255:4730,0.298,0.104,2.544,248.657,-36.255,-111.694,59.59,18.572,-176.951
 15:27:17.086,eb:33:2e:f9:57:b5, 2085-97-169 01:245:253:4443,0.189,-0.213,2.151,248.84,-37.537,-129.395,61.793,19.44,-177.935
 15:27:17.086,eb:33:2e:f9:57:b5, 2085-97-103 01:20:253:5132,0.154,-0.307,2.327,223.694,-16.907,-133.728,63.842,20.49,-178.874
 15:27:17.086,eb:33:2e:f9:57:b5, 2085-97-94 01:254:252:5250,0.256,-0.399,2.58,196.045,32.349,-128.723,65.737,21.709,-179.374
 15:27:17.086,eb:33:2e:f9:57:b5, 2085-97-69 03:135:253:5332,0.561,-0.331,2.545,177.49,64.514,-134.033,67.56,23.121,-179.434
 15:27:17.148,eb:33:2e:f9:57:b5, 2085-97-60 05:191:252:5787,0.7,-0.335,2.721,165.71,78.491,-153.381,69.318,24.73,-179.286
 15:27:17.148,eb:33:2e:f9:57:b5, 2085-97-249 05:44:251:6024,0.77,-0.504,2.899,160.034,98.816,-171.082,71.049,26.587,-179.006
 15:27:17.148,eb:33:2e:f9:57:b5, 2085-97-31 06:128:249:5926,0.602,-0.693,2.938,152.71,122.803,-181.824,72.867,28.625,-178.434
 15:27:17.148,eb:33:2e:f9:57:b5, 2085-97-90 04:45:247:4950,0.492,-0.946,2.661,133.118,130.798,-182.373,74.68,30.767,-177.621
 15:27:17.176,eb:33:2e:f9:57:b5, 2085-97-169 03:45:245:3646,0.448,-1.248,2.114,97.534,129.333,-158.081,76.317,32.767,-176.666
 15:27:17.176,eb:33:2e:f9:57:b5, 2085-97-31 04:225:243:2447,0.619,-1.44,1.459,43.823,128.784,-110.84,77.596,34.371,-175.562
 15:27:17.176,eb:33:2e:f9:57:b5, 2085-97-120 05:226:242:1503,0.749,-1.577,0.958,-21.423,141.785,-55.542,78.459,35.458,-174.155
 15:27:17.176,eb:33:2e:f9:57:b5, 2085-97-14 06:205:243:420,0.769,-1.666,0.547,-91.248,156.128,4.578,78.832,36.013,-172.447
 15:27:17.210,eb:33:2e:f9:57:b5, 2085-97-206 06:243:247:-1290,0.907,-1.287,-0.227,-176.27,160.522,59.937,78.646,35.986,-170.398
 15:27:17.210,eb:33:2e:f9:57:b5, 2085-97-212 06:55:252:-2781,1.209,-0.663,-1.05,-283.63,142.578,92.102,77.47,35.541,-168.349
 15:27:17.210,eb:33:2e:f9:57:b5, 2085-97-53 10:113:253:-1968,1.336,-0.408,-1.061,-376.526,85.144,87.036,74.971,34.969,-166.794
 15:27:17.210,eb:33:2e:f9:57:b5, 2085-113-64 00:207:12:000,1.278,-0.597,-0.634,-418.457,6.714,61.707,71.285,34.459,-166.097
 15:27:17.210,eb:33:2e:f9:57:b5, 2085-97-119 12:80:252:-1062,1.372,-0.494,-0.641,-418.274,-43.945,32.837,69.153,34.211,-166.141
 15:27:17.267,eb:33:2e:f9:57:b5, 2085-97-215 09:07:254:-1720,1.219,-0.269,-0.83,-421.021,-124.268,10.925,64.512,33.651,-166.899
 15:27:17.267,eb:33:2e:f9:57:b5, 2085-97-173 09:42:252:-232,1.129,-0.336,-0.503,-420.41,-231.506,-32.227,59.211,32.866,-168.915
 15:27:17.267,eb:33:2e:f9:57:b5, 2085-97-52 08:18:251:929,0.923,-0.546,0.178,-431.824,-282.593,-36.865,53.454,31.679,-171.716
 15:27:17.268,eb:33:2e:f9:57:b5, 2085-97-197 06:235:250:1967,0.808,-0.662,0.73,-449.158,-293.579,-30.212,47.609,30.053,-174.534
 15:27:17.329,eb:33:2e:f9:57:b5, 2085-97-33 06:153:252:2617,0.696,-0.556,1.156,-468.201,-284.18,-22.278,41.786,28.152,-177.034
 15:27:17.329,eb:33:2e:f9:57:b5, 2085-97-37 05:198:253:3040,0.566,-0.318,1.358,-483.215,-289.185,-26.428,36.041,26.054,-179.187
 15:27:17.329,eb:33:2e:f9:57:b5, 2085-97-154 03:247:253:3406,0.329,-0.246,1.59,-487.061,-301.575,-32.41,30.311,23.714,178.786
 15:27:17.329,eb:33:2e:f9:57:b5, 2085-97-177 01:155:253:3847,0.119,-0.286,1.765,-475.586,-319.214,-29.968,24.813,21.077,176.984
 15:27:17.329,eb:33:2e:f9:57:b5, 2085-97-106 00:28:254:4301,0.039,-0.281,1.989,-455.688,-324.097,-12.817,19.649,18.138,175.518
 15:27:17.329,eb:33:2e:f9:57:b5, 2085-97-110 00:02:00:4552,0.065,-0.141,2.191,-432.556,-312.439,10.376,14.958,15.084,174.6
 15:27:17.329,eb:33:2e:f9:57:b5, 2085-97-196 255:104:02:4325,-0.186,0.161,2.206,-410.583,-307.312,21.79,10.618,12.036,174.128
 15:27:17.329,eb:33:2e:f9:57:b5, 2085-97-68 253:235:02:4361,-0.496,0.376,2.068,-396.79,-339.478,24.902,6.559,8.8,173.941
 15:27:17.389,eb:33:2e:f9:57:b5, 2085-97-222 250:14:03:4709,-0.729,0.361,2.201,-397.766,-357.178,52.917,2.582,5.268,174.095
 15:27:17.389,eb:33:2e:f9:57:b5, 2085-97-34 250:240:04:5506,-0.7,0.462,2.465,-402.405,-366.028,96.68,-1.379,1.648,174.897
 15:27:17.389,eb:33:2e:f9:57:b5, 2085-97-61 250:251:08:6348,-0.798,0.845,2.919,-402.588,-352.478,141.968,-5.46,-1.851,176.391
 15:27:17.389,eb:33:2e:f9:57:b5, 2085-97-03 249:255:15:7070,-1.009,1.596,3.301,-375.61,-338.806,153.687,-9.514,-5.037,178.445
 15:27:17.419,eb:33:2e:f9:57:b5, 2085-97-83 246:35:20:7286,-1.424,2.344,3.516,-336.182,-328.796,113.708,-13.326,-8.015,-179.5
 15:27:17.419,eb:33:2e:f9:57:b5, 2085-97-17 243:11:20:8047,-1.76,2.532,3.687,-296.997,-295.288,57.556,-16.754,-10.811,-177.797
 15:27:17.419,eb:33:2e:f9:57:b5, 2085-97-38 241:165:20:8368,-1.833,2.526,4.145,-266.174,-198.73,24.475,-19.808,-13.024,-176.605
 15:27:17.419,eb:33:2e:f9:57:b5, 2085-97-166 242:245:20:6691,-1.405,2.616,3.725,-256.409,-71.472,12.207,-22.56,-14.161,-175.93
 15:27:17.479,eb:33:2e:f9:57:b5, 2085-97-160 245:55:26:4207,-1.127,2.762,2.711,-231.628,37.048,19.714,-25.076,-14.145,-175.754
 15:27:17.479,eb:33:2e:f9:57:b5, 2085-97-180 248:46:33:2579,-0.912,3.855,1.604,-145.63,22.4,-25.391,-26.938,-13.788,-175.886
 15:27:17.479,eb:33:2e:f9:57:b5, 2085-97-196 247:59:33:2538,-1,4.239,1.069,-22.461,-74.585,-97.778,-27.603,-14.332,-176.336
 15:27:17.479,eb:33:2e:f9:57:b5, 2085-97-173 229:165:39:5737,-1.102,-0.379,7.113,210.449,-9.705,-15.93,-26.818,-15.991,-176.907
 15:27:17.537,eb:33:2e:f9:57:b5, 2085-97-138 235:118:32:-4625,-1.684,-0.775,7.643,575.623,372.986,173.34,-22.764,-12.821,-177.198
 15:27:17.537,eb:33:2e:f9:57:b5, 2085-97-82 250:66:12:4587,-0.416,2.947,-0.576,422.119,257.69,49.377,-17.759,-9.41,-177.308
 15:27:17.537,eb:33:2e:f9:57:b5, 2085-97-26 00:251:249:12695,0.274,-0.651,4.545,541.443,190.613,-62.683,-12.964,-7.526,-178.105
 15:27:17.537,eb:33:2e:f9:57:b5, 2085-97-41 251:145:02:5245,-1.482,0.467,3.287,682.8,200.073,-123.962,-6.284,-5.477,-179.39
 15:27:17.539,eb:33:2e:f9:57:b5, 2085-97-153 01:225:47:1048,1.61,-0.299,0.298,486.145,147.705,-65.247,0.027,-3.538,179.225
 15:27:17.539,eb:33:2e:f9:57:b5, 2085-97-128 249:116:231:4224,-3.089,9.135,2.85,-5.554,144.043,-171.753,2.032,-3.516,179.423
 15:27:17.539,eb:33:2e:f9:57:b5, 2085-97-104 231:93:09:-3035,-0.564,-1.754,-1.309,97.534,280.762,148.743,2.258,0.516,-179.138
 15:27:17.539,eb:33:2e:f9:57:b5, 2085-97-235 12:141:255:4018,1.077,0.315,0.74,51.636,-127.258,-97.9,2.955,0.005,-179.967
 15:27:17.565,eb:33:2e:f9:57:b5, 2085-97-156 251:102:03:1068,-1.013,0.146,1.712,53.04,141.968,2.686,3.499,0.269,179.572
 15:27:17.565,eb:33:2e:f9:57:b5, 2085-97-140 249:136:254:1713,-0.44,-0.263,0.436,38.574,30.396,-23.376,3.911,1.23,179.506
 15:27:17.565,eb:33:2e:f9:57:b5, 2085-97-70 254:252:01:2115,0.191,0.032,1.037,34.668,9.705,-21.362,4.318,1.362,179.22
 15:27:17.565,eb:33:2e:f9:57:b5, 2085-97-50 03:219:01:2579,0.029,0.319,1.181,16.968,7.751,-29.297,4.559,1.439,179.022
 15:27:17.628,eb:33:2e:f9:57:b5, 2085-97-48 253:166:01:1876,-0.175,-0.029,1.275,9.583,48.889,-9.46,4.669,1.78,178.89
 15:27:17.628,eb:33:2e:f9:57:b5, 2085-97-158 00:178:255:2473,0.167,0.126,0.992,5.554,3.357,-37.903,4.724,2.021,178.66
 15:27:17.628,eb:33:2e:f9:57:b5, 2085-97-79 03:74:03:2236,0.458,0.359,0.931,-3.174,8.911,-41.199,4.785,2.192,178.314
 15:27:17.628,eb:33:2e:f9:57:b5, 2085-97-58 06:223:20:-3745,0.18,0.794,-0.082,-28.381,-12.512,-50.781,4.658,2.335,177.869
 15:27:17.656,eb:33:2e:f9:57:b5, 2085-97-127 250:146:236:7955,-0.59,-1.129,2.386,-127.258,-80.261,-48.462,3.549,1.357,176.622
 15:27:17.656,eb:33:2e:f9:57:b5, 2085-97-37 03:175:237:10462,-0.763,-0.72,4.16,60.425,-105.103,-32.715,3.329,0.818,176.946
 15:27:17.656,eb:33:2e:f9:57:b5, 2085-97-164 252:119:248:4703,-0.019,-1.63,3.61,225.403,-33.752,99.487,4.993,0.253,177.44
 15:27:17.656,eb:33:2e:f9:57:b5, 2085-97-120 00:218:255:1852,0.328,-0.312,1.351,256.531,-83.801,89.478,7.449,-0.396,178.401
 15:27:17.686,eb:33:2e:f9:57:b5, 2085-97-128 04:04:253:5310,0.311,-0.091,1.656,276.428,-126.953,-12.39,10.107,-1.516,178.517
 15:27:17.686,eb:33:2e:f9:57:b5, 2085-97-155 03:10:248:7705,0.763,-0.827,3.341,329.407,-43.335,-41.809,13.14,-2.368,178.017
 15:27:17.686,eb:33:2e:f9:57:b5, 2085-97-169 03:106:248:5632,0.706,-1.173,3.268,386.414,67.383,-31.128,16.804,-2.043,177.698
 15:27:17.686,eb:33:2e:f9:57:b5, 2085-97-76 05:133:253:5621,0.385,-0.647,2.688,414.795,133.606,-40.955,20.803,-0.879,177.704
 15:27:17.747,eb:33:2e:f9:57:b5, 2085-97-154 01:231:00:4881,0.07,-0.343,2.54,428.406,163.025,-43.274,25.098,0.725,177.951
 15:27:17.747,eb:33:2e:f9:57:b5, 2085-97-222 255:87:254:3082,-0.378,-0.154,2.118,406.006,169.25,-77.271,29.268,2.532,178.11
 15:27:17.749,eb:33:2e:f9:57:b5, 2085-97-94 255:19:04:2456,-0.105,0.083,0.788,324.524,187.866,-69.214,32.953,4.51,178.55
 15:27:17.749,eb:33:2e:f9:57:b5, 2085-97-97 00:50:09:4640,0.299,1.131,1.711,314.636,210.754,-78.43,36.145,6.509,179.16
 15:27:17.776,eb:33:2e:f9:57:b5, 2085-97-85 04:214:10:4849,0.936,1.238,2.421,375.854,253.113,-83.008,39.716,8.888,179.973
 15:27:17.776,eb:33:2e:f9:57:b5, 2085-97-31 04:175:12:549,0.347,1.18,1.892,443.42,268.555,-78.369,44.039,11.514,-178.846
 15:27:17.776,eb:33:2e:f9:57:b5, 2085-97-211 04:95:09:-1900,0.783,1.949,-0.857,365.845,127.502,-153.503,48.384,13.651,-178.297
 15:27:17.776,eb:33:2e:f9:57:b5, 2085-97-140 07:130:09:391,0.822,1.139,-0.684,238.037,101.868,-121.948,51.312,15.408,-178.325
 15:27:17.808,eb:33:2e:f9:57:b5, 2085-97-99 06:114:05:4858,0.588,0.916,1.345,190.247,66.467,-176.086,53.267,17.139,-178.588
 15:27:17.808,eb:33:2e:f9:57:b5, 2085-97-23 04:07:02:5417,0.598,0.446,2.673,221.375,22.766,-240.234,55.014,19.116,-179.5
 15:27:17.808,eb:33:2e:f9:57:b5, 2085-97-249 04:186:253:4988,0.537,-0.036,2.553,247.559,-18.433,-281.799,56.849,21.297,178.819
 15:27:17.808,eb:33:2e:f9:57:b5, 2085-97-136 03:244:251:4861,0.348,-0.416,2.355,235.168,-13,-285.156,58.596,23.588,177.012
 15:27:17.865,eb:33:2e:f9:57:b5, 2085-97-41 02:180:251:5175,0.315,-0.536,2.441,206.97,8.606,-274.963,60.134,25.983,175.375
 15:27:17.865,eb:33:2e:f9:57:b5, 2085-97-172 02:187:250:5984,0.343,-0.573,2.74,180.359,59.082,-255.371,61.523,28.438,174.238
 15:27:17.865,eb:33:2e:f9:57:b5, 2085-97-165 02:12:249:6477,0.37,-0.75,3.077,170.898,114.868,-232.361,63.051,31.014,173.815
 15:27:17.865,eb:33:2e:f9:57:b5, 2085-97-66 03:242:247:6463,0.442,-0.946,3.203,174.927,163.086,-203.735,64.957,33.585,174.172
 15:27:17.897,eb:33:2e:f9:57:b5, 2085-97-243 03:29:247:5987,0.543,-1.057,3.041,174.622,202.637,-171.814,67.324,36.068,175.259
 15:27:17.897,eb:33:2e:f9:57:b5, 2085-97-219 03:176:245:5788,0.389,-1.184,2.86,164.001,234.253,-134.155,70.12,38.304,177.133
 15:27:17.897,eb:33:2e:f9:57:b5, 2085-97-199 02:243:242:5764,0.158,-1.443,2.837,150.391,229.858,-96.191,73.147,40.155,179.484
 15:27:17.897,eb:33:2e:f9:57:b5, 2085-97-190 00:142:239:4171,0.252,-1.848,2.52,130.798,198.975,-48.34,76.157,41.44,-178
 15:27:17.926,eb:33:2e:f9:57:b5, 2085-97-80 04:68:238:2814,0.684,-2.173,1.654,89.355,152.588,15.869,78.629,41.973,-175.891
 15:27:17.926,eb:33:2e:f9:57:b5, 2085-97-76 05:80:238:2358,0.707,-2.243,1.277,32.227,164.734,99.06,80.673,41.688,-173.661
 15:27:17.927,eb:33:2e:f9:57:b5, 2085-97-27 06:48:240:1569,0.915,-2.15,1.029,-19.043,172.058,162.415,82.293,40.644,-171.189
 15:27:17.927,eb:33:2e:f9:57:b5, 2085-97-199 07:106:248:-1420,0.953,-1.653,0.199,-71.777,152.649,215.759,83.364,38.969,-168.739
 15:27:17.987,eb:33:2e:f9:57:b5, 2085-97-107 10:34:01:-4816,1.706,-0.268,-1.809,-170.227,91.614,222.29,83.304,36.881,-166.789
 15:27:17.987,eb:33:2e:f9:57:b5, 2085-97-212 13:239:254:-3371,1.757,0.167,-2.274,-297.852,3.357,175.842,81.381,34.986,-165.883
 15:27:17.987,eb:33:2e:f9:57:b5, 2085-97-44 14:50:254:-968,1.748,-0.259,-0.874,-334.229,-94.849,106.995,77.943,33.541,-166.196
 15:27:17.987,eb:33:2e:f9:57:b5, 2085-97-10 14:243:255:-1306,1.783,-0.1,-0.49,-333.801,-172.668,42.969,73.883,32.465,-167.536
 15:27:18.015,eb:33:2e:f9:57:b5, 2085-97-206 13:98:255:-704,1.611,-0.014,-0.58,-374.39,-229.004,-24.902,69.137,31.745,-169.827
 15:27:18.015,eb:33:2e:f9:57:b5, 2085-97-166 12:166:254:580,1.481,-0.127,-0.058,-438.904,-249.146,-80.688,63.583,31.256,-172.639
 15:27:18.015,eb:33:2e:f9:57:b5, 2085-97-203 10:22:254:1642,1.174,-0.209,0.562,-489.075,-251.038,-130.066,57.261,30.932,-175.792
 15:27:18.015,eb:33:2e:f9:57:b5, 2085-113-58 00:160:231:-9960,1.002,-0.294,1.016,-495.056,-265.747,-172.424,50.554,30.613,-179.231
 15:27:18.045,eb:33:2e:f9:57:b5, 2085-97-221 06:173:252:2589,0.757,-0.356,1.169,-482.666,-280.823,-187.744,47.17,30.372,178.885
 15:27:18.045,eb:33:2e:f9:57:b5, 2085-97-10 05:169:251:2819,0.503,-0.479,1.329,-446.899,-317.932,-202.393,40.529,29.52,174.853
 15:27:18.045,eb:33:2e:f9:57:b5, 2085-97-45 03:246:250:3301,0.305,-0.592,1.471,-414.185,-357.422,-193.726,34.294,27.971,170.766
 15:27:18.045,eb:33:2e:f9:57:b5, 2085-97-241 01:249:250:3929,0.205,-0.647,1.763,-390.808,-377.991,-168.823,28.542,25.697,166.915
 15:27:18.105,eb:33:2e:f9:57:b5, 2085-97-136 01:93:253:4318,0.132,-0.517,1.998,-369.568,-374.329,-140.137,23.428,22.934,163.685
 15:27:18.105,eb:33:2e:f9:57:b5, 2085-97-234 254:151:255:4193,-0.371,-0.16,2.137,-338.806,-377.686,-130.371,18.885,19.88,160.944
 15:27:18.105,eb:33:2e:f9:57:b5, 2085-97-43 251:57:254:4374,-0.8,-0.105,2.077,-313.354,-402.649,-114.685,14.93,16.447,158.582
 15:27:18.105,eb:33:2e:f9:57:b5, 2085-97-94 248:119:253:4559,-1.078,-0.323,2.192,-307.129,-393.982,-66.223,11.365,12.717,156.791
 15:27:18.195,eb:33:2e:f9:57:b5, 2085-97-199 246:250:00:4124,-1.119,-0.16,2.166,-302.429,-374.817,-7.568,8.146,8.992,155.88
 15:27:18.195,eb:33:2e:f9:57:b5, 2085-97-78 247:228:05:3928,-1.097,0.449,1.903,-307.312,-385.376,27.588,5.048,5.213,155.638
 15:27:18.195,eb:33:2e:f9:57:b5, 2085-97-236 246:222:08:5101,-1.233,0.942,2.131,-319.458,-411.987,38.635,1.912,1.198,155.836
 15:27:18.195,eb:33:2e:f9:57:b5, 2085-97-82 244:92:11:6015,-1.741,1.248,2.812,-317.505,-408.142,38.025,-1.329,-2.928,156.27
 15:27:18.197,eb:33:2e:f9:57:b5, 2085-97-03 240:56:15:6764,-2.384,1.704,3.05,-289.795,-401.733,15.686,-4.422,-6.938,156.868
 15:27:18.197,eb:33:2e:f9:57:b5, 2085-97-89 233:125:16:7260,-3.189,2.031,3.429,-253.235,-381.042,-33.508,-7.196,-10.844,157.231
 15:27:18.197,eb:33:2e:f9:57:b5, 2085-97-89 228:179:14:8717,-3.633,1.937,3.887,-210.938,-318.604,-68.054,-9.509,-14.431,157.264
 15:27:18.197,eb:33:2e:f9:57:b5, 2085-97-242 226:138:17:7542,-3.436,1.933,4.194,-169.739,-150.879,-36.987,-11.365,-16.82,157.176
 15:27:18.225,eb:33:2e:f9:57:b5, 2085-97-36 231:185:22:4874,-2.741,2.527,3.029,-144.287,6.653,18.188,-12.947,-17.391,157.28
 15:27:18.225,eb:33:2e:f9:57:b5, 2085-97-99 236:162:24:1964,-4.465,3.014,1.705,-91.553,55.054,53.467,-14.233,-16.853,157.566
 15:27:18.225,eb:33:2e:f9:57:b5, 2085-97-115 233:04:56:1315,-2.372,-0.549,8.914,144.104,227.478,219.604,-14.442,-16.21,158.225
 15:27:18.225,eb:33:2e:f9:57:b5, 2085-97-221 238:126:45:-1902,-2.887,2.493,1.236,396.79,252.686,290.039,-11.997,-13.074,160.428
 15:27:18.285,eb:33:2e:f9:57:b5, 2085-97-153 233:25:49:5724,-1.649,4.916,8.902,547.729,295.288,91.064,-7.954,-10.882,161.62
 15:27:18.285,eb:33:2e:f9:57:b5, 2085-97-120 238:161:226:6085,4.603,1.96,3.031,527.954,247.986,-104.431,-2.104,-7.789,161.093
 15:27:18.285,eb:33:2e:f9:57:b5, 2085-97-195 239:43:15:5384,-4.467,8.811,-0.763,80.322,177.002,-94.482,1.104,-5.273,161.197
 15:27:18.285,eb:33:2e:f9:57:b5, 2085-97-38 228:58:247:-1922,-1.229,-2.471,-0.746,-4.333,349.609,161.987,1.143,-1.412,161.246
 15:27:18.288,eb:33:2e:f9:57:b5, 2085-97-75 05:180:05:3089,0.502,-0.848,0.811,74.097,-77.148,-41.016,1.62,-1.247,161.323
 15:27:18.288,eb:33:2e:f9:57:b5, 2085-97-136 255:26:03:992,-0.786,0.217,0.912,48.096,52.185,12.268,2.241,-1.159,161.142
 15:27:18.288,eb:33:2e:f9:57:b5, 2085-97-79 251:52:02:1426,0.267,0.358,0.35,37.109,41.992,10.925,2.675,-0.549,161.329
 15:27:18.288,eb:33:2e:f9:57:b5, 2085-97-211 00:198:254:3203,-0.611,-0.295,1.597,41.87,1.343,-29.48,3.065,-0.588,161.06
 15:27:18.346,eb:33:2e:f9:57:b5, 2085-97-206 250:04:01:1298,-0.185,0.028,0.865,32.898,34.424,4.028,3.45,-0.17,161.087
 15:27:18.346,eb:33:2e:f9:57:b5, 2085-97-32 02:30:01:2697,0.655,-0.009,0.956,24.17,-10.681,-18.738,3.73,-0.137,160.955
 15:27:18.346,eb:33:2e:f9:57:b5, 2085-97-81 02:136:01:2567,-0.405,0.384,1.482,12.939,30.945,-25.024,3.939,-0.049,160.763
 15:27:18.346,eb:33:2e:f9:57:b5, 2085-97-253 250:128:255:1203,-0.496,0.074,0.679,0,42.053,-9.094,3.988,0.544,160.692
 15:27:18.378,eb:33:2e:f9:57:b5, 2085-97-217 254:192:00:2332,0.375,-0.18,0.942,3.235,-16.052,-12.268,3.999,0.593,160.587
 15:27:18.378,eb:33:2e:f9:57:b5, 2085-97-100 05:67:02:2306,0.611,0.294,1.206,-11.841,-23.56,-24.536,3.983,0.406,160.4
 15:27:18.378,eb:33:2e:f9:57:b5, 2085-97-112 04:27:11:-1204,0.711,0.866,0.524,-31.616,-36.438,-48.096,3.79,0.198,160.109
 15:27:18.378,eb:33:2e:f9:57:b5, 2085-97-140 00:134:245:5667,-1.177,0.331,1.187,-68.481,-82.886,-80.505,3.285,-0.61,159.329
 15:27:18.407,eb:33:2e:f9:57:b5, 2085-97-143 00:95:243:10604,-0.294,-1.354,3.059,17.273,-36.621,40.649,2.884,-0.538,159.626
 15:27:18.407,eb:33:2e:f9:57:b5, 2085-97-87 254:248:250:4617,0.337,-1.84,4.071,175.049,22.766,82.458,3.961,-0.681,159.906
 15:27:18.407,eb:33:2e:f9:57:b5, 2085-97-21 00:114:255:2078,-0.042,-0.321,1.246,230.164,-36.743,106.14,6.015,-0.835,160.779
 15:27:18.407,eb:33:2e:f9:57:b5, 2085-97-133 01:75:251:5119,0.246,-0.384,1.663,243.103,-102.966,31.067,8.383,-1.697,161.285
 15:27:18.465,eb:33:2e:f9:57:b5, 2085-97-01 02:71:250:6932,0.693,-0.8,3.198,294.189,-51.636,8.24,11.036,-2.549,161.367
 15:27:18.465,eb:33:2e:f9:57:b5, 2085-97-67 04:153:249:5044,0.406,-0.819,2.763,377.136,0.793,-41.565,14.513,-2.62,161.087
 15:27:18.465,eb:33:2e:f9:57:b5, 2085-97-10 07:17:249:7206,0.926,-1.041,3.081,394.043,77.148,-47.729,18.386,-2.131,160.708
 15:27:18.465,eb:33:2e:f9:57:b5, 2085-97-61 06:95:01:4386,0.913,-0.331,3.074,430.969,159.851,-28.442,22.593,-0.84,160.862
 15:27:18.495,eb:33:2e:f9:57:b5, 2085-97-244 07:204:04:2013,0.817,0.704,1.636,401.184,166.382,-82.275,26.774,0.901,161.027
 15:27:18.495,eb:33:2e:f9:57:b5, 2085-97-44 04:112:08:232,0.563,1.204,0.38,346.313,138.123,-119.995,30.526,2.719,160.867
 15:27:18.495,eb:33:2e:f9:57:b5, 2085-97-62 01:48:11:3447,0.094,1.151,0.785,312.195,91.492,-165.466,33.712,4.356,160.131
 15:27:18.495,eb:33:2e:f9:57:b5, 2085-97-30 00:181:08:5152,0.059,0.821,2.518,341.431,155.09,-188.904,36.848,6.449,159.186
 15:27:18.555,eb:33:2e:f9:57:b5, 2085-97-32 04:05:05:4875,0.205,1.097,2.43,392.822,240.173,-208.374,40.496,9.278,158.901
 15:27:18.555,eb:33:2e:f9:57:b5, 2085-97-240 00:107:13:-1462,0.482,0.856,0.882,441.589,193.054,-202.393,44.813,12.376,158.989
 15:27:18.555,eb:33:2e:f9:57:b5, 2085-97-138 05:217:06:-1113,0.635,0.995,-1.036,311.34,105.652,-231.934,48.329,15.04,158.291
 15:27:18.555,eb:33:2e:f9:57:b5, 2085-97-63 03:151:01:3616,0.203,0.6,0.539,228.577,79.102,-231.384,50.691,17.347,157.451
 15:27:18.586,eb:33:2e:f9:57:b5, 2085-97-133 00:07:254:5827,0.136,-0.022,2.621,244.873,53.528,-263,52.668,19.666,156.357
 15:27:18.586,eb:33:2e:f9:57:b5, 2085-97-130 01:69:250:5093,0.13,-0.477,2.75,274.963,27.466,-278.87,54.8,22.104,154.88
 15:27:18.586,eb:33:2e:f9:57:b5, 2085-97-233 255:83:249:4139,-0.18,-0.851,2.221,264.771,36.499,-250.549,56.981,24.461,153.528
 15:27:18.586,eb:33:2e:f9:57:b5, 2085-97-117 253:143:249:4190,-0.405,-0.814,1.938,237.671,49.255,-207.397,59.068,26.636,152.567
 15:27:18.616,eb:33:2e:f9:57:b5, 2085-97-155 252:19:249:5411,-0.404,-0.811,2.312,221.252,64.453,-158.386,61.117,28.477,152.106
 15:27:18.616,eb:33:2e:f9:57:b5, 2085-97-104 253:253:247:6493,-0.178,-0.95,2.952,220.886,106.995,-106.628,63.38,30.048,152.238
 15:27:18.616,eb:33:2e:f9:57:b5, 2085-97-191 255:115:248:6385,0.109,-0.984,3.233,222.229,170.044,-55.969,66.138,31.366,153.331
 15:27:18.617,eb:33:2e:f9:57:b5, 2085-113-58 00:38:248:-10485,0.184,-0.899,2.953,209.656,210.022,-26.062,69.28,32.503,155.226
 15:27:18.617,eb:33:2e:f9:57:b5, 2085-97-103 01:222:248:5702,0.155,-0.865,2.828,199.036,217.163,-16.724,70.911,32.975,156.407
 15:27:18.676,eb:33:2e:f9:57:b5, 2085-97-25 01:253:246:5379,0.099,-0.985,2.755,176.453,197.998,-8.972,74.015,33.766,158.708
 15:27:18.676,eb:33:2e:f9:57:b5, 2085-97-249 00:161:244:4216,0.244,-1.289,2.374,146.729,158.63,1.648,76.745,34.277,160.79
 15:27:18.676,eb:33:2e:f9:57:b5, 2085-97-200 02:236:243:2965,0.451,-1.498,1.766,102.722,135.071,25.208,78.898,34.486,162.46
 15:27:18.676,eb:33:2e:f9:57:b5, 2085-97-63 04:208:243:2399,0.558,-1.497,1.237,40.039,140.442,64.331,80.557,34.288,164.229
 15:27:18.706,eb:33:2e:f9:57:b5, 2085-97-166 04:67:244:1653,0.661,-1.533,1.033,-18.921,143.677,96.436,81.617,33.739,166.075
 15:27:18.706,eb:33:2e:f9:57:b5, 2085-97-10 06:07:247:514,0.86,-1.341,0.583,-71.045,123.718,116.089,82.101,32.882,167.882
 15:27:18.706,eb:33:2e:f9:57:b5, 2085-97-127 08:251:250:-1076,1.164,-0.819,-0.202,-124.329,81.604,115.173,81.815,31.888,169.277
 15:27:18.706,eb:33:2e:f9:57:b5, 2085-97-50 10:95:255:-2973,1.34,-0.319,-1.02,-194.214,39.917,112.183,80.678,30.833,170.244
 15:27:18.736,eb:33:2e:f9:57:b5, 2085-97-236 11:187:253:-2500,1.545,-0.08,-1.613,-260.986,-43.884,56.885,78.404,30.02,170.414
 15:27:18.736,eb:33:2e:f9:57:b5, 2085-97-212 11:132:253:-1617,1.453,-0.351,-0.832,-292.908,-129.883,7.996,75.125,29.504,169.475
 15:27:18.736,eb:33:2e:f9:57:b5, 2085-97-164 11:220:252:-1213,1.336,-0.28,-0.837,-320.74,-211.975,-50.781,71.071,29.224,167.481
 15:27:18.736,eb:33:2e:f9:57:b5, 2085-97-43 09:205:250:189,1.009,-0.539,-0.227,-361.572,-257.141,-88.318,66.27,28.993,164.647
 15:27:18.796,eb:33:2e:f9:57:b5, 2085-97-38 07:13:250:1197,0.796,-0.709,0.373,-402.466,-265.198,-110.413,60.875,28.707,161.439
 15:27:18.796,eb:33:2e:f9:57:b5, 2085-97-175 05:133:249:1880,0.644,-0.786,0.771,-435.486,-256.348,-124.084,55.14,28.29,158.258
 15:27:18.796,eb:33:2e:f9:57:b5, 2085-97-251 04:24:250:2133,0.611,-0.795,0.995,-446.838,-255.432,-133.179,49.213,27.724,155.094
 15:27:18.796,eb:33:2e:f9:57:b5, 2085-97-136 04:164:250:2319,0.536,-0.684,1.075,-435.425,-288.147,-145.325,43.319,26.812,151.864
 15:27:18.826,eb:33:2e:f9:57:b5, 2085-97-226 03:12:250:3007,0.43,-0.686,1.286,-413.147,-336.548,-154.968,37.524,25.356,148.332
 15:27:18.826,eb:33:2e:f9:57:b5, 2085-97-248 02:15:249:3703,0.313,-0.822,1.655,-392.7,-367.31,-150.452,32.064,23.264,144.8
 15:27:18.826,eb:33:2e:f9:57:b5, 2085-97-05 02:32:250:4129,0.186,-0.84,1.925,-378.052,-373.901,-135.681,26.977,20.682,141.531
 15:27:18.826,eb:33:2e:f9:57:b5, 2085-97-204 00:212:252:4451,-0.046,-0.578,2.101,-363.892,-375.366,-125.977,22.352,17.781,138.719
 15:27:18.857,eb:33:2e:f9:57:b5, 2085-97-37 254:71:254:4353,-0.411,-0.253,2.167,-348.328,-390.991,-131.897,18.062,14.606,136.143
 15:27:18.857,eb:33:2e:f9:57:b5, 2085-97-48 251:162:252:4387,-0.812,-0.287,2.115,-350.037,-421.265,-130.31,14.068,11.008,133.764
 15:27:18.857,eb:33:2e:f9:57:b5, 2085-97-61 248:172:251:4799,-1.115,-0.521,2.199,-368.103,-418.701,-94.299,10.129,7.086,131.814
 15:27:18.857,eb:33:2e:f9:57:b5, 2085-97-78 246:52:254:5408,-1.254,-0.441,2.491,-373.962,-400.208,-44.312,6.301,3.115,130.655
 15:27:18.976,eb:33:2e:f9:57:b5, 2085-97-14 246:66:03:5998,-1.267,0.066,2.796,-363.342,-376.404,-4.578,2.554,-0.736,130.215
 15:27:18.976,eb:33:2e:f9:57:b5, 2085-97-20 245:44:10:6135,-1.484,0.808,2.954,-339.661,-359.68,11.292,-0.961,-4.378,130.325
 15:27:18.976,eb:33:2e:f9:57:b5, 2085-97-232 242:155:15:6617,-1.871,1.713,3.106,-309.509,-371.033,-24.719,-4.252,-8.026,130.523
 15:27:18.976,eb:33:2e:f9:57:b5, 2085-97-152 238:159:16:7165,-2.545,2.059,3.359,-285.522,-365.417,-80.017,-7.185,-11.777,130.435
 15:27:19.005,eb:33:2e:f9:57:b5, 2085-97-214 232:204:15:7844,-3.159,2.042,3.655,-260.559,-325.134,-113.77,-9.838,-15.353,129.996
 15:27:19.005,eb:33:2e:f9:57:b5, 2085-97-123 229:244:16:8214,-3.286,1.974,3.997,-219.238,-228.882,-103.271,-12.063,-18.314,129.479
 15:27:19.005,eb:33:2e:f9:57:b5, 2085-97-199 230:233:20:6257,-2.938,2.373,3.683,-172.058,-74.158,-50.537,-13.881,-19.874,129.073
 15:27:19.005,eb:33:2e:f9:57:b5, 2085-97-125 234:90:22:3213,-2.391,2.749,2.31,-123.657,12.329,1.038,-15.293,-20.094,128.952
 15:27:19.007,eb:33:2e:f9:57:b5, 2085-97-75 239:35:09:8762,-1.904,2.88,0.703,-43.579,-29.48,45.654,-16.243,-19.973,129.216
 15:27:19.007,eb:33:2e:f9:57:b5, 2085-97-98 244:206:03:12480,-2.643,3.53,0.764,214.233,275.085,327.515,-15.941,-18.644,130.825
 15:27:19.007,eb:33:2e:f9:57:b5, 2085-97-205 248:185:49:1306,-0.918,5.215,-1.321,400.513,190.613,178.406,-12.486,-16.002,131.951
 15:27:19.007,eb:33:2e:f9:57:b5, 2085-97-83 247:208:05:14135,-1.267,2.267,6.087,383.728,303.711,-1.038,-8.937,-14.216,132.078
 15:27:19.037,eb:33:2e:f9:57:b5, 2085-97-157 244:255:00:3863,-0.437,0.146,2.816,492.31,505.188,-31.372,-4.18,-9.042,131.336
 15:27:19.037,eb:33:2e:f9:57:b5, 2085-97-181 08:84:41:5527,-1.87,0.767,0.689,314.819,80.139,-8.667,0.176,-6.235,130.847
 15:27:19.037,eb:33:2e:f9:57:b5, 2085-97-149 231:135:245:-2007,-2.26,2.152,1.558,32.654,364.929,36.682,1.483,-3.911,130.825
 15:27:19.037,eb:33:2e:f9:57:b5, 2085-97-132 252:217:02:1624,0.542,-0.965,-0.789,72.693,47.485,7.69,1.873,-1.631,131.583
 15:27:19.126,eb:33:2e:f9:57:b5, 2085-97-155 252:228:00:1058,-0.596,0.677,1.655,47.058,102.539,6.531,2.51,-1.252,131.402
 15:27:19.126,eb:33:2e:f9:57:b5, 2085-97-193 252:16:01:1691,-0.391,0.096,0.519,40.405,72.144,1.648,2.889,-0.335,131.688
 15:27:19.126,eb:33:2e:f9:57:b5, 2085-97-233 254:02:254:2465,0.055,0.137,0.789,34.79,40.039,-14.771,3.263,0.346,131.704
 15:27:19.126,eb:33:2e:f9:57:b5, 2085-97-36 254:33:00:2104,-0.501,-0.099,1.332,37.781,55.603,-5.554,3.653,0.753,131.567
 15:27:19.156,eb:33:2e:f9:57:b5, 2085-97-223 253:182:00:1794,0.218,0.101,0.688,28.564,33.508,-9.949,3.977,1.318,131.589
 15:27:19.156,eb:33:2e:f9:57:b5, 2085-97-208 02:54:02:2745,-0.096,0.234,1.251,20.264,33.691,-25.146,4.219,1.593,131.44
 15:27:19.156,eb:33:2e:f9:57:b5, 2085-97-136 252:29:00:1657,-0.462,0.147,1.005,5.859,64.88,-13.55,4.334,2.225,131.287
 15:27:19.156,eb:33:2e:f9:57:b5, 2085-97-202 252:15:255:2022,-0.095,-0.032,0.814,0.549,29.968,-21.606,4.351,2.692,131.155
 15:27:19.156,eb:33:2e:f9:57:b5, 2085-97-144 01:237:00:2580,0.265,0.034,1.123,0.244,11.902,-26.184,4.34,2.939,130.924
 15:27:19.156,eb:33:2e:f9:57:b5, 2085-97-236 02:174:06:571,0.271,0.071,1.157,-1.221,12.268,-21.057,4.318,3.043,130.704
 15:27:19.156,eb:33:2e:f9:57:b5, 2085-97-10 04:104:10:-419,0.109,0.582,0.493,-20.325,-51.147,-72.021,4.208,2.862,130.128
 15:27:19.156,eb:33:2e:f9:57:b5, 2085-97-01 255:40:246:4701,-1.105,-0.328,1.58,-59.143,-94.604,-74.463,3.746,1.868,129.177
 15:27:19.246,eb:33:2e:f9:57:b5, 2085-97-19 253:10:242:8907,-0.462,-0.918,2.257,-14.893,-51.697,52.124,3.334,1.664,129.49
 15:27:19.246,eb:33:2e:f9:57:b5, 2085-97-94 253:101:247:6123,0.057,-2.015,4.436,145.874,-21.973,107.239,4.026,1.176,130.193
 15:27:19.246,eb:33:2e:f9:57:b5, 2085-97-194 01:167:255:2788,0.232,-0.26,1.7,227.966,-65.308,84.656,6.01,0.769,131.166
 15:27:19.246,eb:33:2e:f9:57:b5, 2085-97-09 01:244:251:4763,0.242,-0.342,1.737,250.671,-131.104,20.813,8.427,-0.368,131.528
 15:27:19.248,eb:33:2e:f9:57:b5, 2085-97-197 03:195:251:6539,0.811,-0.565,2.862,287.17,-96.924,-14.404,11.107,-1.494,131.331
 15:27:19.248,eb:33:2e:f9:57:b5, 2085-97-233 07:142:247:7898,1.034,-0.818,3.516,351.379,-29.785,-54.138,14.343,-2.049,130.869
 15:27:19.248,eb:33:2e:f9:57:b5, 2085-97-86 12:216:252:5803,1.051,-0.724,3.686,403.625,90.027,-55.908,18.127,-1.5,130.408
 15:27:19.248,eb:33:2e:f9:57:b5, 2085-97-08 06:79:03:3701,0.547,0.383,1.931,429.871,105.042,-97.229,22.418,-0.286,130.221
 15:27:19.275,eb:33:2e:f9:57:b5, 2085-97-175 02:128:03:2445,0.284,0.233,1.556,394.592,94.177,-128.052,26.543,1.143,129.457
 15:27:19.275,eb:33:2e:f9:57:b5, 2085-97-53 02:211:06:2566,0.021,0.278,1.062,330.872,122.925,-131.409,30.097,2.719,128.82
 15:27:19.275,eb:33:2e:f9:57:b5, 2085-97-82 255:246:01:5104,-0.22,0.643,1.917,311.707,162.781,-164.612,33.201,4.746,128.216
 15:27:19.275,eb:33:2e:f9:57:b5, 2085-97-213 255:56:01:5563,0.224,0.463,2.594,353.821,246.887,-116.76,36.541,7.207,128.331
 15:27:19.305,eb:33:2e:f9:57:b5, 2085-97-56 01:72:08:598,0.307,-0.237,2.443,423.95,316.101,-25.635,40.611,10.009,129.496
 15:27:19.305,eb:33:2e:f9:57:b5, 2085-97-89 04:168:07:-2099,0.677,1.747,-1.148,362.427,150.635,-131.958,44.89,12.239,130.605
 15:27:19.305,eb:33:2e:f9:57:b5, 2085-97-11 06:116:06:929,0.501,1.015,-0.509,241.028,88.623,-119.995,47.807,13.876,130.474
 15:27:19.305,eb:33:2e:f9:57:b5, 2085-97-147 02:188:255:4867,0.209,0.258,1.779,213.867,70.801,-166.26,49.861,15.441,130.144
 15:27:19.336,eb:33:2e:f9:57:b5, 2085-97-198 01:156:252:5100,0.159,-0.224,2.56,255.676,39.185,-217.163,51.971,17.325,129.265
 15:27:19.336,eb:33:2e:f9:57:b5, 2085-97-54 00:04:249:4360,-0.076,-0.7,2.261,265.991,19.348,-233.765,54.234,19.308,128.051
 15:27:19.336,eb:33:2e:f9:57:b5, 2085-113-81 00:129:196:-2033,-0.194,-0.935,2.185,249.939,30.273,-215.454,56.387,21.297,126.821
 15:27:19.336,eb:33:2e:f9:57:b5, 2085-97-202 253:90:247:5366,-0.32,-0.998,2.376,239.624,49.255,-198.73,57.448,22.264,126.387
 15:27:19.396,eb:33:2e:f9:57:b5, 2085-97-133 253:153:246:5876,-0.219,-1.144,2.8,220.581,116.699,-153.198,59.645,24.186,126.183
 15:27:19.396,eb:33:2e:f9:57:b5, 2085-97-72 255:63:247:5844,0.062,-1.158,2.887,207.336,202.576,-102.722,62.117,26.109,127.04
 15:27:19.396,eb:33:2e:f9:57:b5, 2085-97-180 01:185:248:5609,0.359,-0.991,2.815,198.914,253.906,-72.327,64.99,27.922,128.985
 15:27:19.396,eb:33:2e:f9:57:b5, 2085-97-06 04:230:249:4900,0.607,-0.838,2.591,189.209,267.09,-64.636,68.044,29.636,131.38
 15:27:19.425,eb:33:2e:f9:57:b5, 2085-97-196 04:62:250:4241,0.486,-0.708,2.205,171.692,245.239,-72.754,71.087,31.207,133.912
 15:27:19.425,eb:33:2e:f9:57:b5, 2085-97-63 02:139:247:4186,0.093,-0.843,2.054,150.33,187.073,-85.205,73.746,32.673,135.983
 15:27:19.425,eb:33:2e:f9:57:b5, 2085-97-57 00:36:242:4001,0.082,-1.327,1.974,123.901,114.685,-88.989,75.861,33.92,137.422
 15:27:19.425,eb:33:2e:f9:57:b5, 2085-97-239 00:145:239:3475,0.174,-2.024,1.901,91.797,80.322,-56.58,77.349,34.915,138.203
 15:27:19.455,eb:33:2e:f9:57:b5, 2085-97-191 01:135:239:2801,0.294,-2.03,1.52,41.321,101.807,12.085,78.569,35.299,139.257
 15:27:19.455,eb:33:2e:f9:57:b5, 2085-97-177 02:105:240:1787,0.42,-2.05,1.193,-11.169,127.869,76.843,79.503,35.096,140.74
 15:27:19.455,eb:33:2e:f9:57:b5, 2085-97-187 03:119:247:-759,0.622,-1.599,0.356,-65.125,129.395,137.634,80.123,34.25,142.592
 15:27:19.455,eb:33:2e:f9:57:b5, 2085-97-103 08:55:255:-3121,1.248,-0.53,-1.136,-150.574,83.984,159.546,79.871,32.959,144.196
 15:27:19.515,eb:33:2e:f9:57:b5, 2085-97-232 10:44:00:-2845,1.557,0.172,-1.752,-257.385,20.142,129.639,78.272,31.602,145.228
 15:27:19.515,eb:33:2e:f9:57:b5, 2085-97-63 13:252:255:-1042,1.629,-0.071,-0.706,-297.302,-83.435,56.702,75.295,30.641,145.031
 15:27:19.515,eb:33:2e:f9:57:b5, 2085-97-05 13:214:00:-1471,1.581,0.118,-0.641,-306.091,-163.086,-15.137,71.62,30.07,143.751
 15:27:19.515,eb:33:2e:f9:57:b5, 2085-97-181 11:153:254:-474,1.291,-0.031,-0.543,-338.501,-225.098,-85.388,67.181,29.883,141.339
 15:27:19.548,eb:33:2e:f9:57:b5, 2085-97-97 09:177:252:450,1.066,-0.302,0.013,-383.118,-245.911,-133.423,62.067,29.844,138.351
 15:27:19.548,eb:33:2e:f9:57:b5, 2085-97-93 07:105:251:1092,0.801,-0.51,0.391,-419.434,-252.319,-166.931,56.321,29.861,134.967
 15:27:19.548,eb:33:2e:f9:57:b5, 2085-97-228 05:84:251:1574,0.732,-0.58,0.646,-432.434,-270.325,-192.688,50.251,29.707,131.369
 15:27:19.548,eb:33:2e:f9:57:b5, 2085-97-125 05:117:251:2129,0.595,-0.573,0.918,-425.232,-298.401,-211.853,43.978,29.218,127.365
 15:27:19.575,eb:33:2e:f9:57:b5, 2085-97-161 03:247:251:2608,0.246,-0.506,1.146,-408.325,-331.848,-223.938,37.82,28.207,123.206
 15:27:19.575,eb:33:2e:f9:57:b5, 2085-97-72 00:232:249:3231,-0.191,-0.612,1.436,-388.977,-372.314,-223.694,31.833,26.532,118.861
 15:27:19.575,eb:33:2e:f9:57:b5, 2085-97-182 252:155:247:3625,-0.544,-0.933,1.698,-374.023,-390.747,-188.904,26.329,24.126,114.884
 15:27:19.575,eb:33:2e:f9:57:b5, 2085-97-47 251:141:248:4063,-0.618,-1.055,1.862,-356.628,-390.503,-125.122,21.412,21.132,111.676
 15:27:19.636,eb:33:2e:f9:57:b5, 2085-97-61 251:49:252:4483,-0.523,-0.72,2.094,-328.979,-389.343,-67.444,17.265,17.732,109.501
 15:27:19.636,eb:33:2e:f9:57:b5, 2085-97-38 252:53:00:4786,-0.575,-0.232,2.295,-302.551,-387.329,-41.87,13.667,14.084,107.957
 15:27:19.636,eb:33:2e:f9:57:b5, 2085-97-163 250:37:04:4746,-0.823,0.263,2.296,-293.335,-379.395,-42.847,10.464,10.41,106.842
 15:27:19.636,eb:33:2e:f9:57:b5, 2085-97-150 247:09:06:4931,-1.261,0.681,2.375,-294.373,-381.592,-67.322,7.322,6.718,105.743
 15:27:19.666,eb:33:2e:f9:57:b5, 2085-97-110 244:242:04:5192,-1.608,0.72,2.443,-296.753,-383.057,-93.872,4.274,2.972,104.628
 15:27:19.666,eb:33:2e:f9:57:b5, 2085-97-34 242:207:04:5619,-1.848,0.57,2.623,-297.18,-359.009,-97.046,1.236,-0.714,103.53
 15:27:19.666,eb:33:2e:f9:57:b5, 2085-97-86 239:171:08:5692,-2.294,0.747,2.849,-286.804,-318.848,-97.595,-1.637,-4.098,102.678
 15:27:19.666,eb:33:2e:f9:57:b5, 2085-97-107 236:41:12:5604,-2.616,1.358,2.704,-268.982,-296.082,-123.901,-4.356,-7.218,101.788
 15:27:19.696,eb:33:2e:f9:57:b5, 2085-97-166 233:117:13:5963,-2.89,1.608,2.817,-255.066,-264.832,-151.245,-6.795,-10.168,100.745
 15:27:19.696,eb:33:2e:f9:57:b5, 2085-97-163 232:71:15:6862,-2.898,1.762,3.1,-229.37,-203.491,-159.668,-9.014,-12.728,99.52
 15:27:19.696,eb:33:2e:f9:57:b5, 2085-97-108 233:187:19:6193,-2.708,2.172,3.397,-174.805,-93.445,-140.015,-10.728,-14.442,98.333
 15:27:19.696,eb:33:2e:f9:57:b5, 2085-97-34 235:04:22:3294,-2.542,2.676,2.339,-114.624,-18.433,-119.141,-11.86,-15.139,97.141
 15:27:19.757,eb:33:2e:f9:57:b5, 2085-97-27 236:24:20:1244,-2.445,2.692,1.022,-57.739,-38.025,-94.91,-12.415,-15.601,96.174
 15:27:19.757,eb:33:2e:f9:57:b5, 2085-97-234 237:252:13:1553,-3.701,2.308,0.315,5.066,-110.657,-54.871,-12.519,-16.49,95.609
 15:27:19.757,eb:33:2e:f9:57:b5, 2085-97-92 235:219:17:11303,-2.596,-2.309,5.075,197.205,240.906,367.188,-11.838,-16.65,96.301
 15:27:19.757,eb:33:2e:f9:57:b5, 2085-97-211 253:54:48:-2435,-0.999,3.186,0.532,433.411,259.277,206.36,-8.514,-14.057,97.322
 15:27:19.785,eb:33:2e:f9:57:b5, 2085-97-185 250:106:17:7681,-0.201,0.739,7.54,446.777,379.883,39.856,-4.768,-12.321,97.635
 15:27:19.785,eb:33:2e:f9:57:b5, 2085-97-60 249:48:251:4086,1.764,0.645,3.128,426.086,347.595,-76.904,0.016,-8.036,97.196
 15:27:19.785,eb:33:2e:f9:57:b5, 2085-97-02 232:42:18:2395,-3.701,6.271,1.108,92.346,238.098,11.047,2.686,-5.625,97.657
 15:27:19.785,eb:33:2e:f9:57:b5, 2085-97-12 238:201:249:-1301,-0.205,-1.305,-0.765,1.892,227.6,83.74,2.736,-2.368,98.086
 15:27:19.816,eb:33:2e:f9:57:b5, 2085-97-34 04:195:05:3240,-0.362,-0.419,1.215,53.711,7.446,-12.878,3.148,-2.142,98.174
 15:27:19.816,eb:33:2e:f9:57:b5, 2085-97-33 248:118:00:450,-0.647,0.183,0.773,22.888,98.694,40.894,3.488,-1.307,98.311
 15:27:19.816,eb:33:2e:f9:57:b5, 2085-97-158 00:198:00:2349,0.231,-0.187,0.693,36.743,9.827,-16.174,3.785,-0.917,98.432
 15:27:19.816,eb:33:2e:f9:57:b5, 2085-97-116 00:82:00:2541,-0.077,-0.248,1.431,37.109,37.598,-8.423,4.136,-0.698,98.229
 15:27:19.875,eb:33:2e:f9:57:b5, 2085-97-35 253:120:00:1562,-0.297,0.113,0.95,28.381,48.401,-6.714,4.471,-0.22,98.251
 15:27:19.875,eb:33:2e:f9:57:b5, 2085-97-82 02:184:01:2603,0.391,0.141,0.856,21.973,11.902,-19.653,4.708,0.132,98.163
 15:27:19.875,eb:33:2e:f9:57:b5, 2085-97-18 00:143:00:2156,-0.258,0.201,1.339,7.385,55.786,-13.611,4.85,0.439,98.026
 15:27:19.875,eb:33:2e:f9:57:b5, 2085-97-203 252:184:255:1593,-0.37,0.07,0.828,2.93,38.879,-15.625,4.883,0.989,97.916
 15:27:19.907,eb:33:2e:f9:57:b5, 2085-97-39 255:157:00:2093,0.306,-0.037,0.835,3.906,-0.244,-15.564,4.905,1.176,97.844
 15:27:19.907,eb:33:2e:f9:57:b5, 2085-97-157 03:63:02:2350,0.316,0.268,1.131,-4.395,-6.226,-23.071,4.889,1.148,97.641
 15:27:19.907,eb:33:2e:f9:57:b5, 2085-97-188 03:115:04:1562,0.374,0.371,0.874,-9.399,-7.019,-30.701,4.796,1.165,97.443
 15:27:19.907,eb:33:2e:f9:57:b5, 2085-97-128 04:200:02:1854,-0.283,0.546,0.563,-7.69,-73.059,-63.721,4.647,0.879,96.916
 15:27:19.966,eb:33:2e:f9:57:b5, 2085-97-159 249:39:244:7841,-0.372,-0.847,2.084,-25.269,-13.733,24.109,4.438,0.352,96.581
 15:27:19.966,eb:33:2e:f9:57:b5, 2085-97-238 251:174:244:6632,-0.034,-2.203,4.914,95.703,39.368,90.21,4.724,0.357,97.103
 15:27:19.966,eb:33:2e:f9:57:b5, 2085-97-177 01:108:02:1654,0.059,-0.194,1.346,195.129,-7.935,92.529,6.323,0.571,98.262
 15:27:19.966,eb:33:2e:f9:57:b5, 2085-97-95 255:208:250:4163,-0.029,-0.051,1.183,212.28,-105.896,33.325,8.394,-0.154,98.762
 15:27:19.996,eb:33:2e:f9:57:b5, 2085-97-71 01:213:251:4756,0.365,-0.806,2.486,231.75,-59.631,27.222,10.613,-1.077,98.921
 15:27:19.996,eb:33:2e:f9:57:b5, 2085-97-122 04:02:00:4077,0.732,-0.064,2.083,267.761,-30.518,-2.625,13.096,-1.45,99.009
 15:27:19.996,eb:33:2e:f9:57:b5, 2085-97-32 06:91:250:6329,0.87,-0.334,2.408,304.138,-5.737,-54.749,16.013,-1.609,98.663
 15:27:19.996,eb:33:2e:f9:57:b5, 2085-97-123 08:51:253:6233,1.192,-0.728,3.42,321.411,131.287,-33.936,19.122,-0.813,98.372
 15:27:20.026,eb:33:2e:f9:57:b5, 2085-97-239 07:96:08:2880,1.021,0.259,2.138,337.891,189.453,-34.18,22.451,0.923,98.773
 15:27:20.026,eb:33:2e:f9:57:b5, 2085-97-48 05:75:07:1664,0.689,1.019,1.395,314.209,143.433,-108.704,25.692,2.785,98.613
 15:27:20.026,eb:33:2e:f9:57:b5, 2085-97-213 03:184:09:1572,0.5,1.141,0.513,268.25,98.511,-131.897,28.57,4.384,98.152
 15:27:20.026,eb:33:2e:f9:57:b5, 2085-97-161 02:104:11:5062,0.208,1.516,1.681,263.672,116.089,-180.603,31.075,6.031,97.213
 15:27:20.085,eb:33:2e:f9:57:b5, 2085-97-86 01:226:09:4807,0.215,1.291,2.555,301.27,203.125,-190.308,33.827,8.405,96.504
 15:27:20.085,eb:33:2e:f9:57:b5, 2085-97-15 04:179:06:3881,0.266,1.231,2.22,347.595,262.268,-183.289,37.04,11.459,96.328
 15:27:20.085,eb:33:2e:f9:57:b5, 2085-97-178 02:80:11:-1688,0.465,1.579,0.025,341.003,221.252,-184.387,40.66,14.485,96.647
 15:27:20.085,eb:33:2e:f9:57:b5, 2085-97-137 02:92:03:2731,-0.031,0.623,0.042,272.4,93.567,-211.914,43.429,17.023,95.933
 15:27:20.116,eb:33:2e:f9:57:b5, 2085-97-17 254:20:252:6200,-0.277,-0.071,2.392,268.372,55.664,-239.624,45.692,19.078,94.768
 15:27:20.116,eb:33:2e:f9:57:b5, 2085-97-166 253:61:247:5966,-0.328,-0.825,3.095,298.645,37.781,-248.718,48.027,21.187,93.246
 15:27:20.116,eb:33:2e:f9:57:b5, 2085-97-44 253:191:244:5590,-0.356,-1.3,2.774,295.044,53.528,-212.463,50.537,23.203,91.994
 15:27:20.116,eb:33:2e:f9:57:b5, 2085-97-231 252:207:244:6140,-0.411,-1.405,2.813,269.226,111.023,-142.456,53.124,25.098,91.467
 15:27:20.146,eb:33:2e:f9:57:b5, 2085-97-01 253:227:244:6953,-0.305,-1.397,3.225,256.775,165.894,-74.036,55.981,26.768,92.12
 15:27:20.146,eb:33:2e:f9:57:b5, 2085-97-201 254:33:246:6622,0.068,-1.333,3.371,264.526,219.666,-14.587,59.266,28.191,93.68
 15:27:20.146,eb:33:2e:f9:57:b5, 2085-97-104 02:240:247:6301,0.408,-1.107,3.127,275.085,243.958,10.986,63.089,29.328,96.097
 15:27:20.146,eb:33:2e:f9:57:b5, 2085-97-92 03:73:248:5944,0.363,-0.956,2.991,273.743,239.441,1.953,67.055,30.333,98.619
 15:27:20.235,eb:33:2e:f9:57:b5, 2085-97-189 01:49:246:5228,0.122,-1.046,2.78,255.798,199.036,-26.428,70.873,31.267,100.992
 15:27:20.235,eb:33:2e:f9:57:b5, 2085-97-24 01:70:242:4394,0.226,-1.491,2.357,220.093,131.287,-52.063,74.042,32.201,102.59
 15:27:20.235,eb:33:2e:f9:57:b5, 2085-113-58 00:147:03:-8370,0.237,-1.816,1.918,165.955,109.802,-30.273,76.564,32.932,103.788
 15:27:20.235,eb:33:2e:f9:57:b5, 2085-97-42 02:126:241:3182,0.34,-1.803,1.635,128.296,118.103,-6.042,77.563,33.173,104.37
 15:27:20.235,eb:33:2e:f9:57:b5, 2085-97-07 03:130:240:2599,0.433,-1.881,1.455,70.312,147.339,36.072,79.376,33.283,106.046
 15:27:20.237,eb:33:2e:f9:57:b5, 2085-97-14 04:89:242:1269,0.666,-1.881,0.986,28.137,161.499,73.242,80.832,33.041,107.946
 15:27:20.237,eb:33:2e:f9:57:b5, 2085-97-29 07:210:246:-481,1.058,-1.5,0.256,-8.24,141.785,98.389,81.953,32.426,109.984
 15:27:20.237,eb:33:2e:f9:57:b5, 2085-97-116 09:119:254:-3641,1.386,-0.724,-0.918,-66.284,104.98,112.061,82.37,31.597,111.544
 15:27:20.237,eb:33:2e:f9:57:b5, 2085-97-205 11:241:00:-4919,1.566,0.206,-2.376,-170.715,24.963,78.003,81.617,30.685,112.522
 15:27:20.297,eb:33:2e:f9:57:b5, 2085-97-23 13:09:253:-2110,1.536,-0.252,-1.659,-242.554,-92.712,11.292,79.211,30.251,112.099
 15:27:20.297,eb:33:2e:f9:57:b5, 2085-97-19 12:88:253:-2265,1.495,-0.35,-1.004,-275.391,-168.274,-38.513,75.828,30.081,110.616
 15:27:20.297,eb:33:2e:f9:57:b5, 2085-97-31 11:198:251:-943,1.239,-0.414,-0.878,-316.589,-238.281,-84.839,71.548,30.114,108.045
 15:27:20.297,eb:33:2e:f9:57:b5, 2085-97-252 08:212:250:129,1.061,-0.615,-0.113,-353.394,-261.536,-111.084,66.61,30.097,104.958
 15:27:20.326,eb:33:2e:f9:57:b5, 2085-97-205 07:28:251:507,0.891,-0.638,0.155,-380.005,-269.165,-128.906,61.21,29.993,101.569
 15:27:20.326,eb:33:2e:f9:57:b5, 2085-97-187 06:66:251:1247,0.801,-0.592,0.413,-388.672,-290.466,-147.644,55.591,29.663,98.058
 15:27:20.326,eb:33:2e:f9:57:b5, 2085-97-07 06:142:251:1716,0.734,-0.579,0.75,-379.761,-311.768,-162.72,49.839,29.031,94.213
 15:27:20.326,eb:33:2e:f9:57:b5, 2085-97-192 05:38:252:2173,0.665,-0.521,0.94,-367.859,-336.975,-174.866,44.231,27.999,90.28
 15:27:20.355,eb:33:2e:f9:57:b5, 2085-97-166 04:245:252:2639,0.443,-0.435,1.172,-357.849,-362.244,-187.866,38.694,26.516,86.149
 15:27:20.355,eb:33:2e:f9:57:b5, 2085-97-49 02:36:253:3106,0.082,-0.351,1.402,-344.971,-392.395,-201.294,33.409,24.549,82.04
 15:27:20.355,eb:33:2e:f9:57:b5, 2085-97-48 255:54:252:3600,-0.309,-0.404,1.63,-331.848,-413.757,-202.271,28.378,22.044,77.904
 15:27:20.355,eb:33:2e:f9:57:b5, 2085-97-182 251:134:250:3958,-0.671,-0.566,1.86,-320.374,-416.87,-183.533,23.829,19.105,74.213
 15:27:20.476,eb:33:2e:f9:57:b5, 2085-97-219 249:117:249:4121,-0.858,-0.768,1.976,-318.176,-403.015,-134.888,19.688,15.82,71.109
 15:27:20.476,eb:33:2e:f9:57:b5, 2085-97-217 248:168:250:4194,-0.888,-0.792,2.024,-320.557,-379.517,-68.604,15.974,12.387,69.033
 15:27:20.476,eb:33:2e:f9:57:b5, 2085-97-70 249:110:254:4317,-0.774,-0.464,2.077,-316.04,-367.554,-5.615,12.513,8.833,67.819
 15:27:20.476,eb:33:2e:f9:57:b5, 2085-97-152 250:253:03:4570,-0.601,0.129,2.153,-302.49,-370.056,35.156,9.366,5.175,67.429
 15:27:20.476,eb:33:2e:f9:57:b5, 2085-97-46 251:135:09:4829,-0.708,0.846,2.303,-286.987,-375.61,40.588,6.367,1.401,67.368
 15:27:20.476,eb:33:2e:f9:57:b5, 2085-97-203 248:131:14:5511,-1.208,1.551,2.437,-270.142,-393.738,5.798,3.593,-2.439,67.418
 15:27:20.476,eb:33:2e:f9:57:b5, 2085-97-28 243:20:16:6595,-2.091,1.961,3.006,-249.329,-396.545,-64.453,0.989,-6.438,66.995
 15:27:20.477,eb:33:2e:f9:57:b5, 2085-97-99 235:07:15:7138,-3.013,1.968,3.369,-223.511,-354.187,-119.873,-1.214,-10.228,66.138
 15:27:20.479,eb:33:2e:f9:57:b5, 2085-97-87 229:189:12:7163,-3.427,1.737,3.532,-198.12,-271.912,-134.705,-3.098,-13.425,64.957
 15:27:20.479,eb:33:2e:f9:57:b5, 2085-97-76 229:204:11:6681,-3.134,1.453,3.422,-179.993,-140.808,-96.191,-4.702,-15.557,63.979
 15:27:20.479,eb:33:2e:f9:57:b5, 2085-97-124 233:80:16:5426,-2.422,1.699,3.005,-165.466,6.042,-23.254,-6.323,-16.199,63.468
 15:27:20.479,eb:33:2e:f9:57:b5, 2085-97-223 239:112:21:3430,-1.689,2.4,2.194,-123.901,93.262,30.762,-7.789,-15.579,63.55
 15:27:20.507,eb:33:2e:f9:57:b5, 2085-97-38 244:124:24:1250,-1.364,2.872,1.13,-37.537,80.139,49.316,-8.696,-14.568,63.847
 15:27:20.507,eb:33:2e:f9:57:b5, 2085-97-211 225:117:04:16087,-3.516,3.153,0.251,67.505,-41.809,21.24,-8.586,-14.31,64.27
 15:27:20.507,eb:33:2e:f9:57:b5, 2085-97-165 232:98:247:9179,-2.757,4.564,2.125,262.756,392.273,105.835,-7.245,-12.475,65.209
 15:27:20.507,eb:33:2e:f9:57:b5, 2085-97-207 222:14:04:7464,-1.697,2.662,0.52,402.527,270.386,97.229,-3.653,-8.828,66.517
 15:27:20.565,eb:33:2e:f9:57:b5, 2085-97-243 249:81:05:7487,3.944,5.217,-0.209,433.655,191.406,-140.564,1.011,-5.504,66.687
 15:27:20.565,eb:33:2e:f9:57:b5, 2085-97-26 240:151:252:530,-5.323,6.05,4.01,4.395,394.409,-102.905,3.246,-3.593,66.198
 15:27:20.565,eb:33:2e:f9:57:b5, 2085-97-188 231:44:01:-3582,0.479,-2.446,-2.499,15.381,257.141,153.809,3.021,1.022,67.181
 15:27:20.565,eb:33:2e:f9:57:b5, 2085-97-13 06:201:02:3788,0.039,-0.321,2.214,48.584,2.441,-31.433,3.422,0.604,66.896
 15:27:20.596,eb:33:2e:f9:57:b5, 2085-97-70 249:225:255:803,-1.296,0.066,0.89,31.799,93.872,11.902,3.752,1.412,66.951
 15:27:20.596,eb:33:2e:f9:57:b5, 2085-97-77 252:39:00:1842,0.092,0.104,0.032,31.555,13.428,-10.803,4.081,2.109,67.176
 15:27:20.596,eb:33:2e:f9:57:b5, 2085-97-36 254:03:00:2388,-0.379,0.035,1.467,24.902,23.071,1.282,4.351,2.142,67.011
 15:27:20.596,eb:33:2e:f9:57:b5, 2085-97-25 255:203:255:2393,-0.021,-0.078,0.988,21.301,12.146,-4.883,4.565,2.368,67.137
 15:27:20.627,eb:33:2e:f9:57:b5, 2085-97-115 254:132:01:2010,-0.329,0.149,1.24,16.907,26.978,-9.827,4.757,2.549,67.006
 15:27:20.627,eb:33:2e:f9:57:b5, 2085-97-23 252:24:255:1673,-0.29,-0.09,0.913,5.432,20.386,-5.859,4.845,2.796,67
 15:27:20.627,eb:33:2e:f9:57:b5, 2085-97-29 01:37:01:2500,0.333,0.036,0.967,0.061,-2.441,-13.062,4.85,2.878,66.907
 15:27:20.627,eb:33:2e:f9:57:b5, 2085-97-108 03:40:00:3019,0.438,0.2,1.264,-1.343,9.827,-15.747,4.818,2.966,66.846
 15:27:20.686,eb:33:2e:f9:57:b5, 2085-97-191 00:31:01:1917,0.413,0.108,1.217,-2.38,27.283,-0.977,4.752,3.23,66.714
 15:27:20.686,eb:33:2e:f9:57:b5, 2085-97-31 04:115:05:1237,0.104,0.728,0.705,12.695,-43.884,-17.7,4.812,3.153,66.709
 15:27:20.686,eb:33:2e:f9:57:b5, 2085-97-233 254:03:253:3716,-0.78,-0.186,0.895,29.419,-104.797,9.705,4.966,2.368,66.456
 15:27:20.686,eb:33:2e:f9:57:b5, 2085-97-222 250:235:234:11060,-0.581,-1.159,3.602,19.226,-52.185,65.674,5.125,1.538,66.813
 15:27:20.716,eb:33:2e:f9:57:b5, 2085-97-171 01:184:00:2204,0.33,-1.302,3.84,166.87,42.542,140.015,6.119,1.692,68.148
 15:27:20.716,eb:33:2e:f9:57:b5, 2085-97-48 01:60:254:3686,-0.087,0.499,0.648,228.271,-112.427,1.221,8.218,1.236,68.813
 15:27:20.716,eb:33:2e:f9:57:b5, 2085-97-231 01:228:250:5495,0.427,-0.663,2.771,255.31,-113.953,-7.019,10.602,0.011,68.527
 15:27:20.716,eb:33:2e:f9:57:b5, 2085-97-44 03:124:253:4142,0.363,-0.344,2.16,313.538,-104.309,-42.236,13.497,-0.95,68.253
 15:27:20.746,eb:33:2e:f9:57:b5, 2085-97-155 02:39:250:6177,0.454,-0.448,2.398,358.032,-83.679,-97.412,16.908,-1.703,67.242
 15:27:20.746,eb:33:2e:f9:57:b5, 2085-97-171 08:82:249:6507,1.084,-1.097,3.396,379.089,35.767,-71.716,20.627,-1.67,66.379
 15:27:20.746,eb:33:2e:f9:57:b5, 2085-97-00 08:51:03:3880,1.189,-0.285,2.467,400.269,125.366,-58.105,24.554,-0.599,66.16
 15:27:20.746,eb:33:2e:f9:57:b5, 2085-97-27 07:17:05:2365,0.922,0.655,1.543,393.921,127.93,-102.722,28.531,0.956,66.039
 15:27:20.806,eb:33:2e:f9:57:b5, 2085-97-183 04:119:06:1524,0.793,0.807,0.768,356.384,104.248,-132.263,32.278,2.56,65.605
 15:27:20.806,eb:33:2e:f9:57:b5, 2085-97-80 04:11:09:2995,0.355,0.918,0.902,313.66,92.773,-167.542,35.535,4.191,64.891
 15:27:20.806,eb:33:2e:f9:57:b5, 2085-97-238 00:16:05:5219,0.036,0.678,2.304,307.8,171.692,-193.726,38.474,6.378,64.017
 15:27:20.806,eb:33:2e:f9:57:b5, 2085-97-59 01:178:03:5399,0.451,0.722,2.493,339.905,263.428,-183.899,41.715,9.272,64.083
 15:27:20.836,eb:33:2e:f9:57:b5, 2085-97-19 03:176:04:2810,0.019,-0.048,3.053,422.852,351.379,-118.286,45.681,12.64,65.001
 15:27:20.836,eb:33:2e:f9:57:b5, 2085-97-158 02:153:09:-2195,0.335,2.326,-0.851,402.1,172.791,-193.42,50.345,15.414,66.264
 15:27:20.836,eb:33:2e:f9:57:b5, 2085-97-58 255:191:02:2337,-0.509,0.42,0.111,321.289,3.967,-202.087,53.608,17.501,65.396
 15:27:20.836,eb:33:2e:f9:57:b5, 2085-113-58 00:199:252:-8025,-0.688,-0.021,2.493,308.716,-56.824,-214.294,56.184,18.984,63.809
 15:27:20.866,eb:33:2e:f9:57:b5, 2085-97-191 249:140:249:9039,-0.829,-0.413,3.831,324.829,-47.241,-213.257,57.491,19.726,62.941
 15:27:20.866,eb:33:2e:f9:57:b5, 2085-97-252 248:50:247:7988,-0.904,-1.039,4.307,354.858,29.053,-165.466,60.502,21.308,61.76
 15:27:20.866,eb:33:2e:f9:57:b5, 2085-97-94 249:204:247:6797,-0.715,-1.109,3.541,349.915,107.361,-96.619,64.056,22.775,61.787
 15:27:20.866,eb:33:2e:f9:57:b5, 2085-97-226 251:205:249:6973,-0.339,-0.921,3.262,321.411,178.833,-42.542,67.83,23.989,62.924
 15:27:20.927,eb:33:2e:f9:57:b5, 2085-97-183 254:87:251:7120,-0.051,-0.664,3.511,292.297,226.318,-32.349,71.691,25.049,64.836
 15:27:20.927,eb:33:2e:f9:57:b5, 2085-97-171 255:190:251:6728,-0.086,-0.541,3.387,276.917,249.451,-56.641,75.493,26.202,67.214
 15:27:20.927,eb:33:2e:f9:57:b5, 2085-97-64 254:63:249:6018,-0.33,-0.619,3.169,264.893,214.111,-98.877,79.255,27.515,69.483
 15:27:20.927,eb:33:2e:f9:57:b5, 2085-97-60 253:58:243:5062,-0.289,-1.189,2.687,230.896,158.569,-126.831,82.513,28.998,71.235
 15:27:20.955,eb:33:2e:f9:57:b5, 2085-97-118 254:197:241:3233,-0.064,-1.799,2.104,174.316,139.038,-108.704,85.259,30.377,72.642
 15:27:20.955,eb:33:2e:f9:57:b5, 2085-97-175 00:236:240:1849,0.231,-1.798,1.134,90.515,164.856,-54.932,87.336,31.328,74.251
 15:27:20.955,eb:33:2e:f9:57:b5, 2085-97-98 02:252:239:1393,0.454,-1.951,0.804,13.367,192.871,18.677,88.885,31.553,76.289
 15:27:20.955,eb:33:2e:f9:57:b5, 2085-97-255 04:62:241:471,0.9,-1.99,0.551,-32.532,192.505,70.679,89.857,31.146,78.508
 15:27:21.016,eb:33:2e:f9:57:b5, 2085-97-212 08:15:246:-1467,1.305,-1.561,-0.216,-69.153,158.997,103.455,90.39,30.267,80.519
 15:27:21.016,eb:33:2e:f9:57:b5, 2085-97-230 12:203:251:-3851,1.809,-0.872,-1.366,-126.221,93.75,115.173,90.06,29.169,81.936
