Time,Device name,Chip Time(),Acceleration X(g),Acceleration Y(g),Acceleration Z(g),Angular velocity X(°/s),Angular velocity Y(°/s),Angular velocity Z(°/s),Angle X(°),Angle Y(°),Angle Z(°)
 15:41:04.677,eb:33:2e:f9:57:b5, 2085-97-216 01:172:255:2017,0.225,-0.04,0.979,0.61,1.099,5.31,-1.879,-12.085,111.341
 15:41:04.677,eb:33:2e:f9:57:b5, 2085-97-201 01:170:255:2006,0.221,-0.039,0.978,0.916,3.967,6.47,-1.884,-12.052,111.385
 15:41:04.677,eb:33:2e:f9:57:b5, 2085-97-187 01:168:255:2005,0.216,-0.044,0.983,1.404,6.409,7.507,-1.89,-11.997,111.522
 15:41:04.677,eb:33:2e:f9:57:b5, 2085-97-185 01:169:255:2009,0.216,-0.041,0.978,1.77,7.874,8.484,-1.884,-11.92,111.588
 15:41:04.706,eb:33:2e:f9:57:b5, 2085-97-190 01:173:255:2006,0.214,-0.042,0.979,2.197,9.583,9.521,-1.884,-11.832,111.742
 15:41:04.706,eb:33:2e:f9:57:b5, 2085-97-182 01:178:255:1999,0.215,-0.041,0.981,2.441,11.536,10.01,-1.879,-11.722,111.824
 15:41:04.707,eb:33:2e:f9:57:b5, 2085-97-185 01:186:255:2003,0.212,-0.036,0.978,2.502,11.902,9.888,-1.873,-11.602,111.984
 15:41:04.707,eb:33:2e:f9:57:b5, 2085-113-58 00:241:225:-2580,0.201,-0.034,0.977,2.319,13.245,9.766,-1.868,-11.47,112.066
 15:41:04.707,eb:33:2e:f9:57:b5, 2085-97-145 01:171:255:2000,0.197,-0.037,0.979,2.258,13.672,9.705,-1.868,-11.404,112.115
 15:41:04.767,eb:33:2e:f9:57:b5, 2085-97-138 01:156:255:2021,0.183,-0.044,0.979,2.625,12.817,9.277,-1.857,-11.266,112.269
 15:41:04.767,eb:33:2e:f9:57:b5, 2085-97-129 01:178:255:2002,0.185,-0.049,0.984,3.54,14.16,10.559,-1.846,-11.124,112.352
 15:41:04.767,eb:33:2e:f9:57:b5, 2085-97-117 01:175:255:2003,0.186,-0.035,0.981,3.54,12.939,9.949,-1.829,-10.986,112.516
 15:41:04.767,eb:33:2e:f9:57:b5, 2085-97-148 01:170:255:2016,0.201,-0.043,0.981,3.967,11.353,9.521,-1.807,-10.865,112.599
 15:41:04.795,eb:33:2e:f9:57:b5, 2085-97-139 01:189:255:2014,0.187,-0.036,0.987,4.15,13.611,9.705,-1.785,-10.739,112.753
 15:41:04.795,eb:33:2e:f9:57:b5, 2085-97-130 01:181:255:2009,0.196,-0.034,0.979,3.967,13.184,8.972,-1.758,-10.602,112.83
 15:41:04.795,eb:33:2e:f9:57:b5, 2085-97-151 01:178:255:2023,0.196,-0.038,0.985,4.211,12.878,7.996,-1.73,-10.47,112.978
 15:41:04.795,eb:33:2e:f9:57:b5, 2085-97-136 01:192:255:2011,0.181,-0.035,0.985,4.395,14.587,7.446,-1.703,-10.327,113.038
 15:41:04.826,eb:33:2e:f9:57:b5, 2085-97-102 01:199:255:2005,0.18,-0.028,0.982,4.15,14.832,7.263,-1.67,-10.179,113.17
 15:41:04.826,eb:33:2e:f9:57:b5, 2085-97-136 01:187:255:2016,0.195,-0.033,0.98,3.967,11.963,5.798,-1.642,-10.047,113.214
 15:41:04.826,eb:33:2e:f9:57:b5, 2085-97-136 01:210:255:2011,0.183,-0.027,0.986,3.906,13.306,5.371,-1.609,-9.915,113.329
 15:41:04.826,eb:33:2e:f9:57:b5, 2085-97-94 01:169:255:2026,0.171,-0.032,0.983,3.601,12.817,3.784,-1.577,-9.783,113.357
 15:41:04.886,eb:33:2e:f9:57:b5, 2085-97-108 01:175:255:2028,0.181,-0.042,0.989,4.639,12.085,2.869,-1.544,-9.657,113.45
 15:41:04.886,eb:33:2e:f9:57:b5, 2085-97-105 01:162:255:2043,0.169,-0.04,0.995,5.554,12.268,1.648,-1.494,-9.542,113.456
 15:41:04.886,eb:33:2e:f9:57:b5, 2085-97-75 01:174:255:2037,0.16,-0.044,0.997,6.958,13.611,0.977,-1.428,-9.41,113.527
 15:41:04.886,eb:33:2e:f9:57:b5, 2085-97-81 01:172:255:2043,0.173,-0.04,0.99,8.057,11.78,-0.488,-1.351,-9.278,113.511
 15:41:04.917,eb:33:2e:f9:57:b5, 2085-97-85 01:191:255:2036,0.154,-0.034,0.994,9.155,11.23,-2.258,-1.263,-9.168,113.555
 15:41:04.917,eb:33:2e:f9:57:b5, 2085-97-70 01:177:255:2035,0.183,-0.032,0.993,9.949,9.888,-3.601,-1.159,-9.058,113.511
 15:41:04.917,eb:33:2e:f9:57:b5, 2085-97-123 01:191:255:2062,0.163,-0.036,1.005,11.719,6.47,-6.042,-1.044,-8.987,113.516
 15:41:04.917,eb:33:2e:f9:57:b5, 2085-97-64 01:188:255:2044,0.17,-0.028,0.994,13.306,7.08,-6.958,-0.906,-8.91,113.434
 15:41:04.976,eb:33:2e:f9:57:b5, 2085-97-115 01:221:255:2062,0.177,-0.027,1.003,14.954,3.479,-8.911,-0.753,-8.866,113.417
 15:41:04.976,eb:33:2e:f9:57:b5, 2085-97-96 01:209:255:2087,0.17,-0.016,0.998,16.052,2.441,-11.292,-0.577,-8.839,113.297
 15:41:04.976,eb:33:2e:f9:57:b5, 2085-97-95 01:220:255:2099,0.184,-0.018,1.008,17.822,0.122,-14.099,-0.39,-8.828,113.225
 15:41:04.976,eb:33:2e:f9:57:b5, 2085-97-142 01:235:255:2122,0.198,-0.01,1.009,19.531,-1.526,-17.578,-0.176,-8.839,113.049
 15:41:05.006,eb:33:2e:f9:57:b5, 2085-97-179 01:229:255:2139,0.22,-0.02,1.053,22.095,-2.014,-21.179,0.066,-8.866,112.906
 15:41:05.006,eb:33:2e:f9:57:b5, 2085-97-152 01:226:255:2246,0.206,-0.003,1.058,25.818,-2.93,-25.513,0.335,-8.888,112.654
 15:41:05.006,eb:33:2e:f9:57:b5, 2085-97-165 01:00:00:2251,0.243,-0.012,1.075,31.494,-5.371,-30.212,0.665,-8.921,112.434
 15:41:05.006,eb:33:2e:f9:57:b5, 2085-97-224 01:42:00:2342,0.195,0,1.098,36.438,-3.174,-32.959,1.055,-8.97,112.083
 15:41:05.036,eb:33:2e:f9:57:b5, 2085-97-96 01:46:00:2166,0.205,0.019,1.081,40.1,4.333,-37.781,1.494,-8.915,111.791
 15:41:05.036,eb:33:2e:f9:57:b5, 2085-97-173 01:239:255:2415,0.244,0.002,1.094,43.152,-4.944,-44.434,1.978,-8.921,111.352
 15:41:05.036,eb:33:2e:f9:57:b5, 2085-97-249 01:242:255:2444,0.268,0.005,1.175,46.997,10.01,-47.302,2.505,-8.877,110.951
 15:41:05.036,eb:33:2e:f9:57:b5, 2085-97-05 02:183:255:2473,0.234,-0.004,1.163,51.819,20.142,-45.044,3.065,-8.685,110.468
 15:41:05.066,eb:33:2e:f9:57:b5, 2085-97-227 01:182:255:2441,0.269,-0.04,1.202,59.814,34.79,-33.203,3.68,-8.388,110.143
 15:41:05.066,eb:33:2e:f9:57:b5, 2085-97-90 02:115:255:2878,0.317,-0.042,1.278,71.716,27.466,-15.747,4.378,-8.064,109.913
 15:41:05.066,eb:33:2e:f9:57:b5, 2085-97-185 02:166:255:2835,0.414,-0.067,1.438,81.97,53.589,2.808,5.153,-7.657,109.951
 15:41:05.066,eb:33:2e:f9:57:b5, 2085-97-46 04:126:00:2837,0.591,0.025,1.37,92.041,56.152,4.333,6.021,-7.097,110.045
 15:41:05.127,eb:33:2e:f9:57:b5, 2085-97-111 04:100:00:2901,0.456,0.055,1.406,97.229,84.167,0.427,6.96,-6.432,110.187
 15:41:05.127,eb:33:2e:f9:57:b5, 2085-97-210 02:86:00:2949,0.32,0.054,1.416,104.736,140.076,6.165,7.954,-5.262,110.358
 15:41:05.127,eb:33:2e:f9:57:b5, 2085-97-17 03:00:00:3223,0.456,0.015,1.491,112.854,143.25,-0.488,9.025,-3.834,110.665
 15:41:05.127,eb:33:2e:f9:57:b5, 2085-97-233 03:115:00:3275,0.485,0,1.635,124.878,162.476,-8.24,10.206,-2.362,110.819
 15:41:05.156,eb:33:2e:f9:57:b5, 2085-97-225 03:244:00:3046,0.518,0.114,1.537,138.062,191.04,-8.423,11.53,-0.549,111.149
 15:41:05.156,eb:33:2e:f9:57:b5, 2085-97-70 04:190:00:3220,0.463,0.127,1.512,145.447,174.622,-26.794,12.958,1.263,111.33
 15:41:05.156,eb:33:2e:f9:57:b5, 2085-97-89 02:96:00:3242,0.2,0.098,1.64,155.518,191.284,-33.264,14.469,3.093,111.5
 15:41:05.156,eb:33:2e:f9:57:b5, 2085-97-26 02:239:255:3215,0.402,0.014,1.504,169.8,162.781,-47.607,16.106,4.96,111.572
 15:41:05.187,eb:33:2e:f9:57:b5, 2085-97-102 04:12:00:3577,0.645,-0.004,1.701,179.199,147.705,-63.721,17.847,6.537,111.489
 15:41:05.187,eb:33:2e:f9:57:b5, 2085-97-132 05:37:02:3371,0.684,0.106,1.722,189.819,176.697,-72.327,19.682,8.295,111.33
 15:41:05.187,eb:33:2e:f9:57:b5, 2085-97-217 04:58:05:3053,0.514,0.43,1.552,197.388,182.007,-90.698,21.594,10.294,111.253
 15:41:05.187,eb:33:2e:f9:57:b5, 2085-97-176 03:84:07:2717,0.432,0.846,1.428,205.322,145.447,-106.14,23.555,12.217,110.929
 15:41:05.247,eb:33:2e:f9:57:b5, 2085-97-166 03:100:09:2458,0.542,1.118,1.224,209.656,67.81,-107.788,25.516,13.601,110.396
 15:41:05.247,eb:33:2e:f9:57:b5, 2085-97-121 05:181:07:3080,0.81,1.17,1.294,178.711,-7.385,-120.728,27.235,14.282,109.391
 15:41:05.247,eb:33:2e:f9:57:b5, 2085-97-04 07:27:02:3524,0.834,0.65,1.72,131.531,40.771,-137.756,28.449,14.941,108.276
 15:41:05.247,eb:33:2e:f9:57:b5, 2085-97-232 05:46:255:2319,0.64,-0.029,1.478,102.356,171.997,-141.235,29.394,16.633,107.518
 15:41:05.276,eb:33:2e:f9:57:b5, 2085-97-199 04:63:252:1460,0.604,-0.228,0.859,75.439,196.045,-140.808,30.19,19.017,107.292
 15:41:05.276,eb:33:2e:f9:57:b5, 2085-97-228 00:201:242:2135,-0.62,-1.244,0.779,60.364,172.974,-126.099,30.723,21.275,106.968
 15:41:05.276,eb:33:2e:f9:57:b5, 2085-97-00 251:242:252:-1564,-0.277,-0.79,0.236,97.534,263.611,38.94,31.954,23.445,107.957
 15:41:05.276,eb:33:2e:f9:57:b5, 2085-113-58 00:95:221:-5835,0.201,-0.491,-0.381,70.007,-66.101,81.299,33.201,23.719,108.995
 15:41:05.306,eb:33:2e:f9:57:b5, 2085-97-09 04:45:250:1308,0.523,-0.682,0.421,61.096,-58.472,108.337,33.613,23.159,109.281
 15:41:05.306,eb:33:2e:f9:57:b5, 2085-97-226 03:130:251:1132,0.509,-0.654,0.561,52.063,5.676,160.034,34.629,22.269,110.451
 15:41:05.306,eb:33:2e:f9:57:b5, 2085-97-120 04:55:252:1304,0.583,-0.515,0.629,51.819,-15.808,173.218,35.678,21.242,111.945
 15:41:05.306,eb:33:2e:f9:57:b5, 2085-97-132 04:15:253:728,0.535,-0.423,0.511,57.068,-2.747,185.303,36.755,20.105,113.417
 15:41:05.367,eb:33:2e:f9:57:b5, 2085-97-59 04:233:253:315,0.525,-0.311,0.228,55.176,-24.841,183.899,37.831,18.891,114.977
 15:41:05.367,eb:33:2e:f9:57:b5, 2085-97-52 04:41:254:298,0.511,-0.238,0.137,42.114,-59.021,168.945,38.683,17.435,116.12
 15:41:05.367,eb:33:2e:f9:57:b5, 2085-97-232 03:59:254:361,0.483,-0.226,0.153,19.653,-78.308,152.771,39.232,15.886,117.026
 15:41:05.367,eb:33:2e:f9:57:b5, 2085-97-193 03:87:254:497,0.453,-0.217,0.201,-8.606,-93.079,132.874,39.419,14.299,117.581
 15:41:05.395,eb:33:2e:f9:57:b5, 2085-97-123 03:130:254:651,0.42,-0.195,0.28,-37.415,-101.013,111.267,39.254,12.783,117.971
 15:41:05.395,eb:33:2e:f9:57:b5, 2085-97-63 03:134:254:794,0.387,-0.181,0.355,-63.538,-110.229,86.975,38.743,11.327,118.059
 15:41:05.395,eb:33:2e:f9:57:b5, 2085-97-249 02:105:254:888,0.352,-0.19,0.415,-86.67,-117.92,62.866,37.952,9.97,117.982
 15:41:05.395,eb:33:2e:f9:57:b5, 2085-97-177 02:49:254:983,0.318,-0.213,0.461,-108.521,-127.319,39.124,36.898,8.674,117.625
 15:41:05.425,eb:33:2e:f9:57:b5, 2085-97-106 02:246:253:1073,0.29,-0.241,0.501,-129.517,-137.207,17.7,35.612,7.443,117.109
 15:41:05.425,eb:33:2e:f9:57:b5, 2085-97-61 02:177:253:1241,0.267,-0.27,0.56,-149.17,-149.231,-0.977,34.107,6.207,116.345
 15:41:05.425,eb:33:2e:f9:57:b5, 2085-97-05 02:101:253:1444,0.236,-0.31,0.658,-166.016,-157.471,-15.381,32.421,4.966,115.472
 15:41:05.425,eb:33:2e:f9:57:b5, 2085-97-210 01:41:253:1645,0.215,-0.342,0.753,-179.81,-164.185,-26.367,30.591,3.686,114.45
 15:41:05.487,eb:33:2e:f9:57:b5, 2085-97-165 01:255:252:1875,0.201,-0.365,0.866,-191.223,-168.884,-33.936,28.669,2.384,113.412
 15:41:05.487,eb:33:2e:f9:57:b5, 2085-97-147 01:212:252:2098,0.19,-0.385,0.967,-197.876,-172.485,-37.109,26.669,1.022,112.313
 15:41:05.487,eb:33:2e:f9:57:b5, 2085-97-107 01:180:252:2270,0.164,-0.405,1.072,-201.904,-172.058,-35.889,24.653,-0.374,111.292
 15:41:05.487,eb:33:2e:f9:57:b5, 2085-97-71 01:162:252:2368,0.163,-0.419,1.133,-205.078,-172.974,-30.518,22.621,-1.835,110.308
 15:41:05.545,eb:33:2e:f9:57:b5, 2085-97-91 01:165:252:2521,0.178,-0.42,1.188,-208.313,-177.307,-21.545,20.588,-3.373,109.479
 15:41:05.545,eb:33:2e:f9:57:b5, 2085-97-149 01:214:252:2742,0.208,-0.401,1.284,-209.961,-182.983,-10.437,18.534,-5.037,108.743
 15:41:05.545,eb:33:2e:f9:57:b5, 2085-97-205 01:12:253:3037,0.242,-0.385,1.417,-208.496,-186.829,2.38,16.496,-6.795,108.21
 15:41:05.545,eb:33:2e:f9:57:b5, 2085-97-23 02:73:253:3370,0.276,-0.353,1.561,-203.064,-188.293,15.686,14.48,-8.652,107.809
 15:41:05.547,eb:33:2e:f9:57:b5, 2085-97-57 02:176:253:3646,0.274,-0.319,1.721,-193.604,-183.044,29.724,12.53,-10.514,107.666
 15:41:05.547,eb:33:2e:f9:57:b5, 2085-97-35 02:109:254:3874,0.253,-0.249,1.832,-182.19,-178.772,42.297,10.64,-12.371,107.672
 15:41:05.547,eb:33:2e:f9:57:b5, 2085-97-202 01:197:255:3916,0.203,-0.127,1.933,-173.218,-172.913,56.458,8.828,-14.194,107.93
 15:41:05.547,eb:33:2e:f9:57:b5, 2085-97-170 01:125:01:3648,0.257,0.08,1.833,-175.049,-176.27,67.139,6.971,-15.991,108.336
 15:41:05.637,eb:33:2e:f9:57:b5, 2085-97-57 02:74:03:3685,0.223,0.307,1.769,-187.988,-195.068,69.824,5.01,-17.93,108.918
 15:41:05.637,eb:33:2e:f9:57:b5, 2085-97-153 00:200:04:4036,0.095,0.496,1.841,-203.43,-200.745,62.439,2.84,-19.968,109.473
 15:41:05.637,eb:33:2e:f9:57:b5, 2085-97-30 00:83:06:4208,-0.071,0.743,1.914,-208.862,-222.9,51.27,0.577,-22.088,110.083
 15:41:05.637,eb:33:2e:f9:57:b5, 2085-97-154 254:48:07:4677,-0.322,0.828,2.187,-203.918,-216.125,53.65,-1.73,-24.335,110.66
 15:41:05.637,eb:33:2e:f9:57:b5, 2085-97-207 252:176:08:4883,-0.467,0.967,2.362,-191.101,-186.707,58.044,-4.026,-26.285,111.462
 15:41:05.637,eb:33:2e:f9:57:b5, 2085-97-232 251:229:10:4949,-0.464,1.166,2.44,-179.565,-150.574,60.974,-6.262,-27.966,112.28
 15:41:05.637,eb:33:2e:f9:57:b5, 2085-97-63 251:57:15:4359,-1.03,1.63,2.241,-173.889,-88.257,42.114,-8.383,-29.02,113.115
 15:41:05.637,eb:33:2e:f9:57:b5, 2085-97-83 243:207:22:3097,-2.188,2.271,1.913,-152.954,61.279,71.594,-10.333,-29.103,113.687
 15:41:05.668,eb:33:2e:f9:57:b5, 2085-97-115 236:109:32:2420,-1.944,3.611,1.013,-111.511,63.049,89.172,-12.019,-27.927,114.593
 15:41:05.668,eb:33:2e:f9:57:b5, 2085-97-03 01:109:29:7997,-0.536,3.924,2.039,-61.584,-100.525,-16.846,-13.107,-28.416,115.016
 15:41:05.668,eb:33:2e:f9:57:b5, 2085-97-63 251:60:16:9938,-0.625,2.774,6.321,89.844,-104.98,-224.426,-12.173,-31.278,114.104
 15:41:05.668,eb:33:2e:f9:57:b5, 2085-97-132 254:253:01:-3695,0.966,1.247,1.438,72.449,377.38,-156.067,-9.998,-28.603,111.55
 15:41:05.726,eb:33:2e:f9:57:b5, 2085-97-93 13:03:253:2170,1.457,-0.402,-1.223,129.639,-512.817,-185.12,-8.163,-30.493,109.715
 15:41:05.726,eb:33:2e:f9:57:b5, 2085-97-145 05:130:252:1945,0.348,-0.62,1.455,81.787,-211.792,-208.618,-6.108,-34.437,107.952
 15:41:05.726,eb:33:2e:f9:57:b5, 2085-97-18 02:14:253:3219,0.151,-0.175,1.084,47.913,-213.318,-186.218,-4.169,-36.535,105.721
 15:41:05.726,eb:33:2e:f9:57:b5, 2085-97-04 06:32:253:3276,0.737,-0.785,1.943,117.188,-73.853,-36.804,-2.626,-38.106,104.31
 15:41:05.756,eb:33:2e:f9:57:b5, 2085-97-231 00:176:00:3234,-0.162,-0.468,1.622,157.898,159.851,37.354,-1.23,-37.628,104.458
 15:41:05.756,eb:33:2e:f9:57:b5, 2085-97-18 255:35:04:4649,0.113,0.37,1.95,150.208,326.416,89.905,-0.115,-35.101,105.2
 15:41:05.756,eb:33:2e:f9:57:b5, 2085-97-06 01:129:06:664,-0.186,0.868,1.432,62.561,523.743,86.548,0.357,-30.619,106.381
 15:41:05.756,eb:33:2e:f9:57:b5, 2085-97-202 255:46:255:372,0.331,0.349,0.012,-20.752,310.364,22.583,0.137,-26.191,106.891
 15:41:05.787,eb:33:2e:f9:57:b5, 2085-97-236 01:152:255:2302,0.171,-0.179,0.623,18.616,66.406,33.386,0.016,-24.719,107.243
 15:41:05.787,eb:33:2e:f9:57:b5, 2085-97-138 02:202:255:1535,0.395,-0.015,1.054,12.512,83.435,27.893,0.06,-23.95,107.589
 15:41:05.787,eb:33:2e:f9:57:b5, 2085-97-24 03:154:00:1744,0.403,-0.018,0.712,20.325,13.672,23.132,0.104,-23.478,107.902
 15:41:05.787,eb:33:2e:f9:57:b5, 2085-97-216 03:108:00:1795,0.514,0.071,0.922,19.653,-2.686,20.691,0.225,-23.505,108.133
 15:41:05.847,eb:33:2e:f9:57:b5, 2085-97-223 03:24:00:1854,0.478,0.024,0.851,17.822,-0.854,18.188,0.319,-23.505,108.397
 15:41:05.847,eb:33:2e:f9:57:b5, 2085-97-215 03:64:00:1894,0.453,0.017,0.936,19.409,9.338,18.799,0.428,-23.472,108.578
 15:41:05.847,eb:33:2e:f9:57:b5, 2085-97-83 03:82:00:1858,0.402,0.052,0.914,16.663,23.315,16.663,0.533,-23.297,108.836
 15:41:05.847,eb:33:2e:f9:57:b5, 2085-97-112 03:76:00:1838,0.417,0.042,0.898,14.465,22.461,14.465,0.626,-23.055,108.995
 15:41:05.877,eb:33:2e:f9:57:b5, 2085-97-22 03:25:00:1924,0.354,0.036,0.92,11.475,24.048,9.888,0.703,-22.83,109.188
 15:41:05.877,eb:33:2e:f9:57:b5, 2085-97-171 02:25:00:1867,0.342,0.008,0.918,10.498,24.414,7.69,0.775,-22.571,109.259
 15:41:05.877,eb:33:2e:f9:57:b5, 2085-97-207 02:37:00:1867,0.375,0.021,0.902,10.01,12.573,4.944,0.851,-22.396,109.391
 15:41:05.877,eb:33:2e:f9:57:b5, 2085-97-57 03:41:00:1894,0.404,0.021,0.917,8.972,6.226,2.38,0.934,-22.308,109.413
 15:41:05.907,eb:33:2e:f9:57:b5, 2085-97-57 03:33:00:1911,0.389,0.017,0.938,8.606,8.728,0.305,1.016,-22.242,109.484
 15:41:05.907,eb:33:2e:f9:57:b5, 2085-97-31 03:26:00:1914,0.378,0.014,0.933,8.667,11.108,-0.916,1.11,-22.132,109.462
 15:41:05.907,eb:33:2e:f9:57:b5, 2085-97-250 02:30:00:1934,0.376,0.006,0.954,9.644,14.709,-0.671,1.203,-22.011,109.512
 15:41:05.907,eb:33:2e:f9:57:b5, 2085-97-252 02:13:00:1983,0.374,0.014,0.94,10.742,15.625,-0.549,1.307,-21.852,109.49
 15:41:05.966,eb:33:2e:f9:57:b5, 2085-97-254 02:39:00:1938,0.369,0.012,0.96,11.902,22.522,0.122,1.423,-21.66,109.55
 15:41:05.967,eb:33:2e:f9:57:b5, 2085-97-00 03:57:00:1926,0.375,0.015,0.952,12.695,27.344,0.977,1.544,-21.407,109.539
 15:41:05.967,eb:33:2e:f9:57:b5, 2085-97-240 02:60:00:1952,0.359,0.021,0.952,13.245,31.494,0.732,1.664,-21.116,109.611
 15:41:05.967,eb:33:2e:f9:57:b5, 2085-97-208 02:62:00:1924,0.35,0.027,0.942,13.123,37.231,0.793,1.791,-20.759,109.611
 15:41:05.996,eb:33:2e:f9:57:b5, 2085-97-173 02:50:00:1977,0.331,0.026,0.953,14.16,38.147,1.16,1.923,-20.391,109.688
 15:41:05.996,eb:33:2e:f9:57:b5, 2085-97-184 02:83:00:1884,0.334,0.032,0.952,14.465,43.579,2.136,2.054,-19.973,109.709
 15:41:05.996,eb:33:2e:f9:57:b5, 2085-97-164 02:68:00:1929,0.324,0.038,0.918,15.076,36.133,1.831,2.192,-19.572,109.797
 15:41:05.996,eb:33:2e:f9:57:b5, 2085-97-152 02:69:00:1932,0.319,0.032,0.96,15.198,36.499,1.709,2.335,-19.215,109.814
 15:41:06.057,eb:33:2e:f9:57:b5, 2085-97-187 02:82:00:1949,0.33,0.04,0.952,15.381,34.851,0.732,2.477,-18.864,109.896
 15:41:06.057,eb:33:2e:f9:57:b5, 2085-97-128 02:49:00:2046,0.337,0.027,0.99,16.663,39.612,0.793,2.631,-18.495,109.902
 15:41:06.057,eb:33:2e:f9:57:b5, 2085-113-81 00:38:72:4590,0.34,0.05,0.962,17.578,42.236,-3.174,2.802,-18.062,109.979
 15:41:06.057,eb:33:2e:f9:57:b5, 2085-97-124 02:54:00:2073,0.318,0.035,0.965,18.86,41.382,-4.639,2.9,-17.858,109.962
 15:41:06.057,eb:33:2e:f9:57:b5, 2085-97-154 02:117:00:2023,0.337,0.048,1.009,20.325,49.255,-8.972,3.115,-17.391,109.907
 15:41:06.087,eb:33:2e:f9:57:b5, 2085-97-148 02:142:00:1965,0.304,0.071,0.952,18.799,51.392,-17.151,3.345,-16.88,109.847
 15:41:06.087,eb:33:2e:f9:57:b5, 2085-97-106 02:135:00:2006,0.286,0.062,0.982,17.456,51.453,-24.597,3.576,-16.353,109.638
 15:41:06.087,eb:33:2e:f9:57:b5, 2085-97-29 02:144:00:1990,0.272,0.06,0.978,16.541,51.27,-30.09,3.818,-15.82,109.435
 15:41:06.087,eb:33:2e:f9:57:b5, 2085-97-20 02:124:00:1985,0.281,0.07,0.942,15.503,44.373,-35.339,4.059,-15.309,109.111
 15:41:06.116,eb:33:2e:f9:57:b5, 2085-97-77 02:169:00:2020,0.278,0.077,0.976,16.113,40.527,-38.147,4.312,-14.875,108.82
 15:41:06.116,eb:33:2e:f9:57:b5, 2085-97-18 02:185:00:1938,0.25,0.085,0.974,14.404,44.678,-42.114,4.559,-14.414,108.413
 15:41:06.116,eb:33:2e:f9:57:b5, 2085-97-204 01:197:00:1908,0.206,0.097,0.915,12.695,38.879,-44.861,4.796,-13.953,108.056
 15:41:06.116,eb:33:2e:f9:57:b5, 2085-97-141 01:170:00:1891,0.208,0.083,0.929,11.414,34.119,-44.617,5.015,-13.552,107.606
 15:41:06.175,eb:33:2e:f9:57:b5, 2085-97-204 01:187:00:1941,0.253,0.097,0.92,11.475,22.034,-43.945,5.229,-13.244,107.238
 15:41:06.175,eb:33:2e:f9:57:b5, 2085-97-33 02:182:00:2064,0.273,0.103,0.969,10.925,14.954,-48.035,5.444,-13.019,106.771
 15:41:06.175,eb:33:2e:f9:57:b5, 2085-97-46 02:191:00:2064,0.275,0.089,1.023,12.329,18.555,-51.697,5.674,-12.816,106.326
 15:41:06.175,eb:33:2e:f9:57:b5, 2085-97-08 02:161:00:2130,0.247,0.097,1.003,13.55,17.456,-56.763,5.922,-12.574,105.776
 15:41:06.237,eb:33:2e:f9:57:b5, 2085-97-13 02:166:00:2126,0.253,0.083,1.052,15.137,19.287,-60.608,6.191,-12.332,105.255
 15:41:06.237,eb:33:2e:f9:57:b5, 2085-97-240 01:164:00:2117,0.213,0.082,1.046,17.639,17.334,-60.669,6.482,-12.09,104.628
 15:41:06.237,eb:33:2e:f9:57:b5, 2085-97-120 01:139:00:2187,0.172,0.06,1.041,22.095,17.883,-55.115,6.795,-11.843,104.117
 15:41:06.237,eb:33:2e:f9:57:b5, 2085-97-86 01:172:00:2046,0.138,0.075,1.037,25.879,16.968,-54.321,7.147,-11.607,103.563
 15:41:06.237,eb:33:2e:f9:57:b5, 2085-97-213 00:110:00:2107,0.08,0.068,1.006,30.212,14.038,-48.34,7.526,-11.393,103.118
 15:41:06.237,eb:33:2e:f9:57:b5, 2085-97-162 00:106:00:2183,0.112,0.038,1.06,35.706,12.573,-40.1,7.943,-11.206,102.673
 15:41:06.237,eb:33:2e:f9:57:b5, 2085-97-43 01:170:00:2151,0.18,0.075,1.045,41.138,6.592,-35.583,8.399,-11.052,102.371
 15:41:06.237,eb:33:2e:f9:57:b5, 2085-97-145 01:177:00:2303,0.204,0.088,1.093,46.936,-2.625,-31.677,8.904,-10.997,102.014
 15:41:06.297,eb:33:2e:f9:57:b5, 2085-97-170 01:200:00:2294,0.209,0.092,1.129,52.551,1.831,-28.992,9.465,-10.953,101.766
 15:41:06.297,eb:33:2e:f9:57:b5, 2085-97-189 01:225:00:2313,0.228,0.102,1.121,58.533,2.075,-28.259,10.074,-10.882,101.464
 15:41:06.297,eb:33:2e:f9:57:b5, 2085-97-250 01:07:01:2323,0.256,0.113,1.14,65.186,2.502,-29.358,10.75,-10.811,101.234
 15:41:06.297,eb:33:2e:f9:57:b5, 2085-97-42 02:51:01:2378,0.291,0.136,1.152,71.777,5.249,-31.006,11.492,-10.717,100.926
 15:41:06.356,eb:33:2e:f9:57:b5, 2085-97-103 02:59:01:2449,0.33,0.139,1.18,78.43,8.484,-34.058,12.305,-10.591,100.662
 15:41:06.356,eb:33:2e:f9:57:b5, 2085-97-162 02:92:01:2443,0.336,0.17,1.176,85.205,9.583,-38.94,13.189,-10.41,100.3
 15:41:06.356,eb:33:2e:f9:57:b5, 2085-97-189 02:122:01:2446,0.322,0.184,1.191,92.529,10.315,-46.021,14.15,-10.212,99.959
 15:41:06.356,eb:33:2e:f9:57:b5, 2085-97-174 02:95:01:2475,0.327,0.174,1.211,100.708,10.132,-56.58,15.205,-9.976,99.448
 15:41:06.359,eb:33:2e:f9:57:b5, 2085-97-191 02:97:01:2527,0.36,0.167,1.247,110.413,10.498,-63.599,16.359,-9.723,98.932
 15:41:06.359,eb:33:2e:f9:57:b5, 2085-97-35 03:78:01:2668,0.395,0.165,1.265,122.192,9.949,-68.97,17.628,-9.437,98.295
 15:41:06.359,eb:33:2e:f9:57:b5, 2085-97-23 03:186:00:2904,0.448,0.122,1.357,136.719,11.353,-71.289,19.023,-9.102,97.696
 15:41:06.359,eb:33:2e:f9:57:b5, 2085-97-100 04:02:01:3109,0.657,0.117,1.45,159.973,3.967,-66.04,20.616,-8.806,97.053
 15:41:06.446,eb:33:2e:f9:57:b5, 2085-97-64 06:105:01:3248,0.896,0.134,1.578,183.044,16.907,-68.298,22.423,-8.481,96.504
 15:41:06.446,eb:33:2e:f9:57:b5, 2085-97-187 07:13:01:3628,0.904,0.201,1.63,210.571,29.419,-77.026,24.478,-7.954,95.9
 15:41:06.446,eb:33:2e:f9:57:b5, 2085-97-212 05:47:254:4713,0.645,-0.002,2.041,250.244,61.523,-68.604,26.856,-7.251,95.46
 15:41:06.447,eb:33:2e:f9:57:b5, 2085-97-119 06:130:254:4657,0.908,-0.295,2.396,297.607,98.267,-58.96,29.641,-6.207,95.312
 15:41:06.449,eb:33:2e:f9:57:b5, 2085-97-217 06:145:00:4654,0.734,-0.061,2.27,324.097,107.788,-85.815,32.789,-4.988,95.219
 15:41:06.449,eb:33:2e:f9:57:b5, 2085-97-157 04:191:03:4045,0.379,0.348,2.136,342.529,147.888,-90.149,36.129,-3.362,95.208
 15:41:06.449,eb:33:2e:f9:57:b5, 2085-97-164 01:144:05:3774,0.128,0.58,1.907,351.929,129.089,-74.768,39.606,-1.769,95.433
 15:41:06.449,eb:33:2e:f9:57:b5, 2085-97-122 01:157:04:3164,0.057,0.761,1.718,345.581,93.384,-76.111,43.099,-0.445,95.581
 15:41:06.477,eb:33:2e:f9:57:b5, 2085-97-06 255:69:06:3341,0.114,0.543,1.587,337.28,86.182,-66.528,46.505,0.643,95.652
 15:41:06.477,eb:33:2e:f9:57:b5, 2085-97-185 02:16:05:4016,0.49,0.793,1.56,300.781,15.747,-51.88,49.675,1.527,95.729
 15:41:06.477,eb:33:2e:f9:57:b5, 2085-97-215 05:00:02:3558,0.739,0.432,2.211,264.099,88.196,-62.866,52.515,2.098,95.658
 15:41:06.477,eb:33:2e:f9:57:b5, 2085-97-245 04:117:253:2919,0.643,0.028,1.54,228.333,133.606,-53.223,54.954,3.312,96.268
 15:41:06.536,eb:33:2e:f9:57:b5, 2085-97-142 05:156:249:1225,0.794,-0.594,0.923,193.054,127.93,-55.908,57.118,4.526,97.18
 15:41:06.536,eb:33:2e:f9:57:b5, 2085-97-155 06:84:250:812,0.316,-0.912,0.392,176.331,88.623,-65.308,58.975,5.587,97.679
 15:41:06.536,eb:33:2e:f9:57:b5, 2085-97-248 250:118:02:-420,-0.211,0.165,0.626,194.031,183.044,-101.379,60.98,6.866,98.377
 15:41:06.536,eb:33:2e:f9:57:b5, 2085-97-238 00:64:254:-2088,0.191,0.252,-1.876,84.29,-56.763,-116.272,62.375,8.498,98.899
 15:41:06.565,eb:33:2e:f9:57:b5, 2085-97-112 01:01:252:-045,-0.058,-0.598,0.205,-11.414,-64.819,-69.519,62.413,8.745,97.24
 15:41:06.565,eb:33:2e:f9:57:b5, 2085-97-102 255:246:251:-293,0.162,-0.421,-0.386,-92.163,-39.551,-33.02,61.776,9.075,96.932
 15:41:06.565,eb:33:2e:f9:57:b5, 2085-97-183 02:100:251:985,0.351,-0.579,0.282,-135.254,-95.52,-21.606,60.436,8.877,96.042
 15:41:06.565,eb:33:2e:f9:57:b5, 2085-97-84 02:213:251:909,0.272,-0.537,0.482,-151.855,-58.044,-16.174,58.859,8.663,95.317
 15:41:06.597,eb:33:2e:f9:57:b5, 2085-97-77 02:43:252:769,0.289,-0.5,0.41,-152.039,-69.702,-19.836,57.228,8.476,94.724
 15:41:06.597,eb:33:2e:f9:57:b5, 2085-97-252 01:113:252:622,0.211,-0.457,0.334,-149.963,-69.702,-20.63,55.607,8.245,93.994
 15:41:06.597,eb:33:2e:f9:57:b5, 2085-97-116 01:159:252:612,0.17,-0.433,0.282,-151.489,-73.303,-21.729,53.998,8.015,93.345
 15:41:06.597,eb:33:2e:f9:57:b5, 2085-97-83 01:01:253:694,0.156,-0.397,0.322,-157.654,-77.271,-22.827,52.339,7.723,92.582
 15:41:06.659,eb:33:2e:f9:57:b5, 2085-97-25 01:113:253:678,0.123,-0.343,0.342,-169.617,-75.317,-22.644,50.598,7.421,91.884
 15:41:06.659,eb:33:2e:f9:57:b5, 2085-97-16 01:170:253:681,0.146,-0.3,0.325,-186.34,-80.322,-23.132,48.702,7.092,91.137
 15:41:06.659,eb:33:2e:f9:57:b5, 2085-97-75 01:212:253:785,0.167,-0.289,0.362,-204.529,-86.487,-23.56,46.642,6.691,90.406
 15:41:06.659,eb:33:2e:f9:57:b5, 2085-97-95 01:17:254:928,0.177,-0.256,0.419,-221.68,-93.933,-26.367,44.39,6.229,89.577
 15:41:06.686,eb:33:2e:f9:57:b5, 2085-97-129 01:52:254:1018,0.198,-0.229,0.472,-236.328,-102.234,-30.701,41.995,5.707,88.748
 15:41:06.686,eb:33:2e:f9:57:b5, 2085-97-150 01:22:254:1187,0.202,-0.228,0.539,-248.413,-115.784,-35.645,39.457,5.087,87.781
 15:41:06.686,eb:33:2e:f9:57:b5, 2085-97-177 01:212:253:1391,0.214,-0.254,0.622,-254.822,-129.15,-37.659,36.843,4.345,86.781
 15:41:06.686,eb:33:2e:f9:57:b5, 2085-97-160 01:172:253:1557,0.201,-0.285,0.723,-259.094,-140.076,-40.1,34.178,3.45,85.682
 15:41:06.717,eb:33:2e:f9:57:b5, 2085-97-176 01:201:253:1792,0.21,-0.29,0.808,-260.986,-154.236,-39.917,31.514,2.428,84.6
 15:41:06.717,eb:33:2e:f9:57:b5, 2085-97-167 01:21:254:2053,0.19,-0.262,0.943,-262.695,-162.109,-38.818,28.839,1.236,83.469
 15:41:06.717,eb:33:2e:f9:57:b5, 2085-113-81 00:213:93:5518,0.181,-0.216,1.062,-263.733,-166.016,-35.95,26.191,-0.049,82.436
 15:41:06.717,eb:33:2e:f9:57:b5, 2085-97-103 01:122:254:2392,0.171,-0.2,1.109,-263.611,-168.823,-33.203,24.857,-0.742,81.931
 15:41:06.775,eb:33:2e:f9:57:b5, 2085-97-89 01:113:254:2603,0.175,-0.194,1.227,-262.512,-171.692,-25.513,22.247,-2.192,81.041
 15:41:06.775,eb:33:2e:f9:57:b5, 2085-97-147 01:156:254:2842,0.216,-0.189,1.327,-259.338,-176.575,-15.625,19.66,-3.757,80.244
 15:41:06.775,eb:33:2e:f9:57:b5, 2085-97-221 01:16:255:3002,0.25,-0.151,1.444,-254.517,-177.307,-5.798,17.139,-5.411,79.645
 15:41:06.775,eb:33:2e:f9:57:b5, 2085-97-35 02:217:255:3065,0.287,-0.071,1.48,-247.437,-182.922,-0.183,14.672,-7.141,79.146
 15:41:06.807,eb:33:2e:f9:57:b5, 2085-97-117 02:236:00:3266,0.319,0.044,1.529,-240.479,-196.045,0,12.299,-8.987,78.761
 15:41:06.807,eb:33:2e:f9:57:b5, 2085-97-154 02:222:01:3625,0.333,0.177,1.684,-237.61,-206.36,-1.465,9.965,-10.986,78.365
 15:41:06.807,eb:33:2e:f9:57:b5, 2085-97-252 02:158:02:3995,0.4,0.285,1.861,-238.647,-213.379,-0.488,7.652,-13.063,78.091
 15:41:06.807,eb:33:2e:f9:57:b5, 2085-97-11 03:124:03:4392,0.331,0.371,2.067,-241.516,-211.792,1.526,5.29,-15.205,77.855
 15:41:06.836,eb:33:2e:f9:57:b5, 2085-97-107 02:183:04:4623,0.304,0.505,2.196,-239.929,-200.378,8.667,2.9,-17.243,77.761
 15:41:06.836,eb:33:2e:f9:57:b5, 2085-97-86 02:50:06:4833,0.236,0.685,2.321,-231.018,-197.205,15.198,0.511,-19.259,77.827
 15:41:06.836,eb:33:2e:f9:57:b5, 2085-97-10 01:56:07:4752,-0.104,0.855,2.372,-216.431,-180.542,24.902,-1.802,-21.138,78.074
 15:41:06.836,eb:33:2e:f9:57:b5, 2085-97-187 253:195:07:4344,-0.43,0.904,2.256,-192.139,-172.974,33.936,-4.021,-22.868,78.481
 15:41:06.896,eb:33:2e:f9:57:b5, 2085-97-206 250:12:08:4190,-1.025,1.017,2.001,-170.959,-202.209,34.546,-6.042,-24.708,79.03
 15:41:06.896,eb:33:2e:f9:57:b5, 2085-97-68 246:170:07:4595,-1.189,0.906,2.223,-141.296,-191.04,81.604,-8.004,-26.62,79.882
 15:41:06.896,eb:33:2e:f9:57:b5, 2085-97-250 247:222:09:5198,-0.729,1.06,2.328,-111.755,-208.801,131.775,-9.976,-28.433,81.513
 15:41:06.896,eb:33:2e:f9:57:b5, 2085-97-93 251:59:14:5149,-0.72,1.466,2.583,-118.286,-111.511,114.746,-11.986,-29.811,83.282
 15:41:06.927,eb:33:2e:f9:57:b5, 2085-97-19 248:206:19:4136,-1.483,2.107,2.238,-123.108,79.285,100.769,-13.804,-29.647,84.446
 15:41:06.927,eb:33:2e:f9:57:b5, 2085-97-133 242:222:26:2404,-1.548,2.879,1.424,-80.261,176.941,133.057,-15.26,-27.74,85.309
 15:41:06.927,eb:33:2e:f9:57:b5, 2085-97-206 246:42:24:3893,0.746,3.354,1.442,-35.278,-10.254,27.466,-16.117,-26.829,85.93
 15:41:06.927,eb:33:2e:f9:57:b5, 2085-97-200 255:58:21:8321,0.408,2.899,3.354,106.506,-333.435,-154.785,-15.656,-28.246,85.704
 15:41:06.956,eb:33:2e:f9:57:b5, 2085-97-179 06:51:02:1087,0.379,1.348,2.317,118.835,164.429,-145.325,-13.618,-28.927,83.875
 15:41:06.956,eb:33:2e:f9:57:b5, 2085-97-43 02:255:01:-077,1.006,0.15,-0.314,179.382,-84.839,-75.806,-11.486,-28.218,82.667
 15:41:06.956,eb:33:2e:f9:57:b5, 2085-97-160 10:58:254:3171,1.188,0.056,1.273,128.601,-271.179,-140.259,-9.487,-31.179,81.876
 15:41:06.956,eb:33:2e:f9:57:b5, 2085-97-45 07:86:251:984,0.581,-0.492,0.53,58.655,-63.049,-140.503,-7.927,-32.426,80.453
 15:41:07.016,eb:33:2e:f9:57:b5, 2085-97-43 03:249:253:2837,0.373,-0.215,0.999,69.58,-95.52,-139.587,-6.4,-33.525,78.843
 15:41:07.016,eb:33:2e:f9:57:b5, 2085-97-67 03:213:253:2539,0.539,-0.485,1.329,95.398,13.306,-57.19,-4.993,-34.008,77.695
 15:41:07.016,eb:33:2e:f9:57:b5, 2085-97-103 04:143:254:2955,0.232,-0.207,1.25,117.798,127.625,18.982,-3.768,-33.305,77.498
 15:41:07.016,eb:33:2e:f9:57:b5, 2085-97-153 255:121:00:4611,0.04,0.091,2.083,89.539,372.559,85.571,-2.922,-30.811,77.986
 15:41:07.047,eb:33:2e:f9:57:b5, 2085-97-161 02:52:03:1834,0.444,-0.095,1.531,59.448,571.899,99.304,-2.642,-25.609,78.788
 15:41:07.047,eb:33:2e:f9:57:b5, 2085-97-159 02:231:02:-063,0.119,0.391,0.418,-0.977,504.211,3.906,-2.51,-20.023,78.887
 15:41:07.047,eb:33:2e:f9:57:b5, 2085-97-192 254:37:03:1363,-0.221,0.229,-0.047,19.104,142.212,6.836,-2.395,-16.831,78.799
 15:41:07.047,eb:33:2e:f9:57:b5, 2085-97-158 01:60:00:1517,0.16,-0.009,0.997,13.123,32.776,10.254,-2.241,-16.243,78.838
 15:41:07.076,eb:33:2e:f9:57:b5, 2085-97-20 01:245:255:2106,0.111,-0.058,1.005,15.198,-1.099,16.541,-2.131,-16.216,78.981
 15:41:07.076,eb:33:2e:f9:57:b5, 2085-97-50 01:200:255:1801,0.238,0.044,0.912,9.399,-10.193,6.592,-2.038,-16.188,79.107
 15:41:07.076,eb:33:2e:f9:57:b5, 2085-97-64 02:04:00:2004,0.308,-0.038,0.941,12.268,-39.978,6.775,-1.95,-16.512,79.173
 15:41:07.076,eb:33:2e:f9:57:b5, 2085-97-174 02:56:00:1954,0.356,0.041,0.943,10.376,-34.912,7.446,-1.857,-16.859,79.261
 15:41:07.137,eb:33:2e:f9:57:b5, 2085-97-233 02:43:00:1974,0.341,0.006,0.979,9.583,-23.804,9.888,-1.791,-17.161,79.354
 15:41:07.137,eb:33:2e:f9:57:b5, 2085-97-147 02:01:00:1971,0.307,0.007,0.96,8.667,-11.78,11.658,-1.73,-17.314,79.464
 15:41:07.137,eb:33:2e:f9:57:b5, 2085-97-84 02:252:255:1964,0.28,-0.002,0.956,8.606,-7.812,12.146,-1.681,-17.402,79.59
 15:41:07.137,eb:33:2e:f9:57:b5, 2085-97-51 02:00:00:1944,0.283,0,0.959,7.996,-7.263,11.292,-1.631,-17.468,79.706
 15:41:07.166,eb:33:2e:f9:57:b5, 2085-97-93 02:05:00:1960,0.295,0,0.951,7.507,-11.414,9.644,-1.588,-17.562,79.816
 15:41:07.166,eb:33:2e:f9:57:b5, 2085-97-75 02:07:00:1958,0.282,0.001,0.958,6.409,-9.705,8.179,-1.544,-17.661,79.898
 15:41:07.166,eb:33:2e:f9:57:b5, 2085-97-62 02:255:255:1953,0.281,0.003,0.952,5.066,-9.949,6.531,-1.511,-17.754,79.975
 15:41:07.166,eb:33:2e:f9:57:b5, 2085-97-60 02:246:255:1944,0.277,-0.002,0.955,4.15,-10.681,5.371,-1.478,-17.853,80.024
 15:41:07.198,eb:33:2e:f9:57:b5, 2085-97-71 02:243:255:1952,0.295,-0.005,0.951,3.723,-14.221,4.578,-1.456,-17.979,80.085
 15:41:07.198,eb:33:2e:f9:57:b5, 2085-97-102 02:227:255:1973,0.307,-0.007,0.957,3.601,-15.686,3.967,-1.434,-18.127,80.118
 15:41:07.198,eb:33:2e:f9:57:b5, 2085-97-121 02:208:255:1997,0.304,-0.02,0.967,4.578,-13.245,4.272,-1.406,-18.27,80.167
 15:41:07.198,eb:33:2e:f9:57:b5, 2085-97-89 02:225:255:1961,0.291,-0.021,0.971,5.676,-8.606,3.845,-1.362,-18.375,80.2
 15:41:07.256,eb:33:2e:f9:57:b5, 2085-97-74 02:242:255:1946,0.281,-0.009,0.954,5.92,-9.399,2.869,-1.313,-18.463,80.239
 15:41:07.256,eb:33:2e:f9:57:b5, 2085-97-73 02:243:255:1948,0.292,-0.005,0.947,5.676,-12.268,2.441,-1.263,-18.567,80.255
 15:41:07.256,eb:33:2e:f9:57:b5, 2085-97-99 02:247:255:1949,0.308,-0.005,0.952,5.493,-13.794,2.258,-1.214,-18.699,80.283
 15:41:07.256,eb:33:2e:f9:57:b5, 2085-97-159 02:04:00:1949,0.339,-0.003,0.954,5.005,-13.306,2.014,-1.17,-18.831,80.294
 15:41:07.286,eb:33:2e:f9:57:b5, 2085-97-193 02:10:00:1947,0.334,0.005,0.951,4.15,-8.301,1.587,-1.126,-18.94,80.316
 15:41:07.286,eb:33:2e:f9:57:b5, 2085-97-151 02:00:00:1935,0.317,0.001,0.951,3.174,-2.563,0.732,-1.093,-18.984,80.316
 15:41:07.286,eb:33:2e:f9:57:b5, 2085-97-142 02:03:00:1942,0.328,0,0.945,2.747,-1.221,0.305,-1.066,-19.001,80.321
 15:41:07.286,eb:33:2e:f9:57:b5, 2085-97-173 02:243:255:1966,0.336,0,0.952,2.319,1.404,0.183,-1.038,-19.001,80.31
 15:41:07.346,eb:33:2e:f9:57:b5, 2085-97-164 02:221:255:1989,0.326,-0.012,0.965,2.93,7.568,0.366,-1.011,-18.951,80.31
 15:41:07.346,eb:33:2e:f9:57:b5, 2085-97-143 02:206:255:1995,0.323,-0.02,0.972,4.456,12.817,1.282,-0.972,-18.842,80.305
 15:41:07.346,eb:33:2e:f9:57:b5, 2085-97-145 02:233:255:1988,0.32,-0.019,0.966,5.92,16.479,3.113,-0.928,-18.688,80.327
 15:41:07.346,eb:33:2e:f9:57:b5, 2085-97-141 02:251:255:1965,0.317,-0.009,0.965,6.897,20.935,4.578,-0.868,-18.495,80.354
 15:41:07.407,eb:33:2e:f9:57:b5, 2085-97-127 02:241:255:2000,0.312,-0.007,0.973,7.69,22.461,4.883,-0.807,-18.281,80.398
 15:41:07.407,eb:33:2e:f9:57:b5, 2085-97-103 02:01:00:1999,0.289,-0.002,0.971,8.362,22.644,3.235,-0.736,-18.045,80.425
 15:41:07.407,eb:33:2e:f9:57:b5, 2085-97-24 02:00:00:1951,0.25,0.004,0.957,8.24,22.827,1.038,-0.659,-17.809,80.442
 15:41:07.407,eb:33:2e:f9:57:b5, 2085-97-244 01:05:00:1947,0.26,0.007,0.934,7.996,18.433,1.343,-0.577,-17.595,80.442
 15:41:07.409,eb:33:2e:f9:57:b5, 2085-97-55 02:20:00:1912,0.223,0.015,0.951,7.08,14.771,0.122,-0.5,-17.435,80.447
 15:41:07.409,eb:33:2e:f9:57:b5, 2085-97-15 02:17:00:1954,0.304,0.012,0.921,6.897,10.315,3.662,-0.434,-17.303,80.453
 15:41:07.409,eb:33:2e:f9:57:b5, 2085-97-106 02:00:00:1977,0.317,0,0.995,6.714,12.573,2.38,-0.368,-17.221,80.475
 15:41:07.409,eb:33:2e:f9:57:b5, 2085-97-94 02:254:255:2019,0.307,0.014,0.964,8.057,10.437,1.404,-0.297,-17.095,80.486
 15:41:07.467,eb:33:2e:f9:57:b5, 2085-97-84 02:33:00:1937,0.271,0,1.032,8.24,25.269,1.282,-0.214,-16.935,80.497
 15:41:07.467,eb:33:2e:f9:57:b5, 2085-97-51 02:41:00:1996,0.271,0.01,0.947,8.545,18.677,-1.221,-0.126,-16.71,80.48
 15:41:07.467,eb:33:2e:f9:57:b5, 2085-97-255 01:36:00:1946,0.25,0.017,0.957,7.629,21.79,-2.747,-0.038,-16.501,80.458
 15:41:07.467,eb:33:2e:f9:57:b5, 2085-97-21 02:15:00:2011,0.272,0.014,0.961,7.812,14.954,-5.249,0.055,-16.315,80.403
 15:41:07.495,eb:33:2e:f9:57:b5, 2085-97-47 02:30:00:2025,0.253,0.009,0.983,8.728,16.113,-6.287,0.154,-16.161,80.343
 15:41:07.495,eb:33:2e:f9:57:b5, 2085-97-09 02:25:00:2020,0.263,0.004,0.997,9.277,19.592,-7.935,0.264,-15.974,80.255
 15:41:07.495,eb:33:2e:f9:57:b5, 2085-97-28 02:15:00:2040,0.271,0.02,0.983,10.01,16.968,-12.085,0.39,-15.798,80.145
 15:41:07.495,eb:33:2e:f9:57:b5, 2085-97-03 02:10:00:2035,0.252,0.02,0.998,11.353,18.555,-14.954,0.538,-15.617,79.997
 15:41:07.526,eb:33:2e:f9:57:b5, 2085-97-52 02:29:00:2046,0.252,0.015,0.985,13.123,16.907,-16.785,0.703,-15.425,79.843
 15:41:07.526,eb:33:2e:f9:57:b5, 2085-97-254 01:07:00:2082,0.253,-0.001,1.036,15.381,20.63,-19.47,0.901,-15.255,79.634
 15:41:07.526,eb:33:2e:f9:57:b5, 2085-97-251 01:05:00:2107,0.257,0.014,0.997,18.372,17.273,-23.682,1.126,-15.051,79.415
 15:41:07.528,eb:33:2e:f9:57:b5, 2085-97-224 01:10:00:2171,0.236,0.016,1.042,21.851,18.677,-28.198,1.406,-14.87,79.135
 15:41:07.616,eb:33:2e:f9:57:b5, 2085-97-140 01:24:00:2131,0.204,0.034,1.018,23.499,25.818,-31.799,1.714,-14.634,78.838
 15:41:07.616,eb:33:2e:f9:57:b5, 2085-97-134 01:244:255:2193,0.179,0.026,1.058,26.245,22.4,-40.894,2.06,-14.387,78.459
 15:41:07.616,eb:33:2e:f9:57:b5, 2085-113-58 00:104:227:-4545,0.179,-0.005,1.047,30.762,25.574,-41.931,2.455,-14.128,78.036
 15:41:07.616,eb:33:2e:f9:57:b5, 2085-97-95 01:13:00:2137,0.205,0.004,1.012,33.875,19.653,-43.03,2.67,-14.008,77.822
 15:41:07.616,eb:33:2e:f9:57:b5, 2085-97-158 01:36:00:2227,0.197,0.014,1.028,38.025,11.658,-46.448,3.142,-13.832,77.355
 15:41:07.618,eb:33:2e:f9:57:b5, 2085-97-135 01:37:00:2060,0.198,0.011,1.08,42.603,12.878,-50.049,3.669,-13.711,76.855
 15:41:07.618,eb:33:2e:f9:57:b5, 2085-97-237 01:108:00:2196,0.269,0.053,1.036,50.049,-0.244,-53.894,4.252,-13.568,76.339
 15:41:07.618,eb:33:2e:f9:57:b5, 2085-97-41 02:115:00:2194,0.262,0.044,1.042,54.26,0.61,-59.082,4.916,-13.563,75.729
 15:41:07.618,eb:33:2e:f9:57:b5, 2085-97-126 02:162:00:2177,0.324,0.058,1.124,61.34,-7.69,-69.275,5.652,-13.535,75.059
 15:41:07.646,eb:33:2e:f9:57:b5, 2085-97-206 02:218:00:2244,0.347,0.094,1.086,66.772,-8.85,-75.134,6.465,-13.535,74.312
 15:41:07.646,eb:33:2e:f9:57:b5, 2085-97-154 02:210:00:2405,0.346,0.097,1.096,68.542,-2.502,-81.421,7.339,-13.513,73.471
 15:41:07.646,eb:33:2e:f9:57:b5, 2085-97-201 02:183:00:2532,0.377,0.102,1.22,70.557,-4.028,-81.36,8.234,-13.453,72.647
 15:41:07.646,eb:33:2e:f9:57:b5, 2085-97-209 02:66:01:2293,0.38,0.134,1.139,73.486,13.306,-80.322,9.141,-13.255,71.823
 15:41:07.708,eb:33:2e:f9:57:b5, 2085-97-69 03:58:01:2397,0.402,0.163,1.123,77.271,3.601,-87.524,10.085,-13.041,70.994
 15:41:07.708,eb:33:2e:f9:57:b5, 2085-97-31 03:11:01:2520,0.388,0.132,1.213,78.491,12.939,-92.957,11.063,-12.788,70.06
 15:41:07.708,eb:33:2e:f9:57:b5, 2085-97-223 02:91:01:2369,0.366,0.166,1.183,83.191,26.978,-95.337,12.074,-12.404,69.17
 15:41:07.708,eb:33:2e:f9:57:b5, 2085-97-199 02:32:01:2429,0.319,0.16,1.136,88.928,22.583,-99.487,13.123,-11.937,68.231
 15:41:07.735,eb:33:2e:f9:57:b5, 2085-97-125 02:246:00:2364,0.249,0.121,1.193,98.45,26.489,-96.13,14.249,-11.47,67.302
 15:41:07.735,eb:33:2e:f9:57:b5, 2085-97-211 01:166:00:2408,0.273,0.099,1.184,110.779,26.184,-88.135,15.458,-10.975,66.451
 15:41:07.735,eb:33:2e:f9:57:b5, 2085-97-166 01:73:00:2580,0.231,0.081,1.145,127.747,17.761,-67.871,16.793,-10.585,65.753
 15:41:07.735,eb:33:2e:f9:57:b5, 2085-97-217 01:133:00:2614,0.178,0.068,1.238,149.719,18.188,-45.715,18.276,-10.212,65.248
 15:41:07.766,eb:33:2e:f9:57:b5, 2085-97-158 01:102:00:2554,0.168,0.058,1.298,168.579,36.011,-31.128,19.924,-9.816,64.968
 15:41:07.766,eb:33:2e:f9:57:b5, 2085-97-169 01:03:00:2956,0.305,-0.008,1.363,189.88,27.283,-25.452,21.742,-9.404,64.786
 15:41:07.766,eb:33:2e:f9:57:b5, 2085-97-70 03:46:00:3139,0.45,0.021,1.481,213.562,29.236,-18.677,23.785,-9.064,64.704
 15:41:07.766,eb:33:2e:f9:57:b5, 2085-97-54 04:53:00:3468,0.544,0.021,1.648,237.976,41.138,-20.996,26.054,-8.657,64.644
 15:41:07.826,eb:33:2e:f9:57:b5, 2085-97-152 04:38:00:3544,0.563,0.018,1.748,263.062,66.956,-25.024,28.564,-8.069,64.693
 15:41:07.826,eb:33:2e:f9:57:b5, 2085-97-207 03:241:00:4018,0.429,0.061,1.795,291.321,73.303,-37.537,31.339,-7.289,64.759
 15:41:07.826,eb:33:2e:f9:57:b5, 2085-97-145 03:101:02:4218,0.375,0.265,2.042,313.721,77.942,-47.058,34.376,-6.411,64.803
 15:41:07.826,eb:33:2e:f9:57:b5, 2085-97-18 03:15:04:4310,0.389,0.438,2.14,326.355,75.867,-47.913,37.584,-5.51,64.803
 15:41:07.856,eb:33:2e:f9:57:b5, 2085-97-142 02:148:04:4401,0.374,0.532,2.037,336.121,58.533,-43.335,40.902,-4.708,64.929
 15:41:07.856,eb:33:2e:f9:57:b5, 2085-97-57 04:211:03:4396,0.626,0.548,2.206,340.942,52.307,-38.208,44.275,-4.032,64.979
 15:41:07.856,eb:33:2e:f9:57:b5, 2085-97-253 04:205:03:3753,0.391,0.404,2.044,338.318,110.107,-37.964,47.659,-3.219,65.281
 15:41:07.856,eb:33:2e:f9:57:b5, 2085-97-39 01:160:04:3139,0.072,0.555,1.621,314.758,180.176,-47.302,50.894,-1.873,66.138
 15:41:07.886,eb:33:2e:f9:57:b5, 2085-97-17 00:46:01:3586,0.098,0.378,1.591,288.086,133.362,-60.547,53.871,-0.483,67.165
 15:41:07.886,eb:33:2e:f9:57:b5, 2085-97-215 01:179:255:3103,0.332,0.074,1.697,272.4,129.028,-45.898,56.673,0.681,67.841
 15:41:07.886,eb:33:2e:f9:57:b5, 2085-97-54 03:05:253:2362,0.494,-0.192,1.332,246.826,111.511,-29.724,59.282,1.631,68.719
 15:41:07.886,eb:33:2e:f9:57:b5, 2085-97-212 04:65:250:887,0.624,-0.64,0.806,218.445,88.928,-24.109,61.617,2.351,69.423
 15:41:07.946,eb:33:2e:f9:57:b5, 2085-97-217 04:228:255:728,0.062,-0.438,0.316,213.928,59.204,-3.357,63.77,2.807,70.032
 15:41:07.946,eb:33:2e:f9:57:b5, 2085-97-96 252:76:07:165,0.053,0.808,0.724,223.389,94.543,-95.459,66.039,3.466,70.472
 15:41:07.946,eb:33:2e:f9:57:b5, 2085-97-83 02:90:01:-281,0.153,0.596,-0.885,125.305,-122.559,-160.034,67.676,4.889,69.928
 15:41:07.946,eb:33:2e:f9:57:b5, 2085-97-34 00:149:255:-384,-0.059,-0.099,0.321,17.212,-7.019,-105.103,68.192,5.779,68.599
 15:41:07.977,eb:33:2e:f9:57:b5, 2085-97-219 00:205:253:664,0.215,-0.127,-0.148,-79.956,-74.341,-94.971,67.742,6.564,67.961
 15:41:07.977,eb:33:2e:f9:57:b5, 2085-97-95 01:68:253:1101,0.134,-0.349,0.568,-149.292,-5.493,-61.157,66.429,7.092,67.22
 15:41:07.977,eb:33:2e:f9:57:b5, 2085-97-112 01:62:253:1023,0.254,-0.327,0.479,-184.387,-11.597,-60.12,64.688,7.619,66.978
 15:41:07.977,eb:33:2e:f9:57:b5, 2085-97-109 02:253:252:1064,0.343,-0.367,0.536,-201.355,-25.818,-64.27,62.661,8.075,66.462
 15:41:08.006,eb:33:2e:f9:57:b5, 2085-97-234 02:30:253:1053,0.392,-0.356,0.479,-207.764,-36.011,-70.496,60.518,8.525,65.934
 15:41:08.006,eb:33:2e:f9:57:b5, 2085-97-32 03:10:253:1355,0.354,-0.366,0.595,-210.205,-41.809,-74.768,58.299,8.932,65.16
 15:41:08.006,eb:33:2e:f9:57:b5, 2085-97-125 02:93:253:1204,0.287,-0.354,0.653,-213.318,-13.489,-72.327,56.08,9.41,64.528
 15:41:08.007,eb:33:2e:f9:57:b5, 2085-97-75 02:177:253:875,0.286,-0.308,0.508,-220.398,-7.446,-69.275,53.811,9.937,64.034
 15:41:08.066,eb:33:2e:f9:57:b5, 2085-97-65 02:213:253:574,0.281,-0.277,0.346,-233.459,-10.986,-63.904,51.454,10.415,63.556
 15:41:08.066,eb:33:2e:f9:57:b5, 2085-97-83 02:228:253:479,0.31,-0.264,0.242,-249.573,-25.94,-55.542,48.917,10.745,63.018
 15:41:08.066,eb:33:2e:f9:57:b5, 2085-97-149 02:208:253:602,0.341,-0.266,0.253,-265.869,-46.997,-47.18,46.208,10.865,62.386
 15:41:08.066,eb:33:2e:f9:57:b5, 2085-97-231 02:209:253:849,0.398,-0.271,0.344,-277.649,-69.214,-39.734,43.33,10.745,61.655
 15:41:08.096,eb:33:2e:f9:57:b5, 2085-97-102 03:220:253:1159,0.438,-0.273,0.506,-283.02,-90.576,-31.738,40.364,10.371,60.837
 15:41:08.096,eb:33:2e:f9:57:b5, 2085-97-133 03:249:253:1315,0.447,-0.259,0.618,-282.776,-99.609,-21.423,37.37,9.783,60.018
 15:41:08.096,eb:33:2e:f9:57:b5, 2085-97-157 03:31:254:1400,0.465,-0.24,0.652,-278.992,-109.497,-8.85,34.437,9.02,59.288
 15:41:08.096,eb:33:2e:f9:57:b5, 2085-97-197 03:83:254:1575,0.485,-0.221,0.716,-273.499,-123.535,4.089,31.558,8.036,58.64
 15:41:08.126,eb:33:2e:f9:57:b5, 2085-97-246 03:126:254:1836,0.528,-0.199,0.828,-266.724,-136.902,17.944,28.79,6.839,58.079
 15:41:08.126,eb:33:2e:f9:57:b5, 2085-97-90 04:210:254:2039,0.536,-0.184,0.918,-259.277,-145.508,33.752,26.098,5.46,57.678
 15:41:08.126,eb:33:2e:f9:57:b5, 2085-97-51 04:58:255:2173,0.512,-0.135,1.041,-253.601,-144.592,48.645,23.511,3.966,57.442
 15:41:08.126,eb:33:2e:f9:57:b5, 2085-97-57 04:129:255:2280,0.526,-0.079,1.09,-247.681,-151.855,63.782,20.984,2.373,57.426
 15:41:08.186,eb:33:2e:f9:57:b5, 2085-97-60 04:97:255:2418,0.525,-0.072,1.152,-242.798,-157.104,80.688,18.539,0.67,57.59
 15:41:08.186,eb:33:2e:f9:57:b5, 2085-97-65 04:47:255:2624,0.549,-0.094,1.228,-238.159,-163.635,97.412,16.117,-1.137,57.986
 15:41:08.186,eb:33:2e:f9:57:b5, 2085-97-153 04:73:255:2854,0.6,-0.102,1.341,-232.849,-169.983,114.319,13.744,-3.027,58.59
 15:41:08.186,eb:33:2e:f9:57:b5, 2085-97-15 05:203:255:3007,0.667,-0.065,1.432,-227.295,-174.988,127.563,11.371,-4.982,59.431
 15:41:08.218,eb:33:2e:f9:57:b5, 2085-97-161 05:182:00:3238,0.728,0.022,1.522,-222.107,-183.777,134.766,9.031,-6.982,60.419
 15:41:08.218,eb:33:2e:f9:57:b5, 2085-97-244 05:253:01:3476,0.758,0.164,1.639,-219.116,-191.284,134.521,6.658,-9.031,61.529
 15:41:08.218,eb:33:2e:f9:57:b5, 2085-97-65 06:94:03:3791,0.831,0.333,1.766,-218.262,-202.454,129.883,4.274,-11.118,62.677
 15:41:08.218,eb:33:2e:f9:57:b5, 2085-113-58 00:47:224:-5565,0.891,0.514,1.94,-216.919,-212.402,123.169,1.829,-13.271,63.869
 15:41:08.247,eb:33:2e:f9:57:b5, 2085-97-141 07:57:06:4401,0.953,0.629,2.048,-215.637,-213.745,119.019,0.61,-14.354,64.473
 15:41:08.247,eb:33:2e:f9:57:b5, 2085-97-252 05:104:08:4365,0.295,0.953,2.213,-216.248,-198.975,107.239,-1.868,-16.436,65.676
 15:41:08.247,eb:33:2e:f9:57:b5, 2085-97-33 01:249:08:3202,0.178,0.917,1.839,-206.97,-167.053,112.305,-4.384,-18.051,66.896
 15:41:08.247,eb:33:2e:f9:57:b5, 2085-97-11 02:13:12:4601,0.163,1.3,1.836,-196.045,-297.241,72.266,-6.79,-20.451,68.06
 15:41:08.307,eb:33:2e:f9:57:b5, 2085-97-04 255:32:13:5427,-0.447,1.597,2.522,-189.514,-259.521,74.158,-9.157,-23.17,69.247
 15:41:08.307,eb:33:2e:f9:57:b5, 2085-97-32 250:225:13:5571,-0.762,1.68,2.659,-167.908,-227.966,98.145,-11.536,-25.323,70.637
 15:41:08.307,eb:33:2e:f9:57:b5, 2085-97-235 251:197:18:5374,-0.332,1.958,2.713,-133.545,-239.014,135.193,-13.848,-27.339,72.554
 15:41:08.307,eb:33:2e:f9:57:b5, 2085-97-23 251:190:23:5225,-1.154,2.687,2.6,-142.944,-156.006,97.351,-16.117,-29.092,74.421
 15:41:08.337,eb:33:2e:f9:57:b5, 2085-97-188 242:127:33:2348,-1.934,3.494,2.011,-119.202,105.591,139.221,-18.067,-28.762,75.701
 15:41:08.337,eb:33:2e:f9:57:b5, 2085-97-192 243:100:36:3702,-1.051,4.688,0.894,-81.787,-142.212,42.664,-19.561,-28.389,76.778
 15:41:08.337,eb:33:2e:f9:57:b5, 2085-97-128 249:219:29:4788,2.03,4.13,2.564,-5.737,-93.445,-22.278,-20.281,-29.85,77.371
 15:41:08.337,eb:33:2e:f9:57:b5, 2085-97-80 01:126:09:13898,1.332,2.718,3.465,182.495,-464.966,-239.136,-19.314,-31.679,76.882
 15:41:08.365,eb:33:2e:f9:57:b5, 2085-97-228 04:13:02:-671,0.274,0.561,3.519,152.771,439.697,-89.233,-16.573,-32.289,74.8
 15:41:08.365,eb:33:2e:f9:57:b5, 2085-97-115 09:40:252:747,1.58,0.557,-1.305,177.307,-213.379,-154.724,-14.073,-30.899,73.548
 15:41:08.365,eb:33:2e:f9:57:b5, 2085-97-160 06:08:244:1622,0.195,-1.338,1.286,106.995,-88.562,-198.914,-11.783,-33.75,71.812
 15:41:08.365,eb:33:2e:f9:57:b5, 2085-97-199 255:103:252:2314,0.085,-1.024,0.452,114.929,-82.275,-179.993,-9.569,-34.503,69.67
 15:41:08.426,eb:33:2e:f9:57:b5, 2085-97-208 01:40:252:2028,0.437,-0.323,1.096,155.151,-72.571,-129.761,-7.224,-35.585,67.945
 15:41:08.426,eb:33:2e:f9:57:b5, 2085-97-01 04:123:255:3453,0.296,-0.196,1.115,202.148,-74.768,-48.523,-4.807,-36.381,66.978
 15:41:08.426,eb:33:2e:f9:57:b5, 2085-97-98 01:30:01:3832,0.128,-0.165,2.382,180.298,96.497,111.816,-3.203,-36.656,67.632
 15:41:08.426,eb:33:2e:f9:57:b5, 2085-97-07 02:131:05:2857,0.472,0.39,1.331,146.362,239.075,140.564,-2.521,-34.547,69.126
 15:41:08.455,eb:33:2e:f9:57:b5, 2085-97-160 04:15:08:1080,0.017,0.544,1.191,98.267,314.514,100.281,-1.983,-31.745,70.334
 15:41:08.455,eb:33:2e:f9:57:b5, 2085-97-173 255:156:01:1154,0.137,0.488,0.378,-6.592,191.772,4.395,-1.857,-28.965,70.62
 15:41:08.455,eb:33:2e:f9:57:b5, 2085-97-69 03:21:255:2257,0.434,-0.066,1.01,14.709,82.031,36.011,-1.912,-27.905,70.763
 15:41:08.455,eb:33:2e:f9:57:b5, 2085-97-96 03:72:00:1573,0.395,-0.062,1.018,26.245,133.179,53.101,-1.901,-26.746,71.263
 15:41:08.487,eb:33:2e:f9:57:b5, 2085-97-57 03:60:00:1286,0.356,0.055,0.602,11.719,57.8,16.724,-1.873,-25.719,71.598
 15:41:08.487,eb:33:2e:f9:57:b5, 2085-97-105 03:173:00:1931,0.477,0.021,0.844,17.212,-4.211,15.137,-1.78,-25.576,71.719
 15:41:08.487,eb:33:2e:f9:57:b5, 2085-97-109 03:116:00:1789,0.396,0.097,0.924,9.827,16.541,14.282,-1.708,-25.51,71.895
 15:41:08.487,eb:33:2e:f9:57:b5, 2085-97-65 03:222:255:1736,0.395,0.007,0.826,7.019,2.075,11.292,-1.686,-25.373,72.015
 15:41:08.545,eb:33:2e:f9:57:b5, 2085-97-51 03:236:255:1903,0.404,-0.02,0.921,9.949,-10.01,13.245,-1.653,-25.45,72.153
 15:41:08.545,eb:33:2e:f9:57:b5, 2085-97-45 03:245:255:1833,0.391,0.005,0.9,9.949,-9.399,13.916,-1.615,-25.521,72.301
 15:41:08.545,eb:33:2e:f9:57:b5, 2085-97-24 03:236:255:1886,0.381,-0.012,0.915,10.132,-16.113,12.207,-1.577,-25.659,72.449
 15:41:08.545,eb:33:2e:f9:57:b5, 2085-97-37 03:05:00:1850,0.408,-0.001,0.911,9.033,-19.958,9.644,-1.527,-25.829,72.565
 15:41:08.577,eb:33:2e:f9:57:b5, 2085-97-88 03:243:255:1877,0.426,-0.001,0.909,7.812,-23.56,7.385,-1.489,-26.054,72.664
 15:41:08.577,eb:33:2e:f9:57:b5, 2085-97-127 03:247:255:1867,0.443,-0.007,0.915,7.263,-20.386,6.409,-1.439,-26.263,72.735
 15:41:08.577,eb:33:2e:f9:57:b5, 2085-97-155 03:254:255:1868,0.45,0,0.914,6.47,-14.404,5.31,-1.401,-26.439,72.806
 15:41:08.577,eb:33:2e:f9:57:b5, 2085-97-149 03:242:255:1875,0.427,-0.003,0.915,5.676,-6.653,3.967,-1.357,-26.532,72.85
 15:41:08.606,eb:33:2e:f9:57:b5, 2085-97-71 03:226:255:1875,0.406,-0.011,0.917,5.371,-1.221,2.747,-1.318,-26.565,72.889
 15:41:08.606,eb:33:2e:f9:57:b5, 2085-97-54 03:206:255:1884,0.407,-0.017,0.913,6.104,-0.732,2.93,-1.269,-26.565,72.911
 15:41:08.606,eb:33:2e:f9:57:b5, 2085-97-97 03:226:255:1870,0.429,-0.023,0.92,7.446,0.427,4.333,-1.219,-26.565,72.949
 15:41:08.606,eb:33:2e:f9:57:b5, 2085-97-130 03:244:255:1858,0.435,-0.014,0.91,8.423,2.93,4.822,-1.154,-26.548,72.993
 15:41:08.666,eb:33:2e:f9:57:b5, 2085-97-138 03:239:255:1866,0.452,-0.007,0.91,9.094,6.409,5.066,-1.088,-26.499,73.043
 15:41:08.666,eb:33:2e:f9:57:b5, 2085-97-178 03:237:255:1891,0.472,-0.012,0.92,10.864,11.047,5.432,-1.005,-26.406,73.092
 15:41:08.666,eb:33:2e:f9:57:b5, 2085-97-204 03:21:00:1869,0.456,-0.002,0.924,12.024,21.057,5.371,-0.912,-26.246,73.147
 15:41:08.666,eb:33:2e:f9:57:b5, 2085-97-148 03:13:00:1880,0.446,0.008,0.916,11.719,29.724,3.845,-0.807,-25.972,73.18
 15:41:08.697,eb:33:2e:f9:57:b5, 2085-97-166 03:29:00:1819,0.427,0.008,0.908,10.986,38.391,3.418,-0.709,-25.637,73.213
 15:41:08.697,eb:33:2e:f9:57:b5, 2085-97-93 03:18:00:1895,0.425,0.009,0.926,10.986,39.795,0.793,-0.593,-25.247,73.213
 15:41:08.697,eb:33:2e:f9:57:b5, 2085-97-89 03:43:00:1838,0.412,0.022,0.902,10.01,43.64,-0.488,-0.489,-24.818,73.213
 15:41:08.697,eb:33:2e:f9:57:b5, 2085-97-91 03:62:00:1825,0.402,0.026,0.899,9.216,43.396,-1.282,-0.374,-24.384,73.185
 15:41:08.726,eb:33:2e:f9:57:b5, 2085-97-01 03:11:00:1917,0.363,0.023,0.907,8.057,40.222,-3.601,-0.275,-23.972,73.152
 15:41:08.727,eb:33:2e:f9:57:b5, 2085-97-29 03:23:00:1861,0.383,0.015,0.944,7.812,40.405,-5.859,-0.165,-23.566,73.092
 15:41:08.727,eb:33:2e:f9:57:b5, 2085-97-255 02:29:00:1925,0.353,0.009,0.927,8.667,35.95,-7.324,-0.055,-23.192,73.01
 15:41:08.727,eb:33:2e:f9:57:b5, 2085-97-212 02:04:00:1931,0.357,0.001,0.939,9.155,37.415,-7.629,0.077,-22.813,72.911
 15:41:08.786,eb:33:2e:f9:57:b5, 2085-97-221 02:01:00:1982,0.372,0,0.947,11.292,34.058,-8.301,0.203,-22.462,72.823
 15:41:08.786,eb:33:2e:f9:57:b5, 2085-97-29 03:255:255:2007,0.37,0,0.981,13.672,36.133,-10.559,0.374,-22.104,72.719
 15:41:08.786,eb:33:2e:f9:57:b5, 2085-97-239 02:253:255:2115,0.377,-0.008,1.007,16.785,43.701,-12.817,0.577,-21.709,72.587
 15:41:08.786,eb:33:2e:f9:57:b5, 2085-97-238 02:17:00:2054,0.332,0.02,1.029,17.7,52.124,-24.109,0.829,-21.226,72.383
 15:41:08.817,eb:33:2e:f9:57:b5, 2085-97-88 02:76:00:1979,0.26,0.016,0.99,18.555,59.326,-28.076,1.11,-20.649,72.109
 15:41:08.817,eb:33:2e:f9:57:b5, 2085-97-225 01:55:00:1883,0.245,0.029,0.928,16.235,52.429,-34.363,1.406,-20.067,71.763
 15:41:08.817,eb:33:2e:f9:57:b5, 2085-97-30 02:67:00:1972,0.308,0.025,0.929,17.029,34.302,-36.621,1.692,-19.638,71.395
 15:41:08.817,eb:33:2e:f9:57:b5, 2085-113-58 00:13:228:-5445,0.332,0.026,0.976,17.761,26.672,-42.542,2.01,-19.33,70.977
 15:41:08.817,eb:33:2e:f9:57:b5, 2085-97-178 02:60:00:2056,0.317,0.034,0.998,18.066,28.076,-46.265,2.175,-19.182,70.746
 15:41:08.878,eb:33:2e:f9:57:b5, 2085-97-118 02:68:00:2123,0.305,0.024,1.04,20.203,32.471,-53.467,2.532,-18.864,70.23
 15:41:08.878,eb:33:2e:f9:57:b5, 2085-97-64 02:40:00:2079,0.284,0.03,0.99,21.423,34.729,-60.181,2.933,-18.479,69.626
 15:41:08.878,eb:33:2e:f9:57:b5, 2085-97-78 02:49:00:2082,0.29,0.028,1.024,26.123,29.663,-65.247,3.373,-18.133,68.983
 15:41:08.878,eb:33:2e:f9:57:b5, 2085-97-86 02:72:00:2114,0.286,0.042,1.008,31.677,26.978,-67.261,3.878,-17.803,68.302
 15:41:08.905,eb:33:2e:f9:57:b5, 2085-97-13 02:33:00:2219,0.272,0.018,1.061,38.574,18.921,-72.388,4.444,-17.545,67.571
 15:41:08.905,eb:33:2e:f9:57:b5, 2085-97-59 02:126:00:2044,0.271,0.05,1.029,44.067,21.729,-75.134,5.092,-17.26,66.819
 15:41:08.905,eb:33:2e:f9:57:b5, 2085-97-57 02:126:00:2091,0.282,0.061,1.007,49.988,10.01,-76.538,5.795,-17.04,66.039
 15:41:08.905,eb:33:2e:f9:57:b5, 2085-97-163 02:145:00:2290,0.39,0.054,1.094,55.359,3.235,-78.43,6.553,-16.897,65.242
 15:41:08.965,eb:33:2e:f9:57:b5, 2085-97-71 03:180:00:2301,0.396,0.075,1.123,61.279,-0.244,-82.214,7.383,-16.809,64.391
 15:41:08.965,eb:33:2e:f9:57:b5, 2085-97-227 02:140:00:2501,0.364,0.078,1.174,67.261,9.46,-80.383,8.262,-16.633,63.561
 15:41:08.965,eb:33:2e:f9:57:b5, 2085-97-249 02:186:00:2369,0.354,0.072,1.197,75.378,11.23,-81.604,9.212,-16.414,62.737
 15:41:08.965,eb:33:2e:f9:57:b5, 2085-97-235 02:226:00:2401,0.367,0.106,1.172,83.313,13.306,-79.895,10.234,-16.144,61.93
 15:41:08.996,eb:33:2e:f9:57:b5, 2085-97-206 02:197:00:2510,0.352,0.084,1.22,92.651,14.099,-79.102,11.332,-15.881,61.139
 15:41:08.996,eb:33:2e:f9:57:b5, 2085-97-182 02:243:00:2431,0.386,0.102,1.186,103.027,20.142,-74.036,12.513,-15.535,60.392
 15:41:08.996,eb:33:2e:f9:57:b5, 2085-97-107 03:251:00:2441,0.421,0.142,1.163,113.77,8.24,-77.454,13.799,-15.233,59.656
 15:41:08.996,eb:33:2e:f9:57:b5, 2085-97-113 03:31:01:2503,0.384,0.132,1.252,124.878,13.062,-76.782,15.194,-14.941,58.887
 15:41:09.027,eb:33:2e:f9:57:b5, 2085-97-137 03:23:01:2730,0.515,0.11,1.255,138.184,14.587,-81.482,16.694,-14.562,58.151
 15:41:09.027,eb:33:2e:f9:57:b5, 2085-97-82 03:138:00:2776,0.375,0.102,1.382,149.353,47.119,-86.06,18.32,-14.041,57.404
 15:41:09.027,eb:33:2e:f9:57:b5, 2085-97-84 03:208:255:3023,0.516,0.023,1.352,176.453,13.489,-81.177,20.116,-13.453,56.695
 15:41:09.027,eb:33:2e:f9:57:b5, 2085-97-32 05:186:255:3395,0.721,-0.008,1.597,207.397,-1.465,-75.562,22.225,-13.162,55.937
 15:41:09.057,eb:33:2e:f9:57:b5, 2085-97-28 06:37:255:3702,0.786,-0.065,1.717,240.234,18.86,-68.848,24.626,-12.794,55.294
 15:41:09.057,eb:33:2e:f9:57:b5, 2085-97-165 06:232:253:4341,0.877,-0.186,1.946,280.09,29.48,-65.002,27.345,-12.266,54.778
 15:41:09.057,eb:33:2e:f9:57:b5, 2085-97-44 06:201:253:4823,0.639,-0.293,2.231,325.562,60.791,-60.059,30.465,-11.591,54.421
 15:41:09.057,eb:33:2e:f9:57:b5, 2085-97-103 04:238:255:4870,0.416,-0.188,2.347,362.61,94.421,-72.937,33.942,-10.475,54.283
 15:41:09.116,eb:33:2e:f9:57:b5, 2085-97-136 02:32:03:5083,0.208,0.121,2.518,397.034,82.947,-59.57,37.776,-9.393,54.234
 15:41:09.117,eb:33:2e:f9:57:b5, 2085-97-170 03:142:05:4436,0.692,0.625,2.409,402.283,74.707,-29.602,41.765,-8.476,54.404
 15:41:09.117,eb:33:2e:f9:57:b5, 2085-97-40 06:79:03:4707,0.709,0.572,2.231,397.949,22.827,-50.232,45.791,-7.987,54.355
 15:41:09.117,eb:33:2e:f9:57:b5, 2085-97-161 03:96:01:3693,-0.008,0.371,2.074,370.3,148.743,-56.58,49.581,-6.938,54.662
 15:41:09.147,eb:33:2e:f9:57:b5, 2085-97-177 00:45:05:3217,0.498,0.4,1.773,356.14,197.754,-26.489,53.097,-5.493,55.86
 15:41:09.147,eb:33:2e:f9:57:b5, 2085-97-233 04:40:255:4403,0.581,0.243,1.775,314.88,54.26,-66.162,56.343,-4.378,56.475
 15:41:09.147,eb:33:2e:f9:57:b5, 2085-97-243 03:99:251:2648,0.509,-0.379,1.875,282.349,179.138,-27.405,59.277,-3.329,57.349
 15:41:09.147,eb:33:2e:f9:57:b5, 2085-97-164 05:66:248:1387,0.881,-0.774,0.918,246.155,95.642,-8.728,61.837,-2.494,58.48
 15:41:09.177,eb:33:2e:f9:57:b5, 2085-97-175 07:74:251:1457,0.244,-0.793,0.615,229.614,56.702,-3.113,64.149,-2.153,59.084
 15:41:09.177,eb:33:2e:f9:57:b5, 2085-97-69 252:203:04:152,0.049,0.533,1.2,240.112,164.368,-88.013,66.588,-1.401,59.826
 15:41:09.177,eb:33:2e:f9:57:b5, 2085-97-248 00:99:253:-1276,0.008,0.253,-1.479,103.577,-34.729,-134.216,68.192,0.264,60.249
 15:41:09.177,eb:33:2e:f9:57:b5, 2085-97-247 255:33:252:-873,0.009,-0.637,-0.05,-1.709,34.241,-40.71,68.626,0.939,59.573
 15:41:09.236,eb:33:2e:f9:57:b5, 2085-97-244 01:241:252:487,0.403,-0.356,-0.243,-101.135,-13.062,-15.198,68.055,1.198,59.672
 15:41:09.236,eb:33:2e:f9:57:b5, 2085-97-79 03:66:252:1170,0.398,-0.464,0.534,-164.612,39.856,7.446,66.638,1.263,59.716
 15:41:09.236,eb:33:2e:f9:57:b5, 2085-97-112 03:23:253:1066,0.496,-0.423,0.522,-191.284,55.725,0.305,64.841,1.439,60.26
 15:41:09.236,eb:33:2e:f9:57:b5, 2085-97-42 04:200:253:973,0.506,-0.316,0.52,-202.148,46.753,-22.827,62.864,1.763,60.623
 15:41:09.266,eb:33:2e:f9:57:b5, 2085-97-192 03:101:254:465,0.442,-0.232,0.354,-206.909,51.392,-43.762,60.826,2.307,60.908
 15:41:09.266,eb:33:2e:f9:57:b5, 2085-97-136 03:78:254:218,0.44,-0.196,0.144,-213.196,23.071,-60.669,58.711,2.961,60.952
 15:41:09.266,eb:33:2e:f9:57:b5, 2085-97-120 03:229:253:155,0.434,-0.233,0.099,-225.586,1.587,-67.932,56.503,3.56,60.683
 15:41:09.266,eb:33:2e:f9:57:b5, 2085-97-141 03:146:253:162,0.471,-0.287,0.057,-245.667,-17.395,-70.068,54.097,4.087,60.222
 15:41:09.296,eb:33:2e:f9:57:b5, 2085-97-254 03:135:253:410,0.524,-0.314,0.133,-269.897,-34.241,-66.711,51.454,4.46,59.579
 15:41:09.296,eb:33:2e:f9:57:b5, 2085-97-105 04:200:253:639,0.59,-0.299,0.262,-293.579,-38.025,-60.303,48.549,4.708,58.892
 15:41:09.296,eb:33:2e:f9:57:b5, 2085-97-20 05:40:254:863,0.659,-0.253,0.373,-312.866,-42.358,-53.04,45.445,4.85,58.206
 15:41:09.296,eb:33:2e:f9:57:b5, 2085-97-83 05:101:254:1029,0.658,-0.206,0.47,-323.059,-41.626,-47.241,42.188,4.883,57.557
 15:41:09.388,eb:33:2e:f9:57:b5, 2085-97-54 05:145:254:1050,0.648,-0.172,0.511,-326.66,-42.236,-41.077,38.875,4.85,56.953
 15:41:09.388,eb:33:2e:f9:57:b5, 2085-97-77 05:209:254:1128,0.675,-0.173,0.526,-324.89,-54.382,-33.142,35.552,4.686,56.382
 15:41:09.388,eb:33:2e:f9:57:b5, 2085-97-113 05:235:254:1246,0.676,-0.136,0.582,-319.58,-68.42,-24.048,32.278,4.323,55.8
 15:41:09.388,eb:33:2e:f9:57:b5, 2085-97-136 05:37:255:1375,0.709,-0.117,0.624,-309.631,-88.379,-14.465,29.081,3.746,55.256
 15:41:09.418,eb:33:2e:f9:57:b5, 2085-97-196 05:51:255:1653,0.775,-0.101,0.755,-295.166,-112.122,-1.709,26.027,2.873,54.717
 15:41:09.418,eb:33:2e:f9:57:b5, 2085-97-21 06:176:255:1990,0.723,-0.057,0.882,-278.687,-134.094,11.169,23.137,1.703,54.294
 15:41:09.418,eb:33:2e:f9:57:b5, 2085-97-156 05:47:00:2070,0.72,0.004,0.988,-263.123,-146.912,24.841,20.424,0.352,53.954
 15:41:09.418,eb:33:2e:f9:57:b5, 2085-97-234 05:44:00:2444,0.747,0.029,1.098,-248.108,-175.537,40.344,17.864,-1.318,53.751
 15:41:09.448,eb:33:2e:f9:57:b5, 2085-97-238 05:68:00:2766,0.742,0.027,1.273,-235.779,-184.204,59.326,15.452,-3.197,53.723
 15:41:09.448,eb:33:2e:f9:57:b5, 2085-97-250 05:128:00:2992,0.764,0.049,1.415,-225.464,-190.491,77.148,13.123,-5.197,53.959
 15:41:09.448,eb:33:2e:f9:57:b5, 2085-97-76 06:16:01:3167,0.812,0.093,1.504,-216.614,-198.669,91.064,10.871,-7.278,54.399
 15:41:09.448,eb:33:2e:f9:57:b5, 2085-97-167 06:28:02:3351,0.841,0.19,1.584,-208.374,-210.815,98.694,8.646,-9.47,55.025
 15:41:09.477,eb:33:2e:f9:57:b5, 2085-97-195 06:185:03:3614,0.835,0.359,1.696,-202.759,-223.999,100.769,6.465,-11.761,55.75
 15:41:09.477,eb:33:2e:f9:57:b5, 2085-97-161 06:126:05:3963,0.832,0.569,1.851,-200.012,-233.276,101.196,4.257,-14.156,56.58
 15:41:09.477,eb:33:2e:f9:57:b5, 2085-97-163 06:171:06:4230,0.823,0.754,1.986,-197.388,-238.098,102.417,2.027,-16.567,57.508
 15:41:09.477,eb:33:2e:f9:57:b5, 2085-97-135 06:25:08:4439,0.828,0.908,2.117,-193.665,-231.445,105.408,-0.258,-18.946,58.574
 15:41:09.507,eb:33:2e:f9:57:b5, 2085-97-168 05:41:09:4697,0.347,1.1,2.207,-189.636,-222.412,109.314,-2.582,-21.187,59.782
 15:41:09.507,eb:33:2e:f9:57:b5, 2085-97-156 00:189:07:3858,-0.019,1.028,2.171,-181.03,-177.002,123.169,-4.982,-23.066,61.172
 15:41:09.507,eb:33:2e:f9:57:b5, 2085-97-214 254:93:09:4445,-0.351,1.035,1.899,-154.297,-261.719,118.042,-7.289,-25.126,62.754
 15:41:09.507,eb:33:2e:f9:57:b5, 2085-97-186 250:101:11:5258,-0.748,1.327,2.38,-124.695,-240.234,160.278,-9.542,-27.46,64.682
 15:41:09.565,eb:33:2e:f9:57:b5, 2085-97-132 250:66:15:5426,-0.417,1.668,2.601,-89.233,-249.695,218.445,-11.865,-29.443,67.423
 15:41:09.565,eb:33:2e:f9:57:b5, 2085-97-168 254:45:20:5143,0.003,2.207,2.594,-93.262,-210.51,194.702,-14.266,-31.289,70.422
 15:41:09.565,eb:33:2e:f9:57:b5, 2085-97-224 254:127:26:4441,-0.518,2.972,2.335,-113.708,-36.865,144.409,-16.507,-32.069,72.719
 15:41:09.565,eb:33:2e:f9:57:b5, 2085-97-240 246:31:34:1596,-1.248,3.847,1.532,-100.769,152.893,145.874,-18.298,-30.674,74.042
 15:41:09.596,eb:33:2e:f9:57:b5, 2085-97-133 247:24:33:3735,-0.771,4.383,1.098,-46.692,-76.904,62.012,-19.545,-30.163,75.053
 15:41:09.596,eb:33:2e:f9:57:b5, 2085-97-217 250:191:25:3591,-0.42,3.669,2.039,40.466,-17.822,10.01,-19.836,-30.531,75.613
 15:41:09.596,eb:33:2e:f9:57:b5, 2085-97-210 253:46:20:4246,2.822,2.842,2.026,125,-18.738,-41.992,-18.88,-30.899,75.536
 15:41:09.596,eb:33:2e:f9:57:b5, 2085-97-135 04:104:00:11782,0.667,0.145,2.841,239.258,-385.803,-157.104,-16.798,-32.217,74.822
 15:41:09.626,eb:33:2e:f9:57:b5, 2085-97-124 253:176:06:-800,-0.161,-0.031,3.015,176.697,486.755,-37.659,-13.92,-31.025,73.218
 15:41:09.626,eb:33:2e:f9:57:b5, 2085-97-46 05:22:251:964,0.539,0.511,-0.562,162.292,-180.664,-153.32,-11.547,-29.833,71.982
 15:41:09.626,eb:33:2e:f9:57:b5, 2085-97-93 02:104:242:1473,0.316,-1.481,1.254,180.298,-89.111,-101.074,-9.256,-31.954,70.774
 15:41:09.626,eb:33:2e:f9:57:b5, 2085-97-29 03:96:237:3112,-0.051,-2.286,0.807,188.538,-124.695,-37.292,-7.042,-32.975,70.17
 15:41:09.656,eb:33:2e:f9:57:b5, 2085-97-187 255:221:252:4224,0.475,-0.844,2.257,170.105,80.505,17.761,-5.235,-33.14,70.186
 15:41:09.656,eb:33:2e:f9:57:b5, 2085-97-60 05:136:02:3779,0.563,0.101,1.932,171.57,280.762,116.76,-3.84,-31.421,70.977
 15:41:09.656,eb:33:2e:f9:57:b5, 2085-97-139 01:121:02:2194,0.002,0.319,1.454,86.914,540.771,94.727,-3.054,-27.021,71.906
 15:41:09.656,eb:33:2e:f9:57:b5, 2085-97-68 03:95:06:-567,0.182,0.641,0.668,56.702,477.783,58.105,-2.582,-21.616,72.466
 15:41:09.716,eb:33:2e:f9:57:b5, 2085-97-82 252:10:03:1827,-0.243,1.109,-0.291,20.386,61.096,-11.23,-2.192,-19.089,72.614
 15:41:09.716,eb:33:2e:f9:57:b5, 2085-113-58 00:166:225:-4890,0.319,-0.08,1.264,3.235,13.855,1.404,-2.087,-19.028,72.433
 15:41:09.716,eb:33:2e:f9:57:b5, 2085-97-92 03:187:254:1869,0.281,-0.131,0.987,10.132,29.053,19.531,-2.071,-18.902,72.493
 15:41:09.716,eb:33:2e:f9:57:b5, 2085-97-116 01:140:00:1752,0.272,0.118,0.957,21.545,26.55,30.09,-1.95,-18.605,72.839
 15:41:09.747,eb:33:2e:f9:57:b5, 2085-97-85 02:134:255:1940,0.277,-0.051,0.75,8.911,-30.396,-2.747,-1.862,-18.627,72.889
 15:41:09.747,eb:33:2e:f9:57:b5, 2085-97-249 02:47:01:2048,0.395,0.035,1.093,16.357,-8.118,18.616,-1.747,-18.875,72.982
 15:41:09.748,eb:33:2e:f9:57:b5, 2085-97-178 02:01:00:1864,0.289,0.107,0.908,4.028,10.681,5.554,-1.692,-18.809,73.103
 15:41:09.748,eb:33:2e:f9:57:b5, 2085-97-45 02:22:00:1917,0.293,-0.015,0.924,5.188,2.93,7.629,-1.659,-18.732,73.158
 15:41:09.777,eb:33:2e:f9:57:b5, 2085-97-129 02:49:00:1915,0.314,0.027,0.928,3.784,-3.967,8.362,-1.642,-18.737,73.246
 15:41:09.777,eb:33:2e:f9:57:b5, 2085-97-119 02:243:255:1940,0.306,0.002,0.943,2.075,-4.7,8.118,-1.631,-18.776,73.323
 15:41:09.777,eb:33:2e:f9:57:b5, 2085-97-110 02:230:255:1961,0.305,-0.013,0.951,2.441,-7.324,7.202,-1.637,-18.836,73.405
 15:41:09.777,eb:33:2e:f9:57:b5, 2085-97-107 02:209:255:1969,0.295,-0.015,0.952,3.052,-8.301,6.897,-1.62,-18.907,73.477
 15:41:09.837,eb:33:2e:f9:57:b5, 2085-97-90 02:203:255:1977,0.3,-0.032,0.976,4.578,-7.446,6.531,-1.609,-18.99,73.548
 15:41:09.837,eb:33:2e:f9:57:b5, 2085-97-118 02:235:255:1951,0.314,-0.014,0.949,5.615,-8.118,6.226,-1.566,-19.056,73.614
 15:41:09.837,eb:33:2e:f9:57:b5, 2085-97-147 02:242:255:1965,0.333,-0.008,0.954,5.737,-7.996,5.615,-1.533,-19.138,73.68
 15:41:09.837,eb:33:2e:f9:57:b5, 2085-97-150 02:240:255:1960,0.314,-0.001,0.955,4.883,-2.991,3.662,-1.483,-19.182,73.724
 15:41:09.866,eb:33:2e:f9:57:b5, 2085-97-131 02:225:255:1952,0.315,-0.009,0.953,4.272,-0.427,1.953,-1.445,-19.193,73.751
 15:41:09.866,eb:33:2e:f9:57:b5, 2085-97-138 02:237:255:1954,0.317,-0.014,0.955,4.578,0.916,1.282,-1.395,-19.188,73.762
 15:41:09.866,eb:33:2e:f9:57:b5, 2085-97-110 02:242:255:1951,0.305,-0.012,0.952,4.272,3.662,1.038,-1.357,-19.166,73.773
 15:41:09.866,eb:33:2e:f9:57:b5, 2085-97-121 02:01:00:1919,0.325,-0.007,0.939,4.395,2.93,1.282,-1.307,-19.122,73.779
 15:41:09.897,eb:33:2e:f9:57:b5, 2085-97-109 02:228:255:1974,0.331,0.007,0.926,3.174,0.488,-0.061,-1.269,-19.1,73.784
 15:41:09.897,eb:33:2e:f9:57:b5, 2085-97-146 02:240:255:1955,0.321,-0.003,0.936,3.357,2.258,0.183,-1.23,-19.078,73.779
 15:41:09.897,eb:33:2e:f9:57:b5, 2085-97-143 02:234:255:1969,0.32,-0.012,0.96,3.418,5.676,-0.183,-1.192,-19.039,73.779
 15:41:09.897,eb:33:2e:f9:57:b5, 2085-97-153 02:249:255:1958,0.312,-0.008,0.96,3.723,9.399,-0.549,-1.148,-18.957,73.762
 15:41:09.956,eb:33:2e:f9:57:b5, 2085-97-126 02:247:255:1959,0.308,-0.009,0.963,4.028,13.611,-0.061,-1.104,-18.836,73.757
 15:41:09.956,eb:33:2e:f9:57:b5, 2085-97-116 02:238:255:1966,0.305,-0.005,0.956,3.967,16.174,0.061,-1.055,-18.682,73.746
 15:41:09.956,eb:33:2e:f9:57:b5, 2085-97-133 02:233:255:1987,0.312,-0.015,0.966,4.822,17.7,0.732,-1.011,-18.512,73.746
 15:41:09.956,eb:33:2e:f9:57:b5, 2085-97-94 02:200:255:2023,0.284,-0.02,0.985,6.165,22.888,0.854,-0.945,-18.309,73.74
 15:41:09.987,eb:33:2e:f9:57:b5, 2085-97-60 02:229:255:1996,0.289,-0.024,0.973,8.606,26.855,3.723,-0.879,-18.051,73.762
 15:41:09.987,eb:33:2e:f9:57:b5, 2085-97-62 02:233:255:2019,0.279,-0.009,0.972,10.315,25.146,3.235,-0.78,-17.787,73.79
 15:41:09.987,eb:33:2e:f9:57:b5, 2085-97-56 02:08:00:1946,0.27,-0.001,0.967,11.23,27.954,4.517,-0.687,-17.512,73.823
 15:41:09.987,eb:33:2e:f9:57:b5, 2085-97-11 02:12:00:1987,0.281,0.004,0.983,11.902,22.522,0.854,-0.566,-17.265,73.85
 15:41:10.016,eb:33:2e:f9:57:b5, 2085-97-232 01:239:255:2035,0.271,-0.004,0.938,12.695,18.616,1.404,-0.45,-17.04,73.856
 15:41:10.016,eb:33:2e:f9:57:b5, 2085-97-36 02:251:255:2001,0.265,-0.01,0.972,14.832,16.541,1.404,-0.308,-16.853,73.867
 15:41:10.016,eb:33:2e:f9:57:b5, 2085-97-49 02:247:255:2067,0.268,-0.003,0.98,16.663,11.902,-0.732,-0.148,-16.705,73.872
 15:41:10.017,eb:33:2e:f9:57:b5, 2085-97-44 02:254:255:2045,0.259,-0.014,1.027,18.738,18.86,-1.892,0.044,-16.562,73.839
 15:41:10.077,eb:33:2e:f9:57:b5, 2085-97-34 02:25:00:2004,0.28,0.009,0.981,20.264,20.386,-3.052,0.242,-16.348,73.817
 15:41:10.077,eb:33:2e:f9:57:b5, 2085-97-84 02:38:00:2049,0.295,0.016,1,21.362,17.761,-8.057,0.478,-16.161,73.757
 15:41:10.077,eb:33:2e:f9:57:b5, 2085-97-108 02:50:00:2107,0.332,0.016,1.016,22.827,21.057,-14.282,0.725,-15.958,73.636
 15:41:10.077,eb:33:2e:f9:57:b5, 2085-97-235 02:82:00:2059,0.353,0.035,1.013,23.071,22.583,-27.222,1.027,-15.738,73.411
 15:41:10.107,eb:33:2e:f9:57:b5, 2085-97-169 02:14:00:2212,0.312,0.021,1.05,23.682,29.175,-37.659,1.351,-15.48,73.07
 15:41:10.107,eb:33:2e:f9:57:b5, 2085-97-04 02:247:255:2166,0.241,-0.001,1.069,26.672,41.321,-44.128,1.719,-15.101,72.642
 15:41:10.107,eb:33:2e:f9:57:b5, 2085-97-175 01:20:00:2112,0.267,-0.005,1.025,31.433,36.926,-49.744,2.131,-14.672,72.175
 15:41:10.107,eb:33:2e:f9:57:b5, 2085-97-29 02:211:255:2385,0.265,0.004,1.048,38.391,19.409,-56.396,2.62,-14.354,71.636
 15:41:10.136,eb:33:2e:f9:57:b5, 2085-97-186 01:179:255:2503,0.206,-0.038,1.221,47.058,21.851,-65.43,3.208,-14.134,71.021
 15:41:10.136,eb:33:2e:f9:57:b5, 2085-97-161 01:252:255:2209,0.16,0.006,1.118,55.969,28.809,-73.914,3.906,-13.799,70.312
 15:41:10.136,eb:33:2e:f9:57:b5, 2085-97-254 00:161:255:2378,0.125,-0.041,1.146,62.988,15.076,-77.698,4.68,-13.557,69.538
 15:41:10.136,eb:33:2e:f9:57:b5, 2085-97-77 01:227:255:2250,0.186,-0.034,1.132,73.792,6.958,-74.951,5.554,-13.37,68.752
 15:41:10.197,eb:33:2e:f9:57:b5, 2085-97-56 02:81:00:2432,0.3,0.006,1.161,85.266,-8.484,-66.589,6.52,-13.304,68.044
 15:41:10.197,eb:33:2e:f9:57:b5, 2085-97-186 02:80:00:2709,0.362,0.013,1.297,92.59,-5.737,-60.303,7.564,-13.332,67.368
 15:41:10.197,eb:33:2e:f9:57:b5, 2085-97-70 03:176:00:2716,0.442,0.058,1.344,102.844,0.793,-57.495,8.679,-13.25,66.78
 15:41:10.197,eb:33:2e:f9:57:b5, 2085-97-231 03:246:00:2686,0.512,0.094,1.344,111.694,7.446,-56.946,9.893,-13.118,66.198
 15:41:10.226,eb:33:2e:f9:57:b5, 2085-97-57 04:11:01:2735,0.529,0.111,1.309,120.728,10.193,-63.171,11.19,-12.92,65.61
 15:41:10.226,eb:33:2e:f9:57:b5, 2085-97-76 04:242:00:2732,0.533,0.125,1.356,129.456,21.179,-72.266,12.59,-12.623,64.951
 15:41:10.226,eb:33:2e:f9:57:b5, 2085-97-105 04:169:00:2885,0.569,0.09,1.376,140.869,23.499,-81.177,14.095,-12.222,64.221
 15:41:10.226,eb:33:2e:f9:57:b5, 2085-97-139 04:34:00:3107,0.615,0.042,1.46,156.982,33.569,-83.13,15.743,-11.728,63.463
 15:41:10.377,eb:33:2e:f9:57:b5, 2085-97-46 05:31:00:3224,0.702,0.024,1.526,181.091,40.1,-73.12,17.573,-11.162,62.814
 15:41:10.377,eb:33:2e:f9:57:b5, 2085-97-167 05:15:00:3422,0.819,0.006,1.588,209.717,57.922,-62.012,19.633,-10.486,62.32
 15:41:10.377,eb:33:2e:f9:57:b5, 2085-97-109 07:247:255:3526,0.836,0.013,1.635,247.559,61.523,-48.828,21.978,-9.701,62.012
 15:41:10.377,eb:33:2e:f9:57:b5, 2085-97-175 05:234:252:4853,0.862,-0.197,2.021,303.406,79.163,-14.16,24.747,-8.959,61.941
 15:41:10.377,eb:33:2e:f9:57:b5, 2085-97-83 08:08:254:4823,1.107,-0.38,2.38,342.712,120.361,-30.396,27.993,-7.96,62.309
 15:41:10.377,eb:33:2e:f9:57:b5, 2085-113-58 00:73:228:-6945,1.032,-0.071,2.356,354.126,167.236,-87.952,31.465,-6.405,62.424
 15:41:10.377,eb:33:2e:f9:57:b5, 2085-97-188 06:251:01:4644,0.685,0.052,2.282,365.967,180.847,-102.539,33.261,-5.394,62.49
 15:41:10.377,eb:33:2e:f9:57:b5, 2085-97-129 04:61:03:4991,0.437,0.316,2.339,363.647,150.208,-135.193,36.92,-3.307,62.452
 15:41:10.377,eb:33:2e:f9:57:b5, 2085-97-117 03:111:05:4223,0.481,0.562,2.379,371.643,166.199,-121.155,40.611,-1.296,62.369
 15:41:10.382,eb:33:2e:f9:57:b5, 2085-97-73 03:18:04:3464,0.278,0.542,1.74,380.615,114.258,-122.437,44.368,0.555,62.43
 15:41:10.382,eb:33:2e:f9:57:b5, 2085-97-36 02:74:03:4372,0.365,0.496,1.81,362.488,87.341,-124.634,48.104,2.175,62.26
 15:41:10.382,eb:33:2e:f9:57:b5, 2085-97-51 05:218:00:5338,0.843,0.151,2.574,326.416,91.98,-94.788,51.52,3.494,62.1
 15:41:10.382,eb:33:2e:f9:57:b5, 2085-97-196 06:85:254:3510,0.84,0.05,2.159,277.344,240.051,-77.942,54.613,5.251,63.067
 15:41:10.406,eb:33:2e:f9:57:b5, 2085-97-174 06:40:248:2295,0.896,-0.524,1.377,229.919,208.557,-63.965,57.299,7.13,64.6
 15:41:10.406,eb:33:2e:f9:57:b5, 2085-97-28 08:153:245:977,1.093,-1.145,0.73,198.425,166.138,-54.626,59.579,8.575,65.836
 15:41:10.406,eb:33:2e:f9:57:b5, 2085-97-180 01:230:254:1857,-0.807,-1.31,0.657,252.808,145.264,-60.364,61.831,9.827,66.747
 15:41:10.406,eb:33:2e:f9:57:b5, 2085-97-159 00:246:00:-5726,0.142,-0.105,-0.741,168.884,285.767,-69.519,64.473,11.788,68.917
 15:41:10.436,eb:33:2e:f9:57:b5, 2085-97-174 00:138:249:-599,0.09,-0.482,-1.439,41.809,-133.24,-24.048,65.385,12.162,68.577
 15:41:10.436,eb:33:2e:f9:57:b5, 2085-97-221 00:19:251:-1029,0.279,-0.644,-0.563,-76.416,-7.996,56.274,65.099,11.772,68.395
 15:41:10.436,eb:33:2e:f9:57:b5, 2085-97-224 03:117:249:1166,0.556,-0.745,0.145,-152.283,-92.651,75.439,63.792,10.838,68.005
 15:41:10.437,eb:33:2e:f9:57:b5, 2085-97-70 04:68:250:1261,0.523,-0.782,0.643,-181.763,-40.649,77.759,62.045,9.855,67.835
 15:41:10.467,eb:33:2e:f9:57:b5, 2085-113-81 00:154:94:12275,0.546,-0.657,0.591,-188.965,-46.021,58.716,60.161,9.058,67.775
 15:41:10.467,eb:33:2e:f9:57:b5, 2085-97-80 04:204:251:834,0.496,-0.589,0.522,-188.416,-41.199,51.819,59.2,8.712,67.72
 15:41:10.467,eb:33:2e:f9:57:b5, 2085-97-145 03:172:252:354,0.413,-0.469,0.278,-185.12,-42.419,38.452,57.321,8.124,67.621
 15:41:10.467,eb:33:2e:f9:57:b5, 2085-97-23 03:59:253:228,0.363,-0.369,0.116,-186.462,-70.251,26.367,55.415,7.542,67.324
 15:41:10.586,eb:33:2e:f9:57:b5, 2085-97-177 02:47:253:231,0.333,-0.34,0.108,-199.28,-92.468,14.893,53.421,6.894,66.764
 15:41:10.586,eb:33:2e:f9:57:b5, 2085-97-193 02:232:252:448,0.358,-0.367,0.143,-220.154,-113.953,7.629,51.213,6.163,66.006
 15:41:10.586,eb:33:2e:f9:57:b5, 2085-97-242 02:192:252:840,0.364,-0.403,0.319,-243.164,-121.338,4.639,48.79,5.345,65.16
 15:41:10.586,eb:33:2e:f9:57:b5, 2085-97-207 02:229:252:1110,0.348,-0.397,0.488,-262.634,-115.295,3.54,46.159,4.51,64.325
 15:41:10.588,eb:33:2e:f9:57:b5, 2085-97-200 02:75:253:1214,0.347,-0.362,0.572,-275.696,-111.084,2.38,43.401,3.686,63.556
 15:41:10.588,eb:33:2e:f9:57:b5, 2085-97-194 02:179:253:1253,0.343,-0.311,0.607,-285.461,-112.244,-0.427,40.529,2.84,62.836
 15:41:10.588,eb:33:2e:f9:57:b5, 2085-97-176 02:225:253:1314,0.352,-0.273,0.627,-291.87,-117.798,-3.601,37.601,1.956,62.1
 15:41:10.588,eb:33:2e:f9:57:b5, 2085-97-01 03:197:253:1547,0.396,-0.261,0.685,-295.288,-133.85,-6.226,34.629,0.961,61.348
 15:41:10.590,eb:33:2e:f9:57:b5, 2085-97-39 03:187:253:1827,0.402,-0.283,0.829,-298.157,-146.057,-10.193,31.652,-0.187,60.502
 15:41:10.590,eb:33:2e:f9:57:b5, 2085-97-46 03:05:254:2118,0.433,-0.272,0.93,-299.561,-157.166,-11.169,28.658,-1.445,59.672
 15:41:10.590,eb:33:2e:f9:57:b5, 2085-97-122 03:127:254:2388,0.441,-0.209,1.09,-301.147,-166.382,-13.184,25.681,-2.834,58.826
 15:41:10.590,eb:33:2e:f9:57:b5, 2085-97-137 03:231:254:2627,0.447,-0.154,1.215,-300.476,-172.913,-12.512,22.703,-4.334,58.041
 15:41:10.647,eb:33:2e:f9:57:b5, 2085-97-158 03:36:255:2953,0.447,-0.126,1.368,-297.668,-181.03,-12.268,19.775,-5.955,57.283
 15:41:10.647,eb:33:2e:f9:57:b5, 2085-97-144 03:121:255:3212,0.431,-0.085,1.506,-292.358,-184.204,-10.437,16.886,-7.663,56.624
 15:41:10.647,eb:33:2e:f9:57:b5, 2085-97-65 03:186:255:3453,0.372,-0.05,1.637,-284.424,-188.416,-7.751,14.09,-9.443,56.036
 15:41:10.647,eb:33:2e:f9:57:b5, 2085-97-216 02:244:255:3605,0.351,-0.015,1.72,-276.001,-193.115,-2.197,11.36,-11.299,55.585
 15:41:10.647,eb:33:2e:f9:57:b5, 2085-97-179 02:81:00:3974,0.303,0.012,1.846,-269.043,-203.43,6.958,8.707,-13.271,55.261
 15:41:10.676,eb:33:2e:f9:57:b5, 2085-113-58 00:137:224:-6495,0.282,0.087,2.028,-262.756,-204.895,21.973,6.064,-15.32,55.162
 15:41:10.676,eb:33:2e:f9:57:b5, 2085-97-21 02:233:01:4474,0.234,0.155,2.104,-259.521,-208.191,30.518,4.746,-16.364,55.206
 15:41:10.676,eb:33:2e:f9:57:b5, 2085-97-144 01:147:03:4679,0.16,0.34,2.239,-253.235,-207.703,52.124,2.093,-18.463,55.525
 15:41:10.676,eb:33:2e:f9:57:b5, 2085-97-18 01:114:05:4794,0.1,0.562,2.317,-246.826,-209.656,74.829,-0.637,-20.566,56.201
 15:41:10.707,eb:33:2e:f9:57:b5, 2085-97-146 00:76:07:4917,0.024,0.788,2.376,-239.624,-207.642,94.36,-3.439,-22.621,57.211
 15:41:10.707,eb:33:2e:f9:57:b5, 2085-97-50 255:244:09:5061,-0.258,1.056,2.429,-228.455,-202.026,101.685,-6.301,-24.587,58.491
 15:41:10.707,eb:33:2e:f9:57:b5, 2085-97-126 252:100:12:5127,-0.632,1.401,2.491,-207.825,-177.185,113.159,-9.102,-26.307,59.952
 15:41:10.708,eb:33:2e:f9:57:b5, 2085-97-74 249:103:14:5343,-0.923,1.682,2.535,-178.65,-161.194,126.282,-11.794,-27.74,61.628
 15:41:10.796,eb:33:2e:f9:57:b5, 2085-97-07 249:170:18:5294,-0.708,2.031,2.615,-136.353,-141.052,149.048,-14.266,-28.867,63.589
 15:41:10.796,eb:33:2e:f9:57:b5, 2085-97-182 250:87:23:5156,-0.755,2.651,2.726,-118.469,-59.753,120.361,-16.408,-29.586,65.407
 15:41:10.796,eb:33:2e:f9:57:b5, 2085-97-232 246:245:28:3567,-1.381,3.318,2.138,-97.839,65.002,104.187,-18.062,-29.086,66.605
 15:41:10.796,eb:33:2e:f9:57:b5, 2085-97-142 242:241:30:3079,-1.675,3.785,1.552,-51.575,70.984,63.843,-19.1,-28.087,67.192
 15:41:10.798,eb:33:2e:f9:57:b5, 2085-97-158 244:97:28:3694,-1.013,3.804,1.582,13.428,-16.602,1.038,-19.38,-27.746,67.489
 15:41:10.798,eb:33:2e:f9:57:b5, 2085-97-148 12:45:22:5242,0.177,3.085,1.955,68.604,-51.697,-80.322,-18.776,-28.35,67.143
 15:41:10.798,eb:33:2e:f9:57:b5, 2085-97-144 10:173:04:8029,0.308,0.312,5.323,171.875,-266.357,-209.412,-16.732,-31.943,66.028
 15:41:10.798,eb:33:2e:f9:57:b5, 2085-97-27 00:194:03:-2373,1.215,0.729,0.636,180.969,182.922,-72.144,-14.095,-30.498,64.199
 15:41:10.827,eb:33:2e:f9:57:b5, 2085-97-215 13:60:243:2469,0.997,-0.566,0.208,137.695,-375.244,-247.375,-11.618,-33.206,62.529
 15:41:10.827,eb:33:2e:f9:57:b5, 2085-97-221 03:157:246:1360,0.289,-1.607,0.848,104.187,-57.983,-192.871,-9.267,-35.129,60.425
 15:41:10.827,eb:33:2e:f9:57:b5, 2085-97-73 02:142:251:3137,0.679,-0.624,1.333,119.751,-48.462,-168.64,-6.916,-36.123,58.293
 15:41:10.827,eb:33:2e:f9:57:b5, 2085-97-146 05:56:255:2905,0.482,-0.179,1.283,162.231,58.899,-55.359,-4.653,-36.063,56.937
 15:41:10.887,eb:33:2e:f9:57:b5, 2085-97-113 02:52:00:3436,0.038,-0.027,1.666,156.494,220.52,62.317,-3.06,-34.684,57.003
 15:41:10.887,eb:33:2e:f9:57:b5, 2085-97-250 253:139:05:3047,-0.154,0.383,1.552,123.535,343.567,118.408,-2.225,-31.63,58.035
 15:41:10.887,eb:33:2e:f9:57:b5, 2085-97-65 06:123:06:671,0.479,0.456,1.282,75.317,318.542,74.219,-1.747,-28.24,58.887
 15:41:10.887,eb:33:2e:f9:57:b5, 2085-97-204 253:232:00:915,0,0.526,-0.023,-9.705,179.321,-10.132,-1.615,-25.565,59.024
 15:41:10.918,eb:33:2e:f9:57:b5, 2085-97-71 03:169:255:2246,0.44,-0.117,0.84,14.587,-15.991,10.742,-1.571,-25.087,58.991
 15:41:10.918,eb:33:2e:f9:57:b5, 2085-97-79 03:74:00:2044,0.444,0.033,1.188,18.555,63.599,28.503,-1.467,-24.879,59.266
 15:41:10.918,eb:33:2e:f9:57:b5, 2085-97-78 03:12:00:1396,0.37,0.027,0.729,7.568,60.974,8.667,-1.428,-24.104,59.431
 15:41:10.918,eb:33:2e:f9:57:b5, 2085-97-245 02:194:00:1887,0.419,0.039,0.798,15.442,1.709,11.292,-1.335,-23.862,59.502
 15:41:10.947,eb:33:2e:f9:57:b5, 2085-97-147 03:170:00:1807,0.425,0.126,0.929,9.705,9.033,11.597,-1.252,-23.829,59.645
 15:41:10.947,eb:33:2e:f9:57:b5, 2085-97-44 03:19:00:1813,0.397,0.036,0.855,4.883,5.737,8.911,-1.225,-23.719,59.744
 15:41:10.947,eb:33:2e:f9:57:b5, 2085-97-51 03:05:00:1894,0.41,0.01,0.909,5.249,-0.244,9.888,-1.214,-23.708,59.843
 15:41:10.947,eb:33:2e:f9:57:b5, 2085-97-47 03:190:255:1958,0.37,-0.017,0.928,6.348,3.052,11.841,-1.198,-23.681,59.958
 15:41:11.006,eb:33:2e:f9:57:b5, 2085-97-194 02:225:255:1903,0.327,-0.03,0.958,8.667,11.108,12.146,-1.17,-23.599,60.09
 15:41:11.006,eb:33:2e:f9:57:b5, 2085-113-81 00:150:108:3005,0.333,-0.005,0.917,9.338,3.662,11.475,-1.115,-23.505,60.211
 15:41:11.006,eb:33:2e:f9:57:b5, 2085-97-239 02:04:00:1873,0.381,0.001,0.915,9.033,-1.831,10.498,-1.093,-23.505,60.266
 15:41:11.007,eb:33:2e:f9:57:b5, 2085-97-36 03:05:00:1929,0.383,-0.007,0.939,8.545,-3.418,8.728,-1.038,-23.538,60.364
 15:41:11.036,eb:33:2e:f9:57:b5, 2085-97-255 02:14:00:1870,0.38,0,0.928,7.08,2.991,7.202,-0.994,-23.527,60.447
 15:41:11.036,eb:33:2e:f9:57:b5, 2085-97-35 03:08:00:1893,0.4,0.007,0.912,6.409,-0.183,5.798,-0.945,-23.505,60.513
 15:41:11.036,eb:33:2e:f9:57:b5, 2085-97-84 03:255:255:1924,0.425,0.005,0.926,5.798,1.221,4.089,-0.906,-23.5,60.568
 15:41:11.036,eb:33:2e:f9:57:b5, 2085-97-72 03:232:255:1948,0.391,-0.005,0.943,5.432,11.475,2.686,-0.851,-23.428,60.595
 15:41:11.067,eb:33:2e:f9:57:b5, 2085-97-253 02:212:255:1935,0.377,-0.019,0.946,6.042,20.874,2.686,-0.807,-23.253,60.617
 15:41:11.067,eb:33:2e:f9:57:b5, 2085-97-01 03:240:255:1931,0.376,-0.013,0.943,7.507,25.696,4.028,-0.742,-23.005,60.645
 15:41:11.067,eb:33:2e:f9:57:b5, 2085-97-209 02:245:255:1908,0.366,-0.003,0.929,8.118,29.907,5.371,-0.681,-22.725,60.694
 15:41:11.067,eb:33:2e:f9:57:b5, 2085-97-03 03:09:00:1909,0.387,0.006,0.922,8.606,28.992,6.531,-0.61,-22.412,60.754
 15:41:11.126,eb:33:2e:f9:57:b5, 2085-97-50 03:22:00:1943,0.395,0.008,0.947,8.606,34.302,6.531,-0.549,-22.104,60.82
 15:41:11.126,eb:33:2e:f9:57:b5, 2085-97-237 02:13:00:1962,0.368,0.011,0.949,8.179,44.617,5.371,-0.478,-21.698,60.87
 15:41:11.126,eb:33:2e:f9:57:b5, 2085-97-228 02:39:00:1881,0.349,0.017,0.926,8.179,50.659,6.775,-0.417,-21.198,60.936
 15:41:11.126,eb:33:2e:f9:57:b5, 2085-97-243 02:40:00:1934,0.354,0.01,0.936,8.911,49.011,7.69,-0.346,-20.698,60.996
 15:41:11.157,eb:33:2e:f9:57:b5, 2085-97-183 02:14:00:1975,0.322,0.011,0.948,9.155,53.162,7.69,-0.28,-20.193,61.068
 15:41:11.157,eb:33:2e:f9:57:b5, 2085-97-202 02:20:00:1958,0.338,0.011,0.957,9.033,56.519,5.371,-0.198,-19.644,61.128
 15:41:11.157,eb:33:2e:f9:57:b5, 2085-97-132 02:10:00:1963,0.313,0.004,0.949,10.559,53.345,3.174,-0.115,-19.089,61.166
 15:41:11.157,eb:33:2e:f9:57:b5, 2085-97-115 02:05:00:2018,0.292,0.014,0.97,10.864,45.654,-3.235,0.005,-18.589,61.155
 15:41:11.187,eb:33:2e:f9:57:b5, 2085-97-58 02:22:00:1941,0.251,0.023,0.98,9.827,44.067,-11.292,0.137,-18.133,61.089
 15:41:11.187,eb:33:2e:f9:57:b5, 2085-97-232 01:43:00:1954,0.224,0.004,0.961,10.925,36.56,-12.207,0.28,-17.721,60.952
 15:41:11.187,eb:33:2e:f9:57:b5, 2085-97-231 01:44:00:1919,0.25,0.003,0.951,10.376,25.513,-15.808,0.423,-17.408,60.798
 15:41:11.187,eb:33:2e:f9:57:b5, 2085-97-36 02:14:00:2000,0.275,0.012,0.947,9.766,15.991,-17.944,0.582,-17.199,60.606
 15:41:11.248,eb:33:2e:f9:57:b5, 2085-97-64 02:252:255:2023,0.29,-0.003,0.992,11.475,15.747,-18.799,0.747,-17.051,60.408
 15:41:11.248,eb:33:2e:f9:57:b5, 2085-97-78 02:16:00:2060,0.29,0.008,0.987,14.099,16.235,-18.982,0.939,-16.875,60.211
 15:41:11.248,eb:33:2e:f9:57:b5, 2085-97-80 02:41:00:2063,0.286,0.01,1.013,16.968,19.043,-21.729,1.159,-16.699,60.002
 15:41:11.248,eb:33:2e:f9:57:b5, 2085-97-36 02:79:00:2016,0.29,0.034,0.998,17.944,20.447,-27.161,1.412,-16.485,59.744
 15:41:11.307,eb:33:2e:f9:57:b5, 2085-97-161 02:80:00:2108,0.388,0.035,0.968,18.799,13,-32.898,1.681,-16.293,59.436
 15:41:11.307,eb:33:2e:f9:57:b5, 2085-97-37 03:30:00:2312,0.304,0.041,1.086,20.203,12.207,-46.204,2,-16.177,59.019
 15:41:11.307,eb:33:2e:f9:57:b5, 2085-97-236 01:46:00:2117,0.248,-0.009,1.122,24.414,41.687,-49.561,2.357,-15.875,58.519
 15:41:11.307,eb:33:2e:f9:57:b5, 2085-97-219 01:44:00:2059,0.191,0.063,0.961,26.611,26.978,-60.791,2.774,-15.469,57.964
 15:41:11.309,eb:33:2e:f9:57:b5, 2085-97-88 01:248:255:2187,0.178,-0.004,1.083,30.334,25.33,-62.927,3.224,-15.216,57.327
 15:41:11.309,eb:33:2e:f9:57:b5, 2085-97-197 01:41:00:2128,0.281,0.005,1.028,36.438,15.503,-65.43,3.735,-14.941,56.673
 15:41:11.309,eb:33:2e:f9:57:b5, 2085-97-116 02:19:00:2357,0.318,0.031,1.089,42.114,2.136,-70.74,4.307,-14.837,55.975
 15:41:11.309,eb:33:2e:f9:57:b5, 2085-97-161 02:24:00:2434,0.293,0.002,1.184,50.537,7.751,-70.496,4.966,-14.733,55.239
 15:41:11.366,eb:33:2e:f9:57:b5, 2085-97-90 02:63:00:2377,0.261,0.015,1.217,59.57,13.977,-72.083,5.702,-14.546,54.525
 15:41:11.366,eb:33:2e:f9:57:b5, 2085-97-199 01:47:00:2394,0.251,0.014,1.157,67.383,15.747,-69.885,6.52,-14.321,53.795
 15:41:11.366,eb:33:2e:f9:57:b5, 2085-97-17 02:18:00:2557,0.296,0.028,1.158,74.829,5.188,-66.833,7.405,-14.134,53.108
 15:41:11.366,eb:33:2e:f9:57:b5, 2085-97-195 02:138:00:2543,0.378,0.026,1.272,86.792,7.507,-63.049,8.377,-13.98,52.454
 15:41:11.405,eb:33:2e:f9:57:b5, 2085-97-18 03:173:00:2621,0.416,0.082,1.25,95.52,10.01,-61.401,9.443,-13.799,51.833
 15:41:11.405,eb:33:2e:f9:57:b5, 2085-97-31 03:173:00:2666,0.406,0.082,1.271,104.004,15.442,-59.631,10.585,-13.574,51.235
 15:41:11.405,eb:33:2e:f9:57:b5, 2085-97-160 03:241:00:2549,0.47,0.105,1.262,114.197,14.404,-68.42,11.821,-13.271,50.62
 15:41:11.405,eb:33:2e:f9:57:b5, 2085-97-168 03:184:00:2708,0.479,0.093,1.291,123.779,18.25,-73.364,13.173,-12.975,49.916
 15:41:11.427,eb:33:2e:f9:57:b5, 2085-97-234 03:129:00:2802,0.522,0.084,1.305,140.015,24.17,-69.397,14.645,-12.585,49.257
 15:41:11.427,eb:33:2e:f9:57:b5, 2085-97-170 04:135:00:2935,0.561,0.074,1.412,159.546,26.306,-61.096,16.282,-12.162,48.664
 15:41:11.427,eb:33:2e:f9:57:b5, 2085-97-172 04:74:00:3079,0.619,0.03,1.518,182.617,49.316,-50.537,18.078,-11.635,48.23
 15:41:11.427,eb:33:2e:f9:57:b5, 2085-97-250 04:11:00:3244,0.658,0.024,1.512,212.158,61.401,-34.363,20.11,-10.959,48.01
 15:41:11.487,eb:33:2e:f9:57:b5, 2085-97-27 05:129:255:3411,0.608,-0.038,1.583,251.892,76.172,-7.629,22.429,-10.245,48.054
 15:41:11.487,eb:33:2e:f9:57:b5, 2085-97-25 05:128:254:3834,0.668,-0.09,1.756,296.631,91.858,13.794,25.131,-9.448,48.439
 15:41:11.487,eb:33:2e:f9:57:b5, 2085-97-225 05:126:254:4502,0.827,-0.174,2.087,333.313,97.046,0.61,28.246,-8.674,48.977
 15:41:11.487,eb:33:2e:f9:57:b5, 2085-97-175 06:81:255:4588,0.75,-0.204,2.213,346.069,108.032,-62.256,31.619,-7.608,49.175
 15:41:11.546,eb:33:2e:f9:57:b5, 2085-97-235 04:177:01:4720,0.448,0.033,2.228,356.995,134.583,-101.868,35.151,-6.097,49.136
 15:41:11.546,eb:33:2e:f9:57:b5, 2085-97-224 02:209:03:4809,0.424,0.323,2.383,359.314,133.301,-120.483,38.749,-4.345,48.972
 15:41:11.546,eb:33:2e:f9:57:b5, 2085-97-174 04:253:04:4136,0.587,0.699,2.156,359.314,114.014,-113.159,42.336,-2.598,48.922
 15:41:11.546,eb:33:2e:f9:57:b5, 2085-97-54 05:158:04:3534,0.51,0.594,1.983,369.385,108.459,-113.403,45.978,-1.088,48.752
 15:41:11.607,eb:33:2e:f9:57:b5, 2085-97-94 01:207:02:4341,0.191,0.396,1.687,357.3,93.14,-122.986,49.62,0.549,48.719
 15:41:11.607,eb:33:2e:f9:57:b5, 2085-97-85 03:152:02:4886,0.706,0.379,2.403,330.078,122.253,-83.496,53.075,1.928,48.895
 15:41:11.607,eb:33:2e:f9:57:b5, 2085-97-22 06:46:00:4412,0.749,0.218,2.255,287.903,175.659,-82.886,56.19,3.461,49.625
 15:41:11.607,eb:33:2e:f9:57:b5, 2085-97-240 05:69:251:2936,0.792,-0.243,1.869,243.042,254.761,-54.321,58.942,5.251,51.152
 15:41:11.607,eb:33:2e:f9:57:b5, 2085-97-56 07:10:246:1267,1.097,-0.959,1.059,205.811,190.186,-37.354,61.353,6.74,52.894
 15:41:11.607,eb:33:2e:f9:57:b5, 2085-97-183 07:145:249:919,-0.047,-1.257,0.224,192.139,144.409,-41.016,63.446,7.822,54.152
 15:41:11.608,eb:33:2e:f9:57:b5, 2085-97-121 250:59:02:-2756,0.201,0.246,0.464,194.092,304.443,-74.585,65.918,9.119,55.893
 15:41:11.608,eb:33:2e:f9:57:b5, 2085-97-66 01:133:252:-1949,0.151,0.283,-2.647,48.767,-73.914,-61.34,67.231,10.388,57.008
 15:41:11.637,eb:33:2e:f9:57:b5, 2085-97-128 01:176:252:-895,0.221,-0.594,-0.074,-74.097,18.921,21.423,66.912,10.272,56.305
 15:41:11.637,eb:33:2e:f9:57:b5, 2085-97-221 02:67:251:772,0.53,-0.434,-0.255,-171.448,-52.612,36.133,65.605,9.948,56.382
 15:41:11.637,eb:33:2e:f9:57:b5, 2085-97-134 04:80:251:1320,0.523,-0.63,0.654,-216.309,-4.028,42.175,63.583,9.426,56.25
 15:41:11.637,eb:33:2e:f9:57:b5, 2085-113-81 00:72:99:13549,0.499,-0.526,0.574,-231.262,3.418,19.47,61.342,9.179,56.442
 15:41:11.637,eb:33:2e:f9:57:b5, 2085-97-16 04:83:252:894,0.503,-0.494,0.516,-232.544,-1.648,9.766,60.189,9.124,56.475
 15:41:11.757,eb:33:2e:f9:57:b5, 2085-97-195 03:199:252:408,0.444,-0.427,0.318,-230.591,-6.165,-7.08,57.865,9.102,56.448
 15:41:11.757,eb:33:2e:f9:57:b5, 2085-97-157 03:22:253:348,0.461,-0.383,0.139,-228.638,-35.217,-16.968,55.525,9.097,56.206
 15:41:11.757,eb:33:2e:f9:57:b5, 2085-97-158 03:52:253:663,0.446,-0.358,0.255,-233.765,-49.622,-20.935,53.135,8.987,55.701
 15:41:11.757,eb:33:2e:f9:57:b5, 2085-97-148 03:103:253:765,0.455,-0.333,0.353,-245.361,-43.884,-20.264,50.647,8.86,55.212
 15:41:11.757,eb:33:2e:f9:57:b5, 2085-97-144 03:147:253:797,0.421,-0.317,0.391,-261.536,-36.987,-15.503,48.038,8.729,54.778
 15:41:11.757,eb:33:2e:f9:57:b5, 2085-97-90 03:219:253:633,0.431,-0.286,0.357,-278.442,-25.391,-5.066,45.275,8.597,54.503
 15:41:11.757,eb:33:2e:f9:57:b5, 2085-97-134 03:10:254:674,0.469,-0.253,0.303,-293.457,-36.255,1.587,42.369,8.383,54.278
 15:41:11.757,eb:33:2e:f9:57:b5, 2085-97-247 03:139:254:850,0.521,-0.23,0.369,-302.979,-52.124,9.338,39.331,8.004,54.042
 15:41:11.760,eb:33:2e:f9:57:b5, 2085-97-75 04:175:254:986,0.559,-0.165,0.432,-310.12,-67.2,15.198,36.216,7.46,53.767
 15:41:11.760,eb:33:2e:f9:57:b5, 2085-97-167 04:190:254:1273,0.616,-0.159,0.536,-310.425,-86.243,23.682,33.063,6.702,53.509
 15:41:11.760,eb:33:2e:f9:57:b5, 2085-97-41 05:50:255:1674,0.676,-0.13,0.708,-304.871,-107.361,32.41,29.954,5.707,53.245
 15:41:11.760,eb:33:2e:f9:57:b5, 2085-97-148 05:169:255:2014,0.726,-0.074,0.92,-294.495,-115.173,41.992,26.927,4.532,53.064
 15:41:11.817,eb:33:2e:f9:57:b5, 2085-97-197 05:134:00:2288,0.741,0.006,1.014,-280.884,-124.39,48.645,24.044,3.263,52.96
 15:41:11.817,eb:33:2e:f9:57:b5, 2085-97-236 05:68:01:2398,0.722,0.125,1.15,-268.494,-129.089,58.533,21.292,1.879,52.993
 15:41:11.817,eb:33:2e:f9:57:b5, 2085-97-197 05:107:01:2404,0.727,0.181,1.167,-260.01,-137.024,67.627,18.66,0.417,53.146
 15:41:11.817,eb:33:2e:f9:57:b5, 2085-97-227 05:51:01:2729,0.73,0.167,1.255,-252.075,-156.067,76.965,16.089,-1.225,53.421
 15:41:12.086,eb:33:2e:f9:57:b5, 2085-97-246 05:28:01:3005,0.775,0.14,1.41,-243.469,-163.574,89.172,13.601,-2.983,53.822
 15:41:12.086,eb:33:2e:f9:57:b5, 2085-97-92 06:73:01:3264,0.806,0.144,1.525,-232.727,-170.288,101.318,11.168,-4.834,54.421
 15:41:12.086,eb:33:2e:f9:57:b5, 2085-97-146 06:222:01:3453,0.839,0.191,1.646,-220.215,-171.631,111.877,8.833,-6.696,55.195
 15:41:12.086,eb:33:2e:f9:57:b5, 2085-97-219 06:146:02:3587,0.875,0.272,1.724,-208.008,-178.955,117.554,6.564,-8.602,56.129
 15:41:12.267,eb:33:2e:f9:57:b5, 2085-97-26 07:170:03:3671,0.906,0.384,1.767,-200.134,-187.317,118.469,4.362,-10.536,57.156
 15:41:12.267,eb:33:2e:f9:57:b5, 2085-97-71 07:12:05:3791,0.917,0.541,1.813,-196.411,-198.547,112.976,2.159,-12.541,58.239
 15:41:12.267,eb:33:2e:f9:57:b5, 2085-97-120 07:170:06:3856,0.956,0.732,1.865,-192.993,-208.313,103.76,-0.033,-14.59,59.321
 15:41:12.267,eb:33:2e:f9:57:b5, 2085-97-216 07:105:08:4080,0.99,0.943,1.933,-187.439,-220.276,92.529,-2.23,-16.738,60.397
 15:41:12.269,eb:33:2e:f9:57:b5, 2085-97-235 07:89:10:4334,0.962,1.176,2.057,-182.19,-216.309,81.543,-4.389,-18.869,61.447
 15:41:12.269,eb:33:2e:f9:57:b5, 2085-97-64 05:158:10:4099,0.164,1.439,2.135,-181.519,-201.111,61.401,-6.542,-20.918,62.435
 15:41:12.269,eb:33:2e:f9:57:b5, 2085-97-250 254:251:09:2843,-0.272,1.18,1.697,-162.292,-166.565,71.472,-8.635,-22.511,63.402
 15:41:12.269,eb:33:2e:f9:57:b5, 2085-97-177 253:251:11:3916,-0.433,1.387,1.526,-143.25,-301.514,42.175,-10.569,-24.774,64.424
 15:41:12.269,eb:33:2e:f9:57:b5, 2085-97-218 249:113:11:5613,-0.701,1.496,2.348,-124.023,-288.94,71.96,-12.464,-27.68,65.671
 15:41:12.269,eb:33:2e:f9:57:b5, 2085-97-86 251:255:15:5083,-0.629,1.741,2.575,-91.248,-236.755,120.789,-14.409,-29.883,67.599
 15:41:12.269,eb:33:2e:f9:57:b5, 2085-97-122 248:95:20:4539,-1.206,2.219,2.465,-91.675,-131.958,85.266,-16.188,-31.531,69.28
 15:41:12.270,eb:33:2e:f9:57:b5, 2085-97-101 245:213:27:3025,-1.204,3.036,1.718,-70.984,-5.249,98.633,-17.633,-31.608,70.483
 15:41:12.272,eb:33:2e:f9:57:b5, 2085-97-151 248:210:27:4594,-0.622,3.626,1.815,-43.823,-94.177,38.086,-18.721,-31.981,71.483
 15:41:12.272,eb:33:2e:f9:57:b5, 2085-97-212 249:44:23:3859,-0.763,3.141,2.54,6.042,76.782,4.089,-19.023,-32.08,71.708
 15:41:12.272,eb:33:2e:f9:57:b5, 2085-97-37 251:94:19:3597,-0.457,2.672,1.703,63.293,31.006,-57.922,-18.342,-31.608,71.164
 15:41:12.272,eb:33:2e:f9:57:b5, 2085-97-30 252:179:15:3730,-0.488,2.087,1.814,114.746,70.801,-59.265,-16.957,-31.426,70.28
 15:41:12.274,eb:33:2e:f9:57:b5, 2085-97-35 251:161:12:2256,0.469,1.722,1.282,137.024,120.483,-45.288,-15.172,-30.427,69.263
 15:41:12.274,eb:33:2e:f9:57:b5, 2085-97-40 254:154:07:1202,-0.671,0.979,0.821,26.489,522.827,45.654,0.967,-26.087,69.379
 15:41:12.274,eb:33:2e:f9:57:b5, 2085-97-112 255:246:255:083,0.384,0.214,0.463,-37.598,355.774,6.531,0.632,-21.462,69.659
 15:41:12.274,eb:33:2e:f9:57:b5, 2085-97-23 01:182:254:2002,0,-0.093,0.311,11.963,37.231,19.348,0.5,-19.907,69.78
 15:41:12.276,eb:33:2e:f9:57:b5, 2085-97-103 01:13:00:1644,0.296,-0.064,1.004,11.169,20.325,16.296,0.571,-19.649,70.049
 15:41:12.276,eb:33:2e:f9:57:b5, 2085-97-127 02:66:00:1948,0.323,0.029,0.953,11.841,0.488,9.521,1.538,-18.616,72.323
 15:41:12.276,eb:33:2e:f9:57:b5, 2085-97-170 02:81:00:1950,0.341,0.041,0.952,12.085,-0.549,7.751,1.631,-18.627,72.449
 15:41:12.276,eb:33:2e:f9:57:b5, 2085-97-213 02:99:00:1950,0.362,0.041,0.961,12.634,2.014,6.348,1.741,-18.622,72.515
 15:41:12.326,eb:33:2e:f9:57:b5, 2085-97-224 02:103:00:1972,0.364,0.054,0.947,12.451,6.958,5.249,1.851,-18.567,72.614
 15:41:12.326,eb:33:2e:f9:57:b5, 2085-97-243 02:87:00:2004,0.356,0.042,0.975,12.939,13.184,3.723,1.972,-18.468,72.658
 15:41:12.326,eb:33:2e:f9:57:b5, 2085-97-216 02:105:00:1944,0.336,0.047,0.969,13.672,22.705,3.357,2.093,-18.281,72.735
 15:41:12.326,eb:33:2e:f9:57:b5, 2085-97-173 02:97:00:1982,0.329,0.043,0.966,14.404,25.269,2.747,2.23,-18.04,72.762
 15:41:12.356,eb:33:2e:f9:57:b5, 2085-97-147 02:101:00:1963,0.313,0.045,0.967,15.442,28.931,2.197,2.373,-17.765,72.834
 15:41:12.356,eb:33:2e:f9:57:b5, 2085-97-138 02:119:00:1991,0.317,0.045,0.971,16.785,31.738,2.686,2.532,-17.452,72.867
 15:41:12.356,eb:33:2e:f9:57:b5, 2085-97-37 02:76:00:2038,0.25,0.04,0.994,16.785,39.49,1.526,2.686,-17.1,72.938
 15:41:12.356,eb:33:2e:f9:57:b5, 2085-97-254 01:98:00:1923,0.241,0.049,0.942,18.311,35.767,0.916,2.867,-16.688,72.966
 15:41:12.447,eb:33:2e:f9:57:b5, 2085-97-67 02:118:00:1997,0.26,0.054,0.972,18.982,23.376,-2.686,3.054,-16.419,72.999
 15:41:12.447,eb:33:2e:f9:57:b5, 2085-97-54 02:124:00:1995,0.282,0.047,0.999,19.104,24.353,-5.859,3.268,-16.183,72.955
 15:41:12.447,eb:33:2e:f9:57:b5, 2085-97-57 02:94:00:2062,0.275,0.049,0.984,19.409,16.541,-13.855,3.483,-15.974,72.889
 15:41:12.447,eb:33:2e:f9:57:b5, 2085-97-85 02:113:00:2054,0.327,0.048,1.016,20.325,15.869,-21.362,3.741,-15.798,72.713
 15:41:12.449,eb:33:2e:f9:57:b5, 2085-97-90 02:126:00:2121,0.3,0.074,0.982,20.569,15.137,-28.198,4.016,-15.634,72.499
 15:41:12.449,eb:33:2e:f9:57:b5, 2085-97-97 02:202:00:1986,0.298,0.079,0.979,18.372,31.86,-30.212,4.296,-15.353,72.208
 15:41:12.449,eb:33:2e:f9:57:b5, 2085-97-47 02:153:00:2045,0.244,0.091,0.967,17.09,29.968,-36.865,4.554,-15.002,71.917
 15:41:12.449,eb:33:2e:f9:57:b5, 2085-97-236 01:167:00:2077,0.222,0.069,1.032,19.47,27.1,-41.809,4.845,-14.694,71.521
 15:41:12.477,eb:33:2e:f9:57:b5, 2085-97-132 01:159:00:2031,0.186,0.078,1,19.775,28.442,-48.584,5.153,-14.376,71.104
 15:41:12.477,eb:33:2e:f9:57:b5, 2085-97-138 01:180:00:1931,0.194,0.089,0.95,19.165,23.682,-52.002,5.477,-14.052,70.604
 15:41:12.477,eb:33:2e:f9:57:b5, 2085-113-58 00:169:237:-5535,0.201,0.073,0.982,20.569,10.071,-54.016,5.801,-13.848,70.104
 15:41:12.477,eb:33:2e:f9:57:b5, 2085-97-187 01:155:00:2156,0.282,0.062,1.036,23.01,6.226,-55.054,5.988,-13.777,69.824
 15:41:12.537,eb:33:2e:f9:57:b5, 2085-97-63 02:195:00:2091,0.239,0.109,0.992,23.743,5.615,-61.401,6.361,-13.651,69.269
 15:41:12.537,eb:33:2e:f9:57:b5, 2085-97-155 01:79:00:2246,0.203,0.057,1.07,27.1,9.583,-60.486,6.768,-13.513,68.643
 15:41:12.537,eb:33:2e:f9:57:b5, 2085-97-225 01:113:00:2232,0.28,0.042,1.081,34.485,5.798,-59.082,7.213,-13.354,68.082
 15:41:12.537,eb:33:2e:f9:57:b5, 2085-97-129 02:121:00:2443,0.312,0.064,1.141,42.236,-2.991,-60.12,7.751,-13.271,67.467
 15:41:12.566,eb:33:2e:f9:57:b5, 2085-97-143 02:152:00:2456,0.335,0.06,1.218,50.537,7.629,-62.134,8.355,-13.162,66.879
 15:41:12.566,eb:33:2e:f9:57:b5, 2085-97-205 02:163:00:2541,0.357,0.075,1.214,59.937,4.272,-68.176,9.069,-12.997,66.22
 15:41:12.566,eb:33:2e:f9:57:b5, 2085-97-160 02:142:00:2607,0.297,0.085,1.255,67.932,11.169,-71.533,9.866,-12.81,65.555
 15:41:12.566,eb:33:2e:f9:57:b5, 2085-97-19 02:88:00:2574,0.229,0.048,1.274,77.515,18.005,-70.74,10.75,-12.53,64.858
 15:41:12.626,eb:33:2e:f9:57:b5, 2085-97-173 01:126:00:2439,0.177,0.054,1.215,89.172,18.738,-68.42,11.733,-12.206,64.232
 15:41:12.626,eb:33:2e:f9:57:b5, 2085-97-115 01:108:00:2457,0.202,0.067,1.193,100.647,14.038,-67.383,12.827,-11.893,63.583
 15:41:12.626,eb:33:2e:f9:57:b5, 2085-97-26 02:206:00:2496,0.352,0.066,1.209,112.976,2.991,-66.65,14.024,-11.673,62.968
 15:41:12.626,eb:33:2e:f9:57:b5, 2085-97-90 03:36:01:2683,0.508,0.116,1.266,125.549,-7.751,-71.899,15.37,-11.541,62.271
 15:41:12.657,eb:33:2e:f9:57:b5, 2085-97-107 04:122:01:2691,0.584,0.167,1.299,137.39,-3.174,-79.773,16.837,-11.387,61.54
 15:41:12.657,eb:33:2e:f9:57:b5, 2085-97-187 04:25:01:2913,0.601,0.149,1.362,152.588,7.874,-83.679,18.441,-11.107,60.738
 15:41:12.657,eb:33:2e:f9:57:b5, 2085-97-30 05:254:00:2963,0.655,0.127,1.448,171.875,25.33,-82.031,20.209,-10.673,60.029
 15:41:12.658,eb:33:2e:f9:57:b5, 2085-97-123 05:87:00:3232,0.696,0.097,1.508,197.815,36.743,-71.655,22.176,-10.091,59.398
 15:41:12.718,eb:33:2e:f9:57:b5, 2085-97-238 05:191:255:3657,0.832,0,1.692,231.384,55.969,-59.509,24.406,-9.41,59.013
 15:41:12.719,eb:33:2e:f9:57:b5, 2085-97-46 07:195:255:3888,0.936,-0.031,1.831,271.362,84.656,-47.424,26.971,-8.553,58.837
 15:41:12.720,eb:33:2e:f9:57:b5, 2085-97-235 06:104:254:4638,0.778,-0.062,2.003,316.345,100.037,-47.607,29.921,-7.493,58.914
 15:41:12.720,eb:33:2e:f9:57:b5, 2085-97-189 05:35:254:5158,0.72,-0.292,2.475,355.225,125.977,-78.857,33.305,-6.207,58.958
 15:41:12.720,eb:33:2e:f9:57:b5, 2085-97-58 05:44:01:5599,0.53,-0.029,2.588,379.089,122.131,-121.094,37.007,-4.565,58.881
 15:41:12.720,eb:33:2e:f9:57:b5, 2085-97-89 04:106:04:5045,0.505,0.386,2.695,389.587,147.156,-111.206,40.869,-2.769,58.755
 15:41:12.720,eb:33:2e:f9:57:b5, 2085-97-120 04:129:06:4156,0.583,0.693,2.273,401.245,117.31,-104.797,44.835,-1.082,58.881
 15:41:12.720,eb:33:2e:f9:57:b5, 2085-97-55 03:73:06:3639,0.371,0.787,1.829,393.433,101.562,-95.581,48.807,0.39,58.936
 15:41:12.776,eb:33:2e:f9:57:b5, 2085-97-46 03:222:05:3542,0.61,0.748,1.668,369.568,95.52,-75.195,52.63,1.681,59.288
 15:41:12.776,eb:33:2e:f9:57:b5, 2085-97-70 05:20:01:4532,0.715,0.471,1.922,322.693,56.885,-106.323,56.063,2.845,59.304
 15:41:12.776,eb:33:2e:f9:57:b5, 2085-97-52 06:15:253:3401,0.693,-0.103,2.08,279.297,137.024,-93.567,59.073,4.241,59.645
 15:41:12.776,eb:33:2e:f9:57:b5, 2085-97-07 06:249:248:1739,0.945,-0.728,1.325,237.61,111.816,-80.75,61.694,5.609,60.298
 15:41:12.806,eb:33:2e:f9:57:b5, 2085-97-189 08:242:248:1070,0.732,-0.875,0.438,210.266,60.303,-81.604,63.924,6.713,60.721
 15:41:12.806,eb:33:2e:f9:57:b5, 2085-97-40 252:112:02:1323,-0.337,-0.142,1.032,256.775,120.972,-124.573,66.242,7.932,60.842
 15:41:12.806,eb:33:2e:f9:57:b5, 2085-97-138 02:149:253:-3041,0.028,0.124,-1.624,133.423,22.217,-170.959,68.231,10.168,61.617
 15:41:12.806,eb:33:2e:f9:57:b5, 2085-97-17 00:34:250:-853,-0.034,-0.849,-0.029,4.639,-79.712,-84.9,68.494,10.882,59.815
 15:41:12.866,eb:33:2e:f9:57:b5, 2085-97-231 00:169:249:-218,0.346,-0.653,-0.686,-108.521,-104.492,-33.447,67.758,11.14,59.117
 15:41:12.866,eb:33:2e:f9:57:b5, 2085-97-76 03:231:248:1112,0.358,-0.896,0.409,-178.345,-84.045,7.324,66.017,10.794,57.98
 15:41:12.866,eb:33:2e:f9:57:b5, 2085-97-246 02:180:249:1104,0.461,-0.84,0.537,-204.102,-54.321,16.846,63.984,10.41,57.541
 15:41:12.866,eb:33:2e:f9:57:b5, 2085-97-30 04:140:250:1217,0.491,-0.733,0.578,-209.045,-72.449,5.798,61.793,9.992,56.959
 15:41:12.897,eb:33:2e:f9:57:b5, 2085-97-91 03:169:251:887,0.362,-0.612,0.531,-203.979,-43.579,2.38,59.639,9.684,56.481
 15:41:12.897,eb:33:2e:f9:57:b5, 2085-97-186 02:145:252:658,0.324,-0.482,0.363,-197.449,-47.913,-1.953,57.563,9.454,56.107
 15:41:12.897,eb:33:2e:f9:57:b5, 2085-97-97 02:32:253:495,0.275,-0.386,0.286,-198.73,-55.359,-6.897,55.508,9.201,55.662
 15:41:12.897,eb:33:2e:f9:57:b5, 2085-97-251 01:00:253:345,0.228,-0.355,0.195,-209.534,-61.89,-5.981,53.377,8.91,55.151
 15:41:12.926,eb:33:2e:f9:57:b5, 2085-97-208 01:148:252:388,0.216,-0.404,0.167,-227.356,-76.05,-3.662,51.097,8.525,54.569
 15:41:12.926,eb:33:2e:f9:57:b5, 2085-97-178 01:64:252:655,0.226,-0.457,0.254,-245.789,-89.355,2.747,48.609,7.982,53.926
 15:41:12.926,eb:33:2e:f9:57:b5, 2085-97-20 02:104:252:865,0.266,-0.459,0.374,-260.986,-103.76,8.911,45.972,7.273,53.251
 15:41:12.926,eb:33:2e:f9:57:b5, 2085-97-56 02:154:252:1036,0.285,-0.448,0.481,-273.132,-111.755,15.381,43.198,6.4,52.581
 15:41:12.956,eb:33:2e:f9:57:b5, 2085-97-114 02:236:252:1255,0.336,-0.403,0.549,-282.776,-124.512,20.874,40.342,5.394,51.932
 15:41:12.956,eb:33:2e:f9:57:b5, 2085-97-240 02:12:253:1522,0.391,-0.374,0.672,-290.649,-133.545,28.198,37.397,4.219,51.328
 15:41:12.956,eb:33:2e:f9:57:b5, 2085-97-64 03:91:253:1780,0.422,-0.354,0.819,-295.959,-137.756,32.41,34.426,2.933,50.779
 15:41:12.956,eb:33:2e:f9:57:b5, 2085-97-110 03:205:253:1995,0.444,-0.3,0.915,-298.096,-142.151,36.56,31.415,1.56,50.334
 15:41:13.077,eb:33:2e:f9:57:b5, 2085-97-166 03:169:254:2087,0.481,-0.216,1.007,-299.194,-149.109,38.086,28.422,0.11,49.944
 15:41:13.077,eb:33:2e:f9:57:b5, 2085-97-236 03:123:255:2269,0.503,-0.104,1.042,-299.683,-166.138,34.18,25.417,-1.467,49.581
 15:41:13.077,eb:33:2e:f9:57:b5, 2085-97-46 04:244:255:2616,0.545,-0.028,1.192,-297.974,-183.044,30.396,22.445,-3.208,49.169
 15:41:13.077,eb:33:2e:f9:57:b5, 2085-97-136 04:17:00:3020,0.572,0.004,1.373,-294.861,-196.289,27.039,19.495,-5.098,48.774
 15:41:13.079,eb:33:2e:f9:57:b5, 2085-97-137 04:75:00:3338,0.555,0.019,1.562,-291.26,-201.233,23.315,16.6,-7.075,48.395
 15:41:13.079,eb:33:2e:f9:57:b5, 2085-97-110 04:157:00:3586,0.55,0.051,1.689,-286.804,-208.374,21.24,13.738,-9.119,48.098
 15:41:13.079,eb:33:2e:f9:57:b5, 2085-97-62 04:78:01:3889,0.492,0.115,1.82,-283.569,-221.375,18.921,10.937,-11.266,47.834
 15:41:13.079,eb:33:2e:f9:57:b5, 2085-97-155 03:90:02:4201,0.424,0.225,1.974,-282.776,-234.802,19.714,8.13,-13.563,47.659
 15:41:13.080,eb:33:2e:f9:57:b5, 2085-97-65 03:121:03:4652,0.374,0.364,2.152,-284.363,-253.906,25.208,5.312,-16.029,47.598
 15:41:13.080,eb:33:2e:f9:57:b5, 2085-97-166 02:197:04:5093,0.283,0.512,2.391,-284.485,-255.859,37.964,2.395,-18.616,47.774
 15:41:13.080,eb:33:2e:f9:57:b5, 2085-97-211 01:32:06:5497,0.124,0.68,2.586,-276.001,-247.742,55.664,-0.566,-21.143,48.241
 15:41:13.080,eb:33:2e:f9:57:b5, 2085-97-209 255:53:08:5740,-0.202,0.881,2.773,-256.042,-225.769,69.58,-3.538,-23.5,49.037
 15:41:13.137,eb:33:2e:f9:57:b5, 2085-97-156 252:129:10:5698,-0.671,1.184,2.784,-226.868,-204.529,85.815,-6.378,-25.549,50.092
 15:41:13.137,eb:33:2e:f9:57:b5, 2085-97-247 248:50:12:5735,-0.943,1.402,2.796,-187.5,-196.533,122.131,-9.102,-27.383,51.542
 15:41:13.137,eb:33:2e:f9:57:b5, 2085-97-31 248:237:15:5838,-0.84,1.745,2.755,-144.775,-197.693,165.283,-11.695,-29.048,53.602
 15:41:13.137,eb:33:2e:f9:57:b5, 2085-97-198 250:83:22:5498,-0.692,2.363,2.792,-126.831,-137.756,158.936,-14.167,-30.317,55.92
 15:41:13.227,eb:33:2e:f9:57:b5, 2085-97-73 248:98:29:4975,-1.536,3.196,2.671,-108.459,-3.296,136.414,-16.287,-30.652,57.75
 15:41:13.227,eb:33:2e:f9:57:b5, 2085-97-207 239:34:36:2419,-1.797,4.11,1.885,-61.34,136.963,137.817,-17.754,-29.295,58.975
 15:41:13.227,eb:33:2e:f9:57:b5, 2085-97-11 246:215:31:4719,0.88,4.372,1.674,11.23,-93.262,11.963,-18.331,-29.191,59.705
 15:41:13.227,eb:33:2e:f9:57:b5, 2085-97-144 254:157:20:12658,0.615,2.577,4.563,192.139,-437.683,-171.265,-17.276,-31.564,59.634
 15:41:13.227,eb:33:2e:f9:57:b5, 2085-97-254 00:13:10:-1215,0.19,1.185,1.96,156.067,315.918,-94.482,-14.65,-31.075,57.508
 15:41:13.227,eb:33:2e:f9:57:b5, 2085-97-115 07:40:04:2596,1.035,1.374,-0.217,191.101,-310.669,-201.721,-12.041,-31.668,56.266
 15:41:13.227,eb:33:2e:f9:57:b5, 2085-97-117 04:245:248:1532,0.559,-0.323,1.6,126.892,-54.688,-215.515,-9.316,-34.25,54.075
 15:41:13.227,eb:33:2e:f9:57:b5, 2085-97-110 05:08:238:1785,0.56,-1.672,0.175,112.244,-121.826,-179.993,-6.872,-35.118,51.784
 15:41:13.286,eb:33:2e:f9:57:b5, 2085-97-121 03:224:250:2717,0.541,-1.303,1.309,109.314,-49.927,-128.601,-4.785,-36.216,50.103
 15:41:13.286,eb:33:2e:f9:57:b5, 2085-97-247 05:07:01:2384,0.489,-0.229,1.292,144.165,-17.09,-38.391,-2.917,-36.541,49.054
 15:41:13.286,eb:33:2e:f9:57:b5, 2085-97-132 03:143:00:3356,0.378,0.128,1.627,125.488,119.324,44.006,-1.566,-36.134,49.153
 15:41:13.286,eb:33:2e:f9:57:b5, 2085-97-190 01:247:03:2225,0.172,0.094,1.222,104.187,275.208,87.036,-0.917,-33.887,49.949
 15:41:13.286,eb:33:2e:f9:57:b5, 2085-113-81 00:124:111:3584,0.333,0.517,1.294,85.327,280.884,83.618,-0.5,-31.13,50.878
 15:41:13.288,eb:33:2e:f9:57:b5, 2085-97-239 02:43:04:1370,0.183,0.7,1.077,42.969,299.133,53.65,-0.374,-29.658,51.257
 15:41:13.290,eb:33:2e:f9:57:b5, 2085-97-176 00:253:255:1280,0.272,0.156,0.489,-4.15,207.764,14.771,-0.428,-26.982,51.465
 15:41:13.290,eb:33:2e:f9:57:b5, 2085-97-23 04:241:255:1979,0.495,-0.068,0.838,20.691,95.703,31.189,-0.445,-25.659,51.707
 15:41:13.290,eb:33:2e:f9:57:b5, 2085-97-162 03:242:00:1763,0.329,0.029,1.042,19.104,144.653,32.532,-0.357,-24.483,52.053
 15:41:13.347,eb:33:2e:f9:57:b5, 2085-97-101 02:21:00:1348,0.35,0.122,0.693,2.014,108.643,7.385,-0.352,-23.093,52.267
 15:41:13.347,eb:33:2e:f9:57:b5, 2085-97-38 03:16:00:1948,0.402,0,0.806,11.475,32.043,8.911,-0.297,-22.511,52.328
 15:41:13.347,eb:33:2e:f9:57:b5, 2085-97-06 03:58:00:1862,0.339,0.038,0.979,11.597,51.208,14.282,-0.22,-22.104,52.465
 15:41:13.347,eb:33:2e:f9:57:b5, 2085-97-128 02:247:255:1843,0.301,0.014,0.882,10.803,41.504,11.963,-0.154,-21.605,52.592
 15:41:13.378,eb:33:2e:f9:57:b5, 2085-97-106 02:54:00:1868,0.314,0.013,0.929,12.817,29.114,15.137,-0.082,-21.27,52.74
 15:41:13.378,eb:33:2e:f9:57:b5, 2085-97-162 02:21:00:1894,0.332,0.023,0.904,11.353,13.855,12.085,-0.005,-21.05,52.877
 15:41:13.378,eb:33:2e:f9:57:b5, 2085-97-169 02:39:00:1928,0.341,0.012,0.943,11.414,8.423,10.132,0.066,-20.951,52.993
 15:41:13.378,eb:33:2e:f9:57:b5, 2085-97-185 02:55:00:1923,0.355,0.026,0.938,10.132,6.47,7.69,0.154,-20.869,53.08
 15:41:13.406,eb:33:2e:f9:57:b5, 2085-97-238 02:58:00:1915,0.367,0.031,0.933,8.301,6.958,5.188,0.214,-20.803,53.152
 15:41:13.406,eb:33:2e:f9:57:b5, 2085-97-234 02:40:00:1948,0.354,0.023,0.946,7.202,11.78,4.272,0.28,-20.704,53.196
 15:41:13.406,eb:33:2e:f9:57:b5, 2085-97-187 02:15:00:1959,0.335,0.01,0.954,6.958,17.273,3.479,0.335,-20.55,53.234
 15:41:13.406,eb:33:2e:f9:57:b5, 2085-97-166 02:14:00:1953,0.324,0.008,0.953,7.385,19.836,3.235,0.406,-20.352,53.267
 15:41:13.497,eb:33:2e:f9:57:b5, 2085-97-146 02:245:255:1976,0.321,-0.002,0.962,8.362,20.569,3.174,0.472,-20.154,53.3
 15:41:13.497,eb:33:2e:f9:57:b5, 2085-97-156 02:26:00:1938,0.311,0.003,0.961,9.766,20.264,2.869,0.56,-19.94,53.328
 15:41:13.497,eb:33:2e:f9:57:b5, 2085-97-114 02:43:00:1912,0.307,0.016,0.943,9.827,19.165,3.052,0.648,-19.742,53.361
 15:41:13.497,eb:33:2e:f9:57:b5, 2085-97-149 02:45:00:1922,0.327,0.021,0.935,9.644,14.404,3.052,0.747,-19.572,53.388
 15:41:13.499,eb:33:2e:f9:57:b5, 2085-97-158 02:27:00:1984,0.342,0.018,0.955,10.01,14.282,3.174,0.835,-19.435,53.421
 15:41:13.499,eb:33:2e:f9:57:b5, 2085-97-183 02:39:00:1999,0.334,0.021,0.959,10.925,16.724,2.014,0.934,-19.265,53.443
 15:41:13.499,eb:33:2e:f9:57:b5, 2085-97-197 02:55:00:1975,0.335,0.016,0.982,12.146,23.926,2.014,1.044,-19.061,53.47
 15:41:13.499,eb:33:2e:f9:57:b5, 2085-97-165 02:53:00:1998,0.324,0.028,0.969,13,27.588,0.61,1.176,-18.798,53.481
 15:41:13.526,eb:33:2e:f9:57:b5, 2085-97-144 02:72:00:1958,0.294,0.024,0.97,13.794,33.752,0.427,1.307,-18.484,53.492
 15:41:13.526,eb:33:2e:f9:57:b5, 2085-97-70 02:89:00:1949,0.298,0.027,0.965,14.709,34.424,0,1.456,-18.138,53.492
 15:41:13.526,eb:33:2e:f9:57:b5, 2085-97-105 02:90:00:1952,0.276,0.043,0.933,13.611,32.837,-1.465,1.599,-17.792,53.492
 15:41:13.526,eb:33:2e:f9:57:b5, 2085-97-220 01:58:00:1940,0.272,0.038,0.981,11.292,36.438,-4.944,1.741,-17.452,53.448
 15:41:13.586,eb:33:2e:f9:57:b5, 2085-97-59 02:81:00:1946,0.284,0.057,0.875,10.681,23.987,-5.798,1.862,-17.122,53.421
 15:41:13.586,eb:33:2e:f9:57:b5, 2085-97-28 02:47:00:1983,0.258,0.027,0.976,11.047,19.226,-9.399,2.005,-16.93,53.328
 15:41:13.586,eb:33:2e:f9:57:b5, 2085-97-238 01:45:00:2001,0.262,0.018,0.933,13.123,15.747,-5.981,2.142,-16.721,53.256
 15:41:13.586,eb:33:2e:f9:57:b5, 2085-97-78 02:27:00:2046,0.24,0.03,0.997,13.916,10.986,-10.071,2.313,-16.595,53.168
 15:41:13.797,eb:33:2e:f9:57:b5, 2085-97-02 02:56:00:2043,0.251,-0.003,1.057,17.761,18.127,-7.751,2.494,-16.458,53.075
 15:41:13.797,eb:33:2e:f9:57:b5, 2085-97-251 01:65:00:2046,0.255,0.022,0.976,20.569,12.207,-10.01,2.719,-16.282,52.982
 15:41:13.797,eb:33:2e:f9:57:b5, 2085-97-49 02:103:00:2041,0.284,0.043,1.011,22.339,9.338,-15.259,2.972,-16.172,52.855
 15:41:13.797,eb:33:2e:f9:57:b5, 2085-97-94 02:124:00:2059,0.28,0.052,1.007,23.499,8.484,-21.79,3.263,-16.068,52.657
 15:41:13.797,eb:33:2e:f9:57:b5, 2085-97-251 01:80:00:2109,0.235,0.051,1.005,23.804,12.939,-27.405,3.565,-15.947,52.399
 15:41:13.797,eb:33:2e:f9:57:b5, 2085-97-232 01:81:00:2076,0.246,0.04,1.026,25.269,13.367,-33.936,3.906,-15.787,52.086
 15:41:13.798,eb:33:2e:f9:57:b5, 2085-97-251 01:56:00:2133,0.24,0.04,1.018,28.87,7.629,-39.429,4.279,-15.656,51.713
 15:41:13.798,eb:33:2e:f9:57:b5, 2085-97-220 01:67:00:2249,0.259,0.017,1.084,33.997,7.69,-42.603,4.708,-15.546,51.284
 15:41:13.800,eb:33:2e:f9:57:b5, 2085-97-43 02:91:00:2136,0.254,0.043,1.058,38.147,6.775,-50.232,5.202,-15.43,50.806
 15:41:13.800,eb:33:2e:f9:57:b5, 2085-97-29 02:117:00:2191,0.279,0.043,1.085,45.288,4.578,-53.894,5.768,-15.315,50.273
 15:41:13.800,eb:33:2e:f9:57:b5, 2085-97-106 02:134:00:2245,0.286,0.064,1.052,50.354,0.488,-58.105,6.4,-15.227,49.686
 15:41:13.800,eb:33:2e:f9:57:b5, 2085-97-137 02:126:00:2376,0.32,0.045,1.175,56.702,2.197,-62.012,7.103,-15.15,49.059
 15:41:13.802,eb:33:2e:f9:57:b5, 2085-97-212 02:173:00:2329,0.347,0.067,1.157,64.331,3.601,-68.054,7.883,-15.024,48.389
 15:41:13.802,eb:33:2e:f9:57:b5, 2085-97-158 02:147:00:2521,0.335,0.075,1.171,70.984,6.165,-70.984,8.751,-14.875,47.664
 15:41:13.802,eb:33:2e:f9:57:b5, 2085-97-184 02:114:00:2595,0.346,0.067,1.257,79.285,6.287,-66.895,9.679,-14.711,46.967
 15:41:13.802,eb:33:2e:f9:57:b5, 2085-97-202 02:237:00:2417,0.344,0.101,1.201,87.83,15.686,-62.744,10.684,-14.469,46.329
 15:41:13.805,eb:33:2e:f9:57:b5, 2085-97-238 02:214:00:2548,0.399,0.118,1.21,96.497,7.263,-63.66,11.761,-14.233,45.709
 15:41:13.805,eb:33:2e:f9:57:b5, 2085-97-92 03:234:00:2629,0.483,0.099,1.268,106.689,7.812,-65.552,12.942,-14.024,45.066
 15:41:13.805,eb:33:2e:f9:57:b5, 2085-97-47 04:52:01:2617,0.531,0.13,1.259,117.92,8.179,-70.19,14.227,-13.782,44.407
 15:41:13.805,eb:33:2e:f9:57:b5, 2085-97-65 04:60:01:2708,0.572,0.155,1.312,127.991,16.357,-80.872,15.634,-13.469,43.687
 15:41:13.807,eb:33:2e:f9:57:b5, 2085-97-204 04:36:01:2813,0.614,0.159,1.333,140.625,15.015,-94.177,17.166,-13.068,42.863
 15:41:13.807,eb:33:2e:f9:57:b5, 2085-97-66 05:01:01:2926,0.715,0.111,1.414,156.921,23.193,-100.586,18.858,-12.579,41.951
 15:41:13.807,eb:33:2e:f9:57:b5, 2085-97-77 06:91:00:3241,0.887,0.096,1.477,180.786,19.409,-101.44,20.737,-12.025,41.039
 15:41:13.807,eb:33:2e:f9:57:b5, 2085-97-24 07:184:254:4143,0.887,-0.02,1.752,223.389,15.076,-69.275,22.917,-11.563,40.265
 15:41:13.858,eb:33:2e:f9:57:b5, 2085-97-19 08:236:253:4684,1.201,-0.291,2.22,286.316,64.209,-19.897,25.532,-11.047,40.04
 15:41:13.858,eb:33:2e:f9:57:b5, 2085-97-209 09:23:255:4603,1.15,-0.175,2.21,330.2,124.451,-28.748,28.608,-10.063,40.298
 15:41:13.858,eb:33:2e:f9:57:b5, 2085-97-195 08:135:255:4496,0.939,-0.026,2.271,349.854,169.25,-86.853,31.998,-8.443,40.605
 15:41:13.859,eb:33:2e:f9:57:b5, 2085-113-81 00:136:113:9932,0.716,0.029,2.359,365.601,159.363,-153.015,35.618,-6.416,40.375
 15:41:13.887,eb:33:2e:f9:57:b5, 2085-97-153 03:212:02:4762,0.231,0.147,2.396,372.559,172.791,-157.349,37.48,-5.273,40.243
 15:41:13.887,eb:33:2e:f9:57:b5, 2085-97-56 01:181:04:4613,0.238,0.458,2.28,382.507,134.705,-143.799,41.259,-3.071,40.051
 15:41:13.887,eb:33:2e:f9:57:b5, 2085-97-218 02:47:03:4565,0.337,0.593,2.26,388.611,63.843,-134.949,45.154,-1.456,39.699
 15:41:13.887,eb:33:2e:f9:57:b5, 2085-97-216 01:130:04:4251,0.318,0.374,2.198,377.991,124.634,-106.812,48.994,0.005,39.457
 15:41:13.946,eb:33:2e:f9:57:b5, 2085-97-123 03:247:02:4291,0.607,0.583,1.87,337.28,122.07,-84.045,52.564,1.642,39.963
 15:41:13.946,eb:33:2e:f9:57:b5, 2085-97-243 06:113:255:4662,1.001,0.113,2.39,293.152,131.531,-71.716,55.701,2.9,40.336
 15:41:13.946,eb:33:2e:f9:57:b5, 2085-97-226 07:203:248:2916,0.919,-0.422,1.885,247.986,226.624,-51.697,58.464,4.488,41.638
 15:41:13.946,eb:33:2e:f9:57:b5, 2085-97-02 08:78:246:1163,1.249,-1.22,1.018,212.036,190.796,-37.842,60.886,5.922,43.22
 15:41:13.976,eb:33:2e:f9:57:b5, 2085-97-243 06:109:252:1760,-0.459,-1.243,0.346,218.323,127.991,-65.125,63.083,7.086,44.396
 15:41:13.976,eb:33:2e:f9:57:b5, 2085-97-245 252:86:00:-4259,0.338,0.041,0.445,190.308,350.464,-116.638,65.643,8.904,46.143
 15:41:13.976,eb:33:2e:f9:57:b5, 2085-97-222 00:242:249:-1463,0.126,-0.104,-2.604,71.472,-138.611,-85.327,66.984,10.217,46.741
 15:41:13.976,eb:33:2e:f9:57:b5, 2085-97-117 00:127:251:-1447,0.062,-0.698,-0.295,-37.903,0,0.061,66.934,10.217,45.802
 15:41:14.006,eb:33:2e:f9:57:b5, 2085-97-253 01:199:248:333,0.415,-0.689,-0.407,-130.127,-120.911,20.02,65.918,9.855,45.269
 15:41:14.006,eb:33:2e:f9:57:b5, 2085-97-122 03:19:249:747,0.402,-0.943,0.381,-176.514,-70.679,49.377,64.193,9.091,44.517
 15:41:14.006,eb:33:2e:f9:57:b5, 2085-97-79 03:254:249:830,0.434,-0.803,0.363,-198.792,-74.097,41.504,62.227,8.372,44.116
 15:41:14.006,eb:33:2e:f9:57:b5, 2085-97-130 03:17:251:796,0.406,-0.685,0.428,-203.735,-68.115,36.438,60.128,7.674,43.654
 15:41:14.067,eb:33:2e:f9:57:b5, 2085-97-07 03:154:252:556,0.352,-0.531,0.338,-202.271,-59.998,30.457,58.052,7.07,43.292
 15:41:14.067,eb:33:2e:f9:57:b5, 2085-97-149 02:119:253:433,0.3,-0.363,0.243,-204.834,-66.223,22.339,55.959,6.504,42.896
 15:41:14.067,eb:33:2e:f9:57:b5, 2085-97-86 02:203:253:352,0.289,-0.289,0.182,-215.027,-76.416,14.771,53.806,5.944,42.424
 15:41:14.067,eb:33:2e:f9:57:b5, 2085-97-66 02:208:253:421,0.277,-0.275,0.186,-232.544,-87.708,7.263,51.493,5.35,41.83
 15:41:14.097,eb:33:2e:f9:57:b5, 2085-97-38 02:205:253:602,0.287,-0.269,0.236,-252.014,-97.351,2.014,48.994,4.724,41.144
 15:41:14.097,eb:33:2e:f9:57:b5, 2085-97-123 02:213:253:874,0.337,-0.278,0.35,-267.944,-110.291,-3.296,46.307,4.021,40.38
 15:41:14.097,eb:33:2e:f9:57:b5, 2085-97-192 02:249:253:1132,0.323,-0.267,0.49,-279.236,-117.249,-8.728,43.5,3.257,39.523
 15:41:14.097,eb:33:2e:f9:57:b5, 2085-97-140 02:55:254:1309,0.334,-0.237,0.604,-286.682,-119.08,-13.916,40.605,2.45,38.661
 15:41:14.187,eb:33:2e:f9:57:b5, 2085-97-222 02:122:254:1622,0.364,-0.213,0.711,-290.71,-133.179,-18.799,37.678,1.571,37.738
 15:41:14.187,eb:33:2e:f9:57:b5, 2085-97-228 02:215:254:1805,0.338,-0.179,0.836,-293.335,-137.024,-21.545,34.711,0.604,36.782
 15:41:14.188,eb:33:2e:f9:57:b5, 2085-97-180 02:36:255:2003,0.331,-0.132,0.954,-295.715,-144.653,-26.794,31.761,-0.45,35.804
 15:41:14.188,eb:33:2e:f9:57:b5, 2085-97-154 02:71:255:2206,0.315,-0.097,1.019,-296.265,-156.067,-31.677,28.795,-1.615,34.81
 15:41:14.188,eb:33:2e:f9:57:b5, 2085-97-96 02:82:255:2404,0.279,-0.086,1.125,-294.495,-165.466,-35.461,25.878,-2.889,33.772
 15:41:14.188,eb:33:2e:f9:57:b5, 2085-97-34 02:92:255:2679,0.262,-0.084,1.239,-288.879,-177.063,-36.377,23.005,-4.318,32.75
 15:41:14.188,eb:33:2e:f9:57:b5, 2085-97-35 02:136:255:2941,0.254,-0.07,1.375,-281.616,-185.364,-33.447,20.242,-5.883,31.75
 15:41:14.188,eb:33:2e:f9:57:b5, 2085-97-217 01:222:255:3151,0.212,-0.041,1.5,-275.574,-187.012,-26.428,17.545,-7.564,30.883
 15:41:14.216,eb:33:2e:f9:57:b5, 2085-97-110 01:220:255:3274,0.178,-0.007,1.559,-272.339,-190.247,-19.531,14.914,-9.311,30.135
 15:41:14.216,eb:33:2e:f9:57:b5, 2085-97-177 01:13:00:3413,0.229,-0.019,1.608,-268.127,-197.449,-10.742,12.299,-11.162,29.553
 15:41:14.216,eb:33:2e:f9:57:b5, 2085-97-208 01:21:01:3858,0.236,0.065,1.799,-265.076,-202.209,-4.211,9.728,-13.134,29.086
 15:41:14.216,eb:33:2e:f9:57:b5, 2085-97-243 01:120:02:4263,0.225,0.216,1.972,-259.644,-209.167,0.977,7.163,-15.167,28.79
 15:41:14.246,eb:33:2e:f9:57:b5, 2085-97-138 01:232:03:4576,0.158,0.395,2.17,-252.319,-208.313,7.202,4.653,-17.26,28.608
 15:41:14.246,eb:33:2e:f9:57:b5, 2085-97-23 01:11:05:4902,0.114,0.565,2.313,-241.821,-210.754,16.541,2.17,-19.363,28.625
 15:41:14.246,eb:33:2e:f9:57:b5, 2085-97-148 00:248:05:5120,0,0.688,2.456,-229.248,-201.111,27.771,-0.253,-21.434,28.834
 15:41:14.246,eb:33:2e:f9:57:b5, 2085-97-39 255:233:06:5095,-0.229,0.81,2.508,-215.088,-181.152,37.415,-2.642,-23.335,29.262
 15:41:14.336,eb:33:2e:f9:57:b5, 2085-97-05 253:62:08:4834,-0.549,0.933,2.428,-197.327,-166.321,39.734,-4.927,-25.021,29.822
 15:41:14.336,eb:33:2e:f9:57:b5, 2085-97-252 249:62:10:4517,-0.903,1.153,2.297,-179.565,-154.236,39.001,-7.086,-26.576,30.454
 15:41:14.336,eb:33:2e:f9:57:b5, 2085-97-193 247:21:12:4218,-0.993,1.407,2.099,-167.847,-161.743,33.997,-9.113,-28.054,31.119
 15:41:14.336,eb:33:2e:f9:57:b5, 2085-97-08 248:25:14:4865,-0.833,1.642,2.165,-160.278,-184.082,30.09,-11.113,-29.718,31.86
 15:41:14.368,eb:33:2e:f9:57:b5, 2085-97-149 250:242:18:4362,-0.653,2.053,2.289,-153.564,-119.507,44.678,-13.079,-31.163,32.662
 15:41:14.368,eb:33:2e:f9:57:b5, 2085-97-01 249:195:23:4243,-1.28,2.673,2.134,-154.785,6.042,8.667,-14.886,-31.663,33.124
 15:41:14.368,eb:33:2e:f9:57:b5, 2085-97-246 241:04:29:2897,-2.006,3.3,1.807,-103.027,168.457,25.513,-16.106,-30.608,32.904
 15:41:14.368,eb:33:2e:f9:57:b5, 2085-97-128 242:139:26:3303,-1.134,3.752,1.183,-34.546,-9.705,-54.321,-16.562,-29.619,32.558
 15:41:14.396,eb:33:2e:f9:57:b5, 2085-97-90 249:65:19:4257,-0.692,2.769,2.065,36.987,-75.012,-129.944,-16.062,-30.701,31.597
 15:41:14.396,eb:33:2e:f9:57:b5, 2085-97-47 251:105:15:3541,-0.557,2.169,1.912,84.595,20.02,-153.992,-14.601,-31.245,30.07
 15:41:14.396,eb:33:2e:f9:57:b5, 2085-97-04 27:22:01:3416,1.511,1.71,1.635,98.572,57.373,-164.246,-12.645,-31.218,28.076
 15:41:14.396,eb:33:2e:f9:57:b5, 2085-97-212 08:153:255:7200,0.133,-1.17,4.347,204.773,-192.139,-93.201,-10.267,-35.134,26.526
 15:41:14.427,eb:33:2e:f9:57:b5, 2085-97-87 09:54:245:-2436,2.205,-0.214,-0.717,107.239,-74.219,-160.156,-8.064,-34.146,25.148
 15:41:14.427,eb:33:2e:f9:57:b5, 2085-97-168 19:27:239:250,1.894,-2.345,0.127,73.364,-287.72,-157.776,-6.174,-37.419,23.489
 15:41:14.427,eb:33:2e:f9:57:b5, 2085-97-251 05:104:253:1156,0.32,-0.725,0.546,40.588,-144.287,-153.381,-4.51,-39.54,21.736
 15:41:14.427,eb:33:2e:f9:57:b5, 2085-97-01 06:116:254:2769,0.898,-0.157,0.868,88.196,-242.493,-72.144,-3.076,-41.55,20.336
 15:41:14.547,eb:33:2e:f9:57:b5, 2085-97-91 05:215:01:3702,0.375,-0.114,1.63,123.108,9.705,5.737,-1.791,-42.819,20.149
 15:41:14.547,eb:33:2e:f9:57:b5, 2085-97-66 03:180:02:2818,0.23,0.341,1.704,90.881,301.147,38.208,-0.89,-40.974,20.352
 15:41:14.547,eb:33:2e:f9:57:b5, 2085-97-07 00:57:02:3159,0.137,0.463,1.334,29.175,397.949,28.503,-0.538,-37.31,20.775
 15:41:14.547,eb:33:2e:f9:57:b5, 2085-97-225 01:77:00:861,0.239,0.093,1.011,-10.315,448.181,34.668,-0.698,-32.888,21.05
 15:41:14.549,eb:33:2e:f9:57:b5, 2085-97-01 02:59:00:1360,0.165,-0.021,0.374,9.827,258.118,31.006,-0.873,-29.372,21.313
 15:41:14.549,eb:33:2e:f9:57:b5, 2085-97-168 00:67:00:1823,0.228,0.152,0.934,1.892,186.768,20.447,-0.89,-27.301,21.572
 15:41:14.549,eb:33:2e:f9:57:b5, 2085-97-97 02:100:255:1157,0.292,-0.057,0.583,-6.531,104.431,10.254,-1.016,-25.763,21.643
 15:41:14.549,eb:33:2e:f9:57:b5, 2085-97-79 02:247:255:1946,0.325,-0.049,0.814,11.658,5.31,15.076,-1.011,-25.362,21.764
 15:41:14.550,eb:33:2e:f9:57:b5, 2085-97-06 03:05:00:1689,0.426,0.001,0.896,9.521,-5.798,17.212,-0.983,-25.362,21.951
 15:41:14.550,eb:33:2e:f9:57:b5, 2085-97-188 03:11:00:1861,0.525,0.004,0.83,13,-32.41,19.592,-0.956,-25.554,22.154
 15:41:14.550,eb:33:2e:f9:57:b5, 2085-97-125 04:47:00:1904,0.558,0.019,0.937,15.015,-20.081,21.667,-0.912,-25.845,22.357
 15:41:14.550,eb:33:2e:f9:57:b5, 2085-97-116 04:56:00:1856,0.557,0.021,0.919,14.709,4.822,20.142,-0.862,-25.884,22.582
 15:41:14.576,eb:33:2e:f9:57:b5, 2085-97-65 04:83:00:1872,0.505,0.038,0.906,13.611,24.109,16.724,-0.802,-25.73,22.786
 15:41:14.576,eb:33:2e:f9:57:b5, 2085-97-241 03:59:00:1856,0.481,0.036,0.906,10.62,43.396,13.184,-0.747,-25.351,22.939
 15:41:14.577,eb:33:2e:f9:57:b5, 2085-97-116 03:37:00:1880,0.389,0.028,0.908,8.728,53.772,10.193,-0.698,-24.857,23.022
 15:41:14.577,eb:33:2e:f9:57:b5, 2085-97-232 02:05:00:1823,0.357,0.013,0.901,7.385,55.237,8.728,-0.654,-24.28,23.11
 15:41:14.636,eb:33:2e:f9:57:b5, 2085-97-217 02:231:255:1871,0.348,-0.007,0.908,8.301,41.565,6.775,-0.604,-23.807,23.154
 15:41:14.636,eb:33:2e:f9:57:b5, 2085-97-201 02:240:255:1875,0.36,-0.011,0.911,9.705,30.762,5.615,-0.533,-23.434,23.209
 15:41:14.636,eb:33:2e:f9:57:b5, 2085-97-234 02:234:255:1894,0.382,-0.007,0.917,11.047,21.179,4.944,-0.45,-23.181,23.264
 15:41:14.636,eb:33:2e:f9:57:b5, 2085-97-57 03:04:00:1891,0.401,-0.001,0.921,12.695,15.747,4.639,-0.341,-22.994,23.313
