Time,Device name,Chip Time(),Acceleration X(g),Acceleration Y(g),Acceleration Z(g),Angular velocity X(°/s),Angular velocity Y(°/s),Angular velocity Z(°/s),Angle X(°),Angle Y(°),Angle Z(°)
 15:39:55.373,eb:33:2e:f9:57:b5, 2085-97-215 15:150:00:291,2.067,0.049,0.236,-572.388,-90.637,-45.593,51.79,22.786,-113.148
 15:39:55.373,eb:33:2e:f9:57:b5, 2085-97-146 16:144:02:1434,1.87,0.146,0.431,-555.969,-197.205,-2.197,45.604,21.879,-114.593
 15:39:55.373,eb:33:2e:f9:57:b5, 2085-97-38 14:230:05:1958,1.622,0.471,0.884,-529.785,-220.581,44.8,39.644,20.193,-115.928
 15:39:55.373,eb:33:2e:f9:57:b5, 2085-97-230 10:185:07:2258,1.33,0.892,1.051,-470.276,-266.174,84.717,34.31,17.803,-116.927
 15:39:55.375,eb:33:2e:f9:57:b5, 2085-97-61 10:192:10:2574,1.123,1.173,1.148,-375.244,-347.961,119.568,29.905,14.59,-117.669
 15:39:55.375,eb:33:2e:f9:57:b5, 2085-97-184 07:249:12:2556,0.835,1.487,1.282,-301.331,-375.427,125.183,26.428,10.767,-118.312
 15:39:55.375,eb:33:2e:f9:57:b5, 2085-97-68 05:234:13:2324,0.439,1.693,1.192,-255.676,-395.569,101.501,23.571,6.74,-118.916
 15:39:55.375,eb:33:2e:f9:57:b5, 2085-97-186 01:62:14:1816,-0.044,1.747,1.038,-234.192,-383.24,62.683,21.083,2.829,-119.636
 15:39:55.377,eb:33:2e:f9:57:b5, 2085-97-183 253:91:14:1198,-0.603,1.793,0.759,-228.638,-363.281,23.315,18.748,-0.835,-120.515
 15:39:55.377,eb:33:2e:f9:57:b5, 2085-97-193 248:165:13:209,-1.264,1.739,0.388,-235.291,-335.999,-17.883,16.469,-4.164,-121.564
 15:39:55.377,eb:33:2e:f9:57:b5, 2085-97-208 243:29:14:-271,-1.77,1.682,-0.034,-239.502,-334.839,-33.02,14.183,-7.339,-122.706
 15:39:55.377,eb:33:2e:f9:57:b5, 2085-97-25 239:01:17:773,-2.536,1.898,-0.017,-241.455,-336.121,-25.146,11.926,-10.574,-123.805
 15:39:55.433,eb:33:2e:f9:57:b5, 2085-97-115 233:196:23:2611,-2.744,2.519,0.827,-221.741,-291.931,6.104,9.723,-13.634,-124.415
 15:39:55.433,eb:33:2e:f9:57:b5, 2085-97-58 233:124:28:4275,-2.836,3.36,1.66,-208.862,-250.671,-41.87,7.729,-16.342,-125.035
 15:39:55.433,eb:33:2e:f9:57:b5, 2085-97-192 233:178:30:4157,-2.737,3.745,2.075,-178.528,-146.79,-68.298,6.021,-18.133,-125.821
 15:39:55.433,eb:33:2e:f9:57:b5, 2085-97-91 234:150:28:3769,-2.809,3.777,1.956,-140.747,-79.163,-96.252,4.757,-19.166,-126.815
 15:39:55.463,eb:33:2e:f9:57:b5, 2085-97-19 234:01:27:3854,-2.767,3.489,1.513,-89.905,-60.12,-92.285,3.933,-19.605,-127.842
 15:39:55.463,eb:33:2e:f9:57:b5, 2085-97-69 233:104:28:5740,-2.936,3.379,2.53,-38.696,-29.907,-67.383,3.625,-20.149,-128.743
 15:39:55.463,eb:33:2e:f9:57:b5, 2085-97-82 233:84:31:6545,-3.002,3.801,3.029,20.081,-6.531,-27.893,3.713,-20.242,-129.227
 15:39:55.463,eb:33:2e:f9:57:b5, 2085-97-125 232:40:33:6287,-2.777,4.105,3.207,79.59,32.349,10.315,4.268,-20.121,-129.194
 15:39:55.463,eb:33:2e:f9:57:b5, 2085-113-81 00:54:55:-4344,-2.663,4.162,2.586,141.968,67.2,40.283,5.279,-19.567,-128.914
 15:39:55.493,eb:33:2e:f9:57:b5, 2085-97-189 235:207:35:4546,-2.474,4.361,2.528,173.218,96.497,45.105,5.993,-19.166,-128.639
 15:39:55.493,eb:33:2e:f9:57:b5, 2085-97-211 235:219:34:2964,-2.59,4.492,1.902,246.216,146.423,27.527,7.943,-17.996,-128.084
 15:39:55.493,eb:33:2e:f9:57:b5, 2085-97-176 234:66:26:1528,-2.638,3.938,1.051,313.232,153.992,-11.78,10.695,-16.479,-127.771
 15:39:55.493,eb:33:2e:f9:57:b5, 2085-97-11 236:213:09:-538,-3.885,2.369,0.326,345.825,146.79,-40.527,14.03,-14.941,-127.727
 15:39:55.582,eb:33:2e:f9:57:b5, 2085-97-229 221:148:240:721,-0.198,2.328,0.37,273.254,285.889,-25.818,17.523,-13.151,-127.54
 15:39:55.582,eb:33:2e:f9:57:b5, 2085-97-226 78:52:59:-7871,9.667,0.449,-2.475,-152.954,17.334,423.95,16.677,-10.69,-126.546
 15:39:55.582,eb:33:2e:f9:57:b5, 2085-97-106 58:06:250:8750,5.871,4.938,5.15,-215.637,-125,298.157,14.469,-14.573,-124.047
 15:39:55.582,eb:33:2e:f9:57:b5, 2085-97-164 50:112:254:7609,3.223,-1.145,5.26,-256.287,-41.443,-191.711,11.755,-14.447,-123.305
 15:39:55.584,eb:33:2e:f9:57:b5, 2085-97-92 231:64:246:5556,-5.518,-0.2,3.205,-96.13,298.706,-151.794,10.371,-12.272,-124.942
 15:39:55.584,eb:33:2e:f9:57:b5, 2085-97-134 214:58:236:6229,-4.617,-2.227,2.807,30.457,-42.236,-150.696,10.481,-11.299,-126.436
 15:39:55.584,eb:33:2e:f9:57:b5, 2085-97-12 232:04:247:4235,-0.75,-2.062,2.98,160.4,-13.611,30.212,11.646,-11.398,-126.931
 15:39:55.584,eb:33:2e:f9:57:b5, 2085-97-135 10:157:03:2839,2.63,-0.039,1.4,220.093,-78.064,82.581,13.519,-12.03,-126.359
 15:39:55.613,eb:33:2e:f9:57:b5, 2085-97-08 22:95:07:2961,2.35,0.525,1.553,211.914,-15.686,21.362,15.623,-12.739,-125.98
 15:39:55.613,eb:33:2e:f9:57:b5, 2085-97-154 12:137:03:2935,0.761,0.84,1.493,190.43,27.405,-69.702,17.677,-12.48,-126.249
 15:39:55.613,eb:33:2e:f9:57:b5, 2085-97-152 00:145:254:4040,-0.293,0.123,1.734,198.364,22.095,-105.164,19.781,-12.003,-127.095
 15:39:55.613,eb:33:2e:f9:57:b5, 2085-97-143 254:63:250:5579,0.251,-0.466,2.18,242.615,-12.878,-96.069,22.159,-11.563,-128.029
 15:39:55.674,eb:33:2e:f9:57:b5, 2085-97-210 06:06:249:6908,1.516,-0.829,3.174,316.895,16.724,-84.229,25.131,-11.217,-128.848
 15:39:55.674,eb:33:2e:f9:57:b5, 2085-97-85 17:248:246:8360,2.787,-0.987,3.699,414.673,27.71,-110.84,28.971,-10.613,-129.617
 15:39:55.674,eb:33:2e:f9:57:b5, 2085-97-225 28:65:242:10450,4.419,-1.354,4.501,531.311,49.072,-178.772,33.915,-9.498,-130.633
 15:39:55.674,eb:33:2e:f9:57:b5, 2085-97-188 40:50:243:13527,5.564,-2.001,5.639,678.833,115.479,-297.791,40.21,-7.388,-132.056
 15:39:55.704,eb:33:2e:f9:57:b5, 2085-97-101 45:116:02:14331,4.877,-0.975,7.191,798.889,253.784,-439.453,47.895,-3.4,-133.412
 15:39:55.704,eb:33:2e:f9:57:b5, 2085-97-31 19:11:24:14983,1.802,1.613,6.634,756.531,269.775,-543.457,55.723,2.318,-134.423
 15:39:55.704,eb:33:2e:f9:57:b5, 2085-97-226 10:134:46:7749,2.494,4.38,6.58,656.067,314.27,-425.964,62.913,7.839,-134.346
 15:39:55.704,eb:33:2e:f9:57:b5, 2085-97-47 34:210:28:6939,5.293,6.786,1.847,367.004,172.668,-258.118,68.324,11.827,-132.654
 15:39:55.733,eb:33:2e:f9:57:b5, 2085-97-133 18:213:43:26378,-1.743,-0.425,5.597,632.812,-227.722,-187.866,71.499,14.859,-134.539
 15:39:55.733,eb:33:2e:f9:57:b5, 2085-97-205 19:94:01:4824,1.741,1.846,9.534,502.319,561.401,-306.458,77.635,18.918,-133.874
 15:39:55.733,eb:33:2e:f9:57:b5, 2085-97-61 21:63:235:19892,3.114,-1.131,10.515,562.561,-32.837,-130.676,82.908,20.616,-134.225
 15:39:55.733,eb:33:2e:f9:57:b5, 2085-97-237 24:125:234:16850,2.267,-2.751,7.884,550.476,254.15,-27.283,89.247,21.374,-131.885
 15:39:55.822,eb:33:2e:f9:57:b5, 2085-97-71 14:197:235:11708,2.076,-2.714,7.097,530.762,426.086,22.4,96.114,21.231,-127.738
 15:39:55.822,eb:33:2e:f9:57:b5, 2085-97-29 19:155:243:6311,2.402,-1.949,4.54,483.826,386.23,74.585,102.722,19.957,-123.777
 15:39:55.822,eb:33:2e:f9:57:b5, 2085-97-33 16:70:243:2312,1.547,-1.53,1.277,282.776,250.549,18.677,107.661,18.594,-120.278
 15:39:55.822,eb:33:2e:f9:57:b5, 2085-97-147 12:164:242:4897,1.6,-1.657,2.026,108.215,51.147,-28.32,109.891,18.298,-119.136
 15:39:55.883,eb:33:2e:f9:57:b5, 2085-97-202 10:41:240:5880,1.036,-1.852,2.676,-34.241,-1.16,-80.261,110.22,18.776,-118.751
 15:39:55.883,eb:33:2e:f9:57:b5, 2085-97-44 05:38:237:4360,0.207,-2.139,2.576,-156.616,35.095,-117.31,109.391,19.677,-118.163
 15:39:55.883,eb:33:2e:f9:57:b5, 2085-97-99 255:31:234:2530,-0.195,-2.56,1.772,-286.011,77.515,-121.887,107.408,20.665,-117.257
 15:39:55.883,eb:33:2e:f9:57:b5, 2085-97-34 253:16:232:011,-0.507,-2.833,0.643,-431.396,152.222,-93.323,104.321,21.385,-115.703
 15:39:55.885,eb:33:2e:f9:57:b5, 2085-97-54 253:04:229:-1292,-0.104,-3.223,-0.533,-565.369,152.161,-26.672,99.877,21.632,-113.868
 15:39:55.885,eb:33:2e:f9:57:b5, 2085-97-218 00:106:230:-695,0.393,-3.351,-0.556,-671.082,112.366,64.575,94.136,21.237,-112.478
 15:39:55.885,eb:33:2e:f9:57:b5, 2085-97-12 07:162:236:1555,1.431,-2.84,0.349,-755.676,96.436,141.907,87.242,20.105,-111.577
 15:39:55.885,eb:33:2e:f9:57:b5, 2085-97-73 15:235:242:1458,2.61,-1.941,0.745,-832.703,123.901,135.193,79.772,18.754,-110.061
 15:39:55.913,eb:33:2e:f9:57:b5, 2085-97-21 26:16:249:1211,3.59,-1.28,0.565,-899.048,33.02,31.433,71.345,18.133,-109.039
 15:39:55.913,eb:33:2e:f9:57:b5, 2085-97-237 28:185:253:1068,3.3,-0.499,0.666,-955.444,-52.124,-125.854,61.891,18.545,-109.468
 15:39:55.913,eb:33:2e:f9:57:b5, 2085-97-85 25:166:253:273,3.312,-0.264,0.308,-958.618,-167.48,-168.457,51.581,19.276,-111.434
 15:39:55.913,eb:33:2e:f9:57:b5, 2085-97-79 27:142:253:1944,3.188,-0.318,0.41,-955.017,-348.45,-180.786,40.974,18.611,-114.664
 15:39:55.943,eb:33:2e:f9:57:b5, 2085-97-41 19:158:00:4873,1.228,-0.158,1.548,-882.324,-470.215,-123.779,30.416,16.139,-118.68
 15:39:55.943,eb:33:2e:f9:57:b5, 2085-97-207 06:150:06:3122,1.031,0.389,2.791,-713.379,-329.224,9.705,21.94,12.574,-120.932
 15:39:55.943,eb:33:2e:f9:57:b5, 2085-97-185 04:248:11:1307,-0.098,1.2,0.375,-549.438,-458.801,51.086,15.507,8.926,-121.827
 15:39:55.943,eb:33:2e:f9:57:b5, 2085-113-58 00:216:220:-5670,-0.682,1.966,0.649,-424.194,-399.536,151.123,10.756,4.356,-121.789
 15:39:55.972,eb:33:2e:f9:57:b5, 2085-97-58 249:19:25:227,-1.035,2.606,0.125,-382.935,-441.284,169.617,8.745,2.153,-121.317
 15:39:55.972,eb:33:2e:f9:57:b5, 2085-97-242 244:13:36:1872,-1.562,3.771,0.653,-349.609,-476.501,176.147,5.131,-2.845,-120.152
 15:39:55.972,eb:33:2e:f9:57:b5, 2085-97-135 243:89:46:2811,-1.676,5.199,0.897,-341.797,-474.426,132.385,1.511,-7.553,-118.839
 15:39:55.972,eb:33:2e:f9:57:b5, 2085-97-90 241:80:55:4701,-1.815,6.375,1.949,-315.308,-417.419,90.149,-1.961,-12.112,-117.697
 15:39:56.067,eb:33:2e:f9:57:b5, 2085-97-220 240:06:62:6248,-2.098,7.37,2.741,-263.733,-338.013,5.493,-5.059,-15.859,-116.966
 15:39:56.067,eb:33:2e:f9:57:b5, 2085-97-58 237:82:66:7114,-2.51,8.077,3.218,-187.256,-260.864,-87.891,-7.251,-18.77,-117.098
 15:39:56.067,eb:33:2e:f9:57:b5, 2085-97-160 233:193:66:9003,-3.146,8.365,3.769,-90.637,-232.361,-165.283,-8.289,-21.363,-118.125
 15:39:56.067,eb:33:2e:f9:57:b5, 2085-97-140 227:146:62:11315,-3.795,8.171,5.137,21.362,-197.754,-213.989,-7.905,-23.813,-119.877
 15:39:56.067,eb:33:2e:f9:57:b5, 2085-97-164 225:206:52:11574,-3.602,7.292,5.596,105.591,-134.46,-205.444,-6.334,-25.708,-121.97
 15:39:56.067,eb:33:2e:f9:57:b5, 2085-97-121 229:199:42:10890,-3.281,5.944,5.608,168.884,-19.104,-167.542,-4.076,-26.658,-123.915
 15:39:56.068,eb:33:2e:f9:57:b5, 2085-97-19 228:104:36:7678,-3.511,4.924,4.695,250.793,137.451,-135.986,-1.192,-26.054,-125.634
 15:39:56.068,eb:33:2e:f9:57:b5, 2085-97-211 219:13:65:16760,9.5,3.899,2.858,331.238,192.2,-90.088,2.258,-24.269,-126.87
 15:39:56.092,eb:33:2e:f9:57:b5, 2085-97-174 105:121:65:-1514,5.327,2.31,8.195,-323.669,268.372,-388.489,1.555,-26.461,-126.7
 15:39:56.092,eb:33:2e:f9:57:b5, 2085-97-187 236:00:245:913,0.595,0.688,-2.224,-224.731,493.103,-13.855,-0.692,-20.605,-126.09
 15:39:56.092,eb:33:2e:f9:57:b5, 2085-97-16 249:205:215:15512,-6.151,-2.11,4.41,-75.928,-218.567,-710.144,0.209,-21.451,-130.913
 15:39:56.093,eb:33:2e:f9:57:b5, 2085-97-185 194:98:253:4474,-0.939,-4.121,8.74,269.897,-544.8,-152.222,2.39,-17.435,-134.253
 15:39:56.153,eb:33:2e:f9:57:b5, 2085-97-252 249:247:06:-4017,0.98,0.145,-8.769,207.947,162.415,12.512,4.076,-10.563,-134.473
 15:39:56.153,eb:33:2e:f9:57:b5, 2085-97-148 19:229:07:3978,1.544,0.372,1.774,178.284,-246.582,-13.733,6.185,-14.008,-135.044
 15:39:56.153,eb:33:2e:f9:57:b5, 2085-97-212 17:205:06:1454,2.125,0.863,1.131,158.508,-174.805,-57.251,7.938,-15.304,-135.626
 15:39:56.153,eb:33:2e:f9:57:b5, 2085-97-141 255:82:252:1787,-1.466,0.49,0.56,197.998,-613.281,-69.031,10.151,-19.688,-137.01
 15:39:56.182,eb:33:2e:f9:57:b5, 2085-97-25 251:245:252:8588,-0.832,-0.314,4.377,243.835,-339.172,-27.344,13.239,-25.291,-138.477
 15:39:56.182,eb:33:2e:f9:57:b5, 2085-97-91 251:190:250:5000,0.535,-0.564,2.434,230.896,104.37,1.587,15.43,-25.01,-138.604
 15:39:56.182,eb:33:2e:f9:57:b5, 2085-97-185 09:158:249:7465,1.806,-0.742,3.447,288.696,90.271,-10.315,17.99,-24.351,-138.472
 15:39:56.182,eb:33:2e:f9:57:b5, 2085-97-47 20:122:248:9185,3.127,-0.681,4.153,382.324,143.921,-33.325,21.27,-23.132,-138.203
 15:39:56.212,eb:33:2e:f9:57:b5, 2085-97-174 29:101:242:9889,4.275,-1.212,4.668,497.498,200.256,-88.501,25.653,-21.242,-138.032
 15:39:56.212,eb:33:2e:f9:57:b5, 2085-97-22 40:179:237:10652,5.835,-2.094,4.915,633.118,207.397,-192.932,31.454,-18.732,-138.312
 15:39:56.212,eb:33:2e:f9:57:b5, 2085-97-82 55:249:243:16242,7.125,-2.291,6.134,800.781,193.176,-357.239,38.996,-15.546,-139.548
 15:39:56.212,eb:33:2e:f9:57:b5, 2085-97-19 47:106:19:15021,3.985,0.44,8.205,908.447,358.765,-516.357,48.098,-10.421,-140.922
 15:39:56.272,eb:33:2e:f9:57:b5, 2085-97-46 20:17:58:15496,1.488,4.532,8.644,840.454,206.36,-553.345,56.981,-4.334,-142.152
 15:39:56.272,eb:33:2e:f9:57:b5, 2085-97-116 28:193:77:2521,5.298,9.909,3.783,558.777,336.304,-384.399,64.166,1.208,-142.141
 15:39:56.272,eb:33:2e:f9:57:b5, 2085-97-84 58:127:46:18368,-1.796,-0.583,2.791,433.655,-318.726,-409.668,67.269,5.565,-144.135
 15:39:56.272,eb:33:2e:f9:57:b5, 2085-97-85 27:208:15:1893,2.715,0.597,12.086,527.222,894.409,-262.573,73.103,9.344,-144.256
 15:39:56.303,eb:33:2e:f9:57:b5, 2085-97-127 22:67:00:28641,4.075,-0.269,9.084,732.056,-376.587,-96.497,78.964,11.305,-143.723
 15:39:56.303,eb:33:2e:f9:57:b5, 2085-97-238 37:91:252:20758,3.798,-0.502,10.592,803.894,279.724,-5.798,86.825,12.211,-142.092
 15:39:56.303,eb:33:2e:f9:57:b5, 2085-97-207 22:243:237:14120,3.52,-1.938,8.906,806.702,413.208,7.324,95.576,12.349,-138.604
 15:39:56.303,eb:33:2e:f9:57:b5, 2085-97-219 26:145:00:11632,2.613,-1.029,5.558,804.993,277.039,39.001,104.409,11.42,-135.385
 15:39:56.332,eb:33:2e:f9:57:b5, 2085-97-221 24:187:254:5300,2.749,0.042,4.583,624.756,352.661,-71.777,112.094,10.607,-132.111
 15:39:56.332,eb:33:2e:f9:57:b5, 2085-97-157 14:119:247:4880,1.478,-0.676,1.748,410.645,81.726,-178.65,117.62,10.915,-129.402
 15:39:56.332,eb:33:2e:f9:57:b5, 2085-97-50 12:234:240:7193,1.629,-1.421,2.997,199.219,-88.501,-232.971,120.652,12.903,-128.595
 15:39:56.332,eb:33:2e:f9:57:b5, 2085-97-00 15:140:233:9823,1.833,-2.432,4.311,56.458,-148.987,-234.619,121.794,15.65,-128.551
 15:39:56.393,eb:33:2e:f9:57:b5, 2085-97-117 10:109:228:9947,0.413,-3.104,5.105,-11.902,-35.889,-209.229,121.976,18.056,-128.232
 15:39:56.393,eb:33:2e:f9:57:b5, 2085-97-236 00:67:224:6930,0.295,-3.816,4.126,-54.749,87.28,-165.894,122.097,19.429,-126.744
 15:39:56.393,eb:33:2e:f9:57:b5, 2085-97-162 01:224:219:2421,-0.047,-4.146,2.404,-144.897,172.302,-70.068,121.674,19.709,-124.958
 15:39:56.393,eb:33:2e:f9:57:b5, 2085-97-15 254:253:213:-2755,0.042,-4.973,-0.091,-314.026,283.386,81.36,120.037,18.474,-122.888
 15:39:56.425,eb:33:2e:f9:57:b5, 2085-97-184 05:197:217:-4710,1.251,-5.157,-2.296,-529.175,327.271,231.934,116.301,15.381,-120.707
 15:39:56.425,eb:33:2e:f9:57:b5, 2085-97-18 12:214:231:-2586,1.708,-3.914,-1.578,-688.721,284.241,267.334,110.484,11.827,-119.108
 15:39:56.425,eb:33:2e:f9:57:b5, 2085-97-233 19:82:241:-1488,3.423,-2.536,-1.084,-812.378,239.685,202.148,103.156,8.729,-117.021
 15:39:56.425,eb:33:2e:f9:57:b5, 2085-97-94 28:40:245:010,3.201,-1.395,-0.373,-945.557,131.165,-2.441,94.504,7.652,-115.653
 15:39:56.454,eb:33:2e:f9:57:b5, 2085-97-123 22:231:242:1259,2.586,-1.323,0.19,-1018.005,119.08,-107.3,84.776,8.174,-114.175
 15:39:56.454,eb:33:2e:f9:57:b5, 2085-97-216 20:58:238:3675,2.834,-2.047,1.214,-1036.682,-30.273,-197.998,74.432,9.838,-114.137
 15:39:56.454,eb:33:2e:f9:57:b5, 2085-97-123 22:99:239:6173,2.569,-2.171,2.395,-1032.227,-179.138,-239.197,63.655,11.481,-116.104
 15:39:56.454,eb:33:2e:f9:57:b5, 2085-97-160 16:206:239:7609,1.854,-1.962,3.398,-998.169,-260.559,-180.481,52.85,12.112,-119.163
 15:39:56.512,eb:33:2e:f9:57:b5, 2085-97-134 15:42:240:6943,2.032,-2.02,3.639,-922.058,-344.91,-53.345,42.578,10.849,-122.201
 15:39:56.512,eb:33:2e:f9:57:b5, 2085-97-156 15:211:243:6344,1.744,-1.792,3.257,-815.308,-435.364,90.942,33.547,7.509,-124.508
 15:39:56.512,eb:33:2e:f9:57:b5, 2085-97-93 14:73:252:4993,1.677,-1.15,2.825,-700.195,-452.332,213.928,25.856,2.889,-125.277
 15:39:56.512,eb:33:2e:f9:57:b5, 2085-97-176 10:147:05:3907,1.041,0.162,2.22,-616.943,-474.548,273.621,19.347,-2.444,-124.766
 15:39:56.543,eb:33:2e:f9:57:b5, 2085-97-45 06:89:13:2551,0.598,1.241,1.437,-573.303,-417.664,320.435,13.239,-7.515,-123.03
 15:39:56.543,eb:33:2e:f9:57:b5, 2085-97-73 01:17:24:5024,-0.692,2.241,1.516,-553.772,-438.232,328.43,7.191,-12.354,-120.569
 15:39:56.543,eb:33:2e:f9:57:b5, 2085-97-27 244:241:40:6818,-1.282,4.182,3.16,-564.88,-334.961,270.874,0.851,-16.271,-117.57
 15:39:56.543,eb:33:2e:f9:57:b5, 2085-97-199 246:229:47:11073,-1.041,5.531,4.447,-558.228,-420.776,149.048,-5.51,-20.341,-115.378
 15:39:56.572,eb:33:2e:f9:57:b5, 2085-97-98 245:196:56:11516,-1.716,6.471,5.685,-499.695,-249.451,68.604,-11.492,-23.39,-113.681
 15:39:56.572,eb:33:2e:f9:57:b5, 2085-97-234 239:146:62:9503,-2.037,7.426,5.147,-410.95,-137.573,-11.475,-16.298,-25.071,-113.005
 15:39:56.572,eb:33:2e:f9:57:b5, 2085-97-162 238:244:63:10561,-2.311,7.864,4.792,-307.983,-160.645,-53.162,-19.973,-26.642,-112.857
 15:39:56.572,eb:33:2e:f9:57:b5, 2085-97-189 237:69:70:11891,-2.106,8.369,5.521,-183.289,-140.381,-70.984,-22.357,-28.29,-112.901
 15:39:56.634,eb:33:2e:f9:57:b5, 2085-97-69 239:159:70:10584,-2.22,8.933,5.685,-63.354,-64.209,-94.849,-23.351,-29.559,-113.313
 15:39:56.634,eb:33:2e:f9:57:b5, 2085-97-204 237:186:63:7747,-2.222,8.493,4.469,52.002,-3.296,-102.783,-22.89,-30.19,-114.252
 15:39:56.634,eb:33:2e:f9:57:b5, 2085-97-127 239:213:54:5438,-1.902,7.416,3.146,179.993,13.184,-103.882,-21.105,-30.509,-115.384
 15:39:56.634,eb:33:2e:f9:57:b5, 2085-97-144 242:142:41:3848,-1.492,6.121,2.266,264.465,38.208,-106.323,-18.171,-30.635,-116.625
 15:39:56.692,eb:33:2e:f9:57:b5, 2085-97-01 244:110:27:1591,-1.616,4.262,1.438,320.251,82.092,-111.938,-14.485,-30.372,-118.043
 15:39:56.692,eb:33:2e:f9:57:b5, 2085-97-94 242:174:14:-1261,-2.34,2.661,0.004,337.158,85.083,-95.337,-10.459,-29.685,-119.46
 15:39:56.692,eb:33:2e:f9:57:b5, 2085-97-74 64:172:254:11772,7.483,7.776,12.194,57.983,-127.197,-562.988,-7.284,-32.322,-120.015
 15:39:56.692,eb:33:2e:f9:57:b5, 2085-97-100 184:08:232:-5598,-10.237,10.809,-8.049,-14.648,332.458,-341.675,-5.114,-34.827,-122.201
 15:39:56.782,eb:33:2e:f9:57:b5, 2085-97-34 201:132:08:8933,1.403,-12.728,5.296,638.428,-72.449,583.984,-2.774,-30.152,-124.47
 15:39:56.782,eb:33:2e:f9:57:b5, 2085-97-161 224:197:233:7084,-0.515,5.561,-10.265,95.825,-365.356,-177.734,-0.67,-28.032,-118.943
 15:39:56.782,eb:33:2e:f9:57:b5, 2085-97-06 23:87:11:-2569,5.425,2.659,2.019,51.697,-141.785,-291.077,1.648,-32.009,-120.569
 15:39:56.782,eb:33:2e:f9:57:b5, 2085-97-29 29:139:04:9834,0.069,0.589,4.475,115.54,-233.826,-307.068,4.406,-35.063,-124.151
 15:39:56.784,eb:33:2e:f9:57:b5, 2085-97-179 255:153:255:4400,1.048,-0.356,0.612,152.893,54.382,-336.304,7.701,-33.217,-127.864
 15:39:56.784,eb:33:2e:f9:57:b5, 2085-97-28 07:110:247:5665,-0.667,0.013,3.49,188.171,-92.896,-344.299,12.134,-34.211,-132.567
 15:39:56.784,eb:33:2e:f9:57:b5, 2085-97-131 252:66:236:9372,0.954,-2.143,3.404,374.146,-205.261,-31.372,16.26,-34.717,-135.231
 15:39:56.784,eb:33:2e:f9:57:b5, 2085-97-45 15:249:241:15652,3.18,-2.542,6.088,690.308,-234.314,248.169,21.55,-38.249,-134.555
 15:39:56.786,eb:33:2e:f9:57:b5, 2085-97-43 30:40:238:9365,4.696,-2.438,5.05,695.862,327.393,33.203,26.834,-37.002,-132.231
 15:39:56.786,eb:33:2e:f9:57:b5, 2085-97-65 45:147:241:10108,5.342,-1.968,4.444,766.968,160.522,-200.195,33.915,-34.442,-131.704
 15:39:56.786,eb:33:2e:f9:57:b5, 2085-97-128 39:05:254:10758,4.089,-0.739,5.167,779.602,285.156,-340.637,42.264,-30.839,-132.583
 15:39:56.786,eb:33:2e:f9:57:b5, 2085-97-222 15:99:20:15527,0.258,1.302,7.032,681.641,182.8,-440.735,50.169,-26.603,-134.017
 15:39:56.845,eb:33:2e:f9:57:b5, 2085-97-33 04:66:66:6099,2.71,5.033,5.331,639.709,274.658,-311.646,57.014,-22.044,-134.22
 15:39:56.845,eb:33:2e:f9:57:b5, 2085-97-72 24:167:01:7703,4.831,7.667,1.948,333.435,-302.002,-471.191,62.49,-19.116,-136.11
 15:39:56.845,eb:33:2e:f9:57:b5, 2085-97-04 239:132:31:20053,2.522,7.289,6.302,607.3,12.024,-431.763,68.901,-16.463,-140.18
 15:39:56.846,eb:33:2e:f9:57:b5, 2085-97-91 24:80:19:10709,2.874,4.181,-0.517,407.104,218.201,-344.91,72.68,-11.464,-136.434
 15:39:56.846,eb:33:2e:f9:57:b5, 2085-97-36 29:44:21:18923,2.299,2.425,10.599,519.653,114.441,-345.276,78.085,-8.487,-139.087
 15:39:56.872,eb:33:2e:f9:57:b5, 2085-113-58 00:119:242:-8805,2.75,2.235,9.587,642.151,159.851,-323.486,83.963,-5.076,-137.802
 15:39:56.872,eb:33:2e:f9:57:b5, 2085-97-176 20:15:05:16271,2.068,1.241,8.248,659.485,123.535,-293.945,87.193,-3.477,-137.258
 15:39:56.872,eb:33:2e:f9:57:b5, 2085-97-12 21:62:254:16045,3.385,0.298,7.539,625.793,141.052,-198.73,93.571,-1.132,-135.714
 15:39:56.872,eb:33:2e:f9:57:b5, 2085-97-81 28:87:247:16297,3.259,-0.814,8.301,583.008,244.324,-109.192,99.553,0.209,-133.896
 15:39:56.964,eb:33:2e:f9:57:b5, 2085-97-27 28:197:244:12531,3.437,-1.28,7.031,555.237,322.205,-55.908,105.194,0.264,-130.726
 15:39:56.964,eb:33:2e:f9:57:b5, 2085-97-88 29:01:246:10643,3.697,-1.285,6.091,498.596,295.166,-62.012,110.528,-0.115,-127.848
 15:39:56.964,eb:33:2e:f9:57:b5, 2085-97-247 28:57:246:9040,3.653,-1.208,4.43,422.119,189.148,-87.28,115.032,-0.439,-125.195
 15:39:56.964,eb:33:2e:f9:57:b5, 2085-97-75 29:194:245:8926,3.638,-1.235,4.309,319.153,95.581,-144.348,118.68,-0.005,-123.409
 15:39:56.964,eb:33:2e:f9:57:b5, 2085-97-231 28:54:243:10213,3.501,-1.403,4.765,236.145,1.77,-200.012,121.328,1.346,-122.239
 15:39:56.964,eb:33:2e:f9:57:b5, 2085-97-200 26:07:239:9362,3.09,-1.831,4.881,169.678,5.188,-233.643,123.371,3.203,-121.031
 15:39:56.964,eb:33:2e:f9:57:b5, 2085-97-63 22:163:232:7708,2.082,-2.471,4.2,96.436,20.081,-245.483,124.7,5.142,-119.597
 15:39:56.964,eb:33:2e:f9:57:b5, 2085-97-177 10:176:222:4820,0.814,-3.529,3.255,7.507,40.161,-252.747,125.37,7.02,-117.872
 15:39:57.023,eb:33:2e:f9:57:b5, 2085-97-247 03:160:209:111,0.479,-4.876,1.033,-120.483,-7.263,-207.886,124.92,8.904,-116.406
 15:39:57.023,eb:33:2e:f9:57:b5, 2085-97-178 05:198:205:-2228,0.699,-6.221,-0.437,-307.434,74.951,-16.296,122.877,9.646,-115.571
 15:39:57.023,eb:33:2e:f9:57:b5, 2085-97-107 05:24:212:-2495,1.006,-5.973,-1.235,-505.188,129.333,166.626,118.702,8.311,-115.098
 15:39:57.023,eb:33:2e:f9:57:b5, 2085-97-162 10:66:220:-3583,1.664,-4.9,-1.343,-693.359,228.821,251.77,112.681,5.554,-114.472
 15:39:57.025,eb:33:2e:f9:57:b5, 2085-97-33 20:20:230:-2186,3.333,-3.95,-1.93,-822.449,104.858,233.887,105.002,2.477,-113.434
 15:39:57.025,eb:33:2e:f9:57:b5, 2085-97-68 27:08:237:888,3.153,-2.662,-0.377,-951.599,-50.659,93.933,96.037,1.016,-113.851
 15:39:57.025,eb:33:2e:f9:57:b5, 2085-97-193 24:139:240:3565,3.232,-2.099,1.058,-1033.63,-110.596,37.476,85.974,0.357,-114.521
 15:39:57.025,eb:33:2e:f9:57:b5, 2085-97-203 27:96:242:6640,3.771,-1.846,2.548,-1096.924,-313.232,-50.232,75.245,0.06,-116.757
 15:39:57.143,eb:33:2e:f9:57:b5, 2085-97-38 31:60:247:9796,2.935,-1.318,3.894,-1123.413,-484.558,-140.381,64.023,-0.467,-120.987
 15:39:57.143,eb:33:2e:f9:57:b5, 2085-97-234 12:15:249:15074,1.417,-1.286,6.547,-984.558,-358.765,85.083,53.427,-2.411,-125.266
 15:39:57.143,eb:33:2e:f9:57:b5, 2085-97-128 13:103:249:10391,1.887,-0.594,5.618,-903.748,-323.364,121.887,44.083,-5.109,-126.167
 15:39:57.143,eb:33:2e:f9:57:b5, 2085-97-255 11:55:250:10429,0.617,-0.765,5.562,-848.022,-379.333,153.381,35.601,-9.223,-127.908
 15:39:57.143,eb:33:2e:f9:57:b5, 2085-97-98 02:109:255:8066,0.448,-0.563,4.609,-742.31,-280.09,265.503,27.493,-12.931,-127.584
 15:39:57.143,eb:33:2e:f9:57:b5, 2085-97-108 04:162:07:7505,0.441,0.403,3.567,-632.324,-429.565,288.391,20.38,-17.325,-126.403
 15:39:57.143,eb:33:2e:f9:57:b5, 2085-97-103 255:48:21:7443,-0.701,1.686,3.721,-542.175,-370.3,357.605,13.799,-22.28,-124.36
 15:39:57.143,eb:33:2e:f9:57:b5, 2085-97-46 251:79:30:7246,-0.316,3.43,3.25,-530.09,-416.138,289.368,7.295,-26.433,-121.465
 15:39:57.146,eb:33:2e:f9:57:b5, 2085-97-74 253:204:37:9775,-0.36,4.19,4.405,-497.986,-401.184,248.474,0.813,-31.091,-118.823
 15:39:57.146,eb:33:2e:f9:57:b5, 2085-97-211 252:224:42:10091,-0.718,5.109,4.897,-469.666,-300.415,206.055,-5.559,-34.36,-115.944
 15:39:57.146,eb:33:2e:f9:57:b5, 2085-97-199 247:167:47:8894,-1.047,5.651,4.576,-430.359,-226.685,159.729,-11.684,-36.573,-113.242
 15:39:57.146,eb:33:2e:f9:57:b5, 2085-97-209 248:205:51:8492,-0.765,6.258,4.254,-393.25,-221.924,129.15,-17.243,-38.403,-110.797
 15:39:57.203,eb:33:2e:f9:57:b5, 2085-97-194 249:101:55:8550,-0.892,6.679,4.155,-362.915,-207.397,94.055,-22.555,-40.029,-108.446
 15:39:57.203,eb:33:2e:f9:57:b5, 2085-97-251 247:140:58:8414,-1.135,7.142,4.189,-306.885,-185.425,41.199,-27.131,-41.506,-106.556
 15:39:57.203,eb:33:2e:f9:57:b5, 2085-97-10 246:107:58:7749,-1.457,7.364,3.949,-222.534,-151.001,-38.94,-30.515,-42.984,-105.447
 15:39:57.204,eb:33:2e:f9:57:b5, 2085-97-152 241:187:53:6956,-2.086,7.08,3.6,-149.841,-93.567,-114.929,-32.261,-44.451,-105.54
 15:39:57.263,eb:33:2e:f9:57:b5, 2085-97-58 238:66:47:6264,-2.261,6.386,3.185,-94.849,-34.851,-159.18,-32.64,-45.709,-106.727
 15:39:57.263,eb:33:2e:f9:57:b5, 2085-97-138 238:95:40:6561,-2.151,5.479,3.136,-32.776,16.113,-181.091,-31.8,-46.714,-108.737
 15:39:57.263,eb:33:2e:f9:57:b5, 2085-97-248 238:38:31:5793,-2.072,4.551,3.126,39.673,90.332,-184.998,-29.784,-47.175,-111.456
 15:39:57.263,eb:33:2e:f9:57:b5, 2085-97-124 240:09:20:4452,-1.772,3.167,2.525,130.676,129.211,-163.818,-26.647,-47.01,-114.527
 15:39:57.265,eb:33:2e:f9:57:b5, 2085-97-119 242:223:06:2840,-1.655,1.735,1.802,192.566,139.954,-119.446,-23.038,-46.346,-117.213
 15:39:57.265,eb:33:2e:f9:57:b5, 2085-97-160 242:241:247:085,-1.352,-0.068,0.784,229.126,134.277,-45.288,-19.605,-45.346,-119.037
 15:39:57.265,eb:33:2e:f9:57:b5, 2085-97-119 47:188:254:10272,3.739,-1.727,-0.769,277.283,16.541,51.636,-16.891,-44.511,-119.301
 15:39:57.265,eb:33:2e:f9:57:b5, 2085-97-217 01:159:28:30619,-1.551,8.424,13.8,1125.366,-551.331,-26.428,-8.361,-51.976,-121.904
 15:39:57.323,eb:33:2e:f9:57:b5, 2085-97-115 53:119:05:-11824,-2.396,9.693,3.266,565.979,-487.732,273.865,-2.23,-58.409,-118.13
 15:39:57.323,eb:33:2e:f9:57:b5, 2085-97-18 181:70:232:8924,3.615,-13.07,11.424,305.359,-211.731,500,7.718,-64.221,-130.732
 15:39:57.323,eb:33:2e:f9:57:b5, 2085-97-215 49:255:246:14947,1.944,4.866,-9.875,129.7,-1474.915,-273.071,4.081,-73.845,-122.833
 15:39:57.323,eb:33:2e:f9:57:b5, 2085-97-192 255:201:16:-15136,2.53,1.289,6.709,64.27,132.996,-230.896,13.25,-80.997,-130.04
 15:39:57.353,eb:33:2e:f9:57:b5, 2085-97-168 27:198:01:11702,0.754,-0.83,3.373,145.752,-526.917,-203.613,38.881,-83.084,-155.165
 15:39:57.353,eb:33:2e:f9:57:b5, 2085-97-126 244:26:254:3852,-0.787,0.34,0.103,103.088,199.951,-261.963,42.001,-80.145,-157.192
 15:39:57.353,eb:33:2e:f9:57:b5, 2085-97-34 04:150:00:5880,2.105,-0.673,2.583,176.636,-26.123,-109.314,50.131,-78.585,-164.053
 15:39:57.353,eb:33:2e:f9:57:b5, 2085-97-16 18:05:254:10784,2.696,0.576,3.84,198.608,-109.802,-174.072,58.777,-78.168,-170.92
 15:39:57.382,eb:33:2e:f9:57:b5, 2085-97-108 26:179:241:12756,3.585,-0.829,5.891,357.117,-165.527,-204.102,69.51,-76.827,-179.193
 15:39:57.382,eb:33:2e:f9:57:b5, 2085-97-227 36:08:230:12728,4.872,-3.396,6.62,720.825,-144.348,108.582,84.315,-76.844,171.2
 15:39:57.382,eb:33:2e:f9:57:b5, 2085-97-103 37:195:236:10542,2.829,-3.03,7.039,850.403,728.21,23.743,80.074,-77.492,-176.116
 15:39:57.382,eb:33:2e:f9:57:b5, 2085-97-48 29:88:243:13696,3.367,-0.147,2.236,776.306,89.661,-375.122,65.067,-74.158,-152.205
 15:39:57.443,eb:33:2e:f9:57:b5, 2085-97-210 14:26:16:10012,1.08,0.513,6.234,592.529,332.581,-397.827,74.608,-69.697,-155.237
 15:39:57.443,eb:33:2e:f9:57:b5, 2085-97-32 07:232:38:6868,2.419,3.599,3.235,550.72,263.855,-245.728,73.394,-65.77,-147.761
 15:39:57.443,eb:33:2e:f9:57:b5, 2085-97-167 29:235:254:6622,4.549,3.385,2.658,318.848,-193.665,-461.304,78.124,-62.314,-148.519
 15:39:57.443,eb:33:2e:f9:57:b5, 2085-97-51 02:149:20:17797,3.512,4.207,6.349,534.668,-54.932,-451.66,88.396,-58.063,-155.056
 15:39:57.472,eb:33:2e:f9:57:b5, 2085-97-255 26:26:04:745,1.809,1.636,-0.239,342.224,327.454,-408.63,85.562,-53.289,-147.134
 15:39:57.472,eb:33:2e:f9:57:b5, 2085-97-108 23:49:253:10263,2.156,-0.326,4.938,345.825,-138.794,-414.246,90.89,-49.18,-149.376
 15:39:57.472,eb:33:2e:f9:57:b5, 2085-97-232 14:146:251:14210,2.032,-0.185,6.84,386.047,4.883,-314.514,94.922,-45.643,-149.892
 15:39:57.472,eb:33:2e:f9:57:b5, 2085-97-48 15:240:239:12446,2.172,-1.211,6.316,400.574,98.389,-207.947,98.047,-42.99,-148.799
 15:39:57.564,eb:33:2e:f9:57:b5, 2085-97-128 20:149:226:10443,2.795,-3.001,5.248,410.156,184.875,-81.604,100.162,-41.885,-146.113
 15:39:57.564,eb:33:2e:f9:57:b5, 2085-97-32 21:90:226:8325,2.578,-3.909,4.794,432.434,269.592,28.503,102.48,-42.078,-143.267
 15:39:57.564,eb:33:2e:f9:57:b5, 2085-97-09 18:100:229:5271,2.002,-3.529,3.324,408.081,336.426,114.868,103.936,-43.506,-139.307
 15:39:57.564,eb:33:2e:f9:57:b5, 2085-97-161 16:237:233:2435,2.277,-3.221,1.796,331.482,261.719,135.498,104.958,-45.5,-135.555
 15:39:57.566,eb:33:2e:f9:57:b5, 2085-97-144 19:144:240:3614,2.375,-2.374,1.184,226.624,95.52,111.084,106.243,-47.087,-133.66
 15:39:57.566,eb:33:2e:f9:57:b5, 2085-97-09 19:132:244:4770,2.518,-1.561,2.042,127.319,-29.907,18.616,107.721,-47.807,-133.44
 15:39:57.566,eb:33:2e:f9:57:b5, 2085-97-40 21:130:245:5572,2.572,-1.39,2.632,65.369,-108.704,-86.914,109.292,-47.06,-134.44
 15:39:57.566,eb:33:2e:f9:57:b5, 2085-97-147 19:246:245:5523,2.364,-1.237,2.717,1.16,-54.016,-157.166,109.929,-45.593,-134.929
 15:39:57.983,eb:33:2e:f9:57:b5, 2085-97-144 18:104:244:5461,2.291,-1.342,2.727,-64.636,-10.986,-198.792,109.149,-43.709,-134.445
 15:39:57.983,eb:33:2e:f9:57:b5, 2085-97-17 17:173:241:4518,1.576,-1.6,2.427,-129.333,60.181,-196.228,107.303,-41.891,-133.231
 15:39:57.983,eb:33:2e:f9:57:b5, 2085-97-194 08:86:236:3220,0.914,-2.116,2.008,-213.135,143.921,-182.373,104.073,-40.309,-131.1
 15:39:57.983,eb:33:2e:f9:57:b5, 2085-113-58 00:193:243:-9225,0.681,-2.828,1.25,-307.617,83.435,-147.156,100.19,-38.886,-129.199
 15:39:57.984,eb:33:2e:f9:57:b5, 2085-97-204 05:249:230:1607,0.949,-3.113,1.066,-355.286,67.566,-71.472,98.026,-38.403,-128.568
 15:39:57.984,eb:33:2e:f9:57:b5, 2085-97-135 10:235:232:2099,1.484,-3.019,0.833,-486.328,36.682,81.421,93.439,-38.6,-128.04
 15:39:57.984,eb:33:2e:f9:57:b5, 2085-97-75 10:238:237:2133,1.125,-2.631,1.112,-607.971,158.386,207.52,86.968,-40.111,-126.766
 15:39:57.984,eb:33:2e:f9:57:b5, 2085-97-17 12:236:246:742,2.179,-1.742,0.727,-684.143,206.848,235.779,78.311,-42.144,-123.563
 15:39:57.987,eb:33:2e:f9:57:b5, 2085-97-153 22:200:255:2111,2.835,-0.618,0.625,-725.098,-40.649,152.466,70.005,-43.813,-121.877
 15:39:57.987,eb:33:2e:f9:57:b5, 2085-97-47 21:174:02:3121,2.325,0.127,1.393,-761.047,-55.054,105.957,62.633,-45.082,-122.086
 15:39:57.987,eb:33:2e:f9:57:b5, 2085-97-54 18:194:02:3655,2.434,0.353,1.663,-779.419,-151.123,75.317,55.102,-46.346,-122.437
 15:39:57.987,eb:33:2e:f9:57:b5, 2085-97-94 20:68:04:4343,2.487,0.437,1.978,-792.664,-285.4,33.63,48.845,-48.241,-124.634
 15:39:57.989,eb:33:2e:f9:57:b5, 2085-97-224 15:91:06:5455,1.302,0.754,2.254,-766.357,-308.411,35.889,43.143,-50.532,-127.551
 15:39:57.989,eb:33:2e:f9:57:b5, 2085-97-09 08:222:08:6854,1.023,0.888,3.236,-674.316,-273.376,151.611,37.414,-53.427,-129.386
 15:39:57.989,eb:33:2e:f9:57:b5, 2085-97-168 07:219:09:6097,0.711,1.247,3.04,-644.47,-323.364,138.794,31.19,-56.635,-129.875
 15:39:57.990,eb:33:2e:f9:57:b5, 2085-97-163 03:100:08:5428,0.378,1.074,2.915,-599.792,-276.489,165.649,25.109,-60.002,-130.078
 15:39:57.990,eb:33:2e:f9:57:b5, 2085-97-112 00:176:11:4771,-0.428,1.113,2.253,-508.24,-320.251,214.966,18.182,-63.402,-128.589
 15:39:57.990,eb:33:2e:f9:57:b5, 2085-97-162 249:102:16:4429,-1.012,1.746,2.218,-438.66,-288.696,281.677,9.75,-66.907,-124.459
 15:39:57.990,eb:33:2e:f9:57:b5, 2085-97-186 252:53:21:6370,0.499,2.139,2.264,-415.833,-421.265,258.362,-1.027,-70.582,-117.499
 15:39:57.990,eb:33:2e:f9:57:b5, 2085-97-134 248:03:30:6197,-1.253,3.297,3.661,-409.546,-116.821,275.818,-14.079,-73.059,-108.111
 15:39:58.074,eb:33:2e:f9:57:b5, 2085-97-246 247:45:36:7161,-0.77,4.339,3.254,-407.959,-290.344,215.759,-28.746,-73.954,-97.053
 15:39:58.074,eb:33:2e:f9:57:b5, 2085-97-225 25:179:240:6006,1.184,4.637,3.812,-405.029,-242.798,197.571,-44.797,-75.059,-84.6
 15:39:58.074,eb:33:2e:f9:57:b5, 2085-97-141 07:254:02:7285,1.117,0.45,-0.264,630.127,171.814,-297.424,32.921,-71.851,-122.679
 15:39:58.074,eb:33:2e:f9:57:b5, 2085-97-162 11:150:15:12579,1.346,1.324,6.107,526.55,175.354,-318.665,44.835,-69.274,-129.545
 15:39:58.076,eb:33:2e:f9:57:b5, 2085-97-169 16:241:27:4609,2.644,2.636,4.696,521.057,338.623,-192.688,49.73,-65.654,-128.919
 15:39:58.076,eb:33:2e:f9:57:b5, 2085-97-72 21:198:15:4360,0.509,3.525,0.899,354.492,85.327,-335.571,53.042,-62.177,-127.952
 15:39:58.076,eb:33:2e:f9:57:b5, 2085-97-84 08:86:14:4502,2.604,2.008,5.053,375.916,70.251,-455.322,62.814,-59.277,-134.703
 15:39:58.076,eb:33:2e:f9:57:b5, 2085-97-102 11:14:00:4224,1.307,0.918,-0.635,262.451,-187.744,-411.255,66.594,-54.586,-135.972
 15:39:58.192,eb:33:2e:f9:57:b5, 2085-97-175 15:221:250:6552,1.414,-0.683,3.309,192.444,-73.12,-367.249,72.691,-51.383,-140.883
 15:39:58.192,eb:33:2e:f9:57:b5, 2085-97-118 09:252:246:9744,1.221,-0.949,4.521,217.102,-54.199,-314.941,76.838,-48.323,-143.679
 15:39:58.192,eb:33:2e:f9:57:b5, 2085-97-148 09:184:244:8871,1.238,-1.186,4.44,254.272,36.621,-230.591,79.684,-45.681,-144.3
 15:39:58.192,eb:33:2e:f9:57:b5, 2085-97-131 09:231:241:7518,1.229,-1.659,3.983,264.099,138.306,-124.146,81.683,-43.797,-143.459
 15:39:58.194,eb:33:2e:f9:57:b5, 2085-97-167 11:24:243:6825,1.854,-1.678,3.428,257.019,184.814,-19.531,82.809,-42.935,-141.273
 15:39:58.194,eb:33:2e:f9:57:b5, 2085-97-131 18:195:243:7411,1.844,-1.644,3.441,254.272,254.089,70.068,83.458,-42.918,-138.538
 15:39:58.194,eb:33:2e:f9:57:b5, 2085-97-62 15:14:247:4644,2.165,-1.36,2.646,249.817,331.97,86.548,82.535,-43.385,-133.506
 15:39:58.194,eb:33:2e:f9:57:b5, 2085-97-93 18:127:249:3573,2.113,-0.923,2.23,241.028,213.074,50.171,82.612,-43.693,-130.062
 15:39:58.197,eb:33:2e:f9:57:b5, 2085-97-71 17:223:249:3584,2.208,-0.693,1.875,208.679,133.24,0.549,83.326,-43.786,-127.787
 15:39:58.197,eb:33:2e:f9:57:b5, 2085-97-46 18:80:247:4125,2.282,-0.933,1.8,166.565,40.71,-56.274,84.397,-43.385,-126.683
 15:39:58.197,eb:33:2e:f9:57:b5, 2085-97-139 18:115:244:4483,2.431,-1.347,2.213,132.385,-12.573,-102.661,85.847,-42.539,-126.656
 15:39:58.197,eb:33:2e:f9:57:b5, 2085-97-58 20:41:241:5296,2.462,-1.663,2.368,98.389,-37.415,-143.677,87.385,-41.243,-127.321
 15:39:58.584,eb:33:2e:f9:57:b5, 2085-97-37 18:47:239:4837,1.939,-1.973,2.536,69.641,101.746,-122.803,87.946,-39.891,-126.892
 15:39:58.584,eb:33:2e:f9:57:b5, 2085-97-129 12:35:235:4912,1.173,-2.292,2.348,27.954,159.607,-100.952,87.325,-38.721,-125.178
 15:39:58.584,eb:33:2e:f9:57:b5, 2085-97-80 06:75:229:4527,0.983,-2.96,2.401,-30.762,179.077,-56.824,86.001,-37.831,-123.074
 15:39:58.585,eb:33:2e:f9:57:b5, 2085-97-159 08:34:228:2595,1.189,-3.44,1.478,-111.572,165.344,83.374,83.93,-37.782,-120.844
 15:39:58.587,eb:33:2e:f9:57:b5, 2085-97-171 10:199:231:1858,1.326,-3.323,1.042,-221.863,211.67,230.835,80.552,-39.172,-118.147
 15:39:58.587,eb:33:2e:f9:57:b5, 2085-97-79 11:98:238:545,1.768,-2.664,0.707,-337.952,266.052,317.871,75.218,-41.424,-114.335
 15:39:58.587,eb:33:2e:f9:57:b5, 2085-97-235 17:176:246:-997,2.759,-1.666,-0.284,-441.284,198.853,319.519,68.137,-43.781,-109.704
 15:39:58.587,eb:33:2e:f9:57:b5, 2085-97-119 25:99:255:-498,3.13,-0.669,-0.368,-516.785,60.12,220.032,61.144,-45.709,-106.677
 15:39:58.611,eb:33:2e:f9:57:b5, 2085-97-84 22:58:01:-053,2.43,0.101,-0.137,-580.322,53.101,141.296,54.256,-46.84,-104.826
 15:39:58.611,eb:33:2e:f9:57:b5, 2085-97-17 18:13:255:1043,2.243,0.054,0.198,-641.479,-25.085,86.121,47.186,-47.598,-103.535
 15:39:58.611,eb:33:2e:f9:57:b5, 2085-97-29 17:136:253:2620,2.009,-0.255,0.869,-709.351,-101.868,62.317,40.408,-48.609,-103.568
 15:39:58.612,eb:33:2e:f9:57:b5, 2085-113-58 00:74:227:-7920,2.013,-0.258,1.511,-761.536,-136.78,59.692,33.206,-49.905,-103.832
 15:39:58.612,eb:33:2e:f9:57:b5, 2085-97-212 17:79:255:4141,2.473,-0.181,1.748,-777.588,-190.857,39.917,29.619,-50.751,-104.189
 15:39:58.644,eb:33:2e:f9:57:b5, 2085-97-160 19:195:01:5281,2.145,0.108,2.318,-776.489,-269.287,3.784,22.989,-53.031,-105.683
 15:39:58.644,eb:33:2e:f9:57:b5, 2085-97-217 13:30:03:5768,1.542,0.307,2.791,-703.857,-227.112,81.116,16.172,-55.497,-106.436
 15:39:58.644,eb:33:2e:f9:57:b5, 2085-97-169 13:205:02:5134,1.917,0.397,2.572,-627.441,-292.969,97.29,8.888,-58.107,-105.617
 15:39:58.644,eb:33:2e:f9:57:b5, 2085-97-191 14:197:03:6380,1.605,0.341,2.81,-552.979,-353.943,106.567,1.934,-61.661,-104.381
 15:39:58.646,eb:33:2e:f9:57:b5, 2085-97-24 11:164:07:5914,-7.853,0.688,3.119,-491.272,-285.522,143.799,-5.999,-64.715,-101.283
 15:39:58.646,eb:33:2e:f9:57:b5, 2085-97-135 231:174:25:-16343,2.599,-2.874,3.237,-83.252,1323.486,-216.614,-69.236,-70.021,-45.242
 15:39:58.646,eb:33:2e:f9:57:b5, 2085-97-237 65:13:23:7828,2.666,-1.524,3.508,220.764,-870.544,145.386,-83.441,-71.917,-29.416
 15:39:58.646,eb:33:2e:f9:57:b5, 2085-97-98 249:128:254:-1654,0.045,0.407,2.071,-48.34,633.423,-265.503,-75.092,-72.57,-37.892
 15:39:58.646,eb:33:2e:f9:57:b5, 2085-97-222 06:171:00:4854,0.105,-0.322,1.291,67.261,-7.446,-126.404,-66.934,-73.488,-46.132
 15:39:58.647,eb:33:2e:f9:57:b5, 2085-97-115 01:87:01:2591,0.74,0.113,1.26,60.181,147.949,-104.187,-59.727,-73.79,-53.047
 15:39:58.647,eb:33:2e:f9:57:b5, 2085-97-77 05:56:02:5039,0.683,0.219,1.824,71.655,69.641,-94.238,-55.151,-74.207,-57.096
 15:39:58.649,eb:33:2e:f9:57:b5, 2085-97-192 04:118:00:5942,0.836,0.397,2.128,95.215,27.466,-72.571,-50.878,-74.526,-60.694
 15:39:58.732,eb:33:2e:f9:57:b5, 2085-97-210 06:114:252:8026,0.937,0.018,3.385,155.151,-9.216,-43.518,-48.137,-74.916,-62.254
 15:39:58.732,eb:33:2e:f9:57:b5, 2085-97-237 08:186:246:9025,1.201,-0.903,4.208,268.494,-20.02,-11.963,-45.742,-75.196,-62.529
 15:39:58.732,eb:33:2e:f9:57:b5, 2085-97-60 08:18:244:8912,0.774,-1.52,4.599,398.376,-44.128,-74.402,-42.632,-75.773,-62.21
 15:39:58.732,eb:33:2e:f9:57:b5, 2085-97-174 06:174:243:6192,0.901,-1.624,3.627,454.468,79.773,-194.946,-33.157,-76.328,-67.473
 15:39:58.734,eb:33:2e:f9:57:b5, 2085-97-140 04:00:01:7256,0.363,-0.753,3,492.31,44.312,-251.16,-18.457,-76.926,-77.69
 15:39:58.734,eb:33:2e:f9:57:b5, 2085-97-37 06:78:14:9798,1.239,1.34,4.095,531.799,-7.812,-29.236,-7.998,-76.58,-83.128
 15:39:58.734,eb:33:2e:f9:57:b5, 2085-97-108 11:165:06:9808,1.269,1.269,5.378,453.003,-169.128,-248.779,3.675,-78.157,-90.071
 15:39:58.734,eb:33:2e:f9:57:b5, 2085-97-76 08:140:240:7703,1.715,-0.477,3.675,346.558,-3.54,-229.37,20.006,-78.179,-102.805
 15:39:58.763,eb:33:2e:f9:57:b5, 2085-97-116 15:28:248:10689,2.14,-1.333,4.508,411.438,7.629,-126.831,30.048,-77.459,-109.276
 15:39:58.763,eb:33:2e:f9:57:b5, 2085-97-233 10:47:234:7488,1.092,-1.604,4.024,297.852,260.681,-53.04,34.409,-75.729,-110.143
 15:39:58.763,eb:33:2e:f9:57:b5, 2085-97-37 14:23:245:3987,2.461,-2.31,2.478,342.346,250.916,53.223,31.432,-73.345,-103.744
 15:39:58.763,eb:33:2e:f9:57:b5, 2085-97-20 22:25:249:5751,2.536,-1.039,2.811,320.74,95.337,-40.344,32.465,-72.279,-101.36
 15:39:58.792,eb:33:2e:f9:57:b5, 2085-97-33 18:17:246:3775,2.213,-0.925,2.51,269.287,204.59,-100.891,34.585,-70.516,-100.481
 15:39:58.792,eb:33:2e:f9:57:b5, 2085-97-125 18:61:239:3300,2.183,-1.734,1.786,201.477,110.352,-182.739,37.782,-68.461,-101.426
 15:39:58.792,eb:33:2e:f9:57:b5, 2085-97-168 15:132:236:1857,1.896,-2.324,1.25,118.469,153.748,-218.75,41.105,-66.116,-103.343
 15:39:58.792,eb:33:2e:f9:57:b5, 2085-97-26 16:78:237:1641,2.132,-2.424,0.734,36.377,99.548,-251.343,43.654,-63.55,-105.375
 15:39:58.852,eb:33:2e:f9:57:b5, 2085-97-174 17:129:237:1980,2.088,-2.3,0.941,-42.664,90.088,-288.94,46.088,-61.013,-108.221
 15:39:58.852,eb:33:2e:f9:57:b5, 2085-97-01 15:67:234:2106,1.736,-2.496,1.038,-101.318,129.211,-310.669,47.483,-58.046,-110.775
 15:39:58.852,eb:33:2e:f9:57:b5, 2085-97-176 13:222:231:2156,1.667,-2.907,0.964,-126.343,131.958,-301.392,47.9,-54.838,-112.681
 15:39:58.852,eb:33:2e:f9:57:b5, 2085-97-57 12:224:230:2745,1.345,-3.097,1.213,-145.264,154.785,-250.305,47.686,-51.861,-114.131
 15:39:58.882,eb:33:2e:f9:57:b5, 2085-97-215 08:245:229:2983,0.837,-3.173,1.36,-160.95,188.599,-160.278,46.23,-49.147,-114.241
 15:39:58.882,eb:33:2e:f9:57:b5, 2085-97-177 05:139:228:1944,0.618,-3.351,1.35,-187.744,204.773,-50.11,43.759,-47.021,-113.258
 15:39:58.882,eb:33:2e:f9:57:b5, 2085-97-148 04:171:231:692,0.659,-3.356,0.552,-243.164,197.876,86.609,39.996,-45.654,-111.039
 15:39:58.882,eb:33:2e:f9:57:b5, 2085-97-88 07:82:235:2171,1.15,-2.807,0.616,-308.289,110.779,195.801,35.063,-45.341,-108.051
 15:39:58.914,eb:33:2e:f9:57:b5, 2085-97-154 11:137:240:3702,2.073,-2.369,1.455,-351.013,106.689,300.964,28.987,-45.786,-104.222
 15:39:58.914,eb:33:2e:f9:57:b5, 2085-97-123 18:146:250:3673,2.476,-1.321,2.189,-387.634,187.683,399.231,21.401,-46.11,-98.773
 15:39:58.914,eb:33:2e:f9:57:b5, 2085-97-197 22:245:255:2415,3.344,-0.278,1.28,-454.163,161.133,392.761,12.656,-45.417,-92.499
 15:39:58.914,eb:33:2e:f9:57:b5, 2085-97-138 29:179:07:1953,3.641,0.351,1.052,-496.399,122.253,360.291,3.933,-44.583,-86.94
 15:39:59.063,eb:33:2e:f9:57:b5, 2085-97-158 28:179:12:1467,3.467,1.253,0.847,-540.71,64.27,242.798,-4.103,-43.654,-82.908
 15:39:59.063,eb:33:2e:f9:57:b5, 2085-113-58 00:95:221:-5325,3.287,1.662,0.633,-552.612,-22.278,142.7,-11.31,-43.259,-80.425
 15:39:59.063,eb:33:2e:f9:57:b5, 2085-97-44 24:100:12:1027,2.733,1.634,0.51,-547.729,-69.519,105.469,-14.661,-43.363,-79.541
 15:39:59.064,eb:33:2e:f9:57:b5, 2085-97-161 19:38:10:2384,2.086,1.426,0.72,-535.522,-203.308,32.715,-21.088,-44.528,-78.074
 15:39:59.064,eb:33:2e:f9:57:b5, 2085-97-242 12:151:05:3645,1.145,1.024,1.538,-524.475,-217.163,7.202,-27.438,-46.478,-76.608
 15:39:59.064,eb:33:2e:f9:57:b5, 2085-97-24 07:197:255:4363,0.752,0.292,1.942,-486.084,-224.792,44.189,-33.915,-48.219,-74.702
 15:39:59.064,eb:33:2e:f9:57:b5, 2085-97-66 06:165:252:5303,0.874,-0.306,2.39,-414.307,-218.384,119.995,-40.721,-49.526,-71.625
 15:39:59.064,eb:33:2e:f9:57:b5, 2085-97-96 06:53:00:5439,0.555,-0.295,2.757,-328.247,-186.218,222.29,-47.505,-49.735,-67.505
 15:39:59.067,eb:33:2e:f9:57:b5, 2085-97-209 02:96:07:3570,0.376,0.484,2.201,-308.105,-159.912,237.549,-53.806,-48.911,-63.314
 15:39:59.067,eb:33:2e:f9:57:b5, 2085-97-12 03:209:12:5259,0.334,1.318,2.047,-304.993,-286.56,234.192,-60.485,-48.12,-58.469
 15:39:59.067,eb:33:2e:f9:57:b5, 2085-97-159 255:116:15:8819,-0.666,1.848,3.54,-289.551,-268.25,205.261,-67.571,-47.505,-52.894
 15:39:59.067,eb:33:2e:f9:57:b5, 2085-97-126 248:180:21:8748,-0.942,2.098,4.144,-206.543,-111.877,278.015,-72.389,-45.78,-49.752
 15:39:59.094,eb:33:2e:f9:57:b5, 2085-97-92 249:87:28:9259,-0.952,3.125,4.447,-177.063,-103.455,212.219,-76.025,-43.748,-47.219
 15:39:59.094,eb:33:2e:f9:57:b5, 2085-97-236 247:18:40:8275,-1.015,4.204,4.459,-159.18,62.622,229.126,-78.267,-41.649,-46.357
 15:39:59.094,eb:33:2e:f9:57:b5, 2085-97-11 248:159:50:6980,-0.862,5.751,3.713,-168.091,131.348,205.994,-79.354,-39.254,-47.192
 15:39:59.094,eb:33:2e:f9:57:b5, 2085-97-229 250:43:55:4519,-0.417,6.699,2.932,-158.63,210.266,160.95,-79.975,-37.189,-48.917
 15:39:59.123,eb:33:2e:f9:57:b5, 2085-97-149 252:221:53:556,-0.711,6.923,1.21,-102.966,249.939,80.566,-79.684,-35.568,-51.663
 15:39:59.123,eb:33:2e:f9:57:b5, 2085-97-02 247:242:48:-2591,-1.299,6.458,-0.601,5.432,154.419,18.066,-78.777,-34.783,-54.047
 15:39:59.123,eb:33:2e:f9:57:b5, 2085-97-255 244:01:44:-827,-1.198,5.786,-1.156,108.826,-101.013,-7.446,-77.986,-34.728,-54.278
 15:39:59.123,eb:33:2e:f9:57:b5, 2085-97-151 246:117:33:623,-0.91,5.02,0.157,122.559,-36.255,1.709,-77.382,-34.969,-53.229
 15:39:59.304,eb:33:2e:f9:57:b5, 2085-97-55 241:130:46:3837,-5.518,3.339,0.47,155.334,85.022,74.219,-75.817,-34.486,-53.569
 15:39:59.304,eb:33:2e:f9:57:b5, 2085-97-01 195:170:81:18367,1.87,9.021,6.996,685.913,677.429,652.222,-71.038,-30.905,-55.58
 15:39:59.304,eb:33:2e:f9:57:b5, 2085-97-180 183:96:251:-11088,7.919,9.097,-11.721,46.021,-60.059,-76.111,-64.116,-24.977,-62.501
 15:39:59.304,eb:33:2e:f9:57:b5, 2085-97-229 102:53:219:19765,11.369,8.02,6.965,-328.308,-1811.218,-788.574,-72.235,-27.125,-46.829
 15:39:59.304,eb:33:2e:f9:57:b5, 2085-97-02 55:174:28:-4337,9.619,2.045,-2.714,160.217,395.508,6.042,-74.103,-32.102,-42.781
 15:39:59.304,eb:33:2e:f9:57:b5, 2085-97-74 20:120:14:616,-4.613,3.278,4.845,24.902,302.246,-89.417,-73.68,-33.338,-41.342
 15:39:59.304,eb:33:2e:f9:57:b5, 2085-97-160 220:205:242:-2146,-1.506,-1.925,-0.53,11.047,217.529,-178.284,-70.724,-33.893,-47.401
 15:39:59.305,eb:33:2e:f9:57:b5, 2085-97-09 245:12:253:1221,-0.329,-0.152,-0.063,40.527,4.211,-44.861,-70.126,-34.431,-47.593
 15:39:59.305,eb:33:2e:f9:57:b5, 2085-97-253 10:240:04:4599,0.685,-0.063,1.367,54.565,-91.736,-5.554,-69.846,-34.799,-47.291
 15:39:59.305,eb:33:2e:f9:57:b5, 2085-97-192 253:107:255:2984,-0.203,0.038,2.342,9.033,132.935,-39.917,-69.302,-34.948,-47.823
 15:39:59.305,eb:33:2e:f9:57:b5, 2085-97-50 249:227:252:3105,-1.692,-0.128,2.057,16.663,94.666,-16.724,-68.599,-34.969,-48.73
 15:39:59.305,eb:33:2e:f9:57:b5, 2085-97-217 241:151:250:3993,-1.253,-0.78,1.688,37.842,78.735,38.147,-67.698,-34.459,-49.927
 15:39:59.308,eb:33:2e:f9:57:b5, 2085-97-135 252:214:251:7613,0.775,-0.402,2.55,138.245,-65.796,127.38,-67.006,-33.613,-49.587
 15:39:59.308,eb:33:2e:f9:57:b5, 2085-97-216 13:232:249:10409,2.02,-0.286,3.881,266.785,-151.428,131.653,-65.929,-32.734,-47.736
 15:39:59.308,eb:33:2e:f9:57:b5, 2085-97-254 12:127:243:8464,1.349,-1.395,5.185,375.183,36.987,74.89,-63.309,-32.097,-46.511
 15:39:59.308,eb:33:2e:f9:57:b5, 2085-97-04 07:104:246:6159,0.492,-1.412,3.499,427.734,112.549,41.687,-58.936,-31.317,-47.054
 15:39:59.363,eb:33:2e:f9:57:b5, 2085-97-50 02:152:246:4404,0.16,-1.235,2.302,454.651,207.031,72.51,-53.811,-29.756,-48.428
 15:39:59.363,eb:33:2e:f9:57:b5, 2085-97-54 255:222:238:5113,-0.64,-1.64,2.362,453.674,248.413,85.754,-48.582,-27.845,-49.834
 15:39:59.363,eb:33:2e:f9:57:b5, 2085-97-56 247:99:240:5149,-1.599,-2.526,2.726,451.538,357.422,131.775,-43.33,-24.911,-51.454
 15:39:59.363,eb:33:2e:f9:57:b5, 2085-97-06 242:248:245:4248,-1.904,-1.658,2.264,414.551,440.552,167.419,-38.386,-20.918,-53.069
 15:39:59.365,eb:33:2e:f9:57:b5, 2085-97-249 241:123:247:3587,-1.395,-1.335,1.772,394.958,459.839,229.065,-33.959,-15.941,-54.349
 15:39:59.365,eb:33:2e:f9:57:b5, 2085-97-239 248:122:248:4976,-0.472,-1.184,2.097,366.272,324.829,295.227,-30.185,-11.382,-54.179
 15:39:59.365,eb:33:2e:f9:57:b5, 2085-97-13 02:98:01:5571,1.696,-0.713,2.816,359.07,312.744,382.629,-26.84,-6.954,-52.597
 15:39:59.365,eb:33:2e:f9:57:b5, 2085-97-34 21:64:23:1774,2.728,1.634,1.698,383.85,178.772,228.882,-23.286,-3.159,-50.823
 15:39:59.483,eb:33:2e:f9:57:b5, 2085-97-13 13:237:19:1793,0.231,3.228,0.241,302.124,141.968,-45.593,-19.786,-1.577,-50.669
 15:39:59.483,eb:33:2e:f9:57:b5, 2085-97-108 255:00:14:2083,0.572,1.922,1.124,193.359,181.946,-91.37,-17.292,-0.324,-52.053
 15:39:59.484,eb:33:2e:f9:57:b5, 2085-97-234 12:84:09:4542,1.92,1.554,1.646,99.06,-120.3,-163.635,-15.93,-0.445,-53.256
 15:39:59.484,eb:33:2e:f9:57:b5, 2085-97-32 14:69:02:7850,1.477,0.648,3.254,55.725,-92.224,-228.943,-15.211,-2.395,-54.86
 15:39:59.488,eb:33:2e:f9:57:b5, 2085-97-134 09:183:250:7661,1.116,-0.105,3.83,80.261,57.129,-271.301,-14.431,-2.977,-57.316
 15:39:59.488,eb:33:2e:f9:57:b5, 2085-97-18 09:61:241:6243,1.159,-1.297,3.464,92.651,120.85,-279.48,-13.392,-2.785,-60.304
 15:39:59.488,eb:33:2e:f9:57:b5, 2085-97-146 09:02:235:4661,1.249,-2.281,2.617,66.956,173.462,-223.572,-12.469,-1.862,-63.105
 15:39:59.488,eb:33:2e:f9:57:b5, 2085-97-90 11:64:234:3752,1.554,-2.737,2.021,19.531,200.867,-139.099,-12.008,-0.368,-65.248
 15:39:59.542,eb:33:2e:f9:57:b5, 2085-97-34 13:233:235:3510,1.836,-2.629,1.767,-45.044,202.698,-79.224,-12.173,1.346,-66.725
 15:39:59.542,eb:33:2e:f9:57:b5, 2085-97-117 16:72:237:3931,2.223,-2.392,1.789,-99.854,163.147,-56.396,-12.936,3.005,-67.786
 15:39:59.542,eb:33:2e:f9:57:b5, 2085-97-34 17:46:238:3089,2.148,-2.315,1.791,-158.142,195.068,-18.127,-14.31,4.614,-68.577
 15:39:59.542,eb:33:2e:f9:57:b5, 2085-97-200 17:113:241:2595,2.518,-2.051,1.192,-231.75,181.946,29.236,-16.326,6.553,-69.049
 15:39:59.544,eb:33:2e:f9:57:b5, 2085-97-42 22:30:246:3363,2.839,-1.509,1.392,-305.786,154.907,80.994,-19.05,8.289,-68.989
 15:39:59.544,eb:33:2e:f9:57:b5, 2085-97-231 23:17:252:3047,3.234,-0.93,1.786,-358.337,196.899,125.61,-22.352,10.3,-68.632
 15:39:59.544,eb:33:2e:f9:57:b5, 2085-97-35 28:185:01:1183,3.823,-0.085,1.065,-429.688,209.9,140.686,-26.202,12.75,-68.214
 15:39:59.544,eb:33:2e:f9:57:b5, 2085-97-207 32:13:06:805,4.235,0.486,0.402,-521.179,174.133,120.422,-30.932,15.051,-67.967
 15:39:59.572,eb:33:2e:f9:57:b5, 2085-97-164 33:111:08:1014,4.139,0.947,0.464,-604.004,150.452,58.411,-36.667,16.875,-68.121
 15:39:59.572,eb:33:2e:f9:57:b5, 2085-97-221 33:176:11:1119,4.165,1.18,0.503,-651.001,88.501,-24.902,-43.209,17.897,-68.851
 15:39:59.572,eb:33:2e:f9:57:b5, 2085-97-139 31:187:13:1583,3.638,1.614,0.722,-680.298,24.536,-110.229,-50.191,17.633,-69.752
 15:39:59.572,eb:33:2e:f9:57:b5, 2085-97-64 26:205:12:1260,2.969,1.743,0.685,-671.753,-22.827,-123.779,-57.211,16.677,-70.56
 15:39:59.662,eb:33:2e:f9:57:b5, 2085-97-154 20:07:09:1561,2.193,1.417,0.669,-633.728,-124.817,-97.473,-63.677,15.337,-70.378
 15:39:59.662,eb:33:2e:f9:57:b5, 2085-97-212 14:232:03:2339,1.518,0.803,0.904,-570.862,-214.172,-47.791,-69.357,14.002,-69.044
 15:39:59.662,eb:33:2e:f9:57:b5, 2085-97-123 10:219:02:3044,1.204,0.263,1.428,-468.262,-256.775,54.688,-73.965,13.288,-66.654
 15:39:59.662,eb:33:2e:f9:57:b5, 2085-97-191 09:40:08:3102,1.277,0.631,1.452,-366.577,-318.542,142.639,-77.344,13.629,-63.578
 15:39:59.692,eb:33:2e:f9:57:b5, 2085-97-209 07:160:12:4025,0.56,1.477,1.786,-308.716,-386.23,197.327,-79.618,14.623,-59.485
 15:39:59.692,eb:33:2e:f9:57:b5, 2085-97-79 251:113:11:6276,-1.81,1.708,2.121,-270.081,-355.103,275.146,-81.398,16.408,-55.415
 15:39:59.692,eb:33:2e:f9:57:b5, 2085-97-119 233:161:20:7446,-3.419,1.954,4.251,-219.055,-45.593,461.548,-82.744,20.099,-52.487
 15:39:59.692,eb:33:2e:f9:57:b5, 2085-97-57 230:193:22:7046,-2.501,2.825,3.175,-274.231,-141.724,302.185,-85.018,23.813,-51.707
 15:39:59.696,eb:33:2e:f9:57:b5, 2085-97-29 240:176:25:9162,-1.711,2.897,4.276,-233.582,-196.533,241.394,-86.446,26.158,-48.999
 15:39:59.696,eb:33:2e:f9:57:b5, 2085-97-182 246:206:36:7427,-1.074,3.769,4.313,-144.104,111.45,268.799,-88.077,28.729,-48.516
 15:39:59.696,eb:33:2e:f9:57:b5, 2085-97-03 247:48:52:1613,-0.564,5.029,3.036,-57.739,351.99,338.989,-90.527,31.657,-51.476
 15:39:59.696,eb:33:2e:f9:57:b5, 2085-97-70 01:195:54:307,0.185,6.826,0.306,-58.411,28.564,192.627,-92.302,34.217,-53.624
 15:39:59.753,eb:33:2e:f9:57:b5, 2085-97-77 254:161:52:-1375,-0.451,6.648,0.064,14.221,62.866,167.969,-92.807,35.909,-54.08
 15:39:59.753,eb:33:2e:f9:57:b5, 2085-97-243 250:94:46:-1484,-0.898,6.288,-1.04,100.464,-127.197,83.13,-92.06,37.183,-53.926
 15:39:59.753,eb:33:2e:f9:57:b5, 2085-97-124 226:104:65:7393,-5.352,7.633,1.1,173.096,-73.181,-76.477,-89.28,37.738,-51.96
 15:39:59.753,eb:33:2e:f9:57:b5, 2085-97-189 192:210:44:2261,-3.222,12.961,6.661,251.343,476.318,-40.222,-87.863,39.095,-55.096
 15:39:59.873,eb:33:2e:f9:57:b5, 2085-97-42 176:233:233:-6829,-1.271,1.967,-11.908,-86.426,-421.997,-428.772,-89.912,35.843,-58.568
 15:39:59.873,eb:33:2e:f9:57:b5, 2085-97-108 17:110:230:9537,1.333,2.906,-0.498,-107.239,-1464.905,-216.309,-84.26,34.316,-47.565
 15:39:59.873,eb:33:2e:f9:57:b5, 2085-97-133 01:203:244:4977,1.73,-2.576,6.646,-12.695,-181.519,167.969,-79.03,33.613,-37.694
 15:39:59.873,eb:33:2e:f9:57:b5, 2085-97-165 30:36:255:8655,4.593,-0.194,1.21,49.133,-473.694,42.786,-76.36,33.563,-33.431
 15:39:59.873,eb:33:2e:f9:57:b5, 2085-97-111 30:210:10:2992,2.68,0.475,3.782,63.171,-9.827,111.084,-74.125,33.827,-30.438
 15:39:59.963,eb:33:2e:f9:57:b5, 2085-113-81 00:18:100:-16058,2.14,0.861,1.388,39.978,56.396,33.569,-73.954,34.733,-30.959
 15:39:59.963,eb:33:2e:f9:57:b5, 2085-97-203 07:68:01:3499,-0.441,0.48,1.923,45.471,83.801,7.141,-73.943,34.898,-31.317
 15:39:59.963,eb:33:2e:f9:57:b5, 2085-97-107 249:128:00:1113,-0.497,-0.075,0.779,56.885,85.449,-7.141,-74.18,35.195,-32.629
 15:39:59.963,eb:33:2e:f9:57:b5, 2085-97-146 253:198:00:1857,-0.165,0.203,0.816,43.152,33.142,-4.456,-73.982,35.228,-33.19
 15:39:59.993,eb:33:2e:f9:57:b5, 2085-97-162 01:170:01:2685,0.381,0.083,0.991,39.795,17.029,4.639,-73.801,35.343,-33.558
 15:39:59.993,eb:33:2e:f9:57:b5, 2085-97-139 01:09:01:2947,0.056,0.242,1.498,44.861,21.179,-4.395,-73.466,35.381,-33.734
 15:39:59.993,eb:33:2e:f9:57:b5, 2085-97-152 254:247:254:3291,-0.557,0.048,1.507,62.5,15.686,-1.404,-73.059,35.403,-33.959
 15:39:59.993,eb:33:2e:f9:57:b5, 2085-97-134 251:72:253:4216,-0.618,-0.173,1.55,87.524,-9.216,23.254,-72.361,35.59,-34.091
 15:39:59.993,eb:33:2e:f9:57:b5, 2085-97-204 252:47:254:4264,-0.056,-0.148,1.54,121.643,3.479,58.838,-71.334,36.085,-34.124
 15:39:59.993,eb:33:2e:f9:57:b5, 2085-97-25 02:16:252:6681,0.056,-0.328,2.864,170.41,7.874,66.223,-69.631,36.623,-33.723
 15:39:59.993,eb:33:2e:f9:57:b5, 2085-97-233 01:178:253:6367,1.316,-0.41,2.996,229.98,-99.304,46.57,-67.429,37.271,-33.442
 15:39:59.994,eb:33:2e:f9:57:b5, 2085-97-84 11:166:250:8631,1.648,-0.677,4.656,304.504,-41.565,23.743,-63.561,36.716,-31.52
 15:39:59.996,eb:33:2e:f9:57:b5, 2085-97-50 15:224:249:8124,2.292,-0.748,4.233,378.296,113.342,13.489,-60.381,37.15,-31.965
 15:39:59.996,eb:33:2e:f9:57:b5, 2085-97-214 21:89:248:7676,2.748,-0.907,3.827,444.824,187.744,-15.991,-57.294,37.969,-33.75
 15:39:59.996,eb:33:2e:f9:57:b5, 2085-97-127 19:101:247:6258,2.027,-0.823,3.298,498.047,295.959,-34.241,-54.388,39.238,-36.689
 15:39:59.996,eb:33:2e:f9:57:b5, 2085-97-131 12:185:247:5646,1.18,-1.161,2.782,524.963,262.512,-62.744,-51.356,40.496,-40.029
 15:39:59.998,eb:33:2e:f9:57:b5, 2085-97-249 01:19:244:9286,-1.148,-1.431,3.465,482.971,266.296,-125.671,-48.406,41.166,-43.237
 15:39:59.998,eb:33:2e:f9:57:b5, 2085-97-217 246:15:11:9354,-0.295,-0.059,6.067,446.289,501.831,-116.272,-47.082,42.902,-48.192
 15:39:59.998,eb:33:2e:f9:57:b5, 2085-97-244 01:227:14:5201,0.479,1.75,2.711,442.444,360.596,-47.913,-46.725,45.538,-54.003
 15:39:59.998,eb:33:2e:f9:57:b5, 2085-97-155 10:185:19:7313,1.295,2.452,3.264,375.977,265.564,9.155,-44.934,47.593,-57.206
 15:39:59.998,eb:33:2e:f9:57:b5, 2085-97-19 15:106:253:9974,0.396,0.789,4.301,400.696,91.064,-103.638,-42.621,47.911,-59.161
 15:39:59.998,eb:33:2e:f9:57:b5, 2085-97-248 06:14:00:6789,0.358,0.603,6.166,495.483,583.496,3.784,-39.858,49.252,-61.996
 15:39:59.998,eb:33:2e:f9:57:b5, 2085-97-245 03:12:255:5983,1.414,-0.018,2.959,418.396,320.19,83.984,-38.87,53.251,-66.33
 15:39:59.998,eb:33:2e:f9:57:b5, 2085-97-128 16:148:06:8734,2.356,0.241,3.363,377.014,140.564,66.772,-35.925,55.503,-67.527
 15:40:00.145,eb:33:2e:f9:57:b5, 2085-97-63 19:108:13:10183,2.359,1.383,5.08,383.728,243.103,11.719,-33.157,57.195,-68.774
 15:40:00.145,eb:33:2e:f9:57:b5, 2085-97-74 18:09:08:7630,2.252,1.542,4.296,361.267,227.783,-74.829,-32.19,59.216,-72.059
 15:40:00.145,eb:33:2e:f9:57:b5, 2085-97-68 17:234:252:6729,1.911,0.252,3.422,295.349,131.47,-155.945,-32.25,59.963,-75.921
 15:40:00.145,eb:33:2e:f9:57:b5, 2085-97-222 13:109:245:5780,1.526,-0.917,3.082,207.336,141.785,-179.199,-33.591,60.139,-80.343
 15:40:00.145,eb:33:2e:f9:57:b5, 2085-97-81 10:94:241:5828,1.114,-1.541,2.821,113.525,109.558,-174.866,-35.771,60.128,-84.661
 15:40:00.145,eb:33:2e:f9:57:b5, 2085-97-137 07:193:238:5007,0.804,-1.982,2.718,20.386,110.107,-140.442,-38.491,60.057,-88.544
 15:40:00.147,eb:33:2e:f9:57:b5, 2085-97-220 05:82:236:3341,0.674,-2.293,2.103,-79.59,115.967,-88.989,-41.594,60.194,-91.73
 15:40:00.147,eb:33:2e:f9:57:b5, 2085-97-13 05:16:235:1641,0.622,-2.58,1.188,-181.763,134.094,-32.715,-45.242,60.705,-94.373
 15:40:00.147,eb:33:2e:f9:57:b5, 2085-97-115 05:150:237:855,0.838,-2.509,0.539,-269.47,134.033,27.771,-49.4,61.644,-96.476
 15:40:00.148,eb:33:2e:f9:57:b5, 2085-97-85 08:07:241:704,1.317,-2.08,0.379,-351.318,100.22,64.27,-53.69,62.754,-97.784
 15:40:00.148,eb:33:2e:f9:57:b5, 2085-97-255 12:97:244:-180,1.957,-1.668,0.182,-430.359,100.647,91.37,-58.37,63.957,-98.608
 15:40:00.148,eb:33:2e:f9:57:b5, 2085-97-193 17:175:247:-1045,2.407,-1.241,-0.376,-506.47,102.6,99.609,-64.023,65.308,-99.646
 15:40:00.204,eb:33:2e:f9:57:b5, 2085-97-23 21:183:252:-1319,2.775,-0.744,-0.557,-566.04,86.975,78.979,-70.642,66.539,-100.981
 15:40:00.204,eb:33:2e:f9:57:b5, 2085-97-220 23:230:254:-1433,3.179,-0.23,-0.679,-626.709,27.588,27.1,-77.591,67.187,-102.047
 15:40:00.204,eb:33:2e:f9:57:b5, 2085-97-58 26:213:254:-1129,3.204,-0.116,-0.664,-680.847,-34.729,-33.264,-83.941,67.115,-101.799
 15:40:00.204,eb:33:2e:f9:57:b5, 2085-97-122 24:117:254:-1018,2.988,-0.159,-0.479,-709.656,-66.589,-74.768,-89.731,66.489,-100.519
 15:40:00.204,eb:33:2e:f9:57:b5, 2085-97-156 23:51:255:-1257,2.688,-0.156,-0.537,-711.975,-111.084,-84.351,-94.763,65.77,-98.251
 15:40:00.204,eb:33:2e:f9:57:b5, 2085-97-141 19:231:00:-1854,2.09,-0.055,-0.677,-693.665,-129.333,-79.834,-98.839,65.028,-94.993
 15:40:00.204,eb:33:2e:f9:57:b5, 2085-97-47 14:103:02:-1106,1.523,0.196,-0.804,-626.099,-218.14,-48.401,-101.569,64.715,-90.714
 15:40:00.204,eb:33:2e:f9:57:b5, 2085-97-101 08:62:03:-1024,0.595,0.455,-0.463,-529.785,-284.119,-11.23,-101.629,64.973,-84.49
 15:40:00.503,eb:33:2e:f9:57:b5, 2085-97-207 02:105:08:-985,-0.026,0.653,-0.555,-398.621,-344.543,67.688,-99.723,65.891,-77.388
 15:40:00.503,eb:33:2e:f9:57:b5, 2085-97-125 252:141:13:-183,-0.879,1.353,-0.148,-318.115,-368.286,141.418,-94.702,67.407,-68.143
 15:40:00.503,eb:33:2e:f9:57:b5, 2085-97-220 246:206:21:-078,-1.413,2.067,-0.138,-246.826,-274.414,270.935,-89.868,69.648,-59.952
 15:40:00.503,eb:33:2e:f9:57:b5, 2085-97-245 242:117:33:1861,-1.667,3.42,0.466,-212.097,-305.969,280.334,-83.079,72.372,-50.46
 15:40:00.532,eb:33:2e:f9:57:b5, 2085-113-81 00:147:92:-9592,-1.403,4.782,1.183,-203.369,-380.127,189.514,-72.405,73.932,-37.161
 15:40:00.532,eb:33:2e:f9:57:b5, 2085-97-94 247:254:45:5206,-1.071,5.257,1.854,-193.298,-380.005,156.189,-65.934,74.031,-29.454
 15:40:00.532,eb:33:2e:f9:57:b5, 2085-97-245 245:202:54:5572,-1.37,6.306,2.833,-163.391,-243.652,96.802,-56.129,73.647,-17.408
 15:40:00.532,eb:33:2e:f9:57:b5, 2085-97-255 244:233:57:5446,-1.555,7.182,2.675,-113.403,-197.388,-4.333,-50.894,72.735,-10.558
 15:40:00.622,eb:33:2e:f9:57:b5, 2085-97-243 241:214:54:5207,-2.178,7.113,2.54,-43.884,-173.584,-103.943,-48.587,71.098,-7.339
 15:40:00.622,eb:33:2e:f9:57:b5, 2085-97-103 235:29:55:7293,-3.045,6.696,2.583,24.536,-150.635,-141.113,-47.631,69.022,-6.317
 15:40:00.622,eb:33:2e:f9:57:b5, 2085-97-100 233:140:49:8717,-2.853,6.635,3.038,41.016,-180.237,-198.73,-48.12,66.918,-7.163
 15:40:00.622,eb:33:2e:f9:57:b5, 2085-97-76 232:191:41:8289,-3.324,5.808,4.201,81.482,-58.655,-200.989,-48.45,64.66,-8.245
 15:40:00.624,eb:33:2e:f9:57:b5, 2085-97-181 225:242:29:5202,-3.984,4.625,3.499,165.466,66.772,-185.242,-50.015,63.254,-11.382
 15:40:00.624,eb:33:2e:f9:57:b5, 2085-97-73 224:175:09:703,-3.617,2.657,1.576,258.728,138.977,-133.972,-51.531,62.737,-15.59
 15:40:00.624,eb:33:2e:f9:57:b5, 2085-97-254 231:124:236:-5184,-4.14,-0.466,-1.039,298.279,124.451,-109.131,-52.108,62.65,-19.446
 15:40:00.624,eb:33:2e:f9:57:b5, 2085-97-119 215:00:76:-10721,-2.41,-1.172,-4.43,220.764,24.292,-69.824,-52.267,62.479,-22.863
 15:40:00.626,eb:33:2e:f9:57:b5, 2085-97-125 07:151:15:-197,4.154,3.848,-2.382,-335.449,-291.687,-17.883,-48.642,61.479,-17.287
 15:40:00.627,eb:33:2e:f9:57:b5, 2085-97-250 08:196:249:7938,1.63,0.82,1.553,-291.26,-157.654,206.97,-45.494,60.639,-10.558
 15:40:00.627,eb:33:2e:f9:57:b5, 2085-97-66 17:118:245:10546,2.823,-0.958,4.586,469.604,126.953,-29.968,-47.153,61.348,-23.302
 15:40:00.627,eb:33:2e:f9:57:b5, 2085-97-181 34:60:239:12624,6.331,-1.678,5.651,587.891,82.825,-99.548,-44.121,61.683,-25.95
 15:40:00.682,eb:33:2e:f9:57:b5, 2085-97-144 58:69:251:10262,7.249,-2.041,6.192,684.937,234.924,-211.365,-41.331,61.403,-30.119
 15:40:00.682,eb:33:2e:f9:57:b5, 2085-97-226 45:112:247:14443,0.746,-0.471,5.236,684.204,323.792,-411.499,-42.495,61.65,-39.43
 15:40:00.682,eb:33:2e:f9:57:b5, 2085-97-245 247:209:36:7525,0.271,1.215,7.424,657.227,809.082,-268.494,-48.477,62.831,-53.795
 15:40:00.682,eb:33:2e:f9:57:b5, 2085-97-145 15:127:63:1623,2.458,6.486,2.002,559.998,150.635,-145.996,-52.377,63.99,-64.957
 15:40:00.712,eb:33:2e:f9:57:b5, 2085-97-86 20:72:229:10718,2.97,3.198,0.914,190.979,-700.989,-419.556,-48.554,59.799,-64.259
 15:40:00.712,eb:33:2e:f9:57:b5, 2085-97-131 22:161:03:8688,2.634,-1.834,12.303,549.744,-101.44,-176.697,-40.501,53.053,-59.321
 15:40:00.712,eb:33:2e:f9:57:b5, 2085-97-207 17:169:254:5093,1.914,0.269,3.244,457.458,303.467,-67.688,-29.641,67.961,-78.481
 15:40:00.712,eb:33:2e:f9:57:b5, 2085-97-182 14:209:245:6222,2.068,-0.722,2.46,271.912,66.04,-177.002,-31.273,68.846,-84.078
 15:40:00.714,eb:33:2e:f9:57:b5, 2085-97-11 17:120:240:7434,2.063,-1.61,3.383,96.13,41.626,-204.773,-34.222,68.011,-89.11
 15:40:00.714,eb:33:2e:f9:57:b5, 2085-97-181 15:16:240:5919,1.796,-2.021,3.426,-34.973,189.392,-185.608,-39.661,67.819,-95.235
 15:40:00.714,eb:33:2e:f9:57:b5, 2085-97-35 13:51:239:2983,1.459,-2.046,2.244,-159.241,245.178,-207.947,-48.203,68.115,-103.321
 15:40:00.714,eb:33:2e:f9:57:b5, 2085-97-108 10:135:235:-900,1.201,-2.299,0.574,-291.321,242.737,-239.014,-58.804,67.736,-112.269
 15:40:00.717,eb:33:2e:f9:57:b5, 2085-97-37 09:15:230:-4740,1.037,-2.901,-1.518,-423.584,243.469,-194.702,-70.142,66.747,-120.586
 15:40:00.717,eb:33:2e:f9:57:b5, 2085-97-134 06:174:224:-4692,0.827,-3.505,-2.534,-529.663,207.947,-78.003,-80.596,66.105,-126.749
 15:40:00.717,eb:33:2e:f9:57:b5, 2085-97-84 08:244:220:-3980,1.379,-4.267,-2.163,-574.524,185.425,-25.391,-91.016,65.775,-131.979
 15:40:00.717,eb:33:2e:f9:57:b5, 2085-97-229 14:214:225:-2926,2.41,-4.316,-1.764,-567.749,69.214,31.921,-99.542,65.627,-135.066
 15:40:00.744,eb:33:2e:f9:57:b5, 2085-97-252 21:160:232:-2585,3.076,-3.208,-1.371,-606.873,-8.606,104.553,-106.205,66.374,-135.978
 15:40:00.744,eb:33:2e:f9:57:b5, 2085-97-84 27:19:235:-2254,3.738,-2.678,-1.237,-675.903,-109.192,125.61,-112.357,67.709,-135.714
 15:40:00.745,eb:33:2e:f9:57:b5, 2085-97-174 30:149:234:-221,3.85,-2.623,-0.712,-729.98,-258.423,117.065,-116.164,69.637,-132.198
 15:40:00.745,eb:33:2e:f9:57:b5, 2085-97-150 30:243:235:1659,3.84,-2.601,0.427,-743.103,-312.988,138.733,-117.554,72.12,-125.898
 15:40:00.953,eb:33:2e:f9:57:b5, 2085-97-137 30:05:241:2198,3.702,-2.29,1.009,-727.783,-335.388,151.245,-117.372,74.938,-118.021
 15:40:00.953,eb:33:2e:f9:57:b5, 2085-97-17 26:54:246:1368,2.904,-1.49,0.961,-677.063,-338.562,151.55,-114.313,77.811,-107.693
 15:40:00.953,eb:33:2e:f9:57:b5, 2085-97-96 21:74:253:042,2.276,-0.822,0.22,-582.703,-396.912,176.392,-105.694,80.629,-92.571
 15:40:00.953,eb:33:2e:f9:57:b5, 2085-97-136 13:160:01:-866,1.128,-0.049,-0.105,-536.56,-421.082,162.048,-81.826,82.634,-62.913
 15:40:00.958,eb:33:2e:f9:57:b5, 2085-97-201 05:220:05:-1769,0.547,0.44,-0.764,-501.709,-404.419,166.565,-51.965,82.634,-27.631
 15:40:00.958,eb:33:2e:f9:57:b5, 2085-97-97 02:00:13:342,-1.222,1.18,-0.578,-469.177,-478.149,162.231,-28.471,80.189,1
 15:40:00.958,eb:33:2e:f9:57:b5, 2085-97-31 243:170:33:6454,-1.969,1.535,2.386,-315.308,-299.866,516.724,-9.728,77.151,24.142
 15:40:00.958,eb:33:2e:f9:57:b5, 2085-97-00 249:212:48:8062,-0.245,5.368,2.082,-384.583,-464.661,253.235,2.884,74.57,40.853
 15:40:00.962,eb:33:2e:f9:57:b5, 2085-97-224 250:168:67:8411,-0.738,7.113,4.968,-351.135,-239.868,217.285,5.202,70.197,47.12
 15:40:00.962,eb:33:2e:f9:57:b5, 2085-97-84 251:230:82:8950,-0.538,9.5,3.866,-308.411,-209.717,133.789,6.037,68.055,51.553
 15:40:00.962,eb:33:2e:f9:57:b5, 2085-97-249 251:145:93:9916,-0.848,11.105,4.676,-200.012,-210.266,15.137,4.839,65.962,53.009
 15:40:00.962,eb:33:2e:f9:57:b5, 2085-97-221 245:172:97:9511,-1.787,12.15,4.734,-81.909,-234.497,-118.896,1.934,63.743,51.251
 15:40:00.962,eb:33:2e:f9:57:b5, 2085-97-41 238:189:83:10675,-2.744,11.635,5.156,2.441,-210.205,-209.167,-1.758,61.331,47.488
 15:40:00.962,eb:33:2e:f9:57:b5, 2085-97-143 226:160:58:8818,-4.288,8.929,5.066,97.29,-61.279,-240.173,-5.197,59.782,42.946
 15:40:00.962,eb:33:2e:f9:57:b5, 2085-97-137 219:01:32:6194,-8.128,5.706,3.567,222.107,29.358,-214.233,-7.482,59.507,38.403
 15:40:00.962,eb:33:2e:f9:57:b5, 2085-97-92 236:52:77:6059,4.439,8.349,5.104,199.341,181.946,235.718,-5.889,60.469,36.892
 15:40:01.013,eb:33:2e:f9:57:b5, 2085-97-111 89:229:66:2514,8.516,-0.192,5.34,-158.997,-194.458,-51.025,-10.283,56.904,33.679
 15:40:01.013,eb:33:2e:f9:57:b5, 2085-97-169 16:16:03:4113,2.227,2.284,1.541,-505.31,662.415,-235.962,-17.419,61.078,30.152
 15:40:01.013,eb:33:2e:f9:57:b5, 2085-97-91 21:174:04:5559,2.006,0.282,3.719,186.707,-257.935,-88.928,-30.399,63.012,12.772
 15:40:01.013,eb:33:2e:f9:57:b5, 2085-97-41 06:39:247:7011,0.358,-0.406,2.195,267.029,-140.442,-4.028,-27.664,61.205,13.387
 15:40:01.015,eb:33:2e:f9:57:b5, 2085-97-59 01:231:248:9416,-0.313,-0.85,4.572,381.226,258.606,159.607,-22.665,62.073,15.161
 15:40:01.015,eb:33:2e:f9:57:b5, 2085-97-124 254:213:248:6766,1.397,-0.852,3.555,399.78,300.598,46.387,-19.446,66.165,14.37
 15:40:01.015,eb:33:2e:f9:57:b5, 2085-97-235 21:129:240:11638,2.991,-1.58,4.547,483.276,-102.783,-118.042,-16.578,65.764,12.728
 15:40:01.016,eb:33:2e:f9:57:b5, 2085-97-39 26:22:237:10159,4.329,-2.014,5.405,611.511,158.752,-119.019,-13.821,66.22,9.635
 15:40:01.102,eb:33:2e:f9:57:b5, 2085-97-64 44:79:234:12369,6.393,-2.806,5.485,746.704,107.849,-244.812,-11.876,66.874,4.318
 15:40:01.102,eb:33:2e:f9:57:b5, 2085-97-206 45:188:252:12340,3.92,-1.665,6.069,826.965,280.762,-363.647,-12.294,68.225,-4.845
 15:40:01.102,eb:33:2e:f9:57:b5, 2085-97-245 17:40:22:13159,1.157,0.927,6.242,712.891,371.094,-412.476,-17.194,70.345,-18.375
 15:40:01.102,eb:33:2e:f9:57:b5, 2085-97-137 08:235:46:6709,2.395,3.9,5.122,641.907,397.705,-298.584,-25.28,72.806,-34.041
 15:40:01.105,eb:33:2e:f9:57:b5, 2085-97-205 23:193:11:5507,4.263,6.653,1.776,345.642,-105.286,-347.229,-31.514,73.334,-45.791
 15:40:01.105,eb:33:2e:f9:57:b5, 2085-97-124 08:80:11:23358,0.932,1.582,5.444,581.97,-393.311,-325.134,-32.602,68.423,-50.988
 15:40:01.105,eb:33:2e:f9:57:b5, 2085-97-41 16:58:254:2340,0.951,1.29,4.801,408.569,759.094,-165.649,-39.056,69.884,-63.386
 15:40:01.106,eb:33:2e:f9:57:b5, 2085-97-199 22:31:253:15345,3.53,0.199,6.452,495.728,-115.356,-139.648,-39.375,70.159,-68.785
 15:40:01.253,eb:33:2e:f9:57:b5, 2085-97-236 21:100:05:17439,2.66,0.18,9.047,583.435,287.842,23.376,-36.277,70.417,-71.202
 15:40:01.253,eb:33:2e:f9:57:b5, 2085-97-228 22:244:03:10961,2.962,0.794,6.154,598.328,300.72,64.88,-35.728,73.718,-76.921
 15:40:01.253,eb:33:2e:f9:57:b5, 2085-97-157 23:20:05:10939,2.677,0.283,5.116,584.778,230.042,59.387,-33.272,76.069,-80.475
 15:40:01.253,eb:33:2e:f9:57:b5, 2085-97-72 19:193:03:10323,2.351,0.646,5.359,533.508,175.415,-22.888,-31.707,77.838,-84.633
 15:40:01.284,eb:33:2e:f9:57:b5, 2085-97-154 17:183:249:8654,2.149,-0.058,4.466,447.754,32.532,-113.525,-32.602,78.311,-90.533
 15:40:01.284,eb:33:2e:f9:57:b5, 2085-97-214 15:248:239:8342,1.792,-1.54,3.998,334.106,-52.124,-147.827,-33.788,77.404,-95.724
 15:40:01.284,eb:33:2e:f9:57:b5, 2085-113-58 00:109:252:-6780,1.795,-2.258,4.189,210.754,-36.743,-125.732,-34.92,76.234,-99.608
 15:40:01.284,eb:33:2e:f9:57:b5, 2085-97-21 15:216:236:9374,1.867,-2.33,4.354,160.828,-37.231,-116.638,-35.568,75.734,-101.201
 15:40:01.284,eb:33:2e:f9:57:b5, 2085-97-173 11:180:233:8516,0.814,-2.512,4.57,85.51,44.8,-100.464,-37.678,75.075,-104.628
 15:40:01.284,eb:33:2e:f9:57:b5, 2085-97-82 04:226:229:4856,0.449,-3.072,3.408,10.803,136.047,-78.186,-42.451,75.306,-110.045
 15:40:01.284,eb:33:2e:f9:57:b5, 2085-97-132 03:54:227:1960,0.341,-3.467,1.601,-106.079,117.676,-30.945,-47.939,75.74,-115.214
 15:40:01.284,eb:33:2e:f9:57:b5, 2085-97-194 01:221:226:-1056,0.137,-3.699,0.256,-266.479,236.816,67.2,-55.14,76.998,-120.646
 15:40:01.284,eb:33:2e:f9:57:b5, 2085-97-222 01:181:230:-3949,0.489,-3.445,-1.346,-468.506,334.351,120.972,-69.324,79.316,-131.358
 15:40:01.287,eb:33:2e:f9:57:b5, 2085-97-173 06:81:236:-5124,1.304,-2.829,-2.38,-621.826,275.635,107.666,-92.505,80.997,-149.205
 15:40:01.287,eb:33:2e:f9:57:b5, 2085-97-172 14:144:239:-3446,2.375,-2.171,-2.213,-739.502,80.383,27.222,-110.934,81.337,-160.917
 15:40:01.287,eb:33:2e:f9:57:b5, 2085-97-66 18:158:241:-1966,2.068,-1.859,-1.309,-826.843,81.726,-24.902,-122.212,81.035,-164.35
 15:40:01.287,eb:33:2e:f9:57:b5, 2085-97-183 15:212:244:-821,2.048,-1.542,-0.747,-880.981,71.228,-49.011,-134.588,80.184,-168.25
 15:40:01.289,eb:33:2e:f9:57:b5, 2085-97-127 17:30:245:1370,2.066,-1.375,0.149,-926.453,-118.713,-113.525,-138.318,79.876,-162.812
 15:40:01.289,eb:33:2e:f9:57:b5, 2085-97-234 14:179:243:2424,1.776,-1.451,1.017,-935.669,-179.81,-132.08,-136.159,80.162,-151.166
 15:40:01.289,eb:33:2e:f9:57:b5, 2085-97-19 13:11:243:4003,1.29,-1.58,1.446,-895.447,-297.485,-98.633,-129.578,80.964,-135.209
 15:40:01.289,eb:33:2e:f9:57:b5, 2085-97-138 07:193:242:5462,0.596,-1.696,2.463,-829.529,-317.261,-6.653,-117.197,82.293,-114.033
 15:40:01.464,eb:33:2e:f9:57:b5, 2085-97-63 04:90:244:5271,0.454,-1.617,2.758,-730.347,-293.03,140.686,-102.881,84.056,-91.802
 15:40:01.464,eb:33:2e:f9:57:b5, 2085-97-54 04:228:245:3561,0.705,-1.486,2.255,-616.211,-278.87,242.371,-74.07,86.039,-56.195
 15:40:01.464,eb:33:2e:f9:57:b5, 2085-97-87 04:215:254:3451,0.548,-0.728,1.488,-477.844,-323.547,330.139,-12.629,85.814,10.734
 15:40:01.464,eb:33:2e:f9:57:b5, 2085-97-222 05:253:09:2103,0.739,0.592,1.495,-410.034,-266.174,356.323,18.589,82.595,46.362
 15:40:01.464,eb:33:2e:f9:57:b5, 2085-97-195 04:212:17:2330,0.321,1.738,0.906,-407.349,-266.724,327.82,27.361,78.777,59.37
 15:40:01.464,eb:33:2e:f9:57:b5, 2085-97-231 00:115:24:3541,0.085,2.654,1.429,-430.542,-225.952,300.964,30.339,75.157,66.693
 15:40:01.464,eb:33:2e:f9:57:b5, 2085-97-193 02:123:25:5596,0.43,3.194,2.076,-476.135,-328.186,204.834,28.861,71.548,69.879
 15:40:01.464,eb:33:2e:f9:57:b5, 2085-97-162 01:22:29:7380,-0.02,3.314,3.44,-487.183,-267.578,160.95,24.34,67.885,70.23
 15:40:01.494,eb:33:2e:f9:57:b5, 2085-97-58 00:87:35:7687,0.136,4.042,3.503,-475.342,-227.966,103.76,20.457,65.297,71.246
 15:40:01.494,eb:33:2e:f9:57:b5, 2085-97-203 00:172:40:7613,-0.027,4.752,3.87,-427.673,-192.566,34.546,15.771,63.012,71.065
 15:40:01.494,eb:33:2e:f9:57:b5, 2085-97-96 255:191:43:6783,-0.143,5.3,3.487,-362.732,-168.091,-31.372,11.052,61.32,70.164
 15:40:01.494,eb:33:2e:f9:57:b5, 2085-97-189 253:191:45:6961,-0.659,5.613,3.3,-288.757,-178.711,-95.581,6.18,59.689,68.286
 15:40:01.552,eb:33:2e:f9:57:b5, 2085-97-127 247:60:47:7041,-1.257,5.898,3.407,-207.153,-169.922,-141.235,1.549,58.035,65.715
 15:40:01.552,eb:33:2e:f9:57:b5, 2085-97-60 245:180:45:7804,-1.493,5.831,3.603,-141.968,-170.105,-160.767,-2.521,56.283,62.886
 15:40:01.552,eb:33:2e:f9:57:b5, 2085-97-30 243:71:44:8087,-1.606,5.592,3.969,-95.398,-106.934,-154.297,-5.834,54.761,60.276
 15:40:01.552,eb:33:2e:f9:57:b5, 2085-97-214 243:203:45:7497,-1.421,5.611,3.812,-37.231,-13.489,-143.127,-8.459,54.014,57.859
 15:40:01.554,eb:33:2e:f9:57:b5, 2085-97-66 245:234:45:6365,-1.396,5.815,3.445,55.969,77.148,-133.85,-10.322,54.157,55.426
 15:40:01.554,eb:33:2e:f9:57:b5, 2085-97-152 247:39:38:3821,-0.871,5.258,2.693,167.847,122.559,-117.676,-11.195,54.959,52.91
 15:40:01.554,eb:33:2e:f9:57:b5, 2085-97-29 249:202:24:710,0.212,3.988,1.239,247.009,111.389,-104.797,-11.063,55.865,50.504
 15:40:01.554,eb:33:2e:f9:57:b5, 2085-97-22 10:95:39:24883,6.157,2.459,-0.042,565.918,-343.018,-197.998,-9.558,55.854,48.461
 15:40:01.610,eb:33:2e:f9:57:b5, 2085-97-211 230:172:26:8819,6.904,12.105,6.896,194.641,942.383,-263.123,-10.492,51.844,42.731
 15:40:01.610,eb:33:2e:f9:57:b5, 2085-97-108 234:95:19:1574,-8.539,10.42,5.621,252.258,-598.572,-112,-8.152,56.942,40.413
 15:40:01.610,eb:33:2e:f9:57:b5, 2085-97-36 188:69:18:-1676,-0.183,-8.825,-2.759,21.484,-93.201,-250.732,-14.359,48.224,33.349
 15:40:01.610,eb:33:2e:f9:57:b5, 2085-97-37 01:54:236:3443,2.493,6.392,-7.092,48.889,-765.503,-146.851,-3.988,44.885,41.704
 15:40:01.613,eb:33:2e:f9:57:b5, 2085-97-143 26:115:12:457,2.532,0.441,4.732,192.078,-135.559,-13.55,-3.027,36.996,40.748
 15:40:01.613,eb:33:2e:f9:57:b5, 2085-97-245 23:135:05:6283,-0.592,-0.039,1.938,181.885,-221.069,-106.201,-2.302,36.595,39.721
 15:40:01.613,eb:33:2e:f9:57:b5, 2085-97-104 233:21:253:1554,-0.687,-0.032,1.132,137.451,217.896,-155.273,-1.818,37.562,37.936
 15:40:01.613,eb:33:2e:f9:57:b5, 2085-97-62 09:19:02:7235,1.439,-0.121,1.832,179.199,-256.531,-191.772,-1.505,36.656,35.821
 15:40:01.615,eb:33:2e:f9:57:b5, 2085-97-93 10:07:252:8025,2.282,-0.094,3.628,229.126,-52.307,-243.835,-1.082,35.359,33.151
 15:40:01.615,eb:33:2e:f9:57:b5, 2085-97-226 23:66:245:11302,3.441,-0.66,4.598,375.183,-259.705,-236.938,0.33,33.547,30.212
 15:40:01.615,eb:33:2e:f9:57:b5, 2085-97-115 29:76:237:9601,3.49,-1.813,5.343,547.241,-75.684,-98.755,3.873,31.833,28.18
 15:40:01.615,eb:33:2e:f9:57:b5, 2085-97-226 28:122:231:9796,3.201,-2.752,4.732,785.156,144.653,67.566,10.844,32.047,28.345
 15:40:01.673,eb:33:2e:f9:57:b5, 2085-97-170 18:35:241:7811,1.192,-2.719,5.406,799.683,554.81,-56.702,19.841,35.349,29.762
 15:40:01.673,eb:33:2e:f9:57:b5, 2085-97-14 10:221:03:10375,1.281,-0.456,3.595,665.1,66.345,-350.708,26.917,39.88,29.251
 15:40:01.673,eb:33:2e:f9:57:b5, 2085-97-68 15:47:24:12700,1.169,1.501,6.58,588.989,-5.737,-303.406,29.762,40.957,24.417
 15:40:01.673,eb:33:2e:f9:57:b5, 2085-97-249 07:155:28:4486,2.251,3.542,4.772,481.995,520.996,-132.874,34.717,44.352,23.582
 15:40:01.703,eb:33:2e:f9:57:b5, 2085-97-188 18:07:01:2191,2.324,2.482,-0.32,251.343,160.706,-249.023,39.831,48.917,26.087
 15:40:01.703,eb:33:2e:f9:57:b5, 2085-97-178 247:99:28:12004,2.677,5.546,5.001,508.545,90.759,-264.221,42.215,49.856,23.016
 15:40:01.703,eb:33:2e:f9:57:b5, 2085-97-56 22:230:11:3313,2.515,2.619,-1.341,351.746,4.517,-272.095,46.121,54.179,23.329
 15:40:01.703,eb:33:2e:f9:57:b5, 2085-113-58 00:249:247:-6660,3.263,0.336,5.062,324.646,-73.181,-292.725,44.006,54.509,16.386
 15:40:01.732,eb:33:2e:f9:57:b5, 2085-97-203 16:48:04:10345,1.81,0.087,4.512,360.352,155.457,-194.58,44.995,55.613,15.485
 15:40:01.732,eb:33:2e:f9:57:b5, 2085-97-168 16:41:255:10005,2.008,0.326,4.706,369.629,56.946,-197.449,48.203,57.997,14.914
 15:40:01.732,eb:33:2e:f9:57:b5, 2085-97-178 13:229:248:9161,1.656,-0.425,5.08,382.812,68.726,-132.263,50.652,59.464,13.315
 15:40:01.732,eb:33:2e:f9:57:b5, 2085-97-251 16:233:241:11186,2.597,-1.466,4.753,406.128,-49.316,-94.604,53.52,60.436,12.074
 15:40:01.793,eb:33:2e:f9:57:b5, 2085-97-124 20:239:239:10887,2.488,-1.969,5.764,423.218,65.979,-58.289,56.7,60.985,10.92
 15:40:01.793,eb:33:2e:f9:57:b5, 2085-97-148 17:148:241:7565,1.856,-2.015,4.528,390.991,152.893,-27.161,62.331,61.952,12.629
 15:40:01.793,eb:33:2e:f9:57:b5, 2085-97-130 13:165:246:4853,1.771,-1.488,2.827,307.495,146.24,-7.568,68.615,62.77,15.793
 15:40:01.793,eb:33:2e:f9:57:b5, 2085-97-28 16:176:245:6480,2.282,-1.115,2.542,213.501,-25.208,-39.673,72.004,63.188,16.727
 15:40:01.823,eb:33:2e:f9:57:b5, 2085-97-13 19:244:241:7856,2.198,-1.578,3.715,172.363,-76.782,-84.29,72.153,63.594,14.815
 15:40:01.823,eb:33:2e:f9:57:b5, 2085-97-08 16:106:239:7175,1.822,-1.933,3.754,156.982,-62.988,-128.54,71.724,64.418,12.48
 15:40:01.823,eb:33:2e:f9:57:b5, 2085-97-153 12:132:236:6223,1.362,-2.27,3.208,121.521,-50.476,-151.55,70.939,65.61,10.08
 15:40:01.823,eb:33:2e:f9:57:b5, 2085-97-241 09:124:236:5403,1.235,-2.495,2.841,62.927,-25.208,-130.92,69.988,66.841,8.02
 15:40:01.854,eb:33:2e:f9:57:b5, 2085-97-32 10:199:236:4952,1.274,-2.431,2.522,-13.306,-16.724,-83.13,68.791,67.769,6.493
 15:40:01.854,eb:33:2e:f9:57:b5, 2085-97-145 10:59:237:4343,1.233,-2.383,2.228,-90.027,21.79,-33.264,67.775,68.297,5.977
 15:40:01.854,eb:33:2e:f9:57:b5, 2085-97-254 06:154:236:2492,0.155,-2.343,1.732,-157.166,116.455,12.451,68.231,68.648,7.833
 15:40:01.854,eb:33:2e:f9:57:b5, 2085-97-220 253:115:232:-1400,0.052,-2.758,0.255,-229.553,72.51,40.894,69.39,68.868,11.157
 15:40:01.913,eb:33:2e:f9:57:b5, 2085-97-66 02:59:231:-1524,0.417,-3.226,-0.252,-364.502,19.043,73.914,66.555,68.439,11.316
 15:40:01.913,eb:33:2e:f9:57:b5, 2085-97-169 04:166:234:-1182,0.775,-2.74,-0.983,-526.794,21.301,196.716,64.627,67.176,14.03
 15:40:01.913,eb:33:2e:f9:57:b5, 2085-97-27 09:239:238:1686,1.571,-2.509,0.125,-653.076,-22.583,257.69,60.903,65.067,16.545
 15:40:01.913,eb:33:2e:f9:57:b5, 2085-97-103 17:113:249:3199,2.711,-1.567,1.331,-713.745,-19.287,253.845,56.475,62.704,19.248
 15:40:01.942,eb:33:2e:f9:57:b5, 2085-97-173 20:202:01:3622,2.402,-0.048,1.673,-777.832,-17.151,121.216,50.718,61.04,21.165
 15:40:01.942,eb:33:2e:f9:57:b5, 2085-97-186 15:196:05:2763,1.815,0.627,1.552,-769.287,-24.048,118.958,44.291,60.123,22.637
 15:40:01.942,eb:33:2e:f9:57:b5, 2085-97-66 15:112:04:2331,1.96,0.684,1.184,-759.155,-202.087,80.322,36.821,58.585,22.802
 15:40:01.942,eb:33:2e:f9:57:b5, 2085-97-180 15:77:02:3674,1.449,0.39,1.403,-756.653,-351.562,63.232,27.559,55.69,20.759
 15:40:02.004,eb:33:2e:f9:57:b5, 2085-97-70 04:249:252:6476,0.6,0.058,2.249,-726.074,-336.121,151.306,19.429,52.114,19.951
 15:40:02.004,eb:33:2e:f9:57:b5, 2085-97-35 04:78:255:5816,0.518,0.076,3.195,-680.359,-226.807,240.784,14.387,48.801,22.225
 15:40:02.004,eb:33:2e:f9:57:b5, 2085-97-138 04:190:01:4259,0.604,-0.019,2.422,-625.305,-247.864,252.686,9.833,46.077,24.977
 15:40:02.004,eb:33:2e:f9:57:b5, 2085-97-38 03:131:08:3710,-0.075,0.606,1.917,-530.579,-276.123,317.688,6.592,42.984,28.438
 15:40:02.034,eb:33:2e:f9:57:b5, 2085-97-114 252:126:16:2925,-0.469,1.519,1.652,-429.016,-202.393,418.579,4.933,40.303,33.08
 15:40:02.034,eb:33:2e:f9:57:b5, 2085-97-127 254:248:23:4501,0.12,2.585,1.522,-398.499,-357.971,365.723,4.048,37.337,38.079
 15:40:02.034,eb:33:2e:f9:57:b5, 2085-97-04 01:59:33:7262,-0.064,3.489,3.078,-394.714,-345.093,314.636,2.258,33.25,41.814
 15:40:02.034,eb:33:2e:f9:57:b5, 2085-97-152 255:232:42:6925,0.133,4.849,3.438,-421.936,-196.045,280.64,0.093,30.795,45.374
 15:40:02.062,eb:33:2e:f9:57:b5, 2085-97-98 01:50:48:7221,0.118,5.712,3.51,-446.35,-170.837,199.097,-2.922,28.943,48.115
 15:40:02.062,eb:33:2e:f9:57:b5, 2085-97-210 01:214:53:7586,0.423,6.348,3.531,-412.292,-166.626,117.737,-6.334,27.493,50.043
 15:40:02.062,eb:33:2e:f9:57:b5, 2085-97-244 03:24:62:8470,0.427,7.179,4.007,-332.397,-190.063,13.306,-9.597,25.724,51.021
 15:40:02.062,eb:33:2e:f9:57:b5, 2085-97-03 01:08:71:8436,-0.222,8.398,4.091,-237.061,-174.927,-98.633,-12.453,23.835,50.889
 15:40:02.094,eb:33:2e:f9:57:b5, 2085-97-232 250:121:70:7397,-0.929,8.92,4.132,-147.766,-124.512,-201.416,-14.843,22.006,49.587
 15:40:02.094,eb:33:2e:f9:57:b5, 2085-97-202 243:201:59:7279,-1.768,8.175,3.397,-79.468,-148.254,-291.565,-16.754,19.885,47.368
 15:40:02.094,eb:33:2e:f9:57:b5, 2085-97-204 235:218:49:8410,-3.242,6.404,3.542,14.893,-37.17,-265.564,-17.979,18.144,44.725
 15:40:02.094,eb:33:2e:f9:57:b5, 2085-97-253 228:17:36:8233,-3.406,5.428,3.496,116.699,-6.409,-264.282,-18.204,17.551,41.946
 15:40:02.184,eb:33:2e:f9:57:b5, 2085-97-179 228:157:24:7737,-3.297,3.831,4.043,244.019,97.107,-151.733,-16.985,17.336,39.765
 15:40:02.184,eb:33:2e:f9:57:b5, 2085-97-69 232:204:10:5724,-2.64,2.388,3.292,351.501,149.597,-44.983,-14.326,18.358,38.414
 15:40:02.184,eb:33:2e:f9:57:b5, 2085-97-222 235:245:249:1263,-2.731,0.287,1.648,447.266,208.984,32.227,-10.404,20.248,37.991
 15:40:02.184,eb:33:2e:f9:57:b5, 2085-97-127 224:195:67:17240,7.9,-1.549,-0.275,644.409,207.642,111.084,-5.24,22.225,38.392
 15:40:02.184,eb:33:2e:f9:57:b5, 2085-97-188 76:86:78:-9998,7.155,-1.954,9.292,-73.73,768.555,-425.11,-3.576,22.747,39.485
 15:40:02.184,eb:33:2e:f9:57:b5, 2085-97-136 213:00:169:15572,-2.405,-0.454,-0.135,-643.311,519.287,-631.409,-8.498,28.724,36.661
 15:40:02.184,eb:33:2e:f9:57:b5, 2085-97-06 14:110:17:-3864,-3.57,-1.628,2.216,243.591,552.002,300.11,-8.69,35.821,36.502
 15:40:02.184,eb:33:2e:f9:57:b5, 2085-97-106 193:90:237:-3192,-6.686,-0.446,3.56,103.455,551.88,-81.97,-7.394,38.513,35.684
 15:40:02.242,eb:33:2e:f9:57:b5, 2085-97-156 248:116:254:1441,2.106,-0.023,-4.982,104.187,-328.43,-93.872,-6.443,42.017,35.327
 15:40:02.242,eb:33:2e:f9:57:b5, 2085-97-226 18:53:01:8661,2.711,-0.616,4.835,236.206,-561.096,-150.391,-5.636,34.915,33.937
 15:40:02.242,eb:33:2e:f9:57:b5, 2085-97-212 27:193:09:6995,3.574,0.857,2.969,332.092,-362.61,-297.424,-3.862,31.992,31.965
 15:40:02.242,eb:33:2e:f9:57:b5, 2085-97-112 25:41:00:8530,3.003,0.505,4.05,265.076,-410.4,-524.963,-3.268,27.153,27.043
 15:40:02.301,eb:33:2e:f9:57:b5, 2085-97-215 22:185:226:13574,4.099,-1.631,4.461,491.455,-498.413,-141.907,-1.599,22.665,23.071
 15:40:02.302,eb:33:2e:f9:57:b5, 2085-97-136 33:112:226:16138,4.452,-4.182,7.388,862.488,276.672,206.482,6.317,20.967,24.362
 15:40:02.303,eb:33:2e:f9:57:b5, 2085-97-190 34:245:231:8385,5.107,-3.612,5.008,869.324,697.51,-60.486,15.738,27.68,26.664
 15:40:02.303,eb:33:2e:f9:57:b5, 2085-97-102 40:171:241:9901,3.799,-2.507,4.358,863.098,276.306,-452.332,23.61,32.662,25.021
 15:40:02.305,eb:33:2e:f9:57:b5, 2085-97-238 13:202:06:14633,1.788,-0.11,5.609,751.221,263.062,-501.404,29.366,37.321,20.995
 15:40:02.305,eb:33:2e:f9:57:b5, 2085-97-250 16:252:32:12337,4.139,1.976,7.431,726.624,111.45,-397.4,34.59,40.946,17.501
 15:40:02.305,eb:33:2e:f9:57:b5, 2085-97-242 47:142:06:6272,4.564,4.82,3.578,429.077,41.26,-370.85,38.996,43.83,14.98
 15:40:02.305,eb:33:2e:f9:57:b5, 2085-97-170 43:35:22:11603,-0.845,-5.642,5.613,551.086,303.345,-202.576,39.1,46.708,10.311
 15:40:02.363,eb:33:2e:f9:57:b5, 2085-97-194 15:162:253:3574,3.807,0.369,8.344,500.061,597.412,-220.886,47.637,51.537,13.442
 15:40:02.363,eb:33:2e:f9:57:b5, 2085-97-120 32:194:238:18086,4.525,-2.321,3.824,550.964,-389.832,-37.903,51.438,53.042,12.294
 15:40:02.363,eb:33:2e:f9:57:b5, 2085-97-144 23:109:251:12308,2.891,-2.315,6.848,542.236,274.414,116.15,57.052,52.751,12.739
 15:40:02.363,eb:33:2e:f9:57:b5, 2085-97-167 25:154:09:12128,3.069,0.846,5.439,533.264,123.23,56.519,65.825,52.943,16.804
 15:40:02.363,eb:33:2e:f9:57:b5, 2085-97-126 24:26:10:11226,2.986,1.321,6.552,470.886,162.659,-68.665,72.103,53.361,18.292
 15:40:02.392,eb:33:2e:f9:57:b5, 2085-113-81 00:107:93:15762,2.709,0.674,3.834,336.06,103.577,-247.253,77.822,55.475,20.424
 15:40:02.392,eb:33:2e:f9:57:b5, 2085-97-49 17:59:247:6800,1.874,-0.178,3.153,276.306,-25.33,-299.377,79.047,56.876,20.099
 15:40:02.392,eb:33:2e:f9:57:b5, 2085-97-44 15:130:235:5907,1.756,-1.871,3.125,128.784,-106.873,-325.378,78.838,59.843,17.534
 15:40:02.392,eb:33:2e:f9:57:b5, 2085-97-134 13:208:230:6721,1.647,-3.041,3.077,-8.423,-110.229,-263.672,75.91,62.496,13.579
 15:40:02.483,eb:33:2e:f9:57:b5, 2085-97-175 10:05:230:6431,0.708,-3.102,3.252,-117.31,-29.907,-185.608,72.828,64.413,10.926
 15:40:02.483,eb:33:2e:f9:57:b5, 2085-97-56 04:152:226:4808,0.654,-3.566,2.938,-204.773,33.386,-127.136,70.219,65.929,9.86
 15:40:02.483,eb:33:2e:f9:57:b5, 2085-97-55 04:169:228:1606,0.362,-3.545,1.499,-304.871,73.059,-36.377,68.198,66.874,10.443
 15:40:02.483,eb:33:2e:f9:57:b5, 2085-97-55 03:86:229:-917,0.56,-3.349,0.195,-461.06,138.123,53.467,66.775,67.121,13.046
 15:40:02.543,eb:33:2e:f9:57:b5, 2085-97-167 05:77:230:-2817,0.863,-3.311,-1.14,-616.638,163.391,100.281,65.797,67.05,17.957
 15:40:02.543,eb:33:2e:f9:57:b5, 2085-97-114 09:125:235:-1481,1.472,-2.879,-1.151,-706.36,-14.038,113.403,61.963,66.335,21
 15:40:02.543,eb:33:2e:f9:57:b5, 2085-97-119 13:135:239:600,1.741,-2.356,-0.143,-740.417,-101.135,88.318,54.305,65.121,20.627
 15:40:02.543,eb:33:2e:f9:57:b5, 2085-97-174 13:104:243:953,1.611,-1.748,0.368,-737.488,-127.441,77.698,46.318,63.798,19.924
 15:40:02.546,eb:33:2e:f9:57:b5, 2085-97-17 11:203:243:1877,1.311,-1.418,0.665,-729.736,-197.449,84.412,37.991,62.001,18.787
 15:40:02.546,eb:33:2e:f9:57:b5, 2085-97-114 11:64:244:2975,1.567,-1.515,1.149,-723.694,-300.842,100.281,29.767,59.392,17.611
 15:40:02.546,eb:33:2e:f9:57:b5, 2085-97-91 13:215:246:4098,1.659,-1.344,1.788,-721.619,-363.708,108.887,21.649,55.811,16.562
 15:40:02.546,eb:33:2e:f9:57:b5, 2085-97-214 11:181:248:4619,1.268,-0.989,2.121,-698.425,-351.685,135.071,14.573,52.037,16.562
 15:40:02.546,eb:33:2e:f9:57:b5, 2085-97-117 08:250:249:4425,0.94,-0.834,2.335,-633.24,-329.102,215.759,9.196,48.34,18.204
 15:40:02.546,eb:33:2e:f9:57:b5, 2085-97-56 08:143:253:2858,1.044,-0.666,1.771,-598.328,-301.27,256.042,5.29,45,21.143
 15:40:02.547,eb:33:2e:f9:57:b5, 2085-97-89 08:34:06:3215,0.625,0.147,1.417,-606.506,-305.847,209.229,1.274,41.77,24.066
 15:40:02.547,eb:33:2e:f9:57:b5, 2085-97-15 254:254:13:4639,-0.866,1.289,1.948,-569.092,-186.951,260.681,-2.714,39.183,26.949
 15:40:02.603,eb:33:2e:f9:57:b5, 2085-97-182 244:02:21:1590,-1.292,2.427,1.609,-539.49,-52.917,262.573,-5.735,38.732,30.784
 15:40:02.603,eb:33:2e:f9:57:b5, 2085-97-241 250:110:20:6046,-0.41,2.577,1.377,-527.893,-447.754,160.645,-9.294,36.216,33.613
 15:40:02.603,eb:33:2e:f9:57:b5, 2085-113-58 00:147:229:-4005,-0.837,3.018,4.448,-498.657,-286.072,249.939,-12.486,32.618,37.002
 15:40:02.603,eb:33:2e:f9:57:b5, 2085-97-121 246:102:40:10044,-0.752,4.038,4.936,-491.821,-202.698,248.413,-14.013,31.833,38.771
 15:40:02.633,eb:33:2e:f9:57:b5, 2085-97-46 252:203:51:10634,-0.23,5.735,5.372,-440.063,-223.633,207.214,-17.029,30.157,41.984
 15:40:02.633,eb:33:2e:f9:57:b5, 2085-97-217 255:94:63:10531,0.101,7.192,4.968,-342.224,-219.666,170.715,-19.517,28.773,44.835
 15:40:02.633,eb:33:2e:f9:57:b5, 2085-97-241 253:111:73:10781,-0.967,8.653,5.251,-225.403,-207.153,79.102,-21.248,27.18,47.038
 15:40:02.633,eb:33:2e:f9:57:b5, 2085-97-153 243:51:74:8423,-2.075,9.452,4.803,-114.197,-112.366,-43.884,-22.533,25.746,47.862
 15:40:02.663,eb:33:2e:f9:57:b5, 2085-97-232 235:157:59:5392,-2.772,8.576,3.268,-38.818,-27.527,-130.615,-23.527,24.791,47.17
 15:40:02.663,eb:33:2e:f9:57:b5, 2085-97-203 230:145:38:4011,-3.058,6.156,2.292,20.447,25.757,-172.913,-24.258,24.148,45.588
 15:40:02.663,eb:33:2e:f9:57:b5, 2085-97-220 235:180:19:2030,3.266,3.732,1.354,73.303,91.553,-165.466,-24.565,24.071,43.566
 15:40:02.663,eb:33:2e:f9:57:b5, 2085-113-81 00:43:113:-8383,1.407,3.589,3.906,490.295,-756.409,-648.254,-23.483,22.467,41.182
 15:40:02.663,eb:33:2e:f9:57:b5, 2085-97-214 15:163:95:30419,3.783,7.91,12.582,685.059,-785.889,-1091.125,-21.621,16.463,38.09
 15:40:02.722,eb:33:2e:f9:57:b5, 2085-97-249 04:84:69:12277,3.468,-3.121,14.813,1534.363,-664.307,-68.298,-14.667,8.871,33.865
 15:40:02.722,eb:33:2e:f9:57:b5, 2085-97-206 151:86:200:-21174,-11.525,-2.583,-13.155,-263.672,133.362,-722.961,-8.262,0.873,32.618
 15:40:02.722,eb:33:2e:f9:57:b5, 2085-97-36 228:171:236:20923,7.536,-6.293,6.683,503.54,-1494.385,378.601,-5.367,-6.416,37.815
 15:40:02.722,eb:33:2e:f9:57:b5, 2085-97-57 06:42:09:2573,-1.353,3.771,-4.369,126.343,-10.315,-227.6,-2.131,-10.058,40.287
 15:40:02.753,eb:33:2e:f9:57:b5, 2085-97-101 24:131:11:-480,5.76,-0.067,0.184,136.475,-122.925,-195.374,-0.665,-9.261,37.711
 15:40:02.753,eb:33:2e:f9:57:b5, 2085-97-226 17:61:06:5630,-1.401,0.614,2.699,142.334,89.478,-217.957,1.203,-10.717,36.348
 15:40:02.753,eb:33:2e:f9:57:b5, 2085-97-72 247:40:252:2688,1.316,-0.079,0.319,104.675,178.589,-213.623,2.675,-7.663,33.854
 15:40:02.753,eb:33:2e:f9:57:b5, 2085-97-73 14:188:03:8181,0.721,0.225,3.503,166.565,18.372,-81.299,4.312,-7.515,32.783
 15:40:02.783,eb:33:2e:f9:57:b5, 2085-97-168 07:120:250:7563,2.493,-0.185,3.637,193.848,71.655,-117.554,6.103,-6.465,31.542
 15:40:02.783,eb:33:2e:f9:57:b5, 2085-97-181 31:135:249:10672,3.696,-0.253,4.74,343.079,-144.531,-86.365,8.992,-7.136,30.74
 15:40:02.783,eb:33:2e:f9:57:b5, 2085-97-136 21:233:231:10714,3.357,-2.095,5.353,495.85,46.875,-148.315,13.337,-7.416,29.031
 15:40:02.783,eb:33:2e:f9:57:b5, 2085-97-189 24:138:238:10462,1.973,-2.554,4.014,692.627,235.046,-44.312,19.611,-5.598,28.982
 15:40:02.844,eb:33:2e:f9:57:b5, 2085-97-245 07:91:09:9108,1.032,0.365,4.834,627.869,392.578,-233.093,26.373,-1.615,29.416
 15:40:02.844,eb:33:2e:f9:57:b5, 2085-97-71 15:82:21:10914,2.155,2.141,5.675,492.859,47.607,-334.229,31.899,0.939,27.241
 15:40:02.844,eb:33:2e:f9:57:b5, 2085-97-151 24:159:26:5586,2.585,2.636,4.59,446.533,194.946,-244.08,36.667,3.505,25.417
 15:40:02.844,eb:33:2e:f9:57:b5, 2085-97-07 23:48:24:7667,1.352,1.946,2.664,349.792,104.553,-370.056,40.193,6.647,23.813
 15:40:02.874,eb:33:2e:f9:57:b5, 2085-97-50 09:147:16:6216,3.188,3.999,5.851,366.821,271.484,-477.112,44.39,9.701,21.632
 15:40:02.874,eb:33:2e:f9:57:b5, 2085-97-53 21:13:03:4989,2.485,1.18,-0.171,283.081,-91.797,-446.045,46.84,14.54,19.715
 15:40:02.874,eb:33:2e:f9:57:b5, 2085-97-174 22:11:02:7464,2.096,0.019,3.783,242.615,8.972,-421.204,48.362,17.292,15.98
 15:40:02.874,eb:33:2e:f9:57:b5, 2085-97-61 15:22:250:10448,1.987,-0.099,4.909,257.812,8.911,-396.362,49.977,20.336,13.09
 15:40:02.902,eb:33:2e:f9:57:b5, 2085-97-96 16:34:237:9989,2.147,-1.479,4.877,287.476,41.26,-335.51,51.844,23.373,10.827
 15:40:02.902,eb:33:2e:f9:57:b5, 2085-97-146 16:121:229:7634,1.919,-2.997,4.448,319.458,212.769,-198.608,54.712,26.241,10.217
 15:40:02.903,eb:33:2e:f9:57:b5, 2085-97-243 14:94:232:5374,1.974,-3.333,3.025,311.096,268.921,-56.763,58.656,28.691,11.871
 15:40:02.903,eb:33:2e:f9:57:b5, 2085-97-235 17:63:239:5190,2.534,-2.519,2.474,269.043,254.456,69.58,62.88,29.855,14.546
 15:40:02.993,eb:33:2e:f9:57:b5, 2085-97-228 20:108:244:6122,2.821,-1.562,2.821,235.413,252.869,110.168,67.011,29.866,17.672
 15:40:02.993,eb:33:2e:f9:57:b5, 2085-97-77 23:113:248:5853,3.196,-1.047,2.536,226.624,183.289,70.374,70.823,29.872,20.671
 15:40:02.993,eb:33:2e:f9:57:b5, 2085-97-145 24:37:250:4188,2.745,-0.792,2.644,218.689,214.417,2.747,74.119,30.125,22.731
 15:40:02.993,eb:33:2e:f9:57:b5, 2085-97-220 19:146:249:3919,2.418,-0.772,1.946,193.176,141.479,-56.946,77.184,30.844,24.62
 15:40:02.995,eb:33:2e:f9:57:b5, 2085-97-166 20:111:248:3847,2.753,-0.782,1.701,143.005,34.302,-122.253,79.299,31.926,25.472
 15:40:02.995,eb:33:2e:f9:57:b5, 2085-97-156 22:234:243:5412,2.7,-1.204,2.432,101.501,0.916,-158.142,80.288,33.327,25.049
 15:40:02.995,eb:33:2e:f9:57:b5, 2085-97-128 20:146:240:5551,2.389,-1.751,2.683,77.393,52.307,-179.626,81.183,35.09,25.12
 15:40:02.995,eb:33:2e:f9:57:b5, 2085-97-55 18:185:237:4861,1.894,-2.095,2.583,53.284,86.304,-176.208,82.128,37.007,25.554
 15:40:03.055,eb:33:2e:f9:57:b5, 2085-97-96 10:03:233:4655,0.718,-2.555,2.347,5.615,146.851,-127.075,83.194,38.655,26.796
 15:40:03.055,eb:33:2e:f9:57:b5, 2085-97-237 03:112:228:2648,0.847,-3.18,1.917,-67.81,174.866,-37.598,84.194,39.655,28.839
 15:40:03.055,eb:33:2e:f9:57:b5, 2085-97-56 09:116:228:1610,1.265,-3.455,0.743,-156.189,67.383,124.023,84.078,39.276,30.432
 15:40:03.055,eb:33:2e:f9:57:b5, 2085-97-56 10:62:232:597,1.221,-3.285,0.74,-259.399,149.536,279.663,82.914,37.271,31.965
 15:40:03.083,eb:33:2e:f9:57:b5, 2085-97-92 11:254:238:-1491,1.838,-2.635,-0.167,-346.863,188.904,364.502,81.447,34.244,34.717
 15:40:03.083,eb:33:2e:f9:57:b5, 2085-113-100 00:143:01:000,2.183,-1.511,-1.118,-433.899,78.308,346.619,78.838,30.861,37.112
 15:40:03.083,eb:33:2e:f9:57:b5, 2085-97-15 20:133:251:-1157,2.734,-1.038,-0.97,-472.107,-1.099,309.143,76.833,29.306,37.672
 15:40:03.083,eb:33:2e:f9:57:b5, 2085-97-232 20:66:255:-214,2.39,-0.17,-0.345,-552.063,-82.397,227.539,71.812,26.631,37.864
 15:40:03.113,eb:33:2e:f9:57:b5, 2085-97-190 18:174:253:1019,2.447,-0.119,0.165,-629.761,-154.236,196.35,65.742,24.214,37.546
 15:40:03.113,eb:33:2e:f9:57:b5, 2085-97-190 20:193:252:3075,2.605,-0.418,1.022,-695.251,-245.85,170.349,58.629,21.616,36.337
 15:40:03.113,eb:33:2e:f9:57:b5, 2085-97-173 20:01:255:4348,2.521,-0.303,1.856,-722.656,-270.142,131.714,51.026,18.88,35.008
 15:40:03.113,eb:33:2e:f9:57:b5, 2085-97-110 19:144:01:5328,2.262,0.032,2.358,-704.407,-310.669,95.337,43.434,16.106,33.464
 15:40:03.144,eb:33:2e:f9:57:b5, 2085-97-172 16:94:02:6176,1.938,0.273,2.836,-656.128,-323.914,114.99,36.315,12.98,32.179
 15:40:03.144,eb:33:2e:f9:57:b5, 2085-97-117 14:172:00:6506,1.685,0.233,3.087,-610.229,-335.632,124.695,29.872,9.575,31.322
 15:40:03.144,eb:33:2e:f9:57:b5, 2085-97-79 12:147:253:6931,1.371,-0.128,3.291,-555.115,-339.294,170.959,24.027,5.889,31.091
 15:40:03.144,eb:33:2e:f9:57:b5, 2085-97-174 10:187:255:6304,1.279,-0.348,3.331,-511.78,-327.942,228.577,18.809,2.065,31.729
 15:40:03.203,eb:33:2e:f9:57:b5, 2085-97-28 10:23:09:6327,1.038,0.535,3.058,-501.587,-382.446,223.999,13.782,-2.027,32.937
 15:40:03.203,eb:33:2e:f9:57:b5, 2085-97-211 03:130:14:7505,-0.03,1.556,3.307,-489.136,-392.456,240.356,8.685,-6.339,34.365
 15:40:03.203,eb:33:2e:f9:57:b5, 2085-97-81 253:171:19:6883,-0.366,2.211,3.612,-440.125,-266.052,347.29,3.708,-9.838,37.123
 15:40:03.203,eb:33:2e:f9:57:b5, 2085-97-201 255:65:20:8686,0.362,2.561,3.572,-421.57,-398.987,279.48,-1.203,-13.134,40.331
 15:40:03.233,eb:33:2e:f9:57:b5, 2085-97-26 02:83:22:10192,-0.15,2.571,4.857,-385.62,-323.059,256.653,-5.988,-16.902,43.237
 15:40:03.233,eb:33:2e:f9:57:b5, 2085-97-120 253:22:30:8858,-0.17,3.216,4.63,-340.576,-153.076,283.447,-10.552,-18.539,46.401
 15:40:03.233,eb:33:2e:f9:57:b5, 2085-97-143 00:165:37:9106,0.046,4.186,4.228,-318.848,-213.013,219.299,-14.804,-19.753,49.422
 15:40:03.233,eb:33:2e:f9:57:b5, 2085-97-223 252:91:48:8346,-0.71,5.427,4.375,-287.354,-115.967,186.157,-18.71,-20.781,51.982
 15:40:03.262,eb:33:2e:f9:57:b5, 2085-97-55 251:135:51:7011,-0.587,6.336,3.641,-253.174,-147.4,71.96,-22.028,-21.456,53.718
 15:40:03.262,eb:33:2e:f9:57:b5, 2085-97-20 250:195:50:5677,-0.863,6.455,3.146,-211.67,-106.384,-11.658,-24.615,-22.599,54.514
 15:40:03.262,eb:33:2e:f9:57:b5, 2085-97-250 248:107:46:4449,-1.016,6.18,2.417,-179.443,-60.425,-75.317,-26.521,-23.527,54.437
 15:40:03.262,eb:33:2e:f9:57:b5, 2085-97-44 246:123:40:3755,-1.59,5.426,2.114,-124.329,-8.179,-117.615,-27.713,-24.307,53.646
 15:40:03.323,eb:33:2e:f9:57:b5, 2085-97-18 241:115:33:2475,-2.038,4.69,1.548,-43.213,26.062,-130.188,-27.982,-24.763,52.344
 15:40:03.323,eb:33:2e:f9:57:b5, 2085-97-169 239:86:23:2400,-1.984,3.577,1.119,46.509,-28.259,-108.032,-27.427,-25.329,51.169
 15:40:03.323,eb:33:2e:f9:57:b5, 2085-97-235 239:28:11:2134,4.456,2.197,1.209,119.446,-49.377,-60.12,-26.29,-26.153,50.581
 15:40:03.323,eb:33:2e:f9:57:b5, 2085-97-255 45:27:75:16690,3.068,2.593,7.872,430.603,-1032.776,-688.782,-23.181,-30.421,49.861
 15:40:03.353,eb:33:2e:f9:57:b5, 2085-97-168 36:80:31:17742,4.944,14.619,-3.774,390.259,-1129.456,-1259.766,-14.42,-39.007,40.193
 15:40:03.353,eb:33:2e:f9:57:b5, 2085-97-16 23:62:105:1253,-7.196,4.215,14.207,1375.488,-865.784,63.66,0.396,-48.192,30.487
 15:40:03.353,eb:33:2e:f9:57:b5, 2085-97-153 156:100:195:-14341,0.231,-5.53,-9.68,-385.376,-25.024,-292.114,7.734,-59.991,24.329
 15:40:03.353,eb:33:2e:f9:57:b5, 2085-97-113 65:00:19:1136,2.924,-1.75,0.642,395.874,-1141.479,308.594,6.79,-65.984,26.318
 15:40:03.384,eb:33:2e:f9:57:b5, 2085-97-175 03:75:254:4658,2.744,0.24,5.099,129.883,514.587,25.513,7.103,-69.412,28.922
 15:40:03.384,eb:33:2e:f9:57:b5, 2085-97-246 25:136:12:2706,2.236,3.134,-2.932,142.517,-114.136,-36.987,6.779,-65.468,30.811
 15:40:03.384,eb:33:2e:f9:57:b5, 2085-97-113 03:88:04:1339,-0.521,0.284,1.925,68.359,276.733,-94.971,9.3,-65.11,29.13
 15:40:03.384,eb:33:2e:f9:57:b5, 2085-97-203 02:226:01:3926,0.882,-0.047,0.941,76.355,68.176,-71.655,11.234,-63.001,27.795
 15:40:03.444,eb:33:2e:f9:57:b5, 2085-97-56 04:25:255:4360,0.285,0.156,1.567,92.712,56.519,-72.815,12.931,-62.331,26.829
 15:40:03.444,eb:33:2e:f9:57:b5, 2085-97-245 01:171:00:5278,0.34,-0.164,2.723,135.254,11.414,-53.345,15.392,-61.974,25.417
 15:40:03.444,eb:33:2e:f9:57:b5, 2085-97-156 05:163:255:7169,1.386,-0.173,2.469,178.345,-70.312,-51.086,17.974,-61.963,24.214
 15:40:03.444,eb:33:2e:f9:57:b5, 2085-97-172 15:36:249:9257,2.481,-0.357,4.314,256.958,-93.384,-41.321,21.764,-62.875,22.5
 15:40:03.472,eb:33:2e:f9:57:b5, 2085-97-98 19:185:246:9406,2.252,-0.941,4.452,374.878,0.854,-72.998,26.054,-63.04,21.264
 15:40:03.472,eb:33:2e:f9:57:b5, 2085-97-60 15:120:243:7089,1.54,-1.743,4.283,501.587,106.445,-183.838,32.283,-61.793,19.292
 15:40:03.472,eb:33:2e:f9:57:b5, 2085-97-157 07:60:250:4567,-0.025,-1.393,2.332,578.674,90.698,-249.634,39.968,-59.672,16.842
 15:40:03.472,eb:33:2e:f9:57:b5, 2085-97-86 250:185:06:11470,0.203,0.284,3.66,600.464,-34.058,-92.712,47.862,-58.222,14.639
 15:40:03.503,eb:33:2e:f9:57:b5, 2085-97-104 10:243:08:10988,1.89,0.995,6.03,541.382,-188.782,-149.292,56.113,-58.239,11.635
 15:40:03.503,eb:33:2e:f9:57:b5, 2085-97-206 14:153:05:6911,1.481,1.92,4.289,414.734,83.74,-173.157,62.985,-57.041,9.36
 15:40:03.503,eb:33:2e:f9:57:b5, 2085-97-24 14:70:248:6374,0.915,-0.546,2.968,340.515,125.244,-145.325,65.962,-55.063,9.97
 15:40:03.503,eb:33:2e:f9:57:b5, 2085-97-18 00:207:21:7664,1.108,2.72,4.081,505.188,368.408,-71.106,68.005,-53.377,13.255
 15:40:03.562,eb:33:2e:f9:57:b5, 2085-97-121 15:26:04:6073,2.615,1.475,1.447,320.068,-112.183,-218.384,70.422,-50.999,14.925
 15:40:03.562,eb:33:2e:f9:57:b5, 2085-97-58 25:204:255:8206,2.483,0.123,4.213,283.691,-7.69,-203.003,75.839,-49.323,11.832
 15:40:03.562,eb:33:2e:f9:57:b5, 2085-97-07 15:108:253:9223,2.123,-0.162,4.404,305.42,163.147,-175.659,77.948,-47.313,12.898
 15:40:03.562,eb:33:2e:f9:57:b5, 2085-97-214 17:184:249:9241,2.135,-0.42,4.161,342.896,22.583,-190.247,80.585,-45.302,13.81
 15:40:03.594,eb:33:2e:f9:57:b5, 2085-97-81 13:23:245:9354,1.73,-1.052,4.621,351.318,68.604,-161.194,84.001,-43.517,13.931
 15:40:03.594,eb:33:2e:f9:57:b5, 2085-97-15 18:54:240:9296,2.563,-1.632,4.489,361.511,32.288,-85.449,87.039,-42.325,14.716
 15:40:03.594,eb:33:2e:f9:57:b5, 2085-97-174 20:15:236:9007,2.495,-2.477,4.716,366.699,100.891,-57.068,90.264,-41.528,15.298
 15:40:03.594,eb:33:2e:f9:57:b5, 2085-97-234 18:48:239:6565,2.248,-2.276,3.626,364.441,172.729,-35.217,92.488,-41.166,17.512
 15:40:03.624,eb:33:2e:f9:57:b5, 2085-97-109 17:27:239:5282,2.176,-2.081,2.923,322.327,138.611,-52.795,94.603,-40.814,19.534
 15:40:03.624,eb:33:2e:f9:57:b5, 2085-97-37 18:10:238:4934,2.304,-2.193,2.42,272.034,42.969,-97.656,96.724,-40.128,20.797
 15:40:03.624,eb:33:2e:f9:57:b5, 2085-97-197 17:75:237:4871,2.112,-2.304,2.43,227.417,-13.489,-139.771,99.02,-38.919,21.077
 15:40:03.624,eb:33:2e:f9:57:b5, 2085-97-116 16:156:235:4410,1.989,-2.407,2.189,173.279,-41.443,-167.725,100.964,-37.343,21.132
 15:40:03.714,eb:33:2e:f9:57:b5, 2085-97-141 12:145:231:5305,0.394,-2.763,2.294,109.314,-74.097,-176.636,102.574,-35.497,20.764
 15:40:03.715,eb:33:2e:f9:57:b5, 2085-97-251 249:146:221:4842,-0.285,-3.563,2.9,25.146,37.72,-149.78,103.195,-33.761,20.803
 15:40:03.716,eb:33:2e:f9:57:b5, 2085-97-244 00:118:220:326,0.54,-4.458,0.499,-48.767,16.846,36.621,102.53,-33.47,21.824
 15:40:03.716,eb:33:2e:f9:57:b5, 2085-97-200 05:200:228:2102,0.245,-4.07,0.709,-180.298,42.114,222.778,101.541,-34.816,21.396
 15:40:03.716,eb:33:2e:f9:57:b5, 2085-97-185 01:48:237:-1336,0.815,-2.899,0.391,-281.494,256.836,335.083,98.229,-37.908,22.934
 15:40:03.716,eb:33:2e:f9:57:b5, 2085-97-149 11:201:246:-3892,1.886,-1.681,-1.734,-367.126,106.689,334.229,93.604,-41.6,25.098
 15:40:03.716,eb:33:2e:f9:57:b5, 2085-97-190 16:223:252:-2052,1.775,-0.727,-1.373,-468.872,-16.846,236.511,89.291,-44.418,25.203
 15:40:03.716,eb:33:2e:f9:57:b5, 2085-97-241 11:214:252:-731,1.446,-0.286,-0.602,-537.903,-57.251,166.687,84.452,-46.373,24.862
 15:40:03.773,eb:33:2e:f9:57:b5, 2085-97-37 10:150:249:1170,1.51,-0.53,-0.017,-597.046,-224.487,104.065,80.052,-47.928,23.121
 15:40:03.773,eb:33:2e:f9:57:b5, 2085-97-95 13:134:249:3703,1.675,-0.901,1.275,-651.367,-322.998,80.811,76.855,-49.378,19.028
 15:40:03.773,eb:33:2e:f9:57:b5, 2085-97-64 14:142:253:5387,1.791,-0.614,2.329,-686.584,-322.754,60.364,73.724,-50.905,14.332
 15:40:03.773,eb:33:2e:f9:57:b5, 2085-97-81 12:40:00:5409,1.166,-0.055,2.677,-695.923,-244.812,42.542,69.933,-52.229,10.338
 15:40:03.773,eb:33:2e:f9:57:b5, 2085-97-79 07:170:253:5871,0.832,-0.083,2.716,-658.203,-272.034,43.03,65.94,-53.558,6.828
 15:40:03.803,eb:33:2e:f9:57:b5, 2085-113-81 00:240:95:15481,0.64,-0.515,3.079,-598.694,-334.29,68.054,63.38,-55.421,2.357
 15:40:03.803,eb:33:2e:f9:57:b5, 2085-97-24 02:150:249:6262,-0.064,-0.712,3.167,-574.585,-316.895,91.064,62.309,-56.53,0.126
 15:40:03.803,eb:33:2e:f9:57:b5, 2085-97-108 254:180:250:6332,-0.196,-0.826,2.965,-532.043,-337.341,146.362,60.266,-59.123,-3.977
 15:40:03.803,eb:33:2e:f9:57:b5, 2085-97-67 255:200:00:6825,0.047,-0.355,3.216,-501.831,-357.117,191.04,59.03,-62.386,-8.394
 15:40:03.863,eb:33:2e:f9:57:b5, 2085-97-62 00:49:09:7157,-0.063,0.62,3.444,-488.464,-346.863,199.097,58.189,-65.962,-12.942
 15:40:03.863,eb:33:2e:f9:57:b5, 2085-97-124 254:214:17:6376,-0.428,1.719,3.328,-481.201,-265.686,200.684,57.008,-69.263,-16.831
 15:40:03.863,eb:33:2e:f9:57:b5, 2085-97-65 251:129:23:6365,-0.607,2.621,3.09,-462.463,-228.149,208.496,54.695,-72.334,-19.38
 15:40:03.863,eb:33:2e:f9:57:b5, 2085-97-172 251:21:26:7141,-0.509,3.163,3.207,-446.106,-257.446,172.729,52.976,-75.3,-22.22
 15:40:03.924,eb:33:2e:f9:57:b5, 2085-97-237 251:38:27:7992,-0.565,3.317,3.822,-418.579,-230.347,150.818,53.207,-78.102,-26.9
 15:40:03.924,eb:33:2e:f9:57:b5, 2085-97-199 251:74:30:7911,-0.423,3.572,3.885,-374.084,-164.734,141.724,52.603,-80.425,-30.234
 15:40:03.924,eb:33:2e:f9:57:b5, 2085-97-233 252:157:34:8248,-0.311,4.051,3.947,-328.247,-146.912,110.413,52.053,-82.386,-33.201
 15:40:03.924,eb:33:2e:f9:57:b5, 2085-97-146 252:31:41:7048,-0.598,4.688,3.812,-287.964,-69.519,76.05,51.614,-83.749,-35.766
 15:40:03.924,eb:33:2e:f9:57:b5, 2085-97-35 250:229:46:5290,-0.689,5.595,2.963,-256.226,-44.067,16.357,48.999,-84.391,-35.848
 15:40:03.924,eb:33:2e:f9:57:b5, 2085-97-01 250:00:47:5357,-0.936,5.897,2.666,-214.6,-87.463,-75.012,55.959,-84.6,-45.137
 15:40:03.924,eb:33:2e:f9:57:b5, 2085-97-86 246:249:42:4458,-1.273,5.653,2.402,-148.438,-29.724,-140.564,64.193,-83.875,-55.228
 15:40:03.924,eb:33:2e:f9:57:b5, 2085-97-57 244:07:38:3814,-1.546,4.977,1.928,-73.12,-6.042,-164.917,69.445,-82.414,-61.551
 15:40:03.953,eb:33:2e:f9:57:b5, 2085-97-99 243:194:32:4179,-1.635,4.425,2.043,-3.174,-4.089,-160.767,73.455,-80.898,-65.929
 15:40:03.953,eb:33:2e:f9:57:b5, 2085-97-42 242:99:26:3261,-1.747,3.756,1.842,46.57,41.809,-133.911,74.811,-79.376,-66.984
 15:40:03.953,eb:33:2e:f9:57:b5, 2085-97-178 241:169:18:2204,-1.821,2.863,1.38,95.581,58.594,-82.031,74.625,-78.223,-66.044
 15:40:03.953,eb:33:2e:f9:57:b5, 2085-97-72 241:31:08:1155,-1.806,1.714,0.783,174.133,54.932,-17.517,73.828,-77.552,-63.792
 15:40:04.013,eb:33:2e:f9:57:b5, 2085-97-227 241:206:254:-223,-1.857,0.362,0.342,270.081,27.1,67.688,74.312,-77.723,-61.952
 15:40:04.013,eb:33:2e:f9:57:b5, 2085-97-48 56:211:42:12601,7.112,-0.629,-0.414,333.557,-42.175,150.452,76.113,-78.772,-60.595
 15:40:04.013,eb:33:2e:f9:57:b5, 2085-97-34 48:255:63:-25104,8.811,12.144,6.992,153.076,-219.666,-287.659,110.687,-75.311,-91.225
 15:40:04.013,eb:33:2e:f9:57:b5, 2085-97-250 236:16:11:25642,-3.399,10.175,-8.413,285.156,-1203.186,-285.217,131.204,-68.066,-110.352
 15:40:04.045,eb:33:2e:f9:57:b5, 2085-97-79 231:254:210:8690,-4.113,1.847,5.969,-90.149,677.124,-158.63,125.947,-68.033,-103.173
 15:40:04.045,eb:33:2e:f9:57:b5, 2085-97-20 224:114:247:14375,-2.056,-3.846,3.793,1.587,421.936,-106.018,108.924,-69.571,-85.759
 15:40:04.045,eb:33:2e:f9:57:b5, 2085-97-06 254:197:04:-4153,-1.298,-0.814,4.201,241.699,574.524,331.177,98.668,-72.032,-73.323
 15:40:04.045,eb:33:2e:f9:57:b5, 2085-97-214 20:14:08:-883,3.263,0.631,-0.766,182.312,6.348,144.104,90.33,-74.152,-62.792
 15:40:04.073,eb:33:2e:f9:57:b5, 2085-97-135 26:255:04:2657,2.499,-0.377,1.527,176.27,46.387,-23.315,94.988,-74.306,-65.912
 15:40:04.073,eb:33:2e:f9:57:b5, 2085-97-156 08:208:04:2332,-0.78,0.275,0.969,118.042,368.042,-86.426,87.418,-73.707,-56.596
 15:40:04.073,eb:33:2e:f9:57:b5, 2085-97-120 249:84:252:2970,0.146,0.293,0.778,33.997,458.069,-74.524,74.295,-72.224,-42.078
 15:40:04.073,eb:33:2e:f9:57:b5, 2085-97-232 04:198:253:6713,1.007,-0.496,2.973,32.654,395.752,-95.703,66.099,-70.109,-32.921
 15:40:04.133,eb:33:2e:f9:57:b5, 2085-97-40 15:117:255:006,2.066,-0.292,1.883,12.268,800.171,-103.577,52.696,-65.693,-18.424
 15:40:04.133,eb:33:2e:f9:57:b5, 2085-97-27 22:17:254:6782,3.53,-0.161,1.087,244.446,2.93,-139.526,49.96,-62.353,-13.766
 15:40:04.133,eb:33:2e:f9:57:b5, 2085-97-121 30:50:251:9351,3.767,-0.57,4.572,363.525,34.302,-177.246,56.019,-61.469,-16.974
 15:40:04.133,eb:33:2e:f9:57:b5, 2085-97-76 27:246:249:6824,3.224,-0.645,3.99,462.341,198.059,-210.205,59.683,-58.969,-16.249
 15:40:04.162,eb:33:2e:f9:57:b5, 2085-97-143 22:156:242:6156,2.229,-1.14,2.849,514.526,98.083,-333.374,64.534,-55.833,-16.155
 15:40:04.162,eb:33:2e:f9:57:b5, 2085-97-73 09:31:246:10251,0.171,-1.936,3.539,565.796,13.916,-398.804,71.296,-52.07,-17.759
 15:40:04.162,eb:33:2e:f9:57:b5, 2085-97-81 10:207:10:12085,2.333,0.021,6.263,602.6,-143.188,-323.853,79.025,-48.582,-20.226
 15:40:04.162,eb:33:2e:f9:57:b5, 2085-97-127 13:12:12:12696,1.167,1.24,5.739,559.875,-91.797,-271.362,87.177,-45.775,-23.472
 15:40:04.252,eb:33:2e:f9:57:b5, 2085-97-176 10:152:253:3813,2.762,0.573,4.453,397.034,414.917,-183.167,89.791,-43.594,-20.33
 15:40:04.252,eb:33:2e:f9:57:b5, 2085-97-57 16:187:16:4500,1.31,-0.028,0.43,422.607,45.41,-167.847,91.324,-42.259,-16.771
 15:40:04.252,eb:33:2e:f9:57:b5, 2085-97-195 255:240:26:5262,1.553,6.017,3.874,414.734,253.235,-356.018,95.114,-40.287,-14.409
 15:40:04.252,eb:33:2e:f9:57:b5, 2085-97-104 27:134:03:11951,3.992,1.686,2.072,297.302,-436.462,-445.984,98.009,-36.019,-14.249
 15:40:04.254,eb:33:2e:f9:57:b5, 2085-97-35 26:245:247:14978,2.123,-0.528,7.749,275.33,54.321,-366.577,102.651,-31.168,-17.397
 15:40:04.254,eb:33:2e:f9:57:b5, 2085-97-254 17:09:250:11735,2.501,-1.056,6.252,355.347,242.798,-286.804,103.788,-28.724,-13.442
 15:40:04.254,eb:33:2e:f9:57:b5, 2085-97-238 19:150:245:11606,2.237,-0.974,6.178,398.01,167.236,-212.708,106.606,-26.62,-11.184
 15:40:04.254,eb:33:2e:f9:57:b5, 2085-97-164 16:185:241:8186,2.112,-1.557,4.559,396.057,235.352,-110.901,109.259,-25.845,-8.179
 15:40:04.283,eb:33:2e:f9:57:b5, 2085-97-11 17:251:239:7283,2.176,-1.817,3.767,383.362,164.856,-16.541,112.258,-26.027,-6.01
 15:40:04.283,eb:33:2e:f9:57:b5, 2085-97-148 18:07:240:6497,2.303,-2.195,3.343,374.573,110.901,14.648,115.329,-26.565,-4.526
 15:40:04.283,eb:33:2e:f9:57:b5, 2085-97-13 18:93:242:6200,2.305,-1.812,3.076,357.971,34.912,-1.282,118.729,-26.938,-3.911
 15:40:04.283,eb:33:2e:f9:57:b5, 2085-97-192 18:172:242:6564,2.188,-1.645,2.974,321.167,-26.855,-28.503,122.064,-26.851,-3.785
 15:40:04.313,eb:33:2e:f9:57:b5, 2085-97-76 14:101:240:7511,1.445,-1.754,3.539,271.179,-66.956,-79.651,125.101,-26.082,-3.966
 15:40:04.313,eb:33:2e:f9:57:b5, 2085-97-56 09:65:235:6664,0.659,-2.237,3.595,203.064,-96.13,-120.667,127.48,-24.73,-4.032
 15:40:04.313,eb:33:2e:f9:57:b5, 2085-97-11 03:106:229:3158,0.278,-3.005,2.592,101.074,44.983,-60.791,128.826,-23.736,-3.653
 15:40:04.313,eb:33:2e:f9:57:b5, 2085-97-135 01:244:230:049,0.133,-3.393,0.623,-41.077,183.655,75.928,128.672,-24.675,-2.648
 15:40:04.402,eb:33:2e:f9:57:b5, 2085-97-119 00:112:235:-1250,0.03,-2.812,-0.358,-190.674,178.284,122.437,127.013,-26.73,-1.708
 15:40:04.402,eb:33:2e:f9:57:b5, 2085-97-123 00:237:238:-3298,0.172,-2.345,-1.068,-321.289,175.232,108.582,124.03,-28.647,-0.939
 15:40:04.402,eb:33:2e:f9:57:b5, 2085-97-41 02:73:242:-5865,0.423,-1.912,-2.523,-439.148,159.973,98.816,119.52,-30.564,0.324
 15:40:04.402,eb:33:2e:f9:57:b5, 2085-97-248 04:136:241:-3144,0.52,-1.777,-2.335,-544.983,-53.528,46.692,114.549,-31.306,0.269
 15:40:04.404,eb:33:2e:f9:57:b5, 2085-97-76 02:51:242:-2210,0.143,-1.779,-1.196,-635.498,-40.588,30.029,108.951,-31.437,-0.423
 15:40:04.404,eb:33:2e:f9:57:b5, 2085-97-93 03:115:242:696,0.664,-1.679,-0.644,-712.585,-222.229,20.264,102.887,-31.404,-1.796
 15:40:04.404,eb:33:2e:f9:57:b5, 2085-97-41 06:201:244:3715,0.88,-1.552,1.274,-752.991,-241.455,38.33,97.059,-31.3,-4.763
 15:40:04.404,eb:33:2e:f9:57:b5, 2085-97-167 07:158:249:5213,0.977,-1.065,2.196,-747.253,-260.742,41.809,91.044,-31.586,-7.663
 15:40:04.432,eb:33:2e:f9:57:b5, 2085-97-08 07:231:253:6086,0.572,-0.534,2.835,-712.036,-248.535,68.665,85.353,-32.19,-10.739
 15:40:04.432,eb:33:2e:f9:57:b5, 2085-97-91 04:252:00:5318,0.571,-0.097,2.885,-659.424,-187.683,119.934,79.75,-33.42,-13.052
 15:40:04.432,eb:33:2e:f9:57:b5, 2085-97-50 04:70:02:4776,0.446,0.207,2.462,-613.77,-202.209,130.737,74.52,-35.096,-15.04
 15:40:04.432,eb:33:2e:f9:57:b5, 2085-97-198 02:16:03:3622,0.25,0.378,2.063,-574.158,-167.053,153.992,69.532,-37.051,-16.617
 15:40:04.493,eb:33:2e:f9:57:b5, 2085-97-44 01:91:03:2384,0.086,0.379,1.456,-543.823,-174.438,161.926,64.682,-39.172,-17.787
 15:40:04.493,eb:33:2e:f9:57:b5, 2085-97-156 00:248:05:1786,0.011,0.543,0.958,-513.184,-209.106,166.565,60.189,-41.534,-18.995
 15:40:04.493,eb:33:2e:f9:57:b5, 2085-97-07 255:215:09:1641,-0.307,0.99,0.854,-477.295,-218.628,165.71,56.157,-44.099,-20.347
 15:40:04.493,eb:33:2e:f9:57:b5, 2085-97-188 252:227:12:1384,-0.46,1.433,0.748,-434.814,-208.618,176.331,52.333,-46.736,-21.352
 15:40:04.523,eb:33:2e:f9:57:b5, 2085-97-37 253:43:13:2618,-0.247,1.622,0.887,-406.921,-281.311,158.508,49.103,-49.598,-22.643
 15:40:04.523,eb:33:2e:f9:57:b5, 2085-97-05 254:78:14:3825,-0.279,1.692,1.614,-390.869,-260.437,160.95,46.351,-52.657,-24.208
 15:40:04.523,eb:33:2e:f9:57:b5, 2085-97-90 254:185:16:4436,-0.115,1.92,2.036,-384.155,-227.295,158.386,43.198,-55.475,-25.098
 15:40:04.523,eb:33:2e:f9:57:b5, 2085-97-160 00:190:19:5276,0.244,2.246,2.387,-373.779,-236.755,140.808,40.051,-58.211,-25.878
 15:40:04.585,eb:33:2e:f9:57:b5, 2085-97-10 03:108:23:6302,0.376,2.688,2.802,-354.309,-228.149,117.493,37.194,-60.848,-26.79
 15:40:04.585,eb:33:2e:f9:57:b5, 2085-97-13 02:191:26:6896,0.085,3.118,3.324,-321.533,-143.066,74.829,34.541,-62.99,-27.603
 15:40:04.585,eb:33:2e:f9:57:b5, 2085-97-54 255:98:31:6208,-0.23,3.569,3.234,-276.428,-52.124,22.339,31.685,-63.946,-27.735
 15:40:04.585,eb:33:2e:f9:57:b5, 2085-97-14 253:199:34:5715,-0.474,4.179,2.908,-252.625,-74.097,-64.453,30.234,-64.292,-28.982
 15:40:04.614,eb:33:2e:f9:57:b5, 2085-97-165 251:75:34:5650,-0.61,4.387,2.691,-260.62,-79.041,-130.249,30.267,-64.435,-31.866
 15:40:04.614,eb:33:2e:f9:57:b5, 2085-97-62 250:71:32:6512,-0.939,4.14,2.986,-249.207,-66.711,-178.406,31.355,-64.276,-35.931
 15:40:04.614,eb:33:2e:f9:57:b5, 2085-97-234 248:32:32:5186,-1.527,3.949,3.212,-193.97,36.682,-190.796,32.487,-63.402,-39.666
 15:40:04.614,eb:33:2e:f9:57:b5, 2085-97-97 244:162:28:5217,-1.719,3.638,3.139,-114.929,82.703,-175.293,33.723,-61.996,-42.797
 15:40:04.674,eb:33:2e:f9:57:b5, 2085-113-58 00:240:226:-510,-1.854,3.53,2.215,-42.542,74.829,-144.043,34.25,-60.315,-44.22
 15:40:04.674,eb:33:2e:f9:57:b5, 2085-97-156 244:154:25:4511,-1.144,3.26,2.094,-5.676,18.372,-122.742,34.909,-59.76,-45.115
 15:40:04.674,eb:33:2e:f9:57:b5, 2085-97-78 248:04:22:5143,-0.823,3.137,2.425,52.979,24.536,-100.159,36.65,-59.052,-46.829
 15:40:04.674,eb:33:2e:f9:57:b5, 2085-97-230 247:84:19:2776,-1.16,2.655,1.843,142.273,143.433,-12.024,37.315,-57.914,-46.423
 15:40:04.674,eb:33:2e:f9:57:b5, 2085-97-234 70:43:28:7678,2.194,1.793,0.933,260.864,38.879,-39.856,37.991,-56.783,-45.027
 15:40:04.676,eb:33:2e:f9:57:b5, 2085-97-151 10:90:101:-4300,7.5,6.454,11.992,297.485,-882.996,-767.944,60.381,-58.865,-65.934
 15:40:04.676,eb:33:2e:f9:57:b5, 2085-97-24 88:78:56:15335,-2.6,2.666,-6.045,506.592,-1257.385,-556.58,83.046,-56.261,-89.72
 15:40:04.676,eb:33:2e:f9:57:b5, 2085-97-113 194:99:251:9997,-3.134,6.823,10.67,96.436,-188.843,-273.987,96.048,-51.531,-102.299
 15:40:04.733,eb:33:2e:f9:57:b5, 2085-97-02 235:108:237:3972,-3.088,-6.495,2.986,132.141,581.909,116.76,90.588,-50.817,-95.828
 15:40:04.733,eb:33:2e:f9:57:b5, 2085-97-149 249:11:12:6363,1.439,-1.399,4.66,165.344,387.146,83.862,86.918,-51.103,-89.467
 15:40:04.733,eb:33:2e:f9:57:b5, 2085-97-98 252:166:07:-1349,1.922,0.249,-1.107,147.888,469.177,176.208,82.518,-52.756,-81.376
 15:40:04.733,eb:33:2e:f9:57:b5, 2085-97-224 14:61:254:1445,2.073,1.638,-1.071,39.185,58.228,2.991,79.854,-53.245,-76.948
 15:40:04.764,eb:33:2e:f9:57:b5, 2085-97-66 11:182:02:2172,1.281,0.599,0.844,65.674,133.911,-43.457,79.799,-52.976,-75.833
 15:40:04.764,eb:33:2e:f9:57:b5, 2085-97-180 255:159:254:2702,-1.49,0.242,1.373,63.232,210.022,-64.087,78.415,-52.097,-73.262
 15:40:04.764,eb:33:2e:f9:57:b5, 2085-97-41 251:144:254:5951,0.643,-0.792,2.225,110.596,118.835,-42.847,76.954,-51.097,-70.433
 15:40:04.764,eb:33:2e:f9:57:b5, 2085-97-164 04:80:252:5720,0.597,-0.08,2.643,65.002,362.427,-46.387,75.388,-50.191,-67.143
 15:40:04.792,eb:33:2e:f9:57:b5, 2085-97-128 09:219:254:3769,1.921,-0.269,2.516,45.41,544.128,-96.741,70.692,-48.082,-60.315
 15:40:04.792,eb:33:2e:f9:57:b5, 2085-97-65 20:105:253:4915,2.942,-0.137,1.439,207.031,132.996,-160.889,68.665,-45.511,-55.882
 15:40:04.792,eb:33:2e:f9:57:b5, 2085-97-103 30:174:251:9616,4.34,-0.688,4.215,360.046,-157.41,-229.614,73.372,-43.918,-58.326
 15:40:04.792,eb:33:2e:f9:57:b5, 2085-97-116 34:01:249:6235,3.841,-0.607,4.017,416.992,143.311,-296.936,77.789,-41.391,-59.002
 15:40:04.884,eb:33:2e:f9:57:b5, 2085-97-63 26:167:241:6710,2.255,-1.301,2.848,504.089,119.385,-379.578,81.755,-37.727,-57.953
 15:40:04.884,eb:33:2e:f9:57:b5, 2085-97-152 11:232:234:10425,0.903,-2.615,4.496,655.64,325.256,-182.434,86.364,-34.338,-56.025
 15:40:04.884,eb:33:2e:f9:57:b5, 2085-97-235 04:17:11:7775,1.096,-0.521,4.226,653.259,365.845,-105.774,90.511,-33.42,-50.999
 15:40:04.884,eb:33:2e:f9:57:b5, 2085-97-21 15:53:17:10290,2.477,1.939,4.099,567.871,-255.249,-238.403,96.394,-31.339,-50.966
 15:40:04.886,eb:33:2e:f9:57:b5, 2085-97-104 09:87:05:8448,0.93,2.297,5.089,433.044,181.763,-217.773,101.854,-29.064,-51.537
 15:40:04.886,eb:33:2e:f9:57:b5, 2085-97-166 12:108:244:1375,1.288,-0.287,1.839,310.73,317.993,-120.728,103.178,-28.339,-47.038
 15:40:04.886,eb:33:2e:f9:57:b5, 2085-97-247 03:33:43:10090,0.612,3.671,2.13,629.15,239.99,7.812,107.172,-28.493,-44.945
 15:40:04.886,eb:33:2e:f9:57:b5, 2085-97-107 21:48:14:113,2.66,2.256,1.345,273.865,173.95,-279.846,108.814,-26.851,-40.93
 15:40:04.914,eb:33:2e:f9:57:b5, 2085-97-154 24:205:255:8031,2.754,0.852,3.326,256.409,-117.371,-279.541,111.714,-23.95,-41.116
 15:40:04.914,eb:33:2e:f9:57:b5, 2085-97-25 15:191:253:9434,2.104,-0.178,3.902,298.462,135.437,-199.402,113.725,-22.132,-39.38
 15:40:04.914,eb:33:2e:f9:57:b5, 2085-97-192 16:98:251:9255,1.594,-0.394,4.378,363.953,-45.776,-224.365,116.554,-20.303,-37.963
 15:40:04.914,eb:33:2e:f9:57:b5, 2085-97-39 10:203:249:8413,1.317,-0.704,4.621,372.864,43.396,-158.813,120.042,-18.578,-37.134
 15:40:05.003,eb:33:2e:f9:57:b5, 2085-97-132 12:172:247:8169,1.727,-0.861,3.827,348.206,8.789,-98.022,123.333,-17.71,-36.134
 15:40:05.003,eb:33:2e:f9:57:b5, 2085-97-177 14:110:247:8346,1.751,-1.1,4.152,332.52,80.078,-31.677,126.541,-17.397,-35.508
 15:40:05.004,eb:33:2e:f9:57:b5, 2085-97-129 14:122:250:7509,1.736,-0.847,3.847,338.928,116.333,5.615,129.567,-18.155,-34.431
 15:40:05.004,eb:33:2e:f9:57:b5, 2085-97-87 16:04:250:6946,2.205,-0.496,3.729,311.279,37.964,-73.853,132.687,-18.364,-33.777
 15:40:05.004,eb:33:2e:f9:57:b5, 2085-97-211 16:191:247:6108,1.88,-0.833,3.47,299.316,77.515,-84.961,135.516,-18.133,-32.899
 15:40:05.004,eb:33:2e:f9:57:b5, 2085-97-63 14:255:244:5526,1.732,-1.188,2.778,276.428,28.809,-127.625,138.027,-17.842,-31.663
 15:40:05.004,eb:33:2e:f9:57:b5, 2085-97-158 12:113:242:4794,1.407,-1.52,2.461,235.962,15.198,-162.109,140.191,-17.023,-30.344
 15:40:05.004,eb:33:2e:f9:57:b5, 2085-97-100 08:89:238:5082,0.496,-1.925,2.365,181.702,-11.292,-178.833,141.877,-15.919,-28.954
 15:40:05.032,eb:33:2e:f9:57:b5, 2085-97-250 02:126:233:4406,0.138,-2.517,2.49,111.45,32.166,-160.706,142.927,-14.963,-27.449
 15:40:05.032,eb:33:2e:f9:57:b5, 2085-97-157 255:01:228:1823,0.043,-3.291,1.916,30.945,114.136,-76.416,143.262,-14.694,-26.065
 15:40:05.032,eb:33:2e:f9:57:b5, 2085-97-133 00:211:228:-541,0.155,-3.604,-0.147,-81.604,75.989,44.861,142.734,-15.54,-25.219
 15:40:05.032,eb:33:2e:f9:57:b5, 2085-97-214 01:92:233:-080,0.255,-3.021,-0.011,-203.918,70.557,129.578,141.389,-16.611,-25.703
 15:40:05.093,eb:33:2e:f9:57:b5, 2085-97-07 02:100:236:-2074,0.367,-2.675,-0.428,-295.227,155.212,165.649,138.939,-18.512,-26.109
 15:40:05.093,eb:33:2e:f9:57:b5, 2085-97-186 03:143:240:-3835,0.529,-2.182,-1.595,-371.765,156.921,178.528,135.604,-20.88,-26.263
 15:40:05.093,eb:33:2e:f9:57:b5, 2085-97-134 04:16:241:-3973,0.741,-1.866,-2.094,-445.618,51.392,151.245,131.567,-22.857,-26.581
 15:40:05.094,eb:33:2e:f9:57:b5, 2085-97-56 07:10:243:-2513,0.89,-1.693,-1.743,-500.122,-96.191,126.648,127.354,-23.747,-27.861
 15:40:05.124,eb:33:2e:f9:57:b5, 2085-97-104 07:112:244:-923,1.002,-1.57,-0.792,-573.914,-131.165,108.032,122.646,-23.994,-29.658
 15:40:05.124,eb:33:2e:f9:57:b5, 2085-97-118 09:231:246:1493,1.286,-1.333,0.112,-628.357,-215.21,80.078,117.477,-23.917,-31.844
 15:40:05.124,eb:33:2e:f9:57:b5, 2085-97-31 10:209:249:3088,1.195,-0.93,1.222,-664.368,-221.313,47.302,111.989,-23.544,-34.371
 15:40:05.124,eb:33:2e:f9:57:b5, 2085-97-33 09:12:251:3455,1.146,-0.647,1.626,-675.781,-213.196,22.461,106.172,-23.165,-36.678
 15:40:05.185,eb:33:2e:f9:57:b5, 2085-97-240 08:161:250:3981,1.017,-0.627,1.772,-658.63,-238.22,23.987,100.443,-22.863,-39.139
 15:40:05.185,eb:33:2e:f9:57:b5, 2085-97-117 06:202:249:4170,0.58,-0.708,2.018,-632.141,-224.548,31.677,94.977,-22.841,-41.677
 15:40:05.185,eb:33:2e:f9:57:b5, 2085-97-110 03:38:248:4098,0.299,-0.871,2.005,-602.722,-215.942,54.26,89.731,-23.176,-44.05
 15:40:05.185,eb:33:2e:f9:57:b5, 2085-97-176 01:48:247:4454,0.202,-1.095,2.115,-565.979,-220.581,100.891,84.831,-24.077,-46.406
 15:40:05.213,eb:33:2e:f9:57:b5, 2085-97-53 01:141:250:3845,0.084,-0.942,2.022,-524.78,-236.145,129.761,80.343,-25.554,-48.691
 15:40:05.213,eb:33:2e:f9:57:b5, 2085-97-194 255:254:255:3798,-0.116,-0.312,1.809,-483.765,-256.47,156.494,76.382,-27.488,-51.07
 15:40:05.213,eb:33:2e:f9:57:b5, 2085-97-200 254:17:04:4013,-0.228,0.287,1.93,-458.618,-279.785,178.711,72.867,-29.855,-53.498
 15:40:05.213,eb:33:2e:f9:57:b5, 2085-97-196 253:21:06:4420,-0.237,0.643,2.05,-455.505,-279.358,193.542,69.56,-32.531,-55.948
 15:40:05.213,eb:33:2e:f9:57:b5, 2085-113-58 00:47:224:-2295,-0.134,0.869,2.331,-453.003,-268.494,216.919,66.16,-35.469,-58.019
 15:40:05.271,eb:33:2e:f9:57:b5, 2085-97-233 255:146:09:6354,0.088,1.004,2.683,-447.632,-260.803,228.333,64.44,-37.04,-58.925
 15:40:05.271,eb:33:2e:f9:57:b5, 2085-97-56 01:255:13:7608,0.156,1.456,3.472,-429.077,-195.251,256.226,60.771,-40.254,-60.073
 15:40:05.271,eb:33:2e:f9:57:b5, 2085-97-133 01:08:18:7525,0.322,2.006,3.783,-406.86,-121.46,264.282,56.53,-43.281,-59.98
 15:40:05.271,eb:33:2e:f9:57:b5, 2085-97-241 03:43:23:6882,0.597,2.543,3.478,-379.578,-116.272,239.441,52.037,-46,-59.172
 15:40:05.303,eb:33:2e:f9:57:b5, 2085-97-82 05:100:32:7383,0.573,3.378,3.413,-339.05,-104.98,216.003,47.845,-48.466,-58.337
 15:40:05.303,eb:33:2e:f9:57:b5, 2085-97-94 03:34:39:7779,0.322,4.502,3.813,-291.748,-51.025,166.016,43.813,-50.367,-57.145
 15:40:05.303,eb:33:2e:f9:57:b5, 2085-97-00 02:49:43:6619,0.079,5.204,3.536,-247.498,-26.978,86.853,40.248,-51.427,-56.003
 15:40:05.303,eb:33:2e:f9:57:b5, 2085-97-145 00:40:45:6460,0.027,5.515,3.023,-190.063,-100.525,-0.977,38.243,-52.202,-56.195
