Time,Device name,Chip Time(),Acceleration X(g),Acceleration Y(g),Acceleration Z(g),Angular velocity X(°/s),Angular velocity Y(°/s),Angular velocity Z(°/s),Angle X(°),Angle Y(°),Angle Z(°)
 15:35:52.990,eb:33:2e:f9:57:b5, 2085-97-101 00:26:00:2052,0.049,0.012,1.003,0.122,0,1.221,0.621,-1.967,-123.712
 15:35:52.990,eb:33:2e:f9:57:b5, 2085-97-100 00:30:00:2050,0.048,0.013,1.002,0,0,0.916,0.621,-1.967,-123.701
 15:35:52.990,eb:33:2e:f9:57:b5, 2085-97-96 00:25:00:2050,0.046,0.013,1.001,-0.122,0,0.61,0.637,-2.043,-123.712
 15:35:52.990,eb:33:2e:f9:57:b5, 2085-97-93 00:21:00:2048,0.046,0.011,1,-0.183,0.061,0.732,0.637,-2.043,-123.701
 15:35:53.053,eb:33:2e:f9:57:b5, 2085-97-96 00:23:00:2052,0.046,0.012,1,-0.122,0,1.038,0.648,-2.115,-123.706
 15:35:53.053,eb:33:2e:f9:57:b5, 2085-97-97 00:24:00:2054,0.047,0.012,1.001,-0.122,0,1.16,0.648,-2.115,-123.695
 15:35:53.053,eb:33:2e:f9:57:b5, 2085-97-100 00:22:00:2058,0.05,0.011,1.003,0,-0.061,1.221,0.659,-2.175,-123.695
 15:35:53.053,eb:33:2e:f9:57:b5, 2085-97-103 00:24:00:2058,0.05,0.011,1.005,0.122,0.122,1.343,0.659,-2.175,-123.684
 15:35:53.053,eb:33:2e:f9:57:b5, 2085-97-103 00:23:00:2057,0.049,0.012,1.004,0.183,0.122,1.099,0.676,-2.236,-123.684
 15:35:53.053,eb:33:2e:f9:57:b5, 2085-97-98 00:24:00:2051,0.049,0.012,1.003,0.244,0.366,1.16,0.681,-2.23,-123.673
 15:35:53.054,eb:33:2e:f9:57:b5, 2085-97-101 00:27:00:2053,0.046,0.013,1.002,0.244,0.244,1.038,0.692,-2.285,-123.679
 15:35:53.054,eb:33:2e:f9:57:b5, 2085-97-91 00:28:00:2045,0.043,0.014,1,0.122,0.427,0.977,0.698,-2.28,-123.668
 15:35:53.082,eb:33:2e:f9:57:b5, 2085-97-92 00:25:00:2044,0.046,0.012,0.999,-0.183,0.244,1.099,0.709,-2.324,-123.673
 15:35:53.082,eb:33:2e:f9:57:b5, 2085-97-97 00:26:00:2049,0.048,0.013,1,-0.366,0.183,1.404,0.703,-2.324,-123.657
 15:35:53.082,eb:33:2e:f9:57:b5, 2085-97-101 00:24:00:2053,0.05,0.012,1.002,-0.427,0.122,1.404,0.709,-2.368,-123.657
 15:35:53.082,eb:33:2e:f9:57:b5, 2085-97-99 00:21:00:2058,0.048,0.012,1.004,-0.427,0.183,1.404,0.703,-2.368,-123.64
 15:35:53.141,eb:33:2e:f9:57:b5, 2085-97-95 00:24:00:2052,0.044,0.011,1.003,-0.244,0.305,1.465,0.709,-2.406,-123.64
 15:35:53.141,eb:33:2e:f9:57:b5, 2085-97-86 00:22:00:2044,0.043,0.012,1,-0.305,0.244,1.648,0.709,-2.401,-123.624
 15:35:53.141,eb:33:2e:f9:57:b5, 2085-97-91 00:24:00:2048,0.046,0.011,0.999,-0.549,-0.061,2.014,0.709,-2.439,-123.618
 15:35:53.141,eb:33:2e:f9:57:b5, 2085-97-98 00:23:00:2050,0.048,0.011,1,-0.61,-0.122,2.197,0.703,-2.439,-123.596
 15:35:53.170,eb:33:2e:f9:57:b5, 2085-97-101 00:24:00:2055,0.049,0.011,1.001,-0.671,-0.183,2.136,0.703,-2.477,-123.591
 15:35:53.170,eb:33:2e:f9:57:b5, 2085-97-102 00:25:00:2055,0.052,0.012,1.003,-0.671,-0.244,2.075,0.698,-2.477,-123.569
 15:35:53.170,eb:33:2e:f9:57:b5, 2085-97-109 00:23:00:2056,0.053,0.012,1.003,-0.61,-0.305,1.77,0.698,-2.516,-123.558
 15:35:53.170,eb:33:2e:f9:57:b5, 2085-97-106 00:23:00:2061,0.051,0.011,1.005,-0.549,-0.061,1.465,0.692,-2.516,-123.541
 15:35:53.233,eb:33:2e:f9:57:b5, 2085-97-104 00:24:00:2056,0.05,0.011,1.005,-0.549,0,0.977,0.692,-2.549,-123.547
 15:35:53.233,eb:33:2e:f9:57:b5, 2085-97-98 00:22:00:2052,0.048,0.012,1.002,-0.671,0.061,0.61,0.687,-2.549,-123.536
 15:35:53.233,eb:33:2e:f9:57:b5, 2085-97-97 00:23:00:2053,0.046,0.01,1.003,-0.671,0.061,0.549,0.687,-2.576,-123.541
 15:35:53.234,eb:33:2e:f9:57:b5, 2085-97-95 00:22:00:2049,0.046,0.012,1.001,-0.793,0.061,0.488,0.676,-2.576,-123.536
 15:35:53.261,eb:33:2e:f9:57:b5, 2085-97-95 00:13:00:2059,0.048,0.007,1.003,-0.671,0,0.671,0.676,-2.598,-123.547
 15:35:53.261,eb:33:2e:f9:57:b5, 2085-97-98 00:21:00:2055,0.048,0.008,1.006,-0.366,0.061,1.038,0.67,-2.598,-123.536
 15:35:53.261,eb:33:2e:f9:57:b5, 2085-97-102 00:20:00:2055,0.05,0.011,1.002,-0.427,0,0.977,0.67,-2.62,-123.536
 15:35:53.261,eb:33:2e:f9:57:b5, 2085-97-99 00:17:00:2059,0.049,0.008,1.005,-0.305,0.061,0.977,0.665,-2.62,-123.53
 15:35:53.290,eb:33:2e:f9:57:b5, 2085-97-101 00:26:00:2053,0.049,0.01,1.004,-0.122,0.183,0.977,0.665,-2.642,-123.53
 15:35:53.290,eb:33:2e:f9:57:b5, 2085-97-103 00:19:00:2054,0.049,0.011,1.003,-0.244,0.244,0.732,0.665,-2.637,-123.519
 15:35:53.290,eb:33:2e:f9:57:b5, 2085-97-102 00:19:00:2058,0.05,0.009,1.004,-0.183,0.366,0.671,0.665,-2.653,-123.53
 15:35:53.290,eb:33:2e:f9:57:b5, 2085-97-100 00:16:00:2061,0.049,0.008,1.005,0,0.427,0.61,0.665,-2.653,-123.519
 15:35:53.321,eb:33:2e:f9:57:b5, 2085-97-98 00:17:00:2059,0.047,0.008,1.007,0.183,0.549,0.61,0.67,-2.664,-123.53
 15:35:53.321,eb:33:2e:f9:57:b5, 2085-97-94 00:19:00:2054,0.047,0.01,1.003,0.305,0.549,0.549,0.67,-2.659,-123.525
 15:35:53.321,eb:33:2e:f9:57:b5, 2085-97-97 00:21:00:2055,0.048,0.009,1.004,0.366,0.366,0.549,0.681,-2.675,-123.53
 15:35:53.321,eb:33:2e:f9:57:b5, 2085-97-98 00:24:00:2049,0.048,0.011,1,0.244,0.427,0.488,0.681,-2.67,-123.525
 15:35:53.381,eb:33:2e:f9:57:b5, 2085-97-99 00:23:00:2051,0.047,0.012,1.001,0,0.366,0.122,0.687,-2.681,-123.536
 15:35:53.381,eb:33:2e:f9:57:b5, 2085-97-95 00:22:00:2050,0.049,0.01,1.001,0,0.549,0.122,0.687,-2.675,-123.53
 15:35:53.381,eb:33:2e:f9:57:b5, 2085-97-98 00:20:00:2057,0.049,0.011,1.003,0,0.366,0,0.692,-2.686,-123.541
 15:35:53.381,eb:33:2e:f9:57:b5, 2085-97-100 00:19:00:2057,0.048,0.009,1.004,0.122,0.427,0.061,0.692,-2.681,-123.541
 15:35:53.442,eb:33:2e:f9:57:b5, 2085-97-97 00:22:00:2053,0.046,0.011,1.003,0.061,0.488,-0.122,0.698,-2.692,-123.558
 15:35:53.442,eb:33:2e:f9:57:b5, 2085-97-96 00:22:00:2050,0.047,0.01,1.001,0,0.366,-0.244,0.698,-2.686,-123.558
 15:35:53.442,eb:33:2e:f9:57:b5, 2085-97-98 00:21:00:2054,0.047,0.011,1.001,-0.061,0.305,-0.305,0.698,-2.692,-123.574
 15:35:53.442,eb:33:2e:f9:57:b5, 2085-97-98 00:17:00:2056,0.047,0.009,1.003,-0.061,0.427,-0.427,0.698,-2.692,-123.574
 15:35:53.444,eb:33:2e:f9:57:b5, 2085-97-97 00:18:00:2056,0.047,0.008,1.005,0.061,0.427,-0.427,0.703,-2.697,-123.591
 15:35:53.444,eb:33:2e:f9:57:b5, 2085-97-100 00:22:00:2055,0.048,0.009,1.003,0.122,0.366,-0.427,0.703,-2.692,-123.596
 15:35:53.444,eb:33:2e:f9:57:b5, 2085-113-58 00:199:222:-5460,0.048,0.01,1.003,0.305,0.427,-0.61,0.709,-2.703,-123.613
 15:35:53.444,eb:33:2e:f9:57:b5, 2085-97-96 00:19:00:2055,0.046,0.009,1.004,0.305,0.366,-0.549,0.709,-2.697,-123.618
 15:35:53.444,eb:33:2e:f9:57:b5, 2085-97-95 00:24:00:2049,0.044,0.011,1.001,0.305,0.305,-0.732,0.714,-2.692,-123.624
 15:35:53.502,eb:33:2e:f9:57:b5, 2085-97-94 00:21:00:2049,0.046,0.011,1,0.183,0.122,-0.793,0.72,-2.703,-123.64
 15:35:53.502,eb:33:2e:f9:57:b5, 2085-97-96 00:23:00:2053,0.047,0.011,1.001,0.122,0.122,-0.793,0.72,-2.703,-123.651
 15:35:53.502,eb:33:2e:f9:57:b5, 2085-97-97 00:23:00:2052,0.048,0.011,1.003,0,0.122,-0.916,0.725,-2.708,-123.668
 15:35:53.502,eb:33:2e:f9:57:b5, 2085-97-97 00:18:00:2057,0.047,0.011,1.003,0,0.061,-1.16,0.725,-2.708,-123.679
 15:35:53.531,eb:33:2e:f9:57:b5, 2085-97-98 00:20:00:2057,0.047,0.009,1.005,0.183,0.122,-1.16,0.731,-2.714,-123.701
 15:35:53.531,eb:33:2e:f9:57:b5, 2085-97-95 00:17:00:2057,0.046,0.01,1.005,0.366,0.122,-1.16,0.736,-2.714,-123.717
 15:35:53.531,eb:33:2e:f9:57:b5, 2085-97-100 00:22:00:2060,0.048,0.009,1.005,0.549,0,-1.16,0.742,-2.719,-123.739
 15:35:53.531,eb:33:2e:f9:57:b5, 2085-97-92 00:22:00:2053,0.043,0.011,1.004,0.61,0.244,-1.221,0.747,-2.719,-123.75
 15:35:53.592,eb:33:2e:f9:57:b5, 2085-97-88 00:23:00:2046,0.044,0.011,1,0.549,0.122,-1.221,0.758,-2.725,-123.772
 15:35:53.592,eb:33:2e:f9:57:b5, 2085-97-96 00:23:00:2050,0.046,0.011,1,0.366,0,-0.977,0.764,-2.725,-123.783
 15:35:53.592,eb:33:2e:f9:57:b5, 2085-97-93 00:27:00:2049,0.044,0.012,1.002,0.305,0.061,-0.977,0.769,-2.73,-123.805
 15:35:53.592,eb:33:2e:f9:57:b5, 2085-97-90 00:27:00:2043,0.044,0.013,0.999,0,0,-1.099,0.769,-2.73,-123.816
 15:35:53.621,eb:33:2e:f9:57:b5, 2085-97-93 00:20:00:2052,0.044,0.011,1,-0.122,-0.061,-1.038,0.769,-2.736,-123.832
 15:35:53.621,eb:33:2e:f9:57:b5, 2085-97-88 00:19:00:2054,0.045,0.009,1.004,0,0.061,-0.549,0.769,-2.736,-123.843
 15:35:53.621,eb:33:2e:f9:57:b5, 2085-97-92 00:21:00:2053,0.046,0.01,1.003,0.122,0,-0.244,0.775,-2.741,-123.854
 15:35:53.621,eb:33:2e:f9:57:b5, 2085-97-97 00:20:00:2057,0.048,0.011,1.003,0.122,0,-0.061,0.775,-2.747,-123.86
 15:35:53.651,eb:33:2e:f9:57:b5, 2085-97-95 00:23:00:2055,0.046,0.01,1.004,0.244,0,-0.061,0.78,-2.752,-123.865
 15:35:53.651,eb:33:2e:f9:57:b5, 2085-97-94 00:26:00:2049,0.045,0.013,1.002,0.183,-0.061,-0.244,0.78,-2.752,-123.871
 15:35:53.651,eb:33:2e:f9:57:b5, 2085-97-94 00:24:00:2050,0.046,0.013,1,0.061,-0.122,-0.244,0.786,-2.758,-123.882
 15:35:53.651,eb:33:2e:f9:57:b5, 2085-97-95 00:24:00:2048,0.046,0.012,1,0,-0.183,-0.183,0.786,-2.758,-123.882
 15:35:53.710,eb:33:2e:f9:57:b5, 2085-97-92 00:20:00:2056,0.045,0.011,1.002,-0.061,-0.122,-0.244,0.786,-2.769,-123.893
 15:35:53.710,eb:33:2e:f9:57:b5, 2085-97-98 00:23:00:2056,0.048,0.009,1.003,0.061,-0.122,0.122,0.786,-2.769,-123.893
 15:35:53.710,eb:33:2e:f9:57:b5, 2085-97-97 00:22:00:2059,0.047,0.011,1.005,0.122,-0.122,0.061,0.786,-2.774,-123.898
 15:35:53.710,eb:33:2e:f9:57:b5, 2085-97-97 00:21:00:2058,0.047,0.011,1.004,0.244,0,0,0.791,-2.774,-123.898
 15:35:53.770,eb:33:2e:f9:57:b5, 2085-97-99 00:24:00:2056,0.048,0.011,1.005,0.366,0,-0.061,0.791,-2.78,-123.909
 15:35:53.770,eb:33:2e:f9:57:b5, 2085-97-96 00:25:00:2054,0.045,0.012,1.003,0.366,0,-0.122,0.797,-2.78,-123.909
 15:35:53.770,eb:33:2e:f9:57:b5, 2085-97-94 00:25:00:2049,0.047,0.011,1.001,0.305,-0.061,-0.183,0.802,-2.785,-123.92
 15:35:53.770,eb:33:2e:f9:57:b5, 2085-97-95 00:26:00:2051,0.046,0.013,1.001,0.244,-0.061,-0.244,0.807,-2.785,-123.92
 15:35:53.772,eb:33:2e:f9:57:b5, 2085-97-93 00:23:00:2050,0.045,0.012,1.002,0.122,0,-0.122,0.807,-2.791,-123.931
 15:35:53.772,eb:33:2e:f9:57:b5, 2085-97-94 00:26:00:2049,0.046,0.012,1.001,0.061,-0.061,-0.061,0.813,-2.791,-123.931
 15:35:53.772,eb:33:2e:f9:57:b5, 2085-97-94 00:24:00:2049,0.045,0.012,1,0,-0.183,-0.122,0.813,-2.796,-123.942
 15:35:53.772,eb:33:2e:f9:57:b5, 2085-97-96 00:25:00:2053,0.047,0.011,1.001,0,-0.122,0,0.813,-2.796,-123.942
 15:35:53.861,eb:33:2e:f9:57:b5, 2085-97-95 00:25:00:2052,0.046,0.012,1.002,-0.061,-0.061,0,0.813,-2.802,-123.953
 15:35:53.861,eb:33:2e:f9:57:b5, 2085-97-95 00:24:00:2054,0.046,0.012,1.002,-0.122,-0.122,-0.122,0.813,-2.802,-123.953
 15:35:53.861,eb:33:2e:f9:57:b5, 2085-97-97 00:24:00:2052,0.048,0.011,1.002,-0.061,-0.122,0,0.813,-2.807,-123.959
 15:35:53.861,eb:33:2e:f9:57:b5, 2085-97-98 00:24:00:2052,0.046,0.012,1.001,-0.061,-0.122,-0.122,0.813,-2.812,-123.959
 15:35:53.863,eb:33:2e:f9:57:b5, 2085-97-96 00:24:00:2055,0.048,0.012,1.001,-0.122,-0.183,-0.183,0.813,-2.812,-123.97
 15:35:53.863,eb:33:2e:f9:57:b5, 2085-97-96 00:24:00:2052,0.047,0.012,1.002,-0.122,-0.122,-0.183,0.807,-2.818,-123.97
 15:35:53.863,eb:33:2e:f9:57:b5, 2085-97-96 00:23:00:2054,0.048,0.012,1.002,-0.122,-0.183,-0.244,0.807,-2.823,-123.981
 15:35:53.863,eb:33:2e:f9:57:b5, 2085-97-102 00:24:00:2058,0.049,0.011,1.003,-0.061,-0.122,-0.244,0.807,-2.823,-123.981
 15:35:53.890,eb:33:2e:f9:57:b5, 2085-97-98 00:24:00:2053,0.048,0.012,1.003,-0.122,0,-0.488,0.807,-2.829,-123.992
 15:35:53.890,eb:33:2e:f9:57:b5, 2085-97-96 00:25:00:2051,0.044,0.012,1.002,-0.061,-0.061,-0.732,0.807,-2.829,-124.003
 15:35:53.890,eb:33:2e:f9:57:b5, 2085-97-95 00:25:00:2052,0.05,0.011,1,-0.183,-0.122,-0.488,0.807,-2.829,-124.014
 15:35:53.890,eb:33:2e:f9:57:b5, 2085-97-100 00:24:00:2055,0.047,0.013,1.003,-0.244,-0.122,-0.793,0.802,-2.834,-124.019
 15:35:53.952,eb:33:2e:f9:57:b5, 2085-97-95 00:22:00:2054,0.044,0.011,1.003,-0.183,-0.061,-0.793,0.802,-2.84,-124.036
 15:35:53.952,eb:33:2e:f9:57:b5, 2085-97-92 00:19:00:2052,0.047,0.01,1.002,-0.061,-0.122,-0.427,0.802,-2.84,-124.041
 15:35:53.952,eb:33:2e:f9:57:b5, 2085-97-95 00:23:00:2052,0.045,0.01,1.003,0,-0.061,-0.305,0.802,-2.84,-124.052
 15:35:53.952,eb:33:2e:f9:57:b5, 2085-97-93 00:24:00:2050,0.046,0.011,1.001,0,-0.122,-0.244,0.802,-2.845,-124.058
 15:35:53.981,eb:33:2e:f9:57:b5, 2085-97-98 00:26:00:2047,0.047,0.013,1,-0.122,-0.183,-0.244,0.802,-2.845,-124.063
 15:35:53.981,eb:33:2e:f9:57:b5, 2085-97-96 00:25:00:2050,0.045,0.012,1.001,-0.183,-0.305,-0.305,0.802,-2.851,-124.069
 15:35:53.981,eb:33:2e:f9:57:b5, 2085-97-92 00:23:00:2050,0.045,0.012,1,-0.305,-0.244,-0.244,0.802,-2.856,-124.074
 15:35:53.981,eb:33:2e:f9:57:b5, 2085-97-94 00:23:00:2052,0.045,0.011,1,-0.427,-0.305,-0.061,0.797,-2.856,-124.08
 15:35:54.011,eb:33:2e:f9:57:b5, 2085-97-91 00:20:00:2050,0.045,0.011,1.001,-0.366,-0.305,0,0.791,-2.862,-124.085
 15:35:54.011,eb:33:2e:f9:57:b5, 2085-97-96 00:19:00:2056,0.046,0.01,1.003,-0.244,-0.366,0.183,0.791,-2.867,-124.085
 15:35:54.011,eb:33:2e:f9:57:b5, 2085-97-97 00:20:00:2057,0.048,0.009,1.005,-0.061,-0.305,0.488,0.786,-2.873,-124.085
 15:35:54.011,eb:33:2e:f9:57:b5, 2085-97-102 00:23:00:2055,0.05,0.011,1.003,-0.061,-0.305,0.427,0.786,-2.878,-124.08
 15:35:54.070,eb:33:2e:f9:57:b5, 2085-97-100 00:25:00:2053,0.049,0.012,1.003,-0.061,-0.122,0.122,0.786,-2.878,-124.085
 15:35:54.070,eb:33:2e:f9:57:b5, 2085-97-98 00:25:00:2050,0.047,0.012,1.002,-0.183,-0.122,-0.122,0.786,-2.884,-124.085
 15:35:54.070,eb:33:2e:f9:57:b5, 2085-97-96 00:25:00:2052,0.048,0.012,1.001,-0.305,-0.183,-0.183,0.78,-2.884,-124.091
 15:35:54.070,eb:33:2e:f9:57:b5, 2085-97-99 00:22:00:2051,0.048,0.012,1,-0.366,-0.305,-0.244,0.78,-2.889,-124.096
 15:35:54.100,eb:33:2e:f9:57:b5, 2085-97-95 00:23:00:2052,0.047,0.011,1.001,-0.366,-0.244,-0.305,0.775,-2.889,-124.102
 15:35:54.100,eb:33:2e:f9:57:b5, 2085-97-96 00:22:00:2052,0.047,0.01,1.002,-0.427,-0.305,-0.305,0.769,-2.895,-124.107
 15:35:54.100,eb:33:2e:f9:57:b5, 2085-97-100 00:18:00:2056,0.05,0.01,1.003,-0.427,-0.427,-0.183,0.769,-2.9,-124.118
 15:35:54.100,eb:33:2e:f9:57:b5, 2085-97-103 00:18:00:2063,0.051,0.009,1.006,-0.244,-0.427,-0.122,0.764,-2.906,-124.118
 15:35:54.131,eb:33:2e:f9:57:b5, 2085-97-111 00:17:00:2069,0.054,0.008,1.008,0.061,-0.366,-0.183,0.764,-2.911,-124.124
 15:35:54.131,eb:33:2e:f9:57:b5, 2085-97-107 00:17:00:2068,0.052,0.008,1.01,0.549,-0.122,-0.427,0.769,-2.911,-124.129
 15:35:54.131,eb:33:2e:f9:57:b5, 2085-113-81 00:242:59:-601,0.052,0.009,1.008,0.916,-0.061,-0.549,0.775,-2.917,-124.14
 15:35:54.131,eb:33:2e:f9:57:b5, 2085-97-104 00:21:00:2059,0.05,0.011,1.007,0.977,0,-0.671,0.78,-2.917,-124.146
 15:35:54.192,eb:33:2e:f9:57:b5, 2085-97-100 00:23:00:2054,0.048,0.011,1.004,1.16,0,-0.977,0.791,-2.917,-124.156
 15:35:54.192,eb:33:2e:f9:57:b5, 2085-97-100 00:26:00:2053,0.048,0.011,1.002,1.16,0,-1.099,0.807,-2.917,-124.167
 15:35:54.192,eb:33:2e:f9:57:b5, 2085-97-99 00:28:00:2048,0.048,0.013,1.002,1.221,0.183,-1.099,0.818,-2.917,-124.184
 15:35:54.192,eb:33:2e:f9:57:b5, 2085-97-96 00:28:00:2043,0.043,0.014,1,1.038,0.244,-1.099,0.829,-2.917,-124.195
 15:35:54.222,eb:33:2e:f9:57:b5, 2085-97-88 00:25:00:2042,0.045,0.013,0.998,0.854,0.061,-0.977,0.84,-2.917,-124.217
 15:35:54.222,eb:33:2e:f9:57:b5, 2085-97-93 00:26:00:2044,0.045,0.012,0.998,0.61,-0.122,-0.671,0.851,-2.917,-124.222
 15:35:54.222,eb:33:2e:f9:57:b5, 2085-97-93 00:23:00:2046,0.046,0.012,0.999,0.427,-0.122,-0.305,0.857,-2.922,-124.233
 15:35:54.222,eb:33:2e:f9:57:b5, 2085-97-96 00:27:00:2046,0.048,0.013,1,0.305,-0.122,0,0.857,-2.922,-124.233
 15:35:54.252,eb:33:2e:f9:57:b5, 2085-97-95 00:25:00:2049,0.048,0.014,1,0.183,-0.244,0,0.862,-2.928,-124.239
 15:35:54.252,eb:33:2e:f9:57:b5, 2085-97-99 00:30:00:2047,0.05,0.014,1,0,-0.244,0.061,0.862,-2.928,-124.239
 15:35:54.252,eb:33:2e:f9:57:b5, 2085-97-102 00:30:00:2049,0.048,0.015,1,-0.244,-0.183,-0.122,0.862,-2.933,-124.244
 15:35:54.252,eb:33:2e:f9:57:b5, 2085-97-102 00:29:00:2053,0.051,0.014,1,-0.366,-0.122,-0.305,0.857,-2.933,-124.25
 15:35:54.311,eb:33:2e:f9:57:b5, 2085-97-103 00:22:00:2056,0.053,0.013,1.003,-0.549,0,-0.671,0.851,-2.933,-124.255
 15:35:54.311,eb:33:2e:f9:57:b5, 2085-97-110 00:23:00:2065,0.052,0.011,1.006,-0.427,0,-0.793,0.851,-2.933,-124.266
 15:35:54.311,eb:33:2e:f9:57:b5, 2085-97-105 00:23:00:2063,0.051,0.011,1.007,-0.122,0.366,-0.916,0.846,-2.933,-124.277
 15:35:54.311,eb:33:2e:f9:57:b5, 2085-97-103 00:23:00:2059,0.049,0.011,1.007,0,0.549,-1.16,0.846,-2.928,-124.288
 15:35:54.341,eb:33:2e:f9:57:b5, 2085-97-100 00:23:00:2058,0.048,0.012,1.005,0.183,0.61,-1.221,0.851,-2.922,-124.305
 15:35:54.341,eb:33:2e:f9:57:b5, 2085-97-96 00:26:00:2051,0.046,0.012,1.003,0.244,0.732,-1.099,0.851,-2.917,-124.321
 15:35:54.341,eb:33:2e:f9:57:b5, 2085-97-95 00:26:00:2050,0.047,0.013,1,0.183,0.671,-1.221,0.857,-2.911,-124.338
 15:35:54.341,eb:33:2e:f9:57:b5, 2085-97-94 00:27:00:2048,0.047,0.013,1,0,0.61,-1.221,0.857,-2.906,-124.349
 15:35:54.372,eb:33:2e:f9:57:b5, 2085-97-99 00:27:00:2051,0.049,0.014,1,-0.122,0.427,-1.343,0.857,-2.9,-124.365
 15:35:54.372,eb:33:2e:f9:57:b5, 2085-97-100 00:20:00:2061,0.05,0.012,1.002,-0.122,0.488,-1.465,0.857,-2.895,-124.382
 15:35:54.372,eb:33:2e:f9:57:b5, 2085-97-106 00:23:00:2061,0.051,0.01,1.007,0.183,0.61,-1.221,0.857,-2.889,-124.398
 15:35:54.372,eb:33:2e:f9:57:b5, 2085-97-101 00:23:00:2062,0.05,0.012,1.006,0.366,0.732,-1.343,0.862,-2.884,-124.415
 15:35:54.460,eb:33:2e:f9:57:b5, 2085-97-100 00:27:00:2055,0.047,0.012,1.006,0.61,0.916,-1.404,0.868,-2.873,-124.431
 15:35:54.460,eb:33:2e:f9:57:b5, 2085-97-96 00:29:00:2048,0.046,0.014,1.002,0.549,1.038,-1.587,0.879,-2.862,-124.448
 15:35:54.460,eb:33:2e:f9:57:b5, 2085-97-89 00:26:00:2049,0.043,0.013,1,0.305,0.916,-1.709,0.884,-2.856,-124.47
 15:35:54.460,eb:33:2e:f9:57:b5, 2085-97-89 00:26:00:2048,0.044,0.013,1,0.244,0.793,-1.465,0.884,-2.845,-124.486
 15:35:54.462,eb:33:2e:f9:57:b5, 2085-97-87 00:26:00:2047,0.043,0.013,1,0.183,0.732,-1.221,0.89,-2.84,-124.503
 15:35:54.462,eb:33:2e:f9:57:b5, 2085-97-88 00:23:00:2049,0.042,0.011,1,0.183,0.549,-0.854,0.89,-2.834,-124.514
 15:35:54.462,eb:33:2e:f9:57:b5, 2085-97-89 00:25:00:2051,0.045,0.011,1.001,0.244,0.305,-0.366,0.895,-2.829,-124.525
 15:35:54.462,eb:33:2e:f9:57:b5, 2085-97-93 00:27:00:2050,0.047,0.014,1.001,0.183,0.061,-0.366,0.901,-2.829,-124.53
 15:35:54.492,eb:33:2e:f9:57:b5, 2085-97-97 00:28:00:2053,0.047,0.014,1.001,0.122,-0.061,-0.488,0.906,-2.851,-124.651
 15:35:54.492,eb:33:2e:f9:57:b5, 2085-97-96 00:27:00:2054,0.047,0.013,1.003,0.061,-0.122,-0.61,0.912,-2.845,-124.135
 15:35:54.492,eb:33:2e:f9:57:b5, 2085-97-96 00:24:00:2056,0.047,0.012,1.004,0.122,-0.122,-0.793,0.912,-2.845,-124.14
 15:35:54.492,eb:33:2e:f9:57:b5, 2085-97-97 00:21:00:2063,0.048,0.011,1.006,0.488,0,-0.61,0.917,-2.845,-123.783
 15:35:54.550,eb:33:2e:f9:57:b5, 2085-97-98 00:26:00:2059,0.047,0.011,1.007,0.793,0.122,-0.427,0.912,-2.845,-123.805
 15:35:54.550,eb:33:2e:f9:57:b5, 2085-97-96 00:29:00:2052,0.045,0.014,1.003,0.854,0.244,-0.671,0.917,-2.845,-123.541
 15:35:54.550,eb:33:2e:f9:57:b5, 2085-97-92 00:29:00:2047,0.046,0.014,1.002,0.793,0.244,-0.732,0.917,-2.851,-123.563
 15:35:54.550,eb:33:2e:f9:57:b5, 2085-97-89 00:30:00:2042,0.042,0.015,0.999,0.549,0.183,-0.793,0.917,-2.851,-123.36
 15:35:54.611,eb:33:2e:f9:57:b5, 2085-97-87 00:30:00:2043,0.044,0.015,0.997,0.305,0,-0.549,0.917,-2.851,-123.371
 15:35:54.611,eb:33:2e:f9:57:b5, 2085-97-90 00:28:00:2046,0.043,0.015,0.998,0.122,-0.183,-0.305,0.923,-2.851,-123.212
 15:35:54.611,eb:33:2e:f9:57:b5, 2085-97-91 00:29:00:2050,0.044,0.013,1,0,-0.183,0.122,0.923,-2.845,-123.217
 15:35:54.611,eb:33:2e:f9:57:b5, 2085-97-92 00:27:00:2053,0.046,0.014,1,0,-0.183,0.427,0.923,-2.845,-123.085
 15:35:54.611,eb:33:2e:f9:57:b5, 2085-97-93 00:29:00:2053,0.047,0.014,1.002,0,-0.244,0.61,0.928,-2.84,-123.091
 15:35:54.611,eb:33:2e:f9:57:b5, 2085-97-98 00:28:00:2052,0.047,0.014,1.002,0,-0.305,0.61,0.928,-2.834,-122.986
 15:35:54.611,eb:33:2e:f9:57:b5, 2085-97-97 00:30:00:2053,0.049,0.015,1.002,0,-0.183,0.549,0.934,-2.834,-122.992
 15:35:54.611,eb:33:2e:f9:57:b5, 2085-97-101 00:28:00:2058,0.05,0.014,1.003,0,-0.183,0.366,0.934,-2.834,-122.904
 15:35:54.701,eb:33:2e:f9:57:b5, 2085-97-105 00:28:00:2062,0.05,0.013,1.005,0.061,-0.122,0.305,0.934,-2.84,-122.915
 15:35:54.701,eb:33:2e:f9:57:b5, 2085-97-99 00:25:00:2063,0.048,0.013,1.006,0.183,0.061,0,0.934,-2.84,-122.833
 15:35:54.701,eb:33:2e:f9:57:b5, 2085-97-100 00:27:00:2062,0.049,0.012,1.008,0.427,0.122,0,0.939,-2.845,-122.849
 15:35:54.701,eb:33:2e:f9:57:b5, 2085-97-100 00:28:00:2059,0.049,0.014,1.006,0.61,0.183,-0.122,0.939,-2.845,-122.778
 15:35:54.703,eb:33:2e:f9:57:b5, 2085-97-97 00:29:00:2056,0.046,0.014,1.004,0.793,0.244,-0.366,0.939,-2.856,-122.794
 15:35:54.703,eb:33:2e:f9:57:b5, 2085-97-95 00:32:00:2052,0.046,0.015,1.003,0.916,0.183,-0.488,0.939,-2.856,-122.734
 15:35:54.703,eb:33:2e:f9:57:b5, 2085-97-94 00:35:00:2047,0.045,0.017,1,0.732,0.122,-0.671,0.939,-2.862,-122.745
 15:35:54.703,eb:33:2e:f9:57:b5, 2085-97-89 00:35:00:2040,0.042,0.017,0.997,0.488,0.061,-0.793,0.939,-2.862,-122.69
 15:35:54.731,eb:33:2e:f9:57:b5, 2085-97-88 00:35:00:2038,0.043,0.017,0.995,0.061,-0.122,-0.732,0.95,-2.862,-122.695
 15:35:54.731,eb:33:2e:f9:57:b5, 2085-97-89 00:32:00:2043,0.043,0.016,0.996,-0.122,-0.366,-0.427,0.95,-2.862,-122.646
 15:35:54.731,eb:33:2e:f9:57:b5, 2085-97-94 00:33:00:2047,0.047,0.016,0.997,-0.427,-0.488,-0.122,0.956,-2.856,-122.651
 15:35:54.731,eb:33:2e:f9:57:b5, 2085-97-96 00:29:00:2052,0.048,0.015,1,-0.549,-0.549,-0.061,0.956,-2.856,-122.607
 15:35:54.790,eb:33:2e:f9:57:b5, 2085-97-96 00:28:00:2055,0.048,0.015,1.002,-0.61,-0.488,0,0.961,-2.856,-122.607
 15:35:54.790,eb:33:2e:f9:57:b5, 2085-97-95 00:26:00:2056,0.049,0.013,1.006,-0.549,-0.366,0.061,0.961,-2.856,-122.569
 15:35:54.790,eb:33:2e:f9:57:b5, 2085-97-105 00:30:00:2058,0.049,0.013,1.004,-0.305,-0.305,0.244,0.967,-2.856,-122.574
 15:35:54.790,eb:33:2e:f9:57:b5, 2085-97-100 00:27:00:2058,0.049,0.014,1.005,-0.305,-0.061,0,0.967,-2.856,-122.536
 15:35:54.824,eb:33:2e:f9:57:b5, 2085-97-99 00:25:00:2058,0.049,0.013,1.005,-0.122,0,-0.122,0.967,-2.862,-122.542
 15:35:54.824,eb:33:2e:f9:57:b5, 2085-97-101 00:29:00:2056,0.046,0.013,1.005,0,0.061,0,0.967,-2.862,-122.509
 15:35:54.824,eb:33:2e:f9:57:b5, 2085-97-95 00:29:00:2049,0.046,0.015,1.002,0,0.183,-0.061,0.967,-2.867,-122.52
 15:35:54.824,eb:33:2e:f9:57:b5, 2085-97-93 00:31:00:2048,0.047,0.015,1,-0.122,0.244,-0.061,0.967,-2.867,-122.487
 15:35:54.882,eb:33:2e:f9:57:b5, 2085-97-97 00:30:00:2051,0.047,0.015,1,-0.244,0.061,-0.061,0.967,-2.867,-122.492
 15:35:54.882,eb:33:2e:f9:57:b5, 2085-97-98 00:32:00:2051,0.048,0.015,1.001,-0.305,0.122,-0.122,0.967,-2.867,-122.465
 15:35:54.882,eb:33:2e:f9:57:b5, 2085-97-96 00:31:00:2047,0.047,0.016,1,-0.427,0.122,-0.244,0.972,-2.873,-122.465
 15:35:54.882,eb:33:2e:f9:57:b5, 2085-97-95 00:28:00:2048,0.048,0.014,1,-0.549,0,-0.305,0.972,-2.873,-122.443
 15:35:54.913,eb:33:2e:f9:57:b5, 2085-97-100 00:24:00:2054,0.044,0.014,1.005,-0.549,0,-0.427,0.972,-2.873,-122.443
 15:35:54.913,eb:33:2e:f9:57:b5, 2085-97-96 00:26:00:2056,0.047,0.011,1.004,-0.366,0.183,0,0.972,-2.873,-122.421
 15:35:54.913,eb:33:2e:f9:57:b5, 2085-97-93 00:28:00:2051,0.046,0.013,1.002,-0.305,0.061,-0.061,0.972,-2.873,-122.426
 15:35:54.913,eb:33:2e:f9:57:b5, 2085-97-96 00:25:00:2056,0.046,0.013,1.002,-0.366,0,0,0.972,-2.873,-122.404
 15:35:54.971,eb:33:2e:f9:57:b5, 2085-97-94 00:27:00:2051,0.046,0.012,1.003,-0.305,0.183,0,0.972,-2.878,-122.404
 15:35:54.971,eb:33:2e:f9:57:b5, 2085-97-94 00:30:00:2049,0.046,0.014,1.001,-0.305,0.061,0.061,0.972,-2.878,-122.382
 15:35:54.971,eb:33:2e:f9:57:b5, 2085-97-92 00:29:00:2049,0.044,0.014,1.001,-0.366,0,0.183,0.967,-2.878,-122.388
 15:35:54.971,eb:33:2e:f9:57:b5, 2085-97-90 00:28:00:2052,0.044,0.014,1,-0.427,-0.061,0.122,0.967,-2.878,-122.366
 15:35:55.003,eb:33:2e:f9:57:b5, 2085-97-96 00:25:00:2055,0.048,0.013,1.002,-0.366,-0.183,0.427,0.967,-2.873,-122.371
 15:35:55.003,eb:33:2e:f9:57:b5, 2085-97-96 00:26:00:2054,0.045,0.012,1.004,-0.244,-0.122,0.488,0.967,-2.873,-122.349
 15:35:55.003,eb:33:2e:f9:57:b5, 2085-97-91 00:26:00:2050,0.046,0.013,1.001,-0.244,-0.244,0.427,0.967,-2.873,-122.355
 15:35:55.003,eb:33:2e:f9:57:b5, 2085-97-99 00:22:00:2057,0.049,0.012,1.002,-0.122,-0.427,0.488,0.967,-2.873,-122.338
 15:35:55.031,eb:33:2e:f9:57:b5, 2085-97-104 00:22:00:2064,0.049,0.01,1.007,0.061,-0.305,0.671,0.967,-2.873,-122.338
 15:35:55.031,eb:33:2e:f9:57:b5, 2085-97-97 00:27:00:2056,0.047,0.012,1.006,0.427,-0.122,0.61,0.967,-2.873,-122.322
 15:35:55.031,eb:33:2e:f9:57:b5, 2085-97-100 00:23:00:2059,0.049,0.012,1.003,0.488,-0.244,0.488,0.961,-2.873,-122.327
 15:35:55.031,eb:33:2e:f9:57:b5, 2085-97-98 00:29:00:2054,0.048,0.013,1.005,0.549,0,0.488,0.961,-2.873,-122.311
 15:35:55.061,eb:33:2e:f9:57:b5, 2085-97-101 00:31:00:2049,0.048,0.015,1.001,0.427,-0.122,0.244,0.961,-2.878,-122.316
 15:35:55.061,eb:33:2e:f9:57:b5, 2085-97-98 00:33:00:2048,0.047,0.016,1,0.244,-0.061,0,0.961,-2.878,-122.3
 15:35:55.061,eb:33:2e:f9:57:b5, 2085-97-94 00:30:00:2047,0.047,0.015,1,0,0,0,0.961,-2.878,-122.3
 15:35:55.061,eb:33:2e:f9:57:b5, 2085-97-97 00:32:00:2048,0.046,0.015,1,-0.061,-0.061,0,0.961,-2.878,-122.289
 15:35:55.121,eb:33:2e:f9:57:b5, 2085-97-90 00:27:00:2047,0.045,0.015,1,-0.183,-0.061,0,0.961,-2.884,-122.289
 15:35:55.121,eb:33:2e:f9:57:b5, 2085-97-90 00:26:00:2050,0.045,0.013,1.001,-0.122,-0.244,0.244,0.961,-2.884,-122.278
 15:35:55.121,eb:33:2e:f9:57:b5, 2085-113-81 00:199:61:-558,0.047,0.012,1.001,-0.122,-0.366,0.366,0.961,-2.884,-122.278
 15:35:55.121,eb:33:2e:f9:57:b5, 2085-97-97 00:26:00:2057,0.047,0.012,1.003,-0.061,-0.427,0.427,0.961,-2.884,-122.278
 15:35:55.121,eb:33:2e:f9:57:b5, 2085-97-98 00:23:00:2060,0.048,0.013,1.004,0,-0.427,0.549,0.961,-2.884,-122.267
 15:35:55.180,eb:33:2e:f9:57:b5, 2085-97-104 00:26:00:2059,0.051,0.011,1.005,0.305,-0.366,0.671,0.961,-2.884,-122.267
 15:35:55.180,eb:33:2e:f9:57:b5, 2085-97-100 00:27:00:2058,0.049,0.014,1.005,0.366,-0.183,0.427,0.961,-2.884,-122.256
 15:35:55.180,eb:33:2e:f9:57:b5, 2085-97-103 00:26:00:2060,0.049,0.012,1.005,0.488,-0.244,0.305,0.961,-2.884,-122.256
 15:35:55.180,eb:33:2e:f9:57:b5, 2085-97-103 00:29:00:2055,0.051,0.014,1.004,0.61,-0.061,0.244,0.961,-2.884,-122.245
 15:35:55.182,eb:33:2e:f9:57:b5, 2085-97-100 00:29:00:2053,0.047,0.015,1.004,0.549,0.061,-0.061,0.961,-2.889,-122.25
 15:35:55.182,eb:33:2e:f9:57:b5, 2085-97-95 00:31:00:2048,0.046,0.014,1.001,0.488,0.061,-0.061,0.961,-2.889,-122.239
 15:35:55.182,eb:33:2e:f9:57:b5, 2085-97-98 00:30:00:2051,0.05,0.015,0.999,0.366,0,-0.122,0.961,-2.889,-122.239
 15:35:55.182,eb:33:2e:f9:57:b5, 2085-97-98 00:33:00:2048,0.047,0.015,1,0.244,0.061,-0.061,0.961,-2.889,-122.228
 15:35:55.240,eb:33:2e:f9:57:b5, 2085-97-96 00:33:00:2045,0.046,0.017,0.998,0,-0.061,-0.305,0.961,-2.889,-122.234
 15:35:55.240,eb:33:2e:f9:57:b5, 2085-97-94 00:31:00:2046,0.047,0.016,0.998,-0.305,0,-0.305,0.961,-2.889,-122.223
 15:35:55.240,eb:33:2e:f9:57:b5, 2085-97-96 00:31:00:2046,0.047,0.015,0.999,-0.488,0,-0.122,0.961,-2.895,-122.223
 15:35:55.240,eb:33:2e:f9:57:b5, 2085-97-98 00:31:00:2046,0.049,0.015,0.999,-0.671,0,-0.122,0.961,-2.895,-122.212
 15:35:55.272,eb:33:2e:f9:57:b5, 2085-97-98 00:28:00:2052,0.048,0.014,1.001,-0.793,0,-0.061,0.967,-2.895,-122.212
 15:35:55.272,eb:33:2e:f9:57:b5, 2085-97-100 00:27:00:2054,0.048,0.013,1.003,-0.732,0,0,0.967,-2.895,-122.206
 15:35:55.272,eb:33:2e:f9:57:b5, 2085-97-102 00:26:00:2060,0.05,0.013,1.004,-0.61,0,0,0.967,-2.895,-122.206
 15:35:55.272,eb:33:2e:f9:57:b5, 2085-97-99 00:25:00:2056,0.048,0.013,1.004,-0.488,0.183,-0.061,0.967,-2.895,-122.195
 15:35:55.301,eb:33:2e:f9:57:b5, 2085-97-97 00:27:00:2054,0.047,0.013,1.004,-0.427,0.183,-0.122,0.967,-2.895,-122.201
 15:35:55.301,eb:33:2e:f9:57:b5, 2085-97-96 00:27:00:2050,0.046,0.013,1.002,-0.366,0.183,-0.183,0.967,-2.895,-122.19
 15:35:55.301,eb:33:2e:f9:57:b5, 2085-97-95 00:24:00:2053,0.047,0.013,1.001,-0.366,0.122,0,0.967,-2.9,-122.19
 15:35:55.301,eb:33:2e:f9:57:b5, 2085-97-97 00:22:00:2058,0.049,0.011,1.003,-0.244,0.061,0.183,0.967,-2.9,-122.184
 15:35:55.360,eb:33:2e:f9:57:b5, 2085-97-101 00:23:00:2060,0.049,0.011,1.006,0,0.122,0.305,0.967,-2.9,-122.184
 15:35:55.360,eb:33:2e:f9:57:b5, 2085-97-102 00:25:00:2058,0.05,0.012,1.005,0.061,0.122,0.366,0.967,-2.9,-122.179
 15:35:55.360,eb:33:2e:f9:57:b5, 2085-97-102 00:28:00:2056,0.05,0.013,1.004,0.183,0.122,0.122,0.961,-2.9,-122.179
 15:35:55.360,eb:33:2e:f9:57:b5, 2085-97-99 00:30:00:2051,0.047,0.016,1.002,0.122,0.244,0,0.961,-2.9,-122.173
 15:35:55.390,eb:33:2e:f9:57:b5, 2085-97-96 00:30:00:2046,0.047,0.015,1,0,0.244,-0.183,0.961,-2.906,-122.173
 15:35:55.390,eb:33:2e:f9:57:b5, 2085-97-93 00:31:00:2045,0.044,0.016,0.999,-0.183,0.244,-0.244,0.961,-2.906,-122.168
 15:35:55.390,eb:33:2e:f9:57:b5, 2085-97-92 00:26:00:2045,0.047,0.015,0.999,-0.427,0.061,-0.183,0.961,-2.906,-122.168
 15:35:55.390,eb:33:2e:f9:57:b5, 2085-97-99 00:27:00:2053,0.048,0.013,1,-0.549,0,0,0.961,-2.906,-122.162
 15:35:55.421,eb:33:2e:f9:57:b5, 2085-97-96 00:25:00:2054,0.047,0.012,1.002,-0.488,0.061,0,0.961,-2.906,-122.162
 15:35:55.422,eb:33:2e:f9:57:b5, 2085-97-98 00:25:00:2056,0.048,0.012,1.003,-0.427,0.122,0,0.961,-2.906,-122.151
 15:35:55.422,eb:33:2e:f9:57:b5, 2085-97-97 00:24:00:2058,0.046,0.012,1.004,-0.305,0.122,0.061,0.961,-2.906,-122.157
 15:35:55.422,eb:33:2e:f9:57:b5, 2085-97-94 00:25:00:2053,0.046,0.011,1.003,-0.122,0.122,0.122,0.961,-2.906,-122.146
 15:35:55.481,eb:33:2e:f9:57:b5, 2085-97-97 00:25:00:2054,0.047,0.011,1.003,-0.122,0,0.183,0.961,-2.906,-122.151
 15:35:55.481,eb:33:2e:f9:57:b5, 2085-97-96 00:27:00:2053,0.047,0.013,1.002,0,0.122,0.305,0.961,-2.906,-122.141
 15:35:55.481,eb:33:2e:f9:57:b5, 2085-97-96 00:27:00:2053,0.047,0.013,1.002,0,0,0.305,0.961,-2.906,-122.146
 15:35:55.481,eb:33:2e:f9:57:b5, 2085-97-96 00:27:00:2050,0.048,0.014,1.001,0,0,0.366,0.961,-2.906,-122.141
 15:35:55.512,eb:33:2e:f9:57:b5, 2085-97-97 00:23:00:2054,0.047,0.013,1.002,-0.061,-0.122,0.244,0.956,-2.906,-122.141
 15:35:55.512,eb:33:2e:f9:57:b5, 2085-97-99 00:23:00:2058,0.048,0.01,1.004,0.061,-0.061,0.427,0.956,-2.906,-122.135
 15:35:55.512,eb:33:2e:f9:57:b5, 2085-97-97 00:25:00:2056,0.048,0.012,1.004,0.244,0,0.427,0.956,-2.906,-122.135
 15:35:55.512,eb:33:2e:f9:57:b5, 2085-97-98 00:25:00:2055,0.047,0.013,1.004,0.122,-0.061,0.244,0.956,-2.906,-122.13
 15:35:55.542,eb:33:2e:f9:57:b5, 2085-97-98 00:26:00:2054,0.049,0.012,1.003,0.366,0,0.427,0.956,-2.906,-122.13
 15:35:55.542,eb:33:2e:f9:57:b5, 2085-97-100 00:27:00:2052,0.048,0.013,1.003,0.305,0,0.366,0.956,-2.906,-122.124
 15:35:55.542,eb:33:2e:f9:57:b5, 2085-97-100 00:28:00:2054,0.049,0.014,1.002,0.305,0,0.244,0.956,-2.906,-122.124
 15:35:55.542,eb:33:2e:f9:57:b5, 2085-97-101 00:27:00:2053,0.05,0.013,1.002,0.183,0,0.122,0.956,-2.906,-122.119
 15:35:55.601,eb:33:2e:f9:57:b5, 2085-97-101 00:28:00:2055,0.049,0.014,1.003,0.061,0.061,-0.122,0.956,-2.911,-122.119
 15:35:55.601,eb:33:2e:f9:57:b5, 2085-97-100 00:27:00:2055,0.047,0.013,1.003,0.122,0.122,-0.305,0.956,-2.911,-122.113
 15:35:55.601,eb:33:2e:f9:57:b5, 2085-97-96 00:28:00:2055,0.048,0.014,1.002,0.122,0.122,-0.366,0.956,-2.911,-122.119
 15:35:55.601,eb:33:2e:f9:57:b5, 2085-97-96 00:25:00:2056,0.047,0.012,1.003,0.122,0.244,-0.366,0.956,-2.911,-122.113
 15:35:55.631,eb:33:2e:f9:57:b5, 2085-97-100 00:26:00:2055,0.048,0.011,1.005,0.305,0.244,-0.122,0.95,-2.911,-122.113
 15:35:55.631,eb:33:2e:f9:57:b5, 2085-97-94 00:31:00:2046,0.044,0.014,1.001,0.305,0.366,-0.183,0.95,-2.911,-122.108
 15:35:55.631,eb:33:2e:f9:57:b5, 2085-97-92 00:28:00:2048,0.046,0.014,1,0.122,0.122,-0.183,0.95,-2.911,-122.108
 15:35:55.631,eb:33:2e:f9:57:b5, 2085-113-58 00:79:222:-5415,0.047,0.015,0.999,0,0.061,-0.061,0.95,-2.911,-122.102
 15:35:55.661,eb:33:2e:f9:57:b5, 2085-97-99 00:27:00:2052,0.048,0.014,1,-0.061,0,-0.061,0.95,-2.911,-122.102
 15:35:55.661,eb:33:2e:f9:57:b5, 2085-97-98 00:28:00:2054,0.048,0.013,1.002,-0.061,0.061,-0.061,0.95,-2.911,-122.102
 15:35:55.661,eb:33:2e:f9:57:b5, 2085-97-100 00:31:00:2052,0.049,0.015,1.001,-0.183,0.122,-0.244,0.95,-2.911,-122.102
 15:35:55.661,eb:33:2e:f9:57:b5, 2085-97-95 00:25:00:2054,0.046,0.014,1.002,-0.244,0.183,-0.366,0.95,-2.911,-122.097
 15:35:55.723,eb:33:2e:f9:57:b5, 2085-97-94 00:24:00:2052,0.045,0.012,1.002,-0.183,0.183,-0.305,0.95,-2.911,-122.097
 15:35:55.723,eb:33:2e:f9:57:b5, 2085-97-95 00:24:00:2052,0.046,0.012,1.002,-0.122,0.061,-0.183,0.95,-2.911,-122.091
 15:35:55.723,eb:33:2e:f9:57:b5, 2085-97-92 00:25:00:2052,0.046,0.012,1.001,-0.061,0.122,0,0.95,-2.911,-122.091
 15:35:55.723,eb:33:2e:f9:57:b5, 2085-97-94 00:25:00:2052,0.046,0.012,1.002,0,0,0.244,0.95,-2.911,-122.091
 15:35:55.752,eb:33:2e:f9:57:b5, 2085-97-95 00:26:00:2049,0.045,0.012,1.001,0,0,0.305,0.95,-2.911,-122.091
 15:35:55.752,eb:33:2e:f9:57:b5, 2085-97-97 00:27:00:2052,0.048,0.013,1.001,0,-0.122,0.305,0.95,-2.911,-122.086
 15:35:55.752,eb:33:2e:f9:57:b5, 2085-97-100 00:24:00:2056,0.05,0.014,1.002,0,-0.122,0.244,0.95,-2.911,-122.086
 15:35:55.752,eb:33:2e:f9:57:b5, 2085-97-102 00:26:00:2059,0.049,0.013,1.005,0.122,0,0.244,0.95,-2.911,-122.08
 15:35:55.782,eb:33:2e:f9:57:b5, 2085-97-101 00:27:00:2058,0.048,0.014,1.005,0.244,0,0.061,0.95,-2.911,-122.08
 15:35:55.782,eb:33:2e:f9:57:b5, 2085-97-97 00:24:00:2057,0.048,0.012,1.005,0.244,0.061,0,0.95,-2.911,-122.08
 15:35:55.782,eb:33:2e:f9:57:b5, 2085-97-97 00:27:00:2052,0.046,0.013,1.004,0.366,0.183,0.061,0.95,-2.911,-122.08
 15:35:55.782,eb:33:2e:f9:57:b5, 2085-97-94 00:27:00:2050,0.047,0.014,1,0.305,0.061,0,0.95,-2.911,-122.075
 15:35:55.841,eb:33:2e:f9:57:b5, 2085-97-97 00:28:00:2052,0.046,0.013,1.002,0.244,0.061,0.061,0.95,-2.911,-122.075
 15:35:55.841,eb:33:2e:f9:57:b5, 2085-97-97 00:30:00:2051,0.047,0.014,1.002,0.244,0.122,0,0.95,-2.911,-122.075
 15:35:55.841,eb:33:2e:f9:57:b5, 2085-97-97 00:29:00:2049,0.046,0.015,1.001,0.183,0,0,0.95,-2.911,-122.075
 15:35:55.841,eb:33:2e:f9:57:b5, 2085-97-93 00:29:00:2048,0.046,0.015,1,0.061,0,0,0.95,-2.911,-122.069
 15:35:55.871,eb:33:2e:f9:57:b5, 2085-97-94 00:27:00:2048,0.046,0.015,1,0,-0.061,0,0.95,-2.911,-122.069
 15:35:55.871,eb:33:2e:f9:57:b5, 2085-97-96 00:27:00:2052,0.046,0.013,1.001,-0.122,-0.061,0,0.95,-2.911,-122.064
 15:35:55.871,eb:33:2e:f9:57:b5, 2085-97-94 00:26:00:2053,0.046,0.014,1.002,-0.061,0,0.122,0.95,-2.911,-122.069
 15:35:55.871,eb:33:2e:f9:57:b5, 2085-97-96 00:25:00:2056,0.047,0.011,1.003,-0.061,0,0.366,0.95,-2.911,-122.064
 15:35:55.901,eb:33:2e:f9:57:b5, 2085-97-97 00:27:00:2054,0.048,0.012,1.004,0,0,0.488,0.95,-2.911,-122.064
 15:35:55.901,eb:33:2e:f9:57:b5, 2085-97-99 00:30:00:2051,0.048,0.014,1.003,0,0.061,0.549,0.95,-2.911,-122.058
 15:35:55.901,eb:33:2e:f9:57:b5, 2085-97-100 00:30:00:2051,0.049,0.015,1.002,0,0,0.366,0.95,-2.911,-122.064
 15:35:55.901,eb:33:2e:f9:57:b5, 2085-97-101 00:30:00:2052,0.048,0.015,1.003,-0.183,0.061,0.183,0.95,-2.911,-122.058
 15:35:55.961,eb:33:2e:f9:57:b5, 2085-97-98 00:28:00:2054,0.048,0.014,1.001,-0.244,0.122,0,0.95,-2.911,-122.058
 15:35:55.961,eb:33:2e:f9:57:b5, 2085-97-97 00:25:00:2054,0.047,0.013,1.002,-0.183,0.122,0,0.95,-2.911,-122.058
 15:35:55.961,eb:33:2e:f9:57:b5, 2085-97-97 00:25:00:2056,0.048,0.013,1.002,-0.122,0.061,0,0.95,-2.917,-122.058
 15:35:55.961,eb:33:2e:f9:57:b5, 2085-97-98 00:25:00:2057,0.045,0.012,1.005,0,0,0.061,0.95,-2.917,-122.053
 15:35:55.991,eb:33:2e:f9:57:b5, 2085-97-93 00:27:00:2053,0.046,0.013,1.003,0,0.061,0.122,0.95,-2.917,-122.053
 15:35:55.991,eb:33:2e:f9:57:b5, 2085-97-97 00:27:00:2051,0.046,0.012,1.003,0.122,0,0.183,0.95,-2.917,-122.053
 15:35:55.991,eb:33:2e:f9:57:b5, 2085-97-97 00:29:00:2051,0.048,0.014,1.001,0,0,0.183,0.95,-2.917,-122.053
 15:35:55.991,eb:33:2e:f9:57:b5, 2085-97-97 00:28:00:2050,0.046,0.014,1.001,0,0.061,0.183,0.95,-2.917,-122.047
 15:35:56.052,eb:33:2e:f9:57:b5, 2085-97-94 00:27:00:2051,0.047,0.014,1.001,-0.061,0,0.244,0.95,-2.917,-122.047
 15:35:56.052,eb:33:2e:f9:57:b5, 2085-97-95 00:25:00:2053,0.046,0.013,1.002,-0.061,0,0.366,0.95,-2.917,-122.047
 15:35:56.052,eb:33:2e:f9:57:b5, 2085-97-97 00:27:00:2054,0.048,0.012,1.002,0,0,0.61,0.95,-2.917,-122.047
 15:35:56.052,eb:33:2e:f9:57:b5, 2085-97-100 00:28:00:2054,0.048,0.013,1.003,0.061,0,0.61,0.95,-2.917,-122.042
 15:35:56.081,eb:33:2e:f9:57:b5, 2085-97-96 00:30:00:2050,0.047,0.014,1.002,0,0.183,0.549,0.95,-2.917,-122.042
 15:35:56.081,eb:33:2e:f9:57:b5, 2085-97-97 00:27:00:2052,0.048,0.013,1.001,-0.061,0.122,0.549,0.95,-2.917,-122.042
 15:35:56.081,eb:33:2e:f9:57:b5, 2085-97-98 00:29:00:2051,0.046,0.014,1.002,0,0.183,0.671,0.95,-2.917,-122.042
 15:35:56.081,eb:33:2e:f9:57:b5, 2085-97-92 00:29:00:2048,0.047,0.014,1.001,-0.122,0.061,0.488,0.95,-2.917,-122.036
 15:35:56.111,eb:33:2e:f9:57:b5, 2085-97-97 00:28:00:2052,0.046,0.014,1,-0.244,0.061,0.488,0.95,-2.917,-122.042
 15:35:56.111,eb:33:2e:f9:57:b5, 2085-97-95 00:28:00:2051,0.047,0.014,1.002,-0.244,0.122,0.549,0.95,-2.917,-122.036
 15:35:56.111,eb:33:2e:f9:57:b5, 2085-97-95 00:28:00:2050,0.046,0.015,1,-0.305,0,0.427,0.95,-2.917,-122.036
 15:35:56.111,eb:33:2e:f9:57:b5, 2085-97-93 00:23:00:2054,0.047,0.013,1.002,-0.366,0,0.549,0.95,-2.917,-122.036
 15:35:56.140,eb:33:2e:f9:57:b5, 2085-97-98 00:28:00:2055,0.048,0.012,1.003,-0.183,0,0.732,0.95,-2.917,-122.036
 15:35:56.140,eb:33:2e:f9:57:b5, 2085-97-102 00:26:00:2058,0.049,0.013,1.004,-0.122,0,0.671,0.95,-2.917,-122.031
 15:35:56.140,eb:33:2e:f9:57:b5, 2085-97-98 00:25:00:2052,0.047,0.012,1.004,0,0.061,0.488,0.95,-2.917,-122.031
 15:35:56.140,eb:33:2e:f9:57:b5, 2085-97-97 00:28:00:2053,0.049,0.013,1.003,0,0,0.488,0.95,-2.917,-122.031
 15:35:56.201,eb:33:2e:f9:57:b5, 2085-97-101 00:28:00:2052,0.047,0.014,1.002,0.061,0,0.488,0.95,-2.917,-122.031
 15:35:56.201,eb:33:2e:f9:57:b5, 2085-97-98 00:28:00:2054,0.047,0.013,1.001,0,0,0.244,0.95,-2.917,-122.031
 15:35:56.201,eb:33:2e:f9:57:b5, 2085-97-96 00:28:00:2051,0.048,0.013,1.002,0,0,0.244,0.95,-2.917,-122.031
 15:35:56.201,eb:33:2e:f9:57:b5, 2085-97-94 00:27:00:2051,0.046,0.013,1.001,0,0,0.244,0.95,-2.917,-122.025
 15:35:56.231,eb:33:2e:f9:57:b5, 2085-97-97 00:27:00:2052,0.048,0.013,1.002,0,-0.122,0.244,0.945,-2.917,-122.025
 15:35:56.231,eb:33:2e:f9:57:b5, 2085-97-98 00:26:00:2055,0.048,0.013,1.003,0,-0.061,0.305,0.945,-2.917,-122.025
 15:35:56.231,eb:33:2e:f9:57:b5, 2085-97-97 00:26:00:2054,0.048,0.013,1.003,0,0,0.305,0.945,-2.917,-122.025
 15:35:56.231,eb:33:2e:f9:57:b5, 2085-97-99 00:27:00:2053,0.048,0.014,1.002,0,0,0.305,0.945,-2.917,-122.02
 15:35:56.290,eb:33:2e:f9:57:b5, 2085-97-99 00:25:00:2053,0.048,0.013,1.002,0,0,0.244,0.945,-2.917,-122.025
 15:35:56.290,eb:33:2e:f9:57:b5, 2085-97-97 00:27:00:2050,0.048,0.013,1.002,0,0.061,0.183,0.945,-2.917,-122.02
 15:35:56.290,eb:33:2e:f9:57:b5, 2085-113-58 00:169:222:-5490,0.048,0.014,1.002,-0.061,0,0.183,0.945,-2.917,-122.02
 15:35:56.290,eb:33:2e:f9:57:b5, 2085-97-98 00:25:00:2052,0.049,0.013,1.002,0,0,0.183,0.945,-2.917,-122.02
 15:35:56.290,eb:33:2e:f9:57:b5, 2085-97-97 00:27:00:2052,0.047,0.012,1.002,0,0.061,0.183,0.945,-2.917,-122.02
 15:35:56.322,eb:33:2e:f9:57:b5, 2085-97-98 00:26:00:2053,0.047,0.013,1.003,0,0.061,0.122,0.945,-2.917,-122.02
 15:35:56.322,eb:33:2e:f9:57:b5, 2085-97-98 00:25:00:2049,0.047,0.013,1.001,-0.061,0.122,0.061,0.945,-2.917,-122.014
 15:35:56.322,eb:33:2e:f9:57:b5, 2085-97-95 00:28:00:2050,0.046,0.014,1.001,-0.122,0.061,0.061,0.945,-2.917,-122.02
 15:35:56.322,eb:33:2e:f9:57:b5, 2085-97-96 00:27:00:2051,0.046,0.013,1.001,-0.122,0.122,0.122,0.945,-2.917,-122.014
 15:35:56.351,eb:33:2e:f9:57:b5, 2085-97-96 00:28:00:2050,0.046,0.014,1.001,-0.244,0,0.183,0.945,-2.917,-122.014
 15:35:56.351,eb:33:2e:f9:57:b5, 2085-97-97 00:25:00:2054,0.047,0.013,1.002,-0.305,0,0.122,0.945,-2.917,-122.014
 15:35:56.351,eb:33:2e:f9:57:b5, 2085-97-98 00:26:00:2055,0.048,0.012,1.003,-0.305,0,0.183,0.945,-2.917,-122.014
 15:35:56.351,eb:33:2e:f9:57:b5, 2085-97-100 00:24:00:2055,0.048,0.012,1.003,-0.244,0.061,0.183,0.945,-2.917,-122.009
 15:35:56.440,eb:33:2e:f9:57:b5, 2085-97-99 00:22:00:2057,0.048,0.011,1.004,-0.122,0.061,0.183,0.945,-2.917,-122.014
 15:35:56.440,eb:33:2e:f9:57:b5, 2085-97-98 00:26:00:2054,0.047,0.012,1.004,0,0.122,0.244,0.945,-2.917,-122.009
 15:35:56.440,eb:33:2e:f9:57:b5, 2085-97-98 00:24:00:2054,0.048,0.013,1.002,-0.061,0.061,0.122,0.945,-2.917,-122.009
 15:35:56.440,eb:33:2e:f9:57:b5, 2085-97-96 00:24:00:2053,0.048,0.012,1.003,0,0.183,0.183,0.945,-2.917,-122.009
 15:35:56.472,eb:33:2e:f9:57:b5, 2085-97-99 00:27:00:2053,0.048,0.013,1.003,0,0.122,0.122,0.945,-2.917,-122.009
 15:35:56.472,eb:33:2e:f9:57:b5, 2085-97-97 00:26:00:2051,0.047,0.013,1.002,0,0.122,0,0.945,-2.917,-122.009
 15:35:56.472,eb:33:2e:f9:57:b5, 2085-97-97 00:26:00:2051,0.046,0.012,1.001,0,0.183,0,0.945,-2.917,-122.009
 15:35:56.472,eb:33:2e:f9:57:b5, 2085-97-96 00:25:00:2051,0.046,0.013,1,-0.122,0.122,0,0.945,-2.917,-122.003
 15:35:56.472,eb:33:2e:f9:57:b5, 2085-97-94 00:24:00:2053,0.047,0.012,1.002,-0.122,0.122,0,0.945,-2.917,-122.003
 15:35:56.472,eb:33:2e:f9:57:b5, 2085-97-98 00:24:00:2054,0.047,0.011,1.004,0,0.122,0.122,0.945,-2.917,-122.003
 15:35:56.473,eb:33:2e:f9:57:b5, 2085-97-97 00:25:00:2052,0.046,0.012,1.001,0,0.122,0.122,0.945,-2.917,-122.003
 15:35:56.473,eb:33:2e:f9:57:b5, 2085-97-98 00:25:00:2053,0.047,0.012,1.002,0.061,0.061,0.183,0.945,-2.917,-122.003
 15:35:56.531,eb:33:2e:f9:57:b5, 2085-97-97 00:27:00:2052,0.047,0.013,1.002,0,0.183,0.244,0.939,-2.917,-122.003
 15:35:56.531,eb:33:2e:f9:57:b5, 2085-97-96 00:25:00:2053,0.047,0.013,1.001,0,0.183,0.183,0.939,-2.917,-121.998
 15:35:56.531,eb:33:2e:f9:57:b5, 2085-97-96 00:25:00:2052,0.046,0.013,1.002,-0.061,0.305,0.366,0.939,-2.917,-121.998
 15:35:56.531,eb:33:2e:f9:57:b5, 2085-97-95 00:27:00:2053,0.048,0.013,1.002,-0.122,0.183,0.366,0.939,-2.917,-121.998
 15:35:56.563,eb:33:2e:f9:57:b5, 2085-97-97 00:24:00:2057,0.048,0.013,1.003,-0.061,0.244,0.305,0.939,-2.917,-121.998
 15:35:56.563,eb:33:2e:f9:57:b5, 2085-97-96 00:25:00:2056,0.048,0.012,1.004,0,0.305,0.305,0.939,-2.917,-121.998
 15:35:56.563,eb:33:2e:f9:57:b5, 2085-97-96 00:23:00:2056,0.047,0.012,1.003,0.061,0.366,0.244,0.939,-2.917,-121.998
 15:35:56.563,eb:33:2e:f9:57:b5, 2085-97-97 00:27:00:2053,0.046,0.013,1.004,0.122,0.305,0.244,0.939,-2.917,-121.998
 15:35:56.591,eb:33:2e:f9:57:b5, 2085-97-94 00:25:00:2050,0.046,0.012,1.002,0.061,0.366,0.244,0.939,-2.917,-121.998
 15:35:56.591,eb:33:2e:f9:57:b5, 2085-97-96 00:25:00:2052,0.047,0.013,1.001,0.061,0.244,0.183,0.939,-2.917,-121.992
 15:35:56.591,eb:33:2e:f9:57:b5, 2085-97-97 00:26:00:2050,0.046,0.013,1.002,0,0.183,0.183,0.939,-2.917,-121.992
 15:35:56.591,eb:33:2e:f9:57:b5, 2085-97-95 00:25:00:2053,0.046,0.013,1.001,-0.061,0.061,0.061,0.939,-2.917,-121.992
 15:35:56.651,eb:33:2e:f9:57:b5, 2085-97-96 00:25:00:2053,0.046,0.011,1.003,0,0.061,0.122,0.939,-2.917,-121.992
 15:35:56.651,eb:33:2e:f9:57:b5, 2085-97-95 00:25:00:2051,0.05,0.012,1.002,0,0.061,0.183,0.939,-2.917,-121.992
 15:35:56.651,eb:33:2e:f9:57:b5, 2085-97-104 00:23:00:2061,0.036,0.013,1.004,0.061,-0.244,-0.122,0.939,-2.917,-121.992
 15:35:56.651,eb:33:2e:f9:57:b5, 2085-97-85 00:26:00:2048,0.044,0.009,0.999,0.183,0.122,0.549,0.939,-2.917,-121.992
 15:35:56.680,eb:33:2e:f9:57:b5, 2085-97-97 00:28:00:2050,0.051,0.013,1,0,-0.183,0.61,0.939,-2.917,-121.992
 15:35:56.680,eb:33:2e:f9:57:b5, 2085-97-96 00:24:00:2053,0.046,0.014,1.004,-0.061,0,0.427,0.939,-2.917,-121.987
 15:35:56.680,eb:33:2e:f9:57:b5, 2085-97-100 00:27:00:2055,0.049,0.012,1.001,0,-0.183,0.366,0.939,-2.917,-121.987
 15:35:56.680,eb:33:2e:f9:57:b5, 2085-97-97 00:25:00:2056,0.047,0.014,1.003,0,-0.061,0.183,0.939,-2.917,-121.987
 15:35:56.710,eb:33:2e:f9:57:b5, 2085-97-96 00:25:00:2056,0.047,0.011,1.004,0.061,-0.061,0.244,0.939,-2.917,-121.987
 15:35:56.710,eb:33:2e:f9:57:b5, 2085-97-99 00:29:00:2053,0.046,0.013,1.004,0.183,0,0.183,0.939,-2.917,-121.987
 15:35:56.710,eb:33:2e:f9:57:b5, 2085-97-93 00:25:00:2049,0.045,0.013,1.001,0.122,0,0.183,0.934,-2.917,-121.987
 15:35:56.710,eb:33:2e:f9:57:b5, 2085-97-93 00:24:00:2050,0.046,0.012,1.002,0.061,0,0.305,0.934,-2.917,-121.987
 15:35:56.772,eb:33:2e:f9:57:b5, 2085-97-95 00:29:00:2051,0.046,0.013,1.001,0,0,0.488,0.934,-2.917,-121.987
 15:35:56.772,eb:33:2e:f9:57:b5, 2085-97-93 00:26:00:2052,0.046,0.013,1.001,0,0,0.427,0.934,-2.917,-121.981
 15:35:56.772,eb:33:2e:f9:57:b5, 2085-97-88 00:22:00:2050,0.044,0.012,1.001,0,0,0.61,0.934,-2.917,-121.981
 15:35:56.772,eb:33:2e:f9:57:b5, 2085-97-92 00:24:00:2052,0.046,0.012,1.001,-0.061,-0.122,0.916,0.934,-2.917,-121.981
 15:35:56.802,eb:33:2e:f9:57:b5, 2085-97-97 00:23:00:2057,0.048,0.011,1.004,0,-0.061,1.221,0.934,-2.917,-121.981
 15:35:56.802,eb:33:2e:f9:57:b5, 2085-97-101 00:27:00:2057,0.047,0.013,1.003,0.183,0,1.282,0.939,-2.917,-121.965
 15:35:56.802,eb:33:2e:f9:57:b5, 2085-97-95 00:30:00:2052,0.046,0.014,1.002,0.183,0,1.16,0.945,-2.917,-121.954
 15:35:56.802,eb:33:2e:f9:57:b5, 2085-97-96 00:29:00:2051,0.048,0.014,1.001,0.061,0.061,0.977,0.945,-2.917,-121.943
 15:35:56.860,eb:33:2e:f9:57:b5, 2085-97-98 00:28:00:2051,0.048,0.014,1.002,0,0.061,0.854,0.945,-2.911,-121.932
 15:35:56.860,eb:33:2e:f9:57:b5, 2085-97-97 00:25:00:2052,0.046,0.013,1.002,-0.061,0.122,0.671,0.95,-2.911,-121.926
 15:35:56.860,eb:33:2e:f9:57:b5, 2085-97-97 00:27:00:2054,0.047,0.012,1.002,-0.061,0.122,0.671,0.95,-2.911,-121.915
 15:35:56.860,eb:33:2e:f9:57:b5, 2085-97-99 00:28:00:2053,0.047,0.013,1.002,-0.122,0.061,0.61,0.95,-2.911,-121.91
 15:35:56.890,eb:33:2e:f9:57:b5, 2085-97-95 00:25:00:2054,0.048,0.012,1.002,-0.183,0.061,0.427,0.95,-2.906,-121.904
 15:35:56.890,eb:33:2e:f9:57:b5, 2085-97-92 00:24:00:2052,0.044,0.012,1.003,-0.122,0.122,0.305,0.95,-2.906,-121.899
 15:35:56.890,eb:33:2e:f9:57:b5, 2085-97-94 00:28:00:2049,0.047,0.013,1,-0.244,0,0.549,0.95,-2.906,-121.893
 15:35:56.890,eb:33:2e:f9:57:b5, 2085-97-95 00:23:00:2053,0.045,0.013,1.002,-0.305,0,0.427,0.945,-2.906,-121.888
 15:35:56.921,eb:33:2e:f9:57:b5, 2085-97-95 00:22:00:2055,0.047,0.011,1.004,-0.183,0.061,0.671,0.945,-2.906,-121.882
 15:35:56.921,eb:33:2e:f9:57:b5, 2085-97-99 00:22:00:2058,0.048,0.011,1.004,-0.061,-0.061,0.793,0.945,-2.906,-121.877
 15:35:56.921,eb:33:2e:f9:57:b5, 2085-97-100 00:25:00:2057,0.048,0.012,1.004,0,0,0.793,0.95,-2.906,-121.866
 15:35:56.921,eb:33:2e:f9:57:b5, 2085-97-97 00:27:00:2051,0.048,0.013,1.003,0,0.061,0.488,0.95,-2.906,-121.86
 15:35:56.952,eb:33:2e:f9:57:b5, 2085-97-99 00:26:00:2053,0.047,0.013,1.003,0,-0.061,0.427,0.956,-2.906,-121.855
 15:35:56.952,eb:33:2e:f9:57:b5, 2085-97-96 00:27:00:2050,0.048,0.014,1.001,0,0,0.305,0.956,-2.906,-121.849
 15:35:56.952,eb:33:2e:f9:57:b5, 2085-113-81 00:51:62:-563,0.048,0.013,1.001,-0.122,0,0.122,0.956,-2.9,-121.849
 15:35:56.952,eb:33:2e:f9:57:b5, 2085-97-98 00:24:00:2053,0.047,0.012,1.003,-0.122,0.061,0.122,0.956,-2.9,-121.844
 15:35:57.011,eb:33:2e:f9:57:b5, 2085-97-97 00:27:00:2050,0.047,0.012,1.003,-0.122,0.061,0.183,0.956,-2.9,-121.844
 15:35:57.011,eb:33:2e:f9:57:b5, 2085-97-94 00:23:00:2051,0.046,0.013,1.001,-0.244,0,0.061,0.956,-2.9,-121.844
 15:35:57.011,eb:33:2e:f9:57:b5, 2085-97-95 00:21:00:2056,0.046,0.011,1.002,-0.122,0,0.122,0.956,-2.9,-121.838
 15:35:57.011,eb:33:2e:f9:57:b5, 2085-97-95 00:23:00:2055,0.047,0.01,1.004,0,0,0.427,0.956,-2.9,-121.838
 15:35:57.041,eb:33:2e:f9:57:b5, 2085-97-96 00:24:00:2054,0.048,0.012,1.003,0.061,0,0.427,0.961,-2.9,-121.833
 15:35:57.041,eb:33:2e:f9:57:b5, 2085-97-98 00:25:00:2056,0.048,0.012,1.003,0.122,0.061,0.488,0.961,-2.9,-121.827
 15:35:57.041,eb:33:2e:f9:57:b5, 2085-97-97 00:27:00:2051,0.046,0.013,1.002,0.061,0.061,0.366,0.967,-2.9,-121.822
 15:35:57.041,eb:33:2e:f9:57:b5, 2085-97-97 00:27:00:2051,0.047,0.013,1.001,-0.061,0.061,0.183,0.967,-2.895,-121.822
 15:35:57.072,eb:33:2e:f9:57:b5, 2085-97-96 00:28:00:2051,0.047,0.013,1.002,-0.061,0.061,0.061,0.967,-2.895,-121.816
 15:35:57.072,eb:33:2e:f9:57:b5, 2085-97-97 00:24:00:2053,0.047,0.013,1.001,-0.122,0,0,0.967,-2.895,-121.816
 15:35:57.072,eb:33:2e:f9:57:b5, 2085-97-94 00:22:00:2055,0.046,0.011,1.002,-0.061,0.061,0.061,0.972,-2.895,-121.816
 15:35:57.072,eb:33:2e:f9:57:b5, 2085-97-93 00:24:00:2053,0.046,0.011,1.003,0,0,0.122,0.972,-2.895,-121.816
 15:35:57.130,eb:33:2e:f9:57:b5, 2085-97-94 00:24:00:2052,0.047,0.012,1.001,0,0,0.183,0.972,-2.895,-121.811
 15:35:57.130,eb:33:2e:f9:57:b5, 2085-97-96 00:22:00:2057,0.047,0.011,1.003,0,-0.061,0.183,0.972,-2.895,-121.811
 15:35:57.130,eb:33:2e:f9:57:b5, 2085-97-97 00:26:00:2054,0.047,0.011,1.004,0.122,0,0.183,0.978,-2.895,-121.805
 15:35:57.130,eb:33:2e:f9:57:b5, 2085-97-97 00:25:00:2052,0.047,0.013,1.002,0.122,0,0.061,0.983,-2.895,-121.805
 15:35:57.162,eb:33:2e:f9:57:b5, 2085-97-99 00:26:00:2052,0.047,0.012,1.002,0,-0.061,-0.061,0.983,-2.895,-121.805
 15:35:57.162,eb:33:2e:f9:57:b5, 2085-97-97 00:24:00:2052,0.047,0.012,1.002,0,0,-0.061,0.989,-2.895,-121.805
 15:35:57.162,eb:33:2e:f9:57:b5, 2085-97-98 00:24:00:2054,0.048,0.011,1.002,0,0,0,0.989,-2.895,-121.805
 15:35:57.162,eb:33:2e:f9:57:b5, 2085-97-95 00:25:00:2053,0.047,0.012,1.002,0.061,0,-0.061,0.989,-2.895,-121.805
 15:35:57.192,eb:33:2e:f9:57:b5, 2085-97-97 00:23:00:2055,0.047,0.011,1.003,0,0,-0.061,0.994,-2.895,-121.805
 15:35:57.192,eb:33:2e:f9:57:b5, 2085-97-93 00:26:00:2052,0.045,0.012,1.002,0.061,0,0,1,-2.895,-121.805
 15:35:57.192,eb:33:2e:f9:57:b5, 2085-97-94 00:27:00:2049,0.046,0.012,1.001,0,0,0,1,-2.895,-121.805
 15:35:57.192,eb:33:2e:f9:57:b5, 2085-97-96 00:25:00:2053,0.047,0.013,1.001,0,-0.061,0,1.005,-2.895,-121.805
 15:35:57.282,eb:33:2e:f9:57:b5, 2085-97-99 00:24:00:2057,0.049,0.011,1.004,0.061,0,0,1.005,-2.895,-121.805
 15:35:57.282,eb:33:2e:f9:57:b5, 2085-97-97 00:25:00:2056,0.046,0.013,1.004,0.122,0,0,1.011,-2.895,-121.805
 15:35:57.282,eb:33:2e:f9:57:b5, 2085-97-98 00:26:00:2054,0.048,0.012,1.003,0.183,0,0,1.016,-2.895,-121.805
 15:35:57.282,eb:33:2e:f9:57:b5, 2085-97-92 00:25:00:2050,0.044,0.013,1.002,0.183,0,-0.122,1.016,-2.895,-121.805
 15:35:57.282,eb:33:2e:f9:57:b5, 2085-97-93 00:26:00:2050,0.046,0.012,1.001,0.183,0.061,0,1.022,-2.895,-121.805
 15:35:57.282,eb:33:2e:f9:57:b5, 2085-97-96 00:26:00:2052,0.047,0.013,1.001,0,0,0,1.027,-2.889,-121.805
 15:35:57.282,eb:33:2e:f9:57:b5, 2085-97-95 00:26:00:2052,0.047,0.013,1.002,0,0.061,0,1.027,-2.889,-121.805
 15:35:57.282,eb:33:2e:f9:57:b5, 2085-97-98 00:25:00:2052,0.048,0.014,1.001,0,0.061,0,1.027,-2.889,-121.805
 15:35:57.311,eb:33:2e:f9:57:b5, 2085-97-96 00:24:00:2054,0.046,0.012,1.002,-0.061,0.061,-0.122,1.033,-2.889,-121.805
 15:35:57.311,eb:33:2e:f9:57:b5, 2085-97-97 00:24:00:2054,0.048,0.011,1.003,0,0,0,1.033,-2.884,-121.805
 15:35:57.311,eb:33:2e:f9:57:b5, 2085-97-95 00:24:00:2054,0.045,0.013,1.002,0,0.122,0,1.033,-2.884,-121.805
 15:35:57.311,eb:33:2e:f9:57:b5, 2085-97-93 00:24:00:2051,0.047,0.012,1.002,0,0,0,1.038,-2.884,-121.805
 15:35:57.372,eb:33:2e:f9:57:b5, 2085-97-99 00:25:00:2052,0.048,0.012,1.001,0.061,-0.061,0.061,1.038,-2.884,-121.805
 15:35:57.372,eb:33:2e:f9:57:b5, 2085-97-97 00:25:00:2053,0.046,0.013,1.002,0.061,-0.061,0,1.044,-2.884,-121.805
 15:35:57.372,eb:33:2e:f9:57:b5, 2085-97-96 00:25:00:2054,0.048,0.012,1.003,0,0,0,1.044,-2.884,-121.8
 15:35:57.372,eb:33:2e:f9:57:b5, 2085-97-99 00:25:00:2055,0.047,0.013,1.004,0.122,0,0,1.049,-2.884,-121.8
 15:35:57.400,eb:33:2e:f9:57:b5, 2085-97-97 00:25:00:2054,0.046,0.012,1.003,0.244,0,0,1.055,-2.884,-121.8
 15:35:57.400,eb:33:2e:f9:57:b5, 2085-97-93 00:26:00:2051,0.045,0.012,1.002,0.244,0.061,0.122,1.06,-2.884,-121.8
 15:35:57.400,eb:33:2e:f9:57:b5, 2085-97-91 00:26:00:2050,0.045,0.013,1,0.183,0,0.183,1.06,-2.884,-121.8
 15:35:57.400,eb:33:2e:f9:57:b5, 2085-97-93 00:28:00:2050,0.046,0.012,1,0.122,0,0.366,1.066,-2.884,-121.794
 15:35:57.432,eb:33:2e:f9:57:b5, 2085-97-98 00:29:00:2050,0.048,0.015,1.001,0,0,0.366,1.071,-2.884,-121.789
 15:35:57.432,eb:33:2e:f9:57:b5, 2085-97-98 00:27:00:2052,0.048,0.014,1.001,-0.061,0,0.183,1.071,-2.884,-121.789
 15:35:57.432,eb:33:2e:f9:57:b5, 2085-97-97 00:25:00:2052,0.046,0.013,1.003,-0.122,0.061,0.122,1.071,-2.878,-121.789
 15:35:57.432,eb:33:2e:f9:57:b5, 2085-97-94 00:25:00:2053,0.045,0.012,1.003,0,0,0.122,1.071,-2.878,-121.783
 15:35:57.491,eb:33:2e:f9:57:b5, 2085-97-95 00:26:00:2052,0.045,0.012,1.003,0,0.061,0.244,1.077,-2.878,-121.783
 15:35:57.491,eb:33:2e:f9:57:b5, 2085-97-95 00:26:00:2052,0.047,0.012,1.001,0,0,0.366,1.077,-2.878,-121.778
 15:35:57.491,eb:33:2e:f9:57:b5, 2085-97-96 00:27:00:2050,0.047,0.013,1.003,0,0,0.488,1.077,-2.878,-121.772
 15:35:57.492,eb:33:2e:f9:57:b5, 2085-97-98 00:27:00:2053,0.049,0.013,1.002,-0.061,0,0.427,1.077,-2.878,-121.767
 15:35:57.521,eb:33:2e:f9:57:b5, 2085-97-102 00:28:00:2055,0.049,0.013,1.003,-0.122,0,0.244,1.082,-2.878,-121.767
 15:35:57.521,eb:33:2e:f9:57:b5, 2085-97-97 00:24:00:2054,0.047,0.013,1.003,-0.122,0.122,0.122,1.082,-2.878,-121.761
 15:35:57.521,eb:33:2e:f9:57:b5, 2085-97-98 00:25:00:2055,0.047,0.012,1.004,-0.061,0.061,0,1.082,-2.878,-121.761
 15:35:57.521,eb:33:2e:f9:57:b5, 2085-97-96 00:25:00:2053,0.046,0.012,1.003,0,0.183,0,1.082,-2.873,-121.761
 15:35:57.551,eb:33:2e:f9:57:b5, 2085-97-94 00:24:00:2053,0.045,0.013,1.002,0,0.122,0.061,1.082,-2.873,-121.761
 15:35:57.551,eb:33:2e:f9:57:b5, 2085-97-94 00:25:00:2053,0.047,0.012,1.002,0,0.061,0.183,1.088,-2.873,-121.761
 15:35:57.551,eb:33:2e:f9:57:b5, 2085-97-97 00:27:00:2054,0.048,0.012,1.002,0.061,0.061,0.305,1.088,-2.873,-121.756
 15:35:57.551,eb:33:2e:f9:57:b5, 2085-97-98 00:26:00:2052,0.048,0.013,1.003,0.061,0.061,0.305,1.093,-2.867,-121.75
 15:35:57.611,eb:33:2e:f9:57:b5, 2085-97-101 00:28:00:2054,0.048,0.013,1.001,0,0.061,0.061,1.093,-2.867,-121.75
 15:35:57.611,eb:33:2e:f9:57:b5, 2085-97-96 00:25:00:2053,0.047,0.013,1.002,-0.061,0.061,-0.061,1.093,-2.867,-121.75
 15:35:57.611,eb:33:2e:f9:57:b5, 2085-97-94 00:26:00:2052,0.044,0.012,1.003,-0.061,0.061,-0.061,1.099,-2.867,-121.75
 15:35:57.611,eb:33:2e:f9:57:b5, 2085-97-91 00:22:00:2054,0.046,0.013,1.001,-0.122,0,0,1.099,-2.867,-121.75
 15:35:57.641,eb:33:2e:f9:57:b5, 2085-97-93 00:23:00:2053,0.045,0.01,1.003,0.061,0.061,0.183,1.099,-2.867,-121.75
 15:35:57.641,eb:33:2e:f9:57:b5, 2085-97-95 00:26:00:2054,0.048,0.012,1.003,0.122,-0.122,0.305,1.104,-2.867,-121.745
 15:35:57.641,eb:33:2e:f9:57:b5, 2085-97-98 00:27:00:2054,0.048,0.013,1.003,0.122,-0.061,0.244,1.104,-2.867,-121.74
 15:35:57.641,eb:33:2e:f9:57:b5, 2085-97-96 00:27:00:2051,0.046,0.013,1.002,0.061,0,0.244,1.11,-2.867,-121.74
 15:35:57.701,eb:33:2e:f9:57:b5, 2085-97-95 00:26:00:2051,0.047,0.014,1.002,0.061,-0.061,0.122,1.11,-2.867,-121.734
 15:35:57.701,eb:33:2e:f9:57:b5, 2085-97-96 00:24:00:2054,0.046,0.013,1.002,-0.061,-0.061,0.122,1.115,-2.867,-121.734
 15:35:57.701,eb:33:2e:f9:57:b5, 2085-97-95 00:26:00:2052,0.046,0.012,1.003,0,0,0.183,1.115,-2.867,-121.734
 15:35:57.701,eb:33:2e:f9:57:b5, 2085-97-95 00:26:00:2052,0.046,0.012,1.001,0,-0.061,0.305,1.115,-2.867,-121.729
 15:35:57.731,eb:33:2e:f9:57:b5, 2085-97-97 00:25:00:2053,0.047,0.012,1.002,0.061,-0.122,0.305,1.121,-2.873,-121.729
 15:35:57.731,eb:33:2e:f9:57:b5, 2085-97-96 00:26:00:2052,0.047,0.013,1.002,0,-0.122,0.305,1.121,-2.873,-121.723
 15:35:57.731,eb:33:2e:f9:57:b5, 2085-97-95 00:28:00:2052,0.046,0.014,1,0,-0.122,0.183,1.126,-2.873,-121.718
 15:35:57.731,eb:33:2e:f9:57:b5, 2085-97-95 00:25:00:2051,0.047,0.013,1.002,-0.061,-0.122,0.122,1.126,-2.873,-121.718
 15:35:57.761,eb:33:2e:f9:57:b5, 2085-97-96 00:27:00:2051,0.047,0.014,1.001,-0.183,-0.122,0.061,1.126,-2.878,-121.718
 15:35:57.761,eb:33:2e:f9:57:b5, 2085-97-97 00:25:00:2052,0.047,0.013,1.002,-0.183,-0.122,0.122,1.126,-2.878,-121.712
 15:35:57.761,eb:33:2e:f9:57:b5, 2085-97-96 00:23:00:2056,0.046,0.012,1.003,-0.183,-0.122,0.122,1.126,-2.878,-121.712
 15:35:57.761,eb:33:2e:f9:57:b5, 2085-113-58 00:123:223:-5250,0.047,0.011,1.004,0,-0.061,0.244,1.126,-2.878,-121.707
 15:35:57.761,eb:33:2e:f9:57:b5, 2085-97-95 00:24:00:2055,0.046,0.012,1.004,0,-0.061,0.305,1.132,-2.878,-121.707
 15:35:57.823,eb:33:2e:f9:57:b5, 2085-97-95 00:26:00:2051,0.045,0.012,1.002,0,0,0.366,1.132,-2.878,-121.701
 15:35:57.823,eb:33:2e:f9:57:b5, 2085-97-92 00:26:00:2050,0.047,0.013,1,-0.061,-0.061,0.427,1.132,-2.878,-121.707
 15:35:57.823,eb:33:2e:f9:57:b5, 2085-97-96 00:28:00:2049,0.047,0.013,1,-0.183,0,0.427,1.088,-2.884,-121.707
 15:35:57.823,eb:33:2e:f9:57:b5, 2085-97-94 00:26:00:2050,0.048,0.012,1.001,-0.305,0.122,0.549,1.088,-2.884,-121.712
 15:35:57.851,eb:33:2e:f9:57:b5, 2085-97-102 00:28:00:2054,0.049,0.013,1.002,-0.366,0,0.488,1.082,-2.884,-121.712
 15:35:57.851,eb:33:2e:f9:57:b5, 2085-97-98 00:25:00:2055,0.048,0.012,1.003,-0.305,0.061,0.427,1.082,-2.884,-121.712
 15:35:57.851,eb:33:2e:f9:57:b5, 2085-97-97 00:26:00:2052,0.045,0.013,1.001,-0.305,0.061,0.305,1.082,-2.884,-121.712
 15:35:57.851,eb:33:2e:f9:57:b5, 2085-97-94 00:25:00:2051,0.047,0.013,1.001,-0.366,0.122,0.305,1.082,-2.884,-121.718
 15:35:57.910,eb:33:2e:f9:57:b5, 2085-97-96 00:25:00:2052,0.045,0.012,1.002,-0.366,0.122,0.366,1.082,-2.884,-121.718
 15:35:57.910,eb:33:2e:f9:57:b5, 2085-97-93 00:22:00:2052,0.046,0.011,1.001,-0.427,0,0.488,1.082,-2.884,-121.718
 15:35:57.910,eb:33:2e:f9:57:b5, 2085-97-98 00:24:00:2054,0.049,0.011,1.002,-0.366,0,0.671,1.082,-2.884,-121.718
 15:35:57.910,eb:33:2e:f9:57:b5, 2085-97-101 00:24:00:2056,0.049,0.012,1.003,-0.366,0,0.671,1.082,-2.884,-121.723
 15:35:57.940,eb:33:2e:f9:57:b5, 2085-97-100 00:25:00:2055,0.049,0.012,1.004,-0.244,0,0.488,1.077,-2.884,-121.723
 15:35:57.941,eb:33:2e:f9:57:b5, 2085-97-100 00:24:00:2056,0.048,0.012,1.003,-0.183,0.122,0.244,1.077,-2.884,-121.723
 15:35:57.941,eb:33:2e:f9:57:b5, 2085-97-96 00:25:00:2055,0.047,0.011,1.003,-0.183,0.122,0.244,1.077,-2.884,-121.723
 15:35:57.941,eb:33:2e:f9:57:b5, 2085-97-95 00:22:00:2052,0.046,0.012,1.003,-0.122,0.183,0.183,1.077,-2.884,-121.729
 15:35:57.971,eb:33:2e:f9:57:b5, 2085-97-93 00:23:00:2051,0.045,0.012,1.001,-0.122,0.122,0.183,1.077,-2.889,-121.729
 15:35:57.971,eb:33:2e:f9:57:b5, 2085-97-95 00:23:00:2050,0.047,0.011,1.001,-0.122,0.061,0.427,1.077,-2.889,-121.729
 15:35:57.971,eb:33:2e:f9:57:b5, 2085-97-95 00:26:00:2050,0.046,0.012,1.001,-0.244,0.061,0.366,1.077,-2.889,-121.729
 15:35:57.971,eb:33:2e:f9:57:b5, 2085-97-97 00:27:00:2050,0.047,0.013,1.001,-0.305,0,0.305,1.077,-2.889,-121.734
 15:35:58.001,eb:33:2e:f9:57:b5, 2085-97-96 00:25:00:2054,0.048,0.012,1.002,-0.366,0,0.122,1.071,-2.889,-121.734
 15:35:58.001,eb:33:2e:f9:57:b5, 2085-97-97 00:23:00:2055,0.048,0.012,1.004,-0.305,0,0.122,1.071,-2.889,-121.734
 15:35:58.001,eb:33:2e:f9:57:b5, 2085-97-97 00:24:00:2055,0.048,0.011,1.003,-0.305,0.061,0.183,1.071,-2.889,-121.734
 15:35:58.001,eb:33:2e:f9:57:b5, 2085-97-95 00:23:00:2054,0.046,0.012,1.002,-0.244,0.061,0.122,1.071,-2.889,-121.74
 15:35:58.060,eb:33:2e:f9:57:b5, 2085-97-92 00:22:00:2052,0.046,0.011,1.002,-0.244,0,0.122,1.071,-2.889,-121.74
 15:35:58.060,eb:33:2e:f9:57:b5, 2085-97-95 00:22:00:2052,0.048,0.011,1.002,-0.183,-0.061,0.183,1.071,-2.889,-121.74
 15:35:58.060,eb:33:2e:f9:57:b5, 2085-97-98 00:23:00:2055,0.047,0.01,1.003,-0.244,-0.061,0.183,1.066,-2.889,-121.74
 15:35:58.060,eb:33:2e:f9:57:b5, 2085-97-97 00:23:00:2053,0.048,0.011,1.003,-0.183,0,0.122,1.066,-2.889,-121.745
 15:35:58.091,eb:33:2e:f9:57:b5, 2085-97-98 00:21:00:2053,0.046,0.01,1.003,-0.183,0,0,1.066,-2.889,-121.745
 15:35:58.091,eb:33:2e:f9:57:b5, 2085-97-93 00:21:00:2055,0.046,0.01,1.004,-0.061,0.061,0.183,1.066,-2.889,-121.745
 15:35:58.091,eb:33:2e:f9:57:b5, 2085-97-96 00:18:00:2053,0.048,0.011,1.002,0,0,0.244,1.066,-2.889,-121.745
 15:35:58.091,eb:33:2e:f9:57:b5, 2085-97-98 00:21:00:2054,0.048,0.009,1.004,0,0,0.366,1.066,-2.889,-121.75
 15:35:58.122,eb:33:2e:f9:57:b5, 2085-97-97 00:23:00:2051,0.048,0.012,1.002,0.061,0,0.366,1.06,-2.889,-121.75
 15:35:58.122,eb:33:2e:f9:57:b5, 2085-97-99 00:24:00:2053,0.047,0.012,1.001,0,0,0.183,1.06,-2.889,-121.75
 15:35:58.122,eb:33:2e:f9:57:b5, 2085-97-96 00:26:00:2049,0.046,0.012,1.001,-0.061,0,0.061,1.06,-2.889,-121.75
 15:35:58.123,eb:33:2e:f9:57:b5, 2085-97-95 00:22:00:2051,0.048,0.012,1,-0.183,0,0.061,1.06,-2.889,-121.756
 15:35:58.180,eb:33:2e:f9:57:b5, 2085-97-97 00:22:00:2053,0.047,0.011,1.002,-0.305,0,0,1.06,-2.889,-121.756
 15:35:58.180,eb:33:2e:f9:57:b5, 2085-97-97 00:21:00:2054,0.047,0.011,1.003,-0.244,0,0,1.06,-2.889,-121.756
 15:35:58.180,eb:33:2e:f9:57:b5, 2085-97-96 00:23:00:2052,0.047,0.011,1.002,-0.183,0,0,1.055,-2.889,-121.756
 15:35:58.180,eb:33:2e:f9:57:b5, 2085-97-98 00:21:00:2055,0.048,0.011,1.002,-0.122,0,0.061,1.055,-2.889,-121.756
 15:35:58.211,eb:33:2e:f9:57:b5, 2085-97-98 00:19:00:2056,0.047,0.011,1.003,-0.061,-0.061,0,1.055,-2.889,-121.756
 15:35:58.211,eb:33:2e:f9:57:b5, 2085-97-98 00:23:00:2053,0.048,0.01,1.003,0,0,0,1.055,-2.889,-121.761
 15:35:58.211,eb:33:2e:f9:57:b5, 2085-97-97 00:23:00:2055,0.047,0.011,1.002,0,0,-0.061,1.055,-2.889,-121.761
 15:35:58.211,eb:33:2e:f9:57:b5, 2085-97-98 00:24:00:2053,0.049,0.011,1.003,0,0,0,1.055,-2.889,-121.761
 15:35:58.240,eb:33:2e:f9:57:b5, 2085-97-97 00:23:00:2053,0.047,0.012,1.003,0,0,-0.122,1.049,-2.889,-121.761
 15:35:58.240,eb:33:2e:f9:57:b5, 2085-97-98 00:24:00:2050,0.045,0.011,1.001,0,0,-0.305,1.049,-2.889,-121.767
 15:35:58.240,eb:33:2e:f9:57:b5, 2085-97-95 00:20:00:2052,0.046,0.011,1.001,-0.122,0,-0.366,1.049,-2.889,-121.767
 15:35:58.240,eb:33:2e:f9:57:b5, 2085-97-93 00:21:00:2050,0.043,0.01,1.002,-0.061,0.061,-0.122,1.049,-2.889,-121.767
 15:35:58.301,eb:33:2e:f9:57:b5, 2085-97-85 00:21:00:2049,0.043,0.011,1,-0.061,0,0,1.049,-2.889,-121.767
 15:35:58.301,eb:33:2e:f9:57:b5, 2085-97-93 00:20:00:2052,0.046,0.01,1.001,-0.061,-0.061,0.305,1.049,-2.889,-121.767
 15:35:58.301,eb:33:2e:f9:57:b5, 2085-97-94 00:22:00:2051,0.047,0.01,1.002,0,-0.061,0.61,1.044,-2.889,-121.767
 15:35:58.301,eb:33:2e:f9:57:b5, 2085-97-98 00:22:00:2052,0.049,0.011,1.001,-0.122,-0.122,0.488,1.044,-2.889,-121.772
 15:35:58.332,eb:33:2e:f9:57:b5, 2085-97-102 00:24:00:2053,0.05,0.011,1.003,-0.183,-0.061,0.427,1.044,-2.889,-121.772
 15:35:58.332,eb:33:2e:f9:57:b5, 2085-97-101 00:18:00:2059,0.049,0.011,1.003,-0.183,-0.183,0.061,1.044,-2.889,-121.772
 15:35:58.332,eb:33:2e:f9:57:b5, 2085-97-100 00:21:00:2057,0.049,0.009,1.005,0,-0.061,0.061,1.044,-2.889,-121.772
 15:35:58.332,eb:33:2e:f9:57:b5, 2085-113-58 00:64:222:-5460,0.048,0.011,1.004,0,-0.061,0,1.044,-2.889,-121.772
 15:35:58.391,eb:33:2e:f9:57:b5, 2085-97-94 00:21:00:2052,0.045,0.011,1.003,0,-0.122,-0.183,1.038,-2.889,-121.772
 15:35:58.391,eb:33:2e:f9:57:b5, 2085-97-95 00:19:00:2052,0.046,0.009,1.002,0.061,-0.122,-0.061,1.038,-2.889,-121.778
 15:35:58.391,eb:33:2e:f9:57:b5, 2085-97-96 00:22:00:2052,0.047,0.01,1.002,0.061,-0.061,0.061,1.038,-2.889,-121.778
 15:35:58.391,eb:33:2e:f9:57:b5, 2085-97-97 00:21:00:2055,0.048,0.011,1.003,0.122,0,0.183,1.038,-2.889,-121.778
 15:35:58.422,eb:33:2e:f9:57:b5, 2085-97-99 00:24:00:2053,0.049,0.011,1.003,0.122,0,0.122,1.038,-2.889,-121.778
 15:35:58.422,eb:33:2e:f9:57:b5, 2085-97-100 00:22:00:2055,0.049,0.011,1.002,0.061,0,0,1.038,-2.889,-121.778
 15:35:58.422,eb:33:2e:f9:57:b5, 2085-97-100 00:25:00:2052,0.047,0.011,1.002,0.061,0,-0.061,1.033,-2.889,-121.778
 15:35:58.422,eb:33:2e:f9:57:b5, 2085-97-94 00:24:00:2049,0.045,0.011,1.001,0,0.061,-0.183,1.033,-2.889,-121.783
 15:35:58.480,eb:33:2e:f9:57:b5, 2085-97-97 00:21:00:2051,0.048,0.01,1.001,-0.061,0,-0.061,1.033,-2.889,-121.783
 15:35:58.480,eb:33:2e:f9:57:b5, 2085-97-98 00:21:00:2054,0.047,0.011,1.003,0,0.122,-0.061,1.033,-2.889,-121.783
 15:35:58.480,eb:33:2e:f9:57:b5, 2085-97-94 00:22:00:2053,0.045,0.011,1.002,0,0.061,0,1.033,-2.895,-121.783
 15:35:58.480,eb:33:2e:f9:57:b5, 2085-97-92 00:21:00:2050,0.047,0.01,1.001,0,0.061,0.122,1.033,-2.895,-121.783
 15:35:58.482,eb:33:2e:f9:57:b5, 2085-97-99 00:22:00:2054,0.048,0.009,1.002,0,0,0.366,1.033,-2.895,-121.783
 15:35:58.482,eb:33:2e:f9:57:b5, 2085-97-98 00:21:00:2052,0.048,0.01,1.002,0.122,0.122,0.427,1.033,-2.895,-121.789
 15:35:58.482,eb:33:2e:f9:57:b5, 2085-97-97 00:22:00:2053,0.048,0.011,1.002,0.122,0.122,0.305,1.027,-2.895,-121.789
 15:35:58.482,eb:33:2e:f9:57:b5, 2085-97-98 00:24:00:2053,0.048,0.011,1.002,0.061,0.122,0.305,1.027,-2.895,-121.789
 15:35:58.541,eb:33:2e:f9:57:b5, 2085-97-98 00:24:00:2052,0.047,0.011,1.002,0,0.122,0.183,1.027,-2.895,-121.789
 15:35:58.541,eb:33:2e:f9:57:b5, 2085-97-99 00:22:00:2054,0.048,0.011,1.003,0,0.183,0.122,1.027,-2.895,-121.789
 15:35:58.541,eb:33:2e:f9:57:b5, 2085-97-98 00:21:00:2053,0.046,0.01,1.002,0,0.183,0.061,1.027,-2.895,-121.789
 15:35:58.541,eb:33:2e:f9:57:b5, 2085-97-96 00:22:00:2052,0.047,0.01,1.002,0.061,0.183,0.183,1.027,-2.895,-121.794
 15:35:58.601,eb:33:2e:f9:57:b5, 2085-97-95 00:24:00:2051,0.046,0.011,1.002,0,0.183,0.183,1.022,-2.895,-121.794
 15:35:58.601,eb:33:2e:f9:57:b5, 2085-97-95 00:24:00:2049,0.046,0.012,1.001,0,0.183,0.183,1.022,-2.895,-121.794
 15:35:58.601,eb:33:2e:f9:57:b5, 2085-97-97 00:23:00:2052,0.047,0.012,1.002,-0.061,0.061,0.244,1.022,-2.895,-121.794
 15:35:58.601,eb:33:2e:f9:57:b5, 2085-97-97 00:23:00:2053,0.048,0.011,1.002,-0.061,0.183,0.305,1.022,-2.895,-121.794
 15:35:58.605,eb:33:2e:f9:57:b5, 2085-97-99 00:22:00:2054,0.047,0.011,1.003,-0.122,0.122,0.305,1.022,-2.895,-121.794
 15:35:58.605,eb:33:2e:f9:57:b5, 2085-97-99 00:23:00:2056,0.049,0.011,1.002,-0.122,0.061,0.305,1.022,-2.895,-121.8
 15:35:58.605,eb:33:2e:f9:57:b5, 2085-97-97 00:23:00:2055,0.047,0.011,1.004,-0.061,0.183,0.183,1.022,-2.895,-121.8
 15:35:58.605,eb:33:2e:f9:57:b5, 2085-97-94 00:21:00:2053,0.047,0.011,1.002,-0.061,0.122,0,1.022,-2.895,-121.8
 15:35:58.662,eb:33:2e:f9:57:b5, 2085-97-97 00:20:00:2055,0.045,0.01,1.003,0,0.122,0.061,1.016,-2.895,-121.8
 15:35:58.662,eb:33:2e:f9:57:b5, 2085-97-92 00:22:00:2051,0.045,0.01,1.001,0,0.122,0.122,1.016,-2.895,-121.8
 15:35:58.662,eb:33:2e:f9:57:b5, 2085-97-94 00:22:00:2050,0.047,0.011,1.001,-0.061,0,0.183,1.016,-2.895,-121.8
 15:35:58.662,eb:33:2e:f9:57:b5, 2085-97-95 00:23:00:2050,0.047,0.01,1.001,-0.061,0,0.244,1.016,-2.895,-121.8
 15:35:58.692,eb:33:2e:f9:57:b5, 2085-97-99 00:22:00:2054,0.048,0.012,1.001,-0.183,0,0.244,1.016,-2.895,-121.8
 15:35:58.692,eb:33:2e:f9:57:b5, 2085-97-100 00:21:00:2057,0.048,0.011,1.003,-0.122,0,0.183,1.016,-2.895,-121.805
 15:35:58.692,eb:33:2e:f9:57:b5, 2085-97-95 00:21:00:2055,0.045,0.01,1.005,-0.061,0.122,0.183,1.016,-2.895,-121.805
 15:35:58.692,eb:33:2e:f9:57:b5, 2085-97-92 00:22:00:2053,0.046,0.011,1.003,-0.061,0.061,0.183,1.016,-2.895,-121.805
 15:35:58.723,eb:33:2e:f9:57:b5, 2085-97-94 00:21:00:2053,0.047,0.01,1.002,0,0.061,0.244,1.011,-2.895,-121.805
 15:35:58.723,eb:33:2e:f9:57:b5, 2085-97-95 00:21:00:2055,0.047,0.011,1.003,0,0.061,0.305,1.011,-2.895,-121.805
 15:35:58.723,eb:33:2e:f9:57:b5, 2085-97-97 00:22:00:2052,0.047,0.011,1.002,0,0.061,0.183,1.011,-2.895,-121.805
 15:35:58.723,eb:33:2e:f9:57:b5, 2085-97-98 00:23:00:2051,0.048,0.011,1.001,-0.061,0,0.122,1.011,-2.895,-121.811
 15:35:58.781,eb:33:2e:f9:57:b5, 2085-97-98 00:21:00:2055,0.047,0.01,1.002,-0.061,0.061,0.061,1.011,-2.895,-121.811
 15:35:58.781,eb:33:2e:f9:57:b5, 2085-97-97 00:23:00:2054,0.046,0.01,1.003,-0.061,0.122,0.122,1.011,-2.895,-121.811
 15:35:58.781,eb:33:2e:f9:57:b5, 2085-97-95 00:17:00:2057,0.047,0.01,1.003,0,0.122,0,1.005,-2.895,-121.811
 15:35:58.781,eb:33:2e:f9:57:b5, 2085-97-96 00:21:00:2053,0.047,0.009,1.004,0.122,0.122,0.183,1.005,-2.895,-121.811
 15:35:58.811,eb:33:2e:f9:57:b5, 2085-97-95 00:21:00:2054,0.047,0.01,1.002,0.122,0,0.122,1.005,-2.895,-121.811
 15:35:58.811,eb:33:2e:f9:57:b5, 2085-97-98 00:23:00:2052,0.046,0.011,1.002,0.122,0.061,0.122,1.005,-2.895,-121.811
 15:35:58.811,eb:33:2e:f9:57:b5, 2085-97-96 00:23:00:2051,0.047,0.011,1.001,0,0.061,0.061,1.005,-2.895,-121.811
 15:35:58.811,eb:33:2e:f9:57:b5, 2085-97-98 00:22:00:2054,0.047,0.011,1.002,0,0,0,1.005,-2.895,-121.816
 15:35:58.841,eb:33:2e:f9:57:b5, 2085-97-97 00:22:00:2051,0.046,0.012,1.002,-0.061,0.061,-0.061,1.005,-2.895,-121.816
 15:35:58.841,eb:33:2e:f9:57:b5, 2085-97-94 00:19:00:2051,0.045,0.011,1.001,-0.122,0.061,-0.122,1.005,-2.895,-121.816
 15:35:58.841,eb:33:2e:f9:57:b5, 2085-97-95 00:20:00:2053,0.047,0.009,1.002,0,0.061,0,1,-2.895,-121.816
 15:35:58.841,eb:33:2e:f9:57:b5, 2085-97-97 00:20:00:2058,0.046,0.01,1.002,0,0,0,1,-2.895,-121.816
 15:35:58.901,eb:33:2e:f9:57:b5, 2085-97-96 00:20:00:2055,0.048,0.009,1.003,0.122,0,0,1,-2.895,-121.816
 15:35:58.901,eb:33:2e:f9:57:b5, 2085-97-100 00:23:00:2055,0.049,0.01,1.004,0.183,0.061,0,1,-2.895,-121.816
 15:35:58.901,eb:33:2e:f9:57:b5, 2085-97-94 00:23:00:2048,0.045,0.012,1.003,0.244,0.061,-0.183,1,-2.895,-121.816
 15:35:58.901,eb:33:2e:f9:57:b5, 2085-97-93 00:25:00:2047,0.045,0.011,1,0.061,-0.061,-0.244,1,-2.895,-121.822
 15:35:58.932,eb:33:2e:f9:57:b5, 2085-97-95 00:21:00:2054,0.046,0.011,1,0,0,-0.183,1,-2.895,-121.822
 15:35:58.932,eb:33:2e:f9:57:b5, 2085-97-93 00:17:00:2053,0.047,0.009,1.003,0,0,0,1,-2.895,-121.822
 15:35:58.932,eb:33:2e:f9:57:b5, 2085-97-98 00:23:00:2053,0.047,0.011,1.002,0.061,0,0,0.994,-2.895,-121.822
 15:35:58.932,eb:33:2e:f9:57:b5, 2085-97-94 00:21:00:2051,0.045,0.012,1.001,0,0,0,0.994,-2.895,-121.822
 15:35:58.961,eb:33:2e:f9:57:b5, 2085-97-96 00:22:00:2051,0.048,0.011,1.001,0,0,0.061,0.994,-2.895,-121.822
 15:35:58.961,eb:33:2e:f9:57:b5, 2085-97-96 00:25:00:2052,0.047,0.012,1.002,0,0,0.061,0.994,-2.895,-121.822
 15:35:58.961,eb:33:2e:f9:57:b5, 2085-97-97 00:22:00:2055,0.048,0.01,1.002,-0.061,0.061,0,0.994,-2.895,-121.822
 15:35:58.961,eb:33:2e:f9:57:b5, 2085-97-94 00:22:00:2054,0.046,0.011,1.002,-0.122,0.061,0,0.994,-2.895,-121.827
 15:35:59.021,eb:33:2e:f9:57:b5, 2085-97-95 00:21:00:2053,0.047,0.01,1.003,-0.122,0,0,0.994,-2.895,-121.827
 15:35:59.021,eb:33:2e:f9:57:b5, 2085-97-97 00:21:00:2052,0.048,0.011,1.002,-0.061,0,0,0.994,-2.895,-121.827
 15:35:59.021,eb:33:2e:f9:57:b5, 2085-97-97 00:20:00:2054,0.046,0.011,1.003,0,0,-0.122,0.989,-2.895,-121.827
 15:35:59.021,eb:33:2e:f9:57:b5, 2085-97-95 00:18:00:2055,0.046,0.01,1.002,0,0,-0.061,0.989,-2.895,-121.827
 15:35:59.052,eb:33:2e:f9:57:b5, 2085-97-93 00:20:00:2054,0.047,0.009,1.003,0.061,0,0,0.989,-2.895,-121.827
 15:35:59.052,eb:33:2e:f9:57:b5, 2085-97-97 00:22:00:2052,0.047,0.009,1.002,0.061,0,0.122,0.989,-2.895,-121.827
 15:35:59.052,eb:33:2e:f9:57:b5, 2085-97-98 00:23:00:2052,0.046,0.011,1.001,0.061,0,0,0.989,-2.895,-121.827
 15:35:59.052,eb:33:2e:f9:57:b5, 2085-97-93 00:25:00:2050,0.046,0.011,1.001,0,0,0.061,0.989,-2.895,-121.827
 15:35:59.110,eb:33:2e:f9:57:b5, 2085-97-96 00:22:00:2051,0.048,0.012,1.001,-0.122,-0.061,0,0.989,-2.895,-121.827
 15:35:59.110,eb:33:2e:f9:57:b5, 2085-97-97 00:20:00:2054,0.047,0.011,1.002,-0.122,-0.061,0,0.989,-2.895,-121.833
 15:35:59.110,eb:33:2e:f9:57:b5, 2085-97-98 00:23:00:2054,0.048,0.01,1.003,-0.061,0,0,0.983,-2.895,-121.833
 15:35:59.110,eb:33:2e:f9:57:b5, 2085-97-96 00:20:00:2054,0.048,0.011,1.003,-0.061,0,-0.122,0.983,-2.895,-121.833
 15:35:59.140,eb:33:2e:f9:57:b5, 2085-97-99 00:20:00:2058,0.047,0.009,1.004,0.061,0,-0.122,0.983,-2.895,-121.833
 15:35:59.140,eb:33:2e:f9:57:b5, 2085-97-96 00:22:00:2056,0.046,0.01,1.004,0.183,0,-0.122,0.983,-2.895,-121.833
 15:35:59.140,eb:33:2e:f9:57:b5, 2085-97-94 00:23:00:2050,0.047,0.011,1.002,0.183,0,-0.183,0.983,-2.895,-121.833
 15:35:59.140,eb:33:2e:f9:57:b5, 2085-97-95 00:22:00:2051,0.046,0.011,1.002,0.122,0,-0.122,0.983,-2.895,-121.833
 15:35:59.171,eb:33:2e:f9:57:b5, 2085-97-95 00:23:00:2053,0.046,0.012,1.002,0.122,0,-0.183,0.983,-2.895,-121.833
 15:35:59.171,eb:33:2e:f9:57:b5, 2085-97-95 00:23:00:2052,0.047,0.011,1.002,0.061,-0.061,-0.183,0.983,-2.895,-121.838
 15:35:59.171,eb:33:2e:f9:57:b5, 2085-97-96 00:25:00:2052,0.047,0.011,1.003,0,-0.061,-0.244,0.978,-2.895,-121.838
 15:35:59.171,eb:33:2e:f9:57:b5, 2085-97-96 00:22:00:2051,0.047,0.012,1.001,-0.061,-0.061,-0.366,0.978,-2.895,-121.838
 15:35:59.231,eb:33:2e:f9:57:b5, 2085-97-100 00:23:00:2055,0.047,0.01,1.003,-0.061,0,-0.427,0.978,-2.895,-121.838
 15:35:59.231,eb:33:2e:f9:57:b5, 2085-97-98 00:20:00:2058,0.048,0.01,1.004,0.061,0,-0.305,0.978,-2.895,-121.838
 15:35:59.231,eb:33:2e:f9:57:b5, 2085-97-93 00:23:00:2052,0.044,0.011,1.003,0.061,0.061,-0.305,0.978,-2.895,-121.838
 15:35:59.231,eb:33:2e:f9:57:b5, 2085-97-93 00:21:00:2052,0.046,0.011,1.001,0,-0.061,-0.305,0.978,-2.895,-121.838
 15:35:59.231,eb:33:2e:f9:57:b5, 2085-97-96 00:23:00:2053,0.047,0.01,1.002,0.061,-0.061,-0.122,0.978,-2.895,-121.838
 15:35:59.261,eb:33:2e:f9:57:b5, 2085-113-58 00:108:223:-5610,0.047,0.011,1.002,0.061,-0.061,-0.183,0.978,-2.895,-121.838
 15:35:59.261,eb:33:2e:f9:57:b5, 2085-97-97 00:23:00:2052,0.048,0.012,1.002,0.061,-0.061,-0.305,0.978,-2.895,-121.838
 15:35:59.261,eb:33:2e:f9:57:b5, 2085-97-95 00:21:00:2054,0.046,0.01,1.002,0,0,-0.305,0.978,-2.895,-121.838
 15:35:59.261,eb:33:2e:f9:57:b5, 2085-97-94 00:23:00:2051,0.046,0.01,1.002,0.061,0,-0.244,0.978,-2.895,-121.844
 15:35:59.291,eb:33:2e:f9:57:b5, 2085-97-86 00:19:00:2049,0.044,0.011,1,0,0,-0.122,0.972,-2.895,-121.844
 15:35:59.291,eb:33:2e:f9:57:b5, 2085-97-102 00:25:00:2057,0.052,0.011,1,0,-0.305,0.122,0.972,-2.895,-121.844
 15:35:59.291,eb:33:2e:f9:57:b5, 2085-97-102 00:21:00:2056,0.048,0.011,1.005,0.122,-0.061,0.061,0.972,-2.895,-121.844
 15:35:59.291,eb:33:2e:f9:57:b5, 2085-97-93 00:22:00:2053,0.046,0.011,1.004,0.122,0,-0.061,0.972,-2.895,-121.844
 15:35:59.352,eb:33:2e:f9:57:b5, 2085-97-100 00:24:00:2056,0.049,0.011,1.003,0.183,-0.061,0,0.972,-2.895,-121.844
 15:35:59.352,eb:33:2e:f9:57:b5, 2085-97-100 00:22:00:2055,0.046,0.011,1.004,0.183,0,-0.122,0.972,-2.895,-121.844
 15:35:59.352,eb:33:2e:f9:57:b5, 2085-97-96 00:23:00:2050,0.049,0.011,1.002,0.183,0,-0.183,0.972,-2.895,-121.844
 15:35:59.352,eb:33:2e:f9:57:b5, 2085-97-99 00:23:00:2054,0.048,0.011,1.002,0.183,0,-0.244,0.972,-2.895,-121.844
 15:35:59.380,eb:33:2e:f9:57:b5, 2085-97-96 00:23:00:2053,0.047,0.011,1.002,0.122,0.061,-0.305,0.972,-2.895,-121.844
 15:35:59.380,eb:33:2e:f9:57:b5, 2085-97-97 00:24:00:2051,0.047,0.011,1.002,0.183,0.061,-0.244,0.972,-2.895,-121.849
 15:35:59.380,eb:33:2e:f9:57:b5, 2085-97-92 00:22:00:2050,0.045,0.011,1,0.061,0,-0.305,0.967,-2.895,-121.844
 15:35:59.380,eb:33:2e:f9:57:b5, 2085-97-95 00:23:00:2050,0.047,0.011,1.001,0,0,-0.122,0.967,-2.895,-121.849
 15:35:59.411,eb:33:2e:f9:57:b5, 2085-97-96 00:25:00:2052,0.046,0.012,1.001,-0.061,0,-0.122,0.967,-2.895,-121.849
 15:35:59.411,eb:33:2e:f9:57:b5, 2085-97-97 00:22:00:2054,0.047,0.011,1.002,-0.122,0,-0.122,0.967,-2.895,-121.849
 15:35:59.411,eb:33:2e:f9:57:b5, 2085-97-99 00:22:00:2057,0.049,0.011,1.004,0,0.061,-0.061,0.967,-2.895,-121.849
 15:35:59.411,eb:33:2e:f9:57:b5, 2085-97-100 00:24:00:2057,0.049,0.011,1.003,0.061,0.061,-0.061,0.967,-2.895,-121.849
 15:35:59.471,eb:33:2e:f9:57:b5, 2085-97-100 00:22:00:2055,0.047,0.011,1.004,0.122,0,-0.183,0.967,-2.895,-121.849
 15:35:59.471,eb:33:2e:f9:57:b5, 2085-97-95 00:25:00:2052,0.046,0.012,1.003,0.183,0.061,-0.183,0.967,-2.895,-121.849
 15:35:59.471,eb:33:2e:f9:57:b5, 2085-97-93 00:24:00:2049,0.045,0.012,1,0,0.061,-0.244,0.967,-2.895,-121.849
 15:35:59.471,eb:33:2e:f9:57:b5, 2085-97-93 00:24:00:2049,0.045,0.012,1.001,0,0,-0.183,0.967,-2.895,-121.849
 15:35:59.501,eb:33:2e:f9:57:b5, 2085-97-93 00:22:00:2050,0.047,0.011,1,-0.061,0,-0.122,0.967,-2.895,-121.849
 15:35:59.501,eb:33:2e:f9:57:b5, 2085-97-97 00:22:00:2054,0.049,0.012,1.002,-0.122,0,0,0.967,-2.895,-121.855
 15:35:59.501,eb:33:2e:f9:57:b5, 2085-97-98 00:21:00:2059,0.049,0.011,1.004,0,-0.061,-0.061,0.961,-2.895,-121.855
 15:35:59.501,eb:33:2e:f9:57:b5, 2085-97-99 00:23:00:2058,0.047,0.011,1.005,0.061,-0.061,0,0.961,-2.895,-121.855
 15:35:59.531,eb:33:2e:f9:57:b5, 2085-97-97 00:23:00:2056,0.047,0.011,1.004,0.183,-0.061,-0.061,0.961,-2.895,-121.855
 15:35:59.531,eb:33:2e:f9:57:b5, 2085-97-96 00:24:00:2053,0.047,0.012,1.003,0.183,0,-0.122,0.961,-2.895,-121.855
 15:35:59.531,eb:33:2e:f9:57:b5, 2085-97-96 00:26:00:2052,0.047,0.012,1.002,0.244,-0.061,-0.122,0.961,-2.895,-121.855
 15:35:59.531,eb:33:2e:f9:57:b5, 2085-97-94 00:24:00:2051,0.047,0.013,1.002,0.061,0,-0.122,0.961,-2.895,-121.855
 15:35:59.592,eb:33:2e:f9:57:b5, 2085-97-95 00:24:00:2052,0.046,0.011,1.003,0.061,0,-0.122,0.961,-2.9,-121.855
 15:35:59.592,eb:33:2e:f9:57:b5, 2085-97-94 00:24:00:2050,0.045,0.011,1.002,0.061,0,-0.061,0.961,-2.9,-121.855
 15:35:59.592,eb:33:2e:f9:57:b5, 2085-97-98 00:25:00:2050,0.049,0.012,1.001,0,0,0,0.961,-2.9,-121.855
 15:35:59.592,eb:33:2e:f9:57:b5, 2085-97-98 00:24:00:2052,0.047,0.013,1.002,-0.122,0,0,0.961,-2.9,-121.855
 15:35:59.652,eb:33:2e:f9:57:b5, 2085-97-97 00:23:00:2052,0.047,0.012,1.002,-0.061,0,0,0.961,-2.9,-121.855
 15:35:59.652,eb:33:2e:f9:57:b5, 2085-97-97 00:23:00:2055,0.048,0.012,1.002,-0.061,0,0,0.961,-2.9,-121.86
 15:35:59.652,eb:33:2e:f9:57:b5, 2085-97-99 00:21:00:2055,0.048,0.01,1.004,-0.061,0,-0.061,0.961,-2.9,-121.86
 15:35:59.652,eb:33:2e:f9:57:b5, 2085-97-97 00:24:00:2053,0.047,0.011,1.003,0,0,-0.122,0.961,-2.9,-121.86
 15:35:59.652,eb:33:2e:f9:57:b5, 2085-97-101 00:24:00:2055,0.048,0.011,1.003,0.061,-0.122,-0.061,0.956,-2.9,-121.86
 15:35:59.652,eb:33:2e:f9:57:b5, 2085-97-95 00:25:00:2051,0.046,0.012,1.002,0.061,-0.061,-0.183,0.956,-2.9,-121.86
 15:35:59.652,eb:33:2e:f9:57:b5, 2085-97-98 00:22:00:2052,0.048,0.012,1.002,0.061,-0.122,-0.122,0.956,-2.9,-121.86
 15:35:59.652,eb:33:2e:f9:57:b5, 2085-97-99 00:24:00:2053,0.047,0.012,1.003,0.061,-0.061,-0.061,0.956,-2.9,-121.86
 15:35:59.711,eb:33:2e:f9:57:b5, 2085-97-98 00:24:00:2053,0.048,0.011,1.002,0.122,-0.122,-0.122,0.956,-2.9,-121.86
 15:35:59.711,eb:33:2e:f9:57:b5, 2085-97-98 00:24:00:2054,0.048,0.012,1.002,0,-0.061,-0.183,0.956,-2.9,-121.86
 15:35:59.711,eb:33:2e:f9:57:b5, 2085-97-96 00:25:00:2052,0.046,0.012,1.002,0.061,0,-0.183,0.956,-2.9,-121.86
 15:35:59.711,eb:33:2e:f9:57:b5, 2085-97-97 00:23:00:2052,0.047,0.012,1.001,0,0,-0.122,0.956,-2.9,-121.86
 15:35:59.740,eb:33:2e:f9:57:b5, 2085-97-95 00:23:00:2053,0.046,0.011,1.003,0,0,-0.061,0.956,-2.9,-121.86
 15:35:59.740,eb:33:2e:f9:57:b5, 2085-97-94 00:25:00:2049,0.046,0.012,1.002,0,0.061,0,0.956,-2.9,-121.866
 15:35:59.740,eb:33:2e:f9:57:b5, 2085-97-98 00:25:00:2053,0.047,0.013,1.002,0,0,0.061,0.956,-2.9,-121.866
 15:35:59.740,eb:33:2e:f9:57:b5, 2085-97-96 00:25:00:2052,0.049,0.012,1.001,0,0,0.122,0.956,-2.9,-121.866
 15:35:59.772,eb:33:2e:f9:57:b5, 2085-97-103 00:26:00:2055,0.048,0.012,1.003,0,0,0.122,0.956,-2.9,-121.866
 15:35:59.772,eb:33:2e:f9:57:b5, 2085-97-98 00:26:00:2054,0.048,0.013,1.003,-0.061,0,0.061,0.956,-2.9,-121.866
 15:35:59.772,eb:33:2e:f9:57:b5, 2085-97-97 00:24:00:2055,0.049,0.012,1.003,0,0,-0.061,0.956,-2.9,-121.866
 15:35:59.772,eb:33:2e:f9:57:b5, 2085-97-100 00:23:00:2054,0.047,0.011,1.004,0,0.061,-0.122,0.956,-2.9,-121.866
 15:35:59.832,eb:33:2e:f9:57:b5, 2085-97-95 00:23:00:2052,0.046,0.011,1.003,0,0.061,-0.122,0.95,-2.9,-121.866
 15:35:59.832,eb:33:2e:f9:57:b5, 2085-113-58 00:214:222:-5325,0.046,0.011,1.002,0,0,0,0.95,-2.9,-121.866
 15:35:59.832,eb:33:2e:f9:57:b5, 2085-97-95 00:22:00:2052,0.047,0.011,1.002,0,0.061,0,0.95,-2.9,-121.866
 15:35:59.832,eb:33:2e:f9:57:b5, 2085-97-96 00:24:00:2050,0.047,0.012,1.001,0.061,0.061,0,0.95,-2.9,-121.866
 15:35:59.862,eb:33:2e:f9:57:b5, 2085-97-97 00:25:00:2051,0.047,0.012,1.001,0,0,0,0.95,-2.9,-121.866
 15:35:59.862,eb:33:2e:f9:57:b5, 2085-97-97 00:26:00:2053,0.047,0.012,1.001,0,0,0.061,0.95,-2.9,-121.871
 15:35:59.862,eb:33:2e:f9:57:b5, 2085-97-98 00:24:00:2051,0.047,0.012,1.002,0,0,0,0.95,-2.9,-121.871
 15:35:59.862,eb:33:2e:f9:57:b5, 2085-97-99 00:24:00:2054,0.048,0.012,1.003,0,0,0,0.95,-2.9,-121.871
 15:35:59.891,eb:33:2e:f9:57:b5, 2085-97-98 00:24:00:2054,0.048,0.012,1.003,0.061,0.061,0,0.95,-2.9,-121.871
 15:35:59.891,eb:33:2e:f9:57:b5, 2085-97-100 00:23:00:2054,0.048,0.012,1.003,0.061,0,0,0.95,-2.9,-121.871
 15:35:59.891,eb:33:2e:f9:57:b5, 2085-97-97 00:24:00:2054,0.047,0.011,1.003,0.061,0,-0.061,0.95,-2.9,-121.871
 15:35:59.891,eb:33:2e:f9:57:b5, 2085-97-97 00:24:00:2052,0.047,0.012,1.002,0.061,0,0,0.95,-2.9,-121.871
 15:35:59.952,eb:33:2e:f9:57:b5, 2085-97-95 00:24:00:2052,0.047,0.012,1.002,0.061,0,0.061,0.95,-2.9,-121.871
 15:35:59.952,eb:33:2e:f9:57:b5, 2085-97-99 00:25:00:2054,0.047,0.012,1.004,0.061,0,0,0.95,-2.9,-121.871
 15:35:59.952,eb:33:2e:f9:57:b5, 2085-97-95 00:24:00:2051,0.045,0.013,1.002,0.122,0.061,0,0.95,-2.9,-121.871
 15:35:59.952,eb:33:2e:f9:57:b5, 2085-97-95 00:26:00:2052,0.047,0.012,1.001,0.061,0,0.061,0.95,-2.9,-121.871
 15:35:59.982,eb:33:2e:f9:57:b5, 2085-97-98 00:24:00:2054,0.048,0.013,1.002,0,0,0,0.95,-2.9,-121.871
 15:35:59.982,eb:33:2e:f9:57:b5, 2085-97-96 00:24:00:2054,0.048,0.012,1.003,0,0.061,0,0.95,-2.9,-121.871
 15:35:59.982,eb:33:2e:f9:57:b5, 2085-97-100 00:27:00:2054,0.048,0.012,1.002,0,0,0,0.945,-2.9,-121.871
 15:35:59.982,eb:33:2e:f9:57:b5, 2085-97-98 00:25:00:2054,0.047,0.013,1.003,0,0.061,-0.122,0.945,-2.9,-121.877
 15:36:00.011,eb:33:2e:f9:57:b5, 2085-97-95 00:25:00:2054,0.047,0.011,1.003,0,0,-0.122,0.945,-2.9,-121.877
 15:36:00.011,eb:33:2e:f9:57:b5, 2085-97-96 00:23:00:2053,0.047,0.012,1.003,0,0,-0.122,0.945,-2.9,-121.877
 15:36:00.011,eb:33:2e:f9:57:b5, 2085-97-98 00:23:00:2055,0.047,0.011,1.003,0.061,0,-0.061,0.945,-2.9,-121.877
 15:36:00.011,eb:33:2e:f9:57:b5, 2085-97-96 00:24:00:2052,0.046,0.011,1.003,0.061,0,-0.061,0.945,-2.9,-121.877
 15:36:00.071,eb:33:2e:f9:57:b5, 2085-97-98 00:25:00:2054,0.047,0.012,1.002,0.122,0,0,0.945,-2.9,-121.877
 15:36:00.071,eb:33:2e:f9:57:b5, 2085-97-94 00:26:00:2052,0.048,0.012,1.002,0.122,0,0,0.945,-2.9,-121.877
 15:36:00.071,eb:33:2e:f9:57:b5, 2085-97-97 00:27:00:2050,0.048,0.013,1.001,0.061,0,-0.061,0.945,-2.9,-121.877
 15:36:00.071,eb:33:2e:f9:57:b5, 2085-97-97 00:27:00:2050,0.047,0.013,1.001,0,0,-0.061,0.945,-2.9,-121.877
 15:36:00.101,eb:33:2e:f9:57:b5, 2085-97-96 00:26:00:2052,0.047,0.013,1.002,-0.122,0,-0.122,0.945,-2.9,-121.877
 15:36:00.101,eb:33:2e:f9:57:b5, 2085-97-97 00:24:00:2052,0.048,0.012,1.002,-0.061,0,-0.122,0.945,-2.9,-121.877
 15:36:00.102,eb:33:2e:f9:57:b5, 2085-97-99 00:23:00:2057,0.047,0.011,1.004,-0.061,0,-0.061,0.945,-2.9,-121.877
 15:36:00.102,eb:33:2e:f9:57:b5, 2085-97-95 00:24:00:2053,0.046,0.013,1.003,0,0.061,-0.122,0.945,-2.9,-121.877
 15:36:00.132,eb:33:2e:f9:57:b5, 2085-97-98 00:24:00:2055,0.048,0.011,1.002,0.061,0,0,0.945,-2.9,-121.877
 15:36:00.132,eb:33:2e:f9:57:b5, 2085-97-97 00:25:00:2054,0.047,0.011,1.003,0.122,0,0,0.945,-2.9,-121.882
 15:36:00.132,eb:33:2e:f9:57:b5, 2085-97-96 00:27:00:2050,0.047,0.012,1.001,0.122,0.061,0,0.945,-2.9,-121.882
 15:36:00.132,eb:33:2e:f9:57:b5, 2085-97-96 00:26:00:2052,0.047,0.013,1.001,0.061,0,0,0.945,-2.9,-121.882
 15:36:00.190,eb:33:2e:f9:57:b5, 2085-97-96 00:24:00:2053,0.048,0.012,1.001,0,0,0,0.945,-2.9,-121.882
 15:36:00.190,eb:33:2e:f9:57:b5, 2085-97-97 00:24:00:2053,0.048,0.012,1.002,0,0,0,0.945,-2.9,-121.882
 15:36:00.190,eb:33:2e:f9:57:b5, 2085-97-99 00:25:00:2053,0.047,0.012,1.002,0,0,0,0.945,-2.906,-121.882
 15:36:00.190,eb:33:2e:f9:57:b5, 2085-97-97 00:26:00:2053,0.047,0.012,1.001,0,0,-0.061,0.945,-2.906,-121.882
 15:36:00.221,eb:33:2e:f9:57:b5, 2085-97-99 00:25:00:2053,0.047,0.012,1.002,0,0,-0.061,0.945,-2.906,-121.882
 15:36:00.221,eb:33:2e:f9:57:b5, 2085-97-98 00:25:00:2054,0.047,0.012,1.003,0.061,0.122,-0.061,0.945,-2.906,-121.882
 15:36:00.221,eb:33:2e:f9:57:b5, 2085-97-97 00:23:00:2055,0.048,0.012,1.002,0,0.061,-0.061,0.945,-2.906,-121.882
 15:36:00.221,eb:33:2e:f9:57:b5, 2085-97-96 00:26:00:2053,0.048,0.012,1.002,0.122,0.061,0,0.945,-2.906,-121.882
 15:36:00.252,eb:33:2e:f9:57:b5, 2085-97-97 00:25:00:2053,0.048,0.012,1.002,0.061,0.061,0,0.939,-2.906,-121.882
 15:36:00.252,eb:33:2e:f9:57:b5, 2085-97-99 00:25:00:2051,0.047,0.013,1.001,0,0.061,0,0.939,-2.906,-121.882
 15:36:00.252,eb:33:2e:f9:57:b5, 2085-97-96 00:24:00:2052,0.047,0.013,1.001,0,0,-0.061,0.939,-2.906,-121.882
 15:36:00.252,eb:33:2e:f9:57:b5, 2085-97-98 00:26:00:2052,0.046,0.012,1.002,0,0,0,0.939,-2.906,-121.882
 15:36:00.312,eb:33:2e:f9:57:b5, 2085-97-93 00:24:00:2052,0.046,0.012,1.002,0,0.061,0,0.939,-2.906,-121.882
 15:36:00.312,eb:33:2e:f9:57:b5, 2085-97-99 00:24:00:2053,0.049,0.012,1.001,0,0,0,0.939,-2.906,-121.888
 15:36:00.312,eb:33:2e:f9:57:b5, 2085-97-101 00:24:00:2057,0.048,0.012,1.004,0,0,0.061,0.939,-2.906,-121.888
 15:36:00.312,eb:33:2e:f9:57:b5, 2085-97-96 00:28:00:2053,0.047,0.013,1.003,0.122,0.061,0,0.939,-2.906,-121.888
 15:36:00.342,eb:33:2e:f9:57:b5, 2085-97-96 00:24:00:2054,0.047,0.012,1.002,0.122,0,-0.122,0.939,-2.906,-121.888
 15:36:00.342,eb:33:2e:f9:57:b5, 2085-97-95 00:25:00:2053,0.046,0.012,1.003,0.183,0.061,0,0.939,-2.906,-121.888
 15:36:00.342,eb:33:2e:f9:57:b5, 2085-97-97 00:25:00:2052,0.048,0.013,1.001,0.183,0.061,0,0.939,-2.906,-121.888
 15:36:00.342,eb:33:2e:f9:57:b5, 2085-97-99 00:27:00:2053,0.049,0.013,1.003,0.122,0.061,0,0.939,-2.906,-121.888
 15:36:00.371,eb:33:2e:f9:57:b5, 2085-97-100 00:28:00:2051,0.048,0.014,1.003,0.122,0.061,-0.061,0.939,-2.906,-121.888
 15:36:00.371,eb:33:2e:f9:57:b5, 2085-97-97 00:26:00:2052,0.047,0.012,1.001,0.122,0.122,-0.122,0.939,-2.906,-121.888
 15:36:00.371,eb:33:2e:f9:57:b5, 2085-97-96 00:27:00:2050,0.048,0.012,1.004,0.061,0.183,-0.183,0.939,-2.906,-121.888
 15:36:00.371,eb:33:2e:f9:57:b5, 2085-97-98 00:27:00:2048,0.045,0.014,1.001,0,0.061,-0.183,0.939,-2.906,-121.888
 15:36:00.431,eb:33:2e:f9:57:b5, 2085-97-94 00:24:00:2052,0.047,0.012,1,-0.061,0,-0.183,0.939,-2.906,-121.888
 15:36:00.431,eb:33:2e:f9:57:b5, 2085-97-98 00:22:00:2053,0.048,0.011,1.002,-0.061,0,-0.061,0.939,-2.906,-121.888
 15:36:00.431,eb:33:2e:f9:57:b5, 2085-97-100 00:25:00:2055,0.049,0.011,1.003,0,0,-0.061,0.939,-2.906,-121.888
 15:36:00.431,eb:33:2e:f9:57:b5, 2085-97-98 00:24:00:2055,0.047,0.012,1.003,0,0.061,-0.183,0.939,-2.906,-121.888
 15:36:00.461,eb:33:2e:f9:57:b5, 2085-97-97 00:24:00:2054,0.045,0.011,1.003,0.122,0.061,-0.122,0.939,-2.906,-121.888
 15:36:00.461,eb:33:2e:f9:57:b5, 2085-97-96 00:24:00:2051,0.047,0.011,1.002,0.122,0,-0.061,0.939,-2.906,-121.893
 15:36:00.461,eb:33:2e:f9:57:b5, 2085-97-96 00:27:00:2050,0.045,0.013,1.001,0.122,0.061,0,0.939,-2.906,-121.893
 15:36:00.461,eb:33:2e:f9:57:b5, 2085-97-93 00:25:00:2050,0.047,0.013,1.001,0.122,0,0.061,0.939,-2.906,-121.893
 15:36:00.521,eb:33:2e:f9:57:b5, 2085-97-98 00:27:00:2051,0.048,0.013,1,0,0,0.122,0.939,-2.906,-121.893
 15:36:00.521,eb:33:2e:f9:57:b5, 2085-97-97 00:28:00:2051,0.047,0.014,1.001,0,-0.061,0.061,0.939,-2.906,-121.893
 15:36:00.521,eb:33:2e:f9:57:b5, 2085-113-81 00:39:62:-566,0.048,0.012,1.002,0,0,0.061,0.939,-2.906,-121.893
 15:36:00.521,eb:33:2e:f9:57:b5, 2085-97-101 00:27:00:2055,0.048,0.012,1.003,0,0,0,0.939,-2.906,-121.893
 15:36:00.521,eb:33:2e:f9:57:b5, 2085-97-97 00:25:00:2054,0.047,0.013,1.003,0,0,0,0.939,-2.906,-121.893
 15:36:00.580,eb:33:2e:f9:57:b5, 2085-97-97 00:25:00:2054,0.048,0.012,1.004,0,0,-0.061,0.939,-2.906,-121.893
 15:36:00.580,eb:33:2e:f9:57:b5, 2085-97-96 00:24:00:2052,0.046,0.013,1.003,0,0,-0.061,0.939,-2.906,-121.893
 15:36:00.580,eb:33:2e:f9:57:b5, 2085-97-93 00:25:00:2052,0.046,0.012,1.002,0.122,0.122,0,0.939,-2.906,-121.893
 15:36:00.580,eb:33:2e:f9:57:b5, 2085-97-97 00:26:00:2051,0.046,0.012,1.001,0.061,0,0.122,0.939,-2.906,-121.893
 15:36:00.582,eb:33:2e:f9:57:b5, 2085-97-96 00:27:00:2050,0.046,0.013,1.002,0,0,0.244,0.939,-2.906,-121.893
 15:36:00.582,eb:33:2e:f9:57:b5, 2085-97-97 00:27:00:2050,0.048,0.013,1.001,0,0,0.366,0.939,-2.906,-121.893
 15:36:00.582,eb:33:2e:f9:57:b5, 2085-97-98 00:23:00:2053,0.047,0.012,1.001,0,0,0.305,0.934,-2.906,-121.893
 15:36:00.582,eb:33:2e:f9:57:b5, 2085-97-97 00:27:00:2053,0.047,0.012,1.002,0,0,0.305,0.934,-2.906,-121.893
 15:36:00.642,eb:33:2e:f9:57:b5, 2085-97-97 00:24:00:2052,0.046,0.013,1.002,-0.061,0.061,0.122,0.934,-2.906,-121.893
 15:36:00.642,eb:33:2e:f9:57:b5, 2085-97-95 00:27:00:2052,0.047,0.011,1.001,0,0,0.305,0.934,-2.906,-121.899
 15:36:00.642,eb:33:2e:f9:57:b5, 2085-97-99 00:30:00:2053,0.048,0.014,1.002,-0.061,0,0.183,0.934,-2.906,-121.899
 15:36:00.642,eb:33:2e:f9:57:b5, 2085-97-97 00:25:00:2054,0.047,0.013,1.002,-0.061,0,0.183,0.934,-2.906,-121.899
 15:36:00.672,eb:33:2e:f9:57:b5, 2085-97-97 00:27:00:2051,0.049,0.013,1.002,-0.061,0.061,0.183,0.934,-2.906,-121.899
 15:36:00.672,eb:33:2e:f9:57:b5, 2085-97-98 00:25:00:2053,0.046,0.013,1.002,-0.122,0.061,0,0.934,-2.906,-121.899
 15:36:00.672,eb:33:2e:f9:57:b5, 2085-97-94 00:26:00:2051,0.046,0.013,1.002,-0.122,0.122,0.183,0.934,-2.906,-121.899
 15:36:00.672,eb:33:2e:f9:57:b5, 2085-97-96 00:23:00:2051,0.048,0.012,1.001,-0.122,0.061,0.305,0.934,-2.906,-121.899
 15:36:00.702,eb:33:2e:f9:57:b5, 2085-97-97 00:25:00:2055,0.047,0.012,1.003,-0.061,0.061,0.305,0.934,-2.906,-121.899
 15:36:00.702,eb:33:2e:f9:57:b5, 2085-97-98 00:26:00:2055,0.049,0.012,1.004,0,0.061,0.366,0.934,-2.906,-121.899
 15:36:00.702,eb:33:2e:f9:57:b5, 2085-97-99 00:28:00:2052,0.047,0.013,1.002,-0.061,0.061,0.244,0.934,-2.906,-121.899
 15:36:00.702,eb:33:2e:f9:57:b5, 2085-97-97 00:25:00:2053,0.048,0.013,1.002,-0.183,0.122,0.183,0.934,-2.906,-121.899
 15:36:00.762,eb:33:2e:f9:57:b5, 2085-97-96 00:26:00:2054,0.046,0.012,1.002,-0.183,0.061,0.122,0.934,-2.906,-121.899
 15:36:00.762,eb:33:2e:f9:57:b5, 2085-97-93 00:24:00:2053,0.046,0.012,1.002,-0.183,0.061,0.183,0.934,-2.906,-121.899
 15:36:00.762,eb:33:2e:f9:57:b5, 2085-97-95 00:25:00:2052,0.047,0.012,1.002,-0.183,0,0.305,0.934,-2.906,-121.899
 15:36:00.762,eb:33:2e:f9:57:b5, 2085-97-95 00:22:00:2055,0.047,0.012,1.003,-0.183,0,0.305,0.934,-2.906,-121.899
 15:36:00.792,eb:33:2e:f9:57:b5, 2085-97-98 00:26:00:2055,0.048,0.012,1.003,-0.061,0,0.427,0.934,-2.906,-121.899
 15:36:00.792,eb:33:2e:f9:57:b5, 2085-97-96 00:25:00:2054,0.046,0.013,1.003,-0.122,0.061,0.366,0.934,-2.906,-121.899
 15:36:00.792,eb:33:2e:f9:57:b5, 2085-97-98 00:24:00:2054,0.047,0.012,1.003,-0.061,0.122,0.305,0.934,-2.906,-121.899
 15:36:00.792,eb:33:2e:f9:57:b5, 2085-97-97 00:27:00:2052,0.047,0.013,1.002,-0.122,0.122,0.244,0.934,-2.906,-121.904
 15:36:00.853,eb:33:2e:f9:57:b5, 2085-97-95 00:23:00:2053,0.046,0.012,1.002,-0.183,0.061,0.183,0.934,-2.906,-121.904
 15:36:00.853,eb:33:2e:f9:57:b5, 2085-97-96 00:24:00:2052,0.047,0.012,1.002,-0.183,0.061,0.305,0.934,-2.906,-121.904
 15:36:00.853,eb:33:2e:f9:57:b5, 2085-97-96 00:24:00:2054,0.047,0.012,1.003,-0.122,0.122,0.366,0.934,-2.906,-121.904
 15:36:00.853,eb:33:2e:f9:57:b5, 2085-97-97 00:23:00:2056,0.047,0.011,1.002,-0.122,0.122,0.427,0.934,-2.906,-121.904
 15:36:00.911,eb:33:2e:f9:57:b5, 2085-97-94 00:23:00:2050,0.046,0.012,1.002,-0.061,0.061,0.427,0.934,-2.906,-121.904
 15:36:00.911,eb:33:2e:f9:57:b5, 2085-97-96 00:24:00:2052,0.048,0.012,1.002,0,0.061,0.427,0.934,-2.906,-121.904
 15:36:00.911,eb:33:2e:f9:57:b5, 2085-97-98 00:24:00:2054,0.047,0.012,1.003,-0.061,0,0.427,0.934,-2.906,-121.904
 15:36:00.911,eb:33:2e:f9:57:b5, 2085-97-98 00:26:00:2052,0.048,0.012,1.002,0,0,0.427,0.934,-2.906,-121.904
 15:36:00.913,eb:33:2e:f9:57:b5, 2085-97-98 00:25:00:2053,0.047,0.012,1.001,-0.122,0,0.305,0.934,-2.906,-121.904
 15:36:00.913,eb:33:2e:f9:57:b5, 2085-97-97 00:26:00:2055,0.048,0.012,1.003,-0.061,0.061,0.244,0.934,-2.906,-121.904
 15:36:00.913,eb:33:2e:f9:57:b5, 2085-97-98 00:25:00:2053,0.047,0.013,1.003,-0.122,0.061,0.183,0.934,-2.906,-121.904
 15:36:00.913,eb:33:2e:f9:57:b5, 2085-97-94 00:24:00:2052,0.046,0.012,1.002,-0.122,0.061,0.183,0.934,-2.906,-121.904
 15:36:00.940,eb:33:2e:f9:57:b5, 2085-97-96 00:24:00:2054,0.045,0.011,1.002,-0.061,0.122,0.305,0.934,-2.906,-121.904
 15:36:00.940,eb:33:2e:f9:57:b5, 2085-97-94 00:23:00:2050,0.045,0.011,1.003,-0.061,0.122,0.305,0.934,-2.906,-121.904
 15:36:00.940,eb:33:2e:f9:57:b5, 2085-97-95 00:23:00:2051,0.047,0.012,1.002,-0.122,0,0.427,0.928,-2.906,-121.904
 15:36:00.940,eb:33:2e:f9:57:b5, 2085-97-97 00:24:00:2050,0.048,0.012,1.002,-0.183,0,0.488,0.928,-2.906,-121.904
 15:36:01.002,eb:33:2e:f9:57:b5, 2085-97-98 00:24:00:2053,0.048,0.012,1.001,-0.183,0,0.427,0.928,-2.906,-121.904
 15:36:01.002,eb:33:2e:f9:57:b5, 2085-97-99 00:24:00:2054,0.048,0.012,1.003,-0.183,0.122,0.244,0.928,-2.906,-121.904
 15:36:01.002,eb:33:2e:f9:57:b5, 2085-97-98 00:24:00:2055,0.047,0.011,1.003,-0.122,0.122,0.183,0.928,-2.906,-121.904
 15:36:01.002,eb:33:2e:f9:57:b5, 2085-97-96 00:22:00:2054,0.047,0.011,1.003,-0.061,0.061,0.122,0.928,-2.906,-121.91
 15:36:01.032,eb:33:2e:f9:57:b5, 2085-97-95 00:23:00:2053,0.046,0.011,1.003,0,0.122,0.122,0.928,-2.906,-121.91
 15:36:01.032,eb:33:2e:f9:57:b5, 2085-97-97 00:24:00:2052,0.047,0.012,1.001,0,0,0.183,0.928,-2.906,-121.91
 15:36:01.032,eb:33:2e:f9:57:b5, 2085-97-94 00:23:00:2051,0.045,0.011,1.002,0,0.061,0.183,0.928,-2.906,-121.91
 15:36:01.032,eb:33:2e:f9:57:b5, 2085-97-93 00:26:00:2049,0.045,0.013,1.001,-0.122,0.061,0.122,0.928,-2.906,-121.91
 15:36:01.063,eb:33:2e:f9:57:b5, 2085-97-94 00:24:00:2049,0.045,0.012,1,-0.244,0.061,0.122,0.928,-2.906,-121.91
 15:36:01.063,eb:33:2e:f9:57:b5, 2085-97-95 00:25:00:2053,0.046,0.012,1.002,-0.305,0.061,0.244,0.928,-2.906,-121.91
 15:36:01.063,eb:33:2e:f9:57:b5, 2085-97-94 00:22:00:2054,0.047,0.011,1.002,-0.244,0,0.305,0.928,-2.906,-121.91
 15:36:01.063,eb:33:2e:f9:57:b5, 2085-97-98 00:23:00:2055,0.047,0.011,1.004,-0.122,0,0.366,0.928,-2.906,-121.91
 15:36:01.122,eb:33:2e:f9:57:b5, 2085-97-98 00:24:00:2055,0.047,0.011,1.003,-0.061,0,0.305,0.928,-2.906,-121.91
 15:36:01.122,eb:33:2e:f9:57:b5, 2085-97-98 00:22:00:2056,0.048,0.011,1.003,-0.061,0,0.244,0.928,-2.906,-121.91
 15:36:01.122,eb:33:2e:f9:57:b5, 2085-97-97 00:23:00:2055,0.047,0.011,1.003,0,0.061,0.244,0.928,-2.906,-121.91
 15:36:01.122,eb:33:2e:f9:57:b5, 2085-97-97 00:24:00:2053,0.048,0.012,1.002,0.061,0.122,0.183,0.928,-2.906,-121.91
 15:36:01.151,eb:33:2e:f9:57:b5, 2085-97-96 00:24:00:2053,0.045,0.012,1.002,0,0.061,0,0.928,-2.906,-121.91
 15:36:01.151,eb:33:2e:f9:57:b5, 2085-97-93 00:24:00:2050,0.047,0.012,1.002,0,0.061,0.122,0.928,-2.906,-121.91
 15:36:01.151,eb:33:2e:f9:57:b5, 2085-97-96 00:25:00:2051,0.046,0.012,1.002,-0.061,0.061,0.122,0.928,-2.906,-121.91
 15:36:01.151,eb:33:2e:f9:57:b5, 2085-97-94 00:24:00:2051,0.044,0.012,1.002,-0.122,0.061,0.122,0.928,-2.906,-121.91
 15:36:01.181,eb:33:2e:f9:57:b5, 2085-97-94 00:25:00:2049,0.047,0.011,1,-0.183,0,0.183,0.923,-2.906,-121.91
 15:36:01.181,eb:33:2e:f9:57:b5, 2085-97-98 00:23:00:2053,0.047,0.012,1.002,-0.305,0,0.183,0.923,-2.906,-121.91
 15:36:01.181,eb:33:2e:f9:57:b5, 2085-113-100 00:145:01:000,0.047,0.011,1.003,-0.244,0,0.122,0.923,-2.906,-121.91
 15:36:01.181,eb:33:2e:f9:57:b5, 2085-97-97 00:23:00:2054,0.048,0.01,1.003,-0.183,0,0.122,0.923,-2.906,-121.91
 15:36:01.271,eb:33:2e:f9:57:b5, 2085-97-100 00:23:00:2055,0.051,0.011,1.002,-0.122,0,0,0.923,-2.906,-121.91
 15:36:01.271,eb:33:2e:f9:57:b5, 2085-97-86 00:18:00:2052,0.042,0.011,1.005,-0.122,0.183,-0.183,0.923,-2.906,-121.915
 15:36:01.271,eb:33:2e:f9:57:b5, 2085-97-91 00:22:00:2050,0.048,0.01,1.001,0,-0.061,0.122,0.923,-2.906,-121.91
 15:36:01.271,eb:33:2e:f9:57:b5, 2085-97-99 00:19:00:2055,0.047,0.011,1.003,-0.061,-0.122,0.122,0.923,-2.906,-121.915
 15:36:01.271,eb:33:2e:f9:57:b5, 2085-97-97 00:21:00:2056,0.047,0.009,1.004,0,-0.061,0.122,0.923,-2.906,-121.915
 15:36:01.271,eb:33:2e:f9:57:b5, 2085-97-94 00:24:00:2052,0.046,0.011,1.002,0.061,0,0.122,0.923,-2.906,-121.915
 15:36:01.271,eb:33:2e:f9:57:b5, 2085-97-95 00:21:00:2054,0.046,0.011,1.001,0,-0.122,0,0.923,-2.906,-121.915
 15:36:01.271,eb:33:2e:f9:57:b5, 2085-97-94 00:24:00:2050,0.046,0.011,1.001,0.061,0,0.061,0.923,-2.906,-121.915
 15:36:01.301,eb:33:2e:f9:57:b5, 2085-97-95 00:22:00:2053,0.046,0.012,1.001,0,0,0.061,0.923,-2.906,-121.915
 15:36:01.301,eb:33:2e:f9:57:b5, 2085-97-96 00:22:00:2051,0.048,0.011,1.001,-0.061,0,0.183,0.923,-2.906,-121.915
 15:36:01.301,eb:33:2e:f9:57:b5, 2085-97-100 00:24:00:2056,0.048,0.011,1.002,-0.061,0,0.122,0.923,-2.906,-121.915
 15:36:01.301,eb:33:2e:f9:57:b5, 2085-97-97 00:23:00:2051,0.047,0.012,1.002,-0.061,0,0,0.923,-2.906,-121.915
 15:36:01.361,eb:33:2e:f9:57:b5, 2085-97-96 00:23:00:2050,0.045,0.011,1.002,-0.061,0,0,0.917,-2.906,-121.915
 15:36:01.361,eb:33:2e:f9:57:b5, 2085-97-90 00:22:00:2050,0.045,0.011,1.001,-0.122,0,0,0.917,-2.906,-121.915
 15:36:01.361,eb:33:2e:f9:57:b5, 2085-97-98 00:22:00:2053,0.048,0.011,1.001,-0.183,-0.122,0.122,0.917,-2.906,-121.915
 15:36:01.361,eb:33:2e:f9:57:b5, 2085-97-97 00:21:00:2054,0.047,0.012,1.002,-0.122,0,0.122,0.917,-2.906,-121.915
 15:36:01.392,eb:33:2e:f9:57:b5, 2085-97-97 00:21:00:2053,0.048,0.01,1.004,-0.061,0,0.183,0.917,-2.906,-121.915
 15:36:01.392,eb:33:2e:f9:57:b5, 2085-97-99 00:25:00:2053,0.048,0.012,1.003,0,0,0.244,0.917,-2.906,-121.915
 15:36:01.392,eb:33:2e:f9:57:b5, 2085-97-97 00:23:00:2051,0.047,0.011,1.002,-0.061,0,0.122,0.917,-2.906,-121.915
 15:36:01.392,eb:33:2e:f9:57:b5, 2085-97-96 00:24:00:2051,0.047,0.012,1.001,-0.122,0,0.061,0.917,-2.906,-121.915
 15:36:01.420,eb:33:2e:f9:57:b5, 2085-97-98 00:24:00:2052,0.047,0.012,1.002,-0.183,-0.061,0,0.917,-2.906,-121.915
 15:36:01.420,eb:33:2e:f9:57:b5, 2085-97-95 00:24:00:2054,0.047,0.011,1.002,-0.183,-0.061,0,0.917,-2.906,-121.915
 15:36:01.420,eb:33:2e:f9:57:b5, 2085-97-97 00:22:00:2051,0.048,0.011,1.001,-0.244,-0.061,0.061,0.917,-2.906,-121.915
 15:36:01.420,eb:33:2e:f9:57:b5, 2085-97-97 00:22:00:2053,0.047,0.012,1.001,-0.244,-0.122,0.061,0.917,-2.906,-121.915
 15:36:01.482,eb:33:2e:f9:57:b5, 2085-97-97 00:21:00:2051,0.048,0.01,1.002,-0.183,-0.061,0.061,0.917,-2.906,-121.915
 15:36:01.482,eb:33:2e:f9:57:b5, 2085-97-96 00:20:00:2054,0.047,0.011,1.002,-0.244,-0.061,0.061,0.917,-2.906,-121.915
 15:36:01.482,eb:33:2e:f9:57:b5, 2085-97-97 00:22:00:2055,0.049,0.01,1.003,-0.122,-0.122,0.122,0.917,-2.906,-121.915
 15:36:01.482,eb:33:2e:f9:57:b5, 2085-97-100 00:22:00:2054,0.048,0.01,1.003,-0.122,-0.061,0.244,0.917,-2.906,-121.921
 15:36:01.511,eb:33:2e:f9:57:b5, 2085-97-98 00:18:00:2054,0.047,0.009,1.003,0,0,0.427,0.917,-2.906,-121.921
 15:36:01.511,eb:33:2e:f9:57:b5, 2085-97-101 00:17:00:2057,0.047,0.008,1.003,0.183,0,1.038,0.917,-2.906,-121.921
 15:36:01.511,eb:33:2e:f9:57:b5, 2085-97-95 00:22:00:2052,0.046,0.009,1.004,0.427,0.183,1.404,0.912,-2.906,-121.921
 15:36:01.511,eb:33:2e:f9:57:b5, 2085-97-94 00:23:00:2049,0.045,0.011,1.002,0.427,0.061,1.404,0.912,-2.906,-121.921
 15:36:01.540,eb:33:2e:f9:57:b5, 2085-97-93 00:22:00:2052,0.045,0.011,1,0.305,-0.061,1.221,0.912,-2.906,-121.921
 15:36:01.540,eb:33:2e:f9:57:b5, 2085-97-98 00:22:00:2054,0.048,0.011,1.001,0.366,-0.183,1.16,0.912,-2.906,-121.921
 15:36:01.540,eb:33:2e:f9:57:b5, 2085-97-97 00:22:00:2053,0.048,0.012,1.002,0.305,-0.183,0.916,0.912,-2.906,-121.921
 15:36:01.540,eb:33:2e:f9:57:b5, 2085-97-98 00:21:00:2056,0.049,0.01,1.004,0.244,-0.244,0.671,0.912,-2.906,-121.921
 15:36:01.602,eb:33:2e:f9:57:b5, 2085-97-100 00:24:00:2052,0.046,0.011,1.004,0.305,-0.122,0.488,0.912,-2.906,-121.921
 15:36:01.602,eb:33:2e:f9:57:b5, 2085-97-93 00:24:00:2052,0.045,0.012,1.002,0.244,-0.244,0.244,0.912,-2.906,-121.921
 15:36:01.602,eb:33:2e:f9:57:b5, 2085-97-95 00:25:00:2047,0.046,0.012,1,0.183,-0.183,0.427,0.912,-2.906,-121.921
 15:36:01.602,eb:33:2e:f9:57:b5, 2085-97-94 00:26:00:2046,0.046,0.012,0.999,-0.122,-0.244,0.183,0.912,-2.906,-121.921
 15:36:01.631,eb:33:2e:f9:57:b5, 2085-97-93 00:23:00:2048,0.045,0.012,1,-0.305,-0.244,0.122,0.912,-2.906,-121.921
 15:36:01.631,eb:33:2e:f9:57:b5, 2085-97-96 00:22:00:2050,0.047,0.011,1,-0.488,-0.305,0.122,0.912,-2.906,-121.921
 15:36:01.631,eb:33:2e:f9:57:b5, 2085-97-100 00:18:00:2056,0.05,0.01,1.003,-0.549,-0.427,0.122,0.912,-2.906,-121.921
 15:36:01.631,eb:33:2e:f9:57:b5, 2085-97-103 00:20:00:2058,0.051,0.009,1.004,-0.305,-0.305,0.366,0.912,-2.906,-121.921
 15:36:01.662,eb:33:2e:f9:57:b5, 2085-97-99 00:22:00:2054,0.049,0.01,1.004,-0.122,-0.244,0.366,0.912,-2.906,-121.921
 15:36:01.662,eb:33:2e:f9:57:b5, 2085-97-100 00:22:00:2052,0.048,0.01,1.003,-0.061,-0.244,0.183,0.912,-2.906,-121.921
 15:36:01.662,eb:33:2e:f9:57:b5, 2085-97-98 00:22:00:2053,0.047,0.011,1.003,-0.183,-0.183,0.183,0.906,-2.906,-121.921
 15:36:01.662,eb:33:2e:f9:57:b5, 2085-97-98 00:22:00:2051,0.047,0.011,1.002,-0.122,-0.183,0.183,0.906,-2.906,-121.921
 15:36:01.720,eb:33:2e:f9:57:b5, 2085-97-98 00:21:00:2052,0.048,0.01,1.001,-0.244,-0.122,0.183,0.906,-2.906,-121.921
 15:36:01.720,eb:33:2e:f9:57:b5, 2085-97-98 00:23:00:2051,0.046,0.011,1.002,-0.183,-0.061,0.305,0.906,-2.906,-121.921
 15:36:01.720,eb:33:2e:f9:57:b5, 2085-97-98 00:23:00:2053,0.049,0.011,1.001,-0.305,-0.061,0.244,0.906,-2.906,-121.921
 15:36:01.720,eb:33:2e:f9:57:b5, 2085-97-99 00:23:00:2053,0.048,0.011,1.003,-0.305,-0.061,0.244,0.906,-2.906,-121.921
 15:36:01.753,eb:33:2e:f9:57:b5, 2085-97-102 00:23:00:2054,0.051,0.011,1.002,-0.366,0,0.244,0.906,-2.911,-121.921
 15:36:01.753,eb:33:2e:f9:57:b5, 2085-97-101 00:21:00:2052,0.048,0.011,1.002,-0.366,0.061,0.122,0.906,-2.911,-121.921
 15:36:01.753,eb:33:2e:f9:57:b5, 2085-97-99 00:22:00:2051,0.047,0.01,1.001,-0.366,0.061,0.122,0.906,-2.911,-121.921
 15:36:01.753,eb:33:2e:f9:57:b5, 2085-97-97 00:20:00:2052,0.047,0.01,1.001,-0.427,0.061,0.122,0.906,-2.911,-121.921
 15:36:01.781,eb:33:2e:f9:57:b5, 2085-97-94 00:20:00:2052,0.047,0.011,1.001,-0.61,0.061,0.183,0.906,-2.911,-121.921
 15:36:01.781,eb:33:2e:f9:57:b5, 2085-97-97 00:19:00:2053,0.047,0.009,1.001,-0.61,0,0.244,0.906,-2.911,-121.926
 15:36:01.781,eb:33:2e:f9:57:b5, 2085-97-98 00:18:00:2054,0.05,0.009,1.003,-0.549,0,0.427,0.906,-2.911,-121.926
 15:36:01.781,eb:33:2e:f9:57:b5, 2085-97-104 00:16:00:2060,0.051,0.008,1.005,-0.305,0,0.427,0.906,-2.911,-121.926
 15:36:01.841,eb:33:2e:f9:57:b5, 2085-97-104 00:20:00:2056,0.048,0.009,1.005,0,0.061,0.488,0.901,-2.911,-121.926
 15:36:01.841,eb:33:2e:f9:57:b5, 2085-97-98 00:22:00:2053,0.048,0.01,1.001,-0.061,0.061,0.305,0.901,-2.911,-121.926
 15:36:01.841,eb:33:2e:f9:57:b5, 2085-97-98 00:20:00:2050,0.047,0.01,1.001,-0.183,0,0.244,0.901,-2.911,-121.926
 15:36:01.841,eb:33:2e:f9:57:b5, 2085-97-99 00:21:00:2052,0.048,0.01,1.001,-0.244,0.061,0.244,0.901,-2.911,-121.926
 15:36:01.872,eb:33:2e:f9:57:b5, 2085-97-98 00:19:00:2054,0.047,0.009,1.002,-0.366,0.061,0.305,0.901,-2.911,-121.926
 15:36:01.872,eb:33:2e:f9:57:b5, 2085-97-99 00:20:00:2054,0.05,0.008,1.003,-0.305,0.061,0.427,0.901,-2.911,-121.926
 15:36:01.872,eb:33:2e:f9:57:b5, 2085-97-100 00:20:00:2054,0.049,0.01,1.001,-0.244,0.061,0.427,0.901,-2.911,-121.926
 15:36:01.872,eb:33:2e:f9:57:b5, 2085-97-98 00:18:00:2053,0.047,0.009,1.003,-0.183,0.061,0.366,0.901,-2.911,-121.926
 15:36:01.931,eb:33:2e:f9:57:b5, 2085-97-98 00:19:00:2054,0.048,0.009,1.001,-0.183,0,0.366,0.901,-2.911,-121.926
 15:36:01.931,eb:33:2e:f9:57:b5, 2085-97-102 00:20:00:2056,0.048,0.009,1.002,-0.122,-0.061,0.366,0.901,-2.911,-121.926
 15:36:01.931,eb:33:2e:f9:57:b5, 2085-97-98 00:18:00:2054,0.048,0.009,1.003,-0.122,0.061,0.366,0.901,-2.911,-121.926
 15:36:01.931,eb:33:2e:f9:57:b5, 2085-97-100 00:21:00:2052,0.049,0.009,1.001,-0.061,0.122,0.427,0.901,-2.911,-121.926
 15:36:01.962,eb:33:2e:f9:57:b5, 2085-97-97 00:19:00:2051,0.047,0.01,1.002,-0.183,0.122,0.305,0.895,-2.911,-121.926
 15:36:01.962,eb:33:2e:f9:57:b5, 2085-97-100 00:18:00:2053,0.048,0.009,1.002,-0.244,0.061,0.305,0.895,-2.911,-121.926
 15:36:01.962,eb:33:2e:f9:57:b5, 2085-97-98 00:18:00:2051,0.048,0.009,1.002,-0.244,0.061,0.305,0.895,-2.911,-121.926
 15:36:01.962,eb:33:2e:f9:57:b5, 2085-97-100 00:18:00:2053,0.049,0.01,1.002,-0.305,0.061,0.183,0.895,-2.911,-121.926
 15:36:01.991,eb:33:2e:f9:57:b5, 2085-97-102 00:18:00:2055,0.049,0.008,1.003,-0.305,0,0.244,0.895,-2.911,-121.926
 15:36:01.991,eb:33:2e:f9:57:b5, 2085-97-98 00:19:00:2053,0.048,0.009,1.002,-0.183,0.061,0.183,0.895,-2.911,-121.926
 15:36:01.991,eb:33:2e:f9:57:b5, 2085-97-99 00:17:00:2051,0.047,0.009,1.002,-0.183,0.061,0.122,0.895,-2.911,-121.926
 15:36:01.991,eb:33:2e:f9:57:b5, 2085-97-97 00:18:00:2053,0.048,0.007,1.002,-0.061,0.122,0.244,0.895,-2.911,-121.926
 15:36:02.052,eb:33:2e:f9:57:b5, 2085-97-100 00:21:00:2051,0.049,0.01,1.001,-0.122,0,0.305,0.895,-2.917,-121.926
 15:36:02.052,eb:33:2e:f9:57:b5, 2085-97-101 00:19:00:2054,0.049,0.009,1.002,-0.183,0,0.183,0.895,-2.917,-121.926
 15:36:02.052,eb:33:2e:f9:57:b5, 2085-97-100 00:17:00:2055,0.049,0.008,1.003,-0.122,0,0.183,0.89,-2.917,-121.926
 15:36:02.052,eb:33:2e:f9:57:b5, 2085-97-100 00:19:00:2054,0.049,0.009,1.004,-0.122,0,0.122,0.89,-2.917,-121.926
 15:36:02.081,eb:33:2e:f9:57:b5, 2085-97-100 00:17:00:2053,0.047,0.009,1.002,-0.061,0,0,0.89,-2.917,-121.926
 15:36:02.081,eb:33:2e:f9:57:b5, 2085-97-98 00:19:00:2051,0.048,0.009,1.002,-0.122,0,0,0.89,-2.917,-121.926
 15:36:02.081,eb:33:2e:f9:57:b5, 2085-97-98 00:20:00:2053,0.047,0.01,1.002,-0.061,0,0,0.89,-2.917,-121.926
 15:36:02.081,eb:33:2e:f9:57:b5, 2085-97-97 00:18:00:2051,0.047,0.009,1.001,-0.122,0,0,0.89,-2.917,-121.926
 15:36:02.081,eb:33:2e:f9:57:b5, 2085-113-58 00:244:222:-5460,0.048,0.009,1,-0.244,0,0,0.89,-2.917,-121.926
 15:36:02.112,eb:33:2e:f9:57:b5, 2085-97-95 00:16:00:2052,0.046,0.009,1.001,-0.244,0,0.061,0.89,-2.917,-121.926
 15:36:02.112,eb:33:2e:f9:57:b5, 2085-97-96 00:16:00:2051,0.047,0.007,1.002,-0.183,0.122,0.305,0.89,-2.917,-121.926
 15:36:02.112,eb:33:2e:f9:57:b5, 2085-97-98 00:17:00:2055,0.049,0.009,1.002,-0.183,0.061,0.366,0.89,-2.917,-121.926
 15:36:02.112,eb:33:2e:f9:57:b5, 2085-97-101 00:17:00:2054,0.049,0.008,1.004,-0.183,0.061,0.305,0.89,-2.917,-121.926
 15:36:02.172,eb:33:2e:f9:57:b5, 2085-97-101 00:16:00:2055,0.049,0.008,1.003,-0.122,0,0.366,0.884,-2.917,-121.926
 15:36:02.172,eb:33:2e:f9:57:b5, 2085-97-101 00:17:00:2055,0.049,0.008,1.003,-0.122,0,0.305,0.884,-2.917,-121.926
 15:36:02.172,eb:33:2e:f9:57:b5, 2085-97-99 00:18:00:2053,0.048,0.009,1.003,-0.122,0.061,0.183,0.884,-2.917,-121.926
 15:36:02.172,eb:33:2e:f9:57:b5, 2085-97-99 00:19:00:2054,0.048,0.009,1.002,-0.122,0.122,0.122,0.884,-2.917,-121.926
 15:36:02.202,eb:33:2e:f9:57:b5, 2085-97-96 00:18:00:2051,0.047,0.008,1.002,-0.183,0.061,0.122,0.884,-2.917,-121.926
 15:36:02.202,eb:33:2e:f9:57:b5, 2085-97-95 00:15:00:2054,0.047,0.008,1.003,-0.183,0.061,0.122,0.884,-2.917,-121.932
 15:36:02.202,eb:33:2e:f9:57:b5, 2085-97-99 00:17:00:2054,0.048,0.007,1.002,-0.122,0.061,0.183,0.884,-2.917,-121.926
 15:36:02.202,eb:33:2e:f9:57:b5, 2085-97-98 00:17:00:2054,0.049,0.008,1.003,-0.061,0.061,0.244,0.884,-2.917,-121.932
 15:36:02.231,eb:33:2e:f9:57:b5, 2085-97-100 00:19:00:2054,0.048,0.009,1.002,-0.061,0.061,0.244,0.879,-2.917,-121.932
 15:36:02.231,eb:33:2e:f9:57:b5, 2085-97-97 00:18:00:2054,0.048,0.009,1.003,-0.122,0.122,0.122,0.879,-2.917,-121.932
 15:36:02.231,eb:33:2e:f9:57:b5, 2085-97-96 00:18:00:2055,0.048,0.009,1.003,-0.122,0.061,0.183,0.879,-2.917,-121.932
 15:36:02.231,eb:33:2e:f9:57:b5, 2085-97-97 00:17:00:2051,0.048,0.008,1.003,-0.061,0.061,0.244,0.879,-2.917,-121.932
 15:36:02.291,eb:33:2e:f9:57:b5, 2085-97-99 00:18:00:2053,0.046,0.009,1.002,-0.061,0.122,0.122,0.879,-2.917,-121.932
 15:36:02.291,eb:33:2e:f9:57:b5, 2085-97-96 00:16:00:2052,0.047,0.008,1.002,-0.183,0,0.183,0.879,-2.917,-121.932
 15:36:02.291,eb:33:2e:f9:57:b5, 2085-97-97 00:14:00:2054,0.049,0.007,1.002,-0.183,0,0.183,0.879,-2.917,-121.932
 15:36:02.292,eb:33:2e:f9:57:b5, 2085-97-98 00:17:00:2054,0.048,0.008,1.003,-0.122,0.061,0.305,0.879,-2.917,-121.932
 15:36:02.320,eb:33:2e:f9:57:b5, 2085-97-98 00:15:00:2053,0.048,0.008,1.002,-0.061,0,0.122,0.873,-2.917,-121.932
 15:36:02.320,eb:33:2e:f9:57:b5, 2085-97-97 00:16:00:2054,0.049,0.007,1.003,-0.122,0,0.122,0.873,-2.917,-121.932
 15:36:02.320,eb:33:2e:f9:57:b5, 2085-97-103 00:16:00:2057,0.049,0.007,1.004,0,-0.061,0,0.873,-2.917,-121.932
 15:36:02.320,eb:33:2e:f9:57:b5, 2085-97-98 00:14:00:2054,0.047,0.007,1.004,0,0,0,0.873,-2.917,-121.932
 15:36:02.351,eb:33:2e:f9:57:b5, 2085-97-99 00:16:00:2052,0.049,0.007,1.003,0,0,0.122,0.873,-2.917,-121.932
 15:36:02.351,eb:33:2e:f9:57:b5, 2085-97-99 00:16:00:2052,0.046,0.008,1.002,0,0,0,0.873,-2.917,-121.932
 15:36:02.351,eb:33:2e:f9:57:b5, 2085-97-93 00:13:00:2052,0.047,0.008,1.002,0,0,0.061,0.873,-2.922,-121.932
 15:36:02.351,eb:33:2e:f9:57:b5, 2085-97-100 00:19:00:2053,0.048,0.008,1.001,0,0,0.061,0.873,-2.922,-121.932
 15:36:02.412,eb:33:2e:f9:57:b5, 2085-97-100 00:17:00:2052,0.047,0.008,1.002,-0.061,0,0,0.868,-2.922,-121.932
 15:36:02.412,eb:33:2e:f9:57:b5, 2085-97-95 00:16:00:2050,0.047,0.009,1.001,-0.061,0.061,0,0.868,-2.922,-121.932
 15:36:02.412,eb:33:2e:f9:57:b5, 2085-97-98 00:16:00:2053,0.049,0.007,1.002,-0.122,0,0,0.868,-2.922,-121.932
 15:36:02.412,eb:33:2e:f9:57:b5, 2085-97-99 00:15:00:2053,0.047,0.008,1.003,-0.122,0,0,0.868,-2.922,-121.932
 15:36:02.441,eb:33:2e:f9:57:b5, 2085-97-99 00:16:00:2055,0.049,0.008,1.003,-0.122,0,-0.061,0.868,-2.922,-121.932
 15:36:02.441,eb:33:2e:f9:57:b5, 2085-97-100 00:16:00:2058,0.048,0.007,1.004,-0.061,0,0,0.868,-2.922,-121.932
 15:36:02.441,eb:33:2e:f9:57:b5, 2085-97-99 00:17:00:2055,0.048,0.008,1.003,0.061,0.061,0.061,0.868,-2.922,-121.932
 15:36:02.441,eb:33:2e:f9:57:b5, 2085-97-98 00:16:00:2052,0.047,0.008,1.003,0.122,0.061,0,0.868,-2.922,-121.932
 15:36:02.471,eb:33:2e:f9:57:b5, 2085-97-95 00:17:00:2050,0.047,0.009,1.001,0.061,0.061,0,0.862,-2.922,-121.932
 15:36:02.471,eb:33:2e:f9:57:b5, 2085-97-97 00:17:00:2053,0.047,0.008,1.002,0,0.061,0,0.862,-2.922,-121.932
 15:36:02.471,eb:33:2e:f9:57:b5, 2085-97-95 00:14:00:2052,0.047,0.008,1.001,-0.061,0.061,0,0.862,-2.922,-121.932
 15:36:02.471,eb:33:2e:f9:57:b5, 2085-97-97 00:14:00:2053,0.048,0.008,1.001,0,0.061,0.122,0.862,-2.922,-121.932
 15:36:02.531,eb:33:2e:f9:57:b5, 2085-97-97 00:17:00:2052,0.046,0.008,1.003,0,0,0.305,0.862,-2.922,-121.932
 15:36:02.531,eb:33:2e:f9:57:b5, 2085-97-96 00:19:00:2050,0.047,0.009,1.002,0,0,0.366,0.862,-2.922,-121.932
 15:36:02.531,eb:33:2e:f9:57:b5, 2085-97-98 00:19:00:2051,0.048,0.009,1,-0.122,-0.061,0.305,0.862,-2.922,-121.932
 15:36:02.531,eb:33:2e:f9:57:b5, 2085-97-100 00:16:00:2054,0.049,0.007,1.002,-0.183,0,0.305,0.862,-2.922,-121.932
 15:36:02.563,eb:33:2e:f9:57:b5, 2085-97-98 00:18:00:2053,0.048,0.009,1.002,-0.183,0,0.122,0.857,-2.922,-121.932
 15:36:02.563,eb:33:2e:f9:57:b5, 2085-97-98 00:15:00:2053,0.048,0.008,1.003,-0.244,0,0.061,0.857,-2.922,-121.932
 15:36:02.563,eb:33:2e:f9:57:b5, 2085-97-98 00:15:00:2052,0.046,0.007,1.002,-0.183,0,0.061,0.857,-2.922,-121.932
 15:36:02.563,eb:33:2e:f9:57:b5, 2085-97-93 00:18:00:2051,0.046,0.008,1.001,-0.183,0,0.183,0.857,-2.922,-121.932
 15:36:02.591,eb:33:2e:f9:57:b5, 2085-97-99 00:17:00:2051,0.048,0.008,1.001,-0.305,0,0.244,0.857,-2.922,-121.932
 15:36:02.591,eb:33:2e:f9:57:b5, 2085-97-99 00:15:00:2052,0.048,0.008,1.001,-0.305,0,0.305,0.857,-2.922,-121.932
 15:36:02.591,eb:33:2e:f9:57:b5, 2085-97-95 00:13:00:2053,0.047,0.007,1.002,-0.366,0,0.244,0.857,-2.922,-121.932
 15:36:02.591,eb:33:2e:f9:57:b5, 2085-97-97 00:16:00:2050,0.048,0.007,1.002,-0.305,0,0.366,0.857,-2.922,-121.932
 15:36:02.652,eb:33:2e:f9:57:b5, 2085-97-99 00:16:00:2050,0.046,0.008,1.005,-0.427,0,0.061,0.857,-2.922,-121.932
 15:36:02.652,eb:33:2e:f9:57:b5, 2085-97-100 00:16:00:2052,0.047,0.006,1.002,-0.305,0,0.366,0.857,-2.922,-121.932
 15:36:02.652,eb:33:2e:f9:57:b5, 2085-97-96 00:16:00:2051,0.044,0.007,1.001,-0.366,0,0.305,0.851,-2.922,-121.932
 15:36:02.652,eb:33:2e:f9:57:b5, 2085-97-95 00:17:00:2050,0.049,0.007,1.001,-0.488,-0.061,0.427,0.851,-2.922,-121.932
 15:36:02.681,eb:33:2e:f9:57:b5, 2085-97-100 00:15:00:2051,0.049,0.009,1.001,-0.61,-0.122,0.305,0.851,-2.922,-121.932
 15:36:02.681,eb:33:2e:f9:57:b5, 2085-97-99 00:10:00:2056,0.048,0.005,1.003,-0.61,-0.183,0.244,0.851,-2.922,-121.932
 15:36:02.681,eb:33:2e:f9:57:b5, 2085-97-101 00:16:00:2055,0.05,0.007,1.002,-0.549,-0.183,0.427,0.851,-2.922,-121.932
 15:36:02.681,eb:33:2e:f9:57:b5, 2085-113-58 00:18:223:-5370,0.05,0.007,1.003,-0.488,-0.183,0.244,0.851,-2.922,-121.932
 15:36:02.711,eb:33:2e:f9:57:b5, 2085-97-97 00:11:00:2055,0.045,0.007,1.004,-0.427,-0.183,0.183,0.851,-2.922,-121.932
 15:36:02.711,eb:33:2e:f9:57:b5, 2085-97-98 00:15:00:2051,0.049,0.005,1.003,-0.305,-0.122,0.427,0.851,-2.922,-121.932
 15:36:02.711,eb:33:2e:f9:57:b5, 2085-97-100 00:14:00:2052,0.047,0.007,1.001,-0.427,-0.183,0.305,0.846,-2.922,-121.932
 15:36:02.711,eb:33:2e:f9:57:b5, 2085-97-93 00:12:00:2050,0.047,0.007,1.002,-0.488,-0.061,0.305,0.846,-2.922,-121.932
 15:36:02.772,eb:33:2e:f9:57:b5, 2085-97-94 00:16:00:2049,0.046,0.008,1.001,-0.61,-0.122,0.427,0.846,-2.922,-121.932
 15:36:02.772,eb:33:2e:f9:57:b5, 2085-97-94 00:12:00:2050,0.046,0.007,1,-0.916,-0.305,0.305,0.846,-2.922,-121.932
 15:36:02.772,eb:33:2e:f9:57:b5, 2085-97-98 00:13:00:2050,0.048,0.005,1.002,-0.916,-0.305,0.488,0.846,-2.922,-121.932
 15:36:02.772,eb:33:2e:f9:57:b5, 2085-97-99 00:13:00:2052,0.05,0.006,1.001,-1.038,-0.366,0.427,0.846,-2.922,-121.937
 15:36:02.830,eb:33:2e:f9:57:b5, 2085-97-107 00:04:00:2067,0.053,0.005,1.005,-0.916,-0.549,0.244,0.84,-2.922,-121.932
 15:36:02.830,eb:33:2e:f9:57:b5, 2085-97-108 00:09:00:2065,0.051,0,1.01,-0.183,-0.183,0.61,0.84,-2.922,-121.937
 15:36:02.830,eb:33:2e:f9:57:b5, 2085-97-102 00:14:00:2056,0.05,0.007,1.005,0,-0.061,0.427,0.84,-2.922,-121.932
 15:36:02.830,eb:33:2e:f9:57:b5, 2085-97-103 00:10:00:2057,0.049,0.004,1.004,0.061,-0.244,0.244,0.84,-2.922,-121.937
 15:36:02.832,eb:33:2e:f9:57:b5, 2085-97-95 00:15:00:2049,0.047,0.007,1.002,0.122,0,0.549,0.84,-2.922,-121.932
 15:36:02.832,eb:33:2e:f9:57:b5, 2085-97-96 00:17:00:2045,0.046,0.008,1,-0.061,0.061,0.427,0.84,-2.922,-121.937
 15:36:02.832,eb:33:2e:f9:57:b5, 2085-97-97 00:15:00:2048,0.048,0.008,1,-0.366,0.122,0.366,0.835,-2.922,-121.937
 15:36:02.832,eb:33:2e:f9:57:b5, 2085-97-100 00:11:00:2052,0.049,0.006,1.001,-0.549,0.061,0.366,0.835,-2.922,-121.937
 15:36:02.891,eb:33:2e:f9:57:b5, 2085-97-102 00:13:00:2053,0.05,0.006,1.002,-0.61,0.122,0.305,0.835,-2.922,-121.937
 15:36:02.891,eb:33:2e:f9:57:b5, 2085-97-101 00:11:00:2054,0.05,0.006,1.002,-0.671,0,0.244,0.835,-2.922,-121.937
 15:36:02.891,eb:33:2e:f9:57:b5, 2085-97-103 00:08:00:2058,0.05,0.005,1.003,-0.549,0,0.183,0.835,-2.928,-121.937
 15:36:02.891,eb:33:2e:f9:57:b5, 2085-97-102 00:12:00:2054,0.047,0.004,1.004,-0.366,0.122,0.183,0.835,-2.928,-121.937
 15:36:02.922,eb:33:2e:f9:57:b5, 2085-97-97 00:12:00:2050,0.047,0.006,1.001,-0.305,0,0.183,0.829,-2.928,-121.937
 15:36:02.922,eb:33:2e:f9:57:b5, 2085-97-97 00:13:00:2046,0.047,0.005,1.001,-0.427,-0.061,0.244,0.829,-2.928,-121.937
 15:36:02.922,eb:33:2e:f9:57:b5, 2085-97-98 00:08:00:2052,0.047,0.005,1.001,-0.549,-0.122,0.122,0.829,-2.928,-121.937
 15:36:02.923,eb:33:2e:f9:57:b5, 2085-97-103 00:07:00:2054,0.048,0.004,1.001,-0.549,-0.244,0.305,0.829,-2.928,-121.937
 15:36:02.951,eb:33:2e:f9:57:b5, 2085-97-98 00:10:00:2052,0.047,0.004,1.003,-0.427,-0.061,0.366,0.829,-2.928,-121.937
 15:36:02.951,eb:33:2e:f9:57:b5, 2085-97-102 00:10:00:2053,0.05,0.004,1.002,-0.488,-0.122,0.488,0.829,-2.928,-121.937
 15:36:02.951,eb:33:2e:f9:57:b5, 2085-97-103 00:12:00:2054,0.05,0.005,1.001,-0.549,-0.122,0.427,0.824,-2.928,-121.937
 15:36:02.952,eb:33:2e:f9:57:b5, 2085-97-99 00:12:00:2049,0.047,0.007,1.001,-0.671,-0.122,0.183,0.824,-2.928,-121.937
 15:36:03.013,eb:33:2e:f9:57:b5, 2085-97-99 00:08:00:2050,0.049,0.005,1.001,-0.793,-0.183,0,0.824,-2.928,-121.937
 15:36:03.013,eb:33:2e:f9:57:b5, 2085-97-99 00:06:00:2056,0.049,0.003,1.003,-0.854,-0.183,0,0.824,-2.928,-121.937
 15:36:03.013,eb:33:2e:f9:57:b5, 2085-97-107 00:03:00:2058,0.05,0.002,1.005,-0.549,-0.244,0.244,0.824,-2.928,-121.937
 15:36:03.013,eb:33:2e:f9:57:b5, 2085-97-101 00:04:00:2057,0.048,0.002,1.007,-0.244,-0.061,0.244,0.824,-2.928,-121.937
 15:36:03.041,eb:33:2e:f9:57:b5, 2085-97-100 00:09:00:2052,0.05,0.003,1.003,-0.183,-0.183,0.244,0.818,-2.928,-121.937
 15:36:03.041,eb:33:2e:f9:57:b5, 2085-97-101 00:09:00:2052,0.048,0.004,1.002,-0.183,-0.305,0.122,0.818,-2.928,-121.937
 15:36:03.041,eb:33:2e:f9:57:b5, 2085-97-98 00:08:00:2051,0.049,0.004,1.002,-0.183,-0.183,0.244,0.818,-2.928,-121.937
 15:36:03.041,eb:33:2e:f9:57:b5, 2085-97-99 00:08:00:2048,0.048,0.005,1.002,-0.183,-0.183,0.244,0.818,-2.928,-121.937
 15:36:03.072,eb:33:2e:f9:57:b5, 2085-97-101 00:10:00:2052,0.049,0.005,1.001,-0.366,-0.305,0.122,0.813,-2.928,-121.937
 15:36:03.072,eb:33:2e:f9:57:b5, 2085-97-102 00:07:00:2053,0.049,0.003,1.001,-0.427,-0.305,0.061,0.813,-2.928,-121.937
 15:36:03.072,eb:33:2e:f9:57:b5, 2085-97-100 00:09:00:2053,0.049,0.004,1.001,-0.488,-0.183,0.122,0.813,-2.928,-121.937
 15:36:03.072,eb:33:2e:f9:57:b5, 2085-97-103 00:06:00:2054,0.049,0.003,1.002,-0.488,-0.305,0,0.813,-2.928,-121.937
 15:36:03.131,eb:33:2e:f9:57:b5, 2085-97-102 00:02:00:2057,0.051,0.002,1.003,-0.366,-0.244,0,0.807,-2.933,-121.937
 15:36:03.131,eb:33:2e:f9:57:b5, 2085-97-101 00:08:00:2054,0.048,0.002,1.004,-0.183,-0.122,0.183,0.807,-2.933,-121.937
 15:36:03.131,eb:33:2e:f9:57:b5, 2085-97-98 00:06:00:2053,0.05,0.004,1.002,-0.305,-0.244,0.061,0.807,-2.933,-121.937
 15:36:03.131,eb:33:2e:f9:57:b5, 2085-97-102 00:06:00:2054,0.049,0.002,1.003,-0.305,-0.244,0.061,0.807,-2.933,-121.937
 15:36:03.163,eb:33:2e:f9:57:b5, 2085-97-101 00:08:00:2052,0.049,0.003,1.002,-0.305,-0.183,0.122,0.802,-2.933,-121.937
 15:36:03.163,eb:33:2e:f9:57:b5, 2085-97-99 00:09:00:2051,0.049,0.004,1.001,-0.366,-0.244,0.061,0.802,-2.933,-121.937
 15:36:03.163,eb:33:2e:f9:57:b5, 2085-97-103 00:03:00:2055,0.052,0.003,1.001,-0.488,-0.366,0,0.802,-2.933,-121.937
 15:36:03.163,eb:33:2e:f9:57:b5, 2085-97-108 00:00:00:2063,0.052,0,1.006,-0.244,-0.305,0.061,0.802,-2.933,-121.937
 15:36:03.191,eb:33:2e:f9:57:b5, 2085-97-103 00:08:00:2055,0.05,0.002,1.005,0.122,-0.061,0.305,0.802,-2.933,-121.937
 15:36:03.191,eb:33:2e:f9:57:b5, 2085-97-102 00:07:00:2053,0.051,0.002,1.003,0.183,-0.183,0.061,0.802,-2.933,-121.937
 15:36:03.191,eb:33:2e:f9:57:b5, 2085-97-102 00:05:00:2051,0.049,0.003,1.003,0.244,-0.122,0.122,0.797,-2.933,-121.937
 15:36:03.191,eb:33:2e:f9:57:b5, 2085-97-101 00:07:00:2050,0.048,0.004,1.001,0.183,-0.122,0.061,0.797,-2.933,-121.937
 15:36:03.252,eb:33:2e:f9:57:b5, 2085-97-98 00:07:00:2049,0.048,0.004,1.001,0,-0.122,0.122,0.797,-2.933,-121.937
 15:36:03.252,eb:33:2e:f9:57:b5, 2085-97-102 00:07:00:2051,0.05,0.003,1.001,0,-0.061,0.183,0.797,-2.933,-121.937
 15:36:03.252,eb:33:2e:f9:57:b5, 2085-97-104 00:06:00:2054,0.05,0.003,1.002,-0.061,0,0.122,0.791,-2.933,-121.937
 15:36:03.252,eb:33:2e:f9:57:b5, 2085-97-103 00:00:00:2057,0.052,0.001,1.003,0,0,0.061,0.791,-2.933,-121.937
 15:36:03.281,eb:33:2e:f9:57:b5, 2085-97-104 00:07:00:2054,0.05,0.002,1.004,0.122,0.061,0.244,0.791,-2.939,-121.937
 15:36:03.281,eb:33:2e:f9:57:b5, 2085-97-104 00:05:00:2056,0.051,0.003,1.003,0.122,-0.061,0,0.791,-2.939,-121.937
 15:36:03.281,eb:33:2e:f9:57:b5, 2085-97-103 00:09:00:2051,0.051,0.004,1.002,0.244,0,0,0.786,-2.939,-121.937
 15:36:03.281,eb:33:2e:f9:57:b5, 2085-97-104 00:06:00:2052,0.051,0.004,1.001,0.122,-0.061,-0.244,0.786,-2.939,-121.937
 15:36:03.341,eb:33:2e:f9:57:b5, 2085-97-104 00:03:00:2056,0.051,0.002,1.003,0.244,0,-0.183,0.786,-2.939,-121.937
 15:36:03.341,eb:33:2e:f9:57:b5, 2085-97-103 00:02:00:2056,0.049,0.001,1.004,0.366,0,-0.183,0.786,-2.939,-121.937
 15:36:03.341,eb:33:2e:f9:57:b5, 2085-97-101 00:03:00:2055,0.048,0.001,1.004,0.61,0,0.061,0.78,-2.939,-121.937
 15:36:03.341,eb:33:2e:f9:57:b5, 2085-97-99 00:07:00:2050,0.049,0.003,1.001,0.671,0,0.305,0.78,-2.939,-121.937
 15:36:03.341,eb:33:2e:f9:57:b5, 2085-97-104 00:11:00:2049,0.051,0.004,1.001,0.61,0,0.427,0.78,-2.939,-121.937
 15:36:03.372,eb:33:2e:f9:57:b5, 2085-113-81 00:28:62:-597,0.051,0.005,1,0.427,-0.061,0.183,0.78,-2.939,-121.937
 15:36:03.372,eb:33:2e:f9:57:b5, 2085-97-106 00:12:00:2050,0.052,0.005,1.001,0.305,0,0.122,0.78,-2.939,-121.937
 15:36:03.372,eb:33:2e:f9:57:b5, 2085-97-106 00:11:00:2049,0.052,0.006,1.001,0,0.061,-0.122,0.775,-2.939,-121.937
 15:36:03.372,eb:33:2e:f9:57:b5, 2085-97-104 00:10:00:2051,0.05,0.005,1.001,-0.061,0,-0.366,0.775,-2.939,-121.937
 15:36:03.402,eb:33:2e:f9:57:b5, 2085-97-101 00:06:00:2052,0.048,0.004,1.001,-0.122,0,-0.427,0.775,-2.944,-121.937
 15:36:03.402,eb:33:2e:f9:57:b5, 2085-97-98 00:04:00:2052,0.048,0.002,1.002,-0.061,0.061,-0.366,0.775,-2.944,-121.937
 15:36:03.402,eb:33:2e:f9:57:b5, 2085-97-99 00:06:00:2052,0.05,0.003,1.002,0,0,-0.061,0.775,-2.944,-121.937
 15:36:03.402,eb:33:2e:f9:57:b5, 2085-97-103 00:08:00:2054,0.05,0.003,1.003,0.061,0,0.061,0.775,-2.944,-121.937
 15:36:03.462,eb:33:2e:f9:57:b5, 2085-97-103 00:08:00:2053,0.05,0.003,1.003,0.061,0,0,0.769,-2.944,-121.937
