Time,Device name,Chip Time(),Acceleration X(g),Acceleration Y(g),Acceleration Z(g),Angular velocity X(°/s),Angular velocity Y(°/s),Angular velocity Z(°/s),Angle X(°),Angle Y(°),Angle Z(°)
 15:42:32.939,eb:33:2e:f9:57:b5, 2085-97-01 04:225:253:3332,0.413,-0.175,1.737,78.552,24.841,-21.79,-0.604,-0.374,124.991
 15:42:32.939,eb:33:2e:f9:57:b5, 2085-97-142 02:66:00:2507,-0.016,-0.078,1.359,89.905,56.458,-36.011,0.269,0.082,124.706
 15:42:32.939,eb:33:2e:f9:57:b5, 2085-97-253 253:08:01:1252,-0.495,0.158,1.007,81.726,89.722,-40.71,1.137,0.851,124.349
 15:42:32.939,eb:33:2e:f9:57:b5, 2085-97-137 250:35:01:673,-0.754,0.114,0.35,59.387,80.505,-26.733,1.84,1.736,124.03
 15:42:32.941,eb:33:2e:f9:57:b5, 2085-97-120 249:167:01:401,-0.823,0.204,0.25,28.625,72.144,-7.874,2.258,2.499,123.926
 15:42:32.941,eb:33:2e:f9:57:b5, 2085-97-92 250:64:01:595,-0.459,0.166,0.202,2.869,48.279,11.047,2.401,3.104,123.981
 15:42:32.941,eb:33:2e:f9:57:b5, 2085-97-78 254:62:01:1779,-0.006,0.183,0.521,-16.174,26.123,18.921,2.329,3.433,124.2
 15:42:32.941,eb:33:2e:f9:57:b5, 2085-97-98 01:247:255:2969,0.335,0.073,1.178,-20.325,42.542,19.531,2.142,3.768,124.409
 15:42:32.970,eb:33:2e:f9:57:b5, 2085-97-183 03:11:255:3786,0.519,-0.069,1.676,-3.174,59.631,10.498,2.032,4.279,124.623
 15:42:32.970,eb:33:2e:f9:57:b5, 2085-97-207 03:10:255:3488,0.325,-0.156,1.922,27.71,72.388,-2.869,2.17,4.949,124.678
 15:42:32.970,eb:33:2e:f9:57:b5, 2085-97-132 255:77:00:1678,-0.56,-0.028,1.179,44.739,87.585,-21.301,2.554,5.773,124.618
 15:42:32.970,eb:33:2e:f9:57:b5, 2085-97-49 249:25:01:-057,-0.979,0.115,0.471,34.546,86.731,-19.226,2.944,6.691,124.442
 15:42:33.031,eb:33:2e:f9:57:b5, 2085-97-255 246:123:02:-745,-1.249,0.194,-0.356,4.517,47.424,-9.094,3.126,7.333,124.365
 15:42:33.031,eb:33:2e:f9:57:b5, 2085-113-58 00:00:226:-8565,-1.198,0.322,-0.217,-33.325,24.902,9.705,2.966,7.69,124.393
 15:42:33.031,eb:33:2e:f9:57:b5, 2085-97-218 248:11:01:1220,-0.476,0.246,0.136,-50.476,16.602,17.883,2.758,7.784,124.514
 15:42:33.031,eb:33:2e:f9:57:b5, 2085-97-13 00:80:255:3183,0.445,0.037,0.968,-58.838,-5.432,20.813,2.208,7.883,124.733
 15:42:33.061,eb:33:2e:f9:57:b5, 2085-97-51 04:87:254:3615,0.326,-0.149,1.862,-39.246,19.653,13.489,1.73,7.899,124.948
 15:42:33.061,eb:33:2e:f9:57:b5, 2085-97-21 01:71:255:2728,-0.099,-0.158,1.493,-16.479,37.842,2.869,1.489,8.262,125.035
 15:42:33.061,eb:33:2e:f9:57:b5, 2085-97-140 254:171:255:2255,-0.162,-0.07,1.141,-7.141,26.733,2.991,1.39,8.608,125.107
 15:42:33.061,eb:33:2e:f9:57:b5, 2085-97-82 255:171:255:2311,-0.018,-0.065,1.139,-2.258,21.301,3.784,1.346,8.828,125.14
 15:42:33.092,eb:33:2e:f9:57:b5, 2085-97-251 255:03:00:2310,-0.018,-0.01,1.123,1.526,11.353,1.587,1.357,8.97,125.217
 15:42:33.092,eb:33:2e:f9:57:b5, 2085-97-60 255:23:00:2155,-0.146,0.032,1.1,0.854,0.122,0.183,1.373,9.042,125.233
 15:42:33.092,eb:33:2e:f9:57:b5, 2085-97-230 254:104:255:2641,-0.065,-0.06,1.175,1.465,-34.729,-1.465,1.379,8.822,125.255
 15:42:33.092,eb:33:2e:f9:57:b5, 2085-97-04 254:63:253:3666,-0.413,-0.171,1.523,10.62,3.296,12.329,1.445,8.646,125.299
 15:42:33.151,eb:33:2e:f9:57:b5, 2085-97-245 250:36:252:4718,-0.663,-0.415,1.939,30.823,26.672,26.428,1.681,8.784,125.53
 15:42:33.151,eb:33:2e:f9:57:b5, 2085-97-250 254:156:252:5952,0.199,-0.291,2.151,76.66,74.829,46.814,2.291,9.525,125.986
 15:42:33.151,eb:33:2e:f9:57:b5, 2085-97-255 01:179:253:8580,1,-0.701,4.287,147.766,139.404,58.167,3.549,10.151,126.535
 15:42:33.151,eb:33:2e:f9:57:b5, 2085-97-05 18:154:252:11592,2.962,-0.279,4.673,246.948,64.331,23.132,5.669,11.398,127.128
 15:42:33.181,eb:33:2e:f9:57:b5, 2085-97-232 25:218:251:11201,3.437,-0.503,5.878,348.389,238.037,3.662,8.773,12.859,127.496
 15:42:33.181,eb:33:2e:f9:57:b5, 2085-97-73 27:06:255:10089,3.01,-0.601,5.206,426.636,287.781,-50.903,12.75,15.507,127.7
 15:42:33.181,eb:33:2e:f9:57:b5, 2085-97-109 18:218:02:7481,2.101,0.616,4.283,511.169,341.614,-138.977,17.463,18.962,127.705
 15:42:33.181,eb:33:2e:f9:57:b5, 2085-97-73 13:41:05:8219,1.086,0.588,3.871,608.032,279.846,-241.028,22.714,22.396,126.755
 15:42:33.211,eb:33:2e:f9:57:b5, 2085-97-202 02:132:02:13883,-0.003,0.314,4.889,658.508,334.106,-276.306,28.581,26.329,125.579
 15:42:33.211,eb:33:2e:f9:57:b5, 2085-97-44 01:208:15:10479,-0.249,0.955,7.264,622.62,419.983,-176.941,35.145,30.8,125.508
 15:42:33.211,eb:33:2e:f9:57:b5, 2085-97-14 255:61:06:14682,2.415,2.546,5.487,454.285,328.735,100.342,42.149,33.959,128.381
 15:42:33.211,eb:33:2e:f9:57:b5, 2085-97-58 31:09:232:18970,3.041,-4.02,9.639,439.026,72.388,105.103,47.241,34.31,130.38
 15:42:33.271,eb:33:2e:f9:57:b5, 2085-97-06 13:184:243:9333,1.68,-2.459,4.539,400.33,1371.582,532.715,58.513,37.167,141.828
 15:42:33.271,eb:33:2e:f9:57:b5, 2085-97-195 33:207:249:7342,5.44,-1.648,3.367,355.713,301.758,491.028,68.84,36.414,153.188
 15:42:33.271,eb:33:2e:f9:57:b5, 2085-97-124 39:97:06:10733,4.306,-0.098,4.425,366.76,198.181,329.407,74.564,33.047,156.978
 15:42:33.271,eb:33:2e:f9:57:b5, 2085-97-05 33:255:10:4572,4.245,1.636,4.161,349.792,629.639,280.518,81.502,30.921,162.96
 15:42:33.300,eb:33:2e:f9:57:b5, 2085-97-95 28:103:01:3035,2.905,0.916,1.321,202.393,347.046,49.866,87.155,29.839,168.772
 15:42:33.300,eb:33:2e:f9:57:b5, 2085-97-156 18:03:252:-315,1.72,-0.113,0.727,31.372,453.247,-42.48,90.566,29.96,173.331
 15:42:33.300,eb:33:2e:f9:57:b5, 2085-97-122 10:227:241:652,1.087,-1.093,-0.212,-105.164,188.538,-129.028,92.038,30.817,177.275
 15:42:33.300,eb:33:2e:f9:57:b5, 2085-97-228 07:05:234:2258,0.734,-2.347,0.809,-175.659,60.791,-109.009,91.049,32.091,178.264
 15:42:33.362,eb:33:2e:f9:57:b5, 2085-97-17 02:22:228:1865,0.036,-3.076,1.111,-218.933,151.55,-5.676,89.747,32.635,179.572
 15:42:33.362,eb:33:2e:f9:57:b5, 2085-97-16 255:183:223:180,0.178,-3.791,0.375,-264.343,149.658,139.038,88.336,31.937,-178.5
 15:42:33.362,eb:33:2e:f9:57:b5, 2085-97-32 06:182:229:091,1.246,-3.811,-0.048,-315.552,54.932,305.481,86.094,29.636,-177.182
 15:42:33.362,eb:33:2e:f9:57:b5, 2085-97-159 14:242:237:104,2.659,-2.797,0.216,-388.062,74.524,401.855,82.958,26.071,-176.243
 15:42:33.421,eb:33:2e:f9:57:b5, 2085-97-189 26:16:250:-1257,3.559,-1.46,-0.316,-470.154,36.56,365.295,79.239,22.22,-174.809
 15:42:33.421,eb:33:2e:f9:57:b5, 2085-97-211 28:172:02:-1829,3.626,-0.209,-0.649,-554.81,60.547,266.785,74.383,19.319,-173.71
 15:42:33.421,eb:33:2e:f9:57:b5, 2085-97-15 30:124:04:-2382,3.951,0.562,-1.141,-620.483,-32.776,139.343,68.763,17.512,-172.744
 15:42:33.421,eb:33:2e:f9:57:b5, 2085-97-08 32:74:03:-1732,3.794,0.449,-1.007,-687.561,-129.761,12.878,61.957,16.452,-173.425
 15:42:33.451,eb:33:2e:f9:57:b5, 2085-97-56 28:218:03:-2210,3.176,0.378,-0.906,-764.038,-109.619,-100.159,54.261,16.265,-174.787
 15:42:33.451,eb:33:2e:f9:57:b5, 2085-97-105 23:126:05:-1898,2.439,0.518,-1.047,-804.016,-151.794,-187.927,45.703,16.573,-176.825
 15:42:33.451,eb:33:2e:f9:57:b5, 2085-97-123 12:191:06:-403,0.401,0.73,-0.562,-734.619,-196.472,-187.317,37.084,16.518,-179.665
 15:42:33.451,eb:33:2e:f9:57:b5, 2085-97-142 252:43:05:-2142,-0.63,0.583,-0.375,-512.634,-127.197,-79.102,30.24,15.947,178.248
 15:42:33.451,eb:33:2e:f9:57:b5, 2085-97-66 249:190:11:-2866,-0.797,1.169,-1.586,-336.121,-396.118,-15.381,25.867,13.81,176.803
 15:42:33.451,eb:33:2e:f9:57:b5, 2085-97-145 249:187:18:-2404,-1.001,1.879,-1.236,-276.489,-455.2,50.171,22.5,9.525,175.089
 15:42:33.451,eb:33:2e:f9:57:b5, 2085-97-24 244:57:29:-2421,-2.106,2.929,-1.178,-253.662,-323.792,89.6,19.748,5.658,174.413
 15:42:33.451,eb:33:2e:f9:57:b5, 2085-97-244 233:121:43:-1899,-3.068,4.532,-1.172,-215.393,-250.61,94.36,17.391,2.769,174.529
 15:42:33.540,eb:33:2e:f9:57:b5, 2085-97-169 231:03:52:870,-3.127,6.22,-0.371,-194.214,-328.857,-46.997,15.364,-0.126,174.001
 15:42:33.540,eb:33:2e:f9:57:b5, 2085-97-84 228:150:51:3112,-3.789,6.531,1.182,-140.015,-260.559,-136.169,13.716,-2.873,172.266
 15:42:33.540,eb:33:2e:f9:57:b5, 2085-97-26 224:39:48:4684,-4.398,6.28,1.794,-65.674,-207.703,-182.861,12.854,-4.653,170.2
 15:42:33.540,eb:33:2e:f9:57:b5, 2085-97-15 217:30:44:5722,-5.152,5.787,2.579,8.85,-126.038,-175.659,12.783,-5.889,168.074
 15:42:33.542,eb:33:2e:f9:57:b5, 2085-97-156 214:62:36:6480,-5.292,5.115,3.04,86.426,-76.721,-153.992,13.497,-6.487,166.284
 15:42:33.542,eb:33:2e:f9:57:b5, 2085-97-126 213:216:24:4405,-5.744,3.855,2.819,133.179,39.246,-105.164,14.793,-6.317,165.02
 15:42:33.542,eb:33:2e:f9:57:b5, 2085-97-72 194:187:96:5482,-1.269,3.917,2.177,264.893,217.102,117.126,16.485,-5.312,164.872
 15:42:33.542,eb:33:2e:f9:57:b5, 2085-97-141 19:53:16:10417,1.248,9.186,1.393,-370.056,-1037.415,-296.814,16.738,-8.234,163.553
 15:42:33.570,eb:33:2e:f9:57:b5, 2085-97-218 14:98:243:759,0.891,-1.002,8.346,-201.05,803.162,303.772,14.019,-8.306,163.235
 15:42:33.570,eb:33:2e:f9:57:b5, 2085-97-79 19:56:244:840,3.174,-2.021,0.22,-155.701,16.296,-10.01,12.145,-4.142,166.328
 15:42:33.570,eb:33:2e:f9:57:b5, 2085-97-241 27:23:06:10561,1.614,1.177,5.227,-66.65,-58.472,-83.008,11.294,-5.74,165.465
 15:42:33.570,eb:33:2e:f9:57:b5, 2085-97-245 03:122:253:1007,0.039,-0.304,3.064,3.967,449.463,-14.282,10.964,-2.856,165.69
 15:42:33.661,eb:33:2e:f9:57:b5, 2085-97-221 251:244:252:5182,-1.174,-0.283,2.534,59.57,89.966,-116.089,11.343,-0.945,165.196
 15:42:33.661,eb:33:2e:f9:57:b5, 2085-97-150 248:207:255:1128,-0.527,0.011,1.123,104.309,207.031,-48.401,12.25,1.472,165.146
 15:42:33.661,eb:33:2e:f9:57:b5, 2085-97-83 252:132:00:2794,-0.427,-0.157,1.01,117.798,19.592,-79.407,13.315,2.148,164.454
 15:42:33.661,eb:33:2e:f9:57:b5, 2085-97-231 253:169:02:1811,-0.109,0.222,1.062,122.925,59.753,-59.387,14.513,2.856,163.965
 15:42:33.663,eb:33:2e:f9:57:b5, 2085-97-245 254:22:02:2301,-0.158,0.25,0.962,122.314,11.841,-65.674,15.705,3.285,163.438
 15:42:33.663,eb:33:2e:f9:57:b5, 2085-97-241 254:176:01:3013,-0.165,0.286,1.243,127.136,1.648,-64.88,16.913,3.549,162.828
 15:42:33.663,eb:33:2e:f9:57:b5, 2085-97-174 254:149:255:4692,-0.054,0.056,1.807,147.461,3.052,-56.274,18.237,3.741,162.279
 15:42:33.663,eb:33:2e:f9:57:b5, 2085-97-132 01:137:253:7541,0.492,-0.137,2.996,200.439,2.014,-51.636,19.935,3.911,161.768
 15:42:33.750,eb:33:2e:f9:57:b5, 2085-97-90 06:36:249:11102,1.229,-0.498,4.521,297.546,15.991,-54.504,22.401,4.164,161.323
 15:42:33.750,eb:33:2e:f9:57:b5, 2085-97-220 16:210:238:17063,4.029,-1.38,6.762,450.745,35.645,-66.467,26.131,4.664,160.867
 15:42:33.750,eb:33:2e:f9:57:b5, 2085-97-119 54:232:232:18568,9.62,-2.855,9.112,633.911,88.562,-137.146,31.602,5.658,160.323
 15:42:33.750,eb:33:2e:f9:57:b5, 2085-97-71 90:07:252:12910,10.649,-1.833,7.858,786.804,377.991,-292.542,38.754,8.718,159.873
 15:42:33.750,eb:33:2e:f9:57:b5, 2085-97-203 61:127:03:10787,4.311,-0.445,5.587,820.801,675.476,-494.019,47.12,15.48,160.582
 15:42:33.752,eb:33:2e:f9:57:b5, 2085-113-81 00:102:28:-3685,4.372,3.564,4.333,755.188,567.993,-456.787,55.926,23.489,163.13
 15:42:33.752,eb:33:2e:f9:57:b5, 2085-97-41 26:240:42:8421,2.668,4.802,5.022,709.229,343.811,-502.563,59.722,26.697,163.564
 15:42:33.752,eb:33:2e:f9:57:b5, 2085-97-07 30:91:47:-3417,0.757,6.958,1.303,514.465,369.69,-311.89,67.5,31.904,166.163
 15:42:33.752,eb:33:2e:f9:57:b5, 2085-97-157 32:189:214:25347,2.137,-6.77,6.374,458.374,-1484.802,-417.664,65.319,33.415,156.747
 15:42:33.780,eb:33:2e:f9:57:b5, 2085-97-178 242:103:226:3555,1.76,-6.29,7.276,571.045,1020.569,280.823,69.318,34.025,153.594
 15:42:33.780,eb:33:2e:f9:57:b5, 2085-97-53 32:122:235:17709,3.699,-3.319,5.778,483.276,-350.403,177.307,76.41,32.377,157.599
 15:42:33.780,eb:33:2e:f9:57:b5, 2085-97-86 22:69:253:12750,1.696,-1.502,7.275,425.232,633.545,381.165,82.711,29.652,161.208
 15:42:33.780,eb:33:2e:f9:57:b5, 2085-97-109 15:199:07:12115,3.03,0.003,6.328,456.604,682.617,367.554,90.939,26.279,169.393
 15:42:33.841,eb:33:2e:f9:57:b5, 2085-97-238 22:196:09:2455,1.655,1.598,3.243,325.989,646.423,116.76,97.855,23.478,176.528
 15:42:33.841,eb:33:2e:f9:57:b5, 2085-97-05 03:86:03:-2387,-0.271,1.153,-0.33,174.438,506.653,18.982,102.794,21.572,-177.38
 15:42:33.841,eb:33:2e:f9:57:b5, 2085-97-177 254:130:247:2716,0.176,-0.249,-0.359,-32.959,-195.068,-137.39,103.969,21.962,-175.886
 15:42:33.841,eb:33:2e:f9:57:b5, 2085-97-199 01:200:238:5538,-0.31,-1.759,2.467,-259.033,-143.738,-121.277,101.437,23.912,-178.154
 15:42:33.899,eb:33:2e:f9:57:b5, 2085-97-227 247:157:235:5846,-0.774,-2.415,2.855,-419.189,151.367,-32.471,98.069,24.598,-177.693
 15:42:33.899,eb:33:2e:f9:57:b5, 2085-97-233 249:99:237:1696,-0.692,-2.354,1.423,-494.507,252.258,69.153,94.488,24.033,-175.029
 15:42:33.899,eb:33:2e:f9:57:b5, 2085-97-118 251:05:237:2035,-0.236,-2.323,0.837,-551.514,137.817,152.71,89.995,22.819,-173.117
 15:42:33.899,eb:33:2e:f9:57:b5, 2085-97-134 02:222:240:2014,0.742,-2.175,0.939,-615.234,159.302,267.517,84.738,20.693,-171.436
 15:42:33.902,eb:33:2e:f9:57:b5, 2085-97-218 04:102:247:2263,1.058,-1.471,1.3,-693.359,260.376,361.023,78.986,17.809,-168.876
 15:42:33.902,eb:33:2e:f9:57:b5, 2085-97-08 15:79:00:2573,3.866,-0.586,1.311,-760.803,255.31,366.028,72.664,14.777,-165.295
 15:42:33.902,eb:33:2e:f9:57:b5, 2085-97-13 42:105:17:2440,5.472,1.465,0.948,-861.938,-105.591,38.086,65.045,12.936,-163.608
 15:42:33.902,eb:33:2e:f9:57:b5, 2085-97-168 32:151:25:2481,3.303,3.093,1.872,-918.213,157.471,7.69,55.794,12.777,-164.41
 15:42:33.962,eb:33:2e:f9:57:b5, 2085-97-92 30:254:27:-10134,3.85,3.503,-1.878,-846.863,576.538,-5.676,48.126,15.661,-159.884
 15:42:33.962,eb:33:2e:f9:57:b5, 2085-97-127 37:107:13:-3591,4.847,2.381,-3.961,-810.73,-477.051,-301.514,39.348,16.809,-161.329
 15:42:33.962,eb:33:2e:f9:57:b5, 2085-97-177 27:182:02:-257,2.478,1.031,-0.088,-780.762,-361.755,-306.58,29.778,14.354,-167.124
 15:42:33.962,eb:33:2e:f9:57:b5, 2085-97-207 14:89:00:-3860,1.387,0.097,-1.31,-623.352,-225.525,-261.23,21.885,13.799,-170.546
 15:42:33.991,eb:33:2e:f9:57:b5, 2085-97-225 04:61:03:-4182,-0.165,0.217,-1.987,-488.342,-467.285,-224.792,15.634,10.898,-174.183
 15:42:33.991,eb:33:2e:f9:57:b5, 2085-97-219 249:239:08:-5279,-1.055,0.717,-2.349,-363.098,-499.39,-61.829,11.003,6.592,-176.622
 15:42:33.991,eb:33:2e:f9:57:b5, 2085-97-31 247:156:20:-2030,-2.009,1.668,-2.125,-256.47,-722.473,128.113,7.905,0.461,-177.171
 15:42:33.991,eb:33:2e:f9:57:b5, 2085-97-81 235:184:46:5688,-2.952,3.421,1.332,-172.729,-636.963,312.988,5.652,-7.267,-175.759
 15:42:34.050,eb:33:2e:f9:57:b5, 2085-97-42 235:72:67:4007,-1.9,7.128,1.412,-238.953,-455.505,82.52,3.192,-11.744,-174.117
 15:42:34.050,eb:33:2e:f9:57:b5, 2085-97-75 239:65:78:7704,-2.627,9.225,3.392,-231.873,-446.716,-110.046,0.945,-16.985,-174.655
 15:42:34.050,eb:33:2e:f9:57:b5, 2085-97-207 228:04:74:8795,-4.601,9.807,3.913,-216.797,-283.325,-289.368,-0.61,-20.363,-176.797
 15:42:34.050,eb:33:2e:f9:57:b5, 2085-97-182 211:122:63:10921,-6.394,8.721,4.729,-146.179,-181.152,-399.78,-1.077,-22.626,179.451
 15:42:34.080,eb:33:2e:f9:57:b5, 2085-97-60 198:226:45:12217,-7.762,6.83,5.819,-33.875,-71.838,-399.292,-0.203,-24,175.029
 15:42:34.080,eb:33:2e:f9:57:b5, 2085-97-86 192:248:27:10797,-7.798,4.58,5.967,92.651,66.284,-296.021,1.708,-24.016,171.249
 15:42:34.080,eb:33:2e:f9:57:b5, 2085-97-47 197:83:14:5138,-7.026,2.597,4.021,186.157,204.895,-138.428,4.059,-22.445,169.069
 15:42:34.080,eb:33:2e:f9:57:b5, 2085-97-25 199:129:82:19824,10.625,1.904,1.688,369.568,316.65,149.231,6.515,-19.913,169.019
 15:42:34.141,eb:33:2e:f9:57:b5, 2085-97-151 125:99:63:8234,4.17,1.782,7.481,-392.761,-940.552,-421.021,3.56,-23.676,168.25
 15:42:34.141,eb:33:2e:f9:57:b5, 2085-97-60 21:77:225:-644,-1.186,-4.172,8.509,-198.12,-1239.502,-77.576,0.214,-29.866,168.69
 15:42:34.141,eb:33:2e:f9:57:b5, 2085-97-215 211:170:231:3883,-8.835,-3.467,-2.125,94.727,239.319,-347.473,1.121,-26.521,165.987
 15:42:34.141,eb:33:2e:f9:57:b5, 2085-97-215 205:23:239:-1624,-3.03,-2.245,5.231,120.483,709.229,-207.886,3.95,-23.61,162.801
 15:42:34.141,eb:33:2e:f9:57:b5, 2085-97-167 08:07:15:-6393,3.312,0.352,-3.6,208.496,-184.998,62.622,5.416,-18.199,163.295
 15:42:34.141,eb:33:2e:f9:57:b5, 2085-97-62 34:205:11:8030,4.067,0.329,1.46,208.679,-1107.239,-156.921,8.328,-27.318,160.389
 15:42:34.141,eb:33:2e:f9:57:b5, 2085-97-117 15:69:255:3357,-0.051,1.257,3.068,117.859,72.144,-83.557,10.871,-31.097,158.494
 15:42:34.141,eb:33:2e:f9:57:b5, 2085-97-11 250:170:253:3734,-0.963,-0.654,1.265,217.834,119.141,105.408,12.299,-29.888,159.109
 15:42:34.201,eb:33:2e:f9:57:b5, 2085-97-77 251:00:254:6433,-0.227,0.018,2.979,222.961,198.914,65.491,13.958,-28.96,160.582
 15:42:34.201,eb:33:2e:f9:57:b5, 2085-97-228 254:201:250:6514,0.63,-0.64,2.546,221.863,299.622,19.714,15.48,-26.043,161.801
 15:42:34.201,eb:33:2e:f9:57:b5, 2085-97-51 12:254:247:13726,2.282,-0.692,4.868,321.594,130.92,-39.062,18.001,-24.258,162.213
 15:42:34.201,eb:33:2e:f9:57:b5, 2085-97-84 28:110:236:18951,5.848,-1.549,8.167,528.809,217.041,-50.842,22.187,-22.346,162.46
 15:42:34.230,eb:33:2e:f9:57:b5, 2085-97-192 69:145:225:18251,11.125,-3.627,9.519,743.896,155.273,-190.43,28.856,-20.259,162.109
 15:42:34.230,eb:33:2e:f9:57:b5, 2085-97-229 93:93:241:16290,9.055,-2.569,8.715,948.608,379.028,-416.748,37.776,-16.534,160.851
 15:42:34.230,eb:33:2e:f9:57:b5, 2085-97-168 41:144:01:10002,3.984,-1.719,6.711,1149.109,919.861,-474.548,48.301,-8.24,162.12
 15:42:34.231,eb:33:2e:f9:57:b5, 2085-97-146 33:79:36:12154,3.45,2.365,5.971,1007.69,198.486,-539.978,59.178,-0.566,163.713
 15:42:34.261,eb:33:2e:f9:57:b5, 2085-97-215 25:109:21:13305,8.841,6.752,4.745,547.424,35.034,-246.582,66.78,3.554,162.735
 15:42:34.261,eb:33:2e:f9:57:b5, 2085-97-32 41:200:230:25193,3.519,-1.794,7.858,544.128,-771.423,-446.655,69.906,5.499,157.346
 15:42:34.261,eb:33:2e:f9:57:b5, 2085-97-59 18:54:223:4819,2.929,-4.323,3.854,404.968,1085.571,175.842,75.35,8.641,161.406
 15:42:34.261,eb:33:2e:f9:57:b5, 2085-97-229 43:107:223:16259,6.34,-3.648,5.274,482.422,-289.062,60.486,80.244,7.471,163.965
 15:42:34.350,eb:33:2e:f9:57:b5, 2085-97-57 45:193:233:15845,3.109,-3.782,8.896,533.875,246.155,117.004,85.309,6.449,163.213
 15:42:34.350,eb:33:2e:f9:57:b5, 2085-97-250 19:132:244:6661,3.566,-2.052,4.488,448.73,444.702,115.601,90.775,5.312,168.195
 15:42:34.350,eb:33:2e:f9:57:b5, 2085-97-82 25:03:244:1344,2.14,-1.605,1.284,171.448,392.822,16.174,94.026,4.779,172.145
 15:42:34.350,eb:33:2e:f9:57:b5, 2085-97-48 12:83:243:1368,1.272,-1.36,0.271,-55.298,241.516,-54.565,94.697,4.537,175.688
 15:42:34.353,eb:33:2e:f9:57:b5, 2085-97-208 09:139:233:5105,0.792,-2.248,1.838,-210.51,-98.328,-147.339,93.235,5.751,175.858
 15:42:34.353,eb:33:2e:f9:57:b5, 2085-97-49 00:74:226:6206,-0.156,-3.276,2.77,-325.317,17.456,-109.253,90.33,7.103,175.298
 15:42:34.353,eb:33:2e:f9:57:b5, 2085-97-99 252:246:226:4090,-0.785,-3.746,2.458,-377.686,188.843,51.819,86.94,7.355,176.71
 15:42:34.353,eb:33:2e:f9:57:b5, 2085-97-68 248:11:228:3891,-0.888,-3.544,1.779,-442.749,127.747,173.767,82.952,6.262,178.434
 15:42:34.441,eb:33:2e:f9:57:b5, 2085-97-214 250:166:231:3696,-0.3,-3.311,2.037,-518.799,96.68,286.011,78.261,4.109,179.83
 15:42:34.441,eb:33:2e:f9:57:b5, 2085-97-06 02:100:238:4610,0.851,-2.618,1.812,-613.281,-13.794,363.098,72.548,0.945,-178.929
 15:42:34.441,eb:33:2e:f9:57:b5, 2085-97-20 09:21:248:5108,1.475,-1.686,2.652,-710.266,131.348,438.171,65.825,-2.626,-177.116
 15:42:34.441,eb:33:2e:f9:57:b5, 2085-97-219 22:54:09:5018,4.083,-0.179,2.463,-804.626,80.322,381.348,57.914,-5.806,-173.886
 15:42:34.469,eb:33:2e:f9:57:b5, 2085-97-183 34:255:17:8397,3.948,1.794,2.887,-937.195,-165.833,134.46,48.961,-8.031,-173.254
 15:42:34.469,eb:33:2e:f9:57:b5, 2085-97-222 26:217:33:4615,3.281,3.53,4.382,-960.571,348.938,208.008,39.249,-8.893,-171.343
 15:42:34.469,eb:33:2e:f9:57:b5, 2085-97-12 27:133:37:-4160,2.927,4.582,-0.46,-983.704,289.612,3.113,28.971,-6.103,-168.162
 15:42:34.469,eb:33:2e:f9:57:b5, 2085-97-82 16:165:29:-2581,1.253,4.333,-1.837,-923.767,-131.775,-154.175,19.385,-5.636,-169.08
 15:42:34.472,eb:33:2e:f9:57:b5, 2085-97-18 06:164:19:-4076,0.336,3.074,-1.528,-778.076,-197.754,-200.989,11.102,-6.636,-171.216
 15:42:34.472,eb:33:2e:f9:57:b5, 2085-97-179 252:238:17:-1662,-1.213,1.812,-1.564,-591.98,-418.701,-125.305,4.548,-9.789,-173.507
 15:42:34.472,eb:33:2e:f9:57:b5, 2085-97-01 239:150:27:-1106,-2.615,2.455,-0.384,-472.839,-286.072,37.72,-0.593,-13.343,-174.034
 15:42:34.472,eb:33:2e:f9:57:b5, 2085-97-201 233:166:38:-1522,-3.22,4.185,-1.216,-406.799,-389.648,70.374,-5.257,-16.282,-173.216
 15:42:34.560,eb:33:2e:f9:57:b5, 2085-97-203 228:241:53:-1182,-2.444,5.663,0.337,-304.382,-389.221,139.282,-9.278,-20.215,-171.541
 15:42:34.560,eb:33:2e:f9:57:b5, 2085-97-248 238:147:66:5999,-2.134,7.458,1.998,-173.157,-603.882,102.783,-12.618,-25.928,-169.008
 15:42:34.560,eb:33:2e:f9:57:b5, 2085-97-18 246:55:82:8087,-0.548,9.405,2.996,-81.97,-451.843,44.067,-14.859,-30.339,-166.723
 15:42:34.560,eb:33:2e:f9:57:b5, 2085-97-45 251:73:92:7299,-0.776,10.943,4.219,-45.166,-235.962,-123.047,-15.798,-33.871,-166.091
 15:42:34.592,eb:33:2e:f9:57:b5, 2085-97-106 247:26:92:6185,-1.397,11.831,3.211,-30.701,-135.315,-329.285,-14.897,-36.129,-168.267
 15:42:34.593,eb:33:2e:f9:57:b5, 2085-97-79 240:112:72:6506,-2.799,10.501,3.005,3.906,-108.032,-505.981,-12.112,-38.309,-173.128
 15:42:34.593,eb:33:2e:f9:57:b5, 2085-97-101 227:201:43:6454,-4.268,7.357,3.115,63.904,-34.485,-559.326,-7.493,-39.913,-179.879
 15:42:34.593,eb:33:2e:f9:57:b5, 2085-97-192 215:192:15:5469,-3.529,3.448,2.949,138.794,58.899,-483.643,-2.054,-40.248,173.304
 15:42:34.593,eb:33:2e:f9:57:b5, 2085-97-255 32:179:232:14885,8.933,9.929,11.515,-308.594,-948.181,-342.163,-0.654,-44.16,171.81
 15:42:34.593,eb:33:2e:f9:57:b5, 2085-97-56 02:24:253:-971,-5.813,8.479,2.024,26.489,-1757.874,-33.264,-1.648,-55.591,169.854
 15:42:34.593,eb:33:2e:f9:57:b5, 2085-97-255 196:88:232:-2074,-8.928,-5.17,-0.823,221.924,347.717,-14.099,2.692,-61.188,165.311
 15:42:34.593,eb:33:2e:f9:57:b5, 2085-97-42 221:01:254:-647,2.737,-4.882,-3.413,324.158,-485.291,-5.859,6.207,-59.843,163.916
 15:42:34.620,eb:33:2e:f9:57:b5, 2085-97-07 40:23:25:6227,3.296,3.734,1.385,275.208,-828.491,-130.432,12.898,-70.312,160.95
 15:42:34.620,eb:33:2e:f9:57:b5, 2085-97-89 16:98:05:3284,1.356,0.278,2.362,103.943,227.966,-244.69,22.148,-70.62,152.523
 15:42:34.620,eb:33:2e:f9:57:b5, 2085-97-126 08:58:01:2116,0.938,0.68,1.055,87.769,159.546,-307.495,27.532,-67.917,147.997
 15:42:34.620,eb:33:2e:f9:57:b5, 2085-97-90 00:100:247:5345,-0.688,0.158,2.033,110.046,-107.971,-249.329,33.975,-66.572,142.191
 15:42:34.712,eb:33:2e:f9:57:b5, 2085-97-237 244:07:241:10131,-0.503,-2.025,2.616,331.238,-34.302,117.737,38.644,-66.275,139.01
 15:42:34.712,eb:33:2e:f9:57:b5, 2085-113-81 00:95:09:18586,0.91,-0.295,6.048,366.455,489.99,77.148,36.277,-65.594,146.091
 15:42:34.712,eb:33:2e:f9:57:b5, 2085-97-112 12:157:246:12559,2.81,-1.212,4.129,435.913,371.033,43.762,35.129,-64.028,149.645
 15:42:34.712,eb:33:2e:f9:57:b5, 2085-97-213 38:178:234:17162,7.571,-1.67,7.68,585.144,167.969,-104.492,37.991,-61.754,152.139
 15:42:34.712,eb:33:2e:f9:57:b5, 2085-97-202 80:201:238:17214,11.923,-3.161,8.432,749.084,119.141,-297.668,46.038,-59.447,150.705
 15:42:34.712,eb:33:2e:f9:57:b5, 2085-97-186 83:219:252:17426,6.697,-0.402,8.366,875.305,530.396,-522.766,54.3,-54.064,150.623
 15:42:34.712,eb:33:2e:f9:57:b5, 2085-97-83 32:245:36:15094,4.179,1.871,8.4,943.542,975.098,-407.593,58.59,-45.401,157.159
 15:42:34.712,eb:33:2e:f9:57:b5, 2085-97-113 34:235:79:6421,5.842,7.298,4.213,743.347,314.697,-384.277,63.627,-38.568,162.213
 15:42:34.771,eb:33:2e:f9:57:b5, 2085-97-46 79:176:11:14796,2.728,3.795,2.818,165.283,-750.671,-743.286,70.79,-34.75,157.896
 15:42:34.771,eb:33:2e:f9:57:b5, 2085-97-238 44:120:250:5197,3.133,-0.345,14.41,583.618,18.25,-344.727,80.739,-31.882,150.139
 15:42:34.771,eb:33:2e:f9:57:b5, 2085-97-248 11:145:251:15666,6.312,-3.904,-0.499,686.646,-43.701,348.572,84.045,-31.218,153.715
 15:42:34.771,eb:33:2e:f9:57:b5, 2085-97-83 56:98:245:24178,5.462,-1.396,8.801,673.523,-303.711,112.366,92.807,-32.739,149.293
 15:42:34.921,eb:33:2e:f9:57:b5, 2085-97-126 40:163:245:16396,4.446,-1.478,10.138,736.023,587.341,161.621,97.971,-34.772,152.82
 15:42:34.921,eb:33:2e:f9:57:b5, 2085-97-161 34:62:251:11146,4.105,-1.204,7.171,736.511,422.913,30.579,102.096,-36.442,158.412
 15:42:34.921,eb:33:2e:f9:57:b5, 2085-97-144 26:187:251:1219,2.305,-0.473,3.091,483.032,541.992,-78.979,104.634,-37.244,164.372
 15:42:34.921,eb:33:2e:f9:57:b5, 2085-97-149 13:88:250:-1534,1.56,-0.764,-1.013,157.104,281.433,-167.847,103.969,-37.117,170.211
 15:42:34.921,eb:33:2e:f9:57:b5, 2085-97-72 14:71:243:6378,1.95,-1.035,1.318,-116.516,-210.022,-307.373,103.738,-34.601,170.524
 15:42:34.921,eb:33:2e:f9:57:b5, 2085-97-93 14:102:234:7424,1.311,-2.137,3.694,-302.979,-143.555,-333.191,102.107,-30.981,169.124
 15:42:34.921,eb:33:2e:f9:57:b5, 2085-97-25 07:104:225:6420,0.561,-3.397,3.389,-437.256,-78.491,-311.89,98.591,-27.581,168.569
 15:42:34.921,eb:33:2e:f9:57:b5, 2085-97-105 00:252:222:3946,-0.336,-3.927,2.597,-563.782,61.096,-229.065,93.411,-24.846,168.635
 15:42:34.979,eb:33:2e:f9:57:b5, 2085-97-74 253:134:221:325,-0.143,-4.211,1.14,-711.121,271.179,-62.683,86.182,-23.45,170.656
 15:42:34.979,eb:33:2e:f9:57:b5, 2085-97-11 03:180:222:-1435,0.812,-4.403,-0.407,-856.812,360.107,146.973,76.679,-23.412,174.298
 15:42:34.979,eb:33:2e:f9:57:b5, 2085-97-173 05:170:227:221,1.214,-3.905,-0.654,-977.966,269.653,272.644,65.687,-24.417,178.401
 15:42:34.979,eb:33:2e:f9:57:b5, 2085-97-28 18:71:242:3489,3.723,-2.668,0.801,-975.403,-15.869,360.474,54.399,-26.642,-178.264
 15:42:34.982,eb:33:2e:f9:57:b5, 2085-97-09 42:101:04:6084,6.013,-0.604,2.561,-1047.974,-382.385,179.993,44.412,-30.427,-178.358
 15:42:34.983,eb:33:2e:f9:57:b5, 2085-97-134 38:183:10:8505,3.024,1.434,3.342,-1139.282,-244.446,85.144,34.091,-33.695,179.934
 15:42:34.983,eb:33:2e:f9:57:b5, 2085-97-06 28:46:13:3689,4.781,1.14,4.067,-950.5,-61.646,278.442,22.736,-35.497,-178.522
 15:42:34.983,eb:33:2e:f9:57:b5, 2085-97-25 40:202:15:4234,4.666,1.964,0.81,-882.812,-542.542,162.842,12.706,-39.249,-176.99
 15:42:34.985,eb:33:2e:f9:57:b5, 2085-97-221 32:31:23:5116,3.463,2.35,2.774,-842.651,-428.345,164.368,3.356,-44.588,-175.908
 15:42:34.985,eb:33:2e:f9:57:b5, 2085-97-215 17:174:24:1851,1.382,3.408,1.721,-789.612,-340.515,127.747,-6.603,-48.181,-173.557
 15:42:34.985,eb:33:2e:f9:57:b5, 2085-97-152 11:33:27:-1618,0.926,3.023,-0.196,-612.793,-405.64,129.15,-15.831,-51.185,-170.645
 15:42:34.985,eb:33:2e:f9:57:b5, 2085-97-234 252:70:30:5598,-1.402,3.555,0.661,-443.298,-773.499,177.856,-26.18,-56.706,-164.372
 15:42:34.987,eb:33:2e:f9:57:b5, 2085-97-167 235:224:44:6000,-3.819,4.639,3.595,-376.404,-249.207,317.749,-38.26,-59.727,-154.726
 15:42:34.987,eb:33:2e:f9:57:b5, 2085-97-110 228:104:58:5781,-2.943,6.853,1.65,-415.161,-447.021,145.081,-48.356,-59.733,-147.656
 15:42:34.987,eb:33:2e:f9:57:b5, 2085-97-82 231:172:71:7825,-3.14,8.069,4.373,-379.761,-404.785,92.285,-60.864,-61.886,-137.856
 15:42:34.987,eb:33:2e:f9:57:b5, 2085-97-56 233:29:81:7939,-2.703,9.605,3.606,-291.26,-342.346,28.32,-70.851,-62.715,-130.369
 15:42:35.072,eb:33:2e:f9:57:b5, 2085-97-18 235:27:83:8069,-2.594,10.448,3.961,-169.067,-246.887,-53.467,-78.464,-63.638,-124.277
 15:42:35.072,eb:33:2e:f9:57:b5, 2085-97-27 235:103:79:7925,-2.638,10.191,3.892,-61.523,-177.002,-125.122,-83.491,-64.852,-119.888
 15:42:35.072,eb:33:2e:f9:57:b5, 2085-97-158 234:124:74:7630,-2.46,9.635,3.813,62.439,-127.808,-176.941,-86.424,-66.539,-116.587
 15:42:35.072,eb:33:2e:f9:57:b5, 2085-97-226 239:226:66:6951,-1.76,8.953,3.641,181.641,-80.2,-216.431,-87.308,-68.527,-114.153
 15:42:35.073,eb:33:2e:f9:57:b5, 2085-97-241 240:79:54:4141,-2.245,7.674,2.861,254.517,24.048,-262.512,-85.424,-70.966,-113.725
 15:42:35.073,eb:33:2e:f9:57:b5, 2085-97-238 235:154:35:308,-2.667,5.703,1.005,287.903,95.276,-280.273,-79.233,-73.592,-117.279
 15:42:35.073,eb:33:2e:f9:57:b5, 2085-97-95 245:227:11:-1302,1.931,3.221,-0.272,323.73,46.265,-269.348,-71.082,-76.091,-122.547
 15:42:35.073,eb:33:2e:f9:57:b5, 2085-97-206 61:168:12:13988,9.974,6.558,11.152,-704.163,-723.328,-621.948,-93.532,-77.953,-99.558
 15:42:35.131,eb:33:2e:f9:57:b5, 2085-97-81 213:56:205:2936,-10.707,9.265,1.922,-171.082,-1299.866,-837.402,-109.111,-77.558,-82.26
 15:42:35.131,eb:33:2e:f9:57:b5, 2085-97-84 162:70:230:1220,-2.407,-12.257,-1.251,120.911,72.205,-410.217,-179.423,-77.959,-13.337
 15:42:35.131,eb:33:2e:f9:57:b5, 2085-97-28 236:169:01:-1366,-0.271,-2.421,-5.267,441.04,26.611,578.552,-154.957,-81.414,-35.233
 15:42:35.131,eb:33:2e:f9:57:b5, 2085-97-122 43:21:28:-674,7.398,1.772,-0.226,460.266,-793.823,177.734,-154.188,-75.317,-31.613
 15:42:35.190,eb:33:2e:f9:57:b5, 2085-97-30 39:125:07:10776,1.865,2.602,3.198,206.238,-963.684,-397.888,-166.86,-66.396,-14.892
 15:42:35.190,eb:33:2e:f9:57:b5, 2085-97-48 07:202:247:4443,1.335,-1.158,3.753,166.748,195.007,-268.86,-174.88,-65.369,-4.741
 15:42:35.190,eb:33:2e:f9:57:b5, 2085-97-189 244:43:231:13882,0.017,-0.983,1.059,551.758,-462.158,91.125,-172.299,-63.545,-3.466
 15:42:35.190,eb:33:2e:f9:57:b5, 2085-97-153 15:194:239:9139,3.28,-0.942,8.235,522.583,430.908,-9.583,-163.488,-63.083,-6.328
 15:42:35.251,eb:33:2e:f9:57:b5, 2085-97-88 44:181:229:16914,7.851,-2.248,6.452,691.895,142.944,-154.968,-156.874,-65.632,-6.757
 15:42:35.251,eb:33:2e:f9:57:b5, 2085-97-252 79:74:236:18272,10.955,-3.923,8.182,929.993,185.791,-392.334,-152.529,-68.456,-2.477
 15:42:35.251,eb:33:2e:f9:57:b5, 2085-97-192 78:140:10:17956,7.554,-0.814,9.625,964.417,546.143,-553.833,-150.754,-73.916,5.916
 15:42:35.251,eb:33:2e:f9:57:b5, 2085-97-173 45:191:42:19889,2.584,2.659,9.337,932.861,531.494,-572.998,-151.095,-82.172,15.804
 15:42:35.253,eb:33:2e:f9:57:b5, 2085-97-32 30:234:71:6932,5.623,8.853,6.893,702.026,597.229,-355.347,153.49,-88.605,79.805
 15:42:35.253,eb:33:2e:f9:57:b5, 2085-97-53 62:95:62:16291,1.233,2.104,3.209,486.694,-811.707,-518.25,98.811,-84.172,137.961
 15:42:35.253,eb:33:2e:f9:57:b5, 2085-97-236 72:159:250:8621,8.395,-0.679,14.564,252.625,686.951,-467.896,122.739,-76.723,118.674
 15:42:35.253,eb:33:2e:f9:57:b5, 2085-97-222 06:179:208:26916,5.878,-2.901,2.818,490.54,132.019,-238.037,92.593,-75.998,152.715
 15:42:35.311,eb:33:2e:f9:57:b5, 2085-97-148 54:71:219:20029,6.71,-5.021,9.181,691.284,-68.665,-164.124,98.3,-74.344,153.413
 15:42:35.311,eb:33:2e:f9:57:b5, 2085-97-130 39:247:221:13503,3.549,-4.531,8.919,661.011,421.387,1.465,97.751,-73.905,161.038
 15:42:35.311,eb:33:2e:f9:57:b5, 2085-97-206 27:63:236:6204,4.031,-3.352,4.21,509.583,401.733,82.825,88.242,-74.872,177.122
 15:42:35.311,eb:33:2e:f9:57:b5, 2085-97-33 31:227:245:1686,3.031,-1.798,1.595,217.163,408.325,29.297,76.421,-74.756,-167.157
 15:42:35.313,eb:33:2e:f9:57:b5, 2085-97-202 20:112:245:3101,2.518,-1.238,1.141,8.057,110.718,-128.601,68.923,-73.411,-158.483
 15:42:35.313,eb:33:2e:f9:57:b5, 2085-97-17 19:240:234:5045,2.118,-1.939,2.117,-128.54,-187.805,-248.84,72.559,-71.647,-163.147
 15:42:35.313,eb:33:2e:f9:57:b5, 2085-97-138 14:52:227:5056,0.87,-3.277,2.49,-246.765,-166.687,-233.826,77.695,-69.686,-170.717
 15:42:35.313,eb:33:2e:f9:57:b5, 2085-97-150 02:165:220:5606,0.224,-4.217,2.718,-368.225,-58.411,-163.33,78.135,-67.808,-174.71
 15:42:35.370,eb:33:2e:f9:57:b5, 2085-97-89 03:97:222:2886,0.368,-4.352,2.129,-451.66,-8.118,-51.331,75.207,-66.852,-176.001
 15:42:35.370,eb:33:2e:f9:57:b5, 2085-97-53 01:32:222:601,0.091,-4.184,0.786,-593.445,75.562,103.516,68.719,-66.945,-174.781
 15:42:35.370,eb:33:2e:f9:57:b5, 2085-97-110 01:97:224:102,0.491,-4.291,0.052,-732.3,149.658,310.364,57.129,-68.275,-169.536
 15:42:35.370,eb:33:2e:f9:57:b5, 2085-97-117 06:74:233:1818,1.339,-3.366,0.218,-807.19,44.617,404.236,40.507,-70.252,-160.137
 15:42:35.370,eb:33:2e:f9:57:b5, 2085-97-59 19:81:242:4609,4.227,-2.433,1.694,-857.3,-157.166,392.212,22.83,-72.944,-150.331
 15:42:35.460,eb:33:2e:f9:57:b5, 2085-113-81 00:180:219:18711,5.417,-0.229,2.275,-939.148,-430.603,162.292,6.46,-76.602,-142.625
 15:42:35.460,eb:33:2e:f9:57:b5, 2085-97-188 34:68:05:9627,2.888,0.641,2.763,-960.938,-384.521,159.607,-1.082,-78.745,-139.812
 15:42:35.460,eb:33:2e:f9:57:b5, 2085-97-112 21:176:11:6130,3.2,1.182,5.291,-893.372,139.526,354.126,-25.845,-78.898,-123.821
 15:42:35.460,eb:33:2e:f9:57:b5, 2085-97-72 29:72:09:2324,4.121,1.285,0.933,-897.156,-247.131,202.515,-45.027,-77.267,-113.5
 15:42:35.462,eb:33:2e:f9:57:b5, 2085-97-207 34:73:17:3505,4.027,1.468,1.798,-897.888,-354.309,184.204,-72.175,-77.552,-94.823
 15:42:35.462,eb:33:2e:f9:57:b5, 2085-97-79 20:95:24:595,1.164,2.914,1.019,-916.199,-166.321,149.353,-92.708,-76.174,-83.156
 15:42:35.462,eb:33:2e:f9:57:b5, 2085-97-164 05:25:26:-4094,0.362,3.233,-0.839,-777.527,-80.139,134.949,-103.134,-74.608,-81.156
 15:42:35.462,eb:33:2e:f9:57:b5, 2085-97-156 253:52:26:448,-0.893,3.208,-1.625,-593.201,-627.258,133.728,-119.438,-71.982,-71.219
 15:42:35.490,eb:33:2e:f9:57:b5, 2085-97-10 244:208:37:5608,-2.543,3.853,1.967,-498.169,-450.012,260.132,-133.967,-66.742,-61.326
 15:42:35.490,eb:33:2e:f9:57:b5, 2085-97-173 229:193:56:6145,-3.051,5.942,2.835,-479.98,-308.899,242.432,-138.911,-62.622,-61.26
 15:42:35.490,eb:33:2e:f9:57:b5, 2085-97-154 232:74:74:10142,-2.826,8.033,4.432,-391.785,-491.882,146.912,-145.772,-57.87,-58.42
 15:42:35.490,eb:33:2e:f9:57:b5, 2085-97-41 234:146:94:11352,-2.802,10.658,4.921,-248.718,-415.833,63.904,-150.667,-53.635,-56.266
 15:42:35.522,eb:33:2e:f9:57:b5, 2085-97-229 233:141:102:11782,-2.688,12.526,5.721,-84.656,-318.787,-62.5,-154.429,-50.416,-53.498
 15:42:35.522,eb:33:2e:f9:57:b5, 2085-97-37 233:34:98:12575,-3.116,12.638,6.158,28.625,-224.609,-212.646,-157.319,-48.455,-49.785
 15:42:35.522,eb:33:2e:f9:57:b5, 2085-97-88 226:67:84:10418,-4.165,11.645,5.731,64.636,-51.025,-324.036,-160.225,-48.23,-45.154
 15:42:35.522,eb:33:2e:f9:57:b5, 2085-97-103 221:236:52:7583,-4.536,8.525,4.522,116.821,72.876,-369.69,-163.065,-49.477,-40.139
 15:42:35.610,eb:33:2e:f9:57:b5, 2085-97-251 217:38:23:2650,-0.749,4.674,2.53,213.867,186.218,-340.515,-165.146,-51.812,-35.261
 15:42:35.610,eb:33:2e:f9:57:b5, 2085-97-83 33:91:31:8592,7.227,7.933,10.926,331.238,-943.115,-588.989,-166.97,-49.878,-28.559
 15:42:35.610,eb:33:2e:f9:57:b5, 2085-97-02 236:250:02:9582,-11.207,9.13,4.586,295.898,-1055.176,-326.233,-169.371,-49.796,-21.682
 15:42:35.610,eb:33:2e:f9:57:b5, 2085-97-219 200:113:204:-1077,-8.18,-2.677,-4.538,143.86,-264.282,-746.338,-174.919,-41.627,-12.458
 15:42:35.673,eb:33:2e:f9:57:b5, 2085-97-08 04:198:41:-10411,2.15,-4.405,-1.599,451.721,246.765,696.35,-169.958,-36.354,-13.656
 15:42:35.673,eb:33:2e:f9:57:b5, 2085-97-26 49:214:23:9021,5.111,0.513,6.073,294.922,-860.229,-116.516,-166.415,-27.361,-13.288
 15:42:35.673,eb:33:2e:f9:57:b5, 2085-97-176 38:17:12:4821,2.604,1.77,1.938,144.043,141.357,-366.516,-165.536,-27.971,-11.058
 15:42:35.673,eb:33:2e:f9:57:b5, 2085-97-221 05:187:00:4399,0.145,0.845,3.489,143.127,403.564,-369.324,-165.839,-30.405,-7.174
 15:42:35.673,eb:33:2e:f9:57:b5, 2085-97-172 04:93:250:2805,1.007,-0.056,1.443,205.139,1.892,-301.27,-165.828,-34.294,-4.092
 15:42:35.673,eb:33:2e:f9:57:b5, 2085-97-88 248:86:226:8274,-0.755,-1.64,1.614,300.415,-464.722,-208.923,-165.41,-31.893,-0.385
 15:42:35.673,eb:33:2e:f9:57:b5, 2085-97-81 14:115:246:16503,3.99,-2.371,7.278,721.252,-69.397,219.238,-159.664,-28.455,-0.308
 15:42:35.673,eb:33:2e:f9:57:b5, 2085-97-252 34:04:237:13179,4.829,-2.262,5.403,689.88,488.342,4.089,-152.369,-31.476,-2.263
 15:42:35.702,eb:33:2e:f9:57:b5, 2085-97-115 50:52:238:13886,8.71,-2.327,6.446,836.67,303.711,-223.999,-143.729,-35.76,-4.037
 15:42:35.702,eb:33:2e:f9:57:b5, 2085-97-76 78:202:253:22984,7.413,-1.083,9.665,872.375,149.292,-575.623,-136.939,-39.54,-0.758
 15:42:35.702,eb:33:2e:f9:57:b5, 2085-97-37 35:136:42:20194,1.56,1.899,10.826,877.441,840.942,-412.476,-127.584,-47.109,-1.818
 15:42:35.702,eb:33:2e:f9:57:b5, 2085-97-248 22:144:97:5035,5.267,9.761,6.492,713.684,717.896,-222.107,-113.005,-54.08,-9.805
 15:42:35.762,eb:33:2e:f9:57:b5, 2085-97-37 59:64:73:13505,-0.229,3.938,0.765,153.503,-462.341,-642.029,-108.88,-58.645,-11.124
 15:42:35.763,eb:33:2e:f9:57:b5, 2085-97-211 61:172:23:7386,9.031,3.506,15.08,226.929,676.453,-483.826,-116.373,-61.37,2.818
 15:42:35.763,eb:33:2e:f9:57:b5, 2085-97-170 245:104:245:30686,5.448,2.739,2.805,529.541,-140.564,-295.41,-103.645,-65.55,-7.295
 15:42:35.763,eb:33:2e:f9:57:b5, 2085-97-204 52:90:237:24916,7.259,-0.564,11.059,751.77,81.665,-219.299,-97.894,-67.874,-6.053
 15:42:35.763,eb:33:2e:f9:57:b5, 2085-97-210 45:41:220:16039,4.778,-2.519,10.513,773.499,451.05,-144.653,-82.93,-68.961,-13.271
 15:42:35.763,eb:33:2e:f9:57:b5, 2085-97-155 33:177:234:11095,4.348,-3.862,7.03,778.809,445.496,75.134,-64.501,-67.676,-24.532
 15:42:35.763,eb:33:2e:f9:57:b5, 2085-97-136 34:195:246:9187,4.057,-1.792,5.188,619.141,300.72,26.306,-51.581,-65.539,-31.064
 15:42:35.763,eb:33:2e:f9:57:b5, 2085-97-233 26:119:245:1903,2.454,-1.094,2.441,335.693,448.853,-47.607,-40.671,-62.655,-38.035
 15:42:35.821,eb:33:2e:f9:57:b5, 2085-97-115 17:20:243:4543,2.446,-1.414,1.021,142.029,-22.644,-171.997,-34.338,-61.716,-42.726
 15:42:35.821,eb:33:2e:f9:57:b5, 2085-97-111 21:111:233:8229,2.679,-2.133,3.416,-14.832,-275.94,-262.329,-32.234,-64.698,-44.517
 15:42:35.821,eb:33:2e:f9:57:b5, 2085-97-92 17:45:222:8725,1.508,-3.506,4.263,-127.136,-185.242,-270.874,-30.608,-68.093,-47.214
 15:42:35.821,eb:33:2e:f9:57:b5, 2085-97-213 06:241:216:5539,0.311,-4.61,3.713,-225.281,32.349,-202.515,-27.905,-69.928,-51.998
 15:42:35.968,eb:33:2e:f9:57:b5, 2085-97-230 255:177:217:1124,0.174,-4.933,1.588,-383.789,264.343,-30.579,-26.263,-69.005,-57.079
 15:42:35.968,eb:33:2e:f9:57:b5, 2085-113-100 00:147:01:000,0.555,-4.449,-0.608,-612.732,472.656,138.306,-28.158,-65.187,-60.535
 15:42:35.968,eb:33:2e:f9:57:b5, 2085-97-59 05:68:220:-4605,0.772,-4.288,-1.735,-733.093,471.191,154.968,-30.526,-62.737,-61.771
 15:42:35.968,eb:33:2e:f9:57:b5, 2085-97-32 09:250:221:-5214,1.327,-4.488,-2.501,-863.953,328.674,201.721,-37.013,-58.348,-63.655
 15:42:35.972,eb:33:2e:f9:57:b5, 2085-97-57 12:23:226:-899,2.364,-4.092,-1.726,-916.931,28.076,178.162,-46.544,-55.783,-63.045
 15:42:35.972,eb:33:2e:f9:57:b5, 2085-97-217 23:159:231:2811,3.379,-3.277,0.308,-943.176,-224.609,134.094,-58.282,-55.283,-60.013
 15:42:35.972,eb:33:2e:f9:57:b5, 2085-97-108 29:01:241:6102,3.888,-2.601,2.356,-977.539,-223.633,176.819,-71.933,-54.844,-55.063
 15:42:35.972,eb:33:2e:f9:57:b5, 2085-97-58 32:159:248:7840,4.275,-1.239,3.318,-1067.627,-323.181,89.233,-85.858,-53.954,-50.455
 15:42:35.972,eb:33:2e:f9:57:b5, 2085-97-26 34:31:253:11066,3.926,-0.65,4.488,-1068.054,-454.712,82.886,-101.997,-52.971,-43.841
 15:42:35.973,eb:33:2e:f9:57:b5, 2085-97-163 31:68:05:10126,3.885,-0.016,5.893,-975.464,-333.496,187.195,-116.202,-50.339,-38.633
 15:42:35.973,eb:33:2e:f9:57:b5, 2085-97-154 29:39:11:6049,3.148,1.031,3.617,-930.725,-305.969,177.246,-127.419,-47.269,-36.425
 15:42:35.973,eb:33:2e:f9:57:b5, 2085-97-78 22:123:17:5099,1.494,1.66,2.922,-851.807,-317.566,194.031,-137.302,-43.813,-34.997
 15:42:35.975,eb:33:2e:f9:57:b5, 2085-97-88 04:158:14:2388,0.516,1.763,2.138,-745.422,-253.418,195.618,-145.651,-40.446,-34.579
 15:42:35.975,eb:33:2e:f9:57:b5, 2085-97-164 03:54:18:1269,-0.063,2.136,0.162,-597.107,-503.479,206.665,-152.221,-36.354,-34.59
 15:42:35.975,eb:33:2e:f9:57:b5, 2085-97-180 246:80:27:8022,-1.821,2.695,2.175,-459.778,-494.019,368.225,-157.379,-29.932,-34.717
 15:42:35.975,eb:33:2e:f9:57:b5, 2085-97-118 234:114:48:5091,-1.662,4.988,3.671,-457.703,-130.249,403.992,-160.038,-26.351,-38.447
 15:42:36.030,eb:33:2e:f9:57:b5, 2085-97-186 249:112:57:10873,-0.954,6.556,3.823,-470.947,-553.467,213.379,-164.18,-21.429,-39.908
 15:42:36.030,eb:33:2e:f9:57:b5, 2085-97-95 246:223:73:8437,-1.258,8.263,4.75,-446.106,-257.751,167.969,-168.206,-17.518,-41.193
 15:42:36.030,eb:33:2e:f9:57:b5, 2085-97-212 243:49:83:8154,-1.679,9.981,4.125,-403.503,-219.604,46.448,-172.293,-14.892,-41.797
 15:42:36.030,eb:33:2e:f9:57:b5, 2085-97-171 241:62:82:9826,-2.047,10.497,4.223,-301.453,-207.642,-73.853,-175.902,-12.849,-41.396
 15:42:36.089,eb:33:2e:f9:57:b5, 2085-97-120 237:12:79:10630,-2.517,10.08,5.035,-167.053,-142.578,-167.786,-178.467,-11.184,-40.018
 15:42:36.089,eb:33:2e:f9:57:b5, 2085-97-116 234:203:74:11018,-2.78,9.656,5.331,-19.226,-81.177,-214.661,-179.692,-10.118,-37.996
 15:42:36.089,eb:33:2e:f9:57:b5, 2085-97-204 232:152:64:9337,-3.011,8.812,5.07,106.445,-11.475,-226.562,-179.55,-9.706,-35.75
 15:42:36.089,eb:33:2e:f9:57:b5, 2085-97-50 231:100:49:6809,-2.914,7.18,3.896,208.801,35.034,-210.022,-178.275,-9.915,-33.525
 15:42:36.213,eb:33:2e:f9:57:b5, 2085-97-207 233:80:29:5014,-1.558,4.8,2.801,299.988,51.208,-171.387,-176.023,-10.443,-31.635
 15:42:36.213,eb:33:2e:f9:57:b5, 2085-97-155 08:51:52:26334,8.826,3.45,2.393,611.755,-317.566,-416.26,-172.623,-10.838,-29.784
 15:42:36.213,eb:33:2e:f9:57:b5, 2085-97-200 79:42:42:17443,-1.937,10.414,3.189,166.565,-258.362,-570.312,-170.766,-3.455,-22.017
 15:42:36.213,eb:33:2e:f9:57:b5, 2085-97-180 230:12:253:-13948,-3.397,-1.988,7.471,368.53,-1828.796,65.063,-166.119,8.152,-17.963
 15:42:36.213,eb:33:2e:f9:57:b5, 2085-97-184 214:54:250:885,4.322,-6.074,-2.929,737,-1155.273,245.911,-162.158,16.957,-11.525
 15:42:36.213,eb:33:2e:f9:57:b5, 2085-97-126 251:91:250:13576,2.749,3.992,-5.203,191.04,-852.234,-84.534,-158.555,22.434,-14.42
 15:42:36.213,eb:33:2e:f9:57:b5, 2085-97-51 29:141:07:4102,4.339,2.312,1.256,171.082,-1.709,-138.977,-155.638,24.483,-12.299
 15:42:36.213,eb:33:2e:f9:57:b5, 2085-97-178 20:09:03:8198,-0.137,1.649,3.242,161.072,18.921,-313.293,-152.518,24.516,-9.08
 15:42:36.216,eb:33:2e:f9:57:b5, 2085-97-183 04:200:00:3996,1.581,0.337,3.86,203.796,316.223,-308.777,-150.211,20.759,-7.427
 15:42:36.216,eb:33:2e:f9:57:b5, 2085-97-36 19:197:242:7724,2.295,-0.506,3.01,279.419,-489.014,-481.079,-146.118,19.825,-3.131
 15:42:36.216,eb:33:2e:f9:57:b5, 2085-97-127 15:112:223:18027,5.059,-3.279,5.645,489.502,-567.078,-317.322,-139.96,21.813,4.598
 15:42:36.216,eb:33:2e:f9:57:b5, 2085-97-236 41:162:228:18745,5.024,-2.684,7.14,921.143,119.141,23.865,-131.083,23.56,6.691
 15:42:36.390,eb:33:2e:f9:57:b5, 2085-97-209 23:44:238:7665,3.946,-4.178,6.108,1020.691,1174.866,131.042,-124.536,18.825,-1.263
 15:42:36.390,eb:33:2e:f9:57:b5, 2085-97-67 46:129:01:19563,4.977,-0.972,5.988,890.869,-148.987,-498.779,-115.642,14.612,-4.048
 15:42:36.390,eb:33:2e:f9:57:b5, 2085-97-152 25:99:30:17663,1.429,1.492,10.584,795.593,439.087,-359.131,-107.194,9.833,-3.175
 15:42:36.390,eb:33:2e:f9:57:b5, 2085-97-196 14:15:61:7116,3.341,6.561,5.597,627.991,525.94,-175.72,-100.673,5.955,-7.987
 15:42:36.394,eb:33:2e:f9:57:b5, 2085-97-231 54:103:67:4539,-0.151,2.129,1.999,359.985,-162.476,-498.962,-96.839,2.335,-9.613
 15:42:36.394,eb:33:2e:f9:57:b5, 2085-97-189 34:12:19:6384,6.915,4.088,12.833,281.982,397.461,-572.998,-91.313,-1.873,-5.477
 15:42:36.394,eb:33:2e:f9:57:b5, 2085-97-203 15:125:05:25750,4.152,3.7,1.385,414.001,-353.821,-460.022,-87.495,-5.641,-8.157
 15:42:36.394,eb:33:2e:f9:57:b5, 2085-97-51 41:180:253:25394,4.162,0.206,13.107,551.697,25.879,-375.122,-82.958,-10.283,-5.999
 15:42:36.511,eb:33:2e:f9:57:b5, 2085-97-143 36:122:237:19213,4.099,-1.206,12.334,662.842,455.933,-187.012,-75.987,-12.376,-9.174
 15:42:36.511,eb:33:2e:f9:57:b5, 2085-97-240 33:194:220:16564,4.121,-3.788,8.126,665.161,188.477,-125.977,-68.577,-12.843,-13.057
 15:42:36.511,eb:33:2e:f9:57:b5, 2085-97-39 37:166:230:15656,5.229,-3.127,5.066,674.683,-47.363,-25.452,-61.507,-12.827,-14.48
 15:42:36.511,eb:33:2e:f9:57:b5, 2085-97-147 36:173:235:8562,4.016,-2.672,6.937,535.156,599.243,85.632,-54.904,-10.959,-16.359
 15:42:36.781,eb:33:2e:f9:57:b5, 2085-97-37 30:250:237:4578,3.885,-2.223,2.513,419.983,324.768,43.823,-49.576,-6.998,-20.116
 15:42:36.781,eb:33:2e:f9:57:b5, 2085-97-203 27:206:241:6064,3.301,-1.794,2.705,276.794,56.152,-82.092,-45.967,-6.361,-21.182
 15:42:36.781,eb:33:2e:f9:57:b5, 2085-97-15 27:234:239:6895,3.395,-1.605,2.839,137.024,-90.088,-183.655,-43.852,-7.284,-22.192
 15:42:36.781,eb:33:2e:f9:57:b5, 2085-97-132 21:92:231:6903,1.757,-2.481,3.748,-6.104,-60.059,-244.385,-43.127,-9.646,-23.049
 15:42:36.810,eb:33:2e:f9:57:b5, 2085-97-90 10:10:222:4045,1.066,-3.673,2.758,-144.714,-2.686,-245.422,-43.638,-11.409,-24.917
 15:42:36.810,eb:33:2e:f9:57:b5, 2085-97-188 07:59:218:2496,0.959,-4.6,1.586,-296.387,-22.522,-151.062,-45.621,-13.041,-26.197
 15:42:36.810,eb:33:2e:f9:57:b5, 2085-97-199 07:00:219:009,1.044,-4.667,0.695,-486.084,140.32,-2.136,-49.395,-13.112,-27.186
 15:42:36.810,eb:33:2e:f9:57:b5, 2085-97-242 09:113:218:-2669,1.396,-4.712,-0.669,-661.743,231.506,85.632,-54.992,-11.459,-28.564
 15:42:36.814,eb:33:2e:f9:57:b5, 2085-97-97 10:169:219:-3847,1.25,-4.633,-1.753,-786.804,194.885,121.216,-62.111,-9.399,-29.954
 15:42:36.814,eb:33:2e:f9:57:b5, 2085-97-109 36:71:251:12311,4.578,-4.332,-1.236,-844.116,-60.913,123.291,-70.329,-7.965,-30.042
 15:42:36.815,eb:33:2e:f9:57:b5, 2085-97-238 30:168:02:10918,3.181,0.005,5.845,-951.416,-297.729,193.481,-118.63,1.791,-13.497
 15:42:36.815,eb:33:2e:f9:57:b5, 2085-97-236 20:120:02:6926,2.319,0.519,4.139,-878.662,-306.763,145.935,-127.678,4.708,-12.222
 15:42:36.815,eb:33:2e:f9:57:b5, 2085-97-213 16:183:252:7642,1.215,-0.125,3.361,-809.204,-551.88,81.909,-135.747,8.525,-9.553
 15:42:36.815,eb:33:2e:f9:57:b5, 2085-97-89 04:225:247:9142,-0.031,-0.868,4.466,-765.747,-451.477,135.742,-143.119,13.123,-6.943
 15:42:36.815,eb:33:2e:f9:57:b5, 2085-97-124 251:254:252:9628,-1.058,-0.93,4.452,-703.918,-415.894,202.942,-150.238,17.556,-6.053
 15:42:36.816,eb:33:2e:f9:57:b5, 2085-97-80 244:216:08:10145,-1.764,0.387,4.917,-636.108,-366.516,295.715,-157.094,22.225,-6.641
 15:42:36.816,eb:33:2e:f9:57:b5, 2085-97-239 238:210:24:11834,-1.52,1.86,5.223,-596.069,-337.28,355.591,-164.169,26.461,-8.937
 15:42:36.816,eb:33:2e:f9:57:b5, 2085-97-54 240:125:87:10650,-2.277,4.223,7.315,-593.018,-500.244,315.674,-171.398,31.586,-11.497
 15:42:36.816,eb:33:2e:f9:57:b5, 2085-97-25 233:11:70:7326,-3.301,10.1,4.442,-63.171,18.066,-162.476,166.157,40.858,-19.951
 15:42:36.816,eb:33:2e:f9:57:b5, 2085-97-144 230:251:45:4463,-3.166,7.338,2.819,12.39,80.627,-184.082,167.602,40.704,-17.452
 15:42:36.818,eb:33:2e:f9:57:b5, 2085-97-228 231:143:27:2217,-2.675,4.282,1.601,92.468,124.39,-119.629,169.64,40.007,-15.227
 15:42:36.818,eb:33:2e:f9:57:b5, 2085-97-196 29:255:02:15056,3.543,2.781,0.825,152.039,113.831,-36.865,171.678,38.919,-14.019
 15:42:36.818,eb:33:2e:f9:57:b5, 2085-97-72 26:146:245:11720,3.082,-0.459,6.876,247.681,207.092,-319.641,-80.063,29.724,41.424
 15:42:36.818,eb:33:2e:f9:57:b5, 2085-97-36 25:66:238:9338,3.287,-1.885,5.033,276.306,201.904,-243.225,-78.827,27.372,38.452
 15:42:36.842,eb:33:2e:f9:57:b5, 2085-97-35 26:209:236:7888,3.481,-2.346,4.164,265.625,263.184,-157.898,-77.591,25.988,35.403
 15:42:36.843,eb:33:2e:f9:57:b5, 2085-97-07 28:242:238:6877,3.363,-2.497,3.699,253.235,318.359,-83.13,-76.487,25.406,32.058
 15:42:36.843,eb:33:2e:f9:57:b5, 2085-97-16 27:43:238:5598,3.536,-2.312,2.714,219.055,248.535,-107.361,-75.861,25.296,28.449
 15:42:36.844,eb:33:2e:f9:57:b5, 2085-97-113 28:175:237:4360,3.474,-2.255,2.713,178.528,227.844,-147.217,-74.949,24.483,25.884
 15:42:36.900,eb:33:2e:f9:57:b5, 2085-97-142 26:69:236:3567,3.213,-2.267,1.691,132.812,198.12,-161.987,-74.586,23.758,23.115
 15:42:36.900,eb:33:2e:f9:57:b5, 2085-97-216 24:103:233:3908,2.916,-2.671,1.862,88.562,153.931,-187.561,-74.421,22.445,20.852
 15:42:36.900,eb:33:2e:f9:57:b5, 2085-113-81 00:163:159:20043,2.762,-2.935,1.959,65.002,157.166,-170.471,-74.454,21.116,18.748
 15:42:36.900,eb:33:2e:f9:57:b5, 2085-97-117 21:131:230:3522,2.585,-3.061,1.903,52.185,175.232,-148.682,-74.559,20.577,17.661
 15:42:36.900,eb:33:2e:f9:57:b5, 2085-97-05 19:241:229:2483,2.437,-3.194,1.465,21.667,211.06,-79.59,-75.004,20.023,15.315
 15:42:36.931,eb:33:2e:f9:57:b5, 2085-97-82 17:149:228:1566,1.662,-3.249,0.925,-30.151,214.294,-1.892,-75.85,20.297,13.14
 15:42:36.931,eb:33:2e:f9:57:b5, 2085-97-117 08:53:222:782,0.58,-3.776,0.538,-105.164,181.458,65.063,-77.305,21.094,11.069
 15:42:36.931,eb:33:2e:f9:57:b5, 2085-97-195 08:127:217:619,1.875,-4.658,0.225,-182.922,61.34,192.81,-79.167,22.676,10.19
 15:42:36.931,eb:33:2e:f9:57:b5, 2085-97-66 18:221:227:3002,2.618,-4.311,1.05,-291.809,101.746,412.476,-81.519,25.911,10.327
 15:42:37.231,eb:33:2e:f9:57:b5, 2085-97-138 23:180:239:1241,3.559,-2.702,1.127,-402.1,212.28,497.131,-85.814,30.718,8.877
 15:42:37.231,eb:33:2e:f9:57:b5, 2085-97-143 33:180:250:-1338,4.608,-1.369,-0.083,-516.541,220.581,502.808,-91.895,35.887,6.273
 15:42:37.231,eb:33:2e:f9:57:b5, 2085-97-134 35:102:254:-1455,3.943,-0.171,-0.946,-647.156,77.148,326.355,-99.272,39.858,3.9
 15:42:37.231,eb:33:2e:f9:57:b5, 2085-97-219 29:69:252:1086,3.663,-0.323,-0.084,-695.679,-71.289,224.548,-106.567,42.479,3.109
 15:42:37.321,eb:33:2e:f9:57:b5, 2085-97-79 28:253:247:4060,3.146,-0.801,1.336,-738.342,-243.286,139.587,-112.632,44.687,4.746
 15:42:37.321,eb:33:2e:f9:57:b5, 2085-97-51 24:56:248:4635,3.042,-1.096,2.268,-774.78,-223.938,133.057,-118.74,46.895,6.828
 15:42:37.321,eb:33:2e:f9:57:b5, 2085-97-193 24:60:251:5748,3.032,-0.774,2.524,-790.588,-337.769,95.459,-124.503,49.389,9.602
 15:42:37.321,eb:33:2e:f9:57:b5, 2085-97-137 21:17:252:6117,2.112,-0.446,2.946,-784.546,-347.778,93.811,-129.639,52.251,13.14
 15:42:37.381,eb:33:2e:f9:57:b5, 2085-97-163 14:207:250:6086,1.673,-0.641,3.083,-757.08,-388.245,62.561,-134.517,55.234,16.644
 15:42:37.381,eb:33:2e:f9:57:b5, 2085-97-227 10:199:251:7354,1.101,-0.561,3.133,-714.233,-517.822,26.367,-137.214,58.909,22.132
 15:42:37.381,eb:33:2e:f9:57:b5, 2085-97-163 06:177:253:9475,0.376,-0.385,4.042,-686.218,-531.189,10.986,-138.076,62.963,29.059
 15:42:37.381,eb:33:2e:f9:57:b5, 2085-97-114 250:176:255:13907,-1.357,-0.051,5.446,-640.747,-490.784,28.503,-137.208,66.951,37.348
 15:42:37.383,eb:33:2e:f9:57:b5, 2085-97-139 237:25:10:12684,-2.908,0.788,6.586,-502.319,-137.207,257.629,-141.152,70.109,39.122
 15:42:37.383,eb:33:2e:f9:57:b5, 2085-97-254 232:194:15:11989,-2.195,1.687,5.811,-454.59,-215.942,261.78,-150.727,72.828,33.953
 15:42:37.383,eb:33:2e:f9:57:b5, 2085-97-166 245:59:29:16101,-0.796,2.59,6.799,-423.523,-455.139,232.727,-156.835,77.3,32.119
 15:42:37.383,eb:33:2e:f9:57:b5, 2085-97-85 250:80:51:16323,-1.593,5.013,8.289,-394.226,-160.095,283.264,-169.2,81.178,23.692
 15:42:37.385,eb:33:2e:f9:57:b5, 2085-97-29 242:85:72:10232,-0.899,8.258,6.336,-367.676,44.556,186.401,169.585,80.898,5.999
 15:42:37.385,eb:33:2e:f9:57:b5, 2085-97-82 249:43:74:8932,-1.2,9.269,5.398,-286.56,-32.593,-2.197,160.444,81.491,0.06
 15:42:37.385,eb:33:2e:f9:57:b5, 2085-97-122 244:63:64:6741,-1.915,8.9,3.683,-209.29,9.155,-171.997,164.674,81.612,6.724
 15:42:37.385,eb:33:2e:f9:57:b5, 2085-97-142 240:253:46:4576,-1.886,7.401,3.022,-170.044,49.622,-291.87,179.385,81.711,23.39
 15:42:37.389,eb:33:2e:f9:57:b5, 2085-97-249 239:153:32:4589,4.817,4.971,2.416,-83.801,75.073,-270.874,-163.828,80.87,41.517
 15:42:37.389,eb:33:2e:f9:57:b5, 2085-97-28 45:66:19:-924,9.889,2.829,1.003,132.324,37.354,265.991,-48.257,60.255,128.007
 15:42:37.389,eb:33:2e:f9:57:b5, 2085-97-199 55:70:09:12405,1.289,4.054,0.994,64.331,-304.871,-156.616,-42.275,59.095,133.297
 15:42:37.389,eb:33:2e:f9:57:b5, 2085-97-137 236:33:251:-272,-1.814,0.237,2.337,13.916,616.699,-291.26,-50.746,60.106,123.409
 15:42:37.389,eb:33:2e:f9:57:b5, 2085-97-97 251:128:251:5185,2.039,-0.784,1.602,105.835,1.099,-128.662,-54.608,59.546,118.169
 15:42:37.389,eb:33:2e:f9:57:b5, 2085-97-04 14:152:235:7282,1.301,-0.736,3.37,298.584,134.766,-94.727,-33.338,58.76,101.475
 15:42:37.389,eb:33:2e:f9:57:b5, 2085-97-160 12:172:06:3802,1.998,-1.306,2.994,448.608,233.154,104.919,-31.339,60.612,99.542
 15:42:37.389,eb:33:2e:f9:57:b5, 2085-97-126 16:115:255:5641,2.449,0.708,1.986,359.375,91.919,149.048,-26.592,62.435,100.327
 15:42:37.411,eb:33:2e:f9:57:b5, 2085-97-184 24:61:11:3990,3.856,0.579,2.152,400.513,111.389,144.836,-20.649,64.237,102.689
 15:42:37.411,eb:33:2e:f9:57:b5, 2085-97-185 32:30:13:6586,3.695,1.694,2.6,360.901,-38.818,-35.522,-15.952,64.435,103.672
 15:42:37.411,eb:33:2e:f9:57:b5, 2085-97-175 25:129:06:5326,3.006,1.267,3.076,285.339,138.55,-161.987,-15.403,64.742,100.794
 15:42:37.411,eb:33:2e:f9:57:b5, 2085-97-116 25:234:255:5704,3.277,0.341,2.558,213.379,28.076,-275.085,-18.144,64.918,95.065
 15:42:37.442,eb:33:2e:f9:57:b5, 2085-97-225 25:33:250:5997,3.127,-0.376,2.892,134.033,42.236,-350.342,-22.994,64.028,87.88
 15:42:37.442,eb:33:2e:f9:57:b5, 2085-97-251 23:194:243:5597,2.869,-1.16,2.862,67.261,76.66,-405.212,-29.564,62.886,79.497
 15:42:37.442,eb:33:2e:f9:57:b5, 2085-113-81 00:19:183:16486,2.84,-1.938,2.492,17.822,81.787,-435.486,-36.766,61.26,70.983
 15:42:37.442,eb:33:2e:f9:57:b5, 2085-97-11 22:254:235:4644,2.666,-2.242,2.342,-1.587,72.571,-447.266,-40.265,60.161,66.945
 15:42:37.560,eb:33:2e:f9:57:b5, 2085-97-118 20:109:232:3999,2.479,-2.764,2.119,-35.278,91.919,-445.007,-46.89,57.651,59.551
 15:42:37.560,eb:33:2e:f9:57:b5, 2085-97-15 19:249:229:3281,2.431,-3.097,1.736,-64.575,102.295,-408.264,-52.756,55.009,53.146
 15:42:37.560,eb:33:2e:f9:57:b5, 2085-97-56 20:25:229:2704,2.12,-3.262,1.415,-94.421,114.441,-327.332,-57.612,52.663,48.197
 15:42:37.560,eb:33:2e:f9:57:b5, 2085-97-27 10:201:223:2472,0.656,-3.63,1.48,-151.489,197.266,-275.208,-62.386,50.806,43.72
 15:42:37.563,eb:33:2e:f9:57:b5, 2085-97-79 04:65:219:-916,0.64,-4.5,0.576,-196.655,239.075,-130.188,-67.89,49.905,38.985
 15:42:37.563,eb:33:2e:f9:57:b5, 2085-97-00 09:225:222:1099,1.271,-4.51,-0.256,-249.451,20.325,51.636,-71.477,50.032,37.211
 15:42:37.563,eb:33:2e:f9:57:b5, 2085-97-65 09:125:227:982,1.077,-3.75,0.746,-331.238,130.127,214.05,-74.729,51.586,36.887
 15:42:37.563,eb:33:2e:f9:57:b5, 2085-97-239 10:135:233:-378,1.836,-3.256,0.214,-380.005,135.071,370.056,-79.365,54.877,35.59
 15:42:37.565,eb:33:2e:f9:57:b5, 2085-97-179 18:30:241:-679,2.727,-2.275,-0.414,-446.472,58.289,444.641,-84.034,59.178,35.008
 15:42:37.565,eb:33:2e:f9:57:b5, 2085-97-140 24:182:250:533,3.469,-1.28,-0.068,-494.019,-14.587,442.81,-88.643,63.693,35.173
 15:42:37.565,eb:33:2e:f9:57:b5, 2085-97-108 29:229:02:1912,3.503,-0.064,0.74,-522.583,-89.233,361.938,-92.329,67.725,36.755
 15:42:37.565,eb:33:2e:f9:57:b5, 2085-97-100 27:18:05:1646,3.43,0.5,0.841,-538.208,-118.958,283.569,-95.773,70.944,38.776
 15:42:37.802,eb:33:2e:f9:57:b5, 2085-97-116 26:61:06:1844,2.994,0.668,0.975,-553.467,-176.514,200.562,-96.976,73.51,43.259
 15:42:37.802,eb:33:2e:f9:57:b5, 2085-97-220 21:71:07:1984,2.498,0.906,0.721,-577.209,-258.911,80.811,-95.713,75.125,50.433
 15:42:37.802,eb:33:2e:f9:57:b5, 2085-97-53 17:192:02:3366,1.653,0.681,1.296,-593.994,-330.627,-22.156,-89.709,75.443,62.732
 15:42:37.802,eb:33:2e:f9:57:b5, 2085-97-68 09:112:252:4571,0.729,-0.145,1.998,-567.139,-362.671,-77.026,-82.507,74.658,76.223
 15:42:37.830,eb:33:2e:f9:57:b5, 2085-97-76 01:186:249:5567,-0.629,-0.618,2.343,-495.728,-386.475,-89.111,-75.482,73.092,89.044
 15:42:37.830,eb:33:2e:f9:57:b5, 2085-97-121 243:230:246:8012,-2.163,-0.927,3.367,-395.569,-348.511,-53.223,-68.983,71.235,100.459
 15:42:37.830,eb:33:2e:f9:57:b5, 2085-97-58 239:108:252:7822,-2.31,-1.108,4.114,-252.93,-247.437,133.423,-64.248,70.466,108.858
 15:42:37.830,eb:33:2e:f9:57:b5, 2085-97-244 235:143:05:8235,-2.343,0.085,3.902,-169.617,-236.084,297.791,-56.876,71.224,118.795
 15:42:37.951,eb:33:2e:f9:57:b5, 2085-97-178 241:121:17:8968,-1.341,1.508,4.115,-137.39,-264.404,406.677,-45.28,72.559,132.506
 15:42:37.951,eb:33:2e:f9:57:b5, 2085-97-39 247:139:34:8813,-0.717,3.254,4.683,-155.945,-115.967,501.282,-30.009,73.74,149.892
 15:42:37.951,eb:33:2e:f9:57:b5, 2085-97-95 254:167:53:6764,0.021,6.003,3.448,-282.227,6.592,561.646,-12.634,75.597,170.079
 15:42:37.951,eb:33:2e:f9:57:b5, 2085-97-78 00:99:59:7425,0.205,7.245,3.518,-368.103,232.727,588.257,8.119,76.833,-165.064
 15:42:37.951,eb:33:2e:f9:57:b5, 2085-97-164 07:20:74:6190,2.58,8.164,3.518,-290.466,546.021,463.623,36.7,78.904,-132.457
 15:42:37.951,eb:33:2e:f9:57:b5, 2085-97-19 14:141:85:4114,1.387,11.194,2.062,-161.011,299.927,135.498,62.232,79.442,-104.392
 15:42:37.951,eb:33:2e:f9:57:b5, 2085-97-25 10:16:68:-5963,0.533,9.911,-0.04,-3.418,522.339,118.408,86.94,79.233,-78.629
 15:42:37.951,eb:33:2e:f9:57:b5, 2085-97-125 01:199:50:-4100,-0.126,7.397,-3.232,127.747,-83.13,34.851,98.58,78.569,-67.516
 15:42:37.956,eb:33:2e:f9:57:b5, 2085-97-95 206:09:55:31443,-4.83,4.861,0.218,459.717,-233.032,10.498,87.896,78.541,-80.431
 15:42:37.956,eb:33:2e:f9:57:b5, 2085-97-141 251:254:82:-22298,-13.539,13.252,6.971,759.094,-267.578,340.393,104.821,70.884,-72.389
 15:42:37.956,eb:33:2e:f9:57:b5, 2085-97-179 80:193:40:5245,12.4,1.279,-8.369,-150.818,-1612.732,774.414,88.918,70.922,-89.247
 15:42:37.956,eb:33:2e:f9:57:b5, 2085-97-44 94:40:22:-8687,-4.013,-4.709,8.952,273.743,321.96,272.034,53.355,67.385,-125.156
 15:42:37.959,eb:33:2e:f9:57:b5, 2085-97-153 211:71:00:-7393,-3.644,1.964,-5.472,96.13,70.984,-445.557,51.872,68.329,-128.919
 15:42:37.959,eb:33:2e:f9:57:b5, 2085-97-42 02:150:03:2716,0.342,-1.498,-0.277,49.805,-34.79,-287.109,36.991,68.84,-145.734
 15:42:37.960,eb:33:2e:f9:57:b5, 2085-97-162 00:226:254:5540,-0.048,0.075,2.246,67.2,-34.058,-91.736,27.944,71.038,-157.983
 15:42:37.960,eb:33:2e:f9:57:b5, 2085-97-164 02:225:251:7475,0.654,-0.455,3.125,147.522,-79.285,-44.922,26.823,70.961,-160.291
 15:42:37.980,eb:33:2e:f9:57:b5, 2085-97-106 05:54:248:8313,0.265,-0.713,4.093,238.037,-62.744,-41.565,26.521,70.23,-162.686
 15:42:37.980,eb:33:2e:f9:57:b5, 2085-97-107 255:249:242:5954,-0.316,-1.468,3.59,330.2,113.892,5.676,29.323,70.67,-162.768
 15:42:37.980,eb:33:2e:f9:57:b5, 2085-97-131 249:128:245:2650,-1.269,-1.517,2,397.156,122.314,10.498,35.387,71.658,-160.285
 15:42:37.980,eb:33:2e:f9:57:b5, 2085-97-19 244:241:245:1384,-1.317,-1.187,0.914,424.805,142.151,80.933,43.363,72.433,-156.248
 15:42:37.982,eb:33:2e:f9:57:b5, 2085-97-209 249:199:246:1728,-0.114,-1.212,0.623,459.106,-18.677,92.957,51.46,72.175,-152.402
 15:42:37.982,eb:33:2e:f9:57:b5, 2085-97-111 247:141:07:4782,-0.991,-1.017,1.236,481.018,-104.98,58.838,55.327,71.087,-153.292
 15:42:37.982,eb:33:2e:f9:57:b5, 2085-97-231 251:137:255:4192,-0.368,0.446,2.095,284.79,142.09,70.862,88.149,69.17,-141.812
 15:42:37.982,eb:33:2e:f9:57:b5, 2085-97-13 01:64:247:1602,0.804,-0.927,2.052,274.414,159.912,157.715,93.906,68.027,-138.554
 15:42:38.011,eb:33:2e:f9:57:b5, 2085-97-230 14:111:21:-1249,1.656,0.227,-0.421,255.432,112.366,203.186,100.107,65.786,-134.709
 15:42:38.011,eb:33:2e:f9:57:b5, 2085-97-43 11:34:20:4186,1.57,3.082,0.851,134.094,-129.578,-20.02,100.256,65.314,-136.725
 15:42:38.011,eb:33:2e:f9:57:b5, 2085-97-46 16:51:18:2989,2.03,2.258,1.875,76.05,-52.246,-115.784,100.228,66.028,-137.714
 15:42:38.011,eb:33:2e:f9:57:b5, 2085-97-45 15:200:10:5048,1.73,1.79,2.002,34.912,-112.732,-283.447,98.926,68.368,-139.686
 15:42:38.101,eb:33:2e:f9:57:b5, 2085-97-168 12:24:06:4966,1.467,1.066,2.479,16.846,-24.902,-374.329,99.097,71.763,-139.724
 15:42:38.101,eb:33:2e:f9:57:b5, 2085-97-231 10:224:255:4874,1.265,0.367,2.393,-9.705,10.742,-427.673,101.365,75.8,-137.401
 15:42:38.101,eb:33:2e:f9:57:b5, 2085-97-128 09:63:251:5068,1.08,-0.315,2.391,-35.4,53.711,-437.256,107.968,79.915,-130.364
 15:42:38.101,eb:33:2e:f9:57:b5, 2085-97-126 08:191:246:5415,1.098,-0.886,2.603,-52.917,89.539,-423.889,125.799,83.524,-111.907
 15:42:38.101,eb:33:2e:f9:57:b5, 2085-97-60 09:66:243:5094,1.249,-1.395,2.596,-65.063,137.329,-370.605,166.514,84.858,-70.378
 15:42:38.101,eb:33:2e:f9:57:b5, 2085-97-18 10:13:241:4694,1.341,-1.733,2.437,-86.365,181.091,-295.715,-162.059,83.079,-38.062
 15:42:38.102,eb:33:2e:f9:57:b5, 2085-97-162 11:20:240:3093,1.562,-1.923,1.9,-119.812,241.15,-191.589,-153.474,80.118,-28.306
 15:42:38.102,eb:33:2e:f9:57:b5, 2085-97-37 13:55:240:2464,1.71,-2.035,1.272,-156.738,259.705,-76.904,-154.396,77.316,-27.812
 15:42:38.160,eb:33:2e:f9:57:b5, 2085-97-217 14:180:243:2003,1.961,-1.785,1.127,-189.331,302.429,13.184,-159.857,74.564,-31.608
 15:42:38.160,eb:33:2e:f9:57:b5, 2085-97-49 16:120:245:1397,2.029,-1.392,0.835,-228.882,294.067,60.913,-166.086,71.834,-35.898
 15:42:38.160,eb:33:2e:f9:57:b5, 2085-97-153 16:36:246:163,2.118,-1.271,0.37,-260.681,276.062,110.168,-172.623,69.115,-40.182
 15:42:38.160,eb:33:2e:f9:57:b5, 2085-97-80 17:249:245:-361,2.201,-1.231,-0.131,-292.603,185.059,124.084,-178.802,66.923,-43.841
 15:42:38.221,eb:33:2e:f9:57:b5, 2085-97-07 17:151:246:-458,1.996,-1.237,-0.171,-314.148,132.568,146.729,175.15,65.358,-47.082
 15:42:38.221,eb:33:2e:f9:57:b5, 2085-97-153 15:177:247:004,1.926,-1.143,-0.114,-327.515,62.012,167.603,168.887,64.188,-50.433
 15:42:38.221,eb:33:2e:f9:57:b5, 2085-97-75 15:73:249:417,1.949,-0.96,0.086,-336.243,2.502,186.646,162.191,63.441,-54.163
 15:42:38.221,eb:33:2e:f9:57:b5, 2085-97-67 16:06:252:779,2.12,-0.684,0.289,-348.145,-52.979,201.477,154.913,62.996,-58.469
 15:42:38.223,eb:33:2e:f9:57:b5, 2085-97-40 17:101:255:647,2.176,-0.275,0.384,-364.014,-65.002,205.688,147.222,62.534,-63.083
 15:42:38.223,eb:33:2e:f9:57:b5, 2085-97-124 17:100:02:375,2.171,0.126,0.224,-378.235,-86.731,172.058,139.713,61.99,-67.346
 15:42:38.223,eb:33:2e:f9:57:b5, 2085-97-210 16:59:04:535,2.003,0.444,0.194,-385.559,-135.437,104.309,132.545,61.837,-71.115
 15:42:38.223,eb:33:2e:f9:57:b5, 2085-97-180 14:51:04:1231,1.584,0.559,0.408,-386.414,-197.51,25.818,125.414,62.441,-74.811
 15:42:38.280,eb:33:2e:f9:57:b5, 2085-97-81 10:21:02:2005,0.931,0.407,0.797,-390.076,-253.662,-42.236,117.784,63.748,-78.992
 15:42:38.280,eb:33:2e:f9:57:b5, 2085-97-53 04:133:255:3002,0.037,0.083,1.218,-393.127,-277.222,-69.153,109.1,65.38,-84.249
 15:42:38.280,eb:33:2e:f9:57:b5, 2085-97-210 252:150:251:4530,-0.678,-0.342,1.782,-376.709,-248.657,-12.024,99.63,66.539,-90.335
 15:42:38.280,eb:33:2e:f9:57:b5, 2085-113-58 00:96:220:-2760,-0.616,-0.678,2.437,-316.345,-184.814,121.826,91.263,66.121,-95.685
 15:42:38.280,eb:33:2e:f9:57:b5, 2085-97-208 251:64:252:5201,-0.593,-0.607,2.324,-282.715,-205.2,180.115,87.61,65.319,-98.064
 15:42:38.343,eb:33:2e:f9:57:b5, 2085-97-156 249:156:00:5241,-0.938,-0.232,2.727,-236.023,-132.69,283.936,81.766,62.809,-101.711
 15:42:38.343,eb:33:2e:f9:57:b5, 2085-97-74 249:153:04:4542,-0.416,0.329,2.274,-221.863,-99.915,378.296,78.86,59.304,-102.431
 15:42:38.343,eb:33:2e:f9:57:b5, 2085-97-33 01:248:11:5424,0.641,0.96,2.36,-224.365,-166.321,462.769,75.959,54.849,-103.233
 15:42:38.343,eb:33:2e:f9:57:b5, 2085-97-250 08:193:23:6691,1.522,2.212,2.937,-240.784,-110.291,535.706,73.526,49.587,-103.354
 15:42:38.581,eb:33:2e:f9:57:b5, 2085-97-82 13:20:36:6569,1.858,3.724,3.278,-240.54,40.466,539.246,72.576,44.269,-101.288
 15:42:38.581,eb:33:2e:f9:57:b5, 2085-97-79 14:79:48:5799,1.789,5.306,3.104,-201.965,142.456,408.508,72.444,40.084,-98.141
 15:42:38.582,eb:33:2e:f9:57:b5, 2085-97-93 14:156:56:1522,1.793,6.691,1.9,-112.61,291.443,281.799,73.581,37.562,-93.873
 15:42:38.582,eb:33:2e:f9:57:b5, 2085-97-27 14:73:59:-2190,1.888,7.298,-0.134,-14.526,190.369,171.936,75.256,36.09,-90.148
 15:42:38.582,eb:33:2e:f9:57:b5, 2085-97-129 13:174:52:-4443,1.386,7.179,-2.049,30.884,-4.395,53.467,76.284,35.299,-88.616
 15:42:38.582,eb:33:2e:f9:57:b5, 2085-97-141 08:116:47:-781,-3.188,5.966,-1.97,62.073,-179.077,-51.208,75.998,35.156,-89.907
 15:42:38.582,eb:33:2e:f9:57:b5, 2085-97-50 220:217:108:21998,-1.961,10.257,5.859,485.352,138.428,445.19,77.662,34.08,-90.709
 15:42:38.582,eb:33:2e:f9:57:b5, 2085-97-80 194:235:13:-20090,-10.335,3.067,-0.69,-160.706,354.37,-873.169,81.403,33.646,-87.347
 15:42:38.670,eb:33:2e:f9:57:b5, 2085-97-63 238:116:236:20106,7.793,-0.243,-7.216,-288.33,-1073.853,481.995,80.063,33.942,-85.463
 15:42:38.670,eb:33:2e:f9:57:b5, 2085-97-231 96:188:253:18459,7.622,-2.838,9.538,-112.61,-1115.906,-359.253,68.708,31.19,-103.678
 15:42:38.670,eb:33:2e:f9:57:b5, 2085-97-188 22:05:05:-1214,2.779,0.248,2.195,7.812,792.48,-38.269,70.56,32.91,-99.827
 15:42:38.670,eb:33:2e:f9:57:b5, 2085-97-44 13:57:03:4503,-1.621,1.122,1.259,69.153,-58.96,-149.414,71.807,34.442,-98.756
 15:42:38.672,eb:33:2e:f9:57:b5, 2085-97-24 237:233:01:-2854,-1.366,-0.156,0.114,38.757,223.816,-112.305,73.51,36.513,-96.46
 15:42:38.672,eb:33:2e:f9:57:b5, 2085-97-231 250:01:255:1868,0.64,0.013,0.246,21.973,-57.495,-65.247,73.504,37.288,-97.004
 15:42:38.672,eb:33:2e:f9:57:b5, 2085-97-11 11:15:02:4101,0.672,0.181,1.386,35.889,-116.455,-38.208,73.087,37.375,-98.152
 15:42:38.672,eb:33:2e:f9:57:b5, 2085-97-240 255:191:00:2159,-0.134,0.116,1.645,37.048,31.433,-63.049,73.191,37.853,-98.547
 15:42:38.674,eb:33:2e:f9:57:b5, 2085-97-71 254:71:01:1832,-0.301,0.208,0.919,33.997,-10.803,-55.847,73.427,38.436,-98.762
 15:42:38.674,eb:33:2e:f9:57:b5, 2085-97-250 251:186:09:2470,-0.533,0.547,2.159,406.372,487.488,-11.963,117.592,38.463,-82.354
 15:42:38.674,eb:33:2e:f9:57:b5, 2085-97-231 252:172:08:2053,0.279,1.164,0.894,333.252,258.972,-8.667,123.882,36.524,-78.118
 15:42:38.674,eb:33:2e:f9:57:b5, 2085-97-205 04:173:04:2376,0.85,0.885,0.958,243.53,94.971,-28.809,127.716,35.706,-76.388
 15:42:38.676,eb:33:2e:f9:57:b5, 2085-97-90 02:167:01:3886,0.529,0.486,1.374,237.305,101.135,-50.659,130.693,35.436,-75.262
 15:42:38.676,eb:33:2e:f9:57:b5, 2085-97-217 01:56:00:4586,0.026,-0.191,1.888,319.458,68.359,-83.679,134.352,35.068,-73.718
 15:42:38.676,eb:33:2e:f9:57:b5, 2085-97-110 254:192:03:251,-0.706,0.486,1.337,305.969,352.905,10.071,138.922,33.838,-71.675
 15:42:38.676,eb:33:2e:f9:57:b5, 2085-97-120 253:161:02:206,0.221,0.657,-0.191,232.727,153.687,64.331,142.427,31.459,-70.203
 15:42:38.940,eb:33:2e:f9:57:b5, 2085-97-184 03:177:01:3184,0.418,0.165,0.877,169.861,36.926,81.116,144.24,30.465,-70.428
 15:42:38.940,eb:33:2e:f9:57:b5, 2085-97-99 03:153:05:3884,0.482,0.454,1.84,161.682,83.13,85.815,145.684,29.377,-70.823
 15:42:38.940,eb:33:2e:f9:57:b5, 2085-97-124 04:206:05:4342,0.694,0.782,1.99,166.199,6.775,38.269,147.173,28.691,-71.109
 15:42:38.940,eb:33:2e:f9:57:b5, 2085-97-253 05:252:03:4526,0.767,0.628,2.153,171.57,-9.033,-0.793,148.766,28.663,-71.318
 15:42:39.002,eb:33:2e:f9:57:b5, 2085-97-26 06:106:03:4452,0.762,0.449,2.205,174.5,19.592,-34.668,150.612,28.707,-71.065
 15:42:39.002,eb:33:2e:f9:57:b5, 2085-97-74 06:86:02:4475,0.825,0.401,2.171,173.279,23.621,-75.989,152.693,28.768,-70.373
 15:42:39.002,eb:33:2e:f9:57:b5, 2085-97-01 07:191:255:4576,0.917,0.136,2.235,170.837,29.663,-118.408,154.968,28.982,-69.197
 15:42:39.002,eb:33:2e:f9:57:b5, 2085-97-118 07:146:253:4213,0.919,-0.183,2.166,166.87,62.866,-150.208,157.473,29.114,-67.544
 15:42:39.002,eb:33:2e:f9:57:b5, 2085-97-66 07:254:251:3778,0.925,-0.409,1.955,152.649,96.802,-168.274,160.082,28.932,-65.457
 15:42:39.002,eb:33:2e:f9:57:b5, 2085-97-125 07:117:250:3379,0.919,-0.597,1.736,124.939,118.53,-171.875,162.559,28.449,-63.199
 15:42:39.002,eb:33:2e:f9:57:b5, 2085-97-244 06:248:248:2959,0.833,-0.782,1.557,84.839,144.958,-160.156,164.663,27.653,-60.93
 15:42:39.003,eb:33:2e:f9:57:b5, 2085-97-109 06:51:247:2499,0.793,-0.966,1.318,34.363,148.071,-137.878,166.179,26.576,-58.887
 15:42:39.452,eb:33:2e:f9:57:b5, 2085-97-247 05:35:245:1846,0.71,-1.242,1.1,-25.818,155.396,-102.722,166.943,25.411,-57.178
 15:42:39.452,eb:33:2e:f9:57:b5, 2085-97-228 05:134:245:863,0.86,-1.384,0.615,-88.44,183.35,-44.617,166.855,23.884,-55.964
 15:42:39.452,eb:33:2e:f9:57:b5, 2085-97-94 08:140:247:1242,1.175,-1.182,0.451,-150.94,147.644,-0.366,165.872,22.313,-55.333
 15:42:39.452,eb:33:2e:f9:57:b5, 2085-97-170 09:227:248:1238,1.184,-0.977,0.693,-214.783,172.791,29.48,164.108,20.792,-55.058
 15:42:39.452,eb:33:2e:f9:57:b5, 2085-97-153 09:199:250:278,1.298,-0.781,0.386,-274.475,219.604,70.068,161.669,18.693,-54.926
 15:42:39.452,eb:33:2e:f9:57:b5, 2085-97-157 11:169:252:-464,1.623,-0.516,-0.08,-337.83,203.491,94.788,158.56,16.392,-55.003
 15:42:39.452,eb:33:2e:f9:57:b5, 2085-97-56 14:50:254:-609,1.896,-0.327,-0.279,-407.776,184.448,109.985,154.759,14.222,-55.184
 15:42:39.453,eb:33:2e:f9:57:b5, 2085-97-219 15:169:255:-468,2.009,-0.128,-0.263,-464.722,163.147,99.731,150.326,12.195,-55.333
 15:42:39.455,eb:33:2e:f9:57:b5, 2085-97-39 16:49:01:-562,0.909,0.044,-0.233,-510.62,141.907,80.139,145.432,10.432,-55.256
 15:42:39.455,eb:33:2e:f9:57:b5, 2085-97-03 07:119:255:4590,0.774,-0.122,1.979,-461.121,-302.185,117.615,94.175,11.195,-66.533
 15:42:39.455,eb:33:2e:f9:57:b5, 2085-113-58 00:144:232:-855,0.583,0.008,2.457,-421.448,-270.691,199.402,89.203,9.673,-69.516
 15:42:39.455,eb:33:2e:f9:57:b5, 2085-97-162 03:22:02:4866,0.399,0.062,2.485,-388.55,-248.352,250.732,86.995,8.476,-70.768
 15:42:39.457,eb:33:2e:f9:57:b5, 2085-97-70 03:42:06:4878,0.398,0.49,2.303,-313.477,-283.325,333.984,83.216,5.29,-73.098
 15:42:39.457,eb:33:2e:f9:57:b5, 2085-97-243 01:24:09:5772,0.27,1.01,2.542,-242.126,-297.546,421.997,80.327,1.093,-75.498
 15:42:39.457,eb:33:2e:f9:57:b5, 2085-97-22 02:70:16:6637,0.284,1.565,2.979,-165.222,-240.784,551.27,78.404,-4.323,-77.151
 15:42:39.457,eb:33:2e:f9:57:b5, 2085-97-84 02:58:24:7403,0.163,2.595,3.501,-150.391,-178.406,539.978,76.976,-10.223,-77.97
 15:42:39.572,eb:33:2e:f9:57:b5, 2085-97-111 00:134:30:7554,0.037,3.461,3.75,-136.047,-101.562,468.384,75.553,-15.419,-78.129
 15:42:39.572,eb:33:2e:f9:57:b5, 2085-97-119 08:63:251:4170,1.103,4.285,3.561,-114.929,-31.189,398.499,74.13,-19.753,-77.525
 15:42:39.572,eb:33:2e:f9:57:b5, 2085-97-86 09:224:248:4082,1.226,-0.751,1.967,121.338,74.89,-181.824,139.68,-23.719,-40.677
 15:42:39.573,eb:33:2e:f9:57:b5, 2085-97-196 09:118:247:3758,1.144,-0.982,1.958,78.125,113.037,-159.668,139.85,-23.318,-38.617
 15:42:39.576,eb:33:2e:f9:57:b5, 2085-97-131 08:137:246:2508,1.035,-1.131,1.6,25.574,162.72,-124.451,139.499,-23.472,-36.431
 15:42:39.576,eb:33:2e:f9:57:b5, 2085-97-255 07:72:246:806,0.971,-1.19,0.785,-43.945,172.424,-82.52,138.571,-24.109,-34.371
 15:42:39.576,eb:33:2e:f9:57:b5, 2085-97-219 07:178:246:-144,1.024,-1.212,0.103,-123.413,151.855,-36.804,137.005,-24.928,-32.684
 15:42:39.576,eb:33:2e:f9:57:b5, 2085-97-109 08:168:247:-082,1.158,-1.116,-0.111,-196.96,101.807,-11.108,134.874,-25.675,-31.558
 15:42:39.578,eb:33:2e:f9:57:b5, 2085-97-232 09:104:249:-285,1.313,-0.888,-0.071,-267.151,78.979,4.822,132.226,-26.279,-30.822
 15:42:39.578,eb:33:2e:f9:57:b5, 2085-97-225 10:01:251:-1097,1.425,-0.734,-0.303,-332.764,97.961,19.714,128.914,-26.927,-30.185
 15:42:39.578,eb:33:2e:f9:57:b5, 2085-97-19 12:211:252:-1766,1.592,-0.509,-0.76,-400.635,108.093,42.664,124.865,-27.828,-29.416
 15:42:39.578,eb:33:2e:f9:57:b5, 2085-97-225 13:96:254:-1713,1.877,-0.329,-0.848,-467.712,90.759,51.88,120.179,-28.773,-28.762
 15:42:39.660,eb:33:2e:f9:57:b5, 2085-97-184 15:08:00:-1444,1.99,-0.087,-0.792,-530.396,69.336,37.292,114.879,-29.531,-28.185
 15:42:39.660,eb:33:2e:f9:57:b5, 2085-97-168 15:227:00:-1102,1.947,0.075,-0.617,-576.721,66.65,30.212,109.017,-30.092,-27.603
 15:42:39.660,eb:33:2e:f9:57:b5, 2085-97-216 15:156:01:-696,1.998,0.159,-0.461,-601.562,20.447,14.343,102.876,-30.443,-27.136
 15:42:39.660,eb:33:2e:f9:57:b5, 2085-97-235 15:218:01:-168,1.969,0.229,-0.194,-610.718,-41.992,-1.221,96.894,-30.46,-27.328
 15:42:39.690,eb:33:2e:f9:57:b5, 2085-97-84 15:97:01:269,1.86,0.233,0.006,-601.562,-101.929,-1.526,91.252,-30.394,-28.147
 15:42:39.690,eb:33:2e:f9:57:b5, 2085-97-168 14:177:00:904,1.786,0.119,0.279,-576.111,-171.997,2.258,86.182,-30.443,-29.762
 15:42:39.690,eb:33:2e:f9:57:b5, 2085-97-100 13:33:00:1832,1.563,0.047,0.673,-538.452,-236.572,10.132,81.843,-30.718,-32.141
 15:42:39.690,eb:33:2e:f9:57:b5, 2085-97-130 11:242:255:2319,1.238,0.009,1.028,-497.437,-263.062,34.302,78.135,-31.399,-34.975
 15:42:39.811,eb:33:2e:f9:57:b5, 2085-97-163 08:84:255:2988,0.918,-0.06,1.29,-462.097,-294.861,61.646,74.971,-32.514,-38.002
 15:42:39.811,eb:33:2e:f9:57:b5, 2085-97-131 06:252:254:3982,0.713,-0.131,1.67,-423.34,-325.867,111.633,72.345,-34.228,-41.276
 15:42:39.811,eb:33:2e:f9:57:b5, 2085-97-29 04:228:254:4798,0.442,-0.104,2.188,-382.141,-315.735,184.753,70.17,-36.689,-44.396
 15:42:39.811,eb:33:2e:f9:57:b5, 2085-97-14 04:166:01:4835,0.567,-0.028,2.364,-328.125,-286.499,267.273,68.121,-39.93,-46.802
 15:42:39.813,eb:33:2e:f9:57:b5, 2085-97-55 04:218:06:5198,0.406,0.506,2.443,-274.414,-272.156,324.951,66.434,-43.753,-48.691
 15:42:39.813,eb:33:2e:f9:57:b5, 2085-97-243 01:145:13:4970,0.13,1.222,2.545,-222.412,-192.749,409.729,64.501,-48.076,-49.433
 15:42:39.813,eb:33:2e:f9:57:b5, 2085-97-171 00:31:19:4940,0.044,2.047,2.394,-190.979,-183.472,454.285,62.029,-52.8,-48.735
 15:42:39.813,eb:33:2e:f9:57:b5, 2085-97-20 00:158:24:5240,-0.054,2.736,2.494,-178.894,-192.2,458.679,59.332,-57.728,-47.692
 15:42:39.813,eb:33:2e:f9:57:b5, 2085-97-59 255:91:29:5815,-0.1,3.375,2.655,-169.983,-191.04,451.965,56.206,-62.573,-45.967
 15:42:39.813,eb:33:2e:f9:57:b5, 2085-97-150 255:115:34:7107,-0.082,3.988,3.141,-159.485,-198.303,423.157,52.482,-67.286,-43.665
 15:42:39.813,eb:33:2e:f9:57:b5, 2085-97-159 255:235:40:7601,0.034,4.64,3.687,-133.484,-151.672,365.295,48.032,-71.444,-40.336
 15:42:39.814,eb:33:2e:f9:57:b5, 2085-97-80 00:153:46:5877,0.034,5.498,3.424,-103.699,-34.485,265.93,41.765,-74.279,-35.008
 15:42:39.816,eb:33:2e:f9:57:b5, 2085-97-168 00:63:50:3118,0.037,6.069,2.169,-70.862,45.898,155.029,34.755,-75.416,-28.477
 15:42:39.816,eb:33:2e:f9:57:b5, 2085-97-241 00:215:48:1986,0.037,6.266,1.278,-40.283,63.171,26.001,30.3,-75.388,-24.434
 15:42:39.816,eb:33:2e:f9:57:b5, 2085-97-160 254:04:44:317,-0.408,5.867,0.573,-6.348,69.153,-86.914,30.119,-74.575,-24.324
 15:42:39.816,eb:33:2e:f9:57:b5, 2085-97-237 250:21:37:369,-0.834,5.111,-0.042,38.025,-20.264,-158.142,33.618,-73.669,-27.784
 15:42:39.816,eb:33:2e:f9:57:b5, 2085-97-03 249:119:27:2677,-0.874,4.045,0.738,96.619,-108.276,-179.016,40.485,-73.246,-34.085
 15:42:40.082,eb:33:2e:f9:57:b5, 2085-113-58 00:189:232:-5475,-0.91,2.733,1.577,147.522,-70.068,-203.247,48.312,-72.581,-40.963
 15:42:40.082,eb:33:2e:f9:57:b5, 2085-97-212 247:198:10:2415,-1.216,1.969,1.49,176.331,-26.184,-196.777,51.669,-71.96,-43.627
 15:42:40.082,eb:33:2e:f9:57:b5, 2085-97-239 244:204:00:702,-4.282,0.731,0.753,227.112,43.945,-164.795,56.475,-70.367,-46.406
 15:42:40.082,eb:33:2e:f9:57:b5, 2085-97-202 10:161:78:-2030,-1.883,4.932,2.957,320.923,304.016,160.339,58.041,-69.214,-44.956
 15:42:40.084,eb:33:2e:f9:57:b5, 2085-97-196 217:119:242:-2291,-1.544,-3.985,4.962,-189.087,112.915,-401.794,58.991,-68.28,-47.719
 15:42:40.084,eb:33:2e:f9:57:b5, 2085-97-126 33:31:13:11802,1.302,4.491,-7.259,-271.301,-587.158,351.318,51.586,-68.137,-41.534
 15:42:40.084,eb:33:2e:f9:57:b5, 2085-97-43 47:17:13:-2759,4.657,-5.215,10.082,-77.698,180.42,-108.521,63.968,-69.785,-57.458
 15:42:40.084,eb:33:2e:f9:57:b5, 2085-97-203 20:36:251:6457,-0.226,0.076,3.624,9.827,-4.578,-97.473,65.539,-69.659,-59.365
 15:42:40.111,eb:33:2e:f9:57:b5, 2085-97-79 240:78:255:-350,-2.008,-0.408,0.775,81.238,358.215,2.686,59.035,-67.857,-51.707
 15:42:40.111,eb:33:2e:f9:57:b5, 2085-97-72 250:72:02:932,0.241,-0.247,0.362,96.13,-128.357,-71.838,59.694,-67.176,-51.443
 15:42:40.111,eb:33:2e:f9:57:b5, 2085-97-77 05:229:02:2419,0.823,0.365,0.923,55.359,-100.83,-74.097,64.122,-67.165,-55.316
 15:42:40.111,eb:33:2e:f9:57:b5, 2085-97-254 05:193:01:3073,0.438,0.31,1.322,52.734,-63.721,-98.083,67.115,-66.687,-58.024
 15:42:40.111,eb:33:2e:f9:57:b5, 2085-97-149 01:175:01:3343,0.14,0.114,1.561,86.548,-18.677,-89.417,69.318,-65.896,-59.557
 15:42:40.111,eb:33:2e:f9:57:b5, 2085-97-180 254:35:254:4233,-0.032,0.002,1.52,130.127,-71.899,-82.642,72.037,-65.226,-61.315
 15:42:40.111,eb:33:2e:f9:57:b5, 2085-97-88 01:24:252:4793,0.403,-0.229,2.148,163.879,-98.45,-34.241,75.613,-64.907,-63.512
 15:42:40.111,eb:33:2e:f9:57:b5, 2085-97-36 05:233:248:6477,1.03,-0.611,2.686,234.375,-85.266,47.913,79.838,-65.171,-66
 15:42:40.115,eb:33:2e:f9:57:b5, 2085-97-85 09:252:252:7515,0.353,-0.801,3.496,341.797,102.051,146.484,82.408,-66.357,-65.396
 15:42:40.115,eb:33:2e:f9:57:b5, 2085-97-71 03:95:12:2561,0.532,2.069,0.783,268.799,131.897,-75.012,92.472,-55.135,-32.195
 15:42:40.115,eb:33:2e:f9:57:b5, 2085-97-50 02:181:247:6089,1.002,0.526,2.132,217.163,5.981,-131.042,94.098,-54.119,-31.388
 15:42:40.115,eb:33:2e:f9:57:b5, 2085-97-50 00:114:06:6795,0.048,0.539,3.051,432.19,92.285,-123.23,96.471,-53.042,-30.245
 15:42:40.141,eb:33:2e:f9:57:b5, 2085-97-245 251:195:00:2243,-0.557,0.237,1.07,361.877,260.498,-61.951,96.993,-52.097,-25.906
 15:42:40.141,eb:33:2e:f9:57:b5, 2085-97-143 00:179:00:1868,0.136,0.044,1.246,319.397,134.705,-10.986,98.004,-52.07,-22.808
 15:42:40.141,eb:33:2e:f9:57:b5, 2085-97-76 01:47:01:4015,0.31,0.042,1.481,249.756,126.709,52.185,99.421,-52.443,-21.039
 15:42:40.141,eb:33:2e:f9:57:b5, 2085-97-163 03:242:03:5153,0.632,0.307,2.207,226.44,99.548,65.857,100.377,-53.267,-19.297
 15:42:40.231,eb:33:2e:f9:57:b5, 2085-97-189 06:135:04:5704,0.942,0.56,2.715,217.468,80.688,45.715,101.58,-53.987,-17.99
 15:42:40.231,eb:33:2e:f9:57:b5, 2085-97-89 08:56:03:5719,1.157,0.5,2.868,217.346,87.28,13.55,102.75,-54.432,-16.749
 15:42:40.231,eb:33:2e:f9:57:b5, 2085-97-152 09:20:01:5326,1.22,0.304,2.656,221.436,101.257,-19.653,103.629,-54.597,-15.084
 15:42:40.231,eb:33:2e:f9:57:b5, 2085-97-218 09:63:255:5023,1.267,0.003,2.549,237.366,107.483,-60.913,104.332,-54.47,-13.123
 15:42:40.231,eb:33:2e:f9:57:b5, 2085-97-202 09:195:253:4640,1.2,-0.162,2.286,245.728,78.186,-117.065,105.194,-53.811,-11.135
 15:42:40.231,eb:33:2e:f9:57:b5, 2085-97-176 09:82:251:4395,1.227,-0.451,2.218,237.61,68.42,-155.884,106.194,-52.652,-9.355
 15:42:40.231,eb:33:2e:f9:57:b5, 2085-97-51 10:154:248:4345,1.294,-0.752,2.101,207.764,51.575,-183.96,107.095,-51.158,-7.619
 15:42:40.231,eb:33:2e:f9:57:b5, 2085-97-53 10:200:246:3959,1.251,-1.077,2.085,161.377,86.426,-181.03,107.507,-49.587,-5.768
 15:42:40.261,eb:33:2e:f9:57:b5, 2085-97-14 10:197:246:3300,1.341,-1.162,1.752,103.882,114.929,-161.011,107.095,-48.263,-3.45
 15:42:40.261,eb:33:2e:f9:57:b5, 2085-97-237 10:128:246:3039,1.349,-1.123,1.461,40.283,94.177,-143.677,106.188,-47.131,-1.274
 15:42:40.261,eb:33:2e:f9:57:b5, 2085-97-33 10:102:245:2639,1.192,-1.252,1.449,-28.87,92.957,-121.277,104.93,-46.093,0.489
 15:42:40.261,eb:33:2e:f9:57:b5, 2085-97-84 09:64:245:1911,1.219,-1.365,1.098,-87.708,88.135,-86.304,103.134,-45.33,2.153
 15:42:40.501,eb:33:2e:f9:57:b5, 2085-97-69 10:162:245:1221,1.292,-1.313,0.764,-155.884,76.172,-55.359,100.986,-44.808,3.461
 15:42:40.501,eb:33:2e:f9:57:b5, 2085-97-233 09:179:246:551,1.266,-1.268,0.416,-229.126,109.131,-18.799,98.064,-44.599,4.828
 15:42:40.501,eb:33:2e:f9:57:b5, 2085-97-80 10:141:249:410,1.383,-0.974,0.176,-296.082,99.67,7.202,94.318,-44.703,6.405
 15:42:40.501,eb:33:2e:f9:57:b5, 2085-97-14 12:225:251:230,1.611,-0.676,0.192,-369.08,93.689,16.907,90.049,-44.852,7.69
 15:42:40.503,eb:33:2e:f9:57:b5, 2085-113-58 00:152:254:-5715,1.686,-0.356,-0.053,-450.867,126.343,29.114,84.809,-45.033,9.3
 15:42:40.503,eb:33:2e:f9:57:b5, 2085-97-205 13:27:255:-870,1.84,-0.196,-0.29,-494.751,126.526,30.273,81.777,-45.11,10.223
 15:42:40.503,eb:33:2e:f9:57:b5, 2085-97-69 16:92:01:-990,2.127,0.04,-0.462,-575.989,105.164,28.625,75.163,-45.203,12.003
 15:42:40.503,eb:33:2e:f9:57:b5, 2085-97-170 17:152:03:-331,2.22,0.265,-0.319,-644.836,72.388,5.859,68.176,-45.066,13.162
 15:42:40.503,eb:33:2e:f9:57:b5, 2085-97-240 16:68:05:276,1.982,0.583,-0.021,-684.937,53.345,-8.911,60.941,-44.764,14.013
 15:42:40.503,eb:33:2e:f9:57:b5, 2085-97-254 14:242:04:494,1.868,0.692,0.224,-689.636,-0.366,-24.231,53.882,-44.478,14.233
 15:42:40.503,eb:33:2e:f9:57:b5, 2085-97-07 15:66:03:830,1.9,0.522,0.261,-660.217,-111.755,-37.109,47.802,-44.621,13.387
 15:42:40.504,eb:33:2e:f9:57:b5, 2085-97-170 14:211:02:1771,1.616,0.375,0.605,-617.615,-193.542,-43.396,42.841,-45.472,11.398
 15:42:40.506,eb:33:2e:f9:57:b5, 2085-97-28 11:55:02:2475,1.188,0.302,1.117,-570.74,-227.051,-28.564,38.699,-46.862,9.053
 15:42:40.506,eb:33:2e:f9:57:b5, 2085-97-04 08:05:01:2815,0.883,0.224,1.271,-521.423,-268.372,7.141,34.953,-48.796,6.762
 15:42:40.506,eb:33:2e:f9:57:b5, 2085-97-167 06:99:00:3265,0.854,0.056,1.479,-471.375,-296.814,59.509,31.547,-51.383,4.9
 15:42:40.506,eb:33:2e:f9:57:b5, 2085-97-218 04:212:01:3682,0.358,0.213,1.713,-417.664,-291.565,120.667,28.004,-54.443,3.796
 15:42:40.508,eb:33:2e:f9:57:b5, 2085-97-245 01:237:04:3225,0.217,0.377,1.65,-344.666,-250.854,206.177,23.637,-57.491,4.614
 15:42:40.508,eb:33:2e:f9:57:b5, 2085-97-179 01:68:09:4168,0.135,0.871,1.786,-261.047,-322.083,280.518,18.523,-61.106,7.108
 15:42:40.508,eb:33:2e:f9:57:b5, 2085-97-207 255:64:14:4276,-0.192,1.465,2.139,-202.148,-287.476,346.558,11.876,-64.94,12.178
 15:42:40.508,eb:33:2e:f9:57:b5, 2085-97-97 253:134:19:3954,-0.408,2.111,1.938,-164.795,-265.808,389.404,2.357,-68.044,20.599
 15:42:40.742,eb:33:2e:f9:57:b5, 2085-97-53 253:200:24:4493,-0.21,2.736,1.996,-149.231,-315.186,390.381,-9.981,-70.686,32.3
 15:42:40.742,eb:33:2e:f9:57:b5, 2085-97-01 252:76:48:3721,-0.39,3.311,2.693,-149.353,-278.137,388.977,-25.192,-72.537,46.747
 15:42:40.742,eb:33:2e:f9:57:b5, 2085-97-17 254:17:49:2886,-0.156,6.166,1.612,-98.328,-28.809,19.287,-69.664,-67.379,86.056
 15:42:40.742,eb:33:2e:f9:57:b5, 2085-97-156 254:77:45:2102,-0.33,5.949,1.26,-68.726,-32.043,-103.638,-70.862,-67.961,86.479
 15:42:40.744,eb:33:2e:f9:57:b5, 2085-97-244 250:108:39:1314,-0.994,5.347,0.775,-53.65,-24.658,-197.021,-70.735,-69.538,85.864
 15:42:40.744,eb:33:2e:f9:57:b5, 2085-97-249 244:148:31:2241,-1.652,4.437,0.833,-21.24,-55.725,-232.544,-70.192,-71.785,84.88
 15:42:40.744,eb:33:2e:f9:57:b5, 2085-97-28 241:84:21:3994,-2.032,3.343,1.58,42.969,-84.412,-234.131,-69.922,-74.273,84.88
 15:42:40.744,eb:33:2e:f9:57:b5, 2085-97-41 239:75:11:4470,-2.218,2.027,2.098,128.845,-26.367,-205.322,-67.983,-76.52,83.804
 15:42:40.746,eb:33:2e:f9:57:b5, 2085-97-101 236:206:01:3423,-4.193,0.848,1.992,214.6,72.51,-141.541,-61.891,-77.975,79.519
 15:42:40.746,eb:33:2e:f9:57:b5, 2085-97-184 249:58:88:9353,0.509,2.893,3.275,328.674,244.934,206.299,-53.608,-77.717,73.943
 15:42:40.746,eb:33:2e:f9:57:b5, 2085-97-31 246:181:251:2910,1.808,1.566,-0.964,-81.421,140.259,-293.579,-46.648,-78.08,66.346
 15:42:40.746,eb:33:2e:f9:57:b5, 2085-97-15 32:103:06:12589,3.519,4.836,-5.899,-269.043,-202.576,149.719,-46.351,-78.041,64.907
 15:42:40.748,eb:33:2e:f9:57:b5, 2085-97-201 28:115:253:1681,5.224,-3.227,4.952,-25.208,261.414,-29.053,-49.493,-79.14,66.346
 15:42:40.748,eb:33:2e:f9:57:b5, 2085-97-07 18:254:253:7846,-1.63,1.465,1.067,20.935,-41.138,-130.066,-47.878,-79.915,64.957
 15:42:40.748,eb:33:2e:f9:57:b5, 2085-97-57 229:47:01:-2368,-2.746,-0.701,0.66,62.256,488.22,-1.343,-32.113,-77.289,49.362
 15:42:40.748,eb:33:2e:f9:57:b5, 2085-97-26 249:203:254:2683,0.185,-0.6,0.285,60.547,-195.74,-111.389,-27.477,-77.448,45.165
 15:42:40.800,eb:33:2e:f9:57:b5, 2085-97-144 03:213:01:2745,1.358,0.175,1.164,55.969,-21.606,-54.138,-25.862,-78.646,44.286
 15:42:40.800,eb:33:2e:f9:57:b5, 2085-97-254 28:107:248:5049,2.994,0.482,1.524,93.506,-122.375,-85.815,-23.412,-79.547,42.545
 15:42:40.800,eb:33:2e:f9:57:b5, 2085-97-201 21:12:250:4087,2.197,-0.736,1.145,488.525,197.754,-239.624,16.205,-70.054,32.635
 15:42:40.800,eb:33:2e:f9:57:b5, 2085-97-152 07:37:255:12035,-0.129,-0.516,4.84,444.214,101.624,-372.314,27.949,-68.187,25.032
 15:42:40.861,eb:33:2e:f9:57:b5, 2085-97-232 251:123:17:5521,-0.076,1.119,4.72,466.797,593.567,-248.779,33.931,-63.116,23.544
 15:42:40.861,eb:33:2e:f9:57:b5, 2085-97-111 04:254:29:-166,1.097,2.65,0.954,450.5,309.265,-159.424,36.744,-58.14,25.692
 15:42:40.861,eb:33:2e:f9:57:b5, 2085-97-30 09:103:21:1092,0.518,3.302,-0.528,258.728,25.146,-180.237,40.463,-55.761,25.483
 15:42:40.861,eb:33:2e:f9:57:b5, 2085-97-133 14:154:245:7952,1.243,0.17,2.802,219.299,-196.655,-283.081,46.615,-55.179,20.577
 15:42:40.890,eb:33:2e:f9:57:b5, 2085-97-54 02:34:07:7417,0.671,0.498,5.534,449.768,256.165,-176.941,53.674,-53.992,16.622
 15:42:40.890,eb:33:2e:f9:57:b5, 2085-97-85 252:252:03:3650,0.202,0.323,0.337,367.859,367.798,-0.427,52.63,-50.12,22.698
 15:42:40.890,eb:33:2e:f9:57:b5, 2085-97-103 08:129:01:5100,1.171,0.211,1.953,297.668,142.09,13.733,54.19,-48.856,25.131
 15:42:40.890,eb:33:2e:f9:57:b5, 2085-97-219 09:84:04:7773,1.296,0.35,3.522,289.978,243.896,114.563,54.838,-48.455,28.174
 15:42:40.921,eb:33:2e:f9:57:b5, 2085-97-58 10:07:06:8138,1.098,0.694,3.9,307.678,241.089,123.657,54.783,-47.994,32.344
 15:42:40.921,eb:33:2e:f9:57:b5, 2085-97-53 08:196:02:5427,0.89,0.707,3.523,315.369,263.733,100.037,54.959,-47.477,36.365
 15:42:40.921,eb:33:2e:f9:57:b5, 2085-97-41 07:227:02:6230,1.084,0.323,2.807,340.576,108.582,69.763,56.184,-47.186,39.326
 15:42:40.921,eb:33:2e:f9:57:b5, 2085-97-71 09:199:01:6698,1.299,0.341,3.079,342.712,70.312,20.02,58.585,-47.06,40.721
 15:42:40.951,eb:33:2e:f9:57:b5, 2085-97-47 09:107:255:7283,0.916,-0.082,3.382,347.412,68.481,-7.141,61.441,-46.752,41.583
 15:42:40.951,eb:33:2e:f9:57:b5, 2085-97-253 07:68:251:6182,1.057,-0.408,3.229,320.19,71.716,-80.078,64.166,-45.851,42.358
 15:42:40.951,eb:33:2e:f9:57:b5, 2085-97-198 08:08:247:5787,1.037,-0.874,3.002,290.344,61.096,-108.948,67.165,-44.72,42.479
 15:42:40.951,eb:33:2e:f9:57:b5, 2085-113-58 00:252:03:-5820,0.9,-1.29,2.704,251.221,100.281,-103.271,69.5,-43.429,43.006
 15:42:40.951,eb:33:2e:f9:57:b5, 2085-97-56 06:210:243:4891,0.672,-1.412,2.53,221.68,106.262,-99.487,70.373,-42.775,43.451
 15:42:41.069,eb:33:2e:f9:57:b5, 2085-97-90 04:138:241:3971,0.463,-1.66,2.201,160.767,96.13,-89.172,71.708,-41.55,44.324
 15:42:41.069,eb:33:2e:f9:57:b5, 2085-97-45 04:103:241:2275,0.325,-1.865,1.552,92.102,98.145,-46.997,72.318,-40.594,45.291
 15:42:41.069,eb:33:2e:f9:57:b5, 2085-97-244 02:153:239:952,0.356,-2.089,1.028,13.855,111.45,17.151,72.076,-40.128,46.45
 15:42:41.069,eb:33:2e:f9:57:b5, 2085-97-209 02:62:238:-608,0.394,-2.193,-0.067,-78.369,112.61,55.603,70.615,-40.067,48.104
 15:42:41.071,eb:33:2e:f9:57:b5, 2085-97-34 03:38:239:-1695,0.414,-2.146,-0.61,-161.743,113.037,98.083,68.236,-40.413,49.905
 15:42:41.071,eb:33:2e:f9:57:b5, 2085-97-152 03:116:240:-2241,0.526,-1.987,-0.95,-237.366,66.589,117.432,65.143,-41.094,51.542
 15:42:41.071,eb:33:2e:f9:57:b5, 2085-97-95 04:35:242:-3084,0.634,-1.874,-1.344,-317.627,45.349,137.146,61.403,-41.973,52.982
 15:42:41.071,eb:33:2e:f9:57:b5, 2085-97-231 05:11:244:-2889,0.793,-1.6,-1.562,-393.494,2.38,159.119,56.898,-43.143,54.327
 15:42:41.073,eb:33:2e:f9:57:b5, 2085-97-64 07:28:246:-1730,1.004,-1.382,-1.092,-455.505,-35.461,156.433,51.899,-44.566,55.426
 15:42:41.073,eb:33:2e:f9:57:b5, 2085-97-103 08:78:248:-838,1.188,-1.086,-0.667,-497.864,-92.285,139.465,46.604,-46.088,56.129
 15:42:41.073,eb:33:2e:f9:57:b5, 2085-97-114 10:228:249:171,1.366,-0.861,-0.128,-542.297,-124.207,123.23,41.259,-47.834,56.387
 15:42:41.073,eb:33:2e:f9:57:b5, 2085-97-115 11:138:251:923,1.474,-0.663,0.268,-582.336,-129.395,109.314,35.453,-49.543,56.602
 15:42:41.131,eb:33:2e:f9:57:b5, 2085-97-150 11:230:252:1763,1.412,-0.457,0.655,-608.459,-152.161,82.886,29.432,-51.262,56.75
 15:42:41.131,eb:33:2e:f9:57:b5, 2085-97-229 10:166:253:2416,1.294,-0.325,0.997,-610.229,-170.288,67.017,23.379,-53.026,56.673
 15:42:41.131,eb:33:2e:f9:57:b5, 2085-97-05 10:146:253:3060,1.256,-0.305,1.339,-589.844,-201.111,63.11,17.485,-55.031,56.656
 15:42:41.131,eb:33:2e:f9:57:b5, 2085-97-124 09:136:253:3708,1.08,-0.295,1.653,-561.462,-225.281,64.087,11.602,-57.277,56.832
 15:42:41.160,eb:33:2e:f9:57:b5, 2085-97-161 07:81:254:3367,0.799,-0.282,1.81,-529.663,-218.628,71.899,5.62,-59.579,57.585
 15:42:41.160,eb:33:2e:f9:57:b5, 2085-97-187 04:71:254:2761,0.48,-0.22,1.461,-493.835,-234.497,84.839,-0.698,-61.87,58.986
 15:42:41.160,eb:33:2e:f9:57:b5, 2085-97-32 04:200:255:3009,0.454,-0.138,1.297,-458.374,-297.546,107.422,-7.718,-64.424,61.683
 15:42:41.160,eb:33:2e:f9:57:b5, 2085-97-65 02:231:00:4382,0.155,0.032,1.832,-437.134,-320.374,144.165,-16.348,-67.313,66.242
 15:42:41.191,eb:33:2e:f9:57:b5, 2085-97-104 00:43:04:4967,-0.012,0.303,2.295,-406.311,-287.476,216.553,-27.68,-69.384,74.064
 15:42:41.191,eb:33:2e:f9:57:b5, 2085-97-166 255:77:07:5115,-0.062,0.725,2.493,-390.686,-272.095,234.314,-41.034,-70.389,84.067
 15:42:41.191,eb:33:2e:f9:57:b5, 2085-97-87 255:190:10:5204,-0.106,1.111,2.503,-370.728,-249.207,249.817,-54.695,-70.34,94.686
 15:42:41.191,eb:33:2e:f9:57:b5, 2085-97-29 255:71:15:5575,-0.084,1.611,2.617,-350.159,-209.9,267.395,-67.022,-69.164,104.002
 15:42:41.281,eb:33:2e:f9:57:b5, 2085-97-178 255:143:19:6316,0.023,2.199,2.879,-337.646,-187.805,266.113,-77.086,-67.203,111.308
 15:42:41.281,eb:33:2e:f9:57:b5, 2085-97-161 00:59:23:6871,0.123,2.677,3.267,-328.552,-163.208,251.831,-85.172,-64.913,116.521
 15:42:41.281,eb:33:2e:f9:57:b5, 2085-97-120 01:173:27:6542,0.204,3.17,3.31,-321.167,-120.3,235.901,-91.34,-62.518,119.943
 15:42:41.281,eb:33:2e:f9:57:b5, 2085-97-67 01:125:32:6353,0.111,3.747,3.127,-307.8,-95.093,214.478,-96.174,-60.222,121.855
 15:42:41.281,eb:33:2e:f9:57:b5, 2085-97-91 00:63:38:5673,-0.023,4.43,2.987,-276.917,-65.552,179.81,-99.855,-58.145,122.915
 15:42:41.281,eb:33:2e:f9:57:b5, 2085-97-47 01:48:41:4655,0.231,5,2.547,-238.342,-91.431,87.097,-103.189,-56.689,123.821
 15:42:41.282,eb:33:2e:f9:57:b5, 2085-97-114 04:75:43:3825,0.536,5.36,2.261,-194.946,-72.998,-25.146,-106.611,-56.184,125.53
 15:42:41.282,eb:33:2e:f9:57:b5, 2085-97-197 02:225:44:2068,0.06,5.529,1.556,-134.46,2.747,-127.563,-109.056,-56.871,126.519
 15:42:41.312,eb:33:2e:f9:57:b5, 2085-97-245 254:216:42:1212,-0.509,5.578,0.629,-70.19,-41.504,-221.863,-111.198,-58.535,128.035
 15:42:41.312,eb:33:2e:f9:57:b5, 2085-97-248 250:89:33:1827,-0.917,4.837,0.876,-15.076,-87.585,-287.292,-114.505,-60.661,131.424
 15:42:41.312,eb:33:2e:f9:57:b5, 2085-97-135 248:102:20:2232,-0.939,3.356,1.07,43.457,-132.446,-313.538,-118.658,-62.809,136.5
 15:42:41.313,eb:33:2e:f9:57:b5, 2085-97-162 245:156:06:1566,1.272,1.718,1.125,112.671,-114.319,-298.706,-123.536,-64.742,142.839
 15:42:41.371,eb:33:2e:f9:57:b5, 2085-97-173 03:06:35:27448,0.779,0.899,1.295,534.79,-662.048,-199.707,-127.513,-65.901,149.749
 15:42:41.371,eb:33:2e:f9:57:b5, 2085-97-241 41:193:73:-18533,6.357,10.707,11.696,-35.95,931.763,152.405,-135.818,-64.907,161.977
 15:42:41.371,eb:33:2e:f9:57:b5, 2085-97-163 254:70:11:11951,-8.104,5.938,-3.152,312.378,-355.774,123.291,-131.144,-67.055,158.181
 15:42:41.371,eb:33:2e:f9:57:b5, 2085-97-138 213:27:181:13845,-2.504,-2.976,11.652,-223.145,1116.089,-254.761,-121.229,-71.494,147.453
 15:42:41.551,eb:33:2e:f9:57:b5, 2085-97-230 240:235:18:-7892,-1.184,3.077,1.291,199.402,1361.572,490.417,-83.177,-71.878,109.05
 15:42:41.551,eb:33:2e:f9:57:b5, 2085-97-148 11:36:04:215,3.123,-0.635,-2.657,90.149,-261.658,-37.292,-65.704,-69.582,90.088
 15:42:41.551,eb:33:2e:f9:57:b5, 2085-97-166 18:184:252:5172,0.705,1.417,1.592,48.523,-207.031,-102.417,-75.042,-71.642,101.266
 15:42:41.551,eb:33:2e:f9:57:b5, 2085-97-85 12:98:05:925,1.326,-0.198,2.21,77.82,227.173,-75.073,-70.615,-72.18,97.224
 15:42:41.553,eb:33:2e:f9:57:b5, 2085-97-77 255:171:253:3986,-1.771,0.169,1.165,77.576,115.967,-127.808,-64.688,-72.823,91.945
 15:42:41.553,eb:33:2e:f9:57:b5, 2085-97-215 241:110:253:-118,-0.438,-0.617,1.468,71.777,319.763,-48.706,-55.58,-72.312,83.117
 15:42:41.553,eb:33:2e:f9:57:b5, 2085-97-133 08:156:00:4264,1.346,0.007,0.37,157.654,-236.206,-74.89,-52.971,-72.691,81.793
 15:42:41.553,eb:33:2e:f9:57:b5, 2085-97-23 10:145:255:5931,1.609,-0.06,2.938,183.655,-126.038,-95.642,-55.256,-74.641,85.974
 15:42:41.555,eb:33:2e:f9:57:b5, 2085-97-156 15:224:254:6489,2.052,0.018,2.704,254.761,-154.297,-140.442,-54.009,-76.24,87.094
 15:42:41.555,eb:33:2e:f9:57:b5, 2085-97-144 14:171:248:7690,1.891,-0.435,3.735,321.716,-102.478,-158.508,-52.734,-78.437,88.781
 15:42:41.555,eb:33:2e:f9:57:b5, 2085-97-120 16:109:248:6191,2.034,-0.982,3.349,408.936,5.737,-152.1,-44.357,-79.689,84.177
 15:42:41.555,eb:33:2e:f9:57:b5, 2085-97-128 15:248:244:5722,1.574,-1.18,2.925,477.539,40.894,-164.978,-32.448,-80.623,76.613
 15:42:41.555,eb:33:2e:f9:57:b5, 2085-97-166 08:250:243:6617,0.246,-1.459,2.958,518.433,124.451,-138.794,-17.331,-80.53,66.517
 15:42:41.555,eb:33:2e:f9:57:b5, 2085-97-214 251:203:252:7567,-0.74,-1.029,3.458,525.208,101.807,-187.012,-1.89,-79.431,56.124
 15:42:41.555,eb:33:2e:f9:57:b5, 2085-97-179 252:232:11:6629,-0.149,0.615,3.565,539.673,0.916,-148.193,12.48,-78.876,47.049
 15:42:41.555,eb:33:2e:f9:57:b5, 2085-97-144 253:48:13:5685,-0.127,1.689,3.255,466.309,37.354,-67.81,22.297,-78.723,42.209
 15:42:41.558,eb:33:2e:f9:57:b5, 2085-97-254 04:43:07:1143,1.486,1.112,1.302,293.823,223.206,-0.916,24.296,-76.921,44.088
 15:42:41.558,eb:33:2e:f9:57:b5, 2085-97-202 13:86:12:4694,1.065,1.362,1.027,257.935,148.376,-14.648,23.928,-75.46,47.126
 15:42:41.558,eb:33:2e:f9:57:b5, 2085-97-199 01:209:31:4243,0.271,4.014,3.118,406.982,389.16,-77.881,24.879,-72.834,49.894
 15:42:41.558,eb:33:2e:f9:57:b5, 2085-97-66 08:220:12:-490,1.164,2.028,-0.545,280.151,73.181,-257.263,29.696,-68.807,47.972
 15:42:41.675,eb:33:2e:f9:57:b5, 2085-97-97 13:65:03:4280,1.353,0.827,1.794,226.562,-187.378,-336.67,41.49,-68.538,38.188
 15:42:41.675,eb:33:2e:f9:57:b5, 2085-97-203 06:143:02:5467,0.904,0.327,2.357,195.862,86.67,-263.672,48.79,-66.605,32.52
 15:42:41.675,eb:33:2e:f9:57:b5, 2085-97-179 09:36:02:6603,1.377,0.355,2.83,203.43,3.967,-272.705,53.377,-64.149,29.745
 15:42:41.675,eb:33:2e:f9:57:b5, 2085-97-104 11:27:00:7013,1.284,0.107,3.528,213.928,44.8,-244.873,58.343,-61.952,26.521
 15:42:41.675,eb:33:2e:f9:57:b5, 2085-97-152 09:26:255:6804,1.272,-0.06,3.296,230.408,83.862,-206.36,61.375,-59.639,25.681
 15:42:41.675,eb:33:2e:f9:57:b5, 2085-97-28 11:194:253:7688,1.443,-0.208,3.481,252.808,63.965,-177.673,64.177,-57.607,25.225
 15:42:41.675,eb:33:2e:f9:57:b5, 2085-97-163 12:23:252:8126,1.649,-0.407,3.958,283.02,104.858,-154.724,66.813,-55.767,25.367
 15:42:41.675,eb:33:2e:f9:57:b5, 2085-97-248 12:194:249:7566,1.554,-0.633,3.87,314.88,146.851,-135.254,68.961,-53.943,26.422
 15:42:41.676,eb:33:2e:f9:57:b5, 2085-97-65 12:49:248:6217,1.415,-0.899,3.352,338.196,187.317,-104.187,70.62,-52.218,28.531
 15:42:41.676,eb:33:2e:f9:57:b5, 2085-97-76 11:23:247:5304,1.314,-1.05,2.855,346.069,186.157,-77.637,72.29,-50.79,30.817
 15:42:41.676,eb:33:2e:f9:57:b5, 2085-97-174 10:131:247:5038,1.359,-1.105,2.491,344.91,132.568,-63.599,74.147,-49.669,32.97
 15:42:41.676,eb:33:2e:f9:57:b5, 2085-97-230 10:26:247:4884,1.377,-1.057,2.424,324.89,103.271,-59.326,76.41,-48.779,34.409
 15:42:41.732,eb:33:2e:f9:57:b5, 2085-97-31 11:179:245:4718,1.406,-1.229,2.4,296.326,75.745,-55.298,78.701,-48.027,35.535
 15:42:41.732,eb:33:2e:f9:57:b5, 2085-97-173 11:155:244:4518,1.409,-1.353,2.212,260.01,42.847,-55.481,80.964,-47.368,36.222
 15:42:41.732,eb:33:2e:f9:57:b5, 2085-97-252 08:190:243:4033,0.764,-1.514,2.15,215.576,70.74,-39.917,82.842,-46.818,36.92
 15:42:41.733,eb:33:2e:f9:57:b5, 2085-97-207 05:98:239:1698,0.546,-1.868,1.562,146.118,68.604,-41.321,83.826,-46.269,37.991
 15:42:41.761,eb:33:2e:f9:57:b5, 2085-113-81 00:128:71:22237,0.4,-2.402,0.315,67.322,44.983,3.906,84.435,-45.967,38.6
 15:42:41.761,eb:33:2e:f9:57:b5, 2085-97-169 03:194:236:-1578,0.502,-2.521,-0.262,22.461,56.03,56.03,84.348,-46.121,39.012
 15:42:41.761,eb:33:2e:f9:57:b5, 2085-97-155 04:35:239:-992,0.66,-2.222,-0.786,-74.89,-20.081,112.427,83.732,-47.027,39.463
 15:42:41.761,eb:33:2e:f9:57:b5, 2085-97-81 05:176:240:-717,0.53,-2.054,-0.281,-157.227,-28.625,131.958,82.727,-48.29,39.166
 15:42:41.790,eb:33:2e:f9:57:b5, 2085-97-239 03:124:241:-2429,0.465,-1.926,-0.688,-239.319,19.714,145.142,80.469,-49.614,39.496
 15:42:41.790,eb:33:2e:f9:57:b5, 2085-97-78 04:116:242:-3232,0.667,-1.754,-1.516,-322.571,-0.671,177.917,77.042,-51.185,40.254
 15:42:41.790,eb:33:2e:f9:57:b5, 2085-97-82 07:112:244:-1948,0.989,-1.593,-1.343,-394.226,-97.107,181.641,73.471,-53.113,40.237
 15:42:41.790,eb:33:2e:f9:57:b5, 2085-97-210 07:28:245:-866,0.837,-1.424,-0.554,-462.646,-101.318,148.804,69.879,-54.976,39.309
 15:42:41.850,eb:33:2e:f9:57:b5, 2085-97-237 07:117:246:-167,1.007,-1.327,-0.184,-499.084,-126.099,156.128,65.632,-56.794,38.661
 15:42:41.850,eb:33:2e:f9:57:b5, 2085-97-74 09:31:247:1448,1.149,-1.169,0.501,-540.283,-199.646,123.23,61.979,-58.832,36.821
 15:42:41.850,eb:33:2e:f9:57:b5, 2085-97-202 10:128:249:3029,1.574,-1.054,1.039,-571.411,-250.366,114.319,58.766,-60.98,34.162
 15:42:41.850,eb:33:2e:f9:57:b5, 2085-97-73 12:156:252:3695,1.487,-0.59,1.66,-608.948,-240.54,69.397,55.816,-63.094,30.767
 15:42:41.911,eb:33:2e:f9:57:b5, 2085-97-21 11:49:254:3705,1.151,-0.285,1.832,-615.662,-218.14,37.842,52.85,-64.852,27.323
 15:42:41.911,eb:33:2e:f9:57:b5, 2085-97-151 08:44:253:4206,1.12,-0.317,1.91,-589.294,-268.555,-0.305,50.696,-66.451,23.044
 15:42:41.911,eb:33:2e:f9:57:b5, 2085-97-73 08:10:252:4938,0.812,-0.411,2.234,-549.805,-319.702,-9.46,50.724,-68.335,16.979
 15:42:41.911,eb:33:2e:f9:57:b5, 2085-97-62 04:90:251:4574,0.261,-0.552,2.399,-526.123,-288.94,-11.108,51.751,-70.159,10.146
 15:42:41.913,eb:33:2e:f9:57:b5, 2085-97-124 00:126:250:4716,-0.048,-0.631,2.222,-515.381,-318.359,3.052,53.564,-71.966,2.862
 15:42:41.913,eb:33:2e:f9:57:b5, 2085-97-53 255:121:250:5475,-0.127,-0.717,2.44,-513.672,-346.68,45.471,56.854,-74.086,-5.966
 15:42:41.913,eb:33:2e:f9:57:b5, 2085-97-161 254:218:252:6561,-0.137,-0.588,2.938,-504.211,-344.849,112.793,61.512,-76.58,-15.93
 15:42:41.913,eb:33:2e:f9:57:b5, 2085-97-15 00:100:02:7246,0.096,-0.092,3.404,-473.816,-315.918,190.125,67.126,-79.431,-26.675
 15:42:41.971,eb:33:2e:f9:57:b5, 2085-97-127 01:111:07:7434,0.263,0.61,3.657,-447.021,-274.048,221.741,75.63,-82.37,-39.809
 15:42:41.971,eb:33:2e:f9:57:b5, 2085-97-219 02:109:12:7081,0.476,1.247,3.533,-413.147,-234.558,241.821,90.555,-85.029,-59.145
 15:42:41.971,eb:33:2e:f9:57:b5, 2085-97-141 04:253:18:7608,0.627,1.93,3.521,-369.873,-240.356,263.794,128.018,-86.765,-100.464
 15:42:41.971,eb:33:2e:f9:57:b5, 2085-97-215 04:189:26:8955,0.453,2.818,4.05,-333.069,-240.723,273.56,177.171,-85.715,-153.221
 15:42:42.030,eb:33:2e:f9:57:b5, 2085-97-163 02:09:34:8505,0.077,3.829,4.446,-327.759,-150.146,251.831,-162.142,-83.408,-177.138
 15:42:42.030,eb:33:2e:f9:57:b5, 2085-97-156 254:240:37:7552,-0.286,4.529,3.956,-321.533,-127.136,214.05,-153.517,-81.266,170.87
 15:42:42.030,eb:33:2e:f9:57:b5, 2085-97-67 253:199:40:6715,-0.134,4.935,3.43,-293.762,-128.418,153.564,-150.535,-79.294,164.872
 15:42:42.030,eb:33:2e:f9:57:b5, 2085-97-200 00:59:43:5528,0.155,5.329,3.057,-249.695,-110.474,12.695,-152.715,-77.772,164.355
 15:42:42.091,eb:33:2e:f9:57:b5, 2085-97-139 00:01:46:3076,-0.204,5.669,2.008,-205.261,-13,-133.728,-158.643,-77.514,168.3
 15:42:42.091,eb:33:2e:f9:57:b5, 2085-97-117 250:229:41:1525,-1,5.6,1.055,-180.725,-8.728,-237.244,-169.277,-78.041,177.209
 15:42:42.091,eb:33:2e:f9:57:b5, 2085-97-63 246:45:32:2306,-1.537,4.698,0.833,-141.479,-92.529,-274.292,176.929,-77.602,-170.151
 15:42:42.091,eb:33:2e:f9:57:b5, 2085-97-79 243:120:20:3878,-1.417,3.389,1.538,-87.036,-100.037,-291.809,164.993,-76.163,-159.033
 15:42:42.180,eb:33:2e:f9:57:b5, 2085-97-121 24:34:21:6645,1.495,1.762,1.922,1.465,-60.791,-284.79,155.237,-74.295,-149.222
 15:42:42.180,eb:33:2e:f9:57:b5, 2085-97-129 30:19:17:11193,-6.011,0.414,13.063,280.823,-841.919,-537.048,154.622,-66.451,-146.091
 15:42:42.180,eb:33:2e:f9:57:b5, 2085-97-227 08:197:94:3125,13.566,8.74,-4.76,41.443,-896.423,-526.733,148.173,-62.221,-138.246
 15:42:42.180,eb:33:2e:f9:57:b5, 2085-97-167 10:73:28:22398,-9.072,7.878,7.552,288.33,-518.799,-365.417,153.726,-50.663,-141.13
 15:42:42.182,eb:33:2e:f9:57:b5, 2085-97-215 205:138:192:13186,0.733,0.34,3.258,-140.686,335.815,-127.625,153.375,-45.203,-139.916
 15:42:42.182,eb:33:2e:f9:57:b5, 2085-97-223 237:111:11:1026,-3.431,-1.318,-0.539,196.96,607.178,218.14,153.655,-50.96,-138.658
 15:42:42.183,eb:33:2e:f9:57:b5, 2085-97-52 06:154:05:-387,2.195,0.026,1.5,160.339,202.881,217.163,154.589,-55.437,-137.851
 15:42:42.184,eb:33:2e:f9:57:b5, 2085-97-160 22:13:09:267,1.902,0.506,-0.044,77.148,146.423,49.744,156.379,-56.981,-138.686
 15:42:42.186,eb:33:2e:f9:57:b5, 2085-97-181 10:163:02:3079,0.173,0.096,1.12,40.955,229.126,-26.428,155.797,-58.381,-137.291
 15:42:42.186,eb:33:2e:f9:57:b5, 2085-97-227 251:197:255:2945,0.557,0.051,1.413,-85.693,508.85,-93.201,151.567,-61.551,-132.742
 15:42:42.186,eb:33:2e:f9:57:b5, 2085-97-138 10:210:00:1322,0.903,0.059,0.642,-54.565,425.964,-111.694,143.674,-65.193,-124.689
 15:42:42.186,eb:33:2e:f9:57:b5, 2085-97-222 00:97:255:2385,-0.152,0.158,0.949,21.24,300.171,-73.486,137.313,-67.143,-117.779
 15:42:42.210,eb:33:2e:f9:57:b5, 2085-97-173 00:179:254:2731,0.722,-0.275,1.202,71.838,175.415,-42.969,132.457,-68.494,-111.918
 15:42:42.210,eb:33:2e:f9:57:b5, 2085-97-157 06:156:253:4773,0.66,0.069,1.473,127.502,7.935,-59.631,131.281,-68.659,-109.528
 15:42:42.210,eb:33:2e:f9:57:b5, 2085-97-252 06:228:253:5013,1.417,-0.444,2.614,194.336,37.781,-77.087,131.347,-68.176,-107.748
 15:42:42.210,eb:33:2e:f9:57:b5, 2085-97-205 14:204:252:6638,2.254,-0.201,2.632,265.076,-106.079,-123.962,132.715,-67.22,-106.683
 15:42:42.270,eb:33:2e:f9:57:b5, 2085-97-210 19:207:251:6666,2.452,-0.392,3.483,329.59,-26.672,-136.597,135.038,-65.671,-105.787
 15:42:42.270,eb:33:2e:f9:57:b5, 2085-97-183 18:103:250:5094,2.121,-0.614,2.846,388.977,89.233,-148.499,135.731,-65.028,-102.563
 15:42:42.270,eb:33:2e:f9:57:b5, 2085-97-19 15:03:249:4825,1.407,-0.702,2.334,432.007,108.887,-183.594,135.923,-64.556,-98.075
 15:42:42.270,eb:33:2e:f9:57:b5, 2085-97-158 07:241:248:5584,0.282,-1.05,2.596,462.708,185.669,-175.11,135.494,-64.254,-92.637
 15:42:42.360,eb:33:2e:f9:57:b5, 2085-97-184 00:19:01:5650,0.33,-0.498,2.909,473.022,162.109,-181.274,134.962,-64.446,-86.704
 15:42:42.360,eb:33:2e:f9:57:b5, 2085-97-125 04:180:09:6206,0.802,0.729,2.847,458.435,-25.269,-183.472,136.357,-63.441,-83.04
 15:42:42.360,eb:33:2e:f9:57:b5, 2085-97-80 07:36:10:5580,0.408,1.428,3.022,389.282,135.925,-130.615,137.736,-62.721,-79.722
 15:42:42.360,eb:33:2e:f9:57:b5, 2085-97-220 03:107:00:2628,1.091,0.643,2.139,266.785,306.824,-77.881,136.088,-63.633,-74.306
 15:42:42.364,eb:33:2e:f9:57:b5, 2085-97-145 14:158:06:1892,1.916,0.197,0.817,256.226,188.049,-44.006,133.868,-65.198,-69.027
 15:42:42.364,eb:33:2e:f9:57:b5, 2085-97-181 09:29:25:3836,0.25,1.407,1.614,364.197,205.933,-166.931,133.11,-65.363,-64.814
 15:42:42.364,eb:33:2e:f9:57:b5, 2085-97-135 06:119:12:-1609,1.248,2.507,0.604,277.222,259.094,-315.125,127.738,-65.5,-55.14
 15:42:42.364,eb:33:2e:f9:57:b5, 2085-97-39 13:66:02:5124,1.839,0.775,0.945,220.276,-285.645,-375.732,127.645,-62.062,-52.306
 15:42:42.364,eb:33:2e:f9:57:b5, 2085-97-147 11:17:255:4778,1.079,0.065,2.493,138.611,60.791,-321.228,127.046,-58.661,-49.554
 15:42:42.364,eb:33:2e:f9:57:b5, 2085-97-45 10:52:253:6304,1.521,-0.312,2.717,128.845,33.875,-296.631,124.678,-56.58,-45.225
 15:42:42.364,eb:33:2e:f9:57:b5, 2085-97-12 12:156:251:7193,1.315,-0.442,3.391,142.639,44.067,-271.851,123.481,-54.305,-42.061
 15:42:42.364,eb:33:2e:f9:57:b5, 2085-97-179 09:12:250:6320,1.197,-0.665,3.271,176.025,139.465,-218.384,122.091,-52.839,-38.353
 15:42:42.478,eb:33:2e:f9:57:b5, 2085-97-09 10:77:248:6035,1.315,-0.858,3.022,212.28,139.099,-174.194,121.262,-51.872,-34.766
 15:42:42.478,eb:33:2e:f9:57:b5, 2085-97-173 10:32:247:5363,1.25,-1.046,2.776,238.403,173.462,-120.972,120.916,-51.432,-31.421
 15:42:42.478,eb:33:2e:f9:57:b5, 2085-97-16 10:20:246:4383,1.317,-1.162,2.401,250.427,194.885,-74.219,120.718,-51.608,-27.96
 15:42:42.478,eb:33:2e:f9:57:b5, 2085-97-09 11:128:245:4124,1.447,-1.277,2.097,261.963,160.828,-27.954,121.13,-52.07,-25.197
 15:42:42.478,eb:33:2e:f9:57:b5, 2085-97-171 11:213:245:3308,1.449,-1.275,1.798,263.977,157.532,9.155,121.954,-52.866,-22.863
 15:42:42.510,eb:33:2e:f9:57:b5, 2085-113-81 00:231:62:23977,1.497,-1.324,1.463,260.498,123.291,26.917,123.118,-53.795,-21.05
 15:42:42.510,eb:33:2e:f9:57:b5, 2085-97-94 12:74:245:2976,1.4,-1.328,1.367,258.362,80.2,25.33,123.948,-54.174,-20.473
 15:42:42.510,eb:33:2e:f9:57:b5, 2085-97-132 08:02:245:3260,0.946,-1.344,1.625,242.676,19.409,12.268,126.156,-54.564,-20.05
 15:42:42.510,eb:33:2e:f9:57:b5, 2085-97-47 08:20:243:2297,0.882,-1.372,1.372,185.486,-82.764,-8.911,128.683,-54.41,-20.495
 15:42:42.512,eb:33:2e:f9:57:b5, 2085-97-78 05:225:237:454,0.623,-2.004,0.833,90.393,-15.869,50.354,130.875,-54.047,-21.522
 15:42:42.512,eb:33:2e:f9:57:b5, 2085-97-81 06:159:239:-435,0.93,-2.28,-0.274,0.977,17.578,155.334,132.028,-55.042,-22.462
 15:42:42.512,eb:33:2e:f9:57:b5, 2085-97-75 07:162:242:913,0.854,-1.823,0.268,-66.833,-30.945,178.284,133.61,-56.168,-24.813
 15:42:42.512,eb:33:2e:f9:57:b5, 2085-97-93 06:61:245:-1203,0.756,-1.475,0.036,-114.99,6.958,183.472,134.643,-57.458,-27.169
 15:42:42.571,eb:33:2e:f9:57:b5, 2085-97-244 05:104:246:-2861,0.75,-1.262,-1.098,-173.035,-46.875,185.547,135.461,-58.623,-29.822
 15:42:42.571,eb:33:2e:f9:57:b5, 2085-97-45 06:117:246:-2285,0.793,-1.167,-1.411,-245.85,-133.362,179.871,136.56,-59.249,-33.591
 15:42:42.571,eb:33:2e:f9:57:b5, 2085-97-48 07:93:246:-591,0.916,-1.193,-0.67,-306.519,-215.515,160.95,137.922,-59.068,-38.403
 15:42:42.571,eb:33:2e:f9:57:b5, 2085-97-189 06:226:245:843,0.82,-1.225,0.001,-355.225,-249.207,154.358,139.016,-58.343,-43.605
 15:42:42.602,eb:33:2e:f9:57:b5, 2085-97-143 06:249:245:2073,0.867,-1.268,0.721,-403.076,-256.836,166.992,139.757,-57.437,-48.961
 15:42:42.602,eb:33:2e:f9:57:b5, 2085-97-80 07:251:246:2934,0.977,-1.2,1.257,-445.74,-235.657,189.697,140.043,-56.728,-54.388
 15:42:42.602,eb:33:2e:f9:57:b5, 2085-97-138 08:169:248:3235,1.159,-1.053,1.502,-485.168,-221.558,197.266,139.741,-56.261,-59.606
 15:42:42.602,eb:33:2e:f9:57:b5, 2085-97-36 10:05:252:3557,1.306,-0.742,1.657,-515.076,-230.408,178.833,139.005,-55.789,-64.792
 15:42:42.660,eb:33:2e:f9:57:b5, 2085-97-145 10:105:254:4384,1.337,-0.353,1.921,-523.438,-269.531,125.977,137.758,-54.915,-69.576
 15:42:42.660,eb:33:2e:f9:57:b5, 2085-97-56 10:182:255:5014,1.075,-0.083,2.319,-505.188,-288.025,89.111,136.346,-53.553,-74.185
 15:42:42.660,eb:33:2e:f9:57:b5, 2085-97-230 06:02:255:5028,0.633,-0.041,2.51,-485.107,-277.954,67.627,134.72,-52.081,-78.267
 15:42:42.660,eb:33:2e:f9:57:b5, 2085-97-117 03:51:253:4896,0.249,-0.244,2.43,-476.257,-297.974,50.598,133.011,-50.493,-82.222
 15:42:42.752,eb:33:2e:f9:57:b5, 2085-97-105 00:49:252:5339,-0.071,-0.404,2.444,-474.06,-318.298,54.993,131.336,-48.812,-86.188
 15:42:42.752,eb:33:2e:f9:57:b5, 2085-97-211 254:250:252:6281,-0.141,-0.442,2.802,-465.82,-336.792,73.914,129.864,-47.181,-90.549
 15:42:42.752,eb:33:2e:f9:57:b5, 2085-97-170 254:17:00:7391,-0.219,-0.193,3.324,-438.171,-345.886,103.882,128.71,-45.703,-95.125
 15:42:42.752,eb:33:2e:f9:57:b5, 2085-97-228 253:250:03:8383,-0.237,0.243,3.892,-397.888,-310.913,143.494,127.914,-44.654,-99.899
 15:42:42.752,eb:33:2e:f9:57:b5, 2085-97-150 254:182:09:8603,-0.14,0.83,4.164,-347.9,-258.728,179.321,127.332,-44.242,-104.293
 15:42:42.752,eb:33:2e:f9:57:b5, 2085-97-15 255:217:17:8791,-0.148,1.678,4.275,-300.72,-209.717,211.182,127.084,-44.407,-108.55
 15:42:42.752,eb:33:2e:f9:57:b5, 2085-97-26 254:235:26:8721,-0.367,2.778,4.274,-272.949,-138.367,235.657,126.887,-45.176,-112.231
 15:42:42.752,eb:33:2e:f9:57:b5, 2085-97-01 253:160:35:7951,-0.451,3.969,4.177,-275.574,-78.064,232.544,126.486,-46.472,-115.461
 15:42:42.781,eb:33:2e:f9:57:b5, 2085-97-116 252:64:38:6539,-0.398,4.683,3.621,-302.979,-53.65,166.931,125.365,-47.686,-117.812
 15:42:42.781,eb:33:2e:f9:57:b5, 2085-97-170 252:94:37:4723,-0.421,4.737,2.686,-301.208,-3.479,85.51,123.333,-48.543,-119.218
 15:42:42.781,eb:33:2e:f9:57:b5, 2085-97-48 251:143:37:3065,-0.875,4.707,1.902,-248.23,72.266,0.427,120.449,-49.037,-118.949
 15:42:42.781,eb:33:2e:f9:57:b5, 2085-97-37 246:65:39:1261,-1.272,4.92,0.988,-148.193,65.002,-78.369,117.411,-49.136,-117.488
 15:42:42.813,eb:33:2e:f9:57:b5, 2085-97-155 245:247:35:1450,-1.43,4.76,0.653,-51.514,-73.303,-162.231,116.054,-47.895,-116.801
 15:42:42.813,eb:33:2e:f9:57:b5, 2085-97-156 243:225:29:1621,-1.62,4.145,0.718,18.127,-101.99,-194.336,115.95,-45.857,-116.812
 15:42:42.813,eb:33:2e:f9:57:b5, 2085-97-10 243:228:20:2820,7.163,3.223,1.019,71.716,-114.441,-175.598,116.636,-43.621,-117.015
 15:42:42.813,eb:33:2e:f9:57:b5, 2085-97-221 255:85:51:28239,-0.369,4.867,3.958,361.145,-1151.184,-101.44,120.394,-41.001,-120.201
 15:42:42.813,eb:33:2e:f9:57:b5, 2085-97-58 01:219:93:-7715,5.555,11.753,9.45,-35.034,666.565,-187.927,123.843,-37.205,-122.849
 15:42:42.813,eb:33:2e:f9:57:b5, 2085-97-141 42:207:67:11550,0.653,4.367,-0.257,-31.616,165.1,-418.213,120.317,-34.656,-117.883
 15:42:42.813,eb:33:2e:f9:57:b5, 2085-97-209 184:117:186:-4203,-5.556,7.303,-5.815,-516.663,-97.595,-416.199,120.696,-29.268,-121.943
 15:42:42.814,eb:33:2e:f9:57:b5, 2085-97-27 254:156:238:13712,-4.039,-6.956,7.706,171.631,-547.974,-13.428,122.157,-24.066,-126.628
 15:42:42.842,eb:33:2e:f9:57:b5, 2085-97-239 221:224:247:-810,-0.997,-1.041,4.104,-90.271,1148.926,98.511,120.471,-27.252,-121.756
 15:42:42.842,eb:33:2e:f9:57:b5, 2085-97-209 16:14:09:-1813,3.02,0.66,-3.298,64.819,191.284,21.179,116.653,-31.624,-114.434
 15:42:42.842,eb:33:2e:f9:57:b5, 2085-97-220 16:164:02:4575,1.745,0.587,2.757,103.21,64.27,-0.732,118.273,-31.102,-115.285
 15:42:42.842,eb:33:2e:f9:57:b5, 2085-97-86 04:124:04:1041,-0.217,1.14,0.072,61.89,252.38,-22.339,117.543,-32.404,-112.412
 15:42:42.931,eb:33:2e:f9:57:b5, 2085-97-192 254:235:255:1421,-0.105,0.225,0.537,43.823,153.625,-15.259,116.884,-33.052,-110.187
 15:42:42.931,eb:33:2e:f9:57:b5, 2085-97-45 01:232:255:2412,0.304,-0.126,1.32,71.716,50.476,-2.319,116.993,-33.305,-109.303
 15:42:42.931,eb:33:2e:f9:57:b5, 2085-97-143 00:93:00:2702,-0.086,0.075,1.209,94.543,6.042,-8.911,117.675,-33.404,-108.891
 15:42:42.931,eb:33:2e:f9:57:b5, 2085-97-31 00:180:00:2226,0.177,0.079,1.179,94.543,-4.761,-0.427,118.564,-33.398,-108.792
 15:42:42.931,eb:33:2e:f9:57:b5, 2085-97-171 01:44:00:3609,0.146,0.009,1.502,112.122,-70.862,-8.057,119.844,-33.129,-109.166
 15:42:42.931,eb:33:2e:f9:57:b5, 2085-97-81 01:201:254:3832,0.449,-0.024,1.761,135.681,-83.679,-24.292,121.448,-32.64,-109.825
 15:42:42.931,eb:33:2e:f9:57:b5, 2085-97-15 06:22:255:4943,1.295,-0.16,2.021,191.406,-174.194,-48.645,123.624,-31.635,-110.764
 15:42:42.931,eb:33:2e:f9:57:b5, 2085-97-41 14:22:00:5857,2.006,0.068,2.652,244.019,-211.792,-80.322,126.612,-29.976,-112.236
 15:42:42.963,eb:33:2e:f9:57:b5, 2085-97-45 17:64:254:5861,2.183,-0.092,2.984,279.663,-120.667,-122.375,129.644,-28.114,-112.939
 15:42:42.971,eb:33:2e:f9:57:b5, 2085-97-06 17:183:252:5276,1.99,-0.339,2.701,323.853,-9.399,-143.433,132.44,-26.719,-112.434
 15:42:42.971,eb:33:2e:f9:57:b5, 2085-97-107 13:101:250:4687,1.578,-0.666,2.41,367.432,69.031,-148.132,135.324,-25.862,-110.973
 15:42:42.971,eb:33:2e:f9:57:b5, 2085-97-137 12:221:251:4200,1.238,-0.651,2.068,399.17,140.564,-146.973,138.296,-25.746,-108.907
 15:42:43.052,eb:33:2e:f9:57:b5, 2085-97-140 05:135:254:5858,0.301,-0.562,2.419,426.88,158.875,-160.217,141.389,-25.834,-106.43
 15:42:43.052,eb:33:2e:f9:57:b5, 2085-97-205 01:100:07:5761,0.654,0.217,2.884,439.941,123.23,-191.284,144.651,-26.005,-103.859
 15:42:43.052,eb:33:2e:f9:57:b5, 2085-97-89 04:47:06:6553,0.175,1.053,3.01,409.424,-6.714,-204.346,148.008,-25.236,-101.711
 15:42:43.052,eb:33:2e:f9:57:b5, 2085-97-96 02:201:08:2187,0.697,0.96,2.449,347.351,232.605,-156.799,150.853,-25.373,-99.316
 15:42:43.054,eb:33:2e:f9:57:b5, 2085-113-58 00:192:229:-7065,1.048,0.584,0.688,259.521,48.279,-123.352,152.886,-26.071,-97.163
 15:42:43.054,eb:33:2e:f9:57:b5, 2085-97-74 11:123:06:2048,1.679,0.121,0.859,250.977,20.081,-113.831,153.858,-25.895,-96.509
 15:42:43.054,eb:33:2e:f9:57:b5, 2085-97-69 11:125:12:2704,0.681,1.383,1.183,273.193,68.176,-176.88,155.803,-25.801,-94.9
 15:42:43.054,eb:33:2e:f9:57:b5, 2085-97-186 255:197:17:1349,0.778,2.897,1.419,333.679,120.972,-342.102,157.819,-25.84,-91.917
 15:42:43.081,eb:33:2e:f9:57:b5, 2085-97-40 10:06:03:5664,1.492,1.4,0.378,255.432,-342.529,-451.66,159.049,-23.324,-87.973
 15:42:43.081,eb:33:2e:f9:57:b5, 2085-97-06 12:26:00:6038,1.111,0.094,3.508,182.861,-98.877,-422.852,160.005,-19.144,-84.54
 15:42:43.081,eb:33:2e:f9:57:b5, 2085-97-183 07:191:251:6663,1.171,-0.275,2.929,139.954,-9.155,-369.995,160.356,-17.606,-80.662
 15:42:43.081,eb:33:2e:f9:57:b5, 2085-97-26 10:177:250:6738,1.185,-0.592,3.308,127.808,52.673,-309.204,160.719,-16.655,-77.294
 15:42:43.171,eb:33:2e:f9:57:b5, 2085-97-106 09:245:248:6203,1.157,-0.808,3.268,127.38,164.185,-244.507,161.098,-16.82,-74.152
 15:42:43.171,eb:33:2e:f9:57:b5, 2085-97-11 09:226:247:5377,1.1,-0.964,2.796,148.499,195.312,-194.153,161.658,-17.875,-71.378
 15:42:43.171,eb:33:2e:f9:57:b5, 2085-97-91 08:148:247:4490,1.021,-1.049,2.41,179.138,221.619,-136.353,162.576,-19.369,-69.011
 15:42:43.171,eb:33:2e:f9:57:b5, 2085-97-14 08:167:247:3834,1.01,-1.025,1.96,209.351,190.613,-88.928,163.938,-21.094,-67.253
 15:42:43.173,eb:33:2e:f9:57:b5, 2085-97-127 08:62:247:3603,0.978,-1.119,1.791,232.605,142.944,-49.866,165.723,-22.489,-66.028
 15:42:43.173,eb:33:2e:f9:57:b5, 2085-97-228 06:252:245:3841,0.727,-1.211,1.849,241.943,96.375,-21.057,167.844,-23.516,-65.363
 15:42:43.173,eb:33:2e:f9:57:b5, 2085-97-185 05:230:244:3758,0.773,-1.327,1.872,235.352,38.94,6.714,170.156,-24.175,-65.116
 15:42:43.173,eb:33:2e:f9:57:b5, 2085-97-56 06:52:243:2845,0.783,-1.491,1.699,196.838,33.997,54.749,172.436,-24.456,-65.385
 15:42:43.201,eb:33:2e:f9:57:b5, 2085-97-137 06:215:243:951,0.811,-1.624,0.917,133.972,95.337,138.794,174.496,-25.274,-66.363
 15:42:43.201,eb:33:2e:f9:57:b5, 2085-97-206 06:02:246:089,0.84,-1.411,0.181,63.599,103.027,200.256,176.232,-26.461,-68.198
 15:42:43.201,eb:33:2e:f9:57:b5, 2085-97-137 06:68:248:-431,0.778,-1.103,-0.048,7.08,70.251,216.797,177.594,-27.449,-70.483
 15:42:43.201,eb:33:2e:f9:57:b5, 2085-97-78 06:215:249:-1716,0.766,-0.854,-0.476,-40.283,17.029,196.655,178.473,-27.96,-72.801
 15:42:43.260,eb:33:2e:f9:57:b5, 2085-97-91 05:188:249:-2792,0.588,-0.727,-1.159,-92.285,-66.345,164.185,178.748,-27.719,-74.784
 15:42:43.260,eb:33:2e:f9:57:b5, 2085-97-31 04:119:248:-2608,0.498,-0.854,-1.435,-149.475,-155.029,139.221,178.297,-26.631,-76.509
 15:42:43.260,eb:33:2e:f9:57:b5, 2085-97-05 04:104:247:-1088,0.319,-0.988,-0.604,-219.36,-196.228,101.685,177.067,-24.719,-77.877
 15:42:43.261,eb:33:2e:f9:57:b5, 2085-97-134 01:113:247:-479,0.16,-1.051,-0.379,-265.564,-250.366,98.572,175.133,-22.643,-79.146
 15:42:43.291,eb:33:2e:f9:57:b5, 2085-97-20 02:95:247:1101,0.281,-1.07,0.194,-322.144,-300.598,96.375,172.672,-19.841,-80.442
 15:42:43.291,eb:33:2e:f9:57:b5, 2085-97-57 02:88:248:1675,0.275,-1.01,0.652,-379.639,-240.417,117.676,169.623,-17.435,-82.013
 15:42:43.291,eb:33:2e:f9:57:b5, 2085-97-253 01:128:249:2296,0.218,-0.893,1.014,-423.401,-224.67,116.882,166.053,-15.403,-83.666
 15:42:43.291,eb:33:2e:f9:57:b5, 2085-97-157 01:63:250:2814,0.218,-0.758,1.22,-446.96,-229.309,103.149,162.098,-13.574,-85.408
 15:42:43.352,eb:33:2e:f9:57:b5, 2085-97-123 01:127:251:3126,0.095,-0.654,1.488,-452.087,-245.117,73.792,157.95,-11.613,-87.034
 15:42:43.352,eb:33:2e:f9:57:b5, 2085-97-24 00:58:252:3313,-0.048,-0.495,1.53,-451.111,-260.01,41.443,153.71,-9.564,-88.594
 15:42:43.352,eb:33:2e:f9:57:b5, 2085-97-194 254:149:252:4128,-0.349,-0.426,1.832,-445.618,-288.147,15.869,149.469,-7.251,-90.132
 15:42:43.352,eb:33:2e:f9:57:b5, 2085-97-43 251:90:251:4598,-0.831,-0.478,2.16,-441.467,-283.325,-0.305,145.19,-4.861,-91.736
 15:42:43.381,eb:33:2e:f9:57:b5, 2085-97-01 248:191:248:5131,-1.072,-0.731,2.321,-427.002,-297.363,7.996,140.949,-2.582,-93.433
 15:42:43.381,eb:33:2e:f9:57:b5, 2085-97-41 247:87:246:5997,-1.206,-1.076,2.696,-402.527,-299.561,41.87,136.846,-0.478,-95.598
 15:42:43.381,eb:33:2e:f9:57:b5, 2085-97-203 245:48:245:6645,-1.202,-1.335,3.157,-364.197,-240.662,116.699,132.995,0.895,-98.036
 15:42:43.381,eb:33:2e:f9:57:b5, 2085-97-162 246:122:247:6948,-1.157,-1.239,3.221,-330.383,-188.66,184.021,129.496,1.049,-100.629
 15:42:43.441,eb:33:2e:f9:57:b5, 2085-97-172 246:36:252:7508,-1.161,-0.799,3.55,-311.035,-131.958,227.905,126.26,0.374,-103.112
 15:42:43.441,eb:33:2e:f9:57:b5, 2085-97-206 246:08:03:7640,-1.109,-0.087,3.738,-300.415,-79.834,258.667,123.223,-1.077,-105.353
 15:42:43.441,eb:33:2e:f9:57:b5, 2085-97-66 248:137:10:7944,-0.937,0.799,4.045,-302.979,-3.662,259.338,120.262,-3.005,-107.106
 15:42:43.441,eb:33:2e:f9:57:b5, 2085-97-182 250:29:21:7418,-0.277,1.89,3.808,-298.096,49.011,255.188,117.323,-5.427,-108.089
 15:42:43.502,eb:33:2e:f9:57:b5, 2085-97-51 00:159:30:7471,0.226,3.272,3.554,-295.105,101.807,202.515,114.39,-7.855,-108.325
 15:42:43.502,eb:33:2e:f9:57:b5, 2085-97-237 01:137:37:6323,0.055,4.295,3.465,-288.208,252.502,119.873,111.281,-9.965,-107.265
 15:42:43.502,eb:33:2e:f9:57:b5, 2085-97-159 254:84:41:4218,-0.379,5.031,2.624,-250.366,341.797,62.744,108.078,-11.805,-104.535
 15:42:43.502,eb:33:2e:f9:57:b5, 2085-97-12 253:25:41:1447,-0.428,5.164,1.459,-172.058,253.906,5.005,105.359,-12.997,-101.585
 15:42:43.589,eb:33:2e:f9:57:b5, 2085-97-53 251:122:39:-258,-0.744,5.035,0.233,-108.704,152.71,-38.147,103.574,-13.233,-99.651
 15:42:43.589,eb:33:2e:f9:57:b5, 2085-97-23 249:150:35:-1494,-0.928,4.775,-0.591,-54.749,98.999,-56.641,102.453,-13.052,-98.196
 15:42:43.589,eb:33:2e:f9:57:b5, 2085-97-04 246:175:36:1669,-1.521,4.155,-0.257,23.315,-43.701,-57.068,102.266,-12.524,-97.927
 15:42:43.589,eb:33:2e:f9:57:b5, 2085-97-25 225:43:102:22844,-2.507,9.778,2.464,238.281,-67.322,166.687,103.678,-12.953,-98.174
 15:42:43.591,eb:33:2e:f9:57:b5, 2085-97-180 246:254:17:-16174,-2.122,5.149,6.665,49.622,118.225,-331.787,106.908,-13.909,-100.283
 15:42:43.591,eb:33:2e:f9:57:b5, 2085-97-20 242:117:107:-10825,5.379,8.212,-11.5,-268.799,792.419,1018.311,103.436,-17.919,-92.005
 15:42:43.591,eb:33:2e:f9:57:b5, 2085-97-162 90:228:246:16200,9.22,4.438,5.363,-158.386,-1635.62,-155.273,104.551,-20.49,-101.849
 15:42:43.591,eb:33:2e:f9:57:b5, 2085-97-38 17:232:239:7629,0.522,-1.774,6.496,-33.325,708.74,-31.372,104.93,-17.271,-106.254
 15:42:43.594,eb:33:2e:f9:57:b5, 2085-97-185 245:71:03:867,-0.231,1.047,-2.543,118.652,253.235,-50.476,103.255,-20.369,-97.916
 15:42:43.594,eb:33:2e:f9:57:b5, 2085-97-222 247:06:02:-093,-1.999,0.433,0.561,58.167,245.667,-49.744,103.596,-19.83,-96.378
 15:42:43.594,eb:33:2e:f9:57:b5, 2085-97-42 249:56:254:1636,0.527,-0.449,0.351,19.348,99.609,-109.863,103.079,-19.413,-94.032
 15:42:43.594,eb:33:2e:f9:57:b5, 2085-97-199 05:100:02:3002,0.688,0.286,1.403,28.687,48.706,-106.812,103.189,-18.583,-93.433
 15:42:43.622,eb:33:2e:f9:57:b5, 2085-97-150 05:219:02:2557,0.028,0.238,1.222,39.795,70.251,-92.59,103.156,-17.677,-92.329
 15:42:43.622,eb:33:2e:f9:57:b5, 2085-97-180 252:35:00:1802,-0.197,0.087,1.06,42.358,91.492,-86.487,103.239,-17.001,-91.203
 15:42:43.622,eb:33:2e:f9:57:b5, 2085-97-44 00:106:01:2161,-0.023,0.101,0.935,49.438,20.691,-65.857,103.524,-16.408,-90.511
 15:42:43.622,eb:33:2e:f9:57:b5, 2085-97-131 00:14:02:2381,0.122,0.22,1.069,44.8,5.493,-55.176,103.892,-15.859,-90.181
 15:42:43.741,eb:33:2e:f9:57:b5, 2085-97-96 00:201:00:3338,0.039,0.192,1.401,47.852,-23.315,-51.27,104.359,-15.315,-90.17
 15:42:43.741,eb:33:2e:f9:57:b5, 2085-97-29 01:193:01:4028,0.475,0.093,1.744,65.735,-46.997,-44.006,104.996,-14.793,-90.401
 15:42:43.741,eb:33:2e:f9:57:b5, 2085-97-150 03:45:255:5566,0.564,0.306,2.288,81.787,-70.435,-87.646,105.831,-14.019,-90.802
 15:42:43.741,eb:33:2e:f9:57:b5, 2085-97-13 06:62:255:5366,1.051,-0.098,2.596,128.906,-46.204,-86.243,106.941,-13.046,-91.005
 15:42:43.743,eb:33:2e:f9:57:b5, 2085-97-240 10:123:253:5549,1.324,-0.108,2.685,188.171,-99.243,-113.525,108.655,-11.843,-91.45
 15:42:43.743,eb:33:2e:f9:57:b5, 2085-97-176 09:138:249:5318,1.013,-0.655,2.787,234.192,-37.048,-130.92,110.852,-10.327,-91.763
