Time,Device name,Chip Time(),Acceleration X(g),Acceleration Y(g),Acceleration Z(g),Angular velocity X(°/s),Angular velocity Y(°/s),Angular velocity Z(°/s),Angle X(°),Angle Y(°),Angle Z(°)
 15:36:58.575,eb:33:2e:f9:57:b5, 2085-97-31 00:27:00:2054,0.014,0.013,1.003,-0.122,0,0.061,0.857,-1.143,-122.536
 15:36:58.576,eb:33:2e:f9:57:b5, 2085-97-30 00:25:00:2054,0.017,0.013,1.003,-0.122,0,0.122,0.857,-1.143,-122.536
 15:36:58.576,eb:33:2e:f9:57:b5, 2085-97-37 00:29:00:2055,0.018,0.013,1.003,-0.122,-0.183,0.244,0.857,-1.143,-122.536
 15:36:58.576,eb:33:2e:f9:57:b5, 2085-97-37 00:27:00:2059,0.019,0.013,1.004,-0.122,-0.061,0.305,0.857,-1.143,-122.536
 15:36:58.633,eb:33:2e:f9:57:b5, 2085-97-38 00:28:00:2056,0.019,0.013,1.004,-0.122,-0.061,0.305,0.857,-1.143,-122.536
 15:36:58.633,eb:33:2e:f9:57:b5, 2085-97-38 00:27:00:2057,0.019,0.014,1.003,-0.183,0,0.122,0.857,-1.143,-122.536
 15:36:58.633,eb:33:2e:f9:57:b5, 2085-97-38 00:26:00:2058,0.018,0.013,1.005,-0.183,0,0.061,0.857,-1.143,-122.536
 15:36:58.633,eb:33:2e:f9:57:b5, 2085-97-35 00:27:00:2054,0.017,0.013,1.004,-0.122,0,0,0.857,-1.143,-122.536
 15:36:58.634,eb:33:2e:f9:57:b5, 2085-97-35 00:26:00:2059,0.017,0.012,1.003,-0.183,-0.061,0.061,0.857,-1.148,-122.536
 15:36:58.634,eb:33:2e:f9:57:b5, 2085-97-36 00:25:00:2057,0.019,0.013,1.004,-0.122,-0.122,0.122,0.857,-1.148,-122.536
 15:36:58.634,eb:33:2e:f9:57:b5, 2085-97-40 00:27:00:2058,0.019,0.012,1.004,-0.122,-0.061,0.061,0.857,-1.148,-122.536
 15:36:58.634,eb:33:2e:f9:57:b5, 2085-97-39 00:26:00:2060,0.017,0.013,1.006,-0.061,-0.061,0,0.857,-1.148,-122.536
 15:36:58.694,eb:33:2e:f9:57:b5, 2085-97-38 00:26:00:2057,0.017,0.013,1.004,-0.061,-0.061,0,0.862,-1.148,-122.536
 15:36:58.694,eb:33:2e:f9:57:b5, 2085-97-36 00:26:00:2059,0.018,0.013,1.004,-0.061,-0.061,-0.061,0.862,-1.148,-122.536
 15:36:58.694,eb:33:2e:f9:57:b5, 2085-97-35 00:26:00:2057,0.018,0.012,1.005,0,-0.061,-0.061,0.862,-1.148,-122.536
 15:36:58.694,eb:33:2e:f9:57:b5, 2085-97-37 00:26:00:2055,0.018,0.013,1.003,0,0,-0.061,0.862,-1.148,-122.536
 15:36:58.694,eb:33:2e:f9:57:b5, 2085-97-35 00:26:00:2057,0.018,0.012,1.004,0,0,-0.061,0.862,-1.148,-122.536
 15:36:58.725,eb:33:2e:f9:57:b5, 2085-113-58 00:19:222:-5415,0.019,0.012,1.006,0,-0.061,0,0.862,-1.148,-122.536
 15:36:58.725,eb:33:2e:f9:57:b5, 2085-97-39 00:27:00:2058,0.019,0.012,1.005,0.061,0,0,0.862,-1.148,-122.536
 15:36:58.725,eb:33:2e:f9:57:b5, 2085-97-37 00:26:00:2058,0.018,0.014,1.005,0.122,0,-0.122,0.862,-1.148,-122.536
 15:36:58.725,eb:33:2e:f9:57:b5, 2085-97-36 00:26:00:2058,0.017,0.013,1.004,0.122,0,-0.122,0.862,-1.148,-122.536
 15:36:58.754,eb:33:2e:f9:57:b5, 2085-97-36 00:28:00:2057,0.019,0.013,1.004,0,0,-0.244,0.862,-1.148,-122.536
 15:36:58.754,eb:33:2e:f9:57:b5, 2085-97-36 00:27:00:2055,0.017,0.014,1.004,0,0,-0.305,0.862,-1.148,-122.531
 15:36:58.754,eb:33:2e:f9:57:b5, 2085-97-33 00:27:00:2054,0.017,0.013,1.003,0,-0.122,-0.366,0.862,-1.148,-122.531
 15:36:58.754,eb:33:2e:f9:57:b5, 2085-97-36 00:25:00:2056,0.018,0.013,1.002,0,-0.122,-0.366,0.862,-1.148,-122.531
 15:36:58.814,eb:33:2e:f9:57:b5, 2085-97-35 00:27:00:2056,0.016,0.013,1.003,-0.061,-0.122,-0.366,0.862,-1.148,-122.531
 15:36:58.814,eb:33:2e:f9:57:b5, 2085-97-36 00:24:00:2059,0.018,0.012,1.003,0,-0.122,-0.244,0.862,-1.148,-122.531
 15:36:58.814,eb:33:2e:f9:57:b5, 2085-97-38 00:26:00:2059,0.018,0.012,1.006,0.061,-0.061,-0.122,0.862,-1.148,-122.531
 15:36:58.814,eb:33:2e:f9:57:b5, 2085-97-36 00:28:00:2055,0.018,0.013,1.005,0.122,-0.122,-0.122,0.862,-1.148,-122.531
 15:36:58.843,eb:33:2e:f9:57:b5, 2085-97-34 00:28:00:2054,0.018,0.014,1.003,0.122,-0.122,-0.183,0.862,-1.148,-122.531
 15:36:58.843,eb:33:2e:f9:57:b5, 2085-97-35 00:25:00:2056,0.018,0.013,1.003,0.122,-0.122,-0.122,0.862,-1.148,-122.531
 15:36:58.843,eb:33:2e:f9:57:b5, 2085-97-38 00:29:00:2055,0.019,0.014,1.004,0.061,-0.122,-0.061,0.862,-1.154,-122.531
 15:36:58.843,eb:33:2e:f9:57:b5, 2085-97-36 00:28:00:2055,0.018,0.014,1.003,0,-0.122,-0.183,0.862,-1.154,-122.531
 15:36:58.875,eb:33:2e:f9:57:b5, 2085-97-34 00:27:00:2053,0.017,0.013,1.003,-0.061,-0.122,-0.183,0.862,-1.154,-122.531
 15:36:58.875,eb:33:2e:f9:57:b5, 2085-97-35 00:26:00:2054,0.017,0.013,1.002,-0.061,-0.183,-0.122,0.862,-1.154,-122.531
 15:36:58.875,eb:33:2e:f9:57:b5, 2085-97-33 00:26:00:2056,0.017,0.013,1.003,-0.122,-0.183,0,0.862,-1.154,-122.531
 15:36:58.875,eb:33:2e:f9:57:b5, 2085-97-35 00:27:00:2057,0.018,0.013,1.004,-0.183,-0.183,0,0.862,-1.154,-122.531
 15:36:58.933,eb:33:2e:f9:57:b5, 2085-97-37 00:26:00:2056,0.018,0.013,1.003,-0.122,-0.244,0.183,0.862,-1.154,-122.531
 15:36:58.933,eb:33:2e:f9:57:b5, 2085-97-39 00:28:00:2056,0.019,0.013,1.004,-0.122,-0.183,0.183,0.862,-1.154,-122.531
 15:36:58.933,eb:33:2e:f9:57:b5, 2085-97-35 00:26:00:2059,0.022,0.015,1.001,-0.244,-0.305,0.122,0.862,-1.154,-122.531
 15:36:58.933,eb:33:2e:f9:57:b5, 2085-97-37 00:21:00:2064,0.022,0.011,1.005,-0.061,-0.122,0.122,0.862,-1.154,-122.531
 15:36:58.965,eb:33:2e:f9:57:b5, 2085-97-46 00:30:00:2061,0.019,0.013,1.007,0.061,-0.061,0.183,0.862,-1.154,-122.531
 15:36:58.965,eb:33:2e:f9:57:b5, 2085-97-37 00:26:00:2058,0.018,0.014,1.004,0,-0.122,0,0.862,-1.154,-122.531
 15:36:58.965,eb:33:2e:f9:57:b5, 2085-97-37 00:28:00:2056,0.019,0.013,1.004,0.122,-0.061,0,0.862,-1.154,-122.531
 15:36:58.965,eb:33:2e:f9:57:b5, 2085-97-35 00:27:00:2053,0.016,0.014,1.003,0,-0.122,-0.061,0.862,-1.154,-122.531
 15:36:58.994,eb:33:2e:f9:57:b5, 2085-97-35 00:28:00:2054,0.018,0.014,1.002,0,-0.122,-0.061,0.862,-1.154,-122.531
 15:36:58.994,eb:33:2e:f9:57:b5, 2085-97-38 00:26:00:2056,0.018,0.014,1.004,-0.061,-0.183,-0.061,0.862,-1.154,-122.531
 15:36:58.994,eb:33:2e:f9:57:b5, 2085-97-36 00:24:00:2056,0.021,0.013,1.004,-0.061,-0.244,-0.122,0.868,-1.154,-122.531
 15:36:58.994,eb:33:2e:f9:57:b5, 2085-97-34 00:24:00:2054,0.017,0.012,1.006,0,-0.366,-0.122,0.868,-1.154,-122.531
 15:36:59.054,eb:33:2e:f9:57:b5, 2085-97-51 00:26:00:2065,0.017,0.014,1.001,0,-0.61,0,0.868,-1.154,-122.531
 15:36:59.054,eb:33:2e:f9:57:b5, 2085-97-39 00:29:00:2057,0.022,0.012,1.004,0.061,-0.366,-0.122,0.868,-1.154,-122.531
 15:36:59.054,eb:33:2e:f9:57:b5, 2085-97-35 00:27:00:2054,0.017,0.014,1.005,0.061,-0.183,-0.244,0.868,-1.159,-122.531
 15:36:59.054,eb:33:2e:f9:57:b5, 2085-97-41 00:28:00:2058,0.018,0.013,1.003,0,-0.427,-0.183,0.868,-1.159,-122.525
 15:36:59.084,eb:33:2e:f9:57:b5, 2085-97-34 00:26:00:2055,0.017,0.013,1.004,0,-0.244,-0.122,0.868,-1.159,-122.525
 15:36:59.084,eb:33:2e:f9:57:b5, 2085-97-39 00:25:00:2057,0.018,0.013,1.003,0.061,-0.305,0,0.868,-1.159,-122.525
 15:36:59.084,eb:33:2e:f9:57:b5, 2085-97-31 00:24:00:2054,0.016,0.012,1.004,0.061,-0.244,0.061,0.868,-1.159,-122.525
 15:36:59.084,eb:33:2e:f9:57:b5, 2085-97-44 00:26:00:2055,0.021,0.012,1.002,0.122,-0.366,0.366,0.868,-1.159,-122.525
 15:36:59.114,eb:33:2e:f9:57:b5, 2085-97-40 00:27:00:2054,0.021,0.013,1.005,0.122,-0.183,0.366,0.868,-1.159,-122.525
 15:36:59.114,eb:33:2e:f9:57:b5, 2085-97-36 00:25:00:2054,0.018,0.014,1.005,0.061,-0.305,0.122,0.868,-1.159,-122.525
 15:36:59.114,eb:33:2e:f9:57:b5, 2085-97-45 00:29:00:2057,0.023,0.014,1.002,0,-0.366,0.244,0.868,-1.159,-122.525
 15:36:59.114,eb:33:2e:f9:57:b5, 2085-97-40 00:26:00:2056,0.017,0.014,1.006,0,-0.122,0,0.868,-1.159,-122.525
 15:36:59.173,eb:33:2e:f9:57:b5, 2085-97-48 00:31:00:2057,0.024,0.013,1.001,-0.061,-0.366,0,0.868,-1.159,-122.525
 15:36:59.173,eb:33:2e:f9:57:b5, 2085-97-29 00:25:00:2055,0.015,0.013,1.008,-0.061,0.183,0,0.868,-1.159,-122.525
 15:36:59.173,eb:33:2e:f9:57:b5, 2085-97-48 00:32:00:2057,0.017,0.014,1.001,-0.061,-0.549,-0.061,0.868,-1.159,-122.525
 15:36:59.173,eb:33:2e:f9:57:b5, 2085-97-35 00:26:00:2053,0.022,0.011,1.003,-0.122,0.061,0.122,0.868,-1.159,-122.525
 15:36:59.203,eb:33:2e:f9:57:b5, 2085-97-43 00:24:00:2061,0.016,0.013,1.005,-0.061,-0.366,0,0.868,-1.165,-122.525
 15:36:59.203,eb:33:2e:f9:57:b5, 2085-97-43 00:29:00:2056,0.021,0.013,1,-0.061,-0.488,0.061,0.868,-1.165,-122.525
 15:36:59.203,eb:33:2e:f9:57:b5, 2085-97-35 00:25:00:2053,0.019,0.011,1.005,0,0.061,0.183,0.868,-1.165,-122.525
 15:36:59.203,eb:33:2e:f9:57:b5, 2085-97-52 00:26:00:2064,0.021,0.012,1.006,-0.061,-0.488,-0.061,0.868,-1.165,-122.525
 15:36:59.235,eb:33:2e:f9:57:b5, 2085-97-31 00:25:00:2054,0.021,0.012,1.004,0,-0.061,0,0.868,-1.165,-122.525
 15:36:59.235,eb:33:2e:f9:57:b5, 2085-97-50 00:25:00:2065,0.018,0.015,1.003,0,-0.61,-0.244,0.868,-1.165,-122.525
 15:36:59.235,eb:33:2e:f9:57:b5, 2085-97-34 00:24:00:2054,0.017,0.01,1.004,0.122,-0.305,-0.061,0.868,-1.165,-122.525
 15:36:59.235,eb:33:2e:f9:57:b5, 2085-97-40 00:28:00:2053,0.023,0.014,1.001,0.061,-0.549,-0.061,0.868,-1.165,-122.525
 15:36:59.294,eb:33:2e:f9:57:b5, 2085-97-43 00:21:00:2060,0.021,0.012,1.006,0.122,-0.366,-0.122,0.868,-1.165,-122.525
 15:36:59.294,eb:33:2e:f9:57:b5, 2085-113-58 00:109:222:-5280,0.021,0.012,1.007,0.305,-0.427,-0.061,0.868,-1.165,-122.525
 15:36:59.294,eb:33:2e:f9:57:b5, 2085-97-45 00:30:00:2057,0.024,0.013,1.004,0.305,-0.488,-0.061,0.868,-1.165,-122.525
 15:36:59.294,eb:33:2e:f9:57:b5, 2085-97-41 00:28:00:2057,0.02,0.014,1.006,0.366,-0.366,-0.244,0.868,-1.165,-122.525
 15:36:59.326,eb:33:2e:f9:57:b5, 2085-97-47 00:30:00:2056,0.022,0.014,1.002,0.427,-0.61,-0.366,0.868,-1.17,-122.525
 15:36:59.326,eb:33:2e:f9:57:b5, 2085-97-41 00:25:00:2058,0.021,0.013,1.005,0.366,-0.427,-0.671,0.868,-1.17,-122.525
 15:36:59.326,eb:33:2e:f9:57:b5, 2085-97-46 00:28:00:2057,0.022,0.013,1.005,0.427,-0.488,-0.61,0.868,-1.17,-122.525
 15:36:59.326,eb:33:2e:f9:57:b5, 2085-97-45 00:28:00:2056,0.021,0.014,1.004,0.366,-0.488,-0.793,0.868,-1.17,-122.525
 15:36:59.385,eb:33:2e:f9:57:b5, 2085-97-41 00:26:00:2057,0.021,0.014,1.004,0.427,-0.488,-0.793,0.868,-1.17,-122.525
 15:36:59.385,eb:33:2e:f9:57:b5, 2085-97-45 00:29:00:2057,0.021,0.013,1.004,0.427,-0.549,-0.793,0.868,-1.17,-122.52
 15:36:59.385,eb:33:2e:f9:57:b5, 2085-97-43 00:30:00:2055,0.021,0.015,1.003,0.488,-0.61,-0.732,0.868,-1.176,-122.52
 15:36:59.385,eb:33:2e:f9:57:b5, 2085-97-45 00:29:00:2054,0.021,0.015,1.003,0.366,-0.61,-0.854,0.868,-1.176,-122.52
 15:36:59.415,eb:33:2e:f9:57:b5, 2085-97-46 00:29:00:2056,0.022,0.013,1.004,0.305,-0.61,-0.854,0.873,-1.176,-122.52
 15:36:59.415,eb:33:2e:f9:57:b5, 2085-97-46 00:31:00:2055,0.023,0.015,1.003,0.305,-0.549,-0.793,0.873,-1.176,-122.52
 15:36:59.415,eb:33:2e:f9:57:b5, 2085-97-45 00:27:00:2058,0.019,0.014,1.004,0.305,-0.488,-0.854,0.873,-1.176,-122.52
 15:36:59.415,eb:33:2e:f9:57:b5, 2085-97-43 00:29:00:2056,0.021,0.013,1.003,0.305,-0.427,-0.732,0.873,-1.176,-122.52
 15:36:59.443,eb:33:2e:f9:57:b5, 2085-97-39 00:28:00:2056,0.02,0.013,1.005,0.366,-0.366,-0.549,0.873,-1.176,-122.52
 15:36:59.443,eb:33:2e:f9:57:b5, 2085-97-41 00:29:00:2052,0.021,0.014,1.002,0.366,-0.366,-0.488,0.873,-1.176,-122.52
 15:36:59.443,eb:33:2e:f9:57:b5, 2085-97-43 00:28:00:2057,0.021,0.014,1.003,0.244,-0.427,-0.427,0.873,-1.181,-122.52
 15:36:59.443,eb:33:2e:f9:57:b5, 2085-97-45 00:31:00:2054,0.023,0.015,1.002,0.244,-0.305,-0.244,0.873,-1.181,-122.52
 15:36:59.474,eb:33:2e:f9:57:b5, 2085-97-49 00:31:00:2056,0.023,0.015,1.004,0.244,-0.366,-0.366,0.873,-1.181,-122.52
 15:36:59.474,eb:33:2e:f9:57:b5, 2085-97-46 00:29:00:2056,0.023,0.015,1.003,0.183,-0.244,-0.427,0.873,-1.181,-122.52
 15:36:59.474,eb:33:2e:f9:57:b5, 2085-97-48 00:32:00:2057,0.022,0.015,1.004,0.183,-0.244,-0.488,0.873,-1.181,-122.52
 15:36:59.474,eb:33:2e:f9:57:b5, 2085-97-46 00:31:00:2053,0.022,0.015,1.003,0.122,-0.122,-0.488,0.873,-1.181,-122.52
 15:36:59.566,eb:33:2e:f9:57:b5, 2085-97-44 00:31:00:2053,0.021,0.015,1.003,0,-0.122,-0.549,0.873,-1.181,-122.52
 15:36:59.566,eb:33:2e:f9:57:b5, 2085-97-38 00:27:00:2052,0.017,0.016,1.002,-0.061,0,-0.61,0.873,-1.181,-122.52
 15:36:59.566,eb:33:2e:f9:57:b5, 2085-97-35 00:27:00:2051,0.019,0.013,1.001,0,0,-0.183,0.873,-1.187,-122.52
 15:36:59.566,eb:33:2e:f9:57:b5, 2085-97-42 00:29:00:2055,0.021,0.014,1.003,0,-0.061,0.122,0.873,-1.187,-122.52
 15:36:59.566,eb:33:2e:f9:57:b5, 2085-97-45 00:27:00:2058,0.023,0.014,1.004,0,0,0.305,0.879,-1.187,-122.52
 15:36:59.566,eb:33:2e:f9:57:b5, 2085-97-50 00:30:00:2060,0.025,0.014,1.005,0,-0.061,0.366,0.879,-1.187,-122.52
 15:36:59.567,eb:33:2e:f9:57:b5, 2085-97-49 00:30:00:2060,0.025,0.015,1.005,0.061,0,0.183,0.879,-1.187,-122.52
 15:36:59.567,eb:33:2e:f9:57:b5, 2085-97-51 00:31:00:2059,0.024,0.015,1.006,0.122,-0.061,0,0.879,-1.187,-122.52
 15:36:59.596,eb:33:2e:f9:57:b5, 2085-97-46 00:33:00:2053,0.022,0.016,1.003,0.122,0,-0.244,0.879,-1.192,-122.52
 15:36:59.596,eb:33:2e:f9:57:b5, 2085-97-43 00:30:00:2053,0.021,0.015,1.002,0.061,0,-0.366,0.879,-1.192,-122.52
 15:36:59.596,eb:33:2e:f9:57:b5, 2085-97-43 00:28:00:2055,0.021,0.015,1.003,0.061,0,-0.305,0.879,-1.192,-122.52
 15:36:59.596,eb:33:2e:f9:57:b5, 2085-97-40 00:28:00:2053,0.021,0.014,1.003,0.061,-0.061,-0.122,0.879,-1.192,-122.52
 15:36:59.655,eb:33:2e:f9:57:b5, 2085-97-43 00:29:00:2055,0.022,0.015,1.003,0.061,-0.122,0,0.879,-1.192,-122.52
 15:36:59.655,eb:33:2e:f9:57:b5, 2085-97-43 00:27:00:2057,0.021,0.014,1.004,0.061,-0.061,0.122,0.879,-1.192,-122.52
 15:36:59.655,eb:33:2e:f9:57:b5, 2085-97-43 00:29:00:2056,0.021,0.014,1.004,0.183,-0.122,0.244,0.879,-1.192,-122.52
 15:36:59.655,eb:33:2e:f9:57:b5, 2085-97-48 00:32:00:2058,0.023,0.015,1.002,0.183,-0.183,0.366,0.879,-1.192,-122.514
 15:36:59.684,eb:33:2e:f9:57:b5, 2085-97-49 00:32:00:2056,0.024,0.016,1.004,0.122,-0.122,0.305,0.879,-1.198,-122.514
 15:36:59.684,eb:33:2e:f9:57:b5, 2085-97-48 00:30:00:2055,0.023,0.016,1.003,0.122,-0.061,0.122,0.879,-1.198,-122.514
 15:36:59.684,eb:33:2e:f9:57:b5, 2085-97-47 00:31:00:2055,0.024,0.016,1.003,0,-0.061,0,0.884,-1.198,-122.514
 15:36:59.684,eb:33:2e:f9:57:b5, 2085-97-48 00:30:00:2057,0.023,0.015,1.004,0,-0.061,-0.122,0.884,-1.198,-122.514
 15:36:59.714,eb:33:2e:f9:57:b5, 2085-97-48 00:30:00:2056,0.022,0.015,1.003,0,-0.061,-0.183,0.884,-1.198,-122.514
 15:36:59.714,eb:33:2e:f9:57:b5, 2085-97-45 00:33:00:2053,0.021,0.015,1.003,0,-0.061,-0.244,0.884,-1.198,-122.514
 15:36:59.714,eb:33:2e:f9:57:b5, 2085-97-35 00:26:00:2065,0.024,0.018,0.998,-0.122,-0.366,-0.183,0.884,-1.203,-122.514
 15:36:59.714,eb:33:2e:f9:57:b5, 2085-97-39 00:27:00:2058,0.023,0.013,1.004,0,-0.061,0,0.884,-1.203,-122.514
 15:36:59.773,eb:33:2e:f9:57:b5, 2085-97-46 00:32:00:2054,0.02,0.015,1.004,0,-0.122,0.183,0.884,-1.203,-122.514
 15:36:59.773,eb:33:2e:f9:57:b5, 2085-97-42 00:25:00:2060,0.021,0.015,1.003,0,-0.244,0.122,0.884,-1.203,-122.514
 15:36:59.773,eb:33:2e:f9:57:b5, 2085-97-50 00:30:00:2059,0.027,0.012,1.007,0.183,-0.183,0.549,0.884,-1.203,-122.514
 15:36:59.773,eb:33:2e:f9:57:b5, 2085-97-52 00:32:00:2058,0.024,0.017,1.005,0.244,-0.122,0.305,0.884,-1.203,-122.514
 15:36:59.804,eb:33:2e:f9:57:b5, 2085-97-47 00:32:00:2054,0.022,0.015,1.004,0.183,-0.061,0.061,0.884,-1.208,-122.514
 15:36:59.804,eb:33:2e:f9:57:b5, 2085-97-45 00:34:00:2052,0.022,0.017,1.002,0.122,-0.061,0.122,0.884,-1.208,-122.514
 15:36:59.804,eb:33:2e:f9:57:b5, 2085-97-44 00:31:00:2054,0.023,0.016,1.002,0,0,0,0.884,-1.208,-122.514
 15:36:59.804,eb:33:2e:f9:57:b5, 2085-97-50 00:32:00:2056,0.023,0.015,1.003,-0.061,-0.061,0.061,0.884,-1.208,-122.514
 15:36:59.864,eb:33:2e:f9:57:b5, 2085-97-46 00:30:00:2056,0.024,0.014,1.003,-0.061,0,0.122,0.89,-1.208,-122.514
 15:36:59.864,eb:33:2e:f9:57:b5, 2085-97-50 00:30:00:2056,0.022,0.016,1.004,0,0.061,0.122,0.89,-1.208,-122.514
 15:36:59.864,eb:33:2e:f9:57:b5, 2085-97-41 00:30:00:2053,0.021,0.015,1.003,-0.061,0.183,0.061,0.89,-1.214,-122.514
 15:36:59.864,eb:33:2e:f9:57:b5, 2085-97-45 00:30:00:2056,0.023,0.015,1.003,-0.061,0.061,0.244,0.89,-1.214,-122.514
 15:36:59.894,eb:33:2e:f9:57:b5, 2085-97-50 00:31:00:2058,0.024,0.016,1.004,-0.122,0.183,0.183,0.89,-1.214,-122.514
 15:36:59.895,eb:33:2e:f9:57:b5, 2085-97-49 00:30:00:2057,0.024,0.015,1.005,0,0.183,0.183,0.89,-1.214,-122.514
 15:36:59.895,eb:33:2e:f9:57:b5, 2085-97-46 00:31:00:2056,0.021,0.016,1.004,0,0.183,0.122,0.89,-1.214,-122.514
 15:36:59.895,eb:33:2e:f9:57:b5, 2085-97-46 00:30:00:2057,0.023,0.016,1.002,0,0.122,0.061,0.89,-1.214,-122.514
 15:36:59.924,eb:33:2e:f9:57:b5, 2085-97-50 00:30:00:2060,0.024,0.014,1.005,0,0.183,0.061,0.89,-1.219,-122.514
 15:36:59.924,eb:33:2e:f9:57:b5, 2085-97-46 00:31:00:2057,0.022,0.015,1.005,0.061,0.244,0,0.89,-1.219,-122.514
 15:36:59.924,eb:33:2e:f9:57:b5, 2085-97-45 00:34:00:2054,0.021,0.016,1.003,0.061,0.305,-0.122,0.89,-1.219,-122.514
 15:36:59.924,eb:33:2e:f9:57:b5, 2085-97-40 00:27:00:2055,0.02,0.016,1.002,0,0.244,-0.122,0.89,-1.219,-122.514
 15:36:59.985,eb:33:2e:f9:57:b5, 2085-97-42 00:29:00:2051,0.02,0.014,1.002,0,0.244,0.122,0.89,-1.219,-122.514
 15:36:59.985,eb:33:2e:f9:57:b5, 2085-97-43 00:30:00:2053,0.022,0.015,1.002,0,0.244,0.366,0.89,-1.219,-122.514
 15:36:59.985,eb:33:2e:f9:57:b5, 2085-113-81 00:141:61:-153,0.022,0.015,1.003,0,0.244,0.427,0.895,-1.219,-122.514
 15:36:59.985,eb:33:2e:f9:57:b5, 2085-97-44 00:30:00:2054,0.021,0.014,1.002,-0.061,0.122,0.488,0.895,-1.219,-122.514
 15:36:59.985,eb:33:2e:f9:57:b5, 2085-97-48 00:33:00:2055,0.025,0.016,1.002,-0.122,0,0.427,0.895,-1.219,-122.514
 15:37:00.017,eb:33:2e:f9:57:b5, 2085-97-51 00:28:00:2061,0.025,0.015,1.005,-0.061,0.061,0.305,0.895,-1.225,-122.514
 15:37:00.017,eb:33:2e:f9:57:b5, 2085-97-53 00:30:00:2060,0.025,0.014,1.007,0,0.122,0.244,0.895,-1.225,-122.509
 15:37:00.017,eb:33:2e:f9:57:b5, 2085-97-46 00:30:00:2057,0.02,0.015,1.005,0,0.183,0,0.895,-1.225,-122.509
 15:37:00.017,eb:33:2e:f9:57:b5, 2085-97-39 00:30:00:2051,0.019,0.016,1.002,0,0.122,-0.061,0.895,-1.225,-122.509
 15:37:00.044,eb:33:2e:f9:57:b5, 2085-97-41 00:31:00:2051,0.021,0.015,1.001,-0.061,0,0.061,0.895,-1.225,-122.509
 15:37:00.044,eb:33:2e:f9:57:b5, 2085-97-42 00:30:00:2053,0.021,0.015,1.002,-0.122,0,0.305,0.895,-1.225,-122.509
 15:37:00.044,eb:33:2e:f9:57:b5, 2085-97-47 00:33:00:2055,0.023,0.016,1.002,-0.122,0,0.366,0.895,-1.225,-122.509
 15:37:00.044,eb:33:2e:f9:57:b5, 2085-97-50 00:31:00:2059,0.025,0.015,1.005,-0.244,0,0.244,0.895,-1.225,-122.509
 15:37:00.103,eb:33:2e:f9:57:b5, 2085-97-53 00:31:00:2062,0.025,0.015,1.007,-0.122,0,0.061,0.895,-1.23,-122.509
 15:37:00.103,eb:33:2e:f9:57:b5, 2085-97-50 00:30:00:2060,0.024,0.016,1.006,-0.061,0,-0.061,0.895,-1.23,-122.509
 15:37:00.103,eb:33:2e:f9:57:b5, 2085-97-50 00:31:00:2058,0.022,0.016,1.004,-0.061,0.061,-0.366,0.895,-1.23,-122.509
 15:37:00.103,eb:33:2e:f9:57:b5, 2085-97-45 00:30:00:2056,0.021,0.014,1.004,0,0.061,-0.427,0.895,-1.23,-122.509
 15:37:00.134,eb:33:2e:f9:57:b5, 2085-97-40 00:30:00:2051,0.018,0.015,1.003,0,0.122,-0.305,0.901,-1.23,-122.509
 15:37:00.134,eb:33:2e:f9:57:b5, 2085-97-36 00:28:00:2051,0.018,0.015,1.001,-0.122,0,-0.122,0.901,-1.23,-122.509
 15:37:00.134,eb:33:2e:f9:57:b5, 2085-97-40 00:30:00:2052,0.022,0.014,1.002,-0.122,0,0.244,0.901,-1.236,-122.509
 15:37:00.134,eb:33:2e:f9:57:b5, 2085-97-46 00:31:00:2055,0.022,0.016,1.003,-0.183,0,0.305,0.901,-1.236,-122.509
 15:37:00.163,eb:33:2e:f9:57:b5, 2085-97-47 00:30:00:2058,0.023,0.016,1.004,-0.183,0,0.183,0.901,-1.236,-122.509
 15:37:00.163,eb:33:2e:f9:57:b5, 2085-97-50 00:31:00:2054,0.026,0.013,1.004,-0.122,0,0.366,0.901,-1.236,-122.509
 15:37:00.163,eb:33:2e:f9:57:b5, 2085-97-48 00:29:00:2057,0.022,0.015,1.004,-0.244,0,0.061,0.901,-1.236,-122.509
 15:37:00.163,eb:33:2e:f9:57:b5, 2085-97-42 00:30:00:2053,0.02,0.014,1.004,-0.183,0.122,0.061,0.901,-1.236,-122.509
 15:37:00.224,eb:33:2e:f9:57:b5, 2085-97-39 00:30:00:2051,0.02,0.016,1.001,-0.244,0.061,0.183,0.901,-1.236,-122.509
 15:37:00.224,eb:33:2e:f9:57:b5, 2085-97-43 00:30:00:2055,0.022,0.014,1.002,-0.305,0,0.427,0.901,-1.236,-122.509
 15:37:00.224,eb:33:2e:f9:57:b5, 2085-97-47 00:30:00:2059,0.023,0.015,1.003,-0.427,0.061,0.488,0.901,-1.236,-122.509
 15:37:00.224,eb:33:2e:f9:57:b5, 2085-97-48 00:28:00:2059,0.025,0.014,1.005,-0.366,0.061,0.488,0.901,-1.236,-122.509
 15:37:00.255,eb:33:2e:f9:57:b5, 2085-97-51 00:28:00:2062,0.024,0.015,1.005,-0.183,0.061,0.305,0.901,-1.241,-122.509
 15:37:00.255,eb:33:2e:f9:57:b5, 2085-97-49 00:28:00:2061,0.024,0.014,1.006,-0.061,0.183,0.122,0.901,-1.241,-122.509
 15:37:00.255,eb:33:2e:f9:57:b5, 2085-97-46 00:30:00:2059,0.022,0.014,1.006,0,0.122,0.122,0.901,-1.241,-122.509
 15:37:00.255,eb:33:2e:f9:57:b5, 2085-97-45 00:29:00:2056,0.021,0.014,1.005,0,0.183,0,0.901,-1.241,-122.509
 15:37:00.286,eb:33:2e:f9:57:b5, 2085-97-45 00:28:00:2055,0.021,0.014,1.003,0.061,0.183,0,0.906,-1.241,-122.509
 15:37:00.286,eb:33:2e:f9:57:b5, 2085-97-43 00:30:00:2053,0.022,0.014,1.003,0.061,0.183,0.122,0.906,-1.241,-122.509
 15:37:00.286,eb:33:2e:f9:57:b5, 2085-97-46 00:30:00:2053,0.021,0.015,1.002,0,0.122,0.122,0.906,-1.247,-122.509
 15:37:00.286,eb:33:2e:f9:57:b5, 2085-97-42 00:31:00:2052,0.021,0.016,1.002,-0.061,0.122,0.061,0.906,-1.247,-122.509
 15:37:00.345,eb:33:2e:f9:57:b5, 2085-97-41 00:30:00:2051,0.021,0.015,1.002,-0.183,0.061,0.061,0.906,-1.247,-122.509
 15:37:00.345,eb:33:2e:f9:57:b5, 2085-97-41 00:28:00:2054,0.021,0.014,1.002,-0.244,0.122,0.122,0.906,-1.247,-122.503
 15:37:00.345,eb:33:2e:f9:57:b5, 2085-97-42 00:24:00:2058,0.022,0.013,1.004,-0.244,0,0.244,0.906,-1.247,-122.503
 15:37:00.345,eb:33:2e:f9:57:b5, 2085-97-47 00:26:00:2063,0.023,0.012,1.005,-0.061,0,0.366,0.906,-1.247,-122.503
 15:37:00.374,eb:33:2e:f9:57:b5, 2085-97-49 00:31:00:2057,0.024,0.014,1.007,0.061,0.183,0.366,0.906,-1.247,-122.503
 15:37:00.374,eb:33:2e:f9:57:b5, 2085-97-47 00:25:00:2061,0.023,0.015,1.005,0.061,0.061,0.183,0.906,-1.247,-122.503
 15:37:00.374,eb:33:2e:f9:57:b5, 2085-97-46 00:29:00:2058,0.022,0.013,1.006,0.183,0.061,0.122,0.906,-1.247,-122.503
 15:37:00.374,eb:33:2e:f9:57:b5, 2085-97-45 00:33:00:2052,0.019,0.016,1.003,0.183,0.061,0.122,0.906,-1.247,-122.503
 15:37:00.404,eb:33:2e:f9:57:b5, 2085-97-36 00:30:00:2048,0.02,0.015,1.001,0,0.122,0.061,0.906,-1.252,-122.503
 15:37:00.404,eb:33:2e:f9:57:b5, 2085-97-44 00:30:00:2054,0.023,0.015,1.002,-0.061,0,0.305,0.906,-1.252,-122.503
 15:37:00.404,eb:33:2e:f9:57:b5, 2085-97-46 00:28:00:2058,0.022,0.014,1.005,0,0.122,0.305,0.906,-1.252,-122.503
 15:37:00.404,eb:33:2e:f9:57:b5, 2085-97-49 00:32:00:2055,0.023,0.014,1.004,-0.061,0.061,0.305,0.906,-1.252,-122.503
 15:37:00.494,eb:33:2e:f9:57:b5, 2085-97-46 00:33:00:2055,0.021,0.015,1.004,-0.244,0.183,0,0.906,-1.252,-122.503
 15:37:00.494,eb:33:2e:f9:57:b5, 2085-97-43 00:32:00:2050,0.021,0.015,1.002,-0.366,0.183,0,0.906,-1.252,-122.503
 15:37:00.494,eb:33:2e:f9:57:b5, 2085-97-43 00:28:00:2052,0.022,0.015,1.001,-0.549,0.183,0,0.906,-1.252,-122.503
 15:37:00.494,eb:33:2e:f9:57:b5, 2085-97-47 00:28:00:2057,0.023,0.013,1.004,-0.549,0.366,0.122,0.906,-1.252,-122.503
 15:37:00.496,eb:33:2e:f9:57:b5, 2085-97-45 00:30:00:2056,0.019,0.015,1.004,-0.549,0.488,0.183,0.906,-1.258,-122.503
 15:37:00.496,eb:33:2e:f9:57:b5, 2085-97-42 00:28:00:2055,0.021,0.014,1.002,-0.671,0.488,0.183,0.906,-1.258,-122.503
 15:37:00.496,eb:33:2e:f9:57:b5, 2085-97-40 00:27:00:2052,0.021,0.013,1.003,-0.61,0.61,0.366,0.912,-1.258,-122.503
 15:37:00.496,eb:33:2e:f9:57:b5, 2085-97-44 00:27:00:2056,0.021,0.014,1.003,-0.671,0.61,0.427,0.912,-1.258,-122.503
 15:37:00.524,eb:33:2e:f9:57:b5, 2085-97-44 00:27:00:2058,0.022,0.013,1.005,-0.61,0.671,0.488,0.912,-1.258,-122.503
 15:37:00.524,eb:33:2e:f9:57:b5, 2085-97-45 00:26:00:2059,0.022,0.013,1.006,-0.549,0.732,0.427,0.912,-1.258,-122.503
 15:37:00.524,eb:33:2e:f9:57:b5, 2085-113-58 00:214:222:-5385,0.022,0.012,1.006,-0.427,0.61,0.427,0.912,-1.258,-122.503
 15:37:00.524,eb:33:2e:f9:57:b5, 2085-97-42 00:26:00:2059,0.02,0.012,1.005,-0.305,0.61,0.427,0.912,-1.258,-122.503
 15:37:00.585,eb:33:2e:f9:57:b5, 2085-97-39 00:22:00:2057,0.019,0.011,1.006,-0.244,0.549,0.488,0.912,-1.258,-122.503
 15:37:00.585,eb:33:2e:f9:57:b5, 2085-97-40 00:25:00:2057,0.02,0.012,1.004,-0.061,0.427,0.671,0.912,-1.258,-122.503
 15:37:00.585,eb:33:2e:f9:57:b5, 2085-97-45 00:27:00:2058,0.022,0.012,1.004,0,0.366,0.61,0.912,-1.258,-122.503
 15:37:00.585,eb:33:2e:f9:57:b5, 2085-97-46 00:25:00:2058,0.023,0.012,1.005,0,0.366,0.549,0.912,-1.258,-122.503
 15:37:00.614,eb:33:2e:f9:57:b5, 2085-97-46 00:27:00:2058,0.021,0.013,1.005,0,0.427,0.427,0.912,-1.263,-122.503
 15:37:00.614,eb:33:2e:f9:57:b5, 2085-97-44 00:28:00:2057,0.021,0.013,1.004,0,0.427,0.244,0.912,-1.263,-122.503
 15:37:00.614,eb:33:2e:f9:57:b5, 2085-97-42 00:27:00:2054,0.02,0.013,1.003,0,0.427,0.122,0.912,-1.263,-122.503
 15:37:00.614,eb:33:2e:f9:57:b5, 2085-97-39 00:26:00:2053,0.02,0.014,1.003,0,0.427,0.183,0.912,-1.263,-122.503
 15:37:00.644,eb:33:2e:f9:57:b5, 2085-97-42 00:27:00:2054,0.019,0.013,1.003,-0.061,0.366,0.244,0.912,-1.263,-122.503
 15:37:00.644,eb:33:2e:f9:57:b5, 2085-97-40 00:24:00:2056,0.02,0.013,1.004,-0.061,0.366,0.244,0.912,-1.263,-122.503
 15:37:00.644,eb:33:2e:f9:57:b5, 2085-97-39 00:23:00:2055,0.018,0.013,1.005,0,0.366,0.305,0.912,-1.263,-122.503
 15:37:00.644,eb:33:2e:f9:57:b5, 2085-97-38 00:27:00:2055,0.02,0.012,1.003,0,0.244,0.427,0.912,-1.263,-122.498
 15:37:00.704,eb:33:2e:f9:57:b5, 2085-97-42 00:24:00:2059,0.021,0.013,1.005,0,0.244,0.488,0.912,-1.263,-122.498
 15:37:00.704,eb:33:2e:f9:57:b5, 2085-97-39 00:27:00:2056,0.02,0.012,1.005,0.244,0.305,0.488,0.912,-1.263,-122.498
 15:37:00.704,eb:33:2e:f9:57:b5, 2085-97-44 00:30:00:2054,0.021,0.015,1.003,0.122,0.061,0.488,0.912,-1.263,-122.498
 15:37:00.704,eb:33:2e:f9:57:b5, 2085-97-43 00:27:00:2056,0.021,0.014,1.004,0,0.183,0.366,0.912,-1.263,-122.498
 15:37:00.733,eb:33:2e:f9:57:b5, 2085-97-44 00:27:00:2058,0.021,0.014,1.004,0,0.122,0.305,0.912,-1.263,-122.498
 15:37:00.733,eb:33:2e:f9:57:b5, 2085-97-43 00:26:00:2057,0.021,0.013,1.004,0,0.122,0.122,0.912,-1.263,-122.498
 15:37:00.733,eb:33:2e:f9:57:b5, 2085-97-43 00:25:00:2060,0.021,0.013,1.004,0.061,0.061,0.061,0.912,-1.269,-122.498
 15:37:00.733,eb:33:2e:f9:57:b5, 2085-97-43 00:26:00:2059,0.02,0.013,1.006,0.061,0.183,0,0.912,-1.269,-122.498
 15:37:00.764,eb:33:2e:f9:57:b5, 2085-97-40 00:26:00:2055,0.02,0.014,1.004,0.122,0.183,0.061,0.912,-1.269,-122.498
 15:37:00.764,eb:33:2e:f9:57:b5, 2085-97-40 00:26:00:2057,0.02,0.013,1.004,0.061,0.183,0.061,0.912,-1.269,-122.498
 15:37:00.764,eb:33:2e:f9:57:b5, 2085-97-37 00:25:00:2056,0.017,0.014,1.004,0.061,0.244,0.183,0.912,-1.269,-122.498
 15:37:00.764,eb:33:2e:f9:57:b5, 2085-97-37 00:28:00:2052,0.018,0.012,1.002,0.061,0.183,0.366,0.912,-1.269,-122.498
 15:37:00.854,eb:33:2e:f9:57:b5, 2085-97-41 00:27:00:2055,0.021,0.014,1.002,0,0.183,0.427,0.912,-1.269,-122.498
 15:37:00.854,eb:33:2e:f9:57:b5, 2085-97-43 00:26:00:2061,0.024,0.013,1.005,0,0.244,0.427,0.912,-1.269,-122.498
 15:37:00.854,eb:33:2e:f9:57:b5, 2085-97-53 00:30:00:2065,0.025,0.015,1.006,0.061,0.183,0.122,0.912,-1.269,-122.498
 15:37:00.854,eb:33:2e:f9:57:b5, 2085-97-39 00:20:00:2065,0.016,0.013,1.009,0.244,0.366,-0.305,0.912,-1.269,-122.498
 15:37:00.856,eb:33:2e:f9:57:b5, 2085-97-35 00:26:00:2055,0.019,0.01,1.006,0.488,0.122,-0.122,0.912,-1.269,-122.498
 15:37:00.856,eb:33:2e:f9:57:b5, 2085-97-38 00:26:00:2058,0.019,0.014,1.004,0.61,0,-0.183,0.912,-1.269,-122.498
 15:37:00.856,eb:33:2e:f9:57:b5, 2085-97-38 00:27:00:2057,0.019,0.013,1.004,0.61,-0.061,-0.183,0.912,-1.269,-122.498
 15:37:00.856,eb:33:2e:f9:57:b5, 2085-97-38 00:29:00:2054,0.018,0.013,1.004,0.793,0,0,0.912,-1.269,-122.498
 15:37:00.915,eb:33:2e:f9:57:b5, 2085-97-37 00:29:00:2053,0.018,0.016,1.001,0.671,0,0,0.912,-1.269,-122.498
 15:37:00.915,eb:33:2e:f9:57:b5, 2085-97-36 00:26:00:2056,0.02,0.013,1.003,0.549,0,0.061,0.912,-1.269,-122.498
 15:37:00.915,eb:33:2e:f9:57:b5, 2085-97-42 00:34:00:2052,0.02,0.015,1.002,0.549,-0.061,0.305,0.912,-1.269,-122.498
 15:37:00.915,eb:33:2e:f9:57:b5, 2085-97-38 00:31:00:2053,0.018,0.016,1.002,0.366,0,0.061,0.912,-1.269,-122.498
 15:37:00.945,eb:33:2e:f9:57:b5, 2085-97-40 00:33:00:2050,0.02,0.015,1.002,0.183,0,0.183,0.912,-1.269,-122.498
 15:37:00.945,eb:33:2e:f9:57:b5, 2085-97-38 00:28:00:2053,0.019,0.016,1.002,0,0,0.061,0.912,-1.269,-122.498
 15:37:00.945,eb:33:2e:f9:57:b5, 2085-97-42 00:30:00:2054,0.022,0.014,1.002,0,0.061,0.122,0.912,-1.269,-122.498
 15:37:00.945,eb:33:2e:f9:57:b5, 2085-97-43 00:31:00:2056,0.021,0.017,1.003,-0.122,0.061,0.061,0.912,-1.269,-122.498
 15:37:00.974,eb:33:2e:f9:57:b5, 2085-97-42 00:27:00:2056,0.021,0.014,1.004,-0.183,0.122,0,0.912,-1.269,-122.498
 15:37:00.974,eb:33:2e:f9:57:b5, 2085-97-44 00:27:00:2057,0.019,0.013,1.004,-0.183,0.061,0,0.912,-1.269,-122.498
 15:37:00.974,eb:33:2e:f9:57:b5, 2085-97-40 00:28:00:2056,0.02,0.013,1.004,-0.183,0.122,-0.061,0.912,-1.274,-122.498
 15:37:00.974,eb:33:2e:f9:57:b5, 2085-97-39 00:25:00:2060,0.019,0.013,1.005,-0.122,0.061,0,0.912,-1.274,-122.498
 15:37:01.003,eb:33:2e:f9:57:b5, 2085-97-37 00:25:00:2058,0.018,0.013,1.004,-0.061,0.061,0,0.912,-1.274,-122.498
 15:37:01.003,eb:33:2e:f9:57:b5, 2085-97-42 00:26:00:2058,0.019,0.013,1.004,0.061,0,0.183,0.912,-1.274,-122.492
 15:37:01.003,eb:33:2e:f9:57:b5, 2085-97-29 00:27:00:2051,0.016,0.013,1.004,0.122,0.183,0.366,0.912,-1.274,-122.492
 15:37:01.003,eb:33:2e:f9:57:b5, 2085-97-36 00:28:00:2053,0.021,0.014,1.001,0.061,-0.061,0.61,0.912,-1.274,-122.492
 15:37:01.066,eb:33:2e:f9:57:b5, 2085-97-44 00:29:00:2059,0.024,0.014,1.005,0.061,-0.061,0.732,0.912,-1.274,-122.492
 15:37:01.066,eb:33:2e:f9:57:b5, 2085-97-47 00:28:00:2060,0.015,0.014,1.006,0.122,-0.061,0.549,0.912,-1.274,-122.492
 15:37:01.066,eb:33:2e:f9:57:b5, 2085-97-34 00:31:00:2052,0.02,0.015,1.001,0.122,-0.061,0.61,0.912,-1.274,-122.492
 15:37:01.066,eb:33:2e:f9:57:b5, 2085-97-49 00:29:00:2062,0.023,0.015,1.003,0.061,-0.305,0.549,0.912,-1.274,-122.492
 15:37:01.093,eb:33:2e:f9:57:b5, 2085-97-45 00:30:00:2058,0.02,0.014,1.007,0.122,-0.061,0.366,0.912,-1.274,-122.492
 15:37:01.093,eb:33:2e:f9:57:b5, 2085-97-40 00:30:00:2053,0.018,0.015,1.003,0.122,-0.183,0.244,0.912,-1.274,-122.492
 15:37:01.093,eb:33:2e:f9:57:b5, 2085-97-36 00:24:00:2059,0.019,0.013,1.005,0.183,-0.122,0.244,0.917,-1.274,-122.492
 15:37:01.093,eb:33:2e:f9:57:b5, 2085-97-38 00:29:00:2054,0.019,0.014,1.004,0.244,-0.183,0.488,0.917,-1.274,-122.492
 15:37:01.123,eb:33:2e:f9:57:b5, 2085-97-37 00:29:00:2057,0.019,0.014,1.003,0.305,-0.244,0.549,0.917,-1.274,-122.492
 15:37:01.123,eb:33:2e:f9:57:b5, 2085-97-42 00:30:00:2055,0.022,0.015,1.005,0.305,-0.244,0.61,0.917,-1.274,-122.492
 15:37:01.123,eb:33:2e:f9:57:b5, 2085-97-44 00:32:00:2055,0.022,0.015,1.003,0.183,-0.244,0.488,0.917,-1.274,-122.492
 15:37:01.123,eb:33:2e:f9:57:b5, 2085-97-46 00:32:00:2056,0.023,0.016,1.003,0.061,-0.244,0.305,0.917,-1.274,-122.492
 15:37:01.185,eb:33:2e:f9:57:b5, 2085-97-47 00:33:00:2055,0.022,0.016,1.003,0,-0.061,0.061,0.917,-1.274,-122.492
 15:37:01.185,eb:33:2e:f9:57:b5, 2085-97-44 00:30:00:2055,0.021,0.015,1.003,-0.061,0,-0.061,0.917,-1.274,-122.492
 15:37:01.185,eb:33:2e:f9:57:b5, 2085-97-44 00:31:00:2055,0.02,0.015,1.004,-0.061,0,-0.183,0.917,-1.274,-122.492
 15:37:01.185,eb:33:2e:f9:57:b5, 2085-97-40 00:28:00:2058,0.019,0.014,1.005,-0.061,0,-0.244,0.917,-1.274,-122.492
 15:37:01.215,eb:33:2e:f9:57:b5, 2085-97-39 00:28:00:2057,0.021,0.013,1.005,-0.061,0,-0.061,0.917,-1.274,-122.492
 15:37:01.215,eb:33:2e:f9:57:b5, 2085-97-38 00:28:00:2055,0.019,0.014,1.004,0,0,0,0.917,-1.274,-122.492
 15:37:01.215,eb:33:2e:f9:57:b5, 2085-97-40 00:30:00:2053,0.019,0.015,1.003,0,0.061,-0.061,0.917,-1.28,-122.492
 15:37:01.215,eb:33:2e:f9:57:b5, 2085-97-39 00:28:00:2053,0.019,0.014,1.002,-0.122,0,0,0.917,-1.28,-122.492
 15:37:01.273,eb:33:2e:f9:57:b5, 2085-97-41 00:30:00:2054,0.021,0.014,1.002,-0.183,-0.061,0.061,0.917,-1.28,-122.492
 15:37:01.273,eb:33:2e:f9:57:b5, 2085-97-43 00:30:00:2056,0.021,0.015,1.004,-0.244,0,0,0.917,-1.28,-122.492
 15:37:01.273,eb:33:2e:f9:57:b5, 2085-97-44 00:29:00:2056,0.021,0.015,1.003,-0.305,0,-0.061,0.917,-1.28,-122.492
 15:37:01.273,eb:33:2e:f9:57:b5, 2085-97-43 00:29:00:2059,0.021,0.015,1.005,-0.305,0,-0.183,0.917,-1.28,-122.492
 15:37:01.334,eb:33:2e:f9:57:b5, 2085-97-44 00:27:00:2063,0.021,0.013,1.006,-0.305,0,-0.122,0.917,-1.28,-122.492
 15:37:01.334,eb:33:2e:f9:57:b5, 2085-97-42 00:28:00:2057,0.02,0.014,1.006,-0.122,0.122,-0.183,0.917,-1.28,-122.492
 15:37:01.334,eb:33:2e:f9:57:b5, 2085-97-40 00:28:00:2058,0.019,0.014,1.005,-0.122,0.061,-0.244,0.917,-1.28,-122.492
 15:37:01.334,eb:33:2e:f9:57:b5, 2085-97-39 00:25:00:2056,0.02,0.013,1.005,-0.061,0.061,-0.183,0.917,-1.28,-122.492
 15:37:01.337,eb:33:2e:f9:57:b5, 2085-97-40 00:27:00:2054,0.02,0.013,1.004,0,0.061,-0.061,0.917,-1.28,-122.492
 15:37:01.337,eb:33:2e:f9:57:b5, 2085-97-39 00:29:00:2054,0.02,0.014,1.003,-0.061,0.061,0,0.917,-1.28,-122.492
 15:37:01.337,eb:33:2e:f9:57:b5, 2085-97-39 00:29:00:2054,0.019,0.014,1.003,-0.061,0.061,0.061,0.917,-1.28,-122.492
 15:37:01.337,eb:33:2e:f9:57:b5, 2085-97-38 00:28:00:2053,0.019,0.013,1.003,-0.122,0.061,0.122,0.917,-1.28,-122.492
 15:37:01.394,eb:33:2e:f9:57:b5, 2085-97-41 00:28:00:2057,0.021,0.014,1.003,-0.183,0,0.183,0.923,-1.28,-122.492
 15:37:01.394,eb:33:2e:f9:57:b5, 2085-97-40 00:27:00:2056,0.02,0.014,1.005,-0.183,0.061,0.122,0.923,-1.28,-122.492
 15:37:01.394,eb:33:2e:f9:57:b5, 2085-97-40 00:28:00:2057,0.021,0.013,1.004,-0.183,0.061,0.122,0.923,-1.28,-122.492
 15:37:01.394,eb:33:2e:f9:57:b5, 2085-97-43 00:28:00:2059,0.02,0.013,1.005,-0.183,0.122,0.122,0.923,-1.28,-122.487
 15:37:01.425,eb:33:2e:f9:57:b5, 2085-97-42 00:29:00:2055,0.021,0.013,1.004,-0.061,0.122,0.061,0.923,-1.28,-122.487
 15:37:01.425,eb:33:2e:f9:57:b5, 2085-97-41 00:28:00:2056,0.02,0.014,1.004,-0.122,0.122,0,0.923,-1.28,-122.487
 15:37:01.425,eb:33:2e:f9:57:b5, 2085-97-42 00:29:00:2056,0.02,0.013,1.005,-0.061,0.183,0.061,0.923,-1.28,-122.487
 15:37:01.425,eb:33:2e:f9:57:b5, 2085-97-38 00:30:00:2055,0.019,0.014,1.004,-0.122,0.305,0,0.923,-1.28,-122.487
 15:37:01.456,eb:33:2e:f9:57:b5, 2085-97-36 00:26:00:2054,0.018,0.014,1.004,-0.122,0.244,0.061,0.923,-1.285,-122.487
 15:37:01.456,eb:33:2e:f9:57:b5, 2085-97-39 00:29:00:2056,0.021,0.013,1.002,-0.183,0.122,0.244,0.923,-1.285,-122.487
 15:37:01.456,eb:33:2e:f9:57:b5, 2085-97-40 00:28:00:2056,0.019,0.014,1.004,-0.244,0.183,0.183,0.923,-1.285,-122.487
 15:37:01.456,eb:33:2e:f9:57:b5, 2085-97-40 00:29:00:2053,0.02,0.013,1.003,-0.244,0.183,0.183,0.923,-1.285,-122.487
 15:37:01.514,eb:33:2e:f9:57:b5, 2085-97-43 00:30:00:2056,0.021,0.015,1.003,-0.366,0.183,0.061,0.923,-1.285,-122.487
 15:37:01.514,eb:33:2e:f9:57:b5, 2085-97-42 00:27:00:2058,0.02,0.014,1.003,-0.366,0.183,0,0.923,-1.285,-122.487
 15:37:01.514,eb:33:2e:f9:57:b5, 2085-113-58 00:214:222:-5460,0.02,0.013,1.004,-0.305,0.244,0,0.923,-1.285,-122.487
 15:37:01.514,eb:33:2e:f9:57:b5, 2085-97-40 00:25:00:2056,0.02,0.011,1.006,-0.244,0.305,0.061,0.923,-1.285,-122.487
 15:37:01.514,eb:33:2e:f9:57:b5, 2085-97-40 00:25:00:2060,0.02,0.012,1.005,-0.061,0.183,0.122,0.923,-1.285,-122.487
 15:37:01.543,eb:33:2e:f9:57:b5, 2085-97-39 00:26:00:2057,0.018,0.012,1.005,0,0.183,0.122,0.923,-1.285,-122.487
 15:37:01.543,eb:33:2e:f9:57:b5, 2085-97-42 00:28:00:2057,0.02,0.013,1.004,0,0.061,0.061,0.923,-1.285,-122.487
 15:37:01.543,eb:33:2e:f9:57:b5, 2085-97-41 00:30:00:2057,0.02,0.013,1.005,0,0.244,0.061,0.923,-1.285,-122.487
 15:37:01.543,eb:33:2e:f9:57:b5, 2085-97-44 00:29:00:2060,0.021,0.014,1.004,0,0.122,0,0.923,-1.285,-122.487
 15:37:01.576,eb:33:2e:f9:57:b5, 2085-97-42 00:29:00:2057,0.02,0.014,1.005,0,0.183,-0.061,0.923,-1.285,-122.487
 15:37:01.576,eb:33:2e:f9:57:b5, 2085-97-42 00:28:00:2058,0.02,0.014,1.004,-0.122,0.244,-0.122,0.923,-1.285,-122.487
 15:37:01.576,eb:33:2e:f9:57:b5, 2085-97-38 00:27:00:2055,0.018,0.013,1.005,-0.061,0.244,-0.122,0.923,-1.285,-122.487
 15:37:01.576,eb:33:2e:f9:57:b5, 2085-97-36 00:28:00:2055,0.019,0.014,1.003,-0.122,0.244,-0.183,0.923,-1.285,-122.487
 15:37:01.635,eb:33:2e:f9:57:b5, 2085-97-35 00:26:00:2054,0.017,0.013,1.003,-0.122,0.122,-0.122,0.923,-1.285,-122.487
 15:37:01.635,eb:33:2e:f9:57:b5, 2085-97-42 00:24:00:2061,0.018,0.011,1.004,0,0.122,0.061,0.923,-1.285,-122.487
 15:37:01.635,eb:33:2e:f9:57:b5, 2085-97-30 00:27:00:2053,0.02,0.011,1.005,0.061,0.183,0.061,0.923,-1.285,-122.487
 15:37:01.635,eb:33:2e:f9:57:b5, 2085-97-35 00:25:00:2059,0.021,0.013,1.006,0.122,0.122,0.122,0.923,-1.285,-122.487
 15:37:01.663,eb:33:2e:f9:57:b5, 2085-97-44 00:27:00:2061,0.02,0.014,1.005,0.244,0,0.183,0.923,-1.285,-122.487
 15:37:01.663,eb:33:2e:f9:57:b5, 2085-97-39 00:28:00:2056,0.02,0.015,1.004,0.183,0.122,0.061,0.923,-1.285,-122.487
 15:37:01.663,eb:33:2e:f9:57:b5, 2085-97-41 00:28:00:2057,0.021,0.014,1.003,0.183,0.122,0,0.923,-1.285,-122.487
 15:37:01.664,eb:33:2e:f9:57:b5, 2085-97-39 00:29:00:2054,0.018,0.014,1.003,0.183,0.183,0,0.923,-1.285,-122.487
 15:37:01.694,eb:33:2e:f9:57:b5, 2085-97-35 00:28:00:2052,0.018,0.014,1.002,0,0.122,0,0.923,-1.285,-122.487
 15:37:01.694,eb:33:2e:f9:57:b5, 2085-97-37 00:30:00:2053,0.019,0.014,1.002,0,0.061,0,0.923,-1.285,-122.487
 15:37:01.694,eb:33:2e:f9:57:b5, 2085-97-38 00:28:00:2055,0.018,0.014,1.002,-0.061,0.061,0,0.923,-1.285,-122.487
 15:37:01.694,eb:33:2e:f9:57:b5, 2085-97-38 00:25:00:2057,0.019,0.013,1.003,-0.122,0,0.122,0.923,-1.285,-122.487
 15:37:01.755,eb:33:2e:f9:57:b5, 2085-97-38 00:25:00:2059,0.02,0.012,1.005,-0.061,0,0.244,0.923,-1.285,-122.487
 15:37:01.755,eb:33:2e:f9:57:b5, 2085-97-39 00:27:00:2060,0.02,0.013,1.005,0,0,0.183,0.923,-1.285,-122.487
 15:37:01.755,eb:33:2e:f9:57:b5, 2085-97-42 00:29:00:2058,0.02,0.013,1.005,0,0,0.122,0.923,-1.285,-122.487
 15:37:01.755,eb:33:2e:f9:57:b5, 2085-97-39 00:28:00:2058,0.02,0.014,1.004,0,0,0,0.923,-1.285,-122.487
 15:37:01.784,eb:33:2e:f9:57:b5, 2085-97-40 00:30:00:2055,0.019,0.014,1.005,0,0.061,-0.061,0.923,-1.285,-122.487
 15:37:01.784,eb:33:2e:f9:57:b5, 2085-97-37 00:28:00:2055,0.018,0.014,1.004,-0.061,0.061,-0.122,0.923,-1.285,-122.481
 15:37:01.784,eb:33:2e:f9:57:b5, 2085-97-39 00:28:00:2056,0.018,0.013,1.004,-0.061,0.122,-0.061,0.923,-1.285,-122.481
 15:37:01.784,eb:33:2e:f9:57:b5, 2085-97-38 00:29:00:2054,0.019,0.014,1.004,-0.122,0.122,-0.061,0.923,-1.285,-122.481
 15:37:01.814,eb:33:2e:f9:57:b5, 2085-97-38 00:26:00:2060,0.017,0.013,1.004,-0.061,0.061,0,0.923,-1.285,-122.481
 15:37:01.814,eb:33:2e:f9:57:b5, 2085-97-35 00:25:00:2057,0.019,0.012,1.005,0,0.061,0.061,0.923,-1.285,-122.481
 15:37:01.814,eb:33:2e:f9:57:b5, 2085-97-39 00:26:00:2057,0.02,0.014,1.003,0,0,0.122,0.923,-1.285,-122.481
 15:37:01.814,eb:33:2e:f9:57:b5, 2085-97-40 00:27:00:2059,0.02,0.013,1.005,0.061,0,0.122,0.923,-1.285,-122.481
 15:37:01.875,eb:33:2e:f9:57:b5, 2085-97-43 00:29:00:2060,0.02,0.014,1.005,0.061,0,0.122,0.923,-1.285,-122.481
 15:37:01.875,eb:33:2e:f9:57:b5, 2085-97-40 00:29:00:2059,0.019,0.014,1.005,0.122,0.061,0,0.923,-1.285,-122.481
 15:37:01.875,eb:33:2e:f9:57:b5, 2085-97-40 00:28:00:2055,0.02,0.014,1.005,0.061,0.061,0,0.923,-1.285,-122.481
 15:37:01.875,eb:33:2e:f9:57:b5, 2085-97-39 00:27:00:2057,0.019,0.014,1.005,0.061,0.122,-0.061,0.923,-1.285,-122.481
 15:37:01.903,eb:33:2e:f9:57:b5, 2085-97-36 00:29:00:2053,0.017,0.014,1.003,0.061,0.183,-0.122,0.923,-1.285,-122.481
 15:37:01.903,eb:33:2e:f9:57:b5, 2085-97-36 00:28:00:2054,0.018,0.013,1.002,0,0.122,-0.122,0.923,-1.285,-122.481
 15:37:01.903,eb:33:2e:f9:57:b5, 2085-97-35 00:26:00:2056,0.018,0.013,1.003,-0.061,0.122,0,0.923,-1.285,-122.481
 15:37:01.903,eb:33:2e:f9:57:b5, 2085-97-39 00:27:00:2059,0.019,0.012,1.004,0,0.061,0.061,0.923,-1.285,-122.481
 15:37:01.935,eb:33:2e:f9:57:b5, 2085-97-37 00:27:00:2056,0.018,0.014,1.005,0,0.061,0.061,0.923,-1.285,-122.481
 15:37:01.935,eb:33:2e:f9:57:b5, 2085-97-37 00:28:00:2056,0.019,0.013,1.005,0.061,0,0.122,0.923,-1.285,-122.481
 15:37:01.935,eb:33:2e:f9:57:b5, 2085-97-39 00:28:00:2057,0.019,0.014,1.004,0.122,0,0.183,0.923,-1.285,-122.481
 15:37:01.935,eb:33:2e:f9:57:b5, 2085-97-39 00:30:00:2055,0.019,0.014,1.004,0.061,0,0.122,0.923,-1.285,-122.481
 15:37:01.993,eb:33:2e:f9:57:b5, 2085-97-37 00:27:00:2055,0.018,0.014,1.003,0.061,0,0.061,0.923,-1.285,-122.481
 15:37:01.993,eb:33:2e:f9:57:b5, 2085-97-39 00:27:00:2060,0.021,0.013,1.005,0.061,0,0,0.923,-1.285,-122.481
 15:37:01.993,eb:33:2e:f9:57:b5, 2085-97-42 00:28:00:2057,0.019,0.014,1.004,0.061,0,0,0.923,-1.285,-122.481
 15:37:01.993,eb:33:2e:f9:57:b5, 2085-97-40 00:28:00:2058,0.021,0.013,1.005,0.122,0,-0.061,0.923,-1.285,-122.481
 15:37:02.023,eb:33:2e:f9:57:b5, 2085-97-41 00:29:00:2054,0.019,0.014,1.004,0.183,0.061,-0.061,0.923,-1.285,-122.481
 15:37:02.023,eb:33:2e:f9:57:b5, 2085-97-36 00:28:00:2053,0.018,0.015,1.003,0.061,0,-0.183,0.923,-1.285,-122.481
 15:37:02.023,eb:33:2e:f9:57:b5, 2085-97-39 00:28:00:2053,0.018,0.014,1.003,0,0,-0.122,0.923,-1.285,-122.481
 15:37:02.023,eb:33:2e:f9:57:b5, 2085-97-38 00:26:00:2058,0.02,0.014,1.003,0,0,-0.122,0.923,-1.285,-122.481
 15:37:02.055,eb:33:2e:f9:57:b5, 2085-97-39 00:28:00:2059,0.018,0.013,1.005,0,0.061,-0.061,0.923,-1.285,-122.481
 15:37:02.055,eb:33:2e:f9:57:b5, 2085-97-36 00:27:00:2057,0.019,0.013,1.005,0.122,0.122,0,0.923,-1.285,-122.481
 15:37:02.055,eb:33:2e:f9:57:b5, 2085-97-39 00:26:00:2060,0.02,0.013,1.004,0.183,0,0,0.928,-1.285,-122.481
 15:37:02.055,eb:33:2e:f9:57:b5, 2085-97-42 00:30:00:2056,0.02,0.013,1.005,0.244,0.061,0,0.928,-1.285,-122.481
 15:37:02.115,eb:33:2e:f9:57:b5, 2085-97-43 00:31:00:2057,0.02,0.015,1.005,0.244,0,-0.122,0.928,-1.285,-122.481
 15:37:02.115,eb:33:2e:f9:57:b5, 2085-113-58 00:124:222:-5715,0.019,0.014,1.004,0.183,0.061,-0.244,0.928,-1.285,-122.481
 15:37:02.115,eb:33:2e:f9:57:b5, 2085-97-42 00:30:00:2058,0.02,0.014,1.004,0.244,0,-0.305,0.928,-1.285,-122.481
 15:37:02.115,eb:33:2e:f9:57:b5, 2085-97-41 00:30:00:2058,0.02,0.014,1.005,0.305,0,-0.366,0.928,-1.285,-122.481
 15:37:02.144,eb:33:2e:f9:57:b5, 2085-97-39 00:26:00:2059,0.019,0.014,1.006,0.244,0.061,-0.549,0.928,-1.285,-122.481
 15:37:02.144,eb:33:2e:f9:57:b5, 2085-97-38 00:29:00:2056,0.017,0.013,1.005,0.366,0.061,-0.488,0.928,-1.285,-122.481
 15:37:02.144,eb:33:2e:f9:57:b5, 2085-97-34 00:29:00:2052,0.017,0.014,1.002,0.366,0,-0.427,0.928,-1.285,-122.481
 15:37:02.144,eb:33:2e:f9:57:b5, 2085-97-34 00:29:00:2050,0.017,0.014,1.002,0.305,0,-0.305,0.928,-1.285,-122.481
 15:37:02.175,eb:33:2e:f9:57:b5, 2085-97-36 00:32:00:2052,0.017,0.016,1.002,0.183,-0.061,-0.305,0.928,-1.285,-122.481
 15:37:02.175,eb:33:2e:f9:57:b5, 2085-97-34 00:30:00:2052,0.018,0.015,1.002,0,-0.122,-0.305,0.928,-1.285,-122.476
 15:37:02.175,eb:33:2e:f9:57:b5, 2085-97-39 00:32:00:2054,0.019,0.015,1.002,0,-0.122,-0.183,0.928,-1.285,-122.476
 15:37:02.175,eb:33:2e:f9:57:b5, 2085-97-38 00:30:00:2056,0.02,0.016,1.004,-0.061,-0.061,-0.183,0.928,-1.285,-122.476
 15:37:02.234,eb:33:2e:f9:57:b5, 2085-97-39 00:30:00:2055,0.019,0.015,1.003,-0.183,-0.122,-0.183,0.928,-1.285,-122.476
 15:37:02.234,eb:33:2e:f9:57:b5, 2085-97-40 00:31:00:2055,0.02,0.015,1.004,-0.061,-0.122,-0.244,0.928,-1.285,-122.476
 15:37:02.234,eb:33:2e:f9:57:b5, 2085-97-39 00:27:00:2059,0.02,0.014,1.004,-0.122,-0.183,-0.366,0.928,-1.285,-122.476
 15:37:02.234,eb:33:2e:f9:57:b5, 2085-97-42 00:29:00:2060,0.02,0.013,1.006,0,-0.183,-0.244,0.928,-1.285,-122.476
 15:37:02.264,eb:33:2e:f9:57:b5, 2085-97-39 00:29:00:2057,0.018,0.014,1.006,0.061,-0.122,-0.305,0.928,-1.285,-122.476
 15:37:02.264,eb:33:2e:f9:57:b5, 2085-97-35 00:28:00:2055,0.018,0.013,1.004,0.122,-0.122,-0.244,0.928,-1.285,-122.476
 15:37:02.264,eb:33:2e:f9:57:b5, 2085-97-37 00:27:00:2057,0.019,0.014,1.004,0.061,-0.183,-0.183,0.928,-1.285,-122.476
 15:37:02.264,eb:33:2e:f9:57:b5, 2085-97-38 00:31:00:2055,0.02,0.015,1.004,0.061,-0.183,-0.122,0.928,-1.285,-122.476
 15:37:02.293,eb:33:2e:f9:57:b5, 2085-97-40 00:29:00:2056,0.02,0.015,1.004,0.061,-0.183,-0.183,0.928,-1.285,-122.476
 15:37:02.293,eb:33:2e:f9:57:b5, 2085-97-41 00:28:00:2060,0.021,0.015,1.004,0.061,-0.183,-0.244,0.928,-1.285,-122.476
 15:37:02.293,eb:33:2e:f9:57:b5, 2085-97-42 00:29:00:2056,0.019,0.014,1.004,0.122,-0.061,-0.244,0.928,-1.285,-122.476
 15:37:02.293,eb:33:2e:f9:57:b5, 2085-97-37 00:32:00:2054,0.017,0.016,1.003,0,-0.122,-0.366,0.928,-1.285,-122.476
 15:37:02.356,eb:33:2e:f9:57:b5, 2085-97-27 00:30:00:2047,0.015,0.015,1.002,0,-0.061,-0.305,0.928,-1.291,-122.476
 15:37:02.356,eb:33:2e:f9:57:b5, 2085-97-62 00:35:00:2064,0.029,0.017,0.999,-0.244,-0.732,-0.244,0.928,-1.291,-122.476
 15:37:02.356,eb:33:2e:f9:57:b5, 2085-97-44 00:29:00:2062,0.013,0.014,1.009,-0.122,0.122,-0.671,0.928,-1.291,-122.476
 15:37:02.356,eb:33:2e:f9:57:b5, 2085-97-23 00:29:00:2049,0.016,0.012,1.001,0,0,-0.61,0.928,-1.291,-122.476
 15:37:02.385,eb:33:2e:f9:57:b5, 2085-97-33 00:28:00:2054,0.024,0.014,1.002,-0.183,-0.183,-0.183,0.934,-1.291,-122.476
 15:37:02.385,eb:33:2e:f9:57:b5, 2085-97-51 00:25:00:2068,0.024,0.013,1.008,0,-0.305,-0.122,0.934,-1.291,-122.476
 15:37:02.385,eb:33:2e:f9:57:b5, 2085-97-39 00:27:00:2059,0.016,0.014,1.009,0.244,0.061,-0.183,0.934,-1.291,-122.476
 15:37:02.385,eb:33:2e:f9:57:b5, 2085-97-40 00:31:00:2054,0.021,0.014,1.003,0.183,-0.061,-0.183,0.934,-1.291,-122.476
 15:37:02.415,eb:33:2e:f9:57:b5, 2085-97-43 00:32:00:2058,0.02,0.015,1.005,0.183,-0.061,-0.122,0.934,-1.291,-122.476
 15:37:02.415,eb:33:2e:f9:57:b5, 2085-97-37 00:33:00:2052,0.018,0.016,1.003,0.061,0,-0.305,0.934,-1.291,-122.476
 15:37:02.415,eb:33:2e:f9:57:b5, 2085-97-43 00:30:00:2055,0.023,0.015,1.002,0,0,-0.183,0.934,-1.291,-122.476
 15:37:02.415,eb:33:2e:f9:57:b5, 2085-97-33 00:31:00:2054,0.017,0.015,1.005,0,0,-0.305,0.934,-1.291,-122.476
 15:37:02.476,eb:33:2e:f9:57:b5, 2085-97-40 00:31:00:2052,0.017,0.017,1.002,0,-0.183,-0.427,0.934,-1.291,-122.476
 15:37:02.476,eb:33:2e:f9:57:b5, 2085-97-42 00:29:00:2056,0.02,0.015,1.003,-0.122,-0.183,-0.305,0.934,-1.291,-122.476
 15:37:02.476,eb:33:2e:f9:57:b5, 2085-97-39 00:27:00:2059,0.017,0.014,1.005,0,-0.061,-0.122,0.934,-1.291,-122.476
 15:37:02.476,eb:33:2e:f9:57:b5, 2085-97-34 00:27:00:2056,0.018,0.014,1.002,0,-0.122,0,0.934,-1.291,-122.476
 15:37:02.504,eb:33:2e:f9:57:b5, 2085-97-41 00:29:00:2059,0.021,0.013,1.005,0.122,-0.122,0.305,0.934,-1.291,-122.476
 15:37:02.504,eb:33:2e:f9:57:b5, 2085-97-40 00:31:00:2056,0.019,0.015,1.004,0.183,-0.061,0.305,0.934,-1.291,-122.476
 15:37:02.504,eb:33:2e:f9:57:b5, 2085-97-39 00:28:00:2056,0.021,0.015,1.003,0.183,-0.122,0.183,0.934,-1.291,-122.476
 15:37:02.505,eb:33:2e:f9:57:b5, 2085-97-43 00:33:00:2056,0.022,0.015,1.003,0.183,-0.183,0.244,0.934,-1.291,-122.476
 15:37:02.534,eb:33:2e:f9:57:b5, 2085-97-42 00:30:00:2059,0.021,0.016,1.004,0.183,-0.183,0.061,0.934,-1.291,-122.476
 15:37:02.534,eb:33:2e:f9:57:b5, 2085-97-41 00:30:00:2057,0.02,0.015,1.006,0.244,0,0.061,0.934,-1.291,-122.476
 15:37:02.534,eb:33:2e:f9:57:b5, 2085-97-38 00:31:00:2053,0.018,0.016,1.004,0.244,-0.122,0,0.934,-1.291,-122.476
 15:37:02.534,eb:33:2e:f9:57:b5, 2085-97-39 00:32:00:2053,0.019,0.015,1.001,0.183,-0.244,0,0.934,-1.291,-122.476
 15:37:02.594,eb:33:2e:f9:57:b5, 2085-97-38 00:30:00:2055,0.021,0.014,1.003,0,-0.244,0,0.934,-1.291,-122.476
 15:37:02.594,eb:33:2e:f9:57:b5, 2085-97-40 00:32:00:2056,0.02,0.015,1.004,0.061,-0.244,0.122,0.934,-1.291,-122.476
 15:37:02.594,eb:33:2e:f9:57:b5, 2085-97-41 00:29:00:2057,0.02,0.016,1.004,0,-0.305,0.122,0.934,-1.291,-122.476
 15:37:02.594,eb:33:2e:f9:57:b5, 2085-97-43 00:33:00:2056,0.021,0.014,1.004,0.122,-0.366,0.305,0.934,-1.291,-122.476
 15:37:02.624,eb:33:2e:f9:57:b5, 2085-97-42 00:30:00:2055,0.02,0.016,1.003,0,-0.244,0.305,0.939,-1.291,-122.476
 15:37:02.624,eb:33:2e:f9:57:b5, 2085-97-42 00:29:00:2057,0.021,0.014,1.004,0,-0.244,0.305,0.939,-1.291,-122.47
 15:37:02.624,eb:33:2e:f9:57:b5, 2085-97-44 00:32:00:2055,0.021,0.016,1.004,0.061,-0.122,0.427,0.939,-1.291,-122.47
 15:37:02.624,eb:33:2e:f9:57:b5, 2085-97-41 00:30:00:2053,0.021,0.016,1.004,0,-0.061,0.305,0.939,-1.291,-122.47
 15:37:02.685,eb:33:2e:f9:57:b5, 2085-97-43 00:32:00:2056,0.021,0.015,1.003,-0.061,-0.061,0.366,0.939,-1.291,-122.47
 15:37:02.685,eb:33:2e:f9:57:b5, 2085-97-43 00:32:00:2054,0.021,0.015,1.002,-0.061,0,0.427,0.939,-1.291,-122.47
 15:37:02.685,eb:33:2e:f9:57:b5, 2085-97-42 00:30:00:2056,0.021,0.016,1.003,-0.122,0,0.427,0.939,-1.291,-122.47
 15:37:02.685,eb:33:2e:f9:57:b5, 2085-97-43 00:32:00:2052,0.021,0.015,1.003,-0.244,0,0.366,0.939,-1.291,-122.47
 15:37:02.715,eb:33:2e:f9:57:b5, 2085-97-42 00:31:00:2056,0.019,0.017,1.003,-0.366,0.061,0.305,0.939,-1.291,-122.47
 15:37:02.715,eb:33:2e:f9:57:b5, 2085-97-41 00:31:00:2055,0.02,0.014,1.003,-0.305,0.061,0.427,0.939,-1.291,-122.47
 15:37:02.715,eb:33:2e:f9:57:b5, 2085-97-43 00:29:00:2055,0.021,0.015,1.002,-0.427,0,0.366,0.939,-1.296,-122.47
 15:37:02.715,eb:33:2e:f9:57:b5, 2085-97-43 00:29:00:2058,0.02,0.014,1.004,-0.427,0.061,0.366,0.939,-1.296,-122.47
 15:37:02.745,eb:33:2e:f9:57:b5, 2085-97-41 00:29:00:2057,0.021,0.014,1.005,-0.366,0.061,0.427,0.939,-1.296,-122.47
 15:37:02.745,eb:33:2e:f9:57:b5, 2085-97-45 00:29:00:2059,0.021,0.015,1.005,-0.244,0.061,0.427,0.939,-1.296,-122.47
 15:37:02.745,eb:33:2e:f9:57:b5, 2085-97-45 00:28:00:2059,0.022,0.014,1.006,-0.183,0.061,0.488,0.939,-1.296,-122.47
 15:37:02.745,eb:33:2e:f9:57:b5, 2085-97-42 00:30:00:2057,0.021,0.014,1.004,-0.122,0.061,0.366,0.939,-1.296,-122.47
 15:37:02.804,eb:33:2e:f9:57:b5, 2085-97-43 00:29:00:2056,0.021,0.015,1.004,-0.122,0,0.244,0.939,-1.296,-122.47
 15:37:02.804,eb:33:2e:f9:57:b5, 2085-97-43 00:30:00:2057,0.021,0.015,1.004,-0.061,0,0.122,0.939,-1.296,-122.47
 15:37:02.804,eb:33:2e:f9:57:b5, 2085-113-81 00:152:61:-165,0.021,0.015,1.004,0,0.061,0.183,0.939,-1.296,-122.47
 15:37:02.804,eb:33:2e:f9:57:b5, 2085-97-42 00:30:00:2056,0.019,0.015,1.004,-0.061,0,0.122,0.939,-1.296,-122.47
 15:37:02.804,eb:33:2e:f9:57:b5, 2085-97-38 00:27:00:2055,0.018,0.014,1.003,-0.061,0,0.061,0.939,-1.296,-122.47
 15:37:02.834,eb:33:2e:f9:57:b5, 2085-97-36 00:30:00:2053,0.02,0.015,1.002,-0.122,-0.122,0.244,0.939,-1.296,-122.47
 15:37:02.834,eb:33:2e:f9:57:b5, 2085-97-41 00:29:00:2059,0.021,0.014,1.003,-0.061,-0.183,0.366,0.939,-1.296,-122.47
 15:37:02.834,eb:33:2e:f9:57:b5, 2085-97-44 00:30:00:2056,0.02,0.014,1.004,-0.061,-0.244,0.244,0.945,-1.296,-122.47
 15:37:02.834,eb:33:2e:f9:57:b5, 2085-97-44 00:28:00:2059,0.021,0.013,1.005,-0.061,-0.183,0.305,0.945,-1.296,-122.47
 15:37:02.864,eb:33:2e:f9:57:b5, 2085-97-44 00:27:00:2062,0.022,0.013,1.003,0,-0.244,0.305,0.945,-1.296,-122.47
 15:37:02.864,eb:33:2e:f9:57:b5, 2085-97-48 00:30:00:2056,0.024,0.014,1.005,0.061,-0.244,0.183,0.945,-1.296,-122.47
 15:37:02.864,eb:33:2e:f9:57:b5, 2085-97-45 00:30:00:2059,0.02,0.015,1.007,0.061,0,0,0.945,-1.296,-122.47
 15:37:02.864,eb:33:2e:f9:57:b5, 2085-97-43 00:30:00:2055,0.021,0.016,1.003,0,-0.061,-0.061,0.945,-1.296,-122.47
 15:37:02.925,eb:33:2e:f9:57:b5, 2085-97-42 00:28:00:2055,0.021,0.014,1.003,0,-0.061,-0.061,0.945,-1.296,-122.47
 15:37:02.925,eb:33:2e:f9:57:b5, 2085-97-41 00:29:00:2055,0.02,0.014,1.003,0,0,0,0.945,-1.296,-122.47
 15:37:02.925,eb:33:2e:f9:57:b5, 2085-97-42 00:28:00:2056,0.021,0.014,1.004,0,-0.061,0,0.945,-1.302,-122.47
 15:37:02.925,eb:33:2e:f9:57:b5, 2085-97-42 00:28:00:2055,0.021,0.014,1.004,0,-0.122,0.061,0.945,-1.302,-122.47
 15:37:02.955,eb:33:2e:f9:57:b5, 2085-97-43 00:30:00:2057,0.02,0.014,1.004,0.061,-0.122,0,0.945,-1.302,-122.47
 15:37:02.955,eb:33:2e:f9:57:b5, 2085-97-43 00:29:00:2057,0.021,0.015,1.004,0.061,-0.061,0.061,0.945,-1.302,-122.47
 15:37:02.955,eb:33:2e:f9:57:b5, 2085-97-41 00:29:00:2057,0.022,0.013,1.005,0.122,0,0.122,0.945,-1.302,-122.47
 15:37:02.955,eb:33:2e:f9:57:b5, 2085-97-44 00:31:00:2056,0.02,0.015,1.004,0.122,0,0,0.945,-1.302,-122.47
 15:37:02.985,eb:33:2e:f9:57:b5, 2085-97-39 00:29:00:2053,0.019,0.014,1.003,0.122,0,0,0.945,-1.302,-122.47
 15:37:02.985,eb:33:2e:f9:57:b5, 2085-97-40 00:31:00:2054,0.02,0.015,1.002,0.122,0,0.061,0.945,-1.302,-122.47
 15:37:02.985,eb:33:2e:f9:57:b5, 2085-97-40 00:30:00:2052,0.02,0.015,1.003,0,-0.061,0.061,0.945,-1.302,-122.47
 15:37:02.985,eb:33:2e:f9:57:b5, 2085-97-42 00:30:00:2055,0.021,0.015,1.002,-0.122,-0.122,0.122,0.945,-1.302,-122.47
 15:37:03.044,eb:33:2e:f9:57:b5, 2085-97-44 00:28:00:2056,0.022,0.014,1.004,-0.061,-0.061,0.122,0.945,-1.302,-122.47
 15:37:03.044,eb:33:2e:f9:57:b5, 2085-97-46 00:29:00:2060,0.024,0.014,1.006,0,0,0.061,0.945,-1.302,-122.47
 15:37:03.044,eb:33:2e:f9:57:b5, 2085-97-47 00:29:00:2059,0.022,0.015,1.005,0,-0.061,0,0.945,-1.302,-122.47
 15:37:03.044,eb:33:2e:f9:57:b5, 2085-97-43 00:29:00:2056,0.021,0.014,1.006,0,0,-0.122,0.945,-1.302,-122.465
 15:37:03.104,eb:33:2e:f9:57:b5, 2085-97-44 00:29:00:2058,0.021,0.015,1.004,0,-0.122,-0.122,0.945,-1.302,-122.47
 15:37:03.104,eb:33:2e:f9:57:b5, 2085-97-41 00:29:00:2056,0.019,0.014,1.004,0,-0.122,-0.122,0.945,-1.302,-122.465
 15:37:03.104,eb:33:2e:f9:57:b5, 2085-97-41 00:30:00:2054,0.02,0.014,1.003,0.061,-0.122,0,0.945,-1.302,-122.465
 15:37:03.104,eb:33:2e:f9:57:b5, 2085-97-41 00:27:00:2057,0.021,0.014,1.003,0.061,-0.122,0,0.945,-1.302,-122.465
 15:37:03.104,eb:33:2e:f9:57:b5, 2085-97-44 00:29:00:2055,0.021,0.014,1.003,0.061,-0.122,0.061,0.945,-1.307,-122.465
 15:37:03.104,eb:33:2e:f9:57:b5, 2085-97-44 00:33:00:2056,0.022,0.015,1.004,0.061,-0.061,0.061,0.945,-1.307,-122.465
 15:37:03.105,eb:33:2e:f9:57:b5, 2085-97-44 00:30:00:2055,0.021,0.015,1.004,0.061,-0.183,0,0.945,-1.307,-122.465
 15:37:03.105,eb:33:2e:f9:57:b5, 2085-97-43 00:29:00:2056,0.021,0.015,1.004,0,-0.122,-0.061,0.945,-1.307,-122.465
 15:37:03.192,eb:33:2e:f9:57:b5, 2085-97-44 00:29:00:2057,0.021,0.015,1.003,0,-0.183,-0.122,0.945,-1.307,-122.465
 15:37:03.192,eb:33:2e:f9:57:b5, 2085-97-40 00:30:00:2054,0.02,0.015,1.004,0,-0.061,-0.122,0.945,-1.307,-122.465
 15:37:03.192,eb:33:2e:f9:57:b5, 2085-97-43 00:28:00:2056,0.021,0.014,1.004,0,-0.183,-0.122,0.945,-1.307,-122.465
 15:37:03.192,eb:33:2e:f9:57:b5, 2085-97-44 00:29:00:2058,0.023,0.014,1.005,0,-0.183,0,0.945,-1.307,-122.465
 15:37:03.194,eb:33:2e:f9:57:b5, 2085-97-47 00:32:00:2057,0.022,0.015,1.005,0.061,-0.122,0,0.945,-1.307,-122.465
 15:37:03.194,eb:33:2e:f9:57:b5, 2085-97-44 00:31:00:2056,0.021,0.016,1.004,0.061,-0.061,-0.122,0.945,-1.307,-122.465
 15:37:03.194,eb:33:2e:f9:57:b5, 2085-97-43 00:32:00:2056,0.021,0.016,1.003,0,-0.122,-0.183,0.95,-1.307,-122.465
 15:37:03.194,eb:33:2e:f9:57:b5, 2085-97-42 00:32:00:2053,0.021,0.015,1.002,0,-0.061,-0.183,0.95,-1.307,-122.465
 15:37:03.224,eb:33:2e:f9:57:b5, 2085-97-42 00:30:00:2055,0.021,0.015,1.003,-0.061,-0.061,-0.244,0.95,-1.307,-122.465
 15:37:03.224,eb:33:2e:f9:57:b5, 2085-97-39 00:28:00:2056,0.02,0.013,1.004,-0.061,0,-0.122,0.95,-1.307,-122.465
 15:37:03.224,eb:33:2e:f9:57:b5, 2085-97-43 00:30:00:2056,0.021,0.014,1.003,-0.061,-0.061,0,0.95,-1.307,-122.465
 15:37:03.224,eb:33:2e:f9:57:b5, 2085-97-40 00:28:00:2056,0.021,0.014,1.004,0,-0.061,0.061,0.95,-1.307,-122.465
 15:37:03.313,eb:33:2e:f9:57:b5, 2085-97-45 00:29:00:2057,0.021,0.015,1.004,0,-0.122,0.061,0.95,-1.313,-122.465
 15:37:03.313,eb:33:2e:f9:57:b5, 2085-97-43 00:28:00:2057,0.022,0.014,1.005,0,-0.122,0.061,0.95,-1.313,-122.465
 15:37:03.313,eb:33:2e:f9:57:b5, 2085-97-47 00:29:00:2057,0.023,0.015,1.003,0,-0.122,0,0.95,-1.313,-122.465
 15:37:03.313,eb:33:2e:f9:57:b5, 2085-97-48 00:31:00:2058,0.023,0.015,1.005,0,-0.122,0,0.95,-1.313,-122.465
 15:37:03.316,eb:33:2e:f9:57:b5, 2085-97-47 00:31:00:2056,0.022,0.014,1.004,0.061,-0.061,-0.244,0.95,-1.313,-122.465
 15:37:03.316,eb:33:2e:f9:57:b5, 2085-97-45 00:29:00:2057,0.021,0.015,1.004,0.061,-0.061,-0.244,0.95,-1.313,-122.465
 15:37:03.316,eb:33:2e:f9:57:b5, 2085-97-44 00:32:00:2053,0.021,0.015,1.003,0.061,-0.061,-0.122,0.95,-1.313,-122.465
 15:37:03.316,eb:33:2e:f9:57:b5, 2085-97-43 00:29:00:2053,0.021,0.016,1.002,0,-0.061,-0.305,0.95,-1.313,-122.465
 15:37:03.345,eb:33:2e:f9:57:b5, 2085-97-45 00:30:00:2055,0.021,0.014,1.003,-0.061,-0.061,-0.244,0.95,-1.313,-122.465
 15:37:03.345,eb:33:2e:f9:57:b5, 2085-97-44 00:31:00:2052,0.022,0.015,1.002,-0.122,-0.061,-0.183,0.95,-1.313,-122.465
 15:37:03.345,eb:33:2e:f9:57:b5, 2085-97-44 00:31:00:2055,0.021,0.015,1.002,-0.183,-0.061,-0.244,0.95,-1.313,-122.465
 15:37:03.345,eb:33:2e:f9:57:b5, 2085-97-45 00:31:00:2054,0.022,0.014,1.003,-0.244,0,-0.244,0.95,-1.313,-122.465
 15:37:03.404,eb:33:2e:f9:57:b5, 2085-97-45 00:30:00:2055,0.021,0.015,1.002,-0.244,-0.061,-0.244,0.95,-1.313,-122.465
 15:37:03.404,eb:33:2e:f9:57:b5, 2085-97-45 00:25:00:2059,0.022,0.013,1.004,-0.244,-0.061,-0.122,0.95,-1.313,-122.465
 15:37:03.404,eb:33:2e:f9:57:b5, 2085-97-44 00:29:00:2057,0.021,0.013,1.005,-0.122,0,-0.061,0.95,-1.318,-122.465
 15:37:03.404,eb:33:2e:f9:57:b5, 2085-97-43 00:25:00:2057,0.022,0.014,1.005,-0.061,0,0,0.95,-1.318,-122.465
 15:37:03.434,eb:33:2e:f9:57:b5, 2085-97-46 00:27:00:2056,0.021,0.013,1.004,0,-0.122,0.122,0.95,-1.318,-122.465
 15:37:03.434,eb:33:2e:f9:57:b5, 2085-97-44 00:29:00:2055,0.022,0.015,1.003,0,0,0.122,0.95,-1.318,-122.465
 15:37:03.434,eb:33:2e:f9:57:b5, 2085-97-48 00:30:00:2055,0.023,0.015,1.003,0,-0.061,0.061,0.95,-1.318,-122.465
 15:37:03.434,eb:33:2e:f9:57:b5, 2085-97-45 00:31:00:2054,0.021,0.016,1.003,-0.061,-0.061,0,0.95,-1.318,-122.465
 15:37:03.463,eb:33:2e:f9:57:b5, 2085-97-45 00:30:00:2053,0.021,0.014,1.002,-0.061,0,-0.061,0.95,-1.318,-122.465
 15:37:03.463,eb:33:2e:f9:57:b5, 2085-97-42 00:28:00:2055,0.02,0.015,1.003,-0.122,0,0,0.95,-1.318,-122.465
 15:37:03.463,eb:33:2e:f9:57:b5, 2085-97-45 00:29:00:2054,0.022,0.014,1.003,-0.183,-0.061,0,0.95,-1.318,-122.465
 15:37:03.463,eb:33:2e:f9:57:b5, 2085-97-45 00:28:00:2057,0.023,0.014,1.004,-0.122,-0.122,0.061,0.95,-1.318,-122.465
 15:37:03.524,eb:33:2e:f9:57:b5, 2085-97-47 00:27:00:2060,0.024,0.014,1.005,-0.122,-0.122,0.122,0.95,-1.318,-122.465
 15:37:03.524,eb:33:2e:f9:57:b5, 2085-97-48 00:27:00:2059,0.023,0.013,1.005,0,-0.061,0,0.95,-1.318,-122.459
 15:37:03.524,eb:33:2e:f9:57:b5, 2085-97-47 00:28:00:2059,0.024,0.014,1.006,0,-0.061,0,0.95,-1.324,-122.459
 15:37:03.524,eb:33:2e:f9:57:b5, 2085-97-47 00:30:00:2056,0.022,0.014,1.004,0.183,-0.061,0,0.95,-1.324,-122.459
 15:37:03.554,eb:33:2e:f9:57:b5, 2085-97-46 00:30:00:2054,0.022,0.015,1.003,0.122,-0.061,-0.122,0.95,-1.324,-122.459
 15:37:03.554,eb:33:2e:f9:57:b5, 2085-97-44 00:29:00:2056,0.022,0.014,1.003,0,-0.122,-0.122,0.95,-1.324,-122.459
 15:37:03.554,eb:33:2e:f9:57:b5, 2085-97-46 00:29:00:2056,0.022,0.014,1.003,0.061,-0.122,-0.122,0.95,-1.324,-122.459
 15:37:03.554,eb:33:2e:f9:57:b5, 2085-97-44 00:29:00:2055,0.022,0.015,1.004,0,-0.122,-0.183,0.95,-1.324,-122.459
 15:37:03.584,eb:33:2e:f9:57:b5, 2085-97-44 00:29:00:2056,0.021,0.014,1.003,0,-0.122,-0.122,0.956,-1.324,-122.459
 15:37:03.584,eb:33:2e:f9:57:b5, 2085-97-46 00:31:00:2054,0.022,0.015,1.003,0,-0.122,-0.183,0.956,-1.324,-122.459
 15:37:03.584,eb:33:2e:f9:57:b5, 2085-97-45 00:30:00:2054,0.021,0.015,1.002,0,-0.183,-0.183,0.956,-1.324,-122.459
 15:37:03.584,eb:33:2e:f9:57:b5, 2085-97-44 00:29:00:2052,0.021,0.014,1.002,-0.061,-0.183,0,0.956,-1.324,-122.459
 15:37:03.676,eb:33:2e:f9:57:b5, 2085-97-43 00:26:00:2057,0.022,0.014,1.003,-0.122,-0.183,0,0.956,-1.324,-122.459
 15:37:03.676,eb:33:2e:f9:57:b5, 2085-113-58 00:184:222:-5430,0.022,0.013,1.005,0,-0.122,0.122,0.956,-1.324,-122.459
 15:37:03.676,eb:33:2e:f9:57:b5, 2085-97-46 00:27:00:2061,0.023,0.013,1.005,0,-0.122,0.122,0.956,-1.329,-122.459
 15:37:03.676,eb:33:2e:f9:57:b5, 2085-97-47 00:29:00:2058,0.023,0.014,1.006,0.061,-0.122,0.183,0.956,-1.329,-122.459
 15:37:03.676,eb:33:2e:f9:57:b5, 2085-97-46 00:32:00:2053,0.023,0.016,1.004,0.122,-0.061,0.061,0.956,-1.329,-122.459
 15:37:03.676,eb:33:2e:f9:57:b5, 2085-97-46 00:31:00:2053,0.022,0.016,1.003,0.061,-0.122,0,0.956,-1.329,-122.459
 15:37:03.677,eb:33:2e:f9:57:b5, 2085-97-46 00:31:00:2052,0.023,0.015,1.002,-0.061,-0.122,-0.061,0.956,-1.329,-122.459
 15:37:03.677,eb:33:2e:f9:57:b5, 2085-97-44 00:30:00:2053,0.021,0.015,1.002,-0.122,-0.122,-0.061,0.956,-1.329,-122.459
 15:37:03.705,eb:33:2e:f9:57:b5, 2085-97-46 00:29:00:2054,0.023,0.014,1.002,-0.122,-0.305,0,0.956,-1.329,-122.459
 15:37:03.705,eb:33:2e:f9:57:b5, 2085-97-50 00:28:00:2061,0.022,0.013,1.005,-0.122,-0.305,0,0.956,-1.329,-122.459
 15:37:03.705,eb:33:2e:f9:57:b5, 2085-97-47 00:29:00:2056,0.023,0.014,1.005,0,-0.122,0,0.956,-1.329,-122.459
 15:37:03.705,eb:33:2e:f9:57:b5, 2085-97-47 00:31:00:2056,0.024,0.015,1.004,0,-0.061,-0.061,0.956,-1.329,-122.459
 15:37:03.765,eb:33:2e:f9:57:b5, 2085-97-47 00:29:00:2055,0.022,0.015,1.004,0,0,-0.122,0.956,-1.329,-122.459
 15:37:03.765,eb:33:2e:f9:57:b5, 2085-97-45 00:29:00:2054,0.023,0.014,1.003,-0.061,-0.061,-0.061,0.956,-1.329,-122.459
 15:37:03.765,eb:33:2e:f9:57:b5, 2085-97-48 00:30:00:2058,0.023,0.014,1.004,-0.122,-0.122,-0.061,0.956,-1.335,-122.459
 15:37:03.765,eb:33:2e:f9:57:b5, 2085-97-47 00:29:00:2055,0.023,0.014,1.004,-0.122,-0.061,-0.183,0.956,-1.335,-122.459
 15:37:03.793,eb:33:2e:f9:57:b5, 2085-97-48 00:29:00:2056,0.023,0.015,1.003,-0.183,-0.061,-0.366,0.956,-1.335,-122.459
 15:37:03.793,eb:33:2e:f9:57:b5, 2085-97-46 00:28:00:2054,0.023,0.014,1.003,-0.183,-0.122,-0.427,0.956,-1.335,-122.459
 15:37:03.793,eb:33:2e:f9:57:b5, 2085-97-46 00:28:00:2058,0.024,0.015,1.004,-0.244,-0.122,-0.488,0.956,-1.335,-122.459
 15:37:03.793,eb:33:2e:f9:57:b5, 2085-97-50 00:25:00:2062,0.024,0.012,1.005,-0.061,-0.122,-0.366,0.956,-1.335,-122.459
 15:37:03.825,eb:33:2e:f9:57:b5, 2085-97-51 00:28:00:2059,0.024,0.013,1.005,0,-0.183,-0.366,0.956,-1.335,-122.459
 15:37:03.825,eb:33:2e:f9:57:b5, 2085-97-49 00:29:00:2058,0.024,0.014,1.004,0,-0.183,-0.549,0.956,-1.335,-122.459
 15:37:03.825,eb:33:2e:f9:57:b5, 2085-97-48 00:31:00:2054,0.024,0.015,1.004,0.122,-0.122,-0.488,0.956,-1.335,-122.459
 15:37:03.825,eb:33:2e:f9:57:b5, 2085-97-48 00:33:00:2052,0.021,0.016,1.002,0,-0.122,-0.671,0.956,-1.335,-122.459
 15:37:03.884,eb:33:2e:f9:57:b5, 2085-97-45 00:33:00:2051,0.022,0.017,1.001,-0.183,-0.061,-0.854,0.956,-1.34,-122.459
 15:37:03.884,eb:33:2e:f9:57:b5, 2085-97-42 00:31:00:2051,0.021,0.015,1.001,-0.427,0,-0.854,0.956,-1.34,-122.459
 15:37:03.884,eb:33:2e:f9:57:b5, 2085-97-44 00:26:00:2056,0.022,0.014,1.002,-0.488,0,-0.793,0.956,-1.34,-122.459
 15:37:03.884,eb:33:2e:f9:57:b5, 2085-97-45 00:26:00:2059,0.022,0.013,1.004,-0.488,0,-0.549,0.956,-1.34,-122.459
 15:37:03.914,eb:33:2e:f9:57:b5, 2085-97-48 00:27:00:2061,0.024,0.013,1.006,-0.305,-0.061,-0.549,0.956,-1.34,-122.459
 15:37:03.914,eb:33:2e:f9:57:b5, 2085-97-50 00:28:00:2061,0.024,0.013,1.005,-0.183,-0.122,-0.427,0.956,-1.34,-122.459
 15:37:03.914,eb:33:2e:f9:57:b5, 2085-97-47 00:27:00:2057,0.021,0.012,1.005,0,-0.122,-0.427,0.956,-1.34,-122.459
 15:37:03.914,eb:33:2e:f9:57:b5, 2085-97-49 00:31:00:2058,0.026,0.013,1.003,0,-0.122,-0.305,0.956,-1.34,-122.459
 15:37:03.945,eb:33:2e:f9:57:b5, 2085-97-52 00:28:00:2062,0.021,0.014,1.006,0,-0.061,-0.488,0.956,-1.34,-122.459
 15:37:03.945,eb:33:2e:f9:57:b5, 2085-97-42 00:26:00:2056,0.024,0.012,1.005,0.122,0,-0.427,0.956,-1.34,-122.454
 15:37:03.945,eb:33:2e:f9:57:b5, 2085-97-50 00:26:00:2058,0.023,0.014,1.004,0.183,-0.183,-0.488,0.956,-1.346,-122.454
 15:37:03.945,eb:33:2e:f9:57:b5, 2085-97-50 00:28:00:2059,0.021,0.015,1.003,0.183,-0.061,-0.427,0.956,-1.346,-122.454
 15:37:04.034,eb:33:2e:f9:57:b5, 2085-97-40 00:31:00:2049,0.016,0.014,1.001,0.183,0.183,-0.122,0.956,-1.346,-122.454
 15:37:04.034,eb:33:2e:f9:57:b5, 2085-97-26 00:29:00:2038,0.021,0.014,0.997,-0.061,0.122,0.061,0.956,-1.346,-122.454
 15:37:04.034,eb:33:2e:f9:57:b5, 2085-97-58 00:29:00:2058,0.027,0.016,0.999,-0.305,-0.183,0.366,0.956,-1.346,-122.454
 15:37:04.034,eb:33:2e:f9:57:b5, 2085-97-58 00:27:00:2065,0.021,0.012,1.007,-0.244,0.366,0.488,0.956,-1.346,-122.454
 15:37:04.037,eb:33:2e:f9:57:b5, 2085-97-46 00:30:00:2057,0.027,0.013,1.004,-0.061,0.488,0.427,0.956,-1.346,-122.454
 15:37:04.037,eb:33:2e:f9:57:b5, 2085-97-51 00:25:00:2061,0.025,0.015,1.006,-0.061,0.488,0.244,0.956,-1.346,-122.454
 15:37:04.037,eb:33:2e:f9:57:b5, 2085-97-51 00:29:00:2060,0.023,0.013,1.007,0,0.549,0.244,0.956,-1.346,-122.454
 15:37:04.037,eb:33:2e:f9:57:b5, 2085-97-46 00:28:00:2057,0.021,0.014,1.004,0.061,0.671,0.061,0.956,-1.346,-122.454
 15:37:04.066,eb:33:2e:f9:57:b5, 2085-97-43 00:26:00:2055,0.021,0.013,1.003,0,0.61,0.183,0.956,-1.351,-122.454
 15:37:04.066,eb:33:2e:f9:57:b5, 2085-97-44 00:28:00:2055,0.022,0.013,1.003,0.061,0.793,0.366,0.956,-1.351,-122.454
 15:37:04.067,eb:33:2e:f9:57:b5, 2085-97-43 00:25:00:2057,0.02,0.014,1.004,0.122,0.732,0.427,0.956,-1.351,-122.454
 15:37:04.067,eb:33:2e:f9:57:b5, 2085-97-46 00:26:00:2059,0.023,0.013,1.005,0.122,0.671,0.61,0.956,-1.351,-122.454
 15:37:04.125,eb:33:2e:f9:57:b5, 2085-97-51 00:30:00:2059,0.024,0.014,1.005,0.244,0.61,0.671,0.956,-1.351,-122.454
 15:37:04.125,eb:33:2e:f9:57:b5, 2085-97-43 00:27:00:2054,0.022,0.014,1.005,0.366,0.671,0.427,0.956,-1.351,-122.454
 15:37:04.125,eb:33:2e:f9:57:b5, 2085-97-48 00:26:00:2057,0.023,0.014,1.004,0.366,0.549,0.488,0.956,-1.351,-122.454
 15:37:04.125,eb:33:2e:f9:57:b5, 2085-97-49 00:28:00:2058,0.023,0.013,1.004,0.366,0.549,0.61,0.956,-1.351,-122.454
 15:37:04.154,eb:33:2e:f9:57:b5, 2085-97-45 00:28:00:2057,0.022,0.014,1.005,0.427,0.549,0.549,0.956,-1.351,-122.454
 15:37:04.154,eb:33:2e:f9:57:b5, 2085-97-42 00:27:00:2057,0.022,0.013,1.005,0.488,0.61,0.61,0.956,-1.351,-122.454
 15:37:04.154,eb:33:2e:f9:57:b5, 2085-97-44 00:29:00:2056,0.019,0.015,1.004,0.549,0.549,0.61,0.956,-1.351,-122.454
 15:37:04.154,eb:33:2e:f9:57:b5, 2085-97-40 00:32:00:2054,0.022,0.014,1.003,0.488,0.549,0.61,0.956,-1.351,-122.454
 15:37:04.214,eb:33:2e:f9:57:b5, 2085-97-43 00:30:00:2053,0.02,0.015,1.003,0.427,0.549,0.488,0.956,-1.351,-122.454
 15:37:04.214,eb:33:2e:f9:57:b5, 2085-97-37 00:29:00:2054,0.017,0.015,1.002,0.366,0.427,0.488,0.956,-1.351,-122.454
 15:37:04.214,eb:33:2e:f9:57:b5, 2085-97-38 00:29:00:2055,0.02,0.014,1.002,0.366,0.244,0.793,0.956,-1.357,-122.454
 15:37:04.214,eb:33:2e:f9:57:b5, 2085-97-45 00:29:00:2058,0.022,0.014,1.003,0.366,0.061,0.854,0.956,-1.357,-122.454
 15:37:04.244,eb:33:2e:f9:57:b5, 2085-97-45 00:26:00:2062,0.024,0.013,1.006,0.488,0,0.916,0.956,-1.357,-122.454
 15:37:04.244,eb:33:2e:f9:57:b5, 2085-97-54 00:31:00:2063,0.026,0.014,1.008,0.793,-0.122,0.793,0.956,-1.357,-122.454
 15:37:04.244,eb:33:2e:f9:57:b5, 2085-97-50 00:30:00:2066,0.022,0.016,1.008,0.916,-0.183,0.244,0.956,-1.357,-122.454
 15:37:04.244,eb:33:2e:f9:57:b5, 2085-97-41 00:29:00:2061,0.02,0.012,1.009,1.221,-0.183,0.061,0.956,-1.357,-122.454
 15:37:04.275,eb:33:2e:f9:57:b5, 2085-97-43 00:35:00:2055,0.02,0.015,1.004,1.282,-0.488,-0.122,0.956,-1.357,-122.454
 15:37:04.275,eb:33:2e:f9:57:b5, 2085-97-38 00:32:00:2049,0.018,0.016,1.002,1.221,-0.488,-0.183,0.956,-1.357,-122.454
 15:37:04.275,eb:33:2e:f9:57:b5, 2085-97-39 00:33:00:2047,0.019,0.017,1,1.099,-0.671,0,0.956,-1.357,-122.454
 15:37:04.275,eb:33:2e:f9:57:b5, 2085-97-43 00:35:00:2050,0.018,0.017,0.999,0.854,-0.793,0,0.956,-1.357,-122.454
 15:37:04.334,eb:33:2e:f9:57:b5, 2085-97-35 00:33:00:2049,0.02,0.016,1.001,0.854,-0.671,0.305,0.961,-1.357,-122.454
 15:37:04.334,eb:33:2e:f9:57:b5, 2085-97-49 00:35:00:2054,0.027,0.016,1.001,0.732,-1.099,0.488,0.961,-1.357,-122.454
 15:37:04.334,eb:33:2e:f9:57:b5, 2085-97-56 00:33:00:2063,0.021,0.017,1.005,0.671,-1.099,0.366,0.961,-1.357,-122.454
 15:37:04.334,eb:33:2e:f9:57:b5, 2085-97-38 00:33:00:2053,0.023,0.016,1.004,0.793,-0.854,0.488,0.961,-1.357,-122.454
 15:37:04.334,eb:33:2e:f9:57:b5, 2085-97-57 00:40:00:2059,0.027,0.018,1.004,0.732,-1.282,0.427,0.961,-1.357,-122.454
 15:37:04.364,eb:33:2e:f9:57:b5, 2085-113-58 00:94:222:-5400,0.022,0.02,1.003,0.671,-0.916,0.061,0.961,-1.357,-122.454
 15:37:04.364,eb:33:2e:f9:57:b5, 2085-97-54 00:39:00:2055,0.026,0.018,1.004,0.671,-0.793,0.061,0.961,-1.357,-122.454
 15:37:04.364,eb:33:2e:f9:57:b5, 2085-97-43 00:41:00:2042,0.019,0.018,1.005,0.488,-0.549,-0.122,0.961,-1.357,-122.454
 15:37:04.364,eb:33:2e:f9:57:b5, 2085-97-41 00:37:00:2046,0.024,0.018,1.002,0.366,-0.732,-0.061,0.961,-1.357,-122.454
 15:37:04.396,eb:33:2e:f9:57:b5, 2085-97-56 00:36:00:2057,0.027,0.018,1.002,0.183,-0.916,0,0.961,-1.357,-122.454
 15:37:04.396,eb:33:2e:f9:57:b5, 2085-97-51 00:33:00:2059,0.021,0.017,1.006,0.244,-0.549,0,0.961,-1.357,-122.454
 15:37:04.396,eb:33:2e:f9:57:b5, 2085-97-43 00:35:00:2052,0.022,0.017,1.003,0.366,-0.61,0.122,0.961,-1.362,-122.454
 15:37:04.396,eb:33:2e:f9:57:b5, 2085-97-53 00:35:00:2060,0.028,0.018,1.004,0.366,-0.854,0.122,0.961,-1.362,-122.454
 15:37:04.454,eb:33:2e:f9:57:b5, 2085-97-54 00:33:00:2063,0.025,0.016,1.008,0.549,-0.671,0.244,0.967,-1.362,-122.454
 15:37:04.454,eb:33:2e:f9:57:b5, 2085-97-55 00:38:00:2057,0.025,0.017,1.006,0.671,-0.671,0.061,0.967,-1.362,-122.448
 15:37:04.454,eb:33:2e:f9:57:b5, 2085-97-52 00:38:00:2052,0.024,0.019,1.002,0.671,-0.549,-0.122,0.967,-1.362,-122.454
 15:37:04.454,eb:33:2e:f9:57:b5, 2085-97-51 00:40:00:2049,0.023,0.02,1.002,0.488,-0.488,-0.305,0.967,-1.362,-122.448
 15:37:04.484,eb:33:2e:f9:57:b5, 2085-97-49 00:41:00:2046,0.025,0.021,1,0.183,-0.305,-0.305,0.967,-1.362,-122.448
 15:37:04.484,eb:33:2e:f9:57:b5, 2085-97-50 00:39:00:2050,0.024,0.02,1.001,-0.061,-0.183,-0.244,0.967,-1.362,-122.448
 15:37:04.484,eb:33:2e:f9:57:b5, 2085-97-53 00:39:00:2054,0.027,0.019,1.002,-0.183,-0.122,-0.183,0.967,-1.368,-122.448
 15:37:04.484,eb:33:2e:f9:57:b5, 2085-97-57 00:37:00:2060,0.024,0.019,1.005,-0.183,-0.061,-0.366,0.967,-1.368,-122.448
 15:37:04.514,eb:33:2e:f9:57:b5, 2085-97-39 00:38:00:2050,0.021,0.018,1.006,-0.061,0.122,-0.183,0.972,-1.368,-122.448
 15:37:04.514,eb:33:2e:f9:57:b5, 2085-97-48 00:35:00:2057,0.027,0.019,1.003,-0.122,-0.183,-0.061,0.972,-1.368,-122.448
 15:37:04.514,eb:33:2e:f9:57:b5, 2085-97-53 00:35:00:2063,0.025,0.017,1.006,0,-0.122,0,0.972,-1.368,-122.448
 15:37:04.514,eb:33:2e:f9:57:b5, 2085-97-53 00:38:00:2059,0.025,0.019,1.006,0.061,-0.122,-0.061,0.972,-1.368,-122.448
 15:37:04.574,eb:33:2e:f9:57:b5, 2085-97-52 00:37:00:2056,0.025,0.019,1.005,0.122,0,-0.244,0.972,-1.368,-122.448
 15:37:04.574,eb:33:2e:f9:57:b5, 2085-97-51 00:39:00:2057,0.023,0.02,1.003,0.183,0,-0.305,0.972,-1.368,-122.448
 15:37:04.574,eb:33:2e:f9:57:b5, 2085-97-46 00:35:00:2056,0.023,0.018,1.004,0.122,0.061,-0.183,0.972,-1.373,-122.448
 15:37:04.574,eb:33:2e:f9:57:b5, 2085-97-49 00:38:00:2053,0.023,0.018,1.004,0.122,0,-0.061,0.972,-1.373,-122.448
 15:37:04.606,eb:33:2e:f9:57:b5, 2085-97-48 00:37:00:2053,0.024,0.019,1.002,0.061,0,-0.122,0.978,-1.373,-122.448
 15:37:04.606,eb:33:2e:f9:57:b5, 2085-97-50 00:39:00:2054,0.026,0.019,1.003,0,0.061,0,0.978,-1.373,-122.448
 15:37:04.606,eb:33:2e:f9:57:b5, 2085-97-54 00:39:00:2056,0.026,0.019,1.003,-0.061,0,-0.061,0.978,-1.373,-122.448
 15:37:04.606,eb:33:2e:f9:57:b5, 2085-97-53 00:39:00:2054,0.025,0.019,1.003,-0.122,0.122,-0.122,0.978,-1.373,-122.448
 15:37:04.664,eb:33:2e:f9:57:b5, 2085-97-53 00:38:00:2056,0.024,0.019,1.003,-0.122,0.122,-0.183,0.978,-1.379,-122.448
 15:37:04.664,eb:33:2e:f9:57:b5, 2085-97-50 00:37:00:2056,0.023,0.019,1.003,-0.183,0.122,-0.244,0.978,-1.379,-122.448
 15:37:04.664,eb:33:2e:f9:57:b5, 2085-97-49 00:34:00:2056,0.024,0.017,1.005,-0.122,0.183,-0.183,0.978,-1.379,-122.448
 15:37:04.664,eb:33:2e:f9:57:b5, 2085-97-47 00:35:00:2056,0.023,0.017,1.004,0,0.183,0,0.978,-1.379,-122.448
 15:37:04.694,eb:33:2e:f9:57:b5, 2085-97-48 00:36:00:2055,0.023,0.017,1.003,0,0.122,0.183,0.983,-1.379,-122.448
 15:37:04.694,eb:33:2e:f9:57:b5, 2085-97-48 00:35:00:2056,0.025,0.017,1.004,0,0.122,0.366,0.983,-1.379,-122.448
 15:37:04.694,eb:33:2e:f9:57:b5, 2085-97-51 00:39:00:2055,0.025,0.018,1.003,0.061,0.061,0.366,0.983,-1.379,-122.448
 15:37:04.694,eb:33:2e:f9:57:b5, 2085-97-50 00:39:00:2056,0.024,0.019,1.004,0.061,0.122,0.305,0.983,-1.379,-122.448
 15:37:04.725,eb:33:2e:f9:57:b5, 2085-97-50 00:39:00:2056,0.025,0.019,1.003,0,0,0.244,0.983,-1.379,-122.448
 15:37:04.725,eb:33:2e:f9:57:b5, 2085-97-48 00:38:00:2053,0.023,0.019,1.002,-0.061,0,0.122,0.983,-1.379,-122.448
 15:37:04.725,eb:33:2e:f9:57:b5, 2085-97-49 00:36:00:2057,0.024,0.018,1.003,-0.061,0.061,0.183,0.983,-1.384,-122.448
 15:37:04.725,eb:33:2e:f9:57:b5, 2085-97-48 00:37:00:2054,0.022,0.018,1.003,-0.061,0.122,0.366,0.983,-1.384,-122.448
 15:37:04.755,eb:33:2e:f9:57:b5, 2085-97-46 00:36:00:2054,0.023,0.018,1.003,0,0,0.427,0.989,-1.384,-122.448
 15:37:04.755,eb:33:2e:f9:57:b5, 2085-97-47 00:37:00:2053,0.024,0.018,1.003,-0.122,0,0.671,0.989,-1.384,-122.448
 15:37:04.755,eb:33:2e:f9:57:b5, 2085-97-49 00:37:00:2057,0.025,0.019,1.003,-0.122,-0.061,0.732,0.989,-1.384,-122.448
 15:37:04.755,eb:33:2e:f9:57:b5, 2085-97-53 00:37:00:2055,0.025,0.018,1.004,-0.122,-0.061,0.793,0.989,-1.384,-122.448
 15:37:04.814,eb:33:2e:f9:57:b5, 2085-97-56 00:39:00:2059,0.032,0.019,1.003,-0.061,-0.122,0.793,0.989,-1.384,-122.448
 15:37:04.814,eb:33:2e:f9:57:b5, 2085-97-70 00:39:00:2066,0.021,0.018,1.008,0,0,0.305,0.989,-1.384,-122.448
 15:37:04.814,eb:33:2e:f9:57:b5, 2085-97-14 00:38:00:2034,0.016,0.017,1.002,0.061,0.61,0.427,0.989,-1.39,-122.448
 15:37:04.814,eb:33:2e:f9:57:b5, 2085-97-66 00:39:00:2056,0.04,0.018,0.999,-0.244,-0.793,0.61,0.989,-1.39,-122.448
 15:37:04.904,eb:33:2e:f9:57:b5, 2085-97-36 00:31:00:2051,0.02,0.017,1.015,-0.122,0.305,0.305,0.994,-1.39,-122.448
 15:37:04.904,eb:33:2e:f9:57:b5, 2085-97-65 00:37:00:2064,0.026,0.021,0.998,-0.122,-0.916,0.244,0.994,-1.39,-122.448
 15:37:04.904,eb:33:2e:f9:57:b5, 2085-97-63 00:34:00:2066,0.027,0.016,1.006,0,-0.671,0.122,0.994,-1.39,-122.448
 15:37:04.904,eb:33:2e:f9:57:b5, 2085-97-57 00:37:00:2059,0.025,0.018,1.006,0.122,-0.366,0.061,0.994,-1.39,-122.448
 15:37:04.906,eb:33:2e:f9:57:b5, 2085-97-47 00:36:00:2053,0.025,0.018,1.004,0.183,-0.488,-0.244,0.994,-1.39,-122.448
 15:37:04.906,eb:33:2e:f9:57:b5, 2085-97-51 00:38:00:2052,0.025,0.019,1.002,0.061,-0.549,-0.244,0.994,-1.39,-122.448
 15:37:04.906,eb:33:2e:f9:57:b5, 2085-97-51 00:38:00:2052,0.026,0.018,1.002,0,-0.549,-0.305,0.994,-1.395,-122.448
 15:37:04.906,eb:33:2e:f9:57:b5, 2085-97-55 00:39:00:2054,0.027,0.019,1.002,-0.122,-0.61,-0.305,0.994,-1.395,-122.448
 15:37:04.935,eb:33:2e:f9:57:b5, 2085-97-58 00:39:00:2054,0.028,0.02,1.003,-0.244,-0.488,-0.549,0.994,-1.395,-122.448
 15:37:04.935,eb:33:2e:f9:57:b5, 2085-113-58 00:18:223:-5505,0.029,0.02,1.002,-0.427,-0.488,-0.732,0.994,-1.395,-122.448
 15:37:04.935,eb:33:2e:f9:57:b5, 2085-97-50 00:33:00:2056,0.029,0.022,1,-0.549,-0.549,-0.916,1,-1.395,-122.448
 15:37:04.935,eb:33:2e:f9:57:b5, 2085-97-61 00:37:00:2062,0.026,0.019,1.006,-0.549,-0.366,-1.038,1,-1.395,-122.448
 15:37:04.964,eb:33:2e:f9:57:b5, 2085-97-57 00:38:00:2056,0.028,0.017,1.005,-0.427,-0.122,-1.099,1,-1.401,-122.448
 15:37:04.964,eb:33:2e:f9:57:b5, 2085-97-51 00:39:00:2051,0.025,0.021,1.002,-0.671,0,-1.343,1,-1.401,-122.448
 15:37:04.964,eb:33:2e:f9:57:b5, 2085-97-53 00:38:00:2053,0.024,0.018,1.002,-0.732,0,-1.282,1,-1.401,-122.448
 15:37:04.964,eb:33:2e:f9:57:b5, 2085-97-52 00:37:00:2054,0.026,0.019,1.001,-0.854,0.122,-1.221,1,-1.401,-122.448
 15:37:04.994,eb:33:2e:f9:57:b5, 2085-97-52 00:33:00:2057,0.023,0.017,1.004,-0.977,0.244,-1.282,1,-1.401,-122.448
 15:37:04.994,eb:33:2e:f9:57:b5, 2085-97-52 00:35:00:2055,0.028,0.017,1.003,-0.916,0.305,-0.916,1,-1.401,-122.448
 15:37:04.994,eb:33:2e:f9:57:b5, 2085-97-54 00:31:00:2060,0.021,0.017,1.005,-0.916,0.366,-1.038,1.005,-1.406,-122.448
 15:37:04.994,eb:33:2e:f9:57:b5, 2085-97-41 00:29:00:2055,0.023,0.014,1.003,-0.732,0.61,-0.671,1.005,-1.406,-122.448
 15:37:05.054,eb:33:2e:f9:57:b5, 2085-97-50 00:28:00:2060,0.023,0.015,1.004,-0.61,0.427,-0.305,1.005,-1.406,-122.448
 15:37:05.054,eb:33:2e:f9:57:b5, 2085-97-45 00:29:00:2056,0.018,0.014,1.004,-0.427,0.549,0.061,1.005,-1.406,-122.443
 15:37:05.054,eb:33:2e:f9:57:b5, 2085-97-46 00:35:00:2053,0.031,0.014,1.001,-0.305,0.549,0.61,1.005,-1.406,-122.443
 15:37:05.054,eb:33:2e:f9:57:b5, 2085-97-65 00:33:00:2061,0.028,0.016,1.007,-0.305,0.488,0.427,1.005,-1.406,-122.443
 15:37:05.085,eb:33:2e:f9:57:b5, 2085-97-38 00:34:00:2046,0.018,0.016,1.006,-0.122,0.916,0.427,1.005,-1.406,-122.443
 15:37:05.085,eb:33:2e:f9:57:b5, 2085-97-56 00:40:00:2053,0.032,0.019,0.998,-0.366,0.366,0.549,1.005,-1.406,-122.443
 15:37:05.085,eb:33:2e:f9:57:b5, 2085-97-57 00:31:00:2062,0.021,0.017,1.007,-0.549,0.916,0.366,1.005,-1.412,-122.443
 15:37:05.085,eb:33:2e:f9:57:b5, 2085-97-39 00:35:00:2046,0.018,0.016,1.002,-0.488,1.099,0.427,1.005,-1.412,-122.443
 15:37:05.113,eb:33:2e:f9:57:b5, 2085-97-51 00:35:00:2052,0.027,0.016,0.998,-0.671,0.854,0.793,1.005,-1.412,-122.443
 15:37:05.113,eb:33:2e:f9:57:b5, 2085-97-49 00:29:00:2058,0.023,0.014,1.007,-0.671,1.099,0.916,1.005,-1.412,-122.443
 15:37:05.113,eb:33:2e:f9:57:b5, 2085-97-46 00:29:00:2057,0.023,0.015,1.004,-0.549,1.099,1.038,1.005,-1.412,-122.443
 15:37:05.113,eb:33:2e:f9:57:b5, 2085-97-47 00:32:00:2052,0.025,0.014,1.004,-0.549,1.038,1.16,1.005,-1.412,-122.443
 15:37:05.174,eb:33:2e:f9:57:b5, 2085-97-54 00:32:00:2059,0.026,0.017,1.002,-0.61,0.854,1.038,1.005,-1.412,-122.443
 15:37:05.174,eb:33:2e:f9:57:b5, 2085-97-52 00:32:00:2059,0.023,0.016,1.005,-0.61,1.16,0.916,1.005,-1.412,-122.443
 15:37:05.174,eb:33:2e:f9:57:b5, 2085-97-48 00:32:00:2056,0.022,0.016,1.003,-0.61,1.16,0.732,1.005,-1.412,-122.443
 15:37:05.174,eb:33:2e:f9:57:b5, 2085-97-50 00:32:00:2057,0.025,0.016,1.003,-0.671,1.099,0.61,1.005,-1.412,-122.443
 15:37:05.205,eb:33:2e:f9:57:b5, 2085-97-54 00:27:00:2066,0.026,0.015,1.006,-0.61,1.221,0.549,1.005,-1.417,-122.443
 15:37:05.205,eb:33:2e:f9:57:b5, 2085-97-50 00:32:00:2058,0.02,0.014,1.006,-0.366,1.221,0.427,1.005,-1.417,-122.443
 15:37:05.205,eb:33:2e:f9:57:b5, 2085-97-33 00:32:00:2043,0.021,0.015,1.001,-0.549,1.404,0.305,1.005,-1.417,-122.443
 15:37:05.205,eb:33:2e:f9:57:b5, 2085-97-53 00:33:00:2055,0.022,0.017,0.999,-0.793,0.854,0.244,1.005,-1.417,-122.443
 15:37:05.265,eb:33:2e:f9:57:b5, 2085-97-28 00:22:00:2051,0.017,0.013,1.004,-0.854,1.526,0.427,1.011,-1.417,-122.443
 15:37:05.265,eb:33:2e:f9:57:b5, 2085-97-49 00:29:00:2059,0.028,0.013,1.001,-0.732,0.793,0.793,1.011,-1.417,-122.443
 15:37:05.265,eb:33:2e:f9:57:b5, 2085-97-35 00:23:00:2058,0.02,0.013,1.009,-0.732,1.343,0.793,1.011,-1.417,-122.443
 15:37:05.265,eb:33:2e:f9:57:b5, 2085-97-55 00:29:00:2064,0.023,0.015,1.005,-0.61,0.61,0.671,1.011,-1.417,-122.443
 15:37:05.295,eb:33:2e:f9:57:b5, 2085-97-38 00:28:00:2056,0.021,0.013,1.007,-0.488,1.099,0.671,1.005,-1.417,-122.443
 15:37:05.295,eb:33:2e:f9:57:b5, 2085-97-56 00:29:00:2066,0.019,0.015,1.004,-0.427,0.793,0.549,1.005,-1.417,-122.443
 15:37:05.295,eb:33:2e:f9:57:b5, 2085-97-38 00:26:00:2057,0.023,0.011,1.005,-0.305,1.282,0.61,1.005,-1.417,-122.443
 15:37:05.295,eb:33:2e:f9:57:b5, 2085-97-49 00:27:00:2061,0.021,0.013,1.008,-0.122,1.038,0.488,1.005,-1.417,-122.443
 15:37:05.325,eb:33:2e:f9:57:b5, 2085-97-37 00:28:00:2053,0.018,0.014,1.007,0,1.282,0.427,1.005,-1.417,-122.443
 15:37:05.325,eb:33:2e:f9:57:b5, 2085-97-41 00:32:00:2051,0.019,0.015,1.002,-0.061,1.038,0.366,1.005,-1.417,-122.443
 15:37:05.325,eb:33:2e:f9:57:b5, 2085-97-37 00:28:00:2052,0.017,0.014,1.001,-0.244,1.099,0.366,1.005,-1.417,-122.443
 15:37:05.325,eb:33:2e:f9:57:b5, 2085-97-32 00:28:00:2049,0.018,0.014,1,-0.305,1.038,0.549,1.005,-1.417,-122.443
 15:37:05.353,eb:33:2e:f9:57:b5, 2085-97-39 00:30:00:2051,0.019,0.015,1,-0.427,0.732,0.793,1.005,-1.417,-122.443
 15:37:05.353,eb:33:2e:f9:57:b5, 2085-97-39 00:26:00:2055,0.02,0.013,1.002,-0.488,0.671,0.854,1.005,-1.417,-122.443
 15:37:05.353,eb:33:2e:f9:57:b5, 2085-97-44 00:27:00:2058,0.022,0.013,1.004,-0.488,0.549,0.854,1.005,-1.417,-122.443
 15:37:05.353,eb:33:2e:f9:57:b5, 2085-97-46 00:26:00:2062,0.021,0.013,1.006,-0.366,0.549,0.854,1.005,-1.417,-122.443
 15:37:05.414,eb:33:2e:f9:57:b5, 2085-97-45 00:26:00:2059,0.022,0.012,1.007,-0.122,0.549,0.671,1.005,-1.417,-122.443
 15:37:05.414,eb:33:2e:f9:57:b5, 2085-97-43 00:29:00:2057,0.019,0.014,1.005,-0.061,0.549,0.244,1.005,-1.417,-122.443
 15:37:05.414,eb:33:2e:f9:57:b5, 2085-97-36 00:26:00:2054,0.016,0.014,1.003,-0.122,0.427,0,1.005,-1.417,-122.443
 15:37:05.414,eb:33:2e:f9:57:b5, 2085-97-36 00:26:00:2053,0.017,0.012,1.001,-0.122,0.244,0.122,1.005,-1.417,-122.443
 15:37:05.445,eb:33:2e:f9:57:b5, 2085-97-35 00:26:00:2054,0.017,0.013,1.002,-0.183,0.183,0.305,1.005,-1.417,-122.443
 15:37:05.445,eb:33:2e:f9:57:b5, 2085-97-26 00:22:00:2052,0.013,0.012,1.003,-0.122,0.122,0.488,1.005,-1.417,-122.443
 15:37:05.445,eb:33:2e:f9:57:b5, 2085-97-39 00:28:00:2054,0.03,0.012,1,-0.122,-0.122,0.916,1.005,-1.417,-122.443
 15:37:05.445,eb:33:2e:f9:57:b5, 2085-97-65 00:25:00:2076,0.024,0.014,1.009,0,-0.366,0.366,1.005,-1.417,-122.443
 15:37:05.504,eb:33:2e:f9:57:b5, 2085-97-19 00:27:00:2047,0.022,0.012,1.011,0.305,0.61,0.366,1.005,-1.417,-122.443
 15:37:05.504,eb:33:2e:f9:57:b5, 2085-97-47 00:27:00:2058,0.021,0.017,1.002,0.183,-0.427,-0.122,1.005,-1.417,-122.443
 15:37:05.504,eb:33:2e:f9:57:b5, 2085-97-42 00:23:00:2060,0.017,0.013,1.006,0.183,0,-0.183,1.005,-1.417,-122.443
 15:37:05.504,eb:33:2e:f9:57:b5, 2085-97-37 00:31:00:2053,0.021,0.012,1.004,0.427,0,0,1.005,-1.417,-122.443
 15:37:05.535,eb:33:2e:f9:57:b5, 2085-97-39 00:28:00:2055,0.011,0.016,1.003,0.305,-0.122,-0.183,1.005,-1.412,-122.443
 15:37:05.535,eb:33:2e:f9:57:b5, 2085-97-41 00:32:00:2052,0.022,0.012,0.999,0.244,0,0.305,1.005,-1.412,-122.443
 15:37:05.535,eb:33:2e:f9:57:b5, 2085-97-43 00:31:00:2054,0.013,0.014,1.005,0.061,0.122,0,1.005,-1.412,-122.443
 15:37:05.535,eb:33:2e:f9:57:b5, 2085-97-38 00:34:00:2052,0.023,0.013,1,0,0.122,0.244,1.005,-1.412,-122.443
 15:37:05.535,eb:33:2e:f9:57:b5, 2085-113-58 00:244:222:-5610,0.024,0.015,1.006,-0.183,0.183,0,1.005,-1.412,-122.443
 15:37:05.565,eb:33:2e:f9:57:b5, 2085-97-31 00:24:00:2053,0.015,0.014,1.006,-0.122,0.427,0,1.005,-1.412,-122.443
 15:37:05.565,eb:33:2e:f9:57:b5, 2085-97-50 00:32:00:2059,0.023,0.015,1.001,-0.183,-0.122,-0.061,1.005,-1.412,-122.437
 15:37:05.565,eb:33:2e:f9:57:b5, 2085-97-40 00:26:00:2062,0.014,0.014,1.005,-0.244,0.366,-0.122,1.005,-1.412,-122.437
 15:37:05.565,eb:33:2e:f9:57:b5, 2085-97-32 00:29:00:2053,0.02,0.012,1.003,-0.061,0.305,0.061,1.005,-1.412,-122.437
 15:37:05.624,eb:33:2e:f9:57:b5, 2085-97-38 00:27:00:2054,0.018,0.015,1.002,-0.244,0.183,0.061,1.005,-1.412,-122.437
 15:37:05.624,eb:33:2e:f9:57:b5, 2085-97-39 00:27:00:2056,0.02,0.013,1.004,-0.305,0.244,0.061,1.005,-1.412,-122.437
 15:37:05.624,eb:33:2e:f9:57:b5, 2085-97-41 00:28:00:2056,0.018,0.014,1.004,-0.244,0.183,0.061,1.005,-1.412,-122.437
 15:37:05.624,eb:33:2e:f9:57:b5, 2085-97-38 00:25:00:2059,0.021,0.013,1.005,-0.183,0.183,0.122,1.005,-1.412,-122.437
 15:37:05.654,eb:33:2e:f9:57:b5, 2085-97-38 00:25:00:2058,0.015,0.012,1.006,-0.061,0.183,0.122,1.005,-1.412,-122.437
 15:37:05.654,eb:33:2e:f9:57:b5, 2085-97-48 00:30:00:2061,0.023,0.013,1.002,-0.061,0,0.183,1.005,-1.412,-122.437
 15:37:05.654,eb:33:2e:f9:57:b5, 2085-97-46 00:27:00:2062,0.02,0.013,1.006,0,0.244,0,1,-1.412,-122.437
 15:37:05.654,eb:33:2e:f9:57:b5, 2085-97-36 00:28:00:2052,0.017,0.012,1.005,0.061,0.427,-0.122,1,-1.412,-122.437
 15:37:05.685,eb:33:2e:f9:57:b5, 2085-97-33 00:28:00:2047,0.023,0.014,1.002,0,0.244,-0.183,1,-1.412,-122.437
 15:37:05.685,eb:33:2e:f9:57:b5, 2085-97-46 00:26:00:2057,0.018,0.015,1.005,-0.122,0.122,-0.366,1,-1.412,-122.437
 15:37:05.685,eb:33:2e:f9:57:b5, 2085-97-31 00:25:00:2052,0.013,0.013,1.004,0,0.305,-0.244,1,-1.412,-122.437
 15:37:05.685,eb:33:2e:f9:57:b5, 2085-97-30 00:29:00:2051,0.018,0.013,1,-0.122,0.061,0,1,-1.412,-122.437
 15:37:05.744,eb:33:2e:f9:57:b5, 2085-97-35 00:25:00:2056,0.018,0.013,1.002,-0.183,0.061,0.183,1,-1.406,-122.437
 15:37:05.744,eb:33:2e:f9:57:b5, 2085-97-39 00:25:00:2055,0.02,0.013,1.004,-0.183,0.061,0.366,1,-1.406,-122.437
 15:37:05.744,eb:33:2e:f9:57:b5, 2085-97-39 00:26:00:2058,0.02,0.013,1.004,-0.244,0,0.122,1,-1.406,-122.437
 15:37:05.744,eb:33:2e:f9:57:b5, 2085-97-42 00:25:00:2060,0.02,0.012,1.005,-0.122,0.061,0.244,1,-1.406,-122.437
 15:37:05.774,eb:33:2e:f9:57:b5, 2085-97-43 00:26:00:2060,0.02,0.013,1.005,0,0.061,0.244,1,-1.406,-122.437
 15:37:05.774,eb:33:2e:f9:57:b5, 2085-97-39 00:27:00:2057,0.02,0.013,1.005,-0.061,0.183,0.122,1,-1.406,-122.437
 15:37:05.774,eb:33:2e:f9:57:b5, 2085-97-40 00:27:00:2056,0.02,0.013,1.005,0,0.183,0.061,1,-1.406,-122.437
 15:37:05.774,eb:33:2e:f9:57:b5, 2085-97-42 00:27:00:2058,0.019,0.014,1.005,0,0.183,-0.061,1,-1.406,-122.437
 15:37:05.804,eb:33:2e:f9:57:b5, 2085-97-37 00:26:00:2055,0.018,0.013,1.004,0,0.305,-0.122,1,-1.406,-122.437
 15:37:05.804,eb:33:2e:f9:57:b5, 2085-97-33 00:25:00:2053,0.017,0.013,1.003,0,0.366,-0.122,1,-1.406,-122.437
 15:37:05.804,eb:33:2e:f9:57:b5, 2085-97-33 00:22:00:2060,0.019,0.013,1.003,0,0.183,0,1,-1.406,-122.437
 15:37:05.804,eb:33:2e:f9:57:b5, 2085-97-30 00:30:00:2049,0.019,0.013,1.003,0.122,0.122,0.122,1,-1.406,-122.437
 15:37:05.865,eb:33:2e:f9:57:b5, 2085-97-35 00:25:00:2054,0.017,0.016,1,-0.122,0,-0.061,1,-1.406,-122.437
 15:37:05.865,eb:33:2e:f9:57:b5, 2085-97-40 00:26:00:2057,0.021,0.012,1.004,-0.061,0,0.122,1,-1.406,-122.437
 15:37:05.865,eb:33:2e:f9:57:b5, 2085-97-40 00:27:00:2059,0.021,0.014,1.005,-0.122,0,0,1,-1.406,-122.437
 15:37:05.865,eb:33:2e:f9:57:b5, 2085-97-42 00:27:00:2058,0.019,0.013,1.005,0,0,0,1,-1.406,-122.437
 15:37:05.896,eb:33:2e:f9:57:b5, 2085-97-39 00:29:00:2058,0.019,0.013,1.004,0,0,0,1,-1.401,-122.437
 15:37:05.896,eb:33:2e:f9:57:b5, 2085-97-36 00:26:00:2055,0.018,0.013,1.004,0,0,-0.122,1,-1.401,-122.437
 15:37:05.896,eb:33:2e:f9:57:b5, 2085-97-31 00:26:00:2055,0.016,0.013,1.002,0,0,-0.122,1,-1.401,-122.437
 15:37:05.896,eb:33:2e:f9:57:b5, 2085-97-34 00:26:00:2052,0.017,0.012,1.003,0,-0.122,-0.061,1,-1.401,-122.437
 15:37:05.925,eb:33:2e:f9:57:b5, 2085-97-39 00:26:00:2056,0.02,0.012,1.003,0,-0.183,0.122,1,-1.401,-122.437
 15:37:05.925,eb:33:2e:f9:57:b5, 2085-97-39 00:29:00:2056,0.019,0.014,1.004,0,-0.122,0.183,1,-1.401,-122.437
 15:37:05.925,eb:33:2e:f9:57:b5, 2085-97-40 00:27:00:2057,0.019,0.014,1.004,0.061,-0.183,0.183,0.994,-1.401,-122.437
 15:37:05.925,eb:33:2e:f9:57:b5, 2085-97-41 00:27:00:2058,0.02,0.013,1.004,0.122,-0.122,0.183,0.994,-1.401,-122.437
 15:37:05.986,eb:33:2e:f9:57:b5, 2085-97-39 00:26:00:2057,0.019,0.014,1.005,0.061,-0.061,0.061,0.994,-1.401,-122.437
 15:37:05.986,eb:33:2e:f9:57:b5, 2085-97-38 00:27:00:2058,0.019,0.012,1.005,0.122,-0.061,0.061,0.994,-1.401,-122.437
 15:37:05.986,eb:33:2e:f9:57:b5, 2085-97-38 00:28:00:2057,0.019,0.013,1.004,0.122,-0.122,0,0.994,-1.401,-122.437
 15:37:05.986,eb:33:2e:f9:57:b5, 2085-97-37 00:28:00:2056,0.019,0.014,1.004,0.183,-0.061,0.061,0.994,-1.401,-122.437
 15:37:06.015,eb:33:2e:f9:57:b5, 2085-97-37 00:28:00:2054,0.019,0.014,1.003,0.122,-0.061,0,0.994,-1.401,-122.437
 15:37:06.015,eb:33:2e:f9:57:b5, 2085-97-39 00:28:00:2054,0.019,0.014,1.002,0.061,0,0,0.994,-1.401,-122.437
 15:37:06.015,eb:33:2e:f9:57:b5, 2085-97-38 00:30:00:2056,0.019,0.015,1.004,0,0,0,0.994,-1.401,-122.437
 15:37:06.015,eb:33:2e:f9:57:b5, 2085-97-37 00:25:00:2055,0.018,0.013,1.003,0,-0.061,0.061,0.994,-1.401,-122.437
 15:37:06.045,eb:33:2e:f9:57:b5, 2085-97-40 00:29:00:2057,0.019,0.013,1.004,-0.061,-0.061,0,0.994,-1.395,-122.437
 15:37:06.046,eb:33:2e:f9:57:b5, 2085-97-36 00:24:00:2059,0.018,0.012,1.005,0,0,0,0.994,-1.395,-122.437
 15:37:06.046,eb:33:2e:f9:57:b5, 2085-97-37 00:28:00:2056,0.02,0.013,1.004,0.061,0,0.122,0.994,-1.395,-122.437
 15:37:06.046,eb:33:2e:f9:57:b5, 2085-97-38 00:28:00:2058,0.019,0.014,1.004,0.061,0,0.061,0.994,-1.395,-122.437
 15:37:06.104,eb:33:2e:f9:57:b5, 2085-97-39 00:27:00:2057,0.019,0.013,1.004,0.061,-0.122,0.061,0.994,-1.395,-122.437
 15:37:06.104,eb:33:2e:f9:57:b5, 2085-97-40 00:29:00:2056,0.019,0.013,1.004,0,-0.122,0,0.994,-1.395,-122.437
 15:37:06.104,eb:33:2e:f9:57:b5, 2085-97-39 00:28:00:2056,0.02,0.014,1.003,0,-0.061,0,0.994,-1.395,-122.437
 15:37:06.104,eb:33:2e:f9:57:b5, 2085-97-39 00:26:00:2057,0.02,0.013,1.004,0,-0.122,-0.061,0.994,-1.395,-122.432
 15:37:06.163,eb:33:2e:f9:57:b5, 2085-97-40 00:24:00:2063,0.019,0.012,1.007,0.122,-0.122,-0.061,0.994,-1.395,-122.432
 15:37:06.163,eb:33:2e:f9:57:b5, 2085-97-39 00:26:00:2058,0.018,0.013,1.006,0.244,0,0,0.994,-1.395,-122.432
 15:37:06.163,eb:33:2e:f9:57:b5, 2085-97-38 00:25:00:2058,0.019,0.012,1.004,0.366,-0.122,-0.061,0.994,-1.395,-122.432
 15:37:06.163,eb:33:2e:f9:57:b5, 2085-97-39 00:28:00:2055,0.018,0.013,1.005,0.366,-0.061,0,0.994,-1.395,-122.432
 15:37:06.225,eb:33:2e:f9:57:b5, 2085-97-38 00:28:00:2054,0.017,0.014,1.004,0.366,-0.122,0,0.994,-1.395,-122.432
 15:37:06.225,eb:33:2e:f9:57:b5, 2085-97-36 00:28:00:2053,0.019,0.014,1.001,0.244,-0.061,0.122,0.994,-1.395,-122.432
 15:37:06.225,eb:33:2e:f9:57:b5, 2085-97-35 00:29:00:2051,0.021,0.014,1.003,0.244,0,0.122,0.994,-1.395,-122.432
 15:37:06.225,eb:33:2e:f9:57:b5, 2085-97-44 00:30:00:2054,0.021,0.016,1.002,0,-0.183,0,0.994,-1.395,-122.432
 15:37:06.225,eb:33:2e:f9:57:b5, 2085-97-45 00:27:00:2061,0.024,0.014,1.005,0,-0.061,-0.061,0.994,-1.395,-122.432
 15:37:06.225,eb:33:2e:f9:57:b5, 2085-97-40 00:28:00:2059,0.015,0.015,1.007,0.061,0,-0.427,0.994,-1.395,-122.432
 15:37:06.225,eb:33:2e:f9:57:b5, 2085-97-33 00:26:00:2056,0.02,0.013,1.003,0.183,0,-0.244,0.994,-1.395,-122.432
 15:37:06.225,eb:33:2e:f9:57:b5, 2085-97-48 00:26:00:2062,0.022,0.013,1.005,0.244,-0.244,-0.183,0.994,-1.395,-122.432
 15:37:06.255,eb:33:2e:f9:57:b5, 2085-97-41 00:26:00:2061,0.023,0.012,1.008,0.366,0,-0.183,0.994,-1.395,-122.432
 15:37:06.255,eb:33:2e:f9:57:b5, 2085-97-39 00:24:00:2060,0.009,0.014,1.007,0.61,-0.122,-0.549,0.994,-1.395,-122.432
 15:37:06.255,eb:33:2e:f9:57:b5, 2085-97-28 00:30:00:2050,0.018,0.013,0.999,0.549,-0.183,-0.122,0.994,-1.395,-122.432
 15:37:06.255,eb:33:2e:f9:57:b5, 2085-97-44 00:30:00:2056,0.022,0.016,1,0.366,-0.427,0,0.994,-1.395,-122.432
 15:37:06.285,eb:33:2e:f9:57:b5, 2085-97-39 00:29:00:2055,0.019,0.014,1.005,0.305,-0.122,-0.061,0.989,-1.39,-122.432
 15:37:06.285,eb:33:2e:f9:57:b5, 2085-97-42 00:31:00:2052,0.02,0.016,1.002,0.305,-0.183,-0.183,0.989,-1.39,-122.432
 15:37:06.285,eb:33:2e:f9:57:b5, 2085-97-42 00:29:00:2058,0.021,0.015,1.003,0.183,-0.244,-0.244,0.989,-1.39,-122.432
 15:37:06.285,eb:33:2e:f9:57:b5, 2085-97-43 00:29:00:2060,0.021,0.014,1.006,0.305,-0.183,-0.244,0.989,-1.39,-122.432
 15:37:06.344,eb:33:2e:f9:57:b5, 2085-97-41 00:30:00:2059,0.021,0.014,1.006,0.366,-0.183,-0.366,0.989,-1.39,-122.432
 15:37:06.344,eb:33:2e:f9:57:b5, 2085-97-40 00:30:00:2057,0.017,0.015,1.005,0.366,-0.122,-0.427,0.989,-1.39,-122.432
 15:37:06.344,eb:33:2e:f9:57:b5, 2085-97-36 00:28:00:2053,0.017,0.014,1.003,0.427,-0.244,-0.244,0.989,-1.39,-122.432
 15:37:06.344,eb:33:2e:f9:57:b5, 2085-97-36 00:30:00:2052,0.018,0.014,1.001,0.305,-0.244,-0.061,0.989,-1.39,-122.432
 15:37:06.374,eb:33:2e:f9:57:b5, 2085-97-40 00:31:00:2053,0.02,0.014,1.002,0.244,-0.305,0,0.989,-1.39,-122.432
 15:37:06.374,eb:33:2e:f9:57:b5, 2085-97-44 00:31:00:2058,0.024,0.015,1.004,0.244,-0.305,0.061,0.989,-1.39,-122.432
 15:37:06.374,eb:33:2e:f9:57:b5, 2085-97-58 00:34:00:2065,0.019,0.016,1.005,0.244,-0.305,-0.122,0.989,-1.39,-122.432
 15:37:06.374,eb:33:2e:f9:57:b5, 2085-97-24 00:29:00:2045,0.016,0.013,1.005,0.244,0.366,0,0.989,-1.39,-122.432
 15:37:06.404,eb:33:2e:f9:57:b5, 2085-97-42 00:32:00:2053,0.025,0.015,1.002,0.122,-0.427,-0.122,0.994,-1.39,-122.432
 15:37:06.404,eb:33:2e:f9:57:b5, 2085-97-47 00:30:00:2062,0.019,0.015,1.007,0.122,-0.183,-0.061,0.994,-1.39,-122.432
 15:37:06.404,eb:33:2e:f9:57:b5, 2085-97-50 00:35:00:2059,0.024,0.015,1.004,0.183,-0.244,-0.183,0.994,-1.39,-122.432
 15:37:06.404,eb:33:2e:f9:57:b5, 2085-97-23 00:29:00:2045,0.014,0.014,1.006,0.244,0.244,-0.305,0.994,-1.39,-122.432
 15:37:06.465,eb:33:2e:f9:57:b5, 2085-97-42 00:32:00:2051,0.023,0.016,1,0.061,-0.488,-0.305,0.994,-1.39,-122.432
 15:37:06.465,eb:33:2e:f9:57:b5, 2085-97-48 00:31:00:2058,0.025,0.016,1.005,0,-0.244,-0.183,0.994,-1.39,-122.432
 15:37:06.465,eb:33:2e:f9:57:b5, 2085-97-36 00:28:00:2054,0.017,0.015,1.008,0.061,0.061,-0.305,0.994,-1.39,-122.432
 15:37:06.465,eb:33:2e:f9:57:b5, 2085-97-41 00:33:00:2052,0.018,0.015,1.003,0.122,-0.183,-0.244,0.994,-1.39,-122.432
 15:37:06.495,eb:33:2e:f9:57:b5, 2085-113-58 00:169:222:-5490,0.018,0.015,1.003,0,-0.244,-0.244,0.994,-1.39,-122.432
 15:37:06.495,eb:33:2e:f9:57:b5, 2085-97-48 00:32:00:2060,0.023,0.014,1.003,0,-0.305,-0.122,0.994,-1.39,-122.432
 15:37:06.495,eb:33:2e:f9:57:b5, 2085-97-38 00:30:00:2054,0.02,0.014,1.006,0.061,0,-0.122,0.994,-1.39,-122.432
 15:37:06.495,eb:33:2e:f9:57:b5, 2085-97-44 00:30:00:2057,0.024,0.016,1.003,0.061,-0.244,-0.244,0.994,-1.39,-122.432
 15:37:06.555,eb:33:2e:f9:57:b5, 2085-97-41 00:24:00:2062,0.017,0.014,1.008,0.183,-0.122,-0.366,0.994,-1.39,-122.432
 15:37:06.555,eb:33:2e:f9:57:b5, 2085-97-40 00:33:00:2056,0.021,0.016,1.002,0.366,-0.305,-0.244,0.994,-1.39,-122.432
 15:37:06.555,eb:33:2e:f9:57:b5, 2085-97-48 00:31:00:2062,0.022,0.016,1.003,0.244,-0.305,-0.366,0.994,-1.39,-122.432
 15:37:06.555,eb:33:2e:f9:57:b5, 2085-97-39 00:31:00:2056,0.02,0.016,1.006,0.427,-0.122,-0.366,0.994,-1.39,-122.432
 15:37:06.584,eb:33:2e:f9:57:b5, 2085-97-41 00:33:00:2054,0.021,0.016,1.003,0.366,-0.244,-0.427,0.994,-1.39,-122.432
 15:37:06.584,eb:33:2e:f9:57:b5, 2085-97-42 00:34:00:2055,0.021,0.017,1.003,0.305,-0.244,-0.427,0.994,-1.39,-122.432
 15:37:06.584,eb:33:2e:f9:57:b5, 2085-97-43 00:32:00:2055,0.021,0.016,1.003,0.244,-0.244,-0.488,0.994,-1.39,-122.432
 15:37:06.584,eb:33:2e:f9:57:b5, 2085-97-45 00:33:00:2057,0.022,0.016,1.004,0.244,-0.183,-0.427,0.994,-1.39,-122.432
 15:37:06.614,eb:33:2e:f9:57:b5, 2085-97-43 00:35:00:2053,0.019,0.016,1.003,0.244,-0.061,-0.549,0.994,-1.39,-122.432
 15:37:06.614,eb:33:2e:f9:57:b5, 2085-97-43 00:31:00:2054,0.02,0.015,1.005,0.183,-0.183,-0.427,0.994,-1.39,-122.432
 15:37:06.614,eb:33:2e:f9:57:b5, 2085-97-43 00:35:00:2053,0.022,0.015,1.004,0.183,-0.183,-0.366,0.994,-1.39,-122.432
 15:37:06.614,eb:33:2e:f9:57:b5, 2085-97-44 00:32:00:2056,0.021,0.016,1.004,0.183,-0.244,-0.305,0.994,-1.39,-122.432
 15:37:06.644,eb:33:2e:f9:57:b5, 2085-97-46 00:34:00:2055,0.023,0.016,1.003,0.122,-0.244,-0.366,0.994,-1.39,-122.432
 15:37:06.644,eb:33:2e:f9:57:b5, 2085-97-45 00:32:00:2057,0.021,0.016,1.004,0.183,-0.122,-0.427,0.994,-1.39,-122.432
 15:37:06.644,eb:33:2e:f9:57:b5, 2085-97-45 00:35:00:2054,0.021,0.017,1.004,0.061,-0.183,-0.427,0.994,-1.39,-122.432
 15:37:06.644,eb:33:2e:f9:57:b5, 2085-97-39 00:29:00:2058,0.021,0.017,1.002,0.122,-0.244,-0.549,0.994,-1.39,-122.432
 15:37:06.704,eb:33:2e:f9:57:b5, 2085-97-42 00:34:00:2053,0.021,0.015,1.004,0.122,-0.061,-0.244,0.994,-1.39,-122.432
 15:37:06.704,eb:33:2e:f9:57:b5, 2085-97-42 00:33:00:2052,0.02,0.017,1.002,0.061,-0.061,-0.366,0.994,-1.39,-122.432
 15:37:06.704,eb:33:2e:f9:57:b5, 2085-97-42 00:35:00:2051,0.021,0.016,1.002,0,-0.061,-0.183,0.994,-1.39,-122.432
 15:37:06.704,eb:33:2e:f9:57:b5, 2085-97-45 00:35:00:2054,0.022,0.017,1.002,-0.061,0,-0.183,0.994,-1.39,-122.426
 15:37:06.766,eb:33:2e:f9:57:b5, 2085-97-43 00:35:00:2054,0.021,0.017,1.003,-0.183,0,-0.244,1,-1.39,-122.426
 15:37:06.766,eb:33:2e:f9:57:b5, 2085-97-43 00:33:00:2055,0.021,0.017,1.004,-0.305,0.061,-0.183,1,-1.39,-122.426
 15:37:06.766,eb:33:2e:f9:57:b5, 2085-97-45 00:33:00:2055,0.021,0.017,1.003,-0.305,0,-0.061,1,-1.39,-122.426
 15:37:06.766,eb:33:2e:f9:57:b5, 2085-97-40 00:31:00:2055,0.018,0.016,1.004,-0.305,0.122,-0.183,1,-1.39,-122.426
 15:37:06.766,eb:33:2e:f9:57:b5, 2085-97-39 00:30:00:2055,0.02,0.015,1.003,-0.305,0,0,1,-1.39,-122.426
 15:37:06.766,eb:33:2e:f9:57:b5, 2085-97-42 00:29:00:2058,0.021,0.015,1.004,-0.305,-0.061,0.122,1,-1.39,-122.426
 15:37:06.767,eb:33:2e:f9:57:b5, 2085-97-45 00:31:00:2057,0.021,0.014,1.005,-0.244,0,0.244,1,-1.39,-122.426
 15:37:06.767,eb:33:2e:f9:57:b5, 2085-97-45 00:30:00:2059,0.023,0.015,1.004,-0.122,-0.061,0.122,1,-1.39,-122.426
 15:37:06.825,eb:33:2e:f9:57:b5, 2085-97-46 00:32:00:2059,0.022,0.015,1.005,0,-0.061,0.122,1,-1.39,-122.426
 15:37:06.825,eb:33:2e:f9:57:b5, 2085-97-45 00:30:00:2055,0.021,0.016,1.004,0,-0.061,0.061,1,-1.39,-122.426
 15:37:06.825,eb:33:2e:f9:57:b5, 2085-97-42 00:30:00:2056,0.021,0.016,1.004,0,-0.122,0.122,1,-1.39,-122.426
 15:37:06.825,eb:33:2e:f9:57:b5, 2085-97-42 00:31:00:2056,0.021,0.015,1.004,0,-0.061,0.061,1,-1.39,-122.426
 15:37:06.855,eb:33:2e:f9:57:b5, 2085-97-43 00:33:00:2055,0.021,0.016,1.004,-0.061,-0.061,0.061,1,-1.39,-122.426
 15:37:06.855,eb:33:2e:f9:57:b5, 2085-97-42 00:32:00:2054,0.021,0.016,1.004,-0.061,-0.061,0.061,1,-1.39,-122.426
 15:37:06.855,eb:33:2e:f9:57:b5, 2085-97-44 00:30:00:2056,0.021,0.016,1.004,-0.061,-0.183,0.122,1,-1.39,-122.426
 15:37:06.855,eb:33:2e:f9:57:b5, 2085-97-45 00:32:00:2055,0.021,0.015,1.004,0,-0.183,0.122,1,-1.39,-122.426
 15:37:06.914,eb:33:2e:f9:57:b5, 2085-97-44 00:31:00:2054,0.021,0.015,1.003,0,-0.122,0.183,1,-1.39,-122.426
 15:37:06.914,eb:33:2e:f9:57:b5, 2085-97-42 00:32:00:2053,0.02,0.015,1.003,-0.061,-0.061,0.183,1,-1.39,-122.426
 15:37:06.914,eb:33:2e:f9:57:b5, 2085-97-40 00:32:00:2052,0.022,0.016,1.002,-0.183,-0.122,0.366,1,-1.39,-122.426
 15:37:06.914,eb:33:2e:f9:57:b5, 2085-97-46 00:31:00:2056,0.021,0.015,1.004,-0.183,-0.122,0.427,1,-1.39,-122.426
 15:37:06.944,eb:33:2e:f9:57:b5, 2085-97-47 00:33:00:2057,0.023,0.016,1.004,-0.122,-0.183,0.366,1,-1.395,-122.426
 15:37:06.944,eb:33:2e:f9:57:b5, 2085-97-50 00:32:00:2061,0.025,0.015,1.006,-0.061,-0.122,0.183,1,-1.395,-122.426
 15:37:06.944,eb:33:2e:f9:57:b5, 2085-97-50 00:31:00:2057,0.024,0.015,1.006,-0.061,-0.061,0.061,1,-1.395,-122.426
 15:37:06.944,eb:33:2e:f9:57:b5, 2085-97-46 00:31:00:2057,0.022,0.015,1.005,0,-0.122,0,1,-1.395,-122.426
 15:37:06.975,eb:33:2e:f9:57:b5, 2085-97-45 00:31:00:2056,0.022,0.015,1.004,0,-0.183,-0.122,1,-1.395,-122.426
 15:37:06.975,eb:33:2e:f9:57:b5, 2085-97-43 00:30:00:2054,0.021,0.016,1.003,0,-0.244,-0.183,1,-1.395,-122.426
 15:37:06.975,eb:33:2e:f9:57:b5, 2085-97-46 00:30:00:2058,0.024,0.014,1.003,0,-0.305,0,1.005,-1.395,-122.426
 15:37:06.975,eb:33:2e:f9:57:b5, 2085-97-47 00:30:00:2061,0.023,0.016,1.004,0.122,-0.305,0,1.005,-1.395,-122.426
 15:37:07.037,eb:33:2e:f9:57:b5, 2085-97-47 00:33:00:2058,0.023,0.015,1.006,0.183,-0.061,0,1.005,-1.395,-122.426
 15:37:07.037,eb:33:2e:f9:57:b5, 2085-97-45 00:33:00:2055,0.021,0.018,1.003,0.122,-0.122,-0.183,1.005,-1.395,-122.426
 15:37:07.037,eb:33:2e:f9:57:b5, 2085-97-43 00:35:00:2053,0.021,0.017,1.003,0,-0.122,-0.183,1.005,-1.395,-122.426
 15:37:07.037,eb:33:2e:f9:57:b5, 2085-97-41 00:34:00:2052,0.018,0.016,1.002,-0.061,-0.183,-0.183,1.005,-1.395,-122.426
 15:37:07.065,eb:33:2e:f9:57:b5, 2085-97-44 00:33:00:2056,0.021,0.016,0.999,-0.183,-0.305,0,1.005,-1.395,-122.426
 15:37:07.065,eb:33:2e:f9:57:b5, 2085-97-42 00:31:00:2054,0.021,0.016,1.001,-0.183,-0.183,0.122,1.005,-1.395,-122.426
 15:37:07.065,eb:33:2e:f9:57:b5, 2085-97-39 00:28:00:2054,0.021,0.015,1.003,-0.244,-0.061,0.305,1.005,-1.395,-122.426
 15:37:07.065,eb:33:2e:f9:57:b5, 2085-97-44 00:30:00:2058,0.022,0.014,1.005,-0.183,-0.183,0.549,1.005,-1.395,-122.426
 15:37:07.094,eb:33:2e:f9:57:b5, 2085-97-46 00:32:00:2058,0.023,0.015,1.004,-0.122,-0.061,0.61,1.005,-1.395,-122.426
 15:37:07.094,eb:33:2e:f9:57:b5, 2085-97-50 00:31:00:2059,0.025,0.016,1.006,-0.061,-0.122,0.549,1.005,-1.395,-122.426
 15:37:07.094,eb:33:2e:f9:57:b5, 2085-97-50 00:33:00:2058,0.024,0.016,1.006,0,-0.061,0.549,1.005,-1.395,-122.426
 15:37:07.094,eb:33:2e:f9:57:b5, 2085-97-49 00:33:00:2056,0.024,0.016,1.004,0,-0.122,0.366,1.005,-1.395,-122.426
 15:37:07.186,eb:33:2e:f9:57:b5, 2085-97-51 00:34:00:2057,0.022,0.016,1.004,0,0,0.183,1.005,-1.395,-122.426
 15:37:07.186,eb:33:2e:f9:57:b5, 2085-97-45 00:33:00:2055,0.024,0.016,1.003,0,0,0.122,1.005,-1.395,-122.426
 15:37:07.187,eb:33:2e:f9:57:b5, 2085-113-58 00:18:223:-5295,0.021,0.017,1.004,0,-0.061,-0.061,1.005,-1.401,-122.426
 15:37:07.187,eb:33:2e:f9:57:b5, 2085-97-52 00:33:00:2058,0.022,0.015,1.002,0,-0.122,0,1.005,-1.401,-122.426
 15:37:07.188,eb:33:2e:f9:57:b5, 2085-97-39 00:31:00:2052,0.022,0.015,1.005,0,0.061,0.061,1.005,-1.401,-122.426
 15:37:07.188,eb:33:2e:f9:57:b5, 2085-97-47 00:34:00:2056,0.02,0.016,1.003,0,-0.122,0,1.005,-1.401,-122.426
 15:37:07.188,eb:33:2e:f9:57:b5, 2085-97-36 00:31:00:2049,0.02,0.015,1.002,-0.061,0,0.183,1.005,-1.401,-122.426
 15:37:07.188,eb:33:2e:f9:57:b5, 2085-97-46 00:32:00:2054,0.024,0.016,1.001,-0.122,-0.183,0.305,1.005,-1.401,-122.426
 15:37:07.188,eb:33:2e:f9:57:b5, 2085-97-49 00:32:00:2058,0.023,0.015,1.005,-0.122,-0.061,0.366,1.005,-1.401,-122.426
 15:37:07.215,eb:33:2e:f9:57:b5, 2085-97-48 00:33:00:2056,0.023,0.015,1.004,-0.061,-0.061,0.305,1.005,-1.401,-122.426
 15:37:07.215,eb:33:2e:f9:57:b5, 2085-97-46 00:32:00:2058,0.022,0.016,1.005,-0.122,0,0.183,1.005,-1.401,-122.426
 15:37:07.215,eb:33:2e:f9:57:b5, 2085-97-46 00:31:00:2056,0.023,0.015,1.004,-0.183,0,0.183,1.005,-1.401,-122.426
 15:37:07.215,eb:33:2e:f9:57:b5, 2085-97-48 00:33:00:2056,0.022,0.016,1.003,-0.122,0,0.061,1.005,-1.401,-122.426
 15:37:07.275,eb:33:2e:f9:57:b5, 2085-97-40 00:30:00:2054,0.021,0.015,1.003,-0.122,0,0.061,1.005,-1.401,-122.426
 15:37:07.275,eb:33:2e:f9:57:b5, 2085-97-44 00:32:00:2056,0.022,0.015,1.003,-0.183,-0.061,0.244,1.005,-1.401,-122.426
 15:37:07.275,eb:33:2e:f9:57:b5, 2085-97-47 00:31:00:2058,0.022,0.015,1.004,-0.122,-0.061,0.244,1.005,-1.401,-122.426
 15:37:07.275,eb:33:2e:f9:57:b5, 2085-97-46 00:32:00:2058,0.023,0.015,1.004,-0.122,-0.061,0.305,1.005,-1.401,-122.426
 15:37:07.304,eb:33:2e:f9:57:b5, 2085-97-47 00:28:00:2059,0.023,0.016,1.004,-0.061,-0.122,0.366,1.005,-1.401,-122.426
 15:37:07.304,eb:33:2e:f9:57:b5, 2085-97-50 00:32:00:2060,0.024,0.015,1.005,0,0,0.427,1.005,-1.401,-122.426
 15:37:07.304,eb:33:2e:f9:57:b5, 2085-97-48 00:30:00:2057,0.024,0.015,1.005,-0.061,-0.061,0.305,1.005,-1.401,-122.426
 15:37:07.304,eb:33:2e:f9:57:b5, 2085-97-47 00:32:00:2055,0.022,0.015,1.004,-0.061,0,0.183,1.005,-1.401,-122.426
 15:37:07.334,eb:33:2e:f9:57:b5, 2085-97-47 00:33:00:2053,0.022,0.016,1.003,-0.061,0,0.183,1.011,-1.406,-122.426
 15:37:07.334,eb:33:2e:f9:57:b5, 2085-97-46 00:32:00:2055,0.023,0.016,1.002,-0.183,0,0.122,1.011,-1.406,-122.426
 15:37:07.334,eb:33:2e:f9:57:b5, 2085-97-47 00:29:00:2057,0.023,0.015,1.004,-0.183,0,0.183,1.011,-1.406,-122.426
 15:37:07.334,eb:33:2e:f9:57:b5, 2085-97-49 00:32:00:2057,0.023,0.015,1.005,-0.122,0,0.244,1.011,-1.406,-122.426
 15:37:07.394,eb:33:2e:f9:57:b5, 2085-97-49 00:31:00:2056,0.024,0.015,1.004,-0.183,0,0.122,1.011,-1.406,-122.426
 15:37:07.394,eb:33:2e:f9:57:b5, 2085-97-50 00:32:00:2057,0.023,0.016,1.004,-0.122,0,0.122,1.011,-1.406,-122.421
 15:37:07.394,eb:33:2e:f9:57:b5, 2085-97-48 00:32:00:2054,0.023,0.016,1.004,-0.183,0,0,1.011,-1.406,-122.421
 15:37:07.394,eb:33:2e:f9:57:b5, 2085-97-45 00:30:00:2055,0.021,0.016,1.003,-0.305,0,-0.061,1.011,-1.406,-122.421
 15:37:07.425,eb:33:2e:f9:57:b5, 2085-97-43 00:29:00:2055,0.022,0.015,1.003,-0.305,0,-0.061,1.011,-1.406,-122.421
 15:37:07.425,eb:33:2e:f9:57:b5, 2085-97-48 00:29:00:2059,0.023,0.014,1.004,-0.183,-0.061,0.061,1.011,-1.406,-122.421
 15:37:07.425,eb:33:2e:f9:57:b5, 2085-97-48 00:32:00:2056,0.023,0.015,1.005,-0.061,0,0.061,1.011,-1.406,-122.421
 15:37:07.425,eb:33:2e:f9:57:b5, 2085-97-46 00:29:00:2056,0.023,0.015,1.003,-0.122,0,0.122,1.011,-1.406,-122.421
 15:37:07.455,eb:33:2e:f9:57:b5, 2085-97-48 00:31:00:2057,0.024,0.013,1.005,-0.061,0,0.183,1.011,-1.406,-122.421
 15:37:07.455,eb:33:2e:f9:57:b5, 2085-97-48 00:32:00:2056,0.023,0.016,1.003,-0.122,0,0.061,1.011,-1.406,-122.421
 15:37:07.455,eb:33:2e:f9:57:b5, 2085-97-48 00:30:00:2056,0.024,0.015,1.003,-0.122,0,0,1.011,-1.406,-122.421
 15:37:07.455,eb:33:2e:f9:57:b5, 2085-97-47 00:30:00:2055,0.022,0.015,1.004,-0.061,0,0,1.011,-1.406,-122.421
 15:37:07.514,eb:33:2e:f9:57:b5, 2085-97-44 00:31:00:2053,0.021,0.015,1.003,-0.183,0.061,0,1.011,-1.412,-122.421
 15:37:07.514,eb:33:2e:f9:57:b5, 2085-97-44 00:30:00:2054,0.021,0.015,1.002,-0.244,0,0,1.011,-1.412,-122.421
 15:37:07.514,eb:33:2e:f9:57:b5, 2085-97-45 00:29:00:2055,0.022,0.014,1.003,-0.305,0,0.061,1.011,-1.412,-122.421
 15:37:07.514,eb:33:2e:f9:57:b5, 2085-97-47 00:27:00:2057,0.024,0.015,1.004,-0.305,0,0.061,1.011,-1.412,-122.421
 15:37:07.544,eb:33:2e:f9:57:b5, 2085-97-50 00:27:00:2060,0.023,0.014,1.005,-0.244,0,0,1.011,-1.412,-122.421
 15:37:07.544,eb:33:2e:f9:57:b5, 2085-97-48 00:27:00:2062,0.023,0.012,1.006,0,0,0.061,1.011,-1.412,-122.421
 15:37:07.544,eb:33:2e:f9:57:b5, 2085-97-44 00:31:00:2056,0.02,0.014,1.005,0.122,0,0.183,1.011,-1.412,-122.421
 15:37:07.544,eb:33:2e:f9:57:b5, 2085-97-43 00:29:00:2054,0.02,0.014,1.002,0,0,0.244,1.011,-1.412,-122.421
 15:37:07.576,eb:33:2e:f9:57:b5, 2085-97-43 00:29:00:2054,0.023,0.014,1.002,0,0,0.427,1.011,-1.412,-122.421
 15:37:07.576,eb:33:2e:f9:57:b5, 2085-97-46 00:30:00:2054,0.022,0.015,1.003,-0.061,0,0.488,1.011,-1.412,-122.421
 15:37:07.576,eb:33:2e:f9:57:b5, 2085-97-45 00:29:00:2056,0.023,0.014,1.003,-0.122,0,0.488,1.011,-1.412,-122.421
 15:37:07.576,eb:33:2e:f9:57:b5, 2085-97-52 00:29:00:2058,0.026,0.014,1.005,-0.061,0,0.61,1.011,-1.412,-122.421
 15:37:07.634,eb:33:2e:f9:57:b5, 2085-97-50 00:30:00:2058,0.023,0.015,1.005,-0.061,0.061,0.488,1.011,-1.412,-122.421
 15:37:07.634,eb:33:2e:f9:57:b5, 2085-97-46 00:30:00:2057,0.023,0.015,1.004,-0.061,0.061,0.305,1.011,-1.412,-122.421
 15:37:07.634,eb:33:2e:f9:57:b5, 2085-97-48 00:31:00:2056,0.023,0.015,1.003,-0.183,0,0.183,1.011,-1.412,-122.421
 15:37:07.634,eb:33:2e:f9:57:b5, 2085-97-46 00:31:00:2053,0.021,0.015,1.003,-0.183,0.061,0.122,1.011,-1.412,-122.421
 15:37:07.664,eb:33:2e:f9:57:b5, 2085-97-45 00:28:00:2056,0.021,0.014,1.002,-0.183,0.061,0.122,1.011,-1.412,-122.421
 15:37:07.664,eb:33:2e:f9:57:b5, 2085-97-47 00:28:00:2055,0.023,0.013,1.003,-0.244,0.122,0.305,1.011,-1.412,-122.421
 15:37:07.664,eb:33:2e:f9:57:b5, 2085-97-44 00:29:00:2055,0.022,0.013,1.004,-0.183,0.122,0.427,1.011,-1.417,-122.421
 15:37:07.664,eb:33:2e:f9:57:b5, 2085-97-46 00:29:00:2056,0.022,0.014,1.003,-0.183,0.122,0.488,1.011,-1.417,-122.421
 15:37:07.694,eb:33:2e:f9:57:b5, 2085-97-48 00:31:00:2058,0.024,0.014,1.004,-0.244,0.061,0.427,1.011,-1.417,-122.421
 15:37:07.694,eb:33:2e:f9:57:b5, 2085-97-52 00:29:00:2058,0.025,0.014,1.004,-0.244,0.061,0.366,1.011,-1.417,-122.421
 15:37:07.694,eb:33:2e:f9:57:b5, 2085-97-52 00:28:00:2059,0.026,0.014,1.005,-0.183,0.122,0.183,1.011,-1.417,-122.421
 15:37:07.694,eb:33:2e:f9:57:b5, 2085-97-53 00:29:00:2058,0.024,0.013,1.005,-0.183,0.183,0,1.011,-1.417,-122.421
 15:37:07.755,eb:33:2e:f9:57:b5, 2085-97-47 00:26:00:2059,0.022,0.014,1.005,-0.122,0.183,-0.183,1.011,-1.417,-122.421
 15:37:07.755,eb:33:2e:f9:57:b5, 2085-97-43 00:28:00:2055,0.021,0.014,1.005,-0.061,0.183,-0.183,1.011,-1.417,-122.421
 15:37:07.755,eb:33:2e:f9:57:b5, 2085-97-42 00:28:00:2055,0.021,0.014,1.002,-0.122,0.183,-0.183,1.011,-1.417,-122.421
 15:37:07.755,eb:33:2e:f9:57:b5, 2085-97-43 00:28:00:2054,0.022,0.013,1.003,-0.061,0.061,0,1.011,-1.417,-122.421
 15:37:07.785,eb:33:2e:f9:57:b5, 2085-97-47 00:28:00:2057,0.022,0.013,1.004,0,0.061,0.122,1.011,-1.417,-122.421
 15:37:07.785,eb:33:2e:f9:57:b5, 2085-97-46 00:29:00:2056,0.023,0.013,1.004,0,0.183,0.244,1.011,-1.417,-122.421
 15:37:07.785,eb:33:2e:f9:57:b5, 2085-97-48 00:27:00:2055,0.023,0.014,1.004,0,0.122,0.122,1.011,-1.417,-122.421
 15:37:07.785,eb:33:2e:f9:57:b5, 2085-113-58 00:169:222:-5490,0.022,0.014,1.003,0,0.122,0.122,1.011,-1.417,-122.421
 15:37:07.814,eb:33:2e:f9:57:b5, 2085-97-46 00:29:00:2052,0.022,0.014,1.003,-0.061,0.183,0.061,1.011,-1.417,-122.421
 15:37:07.815,eb:33:2e:f9:57:b5, 2085-97-44 00:29:00:2055,0.022,0.014,1.003,-0.183,0.183,0,1.011,-1.417,-122.421
 15:37:07.815,eb:33:2e:f9:57:b5, 2085-97-45 00:30:00:2054,0.021,0.014,1.004,-0.183,0.244,0.061,1.005,-1.417,-122.421
 15:37:07.816,eb:33:2e:f9:57:b5, 2085-97-41 00:27:00:2052,0.02,0.014,1.002,-0.366,0.244,0.122,1.005,-1.417,-122.421
 15:37:07.874,eb:33:2e:f9:57:b5, 2085-97-42 00:28:00:2052,0.021,0.014,1.002,-0.366,0.122,0.244,1.005,-1.423,-122.421
 15:37:07.874,eb:33:2e:f9:57:b5, 2085-97-45 00:28:00:2056,0.022,0.014,1.003,-0.366,0.061,0.366,1.005,-1.423,-122.421
 15:37:07.874,eb:33:2e:f9:57:b5, 2085-97-49 00:27:00:2056,0.023,0.014,1.003,-0.488,0.183,0.366,1.005,-1.423,-122.421
 15:37:07.874,eb:33:2e:f9:57:b5, 2085-97-47 00:26:00:2058,0.023,0.013,1.004,-0.427,0.183,0.244,1.005,-1.423,-122.421
 15:37:07.906,eb:33:2e:f9:57:b5, 2085-97-46 00:28:00:2058,0.021,0.013,1.004,-0.427,0.183,0.244,1.005,-1.423,-122.421
 15:37:07.906,eb:33:2e:f9:57:b5, 2085-97-45 00:23:00:2058,0.022,0.013,1.004,-0.366,0.183,0.305,1.005,-1.423,-122.421
 15:37:07.906,eb:33:2e:f9:57:b5, 2085-97-44 00:25:00:2058,0.023,0.011,1.006,-0.305,0.183,0.488,1.005,-1.423,-122.421
 15:37:07.906,eb:33:2e:f9:57:b5, 2085-97-43 00:30:00:2055,0.021,0.015,1.004,-0.244,0.122,0.427,1.005,-1.423,-122.421
 15:37:07.934,eb:33:2e:f9:57:b5, 2085-97-48 00:28:00:2057,0.022,0.014,1.003,-0.305,0.061,0.427,1.005,-1.423,-122.421
 15:37:07.934,eb:33:2e:f9:57:b5, 2085-97-45 00:32:00:2052,0.025,0.014,1.003,-0.427,0.183,0.427,1.005,-1.423,-122.421
 15:37:07.934,eb:33:2e:f9:57:b5, 2085-97-47 00:28:00:2054,0.024,0.015,1.003,-0.549,0.244,0.183,1.005,-1.423,-122.421
 15:37:07.934,eb:33:2e:f9:57:b5, 2085-97-43 00:27:00:2052,0.019,0.014,1.003,-0.61,0.305,0,1.005,-1.423,-122.421
 15:37:07.994,eb:33:2e:f9:57:b5, 2085-97-46 00:27:00:2055,0.022,0.014,1.001,-0.732,0.061,0,1.005,-1.423,-122.421
 15:37:07.994,eb:33:2e:f9:57:b5, 2085-97-30 00:22:00:2048,0.021,0.012,1.005,-0.793,0.488,0.122,1.005,-1.423,-122.415
 15:37:07.994,eb:33:2e:f9:57:b5, 2085-97-46 00:23:00:2056,0.021,0.013,1.002,-0.854,0,0.244,1.005,-1.423,-122.415
 15:37:07.994,eb:33:2e:f9:57:b5, 2085-97-51 00:22:00:2064,0.023,0.012,1.003,-0.854,0,0.366,1.005,-1.423,-122.415
 15:37:08.025,eb:33:2e:f9:57:b5, 2085-97-46 00:23:00:2060,0.025,0.01,1.006,-0.671,0.305,0.61,1.005,-1.423,-122.415
 15:37:08.025,eb:33:2e:f9:57:b5, 2085-97-50 00:26:00:2059,0.024,0.012,1.007,-0.549,0.366,0.488,1.005,-1.423,-122.415
 15:37:08.025,eb:33:2e:f9:57:b5, 2085-97-46 00:25:00:2060,0.022,0.012,1.006,-0.427,0.366,0.305,1.005,-1.423,-122.415
 15:37:08.025,eb:33:2e:f9:57:b5, 2085-97-41 00:31:00:2050,0.02,0.014,1.003,-0.488,0.549,0.244,1.005,-1.423,-122.415
 15:37:08.056,eb:33:2e:f9:57:b5, 2085-97-40 00:24:00:2051,0.021,0.012,1,-0.793,0.549,0.122,1.005,-1.423,-122.415
 15:37:08.056,eb:33:2e:f9:57:b5, 2085-97-47 00:26:00:2055,0.021,0.013,1.002,-0.977,0.671,0.366,1.005,-1.423,-122.415
 15:37:08.056,eb:33:2e:f9:57:b5, 2085-97-41 00:25:00:2055,0.021,0.011,1.004,-1.038,0.854,0.366,1.005,-1.423,-122.415
 15:37:08.056,eb:33:2e:f9:57:b5, 2085-97-41 00:21:00:2058,0.021,0.011,1.004,-1.099,0.854,0.427,1.005,-1.423,-122.415
 15:37:08.115,eb:33:2e:f9:57:b5, 2085-97-48 00:19:00:2062,0.021,0.01,1.004,-0.977,0.61,0.488,1,-1.423,-122.415
 15:37:08.115,eb:33:2e:f9:57:b5, 2085-97-46 00:18:00:2065,0.022,0.01,1.006,-0.793,0.61,0.366,1,-1.423,-122.415
 15:37:08.115,eb:33:2e:f9:57:b5, 2085-97-49 00:20:00:2066,0.024,0.008,1.008,-0.427,0.61,0.366,1,-1.423,-122.415
 15:37:08.115,eb:33:2e:f9:57:b5, 2085-97-45 00:23:00:2062,0.021,0.011,1.008,-0.183,0.671,0.244,1,-1.423,-122.415
 15:37:08.144,eb:33:2e:f9:57:b5, 2085-97-43 00:22:00:2059,0.021,0.011,1.005,-0.183,0.61,0,1,-1.423,-122.415
 15:37:08.144,eb:33:2e:f9:57:b5, 2085-97-42 00:20:00:2056,0.019,0.011,1.005,-0.061,0.549,-0.122,1,-1.423,-122.415
 15:37:08.144,eb:33:2e:f9:57:b5, 2085-97-39 00:24:00:2052,0.018,0.011,1.004,-0.122,0.549,-0.244,1,-1.423,-122.415
 15:37:08.144,eb:33:2e:f9:57:b5, 2085-97-39 00:21:00:2053,0.017,0.011,1.002,-0.244,0.427,-0.183,1,-1.423,-122.415
 15:37:08.175,eb:33:2e:f9:57:b5, 2085-97-32 00:21:00:2048,0.014,0.008,1.003,-0.244,0.366,0,1,-1.423,-122.415
 15:37:08.175,eb:33:2e:f9:57:b5, 2085-97-48 00:24:00:2060,0.028,0.01,1.001,-0.183,-0.122,0.427,1,-1.423,-122.415
 15:37:08.175,eb:33:2e:f9:57:b5, 2085-97-64 00:19:00:2072,0.026,0.009,1.012,0,0.061,0.183,0.994,-1.423,-122.415
 15:37:08.175,eb:33:2e:f9:57:b5, 2085-97-36 00:23:00:2052,0.006,0.009,1.013,0.305,0.549,-0.183,0.994,-1.423,-122.415
 15:37:08.234,eb:33:2e:f9:57:b5, 2085-97-41 00:31:00:2051,0.026,0.011,0.995,0.122,-0.244,-0.122,0.994,-1.423,-122.415
 15:37:08.234,eb:33:2e:f9:57:b5, 2085-97-44 00:17:00:2061,0.018,0.01,1.009,0,0.122,-0.671,0.994,-1.423,-122.415
 15:37:08.234,eb:33:2e:f9:57:b5, 2085-97-53 00:25:00:2063,0.026,0.011,1.003,0.122,-0.305,-0.488,0.994,-1.423,-122.415
 15:37:08.234,eb:33:2e:f9:57:b5, 2085-97-44 00:20:00:2066,0.017,0.012,1.007,0.061,0.183,-0.977,0.994,-1.423,-122.415
 15:37:08.266,eb:33:2e:f9:57:b5, 2085-97-50 00:24:00:2064,0.027,0.011,1,0.122,-0.305,-1.221,0.994,-1.423,-122.415
 15:37:08.266,eb:33:2e:f9:57:b5, 2085-97-35 00:18:00:2057,0.021,0.012,1.007,0.122,0.183,-1.77,0.994,-1.423,-122.421
 15:37:08.266,eb:33:2e:f9:57:b5, 2085-97-47 00:17:00:2065,0.017,0.011,1.005,0.122,-0.549,-2.258,0.994,-1.423,-122.443
 15:37:08.266,eb:33:2e:f9:57:b5, 2085-97-55 00:28:00:2056,0.024,0.007,1.008,0.61,0,-1.526,1,-1.423,-122.465
 15:37:08.294,eb:33:2e:f9:57:b5, 2085-97-35 00:18:00:2059,0.021,0.012,1.009,0.488,-0.061,-2.502,1.005,-1.428,-122.487
 15:37:08.294,eb:33:2e:f9:57:b5, 2085-97-40 00:23:00:2063,0.02,0.012,1,0.671,-0.854,-2.563,1.016,-1.434,-122.509
 15:37:08.294,eb:33:2e:f9:57:b5, 2085-97-49 00:26:00:2056,0.015,0.011,1.003,0.671,-0.488,-2.502,1.022,-1.434,-122.536
 15:37:08.294,eb:33:2e:f9:57:b5, 2085-97-38 00:27:00:2048,0.021,0.011,1.002,0.61,-0.244,-2.38,1.027,-1.439,-122.563
 15:37:08.355,eb:33:2e:f9:57:b5, 2085-97-35 00:23:00:2048,0.021,0.011,1.005,0.488,-0.427,-2.563,1.038,-1.45,-122.591
 15:37:08.355,eb:33:2e:f9:57:b5, 2085-97-35 00:21:00:2052,0.018,0.013,1.003,0.549,-0.916,-2.502,1.044,-1.456,-122.618
 15:37:08.355,eb:33:2e:f9:57:b5, 2085-97-37 00:21:00:2053,0.017,0.011,1.003,0.549,-1.221,-2.258,1.049,-1.467,-122.64
 15:37:08.355,eb:33:2e:f9:57:b5, 2085-97-43 00:21:00:2058,0.019,0.011,1.002,0.61,-1.526,-1.953,1.055,-1.478,-122.662
 15:37:08.386,eb:33:2e:f9:57:b5, 2085-97-42 00:23:00:2058,0.022,0.01,1.004,0.732,-1.404,-1.648,1.066,-1.494,-122.679
 15:37:08.386,eb:33:2e:f9:57:b5, 2085-97-51 00:27:00:2060,0.024,0.011,1.005,0.854,-1.648,-1.831,1.071,-1.511,-122.701
 15:37:08.386,eb:33:2e:f9:57:b5, 2085-97-45 00:22:00:2060,0.021,0.012,1.006,0.916,-1.404,-1.953,1.082,-1.522,-122.717
 15:37:08.386,eb:33:2e:f9:57:b5, 2085-113-58 00:229:222:-5535,0.022,0.013,1.003,0.977,-1.404,-1.953,1.093,-1.538,-122.739
 15:37:08.386,eb:33:2e:f9:57:b5, 2085-97-43 00:30:00:2050,0.022,0.014,1.002,0.916,-1.404,-2.136,1.099,-1.544,-122.75
 15:37:08.444,eb:33:2e:f9:57:b5, 2085-97-47 00:25:00:2056,0.025,0.013,1.004,0.854,-1.526,-2.136,1.11,-1.56,-122.772
 15:37:08.444,eb:33:2e:f9:57:b5, 2085-97-52 00:27:00:2055,0.023,0.013,1.006,0.854,-1.221,-2.075,1.121,-1.577,-122.794
 15:37:08.444,eb:33:2e:f9:57:b5, 2085-97-42 00:26:00:2054,0.026,0.011,1.008,0.854,-1.404,-2.38,1.126,-1.588,-122.816
 15:37:08.444,eb:33:2e:f9:57:b5, 2085-97-69 00:31:00:2059,0.021,0.014,1.011,0.671,-1.038,-2.747,1.137,-1.599,-122.844
 15:37:08.474,eb:33:2e:f9:57:b5, 2085-97-55 00:32:00:2056,0.03,0.011,1.005,0.732,-0.305,-2.563,1.148,-1.604,-122.871
 15:37:08.474,eb:33:2e:f9:57:b5, 2085-97-49 00:22:00:2061,0.026,0.012,1.012,0.854,-0.366,-3.174,1.154,-1.615,-122.904
 15:37:08.474,eb:33:2e:f9:57:b5, 2085-97-67 00:33:00:2071,0.031,0.016,1.005,0.977,-0.732,-3.418,1.165,-1.615,-122.937
 15:37:08.474,eb:33:2e:f9:57:b5, 2085-97-45 00:28:00:2056,0.02,0.016,1.006,0.977,0.305,-3.784,1.176,-1.615,-122.975
 15:37:08.506,eb:33:2e:f9:57:b5, 2085-97-49 00:28:00:2065,0.033,0.015,0.998,0.916,-0.183,-4.089,1.187,-1.609,-123.014
 15:37:08.506,eb:33:2e:f9:57:b5, 2085-97-64 00:30:00:2069,0.019,0.017,1.009,0.854,0.061,-4.7,1.198,-1.609,-123.058
 15:37:08.506,eb:33:2e:f9:57:b5, 2085-97-48 00:33:00:2055,0.028,0.013,1.002,0.977,0.549,-4.456,1.208,-1.604,-123.107
 15:37:08.506,eb:33:2e:f9:57:b5, 2085-97-55 00:26:00:2069,0.021,0.014,1.009,0.916,0.488,-5.127,1.219,-1.604,-123.157
 15:37:08.564,eb:33:2e:f9:57:b5, 2085-97-43 00:37:00:2052,0.034,0.014,1.002,1.099,0.854,-4.822,1.236,-1.593,-123.206
 15:37:08.564,eb:33:2e:f9:57:b5, 2085-97-55 00:23:00:2070,0.021,0.017,1.013,1.038,0.427,-5.859,1.247,-1.588,-123.261
 15:37:08.565,eb:33:2e:f9:57:b5, 2085-97-57 00:33:00:2068,0.026,0.015,1.003,1.343,0.305,-5.493,1.263,-1.577,-123.316
 15:37:08.566,eb:33:2e:f9:57:b5, 2085-97-47 00:34:00:2053,0.021,0.015,1.005,1.221,1.16,-5.92,1.274,-1.571,-123.376
 15:37:08.594,eb:33:2e:f9:57:b5, 2085-97-41 00:30:00:2051,0.021,0.016,1.006,1.16,0.61,-6.287,1.291,-1.566,-123.437
 15:37:08.594,eb:33:2e:f9:57:b5, 2085-97-43 00:33:00:2052,0.021,0.016,1.003,1.282,0.244,-6.042,1.302,-1.56,-123.503
 15:37:08.594,eb:33:2e:f9:57:b5, 2085-97-45 00:31:00:2057,0.021,0.017,1.003,1.221,0,-5.981,1.318,-1.555,-123.563
 15:37:08.594,eb:33:2e:f9:57:b5, 2085-97-45 00:32:00:2057,0.022,0.016,1.003,1.282,0,-5.798,1.335,-1.555,-123.624
 15:37:08.627,eb:33:2e:f9:57:b5, 2085-97-51 00:33:00:2065,0.024,0.015,1.006,1.587,0,-5.554,1.351,-1.555,-123.679
 15:37:08.627,eb:33:2e:f9:57:b5, 2085-97-45 00:32:00:2060,0.029,0.016,1.007,1.648,0.244,-5.615,1.368,-1.555,-123.739
 15:37:08.627,eb:33:2e:f9:57:b5, 2085-97-60 00:35:00:2071,0.023,0.016,1.013,1.953,0.122,-5.615,1.39,-1.549,-123.794
 15:37:08.627,eb:33:2e:f9:57:b5, 2085-97-44 00:42:00:2051,0.022,0.019,1.005,1.953,0.854,-5.859,1.412,-1.544,-123.854
 15:37:08.685,eb:33:2e:f9:57:b5, 2085-97-47 00:41:00:2050,0.022,0.021,1,1.709,0.61,-6.165,1.428,-1.533,-123.915
 15:37:08.685,eb:33:2e:f9:57:b5, 2085-97-45 00:42:00:2049,0.021,0.019,1.002,1.526,0.793,-6.042,1.45,-1.527,-123.975
 15:37:08.685,eb:33:2e:f9:57:b5, 2085-97-44 00:45:00:2046,0.022,0.022,0.999,1.282,0.854,-6.165,1.461,-1.516,-124.036
 15:37:08.685,eb:33:2e:f9:57:b5, 2085-97-46 00:41:00:2053,0.018,0.021,0.999,0.916,0.732,-6.226,1.478,-1.505,-124.102
 15:37:08.716,eb:33:2e:f9:57:b5, 2085-97-39 00:39:00:2052,0.02,0.019,1,0.854,0.793,-6.042,1.489,-1.494,-124.162
 15:37:08.716,eb:33:2e:f9:57:b5, 2085-97-40 00:41:00:2045,0.021,0.021,1,0.671,0.732,-5.737,1.494,-1.489,-124.222
 15:37:08.716,eb:33:2e:f9:57:b5, 2085-97-44 00:38:00:2058,0.02,0.02,1.003,0.549,0.61,-5.554,1.505,-1.478,-124.277
 15:37:08.716,eb:33:2e:f9:57:b5, 2085-97-44 00:41:00:2053,0.024,0.02,1.003,0.732,0.854,-5.066,1.511,-1.472,-124.332
 15:37:08.745,eb:33:2e:f9:57:b5, 2085-97-47 00:35:00:2063,0.021,0.019,1.008,0.854,0.793,-4.944,1.522,-1.461,-124.382
 15:37:08.745,eb:33:2e:f9:57:b5, 2085-97-53 00:40:00:2070,0.028,0.017,1.01,1.282,0.916,-4.272,1.533,-1.45,-124.431
 15:37:08.745,eb:33:2e:f9:57:b5, 2085-97-46 00:43:00:2058,0.024,0.022,1.007,1.282,1.526,-4.7,1.549,-1.439,-124.475
 15:37:08.745,eb:33:2e:f9:57:b5, 2085-97-60 00:45:00:2085,0.029,0.023,1.005,1.343,0.916,-5.249,1.566,-1.423,-124.525
 15:37:08.805,eb:33:2e:f9:57:b5, 2085-97-39 00:45:00:2064,0.018,0.024,1.004,1.282,1.831,-5.798,1.577,-1.406,-124.579
 15:37:08.805,eb:33:2e:f9:57:b5, 2085-97-42 00:47:00:2055,0.021,0.022,1.001,1.282,1.831,-5.981,1.593,-1.384,-124.64
 15:37:08.805,eb:33:2e:f9:57:b5, 2085-97-25 00:42:00:2044,0.021,0.022,1.006,1.282,2.197,-6.165,1.609,-1.362,-124.7
 15:37:08.805,eb:33:2e:f9:57:b5, 2085-97-51 00:44:00:2060,0.016,0.022,1.013,1.282,1.221,-6.409,1.626,-1.346,-124.761
 15:37:08.834,eb:33:2e:f9:57:b5, 2085-97-30 00:43:00:2051,0.009,0.021,1.002,1.343,1.587,-5.798,1.637,-1.329,-124.827
 15:37:08.834,eb:33:2e:f9:57:b5, 2085-97-11 00:42:00:2043,0.012,0.021,0.997,1.465,1.16,-5.127,1.653,-1.313,-124.882
 15:37:08.834,eb:33:2e:f9:57:b5, 2085-97-33 00:47:00:2048,0.018,0.021,0.994,1.404,0.427,-4.639,1.67,-1.307,-124.931
 15:37:08.834,eb:33:2e:f9:57:b5, 2085-97-34 00:43:00:2039,0.009,0.022,1.008,1.404,0.61,-4.15,1.686,-1.302,-124.975
 15:37:08.864,eb:33:2e:f9:57:b5, 2085-97-35 00:41:00:2074,0.014,0.018,1.002,1.77,0.061,-3.296,1.703,-1.296,-125.013
 15:37:08.864,eb:33:2e:f9:57:b5, 2085-97-42 00:47:00:2063,0.024,0.021,1.006,2.075,0.488,-2.93,1.725,-1.291,-125.046
 15:37:08.864,eb:33:2e:f9:57:b5, 2085-97-33 00:49:00:2057,0.015,0.027,1.006,2.014,0.854,-3.113,1.747,-1.28,-125.074
 15:37:08.864,eb:33:2e:f9:57:b5, 2085-97-37 00:52:00:2047,0.012,0.027,1,2.014,0.305,-3.479,1.769,-1.274,-125.107
 15:37:08.924,eb:33:2e:f9:57:b5, 2085-97-22 00:54:00:2060,0.018,0.026,0.992,1.953,0.305,-2.93,1.785,-1.263,-125.14
 15:37:08.924,eb:33:2e:f9:57:b5, 2085-97-28 00:53:00:2035,0.009,0.026,1.001,1.404,0.244,-3.723,1.807,-1.263,-125.173
 15:37:08.924,eb:33:2e:f9:57:b5, 2085-97-00 00:56:00:2004,0.011,0.026,0.99,1.404,0.732,-2.563,1.818,-1.258,-125.206
