Time,Device name,Chip Time(),Acceleration X(g),Acceleration Y(g),Acceleration Z(g),Angular velocity X(°/s),Angular velocity Y(°/s),Angular velocity Z(°/s),Angle X(°),Angle Y(°),Angle Z(°)
 15:38:31.488,eb:33:2e:f9:57:b5, 2085-97-111 01:192:00:2583,0.195,0.073,1.239,87.83,-3.906,-50.293,9.338,-2.005,-123.074
 15:38:31.488,eb:33:2e:f9:57:b5, 2085-97-173 01:169:00:2708,0.235,0.093,1.298,94.482,-10.193,-62.195,10.272,-1.983,-123.646
 15:38:31.488,eb:33:2e:f9:57:b5, 2085-97-59 02:230:00:2731,0.319,0.088,1.341,102.295,-13.55,-71.838,11.283,-1.978,-124.332
 15:38:31.488,eb:33:2e:f9:57:b5, 2085-97-208 02:16:01:2817,0.357,0.137,1.334,112.061,-14.526,-77.515,12.387,-1.967,-125.107
 15:38:31.490,eb:33:2e:f9:57:b5, 2085-97-156 02:88:00:3003,0.304,0.077,1.42,127.197,0.732,-72.205,13.607,-1.873,-125.87
 15:38:31.490,eb:33:2e:f9:57:b5, 2085-97-215 01:211:255:3152,0.227,0.017,1.501,145.996,28.137,-52.795,14.996,-1.582,-126.436
 15:38:31.490,eb:33:2e:f9:57:b5, 2085-97-124 02:32:00:3175,0.346,-0.03,1.531,172.18,46.082,-25.452,16.6,-1.077,-126.678
 15:38:31.490,eb:33:2e:f9:57:b5, 2085-97-80 03:12:00:3445,0.415,-0.013,1.643,201.66,53.955,-8.789,18.479,-0.571,-126.705
 15:38:31.578,eb:33:2e:f9:57:b5, 2085-97-202 02:55:255:3663,0.394,-0.035,1.733,237.366,90.027,16.052,20.693,0.093,-126.409
 15:38:31.578,eb:33:2e:f9:57:b5, 2085-97-113 03:71:255:3701,0.444,-0.072,1.763,276.794,115.906,29.419,23.302,0.989,-125.755
 15:38:31.578,eb:33:2e:f9:57:b5, 2085-97-62 03:225:254:4078,0.319,-0.121,1.894,309.387,123.779,17.517,26.268,1.989,-125.041
 15:38:31.578,eb:33:2e:f9:57:b5, 2085-97-80 02:196:254:4151,0.271,-0.146,2.001,331.787,113.22,-23.865,29.531,3.082,-124.481
 15:38:31.580,eb:33:2e:f9:57:b5, 2085-97-32 02:191:01:4536,0.152,-0.008,2.141,345.154,92.407,-75.256,32.926,4.197,-124.442
 15:38:31.580,eb:33:2e:f9:57:b5, 2085-97-21 00:233:05:4905,-0.03,0.453,2.35,349.426,97.595,-101.135,36.398,5.482,-124.662
 15:38:31.580,eb:33:2e:f9:57:b5, 2085-97-101 00:26:06:4421,0.177,0.827,2.313,339.844,98.45,-115.54,39.814,6.976,-124.865
 15:38:31.580,eb:33:2e:f9:57:b5, 2085-97-196 00:94:03:3945,0.111,0.506,1.979,339.417,93.689,-103.271,43.176,8.41,-125.074
 15:38:31.609,eb:33:2e:f9:57:b5, 2085-97-118 00:159:255:3947,-0.02,0.188,1.844,344.421,109.802,-75.867,46.609,9.783,-124.937
 15:38:31.609,eb:33:2e:f9:57:b5, 2085-97-193 00:243:02:3743,0.283,0.089,1.903,340.21,162.598,-46.997,50.18,11.151,-124.31
 15:38:31.609,eb:33:2e:f9:57:b5, 2085-97-159 02:144:00:4335,0.376,0.328,2.006,303.528,173.462,-36.987,53.619,12.469,-123.223
 15:38:31.609,eb:33:2e:f9:57:b5, 2085-97-103 03:93:252:3126,0.49,-0.176,1.849,265.32,207.947,-28.015,56.777,13.898,-121.729
 15:38:31.669,eb:33:2e:f9:57:b5, 2085-97-109 04:58:248:1259,0.657,-0.739,1.103,229.797,165.771,-30.334,59.612,15.084,-120.262
 15:38:31.669,eb:33:2e:f9:57:b5, 2085-97-63 06:87:247:828,-0.48,-1.068,0.344,196.106,143.372,-66.65,62.012,16.216,-119.147
 15:38:31.669,eb:33:2e:f9:57:b5, 2085-97-53 252:130:254:-2541,0.712,0.04,-0.232,192.81,157.043,-85.999,64.479,17.677,-117.856
 15:38:31.669,eb:33:2e:f9:57:b5, 2085-97-174 00:181:251:-837,-0.26,-0.184,-0.737,69.58,-32.593,-32.959,65.781,18.182,-117.905
 15:38:31.729,eb:33:2e:f9:57:b5, 2085-97-81 00:246:249:110,0.231,-0.699,-0.418,-43.152,-81.726,15.442,65.649,18.083,-118.422
 15:38:31.729,eb:33:2e:f9:57:b5, 2085-97-59 01:139:249:1473,0.115,-0.81,0.469,-121.033,-56.396,52.49,64.572,17.413,-118.965
 15:38:31.729,eb:33:2e:f9:57:b5, 2085-97-116 01:145:250:1672,0.278,-0.75,0.791,-146.79,-34.546,58.167,63.149,16.727,-119.059
 15:38:31.729,eb:33:2e:f9:57:b5, 2085-97-139 02:247:250:1189,0.291,-0.643,0.735,-149.658,-22.461,53.406,61.655,16.1,-119.07
 15:38:31.730,eb:33:2e:f9:57:b5, 2085-97-58 02:179:251:709,0.298,-0.596,0.438,-147.766,-17.395,49.561,60.183,15.557,-118.971
 15:38:31.730,eb:33:2e:f9:57:b5, 2085-97-108 02:182:252:760,0.279,-0.472,0.348,-151.306,-27.649,43.152,58.705,15.035,-118.943
 15:38:31.730,eb:33:2e:f9:57:b5, 2085-97-18 02:130:253:636,0.262,-0.356,0.354,-167.786,-21.851,34.424,57.101,14.573,-118.943
 15:38:31.730,eb:33:2e:f9:57:b5, 2085-97-31 02:218:253:451,0.278,-0.283,0.263,-196.96,-24.414,23.865,55.261,14.211,-118.976
 15:38:31.879,eb:33:2e:f9:57:b5, 2085-97-90 02:15:254:523,0.301,-0.256,0.196,-230.896,-32.837,14.221,53.058,13.892,-119.103
 15:38:31.879,eb:33:2e:f9:57:b5, 2085-97-113 02:123:254:861,0.318,-0.215,0.331,-258.362,-41.87,1.953,50.532,13.596,-119.361
 15:38:31.879,eb:33:2e:f9:57:b5, 2085-97-135 02:205:254:1143,0.301,-0.162,0.499,-273.193,-50.354,-10.681,47.747,13.315,-119.762
 15:38:31.879,eb:33:2e:f9:57:b5, 2085-97-59 02:185:254:1245,0.258,-0.146,0.587,-279.114,-56.091,-16.418,44.863,13.052,-120.262
 15:38:31.879,eb:33:2e:f9:57:b5, 2085-97-214 01:195:254:1494,0.179,-0.167,0.643,-281.738,-66.833,-14.893,41.918,12.706,-120.822
 15:38:31.879,eb:33:2e:f9:57:b5, 2085-97-73 01:137:254:1513,0.2,-0.169,0.776,-283.752,-70.007,-9.277,38.974,12.25,-121.36
 15:38:31.879,eb:33:2e:f9:57:b5, 2085-97-225 01:197:254:1778,0.249,-0.173,0.817,-287.659,-84.167,-1.587,35.991,11.64,-121.904
 15:38:31.879,eb:33:2e:f9:57:b5, 2085-97-38 02:193:255:1957,0.286,-0.1,0.921,-292.419,-91.553,5.371,32.992,10.909,-122.388
 15:38:31.885,eb:33:2e:f9:57:b5, 2085-97-165 02:140:00:2305,0.337,0.013,1.067,-293.03,-100.037,12.451,29.96,10.025,-122.827
 15:38:31.885,eb:33:2e:f9:57:b5, 2085-97-170 02:79:01:2489,0.327,0.112,1.189,-291.199,-102.905,16.113,26.977,9.058,-123.184
 15:38:31.885,eb:33:2e:f9:57:b5, 2085-97-176 02:172:01:2686,0.354,0.195,1.268,-286.194,-111.938,20.264,24.027,7.998,-123.486
 15:38:31.885,eb:33:2e:f9:57:b5, 2085-97-217 02:187:01:2858,0.344,0.213,1.354,-281.189,-120.117,24.292,21.165,6.833,-123.728
 15:38:31.938,eb:33:2e:f9:57:b5, 2085-97-179 02:182:01:3003,0.343,0.215,1.428,-276.855,-127.808,29.358,18.342,5.565,-123.887
 15:38:31.938,eb:33:2e:f9:57:b5, 2085-97-206 02:189:01:3193,0.334,0.215,1.512,-271.423,-137.39,34.79,15.595,4.197,-123.964
 15:38:31.938,eb:33:2e:f9:57:b5, 2085-97-211 02:208:01:3367,0.34,0.212,1.626,-263.977,-143.188,40.649,12.903,2.725,-123.942
 15:38:31.938,eb:33:2e:f9:57:b5, 2085-97-107 02:211:01:3438,0.28,0.229,1.669,-254.822,-149.658,46.021,10.322,1.203,-123.805
 15:38:31.938,eb:33:2e:f9:57:b5, 2085-113-58 00:45:226:-6120,0.262,0.23,1.707,-245.239,-163.086,52.124,7.811,-0.428,-123.558
 15:38:31.941,eb:33:2e:f9:57:b5, 2085-97-244 01:215:01:3595,0.222,0.225,1.736,-241.333,-168.945,56.396,6.597,-1.291,-123.387
 15:38:31.941,eb:33:2e:f9:57:b5, 2085-97-205 01:219:01:3786,0.23,0.225,1.797,-237.793,-182.739,64.087,4.191,-3.104,-122.948
 15:38:31.941,eb:33:2e:f9:57:b5, 2085-97-05 02:102:02:4063,0.294,0.255,1.905,-240.112,-193.97,69.519,1.747,-5.037,-122.366
 15:38:31.941,eb:33:2e:f9:57:b5, 2085-97-111 02:154:03:4316,0.272,0.367,2.069,-245.178,-193.848,73.425,-0.747,-6.998,-121.652
 15:38:32.028,eb:33:2e:f9:57:b5, 2085-97-19 02:34:05:4246,0.275,0.543,2.09,-248.352,-191.895,68.726,-3.345,-8.888,-120.85
 15:38:32.028,eb:33:2e:f9:57:b5, 2085-97-90 02:179:06:4279,0.277,0.749,2.064,-245.361,-201.111,58.472,-5.949,-10.794,-120.042
 15:38:32.028,eb:33:2e:f9:57:b5, 2085-97-210 01:179:07:4325,0.126,0.907,2.121,-235.718,-202.332,46.875,-8.531,-12.744,-119.24
 15:38:32.028,eb:33:2e:f9:57:b5, 2085-97-255 255:56:08:4175,-0.114,1,2.085,-219.727,-204.407,35.583,-10.986,-14.672,-118.471
 15:38:32.032,eb:33:2e:f9:57:b5, 2085-97-106 254:59:09:4100,-0.281,1.083,1.993,-196.533,-224.609,24.109,-13.288,-16.71,-117.691
 15:38:32.032,eb:33:2e:f9:57:b5, 2085-97-124 252:13:10:4211,-0.503,1.205,1.992,-174.744,-231.262,21.545,-15.381,-18.896,-116.878
 15:38:32.032,eb:33:2e:f9:57:b5, 2085-97-229 251:103:13:4096,-0.748,1.411,2.074,-145.935,-209.839,41.87,-17.32,-20.929,-115.873
 15:38:32.032,eb:33:2e:f9:57:b5, 2085-97-221 245:62:18:3062,-1.645,1.981,1.841,-119.202,-148.254,58.289,-19.045,-22.467,-114.758
 15:38:32.088,eb:33:2e:f9:57:b5, 2085-97-16 243:126:23:3280,-1.318,2.69,1.231,-69.275,-203.735,73.486,-20.5,-23.747,-113.423
 15:38:32.088,eb:33:2e:f9:57:b5, 2085-97-206 247:228:22:5411,-0.864,2.997,2.265,-12.39,-186.157,53.101,-21.511,-25.532,-111.896
 15:38:32.088,eb:33:2e:f9:57:b5, 2085-97-214 250:122:18:4593,-0.493,2.587,2.509,39.368,-34.363,6.531,-21.643,-26.351,-111.204
 15:38:32.088,eb:33:2e:f9:57:b5, 2085-97-98 252:99:15:3522,-0.388,2.121,2.044,71.167,85.144,-21.423,-20.951,-26.115,-111.429
 15:38:32.149,eb:33:2e:f9:57:b5, 2085-97-156 253:251:12:2790,-0.261,1.765,1.54,81.421,144.409,-38.696,-19.819,-25.082,-112.236
 15:38:32.149,eb:33:2e:f9:57:b5, 2085-97-83 254:29:11:2145,0.221,1.5,1.208,86.67,149.902,-39.856,-18.578,-23.763,-113.203
 15:38:32.149,eb:33:2e:f9:57:b5, 2085-97-128 04:28:01:6985,0.708,1.193,1.305,127.625,-14.648,-125.183,-17.238,-22.989,-114.153
 15:38:32.149,eb:33:2e:f9:57:b5, 2085-97-191 10:79:00:2944,1.116,0.013,2.641,150.574,143.494,-157.166,-15.007,-23.659,-116.312
 15:38:32.208,eb:33:2e:f9:57:b5, 2085-97-52 04:152:250:-528,0.503,-0.674,0.746,177.673,158.569,-25.024,-12.859,-22.346,-117.576
 15:38:32.208,eb:33:2e:f9:57:b5, 2085-97-49 07:48:244:1540,0.757,-0.892,-0.004,156.982,-204.895,-101.624,-10.942,-22.885,-118.081
 15:38:32.208,eb:33:2e:f9:57:b5, 2085-97-60 03:43:250:2081,0.28,-1.328,0.778,145.264,-171.204,-107.91,-9.174,-24.966,-118.823
 15:38:32.208,eb:33:2e:f9:57:b5, 2085-97-175 02:44:253:3270,0.336,-0.52,1.57,148.682,-56.213,-115.662,-7.229,-26.455,-119.943
 15:38:32.210,eb:33:2e:f9:57:b5, 2085-97-210 02:202:00:2220,0.326,-0.033,1.428,160.767,105.164,-30.579,-5.279,-26.065,-120.789
 15:38:32.210,eb:33:2e:f9:57:b5, 2085-97-253 00:114:01:2533,0.036,0.1,0.976,153.564,82.703,34.607,-3.691,-25.071,-120.778
 15:38:32.210,eb:33:2e:f9:57:b5, 2085-97-231 255:187:03:2719,-0.082,0.306,1.283,112.854,96.741,41.931,-2.538,-24.137,-120.372
 15:38:32.210,eb:33:2e:f9:57:b5, 2085-97-30 00:225:01:2414,0.199,0.418,1.384,62.317,140.747,27.954,-1.818,-22.983,-120.026
 15:38:32.214,eb:33:2e:f9:57:b5, 2085-97-70 02:188:255:1150,0.255,0.095,0.76,31.189,121.704,0.122,-1.423,-21.506,-119.927
 15:38:32.214,eb:33:2e:f9:57:b5, 2085-97-120 01:201:255:2485,0.187,-0.038,0.794,41.077,18.25,2.93,-1.06,-20.956,-119.954
 15:38:32.214,eb:33:2e:f9:57:b5, 2085-97-19 02:150:00:2506,0.349,0.031,1.334,41.504,104.065,18.25,-0.659,-20.396,-119.833
 15:38:32.214,eb:33:2e:f9:57:b5, 2085-97-48 03:204:00:1613,0.386,0.1,0.987,25.513,169.678,15.32,-0.39,-18.885,-119.663
 15:38:32.269,eb:33:2e:f9:57:b5, 2085-97-183 02:177:00:1690,0.321,0.109,0.76,19.836,123.779,12.939,-0.198,-17.408,-119.537
 15:38:32.269,eb:33:2e:f9:57:b5, 2085-97-202 02:156:00:1844,0.325,0.074,0.896,17.7,95.215,20.325,-0.06,-16.364,-119.372
 15:38:32.269,eb:33:2e:f9:57:b5, 2085-97-49 02:136:00:1910,0.261,0.093,0.896,14.221,81.116,24.231,0.044,-15.48,-119.136
 15:38:32.269,eb:33:2e:f9:57:b5, 2085-97-239 01:58:00:1849,0.197,0.031,0.917,11.414,66.711,22.766,0.104,-14.738,-118.889
 15:38:32.300,eb:33:2e:f9:57:b5, 2085-97-140 01:21:00:1942,0.191,0.021,0.924,10.437,43.701,18.066,0.165,-14.2,-118.685
 15:38:32.300,eb:33:2e:f9:57:b5, 2085-97-182 01:15:00:1984,0.225,0.003,0.979,9.827,35.645,16.541,0.225,-13.821,-118.51
 15:38:32.300,eb:33:2e:f9:57:b5, 2085-97-169 01:220:255:2037,0.192,0,0.984,9.521,35.156,16.174,0.286,-13.469,-118.339
 15:38:32.300,eb:33:2e:f9:57:b5, 2085-97-148 01:202:255:2048,0.19,-0.031,1.008,11.719,39.001,17.456,0.357,-13.101,-118.169
 15:38:32.359,eb:33:2e:f9:57:b5, 2085-97-133 01:251:255:2016,0.177,-0.014,0.99,14.099,40.344,21.118,0.45,-12.7,-117.971
 15:38:32.359,eb:33:2e:f9:57:b5, 2085-97-123 01:234:255:2001,0.191,-0.01,0.979,14.709,36.438,21.118,0.549,-12.316,-117.751
 15:38:32.359,eb:33:2e:f9:57:b5, 2085-97-138 01:04:00:2012,0.198,-0.002,0.986,15.93,32.288,21.118,0.665,-11.975,-117.532
 15:38:32.359,eb:33:2e:f9:57:b5, 2085-97-156 01:29:00:2024,0.209,0.012,0.979,16.235,28.809,22.705,0.786,-11.673,-117.307
 15:38:32.389,eb:33:2e:f9:57:b5, 2085-97-160 01:37:00:2026,0.2,0.019,0.981,15.32,29.724,23.804,0.901,-11.382,-117.059
 15:38:32.389,eb:33:2e:f9:57:b5, 2085-97-137 01:239:255:2084,0.181,0.01,1,14.282,33.02,24.109,1,-11.069,-116.812
 15:38:32.389,eb:33:2e:f9:57:b5, 2085-97-124 01:220:255:2091,0.198,-0.021,1.022,16.357,39.062,26.245,1.115,-10.712,-116.554
 15:38:32.389,eb:33:2e:f9:57:b5, 2085-97-166 01:24:00:2092,0.206,-0.007,1.036,19.226,46.753,29.236,1.241,-10.289,-116.257
 15:38:32.419,eb:33:2e:f9:57:b5, 2085-97-117 01:70:00:2036,0.168,0.03,1.013,20.02,53.589,28.931,1.395,-9.778,-115.95
 15:38:32.419,eb:33:2e:f9:57:b5, 2085-97-66 01:71:00:2032,0.148,0.038,1.001,19.226,54.81,27.283,1.544,-9.245,-115.653
 15:38:32.419,eb:33:2e:f9:57:b5, 2085-97-53 01:57:00:2080,0.137,0.03,0.986,19.165,49.255,24.658,1.697,-8.723,-115.378
 15:38:32.419,eb:33:2e:f9:57:b5, 2085-97-243 00:68:00:2015,0.118,0.035,1.002,19.409,47.241,21.79,1.857,-8.24,-115.131
 15:38:32.480,eb:33:2e:f9:57:b5, 2085-97-242 00:74:00:2052,0.161,0.033,1.001,20.386,39.917,20.02,2.032,-7.817,-114.906
 15:38:32.480,eb:33:2e:f9:57:b5, 2085-97-94 01:101:00:2055,0.107,0.057,0.96,19.47,33.875,14.465,2.214,-7.449,-114.719
 15:38:32.480,eb:33:2e:f9:57:b5, 2085-97-234 00:101:00:2041,0.122,0.041,1.023,19.165,31.372,8.85,2.395,-7.13,-114.587
 15:38:32.480,eb:33:2e:f9:57:b5, 2085-97-30 01:132:00:2098,0.141,0.056,1.02,18.677,23.682,-0.549,2.587,-6.866,-114.532
 15:38:32.508,eb:33:2e:f9:57:b5, 2085-113-58 00:167:224:-5775,0.087,0.053,1.029,16.296,21.118,-12.024,2.774,-6.636,-114.598
 15:38:32.508,eb:33:2e:f9:57:b5, 2085-97-243 00:138:00:2049,0.135,0.032,1.038,16.113,21.973,-14.404,2.862,-6.52,-114.664
 15:38:32.509,eb:33:2e:f9:57:b5, 2085-97-255 00:134:00:2055,0.118,0.061,1.003,13.306,18.555,-24.841,3.038,-6.328,-114.873
 15:38:32.509,eb:33:2e:f9:57:b5, 2085-97-14 01:108:00:1913,0.119,0.068,1,8.972,23.865,-32.898,3.181,-6.103,-115.159
 15:38:32.539,eb:33:2e:f9:57:b5, 2085-97-08 01:77:00:2124,0.137,0.083,0.996,6.836,19.836,-35.889,3.301,-5.878,-115.477
 15:38:32.539,eb:33:2e:f9:57:b5, 2085-97-30 01:97:00:2115,0.131,0.028,1.063,7.69,26.978,-35.767,3.406,-5.636,-115.84
 15:38:32.539,eb:33:2e:f9:57:b5, 2085-97-235 00:55:00:2090,0.096,0.05,1.067,7.751,32.288,-40.588,3.527,-5.323,-116.202
 15:38:32.539,eb:33:2e:f9:57:b5, 2085-97-29 01:127:00:2213,0.159,0.047,1.055,11.414,27.039,-41.077,3.664,-4.993,-116.57
 15:38:32.598,eb:33:2e:f9:57:b5, 2085-97-232 00:99:00:2139,0.083,0.064,1.059,10.864,34.119,-47.668,3.812,-4.658,-117.01
 15:38:32.598,eb:33:2e:f9:57:b5, 2085-97-98 00:83:00:2111,0.026,0.062,1.027,11.902,33.813,-51.147,3.966,-4.279,-117.477
 15:38:32.598,eb:33:2e:f9:57:b5, 2085-97-96 00:87:00:2150,0.065,0.033,1.047,14.526,29.053,-52.307,4.142,-3.933,-117.971
 15:38:32.598,eb:33:2e:f9:57:b5, 2085-97-122 00:73:00:2189,0.043,0.044,1.064,16.907,26.001,-54.565,4.334,-3.631,-118.493
 15:38:32.629,eb:33:2e:f9:57:b5, 2085-97-94 00:112:00:2172,0.058,0.041,1.076,19.897,24.17,-54.871,4.554,-3.334,-119.015
 15:38:32.629,eb:33:2e:f9:57:b5, 2085-97-104 00:90:00:2199,0.04,0.054,1.072,22.644,19.592,-58.716,4.801,-3.082,-119.57
 15:38:32.629,eb:33:2e:f9:57:b5, 2085-97-107 00:60:00:2336,0.079,0.035,1.102,26.855,11.658,-62.317,5.081,-2.867,-120.157
 15:38:32.629,eb:33:2e:f9:57:b5, 2085-97-225 00:64:00:2403,0.127,0.029,1.164,33.081,7.629,-64.209,5.411,-2.719,-120.789
 15:38:32.658,eb:33:2e:f9:57:b5, 2085-97-02 01:51:00:2509,0.099,0.033,1.203,40.161,7.69,-62.256,5.817,-2.593,-121.415
 15:38:32.658,eb:33:2e:f9:57:b5, 2085-97-181 00:36:00:2493,0.077,0.022,1.231,47.974,10.071,-59.875,6.284,-2.433,-122.014
 15:38:32.658,eb:33:2e:f9:57:b5, 2085-97-87 00:252:255:2476,-0.011,0.021,1.208,56.58,10.315,-55.542,6.839,-2.263,-122.574
 15:38:32.658,eb:33:2e:f9:57:b5, 2085-97-160 255:223:255:2477,-0.072,-0.016,1.211,64.819,12.329,-47.729,7.471,-2.087,-123.074
 15:38:32.718,eb:33:2e:f9:57:b5, 2085-97-128 255:243:255:2482,-0.025,-0.035,1.201,75.867,6.47,-36.743,8.19,-1.928,-123.475
 15:38:32.718,eb:33:2e:f9:57:b5, 2085-97-248 255:09:00:2587,0.06,-0.003,1.22,86.853,-1.221,-28.931,9.02,-1.857,-123.794
 15:38:32.718,eb:33:2e:f9:57:b5, 2085-97-170 00:81:00:2615,0.077,0.028,1.259,99.365,-6.592,-23.743,9.97,-1.857,-124.052
 15:38:32.718,eb:33:2e:f9:57:b5, 2085-97-227 00:123:00:2629,0.128,0.04,1.281,111.267,-8.484,-21.362,11.036,-1.884,-124.288
 15:38:32.749,eb:33:2e:f9:57:b5, 2085-97-41 01:115:00:2703,0.161,0.056,1.312,122.986,-10.193,-19.653,12.222,-1.939,-124.508
 15:38:32.749,eb:33:2e:f9:57:b5, 2085-97-145 01:148:00:2749,0.235,0.062,1.338,136.902,-9.277,-15.32,13.535,-1.994,-124.695
 15:38:32.749,eb:33:2e:f9:57:b5, 2085-97-10 02:186:00:2758,0.227,0.096,1.337,152.588,-8.179,-11.78,15.002,-2.043,-124.843
 15:38:32.749,eb:33:2e:f9:57:b5, 2085-97-217 01:93:00:2896,0.257,0.056,1.398,170.349,-0.305,-6.287,16.628,-2.071,-124.948
 15:38:32.779,eb:33:2e:f9:57:b5, 2085-97-209 01:37:00:2955,0.192,0.027,1.393,193.726,12.085,10.62,18.452,-2.01,-124.915
 15:38:32.779,eb:33:2e:f9:57:b5, 2085-97-63 01:236:255:3082,0.218,-0.009,1.472,221.802,36.438,30.457,20.533,-1.84,-124.634
 15:38:32.779,eb:33:2e:f9:57:b5, 2085-97-76 02:249:255:3123,0.312,0,1.469,249.695,43.64,39.612,22.901,-1.577,-124.124
 15:38:32.779,eb:33:2e:f9:57:b5, 2085-97-193 02:220:255:3398,0.383,0.007,1.599,271.79,58.594,28.564,25.51,-1.258,-123.596
 15:38:32.838,eb:33:2e:f9:57:b5, 2085-97-30 03:172:255:3492,0.403,-0.032,1.67,291.809,73.303,11.414,28.334,-0.747,-123.135
 15:38:32.838,eb:33:2e:f9:57:b5, 2085-97-47 03:02:00:3788,0.308,-0.039,1.748,309.143,73.364,-21.179,31.349,-0.071,-122.8
 15:38:32.838,eb:33:2e:f9:57:b5, 2085-97-42 01:219:00:4368,0.051,0.027,1.934,329.346,49.5,-59.387,34.541,0.687,-122.833
 15:38:32.838,eb:33:2e:f9:57:b5, 2085-97-18 01:17:02:5575,0.189,0.22,2.437,338.074,16.174,-108.521,37.903,1.406,-123.349
 15:38:32.868,eb:33:2e:f9:57:b5, 2085-97-120 01:168:04:5084,0.232,0.341,2.786,342.346,77.209,-106.689,41.276,2.439,-123.986
 15:38:32.868,eb:33:2e:f9:57:b5, 2085-97-31 03:174:04:4587,0.516,0.642,2.267,351.257,94.849,-92.834,44.742,3.796,-124.058
 15:38:32.868,eb:33:2e:f9:57:b5, 2085-97-252 03:113:04:4089,0.396,0.441,2.186,361.389,140.503,-76.904,48.329,5.191,-123.843
 15:38:32.868,eb:33:2e:f9:57:b5, 2085-97-58 01:55:04:4143,0.11,0.431,1.804,355.347,170.715,-71.472,51.998,6.828,-123.052
 15:38:32.898,eb:33:2e:f9:57:b5, 2085-97-73 01:96:02:4872,0.211,0.387,2.33,325.256,214.233,-46.509,55.574,8.405,-121.871
 15:38:32.898,eb:33:2e:f9:57:b5, 2085-97-148 02:198:255:3983,0.552,0.198,2.159,281.86,265.991,-15.259,58.92,9.992,-119.866
 15:38:32.898,eb:33:2e:f9:57:b5, 2085-97-37 05:182:248:2517,0.657,-0.43,1.696,234.802,228.333,-7.019,61.886,11.288,-117.751
 15:38:32.898,eb:33:2e:f9:57:b5, 2085-97-178 06:161:246:1521,0.824,-1.062,0.754,195.435,176.208,3.235,64.363,12.228,-115.911
 15:38:32.958,eb:33:2e:f9:57:b5, 2085-97-145 250:172:03:351,-0.268,-0.851,0.968,251.465,241.028,-26.855,66.879,13.217,-114.153
 15:38:32.958,eb:33:2e:f9:57:b5, 2085-97-78 08:246:255:-2280,0.143,0.044,-1.097,143.433,69.031,-53.223,69.214,14.469,-112.802
 15:38:32.958,eb:33:2e:f9:57:b5, 2085-97-136 255:168:251:-1389,0.252,-0.446,-0.619,2.686,-10.742,-6.042,69.84,14.766,-112.813
 15:38:32.958,eb:33:2e:f9:57:b5, 2085-97-123 03:222:250:837,0.368,-0.583,-0.09,-111.084,-62.744,38.208,69.099,14.365,-113.28
 15:38:32.989,eb:33:2e:f9:57:b5, 2085-97-178 02:225:250:1779,0.388,-0.678,0.73,-165.955,-27.771,43.518,67.566,13.799,-113.516
 15:38:32.989,eb:33:2e:f9:57:b5, 2085-97-201 03:154:251:1694,0.504,-0.584,0.914,-176.331,-27.222,20.203,65.797,13.398,-113.654
 15:38:32.989,eb:33:2e:f9:57:b5, 2085-97-184 03:167:251:1006,0.446,-0.548,0.647,-173.828,-13.55,1.831,64.001,13.233,-113.796
 15:38:32.989,eb:33:2e:f9:57:b5, 2085-97-126 03:26:252:808,0.402,-0.512,0.408,-169.312,-22.034,-9.521,62.249,13.189,-113.978
 15:38:33.019,eb:33:2e:f9:57:b5, 2085-97-221 02:177:252:707,0.333,-0.454,0.384,-173.157,-15.625,-16.296,60.474,13.217,-114.225
 15:38:33.019,eb:33:2e:f9:57:b5, 2085-97-163 02:23:253:433,0.305,-0.383,0.284,-189.087,-18.433,-23.56,58.607,13.304,-114.472
 15:38:33.019,eb:33:2e:f9:57:b5, 2085-97-96 02:242:252:314,0.3,-0.379,0.177,-215.271,-28.809,-27.466,56.475,13.398,-114.835
 15:38:33.019,eb:33:2e:f9:57:b5, 2085-97-100 02:246:252:447,0.283,-0.386,0.168,-244.202,-43.335,-28.442,54.053,13.42,-115.312
 15:38:33.080,eb:33:2e:f9:57:b5, 2085-97-77 02:49:253:759,0.292,-0.373,0.286,-267.09,-57.678,-28.503,51.317,13.332,-115.917
 15:38:33.080,eb:33:2e:f9:57:b5, 2085-97-58 02:153:253:1069,0.262,-0.323,0.466,-282.166,-68.176,-25.879,48.406,13.123,-116.603
 15:38:33.080,eb:33:2e:f9:57:b5, 2085-97-254 01:226:253:1242,0.232,-0.28,0.572,-291.016,-76.233,-18.433,45.357,12.783,-117.307
 15:38:33.080,eb:33:2e:f9:57:b5, 2085-97-233 01:166:254:1660,0.215,-0.229,0.642,-297.546,-81.055,-5.798,42.264,12.299,-117.955
 15:38:33.109,eb:33:2e:f9:57:b5, 2085-97-236 00:105:254:1992,0.186,-0.118,1.058,-294.128,-64.758,18.005,39.194,11.662,-118.4
 15:38:33.109,eb:33:2e:f9:57:b5, 2085-97-68 02:199:255:1410,0.429,-0.012,0.48,-298.279,-92.529,7.935,36.183,11.036,-118.702
 15:38:33.109,eb:33:2e:f9:57:b5, 2085-97-115 02:218:00:2120,0.278,0.102,0.852,-304.993,-102.478,25.085,33.074,10.08,-119.103
 15:38:33.109,eb:33:2e:f9:57:b5, 2085-97-163 02:79:01:2396,0.367,0.131,1.121,-302.124,-117.92,27.222,29.982,8.998,-119.443
 15:38:33.139,eb:33:2e:f9:57:b5, 2085-97-205 02:210:01:2597,0.329,0.202,1.219,-295.837,-129.7,34.241,26.917,7.745,-119.8
 15:38:33.139,eb:33:2e:f9:57:b5, 2085-97-180 02:163:01:2788,0.361,0.211,1.317,-289.246,-132.996,46.753,23.972,6.383,-119.982
 15:38:33.139,eb:33:2e:f9:57:b5, 2085-97-233 02:117:01:2891,0.359,0.196,1.386,-283.997,-138.367,56.702,21.088,4.916,-120.02
 15:38:33.139,eb:33:2e:f9:57:b5, 2085-97-202 02:102:01:3015,0.359,0.179,1.447,-280.701,-141.602,68.359,18.281,3.384,-119.894
 15:38:33.198,eb:33:2e:f9:57:b5, 2085-97-233 02:58:01:3132,0.362,0.162,1.495,-277.344,-147.156,79.468,15.485,1.78,-119.592
 15:38:33.198,eb:33:2e:f9:57:b5, 2085-97-232 02:69:01:3356,0.358,0.154,1.579,-273.376,-153.442,87.585,12.744,0.115,-119.136
 15:38:33.198,eb:33:2e:f9:57:b5, 2085-97-239 02:126:01:3642,0.38,0.167,1.708,-265.503,-159.119,92.957,10.025,-1.604,-118.553
 15:38:33.198,eb:33:2e:f9:57:b5, 2085-97-29 03:33:02:3924,0.387,0.212,1.86,-254.395,-161.682,95.459,7.405,-3.34,-117.856
 15:38:33.230,eb:33:2e:f9:57:b5, 2085-97-11 03:127:03:3980,0.379,0.343,1.94,-246.155,-162.231,89.172,4.839,-5.048,-117.092
 15:38:33.230,eb:33:2e:f9:57:b5, 2085-97-58 03:08:05:4006,0.42,0.532,1.943,-247.07,-170.227,72.632,2.313,-6.757,-116.384
 15:38:33.230,eb:33:2e:f9:57:b5, 2085-97-118 03:187:06:4114,0.437,0.726,1.988,-256.042,-175.659,51.819,-0.291,-8.514,-115.785
 15:38:33.230,eb:33:2e:f9:57:b5, 2085-97-136 03:224:07:4199,0.423,0.916,2.035,-266.785,-181.58,22.095,-2.983,-10.3,-115.373
 15:38:33.288,eb:33:2e:f9:57:b5, 2085-97-53 03:185:08:4235,0.378,1.04,2.059,-267.944,-187.988,-6.348,-5.724,-12.145,-115.159
 15:38:33.288,eb:33:2e:f9:57:b5, 2085-97-144 02:153:09:4219,0.219,1.149,2.069,-257.69,-197.815,-35.095,-8.361,-14.09,-115.131
 15:38:33.288,eb:33:2e:f9:57:b5, 2085-97-163 00:28:10:4046,-0.077,1.232,2.021,-240.234,-204.346,-55.725,-10.827,-16.161,-115.258
 15:38:33.288,eb:33:2e:f9:57:b5, 2085-97-10 254:55:10:3997,-0.438,1.27,1.933,-219.299,-221.985,-65.979,-13.068,-18.375,-115.428
 15:38:33.319,eb:33:2e:f9:57:b5, 2085-97-131 250:72:10:4336,-0.717,1.286,2.02,-191.65,-235.535,-57.19,-15.112,-20.781,-115.472
 15:38:33.319,eb:33:2e:f9:57:b5, 2085-97-08 250:225:12:4540,-0.865,1.449,2.171,-148.132,-212.891,-3.052,-16.935,-23.055,-115.054
 15:38:33.319,eb:33:2e:f9:57:b5, 2085-97-185 246:217:17:3671,-1.376,1.893,2.092,-115.54,-144.226,18.555,-18.523,-24.642,-114.346
 15:38:33.319,eb:33:2e:f9:57:b5, 2085-97-153 244:117:21:4086,-1.397,2.554,1.816,-78.43,-145.569,25.452,-19.814,-25.961,-113.566
 15:38:33.349,eb:33:2e:f9:57:b5, 2085-97-254 245:66:22:4671,-1.065,2.821,2.102,-28.259,-81.238,28.198,-20.66,-26.9,-112.808
 15:38:33.349,eb:33:2e:f9:57:b5, 2085-97-151 248:150:19:4255,-0.787,2.643,2.285,22.217,21.606,7.874,-20.797,-27.109,-112.516
 15:38:33.349,eb:33:2e:f9:57:b5, 2085-97-146 250:133:16:3350,-0.584,2.249,1.873,68.298,97.046,-2.686,-20.193,-26.483,-112.775
 15:38:33.349,eb:33:2e:f9:57:b5, 2085-113-58 00:33:223:-5565,-0.482,1.901,1.441,100.22,122.803,2.625,-19.127,-25.389,-113.22
 15:38:33.349,eb:33:2e:f9:57:b5, 2085-97-200 252:209:12:2712,1.862,1.737,1.347,112.061,117.371,7.568,-18.506,-24.813,-113.406
 15:38:33.409,eb:33:2e:f9:57:b5, 2085-97-149 09:61:249:8729,0.664,-0.343,3.491,169.373,-312.744,-148.499,-16.815,-25.642,-113.901
 15:38:33.409,eb:33:2e:f9:57:b5, 2085-97-31 254:25:254:-2107,0.777,-0.169,0.769,188.843,305.115,89.417,-14.848,-23.659,-114.263
 15:38:33.409,eb:33:2e:f9:57:b5, 2085-97-157 07:95:245:1835,0.278,-1.212,0.234,178.345,-213.867,-67.749,-13.008,-24.472,-114.28
 15:38:33.409,eb:33:2e:f9:57:b5, 2085-97-247 00:154:252:2153,0.144,-0.74,0.864,182.922,-143.127,-86.426,-11.025,-26.169,-114.62
 15:38:33.469,eb:33:2e:f9:57:b5, 2085-97-68 01:134:254:2713,0.319,-0.262,1.212,198.547,-52.49,-84.656,-8.734,-27.334,-115.472
 15:38:33.469,eb:33:2e:f9:57:b5, 2085-97-242 01:159:00:2546,0.302,-0.017,1.245,203.857,41.504,-34.363,-6.411,-27.356,-116.115
 15:38:33.469,eb:33:2e:f9:57:b5, 2085-97-51 03:224:01:2264,0.263,0.102,1.238,200.989,76.477,4.333,-4.279,-26.691,-116.345
 15:38:33.469,eb:33:2e:f9:57:b5, 2085-97-101 00:159:03:3020,0.024,0.34,1.358,173.889,56.885,20.996,-2.439,-26.082,-116.197
 15:38:33.471,eb:33:2e:f9:57:b5, 2085-97-62 01:140:01:2026,0.305,0.39,1.349,116.333,107.544,13.55,-1.088,-25.203,-116.032
 15:38:33.471,eb:33:2e:f9:57:b5, 2085-97-199 01:199:01:2010,0.014,0.114,0.755,100.952,58.777,17.7,-0.099,-24.318,-115.884
 15:38:33.471,eb:33:2e:f9:57:b5, 2085-97-143 00:27:03:3027,0.159,0.387,1.585,86.121,121.582,38.452,0.747,-23.632,-115.576
 15:38:33.471,eb:33:2e:f9:57:b5, 2085-97-97 01:177:01:1680,0.249,0.419,1.013,34.79,202.332,38.391,1.132,-21.797,-115.109
 15:38:33.559,eb:33:2e:f9:57:b5, 2085-97-241 01:120:00:1802,0.225,0.032,0.837,20.996,158.936,30.762,1.247,-20.012,-114.692
 15:38:33.559,eb:33:2e:f9:57:b5, 2085-97-200 01:129:00:1730,0.228,-0.02,0.913,10.376,132.69,6.714,1.324,-18.583,-114.494
 15:38:33.559,eb:33:2e:f9:57:b5, 2085-97-40 02:30:01:1689,0.329,0.148,0.827,9.888,93.689,9.46,1.406,-17.457,-114.401
 15:38:33.559,eb:33:2e:f9:57:b5, 2085-97-251 02:140:00:1716,0.338,0.108,0.805,8.667,47.974,15.503,1.45,-16.765,-114.241
 15:38:33.560,eb:33:2e:f9:57:b5, 2085-97-114 02:46:00:1987,0.312,0.011,0.925,11.597,20.691,10.498,1.522,-16.474,-114.109
 15:38:33.560,eb:33:2e:f9:57:b5, 2085-97-161 02:158:00:1899,0.331,0.06,0.942,12.146,21.912,13.611,1.609,-16.26,-113.978
 15:38:33.560,eb:33:2e:f9:57:b5, 2085-97-126 02:28:00:1986,0.288,0.049,0.938,9.338,18.433,11.719,1.681,-16.057,-113.84
 15:38:33.560,eb:33:2e:f9:57:b5, 2085-97-30 02:41:00:2006,0.264,0.009,0.986,11.108,21.667,11.963,1.752,-15.864,-113.714
 15:38:33.588,eb:33:2e:f9:57:b5, 2085-97-244 01:41:00:1981,0.231,0.027,0.969,11.23,24.231,13.062,1.835,-15.628,-113.577
 15:38:33.588,eb:33:2e:f9:57:b5, 2085-97-201 01:52:00:1988,0.21,0.018,0.981,11.658,24.536,14.893,1.912,-15.397,-113.428
 15:38:33.588,eb:33:2e:f9:57:b5, 2085-97-179 01:49:00:1971,0.211,0.023,0.953,11.841,19.592,16.479,1.994,-15.167,-113.258
 15:38:33.588,eb:33:2e:f9:57:b5, 2085-97-239 01:60:00:1985,0.246,0.022,0.957,12.268,12.573,17.822,2.065,-15.018,-113.077
 15:38:33.650,eb:33:2e:f9:57:b5, 2085-97-243 01:39:00:2013,0.261,0.022,0.971,12.146,11.23,18.372,2.148,-14.903,-112.89
 15:38:33.650,eb:33:2e:f9:57:b5, 2085-97-14 02:56:00:2011,0.269,0.027,0.982,12.817,14.221,20.508,2.225,-14.788,-112.681
 15:38:33.650,eb:33:2e:f9:57:b5, 2085-97-48 02:55:00:2048,0.278,0.03,0.985,13.672,17.7,21.912,2.307,-14.628,-112.456
 15:38:33.650,eb:33:2e:f9:57:b5, 2085-97-63 02:59:00:2072,0.291,0.026,1.006,14.038,28.442,22.949,2.39,-14.403,-112.214
 15:38:33.739,eb:33:2e:f9:57:b5, 2085-97-75 02:85:00:2044,0.271,0.04,0.99,14.221,40.039,24.536,2.477,-14.057,-111.956
 15:38:33.739,eb:33:2e:f9:57:b5, 2085-97-27 02:89:00:2042,0.242,0.037,1.003,13.855,50.476,24.231,2.554,-13.612,-111.687
 15:38:33.739,eb:33:2e:f9:57:b5, 2085-97-236 01:97:00:2018,0.232,0.041,0.981,13.489,57.556,24.719,2.637,-13.063,-111.418
 15:38:33.739,eb:33:2e:f9:57:b5, 2085-97-204 01:97:00:2014,0.239,0.044,0.985,13.55,61.707,25.085,2.708,-12.475,-111.138
 15:38:33.739,eb:33:2e:f9:57:b5, 2085-97-218 01:123:00:1981,0.218,0.061,0.971,12.756,65.674,23.621,2.791,-11.843,-110.852
 15:38:33.739,eb:33:2e:f9:57:b5, 2085-97-158 01:103:00:2011,0.188,0.055,0.979,11.841,65.613,19.714,2.867,-11.201,-110.605
 15:38:33.739,eb:33:2e:f9:57:b5, 2085-97-141 01:114:00:1996,0.225,0.045,0.978,11.719,64.331,17.212,2.95,-10.552,-110.391
 15:38:33.739,eb:33:2e:f9:57:b5, 2085-97-140 01:134:00:2002,0.167,0.076,0.979,10.559,60.181,10.254,3.038,-9.948,-110.215
 15:38:33.768,eb:33:2e:f9:57:b5, 2085-97-50 01:124:00:1987,0.178,0.075,0.969,8.545,53.528,1.343,3.131,-9.377,-110.127
 15:38:33.768,eb:33:2e:f9:57:b5, 2085-97-147 01:164:00:2041,0.178,0.078,0.983,6.287,46.265,-8.484,3.208,-8.888,-110.132
 15:38:33.768,eb:33:2e:f9:57:b5, 2085-97-57 01:106:00:2088,0.127,0.066,1.002,3.357,47.363,-20.02,3.279,-8.405,-110.27
 15:38:33.768,eb:33:2e:f9:57:b5, 2085-97-32 01:69:00:2075,0.137,0.028,1.014,3.174,51.453,-23.804,3.334,-7.888,-110.479
 15:38:33.799,eb:33:2e:f9:57:b5, 2085-97-70 01:98:00:2098,0.146,0.032,1.043,5.249,50.354,-25.391,3.417,-7.383,-110.704
 15:38:33.799,eb:33:2e:f9:57:b5, 2085-97-33 01:102:00:2084,0.113,0.044,1.033,6.348,49.072,-29.48,3.505,-6.872,-110.962
 15:38:33.799,eb:33:2e:f9:57:b5, 2085-97-212 00:77:00:2151,0.096,0.03,1.046,8.972,45.959,-32.227,3.62,-6.389,-111.248
 15:38:33.799,eb:33:2e:f9:57:b5, 2085-97-158 00:98:00:2094,0.065,0.044,1.039,9.644,47.791,-35.522,3.752,-5.894,-111.561
 15:38:33.828,eb:33:2e:f9:57:b5, 2085-97-61 00:62:00:2087,0.003,0.048,1.017,9.827,46.448,-38.513,3.889,-5.4,-111.907
 15:38:33.828,eb:33:2e:f9:57:b5, 2085-97-16 00:70:00:2050,0.043,0.029,0.982,12.573,38.696,-36.56,4.032,-4.927,-112.253
 15:38:33.828,eb:33:2e:f9:57:b5, 2085-97-119 00:101:00:2113,0.078,0.055,1.024,15.198,26.917,-38.696,4.208,-4.592,-112.604
 15:38:33.828,eb:33:2e:f9:57:b5, 2085-97-198 00:146:00:2145,0.14,0.058,1.019,17.334,21.301,-40.649,4.4,-4.318,-112.983
 15:38:33.889,eb:33:2e:f9:57:b5, 2085-97-85 01:202:00:2190,0.162,0.094,1.067,18.555,16.235,-50.598,4.62,-4.109,-113.423
 15:38:33.889,eb:33:2e:f9:57:b5, 2085-97-64 01:167:00:2347,0.181,0.087,1.099,19.47,12.695,-66.589,4.85,-3.917,-114.005
 15:38:33.889,eb:33:2e:f9:57:b5, 2085-97-163 01:164:00:2385,0.181,0.083,1.147,20.63,11.475,-84.595,5.109,-3.724,-114.758
 15:38:33.889,eb:33:2e:f9:57:b5, 2085-97-31 01:46:00:2397,0.069,0.053,1.194,23.804,13.306,-93.262,5.383,-3.527,-115.648
 15:38:33.918,eb:33:2e:f9:57:b5, 2085-97-10 00:235:255:2305,-0.035,0.006,1.125,31.799,12.512,-85.876,5.718,-3.296,-116.537
 15:38:33.918,eb:33:2e:f9:57:b5, 2085-97-115 255:133:255:2371,-0.074,-0.031,1.157,41.382,6.531,-70.923,6.13,-3.137,-117.307
 15:38:33.918,eb:33:2e:f9:57:b5, 2085-97-104 255:171:255:2445,-0.053,-0.045,1.176,51.208,4.333,-53.528,6.636,-3.016,-117.9
 15:38:33.918,eb:33:2e:f9:57:b5, 2085-97-227 255:215:255:2513,0.016,-0.029,1.191,62.683,-2.93,-42.236,7.234,-2.944,-118.361
 15:38:33.948,eb:33:2e:f9:57:b5, 2085-97-86 00:31:00:2560,0.052,-0.005,1.265,75.073,-8.911,-37.903,7.954,-2.961,-118.762
 15:38:33.948,eb:33:2e:f9:57:b5, 2085-97-155 00:58:00:2567,0.08,0.021,1.25,85.938,-15.93,-37.842,8.784,-3.027,-119.158
 15:38:33.948,eb:33:2e:f9:57:b5, 2085-97-222 00:94:00:2601,0.146,0.026,1.277,97.229,-24.109,-40.1,9.728,-3.164,-119.575
 15:38:33.948,eb:33:2e:f9:57:b5, 2085-97-89 01:140:00:2640,0.22,0.053,1.292,108.521,-31.433,-42.664,10.789,-3.378,-120.042
 15:38:34.010,eb:33:2e:f9:57:b5, 2085-97-156 01:134:00:2704,0.213,0.077,1.281,120.85,-37.292,-42.664,11.975,-3.636,-120.526
 15:38:34.010,eb:33:2e:f9:57:b5, 2085-97-124 01:75:00:2776,0.209,0.052,1.321,135.742,-34.058,-35.583,13.293,-3.9,-120.987
 15:38:34.010,eb:33:2e:f9:57:b5, 2085-97-114 01:26:00:2839,0.175,0.028,1.349,153.687,-29.297,-23.682,14.777,-4.136,-121.349
 15:38:34.010,eb:33:2e:f9:57:b5, 2085-97-55 01:02:00:2923,0.222,0.003,1.396,174.255,-19.043,-8.911,16.441,-4.334,-121.558
 15:38:34.038,eb:33:2e:f9:57:b5, 2085-113-58 00:75:226:-8085,0.32,0.008,1.478,197.937,-17.456,0.977,18.325,-4.493,-121.641
 15:38:34.038,eb:33:2e:f9:57:b5, 2085-97-15 03:06:00:3274,0.403,0,1.539,212.341,-7.874,9.583,19.358,-4.559,-121.635
 15:38:34.038,eb:33:2e:f9:57:b5, 2085-97-66 03:237:255:3194,0.351,0.022,1.597,243.103,34.302,26.55,21.632,-4.482,-121.399
 15:38:34.038,eb:33:2e:f9:57:b5, 2085-97-172 02:160:255:3193,0.315,-0.039,1.596,275.024,50.537,36.316,24.214,-4.202,-120.91
 15:38:34.100,eb:33:2e:f9:57:b5, 2085-97-248 02:10:255:3478,0.441,-0.112,1.644,300.232,43.335,16.541,27.081,-3.9,-120.471
 15:38:34.100,eb:33:2e:f9:57:b5, 2085-97-208 03:00:255:3810,0.375,-0.127,1.741,321.106,40.527,-15.625,30.179,-3.516,-120.267
 15:38:34.100,eb:33:2e:f9:57:b5, 2085-97-250 01:196:255:4315,0.305,-0.114,2.04,344.91,24.536,-54.199,33.536,-3.054,-120.399
 15:38:34.100,eb:33:2e:f9:57:b5, 2085-97-131 03:10:02:5520,0.442,0.062,2.343,352.478,16.907,-101.685,37.073,-2.477,-121.014
 15:38:34.128,eb:33:2e:f9:57:b5, 2085-97-198 02:93:04:5063,0.423,0.287,2.624,351.257,100.586,-109.07,40.578,-1.269,-121.492
 15:38:34.128,eb:33:2e:f9:57:b5, 2085-97-216 03:75:05:4156,0.558,0.618,2.144,358.887,123.779,-99.854,44.121,0.33,-121.476
 15:38:34.128,eb:33:2e:f9:57:b5, 2085-97-171 04:20:04:4423,0.47,0.613,2.084,367.676,140.32,-87.341,47.774,1.884,-121.201
 15:38:34.128,eb:33:2e:f9:57:b5, 2085-97-16 03:58:04:3923,0.165,0.524,2.083,365.112,221.924,-59.204,51.504,3.625,-120.278
 15:38:34.158,eb:33:2e:f9:57:b5, 2085-97-228 00:235:03:3368,0.074,0.556,1.817,341.187,277.161,-28.687,55.195,5.482,-118.504
 15:38:34.158,eb:33:2e:f9:57:b5, 2085-97-208 01:194:01:4142,0.445,0.403,1.83,306.885,226.99,-17.09,58.64,7.031,-116.499
 15:38:34.158,eb:33:2e:f9:57:b5, 2085-97-88 04:87:252:3236,0.628,-0.058,1.881,263.367,232.788,-9.644,61.732,8.311,-114.554
 15:38:34.158,eb:33:2e:f9:57:b5, 2085-97-48 06:190:247:1735,0.929,-0.821,1.234,219.727,187.622,1.404,64.424,9.278,-112.681
 15:38:34.189,eb:33:2e:f9:57:b5, 2085-97-191 08:46:247:1218,0.416,-1.041,0.583,194.092,153.259,-14.893,66.687,10.003,-111.198
 15:38:34.189,eb:33:2e:f9:57:b5, 2085-97-215 249:43:01:-859,0.843,0.215,0.384,234.314,183.96,-87.891,69.208,11.129,-109.649
 15:38:34.189,eb:33:2e:f9:57:b5, 2085-97-106 06:227:252:-1976,0.075,0,-1.542,103.577,-7.812,-90.088,70.939,12.437,-109.232
 15:38:34.189,eb:33:2e:f9:57:b5, 2085-97-212 01:227:250:-1018,0.423,-0.676,-0.792,-29.053,-74.951,-36.743,71.076,12.892,-109.869
 15:38:34.248,eb:33:2e:f9:57:b5, 2085-97-117 03:158:249:811,0.384,-0.722,0.043,-140.503,-78.369,-3.296,69.922,12.755,-110.781
 15:38:34.248,eb:33:2e:f9:57:b5, 2085-97-56 03:219:249:1500,0.462,-0.804,0.597,-193.726,-61.34,1.77,68.044,12.497,-111.396
 15:38:34.248,eb:33:2e:f9:57:b5, 2085-97-191 03:50:250:1384,0.459,-0.736,0.736,-212.585,-54.565,-16.174,65.847,12.332,-111.984
 15:38:34.248,eb:33:2e:f9:57:b5, 2085-97-136 03:255:250:932,0.434,-0.673,0.545,-215.271,-44.556,-24.658,63.589,12.316,-112.511
 15:38:34.279,eb:33:2e:f9:57:b5, 2085-97-73 03:243:251:747,0.376,-0.565,0.405,-217.163,-48.523,-29.541,61.293,12.343,-113.077
 15:38:34.279,eb:33:2e:f9:57:b5, 2085-97-201 02:163:252:654,0.352,-0.457,0.336,-226.013,-51.758,-28.748,58.953,12.343,-113.67
 15:38:34.279,eb:33:2e:f9:57:b5, 2085-97-205 02:05:253:712,0.354,-0.388,0.316,-242.188,-61.707,-28.931,56.453,12.277,-114.324
 15:38:34.279,eb:33:2e:f9:57:b5, 2085-97-214 02:51:253:874,0.353,-0.36,0.391,-262.695,-69.214,-28.503,53.767,12.129,-115.049
 15:38:34.308,eb:33:2e:f9:57:b5, 2085-97-203 02:82:253:1089,0.339,-0.346,0.475,-278.503,-72.571,-26.367,50.878,11.909,-115.801
 15:38:34.308,eb:33:2e:f9:57:b5, 2085-97-172 02:209:253:1173,0.322,-0.311,0.573,-288.025,-72.632,-22.644,47.884,11.618,-116.532
 15:38:34.308,eb:33:2e:f9:57:b5, 2085-97-118 02:65:254:1207,0.306,-0.237,0.566,-295.105,-79.102,-19.226,44.808,11.239,-117.23
 15:38:34.308,eb:33:2e:f9:57:b5, 2085-97-131 02:139:254:1450,0.315,-0.203,0.639,-299.133,-97.351,-14.465,41.693,10.706,-117.971
 15:38:34.399,eb:33:2e:f9:57:b5, 2085-97-81 02:189:254:1773,0.288,-0.175,0.788,-300.171,-105.591,-5.005,38.54,9.97,-118.724
 15:38:34.399,eb:33:2e:f9:57:b5, 2085-97-88 02:211:254:1981,0.327,-0.159,0.892,-299.744,-110.657,-0.977,35.425,9.124,-119.399
 15:38:34.399,eb:33:2e:f9:57:b5, 2085-97-180 02:138:255:2264,0.335,-0.081,1.03,-296.265,-114.075,8.545,32.338,8.146,-120.004
 15:38:34.400,eb:33:2e:f9:57:b5, 2085-97-180 02:72:00:2346,0.307,-0.027,1.136,-292.664,-112.305,14.404,29.328,7.125,-120.471
 15:38:34.400,eb:33:2e:f9:57:b5, 2085-97-118 02:208:00:2452,0.286,0.075,1.171,-289.185,-122.681,16.846,26.356,5.999,-120.877
 15:38:34.400,eb:33:2e:f9:57:b5, 2085-97-159 02:25:01:2733,0.32,0.067,1.27,-284.241,-136.902,24.475,23.456,4.73,-121.251
 15:38:34.400,eb:33:2e:f9:57:b5, 2085-97-149 02:181:00:2936,0.339,0.111,1.31,-283.997,-150.269,27.649,20.566,3.318,-121.547
 15:38:34.400,eb:33:2e:f9:57:b5, 2085-97-188 02:218:00:3127,0.376,0.098,1.477,-283.081,-156.372,33.813,17.721,1.758,-121.75
 15:38:34.428,eb:33:2e:f9:57:b5, 2085-97-15 03:218:00:3324,0.373,0.114,1.568,-279.846,-167.297,38.574,14.886,0.082,-121.849
 15:38:34.428,eb:33:2e:f9:57:b5, 2085-97-219 02:165:00:3497,0.351,0.104,1.665,-273.682,-174.927,45.776,12.123,-1.675,-121.833
 15:38:34.428,eb:33:2e:f9:57:b5, 2085-97-178 02:164:00:3731,0.319,0.083,1.747,-265.808,-181.946,53.284,9.404,-3.538,-121.657
 15:38:34.428,eb:33:2e:f9:57:b5, 2085-97-141 02:213:00:3931,0.335,0.088,1.864,-256.348,-187.439,60.852,6.773,-5.444,-121.344
 15:38:34.490,eb:33:2e:f9:57:b5, 2085-97-138 02:117:01:4147,0.312,0.125,1.974,-248.84,-190.979,69.397,4.186,-7.41,-120.861
 15:38:34.490,eb:33:2e:f9:57:b5, 2085-97-136 02:215:02:4296,0.324,0.262,2.059,-247.864,-195.74,70.984,1.62,-9.371,-120.229
 15:38:34.490,eb:33:2e:f9:57:b5, 2085-97-151 02:165:04:4455,0.286,0.463,2.14,-252.502,-201.233,63.416,-1.016,-11.376,-119.542
 15:38:34.490,eb:33:2e:f9:57:b5, 2085-97-242 01:76:06:4590,0.205,0.693,2.217,-256.775,-200.867,51.147,-3.708,-13.365,-118.872
 15:38:34.518,eb:33:2e:f9:57:b5, 2085-97-66 01:165:07:4626,0.119,0.882,2.248,-254.7,-199.524,39.246,-6.443,-15.326,-118.218
 15:38:34.518,eb:33:2e:f9:57:b5, 2085-97-92 00:155:08:4656,-0.051,1.031,2.27,-245.483,-195.923,29.907,-9.119,-17.243,-117.576
 15:38:34.518,eb:33:2e:f9:57:b5, 2085-97-194 254:188:09:4503,-0.255,1.142,2.243,-227.6,-190.186,26.367,-11.7,-19.083,-116.911
 15:38:34.518,eb:33:2e:f9:57:b5, 2085-97-48 253:127:11:4397,-0.418,1.321,2.163,-203.857,-192.078,28.564,-14.101,-20.885,-116.164
 15:38:34.578,eb:33:2e:f9:57:b5, 2085-97-90 252:252:14:4244,-0.537,1.614,2.115,-173.706,-182.007,41.504,-16.32,-22.61,-115.269
 15:38:34.578,eb:33:2e:f9:57:b5, 2085-97-50 248:08:20:3685,-1.633,2.194,1.988,-136.475,-145.264,55.725,-18.276,-24.044,-114.214
 15:38:34.578,eb:33:2e:f9:57:b5, 2085-97-58 241:232:26:3008,-1.535,2.966,1.388,-73.73,-165.894,87.83,-19.847,-25.06,-112.906
 15:38:34.578,eb:33:2e:f9:57:b5, 2085-97-05 243:92:27:5274,-1.257,3.306,2.175,-7.324,-199.341,62.195,-20.912,-26.796,-111.357
 15:38:34.638,eb:33:2e:f9:57:b5, 2085-97-131 250:110:23:6066,-0.57,3.34,2.092,46.448,-178.833,19.226,-21.226,-28.13,-110.237
 15:38:34.638,eb:33:2e:f9:57:b5, 2085-97-62 251:167:19:4513,-0.41,2.652,2.523,79.712,49.744,-3.967,-20.671,-28.515,-110.001
 15:38:34.638,eb:33:2e:f9:57:b5, 2085-97-187 13:76:13:8194,0.615,2.176,2.173,112.488,103.088,-42.847,-19.484,-27.653,-110.594
 15:38:34.638,eb:33:2e:f9:57:b5, 2085-97-185 09:108:255:819,0.402,0.86,4.386,145.325,335.327,-99.609,-17.172,-27.845,-112.077
 15:38:34.643,eb:33:2e:f9:57:b5, 2085-97-47 02:72:252:-264,0.527,-0.276,-1.218,185.486,-48.828,-33.63,-15.024,-25.675,-113.176
 15:38:34.643,eb:33:2e:f9:57:b5, 2085-97-252 01:107:248:1678,0.261,-0.85,1.251,153.259,-190.735,-136.292,-13.074,-28.004,-113.73
 15:38:34.643,eb:33:2e:f9:57:b5, 2085-97-114 03:160:253:1838,0.409,-0.6,0.747,172.607,-210.327,-143.127,-10.937,-30.179,-114.857
 15:38:34.644,eb:33:2e:f9:57:b5, 2085-113-58 00:13:228:-2880,0.428,-0.105,1.251,196.96,-177.979,-109.619,-8.498,-32.448,-115.933
 15:38:34.644,eb:33:2e:f9:57:b5, 2085-97-24 04:81:00:2455,0.499,0.002,1.209,199.036,-133.667,-94.543,-7.251,-33.261,-116.4
 15:38:34.760,eb:33:2e:f9:57:b5, 2085-97-164 02:195:255:2913,0.124,-0.037,1.452,191.162,-16.846,-63.354,-4.823,-34.118,-117.224
 15:38:34.760,eb:33:2e:f9:57:b5, 2085-97-232 00:01:02:2654,0.168,0.148,1.415,170.349,60.425,-32.41,-2.697,-33.772,-117.784
 15:38:34.760,eb:33:2e:f9:57:b5, 2085-97-102 01:225:02:2559,0.277,0.406,1.1,139.832,-7.507,-0.854,-1.038,-33.486,-117.977
 15:38:34.760,eb:33:2e:f9:57:b5, 2085-97-155 02:136:01:1853,0.312,0.263,1.046,94.849,-8.728,-8.118,0.11,-33.558,-118.004
 15:38:34.760,eb:33:2e:f9:57:b5, 2085-97-208 02:148:00:2082,0.39,0.096,1.018,75.989,-26.855,-8.728,1.022,-33.777,-118.141
 15:38:34.760,eb:33:2e:f9:57:b5, 2085-97-133 03:175:01:2024,0.472,0.17,1.018,67.2,-10.62,9.705,1.736,-33.986,-118.12
 15:38:34.761,eb:33:2e:f9:57:b5, 2085-97-17 04:95:01:1763,0.489,0.23,0.911,63.599,9.399,26.855,2.263,-33.97,-117.878
 15:38:34.761,eb:33:2e:f9:57:b5, 2085-97-23 04:217:00:1748,0.561,0.117,0.856,52.49,16.785,24.109,2.664,-33.832,-117.57
 15:38:34.763,eb:33:2e:f9:57:b5, 2085-97-196 04:96:01:1598,0.592,0.154,0.815,47.424,24.048,26.306,2.994,-33.635,-117.257
 15:38:34.763,eb:33:2e:f9:57:b5, 2085-97-182 04:210:00:1656,0.606,0.163,0.779,33.325,31.067,25.452,3.219,-33.365,-116.927
 15:38:34.763,eb:33:2e:f9:57:b5, 2085-97-225 04:92:00:1675,0.622,0.05,0.817,32.104,36.377,26.733,3.356,-33.036,-116.598
 15:38:34.763,eb:33:2e:f9:57:b5, 2085-97-254 04:218:00:1630,0.61,0.075,0.813,33.325,46.021,26.428,3.51,-32.64,-116.246
 15:38:34.878,eb:33:2e:f9:57:b5, 2085-97-166 04:185:00:1692,0.538,0.104,0.808,26.123,54.199,21.79,3.647,-32.146,-115.933
 15:38:34.878,eb:33:2e:f9:57:b5, 2085-97-52 04:157:00:1745,0.488,0.067,0.848,22.278,61.89,20.325,3.735,-31.569,-115.653
 15:38:34.878,eb:33:2e:f9:57:b5, 2085-97-158 03:123:00:1783,0.412,0.074,0.864,18.005,63.11,17.456,3.807,-30.948,-115.389
 15:38:34.878,eb:33:2e:f9:57:b5, 2085-97-51 03:70:00:1845,0.387,0.037,0.873,16.846,51.697,15.808,3.862,-30.377,-115.159
 15:38:34.880,eb:33:2e:f9:57:b5, 2085-97-33 03:66:00:1822,0.404,0.028,0.896,18.616,39.795,15.93,3.939,-29.927,-114.95
 15:38:34.880,eb:33:2e:f9:57:b5, 2085-97-93 03:92:00:1817,0.438,0.041,0.89,20.813,27.954,17.029,4.032,-29.614,-114.73
 15:38:34.880,eb:33:2e:f9:57:b5, 2085-97-146 03:94:00:1800,0.457,0.054,0.878,21.423,21.606,17.883,4.147,-29.377,-114.51
 15:38:34.880,eb:33:2e:f9:57:b5, 2085-97-196 03:74:00:1869,0.492,0.037,0.899,22.522,20.569,20.874,4.252,-29.191,-114.28
 15:38:34.883,eb:33:2e:f9:57:b5, 2085-97-11 04:111:00:1840,0.525,0.046,0.914,24.536,29.358,24.414,4.367,-28.96,-114
 15:38:34.883,eb:33:2e:f9:57:b5, 2085-97-21 04:105:00:1887,0.514,0.056,0.9,25.452,40.344,25.818,4.46,-28.63,-113.676
 15:38:34.883,eb:33:2e:f9:57:b5, 2085-97-255 03:131:00:1871,0.5,0.063,0.895,26.001,55.176,27.405,4.565,-28.152,-113.335
 15:38:34.883,eb:33:2e:f9:57:b5, 2085-97-199 03:138:00:1894,0.463,0.069,0.919,25.146,66.956,26.123,4.658,-27.559,-112.972
 15:38:34.941,eb:33:2e:f9:57:b5, 2085-97-177 03:134:00:1919,0.472,0.064,0.938,24.231,81.421,26.428,4.752,-26.829,-112.615
 15:38:34.941,eb:33:2e:f9:57:b5, 2085-97-128 03:128:00:1965,0.451,0.073,0.921,23.438,95.215,26.428,4.823,-25.961,-112.242
 15:38:34.941,eb:33:2e:f9:57:b5, 2085-97-207 03:175:00:1889,0.429,0.08,0.95,21.606,116.577,27.649,4.889,-24.911,-111.841
 15:38:34.941,eb:33:2e:f9:57:b5, 2085-97-108 03:169:00:1935,0.393,0.082,0.933,18.433,128.54,22.644,4.933,-23.703,-111.456
 15:38:34.970,eb:33:2e:f9:57:b5, 2085-97-65 03:206:00:1892,0.394,0.092,0.957,13.489,142.822,16.052,4.977,-22.368,-111.132
 15:38:34.970,eb:33:2e:f9:57:b5, 2085-97-233 02:197:00:1838,0.354,0.098,0.905,8.484,144.714,6.653,4.993,-20.934,-110.885
 15:38:34.970,eb:33:2e:f9:57:b5, 2085-97-234 02:198:00:1897,0.361,0.092,0.926,6.531,138.428,-0.061,5.021,-19.523,-110.726
 15:38:34.970,eb:33:2e:f9:57:b5, 2085-97-220 02:158:00:1877,0.359,0.082,0.905,6.226,129.7,-6.226,5.054,-18.177,-110.654
 15:38:35.030,eb:33:2e:f9:57:b5, 2085-97-210 02:166:00:1949,0.351,0.08,0.934,9.216,115.479,-8.423,5.136,-16.952,-110.621
 15:38:35.030,eb:33:2e:f9:57:b5, 2085-97-188 02:166:00:1983,0.339,0.082,0.96,12.207,107.605,-13.489,5.251,-15.848,-110.638
 15:38:35.030,eb:33:2e:f9:57:b5, 2085-97-214 02:173:00:1995,0.35,0.085,0.96,14.099,105.408,-18.372,5.411,-14.771,-110.704
 15:38:35.030,eb:33:2e:f9:57:b5, 2085-97-132 02:168:00:2035,0.267,0.087,0.995,16.113,106.14,-25.146,5.592,-13.705,-110.825
 15:38:35.060,eb:33:2e:f9:57:b5, 2085-97-224 01:135:00:2081,0.24,0.071,1.005,18.372,100.769,-32.959,5.823,-12.645,-111.033
 15:38:35.060,eb:33:2e:f9:57:b5, 2085-97-167 01:177:00:2080,0.173,0.085,1,19.043,94.055,-41.321,6.07,-11.635,-111.302
 15:38:35.060,eb:33:2e:f9:57:b5, 2085-97-82 01:195:00:2089,0.204,0.099,1.019,19.775,83.374,-52.368,6.345,-10.706,-111.682
 15:38:35.060,eb:33:2e:f9:57:b5, 2085-97-204 01:249:00:2164,0.179,0.1,1.04,20.142,71.655,-64.88,6.636,-9.877,-112.192
 15:38:35.089,eb:33:2e:f9:57:b5, 2085-97-229 00:202:00:2014,0.064,0.124,1.004,17.517,71.411,-78.491,6.938,-9.08,-112.846
 15:38:35.089,eb:33:2e:f9:57:b5, 2085-97-22 00:156:00:2045,0.015,0.088,1.007,17.944,56.885,-85.754,7.224,-8.361,-113.604
 15:38:35.089,eb:33:2e:f9:57:b5, 2085-97-25 00:124:00:2055,0.019,0.076,0.963,19.897,40.039,-86.06,7.531,-7.762,-114.406
 15:38:35.089,eb:33:2e:f9:57:b5, 2085-97-47 00:77:00:2298,0.071,0.056,1.058,25.94,24.048,-80.322,7.861,-7.35,-115.192
 15:38:35.119,eb:33:2e:f9:57:b5, 2085-97-28 01:137:00:2419,0.182,0.07,1.149,32.654,18.311,-80.811,8.262,-7.031,-115.955
 15:38:35.119,eb:33:2e:f9:57:b5, 2085-97-168 01:150:00:2534,0.192,0.072,1.233,40.527,15.747,-85.571,8.729,-6.757,-116.763
 15:38:35.119,eb:33:2e:f9:57:b5, 2085-97-57 01:191:00:2487,0.119,0.075,1.22,48.889,16.968,-89.539,9.278,-6.449,-117.603
 15:38:35.119,eb:33:2e:f9:57:b5, 2085-97-120 00:82:00:2498,0.039,0.074,1.187,56.702,9.277,-94.788,9.91,-6.163,-118.499
 15:38:35.180,eb:33:2e:f9:57:b5, 2085-97-97 00:55:00:2571,0.074,0.021,1.229,68.481,0.305,-90.393,10.635,-5.955,-119.41
 15:38:35.180,eb:33:2e:f9:57:b5, 2085-97-196 00:113:00:2586,0.114,0.048,1.257,80.872,-5.249,-84.106,11.475,-5.828,-120.273
 15:38:35.180,eb:33:2e:f9:57:b5, 2085-97-94 01:138:00:2684,0.167,0.065,1.285,93.018,-8.179,-81.848,12.437,-5.718,-121.102
 15:38:35.180,eb:33:2e:f9:57:b5, 2085-97-137 01:197:00:2635,0.235,0.088,1.321,106.689,-11.963,-80.383,13.524,-5.641,-121.904
 15:38:35.238,eb:33:2e:f9:57:b5, 2085-97-11 02:190:00:2765,0.321,0.079,1.318,119.69,-20.874,-81.116,14.744,-5.614,-122.739
 15:38:35.238,eb:33:2e:f9:57:b5, 2085-97-236 02:210:00:2814,0.407,0.12,1.331,135.986,-35.339,-80.933,16.117,-5.669,-123.602
 15:38:35.238,eb:33:2e:f9:57:b5, 2085-97-61 03:109:00:3040,0.36,0.089,1.434,155.518,-38.696,-71.106,17.666,-5.823,-124.442
 15:38:35.238,eb:33:2e:f9:57:b5, 2085-97-130 02:232:255:3165,0.329,0.013,1.517,179.749,-21.79,-55.664,19.418,-5.922,-125.145
 15:38:35.299,eb:33:2e:f9:57:b5, 2085-97-239 02:59:255:3471,0.405,-0.047,1.599,210.938,-12.451,-35.583,21.434,-5.911,-125.623
 15:38:35.299,eb:33:2e:f9:57:b5, 2085-97-178 03:235:254:3803,0.537,-0.092,1.783,246.948,12.756,-19.775,23.769,-5.812,-125.87
 15:38:35.299,eb:33:2e:f9:57:b5, 2085-97-20 04:45:254:3951,0.43,-0.168,1.881,287.109,38.086,-7.751,26.466,-5.532,-125.887
 15:38:35.299,eb:33:2e:f9:57:b5, 2085-97-249 02:115:253:4200,0.325,-0.267,2.016,331.543,60.242,-0.549,29.559,-5.054,-125.662
 15:38:35.301,eb:33:2e:f9:57:b5, 2085-97-199 02:123:254:4525,0.351,-0.256,2.087,365.173,41.382,-26.367,33.063,-4.537,-125.497
 15:38:35.301,eb:33:2e:f9:57:b5, 2085-97-63 02:253:00:5546,0.38,-0.038,2.481,385.315,47.119,-57.19,36.843,-3.977,-125.656
 15:38:35.301,eb:33:2e:f9:57:b5, 2085-97-04 03:48:02:5560,0.439,0.111,2.579,394.958,86.304,-70.496,40.743,-2.972,-125.75
 15:38:35.301,eb:33:2e:f9:57:b5, 2085-97-172 04:04:03:5305,0.737,0.307,2.759,406.738,133.85,-55.298,44.747,-1.752,-125.469
 15:38:35.330,eb:33:2e:f9:57:b5, 2085-97-89 07:241:02:4593,0.836,0.444,2.453,426.086,173.706,-37.964,48.917,-0.363,-124.623
 15:38:35.330,eb:33:2e:f9:57:b5, 2085-97-125 05:118:05:4693,0.69,0.43,2.153,426.208,235.413,-15.259,53.207,1.165,-123.212
 15:38:35.330,eb:33:2e:f9:57:b5, 2085-97-207 02:240:02:4405,-0.002,0.535,2.306,401.306,281.677,-44.189,57.431,2.856,-121.229
 15:38:35.330,eb:33:2e:f9:57:b5, 2085-97-148 00:222:00:3443,0.468,0.29,1.703,355.53,245.239,-46.814,61.359,4.724,-118.998
 15:38:35.360,eb:33:2e:f9:57:b5, 2085-97-206 04:57:251:3341,0.804,-0.044,1.848,281.982,181.763,-25.635,64.666,5.867,-117.477
 15:38:35.360,eb:33:2e:f9:57:b5, 2085-97-123 07:106:246:848,1.07,-1.199,0.907,219.36,140.015,-10.559,67.291,6.713,-116.005
 15:38:35.360,eb:33:2e:f9:57:b5, 2085-113-81 00:156:52:11525,0.394,-1.216,0.44,236.389,189.453,-11.108,69.571,7.295,-114.719
 15:38:35.360,eb:33:2e:f9:57:b5, 2085-97-58 251:106:04:-993,0.588,0.607,0.369,249.268,156.311,-78.125,70.972,7.8,-113.857
 15:38:35.448,eb:33:2e:f9:57:b5, 2085-97-149 02:27:254:-1300,0.056,0.461,-1.479,92.163,4.639,-96.68,72.702,9.02,-113.566
 15:38:35.448,eb:33:2e:f9:57:b5, 2085-97-80 01:79:252:-811,0.46,-0.378,-0.62,-41.321,-61.523,-28.503,72.812,9.443,-114.071
 15:38:35.448,eb:33:2e:f9:57:b5, 2085-97-39 04:239:250:975,0.429,-0.524,0.076,-164.001,-46.326,7.935,71.57,9.294,-114.725
 15:38:35.448,eb:33:2e:f9:57:b5, 2085-97-135 03:52:251:1824,0.529,-0.678,0.743,-213.867,-5.249,18.677,69.571,9.069,-114.857
 15:38:35.450,eb:33:2e:f9:57:b5, 2085-97-111 04:156:252:1765,0.559,-0.493,0.906,-222.473,10.803,-7.568,67.368,9.02,-114.807
 15:38:35.450,eb:33:2e:f9:57:b5, 2085-97-116 04:71:253:1188,0.554,-0.378,0.729,-216.37,25.208,-37.903,65.182,9.327,-114.714
 15:38:35.450,eb:33:2e:f9:57:b5, 2085-97-31 04:140:253:524,0.455,-0.318,0.421,-210.083,31.189,-61.829,63.051,9.921,-114.697
 15:38:35.450,eb:33:2e:f9:57:b5, 2085-97-43 03:130:253:-071,0.354,-0.304,0.096,-214.294,30.212,-73.242,60.93,10.679,-114.73
 15:38:35.478,eb:33:2e:f9:57:b5, 2085-97-162 02:22:253:-343,0.316,-0.333,-0.125,-229.675,3.418,-83.008,58.645,11.442,-114.994
 15:38:35.478,eb:33:2e:f9:57:b5, 2085-97-119 02:139:252:-233,0.315,-0.395,-0.17,-252.808,-31.006,-88.318,56.102,12.079,-115.604
 15:38:35.478,eb:33:2e:f9:57:b5, 2085-97-161 02:21:252:249,0.343,-0.465,-0.009,-276.367,-60.974,-88.257,53.223,12.513,-116.537
 15:38:35.478,eb:33:2e:f9:57:b5, 2085-97-184 02:23:252:726,0.336,-0.487,0.246,-293.579,-71.716,-81.543,50.12,12.75,-117.631
 15:38:35.538,eb:33:2e:f9:57:b5, 2085-97-172 02:85:252:979,0.343,-0.476,0.428,-303.04,-70.374,-69.214,46.873,12.832,-118.691
 15:38:35.538,eb:33:2e:f9:57:b5, 2085-97-220 02:231:252:1096,0.346,-0.43,0.524,-307.251,-65.063,-47.913,43.61,12.772,-119.614
 15:38:35.538,eb:33:2e:f9:57:b5, 2085-97-215 02:100:253:1235,0.357,-0.358,0.576,-307.495,-65.186,-27.344,40.358,12.53,-120.333
 15:38:35.538,eb:33:2e:f9:57:b5, 2085-97-221 02:220:253:1206,0.399,-0.302,0.587,-304.443,-79.529,-11.047,37.167,12.085,-120.938
 15:38:35.569,eb:33:2e:f9:57:b5, 2085-97-134 03:153:254:1377,0.474,-0.222,0.621,-298.889,-107.3,6.775,34.019,11.31,-121.509
 15:38:35.569,eb:33:2e:f9:57:b5, 2085-97-22 04:105:255:1666,0.532,-0.129,0.732,-293.213,-133.85,21.423,30.959,10.201,-122.042
 15:38:35.569,eb:33:2e:f9:57:b5, 2085-97-92 04:101:00:2098,0.547,-0.013,0.911,-287.598,-155.884,33.264,27.96,8.778,-122.525
 15:38:35.569,eb:33:2e:f9:57:b5, 2085-97-111 04:32:01:2517,0.58,0.103,1.131,-282.959,-166.443,45.776,25.06,7.141,-122.893
 15:38:35.600,eb:33:2e:f9:57:b5, 2085-97-209 04:202:01:2826,0.609,0.181,1.309,-279.602,-171.509,56.824,22.209,5.367,-123.085
 15:38:35.600,eb:33:2e:f9:57:b5, 2085-97-206 04:146:02:2852,0.608,0.278,1.399,-276.55,-175.415,60.12,19.424,3.538,-123.14
 15:38:35.600,eb:33:2e:f9:57:b5, 2085-97-239 04:80:03:2938,0.6,0.366,1.404,-270.447,-191.711,59.692,16.677,1.593,-123.135
 15:38:35.600,eb:33:2e:f9:57:b5, 2085-97-94 04:169:03:3086,0.478,0.447,1.464,-264.465,-209.167,54.932,14.002,-0.489,-123.107
 15:38:35.660,eb:33:2e:f9:57:b5, 2085-97-74 03:40:03:3347,0.37,0.435,1.562,-255.798,-230.225,54.443,11.387,-2.774,-123.058
 15:38:35.660,eb:33:2e:f9:57:b5, 2085-97-234 02:163:02:3853,0.373,0.356,1.74,-246.948,-251.587,58.96,8.871,-5.257,-122.915
 15:38:35.660,eb:33:2e:f9:57:b5, 2085-97-223 02:113:02:4442,0.305,0.307,2.042,-242.859,-255.127,66.833,6.378,-7.888,-122.618
 15:38:35.660,eb:33:2e:f9:57:b5, 2085-97-241 01:252:02:4680,0.227,0.321,2.241,-242.126,-240.784,73.486,3.878,-10.41,-122.119
 15:38:35.689,eb:33:2e:f9:57:b5, 2085-97-241 01:152:04:4810,0.253,0.458,2.328,-243.774,-233.826,74.646,1.302,-12.821,-121.459
 15:38:35.689,eb:33:2e:f9:57:b5, 2085-97-03 02:206:06:4803,0.238,0.706,2.352,-247.864,-224.731,67.383,-1.329,-15.106,-120.718
 15:38:35.689,eb:33:2e:f9:57:b5, 2085-97-163 01:34:09:4709,0.171,0.987,2.331,-247.742,-216.309,55.176,-4.037,-17.287,-119.965
 15:38:35.689,eb:33:2e:f9:57:b5, 2085-97-252 00:204:10:4520,0.06,1.254,2.25,-239.38,-211.548,37.354,-6.685,-19.358,-119.273
 15:38:35.718,eb:33:2e:f9:57:b5, 2085-97-173 255:183:11:4482,-0.167,1.408,2.188,-228.394,-209.717,22.156,-9.245,-21.423,-118.647
 15:38:35.718,eb:33:2e:f9:57:b5, 2085-97-176 253:131:12:4587,-0.417,1.509,2.216,-214.539,-200.439,10.925,-11.673,-23.412,-118.07
 15:38:35.718,eb:33:2e:f9:57:b5, 2085-97-01 252:20:14:4742,-0.543,1.642,2.303,-194.702,-176.453,10.498,-13.958,-25.236,-117.499
 15:38:35.718,eb:33:2e:f9:57:b5, 2085-97-103 251:13:17:4541,-0.62,1.907,2.289,-166.443,-132.446,22.827,-16.029,-26.675,-116.873
 15:38:35.778,eb:33:2e:f9:57:b5, 2085-97-234 249:216:20:4101,-1.079,2.374,2.112,-137.451,-70.19,16.235,-17.798,-27.592,-116.296
 15:38:35.778,eb:33:2e:f9:57:b5, 2085-97-30 244:194:24:2973,-1.624,2.881,1.626,-87.952,-37.109,29.114,-19.1,-27.861,-115.917
 15:38:35.778,eb:33:2e:f9:57:b5, 2085-97-157 243:36:25:4099,-1.343,3.245,1.581,-22.705,-107.117,19.775,-19.896,-28.515,-115.312
 15:38:35.778,eb:33:2e:f9:57:b5, 2085-97-150 246:09:22:4826,-1.023,2.968,2.258,41.321,-51.88,6.348,-19.984,-29.262,-114.851
 15:38:35.809,eb:33:2e:f9:57:b5, 2085-97-101 17:160:03:8195,0.293,2.462,2.414,87.341,38.574,-30.457,-19.254,-29.301,-114.966
 15:38:35.809,eb:33:2e:f9:57:b5, 2085-97-39 02:56:03:1952,0.008,0.77,6.625,131.531,369.263,-73.364,-17.183,-30.547,-115.829
 15:38:35.809,eb:33:2e:f9:57:b5, 2085-97-232 06:216:249:1889,0.836,-0.021,-2.949,173.157,-310.974,-65.613,-15.211,-28.378,-116.982
 15:38:35.809,eb:33:2e:f9:57:b5, 2085-97-204 02:207:243:870,0.198,-1.44,1.43,134.033,-166.992,-141.968,-13.409,-31.674,-117.499
 15:38:35.840,eb:33:2e:f9:57:b5, 2085-97-01 00:232:252:2458,0.161,-1,1.143,162.72,-116.028,-125.61,-11.299,-33.53,-118.669
 15:38:35.840,eb:33:2e:f9:57:b5, 2085-97-179 02:170:255:2448,0.471,-0.177,1.315,197.571,-14.282,-86.426,-8.833,-34.305,-119.822
 15:38:35.840,eb:33:2e:f9:57:b5, 2085-97-90 03:11:255:2526,0.375,0.068,1.13,208.435,38.025,-43.64,-6.345,-34.222,-120.564
 15:38:35.840,eb:33:2e:f9:57:b5, 2085-97-234 02:65:00:2250,0.148,-0.143,1.16,206.116,105.103,-15.442,-4.037,-33.426,-120.998
 15:38:35.931,eb:33:2e:f9:57:b5, 2085-97-169 00:194:03:2739,0.161,0.296,1.253,190.979,26.428,15.93,-1.994,-32.761,-121.031
 15:38:35.931,eb:33:2e:f9:57:b5, 2085-97-254 01:114:02:2223,0.308,0.526,1.287,139.282,-3.357,7.385,-0.445,-32.69,-120.877
 15:38:35.931,eb:33:2e:f9:57:b5, 2085-97-237 02:186:00:2181,0.45,0.215,1.024,106.812,-6.897,-2.991,0.764,-32.767,-120.861
 15:38:35.931,eb:33:2e:f9:57:b5, 2085-97-75 03:49:01:2252,0.403,0.104,1.016,84.229,21.79,2.625,1.703,-32.684,-120.877
 15:38:35.959,eb:33:2e:f9:57:b5, 2085-97-221 03:115:02:1877,0.549,0.337,1.076,81.543,70.068,35.645,2.401,-32.212,-120.635
 15:38:35.959,eb:33:2e:f9:57:b5, 2085-97-106 04:209:01:1552,0.588,0.275,0.783,71.716,92.102,51.147,2.867,-31.382,-120.031
 15:38:35.959,eb:33:2e:f9:57:b5, 2085-97-189 04:73:01:1592,0.611,0.174,0.786,54.321,99.915,46.143,3.175,-30.454,-119.41
 15:38:35.959,eb:33:2e:f9:57:b5, 2085-97-160 04:25:01:1589,0.468,0.177,0.726,32.593,99.854,32.532,3.351,-29.454,-118.894
 15:38:35.961,eb:33:2e:f9:57:b5, 2085-97-169 03:88:00:1864,0.471,0.087,0.899,19.47,99.67,27.039,3.417,-28.493,-118.521
 15:38:35.961,eb:33:2e:f9:57:b5, 2085-97-127 03:130:00:1752,0.413,0.051,0.862,20.264,102.722,29.297,3.433,-27.477,-118.125
 15:38:35.961,eb:33:2e:f9:57:b5, 2085-97-67 03:163:00:1781,0.399,0.072,0.87,17.639,90.271,24.658,3.472,-26.526,-117.768
 15:38:35.961,eb:33:2e:f9:57:b5, 2085-97-243 02:134:00:1789,0.341,0.076,0.856,14.099,77.271,21.057,3.494,-25.703,-117.46
 15:38:36.018,eb:33:2e:f9:57:b5, 2085-97-177 02:120:00:1777,0.335,0.055,0.877,13.184,57.922,19.104,3.527,-25.038,-117.202
 15:38:36.018,eb:33:2e:f9:57:b5, 2085-97-208 02:81:00:1861,0.356,0.051,0.887,12.39,33.569,15.564,3.565,-24.609,-116.982
 15:38:36.018,eb:33:2e:f9:57:b5, 2085-97-212 02:37:00:1911,0.362,0.021,0.927,14.038,22.4,15.076,3.631,-24.351,-116.807
 15:38:36.018,eb:33:2e:f9:57:b5, 2085-97-238 02:101:00:1896,0.385,0.033,0.93,17.395,17.09,18.188,3.713,-24.17,-116.609
 15:38:36.048,eb:33:2e:f9:57:b5, 2085-97-57 03:115:00:1899,0.41,0.055,0.923,17.517,17.883,20.996,3.807,-24.011,-116.384
 15:38:36.048,eb:33:2e:f9:57:b5, 2085-97-66 03:94:00:1931,0.412,0.047,0.938,17.395,24.17,22.339,3.884,-23.813,-116.136
 15:38:36.048,eb:33:2e:f9:57:b5, 2085-97-73 03:115:00:1914,0.4,0.057,0.945,17.517,35.828,25.391,3.955,-23.527,-115.851
 15:38:36.048,eb:33:2e:f9:57:b5, 2085-97-47 03:82:00:2006,0.403,0.048,0.963,17.395,46.204,27.161,4.01,-23.137,-115.532
 15:38:36.108,eb:33:2e:f9:57:b5, 2085-97-39 03:69:00:2066,0.395,0.035,0.997,19.409,62.012,29.236,4.065,-22.604,-115.192
 15:38:36.108,eb:33:2e:f9:57:b5, 2085-97-245 02:100:00:2022,0.355,0.046,0.993,20.935,80.322,30.762,4.131,-21.907,-114.813
 15:38:36.108,eb:33:2e:f9:57:b5, 2085-97-230 02:126:00:2040,0.339,0.051,0.981,21.362,95.52,32.593,4.202,-21.033,-114.406
 15:38:36.108,eb:33:2e:f9:57:b5, 2085-97-166 02:124:00:1976,0.36,0.052,1.01,21.79,104.98,27.466,4.285,-20.05,-114.011
 15:38:36.139,eb:33:2e:f9:57:b5, 2085-97-178 02:149:00:1958,0.312,0.078,0.938,21.912,104.004,22.034,4.395,-19.006,-113.665
 15:38:36.140,eb:33:2e:f9:57:b5, 2085-97-147 02:169:00:1922,0.296,0.082,0.943,20.02,100.525,15.015,4.521,-18.001,-113.395
 15:38:36.140,eb:33:2e:f9:57:b5, 2085-97-135 02:183:00:1896,0.35,0.082,0.935,17.7,95.581,9.155,4.658,-17.034,-113.198
 15:38:36.140,eb:33:2e:f9:57:b5, 2085-97-192 02:185:00:1900,0.333,0.103,0.929,15.137,90.637,2.502,4.79,-16.122,-113.06
 15:38:36.169,eb:33:2e:f9:57:b5, 2085-97-178 02:213:00:1875,0.345,0.088,0.942,13.733,88.257,-1.465,4.916,-15.222,-112.978
 15:38:36.169,eb:33:2e:f9:57:b5, 2085-97-134 02:216:00:1904,0.292,0.112,0.885,11.536,78.918,-8.545,5.037,-14.365,-112.961
 15:38:36.169,eb:33:2e:f9:57:b5, 2085-97-72 02:231:00:1893,0.257,0.111,0.952,9.277,71.777,-16.541,5.169,-13.618,-113.027
 15:38:36.169,eb:33:2e:f9:57:b5, 2085-97-229 01:196:00:2001,0.264,0.095,0.934,7.202,58.777,-26.489,5.284,-12.947,-113.192
 15:38:36.229,eb:33:2e:f9:57:b5, 2085-97-142 02:02:01:1890,0.301,0.125,0.946,2.197,57.068,-38.879,5.405,-12.338,-113.472
 15:38:36.229,eb:33:2e:f9:57:b5, 2085-97-27 02:198:00:1973,0.184,0.111,0.974,-1.831,58.35,-47.424,5.488,-11.75,-113.868
 15:38:36.229,eb:33:2e:f9:57:b5, 2085-97-41 01:133:00:2020,0.168,0.081,0.925,-2.563,62.195,-44.128,5.543,-11.063,-114.28
 15:38:36.229,eb:33:2e:f9:57:b5, 2085-97-185 01:186:00:2176,0.198,0.088,1.095,-1.709,50.842,-54.565,5.614,-10.514,-114.725
 15:38:36.229,eb:33:2e:f9:57:b5, 2085-97-26 01:98:00:2200,0.092,0.059,1.036,-0.427,59.753,-55.603,5.691,-9.882,-115.247
 15:38:36.259,eb:33:2e:f9:57:b5, 2085-113-58 00:198:223:-4890,0.052,0.063,1.104,2.441,57.861,-62.012,5.795,-9.25,-115.768
 15:38:36.259,eb:33:2e:f9:57:b5, 2085-97-79 00:87:00:2161,0.034,0.043,1.084,3.662,58.35,-64.453,5.856,-8.926,-116.06
 15:38:36.259,eb:33:2e:f9:57:b5, 2085-97-84 00:94:00:2216,0.045,0.045,1.072,8.728,46.387,-68.115,6.021,-8.344,-116.675
 15:38:36.259,eb:33:2e:f9:57:b5, 2085-97-74 00:67:00:2159,0.009,0.035,1.069,12.939,42.419,-71.716,6.224,-7.833,-117.339
 15:38:36.288,eb:33:2e:f9:57:b5, 2085-97-237 255:252:255:2222,0.033,0.011,1.061,21.118,32.104,-66.345,6.482,-7.383,-117.999
 15:38:36.288,eb:33:2e:f9:57:b5, 2085-97-147 00:52:00:2296,0.107,0.011,1.097,31.311,21.973,-58.472,6.828,-7.053,-118.586
 15:38:36.288,eb:33:2e:f9:57:b5, 2085-97-12 01:102:00:2327,0.153,0.047,1.12,40.405,16.541,-55.908,7.262,-6.79,-119.125
 15:38:36.288,eb:33:2e:f9:57:b5, 2085-97-73 01:79:00:2540,0.18,0.049,1.175,49.5,10.437,-58.594,7.778,-6.586,-119.674
 15:38:36.348,eb:33:2e:f9:57:b5, 2085-97-224 01:154:00:2625,0.243,0.05,1.288,59.57,7.935,-66.528,8.405,-6.411,-120.289
 15:38:36.348,eb:33:2e:f9:57:b5, 2085-97-244 01:120:00:2803,0.242,0.07,1.297,68.909,5.188,-71.106,9.124,-6.235,-120.97
 15:38:36.348,eb:33:2e:f9:57:b5, 2085-97-149 01:126:00:2668,0.173,0.049,1.37,78.796,11.78,-69.031,9.943,-6.042,-121.652
 15:38:36.348,eb:33:2e:f9:57:b5, 2085-97-42 01:127:00:2572,0.114,0.068,1.268,90.393,6.592,-69.031,10.865,-5.828,-122.311
 15:38:36.410,eb:33:2e:f9:57:b5, 2085-97-202 00:81:00:2636,0.109,0.038,1.275,101.746,-1.221,-66.772,11.898,-5.663,-122.986
 15:38:36.410,eb:33:2e:f9:57:b5, 2085-97-60 01:108:00:2597,0.162,0.043,1.265,114.807,-10.925,-62.866,13.046,-5.581,-123.64
 15:38:36.410,eb:33:2e:f9:57:b5, 2085-97-182 01:118:00:2711,0.285,0.038,1.303,128.784,-20.569,-56.641,14.332,-5.592,-124.266
 15:38:36.410,eb:33:2e:f9:57:b5, 2085-97-189 02:223:00:2814,0.384,0.09,1.355,143.86,-28.931,-54.321,15.765,-5.707,-124.871
 15:38:36.410,eb:33:2e:f9:57:b5, 2085-97-247 02:192:00:2912,0.389,0.122,1.38,160.4,-26.978,-54.138,17.353,-5.823,-125.464
 15:38:36.410,eb:33:2e:f9:57:b5, 2085-97-50 03:134:00:2901,0.413,0.08,1.4,180.42,-19.897,-47.058,19.122,-5.889,-126.019
 15:38:36.410,eb:33:2e:f9:57:b5, 2085-97-123 03:80:00:2930,0.409,0.06,1.442,203.613,-5.92,-33.63,21.094,-5.872,-126.442
 15:38:36.410,eb:33:2e:f9:57:b5, 2085-97-179 02:137:255:3217,0.274,-0.002,1.49,233.215,7.507,-15.198,23.307,-5.768,-126.661
 15:38:36.476,eb:33:2e:f9:57:b5, 2085-97-210 02:215:254:3650,0.516,-0.165,1.691,276.978,21.301,21.057,25.856,-5.63,-126.579
 15:38:36.476,eb:33:2e:f9:57:b5, 2085-97-235 04:92:255:3960,0.609,-0.1,1.827,310.181,42.725,19.348,28.795,-5.444,-126.194
 15:38:36.476,eb:33:2e:f9:57:b5, 2085-97-120 04:155:255:4348,0.556,-0.07,2.056,332.642,62.988,-12.756,32.003,-4.993,-125.892
 15:38:36.476,eb:33:2e:f9:57:b5, 2085-97-229 04:216:00:5155,0.598,-0.005,2.269,342.896,40.405,-89.539,35.409,-4.268,-126.041
 15:38:36.500,eb:33:2e:f9:57:b5, 2085-97-80 04:151:02:5420,0.512,0.201,2.66,349.426,95.886,-118.164,38.908,-3.076,-126.524
 15:38:36.500,eb:33:2e:f9:57:b5, 2085-97-248 04:03:03:5264,0.677,0.404,2.607,359.558,131.104,-112.061,42.468,-1.428,-126.628
 15:38:36.500,eb:33:2e:f9:57:b5, 2085-97-195 05:246:03:4889,0.873,0.394,2.592,384.705,168.03,-92.834,46.192,0.313,-126.343
 15:38:36.500,eb:33:2e:f9:57:b5, 2085-97-219 06:238:03:4573,0.668,0.492,2.257,399.17,185.913,-82.336,50.136,2.164,-125.596
 15:38:36.529,eb:33:2e:f9:57:b5, 2085-97-167 03:45:03:4607,0.286,0.535,2.179,392.456,260.376,-76.477,54.207,4.191,-124.294
 15:38:36.529,eb:33:2e:f9:57:b5, 2085-97-43 02:170:02:4659,0.368,0.321,2.268,361.389,281.311,-59.814,58.178,6.279,-122.322
 15:38:36.529,eb:33:2e:f9:57:b5, 2085-97-121 03:239:253:3813,0.562,0.031,2.219,309.814,269.775,-44.861,61.793,8.097,-120.201
 15:38:36.529,eb:33:2e:f9:57:b5, 2085-97-20 06:25:248:2458,0.941,-0.509,1.543,250.305,215.515,-17.273,64.902,9.432,-118.12
 15:38:36.620,eb:33:2e:f9:57:b5, 2085-97-225 09:253:241:1476,0.813,-1.302,0.732,201.782,155.823,-22.4,67.363,10.333,-116.516
 15:38:36.620,eb:33:2e:f9:57:b5, 2085-97-196 246:142:01:-471,0.667,-0.292,0.632,277.771,215.942,-49.5,70.109,11.31,-114.807
 15:38:36.620,eb:33:2e:f9:57:b5, 2085-97-254 04:242:253:-2008,-0.003,0.252,-1.703,121.582,34.79,-54.382,72.241,12.453,-113.873
 15:38:36.620,eb:33:2e:f9:57:b5, 2085-97-251 00:91:251:-774,0.454,-0.555,-0.66,-10.498,-54.138,3.906,72.653,12.601,-114.153
 15:38:36.622,eb:33:2e:f9:57:b5, 2085-97-78 04:213:250:1354,0.48,-0.584,0.187,-124.023,-51.758,46.875,71.763,12.101,-114.697
 15:38:36.622,eb:33:2e:f9:57:b5, 2085-97-180 03:37:251:2197,0.525,-0.654,0.931,-176.208,3.54,51.086,70.186,11.547,-114.697
 15:38:36.622,eb:33:2e:f9:57:b5, 2085-97-106 04:96:252:1849,0.549,-0.525,1.062,-189.636,41.443,29.968,68.401,11.25,-114.329
 15:38:36.622,eb:33:2e:f9:57:b5, 2085-97-67 04:48:253:739,0.488,-0.401,0.646,-193.42,67.261,4.456,66.599,11.327,-113.719
 15:38:36.648,eb:33:2e:f9:57:b5, 2085-97-196 03:241:253:-155,0.447,-0.306,0.123,-197.021,52.612,-20.508,64.748,11.673,-113.181
 15:38:36.648,eb:33:2e:f9:57:b5, 2085-97-77 03:42:254:-539,0.385,-0.232,-0.194,-206.97,7.446,-43.579,62.754,12.101,-113.066
 15:38:36.648,eb:33:2e:f9:57:b5, 2085-97-29 03:82:253:-378,0.381,-0.271,-0.254,-225.159,-54.932,-64.636,60.463,12.458,-113.582
 15:38:36.648,eb:33:2e:f9:57:b5, 2085-97-210 02:17:252:099,0.311,-0.416,-0.068,-250.183,-97.656,-76.05,57.838,12.651,-114.675
 15:38:36.709,eb:33:2e:f9:57:b5, 2085-97-56 02:18:251:605,0.241,-0.561,0.166,-276.123,-113.403,-72.571,54.877,12.678,-116.032
 15:38:36.709,eb:33:2e:f9:57:b5, 2085-97-146 01:114:250:1088,0.149,-0.664,0.427,-296.57,-110.474,-55.664,51.702,12.508,-117.361
 15:38:36.709,eb:33:2e:f9:57:b5, 2085-97-246 00:128:250:1392,0.116,-0.71,0.618,-307.922,-98.328,-28.748,48.411,12.156,-118.449
 15:38:36.709,eb:33:2e:f9:57:b5, 2085-97-221 00:34:251:1492,0.128,-0.642,0.71,-313.721,-88.013,-1.77,45.137,11.618,-119.235
 15:38:36.739,eb:33:2e:f9:57:b5, 2085-97-65 01:13:252:1580,0.181,-0.561,0.72,-313.66,-83.435,28.198,41.885,10.898,-119.713
 15:38:36.739,eb:33:2e:f9:57:b5, 2085-97-169 01:211:252:1603,0.247,-0.453,0.773,-311.951,-80.994,47.302,38.71,10.031,-119.943
 15:38:36.739,eb:33:2e:f9:57:b5, 2085-97-61 02:46:254:1665,0.282,-0.319,0.783,-307.434,-94.421,59.021,35.579,8.998,-120.037
 15:38:36.739,eb:33:2e:f9:57:b5, 2085-97-102 02:22:255:1865,0.368,-0.165,0.86,-302.368,-112.366,65.796,32.531,7.767,-120.097
 15:38:36.769,eb:33:2e:f9:57:b5, 2085-97-11 03:05:00:2116,0.346,-0.055,0.99,-299.805,-130.432,65.002,29.498,6.361,-120.168
 15:38:36.771,eb:33:2e:f9:57:b5, 2085-97-210 02:133:00:2394,0.334,0.029,1.106,-300.842,-143.005,62.622,26.488,4.85,-120.251
 15:38:36.771,eb:33:2e:f9:57:b5, 2085-97-192 02:166:00:2728,0.344,0.072,1.25,-304.504,-151.855,59.692,23.434,3.241,-120.322
 15:38:36.771,eb:33:2e:f9:57:b5, 2085-97-177 02:124:00:3025,0.33,0.073,1.441,-309.57,-153.625,55.237,20.363,1.593,-120.366
 15:38:36.829,eb:33:2e:f9:57:b5, 2085-97-178 02:79:00:3318,0.323,0.044,1.558,-313.293,-157.288,55.115,17.227,-0.071,-120.344
 15:38:36.829,eb:33:2e:f9:57:b5, 2085-97-132 02:72:00:3507,0.297,0.027,1.671,-316.528,-159.851,56.213,14.073,-1.741,-120.229
 15:38:36.829,eb:33:2e:f9:57:b5, 2085-97-61 02:167:00:3710,0.257,0.054,1.762,-319.336,-171.204,57.251,10.86,-3.483,-120.026
 15:38:36.829,eb:33:2e:f9:57:b5, 2085-97-242 01:84:01:4022,0.239,0.117,1.875,-319.763,-191.895,59.57,7.641,-5.372,-119.734
 15:38:36.860,eb:33:2e:f9:57:b5, 2085-113-58 00:184:222:-5985,0.231,0.225,2.074,-317.078,-213.196,64.941,4.395,-7.476,-119.317
 15:38:36.860,eb:33:2e:f9:57:b5, 2085-97-228 01:86:03:4747,0.287,0.314,2.191,-314.88,-221.008,68.176,2.774,-8.586,-119.048
 15:38:36.860,eb:33:2e:f9:57:b5, 2085-97-210 02:125:05:5392,0.415,0.538,2.467,-308.167,-230.164,77.942,-0.467,-10.876,-118.339
 15:38:36.860,eb:33:2e:f9:57:b5, 2085-97-130 03:74:08:5908,0.43,0.854,2.782,-300.964,-207.397,86.792,-3.702,-13.057,-117.405
 15:38:36.918,eb:33:2e:f9:57:b5, 2085-97-86 03:74:11:5740,0.414,1.222,2.889,-292.419,-153.992,83.923,-6.938,-14.76,-116.34
 15:38:36.918,eb:33:2e:f9:57:b5, 2085-97-30 03:185:13:5048,0.256,1.582,2.639,-280.334,-119.507,65.063,-10.052,-15.947,-115.362
 15:38:36.918,eb:33:2e:f9:57:b5, 2085-97-222 00:80:15:4248,-0.045,1.822,2.272,-260.193,-114.624,43.945,-12.991,-16.968,-114.582
 15:38:36.919,eb:33:2e:f9:57:b5, 2085-97-133 254:127:16:4232,-0.3,1.988,2.026,-227.356,-161.011,21.179,-15.623,-18.237,-113.89
 15:38:36.949,eb:33:2e:f9:57:b5, 2085-97-36 252:08:19:4507,-0.625,2.183,2.118,-182.007,-175.964,17.761,-17.897,-19.847,-113.181
 15:38:36.949,eb:33:2e:f9:57:b5, 2085-97-191 248:254:22:4146,-1.371,2.632,2.176,-126.831,-135.254,26.184,-19.671,-21.253,-112.39
 15:38:36.949,eb:33:2e:f9:57:b5, 2085-97-131 242:40:27:3480,-1.594,3.167,1.843,-67.932,-108.643,32.288,-20.901,-22.198,-111.643
 15:38:36.949,eb:33:2e:f9:57:b5, 2085-97-105 245:167:25:4870,-1.15,3.413,1.952,-14.099,-132.263,2.075,-21.539,-23.379,-110.951
 15:38:36.978,eb:33:2e:f9:57:b5, 2085-97-121 07:89:26:6317,-0.577,3.08,2.273,32.715,-44.25,-18.372,-21.5,-24.115,-110.726
 15:38:36.978,eb:33:2e:f9:57:b5, 2085-97-83 253:70:24:8696,0.117,2.784,6.418,150.391,38.879,-178.65,-19.973,-26.158,-111.313
 15:38:36.978,eb:33:2e:f9:57:b5, 2085-97-147 06:170:03:-2333,0.551,1.958,0.527,161.011,185.791,-168.03,-17.243,-24.06,-114.461
 15:38:36.979,eb:33:2e:f9:57:b5, 2085-97-245 03:139:254:2890,0.764,-0.505,-0.446,248.474,-384.888,-69.58,-14.859,-26.06,-115.192
 15:38:37.008,eb:33:2e:f9:57:b5, 2085-97-36 07:194:246:1051,0.653,-0.672,1.482,180.542,-210.449,-131.897,-12.557,-29.301,-115.483
 15:38:37.008,eb:33:2e:f9:57:b5, 2085-97-91 03:143:250:3635,0.3,-0.795,1.121,197.876,-155.884,-133.24,-10.146,-31.514,-116.521
 15:38:37.008,eb:33:2e:f9:57:b5, 2085-97-52 00:114:254:3936,-0.008,-0.415,1.907,225.647,127.747,-53.894,-7.41,-31.663,-117.625
 15:38:37.008,eb:33:2e:f9:57:b5, 2085-97-125 00:101:02:1838,0.136,0.084,1.402,220.215,267.029,24.109,-4.977,-29.383,-117.971
 15:38:37.068,eb:33:2e:f9:57:b5, 2085-97-11 00:203:05:2425,0.078,0.528,0.894,188.782,116.882,34.302,-3.01,-27.427,-117.762
 15:38:37.068,eb:33:2e:f9:57:b5, 2085-97-226 00:03:04:2968,0.253,0.7,1.514,117.737,85.388,11.292,-1.571,-26.62,-117.598
 15:38:37.068,eb:33:2e:f9:57:b5, 2085-97-74 03:172:255:1193,0.4,0.168,0.964,71.411,111.511,2.136,-0.714,-25.494,-117.537
 15:38:37.068,eb:33:2e:f9:57:b5, 2085-97-113 02:187:255:2469,0.316,-0.137,0.751,80.2,27.344,10.864,0.011,-24.906,-117.537
 15:38:37.099,eb:33:2e:f9:57:b5, 2085-97-69 03:97:02:2487,0.524,0.157,1.37,105.408,120.117,68.787,0.78,-24.236,-117.059
 15:38:37.099,eb:33:2e:f9:57:b5, 2085-97-60 04:115:02:1375,0.47,0.338,0.899,77.82,199.829,72.998,1.373,-22.495,-116.186
 15:38:37.099,eb:33:2e:f9:57:b5, 2085-97-67 03:07:01:1519,0.365,0.138,0.667,42.358,140.686,43.64,1.708,-20.753,-115.549
 15:38:37.099,eb:33:2e:f9:57:b5, 2085-97-199 02:79:00:2088,0.39,0.02,0.946,33.997,110.352,37.415,1.923,-19.616,-115.109
 15:38:37.129,eb:33:2e:f9:57:b5, 2085-97-58 02:179:00:1938,0.257,0.09,0.974,36.133,135.254,44.922,2.131,-18.375,-114.609
 15:38:37.129,eb:33:2e:f9:57:b5, 2085-97-173 01:198:00:1718,0.189,0.122,0.83,28.442,115.479,39.734,2.307,-17.073,-114.099
 15:38:37.129,eb:33:2e:f9:57:b5, 2085-97-101 01:127:00:1883,0.168,0.042,0.898,23.071,77.881,30.823,2.45,-16.155,-113.714
 15:38:37.129,eb:33:2e:f9:57:b5, 2085-97-146 01:117:00:1938,0.213,0.074,0.941,21.118,59.753,31.189,2.582,-15.502,-113.362
 15:38:37.189,eb:33:2e:f9:57:b5, 2085-97-140 01:63:00:1960,0.184,0.032,0.948,19.226,45.41,27.222,2.703,-14.985,-113.044
 15:38:37.189,eb:33:2e:f9:57:b5, 2085-97-108 01:107:00:1941,0.189,0.045,0.967,19.348,34.546,26.306,2.829,-14.612,-112.747
 15:38:37.189,eb:33:2e:f9:57:b5, 2085-97-187 01:118:00:1973,0.237,0.056,0.94,17.822,21.851,25.452,2.95,-14.337,-112.467
 15:38:37.189,eb:33:2e:f9:57:b5, 2085-97-255 01:111:00:2032,0.268,0.047,0.988,15.991,18.677,21.851,3.06,-14.161,-112.22
 15:38:37.218,eb:33:2e:f9:57:b5, 2085-97-57 02:106:00:2079,0.275,0.054,0.996,15.076,23.743,19.531,3.17,-13.953,-111.995
 15:38:37.218,eb:33:2e:f9:57:b5, 2085-97-31 02:89:00:2114,0.256,0.045,1.03,14.709,34.485,15.991,3.274,-13.672,-111.802
 15:38:37.218,eb:33:2e:f9:57:b5, 2085-97-228 01:82:00:2082,0.225,0.042,1.022,15.381,47.119,15.442,3.389,-13.26,-111.621
 15:38:37.218,eb:33:2e:f9:57:b5, 2085-97-182 01:61:00:2086,0.225,0.035,1.018,16.846,55.359,16.418,3.51,-12.75,-111.423
 15:38:37.249,eb:33:2e:f9:57:b5, 2085-97-155 01:58:00:2176,0.205,0.034,1.024,20.752,56.885,17.334,3.664,-12.184,-111.215
 15:38:37.249,eb:33:2e:f9:57:b5, 2085-97-123 01:84:00:2098,0.176,0.036,1.028,24.292,60.791,16.113,3.851,-11.602,-111.006
 15:38:37.249,eb:33:2e:f9:57:b5, 2085-97-112 01:136:00:2045,0.169,0.047,1.027,26.855,61.768,15.503,4.081,-10.997,-110.803
 15:38:37.249,eb:33:2e:f9:57:b5, 2085-97-76 01:151:00:1971,0.139,0.066,0.985,26.917,57.007,11.047,4.323,-10.41,-110.627
 15:38:37.309,eb:33:2e:f9:57:b5, 2085-97-21 01:143:00:2039,0.142,0.06,0.991,27.71,45.288,7.019,4.581,-9.921,-110.511
 15:38:37.309,eb:33:2e:f9:57:b5, 2085-97-23 01:138:00:2081,0.153,0.066,1.011,28.32,40.588,4.15,4.85,-9.509,-110.424
 15:38:37.309,eb:33:2e:f9:57:b5, 2085-97-79 01:152:00:2088,0.178,0.071,1.012,29.419,36.621,-0.183,5.136,-9.119,-110.369
 15:38:37.309,eb:33:2e:f9:57:b5, 2085-97-62 01:168:00:2063,0.131,0.086,0.993,30.457,33.691,-5.31,5.438,-8.762,-110.369
 15:38:37.340,eb:33:2e:f9:57:b5, 2085-97-247 00:175:00:2118,0.116,0.095,1.016,30.579,29.297,-10.498,5.762,-8.438,-110.418
 15:38:37.340,eb:33:2e:f9:57:b5, 2085-97-58 01:238:00:1923,0.139,0.098,1.009,28.564,28.381,-16.724,6.081,-8.152,-110.533
 15:38:37.340,eb:33:2e:f9:57:b5, 2085-97-185 00:189:00:1924,0.058,0.1,1.001,26.367,22.705,-21.973,6.394,-7.91,-110.704
 15:38:37.340,eb:33:2e:f9:57:b5, 2085-97-50 01:09:01:1988,0.151,0.115,0.983,25.513,11.963,-24.353,6.691,-7.734,-110.896
 15:38:37.368,eb:33:2e:f9:57:b5, 2085-97-233 00:236:00:2051,0.119,0.119,0.995,23.132,12.756,-29.053,6.971,-7.575,-111.16
 15:38:37.368,eb:33:2e:f9:57:b5, 2085-97-16 01:21:01:2019,0.149,0.126,0.964,20.813,12.146,-32.837,7.229,-7.399,-111.456
 15:38:37.368,eb:33:2e:f9:57:b5, 2085-97-25 01:16:01:2054,0.113,0.142,1.004,17.822,13.184,-39.307,7.471,-7.234,-111.802
 15:38:37.368,eb:33:2e:f9:57:b5, 2085-97-27 01:14:01:2071,0.167,0.123,0.982,16.541,11.353,-42.786,7.685,-7.042,-112.198
 15:38:37.428,eb:33:2e:f9:57:b5, 2085-97-117 01:18:01:2128,0.191,0.139,1.037,15.686,11.536,-49.622,7.91,-6.872,-112.648
 15:38:37.428,eb:33:2e:f9:57:b5, 2085-97-147 01:35:01:2159,0.192,0.136,1.044,15.442,13.55,-57.373,8.124,-6.674,-113.17
 15:38:37.428,eb:33:2e:f9:57:b5, 2085-97-125 01:18:01:2188,0.191,0.137,1.074,14.832,16.418,-66.956,8.35,-6.432,-113.774
 15:38:37.428,eb:33:2e:f9:57:b5, 2085-97-124 01:233:00:2216,0.137,0.132,1.071,15.198,19.897,-73.669,8.575,-6.147,-114.456
 15:38:37.460,eb:33:2e:f9:57:b5, 2085-97-245 00:179:00:2238,0.145,0.083,1.077,19.714,24.231,-70.801,8.822,-5.806,-115.148
 15:38:37.460,eb:33:2e:f9:57:b5, 2085-97-33 01:200:00:2372,0.144,0.101,1.143,26.672,23.438,-69.824,9.124,-5.477,-115.807
 15:38:37.460,eb:33:2e:f9:57:b5, 2085-97-08 01:171:00:2491,0.113,0.093,1.172,34.18,22.827,-72.021,9.498,-5.125,-116.466
 15:38:37.460,eb:33:2e:f9:57:b5, 2085-97-203 00:148:00:2593,0.102,0.075,1.245,43.213,19.775,-78.186,9.948,-4.79,-117.18
 15:38:37.519,eb:33:2e:f9:57:b5, 2085-97-232 00:168:00:2505,0.074,0.082,1.24,52.307,12.329,-88.501,10.497,-4.477,-117.977
 15:38:37.519,eb:33:2e:f9:57:b5, 2085-97-58 00:43:00:2599,0,0.056,1.244,62.805,4.517,-91.37,11.14,-4.23,-118.861
 15:38:37.519,eb:33:2e:f9:57:b5, 2085-97-230 255:39:00:2599,0.012,0.014,1.277,76.416,-5.127,-86.731,11.909,-4.059,-119.74
 15:38:37.519,eb:33:2e:f9:57:b5, 2085-97-97 00:103:00:2616,0.101,0.03,1.249,91.248,-17.883,-77.271,12.81,-4.005,-120.569
 15:38:37.548,eb:33:2e:f9:57:b5, 2085-97-30 01:143:00:2713,0.174,0.068,1.293,104.431,-24.17,-69.946,13.854,-4.043,-121.339
 15:38:37.548,eb:33:2e:f9:57:b5, 2085-97-174 01:175:00:2837,0.269,0.081,1.336,119.08,-29.724,-65.674,15.029,-4.131,-122.058
 15:38:37.548,eb:33:2e:f9:57:b5, 2085-97-168 02:222:00:2939,0.363,0.093,1.435,135.986,-32.959,-62.256,16.364,-4.268,-122.767
 15:38:37.548,eb:33:2e:f9:57:b5, 2085-97-12 03:203:00:2993,0.391,0.11,1.438,154.297,-29.724,-58.228,17.869,-4.389,-123.437
 15:38:37.580,eb:33:2e:f9:57:b5, 2085-97-114 03:132:00:3128,0.461,0.066,1.506,178.162,-23.193,-49.377,19.589,-4.466,-124.036
 15:38:37.580,eb:33:2e:f9:57:b5, 2085-97-193 03:46:00:3264,0.467,0.038,1.552,207.275,-9.888,-33.875,21.561,-4.477,-124.492
 15:38:37.580,eb:33:2e:f9:57:b5, 2085-97-87 03:18:255:3651,0.357,-0.042,1.651,245.178,12.329,-6.226,23.846,-4.389,-124.673
 15:38:37.580,eb:33:2e:f9:57:b5, 2085-113-58 00:121:225:-7095,0.504,-0.197,1.9,296.814,51.025,27.771,26.559,-4.131,-124.409
 15:38:37.580,eb:33:2e:f9:57:b5, 2085-97-110 04:138:254:4000,0.492,-0.205,1.864,318.359,61.768,26.55,28.092,-3.944,-124.156
 15:38:37.639,eb:33:2e:f9:57:b5, 2085-97-170 02:232:253:4309,0.153,-0.211,2.061,354.065,90.149,9.277,31.448,-3.345,-123.591
 15:38:37.639,eb:33:2e:f9:57:b5, 2085-97-21 01:39:254:4895,0.311,-0.262,2.114,372.131,24.048,-69.275,35.107,-2.642,-123.453
 15:38:37.639,eb:33:2e:f9:57:b5, 2085-97-130 02:81:01:5911,0.223,-0.119,2.877,382.019,34.363,-130.188,38.903,-1.928,-124.343
 15:38:37.639,eb:33:2e:f9:57:b5, 2085-97-252 02:83:05:5266,0.574,0.508,2.76,389.221,96.252,-117.737,42.786,-0.538,-124.788
 15:38:37.668,eb:33:2e:f9:57:b5, 2085-97-90 04:68:04:5301,0.548,0.626,2.593,407.593,110.474,-92.957,46.763,0.895,-124.838
 15:38:37.668,eb:33:2e:f9:57:b5, 2085-97-44 04:124:02:4063,0.397,0.415,2.201,420.593,172.546,-68.604,50.955,2.488,-124.178
 15:38:37.668,eb:33:2e:f9:57:b5, 2085-97-121 02:252:03:4471,0.265,0.491,2.114,415.955,196.289,-60.425,55.256,4.021,-123.129
 15:38:37.668,eb:33:2e:f9:57:b5, 2085-97-08 02:72:01:5149,0.314,0.41,2.351,367.31,248.718,-32.41,59.31,5.652,-121.448
 15:38:37.698,eb:33:2e:f9:57:b5, 2085-97-37 03:136:253:4060,0.555,-0.068,2.375,319.397,276.917,-15.747,62.99,7.136,-119.196
 15:38:37.698,eb:33:2e:f9:57:b5, 2085-97-41 06:84:248:2382,0.902,-0.717,1.634,259.338,221.619,5.066,66.171,8.267,-116.949
 15:38:37.698,eb:33:2e:f9:57:b5, 2085-97-04 09:18:246:1355,0.981,-1.013,0.759,209.839,160.828,8.484,68.719,8.888,-115.164
 15:38:37.698,eb:33:2e:f9:57:b5, 2085-97-84 250:69:05:723,-0.202,-0.357,1.059,289.246,215.576,-20.386,71.422,9.597,-113.467
 15:38:37.760,eb:33:2e:f9:57:b5, 2085-97-163 07:164:255:-3034,0.122,0.215,-0.955,147.095,124.512,-97.107,73.839,11.008,-112.165
 15:38:37.760,eb:33:2e:f9:57:b5, 2085-97-167 255:236:250:-1494,0.299,-0.587,-0.792,15.381,-17.456,-15.32,74.597,11.585,-112.072
 15:38:37.760,eb:33:2e:f9:57:b5, 2085-97-73 03:32:251:728,0.361,-0.589,-0.218,-114.624,-34.119,33.264,73.932,11.343,-112.423
 15:38:37.760,eb:33:2e:f9:57:b5, 2085-97-00 03:152:251:1512,0.438,-0.608,0.599,-189.087,21.851,51.88,72.345,10.904,-112.264
 15:38:37.788,eb:33:2e:f9:57:b5, 2085-97-240 03:222:252:1491,0.494,-0.475,0.83,-214.05,31.555,33.875,70.362,10.569,-111.868
 15:38:37.788,eb:33:2e:f9:57:b5, 2085-97-43 04:59:253:727,0.542,-0.377,0.554,-222.9,30.823,4.028,68.231,10.536,-111.489
 15:38:37.788,eb:33:2e:f9:57:b5, 2085-97-97 04:139:253:310,0.531,-0.326,0.226,-225.708,4.944,-19.287,66,10.684,-111.368
 15:38:37.788,eb:33:2e:f9:57:b5, 2085-97-19 04:166:253:295,0.521,-0.292,0.12,-229.919,-16.907,-35.034,63.682,10.909,-111.561
 15:38:37.819,eb:33:2e:f9:57:b5, 2085-97-63 04:128:253:441,0.527,-0.302,0.174,-237.854,-38.879,-48.157,61.238,11.14,-112.039
 15:38:37.819,eb:33:2e:f9:57:b5, 2085-97-249 03:150:253:498,0.493,-0.303,0.232,-250.183,-44.739,-57.007,58.667,11.382,-112.698
 15:38:37.819,eb:33:2e:f9:57:b5, 2085-97-249 03:188:253:563,0.482,-0.287,0.251,-266.052,-47.729,-59.509,55.915,11.618,-113.423
 15:38:37.819,eb:33:2e:f9:57:b5, 2085-97-172 03:208:253:649,0.45,-0.276,0.295,-281.677,-47.729,-58.289,53.015,11.821,-114.17
 15:38:37.881,eb:33:2e:f9:57:b5, 2085-97-123 03:20:254:644,0.42,-0.257,0.329,-293.945,-53.223,-53.467,49.955,11.937,-114.933
 15:38:37.881,eb:33:2e:f9:57:b5, 2085-97-88 03:240:253:673,0.422,-0.243,0.304,-305.725,-71.045,-49.133,46.78,11.909,-115.757
 15:38:37.881,eb:33:2e:f9:57:b5, 2085-97-93 03:202:253:926,0.415,-0.269,0.379,-313.843,-92.224,-40.833,43.467,11.629,-116.68
 15:38:37.881,eb:33:2e:f9:57:b5, 2085-97-72 03:09:254:1407,0.419,-0.267,0.551,-317.078,-109.07,-30.518,40.111,11.102,-117.647
 15:38:37.910,eb:33:2e:f9:57:b5, 2085-97-10 03:77:254:1703,0.361,-0.25,0.775,-314.209,-112.427,-18.005,36.771,10.355,-118.537
 15:38:37.910,eb:33:2e:f9:57:b5, 2085-97-246 02:201:254:1875,0.377,-0.192,0.873,-305.481,-120.117,-2.136,33.541,9.454,-119.295
 15:38:37.910,eb:33:2e:f9:57:b5, 2085-97-18 03:75:255:2030,0.387,-0.122,0.98,-295.776,-130.188,14.343,30.427,8.328,-119.916
 15:38:37.910,eb:33:2e:f9:57:b5, 2085-97-22 03:221:255:2112,0.387,-0.056,1.032,-290.222,-140.442,29.846,27.444,7.02,-120.366
 15:38:37.940,eb:33:2e:f9:57:b5, 2085-97-55 03:252:255:2440,0.417,-0.004,1.095,-289.368,-156.921,43.823,24.494,5.504,-120.685
 15:38:37.940,eb:33:2e:f9:57:b5, 2085-97-75 03:241:255:2738,0.444,0.006,1.251,-289.612,-165.894,58.167,21.588,3.812,-120.833
 15:38:37.940,eb:33:2e:f9:57:b5, 2085-97-210 03:23:00:2947,0.505,0.005,1.397,-287.659,-175.903,70.557,18.688,1.961,-120.8
 15:38:37.940,eb:33:2e:f9:57:b5, 2085-97-82 04:148:00:3203,0.558,0.029,1.505,-282.837,-186.096,80.75,15.842,0,-120.602
 15:38:37.999,eb:33:2e:f9:57:b5, 2085-97-137 04:43:01:3475,0.573,0.107,1.632,-277.527,-194.153,84.961,13.019,-2.06,-120.267
 15:38:37.999,eb:33:2e:f9:57:b5, 2085-97-174 04:177:01:3904,0.59,0.178,1.802,-270.081,-199.097,86.731,10.256,-4.169,-119.822
 15:38:37.999,eb:33:2e:f9:57:b5, 2085-97-149 04:76:02:4259,0.542,0.246,2.013,-264.038,-192.444,92.529,7.52,-6.257,-119.224
 15:38:37.999,eb:33:2e:f9:57:b5, 2085-97-247 03:35:03:4332,0.408,0.335,2.114,-263.428,-187.622,98.938,4.796,-8.234,-118.466
 15:38:38.028,eb:33:2e:f9:57:b5, 2085-97-126 02:102:03:4041,0.288,0.417,2.045,-268.738,-191.284,104.187,1.967,-10.179,-117.537
 15:38:38.028,eb:33:2e:f9:57:b5, 2085-97-189 02:218:04:4460,0.377,0.493,2.044,-268.738,-233.398,99.426,-0.912,-12.332,-116.499
 15:38:38.028,eb:33:2e:f9:57:b5, 2085-97-240 02:226:06:5164,0.311,0.732,2.354,-266.357,-251.099,93.323,-3.862,-14.76,-115.4
 15:38:38.028,eb:33:2e:f9:57:b5, 2085-97-174 01:00:09:5592,0.087,0.988,2.656,-257.263,-239.441,89.844,-6.806,-17.122,-114.208
 15:38:38.059,eb:33:2e:f9:57:b5, 2085-97-172 255:79:11:5515,-0.164,1.267,2.734,-241.333,-217.651,80.688,-9.695,-19.259,-112.967
 15:38:38.059,eb:33:2e:f9:57:b5, 2085-97-186 253:180:13:5245,-0.397,1.565,2.625,-221.985,-193.359,71.655,-12.42,-21.116,-111.753
 15:38:38.059,eb:33:2e:f9:57:b5, 2085-97-35 252:153:16:5189,-0.481,1.876,2.539,-199.951,-176.636,67.871,-14.974,-22.747,-110.555
 15:38:38.059,eb:33:2e:f9:57:b5, 2085-97-139 252:22:21:5101,-0.434,2.336,2.518,-177.185,-144.653,63.965,-17.32,-24.104,-109.352
 15:38:38.119,eb:33:2e:f9:57:b5, 2085-97-56 251:49:26:4533,-0.623,2.953,2.4,-156.738,-63.66,36.56,-19.358,-24.944,-108.468
 15:38:38.119,eb:33:2e:f9:57:b5, 2085-97-22 239:39:24:7579,-2.139,3.443,2.295,-64.636,-90.942,-28.564,-20.737,-25.219,-108.138
 15:38:38.119,eb:33:2e:f9:57:b5, 2085-97-142 241:24:31:334,-1.173,4.489,0.346,-60.425,156.311,5.31,-21.242,-24.175,-108.369
 15:38:38.119,eb:33:2e:f9:57:b5, 2085-97-176 247:180:24:5150,-1.244,3.343,2.699,20.508,-50.842,-60.486,-21.319,-25.17,-108.375
 15:38:38.149,eb:33:2e:f9:57:b5, 2085-97-220 246:21:19:3806,-0.64,2.729,1.955,74.524,23.987,-84.045,-20.451,-25.148,-109.21
 15:38:38.149,eb:33:2e:f9:57:b5, 2085-97-80 06:91:253:10189,1.109,2.007,1.902,153.32,-110.596,-173.889,-19.017,-25.4,-110.303
 15:38:38.149,eb:33:2e:f9:57:b5, 2085-97-120 255:125:253:-1703,0.889,-0.241,3.056,155.884,293.518,-31.189,-16.82,-26.741,-111.484
 15:38:38.149,eb:33:2e:f9:57:b5, 2085-113-58 00:12:229:-5070,1.629,-0.925,-0.409,151.062,-357.361,-170.288,-14.947,-28.015,-112.104
 15:38:38.180,eb:33:2e:f9:57:b5, 2085-97-136 07:44:246:1017,0.596,-1.5,1.116,133.911,-197.266,-191.711,-13.925,-29.537,-112.747
 15:38:38.180,eb:33:2e:f9:57:b5, 2085-97-13 03:65:255:2050,0.243,-0.583,0.84,138.306,-163.818,-204.59,-11.64,-31.657,-114.598
 15:38:38.180,eb:33:2e:f9:57:b5, 2085-97-232 03:41:255:1976,0.621,-0.078,0.972,159.851,-123.718,-174.011,-9.119,-33.338,-116.554
 15:38:38.180,eb:33:2e:f9:57:b5, 2085-97-94 04:241:253:2004,0.417,-0.136,0.734,189.209,-80.994,-115.54,-6.52,-34.486,-118.043
 15:38:38.238,eb:33:2e:f9:57:b5, 2085-97-250 01:145:254:3041,0.573,-0.302,1.259,200.317,10.01,-78.613,-3.906,-34.926,-119.174
 15:38:38.238,eb:33:2e:f9:57:b5, 2085-97-185 02:38:04:2936,0.357,0.024,1.409,206.909,4.761,6.592,-1.593,-34.612,-119.713
 15:38:38.238,eb:33:2e:f9:57:b5, 2085-97-156 02:172:03:2471,0.317,0.486,1.345,152.771,25.757,-1.282,0.159,-34.563,-119.641
 15:38:38.238,eb:33:2e:f9:57:b5, 2085-97-190 02:38:03:2142,0.311,0.343,1.095,108.887,69.824,-5.676,1.45,-34.036,-119.713
 15:38:38.298,eb:33:2e:f9:57:b5, 2085-97-62 02:241:03:2012,0.233,0.431,1.049,80.688,92.59,12.512,2.351,-33.201,-119.658
 15:38:38.298,eb:33:2e:f9:57:b5, 2085-97-106 02:68:01:1862,0.376,0.393,0.917,44.8,93.75,32.349,2.785,-32.256,-119.328
 15:38:38.298,eb:33:2e:f9:57:b5, 2085-97-189 03:220:255:1724,0.48,0.03,0.874,43.579,83.13,45.654,2.933,-31.377,-118.801
 15:38:38.298,eb:33:2e:f9:57:b5, 2085-97-207 03:00:00:1697,0.458,-0.022,0.864,45.471,63.11,38.208,3.115,-30.679,-118.262
 15:38:38.300,eb:33:2e:f9:57:b5, 2085-97-223 03:178:00:1802,0.538,0.035,0.878,47.607,47.485,35.828,3.362,-30.179,-117.823
 15:38:38.300,eb:33:2e:f9:57:b5, 2085-97-193 04:14:01:1655,0.599,0.145,0.837,46.814,53.101,38.635,3.615,-29.696,-117.345
 15:38:38.300,eb:33:2e:f9:57:b5, 2085-97-126 04:144:00:1754,0.526,0.101,0.831,36.926,56.213,28.32,3.829,-29.169,-116.927
 15:38:38.300,eb:33:2e:f9:57:b5, 2085-97-204 03:175:00:1812,0.448,0.066,0.882,33.02,64.453,23.56,4.021,-28.586,-116.598
 15:38:38.358,eb:33:2e:f9:57:b5, 2085-97-108 03:176:00:1753,0.421,0.105,0.862,26.733,68.848,23.743,4.18,-27.916,-116.279
 15:38:38.358,eb:33:2e:f9:57:b5, 2085-97-128 03:138:00:1828,0.414,0.062,0.894,24.414,63.477,24.719,4.285,-27.29,-115.961
 15:38:38.358,eb:33:2e:f9:57:b5, 2085-97-49 03:131:00:1856,0.371,0.071,0.898,22.644,60.791,24.475,4.384,-26.68,-115.642
 15:38:38.358,eb:33:2e:f9:57:b5, 2085-97-200 02:86:00:1899,0.362,0.053,0.922,22.156,56.152,25.818,4.46,-26.12,-115.318
 15:38:38.389,eb:33:2e:f9:57:b5, 2085-97-212 02:78:00:1936,0.353,0.048,0.94,24.353,49.683,28.503,4.554,-25.615,-114.966
 15:38:38.389,eb:33:2e:f9:57:b5, 2085-97-227 02:74:00:1984,0.382,0.033,0.972,27.283,51.453,32.959,4.653,-25.148,-114.587
 15:38:38.389,eb:33:2e:f9:57:b5, 2085-97-41 03:89:00:1998,0.381,0.046,0.958,29.48,58.533,37.781,4.763,-24.615,-114.148
 15:38:38.389,eb:33:2e:f9:57:b5, 2085-97-19 03:103:00:2022,0.393,0.046,1.002,30.518,71.838,39.062,4.872,-24.005,-113.67
 15:38:38.418,eb:33:2e:f9:57:b5, 2085-97-10 03:98:00:2155,0.396,0.041,1.02,30.579,91.003,39.917,4.988,-23.22,-113.17
 15:38:38.418,eb:33:2e:f9:57:b5, 2085-97-229 03:171:00:1958,0.395,0.085,1.013,26.55,128.662,36.194,5.076,-22.143,-112.654
 15:38:38.418,eb:33:2e:f9:57:b5, 2085-97-252 02:173:00:2200,0.409,0.069,1.059,23.926,140.869,18.921,5.197,-20.852,-112.247
 15:38:38.418,eb:33:2e:f9:57:b5, 2085-97-235 02:167:00:2009,0.367,0.086,1.021,15.015,161.865,-4.944,5.306,-19.303,-112.039
 15:38:38.479,eb:33:2e:f9:57:b5, 2085-97-02 03:214:00:1663,0.305,0.103,0.88,12.512,155.029,-18.127,5.444,-17.682,-112.022
 15:38:38.479,eb:33:2e:f9:57:b5, 2085-97-34 02:192:00:1776,0.274,0.09,0.84,16.724,115.112,-20.874,5.62,-16.348,-112.11
 15:38:38.479,eb:33:2e:f9:57:b5, 2085-97-72 02:216:00:1811,0.313,0.097,0.865,19.104,85.144,-21.057,5.839,-15.337,-112.231
 15:38:38.479,eb:33:2e:f9:57:b5, 2085-97-126 02:248:00:1870,0.312,0.114,0.896,19.897,63.293,-23.132,6.075,-14.601,-112.385
 15:38:38.509,eb:33:2e:f9:57:b5, 2085-97-81 02:237:00:1938,0.263,0.118,0.927,19.958,51.941,-25.818,6.334,-14.008,-112.577
 15:38:38.509,eb:33:2e:f9:57:b5, 2085-97-36 02:238:00:1899,0.301,0.114,0.95,20.508,45.654,-27.1,6.586,-13.497,-112.797
 15:38:38.509,eb:33:2e:f9:57:b5, 2085-97-172 02:29:01:1917,0.283,0.135,0.934,20.63,40.466,-26.794,6.855,-13.046,-113.022
 15:38:38.509,eb:33:2e:f9:57:b5, 2085-97-35 02:09:01:1880,0.259,0.142,0.945,19.043,41.992,-28.809,7.103,-12.607,-113.253
 15:38:38.538,eb:33:2e:f9:57:b5, 2085-97-242 01:219:00:2000,0.252,0.12,0.946,18.799,37.842,-27.161,7.355,-12.184,-113.494
 15:38:38.538,eb:33:2e:f9:57:b5, 2085-97-09 02:48:01:1928,0.252,0.132,0.954,18.005,40.955,-26.245,7.586,-11.755,-113.708
 15:38:38.538,eb:33:2e:f9:57:b5, 2085-97-235 01:36:01:1952,0.22,0.151,0.95,15.32,43.518,-29.48,7.806,-11.299,-113.939
 15:38:38.538,eb:33:2e:f9:57:b5, 2085-97-39 02:80:01:1947,0.323,0.145,0.961,12.573,48.767,-30.701,7.987,-10.8,-114.181
 15:38:38.599,eb:33:2e:f9:57:b5, 2085-97-176 02:118:01:2033,0.31,0.173,0.981,8.667,56.519,-36.804,8.152,-10.239,-114.45
 15:38:38.599,eb:33:2e:f9:57:b5, 2085-97-109 02:151:01:2048,0.291,0.189,0.962,4.456,65.186,-50.11,8.273,-9.553,-114.796
 15:38:38.599,eb:33:2e:f9:57:b5, 2085-97-143 01:240:00:2117,0.143,0.164,1.047,-0.488,71.167,-72.815,8.383,-8.8,-115.334
 15:38:38.599,eb:33:2e:f9:57:b5, 2085-97-00 01:197:00:2191,0.103,0.107,1.025,1.77,65.552,-80.444,8.481,-7.987,-115.999
 15:38:38.629,eb:33:2e:f9:57:b5, 2085-97-174 00:138:00:2223,0.051,0.085,1.088,5.493,61.829,-85.51,8.624,-7.24,-116.752
 15:38:38.629,eb:33:2e:f9:57:b5, 2085-97-38 00:140:00:2260,-0.003,0.063,1.104,12.939,50.476,-86.365,8.811,-6.559,-117.515
 15:38:38.629,eb:33:2e:f9:57:b5, 2085-97-15 00:77:00:2419,0.029,0.057,1.129,20.081,27.466,-95.032,9.075,-6.031,-118.361
 15:38:38.629,eb:33:2e:f9:57:b5, 2085-97-89 00:51:00:2515,0.061,0.034,1.219,31.25,7.385,-98.022,9.426,-5.729,-119.306
 15:38:38.660,eb:33:2e:f9:57:b5, 2085-97-124 00:66:00:2558,0.017,0.041,1.258,43.091,-4.456,-97.046,9.91,-5.57,-120.262
 15:38:38.661,eb:33:2e:f9:57:b5, 2085-97-246 255:229:255:2666,-0.048,-0.002,1.292,56.641,-8.728,-81.055,10.492,-5.477,-121.168
 15:38:38.661,eb:33:2e:f9:57:b5, 2085-97-195 255:245:255:2672,0.035,-0.026,1.326,71.96,-11.902,-64.941,11.212,-5.438,-121.904
 15:38:38.661,eb:33:2e:f9:57:b5, 2085-97-160 00:86:00:2666,0.105,0.026,1.276,89.722,-23.438,-52.307,12.085,-5.493,-122.509
 15:38:38.719,eb:33:2e:f9:57:b5, 2085-97-41 01:89:00:2812,0.206,0.035,1.335,105.286,-33.691,-48.279,13.123,-5.663,-123.058
 15:38:38.719,eb:33:2e:f9:57:b5, 2085-97-206 01:107:00:2845,0.253,0.067,1.368,122.62,-41.077,-43.823,14.326,-5.927,-123.596
 15:38:38.719,eb:33:2e:f9:57:b5, 2085-97-106 02:96:00:2991,0.346,0.036,1.427,142.029,-44.922,-37.72,15.71,-6.24,-124.102
 15:38:38.719,eb:33:2e:f9:57:b5, 2085-97-227 02:136:00:2963,0.373,0.055,1.459,163.391,-40.71,-28.625,17.298,-6.564,-124.552
 15:38:38.748,eb:33:2e:f9:57:b5, 2085-97-50 03:71:00:3028,0.41,0.058,1.454,187.744,-35.583,-18.127,19.105,-6.839,-124.887
 15:38:38.748,eb:33:2e:f9:57:b5, 2085-97-65 03:212:255:3309,0.392,0.01,1.538,218.445,-28.076,0.061,21.171,-7.125,-125.085
 15:38:38.748,eb:33:2e:f9:57:b5, 2085-97-22 03:37:255:3618,0.507,-0.106,1.677,266.357,-6.897,43.701,23.582,-7.361,-124.969
 15:38:38.748,eb:33:2e:f9:57:b5, 2085-97-161 04:65:255:3916,0.681,-0.118,1.775,306.274,18.372,53.284,26.428,-7.504,-124.42
 15:38:38.810,eb:33:2e:f9:57:b5, 2085-97-109 05:121:255:3990,0.616,-0.086,1.92,323.608,39.49,1.526,29.542,-7.339,-124.019
 15:38:38.810,eb:33:2e:f9:57:b5, 2085-97-34 05:30:255:4440,0.721,-0.066,1.958,337.463,-6.531,-75.806,32.888,-6.971,-124.261
 15:38:38.810,eb:33:2e:f9:57:b5, 2085-97-123 05:124:255:5229,0.519,-0.158,2.438,349.426,24.658,-134.644,36.431,-6.345,-125.2
 15:38:38.810,eb:33:2e:f9:57:b5, 2085-97-39 03:98:03:5212,0.477,0.205,2.544,366.394,94.36,-139.771,40.095,-4.944,-125.892
 15:38:38.839,eb:33:2e:f9:57:b5, 2085-97-236 04:139:04:5321,0.832,0.493,2.557,376.038,115.784,-127.075,43.824,-3.252,-126.183
 15:38:38.839,eb:33:2e:f9:57:b5, 2085-97-139 06:85:04:4593,0.774,0.51,2.462,385.254,172.058,-107.056,47.631,-1.417,-125.931
 15:38:38.839,eb:33:2e:f9:57:b5, 2085-97-31 06:02:04:3368,0.447,0.645,1.848,393.799,209.106,-105.713,51.564,0.648,-125.024
 15:38:38.839,eb:33:2e:f9:57:b5, 2085-97-106 01:96:04:4604,0.267,0.596,1.942,380.798,222.9,-88.379,55.508,2.659,-123.992
 15:38:38.899,eb:33:2e:f9:57:b5, 2085-97-39 04:235:02:4590,0.653,0.422,2.353,339.539,273.071,-45.776,59.189,4.581,-122.19
 15:38:38.899,eb:33:2e:f9:57:b5, 2085-97-222 05:206:253:3501,0.736,0.067,2.051,286.987,268.005,-32.715,62.512,6.29,-119.987
 15:38:38.899,eb:33:2e:f9:57:b5, 2085-97-120 06:64:246:1424,0.837,-0.764,1.317,232.056,196.106,-20.325,65.314,7.542,-117.999
 15:38:38.899,eb:33:2e:f9:57:b5, 2085-97-85 09:110:244:538,0.65,-1.339,0.138,181.58,124.39,-26.733,67.516,8.372,-116.686
 15:38:38.901,eb:33:2e:f9:57:b5, 2085-97-236 247:171:01:-598,0.383,-0.079,0.702,230.103,152.283,-61.829,69.835,9.223,-115.494
 15:38:38.901,eb:33:2e:f9:57:b5, 2085-97-152 05:51:252:-1963,-0.026,0.175,-1.68,74.28,13.916,-75.073,71.4,10.448,-114.911
 15:38:38.901,eb:33:2e:f9:57:b5, 2085-97-184 00:250:250:-732,0.465,-0.743,-0.428,-50.354,-34.363,0.549,71.373,10.624,-115.263
 15:38:38.901,eb:33:2e:f9:57:b5, 2085-97-228 03:02:250:1227,0.397,-0.638,0.212,-151.184,-32.349,33.875,70.214,10.261,-115.664
 15:38:38.989,eb:33:2e:f9:57:b5, 2085-97-58 03:114:250:1558,0.482,-0.772,0.687,-195.19,7.507,39.062,68.423,9.888,-115.516
 15:38:38.989,eb:33:2e:f9:57:b5, 2085-97-64 04:166:251:1161,0.521,-0.6,0.715,-208.984,5.432,13.855,66.412,9.662,-115.373
 15:38:38.989,eb:33:2e:f9:57:b5, 2085-97-16 04:144:252:527,0.51,-0.486,0.404,-212.83,4.578,-6.104,64.297,9.662,-115.302
 15:38:38.989,eb:33:2e:f9:57:b5, 2085-97-29 04:72:253:454,0.519,-0.377,0.198,-212.524,-21.362,-26.672,62.144,9.778,-115.472
 15:38:38.989,eb:33:2e:f9:57:b5, 2085-97-237 03:181:253:563,0.452,-0.305,0.258,-213.501,-32.532,-40.955,59.93,9.932,-115.906
 15:38:38.989,eb:33:2e:f9:57:b5, 2085-97-89 03:162:253:423,0.394,-0.28,0.248,-220.642,-37.231,-51.208,57.662,10.157,-116.455
 15:38:38.989,eb:33:2e:f9:57:b5, 2085-97-239 02:30:253:255,0.348,-0.323,0.159,-236.572,-50.598,-56.152,55.239,10.36,-117.136
 15:38:38.989,eb:33:2e:f9:57:b5, 2085-97-175 02:166:252:377,0.334,-0.389,0.129,-259.827,-66.956,-51.27,52.603,10.443,-117.955
 15:38:39.079,eb:33:2e:f9:57:b5, 2085-97-178 02:113:252:749,0.339,-0.434,0.267,-284.18,-80.688,-42.297,49.691,10.327,-118.845
 15:38:39.079,eb:33:2e:f9:57:b5, 2085-97-211 02:236:252:1145,0.389,-0.437,0.461,-302.185,-85.144,-31.189,46.582,10.036,-119.724
 15:38:39.079,eb:33:2e:f9:57:b5, 2085-97-26 03:186:253:1608,0.403,-0.33,0.706,-310.425,-79.712,-18.921,43.358,9.602,-120.509
 15:38:39.079,eb:33:2e:f9:57:b5, 2085-97-15 03:37:254:1508,0.392,-0.271,0.766,-309.387,-65.796,-10.559,40.155,9.168,-121.097
 15:38:39.079,eb:33:2e:f9:57:b5, 2085-97-64 03:22:255:1468,0.429,-0.178,0.725,-301.514,-70.801,2.441,37.018,8.652,-121.553
 15:38:39.081,eb:33:2e:f9:57:b5, 2085-113-58 00:90:226:-7500,0.43,-0.105,0.722,-296.57,-94.543,7.812,33.964,7.949,-121.998
 15:38:39.081,eb:33:2e:f9:57:b5, 2085-97-111 03:10:255:1744,0.468,-0.076,0.787,-294.373,-103.821,13.123,32.454,7.498,-122.228
 15:38:39.081,eb:33:2e:f9:57:b5, 2085-97-226 03:218:255:2073,0.51,-0.031,0.971,-291.077,-122.498,16.602,29.471,6.4,-122.679
 15:38:39.081,eb:33:2e:f9:57:b5, 2085-97-49 04:142:00:2390,0.554,0.032,1.09,-287.048,-139.038,23.987,26.537,5.136,-123.113
 15:38:39.109,eb:33:2e:f9:57:b5, 2085-97-127 04:58:01:2442,0.591,0.107,1.16,-284.607,-150.818,27.893,23.632,3.708,-123.481
 15:38:39.109,eb:33:2e:f9:57:b5, 2085-97-221 04:139:01:2640,0.616,0.178,1.214,-284.18,-168.945,28.381,20.77,2.12,-123.821
 15:38:39.109,eb:33:2e:f9:57:b5, 2085-97-20 05:183:01:2936,0.65,0.205,1.368,-281.86,-185.303,26.489,17.913,0.335,-124.146
 15:38:39.109,eb:33:2e:f9:57:b5, 2085-97-49 05:202:01:3255,0.628,0.215,1.511,-277.466,-198.547,23.804,15.117,-1.582,-124.448
 15:38:39.170,eb:33:2e:f9:57:b5, 2085-97-243 04:245:01:3580,0.613,0.228,1.665,-269.836,-207.458,21.24,12.376,-3.625,-124.706
 15:38:39.170,eb:33:2e:f9:57:b5, 2085-97-201 04:84:02:3910,0.574,0.265,1.832,-260.315,-213.867,19.775,9.745,-5.74,-124.909
 15:38:39.170,eb:33:2e:f9:57:b5, 2085-97-100 04:24:03:4100,0.545,0.331,1.961,-251.831,-218.323,21.606,7.185,-7.921,-125.013
 15:38:39.170,eb:33:2e:f9:57:b5, 2085-97-32 04:64:04:4194,0.48,0.463,2.022,-251.465,-227.417,22.522,4.68,-10.162,-125.013
 15:38:39.229,eb:33:2e:f9:57:b5, 2085-97-197 03:29:05:4384,0.452,0.599,2.071,-256.958,-238.159,29.236,2.093,-12.513,-124.887
 15:38:39.229,eb:33:2e:f9:57:b5, 2085-97-68 02:158:04:4615,0.126,0.649,2.248,-259.521,-237.671,44.556,-0.571,-14.93,-124.53
 15:38:39.229,eb:33:2e:f9:57:b5, 2085-97-153 00:224:04:4544,-0.018,0.538,2.154,-243.286,-254.456,55.786,-3.29,-17.298,-123.876
 15:38:39.229,eb:33:2e:f9:57:b5, 2085-97-159 254:126:07:5246,-0.391,0.783,2.448,-210.083,-276.245,67.383,-5.828,-19.979,-123.014
 15:38:39.230,eb:33:2e:f9:57:b5, 2085-97-201 250:180:08:5321,-0.775,1.047,2.594,-179.199,-257.69,99.487,-8.223,-22.511,-121.767
 15:38:39.230,eb:33:2e:f9:57:b5, 2085-97-160 249:48:10:5263,-0.718,1.187,2.544,-149.353,-258.667,146.973,-10.574,-24.835,-119.921
 15:38:39.230,eb:33:2e:f9:57:b5, 2085-97-114 251:119:13:5369,-0.087,1.429,2.604,-137.085,-217.468,169.983,-13.002,-26.873,-117.603
 15:38:39.230,eb:33:2e:f9:57:b5, 2085-97-232 252:210:19:5381,-0.322,2.084,2.681,-128.845,-144.531,147.888,-15.364,-28.196,-115.345
 15:38:39.288,eb:33:2e:f9:57:b5, 2085-97-124 252:158:25:5351,-0.803,2.918,1.943,-95.764,-39.062,121.704,-17.369,-28.18,-113.698
 15:38:39.288,eb:33:2e:f9:57:b5, 2085-97-63 245:168:31:4288,-0.929,3.813,2.654,-24.048,78.796,89.05,-18.452,-27.801,-112.566
 15:38:39.288,eb:33:2e:f9:57:b5, 2085-97-238 250:41:27:6820,-1.099,3.836,1.67,78.125,-60.669,7.019,-18.386,-27.361,-112.165
 15:38:39.288,eb:33:2e:f9:57:b5, 2085-97-137 248:223:24:3584,-0.909,3.443,3.034,155.396,124.023,-65.491,-16.924,-27.312,-112.505
 15:38:39.349,eb:33:2e:f9:57:b5, 2085-97-229 249:87:15:2676,0.143,2.901,1.712,207.031,-98.389,-118.408,-14.546,-27.735,-113.538
 15:38:39.349,eb:33:2e:f9:57:b5, 2085-97-220 04:10:255:913,0.372,0.084,0.046,214.233,-309.265,-88.074,-12.162,-29.855,-114.351
 15:38:39.349,eb:33:2e:f9:57:b5, 2085-97-121 03:126:246:2439,0.402,-0.267,1.81,189.27,-236.755,-103.333,-9.899,-33.173,-114.56
 15:38:39.349,eb:33:2e:f9:57:b5, 2085-97-93 03:26:252:3548,0.411,-1.031,1.492,199.951,-106.75,-88.867,-7.52,-35.035,-115.428
 15:38:39.351,eb:33:2e:f9:57:b5, 2085-97-213 01:130:01:3019,0.15,-0.287,1.762,229.37,94.116,-35.583,-4.894,-35.09,-116.213
 15:38:39.351,eb:33:2e:f9:57:b5, 2085-97-228 00:50:02:1774,0.148,0.384,1.099,207.581,131.958,-25.696,-2.466,-33.728,-116.592
 15:38:39.351,eb:33:2e:f9:57:b5, 2085-97-223 01:40:02:3000,0.237,0.243,1.007,162.048,20.752,-50.598,-0.335,-33.069,-117.114
 15:38:39.351,eb:33:2e:f9:57:b5, 2085-97-72 02:88:02:2550,0.425,0.402,1.556,116.333,61.829,-12.268,1.198,-32.805,-117.449
 15:38:39.411,eb:33:2e:f9:57:b5, 2085-97-89 03:118:01:1668,0.365,0.175,0.907,94.299,95.52,15.93,2.192,-31.932,-117.361
 15:38:39.411,eb:33:2e:f9:57:b5, 2085-97-20 04:103:02:2024,0.582,0.364,1.127,97.351,120.85,52.185,2.911,-30.954,-116.927
 15:38:39.411,eb:33:2e:f9:57:b5, 2085-97-240 03:53:02:1498,0.486,0.362,0.724,76.477,144.348,61.218,3.411,-29.553,-116.115
 15:38:39.411,eb:33:2e:f9:57:b5, 2085-97-06 03:242:00:1769,0.373,0.088,0.788,50.903,112.671,43.03,3.702,-28.312,-115.444
 15:38:39.439,eb:33:2e:f9:57:b5, 2085-97-189 03:58:01:1730,0.509,0.059,0.928,42.969,98.694,36.621,3.928,-27.312,-114.972
 15:38:39.439,eb:33:2e:f9:57:b5, 2085-97-28 04:07:01:1736,0.499,0.177,0.857,39.917,104.98,41.443,4.114,-26.334,-114.456
 15:38:39.439,eb:33:2e:f9:57:b5, 2085-97-98 03:153:00:1732,0.357,0.105,0.844,32.715,102.905,34.668,4.268,-25.307,-113.945
 15:38:39.439,eb:33:2e:f9:57:b5, 2085-97-144 02:151:00:1892,0.352,0.073,0.874,29.358,82.764,28.931,4.4,-24.412,-113.533
 15:38:39.498,eb:33:2e:f9:57:b5, 2085-97-26 03:229:00:1741,0.366,0.099,0.883,25.879,72.693,29.968,4.532,-23.648,-113.148
 15:38:39.498,eb:33:2e:f9:57:b5, 2085-97-213 02:153:00:1867,0.369,0.093,0.885,19.958,57.556,23.987,4.62,-23.038,-112.808
 15:38:39.498,eb:33:2e:f9:57:b5, 2085-97-255 02:163:00:1871,0.368,0.082,0.912,17.761,52.185,23.254,4.708,-22.511,-112.511
 15:38:39.498,eb:33:2e:f9:57:b5, 2085-97-236 02:131:00:1924,0.372,0.072,0.93,15.747,49.988,21.729,4.768,-22.028,-112.225
 15:38:39.595,eb:33:2e:f9:57:b5, 2085-97-251 02:132:00:1951,0.362,0.056,0.966,15.747,57.495,24.536,4.828,-21.511,-111.934
 15:38:39.595,eb:33:2e:f9:57:b5, 2085-97-169 02:126:00:1945,0.335,0.062,0.965,15.076,67.932,26.917,4.867,-20.907,-111.605
 15:38:39.595,eb:33:2e:f9:57:b5, 2085-97-153 02:125:00:1990,0.326,0.064,0.975,15.137,75.989,30.151,4.9,-20.209,-111.237
 15:38:39.595,eb:33:2e:f9:57:b5, 2085-97-149 02:123:00:2031,0.321,0.056,0.975,15.442,84.534,32.532,4.916,-19.424,-110.83
 15:38:39.595,eb:33:2e:f9:57:b5, 2085-97-155 02:128:00:2045,0.318,0.062,0.998,15.564,93.811,31.616,4.944,-18.556,-110.418
 15:38:39.595,eb:33:2e:f9:57:b5, 2085-97-146 02:127:00:2060,0.292,0.062,0.994,16.663,103.088,30.334,4.982,-17.589,-110.006
 15:38:39.595,eb:33:2e:f9:57:b5, 2085-97-128 02:141:00:2027,0.313,0.062,1.028,19.104,107.239,24.658,5.065,-16.567,-109.633
 15:38:39.596,eb:33:2e:f9:57:b5, 2085-97-88 02:162:00:2041,0.287,0.075,0.99,21.057,106.506,19.897,5.18,-15.524,-109.308
 15:38:39.596,eb:33:2e:f9:57:b5, 2085-97-80 02:190:00:1862,0.259,0.093,0.938,20.264,102.661,13.977,5.328,-14.469,-109.039
 15:38:39.596,eb:33:2e:f9:57:b5, 2085-97-234 01:194:00:1987,0.223,0.091,0.96,20.996,83.496,7.08,5.493,-13.585,-108.853
 15:38:39.596,eb:33:2e:f9:57:b5, 2085-97-153 01:212:00:1917,0.184,0.094,0.962,19.592,71.899,-2.808,5.68,-12.81,-108.765
 15:38:39.596,eb:33:2e:f9:57:b5, 2085-97-138 01:189:00:2017,0.208,0.085,0.954,19.47,52.734,-11.353,5.878,-12.184,-108.781
 15:38:39.770,eb:33:2e:f9:57:b5, 2085-97-233 01:233:00:2015,0.288,0.089,1.009,18.25,46.936,-19.104,6.103,-11.689,-108.896
 15:38:39.770,eb:33:2e:f9:57:b5, 2085-97-118 02:244:00:2046,0.325,0.125,0.977,14.771,46.082,-30.029,6.306,-11.201,-109.1
 15:38:39.770,eb:33:2e:f9:57:b5, 2085-97-99 02:242:00:2020,0.301,0.12,0.987,10.498,58.167,-36.743,6.493,-10.64,-109.391
 15:38:39.770,eb:33:2e:f9:57:b5, 2085-97-91 02:49:01:1942,0.228,0.157,0.948,4.761,63.416,-43.335,6.63,-9.976,-109.715
 15:38:39.770,eb:33:2e:f9:57:b5, 2085-97-118 01:240:00:1981,0.185,0.123,0.984,1.404,63.538,-43.762,6.729,-9.3,-110.094
 15:38:39.770,eb:33:2e:f9:57:b5, 2085-97-169 01:13:01:2080,0.229,0.121,0.987,0.427,58.655,-47.18,6.795,-8.635,-110.473
 15:38:39.770,eb:33:2e:f9:57:b5, 2085-97-187 01:249:00:2160,0.2,0.133,1.022,-1.404,59.692,-56.763,6.861,-7.987,-110.934
 15:38:39.770,eb:33:2e:f9:57:b5, 2085-97-123 01:02:01:2155,0.137,0.122,1.072,-3.174,64.148,-67.627,6.916,-7.3,-111.484
 15:38:39.772,eb:33:2e:f9:57:b5, 2085-97-124 00:185:00:2115,-0.007,0.102,1.06,-4.883,65.308,-75.378,6.954,-6.57,-112.137
 15:38:39.772,eb:33:2e:f9:57:b5, 2085-97-105 255:98:00:1976,-0.116,0.062,0.974,-2.38,59.143,-73.73,6.987,-5.85,-112.813
 15:38:39.772,eb:33:2e:f9:57:b5, 2085-97-210 254:16:00:2068,-0.137,0.011,0.994,4.333,41.26,-62.805,7.064,-5.279,-113.434
 15:38:39.772,eb:33:2e:f9:57:b5, 2085-97-35 255:19:00:2100,-0.079,0.005,0.995,13.367,25.33,-49.194,7.202,-4.872,-113.95
 15:38:39.774,eb:33:2e:f9:57:b5, 2085-97-203 255:75:00:2243,0.038,0.022,1.068,21.301,13.977,-39.551,7.421,-4.636,-114.362
 15:38:39.774,eb:33:2e:f9:57:b5, 2085-97-205 00:181:00:2307,0.114,0.063,1.13,28.381,6.104,-37.476,7.701,-4.499,-114.725
 15:38:39.774,eb:33:2e:f9:57:b5, 2085-97-05 01:203:00:2308,0.112,0.091,1.124,33.569,4.211,-39.978,8.053,-4.389,-115.104
 15:38:39.774,eb:33:2e:f9:57:b5, 2085-97-197 00:191:00:2284,0.105,0.099,1.12,37.231,4.639,-45.532,8.438,-4.285,-115.521
 15:38:39.799,eb:33:2e:f9:57:b5, 2085-97-215 00:153:00:2328,0.117,0.09,1.116,42.908,1.77,-48.157,8.882,-4.18,-115.988
 15:38:39.799,eb:33:2e:f9:57:b5, 2085-97-07 01:147:00:2553,0.119,0.067,1.201,51.208,-2.136,-47.791,9.393,-4.12,-116.466
 15:38:39.799,eb:33:2e:f9:57:b5, 2085-97-156 00:155:00:2334,0.027,0.085,1.187,58.533,4.7,-47.852,9.987,-4.016,-116.938
 15:38:39.799,eb:33:2e:f9:57:b5, 2085-97-252 255:77:00:2432,-0.039,0.06,1.162,67.505,-1.16,-45.654,10.651,-3.917,-117.394
 15:38:39.980,eb:33:2e:f9:57:b5, 2085-97-149 255:55:00:2444,-0.047,0.022,1.197,77.148,-2.808,-39.429,11.409,-3.851,-117.817
 15:38:39.980,eb:33:2e:f9:57:b5, 2085-97-223 255:97:00:2490,0.027,0.031,1.207,89.355,-6.897,-29.114,12.272,-3.834,-118.158
 15:38:39.980,eb:33:2e:f9:57:b5, 2085-97-166 00:197:00:2511,0.102,0.067,1.242,100.83,-14.221,-26.672,13.255,-3.884,-118.455
 15:38:39.980,eb:33:2e:f9:57:b5, 2085-97-159 00:186:00:2521,0.116,0.105,1.217,110.352,-17.578,-30.64,14.337,-3.977,-118.773
 15:38:39.982,eb:33:2e:f9:57:b5, 2085-97-76 01:246:00:2664,0.235,0.108,1.239,122.009,-26.55,-31.311,15.535,-4.103,-119.119
 15:38:39.983,eb:33:2e:f9:57:b5, 2085-113-81 00:76:64:1394,0.307,0.142,1.321,133.179,-30.762,-36.743,16.848,-4.296,-119.531
 15:38:39.983,eb:33:2e:f9:57:b5, 2085-97-226 02:145:01:2678,0.392,0.168,1.309,138.977,-30.518,-40.1,17.556,-4.378,-119.762
 15:38:39.983,eb:33:2e:f9:57:b5, 2085-97-33 03:126:01:2721,0.402,0.209,1.318,151.062,-30.762,-48.706,19.05,-4.537,-120.289
 15:38:39.983,eb:33:2e:f9:57:b5, 2085-97-29 03:18:01:2800,0.341,0.169,1.343,166.26,-23.865,-50.537,20.693,-4.631,-120.861
 15:38:39.984,eb:33:2e:f9:57:b5, 2085-97-148 02:148:00:2892,0.334,0.09,1.415,189.514,-5.066,-41.504,22.505,-4.598,-121.355
 15:38:39.984,eb:33:2e:f9:57:b5, 2085-97-210 02:13:00:3071,0.361,0.055,1.415,217.041,4.822,-29.419,24.576,-4.438,-121.663
 15:38:39.984,eb:33:2e:f9:57:b5, 2085-97-61 03:105:255:3420,0.463,0.001,1.592,252.686,32.104,-5.127,26.949,-4.224,-121.745
 15:38:39.985,eb:33:2e:f9:57:b5, 2085-97-92 03:132:255:3880,0.416,-0.059,1.751,292.175,56.396,14.221,29.685,-3.867,-121.476
 15:38:39.985,eb:33:2e:f9:57:b5, 2085-97-77 02:167:255:3737,0.14,-0.035,1.815,315.857,76.721,-7.324,32.723,-3.257,-121.042
 15:38:39.985,eb:33:2e:f9:57:b5, 2085-97-206 00:25:00:4579,0.17,0.023,1.992,332.031,26.611,-46.265,35.986,-2.681,-120.97
 15:38:39.985,eb:33:2e:f9:57:b5, 2085-97-33 02:170:01:5364,0.331,0.165,2.558,336.609,24.841,-93.506,39.359,-2.115,-121.503
 15:38:40.009,eb:33:2e:f9:57:b5, 2085-97-74 03:250:01:4974,0.406,0.325,2.521,346.252,76.721,-94.238,42.775,-1.055,-121.855
 15:38:40.009,eb:33:2e:f9:57:b5, 2085-97-108 04:253:03:4529,0.728,0.435,2.392,367.615,111.45,-76.294,46.362,0.203,-121.783
 15:38:40.009,eb:33:2e:f9:57:b5, 2085-97-35 06:189:01:5129,0.746,0.397,2.312,391.724,105.713,-67.322,50.169,1.428,-121.52
 15:38:40.009,eb:33:2e:f9:57:b5, 2085-97-252 04:83:03:4719,0.425,0.182,2.41,411.194,216.003,-29.175,54.234,2.829,-120.493
 15:38:40.038,eb:33:2e:f9:57:b5, 2085-97-63 01:182:04:3997,-0.122,0.62,2.13,401.672,249.573,-63.293,58.48,4.499,-118.663
 15:38:40.038,eb:33:2e:f9:57:b5, 2085-97-229 254:247:01:3786,0.041,0.553,1.753,354.919,214.294,-92.285,62.391,6.389,-117.015
 15:38:40.038,eb:33:2e:f9:57:b5, 2085-97-63 01:253:254:3231,0.375,0.132,1.81,304.993,203.369,-67.078,65.874,7.998,-115.582
 15:38:40.038,eb:33:2e:f9:57:b5, 2085-97-249 04:119:248:1043,0.687,-0.609,1.09,233.643,186.34,-24.841,68.791,9.207,-113.868
 15:38:40.133,eb:33:2e:f9:57:b5, 2085-97-88 08:83:244:567,0.828,-1.224,0.217,179.26,122.253,2.869,71.005,9.794,-112.484
 15:38:40.133,eb:33:2e:f9:57:b5, 2085-97-68 250:109:07:077,0.326,0.068,0.35,255.615,148.987,-37.476,73.427,10.256,-111.088
 15:38:40.133,eb:33:2e:f9:57:b5, 2085-97-124 02:90:255:-1201,0.146,0.627,-1.282,118.774,-7.08,-87.83,75.35,11.294,-110.819
 15:38:40.133,eb:33:2e:f9:57:b5, 2085-97-247 02:186:252:-537,0.475,-0.226,-0.347,-25.879,-80.566,-38.208,75.597,11.656,-111.616
 15:38:40.188,eb:33:2e:f9:57:b5, 2085-97-24 03:111:251:1313,0.354,-0.544,0.307,-147.888,-58.899,3.601,74.432,11.58,-112.5
 15:38:40.188,eb:33:2e:f9:57:b5, 2085-97-105 03:152:252:1644,0.478,-0.499,0.786,-208.923,-2.686,23.865,72.543,11.349,-112.67
 15:38:40.188,eb:33:2e:f9:57:b5, 2085-97-180 03:06:253:1091,0.445,-0.381,0.703,-237.732,18.311,17.212,70.302,11.168,-112.5
 15:38:40.188,eb:33:2e:f9:57:b5, 2085-97-178 03:126:253:435,0.481,-0.346,0.364,-250.244,6.836,-2.075,67.885,11.151,-112.33
 15:38:40.220,eb:33:2e:f9:57:b5, 2085-97-216 03:204:253:215,0.486,-0.283,0.122,-257.568,-33.63,-27.832,65.286,11.239,-112.533
 15:38:40.220,eb:33:2e:f9:57:b5, 2085-97-38 04:214:253:612,0.539,-0.267,0.185,-260.315,-80.994,-49.805,62.545,11.327,-113.275
 15:38:40.220,eb:33:2e:f9:57:b5, 2085-97-02 04:189:253:875,0.454,-0.272,0.385,-265.137,-91.614,-66.04,59.689,11.404,-114.384
 15:38:40.220,eb:33:2e:f9:57:b5, 2085-97-92 03:112:253:902,0.396,-0.298,0.438,-273.865,-85.876,-74.646,56.755,11.547,-115.538
 15:38:40.220,eb:33:2e:f9:57:b5, 2085-97-223 02:248:252:963,0.32,-0.348,0.449,-284.119,-77.515,-70.801,53.718,11.673,-116.653
 15:38:40.220,eb:33:2e:f9:57:b5, 2085-97-75 02:240:252:1032,0.271,-0.388,0.479,-292.236,-68.359,-59.753,50.63,11.744,-117.642
 15:38:40.221,eb:33:2e:f9:57:b5, 2085-97-06 02:62:253:1102,0.235,-0.369,0.527,-298.157,-67.383,-46.631,47.477,11.695,-118.521
 15:38:40.221,eb:33:2e:f9:57:b5, 2085-97-203 01:140:253:1125,0.218,-0.323,0.535,-302.124,-72.205,-30.334,44.313,11.481,-119.295
 15:38:40.250,eb:33:2e:f9:57:b5, 2085-97-174 01:210:253:1209,0.208,-0.28,0.563,-304.565,-84.29,-11.841,41.127,11.03,-119.987
 15:38:40.250,eb:33:2e:f9:57:b5, 2085-97-200 01:232:253:1556,0.245,-0.266,0.657,-303.711,-105.835,6.897,37.963,10.3,-120.619
 15:38:40.250,eb:33:2e:f9:57:b5, 2085-97-22 02:108:254:1921,0.291,-0.223,0.811,-297.791,-117.004,25.208,34.843,9.294,-121.146
 15:38:40.250,eb:33:2e:f9:57:b5, 2085-97-170 02:70:255:2137,0.357,-0.147,1,-286.621,-121.216,46.204,31.871,8.091,-121.492
 15:38:40.250,eb:33:2e:f9:57:b5, 2085-113-58 00:166:225:-6675,0.383,-0.006,1.111,-274.17,-128.296,55.908,29.031,6.74,-121.679
 15:38:40.281,eb:33:2e:f9:57:b5, 2085-97-66 03:58:01:2361,0.406,0.078,1.129,-268.921,-131.897,60.181,27.669,6.026,-121.729
 15:38:40.281,eb:33:2e:f9:57:b5, 2085-97-68 03:184:01:2413,0.395,0.191,1.191,-262.146,-132.812,71.045,25.027,4.543,-121.718
 15:38:40.281,eb:33:2e:f9:57:b5, 2085-97-95 03:124:01:2593,0.428,0.203,1.228,-262.451,-141.357,76.599,22.396,2.972,-121.597
 15:38:40.281,eb:33:2e:f9:57:b5, 2085-97-144 03:66:01:2798,0.449,0.168,1.308,-266.235,-145.447,81.848,19.764,1.346,-121.36
 15:38:40.339,eb:33:2e:f9:57:b5, 2085-97-168 03:251:00:3073,0.47,0.138,1.445,-267.944,-147.156,87.341,17.073,-0.319,-121.014
 15:38:40.339,eb:33:2e:f9:57:b5, 2085-97-199 03:253:00:3274,0.473,0.117,1.549,-265.076,-149.719,93.079,14.398,-1.994,-120.553
 15:38:40.339,eb:33:2e:f9:57:b5, 2085-97-208 03:60:01:3424,0.477,0.129,1.641,-258.972,-154.541,98.267,11.733,-3.697,-119.943
 15:38:40.339,eb:33:2e:f9:57:b5, 2085-97-195 03:195:01:3539,0.461,0.184,1.698,-251.953,-163.696,100.708,9.13,-5.444,-119.251
 15:38:40.398,eb:33:2e:f9:57:b5, 2085-97-157 03:73:02:3647,0.442,0.251,1.75,-249.207,-174.561,97.839,6.531,-7.262,-118.477
 15:38:40.398,eb:33:2e:f9:57:b5, 2085-97-105 03:138:03:3839,0.394,0.352,1.829,-250.244,-189.27,87.952,3.928,-9.163,-117.702
 15:38:40.398,eb:33:2e:f9:57:b5, 2085-97-201 02:81:05:4001,0.314,0.547,1.915,-255.737,-206.421,68.848,1.258,-11.19,-116.988
 15:38:40.398,eb:33:2e:f9:57:b5, 2085-97-130 02:26:07:4218,0.325,0.769,2.001,-260.986,-226.196,48.34,-1.45,-13.354,-116.395
 15:38:40.400,eb:33:2e:f9:57:b5, 2085-97-132 02:249:08:4672,0.274,1.001,2.161,-261.78,-243.896,31.799,-4.219,-15.721,-115.856
 15:38:40.400,eb:33:2e:f9:57:b5, 2085-97-212 01:157:10:4952,0.971,1.23,2.377,-259.094,-239.136,16.602,-6.965,-18.111,-115.362
 15:38:40.400,eb:33:2e:f9:57:b5, 2085-97-147 01:56:11:8014,-1.44,1.665,2.619,-211.426,-362.122,-81.299,-9.536,-20.72,-115.027
 15:38:40.400,eb:33:2e:f9:57:b5, 2085-97-76 246:121:15:1571,0.517,1.476,3.634,-206.726,46.143,45.288,-11.722,-22.819,-114.917
 15:38:40.459,eb:33:2e:f9:57:b5, 2085-97-194 244:222:12:6897,-0.684,2.246,0.587,-192.871,-387.512,-57.739,-14.008,-23.884,-114.417
 15:38:40.459,eb:33:2e:f9:57:b5, 2085-97-206 253:56:19:3704,-1.026,2.501,1.373,-175.598,-95.947,21.79,-16.089,-25.164,-113.912
 15:38:40.459,eb:33:2e:f9:57:b5, 2085-97-29 241:207:24:4542,-1.028,2.568,3.193,-95.886,-61.707,34.668,-17.715,-26.785,-113.115
 15:38:40.459,eb:33:2e:f9:57:b5, 2085-97-149 242:117:24:8215,-0.724,3.448,1.525,-8.911,-233.276,-39.368,-18.534,-27.065,-112.758
 15:38:40.490,eb:33:2e:f9:57:b5, 2085-97-161 245:204:25:6481,-1.084,3.266,3.256,56.396,-10.132,-75.623,-18.188,-28.103,-112.934
 15:38:40.490,eb:33:2e:f9:57:b5, 2085-97-107 250:225:25:3994,-0.722,3.424,2.343,118.53,5.676,-167.48,-16.595,-27.955,-114.252
 15:38:40.490,eb:33:2e:f9:57:b5, 2085-97-97 02:48:04:056,0.787,2.453,1.64,145.996,-166.748,-204.102,-14.282,-29.52,-116.049
 15:38:40.490,eb:33:2e:f9:57:b5, 2085-97-251 02:92:253:3405,0.479,-0.196,0.27,205.566,-355.103,-101.379,-12.074,-32.805,-116.9
 15:38:40.518,eb:33:2e:f9:57:b5, 2085-97-215 04:95:245:3043,0.539,-1.129,1.094,169.861,-185.303,-136.719,-9.734,-35.376,-117.872
 15:38:40.518,eb:33:2e:f9:57:b5, 2085-97-76 04:68:252:3847,0.361,-0.918,1.782,201.111,33.02,-80.322,-7.213,-36.343,-119.064
 15:38:40.518,eb:33:2e:f9:57:b5, 2085-97-37 03:217:00:2551,0.502,0.053,1.746,231.689,255.249,-0.366,-4.598,-34.695,-119.674
 15:38:40.518,eb:33:2e:f9:57:b5, 2085-97-24 02:139:03:1732,-0.228,0.417,0.547,218.811,149.048,42.236,-2.422,-32.41,-119.487
 15:38:40.609,eb:33:2e:f9:57:b5, 2085-97-243 254:135:04:3930,0.098,0.635,1.866,158.691,126.282,41.26,-0.742,-31.443,-119.13
 15:38:40.609,eb:33:2e:f9:57:b5, 2085-97-77 02:37:02:1264,0.302,0.3,1.322,109.192,225.403,57.983,0.242,-29.46,-118.537
 15:38:40.609,eb:33:2e:f9:57:b5, 2085-97-109 01:236:00:1866,0.276,0.183,0.433,65.002,103.21,22.339,0.846,-27.779,-118.125
 15:38:40.609,eb:33:2e:f9:57:b5, 2085-97-73 03:34:01:2260,0.553,0.017,1.216,92.468,107.727,66.711,1.406,-26.895,-117.609
 15:38:40.611,eb:33:2e:f9:57:b5, 2085-97-83 04:85:01:1510,0.526,0.16,0.846,78.247,148.804,70.068,1.912,-25.521,-116.757
 15:38:40.611,eb:33:2e:f9:57:b5, 2085-97-241 03:31:01:1512,0.442,0.146,0.732,49.133,121.216,47.18,2.252,-24.186,-116.071
 15:38:40.611,eb:33:2e:f9:57:b5, 2085-97-40 03:163:00:1847,0.416,0.096,0.8,31.25,88.928,30.762,2.461,-23.176,-115.631
 15:38:40.611,eb:33:2e:f9:57:b5, 2085-97-76 03:175:00:1812,0.335,0.096,0.911,28.198,90.881,34.241,2.609,-22.308,-115.236
 15:38:40.639,eb:33:2e:f9:57:b5, 2085-97-158 02:73:00:1861,0.315,0.037,0.91,25.024,82.275,30.151,2.736,-21.445,-114.862
 15:38:40.639,eb:33:2e:f9:57:b5, 2085-97-36 02:167:00:1763,0.245,0.067,0.86,22.156,63.049,23.682,2.856,-20.72,-114.532
 15:38:40.639,eb:33:2e:f9:57:b5, 2085-97-27 02:113:00:1840,0.279,0.073,0.887,18.127,35.034,19.165,2.983,-20.259,-114.291
 15:38:40.639,eb:33:2e:f9:57:b5, 2085-97-58 02:102:00:1876,0.286,0.057,0.913,16.296,16.174,16.602,3.087,-20.034,-114.093
 15:38:40.729,eb:33:2e:f9:57:b5, 2085-97-88 02:90:00:1907,0.311,0.051,0.925,14.709,3.418,14.648,3.192,-19.946,-113.923
 15:38:40.729,eb:33:2e:f9:57:b5, 2085-97-158 02:55:00:1969,0.325,0.027,0.957,15.015,-2.625,15.198,3.29,-19.968,-113.769
 15:38:40.729,eb:33:2e:f9:57:b5, 2085-97-148 02:63:00:1977,0.326,0.024,0.963,16.174,-0.549,16.846,3.4,-19.99,-113.604
 15:38:40.729,eb:33:2e:f9:57:b5, 2085-97-179 02:83:00:2023,0.351,0.033,0.977,16.907,6.47,20.508,3.499,-19.973,-113.406
 15:38:40.729,eb:33:2e:f9:57:b5, 2085-97-242 02:88:00:2019,0.333,0.041,0.986,16.174,22.156,23.682,3.587,-19.836,-113.159
 15:38:40.729,eb:33:2e:f9:57:b5, 2085-97-154 02:50:00:2072,0.312,0.026,1.007,16.479,37.659,25.574,3.658,-19.545,-112.885
 15:38:40.729,eb:33:2e:f9:57:b5, 2085-97-117 02:51:00:2039,0.325,0.024,1.009,17.944,50.476,26.917,3.741,-19.105,-112.582
 15:38:40.729,eb:33:2e:f9:57:b5, 2085-97-131 02:67:00:2084,0.314,0.032,0.986,20.386,57.922,27.71,3.829,-18.567,-112.253
 15:38:40.758,eb:33:2e:f9:57:b5, 2085-97-123 02:71:00:2069,0.29,0.032,1.009,23.376,63.538,24.475,3.961,-17.963,-111.94
 15:38:40.758,eb:33:2e:f9:57:b5, 2085-97-98 02:120:00:2035,0.305,0.043,1.004,25.146,67.627,21.912,4.12,-17.325,-111.654
 15:38:40.758,eb:33:2e:f9:57:b5, 2085-97-155 02:166:00:1969,0.312,0.065,0.99,25.085,70.251,17.639,4.312,-16.655,-111.401
 15:38:40.758,eb:33:2e:f9:57:b5, 2085-97-29 02:124:00:2114,0.295,0.056,1.007,24.536,70.618,12.024,4.499,-15.963,-111.204
 15:38:40.818,eb:33:2e:f9:57:b5, 2085-97-75 02:126:00:1998,0.269,0.069,0.99,23.865,76.172,7.141,4.708,-15.211,-111.044
 15:38:40.818,eb:33:2e:f9:57:b5, 2085-97-13 02:135:00:2023,0.23,0.073,0.992,23.865,75.5,3.418,4.922,-14.469,-110.929
 15:38:40.818,eb:33:2e:f9:57:b5, 2085-97-172 01:126:00:2072,0.215,0.062,0.995,24.536,75.562,1.282,5.153,-13.716,-110.841
 15:38:40.818,eb:33:2e:f9:57:b5, 2085-97-203 01:184:00:1937,0.196,0.082,0.974,24.353,75.195,-1.404,5.383,-12.953,-110.775
 15:38:40.848,eb:33:2e:f9:57:b5, 2085-97-89 01:171:00:1950,0.164,0.088,0.952,23.315,64.697,-6.836,5.625,-12.255,-110.753
 15:38:40.848,eb:33:2e:f9:57:b5, 2085-97-14 01:143:00:1960,0.12,0.089,0.938,21.912,53.406,-11.963,5.861,-11.656,-110.797
 15:38:40.848,eb:33:2e:f9:57:b5, 2085-97-35 01:205:00:1894,0.171,0.085,0.974,21.484,44.922,-13.55,6.108,-11.168,-110.874
 15:38:40.848,eb:33:2e:f9:57:b5, 2085-97-223 00:92:00:1579,0.031,0.061,0.993,14.587,46.936,-31.189,6.334,-10.739,-111.044
 15:38:40.911,eb:33:2e:f9:57:b5, 2085-97-194 03:26:01:1841,0.289,0.234,1.311,20.508,21.301,-26.917,6.614,-10.536,-111.105
 15:38:40.911,eb:33:2e:f9:57:b5, 2085-97-59 00:97:00:2443,0.144,0.07,0.86,23.743,17.151,-22.583,6.833,-10.129,-111.33
 15:38:40.911,eb:33:2e:f9:57:b5, 2085-97-00 02:08:01:1951,0.24,0.094,1.018,21.973,33.813,-30.334,7.114,-9.805,-111.561
 15:38:40.911,eb:33:2e:f9:57:b5, 2085-97-153 01:252:00:2098,0.188,0.14,1.008,22.339,30.701,-34.18,7.388,-9.481,-111.846
 15:38:40.939,eb:33:2e:f9:57:b5, 2085-97-173 01:03:01:2027,0.216,0.127,1.01,20.02,38.452,-40.527,7.663,-9.08,-112.181
 15:38:40.939,eb:33:2e:f9:57:b5, 2085-97-192 01:242:00:2107,0.176,0.116,1.037,19.165,39.795,-45.898,7.921,-8.652,-112.571
 15:38:40.939,eb:33:2e:f9:57:b5, 2085-97-254 00:46:01:1982,0.132,0.125,0.981,19.043,43.945,-47.302,8.174,-8.146,-112.983
 15:38:40.939,eb:33:2e:f9:57:b5, 2085-97-124 01:97:01:2194,0.208,0.168,1.03,16.602,30.762,-64.148,8.427,-7.718,-113.478
 15:38:40.969,eb:33:2e:f9:57:b5, 2085-97-110 01:10:01:2180,0.097,0.153,1.07,12.329,36.56,-83.435,8.663,-7.267,-114.186
 15:38:40.969,eb:33:2e:f9:57:b5, 2085-97-90 00:198:00:2131,0.046,0.119,1.062,11.841,33.936,-96.802,8.888,-6.779,-115.032
 15:38:40.969,eb:33:2e:f9:57:b5, 2085-97-133 00:151:00:2251,0.066,0.083,1.045,14.282,20.569,-104.492,9.13,-6.35,-116.005
 15:38:40.969,eb:33:2e:f9:57:b5, 2085-97-85 00:42:00:2278,0.053,0.046,1.104,21.79,17.029,-99.487,9.41,-6.01,-117.004
 15:38:40.999,eb:33:2e:f9:57:b5, 2085-97-195 00:110:00:2518,0.146,0.037,1.179,34.851,7.019,-88.135,9.794,-5.74,-117.894
 15:38:41.000,eb:33:2e:f9:57:b5, 2085-97-01 01:115:00:2635,0.139,0.052,1.248,45.166,4.944,-86.67,10.283,-5.548,-118.762
 15:38:41.000,eb:33:2e:f9:57:b5, 2085-113-81 00:128:64:271,0.127,0.053,1.288,56.946,1.892,-83.923,10.887,-5.361,-119.597
 15:38:41.000,eb:33:2e:f9:57:b5, 2085-97-171 00:110:00:2580,0.073,0.053,1.275,62.622,4.028,-80.566,11.223,-5.262,-119.998
 15:38:41.060,eb:33:2e:f9:57:b5, 2085-97-19 00:60:00:2591,0.004,0.05,1.217,73.73,1.099,-76.172,11.986,-5.076,-120.767
 15:38:41.060,eb:33:2e:f9:57:b5, 2085-97-108 00:88:00:2605,0.095,0.023,1.292,87.952,-6.042,-70.557,12.859,-4.944,-121.492
 15:38:41.060,eb:33:2e:f9:57:b5, 2085-97-33 01:136:00:2627,0.145,0.064,1.269,101.44,-13.184,-67.81,13.881,-4.878,-122.19
 15:38:41.060,eb:33:2e:f9:57:b5, 2085-97-111 01:139:00:2729,0.201,0.077,1.312,115.967,-20.02,-65.43,15.029,-4.867,-122.871
 15:38:41.089,eb:33:2e:f9:57:b5, 2085-97-228 01:121:00:2796,0.273,0.067,1.361,132.141,-30.029,-63.354,16.337,-4.938,-123.574
 15:38:41.089,eb:33:2e:f9:57:b5, 2085-97-167 02:171:00:2922,0.375,0.071,1.403,151.917,-38.452,-54.626,17.82,-5.109,-124.239
 15:38:41.089,eb:33:2e:f9:57:b5, 2085-97-32 03:183:00:2951,0.348,0.105,1.427,171.753,-31.189,-46.997,19.506,-5.284,-124.832
