Time,Device name,Chip Time(),Acceleration X(g),Acceleration Y(g),Acceleration Z(g),Angular velocity X(°/s),Angular velocity Y(°/s),Angular velocity Z(°/s),Angle X(°),Angle Y(°),Angle Z(°)
 15:12:47.465,eb:33:2e:f9:57:b5, 2085-97-39 19:137:09:1699,3.724,-5.756,3.858,78.857,-32.043,-319.153,-4.175,0.945,101.305
 15:12:47.466,eb:33:2e:f9:57:b5, 2085-97-69 11:223:12:5295,1.179,0.052,-1.451,52.429,134.155,-109.436,-3.862,0.873,99.443
 15:12:47.466,eb:33:2e:f9:57:b5, 2085-97-62 12:242:07:1545,1.522,2.489,2.648,66.345,-71.411,6.531,-3.049,1.285,98.943
 15:12:47.466,eb:33:2e:f9:57:b5, 2085-97-246 11:72:02:1263,0.932,-0.008,-0.278,23.499,92.712,-21.545,-2.664,1.269,98.904
 15:12:47.495,eb:33:2e:f9:57:b5, 2085-97-18 00:252:255:3519,-0.748,0.695,2.162,29.236,158.569,44.25,-2.362,2.812,98.987
 15:12:47.495,eb:33:2e:f9:57:b5, 2085-97-72 246:254:254:4123,-1.477,-0.377,1.193,8.24,182.739,22.827,-2.181,4.532,99.311
 15:12:47.495,eb:33:2e:f9:57:b5, 2085-97-236 241:240:251:3846,-1.336,-0.244,1.919,-10.559,83.679,2.014,-2.219,5.828,99.344
 15:12:47.495,eb:33:2e:f9:57:b5, 2085-97-215 249:157:255:3312,-0.281,-0.272,1.829,-8.667,-23.804,-13.062,-2.324,6.042,99.256
 15:12:47.553,eb:33:2e:f9:57:b5, 2085-97-61 01:190:00:2342,0.409,0.022,1.346,-21.484,-48.767,-14.526,-2.505,5.587,99.124
 15:12:47.553,eb:33:2e:f9:57:b5, 2085-97-210 03:63:01:1899,0.473,0.152,0.988,-31.86,-10.315,-3.723,-2.785,5.279,99.058
 15:12:47.553,eb:33:2e:f9:57:b5, 2085-113-58 00:255:00:-4020,0.37,0.129,0.91,-40.344,36.621,7.629,-3.164,5.433,99.075
 15:12:47.553,eb:33:2e:f9:57:b5, 2085-97-14 01:00:00:2041,-0.137,0.091,0.936,-43.579,53.65,12.451,-3.367,5.674,99.119
 15:12:47.553,eb:33:2e:f9:57:b5, 2085-97-85 253:85:254:2161,-0.43,-0.123,1.037,-44.739,57.434,15.137,-3.807,6.279,99.245
 15:12:47.616,eb:33:2e:f9:57:b5, 2085-97-161 252:251:253:2104,-0.361,-0.254,1.049,-38.635,33.386,10.193,-4.224,6.735,99.338
 15:12:47.616,eb:33:2e:f9:57:b5, 2085-97-236 253:121:254:2058,-0.143,-0.228,1.012,-31.677,10.864,4.7,-4.565,6.943,99.404
 15:12:47.616,eb:33:2e:f9:57:b5, 2085-97-122 255:26:255:1969,-0.036,-0.134,0.987,-28.259,1.709,3.296,-4.867,6.987,99.437
 15:12:47.616,eb:33:2e:f9:57:b5, 2085-97-226 255:60:255:1964,-0.015,-0.103,0.956,-28.32,5.066,3.967,-5.147,7.02,99.481
 15:12:47.674,eb:33:2e:f9:57:b5, 2085-97-191 255:54:255:2056,-0.086,-0.09,0.985,-29.541,11.597,5.432,-5.444,7.108,99.52
 15:12:47.674,eb:33:2e:f9:57:b5, 2085-97-230 254:01:255:2144,-0.179,-0.095,1.042,-31.738,15.076,6.409,-5.746,7.262,99.58
 15:12:47.674,eb:33:2e:f9:57:b5, 2085-97-105 254:198:254:2125,-0.195,-0.146,1.045,-33.203,12.512,5.005,-6.075,7.405,99.624
 15:12:47.674,eb:33:2e:f9:57:b5, 2085-97-182 254:195:254:2098,-0.136,-0.171,1.029,-33.081,7.629,3.113,-6.405,7.504,99.668
 15:12:47.734,eb:33:2e:f9:57:b5, 2085-97-29 255:229:254:2088,-0.102,-0.135,1.031,-33.569,5.31,2.319,-6.746,7.564,99.684
 15:12:47.734,eb:33:2e:f9:57:b5, 2085-97-64 255:244:254:2048,-0.098,-0.135,1.024,-34.851,5.737,1.709,-7.086,7.625,99.712
 15:12:47.734,eb:33:2e:f9:57:b5, 2085-97-41 255:189:254:2027,-0.113,-0.144,0.999,-35.278,6.897,1.77,-7.449,7.685,99.717
 15:12:47.734,eb:33:2e:f9:57:b5, 2085-97-30 255:198:254:2117,-0.106,-0.163,0.998,-34.79,8.118,1.709,-7.8,7.767,99.739
 15:12:47.734,eb:33:2e:f9:57:b5, 2085-97-32 255:223:254:2224,-0.13,-0.145,1.052,-35.4,9.277,2.502,-8.157,7.85,99.745
 15:12:47.734,eb:33:2e:f9:57:b5, 2085-97-184 254:191:254:2270,-0.185,-0.131,1.105,-37.598,7.446,2.93,-8.52,7.943,99.772
 15:12:47.734,eb:33:2e:f9:57:b5, 2085-97-104 254:186:254:2353,-0.201,-0.159,1.146,-40.161,4.761,2.625,-8.921,8.009,99.789
 15:12:47.734,eb:33:2e:f9:57:b5, 2085-97-101 254:206:254:2401,-0.177,-0.164,1.154,-43.762,0.916,0.732,-9.338,8.036,99.816
 15:12:47.738,eb:33:2e:f9:57:b5, 2085-97-173 254:00:255:2513,-0.167,-0.134,1.212,-48.096,-3.845,0.366,-9.811,8.02,99.822
 15:12:47.738,eb:33:2e:f9:57:b5, 2085-97-144 254:40:255:2623,-0.173,-0.109,1.249,-54.749,-6.042,0.183,-10.322,7.971,99.849
 15:12:47.738,eb:33:2e:f9:57:b5, 2085-97-160 254:87:255:2695,-0.175,-0.093,1.296,-63.904,-8.85,-0.427,-10.926,7.888,99.86
 15:12:47.738,eb:33:2e:f9:57:b5, 2085-97-126 254:56:255:2699,-0.206,-0.09,1.31,-75.195,-10.559,-1.221,-11.624,7.789,99.882
 15:12:47.795,eb:33:2e:f9:57:b5, 2085-97-90 254:180:255:2912,-0.207,-0.057,1.355,-88.623,-10.742,-2.93,-12.464,7.679,99.877
 15:12:47.795,eb:33:2e:f9:57:b5, 2085-97-32 254:143:255:3024,-0.266,-0.035,1.426,-106.384,-14.954,-4.517,-13.442,7.537,99.882
 15:12:47.795,eb:33:2e:f9:57:b5, 2085-97-165 253:12:00:3199,-0.305,-0.034,1.513,-128.174,-13.794,-10.742,-14.639,7.377,99.838
 15:12:47.795,eb:33:2e:f9:57:b5, 2085-97-154 253:231:255:3172,-0.292,-0.001,1.59,-152.405,-19.47,-18.311,-16.062,7.174,99.756
 15:12:47.823,eb:33:2e:f9:57:b5, 2085-97-08 254:186:00:3302,-0.182,0.028,1.564,-179.749,-15.32,-28.32,-17.77,6.938,99.575
 15:12:47.823,eb:33:2e:f9:57:b5, 2085-97-203 254:10:01:3373,-0.156,0.068,1.642,-209.534,-14.221,-36.072,-19.759,6.696,99.327
 15:12:47.823,eb:33:2e:f9:57:b5, 2085-97-118 255:62:01:3944,0.012,0.144,1.793,-246.399,-9.583,-40.527,-22.104,6.449,98.998
 15:12:47.823,eb:33:2e:f9:57:b5, 2085-97-62 00:224:03:4846,0.003,0.228,2.161,-290.283,-0.732,-47.058,-24.846,6.251,98.624
 15:12:47.855,eb:33:2e:f9:57:b5, 2085-97-64 00:114:02:4805,0.025,0.615,2.391,-337.097,-23.926,-38.696,-28.054,5.944,98.278
 15:12:47.855,eb:33:2e:f9:57:b5, 2085-97-243 255:242:00:5059,-0.105,0.193,2.327,-372.498,-37.109,-39.062,-31.652,5.477,98.108
 15:12:47.855,eb:33:2e:f9:57:b5, 2085-97-220 254:191:255:4915,-0.073,0.019,2.458,-394.226,-59.204,-40.649,-35.508,4.834,98.053
 15:12:47.855,eb:33:2e:f9:57:b5, 2085-97-84 00:245:01:5005,0.012,0.207,2.419,-406.311,-74.646,-38.757,-39.529,4.065,98.102
 15:12:47.914,eb:33:2e:f9:57:b5, 2085-97-187 00:159:03:5915,0.187,0.297,2.748,-414.185,-107.727,-28.381,-43.61,3.197,98.438
 15:12:47.914,eb:33:2e:f9:57:b5, 2085-97-61 02:42:05:4600,0.316,0.593,2.67,-432.19,-149.048,-7.935,-47.818,2.12,99.256
 15:12:47.914,eb:33:2e:f9:57:b5, 2085-97-162 01:234:03:3550,0.095,0.539,1.944,-446.411,-86.792,8.423,-52.18,1.357,100.206
 15:12:47.914,eb:33:2e:f9:57:b5, 2085-97-220 255:11:04:1161,-0.33,0.515,1.246,-445.557,1.77,-11.658,-56.678,1.121,100.492
 15:12:47.944,eb:33:2e:f9:57:b5, 2085-97-87 244:71:250:-2178,-1.096,0.698,-1.055,-311.462,153.992,-51.453,-60.639,1.181,99.761
 15:12:47.944,eb:33:2e:f9:57:b5, 2085-97-237 251:101:08:2954,-0.394,0.433,1.029,-22.522,133.85,-161.682,-62.155,0.901,97.597
 15:12:47.944,eb:33:2e:f9:57:b5, 2085-97-186 252:208:14:3700,-0.292,1.488,1.538,145.386,66.711,-216.675,-61.364,-0.406,95.883
 15:12:47.944,eb:33:2e:f9:57:b5, 2085-97-16 255:84:15:3840,0.014,1.941,1.929,198.242,9.888,-228.699,-59.507,-2.175,94.444
 15:12:47.974,eb:33:2e:f9:57:b5, 2085-97-189 00:13:16:2663,0.125,1.938,1.642,199.89,-22.156,-230.896,-57.448,-4.213,93.307
 15:12:47.974,eb:33:2e:f9:57:b5, 2085-97-223 00:16:16:1665,0.062,2.035,0.985,231.934,-41.809,-188.171,-55.234,-6.152,92.39
 15:12:47.974,eb:33:2e:f9:57:b5, 2085-97-190 255:182:14:1830,-0.113,1.943,0.81,294.128,-59.631,-123.84,-52.509,-7.69,91.895
 15:12:47.974,eb:33:2e:f9:57:b5, 2085-97-13 254:142:12:1861,-0.323,1.75,0.926,354.858,-87.769,-69.092,-49.197,-8.871,91.901
 15:12:48.035,eb:33:2e:f9:57:b5, 2085-97-52 253:162:09:1589,-0.414,1.391,0.848,398.621,-105.652,-32.654,-45.428,-9.893,92.329
 15:12:48.035,eb:33:2e:f9:57:b5, 2085-97-101 252:142:06:1485,-0.453,0.999,0.744,405.884,-89.783,-24.963,-41.462,-10.789,92.807
 15:12:48.035,eb:33:2e:f9:57:b5, 2085-97-71 252:55:04:1288,-0.446,0.67,0.654,387.512,-51.88,-34.302,-37.518,-11.525,93.032
 15:12:48.035,eb:33:2e:f9:57:b5, 2085-97-184 252:182:02:1448,-0.385,0.411,0.646,359.07,1.465,-47.424,-33.755,-11.953,92.829
 15:12:48.065,eb:33:2e:f9:57:b5, 2085-97-246 252:13:02:1961,-0.379,0.287,0.813,338.013,49.805,-52.673,-30.146,-11.97,92.219
 15:12:48.065,eb:33:2e:f9:57:b5, 2085-97-199 252:166:01:2621,-0.429,0.233,1.108,337.524,68.115,-41.504,-26.636,-11.646,91.5
 15:12:48.065,eb:33:2e:f9:57:b5, 2085-97-74 252:124:00:3023,-0.496,0.15,1.411,349.792,60.547,-21.057,-23.066,-11.179,90.939
 15:12:48.065,eb:33:2e:f9:57:b5, 2085-97-152 251:115:254:2949,-0.612,-0.057,1.47,357.91,57.739,-5.432,-19.451,-10.69,90.637
 15:12:48.094,eb:33:2e:f9:57:b5, 2085-97-221 250:44:252:2795,-0.665,-0.34,1.406,353.271,77.759,-3.235,-15.826,-10.058,90.396
 15:12:48.094,eb:33:2e:f9:57:b5, 2085-97-155 250:105:250:2858,-0.641,-0.602,1.357,340.454,115.906,-11.536,-12.305,-9.119,90.104
 15:12:48.094,eb:33:2e:f9:57:b5, 2085-97-125 251:151:249:3200,-0.496,-0.765,1.462,329.163,152.405,-21.912,-8.882,-7.8,89.676
 15:12:48.094,eb:33:2e:f9:57:b5, 2085-97-215 252:234:248:3733,-0.303,-0.849,1.714,325.562,163.818,-21.057,-5.565,-6.218,89.258
 15:12:48.223,eb:33:2e:f9:57:b5, 2085-97-40 254:51:247:4134,-0.179,-0.971,1.924,323.425,145.752,-2.014,-2.274,-4.675,89.039
 15:12:48.223,eb:33:2e:f9:57:b5, 2085-97-228 254:216:243:4126,-0.094,-1.289,2.041,308.472,125.854,18.86,0.879,-3.334,89.138
 15:12:48.223,eb:33:2e:f9:57:b5, 2085-97-168 255:129:239:4071,0.015,-1.774,1.992,276.855,126.831,31.494,3.807,-2.098,89.456
 15:12:48.223,eb:33:2e:f9:57:b5, 2085-97-183 00:243:234:4133,0.197,-2.348,1.999,226.868,146.912,30.64,6.306,-0.764,89.912
 15:12:48.223,eb:33:2e:f9:57:b5, 2085-97-124 02:177:230:4389,0.464,-2.896,2.062,160.217,171.204,17.944,8.234,0.797,90.363
 15:12:48.223,eb:33:2e:f9:57:b5, 2085-97-226 04:251:226:4687,0.739,-3.441,2.256,79.651,182.312,-6.775,9.426,2.565,90.714
 15:12:48.223,eb:33:2e:f9:57:b5, 2085-97-218 06:02:225:4606,0.996,-3.771,2.283,12.573,170.41,-30.701,9.86,4.351,90.818
 15:12:48.223,eb:33:2e:f9:57:b5, 2085-97-22 09:164:224:4143,1.26,-3.928,2.148,-48.584,149.292,-53.467,9.635,5.988,90.681
 15:12:48.223,eb:33:2e:f9:57:b5, 2085-97-154 10:238:225:3871,1.382,-3.856,1.923,-103.577,132.446,-72.571,8.789,7.476,90.264
 15:12:48.223,eb:33:2e:f9:57:b5, 2085-97-73 11:33:228:3754,1.413,-3.626,1.861,-141.785,98.328,-82.703,7.432,8.734,89.659
 15:12:48.223,eb:33:2e:f9:57:b5, 2085-97-01 11:203:230:3487,1.298,-3.329,1.783,-153.076,43.884,-82.092,5.801,9.525,88.901
 15:12:48.223,eb:33:2e:f9:57:b5, 2085-97-157 09:213:233:2892,1.097,-2.966,1.583,-143.188,-13.306,-75.439,4.186,9.706,88.138
 15:12:48.274,eb:33:2e:f9:57:b5, 2085-97-209 07:40:237:1939,0.871,-2.571,1.188,-139.893,-43.03,-77.515,2.642,9.421,87.352
 15:12:48.274,eb:33:2e:f9:57:b5, 2085-97-96 06:213:240:993,0.771,-2.127,0.698,-154.053,-40.955,-91.98,1.038,9.014,86.501
 15:12:48.274,eb:33:2e:f9:57:b5, 2085-97-62 06:233:244:362,0.803,-1.649,0.324,-178.101,-24.719,-110.107,-0.802,8.685,85.463
 15:12:48.274,eb:33:2e:f9:57:b5, 2085-97-196 06:244:249:-347,0.893,-1.093,0.022,-198.181,-9.155,-124.817,-2.884,8.492,84.287
 15:12:48.305,eb:33:2e:f9:57:b5, 2085-113-81 00:199:160:2688,0.992,-0.372,-0.386,-200.989,0.671,-125.61,-5.103,8.361,83.007
 15:12:48.305,eb:33:2e:f9:57:b5, 2085-97-199 07:243:06:-2269,0.618,0.072,-0.681,-197.327,9.705,-116.089,-6.185,8.333,82.419
 15:12:48.305,eb:33:2e:f9:57:b5, 2085-97-70 06:68:13:3732,-0.447,4.595,-3.173,349.182,11.963,145.264,-6.29,8.344,81.837
 15:12:48.305,eb:33:2e:f9:57:b5, 2085-97-206 253:63:240:8745,-2.012,1.658,0.261,267.761,24.719,70.19,-2.994,8.042,82.667
 15:12:48.365,eb:33:2e:f9:57:b5, 2085-97-38 247:211:253:5503,-1.604,2.636,7.189,162.292,-238.22,-77.637,-0.571,6.921,82.002
 15:12:48.365,eb:33:2e:f9:57:b5, 2085-97-07 246:118:10:6297,-0.381,1.873,4.799,89.172,-162.17,5.554,0.818,5.339,81.859
 15:12:48.365,eb:33:2e:f9:57:b5, 2085-97-220 03:125:07:3698,0.706,1.299,2.282,-26.367,-174.438,-17.7,1.055,3.538,81.782
 15:12:48.365,eb:33:2e:f9:57:b5, 2085-97-248 06:194:01:1359,0.775,0.346,1.42,-67.749,-64.087,2.869,0.483,2.39,81.705
 15:12:48.394,eb:33:2e:f9:57:b5, 2085-97-217 04:152:255:635,0.115,0.16,0.375,-79.346,46.265,7.568,-0.269,2.422,81.782
 15:12:48.394,eb:33:2e:f9:57:b5, 2085-97-115 254:180:253:2015,-0.138,-0.283,0.688,-67.688,79.346,10.315,-1.011,3.148,81.898
 15:12:48.394,eb:33:2e:f9:57:b5, 2085-97-122 255:195:254:1782,-0.058,-0.16,0.974,-58.044,64.636,6.531,-1.631,3.845,81.953
 15:12:48.394,eb:33:2e:f9:57:b5, 2085-97-28 255:41:255:2115,-0.094,-0.062,1.005,-54.871,57.678,4.333,-2.186,4.466,82.002
 15:12:48.423,eb:33:2e:f9:57:b5, 2085-97-137 00:242:255:2156,0.092,-0.067,1.098,-56.519,55.42,4.822,-2.752,5.026,82.018
 15:12:48.423,eb:33:2e:f9:57:b5, 2085-97-35 00:237:255:2207,0.034,-0.018,1.034,-62.134,68.726,9.949,-3.34,5.658,82.084
 15:12:48.423,eb:33:2e:f9:57:b5, 2085-97-16 00:174:255:2202,-0.124,0.017,1.135,-68.115,73.242,13.916,-3.994,6.367,82.156
 15:12:48.423,eb:33:2e:f9:57:b5, 2085-97-07 254:171:254:2141,-0.298,-0.12,1.08,-73.425,74.402,14.709,-4.697,7.136,82.277
 15:12:48.487,eb:33:2e:f9:57:b5, 2085-97-172 253:03:254:1993,-0.259,-0.214,1.033,-72.327,61.34,11.78,-5.427,7.817,82.348
 15:12:48.487,eb:33:2e:f9:57:b5, 2085-97-15 254:78:254:1928,-0.259,-0.21,0.972,-66.345,46.143,7.202,-6.114,8.361,82.403
 15:12:48.487,eb:33:2e:f9:57:b5, 2085-97-184 253:226:253:1971,-0.301,-0.258,0.917,-58.105,31.25,5.066,-6.74,8.729,82.419
 15:12:48.487,eb:33:2e:f9:57:b5, 2085-97-142 253:57:254:1960,-0.274,-0.282,0.955,-50.598,17.273,2.441,-7.278,8.976,82.458
 15:12:48.516,eb:33:2e:f9:57:b5, 2085-97-130 253:214:253:2032,-0.286,-0.203,1.018,-44.983,0.427,1.404,-7.756,9.047,82.458
 15:12:48.516,eb:33:2e:f9:57:b5, 2085-97-72 254:148:254:2198,-0.125,-0.188,1.097,-41.748,-8.972,-2.991,-8.185,9.02,82.463
 15:12:48.516,eb:33:2e:f9:57:b5, 2085-97-56 255:77:255:2285,-0.061,-0.161,1.017,-41.199,-14.16,-3.906,-8.619,8.882,82.447
 15:12:48.516,eb:33:2e:f9:57:b5, 2085-97-14 255:31:255:2417,-0.124,-0.179,1.042,-41.565,-16.052,-0.305,-9.025,8.701,82.491
 15:12:48.574,eb:33:2e:f9:57:b5, 2085-97-155 254:130:255:2742,-0.202,-0.036,1.323,-47.791,-19.287,2.686,-9.476,8.536,82.524
 15:12:48.574,eb:33:2e:f9:57:b5, 2085-97-226 254:16:00:3189,-0.05,-0.012,1.462,-61.584,-19.897,2.014,-10.014,8.355,82.601
 15:12:48.574,eb:33:2e:f9:57:b5, 2085-97-71 00:110:01:3708,0.091,0.096,1.683,-87.769,-10.132,2.258,-10.772,8.201,82.65
 15:12:48.574,eb:33:2e:f9:57:b5, 2085-97-167 00:188:02:4251,0.008,0.281,1.984,-122.437,5.066,5.615,-11.821,8.196,82.711
 15:12:48.576,eb:33:2e:f9:57:b5, 2085-97-110 255:151:03:4821,-0.13,0.411,2.22,-167.236,20.508,6.531,-13.288,8.339,82.733
 15:12:48.576,eb:33:2e:f9:57:b5, 2085-97-113 254:69:04:5032,-0.287,0.47,2.403,-221.252,28.259,1.648,-15.26,8.597,82.749
 15:12:48.576,eb:33:2e:f9:57:b5, 2085-97-76 253:80:05:5002,-0.436,0.624,2.423,-280.823,34.851,-8.606,-17.825,8.882,82.617
 15:12:48.576,eb:33:2e:f9:57:b5, 2085-97-127 252:111:06:5101,-0.482,0.771,2.457,-342.407,30.151,-23.987,-21.017,9.146,82.365
 15:12:48.633,eb:33:2e:f9:57:b5, 2085-97-170 251:130:06:4852,-0.524,0.764,2.403,-406.677,19.531,-43.03,-24.862,9.234,81.958
 15:12:48.633,eb:33:2e:f9:57:b5, 2085-97-161 251:25:06:5358,-0.466,0.831,2.571,-471.13,-4.639,-59.326,-29.361,9.075,81.447
 15:12:48.633,eb:33:2e:f9:57:b5, 2085-97-58 253:217:04:5595,-0.052,0.646,2.572,-530.823,-30.518,-74.402,-34.481,8.52,80.986
 15:12:48.634,eb:33:2e:f9:57:b5, 2085-97-97 01:128:03:5965,0.328,0.688,2.757,-576.782,-44.067,-80.2,-40.122,7.718,80.541
 15:12:48.665,eb:33:2e:f9:57:b5, 2085-97-253 03:105:02:6866,0.404,0.277,3.199,-590.393,-58.044,-66.223,-46.016,6.844,80.332
 15:12:48.665,eb:33:2e:f9:57:b5, 2085-97-252 01:104:03:7588,0.184,0.461,3.794,-580.078,-99.67,-24.292,-51.823,6.07,80.568
 15:12:48.665,eb:33:2e:f9:57:b5, 2085-97-71 252:241:02:8399,-0.91,0.168,3.738,-572.021,-149.109,-14.221,-57.502,5.213,81.552
 15:12:48.665,eb:33:2e:f9:57:b5, 2085-97-165 248:253:255:6457,-1.341,0.289,3.98,-550.964,-236.755,-2.563,-62.952,4.169,83.249
 15:12:48.694,eb:33:2e:f9:57:b5, 2085-97-42 241:180:240:2797,-1.696,-0.906,2.248,-526.794,-145.081,-77.026,-68.236,3.115,84.957
 15:12:48.694,eb:33:2e:f9:57:b5, 2085-97-90 245:232:250:137,-1.489,-1.742,0.509,-356.14,-14.526,-272.4,-72.795,1.022,84.891
 15:12:48.694,eb:33:2e:f9:57:b5, 2085-97-246 241:254:06:3411,-1.891,0.384,0.723,-64.209,36.987,-280.457,-74.663,-1.626,83.941
 15:12:48.694,eb:33:2e:f9:57:b5, 2085-97-255 242:65:15:6460,-1.479,1.412,2.775,112.854,35.645,-298.889,-74.174,-4.301,82.738
 15:12:48.783,eb:33:2e:f9:57:b5, 2085-97-228 243:217:20:6905,-1.583,2.298,3.283,153.32,42.297,-312.256,-72.625,-7.141,81.491
 15:12:48.783,eb:33:2e:f9:57:b5, 2085-97-216 243:141:23:6796,-1.405,2.797,3.385,176.758,17.456,-287.415,-70.785,-9.91,80.178
 15:12:48.783,eb:33:2e:f9:57:b5, 2085-97-116 246:133:24:5450,-1.087,3.035,3.078,200.073,-42.603,-249.207,-68.714,-12.469,79.382
 15:12:48.783,eb:33:2e:f9:57:b5, 2085-97-91 247:56:23:3883,-1.089,3.02,2.249,230.469,-70.923,-197.632,-66.489,-14.755,79.063
 15:12:48.786,eb:33:2e:f9:57:b5, 2085-97-126 247:27:20:2406,-1.125,2.729,1.534,282.227,-65.308,-140.32,-63.88,-16.562,79.014
 15:12:48.786,eb:33:2e:f9:57:b5, 2085-97-231 246:228:17:1979,-1.167,2.351,0.986,353.638,-22.827,-90.881,-60.623,-17.754,78.838
 15:12:48.786,eb:33:2e:f9:57:b5, 2085-97-139 246:06:16:2881,-1.111,2.126,1.169,404.114,17.151,-54.138,-56.618,-18.331,78.437
 15:12:48.786,eb:33:2e:f9:57:b5, 2085-97-189 247:201:13:2970,-0.946,1.869,1.49,410.278,29.297,-36.072,-52.361,-18.539,77.937
 15:12:48.817,eb:33:2e:f9:57:b5, 2085-97-114 249:68:11:2292,-0.657,1.56,1.319,391.052,47.424,-27.893,-48.153,-18.534,77.41
 15:12:48.817,eb:33:2e:f9:57:b5, 2085-97-204 251:85:10:1389,-0.494,1.32,0.877,384.888,95.642,-17.395,-44.083,-18.204,76.679
 15:12:48.817,eb:33:2e:f9:57:b5, 2085-97-40 252:201:10:1798,-0.478,1.314,0.669,416.443,157.471,6.47,-39.749,-17.26,75.707
 15:12:48.817,eb:33:2e:f9:57:b5, 2085-97-94 252:243:10:3264,-0.454,1.372,1.235,457.214,185.791,38.879,-35.09,-15.705,74.767
 15:12:48.874,eb:33:2e:f9:57:b5, 2085-97-129 252:209:09:4156,-0.441,1.321,1.879,476.318,184.326,66.406,-30.212,-13.837,74.191
 15:12:48.874,eb:33:2e:f9:57:b5, 2085-97-92 252:216:07:4514,-0.492,1.102,2.121,486.572,180.237,88.745,-25.356,-11.865,74.042
 15:12:48.874,eb:33:2e:f9:57:b5, 2085-97-213 251:251:05:5004,-0.6,0.851,2.303,498.23,190.735,105.042,-20.418,-9.767,74.229
 15:12:48.874,eb:33:2e:f9:57:b5, 2085-97-176 250:123:04:5662,-0.629,0.661,2.628,510.071,195.557,116.211,-15.436,-7.559,74.718
 15:12:48.905,eb:33:2e:f9:57:b5, 2085-97-70 251:39:02:5996,-0.521,0.434,2.816,522.522,187.378,125.916,-10.3,-5.422,75.476
 15:12:48.905,eb:33:2e:f9:57:b5, 2085-97-69 251:56:254:6635,-0.574,0.044,3.084,528.992,166.26,140.93,-5.109,-3.472,76.58
 15:12:48.905,eb:33:2e:f9:57:b5, 2085-97-230 251:101:246:6672,-0.449,-0.643,3.267,511.902,128.54,151.672,0.093,-1.956,77.992
 15:12:48.905,eb:33:2e:f9:57:b5, 2085-97-119 253:237:235:6616,-0.143,-1.835,3.271,462.524,130.249,137.878,4.933,-0.769,79.53
 15:12:48.966,eb:33:2e:f9:57:b5, 2085-97-23 01:68:226:6956,0.492,-3.162,3.263,401.733,182.922,106.14,9.261,0.643,80.931
 15:12:48.966,eb:33:2e:f9:57:b5, 2085-97-169 06:254:217:8006,1.137,-4.234,3.633,348.938,219.116,94.788,13.03,2.494,82.31
 15:12:48.966,eb:33:2e:f9:57:b5, 2085-113-81 00:81:161:-2638,1.335,-5.325,4.062,284.485,186.951,106.567,16.304,4.235,83.815
 15:12:48.966,eb:33:2e:f9:57:b5, 2085-97-78 11:128:202:7805,1.375,-5.968,4.031,248.047,156.372,111.511,17.682,4.883,84.589
 15:12:48.966,eb:33:2e:f9:57:b5, 2085-97-118 10:130:192:6436,1.287,-7.378,3.502,178.894,98.755,98.328,19.913,5.702,86.028
 15:12:48.995,eb:33:2e:f9:57:b5, 2085-97-146 10:197:189:4968,1.401,-8.259,2.756,110.962,68.481,47.546,21.456,6.191,87.001
 15:12:48.995,eb:33:2e:f9:57:b5, 2085-97-227 11:30:195:3812,1.467,-8.036,2.128,40.466,56.702,-6.897,22.214,6.702,87.402
 15:12:48.995,eb:33:2e:f9:57:b5, 2085-97-07 11:172:204:2832,1.266,-7.049,1.653,-20.752,34.668,-36.438,22.28,7.234,87.352
 15:12:48.995,eb:33:2e:f9:57:b5, 2085-97-92 09:20:216:775,1.084,-5.706,0.977,-81.055,-8.179,-50.964,21.693,7.504,86.99
 15:12:49.024,eb:33:2e:f9:57:b5, 2085-97-198 07:141:226:-1339,2.26,-4.318,-0.25,-116.943,-7.751,-59.509,20.566,7.586,86.413
 15:12:49.024,eb:33:2e:f9:57:b5, 2085-97-161 29:115:24:-6864,6.049,2.679,8.319,-742.432,-224.365,-2.197,17.161,8.141,86.083
 15:12:49.024,eb:33:2e:f9:57:b5, 2085-97-102 16:170:249:6610,-4.624,-6.61,1.494,-634.766,-16.113,-262.756,9.459,7.701,83.639
 15:12:49.024,eb:33:2e:f9:57:b5, 2085-97-87 213:04:226:11010,-2.265,-2.658,7.029,-342.957,209.229,-85.144,4.543,10.366,82.831
 15:12:49.117,eb:33:2e:f9:57:b5, 2085-97-184 244:124:12:4534,-1.195,-1.581,3.273,-117.249,-99.243,-122.62,2.379,10.421,81.513
 15:12:49.117,eb:33:2e:f9:57:b5, 2085-97-96 246:46:246:3430,1.185,1.548,1.52,-173.462,-167.297,13.428,0.813,8.981,81.085
 15:12:49.117,eb:33:2e:f9:57:b5, 2085-97-120 14:81:02:-1127,0.558,-0.615,0.07,-113.647,-178.284,-35.522,-0.544,6.96,80.936
 15:12:49.117,eb:33:2e:f9:57:b5, 2085-97-81 255:236:251:1346,0.022,-0.791,0.354,-76.355,-13.794,22.827,-1.522,6.427,81.123
 15:12:49.117,eb:33:2e:f9:57:b5, 2085-97-156 254:99:254:2268,-0.014,0.035,0.784,-59.204,-12.939,15.015,-2.137,6.235,81.244
 15:12:49.117,eb:33:2e:f9:57:b5, 2085-97-224 254:38:254:2140,-0.078,-0.161,0.978,-52.551,-9.338,10.864,-2.692,6.103,81.376
 15:12:49.117,eb:33:2e:f9:57:b5, 2085-97-55 254:36:255:2402,-0.24,-0.085,1.065,-44.861,-7.202,6.592,-3.159,6.004,81.464
 15:12:49.117,eb:33:2e:f9:57:b5, 2085-97-233 254:215:254:2187,0.065,-0.167,1.182,-42.419,-13.062,0.732,-3.598,5.905,81.519
 15:12:49.145,eb:33:2e:f9:57:b5, 2085-97-123 255:31:255:2047,-0.351,-0.06,0.962,-41.016,2.136,2.197,-4.021,5.823,81.519
 15:12:49.145,eb:33:2e:f9:57:b5, 2085-97-55 253:87:254:2448,-0.178,-0.249,1.161,-38.696,-5.92,4.333,-4.422,5.861,81.59
 15:12:49.145,eb:33:2e:f9:57:b5, 2085-97-98 255:178:255:2397,-0.081,-0.104,1.138,-39.307,-14.404,6.47,-4.807,5.718,81.65
 15:12:49.145,eb:33:2e:f9:57:b5, 2085-97-56 255:49:00:2740,-0.061,0.024,1.317,-50.964,-4.578,13.733,-5.246,5.647,81.782
 15:12:49.204,eb:33:2e:f9:57:b5, 2085-97-22 255:126:00:3059,-0.093,0.027,1.434,-68.42,4.761,19.775,-5.839,5.669,81.936
 15:12:49.204,eb:33:2e:f9:57:b5, 2085-97-144 254:251:255:3470,-0.06,0.004,1.617,-90.21,-1.404,22.766,-6.619,5.713,82.167
 15:12:49.204,eb:33:2e:f9:57:b5, 2085-97-193 01:203:00:3420,0.166,0.148,2.014,-112.427,-32.959,26.611,-7.619,5.614,82.436
 15:12:49.204,eb:33:2e:f9:57:b5, 2085-97-73 01:178:03:4678,0.138,0.26,2.048,-143.86,-12.39,28.076,-8.866,5.471,82.776
 15:12:49.234,eb:33:2e:f9:57:b5, 2085-97-168 00:208:04:5766,0.033,0.452,2.514,-188.599,-9.521,35.583,-10.514,5.394,83.139
 15:12:49.234,eb:33:2e:f9:57:b5, 2085-97-164 255:227:06:6325,-0.16,0.767,3.069,-252.38,1.77,38.269,-12.7,5.455,83.529
 15:12:49.234,eb:33:2e:f9:57:b5, 2085-97-43 253:52:10:7023,-0.495,0.958,3.16,-328.064,20.386,28.931,-15.623,5.658,83.831
 15:12:49.234,eb:33:2e:f9:57:b5, 2085-97-133 248:99:10:6815,-1.41,1.214,3.296,-415.039,8.301,18.066,-19.352,5.85,84.073
 15:12:49.266,eb:33:2e:f9:57:b5, 2085-97-19 242:77:12:7580,-1.815,1.245,3.654,-504.456,-25.757,-22.949,-24.005,5.79,84.067
 15:12:49.266,eb:33:2e:f9:57:b5, 2085-97-03 242:239:09:8416,-1.417,1.474,3.76,-600.586,-104.004,-52.002,-29.603,4.999,84.034
 15:12:49.266,eb:33:2e:f9:57:b5, 2085-97-83 248:33:08:7758,-0.645,1.178,4.18,-660.4,-185.852,-80.75,-35.958,3.351,84.265
 15:12:49.266,eb:33:2e:f9:57:b5, 2085-97-45 253:71:01:6896,-0.177,0.354,3.398,-671.814,-168.945,-104.98,-42.649,1.329,84.694
 15:12:49.326,eb:33:2e:f9:57:b5, 2085-97-164 00:143:06:8402,0.139,0.448,3.662,-646.118,-149.292,-143.494,-49.235,-0.665,84.891
 15:12:49.326,eb:33:2e:f9:57:b5, 2085-97-247 255:42:10:10735,-0.587,0.92,4.853,-628.906,-172.729,-107.727,-55.547,-2.582,85.309
 15:12:49.326,eb:33:2e:f9:57:b5, 2085-97-234 253:237:28:9002,0.372,2.471,5.614,-675.293,-251.953,-36.804,-62.161,-4.274,86.732
 15:12:49.326,eb:33:2e:f9:57:b5, 2085-97-220 03:140:02:1414,-0.068,1.749,2.003,-666.382,-227.112,106.445,-69.28,-4.845,89.28
 15:12:49.355,eb:33:2e:f9:57:b5, 2085-97-242 250:41:07:2640,-1.417,0.675,1.24,-419.373,-122.864,189.087,-74.724,-3.801,91.302
 15:12:49.355,eb:33:2e:f9:57:b5, 2085-97-124 240:81:07:3698,-2.103,0.889,1.511,-215.576,-59.326,175.232,-77.805,-2.181,92.532
 15:12:49.355,eb:33:2e:f9:57:b5, 2085-97-205 238:64:08:2890,-2.226,0.883,1.647,-109.375,19.653,61.157,-79.294,-1.06,93.01
 15:12:49.355,eb:33:2e:f9:57:b5, 2085-97-87 238:228:13:2938,-2.186,1.359,1.352,-46.387,151.855,-85.083,-80.024,-1.093,92.01
 15:12:49.383,eb:33:2e:f9:57:b5, 2085-97-166 239:130:18:4502,-1.856,2.052,1.768,39.551,223.633,-195.618,-79.969,-2.225,89.786
 15:12:49.383,eb:33:2e:f9:57:b5, 2085-97-11 243:165:20:6166,-1.359,2.489,2.627,164.185,202.759,-246.887,-78.777,-4.076,87.182
 15:12:49.383,eb:33:2e:f9:57:b5, 2085-97-188 246:64:22:7258,-1.083,2.663,3.33,295.044,144.348,-249.39,-76.174,-6.152,84.968
 15:12:49.383,eb:33:2e:f9:57:b5, 2085-97-09 248:144:23:6864,-0.958,2.885,3.582,376.953,78.186,-242.737,-72.515,-8.229,83.199
 15:12:49.444,eb:33:2e:f9:57:b5, 2085-97-79 248:149:22:5570,-0.884,2.94,3.051,416.138,5.615,-224.548,-68.286,-10.3,82.04
 15:12:49.444,eb:33:2e:f9:57:b5, 2085-97-109 249:116:19:3920,-0.752,2.623,2.334,439.453,-43.03,-203.735,-63.869,-12.349,81.365
 15:12:49.444,eb:33:2e:f9:57:b5, 2085-97-66 250:220:15:2666,-0.676,2.18,1.524,464.966,-34.302,-173.401,-59.178,-14.194,80.832
 15:12:49.444,eb:33:2e:f9:57:b5, 2085-97-155 250:227:13:2373,-0.688,1.817,1.146,493.835,12.085,-144.897,-54.168,-15.573,79.997
 15:12:49.506,eb:33:2e:f9:57:b5, 2085-97-112 250:165:12:3015,-0.703,1.672,1.288,520.508,51.758,-107.239,-48.73,-16.309,78.893
 15:12:49.506,eb:33:2e:f9:57:b5, 2085-97-148 250:60:10:3670,-0.626,1.446,1.683,530.762,68.909,-66.467,-43.149,-16.485,77.789
 15:12:49.506,eb:33:2e:f9:57:b5, 2085-97-109 251:44:07:3607,-0.517,1.087,1.792,520.874,96.863,-32.41,-37.573,-16.15,76.855
 15:12:49.506,eb:33:2e:f9:57:b5, 2085-97-105 252:14:05:3818,-0.419,0.736,1.758,503.723,157.837,-2.197,-32.223,-15.189,75.938
 15:12:49.533,eb:33:2e:f9:57:b5, 2085-97-142 252:195:04:5055,-0.451,0.6,2.129,490.417,224.915,33.447,-27.004,-13.376,75.075
 15:12:49.533,eb:33:2e:f9:57:b5, 2085-97-219 252:226:04:5700,-0.395,0.601,2.698,492.92,245.605,81.848,-22.006,-10.953,74.608
 15:12:49.533,eb:33:2e:f9:57:b5, 2085-97-193 252:158:04:6315,-0.437,0.589,2.923,516.418,247.192,145.203,-16.946,-8.212,74.872
 15:12:49.533,eb:33:2e:f9:57:b5, 2085-97-215 251:80:04:6770,-0.651,0.562,3.228,531.189,231.628,213.562,-11.81,-5.433,76.08
 15:12:49.565,eb:33:2e:f9:57:b5, 2085-97-182 249:48:03:6323,-1.014,0.488,3.26,518.555,206.36,282.898,-6.641,-2.873,78.217
 15:12:49.565,eb:33:2e:f9:57:b5, 2085-97-175 245:136:254:5464,-1.505,0.213,2.896,490.662,201.294,348.877,-1.686,-0.632,81.288
 15:12:49.565,eb:33:2e:f9:57:b5, 2085-97-77 243:136:243:5362,-1.617,-0.821,2.528,462.463,244.263,383.423,3.153,1.522,85.045
 15:12:49.565,eb:33:2e:f9:57:b5, 2085-97-173 242:229:231:7624,-1.655,-2.308,3.05,429.688,323.853,357.849,7.8,4.048,89.077
 15:12:49.594,eb:33:2e:f9:57:b5, 2085-97-16 244:154:219:9380,-1.14,-3.733,4.3,401.917,309.143,302.734,12.354,6.707,92.895
 15:12:49.594,eb:33:2e:f9:57:b5, 2085-97-225 249:159:206:8681,-0.374,-5.351,4.502,366.821,232.727,231.934,16.655,8.602,96.185
 15:12:49.594,eb:33:2e:f9:57:b5, 2085-97-195 255:18:195:7042,0.39,-6.985,3.824,289.368,218.201,123.23,20.352,10.129,98.58
 15:12:49.594,eb:33:2e:f9:57:b5, 2085-97-234 05:121:190:6307,1.298,-8.057,3.181,196.655,230.957,1.221,23.027,12.041,100.003
 15:12:49.624,eb:33:2e:f9:57:b5, 2085-97-32 14:210:191:6277,2.195,-8.168,3.091,132.69,187.256,-70.007,24.802,14.167,100.547
 15:12:49.624,eb:33:2e:f9:57:b5, 2085-97-02 21:112:195:5270,2.938,-7.814,2.868,89.05,105.957,-92.346,25.84,15.815,100.393
 15:12:49.624,eb:33:2e:f9:57:b5, 2085-97-57 24:149:200:4182,3.016,-7.294,2.272,15.625,62.073,-95.764,26.23,16.935,99.877
 15:12:49.624,eb:33:2e:f9:57:b5, 2085-97-30 24:78:210:3460,3.071,-6.405,1.872,-68.42,31.25,-93.933,25.697,17.765,99.207
 15:12:49.684,eb:33:2e:f9:57:b5, 2085-97-137 24:164:222:2500,2.975,-4.947,1.426,-120.422,4.822,-74.341,24.467,18.265,98.465
 15:12:49.684,eb:33:2e:f9:57:b5, 2085-97-164 21:248:233:2490,2.328,-3.387,1.168,-140.808,-24.231,-34.424,22.956,18.408,97.932
 15:12:49.684,eb:33:2e:f9:57:b5, 2085-97-149 250:52:229:9833,1.226,-2.365,1.133,-145.081,-97.595,10.437,21.401,17.842,97.597
 15:12:49.684,eb:33:2e:f9:57:b5, 2085-97-131 196:253:221:11457,-5.315,-1.5,2.294,-682.373,98.938,-630.432,16.375,18.995,95.114
 15:12:49.743,eb:33:2e:f9:57:b5, 2085-97-235 206:71:247:17903,-5.708,-1.768,10.459,-636.536,-146.057,-481.995,7.592,20.402,89.692
 15:12:49.743,eb:33:2e:f9:57:b5, 2085-97-137 228:43:235:7593,-1.936,-4.6,5.053,-156.921,-350.952,-28.015,2.977,18.204,87.726
 15:12:49.743,eb:33:2e:f9:57:b5, 2085-97-231 252:238:14:1240,0.687,2.234,1.726,-136.414,-497.559,-81.848,1.923,13.755,87.078
 15:12:49.743,eb:33:2e:f9:57:b5, 2085-97-139 25:223:252:-3713,2.119,-0.638,0.187,-170.654,-435.669,-57.8,-0.088,9.212,86.375
 15:12:49.745,eb:33:2e:f9:57:b5, 2085-97-147 15:255:253:-2407,0.722,-1.689,-1.181,-55.237,-179.077,23.193,-1.104,6.504,86.66
 15:12:49.745,eb:33:2e:f9:57:b5, 2085-97-246 249:192:253:3538,0.002,0.046,0.103,-43.64,-40.283,20.752,-1.566,5.565,86.847
 15:12:49.745,eb:33:2e:f9:57:b5, 2085-97-182 252:34:254:2824,-0.731,0.011,1.291,-41.016,-58.838,11.78,-1.983,4.905,86.924
 15:12:49.745,eb:33:2e:f9:57:b5, 2085-97-215 00:12:255:2047,0.57,-0.068,1.531,-38.757,-91.553,0.732,-2.362,4.197,87.045
 15:12:49.804,eb:33:2e:f9:57:b5, 2085-97-37 04:19:01:1456,0.249,-0.123,0.563,-34.851,-45.105,5.31,-2.747,3.45,87.094
 15:12:49.804,eb:33:2e:f9:57:b5, 2085-113-58 00:00:00:-3345,-0.28,-0.052,0.88,-40.71,12.329,9.827,-3.12,3.34,87.215
 15:12:49.804,eb:33:2e:f9:57:b5, 2085-97-94 251:217:254:3192,-0.422,-0.151,1.373,-41.016,7.751,4.883,-3.34,3.395,87.237
 15:12:49.804,eb:33:2e:f9:57:b5, 2085-97-162 253:84:00:3234,-0.125,-0.096,1.445,-46.936,5.981,0.488,-3.763,3.4,87.286
 15:12:49.834,eb:33:2e:f9:57:b5, 2085-97-07 00:181:00:2913,0.159,0.168,1.728,-68.359,24.353,11.78,-4.356,3.549,87.319
 15:12:49.834,eb:33:2e:f9:57:b5, 2085-97-15 02:252:04:5333,0.317,0.325,2.244,-109.07,55.603,26.611,-5.213,4.114,87.506
 15:12:49.834,eb:33:2e:f9:57:b5, 2085-97-140 01:191:04:5700,0.107,0.261,2.454,-172.302,43.64,42.236,-6.63,4.581,87.88
 15:12:49.834,eb:33:2e:f9:57:b5, 2085-97-70 255:102:07:6751,-0.138,0.814,3.147,-234.436,22.461,53.833,-8.663,4.966,88.325
 15:12:49.866,eb:33:2e:f9:57:b5, 2085-97-255 253:11:08:6530,-0.45,0.853,3.306,-305.969,-0.793,39.856,-11.36,5.092,88.775
 15:12:49.866,eb:33:2e:f9:57:b5, 2085-97-57 251:235:08:6332,-0.823,1.21,3.208,-383.972,-4.578,26.062,-14.815,5.175,89.127
 15:12:49.866,eb:33:2e:f9:57:b5, 2085-97-35 246:86:12:6363,-1.396,1.23,3.01,-467.896,-10.071,-9.949,-19.122,5.142,89.22
 15:12:49.866,eb:33:2e:f9:57:b5, 2085-97-144 243:190:12:7322,-1.644,1.425,3.314,-556.824,-49.805,-50.781,-24.291,4.735,89.088
 15:12:49.924,eb:33:2e:f9:57:b5, 2085-97-173 245:194:13:9447,-0.924,1.687,4.303,-651.917,-118.774,-89.783,-30.427,3.653,88.824
 15:12:49.924,eb:33:2e:f9:57:b5, 2085-97-218 249:187:07:10248,-0.81,0.873,4.872,-705.872,-184.326,-116.272,-37.31,1.802,88.846
 15:12:49.924,eb:33:2e:f9:57:b5, 2085-97-227 247:27:254:9549,-1.154,0.21,4.673,-686.584,-228.943,-133.301,-44.341,-0.648,89.313
 15:12:49.924,eb:33:2e:f9:57:b5, 2085-97-01 248:144:07:10272,-0.653,0.507,5.051,-615.906,-311.401,-133.057,-50.828,-3.472,90.236
 15:12:49.954,eb:33:2e:f9:57:b5, 2085-97-207 249:168:14:9378,-1.364,0.665,4.885,-629.211,-386.108,-70.374,-57.173,-6.372,92.648
 15:12:49.954,eb:33:2e:f9:57:b5, 2085-97-201 02:31:250:450,-0.096,1.715,3.706,-680.725,-359.985,29.236,-64.171,-8.295,95.806
 15:12:49.954,eb:33:2e:f9:57:b5, 2085-97-148 251:24:251:2612,-1.052,-1.2,0.487,-457.458,-181.152,78.674,-70.285,-8.833,98.361
 15:12:49.954,eb:33:2e:f9:57:b5, 2085-97-02 242:154:254:5929,-2.157,-0.551,1.8,-265.503,-46.814,54.077,-73.916,-8.454,99.602
 15:12:50.013,eb:33:2e:f9:57:b5, 2085-97-221 236:227:06:6702,-2.478,0.354,3.476,-201.599,21.423,-40.222,-76.102,-8.399,99.684
 15:12:50.013,eb:33:2e:f9:57:b5, 2085-97-176 235:191:13:5576,-2.528,1.324,2.99,-194.885,109.619,-167.297,-77.943,-9.36,98.685
 15:12:50.013,eb:33:2e:f9:57:b5, 2085-97-26 236:77:18:4816,-2.354,2.003,2.496,-143.127,166.443,-253.052,-79.31,-11.206,96.817
 15:12:50.013,eb:33:2e:f9:57:b5, 2085-97-154 237:201:22:4266,-2.271,2.596,2.159,-28.625,187.012,-296.387,-79.656,-13.651,94.455
 15:12:50.045,eb:33:2e:f9:57:b5, 2085-97-133 238:252:24:4933,-2.01,3.06,2.2,105.469,173.584,-290.466,-78.536,-16.205,92.01
 15:12:50.045,eb:33:2e:f9:57:b5, 2085-97-12 241:186:23:5975,-1.632,3.062,2.635,187.134,144.165,-273.804,-76.306,-18.605,89.742
 15:12:50.045,eb:33:2e:f9:57:b5, 2085-97-207 244:157:23:6285,-1.244,2.914,3.095,206.238,139.526,-263.855,-73.531,-20.83,87.572
 15:12:50.045,eb:33:2e:f9:57:b5, 2085-97-104 247:192:24:4631,-0.941,2.997,2.744,212.097,145.874,-238.708,-70.593,-22.786,85.232
 15:12:50.077,eb:33:2e:f9:57:b5, 2085-97-104 249:43:24:3591,-0.797,3.1,1.885,256.653,152.893,-174.316,-67.297,-24.153,82.875
 15:12:50.077,eb:33:2e:f9:57:b5, 2085-97-24 250:87:22:4047,-0.623,2.921,1.899,326.477,122.498,-83.984,-63.523,-24.714,80.87
 15:12:50.077,eb:33:2e:f9:57:b5, 2085-97-141 251:39:19:3183,-0.536,2.635,1.809,383.362,75.623,1.099,-59.431,-24.571,79.761
 15:12:50.077,eb:33:2e:f9:57:b5, 2085-97-70 252:47:13:2064,-0.433,2.027,1.286,425.598,75.745,68.237,-55.184,-23.851,79.31
 15:12:50.104,eb:33:2e:f9:57:b5, 2085-97-63 252:204:09:1690,-0.57,1.39,0.839,458.008,143.677,108.154,-50.565,-22.44,78.975
 15:12:50.104,eb:33:2e:f9:57:b5, 2085-97-246 250:186:07:2510,-0.736,1.075,0.98,475.708,238.342,130.31,-45.626,-20.231,78.25
 15:12:50.104,eb:33:2e:f9:57:b5, 2085-97-232 249:219:06:3978,-0.781,0.871,1.591,487.854,295.837,135.742,-40.446,-17.298,77.283
 15:12:50.104,eb:33:2e:f9:57:b5, 2085-97-127 250:171:06:4942,-0.573,0.84,2.23,507.202,307.495,146.606,-35.261,-14.013,76.459
 15:12:50.435,eb:33:2e:f9:57:b5, 2085-97-36 252:16:07:5649,-0.399,0.847,2.578,545.044,293.03,166.931,-29.872,-10.618,76.152
 15:12:50.435,eb:33:2e:f9:57:b5, 2085-97-65 253:217:07:6138,-0.198,0.933,2.89,585.388,275.452,195.984,-24.23,-7.262,76.52
 15:12:50.435,eb:33:2e:f9:57:b5, 2085-97-194 254:26:09:6491,-0.281,1.057,3.038,611.877,272.339,232.117,-18.265,-3.933,77.536
 15:12:50.435,eb:33:2e:f9:57:b5, 2085-97-114 252:169:06:7038,-0.483,1.104,3.391,625.122,237.793,285.339,-12.129,-0.742,79.382
 15:12:50.493,eb:33:2e:f9:57:b5, 2085-97-98 251:227:254:6350,-0.725,0.42,3.219,626.648,193.726,327.148,-5.762,1.785,82.134
 15:12:50.493,eb:33:2e:f9:57:b5, 2085-97-188 249:68:243:7465,-0.737,-0.861,3.288,598.022,244.629,324.768,0.549,4.103,85.369
 15:12:50.493,eb:33:2e:f9:57:b5, 2085-97-133 250:26:231:9430,-0.591,-2.342,4.102,530.273,320.068,281.067,6.542,6.812,88.605
 15:12:50.493,eb:33:2e:f9:57:b5, 2085-97-02 253:104:218:11219,-0.031,-3.869,5.05,477.661,321.472,242.126,11.975,9.641,91.725
 15:12:50.496,eb:33:2e:f9:57:b5, 2085-97-165 02:151:201:11487,0.586,-5.702,5.695,423.706,248.413,213.44,17.095,11.838,94.708
 15:12:50.496,eb:33:2e:f9:57:b5, 2085-97-214 06:245:186:9684,1.211,-7.826,5.288,344.177,168.701,154.419,21.445,13.14,97.196
 15:12:50.496,eb:33:2e:f9:57:b5, 2085-97-146 12:137:181:7953,1.937,-9.134,4.156,254.028,136.475,68.115,24.813,14.073,98.822
 15:12:50.496,eb:33:2e:f9:57:b5, 2085-97-207 17:46:184:8142,2.464,-9.197,3.912,163.879,108.459,-5.676,27.048,15.095,99.641
 15:12:50.498,eb:33:2e:f9:57:b5, 2085-97-241 20:211:189:7002,2.616,-8.679,3.787,89.844,18.127,-34.058,28.306,15.76,99.712
 15:12:50.498,eb:33:2e:f9:57:b5, 2085-97-07 20:111:199:4783,2.297,-7.735,2.915,-3.845,-55.725,-42.847,28.575,15.71,99.24
 15:12:50.498,eb:33:2e:f9:57:b5, 2085-97-123 16:134:212:3176,1.871,-6.288,1.878,-91.125,-65.186,-38.879,27.845,15.331,98.536
 15:12:50.498,eb:33:2e:f9:57:b5, 2085-97-02 14:155:226:2221,1.679,-4.546,1.305,-155.212,-50.781,-20.569,26.422,14.958,98.009
 15:12:50.500,eb:33:2e:f9:57:b5, 2085-97-22 12:55:240:1886,-3.795,-2.824,0.845,-198.303,-36.804,12.695,24.538,14.584,97.778
 15:12:50.500,eb:33:2e:f9:57:b5, 2085-97-73 249:124:23:-4357,2.172,-5.876,8.308,-734.802,-312.805,-543.213,20.555,14.453,97.619
 15:12:50.500,eb:33:2e:f9:57:b5, 2085-97-225 245:133:233:17676,-5.273,-4.049,3.211,-754.333,-161.621,-335.999,11.464,13.607,93.219
 15:12:50.500,eb:33:2e:f9:57:b5, 2085-97-73 226:222:214:8855,-0.396,-3.205,8.457,-399.048,-241.76,-62.866,5.076,12.398,91.225
 15:12:50.500,eb:33:2e:f9:57:b5, 2085-97-103 246:09:16:2587,-0.766,-0.05,1.9,-112.427,-315.552,-24.841,3.186,9.58,90.566
 15:12:50.500,eb:33:2e:f9:57:b5, 2085-97-87 249:216:10:6944,-1.084,-0.997,1.134,-137.756,-338.867,-7.935,1.708,6.383,90.615
 15:12:50.500,eb:33:2e:f9:57:b5, 2085-97-69 245:244:11:7413,-1.483,1.584,3.482,-477.051,14.221,20.081,-15.617,6.993,95.125
 15:12:50.500,eb:33:2e:f9:57:b5, 2085-97-73 243:64:12:7404,-1.546,1.608,3.126,-564.392,-35.4,-18.372,-20.847,6.817,95.18
 15:12:50.523,eb:33:2e:f9:57:b5, 2085-97-221 244:243:09:8077,-1.076,1.513,3.892,-646.729,-116.943,-59.875,-26.971,5.933,95.087
 15:12:50.523,eb:33:2e:f9:57:b5, 2085-97-228 249:146:05:9054,-0.253,0.818,4.067,-688.782,-164.978,-104.065,-33.745,4.224,95.12
 15:12:50.523,eb:33:2e:f9:57:b5, 2085-97-129 255:246:254:8565,0.087,0.4,4.236,-666.199,-207.214,-112.976,-40.589,1.972,95.367
 15:12:50.523,eb:33:2e:f9:57:b5, 2085-97-194 255:215:255:10701,-0.628,-0.16,4.541,-595.398,-242.859,-70.435,-46.862,-0.275,96.158
 15:12:50.555,eb:33:2e:f9:57:b5, 2085-97-143 254:03:12:9047,0.199,0.657,6.121,-614.563,-364.807,15.808,-52.85,-2.406,98.306
 15:12:50.555,eb:33:2e:f9:57:b5, 2085-97-77 04:175:240:2302,-0.171,-0.592,1.903,-593.994,-305.542,134.338,-59.31,-3.631,101.838
 15:12:50.555,eb:33:2e:f9:57:b5, 2085-97-167 248:149:241:7806,-1.702,-1.489,2.896,-401.123,-174.255,176.27,-64.21,-3.131,104.535
 15:12:50.555,eb:33:2e:f9:57:b5, 2085-97-169 239:03:245:10027,-2.132,-1.87,4.695,-357.361,-114.624,45.288,-67.967,-2.664,106.232
 15:12:50.615,eb:33:2e:f9:57:b5, 2085-97-74 238:41:254:8529,-2.345,-0.877,4.483,-392.578,-21.667,-132.751,-71.741,-3.406,106.71
 15:12:50.615,eb:33:2e:f9:57:b5, 2085-97-169 236:211:09:7611,-2.474,0.526,3.976,-379.333,62.744,-281.006,-75.591,-5.427,105.765
 15:12:50.615,eb:33:2e:f9:57:b5, 2085-97-177 236:30:18:6314,-2.455,1.748,3.395,-283.142,87.097,-367.493,-78.717,-8.498,104.244
 15:12:50.615,eb:33:2e:f9:57:b5, 2085-97-82 236:135:22:5878,-2.36,2.607,2.949,-140.93,88.257,-394.836,-80.491,-12.134,102.596
 15:12:50.646,eb:33:2e:f9:57:b5, 2085-97-122 237:42:24:5639,-2.303,2.951,2.781,-10.559,77.881,-397.583,-80.771,-15.919,101.107
 15:12:50.646,eb:33:2e:f9:57:b5, 2085-97-211 237:129:24:5610,-2.253,3.07,2.751,75.928,70.374,-393.86,-79.915,-19.704,99.602
 15:12:50.646,eb:33:2e:f9:57:b5, 2085-97-17 239:229:24:5437,-1.891,3.06,2.731,123.352,61.157,-387.756,-78.294,-23.401,98.113
 15:12:50.646,eb:33:2e:f9:57:b5, 2085-97-10 242:249:26:4645,-1.403,3.267,2.524,157.532,70.374,-367.065,-76.179,-26.955,96.449
 15:12:50.646,eb:33:2e:f9:57:b5, 2085-113-58 00:39:247:855,-1.319,3.563,1.802,201.66,88.928,-317.993,-73.433,-30.048,94.559
 15:12:50.704,eb:33:2e:f9:57:b5, 2085-97-33 246:32:30:2725,-1.179,3.757,1.598,229.492,86.426,-282.288,-71.829,-31.333,93.554
 15:12:50.704,eb:33:2e:f9:57:b5, 2085-97-250 246:137:28:1871,-1.024,3.677,1.092,300.232,50.72,-188.599,-68.247,-33.289,91.824
 15:12:50.704,eb:33:2e:f9:57:b5, 2085-97-11 249:135:24:357,-0.704,3.358,0.668,354.492,31.982,-103.699,-64.27,-34.404,90.731
 15:12:50.704,eb:33:2e:f9:57:b5, 2085-97-113 251:233:19:-1963,-0.552,2.772,-0.461,392.029,98.022,-43.945,-59.936,-34.744,89.703
 15:12:50.792,eb:33:2e:f9:57:b5, 2085-97-27 251:244:17:-1067,-0.689,2.328,-0.925,426.27,258.301,11.169,-54.646,-33.81,87.715
 15:12:50.792,eb:33:2e:f9:57:b5, 2085-97-235 249:173:17:1090,-0.814,2.222,0.013,438.416,371.582,51.88,-48.79,-31.525,84.88
 15:12:50.792,eb:33:2e:f9:57:b5, 2085-97-98 249:92:17:2613,-0.777,2.194,0.961,461.853,404.724,105.53,-42.94,-28.174,82.233
 15:12:50.792,eb:33:2e:f9:57:b5, 2085-97-71 250:100:17:3507,-0.674,2.164,1.505,510.742,390.991,168.457,-37.326,-24.241,80.568
 15:12:50.794,eb:33:2e:f9:57:b5, 2085-97-118 250:173:17:4759,-0.763,2.204,1.98,558.411,391.235,228.943,-31.668,-19.863,79.975
 15:12:50.794,eb:33:2e:f9:57:b5, 2085-97-136 248:228:16:6385,-1.079,2.184,2.694,587.708,390.564,283.997,-26.021,-15.183,80.381
 15:12:50.794,eb:33:2e:f9:57:b5, 2085-97-12 246:245:12:6966,-1.373,1.882,3.292,603.943,360.84,321.228,-20.303,-10.519,81.755
 15:12:50.794,eb:33:2e:f9:57:b5, 2085-97-233 244:114:06:7287,-1.463,1.224,3.461,628.54,344.604,326.416,-14.436,-6.207,83.875
 15:12:50.797,eb:33:2e:f9:57:b5, 2085-97-34 243:04:00:8478,-1.68,0.447,3.803,655.396,343.262,296.997,-8.102,-2.181,86.265
 15:12:50.797,eb:33:2e:f9:57:b5, 2085-97-184 244:173:245:9348,-1.178,-0.587,4.493,671.631,294.678,253.845,-1.456,1.236,88.753
 15:12:50.797,eb:33:2e:f9:57:b5, 2085-97-176 247:194:232:10632,-0.872,-2.146,4.82,653.32,271.301,195.74,5.367,3.994,91.093
 15:12:50.797,eb:33:2e:f9:57:b5, 2085-97-200 251:144:218:10949,-0.027,-3.779,5.377,587.708,237.305,121.887,11.739,6.273,93.027
 15:12:51.064,eb:33:2e:f9:57:b5, 2085-97-133 04:131:206:9922,1.179,-5.469,5.125,512.634,218.872,66.528,17.435,8.234,94.471
 15:12:51.064,eb:33:2e:f9:57:b5, 2085-97-240 12:134:198:9610,1.874,-6.765,4.64,431.152,273.376,48.828,22.352,10.333,95.85
 15:12:51.064,eb:33:2e:f9:57:b5, 2085-97-153 17:108:191:11672,2.429,-7.604,5.166,321.838,321.472,75.989,26.532,12.881,97.729
 15:12:51.064,eb:33:2e:f9:57:b5, 2085-97-202 20:138:183:11453,2.701,-8.628,5.879,118.103,283.936,85.51,29.24,15.183,100.02
 15:12:51.066,eb:33:2e:f9:57:b5, 2085-97-230 21:139:183:9245,2.662,-9.215,5.123,-50.171,218.384,70.984,29.982,16.974,102.025
 15:12:51.066,eb:33:2e:f9:57:b5, 2085-97-33 20:62:191:6689,2.417,-8.661,3.702,-104.736,124.023,61.401,29.564,18.105,103.53
 15:12:51.066,eb:33:2e:f9:57:b5, 2085-97-113 18:161:202:5605,2.168,-7.414,2.979,-144.836,50.354,29.602,28.603,18.6,104.392
 15:12:51.066,eb:33:2e:f9:57:b5, 2085-97-54 16:55:217:3640,1.913,-5.793,2.337,-200.134,-21.912,-20.02,26.84,18.688,104.469
 15:12:51.095,eb:33:2e:f9:57:b5, 2085-97-164 15:99:236:4098,-0.915,-3.792,1.255,-202.087,-54.443,-31.372,24.626,18.402,103.975
 15:12:51.095,eb:33:2e:f9:57:b5, 2085-97-150 255:20:15:-2908,0.363,-8.014,7.654,-695.251,-287.354,-657.471,20.187,18.605,102.563
 15:12:51.095,eb:33:2e:f9:57:b5, 2085-97-34 230:19:254:21419,-6.07,-0.769,5.217,-813.538,-219.849,-436.462,10.624,17.814,97.3
 15:12:51.095,eb:33:2e:f9:57:b5, 2085-97-99 221:163:201:9776,0.605,-6.678,8.314,-302.551,-362.061,-19.226,3.593,15.2,94.768
 15:12:51.095,eb:33:2e:f9:57:b5, 2085-97-157 244:48:23:3072,-0.57,1.63,0.774,-57.068,-367.92,-24.658,2.752,10.964,94.01
 15:12:51.095,eb:33:2e:f9:57:b5, 2085-97-10 21:181:245:-2881,3.864,-1.035,0.98,-134.888,-391.113,-8.85,1.329,7.24,93.845
 15:12:51.095,eb:33:2e:f9:57:b5, 2085-97-220 21:182:00:-3450,0.426,-0.372,-2.608,-55.237,-140.869,25.391,0.516,4.257,93.801
 15:12:51.095,eb:33:2e:f9:57:b5, 2085-97-10 252:169:252:2802,-0.422,-0.302,0.323,-40.71,4.333,26.611,0.022,3.988,94.131
 15:12:51.097,eb:33:2e:f9:57:b5, 2085-97-05 254:182:00:2918,-0.605,-0.157,1.606,-28.503,-25.94,20.569,-0.264,3.829,94.384
 15:12:51.097,eb:33:2e:f9:57:b5, 2085-97-171 02:67:00:2040,0.877,0.044,1.686,-35.522,-38.696,23.926,-0.566,3.554,94.68
 15:12:51.097,eb:33:2e:f9:57:b5, 2085-97-214 05:200:00:1320,-0.056,0.064,0.538,-35.706,45.044,35.706,-0.934,3.51,94.966
 15:12:51.097,eb:33:2e:f9:57:b5, 2085-97-246 252:122:255:3380,-0.816,0.035,1.205,-41.748,102.173,34.668,-1.291,4.395,95.35
 15:12:51.101,eb:33:2e:f9:57:b5, 2085-97-139 251:185:02:4569,-1.049,-0.009,2.156,-51.514,80.261,29.846,-1.741,5.328,95.658
 15:12:51.102,eb:33:2e:f9:57:b5, 2085-97-159 245:186:12:6955,-1.435,1.511,3.517,-442.2,-6.592,23.865,-12.947,8.52,98.388
 15:12:51.102,eb:33:2e:f9:57:b5, 2085-97-15 244:13:10:6794,-1.676,1.561,3.225,-539.429,-38.513,-22.217,-17.913,8.24,98.443
 15:12:51.102,eb:33:2e:f9:57:b5, 2085-97-82 243:110:12:8437,-1.272,1.882,4.089,-628.357,-104.919,-66.345,-23.818,7.454,98.24
 15:12:51.154,eb:33:2e:f9:57:b5, 2085-97-239 246:37:06:8650,-1.084,0.963,4.132,-688.843,-167.114,-108.582,-30.52,5.773,98.13
 15:12:51.154,eb:33:2e:f9:57:b5, 2085-97-221 248:50:03:8579,-0.716,0.322,4.28,-683.167,-198.364,-144.043,-37.43,3.543,98.119
 15:12:51.154,eb:33:2e:f9:57:b5, 2085-97-226 249:166:04:10873,-0.107,-0.093,4.569,-635.681,-243.286,-160.034,-44.017,0.967,98.405
 15:12:51.154,eb:33:2e:f9:57:b5, 2085-97-209 252:232:11:11357,-0.759,0.517,5.439,-646.301,-375.488,-81.299,-50.345,-2.021,99.904
 15:12:51.157,eb:33:2e:f9:57:b5, 2085-97-49 253:42:00:4037,0.301,2.147,4.601,-709.29,-418.579,67.749,-57.343,-4.537,103.189
 15:12:51.157,eb:33:2e:f9:57:b5, 2085-97-10 253:106:244:2869,-0.556,-1.687,0.522,-557.495,-258.972,96.252,-64.199,-5.576,106.562
 15:12:51.157,eb:33:2e:f9:57:b5, 2085-113-81 00:170:191:9794,-1.16,-1.715,1.483,-373.718,-80.444,60.364,-68.879,-5.422,108.495
 15:12:51.157,eb:33:2e:f9:57:b5, 2085-97-53 243:180:243:7776,-1.943,-1.829,2.604,-316.223,1.77,1.099,-70.576,-5.35,108.633
 15:12:51.213,eb:33:2e:f9:57:b5, 2085-97-09 238:35:252:10147,-2.401,-1.101,4.543,-293.03,91.309,-154.419,-73.455,-5.966,107.831
 15:12:51.213,eb:33:2e:f9:57:b5, 2085-97-79 236:84:06:9617,-2.489,0.214,4.997,-305.847,102.905,-290.1,-76.273,-7.949,106.183
 15:12:51.213,eb:33:2e:f9:57:b5, 2085-97-249 235:176:12:7282,-2.525,1.238,4.186,-270.508,88.989,-376.831,-78.915,-11.08,104.496
 15:12:51.213,eb:33:2e:f9:57:b5, 2085-97-21 236:147:16:4910,-2.438,1.877,2.906,-156.189,80.994,-412.109,-80.689,-14.875,102.887
 15:12:51.246,eb:33:2e:f9:57:b5, 2085-97-139 236:76:19:4823,-2.423,2.248,2.191,-15.381,101.44,-411.011,-80.975,-18.803,101.272
 15:12:51.246,eb:33:2e:f9:57:b5, 2085-97-89 236:60:20:5841,-2.415,2.516,2.601,76.965,111.816,-401.306,-79.904,-22.626,99.36
 15:12:51.246,eb:33:2e:f9:57:b5, 2085-97-129 238:153:21:6445,-1.739,2.586,3.047,109.985,118.652,-392.639,-78.014,-26.285,97.295
 15:12:51.246,eb:33:2e:f9:57:b5, 2085-97-187 243:66:26:5591,-1.354,2.937,2.939,114.502,153.564,-375.305,-75.718,-29.729,94.763
 15:12:51.304,eb:33:2e:f9:57:b5, 2085-97-191 246:101:29:3755,-0.985,3.572,2.335,149.902,131.958,-308.228,-72.96,-32.629,91.978
 15:12:51.304,eb:33:2e:f9:57:b5, 2085-97-14 249:04:30:2654,-0.815,3.74,1.499,239.929,55.847,-182.8,-69.901,-34.634,90.016
 15:12:51.304,eb:33:2e:f9:57:b5, 2085-97-59 250:85:25:1001,-0.573,3.557,1.038,312.012,-8.057,-66.956,-66.616,-35.629,89.291
 15:12:51.305,eb:33:2e:f9:57:b5, 2085-97-85 252:238:18:-2069,-0.423,2.738,-0.305,358.582,23.865,7.874,-63.171,-35.843,89.193
 15:12:51.334,eb:33:2e:f9:57:b5, 2085-97-252 251:237:15:-2498,-0.629,2.107,-1.339,401.184,171.875,53.833,-58.804,-35.03,88.33
 15:12:51.334,eb:33:2e:f9:57:b5, 2085-97-176 249:21:16:-450,-0.892,1.98,-0.804,427.673,330.078,82.214,-53.421,-32.981,86.122
 15:12:51.334,eb:33:2e:f9:57:b5, 2085-97-132 248:101:16:1743,-0.934,2.043,0.37,449.28,403.809,115.845,-47.593,-29.778,83.436
 15:12:51.334,eb:33:2e:f9:57:b5, 2085-97-197 248:172:15:3101,-0.878,2.011,1.224,488.037,401.917,156.921,-41.913,-25.917,81.266
 15:12:51.364,eb:33:2e:f9:57:b5, 2085-97-112 249:220:14:4090,-0.771,1.899,1.762,534.668,383.606,190.674,-36.233,-21.753,80.063
 15:12:51.364,eb:33:2e:f9:57:b5, 2085-97-246 249:51:14:5035,-0.888,1.811,2.219,569.092,383.789,209.778,-30.536,-17.446,79.618
 15:12:51.364,eb:33:2e:f9:57:b5, 2085-97-43 248:250:12:6128,-1.028,1.722,2.788,596.191,371.826,221.497,-24.681,-13.035,79.777
 15:12:51.364,eb:33:2e:f9:57:b5, 2085-97-02 248:155:09:6464,-1.016,1.426,3.09,627.136,339.661,221.619,-18.699,-8.926,80.585
 15:12:51.395,eb:33:2e:f9:57:b5, 2085-97-48 247:244:04:6826,-1.095,0.932,3.257,656.86,327.271,199.219,-12.338,-5.125,81.738
 15:12:51.395,eb:33:2e:f9:57:b5, 2085-97-06 249:201:253:6583,-0.525,0.196,3.319,679.932,319.458,160.767,-5.707,-1.67,83.035
 15:12:51.395,eb:33:2e:f9:57:b5, 2085-97-210 254:21:247:7571,0.204,-0.728,3.27,684.998,365.234,116.943,1.198,1.813,84.265
 15:12:51.395,eb:33:2e:f9:57:b5, 2085-97-54 04:165:235:11210,0.996,-1.742,4.702,648.01,386.108,113.098,7.998,5.576,85.704
 15:12:51.514,eb:33:2e:f9:57:b5, 2085-97-178 11:104:220:11868,1.904,-3.469,5.817,554.688,321.045,131.592,14.315,8.8,87.621
 15:12:51.514,eb:33:2e:f9:57:b5, 2085-97-101 18:13:205:11650,2.628,-5.466,5.642,421.387,319.336,142.944,19.539,11.376,89.918
 15:12:51.514,eb:33:2e:f9:57:b5, 2085-97-208 22:48:194:12428,2.946,-7.109,5.917,269.958,352.295,147.278,23.588,14.019,92.626
 15:12:51.514,eb:33:2e:f9:57:b5, 2085-97-162 23:249:186:11941,3.025,-8.235,6.038,121.277,294.189,145.264,26.169,16.392,95.46
 15:12:51.517,eb:33:2e:f9:57:b5, 2085-97-169 24:241:182:10474,3.033,-8.962,5.538,44.067,183.899,145.447,27.669,17.814,97.96
 15:12:51.517,eb:33:2e:f9:57:b5, 2085-97-176 22:100:185:7819,2.636,-9.108,4.493,-26.367,73.547,116.089,28.317,18.276,99.822
 15:12:51.517,eb:33:2e:f9:57:b5, 2085-97-188 19:10:197:4636,2.276,-8.222,3.025,-114.807,-14.343,61.279,27.845,18.051,100.723
 15:12:51.517,eb:33:2e:f9:57:b5, 2085-97-213 15:56:213:2499,1.649,-6.361,1.664,-174.744,-44.617,28.076,26.395,17.556,100.953
 15:12:51.633,eb:33:2e:f9:57:b5, 2085-97-30 12:10:230:990,1.527,-4.302,0.844,-204.163,-54.26,32.227,24.467,16.974,100.981
 15:12:51.633,eb:33:2e:f9:57:b5, 2085-97-223 11:215:245:245,0.51,-2.232,0.243,-247.925,-15.564,59.814,22.286,16.441,101.294
 15:12:51.633,eb:33:2e:f9:57:b5, 2085-97-135 12:140:219:2835,-0.818,-0.21,3.027,-462.341,277.1,258.118,19.726,16.644,102.7
 15:12:51.633,eb:33:2e:f9:57:b5, 2085-97-195 249:186:245:21602,-7.733,-1.632,1.306,-879.639,-234.741,-400.33,10.739,15.623,99.091
 15:12:51.635,eb:33:2e:f9:57:b5, 2085-97-42 227:18:198:9722,0.28,-8.689,11.339,-329.651,-332.642,-72.937,3.351,13.414,96.526
 15:12:51.635,eb:33:2e:f9:57:b5, 2085-97-130 236:176:12:4564,-0.234,2.55,1.717,-82.886,-312.073,30.273,2.302,9.789,95.559
 15:12:51.635,eb:33:2e:f9:57:b5, 2085-97-82 28:191:252:-4510,3.426,-1.125,0.845,-103.271,-392.517,11.169,1.104,6.345,95.674
 15:12:51.635,eb:33:2e:f9:57:b5, 2085-97-121 15:175:254:-2522,0.398,0.078,-2.108,-71.289,-91.064,22.705,0.428,4.043,95.933
 15:12:51.638,eb:33:2e:f9:57:b5, 2085-97-187 255:172:253:2525,-0.388,-0.406,0.406,-45.349,22.827,16.296,-0.143,4.065,96.229
 15:12:51.638,eb:33:2e:f9:57:b5, 2085-97-58 248:62:01:4423,-0.258,0.064,1.779,-41.87,35.278,31.494,-0.549,4.417,96.476
 15:12:51.638,eb:33:2e:f9:57:b5, 2085-97-212 07:105:02:1392,0.656,0.002,1.71,-47.791,-2.38,33.508,-1.027,4.471,96.806
 15:12:51.638,eb:33:2e:f9:57:b5, 2085-97-41 02:46:01:2323,-0.144,0.192,0.908,-64.026,123.169,44.617,-1.544,5.224,97.273
 15:12:51.640,eb:33:2e:f9:57:b5, 2085-97-30 250:200:01:4734,-0.765,0.037,1.603,-70.862,160.034,48.279,-2.192,6.713,97.685
 15:12:51.640,eb:33:2e:f9:57:b5, 2085-97-102 252:113:03:6381,-0.252,0.35,2.653,-110.474,141.724,53.345,-3.021,8.251,98.141
 15:12:51.640,eb:33:2e:f9:57:b5, 2085-97-03 254:178:05:7235,-0.25,0.771,3.348,-189.087,107.91,76.965,-4.471,9.498,98.679
 15:12:51.640,eb:33:2e:f9:57:b5, 2085-97-04 253:242:08:7678,-0.705,0.967,3.521,-287.109,69.214,71.533,-6.801,10.415,99.371
 15:12:51.694,eb:33:2e:f9:57:b5, 2085-97-202 247:212:11:7389,-1.071,1.209,3.627,-381.287,35.522,46.631,-10.118,10.959,99.871
 15:12:51.694,eb:33:2e:f9:57:b5, 2085-97-83 248:28:14:6541,-0.994,1.541,3.544,-479.248,-16.479,-4.211,-14.442,11.074,100.052
 15:12:51.695,eb:33:2e:f9:57:b5, 2085-97-153 248:88:13:7207,-0.989,1.839,3.207,-570.312,-36.438,-27.161,-19.764,10.739,99.976
 15:12:51.695,eb:33:2e:f9:57:b5, 2085-97-239 248:21:12:8584,-0.782,1.765,4.049,-657.043,-95.52,-63.232,-25.999,9.932,99.778
 15:12:51.725,eb:33:2e:f9:57:b5, 2085-97-155 248:255:03:9270,-0.935,0.976,4.234,-692.2,-128.784,-81.665,-32.871,8.569,99.723
 15:12:51.725,eb:33:2e:f9:57:b5, 2085-97-42 252:121:02:10218,-0.007,0.664,4.619,-652.893,-218.75,-97.29,-39.562,6.63,100.014
 15:12:51.725,eb:33:2e:f9:57:b5, 2085-97-01 00:224:02:10911,-0.07,0.497,4.927,-606.628,-376.526,-35.461,-45.692,3.884,101.53
 15:12:51.725,eb:33:2e:f9:57:b5, 2085-97-240 249:57:06:7737,-0.837,0.732,4.858,-630.615,-486.694,74.463,-51.685,1.005,105.062
 15:12:51.784,eb:33:2e:f9:57:b5, 2085-97-140 255:193:236:-443,-0.904,-1.285,1.029,-599.121,-320.19,71.655,-58.063,-0.648,109.034
 15:12:51.784,eb:33:2e:f9:57:b5, 2085-97-158 246:169:237:4849,-1.731,-1.961,1.485,-385.742,-94.177,55.786,-62.748,-0.868,110.885
 15:12:51.784,eb:33:2e:f9:57:b5, 2085-97-185 239:254:244:10254,-2.268,-1.97,4.128,-328.064,66.284,-84.045,-66.154,-1.005,110.742
 15:12:51.784,eb:33:2e:f9:57:b5, 2085-97-240 236:118:02:11007,-2.479,-0.543,5.308,-356.018,112.122,-251.77,-69.554,-2.258,109.133
 15:12:51.784,eb:33:2e:f9:57:b5, 2085-97-76 236:94:12:9435,-2.367,1.031,5.182,-346.985,69.031,-350.037,-72.988,-4.9,107.26
 15:12:51.846,eb:33:2e:f9:57:b5, 2085-113-81 00:169:190:10641,-2.443,1.977,3.814,-274.536,43.945,-401.367,-75.943,-8.448,105.705
 15:12:51.846,eb:33:2e:f9:57:b5, 2085-97-147 235:163:20:5792,-2.552,2.331,3.219,-221.191,46.448,-411.926,-77.042,-10.382,104.996
 15:12:51.846,eb:33:2e:f9:57:b5, 2085-97-06 236:162:21:5229,-2.446,2.656,2.583,-114.929,66.467,-419.495,-78.333,-14.332,103.541
 15:12:51.846,eb:33:2e:f9:57:b5, 2085-97-15 237:01:23:5406,-2.294,2.795,2.614,-29.785,85.388,-420.837,-78.519,-18.309,101.854
 15:12:51.846,eb:33:2e:f9:57:b5, 2085-97-83 238:192:22:5447,-2.171,2.886,2.661,27.71,73.425,-402.954,-77.855,-22.165,100.107
 15:12:51.846,eb:33:2e:f9:57:b5, 2085-97-134 239:249:21:5104,-1.77,2.764,2.62,70.923,48.035,-375.854,-76.701,-25.823,98.487
 15:12:51.846,eb:33:2e:f9:57:b5, 2085-97-206 243:75:24:4073,-1.432,2.846,2.226,117.676,56.396,-345.154,-75.009,-29.18,96.971
 15:12:51.846,eb:33:2e:f9:57:b5, 2085-97-30 245:187:26:3090,-1.234,3.248,1.823,178.406,70.007,-291.565,-72.603,-32.053,95.175
 15:12:51.904,eb:33:2e:f9:57:b5, 2085-97-60 247:228:26:1648,-0.909,3.355,1.108,261.658,44.617,-207.275,-69.456,-34.178,93.571
 15:12:51.904,eb:33:2e:f9:57:b5, 2085-97-147 249:78:25:715,-0.655,3.351,0.565,327.82,40.161,-120.544,-65.781,-35.508,92.406
 15:12:51.904,eb:33:2e:f9:57:b5, 2085-97-156 251:226:20:-1087,-0.472,2.89,-0.066,365.234,79.59,-50.476,-61.622,-35.964,91.335
 15:12:51.904,eb:33:2e:f9:57:b5, 2085-97-126 252:248:17:-2157,-0.459,2.381,-0.913,403.931,189.697,9.338,-56.876,-35.42,89.813
 15:12:52.025,eb:33:2e:f9:57:b5, 2085-97-159 251:68:19:-404,-0.657,2.281,-0.778,442.017,338.867,62.195,-51.213,-33.481,87.402
 15:12:52.025,eb:33:2e:f9:57:b5, 2085-97-253 249:200:19:2076,-0.784,2.491,0.452,470.276,414.307,122.864,-45.225,-30.179,84.683
 15:12:52.025,eb:33:2e:f9:57:b5, 2085-97-150 249:11:18:3472,-0.788,2.372,1.405,514.343,403.076,189.392,-39.397,-26.043,82.87
 15:12:52.025,eb:33:2e:f9:57:b5, 2085-97-142 249:70:16:4267,-0.828,2.137,1.894,571.045,376.526,240.906,-33.701,-21.627,82.233
 15:12:52.029,eb:33:2e:f9:57:b5, 2085-97-141 248:219:13:5649,-0.989,1.92,2.333,616.211,371.277,274.902,-27.784,-17.073,82.579
 15:12:52.029,eb:33:2e:f9:57:b5, 2085-97-27 247:108:10:6655,-1.265,1.555,3.012,634.827,355.469,287.354,-21.753,-12.585,83.716
 15:12:52.029,eb:33:2e:f9:57:b5, 2085-97-153 245:97:05:6978,-1.246,1.025,3.423,640.869,321.167,271.118,-15.612,-8.448,85.314
 15:12:52.029,eb:33:2e:f9:57:b5, 2085-97-179 245:33:00:7037,-1.309,0.342,3.354,659.973,294.922,223.328,-9.305,-4.938,87.105
 15:12:52.031,eb:33:2e:f9:57:b5, 2085-97-243 246:168:249:7553,-0.809,-0.383,3.59,685.486,265.198,158.63,-2.593,-1.928,88.698
 15:12:52.031,eb:33:2e:f9:57:b5, 2085-97-179 251:214:242:8324,-0.258,-1.212,3.78,684.57,268.799,83.374,4.268,0.676,89.94
 15:12:52.031,eb:33:2e:f9:57:b5, 2085-97-207 00:144:235:10106,0.53,-2.057,4.466,641.968,290.1,27.893,11.003,3.422,90.813
 15:12:52.031,eb:33:2e:f9:57:b5, 2085-97-115 08:99:223:11984,1.716,-3.205,5.479,552.49,298.279,24.841,17.073,6.246,91.785
 15:12:52.144,eb:33:2e:f9:57:b5, 2085-97-189 18:101:208:10892,2.705,-5.076,5.729,373.596,339.417,42.725,21.923,9.086,93.192
 15:12:52.144,eb:33:2e:f9:57:b5, 2085-97-158 21:15:197:11007,2.662,-6.77,5.089,184.875,457.947,76.05,24.961,12.563,95.427
 15:12:52.144,eb:33:2e:f9:57:b5, 2085-97-194 22:101:190:12551,3.113,-7.808,5.888,128.357,420.349,136.292,27.23,16.183,98.52
 15:12:52.144,eb:33:2e:f9:57:b5, 2085-97-193 26:31:185:11147,3.283,-8.586,5.935,85.083,271.729,154.968,29.24,18.463,101.64
 15:12:52.144,eb:33:2e:f9:57:b5, 2085-113-58 00:247:249:-4980,3.182,-8.842,4.979,5.005,128.235,119.629,30.432,19.451,103.942
 15:12:52.144,eb:33:2e:f9:57:b5, 2085-97-197 24:248:192:8000,2.949,-8.501,4.587,-42.114,49.744,88.928,30.547,19.545,104.656
 15:12:52.144,eb:33:2e:f9:57:b5, 2085-97-21 22:01:206:5473,2.444,-7.164,3.301,-111.206,-72.571,49.683,29.861,19.023,105.134
 15:12:52.144,eb:33:2e:f9:57:b5, 2085-97-255 17:253:221:3124,2.313,-5.232,2.124,-153.198,-122.803,40.283,28.46,17.891,105.007
 15:12:52.149,eb:33:2e:f9:57:b5, 2085-97-34 18:72:236:1923,-5.981,-3.376,1.023,-201.66,-84.412,58.228,26.62,16.688,104.919
 15:12:52.149,eb:33:2e:f9:57:b5, 2085-97-35 10:204:20:-7104,-2.793,-3.906,8.403,-643.616,-100.891,-344.116,23.511,16.661,105.694
 15:12:52.149,eb:33:2e:f9:57:b5, 2085-97-92 226:197:244:21052,-6.457,-1.952,4.475,-841.736,-103.027,-457.153,14.112,17.573,100.8
 15:12:52.149,eb:33:2e:f9:57:b5, 2085-97-37 223:241:194:8365,-0.862,-2.7,9.111,-519.104,-402.649,-88.867,5.823,15.804,97.531
 15:12:52.267,eb:33:2e:f9:57:b5, 2085-97-124 251:211:18:2508,-0.882,-2.609,2.21,-39.795,-430.298,-34.668,3.889,11.464,96.801
 15:12:52.267,eb:33:2e:f9:57:b5, 2085-97-144 16:236:243:-1803,3.761,1.604,0.939,-191.772,-392.09,1.587,2.532,7.581,96.465
 15:12:52.267,eb:33:2e:f9:57:b5, 2085-97-118 25:182:01:-3612,1.105,-0.974,-2.16,-80.322,-127.563,28.442,1.176,4.9,96.427
 15:12:52.267,eb:33:2e:f9:57:b5, 2085-97-24 252:111:252:2460,-0.35,-0.146,-0.263,-69.275,59.692,28.137,0.374,4.834,96.619
 15:12:52.325,eb:33:2e:f9:57:b5, 2085-97-62 254:85:00:2920,-0.642,-0.345,1.438,-49.561,28.076,14.343,-0.181,5.197,96.79
 15:12:52.325,eb:33:2e:f9:57:b5, 2085-97-141 250:128:255:3802,0.464,0.024,1.706,-54.749,18.494,28.992,-0.687,5.493,97.048
 15:12:52.325,eb:33:2e:f9:57:b5, 2085-97-250 02:41:00:1928,0.081,0.019,0.943,-54.077,31.555,31.86,-1.274,5.548,97.273
 15:12:52.325,eb:33:2e:f9:57:b5, 2085-113-81 00:234:171:1682,-0.111,0.12,1.05,-59.875,75.989,31.433,-1.796,6.158,97.603
 15:12:52.325,eb:33:2e:f9:57:b5, 2085-97-87 254:95:01:3809,-0.741,0.054,1.653,-69.946,82.031,28.076,-2.109,6.57,97.729
 15:12:52.325,eb:33:2e:f9:57:b5, 2085-97-108 254:190:01:4561,0.069,0.277,2.449,-92.041,61.951,53.65,-2.917,7.399,98.135
 15:12:52.325,eb:33:2e:f9:57:b5, 2085-97-209 253:201:04:6096,-0.029,0.518,2.961,-156.616,53.894,66.345,-4.098,8.064,98.69
 15:12:52.325,eb:33:2e:f9:57:b5, 2085-97-251 254:68:05:6632,-0.38,0.663,2.679,-230.103,43.884,76.111,-5.993,8.52,99.404
 15:12:52.325,eb:33:2e:f9:57:b5, 2085-97-94 251:53:07:6312,-0.845,0.981,3.398,-302.551,12.756,59.814,-8.586,8.893,100.031
 15:12:52.328,eb:33:2e:f9:57:b5, 2085-97-247 247:216:10:6918,-1.083,1.08,3.168,-383.24,11.475,17.334,-12.025,9.091,100.371
 15:12:52.328,eb:33:2e:f9:57:b5, 2085-97-152 245:202:09:5840,-1.344,1.461,3.037,-472.046,-36.255,-9.338,-16.337,8.932,100.464
 15:12:52.328,eb:33:2e:f9:57:b5, 2085-97-212 245:160:10:7026,-0.946,1.243,2.719,-555.664,-51.941,-59.753,-21.594,8.355,100.239
 15:12:52.329,eb:33:2e:f9:57:b5, 2085-97-181 250:08:07:8834,-0.46,1.58,3.743,-633.179,-125.793,-91.064,-27.625,7.152,99.926
 15:12:52.329,eb:33:2e:f9:57:b5, 2085-97-216 253:97:01:10294,-0.511,0.927,4.989,-688.477,-184.631,-103.638,-34.316,5.345,99.822
 15:12:52.329,eb:33:2e:f9:57:b5, 2085-97-200 252:165:253:9703,-0.218,-0.353,4.678,-643.372,-260.254,-89.417,-41.023,2.961,100.432
 15:12:52.329,eb:33:2e:f9:57:b5, 2085-97-243 250:225:251:8344,-1.004,0.045,4.037,-529.663,-382.996,-27.893,-46.686,0.038,102.316
 15:12:52.329,eb:33:2e:f9:57:b5, 2085-97-212 238:23:04:9342,-1.659,-0.129,4.945,-593.262,-422.18,-24.597,-52.251,-2.741,105.139
 15:12:52.384,eb:33:2e:f9:57:b5, 2085-97-192 253:209:236:-252,-0.55,-0.239,2.411,-669.312,-412.476,-31.982,-58.964,-5.394,108.611
 15:12:52.384,eb:33:2e:f9:57:b5, 2085-97-180 249:170:242:2897,-1.165,-1.878,0.964,-519.104,-187.134,-44.25,-65.061,-7.031,110.77
 15:12:52.384,eb:33:2e:f9:57:b5, 2085-97-134 243:201:243:6397,-1.804,-1.741,2.055,-411.804,-32.349,-118.042,-69.736,-8.179,111.363
 15:12:52.384,eb:33:2e:f9:57:b5, 2085-97-79 240:207:250:8674,-2.064,-1.158,3.831,-350.281,16.907,-219.604,-73.389,-9.816,110.759
 15:12:52.413,eb:33:2e:f9:57:b5, 2085-97-118 238:52:04:8576,-2.218,-0.058,4.328,-321.228,18.616,-306.763,-76.547,-12.382,109.852
 15:12:52.413,eb:33:2e:f9:57:b5, 2085-97-28 238:140:11:7001,-2.279,1.061,3.844,-290.161,19.714,-359.131,-79.387,-15.661,108.957
 15:12:52.413,eb:33:2e:f9:57:b5, 2085-97-157 237:190:14:5449,-2.322,1.642,3.02,-235.718,62.988,-386.78,-81.7,-19.292,107.897
 15:12:52.414,eb:33:2e:f9:57:b5, 2085-97-162 237:39:18:4341,-2.283,2.06,2.365,-134.033,110.962,-387.939,-82.985,-23.044,106.364
 15:12:52.505,eb:33:2e:f9:57:b5, 2085-97-182 237:169:19:5017,-2.19,2.42,2.131,-1.526,124.878,-342.346,-82.82,-26.521,104.54
 15:12:52.505,eb:33:2e:f9:57:b5, 2085-97-166 240:136:19:6941,-1.705,2.431,2.967,102.417,110.413,-286.743,-81.376,-29.432,102.739
 15:12:52.505,eb:33:2e:f9:57:b5, 2085-97-170 242:77:21:7286,-1.708,2.532,3.574,148.438,97.168,-245.911,-79.167,-31.844,101.03
 15:12:52.505,eb:33:2e:f9:57:b5, 2085-97-123 242:115:21:6138,-1.639,2.731,3.358,176.086,47.241,-201.477,-76.778,-33.876,99.63
 15:12:52.505,eb:33:2e:f9:57:b5, 2085-97-46 244:57:19:4349,-1.313,2.521,2.599,217.468,-6.897,-154.358,-74.366,-35.513,98.921
 15:12:52.505,eb:33:2e:f9:57:b5, 2085-97-112 246:175:18:2114,-1.14,2.348,1.564,266.846,-0.732,-118.469,-71.713,-36.821,98.558
 15:12:52.505,eb:33:2e:f9:57:b5, 2085-97-183 247:226:17:304,-0.851,2.301,0.523,327.515,68.115,-82.153,-68.198,-37.623,97.723
 15:12:52.505,eb:33:2e:f9:57:b5, 2085-97-120 250:102:17:-443,-0.589,2.178,-0.142,390.686,149.963,-40.894,-63.605,-37.722,96.136
 15:12:52.984,eb:33:2e:f9:57:b5, 2085-97-27 251:68:17:389,-0.702,2.179,-0.09,443.726,237.366,10.193,-57.975,-36.843,93.862
 15:12:52.984,eb:33:2e:f9:57:b5, 2085-97-251 249:08:16:1774,-0.746,2.105,0.541,474.426,290.71,61.279,-51.916,-34.975,91.412
 15:12:52.984,eb:33:2e:f9:57:b5, 2085-97-09 250:57:14:2726,-0.748,1.894,1.125,484.985,320.801,104.187,-45.89,-32.289,89.302
 15:12:52.984,eb:33:2e:f9:57:b5, 2085-97-05 250:205:12:3271,-0.75,1.673,1.471,493.164,352.295,136.719,-40.177,-28.982,87.61
 15:12:52.987,eb:33:2e:f9:57:b5, 2085-97-233 249:63:12:4161,-0.775,1.554,1.777,519.653,377.869,166.321,-34.552,-25.109,86.473
 15:12:52.987,eb:33:2e:f9:57:b5, 2085-97-115 249:224:11:5359,-0.908,1.506,2.324,557.678,388.855,192.017,-28.938,-20.88,85.941
 15:12:52.987,eb:33:2e:f9:57:b5, 2085-97-219 247:206:11:6696,-1.052,1.495,2.936,599.06,374.939,211.365,-23.126,-16.518,86.078
 15:12:52.987,eb:33:2e:f9:57:b5, 2085-97-207 247:151:10:7577,-0.979,1.414,3.523,627.686,341.553,219.666,-17.155,-12.42,86.962
 15:12:52.991,eb:33:2e:f9:57:b5, 2085-97-46 248:123:07:8169,-0.985,1.161,3.852,644.714,326.111,220.154,-10.975,-8.635,88.314
 15:12:52.991,eb:33:2e:f9:57:b5, 2085-97-216 248:241:02:8659,-0.72,0.668,4.115,664.001,316.345,214.05,-4.62,-5.169,90.071
 15:12:52.991,eb:33:2e:f9:57:b5, 2085-97-03 252:250:252:9628,-0.329,0.012,4.423,675.72,335.571,205.505,2.027,-1.851,92.104
 15:12:52.991,eb:33:2e:f9:57:b5, 2085-97-116 00:26:244:10858,0.361,-0.867,5.053,682.861,353.088,207.947,8.822,1.417,94.504
 15:12:52.991,eb:33:2e:f9:57:b5, 2085-97-251 04:49:232:13278,0.799,-2.178,5.765,669.312,376.465,231.567,15.837,4.532,97.443
 15:12:52.991,eb:33:2e:f9:57:b5, 2085-97-96 07:73:216:15395,1.108,-3.945,7.254,567.322,364.685,245.117,22.434,7.295,101.03
 15:12:52.991,eb:33:2e:f9:57:b5, 2085-97-255 10:10:202:13416,1.307,-5.927,7.18,411.133,256.226,228.943,27.806,9.119,104.535
 15:12:52.991,eb:33:2e:f9:57:b5, 2085-97-157 11:114:188:11380,1.5,-7.401,6.157,279.968,133.545,206.787,31.635,9.668,107.419
 15:12:53.015,eb:33:2e:f9:57:b5, 2085-97-244 12:144:180:7204,-0.864,-9.351,4.49,197.998,75.684,138.977,34.332,9.514,109.457
 15:12:53.015,eb:33:2e:f9:57:b5, 2085-97-251 246:25:248:2758,-1.487,-1.108,0.686,-344.299,2.93,-115.112,-65.649,-2.675,118.394
 15:12:53.015,eb:33:2e:f9:57:b5, 2085-97-08 242:170:254:5391,-1.893,-0.632,2.057,-243.042,99.548,-162.72,-68.428,-3.735,117.274
 15:12:53.015,eb:33:2e:f9:57:b5, 2085-97-58 240:130:04:6223,-2.033,0.155,2.91,-211.121,140.015,-222.656,-70.51,-5.125,115.433
 15:12:53.045,eb:33:2e:f9:57:b5, 2085-97-48 239:213:10:5378,-2.149,0.944,2.903,-181.396,162.231,-286.621,-72.246,-7.092,113.126
 15:12:53.045,eb:33:2e:f9:57:b5, 2085-97-171 238:75:16:4115,-2.207,1.742,2.315,-115.845,166.504,-317.261,-73.372,-9.531,110.621
 15:12:53.045,eb:33:2e:f9:57:b5, 2085-113-81 00:151:189:9236,-2.271,2.203,1.826,-22.766,175.659,-323.73,-73.548,-12.129,108.023
 15:12:53.045,eb:33:2e:f9:57:b5, 2085-97-116 237:165:17:4145,-2.287,2.253,1.806,27.039,180.054,-323.547,-73.218,-13.425,106.672
 15:12:53.104,eb:33:2e:f9:57:b5, 2085-97-71 239:207:16:5936,-1.845,2.141,2.481,118.042,185.059,-322.815,-71.708,-15.936,103.859
 15:12:53.104,eb:33:2e:f9:57:b5, 2085-97-08 243:169:18:6565,-1.483,2.169,3.121,177.795,175.476,-311.218,-69.324,-18.342,100.97
 15:12:53.104,eb:33:2e:f9:57:b5, 2085-97-103 244:208:19:6565,-1.506,2.464,3.234,216.675,144.043,-273.499,-66.407,-20.424,98.218
 15:12:53.104,eb:33:2e:f9:57:b5, 2085-97-46 244:200:16:5801,-1.37,2.335,3.097,265.93,37.17,-208.801,-63.265,-22.209,96.24
 15:12:55.026,eb:33:2e:f9:57:b5, 2085-97-22 246:110:14:4543,-1.157,1.936,2.507,310.974,-57.19,-151.978,-60.046,-23.829,95.548
 15:12:55.026,eb:33:2e:f9:57:b5, 2085-97-129 247:71:12:3107,-0.957,1.693,1.938,329.224,-78.613,-118.896,-56.788,-25.345,95.466
 15:12:55.026,eb:33:2e:f9:57:b5, 2085-97-139 249:197:09:958,-0.678,1.347,0.9,356.018,-51.453,-87.524,-53.333,-26.554,95.438
 15:12:55.026,eb:33:2e:f9:57:b5, 2085-97-92 251:23:09:506,-0.584,1.15,0.273,399.78,14.832,-53.101,-49.384,-27.186,95.043
 15:12:55.029,eb:33:2e:f9:57:b5, 2085-97-39 251:210:09:1071,-0.66,1.187,0.382,441.406,71.716,-14.16,-44.819,-27.059,94.395
 15:12:55.029,eb:33:2e:f9:57:b5, 2085-97-99 250:53:09:1711,-0.728,1.202,0.683,466.064,102.173,24.902,-39.985,-26.345,93.79
 15:12:55.029,eb:33:2e:f9:57:b5, 2085-97-43 250:240:07:1929,-0.725,1.089,0.931,475.769,132.629,52.002,-35.041,-25.131,93.351
 15:12:55.029,eb:33:2e:f9:57:b5, 2085-97-63 250:233:06:2052,-0.729,0.909,0.946,486.511,178.345,71.472,-30.086,-23.467,93.06
 15:12:55.143,eb:33:2e:f9:57:b5, 2085-97-33 250:221:06:2775,-0.714,0.839,1.15,502.014,233.948,87.769,-24.999,-21.209,92.791
 15:12:55.143,eb:33:2e:f9:57:b5, 2085-97-172 250:245:06:3763,-0.783,0.861,1.577,516.357,278.687,102.844,-19.858,-18.435,92.725
 15:12:55.143,eb:33:2e:f9:57:b5, 2085-97-173 249:254:05:5353,-0.65,0.805,2.308,531.738,299.744,119.934,-14.639,-15.255,92.928
 15:12:55.143,eb:33:2e:f9:57:b5, 2085-97-172 250:121:05:6318,-0.605,0.732,2.789,551.086,286.987,145.02,-9.382,-12.112,93.658
 15:12:55.625,eb:33:2e:f9:57:b5, 2085-97-120 251:33:03:6462,-0.482,0.571,3.179,571.35,232.788,186.89,-3.961,-9.316,95.037
 15:12:55.625,eb:33:2e:f9:57:b5, 2085-97-91 252:244:254:6344,-0.526,0.182,3.084,576.965,209.167,226.99,1.505,-7.136,97.141
 15:12:55.625,eb:33:2e:f9:57:b5, 2085-97-83 251:127:247:6945,-0.415,-0.551,3.232,558.105,245.361,252.014,6.96,-5.032,99.739
 15:12:55.625,eb:33:2e:f9:57:b5, 2085-97-142 254:75:239:7390,-0.095,-1.583,3.471,525.269,326.294,265.32,12.173,-2.664,102.827
 15:12:55.685,eb:33:2e:f9:57:b5, 2085-97-205 255:11:230:8963,0.089,-2.634,3.947,473.694,435.73,280.518,17.139,0.423,106.463
 15:12:55.685,eb:33:2e:f9:57:b5, 2085-97-139 02:234:218:9978,0.641,-3.956,4.738,381.409,500.305,293.64,21.588,3.939,110.814
 15:12:55.685,eb:33:2e:f9:57:b5, 2085-97-49 08:218:209:9960,1.391,-5.252,4.829,255.554,527.954,293.274,25.23,7.548,115.598
 15:12:55.685,eb:33:2e:f9:57:b5, 2085-97-32 13:171:204:10703,1.843,-6.093,5.031,133.606,480.408,300.659,27.922,10.794,120.641
 15:12:55.685,eb:33:2e:f9:57:b5, 2085-97-155 14:247:196:9475,1.555,-6.965,5.098,49.072,299.927,314.941,29.74,12.733,125.365
 15:12:55.685,eb:33:2e:f9:57:b5, 2085-97-215 239:61:09:3904,-1.948,-7.625,3.896,15.564,88.196,288.391,30.828,12.744,129.012
 15:12:55.685,eb:33:2e:f9:57:b5, 2085-97-189 240:246:14:2672,-1.89,1.568,1.599,-94.788,7.69,-374.023,-66.368,-22.368,-159.197
 15:12:55.686,eb:33:2e:f9:57:b5, 2085-97-185 240:220:17:2418,-1.965,2.091,1.125,-6.287,39.734,-385.864,-66.066,-25.79,-161.131
 15:12:56.918,eb:33:2e:f9:57:b5, 2085-97-223 239:90:18:4067,-2.051,2.286,1.49,91.248,63.66,-364.746,-64.49,-28.916,-163.482
 15:12:56.919,eb:33:2e:f9:57:b5, 2085-97-226 240:45:17:5491,-1.709,2.234,2.455,166.565,33.752,-323.975,-61.968,-31.761,-165.811
 15:12:56.920,eb:33:2e:f9:57:b5, 2085-97-215 242:40:16:5359,-1.623,2.104,2.704,203.735,9.888,-282.471,-58.98,-34.222,-167.778
 15:12:56.920,eb:33:2e:f9:57:b5, 2085-97-26 242:93:14:5278,-1.77,1.952,2.518,229.614,-11.902,-232.3,-55.827,-36.392,-169.47
 15:12:56.921,eb:33:2e:f9:57:b5, 2085-97-160 242:70:10:4860,-1.563,1.547,2.551,256.226,-70.923,-174.438,-52.734,-38.21,-170.508
 15:12:56.921,eb:33:2e:f9:57:b5, 2085-97-115 247:121:02:2575,-1.048,1.09,2.146,276.917,-97.839,-128.784,-49.867,-39.935,-170.804
 15:12:56.921,eb:33:2e:f9:57:b5, 2085-97-144 247:34:00:2798,-1.082,0.195,1.344,381.409,120.789,107.178,-32.487,-39.688,-171.535
 15:12:56.921,eb:33:2e:f9:57:b5, 2085-97-198 246:194:253:2584,-1.206,-0.119,1.299,378.357,141.968,150.269,-29.064,-37.886,-170.931
 15:12:56.926,eb:33:2e:f9:57:b5, 2085-97-148 245:21:251:2689,-1.369,-0.449,1.238,375.427,180.969,172.546,-25.779,-35.618,-170.085
 15:12:56.926,eb:33:2e:f9:57:b5, 2085-97-75 09:66:11:8715,1.148,-0.741,1.398,379.517,212.83,182.007,-22.56,-33.063,-169.113
 15:12:56.926,eb:33:2e:f9:57:b5, 2085-97-206 06:32:09:8826,0.195,1.667,4.279,-549.805,-339.172,85.876,-46.357,-14.826,-129.694
 15:12:56.926,eb:33:2e:f9:57:b5, 2085-97-50 253:181:14:8591,-0.193,1.184,4.558,-573.792,-431.885,144.287,-52.998,-16.436,-125.843
 15:12:56.928,eb:33:2e:f9:57:b5, 2085-97-150 255:40:00:1533,-0.673,2.006,2.996,-604.919,-493.835,246.704,-60.43,-17.369,-120.509
 15:12:56.928,eb:33:2e:f9:57:b5, 2085-97-212 246:115:242:1472,-1.479,-1.36,0.361,-455.017,-366.15,249.878,-67.352,-16.941,-115.307
 15:12:56.928,eb:33:2e:f9:57:b5, 2085-97-160 241:10:238:1950,-1.935,-2.245,0.493,-317.383,-166.382,101.379,-71.966,-16.15,-112.077
 15:12:56.928,eb:33:2e:f9:57:b5, 2085-97-115 239:216:245:4945,-2.179,-1.888,1.664,-249.756,16.235,-104.858,-74.861,-16.436,-111.555
 15:12:57.035,eb:33:2e:f9:57:b5, 2085-97-243 237:71:01:6382,-2.277,-0.553,2.918,-202.881,65.43,-284.546,-76.701,-18.331,-112.714
 15:12:57.035,eb:33:2e:f9:57:b5, 2085-97-95 238:168:09:5331,-2.145,0.749,2.966,-147.888,13.916,-368.408,-78.052,-21.528,-113.912
 15:12:57.035,eb:33:2e:f9:57:b5, 2085-97-230 238:58:14:3848,-2.138,1.529,2.189,-61.157,-6.042,-393.555,-78.695,-25.263,-114.763
 15:12:57.035,eb:33:2e:f9:57:b5, 2085-97-35 239:217:15:4001,-2.03,1.891,1.75,50.842,23.438,-379.395,-78.278,-29.053,-115.714
 15:12:57.217,eb:33:2e:f9:57:b5, 2085-97-01 240:69:17:5635,-2.054,2.094,2.345,152.954,55.481,-347.412,-76.377,-32.448,-117.175
 15:12:57.217,eb:33:2e:f9:57:b5, 2085-97-203 253:150:02:10468,-0.924,2.189,3.146,209.9,34.485,-306.824,-73.619,-35.458,-118.751
 15:12:57.217,eb:33:2e:f9:57:b5, 2085-113-81 00:162:77:-12751,-0.964,1.371,5.835,-663.147,-343.811,-105.713,-56.157,-9.684,-87.753
 15:12:57.217,eb:33:2e:f9:57:b5, 2085-97-64 254:50:14:5122,0.575,3.121,4.868,-689.087,-380.859,-13.428,-59.815,-10.92,-86.287
 15:12:57.217,eb:33:2e:f9:57:b5, 2085-97-177 253:17:251:2298,-0.875,-0.647,-0.176,-534.729,-290.222,96.375,-66.918,-12.173,-82.881
 15:12:57.217,eb:33:2e:f9:57:b5, 2085-97-02 242:223:244:4297,-2.212,-1.013,1.554,-317.81,-200.256,110.596,-71.505,-11.865,-80.118
 15:12:57.217,eb:33:2e:f9:57:b5, 2085-97-82 236:62:246:5886,-2.599,-1.352,2.649,-233.765,-73.12,-41.626,-74.323,-11.909,-78.777
 15:12:57.217,eb:33:2e:f9:57:b5, 2085-97-242 234:97:255:6481,-2.626,-0.74,3.073,-246.948,45.715,-229.431,-76.602,-13.31,-79.107
 15:12:57.217,eb:33:2e:f9:57:b5, 2085-97-02 235:39:09:5569,-2.53,0.569,3.042,-218.079,92.102,-361.938,-78.613,-16.166,-80.601
 15:12:57.217,eb:33:2e:f9:57:b5, 2085-97-181 235:216:15:4387,-2.598,1.63,2.313,-101.807,92.407,-409.302,-79.629,-19.825,-82.332
 15:12:57.219,eb:33:2e:f9:57:b5, 2085-97-129 235:137:17:5047,-2.439,2.119,2.238,41.687,82.214,-403.931,-79.206,-23.676,-84.095
 15:12:57.219,eb:33:2e:f9:57:b5, 2085-97-105 238:243:19:6319,-2.041,2.312,2.793,146.24,67.2,-389.404,-77.382,-27.356,-85.77
 15:12:57.219,eb:33:2e:f9:57:b5, 2085-97-141 240:214:22:6680,-1.7,2.69,3.287,187.622,69.275,-366.272,-74.773,-30.861,-87.599
 15:12:57.424,eb:33:2e:f9:57:b5, 2085-97-127 244:206:25:5206,-1.381,3.076,2.92,209.656,78.064,-325.928,-71.647,-33.915,-89.604
 15:12:57.424,eb:33:2e:f9:57:b5, 2085-97-81 245:117:26:4921,-1.268,3.346,2.458,255.554,62.317,-245.117,-68.126,-36.337,-91.708
 15:12:57.424,eb:33:2e:f9:57:b5, 2085-97-150 246:05:24:4258,-1.11,3.17,2.273,314.514,-13.062,-137.756,-64.451,-37.892,-92.917
 15:12:57.424,eb:33:2e:f9:57:b5, 2085-97-210 247:65:19:2714,-0.932,2.731,1.782,350.891,-65.735,-48.828,-61.095,-38.875,-92.911
 15:12:57.424,eb:33:2e:f9:57:b5, 2085-97-138 249:94:14:510,-0.72,2.062,0.76,364.136,-28.259,8.423,-57.728,-39.216,-92.444
 15:12:57.424,eb:33:2e:f9:57:b5, 2085-97-100 250:174:12:-364,-0.754,1.658,-0.055,371.338,96.252,44.25,-53.943,-38.771,-92.637
 15:12:57.424,eb:33:2e:f9:57:b5, 2085-97-241 248:70:12:265,-0.936,1.549,-0.135,391.174,227.539,80.383,-49.312,-37.139,-93.878
 15:12:57.426,eb:33:2e:f9:57:b5, 2085-97-134 248:178:11:1907,-0.857,1.524,0.505,432.861,287.598,127.38,-44.297,-34.547,-95.411
 15:12:57.544,eb:33:2e:f9:57:b5, 2085-97-241 249:227:09:3183,-0.852,1.353,1.292,472.717,296.509,171.448,-39.122,-31.273,-96.422
 15:12:57.552,eb:33:2e:f9:57:b5, 2085-97-231 249:89:228:8917,-0.573,-2.796,3.999,554.871,227.6,224.67,8.179,-6.323,-81.606
 15:12:57.553,eb:33:2e:f9:57:b5, 2085-97-230 253:240:214:8752,0.099,-4.269,4.428,498.047,204.773,209.778,13.304,-4.559,-79.058
 15:12:57.553,eb:33:2e:f9:57:b5, 2085-113-58 00:213:12:-6675,0.416,-5.913,4.018,404.114,203.613,182.373,17.639,-3.142,-76.679
 15:12:57.553,eb:33:2e:f9:57:b5, 2085-97-230 04:55:199:7366,0.841,-6.555,3.774,342.834,213.562,163.208,19.506,-2.368,-75.52
 15:12:57.553,eb:33:2e:f9:57:b5, 2085-97-43 09:148:192:6752,1.46,-7.612,3.439,231.14,225.708,123.962,22.231,-0.802,-73.455
 15:12:57.553,eb:33:2e:f9:57:b5, 2085-97-197 13:144:190:7027,1.95,-8.066,3.293,143.188,217.59,91.003,24.12,0.879,-71.592
 15:12:57.553,eb:33:2e:f9:57:b5, 2085-97-219 16:156:189:7039,2.146,-8.282,3.518,41.26,176.88,54.199,25.049,2.379,-70.164
 15:12:57.553,eb:33:2e:f9:57:b5, 2085-97-213 16:79:193:5599,2.023,-8.147,3.173,-56.335,110.474,4.333,24.977,3.582,-69.296
 15:12:57.553,eb:33:2e:f9:57:b5, 2085-97-141 00:160:00:2712,0.333,-7.361,2.315,-99.243,54.871,-41.321,24.137,4.373,-69.219
 15:12:57.553,eb:33:2e:f9:57:b5, 2085-97-06 04:99:01:1881,0.165,0.243,1.021,-41.504,8.118,23.01,-3.098,4.856,-78.03
 15:12:57.554,eb:33:2e:f9:57:b5, 2085-97-60 254:58:254:2591,-0.768,0.106,1.144,-53.101,54.199,30.273,-3.56,5.257,-77.778
 15:12:57.554,eb:33:2e:f9:57:b5, 2085-97-154 252:130:01:3729,-0.135,-0.145,1.853,-56.396,46.448,29.419,-4.076,5.889,-77.47
 15:12:57.554,eb:33:2e:f9:57:b5, 2085-97-44 255:183:03:5047,-0.095,0.453,2.357,-96.924,50.72,48.889,-4.796,6.427,-77.141
 15:12:57.554,eb:33:2e:f9:57:b5, 2085-97-04 255:113:03:5767,-0.21,0.4,2.528,-164.673,53.955,52.246,-6.081,6.993,-76.646
 15:12:57.554,eb:33:2e:f9:57:b5, 2085-97-132 253:150:05:6305,-0.57,0.559,2.958,-233.826,49.377,50.72,-8.053,7.57,-76.19
 15:12:57.756,eb:33:2e:f9:57:b5, 2085-97-94 249:02:09:7076,-1.022,0.752,3.158,-307.8,42.358,28.198,-10.75,8.119,-75.833
 15:12:57.756,eb:33:2e:f9:57:b5, 2085-97-60 246:114:11:7411,-1.328,1.294,3.646,-400.818,5.066,-2.93,-14.315,8.372,-75.773
 15:12:57.756,eb:33:2e:f9:57:b5, 2085-97-192 245:65:15:7208,-1.405,1.722,3.695,-504.517,-40.771,-39.734,-18.902,8.141,-75.91
 15:12:57.756,eb:33:2e:f9:57:b5, 2085-97-134 246:118:16:8430,-0.803,1.899,4.097,-625.488,-94.788,-84.045,-24.675,7.3,-76.262
 15:12:57.786,eb:33:2e:f9:57:b5, 2085-97-245 249:222:10:9640,-0.29,1.648,4.153,-702.637,-152.222,-93.079,-31.421,5.773,-76.404
 15:12:57.786,eb:33:2e:f9:57:b5, 2085-97-151 253:248:02:10473,-0.377,0.908,4.829,-714.417,-238.281,-89.722,-38.573,3.593,-76.069
 15:12:57.786,eb:33:2e:f9:57:b5, 2085-97-106 250:77:03:11640,-0.513,0.147,5.391,-648.987,-335.51,-66.772,-45.302,0.961,-74.751
 15:12:57.786,eb:33:2e:f9:57:b5, 2085-97-00 246:65:246:9883,-2.235,-0.179,4.995,-625.916,-499.756,13.733,-51.658,-2.159,-71.631
 15:12:57.786,eb:33:2e:f9:57:b5, 2085-113-81 00:54:91:-13891,-2.107,-0.652,4.004,-655.945,-416.565,-37.415,-58.31,-4.845,-67.885
 15:12:57.789,eb:33:2e:f9:57:b5, 2085-97-183 251:51:234:-003,-1.208,-1.816,2.233,-610.107,-323.486,-103.699,-61.622,-6.075,-66.5
 15:12:57.789,eb:33:2e:f9:57:b5, 2085-97-236 241:203:239:6257,-2.409,-2.119,1.8,-342.224,-112.488,-78.857,-66.308,-7.63,-65.253
 15:12:57.789,eb:33:2e:f9:57:b5, 2085-97-163 232:128:248:10694,-3.046,-1.625,4.332,-236.877,-28.564,-162.598,-68.989,-8.932,-65.176
 15:12:57.789,eb:33:2e:f9:57:b5, 2085-97-103 232:197:00:9369,-2.838,-0.458,5.103,-259.46,-25.696,-279.602,-71.362,-11.157,-65.709
 15:12:57.789,eb:33:2e:f9:57:b5, 2085-97-92 233:45:09:7093,-2.819,0.693,3.979,-261.414,25.085,-377.869,-73.746,-14.337,-66.714
 15:12:57.789,eb:33:2e:f9:57:b5, 2085-97-202 232:129:14:6018,-2.978,1.512,3.064,-181.458,86.243,-433.228,-75.509,-18.166,-68.489
 15:12:57.789,eb:33:2e:f9:57:b5, 2085-97-07 232:13:18:6599,-2.947,2.06,3.028,-51.086,95.093,-442.81,-75.817,-22.154,-70.637
 15:12:57.789,eb:33:2e:f9:57:b5, 2085-97-47 233:237:20:7061,-2.715,2.445,3.412,45.471,57.495,-436.462,-74.921,-26.219,-72.691
 15:12:57.815,eb:33:2e:f9:57:b5, 2085-97-131 234:255:21:6235,-2.065,2.709,3.262,87.769,17.7,-427.185,-73.334,-30.223,-74.399
 15:12:57.815,eb:33:2e:f9:57:b5, 2085-97-143 239:186:254:4436,-1.975,0.189,2.488,560.303,327.148,337.158,-18.622,-19.869,-81.931
 15:12:57.815,eb:33:2e:f9:57:b5, 2085-97-31 240:227:249:4273,-1.736,-0.491,1.92,566.528,329.956,289.612,-13.579,-15.804,-79.728
 15:12:57.815,eb:33:2e:f9:57:b5, 2085-97-169 244:63:246:4669,-1.113,-0.999,2.179,575.806,315.063,237.549,-8.333,-12.134,-77.772
 15:12:57.846,eb:33:2e:f9:57:b5, 2085-97-217 249:121:242:5329,-0.393,-1.453,2.483,583.008,280.273,204.102,-2.791,-8.882,-75.866
 15:12:57.846,eb:33:2e:f9:57:b5, 2085-97-92 254:101:238:5808,0.022,-1.923,2.633,588.928,251.16,193.054,2.812,-6.268,-73.932
 15:12:57.846,eb:33:2e:f9:57:b5, 2085-97-89 01:241:231:6257,0.233,-2.546,2.925,587.646,241.394,197.937,8.602,-3.977,-71.73
 15:12:57.846,eb:33:2e:f9:57:b5, 2085-97-128 02:49:222:7854,0.565,-3.538,3.398,555.298,263.062,205.627,14.211,-1.901,-69.296
 15:12:57.995,eb:33:2e:f9:57:b5, 2085-97-180 06:225:210:9106,1.13,-4.923,4.159,463.257,297.974,199.524,19.369,0.231,-66.506
 15:12:57.995,eb:33:2e:f9:57:b5, 2085-97-193 11:45:201:9602,1.64,-6.32,4.615,298.218,353.088,174.438,23.209,2.615,-63.611
 15:12:57.995,eb:33:2e:f9:57:b5, 2085-97-140 13:242:195:10857,1.758,-7.248,5.016,129.456,354.614,154.48,25.527,5.323,-60.584
 15:12:57.995,eb:33:2e:f9:57:b5, 2085-97-64 15:95:193:10342,2.034,-7.703,5.356,32.227,237.793,139.709,26.559,7.322,-57.975
 15:12:57.997,eb:33:2e:f9:57:b5, 2085-97-02 17:240:193:8228,2.126,-7.882,4.539,-37.17,145.935,89.172,26.774,8.47,-56.085
 15:12:57.997,eb:33:2e:f9:57:b5, 2085-97-214 16:182:202:6894,2.101,-7.345,3.651,-76.599,87.708,21.729,26.334,9.267,-55.135
 15:12:57.997,eb:33:2e:f9:57:b5, 2085-97-160 16:08:218:4998,2.066,-5.763,2.978,-121.216,10.376,-30.884,25.367,9.756,-54.992
 15:12:57.997,eb:33:2e:f9:57:b5, 2085-97-224 15:77:232:2663,0.884,-3.826,1.824,-144.287,-28.625,-35.461,23.923,9.75,-55.453
 15:12:57.997,eb:33:2e:f9:57:b5, 2085-97-55 24:10:219:-3543,0.366,-0.299,4.735,-467.529,317.505,180.664,21.989,10.239,-54.976
 15:12:57.997,eb:33:2e:f9:57:b5, 2085-97-141 07:12:231:14414,-6.641,-2.128,-0.604,-886.536,96.68,-451.111,12.601,10.992,-59.886
 15:12:57.997,eb:33:2e:f9:57:b5, 2085-97-37 190:160:184:13783,-2.763,-2.78,9.917,-501.404,57.861,-33.752,4.85,12.947,-62.545
 15:12:57.997,eb:33:2e:f9:57:b5, 2085-97-24 225:57:25:7353,-3.077,-2.113,3.899,-35.034,-254.517,-28.687,3.186,11.371,-63.193
 15:12:58.054,eb:33:2e:f9:57:b5, 2085-97-133 00:28:247:1589,4.941,1.106,2.297,-163.269,-491.272,-6.531,1.818,7.504,-63.528
 15:12:58.054,eb:33:2e:f9:57:b5, 2085-97-16 34:167:246:-6425,2.988,0.04,-3.333,-89.111,-269.348,85.388,0.511,2.823,-63.66
 15:12:58.054,eb:33:2e:f9:57:b5, 2085-97-76 00:62:251:608,-1.083,0.211,-2.021,-76.66,86.487,33.63,-0.247,2.214,-63.27
 15:12:58.054,eb:33:2e:f9:57:b5, 2085-97-182 249:227:253:3085,-0.937,-0.938,1.423,-38.879,36.072,2.563,-0.829,3.027,-63.155
 15:12:58.058,eb:33:2e:f9:57:b5, 2085-97-03 250:220:254:3317,0.119,-0.086,1.709,-30.457,-25.879,14.404,-1.143,3.065,-63.029
 15:12:58.058,eb:33:2e:f9:57:b5, 2085-97-181 00:92:255:2014,0.358,-0.095,1.173,-28.015,-30.029,20.386,-1.45,2.67,-62.941
 15:12:58.058,eb:33:2e:f9:57:b5, 2085-97-57 255:110:255:2877,-0.251,0.111,0.751,-30.396,7.446,17.822,-1.725,2.56,-62.732
 15:12:58.058,eb:33:2e:f9:57:b5, 2085-97-169 251:235:00:3878,-0.133,-0.091,1.503,-39.551,15.503,18.555,-2.071,2.67,-62.617
 15:12:58.084,eb:33:2e:f9:57:b5, 2085-97-119 00:164:01:3629,-0.218,0.254,1.654,-59.937,31.128,32.654,-2.565,2.862,-62.369
 15:12:58.084,eb:33:2e:f9:57:b5, 2085-97-192 254:118:02:5480,-0.072,0.18,2.211,-111.572,53.772,46.875,-3.406,3.4,-62.018
 15:12:58.084,eb:33:2e:f9:57:b5, 2085-97-235 255:101:04:5980,-0.034,0.421,2.897,-179.199,29.419,47.607,-4.878,3.829,-61.556
 15:12:58.084,eb:33:2e:f9:57:b5, 2085-97-222 254:164:09:7796,-0.238,0.817,3.497,-259.583,37.842,27.893,-7.075,4.274,-61.276
 15:12:58.145,eb:33:2e:f9:57:b5, 2085-97-76 252:50:10:7113,-0.787,1.254,3.586,-349.365,22.034,22.888,-10.157,4.587,-61.013
 15:12:58.145,eb:33:2e:f9:57:b5, 2085-113-81 00:164:109:-2772,-0.938,1.49,3.755,-451.111,16.541,-10.498,-14.2,4.828,-61.073
 15:12:58.145,eb:33:2e:f9:57:b5, 2085-97-119 247:151:15:7574,-1.456,1.762,3.767,-503.906,-1.282,-26.611,-16.622,4.867,-61.161
 15:12:58.145,eb:33:2e:f9:57:b5, 2085-97-14 242:212:14:9291,-1.89,2.06,3.961,-621.155,-35.767,-68.237,-22.335,4.537,-61.617
 15:12:58.205,eb:33:2e:f9:57:b5, 2085-97-240 240:110:09:10482,-1.742,1.742,5.118,-733.398,-137.634,-109.314,-29.185,3.411,-62.051
 15:12:58.205,eb:33:2e:f9:57:b5, 2085-97-152 247:217:248:10753,-1.114,0.357,5.362,-792.358,-189.392,-157.959,-36.887,1.269,-62.309
 15:12:58.205,eb:33:2e:f9:57:b5, 2085-97-143 247:249:233:10428,-1.197,-2.185,5.19,-703.552,-235.901,-174.377,-44.478,-1.302,-62.177
 15:12:58.205,eb:33:2e:f9:57:b5, 2085-97-47 237:36:239:11259,-2.442,-2.84,4.853,-624.878,-359.314,-158.875,-51.004,-4.559,-61.018
 15:12:58.207,eb:33:2e:f9:57:b5, 2085-97-246 251:81:232:687,-0.583,-1.491,4.097,-598.938,-362,-182.312,-57.376,-8.168,-58.914
 15:12:58.207,eb:33:2e:f9:57:b5, 2085-97-68 246:75:239:8954,-1.609,-2.31,2.208,-377.319,-124.146,-148.499,-62.216,-10.761,-57.854
 15:12:58.207,eb:33:2e:f9:57:b5, 2085-97-86 241:112:244:15107,-1.826,-2.263,5.972,-385.559,-18.433,-215.576,-65.814,-12.552,-58.107
 15:12:58.207,eb:33:2e:f9:57:b5, 2085-97-91 242:239:00:14252,-1.573,-0.649,7.431,-478.76,-78.186,-293.64,-70.098,-15.172,-58.733
 15:12:58.265,eb:33:2e:f9:57:b5, 2085-97-232 242:211:11:11236,-1.936,0.874,6.233,-449.402,-139.465,-289.978,-74.85,-18.303,-58.491
 15:12:58.265,eb:33:2e:f9:57:b5, 2085-97-110 237:187:14:9518,-2.726,1.785,4.938,-342.896,-148.071,-261.353,-79.074,-21.292,-57.656
 15:12:58.265,eb:33:2e:f9:57:b5, 2085-97-01 233:13:15:8309,-2.866,1.835,4.409,-251.282,-123.535,-280.884,-82.299,-24.093,-56.646
 15:12:58.265,eb:33:2e:f9:57:b5, 2085-97-236 233:98:17:6861,-2.639,2,3.647,-209.045,-70.679,-326.294,-84.858,-27.246,-55.981
 15:12:58.326,eb:33:2e:f9:57:b5, 2085-97-251 235:170:19:6292,-2.396,2.314,3.216,-165.833,-8.606,-356.079,-86.699,-30.657,-55.876
 15:12:58.326,eb:33:2e:f9:57:b5, 2085-97-80 238:157:23:6121,-1.927,2.635,2.948,-86.487,17.639,-349.854,-87.792,-34.206,-56.201
 15:12:58.326,eb:33:2e:f9:57:b5, 2085-97-36 242:141:30:6310,-1.553,3.387,3.11,-7.08,26.55,-311.829,-87.83,-37.452,-56.673
 15:12:58.326,eb:33:2e:f9:57:b5, 2085-97-81 244:227:34:4105,-1.312,4.144,2.635,62.073,-18.86,-238.953,-87.402,-40.204,-56.92
 15:12:58.326,eb:33:2e:f9:57:b5, 2085-97-230 245:17:35:1599,-1.103,4.455,1.304,140.869,-60.059,-131.775,-86.561,-41.99,-56.448
 15:12:58.326,eb:33:2e:f9:57:b5, 2085-97-87 247:113:32:-958,-1.07,4.3,0.173,210.388,-40.649,-36.499,-85.221,-42.814,-55.805
 15:12:58.326,eb:33:2e:f9:57:b5, 2085-97-105 247:70:28:-3380,-1.175,3.761,-1.165,288.452,38.391,43.945,-82.623,-42.682,-55.789
 15:12:58.326,eb:33:2e:f9:57:b5, 2085-97-98 245:149:24:-3268,-1.471,3.342,-1.742,361.206,166.199,107.483,-78.475,-41.699,-57.074
 15:12:58.415,eb:33:2e:f9:57:b5, 2085-97-11 243:109:21:-2194,-1.78,2.814,-1.376,417.297,288.452,143.188,-72.773,-39.82,-59.678
 15:12:58.415,eb:33:2e:f9:57:b5, 2085-97-183 241:117:21:-624,-1.697,2.668,-0.655,479.919,367.432,167.297,-66.193,-37.172,-63.045
 15:12:58.415,eb:33:2e:f9:57:b5, 2085-97-190 243:234:21:906,-1.362,2.701,0.056,546.387,404.419,197.327,-59.073,-33.706,-66.264
 15:12:58.416,eb:33:2e:f9:57:b5, 2085-97-42 246:55:23:2919,-1.174,2.803,0.892,597.412,437.5,230.713,-51.921,-29.542,-68.95
 15:12:58.416,eb:33:2e:f9:57:b5, 2085-97-16 246:211:23:5795,-1.373,3.006,2.067,641.357,451.965,273.987,-44.764,-24.609,-70.829
 15:12:58.416,eb:33:2e:f9:57:b5, 2085-97-49 244:135:16:8513,-1.565,2.544,3.604,688.171,404.907,324.402,-37.853,-19.369,-71.472
 15:12:58.416,eb:33:2e:f9:57:b5, 2085-97-236 241:30:11:9038,-2.116,1.683,4.322,729.736,341.736,324.829,-30.839,-14.42,-70.812
 15:12:58.416,eb:33:2e:f9:57:b5, 2085-97-62 238:17:04:8561,-2.224,1.035,4.52,763.245,246.582,295.715,-23.637,-10.382,-69.401
 15:12:58.445,eb:33:2e:f9:57:b5, 2085-97-93 239:00:252:6397,-1.767,-0.167,3.597,775.574,199.829,205.75,-16.078,-7.454,-67.703
 15:12:58.445,eb:33:2e:f9:57:b5, 2085-97-06 245:169:249:5581,-1.04,-0.69,2.749,763.428,252.319,110.107,-8.487,-4.938,-66.731
 15:12:58.445,eb:33:2e:f9:57:b5, 2085-97-222 250:118:246:7297,-0.279,-0.94,3.104,740.295,306.763,63.599,-0.912,-1.934,-66.143
 15:12:58.445,eb:33:2e:f9:57:b5, 2085-97-157 255:250:237:9131,0.167,-1.596,4.053,704.224,293.03,77.026,6.306,1.066,-65.369
 15:12:58.504,eb:33:2e:f9:57:b5, 2085-97-222 02:230:220:10205,0.598,-3.195,4.661,638.611,272.705,106.14,13.167,3.702,-63.94
 15:12:58.504,eb:33:2e:f9:57:b5, 2085-97-117 08:94:201:11727,1.69,-5.573,5.51,516.724,303.406,91.37,19.111,6.169,-62.177
 15:12:58.504,eb:33:2e:f9:57:b5, 2085-97-119 18:206:187:12224,2.861,-7.882,5.632,371.826,388.672,28.87,23.769,9.229,-60.304
 15:12:58.504,eb:33:2e:f9:57:b5, 2085-97-65 26:05:184:15804,3.708,-8.852,6.81,254.944,435.486,-5.432,27.241,13.085,-58.387
 15:12:58.624,eb:33:2e:f9:57:b5, 2085-97-254 32:228:182:15929,4.281,-9.087,8.085,96.008,270.935,-11.353,29.421,16.342,-56.678
 15:12:58.624,eb:33:2e:f9:57:b5, 2085-97-197 32:65:185:12015,3.707,-9.048,6.969,-15.198,63.904,4.028,29.899,17.699,-55.975
 15:12:58.624,eb:33:2e:f9:57:b5, 2085-97-66 26:199:194:7906,2.876,-8.418,4.833,-70.19,-65.43,24.719,29.509,17.518,-55.86
 15:12:58.624,eb:33:2e:f9:57:b5, 2085-97-11 20:49:211:4047,2.051,-6.662,2.876,-172.852,-115.784,33.569,28.196,16.512,-56.146
 15:12:58.654,eb:33:2e:f9:57:b5, 2085-97-156 12:197:227:1677,1.37,-4.551,1.28,-236.572,-97.9,71.96,26.038,15.326,-56.173
 15:12:58.654,eb:33:2e:f9:57:b5, 2085-97-177 08:90:243:543,-6.256,-2.508,0.441,-274.597,-39.246,128.723,23.659,14.26,-55.552
 15:12:58.654,eb:33:2e:f9:57:b5, 2085-97-68 242:50:25:-7069,0.011,-0.999,7.8,-669.312,-64.575,-155.457,20.27,14.376,-53.745
 15:12:58.654,eb:33:2e:f9:57:b5, 2085-97-169 215:27:237:26148,-6.584,-3.437,5.62,-887.756,-293.884,-358.765,10.525,12.623,-58.409
 15:12:58.656,eb:33:2e:f9:57:b5, 2085-97-13 247:131:212:6597,-0.22,-8.102,8.261,-270.508,-487.488,-45.227,3.801,8.58,-60.617
 15:12:58.656,eb:33:2e:f9:57:b5, 2085-97-34 253:173:11:1466,2.821,1.842,1.68,-76.05,-388.916,53.406,2.922,4.164,-61.386
 15:12:58.656,eb:33:2e:f9:57:b5, 2085-97-159 36:163:255:-6965,2.525,-1.197,-1.867,-103.394,-280.701,12.085,1.752,0.648,-61.133
 15:12:58.656,eb:33:2e:f9:57:b5, 2085-97-85 02:248:251:783,-0.74,-0.472,-1.857,-71.899,9.521,28.32,0.928,-0.258,-60.82
 15:12:58.658,eb:33:2e:f9:57:b5, 2085-97-199 249:193:254:4443,-1.085,-0.239,1.907,-43.823,0.488,27.039,0.379,-0.137,-60.518
 15:12:58.658,eb:33:2e:f9:57:b5, 2085-97-35 251:229:253:3602,1.28,-0.034,2.324,-46.387,-56.641,26.917,-0.049,-0.439,-60.293
 15:12:58.658,eb:33:2e:f9:57:b5, 2085-97-174 06:142:01:1154,0.85,0.035,0.216,-40.039,-18.311,26.794,-0.527,-1.077,-60.101
 15:12:58.658,eb:33:2e:f9:57:b5, 2085-97-211 255:190:255:2864,0.008,-0.007,0.624,-44.861,80.872,37.72,-0.983,-0.72,-59.875
 15:12:58.684,eb:33:2e:f9:57:b5, 2085-97-212 252:189:01:4066,-0.338,0.127,1.568,-56.274,131.042,42.908,-1.511,0.363,-59.491
 15:12:58.684,eb:33:2e:f9:57:b5, 2085-97-154 253:206:05:7017,-0.068,0.052,2.051,-93.445,173.218,40.588,-2.247,1.912,-59.161
 15:12:58.684,eb:33:2e:f9:57:b5, 2085-97-68 255:170:07:7784,0.011,0.703,3.555,-192.932,135.071,64.697,-3.686,3.417,-58.678
 15:12:58.684,eb:33:2e:f9:57:b5, 2085-97-20 252:00:10:8359,-0.95,1.088,3.601,-293.274,87.219,71.533,-6.125,4.537,-58.107
 15:12:58.777,eb:33:2e:f9:57:b5, 2085-97-219 245:25:09:8337,-1.467,1.35,4.151,-404.053,31.799,51.392,-9.63,5.147,-57.574
 15:12:58.777,eb:33:2e:f9:57:b5, 2085-97-136 243:102:09:7224,-1.729,1.311,3.732,-506.104,-0.366,-12.939,-14.227,5.295,-57.497
 15:12:58.777,eb:33:2e:f9:57:b5, 2085-97-165 241:33:11:8923,-1.723,1.354,3.486,-617.188,18.25,-86.853,-19.946,5.175,-58.024
 15:12:58.777,eb:33:2e:f9:57:b5, 2085-97-91 244:202:04:10470,-0.981,1.135,5.124,-742.31,32.471,-158.447,-26.927,4.9,-59.337
 15:12:58.777,eb:33:2e:f9:57:b5, 2085-97-12 01:165:244:11735,0.71,0.31,4.693,-779.541,90.149,-209.717,-34.816,4.444,-61.293
 15:12:58.777,eb:33:2e:f9:57:b5, 2085-97-176 06:202:243:15368,0.609,-1.914,6.59,-733.276,-57.007,-229.065,-42.567,3.307,-63.424
 15:12:58.777,eb:33:2e:f9:57:b5, 2085-97-119 04:47:09:10991,1.07,-0.047,7.494,-715.82,-463.989,-59.448,-49.686,0.313,-62.463
 15:12:58.778,eb:33:2e:f9:57:b5, 2085-97-163 255:37:240:5708,-0.823,-2.481,0.801,-573.364,-297.363,132.385,-56.629,-1.714,-58.618
 15:12:58.927,eb:33:2e:f9:57:b5, 2085-97-176 242:144:235:10848,-1.905,-2.007,3.686,-421.021,-131.897,168.823,-61.353,-1.335,-55.948
 15:12:58.927,eb:33:2e:f9:57:b5, 2085-97-160 242:57:239:12060,-1.372,-2.309,6.205,-494.629,13.611,31.128,-65.847,-0.676,-55.157
 15:12:58.928,eb:33:2e:f9:57:b5, 2085-97-119 245:245:245:12647,-1.551,-1.715,5.74,-546.509,127.38,-89.966,-71.147,-0.747,-56.041
 15:12:58.928,eb:33:2e:f9:57:b5, 2085-97-90 241:142:255:15150,-1.919,-0.591,6.979,-505.798,108.643,-156.799,-76.399,-1.642,-57.7
 15:12:58.928,eb:33:2e:f9:57:b5, 2085-97-01 239:167:06:13716,-2.351,0.556,7.153,-441.345,-6.592,-188.477,-81.035,-3.263,-58.464
 15:12:58.928,eb:33:2e:f9:57:b5, 2085-97-181 235:07:09:10981,-2.622,0.99,6.104,-389.099,-56.274,-225.464,-85.161,-5.356,-58.321
 15:12:58.928,eb:33:2e:f9:57:b5, 2085-97-49 234:85:12:8986,-2.759,1.29,4.696,-340.698,0.793,-290.283,-88.753,-7.932,-58.118
 15:12:58.928,eb:33:2e:f9:57:b5, 2085-97-220 234:39:18:8963,-2.463,1.885,4.351,-277.222,66.956,-353.943,-91.758,-11.212,-58.557
 15:12:58.937,eb:33:2e:f9:57:b5, 2085-97-238 237:115:23:9018,-2.039,2.625,4.451,-208.984,65.125,-382.751,-93.955,-14.93,-59.09
 15:12:58.937,eb:33:2e:f9:57:b5, 2085-97-81 241:163:28:7704,-1.678,3.254,4.163,-151.855,7.202,-376.404,-95.718,-18.776,-59.156
 15:12:58.937,eb:33:2e:f9:57:b5, 2085-97-136 245:86:35:5544,-0.933,3.945,3.305,-92.957,-54.626,-328.308,-97.092,-22.203,-58.42
 15:12:58.937,eb:33:2e:f9:57:b5, 2085-97-178 250:238:44:1572,-0.59,5.022,1.916,-32.104,-43.64,-266.846,-98.102,-25.06,-57.437
 15:12:58.986,eb:33:2e:f9:57:b5, 2085-97-06 252:22:48:-2009,-0.597,5.912,-0.34,82.397,-2.747,-149.536,-98.02,-27.059,-56.887
 15:12:58.986,eb:33:2e:f9:57:b5, 2085-97-43 249:246:45:-2441,-1.062,5.942,-1.107,239.441,19.226,-13.794,-96.295,-27.779,-56.97
 15:12:58.986,eb:33:2e:f9:57:b5, 2085-97-174 247:171:39:-3462,-1.013,5.359,-1.372,366.15,26.184,75.562,-92.972,-27.367,-57.233
 15:12:58.986,eb:33:2e:f9:57:b5, 2085-97-76 247:27:37:-4810,-1.167,4.748,-2.082,448.608,114.258,112.244,-88.473,-26.389,-58.041
 15:12:58.986,eb:33:2e:f9:57:b5, 2085-97-93 246:202:36:-3951,-1.28,4.584,-2.302,514.099,252.136,133.728,-82.7,-24.961,-60.024
 15:12:58.986,eb:33:2e:f9:57:b5, 2085-97-86 245:09:35:-760,-1.273,4.344,-1.188,590.942,356.934,158.691,-75.894,-22.956,-63.177
 15:12:58.986,eb:33:2e:f9:57:b5, 2085-97-19 244:78:35:2891,-1.722,4.515,0.369,700.745,403.32,209.29,-68.049,-19.885,-66.572
 15:12:58.986,eb:33:2e:f9:57:b5, 2085-97-121 241:40:30:7060,-1.838,4.129,2.516,773.804,373.84,233.643,-59.782,-16.133,-69.252
 15:12:59.044,eb:33:2e:f9:57:b5, 2085-97-42 241:17:26:9183,-1.931,3.484,4.115,813.171,325.989,204.407,-51.328,-12.31,-70.928
 15:12:59.044,eb:33:2e:f9:57:b5, 2085-97-34 239:174:21:10971,-2.191,3.109,4.813,868.713,267.761,172.668,-42.742,-8.954,-71.895
 15:12:59.044,eb:33:2e:f9:57:b5, 2085-97-243 238:32:12:11189,-2.352,1.944,5.757,900.94,187.195,109.07,-33.701,-6.246,-72.114
 15:12:59.044,eb:33:2e:f9:57:b5, 2085-97-04 236:130:08:10168,-2.551,1.237,5.166,896.667,165.71,-6.836,-24.686,-4.471,-72.636
 15:12:59.104,eb:33:2e:f9:57:b5, 2085-97-86 238:80:05:8563,-1.595,0.855,4.656,924.377,135.376,-100.891,-15.43,-3.224,-73.713
 15:12:59.104,eb:33:2e:f9:57:b5, 2085-97-102 250:24:05:7110,0.139,0.589,3.78,931.396,174.377,-149.231,-6.015,-2.01,-75.328
 15:12:59.104,eb:33:2e:f9:57:b5, 2085-97-24 05:107:01:8798,0.863,0.586,3.593,856.506,311.829,-95.398,3.054,0.483,-76.657
 15:12:59.105,eb:33:2e:f9:57:b5, 2085-97-138 08:75:242:12158,1.392,-0.671,5.278,718.384,395.203,54.626,10.942,4.12,-76.388
 15:12:59.107,eb:33:2e:f9:57:b5, 2085-97-233 12:02:217:12557,1.709,-3.057,6.083,515.564,446.655,187.439,17.38,7.888,-74.037
 15:12:59.107,eb:33:2e:f9:57:b5, 2085-97-12 16:59:194:15326,2.26,-6.389,6.619,381.226,555.054,252.38,22.412,11.887,-70.137
 15:12:59.107,eb:33:2e:f9:57:b5, 2085-97-229 20:169:173:19220,2.752,-9.114,8.729,236.755,566.65,248.047,26.785,16.062,-65.182
 15:12:59.107,eb:33:2e:f9:57:b5, 2085-97-118 22:58:162:18919,2.917,-11.142,9.483,66.528,430.847,172.363,29.509,19.517,-60.815
 15:12:59.165,eb:33:2e:f9:57:b5, 2085-97-61 24:61:162:15671,3.152,-11.905,8.547,-0.488,168.823,105.347,30.756,21.363,-58.002
 15:12:59.165,eb:33:2e:f9:57:b5, 2085-97-230 25:57:175:9905,3.097,-11.124,6.378,-72.632,-55.359,39.673,30.723,21.33,-57.2
 15:12:59.165,eb:33:2e:f9:57:b5, 2085-97-154 21:128:197:5753,-5.577,-8.762,3.596,-175.354,-136.597,20.203,29.29,20.275,-57.568
 15:12:59.165,eb:33:2e:f9:57:b5, 2085-113-58 00:194:01:-5040,-1.73,-10.849,10.271,-771.667,-417.358,-612.854,25.214,19.561,-58.304
 15:12:59.165,eb:33:2e:f9:57:b5, 2085-97-65 253:66:227:17418,-5.491,-0.972,-2.612,-906.311,-337.158,-348.572,19.633,18.918,-61.688
 15:12:59.375,eb:33:2e:f9:57:b5, 2085-97-176 215:18:199:15160,-1.606,-1.229,13.329,-633.606,-644.775,-121.521,10.162,14.42,-66.61
 15:12:59.375,eb:33:2e:f9:57:b5, 2085-97-140 11:46:13:-510,1.513,-3.564,2.974,-73.486,-606.14,-45.349,7.564,8.509,-67.753
 15:12:59.375,eb:33:2e:f9:57:b5, 2085-97-232 25:150:249:-4443,3.562,1.594,-0.6,-195.129,-371.155,-22.888,6.053,4.054,-68.318
 15:12:59.375,eb:33:2e:f9:57:b5, 2085-97-234 25:21:00:-4931,1.131,-1.912,-2.895,-77.393,-108.582,40.588,4.653,1.967,-68.055
 15:12:59.377,eb:33:2e:f9:57:b5, 2085-97-91 238:218:250:5843,-0.627,-0.281,-0.266,-49.561,74.585,75.806,3.961,1.873,-67.643
 15:12:59.378,eb:33:2e:f9:57:b5, 2085-97-249 02:157:255:2152,0.031,-0.257,1.709,-42.969,-74.707,4.395,3.527,1.511,-67.527
 15:12:59.378,eb:33:2e:f9:57:b5, 2085-97-183 07:108:00:887,0.79,0.132,1.393,-52.185,-38.147,-6.042,3.021,1.049,-67.527
 15:12:59.378,eb:33:2e:f9:57:b5, 2085-97-109 01:166:254:2078,-0.272,0.23,0.646,-53.162,65.491,21.179,2.538,1.198,-67.456
 15:12:59.378,eb:33:2e:f9:57:b5, 2085-97-146 252:190:254:3467,-0.497,-0.085,1.369,-49.683,96.191,34.241,2,2.054,-67.143
 15:12:59.378,eb:33:2e:f9:57:b5, 2085-97-251 00:22:01:3436,0.681,0.088,1.756,-65.735,106.201,41.016,1.472,3.038,-66.775
 15:12:59.378,eb:33:2e:f9:57:b5, 2085-97-77 06:244:06:5520,0.724,0.902,2.778,-124.207,149.292,67.322,0.533,4.411,-66.275
 15:12:59.379,eb:33:2e:f9:57:b5, 2085-97-87 02:07:07:6582,-0.172,0.848,2.683,-207.825,184.082,101.013,-1.082,6.092,-65.44
 15:12:59.380,eb:33:2e:f9:57:b5, 2085-97-250 251:109:08:7400,-0.784,1.042,3.504,-289.49,139.16,99.426,-3.543,7.74,-64.523
 15:12:59.380,eb:33:2e:f9:57:b5, 2085-97-56 247:82:10:8109,-1.292,1.109,3.774,-380.493,91.736,64.636,-6.823,8.921,-63.836
 15:12:59.380,eb:33:2e:f9:57:b5, 2085-97-109 243:44:12:7232,-1.709,1.423,3.813,-477.539,34.485,23.438,-11.118,9.602,-63.49
 15:12:59.380,eb:33:2e:f9:57:b5, 2085-97-133 241:189:09:7034,-1.808,1.254,3.422,-577.026,0.549,-38.635,-16.469,9.717,-63.644
 15:12:59.434,eb:33:2e:f9:57:b5, 2085-97-84 246:187:05:7609,-1.718,1.192,3.553,-671.448,-16.235,-102.234,-22.917,9.344,-64.325
 15:12:59.434,eb:33:2e:f9:57:b5, 2085-97-112 241:252:00:14919,-1.833,-0.351,7.319,-477.173,39.612,-211.548,-77.585,1.945,-61.875
 15:12:59.434,eb:33:2e:f9:57:b5, 2085-97-184 240:215:04:12813,-2.076,0.391,6.799,-461.304,-6.775,-270.081,-82.244,-0.417,-62.336
 15:12:59.434,eb:33:2e:f9:57:b5, 2085-97-180 237:64:09:11300,-2.384,0.865,5.818,-420.898,15.808,-327.209,-86.66,-3.433,-62.71
 15:12:59.464,eb:33:2e:f9:57:b5, 2085-97-114 236:221:12:10605,-2.489,1.404,5.271,-353.394,28.87,-369.812,-90.428,-6.921,-63.034
 15:12:59.464,eb:33:2e:f9:57:b5, 2085-97-11 236:25:17:10464,-2.447,1.849,5.167,-290.955,27.344,-404.724,-93.587,-10.827,-63.221
 15:12:59.464,eb:33:2e:f9:57:b5, 2085-97-227 236:193:21:9756,-2.25,2.433,4.947,-239.685,12.756,-424.805,-96.185,-14.985,-63.062
 15:12:59.464,eb:33:2e:f9:57:b5, 2085-97-39 239:17:25:8412,-2.018,2.965,4.482,-191.406,-20.081,-414.185,-98.498,-19.166,-62.49
 15:12:59.494,eb:33:2e:f9:57:b5, 2085-97-239 239:202:27:6510,-2.054,3.283,3.622,-129.15,-65.308,-371.948,-100.426,-22.939,-61.331
 15:12:59.494,eb:33:2e:f9:57:b5, 2085-97-146 241:153:31:4583,-1.374,3.656,2.806,-62.439,-87.769,-309.753,-102.008,-26.098,-59.777
 15:12:59.494,eb:33:2e:f9:57:b5, 2085-97-136 245:232:40:1080,-1.305,4.582,1.281,12.024,-33.325,-247.742,-102.821,-28.652,-58.392
 15:12:59.494,eb:33:2e:f9:57:b5, 2085-97-142 246:147:45:-1551,-1.175,5.401,-0.178,132.019,-3.357,-146.667,-102.404,-30.536,-57.788
 15:12:59.555,eb:33:2e:f9:57:b5, 2085-97-171 246:24:47:-3179,-1.141,5.962,-1.087,264.404,3.906,-30.273,-100.322,-31.328,-57.651
 15:12:59.555,eb:33:2e:f9:57:b5, 2085-97-207 246:99:42:-5072,-1.172,5.569,-2.121,378.845,49.5,73.12,-96.894,-31.08,-57.975
 15:12:59.555,eb:33:2e:f9:57:b5, 2085-97-161 245:29:40:-5306,-1.683,5.13,-2.656,475.22,174.927,158.936,-91.747,-29.927,-59.409
 15:12:59.555,eb:33:2e:f9:57:b5, 2085-97-37 244:11:38:-3550,-1.736,4.808,-2.081,534.79,320.068,204.285,-85.248,-27.916,-62.353
 15:12:59.586,eb:33:2e:f9:57:b5, 2085-97-165 241:145:33:209,-1.905,4.435,-0.85,604.614,455.2,273.865,-77.684,-24.802,-66.434
 15:12:59.586,eb:33:2e:f9:57:b5, 2085-97-250 239:146:31:4769,-1.995,4.038,1.149,715.027,488.647,306.946,-69.467,-20.654,-70.571
 15:12:59.586,eb:33:2e:f9:57:b5, 2085-97-52 240:100:30:9011,-2.053,3.875,3.411,815.063,444.763,325.745,-60.699,-15.765,-73.641
 15:12:59.586,eb:33:2e:f9:57:b5, 2085-113-58 00:252:244:-2160,-2.125,3.643,5.297,872.314,363.037,324.829,-51.823,-10.838,-75.273
 15:12:59.616,eb:33:2e:f9:57:b5, 2085-97-93 234:251:12:13896,-2.365,3.014,6.024,889.282,312.622,322.51,-47.291,-8.487,-75.498
 15:12:59.616,eb:33:2e:f9:57:b5, 2085-97-169 235:214:03:12888,-2.398,0.942,6.532,895.02,224.121,215.82,-38.342,-4.818,-75.289
 15:12:59.616,eb:33:2e:f9:57:b5, 2085-97-49 236:214:01:11152,-2.295,0.321,5.712,874.817,192.627,73.364,-29.427,-2.324,-75.328
 15:12:59.616,eb:33:2e:f9:57:b5, 2085-97-12 239:24:02:10339,-1.776,0.272,5.208,874.268,147.827,-39.001,-20.671,-0.742,-76.02
 15:12:59.676,eb:33:2e:f9:57:b5, 2085-97-163 244:78:01:8741,-1.015,0.225,4.665,872.986,119.812,-127.686,-11.832,0.286,-77.25
 15:12:59.676,eb:33:2e:f9:57:b5, 2085-97-195 251:179:255:8355,0.052,0.064,4.051,861.328,158.325,-170.654,-3.181,1.439,-79.008
 15:12:59.676,eb:33:2e:f9:57:b5, 2085-97-148 05:143:252:9079,1.146,-0.222,4.218,830.078,230.164,-147.339,5.301,3.483,-80.585
 15:12:59.676,eb:33:2e:f9:57:b5, 2085-97-114 11:168:244:11339,1.565,-0.712,4.874,786.621,314.27,-36.804,13.337,6.372,-81.101
 15:12:59.704,eb:33:2e:f9:57:b5, 2085-97-102 14:129:225:14274,2.215,-2.545,6.341,688.538,389.221,105.774,21.066,9.646,-79.579
 15:12:59.704,eb:33:2e:f9:57:b5, 2085-97-30 21:180:200:15889,2.965,-5.479,7.472,456.055,533.569,179.871,27.482,13.233,-76.245
 15:12:59.704,eb:33:2e:f9:57:b5, 2085-97-75 23:212:184:18858,3.049,-8.079,8.328,275.879,578.674,195.801,32.305,17.276,-71.51
 15:12:59.704,eb:33:2e:f9:57:b5, 2085-97-24 27:02:175:19309,3.644,-9.589,9.596,156.799,393.494,163.33,35.837,20.308,-67.05
 15:12:59.734,eb:33:2e:f9:57:b5, 2085-97-153 28:208:171:15311,3.295,-10.499,8.624,89.478,138.123,84.9,37.985,21.599,-64.374
 15:12:59.734,eb:33:2e:f9:57:b5, 2085-97-79 24:165:178:9574,2.652,-10.336,6.156,12.817,-65.369,6.47,38.699,21.5,-63.913
 15:12:59.734,eb:33:2e:f9:57:b5, 2085-97-236 17:163:195:4962,1.821,-8.678,3.402,-106.75,-149.719,-42.725,37.787,20.715,-64.946
 15:12:59.734,eb:33:2e:f9:57:b5, 2085-97-152 11:108:213:2313,1.363,-6.382,1.656,-189.392,-119.202,-20.508,35.81,19.797,-66.193
 15:12:59.794,eb:33:2e:f9:57:b5, 2085-97-250 11:179:245:7984,2.404,-4.396,0.717,-261.047,-1.282,42.175,33.431,19.237,-66.445
 15:12:59.794,eb:33:2e:f9:57:b5, 2085-97-74 20:227:255:-4503,-0.583,-3.611,-0.574,-995.667,-287.354,-487.549,26.955,19.226,-67.159
 15:12:59.794,eb:33:2e:f9:57:b5, 2085-97-194 183:221:229:27624,-6.49,-2.995,10.646,-1020.63,-300.903,-241.272,15.557,17.32,-70.01
 15:12:59.794,eb:33:2e:f9:57:b5, 2085-97-111 10:103:221:1149,6.776,-11.012,6.329,-226.501,-642.334,-14.587,8.723,12.09,-71.18
 15:12:59.825,eb:33:2e:f9:57:b5, 2085-97-176 10:223:23:-2081,3.997,0.534,-4.221,-43.823,-242.981,9.46,7.987,6.828,-72.328
 15:12:59.825,eb:33:2e:f9:57:b5, 2085-97-138 20:128:242:-3988,0.719,0.194,-2.688,-142.761,-5.554,78.613,6.652,5.389,-72.252
 15:12:59.825,eb:33:2e:f9:57:b5, 2085-97-138 238:168:248:4529,-1.084,-0.825,-0.643,-64.148,73.364,36.133,5.762,5.806,-71.647
 15:12:59.825,eb:33:2e:f9:57:b5, 2085-97-94 249:29:00:4331,1.104,-0.275,2.535,-32.471,-55.542,16.296,5.345,5.647,-71.57
 15:12:59.854,eb:33:2e:f9:57:b5, 2085-97-73 05:199:03:1757,1.139,0.355,0.732,-54.443,-48.218,14.465,4.818,4.828,-71.642
 15:12:59.854,eb:33:2e:f9:57:b5, 2085-97-107 03:125:255:1713,0.6,-0.105,0.315,-56.396,28.625,39.734,4.23,4.73,-71.428
 15:12:59.854,eb:33:2e:f9:57:b5, 2085-97-00 254:126:00:3667,-0.32,0.038,0.604,-52.124,95.886,48.645,3.691,5.323,-70.944
 15:12:59.854,eb:33:2e:f9:57:b5, 2085-97-142 254:126:01:3355,-0.113,-0.113,1.742,-68.176,129.089,46.143,3.115,6.443,-70.461
 15:12:59.915,eb:33:2e:f9:57:b5, 2085-97-208 01:249:04:6250,-0.009,0.421,2.053,-114.38,220.215,44.617,2.241,8.223,-69.939
 15:12:59.915,eb:33:2e:f9:57:b5, 2085-97-237 255:19:06:6264,-0.339,0.925,3.262,-214.539,221.924,84.778,0.714,10.492,-69.252
 15:12:59.915,eb:33:2e:f9:57:b5, 2085-97-117 252:85:09:7838,-0.684,0.96,3.768,-311.34,158.325,63.904,-1.862,12.415,-68.533
 15:12:59.915,eb:33:2e:f9:57:b5, 2085-97-34 249:174:11:8377,-1.043,1.141,4.09,-407.043,105.042,29.236,-5.4,13.733,-68.154
 15:12:59.975,eb:33:2e:f9:57:b5, 2085-97-186 246:168:12:7428,-1.244,1.509,3.904,-505.066,48.218,-13.428,-10.047,14.469,-68.137
 15:12:59.975,eb:33:2e:f9:57:b5, 2085-97-107 247:29:14:8284,-0.76,1.747,3.767,-606.567,31.189,-68.787,-15.771,14.755,-68.692
 15:12:59.975,eb:33:2e:f9:57:b5, 2085-97-144 248:181:13:11713,-1.185,1.753,4.449,-717.712,20.203,-110.535,-22.72,14.634,-69.686
 15:12:59.975,eb:33:2e:f9:57:b5, 2085-97-35 246:244:00:14420,-1.044,1.33,6.546,-818.176,-10.986,-124.939,-30.773,14.123,-70.867
 15:12:59.978,eb:33:2e:f9:57:b5, 2085-97-109 245:147:238:14920,-1.487,-0.713,7.463,-819.092,-151.123,-136.292,-39.183,12.761,-71.625
 15:12:59.978,eb:33:2e:f9:57:b5, 2085-97-40 240:71:245:14121,-2.523,-3.04,7.098,-772.278,-426.331,-127.441,-46.95,9.761,-70.549
 15:12:59.978,eb:33:2e:f9:57:b5, 2085-97-69 244:222:213:-832,-0.654,-1.169,4.827,-777.039,-490.479,-33.081,-54.174,5.955,-66.918
 15:12:59.978,eb:33:2e:f9:57:b5, 2085-97-215 248:230:235:6940,-1.081,-3.709,0.658,-494.69,-112,-137.817,-60.287,3.351,-65.435
 15:13:00.035,eb:33:2e:f9:57:b5, 2085-97-152 245:85:240:16311,-1.458,-2.996,5.503,-426.147,71.594,-163.879,-64.731,2.093,-66.028
 15:13:00.035,eb:33:2e:f9:57:b5, 2085-97-41 245:227:253:17265,-1.309,-1.108,8.807,-527.588,-4.822,-215.82,-69.56,0.483,-67.258
 15:13:00.035,eb:33:2e:f9:57:b5, 2085-97-03 246:194:05:14547,-1.548,0.267,7.951,-571.106,-105.713,-229.065,-75.152,-1.873,-67.269
 15:13:00.036,eb:33:2e:f9:57:b5, 2085-97-209 239:165:08:12237,-2.498,0.868,6.434,-510.681,-93.262,-242.676,-80.656,-4.373,-66.764
 15:13:00.065,eb:33:2e:f9:57:b5, 2085-97-140 233:83:12:10741,-2.886,1.309,5.65,-395.386,-68.665,-291.809,-85.133,-7.114,-66.313
 15:13:00.065,eb:33:2e:f9:57:b5, 2085-97-38 234:128:15:9197,-2.671,1.709,4.912,-304.871,-22.888,-373.84,-88.572,-10.514,-66.066
 15:13:00.065,eb:33:2e:f9:57:b5, 2085-97-84 235:73:20:8520,-2.517,2.215,4.28,-237.488,45.715,-435.791,-91.165,-14.606,-66.259
 15:13:00.065,eb:33:2e:f9:57:b5, 2085-97-144 236:208:23:7958,-2.312,2.813,4.07,-160.339,58.105,-448.059,-92.988,-19.1,-66.736
 15:13:00.094,eb:33:2e:f9:57:b5, 2085-97-198 238:38:27:7329,-2.167,3.166,3.719,-88.745,30.212,-423.401,-94.059,-23.461,-66.929
 15:13:00.094,eb:33:2e:f9:57:b5, 2085-97-09 239:68:30:6417,-1.935,3.608,3.509,-32.471,-33.691,-366.943,-94.768,-27.405,-66.638
 15:13:00.094,eb:33:2e:f9:57:b5, 2085-97-79 243:08:36:2702,-1.377,4.076,2.413,23.682,-90.149,-295.41,-95.273,-30.591,-65.517
 15:13:00.094,eb:33:2e:f9:57:b5, 2085-97-223 245:114:41:-2326,-1.124,4.924,0.096,113.647,-31.982,-201.111,-95.125,-32.981,-64.517
 15:13:00.155,eb:33:2e:f9:57:b5, 2085-97-112 246:136:46:-3384,-1.263,5.417,-1.854,251.953,92.957,-63.354,-92.988,-34.266,-64.847
 15:13:00.155,eb:33:2e:f9:57:b5, 2085-97-163 245:86:42:-3535,-1.378,5.88,-1.446,340.698,189.392,82.947,-88.918,-34.118,-66.671
 15:13:00.155,eb:33:2e:f9:57:b5, 2085-97-81 244:151:33:-3209,-1.586,4.644,-1.89,420.471,324.219,202.515,-83.392,-32.421,-69.664
 15:13:00.155,eb:33:2e:f9:57:b5, 2085-97-158 241:185:29:-461,-2.109,3.92,-0.924,494.995,457.397,283.447,-76.663,-29.257,-73.79
 15:13:00.214,eb:33:2e:f9:57:b5, 2085-97-96 239:93:26:1529,-2.03,3.58,0.366,557.007,504.761,336.731,-69.373,-24.785,-78.069
 15:13:00.214,eb:33:2e:f9:57:b5, 2085-97-83 240:77:23:3310,-1.738,2.977,1.153,626.953,522.888,342.712,-62.084,-19.605,-81.645
 15:13:00.214,eb:33:2e:f9:57:b5, 2085-97-181 243:67:25:5855,-1.515,2.973,2.176,695.984,544.8,338.257,-54.525,-13.859,-84.545
 15:13:00.214,eb:33:2e:f9:57:b5, 2085-97-214 242:61:23:10091,-1.383,3.284,3.854,759.155,532.593,352.478,-46.824,-7.74,-86.682
 15:13:00.244,eb:33:2e:f9:57:b5, 2085-97-120 243:52:16:13609,-1.696,2.42,5.838,808.044,420.593,357.91,-38.771,-1.763,-87.275
 15:13:00.244,eb:33:2e:f9:57:b5, 2085-97-228 240:57:06:12513,-1.796,1.521,6.645,812.317,236.755,293.945,-30.652,2.725,-86.517
 15:13:00.244,eb:33:2e:f9:57:b5, 2085-97-93 240:54:250:9467,-1.892,0.049,5.298,834.473,106.995,181.274,-22.22,5.186,-85.089
 15:13:00.244,eb:33:2e:f9:57:b5, 2085-97-171 244:240:244:6285,-0.781,-1.111,3.983,851.807,79.59,-7.08,-13.7,6.24,-84.683
 15:13:00.274,eb:33:2e:f9:57:b5, 2085-97-200 254:180:243:5838,0.483,-1.521,2.641,845.825,185.974,-150.146,-5.246,7.449,-85.792
 15:13:00.274,eb:33:2e:f9:57:b5, 2085-97-26 08:158:243:8156,1.493,-1.54,3.318,833.435,258.423,-187.988,2.867,9.756,-87.709
 15:13:00.274,eb:33:2e:f9:57:b5, 2085-97-101 15:32:236:10811,2.298,-1.795,4.66,790.344,228.271,-114.197,10.854,12.437,-88.967
 15:13:00.274,eb:33:2e:f9:57:b5, 2085-97-200 20:85:220:11458,2.881,-3.434,5.601,666.138,208.069,-26.428,18.144,14.595,-89.083
 15:13:00.274,eb:33:2e:f9:57:b5, 2085-113-81 00:40:86:8218,3.274,-5.54,5.425,496.521,330.383,12.695,24.214,17.106,-88.077
 15:13:00.305,eb:33:2e:f9:57:b5, 2085-97-179 29:54:201:12280,4.009,-6.394,5.508,421.021,414.001,26.428,26.768,18.776,-87.116
 15:13:00.305,eb:33:2e:f9:57:b5, 2085-97-102 32:86:197:15622,4.127,-7.083,6.798,260.254,496.948,63.965,31.141,22.72,-84.243
 15:13:00.305,eb:33:2e:f9:57:b5, 2085-97-198 34:224:191:16439,4.381,-7.661,8.111,139.16,345.459,128.174,34.519,25.812,-80.76
 15:13:00.305,eb:33:2e:f9:57:b5, 2085-97-02 32:177:188:12858,3.281,-8.277,7.348,23.376,128.418,170.227,36.568,26.713,-77.943
 15:13:00.366,eb:33:2e:f9:57:b5, 2085-97-167 21:109:192:7723,2.277,-8.398,5.032,-81.665,-35.095,173.584,36.991,25.933,-76.157
 15:13:00.366,eb:33:2e:f9:57:b5, 2085-97-124 15:06:206:3486,1.579,-7.164,2.646,-158.752,-84.351,159.485,36.167,24.34,-75.212
 15:13:00.366,eb:33:2e:f9:57:b5, 2085-97-229 08:52:222:1924,-5.858,-5.292,1.073,-222.839,-13.733,168.396,34.634,22.989,-74.103
 15:13:00.366,eb:33:2e:f9:57:b5, 2085-97-229 235:29:37:-7956,3.506,-1.264,9.092,-933.472,-432.373,-298.889,30.822,22.379,-72.526
 15:13:00.394,eb:33:2e:f9:57:b5, 2085-97-57 226:184:241:26386,-8.457,-5.477,7.068,-1030.151,-323.608,-282.654,18.699,20.665,-76.597
 15:13:00.394,eb:33:2e:f9:57:b5, 2085-97-57 244:42:172:7348,4.285,-6.862,9.897,-430.847,-702.942,221.191,9.998,15.557,-78.53
 15:13:00.394,eb:33:2e:f9:57:b5, 2085-97-163 40:117:16:-4739,2.091,1.658,-4.279,-2.136,-490.051,86.365,8.888,8.937,-80.14
 15:13:00.394,eb:33:2e:f9:57:b5, 2085-97-24 26:100:250:-3873,1.225,2.362,-1.182,-159.973,-102.112,44.006,8.026,7.02,-80.211
 15:13:00.424,eb:33:2e:f9:57:b5, 2085-97-130 243:152:249:2771,-1.548,-1.081,-1.143,-69.397,65.43,50.415,6.899,6.976,-79.634
 15:13:00.424,eb:33:2e:f9:57:b5, 2085-97-93 247:61:255:4614,0.899,-0.934,2.455,-26.978,-75.562,-2.136,6.449,6.932,-79.508
 15:13:00.424,eb:33:2e:f9:57:b5, 2085-97-178 15:246:03:152,0.5,0.362,0.663,-43.091,-101.807,-6.409,5.993,5.823,-79.799
 15:13:00.424,eb:33:2e:f9:57:b5, 2085-97-50 04:50:254:1987,-0.047,0.452,1.059,-55.42,12.573,40.649,5.554,5.647,-79.557
 15:13:00.486,eb:33:2e:f9:57:b5, 2085-97-169 02:05:02:1888,-0.652,-0.237,1.149,-37.109,26.245,37.048,5.114,5.856,-79.063
 15:13:00.486,eb:33:2e:f9:57:b5, 2085-97-104 00:125:255:2746,0.241,-0.12,2.149,-55.664,56.641,28.564,4.697,6.427,-78.662
 15:13:00.486,eb:33:2e:f9:57:b5, 2085-97-233 01:249:03:3213,0.712,0.238,1.299,-75.745,154.968,34.546,4.076,7.399,-78.245
 15:13:00.486,eb:33:2e:f9:57:b5, 2085-97-111 01:132:10:8774,-0.137,0.486,2.687,-150.085,262.268,45.837,3.032,9.63,-77.717
 15:13:00.515,eb:33:2e:f9:57:b5, 2085-97-83 255:136:06:8006,-0.596,1.277,3.905,-276.733,197.998,87.585,0.95,11.843,-76.882
 15:13:00.515,eb:33:2e:f9:57:b5, 2085-97-18 250:155:11:9170,-1.104,1.614,4.455,-383.606,145.386,82.947,-2.203,13.629,-76.097
 15:13:00.515,eb:33:2e:f9:57:b5, 2085-97-113 245:232:11:7818,-1.57,1.46,4.187,-492.188,75.439,37.659,-6.531,14.683,-75.558
 15:13:00.515,eb:33:2e:f9:57:b5, 2085-97-134 243:15:12:7920,-1.273,1.613,3.704,-592.529,43.579,-30.762,-12.057,15.249,-75.712
 15:13:00.546,eb:33:2e:f9:57:b5, 2085-97-157 246:220:11:9877,-1.448,1.486,3.968,-700.439,42.175,-109.253,-18.847,15.375,-76.586
 15:13:00.546,eb:33:2e:f9:57:b5, 2085-97-160 245:174:04:13257,-1.006,1.045,5.864,-789.795,54.443,-164.001,-26.818,15.298,-78.157
 15:13:00.546,eb:33:2e:f9:57:b5, 2085-97-68 248:33:250:15557,-0.229,-0.07,7.009,-794.25,-79.651,-172.546,-35.167,14.381,-79.75
 15:13:00.546,eb:33:2e:f9:57:b5, 2085-97-247 255:233:247:15607,-0.781,-1.844,7.699,-814.636,-363.77,-135.254,-43.171,11.58,-79.514
 15:13:00.604,eb:33:2e:f9:57:b5, 2085-97-80 249:52:232:3030,0.399,0.044,5.967,-849.426,-522.4,41.565,-50.977,7.888,-76.24
 15:13:00.604,eb:33:2e:f9:57:b5, 2085-97-229 249:100:238:5926,-1.312,-3.868,-1.101,-585.754,-191.284,45.227,-58.024,5.982,-73.224
 15:13:00.604,eb:33:2e:f9:57:b5, 2085-97-38 243:20:236:14055,-1.633,-2.997,4.637,-434.021,-36.133,44.983,-62.672,5.971,-72.015
 15:13:00.604,eb:33:2e:f9:57:b5, 2085-97-163 244:154:242:14500,-1.172,-2.127,7.359,-538.94,17.212,-68.604,-67.516,5.823,-72.092
 15:13:00.635,eb:33:2e:f9:57:b5, 2085-97-20 247:203:248:14209,-1.344,-1.31,6.876,-596.13,59.998,-166.748,-73.4,4.757,-72.938
 15:13:00.635,eb:33:2e:f9:57:b5, 2085-97-69 243:86:02:13980,-1.808,-0.324,6.977,-530.945,37.903,-231.567,-79.151,2.889,-73.982
 15:13:00.635,eb:33:2e:f9:57:b5, 2085-97-42 239:206:07:12807,-2.282,0.709,6.521,-428.406,-0.61,-271.606,-83.881,0.379,-74.515
 15:13:00.635,eb:33:2e:f9:57:b5, 2085-97-197 236:32:12:10669,-2.45,1.245,5.764,-344.91,-9.583,-321.533,-87.682,-2.604,-74.674
 15:13:00.664,eb:33:2e:f9:57:b5, 2085-97-169 236:122:16:9384,-2.368,1.787,4.79,-279.48,25.818,-369.507,-90.703,-6.103,-74.828
 15:13:00.664,eb:33:2e:f9:57:b5, 2085-97-77 237:03:20:9448,-2.321,2.291,4.583,-223.511,49.683,-400.33,-93.148,-10.003,-75.163
 15:13:00.664,eb:33:2e:f9:57:b5, 2085-97-204 237:103:23:8492,-2.257,2.731,4.484,-164.124,9.338,-404.968,-94.993,-14.068,-75.229
 15:13:00.664,eb:33:2e:f9:57:b5, 2085-97-82 238:142:25:6355,-2.201,3.054,3.632,-101.318,-56.885,-383.484,-96.482,-17.968,-74.575
 15:13:00.725,eb:33:2e:f9:57:b5, 2085-97-253 238:178:26:4686,-2,3.298,2.704,-37.292,-102.966,-336.731,-97.515,-21.429,-73.262
 15:13:00.725,eb:33:2e:f9:57:b5, 2085-97-95 242:177:32:2764,-1.443,3.607,2.04,0.916,-93.506,-302.734,-98.251,-24.401,-71.719
 15:13:00.725,eb:33:2e:f9:57:b5, 2085-97-165 244:124:42:-2053,-1.085,4.772,0.246,41.748,-18.677,-265.93,-98.438,-27.169,-70.692
 15:13:00.725,eb:33:2e:f9:57:b5, 2085-97-202 246:153:48:-5282,-1.285,5.667,-2.313,180.664,56.885,-143.799,-97.388,-29.229,-70.604
 15:13:00.786,eb:33:2e:f9:57:b5, 2085-97-56 245:172:48:-5323,-1.311,6.387,-2.483,336.548,113.525,4.333,-94.131,-29.954,-71.62
 15:13:00.786,eb:33:2e:f9:57:b5, 2085-97-169 244:240:38:-4237,-1.15,5.464,-2.574,465.576,207.581,139.404,-89.127,-29.18,-73.488
 15:13:00.786,eb:33:2e:f9:57:b5, 2085-97-01 244:166:37:-2740,-1.772,4.905,-2.047,543.884,374.39,237.915,-82.469,-27.037,-76.635
 15:13:00.786,eb:33:2e:f9:57:b5, 2085-97-207 240:187:31:985,-1.981,4.297,-0.462,587.952,494.751,315.43,-74.976,-23.346,-80.914
 15:13:00.786,eb:33:2e:f9:57:b5, 2085-97-69 240:111:27:4427,-1.924,3.648,1.316,648.926,537.415,361.45,-67.231,-18.375,-85.073
 15:13:00.786,eb:33:2e:f9:57:b5, 2085-97-118 241:87:24:8175,-1.684,3.223,3.083,712.769,518.738,373.474,-59.518,-12.689,-88.319
 15:13:00.786,eb:33:2e:f9:57:b5, 2085-97-252 242:79:22:11451,-1.906,2.922,4.872,766.724,439.941,360.779,-51.674,-6.927,-90.28
 15:13:00.786,eb:33:2e:f9:57:b5, 2085-97-119 240:231:12:13041,-2.09,2.433,6.346,816.284,261.902,336.182,-43.698,-1.989,-90.604
 15:13:00.846,eb:33:2e:f9:57:b5, 2085-97-72 240:07:255:11203,-2.147,0.565,6.179,845.764,85.632,233.582,-35.239,1.077,-89.385
 15:13:00.846,eb:33:2e:f9:57:b5, 2085-97-199 238:69:248:8504,-2.193,-0.678,4.826,821.228,74.219,31.006,-26.873,2.368,-88.72
 15:13:00.846,eb:33:2e:f9:57:b5, 2085-97-134 240:224:247:6641,-1.52,-1.051,3.678,802.429,124.756,-180.298,-18.748,3.01,-89.934
 15:13:00.846,eb:33:2e:f9:57:b5, 2085-97-252 248:204:251:5912,-0.083,-0.831,2.97,814.392,197.266,-344.238,-10.871,3.9,-93.082
 15:13:00.875,eb:33:2e:f9:57:b5, 2085-97-143 06:184:01:6595,1.449,-0.183,3.007,839.294,270.386,-390.808,-2.829,5.856,-97.163
 15:13:00.875,eb:33:2e:f9:57:b5, 2085-97-38 16:133:04:9658,2.51,0.501,3.905,834.473,305.725,-287.17,5.147,8.899,-100.613
 15:13:00.875,eb:33:2e:f9:57:b5, 2085-97-238 21:229:248:11680,2.748,0.013,5.251,752.502,293.152,-79.773,12.98,12.107,-101.898
 15:13:00.875,eb:33:2e:f9:57:b5, 2085-97-101 22:196:230:12419,2.79,-1.959,6.011,591.309,366.028,97.29,19.951,15.145,-100.745
 15:13:00.904,eb:33:2e:f9:57:b5, 2085-97-00 22:218:212:13946,2.781,-4.265,6.258,412.354,511.963,206.116,25.917,18.649,-97.344
 15:13:00.904,eb:33:2e:f9:57:b5, 2085-97-122 23:253:196:16544,3.231,-6.445,7.565,283.447,521.545,265.076,31.086,22.176,-92.357
 15:13:00.904,eb:33:2e:f9:57:b5, 2085-97-167 28:103:188:16254,3.608,-8.023,8.173,170.288,400.696,263.489,35.414,24.521,-87.171
 15:13:00.906,eb:33:2e:f9:57:b5, 2085-97-214 24:74:185:13642,2.575,-8.653,7.391,68.054,233.826,228.943,38.37,25.565,-82.925
 15:13:00.965,eb:33:2e:f9:57:b5, 2085-97-211 15:196:182:9227,1.387,-9.154,5.614,-15.625,16.785,172.119,39.683,25.131,-80.398
 15:13:00.965,eb:33:2e:f9:57:b5, 2085-97-132 06:71:191:3742,0.664,-8.733,3.187,-96.191,-94.971,62.317,39.315,23.956,-79.865
 15:13:00.965,eb:33:2e:f9:57:b5, 2085-97-212 04:185:207:2728,0.662,-7.272,1.261,-168.945,5.005,-65.491,37.722,23.599,-80.338
 15:13:00.965,eb:33:2e:f9:57:b5, 2085-97-203 07:198:247:10395,2.152,-4.704,1.587,-226.013,88.989,-104.98,35.519,24.664,-80.804
 15:13:01.054,eb:33:2e:f9:57:b5, 2085-97-81 16:197:51:-10839,3.51,-4.897,1.584,-913.269,-589.905,-556.152,29.46,24.346,-82.326
 15:13:01.054,eb:33:2e:f9:57:b5, 2085-97-230 217:203:05:25926,-8.359,-5.249,7.492,-1025.146,-406.006,-414.307,17.523,21.522,-87.034
 15:13:01.054,eb:33:2e:f9:57:b5, 2085-97-40 243:130:186:3195,7.221,-6.304,9.451,-528.625,-822.815,176.697,8.591,15.765,-88.802
 15:13:01.054,eb:33:2e:f9:57:b5, 2085-97-203 55:207:11:-9409,2.458,-3.591,-5.49,-10.254,-557.556,-49.133,6.713,8.229,-89.67
 15:13:01.056,eb:33:2e:f9:57:b5, 2085-97-213 16:218:249:-1697,0.125,3.337,-1.459,-137.329,-16.907,72.266,6.158,6.564,-89.544
 15:13:01.056,eb:33:2e:f9:57:b5, 2085-97-111 249:45:249:2276,-2.762,-1.875,0.555,-56.702,44.495,47.363,5.229,7.092,-88.775
 15:13:01.056,eb:33:2e:f9:57:b5, 2085-97-202 254:88:254:3886,0.991,-0.626,2.982,-41.504,-118.835,-42.358,4.713,6.844,-88.775
 15:13:01.056,eb:33:2e:f9:57:b5, 2085-97-69 15:75:03:-1051,1.514,0.105,0.202,-38.879,-108.765,-26.794,4.29,5.504,-89.264
 15:13:01.085,eb:33:2e:f9:57:b5, 2085-97-217 251:142:00:4218,-0.219,0.482,0.317,-38.025,44.8,51.514,3.873,5.219,-89.138
 15:13:01.085,eb:33:2e:f9:57:b5, 2085-97-25 00:238:253:2585,0.597,-0.325,1.545,-42.48,-6.104,31.799,3.455,5.301,-88.786
 15:13:01.085,eb:33:2e:f9:57:b5, 2085-97-205 00:46:02:3290,0.342,0.128,0.608,-40.771,31.25,31.25,3.038,5.24,-88.533
 15:13:01.085,eb:33:2e:f9:57:b5, 2085-97-253 04:209:01:2078,0.699,-0.05,1.326,-68.054,77.271,29.114,2.461,5.768,-88.27
 15:13:01.114,eb:33:2e:f9:57:b5, 2085-97-146 06:71:04:4509,0.719,0.501,0.994,-107.117,226.135,46.875,1.615,7.251,-87.814
 15:13:01.114,eb:33:2e:f9:57:b5, 2085-97-21 255:95:10:8941,-0.297,0.975,3.55,-197.937,295.654,55.054,0.192,10.096,-87.253
 15:13:01.115,eb:33:2e:f9:57:b5, 2085-97-31 252:211:11:8779,-0.85,1.514,4.289,-315.979,216.248,89.966,-2.34,12.634,-86.55
 15:13:01.115,eb:33:2e:f9:57:b5, 2085-97-182 247:33:05:7405,-1.308,1.269,3.584,-451.66,187.439,88.928,-6.015,14.584,-85.748
 15:13:01.146,eb:33:2e:f9:57:b5, 2085-97-41 247:176:13:8065,-0.831,1.8,4.504,-533.875,112.244,20.203,-10.959,16.271,-85.6
 15:13:01.146,eb:33:2e:f9:57:b5, 2085-97-155 247:107:12:9145,-1.204,1.669,3.854,-631.042,76.416,-29.602,-16.891,17.001,-85.864
 15:13:01.146,eb:33:2e:f9:57:b5, 2085-113-81 00:175:92:-1551,-1.497,1.14,5.386,-720.093,53.04,-96.497,-24.049,17.391,-86.797
 15:13:01.146,eb:33:2e:f9:57:b5, 2085-97-112 248:198:03:10940,-0.551,1.355,5.948,-747.62,-1.953,-114.258,-27.9,17.254,-87.391
 15:13:01.205,eb:33:2e:f9:57:b5, 2085-97-172 254:03:246:13181,-0.078,-0.683,6.393,-753.113,-118.408,-141.602,-35.744,16.128,-88.275
 15:13:01.205,eb:33:2e:f9:57:b5, 2085-97-229 251:241:250:13082,-0.434,-1.944,6.661,-696.411,-359.009,-53.894,-42.814,13.722,-87.402
 15:13:01.205,eb:33:2e:f9:57:b5, 2085-97-58 255:01:221:-134,-0.799,-1.772,4.134,-685.059,-423.584,51.514,-49.005,10.756,-83.87
 15:13:01.205,eb:33:2e:f9:57:b5, 2085-97-209 245:13:235:8198,-1.534,-2.496,2.689,-439.819,-149.109,17.578,-53.921,9.399,-81.876
