Time,Device name,Chip Time(),Acceleration X(g),Acceleration Y(g),Acceleration Z(g),Angular velocity X(°/s),Angular velocity Y(°/s),Angular velocity Z(°/s),Angle X(°),Angle Y(°),Angle Z(°)
 15:10:17.517,eb:33:2e:f9:57:b5, 2085-97-233 248:72:11:1461,-0.861,1.335,0.467,81.299,77.209,-108.887,-55.421,-14.068,-9.932
 15:10:17.517,eb:33:2e:f9:57:b5, 2085-97-55 250:194:09:1794,-0.582,1.335,0.911,145.569,40.894,-94.116,-53.926,-14.535,-11.014
 15:10:17.517,eb:33:2e:f9:57:b5, 2085-97-20 252:74:08:969,-0.422,1.122,0.686,153.992,33.691,-100.952,-52.169,-15.117,-11.893
 15:10:17.517,eb:33:2e:f9:57:b5, 2085-97-56 253:155:07:429,-0.269,0.973,0.308,152.344,60.181,-107.361,-50.361,-15.639,-12.958
 15:10:17.546,eb:33:2e:f9:57:b5, 2085-97-113 254:225:07:435,-0.128,0.958,0.184,158.691,91.064,-104.614,-48.433,-15.941,-14.293
 15:10:17.546,eb:33:2e:f9:57:b5, 2085-97-102 255:124:08:688,-0.026,1.02,0.269,178.711,106.14,-87.708,-46.351,-15.969,-15.754
 15:10:17.546,eb:33:2e:f9:57:b5, 2085-97-47 00:238:08:962,0.067,1.095,0.405,207.275,101.685,-57.556,-44.039,-15.738,-17.062
 15:10:17.546,eb:33:2e:f9:57:b5, 2085-97-210 00:170:08:1133,0.124,1.113,0.524,231.262,91.614,-22.583,-41.572,-15.293,-18.034
 15:10:17.577,eb:33:2e:f9:57:b5, 2085-97-20 01:195:07:1132,0.141,1.032,0.56,243.042,90.393,8.911,-39.001,-14.639,-18.677
 15:10:17.577,eb:33:2e:f9:57:b5, 2085-97-17 01:149:06:1102,0.113,0.889,0.53,245.483,106.262,36.743,-36.453,-13.722,-19.094
 15:10:17.577,eb:33:2e:f9:57:b5, 2085-97-128 00:129:05:1437,0.058,0.756,0.588,245.239,130.737,57.495,-33.915,-12.458,-19.396
 15:10:17.577,eb:33:2e:f9:57:b5, 2085-97-50 00:175:04:1835,0.008,0.628,0.8,246.704,147.888,73.547,-31.415,-10.915,-19.605
 15:10:17.637,eb:33:2e:f9:57:b5, 2085-97-247 255:247:03:2123,-0.012,0.542,0.961,253.174,152.649,87.158,-28.889,-9.196,-19.666
 15:10:17.637,eb:33:2e:f9:57:b5, 2085-97-223 255:70:03:2431,-0.026,0.452,1.119,262.024,151.794,97.595,-26.329,-7.41,-19.55
 15:10:17.637,eb:33:2e:f9:57:b5, 2085-97-172 255:184:02:2721,-0.052,0.369,1.251,269.836,151.55,103.027,-23.676,-5.603,-19.276
 15:10:17.637,eb:33:2e:f9:57:b5, 2085-97-112 255:69:02:3080,-0.096,0.307,1.411,277.588,149.292,105.652,-20.967,-3.812,-18.885
 15:10:17.697,eb:33:2e:f9:57:b5, 2085-97-12 255:241:01:3435,-0.143,0.263,1.601,286.194,139.404,106.689,-18.149,-2.087,-18.364
 15:10:17.697,eb:33:2e:f9:57:b5, 2085-97-148 254:103:01:3607,-0.213,0.214,1.727,294.861,122.253,106.689,-15.26,-0.538,-17.732
 15:10:17.697,eb:33:2e:f9:57:b5, 2085-97-32 254:184:00:3690,-0.26,0.132,1.786,301.208,107.605,103.577,-12.25,0.813,-16.974
 15:10:17.697,eb:33:2e:f9:57:b5, 2085-97-197 253:106:00:3810,-0.295,0.064,1.827,303.223,102.844,95.886,-9.207,2.016,-16.21
 15:10:17.697,eb:33:2e:f9:57:b5, 2085-97-120 253:92:00:4056,-0.327,0.045,1.909,303.101,101.501,88.989,-6.114,3.159,-15.436
 15:10:17.697,eb:33:2e:f9:57:b5, 2085-97-59 253:92:00:4295,-0.35,0.047,2.037,301.697,96.741,84.656,-3.043,4.213,-14.656
 15:10:17.697,eb:33:2e:f9:57:b5, 2085-97-75 253:97:00:4479,-0.343,0.042,2.143,298.828,92.407,83.374,0.049,5.18,-13.832
 15:10:17.698,eb:33:2e:f9:57:b5, 2085-97-66 253:172:255:4985,-0.365,0.014,2.313,292.786,89.539,87.463,3.093,6.07,-12.953
 15:10:17.756,eb:33:2e:f9:57:b5, 2085-97-193 253:78:254:5343,-0.226,-0.122,2.514,281.616,77.454,94.727,6.097,6.828,-11.97
 15:10:17.756,eb:33:2e:f9:57:b5, 2085-97-115 254:160:252:5455,-0.205,-0.295,2.649,261.597,65.247,100.952,8.948,7.405,-10.898
 15:10:17.756,eb:33:2e:f9:57:b5, 2085-97-108 253:34:249:5298,-0.491,-0.629,2.626,243.164,48.096,109.558,11.635,7.767,-9.739
 15:10:17.756,eb:33:2e:f9:57:b5, 2085-97-240 251:180:243:4726,-0.463,-1.176,2.544,236.023,17.456,114.502,14.178,7.828,-8.553
 15:10:17.786,eb:33:2e:f9:57:b5, 2085-97-70 253:158:239:3091,-0.125,-1.802,1.981,222.29,19.165,95.276,16.639,7.674,-7.482
 15:10:17.786,eb:33:2e:f9:57:b5, 2085-97-48 00:148:236:1708,0.13,-2.272,1.03,202.82,105.286,58.838,18.88,7.998,-6.564
 15:10:17.786,eb:33:2e:f9:57:b5, 2085-97-34 02:13:236:2630,0.46,-2.482,0.962,192.017,213.928,18.799,20.995,9.47,-5.636
 15:10:17.786,eb:33:2e:f9:57:b5, 2085-97-136 05:136:236:4106,0.942,-2.469,1.659,184.57,241.638,-4.578,23.049,11.651,-4.686
 15:10:17.848,eb:33:2e:f9:57:b5, 2085-97-62 09:77:236:4846,1.288,-2.418,2.239,160.583,184.57,-8.484,24.977,13.651,-3.862
 15:10:17.848,eb:33:2e:f9:57:b5, 2085-97-196 10:69:234:4692,1.343,-2.566,2.389,112.854,91.431,-3.54,26.472,14.892,-3.318
 15:10:17.848,eb:33:2e:f9:57:b5, 2085-113-81 00:24:123:7783,1.293,-2.88,2.1,49.805,10.62,-4.7,27.312,15.293,-3.137
 15:10:17.848,eb:33:2e:f9:57:b5, 2085-97-199 09:55:231:3296,1.197,-3.026,1.85,17.029,-13.428,-9.949,27.449,15.293,-3.186
 15:10:17.848,eb:33:2e:f9:57:b5, 2085-97-31 09:156:232:2774,1.127,-3.059,1.41,-40.71,-30.396,-23.315,27.213,15.145,-3.472
 15:10:17.876,eb:33:2e:f9:57:b5, 2085-97-35 09:109:236:2837,-1.651,-2.709,1.351,-80.322,-36.011,-27.893,26.461,14.963,-3.884
 15:10:17.876,eb:33:2e:f9:57:b5, 2085-97-12 08:225:04:2205,-0.473,1.924,8.408,-144.531,-233.459,4.639,25.334,14.42,-4.29
 15:10:17.876,eb:33:2e:f9:57:b5, 2085-97-117 251:108:23:2271,-0.456,2.036,0.854,-176.27,-180.42,3.54,23.555,12.601,-5.257
 15:10:17.876,eb:33:2e:f9:57:b5, 2085-97-207 253:45:10:1788,-0.154,2.588,0.935,-307.251,-173.34,-1.892,20.929,11.019,-5.933
 15:10:17.906,eb:33:2e:f9:57:b5, 2085-97-57 02:255:253:2182,0.573,0.198,1.168,-337.097,-176.147,3.967,17.468,9.371,-6.509
 15:10:17.906,eb:33:2e:f9:57:b5, 2085-97-130 05:154:253:1612,0.586,-0.426,0.892,-288.452,-147.339,12.939,14.271,7.767,-6.888
 15:10:17.906,eb:33:2e:f9:57:b5, 2085-97-128 02:228:251:2549,0.087,-0.465,1.056,-232.727,-86.914,-3.052,11.667,6.63,-7.053
 15:10:17.906,eb:33:2e:f9:57:b5, 2085-97-185 00:203:253:2455,0.305,-0.519,1.356,-187.439,-62.439,-43.152,9.558,5.993,-7.454
 15:10:17.967,eb:33:2e:f9:57:b5, 2085-97-213 02:104:00:1768,0.213,-0.096,0.99,-167.358,-42.114,-55.298,7.74,5.51,-8.053
 15:10:17.967,eb:33:2e:f9:57:b5, 2085-97-65 00:33:00:2124,-0.174,0.082,0.927,-153.381,6.836,-40.466,6.092,5.438,-8.553
 15:10:17.967,eb:33:2e:f9:57:b5, 2085-97-190 253:159:254:2479,-0.315,-0.107,1.159,-135.925,11.292,-25.391,4.609,5.587,-8.86
 15:10:17.967,eb:33:2e:f9:57:b5, 2085-97-240 253:95:254:2382,-0.196,-0.209,1.211,-108.704,-7.507,-16.357,3.373,5.614,-9.069
 15:10:17.997,eb:33:2e:f9:57:b5, 2085-97-76 254:241:252:2287,-0.188,-0.237,1.141,-78.064,-22.095,0,2.433,5.449,-9.157
 15:10:17.997,eb:33:2e:f9:57:b5, 2085-97-00 255:49:254:2154,-0.068,-0.398,1.1,-38.513,-28.625,2.136,1.884,5.197,-9.13
 15:10:17.997,eb:33:2e:f9:57:b5, 2085-97-217 255:170:255:1950,0.03,-0.081,0.987,-21.912,-29.968,1.221,1.604,4.883,-9.124
 15:10:17.997,eb:33:2e:f9:57:b5, 2085-97-103 00:164:255:1870,0.005,-0.031,0.918,-17.883,-22.278,-1.648,1.406,4.62,-9.141
 15:10:18.026,eb:33:2e:f9:57:b5, 2085-97-166 255:97:255:2001,-0.038,-0.073,0.948,-11.047,-13.916,-0.977,1.252,4.444,-9.157
 15:10:18.026,eb:33:2e:f9:57:b5, 2085-97-239 255:190:255:1957,0.022,-0.052,0.972,-4.883,-13.123,-2.441,1.176,4.312,-9.179
 15:10:18.026,eb:33:2e:f9:57:b5, 2085-97-03 00:246:255:1961,-0.021,-0.013,0.939,-2.686,-8.911,-4.089,1.132,4.186,-9.218
 15:10:18.026,eb:33:2e:f9:57:b5, 2085-97-168 255:226:255:2035,-0.015,-0.011,0.979,-1.648,-5.92,-4.456,1.11,4.12,-9.261
 15:10:18.087,eb:33:2e:f9:57:b5, 2085-97-02 00:04:00:2000,0,-0.004,0.981,-0.183,-5.005,-4.089,1.093,4.054,-9.311
 15:10:18.087,eb:33:2e:f9:57:b5, 2085-97-244 255:51:00:2056,-0.012,0.015,0.988,-0.61,-0.977,-4.028,1.082,4.026,-9.349
 15:10:18.087,eb:33:2e:f9:57:b5, 2085-97-237 255:57:00:2078,-0.006,0.028,1.019,-2.441,3.418,-2.991,1.06,4.032,-9.388
 15:10:18.087,eb:33:2e:f9:57:b5, 2085-97-10 00:53:00:2025,0.011,0.025,1.006,-3.601,7.996,-0.854,1.022,4.092,-9.404
 15:10:18.116,eb:33:2e:f9:57:b5, 2085-97-33 00:50:00:1985,0.011,0.022,0.979,-4.639,13.672,0.244,0.978,4.197,-9.404
 15:10:18.116,eb:33:2e:f9:57:b5, 2085-97-234 255:30:00:2011,-0.043,0.026,0.968,-5.432,19.897,1.221,0.923,4.367,-9.393
 15:10:18.116,eb:33:2e:f9:57:b5, 2085-97-115 255:09:00:2068,-0.083,0.005,0.997,-5.066,22.217,2.319,0.868,4.576,-9.371
 15:10:18.116,eb:33:2e:f9:57:b5, 2085-97-63 255:01:00:2098,-0.108,0.004,1.02,-4.089,19.775,3.784,0.824,4.79,-9.338
 15:10:18.146,eb:33:2e:f9:57:b5, 2085-97-09 255:00:00:2133,-0.138,0,1.035,-3.479,14.771,4.272,0.786,4.955,-9.3
 15:10:18.146,eb:33:2e:f9:57:b5, 2085-97-208 254:06:00:2191,-0.153,0,1.057,-2.869,7.141,4.761,0.753,5.059,-9.25
 15:10:18.146,eb:33:2e:f9:57:b5, 2085-97-205 254:25:00:2203,-0.145,0.009,1.081,-2.93,-2.319,5.676,0.725,5.07,-9.201
 15:10:18.146,eb:33:2e:f9:57:b5, 2085-97-05 255:23:00:2176,-0.084,0.008,1.072,-3.418,-10.864,6.409,0.698,4.999,-9.141
 15:10:18.208,eb:33:2e:f9:57:b5, 2085-97-158 255:48:00:2072,-0.021,0.02,1.039,-3.967,-14.648,7.507,0.659,4.856,-9.075
 15:10:18.208,eb:33:2e:f9:57:b5, 2085-97-230 255:61:00:2027,-0.017,0.024,0.996,-4.883,-10.803,8.484,0.621,4.724,-8.992
 15:10:18.208,eb:33:2e:f9:57:b5, 2085-97-217 255:70:00:2035,-0.023,0.033,0.991,-6.531,-5.371,8.667,0.566,4.636,-8.91
 15:10:18.208,eb:33:2e:f9:57:b5, 2085-97-187 255:48:00:2059,-0.044,0.029,0.998,-8.606,-0.854,8.667,0.494,4.609,-8.822
 15:10:18.266,eb:33:2e:f9:57:b5, 2085-97-132 255:25:00:2085,-0.081,0.021,1.011,-9.888,1.465,8.728,0.401,4.603,-8.734
 15:10:18.266,eb:33:2e:f9:57:b5, 2085-97-96 255:00:00:2086,-0.072,0.006,1.027,-10.925,0.427,7.751,0.302,4.62,-8.652
 15:10:18.266,eb:33:2e:f9:57:b5, 2085-97-113 255:228:255:2068,-0.065,-0.009,1.011,-10.925,-1.526,7.141,0.192,4.603,-8.58
 15:10:18.266,eb:33:2e:f9:57:b5, 2085-97-113 255:244:255:2069,-0.084,-0.01,1.006,-10.254,-3.357,6.653,0.088,4.576,-8.514
 15:10:18.325,eb:33:2e:f9:57:b5, 2085-97-42 255:254:255:2131,-0.104,-0.004,1.024,-10.315,-5.981,5.92,-0.011,4.521,-8.448
 15:10:18.325,eb:33:2e:f9:57:b5, 2085-97-48 255:22:00:2158,-0.089,0.005,1.047,-11.23,-10.925,5.371,-0.115,4.438,-8.372
 15:10:18.325,eb:33:2e:f9:57:b5, 2085-97-86 255:15:00:2147,-0.062,0.009,1.052,-13,-14.832,4.822,-0.236,4.296,-8.322
 15:10:18.325,eb:33:2e:f9:57:b5, 2085-97-60 255:243:255:2166,-0.092,0.014,1.05,-14.404,-16.479,4.944,-0.374,4.136,-8.278
 15:10:18.327,eb:33:2e:f9:57:b5, 2085-97-86 255:226:255:2121,-0.045,-0.017,1.047,-14.648,-19.897,4.822,-0.522,3.95,-8.229
 15:10:18.327,eb:33:2e:f9:57:b5, 2085-97-228 255:10:00:2041,-0.011,-0.001,1.014,-15.137,-21.362,5.005,-0.67,3.735,-8.179
 15:10:18.327,eb:33:2e:f9:57:b5, 2085-97-08 00:22:00:2074,-0.045,0,1.004,-16.479,-17.029,5.737,-0.829,3.538,-8.124
 15:10:18.327,eb:33:2e:f9:57:b5, 2085-97-168 255:219:255:2088,-0.01,-0.012,1.033,-18.555,-13.672,5.432,-1,3.389,-8.064
 15:10:18.356,eb:33:2e:f9:57:b5, 2085-97-255 255:214:255:2032,0.018,-0.007,1.007,-20.02,-10.254,5.615,-1.198,3.263,-8.009
 15:10:18.356,eb:33:2e:f9:57:b5, 2085-97-204 255:220:255:2091,-0.017,0,0.993,-21.667,-3.54,6.165,-1.406,3.197,-7.949
 15:10:18.356,eb:33:2e:f9:57:b5, 2085-97-00 00:17:00:2106,-0.003,-0.001,1.033,-24.109,1.404,5.981,-1.637,3.175,-7.894
 15:10:18.356,eb:33:2e:f9:57:b5, 2085-97-232 255:11:00:2185,-0.041,0.001,1.038,-27.588,9.888,5.737,-1.895,3.241,-7.833
 15:10:18.447,eb:33:2e:f9:57:b5, 2085-97-124 255:23:00:2313,-0.056,0,1.094,-30.945,16.174,6.653,-2.192,3.367,-7.778
 15:10:18.447,eb:33:2e:f9:57:b5, 2085-97-217 255:32:00:2240,-0.004,0.021,1.121,-36.011,19.958,7.874,-2.527,3.554,-7.712
 15:10:18.447,eb:33:2e:f9:57:b5, 2085-97-06 00:61:00:2323,0.01,0.044,1.117,-43.396,30.762,10.803,-2.922,3.807,-7.635
 15:10:18.447,eb:33:2e:f9:57:b5, 2085-97-14 00:44:00:2483,-0.007,0.089,1.225,-54.626,40.833,15.076,-3.411,4.186,-7.52
 15:10:18.449,eb:33:2e:f9:57:b5, 2085-97-226 255:33:00:2659,-0.019,0.056,1.262,-70.557,48.096,18.921,-4.043,4.653,-7.383
 15:10:18.449,eb:33:2e:f9:57:b5, 2085-113-81 00:130:127:-1281,-0.049,0.037,1.314,-88.379,50.232,18.188,-4.839,5.158,-7.224
 15:10:18.449,eb:33:2e:f9:57:b5, 2085-97-93 255:00:00:2747,-0.121,0.027,1.378,-97.534,48.645,17.09,-5.306,5.405,-7.158
 15:10:18.449,eb:33:2e:f9:57:b5, 2085-97-42 255:89:00:2872,-0.153,0.037,1.445,-112.61,43.152,13.916,-6.356,5.889,-7.053
 15:10:18.507,eb:33:2e:f9:57:b5, 2085-97-234 254:45:00:3263,-0.149,0.055,1.482,-127.197,41.687,16.663,-7.559,6.323,-6.96
 15:10:18.507,eb:33:2e:f9:57:b5, 2085-97-164 254:100:00:3233,-0.19,0.098,1.534,-144.836,34.851,14.771,-8.915,6.707,-6.85
 15:10:18.507,eb:33:2e:f9:57:b5, 2085-97-129 254:19:01:3619,-0.24,0.103,1.743,-164.673,29.419,8.057,-10.47,7.053,-6.806
 15:10:18.507,eb:33:2e:f9:57:b5, 2085-97-168 253:63:01:3784,-0.351,0.123,1.786,-188.721,22.034,3.54,-12.25,7.311,-6.773
 15:10:18.507,eb:33:2e:f9:57:b5, 2085-97-69 253:205:01:4043,-0.372,0.215,1.906,-220.459,13.245,-6.409,-14.326,7.471,-6.833
 15:10:18.507,eb:33:2e:f9:57:b5, 2085-97-136 252:142:02:4226,-0.463,0.242,1.995,-255.981,8.85,-20.447,-16.754,7.531,-6.982
 15:10:18.507,eb:33:2e:f9:57:b5, 2085-97-52 252:110:03:4631,-0.541,0.408,2.185,-298.645,5.005,-35.461,-19.583,7.515,-7.284
 15:10:18.507,eb:33:2e:f9:57:b5, 2085-97-73 251:249:03:4901,-0.616,0.409,2.356,-346.252,-6.042,-54.382,-22.912,7.355,-7.696
 15:10:18.599,eb:33:2e:f9:57:b5, 2085-97-178 250:27:03:5204,-0.683,0.433,2.437,-393.005,-19.775,-70.74,-26.702,6.965,-8.212
 15:10:18.599,eb:33:2e:f9:57:b5, 2085-97-220 250:254:00:5243,-0.627,0.196,2.646,-427.856,-53.162,-86.853,-30.899,6.268,-8.74
 15:10:18.599,eb:33:2e:f9:57:b5, 2085-97-234 250:126:255:4533,-0.666,0.013,2.445,-448.181,-79.407,-95.703,-35.338,5.175,-9.119
 15:10:18.599,eb:33:2e:f9:57:b5, 2085-97-184 250:157:254:4168,-0.693,-0.157,2.165,-446.167,-82.275,-113.708,-39.842,3.906,-9.459
 15:10:18.599,eb:33:2e:f9:57:b5, 2085-97-255 249:22:254:4339,-0.75,-0.265,2.084,-434.265,-86.609,-129.089,-44.269,2.477,-9.811
 15:10:18.599,eb:33:2e:f9:57:b5, 2085-97-157 249:133:255:3632,-0.896,-0.132,1.856,-422.791,-95.703,-143.982,-48.549,0.807,-10.052
 15:10:18.599,eb:33:2e:f9:57:b5, 2085-97-131 248:136:03:3237,-0.879,0.146,1.771,-427.185,-36.438,-167.847,-52.784,-0.824,-10.536
 15:10:18.599,eb:33:2e:f9:57:b5, 2085-97-85 248:68:06:-015,-1.15,0.565,0.917,-422.729,34.424,-192.566,-57.036,-2.291,-11.591
 15:10:18.627,eb:33:2e:f9:57:b5, 2085-97-130 244:179:05:-640,-0.995,1.231,-1.484,-299.072,161.255,-194.336,-60.645,-3.543,-13.447
 15:10:18.627,eb:33:2e:f9:57:b5, 2085-97-181 250:243:09:1284,-0.637,0.761,0.451,-85.327,115.356,-197.937,-62.325,-4.691,-15.683
 15:10:18.627,eb:33:2e:f9:57:b5, 2085-97-252 249:161:12:1730,-0.76,1.535,0.605,94.36,68.542,-152.1,-61.985,-5.823,-17.276
 15:10:18.627,eb:33:2e:f9:57:b5, 2085-97-135 250:04:11:2131,-0.585,1.509,1.068,188.171,11.78,-126.282,-60.337,-6.823,-18.259
 15:10:18.717,eb:33:2e:f9:57:b5, 2085-97-217 251:24:09:1157,-0.462,1.245,0.822,205.322,-2.075,-134.155,-58.228,-7.938,-18.913
 15:10:18.717,eb:33:2e:f9:57:b5, 2085-97-00 253:14:08:339,-0.291,1.055,0.352,202.087,25.879,-146.118,-56.063,-9.058,-19.792
 15:10:18.717,eb:33:2e:f9:57:b5, 2085-97-76 254:73:08:118,-0.146,1.007,0.078,203.613,70.129,-148.621,-53.817,-9.987,-21.083
 15:10:18.717,eb:33:2e:f9:57:b5, 2085-97-77 255:214:08:375,-0.044,1.074,0.098,221.985,95.947,-130.859,-51.422,-10.574,-22.654
 15:10:18.717,eb:33:2e:f9:57:b5, 2085-97-17 00:26:09:850,0.054,1.13,0.299,253.235,94.055,-94.543,-48.741,-10.811,-24.142
 15:10:18.717,eb:33:2e:f9:57:b5, 2085-97-107 00:163:08:1376,0.065,1.129,0.547,285.4,70.496,-47.546,-45.824,-10.761,-25.241
 15:10:18.717,eb:33:2e:f9:57:b5, 2085-97-159 00:92:07:1400,0.089,1.008,0.708,305.237,39.185,-3.723,-42.731,-10.547,-25.779
 15:10:18.717,eb:33:2e:f9:57:b5, 2085-97-199 00:223:05:1211,0.097,0.826,0.637,307.19,33.203,29.236,-39.639,-10.195,-25.889
 15:10:18.776,eb:33:2e:f9:57:b5, 2085-97-147 00:182:04:1205,0.075,0.656,0.567,295.41,57.251,52.368,-36.617,-9.58,-25.829
 15:10:18.776,eb:33:2e:f9:57:b5, 2085-97-116 00:238:03:1440,0.035,0.525,0.627,278.503,95.398,70.374,-33.766,-8.586,-25.763
 15:10:18.776,eb:33:2e:f9:57:b5, 2085-97-36 00:122:03:1755,-0.011,0.464,0.777,267.395,126.587,87.891,-31.042,-7.191,-25.703
 15:10:18.776,eb:33:2e:f9:57:b5, 2085-97-157 255:25:03:2281,-0.074,0.41,0.972,269.897,139.526,109.802,-28.389,-5.521,-25.505
 15:10:18.806,eb:33:2e:f9:57:b5, 2085-97-52 255:132:02:2711,-0.125,0.354,1.229,279.114,133.972,129.883,-25.653,-3.741,-25.049
 15:10:18.806,eb:33:2e:f9:57:b5, 2085-97-205 254:205:01:3003,-0.179,0.274,1.404,287.72,121.704,144.165,-22.852,-2.01,-24.318
 15:10:18.806,eb:33:2e:f9:57:b5, 2085-97-87 254:12:01:3228,-0.232,0.177,1.523,292.542,110.107,151.123,-19.94,-0.396,-23.351
 15:10:18.806,eb:33:2e:f9:57:b5, 2085-97-235 253:89:00:3467,-0.292,0.087,1.628,294.067,100.83,151.794,-17.001,1.077,-22.253
 15:10:18.869,eb:33:2e:f9:57:b5, 2085-97-109 253:203:255:3776,-0.343,0.005,1.768,294.006,90.698,147.888,-13.997,2.401,-21.061
 15:10:18.869,eb:33:2e:f9:57:b5, 2085-97-18 253:125:255:4000,-0.389,-0.046,1.908,293.274,76.172,141.479,-10.997,3.505,-19.847
 15:10:18.869,eb:33:2e:f9:57:b5, 2085-97-174 252:50:255:4179,-0.448,-0.079,1.991,293.274,61.218,135.681,-7.954,4.406,-18.594
 15:10:18.869,eb:33:2e:f9:57:b5, 2085-97-35 252:225:254:4355,-0.513,-0.113,2.087,294.373,46.997,130.798,-4.911,5.081,-17.331
 15:10:18.869,eb:33:2e:f9:57:b5, 2085-97-175 251:65:254:4575,-0.581,-0.167,2.158,294.861,36.377,125.793,-1.818,5.565,-16.068
 15:10:18.869,eb:33:2e:f9:57:b5, 2085-97-45 251:36:253:4967,-0.622,-0.277,2.332,293.03,27.1,122.192,1.241,5.894,-14.821
 15:10:18.869,eb:33:2e:f9:57:b5, 2085-97-217 250:89:251:5191,-0.666,-0.469,2.49,286.194,9.46,117.615,4.29,6.015,-13.612
 15:10:18.869,eb:33:2e:f9:57:b5, 2085-97-168 250:234:248:5193,-0.675,-0.719,2.559,275.085,-12.939,113.037,7.213,5.872,-12.458
 15:10:18.930,eb:33:2e:f9:57:b5, 2085-97-168 249:37:245:4966,-0.873,-1.084,2.468,262.573,-27.161,105.347,10.025,5.493,-11.409
 15:10:18.930,eb:33:2e:f9:57:b5, 2085-97-88 248:166:240:4255,-0.928,-1.625,2.279,254.395,-34.851,86.304,12.678,4.982,-10.53
 15:10:18.930,eb:33:2e:f9:57:b5, 2085-97-240 249:245:236:2660,-0.599,-2.175,1.714,243.958,-8.728,45.715,15.238,4.57,-9.954
 15:10:18.930,eb:33:2e:f9:57:b5, 2085-97-116 252:195:235:1984,-0.235,-2.493,1.042,219.666,90.393,-10.071,17.578,4.927,-9.679
 15:10:18.956,eb:33:2e:f9:57:b5, 2085-97-95 00:158:236:2385,0.365,-2.509,1.032,186.34,194.702,-57.8,19.616,6.482,-9.553
 15:10:18.956,eb:33:2e:f9:57:b5, 2085-97-138 05:219:238:3189,0.985,-2.298,1.339,156.311,246.277,-74.951,21.33,8.871,-9.41
 15:10:18.956,eb:33:2e:f9:57:b5, 2085-97-223 09:73:240:4173,1.409,-2.028,1.792,127.563,224.976,-55.664,22.797,11.349,-9.119
 15:10:18.956,eb:33:2e:f9:57:b5, 2085-97-14 12:202:239:4722,1.535,-1.967,2.235,95.276,139.526,-15.442,23.989,13.162,-8.701
 15:10:18.989,eb:33:2e:f9:57:b5, 2085-97-243 11:220:237:4150,1.411,-2.14,2.215,58.472,27.405,29.175,24.846,13.826,-8.284
 15:10:18.989,eb:33:2e:f9:57:b5, 2085-97-122 10:66:236:3007,1.211,-2.389,1.763,15.93,-51.086,59.082,25.285,13.436,-7.932
 15:10:18.989,eb:33:2e:f9:57:b5, 2085-97-07 09:156:236:2019,1.074,-2.483,1.192,-31.616,-66.223,69.519,25.252,12.568,-7.603
 15:10:18.989,eb:33:2e:f9:57:b5, 2085-97-105 09:87:240:2442,-0.282,-2.298,0.887,-72.998,-37.598,74.036,24.791,11.788,-7.163
 15:10:19.106,eb:33:2e:f9:57:b5, 2085-97-66 06:41:09:827,0.458,-1.232,5.992,-204.651,-291.199,-8.24,23.516,10.541,-6.735
 15:10:19.106,eb:33:2e:f9:57:b5, 2085-97-18 04:110:16:1238,0.302,2.213,0.115,-277.771,-164.307,89.783,21.143,8.372,-6.899
 15:10:19.106,eb:33:2e:f9:57:b5, 2085-97-197 00:16:02:2586,0.212,1.289,0.91,-360.718,-104.431,48.462,17.836,6.96,-6.724
 15:10:19.106,eb:33:2e:f9:57:b5, 2085-97-188 02:09:246:2929,0.421,-0.779,1.508,-326.355,-110.657,10.803,14.321,5.872,-6.735
 15:10:19.108,eb:33:2e:f9:57:b5, 2085-97-131 03:238:250:2398,0.392,-0.979,1.245,-248.291,-106.506,-23.254,11.47,4.801,-7.081
 15:10:19.108,eb:33:2e:f9:57:b5, 2085-97-94 01:83:253:2488,0.012,-0.411,1.169,-196.655,-60.425,-52.185,9.24,4.032,-7.641
 15:10:19.108,eb:33:2e:f9:57:b5, 2085-97-161 01:124:00:1956,0.315,-0.222,1.198,-161.865,-37.598,-57.007,7.432,3.686,-8.273
 15:10:19.108,eb:33:2e:f9:57:b5, 2085-97-215 00:47:01:1944,-0.146,0.205,0.831,-150.574,-8.362,-29.297,5.85,3.494,-8.734
 15:10:19.110,eb:33:2e:f9:57:b5, 2085-97-169 253:177:253:2499,-0.326,-0.104,1.132,-134.277,-0.061,-10.132,4.4,3.499,-8.893
 15:10:19.110,eb:33:2e:f9:57:b5, 2085-97-215 253:170:253:2376,-0.175,-0.329,1.228,-100.525,-22.095,-9.644,3.23,3.389,-8.998
 15:10:19.110,eb:33:2e:f9:57:b5, 2085-97-188 254:171:253:2179,-0.109,-0.334,1.078,-62.5,-36.926,2.197,2.422,3.065,-9.047
 15:10:19.110,eb:33:2e:f9:57:b5, 2085-97-72 00:62:254:1933,0.142,-0.218,1.029,-34.668,-45.227,8.179,1.967,2.642,-8.998
 15:10:19.168,eb:33:2e:f9:57:b5, 2085-97-71 01:118:255:1770,0.073,-0.167,0.877,-19.592,-33.875,-1.587,1.708,2.236,-8.981
 15:10:19.168,eb:33:2e:f9:57:b5, 2085-97-21 00:102:255:2018,0.065,-0.049,0.934,-10.803,-18.25,-0.061,1.56,1.994,-9.003
 15:10:19.168,eb:33:2e:f9:57:b5, 2085-97-200 00:179:255:1930,0.064,-0.056,0.958,-4.822,-13.672,-2.93,1.478,1.824,-9.025
 15:10:19.168,eb:33:2e:f9:57:b5, 2085-97-125 00:03:00:1959,0.026,-0.033,0.955,-0.305,-6.897,-3.052,1.45,1.725,-9.058
 15:10:19.168,eb:33:2e:f9:57:b5, 2085-113-81 00:144:127:457,0,-0.008,0.983,1.038,-2.869,-3.845,1.45,1.681,-9.097
 15:10:19.196,eb:33:2e:f9:57:b5, 2085-97-233 255:246:255:2086,-0.017,-0.013,1.005,1.831,-3.479,-4.089,1.456,1.664,-9.119
 15:10:19.196,eb:33:2e:f9:57:b5, 2085-97-241 255:36:00:2095,0.023,-0.002,1.025,2.502,-5.554,-4.822,1.478,1.62,-9.163
 15:10:19.196,eb:33:2e:f9:57:b5, 2085-97-123 00:30:00:2001,0.054,0.022,1.011,1.282,-5.005,-4.883,1.483,1.555,-9.218
 15:10:19.196,eb:33:2e:f9:57:b5, 2085-97-99 00:58:00:2083,0.051,0.017,1.005,-1.221,-1.587,-5.798,1.478,1.522,-9.278
 15:10:19.256,eb:33:2e:f9:57:b5, 2085-97-126 00:64:00:2020,0.056,0.035,1.009,-3.54,4.822,-3.296,1.445,1.538,-9.311
 15:10:19.256,eb:33:2e:f9:57:b5, 2085-97-86 00:42:00:2025,0.023,0.025,0.985,-4.272,11.353,-1.526,1.401,1.62,-9.333
 15:10:19.256,eb:33:2e:f9:57:b5, 2085-97-04 00:30:00:2062,-0.007,0.014,0.998,-4.761,13.977,-1.709,1.346,1.747,-9.344
 15:10:19.256,eb:33:2e:f9:57:b5, 2085-97-237 255:20:00:2057,-0.016,0.014,1.006,-4.456,13.855,-1.587,1.296,1.884,-9.36
 15:10:19.286,eb:33:2e:f9:57:b5, 2085-97-237 255:36:00:2071,-0.021,0.009,1.011,-3.662,13,-1.038,1.247,2.01,-9.371
 15:10:19.286,eb:33:2e:f9:57:b5, 2085-97-164 255:57:00:2132,-0.067,0.025,1.023,-3.479,12.329,0.549,1.214,2.142,-9.371
 15:10:19.286,eb:33:2e:f9:57:b5, 2085-97-55 255:02:00:2183,-0.1,0.024,1.049,-4.028,8.606,1.526,1.165,2.236,-9.36
 15:10:19.286,eb:33:2e:f9:57:b5, 2085-97-55 255:225:255:2175,-0.086,-0.016,1.063,-2.319,-0.122,1.526,1.132,2.28,-9.344
 15:10:19.316,eb:33:2e:f9:57:b5, 2085-97-99 255:01:00:2154,-0.062,-0.005,1.054,-0.488,-9.033,1.526,1.11,2.214,-9.333
 15:10:19.316,eb:33:2e:f9:57:b5, 2085-97-123 255:28:00:2153,-0.055,0.005,1.047,0,-15.625,1.892,1.11,2.087,-9.316
 15:10:19.316,eb:33:2e:f9:57:b5, 2085-97-197 255:60:00:2113,-0.001,0.022,1.046,-0.366,-20.935,2.625,1.104,1.89,-9.3
 15:10:19.316,eb:33:2e:f9:57:b5, 2085-97-53 00:77:00:2047,0.051,0.032,1.014,-1.465,-21.24,3.174,1.093,1.675,-9.272
 15:10:19.378,eb:33:2e:f9:57:b5, 2085-97-97 00:84:00:2031,0.051,0.04,0.985,-3.113,-17.212,3.418,1.06,1.472,-9.245
 15:10:19.378,eb:33:2e:f9:57:b5, 2085-97-100 00:95:00:2038,0.055,0.048,0.989,-5.676,-11.597,3.784,1.016,1.329,-9.212
 15:10:19.378,eb:33:2e:f9:57:b5, 2085-97-97 00:95:00:2063,0.033,0.047,0.995,-8.606,-5.737,4.028,0.934,1.23,-9.179
 15:10:19.378,eb:33:2e:f9:57:b5, 2085-97-44 00:82:00:2101,0.003,0.044,1.019,-11.475,-1.038,4.456,0.835,1.203,-9.135
 15:10:19.407,eb:33:2e:f9:57:b5, 2085-97-232 255:64:00:2131,-0.027,0.035,1.035,-13.794,0.366,5.249,0.698,1.192,-9.086
 15:10:19.407,eb:33:2e:f9:57:b5, 2085-97-210 255:21:00:2118,-0.024,0.016,1.039,-15.442,-1.709,5.249,0.549,1.192,-9.031
 15:10:19.407,eb:33:2e:f9:57:b5, 2085-97-120 255:237:255:2178,-0.033,0.005,1.051,-16.296,-4.883,5.005,0.385,1.148,-8.981
 15:10:19.407,eb:33:2e:f9:57:b5, 2085-97-168 255:251:255:2133,-0.014,0.006,1.038,-15.869,-9.521,5.92,0.22,1.071,-8.926
 15:10:19.559,eb:33:2e:f9:57:b5, 2085-97-28 00:07:00:2072,0,0.001,1.025,-16.357,-13.306,5.188,0.055,0.939,-8.877
 15:10:19.559,eb:33:2e:f9:57:b5, 2085-97-66 00:00:00:2037,0.039,0.001,1.017,-16.785,-11.841,5.859,-0.11,0.818,-8.822
 15:10:19.559,eb:33:2e:f9:57:b5, 2085-97-86 00:56:00:2106,0.063,0.006,1.003,-17.578,-7.996,6.592,-0.286,0.709,-8.762
 15:10:19.559,eb:33:2e:f9:57:b5, 2085-97-247 255:242:255:2190,0.024,0.063,1.069,-22.461,-0.793,7.874,-0.483,0.665,-8.696
 15:10:19.559,eb:33:2e:f9:57:b5, 2085-97-155 00:31:00:2003,0.121,-0.022,1.011,-24.292,1.404,6.287,-0.731,0.654,-8.624
 15:10:19.559,eb:33:2e:f9:57:b5, 2085-97-00 01:38:00:1975,0.067,0.036,0.97,-26.611,12.024,8.362,-0.983,0.725,-8.553
 15:10:19.559,eb:33:2e:f9:57:b5, 2085-97-27 00:252:255:2160,-0.019,0.003,1.016,-29.419,24.231,9.399,-1.269,0.912,-8.47
 15:10:19.560,eb:33:2e:f9:57:b5, 2085-97-189 255:240:255:2254,-0.05,-0.006,1.082,-31.433,27.588,10.559,-1.577,1.181,-8.377
 15:10:19.562,eb:33:2e:f9:57:b5, 2085-97-110 255:05:00:2385,-0.044,-0.022,1.114,-34.058,27.405,10.986,-1.906,1.45,-8.273
 15:10:19.562,eb:33:2e:f9:57:b5, 2085-97-172 255:58:00:2446,-0.015,0.002,1.127,-39.185,28.015,12.39,-2.274,1.725,-8.168
 15:10:19.562,eb:33:2e:f9:57:b5, 2085-97-31 00:88:00:2423,0.025,0.023,1.151,-47.607,28.809,14.648,-2.714,2,-8.047
 15:10:19.562,eb:33:2e:f9:57:b5, 2085-97-91 00:54:00:2378,0.051,0.058,1.227,-59.814,31.921,18.799,-3.246,2.318,-7.894
 15:10:19.564,eb:33:2e:f9:57:b5, 2085-97-92 00:87:00:2638,0.03,0.043,1.257,-74.158,38.33,20.081,-3.922,2.686,-7.718
 15:10:19.564,eb:33:2e:f9:57:b5, 2085-97-07 00:39:00:2783,-0.061,0.026,1.322,-92.468,43.884,19.409,-4.757,3.115,-7.548
 15:10:19.564,eb:33:2e:f9:57:b5, 2085-97-54 255:84:00:3004,-0.119,0.052,1.417,-110.474,45.898,18.677,-5.773,3.576,-7.405
 15:10:19.564,eb:33:2e:f9:57:b5, 2085-97-48 255:59:00:3292,-0.111,0.055,1.58,-125.732,38.94,17.334,-6.954,4.037,-7.278
 15:10:19.617,eb:33:2e:f9:57:b5, 2085-97-250 254:235:00:3624,-0.181,0.097,1.626,-145.996,30.64,15.991,-8.328,4.378,-7.158
 15:10:19.617,eb:33:2e:f9:57:b5, 2085-97-17 254:02:01:3736,-0.266,0.08,1.699,-165.833,23.376,12.878,-9.888,4.642,-7.053
 15:10:19.617,eb:33:2e:f9:57:b5, 2085-97-128 253:75:01:3907,-0.363,0.133,1.893,-189.697,9.827,3.967,-11.678,4.818,-7.009
 15:10:19.617,eb:33:2e:f9:57:b5, 2085-97-04 253:78:01:3957,-0.42,0.197,1.952,-217.224,-0.854,-5.005,-13.727,4.85,-7.048
 15:10:19.676,eb:33:2e:f9:57:b5, 2085-97-116 252:195:02:4298,-0.435,0.247,2.027,-250.488,-5.188,-19.409,-16.089,4.796,-7.169
 15:10:19.676,eb:33:2e:f9:57:b5, 2085-97-100 252:171:03:4459,-0.518,0.382,2.142,-290.405,-13,-33.386,-18.842,4.614,-7.41
 15:10:19.676,eb:33:2e:f9:57:b5, 2085-97-00 251:93:03:4890,-0.79,0.433,2.255,-335.266,-20.691,-48.462,-22.017,4.301,-7.74
 15:10:19.676,eb:33:2e:f9:57:b5, 2085-97-49 249:173:02:4793,-0.901,0.413,2.325,-380.127,-44.373,-68.237,-25.659,3.746,-8.157
 15:10:19.678,eb:33:2e:f9:57:b5, 2085-97-15 249:14:01:4942,-0.817,0.274,2.444,-412.903,-78.735,-87.708,-29.674,2.818,-8.58
 15:10:19.678,eb:33:2e:f9:57:b5, 2085-97-145 250:90:255:5184,-0.559,-0.02,2.499,-427.551,-116.882,-103.088,-33.92,1.489,-8.882
 15:10:19.678,eb:33:2e:f9:57:b5, 2085-97-148 251:59:252:4147,-0.587,-0.162,2.193,-426.514,-150.452,-110.107,-38.199,-0.291,-8.921
 15:10:19.678,eb:33:2e:f9:57:b5, 2085-97-183 251:109:253:4149,-0.619,-0.258,1.978,-411.438,-153.076,-135.559,-42.396,-2.258,-8.915
 15:10:19.736,eb:33:2e:f9:57:b5, 2085-97-145 251:06:01:3843,-0.541,-0.059,2.153,-394.104,-180.359,-150.757,-46.412,-4.482,-8.806
 15:10:19.736,eb:33:2e:f9:57:b5, 2085-97-149 250:222:02:3155,-0.846,0.262,1.6,-397.705,-158.447,-144.958,-50.383,-6.746,-8.459
 15:10:19.736,eb:33:2e:f9:57:b5, 2085-97-92 248:45:05:2731,-0.97,0.542,1.522,-413.208,-75.867,-154.053,-54.432,-8.63,-8.476
 15:10:19.736,eb:33:2e:f9:57:b5, 2085-97-28 247:39:12:-1343,-1.176,0.777,0.623,-403.259,-17.273,-184.326,-58.486,-10.294,-9.064
 15:10:19.767,eb:33:2e:f9:57:b5, 2085-97-92 249:73:04:-610,-0.543,0.827,-0.755,-276.306,79.285,-178.04,-61.633,-11.646,-10.344
 15:10:19.767,eb:33:2e:f9:57:b5, 2085-97-129 252:184:08:609,-0.53,0.688,0.173,-89.478,84.717,-153.992,-63.051,-12.695,-11.92
 15:10:19.767,eb:33:2e:f9:57:b5, 2085-97-253 250:42:10:1512,-0.639,1.255,0.431,87.158,58.35,-105.469,-62.6,-13.508,-13.189
 15:10:19.767,eb:33:2e:f9:57:b5, 2085-97-68 251:240:08:1816,-0.531,1.205,0.934,176.819,4.7,-76.477,-61.013,-14.134,-13.876
 15:10:19.796,eb:33:2e:f9:57:b5, 2085-97-37 252:209:07:993,-0.443,1.043,0.701,205.444,-12.451,-75.745,-58.964,-14.826,-14.183
 15:10:19.796,eb:33:2e:f9:57:b5, 2085-97-205 252:226:06:308,-0.344,0.911,0.296,207.886,11.475,-82.764,-56.777,-15.507,-14.612
 15:10:19.796,eb:33:2e:f9:57:b5, 2085-97-177 253:145:06:003,-0.233,0.829,0.048,205.261,54.321,-88.928,-54.487,-16.024,-15.419
 15:10:19.796,eb:33:2e:f9:57:b5, 2085-97-146 254:215:06:121,-0.122,0.832,0.005,213.379,91.37,-84.29,-52.075,-16.276,-16.606
 15:10:19.887,eb:33:2e:f9:57:b5, 2085-97-107 255:47:07:547,-0.023,0.882,0.152,235.413,107.483,-63.11,-49.449,-16.199,-17.919
 15:10:19.887,eb:33:2e:f9:57:b5, 2085-113-81 00:177:113:-13348,0.046,0.886,0.369,266.418,98.206,-26.428,-46.626,-15.831,-19.034
 15:10:19.887,eb:33:2e:f9:57:b5, 2085-97-90 00:89:07:1364,0.05,0.899,0.486,280.518,89.844,-5.432,-45.126,-15.551,-19.435
 15:10:19.887,eb:33:2e:f9:57:b5, 2085-97-103 00:192:06:1647,0.047,0.894,0.769,299.255,61.951,35.034,-42.105,-14.897,-19.852
 15:10:19.889,eb:33:2e:f9:57:b5, 2085-97-92 00:156:05:1539,0.027,0.779,0.789,307.678,42.847,72.144,-39.067,-14.15,-19.748
 15:10:19.889,eb:33:2e:f9:57:b5, 2085-97-13 00:53:04:1399,-0.006,0.615,0.717,304.626,49.377,99.609,-36.107,-13.266,-19.308
 15:10:19.889,eb:33:2e:f9:57:b5, 2085-97-197 255:29:03:1338,-0.056,0.448,0.654,294.006,81.421,116.516,-33.217,-12.101,-18.765
 15:10:19.889,eb:33:2e:f9:57:b5, 2085-97-76 255:83:02:1617,-0.12,0.334,0.694,284.058,123.23,127.747,-30.432,-10.563,-18.265
 15:10:19.916,eb:33:2e:f9:57:b5, 2085-97-208 254:236:01:2234,-0.172,0.26,0.929,282.471,149.78,139.16,-27.675,-8.69,-17.77
 15:10:19.916,eb:33:2e:f9:57:b5, 2085-97-121 254:178:01:2840,-0.209,0.226,1.249,287.537,150.635,151.184,-24.911,-6.68,-17.139
 15:10:19.916,eb:33:2e:f9:57:b5, 2085-97-78 254:36:01:3168,-0.224,0.185,1.496,294.373,133.545,161.194,-22.066,-4.746,-16.26
 15:10:19.916,eb:33:2e:f9:57:b5, 2085-97-255 253:87:00:3282,-0.278,0.093,1.574,300.964,116.638,165.466,-19.188,-3.027,-15.172
 15:10:19.976,eb:33:2e:f9:57:b5, 2085-97-150 253:150:255:3452,-0.327,-0.016,1.639,305.115,108.337,160.156,-16.177,-1.467,-13.947
 15:10:19.976,eb:33:2e:f9:57:b5, 2085-97-32 253:79:255:3769,-0.391,-0.075,1.752,305.847,106.567,148.376,-13.134,-0.044,-12.733
 15:10:19.976,eb:33:2e:f9:57:b5, 2085-97-194 252:73:255:4140,-0.421,-0.087,1.943,306.091,98.145,135.193,-10.042,1.252,-11.558
 15:10:19.976,eb:33:2e:f9:57:b5, 2085-97-154 252:75:255:4443,-0.417,-0.091,2.109,307.251,82.947,125,-6.938,2.335,-10.41
 15:10:20.008,eb:33:2e:f9:57:b5, 2085-97-144 252:251:254:4648,-0.432,-0.105,2.213,307.434,69.397,118.225,-3.785,3.197,-9.272
 15:10:20.008,eb:33:2e:f9:57:b5, 2085-97-140 252:115:254:4771,-0.45,-0.155,2.299,308.899,60.669,114.685,-0.632,3.884,-8.141
 15:10:20.008,eb:33:2e:f9:57:b5, 2085-97-70 252:164:253:5057,-0.455,-0.242,2.401,312.683,57.617,114.38,2.576,4.455,-6.976
 15:10:20.008,eb:33:2e:f9:57:b5, 2085-97-127 252:176:252:5109,-0.504,-0.354,2.502,314.758,54.565,115.295,5.817,4.922,-5.79
 15:10:20.036,eb:33:2e:f9:57:b5, 2085-97-139 250:69:250:5179,-0.843,-0.529,2.487,312.378,50.11,117.554,9.086,5.301,-4.554
 15:10:20.036,eb:33:2e:f9:57:b5, 2085-97-220 248:65:246:4958,-0.966,-0.946,2.527,307.739,25.024,112.549,12.305,5.455,-3.345
 15:10:20.036,eb:33:2e:f9:57:b5, 2085-97-222 247:129:241:4361,-1.007,-1.523,2.306,290.039,16.418,87.524,15.414,5.389,-2.313
 15:10:20.036,eb:33:2e:f9:57:b5, 2085-97-179 248:249:237:3267,-0.729,-2.066,1.869,259.094,39.368,41.199,18.221,5.455,-1.626
 15:10:20.097,eb:33:2e:f9:57:b5, 2085-97-252 251:188:236:2411,-0.205,-2.365,1.341,215.637,109.192,-15.259,20.627,6.119,-1.274
 15:10:20.097,eb:33:2e:f9:57:b5, 2085-97-241 00:21:238:2452,0.494,-2.363,1.118,170.288,201.599,-63.477,22.549,7.773,-1.082
 15:10:20.097,eb:33:2e:f9:57:b5, 2085-97-212 06:169:240:3465,1.141,-2.091,1.378,135.315,258.606,-78.308,24.099,10.256,-0.824
 15:10:20.097,eb:33:2e:f9:57:b5, 2085-97-07 11:143:242:4652,1.524,-1.765,2.037,108.215,230.042,-53.101,25.389,12.827,-0.374
 15:10:20.127,eb:33:2e:f9:57:b5, 2085-97-107 12:150:241:4914,1.509,-1.701,2.393,83.862,124.695,0.854,26.483,14.513,0.187
 15:10:20.127,eb:33:2e:f9:57:b5, 2085-97-49 11:155:238:3997,1.208,-1.965,2.239,49.683,10.925,49.011,27.285,14.914,0.731
 15:10:20.127,eb:33:2e:f9:57:b5, 2085-97-131 08:33:236:2539,0.943,-2.396,1.542,1.221,-45.349,70.862,27.642,14.387,1.187
 15:10:20.127,eb:33:2e:f9:57:b5, 2085-97-245 06:73:237:2162,0.833,-2.47,1.076,-38.025,-31.921,68.665,27.537,13.694,1.631
 15:10:20.156,eb:33:2e:f9:57:b5, 2085-97-167 06:44:241:2594,0.984,-2.125,1.132,-67.871,-10.864,66.284,27.098,13.217,2.148
 15:10:20.156,eb:33:2e:f9:57:b5, 2085-97-45 250:146:255:12899,0.367,-1.354,1.77,-107.3,73.914,85.449,26.428,12.942,2.823
 15:10:20.156,eb:33:2e:f9:57:b5, 2085-97-65 01:198:20:158,-0.039,1.792,0.323,-249.878,-127.319,37.109,24.247,11.415,2.571
 15:10:20.156,eb:33:2e:f9:57:b5, 2085-97-219 255:213:08:1677,0.003,2.054,0.697,-360.291,-91.553,24.048,21.116,10.322,2.494
 15:10:20.307,eb:33:2e:f9:57:b5, 2085-97-202 01:58:251:2511,0.444,0.14,1.135,-379.395,-91.064,9.949,17.271,9.41,2.324
 15:10:20.307,eb:33:2e:f9:57:b5, 2085-97-54 03:52:251:2460,0.472,-0.762,1.292,-320.435,-88.501,-7.446,13.738,8.514,2.082
 15:10:20.307,eb:33:2e:f9:57:b5, 2085-97-186 02:213:251:2596,0.155,-0.509,1.246,-269.287,-54.749,-41.26,10.767,7.828,1.692
 15:10:20.307,eb:33:2e:f9:57:b5, 2085-97-255 00:112:253:2391,0.119,-0.494,1.26,-226.624,-15.564,-83.923,8.218,7.641,0.972
 15:10:20.309,eb:33:2e:f9:57:b5, 2085-97-242 255:14:00:2161,-0.202,-0.122,1.042,-203.308,10.254,-86.975,5.96,7.718,0.071
 15:10:20.309,eb:33:2e:f9:57:b5, 2085-97-179 252:145:255:2726,-0.467,-0.024,1.176,-182.434,21.423,-53.589,3.939,7.976,-0.61
 15:10:20.309,eb:33:2e:f9:57:b5, 2085-97-196 251:156:253:2869,-0.486,-0.197,1.412,-149.414,-4.211,-17.7,2.219,8.075,-0.945
 15:10:20.309,eb:33:2e:f9:57:b5, 2085-97-34 253:59:252:2452,-0.179,-0.452,1.351,-102.661,-39.246,3.967,0.967,7.833,-0.983
 15:10:20.311,eb:33:2e:f9:57:b5, 2085-97-147 255:84:253:1927,0.047,-0.463,1.062,-57.129,-52.307,8.179,0.198,7.333,-0.901
 15:10:20.311,eb:33:2e:f9:57:b5, 2085-97-49 00:90:255:1824,0.012,-0.17,0.884,-35.034,-41.016,6.714,-0.214,6.85,-0.829
 15:10:20.311,eb:33:2e:f9:57:b5, 2085-97-01 00:217:254:1882,0.011,-0.113,0.909,-27.71,-26.123,3.357,-0.533,6.52,-0.78
 15:10:20.311,eb:33:2e:f9:57:b5, 2085-97-11 00:24:255:1902,-0.024,-0.148,0.919,-16.846,-15.686,2.38,-0.742,6.317,-0.753
 15:10:20.366,eb:33:2e:f9:57:b5, 2085-97-135 255:114:255:1988,-0.073,-0.07,0.955,-9.888,-5.31,1.77,-0.873,6.213,-0.731
 15:10:20.366,eb:33:2e:f9:57:b5, 2085-97-151 255:109:255:1956,-0.051,-0.071,0.969,-6.226,-3.479,-0.122,-0.956,6.174,-0.725
 15:10:20.366,eb:33:2e:f9:57:b5, 2085-97-125 255:131:255:2012,-0.085,-0.068,0.963,-2.319,-0.61,-0.244,-1.005,6.147,-0.731
 15:10:20.366,eb:33:2e:f9:57:b5, 2085-97-62 255:215:255:2115,-0.101,-0.043,1.012,-0.305,-0.427,0.061,-1.016,6.141,-0.731
 15:10:20.368,eb:33:2e:f9:57:b5, 2085-97-75 255:04:00:2132,-0.067,-0.006,1.045,-1.648,-2.625,1.831,-1.033,6.119,-0.72
 15:10:20.368,eb:33:2e:f9:57:b5, 2085-97-141 255:25:00:2095,-0.051,0.008,1.03,-4.7,-0.854,3.418,-1.066,6.097,-0.698
 15:10:20.368,eb:33:2e:f9:57:b5, 2085-97-145 255:21:00:2081,-0.056,0.013,1.017,-7.996,4.7,4.761,-1.137,6.114,-0.654
 15:10:20.368,eb:33:2e:f9:57:b5, 2085-97-102 255:226:255:2084,-0.056,0.002,1.013,-10.376,9.216,6.104,-1.225,6.185,-0.604
 15:10:20.396,eb:33:2e:f9:57:b5, 2085-97-113 255:209:255:2044,-0.095,-0.017,0.994,-11.353,11.108,6.531,-1.34,6.279,-0.544
 15:10:20.396,eb:33:2e:f9:57:b5, 2085-97-20 255:199:255:2091,-0.135,-0.027,1.008,-11.292,11.169,7.08,-1.45,6.4,-0.478
 15:10:20.396,eb:33:2e:f9:57:b5, 2085-97-207 254:179:255:2128,-0.149,-0.036,1.034,-10.315,7.446,7.751,-1.56,6.487,-0.406
 15:10:20.396,eb:33:2e:f9:57:b5, 2085-97-206 254:160:255:2109,-0.162,-0.041,1.035,-9.155,0.732,7.751,-1.648,6.526,-0.335
 15:10:20.456,eb:33:2e:f9:57:b5, 2085-97-187 254:155:255:2139,-0.172,-0.054,1.037,-6.714,-6.775,8.118,-1.73,6.493,-0.253
 15:10:20.456,eb:33:2e:f9:57:b5, 2085-97-151 254:157:255:2170,-0.163,-0.046,1.059,-5.127,-15.564,8.667,-1.78,6.378,-0.165
 15:10:20.456,eb:33:2e:f9:57:b5, 2085-97-243 254:185:255:2114,-0.101,-0.042,1.051,-4.089,-24.78,8.301,-1.824,6.169,-0.077
 15:10:20.456,eb:33:2e:f9:57:b5, 2085-97-112 255:208:255:2047,-0.049,-0.028,1.019,-4.333,-28.687,7.935,-1.857,5.894,0.011
 15:10:20.486,eb:33:2e:f9:57:b5, 2085-97-165 255:222:255:2024,-0.037,-0.02,0.987,-5.249,-26.489,7.874,-1.906,5.614,0.093
 15:10:20.486,eb:33:2e:f9:57:b5, 2085-97-183 255:213:255:2026,-0.016,-0.02,0.985,-6.348,-22.095,7.629,-1.956,5.372,0.181
 15:10:20.486,eb:33:2e:f9:57:b5, 2085-97-208 255:227:255:2023,-0.029,-0.015,0.979,-7.141,-16.418,7.996,-2.027,5.175,0.264
 15:10:20.486,eb:33:2e:f9:57:b5, 2085-97-181 255:226:255:2038,-0.051,-0.014,0.993,-8.362,-11.414,8.24,-2.098,5.043,0.352
 15:10:20.606,eb:33:2e:f9:57:b5, 2085-97-129 255:201:255:2069,-0.053,-0.021,1.005,-9.705,-8.728,7.812,-2.192,4.944,0.434
 15:10:20.606,eb:33:2e:f9:57:b5, 2085-97-150 255:190:255:2042,-0.057,-0.027,0.998,-10.437,-7.996,7.324,-2.291,4.861,0.511
 15:10:20.607,eb:33:2e:f9:57:b5, 2085-113-58 00:13:02:-3405,-0.056,-0.042,0.996,-10.62,-7.69,6.714,-2.401,4.779,0.582
 15:10:20.607,eb:33:2e:f9:57:b5, 2085-97-116 255:174:255:2066,-0.081,-0.04,0.997,-10.803,-7.69,6.714,-2.45,4.741,0.615
 15:10:20.607,eb:33:2e:f9:57:b5, 2085-97-80 255:188:255:2109,-0.098,-0.038,1.024,-12.146,-8.423,6.165,-2.56,4.664,0.687
 15:10:20.607,eb:33:2e:f9:57:b5, 2085-97-48 255:191:255:2151,-0.097,-0.028,1.05,-14.099,-10.498,5.31,-2.697,4.565,0.747
 15:10:20.607,eb:33:2e:f9:57:b5, 2085-97-59 255:180:255:2157,-0.08,-0.038,1.054,-16.052,-12.939,4.517,-2.845,4.444,0.797
 15:10:20.608,eb:33:2e:f9:57:b5, 2085-97-130 255:169:255:2081,-0.032,-0.038,1.038,-18.005,-13.733,2.991,-3.021,4.307,0.84
 15:10:20.608,eb:33:2e:f9:57:b5, 2085-97-221 255:185:255:2054,-0.002,-0.042,1.005,-19.409,-10.681,2.319,-3.208,4.18,0.873
 15:10:20.612,eb:33:2e:f9:57:b5, 2085-97-235 255:184:255:2042,-0.023,-0.033,0.991,-21.118,-4.089,2.563,-3.417,4.098,0.901
 15:10:20.612,eb:33:2e:f9:57:b5, 2085-97-162 255:188:255:2151,-0.046,-0.033,1.016,-23.621,2.319,2.38,-3.642,4.098,0.923
 15:10:20.612,eb:33:2e:f9:57:b5, 2085-97-116 255:162:255:2178,-0.033,-0.032,1.073,-27.1,6.226,2.136,-3.906,4.136,0.939
 15:10:20.612,eb:33:2e:f9:57:b5, 2085-97-31 00:191:255:2085,0.015,-0.042,1.047,-29.419,8.728,2.869,-4.191,4.219,0.956
 15:10:20.667,eb:33:2e:f9:57:b5, 2085-97-205 255:180:255:2155,0.006,-0.029,1.039,-32.593,16.174,5.005,-4.51,4.34,0.983
 15:10:20.667,eb:33:2e:f9:57:b5, 2085-97-66 00:202:255:2112,0.031,-0.041,1.011,-34.912,22.461,8.301,-4.85,4.537,1.038
 15:10:20.667,eb:33:2e:f9:57:b5, 2085-97-07 00:14:00:2401,-0.037,-0.029,1.044,-41.077,36.438,11.78,-5.229,4.834,1.115
 15:10:20.667,eb:33:2e:f9:57:b5, 2085-97-62 255:195:255:2513,-0.088,0.01,1.192,-49.988,39.612,15.564,-5.68,5.229,1.214
 15:10:20.696,eb:33:2e:f9:57:b5, 2085-97-111 255:216:255:2565,-0.069,-0.01,1.23,-62.744,40.039,16.479,-6.246,5.636,1.324
 15:10:20.696,eb:33:2e:f9:57:b5, 2085-97-90 255:195:255:2529,-0.083,-0.007,1.286,-75.378,40.039,16.968,-6.927,6.053,1.445
 15:10:20.696,eb:33:2e:f9:57:b5, 2085-97-76 255:244:255:2705,-0.094,0,1.315,-87.769,42.603,15.686,-7.751,6.487,1.544
 15:10:20.696,eb:33:2e:f9:57:b5, 2085-97-30 255:190:255:2721,-0.132,-0.02,1.322,-100.098,41.199,16.541,-8.685,6.921,1.648
 15:10:20.726,eb:33:2e:f9:57:b5, 2085-97-232 254:240:255:2845,-0.165,-0.029,1.362,-112.915,38.269,14.893,-9.75,7.339,1.741
 15:10:20.726,eb:33:2e:f9:57:b5, 2085-97-141 254:184:255:2906,-0.172,-0.042,1.35,-126.16,35.034,13.855,-10.942,7.712,1.824
 15:10:20.726,eb:33:2e:f9:57:b5, 2085-97-112 254:35:00:2969,-0.219,-0.038,1.469,-140.93,29.175,8.423,-12.283,8.047,1.868
 15:10:20.726,eb:33:2e:f9:57:b5, 2085-97-234 253:73:00:3286,-0.29,-0.007,1.536,-158.02,26.062,5.005,-13.788,8.344,1.884
 15:10:20.786,eb:33:2e:f9:57:b5, 2085-97-96 253:152:00:3526,-0.373,0.056,1.657,-180.298,19.714,-0.61,-15.496,8.558,1.84
 15:10:20.786,eb:33:2e:f9:57:b5, 2085-97-152 252:252:00:3654,-0.444,0.089,1.765,-206.116,11.658,-10.132,-17.452,8.69,1.747
 15:10:20.786,eb:33:2e:f9:57:b5, 2085-97-56 252:63:01:3747,-0.462,0.111,1.821,-238.342,4.944,-24.231,-19.72,8.701,1.555
 15:10:20.786,eb:33:2e:f9:57:b5, 2085-97-115 252:122:02:4089,-0.4,0.197,1.882,-273.926,3.174,-41.687,-22.352,8.619,1.225
 15:10:20.817,eb:33:2e:f9:57:b5, 2085-97-190 252:201:02:4400,-0.424,0.328,2.093,-315.186,-5.798,-55.481,-25.378,8.399,0.769
 15:10:20.817,eb:33:2e:f9:57:b5, 2085-97-149 252:180:02:4790,-0.416,0.334,2.226,-358.582,-13.672,-70.129,-28.883,8.004,0.22
 15:10:20.817,eb:33:2e:f9:57:b5, 2085-97-241 252:197:00:4784,-0.36,0.239,2.348,-399.17,-30.64,-80.566,-32.772,7.41,-0.319
 15:10:20.817,eb:33:2e:f9:57:b5, 2085-97-231 252:211:254:4756,-0.314,0.019,2.305,-425.476,-42.908,-85.205,-36.985,6.614,-0.802
 15:10:20.877,eb:33:2e:f9:57:b5, 2085-97-19 253:173:253:4594,-0.418,-0.242,2.235,-432.495,-58.533,-90.942,-41.331,5.641,-1.165
 15:10:20.879,eb:33:2e:f9:57:b5, 2085-97-166 252:121:254:3954,-0.447,-0.247,2.077,-428.406,-67.993,-96.13,-45.659,4.532,-1.406
 15:10:20.880,eb:33:2e:f9:57:b5, 2085-97-232 251:00:253:3367,-0.614,-0.359,1.626,-429.688,-35.4,-109.558,-49.977,3.384,-1.653
 15:10:20.880,eb:33:2e:f9:57:b5, 2085-97-218 249:174:00:3540,-0.798,-0.222,1.728,-431.885,24.78,-136.658,-54.316,2.379,-2.417
 15:10:20.907,eb:33:2e:f9:57:b5, 2085-97-212 249:151:02:2452,-0.838,0.257,1.593,-432.556,73.608,-154.602,-58.689,1.439,-3.653
 15:10:20.907,eb:33:2e:f9:57:b5, 2085-97-86 247:19:08:-435,-1.409,0.415,0.713,-399.048,133.85,-189.392,-62.913,0.45,-5.433
 15:10:20.907,eb:33:2e:f9:57:b5, 2085-97-118 248:85:05:698,-0.646,0.374,-0.289,-235.413,186.279,-220.581,-66.099,-0.637,-7.894
 15:10:20.907,eb:33:2e:f9:57:b5, 2085-97-216 251:122:10:1619,-0.573,1.062,0.783,-22.4,97.656,-178.711,-67.22,-1.884,-10.003
 15:10:20.938,eb:33:2e:f9:57:b5, 2085-97-220 250:05:11:2192,-0.647,1.4,0.867,141.296,23.071,-131.042,-66.434,-3.071,-11.096
 15:10:20.938,eb:33:2e:f9:57:b5, 2085-97-39 251:07:09:1899,-0.551,1.261,1.106,216.37,-37.354,-115.051,-64.517,-4.208,-11.475
 15:10:20.938,eb:33:2e:f9:57:b5, 2085-97-33 252:201:07:945,-0.405,1.037,0.683,236.084,-39.673,-125.916,-62.194,-5.477,-11.629
 15:10:20.938,eb:33:2e:f9:57:b5, 2085-97-85 253:91:07:368,-0.256,0.931,0.293,236.572,-1.038,-139.954,-59.771,-6.746,-12.107
 15:10:20.966,eb:33:2e:f9:57:b5, 2085-97-167 254:231:07:163,-0.091,0.939,0.104,236.938,50.537,-145.264,-57.277,-7.828,-13.101
 15:10:20.966,eb:33:2e:f9:57:b5, 2085-97-138 255:205:08:492,-0.029,1.046,0.126,250.122,88.318,-128.479,-54.646,-8.564,-14.502
 15:10:20.966,eb:33:2e:f9:57:b5, 2085-97-02 00:245:08:1033,0.041,1.125,0.38,276.917,88.684,-91.003,-51.784,-8.893,-15.908
 15:10:20.966,eb:33:2e:f9:57:b5, 2085-97-110 00:108:08:1495,0.042,1.086,0.596,309.753,64.941,-42.358,-48.68,-8.904,-16.93
 15:10:21.028,eb:33:2e:f9:57:b5, 2085-97-92 00:104:07:1780,0.05,1.014,0.849,332.458,31.982,3.418,-45.357,-8.701,-17.391
 15:10:21.028,eb:33:2e:f9:57:b5, 2085-97-81 00:169:05:1569,0.019,0.815,0.828,340.759,13.611,39.49,-41.984,-8.394,-17.358
 15:10:21.028,eb:33:2e:f9:57:b5, 2085-97-213 255:38:04:1433,-0.025,0.614,0.713,338.196,25.146,64.27,-38.611,-7.91,-17.056
 15:10:21.028,eb:33:2e:f9:57:b5, 2085-97-151 255:32:03:1491,-0.08,0.437,0.695,327.148,59.204,78.186,-35.327,-7.136,-16.727
 15:10:21.057,eb:33:2e:f9:57:b5, 2085-97-63 255:152:02:1823,-0.104,0.35,0.795,312.561,101.746,87.341,-32.146,-5.988,-16.496
 15:10:21.057,eb:33:2e:f9:57:b5, 2085-97-252 254:91:02:2292,-0.15,0.306,0.999,306.641,126.038,98.083,-29.081,-4.51,-16.293
 15:10:21.057,eb:33:2e:f9:57:b5, 2085-97-183 254:47:02:2768,-0.174,0.287,1.241,311.34,129.822,112.183,-25.999,-2.867,-15.958
 15:10:21.057,eb:33:2e:f9:57:b5, 2085-97-118 254:181:01:3181,-0.211,0.25,1.461,318.726,119.263,125.732,-22.863,-1.236,-15.386
 15:10:21.088,eb:33:2e:f9:57:b5, 2085-97-50 254:224:00:3400,-0.235,0.165,1.618,320.312,105.469,132.08,-19.644,0.269,-14.584
 15:10:21.088,eb:33:2e:f9:57:b5, 2085-97-27 254:63:00:3496,-0.24,0.062,1.69,316.101,97.717,130.493,-16.452,1.631,-13.651
 15:10:21.088,eb:33:2e:f9:57:b5, 2085-97-231 253:247:255:3818,-0.293,0.001,1.761,312.317,95.154,126.831,-13.255,2.895,-12.656
 15:10:21.088,eb:33:2e:f9:57:b5, 2085-97-110 253:24:00:4202,-0.35,0.004,1.968,312.5,81.177,125.61,-10.074,4.01,-11.624
 15:10:21.149,eb:33:2e:f9:57:b5, 2085-97-12 253:19:00:4436,-0.392,0.018,2.122,313.171,58.289,127.625,-6.828,4.878,-10.464
 15:10:21.149,eb:33:2e:f9:57:b5, 2085-97-178 252:188:255:4541,-0.421,-0.008,2.2,309.082,40.955,128.967,-3.604,5.466,-9.245
 15:10:21.149,eb:33:2e:f9:57:b5, 2085-97-159 252:32:255:4578,-0.425,-0.066,2.222,302.612,35.4,130.066,-0.401,5.878,-7.954
 15:10:21.149,eb:33:2e:f9:57:b5, 2085-97-137 252:48:254:4699,-0.456,-0.162,2.26,298.706,37.537,133.484,2.736,6.218,-6.625
 15:10:21.207,eb:33:2e:f9:57:b5, 2085-97-191 251:96:252:4746,-0.693,-0.31,2.312,299.866,34.79,140.747,5.905,6.482,-5.213
 15:10:21.207,eb:33:2e:f9:57:b5, 2085-97-156 249:188:248:4681,-0.922,-0.665,2.334,308.533,18.677,146.606,9.113,6.564,-3.735
 15:10:21.207,eb:33:2e:f9:57:b5, 2085-97-153 247:101:243:4350,-1.177,-1.239,2.212,319.214,4.883,138.733,12.448,6.394,-2.285
 15:10:21.207,eb:33:2e:f9:57:b5, 2085-97-09 246:173:238:3921,-1.213,-1.903,2.021,320.312,5.127,107.056,15.793,6.13,-1.077
 15:10:21.209,eb:33:2e:f9:57:b5, 2085-97-99 247:74:236:3355,-0.863,-2.353,1.797,297.729,31.921,54.688,19.001,6.053,-0.253
 15:10:21.209,eb:33:2e:f9:57:b5, 2085-97-182 250:219:236:2972,-0.28,-2.458,1.479,247.62,90.271,-0.61,21.769,6.559,0.176
 15:10:21.209,eb:33:2e:f9:57:b5, 2085-97-45 02:204:239:2925,0.685,-2.22,1.462,176.392,159.058,-38.391,23.928,7.811,0.456
 15:10:21.210,eb:33:2e:f9:57:b5, 2085-97-14 08:124:242:3888,1.21,-1.846,1.63,114.807,213.562,-34.363,25.411,9.745,0.923
 15:10:21.268,eb:33:2e:f9:57:b5, 2085-97-64 10:154:242:5015,1.27,-1.638,2.173,77.698,178.101,12.024,26.488,11.607,1.719
 15:10:21.268,eb:33:2e:f9:57:b5, 2085-97-92 09:93:239:4932,0.991,-1.824,2.528,61.34,60.913,71.96,27.372,12.453,2.681
 15:10:21.268,eb:33:2e:f9:57:b5, 2085-97-141 06:06:235:3397,0.684,-2.364,2.073,38.33,-37.17,101.868,28.054,12.03,3.51
 15:10:21.268,eb:33:2e:f9:57:b5, 2085-97-176 04:206:232:2212,0.549,-2.827,1.294,-4.456,-45.959,89.783,28.345,11.124,4.158
 15:10:21.297,eb:33:2e:f9:57:b5, 2085-113-81 00:161:123:7807,0.584,-2.801,1.04,-49.5,-5.493,58.594,28.141,10.569,4.691
 15:10:21.297,eb:33:2e:f9:57:b5, 2085-97-88 05:172:237:2503,0.757,-2.586,1.101,-64.941,7.874,49.133,27.889,10.459,4.933
 15:10:21.297,eb:33:2e:f9:57:b5, 2085-97-215 253:83:27:15824,2.227,-1.96,1.365,-88.196,52.856,32.593,27.208,10.377,5.422
 15:10:21.297,eb:33:2e:f9:57:b5, 2085-97-84 02:16:14:-139,-0.417,1.629,-0.765,-280.762,17.639,20.691,24.796,10.217,5.405
 15:10:21.327,eb:33:2e:f9:57:b5, 2085-97-100 253:181:06:2128,-0.247,1.668,0.71,-376.465,32.715,-8.484,21.544,10.569,5.663
 15:10:21.327,eb:33:2e:f9:57:b5, 2085-97-97 255:150:252:3035,0.111,0.011,1.377,-401.55,-15.686,-25.757,17.501,10.695,5.482
 15:10:21.327,eb:33:2e:f9:57:b5, 2085-97-208 01:207:252:2610,0.336,-0.423,1.533,-359.436,-38.513,-41.565,13.607,10.464,5.026
 15:10:21.327,eb:33:2e:f9:57:b5, 2085-97-215 00:159:250:2726,-0.021,-0.479,1.161,-303.772,3.54,-51.453,10.212,10.349,4.532
 15:10:21.387,eb:33:2e:f9:57:b5, 2085-97-166 255:224:252:2688,-0.1,-0.642,1.409,-248.596,31.189,-77.515,7.372,10.668,3.895
 15:10:21.387,eb:33:2e:f9:57:b5, 2085-97-131 254:252:253:2419,-0.358,-0.21,1.228,-215.637,49.194,-75.928,4.927,11.151,3.137
 15:10:21.387,eb:33:2e:f9:57:b5, 2085-97-172 251:20:254:2813,-0.66,-0.298,1.266,-177.612,52.551,-55.847,2.834,11.722,2.499
 15:10:21.387,eb:33:2e:f9:57:b5, 2085-97-118 250:69:253:2890,-0.649,-0.249,1.438,-135.254,17.761,-18.555,1.214,12.09,2.148
 15:10:21.447,eb:33:2e:f9:57:b5, 2085-97-189 252:49:252:2311,-0.17,-0.46,1.336,-86.182,-29.419,6.165,0.115,12.003,2.126
 15:10:21.447,eb:33:2e:f9:57:b5, 2085-97-180 255:164:254:1726,-0.025,-0.324,0.942,-49.133,-43.701,-1.282,-0.5,11.585,2.153
 15:10:21.447,eb:33:2e:f9:57:b5, 2085-97-241 254:196:254:1896,-0.204,-0.154,0.838,-35.889,-26.855,-1.282,-0.923,11.228,2.137
 15:10:21.447,eb:33:2e:f9:57:b5, 2085-97-176 254:116:254:2024,-0.108,-0.207,0.996,-20.935,-23.804,1.221,-1.203,10.986,2.148
 15:10:21.478,eb:33:2e:f9:57:b5, 2085-97-54 255:164:255:1965,-0.122,-0.09,0.97,-11.719,-19.592,0.366,-1.362,10.761,2.153
 15:10:21.478,eb:33:2e:f9:57:b5, 2085-97-214 254:87:255:1958,-0.209,-0.064,0.956,-8.972,-13.977,2.502,-1.461,10.602,2.175
 15:10:21.478,eb:33:2e:f9:57:b5, 2085-97-72 254:38:255:2071,-0.179,-0.097,0.999,-4.639,-15.686,1.953,-1.538,10.459,2.197
 15:10:21.478,eb:33:2e:f9:57:b5, 2085-97-216 254:161:255:2036,-0.114,-0.08,1.005,-0.732,-20.142,0.793,-1.56,10.267,2.214
 15:10:21.507,eb:33:2e:f9:57:b5, 2085-97-37 255:229:255:2016,-0.116,-0.026,0.979,-0.916,-16.968,1.465,-1.571,10.074,2.23
 15:10:21.507,eb:33:2e:f9:57:b5, 2085-97-236 254:05:00:2098,-0.133,-0.004,1.002,-3.601,-11.292,2.075,-1.593,9.932,2.247
 15:10:21.507,eb:33:2e:f9:57:b5, 2085-97-18 255:36:00:2095,-0.118,0.022,1.027,-8.118,-6.897,2.991,-1.659,9.838,2.274
 15:10:21.507,eb:33:2e:f9:57:b5, 2085-97-31 255:28:00:2080,-0.111,0.003,1.026,-12.451,-1.587,3.967,-1.758,9.8,2.307
 15:10:21.538,eb:33:2e:f9:57:b5, 2085-97-20 255:236:255:2058,-0.121,0.004,1.011,-15.015,4.456,5.859,-1.901,9.811,2.357
 15:10:21.538,eb:33:2e:f9:57:b5, 2085-97-214 254:203:255:2052,-0.176,-0.011,1.006,-15.564,7.202,7.751,-2.049,9.877,2.422
 15:10:21.538,eb:33:2e:f9:57:b5, 2085-97-115 254:169:255:2083,-0.207,-0.035,1.017,-15.32,4.333,7.996,-2.197,9.937,2.499
 15:10:21.538,eb:33:2e:f9:57:b5, 2085-97-84 254:144:255:2094,-0.206,-0.046,1.027,-14.282,-2.625,7.629,-2.335,9.948,2.576
 15:10:21.567,eb:33:2e:f9:57:b5, 2085-97-76 254:142:255:2095,-0.214,-0.058,1.021,-12.634,-10.62,7.751,-2.466,9.877,2.653
 15:10:21.567,eb:33:2e:f9:57:b5, 2085-97-99 254:151:255:2084,-0.201,-0.057,1.025,-11.169,-18.25,7.507,-2.571,9.728,2.736
 15:10:21.567,eb:33:2e:f9:57:b5, 2085-97-96 254:110:255:2084,-0.174,-0.057,1.016,-10.071,-24.414,7.507,-2.67,9.509,2.823
 15:10:21.567,eb:33:2e:f9:57:b5, 2085-97-197 254:126:255:2036,-0.131,-0.059,1.002,-8.728,-29.907,7.08,-2.752,9.234,2.906
 15:10:21.717,eb:33:2e:f9:57:b5, 2085-97-33 255:158:255:2006,-0.096,-0.051,0.99,-7.69,-31.006,7.446,-2.829,8.921,2.988
 15:10:21.717,eb:33:2e:f9:57:b5, 2085-97-79 255:177:255:1999,-0.072,-0.039,0.979,-7.629,-27.954,7.812,-2.895,8.63,3.082
 15:10:21.717,eb:33:2e:f9:57:b5, 2085-97-109 255:193:255:1989,-0.073,-0.034,0.967,-8.606,-22.278,7.629,-2.972,8.377,3.17
 15:10:21.717,eb:33:2e:f9:57:b5, 2085-97-93 255:184:255:2006,-0.089,-0.03,0.974,-9.766,-16.541,7.69,-3.054,8.19,3.257
 15:10:21.746,eb:33:2e:f9:57:b5, 2085-97-36 255:170:255:2057,-0.127,-0.041,0.986,-10.62,-12.756,7.385,-3.153,8.042,3.34
 15:10:21.746,eb:33:2e:f9:57:b5, 2085-97-233 254:147:255:2099,-0.135,-0.043,1.024,-11.963,-11.902,6.714,-3.257,7.927,3.417
 15:10:21.746,eb:33:2e:f9:57:b5, 2085-97-248 254:144:255:2069,-0.12,-0.056,1.018,-12.146,-13.794,6.409,-3.378,7.795,3.488
 15:10:21.746,eb:33:2e:f9:57:b5, 2085-97-15 255:152:255:2054,-0.118,-0.056,1.004,-12.512,-14.771,5.859,-3.494,7.657,3.56
 15:10:21.749,eb:33:2e:f9:57:b5, 2085-97-26 255:144:255:2074,-0.106,-0.053,1.014,-13,-14.893,5.554,-3.62,7.504,3.625
 15:10:21.749,eb:33:2e:f9:57:b5, 2085-97-64 255:171:255:2074,-0.086,-0.048,1.013,-15.442,-12.634,4.089,-3.757,7.372,3.68
 15:10:21.749,eb:33:2e:f9:57:b5, 2085-97-84 255:161:255:2030,-0.102,-0.038,1.007,-17.761,-9.705,2.502,-3.928,7.256,3.719
 15:10:21.749,eb:33:2e:f9:57:b5, 2085-97-64 255:122:255:2074,-0.086,-0.065,1.008,-19.165,-7.263,0.977,-4.114,7.174,3.741
 15:10:21.806,eb:33:2e:f9:57:b5, 2085-97-76 255:132:255:2086,-0.069,-0.058,1.007,-20.203,-4.395,0.977,-4.318,7.108,3.746
 15:10:21.806,eb:33:2e:f9:57:b5, 2085-97-120 255:120:255:2062,-0.073,-0.059,1.017,-21.851,-1.526,1.16,-4.532,7.081,3.757
 15:10:21.806,eb:33:2e:f9:57:b5, 2085-97-66 255:116:255:2104,-0.111,-0.064,1.009,-23.01,2.319,1.892,-4.763,7.081,3.768
 15:10:21.806,eb:33:2e:f9:57:b5, 2085-97-42 255:114:255:2100,-0.098,-0.062,1.05,-24.963,2.747,2.563,-5.004,7.114,3.79
 15:10:21.810,eb:33:2e:f9:57:b5, 2085-97-90 255:98:255:2036,-0.082,-0.072,1.012,-25.818,4.028,4.211,-5.268,7.147,3.818
 15:10:21.810,eb:33:2e:f9:57:b5, 2085-97-62 255:103:255:2145,-0.095,-0.066,1.022,-27.954,7.385,5.981,-5.532,7.213,3.867
 15:10:21.811,eb:33:2e:f9:57:b5, 2085-97-239 254:132:255:2280,-0.128,-0.067,1.067,-31.799,9.949,7.446,-5.834,7.295,3.922
 15:10:21.811,eb:33:2e:f9:57:b5, 2085-97-56 255:151:255:2287,-0.089,-0.097,1.055,-36.438,9.216,8.423,-6.169,7.388,3.999
 15:10:21.811,eb:33:2e:f9:57:b5, 2085-97-47 255:144:255:2376,-0.094,-0.044,1.142,-43.457,10.986,9.949,-6.57,7.498,4.076
 15:10:21.811,eb:33:2e:f9:57:b5, 2085-97-80 255:203:255:2431,-0.083,-0.042,1.154,-51.758,13.794,9.827,-7.042,7.63,4.158
 15:10:21.811,eb:33:2e:f9:57:b5, 2085-97-119 255:155:255:2427,-0.058,-0.035,1.214,-59.875,13.977,11.414,-7.597,7.778,4.241
 15:10:21.811,eb:33:2e:f9:57:b5, 2085-97-115 255:238:255:2541,-0.052,-0.023,1.176,-68.298,19.897,13.611,-8.234,7.965,4.345
 15:10:21.867,eb:33:2e:f9:57:b5, 2085-97-121 255:141:255:2498,-0.105,-0.028,1.218,-77.576,20.813,16.235,-8.959,8.174,4.46
 15:10:21.867,eb:33:2e:f9:57:b5, 2085-97-09 255:173:255:2611,-0.124,-0.054,1.217,-88.013,25.879,15.015,-9.778,8.427,4.576
 15:10:21.867,eb:33:2e:f9:57:b5, 2085-97-226 254:51:255:2513,-0.163,-0.062,1.261,-98.083,23.254,15.442,-10.706,8.69,4.68
 15:10:21.867,eb:33:2e:f9:57:b5, 2085-97-140 254:161:255:2718,-0.183,-0.08,1.247,-107.849,25.757,12.024,-11.728,8.959,4.768
 15:10:21.927,eb:33:2e:f9:57:b5, 2085-97-80 254:49:255:2713,-0.224,-0.063,1.296,-118.408,20.874,10.01,-12.865,9.196,4.823
 15:10:21.927,eb:33:2e:f9:57:b5, 2085-97-65 254:191:255:2922,-0.203,-0.055,1.371,-130.615,16.846,6.714,-14.106,9.399,4.856
 15:10:21.927,eb:33:2e:f9:57:b5, 2085-97-29 254:243:255:3058,-0.293,-0.033,1.456,-147.4,14.832,2.563,-15.507,9.547,4.861
 15:10:21.927,eb:33:2e:f9:57:b5, 2085-97-57 253:52:00:3361,-0.404,0.033,1.603,-167.786,10.864,-1.77,-17.1,9.679,4.818
 15:10:21.957,eb:33:2e:f9:57:b5, 2085-97-91 252:228:255:3368,-0.506,0.025,1.666,-190.796,-0.488,-8.972,-18.918,9.695,4.746
 15:10:21.957,eb:33:2e:f9:57:b5, 2085-97-225 251:187:00:3764,-0.502,0.017,1.692,-217.407,-3.479,-23.621,-21.011,9.602,4.57
 15:10:21.957,eb:33:2e:f9:57:b5, 2085-97-244 251:35:01:3894,-0.542,0.158,1.902,-251.16,-16.785,-35.645,-23.406,9.377,4.323
 15:10:21.957,eb:33:2e:f9:57:b5, 2085-97-70 251:81:01:4251,-0.607,0.166,2.035,-292.297,-28.687,-53.406,-26.219,8.965,3.966
 15:10:21.986,eb:33:2e:f9:57:b5, 2085-97-56 251:155:00:4329,-0.57,0.068,2.078,-329.102,-39.062,-71.96,-29.416,8.35,3.571
 15:10:21.986,eb:33:2e:f9:57:b5, 2085-97-153 251:97:254:4435,-0.522,-0.077,2.214,-361.389,-54.138,-85.815,-32.953,7.548,3.115
 15:10:21.986,eb:33:2e:f9:57:b5, 2085-97-253 251:96:254:4502,-0.501,-0.221,2.25,-378.479,-72.754,-97.534,-36.722,6.498,2.714
 15:10:21.986,eb:33:2e:f9:57:b5, 2085-97-39 252:117:253:4075,-0.466,-0.333,2.137,-382.935,-92.59,-102.478,-40.578,5.219,2.455
 15:10:22.017,eb:33:2e:f9:57:b5, 2085-97-167 251:36:252:3332,-0.646,-0.464,1.701,-379.7,-80.078,-107.239,-44.401,3.867,2.302
 15:10:22.017,eb:33:2e:f9:57:b5, 2085-97-87 250:233:252:3610,-0.807,-0.453,1.856,-380.859,-58.899,-126.831,-48.235,2.565,1.945
 15:10:22.017,eb:33:2e:f9:57:b5, 2085-97-248 248:124:255:3455,-0.939,-0.296,1.726,-380.127,-36.865,-149.353,-52.059,1.203,1.434
 15:10:22.017,eb:33:2e:f9:57:b5, 2085-97-08 249:07:02:2526,-0.743,0.123,1.56,-386.169,0.916,-165.1,-55.898,-0.187,0.637
 15:10:22.167,eb:33:2e:f9:57:b5, 2085-97-174 249:97:03:135,-1.041,0.315,0.635,-379.7,71.533,-192.383,-59.733,-1.516,-0.615
 15:10:22.167,eb:33:2e:f9:57:b5, 2085-97-159 245:129:03:-1064,-0.878,1.088,-1.112,-273.804,194.214,-200.745,-63.029,-2.719,-2.736
 15:10:22.167,eb:33:2e:f9:57:b5, 2085-97-185 250:77:09:1579,-0.625,0.646,0.305,-62.5,161.682,-197.449,-64.484,-3.768,-5.356
 15:10:22.167,eb:33:2e:f9:57:b5, 2085-97-168 250:128:11:2019,-0.667,1.4,0.839,112.732,81.543,-145.081,-63.968,-4.796,-7.136
 15:10:22.167,eb:33:2e:f9:57:b5, 2085-97-66 251:35:10:2246,-0.496,1.383,1.145,204.041,18.311,-112.244,-62.161,-5.691,-8.102
 15:10:22.169,eb:33:2e:f9:57:b5, 2085-113-58 00:55:246:285,-0.418,1.149,0.908,223.206,2.258,-109.985,-59.925,-6.63,-8.685
 15:10:22.169,eb:33:2e:f9:57:b5, 2085-97-41 253:06:08:1102,-0.3,1.061,0.706,222.29,11.719,-112.488,-58.771,-7.092,-9.003
 15:10:22.169,eb:33:2e:f9:57:b5, 2085-97-15 254:148:07:713,-0.166,0.962,0.417,214.966,41.992,-114.99,-56.47,-7.905,-9.86
 15:10:22.169,eb:33:2e:f9:57:b5, 2085-97-74 255:203:07:634,-0.029,0.956,0.312,213.623,69.641,-107.361,-54.179,-8.498,-10.992
 15:10:22.171,eb:33:2e:f9:57:b5, 2085-97-28 00:22:08:846,0.041,0.995,0.339,226.746,81.238,-82.581,-51.79,-8.784,-12.2
 15:10:22.171,eb:33:2e:f9:57:b5, 2085-97-143 00:07:08:1218,0.075,1.019,0.503,255.249,69.824,-38.208,-49.224,-8.751,-13.184
 15:10:22.171,eb:33:2e:f9:57:b5, 2085-97-101 00:168:07:1680,0.029,0.984,0.708,281.311,45.898,7.08,-46.434,-8.459,-13.7
 15:10:22.171,eb:33:2e:f9:57:b5, 2085-97-37 00:177:06:1780,0.011,0.904,0.872,297.485,17.151,47.974,-43.522,-8.042,-13.705
 15:10:22.173,eb:33:2e:f9:57:b5, 2085-97-05 00:122:05:1599,-0.007,0.76,0.836,303.345,4.944,81.421,-40.551,-7.526,-13.26
 15:10:22.173,eb:33:2e:f9:57:b5, 2085-97-148 255:154:04:1463,-0.102,0.621,0.721,305.725,18.372,108.215,-37.595,-6.839,-12.579
 15:10:22.173,eb:33:2e:f9:57:b5, 2085-97-248 254:18:04:1737,-0.172,0.536,0.762,307.495,43.457,131.47,-34.596,-5.861,-11.777
 15:10:22.174,eb:33:2e:f9:57:b5, 2085-97-84 254:168:03:2195,-0.239,0.489,0.969,302.063,65.552,148.193,-31.624,-4.614,-10.909
 15:10:22.228,eb:33:2e:f9:57:b5, 2085-97-214 253:230:02:2575,-0.299,0.413,1.165,291.565,73.975,161.743,-28.707,-3.214,-9.915
 15:10:22.228,eb:33:2e:f9:57:b5, 2085-97-98 253:249:01:2846,-0.351,0.306,1.337,279.663,72.693,170.898,-25.911,-1.791,-8.778
 15:10:22.229,eb:33:2e:f9:57:b5, 2085-97-246 252:57:01:2976,-0.412,0.195,1.421,271.179,69.519,175.72,-23.165,-0.423,-7.487
 15:10:22.229,eb:33:2e:f9:57:b5, 2085-97-116 252:177:00:3158,-0.476,0.115,1.493,268.677,66.956,177.795,-20.479,0.862,-6.114
 15:10:22.256,eb:33:2e:f9:57:b5, 2085-97-237 251:84:00:3405,-0.547,0.062,1.6,270.386,62.744,176.941,-17.721,2.054,-4.647
 15:10:22.256,eb:33:2e:f9:57:b5, 2085-97-76 251:235:255:3669,-0.621,0.018,1.729,273.132,54.382,173.279,-14.941,3.098,-3.153
 15:10:22.256,eb:33:2e:f9:57:b5, 2085-97-206 250:79:255:3815,-0.692,-0.041,1.825,275.146,41.992,166.504,-12.079,3.961,-1.609
 15:10:22.256,eb:33:2e:f9:57:b5, 2085-97-39 250:210:254:4005,-0.762,-0.116,1.923,277.161,32.227,157.654,-9.201,4.62,-0.077
 15:10:22.317,eb:33:2e:f9:57:b5, 2085-97-162 249:88:254:4013,-0.827,-0.18,1.963,280.396,23.254,147.156,-6.262,5.092,1.39
 15:10:22.317,eb:33:2e:f9:57:b5, 2085-97-18 249:210:253:4055,-0.892,-0.233,1.956,287.72,20.63,137.573,-3.29,5.422,2.791
 15:10:22.317,eb:33:2e:f9:57:b5, 2085-97-186 248:181:252:4245,-0.92,-0.33,2.022,297.546,20.142,129.333,-0.209,5.674,4.125
 15:10:22.317,eb:33:2e:f9:57:b5, 2085-97-159 248:68:251:4369,-0.919,-0.493,2.105,305.481,16.541,119.019,2.939,5.828,5.372
 15:10:22.348,eb:33:2e:f9:57:b5, 2085-97-176 248:32:249:4508,-0.917,-0.713,2.169,306.519,10.864,109.314,6.141,5.878,6.526
 15:10:22.348,eb:33:2e:f9:57:b5, 2085-97-196 248:98:246:4505,-0.897,-1.027,2.224,298.889,6.042,94.727,9.278,5.817,7.553
 15:10:22.348,eb:33:2e:f9:57:b5, 2085-97-220 248:76:243:4252,-0.888,-1.394,2.148,283.875,13.062,73.242,12.294,5.751,8.399
 15:10:22.348,eb:33:2e:f9:57:b5, 2085-97-161 249:179:240:3800,-0.527,-1.775,1.957,265.686,32.898,43.091,15.095,5.839,9.009
 15:10:22.436,eb:33:2e:f9:57:b5, 2085-97-166 253:21:239:3081,-0.138,-2.053,1.61,236.267,85.571,9.521,17.661,6.317,9.421
 15:10:22.436,eb:33:2e:f9:57:b5, 2085-97-51 00:210:238:3489,0.223,-2.144,1.58,199.097,152.222,-19.287,19.858,7.531,9.756
 15:10:22.436,eb:33:2e:f9:57:b5, 2085-97-151 03:129:238:3905,0.646,-2.161,1.82,167.358,161.499,-25.024,21.731,9.135,10.113
 15:10:22.436,eb:33:2e:f9:57:b5, 2085-97-123 06:239:237:4049,0.957,-2.212,1.972,143.372,122.009,-10.925,23.329,10.536,10.492
 15:10:22.438,eb:33:2e:f9:57:b5, 2085-97-105 08:191:236:3770,1.093,-2.326,1.918,122.131,58.533,13.794,24.73,11.321,10.876
 15:10:22.438,eb:33:2e:f9:57:b5, 2085-97-205 08:88:235:3369,1.09,-2.498,1.748,87.585,9.46,31.921,25.845,11.481,11.234
 15:10:22.438,eb:33:2e:f9:57:b5, 2085-97-200 08:121:235:2944,1.127,-2.611,1.545,43.213,-19.531,40.039,26.543,11.25,11.536
 15:10:22.438,eb:33:2e:f9:57:b5, 2085-97-110 09:153:237:2550,1.222,-2.458,1.335,-0.793,-32.104,49.133,26.779,10.8,11.81
 15:10:22.466,eb:33:2e:f9:57:b5, 2085-97-225 09:172:240:2381,1.226,-2.109,1.187,-38.025,-28.931,67.566,26.625,10.256,12.195
 15:10:22.466,eb:33:2e:f9:57:b5, 2085-97-84 254:224:21:15893,1.982,-1.724,1.166,-73.425,44.189,71.411,26.186,9.75,12.849
 15:10:22.466,eb:33:2e:f9:57:b5, 2085-97-90 255:77:11:938,-0.195,1.693,-0.436,-277.405,-21.729,73.975,23.829,8.806,12.969
 15:10:22.466,eb:33:2e:f9:57:b5, 2085-97-150 253:215:04:2841,-0.156,1.53,0.812,-356.018,-20.813,17.212,20.693,8.487,13.315
 15:10:22.528,eb:33:2e:f9:57:b5, 2085-97-76 00:07:250:3275,0.208,-0.126,1.571,-360.718,-64.697,-26.123,16.985,8.075,13.079
 15:10:22.528,eb:33:2e:f9:57:b5, 2085-97-223 01:125:252:2848,0.195,-0.725,1.43,-296.57,-85.327,-57.739,13.634,7.421,12.393
 15:10:22.528,eb:33:2e:f9:57:b5, 2085-97-121 01:91:254:2468,0.146,-0.185,1.216,-249.268,-56.946,-61.523,10.849,6.817,11.64
 15:10:22.528,eb:33:2e:f9:57:b5, 2085-97-175 00:91:254:2315,-0.052,-0.218,1.152,-212.402,-17.151,-65.674,8.476,6.581,10.931
 15:10:22.558,eb:33:2e:f9:57:b5, 2085-97-66 254:240:254:2497,-0.315,-0.151,1.146,-182.739,3.418,-55.603,6.438,6.614,10.311
 15:10:22.558,eb:33:2e:f9:57:b5, 2085-97-57 253:196:254:2697,-0.384,-0.153,1.283,-153.32,-6.165,-36.194,4.713,6.663,9.849
 15:10:22.558,eb:33:2e:f9:57:b5, 2085-97-83 253:38:254:2554,-0.208,-0.213,1.33,-122.131,-29.358,-13.794,3.312,6.493,9.602
 15:10:22.558,eb:33:2e:f9:57:b5, 2085-97-207 254:121:253:2163,-0.021,-0.298,1.147,-91.064,-45.654,-3.052,2.252,6.108,9.52
 15:10:22.586,eb:33:2e:f9:57:b5, 2085-97-179 255:60:254:1962,0,-0.3,0.97,-61.462,-43.579,-2.136,1.494,5.641,9.481
 15:10:22.586,eb:33:2e:f9:57:b5, 2085-97-68 255:130:254:2062,-0.055,-0.192,0.949,-38.574,-34.424,1.404,1.005,5.246,9.476
 15:10:22.587,eb:33:2e:f9:57:b5, 2085-97-06 00:105:255:1945,0.038,-0.138,0.995,-22.705,-33.325,0.854,0.709,4.9,9.481
 15:10:22.587,eb:33:2e:f9:57:b5, 2085-97-84 00:150:255:1883,-0.002,-0.058,0.925,-15.991,-23.926,0.061,0.516,4.609,9.481
 15:10:22.617,eb:33:2e:f9:57:b5, 2085-97-234 255:171:255:1979,-0.019,-0.049,0.958,-10.925,-16.296,-0.427,0.374,4.417,9.476
 15:10:22.617,eb:33:2e:f9:57:b5, 2085-97-165 255:207:255:2054,-0.052,-0.011,0.977,-8.118,-12.634,0.549,0.28,4.274,9.476
 15:10:22.617,eb:33:2e:f9:57:b5, 2085-97-179 255:210:255:2036,-0.018,-0.032,1.009,-6.592,-11.902,-0.122,0.198,4.147,9.476
 15:10:22.617,eb:33:2e:f9:57:b5, 2085-97-13 00:14:00:2009,0.02,-0.015,0.988,-5.92,-8.85,-0.488,0.137,4.043,9.47
 15:10:22.678,eb:33:2e:f9:57:b5, 2085-97-07 00:55:00:2049,-0.006,0.019,0.98,-7.629,-1.221,-0.366,0.06,3.988,9.459
 15:10:22.678,eb:33:2e:f9:57:b5, 2085-97-199 255:41:00:2097,-0.013,0.03,1.011,-10.498,5.188,0.61,-0.027,4.01,9.465
 15:10:22.678,eb:33:2e:f9:57:b5, 2085-97-245 255:43:00:2045,-0.019,0.021,1.009,-12.207,9.216,2.014,-0.154,4.076,9.476
 15:10:22.678,eb:33:2e:f9:57:b5, 2085-97-213 255:18:00:2034,-0.036,0.012,0.999,-13.428,13.794,3.54,-0.286,4.197,9.503
 15:10:22.707,eb:33:2e:f9:57:b5, 2085-97-144 255:225:255:2054,-0.077,-0.003,0.997,-13.123,16.052,5.066,-0.423,4.345,9.547
 15:10:22.707,eb:33:2e:f9:57:b5, 2085-97-78 255:222:255:2103,-0.109,-0.019,1.018,-12.329,14.282,4.883,-0.549,4.499,9.591
 15:10:22.707,eb:33:2e:f9:57:b5, 2085-97-14 255:210:255:2134,-0.113,-0.024,1.039,-11.108,9.521,4.822,-0.676,4.614,9.641
 15:10:22.707,eb:33:2e:f9:57:b5, 2085-97-34 255:218:255:2120,-0.121,-0.023,1.038,-10.437,2.93,4.272,-0.78,4.675,9.684
 15:10:22.738,eb:33:2e:f9:57:b5, 2085-97-11 255:181:255:2122,-0.095,-0.032,1.04,-9.521,-3.113,3.418,-0.884,4.664,9.723
 15:10:22.738,eb:33:2e:f9:57:b5, 2085-97-88 255:213:255:2083,-0.07,-0.03,1.019,-8.118,-8.728,3.113,-0.972,4.598,9.756
 15:10:22.738,eb:33:2e:f9:57:b5, 2085-113-58 00:01:255:-3615,-0.06,-0.019,1.007,-7.446,-10.681,3.052,-1.06,4.493,9.783
 15:10:22.738,eb:33:2e:f9:57:b5, 2085-97-161 255:227:255:2031,-0.036,-0.018,0.999,-7.141,-10.742,2.93,-1.093,4.438,9.8
 15:10:22.798,eb:33:2e:f9:57:b5, 2085-97-199 255:237:255:2033,-0.021,-0.01,0.993,-7.263,-9.338,3.052,-1.176,4.334,9.827
 15:10:22.798,eb:33:2e:f9:57:b5, 2085-97-205 255:250:255:2032,-0.035,-0.001,0.993,-7.996,-6.287,3.296,-1.252,4.252,9.86
 15:10:22.798,eb:33:2e:f9:57:b5, 2085-97-230 255:253:255:2008,-0.021,-0.006,1.001,-8.911,-3.845,3.418,-1.34,4.202,9.893
 15:10:22.798,eb:33:2e:f9:57:b5, 2085-97-208 255:246:255:2036,-0.025,-0.006,0.99,-9.644,-0.183,3.479,-1.434,4.186,9.932
 15:10:22.828,eb:33:2e:f9:57:b5, 2085-97-173 255:233:255:2059,-0.06,-0.004,0.995,-10.803,2.991,3.845,-1.544,4.197,9.965
 15:10:22.828,eb:33:2e:f9:57:b5, 2085-97-112 255:206:255:2091,-0.069,-0.021,1.013,-11.292,3.113,3.967,-1.653,4.23,10.003
 15:10:22.828,eb:33:2e:f9:57:b5, 2085-97-117 255:197:255:2081,-0.078,-0.024,1.021,-11.414,1.038,4.028,-1.774,4.246,10.042
 15:10:22.828,eb:33:2e:f9:57:b5, 2085-97-87 255:183:255:2093,-0.088,-0.033,1.021,-11.23,-1.038,4.028,-1.89,4.246,10.08
 15:10:22.856,eb:33:2e:f9:57:b5, 2085-97-66 255:192:255:2122,-0.087,-0.033,1.025,-11.658,-4.028,3.54,-2.01,4.219,10.118
 15:10:22.856,eb:33:2e:f9:57:b5, 2085-97-75 255:207:255:2139,-0.079,-0.031,1.039,-13.062,-7.385,2.991,-2.131,4.158,10.151
 15:10:22.856,eb:33:2e:f9:57:b5, 2085-97-98 255:214:255:2131,-0.07,-0.024,1.038,-14.893,-9.033,3.052,-2.28,4.07,10.184
 15:10:22.856,eb:33:2e:f9:57:b5, 2085-97-138 255:239:255:2140,-0.032,-0.021,1.043,-17.639,-9.155,2.563,-2.444,3.977,10.217
 15:10:22.947,eb:33:2e:f9:57:b5, 2085-97-185 255:203:255:2092,-0.023,-0.003,1.036,-20.264,-6.226,3.357,-2.642,3.895,10.25
 15:10:22.947,eb:33:2e:f9:57:b5, 2085-97-234 255:199:255:2071,-0.043,-0.034,1.009,-21.301,-2.319,3.845,-2.851,3.851,10.283
 15:10:22.947,eb:33:2e:f9:57:b5, 2085-97-178 255:205:255:2121,-0.024,-0.037,1.034,-22.949,2.014,4.272,-3.076,3.856,10.322
 15:10:22.947,eb:33:2e:f9:57:b5, 2085-97-207 255:225:255:2141,-0.019,-0.014,1.038,-25.33,6.897,4.944,-3.318,3.9,10.366
 15:10:22.949,eb:33:2e:f9:57:b5, 2085-97-201 255:228:255:2187,-0.047,-0.008,1.055,-28.137,13,7.019,-3.593,3.999,10.421
 15:10:22.949,eb:33:2e:f9:57:b5, 2085-97-104 255:235:255:2329,-0.102,0.001,1.116,-32.715,18.677,9.155,-3.895,4.169,10.492
 15:10:22.949,eb:33:2e:f9:57:b5, 2085-97-50 255:214:255:2409,-0.122,0.002,1.19,-37.72,18.982,11.292,-4.252,4.367,10.574
 15:10:22.949,eb:33:2e:f9:57:b5, 2085-97-61 255:39:00:2570,-0.054,-0.008,1.208,-46.448,20.325,12.512,-4.669,4.581,10.679
 15:10:22.976,eb:33:2e:f9:57:b5, 2085-97-198 255:105:00:2692,-0.053,0.043,1.352,-58.838,13.611,17.883,-5.191,4.763,10.811
 15:10:22.976,eb:33:2e:f9:57:b5, 2085-97-161 255:235:255:2732,-0.08,0.011,1.313,-73.792,15.137,19.226,-5.85,4.916,10.986
 15:10:22.976,eb:33:2e:f9:57:b5, 2085-97-69 255:32:00:2818,-0.088,0,1.335,-90.149,19.287,16.846,-6.68,5.098,11.14
 15:10:22.976,eb:33:2e:f9:57:b5, 2085-97-83 255:00:00:2873,-0.057,0.005,1.415,-105.652,18.921,16.174,-7.657,5.312,11.283
 15:10:23.066,eb:33:2e:f9:57:b5, 2085-97-113 255:158:00:3079,-0.057,0.024,1.484,-121.094,18.799,13.794,-8.795,5.526,11.398
 15:10:23.066,eb:33:2e:f9:57:b5, 2085-97-35 255:251:00:3224,-0.127,-0.005,1.525,-136.047,16.724,11.353,-10.085,5.718,11.514
 15:10:23.066,eb:33:2e:f9:57:b5, 2085-97-156 254:122:00:3376,-0.249,0.064,1.613,-154.114,12.756,10.62,-11.541,5.878,11.602
 15:10:23.066,eb:33:2e:f9:57:b5, 2085-97-193 253:151:00:3528,-0.308,0.073,1.596,-175.659,9.827,5.554,-13.189,5.993,11.656
 15:10:23.068,eb:33:2e:f9:57:b5, 2085-97-84 253:161:00:3430,-0.354,0.128,1.707,-197.449,-3.479,-0.916,-15.068,6.01,11.656
 15:10:23.068,eb:33:2e:f9:57:b5, 2085-97-244 252:139:01:3663,-0.368,0.125,1.705,-222.473,-5.92,-12.817,-17.188,5.944,11.596
 15:10:23.068,eb:33:2e:f9:57:b5, 2085-97-246 252:98:01:3643,-0.45,0.228,1.772,-252.197,-16.174,-21.973,-19.589,5.762,11.464
 15:10:23.068,eb:33:2e:f9:57:b5, 2085-97-226 251:22:02:3754,-0.531,0.202,1.809,-284.546,-19.775,-37.537,-22.308,5.493,11.239
 15:10:23.096,eb:33:2e:f9:57:b5, 2085-97-109 251:100:01:3957,-0.604,0.192,1.931,-315.918,-35.034,-52.307,-25.362,5.065,10.931
 15:10:23.096,eb:33:2e:f9:57:b5, 2085-97-243 250:198:00:4520,-0.617,0.12,2.022,-342.773,-57.861,-65.979,-28.729,4.351,10.58
 15:10:23.096,eb:33:2e:f9:57:b5, 2085-97-224 250:143:253:4261,-0.713,0.039,1.988,-364.258,-93.506,-72.632,-32.305,3.279,10.382
 15:10:23.096,eb:33:2e:f9:57:b5, 2085-97-41 251:15:254:4558,-0.543,-0.277,2.306,-368.774,-131.47,-91.553,-35.997,1.895,10.283
 15:10:23.158,eb:33:2e:f9:57:b5, 2085-97-178 250:122:250:3898,-0.757,-0.471,1.847,-367.615,-143.921,-96.924,-39.677,0.165,10.459
 15:10:23.158,eb:33:2e:f9:57:b5, 2085-97-124 250:58:254:4596,-0.696,-0.374,2.155,-354.065,-154.602,-122.864,-43.292,-1.67,10.536
 15:10:23.158,eb:33:2e:f9:57:b5, 2085-97-199 250:167:00:4105,-0.569,-0.076,2.187,-346.436,-196.472,-129.15,-46.791,-3.829,10.915
 15:10:23.158,eb:33:2e:f9:57:b5, 2085-97-125 250:88:00:3150,-0.827,0.03,1.645,-355.652,-175.354,-127.38,-50.35,-6.07,11.525
 15:10:23.216,eb:33:2e:f9:57:b5, 2085-97-148 249:69:02:2062,-0.854,0.159,1.439,-365.173,-106.934,-139.038,-53.992,-7.954,11.772
 15:10:23.216,eb:33:2e:f9:57:b5, 2085-97-231 247:84:07:-3774,-1.358,0.512,0.203,-335.449,-51.514,-169.8,-57.53,-9.662,11.558
 15:10:23.216,eb:33:2e:f9:57:b5, 2085-97-22 247:12:02:239,-0.936,0.311,-0.76,-166.504,72.083,-182.068,-59.782,-10.97,10.36
 15:10:23.216,eb:33:2e:f9:57:b5, 2085-97-73 248:14:09:1093,-0.977,0.752,0.451,3.052,83.13,-203.674,-60.128,-12.261,8.646
 15:10:23.218,eb:33:2e:f9:57:b5, 2085-97-19 249:134:10:1625,-0.708,1.276,0.656,110.413,76.538,-199.036,-59.052,-13.585,6.877
 15:10:23.218,eb:33:2e:f9:57:b5, 2085-97-13 251:56:10:1760,-0.56,1.3,0.87,144.348,74.89,-203.247,-57.288,-14.903,5.136
 15:10:23.218,eb:33:2e:f9:57:b5, 2085-97-251 251:207:09:1518,-0.421,1.254,0.812,146.423,77.759,-202.087,-55.327,-16.161,3.29
 15:10:23.218,eb:33:2e:f9:57:b5, 2085-97-111 253:138:09:1183,-0.203,1.204,0.653,152.527,71.594,-187.195,-53.322,-17.314,1.467
 15:10:23.308,eb:33:2e:f9:57:b5, 2085-97-30 255:82:09:863,-0.049,1.184,0.486,172.058,69.275,-158.569,-51.18,-18.248,-0.214
 15:10:23.308,eb:33:2e:f9:57:b5, 2085-97-00 00:84:09:854,0.038,1.162,0.404,202.698,74.036,-120.544,-48.818,-18.847,-1.736
 15:10:23.308,eb:33:2e:f9:57:b5, 2085-97-149 00:79:09:1058,0.1,1.17,0.46,231.75,79.346,-78.43,-46.192,-19.045,-3.038
 15:10:23.308,eb:33:2e:f9:57:b5, 2085-97-231 00:02:09:1325,0.136,1.151,0.583,246.826,85.938,-39.429,-43.44,-18.853,-4.087
 15:10:23.308,eb:33:2e:f9:57:b5, 2085-97-78 01:63:08:1350,0.18,1.084,0.669,247.559,91.248,-5.31,-40.693,-18.331,-4.872
 15:10:23.308,eb:33:2e:f9:57:b5, 2085-97-116 01:88:07:1195,0.142,0.974,0.625,244.934,101.44,26.062,-38.073,-17.507,-5.427
 15:10:23.308,eb:33:2e:f9:57:b5, 2085-97-249 00:123:06:1316,0.11,0.865,0.587,246.277,116.699,56.274,-35.508,-16.364,-5.757
 15:10:23.308,eb:33:2e:f9:57:b5, 2085-97-224 00:56:06:1562,0.104,0.782,0.713,246.216,135.498,78.857,-33.003,-14.925,-5.911
 15:10:23.368,eb:33:2e:f9:57:b5, 2085-97-211 00:230:05:1795,0.119,0.758,0.801,245.789,150.696,99.67,-30.531,-13.222,-5.905
 15:10:23.368,eb:33:2e:f9:57:b5, 2085-97-03 01:154:05:2221,0.127,0.715,0.977,248.352,163.086,119.69,-28.109,-11.299,-5.713
 15:10:23.368,eb:33:2e:f9:57:b5, 2085-97-08 01:167:05:2667,0.146,0.7,1.195,257.08,166.077,139.832,-25.637,-9.223,-5.295
 15:10:23.368,eb:33:2e:f9:57:b5, 2085-97-41 01:146:05:3068,0.124,0.708,1.391,270.813,158.142,161.804,-23.104,-7.125,-4.592
 15:10:23.368,eb:33:2e:f9:57:b5, 2085-97-203 00:37:05:3485,0.067,0.677,1.609,283.936,143.677,181.335,-20.413,-5.081,-3.543
 15:10:23.397,eb:33:2e:f9:57:b5, 2085-113-58 00:61:255:-1635,0.029,0.598,1.787,292.847,124.39,196.167,-17.617,-3.203,-2.175
 15:10:23.397,eb:33:2e:f9:57:b5, 2085-97-215 255:202:03:3961,-0.07,0.54,1.865,295.471,114.624,200.806,-16.177,-2.346,-1.395
 15:10:23.397,eb:33:2e:f9:57:b5, 2085-97-235 254:145:02:4179,-0.19,0.398,1.983,298.401,96.436,204.041,-13.228,-0.818,0.302
 15:10:23.397,eb:33:2e:f9:57:b5, 2085-97-06 254:222:01:4556,-0.306,0.269,2.115,300.659,80.933,201.477,-10.234,0.445,2.109
 15:10:23.429,eb:33:2e:f9:57:b5, 2085-97-22 253:106:01:4919,-0.424,0.203,2.324,303.223,61.096,197.021,-7.158,1.45,3.972
 15:10:23.429,eb:33:2e:f9:57:b5, 2085-97-65 252:216:00:5071,-0.515,0.141,2.455,307.434,36.926,193.481,-4.043,2.115,5.867
 15:10:23.429,eb:33:2e:f9:57:b5, 2085-97-87 251:219:255:5282,-0.633,0.061,2.506,312.927,20.508,190.491,-0.829,2.466,7.773
 15:10:23.429,eb:33:2e:f9:57:b5, 2085-97-175 250:213:253:5622,-0.699,-0.133,2.668,314.88,7.751,184.998,2.395,2.576,9.657
 15:10:23.487,eb:33:2e:f9:57:b5, 2085-97-14 249:170:250:5329,-0.607,-0.459,2.654,310.242,-3.967,169.8,5.625,2.466,11.431
 15:10:23.487,eb:33:2e:f9:57:b5, 2085-97-73 245:238:243:5294,-1.515,-1.071,2.855,271.484,9.338,132.324,8.652,2.252,12.964
 15:10:23.487,eb:33:2e:f9:57:b5, 2085-97-82 245:38:239:3887,-1.471,-1.606,1.779,265.442,-9.399,113.342,11.365,2.016,14.041
 15:10:23.487,eb:33:2e:f9:57:b5, 2085-97-38 243:215:236:3223,-1.188,-2.088,2.038,276.611,-8.789,57.922,14.112,1.752,14.804
 15:10:23.549,eb:33:2e:f9:57:b5, 2085-97-140 249:114:236:2035,-0.524,-2.448,1.221,290.466,44.678,-12.268,17.029,1.813,15.046
 15:10:23.549,eb:33:2e:f9:57:b5, 2085-97-55 254:155:237:1761,0.139,-2.407,0.8,251.831,197.998,-96.191,19.737,3.192,14.881
 15:10:23.549,eb:33:2e:f9:57:b5, 2085-97-74 04:161:240:4200,0.991,-2.125,1.337,203.674,311.89,-139.16,21.989,6.163,14.689
 15:10:23.549,eb:33:2e:f9:57:b5, 2085-97-95 11:151:242:6093,1.721,-1.739,2.647,159.241,265.808,-125.977,23.758,9.465,14.595
 15:10:23.551,eb:33:2e:f9:57:b5, 2085-97-189 14:72:239:6026,1.776,-1.788,3.089,130.615,105.591,-63.293,25.17,11.519,14.496
 15:10:23.551,eb:33:2e:f9:57:b5, 2085-97-248 12:160:231:3788,1.437,-2.551,2.5,104.492,-48.035,-10.376,26.29,11.783,14.271
 15:10:23.551,eb:33:2e:f9:57:b5, 2085-97-21 10:76:226:1696,1.124,-3.472,1.225,64.697,-77.148,-8.545,27.054,11.129,13.881
 15:10:23.551,eb:33:2e:f9:57:b5, 2085-97-42 02:51:00:13510,3.358,-3.69,0.739,15.991,-19.592,-44.495,27.339,10.833,13.414
 15:10:23.607,eb:33:2e:f9:57:b5, 2085-97-120 16:247:243:467,1.448,-4.611,2.755,-302.856,-230.53,-152.893,25.45,10.206,12.178
 15:10:23.607,eb:33:2e:f9:57:b5, 2085-97-153 08:82:08:176,0.113,0.251,-0.761,-407.166,-68.542,-76.782,21.429,9.344,10.459
 15:10:23.607,eb:33:2e:f9:57:b5, 2085-97-101 248:237:00:4792,-1.128,0.834,1.273,-402.527,22.156,-55.054,17.254,9.47,9.91
 15:10:23.607,eb:33:2e:f9:57:b5, 2085-97-120 250:188:249:4641,-0.029,-0.406,2.579,-365.234,-59.509,-91.248,13.271,9.536,9.113
 15:10:23.637,eb:33:2e:f9:57:b5, 2085-97-01 02:64:253:2562,0.316,-0.588,1.681,-303.589,-102.539,-80.994,9.772,8.773,8.02
 15:10:23.637,eb:33:2e:f9:57:b5, 2085-97-155 01:206:252:2393,0.001,-0.438,1.157,-236.938,-41.138,-56.091,6.987,8.163,7.273
 15:10:23.637,eb:33:2e:f9:57:b5, 2085-97-121 254:161:254:2521,-0.182,-0.405,1.224,-191.833,-10.62,-43.457,4.812,8.015,6.79
 15:10:23.637,eb:33:2e:f9:57:b5, 2085-97-122 254:31:255:2361,-0.223,-0.087,1.129,-166.016,-11.414,-29.602,2.983,7.921,6.411
 15:10:23.667,eb:33:2e:f9:57:b5, 2085-97-120 253:108:253:2380,-0.413,-0.174,1.112,-138.306,-16.296,-9.277,1.434,7.789,6.207
 15:10:23.667,eb:33:2e:f9:57:b5, 2085-97-137 253:193:250:2206,-0.05,-0.514,1.165,-91.614,-42.053,8.606,0.291,7.493,6.235
 15:10:23.667,eb:33:2e:f9:57:b5, 2085-97-60 00:162:254:1839,-0.045,-0.456,0.942,-46.448,-49.133,-1.282,-0.352,6.987,6.257
 15:10:23.667,eb:33:2e:f9:57:b5, 2085-97-63 255:22:254:1985,-0.016,-0.163,0.929,-28.809,-34.119,3.357,-0.709,6.586,6.273
 15:10:23.728,eb:33:2e:f9:57:b5, 2085-97-44 00:250:254:1852,0.022,-0.15,0.914,-14.099,-28.137,1.465,-0.923,6.262,6.295
 15:10:23.728,eb:33:2e:f9:57:b5, 2085-97-208 255:164:255:1982,-0.048,-0.082,0.927,-6.836,-18.066,0.305,-1.016,6.031,6.301
 15:10:23.728,eb:33:2e:f9:57:b5, 2085-97-118 255:146:255:2026,-0.086,-0.039,0.983,-4.944,-13.977,1.587,-1.082,5.872,6.317
 15:10:23.728,eb:33:2e:f9:57:b5, 2085-97-90 255:137:255:2053,-0.055,-0.071,1,-2.319,-13.916,2.075,-1.115,5.74,6.339
 15:10:23.756,eb:33:2e:f9:57:b5, 2085-97-184 255:226:255:2029,-0.006,-0.032,0.995,-1.587,-12.939,1.587,-1.143,5.592,6.356
 15:10:23.756,eb:33:2e:f9:57:b5, 2085-97-240 255:244:255:2017,-0.023,-0.012,0.98,-3.235,-6.653,1.831,-1.165,5.493,6.372
 15:10:23.756,eb:33:2e:f9:57:b5, 2085-97-176 255:24:00:2101,-0.033,0.002,1.005,-5.676,0.793,2.625,-1.219,5.46,6.394
 15:10:23.756,eb:33:2e:f9:57:b5, 2085-97-166 255:09:00:2113,-0.044,0.011,1.027,-9.644,6.775,3.723,-1.296,5.504,6.427
 15:10:23.786,eb:33:2e:f9:57:b5, 2085-97-173 255:250:255:2059,-0.04,0,1.023,-12.085,9.766,5.005,-1.412,5.581,6.465
 15:10:23.786,eb:33:2e:f9:57:b5, 2085-97-183 255:07:00:2065,-0.064,-0.007,1.007,-12.939,12.634,6.714,-1.538,5.696,6.52
 15:10:23.786,eb:33:2e:f9:57:b5, 2085-97-50 255:229:255:2123,-0.132,-0.004,1.022,-13.733,15.076,8.911,-1.675,5.834,6.597
 15:10:23.786,eb:33:2e:f9:57:b5, 2085-97-188 254:183:255:2170,-0.16,-0.015,1.052,-13.855,11.658,9.949,-1.802,5.971,6.691
 15:10:23.846,eb:33:2e:f9:57:b5, 2085-97-193 254:153:255:2154,-0.177,-0.046,1.056,-13.123,3.906,9.827,-1.939,6.042,6.784
 15:10:23.846,eb:33:2e:f9:57:b5, 2085-97-105 254:123:255:2166,-0.202,-0.066,1.047,-11.108,-3.723,9.888,-2.054,6.042,6.883
 15:10:23.846,eb:33:2e:f9:57:b5, 2085-97-135 254:141:255:2150,-0.154,-0.052,1.056,-9.583,-15.686,9.033,-2.153,5.938,6.982
 15:10:23.846,eb:33:2e:f9:57:b5, 2085-97-19 255:179:255:2074,-0.095,-0.052,1.032,-7.874,-25.146,8.728,-2.23,5.729,7.081
 15:10:23.908,eb:33:2e:f9:57:b5, 2085-97-96 255:199:255:2046,-0.049,-0.031,1.005,-7.385,-27.832,8.789,-2.307,5.455,7.174
 15:10:23.908,eb:33:2e:f9:57:b5, 2085-97-217 255:221:255:1997,-0.009,-0.018,0.991,-7.324,-26.489,8.85,-2.373,5.18,7.273
 15:10:23.908,eb:33:2e:f9:57:b5, 2085-97-19 00:239:255:1960,-0.008,-0.014,0.971,-8.85,-20.081,7.874,-2.455,4.944,7.366
 15:10:23.908,eb:33:2e:f9:57:b5, 2085-97-253 255:234:255:1988,-0.004,-0.011,0.973,-11.23,-12.146,7.08,-2.554,4.796,7.449
 15:10:23.908,eb:33:2e:f9:57:b5, 2085-97-233 255:203:255:1974,-0.031,-0.025,0.964,-12.695,-5.188,6.531,-2.675,4.713,7.52
 15:10:23.908,eb:33:2e:f9:57:b5, 2085-97-146 255:184:255:2051,-0.076,-0.036,0.981,-14.038,-0.671,6.165,-2.807,4.691,7.586
 15:10:23.909,eb:33:2e:f9:57:b5, 2085-97-40 255:142:255:2128,-0.112,-0.046,1.011,-15.686,-0.061,5.188,-2.961,4.686,7.641
 15:10:23.910,eb:33:2e:f9:57:b5, 2085-97-08 255:157:255:2151,-0.12,-0.046,1.047,-16.602,-3.418,4.639,-3.12,4.669,7.69
 15:10:23.968,eb:33:2e:f9:57:b5, 2085-97-02 255:153:255:2160,-0.075,-0.045,1.054,-18.005,-7.385,3.54,-3.296,4.609,7.729
 15:10:23.968,eb:33:2e:f9:57:b5, 2085-97-127 255:166:255:2114,-0.058,-0.048,1.022,-19.592,-8.972,2.869,-3.488,4.515,7.767
 15:10:23.968,eb:33:2e:f9:57:b5, 2085-97-149 255:137:255:2094,-0.062,-0.053,1.031,-21.667,-7.385,2.014,-3.702,4.427,7.795
 15:10:23.968,eb:33:2e:f9:57:b5, 2085-97-153 255:147:255:2077,-0.029,-0.054,1.036,-22.888,-5.554,1.404,-3.922,4.373,7.817
 15:10:23.997,eb:33:2e:f9:57:b5, 2085-97-224 255:150:255:2062,-0.022,-0.053,1.004,-23.926,-2.319,1.526,-4.169,4.323,7.828
 15:10:23.997,eb:33:2e:f9:57:b5, 2085-97-206 255:166:255:2132,-0.024,-0.047,1.025,-25.696,3.418,2.808,-4.417,4.334,7.85
 15:10:23.997,eb:33:2e:f9:57:b5, 2085-97-152 255:154:255:2173,-0.046,-0.037,1.063,-28.625,8.179,4.517,-4.697,4.389,7.883
 15:10:23.997,eb:33:2e:f9:57:b5, 2085-97-178 255:137:255:2137,-0.001,-0.064,1.039,-31.555,12.268,5.981,-4.993,4.499,7.927
 15:10:24.029,eb:33:2e:f9:57:b5, 2085-97-22 00:01:00:2292,0.006,-0.041,1.1,-36.682,15.503,6.409,-5.339,4.642,7.976
 15:10:24.029,eb:33:2e:f9:57:b5, 2085-97-250 255:224:255:2303,-0.032,-0.031,1.098,-43.396,21.667,10.498,-5.74,4.828,8.053
 15:10:24.029,eb:33:2e:f9:57:b5, 2085-113-81 00:84:127:-1874,-0.052,-0.017,1.194,-52.673,27.771,13.062,-6.218,5.098,8.141
 15:10:24.029,eb:33:2e:f9:57:b5, 2085-97-89 255:186:255:2511,-0.096,-0.028,1.198,-57.983,29.724,14.404,-6.493,5.246,8.196
 15:10:24.146,eb:33:2e:f9:57:b5, 2085-97-83 255:250:255:2688,-0.077,-0.022,1.237,-70.251,33.936,15.137,-7.141,5.576,8.306
 15:10:24.146,eb:33:2e:f9:57:b5, 2085-97-187 255:66:00:2782,-0.027,0.016,1.366,-82.825,32.593,16.174,-7.899,5.933,8.416
 15:10:24.146,eb:33:2e:f9:57:b5, 2085-97-97 255:24:00:2756,-0.102,0.028,1.412,-97.351,31.372,19.531,-8.8,6.273,8.547
 15:10:24.146,eb:33:2e:f9:57:b5, 2085-97-42 255:202:255:2840,-0.146,-0.021,1.365,-112.244,33.081,18.311,-9.838,6.625,8.69
 15:10:24.148,eb:33:2e:f9:57:b5, 2085-97-203 254:215:255:3052,-0.15,-0.034,1.362,-126.404,35.767,16.235,-11.041,6.982,8.8
 15:10:24.148,eb:33:2e:f9:57:b5, 2085-97-161 254:158:255:2836,-0.195,0.034,1.441,-140.32,24.841,14.893,-12.371,7.295,8.882
 15:10:24.148,eb:33:2e:f9:57:b5, 2085-97-59 254:170:255:2934,-0.229,-0.036,1.456,-154.297,22.095,8.667,-13.848,7.548,8.932
 15:10:24.148,eb:33:2e:f9:57:b5, 2085-97-49 254:59:00:3135,-0.261,-0.017,1.46,-170.959,20.752,1.526,-15.48,7.767,8.926
 15:10:24.150,eb:33:2e:f9:57:b5, 2085-97-176 253:186:00:3423,-0.287,0.076,1.604,-193.237,16.479,-5.31,-17.331,7.938,8.849
 15:10:24.150,eb:33:2e:f9:57:b5, 2085-97-92 253:38:01:3486,-0.382,0.095,1.686,-218.872,9.888,-14.282,-19.424,8.026,8.712
 15:10:24.150,eb:33:2e:f9:57:b5, 2085-97-23 252:13:01:3467,-0.551,0.101,1.747,-249.207,5.493,-25.879,-21.808,8.015,8.498
 15:10:24.150,eb:33:2e:f9:57:b5, 2085-97-205 251:106:01:3838,-0.501,0.175,1.813,-281.555,0.122,-43.396,-24.527,7.905,8.141
 15:10:24.208,eb:33:2e:f9:57:b5, 2085-97-56 252:156:01:4202,-0.465,0.257,1.945,-315.979,-15.076,-57.434,-27.592,7.603,7.701
 15:10:24.208,eb:33:2e:f9:57:b5, 2085-97-82 252:171:01:4320,-0.433,0.153,2.062,-349.548,-35.156,-71.899,-31.02,7.064,7.24
 15:10:24.208,eb:33:2e:f9:57:b5, 2085-97-64 252:255:254:4566,-0.46,-0.031,2.16,-380.554,-56.824,-79.346,-34.739,6.262,6.872
 15:10:24.208,eb:33:2e:f9:57:b5, 2085-97-132 252:73:254:4460,-0.461,-0.162,2.413,-396.729,-94.788,-86.914,-38.655,5.158,6.641
 15:10:24.237,eb:33:2e:f9:57:b5, 2085-97-113 251:247:250:4531,-0.643,-0.368,1.874,-404.663,-85.876,-92.346,-42.698,3.845,6.597
 15:10:24.237,eb:33:2e:f9:57:b5, 2085-97-52 251:181:253:3931,-0.596,0.073,2.267,-401.489,-116.272,-99.67,-46.725,2.401,6.531
 15:10:24.237,eb:33:2e:f9:57:b5, 2085-97-58 251:208:253:3710,-0.64,-0.378,1.912,-404.724,-107.422,-122.559,-50.757,0.802,6.658
 15:10:24.237,eb:33:2e:f9:57:b5, 2085-97-192 249:56:254:3260,-0.863,-0.307,1.65,-413.879,-48.584,-134.888,-54.855,-0.698,6.509
 15:10:24.267,eb:33:2e:f9:57:b5, 2085-97-02 249:115:00:1875,-0.961,0.051,1.357,-420.105,22.278,-150.208,-59.008,-1.972,5.801
 15:10:24.267,eb:33:2e:f9:57:b5, 2085-97-236 246:102:03:545,-1.333,0.095,0.537,-404.724,114.624,-182.8,-63.1,-3.093,4.362
 15:10:24.267,eb:33:2e:f9:57:b5, 2085-97-33 245:81:02:-051,-0.931,0.769,-0.731,-304.993,231.567,-214.478,-66.561,-4.224,1.956
 15:10:24.267,eb:33:2e:f9:57:b5, 2085-97-195 250:60:08:1728,-0.544,0.462,0.602,-126.465,196.045,-243.774,-68.428,-5.625,-1.022
 15:10:24.357,eb:33:2e:f9:57:b5, 2085-97-226 251:240:11:1667,-0.519,1.379,0.76,57.007,110.107,-191.956,-68.417,-7.108,-3.208
 15:10:24.357,eb:33:2e:f9:57:b5, 2085-97-142 251:54:10:2293,-0.563,1.433,1.022,188.171,29.663,-135.62,-66.907,-8.333,-4.444
 15:10:24.357,eb:33:2e:f9:57:b5, 2085-97-187 251:172:08:1768,-0.469,1.164,1.021,255.493,-31.86,-108.276,-64.523,-9.448,-4.839
 15:10:24.357,eb:33:2e:f9:57:b5, 2085-97-205 252:131:07:976,-0.322,1.009,0.676,275.146,-36.926,-101.379,-61.815,-10.547,-4.971
 15:10:24.359,eb:33:2e:f9:57:b5, 2085-97-221 253:240:06:340,-0.235,0.889,0.285,277.1,3.723,-100.769,-58.969,-11.508,-5.323
 15:10:24.359,eb:33:2e:f9:57:b5, 2085-97-91 254:46:07:395,-0.176,0.872,0.141,279.785,62.073,-96.741,-56.014,-12.151,-6.185
 15:10:24.359,eb:33:2e:f9:57:b5, 2085-97-208 254:163:07:931,-0.12,0.929,0.306,287.781,101.501,-81.665,-52.899,-12.371,-7.438
 15:10:24.359,eb:33:2e:f9:57:b5, 2085-97-58 255:173:07:1554,-0.065,0.966,0.61,299.927,105.774,-54.077,-49.686,-12.233,-8.729
 15:10:24.386,eb:33:2e:f9:57:b5, 2085-97-120 255:69:07:2045,-0.053,0.94,0.886,311.707,81.238,-18.188,-46.406,-11.86,-9.679
 15:10:24.386,eb:33:2e:f9:57:b5, 2085-97-191 255:63:06:1938,-0.008,0.853,1.011,315.857,46.326,15.625,-43.171,-11.42,-10.124
 15:10:24.386,eb:33:2e:f9:57:b5, 2085-97-10 00:62:05:1443,-0.012,0.714,0.831,315.552,35.767,44.25,-39.996,-10.926,-10.135
 15:10:24.386,eb:33:2e:f9:57:b5, 2085-97-156 255:164:04:1290,-0.067,0.612,0.629,315.491,58.96,68.481,-36.876,-10.201,-9.976
 15:10:24.447,eb:33:2e:f9:57:b5, 2085-97-52 255:115:04:1645,-0.128,0.561,0.691,312.561,95.459,88.44,-33.745,-9.091,-9.778
 15:10:24.447,eb:33:2e:f9:57:b5, 2085-97-198 254:40:04:2109,-0.182,0.544,0.919,304.688,120.728,105.896,-30.696,-7.63,-9.542
 15:10:24.447,eb:33:2e:f9:57:b5, 2085-97-119 254:157:03:2521,-0.195,0.489,1.141,296.631,128.174,123.779,-27.724,-5.96,-9.146
 15:10:24.447,eb:33:2e:f9:57:b5, 2085-97-92 254:218:02:2767,-0.222,0.401,1.299,288.33,126.038,139.16,-24.862,-4.23,-8.525
 15:10:24.535,eb:33:2e:f9:57:b5, 2085-97-33 254:59:02:2910,-0.24,0.314,1.391,282.043,122.62,151.55,-22.039,-2.505,-7.679
 15:10:24.535,eb:33:2e:f9:57:b5, 2085-97-253 253:239:01:3097,-0.265,0.254,1.454,279.175,124.084,162.17,-19.281,-0.807,-6.658
 15:10:24.535,eb:33:2e:f9:57:b5, 2085-97-156 253:231:01:3521,-0.336,0.237,1.593,279.236,128.052,172.424,-16.469,0.906,-5.449
 15:10:24.535,eb:33:2e:f9:57:b5, 2085-97-248 252:251:01:4159,-0.42,0.244,1.865,282.898,121.521,185.608,-13.612,2.587,-4.043
 15:10:24.538,eb:33:2e:f9:57:b5, 2085-97-51 252:164:01:4678,-0.526,0.23,2.159,289.429,96.985,203.247,-10.624,4.065,-2.357
 15:10:24.538,eb:33:2e:f9:57:b5, 2085-97-103 251:253:00:4945,-0.625,0.169,2.372,294.861,64.392,218.018,-7.531,5.186,-0.385
 15:10:24.538,eb:33:2e:f9:57:b5, 2085-97-144 250:10:00:4995,-0.73,0.066,2.431,295.959,40.222,226.99,-4.334,5.911,1.796
 15:10:24.538,eb:33:2e:f9:57:b5, 2085-97-176 249:22:255:5056,-0.862,-0.054,2.452,294.861,31.067,229.919,-1.132,6.361,4.076
 15:10:24.597,eb:33:2e:f9:57:b5, 2085-97-93 248:179:253:5202,-1.022,-0.193,2.494,297.18,25.757,230.896,2.109,6.63,6.405
 15:10:24.597,eb:33:2e:f9:57:b5, 2085-97-86 247:172:251:5386,-1.131,-0.398,2.584,304.749,11.902,230.408,5.394,6.669,8.734
 15:10:24.597,eb:33:2e:f9:57:b5, 2085-97-143 246:17:248:5275,-1.241,-0.734,2.654,309.326,-8.972,223.328,8.756,6.394,11.014
 15:10:24.597,eb:33:2e:f9:57:b5, 2085-97-163 245:179:243:4966,-1.315,-1.232,2.547,313.232,-26.123,204.102,12.096,5.812,13.085
 15:10:24.600,eb:33:2e:f9:57:b5, 2085-97-83 245:127:239:4005,-1.319,-1.799,2.184,321.96,-27.039,173.767,15.463,5.092,14.854
 15:10:24.600,eb:33:2e:f9:57:b5, 2085-97-21 246:48:236:3215,-1.115,-2.303,1.763,328.796,0.977,138.489,18.853,4.499,16.298
 15:10:24.600,eb:33:2e:f9:57:b5, 2085-97-123 248:88:234:2638,-0.714,-2.615,1.398,305.359,67.2,100.342,22.159,4.411,17.529
 15:10:24.600,eb:33:2e:f9:57:b5, 2085-97-204 252:27:234:2558,0.033,-2.746,1.241,241.089,157.715,68.237,24.988,5.147,18.754
 15:10:24.628,eb:33:2e:f9:57:b5, 2085-97-40 03:103:235:3390,0.664,-2.67,1.35,153.992,242.249,54.26,27.087,6.746,20.193
 15:10:24.628,eb:33:2e:f9:57:b5, 2085-97-248 06:13:236:4793,1.003,-2.5,2.042,76.965,242.432,75.012,28.422,8.69,21.94
 15:10:24.628,eb:33:2e:f9:57:b5, 2085-97-73 08:234:235:4707,0.97,-2.497,2.417,31.494,143.677,120.361,29.218,9.904,23.769
 15:10:24.628,eb:33:2e:f9:57:b5, 2085-97-131 06:127:233:3722,0.655,-2.647,2.091,2.625,39.795,161.194,29.669,9.91,25.466
 15:10:24.687,eb:33:2e:f9:57:b5, 2085-97-184 03:67:232:2343,0.371,-2.92,1.403,-28.87,4.028,160.217,29.773,9.207,26.966
 15:10:24.687,eb:33:2e:f9:57:b5, 2085-97-09 250:29:254:15599,1.737,-2.891,1.004,-55.176,28.748,132.629,29.542,8.613,28.323
 15:10:24.687,eb:33:2e:f9:57:b5, 2085-97-36 02:179:01:626,0.667,-0.068,0.387,-377.197,11.414,39.368,26.702,8.509,29.02
 15:10:24.687,eb:33:2e:f9:57:b5, 2085-97-159 00:220:03:2464,-0.169,0.235,0.465,-404.724,32.349,29.236,22.775,8.542,29.52
 15:10:24.718,eb:33:2e:f9:57:b5, 2085-97-156 253:50:253:3505,-0.005,0.133,1.607,-387.512,1.587,-15.198,18.82,8.679,29.641
 15:10:24.718,eb:33:2e:f9:57:b5, 2085-97-244 00:160:249:3455,0.072,-0.761,1.882,-344.055,-27.1,-66.895,15.084,8.663,29.218
 15:10:24.718,eb:33:2e:f9:57:b5, 2085-97-46 01:216:252:2656,0.164,-0.477,1.418,-297.607,-22.095,-99.06,11.766,8.591,28.279
 15:10:24.719,eb:33:2e:f9:57:b5, 2085-97-164 255:186:252:2678,-0.093,-0.412,1.245,-251.831,20.447,-109.802,8.871,8.784,27.241
 15:10:24.776,eb:33:2e:f9:57:b5, 2085-97-131 254:158:255:2539,-0.268,-0.279,1.252,-213.135,36.499,-96.619,6.411,9.223,26.241
 15:10:24.776,eb:33:2e:f9:57:b5, 2085-97-216 252:127:255:2667,-0.575,0.026,1.217,-190.613,41.016,-67.993,4.274,9.695,25.483
 15:10:24.776,eb:33:2e:f9:57:b5, 2085-97-222 251:17:254:2824,-0.48,-0.209,1.4,-159.607,16.296,-45.288,2.422,10.036,24.939
 15:10:24.776,eb:33:2e:f9:57:b5, 2085-97-225 251:138:253:2666,-0.52,-0.227,1.3,-120.789,-18.555,-19.104,0.989,10.025,24.659
 15:10:24.808,eb:33:2e:f9:57:b5, 2085-97-166 252:208:252:2417,-0.252,-0.399,1.27,-78.857,-55.298,-4.944,-0.016,9.63,24.549
 15:10:24.808,eb:33:2e:f9:57:b5, 2085-97-19 255:239:254:1932,-0.057,-0.25,1.059,-47.607,-76.782,-1.953,-0.615,8.932,24.549
 15:10:24.808,eb:33:2e:f9:57:b5, 2085-97-126 255:08:255:1948,-0.092,-0.123,0.93,-36.865,-70.251,-1.831,-1.038,8.185,24.538
 15:10:24.808,eb:33:2e:f9:57:b5, 2085-97-95 255:149:254:1986,-0.066,-0.182,0.967,-24.902,-61.707,0.671,-1.351,7.542,24.576
 15:10:24.837,eb:33:2e:f9:57:b5, 2085-97-178 255:136:255:1966,-0.005,-0.093,0.973,-16.113,-55.42,1.526,-1.549,6.949,24.598
 15:10:24.837,eb:33:2e:f9:57:b5, 2085-97-14 00:50:255:1861,-0.013,-0.066,0.932,-12.39,-45.593,3.845,-1.692,6.449,24.67
 15:10:24.837,eb:33:2e:f9:57:b5, 2085-97-189 255:96:255:1950,-0.038,-0.103,0.918,-7.324,-36.255,3.845,-1.791,6.048,24.719
 15:10:24.837,eb:33:2e:f9:57:b5, 2085-97-169 255:243:255:2050,-0.029,-0.038,0.98,-4.944,-30.823,4.333,-1.846,5.718,24.802
 15:10:24.897,eb:33:2e:f9:57:b5, 2085-97-223 255:214:255:2026,-0.019,-0.009,0.999,-6.104,-24.963,5.493,-1.906,5.444,24.862
 15:10:24.897,eb:33:2e:f9:57:b5, 2085-97-212 255:196:255:2026,-0.021,-0.037,0.986,-6.104,-19.104,5.859,-1.961,5.229,24.95
 15:10:24.897,eb:33:2e:f9:57:b5, 2085-97-225 255:219:255:2039,-0.016,-0.025,0.996,-6.714,-13.855,6.348,-2.032,5.065,25.016
 15:10:24.898,eb:33:2e:f9:57:b5, 2085-97-224 255:227:255:2043,-0.021,-0.019,0.997,-8.057,-8.789,6.897,-2.104,4.96,25.115
 15:10:24.898,eb:33:2e:f9:57:b5, 2085-97-235 255:242:255:2027,-0.025,-0.014,1.002,-9.766,-4.333,7.08,-2.197,4.894,25.186
 15:10:24.926,eb:33:2e:f9:57:b5, 2085-113-58 00:152:254:-4785,-0.015,-0.022,0.99,-11.169,0.305,7.019,-2.296,4.889,25.291
 15:10:24.926,eb:33:2e:f9:57:b5, 2085-97-201 255:184:255:1999,-0.047,-0.023,0.976,-11.23,2.808,7.629,-2.351,4.9,25.329
 15:10:24.926,eb:33:2e:f9:57:b5, 2085-97-132 255:148:255:2027,-0.074,-0.048,0.984,-9.827,4.089,8.362,-2.461,4.938,25.406
 15:10:24.926,eb:33:2e:f9:57:b5, 2085-97-63 255:135:255:2071,-0.108,-0.055,1,-8.118,2.441,8.545,-2.543,4.977,25.516
 15:10:24.957,eb:33:2e:f9:57:b5, 2085-97-50 255:130:255:2074,-0.094,-0.064,1.023,-5.981,-2.502,8.179,-2.62,4.977,25.598
 15:10:24.957,eb:33:2e:f9:57:b5, 2085-97-101 255:148:255:2048,-0.075,-0.062,1.004,-4.15,-6.775,7.812,-2.664,4.933,25.708
 15:10:24.957,eb:33:2e:f9:57:b5, 2085-97-86 255:156:255:2061,-0.09,-0.048,1.003,-3.54,-8.728,7.629,-2.703,4.856,25.79
 15:10:24.957,eb:33:2e:f9:57:b5, 2085-97-90 255:161:255:2075,-0.077,-0.048,1.017,-3.296,-11.841,6.714,-2.73,4.757,25.895
 15:10:25.016,eb:33:2e:f9:57:b5, 2085-97-142 255:182:255:2055,-0.036,-0.047,1.013,-3.662,-14.16,6.165,-2.774,4.625,25.961
 15:10:25.016,eb:33:2e:f9:57:b5, 2085-97-231 255:208:255:2009,-0.011,-0.031,0.992,-4.517,-13.123,6.104,-2.807,4.493,26.06
 15:10:25.016,eb:33:2e:f9:57:b5, 2085-97-219 255:200:255:2022,-0.027,-0.026,0.983,-5.798,-8.24,6.714,-2.867,4.384,26.125
 15:10:25.016,eb:33:2e:f9:57:b5, 2085-97-188 255:190:255:2038,-0.034,-0.033,0.988,-6.897,-4.456,6.714,-2.928,4.334,26.224
 15:10:25.046,eb:33:2e:f9:57:b5, 2085-97-189 255:187:255:2059,-0.05,-0.032,1.007,-8.362,-2.625,6.226,-3.01,4.296,26.29
 15:10:25.046,eb:33:2e:f9:57:b5, 2085-97-136 255:183:255:2093,-0.065,-0.044,1.007,-10.193,-1.16,5.554,-3.104,4.29,26.378
 15:10:25.046,eb:33:2e:f9:57:b5, 2085-97-124 255:174:255:2103,-0.067,-0.042,1.021,-11.963,-1.343,5.493,-3.219,4.274,26.433
 15:10:25.046,eb:33:2e:f9:57:b5, 2085-97-148 255:197:255:2116,-0.048,-0.043,1.03,-13.611,-1.709,4.822,-3.345,4.263,26.51
 15:10:25.077,eb:33:2e:f9:57:b5, 2085-97-154 255:187:255:2116,-0.061,-0.032,1.03,-15.747,0.061,4.333,-3.505,4.252,26.554
 15:10:25.077,eb:33:2e:f9:57:b5, 2085-97-114 255:165:255:2151,-0.084,-0.037,1.045,-17.944,1.709,3.54,-3.669,4.268,26.62
 15:10:25.077,eb:33:2e:f9:57:b5, 2085-97-99 255:177:255:2172,-0.065,-0.054,1.053,-20.203,2.075,2.686,-3.873,4.29,26.653
 15:10:25.077,eb:33:2e:f9:57:b5, 2085-97-150 255:190:255:2215,-0.041,-0.04,1.062,-22.888,3.418,2.747,-4.087,4.318,26.702
 15:10:25.137,eb:33:2e:f9:57:b5, 2085-97-222 255:228:255:2177,0.027,-0.025,1.076,-26.611,5.432,4.028,-4.345,4.362,26.735
 15:10:25.137,eb:33:2e:f9:57:b5, 2085-97-74 00:231:255:2131,0.033,-0.002,1.048,-31.372,11.78,6.287,-4.636,4.449,26.801
 15:10:25.137,eb:33:2e:f9:57:b5, 2085-97-80 00:221:255:2235,-0.004,-0.008,1.083,-35.645,17.639,10.986,-4.971,4.609,26.878
 15:10:25.138,eb:33:2e:f9:57:b5, 2085-97-172 255:210:255:2414,-0.066,-0.029,1.12,-42.114,22.583,12.756,-5.361,4.834,27.01
 15:10:25.168,eb:33:2e:f9:57:b5, 2085-97-123 255:153:255:2327,-0.087,-0.036,1.204,-48.34,18.127,14.648,-5.817,5.043,27.125
 15:10:25.168,eb:33:2e:f9:57:b5, 2085-97-88 255:137:255:2514,-0.079,-0.043,1.187,-53.772,18.86,17.151,-6.317,5.257,27.296
 15:10:25.168,eb:33:2e:f9:57:b5, 2085-97-94 255:174:255:2607,-0.06,-0.035,1.217,-61.218,15.015,19.348,-6.888,5.438,27.455
 15:10:25.168,eb:33:2e:f9:57:b5, 2085-97-106 255:183:255:2618,-0.057,-0.002,1.259,-69.58,10.803,21.484,-7.531,5.587,27.664
 15:10:25.198,eb:33:2e:f9:57:b5, 2085-97-181 255:239:255:2703,-0.032,-0.025,1.323,-78.552,8.24,20.935,-8.262,5.713,27.861
 15:10:25.198,eb:33:2e:f9:57:b5, 2085-97-152 255:224:255:2692,-0.06,-0.008,1.269,-89.172,9.338,22.949,-9.086,5.828,28.098
 15:10:25.198,eb:33:2e:f9:57:b5, 2085-97-123 255:215:255:2751,-0.091,-0.006,1.357,-98.816,6.287,22.034,-10.02,5.944,28.301
 15:10:25.198,eb:33:2e:f9:57:b5, 2085-97-242 254:241:255:2832,-0.154,-0.035,1.333,-109.68,5.737,21.179,-11.052,6.042,28.531
 15:10:25.258,eb:33:2e:f9:57:b5, 2085-97-161 254:149:255:2908,-0.188,-0.038,1.378,-122.803,-0.549,19.897,-12.206,6.086,28.729
 15:10:25.258,eb:33:2e:f9:57:b5, 2085-97-54 254:26:00:3058,-0.255,-0.023,1.48,-136.047,-7.69,15.015,-13.491,6.103,28.932
 15:10:25.258,eb:33:2e:f9:57:b5, 2085-97-173 253:05:00:3241,-0.299,-0.001,1.519,-152.832,-12.512,11.963,-14.93,6.021,29.092
 15:10:25.258,eb:33:2e:f9:57:b5, 2085-97-74 253:121:00:3366,-0.402,0.05,1.654,-173.218,-20.569,4.517,-16.556,5.894,29.235
 15:10:25.288,eb:33:2e:f9:57:b5, 2085-97-64 252:74:00:3480,-0.516,0.037,1.658,-197.021,-27.832,-2.625,-18.419,5.647,29.323
 15:10:25.288,eb:33:2e:f9:57:b5, 2085-97-133 251:115:00:3835,-0.585,0.091,1.769,-223.206,-37.781,-13.611,-20.528,5.317,29.372
 15:10:25.288,eb:33:2e:f9:57:b5, 2085-97-186 250:108:01:4129,-0.743,0.096,1.898,-254.333,-51.086,-28.687,-22.945,4.812,29.333
 15:10:25.288,eb:33:2e:f9:57:b5, 2085-97-139 249:47:01:4202,-0.888,0.132,2.019,-290.222,-71.289,-44.312,-25.692,4.081,29.279
 15:10:25.317,eb:33:2e:f9:57:b5, 2085-97-159 248:226:255:4624,-0.947,0.067,2.216,-323.914,-101.074,-60.913,-28.79,3.076,29.202
 15:10:25.317,eb:33:2e:f9:57:b5, 2085-97-181 248:227:254:4955,-0.835,-0.073,2.348,-348.877,-145.203,-77.82,-32.179,1.659,29.257
 15:10:25.317,eb:33:2e:f9:57:b5, 2085-97-121 249:98:253:4350,-0.826,-0.248,2.327,-359.07,-192.261,-96.313,-35.733,-0.275,29.498
 15:10:25.317,eb:33:2e:f9:57:b5, 2085-97-206 249:170:251:4504,-0.765,-0.714,2.081,-358.887,-196.777,-123.352,-39.353,-2.455,29.872
 15:10:25.379,eb:33:2e:f9:57:b5, 2085-97-183 250:232:254:4409,-0.63,-0.44,2.315,-343.994,-225.83,-150.513,-42.885,-4.927,30.207
 15:10:25.379,eb:33:2e:f9:57:b5, 2085-97-177 250:83:00:3920,-0.637,-0.122,2.027,-338.44,-244.08,-153.015,-46.373,-7.646,30.822
 15:10:25.379,eb:33:2e:f9:57:b5, 2085-97-236 249:56:02:3080,-0.892,0.227,1.633,-346.802,-230.225,-149.658,-49.916,-10.377,31.624
 15:10:25.379,eb:33:2e:f9:57:b5, 2085-97-28 248:161:04:2780,-1.034,0.413,1.509,-366.821,-174.255,-156.494,-53.619,-12.832,32.239
 15:10:25.408,eb:33:2e:f9:57:b5, 2085-97-155 247:107:06:973,-1.021,0.639,0.967,-380.615,-111.023,-163.757,-57.442,-14.93,32.498
 15:10:25.408,eb:33:2e:f9:57:b5, 2085-97-176 249:159:03:-1414,-0.649,0.774,-0.642,-331.299,-19.226,-177.185,-60.969,-16.721,32.184
 15:10:25.408,eb:33:2e:f9:57:b5, 2085-97-68 252:17:04:-443,-0.385,0.282,-0.383,-171.509,62.744,-177.551,-63.1,-18.182,30.992
 15:10:25.408,eb:33:2e:f9:57:b5, 2085-97-237 251:224:08:355,-0.588,0.88,-0.164,-4.272,103.943,-151.367,-63.364,-19.286,29.377
 15:10:25.436,eb:33:2e:f9:57:b5, 2085-97-44 251:249:08:1720,-0.534,1.173,0.591,119.263,88.196,-106.506,-62.144,-19.94,27.817
 15:10:25.436,eb:33:2e:f9:57:b5, 2085-97-90 252:19:08:1879,-0.401,1.068,0.946,174.683,59.387,-80.017,-60.211,-20.391,26.691
 15:10:25.436,eb:33:2e:f9:57:b5, 2085-97-03 253:39:07:1369,-0.346,0.953,0.811,186.279,58.96,-69.702,-58.052,-20.726,25.763
 15:10:25.436,eb:33:2e:f9:57:b5, 2085-97-145 253:97:06:893,-0.24,0.84,0.532,189.636,75.439,-59.57,-55.827,-20.896,24.769
 15:10:25.497,eb:33:2e:f9:57:b5, 2085-97-151 254:58:06:707,-0.119,0.777,0.373,201.843,94.971,-42.419,-53.487,-20.808,23.698
 15:10:25.497,eb:33:2e:f9:57:b5, 2085-97-158 255:123:06:648,-0.009,0.791,0.323,225.22,109.68,-15.503,-50.982,-20.396,22.626
 15:10:25.497,eb:33:2e:f9:57:b5, 2085-97-234 255:27:07:1260,-0.019,0.854,0.425,255.981,117.188,23.376,-48.241,-19.605,21.725
 15:10:25.497,eb:33:2e:f9:57:b5, 2085-97-208 255:247:06:1880,-0.032,0.89,0.793,279.297,99.121,66.711,-45.39,-18.512,21.215
 15:10:25.528,eb:33:2e:f9:57:b5, 2085-97-153 255:49:06:1982,-0.072,0.833,0.975,288.879,71.777,107.666,-42.539,-17.276,21.275
 15:10:25.528,eb:33:2e:f9:57:b5, 2085-97-60 255:250:04:1744,-0.122,0.7,0.92,287.903,55.725,141.968,-39.847,-15.996,21.835
 15:10:25.528,eb:33:2e:f9:57:b5, 2085-97-192 254:236:03:1512,-0.2,0.553,0.784,282.776,60.12,168.335,-37.216,-14.568,22.742
 15:10:25.528,eb:33:2e:f9:57:b5, 2085-97-04 254:18:03:1599,-0.287,0.436,0.738,277.771,79.651,188.599,-34.673,-12.942,23.818
 15:10:25.557,eb:33:2e:f9:57:b5, 2085-97-108 253:109:02:1907,-0.368,0.34,0.848,275.024,99.792,203.979,-32.141,-11.091,24.988
 15:10:25.557,eb:33:2e:f9:57:b5, 2085-97-202 252:245:01:2250,-0.421,0.274,1.024,276.794,109.741,216.736,-29.608,-9.08,26.301
 15:10:25.557,eb:33:2e:f9:57:b5, 2085-97-85 252:137:01:2597,-0.502,0.218,1.169,284.668,109.802,229.431,-26.982,-7.042,27.762
 15:10:25.557,eb:33:2e:f9:57:b5, 2085-97-149 251:226:00:3045,-0.586,0.159,1.376,293.03,100.952,239.624,-24.263,-5.065,29.465
 15:10:25.617,eb:33:2e:f9:57:b5, 2085-97-19 251:35:00:3268,-0.651,0.063,1.549,297.241,86.121,244.202,-21.418,-3.268,31.344
 15:10:25.617,eb:33:2e:f9:57:b5, 2085-113-58 00:119:01:-4365,-0.7,-0.03,1.644,295.837,76.782,241.76,-18.534,-1.67,33.382
 15:10:25.618,eb:33:2e:f9:57:b5, 2085-97-250 249:04:255:3608,-0.803,-0.08,1.703,294.495,72.327,238.586,-17.062,-0.945,34.415
 15:10:25.618,eb:33:2e:f9:57:b5, 2085-97-72 249:125:254:3730,-0.888,-0.16,1.807,292.603,60.791,230.225,-14.134,0.319,36.519
 15:10:25.647,eb:33:2e:f9:57:b5, 2085-97-114 248:01:254:4014,-1.014,-0.227,1.875,292.969,52.612,220.581,-11.157,1.362,38.589
 15:10:25.647,eb:33:2e:f9:57:b5, 2085-97-86 247:102:253:4368,-1.148,-0.282,2.059,294.983,39.429,210.938,-8.146,2.186,40.66
 15:10:25.647,eb:33:2e:f9:57:b5, 2085-97-90 246:111:252:4410,-1.265,-0.379,2.162,297.424,21.79,199.402,-5.076,2.719,42.665
 15:10:25.647,eb:33:2e:f9:57:b5, 2085-97-77 245:48:251:4284,-1.414,-0.522,2.122,300.781,15.32,183.594,-1.989,3.01,44.594
 15:10:25.678,eb:33:2e:f9:57:b5, 2085-97-70 244:177:249:4225,-1.503,-0.691,2.072,306.396,20.996,163.879,1.165,3.208,46.324
 15:10:25.678,eb:33:2e:f9:57:b5, 2085-97-221 243:81:248:4217,-1.531,-0.875,2.063,311.768,35.461,139.954,4.345,3.417,47.873
 15:10:25.678,eb:33:2e:f9:57:b5, 2085-97-178 243:212:246:4229,-1.538,-1.046,2.061,312.866,52.002,115.295,7.575,3.741,49.18
 15:10:25.678,eb:33:2e:f9:57:b5, 2085-97-192 243:148:244:4189,-1.527,-1.272,2.061,306.458,64.941,90.21,10.756,4.164,50.312
 15:10:25.738,eb:33:2e:f9:57:b5, 2085-97-65 244:198:241:3923,-1.312,-1.603,2.019,290.039,81.604,57.861,13.821,4.741,51.191
 15:10:25.738,eb:33:2e:f9:57:b5, 2085-97-247 246:152:239:3252,-0.893,-1.952,1.698,267.273,122.742,21.057,16.655,5.614,51.844
 15:10:25.738,eb:33:2e:f9:57:b5, 2085-97-30 251:124:239:3204,-0.307,-2.088,1.547,235.535,191.895,-13.611,19.232,7.141,52.355
 15:10:25.738,eb:33:2e:f9:57:b5, 2085-97-18 00:148:240:3695,0.3,-1.994,1.658,197.327,250.427,-26.917,21.462,9.349,52.965
 15:10:25.796,eb:33:2e:f9:57:b5, 2085-97-125 04:182:240:4420,0.809,-1.901,1.984,160.645,258.728,-9.583,23.39,11.843,53.789
 15:10:25.796,eb:33:2e:f9:57:b5, 2085-97-148 08:166:239:4604,1.271,-1.964,2.268,128.601,204.651,31.738,25.065,13.92,54.91
 15:10:25.796,eb:33:2e:f9:57:b5, 2085-97-19 11:15:237:4218,1.445,-2.211,2.174,82.458,125.427,82.031,26.455,15.139,56.19
 15:10:25.796,eb:33:2e:f9:57:b5, 2085-97-153 11:179:235:3646,1.443,-2.483,1.913,27.527,70.984,114.99,27.35,15.513,57.59
 15:10:25.799,eb:33:2e:f9:57:b5, 2085-97-139 11:125:236:3082,1.452,-2.523,1.632,-25.452,36.316,138.428,27.702,15.37,59.013
 15:10:25.799,eb:33:2e:f9:57:b5, 2085-97-213 11:87:239:2638,0.614,-2.286,1.396,-61.279,22.949,160.767,27.631,14.914,60.551
 15:10:25.799,eb:33:2e:f9:57:b5, 2085-97-203 21:236:230:9693,1.609,0.341,5.484,-179.443,-77.393,260.193,27.202,14.293,62.43
 15:10:25.799,eb:33:2e:f9:57:b5, 2085-97-158 06:174:06:285,1.551,-0.736,0.509,-303.955,-211.792,126.526,24.505,11.53,62.644
 15:10:25.858,eb:33:2e:f9:57:b5, 2085-97-95 09:255:06:1915,0.369,1.259,0.35,-371.277,-102.539,129.883,21.154,9.591,63.402
 15:10:25.858,eb:33:2e:f9:57:b5, 2085-97-12 00:253:247:3918,0.195,0.047,1.411,-361.572,-46.143,29.48,17.551,8.745,63.935
 15:10:25.858,eb:33:2e:f9:57:b5, 2085-97-108 03:157:247:2721,0.605,-1.441,1.758,-302.734,-79.346,-78.857,14.15,8.229,63.446
 15:10:25.858,eb:33:2e:f9:57:b5, 2085-97-177 03:10:255:1902,0.288,-0.469,1.029,-253.54,-40.1,-121.643,11.245,7.822,62.254
 15:10:25.917,eb:33:2e:f9:57:b5, 2085-97-73 01:231:254:2273,0.108,-0.131,1.059,-225.098,26.184,-114.258,8.685,8.02,61.057
 15:10:25.917,eb:33:2e:f9:57:b5, 2085-97-163 253:145:00:2451,-0.537,0.077,1.088,-199.402,66.711,-74.646,6.454,8.641,60.189
 15:10:25.917,eb:33:2e:f9:57:b5, 2085-97-225 250:51:255:2884,-0.532,0.003,1.335,-178.101,52.979,-43.274,4.477,9.327,59.683
 15:10:25.917,eb:33:2e:f9:57:b5, 2085-97-72 252:138:254:2638,-0.417,-0.14,1.351,-148.621,7.751,-20.996,2.807,9.624,59.403
 15:10:25.917,eb:33:2e:f9:57:b5, 2085-97-250 252:249:252:2492,-0.379,-0.302,1.244,-112.244,-20.813,-3.052,1.483,9.536,59.299
 15:10:25.917,eb:33:2e:f9:57:b5, 2085-97-58 253:95:253:2292,-0.223,-0.372,1.158,-72.815,-42.48,1.953,0.577,9.207,59.321
 15:10:25.917,eb:33:2e:f9:57:b5, 2085-97-236 254:60:255:2010,-0.088,-0.21,1.043,-45.349,-55.542,3.235,0.005,8.69,59.337
 15:10:25.917,eb:33:2e:f9:57:b5, 2085-97-155 255:152:254:1900,0.049,-0.112,0.946,-33.142,-52.49,7.385,-0.363,8.141,59.425
 15:10:26.008,eb:33:2e:f9:57:b5, 2085-97-117 00:117:255:1817,-0.023,-0.143,0.883,-20.691,-41.87,2.991,-0.632,7.657,59.474
 15:10:26.008,eb:33:2e:f9:57:b5, 2085-97-49 255:121:255:2068,-0.11,-0.035,0.943,-17.212,-28.748,4.578,-0.813,7.328,59.546
 15:10:26.008,eb:33:2e:f9:57:b5, 2085-97-207 255:154:255:1947,0.004,-0.073,1.024,-12.878,-28.931,4.883,-0.967,7.042,59.595
 15:10:26.008,eb:33:2e:f9:57:b5, 2085-97-228 255:172:255:1919,-0.039,-0.042,0.925,-10.376,-20.325,4.944,-1.077,6.795,59.667
 15:10:26.008,eb:33:2e:f9:57:b5, 2085-97-131 255:212:255:2043,-0.087,-0.034,0.965,-9.216,-13.611,4.089,-1.181,6.63,59.716
 15:10:26.008,eb:33:2e:f9:57:b5, 2085-97-68 255:222:255:2146,-0.085,-0.022,1.035,-9.888,-11.536,3.906,-1.274,6.509,59.782
 15:10:26.008,eb:33:2e:f9:57:b5, 2085-97-128 255:250:255:2121,-0.04,-0.01,1.05,-11.414,-10.925,4.272,-1.384,6.4,59.826
 15:10:26.008,eb:33:2e:f9:57:b5, 2085-97-242 255:03:00:2040,0.024,-0.003,1.017,-13.794,-7.08,4.395,-1.511,6.306,59.892
 15:10:26.067,eb:33:2e:f9:57:b5, 2085-97-15 00:250:255:1994,-0.012,0.007,0.971,-15.93,2.075,5.798,-1.67,6.279,59.941
 15:10:26.067,eb:33:2e:f9:57:b5, 2085-97-168 255:214:255:2036,-0.078,-0.013,0.978,-17.212,10.193,6.287,-1.829,6.356,60.024
 15:10:26.067,eb:33:2e:f9:57:b5, 2085-97-46 255:167:255:2091,-0.105,-0.035,1.007,-17.029,12.573,6.226,-2.01,6.471,60.084
 15:10:26.067,eb:33:2e:f9:57:b5, 2085-97-06 255:143:255:2099,-0.112,-0.043,1.017,-15.442,9.949,6.47,-2.164,6.592,60.167
 15:10:26.097,eb:33:2e:f9:57:b5, 2085-97-17 255:134:255:2088,-0.129,-0.06,1.023,-13.184,4.333,6.042,-2.313,6.652,60.222
 15:10:26.097,eb:33:2e:f9:57:b5, 2085-97-236 254:122:255:2089,-0.138,-0.065,1.019,-10.986,-0.183,5.859,-2.428,6.68,60.304
 15:10:26.097,eb:33:2e:f9:57:b5, 2085-97-225 254:125:255:2102,-0.14,-0.068,1.021,-8.484,-6.531,5.676,-2.527,6.641,60.364
 15:10:26.097,eb:33:2e:f9:57:b5, 2085-97-240 254:135:255:2101,-0.123,-0.06,1.026,-6.47,-12.573,5.371,-2.598,6.548,60.447
 15:10:26.127,eb:33:2e:f9:57:b5, 2085-97-12 255:162:255:2130,-0.101,-0.054,1.032,-5.737,-16.907,4.883,-2.659,6.394,60.502
 15:10:26.127,eb:33:2e:f9:57:b5, 2085-97-89 255:186:255:2090,-0.046,-0.041,1.029,-5.92,-19.897,4.761,-2.714,6.213,60.584
 15:10:26.127,eb:33:2e:f9:57:b5, 2085-97-207 255:223:255:2020,-0.008,-0.023,1.001,-6.531,-17.883,5.188,-2.78,6.015,60.639
 15:10:26.127,eb:33:2e:f9:57:b5, 2085-97-240 255:235:255:2007,-0.023,-0.011,0.977,-7.996,-10.803,5.981,-2.851,5.878,60.727
 15:10:26.187,eb:33:2e:f9:57:b5, 2085-97-175 255:211:255:2058,-0.043,-0.019,0.989,-9.888,-3.967,6.226,-2.944,5.812,60.787
 15:10:26.187,eb:33:2e:f9:57:b5, 2085-97-159 255:202:255:2061,-0.051,-0.023,1.007,-11.841,0.122,6.592,-3.049,5.801,60.875
 15:10:26.187,eb:33:2e:f9:57:b5, 2085-97-113 255:177:255:2084,-0.089,-0.028,1.004,-13.611,3.967,6.836,-3.186,5.823,60.941
 15:10:26.187,eb:33:2e:f9:57:b5, 2085-97-56 255:159:255:2136,-0.094,-0.045,1.032,-14.893,3.967,7.141,-3.323,5.872,61.029
 15:10:26.219,eb:33:2e:f9:57:b5, 2085-97-73 255:151:255:2100,-0.08,-0.044,1.04,-15.869,2.197,7.141,-3.483,5.9,61.1
 15:10:26.219,eb:33:2e:f9:57:b5, 2085-97-112 255:183:255:2126,-0.063,-0.044,1.031,-16.602,1.831,7.324,-3.636,5.927,61.194
 15:10:26.219,eb:33:2e:f9:57:b5, 2085-97-129 255:206:255:2160,-0.04,-0.021,1.054,-20.02,3.601,7.446,-3.823,5.955,61.265
 15:10:26.219,eb:33:2e:f9:57:b5, 2085-97-182 255:216:255:2131,-0.042,-0.015,1.052,-23.682,6.348,8.362,-4.043,6.01,61.359
 15:10:26.219,eb:33:2e:f9:57:b5, 2085-113-58 00:170:251:-6705,-0.023,-0.012,1.051,-27.71,10.254,9.888,-4.301,6.103,61.447
 15:10:26.247,eb:33:2e:f9:57:b5, 2085-97-205 255:251:255:2259,0.005,0.012,1.108,-30.334,10.742,11.841,-4.444,6.158,61.49
 15:10:26.247,eb:33:2e:f9:57:b5, 2085-97-90 00:42:00:2271,0.053,0.015,1.095,-36.377,13.367,16.663,-4.763,6.284,61.65
 15:10:26.247,eb:33:2e:f9:57:b5, 2085-97-43 00:23:00:2282,0.011,-0.023,1.056,-44.556,23.56,18.555,-5.164,6.476,61.815
 15:10:26.248,eb:33:2e:f9:57:b5, 2085-97-203 255:231:255:2389,-0.081,0.013,1.157,-52.612,28.32,21.606,-5.636,6.768,62.018
 15:10:26.307,eb:33:2e:f9:57:b5, 2085-97-11 255:148:255:2365,-0.126,-0.029,1.175,-59.692,26.55,24.353,-6.185,7.07,62.221
 15:10:26.307,eb:33:2e:f9:57:b5, 2085-97-218 254:146:255:2527,-0.114,-0.077,1.123,-64.88,26.917,23.743,-6.79,7.355,62.457
 15:10:26.307,eb:33:2e:f9:57:b5, 2085-97-05 255:157:255:2542,-0.125,-0.016,1.229,-71.655,21.179,26.55,-7.454,7.614,62.672
 15:10:26.307,eb:33:2e:f9:57:b5, 2085-97-216 254:218:255:2739,-0.177,-0.022,1.335,-80.261,16.968,26.306,-8.185,7.85,62.93
 15:10:26.337,eb:33:2e:f9:57:b5, 2085-97-142 254:173:255:2776,-0.229,-0.036,1.332,-91.675,9.338,26.917,-9.025,8.015,63.188
 15:10:26.337,eb:33:2e:f9:57:b5, 2085-97-238 253:154:255:2844,-0.308,-0.024,1.414,-101.624,0,24.963,-9.965,8.113,63.463
 15:10:26.337,eb:33:2e:f9:57:b5, 2085-97-107 253:115:255:2936,-0.314,-0.068,1.42,-112.61,-8.362,19.592,-11.019,8.108,63.688
 15:10:26.337,eb:33:2e:f9:57:b5, 2085-97-162 253:113:255:2992,-0.286,-0.066,1.41,-124.634,-15.869,13.367,-12.184,8.009,63.896
 15:10:26.366,eb:33:2e:f9:57:b5, 2085-97-191 253:228:255:2949,-0.287,-0.016,1.463,-138.184,-25.269,7.385,-13.491,7.822,64.034
 15:10:26.366,eb:33:2e:f9:57:b5, 2085-97-139 253:19:00:3112,-0.333,-0.009,1.498,-153.442,-30.823,1.892,-14.947,7.57,64.166
 15:10:26.366,eb:33:2e:f9:57:b5, 2085-97-98 253:63:00:3231,-0.349,-0.032,1.507,-171.448,-37.17,-6.042,-16.573,7.224,64.248
 15:10:26.366,eb:33:2e:f9:57:b5, 2085-97-227 252:176:00:3506,-0.461,0.097,1.67,-194.153,-44.25,-11.475,-18.408,6.823,64.308
 15:10:26.427,eb:33:2e:f9:57:b5, 2085-97-141 251:223:00:3763,-0.63,0.093,1.729,-221.191,-49.5,-20.874,-20.5,6.312,64.308
 15:10:26.427,eb:33:2e:f9:57:b5, 2085-97-62 250:19:01:4002,-0.809,0.075,1.917,-252.136,-63.538,-36.56,-22.89,5.68,64.265
 15:10:26.427,eb:33:2e:f9:57:b5, 2085-97-190 248:105:01:4139,-0.97,0.132,1.976,-286.743,-80.444,-54.871,-25.615,4.834,64.149
 15:10:26.427,eb:33:2e:f9:57:b5, 2085-97-241 247:218:00:4414,-0.991,0.185,2.098,-323.608,-105.896,-73.242,-28.696,3.708,64.023
 15:10:26.461,eb:33:2e:f9:57:b5, 2085-97-26 248:166:00:4914,-0.943,0.097,2.313,-359.68,-138.855,-96.069,-32.146,2.208,63.896
 15:10:26.461,eb:33:2e:f9:57:b5, 2085-97-194 248:58:253:5117,-0.824,-0.173,2.375,-390.015,-172.302,-115.845,-35.925,0.297,63.929
 15:10:26.461,eb:33:2e:f9:57:b5, 2085-97-55 250:209:252:4531,-0.701,-0.236,2.538,-397.766,-209.473,-138.306,-39.869,-2.01,64.083
 15:10:26.461,eb:33:2e:f9:57:b5, 2085-97-140 250:176:253:4552,-0.601,-0.516,2.13,-393.188,-202.271,-165.344,-43.857,-4.554,64.358
 15:10:26.491,eb:33:2e:f9:57:b5, 2085-97-232 251:50:255:4249,-0.545,-0.089,2.135,-382.996,-217.529,-180.176,-47.758,-7.284,64.649
 15:10:26.491,eb:33:2e:f9:57:b5, 2085-97-59 251:211:01:3908,-0.705,0.108,2.029,-379.944,-221.191,-181.091,-51.647,-10.096,65.165
 15:10:26.491,eb:33:2e:f9:57:b5, 2085-97-51 249:115:03:3274,-0.984,0.363,1.722,-392.09,-190.186,-176.27,-55.618,-12.794,65.825
 15:10:26.491,eb:33:2e:f9:57:b5, 2085-97-179 247:252:05:851,-1.003,0.509,1.301,-395.935,-116.333,-186.89,-59.661,-15.095,66.149
 15:10:26.547,eb:33:2e:f9:57:b5, 2085-97-139 247:86:06:-3223,-0.878,1.233,-1.55,-302.124,10.254,-188.904,-63.116,-17.117,65.742
 15:10:26.547,eb:33:2e:f9:57:b5, 2085-97-251 249:170:04:-181,-0.695,0.292,-0.937,-107.117,111.45,-187.256,-64.649,-18.506,64.199
 15:10:26.547,eb:33:2e:f9:57:b5, 2085-97-98 249:80:10:1248,-0.828,1.027,0.316,64.819,136.841,-170.044,-64.039,-19.55,62.144
 15:10:26.547,eb:33:2e:f9:57:b5, 2085-97-110 250:183:10:1882,-0.521,1.358,0.828,161.987,107.239,-140.259,-62.144,-20.363,60.266
 15:10:26.576,eb:33:2e:f9:57:b5, 2085-97-223 252:41:10:1450,-0.326,1.302,0.841,187.805,93.506,-128.174,-59.777,-21.05,58.678
 15:10:26.576,eb:33:2e:f9:57:b5, 2085-97-226 253:113:09:1023,-0.181,1.226,0.597,186.035,111.328,-117.737,-57.321,-21.55,57.074
 15:10:26.576,eb:33:2e:f9:57:b5, 2085-97-86 255:66:09:779,0.013,1.162,0.42,182.434,134.705,-101.318,-54.827,-21.758,55.311
 15:10:26.577,eb:33:2e:f9:57:b5, 2085-97-214 00:102:09:909,0.166,1.16,0.396,188.232,153.259,-73.792,-52.317,-21.588,53.509
 15:10:26.607,eb:33:2e:f9:57:b5, 2085-97-168 01:198:09:1268,0.241,1.201,0.532,206.421,153.198,-33.508,-49.735,-21.011,51.855
 15:10:26.607,eb:33:2e:f9:57:b5, 2085-97-31 02:182:09:1452,0.266,1.226,0.682,230.835,134.583,15.137,-47.115,-20.105,50.685
 15:10:26.607,eb:33:2e:f9:57:b5, 2085-97-217 01:183:08:1420,0.189,1.168,0.703,252.441,118.408,62.744,-44.462,-18.929,50.043
 15:10:26.607,eb:33:2e:f9:57:b5, 2085-97-76 01:53:07:1337,0.118,0.995,0.679,267.273,117.432,99.365,-41.792,-17.501,49.878
 15:10:26.667,eb:33:2e:f9:57:b5, 2085-97-74 00:181:05:1393,0.027,0.809,0.641,273.682,138.855,121.216,-39.073,-15.793,49.905
 15:10:26.667,eb:33:2e:f9:57:b5, 2085-97-03 00:174:04:1587,-0.018,0.633,0.709,274.841,171.631,129.822,-36.343,-13.777,49.982
 15:10:26.667,eb:33:2e:f9:57:b5, 2085-97-207 255:26:04:1992,-0.022,0.543,0.864,275.94,201.721,131.592,-33.574,-11.464,49.971
 15:10:26.667,eb:33:2e:f9:57:b5, 2085-97-199 255:02:04:2615,-0.013,0.5,1.109,282.043,214.661,134.888,-30.784,-8.97,49.999
 15:10:26.726,eb:33:2e:f9:57:b5, 2085-97-10 00:214:03:3172,0.012,0.489,1.441,291.26,201.111,140.991,-27.922,-6.46,50.175
 15:10:26.726,eb:33:2e:f9:57:b5, 2085-97-54 00:113:03:3440,0.021,0.454,1.628,297.791,178.528,147.461,-25.016,-4.12,50.652
 15:10:26.726,eb:33:2e:f9:57:b5, 2085-97-08 00:251:02:3657,-0.019,0.403,1.736,302.368,154.602,153.198,-22.028,-1.994,51.372
 15:10:26.727,eb:33:2e:f9:57:b5, 2085-97-152 255:111:02:3799,-0.093,0.344,1.828,304.382,131.165,156.494,-19.006,-0.121,52.35
 15:10:26.729,eb:33:2e:f9:57:b5, 2085-97-221 254:167:01:3886,-0.196,0.257,1.878,305.115,110.779,157.471,-15.925,1.494,53.492
 15:10:26.729,eb:33:2e:f9:57:b5, 2085-97-20 254:223:00:3926,-0.279,0.151,1.905,306.396,95.459,154.358,-12.816,2.867,54.772
 15:10:26.729,eb:33:2e:f9:57:b5, 2085-97-99 253:132:00:4187,-0.352,0.083,1.958,309.143,88.867,149.597,-9.635,4.065,56.091
 15:10:26.729,eb:33:2e:f9:57:b5, 2085-97-235 252:137:00:4590,-0.432,0.062,2.135,311.646,80.322,145.874,-6.422,5.109,57.458
 15:10:26.788,eb:33:2e:f9:57:b5, 2085-97-40 252:37:00:5015,-0.541,0.053,2.355,315.918,64.636,147.522,-3.12,5.96,58.865
 15:10:26.788,eb:33:2e:f9:57:b5, 2085-97-211 250:160:254:5293,-0.768,-0.054,2.518,324.219,43.091,152.649,0.242,6.531,60.386
 15:10:26.788,eb:33:2e:f9:57:b5, 2085-97-231 248:144:251:5439,-0.995,-0.337,2.63,334.534,15.076,154.785,3.746,6.762,61.952
 15:10:26.788,eb:33:2e:f9:57:b5, 2085-97-50 247:47:247:5349,-1.149,-0.82,2.648,336.06,-8.545,142.273,7.284,6.63,63.474
 15:10:26.817,eb:33:2e:f9:57:b5, 2085-97-39 246:07:242:4949,-1.274,-1.434,2.537,317.627,-13.123,108.582,10.728,6.301,64.709
 15:10:26.817,eb:33:2e:f9:57:b5, 2085-97-227 245:150:236:4238,-1.145,-2.102,2.27,280.029,11.23,53.345,13.793,6.108,65.511
 15:10:26.817,eb:33:2e:f9:57:b5, 2085-97-132 248:139:234:3249,-0.613,-2.623,1.812,239.075,67.261,-16.235,16.408,6.46,65.764
 15:10:26.818,eb:33:2e:f9:57:b5, 2085-97-251 253:216:236:2978,0.252,-2.592,1.451,200.562,144.714,-68.542,18.572,7.646,65.665
 15:10:26.847,eb:33:2e:f9:57:b5, 2085-97-102 08:28:241:2845,1.437,-2.167,1.45,151.489,215.271,-89.722,20.303,9.657,65.495
 15:10:26.847,eb:33:2e:f9:57:b5, 2085-97-57 13:30:243:5231,1.794,-1.708,1.902,104.187,260.925,-64.514,21.577,12.294,65.693
 15:10:26.847,eb:33:2e:f9:57:b5, 2085-97-164 14:162:240:6359,1.791,-1.682,3.06,82.214,116.638,5.615,22.599,14.271,66.187
 15:10:26.847,eb:33:2e:f9:57:b5, 2085-97-109 13:48:234:4264,1.537,-2.295,2.738,71.167,-67.993,63.782,23.478,14.205,66.632
 15:10:26.937,eb:33:2e:f9:57:b5, 2085-97-122 11:208:227:1363,1.301,-3.17,1.312,36.194,-128.418,73.853,24.071,12.854,66.852
 15:10:26.937,eb:33:2e:f9:57:b5, 2085-113-81 00:85:105:3859,1.196,-3.655,0.423,-17.517,-53.589,34.18,24.164,11.794,67
 15:10:26.937,eb:33:2e:f9:57:b5, 2085-97-161 09:156:230:1791,1.322,-3.512,0.56,-42.114,-19.165,13.367,24.005,11.602,67.033
 15:10:26.937,eb:33:2e:f9:57:b5, 2085-97-175 11:224:237:2960,1.564,-2.727,1.193,-76.05,-8.728,0.61,23.379,11.525,67.055
 15:10:26.940,eb:33:2e:f9:57:b5, 2085-97-102 12:31:243:3305,-2.146,-1.879,1.575,-96.924,-43.823,27.649,22.489,11.223,67.066
 15:10:26.940,eb:33:2e:f9:57:b5, 2085-97-21 06:105:15:-557,-1.109,2.403,7.899,-198.12,-173.645,-32.898,21.275,10.596,67.264
 15:10:26.940,eb:33:2e:f9:57:b5, 2085-97-13 247:20:23:3554,-0.956,3.504,0.773,-295.471,-91.736,-28.748,18.699,9.575,66.412
 15:10:26.940,eb:33:2e:f9:57:b5, 2085-97-79 253:179:00:3142,0.444,1.382,1.54,-400.208,-169.678,-85.815,14.875,8.509,65.429
 15:10:26.966,eb:33:2e:f9:57:b5, 2085-97-204 05:181:249:2088,0.705,-0.725,1.257,-356.018,-165.955,-82.458,10.854,6.971,64.166
 15:10:26.966,eb:33:2e:f9:57:b5, 2085-97-211 02:81:252:2608,-0.062,-0.588,0.956,-275.33,-93.506,-54.871,7.657,5.795,63.336
 15:10:26.966,eb:33:2e:f9:57:b5, 2085-97-55 255:179:251:3068,-0.079,-0.503,1.52,-221.313,-48.584,-57.617,5.147,5.257,62.704
 15:10:26.966,eb:33:2e:f9:57:b5, 2085-97-108 00:197:255:2225,-0.087,-0.233,1.272,-185.242,-49.5,-52.612,3.098,4.818,62.111
 15:10:27.027,eb:33:2e:f9:57:b5, 2085-97-13 254:168:250:2571,-0.207,-0.146,1.225,-150.024,-39.551,-0.122,1.379,4.417,61.82
 15:10:27.027,eb:33:2e:f9:57:b5, 2085-97-96 00:168:251:2043,0.163,-1.02,1.209,-67.81,-40.344,2.808,0.33,4.059,61.93
 15:10:27.027,eb:33:2e:f9:57:b5, 2085-97-173 00:22:00:1876,0.123,-0.116,0.876,-29.602,-32.959,14.526,-0.093,3.631,61.99
 15:10:27.027,eb:33:2e:f9:57:b5, 2085-97-107 01:133:255:1632,0.104,-0.007,0.859,-30.884,-18.738,7.69,-0.385,3.389,62.133
 15:10:27.088,eb:33:2e:f9:57:b5, 2085-97-51 00:196:254:1891,-0.012,-0.188,0.836,-21.179,-2.808,5.188,-0.659,3.296,62.205
 15:10:27.088,eb:33:2e:f9:57:b5, 2085-97-33 00:125:255:2004,0.05,-0.087,0.978,-11.414,1.587,0.671,-0.807,3.301,62.249
 15:10:27.088,eb:33:2e:f9:57:b5, 2085-97-119 00:209:255:1963,0.046,-0.049,0.964,-8.85,6.287,-0.122,-0.917,3.334,62.243
 15:10:27.088,eb:33:2e:f9:57:b5, 2085-97-233 255:210:255:2016,-0.056,-0.003,0.961,-9.705,12.146,-0.732,-1.011,3.433,62.26
 15:10:27.090,eb:33:2e:f9:57:b5, 2085-97-98 255:139:255:2122,-0.082,-0.052,1.015,-9.216,10.498,-0.977,-1.121,3.543,62.249
 15:10:27.090,eb:33:2e:f9:57:b5, 2085-97-192 255:159:255:2052,-0.026,-0.05,1.044,-7.08,6.409,-0.671,-1.203,3.631,62.26
 15:10:27.090,eb:33:2e:f9:57:b5, 2085-97-02 00:219:255:2032,-0.018,-0.035,1.006,-6.348,5.554,-0.183,-1.285,3.68,62.249
 15:10:27.090,eb:33:2e:f9:57:b5, 2085-97-191 255:253:255:2117,-0.032,-0.009,1.017,-7.446,8.118,0.549,-1.357,3.752,62.271
 15:10:27.149,eb:33:2e:f9:57:b5, 2085-97-215 255:40:00:2131,-0.012,0.013,1.045,-10.01,9.338,1.587,-1.456,3.834,62.276
 15:10:27.149,eb:33:2e:f9:57:b5, 2085-97-232 255:09:00:2116,-0.015,0.012,1.034,-13.123,12.512,2.93,-1.571,3.944,62.32
 15:10:27.150,eb:33:2e:f9:57:b5, 2085-97-190 255:254:255:2134,-0.03,0.003,1.035,-15.198,15.32,4.761,-1.725,4.081,62.353
 15:10:27.150,eb:33:2e:f9:57:b5, 2085-97-197 255:237:255:2090,-0.039,-0.003,1.031,-17.029,16.418,5.737,-1.884,4.246,62.424
 15:10:27.178,eb:33:2e:f9:57:b5, 2085-97-113 255:178:255:2098,-0.087,-0.016,1.015,-17.151,18.005,7.263,-2.065,4.411,62.479
 15:10:27.178,eb:33:2e:f9:57:b5, 2085-97-39 255:167:255:2143,-0.124,-0.038,1.036,-16.174,15.259,7.385,-2.23,4.587,62.567
 15:10:27.178,eb:33:2e:f9:57:b5, 2085-97-235 254:146:255:2163,-0.139,-0.05,1.051,-14.404,9.583,7.446,-2.39,4.702,62.639
 15:10:27.178,eb:33:2e:f9:57:b5, 2085-97-238 254:116:255:2131,-0.125,-0.058,1.047,-12.329,0.977,7.202,-2.516,4.757,62.732
 15:10:27.208,eb:33:2e:f9:57:b5, 2085-97-50 255:133:255:2078,-0.089,-0.065,1.032,-9.949,-7.385,6.836,-2.631,4.713,62.803
 15:10:27.208,eb:33:2e:f9:57:b5, 2085-97-116 255:148:255:2037,-0.053,-0.059,1.006,-7.996,-12.146,6.775,-2.719,4.614,62.902
