Time,Device name,Chip Time(),Acceleration X(g),Acceleration Y(g),Acceleration Z(g),Angular velocity X(°/s),Angular velocity Y(°/s),Angular velocity Z(°/s),Angle X(°),Angle Y(°),Angle Z(°)
 15:03:26.587,eb:33:2e:f9:57:b5, 2085-97-253 255:255:255:2052,-0.001,0,1.003,0.427,-1.526,0,-0.06,0.088,179.088
 15:03:26.587,eb:33:2e:f9:57:b5, 2085-97-253 255:00:00:2052,-0.002,-0.001,1.001,0.366,-1.404,0.061,-0.055,0.071,179.088
 15:03:26.587,eb:33:2e:f9:57:b5, 2085-97-248 255:00:00:2059,-0.002,0.001,1.005,0.183,-1.465,0.122,-0.055,0.055,179.088
 15:03:26.587,eb:33:2e:f9:57:b5, 2085-97-255 255:02:00:2050,-0.001,0,1.003,0,-1.587,0.244,-0.055,0.038,179.088
 15:03:26.587,eb:33:2e:f9:57:b5, 2085-97-255 255:00:00:2048,0,0.001,1.002,-0.183,-1.343,0.183,-0.055,0.027,179.094
 15:03:26.587,eb:33:2e:f9:57:b5, 2085-97-255 255:253:255:2051,0,-0.001,1.001,-0.305,-1.16,0.183,-0.06,0.011,179.094
 15:03:26.587,eb:33:2e:f9:57:b5, 2085-97-01 00:255:255:2051,0,0,1.002,-0.366,-1.038,0.244,-0.06,0,179.094
 15:03:26.587,eb:33:2e:f9:57:b5, 2085-97-02 00:253:255:2048,0.001,0,1.001,-0.427,-0.671,0.366,-0.066,-0.005,179.099
 15:03:26.590,eb:33:2e:f9:57:b5, 2085-97-02 00:255:255:2043,0,-0.001,1,-0.427,-0.488,0.244,-0.071,-0.011,179.099
 15:03:26.590,eb:33:2e:f9:57:b5, 2085-97-252 255:253:255:2049,-0.004,0,0.998,-0.549,-0.244,0.122,-0.077,-0.016,179.105
 15:03:26.591,eb:33:2e:f9:57:b5, 2085-97-250 255:249:255:2047,-0.005,-0.002,1.001,-0.549,-0.549,0,-0.088,-0.022,179.105
 15:03:26.591,eb:33:2e:f9:57:b5, 2085-97-246 255:246:255:2054,0,-0.005,1.001,-0.427,-0.854,0,-0.093,-0.027,179.099
 15:03:26.616,eb:33:2e:f9:57:b5, 2085-97-07 00:254:255:2054,0.007,-0.002,1.001,-0.427,-1.099,-0.183,-0.099,-0.038,179.099
 15:03:26.616,eb:33:2e:f9:57:b5, 2085-97-238 255:248:255:2069,0,0,1.007,-0.305,-0.305,0.061,-0.104,-0.044,179.099
 15:03:26.616,eb:33:2e:f9:57:b5, 2085-97-11 00:00:00:2064,0.009,0.002,1.011,-0.488,-0.549,0.305,-0.104,-0.044,179.099
 15:03:26.616,eb:33:2e:f9:57:b5, 2085-97-20 00:06:00:2058,0.006,0.002,1.005,-0.793,0.549,0.671,-0.11,-0.049,179.099
 15:03:26.618,eb:33:2e:f9:57:b5, 2085-97-10 00:02:00:2063,-0.015,0.002,1.008,-1.099,1.831,1.038,-0.115,-0.038,179.105
 15:03:26.618,eb:33:2e:f9:57:b5, 2085-97-225 255:241:255:2064,-0.015,-0.008,1.008,-0.61,0.61,1.038,-0.176,0.082,179.165
 15:03:26.618,eb:33:2e:f9:57:b5, 2085-97-226 255:243:255:2067,-0.013,-0.006,1.009,-0.427,-0.732,0.732,-0.181,0.082,179.176
 15:03:26.618,eb:33:2e:f9:57:b5, 2085-97-235 255:244:255:2062,-0.007,-0.006,1.008,-0.366,-1.77,0.549,-0.187,0.066,179.182
 15:03:26.676,eb:33:2e:f9:57:b5, 2085-97-250 255:247:255:2052,-0.002,-0.005,1.006,-0.244,-2.441,0.366,-0.192,0.044,179.182
 15:03:26.676,eb:33:2e:f9:57:b5, 2085-97-250 255:247:255:2051,-0.001,-0.004,1.001,-0.244,-2.441,0.305,-0.198,0.022,179.187
 15:03:26.676,eb:33:2e:f9:57:b5, 2085-97-254 255:244:255:2048,0,-0.005,1.001,-0.244,-2.502,0.122,-0.198,-0.005,179.187
 15:03:26.676,eb:33:2e:f9:57:b5, 2085-97-01 00:251:255:2051,0,-0.004,1,-0.183,-2.441,0,-0.203,-0.033,179.187
 15:03:26.707,eb:33:2e:f9:57:b5, 2085-97-00 00:246:255:2050,0,-0.003,1.002,-0.183,-2.319,-0.061,-0.203,-0.055,179.187
 15:03:26.707,eb:33:2e:f9:57:b5, 2085-97-02 00:246:255:2044,0.002,-0.006,1,-0.122,-2.258,-0.061,-0.209,-0.077,179.182
 15:03:26.707,eb:33:2e:f9:57:b5, 2085-97-07 00:248:255:2042,0.006,-0.004,0.998,-0.061,-2.075,-0.183,-0.209,-0.099,179.182
 15:03:26.707,eb:33:2e:f9:57:b5, 2085-97-15 00:248:255:2042,0.005,-0.002,0.996,-0.061,-1.648,-0.244,-0.214,-0.115,179.176
 15:03:26.736,eb:33:2e:f9:57:b5, 2085-97-10 00:248:255:2049,0.003,-0.004,1,-0.061,-0.977,-0.183,-0.214,-0.126,179.176
 15:03:26.736,eb:33:2e:f9:57:b5, 2085-97-08 00:246:255:2050,0.004,-0.004,1.001,0,-0.488,-0.122,-0.214,-0.132,179.171
 15:03:26.736,eb:33:2e:f9:57:b5, 2085-97-05 00:247:255:2050,0.002,-0.004,1.001,0,0,0,-0.214,-0.137,179.171
 15:03:26.736,eb:33:2e:f9:57:b5, 2085-97-03 00:247:255:2053,0.001,-0.005,1.002,0.061,0.244,0.122,-0.214,-0.132,179.171
 15:03:26.827,eb:33:2e:f9:57:b5, 2085-97-02 00:248:255:2052,0.001,-0.004,1.002,0.061,0.366,0.244,-0.214,-0.132,179.171
 15:03:26.827,eb:33:2e:f9:57:b5, 2085-97-02 00:250:255:2053,-0.001,-0.004,1.001,0.061,0.366,0.244,-0.214,-0.126,179.176
 15:03:26.827,eb:33:2e:f9:57:b5, 2085-97-03 00:249:255:2055,0.002,-0.003,1.005,-0.061,0.366,0.305,-0.214,-0.121,179.176
 15:03:26.827,eb:33:2e:f9:57:b5, 2085-97-00 00:248:255:2056,-0.001,-0.004,1.003,-0.061,0.549,0.366,-0.22,-0.115,179.182
 15:03:26.857,eb:33:2e:f9:57:b5, 2085-97-255 255:249:255:2058,0,-0.003,1.005,-0.061,0.488,0.549,-0.22,-0.115,179.187
 15:03:26.857,eb:33:2e:f9:57:b5, 2085-97-255 255:248:255:2057,0,-0.004,1.004,-0.061,0.488,0.488,-0.22,-0.11,179.187
 15:03:26.857,eb:33:2e:f9:57:b5, 2085-97-255 255:247:255:2059,0,-0.005,1.005,-0.122,0.488,0.549,-0.225,-0.104,179.193
 15:03:26.857,eb:33:2e:f9:57:b5, 2085-97-255 255:248:255:2057,0,-0.004,1.005,-0.122,0.488,0.549,-0.225,-0.099,179.198
 15:03:26.859,eb:33:2e:f9:57:b5, 2085-97-255 255:247:255:2057,-0.001,-0.004,1.004,-0.122,0.549,0.488,-0.231,-0.099,179.203
 15:03:26.859,eb:33:2e:f9:57:b5, 2085-97-252 255:246:255:2059,-0.003,-0.004,1.004,-0.122,0.61,0.549,-0.231,-0.093,179.209
 15:03:26.859,eb:33:2e:f9:57:b5, 2085-97-250 255:245:255:2058,-0.002,-0.005,1.005,-0.122,0.488,0.427,-0.231,-0.088,179.214
 15:03:26.859,eb:33:2e:f9:57:b5, 2085-97-253 255:247:255:2054,-0.002,-0.005,1.004,-0.061,0.366,0.305,-0.236,-0.082,179.214
 15:03:26.978,eb:33:2e:f9:57:b5, 2085-97-249 255:246:255:2058,-0.003,-0.004,1.003,-0.061,0.183,0.244,-0.236,-0.077,179.22
 15:03:26.978,eb:33:2e:f9:57:b5, 2085-113-58 00:120:00:-4500,-0.002,-0.005,1.005,-0.061,0,0.305,-0.236,-0.077,179.22
 15:03:26.978,eb:33:2e:f9:57:b5, 2085-97-253 255:246:255:2058,-0.001,-0.004,1.005,-0.061,0,0.305,-0.242,-0.077,179.22
 15:03:26.978,eb:33:2e:f9:57:b5, 2085-97-253 255:248:255:2059,-0.001,-0.004,1.005,0,-0.122,0.305,-0.242,-0.077,179.225
 15:03:26.978,eb:33:2e:f9:57:b5, 2085-97-00 00:246:255:2054,0,-0.005,1.004,0,-0.244,0.244,-0.242,-0.082,179.225
 15:03:26.978,eb:33:2e:f9:57:b5, 2085-97-02 00:246:255:2052,0.001,-0.005,1.003,-0.061,-0.061,0.244,-0.242,-0.082,179.225
 15:03:26.978,eb:33:2e:f9:57:b5, 2085-97-02 00:245:255:2050,0,-0.005,1.001,-0.061,0,0.183,-0.247,-0.082,179.231
 15:03:26.979,eb:33:2e:f9:57:b5, 2085-97-00 00:245:255:2052,-0.001,-0.006,1.002,0,0.061,0.122,-0.247,-0.082,179.231
 15:03:26.981,eb:33:2e:f9:57:b5, 2085-97-00 00:245:255:2052,-0.001,-0.005,1.001,0.061,0,0.122,-0.247,-0.082,179.231
 15:03:26.981,eb:33:2e:f9:57:b5, 2085-97-252 255:245:255:2054,-0.001,-0.005,1.002,0.122,-0.061,0.061,-0.247,-0.082,179.231
 15:03:26.981,eb:33:2e:f9:57:b5, 2085-97-252 255:246:255:2056,-0.001,-0.005,1.003,0.183,-0.183,0.061,-0.242,-0.082,179.231
 15:03:26.981,eb:33:2e:f9:57:b5, 2085-97-00 00:247:255:2053,0,-0.004,1.002,0.244,-0.183,0.122,-0.242,-0.088,179.231
 15:03:27.068,eb:33:2e:f9:57:b5, 2085-97-00 00:247:255:2057,0,-0.004,1.003,0.305,-0.061,0,-0.242,-0.088,179.231
 15:03:27.068,eb:33:2e:f9:57:b5, 2085-97-252 255:246:255:2056,0,-0.005,1.004,0.366,0.061,0.061,-0.236,-0.088,179.231
 15:03:27.068,eb:33:2e:f9:57:b5, 2085-97-02 00:247:255:2054,0.001,-0.004,1.004,0.366,0,0.061,-0.236,-0.088,179.231
 15:03:27.068,eb:33:2e:f9:57:b5, 2085-97-253 255:245:255:2057,-0.002,-0.005,1.003,0.427,0.122,0.061,-0.231,-0.088,179.231
 15:03:27.096,eb:33:2e:f9:57:b5, 2085-97-254 255:245:255:2058,-0.003,-0.005,1.004,0.488,0,0.061,-0.225,-0.088,179.231
 15:03:27.096,eb:33:2e:f9:57:b5, 2085-97-253 255:246:255:2058,-0.002,-0.006,1.005,0.61,-0.183,0.061,-0.22,-0.088,179.231
 15:03:27.096,eb:33:2e:f9:57:b5, 2085-97-254 255:246:255:2058,-0.002,-0.005,1.005,0.732,-0.244,0.061,-0.214,-0.088,179.231
 15:03:27.096,eb:33:2e:f9:57:b5, 2085-97-254 255:247:255:2058,-0.002,-0.005,1.005,0.854,-0.366,0.122,-0.209,-0.093,179.231
 15:03:27.126,eb:33:2e:f9:57:b5, 2085-97-255 255:247:255:2055,0,-0.005,1.004,0.854,-0.549,0.122,-0.198,-0.099,179.231
 15:03:27.126,eb:33:2e:f9:57:b5, 2085-97-254 255:246:255:2054,0,-0.004,1.004,0.977,-0.488,0.061,-0.192,-0.099,179.231
 15:03:27.126,eb:33:2e:f9:57:b5, 2085-97-255 255:247:255:2053,0,-0.004,1.002,1.099,-0.61,0,-0.181,-0.104,179.231
 15:03:27.126,eb:33:2e:f9:57:b5, 2085-97-255 255:250:255:2054,0,-0.004,1.002,1.099,-0.61,0,-0.17,-0.11,179.231
 15:03:27.156,eb:33:2e:f9:57:b5, 2085-97-00 00:249:255:2053,0,-0.003,1.003,1.099,-0.61,0,-0.159,-0.115,179.231
 15:03:27.156,eb:33:2e:f9:57:b5, 2085-97-03 00:255:255:2052,0.001,-0.002,1.002,1.099,-0.671,0,-0.148,-0.121,179.231
 15:03:27.156,eb:33:2e:f9:57:b5, 2085-97-00 00:253:255:2054,0,-0.001,1.003,0.916,-0.549,0,-0.143,-0.126,179.231
 15:03:27.156,eb:33:2e:f9:57:b5, 2085-97-02 00:250:255:2055,0,-0.002,1.003,0.793,-0.488,0,-0.132,-0.137,179.231
 15:03:27.186,eb:33:2e:f9:57:b5, 2085-97-02 00:254:255:2053,0.002,-0.002,1.003,0.732,-0.488,0,-0.126,-0.143,179.231
 15:03:27.186,eb:33:2e:f9:57:b5, 2085-97-07 00:255:255:2051,0.004,-0.001,1.001,0.61,-0.427,0,-0.121,-0.148,179.231
 15:03:27.186,eb:33:2e:f9:57:b5, 2085-97-05 00:00:00:2054,0.002,0,1.003,0.427,-0.244,0.061,-0.115,-0.148,179.231
 15:03:27.186,eb:33:2e:f9:57:b5, 2085-97-04 00:254:255:2054,0.002,-0.001,1.003,0.244,0,0.061,-0.11,-0.148,179.231
 15:03:27.245,eb:33:2e:f9:57:b5, 2085-97-03 00:253:255:2054,0.001,-0.002,1.002,0.183,0.061,0.061,-0.11,-0.148,179.231
 15:03:27.245,eb:33:2e:f9:57:b5, 2085-97-01 00:250:255:2054,0,-0.001,1.003,0.183,0.183,0.122,-0.11,-0.148,179.231
 15:03:27.245,eb:33:2e:f9:57:b5, 2085-97-00 00:251:255:2056,0,-0.003,1.003,0.244,0.122,0.122,-0.104,-0.148,179.231
 15:03:27.245,eb:33:2e:f9:57:b5, 2085-97-255 255:253:255:2058,0,-0.002,1.004,0.244,0.122,0.122,-0.104,-0.148,179.231
 15:03:27.307,eb:33:2e:f9:57:b5, 2085-97-00 00:253:255:2056,0,-0.001,1.004,0.244,0.061,0.122,-0.104,-0.143,179.231
 15:03:27.307,eb:33:2e:f9:57:b5, 2085-97-00 00:254:255:2058,0,-0.001,1.005,0.244,0.122,0.183,-0.099,-0.143,179.231
 15:03:27.307,eb:33:2e:f9:57:b5, 2085-97-00 00:252:255:2055,0,-0.002,1.004,0.122,0.061,0.183,-0.099,-0.143,179.236
 15:03:27.307,eb:33:2e:f9:57:b5, 2085-97-02 00:252:255:2054,0,-0.002,1.003,0.183,0,0.183,-0.099,-0.143,179.236
 15:03:27.309,eb:33:2e:f9:57:b5, 2085-97-255 255:251:255:2054,0,-0.002,1.003,0.183,0,0.183,-0.099,-0.143,179.236
 15:03:27.309,eb:33:2e:f9:57:b5, 2085-97-00 00:252:255:2055,0,-0.003,1.003,0.122,-0.122,0.122,-0.093,-0.143,179.236
 15:03:27.309,eb:33:2e:f9:57:b5, 2085-97-00 00:252:255:2057,0,-0.002,1.003,0.244,-0.244,0.122,-0.093,-0.143,179.236
 15:03:27.309,eb:33:2e:f9:57:b5, 2085-97-255 255:251:255:2056,0,-0.002,1.004,0.244,-0.305,0.122,-0.093,-0.148,179.242
 15:03:27.368,eb:33:2e:f9:57:b5, 2085-97-255 255:252:255:2059,0,-0.002,1.004,0.305,-0.427,0.061,-0.088,-0.154,179.242
 15:03:27.368,eb:33:2e:f9:57:b5, 2085-97-00 00:254:255:2057,0,-0.002,1.006,0.305,-0.61,0.122,-0.088,-0.159,179.242
 15:03:27.368,eb:33:2e:f9:57:b5, 2085-97-02 00:253:255:2055,0.001,-0.001,1.004,0.183,-0.61,0.122,-0.082,-0.165,179.242
 15:03:27.368,eb:33:2e:f9:57:b5, 2085-97-03 00:253:255:2055,0.001,-0.001,1.003,0.244,-0.61,0.061,-0.082,-0.17,179.242
 15:03:27.368,eb:33:2e:f9:57:b5, 2085-97-02 00:254:255:2055,0.002,-0.001,1.003,0.122,-0.488,0.061,-0.082,-0.176,179.242
 15:03:27.396,eb:33:2e:f9:57:b5, 2085-113-81 00:216:00:024,0.001,-0.001,1.003,0.183,-0.427,0.061,-0.082,-0.181,179.242
 15:03:27.396,eb:33:2e:f9:57:b5, 2085-97-03 00:251:255:2054,0.002,-0.002,1.003,0.183,-0.427,0.061,-0.082,-0.187,179.242
 15:03:27.396,eb:33:2e:f9:57:b5, 2085-97-04 00:252:255:2053,0.001,-0.001,1.002,0.122,-0.427,0.122,-0.077,-0.187,179.242
 15:03:27.396,eb:33:2e:f9:57:b5, 2085-97-04 00:252:255:2055,0.002,-0.002,1.003,0.122,-0.427,0.061,-0.077,-0.192,179.242
 15:03:27.428,eb:33:2e:f9:57:b5, 2085-97-04 00:253:255:2054,0.002,-0.002,1.003,0.122,-0.427,0.061,-0.077,-0.198,179.242
 15:03:27.428,eb:33:2e:f9:57:b5, 2085-97-07 00:00:00:2054,0.003,0,1.003,0.122,-0.305,0.122,-0.077,-0.203,179.242
 15:03:27.428,eb:33:2e:f9:57:b5, 2085-97-04 00:254:255:2055,0.001,-0.001,1.003,0.061,-0.122,0.061,-0.077,-0.203,179.242
 15:03:27.428,eb:33:2e:f9:57:b5, 2085-97-04 00:251:255:2055,0,-0.002,1.003,0.122,0,0.061,-0.077,-0.209,179.242
 15:03:27.517,eb:33:2e:f9:57:b5, 2085-97-02 00:251:255:2054,0.001,-0.002,1.003,0.122,-0.061,0.061,-0.077,-0.209,179.242
 15:03:27.517,eb:33:2e:f9:57:b5, 2085-97-03 00:252:255:2054,0,-0.002,1.003,0.122,-0.122,0,-0.077,-0.209,179.242
 15:03:27.517,eb:33:2e:f9:57:b5, 2085-97-02 00:250:255:2055,0.002,-0.002,1.003,0.183,-0.183,0,-0.071,-0.209,179.242
 15:03:27.517,eb:33:2e:f9:57:b5, 2085-97-01 00:251:255:2057,0,-0.002,1.004,0.244,-0.305,0,-0.071,-0.214,179.242
 15:03:27.517,eb:33:2e:f9:57:b5, 2085-97-01 00:253:255:2056,0.001,-0.002,1.004,0.183,-0.305,0,-0.071,-0.214,179.242
 15:03:27.517,eb:33:2e:f9:57:b5, 2085-97-03 00:252:255:2056,0.001,-0.002,1.004,0.244,-0.427,0,-0.071,-0.22,179.242
 15:03:27.517,eb:33:2e:f9:57:b5, 2085-97-04 00:253:255:2054,0.001,-0.002,1.003,0.244,-0.427,0,-0.066,-0.225,179.242
 15:03:27.517,eb:33:2e:f9:57:b5, 2085-97-04 00:253:255:2056,0.002,-0.001,1.003,0.183,-0.488,0.061,-0.066,-0.231,179.242
 15:03:27.578,eb:33:2e:f9:57:b5, 2085-97-04 00:253:255:2055,0.002,0,1.004,0.183,-0.488,0.061,-0.066,-0.236,179.242
 15:03:27.578,eb:33:2e:f9:57:b5, 2085-97-05 00:254:255:2054,0.002,-0.001,1.003,0.183,-0.366,0,-0.06,-0.242,179.236
 15:03:27.578,eb:33:2e:f9:57:b5, 2085-97-04 00:254:255:2057,0.001,0,1.003,0.122,-0.305,0,-0.06,-0.242,179.236
 15:03:27.578,eb:33:2e:f9:57:b5, 2085-97-04 00:253:255:2056,0.002,-0.001,1.004,0.183,-0.305,0,-0.06,-0.247,179.236
 15:03:27.758,eb:33:2e:f9:57:b5, 2085-97-05 00:253:255:2055,0.001,-0.001,1.004,0.183,-0.305,0,-0.06,-0.247,179.236
 15:03:27.758,eb:33:2e:f9:57:b5, 2085-97-05 00:254:255:2054,0.002,-0.001,1.003,0.183,-0.244,0,-0.066,-0.247,179.236
 15:03:27.758,eb:33:2e:f9:57:b5, 2085-97-04 00:253:255:2054,0.002,-0.001,1.002,0.183,-0.305,0,-0.066,-0.247,179.236
 15:03:27.758,eb:33:2e:f9:57:b5, 2085-97-04 00:253:255:2054,0.002,-0.002,1.003,0.183,-0.244,0,-0.066,-0.247,179.236
 15:03:27.816,eb:33:2e:f9:57:b5, 2085-97-02 00:253:255:2055,0.002,-0.001,1.003,0.244,-0.305,0,-0.066,-0.247,179.236
 15:03:27.816,eb:33:2e:f9:57:b5, 2085-97-04 00:253:255:2055,0.002,-0.001,1.003,0.244,-0.366,0,-0.071,-0.247,179.236
 15:03:27.816,eb:33:2e:f9:57:b5, 2085-97-04 00:253:255:2055,0.002,-0.001,1.003,0.244,-0.305,0,-0.071,-0.247,179.236
 15:03:27.816,eb:33:2e:f9:57:b5, 2085-97-03 00:253:255:2056,0.001,-0.001,1.004,0.244,-0.366,0,-0.071,-0.247,179.236
 15:03:27.816,eb:33:2e:f9:57:b5, 2085-97-05 00:255:255:2057,0.002,-0.001,1.004,0.244,-0.366,0,-0.071,-0.247,179.236
 15:03:27.816,eb:33:2e:f9:57:b5, 2085-97-05 00:254:255:2054,0.003,0,1.003,0.244,-0.366,-0.061,-0.071,-0.247,179.236
 15:03:27.816,eb:33:2e:f9:57:b5, 2085-97-06 00:254:255:2055,0.003,-0.001,1.003,0.244,-0.305,0,-0.071,-0.247,179.236
 15:03:27.816,eb:33:2e:f9:57:b5, 2085-97-05 00:254:255:2055,0.002,0,1.003,0.244,-0.244,0,-0.071,-0.247,179.236
 15:03:27.819,eb:33:2e:f9:57:b5, 2085-97-05 00:255:255:2054,0.003,-0.001,1.003,0.183,-0.244,0,-0.071,-0.247,179.236
 15:03:27.819,eb:33:2e:f9:57:b5, 2085-97-06 00:255:255:2055,0.003,-0.001,1.002,0.244,-0.183,0,-0.071,-0.247,179.236
 15:03:27.819,eb:33:2e:f9:57:b5, 2085-97-06 00:254:255:2055,0.003,0,1.003,0.305,-0.183,-0.061,-0.071,-0.247,179.236
 15:03:27.819,eb:33:2e:f9:57:b5, 2085-97-07 00:255:255:2056,0.003,0,1.003,0.305,-0.061,-0.061,-0.071,-0.247,179.236
 15:03:27.821,eb:33:2e:f9:57:b5, 2085-97-06 00:254:255:2056,0.002,0,1.004,0.305,0,-0.061,-0.071,-0.247,179.236
 15:03:27.821,eb:33:2e:f9:57:b5, 2085-97-06 00:00:00:2056,0.003,-0.001,1.004,0.244,0,-0.061,-0.077,-0.247,179.236
 15:03:27.821,eb:33:2e:f9:57:b5, 2085-97-04 00:254:255:2057,0.001,-0.001,1.004,0.244,0,-0.061,-0.077,-0.247,179.236
 15:03:27.821,eb:33:2e:f9:57:b5, 2085-97-03 00:255:255:2057,0.002,-0.001,1.004,0.305,-0.122,0,-0.077,-0.247,179.236
 15:03:27.824,eb:33:2e:f9:57:b5, 2085-97-05 00:00:00:2057,0.002,0,1.004,0.244,-0.183,0,-0.077,-0.247,179.236
 15:03:27.825,eb:33:2e:f9:57:b5, 2085-97-05 00:254:255:2057,0.003,0,1.004,0.183,-0.183,0,-0.077,-0.247,179.236
 15:03:27.825,eb:33:2e:f9:57:b5, 2085-97-07 00:255:255:2056,0.003,-0.001,1.004,0.244,-0.305,-0.061,-0.077,-0.247,179.236
 15:03:27.825,eb:33:2e:f9:57:b5, 2085-97-07 00:255:255:2056,0.003,0,1.003,0.183,-0.305,-0.061,-0.077,-0.247,179.236
 15:03:27.825,eb:33:2e:f9:57:b5, 2085-97-08 00:255:255:2056,0.004,-0.001,1.004,0.122,-0.183,0,-0.077,-0.247,179.236
 15:03:27.825,eb:33:2e:f9:57:b5, 2085-97-08 00:255:255:2053,0.004,0,1.003,0.122,-0.244,0,-0.077,-0.247,179.236
 15:03:27.825,eb:33:2e:f9:57:b5, 2085-97-06 00:254:255:2054,0.003,0,1.003,0.122,-0.183,-0.061,-0.077,-0.247,179.236
 15:03:27.825,eb:33:2e:f9:57:b5, 2085-97-07 00:255:255:2053,0.003,-0.001,1.003,0.183,0,0,-0.077,-0.247,179.236
 15:03:27.936,eb:33:2e:f9:57:b5, 2085-97-08 00:00:00:2054,0.003,-0.001,1.002,0.122,-0.061,-0.061,-0.077,-0.247,179.236
 15:03:27.936,eb:33:2e:f9:57:b5, 2085-97-06 00:255:255:2053,0.003,0,1.003,0.183,0,0,-0.077,-0.247,179.236
 15:03:27.936,eb:33:2e:f9:57:b5, 2085-97-05 00:254:255:2056,0.002,-0.001,1.003,0.183,0,-0.061,-0.077,-0.247,179.236
 15:03:27.936,eb:33:2e:f9:57:b5, 2085-97-04 00:254:255:2054,0.002,0,1.003,0.244,-0.244,-0.061,-0.077,-0.247,179.236
 15:03:27.938,eb:33:2e:f9:57:b5, 2085-97-06 00:00:00:2054,0.003,0,1.002,0.183,-0.244,0,-0.077,-0.247,179.236
 15:03:27.938,eb:33:2e:f9:57:b5, 2085-97-06 00:00:00:2057,0.003,0,1.004,0.183,-0.183,-0.061,-0.077,-0.247,179.236
 15:03:27.938,eb:33:2e:f9:57:b5, 2085-97-11 00:254:255:2052,0.004,0,1.003,0.183,-0.183,-0.061,-0.077,-0.247,179.236
 15:03:27.938,eb:33:2e:f9:57:b5, 2085-97-09 00:00:00:2054,0.004,0,1.003,0.244,-0.061,0,-0.077,-0.247,179.236
 15:03:27.966,eb:33:2e:f9:57:b5, 2085-97-07 00:00:00:2054,0.004,0,1.003,0.183,0,-0.061,-0.077,-0.247,179.236
 15:03:27.966,eb:33:2e:f9:57:b5, 2085-97-06 00:00:00:2056,0.003,0,1.003,0.183,0,-0.061,-0.077,-0.247,179.236
 15:03:27.966,eb:33:2e:f9:57:b5, 2085-97-06 00:255:255:2057,0.002,0,1.004,0.244,0.061,0,-0.077,-0.247,179.236
 15:03:27.966,eb:33:2e:f9:57:b5, 2085-97-07 00:255:255:2056,0.004,0,1.004,0.305,0,-0.061,-0.077,-0.247,179.236
 15:03:28.086,eb:33:2e:f9:57:b5, 2085-97-06 00:00:00:2056,0.002,0,1.004,0.244,-0.061,0,-0.077,-0.247,179.236
 15:03:28.086,eb:33:2e:f9:57:b5, 2085-97-07 00:00:00:2055,0.004,0,1.003,0.305,0,-0.061,-0.077,-0.247,179.236
 15:03:28.086,eb:33:2e:f9:57:b5, 2085-97-07 00:00:00:2055,0.004,0,1.003,0.305,-0.061,-0.061,-0.077,-0.247,179.236
 15:03:28.086,eb:33:2e:f9:57:b5, 2085-97-06 00:00:00:2054,0.003,0,1.003,0.305,0,-0.061,-0.077,-0.253,179.236
 15:03:28.116,eb:33:2e:f9:57:b5, 2085-97-07 00:00:00:2055,0.003,0,1.003,0.305,0,-0.061,-0.077,-0.253,179.236
 15:03:28.116,eb:33:2e:f9:57:b5, 2085-97-07 00:00:00:2056,0.004,0,1.004,0.305,0,-0.061,-0.077,-0.253,179.236
 15:03:28.116,eb:33:2e:f9:57:b5, 2085-97-08 00:255:255:2054,0.004,0,1.003,0.366,0.061,-0.061,-0.077,-0.253,179.236
 15:03:28.116,eb:33:2e:f9:57:b5, 2085-97-07 00:00:00:2055,0.002,0,1.002,0.305,0.061,0,-0.077,-0.253,179.236
 15:03:28.119,eb:33:2e:f9:57:b5, 2085-97-06 00:00:00:2055,0.002,0,1.004,0.244,0,-0.061,-0.077,-0.253,179.236
 15:03:28.119,eb:33:2e:f9:57:b5, 2085-97-06 00:00:00:2056,0.003,0,1.004,0.305,0,-0.061,-0.071,-0.253,179.236
 15:03:28.119,eb:33:2e:f9:57:b5, 2085-97-05 00:00:00:2056,0.002,0,1.003,0.305,0,-0.122,-0.071,-0.253,179.236
 15:03:28.119,eb:33:2e:f9:57:b5, 2085-97-04 00:02:00:2055,0.002,0,1.003,0.366,0,-0.061,-0.071,-0.253,179.236
 15:03:28.119,eb:33:2e:f9:57:b5, 2085-97-07 00:00:00:2055,0.003,0,1.004,0.305,-0.122,-0.061,-0.071,-0.253,179.236
 15:03:28.119,eb:33:2e:f9:57:b5, 2085-97-06 00:00:00:2055,0.002,0,1.004,0.366,-0.122,-0.061,-0.071,-0.253,179.236
 15:03:28.119,eb:33:2e:f9:57:b5, 2085-97-07 00:02:00:2055,0.004,0,1.003,0.305,-0.183,-0.122,-0.071,-0.253,179.236
 15:03:28.120,eb:33:2e:f9:57:b5, 2085-97-08 00:00:00:2054,0.004,0,1.003,0.305,-0.122,-0.122,-0.071,-0.253,179.236
 15:03:28.147,eb:33:2e:f9:57:b5, 2085-97-08 00:01:00:2055,0.005,0,1.003,0.366,-0.122,-0.122,-0.071,-0.253,179.236
 15:03:28.147,eb:33:2e:f9:57:b5, 2085-97-08 00:00:00:2055,0.004,0,1.003,0.305,0,-0.122,-0.071,-0.253,179.236
 15:03:28.147,eb:33:2e:f9:57:b5, 2085-97-09 00:02:00:2055,0.004,0,1.003,0.244,0,-0.122,-0.071,-0.253,179.236
 15:03:28.147,eb:33:2e:f9:57:b5, 2085-97-08 00:02:00:2055,0.004,0.001,1.004,0.305,0.061,-0.061,-0.071,-0.253,179.236
 15:03:28.207,eb:33:2e:f9:57:b5, 2085-97-08 00:01:00:2055,0.004,0.001,1.002,0.244,0.122,-0.061,-0.071,-0.253,179.236
 15:03:28.207,eb:33:2e:f9:57:b5, 2085-113-81 00:217:00:044,0.003,0.001,1.003,0.244,0.183,-0.061,-0.071,-0.253,179.236
 15:03:28.207,eb:33:2e:f9:57:b5, 2085-97-07 00:02:00:2055,0.004,0.001,1.003,0.183,0.244,-0.061,-0.071,-0.253,179.236
 15:03:28.207,eb:33:2e:f9:57:b5, 2085-97-06 00:02:00:2056,0.003,0,1.003,0.183,0.305,0,-0.071,-0.253,179.236
 15:03:28.266,eb:33:2e:f9:57:b5, 2085-97-05 00:02:00:2058,0.004,0.001,1.003,0.244,0.244,0,-0.071,-0.253,179.236
 15:03:28.266,eb:33:2e:f9:57:b5, 2085-97-08 00:01:00:2055,0.002,0.001,1.004,0.183,0.183,0,-0.071,-0.253,179.236
 15:03:28.266,eb:33:2e:f9:57:b5, 2085-97-06 00:00:00:2057,0.003,0.001,1.004,0.183,0.122,0,-0.071,-0.253,179.236
 15:03:28.266,eb:33:2e:f9:57:b5, 2085-97-07 00:01:00:2056,0.003,0.001,1.004,0.183,0.122,0,-0.071,-0.253,179.236
 15:03:28.268,eb:33:2e:f9:57:b5, 2085-97-04 00:01:00:2057,0.003,0.001,1.004,0.183,0.061,-0.061,-0.071,-0.253,179.236
 15:03:28.268,eb:33:2e:f9:57:b5, 2085-97-06 00:03:00:2056,0.002,0.001,1.004,0.183,0.061,0,-0.066,-0.253,179.236
 15:03:28.268,eb:33:2e:f9:57:b5, 2085-97-06 00:01:00:2055,0.004,0,1.004,0.122,0.061,0,-0.066,-0.253,179.236
 15:03:28.268,eb:33:2e:f9:57:b5, 2085-97-06 00:02:00:2056,0.002,0.001,1.003,0.183,0.061,0,-0.066,-0.253,179.236
 15:03:28.326,eb:33:2e:f9:57:b5, 2085-97-06 00:00:00:2055,0.003,0,1.004,0.122,0.061,0,-0.066,-0.253,179.236
 15:03:28.326,eb:33:2e:f9:57:b5, 2085-97-07 00:03:00:2057,0.003,0.001,1.004,0.183,0.061,0,-0.066,-0.253,179.236
 15:03:28.326,eb:33:2e:f9:57:b5, 2085-97-05 00:02:00:2056,0.003,0.001,1.003,0.061,0.061,0,-0.066,-0.253,179.236
 15:03:28.326,eb:33:2e:f9:57:b5, 2085-97-05 00:01:00:2055,0.003,0.001,1.004,0.122,0.061,0,-0.066,-0.253,179.236
 15:03:28.358,eb:33:2e:f9:57:b5, 2085-97-09 00:02:00:2052,0.002,0.002,1.003,0.122,0.122,0,-0.066,-0.253,179.236
 15:03:28.358,eb:33:2e:f9:57:b5, 2085-97-11 00:03:00:2055,0.005,0.001,1.003,0.061,0.244,0,-0.066,-0.253,179.236
 15:03:28.358,eb:33:2e:f9:57:b5, 2085-97-11 00:04:00:2054,0.005,0.001,1.003,0.061,0.488,0.061,-0.066,-0.253,179.236
 15:03:28.359,eb:33:2e:f9:57:b5, 2085-97-08 00:03:00:2054,0.003,0.002,1.002,0,0.732,0,-0.066,-0.253,179.236
 15:03:28.388,eb:33:2e:f9:57:b5, 2085-97-06 00:00:00:2054,0.002,0,1.003,0,0.916,0,-0.066,-0.253,179.236
 15:03:28.388,eb:33:2e:f9:57:b5, 2085-97-05 00:02:00:2053,0.004,0,1.003,0.061,0.916,0.183,-0.066,-0.253,179.236
 15:03:28.388,eb:33:2e:f9:57:b5, 2085-97-12 00:03:00:2049,0.005,0.001,1.001,0,1.038,0.122,-0.066,-0.253,179.236
 15:03:28.388,eb:33:2e:f9:57:b5, 2085-97-12 00:03:00:2047,0.003,0.002,1,-0.061,1.282,0.061,-0.066,-0.258,179.236
 15:03:28.507,eb:33:2e:f9:57:b5, 2085-97-08 00:01:00:2052,0.002,0.001,1.001,-0.061,1.465,0,-0.066,-0.258,179.236
 15:03:28.507,eb:33:2e:f9:57:b5, 2085-97-02 00:00:00:2055,0,0,1.003,-0.122,1.648,0.061,-0.06,-0.258,179.236
 15:03:28.507,eb:33:2e:f9:57:b5, 2085-97-00 00:00:00:2059,0,0,1.004,-0.122,1.526,0,-0.06,-0.258,179.236
 15:03:28.507,eb:33:2e:f9:57:b5, 2085-97-00 00:00:00:2056,0,0,1.004,0,1.343,0.061,-0.06,-0.258,179.236
 15:03:28.507,eb:33:2e:f9:57:b5, 2085-97-04 00:00:00:2054,0.001,0,1.004,0,1.16,0.061,-0.06,-0.258,179.236
 15:03:28.507,eb:33:2e:f9:57:b5, 2085-97-04 00:02:00:2052,0.001,0,1.003,0,1.282,0,-0.06,-0.258,179.236
 15:03:28.507,eb:33:2e:f9:57:b5, 2085-97-02 00:00:00:2053,0,0,1.002,0,1.404,0,-0.06,-0.258,179.236
 15:03:28.507,eb:33:2e:f9:57:b5, 2085-97-255 255:01:00:2057,0,0,1.004,0,1.404,0.061,-0.06,-0.253,179.236
 15:03:28.566,eb:33:2e:f9:57:b5, 2085-97-00 00:01:00:2057,0,0.001,1.004,0,1.465,0.122,-0.06,-0.253,179.236
 15:03:28.566,eb:33:2e:f9:57:b5, 2085-97-253 255:00:00:2058,-0.002,0.001,1.005,0,1.282,0.122,-0.06,-0.253,179.236
 15:03:28.566,eb:33:2e:f9:57:b5, 2085-97-253 255:01:00:2057,-0.001,0.001,1.005,0.061,1.099,0.061,-0.06,-0.253,179.236
 15:03:28.566,eb:33:2e:f9:57:b5, 2085-97-250 255:00:00:2061,-0.001,0,1.006,0,0.916,0.061,-0.06,-0.253,179.236
 15:03:28.568,eb:33:2e:f9:57:b5, 2085-97-253 255:01:00:2060,-0.002,0,1.006,0,0.732,0.061,-0.06,-0.253,179.236
 15:03:28.568,eb:33:2e:f9:57:b5, 2085-97-251 255:00:00:2060,-0.003,0,1.005,0.061,0.549,0.122,-0.06,-0.253,179.236
 15:03:28.568,eb:33:2e:f9:57:b5, 2085-97-248 255:01:00:2060,-0.003,0,1.006,0.122,0.244,0.122,-0.06,-0.253,179.236
 15:03:28.568,eb:33:2e:f9:57:b5, 2085-97-249 255:255:255:2057,-0.002,0,1.005,0.122,-0.122,0,-0.06,-0.253,179.236
 15:03:28.596,eb:33:2e:f9:57:b5, 2085-97-253 255:00:00:2058,-0.003,0,1.004,0.122,-0.427,-0.061,-0.06,-0.253,179.236
 15:03:28.596,eb:33:2e:f9:57:b5, 2085-97-248 255:00:00:2059,-0.002,0,1.005,0.183,-0.61,0,-0.06,-0.247,179.236
 15:03:28.596,eb:33:2e:f9:57:b5, 2085-97-251 255:01:00:2058,-0.001,0,1.005,0.183,-0.854,0,-0.06,-0.247,179.236
 15:03:28.596,eb:33:2e:f9:57:b5, 2085-97-253 255:01:00:2057,-0.002,0,1.005,0.183,-1.038,0,-0.06,-0.247,179.236
 15:03:28.627,eb:33:2e:f9:57:b5, 2085-97-254 255:00:00:2054,0,0.001,1.004,0.122,-1.16,-0.122,-0.06,-0.247,179.236
 15:03:28.627,eb:33:2e:f9:57:b5, 2085-97-00 00:01:00:2056,0,0,1.003,0.122,-1.16,-0.061,-0.055,-0.247,179.236
 15:03:28.627,eb:33:2e:f9:57:b5, 2085-97-00 00:00:00:2058,0,0,1.004,0.122,-1.221,-0.122,-0.055,-0.247,179.236
 15:03:28.627,eb:33:2e:f9:57:b5, 2085-97-01 00:01:00:2057,0,0,1.004,0.122,-1.221,-0.061,-0.055,-0.247,179.236
 15:03:28.686,eb:33:2e:f9:57:b5, 2085-97-01 00:02:00:2057,0,0.002,1.004,0.183,-1.282,-0.061,-0.055,-0.247,179.236
 15:03:28.686,eb:33:2e:f9:57:b5, 2085-97-254 255:02:00:2056,0,0.001,1.004,0.122,-1.404,-0.061,-0.055,-0.247,179.236
 15:03:28.686,eb:33:2e:f9:57:b5, 2085-97-255 255:02:00:2059,0,0.001,1.005,0.061,-1.526,0,-0.055,-0.247,179.236
 15:03:28.686,eb:33:2e:f9:57:b5, 2085-97-03 00:03:00:2056,0.001,0.001,1.004,0.122,-1.587,0,-0.055,-0.247,179.236
 15:03:28.746,eb:33:2e:f9:57:b5, 2085-97-03 00:02:00:2056,0.001,0,1.004,0.122,-1.587,-0.061,-0.055,-0.247,179.236
 15:03:28.746,eb:33:2e:f9:57:b5, 2085-97-03 00:02:00:2055,0.002,0.001,1.003,0.183,-1.648,0,-0.055,-0.247,179.236
 15:03:28.746,eb:33:2e:f9:57:b5, 2085-97-05 00:04:00:2056,0.002,0.001,1.004,0.061,-1.709,0,-0.055,-0.247,179.236
 15:03:28.746,eb:33:2e:f9:57:b5, 2085-97-06 00:03:00:2055,0.002,0.001,1.004,0.122,-1.648,0,-0.055,-0.247,179.236
 15:03:28.777,eb:33:2e:f9:57:b5, 2085-97-06 00:04:00:2055,0.003,0.001,1.004,0.061,-1.648,0,-0.055,-0.247,179.236
 15:03:28.777,eb:33:2e:f9:57:b5, 2085-97-06 00:02:00:2055,0.003,0.001,1.003,0,-1.648,0,-0.055,-0.247,179.236
 15:03:28.777,eb:33:2e:f9:57:b5, 2085-97-07 00:00:00:2053,0.003,0.001,1.003,0,-1.587,0,-0.055,-0.247,179.236
 15:03:28.777,eb:33:2e:f9:57:b5, 2085-97-08 00:02:00:2054,0.004,0.001,1.003,0,-1.648,0,-0.055,-0.247,179.236
 15:03:28.807,eb:33:2e:f9:57:b5, 2085-97-06 00:01:00:2054,0.005,0.001,1.003,0,-1.526,-0.061,-0.055,-0.247,179.236
 15:03:28.807,eb:33:2e:f9:57:b5, 2085-97-11 00:04:00:2054,0.004,0.001,1.002,0.061,-1.465,0,-0.055,-0.247,179.236
 15:03:28.807,eb:33:2e:f9:57:b5, 2085-97-10 00:04:00:2054,0.005,0.001,1.003,0.061,-1.404,0,-0.055,-0.247,179.236
 15:03:28.807,eb:33:2e:f9:57:b5, 2085-97-12 00:03:00:2053,0.006,0.001,1.003,0.061,-1.343,0,-0.055,-0.247,179.236
 15:03:28.807,eb:33:2e:f9:57:b5, 2085-113-58 00:75:00:-4575,0.007,0.001,1.001,0.061,-1.221,0,-0.055,-0.247,179.236
 15:03:28.838,eb:33:2e:f9:57:b5, 2085-97-16 00:05:00:2053,0.007,0.001,1.002,0,-1.099,0.061,-0.055,-0.247,179.236
 15:03:28.838,eb:33:2e:f9:57:b5, 2085-97-13 00:03:00:2054,0.007,0.002,1.002,0,-0.854,0,-0.055,-0.247,179.236
 15:03:28.838,eb:33:2e:f9:57:b5, 2085-97-15 00:04:00:2054,0.006,0.001,1.003,0.061,-0.61,0.061,-0.055,-0.247,179.236
 15:03:28.838,eb:33:2e:f9:57:b5, 2085-97-11 00:01:00:2053,0.006,0.001,1.002,0,-0.488,0.061,-0.055,-0.247,179.236
 15:03:28.896,eb:33:2e:f9:57:b5, 2085-97-13 00:03:00:2054,0.007,0,1.003,0.061,-0.305,0.061,-0.055,-0.247,179.236
 15:03:28.896,eb:33:2e:f9:57:b5, 2085-97-14 00:03:00:2051,0.006,0.002,1.002,0,-0.244,0.122,-0.055,-0.247,179.236
 15:03:28.896,eb:33:2e:f9:57:b5, 2085-97-12 00:03:00:2052,0.005,0.001,1.002,0.061,-0.183,0.061,-0.055,-0.247,179.236
 15:03:28.896,eb:33:2e:f9:57:b5, 2085-97-11 00:01:00:2055,0.006,0,1.003,0,-0.122,0.061,-0.055,-0.247,179.236
 15:03:28.956,eb:33:2e:f9:57:b5, 2085-97-11 00:02:00:2056,0.005,0.001,1.003,0.061,-0.122,0.061,-0.055,-0.247,179.236
 15:03:28.956,eb:33:2e:f9:57:b5, 2085-97-11 00:02:00:2056,0.006,0.001,1.004,0.061,-0.061,0,-0.055,-0.247,179.236
 15:03:28.956,eb:33:2e:f9:57:b5, 2085-97-13 00:03:00:2054,0.006,0,1.004,0.061,-0.122,0.061,-0.055,-0.247,179.236
 15:03:28.957,eb:33:2e:f9:57:b5, 2085-97-14 00:00:00:2053,0.006,0.001,1.003,0,-0.061,0,-0.055,-0.247,179.236
 15:03:28.957,eb:33:2e:f9:57:b5, 2085-97-12 00:00:00:2056,0.005,0,1.002,0.061,0,0,-0.055,-0.247,179.236
 15:03:28.957,eb:33:2e:f9:57:b5, 2085-97-14 00:00:00:2052,0.006,0,1.003,0.122,0,0.061,-0.055,-0.247,179.236
 15:03:28.957,eb:33:2e:f9:57:b5, 2085-97-09 00:02:00:2055,0.004,0,1.003,0.183,0.061,0,-0.055,-0.247,179.236
 15:03:28.957,eb:33:2e:f9:57:b5, 2085-97-09 00:01:00:2058,0.005,0,1.004,0.183,0,0,-0.055,-0.247,179.236
 15:03:29.016,eb:33:2e:f9:57:b5, 2085-97-10 00:03:00:2057,0.004,0.001,1.004,0.183,0,0,-0.055,-0.247,179.236
 15:03:29.016,eb:33:2e:f9:57:b5, 2085-97-10 00:02:00:2058,0.006,0.001,1.005,0.122,-0.122,0,-0.055,-0.247,179.236
 15:03:29.016,eb:33:2e:f9:57:b5, 2085-97-11 00:02:00:2059,0.006,0.001,1.004,0.183,-0.122,0,-0.055,-0.247,179.236
 15:03:29.016,eb:33:2e:f9:57:b5, 2085-97-10 00:02:00:2058,0.004,0.001,1.005,0.122,-0.183,0,-0.055,-0.247,179.236
 15:03:29.076,eb:33:2e:f9:57:b5, 2085-97-10 00:02:00:2056,0.005,0,1.004,0.122,-0.244,0,-0.055,-0.247,179.236
 15:03:29.076,eb:33:2e:f9:57:b5, 2085-97-10 00:02:00:2056,0.005,0.001,1.004,0.061,-0.183,0,-0.055,-0.247,179.236
 15:03:29.076,eb:33:2e:f9:57:b5, 2085-97-12 00:02:00:2056,0.006,0.001,1.004,0.061,-0.244,0,-0.055,-0.247,179.236
 15:03:29.076,eb:33:2e:f9:57:b5, 2085-97-13 00:02:00:2055,0.006,0.001,1.003,0.061,-0.183,0,-0.055,-0.247,179.236
 15:03:29.078,eb:33:2e:f9:57:b5, 2085-97-13 00:01:00:2055,0.006,0,1.003,0.122,-0.183,0.061,-0.055,-0.247,179.236
 15:03:29.078,eb:33:2e:f9:57:b5, 2085-97-13 00:02:00:2054,0.006,0.002,1.003,0.061,-0.122,0.061,-0.055,-0.247,179.236
 15:03:29.078,eb:33:2e:f9:57:b5, 2085-97-14 00:02:00:2053,0.006,0.001,1.004,0,-0.061,0.061,-0.055,-0.247,179.236
 15:03:29.078,eb:33:2e:f9:57:b5, 2085-97-13 00:03:00:2055,0.007,0.001,1.003,0,-0.061,0.061,-0.049,-0.247,179.236
 15:03:29.136,eb:33:2e:f9:57:b5, 2085-97-14 00:03:00:2054,0.006,0.001,1.003,0.061,0,0.061,-0.049,-0.247,179.236
 15:03:29.136,eb:33:2e:f9:57:b5, 2085-97-12 00:03:00:2054,0.007,0,1.003,0.061,0,0.122,-0.049,-0.247,179.236
 15:03:29.136,eb:33:2e:f9:57:b5, 2085-97-12 00:02:00:2052,0.006,0,1.003,0,0.122,0.061,-0.049,-0.247,179.236
 15:03:29.136,eb:33:2e:f9:57:b5, 2085-97-12 00:04:00:2058,0.006,0.002,1.003,0.122,0.122,0.122,-0.049,-0.247,179.236
 15:03:29.197,eb:33:2e:f9:57:b5, 2085-97-11 00:03:00:2056,0.005,0.001,1.004,0.122,0.183,0.122,-0.049,-0.247,179.236
 15:03:29.197,eb:33:2e:f9:57:b5, 2085-97-10 00:04:00:2055,0.005,0.001,1.004,0.061,0.122,0.122,-0.049,-0.247,179.236
 15:03:29.197,eb:33:2e:f9:57:b5, 2085-97-11 00:03:00:2055,0.005,0.002,1.003,0,0.061,0.122,-0.049,-0.247,179.236
 15:03:29.197,eb:33:2e:f9:57:b5, 2085-97-09 00:02:00:2055,0.005,0.002,1.003,0.061,0,0.061,-0.049,-0.247,179.236
 15:03:29.199,eb:33:2e:f9:57:b5, 2085-97-09 00:01:00:2056,0.005,0,1.004,0.061,0,0.122,-0.049,-0.247,179.236
 15:03:29.199,eb:33:2e:f9:57:b5, 2085-97-12 00:02:00:2055,0.006,0,1.003,0.122,0,0.061,-0.049,-0.253,179.236
 15:03:29.199,eb:33:2e:f9:57:b5, 2085-97-12 00:03:00:2056,0.006,0.001,1.004,0.122,0,0.122,-0.049,-0.253,179.236
 15:03:29.199,eb:33:2e:f9:57:b5, 2085-97-13 00:03:00:2056,0.006,0.001,1.003,0.122,0,0.122,-0.049,-0.253,179.236
 15:03:29.287,eb:33:2e:f9:57:b5, 2085-97-12 00:03:00:2055,0.006,0.002,1.003,0.122,0.061,0.122,-0.049,-0.253,179.236
 15:03:29.287,eb:33:2e:f9:57:b5, 2085-97-14 00:04:00:2054,0.006,0.001,1.003,0.061,0.122,0.183,-0.049,-0.253,179.236
 15:03:29.287,eb:33:2e:f9:57:b5, 2085-97-12 00:04:00:2053,0.007,0.001,1.003,0,0.244,0.061,-0.049,-0.253,179.236
 15:03:29.287,eb:33:2e:f9:57:b5, 2085-97-13 00:02:00:2053,0.006,0.002,1.003,0,0.305,0.122,-0.049,-0.253,179.236
 15:03:29.289,eb:33:2e:f9:57:b5, 2085-97-11 00:02:00:2056,0.005,0,1.003,0,0.427,0.183,-0.049,-0.253,179.236
 15:03:29.289,eb:33:2e:f9:57:b5, 2085-97-12 00:01:00:2057,0.005,0.001,1.004,0,0.427,0.061,-0.049,-0.253,179.236
 15:03:29.289,eb:33:2e:f9:57:b5, 2085-97-10 00:02:00:2058,0.005,0.001,1.004,0,0.305,0.061,-0.049,-0.253,179.236
 15:03:29.289,eb:33:2e:f9:57:b5, 2085-97-10 00:03:00:2055,0.004,0.002,1.004,0,0.366,0.122,-0.044,-0.253,179.236
 15:03:29.376,eb:33:2e:f9:57:b5, 2085-97-10 00:03:00:2054,0.005,0.001,1.003,0.061,0.305,0.183,-0.044,-0.253,179.236
 15:03:29.376,eb:33:2e:f9:57:b5, 2085-97-08 00:02:00:2056,0.005,0.001,1.004,0.061,0.183,0.183,-0.044,-0.253,179.236
 15:03:29.377,eb:33:2e:f9:57:b5, 2085-97-09 00:01:00:2056,0.005,0.001,1.004,0.122,0.122,0.183,-0.044,-0.253,179.236
 15:03:29.377,eb:33:2e:f9:57:b5, 2085-97-10 00:02:00:2056,0.004,0.001,1.004,0.061,0.122,0.183,-0.044,-0.253,179.236
 15:03:29.379,eb:33:2e:f9:57:b5, 2085-97-09 00:02:00:2059,0.003,0,1.005,0.061,0,0.183,-0.044,-0.253,179.236
 15:03:29.379,eb:33:2e:f9:57:b5, 2085-97-08 00:02:00:2057,0.004,0.001,1.006,0.061,-0.122,0.244,-0.044,-0.258,179.236
 15:03:29.379,eb:33:2e:f9:57:b5, 2085-97-09 00:05:00:2057,0.004,0.002,1.005,0,-0.183,0.244,-0.044,-0.258,179.236
 15:03:29.379,eb:33:2e:f9:57:b5, 2085-97-09 00:02:00:2055,0.005,0.002,1.004,0,-0.305,0.305,-0.044,-0.258,179.236
 15:03:29.407,eb:33:2e:f9:57:b5, 2085-97-12 00:03:00:2055,0.006,0.001,1.002,0,-0.244,0.305,-0.044,-0.258,179.236
 15:03:29.407,eb:33:2e:f9:57:b5, 2085-97-12 00:04:00:2056,0.005,0.002,1.003,-0.061,-0.183,0.305,-0.044,-0.258,179.236
 15:03:29.407,eb:33:2e:f9:57:b5, 2085-97-11 00:03:00:2055,0.005,0.002,1.004,0,-0.061,0.366,-0.044,-0.258,179.236
 15:03:29.407,eb:33:2e:f9:57:b5, 2085-97-10 00:01:00:2056,0.005,0.001,1.003,0,-0.183,0.305,-0.044,-0.258,179.236
 15:03:29.498,eb:33:2e:f9:57:b5, 2085-97-09 00:02:00:2056,0.005,0.001,1.004,0,-0.244,0.366,-0.044,-0.258,179.236
 15:03:29.498,eb:33:2e:f9:57:b5, 2085-97-09 00:04:00:2055,0.004,0.002,1.003,0,-0.244,0.366,-0.044,-0.258,179.236
 15:03:29.498,eb:33:2e:f9:57:b5, 2085-97-10 00:02:00:2056,0.006,0.001,1.004,0,-0.366,0.366,-0.044,-0.258,179.236
 15:03:29.498,eb:33:2e:f9:57:b5, 2085-97-13 00:02:00:2056,0.007,0,1.004,-0.061,-0.305,0.366,-0.044,-0.258,179.236
 15:03:29.498,eb:33:2e:f9:57:b5, 2085-97-15 00:03:00:2056,0.006,0.001,1.003,-0.061,-0.244,0.366,-0.044,-0.258,179.236
 15:03:29.498,eb:33:2e:f9:57:b5, 2085-113-81 00:217:00:046,0.005,0.001,1.004,0,-0.183,0.366,-0.038,-0.258,179.236
 15:03:29.498,eb:33:2e:f9:57:b5, 2085-97-10 00:01:00:2056,0.005,0.001,1.004,0,-0.244,0.427,-0.038,-0.258,179.236
 15:03:29.498,eb:33:2e:f9:57:b5, 2085-97-10 00:01:00:2056,0.005,0,1.004,-0.061,-0.305,0.427,-0.038,-0.258,179.236
 15:03:29.557,eb:33:2e:f9:57:b5, 2085-97-10 00:02:00:2055,0.005,0.001,1.004,-0.061,-0.366,0.488,-0.038,-0.258,179.236
 15:03:29.557,eb:33:2e:f9:57:b5, 2085-97-11 00:02:00:2055,0.006,0.001,1.003,-0.061,-0.366,0.366,-0.038,-0.264,179.236
 15:03:29.557,eb:33:2e:f9:57:b5, 2085-97-13 00:02:00:2054,0.006,0,1.003,-0.061,-0.366,0.427,-0.038,-0.264,179.236
 15:03:29.557,eb:33:2e:f9:57:b5, 2085-97-11 00:00:00:2055,0.006,0.001,1.004,-0.061,-0.244,0.366,-0.038,-0.264,179.236
 15:03:29.557,eb:33:2e:f9:57:b5, 2085-97-14 00:02:00:2055,0.006,0.001,1.003,-0.061,-0.183,0.366,-0.038,-0.264,179.236
 15:03:29.557,eb:33:2e:f9:57:b5, 2085-97-12 00:01:00:2057,0.006,0.001,1.004,-0.061,-0.183,0.305,-0.038,-0.264,179.236
 15:03:29.557,eb:33:2e:f9:57:b5, 2085-97-10 00:02:00:2056,0.005,0.001,1.004,-0.061,-0.183,0.366,-0.038,-0.264,179.236
 15:03:29.557,eb:33:2e:f9:57:b5, 2085-97-11 00:02:00:2055,0.006,0.001,1.004,-0.122,-0.305,0.366,-0.038,-0.264,179.236
 15:03:29.617,eb:33:2e:f9:57:b5, 2085-97-13 00:01:00:2057,0.006,0,1.004,-0.183,-0.244,0.366,-0.038,-0.264,179.236
 15:03:29.617,eb:33:2e:f9:57:b5, 2085-97-12 00:01:00:2057,0.006,0.001,1.004,-0.122,-0.244,0.488,-0.038,-0.264,179.236
 15:03:29.617,eb:33:2e:f9:57:b5, 2085-97-14 00:02:00:2056,0.006,0,1.003,-0.122,-0.305,0.488,-0.038,-0.264,179.236
 15:03:29.617,eb:33:2e:f9:57:b5, 2085-97-13 00:00:00:2054,0.006,0,1.003,-0.183,-0.244,0.427,-0.038,-0.264,179.236
 15:03:29.646,eb:33:2e:f9:57:b5, 2085-97-13 00:00:00:2055,0.006,0,1.003,-0.122,-0.061,0.366,-0.038,-0.264,179.236
 15:03:29.646,eb:33:2e:f9:57:b5, 2085-97-14 00:00:00:2054,0.006,0,1.003,-0.122,-0.061,0.366,-0.038,-0.264,179.236
 15:03:29.646,eb:33:2e:f9:57:b5, 2085-97-12 00:00:00:2057,0.005,0,1.004,-0.122,-0.122,0.366,-0.038,-0.264,179.236
 15:03:29.646,eb:33:2e:f9:57:b5, 2085-97-12 00:00:00:2057,0.006,0,1.005,-0.061,-0.122,0.366,-0.033,-0.269,179.236
 15:03:29.678,eb:33:2e:f9:57:b5, 2085-97-12 00:00:00:2055,0.007,0,1.004,-0.122,-0.305,0.366,-0.033,-0.269,179.236
 15:03:29.678,eb:33:2e:f9:57:b5, 2085-97-15 00:00:00:2055,0.007,0,1.003,-0.122,-0.244,0.366,-0.027,-0.28,179.231
 15:03:29.678,eb:33:2e:f9:57:b5, 2085-97-13 00:00:00:2055,0.006,0,1.003,-0.122,-0.122,0.244,-0.027,-0.28,179.236
 15:03:29.678,eb:33:2e:f9:57:b5, 2085-97-12 00:00:00:2054,0.006,0,1.003,-0.122,-0.183,0.305,-0.027,-0.28,179.236
 15:03:29.738,eb:33:2e:f9:57:b5, 2085-97-13 00:00:00:2055,0.006,0,1.003,-0.061,-0.183,0.244,-0.027,-0.286,179.236
 15:03:29.739,eb:33:2e:f9:57:b5, 2085-97-14 00:00:00:2055,0.007,0,1.004,-0.061,-0.244,0.183,-0.027,-0.286,179.236
 15:03:29.739,eb:33:2e:f9:57:b5, 2085-97-13 00:00:00:2053,0.006,0,1.003,0,-0.183,0.183,-0.027,-0.286,179.242
 15:03:29.739,eb:33:2e:f9:57:b5, 2085-97-15 00:00:00:2055,0.007,0,1.003,0,-0.305,0.183,-0.027,-0.286,179.242
 15:03:29.766,eb:33:2e:f9:57:b5, 2085-97-15 00:01:00:2055,0.007,0,1.003,0,-0.244,0.183,-0.027,-0.286,179.242
 15:03:29.766,eb:33:2e:f9:57:b5, 2085-97-16 00:01:00:2053,0.008,0,1.003,0,-0.122,0.244,-0.027,-0.286,179.242
 15:03:29.766,eb:33:2e:f9:57:b5, 2085-97-17 00:00:00:2051,0.008,0.001,1.003,0,0,0.183,-0.027,-0.286,179.242
 15:03:29.766,eb:33:2e:f9:57:b5, 2085-97-14 00:00:00:2053,0.007,0,1.002,0,0.122,0.122,-0.027,-0.291,179.242
 15:03:29.827,eb:33:2e:f9:57:b5, 2085-97-14 00:01:00:2055,0.007,0,1.003,0,0.122,0.122,-0.027,-0.291,179.247
 15:03:29.827,eb:33:2e:f9:57:b5, 2085-97-15 00:00:00:2053,0.007,0,1.003,0,0.122,0.061,-0.027,-0.291,179.247
 15:03:29.827,eb:33:2e:f9:57:b5, 2085-97-12 00:00:00:2055,0.006,0,1.003,0,0.122,0.061,-0.027,-0.291,179.247
 15:03:29.827,eb:33:2e:f9:57:b5, 2085-97-13 00:254:255:2055,0.006,0,1.003,0,0,0.061,-0.022,-0.291,179.247
 15:03:29.857,eb:33:2e:f9:57:b5, 2085-97-14 00:00:00:2055,0.007,0,1.003,0.122,0.122,0.061,-0.022,-0.291,179.247
 15:03:29.857,eb:33:2e:f9:57:b5, 2085-97-14 00:00:00:2054,0.007,0,1.003,0.122,0,0.061,-0.022,-0.291,179.247
 15:03:29.857,eb:33:2e:f9:57:b5, 2085-97-14 00:00:00:2054,0.007,0,1.003,0.122,0.122,0,-0.022,-0.297,179.253
 15:03:29.857,eb:33:2e:f9:57:b5, 2085-97-12 00:00:00:2055,0.006,0,1.003,0.183,0.122,0,-0.022,-0.297,179.253
 15:03:29.917,eb:33:2e:f9:57:b5, 2085-97-12 00:00:00:2056,0.006,0,1.004,0.122,0.183,0,-0.022,-0.297,179.253
 15:03:29.917,eb:33:2e:f9:57:b5, 2085-97-13 00:01:00:2055,0.006,0,1.003,0.183,0.122,0,-0.022,-0.297,179.253
 15:03:29.917,eb:33:2e:f9:57:b5, 2085-97-13 00:00:00:2056,0.007,0,1.004,0.183,0.122,0,-0.022,-0.297,179.253
 15:03:29.917,eb:33:2e:f9:57:b5, 2085-97-14 00:00:00:2054,0.006,0,1.003,0.183,0.122,0,-0.022,-0.297,179.253
 15:03:29.919,eb:33:2e:f9:57:b5, 2085-97-13 00:00:00:2055,0.007,0,1.003,0.183,0.183,-0.061,-0.022,-0.297,179.258
 15:03:29.919,eb:33:2e:f9:57:b5, 2085-97-14 00:00:00:2055,0.007,0,1.003,0.183,0.183,0,-0.022,-0.297,179.258
 15:03:29.919,eb:33:2e:f9:57:b5, 2085-97-14 00:01:00:2056,0.007,0,1.004,0.244,0.244,0,-0.022,-0.302,179.258
 15:03:29.919,eb:33:2e:f9:57:b5, 2085-97-14 00:00:00:2054,0.007,0,1.003,0.183,0.305,-0.061,-0.022,-0.302,179.258
 15:03:29.976,eb:33:2e:f9:57:b5, 2085-97-13 00:00:00:2054,0.006,0,1.002,0.183,0.305,-0.122,-0.022,-0.302,179.258
 15:03:29.976,eb:33:2e:f9:57:b5, 2085-97-11 00:00:00:2054,0.006,0,1.003,0.244,0.366,-0.061,-0.022,-0.302,179.258
 15:03:29.976,eb:33:2e:f9:57:b5, 2085-97-12 00:00:00:2056,0.005,0,1.003,0.183,0.366,-0.122,-0.022,-0.302,179.264
 15:03:29.976,eb:33:2e:f9:57:b5, 2085-97-13 00:00:00:2055,0.006,0,1.003,0.244,0.305,-0.122,-0.022,-0.302,179.264
 15:03:30.006,eb:33:2e:f9:57:b5, 2085-97-11 00:01:00:2056,0.006,0,1.004,0.183,0.366,-0.183,-0.022,-0.302,179.264
 15:03:30.006,eb:33:2e:f9:57:b5, 2085-97-11 00:00:00:2058,0.006,0,1.004,0.183,0.183,-0.183,-0.022,-0.302,179.264
 15:03:30.006,eb:33:2e:f9:57:b5, 2085-97-12 00:01:00:2054,0.006,0,1.004,0.183,0.244,-0.183,-0.022,-0.308,179.264
 15:03:30.006,eb:33:2e:f9:57:b5, 2085-97-13 00:00:00:2054,0.006,0,1.003,0.244,0.183,-0.183,-0.022,-0.308,179.264
 15:03:30.067,eb:33:2e:f9:57:b5, 2085-97-13 00:01:00:2053,0.006,0,1.003,0.244,0.244,-0.122,-0.022,-0.308,179.269
 15:03:30.067,eb:33:2e:f9:57:b5, 2085-97-12 00:02:00:2055,0.005,0.001,1.003,0.183,0.305,-0.122,-0.022,-0.308,179.269
 15:03:30.067,eb:33:2e:f9:57:b5, 2085-97-09 00:01:00:2057,0.005,0,1.004,0.183,0.183,-0.061,-0.022,-0.308,179.269
 15:03:30.067,eb:33:2e:f9:57:b5, 2085-97-12 00:01:00:2056,0.007,0,1.004,0.122,0.061,-0.061,-0.022,-0.308,179.269
 15:03:30.098,eb:33:2e:f9:57:b5, 2085-97-14 00:02:00:2054,0.006,0.001,1.004,0.122,0.061,0,-0.022,-0.308,179.269
 15:03:30.098,eb:33:2e:f9:57:b5, 2085-97-10 00:00:00:2055,0.005,0,1.003,0.122,0.183,0,-0.022,-0.308,179.269
 15:03:30.098,eb:33:2e:f9:57:b5, 2085-97-10 00:02:00:2055,0.006,0,1.003,0.061,0.183,-0.061,-0.022,-0.308,179.269
 15:03:30.098,eb:33:2e:f9:57:b5, 2085-97-13 00:01:00:2057,0.005,0.001,1.004,0.122,0.183,0,-0.022,-0.313,179.269
 15:03:30.188,eb:33:2e:f9:57:b5, 2085-97-10 00:03:00:2056,0.005,0,1.004,0.122,0.122,0,-0.022,-0.313,179.275
 15:03:30.188,eb:33:2e:f9:57:b5, 2085-97-10 00:01:00:2056,0.004,0,1.003,0.061,0.122,0,-0.022,-0.313,179.275
 15:03:30.188,eb:33:2e:f9:57:b5, 2085-97-10 00:01:00:2055,0.005,0,1.003,0.122,0.122,0,-0.022,-0.313,179.275
 15:03:30.188,eb:33:2e:f9:57:b5, 2085-97-11 00:00:00:2055,0.005,0,1.004,0.122,0.061,0,-0.022,-0.313,179.275
 15:03:30.188,eb:33:2e:f9:57:b5, 2085-97-11 00:02:00:2056,0.006,0,1.003,0.122,0.061,0,-0.022,-0.313,179.275
 15:03:30.188,eb:33:2e:f9:57:b5, 2085-97-12 00:02:00:2056,0.006,0.001,1.004,0.061,0.061,0,-0.022,-0.313,179.275
 15:03:30.188,eb:33:2e:f9:57:b5, 2085-97-11 00:02:00:2056,0.006,0,1.003,0.122,0.122,0,-0.022,-0.313,179.28
 15:03:30.188,eb:33:2e:f9:57:b5, 2085-97-11 00:03:00:2056,0.005,0.001,1.003,0.061,0.122,0,-0.022,-0.313,179.28
 15:03:30.216,eb:33:2e:f9:57:b5, 2085-97-12 00:02:00:2055,0.005,0.001,1.003,0.061,0.183,0,-0.022,-0.313,179.28
 15:03:30.216,eb:33:2e:f9:57:b5, 2085-97-11 00:00:00:2054,0.005,0,1.003,0.122,0.122,0,-0.022,-0.313,179.28
 15:03:30.216,eb:33:2e:f9:57:b5, 2085-97-11 00:01:00:2055,0.005,0,1.003,0.061,0.122,0,-0.022,-0.313,179.28
 15:03:30.216,eb:33:2e:f9:57:b5, 2085-97-10 00:01:00:2055,0.005,0.001,1.004,0.061,0.061,0,-0.022,-0.319,179.28
 15:03:30.246,eb:33:2e:f9:57:b5, 2085-97-10 00:01:00:2055,0.005,0,1.003,0.122,0,-0.061,-0.022,-0.319,179.286
 15:03:30.246,eb:33:2e:f9:57:b5, 2085-97-09 00:01:00:2053,0.005,0,1.003,0.122,0,0,-0.022,-0.319,179.286
 15:03:30.246,eb:33:2e:f9:57:b5, 2085-97-11 00:01:00:2055,0.004,0,1.002,0.122,-0.061,-0.122,-0.022,-0.319,179.286
 15:03:30.246,eb:33:2e:f9:57:b5, 2085-97-10 00:02:00:2056,0.005,0.001,1.003,0.183,0,-0.061,-0.022,-0.319,179.286
 15:03:30.336,eb:33:2e:f9:57:b5, 2085-97-11 00:02:00:2055,0.004,0.001,1.003,0.122,0,0,-0.022,-0.319,179.286
 15:03:30.336,eb:33:2e:f9:57:b5, 2085-97-11 00:02:00:2054,0.005,0.001,1.003,0.122,0,0,-0.016,-0.319,179.286
 15:03:30.336,eb:33:2e:f9:57:b5, 2085-97-10 00:01:00:2056,0.006,0.001,1.003,0.122,-0.061,0,-0.016,-0.319,179.291
 15:03:30.336,eb:33:2e:f9:57:b5, 2085-97-13 00:02:00:2058,0.007,0.001,1.004,0.122,-0.061,-0.061,-0.016,-0.319,179.291
 15:03:30.338,eb:33:2e:f9:57:b5, 2085-97-11 00:02:00:2053,0.005,0,1.004,0.183,-0.061,-0.061,-0.016,-0.319,179.291
 15:03:30.338,eb:33:2e:f9:57:b5, 2085-97-11 00:00:00:2054,0.006,0.001,1.003,0.122,0,-0.061,-0.016,-0.319,179.291
 15:03:30.338,eb:33:2e:f9:57:b5, 2085-97-11 00:00:00:2056,0.004,0,1.003,0.122,0,-0.061,-0.016,-0.319,179.291
 15:03:30.338,eb:33:2e:f9:57:b5, 2085-97-10 00:01:00:2055,0.006,0,1.004,0.183,-0.061,0,-0.016,-0.319,179.291
 15:03:30.367,eb:33:2e:f9:57:b5, 2085-97-12 00:00:00:2057,0.005,0.001,1.003,0.183,-0.122,-0.061,-0.016,-0.324,179.297
 15:03:30.367,eb:33:2e:f9:57:b5, 2085-97-11 00:01:00:2055,0.005,0,1.004,0.122,-0.122,0,-0.016,-0.324,179.297
 15:03:30.367,eb:33:2e:f9:57:b5, 2085-97-11 00:01:00:2055,0.004,0,1.004,0.183,-0.061,0,-0.016,-0.324,179.297
 15:03:30.367,eb:33:2e:f9:57:b5, 2085-97-12 00:04:00:2056,0.006,0,1.004,0.122,-0.061,0,-0.016,-0.324,179.297
 15:03:30.456,eb:33:2e:f9:57:b5, 2085-97-12 00:04:00:2053,0.006,0.001,1.003,0.122,-0.122,0,-0.016,-0.324,179.297
 15:03:30.456,eb:33:2e:f9:57:b5, 2085-97-11 00:03:00:2055,0.005,0.001,1.003,0.122,-0.122,0,-0.016,-0.324,179.297
 15:03:30.456,eb:33:2e:f9:57:b5, 2085-113-58 00:121:255:-4575,0.005,0.001,1.004,0.183,-0.183,-0.061,-0.016,-0.324,179.297
 15:03:30.456,eb:33:2e:f9:57:b5, 2085-97-12 00:01:00:2055,0.006,0.001,1.004,0.183,-0.183,0,-0.016,-0.324,179.297
 15:03:30.456,eb:33:2e:f9:57:b5, 2085-97-12 00:02:00:2054,0.006,0,1.003,0.122,-0.061,-0.061,-0.016,-0.324,179.297
 15:03:30.458,eb:33:2e:f9:57:b5, 2085-97-12 00:01:00:2054,0.006,0.001,1.003,0.183,-0.122,0,-0.016,-0.324,179.302
 15:03:30.458,eb:33:2e:f9:57:b5, 2085-97-13 00:02:00:2053,0.007,0,1.003,0.183,0,-0.061,-0.016,-0.324,179.302
 15:03:30.458,eb:33:2e:f9:57:b5, 2085-97-14 00:01:00:2054,0.005,0,1.002,0.244,0,0,-0.016,-0.324,179.302
 15:03:30.458,eb:33:2e:f9:57:b5, 2085-97-12 00:03:00:2055,0.005,0.001,1.005,0.183,0.061,0,-0.016,-0.324,179.302
 15:03:30.487,eb:33:2e:f9:57:b5, 2085-97-10 00:00:00:2057,0.005,0,1.003,0.244,0.122,0,-0.016,-0.324,179.302
 15:03:30.487,eb:33:2e:f9:57:b5, 2085-97-10 00:04:00:2059,0.005,0,1.004,0.244,0.122,-0.061,-0.016,-0.33,179.302
 15:03:30.487,eb:33:2e:f9:57:b5, 2085-97-10 00:02:00:2058,0.005,0.001,1.004,0.244,0,0,-0.016,-0.33,179.308
 15:03:30.487,eb:33:2e:f9:57:b5, 2085-97-11 00:02:00:2055,0.005,0.001,1.004,0.183,0,0,-0.016,-0.33,179.308
 15:03:30.607,eb:33:2e:f9:57:b5, 2085-97-09 00:03:00:2058,0.004,0.001,1.003,0.183,0,-0.061,-0.016,-0.33,179.308
 15:03:30.607,eb:33:2e:f9:57:b5, 2085-97-11 00:03:00:2056,0.006,0.001,1.005,0.244,-0.122,0,-0.016,-0.33,179.308
 15:03:30.607,eb:33:2e:f9:57:b5, 2085-97-12 00:03:00:2057,0.005,0.001,1.004,0.244,-0.061,0,-0.016,-0.33,179.308
 15:03:30.607,eb:33:2e:f9:57:b5, 2085-97-12 00:03:00:2054,0.007,0.002,1.004,0.183,0,0,-0.016,-0.33,179.308
 15:03:30.609,eb:33:2e:f9:57:b5, 2085-97-19 00:00:00:2048,0.006,0.001,1.001,0.244,0,0,-0.016,-0.33,179.308
 15:03:30.609,eb:33:2e:f9:57:b5, 2085-97-10 00:04:00:2055,0.006,0,1.002,0.366,0.244,0,-0.011,-0.33,179.308
 15:03:30.609,eb:33:2e:f9:57:b5, 2085-97-14 00:03:00:2055,0.006,0.002,1.004,0.366,0.244,0,-0.011,-0.33,179.313
 15:03:30.609,eb:33:2e:f9:57:b5, 2085-97-09 00:06:00:2059,0.003,0.002,1.004,0.366,0.366,0,-0.011,-0.33,179.313
 15:03:30.609,eb:33:2e:f9:57:b5, 2085-97-08 00:04:00:2060,0.004,0.002,1.006,0.244,0.244,0,-0.011,-0.33,179.313
 15:03:30.609,eb:33:2e:f9:57:b5, 2085-97-10 00:05:00:2058,0.004,0.002,1.005,0.244,0.183,0,-0.011,-0.335,179.313
 15:03:30.609,eb:33:2e:f9:57:b5, 2085-97-09 00:04:00:2058,0.004,0.001,1.005,0.244,0.183,0,-0.011,-0.335,179.313
 15:03:30.609,eb:33:2e:f9:57:b5, 2085-97-07 00:06:00:2056,0.003,0.002,1.004,0.183,0,0.061,-0.011,-0.335,179.313
 15:03:30.668,eb:33:2e:f9:57:b5, 2085-97-09 00:04:00:2056,0.005,0.002,1.004,0.183,0,0,-0.011,-0.335,179.319
 15:03:30.668,eb:33:2e:f9:57:b5, 2085-97-09 00:04:00:2057,0.005,0.002,1.004,0.122,-0.061,0,-0.011,-0.335,179.319
 15:03:30.668,eb:33:2e:f9:57:b5, 2085-97-11 00:02:00:2053,0.005,0.001,1.003,0.183,-0.122,0,-0.011,-0.335,179.319
 15:03:30.668,eb:33:2e:f9:57:b5, 2085-97-10 00:04:00:2055,0.005,0.001,1.004,0.183,-0.061,0,-0.011,-0.335,179.319
 15:03:30.696,eb:33:2e:f9:57:b5, 2085-97-12 00:04:00:2054,0.006,0.001,1.003,0.183,-0.061,0,-0.011,-0.335,179.319
 15:03:30.696,eb:33:2e:f9:57:b5, 2085-97-12 00:02:00:2054,0.006,0.002,1.003,0.244,-0.122,0,-0.011,-0.335,179.319
 15:03:30.696,eb:33:2e:f9:57:b5, 2085-97-13 00:04:00:2052,0.006,0.002,1.002,0.183,0,0,-0.011,-0.335,179.319
 15:03:30.696,eb:33:2e:f9:57:b5, 2085-97-10 00:04:00:2055,0.005,0.001,1.003,0.183,0.122,0,-0.011,-0.335,179.319
 15:03:30.787,eb:33:2e:f9:57:b5, 2085-97-12 00:02:00:2051,0.007,0.001,1.002,0.183,0.183,0,-0.011,-0.335,179.324
 15:03:30.787,eb:33:2e:f9:57:b5, 2085-97-11 00:03:00:2054,0.004,0,1.002,0.244,0.305,0,-0.011,-0.335,179.324
 15:03:30.787,eb:33:2e:f9:57:b5, 2085-97-09 00:05:00:2057,0.005,0.003,1.004,0.244,0.244,0,-0.011,-0.335,179.324
 15:03:30.787,eb:33:2e:f9:57:b5, 2085-97-11 00:07:00:2057,0.004,0.003,1.004,0.183,0.244,0,-0.011,-0.335,179.324
 15:03:30.791,eb:33:2e:f9:57:b5, 2085-97-09 00:06:00:2057,0.004,0.002,1.004,0.183,0.183,0,-0.011,-0.335,179.324
 15:03:30.791,eb:33:2e:f9:57:b5, 2085-97-10 00:04:00:2057,0.005,0.003,1.005,0.122,0.122,0.061,-0.011,-0.341,179.324
 15:03:30.793,eb:33:2e:f9:57:b5, 2085-97-12 00:05:00:2057,0.006,0.002,1.004,0.061,0.061,0,-0.011,-0.341,179.33
 15:03:30.793,eb:33:2e:f9:57:b5, 2085-97-10 00:04:00:2056,0.005,0.001,1.004,0.061,0,0,-0.011,-0.341,179.324
 15:03:30.847,eb:33:2e:f9:57:b5, 2085-97-10 00:05:00:2056,0.005,0.003,1.004,0.122,0.061,0.122,-0.011,-0.341,179.33
 15:03:30.847,eb:33:2e:f9:57:b5, 2085-97-11 00:03:00:2055,0.005,0.002,1.004,0,0.061,0.061,-0.011,-0.341,179.33
 15:03:30.847,eb:33:2e:f9:57:b5, 2085-97-10 00:05:00:2055,0.006,0.001,1.003,0,0.061,0.061,-0.011,-0.341,179.33
 15:03:30.847,eb:33:2e:f9:57:b5, 2085-97-10 00:04:00:2054,0.004,0.002,1.003,0,0.061,0.122,-0.011,-0.341,179.33
 15:03:30.849,eb:33:2e:f9:57:b5, 2085-97-12 00:04:00:2055,0.004,0.002,1.004,0,0.122,0.122,-0.011,-0.341,179.33
 15:03:30.849,eb:33:2e:f9:57:b5, 2085-97-09 00:05:00:2055,0.005,0.002,1.003,0.061,0.122,0.122,-0.011,-0.341,179.33
 15:03:30.849,eb:33:2e:f9:57:b5, 2085-97-11 00:03:00:2054,0.005,0.002,1.004,0.061,0.122,0.122,-0.011,-0.341,179.335
 15:03:30.849,eb:33:2e:f9:57:b5, 2085-97-11 00:03:00:2053,0.005,0.002,1.003,0,0.183,0.061,-0.011,-0.341,179.335
 15:03:30.969,eb:33:2e:f9:57:b5, 2085-97-10 00:05:00:2055,0.005,0.002,1.003,0,0.244,0.061,-0.011,-0.341,179.335
 15:03:30.969,eb:33:2e:f9:57:b5, 2085-97-09 00:03:00:2056,0.004,0.001,1.004,0,0.183,0.061,-0.005,-0.341,179.335
 15:03:30.969,eb:33:2e:f9:57:b5, 2085-97-10 00:06:00:2057,0.004,0.002,1.003,0.061,0.183,0.122,-0.005,-0.341,179.335
 15:03:30.969,eb:33:2e:f9:57:b5, 2085-97-12 00:04:00:2055,0.006,0.002,1.004,0.061,0.244,0.061,-0.005,-0.341,179.335
 15:03:30.972,eb:33:2e:f9:57:b5, 2085-113-81 00:188:00:070,0.005,0.001,1.004,0.061,0.305,0.061,-0.005,-0.341,179.335
 15:03:30.972,eb:33:2e:f9:57:b5, 2085-97-10 00:04:00:2056,0.004,0.002,1.003,0.061,0.244,0.061,-0.005,-0.341,179.335
 15:03:30.972,eb:33:2e:f9:57:b5, 2085-97-08 00:05:00:2056,0.003,0.002,1.004,0.061,0.244,0.122,-0.005,-0.346,179.341
 15:03:30.972,eb:33:2e:f9:57:b5, 2085-97-08 00:03:00:2056,0.004,0.002,1.003,0.061,0.244,0.122,-0.005,-0.346,179.341
 15:03:30.997,eb:33:2e:f9:57:b5, 2085-97-07 00:02:00:2057,0.003,0.002,1.004,0.061,0.183,0,-0.005,-0.346,179.341
 15:03:30.997,eb:33:2e:f9:57:b5, 2085-97-07 00:04:00:2058,0.003,0.001,1.004,0,0.061,0.061,-0.005,-0.346,179.341
 15:03:30.997,eb:33:2e:f9:57:b5, 2085-97-07 00:04:00:2058,0.004,0.002,1.005,0,0,0.122,-0.005,-0.346,179.341
 15:03:30.997,eb:33:2e:f9:57:b5, 2085-97-07 00:04:00:2057,0.004,0.001,1.004,0,0,0.061,-0.005,-0.346,179.341
 15:03:31.056,eb:33:2e:f9:57:b5, 2085-97-11 00:04:00:2055,0.005,0.002,1.004,0,0,0.122,-0.005,-0.346,179.341
 15:03:31.056,eb:33:2e:f9:57:b5, 2085-97-07 00:04:00:2056,0.004,0.002,1.004,0,0,0.122,-0.005,-0.346,179.341
 15:03:31.056,eb:33:2e:f9:57:b5, 2085-97-07 00:05:00:2056,0.003,0.002,1.003,0,0.061,0.061,-0.005,-0.346,179.346
 15:03:31.056,eb:33:2e:f9:57:b5, 2085-97-09 00:04:00:2056,0.005,0.002,1.004,0,0.122,0.122,-0.005,-0.346,179.346
 15:03:31.058,eb:33:2e:f9:57:b5, 2085-97-08 00:05:00:2055,0.005,0.003,1.004,0.061,0.061,0.122,-0.005,-0.346,179.346
 15:03:31.058,eb:33:2e:f9:57:b5, 2085-97-10 00:04:00:2055,0.004,0.002,1.004,0,0.122,0.122,-0.005,-0.346,179.346
 15:03:31.058,eb:33:2e:f9:57:b5, 2085-97-07 00:04:00:2056,0.004,0.002,1.004,0,0.061,0.122,-0.005,-0.346,179.346
 15:03:31.058,eb:33:2e:f9:57:b5, 2085-97-08 00:04:00:2056,0.003,0.002,1.003,0.061,0.061,0.061,0,-0.346,179.346
 15:03:31.087,eb:33:2e:f9:57:b5, 2085-97-08 00:04:00:2056,0.004,0.002,1.004,0.061,0.061,0.122,0,-0.346,179.352
 15:03:31.087,eb:33:2e:f9:57:b5, 2085-97-09 00:05:00:2056,0.003,0.002,1.003,0,0,0.061,0,-0.346,179.352
 15:03:31.087,eb:33:2e:f9:57:b5, 2085-97-08 00:03:00:2055,0.003,0.002,1.004,0,0,0.061,0,-0.346,179.352
 15:03:31.087,eb:33:2e:f9:57:b5, 2085-97-09 00:04:00:2057,0.004,0.002,1.003,0.061,0,0.061,0,-0.346,179.352
 15:03:31.178,eb:33:2e:f9:57:b5, 2085-97-08 00:04:00:2056,0.004,0.002,1.004,0,-0.061,0.122,0,-0.346,179.352
 15:03:31.178,eb:33:2e:f9:57:b5, 2085-97-09 00:05:00:2056,0.005,0.002,1.003,0,-0.122,0.122,0,-0.346,179.352
 15:03:31.178,eb:33:2e:f9:57:b5, 2085-97-14 00:03:00:2051,0.005,0.001,1.002,0,-0.061,0.122,0,-0.346,179.352
 15:03:31.178,eb:33:2e:f9:57:b5, 2085-97-06 00:03:00:2056,0.004,0.001,1.002,0.122,0.061,0.061,0,-0.346,179.352
 15:03:31.209,eb:33:2e:f9:57:b5, 2085-97-05 00:03:00:2058,0.008,0.001,1.004,0.061,0,0.061,0,-0.346,179.357
 15:03:31.209,eb:33:2e:f9:57:b5, 2085-97-16 00:04:00:2050,0.005,0.002,1,0.122,0.122,0.122,0,-0.346,179.357
 15:03:31.209,eb:33:2e:f9:57:b5, 2085-97-07 00:06:00:2057,0.003,0.002,1.004,0.122,0.305,0.122,0,-0.346,179.357
 15:03:31.209,eb:33:2e:f9:57:b5, 2085-97-05 00:05:00:2057,0.004,0.001,1.005,0.061,0.183,0.061,0,-0.346,179.357
 15:03:31.237,eb:33:2e:f9:57:b5, 2085-97-07 00:05:00:2057,0.003,0.002,1.004,0.061,0.122,0.122,0,-0.346,179.357
 15:03:31.237,eb:33:2e:f9:57:b5, 2085-97-07 00:05:00:2057,0.003,0.002,1.004,0.061,0.122,0.122,0,-0.346,179.357
 15:03:31.237,eb:33:2e:f9:57:b5, 2085-97-07 00:04:00:2057,0.003,0.002,1.005,0.061,0,0.061,0,-0.346,179.357
 15:03:31.237,eb:33:2e:f9:57:b5, 2085-97-08 00:05:00:2056,0.004,0.001,1.004,0,-0.061,0.061,0.005,-0.346,179.357
 15:03:31.268,eb:33:2e:f9:57:b5, 2085-97-09 00:04:00:2055,0.004,0.002,1.003,0,-0.183,0.061,0.005,-0.346,179.363
 15:03:31.268,eb:33:2e:f9:57:b5, 2085-97-08 00:05:00:2054,0.004,0.002,1.003,0,-0.183,0.061,0.005,-0.346,179.363
 15:03:31.268,eb:33:2e:f9:57:b5, 2085-97-08 00:06:00:2055,0.004,0.003,1.003,0.061,-0.183,0.061,0.005,-0.346,179.363
 15:03:31.268,eb:33:2e:f9:57:b5, 2085-97-09 00:06:00:2057,0.005,0.002,1.003,0,-0.122,0.061,0.005,-0.346,179.363
 15:03:31.296,eb:33:2e:f9:57:b5, 2085-97-08 00:05:00:2054,0.004,0.003,1.003,0,0,0.061,0.005,-0.346,179.363
 15:03:31.296,eb:33:2e:f9:57:b5, 2085-97-09 00:04:00:2054,0.004,0.003,1.003,0,0,0.122,0.005,-0.346,179.363
 15:03:31.296,eb:33:2e:f9:57:b5, 2085-97-10 00:05:00:2055,0.005,0.002,1.003,0,0,0.061,0.005,-0.346,179.363
 15:03:31.296,eb:33:2e:f9:57:b5, 2085-97-10 00:03:00:2055,0.004,0.002,1.003,0,-0.061,0.122,0.005,-0.352,179.363
 15:03:31.327,eb:33:2e:f9:57:b5, 2085-97-08 00:05:00:2056,0.004,0.002,1.004,0,0,0.122,0.005,-0.352,179.368
 15:03:31.327,eb:33:2e:f9:57:b5, 2085-97-08 00:03:00:2054,0.004,0.001,1.003,0,0,0.122,0.005,-0.352,179.368
 15:03:31.327,eb:33:2e:f9:57:b5, 2085-97-08 00:04:00:2053,0.004,0.002,1.002,0,0,0.061,0.005,-0.352,179.368
 15:03:31.327,eb:33:2e:f9:57:b5, 2085-97-10 00:04:00:2056,0.005,0.001,1.003,0,0,0.061,0.005,-0.352,179.368
 15:03:31.387,eb:33:2e:f9:57:b5, 2085-97-08 00:04:00:2056,0.005,0.002,1.004,0,0,0.122,0.005,-0.352,179.368
 15:03:31.387,eb:33:2e:f9:57:b5, 2085-97-08 00:05:00:2056,0.004,0.002,1.003,0,0,0.122,0.005,-0.352,179.368
 15:03:31.387,eb:33:2e:f9:57:b5, 2085-97-08 00:04:00:2056,0.004,0.001,1.004,0,0.061,0.061,0.005,-0.352,179.368
 15:03:31.387,eb:33:2e:f9:57:b5, 2085-97-08 00:03:00:2057,0.004,0.002,1.003,0,0,0.122,0.011,-0.352,179.368
 15:03:31.447,eb:33:2e:f9:57:b5, 2085-97-08 00:03:00:2056,0.005,0.001,1.004,0,0,0.061,0.011,-0.352,179.374
 15:03:31.447,eb:33:2e:f9:57:b5, 2085-97-09 00:04:00:2056,0.003,0.001,1.003,0,-0.061,0.061,0.011,-0.352,179.374
 15:03:31.447,eb:33:2e:f9:57:b5, 2085-97-09 00:05:00:2057,0.004,0.002,1.004,-0.061,0,0.122,0.011,-0.352,179.374
 15:03:31.447,eb:33:2e:f9:57:b5, 2085-97-08 00:05:00:2056,0.004,0.002,1.005,0,-0.061,0.061,0.011,-0.352,179.374
 15:03:31.449,eb:33:2e:f9:57:b5, 2085-97-09 00:03:00:2054,0.004,0.001,1.003,-0.061,-0.061,0.122,0.011,-0.352,179.374
 15:03:31.449,eb:33:2e:f9:57:b5, 2085-97-08 00:04:00:2054,0.004,0.002,1.003,0,-0.061,0.061,0.011,-0.352,179.374
 15:03:31.449,eb:33:2e:f9:57:b5, 2085-97-08 00:03:00:2054,0.005,0.001,1.003,0,0,0.122,0.011,-0.352,179.374
 15:03:31.449,eb:33:2e:f9:57:b5, 2085-97-09 00:04:00:2056,0.005,0.002,1.003,0,0,0.122,0.011,-0.352,179.374
 15:03:31.626,eb:33:2e:f9:57:b5, 2085-97-11 00:03:00:2055,0.005,0.002,1.003,0,0,0.122,0.011,-0.352,179.379
 15:03:31.626,eb:33:2e:f9:57:b5, 2085-97-10 00:03:00:2054,0.004,0.002,1.003,0,0.183,0.122,0.011,-0.352,179.379
 15:03:31.626,eb:33:2e:f9:57:b5, 2085-97-07 00:05:00:2055,0.003,0.002,1.003,0,0.244,0.122,0.011,-0.352,179.379
 15:03:31.627,eb:33:2e:f9:57:b5, 2085-97-09 00:01:00:2054,0.004,0.001,1.004,0,0.183,0.122,0.011,-0.352,179.379
 15:03:31.629,eb:33:2e:f9:57:b5, 2085-97-09 00:04:00:2057,0.004,0.001,1.003,0.061,0.244,0.122,0.011,-0.352,179.379
 15:03:31.629,eb:33:2e:f9:57:b5, 2085-97-06 00:04:00:2057,0.003,0.002,1.004,0,0.183,0.122,0.011,-0.352,179.379
 15:03:31.629,eb:33:2e:f9:57:b5, 2085-97-09 00:04:00:2055,0.004,0.001,1.003,0,0.183,0.122,0.011,-0.352,179.379
 15:03:31.630,eb:33:2e:f9:57:b5, 2085-97-06 00:04:00:2056,0.003,0.001,1.004,0,0.183,0.122,0.011,-0.352,179.379
 15:03:31.630,eb:33:2e:f9:57:b5, 2085-97-08 00:04:00:2057,0.004,0.001,1.004,0.122,0.122,0.183,0.011,-0.352,179.385
 15:03:31.630,eb:33:2e:f9:57:b5, 2085-97-06 00:03:00:2055,0.003,0.002,1.003,0.061,0,0.122,0.011,-0.352,179.385
 15:03:31.630,eb:33:2e:f9:57:b5, 2085-97-09 00:03:00:2054,0.004,0.002,1.004,0.122,0.061,0.122,0.011,-0.352,179.385
 15:03:31.631,eb:33:2e:f9:57:b5, 2085-97-06 00:02:00:2055,0.003,0.001,1.003,0.122,0.061,0.122,0.011,-0.352,179.385
 15:03:31.633,eb:33:2e:f9:57:b5, 2085-97-09 00:04:00:2054,0.005,0.001,1.003,0.122,0,0.122,0.011,-0.352,179.385
 15:03:31.633,eb:33:2e:f9:57:b5, 2085-97-07 00:03:00:2055,0.004,0.001,1.002,0.122,0.183,0.122,0.016,-0.352,179.385
 15:03:31.633,eb:33:2e:f9:57:b5, 2085-97-09 00:03:00:2055,0.003,0.001,1.002,0.122,0.244,0.061,0.016,-0.352,179.385
 15:03:31.633,eb:33:2e:f9:57:b5, 2085-97-06 00:03:00:2056,0.003,0.001,1.003,0.122,0.244,0.122,0.016,-0.352,179.385
 15:03:31.657,eb:33:2e:f9:57:b5, 2085-97-06 00:04:00:2055,0.003,0.001,1.004,0.122,0.183,0.061,0.016,-0.352,179.39
 15:03:31.657,eb:33:2e:f9:57:b5, 2085-97-07 00:05:00:2056,0.003,0.001,1.003,0.183,0.122,0.061,0.016,-0.352,179.39
 15:03:31.657,eb:33:2e:f9:57:b5, 2085-97-09 00:01:00:2050,0.004,0.001,1.002,0.244,0.122,0.061,0.016,-0.352,179.39
 15:03:31.657,eb:33:2e:f9:57:b5, 2085-97-11 00:02:00:2050,0.004,0,1.001,0.244,0.183,0.061,0.016,-0.352,179.39
 15:03:31.718,eb:33:2e:f9:57:b5, 2085-97-05 00:03:00:2055,0.003,0,1.001,0.427,0.366,0.122,0.016,-0.352,179.39
 15:03:31.718,eb:33:2e:f9:57:b5, 2085-97-13 00:00:00:2048,0.004,0.001,1.002,0.427,0.366,0,0.016,-0.352,179.39
 15:03:31.718,eb:33:2e:f9:57:b5, 2085-113-81 00:172:00:073,0.001,0.002,1.002,0.488,0.549,0,0.016,-0.352,179.39
 15:03:31.718,eb:33:2e:f9:57:b5, 2085-97-06 00:02:00:2049,0.012,0.002,1.004,0.488,0.427,0.061,0.016,-0.352,179.39
 15:03:31.718,eb:33:2e:f9:57:b5, 2085-97-22 00:252:255:2034,0.002,-0.001,0.993,0.671,0.854,0,0.016,-0.352,179.39
 15:03:31.747,eb:33:2e:f9:57:b5, 2085-97-04 00:02:00:2050,0.004,0,1,1.099,1.282,0,0.016,-0.352,179.39
 15:03:31.747,eb:33:2e:f9:57:b5, 2085-97-08 00:09:00:2055,0,0.001,1.001,1.221,1.282,-0.061,0.016,-0.352,179.39
 15:03:31.747,eb:33:2e:f9:57:b5, 2085-97-251 255:09:00:2069,-0.003,0.006,1.008,1.038,1.221,-0.061,0.016,-0.352,179.39
 15:03:31.747,eb:33:2e:f9:57:b5, 2085-97-03 00:11:00:2057,0.006,0.004,1.007,0.793,0.671,-0.183,0.016,-0.352,179.39
 15:03:31.776,eb:33:2e:f9:57:b5, 2085-97-11 00:05:00:2059,0,0.005,1.005,0.488,0.977,0,0.016,-0.352,179.39
 15:03:31.776,eb:33:2e:f9:57:b5, 2085-97-252 255:06:00:2061,0.001,0.001,1.005,0.61,1.099,0,0.016,-0.352,179.39
 15:03:31.776,eb:33:2e:f9:57:b5, 2085-97-05 00:04:00:2056,0.002,0.004,1.005,0.549,0.854,0,0.016,-0.352,179.39
 15:03:31.776,eb:33:2e:f9:57:b5, 2085-97-00 00:08:00:2059,0,0.002,1.004,0.549,1.038,0,0.016,-0.352,179.39
 15:03:31.866,eb:33:2e:f9:57:b5, 2085-97-00 00:07:00:2061,0.001,0.004,1.007,0.427,0.732,0,0.016,-0.352,179.39
 15:03:31.866,eb:33:2e:f9:57:b5, 2085-97-06 00:05:00:2050,0.002,0.003,1.003,0.427,0.671,0,0.016,-0.352,179.39
 15:03:31.867,eb:33:2e:f9:57:b5, 2085-97-14 00:05:00:2044,0.005,0.003,1,0.549,0.854,0,0.016,-0.352,179.39
 15:03:31.867,eb:33:2e:f9:57:b5, 2085-97-06 00:04:00:2050,0,0,0.999,0.732,1.282,0,0.016,-0.352,179.39
 15:03:32.047,eb:33:2e:f9:57:b5, 2085-97-05 00:07:00:2056,0,0.003,1.002,0.854,1.404,0,0.016,-0.352,179.39
 15:03:32.047,eb:33:2e:f9:57:b5, 2085-97-252 255:09:00:2061,-0.002,0.003,1.004,0.854,1.465,0,0.016,-0.352,179.39
 15:03:32.047,eb:33:2e:f9:57:b5, 2085-97-253 255:11:00:2060,-0.002,0.005,1.006,0.854,1.16,-0.061,0.016,-0.352,179.39
 15:03:32.047,eb:33:2e:f9:57:b5, 2085-97-255 255:10:00:2056,0.001,0.005,1.005,0.793,0.977,0,0.016,-0.352,179.39
 15:03:32.049,eb:33:2e:f9:57:b5, 2085-97-02 00:09:00:2054,-0.003,0.003,1.001,0.732,1.038,0,0.016,-0.352,179.39
 15:03:32.049,eb:33:2e:f9:57:b5, 2085-97-252 255:12:00:2060,0,0.006,1.006,0.732,0.977,0,0.016,-0.352,179.39
 15:03:32.049,eb:33:2e:f9:57:b5, 2085-97-01 00:09:00:2052,0,0.005,1.004,0.61,0.854,0,0.016,-0.352,179.39
 15:03:32.049,eb:33:2e:f9:57:b5, 2085-97-00 00:10:00:2054,0,0.004,1.004,0.671,0.916,0.061,0.016,-0.352,179.39
 15:03:32.049,eb:33:2e:f9:57:b5, 2085-97-255 255:08:00:2054,-0.001,0.004,1.003,0.732,0.916,0,0.016,-0.352,179.39
 15:03:32.049,eb:33:2e:f9:57:b5, 2085-97-253 255:10:00:2057,-0.001,0.004,1.003,0.732,0.977,0,0.016,-0.352,179.39
 15:03:32.049,eb:33:2e:f9:57:b5, 2085-97-254 255:09:00:2053,0,0.005,1.004,0.671,0.916,0.061,0.016,-0.352,179.39
 15:03:32.049,eb:33:2e:f9:57:b5, 2085-97-01 00:09:00:2050,0,0.004,1,0.732,0.916,0,0.016,-0.352,179.39
 15:03:32.052,eb:33:2e:f9:57:b5, 2085-97-251 255:08:00:2054,-0.001,0.003,1.001,0.854,1.099,0,0.016,-0.352,179.39
 15:03:32.052,eb:33:2e:f9:57:b5, 2085-97-01 00:08:00:2053,-0.002,0.004,1.003,0.977,1.038,0,0.016,-0.352,179.39
 15:03:32.052,eb:33:2e:f9:57:b5, 2085-97-251 255:09:00:2057,-0.001,0.003,1.004,1.16,1.16,0,0.016,-0.352,179.39
 15:03:32.052,eb:33:2e:f9:57:b5, 2085-97-255 255:09:00:2050,0.001,0.006,1.002,1.16,1.099,0,0.016,-0.352,179.396
 15:03:32.054,eb:33:2e:f9:57:b5, 2085-97-02 00:07:00:2046,-0.001,0.003,1,1.465,1.465,0,0.016,-0.352,179.396
 15:03:32.054,eb:33:2e:f9:57:b5, 2085-97-251 255:12:00:2056,-0.004,0.006,1.001,1.648,1.831,0,0.016,-0.352,179.396
 15:03:32.054,eb:33:2e:f9:57:b5, 2085-97-246 255:14:00:2059,-0.004,0.005,1.006,1.77,1.709,0,0.016,-0.352,179.396
 15:03:32.054,eb:33:2e:f9:57:b5, 2085-97-247 255:19:00:2062,-0.005,0.008,1.005,1.77,1.587,0,0.016,-0.352,179.396
 15:03:32.077,eb:33:2e:f9:57:b5, 2085-97-248 255:15:00:2058,-0.001,0.008,1.006,1.526,1.343,0,0.016,-0.352,179.396
 15:03:32.077,eb:33:2e:f9:57:b5, 2085-97-253 255:13:00:2051,-0.001,0.007,1.002,1.526,1.343,0.061,0.022,-0.352,179.396
 15:03:32.077,eb:33:2e:f9:57:b5, 2085-97-251 255:11:00:2051,0,0.005,1,1.587,1.465,0,0.022,-0.352,179.396
 15:03:32.077,eb:33:2e:f9:57:b5, 2085-97-14 00:247:255:2025,0.01,0.004,0.998,2.014,1.77,0.061,0.022,-0.346,179.396
 15:03:32.106,eb:33:2e:f9:57:b5, 2085-97-08 00:253:255:2040,-0.004,-0.008,0.988,3.479,3.357,0,0.044,-0.324,179.396
 15:03:32.106,eb:33:2e:f9:57:b5, 2085-97-232 255:17:00:2069,-0.013,0.004,1.003,4.578,4.089,0.061,0.088,-0.286,179.39
 15:03:32.106,eb:33:2e:f9:57:b5, 2085-97-238 255:28:00:2063,-0.007,0.013,1.011,4.456,3.418,0.122,0.132,-0.247,179.396
 15:03:32.106,eb:33:2e:f9:57:b5, 2085-97-244 255:25:00:2051,-0.003,0.014,1.004,4.089,3.235,0.183,0.176,-0.214,179.396
 15:03:32.138,eb:33:2e:f9:57:b5, 2085-97-249 255:19:00:2049,-0.008,0.01,0.999,3.906,3.357,0,0.214,-0.181,179.396
 15:03:32.138,eb:33:2e:f9:57:b5, 2085-97-231 255:28:00:2062,-0.009,0.011,1.004,3.967,3.357,0.122,0.253,-0.148,179.396
 15:03:32.138,eb:33:2e:f9:57:b5, 2085-97-249 255:09:00:2040,-0.003,0.014,1.003,3.784,3.052,0.061,0.291,-0.115,179.396
 15:03:32.138,eb:33:2e:f9:57:b5, 2085-97-237 255:09:00:2055,-0.014,-0.002,0.997,5.005,3.662,0.061,0.33,-0.088,179.401
 15:03:32.226,eb:33:2e:f9:57:b5, 2085-97-221 255:42:00:2074,-0.019,0.015,1.01,5.371,3.235,0.061,0.385,-0.055,179.401
 15:03:32.226,eb:33:2e:f9:57:b5, 2085-97-226 255:43:00:2067,-0.013,0.021,1.012,4.761,2.441,0,0.434,-0.027,179.401
 15:03:32.226,eb:33:2e:f9:57:b5, 2085-97-228 255:48:00:2064,-0.012,0.022,1.008,4.089,1.953,0,0.478,-0.005,179.401
 15:03:32.226,eb:33:2e:f9:57:b5, 2085-97-236 255:39:00:2054,-0.01,0.022,1.005,3.418,1.587,0,0.516,0.011,179.401
 15:03:32.228,eb:33:2e:f9:57:b5, 2085-97-238 255:39:00:2053,-0.011,0.018,1.003,3.052,1.587,0,0.544,0.027,179.401
 15:03:32.228,eb:33:2e:f9:57:b5, 2085-97-232 255:41:00:2057,-0.013,0.02,1.003,2.808,1.587,-0.061,0.571,0.044,179.396
 15:03:32.228,eb:33:2e:f9:57:b5, 2085-97-229 255:51:00:2060,-0.013,0.022,1.005,2.441,1.282,-0.122,0.599,0.06,179.396
 15:03:32.228,eb:33:2e:f9:57:b5, 2085-97-223 255:48:00:2062,-0.015,0.025,1.005,1.831,0.977,-0.061,0.621,0.071,179.396
 15:03:32.317,eb:33:2e:f9:57:b5, 2085-97-232 255:46:00:2053,-0.011,0.023,1.006,1.282,0.488,0,0.632,0.077,179.396
 15:03:32.317,eb:33:2e:f9:57:b5, 2085-97-233 255:39:00:2050,-0.01,0.021,1.001,1.038,0.549,0,0.643,0.082,179.396
 15:03:32.317,eb:33:2e:f9:57:b5, 2085-97-238 255:33:00:2047,-0.008,0.017,1,1.038,0.61,0,0.654,0.088,179.396
 15:03:32.317,eb:33:2e:f9:57:b5, 2085-97-235 255:35:00:2052,-0.014,0.016,1,1.343,1.038,0,0.665,0.099,179.39
 15:03:32.319,eb:33:2e:f9:57:b5, 2085-97-227 255:47:00:2059,-0.015,0.02,1.005,1.343,1.099,0,0.681,0.11,179.39
 15:03:32.319,eb:33:2e:f9:57:b5, 2085-97-224 255:50:00:2061,-0.017,0.025,1.006,1.038,0.732,0,0.692,0.115,179.39
 15:03:32.319,eb:33:2e:f9:57:b5, 2085-97-225 255:44:00:2056,-0.011,0.023,1.006,0.61,0.244,0.061,0.698,0.121,179.39
 15:03:32.319,eb:33:2e:f9:57:b5, 2085-97-238 255:28:00:2044,-0.01,0.018,1,0.61,0.183,0,0.703,0.121,179.39
 15:03:32.377,eb:33:2e:f9:57:b5, 2085-97-230 255:34:00:2053,-0.014,0.013,0.999,1.16,0.671,0,0.709,0.126,179.39
 15:03:32.377,eb:33:2e:f9:57:b5, 2085-97-228 255:44:00:2054,-0.013,0.021,1.004,1.221,0.549,0,0.725,0.132,179.39
 15:03:32.377,eb:33:2e:f9:57:b5, 2085-97-230 255:40:00:2056,-0.015,0.02,1.003,1.343,0.488,0,0.736,0.137,179.39
 15:03:32.377,eb:33:2e:f9:57:b5, 2085-97-226 255:51:00:2060,-0.015,0.022,1.004,1.282,0.427,0,0.747,0.143,179.39
 15:03:32.377,eb:33:2e:f9:57:b5, 2085-97-227 255:53:00:2054,-0.014,0.025,1.004,0.854,0.244,0,0.758,0.148,179.39
 15:03:32.377,eb:33:2e:f9:57:b5, 2085-97-228 255:48:00:2058,-0.013,0.025,1.005,0.488,0.061,0.061,0.764,0.148,179.39
 15:03:32.377,eb:33:2e:f9:57:b5, 2085-97-236 255:42:00:2045,-0.008,0.024,1.002,0.244,0,0.061,0.764,0.148,179.39
 15:03:32.377,eb:33:2e:f9:57:b5, 2085-97-236 255:33:00:2049,-0.014,0.016,0.998,0.488,0.488,0.061,0.769,0.154,179.39
 15:03:32.437,eb:33:2e:f9:57:b5, 2085-97-224 255:49:00:2063,-0.015,0.022,1.005,0.793,0.671,0.122,0.775,0.159,179.39
 15:03:32.437,eb:33:2e:f9:57:b5, 2085-97-227 255:47:00:2058,-0.015,0.024,1.006,0.549,0.427,0.183,0.78,0.165,179.39
 15:03:32.437,eb:33:2e:f9:57:b5, 2085-97-223 255:52:00:2061,-0.017,0.024,1.005,0.305,0.244,0.183,0.78,0.165,179.39
 15:03:32.437,eb:33:2e:f9:57:b5, 2085-97-225 255:51:00:2057,-0.013,0.026,1.006,0,-0.061,0.122,0.786,0.17,179.39
 15:03:32.496,eb:33:2e:f9:57:b5, 2085-113-81 00:173:00:-077,-0.013,0.022,1.002,-0.305,-0.244,0.122,0.786,0.17,179.39
 15:03:32.496,eb:33:2e:f9:57:b5, 2085-97-231 255:41:00:2054,-0.013,0.02,1.001,-0.244,-0.305,0.061,0.791,0.176,179.396
 15:03:32.496,eb:33:2e:f9:57:b5, 2085-97-228 255:44:00:2053,-0.014,0.022,1.002,-0.305,-0.305,0.183,0.791,0.176,179.396
 15:03:32.496,eb:33:2e:f9:57:b5, 2085-97-228 255:44:00:2056,-0.016,0.021,1.003,-0.305,-0.427,0.122,0.797,0.181,179.396
 15:03:32.498,eb:33:2e:f9:57:b5, 2085-97-224 255:48:00:2058,-0.015,0.023,1.004,-0.427,-0.549,0.122,0.797,0.181,179.396
 15:03:32.498,eb:33:2e:f9:57:b5, 2085-97-231 255:46:00:2051,-0.011,0.024,1.005,-0.793,-0.793,0.061,0.802,0.187,179.396
 15:03:32.498,eb:33:2e:f9:57:b5, 2085-97-237 255:37:00:2042,-0.008,0.02,0.998,-0.793,-0.671,0.061,0.802,0.187,179.396
 15:03:32.498,eb:33:2e:f9:57:b5, 2085-97-239 255:33:00:2045,-0.01,0.017,0.997,-0.488,-0.366,0,0.802,0.192,179.396
 15:03:32.558,eb:33:2e:f9:57:b5, 2085-97-233 255:42:00:2053,-0.012,0.018,1.001,-0.122,-0.061,0.061,0.802,0.192,179.396
 15:03:32.558,eb:33:2e:f9:57:b5, 2085-97-232 255:45:00:2057,-0.012,0.022,1.004,-0.122,0,0.122,0.807,0.192,179.396
 15:03:32.558,eb:33:2e:f9:57:b5, 2085-97-231 255:45:00:2053,-0.012,0.022,1.004,-0.244,-0.061,0.122,0.807,0.192,179.396
 15:03:32.558,eb:33:2e:f9:57:b5, 2085-97-234 255:36:00:2045,-0.011,0.02,1.001,-0.244,0,0.061,0.807,0.198,179.401
 15:03:32.586,eb:33:2e:f9:57:b5, 2085-97-231 255:34:00:2052,-0.014,0.016,0.999,0.061,0.244,0.061,0.807,0.198,179.401
 15:03:32.586,eb:33:2e:f9:57:b5, 2085-97-226 255:46:00:2057,-0.013,0.021,1.004,0.244,0.122,0.122,0.813,0.198,179.401
 15:03:32.586,eb:33:2e:f9:57:b5, 2085-97-229 255:43:00:2055,-0.013,0.021,1.003,0.183,0.061,0.183,0.813,0.198,179.401
 15:03:32.586,eb:33:2e:f9:57:b5, 2085-97-228 255:47:00:2057,-0.013,0.022,1.004,0.122,0,0.061,0.813,0.203,179.401
 15:03:32.617,eb:33:2e:f9:57:b5, 2085-97-232 255:42:00:2052,-0.012,0.022,1.002,0,0,0.122,0.813,0.203,179.401
 15:03:32.617,eb:33:2e:f9:57:b5, 2085-97-228 255:43:00:2054,-0.013,0.02,1.002,0,0.122,0.122,0.818,0.209,179.401
 15:03:32.617,eb:33:2e:f9:57:b5, 2085-97-229 255:42:00:2054,-0.012,0.022,1.003,-0.061,0,0.061,0.818,0.209,179.401
 15:03:32.617,eb:33:2e:f9:57:b5, 2085-97-232 255:41:00:2053,-0.011,0.02,1.003,-0.061,0.061,0.122,0.818,0.209,179.401
 15:03:32.676,eb:33:2e:f9:57:b5, 2085-97-231 255:39:00:2053,-0.011,0.021,1.001,0,0.122,0.183,0.818,0.209,179.401
 15:03:32.676,eb:33:2e:f9:57:b5, 2085-97-236 255:37:00:2048,-0.011,0.02,1.001,0,0.305,0.122,0.824,0.214,179.401
 15:03:32.676,eb:33:2e:f9:57:b5, 2085-97-230 255:39:00:2052,-0.014,0.017,1,0.305,0.488,0.122,0.824,0.214,179.401
 15:03:32.676,eb:33:2e:f9:57:b5, 2085-97-226 255:45:00:2055,-0.013,0.021,1.004,0.305,0.488,0.183,0.824,0.214,179.401
 15:03:32.708,eb:33:2e:f9:57:b5, 2085-97-231 255:40:00:2052,-0.012,0.02,1.002,0.244,0.427,0.122,0.824,0.214,179.401
 15:03:32.708,eb:33:2e:f9:57:b5, 2085-97-232 255:44:00:2049,-0.011,0.021,1.002,0.183,0.488,0.122,0.829,0.22,179.401
 15:03:32.708,eb:33:2e:f9:57:b5, 2085-97-232 255:39:00:2050,-0.014,0.02,1,0.244,0.61,0.122,0.829,0.22,179.401
 15:03:32.708,eb:33:2e:f9:57:b5, 2085-97-228 255:42:00:2053,-0.014,0.021,1.002,0.244,0.671,0.061,0.829,0.22,179.401
 15:03:32.736,eb:33:2e:f9:57:b5, 2085-97-229 255:38:00:2051,-0.014,0.019,1.002,0.427,0.732,0.061,0.829,0.22,179.401
 15:03:32.736,eb:33:2e:f9:57:b5, 2085-97-226 255:44:00:2054,-0.017,0.019,1.001,0.61,0.732,0,0.835,0.22,179.407
 15:03:32.736,eb:33:2e:f9:57:b5, 2085-97-222 255:47:00:2058,-0.015,0.022,1.005,0.488,0.549,0.061,0.835,0.22,179.407
 15:03:32.736,eb:33:2e:f9:57:b5, 2085-97-228 255:45:00:2056,-0.014,0.023,1.005,0.244,0.366,0,0.835,0.225,179.407
 15:03:32.797,eb:33:2e:f9:57:b5, 2085-97-225 255:44:00:2054,-0.014,0.021,1.003,0.183,0.244,0,0.835,0.225,179.407
 15:03:32.797,eb:33:2e:f9:57:b5, 2085-97-230 255:37:00:2051,-0.012,0.021,1.002,0.061,0.183,0,0.835,0.225,179.407
 15:03:32.797,eb:33:2e:f9:57:b5, 2085-97-233 255:42:00:2051,-0.013,0.019,1,0.366,0.366,0,0.835,0.225,179.407
 15:03:32.797,eb:33:2e:f9:57:b5, 2085-97-227 255:47:00:2059,-0.016,0.021,1.004,0.427,0.549,0,0.84,0.231,179.407
 15:03:32.857,eb:33:2e:f9:57:b5, 2085-97-224 255:49:00:2058,-0.015,0.024,1.005,0.183,0.427,0,0.84,0.231,179.407
 15:03:32.857,eb:33:2e:f9:57:b5, 2085-97-225 255:48:00:2056,-0.016,0.022,1.003,0,0.305,0,0.84,0.231,179.407
 15:03:32.857,eb:33:2e:f9:57:b5, 2085-97-222 255:48:00:2060,-0.015,0.024,1.005,-0.244,0.183,0.061,0.84,0.231,179.407
 15:03:32.857,eb:33:2e:f9:57:b5, 2085-97-226 255:41:00:2052,-0.014,0.022,1.004,-0.427,0.061,0.061,0.84,0.236,179.407
 15:03:32.857,eb:33:2e:f9:57:b5, 2085-97-227 255:42:00:2051,-0.014,0.02,1.001,-0.427,0.061,0.061,0.84,0.236,179.407
 15:03:32.857,eb:33:2e:f9:57:b5, 2085-97-231 255:38:00:2046,-0.009,0.021,1,-0.366,0.122,0.061,0.846,0.236,179.407
 15:03:32.857,eb:33:2e:f9:57:b5, 2085-97-236 255:34:00:2042,-0.012,0.017,0.996,-0.061,0.366,0,0.846,0.236,179.407
 15:03:32.857,eb:33:2e:f9:57:b5, 2085-97-227 255:47:00:2053,-0.016,0.02,1,0.122,0.732,0,0.846,0.236,179.407
 15:03:32.947,eb:33:2e:f9:57:b5, 2085-97-225 255:46:00:2054,-0.014,0.023,1.003,0,0.61,-0.061,0.846,0.236,179.407
 15:03:32.947,eb:33:2e:f9:57:b5, 2085-97-229 255:47:00:2050,-0.014,0.021,1.002,-0.244,0.61,-0.183,0.846,0.242,179.407
 15:03:32.947,eb:33:2e:f9:57:b5, 2085-97-221 255:45:00:2058,-0.018,0.022,1.002,-0.427,0.61,-0.183,0.846,0.242,179.407
 15:03:32.947,eb:33:2e:f9:57:b5, 2085-97-220 255:50:00:2059,-0.018,0.023,1.005,-0.732,0.244,-0.244,0.851,0.242,179.407
 15:03:32.949,eb:33:2e:f9:57:b5, 2085-97-220 255:48:00:2062,-0.018,0.024,1.007,-1.16,0,-0.183,0.851,0.242,179.407
 15:03:32.949,eb:33:2e:f9:57:b5, 2085-97-222 255:44:00:2059,-0.016,0.024,1.005,-1.404,-0.366,-0.122,0.851,0.247,179.407
 15:03:32.949,eb:33:2e:f9:57:b5, 2085-97-218 255:41:00:2058,-0.02,0.021,1.003,-1.465,-0.488,-0.122,0.851,0.247,179.407
 15:03:32.949,eb:33:2e:f9:57:b5, 2085-97-228 255:41:00:2051,-0.01,0.021,1.007,-1.648,-0.916,-0.183,0.857,0.247,179.412
 15:03:33.037,eb:33:2e:f9:57:b5, 2085-97-232 255:31:00:2049,-0.015,0.017,0.999,-1.526,-0.61,0,0.857,0.247,179.412
 15:03:33.037,eb:33:2e:f9:57:b5, 2085-97-223 255:40:00:2056,-0.015,0.017,1.003,-1.282,-0.488,0,0.857,0.253,179.412
 15:03:33.037,eb:33:2e:f9:57:b5, 2085-97-227 255:40:00:2053,-0.013,0.02,1.003,-1.343,-0.671,0,0.857,0.253,179.412
 15:03:33.038,eb:33:2e:f9:57:b5, 2085-97-229 255:38:00:2052,-0.013,0.019,1.002,-1.343,-0.61,-0.061,0.857,0.253,179.412
 15:03:33.038,eb:33:2e:f9:57:b5, 2085-97-233 255:34:00:2048,-0.011,0.018,1.001,-1.343,-0.488,0,0.857,0.253,179.412
 15:03:33.038,eb:33:2e:f9:57:b5, 2085-97-228 255:37:00:2054,-0.015,0.017,1.001,-1.099,-0.183,0,0.862,0.253,179.412
 15:03:33.038,eb:33:2e:f9:57:b5, 2085-97-226 255:40:00:2058,-0.015,0.02,1.005,-1.099,-0.244,0,0.862,0.253,179.412
 15:03:33.038,eb:33:2e:f9:57:b5, 2085-97-230 255:38:00:2054,-0.013,0.019,1.003,-1.282,-0.305,0.061,0.862,0.258,179.412
 15:03:33.038,eb:33:2e:f9:57:b5, 2085-113-81 00:168:00:-101,-0.014,0.018,1.004,-1.404,-0.244,0.061,0.862,0.258,179.412
 15:03:33.066,eb:33:2e:f9:57:b5, 2085-97-226 255:36:00:2054,-0.014,0.018,1.004,-1.465,-0.305,0,0.862,0.258,179.412
 15:03:33.066,eb:33:2e:f9:57:b5, 2085-97-228 255:30:00:2049,-0.013,0.016,1.001,-1.343,-0.305,0.061,0.862,0.258,179.412
 15:03:33.066,eb:33:2e:f9:57:b5, 2085-97-230 255:34:00:2051,-0.014,0.016,1.001,-1.343,-0.183,0.061,0.862,0.258,179.412
 15:03:33.066,eb:33:2e:f9:57:b5, 2085-97-227 255:34:00:2057,-0.017,0.016,1.002,-1.282,-0.183,0.061,0.862,0.264,179.412
 15:03:33.156,eb:33:2e:f9:57:b5, 2085-97-219 255:40:00:2064,-0.019,0.018,1.007,-1.404,-0.61,0.244,0.862,0.264,179.412
 15:03:33.156,eb:33:2e:f9:57:b5, 2085-97-222 255:37:00:2063,-0.016,0.018,1.008,-1.709,-1.343,0.366,0.868,0.264,179.412
 15:03:33.156,eb:33:2e:f9:57:b5, 2085-97-226 255:40:00:2061,-0.013,0.019,1.006,-2.014,-1.648,0.427,0.868,0.264,179.412
 15:03:33.156,eb:33:2e:f9:57:b5, 2085-97-232 255:27:00:2047,-0.01,0.017,1.003,-2.319,-1.648,0.488,0.868,0.269,179.412
 15:03:33.159,eb:33:2e:f9:57:b5, 2085-97-231 255:18:00:2051,-0.015,0.009,0.999,-1.892,-1.282,0.427,0.868,0.269,179.412
 15:03:33.159,eb:33:2e:f9:57:b5, 2085-97-225 255:26:00:2061,-0.016,0.011,1.004,-1.465,-1.282,0.549,0.868,0.269,179.412
 15:03:33.159,eb:33:2e:f9:57:b5, 2085-97-228 255:29:00:2060,-0.014,0.013,1.007,-1.343,-1.587,0.671,0.868,0.269,179.412
 15:03:33.159,eb:33:2e:f9:57:b5, 2085-97-229 255:31:00:2058,-0.012,0.016,1.005,-1.404,-1.77,0.732,0.868,0.269,179.412
 15:03:33.187,eb:33:2e:f9:57:b5, 2085-97-235 255:27:00:2055,-0.011,0.015,1.004,-1.526,-1.77,0.671,0.868,0.269,179.412
 15:03:33.187,eb:33:2e:f9:57:b5, 2085-97-233 255:25:00:2057,-0.012,0.013,1.003,-1.526,-1.587,0.732,0.873,0.275,179.412
 15:03:33.187,eb:33:2e:f9:57:b5, 2085-97-228 255:27:00:2059,-0.012,0.013,1.005,-1.404,-1.587,0.793,0.873,0.275,179.412
 15:03:33.187,eb:33:2e:f9:57:b5, 2085-97-238 255:20:00:2052,-0.008,0.011,1.004,-1.221,-1.709,0.793,0.873,0.275,179.418
 15:03:33.247,eb:33:2e:f9:57:b5, 2085-97-235 255:23:00:2053,-0.012,0.011,1.001,-1.038,-1.526,0.793,0.873,0.275,179.418
 15:03:33.247,eb:33:2e:f9:57:b5, 2085-97-231 255:22:00:2058,-0.011,0.012,1.004,-1.038,-1.465,0.732,0.873,0.28,179.418
 15:03:33.247,eb:33:2e:f9:57:b5, 2085-97-234 255:25:00:2053,-0.011,0.012,1.003,-0.977,-1.587,0.732,0.873,0.28,179.418
 15:03:33.247,eb:33:2e:f9:57:b5, 2085-97-234 255:26:00:2056,-0.009,0.013,1.004,-0.977,-1.709,0.732,0.873,0.28,179.418
 15:03:33.276,eb:33:2e:f9:57:b5, 2085-97-239 255:20:00:2050,-0.007,0.012,1.002,-1.099,-1.709,0.61,0.873,0.28,179.418
 15:03:33.276,eb:33:2e:f9:57:b5, 2085-97-242 255:19:00:2047,-0.008,0.007,1,-0.854,-1.587,0.549,0.873,0.28,179.418
 15:03:33.276,eb:33:2e:f9:57:b5, 2085-97-239 255:23:00:2054,-0.007,0.011,1.001,-0.732,-1.404,0.488,0.873,0.28,179.418
 15:03:33.276,eb:33:2e:f9:57:b5, 2085-97-242 255:24:00:2053,-0.007,0.012,1.002,-0.793,-1.282,0.427,0.873,0.286,179.418
 15:03:33.338,eb:33:2e:f9:57:b5, 2085-97-241 255:23:00:2054,-0.007,0.012,1.002,-0.916,-1.16,0.488,0.873,0.286,179.418
 15:03:33.338,eb:33:2e:f9:57:b5, 2085-97-243 255:22:00:2053,-0.007,0.012,1.003,-1.038,-1.099,0.427,0.879,0.286,179.418
 15:03:33.339,eb:33:2e:f9:57:b5, 2085-97-242 255:21:00:2052,-0.007,0.01,1.002,-1.038,-1.038,0.427,0.879,0.286,179.418
 15:03:33.339,eb:33:2e:f9:57:b5, 2085-97-241 255:22:00:2055,-0.005,0.01,1.002,-1.099,-0.977,0.427,0.879,0.286,179.418
 15:03:33.367,eb:33:2e:f9:57:b5, 2085-97-239 255:23:00:2057,-0.008,0.012,1.002,-1.221,-0.977,0.488,0.879,0.286,179.418
 15:03:33.367,eb:33:2e:f9:57:b5, 2085-97-239 255:19:00:2058,-0.008,0.009,1.005,-1.343,-0.916,0.549,0.879,0.291,179.418
 15:03:33.367,eb:33:2e:f9:57:b5, 2085-97-238 255:22:00:2060,-0.01,0.01,1.005,-1.282,-1.16,0.488,0.879,0.291,179.418
 15:03:33.367,eb:33:2e:f9:57:b5, 2085-97-239 255:17:00:2057,-0.005,0.011,1.005,-1.404,-1.526,0.488,0.879,0.291,179.418
 15:03:33.398,eb:33:2e:f9:57:b5, 2085-97-249 255:16:00:2050,-0.005,0.007,1.003,-1.404,-1.526,0.488,0.879,0.291,179.418
 15:03:33.398,eb:33:2e:f9:57:b5, 2085-97-247 255:16:00:2049,-0.005,0.008,1.001,-1.282,-1.343,0.366,0.879,0.291,179.418
 15:03:33.398,eb:33:2e:f9:57:b5, 2085-97-245 255:11:00:2053,-0.006,0.006,1.001,-1.099,-1.221,0.366,0.879,0.291,179.418
 15:03:33.398,eb:33:2e:f9:57:b5, 2085-97-241 255:11:00:2055,-0.008,0.006,1.003,-0.732,-1.282,0.366,0.879,0.297,179.418
 15:03:33.427,eb:33:2e:f9:57:b5, 2085-97-245 255:15:00:2054,-0.005,0.007,1.004,-0.549,-1.404,0.305,0.879,0.297,179.418
 15:03:33.427,eb:33:2e:f9:57:b5, 2085-97-244 255:18:00:2054,-0.006,0.007,1.003,-0.427,-1.465,0.305,0.879,0.297,179.418
 15:03:33.427,eb:33:2e:f9:57:b5, 2085-97-242 255:20:00:2060,-0.006,0.008,1.004,-0.366,-1.465,0.427,0.879,0.297,179.418
 15:03:33.427,eb:33:2e:f9:57:b5, 2085-97-248 255:24:00:2056,-0.003,0.012,1.006,-0.61,-1.77,0.427,0.879,0.297,179.418
 15:03:33.486,eb:33:2e:f9:57:b5, 2085-97-246 255:21:00:2055,-0.005,0.01,1.003,-0.793,-1.709,0.427,0.879,0.297,179.418
 15:03:33.486,eb:33:2e:f9:57:b5, 2085-97-249 255:20:00:2057,-0.005,0.01,1.005,-0.916,-1.709,0.488,0.879,0.297,179.418
 15:03:33.486,eb:33:2e:f9:57:b5, 2085-97-249 255:17:00:2055,0,0.007,1.005,-0.977,-1.648,0.427,0.879,0.297,179.418
 15:03:33.486,eb:33:2e:f9:57:b5, 2085-97-251 255:15:00:2052,-0.001,0.008,1.001,-0.916,-1.526,0.488,0.879,0.297,179.418
 15:03:33.516,eb:33:2e:f9:57:b5, 2085-97-250 255:14:00:2054,-0.003,0.007,1.001,-0.977,-1.343,0.488,0.879,0.297,179.418
 15:03:33.516,eb:33:2e:f9:57:b5, 2085-97-248 255:14:00:2055,-0.004,0.006,1.002,-0.854,-1.343,0.488,0.873,0.302,179.418
 15:03:33.516,eb:33:2e:f9:57:b5, 2085-97-249 255:12:00:2054,-0.003,0.007,1.002,-0.854,-1.404,0.427,0.873,0.302,179.418
 15:03:33.516,eb:33:2e:f9:57:b5, 2085-97-251 255:12:00:2053,-0.003,0.005,1.002,-0.793,-1.282,0.366,0.873,0.302,179.418
 15:03:33.578,eb:33:2e:f9:57:b5, 2085-97-254 255:12:00:2052,0,0.006,1.002,-0.854,-1.343,0.366,0.873,0.302,179.418
 15:03:33.578,eb:33:2e:f9:57:b5, 2085-97-250 255:13:00:2058,-0.003,0.006,1.003,-0.732,-1.282,0.366,0.873,0.302,179.418
 15:03:33.579,eb:33:2e:f9:57:b5, 2085-97-251 255:13:00:2057,-0.003,0.007,1.004,-0.732,-1.404,0.366,0.873,0.302,179.418
 15:03:33.579,eb:33:2e:f9:57:b5, 2085-97-252 255:11:00:2054,0,0.006,1.003,-0.793,-1.404,0.305,0.873,0.302,179.418
 15:03:33.607,eb:33:2e:f9:57:b5, 2085-97-255 255:14:00:2055,-0.001,0.006,1.003,-0.793,-1.282,0.305,0.873,0.302,179.418
 15:03:33.607,eb:33:2e:f9:57:b5, 2085-97-253 255:15:00:2056,0,0.007,1.004,-0.793,-1.282,0.244,0.873,0.302,179.418
 15:03:33.607,eb:33:2e:f9:57:b5, 2085-97-03 00:10:00:2048,0.001,0.005,1,-0.793,-1.16,0.244,0.873,0.302,179.418
 15:03:33.607,eb:33:2e:f9:57:b5, 2085-97-00 00:12:00:2053,0,0.005,1,-0.732,-0.977,0.183,0.873,0.302,179.418
 15:03:33.667,eb:33:2e:f9:57:b5, 2085-97-255 255:12:00:2054,0,0.006,1.003,-0.671,-0.916,0.366,0.873,0.302,179.418
 15:03:33.667,eb:33:2e:f9:57:b5, 2085-97-252 255:11:00:2057,-0.001,0.005,1.004,-0.732,-0.854,0.305,0.873,0.302,179.418
 15:03:33.667,eb:33:2e:f9:57:b5, 2085-97-251 255:13:00:2059,-0.002,0.006,1.005,-0.793,-0.916,0.183,0.873,0.302,179.418
 15:03:33.667,eb:33:2e:f9:57:b5, 2085-97-255 255:12:00:2057,0,0.006,1.004,-0.793,-1.038,0.244,0.868,0.302,179.418
 15:03:33.669,eb:33:2e:f9:57:b5, 2085-97-00 00:10:00:2056,0,0.006,1.003,-0.854,-1.038,0.366,0.868,0.302,179.418
 15:03:33.669,eb:33:2e:f9:57:b5, 2085-97-00 00:10:00:2057,-0.001,0.005,1.003,-0.916,-0.977,0.305,0.868,0.302,179.418
 15:03:33.669,eb:33:2e:f9:57:b5, 2085-97-253 255:12:00:2056,0,0.006,1.004,-0.916,-1.038,0.305,0.868,0.302,179.418
 15:03:33.669,eb:33:2e:f9:57:b5, 2085-97-00 00:08:00:2056,0,0.005,1.004,-0.854,-1.099,0.244,0.868,0.302,179.418
 15:03:33.818,eb:33:2e:f9:57:b5, 2085-97-251 255:13:00:2061,-0.003,0.005,1.005,-0.916,-1.16,0.305,0.868,0.302,179.418
 15:03:33.818,eb:33:2e:f9:57:b5, 2085-97-00 00:05:00:2057,0.001,0.005,1.007,-0.977,-1.587,0.305,0.868,0.302,179.418
 15:03:33.818,eb:33:2e:f9:57:b5, 2085-97-03 00:07:00:2053,0.001,0.003,1.002,-0.916,-1.526,0.305,0.868,0.302,179.418
 15:03:33.818,eb:33:2e:f9:57:b5, 2085-97-07 00:03:00:2045,0.006,0.003,1.002,-0.916,-1.526,0.366,0.862,0.302,179.418
 15:03:33.820,eb:33:2e:f9:57:b5, 2085-97-17 00:01:00:2036,0.009,0,0.995,-0.793,-1.099,0.305,0.862,0.302,179.418
 15:03:33.820,eb:33:2e:f9:57:b5, 2085-97-14 00:04:00:2043,0.002,0.001,0.994,-0.488,-0.366,0.305,0.862,0.302,179.418
 15:03:33.820,eb:33:2e:f9:57:b5, 2085-97-00 00:09:00:2057,0,0.004,1.002,-0.366,-0.061,0.244,0.862,0.302,179.418
 15:03:33.820,eb:33:2e:f9:57:b5, 2085-97-02 00:08:00:2057,0,0.004,1.004,-0.366,-0.244,0.305,0.862,0.302,179.418
 15:03:33.823,eb:33:2e:f9:57:b5, 2085-97-02 00:09:00:2059,0,0.004,1.005,-0.427,-0.244,0.305,0.862,0.302,179.418
 15:03:33.823,eb:33:2e:f9:57:b5, 2085-97-01 00:07:00:2057,0.001,0.004,1.006,-0.488,-0.366,0.305,0.857,0.302,179.418
 15:03:33.823,eb:33:2e:f9:57:b5, 2085-97-01 00:08:00:2059,0,0.003,1.004,-0.549,-0.366,0.244,0.857,0.302,179.418
 15:03:33.823,eb:33:2e:f9:57:b5, 2085-97-00 00:06:00:2061,0,0.003,1.005,-0.61,-0.427,0.305,0.857,0.302,179.418
 15:03:33.846,eb:33:2e:f9:57:b5, 2085-97-01 00:03:00:2059,0.001,0.003,1.006,-0.61,-0.671,0.244,0.857,0.302,179.418
 15:03:33.846,eb:33:2e:f9:57:b5, 2085-97-01 00:06:00:2057,0.001,0.003,1.004,-0.671,-0.793,0.305,0.857,0.302,179.418
 15:03:33.846,eb:33:2e:f9:57:b5, 2085-97-03 00:05:00:2057,0.001,0.003,1.004,-0.671,-0.793,0.305,0.857,0.302,179.418
 15:03:33.846,eb:33:2e:f9:57:b5, 2085-97-10 00:03:00:2050,0.002,0.002,1.003,-0.671,-0.732,0.305,0.851,0.302,179.418
 15:03:33.877,eb:33:2e:f9:57:b5, 2085-97-00 00:06:00:2062,0,0.001,1.004,-0.549,-0.549,0.244,0.851,0.297,179.418
 15:03:33.877,eb:33:2e:f9:57:b5, 2085-97-00 00:04:00:2061,0.002,0.002,1.007,-0.732,-0.793,0.366,0.851,0.297,179.418
 15:03:33.877,eb:33:2e:f9:57:b5, 2085-97-08 00:05:00:2055,0.004,0.002,1.005,-0.732,-0.916,0.366,0.851,0.297,179.418
 15:03:33.877,eb:33:2e:f9:57:b5, 2085-113-58 00:165:00:-4425,0.002,0.002,1.003,-0.732,-0.854,0.305,0.846,0.297,179.418
 15:03:33.906,eb:33:2e:f9:57:b5, 2085-97-03 00:02:00:2057,0.003,0.003,1.004,-0.732,-0.854,0.305,0.846,0.297,179.418
 15:03:33.906,eb:33:2e:f9:57:b5, 2085-97-08 00:04:00:2055,0.002,0.002,1.004,-0.732,-0.854,0.366,0.846,0.297,179.418
 15:03:33.906,eb:33:2e:f9:57:b5, 2085-97-05 00:06:00:2059,0.002,0.003,1.005,-0.793,-1.038,0.366,0.846,0.297,179.418
 15:03:33.906,eb:33:2e:f9:57:b5, 2085-97-05 00:03:00:2060,0,0.002,1.005,-0.854,-1.099,0.427,0.846,0.297,179.418
 15:03:33.996,eb:33:2e:f9:57:b5, 2085-97-00 00:06:00:2064,0.002,0.002,1.008,-0.916,-1.343,0.549,0.846,0.297,179.418
 15:03:33.996,eb:33:2e:f9:57:b5, 2085-97-03 00:06:00:2064,0.002,0.003,1.007,-1.16,-1.526,0.671,0.84,0.291,179.418
 15:03:33.996,eb:33:2e:f9:57:b5, 2085-97-04 00:05:00:2065,0.002,0.003,1.008,-1.282,-1.648,0.732,0.84,0.291,179.418
 15:03:33.996,eb:33:2e:f9:57:b5, 2085-97-08 00:01:00:2058,0.005,0.001,1.006,-1.526,-1.831,0.793,0.84,0.291,179.418
 15:03:34.000,eb:33:2e:f9:57:b5, 2085-97-13 00:00:00:2052,0.005,0,1.003,-1.526,-1.648,0.671,0.84,0.291,179.418
 15:03:34.000,eb:33:2e:f9:57:b5, 2085-97-07 00:00:00:2057,0.004,0,1.004,-1.587,-1.587,0.732,0.835,0.291,179.418
 15:03:34.000,eb:33:2e:f9:57:b5, 2085-97-12 00:02:00:2057,0.005,0,1.004,-1.587,-1.709,0.793,0.835,0.291,179.418
 15:03:34.000,eb:33:2e:f9:57:b5, 2085-97-15 00:00:00:2049,0.01,0,1.004,-1.709,-1.77,0.854,0.835,0.291,179.418
 15:03:34.027,eb:33:2e:f9:57:b5, 2085-97-39 00:247:255:2026,0.012,-0.001,0.996,-1.648,-1.465,0.793,0.835,0.291,179.418
 15:03:34.027,eb:33:2e:f9:57:b5, 2085-97-14 00:255:255:2047,0.007,-0.003,0.995,-1.404,-0.549,0.732,0.829,0.286,179.418
 15:03:34.027,eb:33:2e:f9:57:b5, 2085-97-17 00:253:255:2050,0.005,-0.001,1.001,-1.343,-0.366,0.732,0.829,0.286,179.418
 15:03:34.028,eb:33:2e:f9:57:b5, 2085-97-03 00:249:255:2060,0.001,-0.002,1.003,-1.343,-0.366,0.61,0.829,0.286,179.418
 15:03:34.087,eb:33:2e:f9:57:b5, 2085-97-07 00:249:255:2059,0.005,-0.004,1.006,-1.282,-0.854,0.427,0.829,0.286,179.418
 15:03:34.087,eb:33:2e:f9:57:b5, 2085-97-12 00:252:255:2053,0.007,-0.002,1.004,-1.221,-1.099,0.366,0.824,0.286,179.418
 15:03:34.087,eb:33:2e:f9:57:b5, 2085-97-19 00:250:255:2052,0.007,-0.002,1.001,-1.099,-1.16,0.305,0.824,0.286,179.418
 15:03:34.087,eb:33:2e:f9:57:b5, 2085-97-13 00:249:255:2057,0.009,-0.004,1.003,-1.038,-1.038,0.305,0.824,0.28,179.418
 15:03:34.116,eb:33:2e:f9:57:b5, 2085-97-19 00:251:255:2052,0.007,-0.003,1.001,-1.038,-0.977,0.244,0.824,0.28,179.418
 15:03:34.116,eb:33:2e:f9:57:b5, 2085-97-13 00:249:255:2053,0.008,-0.004,1.003,-0.977,-0.854,0.183,0.818,0.28,179.418
 15:03:34.116,eb:33:2e:f9:57:b5, 2085-97-17 00:247:255:2052,0.009,-0.004,1.001,-0.916,-0.793,0.183,0.818,0.28,179.418
 15:03:34.116,eb:33:2e:f9:57:b5, 2085-97-16 00:252:255:2058,0.011,-0.004,1.003,-0.854,-0.671,0.183,0.813,0.275,179.418
 15:03:34.148,eb:33:2e:f9:57:b5, 2085-97-27 00:249:255:2046,0.013,-0.002,1.002,-0.854,-0.427,0.305,0.813,0.275,179.418
 15:03:34.148,eb:33:2e:f9:57:b5, 2085-97-18 00:247:255:2053,0.007,-0.003,0.999,-0.732,0.244,0.366,0.758,0.236,179.412
 15:03:34.148,eb:33:2e:f9:57:b5, 2085-97-21 00:251:255:2048,0.012,-0.003,1.004,-0.732,0.366,0.305,0.758,0.236,179.412
 15:03:34.148,eb:33:2e:f9:57:b5, 2085-97-16 00:250:255:2047,0.009,-0.002,0.999,-0.793,0.61,0.244,0.753,0.231,179.412
 15:03:34.207,eb:33:2e:f9:57:b5, 2085-97-22 00:253:255:2050,0.007,-0.002,1.004,-1.16,0.366,0.061,0.753,0.231,179.412
 15:03:34.207,eb:33:2e:f9:57:b5, 2085-97-01 00:245:255:2063,0.005,-0.003,1.003,-1.465,0.427,0,0.747,0.225,179.412
 15:03:34.207,eb:33:2e:f9:57:b5, 2085-97-04 00:242:255:2064,0.002,-0.005,1.008,-1.465,0,0,0.747,0.225,179.412
 15:03:34.207,eb:33:2e:f9:57:b5, 2085-97-06 00:241:255:2064,0.003,-0.007,1.007,-1.343,-0.61,-0.122,0.742,0.225,179.412
 15:03:34.238,eb:33:2e:f9:57:b5, 2085-97-10 00:244:255:2060,0.007,-0.006,1.007,-1.16,-1.16,-0.122,0.742,0.225,179.412
 15:03:34.238,eb:33:2e:f9:57:b5, 2085-97-12 00:244:255:2060,0.007,-0.005,1.006,-1.16,-1.282,-0.061,0.736,0.22,179.412
 15:03:34.238,eb:33:2e:f9:57:b5, 2085-97-17 00:242:255:2058,0.008,-0.006,1.005,-1.16,-1.221,0,0.736,0.22,179.412
 15:03:34.238,eb:33:2e:f9:57:b5, 2085-97-17 00:244:255:2059,0.01,-0.006,1.005,-1.038,-1.16,0,0.731,0.214,179.412
 15:03:34.267,eb:33:2e:f9:57:b5, 2085-97-20 00:244:255:2056,0.01,-0.006,1.004,-1.099,-0.916,0,0.731,0.214,179.412
 15:03:34.267,eb:33:2e:f9:57:b5, 2085-97-22 00:247:255:2053,0.01,-0.005,1.003,-1.099,-0.732,0,0.725,0.214,179.412
 15:03:34.267,eb:33:2e:f9:57:b5, 2085-97-22 00:246:255:2051,0.009,-0.005,1.002,-1.221,-0.488,0,0.725,0.214,179.412
 15:03:34.267,eb:33:2e:f9:57:b5, 2085-97-15 00:242:255:2057,0.008,-0.006,1.004,-1.282,-0.488,0,0.72,0.209,179.412
 15:03:34.327,eb:33:2e:f9:57:b5, 2085-97-15 00:241:255:2056,0.009,-0.007,1.005,-1.16,-0.671,0.061,0.72,0.209,179.412
 15:03:34.327,eb:33:2e:f9:57:b5, 2085-97-19 00:240:255:2054,0.008,-0.008,1.002,-1.099,-0.793,0,0.714,0.203,179.412
 15:03:34.327,eb:33:2e:f9:57:b5, 2085-97-20 00:241:255:2055,0.011,-0.008,1.004,-1.038,-0.854,0,0.714,0.203,179.412
 15:03:34.328,eb:33:2e:f9:57:b5, 2085-97-23 00:242:255:2052,0.012,-0.007,1.002,-0.916,-0.732,0,0.709,0.198,179.412
 15:03:34.449,eb:33:2e:f9:57:b5, 2085-97-24 00:241:255:2053,0.012,-0.008,1.001,-0.916,-0.488,0,0.709,0.198,179.412
 15:03:34.449,eb:33:2e:f9:57:b5, 2085-97-22 00:239:255:2051,0.01,-0.007,1.002,-0.854,-0.183,0,0.703,0.192,179.412
 15:03:34.449,eb:33:2e:f9:57:b5, 2085-97-19 00:238:255:2053,0.008,-0.008,1.002,-0.793,-0.183,0,0.703,0.192,179.412
 15:03:34.449,eb:33:2e:f9:57:b5, 2085-97-15 00:239:255:2059,0.008,-0.009,1.004,-0.549,-0.305,0,0.692,0.187,179.412
 15:03:34.452,eb:33:2e:f9:57:b5, 2085-97-17 00:238:255:2056,0.009,-0.007,1.005,-0.549,-0.488,0,0.692,0.187,179.412
 15:03:34.452,eb:33:2e:f9:57:b5, 2085-97-24 00:239:255:2051,0.01,-0.008,1.003,-0.488,-0.671,0,0.687,0.187,179.412
 15:03:34.452,eb:33:2e:f9:57:b5, 2085-97-20 00:236:255:2053,0.01,-0.009,1.002,-0.488,-0.61,0,0.687,0.187,179.412
 15:03:34.452,eb:33:2e:f9:57:b5, 2085-97-20 00:236:255:2054,0.01,-0.01,1.002,-0.366,-0.854,0,0.681,0.181,179.407
 15:03:34.454,eb:33:2e:f9:57:b5, 2085-97-23 00:237:255:2051,0.011,-0.01,1.002,-0.244,-0.916,-0.061,0.681,0.181,179.412
 15:03:34.454,eb:33:2e:f9:57:b5, 2085-97-23 00:238:255:2054,0.012,-0.01,1.001,-0.244,-0.854,-0.061,0.676,0.176,179.407
 15:03:34.454,eb:33:2e:f9:57:b5, 2085-97-26 00:242:255:2054,0.015,-0.007,1.004,-0.305,-0.793,-0.061,0.676,0.176,179.407
 15:03:34.454,eb:33:2e:f9:57:b5, 2085-97-28 00:241:255:2056,0.011,-0.007,1.003,-0.366,-0.427,0,0.67,0.17,179.407
 15:03:34.476,eb:33:2e:f9:57:b5, 2085-97-21 00:240:255:2060,0.011,-0.007,1.006,-0.488,-0.244,0,0.67,0.17,179.407
 15:03:34.476,eb:33:2e:f9:57:b5, 2085-97-22 00:242:255:2056,0.012,-0.007,1.006,-0.671,0,0.061,0.659,0.165,179.407
 15:03:34.476,eb:33:2e:f9:57:b5, 2085-97-29 00:241:255:2047,0.015,-0.008,1.001,-0.793,0,0,0.659,0.165,179.407
 15:03:34.476,eb:33:2e:f9:57:b5, 2085-97-26 00:237:255:2055,0.009,-0.006,1,-0.977,0.427,0,0.654,0.159,179.407
 15:03:34.537,eb:33:2e:f9:57:b5, 2085-97-14 00:236:255:2059,0.011,-0.01,1.005,-0.977,0.488,0,0.654,0.159,179.407
 15:03:34.537,eb:33:2e:f9:57:b5, 2085-97-24 00:238:255:2056,0.011,-0.009,1.003,-1.038,0.244,-0.122,0.648,0.154,179.407
 15:03:34.537,eb:33:2e:f9:57:b5, 2085-97-23 00:237:255:2054,0.014,-0.009,1.003,-1.16,0.427,-0.061,0.648,0.154,179.407
 15:03:34.537,eb:33:2e:f9:57:b5, 2085-97-27 00:239:255:2048,0.015,-0.008,1.001,-1.221,0.61,-0.122,0.643,0.148,179.407
 15:03:34.537,eb:33:2e:f9:57:b5, 2085-97-29 00:237:255:2049,0.013,-0.009,1,-1.343,0.977,-0.061,0.643,0.148,179.407
 15:03:34.596,eb:33:2e:f9:57:b5, 2085-113-81 00:169:00:-070,0.011,-0.01,1.002,-1.526,1.343,-0.183,0.643,0.148,179.407
 15:03:34.596,eb:33:2e:f9:57:b5, 2085-97-21 00:234:255:2053,0.009,-0.011,1.002,-1.465,1.404,-0.183,0.643,0.148,179.407
 15:03:34.596,eb:33:2e:f9:57:b5, 2085-97-20 00:231:255:2054,0.01,-0.011,1.003,-1.465,1.465,-0.244,0.643,0.148,179.407
 15:03:34.596,eb:33:2e:f9:57:b5, 2085-97-21 00:234:255:2052,0.01,-0.011,1.003,-1.404,1.587,-0.305,0.643,0.148,179.407
 15:03:34.598,eb:33:2e:f9:57:b5, 2085-97-20 00:231:255:2053,0.009,-0.012,1.003,-1.404,1.709,-0.244,0.643,0.148,179.407
 15:03:34.598,eb:33:2e:f9:57:b5, 2085-97-17 00:229:255:2054,0.009,-0.013,1.002,-1.343,1.77,-0.366,0.643,0.148,179.407
 15:03:34.598,eb:33:2e:f9:57:b5, 2085-97-19 00:231:255:2050,0.01,-0.012,1.001,-1.221,1.77,-0.366,0.643,0.148,179.407
 15:03:34.598,eb:33:2e:f9:57:b5, 2085-97-19 00:228:255:2050,0.009,-0.013,1.001,-1.099,2.014,-0.366,0.643,0.148,179.407
 15:03:34.656,eb:33:2e:f9:57:b5, 2085-97-20 00:230:255:2048,0.012,-0.013,1,-0.854,2.136,-0.366,0.643,0.148,179.407
 15:03:34.656,eb:33:2e:f9:57:b5, 2085-97-25 00:233:255:2047,0.01,-0.012,0.999,-0.671,2.563,-0.427,0.637,0.148,179.407
 15:03:34.656,eb:33:2e:f9:57:b5, 2085-97-18 00:231:255:2052,0.007,-0.012,1.001,-0.61,3.113,-0.366,0.637,0.159,179.407
 15:03:34.656,eb:33:2e:f9:57:b5, 2085-97-13 00:230:255:2055,0.005,-0.012,1.003,-0.61,3.296,-0.366,0.632,0.192,179.401
 15:03:34.686,eb:33:2e:f9:57:b5, 2085-97-07 00:225:255:2056,0.001,-0.014,1.003,-0.549,3.235,-0.305,0.621,0.225,179.396
 15:03:34.686,eb:33:2e:f9:57:b5, 2085-97-254 255:227:255:2059,0,-0.015,1.004,-0.427,2.808,-0.305,0.615,0.253,179.396
 15:03:34.686,eb:33:2e:f9:57:b5, 2085-97-252 255:228:255:2067,-0.002,-0.015,1.006,-0.427,2.075,-0.366,0.61,0.28,179.39
 15:03:34.686,eb:33:2e:f9:57:b5, 2085-97-254 255:230:255:2068,0,-0.012,1.011,-0.549,1.221,-0.244,0.604,0.297,179.385
 15:03:34.718,eb:33:2e:f9:57:b5, 2085-97-03 00:228:255:2060,0.001,-0.014,1.008,-0.488,0.732,-0.122,0.593,0.308,179.385
 15:03:34.718,eb:33:2e:f9:57:b5, 2085-97-02 00:228:255:2059,0.003,-0.013,1.006,-0.488,0.488,-0.122,0.588,0.313,179.379
 15:03:34.718,eb:33:2e:f9:57:b5, 2085-97-11 00:228:255:2052,0.005,-0.014,1.003,-0.366,0.244,-0.122,0.582,0.313,179.379
 15:03:34.718,eb:33:2e:f9:57:b5, 2085-97-07 00:230:255:2058,0.001,-0.013,1.002,-0.366,0.305,-0.061,0.577,0.319,179.379
 15:03:34.814,eb:33:2e:f9:57:b5, 2085-97-05 00:230:255:2061,0.003,-0.013,1.007,-0.427,0.244,0,0.571,0.319,179.374
 15:03:34.814,eb:33:2e:f9:57:b5, 2085-97-05 00:229:255:2061,0.002,-0.014,1.006,-0.488,0.244,0,0.566,0.324,179.374
 15:03:34.814,eb:33:2e:f9:57:b5, 2085-97-04 00:228:255:2060,0.004,-0.013,1.006,-0.488,0.122,0,0.56,0.324,179.374
 15:03:34.814,eb:33:2e:f9:57:b5, 2085-97-08 00:226:255:2057,0.003,-0.014,1.004,-0.549,0.061,0.061,0.555,0.324,179.374
 15:03:34.814,eb:33:2e:f9:57:b5, 2085-97-09 00:227:255:2054,0.005,-0.016,1.004,-0.488,0.061,0,0.549,0.324,179.374
 15:03:34.814,eb:33:2e:f9:57:b5, 2085-97-13 00:235:255:2055,0.003,-0.012,1.002,-0.488,0.122,0.061,0.544,0.324,179.374
 15:03:34.815,eb:33:2e:f9:57:b5, 2085-97-01 00:228:255:2062,0.001,-0.012,1.006,-0.732,0.427,0.122,0.533,0.33,179.374
 15:03:34.815,eb:33:2e:f9:57:b5, 2085-97-09 00:230:255:2057,0.005,-0.014,1.006,-0.793,0.183,0.183,0.527,0.335,179.379
 15:03:34.836,eb:33:2e:f9:57:b5, 2085-97-11 00:228:255:2057,0.003,-0.014,1.003,-0.854,0.366,0.244,0.516,0.335,179.379
 15:03:34.836,eb:33:2e:f9:57:b5, 2085-97-05 00:225:255:2057,0.003,-0.014,1.005,-0.793,0.366,0.244,0.505,0.341,179.385
 15:03:34.836,eb:33:2e:f9:57:b5, 2085-97-08 00:224:255:2052,0.006,-0.016,1.002,-0.793,0.427,0.244,0.494,0.341,179.385
 15:03:34.836,eb:33:2e:f9:57:b5, 2085-97-10 00:223:255:2050,0.003,-0.017,1.001,-0.671,0.549,0.183,0.489,0.346,179.385
 15:03:34.900,eb:33:2e:f9:57:b5, 2085-97-06 00:224:255:2053,0.002,-0.016,1.002,-0.61,0.671,0.183,0.483,0.352,179.39
 15:03:34.900,eb:33:2e:f9:57:b5, 2085-97-00 00:222:255:2055,0,-0.016,1.003,-0.488,0.671,0.061,0.478,0.357,179.39
 15:03:34.900,eb:33:2e:f9:57:b5, 2085-97-04 00:221:255:2053,0.001,-0.017,1.002,-0.305,0.366,0,0.478,0.357,179.39
 15:03:34.900,eb:33:2e:f9:57:b5, 2085-97-00 00:223:255:2054,0,-0.017,1.002,-0.183,0.183,0,0.467,0.357,179.39
 15:03:34.926,eb:33:2e:f9:57:b5, 2085-97-04 00:223:255:2053,0.002,-0.017,1.001,0,-0.122,0,0.467,0.357,179.39
 15:03:34.926,eb:33:2e:f9:57:b5, 2085-97-04 00:222:255:2054,0.001,-0.016,1.002,0.061,-0.244,-0.061,0.461,0.352,179.39
 15:03:34.926,eb:33:2e:f9:57:b5, 2085-97-06 00:224:255:2054,0.003,-0.016,1.003,0.061,-0.366,0,0.461,0.352,179.39
 15:03:34.926,eb:33:2e:f9:57:b5, 2085-97-06 00:221:255:2055,0.002,-0.016,1.003,0.061,-0.427,-0.061,0.456,0.346,179.385
 15:03:34.956,eb:33:2e:f9:57:b5, 2085-97-09 00:224:255:2052,0.004,-0.017,1.002,0.183,-0.61,-0.061,0.456,0.346,179.385
 15:03:34.956,eb:33:2e:f9:57:b5, 2085-97-05 00:222:255:2054,0.002,-0.017,1.002,0.244,-0.549,-0.061,0.45,0.346,179.385
 15:03:34.956,eb:33:2e:f9:57:b5, 2085-97-05 00:222:255:2052,0.004,-0.016,1.003,0.427,-0.793,-0.122,0.45,0.346,179.385
 15:03:34.956,eb:33:2e:f9:57:b5, 2085-97-14 00:222:255:2048,0.006,-0.018,1,0.488,-0.977,-0.122,0.439,0.341,179.385
 15:03:35.017,eb:33:2e:f9:57:b5, 2085-97-09 00:221:255:2052,0.003,-0.017,1,0.61,-0.854,-0.122,0.439,0.341,179.385
 15:03:35.017,eb:33:2e:f9:57:b5, 2085-97-06 00:223:255:2052,0.004,-0.016,1.001,0.732,-0.916,-0.244,0.434,0.341,179.385
 15:03:35.017,eb:33:2e:f9:57:b5, 2085-97-07 00:226:255:2059,0.003,-0.016,1.003,0.854,-0.977,-0.244,0.434,0.341,179.385
 15:03:35.017,eb:33:2e:f9:57:b5, 2085-97-07 00:226:255:2057,0.005,-0.014,1.005,0.793,-1.099,-0.183,0.428,0.335,179.385
 15:03:35.048,eb:33:2e:f9:57:b5, 2085-97-10 00:226:255:2055,0.006,-0.015,1.003,0.793,-1.16,-0.122,0.428,0.335,179.385
 15:03:35.048,eb:33:2e:f9:57:b5, 2085-97-11 00:227:255:2054,0.005,-0.014,1.002,0.732,-1.038,-0.183,0.417,0.33,179.385
 15:03:35.048,eb:33:2e:f9:57:b5, 2085-97-11 00:225:255:2056,0.005,-0.014,1.003,0.793,-0.977,-0.122,0.417,0.33,179.385
 15:03:35.048,eb:33:2e:f9:57:b5, 2085-97-10 00:225:255:2056,0.005,-0.015,1.004,0.854,-0.916,-0.244,0.412,0.33,179.385
 15:03:35.107,eb:33:2e:f9:57:b5, 2085-97-11 00:228:255:2055,0.005,-0.015,1.004,0.854,-0.916,-0.244,0.412,0.33,179.385
 15:03:35.107,eb:33:2e:f9:57:b5, 2085-97-12 00:227:255:2054,0.006,-0.014,1.003,0.977,-0.854,-0.305,0.406,0.324,179.385
 15:03:35.107,eb:33:2e:f9:57:b5, 2085-97-12 00:226:255:2053,0.004,-0.014,1.003,0.977,-0.732,-0.366,0.406,0.324,179.385
 15:03:35.107,eb:33:2e:f9:57:b5, 2085-97-09 00:224:255:2053,0.004,-0.015,1.002,1.099,-0.793,-0.488,0.401,0.319,179.385
 15:03:35.136,eb:33:2e:f9:57:b5, 2085-97-12 00:221:255:2052,0.006,-0.016,1.001,1.282,-0.977,-0.549,0.401,0.319,179.385
 15:03:35.136,eb:33:2e:f9:57:b5, 2085-113-58 00:151:255:-4620,0.007,-0.017,1.001,1.526,-1.099,-0.854,0.39,0.319,179.379
 15:03:35.136,eb:33:2e:f9:57:b5, 2085-97-09 00:220:255:2047,0.005,-0.017,1,1.648,-1.099,-0.977,0.39,0.319,179.379
 15:03:35.136,eb:33:2e:f9:57:b5, 2085-97-12 00:227:255:2049,0.004,-0.017,1,2.014,-1.221,-1.16,0.385,0.313,179.379
 15:03:35.167,eb:33:2e:f9:57:b5, 2085-97-07 00:234:255:2059,0.003,-0.012,1.003,2.136,-1.465,-1.038,0.385,0.313,179.379
 15:03:35.167,eb:33:2e:f9:57:b5, 2085-97-12 00:234:255:2058,0.009,-0.012,1.006,2.014,-1.892,-1.038,0.379,0.308,179.379
 15:03:35.167,eb:33:2e:f9:57:b5, 2085-97-20 00:237:255:2054,0.01,-0.011,1.003,1.892,-1.831,-0.977,0.396,0.291,179.368
 15:03:35.167,eb:33:2e:f9:57:b5, 2085-97-20 00:237:255:2056,0.01,-0.009,1.003,1.709,-1.465,-0.977,0.412,0.275,179.363
 15:03:35.197,eb:33:2e:f9:57:b5, 2085-97-20 00:239:255:2057,0.01,-0.009,1.004,1.587,-1.038,-0.854,0.428,0.264,179.352
 15:03:35.197,eb:33:2e:f9:57:b5, 2085-97-23 00:241:255:2057,0.011,-0.008,1.004,1.343,-0.732,-0.732,0.439,0.253,179.341
 15:03:35.197,eb:33:2e:f9:57:b5, 2085-97-18 00:237:255:2060,0.007,-0.008,1.004,1.16,-0.244,-0.549,0.45,0.247,179.335
 15:03:35.197,eb:33:2e:f9:57:b5, 2085-97-12 00:236:255:2062,0.006,-0.009,1.006,0.916,-0.183,-0.488,0.461,0.247,179.33
 15:03:35.257,eb:33:2e:f9:57:b5, 2085-97-16 00:233:255:2055,0.008,-0.01,1.005,0.854,-0.244,-0.488,0.467,0.242,179.324
 15:03:35.257,eb:33:2e:f9:57:b5, 2085-97-19 00:235:255:2056,0.008,-0.01,1.003,0.793,-0.122,-0.427,0.478,0.242,179.319
 15:03:35.257,eb:33:2e:f9:57:b5, 2085-97-13 00:237:255:2057,0.007,-0.01,1.004,0.854,0,-0.427,0.483,0.236,179.313
 15:03:35.257,eb:33:2e:f9:57:b5, 2085-97-16 00:235:255:2057,0.008,-0.01,1.004,0.732,0,-0.427,0.489,0.236,179.308
 15:03:35.316,eb:33:2e:f9:57:b5, 2085-97-14 00:237:255:2058,0.007,-0.01,1.004,0.793,-0.061,-0.427,0.5,0.236,179.302
 15:03:35.316,eb:33:2e:f9:57:b5, 2085-97-15 00:236:255:2056,0.006,-0.009,1.004,0.671,-0.183,-0.488,0.505,0.236,179.297
 15:03:35.316,eb:33:2e:f9:57:b5, 2085-97-15 00:234:255:2056,0.007,-0.01,1.003,0.793,-0.305,-0.427,0.511,0.231,179.291
 15:03:35.316,eb:33:2e:f9:57:b5, 2085-97-15 00:234:255:2053,0.008,-0.011,1.003,0.854,-0.366,-0.488,0.516,0.231,179.286
 15:03:35.346,eb:33:2e:f9:57:b5, 2085-97-19 00:234:255:2051,0.009,-0.01,1.002,0.977,-0.366,-0.549,0.527,0.225,179.28
 15:03:35.346,eb:33:2e:f9:57:b5, 2085-97-19 00:236:255:2048,0.01,-0.011,1,1.038,-0.305,-0.61,0.538,0.22,179.275
 15:03:35.346,eb:33:2e:f9:57:b5, 2085-97-17 00:237:255:2052,0.007,-0.009,1.001,1.099,-0.305,-0.671,0.544,0.214,179.269
 15:03:35.346,eb:33:2e:f9:57:b5, 2085-97-15 00:238:255:2056,0.007,-0.009,1.003,1.038,-0.305,-0.61,0.555,0.214,179.258
 15:03:35.378,eb:33:2e:f9:57:b5, 2085-97-16 00:240:255:2057,0.01,-0.009,1.005,1.038,-0.427,-0.549,0.566,0.209,179.253
 15:03:35.378,eb:33:2e:f9:57:b5, 2085-97-23 00:240:255:2053,0.01,-0.008,1.003,1.038,-0.427,-0.488,0.577,0.203,179.247
 15:03:35.378,eb:33:2e:f9:57:b5, 2085-97-23 00:240:255:2053,0.012,-0.009,1.002,1.038,-0.122,-0.488,0.577,0.203,179.247
 15:03:35.378,eb:33:2e:f9:57:b5, 2085-97-21 00:240:255:2053,0.01,-0.008,1.002,0.977,0.122,-0.366,0.56,0.198,179.247
 15:03:35.407,eb:33:2e:f9:57:b5, 2085-97-19 00:242:255:2057,0.009,-0.008,1.004,0.977,0.244,-0.305,0.56,0.198,179.247
 15:03:35.407,eb:33:2e:f9:57:b5, 2085-97-18 00:241:255:2058,0.008,-0.008,1.004,0.977,0.366,-0.183,0.549,0.187,179.242
 15:03:35.407,eb:33:2e:f9:57:b5, 2085-97-18 00:241:255:2057,0.008,-0.007,1.005,0.916,0.366,-0.183,0.549,0.187,179.242
 15:03:35.407,eb:33:2e:f9:57:b5, 2085-97-17 00:242:255:2058,0.009,-0.007,1.004,0.793,0.366,-0.183,0.538,0.181,179.242
 15:03:35.467,eb:33:2e:f9:57:b5, 2085-97-21 00:240:255:2053,0.011,-0.007,1.003,0.793,0.427,-0.183,0.538,0.181,179.242
 15:03:35.467,eb:33:2e:f9:57:b5, 2085-97-19 00:241:255:2051,0.009,-0.008,1.001,0.854,0.549,-0.122,0.522,0.17,179.242
 15:03:35.467,eb:33:2e:f9:57:b5, 2085-97-19 00:241:255:2052,0.01,-0.007,1.001,0.916,0.793,-0.122,0.522,0.17,179.242
 15:03:35.467,eb:33:2e:f9:57:b5, 2085-97-16 00:241:255:2054,0.007,-0.008,1.002,0.916,0.916,-0.122,0.516,0.165,179.242
 15:03:35.496,eb:33:2e:f9:57:b5, 2085-97-14 00:242:255:2054,0.007,-0.007,1.004,0.977,0.916,-0.183,0.516,0.165,179.242
 15:03:35.496,eb:33:2e:f9:57:b5, 2085-97-14 00:241:255:2053,0.007,-0.007,1.003,0.977,0.732,-0.244,0.505,0.159,179.242
 15:03:35.496,eb:33:2e:f9:57:b5, 2085-97-17 00:242:255:2052,0.009,-0.007,1.002,1.038,0.732,-0.366,0.505,0.159,179.242
 15:03:35.496,eb:33:2e:f9:57:b5, 2085-97-19 00:242:255:2050,0.006,-0.007,1.001,1.221,0.916,-0.366,0.494,0.154,179.242
 15:03:35.527,eb:33:2e:f9:57:b5, 2085-97-11 00:242:255:2058,0.005,-0.007,1.004,1.282,1.038,-0.366,0.494,0.154,179.242
 15:03:35.527,eb:33:2e:f9:57:b5, 2085-97-12 00:245:255:2058,0.005,-0.005,1.006,1.343,0.671,-0.305,0.483,0.148,179.236
 15:03:35.527,eb:33:2e:f9:57:b5, 2085-97-08 00:246:255:2060,0.005,-0.005,1.006,1.221,0.488,-0.244,0.483,0.148,179.236
 15:03:35.527,eb:33:2e:f9:57:b5, 2085-97-16 00:248:255:2057,0.007,-0.004,1.005,1.099,0.244,-0.244,0.478,0.143,179.236
 15:03:35.557,eb:33:2e:f9:57:b5, 2085-97-13 00:249:255:2058,0.006,-0.003,1.005,1.038,0.366,-0.244,0.478,0.143,179.236
 15:03:35.557,eb:33:2e:f9:57:b5, 2085-97-14 00:246:255:2053,0.008,-0.004,1.004,0.916,0.427,-0.183,0.472,0.137,179.236
 15:03:35.557,eb:33:2e:f9:57:b5, 2085-97-16 00:247:255:2053,0.007,-0.006,1.001,0.916,0.671,-0.122,0.472,0.137,179.236
 15:03:35.557,eb:33:2e:f9:57:b5, 2085-97-15 00:247:255:2054,0.007,-0.005,1.003,0.854,0.732,-0.183,0.461,0.132,179.236
 15:03:35.616,eb:33:2e:f9:57:b5, 2085-97-11 00:245:255:2055,0.006,-0.005,1.003,0.793,0.793,-0.122,0.461,0.132,179.236
 15:03:35.616,eb:33:2e:f9:57:b5, 2085-97-16 00:243:255:2052,0.008,-0.005,1.002,0.854,0.916,-0.183,0.456,0.126,179.236
 15:03:35.616,eb:33:2e:f9:57:b5, 2085-97-14 00:243:255:2049,0.011,-0.005,1.003,0.977,1.099,-0.061,0.456,0.126,179.236
 15:03:35.616,eb:33:2e:f9:57:b5, 2085-97-12 00:246:255:2051,0.005,-0.006,0.999,1.16,1.465,-0.122,0.45,0.126,179.236
 15:03:35.647,eb:33:2e:f9:57:b5, 2085-97-12 00:249:255:2053,0.007,-0.003,1.003,1.221,1.526,-0.122,0.45,0.126,179.236
 15:03:35.647,eb:33:2e:f9:57:b5, 2085-97-11 00:249:255:2058,0.003,-0.004,1.003,1.16,1.587,-0.244,0.439,0.121,179.236
 15:03:35.647,eb:33:2e:f9:57:b5, 2085-97-08 00:249:255:2059,0.004,-0.003,1.005,1.16,1.587,-0.183,0.439,0.121,179.236
 15:03:35.647,eb:33:2e:f9:57:b5, 2085-97-12 00:249:255:2053,0.007,-0.003,1.004,1.038,1.526,-0.244,0.434,0.115,179.236
 15:03:35.707,eb:33:2e:f9:57:b5, 2085-97-11 00:246:255:2051,0.002,-0.004,1,1.099,1.77,-0.305,0.434,0.115,179.236
 15:03:35.707,eb:33:2e:f9:57:b5, 2085-97-05 00:250:255:2056,0.002,-0.003,1.003,1.221,1.77,-0.366,0.428,0.11,179.231
 15:03:35.707,eb:33:2e:f9:57:b5, 2085-97-04 00:249:255:2057,0,-0.004,1.003,1.16,1.587,-0.366,0.428,0.11,179.231
 15:03:35.707,eb:33:2e:f9:57:b5, 2085-97-255 255:251:255:2060,0,-0.003,1.006,1.221,1.282,-0.427,0.423,0.11,179.231
 15:03:35.796,eb:33:2e:f9:57:b5, 2085-97-255 255:253:255:2064,0,-0.003,1.007,1.221,0.793,-0.305,0.423,0.11,179.231
 15:03:35.796,eb:33:2e:f9:57:b5, 2085-97-00 00:255:255:2061,0.001,0,1.008,1.099,0.183,-0.244,0.417,0.104,179.231
 15:03:35.796,eb:33:2e:f9:57:b5, 2085-97-09 00:255:255:2056,0.005,-0.001,1.004,0.916,0,-0.122,0.417,0.104,179.231
 15:03:35.796,eb:33:2e:f9:57:b5, 2085-97-03 00:01:00:2062,0,0,1.004,0.732,0.305,-0.061,0.412,0.099,179.231
 15:03:35.798,eb:33:2e:f9:57:b5, 2085-97-06 00:252:255:2054,0.002,0,1.005,0.488,0.244,-0.122,0.412,0.099,179.231
 15:03:35.798,eb:33:2e:f9:57:b5, 2085-97-06 00:00:00:2059,0.002,-0.001,1.004,0.488,0.183,0,0.406,0.099,179.231
 15:03:35.798,eb:33:2e:f9:57:b5, 2085-97-255 255:252:255:2062,0,0,1.006,0.366,0.183,0,0.406,0.099,179.231
 15:03:35.798,eb:33:2e:f9:57:b5, 2085-97-04 00:252:255:2057,0.003,-0.003,1.005,0.427,-0.122,0.061,0.401,0.093,179.231
 15:03:35.800,eb:33:2e:f9:57:b5, 2085-97-09 00:252:255:2049,0.004,0,1.003,0.427,-0.305,0.122,0.401,0.093,179.231
 15:03:35.800,eb:33:2e:f9:57:b5, 2085-97-06 00:252:255:2055,0.002,-0.002,1.002,0.427,-0.061,0.122,0.396,0.088,179.231
 15:03:35.800,eb:33:2e:f9:57:b5, 2085-97-03 00:254:255:2059,0.002,-0.001,1.005,0.427,-0.122,0.122,0.396,0.088,179.231
 15:03:35.800,eb:33:2e:f9:57:b5, 2085-97-05 00:253:255:2059,0.003,-0.001,1.005,0.427,-0.183,0.122,0.39,0.088,179.231
 15:03:35.858,eb:33:2e:f9:57:b5, 2085-97-08 00:255:255:2056,0.005,-0.002,1.005,0.488,-0.183,0.183,0.39,0.088,179.231
 15:03:35.858,eb:33:2e:f9:57:b5, 2085-97-10 00:253:255:2048,0.005,-0.001,1.002,0.488,0,0.305,0.39,0.082,179.231
 15:03:35.858,eb:33:2e:f9:57:b5, 2085-97-13 00:254:255:2047,0.006,-0.001,1,0.488,0.183,0.244,0.39,0.082,179.231
 15:03:35.858,eb:33:2e:f9:57:b5, 2085-97-11 00:253:255:2049,0.003,0,1,0.427,0.488,0.183,0.385,0.082,179.231
 15:03:35.887,eb:33:2e:f9:57:b5, 2085-97-06 00:252:255:2052,0.003,-0.002,1.002,0.488,0.671,0.183,0.385,0.082,179.231
 15:03:35.887,eb:33:2e:f9:57:b5, 2085-97-11 00:253:255:2048,0.005,-0.001,1.002,0.488,0.671,0.122,0.379,0.077,179.231
 15:03:35.887,eb:33:2e:f9:57:b5, 2085-97-08 00:253:255:2051,0.004,-0.001,1,0.549,0.916,0.122,0.379,0.077,179.231
 15:03:35.887,eb:33:2e:f9:57:b5, 2085-113-81 00:219:00:-049,0.003,0,1.002,0.61,1.099,0.183,0.374,0.077,179.231
 15:03:35.888,eb:33:2e:f9:57:b5, 2085-97-03 00:254:255:2057,0.002,-0.001,1.003,0.671,1.16,0.122,0.374,0.077,179.231
 15:03:35.948,eb:33:2e:f9:57:b5, 2085-97-00 00:255:255:2057,0,0,1.004,0.61,1.038,0.122,0.374,0.077,179.231
 15:03:35.948,eb:33:2e:f9:57:b5, 2085-97-02 00:254:255:2055,0.002,-0.001,1.005,0.549,0.793,0.061,0.374,0.071,179.231
 15:03:35.948,eb:33:2e:f9:57:b5, 2085-97-06 00:253:255:2049,0.006,-0.001,1.001,0.671,0.793,0,0.374,0.071,179.231
 15:03:35.948,eb:33:2e:f9:57:b5, 2085-97-13 00:00:00:2045,0.005,-0.001,0.999,0.793,1.099,0,0.368,0.071,179.225
 15:03:35.977,eb:33:2e:f9:57:b5, 2085-97-10 00:254:255:2046,0.003,0,1,0.732,1.526,0,0.368,0.071,179.225
 15:03:35.977,eb:33:2e:f9:57:b5, 2085-97-08 00:254:255:2045,0.003,-0.001,0.999,0.793,1.892,-0.061,0.363,0.066,179.225
 15:03:35.977,eb:33:2e:f9:57:b5, 2085-97-06 00:02:00:2050,0.003,0,1,0.732,2.075,-0.183,0.363,0.066,179.225
 15:03:35.977,eb:33:2e:f9:57:b5, 2085-97-05 00:254:255:2049,0.001,-0.001,1,0.671,2.319,-0.305,0.357,0.066,179.225
 15:03:36.006,eb:33:2e:f9:57:b5, 2085-97-00 00:02:00:2057,-0.001,-0.001,1.003,0.793,2.441,-0.366,0.357,0.066,179.225
 15:03:36.006,eb:33:2e:f9:57:b5, 2085-97-01 00:254:255:2050,0.002,0,1.003,0.732,2.38,-0.366,0.357,0.06,179.225
 15:03:36.006,eb:33:2e:f9:57:b5, 2085-97-06 00:00:00:2048,0.001,-0.001,1.001,0.854,2.563,-0.427,0.357,0.06,179.225
 15:03:36.006,eb:33:2e:f9:57:b5, 2085-97-250 255:04:00:2060,-0.003,0,1.002,0.916,3.052,-0.366,0.363,0.082,179.225
 15:03:36.097,eb:33:2e:f9:57:b5, 2085-97-248 255:04:00:2061,-0.006,0.002,1.006,0.793,2.991,-0.427,0.368,0.11,179.22
 15:03:36.097,eb:33:2e:f9:57:b5, 2085-97-250 255:03:00:2063,-0.004,0.001,1.01,0.61,2.563,-0.427,0.374,0.137,179.214
 15:03:36.097,eb:33:2e:f9:57:b5, 2085-97-242 255:01:00:2061,-0.005,0.002,1.007,0.549,2.441,-0.427,0.379,0.165,179.209
 15:03:36.097,eb:33:2e:f9:57:b5, 2085-97-00 00:255:255:2042,0.004,0,1.003,0.427,2.136,-0.488,0.385,0.187,179.203
 15:03:36.099,eb:33:2e:f9:57:b5, 2085-97-00 00:255:255:2042,-0.004,-0.003,0.994,0.732,2.747,-0.549,0.39,0.214,179.198
 15:03:36.099,eb:33:2e:f9:57:b5, 2085-97-245 255:10:00:2058,-0.005,0.002,1.002,0.854,2.93,-0.61,0.396,0.242,179.193
 15:03:36.099,eb:33:2e:f9:57:b5, 2085-97-241 255:04:00:2064,-0.006,0.004,1.006,0.549,2.991,-0.61,0.401,0.269,179.187
 15:03:36.099,eb:33:2e:f9:57:b5, 2085-97-239 255:05:00:2067,-0.009,0.002,1.008,0.488,2.93,-0.488,0.406,0.302,179.182
 15:03:36.128,eb:33:2e:f9:57:b5, 2085-97-236 255:04:00:2067,-0.008,0.003,1.01,0.366,2.747,-0.366,0.412,0.33,179.176
 15:03:36.128,eb:33:2e:f9:57:b5, 2085-97-246 255:00:00:2059,-0.006,0,1.008,0.366,2.502,-0.244,0.412,0.357,179.171
 15:03:36.128,eb:33:2e:f9:57:b5, 2085-97-241 255:00:00:2056,-0.007,-0.002,1.004,0.61,2.686,-0.183,0.417,0.379,179.171
 15:03:36.128,eb:33:2e:f9:57:b5, 2085-97-237 255:03:00:2057,-0.009,0.003,1.003,0.671,2.686,-0.183,0.423,0.406,179.165
 15:03:36.219,eb:33:2e:f9:57:b5, 2085-97-238 255:08:00:2057,-0.008,0.002,1.004,0.61,2.502,-0.244,0.428,0.434,179.165
 15:03:36.219,eb:33:2e:f9:57:b5, 2085-97-235 255:07:00:2062,-0.011,0.004,1.005,0.305,2.38,-0.183,0.434,0.456,179.16
 15:03:36.219,eb:33:2e:f9:57:b5, 2085-97-237 255:03:00:2056,-0.007,0.003,1.006,0.122,2.136,-0.122,0.434,0.478,179.16
 15:03:36.219,eb:33:2e:f9:57:b5, 2085-97-249 255:255:255:2038,-0.002,0,1,0.244,2.014,-0.061,0.434,0.5,179.16
 15:03:36.277,eb:33:2e:f9:57:b5, 2085-97-248 255:04:00:2042,-0.006,0,0.996,0.366,2.563,-0.183,0.439,0.522,179.16
 15:03:36.277,eb:33:2e:f9:57:b5, 2085-97-241 255:05:00:2049,-0.008,0.002,0.999,0.366,3.052,-0.061,0.439,0.549,179.154
 15:03:36.277,eb:33:2e:f9:57:b5, 2085-97-240 255:07:00:2051,-0.01,0.002,1.001,0.427,3.113,-0.061,0.445,0.582,179.154
 15:03:36.277,eb:33:2e:f9:57:b5, 2085-97-231 255:05:00:2058,-0.012,0.004,1.003,0.305,3.235,-0.061,0.445,0.615,179.154
 15:03:36.279,eb:33:2e:f9:57:b5, 2085-97-239 255:00:00:2051,-0.006,0,1.004,0.305,3.052,-0.061,0.45,0.648,179.149
 15:03:36.279,eb:33:2e:f9:57:b5, 2085-97-240 255:05:00:2053,-0.01,0.001,1,0.549,3.54,0.061,0.45,0.681,179.149
 15:03:36.279,eb:33:2e:f9:57:b5, 2085-97-228 255:02:00:2061,-0.015,0.001,1.006,0.61,3.906,0.183,0.456,0.714,179.154
 15:03:36.279,eb:33:2e:f9:57:b5, 2085-97-230 255:13:00:2060,-0.013,0.001,1.007,0.61,3.784,0.244,0.461,0.753,179.154
 15:03:36.340,eb:33:2e:f9:57:b5, 2085-97-226 255:07:00:2061,-0.014,0.006,1.006,0.305,3.906,0.244,0.467,0.791,179.16
 15:03:36.340,eb:33:2e:f9:57:b5, 2085-97-227 255:05:00:2054,-0.018,0.002,1.004,0.122,3.845,0.244,0.467,0.829,179.16
 15:03:36.340,eb:33:2e:f9:57:b5, 2085-97-217 255:03:00:2058,-0.018,0.003,1.005,0.122,3.662,0.427,0.467,0.868,179.165
 15:03:36.340,eb:33:2e:f9:57:b5, 2085-97-220 255:255:255:2051,-0.017,0,1.002,0.305,3.296,0.244,0.467,0.901,179.165
 15:03:36.340,eb:33:2e:f9:57:b5, 2085-97-224 255:255:255:2043,-0.016,-0.001,1,0.61,3.052,0.366,0.472,0.934,179.171
 15:03:36.340,eb:33:2e:f9:57:b5, 2085-97-218 255:05:00:2054,-0.021,0.001,0.999,0.854,3.052,0.244,0.478,0.967,179.176
 15:03:36.340,eb:33:2e:f9:57:b5, 2085-97-212 255:10:00:2065,-0.021,0.004,1.006,0.793,2.747,0.122,0.489,0.994,179.176
 15:03:36.340,eb:33:2e:f9:57:b5, 2085-97-211 255:11:00:2065,-0.022,0.005,1.009,0.549,2.38,0.122,0.494,1.022,179.176
 15:03:36.366,eb:33:2e:f9:57:b5, 2085-97-210 255:14:00:2069,-0.021,0.006,1.01,0.305,1.831,0.122,0.5,1.044,179.176
 15:03:36.366,eb:33:2e:f9:57:b5, 2085-97-223 255:05:00:2051,-0.015,0.005,1.007,0,1.465,0.061,0.5,1.055,179.176
 15:03:36.366,eb:33:2e:f9:57:b5, 2085-97-224 255:07:00:2049,-0.021,0.002,1,0,1.77,0.122,0.494,1.071,179.182
 15:03:36.366,eb:33:2e:f9:57:b5, 2085-97-207 255:05:00:2067,-0.026,0.003,1.006,-0.061,1.77,0.061,0.494,1.093,179.182
 15:03:36.427,eb:33:2e:f9:57:b5, 2085-97-206 255:03:00:2063,-0.022,0.001,1.008,-0.122,1.099,0,0.494,1.104,179.182
 15:03:36.427,eb:33:2e:f9:57:b5, 2085-97-208 255:04:00:2061,-0.024,0.003,1.006,-0.183,0.488,0,0.489,1.11,179.182
 15:03:36.427,eb:33:2e:f9:57:b5, 2085-97-205 255:07:00:2062,-0.024,0.003,1.006,-0.305,0,0,0.483,1.115,179.176
 15:03:36.427,eb:33:2e:f9:57:b5, 2085-97-210 255:06:00:2055,-0.02,0.003,1.006,-0.366,-0.61,-0.122,0.478,1.11,179.176
 15:03:36.457,eb:33:2e:f9:57:b5, 2085-97-219 255:255:255:2045,-0.017,0.001,1.001,-0.244,-0.854,-0.183,0.472,1.104,179.176
 15:03:36.457,eb:33:2e:f9:57:b5, 2085-97-216 255:04:00:2056,-0.021,0,1,-0.061,-0.671,-0.183,0.472,1.093,179.171
 15:03:36.457,eb:33:2e:f9:57:b5, 2085-97-211 255:05:00:2063,-0.021,0.003,1.006,-0.061,-0.793,-0.183,0.467,1.088,179.171
 15:03:36.465,eb:33:2e:f9:57:b5, 2085-97-218 255:08:00:2060,-0.019,0.003,1.006,-0.244,-0.854,-0.183,0.467,1.077,179.165
 15:03:36.488,eb:33:2e:f9:57:b5, 2085-97-215 255:10:00:2063,-0.021,0.004,1.006,-0.305,-0.916,-0.122,0.461,1.066,179.165
 15:03:36.488,eb:33:2e:f9:57:b5, 2085-97-211 255:04:00:2066,-0.023,0.003,1.009,-0.488,-1.038,0,0.456,1.055,179.165
 15:03:36.488,eb:33:2e:f9:57:b5, 2085-97-210 255:04:00:2064,-0.02,0.002,1.009,-0.488,-1.343,0,0.45,1.044,179.16
 15:03:36.488,eb:33:2e:f9:57:b5, 2085-97-217 255:04:00:2059,-0.019,0.002,1.006,-0.549,-1.77,0,0.445,1.027,179.16
 15:03:36.547,eb:33:2e:f9:57:b5, 2085-97-217 255:02:00:2053,-0.018,0.001,1.003,-0.549,-1.892,0.122,0.434,1.011,179.165
 15:03:36.547,eb:33:2e:f9:57:b5, 2085-97-228 255:255:255:2045,-0.012,0,1.001,-0.366,-2.014,0.061,0.428,0.989,179.165
 15:03:36.547,eb:33:2e:f9:57:b5, 2085-97-230 255:254:255:2041,-0.015,-0.001,0.996,-0.061,-1.709,0.244,0.428,0.972,179.165
 15:03:36.547,eb:33:2e:f9:57:b5, 2085-97-225 255:04:00:2050,-0.016,0,1,0.061,-1.465,0.244,0.412,0.967,179.165
 15:03:36.576,eb:33:2e:f9:57:b5, 2085-97-224 255:02:00:2052,-0.017,0.002,1.001,0.061,-1.465,0.122,0.412,0.967,179.165
 15:03:36.576,eb:33:2e:f9:57:b5, 2085-97-224 255:06:00:2048,-0.013,0.002,1.003,0,-1.465,0.122,0.406,0.961,179.165
 15:03:36.576,eb:33:2e:f9:57:b5, 2085-97-232 255:02:00:2046,-0.013,0.001,0.999,-0.061,-1.16,0.122,0.406,0.961,179.165
 15:03:36.576,eb:33:2e:f9:57:b5, 2085-97-224 255:05:00:2050,-0.016,0.001,1,-0.061,-0.854,0.061,0.396,0.956,179.16
 15:03:36.637,eb:33:2e:f9:57:b5, 2085-97-222 255:03:00:2053,-0.017,0.002,1.002,-0.061,-0.854,-0.061,0.396,0.956,179.165
 15:03:36.637,eb:33:2e:f9:57:b5, 2085-97-218 255:01:00:2054,-0.02,0.001,1.002,-0.061,-1.038,-0.061,0.39,0.956,179.16
 15:03:36.637,eb:33:2e:f9:57:b5, 2085-97-217 255:01:00:2057,-0.019,0.001,1.004,0,-1.404,0,0.39,0.956,179.16
 15:03:36.637,eb:33:2e:f9:57:b5, 2085-97-221 255:02:00:2056,-0.016,0.001,1.005,-0.061,-1.831,-0.183,0.379,0.95,179.16
 15:03:36.667,eb:33:2e:f9:57:b5, 2085-97-225 255:00:00:2053,-0.012,0,1.003,0,-2.075,-0.183,0.379,0.95,179.16
 15:03:36.667,eb:33:2e:f9:57:b5, 2085-97-230 255:00:00:2052,-0.013,0.001,1.001,0.061,-2.075,-0.183,0.374,0.95,179.16
 15:03:36.667,eb:33:2e:f9:57:b5, 2085-97-234 255:04:00:2051,-0.008,0,1.003,0.183,-1.892,-0.122,0.374,0.95,179.16
 15:03:36.667,eb:33:2e:f9:57:b5, 2085-97-236 255:02:00:2049,-0.011,0.002,1,0.305,-1.343,0,0.368,0.945,179.16
 15:03:36.698,eb:33:2e:f9:57:b5, 2085-97-233 255:03:00:2053,-0.013,0.001,1.002,0.427,-0.977,0.061,0.368,0.945,179.16
 15:03:36.698,eb:33:2e:f9:57:b5, 2085-97-228 255:05:00:2056,-0.011,0.002,1.003,0.366,-0.793,0.061,0.368,0.945,179.16
 15:03:36.698,eb:33:2e:f9:57:b5, 2085-97-232 255:01:00:2053,-0.011,0.002,1.002,0.366,-0.61,0.183,0.368,0.945,179.16
 15:03:36.698,eb:33:2e:f9:57:b5, 2085-113-58 00:211:255:-4470,-0.008,0,1,0.427,-0.549,0.122,0.363,0.939,179.16
 15:03:36.727,eb:33:2e:f9:57:b5, 2085-97-238 255:00:00:2041,-0.01,0.001,0.998,0.488,-0.305,0.183,0.363,0.939,179.16
 15:03:36.727,eb:33:2e:f9:57:b5, 2085-97-236 255:05:00:2045,-0.011,0,0.997,0.671,-0.061,0.061,0.357,0.939,179.16
 15:03:36.727,eb:33:2e:f9:57:b5, 2085-97-232 255:06:00:2052,-0.012,0.003,1,0.671,0.183,0,0.357,0.939,179.16
 15:03:36.727,eb:33:2e:f9:57:b5, 2085-97-227 255:05:00:2058,-0.014,0.002,1.003,0.549,0.244,0,0.357,0.939,179.16
 15:03:36.788,eb:33:2e:f9:57:b5, 2085-97-227 255:06:00:2058,-0.012,0.003,1.006,0.488,0.122,0,0.357,0.939,179.16
 15:03:36.788,eb:33:2e:f9:57:b5, 2085-97-238 255:03:00:2047,-0.004,0.002,1.003,0.244,0.061,0.061,0.352,0.934,179.16
 15:03:36.788,eb:33:2e:f9:57:b5, 2085-97-241 255:00:00:2044,-0.01,0.002,0.996,0.366,0.61,0.061,0.352,0.934,179.16
 15:03:36.788,eb:33:2e:f9:57:b5, 2085-97-231 255:04:00:2053,-0.016,0.001,1,0.549,1.099,0.122,0.346,0.934,179.16
 15:03:36.816,eb:33:2e:f9:57:b5, 2085-97-223 255:05:00:2059,-0.017,0.001,1.005,0.488,1.16,0.183,0.346,0.934,179.16
 15:03:36.816,eb:33:2e:f9:57:b5, 2085-97-215 255:08:00:2071,-0.022,0.002,1.006,0.427,0.793,0.183,0.346,0.934,179.16
 15:03:36.816,eb:33:2e:f9:57:b5, 2085-97-218 255:04:00:2063,-0.014,0.005,1.01,0.244,0.122,0.061,0.346,0.934,179.16
 15:03:36.816,eb:33:2e:f9:57:b5, 2085-97-235 255:00:00:2044,-0.008,0.001,1.003,0.366,-0.061,0.183,0.341,0.928,179.16
 15:03:36.847,eb:33:2e:f9:57:b5, 2085-97-242 255:06:00:2045,-0.012,0,0.996,0.549,0.305,0.244,0.341,0.928,179.16
