Time,Device name,Chip Time(),Acceleration X(g),Acceleration Y(g),Acceleration Z(g),Angular velocity X(°/s),Angular velocity Y(°/s),Angular velocity Z(°/s),Angle X(°),Angle Y(°),Angle Z(°)
 15:07:16.069,eb:33:2e:f9:57:b5, 2085-97-207 252:105:255:3236,-0.458,-0.034,1.281,-63.477,70.618,26.062,-2.285,1.016,167.13
 15:07:16.069,eb:33:2e:f9:57:b5, 2085-97-254 254:184:01:3970,-0.325,0.001,1.821,-80.017,43.579,28.198,-2.977,1.599,167.393
 15:07:16.069,eb:33:2e:f9:57:b5, 2085-97-168 254:231:02:4433,0.125,0.384,2.521,-107.239,7.324,47.363,-3.922,1.939,167.728
 15:07:16.069,eb:33:2e:f9:57:b5, 2085-97-196 01:149:02:4460,0.209,0.36,2.072,-155.151,-5.005,57.8,-5.219,1.917,168.289
 15:07:16.159,eb:33:2e:f9:57:b5, 2085-97-125 01:172:05:5657,0.061,0.598,2.898,-205.078,-6.104,57.983,-7.031,2.005,168.86
 15:07:16.159,eb:33:2e:f9:57:b5, 2085-97-218 253:231:06:6061,-0.488,0.738,2.67,-263.916,-1.038,56.641,-9.377,2.016,169.475
 15:07:16.159,eb:33:2e:f9:57:b5, 2085-97-45 249:87:08:7184,-1.116,0.805,3.172,-338.074,4.7,28.564,-12.393,2.109,169.92
 15:07:16.159,eb:33:2e:f9:57:b5, 2085-97-84 245:108:10:7675,-1.495,1.019,3.75,-428.65,-18.555,-5.31,-16.265,2.098,170.057
 15:07:16.161,eb:33:2e:f9:57:b5, 2085-97-107 243:252:12:8284,-1.328,1.354,3.684,-525.574,-58.655,-46.448,-21.083,1.659,169.953
 15:07:16.161,eb:33:2e:f9:57:b5, 2085-97-152 248:51:14:11326,-0.518,1.84,4.591,-628.479,-117.126,-76.904,-26.911,0.577,169.722
 15:07:16.161,eb:33:2e:f9:57:b5, 2085-97-108 255:18:10:11794,-0.156,1.936,5.953,-710.083,-200.317,-76.538,-33.679,-1.252,169.92
 15:07:16.161,eb:33:2e:f9:57:b5, 2085-97-91 251:157:250:12125,-0.229,0.047,5.977,-685.547,-270.142,-78.003,-40.787,-3.494,170.684
 15:07:16.188,eb:33:2e:f9:57:b5, 2085-97-154 249:147:247:13599,-1.282,-1.079,5.763,-629.639,-394.348,-40.405,-47.401,-6.394,172.733
 15:07:16.188,eb:33:2e:f9:57:b5, 2085-97-42 248:242:03:9331,0.013,1.123,6.635,-648.56,-510.803,78.491,-54.322,-9.294,176.325
 15:07:16.188,eb:33:2e:f9:57:b5, 2085-97-63 247:100:244:7540,-2.537,-2.065,1.465,-476.624,-369.263,195.984,-61.029,-10.486,-178.737
 15:07:16.188,eb:33:2e:f9:57:b5, 2085-97-83 228:25:250:12049,-3.631,-1.27,5.184,-385.071,-208.313,130.493,-65.616,-10.091,-175.479
 15:07:16.218,eb:33:2e:f9:57:b5, 2085-97-207 227:232:06:9307,-3.311,0.018,5.312,-475.525,-57.922,-58.716,-70.153,-10.316,-174.018
 15:07:16.218,eb:33:2e:f9:57:b5, 2085-97-224 230:195:21:7087,-2.975,1.851,4.04,-479.248,94.788,-243.286,-74.894,-11.794,-174.869
 15:07:16.218,eb:33:2e:f9:57:b5, 2085-97-201 233:11:30:6595,-2.637,3.382,3.086,-309.875,137.268,-320.923,-78.415,-14.392,-176.726
 15:07:16.218,eb:33:2e:f9:57:b5, 2085-97-96 237:99:32:7384,-2.15,3.91,3.553,-134.888,120.972,-329.773,-79.92,-17.358,-178.704
 15:07:16.277,eb:33:2e:f9:57:b5, 2085-97-40 240:123:33:6837,-1.746,4.192,3.602,-43.152,105.469,-315.186,-80.134,-20.352,179.599
 15:07:16.277,eb:33:2e:f9:57:b5, 2085-97-229 243:21:33:5015,-1.335,4.147,2.895,6.531,113.831,-282.471,-79.623,-23.088,177.907
 15:07:16.277,eb:33:2e:f9:57:b5, 2085-97-98 247:136:33:3979,-0.772,4.125,2.163,61.829,152.283,-231.75,-78.459,-25.351,175.995
 15:07:16.277,eb:33:2e:f9:57:b5, 2085-97-53 251:210:36:4059,-0.573,4.389,1.915,134.399,198.181,-160.583,-76.349,-26.834,173.573
 15:07:16.307,eb:33:2e:f9:57:b5, 2085-97-04 251:79:36:3318,-0.66,4.669,1.916,227.112,170.715,-65.43,-73.433,-27.4,171.249
 15:07:16.307,eb:33:2e:f9:57:b5, 2085-97-234 250:101:32:1628,-0.71,4.28,1.186,337.158,117.981,24.414,-69.813,-27.076,169.722
 15:07:16.307,eb:33:2e:f9:57:b5, 2085-97-166 251:221:26:970,-0.433,3.753,0.667,421.021,137.024,70.251,-65.479,-26.115,168.75
 15:07:16.307,eb:33:2e:f9:57:b5, 2085-97-245 252:218:23:1094,-0.419,3.102,0.402,472.29,223.511,82.642,-60.326,-24.565,167.327
 15:07:16.339,eb:33:2e:f9:57:b5, 2085-97-212 251:46:20:3421,-0.589,2.852,0.921,524.048,293.823,105.774,-54.575,-22.341,165.498
 15:07:16.339,eb:33:2e:f9:57:b5, 2085-97-205 250:176:15:5215,-0.742,2.199,2.238,582.886,285.645,138.672,-48.356,-19.506,163.845
 15:07:16.339,eb:33:2e:f9:57:b5, 2085-97-227 249:180:13:5186,-0.701,1.807,2.612,624.39,257.751,152.71,-42.006,-16.567,163.004
 15:07:16.339,eb:33:2e:f9:57:b5, 2085-97-242 250:63:13:5565,-0.56,1.655,2.514,658.691,268.372,164.673,-35.409,-13.524,162.587
 15:07:16.399,eb:33:2e:f9:57:b5, 2085-97-191 251:72:14:7059,-0.711,1.716,3.048,680.054,300.72,186.34,-28.68,-10.168,162.614
 15:07:16.399,eb:33:2e:f9:57:b5, 2085-97-117 248:130:10:8131,-0.973,1.708,3.873,699.585,274.231,234.985,-21.808,-6.575,163.251
 15:07:16.399,eb:33:2e:f9:57:b5, 2085-97-157 248:79:255:6433,-0.871,0.655,3.556,713.013,218.75,269.348,-14.865,-3.51,164.965
 15:07:16.399,eb:33:2e:f9:57:b5, 2085-97-189 249:180:239:7351,-0.58,-0.969,3.194,681.885,227.417,270.691,-7.866,-0.78,167.195
 15:07:16.549,eb:33:2e:f9:57:b5, 2085-97-219 252:220:221:9175,-0.12,-3.191,4.025,589.966,234.802,225.525,-1.5,1.758,169.497
 15:07:16.549,eb:33:2e:f9:57:b5, 2085-97-80 01:180:205:9514,0.556,-5.305,4.779,502.869,175.903,161.987,4.037,3.818,171.436
 15:07:16.549,eb:33:2e:f9:57:b5, 2085-97-10 08:75:193:7558,1.539,-7.103,4.1,461.914,126.648,103.821,8.937,5.076,172.886
 15:07:16.549,eb:33:2e:f9:57:b5, 2085-97-33 17:142:183:7084,2.636,-8.53,3.463,386.353,169.8,42.908,13.343,6.378,173.87
 15:07:16.550,eb:33:2e:f9:57:b5, 2085-113-58 00:49:252:-4650,3.075,-9.376,3.735,263.123,194.763,10.742,16.633,8.185,174.578
 15:07:16.637,eb:33:2e:f9:57:b5, 2085-97-217 26:02:179:8311,3.532,-9.554,4.003,198.059,167.908,14.282,17.809,9.025,174.908
 15:07:16.637,eb:33:2e:f9:57:b5, 2085-97-219 28:172:181:6613,3.543,-9.541,3.731,72.632,94.36,30.029,19.226,10.157,175.534
 15:07:16.637,eb:33:2e:f9:57:b5, 2085-97-173 26:178:189:4960,3.132,-8.875,2.777,-34.668,62.073,37.476,19.451,10.739,176.127
 15:07:16.637,eb:33:2e:f9:57:b5, 2085-97-62 23:51:203:3404,2.539,-7.54,2.068,-128.845,31.372,33.081,18.688,11.063,176.627
 15:07:16.639,eb:33:2e:f9:57:b5, 2085-97-232 16:191:219:1180,1.814,-5.525,1.158,-187.927,-16.663,29.053,17.084,11.036,176.946
 15:07:16.639,eb:33:2e:f9:57:b5, 2085-97-07 13:66:232:-776,1.638,-3.708,0.007,-197.51,-36.621,34.119,15.183,10.618,177.16
 15:07:16.639,eb:33:2e:f9:57:b5, 2085-97-51 09:49:202:5976,-2.937,-2.426,0.686,-290.466,176.147,211.975,13.217,10.602,177.753
 15:07:16.639,eb:33:2e:f9:57:b5, 2085-97-37 223:187:165:20028,-2.567,-2.993,4.378,-700.134,-328.491,-409.119,5.306,8.959,172.853
 15:07:16.642,eb:33:2e:f9:57:b5, 2085-97-140 226:136:34:5962,-0.774,-3.22,5.355,68.359,-328.247,-30.396,3.263,5.955,171.244
 15:07:16.642,eb:33:2e:f9:57:b5, 2085-97-254 08:136:253:355,3.801,1.126,2.429,-131.042,-401.733,-21.973,2.538,1.769,170.898
 15:07:16.642,eb:33:2e:f9:57:b5, 2085-97-42 27:177:254:-5519,1.865,-0.298,-2.74,-68.787,-183.044,55.176,1.67,-1.582,171.354
 15:07:16.642,eb:33:2e:f9:57:b5, 2085-97-106 04:198:254:844,-0.409,-0.47,-0.995,-43.396,15.32,33.081,1.049,-2.208,171.639
 15:07:16.642,eb:33:2e:f9:57:b5, 2085-97-44 248:202:255:4641,-0.868,-0.333,1.656,-46.692,32.654,12.756,0.549,-1.945,171.815
 15:07:16.642,eb:33:2e:f9:57:b5, 2085-97-08 255:238:255:2931,1.206,-0.183,1.866,-55.176,-19.714,-1.77,0.027,-1.945,171.881
 15:07:16.642,eb:33:2e:f9:57:b5, 2085-97-152 04:30:01:1982,0.273,0.302,0.389,-60.608,49.438,16.663,-0.538,-1.967,171.931
 15:07:16.643,eb:33:2e:f9:57:b5, 2085-97-91 255:109:01:3460,-0.607,0.055,1,-65.369,118.591,33.447,-1.176,-1.06,172.2
 15:07:16.667,eb:33:2e:f9:57:b5, 2085-97-164 252:60:00:5644,-1,-0.004,1.776,-82.581,132.629,54.138,-1.906,0.198,172.628
 15:07:16.667,eb:33:2e:f9:57:b5, 2085-97-75 246:122:15:8102,-1.502,1.819,4.26,-545.41,23.56,-4.456,-16.485,2.829,174.831
 15:07:16.667,eb:33:2e:f9:57:b5, 2085-97-233 245:145:20:10866,-0.766,2.292,4.613,-668.701,-11.475,-63.599,-22.648,2.796,174.435
 15:07:16.667,eb:33:2e:f9:57:b5, 2085-97-51 253:145:17:14019,-0.045,2.453,6.004,-789.307,-97.351,-82.764,-30.037,1.895,174.089
 15:07:16.699,eb:33:2e:f9:57:b5, 2085-97-52 00:59:254:13920,0.168,1.647,7.114,-871.033,-207.947,-75.317,-38.425,0.187,174.271
 15:07:16.699,eb:33:2e:f9:57:b5, 2085-97-13 255:79:243:14246,-0.977,-1.244,6.822,-811.89,-330.994,-76.355,-46.961,-2.296,175.501
 15:07:16.699,eb:33:2e:f9:57:b5, 2085-97-75 240:234:253:10792,-0.973,-1.799,6.72,-777.649,-501.587,-36.011,-55.069,-5.4,178.77
 15:07:16.699,eb:33:2e:f9:57:b5, 2085-97-64 248:226:229:4698,-1.618,-2.166,2.265,-649.048,-393.921,-11.78,-62.831,-7.949,-177.325
 15:07:16.759,eb:33:2e:f9:57:b5, 2085-97-04 235:213:241:12010,-3.448,-2.18,4.475,-401.733,-214.905,-43.701,-68.071,-9.388,-174.672
 15:07:16.759,eb:33:2e:f9:57:b5, 2085-97-163 225:48:06:13783,-3.725,-0.539,6.966,-419.434,-121.521,-175.293,-72.186,-10.997,-173.606
 15:07:16.759,eb:33:2e:f9:57:b5, 2085-97-126 228:43:20:9453,-3.138,1.805,5.79,-511.78,-22.522,-297.974,-76.948,-13.574,-173.48
 15:07:16.759,eb:33:2e:f9:57:b5, 2085-97-155 233:87:25:5748,-2.741,2.774,3.424,-443.481,126.77,-366.028,-81.524,-16.82,-174.721
 15:07:16.787,eb:33:2e:f9:57:b5, 2085-97-209 233:114:33:7428,-2.709,3.759,2.998,-212.158,203.735,-335.632,-83.969,-20.154,-177.045
 15:07:16.787,eb:33:2e:f9:57:b5, 2085-97-178 235:09:34:9022,-2.429,4.293,4.229,-42.664,133.85,-251.587,-84.221,-22.835,-179.203
 15:07:16.787,eb:33:2e:f9:57:b5, 2085-97-201 237:102:31:7150,-2.1,4.105,4.116,3.906,68.237,-197.388,-83.82,-24.917,179.604
 15:07:16.787,eb:33:2e:f9:57:b5, 2085-97-29 240:79:28:4576,-1.848,3.726,2.787,12.085,87.219,-167.114,-83.243,-26.603,178.566
 15:07:16.818,eb:33:2e:f9:57:b5, 2085-97-246 242:24:28:3723,-1.21,3.436,1.888,52.917,154.114,-139.771,-82.222,-27.96,177.067
 15:07:16.818,eb:33:2e:f9:57:b5, 2085-97-19 248:63:32:3316,-0.993,3.735,1.67,135.193,236.572,-103.333,-80.052,-28.834,174.589
 15:07:16.818,eb:33:2e:f9:57:b5, 2085-97-217 247:105:35:3397,-1.033,4.311,1.686,265.869,228.394,-28.931,-76.624,-28.987,171.771
 15:07:16.818,eb:33:2e:f9:57:b5, 2085-97-99 247:38:33:2645,-0.947,4.401,1.529,409.851,133.484,57.312,-72.202,-28.301,169.871
 15:07:16.906,eb:33:2e:f9:57:b5, 2085-97-24 250:46:25:1128,-0.655,3.621,0.886,518.921,108.032,106.14,-67.104,-27.103,169.146
 15:07:16.906,eb:33:2e:f9:57:b5, 2085-97-252 249:242:19:1601,-0.878,2.809,0.458,593.018,204.59,118.164,-60.985,-25.367,168.107
 15:07:16.906,eb:33:2e:f9:57:b5, 2085-97-214 248:135:15:4756,-0.859,2.202,1.491,645.874,295.593,133.118,-54.031,-22.885,166.498
 15:07:16.906,eb:33:2e:f9:57:b5, 2085-97-183 249:244:12:6280,-0.708,1.736,2.904,650.33,304.016,137.268,-46.884,-19.863,164.872
 15:07:16.997,eb:33:2e:f9:57:b5, 2085-97-31 251:181:11:6110,-0.442,1.542,3.033,668.518,285.583,157.227,-39.996,-16.732,163.932
 15:07:16.997,eb:33:2e:f9:57:b5, 2085-97-34 253:171:11:6789,-0.393,1.421,2.994,718.872,297.729,196.594,-32.904,-13.332,163.614
 15:07:16.997,eb:33:2e:f9:57:b5, 2085-97-224 252:29:11:8976,-0.457,1.449,3.844,755.92,309.631,252.686,-25.571,-9.553,164.174
 15:07:16.997,eb:33:2e:f9:57:b5, 2085-97-90 251:177:07:9386,-0.818,1.265,4.709,753.662,265.991,311.89,-18.127,-5.762,165.729
 15:07:17.001,eb:33:2e:f9:57:b5, 2085-97-67 247:235:249:7976,-1.262,0.264,4.261,739.319,182.983,369.141,-10.854,-2.774,168.541
 15:07:17.001,eb:33:2e:f9:57:b5, 2085-97-26 245:214:231:6756,-1.349,-1.911,3.454,680.115,180.359,347.107,-3.752,-0.599,171.931
 15:07:17.001,eb:33:2e:f9:57:b5, 2085-97-25 248:33:217:7968,-0.581,-4.01,3.556,574.707,238.525,252.991,2.505,1.588,174.897
 15:07:17.001,eb:33:2e:f9:57:b5, 2085-97-167 254:211:206:8751,0.231,-5.528,4.262,495.605,204.407,176.147,7.943,3.735,177.149
 15:07:17.005,eb:33:2e:f9:57:b5, 2085-97-115 05:46:190:7125,1.196,-7.034,3.969,477.722,93.567,155.945,12.92,4.834,179.006
 15:07:17.005,eb:33:2e:f9:57:b5, 2085-97-198 12:150:172:6454,1.838,-9.442,3.116,415.588,125.977,105.042,17.655,5.422,-179.445
 15:07:17.005,eb:33:2e:f9:57:b5, 2085-97-207 16:240:165:8425,2.496,-11.051,3.57,244.995,214.661,17.578,21.044,6.96,-178.292
 15:07:17.005,eb:33:2e:f9:57:b5, 2085-97-21 23:95:170:7946,3.165,-11.096,4.306,80.261,151.733,-25.33,22.676,8.795,-177.676
 15:07:17.118,eb:33:2e:f9:57:b5, 2085-97-236 25:75:178:5252,3.119,-10.248,3.159,-37.048,75.5,-16.541,22.83,9.827,-177.479
 15:07:17.118,eb:33:2e:f9:57:b5, 2085-97-153 22:176:190:4247,2.517,-9.001,2.203,-127.258,66.101,-7.446,22,10.514,-177.308
 15:07:17.118,eb:33:2e:f9:57:b5, 2085-97-31 18:176:206:2693,2.04,-7.235,1.869,-201.05,22.461,-10.803,20.325,10.975,-177.209
 15:07:17.118,eb:33:2e:f9:57:b5, 2085-97-154 14:214:227:-393,1.688,-4.963,0.525,-238.525,-11.719,-22.339,18.029,11.014,-177.385
 15:07:17.207,eb:33:2e:f9:57:b5, 2085-97-119 13:106:249:-684,1.754,-2.207,-0.365,-233.521,13.123,-20.02,15.628,11.096,-177.605
 15:07:17.207,eb:33:2e:f9:57:b5, 2085-97-75 14:13:06:161,1.693,0.229,-0.121,-239.136,31.372,22.278,13.271,11.338,-177.545
 15:07:17.207,eb:33:2e:f9:57:b5, 2085-97-234 06:189:01:-2874,-4.044,-2.116,3.96,-397.4,254.211,209.167,10.986,11.959,-176.413
 15:07:17.207,eb:33:2e:f9:57:b5, 2085-97-150 241:25:203:13983,-4.709,-9.379,4.418,-327.515,-517.09,-255.554,3.928,9.108,179.945
 15:07:17.207,eb:33:2e:f9:57:b5, 2085-97-188 226:215:22:10130,2.283,3.851,5.42,23.071,-525.146,17.09,4.114,4.488,178.973
 15:07:17.207,eb:33:2e:f9:57:b5, 2085-97-06 32:185:254:-6505,4.853,0.32,-0.921,-81.787,-451.904,71.533,3.29,-0.868,178.72
 15:07:17.207,eb:33:2e:f9:57:b5, 2085-97-92 31:209:255:-6482,-0.029,0.297,-4.07,-70.129,-110.474,25.269,2.587,-3.488,178.907
 15:07:17.207,eb:33:2e:f9:57:b5, 2085-97-163 249:212:252:3644,-1.104,-0.502,0.44,-36.926,45.959,26.611,2.098,-3.131,179.335
 15:07:17.211,eb:33:2e:f9:57:b5, 2085-97-188 245:27:00:6027,-0.297,-0.293,2.544,-36.011,-17.7,-2.136,1.78,-2.999,179.473
 15:07:17.211,eb:33:2e:f9:57:b5, 2085-97-35 13:64:04:830,0.096,0.101,1.799,-53.284,-60.73,-1.587,1.28,-3.532,179.346
 15:07:17.211,eb:33:2e:f9:57:b5, 2085-97-167 05:203:02:2588,0.262,0.004,1.315,-68.726,61.096,26.917,0.615,-3.23,179.511
 15:07:17.211,eb:33:2e:f9:57:b5, 2085-97-37 254:204:06:6894,0.001,0.039,0.998,-91.431,165.039,43.884,-0.187,-2.098,179.951
 15:07:17.213,eb:33:2e:f9:57:b5, 2085-97-182 01:236:05:7232,0.486,0.725,3.527,-169.25,110.229,76.904,-1.489,-0.758,-179.456
 15:07:17.213,eb:33:2e:f9:57:b5, 2085-97-106 03:116:10:7939,0.124,1.279,3.929,-275.391,83.801,94.36,-3.757,0.286,-178.638
 15:07:17.213,eb:33:2e:f9:57:b5, 2085-97-243 252:96:11:8822,-0.889,1.298,3.822,-379.517,59.937,88.684,-7.081,1.077,-177.731
 15:07:17.213,eb:33:2e:f9:57:b5, 2085-97-90 246:155:17:10853,-1.752,1.735,4.735,-509.766,54.321,43.03,-11.552,1.752,-177.171
 15:07:17.238,eb:33:2e:f9:57:b5, 2085-97-227 241:130:19:11770,-1.756,2.583,5.411,-666.809,9.827,-19.653,-17.523,2.098,-177.209
 15:07:17.238,eb:33:2e:f9:57:b5, 2085-97-35 246:115:06:12409,-0.322,2.232,5.908,-802.673,-45.593,-80.017,-24.994,1.719,-177.671
 15:07:17.238,eb:33:2e:f9:57:b5, 2085-97-59 01:192:252:13248,0.079,0.129,5.829,-801.392,-32.471,-152.161,-33.184,0.753,-178.544
 15:07:17.238,eb:33:2e:f9:57:b5, 2085-97-157 251:95:249:17517,-0.637,-1.523,7.092,-729.797,-169.189,-137.451,-40.776,-0.824,-179.138
 15:07:17.268,eb:33:2e:f9:57:b5, 2085-97-97 255:151:246:7797,0.394,1.332,7.308,-715.332,-390.015,0.732,-48.043,-3.724,-177.435
 15:07:17.269,eb:33:2e:f9:57:b5, 2085-97-65 248:129:243:13976,-1.773,-2.237,3.828,-492.004,-209.595,29.907,-54.289,-5.46,-175.089
 15:07:17.269,eb:33:2e:f9:57:b5, 2085-97-04 239:211:252:16775,-1.812,-1.505,8.057,-502.014,-145.752,-58.105,-59.183,-6.476,-173.617
 15:07:17.269,eb:33:2e:f9:57:b5, 2085-97-14 242:86:10:12563,-1.947,0.46,6.958,-593.75,-96.558,-151.917,-64.858,-8.086,-173.051
 15:07:17.299,eb:33:2e:f9:57:b5, 2085-97-104 238:200:18:10099,-2.544,1.984,5.498,-520.63,-54.26,-186.584,-70.51,-9.97,-173.007
 15:07:17.299,eb:33:2e:f9:57:b5, 2085-97-161 234:69:20:9325,-2.578,2.462,4.703,-386.475,-29.358,-204.102,-74.877,-11.942,-173.21
 15:07:17.299,eb:33:2e:f9:57:b5, 2085-97-232 235:67:23:8740,-2.422,2.693,4.355,-304.138,30.029,-249.512,-78.129,-14.156,-173.677
 15:07:17.299,eb:33:2e:f9:57:b5, 2085-97-231 237:203:26:8162,-2.163,3.139,4.185,-230.164,62.5,-282.288,-80.447,-16.71,-174.765
 15:07:17.387,eb:33:2e:f9:57:b5, 2085-97-153 239:203:28:7200,-1.909,3.511,3.77,-133.423,36.377,-279.297,-81.92,-19.424,-175.688
 15:07:17.387,eb:33:2e:f9:57:b5, 2085-113-58 00:147:244:990,-1.77,3.642,3.173,-51.575,1.587,-263.428,-82.524,-22.066,-176.259
 15:07:17.387,eb:33:2e:f9:57:b5, 2085-97-141 242:158:29:4579,-1.627,3.666,2.735,-21.362,-4.456,-256.409,-82.628,-23.351,-176.364
 15:07:17.387,eb:33:2e:f9:57:b5, 2085-97-10 244:99:30:2688,-1.393,3.746,1.757,33.813,5.188,-233.154,-82.326,-25.763,-176.726
 15:07:17.389,eb:33:2e:f9:57:b5, 2085-97-194 245:190:31:740,-0.937,3.872,0.9,82.153,40.588,-205.383,-81.458,-27.894,-177.259
 15:07:17.389,eb:33:2e:f9:57:b5, 2085-97-164 248:165:38:-2183,-0.939,4.317,-0.534,160.339,118.042,-169.739,-79.601,-29.608,-178.517
 15:07:17.389,eb:33:2e:f9:57:b5, 2085-97-193 248:36:41:-2652,-1.083,5.004,-1.324,319.58,169.373,-79.102,-76.174,-30.498,179.533
 15:07:17.389,eb:33:2e:f9:57:b5, 2085-97-223 246:21:38:-1600,-1.016,5.274,-1.028,480.591,172.18,19.653,-70.961,-30.223,177.473
 15:07:17.448,eb:33:2e:f9:57:b5, 2085-97-03 249:134:28:050,-0.95,4.085,-0.422,597.656,208.923,102.661,-64.616,-28.872,175.908
 15:07:17.448,eb:33:2e:f9:57:b5, 2085-97-65 247:162:24:2410,-1.207,3.251,0.586,640.32,309.082,138.184,-57.415,-26.483,173.941
 15:07:17.448,eb:33:2e:f9:57:b5, 2085-97-198 245:130:22:5127,-1.291,2.952,1.854,672.607,356.079,173.767,-49.988,-23.192,172.018
 15:07:17.448,eb:33:2e:f9:57:b5, 2085-97-29 246:96:20:6831,-1.169,2.683,3.006,701.355,340.393,201.843,-42.556,-19.374,170.673
 15:07:17.479,eb:33:2e:f9:57:b5, 2085-97-179 246:199:18:7988,-1.179,2.446,3.605,735.291,316.589,220.947,-35.228,-15.502,170.327
 15:07:17.479,eb:33:2e:f9:57:b5, 2085-97-72 245:39:15:9275,-1.44,2.155,4.196,773.926,280.64,241.455,-27.68,-11.717,170.722
 15:07:17.479,eb:33:2e:f9:57:b5, 2085-97-177 244:179:08:8839,-1.396,1.539,4.585,797.668,226.807,241.943,-20.001,-8.454,171.98
 15:07:17.480,eb:33:2e:f9:57:b5, 2085-97-203 244:229:253:7294,-1.185,0.525,3.916,814.514,200.195,230.408,-12.052,-5.74,173.622
 15:07:17.747,eb:33:2e:f9:57:b5, 2085-97-62 249:250:238:6021,-0.747,-1.19,3.252,795.349,199.402,208.13,-4.092,-3.527,175.556
 15:07:17.747,eb:33:2e:f9:57:b5, 2085-97-49 251:152:224:6749,-0.361,-3.055,2.953,716.309,262.817,144.714,3.444,-1.115,177.259
 15:07:17.747,eb:33:2e:f9:57:b5, 2085-97-20 00:130:215:8117,0.683,-4.626,3.771,627.319,238.831,87.891,10.135,1.318,178.698
 15:07:17.747,eb:33:2e:f9:57:b5, 2085-97-160 10:112:205:8090,1.875,-5.584,3.786,533.325,177.063,68.115,16.002,3.131,179.83
 15:07:17.808,eb:33:2e:f9:57:b5, 2085-97-99 20:144:189:9779,2.973,-7.208,4.492,420.471,172.302,97.107,20.863,4.477,-178.841
 15:07:17.808,eb:33:2e:f9:57:b5, 2085-97-183 24:89:174:10679,3.124,-9.397,5.022,237.244,228.333,114.929,24.318,5.933,-177.039
 15:07:17.808,eb:33:2e:f9:57:b5, 2085-97-237 23:116:167:11167,2.76,-10.783,5.377,87.341,228.76,117.737,26.032,7.586,-174.941
 15:07:17.808,eb:33:2e:f9:57:b5, 2085-97-81 21:214:166:10202,2.596,-11.168,5.303,17.334,88.196,107.544,26.79,8.503,-173.183
 15:07:17.810,eb:33:2e:f9:57:b5, 2085-97-58 20:86:174:6901,2.339,-10.895,4.343,-91.553,-26.794,36.499,26.505,8.322,-172.452
 15:07:17.810,eb:33:2e:f9:57:b5, 2085-97-168 15:195:197:3999,1.651,-9.042,2.529,-174.5,-59.753,-27.71,25.06,7.91,-172.689
 15:07:17.810,eb:33:2e:f9:57:b5, 2085-97-102 10:131:221:1736,1.143,-5.767,1.461,-222.412,-108.521,-38.208,22.934,7.262,-173.392
 15:07:17.810,eb:33:2e:f9:57:b5, 2085-97-125 11:142:244:-1170,1.588,-2.833,0.103,-242.432,-95.825,-8.911,20.495,6.317,-174.056
 15:07:17.812,eb:33:2e:f9:57:b5, 2085-97-05 11:32:08:482,1.207,-0.076,-0.464,-256.47,14.587,56.152,18.007,5.933,-173.936
 15:07:17.812,eb:33:2e:f9:57:b5, 2085-97-67 253:65:211:10549,-1.963,1.361,0.785,-397.034,152.954,140.808,15.425,5.988,-172.837
 15:07:17.812,eb:33:2e:f9:57:b5, 2085-97-84 221:220:182:20476,-9.888,-2.483,6.334,-586.182,389.038,-244.873,8.009,9.377,-173.848
 15:07:17.812,eb:33:2e:f9:57:b5, 2085-97-232 189:81:11:16521,-2.021,3.649,7.933,4.456,-111.084,-10.315,6.79,11.678,-174.974
 15:07:17.812,eb:33:2e:f9:57:b5, 2085-97-34 20:100:254:-3090,2.266,0.614,2.735,-100.647,-448.73,-28.137,5.982,8.174,-175.649
 15:07:17.812,eb:33:2e:f9:57:b5, 2085-97-28 50:198:05:-10029,1.845,0.188,-1.934,-80.994,-269.409,-18.372,5.147,5.103,-175.825
 15:07:17.812,eb:33:2e:f9:57:b5, 2085-97-134 04:147:253:274,-1.024,-0.208,-1.552,-39.734,54.016,24.719,4.587,4.768,-175.682
 15:07:17.812,eb:33:2e:f9:57:b5, 2085-97-172 242:44:01:6301,-1.994,-0.383,2.323,-22.949,42.053,9.46,4.34,5.394,-175.468
 15:07:17.839,eb:33:2e:f9:57:b5, 2085-97-215 00:86:02:3105,0.367,-0.137,3.212,-49.194,-75.867,-1.038,3.939,5.251,-175.441
 15:07:17.839,eb:33:2e:f9:57:b5, 2085-97-148 253:126:05:11414,0.205,0.291,1.019,-54.321,-23.315,34.363,3.444,4.708,-175.27
 15:07:17.839,eb:33:2e:f9:57:b5, 2085-97-173 03:107:240:13459,-0.215,-0.345,6.21,-804.382,-108.276,-143.616,-33.333,1.148,-173.897
 15:07:17.839,eb:33:2e:f9:57:b5, 2085-97-234 250:115:04:16081,-0.418,-1.464,7.797,-744.69,-273.804,-152.527,-41.034,-1.093,-174.051
 15:07:17.840,eb:33:2e:f9:57:b5, 2085-97-104 03:246:237:7034,-0.672,-0.565,5.706,-675.842,-330.078,-49.194,-48.29,-4.092,-172.106
 15:07:17.840,eb:33:2e:f9:57:b5, 2085-97-07 244:211:241:15102,-1.89,-1.674,6.14,-492.249,-150.696,-45.654,-53.871,-5.647,-170.618
 15:07:17.840,eb:33:2e:f9:57:b5, 2085-97-81 239:219:05:15784,-1.986,-0.673,8.036,-564.575,-82.52,-161.865,-59.117,-7.13,-170.294
 15:07:17.840,eb:33:2e:f9:57:b5, 2085-97-68 239:86:19:11556,-2.357,1.78,6.728,-590.332,-91.98,-199.768,-64.99,-9.229,-170.409
 15:07:17.869,eb:33:2e:f9:57:b5, 2085-97-236 233:189:20:8771,-3.004,2.634,4.672,-474.243,-62.134,-195.557,-70.329,-11.365,-170.332
 15:07:17.869,eb:33:2e:f9:57:b5, 2085-97-11 232:63:21:8197,-2.924,2.573,4.17,-348.999,14.16,-233.765,-74.202,-13.447,-170.782
 15:07:17.869,eb:33:2e:f9:57:b5, 2085-97-159 232:90:24:8487,-2.885,2.85,3.995,-250.244,89.722,-291.077,-76.822,-15.881,-172.013
 15:07:17.869,eb:33:2e:f9:57:b5, 2085-97-135 233:24:26:7923,-2.728,3.183,4.116,-139.526,61.096,-321.228,-78.217,-18.715,-173.557
 15:07:17.930,eb:33:2e:f9:57:b5, 2085-97-42 235:72:26:6055,-2.485,3.293,3.484,-25.33,1.709,-333.801,-78.64,-21.879,-174.474
 15:07:17.930,eb:33:2e:f9:57:b5, 2085-97-21 237:139:26:4177,-2.335,3.271,2.46,71.533,-13.916,-344.727,-78.019,-25.208,-175.122
 15:07:17.930,eb:33:2e:f9:57:b5, 2085-113-81 00:05:240:-7043,-2.21,3.381,1.854,140.259,-1.282,-347.473,-76.553,-28.608,-175.847
 15:07:17.930,eb:33:2e:f9:57:b5, 2085-97-220 239:164:29:2964,-1.857,3.505,1.684,161.194,2.075,-344.666,-75.547,-30.289,-176.331
 15:07:17.930,eb:33:2e:f9:57:b5, 2085-97-183 244:202:35:458,-1.213,3.964,1.102,191.467,12.024,-324.707,-73.087,-33.47,-177.512
 15:07:17.958,eb:33:2e:f9:57:b5, 2085-97-101 248:164:42:-2774,-0.796,5.037,-0.593,269.165,68.359,-249.939,-69.906,-36.096,-179.039
 15:07:17.958,eb:33:2e:f9:57:b5, 2085-97-06 249:98:44:-2935,-0.895,5.496,-1.543,402.344,164.185,-106.873,-65.05,-37.178,178.737
 15:07:17.958,eb:33:2e:f9:57:b5, 2085-97-110 249:120:36:-2169,-0.866,5.165,-1.315,478.76,265.381,27.222,-59.046,-36.442,176.243
 15:07:17.958,eb:33:2e:f9:57:b5, 2085-97-143 247:99:29:747,-1.238,4.026,-0.484,515.442,413.635,128.296,-52.284,-33.75,173.309
 15:07:18.018,eb:33:2e:f9:57:b5, 2085-97-153 244:195:25:4168,-1.511,3.433,1.25,542.358,502.502,207.52,-45.511,-29.344,170.552
 15:07:18.018,eb:33:2e:f9:57:b5, 2085-97-182 243:144:23:5925,-1.469,3.056,2.549,588.44,493.347,268.982,-38.974,-23.967,168.745
 15:07:18.018,eb:33:2e:f9:57:b5, 2085-97-98 245:115:22:7469,-1.249,2.872,3.214,642.578,472.046,313.354,-32.613,-18.358,168.36
 15:07:18.018,eb:33:2e:f9:57:b5, 2085-97-104 245:252:20:10184,-1.625,2.742,4.287,677.246,453.552,345.154,-26.054,-12.64,168.948
 15:07:18.166,eb:33:2e:f9:57:b5, 2085-97-06 242:12:12:10820,-1.699,2.245,5.43,708.435,338.867,371.46,-19.402,-7.575,170.81
 15:07:18.166,eb:33:2e:f9:57:b5, 2085-97-01 243:20:252:8028,-1.405,0.581,4.692,744.202,252.747,342.59,-12.288,-3.834,173.485
 15:07:18.166,eb:33:2e:f9:57:b5, 2085-97-93 248:200:230:6784,-0.508,-1.772,3.336,755.066,247.803,270.386,-4.828,-0.978,176.155
 15:07:18.166,eb:33:2e:f9:57:b5, 2085-97-162 254:131:215:8028,0.309,-4.266,3.613,675.049,288.269,134.888,2.433,1.868,178.05
 15:07:18.171,eb:33:2e:f9:57:b5, 2085-97-115 07:09:206:8234,1.613,-5.761,4.055,610.901,214.233,59.265,8.855,4.318,179.16
 15:07:18.171,eb:33:2e:f9:57:b5, 2085-97-216 18:81:202:7383,2.89,-6.521,3.648,538.635,163.879,27.649,14.755,5.999,179.885
 15:07:18.171,eb:33:2e:f9:57:b5, 2085-97-86 26:77:192:9119,3.464,-7.264,3.954,410.4,180.115,66.04,19.6,7.509,-179.16
 15:07:18.171,eb:33:2e:f9:57:b5, 2085-97-209 28:32:181:8493,3.679,-8.69,4.607,232.117,169.922,121.704,23.038,8.811,-177.583
 15:07:18.377,eb:33:2e:f9:57:b5, 2085-97-187 29:98:175:7661,3.296,-9.819,3.838,70.923,207.458,157.532,24.796,9.943,-175.479
 15:07:18.377,eb:33:2e:f9:57:b5, 2085-97-130 23:126:175:8249,2.692,-10.136,4.003,-50.232,168.335,162.231,25.28,11.118,-173.073
 15:07:18.377,eb:33:2e:f9:57:b5, 2085-97-166 20:151:183:5866,2.419,-9.753,3.645,-86.792,20.813,132.08,24.917,11.299,-171.304
 15:07:18.377,eb:33:2e:f9:57:b5, 2085-97-60 17:149:198:2780,1.883,-8.254,2.029,-153.32,-59.631,49.805,23.846,10.591,-170.64
 15:07:18.379,eb:33:2e:f9:57:b5, 2085-97-244 12:04:219:844,1.376,-5.905,0.885,-198.425,-70.557,-8.118,22,9.943,-170.771
 15:07:18.379,eb:33:2e:f9:57:b5, 2085-97-167 10:58:238:-525,1.494,-3.407,0.009,-198.425,-75.989,-6.897,19.935,9.261,-171.161
 15:07:18.379,eb:33:2e:f9:57:b5, 2085-97-108 12:28:255:236,1.446,-1.112,-0.254,-218.323,-13.55,32.654,17.869,8.784,-171.2
 15:07:18.379,eb:33:2e:f9:57:b5, 2085-97-20 242:55:192:16225,-0.287,0.448,0.572,-224.67,74.158,161.804,15.694,8.679,-170.403
 15:07:18.383,eb:33:2e:f9:57:b5, 2085-97-153 26:115:06:5099,-5.91,-5.238,2.915,-383.362,-547.668,-630.249,9.921,8.602,-171.996
 15:07:18.383,eb:33:2e:f9:57:b5, 2085-97-62 207:226:24:13986,0.554,5.381,5.085,37.964,-244.385,22.949,9.701,6.323,-174.705
 15:07:18.383,eb:33:2e:f9:57:b5, 2085-97-192 18:227:253:-3241,4.859,-0.165,1.831,-42.908,-395.142,63.354,9.058,2.203,-175.616
 15:07:18.383,eb:33:2e:f9:57:b5, 2085-97-45 29:248:05:-5246,1.447,0.666,-4.219,-65.186,-120.422,4.028,8.542,-0.582,-175.831
 15:07:18.383,eb:33:2e:f9:57:b5, 2085-97-101 254:178:253:2604,-1.878,-0.144,-0.655,-36.011,79.59,43.884,8.091,-0.412,-175.419
 15:07:18.383,eb:33:2e:f9:57:b5, 2085-97-99 242:37:255:5803,0.01,-0.602,2.812,-28.259,21.118,16.052,7.778,0.286,-174.996
 15:07:18.383,eb:33:2e:f9:57:b5, 2085-97-105 05:67:02:2390,0.489,0.494,1.745,-50.354,-19.714,18.494,7.405,-0.022,-174.952
 15:07:18.383,eb:33:2e:f9:57:b5, 2085-97-16 04:240:02:3911,0.209,0.286,1.174,-70.801,57.861,46.387,6.773,0.22,-174.556
 15:07:18.385,eb:33:2e:f9:57:b5, 2085-97-66 255:81:05:6702,-2.852,0.437,2.635,-99.609,58.044,71.289,5.938,0.791,-173.908
 15:07:18.385,eb:33:2e:f9:57:b5, 2085-97-55 231:54:15:11454,-3.264,1.601,5.884,-471.008,-72.51,-262.939,-68.549,-8.63,-168.596
 15:07:18.385,eb:33:2e:f9:57:b5, 2085-97-199 229:172:17:9884,-3.167,2.012,5.278,-346.985,-63.721,-299.927,-72.493,-11.508,-168.777
 15:07:18.385,eb:33:2e:f9:57:b5, 2085-97-121 231:127:22:8443,-3.056,2.505,4.288,-267.761,-4.822,-345.764,-75.311,-14.749,-169.376
 15:07:18.469,eb:33:2e:f9:57:b5, 2085-97-230 231:36:25:8783,-2.913,3.003,4.315,-201.843,33.264,-363.708,-77.311,-18.16,-170.436
 15:07:18.469,eb:33:2e:f9:57:b5, 2085-97-187 233:05:27:6656,-2.667,3.292,3.838,-113.525,-8.667,-358.765,-78.481,-21.676,-171.398
 15:07:18.469,eb:33:2e:f9:57:b5, 2085-97-132 235:196:26:4988,-2.54,3.378,2.789,-18.86,-28.687,-341.614,-78.893,-25.137,-171.821
 15:07:18.469,eb:33:2e:f9:57:b5, 2085-113-81 00:160:242:-7555,-2.498,3.368,2.14,50.293,-19.226,-340.149,-78.376,-28.499,-172.348
 15:07:18.472,eb:33:2e:f9:57:b5, 2085-97-185 237:128:30:2443,-1.908,3.511,1.762,80.627,-10.498,-340.637,-77.882,-30.174,-172.606
 15:07:18.472,eb:33:2e:f9:57:b5, 2085-97-136 241:188:38:-441,-1.607,4.345,0.421,151.978,43.091,-329.163,-76.042,-33.415,-173.727
 15:07:18.472,eb:33:2e:f9:57:b5, 2085-97-134 245:165:42:-2487,-1.304,5.083,-0.805,273.438,81.055,-255.371,-72.938,-36.074,-175.375
 15:07:18.472,eb:33:2e:f9:57:b5, 2085-97-60 245:62:41:-2714,-1.185,5.431,-1.352,421.814,109.924,-135.376,-68.06,-37.507,-177.402
 15:07:18.528,eb:33:2e:f9:57:b5, 2085-97-106 247:172:32:-2144,-1.175,4.629,-1.191,511.963,153.992,-27.649,-62.172,-37.634,-179.171
 15:07:18.528,eb:33:2e:f9:57:b5, 2085-97-161 245:52:26:-958,-1.4,3.614,-0.801,522.583,278.381,34.851,-55.486,-36.392,178.489
 15:07:18.528,eb:33:2e:f9:57:b5, 2085-97-168 244:58:25:576,-1.373,3.124,-0.085,516.113,402.71,80.872,-48.642,-33.761,175.622
 15:07:18.528,eb:33:2e:f9:57:b5, 2085-97-103 245:219:27:2773,-1.267,3.297,0.735,544.983,474.426,144.47,-41.786,-29.767,172.776
 15:07:18.587,eb:33:2e:f9:57:b5, 2085-97-52 246:22:28:5307,-1.209,3.559,1.992,595.703,477.112,225.708,-35.272,-24.846,171.107
 15:07:18.587,eb:33:2e:f9:57:b5, 2085-97-184 245:172:25:7962,-1.431,3.376,3.229,635.864,451.721,293.335,-28.883,-19.468,170.815
 15:07:18.587,eb:33:2e:f9:57:b5, 2085-97-218 241:177:19:9223,-1.873,2.967,4.325,665.588,385.62,327.698,-22.659,-14.326,171.881
 15:07:18.587,eb:33:2e:f9:57:b5, 2085-97-26 242:11:05:7644,-1.897,1.516,4.274,716.37,294.128,315.796,-16.046,-10.08,173.875
 15:07:18.618,eb:33:2e:f9:57:b5, 2085-97-35 241:91:248:6218,-1.439,-0.185,3.406,760.437,289.673,214.478,-8.921,-6.641,175.842
 15:07:18.618,eb:33:2e:f9:57:b5, 2085-97-229 250:229:237:5403,0.156,-1.674,2.761,775.635,295.898,88.684,-1.181,-3.571,177.017
 15:07:18.618,eb:33:2e:f9:57:b5, 2085-97-10 06:246:232:6725,1.221,-2.622,2.686,742.493,319.58,-8.484,6.378,-0.456,177.418
 15:07:18.618,eb:33:2e:f9:57:b5, 2085-97-150 14:142:227:9438,2.517,-3.224,4.218,682.739,245.117,8.606,13.64,2.411,177.863
 15:07:18.648,eb:33:2e:f9:57:b5, 2085-97-195 24:136:213:9139,3.291,-4.179,4.521,542.603,197.388,94.849,19.819,4.252,178.934
 15:07:18.648,eb:33:2e:f9:57:b5, 2085-97-167 25:111:193:9668,3.034,-6.532,4.576,366.638,270.752,202.759,24.593,5.801,-178.715
 15:07:18.648,eb:33:2e:f9:57:b5, 2085-97-208 21:07:174:11504,2.369,-9.092,5.061,185.059,378.052,249.329,27.675,7.734,-175.1
 15:07:18.648,eb:33:2e:f9:57:b5, 2085-97-219 16:17:166:12829,2.081,-10.896,6.094,72.937,334.778,223.694,29.504,9.888,-171.156
 15:07:18.978,eb:33:2e:f9:57:b5, 2085-97-168 18:61:167:9433,2.485,-11.438,5.803,-0.366,147.095,160.522,30.383,10.909,-168.272
 15:07:18.978,eb:33:2e:f9:57:b5, 2085-97-212 20:170:185:5969,2.581,-10.154,3.696,-111.45,63.354,60.547,30.042,11.179,-166.904
 15:07:18.978,eb:33:2e:f9:57:b5, 2085-97-207 18:211:210:3820,1.997,-7.186,2.352,-186.035,11.23,47.485,28.603,11.283,-166.317
 15:07:18.978,eb:33:2e:f9:57:b5, 2085-97-199 12:166:230:1524,1.554,-4.39,1.326,-228.516,-57.129,100.586,26.609,10.673,-165.762
 15:07:19.038,eb:33:2e:f9:57:b5, 2085-97-137 12:15:250:-545,1.853,-1.877,-0.021,-264.404,-41.199,158.936,24.285,9.553,-164.833
 15:07:19.038,eb:33:2e:f9:57:b5, 2085-97-167 18:199:212:5094,-1.973,-0.187,1.079,-430.42,265.93,376.404,21.698,9.075,-162.609
 15:07:19.038,eb:33:2e:f9:57:b5, 2085-97-53 226:29:156:16050,-5.744,-3.593,5.194,-828.064,-205.383,-250.61,12.541,8.773,-164.114
 15:07:19.038,eb:33:2e:f9:57:b5, 2085-97-124 182:170:11:16439,-3.132,2.215,5.413,-32.654,-17.578,-31.189,10.036,10.206,-165.536
 15:07:19.040,eb:33:2e:f9:57:b5, 2085-97-153 16:215:00:-2334,2.492,0.407,3.838,-99.487,-476.624,-43.823,9.058,7.048,-166.498
 15:07:19.040,eb:33:2e:f9:57:b5, 2085-97-49 51:189:07:-9564,2.884,0.025,-1.628,-55.786,-306.091,14.038,8.465,3.406,-166.663
 15:07:19.040,eb:33:2e:f9:57:b5, 2085-97-162 00:36:252:835,-1.372,-0.027,-2.099,-64.819,165.771,51.453,7.883,3.356,-166.13
 15:07:19.040,eb:33:2e:f9:57:b5, 2085-97-13 240:179:253:5733,-0.73,-0.594,2.18,-45.959,120.544,36.133,7.366,4.916,-165.515
 15:07:19.040,eb:33:2e:f9:57:b5, 2085-97-232 05:121:03:2356,0.575,0.171,2.252,-50.232,13.855,32.593,6.938,5.312,-165.146
 15:07:19.040,eb:33:2e:f9:57:b5, 2085-97-114 04:56:03:3107,0.335,0.245,1.187,-73.425,118.103,44.373,6.361,5.988,-164.619
 15:07:19.040,eb:33:2e:f9:57:b5, 2085-97-55 255:75:06:6455,-0.655,0.59,2.283,-119.019,193.787,63.782,5.488,7.559,-163.916
 15:07:19.041,eb:33:2e:f9:57:b5, 2085-97-121 248:241:06:8509,-0.844,0.7,3.756,-204.407,165.894,82.947,4.005,9.327,-162.955
 15:07:19.045,eb:33:2e:f9:57:b5, 2085-97-38 248:06:08:7910,-1.073,0.816,3.868,-307.19,77.637,65.491,1.544,10.41,-162.12
 15:07:19.045,eb:33:2e:f9:57:b5, 2085-97-83 236:150:26:5475,-2.489,1.298,4.046,-415.649,21.484,23.743,-2.027,10.882,-161.68
 15:07:19.045,eb:33:2e:f9:57:b5, 2085-97-81 238:55:30:4567,-1.813,3.496,2.572,57.251,37.048,-334.229,-79.118,-30.256,-169.294
 15:07:19.045,eb:33:2e:f9:57:b5, 2085-97-216 242:24:37:1807,-1.391,4.225,1.644,122.314,48.34,-293.823,-77.465,-33.223,-170.524
 15:07:19.049,eb:33:2e:f9:57:b5, 2085-97-90 245:45:41:-1775,-1.289,5.042,-0.207,229.248,71.96,-205.139,-74.938,-35.541,-171.887
 15:07:19.049,eb:33:2e:f9:57:b5, 2085-97-65 244:109:41:-2417,-1.51,5.326,-1.195,376.099,87.402,-79.895,-70.889,-36.601,-173.375
 15:07:19.049,eb:33:2e:f9:57:b5, 2085-97-210 244:26:32:-2776,-1.372,4.585,-1.226,503.479,112.366,24.658,-65.704,-36.42,-174.501
 15:07:19.049,eb:33:2e:f9:57:b5, 2085-97-57 245:119:26:-1196,-1.389,3.56,-1.157,573.914,240.784,81.787,-59.194,-35.041,-176.127
 15:07:19.458,eb:33:2e:f9:57:b5, 2085-97-56 244:214:24:1027,-1.535,3.178,0.031,576.172,374.634,116.699,-52.042,-32.388,-178.533
 15:07:19.458,eb:33:2e:f9:57:b5, 2085-97-10 244:226:23:2707,-1.394,3.037,0.915,575.623,446.289,161.682,-44.912,-28.526,178.857
 15:07:19.458,eb:33:2e:f9:57:b5, 2085-97-165 245:64:24:4642,-1.23,2.976,1.745,605.774,470.337,216.37,-38.205,-23.807,177.116
 15:07:19.458,eb:33:2e:f9:57:b5, 2085-97-81 246:122:24:7495,-1.288,3.088,2.915,647.766,468.445,277.649,-31.558,-18.474,176.38
 15:07:19.460,eb:33:2e:f9:57:b5, 2085-97-234 243:24:19:9984,-1.725,2.816,4.414,680.115,407.41,335.632,-25.049,-13.118,177.111
 15:07:19.460,eb:33:2e:f9:57:b5, 2085-97-188 241:186:08:9182,-1.815,1.78,4.793,704.102,308.594,347.656,-18.375,-8.536,179.022
 15:07:19.460,eb:33:2e:f9:57:b5, 2085-97-47 240:145:254:8290,-1.993,0.428,4.239,742.676,252.441,308.044,-11.409,-5.01,-178.473
 15:07:19.460,eb:33:2e:f9:57:b5, 2085-97-207 243:96:242:6066,-0.912,-0.934,3.614,775.33,194.275,232.056,-3.829,-2.461,-176.122
 15:07:19.462,eb:33:2e:f9:57:b5, 2085-97-06 252:162:234:5893,-0.153,-2.243,2.696,765.564,242.371,128.54,3.873,-0.302,-174.364
 15:07:19.462,eb:33:2e:f9:57:b5, 2085-97-159 00:210:226:7986,0.421,-3.12,3.333,724.548,253.174,78.674,11.448,2.142,-173.079
 15:07:19.462,eb:33:2e:f9:57:b5, 2085-97-70 07:26:218:8339,1.525,-4.136,4.013,640.259,205.322,67.139,18.347,4.131,-171.843
 15:07:19.462,eb:33:2e:f9:57:b5, 2085-97-65 18:129:202:9559,2.753,-5.693,4.494,496.582,224.915,98.572,24.247,5.817,-170.272
 15:07:19.462,eb:33:2e:f9:57:b5, 2085-97-186 22:183:188:11263,2.684,-7.566,4.828,322.021,307.495,144.043,28.515,7.674,-167.964
 15:07:19.462,eb:33:2e:f9:57:b5, 2085-97-194 20:39:176:13313,2.617,-9.261,6.39,171.021,271.24,179.626,31.421,9.492,-164.916
 15:07:19.462,eb:33:2e:f9:57:b5, 2085-97-13 21:194:169:9122,2.663,-10.557,5.44,43.091,115.417,147.522,32.833,10.157,-162.482
 15:07:19.462,eb:33:2e:f9:57:b5, 2085-97-20 21:155:174:6670,2.578,-10.706,3.696,-15.381,70.007,70.557,33.195,10.272,-161.076
 15:07:19.465,eb:33:2e:f9:57:b5, 2085-97-58 20:23:191:5373,2.402,-9.254,3,-72.815,24.17,5.859,32.86,10.525,-160.532
 15:07:19.465,eb:33:2e:f9:57:b5, 2085-97-208 16:155:211:2352,1.677,-6.831,1.967,-168.884,-52.795,-13.733,31.58,10.393,-160.697
 15:07:19.465,eb:33:2e:f9:57:b5, 2085-97-213 11:17:230:-145,1.666,-4.417,0.466,-212.769,-68.726,10.01,29.526,9.822,-161.082
 15:07:19.465,eb:33:2e:f9:57:b5, 2085-97-249 14:200:248:-129,1.812,-2.038,-0.337,-246.277,25.818,52.734,27.274,9.432,-160.917
 15:07:19.517,eb:33:2e:f9:57:b5, 2085-97-116 23:212:05:6059,3.56,0.021,0.58,-288.452,106.873,127.136,24.741,9.772,-159.736
 15:07:19.517,eb:33:2e:f9:57:b5, 2085-97-46 241:244:236:12619,-2.026,-2.696,-1.628,-931.152,260.071,-217.651,18.265,10.585,-159.857
 15:07:19.517,eb:33:2e:f9:57:b5, 2085-97-97 240:155:241:11361,-1.969,-2.097,6.175,-495.667,-67.139,-127.991,-59.524,2.027,-155.61
 15:07:19.517,eb:33:2e:f9:57:b5, 2085-97-249 238:175:251:11435,-2.273,-1.296,5.346,-523.804,46.448,-265.991,-64.698,0.165,-156.555
 15:07:19.729,eb:33:2e:f9:57:b5, 2085-97-102 236:11:06:11159,-2.56,0.195,5.661,-468.689,64.026,-349.731,-69.659,-2.51,-158.302
 15:07:19.729,eb:33:2e:f9:57:b5, 2085-97-121 234:49:12:9519,-2.806,1.188,5.029,-363.586,45.41,-387.817,-73.63,-5.894,-159.961
 15:07:19.729,eb:33:2e:f9:57:b5, 2085-97-14 233:101:16:8987,-2.896,1.812,4.431,-251.221,51.086,-409.79,-76.437,-9.641,-161.395
 15:07:19.729,eb:33:2e:f9:57:b5, 2085-97-200 232:105:19:9182,-2.887,2.235,4.436,-171.082,50.415,-427.917,-78.124,-13.612,-162.856
 15:07:19.729,eb:33:2e:f9:57:b5, 2085-97-84 233:218:21:8535,-2.735,2.594,4.425,-124.512,23.376,-444.092,-79.222,-17.825,-164.07
 15:07:19.729,eb:33:2e:f9:57:b5, 2085-97-68 235:48:23:6614,-2.495,2.843,3.75,-79.102,-17.822,-443.298,-79.871,-22.192,-164.932
 15:07:19.729,eb:33:2e:f9:57:b5, 2085-97-30 236:144:23:5564,-2.497,2.913,2.883,-13.306,-43.091,-419.434,-80.112,-26.494,-165.322
 15:07:19.730,eb:33:2e:f9:57:b5, 2085-97-108 238:149:26:4808,-1.822,3.05,2.66,39.001,-56.824,-397.156,-79.75,-30.558,-165.569
 15:07:19.731,eb:33:2e:f9:57:b5, 2085-97-220 243:77:34:1460,-1.162,3.668,1.592,93.994,-12.146,-370.972,-78.865,-34.404,-165.927
 15:07:19.731,eb:33:2e:f9:57:b5, 2085-97-165 245:208:39:-998,-1.248,4.87,-0.179,201.721,50.537,-282.837,-76.608,-37.551,-167.091
 15:07:19.731,eb:33:2e:f9:57:b5, 2085-97-42 246:134:40:-1033,-1.227,5.078,-0.626,346.008,42.664,-145.142,-72.999,-39.457,-168.322
 15:07:19.731,eb:33:2e:f9:57:b5, 2085-97-64 247:47:31:-2467,-0.838,4.559,-0.659,440.979,42.725,-21.24,-68.373,-40.001,-169.14
 15:07:19.733,eb:33:2e:f9:57:b5, 2085-97-154 249:43:25:-3033,-0.862,3.382,-1.722,494.324,201.66,58.594,-62.88,-39.287,-170.266
 15:07:19.733,eb:33:2e:f9:57:b5, 2085-97-27 248:05:26:296,-1.084,3.15,-0.733,490.662,423.706,115.662,-55.964,-36.804,-173.32
 15:07:19.733,eb:33:2e:f9:57:b5, 2085-97-167 246:113:25:3292,-1.188,3.278,0.95,482.666,512.573,189.27,-49.114,-32.618,-176.781
 15:07:19.733,eb:33:2e:f9:57:b5, 2085-97-15 247:42:22:4556,-1.111,2.983,2.036,531.067,478.638,269.897,-42.83,-27.438,-179.094
 15:07:19.737,eb:33:2e:f9:57:b5, 2085-97-32 247:193:19:5307,-1.038,2.585,2.355,609.558,436.523,322.693,-36.804,-22.033,-179.676
 15:07:19.737,eb:33:2e:f9:57:b5, 2085-97-139 249:101:17:6871,-1.089,2.359,2.991,660.522,428.04,346.619,-30.427,-16.551,-179.264
 15:07:19.737,eb:33:2e:f9:57:b5, 2085-97-74 246:197:09:8202,-1.229,1.69,3.935,644.714,421.936,316.772,-24.126,-11.217,-178.154
 15:07:19.737,eb:33:2e:f9:57:b5, 2085-97-63 247:33:05:7515,-1.008,0.917,3.892,644.47,365.295,250.854,-17.787,-6.493,-176.957
 15:07:20.028,eb:33:2e:f9:57:b5, 2085-97-229 249:251:02:6943,-0.546,0.452,3.585,673.889,301.636,171.265,-11.288,-2.774,-175.765
 15:07:20.028,eb:33:2e:f9:57:b5, 2085-97-95 16:237:219:13658,2.81,0.303,3.155,703.43,278.259,82.52,-4.29,0.242,-174.952
 15:07:20.028,eb:33:2e:f9:57:b5, 2085-97-182 25:92:210:15778,3.442,-5.188,7.07,527.954,278.32,-36.804,31.3,13.898,-171.782
 15:07:20.029,eb:33:2e:f9:57:b5, 2085-113-58 00:50:251:-4665,3.708,-6.25,7.895,384.766,180.481,15.015,36.222,15.93,-170.513
 15:07:20.029,eb:33:2e:f9:57:b5, 2085-97-211 31:43:194:12997,4.266,-6.966,7.325,304.26,132.568,52.551,38.079,16.414,-169.893
 15:07:20.148,eb:33:2e:f9:57:b5, 2085-97-152 34:203:186:9145,3.969,-8.336,5.283,135.559,146.179,113.77,40.655,16.864,-168.316
 15:07:20.148,eb:33:2e:f9:57:b5, 2085-97-246 27:41:186:7639,3.121,-8.723,4.161,-20.325,127.441,171.448,41.808,17.029,-166.102
 15:07:20.148,eb:33:2e:f9:57:b5, 2085-97-165 20:157:196:4561,2.129,-8.237,2.76,-114.99,-10.315,205.994,41.556,16.122,-164.279
 15:07:20.148,eb:33:2e:f9:57:b5, 2085-97-189 14:43:208:1753,1.417,-6.573,1.516,-189.087,-79.773,224.976,40.364,14.216,-162.977
 15:07:20.150,eb:33:2e:f9:57:b5, 2085-97-133 08:64:218:1894,0.61,-5.433,0.714,-263.367,-22.217,213.257,38.375,12.431,-161.548
 15:07:20.150,eb:33:2e:f9:57:b5, 2085-97-148 15:187:252:9920,3.124,-3.898,1.322,-300.598,-45.227,206.299,35.826,10.981,-159.988
 15:07:20.150,eb:33:2e:f9:57:b5, 2085-97-93 16:200:219:8026,-0.73,-2.05,-3.344,-1122.131,281.433,-333.618,27.922,11.431,-160.593
 15:07:20.151,eb:33:2e:f9:57:b5, 2085-97-114 204:85:186:16299,-5.817,-0.844,7.854,-888.428,235.046,30.762,15.941,12.92,-161.906
 15:07:20.151,eb:33:2e:f9:57:b5, 2085-97-236 180:13:253:17111,-0.951,0.417,6.052,50.781,-137.573,103.577,13.299,13.365,-162.9
 15:07:20.151,eb:33:2e:f9:57:b5, 2085-97-103 24:60:255:-4281,4.435,2.458,1.051,-42.358,-487.854,8.118,13.101,9.113,-164.218
 15:07:20.151,eb:33:2e:f9:57:b5, 2085-97-10 45:19:01:-9528,2.326,1.716,-2.707,-72.083,-149.231,23.315,12.695,6.224,-164.416
 15:07:20.151,eb:33:2e:f9:57:b5, 2085-97-32 02:103:248:530,-1.021,0.336,-2.411,-56.152,173.035,62.317,12.063,6.801,-163.702
 15:07:20.154,eb:33:2e:f9:57:b5, 2085-97-139 248:09:01:4495,-1.1,-0.469,1.929,-26.062,134.827,30.457,11.887,8.317,-162.845
 15:07:20.154,eb:33:2e:f9:57:b5, 2085-97-105 248:12:255:4010,-0.565,-0.259,2.015,-42.419,70.679,32.959,11.58,9.212,-162.257
 15:07:20.154,eb:33:2e:f9:57:b5, 2085-97-174 01:203:255:2336,0.554,-0.194,1.389,-39.734,4.395,26.428,11.217,9.437,-161.922
 15:07:20.154,eb:33:2e:f9:57:b5, 2085-97-170 255:175:01:3209,-0.066,0.225,0.896,-36.133,38.33,42.175,10.898,9.531,-161.576
 15:07:20.154,eb:33:2e:f9:57:b5, 2085-97-38 02:13:05:4029,-0.576,0.172,1.741,-60.12,77.759,32.715,10.481,10.025,-161.104
 15:07:20.154,eb:33:2e:f9:57:b5, 2085-97-165 248:154:255:10676,-1.489,-0.404,4.506,-533.447,-299.316,-77.881,-22.626,7.328,-159.296
 15:07:20.154,eb:33:2e:f9:57:b5, 2085-97-68 241:88:00:6843,-3.112,0.994,5.034,-485.229,-445.496,-27.1,-27.532,3.642,-158.192
 15:07:20.154,eb:33:2e:f9:57:b5, 2085-97-116 226:146:243:-624,-3.014,-1.985,1.573,-434.998,-295.898,-163.635,-32.119,-0.082,-156.769
 15:07:20.178,eb:33:2e:f9:57:b5, 2085-97-199 232:177:06:1856,-2.238,0.009,-0.627,-227.051,-44.739,-319.458,-35.354,-2.917,-158.176
 15:07:20.178,eb:33:2e:f9:57:b5, 2085-97-195 238:210:19:2399,-2.067,2.656,1.22,316.406,15.991,-374.573,-18.21,-18.649,167.195
 15:07:20.178,eb:33:2e:f9:57:b5, 2085-97-221 239:180:16:2294,-1.969,2.292,1.117,309.387,5.127,-355.164,-13.854,-19.589,163.542
 15:07:20.178,eb:33:2e:f9:57:b5, 2085-97-164 241:80:16:3866,-1.348,1.957,1.339,275.085,32.166,-330.811,-9.657,-20.078,159.961
 15:07:21.318,eb:33:2e:f9:57:b5, 2085-113-81 00:91:229:-5122,-0.746,2.358,2.544,205.383,121.033,-292.236,-6.119,-19.759,156.627
 15:07:21.318,eb:33:2e:f9:57:b5, 2085-97-224 250:140:22:5554,-0.529,2.661,2.745,177.856,174.011,-257.141,-4.636,-19.061,155.127
 15:07:21.318,eb:33:2e:f9:57:b5, 2085-97-61 253:247:23:6070,-0.306,2.952,2.692,199.036,201.111,-112.671,-2.164,-17.238,153.04
 15:07:21.318,eb:33:2e:f9:57:b5, 2085-97-53 253:236:20:6346,-0.521,2.962,3.267,240.845,174.744,61.34,0.187,-15.271,152.842
 15:07:22.520,eb:33:2e:f9:57:b5, 2085-97-67 250:173:11:4590,-0.98,2.039,2.664,264.893,157.043,212.891,2.351,-13.722,154.429
 15:07:22.520,eb:33:2e:f9:57:b5, 2085-97-250 245:86:04:4227,-1.542,0.938,2.071,267.7,227.661,299.927,4.466,-11.92,157.286
 15:07:22.520,eb:33:2e:f9:57:b5, 2085-97-129 242:181:00:5148,-1.778,0.257,2.241,259.094,311.401,332.153,6.443,-9.465,160.807
 15:07:22.520,eb:33:2e:f9:57:b5, 2085-97-79 240:65:00:6315,-2.136,0.028,2.807,262.085,342.346,343.811,8.569,-6.537,164.647
 15:07:22.547,eb:33:2e:f9:57:b5, 2085-97-207 237:227:255:6438,-2.375,0.021,3.19,287.537,300.598,358.948,10.953,-3.944,168.662
 15:07:22.547,eb:33:2e:f9:57:b5, 2085-97-228 236:47:253:5306,-2.397,-0.16,2.865,322.876,257.385,361.755,13.892,-2,172.809
 15:07:22.547,eb:33:2e:f9:57:b5, 2085-97-56 237:45:253:5121,-2.272,-0.449,2.495,337.341,285.95,336.06,17.139,-0.33,176.891
 15:07:22.547,eb:33:2e:f9:57:b5, 2085-97-130 238:196:254:5620,-2.026,-0.212,2.647,331.787,327.942,319.336,20.621,1.609,-179
 15:07:22.549,eb:33:2e:f9:57:b5, 2085-97-129 240:188:251:6092,-1.396,-0.247,2.782,320.557,340.393,339.661,24.082,3.472,-174.699
 15:07:22.549,eb:33:2e:f9:57:b5, 2085-97-243 246:116:245:6430,-1.256,-0.734,2.839,293.396,341.003,393.311,27.609,4.949,-169.915
 15:07:22.549,eb:33:2e:f9:57:b5, 2085-97-157 244:15:228:9173,-1.422,-2.296,3.82,224.854,375.305,437.256,30.712,6.059,-164.465
 15:07:22.549,eb:33:2e:f9:57:b5, 2085-97-81 246:42:210:10734,-0.74,-4.629,5.009,163.635,342.529,441.345,33.344,6.833,-158.703
 15:07:22.609,eb:33:2e:f9:57:b5, 2085-97-48 253:78:197:8772,0.056,-6.702,4.88,115.845,281.86,404.724,35.343,6.949,-153.457
 15:07:22.609,eb:33:2e:f9:57:b5, 2085-97-110 02:166:193:6772,0.515,-7.634,3.615,90.698,262.024,363.586,36.974,6.916,-148.722
 15:07:22.610,eb:33:2e:f9:57:b5, 2085-97-159 06:225:188:5936,1.265,-8.061,3.203,50.659,201.904,326.355,38.205,6.658,-144.542
 15:07:22.610,eb:33:2e:f9:57:b5, 2085-97-125 13:218:186:3903,2.034,-8.592,2.391,-19.653,148.926,260.498,38.738,6.18,-141.152
 15:07:22.879,eb:33:2e:f9:57:b5, 2085-97-65 18:64:191:2424,2.563,-8.44,1.516,-75.5,115.112,191.223,38.485,5.834,-138.598
 15:07:22.879,eb:33:2e:f9:57:b5, 2085-97-130 240:190:244:3302,-2.302,-7.705,0.745,-104.492,41.504,133.24,37.738,5.449,-136.84
 15:07:22.879,eb:33:2e:f9:57:b5, 2085-97-41 236:251:253:6110,-2.509,-0.836,2.491,-203.43,-41.382,-93.14,-47.01,-43.182,-92.972
 15:07:22.879,eb:33:2e:f9:57:b5, 2085-97-87 236:143:10:5417,-2.415,0.466,3.071,-187.439,-36.743,-220.459,-48.137,-44.55,-94.175
 15:07:22.879,eb:33:2e:f9:57:b5, 2085-97-23 237:210:17:3312,-2.289,1.884,2.13,-125.61,-54.626,-290.527,-48.274,-46.873,-96.224
 15:07:23.061,eb:33:2e:f9:57:b5, 2085-113-58 00:53:07:-2970,-1.033,2.456,1.183,-31.25,-18.066,-315.796,-47.082,-49.318,-98.833
 15:07:23.061,eb:33:2e:f9:57:b5, 2085-97-95 250:213:253:1834,-1.417,1.431,4.149,-621.155,-497.009,-28.503,-74.103,-29.273,-7.597
 15:07:23.061,eb:33:2e:f9:57:b5, 2085-97-80 237:09:255:3746,-3.288,-0.121,1.692,-359.314,-265.686,24.353,-80.87,-29.844,-3.422
 15:07:23.061,eb:33:2e:f9:57:b5, 2085-97-80 227:98:10:6698,-3.503,0.612,2.907,-249.146,-56.824,-102.905,-84.298,-30.317,-1.989
 15:07:23.061,eb:33:2e:f9:57:b5, 2085-97-199 229:201:23:5336,-2.869,2.13,3.064,-233.704,39.062,-269.836,-86.627,-32.322,-2.247
 15:07:23.061,eb:33:2e:f9:57:b5, 2085-97-63 234:112:33:3366,-2.637,3.698,1.862,-131.958,95.337,-326.965,-87.77,-35.343,-3.334
 15:07:23.061,eb:33:2e:f9:57:b5, 2085-97-23 235:73:34:4153,-2.586,4.3,1.757,40.344,121.704,-280.762,-87.198,-38.353,-4.988
 15:07:23.061,eb:33:2e:f9:57:b5, 2085-97-243 235:154:32:4771,-2.414,4.227,2.255,161.194,105.042,-219.849,-84.798,-40.66,-6.768
 15:07:23.065,eb:33:2e:f9:57:b5, 2085-97-219 237:85:29:4593,-1.707,3.84,2.289,205.933,105.469,-166.748,-81.81,-42.44,-8.476
 15:07:23.065,eb:33:2e:f9:57:b5, 2085-97-43 242:223:255:5641,-1.75,0.188,2.483,569.702,179.26,182.983,-39.803,-35.228,-15.134
 15:07:23.065,eb:33:2e:f9:57:b5, 2085-97-210 241:22:253:6288,-1.812,-0.19,2.978,567.322,198.547,194.763,-34.343,-32.558,-14.705
 15:07:23.065,eb:33:2e:f9:57:b5, 2085-97-115 241:70:250:6017,-1.817,-0.532,3.036,554.077,210.083,203.613,-29.114,-29.773,-13.969
 15:07:23.147,eb:33:2e:f9:57:b5, 2085-97-171 241:64:248:6204,-1.732,-0.852,2.951,540.344,240.845,207.764,-24.099,-26.829,-13.024
 15:07:23.147,eb:33:2e:f9:57:b5, 2085-97-05 243:156:245:6408,-1.507,-1.08,3.087,538.269,235.718,227.417,-19.232,-23.769,-11.81
 15:07:23.147,eb:33:2e:f9:57:b5, 2085-97-75 243:217:238:6734,-1.519,-1.604,3.19,521.851,195.435,265.137,-14.617,-21.011,-9.91
 15:07:23.147,eb:33:2e:f9:57:b5, 2085-97-57 246:63:224:6476,-0.914,-2.977,3.19,444.519,200.5,275.94,-10.574,-18.578,-7.493
 15:07:23.658,eb:33:2e:f9:57:b5, 2085-97-08 252:177:212:7551,-8.483,-4.772,3.398,310.547,295.227,239.319,-7.515,-15.667,-5.246
 15:07:23.658,eb:33:2e:f9:57:b5, 2085-97-53 219:97:253:10003,-1.475,4.188,5.203,-53.345,-143.127,-56.091,-14.381,-0.813,-4.296
 15:07:23.658,eb:33:2e:f9:57:b5, 2085-97-142 02:09:01:111,2.604,-0.573,2.395,-17.212,-306.946,1.038,-14.908,-3.658,-4.103
 15:07:23.658,eb:33:2e:f9:57:b5, 2085-97-214 19:202:03:-1433,1.612,0.452,-1.414,-41.931,-171.143,-9.705,-15.233,-6.35,-3.686
 15:07:23.660,eb:33:2e:f9:57:b5, 2085-97-216 04:48:01:593,-0.232,-0.014,-0.311,-39.307,14.832,23.438,-15.716,-6.795,-3.428
 15:07:23.660,eb:33:2e:f9:57:b5, 2085-97-145 250:222:252:738,-1.398,0.825,1.805,-655.823,-523.01,-19.043,-82.766,-29.251,13.244
 15:07:23.660,eb:33:2e:f9:57:b5, 2085-97-113 236:06:255:2678,-3.321,-0.103,0.812,-334.595,-276.062,75.012,-89.604,-28.976,17.765
 15:07:23.660,eb:33:2e:f9:57:b5, 2085-97-77 227:15:02:6988,-3.657,0.08,2.867,-192.139,-83.008,2.747,-92.615,-28.422,19.424
 15:07:23.663,eb:33:2e:f9:57:b5, 2085-97-22 228:72:13:6230,-3.048,1.002,3.342,-197.571,55.603,-187.5,-94.609,-29.399,19.578
 15:07:23.663,eb:33:2e:f9:57:b5, 2085-97-43 235:182:25:4615,-2.322,2.468,2.572,-155.396,133.423,-285.95,-95.784,-31.915,18.611
 15:07:23.663,eb:33:2e:f9:57:b5, 2085-97-242 237:126:30:5081,-2.174,3.619,2.189,-0.122,172.119,-275.269,-95.647,-34.969,17.045
 15:07:23.663,eb:33:2e:f9:57:b5, 2085-97-179 239:57:31:6155,-1.896,3.873,2.819,128.357,146.606,-207.458,-93.631,-37.43,15.2
 15:07:23.720,eb:33:2e:f9:57:b5, 2085-97-80 242:120:30:6167,-1.555,3.859,3.062,181.091,146.118,-145.996,-90.945,-39.21,13.48
 15:07:23.720,eb:33:2e:f9:57:b5, 2085-97-04 244:194:29:5276,-1.531,3.763,2.838,217.224,178.528,-88.684,-87.583,-40.342,11.338
 15:07:23.720,eb:33:2e:f9:57:b5, 2085-97-149 243:49:28:4309,-1.497,3.659,2.306,292.48,182.495,-16.174,-83.43,-40.704,8.877
 15:07:23.720,eb:33:2e:f9:57:b5, 2085-97-160 244:21:25:3768,-1.356,3.359,1.955,376.343,176.758,51.025,-78.563,-40.199,6.625
 15:07:23.720,eb:33:2e:f9:57:b5, 2085-97-32 245:108:21:3813,-1.316,2.923,1.792,433.838,193.542,96.13,-73.141,-39.007,4.543
 15:07:23.720,eb:33:2e:f9:57:b5, 2085-97-65 246:190:17:3923,-1.097,2.426,1.926,476.379,201.477,130.798,-67.407,-37.249,2.67
 15:07:23.720,eb:33:2e:f9:57:b5, 2085-97-32 247:195:15:4215,-1.156,2.082,1.895,515.808,213.928,163.879,-61.529,-35.019,1.148
 15:07:23.720,eb:33:2e:f9:57:b5, 2085-97-130 246:85:12:5385,-1.25,1.788,2.34,551.758,207.764,203.369,-55.602,-32.322,0.132
 15:07:23.722,eb:33:2e:f9:57:b5, 2085-97-135 245:79:08:6198,-2.213,1.291,2.854,575.134,189.697,226.99,-49.79,-29.394,-0.159
 15:07:23.723,eb:33:2e:f9:57:b5, 2085-97-107 239:130:228:9126,-1.669,-3.013,5.307,-608.765,-255.737,267.151,-85.193,-6.323,27.51
 15:07:23.723,eb:33:2e:f9:57:b5, 2085-97-105 243:160:232:10934,-1.634,-3.392,4.313,-664.246,33.63,13.55,-91.813,-5.12,28.515
 15:07:23.723,eb:33:2e:f9:57:b5, 2085-97-228 241:48:250:14982,-1.8,-1.905,6.729,-563.538,91.003,-186.279,-97.773,-6.191,27.68
 15:07:23.723,eb:33:2e:f9:57:b5, 2085-97-109 241:112:06:14008,-2.026,0.242,7.232,-437.134,-13.672,-268.127,-102.711,-8.569,27.79
 15:07:23.723,eb:33:2e:f9:57:b5, 2085-97-136 237:172:10:11787,-2.557,1.1,6.399,-340.149,-59.387,-327.332,-106.529,-11.327,28.971
 15:07:23.723,eb:33:2e:f9:57:b5, 2085-97-66 235:168:15:8828,-2.511,1.632,4.994,-239.38,-57.556,-388.55,-109.786,-14.573,30.74
 15:07:23.723,eb:33:2e:f9:57:b5, 2085-97-186 236:31:20:8188,-2.303,2.247,3.984,-137.573,-10.986,-426.819,-112.132,-18.292,32.613
 15:07:23.809,eb:33:2e:f9:57:b5, 2085-97-31 238:255:24:8191,-2.155,2.803,4.049,-61.829,19.409,-445.862,-113.665,-22.379,34.338
 15:07:23.809,eb:33:2e:f9:57:b5, 2085-97-156 239:233:28:7016,-1.906,3.421,3.771,-3.235,-13.489,-429.199,-114.752,-26.422,36.26
 15:07:23.809,eb:33:2e:f9:57:b5, 2085-97-50 241:244:28:5454,-1.739,3.675,3.029,58.777,-73.547,-372.314,-115.582,-29.844,38.677
 15:07:23.809,eb:33:2e:f9:57:b5, 2085-97-79 244:104:31:3157,-1.135,3.667,2.212,111.389,-92.957,-321.594,-116.087,-32.525,41.375
 15:07:23.868,eb:33:2e:f9:57:b5, 2085-97-53 247:115:38:701,-1.045,4.429,0.769,169.434,-29.48,-269.104,-115.928,-34.92,43.621
 15:07:23.868,eb:33:2e:f9:57:b5, 2085-97-89 247:95:39:-470,-1.127,4.937,0.047,263.306,-0.061,-171.631,-114.467,-36.837,44.874
 15:07:23.868,eb:33:2e:f9:57:b5, 2085-97-64 246:66:37:-2384,-1.236,4.864,-0.682,363.037,4.822,-87.952,-111.638,-37.985,45.467
 15:07:23.868,eb:33:2e:f9:57:b5, 2085-97-01 246:16:31:-3963,-1.298,4.259,-1.686,459.351,54.749,-30.09,-107.435,-38.568,45.396
 15:07:24.198,eb:33:2e:f9:57:b5, 2085-97-168 245:200:27:-2496,-1.299,3.619,-1.75,538.513,173.157,3.784,-101.486,-38.958,43.973
 15:07:24.198,eb:33:2e:f9:57:b5, 2085-97-38 245:120:26:-237,-1.443,3.379,-0.623,568.42,284.363,29.053,-93.983,-39.084,40.924
 15:07:24.198,eb:33:2e:f9:57:b5, 2085-97-03 244:125:24:1506,-1.537,3.198,0.333,589.417,356.14,58.472,-85.573,-38.622,36.733
 15:07:24.198,eb:33:2e:f9:57:b5, 2085-97-135 243:238:22:3671,-1.582,2.951,1.208,640.503,399.292,89.844,-76.58,-37.277,32.113
 15:07:24.200,eb:33:2e:f9:57:b5, 2085-97-108 243:194:21:6469,-1.536,2.794,2.435,690.491,426.453,109.558,-67.236,-35.019,27.62
 15:07:24.200,eb:33:2e:f9:57:b5, 2085-97-234 243:162:21:8600,-1.666,2.695,3.698,724.243,438.538,118.591,-57.92,-31.992,23.632
 15:07:24.200,eb:33:2e:f9:57:b5, 2085-97-173 239:225:16:10777,-2.185,2.613,4.757,749.939,398.499,136.047,-48.994,-28.449,20.561
 15:07:24.200,eb:33:2e:f9:57:b5, 2085-97-236 238:235:06:9411,-2.259,1.405,5.122,767.456,306.152,114.014,-40.627,-25.12,18.896
 15:07:24.468,eb:33:2e:f9:57:b5, 2085-97-74 238:07:00:8633,-1.929,0.349,4.4,773.865,312.866,46.021,-32.382,-22.159,17.639
 15:07:24.468,eb:33:2e:f9:57:b5, 2085-97-163 245:206:250:7075,-0.535,-0.338,3.878,766.663,336.243,-10.742,-24.142,-19.259,16.133
 15:07:24.468,eb:33:2e:f9:57:b5, 2085-97-29 01:55:248:8046,0.606,-0.767,3.354,746.033,443.359,-21.484,-16.1,-15.677,14.562
 15:07:24.468,eb:33:2e:f9:57:b5, 2085-97-152 05:242:235:13600,0.893,-1.458,5.185,726.257,463.867,75.745,-8.531,-11.025,13.788
 15:07:24.500,eb:33:2e:f9:57:b5, 2085-97-39 10:40:211:14307,1.821,-3.958,7.222,623.23,340.881,157.593,-1.868,-6.998,14.782
 15:07:24.500,eb:33:2e:f9:57:b5, 2085-97-146 19:56:184:13763,2.947,-7.423,6.644,434.753,367.188,145.203,3.203,-3.631,16.414
 15:07:24.500,eb:33:2e:f9:57:b5, 2085-97-75 25:45:172:15785,3.246,-9.935,7.149,229.187,458.252,82.092,6.372,0.511,17.946
 15:07:24.500,eb:33:2e:f9:57:b5, 2085-97-173 27:83:166:15773,3.629,-10.952,8.055,75.378,341.064,61.035,7.806,4.515,19.138
 15:07:24.528,eb:33:2e:f9:57:b5, 2085-97-245 26:78:168:11119,2.859,-11.167,6.647,-24.902,151.611,51.27,8.075,6.735,20.078
 15:07:24.528,eb:33:2e:f9:57:b5, 2085-97-249 19:131:178:5114,2.371,-10.545,4.006,-100.891,12.207,27.405,7.674,7.427,20.632
 15:07:24.528,eb:33:2e:f9:57:b5, 2085-97-147 18:108:201:1082,2.167,-8.344,1.28,-203.125,5.31,-16.479,6.141,7.383,20.709
 15:07:24.528,eb:33:2e:f9:57:b5, 2085-97-56 14:185:227:271,1.424,-5.23,0.234,-288.147,63.171,-6.775,3.724,7.855,20.605
 15:07:24.530,eb:33:2e:f9:57:b5, 2085-97-73 229:77:252:14375,-0.198,-1.759,-0.108,-309.265,48.767,87.952,0.78,8.41,21.083
 15:07:24.530,eb:33:2e:f9:57:b5, 2085-97-177 245:101:239:9972,-1.967,-1.667,3.953,-497.437,-232.849,183.899,-70.972,1.967,26.268
 15:07:24.530,eb:33:2e:f9:57:b5, 2085-97-38 238:222:231:12412,-1.872,-2.958,5.836,-473.999,-174.438,99.06,-75.482,2.9,28.9
 15:07:24.530,eb:33:2e:f9:57:b5, 2085-97-54 243:129:239:10685,-1.507,-2.75,5.271,-578.796,5.92,-102.966,-80.645,2.571,29.691
 15:07:24.532,eb:33:2e:f9:57:b5, 2085-97-155 242:34:252:13504,-1.968,-1.263,5.823,-529.724,81.787,-208.435,-86.303,0.95,28.85
 15:07:24.532,eb:33:2e:f9:57:b5, 2085-97-103 238:162:03:14024,-2.373,0.116,6.986,-445.19,-6.042,-246.094,-90.895,-1.313,28.411
 15:07:24.532,eb:33:2e:f9:57:b5, 2085-97-34 235:16:07:12186,-2.917,0.617,6.399,-392.822,-42.175,-299.683,-95.065,-4.01,28.911
 15:07:24.532,eb:33:2e:f9:57:b5, 2085-97-181 231:20:13:10846,-3.018,1.235,5.648,-341.309,-23.315,-373.84,-98.564,-7.328,29.597
 15:07:24.534,eb:33:2e:f9:57:b5, 2085-97-161 232:124:19:9469,0.814,2.022,4.955,-268.127,-14.465,-426.819,-101.739,-11.283,30.509
 15:07:24.534,eb:33:2e:f9:57:b5, 2085-97-46 08:164:230:12180,1.281,-2.031,5.479,746.155,253.113,94.604,-4.048,-4.449,12.42
 15:07:24.534,eb:33:2e:f9:57:b5, 2085-97-112 15:93:212:11570,2.468,-4.246,6.041,568.726,236.694,145.203,2.455,-2.082,13.661
 15:07:24.534,eb:33:2e:f9:57:b5, 2085-97-191 23:144:196:13270,3.25,-6.651,5.828,373.474,354.065,181.152,7.026,0.725,15.579
 15:07:24.709,eb:33:2e:f9:57:b5, 2085-97-167 25:11:185:15570,2.896,-8.101,7.176,180.847,412.17,224.609,9.838,4.356,18.199
 15:07:24.709,eb:33:2e:f9:57:b5, 2085-97-184 20:233:174:14748,2.39,-9.594,7.691,35.706,292.297,248.901,11.074,7.487,21.259
 15:07:24.709,eb:33:2e:f9:57:b5, 2085-97-101 18:90:172:10813,2.223,-10.435,6.399,-10.559,102.051,223.083,11.558,8.811,24.005
 15:07:24.709,eb:33:2e:f9:57:b5, 2085-97-11 17:238:182:5636,2.097,-9.936,3.637,-97.351,1.16,117.859,11.558,8.893,25.84
 15:07:24.711,eb:33:2e:f9:57:b5, 2085-97-58 15:135:208:1676,1.6,-7.444,1.582,-178.528,-36.255,49.683,10.256,8.542,26.57
 15:07:24.711,eb:33:2e:f9:57:b5, 2085-97-104 11:187:231:-572,1.402,-4.49,0.215,-209.9,-36.743,60.974,8.536,8.091,27.059
 15:07:24.711,eb:33:2e:f9:57:b5, 2085-113-81 00:213:123:1196,-3.569,-1.679,-0.596,-260.986,35.767,118.53,6.312,7.927,27.949
 15:07:24.711,eb:33:2e:f9:57:b5, 2085-97-146 31:163:19:-6373,1.252,-3.088,7.776,-1052.063,-376.465,-545.715,3.109,8.24,28.152
 15:07:24.716,eb:33:2e:f9:57:b5, 2085-97-209 197:224:166:19291,-5.17,-6.635,4.601,-653.137,132.019,-5.615,-7.125,7.982,25.142
 15:07:24.716,eb:33:2e:f9:57:b5, 2085-97-76 204:117:22:12025,-2.549,2.338,5.013,-56.152,-189.087,-17.334,-8.602,8.036,24.307
 15:07:24.716,eb:33:2e:f9:57:b5, 2085-97-145 24:245:02:-4065,3.817,-1.001,3.896,-114.624,-515.747,-48.34,-9.772,4.12,24.615
 15:07:24.716,eb:33:2e:f9:57:b5, 2085-97-41 37:186:02:-6526,2.071,0.234,-2.166,-80.627,-214.355,18.25,-10.349,0.884,25.615
 15:07:24.830,eb:33:2e:f9:57:b5, 2085-97-69 00:115:251:1967,-2.128,-0.206,-1.277,-66.04,104.37,32.593,-11.041,0.989,26.054
 15:07:24.830,eb:33:2e:f9:57:b5, 2085-97-119 242:126:252:5010,0.189,-0.468,2.933,-51.453,41.443,23.987,-11.426,2.164,26.246
 15:07:24.830,eb:33:2e:f9:57:b5, 2085-97-27 06:211:01:2139,0.757,0.346,1.446,-46.082,-13.55,23.682,-11.854,2.027,26.472
 15:07:24.830,eb:33:2e:f9:57:b5, 2085-97-00 03:252:02:2719,0.064,0.279,1.121,-69.519,88.013,33.386,-12.283,2.571,26.702
 15:07:24.948,eb:33:2e:f9:57:b5, 2085-97-157 254:21:04:5661,-0.447,0.252,2.169,-96.863,130.371,44.617,-13.107,3.851,26.823
 15:07:24.948,eb:33:2e:f9:57:b5, 2085-97-148 243:130:12:8041,-1.334,0.352,3.503,-167.969,99.304,50.476,-14.255,5.169,27.125
 15:07:24.948,eb:33:2e:f9:57:b5, 2085-97-230 248:217:08:10470,-0.342,1.438,4.119,-751.221,-28.015,-128.784,-36.321,5.543,28.026
 15:07:24.948,eb:33:2e:f9:57:b5, 2085-97-105 03:70:254:11501,0.989,0.82,5.537,-830.505,24.17,-170.105,-44.33,4.576,26.79
 15:07:24.950,eb:33:2e:f9:57:b5, 2085-97-62 11:225:240:14761,1.096,-1.083,6.677,-822.693,-27.466,-171.082,-52.723,3.428,25.483
 15:07:24.950,eb:33:2e:f9:57:b5, 2085-97-05 253:132:242:12048,-0.483,-2.712,6.642,-795.776,-290.466,-121.765,-60.595,1.318,26.219
 15:07:24.950,eb:33:2e:f9:57:b5, 2085-97-172 00:09:231:3874,-0.537,-2.479,3.353,-696.594,-353.516,-122.192,-68.137,-1.241,28.927
 15:07:24.950,eb:33:2e:f9:57:b5, 2085-97-228 244:122:234:9832,-1.795,-2.299,3.796,-437.317,-286.255,-39.978,-73.383,-2.928,31.663
 15:07:24.979,eb:33:2e:f9:57:b5, 2085-97-77 240:94:238:12958,-1.897,-2.762,5.857,-444.641,-124.268,-126.465,-77.745,-4.213,33.393
 15:07:24.979,eb:33:2e:f9:57:b5, 2085-97-12 242:165:247:13191,-1.583,-1.675,6.321,-543.152,-3.479,-232.544,-82.568,-6.152,33.574
 15:07:24.980,eb:33:2e:f9:57:b5, 2085-97-06 243:246:01:13872,-1.742,-0.42,6.591,-559.631,13.245,-273.499,-88.116,-8.745,33.212
 15:07:24.980,eb:33:2e:f9:57:b5, 2085-97-63 241:248:08:12040,-2.09,0.813,6.562,-497.986,-52.49,-251.099,-93.235,-11.371,33.409
 15:07:24.981,eb:33:2e:f9:57:b5, 2085-97-154 236:131:11:9347,-2.665,1.334,5.179,-366.394,-94.482,-205.811,-97.751,-13.541,34.442
 15:07:24.981,eb:33:2e:f9:57:b5, 2085-97-46 234:201:12:7470,-2.817,1.521,4.049,-238.403,-70.374,-191.284,-100.712,-15.287,35.607
 15:07:24.981,eb:33:2e:f9:57:b5, 2085-97-253 232:211:14:7754,-2.875,1.705,3.612,-169.495,31.067,-219.177,-102.832,-17.26,36.2
 15:07:24.981,eb:33:2e:f9:57:b5, 2085-97-180 233:94:18:8004,-2.654,2.058,3.952,-134.705,86.609,-258.606,-104.008,-19.742,36.013
 15:07:24.981,eb:33:2e:f9:57:b5, 2085-97-202 235:200:21:6922,-2.448,2.524,3.676,-96.008,78.43,-278.625,-105.106,-22.593,35.859
 15:07:24.982,eb:33:2e:f9:57:b5, 2085-97-224 236:130:23:5798,-2.202,2.847,3.105,-40.527,38.879,-266.541,-105.842,-25.389,36.041
 15:07:24.982,eb:33:2e:f9:57:b5, 2085-97-180 239:243:24:3980,-1.858,3.019,2.385,18.127,5.981,-243.347,-106.199,-27.878,36.65
 15:07:24.982,eb:33:2e:f9:57:b5, 2085-97-41 242:42:28:1498,-1.407,3.276,1.404,77.026,18.799,-221.741,-106.002,-30.125,37.282
 15:07:25.037,eb:33:2e:f9:57:b5, 2085-97-30 245:192:37:-1505,-1.221,4.094,-0.232,175.415,84.167,-180.969,-104.815,-32.223,37.386
 15:07:25.037,eb:33:2e:f9:57:b5, 2085-97-135 245:75:26:2060,-1.393,5.002,-1.328,301.697,123.23,-101.746,-101.92,-33.838,36.53
 15:07:25.037,eb:33:2e:f9:57:b5, 2085-97-87 244:62:25:4713,-1.487,3.247,1.657,662.354,396.362,202.82,-68.736,-28.147,24.879
 15:07:25.037,eb:33:2e:f9:57:b5, 2085-97-127 244:248:22:6769,-1.358,3.009,2.86,693.176,400.452,234.009,-60.623,-24.434,21.885
 15:07:25.068,eb:33:2e:f9:57:b5, 2085-97-73 245:100:22:8764,-1.545,2.817,3.732,729.065,386.169,258.728,-52.701,-20.209,19.803
 15:07:25.068,eb:33:2e:f9:57:b5, 2085-97-203 241:15:15:10620,-1.699,2.467,4.913,765.747,313.904,290.771,-44.918,-15.782,18.902
 15:07:25.068,eb:33:2e:f9:57:b5, 2085-97-194 241:101:07:9067,-1.86,1.348,4.792,776.672,248.84,268.188,-37.266,-11.926,19.292
 15:07:25.068,eb:33:2e:f9:57:b5, 2085-97-46 242:168:00:7199,-1.259,0.503,4.027,784.424,237,223.45,-29.592,-8.558,19.984
 15:07:25.098,eb:33:2e:f9:57:b5, 2085-97-74 250:04:250:6615,-0.504,-0.266,3.124,793.274,266.479,200.378,-21.775,-5.438,20.797
 15:07:25.098,eb:33:2e:f9:57:b5, 2085-97-51 253:242:236:8308,-0.243,-1.457,3.753,763.428,295.776,208.862,-14.041,-2.049,21.83
 15:07:25.098,eb:33:2e:f9:57:b5, 2085-97-15 255:175:223:9011,-0.055,-3.255,4.287,708.435,254.456,237.061,-6.685,1.055,23.549
 15:07:25.098,eb:33:2e:f9:57:b5, 2085-97-223 00:83:206:10457,0.514,-5.018,4.661,592.834,241.638,247.009,-0.071,3.615,25.862
 15:07:25.098,eb:33:2e:f9:57:b5, 2085-97-102 07:227:187:11415,1.358,-7.471,5.378,420.044,294.189,197.205,5.114,6.163,28.235
 15:07:25.129,eb:33:2e:f9:57:b5, 2085-113-81 00:253:122:1709,1.706,-9.16,5.899,268.066,341.003,144.165,8.723,9.196,30.295
 15:07:25.129,eb:33:2e:f9:57:b5, 2085-97-236 15:189:173:12833,2.006,-9.722,6.32,201.538,318.848,125.122,10.031,10.723,31.234
 15:07:25.129,eb:33:2e:f9:57:b5, 2085-97-190 16:82:171:11570,2.209,-10.55,5.959,89.905,181.091,75.684,11.656,12.975,32.695
 15:07:25.129,eb:33:2e:f9:57:b5, 2085-97-45 18:65:175:8820,2.311,-10.408,5.163,25.635,20.752,14.709,12.612,13.804,33.426
 15:07:25.159,eb:33:2e:f9:57:b5, 2085-97-114 18:153:187:4393,2.229,-9.532,3.177,-51.025,-71.655,-51.575,12.398,13.48,33.118
 15:07:25.159,eb:33:2e:f9:57:b5, 2085-97-144 16:80:210:1823,1.794,-7.182,1.419,-144.836,-94.238,-82.458,11.376,12.81,32.278
 15:07:25.159,eb:33:2e:f9:57:b5, 2085-97-249 12:113:228:113,1.474,-4.446,0.5,-207.581,-101.501,-47.791,9.344,11.948,31.41
 15:07:25.159,eb:33:2e:f9:57:b5, 2085-97-209 10:190:246:-363,1.428,-2.392,-0.193,-224.609,-46.753,12.024,7.289,11.228,31.201
 15:07:25.248,eb:33:2e:f9:57:b5, 2085-97-01 242:21:181:14208,2.068,-0.219,0.109,-273.438,161.56,211.67,4.999,11.272,31.888
 15:07:25.248,eb:33:2e:f9:57:b5, 2085-97-191 03:171:200:15369,-3.207,-1.447,3.611,-763.306,75.5,-27.283,-3.159,11.151,30.602
 15:07:25.248,eb:33:2e:f9:57:b5, 2085-97-03 185:179:14:17707,-2.478,5.98,4.308,6.348,-12.024,117.981,-5.098,9.932,28.444
 15:07:25.248,eb:33:2e:f9:57:b5, 2085-97-150 17:03:255:-2721,2.954,0.452,4.088,-104.98,-442.871,-24.78,-5.779,6.74,28.779
 15:07:25.279,eb:33:2e:f9:57:b5, 2085-97-249 47:156:06:-8626,2.269,0.044,-2.062,-76.904,-252.747,-5.371,-6.339,3.62,29.702
 15:07:25.279,eb:33:2e:f9:57:b5, 2085-97-04 02:45:252:789,-1.929,0.151,-1.603,-76.538,182.007,45.593,-6.877,4.136,30.229
 15:07:25.279,eb:33:2e:f9:57:b5, 2085-97-95 238:163:252:6009,-1.093,-0.612,2.619,-51.819,132.874,29.724,-7.471,6.042,30.372
 15:07:25.279,eb:33:2e:f9:57:b5, 2085-97-125 07:247:03:2108,0.197,-0.096,2.278,-47.729,0.854,12.329,-7.795,6.504,30.564
 15:07:25.279,eb:33:2e:f9:57:b5, 2085-97-134 01:218:01:2921,0.424,0.126,1.376,-74.097,96.069,25.818,-8.416,7.185,30.707
 15:07:25.279,eb:33:2e:f9:57:b5, 2085-97-34 00:44:05:5730,-0.239,0.349,1.923,-104.126,161.682,51.941,-9.108,8.558,30.927
 15:07:25.279,eb:33:2e:f9:57:b5, 2085-97-08 251:243:04:7869,-0.555,0.621,3.15,-176.819,153.87,79.102,-10.432,10.223,31.339
 15:07:25.279,eb:33:2e:f9:57:b5, 2085-97-211 250:250:06:7695,-0.898,0.742,3.768,-286.194,78.796,56.396,-12.53,11.464,31.838
 15:07:25.370,eb:33:2e:f9:57:b5, 2085-97-152 246:104:12:8365,-1.266,1.072,3.831,-381.287,36.255,15.076,-15.87,12.096,32.047
 15:07:25.370,eb:33:2e:f9:57:b5, 2085-97-105 244:194:14:8543,-1.401,1.841,4.214,-496.765,-21.729,-18.25,-20.154,12.096,32.053
 15:07:25.370,eb:33:2e:f9:57:b5, 2085-97-88 244:201:16:8636,-1.369,2.249,3.995,-632.812,-54.443,-74.951,-25.917,11.497,31.772
 15:07:25.370,eb:33:2e:f9:57:b5, 2085-97-223 245:113:12:11699,-1.179,1.942,4.8,-765.564,-74.28,-125.488,-32.926,10.404,31.207
 15:07:25.372,eb:33:2e:f9:57:b5, 2085-97-158 244:192:00:12472,-1.457,1.234,6.389,-857.178,-94.36,-148.01,-41.27,8.888,30.547
 15:07:25.372,eb:33:2e:f9:57:b5, 2085-97-174 245:05:244:14276,-0.805,-0.631,6.138,-814.026,-140.137,-170.898,-49.493,7.015,30.245
 15:07:25.372,eb:33:2e:f9:57:b5, 2085-97-163 247:100:239:14628,-1.84,-2.198,7.197,-866.516,-335.022,-176.331,-57.717,4.12,31.207
 15:07:25.372,eb:33:2e:f9:57:b5, 2085-97-67 247:242:239:4108,-0.179,-0.032,5.52,-913.025,-386.963,-99.915,-66.407,1,33.893
 15:07:25.428,eb:33:2e:f9:57:b5, 2085-97-158 249:20:244:5551,-1.817,-2.351,0.971,-631.531,-251.038,-12.085,-74.279,-0.873,36.623
 15:07:25.428,eb:33:2e:f9:57:b5, 2085-97-162 236:43:232:13337,-2.563,-2.477,4.363,-452.515,-117.004,28.748,-79.217,-0.934,38.408
 15:07:25.428,eb:33:2e:f9:57:b5, 2085-97-170 235:88:234:14545,-2.325,-3.143,7.149,-511.78,-46.265,-131.47,-83.952,-1.549,39.133
 15:07:25.428,eb:33:2e:f9:57:b5, 2085-97-160 239:134:248:12481,-1.807,-1.861,6.666,-563.232,27.405,-297.607,-89.225,-3.851,39.034
 15:07:25.458,eb:33:2e:f9:57:b5, 2085-97-31 241:172:05:10829,-2.17,-0.039,5.57,-466.797,63.538,-361.938,-94.406,-7.278,38.633
 15:07:25.458,eb:33:2e:f9:57:b5, 2085-97-52 236:33:12:10789,-2.595,1.221,5.261,-297.791,22.4,-358.032,-97.888,-10.915,38.524
 15:07:25.458,eb:33:2e:f9:57:b5, 2085-97-99 235:207:13:9463,-2.528,1.655,5.025,-174.255,-51.147,-359.131,-100.305,-14.392,39.331
 15:07:25.458,eb:33:2e:f9:57:b5, 2085-97-24 236:241:15:7954,-2.431,1.831,4.211,-121.277,-28.564,-393.372,-101.783,-17.974,40.507
 15:07:25.488,eb:33:2e:f9:57:b5, 2085-97-45 237:189:19:7262,-2.298,2.209,3.657,-92.957,43.762,-432.678,-103.123,-22.066,41.347
 15:07:25.489,eb:33:2e:f9:57:b5, 2085-97-116 238:36:25:7300,-1.907,2.816,3.552,-49.744,70.068,-437.5,-103.716,-26.477,41.682
 15:07:25.489,eb:33:2e:f9:57:b5, 2085-97-111 243:180:30:5479,-1.315,3.487,3.317,1.587,52.917,-398.376,-104.183,-30.685,42.177
 15:07:25.489,eb:33:2e:f9:57:b5, 2085-97-112 248:142:40:1863,-0.886,4.379,1.87,84.045,65.796,-328.003,-103.612,-34.338,42.396
 15:07:25.518,eb:33:2e:f9:57:b5, 2085-97-36 250:85:44:084,-0.708,5.466,0.356,208.374,65.857,-184.021,-102.036,-36.98,42.242
 15:07:25.518,eb:33:2e:f9:57:b5, 2085-97-182 250:132:40:-716,-0.743,5.385,0.012,328.247,37.476,-21.667,-98.663,-37.963,41.666
 15:07:25.518,eb:33:2e:f9:57:b5, 2085-97-20 250:246:33:-3282,-0.668,4.704,-0.94,400.269,70.618,99.182,-94.559,-37.529,41.017
 15:07:25.518,eb:33:2e:f9:57:b5, 2085-97-97 250:214:28:-3740,-0.939,3.829,-1.938,455.078,223.389,182.678,-88.802,-36.079,38.974
 15:07:25.578,eb:33:2e:f9:57:b5, 2085-97-37 246:176:28:-1143,-1.453,3.58,-1.286,495.972,397.217,243.469,-81.898,-33.651,35.244
 15:07:25.578,eb:33:2e:f9:57:b5, 2085-97-205 243:174:26:1665,-1.478,3.518,0.19,546.387,456.299,305.359,-74.075,-29.993,30.729
 15:07:25.578,eb:33:2e:f9:57:b5, 2085-97-164 244:144:23:3593,-1.357,3.119,1.293,608.093,451.172,351.318,-66.616,-25.34,27.169
 15:07:25.578,eb:33:2e:f9:57:b5, 2085-97-189 245:212:21:5855,-1.259,2.829,2.27,659.851,447.815,374.268,-58.997,-19.984,24.549
 15:07:25.609,eb:33:2e:f9:57:b5, 2085-97-252 245:34:19:8306,-1.222,2.603,3.492,689.026,425.415,380.554,-51.762,-14.376,23.016
 15:07:25.609,eb:33:2e:f9:57:b5, 2085-97-78 244:210:12:9912,-1.68,2.036,4.427,700.5,370.3,363.525,-44.692,-8.948,22.544
 15:07:25.609,eb:33:2e:f9:57:b5, 2085-97-206 240:185:03:9972,-1.963,1.062,4.98,716.248,266.052,303.223,-37.656,-4.367,22.956
 15:07:25.609,eb:33:2e:f9:57:b5, 2085-97-117 239:218:250:8283,-1.926,-0.08,4.481,750.366,163.391,197.205,-30.361,-1.274,23.846
 15:07:25.637,eb:33:2e:f9:57:b5, 2085-97-130 242:139:244:5665,-1.236,-1.118,3.381,777.649,128.723,54.81,-22.687,0.467,24.313
 15:07:25.637,eb:33:2e:f9:57:b5, 2085-97-235 251:65:244:4499,0.312,-1.526,2.417,774.292,190.979,-67.688,-14.914,1.923,23.632
 15:07:25.637,eb:33:2e:f9:57:b5, 2085-97-64 07:65:243:5514,1.119,-1.412,2.141,745.117,289.49,-75.5,-7.399,4.158,22.335
 15:07:25.637,eb:33:2e:f9:57:b5, 2085-97-66 09:144:229:10397,1.169,-2.306,4.209,678.65,289.795,66.406,-0.242,7.202,22.055
 15:07:25.697,eb:33:2e:f9:57:b5, 2085-97-100 10:93:207:9663,1.561,-4.529,5.148,517.883,226.624,177.917,5.955,9.608,23.527
 15:07:25.697,eb:33:2e:f9:57:b5, 2085-113-58 00:210:00:-5460,1.856,-7.743,4.173,351.929,303.955,192.566,10.607,11.854,25.878
 15:07:25.697,eb:33:2e:f9:57:b5, 2085-97-95 17:177:178:9413,2.462,-8.911,4.098,292.358,371.948,171.021,12.464,13.365,27.142
 15:07:25.698,eb:33:2e:f9:57:b5, 2085-97-141 21:51:175:12858,2.907,-10.037,5.534,181.335,385.193,113.586,15.672,16.93,29.647
 15:07:25.729,eb:33:2e:f9:57:b5, 2085-97-176 24:115:177:11713,3.25,-9.978,6.323,75.684,168.396,62.256,17.386,19.352,31.311
 15:07:25.729,eb:33:2e:f9:57:b5, 2085-97-177 26:67:185:6397,3.335,-9.513,4.57,11.658,-43.945,24.78,18.177,19.622,31.959
 15:07:25.729,eb:33:2e:f9:57:b5, 2085-97-200 25:231:203:2276,2.784,-7.831,1.845,-73.425,-80.75,-1.831,17.792,18.869,31.783
 15:07:25.729,eb:33:2e:f9:57:b5, 2085-97-207 17:01:224:1661,1.904,-5.185,0.947,-163.391,-82.764,29.541,16.666,18.122,31.723
 15:07:25.759,eb:33:2e:f9:57:b5, 2085-97-243 247:107:230:13185,1.055,-3.037,0.279,-218.628,-99.304,106.995,14.826,16.968,32.146
 15:07:25.759,eb:33:2e:f9:57:b5, 2085-97-144 01:16:192:15347,-7.455,0.231,-4.569,-1117.31,62.134,-287.048,6.707,16.331,30.064
 15:07:25.759,eb:33:2e:f9:57:b5, 2085-97-84 242:198:38:1788,-5.01,-13.672,9.662,-45.349,-302.856,-279.968,-0.775,15.309,28.207
 15:07:25.759,eb:33:2e:f9:57:b5, 2085-97-42 253:97:09:3080,2.718,1.37,6.523,-55.42,-408.691,-18.005,-0.665,11.755,27.801
 15:07:25.848,eb:33:2e:f9:57:b5, 2085-97-197 26:146:03:-5880,7.342,-0.196,-1.945,-52.307,-311.462,63.416,-1.368,7.603,28.196
 15:07:25.848,eb:33:2e:f9:57:b5, 2085-97-220 09:117:255:-1819,-0.647,0.532,-6.2,-31.311,96.008,123.779,-1.648,5.669,28.79
 15:07:25.848,eb:33:2e:f9:57:b5, 2085-97-249 246:49:254:4717,-1.629,-0.865,1.17,-31.555,90.027,42.114,-1.934,7.015,29.57
 15:07:25.848,eb:33:2e:f9:57:b5, 2085-97-115 245:230:253:5436,1.735,-0.141,2.964,-47.119,1.77,11.963,-2.186,7.465,29.795
 15:07:25.851,eb:33:2e:f9:57:b5, 2085-97-142 06:116:01:1851,0.598,0.659,0.082,-60.608,62.622,18.311,-2.697,7.224,29.8
 15:07:25.851,eb:33:2e:f9:57:b5, 2085-97-145 02:253:01:4312,-0.27,0.193,0.866,-77.515,178.589,24.536,-3.268,8.536,29.943
 15:07:25.851,eb:33:2e:f9:57:b5, 2085-97-43 252:213:02:6551,-0.458,0.606,2.703,-119.812,181.702,47.913,-4.208,10.41,30.157
 15:07:25.851,eb:33:2e:f9:57:b5, 2085-97-207 253:95:10:7756,-0.468,0.892,4.075,-194.641,139.526,63.843,-5.587,12.09,30.553
 15:07:25.878,eb:33:2e:f9:57:b5, 2085-97-131 249:233:08:7900,-0.99,0.95,3.591,-302.307,108.093,70.618,-7.998,13.337,31.157
 15:07:25.878,eb:33:2e:f9:57:b5, 2085-97-27 246:207:10:7812,-1.507,1.319,3.875,-402.771,40.344,46.509,-11.327,14.145,31.663
 15:07:25.878,eb:33:2e:f9:57:b5, 2085-97-180 242:148:13:7553,-1.979,1.507,3.886,-510.986,-26.001,-6.775,-15.914,14.244,31.822
 15:07:25.878,eb:33:2e:f9:57:b5, 2085-97-211 239:185:06:7387,-1.868,1.267,3.746,-615.051,-86.548,-68.97,-21.511,13.508,31.707
 15:07:25.938,eb:33:2e:f9:57:b5, 2085-97-158 242:72:07:8612,-1.161,0.982,3.998,-687.561,-127.136,-145.63,-28.218,12.063,31.102
 15:07:25.938,eb:33:2e:f9:57:b5, 2085-97-254 248:40:05:10835,0.02,1.112,4.408,-737.427,-108.948,-174.194,-35.403,10.091,30.344
 15:07:25.938,eb:33:2e:f9:57:b5, 2085-97-163 08:16:241:12453,0.959,-0.032,5.463,-752.197,-70.251,-162.537,-43.022,8.328,29.542
 15:07:25.938,eb:33:2e:f9:57:b5, 2085-97-141 05:146:240:14332,0.191,-2.427,7.019,-764.465,-192.688,-129.028,-50.444,6.515,29.323
 15:07:25.968,eb:33:2e:f9:57:b5, 2085-97-229 02:234:232:3216,0.177,-0.177,5.439,-818.97,-392.639,48.584,-58.195,4.197,31.674
 15:07:25.968,eb:33:2e:f9:57:b5, 2085-97-255 249:232:238:6955,-1.665,-2.907,2.032,-589.783,-401.184,186.768,-64.924,3.257,35.618
 15:07:25.968,eb:33:2e:f9:57:b5, 2085-97-34 238:238:229:10203,-2.389,-3.079,3.615,-490.601,-294.495,226.074,-69.862,3.999,39.88
 15:07:25.968,eb:33:2e:f9:57:b5, 2085-97-203 237:159:226:10734,-2.011,-3.705,5.12,-594.116,-57.495,47.119,-74.938,4.752,41.951
 15:07:25.999,eb:33:2e:f9:57:b5, 2085-97-209 241:232:233:12415,-1.644,-3.294,5.606,-656.799,146.606,-174.683,-81.403,4.098,41.127
 15:07:25.999,eb:33:2e:f9:57:b5, 2085-97-175 243:29:248:14471,-1.494,-1.972,6.614,-578.308,167.236,-313.843,-87.556,1.648,39.166
 15:07:25.999,eb:33:2e:f9:57:b5, 2085-97-162 243:113:03:14241,-1.717,-0.137,7.179,-448.486,65.613,-343.018,-92.642,-1.719,38.018
 15:07:25.999,eb:33:2e:f9:57:b5, 2085-97-71 240:180:08:11940,-2.202,0.835,6.339,-314.819,-35.095,-311.096,-96.213,-4.999,38.199
 15:07:26.059,eb:33:2e:f9:57:b5, 2085-97-50 237:22:11:10503,-2.445,1.265,5.421,-243.347,-40.405,-291.931,-99.009,-7.894,39.04
 15:07:26.059,eb:33:2e:f9:57:b5, 2085-97-168 235:236:12:10058,-2.601,1.492,4.971,-224.609,11.414,-307.251,-101.195,-10.805,39.672
 15:07:26.059,eb:33:2e:f9:57:b5, 2085-97-212 234:01:16:9364,-2.626,1.776,4.791,-208.923,39.001,-335.144,-103.458,-14.03,40.073
 15:07:26.059,eb:33:2e:f9:57:b5, 2085-97-146 235:213:20:8542,-2.189,2.285,4.304,-168.091,27.588,-345.581,-105.244,-17.435,40.556
 15:07:26.088,eb:33:2e:f9:57:b5, 2085-97-241 241:200:26:7154,-1.472,2.957,3.935,-111.755,21.179,-329.651,-106.886,-20.742,41.347
 15:07:26.096,eb:33:2e:f9:57:b5, 2085-97-137 246:16:35:4133,-1.163,3.827,2.869,-36.377,43.335,-289.368,-107.595,-23.807,41.913
 15:07:26.096,eb:33:2e:f9:57:b5, 2085-97-70 247:129:41:1296,-1.026,4.842,1.35,71.899,49.255,-202.454,-107.507,-26.296,42.182
 15:07:26.096,eb:33:2e:f9:57:b5, 2085-97-123 247:93:43:-1444,-1.254,5.35,-0.058,208.496,22.522,-87.585,-105.815,-27.729,42.149
 15:07:26.178,eb:33:2e:f9:57:b5, 2085-97-246 245:143:36:-3650,-1.064,5.109,-1.229,369.446,-18.616,26.062,-102.898,-27.971,42.215
 15:07:26.178,eb:33:2e:f9:57:b5, 2085-97-10 248:209:30:-4325,-1.135,4.118,-2.067,513.733,30.701,102.051,-98.053,-27.224,42.028
 15:07:26.178,eb:33:2e:f9:57:b5, 2085-97-06 245:173:29:-3413,-1.504,3.76,-1.958,573.547,185.913,117.981,-91.917,-26.191,40.649
 15:07:26.178,eb:33:2e:f9:57:b5, 2085-97-34 244:239:27:-1259,-1.39,3.64,-1.219,610.046,317.627,132.141,-84.523,-24.851,37.711
 15:07:26.180,eb:33:2e:f9:57:b5, 2085-97-84 245:62:25:2050,-1.334,3.302,0.125,652.039,411.804,151.489,-76.685,-22.83,33.953
 15:07:26.180,eb:33:2e:f9:57:b5, 2085-97-117 245:115:23:5670,-1.262,3.052,1.92,695.129,446.533,172.363,-68.264,-19.94,29.938
 15:07:26.180,eb:33:2e:f9:57:b5, 2085-97-171 246:57:21:8252,-1.092,2.789,3.481,730.957,418.64,187.744,-60.079,-16.414,26.658
 15:07:26.180,eb:33:2e:f9:57:b5, 2085-97-58 247:148:18:9720,-1.126,2.51,4.445,758.118,366.821,193.542,-51.833,-12.59,24.362
 15:07:26.209,eb:33:2e:f9:57:b5, 2085-97-214 245:250:12:10145,-1.136,2.057,4.875,794.8,290.527,195.618,-43.846,-8.965,23.22
 15:07:26.209,eb:33:2e:f9:57:b5, 2085-97-138 246:59:08:9440,-1.194,1.176,4.817,827.209,230.347,159.18,-35.431,-5.817,23.005
 15:07:26.209,eb:33:2e:f9:57:b5, 2085-97-253 246:23:06:8780,-0.997,0.889,4.396,838.379,226.562,104.553,-27.092,-3.192,22.896
 15:07:26.209,eb:33:2e:f9:57:b5, 2085-97-205 248:25:02:8314,-0.701,0.59,4.175,842.712,228.394,68.726,-18.441,-0.703,22.78
 15:07:26.268,eb:33:2e:f9:57:b5, 2085-97-17 253:211:252:7766,-0.01,-0.126,3.875,835.693,243.347,53.894,-10.042,1.697,22.769
 15:07:26.268,eb:33:2e:f9:57:b5, 2085-97-196 02:114:247:8658,0.522,-0.619,3.938,809.082,285.95,86.914,-1.555,4.482,23.181
 15:07:26.268,eb:33:2e:f9:57:b5, 2085-97-116 03:184:231:11036,0.326,-1.902,4.788,751.892,324.463,175.537,6.427,7.493,24.675
 15:07:26.268,eb:33:2e:f9:57:b5, 2085-97-244 02:119:213:12360,0.664,-4.194,5.845,623.169,364.624,220.154,13.969,10.58,27.4
 15:07:26.268,eb:33:2e:f9:57:b5, 2085-97-159 08:48:194:12543,1.671,-6.579,6.008,432.495,421.509,210.083,19.891,13.683,30.712
 15:07:26.328,eb:33:2e:f9:57:b5, 2085-113-58 00:224:01:-5415,1.966,-8.368,6.186,230.469,489.441,171.631,24.28,17.281,34.404
 15:07:26.328,eb:33:2e:f9:57:b5, 2085-97-233 15:125:180:14156,2.069,-8.864,6.469,148.132,472.229,168.274,25.763,19.116,36.282
 15:07:26.328,eb:33:2e:f9:57:b5, 2085-97-167 17:137:173:13381,2.206,-9.966,7.037,79.773,286.865,165.833,27.993,21.775,39.749
 15:07:26.328,eb:33:2e:f9:57:b5, 2085-97-19 16:76:172:8479,1.857,-10.486,5.428,56.213,42.419,124.939,29.685,22.341,42.001
 15:07:26.333,eb:33:2e:f9:57:b5, 2085-97-111 14:171:182:3570,1.714,-10.12,2.785,-32.41,-71.289,4.578,29.965,21.725,42.413
 15:07:26.333,eb:33:2e:f9:57:b5, 2085-97-237 12:139:204:2482,1.554,-7.818,1.369,-119.141,-85.022,-90.576,28.905,21.281,41.539
 15:07:26.333,eb:33:2e:f9:57:b5, 2085-97-230 11:13:222:1601,1.471,-5.26,0.992,-155.212,-93.384,-88.745,26.988,20.912,40.155
 15:07:26.333,eb:33:2e:f9:57:b5, 2085-97-67 12:17:237:1142,-5.771,-3.294,0.594,-209.412,-43.579,-37.17,24.939,20.511,39.249
 15:07:26.448,eb:33:2e:f9:57:b5, 2085-97-47 04:54:11:-12749,1.105,-6.987,8.618,-952.881,-401.184,-754.578,20.237,20.885,38.584
 15:07:26.448,eb:33:2e:f9:57:b5, 2085-97-75 182:100:166:22983,0.061,-1.849,8.325,-896.423,-255.188,-173.584,7.608,19.968,33.036
 15:07:26.448,eb:33:2e:f9:57:b5, 2085-97-80 220:75:19:12912,1.692,4.577,0.276,78.064,-296.265,141.296,5.444,16.754,31.591
 15:07:26.448,eb:33:2e:f9:57:b5, 2085-97-195 20:74:255:-3561,4.813,2.701,0.498,-95.581,-295.044,78.308,5.026,13.09,31.349
 15:07:26.450,eb:33:2e:f9:57:b5, 2085-97-137 43:03:03:-10163,-0.837,0.162,-4.188,-79.468,-130.92,24.841,4.384,10.959,31.855
 15:07:26.450,eb:33:2e:f9:57:b5, 2085-97-203 245:82:249:3534,-1.533,-1.107,0.444,-45.471,94.727,16.968,4.054,12.107,32.789
 15:07:26.450,eb:33:2e:f9:57:b5, 2085-97-155 251:170:03:4889,-1.056,-0.392,2.554,-18.25,2.319,12.756,3.851,12.618,33.008
 15:07:26.450,eb:33:2e:f9:57:b5, 2085-97-239 08:07:02:569,0.832,-0.224,2.499,-46.936,-27.527,13,3.593,12.612,33.267
 15:07:26.452,eb:33:2e:f9:57:b5, 2085-97-198 254:81:255:3058,-0.227,0.295,0.589,-46.326,109.192,40.283,3.263,13.09,33.657
 15:07:26.452,eb:33:2e:f9:57:b5, 2085-97-84 253:14:01:3365,-0.855,0.153,1.873,-60.303,122.192,33.264,2.873,14.249,34.069
 15:07:26.452,eb:33:2e:f9:57:b5, 2085-97-00 253:159:05:6588,-0.097,0.552,3.354,-110.168,114.563,36.438,2.164,15.568,34.481
 15:07:26.452,eb:33:2e:f9:57:b5, 2085-97-55 255:150:10:7742,-0.108,0.673,3.499,-196.716,117.493,55.359,0.835,16.699,35.052
 15:07:26.538,eb:33:2e:f9:57:b5, 2085-97-120 252:224:08:7592,-0.887,1.113,3.596,-299.622,66.833,70.984,-1.489,17.551,35.771
 15:07:26.538,eb:33:2e:f9:57:b5, 2085-97-00 246:156:11:7936,-1.425,1.305,3.901,-403.748,26.062,37.659,-4.812,18.012,36.332
 15:07:26.538,eb:33:2e:f9:57:b5, 2085-97-238 243:152:12:6824,-1.66,1.514,3.618,-508.667,-31.433,-13.733,-9.415,17.946,36.447
 15:07:26.538,eb:33:2e:f9:57:b5, 2085-97-209 242:107:08:6759,-1.381,1.519,3.241,-611.938,-61.096,-75.806,-15.101,17.331,36.09
 15:07:26.540,eb:33:2e:f9:57:b5, 2085-97-136 247:102:07:8234,-1.085,1.204,3.574,-698.059,-75.378,-144.531,-21.973,16.276,35.14
 15:07:26.540,eb:33:2e:f9:57:b5, 2085-97-207 251:118:06:10921,-0.254,1.087,5.234,-752.991,-60.608,-178.345,-29.575,14.969,33.86
 15:07:26.540,eb:33:2e:f9:57:b5, 2085-97-73 00:102:248:12402,0.342,0.174,5.442,-725.586,-54.077,-162.842,-37.348,13.585,32.69
 15:07:26.540,eb:33:2e:f9:57:b5, 2085-97-106 01:207:242:12409,-0.388,-1.283,6.584,-685.852,-297.18,-117.004,-44.182,11.327,32.69
 15:07:26.628,eb:33:2e:f9:57:b5, 2085-97-71 255:24:237:2034,0.304,-0.486,4.306,-714.355,-417.786,-2.808,-50.795,8.223,35.123
 15:07:26.628,eb:33:2e:f9:57:b5, 2085-97-205 251:216:241:5226,-1.259,-2.442,0.58,-503.235,-278.137,80.017,-56.519,6.301,38.035
 15:07:26.628,eb:33:2e:f9:57:b5, 2085-97-152 243:198:236:10518,-1.665,-2.45,3.696,-439.026,-157.166,88.196,-60.765,6.059,40.424
 15:07:26.628,eb:33:2e:f9:57:b5, 2085-97-29 244:38:239:10855,-1.253,-2.386,5.418,-541.687,-44.189,-31.982,-65.479,5.834,41.375
 15:07:26.630,eb:33:2e:f9:57:b5, 2085-97-142 247:208:243:10533,-1.026,-1.821,5.128,-587.402,29.541,-159.18,-71.29,4.856,40.979
 15:07:26.630,eb:33:2e:f9:57:b5, 2085-97-16 247:105:253:11321,-1.27,-1.03,5.369,-513.855,35.583,-245.056,-76.783,2.895,40.007
 15:07:26.630,eb:33:2e:f9:57:b5, 2085-97-66 244:138:05:11457,-1.653,0.312,5.589,-413.208,-6.836,-276.917,-81.37,0.313,39.375
 15:07:26.630,eb:33:2e:f9:57:b5, 2085-97-152 241:231:08:10475,-1.9,0.899,5.468,-346.68,-31.128,-297.852,-84.979,-2.598,39.249
 15:07:26.658,eb:33:2e:f9:57:b5, 2085-97-233 239:161:12:8496,-2.058,1.352,4.59,-294.006,-9.827,-320.435,-88.165,-5.718,39.298
 15:07:26.658,eb:33:2e:f9:57:b5, 2085-97-04 239:32:15:7786,-2.185,1.771,3.876,-228.21,23.621,-326.294,-90.588,-8.992,39.133
 15:07:26.658,eb:33:2e:f9:57:b5, 2085-97-253 237:91:16:7653,-2.351,1.983,3.784,-155.09,25.085,-323.914,-92.439,-12.25,38.941
 15:07:26.658,eb:33:2e:f9:57:b5, 2085-97-232 236:90:17:7187,-2.404,2.106,3.658,-89.783,-8.972,-319.946,-93.472,-15.48,38.985
 15:07:26.689,eb:33:2e:f9:57:b5, 2085-97-131 238:186:19:6894,-1.649,2.262,3.442,-50.598,-29.053,-318.176,-94.268,-18.644,39.457
 15:07:26.689,eb:33:2e:f9:57:b5, 2085-97-174 244:121:25:4905,-1.232,2.783,2.937,-24.719,26.123,-314.514,-94.576,-21.813,39.727
 15:07:26.689,eb:33:2e:f9:57:b5, 2085-97-04 247:06:33:1858,-1.087,3.684,1.566,69.58,67.932,-258.667,-94.257,-24.758,39.402
 15:07:26.689,eb:33:2e:f9:57:b5, 2085-97-115 248:168:38:1384,-1.003,4.473,0.691,224.365,58.838,-142.212,-92.247,-26.763,38.694
 15:07:26.750,eb:33:2e:f9:57:b5, 2085-97-211 246:79:35:-163,-1.12,4.897,0.531,346.436,-9.766,-19.897,-89.176,-27.51,38.419
 15:07:26.750,eb:33:2e:f9:57:b5, 2085-97-158 249:239:24:-3233,-0.737,3.698,-0.922,467.651,-45.532,78.918,-85.084,-27.169,38.853
 15:07:26.750,eb:33:2e:f9:57:b5, 2085-97-11 249:118:23:-2695,-1.131,2.937,-1.604,534.18,119.507,116.638,-79.827,-26.06,38.595
 15:07:26.750,eb:33:2e:f9:57:b5, 2085-97-179 245:108:23:-633,-1.328,2.963,-0.816,537.842,274.78,134.583,-73.444,-24.34,36.568
 15:07:26.839,eb:33:2e:f9:57:b5, 2085-97-196 245:181:20:1329,-1.163,2.784,0.183,560.364,356.14,164.612,-66.896,-21.819,33.816
 15:07:26.839,eb:33:2e:f9:57:b5, 2085-97-125 247:62:19:3275,-1.027,2.455,1.089,617.798,398.621,189.697,-59.859,-18.506,30.987
 15:07:26.839,eb:33:2e:f9:57:b5, 2085-97-31 248:124:18:5578,-0.93,2.374,2.18,675.659,405.151,207.886,-52.674,-14.584,28.619
 15:07:26.839,eb:33:2e:f9:57:b5, 2085-97-199 248:167:16:7289,-0.996,2.221,3.189,711.426,367.249,214.722,-45.187,-10.421,27.032
 15:07:26.960,eb:33:2e:f9:57:b5, 2085-97-91 247:232:12:7965,-1.065,1.862,3.836,730.957,306.396,200.989,-37.859,-6.526,26.362
 15:07:26.960,eb:33:2e:f9:57:b5, 2085-97-185 248:182:07:7774,-0.957,1.256,3.819,763.123,259.949,168.64,-30.19,-3.153,26.312
 15:07:26.960,eb:33:2e:f9:57:b5, 2085-97-145 246:255:06:9041,-1.149,0.981,4.004,776.794,280.029,98.816,-22.484,-0.154,26.279
 15:07:26.960,eb:33:2e:f9:57:b5, 2085-97-255 247:172:03:8598,-0.739,0.701,4.473,798.523,223.999,42.908,-14.414,2.461,26.109
 15:07:26.964,eb:33:2e:f9:57:b5, 2085-97-120 252:67:254:7317,-0.062,0.141,3.839,817.749,206.909,-5.798,-6.323,4.537,25.884
 15:07:26.964,eb:33:2e:f9:57:b5, 2085-97-197 02:254:249:8340,0.566,-0.571,3.566,825.195,266.479,-27.893,2.065,6.938,25.609
 15:07:26.964,eb:33:2e:f9:57:b5, 2085-97-19 05:254:239:12156,0.645,-1.164,4.977,793.457,288.33,14.648,10.228,9.8,25.829
 15:07:26.964,eb:33:2e:f9:57:b5, 2085-97-165 06:103:222:14588,1.257,-3.089,6.704,689.758,236.206,67.261,18.067,12.244,26.977
 15:07:26.966,eb:33:2e:f9:57:b5, 2085-97-201 13:78:204:13766,2.051,-5.305,7.099,502.502,227.112,84.9,24.357,14.046,28.499
 15:07:26.966,eb:33:2e:f9:57:b5, 2085-97-24 18:105:192:12611,2.317,-7.241,6.419,324.158,278.381,95.459,29.053,15.936,30.569
 15:07:26.966,eb:33:2e:f9:57:b5, 2085-97-97 20:248:181:11250,2.877,-8.653,5.931,197.571,288.513,117.737,32.305,17.853,33.091
 15:07:26.966,eb:33:2e:f9:57:b5, 2085-97-237 24:36:181:9324,2.97,-9.548,5.067,82.764,286.804,110.901,34.684,19.622,35.87
 15:07:26.966,eb:33:2e:f9:57:b5, 2085-97-128 21:101:187:7135,2.485,-8.974,4.114,-47.363,163.879,106.628,35.574,20.891,38.221
 15:07:26.966,eb:33:2e:f9:57:b5, 2085-97-85 17:135:197:3187,1.638,-7.976,2.405,-131.409,10.071,95.581,35.178,20.869,39.584
 15:07:26.966,eb:33:2e:f9:57:b5, 2085-97-219 09:171:208:1109,0.99,-6.669,1.043,-191.284,-35.828,79.346,33.745,20.176,40.221
 15:07:26.966,eb:33:2e:f9:57:b5, 2085-97-163 07:37:223:176,-5.272,-5.037,0.213,-245.789,15.137,61.584,31.789,19.649,40.77
 15:07:26.988,eb:33:2e:f9:57:b5, 2085-97-239 250:34:06:-7719,7.09,-2.267,8.534,-865.112,-459.656,-284.18,27.773,19.655,41.627
 15:07:26.988,eb:33:2e:f9:57:b5, 2085-97-154 239:123:197:7948,-9.133,-4.564,2.547,-1079.956,-230.225,-352.661,15.134,18.127,36.315
 15:07:26.988,eb:33:2e:f9:57:b5, 2085-97-201 30:10:32:-243,-0.022,-4.011,8.347,60.303,-835.022,-365.601,10.651,15.507,34.711
 15:07:26.988,eb:33:2e:f9:57:b5, 2085-97-89 37:169:22:-4775,1.178,3.354,2.189,-35.767,-390.198,-41.687,11.525,12.014,34.393
 15:07:27.018,eb:33:2e:f9:57:b5, 2085-97-48 34:186:01:-6709,0.447,-0.516,-0.338,-75.317,-88.928,45.166,10.816,10.865,35.09
 15:07:27.018,eb:33:2e:f9:57:b5, 2085-97-145 237:03:248:4094,-0.867,-0.991,-1.062,-35.889,118.53,79.285,10.399,11.255,35.942
 15:07:27.018,eb:33:2e:f9:57:b5, 2085-97-56 247:26:254:4530,1.705,-0.757,1.973,1.709,-50.049,22.949,10.283,11.069,36.134
 15:07:27.018,eb:33:2e:f9:57:b5, 2085-97-24 09:33:04:1755,-0.073,0.853,0.27,-11.108,-38.879,46.997,10.294,10.08,36.09
 15:07:27.106,eb:33:2e:f9:57:b5, 2085-97-101 05:230:00:1584,0.316,-0.042,1.256,-31.616,1.831,45.776,10.124,10.113,36.661
 15:07:27.106,eb:33:2e:f9:57:b5, 2085-97-19 01:13:00:2271,-0.159,-0.017,1.205,-36.987,78.43,42.969,9.926,10.437,37.211
 15:07:27.106,eb:33:2e:f9:57:b5, 2085-97-251 253:137:00:3739,0.25,0.104,1.661,-49.744,128.235,31.433,9.624,11.431,37.771
 15:07:27.106,eb:33:2e:f9:57:b5, 2085-97-196 02:194:06:5885,1.064,0.334,1.292,-71.289,200.5,34.424,9.179,12.909,38.304
 15:07:27.109,eb:33:2e:f9:57:b5, 2085-97-205 03:70:10:7612,-0.201,1.1,2.876,-167.969,255.31,53.101,8.146,15.112,39.062
 15:07:27.109,eb:33:2e:f9:57:b5, 2085-97-71 249:43:10:8320,-0.948,1.532,4.006,-310.059,228.577,64.392,6.053,17.419,39.968
 15:07:27.109,eb:33:2e:f9:57:b5, 2085-97-30 247:176:10:7526,-1.025,1.34,3.888,-418.213,160.034,37.231,2.554,19.292,40.605
 15:07:27.109,eb:33:2e:f9:57:b5, 2085-97-74 249:39:11:6497,-0.597,1.37,3.088,-499.878,87.097,10.071,-1.978,20.369,40.82
 15:07:27.137,eb:33:2e:f9:57:b5, 2085-97-194 248:253:12:7508,-0.953,1.542,3.098,-586.914,51.392,-36.255,-7.548,21,40.583
 15:07:27.137,eb:33:2e:f9:57:b5, 2085-97-240 250:06:08:8644,-0.35,1.073,3.962,-666.382,-0.977,-67.078,-14.041,21.022,40.012
 15:07:27.137,eb:33:2e:f9:57:b5, 2085-97-132 255:119:03:9639,0.589,0.753,4.637,-688.416,-8.85,-87.219,-21.171,20.759,39.199
 15:07:27.137,eb:33:2e:f9:57:b5, 2085-97-67 04:144:251:10199,0.427,0.059,4.555,-667.542,-84.412,-40.466,-28.01,19.962,38.727
 15:07:27.200,eb:33:2e:f9:57:b5, 2085-97-100 01:221:253:10778,0.022,-1.167,5.66,-694.092,-194.58,6.47,-34.623,18.726,39.375
 15:07:27.200,eb:33:2e:f9:57:b5, 2085-97-234 00:75:236:2573,-0.262,-0.725,3.425,-710.51,-210.632,87.646,-41.072,17.161,41.325
 15:07:27.200,eb:33:2e:f9:57:b5, 2085-113-58 00:132:244:1095,-0.926,-1.616,2.832,-492.554,-148.865,114.014,-46.434,16.655,43.121
 15:07:27.200,eb:33:2e:f9:57:b5, 2085-97-237 245:67:239:8769,-1.542,-1.513,3.818,-446.472,-148.132,107.971,-48.406,16.49,44.083
 15:07:27.229,eb:33:2e:f9:57:b5, 2085-97-107 244:226:239:8598,-1.283,-2.036,4.703,-452.148,-72.876,-19.836,-52.465,16.122,45.253
 15:07:27.229,eb:33:2e:f9:57:b5, 2085-97-167 246:180:247:9099,-1.16,-1.636,4.078,-474.121,55.908,-172.119,-57.255,15.167,44.588
 15:07:27.229,eb:33:2e:f9:57:b5, 2085-97-219 245:179:01:10640,-1.368,-0.396,4.93,-442.2,82.397,-261.658,-62.336,13.612,42.687
 15:07:27.229,eb:33:2e:f9:57:b5, 2085-97-218 243:79:07:10277,-1.644,0.672,5.149,-382.507,21.057,-292.969,-66.731,11.212,40.952
 15:07:27.258,eb:33:2e:f9:57:b5, 2085-97-239 241:78:09:9310,-1.856,1.046,4.812,-327.454,-14.771,-320.312,-70.433,8.35,39.853
 15:07:27.258,eb:33:2e:f9:57:b5, 2085-97-87 240:128:11:8125,-2.029,1.284,4.234,-277.649,-4.456,-359.497,-73.455,5.004,38.87
 15:07:27.258,eb:33:2e:f9:57:b5, 2085-97-36 239:157:14:7417,-2.154,1.629,3.738,-213.562,16.541,-390.259,-75.954,1.379,37.798
 15:07:27.258,eb:33:2e:f9:57:b5, 2085-97-110 238:07:18:7358,-2.195,2.037,3.592,-146.729,14.343,-404.236,-77.591,-2.505,36.678
 15:07:27.288,eb:33:2e:f9:57:b5, 2085-97-176 238:140:19:6631,-2.113,2.375,3.484,-86.792,-31.555,-401.917,-78.657,-6.482,35.936
 15:07:27.288,eb:33:2e:f9:57:b5, 2085-97-08 239:168:19:5382,-2.185,2.449,2.895,-39.978,-70.557,-387.085,-79.102,-10.475,35.684
 15:07:27.288,eb:33:2e:f9:57:b5, 2085-97-132 238:145:20:5184,-1.984,2.468,2.544,-5.859,-85.327,-366.516,-79.316,-14.315,35.766
 15:07:27.288,eb:33:2e:f9:57:b5, 2085-97-89 243:149:26:3234,-1.426,2.834,2.301,-0.122,-68.604,-358.276,-79.217,-18.018,35.859
 15:07:27.348,eb:33:2e:f9:57:b5, 2085-97-40 246:159:34:-269,-1.095,3.897,0.783,30.823,1.953,-330.383,-78.97,-21.511,35.425
 15:07:27.348,eb:33:2e:f9:57:b5, 2085-97-251 247:70:37:-1752,-0.887,4.377,-0.673,136.841,46.265,-214.05,-77.624,-24.088,34.514
 15:07:27.348,eb:33:2e:f9:57:b5, 2085-97-42 249:06:37:-3515,-0.76,4.999,-1.173,233.643,101.807,-94.788,-75.207,-25.373,33.338
 15:07:27.348,eb:33:2e:f9:57:b5, 2085-97-158 250:46:28:-3684,-0.61,3.917,-2.088,337.891,225.952,20.386,-71.384,-25.197,31.481
 15:07:27.379,eb:33:2e:f9:57:b5, 2085-97-124 250:30:27:-1194,-0.801,3.434,-1.221,391.479,400.513,96.008,-66.385,-23.428,28.433
 15:07:27.379,eb:33:2e:f9:57:b5, 2085-97-159 248:92:26:1077,-0.99,3.354,0.006,405.579,504.089,169.128,-60.82,-20.138,24.527
 15:07:27.379,eb:33:2e:f9:57:b5, 2085-97-147 247:107:24:2446,-1.095,3.186,0.899,443.909,521.362,239.868,-55.519,-15.634,21.066
 15:07:27.379,eb:33:2e:f9:57:b5, 2085-97-32 247:45:23:4063,-1.11,2.966,1.54,519.287,510.315,295.776,-49.96,-10.333,18.495
 15:07:27.408,eb:33:2e:f9:57:b5, 2085-97-80 247:67:22:6206,-1.022,2.837,2.503,595.886,484.375,329.651,-44.132,-4.636,16.996
 15:07:27.408,eb:33:2e:f9:57:b5, 2085-97-120 248:230:18:8050,-1.208,2.654,3.507,648.376,427.673,347.961,-37.683,1.055,16.556
 15:07:27.408,eb:33:2e:f9:57:b5, 2085-97-05 246:72:12:9445,-1.369,1.933,4.533,662.415,339.233,326.111,-31.042,6.141,17.216
 15:07:27.408,eb:33:2e:f9:57:b5, 2085-97-21 244:182:03:9052,-1.566,1.032,4.519,670.227,252.136,250.366,-24.049,10.085,18.435
 15:07:27.498,eb:33:2e:f9:57:b5, 2085-97-220 242:246:251:8534,-1.487,-0.05,4.379,703.674,171.997,131.104,-16.968,12.695,19.484
 15:07:27.498,eb:33:2e:f9:57:b5, 2085-97-153 246:212:246:6147,-0.698,-0.854,3.572,746.46,135.864,-27.405,-9.503,14.222,19.616
 15:07:27.498,eb:33:2e:f9:57:b5, 2085-97-185 255:14:247:5868,0.619,-1.192,2.814,788.513,192.871,-175.415,-2.142,15.749,18.232
 15:07:27.498,eb:33:2e:f9:57:b5, 2085-97-147 09:255:247:9443,1.627,-0.971,3.483,794.8,250.244,-195.068,5.405,18.133,16.276
 15:07:27.527,eb:33:2e:f9:57:b5, 2085-97-128 15:27:234:12986,2.371,-1.662,5.698,727.783,196.045,-100.83,12.673,20.616,15.112
 15:07:27.527,eb:33:2e:f9:57:b5, 2085-97-247 23:136:218:11580,3.426,-3.766,6.262,568.359,167.786,-9.46,19.308,22.368,15.15
 15:07:27.527,eb:33:2e:f9:57:b5, 2085-97-122 28:133:203:9944,3.426,-5.725,5.086,370.789,318.604,81.726,24.456,24.45,16.567
 15:07:27.527,eb:33:2e:f9:57:b5, 2085-97-27 26:50:192:11117,3.334,-7.258,5.032,219.116,429.321,167.542,28.867,27.367,19.874
 15:07:27.649,eb:33:2e:f9:57:b5, 2085-97-29 28:250:182:11379,3.59,-8.65,5.604,84.778,398.254,205.933,32.415,29.971,24.225
 15:07:27.649,eb:33:2e:f9:57:b5, 2085-97-246 26:54:183:10408,3.096,-9.235,5.387,-39.551,267.578,190.613,34.788,31.635,28.383
 15:07:27.649,eb:33:2e:f9:57:b5, 2085-97-82 23:203:190:6290,2.653,-8.769,4.234,-122.681,26.123,147.949,35.244,31.783,30.943
 15:07:27.649,eb:33:2e:f9:57:b5, 2085-97-102 18:227:203:2630,1.872,-7.332,2.064,-182.19,-124.695,94.543,34.107,30.487,31.635
 15:07:27.652,eb:33:2e:f9:57:b5, 2085-97-180 11:125:217:482,-5.362,-5.732,0.645,-231.873,-133.118,53.711,31.893,28.943,31.432
 15:07:27.652,eb:33:2e:f9:57:b5, 2085-97-95 238:178:00:-12196,3.644,-4.367,8.412,-783.997,-496.155,-420.41,27.977,27.999,31.284
 15:07:27.652,eb:33:2e:f9:57:b5, 2085-97-73 219:198:222:16371,-10.534,-2.244,4.907,-1002.502,-468.018,-480.042,15.018,25.757,24.51
 15:07:27.652,eb:33:2e:f9:57:b5, 2085-97-173 47:207:31:-4416,0.674,-6.263,10.752,82.214,-1133.789,-292.664,10.179,20.748,22.297
 15:07:27.738,eb:33:2e:f9:57:b5, 2085-97-71 60:150:42:-7708,1.619,2.001,2.315,16.602,-479.004,-105.347,11.299,15.408,21.583
 15:07:27.738,eb:33:2e:f9:57:b5, 2085-97-106 22:191:254:-4537,1.469,-0.804,-0.41,-109.375,-10.437,30.273,10.585,14.365,22.258
 15:07:27.738,eb:33:2e:f9:57:b5, 2085-97-148 234:249:249:5016,-0.616,-1.077,-1.164,-60.12,149.597,63.232,9.948,14.936,23.11
 15:07:27.738,eb:33:2e:f9:57:b5, 2085-97-195 246:219:251:4006,1.068,-0.505,1.74,-27.893,-24.658,29.846,9.613,14.903,23.329
 15:07:27.741,eb:33:2e:f9:57:b5, 2085-97-09 17:49:07:423,-0.05,0.369,0.592,-17.822,-71.838,31.555,9.47,14.052,23.439
 15:07:27.741,eb:33:2e:f9:57:b5, 2085-97-64 04:114:00:2124,-0.011,0.028,1.436,-53.65,52.49,43.335,9.234,14.321,24.033
 15:07:27.741,eb:33:2e:f9:57:b5, 2085-97-188 254:21:255:1804,0.296,-0.106,1.31,-56.519,104.675,34.241,8.828,15.084,24.587
 15:07:27.741,eb:33:2e:f9:57:b5, 2085-97-117 255:30:01:3470,0.045,0.074,1.111,-67.017,167.908,25.085,8.388,16.254,25.032
 15:07:27.741,eb:33:2e:f9:57:b5, 2085-97-65 01:44:08:5472,0.61,0.473,2.48,-109.253,215.82,31.067,7.707,18.199,25.615
 15:07:27.741,eb:33:2e:f9:57:b5, 2085-97-10 03:50:07:6572,-0.202,0.812,2.432,-197.876,239.685,35.461,6.372,20.281,26.219
 15:07:27.741,eb:33:2e:f9:57:b5, 2085-97-175 252:139:07:6235,-0.626,0.956,3.358,-282.043,208.801,49.988,4.175,22.473,26.917
 15:07:27.741,eb:33:2e:f9:57:b5, 2085-97-227 248:189:08:6394,-1.016,1.066,3.217,-356.812,164.795,42.908,1.198,24.274,27.46
 15:07:27.743,eb:33:2e:f9:57:b5, 2085-97-162 247:136:08:5380,-1.051,0.846,2.943,-425.049,91.553,16.541,-2.598,25.51,27.817
 15:07:27.743,eb:33:2e:f9:57:b5, 2085-97-32 249:04:08:5175,-0.756,1.089,2.778,-493.896,35.339,-20.264,-7.218,26.071,27.719
 15:07:27.743,eb:33:2e:f9:57:b5, 2085-97-236 254:20:09:6704,0.113,1.178,3.012,-553.833,-6.47,-48.828,-12.662,26.115,27.296
 15:07:27.743,eb:33:2e:f9:57:b5, 2085-97-70 00:22:13:8290,-0.427,1.479,3.706,-619.873,-28.992,-62.195,-18.798,25.752,26.664
 15:07:27.799,eb:33:2e:f9:57:b5, 2085-97-16 253:120:06:10195,-0.216,0.693,4.618,-655.396,-86.243,-54.382,-25.34,24.983,26.389
 15:07:27.799,eb:33:2e:f9:57:b5, 2085-97-152 250:164:06:11991,-0.995,0.655,5.408,-641.479,-176.88,-25.208,-31.696,23.621,26.631
 15:07:27.799,eb:33:2e:f9:57:b5, 2085-97-66 247:87:05:11317,-1.064,0.75,5.854,-605.225,-389.099,47.791,-37.189,21.275,28.553
 15:07:27.799,eb:33:2e:f9:57:b5, 2085-97-61 244:74:249:2817,-1.149,0.167,3.552,-633.606,-415.1,83.557,-42.067,18.32,32.124
 15:07:27.858,eb:33:2e:f9:57:b5, 2085-97-150 247:34:245:083,-1.226,-2.225,-1.103,-520.569,-108.826,-4.578,-47.472,16.699,34.222
 15:07:27.858,eb:33:2e:f9:57:b5, 2085-97-206 244:48:244:7781,-1.603,-1.452,2.076,-322.205,40.833,-2.258,-51.367,16.628,34.343
 15:07:27.858,eb:33:2e:f9:57:b5, 2085-97-164 243:148:248:10104,-1.311,-1.177,4.884,-311.89,50.11,-96.741,-54.635,16.551,33.574
 15:07:27.858,eb:33:2e:f9:57:b5, 2085-97-76 246:222:00:8658,-1.204,-0.427,4.539,-354.37,73.975,-204.956,-58.332,15.463,32.119
 15:07:27.860,eb:33:2e:f9:57:b5, 2085-97-199 245:104:08:7889,-1.372,0.604,4.009,-340.637,118.164,-273.682,-62.419,13.81,29.96
 15:07:27.860,eb:33:2e:f9:57:b5, 2085-97-41 244:44:14:7803,-1.535,1.449,3.787,-260.62,122.009,-299.866,-65.891,11.662,27.466
 15:07:27.860,eb:33:2e:f9:57:b5, 2085-97-105 243:181:17:7353,-1.567,2.028,3.779,-172.424,86.548,-298.706,-68.395,9.294,25.307
 15:07:27.860,eb:33:2e:f9:57:b5, 2085-97-157 243:250:18:5864,-1.58,2.326,3.243,-105.164,63.171,-292.542,-69.884,6.729,23.538
 15:07:27.919,eb:33:2e:f9:57:b5, 2085-97-67 243:119:19:5149,-1.649,2.404,2.63,-47.668,81.787,-287.231,-70.779,4.246,21.879
 15:07:27.919,eb:33:2e:f9:57:b5, 2085-97-177 242:151:20:5523,-1.593,2.485,2.554,1.77,95.337,-280.945,-70.961,1.818,20.039
 15:07:27.919,eb:33:2e:f9:57:b5, 2085-113-58 00:100:246:-2430,-1.333,2.712,2.882,43.884,90.271,-269.714,-70.741,-0.472,18.265
 15:07:27.919,eb:33:2e:f9:57:b5, 2085-97-126 246:19:26:4956,-1.001,2.953,2.833,69.214,92.834,-262.573,-70.433,-1.571,17.391
 15:07:27.919,eb:33:2e:f9:57:b5, 2085-97-165 248:18:30:2326,-0.964,3.654,1.765,150.391,86.304,-213.013,-69.131,-3.549,15.667
 15:07:27.949,eb:33:2e:f9:57:b5, 2085-97-30 249:83:29:1237,-0.636,3.726,0.759,254.578,67.688,-135.559,-66.956,-4.845,14.31
 15:07:27.949,eb:33:2e:f9:57:b5, 2085-97-183 251:210:28:976,-0.469,3.699,0.569,327.576,73.181,-68.054,-63.743,-5.455,13.233
 15:07:27.949,eb:33:2e:f9:57:b5, 2085-97-05 253:89:24:-409,-0.287,3.291,0.135,384.827,82.581,-3.845,-60.101,-5.4,12.409
 15:07:27.949,eb:33:2e:f9:57:b5, 2085-97-209 253:203:21:229,-0.344,2.877,-0.201,459.106,137.085,61.279,-55.629,-4.537,11.613
 15:07:27.978,eb:33:2e:f9:57:b5, 2085-97-72 252:59:19:1750,-0.646,2.567,0.502,499.878,193.787,102.356,-50.729,-2.829,10.761
 15:07:27.978,eb:33:2e:f9:57:b5, 2085-97-214 249:240:15:2744,-0.774,2.197,1.147,520.813,216.37,124.878,-45.45,-0.571,9.943
 15:07:27.978,eb:33:2e:f9:57:b5, 2085-97-155 250:85:14:3249,-0.579,1.84,1.436,545.715,238.831,127.808,-40.117,1.956,9.349
 15:07:27.978,eb:33:2e:f9:57:b5, 2085-97-203 251:04:15:4752,-0.513,1.827,1.866,576.294,289.734,124.695,-34.376,4.85,8.69
 15:07:28.068,eb:33:2e:f9:57:b5, 2085-97-212 251:249:14:6885,-0.509,1.905,2.873,599.487,295.227,134.216,-28.531,8.064,8.234
 15:07:28.068,eb:33:2e:f9:57:b5, 2085-97-213 251:03:13:7591,-0.577,1.779,3.635,610.596,250.732,143.311,-22.291,11.124,8.311
 15:07:28.068,eb:33:2e:f9:57:b5, 2085-97-204 250:235:08:7295,-0.727,1.414,3.678,627.075,214.539,137.817,-15.98,13.755,8.91
 15:07:28.068,eb:33:2e:f9:57:b5, 2085-97-154 248:175:04:8367,-0.876,0.843,3.701,670.166,198.303,123.047,-9.102,16.051,9.756
 15:07:28.068,eb:33:2e:f9:57:b5, 2085-97-252 250:124:255:8282,-0.368,0.314,4.205,713.928,137.39,103.027,-1.857,17.803,10.739
 15:07:28.068,eb:33:2e:f9:57:b5, 2085-97-89 255:114:249:8296,0.137,-0.456,3.975,737,120.972,91.736,5.933,19.012,11.794
 15:07:28.068,eb:33:2e:f9:57:b5, 2085-97-07 02:117:238:9401,0.346,-1.384,4.262,726.562,128.174,110.718,13.705,20.067,13.063
 15:07:28.068,eb:33:2e:f9:57:b5, 2085-97-231 03:90:224:10667,0.663,-3.075,4.891,665.588,153.32,135.376,21.462,20.984,14.788
 15:07:28.130,eb:33:2e:f9:57:b5, 2085-97-150 06:123:209:12017,1.01,-4.862,5.582,530.945,213.501,144.714,28.257,22.077,17.029
 15:07:28.130,eb:33:2e:f9:57:b5, 2085-97-23 10:236:195:11804,1.447,-6.747,5.912,375.122,223.267,143.799,33.843,23.214,19.638
 15:07:28.130,eb:33:2e:f9:57:b5, 2085-97-54 13:51:186:10588,2.02,-8.115,5.536,231.75,181.519,128.784,37.826,24.066,22.077
 15:07:28.130,eb:33:2e:f9:57:b5, 2085-97-139 18:17:180:7490,2.311,-9.273,4.495,102.661,154.968,84.9,40.353,24.576,24.126
 15:07:28.189,eb:33:2e:f9:57:b5, 2085-97-102 16:208:181:6188,1.885,-9.389,3.09,18.799,156.86,26.917,41.567,25.45,25.648
 15:07:28.189,eb:33:2e:f9:57:b5, 2085-97-234 14:153:190:4719,1.867,-8.888,2.816,-30.945,40.588,-37.781,41.83,26.213,26.334
 15:07:28.189,eb:33:2e:f9:57:b5, 2085-97-151 14:214:204:2365,1.932,-7.28,1.684,-84.9,-72.266,-81.421,40.913,26.417,25.505
 15:07:28.189,eb:33:2e:f9:57:b5, 2085-97-88 16:84:218:795,2.025,-5.481,0.637,-165.344,-56.824,-93.933,39.078,26.373,24.17
 15:07:28.249,eb:33:2e:f9:57:b5, 2085-97-183 15:217:231:1776,1.887,-4.014,0.493,-231.873,23.193,-70.923,36.667,26.812,23.286
 15:07:28.249,eb:33:2e:f9:57:b5, 2085-97-193 14:160:245:2526,0.114,-2.093,1.184,-266.296,17.578,10.62,34.129,27.18,23.198
 15:07:28.249,eb:33:2e:f9:57:b5, 2085-97-57 14:166:232:-1104,-2.605,-0.289,5.197,-526.306,261.292,237.61,31.569,27.23,24.604
 15:07:28.249,eb:33:2e:f9:57:b5, 2085-97-45 223:61:14:24433,-9.647,1.753,1.856,-1103.577,-318.298,-404.358,19.808,26.065,19.281
 15:07:28.370,eb:33:2e:f9:57:b5, 2085-97-16 198:237:217:12647,5.979,-7.385,8.667,-272.644,-449.341,52.856,10.239,22.374,16.375
 15:07:28.370,eb:33:2e:f9:57:b5, 2085-97-187 15:07:24:-865,7.89,3.658,-2.456,184.204,-331.36,223.938,10.508,15.612,14.178
 15:07:28.370,eb:33:2e:f9:57:b5, 2085-97-173 00:88:246:-179,2.895,4.122,-4.587,-101.196,60.181,165.344,10.453,12.755,14.167
 15:07:28.370,eb:33:2e:f9:57:b5, 2085-97-149 01:59:247:-830,-2.333,-0.278,-2.433,-59.509,104.492,71.289,9.789,13.09,14.892
 15:07:28.458,eb:33:2e:f9:57:b5, 2085-97-72 242:104:251:5961,-0.743,-0.578,2.26,-25.94,3.906,0.671,9.564,13.997,15.496
 15:07:28.458,eb:33:2e:f9:57:b5, 2085-97-211 11:79:03:091,1.668,-0.247,1.99,-33.63,-137.695,-56.335,9.207,13.156,15.046
 15:07:28.458,eb:33:2e:f9:57:b5, 2085-97-177 06:103:02:1270,0.241,0.661,-0.042,-37.781,19.836,35.339,8.866,12.667,14.974
 15:07:28.458,eb:33:2e:f9:57:b5, 2085-97-144 251:162:252:3163,-0.691,-0.206,1.114,-39.917,58.105,53.955,8.619,13.019,15.59
 15:07:28.518,eb:33:2e:f9:57:b5, 2085-97-21 254:123:00:2992,0.598,-0.331,1.748,-31.677,-6.409,18.921,8.372,13.195,15.991
 15:07:28.518,eb:33:2e:f9:57:b5, 2085-97-81 03:77:00:1817,-0.049,0.14,0.957,-46.265,14.709,17.7,8.031,13.013,16.111
 15:07:28.518,eb:33:2e:f9:57:b5, 2085-97-158 04:195:00:2362,0.49,-0.045,0.953,-56.458,96.191,22.339,7.559,13.574,16.392
 15:07:28.518,eb:33:2e:f9:57:b5, 2085-97-113 04:168:05:5899,0.537,0.589,2.459,-110.718,177.551,27.771,6.877,15.062,16.853
 15:07:28.520,eb:33:2e:f9:57:b5, 2085-97-105 03:223:06:5770,0.31,0.763,2.769,-184.998,170.41,43.335,5.515,16.727,17.408
 15:07:28.520,eb:33:2e:f9:57:b5, 2085-97-96 02:192:07:5423,0.101,0.705,2.798,-255.798,177.917,57.861,3.477,18.386,18.105
 15:07:28.520,eb:33:2e:f9:57:b5, 2085-97-55 254:239:05:5199,-0.493,0.897,2.659,-319.763,173.218,77.759,0.846,20.116,18.918
 15:07:28.520,eb:33:2e:f9:57:b5, 2085-97-223 251:57:06:5292,-0.608,0.805,2.649,-376.526,153.87,56.335,-2.401,21.72,19.578
 15:07:28.520,eb:33:2e:f9:57:b5, 2085-97-252 251:25:05:5432,-0.428,0.741,2.619,-430.664,104.492,22.4,-6.356,23.011,19.885
 15:07:28.520,eb:33:2e:f9:57:b5, 2085-97-109 252:151:06:6990,-0.58,0.833,2.875,-484.192,70.557,-9.094,-10.997,23.796,19.737
 15:07:28.520,eb:33:2e:f9:57:b5, 2085-97-183 251:135:03:7878,-0.333,0.76,3.8,-517.7,-15.686,-22.339,-16.161,24.033,19.506
 15:07:28.521,eb:33:2e:f9:57:b5, 2085-97-137 00:154:05:10801,0.121,0.175,4.204,-517.517,-79.956,-33.63,-21.385,23.357,19.374
 15:07:28.524,eb:33:2e:f9:57:b5, 2085-97-77 01:10:06:11853,0.429,0.415,6.143,-487.732,-269.653,9.094,-26.191,21.802,19.995
 15:07:28.524,eb:33:2e:f9:57:b5, 2085-97-66 02:151:00:6333,-0.207,0.716,4.805,-457.153,-441.345,117.981,-29.916,18.633,22.511
 15:07:28.524,eb:33:2e:f9:57:b5, 2085-97-108 251:211:242:2878,-0.603,-2.114,0.734,-414.246,-179.443,77.637,-33.657,16.458,25.345
 15:07:28.524,eb:33:2e:f9:57:b5, 2085-97-185 250:74:248:9163,-0.686,-0.756,3.161,-327.82,-65.369,54.626,-36.744,15.925,26.483
 15:07:28.526,eb:33:2e:f9:57:b5, 2085-97-217 251:114:255:9623,-1.837,-0.334,5.115,-393.921,-52.368,-41.626,-40.281,15.524,26.763
 15:07:28.526,eb:33:2e:f9:57:b5, 2085-97-222 240:23:16:5968,-1.896,1.858,3.236,-279.48,-78.918,-308.655,-57.892,5.74,24.39
 15:07:28.526,eb:33:2e:f9:57:b5, 2085-97-04 241:79:18:4871,-1.839,2.147,2.604,-229.004,-63.599,-343.323,-60.491,2.543,23.318
 15:07:28.526,eb:33:2e:f9:57:b5, 2085-97-215 240:143:19:4572,-1.825,2.386,2.261,-181.946,-39.795,-358.093,-62.474,-0.862,22.017
 15:07:28.549,eb:33:2e:f9:57:b5, 2085-97-84 242:209:20:4093,-1.632,2.533,2.128,-135.864,-32.41,-351.501,-63.984,-4.197,20.726
 15:07:28.549,eb:33:2e:f9:57:b5, 2085-97-163 242:197:21:4305,-1.55,2.66,1.963,-108.093,-30.945,-327.576,-64.979,-7.46,19.468
 15:07:28.549,eb:33:2e:f9:57:b5, 2085-97-174 247:211:25:3969,-0.913,2.877,2.258,-99.304,-27.893,-301.086,-65.841,-10.432,18.463
 15:07:28.549,eb:33:2e:f9:57:b5, 2085-97-67 250:23:32:1687,-0.604,3.617,1.504,-64.148,31.067,-269.592,-66.363,-13.085,17.128
 15:07:28.578,eb:33:2e:f9:57:b5, 2085-97-224 251:47:33:460,-0.323,4.075,0.424,62.744,31.25,-152.466,-66.061,-14.843,15.93
 15:07:28.578,eb:33:2e:f9:57:b5, 2085-97-230 253:25:34:-1415,-0.242,4.363,-0.191,169.922,25.269,-34.912,-64.534,-15.59,15.276
 15:07:28.578,eb:33:2e:f9:57:b5, 2085-97-77 253:39:25:-3449,-0.5,3.695,-1.348,260.01,100.525,64.331,-62.26,-15.139,14.843
 15:07:28.578,eb:33:2e:f9:57:b5, 2085-97-164 250:141:22:-1310,-0.858,2.924,-1.342,368.042,237.854,128.845,-58.661,-13.409,13.722
 15:07:28.639,eb:33:2e:f9:57:b5, 2085-97-09 248:14:20:1148,-1.059,2.667,0.047,424.011,312.378,161.865,-54.311,-10.585,12.118
 15:07:28.639,eb:33:2e:f9:57:b5, 2085-97-139 247:34:18:2046,-1.012,2.372,0.849,468.506,320.984,178.04,-49.499,-7.306,10.596
 15:07:28.639,eb:33:2e:f9:57:b5, 2085-97-81 248:134:17:2944,-0.882,2.2,1.134,528.442,340.82,178.467,-44.379,-3.746,9.41
 15:07:28.639,eb:33:2e:f9:57:b5, 2085-97-184 249:243:17:4954,-0.684,2.231,1.901,580.933,369.446,168.762,-38.633,0.049,8.289
 15:07:28.667,eb:33:2e:f9:57:b5, 2085-97-107 250:19:16:6990,-0.83,2.174,2.91,606.75,364.868,156.128,-32.69,4.005,7.449
 15:07:28.667,eb:33:2e:f9:57:b5, 2085-97-17 249:49:11:7779,-0.961,1.742,3.793,617.126,310.242,122.986,-26.483,7.619,6.965
 15:07:28.667,eb:33:2e:f9:57:b5, 2085-97-05 248:171:05:7631,-1.055,1.017,3.735,645.447,257.507,55.786,-20.226,10.541,6.674
 15:07:28.667,eb:33:2e:f9:57:b5, 2085-97-124 247:25:03:8341,-0.877,0.485,3.871,686.462,229.736,-52.734,-13.557,12.843,5.927
 15:07:28.697,eb:33:2e:f9:57:b5, 2085-97-21 248:172:253:7700,-0.496,0.17,3.829,721.436,199.341,-170.715,-6.883,14.716,4.334
 15:07:28.697,eb:33:2e:f9:57:b5, 2085-97-189 02:23:253:7543,0.928,-0.385,3.739,739.563,196.045,-276.855,-0.066,16.496,1.813
 15:07:28.697,eb:33:2e:f9:57:b5, 2085-97-225 10:193:252:9834,1.869,-0.309,4.008,708.496,227.722,-298.523,6.257,18.842,-1.225
 15:07:28.697,eb:33:2e:f9:57:b5, 2085-97-215 19:241:241:12454,3.359,-0.987,5.51,630.127,180.237,-208.435,12.321,21.253,-3.527
 15:07:28.759,eb:33:2e:f9:57:b5, 2085-97-243 33:251:227:12794,4.793,-2.519,6.356,461.975,201.782,-94.238,17.375,23.362,-4.647
 15:07:28.759,eb:33:2e:f9:57:b5, 2085-113-58 00:78:253:-8025,4.91,-4.62,5.816,317.566,313.11,35.583,21.544,25.889,-3.911
 15:07:28.759,eb:33:2e:f9:57:b5, 2085-97-109 37:63:204:11485,4.384,-5.543,5.49,296.875,345.703,107.605,23.566,27.285,-2.862
 15:07:28.759,eb:33:2e:f9:57:b5, 2085-97-149 34:207:189:12529,4.131,-7.413,6.112,251.16,306.641,210.022,28.12,29.498,0.571
 15:07:28.849,eb:33:2e:f9:57:b5, 2085-97-255 29:90:179:9325,3.074,-8.984,5.494,90.698,208.069,210.693,31.635,30.624,4.12
 15:07:28.849,eb:33:2e:f9:57:b5, 2085-97-228 20:218:180:5124,2.249,-9.629,3.779,-52.551,61.157,154.541,33.091,30.69,6.724
 15:07:28.849,eb:33:2e:f9:57:b5, 2085-97-16 16:201:190:1106,1.796,-8.879,1.337,-125.977,-23.193,76.111,32.701,30.108,7.767
 15:07:28.849,eb:33:2e:f9:57:b5, 2085-97-53 14:176:204:248,1.616,-7.339,0.164,-187.622,5.127,8.789,31.273,29.729,8.031
 15:07:28.878,eb:33:2e:f9:57:b5, 2085-97-07 12:250:219:1590,1.628,-5.465,0.477,-259.766,55.847,-21.606,29.048,30.114,8.058
 15:07:28.878,eb:33:2e:f9:57:b5, 2085-97-52 01:207:203:11684,-0.182,-3.364,2.279,-365.051,219.543,177.856,26.406,30.723,8.63
 15:07:28.878,eb:33:2e:f9:57:b5, 2085-97-129 253:114:10:12421,-2.009,2.829,-1.176,-842.712,-486.633,-226.746,17.869,27.784,5.169
 15:07:28.878,eb:33:2e:f9:57:b5, 2085-97-106 14:176:234:-5789,2.256,-9.063,4.42,-203.796,-172.485,-74.28,11.288,24.774,4.125
 15:07:28.880,eb:33:2e:f9:57:b5, 2085-97-251 29:199:27:-2924,3.419,-0.323,-0.475,150.696,-196.594,128.662,11.393,20.676,2.961
 15:07:28.880,eb:33:2e:f9:57:b5, 2085-97-158 08:08:255:-522,-0.604,1.338,-1.697,-33.447,9.094,56.885,11.486,18.896,2.604
 15:07:28.880,eb:33:2e:f9:57:b5, 2085-97-240 03:76:250:267,-0.471,0.144,1.221,-36.926,-2.258,9.338,11.223,19.012,2.856
 15:07:28.880,eb:33:2e:f9:57:b5, 2085-97-25 251:147:00:2984,-0.015,-0.955,1.023,4.089,-35.095,-12.756,11.069,18.836,2.851
 15:07:28.938,eb:33:2e:f9:57:b5, 2085-97-04 03:224:02:2275,0.766,0.115,1.447,-6.226,-76.721,-13.489,10.97,18.248,2.554
 15:07:28.938,eb:33:2e:f9:57:b5, 2085-97-00 09:163:00:252,0.57,0.272,0.458,-26.978,-38.086,10.864,10.723,17.567,2.39
 15:07:28.938,eb:33:2e:f9:57:b5, 2085-97-16 254:35:255:2923,-0.021,0.212,0.779,-27.649,31.799,36.743,10.552,17.578,2.664
 15:07:28.938,eb:33:2e:f9:57:b5, 2085-97-193 254:137:255:2830,0.204,-0.159,1.318,-24.292,7.812,29.053,10.388,17.595,3.005
 15:07:28.998,eb:33:2e:f9:57:b5, 2085-97-152 04:01:01:1671,0.88,-0.022,1.105,-18.616,-4.578,32.288,10.261,17.518,3.301
 15:07:28.998,eb:33:2e:f9:57:b5, 2085-97-109 03:123:00:2265,0.458,0.298,0.77,-24.78,53.528,49.316,10.184,17.578,3.73
 15:07:28.998,eb:33:2e:f9:57:b5, 2085-97-180 05:169:01:1801,0.516,0.173,1.129,-29.48,85.51,48.035,10.118,18.182,4.367
 15:07:28.998,eb:33:2e:f9:57:b5, 2085-97-65 04:201:03:2958,0.542,0.472,1.377,-47.974,171.082,56.763,10.003,19.308,5.153
 15:07:28.999,eb:33:2e:f9:57:b5, 2085-97-122 04:30:04:3913,0.435,0.805,1.965,-97.29,267.578,60.486,9.646,21.418,6.18
 15:07:28.999,eb:33:2e:f9:57:b5, 2085-97-129 02:179:09:8581,-0.237,1.266,3.264,-187.561,317.444,69.092,8.723,24.291,7.394
 15:07:28.999,eb:33:2e:f9:57:b5, 2085-97-227 248:96:08:8346,-1.339,1.29,4.194,-304.199,277.161,75.867,6.74,27.147,8.663
 15:07:28.999,eb:33:2e:f9:57:b5, 2085-97-110 243:87:10:8216,-1.502,1.356,4.204,-394.897,177.49,55.115,3.642,29.29,9.558
 15:07:29.057,eb:33:2e:f9:57:b5, 2085-97-158 247:21:11:7272,-0.523,1.195,3.828,-484.131,66.772,19.226,-0.544,30.388,10.047
 15:07:29.057,eb:33:2e:f9:57:b5, 2085-97-153 255:14:13:7190,0.482,1.638,3.568,-569.092,33.508,-23.804,-5.911,30.74,9.932
 15:07:29.057,eb:33:2e:f9:57:b5, 2085-97-33 09:186:12:8526,1.292,1.677,3.783,-622.314,31.799,-34.973,-12.145,31.014,9.481
 15:07:29.057,eb:33:2e:f9:57:b5, 2085-97-116 09:189:06:9503,0.988,1.717,4.414,-655.701,-12.817,10.193,-18.71,30.981,9.168
 15:07:29.060,eb:33:2e:f9:57:b5, 2085-97-121 09:93:10:8418,1.079,1.124,5.203,-605.103,-206.116,77.209,-24.62,30.212,10.074
 15:07:29.060,eb:33:2e:f9:57:b5, 2085-97-99 03:98:235:3420,-0.545,0.476,2.8,-567.932,-199.219,152.405,-29.114,28.488,12.563
 15:07:29.060,eb:33:2e:f9:57:b5, 2085-97-228 248:107:246:9825,-1.41,-1.615,4.076,-396.606,-47.913,-59.814,-33.569,27.933,13.271
 15:07:29.060,eb:33:2e:f9:57:b5, 2085-97-50 242:137:02:10604,-1.73,-0.576,5.488,-361.267,-75.134,-235.107,-37.694,26.433,12.211
 15:07:29.118,eb:33:2e:f9:57:b5, 2085-97-140 241:110:15:6806,-1.833,1.055,4.205,-354.126,-78.552,-373.84,-42.198,23.741,10.146
 15:07:29.118,eb:33:2e:f9:57:b5, 2085-97-114 241:239:26:5196,-1.84,2.794,2.697,-279.48,-40.894,-426.086,-46.373,20.336,7.333
 15:07:29.118,eb:33:2e:f9:57:b5, 2085-97-194 241:203:30:5916,-1.675,3.656,2.756,-193.481,-27.71,-413.452,-49.565,17.001,4.581
 15:07:29.118,eb:33:2e:f9:57:b5, 2085-97-180 243:141:32:5206,-1.496,3.992,2.801,-130.859,-42.236,-373.779,-51.696,13.629,2.203
 15:07:29.149,eb:33:2e:f9:57:b5, 2085-97-223 244:179:32:4362,-1.298,4.096,2.37,-88.623,-54.26,-315.186,-53.124,10.624,0.461
 15:07:29.149,eb:33:2e:f9:57:b5, 2085-97-254 245:60:31:2714,-1.254,4.02,1.764,-60.791,-53.467,-260.742,-53.987,7.91,-0.862
 15:07:29.149,eb:33:2e:f9:57:b5, 2085-97-17 246:189:28:1684,-1.207,3.742,1.005,-21.179,-25.635,-209.656,-54.514,5.79,-1.906
 15:07:29.149,eb:33:2e:f9:57:b5, 2085-97-109 246:111:26:1161,-1.179,3.448,0.665,24.048,6.531,-169.556,-54.481,4.142,-3.005
 15:07:29.208,eb:33:2e:f9:57:b5, 2085-97-242 246:41:24:880,-1.059,3.166,0.498,65.918,27.466,-138.489,-54.069,3.021,-4.048
 15:07:29.208,eb:33:2e:f9:57:b5, 2085-97-52 248:138:23:-008,-0.88,2.932,0.285,100.586,53.528,-121.277,-53.168,2.159,-5.197
 15:07:29.208,eb:33:2e:f9:57:b5, 2085-113-81 00:237:114:-14295,-0.739,3.046,-0.344,153.32,96.008,-98.938,-51.943,1.736,-6.476
 15:07:29.208,eb:33:2e:f9:57:b5, 2085-97-93 251:247:24:-1282,-0.483,3.102,-0.555,187.012,121.46,-80.505,-51.097,1.736,-7.185
 15:07:29.208,eb:33:2e:f9:57:b5, 2085-97-198 252:161:24:-1013,-0.345,3.147,-0.582,252.136,174.5,-38.452,-48.807,2.203,-8.778
 15:07:29.269,eb:33:2e:f9:57:b5, 2085-97-81 253:246:20:-099,-0.317,2.887,-0.313,310.181,220.276,9.766,-46.038,3.466,-10.333
 15:07:29.269,eb:33:2e:f9:57:b5, 2085-97-118 253:218:16:1090,-0.365,2.355,0.23,359.924,255.371,49.316,-42.649,5.356,-11.838
 15:07:29.269,eb:33:2e:f9:57:b5, 2085-97-133 252:51:13:2453,-0.499,1.875,0.867,401.55,272.034,78.003,-38.963,7.811,-13.096
 15:07:29.269,eb:33:2e:f9:57:b5, 2085-97-224 251:153:10:3586,-0.515,1.459,1.562,437.988,251.038,93.75,-34.761,10.404,-14.03
 15:07:29.330,eb:33:2e:f9:57:b5, 2085-97-247 251:169:08:4033,-0.512,1.211,1.872,458.374,223.938,90.515,-30.361,12.887,-14.524
 15:07:29.330,eb:33:2e:f9:57:b5, 2085-97-131 251:11:07:4425,-0.632,0.98,2.066,472.656,206.421,72.266,-25.637,15.117,-14.848
 15:07:29.330,eb:33:2e:f9:57:b5, 2085-97-35 251:42:05:4484,-0.601,0.772,2.233,482.971,191.04,38.574,-20.929,17.15,-15.139
 15:07:29.330,eb:33:2e:f9:57:b5, 2085-97-58 251:94:02:4501,-0.463,0.481,2.174,489.807,196.35,-11.475,-16.084,18.984,-15.683
 15:07:29.359,eb:33:2e:f9:57:b5, 2085-97-73 253:94:00:4399,-0.23,0.173,2.163,505.249,209.717,-71.472,-11.448,20.847,-16.655
 15:07:29.359,eb:33:2e:f9:57:b5, 2085-97-179 255:41:254:4113,0.294,-0.105,2.1,546.936,211.67,-116.028,-6.57,22.764,-18.078
 15:07:29.359,eb:33:2e:f9:57:b5, 2085-97-217 04:134:253:4491,0.822,-0.261,1.976,585.815,222.29,-134.46,-1.489,24.807,-19.726
 15:07:29.359,eb:33:2e:f9:57:b5, 2085-97-135 07:109:249:6590,0.974,-0.476,2.643,582.397,234.009,-110.107,3.95,27.12,-21.055
 15:07:29.359,eb:33:2e:f9:57:b5, 2085-97-98 08:65:239:8555,1.229,-1.399,3.794,543.884,193.848,-48.706,9.311,29.355,-21.725
 15:07:29.359,eb:33:2e:f9:57:b5, 2085-97-79 11:137:226:8932,1.593,-2.829,4.31,457.275,169.312,-0.122,14.573,31.047,-21.511
 15:07:29.359,eb:33:2e:f9:57:b5, 2085-97-110 14:149:213:9720,2.06,-4.546,4.514,339.355,203.491,21.851,18.935,32.805,-20.786
 15:07:29.359,eb:33:2e:f9:57:b5, 2085-97-189 18:225:203:9341,2.682,-5.962,4.772,222.107,208.984,34.18,22.484,34.612,-19.539
 15:07:29.598,eb:33:2e:f9:57:b5, 2085-97-60 24:191:198:8285,3.28,-6.94,4.215,128.723,206.604,55.908,25.071,36.31,-18.078
 15:07:29.598,eb:33:2e:f9:57:b5, 2085-97-169 25:17:201:8006,2.911,-7.127,3.869,38.025,196.35,83.435,27.131,37.776,-16.122
 15:07:29.598,eb:33:2e:f9:57:b5, 2085-97-205 20:118:204:6841,2.32,-6.596,3.902,-57.678,88.806,112.488,28.229,38.606,-14.178
 15:07:29.598,eb:33:2e:f9:57:b5, 2085-97-200 15:234:206:3390,1.57,-6.365,2.451,-122.986,-11.475,115.601,28.235,38.188,-12.695
 15:07:29.628,eb:33:2e:f9:57:b5, 2085-97-211 10:199:216:2044,1.28,-5.67,1.196,-161.377,-7.935,84.473,27.433,37.59,-11.722
 15:07:29.628,eb:33:2e:f9:57:b5, 2085-97-71 10:140:236:1966,-5.938,-3.639,1.006,-224.365,20.874,58.899,26.027,37.288,-10.909
 15:07:29.628,eb:33:2e:f9:57:b5, 2085-97-183 249:205:14:-8347,2.618,-1.567,9.338,-698.059,-389.526,-191.04,23.121,37.26,-9.827
 15:07:29.628,eb:33:2e:f9:57:b5, 2085-97-57 212:161:16:25276,-9.124,-2.068,4.963,-930.664,-405.64,-363.464,11.014,33.931,-15.375
 15:07:29.630,eb:33:2e:f9:57:b5, 2085-97-41 02:250:239:-837,6.555,-10.56,8.12,-69.58,-669.067,-63.232,4.592,28.597,-16.408
 15:07:29.630,eb:33:2e:f9:57:b5, 2085-97-01 26:01:26:-3785,3.561,1.533,-3.761,117.859,-303.345,68.787,4.944,21.16,-17.556
 15:07:29.630,eb:33:2e:f9:57:b5, 2085-97-180 03:213:246:-394,1.301,2.022,-1.619,-76.111,16.602,92.041,5.043,19.49,-17.298
 15:07:29.630,eb:33:2e:f9:57:b5, 2085-97-254 248:45:245:2521,-1.629,-0.48,-1.037,-34.79,42.786,59.57,4.636,19.473,-16.716
 15:07:29.632,eb:33:2e:f9:57:b5, 2085-97-32 254:39:254:3491,0.35,-0.105,2.183,-14.771,-90.149,-21.057,4.488,19.27,-16.76
 15:07:29.632,eb:33:2e:f9:57:b5, 2085-97-152 08:113:02:341,1.678,0.367,0.92,-27.1,-101.685,-21.179,4.224,18.155,-17.078
 15:07:29.632,eb:33:2e:f9:57:b5, 2085-97-245 05:98:02:1372,-0.223,0.29,-0.293,-33.142,11.108,24.414,3.878,17.682,-17.183
 15:07:29.632,eb:33:2e:f9:57:b5, 2085-97-100 252:204:253:3362,-0.045,-0.108,1.584,-42.358,30.762,40.71,3.625,17.968,-16.749
 15:07:29.633,eb:33:2e:f9:57:b5, 2085-97-23 02:123:255:2075,-0.915,-0.231,1.304,-31.311,-10.437,32.654,3.373,17.985,-16.447
 15:07:29.633,eb:33:2e:f9:57:b5, 2085-97-242 247:243:06:6167,-0.901,0.797,2.865,-406.921,49.744,17.517,-9.272,27.719,-12.255
 15:07:29.633,eb:33:2e:f9:57:b5, 2085-97-209 248:202:06:6337,-0.886,0.869,3.037,-476.99,22.461,-19.348,-13.782,28.037,-12.382
 15:07:29.633,eb:33:2e:f9:57:b5, 2085-97-147 247:254:01:7302,-0.993,0.318,3.199,-542.114,38.696,-65.186,-19.188,28.081,-12.931
 15:07:29.689,eb:33:2e:f9:57:b5, 2085-97-89 250:149:02:8410,-0.287,0.447,3.934,-567.932,26.917,-109.009,-25.312,28.065,-14.046
 15:07:29.689,eb:33:2e:f9:57:b5, 2085-97-125 03:52:250:10761,0.945,0.053,4.25,-574.951,-20.508,-127.869,-31.591,27.389,-15.326
 15:07:29.689,eb:33:2e:f9:57:b5, 2085-97-61 11:00:05:11059,1.696,-0.422,6.195,-594.543,-198.853,-88.501,-37.612,25.911,-15.765
 15:07:29.689,eb:33:2e:f9:57:b5, 2085-97-243 11:59:240:1059,0.857,0.9,3.515,-599.792,-260.925,97.473,-42.704,23.769,-13.711
 15:07:29.720,eb:33:2e:f9:57:b5, 2085-97-150 01:138:249:7966,-0.141,-1.287,1.792,-383.057,-37.17,64.392,-47,23.489,-12.393
 15:07:29.720,eb:33:2e:f9:57:b5, 2085-97-220 253:208:247:12481,-0.1,-1.339,5.577,-390.686,-29.846,-32.104,-50.471,23.379,-11.959
 15:07:29.720,eb:33:2e:f9:57:b5, 2085-97-63 255:23:252:10054,-0.171,-0.775,5.315,-466.431,-45.532,-170.776,-55.036,22.203,-12.332
 15:07:29.720,eb:33:2e:f9:57:b5, 2085-97-209 253:199:02:10218,-0.417,-0.07,4.919,-421.631,-65.918,-243.896,-59.76,19.962,-13.156
 15:07:29.748,eb:33:2e:f9:57:b5, 2085-97-176 250:43:08:10263,-0.947,0.713,4.993,-367.004,-101.562,-274.353,-63.803,17.243,-13.661
 15:07:29.748,eb:33:2e:f9:57:b5, 2085-97-248 245:186:11:9697,-1.477,1.275,4.954,-353.394,-134.216,-292.419,-67.346,14.03,-13.815
 15:07:29.748,eb:33:2e:f9:57:b5, 2085-97-119 242:223:12:7696,-1.839,1.558,4.261,-340.027,-152.466,-308.289,-70.763,10.69,-13.508
 15:07:29.748,eb:33:2e:f9:57:b5, 2085-97-183 240:229:13:6153,-1.903,1.664,3.324,-299.438,-133.423,-324.158,-73.823,7.103,-13.162
 15:07:29.807,eb:33:2e:f9:57:b5, 2085-97-223 240:27:17:5739,-1.813,1.903,2.84,-250.61,-92.346,-337.463,-76.52,3.598,-12.942
 15:07:29.807,eb:33:2e:f9:57:b5, 2085-97-28 242:51:20:6006,-1.677,2.329,2.825,-206.848,-76.66,-329.651,-78.684,0.022,-12.947
 15:07:29.807,eb:33:2e:f9:57:b5, 2085-97-102 242:158:22:6211,-1.523,2.664,3.016,-180.054,-102.417,-295.593,-80.607,-3.197,-12.645
