Time,Device name,Chip Time(),Acceleration X(g),Acceleration Y(g),Acceleration Z(g),Angular velocity X(°/s),Angular velocity Y(°/s),Angular velocity Z(°/s),Angle X(°),Angle Y(°),Angle Z(°)
 15:08:58.314,eb:33:2e:f9:57:b5, 2085-97-00 00:01:00:2053,0,0,1.003,0,0.061,0.183,0.236,0.044,-174.781
 15:08:58.314,eb:33:2e:f9:57:b5, 2085-97-00 00:255:255:2054,0,0,1.003,0.061,-0.122,0.122,0.236,0.044,-174.781
 15:08:58.314,eb:33:2e:f9:57:b5, 2085-97-255 255:01:00:2058,0,0,1.004,0.061,-0.244,0.061,0.231,0.044,-174.781
 15:08:58.314,eb:33:2e:f9:57:b5, 2085-97-00 00:04:00:2058,0.001,0.001,1.005,0.061,-0.427,0.061,0.231,0.044,-174.781
 15:08:58.342,eb:33:2e:f9:57:b5, 2085-97-03 00:02:00:2057,0.002,0.001,1.004,0,-0.427,0.061,0.231,0.044,-174.787
 15:08:58.342,eb:33:2e:f9:57:b5, 2085-97-05 00:04:00:2057,0.002,0.002,1.004,-0.061,-0.305,0.061,0.231,0.044,-174.787
 15:08:58.342,eb:33:2e:f9:57:b5, 2085-97-04 00:04:00:2054,0.003,0.002,1.003,-0.061,-0.061,0.061,0.231,0.044,-174.787
 15:08:58.342,eb:33:2e:f9:57:b5, 2085-97-08 00:04:00:2052,0.003,0.003,1.001,-0.183,0.061,0.122,0.231,0.044,-174.787
 15:08:58.374,eb:33:2e:f9:57:b5, 2085-97-02 00:02:00:2054,0.001,0.002,1.002,-0.244,0.366,0.183,0.231,0.038,-174.787
 15:08:58.374,eb:33:2e:f9:57:b5, 2085-97-00 00:01:00:2057,0,0,1.003,-0.183,0.427,0.183,0.231,0.038,-174.787
 15:08:58.374,eb:33:2e:f9:57:b5, 2085-97-00 00:01:00:2055,0,0,1.004,-0.183,0.305,0.183,0.225,0.038,-174.792
 15:08:58.374,eb:33:2e:f9:57:b5, 2085-97-01 00:01:00:2052,0,0,1.002,-0.122,0.183,0.122,0.225,0.038,-174.792
 15:08:58.433,eb:33:2e:f9:57:b5, 2085-97-255 255:00:00:2055,-0.001,0,1.003,-0.061,0.122,0.061,0.225,0.038,-174.792
 15:08:58.433,eb:33:2e:f9:57:b5, 2085-97-255 255:00:00:2054,0,0,1.003,0,0,0.061,0.225,0.038,-174.792
 15:08:58.434,eb:33:2e:f9:57:b5, 2085-97-00 00:00:00:2056,0.001,0,1.003,0.061,-0.183,0.061,0.225,0.033,-174.792
 15:08:58.434,eb:33:2e:f9:57:b5, 2085-97-05 00:02:00:2053,0,0,1.003,0.122,-0.183,0,0.225,0.033,-174.792
 15:08:58.463,eb:33:2e:f9:57:b5, 2085-97-01 00:02:00:2056,0.002,0,1.004,0.122,-0.122,0,0.22,0.033,-174.792
 15:08:58.463,eb:33:2e:f9:57:b5, 2085-97-05 00:01:00:2053,0.001,0.001,1.002,0.061,-0.061,0,0.22,0.033,-174.798
 15:08:58.463,eb:33:2e:f9:57:b5, 2085-97-00 00:01:00:2056,0,0.001,1.003,0.183,0,0.061,0.22,0.033,-174.798
 15:08:58.463,eb:33:2e:f9:57:b5, 2085-97-00 00:02:00:2059,0,0,1.005,0.061,-0.061,0.061,0.22,0.033,-174.798
 15:08:58.553,eb:33:2e:f9:57:b5, 2085-97-253 255:00:00:2060,-0.003,0,1.005,0.122,-0.061,0.061,0.22,0.033,-174.798
 15:08:58.553,eb:33:2e:f9:57:b5, 2085-97-02 00:07:00:2058,0,0.001,1.008,0,-0.488,0,0.22,0.033,-174.798
 15:08:58.553,eb:33:2e:f9:57:b5, 2085-97-00 00:04:00:2058,0,0.001,1.004,0.061,-0.427,0.122,0.22,0.027,-174.798
 15:08:58.553,eb:33:2e:f9:57:b5, 2085-97-01 00:03:00:2060,0.001,0.001,1.005,0,-0.488,0.244,0.22,0.027,-174.798
 15:08:58.553,eb:33:2e:f9:57:b5, 2085-97-06 00:06:00:2057,0.003,0.002,1.005,-0.061,-0.305,0.244,0.214,0.027,-174.803
 15:08:58.553,eb:33:2e:f9:57:b5, 2085-97-07 00:05:00:2054,0.002,0.003,1.004,-0.122,-0.122,0.244,0.214,0.027,-174.803
 15:08:58.553,eb:33:2e:f9:57:b5, 2085-97-04 00:03:00:2052,0.002,0.002,1.003,-0.122,0.183,0.244,0.214,0.027,-174.803
 15:08:58.553,eb:33:2e:f9:57:b5, 2085-97-05 00:02:00:2053,0.002,0.001,1.002,-0.183,0.244,0.244,0.214,0.027,-174.803
 15:08:58.583,eb:33:2e:f9:57:b5, 2085-97-01 00:02:00:2054,0,0.001,1.003,-0.183,0.305,0.244,0.214,0.027,-174.803
 15:08:58.583,eb:33:2e:f9:57:b5, 2085-97-02 00:02:00:2052,0,0.001,1.002,-0.183,0.427,0.122,0.214,0.027,-174.803
 15:08:58.583,eb:33:2e:f9:57:b5, 2085-97-00 00:02:00:2054,0,0,1.003,-0.183,0.305,0.122,0.214,0.022,-174.803
 15:08:58.583,eb:33:2e:f9:57:b5, 2085-97-00 00:00:00:2054,0,0,1.002,-0.061,0.244,0,0.214,0.022,-174.803
 15:08:58.643,eb:33:2e:f9:57:b5, 2085-97-255 255:00:00:2057,-0.003,0,1.003,0,0.183,0,0.214,0.022,-174.809
 15:08:58.643,eb:33:2e:f9:57:b5, 2085-97-252 255:00:00:2061,-0.002,0,1.006,0,-0.061,-0.061,0.214,0.022,-174.809
 15:08:58.643,eb:33:2e:f9:57:b5, 2085-97-254 255:01:00:2060,0,0,1.006,0,-0.305,0,0.209,0.022,-174.809
 15:08:58.643,eb:33:2e:f9:57:b5, 2085-97-00 00:02:00:2059,0,0.001,1.005,0,-0.549,-0.061,0.209,0.022,-174.809
 15:08:58.672,eb:33:2e:f9:57:b5, 2085-97-01 00:02:00:2057,0,0.001,1.004,0,-0.549,0,0.209,0.022,-174.809
 15:08:58.672,eb:33:2e:f9:57:b5, 2085-97-02 00:03:00:2057,0.001,0.001,1.004,0,-0.549,0,0.209,0.022,-174.809
 15:08:58.672,eb:33:2e:f9:57:b5, 2085-97-05 00:03:00:2055,0.003,0,1.004,-0.061,-0.549,0,0.209,0.022,-174.809
 15:08:58.672,eb:33:2e:f9:57:b5, 2085-97-05 00:04:00:2056,0.002,0.001,1.004,-0.122,-0.366,0,0.209,0.022,-174.809
 15:08:58.703,eb:33:2e:f9:57:b5, 2085-97-05 00:03:00:2056,0.002,0.001,1.004,-0.122,-0.122,0.061,0.209,0.016,-174.814
 15:08:58.703,eb:33:2e:f9:57:b5, 2085-97-05 00:04:00:2054,0.002,0.002,1.004,-0.183,0,0,0.209,0.016,-174.814
 15:08:58.703,eb:33:2e:f9:57:b5, 2085-97-07 00:03:00:2056,0.003,0.002,1.004,-0.366,0.183,0.061,0.209,0.016,-174.814
 15:08:58.703,eb:33:2e:f9:57:b5, 2085-97-05 00:04:00:2053,0.001,0.001,1.003,-0.366,0.488,0.061,0.209,0.016,-174.814
 15:08:58.764,eb:33:2e:f9:57:b5, 2085-97-03 00:00:00:2054,0.001,0,1.003,-0.366,0.549,0,0.203,0.016,-174.814
 15:08:58.764,eb:33:2e:f9:57:b5, 2085-97-255 255:255:255:2055,0,0,1.002,-0.305,0.549,0.061,0.203,0.016,-174.814
 15:08:58.764,eb:33:2e:f9:57:b5, 2085-97-255 255:255:255:2057,-0.001,0,1.004,-0.244,0.366,0.061,0.203,0.011,-174.814
 15:08:58.764,eb:33:2e:f9:57:b5, 2085-97-254 255:254:255:2057,0,0,1.004,-0.122,0.122,0.061,0.203,0.011,-174.814
 15:08:58.764,eb:33:2e:f9:57:b5, 2085-97-00 00:00:00:2053,0,0,1.003,0,0,0,0.203,0.011,-174.82
 15:08:58.792,eb:33:2e:f9:57:b5, 2085-113-58 00:152:254:-4995,0,0,1.003,0,-0.122,0,0.203,0.011,-174.82
 15:08:58.792,eb:33:2e:f9:57:b5, 2085-97-00 00:00:00:2055,0,0,1.003,0,-0.183,0,0.203,0.011,-174.82
 15:08:58.792,eb:33:2e:f9:57:b5, 2085-97-01 00:02:00:2054,0,0,1.003,0.122,-0.183,0,0.203,0.011,-174.82
 15:08:58.792,eb:33:2e:f9:57:b5, 2085-97-00 00:01:00:2056,0,0,1.004,0.183,-0.244,-0.061,0.203,0.011,-174.82
 15:08:58.823,eb:33:2e:f9:57:b5, 2085-97-03 00:03:00:2056,0.001,0.001,1.004,0.244,-0.427,-0.061,0.198,0.011,-174.82
 15:08:58.823,eb:33:2e:f9:57:b5, 2085-97-03 00:01:00:2055,0.003,0,1.003,0.183,-0.366,0,0.198,0.011,-174.82
 15:08:58.823,eb:33:2e:f9:57:b5, 2085-97-07 00:04:00:2050,0.003,0.001,1.002,0.183,-0.183,-0.061,0.198,0.011,-174.82
 15:08:58.823,eb:33:2e:f9:57:b5, 2085-97-05 00:03:00:2051,0.003,0.001,1.001,0.122,0,0,0.198,0.011,-174.82
 15:08:58.883,eb:33:2e:f9:57:b5, 2085-97-05 00:03:00:2052,0.001,0.002,1.001,0.122,0.183,-0.061,0.198,0.005,-174.825
 15:08:58.883,eb:33:2e:f9:57:b5, 2085-97-02 00:02:00:2054,0,0.001,1.003,0.122,0.244,-0.061,0.198,0.005,-174.825
 15:08:58.883,eb:33:2e:f9:57:b5, 2085-97-00 00:01:00:2058,0,0,1.004,0.183,0.244,-0.061,0.198,0.005,-174.825
 15:08:58.883,eb:33:2e:f9:57:b5, 2085-97-00 00:02:00:2059,0,0.001,1.006,0.183,0.244,0,0.198,0.005,-174.825
 15:08:58.913,eb:33:2e:f9:57:b5, 2085-97-01 00:01:00:2059,0,0.001,1.005,0.244,0.122,-0.061,0.192,0.005,-174.825
 15:08:58.913,eb:33:2e:f9:57:b5, 2085-97-00 00:03:00:2058,0.001,0.001,1.005,0.183,0.061,0,0.192,0.005,-174.825
 15:08:58.913,eb:33:2e:f9:57:b5, 2085-97-05 00:04:00:2054,0.002,0.002,1.003,0.061,0.061,0,0.192,0,-174.825
 15:08:58.913,eb:33:2e:f9:57:b5, 2085-97-02 00:05:00:2057,0,0.002,1.004,0,0.244,-0.061,0.192,0.005,-174.825
 15:08:58.943,eb:33:2e:f9:57:b5, 2085-97-00 00:03:00:2057,0.001,0.002,1.004,0,0.244,0,0.192,0,-174.831
 15:08:58.943,eb:33:2e:f9:57:b5, 2085-97-01 00:02:00:2056,0,0.001,1.004,0.061,0.244,-0.061,0.192,0,-174.831
 15:08:58.943,eb:33:2e:f9:57:b5, 2085-97-02 00:02:00:2055,0,0.001,1.004,0,0.183,0,0.192,0,-174.831
 15:08:58.943,eb:33:2e:f9:57:b5, 2085-97-00 00:01:00:2057,-0.001,0.001,1.003,0,0.122,0,0.192,0,-174.831
 15:08:59.034,eb:33:2e:f9:57:b5, 2085-97-252 255:03:00:2060,0,0,1.005,0.061,0,0,0.192,0,-174.831
 15:08:59.034,eb:33:2e:f9:57:b5, 2085-97-00 00:01:00:2057,0,0.001,1.005,0.061,-0.244,0,0.192,0,-174.831
 15:08:59.034,eb:33:2e:f9:57:b5, 2085-97-00 00:03:00:2056,0.001,0.001,1.005,0.122,-0.427,0,0.192,0,-174.831
 15:08:59.034,eb:33:2e:f9:57:b5, 2085-97-05 00:02:00:2055,0.002,0.001,1.004,0.061,-0.488,0,0.192,0,-174.831
 15:08:59.064,eb:33:2e:f9:57:b5, 2085-97-06 00:06:00:2056,0.002,0.002,1.003,0.122,-0.244,0,0.187,0,-174.831
 15:08:59.064,eb:33:2e:f9:57:b5, 2085-97-05 00:05:00:2058,0.002,0.002,1.004,0,-0.061,0,0.187,0,-174.831
 15:08:59.064,eb:33:2e:f9:57:b5, 2085-97-05 00:04:00:2055,0.002,0.003,1.004,0,0.061,0.061,0.187,-0.005,-174.836
 15:08:59.064,eb:33:2e:f9:57:b5, 2085-97-05 00:04:00:2056,0.001,0.001,1.004,-0.061,0.183,0.061,0.187,-0.005,-174.836
 15:08:59.067,eb:33:2e:f9:57:b5, 2085-97-02 00:04:00:2057,0,0.001,1.004,-0.183,0.427,0.061,0.187,-0.005,-174.836
 15:08:59.067,eb:33:2e:f9:57:b5, 2085-97-255 255:02:00:2056,0,0.001,1.004,-0.183,0.427,0.061,0.187,-0.005,-174.836
 15:08:59.067,eb:33:2e:f9:57:b5, 2085-97-00 00:02:00:2056,0,0.001,1.004,-0.122,0.244,0.061,0.187,-0.005,-174.836
 15:08:59.067,eb:33:2e:f9:57:b5, 2085-97-00 00:01:00:2055,-0.001,0,1.003,-0.183,0.122,0,0.187,-0.005,-174.836
 15:08:59.124,eb:33:2e:f9:57:b5, 2085-97-255 255:01:00:2055,-0.001,0,1.003,-0.061,-0.061,0.061,0.187,-0.005,-174.836
 15:08:59.124,eb:33:2e:f9:57:b5, 2085-97-255 255:02:00:2055,0,0,1.003,0,-0.305,0,0.187,-0.005,-174.836
 15:08:59.124,eb:33:2e:f9:57:b5, 2085-97-00 00:03:00:2056,0,0.001,1.004,-0.061,-0.427,0,0.187,-0.005,-174.836
 15:08:59.124,eb:33:2e:f9:57:b5, 2085-97-02 00:02:00:2056,0.001,0.002,1.003,0,-0.549,0,0.187,-0.005,-174.836
 15:08:59.152,eb:33:2e:f9:57:b5, 2085-97-03 00:05:00:2056,0.002,0.001,1.003,0,-0.488,0,0.187,-0.011,-174.836
 15:08:59.152,eb:33:2e:f9:57:b5, 2085-97-04 00:05:00:2055,0.003,0.003,1.003,-0.122,-0.305,0,0.187,-0.011,-174.836
 15:08:59.152,eb:33:2e:f9:57:b5, 2085-97-07 00:05:00:2055,0.003,0.002,1.004,-0.061,-0.183,0.061,0.181,-0.011,-174.842
 15:08:59.152,eb:33:2e:f9:57:b5, 2085-97-03 00:05:00:2056,0.001,0.002,1.004,-0.183,0,0.061,0.181,-0.011,-174.842
 15:08:59.182,eb:33:2e:f9:57:b5, 2085-97-05 00:03:00:2056,0.002,0.002,1.003,-0.183,0.122,0,0.181,-0.011,-174.842
 15:08:59.182,eb:33:2e:f9:57:b5, 2085-97-03 00:05:00:2056,0.001,0.002,1.004,-0.183,0.244,0.122,0.181,-0.011,-174.842
 15:08:59.182,eb:33:2e:f9:57:b5, 2085-97-03 00:03:00:2056,0.001,0.002,1.004,-0.183,0.366,0.122,0.181,-0.011,-174.842
 15:08:59.182,eb:33:2e:f9:57:b5, 2085-97-01 00:01:00:2056,0,0.001,1.003,-0.183,0.305,0.122,0.181,-0.011,-174.842
 15:08:59.243,eb:33:2e:f9:57:b5, 2085-97-00 00:00:00:2055,0,0,1.003,-0.183,0.305,0.061,0.181,-0.016,-174.842
 15:08:59.243,eb:33:2e:f9:57:b5, 2085-97-01 00:01:00:2054,0,0,1.002,-0.122,0.183,0.061,0.181,-0.016,-174.842
 15:08:59.243,eb:33:2e:f9:57:b5, 2085-97-00 00:02:00:2058,0,0,1.005,-0.061,0.183,0.122,0.181,-0.016,-174.847
 15:08:59.243,eb:33:2e:f9:57:b5, 2085-97-00 00:01:00:2056,0,0.001,1.004,-0.061,0,0.122,0.181,-0.016,-174.847
 15:08:59.273,eb:33:2e:f9:57:b5, 2085-97-00 00:03:00:2054,0,0.001,1.004,-0.061,0,0.183,0.181,-0.016,-174.847
 15:08:59.273,eb:33:2e:f9:57:b5, 2085-97-00 00:03:00:2058,0,0,1.004,0,0,0.122,0.181,-0.016,-174.847
 15:08:59.273,eb:33:2e:f9:57:b5, 2085-97-01 00:02:00:2055,0,0,1.004,0,-0.122,0.061,0.181,-0.016,-174.847
 15:08:59.273,eb:33:2e:f9:57:b5, 2085-97-00 00:01:00:2056,0,0.001,1.004,0,-0.122,0.061,0.181,-0.016,-174.847
 15:08:59.333,eb:33:2e:f9:57:b5, 2085-97-01 00:04:00:2057,0.001,0,1.005,0,-0.183,0.122,0.181,-0.016,-174.847
 15:08:59.333,eb:33:2e:f9:57:b5, 2085-97-01 00:04:00:2056,0.001,0.002,1.005,0,-0.122,0,0.181,-0.016,-174.847
 15:08:59.333,eb:33:2e:f9:57:b5, 2085-97-04 00:04:00:2055,0.002,0.002,1.004,0,-0.122,0.061,0.176,-0.016,-174.847
 15:08:59.333,eb:33:2e:f9:57:b5, 2085-97-02 00:02:00:2053,0.002,0.001,1.003,-0.061,0,0.061,0.176,-0.016,-174.847
 15:08:59.363,eb:33:2e:f9:57:b5, 2085-97-06 00:01:00:2052,0,0,1.003,0,0,0,0.176,-0.022,-174.847
 15:08:59.363,eb:33:2e:f9:57:b5, 2085-113-58 00:122:254:-4755,0,0.001,1.005,0.061,0.122,0,0.176,-0.022,-174.847
 15:08:59.363,eb:33:2e:f9:57:b5, 2085-97-255 255:02:00:2059,0,0.002,1.005,0,0,0,0.176,-0.022,-174.853
 15:08:59.363,eb:33:2e:f9:57:b5, 2085-97-00 00:01:00:2056,0,0,1.005,-0.061,-0.061,0,0.176,-0.022,-174.853
 15:08:59.392,eb:33:2e:f9:57:b5, 2085-97-02 00:01:00:2052,0.001,0.001,1.003,0,-0.244,0,0.176,-0.022,-174.853
 15:08:59.392,eb:33:2e:f9:57:b5, 2085-97-03 00:02:00:2052,0,0.001,1.001,0,-0.244,-0.061,0.176,-0.022,-174.853
 15:08:59.392,eb:33:2e:f9:57:b5, 2085-97-02 00:01:00:2052,0,0,1.002,0.061,-0.366,-0.183,0.176,-0.022,-174.853
 15:08:59.392,eb:33:2e:f9:57:b5, 2085-97-02 00:01:00:2054,0.002,0.001,1.002,0.122,-0.549,-0.122,0.176,-0.022,-174.853
 15:08:59.423,eb:33:2e:f9:57:b5, 2085-97-05 00:01:00:2055,0.002,0,1.003,0.183,-0.549,-0.183,0.176,-0.022,-174.853
 15:08:59.423,eb:33:2e:f9:57:b5, 2085-97-05 00:02:00:2055,0.003,0,1.002,0.183,-0.427,-0.183,0.176,-0.022,-174.853
 15:08:59.423,eb:33:2e:f9:57:b5, 2085-97-06 00:04:00:2057,0.003,0.001,1.003,0.183,-0.244,-0.122,0.176,-0.027,-174.853
 15:08:59.423,eb:33:2e:f9:57:b5, 2085-97-07 00:03:00:2057,0.003,0.001,1.004,0.183,-0.061,-0.061,0.176,-0.027,-174.853
 15:08:59.482,eb:33:2e:f9:57:b5, 2085-97-07 00:05:00:2056,0.003,0.002,1.003,0.183,0.061,0,0.17,-0.027,-174.858
 15:08:59.482,eb:33:2e:f9:57:b5, 2085-97-06 00:00:00:2056,0.002,0.002,1.004,0.122,0.305,0,0.17,-0.027,-174.858
 15:08:59.482,eb:33:2e:f9:57:b5, 2085-97-04 00:05:00:2055,0.002,0.001,1.003,0.183,0.366,0,0.17,-0.027,-174.858
 15:08:59.482,eb:33:2e:f9:57:b5, 2085-97-03 00:02:00:2055,0.001,0.001,1.004,0.122,0.488,0.061,0.17,-0.027,-174.858
 15:08:59.512,eb:33:2e:f9:57:b5, 2085-97-02 00:02:00:2055,0.001,0.001,1.004,0.183,0.488,0,0.17,-0.027,-174.858
 15:08:59.512,eb:33:2e:f9:57:b5, 2085-97-00 00:03:00:2054,0.001,0.001,1.003,0.183,0.366,0,0.17,-0.027,-174.858
 15:08:59.512,eb:33:2e:f9:57:b5, 2085-97-03 00:03:00:2052,0.001,0.001,1.002,0.244,0.305,0,0.17,-0.033,-174.858
 15:08:59.512,eb:33:2e:f9:57:b5, 2085-97-01 00:02:00:2055,0.001,0.001,1.002,0.305,0.305,0,0.17,-0.033,-174.858
 15:08:59.542,eb:33:2e:f9:57:b5, 2085-97-03 00:03:00:2055,0.001,0.001,1.003,0.366,0.183,-0.061,0.17,-0.033,-174.858
 15:08:59.542,eb:33:2e:f9:57:b5, 2085-97-01 00:04:00:2054,0.001,0.001,1.002,0.366,0.183,-0.122,0.17,-0.033,-174.864
 15:08:59.542,eb:33:2e:f9:57:b5, 2085-97-01 00:04:00:2056,0.001,0.002,1.003,0.366,0.122,-0.122,0.17,-0.033,-174.864
 15:08:59.542,eb:33:2e:f9:57:b5, 2085-97-02 00:03:00:2054,0,0.002,1.003,0.366,0.122,-0.122,0.17,-0.033,-174.864
 15:08:59.603,eb:33:2e:f9:57:b5, 2085-97-01 00:04:00:2056,0,0.001,1.003,0.427,0,-0.122,0.17,-0.033,-174.864
 15:08:59.603,eb:33:2e:f9:57:b5, 2085-97-01 00:04:00:2056,0,0.002,1.003,0.427,0,-0.244,0.17,-0.033,-174.864
 15:08:59.603,eb:33:2e:f9:57:b5, 2085-97-00 00:04:00:2058,0,0.001,1.004,0.488,0,-0.244,0.17,-0.033,-174.864
 15:08:59.603,eb:33:2e:f9:57:b5, 2085-97-00 00:03:00:2059,-0.001,0.001,1.004,0.488,-0.122,-0.244,0.17,-0.033,-174.864
 15:08:59.663,eb:33:2e:f9:57:b5, 2085-97-00 00:06:00:2055,0.001,0.002,1.005,0.488,-0.305,-0.366,0.17,-0.033,-174.864
 15:08:59.663,eb:33:2e:f9:57:b5, 2085-97-04 00:03:00:2052,0.003,0.002,1.003,0.488,-0.366,-0.366,0.17,-0.033,-174.864
 15:08:59.663,eb:33:2e:f9:57:b5, 2085-97-04 00:05:00:2053,0.001,0.002,1.001,0.488,-0.305,-0.305,0.165,-0.038,-174.864
 15:08:59.664,eb:33:2e:f9:57:b5, 2085-97-05 00:03:00:2053,0.001,0.003,1.003,0.488,-0.244,-0.366,0.165,-0.038,-174.864
 15:08:59.664,eb:33:2e:f9:57:b5, 2085-97-254 255:09:00:2061,0,0.003,1.005,0.427,-0.183,-0.244,0.165,-0.038,-174.864
 15:08:59.664,eb:33:2e:f9:57:b5, 2085-97-00 00:05:00:2060,0,0.002,1.005,0.427,-0.244,-0.305,0.165,-0.038,-174.864
 15:08:59.664,eb:33:2e:f9:57:b5, 2085-97-01 00:07:00:2058,0.002,0.002,1.006,0.366,-0.366,-0.305,0.165,-0.038,-174.869
 15:08:59.664,eb:33:2e:f9:57:b5, 2085-97-04 00:06:00:2057,0.001,0.003,1.004,0.366,-0.427,-0.183,0.165,-0.038,-174.869
 15:08:59.723,eb:33:2e:f9:57:b5, 2085-97-03 00:07:00:2057,0.002,0.003,1.004,0.305,-0.366,-0.244,0.165,-0.038,-174.869
 15:08:59.723,eb:33:2e:f9:57:b5, 2085-97-04 00:07:00:2054,0.002,0.003,1.004,0.305,-0.305,-0.183,0.165,-0.038,-174.869
 15:08:59.723,eb:33:2e:f9:57:b5, 2085-97-05 00:07:00:2054,0.002,0.003,1.002,0.366,-0.244,-0.244,0.165,-0.038,-174.869
 15:08:59.723,eb:33:2e:f9:57:b5, 2085-97-07 00:09:00:2052,0.003,0.004,1.002,0.366,-0.122,-0.183,0.165,-0.038,-174.869
 15:08:59.752,eb:33:2e:f9:57:b5, 2085-97-04 00:05:00:2053,0.003,0.003,1.001,0.427,0,-0.183,0.165,-0.038,-174.869
 15:08:59.752,eb:33:2e:f9:57:b5, 2085-97-05 00:07:00:2055,0.002,0.004,1.003,0.427,0.061,-0.305,0.165,-0.038,-174.869
 15:08:59.752,eb:33:2e:f9:57:b5, 2085-97-02 00:06:00:2055,0.001,0.003,1.004,0.427,0.122,-0.244,0.165,-0.044,-174.869
 15:08:59.752,eb:33:2e:f9:57:b5, 2085-97-05 00:09:00:2053,0.003,0.003,1.003,0.427,0.061,-0.244,0.165,-0.044,-174.869
 15:08:59.783,eb:33:2e:f9:57:b5, 2085-97-07 00:06:00:2051,0.003,0.003,1.002,0.366,0.061,-0.305,0.165,-0.044,-174.869
 15:08:59.783,eb:33:2e:f9:57:b5, 2085-97-04 00:07:00:2053,0.002,0.003,1.002,0.366,0.122,-0.366,0.165,-0.044,-174.869
 15:08:59.783,eb:33:2e:f9:57:b5, 2085-97-05 00:07:00:2054,0.002,0.003,1.003,0.488,0.183,-0.366,0.165,-0.044,-174.875
 15:08:59.783,eb:33:2e:f9:57:b5, 2085-97-03 00:08:00:2057,0,0.003,1.004,0.549,0.122,-0.305,0.165,-0.044,-174.875
 15:08:59.843,eb:33:2e:f9:57:b5, 2085-97-01 00:08:00:2056,0.001,0.004,1.004,0.549,0.061,-0.305,0.165,-0.044,-174.875
 15:08:59.843,eb:33:2e:f9:57:b5, 2085-97-03 00:09:00:2057,0.002,0.004,1.004,0.671,0.122,-0.305,0.165,-0.044,-174.875
 15:08:59.843,eb:33:2e:f9:57:b5, 2085-97-02 00:07:00:2055,0.002,0.004,1.004,0.61,0.061,-0.305,0.17,-0.049,-174.875
 15:08:59.843,eb:33:2e:f9:57:b5, 2085-97-06 00:10:00:2053,0.002,0.004,1.003,0.671,0.061,-0.305,0.17,-0.049,-174.875
 15:08:59.873,eb:33:2e:f9:57:b5, 2085-97-03 00:11:00:2054,0.001,0.004,1.002,0.61,0.061,-0.244,0.17,-0.049,-174.875
 15:08:59.873,eb:33:2e:f9:57:b5, 2085-97-01 00:15:00:2060,0.001,0.007,1.003,0.549,0.061,-0.305,0.17,-0.049,-174.875
 15:08:59.873,eb:33:2e:f9:57:b5, 2085-97-04 00:12:00:2059,0.002,0.006,1.006,0.366,0,-0.244,0.17,-0.049,-174.875
 15:08:59.873,eb:33:2e:f9:57:b5, 2085-97-05 00:13:00:2058,0.002,0.006,1.005,0.244,0.183,-0.183,0.17,-0.049,-174.875
 15:08:59.934,eb:33:2e:f9:57:b5, 2085-97-02 00:13:00:2061,0.001,0.006,1.006,0.061,0.366,-0.061,0.17,-0.049,-174.875
 15:08:59.934,eb:33:2e:f9:57:b5, 2085-97-03 00:14:00:2059,0.001,0.006,1.006,0.061,0.366,0.122,0.17,-0.049,-174.875
 15:08:59.934,eb:33:2e:f9:57:b5, 2085-97-03 00:12:00:2059,0.001,0.006,1.006,0,0.488,0.122,0.17,-0.049,-174.88
 15:08:59.934,eb:33:2e:f9:57:b5, 2085-97-02 00:11:00:2056,0.001,0.005,1.004,0,0.671,0.183,0.17,-0.049,-174.88
 15:08:59.964,eb:33:2e:f9:57:b5, 2085-97-03 00:11:00:2056,0.001,0.005,1.003,0,0.793,0.244,0.17,-0.049,-174.88
 15:08:59.964,eb:33:2e:f9:57:b5, 2085-97-02 00:10:00:2056,0,0.006,1.003,0,0.854,0.305,0.17,-0.049,-174.88
 15:08:59.964,eb:33:2e:f9:57:b5, 2085-97-255 255:09:00:2059,0,0.005,1.005,0,0.854,0.305,0.17,-0.055,-174.88
 15:08:59.964,eb:33:2e:f9:57:b5, 2085-97-255 255:11:00:2059,0,0.005,1.005,0.061,0.732,0.305,0.17,-0.055,-174.88
 15:08:59.993,eb:33:2e:f9:57:b5, 2085-97-01 00:10:00:2057,0.001,0.005,1.005,0.061,0.732,0.366,0.176,-0.055,-174.88
 15:08:59.993,eb:33:2e:f9:57:b5, 2085-97-01 00:13:00:2058,0,0.007,1.005,0.061,0.916,0.366,0.176,-0.055,-174.88
 15:08:59.993,eb:33:2e:f9:57:b5, 2085-97-02 00:13:00:2056,0.002,0.006,1.005,0,0.977,0.427,0.176,-0.055,-174.88
 15:08:59.993,eb:33:2e:f9:57:b5, 2085-97-03 00:12:00:2055,0.001,0.005,1.003,0,1.221,0.427,0.176,-0.055,-174.88
 15:09:00.053,eb:33:2e:f9:57:b5, 2085-97-03 00:13:00:2055,0,0.006,1.003,-0.061,1.404,0.488,0.176,-0.055,-174.88
 15:09:00.053,eb:33:2e:f9:57:b5, 2085-97-00 00:12:00:2057,0,0.006,1.004,-0.061,1.526,0.427,0.176,-0.055,-174.88
 15:09:00.053,eb:33:2e:f9:57:b5, 2085-113-81 00:182:05:015,0,0.006,1.004,-0.122,1.587,0.427,0.176,-0.055,-174.88
 15:09:00.053,eb:33:2e:f9:57:b5, 2085-97-254 255:11:00:2056,-0.001,0.006,1.004,-0.183,1.587,0.366,0.176,-0.055,-174.88
 15:09:00.053,eb:33:2e:f9:57:b5, 2085-97-255 255:10:00:2053,0,0.006,1.003,-0.244,1.587,0.366,0.176,-0.055,-174.88
 15:09:00.082,eb:33:2e:f9:57:b5, 2085-97-00 00:08:00:2052,0,0.004,1.003,-0.244,1.587,0.366,0.176,-0.055,-174.88
 15:09:00.082,eb:33:2e:f9:57:b5, 2085-97-254 255:07:00:2052,-0.001,0.004,1.001,-0.122,1.648,0.244,0.176,-0.055,-174.88
 15:09:00.082,eb:33:2e:f9:57:b5, 2085-97-251 255:07:00:2052,-0.003,0.003,1.002,0,1.648,0.122,0.176,-0.055,-174.88
 15:09:00.082,eb:33:2e:f9:57:b5, 2085-97-249 255:08:00:2053,-0.002,0.004,1.003,0,1.465,0,0.176,-0.055,-174.88
 15:09:00.113,eb:33:2e:f9:57:b5, 2085-97-250 255:08:00:2053,-0.003,0.004,1.002,0.183,1.404,0.061,0.176,-0.055,-174.88
 15:09:00.113,eb:33:2e:f9:57:b5, 2085-97-248 255:09:00:2057,-0.004,0.005,1.004,0.183,1.221,0,0.176,-0.055,-174.88
 15:09:00.113,eb:33:2e:f9:57:b5, 2085-97-248 255:09:00:2054,-0.001,0.003,1.004,0.244,1.038,0,0.176,-0.055,-174.88
 15:09:00.113,eb:33:2e:f9:57:b5, 2085-97-254 255:11:00:2047,-0.001,0.005,1.001,0.366,0.916,-0.061,0.176,-0.055,-174.88
 15:09:00.172,eb:33:2e:f9:57:b5, 2085-97-249 255:09:00:2053,-0.004,0.005,1,0.305,1.038,-0.122,0.176,-0.055,-174.88
 15:09:00.172,eb:33:2e:f9:57:b5, 2085-97-250 255:10:00:2052,-0.001,0.004,1.003,0.366,0.916,-0.183,0.176,-0.055,-174.88
 15:09:00.172,eb:33:2e:f9:57:b5, 2085-97-253 255:14:00:2052,-0.004,0.005,1,0.366,1.038,-0.183,0.176,-0.055,-174.88
 15:09:00.172,eb:33:2e:f9:57:b5, 2085-97-247 255:13:00:2059,-0.004,0.006,1.004,0.305,1.099,-0.244,0.176,-0.055,-174.88
 15:09:00.232,eb:33:2e:f9:57:b5, 2085-97-248 255:14:00:2058,-0.003,0.007,1.005,0.122,1.099,-0.183,0.176,-0.055,-174.88
 15:09:00.232,eb:33:2e:f9:57:b5, 2085-97-251 255:13:00:2054,-0.003,0.006,1.003,0,1.099,-0.244,0.176,-0.055,-174.88
 15:09:00.232,eb:33:2e:f9:57:b5, 2085-97-248 255:12:00:2059,-0.005,0.006,1.004,-0.183,1.343,-0.183,0.176,-0.055,-174.88
 15:09:00.232,eb:33:2e:f9:57:b5, 2085-97-246 255:12:00:2060,-0.005,0.005,1.005,-0.183,1.465,-0.183,0.176,-0.055,-174.88
 15:09:00.234,eb:33:2e:f9:57:b5, 2085-97-244 255:13:00:2060,-0.007,0.005,1.005,-0.183,1.343,-0.122,0.176,-0.055,-174.88
 15:09:00.234,eb:33:2e:f9:57:b5, 2085-97-241 255:10:00:2058,-0.006,0.006,1.006,-0.244,1.343,-0.122,0.176,-0.055,-174.88
 15:09:00.234,eb:33:2e:f9:57:b5, 2085-97-244 255:10:00:2059,-0.007,0.004,1.004,-0.122,1.221,-0.122,0.176,-0.055,-174.88
 15:09:00.234,eb:33:2e:f9:57:b5, 2085-97-241 255:09:00:2057,-0.006,0.005,1.005,-0.122,1.038,-0.061,0.176,-0.055,-174.88
 15:09:00.292,eb:33:2e:f9:57:b5, 2085-97-246 255:12:00:2057,-0.005,0.004,1.005,-0.061,0.916,-0.061,0.176,-0.055,-174.88
 15:09:00.292,eb:33:2e:f9:57:b5, 2085-97-243 255:11:00:2058,-0.005,0.005,1.005,0,0.854,0,0.176,-0.055,-174.88
 15:09:00.292,eb:33:2e:f9:57:b5, 2085-97-243 255:09:00:2058,-0.006,0.005,1.003,0,0.854,0,0.181,-0.055,-174.88
 15:09:00.292,eb:33:2e:f9:57:b5, 2085-97-244 255:11:00:2054,-0.005,0.005,1.004,0,0.916,0.061,0.181,-0.055,-174.88
 15:09:00.355,eb:33:2e:f9:57:b5, 2085-97-246 255:13:00:2051,-0.005,0.005,1.002,0,0.977,0.061,0.181,-0.055,-174.88
 15:09:00.355,eb:33:2e:f9:57:b5, 2085-97-243 255:11:00:2053,-0.005,0.006,1.001,0.061,1.038,0,0.181,-0.055,-174.88
 15:09:00.356,eb:33:2e:f9:57:b5, 2085-97-247 255:10:00:2053,-0.005,0.006,1.002,0,1.221,0.061,0.181,-0.055,-174.88
 15:09:00.356,eb:33:2e:f9:57:b5, 2085-97-241 255:09:00:2056,-0.006,0.004,1.002,0.122,1.343,0.122,0.181,-0.055,-174.88
 15:09:00.358,eb:33:2e:f9:57:b5, 2085-97-242 255:11:00:2053,-0.006,0.005,1.002,0.244,1.343,0.122,0.181,-0.055,-174.88
 15:09:00.358,eb:33:2e:f9:57:b5, 2085-97-246 255:09:00:2049,-0.004,0.005,1.002,0.244,1.343,0.183,0.181,-0.055,-174.88
 15:09:00.358,eb:33:2e:f9:57:b5, 2085-97-240 255:11:00:2055,-0.005,0.005,1.001,0.366,1.648,0.183,0.181,-0.055,-174.88
 15:09:00.358,eb:33:2e:f9:57:b5, 2085-97-255 255:08:00:2043,-0.002,0.006,1.001,0.427,1.831,0.244,0.181,-0.055,-174.88
 15:09:00.412,eb:33:2e:f9:57:b5, 2085-97-244 255:13:00:2049,-0.007,0.005,0.998,0.61,2.563,0.305,0.181,-0.055,-174.88
 15:09:00.412,eb:33:2e:f9:57:b5, 2085-97-242 255:10:00:2052,-0.009,0.007,1.002,0.671,2.93,0.427,0.181,-0.038,-174.88
 15:09:00.412,eb:33:2e:f9:57:b5, 2085-97-233 255:13:00:2060,-0.015,0.006,1.002,0.732,3.052,0.366,0.192,-0.011,-174.875
 15:09:00.412,eb:33:2e:f9:57:b5, 2085-97-226 255:12:00:2065,-0.014,0.006,1.007,0.671,2.808,0.305,0.198,0.022,-174.869
 15:09:00.442,eb:33:2e:f9:57:b5, 2085-97-227 255:12:00:2061,-0.015,0.006,1.006,0.793,2.319,0.305,0.203,0.049,-174.869
 15:09:00.442,eb:33:2e:f9:57:b5, 2085-97-233 255:11:00:2053,-0.008,0.006,1.005,0.793,2.014,0.305,0.214,0.071,-174.864
 15:09:00.442,eb:33:2e:f9:57:b5, 2085-97-235 255:13:00:2053,-0.012,0.005,1.001,0.916,2.075,0.366,0.22,0.093,-174.864
 15:09:00.442,eb:33:2e:f9:57:b5, 2085-97-230 255:13:00:2056,-0.013,0.006,1.003,0.916,2.075,0.305,0.231,0.115,-174.858
 15:09:00.472,eb:33:2e:f9:57:b5, 2085-97-228 255:15:00:2058,-0.015,0.007,1.004,0.916,1.77,0.244,0.242,0.132,-174.858
 15:09:00.472,eb:33:2e:f9:57:b5, 2085-97-224 255:16:00:2060,-0.016,0.008,1.005,0.854,1.526,0.183,0.247,0.148,-174.853
 15:09:00.472,eb:33:2e:f9:57:b5, 2085-97-225 255:15:00:2060,-0.014,0.007,1.007,0.793,1.099,0.244,0.258,0.165,-174.853
 15:09:00.472,eb:33:2e:f9:57:b5, 2085-97-228 255:16:00:2060,-0.011,0.007,1.005,0.732,0.916,0.183,0.264,0.176,-174.847
 15:09:00.534,eb:33:2e:f9:57:b5, 2085-97-236 255:21:00:2056,-0.01,0.01,1.005,0.61,0.916,0.244,0.275,0.187,-174.847
 15:09:00.534,eb:33:2e:f9:57:b5, 2085-97-234 255:19:00:2057,-0.013,0.009,1.003,0.488,1.404,0.305,0.28,0.198,-174.847
 15:09:00.534,eb:33:2e:f9:57:b5, 2085-97-227 255:20:00:2061,-0.013,0.009,1.006,0.427,1.587,0.305,0.286,0.214,-174.842
 15:09:00.534,eb:33:2e:f9:57:b5, 2085-97-235 255:17:00:2050,-0.012,0.01,1.004,0.305,1.648,0.305,0.286,0.231,-174.836
 15:09:00.564,eb:33:2e:f9:57:b5, 2085-97-228 255:19:00:2051,-0.016,0.008,1,0.305,1.953,0.305,0.291,0.253,-174.836
 15:09:00.564,eb:33:2e:f9:57:b5, 2085-97-221 255:17:00:2060,-0.018,0.008,1.004,0.305,1.831,0.305,0.297,0.275,-174.831
 15:09:00.564,eb:33:2e:f9:57:b5, 2085-97-224 255:19:00:2058,-0.016,0.008,1.006,0.305,1.465,0.305,0.297,0.291,-174.831
 15:09:00.564,eb:33:2e:f9:57:b5, 2085-97-224 255:17:00:2056,-0.015,0.009,1.004,0.244,1.404,0.244,0.302,0.308,-174.825
 15:09:00.594,eb:33:2e:f9:57:b5, 2085-97-224 255:17:00:2054,-0.015,0.008,1.003,0.183,1.221,0.183,0.302,0.319,-174.825
 15:09:00.594,eb:33:2e:f9:57:b5, 2085-97-222 255:15:00:2057,-0.019,0.009,1.004,0.183,0.977,0.183,0.308,0.33,-174.82
 15:09:00.594,eb:33:2e:f9:57:b5, 2085-97-216 255:17:00:2060,-0.017,0.008,1.005,0.183,0.793,0.061,0.308,0.341,-174.82
 15:09:00.594,eb:33:2e:f9:57:b5, 2085-97-223 255:17:00:2056,-0.015,0.009,1.004,0.122,0.61,0.122,0.308,0.346,-174.82
 15:09:00.654,eb:33:2e:f9:57:b5, 2085-97-222 255:17:00:2056,-0.018,0.008,1.003,0.122,0.488,0.122,0.308,0.352,-174.82
 15:09:00.654,eb:33:2e:f9:57:b5, 2085-97-222 255:17:00:2056,-0.014,0.009,1.004,0,0.244,0.061,0.308,0.352,-174.82
 15:09:00.654,eb:33:2e:f9:57:b5, 2085-97-227 255:18:00:2053,-0.016,0.009,1.003,0,0.183,0.122,0.313,0.352,-174.814
 15:09:00.654,eb:33:2e:f9:57:b5, 2085-97-223 255:18:00:2055,-0.016,0.008,1.003,0,0.122,0,0.313,0.352,-174.814
 15:09:00.683,eb:33:2e:f9:57:b5, 2085-97-220 255:18:00:2058,-0.017,0.008,1.003,0,0,0,0.313,0.357,-174.814
 15:09:00.683,eb:33:2e:f9:57:b5, 2085-97-218 255:19:00:2060,-0.019,0.009,1.004,-0.061,-0.122,0,0.313,0.357,-174.814
 15:09:00.683,eb:33:2e:f9:57:b5, 2085-97-220 255:17:00:2057,-0.014,0.008,1.005,-0.061,-0.488,0,0.313,0.357,-174.814
 15:09:00.683,eb:33:2e:f9:57:b5, 2085-97-230 255:14:00:2048,-0.015,0.007,1.001,0,-0.427,0,0.313,0.357,-174.814
 15:09:00.713,eb:33:2e:f9:57:b5, 2085-97-226 255:15:00:2053,-0.014,0.006,1.001,0.061,-0.305,0,0.313,0.363,-174.809
 15:09:00.713,eb:33:2e:f9:57:b5, 2085-97-223 255:18:00:2056,-0.017,0.009,1.002,0.061,-0.244,0,0.313,0.363,-174.809
 15:09:00.713,eb:33:2e:f9:57:b5, 2085-97-220 255:17:00:2056,-0.017,0.008,1.004,0.061,-0.427,-0.061,0.319,0.363,-174.809
 15:09:00.713,eb:33:2e:f9:57:b5, 2085-97-220 255:17:00:2059,-0.017,0.008,1.003,0.061,-0.732,-0.061,0.319,0.363,-174.809
 15:09:00.803,eb:33:2e:f9:57:b5, 2085-97-223 255:18:00:2057,-0.016,0.009,1.005,0.122,-0.977,-0.061,0.319,0.368,-174.803
 15:09:00.803,eb:33:2e:f9:57:b5, 2085-97-224 255:18:00:2055,-0.015,0.009,1.004,0.122,-1.099,-0.122,0.319,0.368,-174.803
 15:09:00.803,eb:33:2e:f9:57:b5, 2085-97-226 255:18:00:2058,-0.014,0.008,1.004,0.122,-1.221,-0.061,0.319,0.374,-174.803
 15:09:00.803,eb:33:2e:f9:57:b5, 2085-97-228 255:19:00:2057,-0.014,0.009,1.004,0.122,-1.282,-0.122,0.319,0.374,-174.803
 15:09:00.805,eb:33:2e:f9:57:b5, 2085-97-228 255:22:00:2057,-0.013,0.01,1.003,0.061,-1.282,-0.122,0.319,0.374,-174.803
 15:09:00.805,eb:33:2e:f9:57:b5, 2085-97-229 255:22:00:2057,-0.014,0.01,1.005,-0.061,-1.16,-0.061,0.319,0.374,-174.803
 15:09:00.805,eb:33:2e:f9:57:b5, 2085-97-233 255:20:00:2053,-0.009,0.01,1.004,-0.183,-0.977,0,0.319,0.374,-174.798
 15:09:00.805,eb:33:2e:f9:57:b5, 2085-97-239 255:19:00:2045,-0.007,0.01,1,-0.305,-0.732,0,0.319,0.374,-174.798
 15:09:00.834,eb:33:2e:f9:57:b5, 2085-97-238 255:18:00:2044,-0.009,0.009,0.997,-0.427,-0.244,-0.061,0.324,0.379,-174.798
 15:09:00.834,eb:33:2e:f9:57:b5, 2085-97-234 255:19:00:2050,-0.01,0.01,0.999,-0.427,0.183,0,0.324,0.379,-174.798
 15:09:00.834,eb:33:2e:f9:57:b5, 2085-97-233 255:18:00:2051,-0.012,0.01,1.001,-0.488,0.549,0,0.324,0.379,-174.798
 15:09:00.834,eb:33:2e:f9:57:b5, 2085-97-232 255:17:00:2052,-0.013,0.009,1.001,-0.488,0.671,0,0.324,0.379,-174.798
 15:09:00.893,eb:33:2e:f9:57:b5, 2085-97-231 255:15:00:2048,-0.012,0.007,1.001,-0.488,0.732,0,0.324,0.385,-174.792
 15:09:00.893,eb:33:2e:f9:57:b5, 2085-113-58 00:197:254:-4965,-0.014,0.006,1,-0.244,0.793,0,0.324,0.385,-174.792
 15:09:00.893,eb:33:2e:f9:57:b5, 2085-97-224 255:13:00:2052,-0.016,0.006,1.001,-0.183,0.793,0,0.324,0.385,-174.792
 15:09:00.893,eb:33:2e:f9:57:b5, 2085-97-221 255:11:00:2051,-0.016,0.006,1.001,0,0.427,0,0.324,0.385,-174.792
 15:09:00.954,eb:33:2e:f9:57:b5, 2085-97-222 255:15:00:2056,-0.018,0.006,1.002,0.122,0.122,-0.122,0.324,0.39,-174.792
 15:09:00.954,eb:33:2e:f9:57:b5, 2085-97-221 255:16:00:2057,-0.013,0.008,1.005,0.122,-0.183,-0.122,0.324,0.39,-174.792
 15:09:00.954,eb:33:2e:f9:57:b5, 2085-97-229 255:12:00:2051,-0.01,0.007,1.002,0.183,-0.366,-0.244,0.33,0.39,-174.792
 15:09:00.954,eb:33:2e:f9:57:b5, 2085-97-239 255:13:00:2045,-0.008,0.006,1,0.305,-0.183,-0.244,0.33,0.39,-174.792
 15:09:00.956,eb:33:2e:f9:57:b5, 2085-97-238 255:14:00:2044,-0.012,0.005,0.998,0.549,0.305,-0.183,0.33,0.39,-174.787
 15:09:00.956,eb:33:2e:f9:57:b5, 2085-97-226 255:18:00:2053,-0.017,0.007,1,0.793,0.61,-0.122,0.33,0.39,-174.787
 15:09:00.956,eb:33:2e:f9:57:b5, 2085-97-218 255:15:00:2063,-0.018,0.008,1.005,0.854,0.488,-0.122,0.33,0.396,-174.787
 15:09:00.956,eb:33:2e:f9:57:b5, 2085-97-228 255:14:00:2053,-0.009,0.008,1.005,0.977,0.061,-0.122,0.33,0.396,-174.787
 15:09:01.012,eb:33:2e:f9:57:b5, 2085-97-234 255:07:00:2045,-0.013,0.005,0.999,1.221,0.183,-0.183,0.33,0.396,-174.787
 15:09:01.012,eb:33:2e:f9:57:b5, 2085-97-224 255:16:00:2056,-0.018,0.004,1.001,1.77,0.366,-0.183,0.33,0.396,-174.787
 15:09:01.012,eb:33:2e:f9:57:b5, 2085-97-221 255:17:00:2060,-0.016,0.009,1.007,1.892,0.061,-0.183,0.33,0.396,-174.787
 15:09:01.012,eb:33:2e:f9:57:b5, 2085-97-218 255:20:00:2056,-0.016,0.008,1.004,2.014,0,-0.366,0.33,0.396,-174.787
 15:09:01.042,eb:33:2e:f9:57:b5, 2085-97-223 255:17:00:2053,-0.017,0.01,1.001,2.136,-0.183,-0.244,0.33,0.401,-174.781
 15:09:01.042,eb:33:2e:f9:57:b5, 2085-97-222 255:21:00:2061,-0.018,0.008,1.006,2.319,-0.488,-0.366,0.33,0.401,-174.781
 15:09:01.042,eb:33:2e:f9:57:b5, 2085-97-223 255:28:00:2061,-0.015,0.012,1.007,2.197,-0.793,-0.305,0.335,0.401,-174.781
 15:09:01.042,eb:33:2e:f9:57:b5, 2085-97-228 255:31:00:2056,-0.012,0.015,1.004,1.892,-1.038,-0.305,0.335,0.401,-174.781
 15:09:01.074,eb:33:2e:f9:57:b5, 2085-97-237 255:25:00:2050,-0.01,0.015,1.003,1.587,-0.916,-0.305,0.335,0.401,-174.781
 15:09:01.074,eb:33:2e:f9:57:b5, 2085-97-232 255:22:00:2051,-0.013,0.01,1.001,1.587,-0.61,-0.305,0.335,0.401,-174.781
 15:09:01.074,eb:33:2e:f9:57:b5, 2085-97-232 255:29:00:2052,-0.012,0.013,1.003,1.648,-0.366,-0.244,0.335,0.406,-174.781
 15:09:01.074,eb:33:2e:f9:57:b5, 2085-97-232 255:33:00:2055,-0.011,0.014,1.002,1.465,-0.366,-0.244,0.335,0.406,-174.781
 15:09:01.133,eb:33:2e:f9:57:b5, 2085-97-229 255:32:00:2059,-0.014,0.017,1.002,1.221,-0.183,-0.305,0.335,0.406,-174.776
 15:09:01.133,eb:33:2e:f9:57:b5, 2085-97-227 255:27:00:2057,-0.016,0.015,1.005,0.977,-0.122,-0.305,0.335,0.406,-174.776
 15:09:01.133,eb:33:2e:f9:57:b5, 2085-97-226 255:26:00:2057,-0.016,0.014,1.004,0.854,-0.305,-0.366,0.335,0.412,-174.776
 15:09:01.133,eb:33:2e:f9:57:b5, 2085-97-225 255:29:00:2060,-0.016,0.013,1.005,0.793,-0.61,-0.427,0.335,0.412,-174.776
 15:09:01.164,eb:33:2e:f9:57:b5, 2085-97-224 255:30:00:2060,-0.015,0.015,1.006,0.671,-1.038,-0.549,0.335,0.412,-174.776
 15:09:01.164,eb:33:2e:f9:57:b5, 2085-97-228 255:34:00:2060,-0.016,0.016,1.006,0.366,-1.282,-0.549,0.335,0.412,-174.776
 15:09:01.164,eb:33:2e:f9:57:b5, 2085-97-227 255:32:00:2061,-0.013,0.015,1.006,0.183,-1.526,-0.427,0.341,0.412,-174.776
 15:09:01.164,eb:33:2e:f9:57:b5, 2085-97-233 255:33:00:2054,-0.009,0.016,1.006,0,-1.587,-0.488,0.341,0.412,-174.776
 15:09:01.192,eb:33:2e:f9:57:b5, 2085-97-235 255:30:00:2050,-0.011,0.015,1.001,0,-1.282,-0.366,0.341,0.417,-174.776
 15:09:01.192,eb:33:2e:f9:57:b5, 2085-97-232 255:34:00:2058,-0.012,0.016,1.003,-0.061,-1.16,-0.305,0.341,0.417,-174.776
 15:09:01.192,eb:33:2e:f9:57:b5, 2085-97-236 255:34:00:2053,-0.008,0.017,1.005,-0.244,-1.221,-0.427,0.341,0.417,-174.771
 15:09:01.192,eb:33:2e:f9:57:b5, 2085-97-241 255:31:00:2052,-0.009,0.017,1.002,-0.427,-0.854,-0.305,0.341,0.417,-174.771
 15:09:01.253,eb:33:2e:f9:57:b5, 2085-97-235 255:30:00:2056,-0.013,0.016,1.002,-0.549,-0.549,-0.305,0.346,0.417,-174.771
 15:09:01.253,eb:33:2e:f9:57:b5, 2085-97-233 255:32:00:2058,-0.011,0.015,1.006,-0.61,-0.549,-0.183,0.346,0.417,-174.771
 15:09:01.253,eb:33:2e:f9:57:b5, 2085-97-234 255:28:00:2057,-0.011,0.014,1.005,-0.732,-0.427,-0.183,0.346,0.417,-174.771
 15:09:01.253,eb:33:2e:f9:57:b5, 2085-97-235 255:31:00:2059,-0.012,0.015,1.006,-0.793,-0.366,-0.061,0.346,0.417,-174.771
 15:09:01.283,eb:33:2e:f9:57:b5, 2085-97-232 255:30:00:2057,-0.011,0.016,1.006,-1.038,-0.305,0,0.346,0.423,-174.771
 15:09:01.283,eb:33:2e:f9:57:b5, 2085-97-242 255:29:00:2048,-0.007,0.015,1.002,-1.16,-0.183,-0.061,0.346,0.423,-174.771
 15:09:01.283,eb:33:2e:f9:57:b5, 2085-97-235 255:25:00:2051,-0.013,0.014,1,-1.343,0.061,0,0.346,0.423,-174.771
 15:09:01.283,eb:33:2e:f9:57:b5, 2085-97-233 255:27:00:2054,-0.012,0.012,1.002,-1.221,0,0,0.346,0.423,-174.771
 15:09:01.342,eb:33:2e:f9:57:b5, 2085-97-235 255:23:00:2049,-0.012,0.012,1.002,-1.099,-0.061,0.061,0.352,0.423,-174.765
 15:09:01.342,eb:33:2e:f9:57:b5, 2085-97-239 255:26:00:2051,-0.008,0.011,1,-1.099,-0.122,0,0.352,0.423,-174.765
 15:09:01.342,eb:33:2e:f9:57:b5, 2085-97-235 255:22:00:2056,-0.011,0.011,1.002,-1.038,0.244,0,0.352,0.423,-174.765
 15:09:01.342,eb:33:2e:f9:57:b5, 2085-97-236 255:22:00:2056,-0.008,0.01,1.005,-0.854,0.244,0.061,0.352,0.423,-174.765
 15:09:01.372,eb:33:2e:f9:57:b5, 2085-97-238 255:20:00:2055,-0.009,0.01,1.002,-0.732,0.488,0.183,0.352,0.428,-174.765
 15:09:01.372,eb:33:2e:f9:57:b5, 2085-97-235 255:23:00:2055,-0.011,0.01,1.003,-0.61,0.793,0.305,0.352,0.428,-174.765
 15:09:01.372,eb:33:2e:f9:57:b5, 2085-97-228 255:19:00:2054,-0.015,0.011,1.003,-0.488,0.732,0.305,0.357,0.428,-174.765
 15:09:01.372,eb:33:2e:f9:57:b5, 2085-97-230 255:20:00:2052,-0.012,0.009,1.003,-0.305,0.305,0.305,0.357,0.428,-174.765
 15:09:01.402,eb:33:2e:f9:57:b5, 2085-97-235 255:22:00:2053,-0.011,0.009,1.002,-0.244,0.061,0.183,0.357,0.428,-174.765
 15:09:01.402,eb:33:2e:f9:57:b5, 2085-97-231 255:23:00:2057,-0.012,0.01,1.003,-0.183,0,0.183,0.357,0.428,-174.765
 15:09:01.402,eb:33:2e:f9:57:b5, 2085-97-235 255:23:00:2053,-0.009,0.012,1.003,-0.183,-0.061,0.183,0.357,0.428,-174.765
 15:09:01.402,eb:33:2e:f9:57:b5, 2085-97-235 255:23:00:2056,-0.011,0.011,1.003,-0.183,0,0.122,0.357,0.428,-174.765
 15:09:01.463,eb:33:2e:f9:57:b5, 2085-97-233 255:26:00:2058,-0.011,0.011,1.004,-0.244,0,0.244,0.363,0.434,-174.76
 15:09:01.463,eb:33:2e:f9:57:b5, 2085-97-237 255:27:00:2054,-0.009,0.013,1.004,-0.427,0,0.244,0.363,0.434,-174.76
 15:09:01.463,eb:33:2e:f9:57:b5, 2085-97-233 255:24:00:2056,-0.012,0.013,1.003,-0.427,0.244,0.244,0.363,0.434,-174.76
 15:09:01.463,eb:33:2e:f9:57:b5, 2085-97-231 255:23:00:2057,-0.013,0.011,1.004,-0.427,0.244,0.244,0.363,0.434,-174.76
 15:09:01.463,eb:33:2e:f9:57:b5, 2085-97-226 255:23:00:2060,-0.016,0.012,1.005,-0.549,0.122,0.305,0.363,0.434,-174.76
 15:09:01.493,eb:33:2e:f9:57:b5, 2085-113-58 00:197:254:-5070,-0.018,0.011,1.007,-0.549,-0.183,0.305,0.363,0.434,-174.76
 15:09:01.493,eb:33:2e:f9:57:b5, 2085-97-218 255:23:00:2067,-0.018,0.01,1.008,-0.671,-0.549,0.183,0.363,0.434,-174.76
 15:09:01.493,eb:33:2e:f9:57:b5, 2085-97-219 255:23:00:2070,-0.019,0.011,1.009,-0.793,-1.404,0.122,0.368,0.434,-174.76
 15:09:01.493,eb:33:2e:f9:57:b5, 2085-97-215 255:28:00:2076,-0.02,0.013,1.012,-0.916,-2.38,0.244,0.368,0.434,-174.76
 15:09:01.523,eb:33:2e:f9:57:b5, 2085-97-223 255:26:00:2070,-0.013,0.013,1.013,-1.282,-3.357,0.305,0.357,0.412,-174.76
 15:09:01.523,eb:33:2e:f9:57:b5, 2085-97-230 255:25:00:2066,-0.01,0.011,1.008,-1.404,-3.784,0.305,0.341,0.379,-174.754
 15:09:01.523,eb:33:2e:f9:57:b5, 2085-97-236 255:26:00:2059,-0.009,0.012,1.007,-1.587,-3.845,0.488,0.33,0.341,-174.754
 15:09:01.523,eb:33:2e:f9:57:b5, 2085-97-238 255:26:00:2066,-0.01,0.011,1.008,-1.892,-3.906,0.61,0.308,0.302,-174.749
 15:09:01.583,eb:33:2e:f9:57:b5, 2085-97-240 255:22:00:2060,-0.005,0.012,1.007,-2.075,-3.967,0.793,0.291,0.264,-174.738
 15:09:01.583,eb:33:2e:f9:57:b5, 2085-97-250 255:19:00:2049,0,0.01,1.003,-2.258,-3.723,0.854,0.269,0.225,-174.732
 15:09:01.583,eb:33:2e:f9:57:b5, 2085-97-00 00:17:00:2046,0,0.008,0.999,-2.136,-3.113,0.916,0.247,0.187,-174.721
 15:09:01.583,eb:33:2e:f9:57:b5, 2085-97-255 255:15:00:2046,-0.001,0.008,0.999,-2.075,-2.38,0.916,0.225,0.165,-174.716
 15:09:01.612,eb:33:2e:f9:57:b5, 2085-97-254 255:13:00:2046,-0.001,0.007,0.999,-2.014,-1.831,0.854,0.203,0.143,-174.705
 15:09:01.612,eb:33:2e:f9:57:b5, 2085-97-247 255:16:00:2053,-0.007,0.007,1.001,-1.892,-1.343,0.854,0.181,0.126,-174.699
 15:09:01.612,eb:33:2e:f9:57:b5, 2085-97-240 255:13:00:2059,-0.008,0.007,1.005,-1.953,-1.282,0.854,0.165,0.115,-174.688
 15:09:01.612,eb:33:2e:f9:57:b5, 2085-97-245 255:10:00:2056,-0.004,0.005,1.005,-1.892,-1.343,0.732,0.143,0.104,-174.683
 15:09:01.642,eb:33:2e:f9:57:b5, 2085-97-248 255:10:00:2051,-0.004,0.005,1.002,-1.709,-1.465,0.732,0.126,0.088,-174.677
 15:09:01.642,eb:33:2e:f9:57:b5, 2085-97-248 255:11:00:2053,-0.005,0.005,1.001,-1.526,-1.404,0.61,0.11,0.077,-174.666
 15:09:01.642,eb:33:2e:f9:57:b5, 2085-97-245 255:08:00:2055,-0.005,0.005,1.003,-1.404,-1.343,0.549,0.093,0.06,-174.661
 15:09:01.642,eb:33:2e:f9:57:b5, 2085-97-244 255:10:00:2058,-0.006,0.004,1.004,-1.343,-1.526,0.488,0.082,0.049,-174.655
 15:09:01.703,eb:33:2e:f9:57:b5, 2085-97-245 255:10:00:2058,-0.004,0.006,1.005,-1.343,-1.77,0.549,0.066,0.033,-174.655
 15:09:01.703,eb:33:2e:f9:57:b5, 2085-97-250 255:09:00:2051,0,0.004,1.003,-1.343,-1.892,0.427,0.055,0.011,-174.65
 15:09:01.703,eb:33:2e:f9:57:b5, 2085-97-01 00:11:00:2047,0,0.004,1,-1.343,-1.648,0.366,0.038,-0.005,-174.644
 15:09:01.703,eb:33:2e:f9:57:b5, 2085-97-254 255:09:00:2051,0,0.005,1,-1.221,-1.282,0.366,0.027,-0.016,-174.639
 15:09:01.763,eb:33:2e:f9:57:b5, 2085-97-255 255:09:00:2051,0,0.004,1.002,-1.16,-0.977,0.305,0.016,-0.027,-174.639
 15:09:01.763,eb:33:2e:f9:57:b5, 2085-97-03 00:09:00:2049,0,0.004,1.001,-1.099,-0.732,0.366,0,-0.038,-174.633
 15:09:01.763,eb:33:2e:f9:57:b5, 2085-97-255 255:06:00:2053,-0.001,0.003,1.001,-1.038,-0.427,0.366,-0.011,-0.044,-174.633
 15:09:01.763,eb:33:2e:f9:57:b5, 2085-97-253 255:07:00:2052,0,0.003,1.003,-0.977,-0.305,0.366,-0.016,-0.044,-174.628
 15:09:01.765,eb:33:2e:f9:57:b5, 2085-97-255 255:06:00:2052,-0.002,0.002,1.001,-0.854,-0.122,0.305,-0.022,-0.049,-174.622
 15:09:01.765,eb:33:2e:f9:57:b5, 2085-97-252 255:08:00:2055,-0.002,0.002,1.003,-0.793,-0.122,0.366,-0.033,-0.049,-174.622
 15:09:01.765,eb:33:2e:f9:57:b5, 2085-97-252 255:08:00:2053,-0.002,0.003,1.002,-0.671,-0.244,0.305,-0.038,-0.049,-174.617
 15:09:01.765,eb:33:2e:f9:57:b5, 2085-97-253 255:07:00:2055,-0.002,0.004,1.002,-0.793,-0.305,0.305,-0.049,-0.049,-174.617
 15:09:01.823,eb:33:2e:f9:57:b5, 2085-97-254 255:06:00:2053,-0.001,0.004,1.004,-0.793,-0.366,0.305,-0.049,-0.055,-174.611
 15:09:01.823,eb:33:2e:f9:57:b5, 2085-97-00 00:07:00:2055,0,0.003,1.003,-0.732,-0.366,0.366,-0.049,-0.055,-174.611
 15:09:01.823,eb:33:2e:f9:57:b5, 2085-97-03 00:09:00:2053,0,0.004,1.002,-0.732,-0.183,0.366,-0.049,-0.049,-174.611
 15:09:01.823,eb:33:2e:f9:57:b5, 2085-97-254 255:05:00:2052,0,0.004,1.002,-0.732,0.061,0.305,-0.049,-0.049,-174.611
 15:09:01.853,eb:33:2e:f9:57:b5, 2085-97-253 255:05:00:2052,-0.001,0.002,1.001,-0.732,0.122,0.305,-0.044,-0.049,-174.611
 15:09:01.853,eb:33:2e:f9:57:b5, 2085-97-253 255:03:00:2054,-0.002,0.002,1.002,-0.549,0.061,0.244,-0.044,-0.049,-174.611
 15:09:01.853,eb:33:2e:f9:57:b5, 2085-97-251 255:03:00:2056,-0.003,0.002,1.003,-0.61,0.122,0.244,-0.038,-0.044,-174.611
 15:09:01.853,eb:33:2e:f9:57:b5, 2085-97-252 255:05:00:2057,-0.003,0.002,1.004,-0.549,0.061,0.183,-0.038,-0.044,-174.611
 15:09:01.883,eb:33:2e:f9:57:b5, 2085-97-248 255:06:00:2060,-0.005,0.002,1.005,-0.427,0,0.244,-0.038,-0.044,-174.606
 15:09:01.883,eb:33:2e:f9:57:b5, 2085-97-246 255:08:00:2061,-0.004,0.004,1.007,-0.549,-0.305,0.366,-0.038,-0.044,-174.606
 15:09:01.883,eb:33:2e:f9:57:b5, 2085-97-249 255:07:00:2060,-0.003,0.003,1.006,-0.671,-0.549,0.305,-0.033,-0.044,-174.606
 15:09:01.883,eb:33:2e:f9:57:b5, 2085-97-253 255:05:00:2058,0,0.003,1.006,-0.732,-0.61,0.305,-0.033,-0.044,-174.606
 15:09:01.944,eb:33:2e:f9:57:b5, 2085-97-253 255:05:00:2059,0,0.003,1.004,-0.793,-0.61,0.366,-0.033,-0.044,-174.606
 15:09:01.944,eb:33:2e:f9:57:b5, 2085-97-00 00:07:00:2056,-0.002,0.004,1.005,-0.916,-0.427,0.366,-0.033,-0.044,-174.606
 15:09:01.944,eb:33:2e:f9:57:b5, 2085-97-252 255:02:00:2057,0,0.002,1.005,-0.977,-0.427,0.366,-0.027,-0.038,-174.606
 15:09:01.944,eb:33:2e:f9:57:b5, 2085-97-02 00:03:00:2053,0.002,0.001,1.003,-0.977,-0.427,0.305,-0.027,-0.038,-174.606
 15:09:01.974,eb:33:2e:f9:57:b5, 2085-97-02 00:03:00:2051,0.001,0.002,1.001,-0.977,-0.183,0.366,-0.027,-0.038,-174.606
 15:09:01.974,eb:33:2e:f9:57:b5, 2085-97-06 00:01:00:2045,0.002,0.001,1,-0.916,0.061,0.244,-0.027,-0.038,-174.606
 15:09:01.974,eb:33:2e:f9:57:b5, 2085-97-252 255:04:00:2058,-0.004,0.002,1.002,-0.854,0.488,0.305,-0.022,-0.038,-174.606
 15:09:01.974,eb:33:2e:f9:57:b5, 2085-97-243 255:02:00:2063,-0.004,0.002,1.006,-0.977,0.488,0.305,-0.022,-0.038,-174.606
 15:09:02.003,eb:33:2e:f9:57:b5, 2085-97-251 255:02:00:2058,-0.003,0.001,1.005,-1.038,0.061,0.305,-0.022,-0.038,-174.606
 15:09:02.003,eb:33:2e:f9:57:b5, 2085-97-253 255:04:00:2057,-0.001,0,1.005,-0.977,-0.061,0.366,-0.022,-0.038,-174.606
 15:09:02.003,eb:33:2e:f9:57:b5, 2085-97-252 255:00:00:2055,-0.001,0,1.002,-1.038,0,0.305,-0.022,-0.038,-174.606
 15:09:02.003,eb:33:2e:f9:57:b5, 2085-97-255 255:01:00:2054,-0.002,0,1.003,-1.038,-0.183,0.244,-0.022,-0.038,-174.606
 15:09:02.064,eb:33:2e:f9:57:b5, 2085-97-253 255:255:255:2054,-0.003,0,1.003,-1.038,-0.061,0.305,-0.016,-0.038,-174.6
 15:09:02.064,eb:33:2e:f9:57:b5, 2085-97-250 255:00:00:2056,-0.004,-0.001,1.003,-0.916,-0.183,0.183,-0.016,-0.038,-174.6
 15:09:02.064,eb:33:2e:f9:57:b5, 2085-97-247 255:00:00:2059,-0.003,0,1.004,-0.977,-0.427,0.244,-0.016,-0.033,-174.6
 15:09:02.064,eb:33:2e:f9:57:b5, 2085-97-250 255:02:00:2060,-0.004,0.001,1.005,-0.977,-0.671,0.183,-0.016,-0.033,-174.6
 15:09:02.094,eb:33:2e:f9:57:b5, 2085-97-254 255:00:00:2054,0.001,0,1.005,-1.099,-0.916,0.122,-0.016,-0.033,-174.6
 15:09:02.094,eb:33:2e:f9:57:b5, 2085-97-03 00:00:00:2052,0.001,-0.001,1.001,-1.038,-0.732,0.061,-0.016,-0.033,-174.6
 15:09:02.094,eb:33:2e:f9:57:b5, 2085-97-02 00:255:255:2053,0,-0.001,1.002,-1.038,-0.61,0,-0.016,-0.033,-174.6
 15:09:02.094,eb:33:2e:f9:57:b5, 2085-97-255 255:255:255:2054,0,-0.001,1.003,-0.916,-0.61,0,-0.016,-0.033,-174.6
 15:09:02.125,eb:33:2e:f9:57:b5, 2085-97-255 255:253:255:2055,0,0,1.002,-0.854,-0.61,-0.061,-0.011,-0.033,-174.6
 15:09:02.125,eb:33:2e:f9:57:b5, 2085-97-00 00:254:255:2059,-0.001,-0.001,1.003,-0.732,-0.61,0,-0.011,-0.033,-174.6
 15:09:02.125,eb:33:2e:f9:57:b5, 2085-113-81 00:06:06:019,-0.001,0,1.006,-0.854,-0.61,-0.061,-0.011,-0.033,-174.6
 15:09:02.125,eb:33:2e:f9:57:b5, 2085-97-253 255:253:255:2060,0,-0.002,1.006,-0.793,-0.671,0,-0.011,-0.033,-174.6
 15:09:02.183,eb:33:2e:f9:57:b5, 2085-97-254 255:255:255:2060,0,-0.001,1.005,-0.793,-0.732,-0.061,-0.011,-0.033,-174.6
 15:09:02.183,eb:33:2e:f9:57:b5, 2085-97-02 00:250:255:2058,0.001,-0.002,1.005,-0.793,-0.671,-0.061,-0.011,-0.033,-174.6
 15:09:02.183,eb:33:2e:f9:57:b5, 2085-97-04 00:253:255:2057,0.001,-0.002,1.004,-0.671,-0.671,-0.061,-0.011,-0.033,-174.6
 15:09:02.183,eb:33:2e:f9:57:b5, 2085-97-02 00:252:255:2055,0,-0.001,1.004,-0.671,-0.488,-0.061,-0.011,-0.033,-174.6
 15:09:02.212,eb:33:2e:f9:57:b5, 2085-97-02 00:252:255:2055,0.001,-0.002,1.004,-0.61,-0.488,-0.061,-0.011,-0.033,-174.6
 15:09:02.212,eb:33:2e:f9:57:b5, 2085-97-00 00:253:255:2058,-0.001,-0.001,1.004,-0.61,-0.366,-0.061,-0.011,-0.033,-174.6
 15:09:02.212,eb:33:2e:f9:57:b5, 2085-97-253 255:250:255:2060,0,-0.002,1.004,-0.549,-0.488,-0.122,-0.011,-0.033,-174.6
 15:09:02.212,eb:33:2e:f9:57:b5, 2085-97-254 255:248:255:2056,0.001,-0.004,1.003,-0.549,-0.732,-0.122,-0.011,-0.033,-174.6
 15:09:02.243,eb:33:2e:f9:57:b5, 2085-97-02 00:252:255:2053,0.002,-0.003,1.003,-0.549,-0.977,-0.183,-0.011,-0.033,-174.6
 15:09:02.243,eb:33:2e:f9:57:b5, 2085-97-08 00:252:255:2050,0.002,-0.002,1.001,-0.488,-0.854,-0.183,-0.011,-0.033,-174.6
 15:09:02.243,eb:33:2e:f9:57:b5, 2085-97-03 00:248:255:2048,0.001,-0.003,1,-0.366,-0.671,-0.244,-0.011,-0.033,-174.6
 15:09:02.243,eb:33:2e:f9:57:b5, 2085-97-01 00:250:255:2054,0,-0.003,1.001,-0.305,-0.793,-0.244,-0.011,-0.033,-174.6
 15:09:02.302,eb:33:2e:f9:57:b5, 2085-97-02 00:246:255:2051,0.001,-0.004,1.002,-0.183,-0.916,-0.305,-0.011,-0.033,-174.6
 15:09:02.302,eb:33:2e:f9:57:b5, 2085-97-04 00:248:255:2051,0.001,-0.004,1.002,0,-1.16,-0.366,-0.011,-0.033,-174.6
 15:09:02.302,eb:33:2e:f9:57:b5, 2085-97-03 00:247:255:2055,0.002,-0.004,1.003,0.061,-1.221,-0.427,-0.011,-0.033,-174.6
 15:09:02.302,eb:33:2e:f9:57:b5, 2085-97-06 00:250:255:2052,0.004,-0.004,1.002,0.244,-1.282,-0.427,-0.011,-0.033,-174.6
 15:09:02.334,eb:33:2e:f9:57:b5, 2085-97-11 00:248:255:2047,0.005,-0.003,1,0.305,-1.282,-0.488,-0.011,-0.033,-174.6
 15:09:02.334,eb:33:2e:f9:57:b5, 2085-97-12 00:251:255:2049,0.005,-0.002,1,0.366,-0.916,-0.427,-0.011,-0.033,-174.6
 15:09:02.334,eb:33:2e:f9:57:b5, 2085-97-12 00:251:255:2048,0.005,-0.002,1,0.488,-0.732,-0.427,-0.011,-0.033,-174.6
 15:09:02.334,eb:33:2e:f9:57:b5, 2085-97-10 00:250:255:2052,0.005,-0.003,1.001,0.61,-0.427,-0.488,-0.011,-0.033,-174.6
 15:09:02.365,eb:33:2e:f9:57:b5, 2085-97-09 00:251:255:2051,0.003,-0.003,1,0.732,-0.366,-0.488,-0.011,-0.033,-174.6
 15:09:02.365,eb:33:2e:f9:57:b5, 2085-97-02 00:253:255:2056,0.001,-0.002,1.004,0.793,-0.305,-0.549,-0.011,-0.033,-174.6
 15:09:02.365,eb:33:2e:f9:57:b5, 2085-97-00 00:251:255:2055,0.001,-0.002,1.003,0.854,-0.61,-0.61,-0.011,-0.033,-174.6
 15:09:02.365,eb:33:2e:f9:57:b5, 2085-97-06 00:250:255:2052,0.004,-0.004,1.003,0.916,-0.793,-0.671,-0.011,-0.033,-174.6
 15:09:02.423,eb:33:2e:f9:57:b5, 2085-97-07 00:249:255:2053,0.002,-0.003,1.002,1.038,-0.854,-0.61,-0.011,-0.033,-174.6
 15:09:02.423,eb:33:2e:f9:57:b5, 2085-97-04 00:254:255:2057,0.003,-0.002,1.003,1.16,-0.793,-0.61,-0.011,-0.033,-174.6
 15:09:02.423,eb:33:2e:f9:57:b5, 2085-97-08 00:255:255:2055,0.005,-0.001,1.004,1.221,-0.916,-0.671,-0.011,-0.033,-174.6
 15:09:02.423,eb:33:2e:f9:57:b5, 2085-97-10 00:255:255:2056,0.006,-0.001,1.005,1.16,-0.793,-0.61,-0.011,-0.033,-174.6
 15:09:02.452,eb:33:2e:f9:57:b5, 2085-97-11 00:00:00:2054,0.007,0,1.003,1.221,-0.671,-0.488,-0.011,-0.033,-174.6
 15:09:02.452,eb:33:2e:f9:57:b5, 2085-97-15 00:00:00:2052,0.007,0,1.001,1.282,-0.366,-0.488,-0.011,-0.033,-174.6
 15:09:02.452,eb:33:2e:f9:57:b5, 2085-97-17 00:00:00:2050,0.008,0,1.001,1.282,0,-0.488,-0.011,-0.033,-174.6
 15:09:02.452,eb:33:2e:f9:57:b5, 2085-97-14 00:00:00:2053,0.006,0,1.001,1.343,0.488,-0.488,-0.011,-0.033,-174.6
 15:09:02.483,eb:33:2e:f9:57:b5, 2085-97-11 00:01:00:2055,0.005,0.001,1.003,1.343,0.732,-0.427,-0.011,-0.033,-174.6
 15:09:02.483,eb:33:2e:f9:57:b5, 2085-97-11 00:00:00:2055,0.005,0,1.004,1.282,0.916,-0.427,-0.011,-0.033,-174.6
 15:09:02.483,eb:33:2e:f9:57:b5, 2085-97-11 00:03:00:2054,0.004,0,1.003,1.282,1.16,-0.427,-0.011,-0.033,-174.6
 15:09:02.483,eb:33:2e:f9:57:b5, 2085-97-09 00:02:00:2054,0.007,0.002,1.003,1.343,1.343,-0.366,-0.011,-0.033,-174.6
 15:09:02.544,eb:33:2e:f9:57:b5, 2085-97-14 00:01:00:2049,0.004,0.001,1.001,1.404,1.709,-0.366,-0.011,-0.033,-174.6
 15:09:02.545,eb:33:2e:f9:57:b5, 2085-97-07 00:01:00:2052,0.003,0.001,1.001,1.404,2.014,-0.427,-0.011,-0.033,-174.6
 15:09:02.545,eb:33:2e:f9:57:b5, 2085-97-04 00:04:00:2055,0.001,0.001,1.003,1.526,2.075,-0.305,-0.011,-0.033,-174.6
 15:09:02.545,eb:33:2e:f9:57:b5, 2085-97-02 00:03:00:2057,0,0.001,1.004,1.526,1.953,-0.305,-0.011,-0.033,-174.6
 15:09:02.574,eb:33:2e:f9:57:b5, 2085-97-00 00:03:00:2060,0,0.002,1.005,1.526,1.831,-0.305,-0.011,-0.038,-174.6
 15:09:02.574,eb:33:2e:f9:57:b5, 2085-97-255 255:03:00:2059,0,0.001,1.007,1.526,1.709,-0.244,-0.011,-0.038,-174.606
 15:09:02.574,eb:33:2e:f9:57:b5, 2085-97-00 00:05:00:2060,0,0.001,1.006,1.587,1.465,-0.244,-0.011,-0.038,-174.606
 15:09:02.574,eb:33:2e:f9:57:b5, 2085-97-03 00:08:00:2057,0.001,0.004,1.006,1.526,1.282,-0.183,-0.011,-0.038,-174.606
 15:09:02.602,eb:33:2e:f9:57:b5, 2085-97-04 00:08:00:2056,0.001,0.005,1.003,1.343,1.343,-0.244,-0.011,-0.038,-174.606
 15:09:02.602,eb:33:2e:f9:57:b5, 2085-97-01 00:09:00:2053,0,0.005,1.003,1.282,1.526,-0.244,-0.011,-0.038,-174.606
 15:09:02.602,eb:33:2e:f9:57:b5, 2085-97-00 00:08:00:2056,-0.001,0.004,1.003,1.221,1.526,-0.244,-0.011,-0.038,-174.606
 15:09:02.602,eb:33:2e:f9:57:b5, 2085-97-254 255:09:00:2058,-0.001,0.005,1.004,1.16,1.465,-0.183,-0.011,-0.038,-174.606
 15:09:02.663,eb:33:2e:f9:57:b5, 2085-97-00 00:11:00:2057,0,0.005,1.005,1.099,1.465,-0.183,-0.011,-0.038,-174.606
 15:09:02.663,eb:33:2e:f9:57:b5, 2085-97-255 255:08:00:2054,0,0.004,1.004,0.916,1.465,-0.183,-0.011,-0.038,-174.606
 15:09:02.663,eb:33:2e:f9:57:b5, 2085-97-255 255:09:00:2052,0,0.005,1.002,0.916,1.587,-0.183,-0.011,-0.038,-174.606
 15:09:02.663,eb:33:2e:f9:57:b5, 2085-97-255 255:10:00:2053,-0.001,0.005,1.002,0.854,1.648,-0.244,-0.011,-0.038,-174.606
 15:09:02.693,eb:33:2e:f9:57:b5, 2085-97-252 255:11:00:2056,-0.001,0.005,1.003,0.793,1.648,-0.183,-0.011,-0.038,-174.606
 15:09:02.693,eb:33:2e:f9:57:b5, 2085-97-253 255:13:00:2056,-0.002,0.006,1.004,0.61,1.709,-0.183,-0.011,-0.038,-174.606
 15:09:02.693,eb:33:2e:f9:57:b5, 2085-97-252 255:10:00:2058,-0.001,0.005,1.005,0.549,1.709,-0.183,-0.011,-0.044,-174.606
 15:09:02.693,eb:33:2e:f9:57:b5, 2085-97-253 255:12:00:2054,0,0.005,1.003,0.488,1.892,-0.061,-0.011,-0.044,-174.606
 15:09:02.754,eb:33:2e:f9:57:b5, 2085-97-254 255:16:00:2056,-0.002,0.007,1.002,0.366,2.075,-0.061,-0.011,-0.044,-174.606
 15:09:02.754,eb:33:2e:f9:57:b5, 2085-97-247 255:16:00:2063,-0.004,0.008,1.006,0.183,2.319,-0.061,-0.011,-0.044,-174.606
 15:09:02.754,eb:33:2e:f9:57:b5, 2085-97-247 255:14:00:2063,-0.003,0.007,1.007,0,2.38,0,-0.011,-0.044,-174.606
 15:09:02.754,eb:33:2e:f9:57:b5, 2085-97-251 255:15:00:2060,-0.003,0.007,1.006,-0.122,2.502,0,-0.011,-0.044,-174.606
 15:09:02.782,eb:33:2e:f9:57:b5, 2085-97-249 255:11:00:2059,-0.005,0.006,1.005,-0.244,2.747,0.061,-0.011,-0.044,-174.606
 15:09:02.782,eb:33:2e:f9:57:b5, 2085-97-246 255:12:00:2058,-0.007,0.005,1.004,-0.305,2.869,0.183,-0.011,-0.044,-174.606
 15:09:02.782,eb:33:2e:f9:57:b5, 2085-97-241 255:12:00:2059,-0.008,0.005,1.005,-0.305,2.869,0.183,-0.011,-0.016,-174.606
 15:09:02.782,eb:33:2e:f9:57:b5, 2085-97-238 255:08:00:2059,-0.008,0.005,1.006,-0.244,2.625,0.183,-0.011,0.011,-174.6
 15:09:02.812,eb:33:2e:f9:57:b5, 2085-97-239 255:09:00:2059,-0.008,0.005,1.004,-0.305,2.38,0.183,-0.011,0.033,-174.6
 15:09:02.812,eb:33:2e:f9:57:b5, 2085-97-241 255:11:00:2056,-0.005,0.005,1.005,-0.305,2.075,0.183,-0.016,0.06,-174.6
 15:09:02.812,eb:33:2e:f9:57:b5, 2085-97-249 255:12:00:2049,-0.004,0.006,1.001,-0.244,2.136,0.183,-0.016,0.082,-174.6
 15:09:02.812,eb:33:2e:f9:57:b5, 2085-97-241 255:10:00:2056,-0.009,0.004,1.002,-0.305,2.441,0.183,-0.022,0.104,-174.595
 15:09:02.874,eb:33:2e:f9:57:b5, 2085-97-236 255:10:00:2060,-0.01,0.006,1.005,-0.244,2.38,0.244,-0.022,0.132,-174.595
 15:09:02.874,eb:33:2e:f9:57:b5, 2085-97-238 255:09:00:2057,-0.009,0.005,1.005,-0.244,2.258,0.244,-0.027,0.154,-174.595
 15:09:02.874,eb:33:2e:f9:57:b5, 2085-97-238 255:10:00:2054,-0.008,0.004,1.003,-0.244,2.136,0.244,-0.033,0.176,-174.589
 15:09:02.874,eb:33:2e:f9:57:b5, 2085-97-242 255:09:00:2051,-0.006,0.005,1.002,-0.244,2.197,0.244,-0.033,0.198,-174.589
 15:09:02.902,eb:33:2e:f9:57:b5, 2085-97-245 255:07:00:2047,-0.009,0.004,1,-0.244,2.38,0.244,-0.038,0.225,-174.589
 15:09:02.902,eb:33:2e:f9:57:b5, 2085-97-234 255:09:00:2054,-0.01,0.003,1.001,-0.061,2.747,0.244,-0.038,0.253,-174.584
 15:09:02.902,eb:33:2e:f9:57:b5, 2085-97-232 255:09:00:2059,-0.013,0.005,1.004,0,2.747,0.305,-0.038,0.28,-174.584
 15:09:02.902,eb:33:2e:f9:57:b5, 2085-97-230 255:10:00:2062,-0.014,0.005,1.006,-0.061,2.686,0.305,-0.038,0.308,-174.578
 15:09:02.932,eb:33:2e:f9:57:b5, 2085-97-227 255:08:00:2058,-0.012,0.005,1.006,-0.183,2.563,0.366,-0.038,0.335,-174.578
 15:09:02.932,eb:33:2e:f9:57:b5, 2085-97-235 255:11:00:2051,-0.009,0.005,1.004,-0.183,2.441,0.183,-0.044,0.363,-174.573
 15:09:02.932,eb:33:2e:f9:57:b5, 2085-97-234 255:08:00:2047,-0.012,0.004,1,-0.183,2.625,0.244,-0.044,0.385,-174.573
 15:09:02.932,eb:33:2e:f9:57:b5, 2085-97-229 255:08:00:2053,-0.016,0.004,1.002,-0.122,2.686,0.244,-0.044,0.412,-174.567
 15:09:03.024,eb:33:2e:f9:57:b5, 2085-97-223 255:09:00:2061,-0.017,0.004,1.005,-0.061,2.502,0.183,-0.049,0.439,-174.567
 15:09:03.024,eb:33:2e:f9:57:b5, 2085-97-220 255:09:00:2064,-0.017,0.004,1.007,-0.122,2.136,0.183,-0.049,0.467,-174.567
 15:09:03.024,eb:33:2e:f9:57:b5, 2085-113-58 00:212:254:-4950,-0.016,0.004,1.007,-0.244,1.831,0.122,-0.049,0.472,-174.567
 15:09:03.024,eb:33:2e:f9:57:b5, 2085-97-226 255:10:00:2059,-0.013,0.005,1.006,-0.305,1.77,0.122,-0.049,0.472,-174.567
 15:09:03.024,eb:33:2e:f9:57:b5, 2085-97-229 255:10:00:2051,-0.013,0.004,1.002,-0.305,1.831,0.183,-0.049,0.472,-174.567
 15:09:03.024,eb:33:2e:f9:57:b5, 2085-97-227 255:08:00:2051,-0.017,0.005,1.001,-0.366,1.892,0.122,-0.044,0.472,-174.567
 15:09:03.024,eb:33:2e:f9:57:b5, 2085-97-223 255:08:00:2054,-0.016,0.003,1.003,-0.305,1.709,0.122,-0.044,0.472,-174.567
 15:09:03.024,eb:33:2e:f9:57:b5, 2085-97-222 255:07:00:2051,-0.015,0.003,1.003,-0.244,1.587,0.061,-0.044,0.478,-174.567
 15:09:03.024,eb:33:2e:f9:57:b5, 2085-97-225 255:08:00:2050,-0.015,0.003,1.001,-0.183,1.404,-0.061,-0.044,0.478,-174.567
 15:09:03.054,eb:33:2e:f9:57:b5, 2085-97-227 255:07:00:2051,-0.017,0.003,1.001,-0.061,1.465,0,-0.038,0.478,-174.567
 15:09:03.054,eb:33:2e:f9:57:b5, 2085-97-219 255:08:00:2054,-0.018,0.004,1.003,0,1.526,0,-0.038,0.478,-174.567
 15:09:03.054,eb:33:2e:f9:57:b5, 2085-97-222 255:08:00:2057,-0.017,0.004,1.004,0,1.343,0,-0.038,0.478,-174.562
 15:09:03.054,eb:33:2e:f9:57:b5, 2085-97-225 255:08:00:2051,-0.014,0.003,1.003,0.061,1.343,0,-0.038,0.478,-174.562
 15:09:03.113,eb:33:2e:f9:57:b5, 2085-97-226 255:09:00:2049,-0.014,0.003,1,0.122,1.526,0.061,-0.038,0.478,-174.562
 15:09:03.113,eb:33:2e:f9:57:b5, 2085-97-228 255:07:00:2047,-0.016,0.003,1,0.183,1.77,0,-0.038,0.478,-174.562
 15:09:03.113,eb:33:2e:f9:57:b5, 2085-97-219 255:07:00:2052,-0.02,0.003,1,0.366,1.892,0,-0.033,0.478,-174.562
 15:09:03.113,eb:33:2e:f9:57:b5, 2085-97-214 255:10:00:2057,-0.021,0.004,1.003,0.366,1.77,0,-0.033,0.478,-174.562
 15:09:03.142,eb:33:2e:f9:57:b5, 2085-97-210 255:10:00:2062,-0.022,0.005,1.006,0.366,1.465,0,-0.033,0.478,-174.562
 15:09:03.142,eb:33:2e:f9:57:b5, 2085-97-209 255:09:00:2062,-0.021,0.004,1.007,0.305,0.977,0,-0.033,0.478,-174.562
 15:09:03.143,eb:33:2e:f9:57:b5, 2085-97-215 255:07:00:2054,-0.019,0.004,1.004,0.305,0.549,-0.061,-0.033,0.478,-174.562
 15:09:03.143,eb:33:2e:f9:57:b5, 2085-97-218 255:10:00:2052,-0.018,0.004,1.003,0.366,0.427,-0.122,-0.033,0.478,-174.562
 15:09:03.174,eb:33:2e:f9:57:b5, 2085-97-218 255:09:00:2053,-0.019,0.005,1.002,0.427,0.366,-0.122,-0.033,0.483,-174.562
 15:09:03.174,eb:33:2e:f9:57:b5, 2085-97-216 255:13:00:2058,-0.019,0.005,1.003,0.366,0.427,-0.122,-0.033,0.483,-174.562
 15:09:03.174,eb:33:2e:f9:57:b5, 2085-97-216 255:12:00:2058,-0.019,0.006,1.005,0.305,0.427,-0.122,-0.027,0.483,-174.562
 15:09:03.174,eb:33:2e:f9:57:b5, 2085-97-219 255:12:00:2055,-0.018,0.006,1.004,0.183,0.366,-0.183,-0.027,0.483,-174.562
 15:09:03.234,eb:33:2e:f9:57:b5, 2085-97-221 255:09:00:2048,-0.017,0.005,1.002,0.122,0.366,-0.183,-0.027,0.483,-174.562
 15:09:03.234,eb:33:2e:f9:57:b5, 2085-97-218 255:08:00:2051,-0.019,0.003,1,0.183,0.549,-0.122,-0.027,0.483,-174.562
 15:09:03.234,eb:33:2e:f9:57:b5, 2085-97-216 255:12:00:2055,-0.021,0.005,1.003,0.305,0.61,-0.061,-0.027,0.483,-174.562
 15:09:03.234,eb:33:2e:f9:57:b5, 2085-97-216 255:13:00:2057,-0.021,0.007,1.004,0.305,0.61,-0.061,-0.027,0.483,-174.562
 15:09:03.292,eb:33:2e:f9:57:b5, 2085-97-216 255:13:00:2058,-0.02,0.006,1.005,0.183,0.549,0,-0.022,0.489,-174.562
 15:09:03.292,eb:33:2e:f9:57:b5, 2085-97-218 255:14:00:2055,-0.018,0.006,1.005,0.183,0.488,0,-0.022,0.489,-174.562
 15:09:03.292,eb:33:2e:f9:57:b5, 2085-97-214 255:11:00:2055,-0.018,0.005,1.003,0.244,0.61,0,-0.022,0.489,-174.562
 15:09:03.292,eb:33:2e:f9:57:b5, 2085-97-227 255:14:00:2048,-0.018,0.006,1.001,0.183,0.671,0,-0.022,0.489,-174.562
 15:09:03.294,eb:33:2e:f9:57:b5, 2085-97-216 255:13:00:2050,-0.02,0.005,1.001,0.122,0.977,0.061,-0.022,0.489,-174.562
 15:09:03.294,eb:33:2e:f9:57:b5, 2085-97-216 255:15:00:2050,-0.016,0.008,1.001,0.122,1.038,0,-0.022,0.489,-174.562
 15:09:03.294,eb:33:2e:f9:57:b5, 2085-97-225 255:13:00:2047,-0.019,0.007,1,0,1.16,0,-0.022,0.489,-174.562
 15:09:03.294,eb:33:2e:f9:57:b5, 2085-97-219 255:14:00:2051,-0.018,0.006,1.001,0,1.465,0,-0.022,0.489,-174.562
 15:09:03.353,eb:33:2e:f9:57:b5, 2085-97-218 255:08:00:2048,-0.018,0.006,1,0,1.648,0.061,-0.016,0.494,-174.556
 15:09:03.353,eb:33:2e:f9:57:b5, 2085-97-220 255:06:00:2044,-0.018,0.004,0.998,0,1.892,0,-0.016,0.494,-174.556
 15:09:03.353,eb:33:2e:f9:57:b5, 2085-97-213 255:16:00:2057,-0.021,0.006,1.002,0,2.075,0.061,-0.016,0.494,-174.556
 15:09:03.353,eb:33:2e:f9:57:b5, 2085-97-210 255:11:00:2058,-0.022,0.007,1.005,-0.183,2.197,0,-0.016,0.494,-174.556
 15:09:03.383,eb:33:2e:f9:57:b5, 2085-97-220 255:11:00:2046,-0.018,0.005,1.001,-0.183,2.319,0.061,-0.016,0.494,-174.556
 15:09:03.383,eb:33:2e:f9:57:b5, 2085-97-216 255:09:00:2048,-0.02,0.004,0.999,-0.183,2.808,0.122,-0.016,0.494,-174.556
 15:09:03.383,eb:33:2e:f9:57:b5, 2085-97-215 255:10:00:2048,-0.021,0.005,1,-0.122,3.174,0.183,-0.016,0.522,-174.556
 15:09:03.383,eb:33:2e:f9:57:b5, 2085-97-212 255:13:00:2049,-0.024,0.005,1,-0.061,3.418,0.122,-0.016,0.555,-174.556
 15:09:03.415,eb:33:2e:f9:57:b5, 2085-97-205 255:13:00:2056,-0.025,0.006,1.002,-0.122,3.479,0.061,-0.022,0.593,-174.556
 15:09:03.415,eb:33:2e:f9:57:b5, 2085-97-198 255:08:00:2057,-0.027,0.006,1.004,-0.183,3.296,0,-0.022,0.626,-174.556
 15:09:03.415,eb:33:2e:f9:57:b5, 2085-97-201 255:08:00:2054,-0.029,0.003,1.005,-0.061,2.991,0,-0.022,0.659,-174.556
 15:09:03.415,eb:33:2e:f9:57:b5, 2085-97-198 255:11:00:2054,-0.027,0.003,1.003,0,2.747,0,-0.022,0.692,-174.556
 15:09:03.502,eb:33:2e:f9:57:b5, 2085-97-202 255:08:00:2051,-0.025,0.005,1.002,0.122,2.563,0,-0.022,0.72,-174.556
 15:09:03.502,eb:33:2e:f9:57:b5, 2085-97-204 255:14:00:2052,-0.029,0.006,1,0.122,2.686,-0.122,-0.022,0.747,-174.562
 15:09:03.502,eb:33:2e:f9:57:b5, 2085-97-195 255:11:00:2058,-0.028,0.007,1.004,0.061,2.747,-0.061,-0.016,0.775,-174.562
 15:09:03.502,eb:33:2e:f9:57:b5, 2085-97-202 255:07:00:2049,-0.025,0.004,1.002,0.183,2.563,-0.061,-0.016,0.802,-174.562
 15:09:03.505,eb:33:2e:f9:57:b5, 2085-97-205 255:10:00:2047,-0.027,0.004,0.999,0.366,2.808,0,-0.016,0.829,-174.562
 15:09:03.505,eb:33:2e:f9:57:b5, 2085-97-195 255:11:00:2056,-0.031,0.006,1.002,0.488,2.93,0,-0.011,0.857,-174.562
 15:09:03.505,eb:33:2e:f9:57:b5, 2085-97-194 255:09:00:2057,-0.032,0.004,1.003,0.488,2.808,-0.061,-0.011,0.89,-174.567
 15:09:03.505,eb:33:2e:f9:57:b5, 2085-97-189 255:12:00:2061,-0.033,0.005,1.005,0.549,2.686,-0.122,-0.005,0.917,-174.567
 15:09:03.532,eb:33:2e:f9:57:b5, 2085-97-195 255:13:00:2055,-0.029,0.006,1.006,0.488,2.258,-0.183,0,0.939,-174.573
 15:09:03.532,eb:33:2e:f9:57:b5, 2085-97-197 255:08:00:2054,-0.03,0.006,1.002,0.488,2.441,-0.061,0.005,0.967,-174.573
 15:09:03.532,eb:33:2e:f9:57:b5, 2085-97-198 255:10:00:2047,-0.024,0.005,1.002,0.61,2.502,0,0.011,0.994,-174.573
 15:09:03.532,eb:33:2e:f9:57:b5, 2085-97-213 255:251:255:2030,-0.021,0.002,0.995,0.977,3.113,0,0.016,1.022,-174.573
 15:09:03.594,eb:33:2e:f9:57:b5, 2085-97-200 255:01:00:2034,-0.028,-0.003,0.991,1.77,4.272,-0.061,0.033,1.06,-174.573
 15:09:03.594,eb:33:2e:f9:57:b5, 2085-97-188 255:18:00:2056,-0.039,0.004,0.999,2.258,4.578,0.061,0.055,1.104,-174.573
 15:09:03.594,eb:33:2e:f9:57:b5, 2085-97-175 255:21:00:2065,-0.038,0.011,1.008,2.014,4.395,-0.122,0.077,1.154,-174.578
 15:09:03.594,eb:33:2e:f9:57:b5, 2085-97-169 255:16:00:2066,-0.038,0.008,1.007,1.892,3.967,-0.122,0.093,1.198,-174.578
 15:09:03.624,eb:33:2e:f9:57:b5, 2085-97-189 255:13:00:2043,-0.032,0.008,1.002,1.709,3.235,-0.183,0.115,1.23,-174.578
 15:09:03.624,eb:33:2e:f9:57:b5, 2085-97-183 255:12:00:2050,-0.042,0.004,0.998,1.892,3.54,-0.183,0.132,1.269,-174.584
 15:09:03.624,eb:33:2e:f9:57:b5, 2085-97-163 255:25:00:2068,-0.047,0.009,1.006,1.892,3.174,-0.183,0.154,1.302,-174.584
 15:09:03.624,eb:33:2e:f9:57:b5, 2085-113-58 00:227:254:-5070,-0.046,0.012,1.011,1.526,2.197,-0.366,0.17,1.329,-174.589
 15:09:03.654,eb:33:2e:f9:57:b5, 2085-97-164 255:24:00:2068,-0.045,0.011,1.01,1.404,1.709,-0.366,0.176,1.34,-174.589
 15:09:03.654,eb:33:2e:f9:57:b5, 2085-97-167 255:25:00:2066,-0.042,0.012,1.01,1.16,0.854,-0.427,0.187,1.351,-174.595
 15:09:03.654,eb:33:2e:f9:57:b5, 2085-97-173 255:20:00:2058,-0.038,0.011,1.007,0.916,0.305,-0.366,0.198,1.362,-174.6
 15:09:03.654,eb:33:2e:f9:57:b5, 2085-97-184 255:13:00:2047,-0.034,0.008,1.002,0.977,0.061,-0.366,0.209,1.362,-174.606
 15:09:03.712,eb:33:2e:f9:57:b5, 2085-97-182 255:19:00:2052,-0.04,0.006,1,1.282,0.305,-0.244,0.22,1.368,-174.606
 15:09:03.714,eb:33:2e:f9:57:b5, 2085-97-174 255:30:00:2062,-0.039,0.012,1.004,1.221,0.244,-0.244,0.231,1.368,-174.611
 15:09:03.714,eb:33:2e:f9:57:b5, 2085-97-176 255:27:00:2060,-0.039,0.015,1.006,0.793,0,-0.122,0.242,1.373,-174.611
 15:09:03.714,eb:33:2e:f9:57:b5, 2085-97-173 255:26:00:2062,-0.042,0.012,1.006,0.549,-0.061,-0.244,0.247,1.373,-174.617
 15:09:03.743,eb:33:2e:f9:57:b5, 2085-97-172 255:27:00:2059,-0.039,0.014,1.006,0.305,-0.488,-0.244,0.253,1.368,-174.617
 15:09:03.743,eb:33:2e:f9:57:b5, 2085-97-178 255:24:00:2055,-0.036,0.012,1.004,0.061,-0.793,-0.183,0.258,1.362,-174.622
 15:09:03.743,eb:33:2e:f9:57:b5, 2085-97-188 255:32:00:2048,-0.034,0.013,1.001,-0.061,-0.793,-0.183,0.258,1.357,-174.622
 15:09:03.743,eb:33:2e:f9:57:b5, 2085-97-180 255:23:00:2058,-0.035,0.013,1.003,-0.427,-0.366,-0.061,0.253,1.351,-174.628
 15:09:03.773,eb:33:2e:f9:57:b5, 2085-97-185 255:28:00:2056,-0.037,0.013,1.003,-0.61,-0.305,0,0.247,1.346,-174.628
 15:09:03.773,eb:33:2e:f9:57:b5, 2085-97-178 255:25:00:2062,-0.038,0.013,1.006,-0.854,-0.183,0,0.242,1.346,-174.628
 15:09:03.773,eb:33:2e:f9:57:b5, 2085-97-182 255:24:00:2052,-0.033,0.012,1.006,-1.099,-0.244,0,0.231,1.346,-174.628
 15:09:03.773,eb:33:2e:f9:57:b5, 2085-97-200 255:08:00:2032,-0.025,0.007,0.998,-0.916,0.061,0.183,0.22,1.346,-174.628
 15:09:03.834,eb:33:2e:f9:57:b5, 2085-97-200 255:13:00:2038,-0.034,0.003,0.99,-0.305,1.038,0.244,0.214,1.351,-174.622
 15:09:03.834,eb:33:2e:f9:57:b5, 2085-97-179 255:21:00:2054,-0.04,0.009,1,-0.122,1.587,0.305,0.209,1.368,-174.622
 15:09:03.834,eb:33:2e:f9:57:b5, 2085-97-169 255:20:00:2061,-0.039,0.009,1.004,-0.122,1.587,0.305,0.209,1.384,-174.617
 15:09:03.834,eb:33:2e:f9:57:b5, 2085-97-173 255:21:00:2059,-0.04,0.01,1.005,-0.122,1.221,0.244,0.209,1.395,-174.617
 15:09:03.863,eb:33:2e:f9:57:b5, 2085-97-179 255:18:00:2049,-0.037,0.009,1.004,-0.183,0.916,0.183,0.214,1.412,-174.611
 15:09:03.863,eb:33:2e:f9:57:b5, 2085-97-181 255:14:00:2048,-0.035,0.008,1,0,0.977,0.183,0.214,1.412,-174.611
 15:09:03.863,eb:33:2e:f9:57:b5, 2085-97-182 255:18:00:2047,-0.037,0.008,1,0.183,1.16,0.183,0.22,1.423,-174.606
 15:09:03.863,eb:33:2e:f9:57:b5, 2085-97-177 255:18:00:2049,-0.04,0.009,1,0.305,1.343,0.122,0.22,1.423,-174.606
 15:09:03.892,eb:33:2e:f9:57:b5, 2085-97-170 255:21:00:2052,-0.043,0.009,1.001,0.427,1.16,0.061,0.225,1.434,-174.606
 15:09:03.892,eb:33:2e:f9:57:b5, 2085-97-167 255:14:00:2054,-0.04,0.01,1.003,0.488,0.732,0.061,0.225,1.434,-174.606
 15:09:03.892,eb:33:2e:f9:57:b5, 2085-97-180 255:17:00:2047,-0.037,0.007,1,0.732,0.427,0.061,0.231,1.439,-174.6
 15:09:03.892,eb:33:2e:f9:57:b5, 2085-97-180 255:20:00:2046,-0.038,0.009,0.999,0.977,0.488,0.061,0.231,1.439,-174.6
 15:09:03.984,eb:33:2e:f9:57:b5, 2085-97-175 255:23:00:2048,-0.041,0.011,0.999,0.977,0.61,0,0.236,1.445,-174.6
 15:09:03.984,eb:33:2e:f9:57:b5, 2085-97-172 255:22:00:2053,-0.042,0.01,1.002,0.977,0.549,-0.061,0.236,1.445,-174.6
 15:09:03.984,eb:33:2e:f9:57:b5, 2085-97-168 255:23:00:2056,-0.042,0.011,1.003,0.916,0.244,0,0.236,1.456,-174.595
 15:09:03.984,eb:33:2e:f9:57:b5, 2085-97-172 255:12:00:2048,-0.04,0.009,1.002,1.099,-0.061,-0.122,0.236,1.456,-174.595
 15:09:03.984,eb:33:2e:f9:57:b5, 2085-97-177 255:18:00:2049,-0.039,0.006,1,1.526,-0.183,-0.122,0.242,1.461,-174.595
 15:09:03.984,eb:33:2e:f9:57:b5, 2085-97-177 255:22:00:2045,-0.039,0.009,1,1.831,-0.183,-0.244,0.242,1.461,-174.595
 15:09:03.984,eb:33:2e:f9:57:b5, 2085-97-170 255:22:00:2056,-0.044,0.01,1,2.136,-0.122,-0.122,0.247,1.467,-174.589
 15:09:03.984,eb:33:2e:f9:57:b5, 2085-97-164 255:30:00:2061,-0.046,0.011,1.006,2.258,-0.549,-0.183,0.247,1.467,-174.589
 15:09:04.013,eb:33:2e:f9:57:b5, 2085-97-166 255:29:00:2059,-0.042,0.013,1.007,2.197,-1.16,-0.061,0.247,1.472,-174.589
 15:09:04.013,eb:33:2e:f9:57:b5, 2085-97-174 255:30:00:2054,-0.04,0.014,1.004,2.075,-1.526,0,0.247,1.472,-174.589
 15:09:04.013,eb:33:2e:f9:57:b5, 2085-97-175 255:27:00:2055,-0.04,0.014,1.003,2.014,-1.77,0.061,0.253,1.478,-174.589
 15:09:04.013,eb:33:2e:f9:57:b5, 2085-97-177 255:30:00:2052,-0.036,0.014,1.003,2.014,-2.014,0.061,0.253,1.478,-174.589
 15:09:04.074,eb:33:2e:f9:57:b5, 2085-97-191 255:24:00:2040,-0.03,0.014,0.999,2.014,-2.014,0.061,0.253,1.478,-174.589
 15:09:04.074,eb:33:2e:f9:57:b5, 2085-97-193 255:27:00:2043,-0.035,0.011,0.995,2.197,-1.404,0,0.253,1.478,-174.589
 15:09:04.074,eb:33:2e:f9:57:b5, 2085-97-180 255:34:00:2053,-0.037,0.015,1,2.197,-1.038,0.061,0.258,1.483,-174.584
 15:09:04.074,eb:33:2e:f9:57:b5, 2085-97-183 255:32:00:2053,-0.035,0.017,1.002,2.014,-0.977,0.122,0.258,1.483,-174.584
 15:09:04.102,eb:33:2e:f9:57:b5, 2085-97-186 255:38:00:2054,-0.034,0.016,1.002,2.014,-0.793,0.183,0.258,1.489,-174.584
 15:09:04.102,eb:33:2e:f9:57:b5, 2085-97-187 255:38:00:2054,-0.033,0.019,1.003,1.77,-0.488,0.183,0.258,1.489,-174.584
 15:09:04.102,eb:33:2e:f9:57:b5, 2085-97-190 255:34:00:2047,-0.032,0.017,1.001,1.648,-0.183,0.366,0.258,1.494,-174.584
 15:09:04.102,eb:33:2e:f9:57:b5, 2085-97-187 255:35:00:2051,-0.037,0.016,1,1.709,0.305,0.488,0.258,1.494,-174.584
 15:09:04.193,eb:33:2e:f9:57:b5, 2085-97-176 255:42:00:2060,-0.039,0.019,1.004,1.587,0.366,0.549,0.264,1.494,-174.584
 15:09:04.193,eb:33:2e:f9:57:b5, 2085-97-174 255:41:00:2060,-0.04,0.021,1.005,1.221,0.183,0.488,0.264,1.494,-174.584
 15:09:04.193,eb:33:2e:f9:57:b5, 2085-97-175 255:40:00:2053,-0.038,0.019,1.005,1.038,-0.061,0.488,0.264,1.5,-174.578
 15:09:04.193,eb:33:2e:f9:57:b5, 2085-97-185 255:34:00:2046,-0.036,0.019,1,0.916,-0.244,0.488,0.264,1.5,-174.578
 15:09:04.195,eb:33:2e:f9:57:b5, 2085-97-179 255:40:00:2052,-0.037,0.017,1,1.038,-0.061,0.488,0.269,1.505,-174.578
 15:09:04.195,eb:33:2e:f9:57:b5, 2085-97-177 255:42:00:2058,-0.039,0.021,1.004,0.793,-0.183,0.488,0.269,1.505,-174.578
 15:09:04.195,eb:33:2e:f9:57:b5, 2085-97-176 255:43:00:2058,-0.038,0.02,1.005,0.671,-0.427,0.549,0.269,1.505,-174.578
 15:09:04.195,eb:33:2e:f9:57:b5, 2085-97-179 255:47:00:2059,-0.037,0.022,1.005,0.427,-0.549,0.61,0.269,1.505,-174.578
 15:09:04.224,eb:33:2e:f9:57:b5, 2085-97-183 255:43:00:2056,-0.032,0.023,1.006,0,-0.671,0.61,0.275,1.511,-174.578
 15:09:04.224,eb:33:2e:f9:57:b5, 2085-97-189 255:47:00:2052,-0.036,0.022,1.002,-0.366,-0.427,0.61,0.275,1.511,-174.578
 15:09:04.224,eb:33:2e:f9:57:b5, 2085-97-180 255:44:00:2056,-0.036,0.021,1.003,-0.61,-0.244,0.549,0.275,1.511,-174.578
 15:09:04.224,eb:33:2e:f9:57:b5, 2085-97-183 255:45:00:2053,-0.038,0.022,1.003,-1.038,-0.305,0.427,0.275,1.511,-174.578
 15:09:04.283,eb:33:2e:f9:57:b5, 2085-97-173 255:41:00:2063,-0.042,0.02,1.004,-1.343,-0.427,0.366,0.28,1.516,-174.578
 15:09:04.283,eb:33:2e:f9:57:b5, 2085-97-171 255:40:00:2065,-0.039,0.02,1.008,-1.587,-0.977,0.244,0.28,1.516,-174.573
 15:09:04.283,eb:33:2e:f9:57:b5, 2085-97-180 255:38:00:2058,-0.036,0.019,1.007,-1.709,-1.526,0.244,0.286,1.522,-174.573
 15:09:04.283,eb:33:2e:f9:57:b5, 2085-97-185 255:34:00:2056,-0.036,0.016,1.004,-1.77,-1.587,0.366,0.286,1.522,-174.573
 15:09:04.283,eb:33:2e:f9:57:b5, 2085-97-181 255:41:00:2055,-0.038,0.019,1.003,-1.831,-1.709,0.427,0.286,1.522,-174.573
 15:09:04.313,eb:33:2e:f9:57:b5, 2085-113-58 00:227:254:-4830,-0.037,0.017,1.004,-2.075,-1.892,0.427,0.286,1.522,-174.573
 15:09:04.313,eb:33:2e:f9:57:b5, 2085-97-186 255:34:00:2053,-0.035,0.016,1.004,-2.075,-2.014,0.366,0.286,1.522,-174.573
 15:09:04.313,eb:33:2e:f9:57:b5, 2085-97-183 255:33:00:2055,-0.036,0.017,1.003,-2.136,-2.136,0.427,0.275,1.511,-174.573
 15:09:04.313,eb:33:2e:f9:57:b5, 2085-97-184 255:30:00:2056,-0.036,0.015,1.004,-2.136,-2.319,0.488,0.253,1.489,-174.567
 15:09:04.343,eb:33:2e:f9:57:b5, 2085-97-181 255:30:00:2058,-0.035,0.015,1.004,-2.136,-2.502,0.488,0.231,1.467,-174.562
 15:09:04.343,eb:33:2e:f9:57:b5, 2085-97-186 255:28:00:2054,-0.034,0.014,1.004,-2.075,-2.747,0.366,0.209,1.439,-174.562
 15:09:04.343,eb:33:2e:f9:57:b5, 2085-97-195 255:22:00:2041,-0.023,0.013,1.002,-1.953,-2.991,0.305,0.187,1.412,-174.556
 15:09:04.343,eb:33:2e:f9:57:b5, 2085-97-211 255:23:00:2033,-0.023,0.01,0.994,-1.648,-2.441,0.244,0.17,1.384,-174.551
 15:09:04.403,eb:33:2e:f9:57:b5, 2085-97-202 255:31:00:2047,-0.03,0.013,0.995,-1.404,-1.526,0.244,0.154,1.362,-174.551
 15:09:04.403,eb:33:2e:f9:57:b5, 2085-97-189 255:28:00:2059,-0.034,0.015,1.003,-1.465,-1.099,0.244,0.143,1.351,-174.551
 15:09:04.403,eb:33:2e:f9:57:b5, 2085-97-189 255:25:00:2057,-0.033,0.013,1.006,-1.526,-1.282,0.183,0.126,1.34,-174.545
 15:09:04.403,eb:33:2e:f9:57:b5, 2085-97-186 255:26:00:2059,-0.034,0.012,1.005,-1.404,-1.526,0.183,0.11,1.329,-174.545
 15:09:04.432,eb:33:2e:f9:57:b5, 2085-97-186 255:27:00:2060,-0.034,0.013,1.005,-1.465,-1.892,0.183,0.099,1.307,-174.545
 15:09:04.432,eb:33:2e:f9:57:b5, 2085-97-188 255:26:00:2061,-0.034,0.012,1.006,-1.404,-2.258,0.183,0.082,1.291,-174.54
 15:09:04.432,eb:33:2e:f9:57:b5, 2085-97-185 255:32:00:2064,-0.036,0.015,1.007,-1.526,-2.686,0.183,0.066,1.263,-174.54
 15:09:04.432,eb:33:2e:f9:57:b5, 2085-97-184 255:32:00:2068,-0.036,0.015,1.009,-1.709,-3.174,0.061,0.049,1.236,-174.54
 15:09:04.462,eb:33:2e:f9:57:b5, 2085-97-182 255:34:00:2072,-0.038,0.016,1.01,-2.075,-3.845,0.061,0.033,1.203,-174.54
 15:09:04.462,eb:33:2e:f9:57:b5, 2085-97-179 255:30:00:2078,-0.037,0.016,1.014,-2.441,-4.578,0.183,0.011,1.159,-174.54
 15:09:04.462,eb:33:2e:f9:57:b5, 2085-97-187 255:25:00:2068,-0.03,0.013,1.012,-2.686,-5.554,0.244,-0.011,1.11,-174.534
 15:09:04.462,eb:33:2e:f9:57:b5, 2085-97-223 255:08:00:2018,-0.003,0.01,1.001,-2.747,-6.165,0.244,-0.038,1.049,-174.534
 15:09:04.523,eb:33:2e:f9:57:b5, 2085-97-246 255:05:00:2014,-0.014,0,0.979,-1.892,-4.578,0.427,-0.066,0.994,-174.529
 15:09:04.523,eb:33:2e:f9:57:b5, 2085-97-213 255:25:00:2046,-0.024,0.009,0.992,-1.465,-3.113,0.549,-0.082,0.956,-174.523
 15:09:04.523,eb:33:2e:f9:57:b5, 2085-97-204 255:18:00:2055,-0.023,0.011,1.002,-1.526,-2.869,0.427,-0.093,0.928,-174.518
 15:09:04.523,eb:33:2e:f9:57:b5, 2085-97-212 255:19:00:2051,-0.021,0.009,1.002,-1.404,-2.991,0.366,-0.11,0.901,-174.518
 15:09:04.553,eb:33:2e:f9:57:b5, 2085-97-213 255:18:00:2053,-0.021,0.009,1.001,-1.465,-2.686,0.366,-0.126,0.873,-174.512
 15:09:04.553,eb:33:2e:f9:57:b5, 2085-97-210 255:18:00:2055,-0.022,0.009,1.002,-1.465,-2.502,0.305,-0.137,0.846,-174.512
 15:09:04.553,eb:33:2e:f9:57:b5, 2085-97-210 255:18:00:2053,-0.023,0.009,1.002,-1.404,-2.38,0.366,-0.154,0.824,-174.507
 15:09:04.553,eb:33:2e:f9:57:b5, 2085-97-208 255:21:00:2059,-0.024,0.009,1.003,-1.404,-2.441,0.427,-0.17,0.802,-174.501
 15:09:04.613,eb:33:2e:f9:57:b5, 2085-97-201 255:19:00:2068,-0.03,0.009,1.006,-1.465,-2.625,0.488,-0.181,0.775,-174.496
 15:09:04.613,eb:33:2e:f9:57:b5, 2085-97-194 255:18:00:2070,-0.024,0.01,1.014,-1.648,-3.357,0.427,-0.198,0.747,-174.496
 15:09:04.613,eb:33:2e:f9:57:b5, 2085-97-209 255:15:00:2060,-0.021,0.007,1.008,-1.648,-4.089,0.61,-0.214,0.709,-174.49
 15:09:04.613,eb:33:2e:f9:57:b5, 2085-97-214 255:13:00:2056,-0.019,0.007,1.005,-1.648,-4.333,0.61,-0.231,0.665,-174.479
 15:09:04.644,eb:33:2e:f9:57:b5, 2085-97-220 255:08:00:2049,-0.016,0.004,1.002,-1.526,-4.333,0.549,-0.247,0.621,-174.474
 15:09:04.644,eb:33:2e:f9:57:b5, 2085-97-230 255:12:00:2042,-0.012,0.005,0.998,-1.221,-4.211,0.488,-0.264,0.582,-174.468
 15:09:04.644,eb:33:2e:f9:57:b5, 2085-97-239 255:12:00:2037,-0.009,0.006,0.995,-1.16,-3.784,0.488,-0.275,0.538,-174.463
 15:09:04.644,eb:33:2e:f9:57:b5, 2085-97-239 255:11:00:2040,-0.007,0.005,0.996,-1.038,-3.052,0.305,-0.286,0.505,-174.463
 15:09:04.673,eb:33:2e:f9:57:b5, 2085-97-237 255:10:00:2043,-0.01,0.006,0.995,-0.916,-2.258,0.427,-0.297,0.483,-174.457
 15:09:04.673,eb:33:2e:f9:57:b5, 2085-97-233 255:11:00:2048,-0.011,0.005,1,-0.854,-1.77,0.366,-0.302,0.461,-174.452
 15:09:04.673,eb:33:2e:f9:57:b5, 2085-97-232 255:08:00:2047,-0.011,0.005,0.999,-0.854,-1.282,0.366,-0.313,0.45,-174.452
 15:09:04.673,eb:33:2e:f9:57:b5, 2085-97-230 255:07:00:2043,-0.006,0.005,0.999,-0.671,-1.038,0.366,-0.319,0.434,-174.446
 15:09:04.764,eb:33:2e:f9:57:b5, 2085-97-249 255:03:00:2028,-0.011,0.001,0.989,-0.305,-0.549,0.122,-0.324,0.428,-174.446
 15:09:04.764,eb:33:2e:f9:57:b5, 2085-97-228 255:12:00:2048,-0.013,0.003,0.998,-0.061,0.122,0.183,-0.33,0.428,-174.446
 15:09:04.765,eb:33:2e:f9:57:b5, 2085-97-229 255:06:00:2049,-0.015,0.005,1,0,0.183,0.061,-0.33,0.434,-174.441
 15:09:04.765,eb:33:2e:f9:57:b5, 2085-97-219 255:10:00:2057,-0.018,0.005,1.003,0.122,0.244,0.122,-0.324,0.434,-174.441
 15:09:04.765,eb:33:2e:f9:57:b5, 2085-97-222 255:11:00:2053,-0.013,0.005,1.004,0.122,-0.122,0,-0.324,0.439,-174.441
 15:09:04.765,eb:33:2e:f9:57:b5, 2085-97-235 255:09:00:2042,-0.011,0.003,1,0.244,-0.122,0,-0.324,0.434,-174.441
 15:09:04.765,eb:33:2e:f9:57:b5, 2085-97-236 255:06:00:2040,-0.008,0.004,0.999,0.488,0.122,0,-0.319,0.439,-174.441
 15:09:04.765,eb:33:2e:f9:57:b5, 2085-97-229 255:10:00:2052,-0.015,0.004,0.998,0.793,0.671,0.061,-0.313,0.439,-174.441
 15:09:04.792,eb:33:2e:f9:57:b5, 2085-97-225 255:14:00:2058,-0.015,0.007,1.004,0.793,0.793,0,-0.302,0.45,-174.441
 15:09:04.792,eb:33:2e:f9:57:b5, 2085-97-227 255:14:00:2058,-0.015,0.007,1.006,0.793,0.732,0,-0.297,0.461,-174.446
 15:09:04.792,eb:33:2e:f9:57:b5, 2085-97-225 255:15:00:2059,-0.016,0.007,1.005,0.61,0.793,-0.061,-0.286,0.467,-174.446
 15:09:04.792,eb:33:2e:f9:57:b5, 2085-97-220 255:16:00:2064,-0.02,0.008,1.006,0.488,0.732,0,-0.28,0.478,-174.446
 15:09:04.853,eb:33:2e:f9:57:b5, 2085-97-216 255:15:00:2063,-0.019,0.007,1.008,0.488,0.427,-0.061,-0.275,0.483,-174.446
 15:09:04.853,eb:33:2e:f9:57:b5, 2085-97-220 255:16:00:2056,-0.016,0.007,1.006,0.427,0.061,-0.183,-0.275,0.489,-174.446
 15:09:04.853,eb:33:2e:f9:57:b5, 2085-97-223 255:15:00:2057,-0.016,0.007,1.004,0.366,0,-0.183,-0.269,0.489,-174.452
 15:09:04.853,eb:33:2e:f9:57:b5, 2085-97-224 255:16:00:2058,-0.018,0.008,1.004,0.366,-0.122,-0.122,-0.264,0.489,-174.452
 15:09:04.884,eb:33:2e:f9:57:b5, 2085-97-218 255:16:00:2058,-0.018,0.007,1.005,0.244,-0.366,-0.061,-0.247,0.5,-174.452
 15:09:04.884,eb:33:2e:f9:57:b5, 2085-97-218 255:15:00:2058,-0.017,0.008,1.004,0.244,-0.732,-0.122,-0.247,0.5,-174.452
 15:09:04.884,eb:33:2e:f9:57:b5, 2085-97-220 255:14:00:2058,-0.018,0.008,1.004,0.122,-1.038,-0.122,-0.231,0.511,-174.446
 15:09:04.884,eb:33:2e:f9:57:b5, 2085-97-216 255:13:00:2064,-0.019,0.007,1.006,0.122,-1.465,-0.122,-0.231,0.511,-174.446
 15:09:04.943,eb:33:2e:f9:57:b5, 2085-113-58 00:197:254:-4965,-0.017,0.007,1.007,0,-2.075,0,-0.22,0.516,-174.446
 15:09:04.943,eb:33:2e:f9:57:b5, 2085-97-227 255:18:00:2058,-0.017,0.008,1.006,0,-2.197,0,-0.22,0.516,-174.446
 15:09:04.943,eb:33:2e:f9:57:b5, 2085-97-220 255:22:00:2066,-0.019,0.01,1.008,-0.183,-2.319,0.122,-0.209,0.522,-174.446
 15:09:04.943,eb:33:2e:f9:57:b5, 2085-97-219 255:14:00:2061,-0.014,0.008,1.007,-0.488,-2.686,0.061,-0.209,0.522,-174.446
 15:09:04.946,eb:33:2e:f9:57:b5, 2085-97-228 255:18:00:2060,-0.014,0.007,1.006,-0.488,-2.93,0.183,-0.214,0.511,-174.441
 15:09:04.946,eb:33:2e:f9:57:b5, 2085-97-227 255:14:00:2058,-0.014,0.007,1.005,-0.488,-3.052,0.244,-0.22,0.478,-174.441
 15:09:04.946,eb:33:2e:f9:57:b5, 2085-97-234 255:16:00:2056,-0.007,0.007,1.005,-0.488,-3.113,0.366,-0.225,0.45,-174.441
 15:09:04.946,eb:33:2e:f9:57:b5, 2085-97-241 255:16:00:2050,-0.006,0.008,1.002,-0.427,-2.747,0.488,-0.231,0.423,-174.435
 15:09:05.033,eb:33:2e:f9:57:b5, 2085-97-244 255:15:00:2048,-0.007,0.008,1.001,-0.427,-2.197,0.671,-0.231,0.396,-174.43
 15:09:05.033,eb:33:2e:f9:57:b5, 2085-97-244 255:14:00:2044,-0.004,0.007,1,-0.366,-1.648,0.793,-0.236,0.379,-174.419
 15:09:05.033,eb:33:2e:f9:57:b5, 2085-97-244 255:14:00:2045,-0.009,0.007,0.998,-0.366,-1.038,0.671,-0.242,0.368,-174.413
 15:09:05.033,eb:33:2e:f9:57:b5, 2085-97-238 255:11:00:2052,-0.009,0.005,1.001,-0.305,-0.61,0.732,-0.242,0.357,-174.408
 15:09:05.035,eb:33:2e:f9:57:b5, 2085-97-237 255:14:00:2053,-0.009,0.006,1.001,-0.183,-0.427,0.732,-0.247,0.357,-174.402
 15:09:05.035,eb:33:2e:f9:57:b5, 2085-97-239 255:12:00:2054,-0.009,0.006,1.003,-0.183,-0.244,0.61,-0.247,0.352,-174.397
 15:09:05.035,eb:33:2e:f9:57:b5, 2085-97-233 255:11:00:2056,-0.011,0.007,1.003,-0.122,-0.061,0.61,-0.253,0.352,-174.386
 15:09:05.035,eb:33:2e:f9:57:b5, 2085-97-235 255:17:00:2059,-0.008,0.007,1.005,-0.122,-0.122,0.488,-0.253,0.352,-174.38
 15:09:05.063,eb:33:2e:f9:57:b5, 2085-97-236 255:15:00:2057,-0.01,0.007,1.004,-0.305,0,0.427,-0.253,0.352,-174.38
 15:09:05.063,eb:33:2e:f9:57:b5, 2085-97-229 255:14:00:2060,-0.015,0.008,1.005,-0.549,0.122,0.305,-0.258,0.352,-174.375
 15:09:05.063,eb:33:2e:f9:57:b5, 2085-97-229 255:12:00:2059,-0.012,0.007,1.006,-0.61,-0.305,0.183,-0.264,0.352,-174.375
 15:09:05.063,eb:33:2e:f9:57:b5, 2085-97-232 255:08:00:2054,-0.011,0.005,1.003,-0.61,-0.549,0.061,-0.275,0.346,-174.37
 15:09:05.123,eb:33:2e:f9:57:b5, 2085-97-234 255:08:00:2049,-0.01,0.003,1.001,-0.427,-1.038,0,-0.28,0.341,-174.37
 15:09:05.123,eb:33:2e:f9:57:b5, 2085-97-235 255:10:00:2054,-0.013,0.004,1,-0.305,-1.221,-0.061,-0.28,0.33,-174.375
 15:09:05.123,eb:33:2e:f9:57:b5, 2085-97-226 255:12:00:2061,-0.015,0.006,1.005,-0.366,-1.526,-0.183,-0.286,0.319,-174.375
 15:09:05.123,eb:33:2e:f9:57:b5, 2085-97-229 255:09:00:2058,-0.009,0.004,1.006,-0.244,-2.197,-0.183,-0.291,0.297,-174.375
 15:09:05.154,eb:33:2e:f9:57:b5, 2085-97-241 255:11:00:2055,-0.007,0.004,1.003,-0.183,-2.441,-0.244,-0.291,0.275,-174.38
 15:09:05.154,eb:33:2e:f9:57:b5, 2085-97-246 255:12:00:2051,-0.004,0.005,1.003,-0.183,-2.38,-0.244,-0.291,0.253,-174.38
 15:09:05.154,eb:33:2e:f9:57:b5, 2085-97-247 255:12:00:2053,-0.005,0.005,1.002,-0.122,-2.136,-0.183,-0.297,0.231,-174.386
 15:09:05.154,eb:33:2e:f9:57:b5, 2085-97-243 255:12:00:2054,-0.005,0.007,1.003,-0.122,-1.831,-0.122,-0.297,0.22,-174.386
 15:09:05.184,eb:33:2e:f9:57:b5, 2085-97-247 255:15:00:2053,-0.005,0.007,1.002,-0.183,-1.77,-0.183,-0.28,0.225,-174.386
 15:09:05.184,eb:33:2e:f9:57:b5, 2085-97-244 255:12:00:2054,-0.007,0.006,1.003,-0.305,-1.526,-0.183,-0.28,0.225,-174.386
 15:09:05.184,eb:33:2e:f9:57:b5, 2085-97-243 255:12:00:2054,-0.004,0.005,1.003,-0.244,-1.465,-0.122,-0.269,0.236,-174.386
 15:09:05.184,eb:33:2e:f9:57:b5, 2085-97-245 255:12:00:2052,-0.006,0.005,1.002,-0.183,-1.465,-0.061,-0.269,0.236,-174.386
 15:09:05.244,eb:33:2e:f9:57:b5, 2085-97-246 255:10:00:2053,-0.004,0.005,1.003,-0.183,-1.404,-0.061,-0.258,0.242,-174.38
 15:09:05.244,eb:33:2e:f9:57:b5, 2085-97-248 255:10:00:2051,-0.004,0.005,1.001,-0.183,-1.343,-0.122,-0.258,0.242,-174.38
 15:09:05.244,eb:33:2e:f9:57:b5, 2085-97-246 255:10:00:2049,-0.005,0.004,1.001,-0.061,-1.282,-0.122,-0.247,0.242,-174.38
 15:09:05.244,eb:33:2e:f9:57:b5, 2085-97-247 255:10:00:2052,-0.004,0.005,1.001,0,-1.221,-0.061,-0.247,0.242,-174.38
 15:09:05.272,eb:33:2e:f9:57:b5, 2085-97-246 255:10:00:2056,-0.005,0.005,1.002,0,-1.16,-0.061,-0.242,0.247,-174.38
 15:09:05.272,eb:33:2e:f9:57:b5, 2085-97-248 255:12:00:2054,-0.003,0.005,1.004,0.061,-1.16,-0.061,-0.242,0.247,-174.38
 15:09:05.272,eb:33:2e:f9:57:b5, 2085-97-251 255:14:00:2052,-0.002,0.006,1.003,0.061,-1.099,-0.061,-0.231,0.253,-174.38
 15:09:05.272,eb:33:2e:f9:57:b5, 2085-97-254 255:13:00:2053,-0.001,0.006,1.002,0.061,-0.854,0,-0.231,0.253,-174.38
 15:09:05.302,eb:33:2e:f9:57:b5, 2085-97-251 255:12:00:2053,-0.003,0.006,1.002,0.061,-0.549,0,-0.225,0.253,-174.38
 15:09:05.302,eb:33:2e:f9:57:b5, 2085-97-249 255:12:00:2054,-0.003,0.006,1.003,0.061,-0.366,0,-0.225,0.253,-174.38
 15:09:05.302,eb:33:2e:f9:57:b5, 2085-97-250 255:13:00:2056,-0.002,0.006,1.003,0,-0.183,0,-0.22,0.253,-174.38
 15:09:05.302,eb:33:2e:f9:57:b5, 2085-97-249 255:12:00:2055,-0.003,0.006,1.003,0,-0.061,-0.061,-0.22,0.253,-174.38
 15:09:05.363,eb:33:2e:f9:57:b5, 2085-97-247 255:11:00:2054,-0.005,0.006,1.002,0,0,0,-0.214,0.258,-174.375
 15:09:05.364,eb:33:2e:f9:57:b5, 2085-97-246 255:12:00:2056,-0.007,0.005,1.003,0.061,0.061,0,-0.214,0.258,-174.38
 15:09:05.364,eb:33:2e:f9:57:b5, 2085-97-242 255:11:00:2057,-0.004,0.006,1.004,0.122,-0.061,0,-0.209,0.258,-174.375
 15:09:05.364,eb:33:2e:f9:57:b5, 2085-97-250 255:12:00:2057,-0.003,0.006,1.004,0,-0.244,0,-0.209,0.258,-174.38
 15:09:05.393,eb:33:2e:f9:57:b5, 2085-97-249 255:11:00:2055,-0.003,0.006,1.004,0,-0.183,0,-0.203,0.258,-174.375
 15:09:05.393,eb:33:2e:f9:57:b5, 2085-97-249 255:10:00:2055,-0.004,0.005,1.003,0,-0.122,0,-0.203,0.258,-174.375
 15:09:05.393,eb:33:2e:f9:57:b5, 2085-97-247 255:12:00:2056,-0.004,0.006,1.004,0.061,-0.183,0,-0.203,0.264,-174.375
 15:09:05.393,eb:33:2e:f9:57:b5, 2085-97-246 255:13:00:2057,-0.002,0.006,1.005,0.061,-0.122,0,-0.203,0.264,-174.375
 15:09:05.422,eb:33:2e:f9:57:b5, 2085-97-250 255:12:00:2056,-0.003,0.007,1.004,0,-0.061,0.061,-0.198,0.264,-174.375
 15:09:05.422,eb:33:2e:f9:57:b5, 2085-97-250 255:13:00:2055,-0.002,0.007,1.003,0,0.183,0.122,-0.198,0.264,-174.375
 15:09:05.422,eb:33:2e:f9:57:b5, 2085-97-254 255:15:00:2054,-0.002,0.007,1.003,-0.061,0.305,0.061,-0.192,0.264,-174.375
 15:09:05.422,eb:33:2e:f9:57:b5, 2085-97-245 255:14:00:2065,-0.004,0.006,1.003,-0.061,0.61,0.122,-0.192,0.264,-174.375
 15:09:05.482,eb:33:2e:f9:57:b5, 2085-97-249 255:16:00:2057,-0.004,0.008,1.007,-0.183,0.61,0.305,-0.187,0.264,-174.375
 15:09:05.482,eb:33:2e:f9:57:b5, 2085-97-247 255:13:00:2055,-0.007,0.006,1.004,-0.305,0.732,0.305,-0.187,0.264,-174.375
 15:09:05.482,eb:33:2e:f9:57:b5, 2085-97-239 255:10:00:2058,-0.006,0.005,1.005,-0.305,0.488,0.183,-0.187,0.264,-174.375
 15:09:05.482,eb:33:2e:f9:57:b5, 2085-97-243 255:08:00:2054,-0.007,0.005,1.003,-0.183,0.061,0.183,-0.187,0.264,-174.375
 15:09:05.512,eb:33:2e:f9:57:b5, 2085-97-242 255:09:00:2054,-0.007,0.004,1.003,-0.122,-0.061,0.183,-0.181,0.264,-174.375
 15:09:05.512,eb:33:2e:f9:57:b5, 2085-97-244 255:08:00:2056,-0.006,0.004,1.003,0,-0.488,0.122,-0.181,0.264,-174.375
 15:09:05.512,eb:33:2e:f9:57:b5, 2085-97-244 255:09:00:2058,-0.006,0.005,1.004,0,-0.671,0.122,-0.176,0.269,-174.375
 15:09:05.512,eb:33:2e:f9:57:b5, 2085-97-245 255:14:00:2059,-0.004,0.006,1.005,0.061,-0.916,0.183,-0.176,0.269,-174.375
 15:09:05.575,eb:33:2e:f9:57:b5, 2085-97-250 255:13:00:2056,-0.002,0.006,1.004,0,-0.977,0.122,-0.176,0.269,-174.375
 15:09:05.575,eb:33:2e:f9:57:b5, 2085-97-252 255:13:00:2055,-0.003,0.006,1.004,0,-0.793,0.183,-0.176,0.269,-174.375
 15:09:05.575,eb:33:2e:f9:57:b5, 2085-97-248 255:13:00:2056,-0.003,0.006,1.003,-0.061,-0.732,0.183,-0.17,0.269,-174.375
 15:09:05.575,eb:33:2e:f9:57:b5, 2085-97-252 255:13:00:2053,-0.002,0.007,1.002,-0.183,-0.671,0.122,-0.17,0.269,-174.375
 15:09:05.603,eb:33:2e:f9:57:b5, 2085-97-250 255:12:00:2053,-0.003,0.005,1.002,-0.122,-0.488,0.061,-0.17,0.269,-174.375
 15:09:05.603,eb:33:2e:f9:57:b5, 2085-97-249 255:12:00:2055,-0.005,0.006,1.003,-0.061,-0.427,0.122,-0.17,0.269,-174.375
 15:09:05.603,eb:33:2e:f9:57:b5, 2085-97-246 255:11:00:2057,-0.005,0.006,1.004,-0.061,-0.488,0.061,-0.165,0.269,-174.375
 15:09:05.603,eb:33:2e:f9:57:b5, 2085-97-247 255:09:00:2056,-0.004,0.005,1.004,-0.061,-0.61,0.061,-0.165,0.269,-174.375
 15:09:05.634,eb:33:2e:f9:57:b5, 2085-97-250 255:09:00:2055,-0.003,0.004,1.003,-0.061,-0.732,0.061,-0.165,0.269,-174.375
 15:09:05.634,eb:33:2e:f9:57:b5, 2085-97-252 255:11:00:2054,-0.002,0.004,1.002,-0.061,-0.671,0,-0.165,0.269,-174.375
 15:09:05.634,eb:33:2e:f9:57:b5, 2085-97-252 255:09:00:2052,-0.003,0.005,1.003,0,-0.671,0,-0.159,0.269,-174.375
 15:09:05.634,eb:33:2e:f9:57:b5, 2085-97-251 255:11:00:2052,0,0.005,1.002,0,-0.671,0,-0.159,0.269,-174.375
 15:09:05.692,eb:33:2e:f9:57:b5, 2085-97-254 255:12:00:2051,-0.001,0.005,1.001,0,-0.671,-0.061,-0.159,0.269,-174.375
 15:09:05.692,eb:33:2e:f9:57:b5, 2085-97-253 255:10:00:2054,-0.001,0.005,1.002,0,-0.549,-0.061,-0.159,0.269,-174.375
 15:09:05.692,eb:33:2e:f9:57:b5, 2085-97-254 255:10:00:2053,-0.001,0.005,1.003,0,-0.549,-0.061,-0.154,0.269,-174.375
 15:09:05.692,eb:33:2e:f9:57:b5, 2085-97-254 255:11:00:2056,-0.001,0.005,1.003,0,-0.488,0,-0.154,0.269,-174.375
 15:09:05.752,eb:33:2e:f9:57:b5, 2085-97-253 255:11:00:2053,-0.001,0.005,1.003,0,-0.305,0,-0.154,0.269,-174.375
 15:09:05.752,eb:33:2e:f9:57:b5, 2085-97-254 255:11:00:2054,-0.001,0.006,1.002,0,-0.122,0,-0.154,0.269,-174.375
 15:09:05.752,eb:33:2e:f9:57:b5, 2085-97-253 255:12:00:2055,-0.001,0.005,1.003,0,0,0,-0.148,0.269,-174.375
 15:09:05.752,eb:33:2e:f9:57:b5, 2085-97-254 255:12:00:2054,-0.002,0.006,1.003,0.122,0,0,-0.148,0.269,-174.375
 15:09:05.756,eb:33:2e:f9:57:b5, 2085-97-250 255:11:00:2056,-0.002,0.006,1.003,0,0.061,0,-0.148,0.269,-174.375
 15:09:05.756,eb:33:2e:f9:57:b5, 2085-97-251 255:11:00:2056,-0.002,0.005,1.003,0.061,0,0,-0.148,0.269,-174.375
 15:09:05.756,eb:33:2e:f9:57:b5, 2085-97-248 255:10:00:2056,-0.002,0.005,1.004,0.061,0,0,-0.143,0.269,-174.375
 15:09:05.757,eb:33:2e:f9:57:b5, 2085-97-253 255:11:00:2053,-0.002,0.005,1.003,0.122,-0.061,0,-0.143,0.269,-174.375
 15:09:05.814,eb:33:2e:f9:57:b5, 2085-97-255 255:12:00:2050,-0.001,0.005,1.002,0.122,-0.061,-0.122,-0.143,0.269,-174.375
 15:09:05.814,eb:33:2e:f9:57:b5, 2085-97-253 255:11:00:2054,-0.002,0.005,1.002,0.244,0,-0.122,-0.143,0.269,-174.375
 15:09:05.814,eb:33:2e:f9:57:b5, 2085-97-251 255:11:00:2058,-0.003,0.005,1.003,0.244,0,-0.061,-0.137,0.269,-174.375
 15:09:05.814,eb:33:2e:f9:57:b5, 2085-97-253 255:11:00:2059,-0.001,0.006,1.005,0.305,-0.061,-0.061,-0.137,0.269,-174.375
 15:09:05.842,eb:33:2e:f9:57:b5, 2085-97-254 255:14:00:2060,-0.002,0.006,1.005,0.183,-0.061,-0.061,-0.137,0.269,-174.375
 15:09:05.842,eb:33:2e:f9:57:b5, 2085-97-251 255:13:00:2058,-0.001,0.007,1.004,0.183,0,0,-0.137,0.269,-174.375
 15:09:05.842,eb:33:2e:f9:57:b5, 2085-97-253 255:11:00:2056,-0.003,0.006,1.005,0.061,0,0,-0.132,0.269,-174.375
 15:09:05.842,eb:33:2e:f9:57:b5, 2085-97-251 255:11:00:2055,-0.002,0.006,1.004,0.122,0,-0.061,-0.132,0.269,-174.375
 15:09:05.873,eb:33:2e:f9:57:b5, 2085-97-250 255:13:00:2059,-0.002,0.006,1.003,0.061,0.061,0,-0.132,0.269,-174.375
 15:09:05.873,eb:33:2e:f9:57:b5, 2085-97-254 255:15:00:2056,-0.001,0.007,1.005,0,0,0,-0.132,0.269,-174.375
 15:09:05.873,eb:33:2e:f9:57:b5, 2085-97-248 255:12:00:2056,-0.004,0.007,1.003,0,0.122,0,-0.126,0.264,-174.375
 15:09:05.873,eb:33:2e:f9:57:b5, 2085-113-81 00:71:06:103,-0.003,0.005,1.005,0,0,0,-0.126,0.264,-174.375
 15:09:05.873,eb:33:2e:f9:57:b5, 2085-97-251 255:10:00:2056,-0.002,0.006,1.004,0,-0.122,0.122,-0.126,0.264,-174.375
 15:09:05.963,eb:33:2e:f9:57:b5, 2085-97-251 255:12:00:2054,-0.002,0.006,1.003,0,-0.122,0.122,-0.126,0.264,-174.375
 15:09:05.963,eb:33:2e:f9:57:b5, 2085-97-251 255:12:00:2055,-0.003,0.006,1.003,0,-0.061,0.122,-0.126,0.264,-174.375
 15:09:05.963,eb:33:2e:f9:57:b5, 2085-97-252 255:11:00:2053,-0.001,0.005,1.003,0,-0.183,0.122,-0.121,0.264,-174.375
 15:09:05.963,eb:33:2e:f9:57:b5, 2085-97-253 255:12:00:2054,-0.001,0.006,1.003,0,-0.183,0.061,-0.121,0.264,-174.375
 15:09:05.965,eb:33:2e:f9:57:b5, 2085-97-251 255:13:00:2058,-0.002,0.006,1.004,0.061,-0.244,0.122,-0.121,0.264,-174.375
 15:09:05.965,eb:33:2e:f9:57:b5, 2085-97-250 255:15:00:2061,-0.003,0.007,1.006,0.061,-0.366,0.122,-0.121,0.264,-174.375
 15:09:05.965,eb:33:2e:f9:57:b5, 2085-97-252 255:15:00:2058,-0.001,0.008,1.006,-0.061,-0.366,0.183,-0.115,0.264,-174.375
 15:09:05.965,eb:33:2e:f9:57:b5, 2085-97-255 255:15:00:2054,0,0.008,1.004,-0.183,-0.183,0.183,-0.115,0.264,-174.375
 15:09:06.023,eb:33:2e:f9:57:b5, 2085-97-255 255:13:00:2053,-0.001,0.007,1.003,-0.183,0,0.244,-0.115,0.264,-174.375
 15:09:06.023,eb:33:2e:f9:57:b5, 2085-97-252 255:13:00:2053,-0.003,0.006,1.002,-0.244,0.061,0.244,-0.115,0.264,-174.375
 15:09:06.023,eb:33:2e:f9:57:b5, 2085-97-251 255:11:00:2055,-0.003,0.005,1.003,-0.183,0.061,0.122,-0.11,0.264,-174.375
 15:09:06.023,eb:33:2e:f9:57:b5, 2085-97-250 255:10:00:2057,-0.004,0.006,1.004,-0.122,0,0.122,-0.11,0.264,-174.375
 15:09:06.053,eb:33:2e:f9:57:b5, 2085-97-250 255:12:00:2057,-0.002,0.004,1.005,-0.122,-0.122,0.122,-0.11,0.264,-174.375
 15:09:06.053,eb:33:2e:f9:57:b5, 2085-97-253 255:11:00:2055,-0.001,0.005,1.004,-0.061,-0.305,0.122,-0.11,0.264,-174.375
 15:09:06.053,eb:33:2e:f9:57:b5, 2085-97-250 255:11:00:2056,-0.002,0.006,1.003,-0.122,-0.244,0.061,-0.11,0.258,-174.375
 15:09:06.053,eb:33:2e:f9:57:b5, 2085-97-255 255:13:00:2053,0,0.006,1.003,-0.061,-0.305,0,-0.11,0.258,-174.375
 15:09:06.084,eb:33:2e:f9:57:b5, 2085-97-00 00:12:00:2053,0,0.006,1.002,-0.061,-0.183,0.061,-0.104,0.258,-174.375
 15:09:06.084,eb:33:2e:f9:57:b5, 2085-97-255 255:13:00:2055,0,0.006,1.002,0,-0.061,0,-0.104,0.258,-174.375
 15:09:06.084,eb:33:2e:f9:57:b5, 2085-97-255 255:12:00:2054,-0.001,0.006,1.002,-0.061,0.061,0.061,-0.104,0.258,-174.375
 15:09:06.084,eb:33:2e:f9:57:b5, 2085-97-253 255:12:00:2055,-0.002,0.006,1.003,0,0.061,0.061,-0.104,0.258,-174.375
 15:09:06.113,eb:33:2e:f9:57:b5, 2085-97-252 255:11:00:2056,-0.002,0.006,1.004,0.061,0.122,0.122,-0.099,0.258,-174.375
 15:09:06.113,eb:33:2e:f9:57:b5, 2085-97-252 255:13:00:2056,0,0.006,1.003,0,0.061,0.061,-0.099,0.258,-174.38
 15:09:06.113,eb:33:2e:f9:57:b5, 2085-97-253 255:12:00:2055,-0.001,0.006,1.003,0,0.061,0.061,-0.099,0.258,-174.38
 15:09:06.113,eb:33:2e:f9:57:b5, 2085-97-252 255:11:00:2054,-0.002,0.006,1.003,0,0.122,0.061,-0.099,0.258,-174.38
 15:09:06.172,eb:33:2e:f9:57:b5, 2085-97-254 255:11:00:2056,-0.001,0.006,1.003,0,0.183,0.061,-0.093,0.258,-174.38
 15:09:06.172,eb:33:2e:f9:57:b5, 2085-97-253 255:12:00:2056,-0.001,0.006,1.003,0,0.122,0.061,-0.093,0.258,-174.38
 15:09:06.172,eb:33:2e:f9:57:b5, 2085-97-251 255:13:00:2056,-0.003,0.006,1.003,0,0.061,0.183,-0.093,0.258,-174.38
 15:09:06.172,eb:33:2e:f9:57:b5, 2085-97-251 255:13:00:2056,-0.002,0.006,1.004,0,0,0.061,-0.093,0.258,-174.38
 15:09:06.234,eb:33:2e:f9:57:b5, 2085-97-250 255:13:00:2056,-0.001,0.006,1.003,0,0,0.122,-0.088,0.253,-174.38
 15:09:06.234,eb:33:2e:f9:57:b5, 2085-97-254 255:14:00:2055,-0.001,0.007,1.004,0,0,0.061,-0.088,0.253,-174.38
 15:09:06.234,eb:33:2e:f9:57:b5, 2085-97-252 255:10:00:2057,-0.002,0.006,1.003,-0.061,0.061,0.061,-0.088,0.253,-174.38
 15:09:06.234,eb:33:2e:f9:57:b5, 2085-97-251 255:13:00:2058,-0.001,0.006,1.005,-0.061,0.061,0.183,-0.088,0.253,-174.38
 15:09:06.234,eb:33:2e:f9:57:b5, 2085-97-254 255:12:00:2055,-0.001,0.006,1.003,-0.061,0.122,0.122,-0.088,0.253,-174.38
 15:09:06.234,eb:33:2e:f9:57:b5, 2085-97-252 255:13:00:2055,-0.003,0.006,1.003,0,0.183,0.244,-0.088,0.253,-174.38
 15:09:06.234,eb:33:2e:f9:57:b5, 2085-97-250 255:12:00:2053,-0.003,0.005,1.003,-0.061,0.061,0.183,-0.082,0.253,-174.38
 15:09:06.234,eb:33:2e:f9:57:b5, 2085-97-250 255:10:00:2055,-0.003,0.005,1.003,0,0,0.122,-0.082,0.253,-174.38
 15:09:06.383,eb:33:2e:f9:57:b5, 2085-97-249 255:10:00:2059,-0.002,0.005,1.004,0,-0.122,0.183,-0.082,0.253,-174.38
 15:09:06.383,eb:33:2e:f9:57:b5, 2085-97-252 255:14:00:2059,-0.001,0.007,1.006,0,-0.183,0.183,-0.082,0.253,-174.38
 15:09:06.383,eb:33:2e:f9:57:b5, 2085-97-253 255:12:00:2056,-0.001,0.006,1.004,-0.122,-0.122,0.244,-0.077,0.253,-174.38
 15:09:06.383,eb:33:2e:f9:57:b5, 2085-97-253 255:12:00:2055,-0.002,0.005,1.004,-0.183,-0.122,0.244,-0.077,0.253,-174.38
 15:09:06.383,eb:33:2e:f9:57:b5, 2085-97-250 255:13:00:2058,-0.002,0.006,1.004,-0.122,-0.122,0.305,-0.077,0.247,-174.38
 15:09:06.383,eb:33:2e:f9:57:b5, 2085-97-252 255:13:00:2058,0,0.007,1.005,-0.122,-0.183,0.366,-0.077,0.247,-174.38
 15:09:06.383,eb:33:2e:f9:57:b5, 2085-97-255 255:13:00:2056,-0.001,0.007,1.004,-0.183,-0.122,0.427,-0.071,0.247,-174.38
 15:09:06.384,eb:33:2e:f9:57:b5, 2085-97-252 255:13:00:2056,-0.002,0.006,1.004,-0.183,-0.122,0.366,-0.071,0.247,-174.38
 15:09:06.386,eb:33:2e:f9:57:b5, 2085-97-252 255:11:00:2056,-0.002,0.006,1.003,-0.122,-0.244,0.427,-0.071,0.247,-174.38
 15:09:06.386,eb:33:2e:f9:57:b5, 2085-97-252 255:11:00:2057,-0.001,0.006,1.004,-0.122,-0.244,0.305,-0.071,0.247,-174.38
 15:09:06.386,eb:33:2e:f9:57:b5, 2085-97-254 255:11:00:2056,-0.001,0.006,1.005,-0.183,-0.305,0.305,-0.071,0.247,-174.38
 15:09:06.386,eb:33:2e:f9:57:b5, 2085-97-253 255:13:00:2056,-0.001,0.005,1.004,-0.122,-0.305,0.305,-0.071,0.247,-174.38
 15:09:06.413,eb:33:2e:f9:57:b5, 2085-97-252 255:13:00:2057,-0.001,0.006,1.004,-0.183,-0.305,0.366,-0.066,0.247,-174.38
 15:09:06.413,eb:33:2e:f9:57:b5, 2085-97-254 255:12:00:2053,0,0.006,1.003,-0.122,-0.366,0.305,-0.066,0.247,-174.38
 15:09:06.413,eb:33:2e:f9:57:b5, 2085-97-00 00:14:00:2053,0,0.006,1.003,-0.122,-0.366,0.244,-0.066,0.242,-174.38
 15:09:06.413,eb:33:2e:f9:57:b5, 2085-97-254 255:11:00:2053,0,0.005,1.003,-0.183,-0.183,0.305,-0.066,0.242,-174.38
 15:09:06.444,eb:33:2e:f9:57:b5, 2085-97-00 00:11:00:2053,-0.001,0.004,1.002,-0.183,-0.122,0.244,-0.06,0.242,-174.38
 15:09:06.444,eb:33:2e:f9:57:b5, 2085-97-253 255:10:00:2055,-0.001,0.006,1.003,-0.122,-0.122,0.183,-0.06,0.242,-174.38
 15:09:06.444,eb:33:2e:f9:57:b5, 2085-97-252 255:11:00:2055,-0.002,0.004,1.003,0,-0.183,0.122,-0.06,0.242,-174.38
 15:09:06.444,eb:33:2e:f9:57:b5, 2085-113-81 00:72:06:097,-0.001,0.006,1.004,-0.061,-0.305,0.061,-0.06,0.242,-174.37
 15:09:06.474,eb:33:2e:f9:57:b5, 2085-97-254 255:11:00:2055,0,0.006,1.004,0,-0.305,0.061,-0.022,0.225,-174.375
 15:09:06.474,eb:33:2e:f9:57:b5, 2085-97-254 255:13:00:2056,0,0.005,1.004,0,-0.244,0.122,-0.022,0.225,-174.364
 15:09:06.474,eb:33:2e:f9:57:b5, 2085-97-00 00:14:00:2056,0,0.006,1.003,0,-0.183,0.122,-0.022,0.22,-174.364
 15:09:06.474,eb:33:2e:f9:57:b5, 2085-97-251 255:14:00:2057,0,0.006,1.003,0,-0.061,0.122,-0.022,0.22,-174.353
 15:09:06.533,eb:33:2e:f9:57:b5, 2085-97-00 00:09:00:2054,0,0.007,1.002,0,0,0.122,-0.016,0.22,-174.353
 15:09:06.533,eb:33:2e:f9:57:b5, 2085-97-253 255:13:00:2057,-0.001,0.005,1.003,0.061,0.061,0.122,-0.016,0.214,-174.342
 15:09:06.533,eb:33:2e:f9:57:b5, 2085-97-00 00:12:00:2056,0,0.005,1.005,0,0.061,0.122,-0.016,0.214,-174.342
 15:09:06.533,eb:33:2e:f9:57:b5, 2085-97-255 255:14:00:2056,-0.001,0.006,1.003,0.061,0.183,0.122,-0.016,0.214,-174.331
 15:09:06.562,eb:33:2e:f9:57:b5, 2085-97-252 255:09:00:2058,-0.002,0.005,1.004,0,0.122,0.122,-0.011,0.214,-174.331
 15:09:06.562,eb:33:2e:f9:57:b5, 2085-97-251 255:10:00:2057,-0.002,0.005,1.005,0,0.061,0.061,-0.011,0.214,-174.32
 15:09:06.562,eb:33:2e:f9:57:b5, 2085-97-253 255:10:00:2052,0,0.004,1.003,0,-0.061,0,-0.011,0.209,-174.326
 15:09:06.562,eb:33:2e:f9:57:b5, 2085-97-00 00:11:00:2053,0,0.005,1.002,0.061,-0.122,0,-0.011,0.209,-174.315
 15:09:06.593,eb:33:2e:f9:57:b5, 2085-97-254 255:09:00:2053,-0.001,0.005,1.002,0.122,0,0,-0.011,0.209,-174.315
 15:09:06.593,eb:33:2e:f9:57:b5, 2085-97-255 255:11:00:2052,0,0.004,1.002,0.122,0,-0.122,-0.011,0.209,-174.304
 15:09:06.593,eb:33:2e:f9:57:b5, 2085-97-255 255:12:00:2053,0,0.006,1.002,0.122,0,-0.061,-0.011,0.209,-174.304
 15:09:06.593,eb:33:2e:f9:57:b5, 2085-97-254 255:12:00:2057,-0.001,0.006,1.003,0.244,0,-0.122,-0.011,0.209,-174.293
 15:09:06.682,eb:33:2e:f9:57:b5, 2085-97-254 255:11:00:2054,-0.001,0.006,1.004,0.244,-0.061,-0.183,-0.011,0.203,-174.293
 15:09:06.682,eb:33:2e:f9:57:b5, 2085-97-00 00:11:00:2054,-0.001,0.005,1.003,0.366,-0.061,-0.122,-0.011,0.203,-174.282
 15:09:06.682,eb:33:2e:f9:57:b5, 2085-97-253 255:12:00:2054,0.002,0.005,1.003,0.305,-0.061,-0.122,-0.011,0.203,-174.282
 15:09:06.682,eb:33:2e:f9:57:b5, 2085-97-00 00:11:00:2051,0,0.006,1,0.305,-0.061,-0.183,-0.011,0.203,-174.271
 15:09:06.684,eb:33:2e:f9:57:b5, 2085-97-00 00:13:00:2055,0,0.006,1.002,0.305,-0.061,-0.305,-0.005,0.198,-174.276
 15:09:06.684,eb:33:2e:f9:57:b5, 2085-97-254 255:15:00:2061,-0.001,0.007,1.005,0.305,0,-0.183,-0.011,0.198,-174.265
 15:09:06.684,eb:33:2e:f9:57:b5, 2085-97-255 255:16:00:2062,0,0.008,1.006,0.244,0.122,-0.061,-0.005,0.198,-174.265
 15:09:06.684,eb:33:2e:f9:57:b5, 2085-97-00 00:15:00:2056,0,0.008,1.004,0.061,0.366,-0.061,-0.005,0.198,-174.254
 15:09:06.713,eb:33:2e:f9:57:b5, 2085-97-00 00:12:00:2054,-0.002,0.006,1.003,0.061,0.427,0,-0.005,0.198,-174.254
 15:09:06.713,eb:33:2e:f9:57:b5, 2085-97-251 255:14:00:2057,-0.003,0.006,1.003,0.061,0.488,0,-0.005,0.192,-174.243
 15:09:06.713,eb:33:2e:f9:57:b5, 2085-97-252 255:12:00:2058,-0.001,0.006,1.005,0.122,0.305,0.061,0,0.192,-174.243
 15:09:06.713,eb:33:2e:f9:57:b5, 2085-97-253 255:12:00:2057,-0.002,0.006,1.004,0.122,0.366,0.061,0,0.192,-174.238
 15:09:06.773,eb:33:2e:f9:57:b5, 2085-97-253 255:12:00:2056,0,0.006,1.004,0.122,0.305,0.061,0,0.192,-174.238
 15:09:06.773,eb:33:2e:f9:57:b5, 2085-97-255 255:12:00:2054,-0.001,0.006,1.002,0.122,0.183,0,0,0.192,-174.227
 15:09:06.773,eb:33:2e:f9:57:b5, 2085-97-253 255:13:00:2057,-0.002,0.007,1.003,0.183,0.305,0,0,0.192,-174.227
 15:09:06.773,eb:33:2e:f9:57:b5, 2085-97-251 255:15:00:2058,-0.001,0.006,1.004,0.183,0.244,0.061,0,0.187,-174.216
 15:09:06.803,eb:33:2e:f9:57:b5, 2085-97-252 255:13:00:2056,-0.001,0.006,1.003,0.244,0.244,0,0.005,0.187,-174.216
 15:09:06.803,eb:33:2e:f9:57:b5, 2085-97-251 255:14:00:2056,-0.001,0.006,1.004,0.244,0.244,0,0.005,0.187,-174.21
 15:09:06.803,eb:33:2e:f9:57:b5, 2085-97-00 00:12:00:2053,-0.001,0.007,1.004,0.183,0.183,0,0.005,0.187,-174.21
 15:09:06.803,eb:33:2e:f9:57:b5, 2085-97-251 255:14:00:2058,0,0.005,1.004,0.244,0.183,0.061,0.005,0.187,-174.199
 15:09:06.832,eb:33:2e:f9:57:b5, 2085-97-253 255:13:00:2058,-0.002,0.007,1.003,0.183,0.183,0,0.005,0.187,-174.199
 15:09:06.832,eb:33:2e:f9:57:b5, 2085-97-252 255:13:00:2058,-0.001,0.007,1.004,0.183,0.122,0,0.005,0.181,-174.194
 15:09:06.832,eb:33:2e:f9:57:b5, 2085-97-00 00:16:00:2055,0,0.007,1.004,0.122,0.122,0,0.011,0.181,-174.194
 15:09:06.832,eb:33:2e:f9:57:b5, 2085-97-254 255:15:00:2056,-0.002,0.008,1.002,0.183,0.244,0,0.011,0.181,-174.183
 15:09:06.893,eb:33:2e:f9:57:b5, 2085-97-249 255:12:00:2056,-0.002,0.007,1.003,0.183,0.183,-0.061,0.011,0.181,-174.183
 15:09:06.893,eb:33:2e:f9:57:b5, 2085-97-252 255:13:00:2053,-0.002,0.007,1.003,0.183,0.061,-0.061,0.011,0.181,-174.172
 15:09:06.893,eb:33:2e:f9:57:b5, 2085-97-250 255:13:00:2057,-0.002,0.006,1.004,0.183,0.061,-0.122,0.011,0.181,-174.172
 15:09:06.893,eb:33:2e:f9:57:b5, 2085-97-252 255:14:00:2056,-0.002,0.007,1.004,0.305,-0.061,-0.122,0.011,0.176,-174.166
 15:09:06.923,eb:33:2e:f9:57:b5, 2085-97-253 255:15:00:2056,-0.002,0.007,1.004,0.244,-0.061,-0.183,0.016,0.176,-174.166
 15:09:06.923,eb:33:2e:f9:57:b5, 2085-97-252 255:14:00:2055,-0.001,0.007,1.004,0.366,-0.122,-0.183,0.016,0.176,-174.155
 15:09:06.923,eb:33:2e:f9:57:b5, 2085-97-252 255:16:00:2055,-0.001,0.007,1.003,0.305,-0.122,-0.122,0.016,0.176,-174.155
 15:09:06.923,eb:33:2e:f9:57:b5, 2085-97-00 00:16:00:2053,0,0.008,1.002,0.366,-0.122,-0.122,0.016,0.176,-174.15
 15:09:06.953,eb:33:2e:f9:57:b5, 2085-97-00 00:18:00:2056,0,0.008,1.003,0.305,0,-0.122,0.022,0.176,-174.15
 15:09:06.953,eb:33:2e:f9:57:b5, 2085-97-255 255:17:00:2056,0,0.008,1.004,0.305,0.122,-0.061,0.022,0.176,-174.139
 15:09:06.953,eb:33:2e:f9:57:b5, 2085-97-255 255:18:00:2056,0,0.009,1.003,0.244,0.366,-0.061,0.022,0.17,-174.139
 15:09:06.953,eb:33:2e:f9:57:b5, 2085-97-00 00:17:00:2057,0,0.008,1.003,0.183,0.488,0,0.022,0.17,-174.133
 15:09:07.016,eb:33:2e:f9:57:b5, 2085-97-253 255:18:00:2056,-0.002,0.009,1.004,0.122,0.549,0,0.022,0.17,-174.133
 15:09:07.016,eb:33:2e:f9:57:b5, 2085-97-251 255:16:00:2056,-0.003,0.008,1.004,0.122,0.61,0,0.022,0.17,-174.122
 15:09:07.016,eb:33:2e:f9:57:b5, 2085-97-250 255:16:00:2055,-0.003,0.008,1.004,0.122,0.549,0,0.027,0.17,-174.122
 15:09:07.016,eb:33:2e:f9:57:b5, 2085-97-250 255:16:00:2058,-0.002,0.008,1.005,0.183,0.366,-0.061,0.027,0.17,-174.117
 15:09:07.043,eb:33:2e:f9:57:b5, 2085-97-251 255:15:00:2056,-0.003,0.007,1.004,0.122,0.244,-0.061,0.027,0.165,-174.117
 15:09:07.043,eb:33:2e:f9:57:b5, 2085-97-249 255:17:00:2058,-0.004,0.007,1.004,0.061,0.122,0,0.027,0.165,-174.106
 15:09:07.043,eb:33:2e:f9:57:b5, 2085-97-248 255:15:00:2059,-0.002,0.009,1.005,0.122,0,0,0.033,0.165,-174.106
 15:09:07.043,eb:33:2e:f9:57:b5, 2085-97-251 255:16:00:2055,-0.003,0.007,1.004,0.061,-0.122,0,0.033,0.165,-174.1
 15:09:07.104,eb:33:2e:f9:57:b5, 2085-97-251 255:17:00:2056,-0.003,0.008,1.003,0.122,-0.122,0,0.033,0.165,-174.1
 15:09:07.104,eb:33:2e:f9:57:b5, 2085-97-250 255:16:00:2057,-0.003,0.007,1.004,0.061,-0.122,0,0.033,0.165,-174.089
 15:09:07.104,eb:33:2e:f9:57:b5, 2085-113-81 00:151:06:076,-0.002,0.009,1.006,0.122,-0.244,0,0.038,0.165,-174.089
 15:09:07.104,eb:33:2e:f9:57:b5, 2085-97-255 255:20:00:2056,0,0.009,1.005,0.061,-0.183,0,0.038,0.165,-174.089
 15:09:07.104,eb:33:2e:f9:57:b5, 2085-97-253 255:17:00:2054,-0.001,0.009,1.002,0,-0.061,0.061,0.033,0.165,-174.084
 15:09:07.163,eb:33:2e:f9:57:b5, 2085-97-254 255:17:00:2054,-0.001,0.008,1.003,0.061,0,0,0.038,0.165,-174.084
 15:09:07.163,eb:33:2e:f9:57:b5, 2085-97-253 255:17:00:2055,-0.002,0.008,1.003,0.061,0,0,0.038,0.159,-174.078
 15:09:07.163,eb:33:2e:f9:57:b5, 2085-97-253 255:18:00:2054,-0.002,0.008,1.003,0.061,0,0.061,0.038,0.159,-174.078
 15:09:07.163,eb:33:2e:f9:57:b5, 2085-97-252 255:16:00:2055,-0.002,0.009,1.003,0.122,0.061,0.061,0.038,0.159,-174.067
 15:09:07.165,eb:33:2e:f9:57:b5, 2085-97-252 255:16:00:2055,-0.002,0.008,1.003,0.061,0.061,0.122,0.044,0.159,-174.067
 15:09:07.165,eb:33:2e:f9:57:b5, 2085-97-251 255:16:00:2055,-0.002,0.007,1.003,0.122,0.183,0,0.044,0.159,-174.062
 15:09:07.165,eb:33:2e:f9:57:b5, 2085-97-250 255:16:00:2055,-0.002,0.008,1.003,0.122,0.122,0.122,0.044,0.159,-174.062
 15:09:07.165,eb:33:2e:f9:57:b5, 2085-97-250 255:16:00:2055,-0.003,0.008,1.004,0.183,0.122,0.122,0.044,0.159,-174.051
 15:09:07.223,eb:33:2e:f9:57:b5, 2085-97-250 255:17:00:2057,-0.003,0.008,1.003,0.183,0.244,0.122,0.049,0.159,-174.051
 15:09:07.223,eb:33:2e:f9:57:b5, 2085-97-249 255:17:00:2056,-0.002,0.008,1.004,0.244,0.244,0.122,0.049,0.154,-174.045
 15:09:07.223,eb:33:2e:f9:57:b5, 2085-97-252 255:15:00:2052,-0.003,0.008,1.003,0.305,0.183,0.183,0.049,0.154,-174.045
 15:09:07.223,eb:33:2e:f9:57:b5, 2085-97-249 255:18:00:2055,-0.003,0.007,1.003,0.366,0.183,0.122,0.049,0.154,-174.04
 15:09:07.253,eb:33:2e:f9:57:b5, 2085-97-255 255:19:00:2053,0,0.008,1.003,0.305,0.061,0.122,0.049,0.154,-174.04
 15:09:07.253,eb:33:2e:f9:57:b5, 2085-97-250 255:19:00:2055,-0.002,0.01,1.002,0.183,0.244,0.122,0.049,0.154,-174.029
 15:09:07.253,eb:33:2e:f9:57:b5, 2085-97-253 255:18:00:2051,0,0.009,1.003,0.183,0.244,0,0.055,0.154,-174.029
 15:09:07.253,eb:33:2e:f9:57:b5, 2085-97-00 00:17:00:2050,-0.003,0.009,1,0.183,0.427,0.061,0.055,0.154,-174.023
 15:09:07.285,eb:33:2e:f9:57:b5, 2085-97-248 255:18:00:2055,-0.001,0.009,1.003,0.244,0.61,0.061,0.055,0.154,-174.023
 15:09:07.285,eb:33:2e:f9:57:b5, 2085-97-255 255:18:00:2049,-0.002,0.009,1,0.244,0.488,0,0.055,0.154,-174.018
 15:09:07.285,eb:33:2e:f9:57:b5, 2085-97-247 255:17:00:2059,-0.006,0.009,1.003,0.305,0.61,0,0.06,0.148,-174.018
 15:09:07.285,eb:33:2e:f9:57:b5, 2085-97-246 255:19:00:2059,-0.004,0.009,1.007,0.183,0.305,0,0.06,0.148,-174.007
 15:09:07.344,eb:33:2e:f9:57:b5, 2085-97-254 255:19:00:2053,-0.002,0.009,1.005,0.122,0.122,-0.061,0.06,0.148,-174.007
 15:09:07.344,eb:33:2e:f9:57:b5, 2085-97-249 255:18:00:2055,-0.001,0.009,1.002,0.183,0.244,0,0.06,0.148,-174.001
 15:09:07.344,eb:33:2e:f9:57:b5, 2085-97-254 255:17:00:2051,-0.002,0.009,1.001,0.244,0.244,0,0.066,0.148,-174.001
 15:09:07.344,eb:33:2e:f9:57:b5, 2085-97-250 255:20:00:2053,-0.002,0.01,1.002,0.183,0.427,0,0.066,0.148,-173.996
 15:09:07.374,eb:33:2e:f9:57:b5, 2085-97-250 255:20:00:2056,-0.004,0.01,1.002,0.183,0.488,-0.061,0.066,0.148,-173.996
 15:09:07.374,eb:33:2e:f9:57:b5, 2085-97-248 255:19:00:2059,-0.003,0.01,1.004,0.183,0.488,0,0.066,0.148,-173.99
 15:09:07.374,eb:33:2e:f9:57:b5, 2085-97-251 255:22:00:2056,-0.002,0.01,1.004,0.183,0.549,0,0.066,0.148,-173.99
 15:09:07.374,eb:33:2e:f9:57:b5, 2085-97-253 255:21:00:2055,-0.001,0.01,1.004,0.183,0.732,0,0.066,0.148,-173.979
 15:09:07.404,eb:33:2e:f9:57:b5, 2085-97-252 255:19:00:2055,-0.001,0.01,1.004,0.061,0.977,0.061,0.071,0.143,-173.979
 15:09:07.404,eb:33:2e:f9:57:b5, 2085-97-251 255:20:00:2054,-0.003,0.01,1.003,0.061,1.282,0.122,0.071,0.143,-173.974
 15:09:07.404,eb:33:2e:f9:57:b5, 2085-97-249 255:21:00:2053,-0.005,0.011,1.004,0.061,1.343,0.061,0.071,0.143,-173.974
 15:09:07.404,eb:33:2e:f9:57:b5, 2085-97-241 255:17:00:2058,-0.008,0.009,1.003,0,1.282,0.122,0.071,0.143,-173.969
 15:09:07.464,eb:33:2e:f9:57:b5, 2085-97-240 255:19:00:2057,-0.008,0.01,1.004,0,0.916,0,0.077,0.143,-173.969
 15:09:07.464,eb:33:2e:f9:57:b5, 2085-97-240 255:20:00:2058,-0.007,0.009,1.004,0,0.549,0,0.077,0.143,-173.963
 15:09:07.464,eb:33:2e:f9:57:b5, 2085-97-242 255:19:00:2059,-0.006,0.01,1.005,0.061,0.244,0,0.077,0.143,-173.963
 15:09:07.464,eb:33:2e:f9:57:b5, 2085-97-244 255:21:00:2060,-0.006,0.009,1.005,0.183,0,0,0.077,0.143,-173.952
 15:09:07.553,eb:33:2e:f9:57:b5, 2085-97-243 255:17:00:2055,-0.004,0.009,1.006,0.122,-0.122,0,0.082,0.143,-173.952
 15:09:07.553,eb:33:2e:f9:57:b5, 2085-97-248 255:20:00:2055,-0.004,0.009,1.002,0.244,-0.122,0,0.082,0.143,-173.947
 15:09:07.553,eb:33:2e:f9:57:b5, 2085-97-246 255:21:00:2057,-0.002,0.011,1.004,0.244,0,0,0.082,0.143,-173.947
 15:09:07.553,eb:33:2e:f9:57:b5, 2085-97-255 255:24:00:2051,0,0.012,1.004,0.122,0.061,0,0.082,0.143,-173.941
 15:09:07.554,eb:33:2e:f9:57:b5, 2085-97-253 255:22:00:2051,-0.002,0.011,1,0.061,0.61,0,0.088,0.143,-173.941
 15:09:07.554,eb:33:2e:f9:57:b5, 2085-97-249 255:23:00:2054,-0.006,0.011,1.002,0,0.977,0.061,0.088,0.143,-173.936
 15:09:07.554,eb:33:2e:f9:57:b5, 2085-97-244 255:22:00:2058,-0.006,0.011,1.005,0,1.099,0.061,0.088,0.143,-173.93
 15:09:07.554,eb:33:2e:f9:57:b5, 2085-97-240 255:19:00:2059,-0.008,0.01,1.005,0,1.099,0.061,0.088,0.143,-173.925
 15:09:07.585,eb:33:2e:f9:57:b5, 2085-97-241 255:20:00:2061,-0.007,0.01,1.005,-0.061,0.916,0.061,0.093,0.143,-173.925
 15:09:07.585,eb:33:2e:f9:57:b5, 2085-97-241 255:16:00:2054,-0.008,0.009,1.004,-0.061,0.732,0.061,0.093,0.143,-173.919
 15:09:07.585,eb:33:2e:f9:57:b5, 2085-97-241 255:18:00:2053,-0.007,0.008,1.002,0.061,0.488,0,0.093,0.143,-173.919
 15:09:07.585,eb:33:2e:f9:57:b5, 2085-97-242 255:18:00:2055,-0.008,0.009,1.002,0.122,0.244,0,0.093,0.143,-173.914
 15:09:07.642,eb:33:2e:f9:57:b5, 2085-97-241 255:20:00:2057,-0.005,0.009,1.005,0.122,0.061,0,0.099,0.143,-173.914
 15:09:07.642,eb:33:2e:f9:57:b5, 2085-97-246 255:21:00:2053,-0.004,0.01,1.003,0.183,0,0,0.099,0.143,-173.908
 15:09:07.642,eb:33:2e:f9:57:b5, 2085-97-248 255:22:00:2055,-0.004,0.01,1.003,0.244,0.183,0,0.099,0.143,-173.908
 15:09:07.642,eb:33:2e:f9:57:b5, 2085-97-247 255:23:00:2053,-0.004,0.011,1.003,0.183,0.366,0.061,0.099,0.143,-173.897
 15:09:07.645,eb:33:2e:f9:57:b5, 2085-97-246 255:22:00:2057,-0.004,0.01,1.004,0.122,0.61,0.122,0.104,0.143,-173.897
 15:09:07.645,eb:33:2e:f9:57:b5, 2085-97-247 255:22:00:2054,-0.005,0.011,1.003,0.061,0.793,0.122,0.104,0.143,-173.892
 15:09:07.645,eb:33:2e:f9:57:b5, 2085-97-243 255:22:00:2055,-0.007,0.011,1.003,0.061,1.038,0.183,0.104,0.143,-173.892
 15:09:07.645,eb:33:2e:f9:57:b5, 2085-97-241 255:21:00:2055,-0.007,0.011,1.004,0,1.038,0.183,0.104,0.143,-173.886
 15:09:07.704,eb:33:2e:f9:57:b5, 2085-97-243 255:22:00:2055,-0.007,0.01,1.003,0,1.038,0.183,0.11,0.143,-173.886
 15:09:07.704,eb:33:2e:f9:57:b5, 2085-97-236 255:20:00:2056,-0.006,0.011,1.003,-0.061,0.916,0.183,0.11,0.143,-173.881
 15:09:07.704,eb:33:2e:f9:57:b5, 2085-97-242 255:19:00:2052,-0.007,0.011,1.002,-0.061,0.793,0.122,0.11,0.143,-173.881
 15:09:07.704,eb:33:2e:f9:57:b5, 2085-97-242 255:21:00:2052,-0.007,0.009,1.003,-0.061,0.732,0.061,0.11,0.143,-173.875
 15:09:07.734,eb:33:2e:f9:57:b5, 2085-113-81 00:214:06:071,-0.007,0.009,1.001,0,0.61,0,0.115,0.143,-173.875
 15:09:07.734,eb:33:2e:f9:57:b5, 2085-97-240 255:20:00:2053,-0.008,0.008,1.001,0.061,0.671,0,0.11,0.143,-173.864
 15:09:07.734,eb:33:2e:f9:57:b5, 2085-97-238 255:19:00:2054,-0.008,0.009,1.003,0.183,0.549,0,0.115,0.143,-173.864
 15:09:07.734,eb:33:2e:f9:57:b5, 2085-97-239 255:21:00:2055,-0.007,0.01,1.004,0.244,0.427,0,0.115,0.143,-173.859
 15:09:07.763,eb:33:2e:f9:57:b5, 2085-97-243 255:20:00:2054,-0.007,0.01,1.003,0.183,0.366,-0.122,0.115,0.143,-173.859
 15:09:07.763,eb:33:2e:f9:57:b5, 2085-97-241 255:24:00:2055,-0.006,0.011,1.004,0.122,0.488,0,0.115,0.143,-173.853
 15:09:07.763,eb:33:2e:f9:57:b5, 2085-97-248 255:23:00:2049,-0.003,0.011,1.003,0.061,0.671,-0.061,0.121,0.143,-173.853
 15:09:07.763,eb:33:2e:f9:57:b5, 2085-97-247 255:20:00:2048,-0.006,0.01,1.001,0.122,1.099,0,0.121,0.143,-173.848
 15:09:07.822,eb:33:2e:f9:57:b5, 2085-97-240 255:21:00:2052,-0.008,0.01,1,0.305,1.465,0,0.121,0.143,-173.848
 15:09:07.822,eb:33:2e:f9:57:b5, 2085-97-235 255:22:00:2058,-0.012,0.011,1.003,0.305,1.465,0,0.121,0.143,-173.842
 15:09:07.822,eb:33:2e:f9:57:b5, 2085-97-231 255:23:00:2060,-0.012,0.011,1.006,0.244,1.282,0,0.126,0.143,-173.842
 15:09:07.822,eb:33:2e:f9:57:b5, 2085-97-232 255:20:00:2058,-0.011,0.011,1.006,0.244,0.916,0,0.126,0.143,-173.831
 15:09:07.883,eb:33:2e:f9:57:b5, 2085-97-235 255:22:00:2057,-0.012,0.011,1.005,0.244,0.793,-0.061,0.126,0.143,-173.831
 15:09:07.883,eb:33:2e:f9:57:b5, 2085-97-232 255:21:00:2062,-0.011,0.01,1.005,0.183,0.61,0,0.126,0.143,-173.826
 15:09:07.883,eb:33:2e:f9:57:b5, 2085-97-234 255:24:00:2060,-0.011,0.012,1.007,0.183,0.427,0,0.132,0.148,-173.826
 15:09:07.883,eb:33:2e:f9:57:b5, 2085-97-235 255:24:00:2058,-0.01,0.012,1.005,0.122,0.244,0.061,0.132,0.143,-173.82
 15:09:07.885,eb:33:2e:f9:57:b5, 2085-97-236 255:24:00:2058,-0.009,0.011,1.005,0.061,0.244,0.061,0.132,0.148,-173.82
 15:09:07.885,eb:33:2e:f9:57:b5, 2085-97-238 255:23:00:2054,-0.007,0.011,1.004,0,0.305,0,0.132,0.148,-173.815
 15:09:07.885,eb:33:2e:f9:57:b5, 2085-97-243 255:23:00:2050,-0.009,0.011,1.001,0,0.488,0.061,0.137,0.148,-173.815
 15:09:07.885,eb:33:2e:f9:57:b5, 2085-97-240 255:23:00:2054,-0.007,0.011,1.002,0.061,0.732,0.122,0.137,0.148,-173.809
 15:09:07.943,eb:33:2e:f9:57:b5, 2085-97-239 255:24:00:2054,-0.009,0.012,1.003,0,0.977,0.183,0.137,0.148,-173.809
 15:09:07.943,eb:33:2e:f9:57:b5, 2085-97-234 255:23:00:2057,-0.011,0.011,1.003,0,1.099,0.122,0.137,0.148,-173.798
 15:09:07.943,eb:33:2e:f9:57:b5, 2085-113-58 00:167:254:-4845,-0.011,0.011,1.005,0,1.038,0.122,0.143,0.148,-173.798
 15:09:07.943,eb:33:2e:f9:57:b5, 2085-97-232 255:22:00:2057,-0.012,0.011,1.005,-0.061,0.916,0.122,0.143,0.148,-173.798
 15:09:07.943,eb:33:2e:f9:57:b5, 2085-97-232 255:22:00:2058,-0.012,0.011,1.004,-0.061,0.671,0.122,0.143,0.148,-173.793
 15:09:07.973,eb:33:2e:f9:57:b5, 2085-97-231 255:20:00:2055,-0.012,0.01,1.004,0,0.549,0.122,0.143,0.154,-173.793
 15:09:07.973,eb:33:2e:f9:57:b5, 2085-97-231 255:22:00:2055,-0.011,0.01,1.003,0,0.244,0.061,0.143,0.154,-173.787
 15:09:07.973,eb:33:2e:f9:57:b5, 2085-97-234 255:22:00:2055,-0.012,0.01,1.002,0.061,0.122,0,0.148,0.154,-173.787
 15:09:07.973,eb:33:2e:f9:57:b5, 2085-97-232 255:22:00:2056,-0.012,0.01,1.004,0.061,0,0,0.148,0.154,-173.782
 15:09:08.003,eb:33:2e:f9:57:b5, 2085-97-232 255:23:00:2057,-0.011,0.011,1.004,0.061,-0.061,0,0.148,0.154,-173.782
 15:09:08.003,eb:33:2e:f9:57:b5, 2085-97-235 255:25:00:2059,-0.01,0.011,1.004,0,-0.061,0,0.148,0.154,-173.776
 15:09:08.003,eb:33:2e:f9:57:b5, 2085-113-81 00:242:06:076,-0.012,0.012,1.005,0,0,0.061,0.154,0.159,-173.776
 15:09:08.003,eb:33:2e:f9:57:b5, 2085-97-233 255:24:00:2057,-0.011,0.012,1.005,0,-0.061,0.061,0.154,0.154,-173.771
 15:09:08.063,eb:33:2e:f9:57:b5, 2085-97-237 255:24:00:2053,-0.01,0.011,1.004,-0.061,-0.061,0,0.154,0.159,-173.765
 15:09:08.063,eb:33:2e:f9:57:b5, 2085-97-234 255:22:00:2054,-0.011,0.012,1.003,0,0,0,0.154,0.159,-173.76
 15:09:08.063,eb:33:2e:f9:57:b5, 2085-97-233 255:24:00:2056,-0.011,0.012,1.004,-0.061,0,0.061,0.159,0.159,-173.76
 15:09:08.063,eb:33:2e:f9:57:b5, 2085-97-234 255:24:00:2055,-0.011,0.012,1.004,-0.122,0,0,0.159,0.159,-173.754
 15:09:08.093,eb:33:2e:f9:57:b5, 2085-97-235 255:23:00:2056,-0.01,0.011,1.003,-0.183,0,0.061,0.159,0.159,-173.754
 15:09:08.093,eb:33:2e:f9:57:b5, 2085-97-236 255:21:00:2057,-0.011,0.011,1.004,-0.122,0,0.122,0.159,0.159,-173.749
 15:09:08.093,eb:33:2e:f9:57:b5, 2085-97-230 255:22:00:2060,-0.013,0.01,1.005,-0.122,0,0.122,0.165,0.165,-173.749
 15:09:08.093,eb:33:2e:f9:57:b5, 2085-97-231 255:22:00:2060,-0.012,0.011,1.004,-0.183,-0.122,0.183,0.165,0.165,-173.743
 15:09:08.124,eb:33:2e:f9:57:b5, 2085-97-233 255:23:00:2058,-0.011,0.012,1.005,-0.122,-0.305,0.122,0.165,0.165,-173.743
 15:09:08.124,eb:33:2e:f9:57:b5, 2085-97-237 255:22:00:2054,-0.01,0.011,1.004,-0.183,-0.427,0.061,0.165,0.165,-173.738
 15:09:08.124,eb:33:2e:f9:57:b5, 2085-97-237 255:22:00:2055,-0.009,0.01,1.004,-0.244,-0.427,0.061,0.165,0.165,-173.738
 15:09:08.124,eb:33:2e:f9:57:b5, 2085-97-234 255:21:00:2054,-0.01,0.011,1.003,-0.244,-0.305,0.061,0.165,0.165,-173.732
 15:09:08.184,eb:33:2e:f9:57:b5, 2085-97-237 255:21:00:2052,-0.012,0.012,1.003,-0.183,-0.366,0.061,0.17,0.17,-173.727
 15:09:08.184,eb:33:2e:f9:57:b5, 2085-97-235 255:22:00:2054,-0.01,0.009,1.004,-0.183,-0.427,0,0.17,0.165,-173.721
 15:09:08.184,eb:33:2e:f9:57:b5, 2085-97-233 255:22:00:2057,-0.01,0.011,1.004,-0.244,-0.488,0,0.17,0.17,-173.721
 15:09:08.184,eb:33:2e:f9:57:b5, 2085-97-232 255:22:00:2058,-0.01,0.012,1.003,-0.244,-0.549,0,0.17,0.17,-173.716
 15:09:08.213,eb:33:2e:f9:57:b5, 2085-97-236 255:22:00:2057,-0.01,0.011,1.004,-0.244,-0.671,0,0.176,0.17,-173.716
 15:09:08.213,eb:33:2e:f9:57:b5, 2085-97-235 255:20:00:2057,-0.011,0.011,1.004,-0.244,-0.732,0,0.176,0.17,-173.71
 15:09:08.213,eb:33:2e:f9:57:b5, 2085-97-236 255:22:00:2056,-0.011,0.01,1.004,-0.305,-0.854,0,0.176,0.17,-173.71
 15:09:08.213,eb:33:2e:f9:57:b5, 2085-97-233 255:23:00:2057,-0.01,0.011,1.005,-0.305,-0.916,0,0.176,0.17,-173.705
 15:09:08.243,eb:33:2e:f9:57:b5, 2085-97-234 255:21:00:2059,-0.009,0.011,1.004,-0.244,-1.038,0,0.181,0.176,-173.705
 15:09:08.243,eb:33:2e:f9:57:b5, 2085-97-232 255:21:00:2058,-0.011,0.011,1.004,-0.366,-1.16,0,0.181,0.176,-173.699
 15:09:08.243,eb:33:2e:f9:57:b5, 2085-97-233 255:22:00:2059,-0.011,0.011,1.005,-0.427,-1.404,0,0.181,0.176,-173.699
 15:09:08.243,eb:33:2e:f9:57:b5, 2085-97-237 255:24:00:2057,-0.008,0.01,1.005,-0.427,-1.587,0,0.181,0.176,-173.699
 15:09:08.304,eb:33:2e:f9:57:b5, 2085-97-239 255:21:00:2057,-0.008,0.011,1.005,-0.427,-1.648,0,0.181,0.176,-173.699
 15:09:08.304,eb:33:2e:f9:57:b5, 2085-97-248 255:18:00:2047,-0.004,0.009,1.003,-0.366,-1.648,-0.061,0.181,0.176,-173.699
 15:09:08.313,eb:33:2e:f9:57:b5, 2085-97-244 255:20:00:2051,-0.006,0.009,1,-0.305,-1.404,0,0.181,0.176,-173.699
 15:09:08.314,eb:33:2e:f9:57:b5, 2085-97-242 255:19:00:2055,-0.007,0.009,1.002,-0.244,-1.221,0,0.181,0.176,-173.699
 15:09:08.332,eb:33:2e:f9:57:b5, 2085-97-243 255:21:00:2056,-0.004,0.01,1.004,-0.244,-1.282,0.061,0.181,0.176,-173.699
 15:09:08.332,eb:33:2e:f9:57:b5, 2085-97-250 255:22:00:2050,-0.003,0.011,1.002,-0.427,-1.099,0,0.181,0.176,-173.699
 15:09:08.332,eb:33:2e:f9:57:b5, 2085-97-243 255:19:00:2055,-0.007,0.01,1.001,-0.427,-0.793,0,0.181,0.176,-173.699
 15:09:08.332,eb:33:2e:f9:57:b5, 2085-97-244 255:23:00:2055,-0.007,0.011,1.004,-0.488,-0.793,0.061,0.181,0.176,-173.699
 15:09:08.364,eb:33:2e:f9:57:b5, 2085-97-241 255:21:00:2054,-0.008,0.01,1.004,-0.488,-0.671,0.061,0.181,0.176,-173.699
 15:09:08.364,eb:33:2e:f9:57:b5, 2085-97-237 255:20:00:2058,-0.008,0.01,1.004,-0.488,-0.854,0.122,0.181,0.176,-173.699
 15:09:08.364,eb:33:2e:f9:57:b5, 2085-97-237 255:20:00:2059,-0.009,0.01,1.005,-0.488,-1.099,0.122,0.181,0.176,-173.699
 15:09:08.364,eb:33:2e:f9:57:b5, 2085-97-237 255:18:00:2057,-0.008,0.01,1.005,-0.61,-1.526,0.122,0.181,0.176,-173.699
 15:09:08.423,eb:33:2e:f9:57:b5, 2085-97-242 255:18:00:2056,-0.005,0.008,1.004,-0.488,-1.709,0.061,0.181,0.176,-173.699
 15:09:08.423,eb:33:2e:f9:57:b5, 2085-97-245 255:17:00:2054,-0.004,0.009,1.003,-0.549,-1.77,0.122,0.181,0.176,-173.699
 15:09:08.423,eb:33:2e:f9:57:b5, 2085-97-247 255:19:00:2052,-0.004,0.009,1.002,-0.488,-1.648,0.122,0.181,0.176,-173.699
 15:09:08.423,eb:33:2e:f9:57:b5, 2085-97-248 255:18:00:2054,-0.003,0.009,1.003,-0.488,-1.465,0.061,0.181,0.176,-173.699
 15:09:08.454,eb:33:2e:f9:57:b5, 2085-97-249 255:18:00:2057,-0.004,0.009,1.003,-0.549,-1.404,0.061,0.181,0.176,-173.699
 15:09:08.454,eb:33:2e:f9:57:b5, 2085-97-247 255:18:00:2054,-0.005,0.008,1.004,-0.549,-1.282,0.122,0.181,0.176,-173.699
 15:09:08.454,eb:33:2e:f9:57:b5, 2085-97-248 255:16:00:2055,-0.004,0.008,1.003,-0.427,-1.282,0.061,0.187,0.176,-173.699
 15:09:08.454,eb:33:2e:f9:57:b5, 2085-97-248 255:17:00:2054,-0.004,0.008,1.003,-0.427,-1.282,0.122,0.187,0.176,-173.699
 15:09:08.513,eb:33:2e:f9:57:b5, 2085-97-248 255:18:00:2055,-0.004,0.008,1.003,-0.366,-1.221,0.122,0.187,0.176,-173.699
 15:09:08.513,eb:33:2e:f9:57:b5, 2085-97-249 255:18:00:2055,-0.003,0.009,1.003,-0.305,-1.221,0.122,0.187,0.176,-173.699
 15:09:08.513,eb:33:2e:f9:57:b5, 2085-97-251 255:18:00:2055,-0.003,0.008,1.004,-0.305,-1.343,0.061,0.187,0.176,-173.699
 15:09:08.513,eb:33:2e:f9:57:b5, 2085-97-251 255:18:00:2056,-0.003,0.008,1.003,-0.366,-1.343,0.122,0.187,0.176,-173.699
 15:09:08.513,eb:33:2e:f9:57:b5, 2085-97-253 255:20:00:2053,-0.001,0.009,1.003,-0.366,-1.282,0.122,0.187,0.176,-173.699
 15:09:08.544,eb:33:2e:f9:57:b5, 2085-113-58 00:122:254:-4965,0,0.008,1.002,-0.366,-1.038,0.122,0.187,0.176,-173.699
