Time,Device name,Chip Time(),Acceleration X(g),Acceleration Y(g),Acceleration Z(g),Angular velocity X(°/s),Angular velocity Y(°/s),Angular velocity Z(°/s),Angle X(°),Angle Y(°),Angle Z(°)
 15:05:32.892,eb:33:2e:f9:57:b5, 2085-97-00 00:84:00:2016,-0.004,0.038,0.979,-2.747,-9.521,7.08,1.318,3.159,-72.12
 15:05:32.892,eb:33:2e:f9:57:b5, 2085-97-235 255:73:00:2042,-0.016,0.042,0.99,-4.456,-6.714,6.47,1.28,3.071,-72.054
 15:05:32.892,eb:33:2e:f9:57:b5, 2085-97-202 255:59:00:2071,-0.036,0.033,1.003,-6.104,-5.127,6.348,1.23,3.01,-72.015
 15:05:32.892,eb:33:2e:f9:57:b5, 2085-97-181 255:66:00:2087,-0.031,0.031,1.019,-7.629,-5.92,6.287,1.159,2.95,-71.955
 15:05:32.922,eb:33:2e:f9:57:b5, 2085-97-194 255:51:00:2074,-0.031,0.033,1.014,-9.277,-6.897,5.798,1.077,2.878,-71.917
 15:05:32.922,eb:33:2e:f9:57:b5, 2085-97-188 255:34:00:2081,-0.041,0.018,1.016,-10.071,-7.69,5.249,0.972,2.802,-71.867
 15:05:32.922,eb:33:2e:f9:57:b5, 2085-97-166 255:22:00:2084,-0.037,0.019,1.017,-10.803,-9.216,4.639,0.873,2.714,-71.84
 15:05:32.922,eb:33:2e:f9:57:b5, 2085-97-183 255:21:00:2103,-0.036,0.003,1.019,-11.475,-10.925,4.211,0.758,2.609,-71.801
 15:05:32.953,eb:33:2e:f9:57:b5, 2085-97-176 255:23:00:2126,-0.056,0.013,1.033,-12.756,-12.085,3.967,0.637,2.488,-71.785
 15:05:32.953,eb:33:2e:f9:57:b5, 2085-97-173 255:78:00:2219,-0.111,0.01,1.052,-14.771,-14.099,3.662,0.494,2.351,-71.752
 15:05:32.953,eb:33:2e:f9:57:b5, 2085-97-118 255:17:00:2190,-0.004,0.004,1.1,-17.822,-18.616,2.686,0.33,2.192,-71.741
 15:05:32.953,eb:33:2e:f9:57:b5, 2085-97-89 00:88:00:2086,0.036,0.028,1.033,-20.691,-17.883,2.319,0.132,1.989,-71.719
 15:05:33.014,eb:33:2e:f9:57:b5, 2085-97-35 00:81:00:2141,-0.01,0.032,1.024,-23.743,-9.399,4.089,-0.082,1.862,-71.708
 15:05:33.014,eb:33:2e:f9:57:b5, 2085-97-34 00:78:00:2169,0.05,0.034,1.068,-28.137,-3.54,4.578,-0.352,1.796,-71.664
 15:05:33.014,eb:33:2e:f9:57:b5, 2085-97-123 00:97:00:2157,0.025,0.055,1.048,-33.447,5.127,5.127,-0.659,1.802,-71.642
 15:05:33.014,eb:33:2e:f9:57:b5, 2085-97-10 00:99:00:2297,-0.01,0.04,1.093,-40.222,16.479,6.165,-1.027,1.912,-71.587
 15:05:33.073,eb:33:2e:f9:57:b5, 2085-97-187 255:168:00:2573,-0.077,0.05,1.157,-46.753,23.01,8.24,-1.467,2.115,-71.543
 15:05:33.073,eb:33:2e:f9:57:b5, 2085-97-67 255:123:00:2593,-0.068,0.05,1.212,-54.688,25.085,12.39,-1.978,2.351,-71.444
 15:05:33.073,eb:33:2e:f9:57:b5, 2085-97-220 255:119:00:2760,-0.045,0.052,1.352,-66.04,23.01,16.357,-2.571,2.598,-71.329
 15:05:33.073,eb:33:2e:f9:57:b5, 2085-97-122 255:131:00:3005,-0.069,0.059,1.46,-83.557,19.165,17.883,-3.323,2.823,-71.164
 15:05:33.102,eb:33:2e:f9:57:b5, 2085-97-92 255:57:00:3019,-0.08,-0.012,1.51,-103.638,11.292,14.771,-4.257,2.972,-71.032
 15:05:33.102,eb:33:2e:f9:57:b5, 2085-97-140 255:175:00:3272,-0.036,0.111,1.535,-120.972,7.019,14.038,-5.389,3.076,-70.9
 15:05:33.102,eb:33:2e:f9:57:b5, 2085-97-150 255:66:01:3367,-0.044,0.077,1.593,-138.367,0.549,11.414,-6.691,3.109,-70.807
 15:05:33.102,eb:33:2e:f9:57:b5, 2085-97-166 255:49:01:3303,-0.038,0.145,1.664,-154.48,-4.883,14.343,-8.163,3.087,-70.675
 15:05:33.133,eb:33:2e:f9:57:b5, 2085-97-158 255:145:01:3520,-0.043,0.155,1.638,-174.316,-5.005,10.254,-9.8,3.038,-70.565
 15:05:33.133,eb:33:2e:f9:57:b5, 2085-97-75 255:211:01:3633,-0.159,0.225,1.78,-196.838,-7.08,8.85,-11.662,2.999,-70.466
 15:05:33.133,eb:33:2e:f9:57:b5, 2085-97-79 254:221:01:3568,-0.276,0.224,1.774,-220.825,-13.794,6.531,-13.76,2.9,-70.378
 15:05:33.133,eb:33:2e:f9:57:b5, 2085-97-11 253:21:02:3878,-0.445,0.198,1.808,-247.864,-14.648,-2.625,-16.111,2.774,-70.318
 15:05:33.133,eb:33:2e:f9:57:b5, 2085-113-81 00:134:152:3930,-0.516,0.307,2.003,-281.25,-22.827,-14.526,-18.77,2.565,-70.345
 15:05:33.191,eb:33:2e:f9:57:b5, 2085-97-48 251:119:03:4534,-0.71,0.272,2.115,-300.781,-29.663,-24.17,-20.237,2.406,-70.4
 15:05:33.191,eb:33:2e:f9:57:b5, 2085-97-110 249:165:03:4962,-0.917,0.465,2.312,-342.834,-50.842,-40.405,-23.478,1.901,-70.554
 15:05:33.191,eb:33:2e:f9:57:b5, 2085-97-229 247:59:03:5434,-1.159,0.413,2.584,-387.817,-89.6,-57.678,-27.158,1.049,-70.697
 15:05:33.192,eb:33:2e:f9:57:b5, 2085-97-195 246:26:01:5692,-1.145,0.362,2.725,-425.537,-138.062,-73.059,-31.256,-0.28,-70.703
 15:05:33.222,eb:33:2e:f9:57:b5, 2085-97-200 248:238:254:5418,-0.91,-0.034,2.877,-447.327,-183.411,-98.877,-35.651,-2.115,-70.521
 15:05:33.222,eb:33:2e:f9:57:b5, 2085-97-100 248:151:253:5587,-0.842,-0.419,2.602,-446.533,-201.904,-130.066,-40.155,-4.362,-70.203
 15:05:33.222,eb:33:2e:f9:57:b5, 2085-97-180 249:165:02:5210,-0.614,0.089,2.674,-435.12,-241.516,-155.457,-44.588,-7.004,-69.78
 15:05:33.222,eb:33:2e:f9:57:b5, 2085-97-113 251:214:04:4323,-0.806,0.522,2.27,-435.425,-248.535,-152.527,-49.037,-9.871,-69.016
 15:05:33.252,eb:33:2e:f9:57:b5, 2085-97-48 247:164:05:3935,-1.215,0.646,2.145,-450.073,-180.115,-149.902,-53.608,-12.393,-68.264
 15:05:33.252,eb:33:2e:f9:57:b5, 2085-97-30 243:21:16:-2842,-1.78,0.829,0.578,-430.847,-93.567,-174.988,-58.134,-14.507,-68.055
 15:05:33.252,eb:33:2e:f9:57:b5, 2085-97-02 245:34:05:-1516,-1.129,1.134,-2.02,-240.356,71.472,-179.199,-61.26,-16.046,-68.934
 15:05:33.252,eb:33:2e:f9:57:b5, 2085-97-249 246:28:13:2065,-1.276,1.025,0.513,5.554,116.577,-177.795,-61.716,-17.128,-70.812
 15:05:33.284,eb:33:2e:f9:57:b5, 2085-97-78 246:60:15:3048,-0.992,1.923,1.264,146.729,69.519,-152.71,-60.276,-18.111,-72.543
 15:05:33.284,eb:33:2e:f9:57:b5, 2085-97-46 249:232:12:2622,-0.767,1.794,1.512,178.772,22.4,-143.188,-58.178,-19.155,-73.68
 15:05:33.284,eb:33:2e:f9:57:b5, 2085-97-03 250:74:10:985,-0.67,1.429,0.871,164.246,31.982,-146.179,-56.118,-20.242,-74.724
 15:05:33.284,eb:33:2e:f9:57:b5, 2085-97-103 251:11:09:226,-0.482,1.195,0.212,165.161,76.721,-142.944,-53.992,-21.116,-76.091
 15:05:33.344,eb:33:2e:f9:57:b5, 2085-97-179 252:05:09:297,-0.356,1.107,0.103,185.669,132.568,-130.188,-51.586,-21.555,-77.904
 15:05:33.344,eb:33:2e:f9:57:b5, 2085-97-155 253:242:09:825,-0.275,1.178,0.245,225.891,168.457,-98.755,-48.746,-21.434,-79.975
 15:05:33.344,eb:33:2e:f9:57:b5, 2085-97-21 254:133:10:1595,-0.182,1.302,0.624,269.775,171.387,-52.246,-45.555,-20.803,-81.87
 15:05:33.344,eb:33:2e:f9:57:b5, 2085-97-04 255:147:09:1662,-0.084,1.274,0.825,297.974,153.748,-2.747,-42.193,-19.803,-83.26
 15:05:33.372,eb:33:2e:f9:57:b5, 2085-97-136 255:235:07:1487,-0.052,1.103,0.779,306.03,153.564,38.879,-38.864,-18.517,-84.122
 15:05:33.372,eb:33:2e:f9:57:b5, 2085-97-168 255:187:06:1390,-0.065,0.92,0.697,298.889,175.903,70.129,-35.645,-16.837,-84.694
 15:05:33.372,eb:33:2e:f9:57:b5, 2085-97-57 255:90:05:1608,-0.134,0.762,0.702,289.734,209.412,95.215,-32.602,-14.755,-85.089
 15:05:33.372,eb:33:2e:f9:57:b5, 2085-97-149 254:240:04:2039,-0.213,0.636,0.882,293.335,239.99,116.943,-29.619,-12.239,-85.358
 15:05:33.403,eb:33:2e:f9:57:b5, 2085-97-00 254:112:04:2715,-0.256,0.589,1.146,308.899,245.972,135.864,-26.592,-9.476,-85.375
 15:05:33.403,eb:33:2e:f9:57:b5, 2085-97-02 254:128:03:3168,-0.264,0.502,1.455,321.045,238.953,146.973,-23.445,-6.669,-85.111
 15:05:33.403,eb:33:2e:f9:57:b5, 2085-97-221 253:145:02:3580,-0.26,0.375,1.648,325.256,230.774,148.987,-20.253,-3.933,-84.595
 15:05:33.403,eb:33:2e:f9:57:b5, 2085-97-234 253:217:01:3899,-0.258,0.271,1.833,325.317,217.285,145.325,-17.001,-1.335,-83.919
 15:05:33.462,eb:33:2e:f9:57:b5, 2085-97-254 253:58:01:4085,-0.234,0.189,1.95,326.111,199.707,138.489,-13.744,1.038,-83.101
 15:05:33.462,eb:33:2e:f9:57:b5, 2085-97-71 254:236:00:4319,-0.222,0.129,2.045,328.918,184.631,130.92,-10.41,3.197,-82.189
 15:05:33.462,eb:33:2e:f9:57:b5, 2085-97-51 254:07:01:4745,-0.218,0.119,2.222,333.557,167.786,127.075,-7.026,5.136,-81.2
 15:05:33.462,eb:33:2e:f9:57:b5, 2085-97-68 254:76:01:4904,-0.225,0.147,2.365,339.661,143.555,129.761,-3.51,6.795,-80.057
 15:05:33.494,eb:33:2e:f9:57:b5, 2085-97-36 254:141:01:4987,-0.245,0.178,2.419,347.351,128.113,137.085,0.093,8.168,-78.777
 15:05:33.494,eb:33:2e:f9:57:b5, 2085-97-233 253:143:01:5271,-0.277,0.201,2.482,356.262,124.756,150.452,3.878,9.382,-77.272
 15:05:33.494,eb:33:2e:f9:57:b5, 2085-97-185 253:242:00:5625,-0.303,0.174,2.675,358.643,121.338,170.898,7.767,10.443,-75.542
 15:05:33.494,eb:33:2e:f9:57:b5, 2085-97-57 253:17:255:5784,-0.453,0.02,2.792,348.694,117.065,196.594,11.728,11.305,-73.477
 15:05:33.554,eb:33:2e:f9:57:b5, 2085-97-164 250:111:251:5895,-0.902,-0.307,2.831,330.994,107.788,220.947,15.606,11.904,-71.142
 15:05:33.554,eb:33:2e:f9:57:b5, 2085-97-123 247:20:245:5521,-1.183,-0.93,2.847,307.739,84.656,230.469,19.352,12.134,-68.61
 15:05:33.554,eb:33:2e:f9:57:b5, 2085-97-39 246:24:238:4470,-1.204,-1.851,2.448,278.076,82.397,206.543,22.775,12.096,-66.231
 15:05:33.554,eb:33:2e:f9:57:b5, 2085-97-24 247:216:233:3869,-0.938,-2.552,1.969,244.69,115.112,151.428,25.834,12.255,-64.155
 15:05:33.613,eb:33:2e:f9:57:b5, 2085-97-15 251:06:233:4134,-0.295,-2.866,1.91,213.562,151.184,87.83,28.482,12.947,-62.479
 15:05:33.613,eb:33:2e:f9:57:b5, 2085-97-102 00:12:234:4655,0.375,-2.818,2.151,177.307,150.94,38.574,30.74,14.013,-61.172
 15:05:33.613,eb:33:2e:f9:57:b5, 2085-97-11 05:150:234:4766,0.815,-2.687,2.338,134.155,115.784,20.264,32.525,15.013,-60.238
 15:05:33.613,eb:33:2e:f9:57:b5, 2085-97-193 06:76:233:4253,0.844,-2.727,2.2,88.379,66.711,20.386,33.799,15.656,-59.562
 15:05:33.643,eb:33:2e:f9:57:b5, 2085-97-107 06:34:231:3563,0.778,-2.99,1.904,47.607,28.076,20.935,34.579,15.892,-59.145
 15:05:33.643,eb:33:2e:f9:57:b5, 2085-97-90 06:150:231:3063,0.863,-3.136,1.6,10.498,13.55,10.559,34.92,15.952,-58.903
 15:05:33.643,eb:33:2e:f9:57:b5, 2085-97-138 07:25:235:3058,1.04,-2.861,1.445,-27.832,18.616,2.136,34.854,16.051,-58.793
 15:05:33.643,eb:33:2e:f9:57:b5, 2085-97-211 08:59:239:3405,1.106,-2.347,1.579,-66.528,19.897,11.475,34.404,16.194,-58.629
 15:05:33.645,eb:33:2e:f9:57:b5, 2085-97-08 10:62:248:14791,0.882,-0.883,3.386,-151.184,-31.433,54.26,33.574,16.183,-58.326
 15:05:33.645,eb:33:2e:f9:57:b5, 2085-97-251 02:135:13:498,1.074,0.222,0.197,-292.725,-191.223,46.448,30.762,14.227,-59.128
 15:05:33.645,eb:33:2e:f9:57:b5, 2085-97-84 07:157:11:1780,0.346,2.142,-0.151,-403.687,-94.116,76.599,27.175,12.596,-59.233
 15:05:33.645,eb:33:2e:f9:57:b5, 2085-97-88 254:235:252:4054,-0.177,0.598,1.439,-434.204,-38.086,26.123,22.928,11.854,-59.035
 15:05:33.853,eb:33:2e:f9:57:b5, 2085-97-14 01:130:249:3646,0.347,-0.927,2.209,-380.066,-80.2,-17.7,18.792,11.305,-59.26
 15:05:33.853,eb:33:2e:f9:57:b5, 2085-97-199 02:97:252:2668,0.171,-0.537,1.431,-313.477,-64.453,-51.147,15.249,10.651,-59.859
 15:05:33.853,eb:33:2e:f9:57:b5, 2085-97-157 255:98:253:2638,-0.191,-0.471,1.295,-258.179,-21.24,-76.355,12.283,10.432,-60.639
 15:05:33.853,eb:33:2e:f9:57:b5, 2085-97-86 253:118:01:2455,-0.419,-0.072,1.227,-222.412,-12.817,-70.679,9.761,10.426,-61.425
 15:05:33.882,eb:33:2e:f9:57:b5, 2085-97-125 252:69:00:2536,-0.387,0.132,1.211,-202.942,-26.245,-41.26,7.537,10.322,-62.029
 15:05:33.883,eb:33:2e:f9:57:b5, 2085-97-201 253:62:254:2469,-0.25,-0.139,1.24,-176.758,-52.551,-17.09,5.581,9.937,-62.347
 15:05:33.883,eb:33:2e:f9:57:b5, 2085-97-179 253:253:251:2404,-0.192,-0.396,1.191,-138.611,-62.439,-14.282,3.977,9.36,-62.562
 15:05:33.883,eb:33:2e:f9:57:b5, 2085-97-203 254:163:253:2152,-0.148,-0.45,1.103,-87.585,-71.838,-16.174,2.834,8.674,-62.776
 15:05:33.884,eb:33:2e:f9:57:b5, 2085-97-167 254:28:254:2165,-0.061,-0.2,1.049,-53.162,-69.641,1.709,2.142,7.965,-62.902
 15:05:33.884,eb:33:2e:f9:57:b5, 2085-97-183 00:07:255:1761,0.139,-0.197,0.98,-30.334,-65.369,5.92,1.747,7.273,-62.869
 15:05:33.884,eb:33:2e:f9:57:b5, 2085-97-184 00:17:255:1754,-0.058,-0.106,0.821,-20.813,-43.091,0.916,1.5,6.735,-62.88
 15:05:33.884,eb:33:2e:f9:57:b5, 2085-97-236 254:14:255:2109,-0.076,-0.117,0.961,-10.254,-31.677,2.319,1.34,6.383,-62.875
 15:05:33.886,eb:33:2e:f9:57:b5, 2085-97-33 00:255:255:1961,0.047,-0.071,1.011,-2.991,-32.898,0.244,1.285,6.053,-62.891
 15:05:33.886,eb:33:2e:f9:57:b5, 2085-97-44 00:45:00:1968,-0.021,0.025,0.939,-3.967,-21.362,1.282,1.241,5.773,-62.897
 15:05:33.886,eb:33:2e:f9:57:b5, 2085-97-159 255:11:00:2068,-0.022,0.014,0.99,-4.883,-11.353,2.747,1.198,5.62,-62.902
 15:05:33.886,eb:33:2e:f9:57:b5, 2085-97-14 00:50:00:2003,0.008,0.012,0.997,-5.066,-5.249,3.906,1.137,5.526,-62.875
 15:05:33.887,eb:33:2e:f9:57:b5, 2085-97-246 255:48:00:2002,-0.034,0.028,0.973,-6.47,2.808,5.737,1.088,5.521,-62.847
 15:05:33.887,eb:33:2e:f9:57:b5, 2085-97-143 255:00:00:2052,-0.056,0.012,0.992,-6.897,7.568,6.836,1.016,5.57,-62.781
 15:05:33.887,eb:33:2e:f9:57:b5, 2085-97-163 255:252:255:2026,-0.043,0,1.002,-6.47,8.545,7.629,0.956,5.647,-62.732
 15:05:33.887,eb:33:2e:f9:57:b5, 2085-97-129 255:213:255:2053,-0.088,-0.012,0.984,-4.883,10.681,7.751,0.895,5.74,-62.65
 15:05:33.890,eb:33:2e:f9:57:b5, 2085-97-10 255:234:255:2132,-0.153,-0.017,1.016,-1.648,9.094,8.972,0.873,5.834,-62.589
 15:05:33.890,eb:33:2e:f9:57:b5, 2085-97-174 254:10:00:2198,-0.176,-0.005,1.064,0.366,2.258,10.132,0.868,5.883,-62.49
 15:05:33.890,eb:33:2e:f9:57:b5, 2085-97-143 254:23:00:2212,-0.173,0.006,1.077,0.671,-8.057,10.986,0.89,5.845,-62.408
 15:05:33.890,eb:33:2e:f9:57:b5, 2085-97-180 254:26:00:2191,-0.128,0.009,1.075,0.671,-19.653,11.047,0.895,5.696,-62.303
 15:05:33.972,eb:33:2e:f9:57:b5, 2085-97-45 255:31:00:2087,-0.083,0.021,1.046,1.282,-28.503,12.329,0.917,5.438,-62.21
 15:05:33.972,eb:33:2e:f9:57:b5, 2085-97-101 255:20:00:2048,-0.069,0.015,1.005,1.587,-32.166,13.184,0.934,5.125,-62.084
 15:05:33.972,eb:33:2e:f9:57:b5, 2085-97-128 255:84:00:2062,-0.067,0.023,1.003,0.488,-33.142,13.184,0.956,4.79,-61.985
 15:05:33.972,eb:33:2e:f9:57:b5, 2085-97-162 255:114:00:2056,-0.018,0.044,1.014,-2.747,-33.813,13.245,0.95,4.444,-61.859
 15:05:33.974,eb:33:2e:f9:57:b5, 2085-97-32 00:92:00:1970,0.028,0.054,0.985,-7.263,-31.128,11.963,0.906,4.114,-61.76
 15:05:33.974,eb:33:2e:f9:57:b5, 2085-97-71 00:62:00:1952,0.029,0.03,0.956,-10.62,-23.254,10.925,0.813,3.84,-61.65
 15:05:33.974,eb:33:2e:f9:57:b5, 2085-97-36 00:76:00:2001,0.002,0.029,0.96,-12.695,-14.648,10.498,0.698,3.653,-61.573
 15:05:33.974,eb:33:2e:f9:57:b5, 2085-97-236 255:35:00:2056,-0.028,0.024,0.989,-14.893,-8.24,10.254,0.555,3.538,-61.469
 15:05:34.003,eb:33:2e:f9:57:b5, 2085-97-168 255:252:255:2112,-0.064,-0.001,1.014,-16.296,-4.639,10.071,0.406,3.472,-61.392
 15:05:34.003,eb:33:2e:f9:57:b5, 2085-97-94 255:48:00:2191,-0.09,0.016,1.053,-17.7,-4.517,10.01,0.231,3.422,-61.293
 15:05:34.003,eb:33:2e:f9:57:b5, 2085-97-74 255:06:00:2199,-0.083,0.011,1.075,-21.057,-7.446,8.362,0.044,3.362,-61.227
 15:05:34.003,eb:33:2e:f9:57:b5, 2085-97-125 255:22:00:2191,-0.024,0,1.08,-24.475,-8.911,6.592,-0.187,3.268,-61.155
 15:05:34.092,eb:33:2e:f9:57:b5, 2085-97-59 00:39:00:2079,0.062,0.018,1.044,-27.954,-5.737,6.47,-0.445,3.192,-61.117
 15:05:34.093,eb:33:2e:f9:57:b5, 2085-97-46 00:19:00:2105,0.006,0.022,1.016,-31.189,3.54,7.69,-0.747,3.175,-61.046
 15:05:34.093,eb:33:2e:f9:57:b5, 2085-97-225 255:41:00:2242,0.02,-0.009,1.053,-34.119,10.864,8.728,-1.071,3.252,-60.985
 15:05:34.093,eb:33:2e:f9:57:b5, 2085-97-128 00:98:00:2111,0.05,-0.005,1.025,-37.231,17.944,10.925,-1.434,3.395,-60.886
 15:05:34.095,eb:33:2e:f9:57:b5, 2085-113-58 00:227:254:-3330,-0.008,0.023,1.047,-42.48,29.297,13.977,-1.829,3.636,-60.793
 15:05:34.095,eb:33:2e:f9:57:b5, 2085-97-58 255:213:255:2372,-0.132,0.012,1.107,-44.556,29.968,15.259,-2.049,3.779,-60.727
 15:05:34.095,eb:33:2e:f9:57:b5, 2085-97-00 255:219:255:2531,-0.148,-0.008,1.25,-50.476,21.362,18.555,-2.516,4.048,-60.59
 15:05:34.095,eb:33:2e:f9:57:b5, 2085-97-194 254:199:255:2646,-0.142,-0.012,1.268,-59.57,11.597,18.921,-3.06,4.213,-60.414
 15:05:34.123,eb:33:2e:f9:57:b5, 2085-97-05 255:06:00:2786,-0.093,-0.013,1.3,-70.679,7.263,16.907,-3.702,4.307,-60.26
 15:05:34.123,eb:33:2e:f9:57:b5, 2085-97-119 255:82:00:2933,-0.029,0.038,1.378,-83.862,3.723,16.846,-4.477,4.367,-60.101
 15:05:34.123,eb:33:2e:f9:57:b5, 2085-97-241 255:250:00:3058,0.029,0.063,1.425,-100.647,2.625,17.517,-5.394,4.4,-59.958
 15:05:34.123,eb:33:2e:f9:57:b5, 2085-97-41 00:184:00:3120,-0.024,0.141,1.515,-118.896,3.296,19.653,-6.493,4.438,-59.782
 15:05:34.183,eb:33:2e:f9:57:b5, 2085-97-157 255:09:01:3277,-0.137,0.114,1.574,-139.526,7.324,17.7,-7.784,4.521,-59.628
 15:05:34.183,eb:33:2e:f9:57:b5, 2085-97-177 254:04:01:3440,-0.173,0.116,1.551,-160.889,10.803,13.062,-9.294,4.614,-59.491
 15:05:34.183,eb:33:2e:f9:57:b5, 2085-97-134 254:152:01:3652,-0.185,0.149,1.709,-184.082,7.141,6.226,-11.025,4.713,-59.442
 15:05:34.183,eb:33:2e:f9:57:b5, 2085-97-25 254:46:02:3909,-0.274,0.232,1.837,-211.67,3.174,0.183,-13.019,4.763,-59.425
 15:05:34.212,eb:33:2e:f9:57:b5, 2085-97-11 253:78:02:3970,-0.433,0.244,1.948,-245.85,-0.793,-10.193,-15.32,4.741,-59.491
 15:05:34.212,eb:33:2e:f9:57:b5, 2085-97-243 251:65:03:4437,-0.572,0.39,2.126,-284.058,-9.705,-21.484,-17.996,4.658,-59.634
 15:05:34.212,eb:33:2e:f9:57:b5, 2085-97-207 250:152:03:4911,-0.792,0.463,2.24,-329.895,-19.775,-38.086,-21.105,4.406,-59.886
 15:05:34.212,eb:33:2e:f9:57:b5, 2085-97-13 249:193:04:5386,-0.914,0.542,2.518,-380.31,-41.87,-59.937,-24.708,3.922,-60.233
 15:05:34.242,eb:33:2e:f9:57:b5, 2085-97-108 248:128:03:5963,-0.923,0.49,2.814,-430.359,-82.825,-78.735,-28.823,3.043,-60.595
 15:05:34.242,eb:33:2e:f9:57:b5, 2085-97-10 249:220:00:5863,-0.747,0.229,2.83,-469.055,-130.737,-96.558,-33.365,1.631,-60.776
 15:05:34.242,eb:33:2e:f9:57:b5, 2085-97-78 250:180:253:5095,-0.754,-0.061,2.726,-485.474,-160.095,-112.061,-38.167,-0.198,-60.76
 15:05:34.242,eb:33:2e:f9:57:b5, 2085-97-199 249:174:253:5066,-0.831,-0.277,2.402,-485.046,-149.17,-133.484,-43.044,-2.181,-60.688
 15:05:34.303,eb:33:2e:f9:57:b5, 2085-97-38 250:09:03:5214,-0.788,0.148,2.785,-474.487,-178.65,-152.832,-47.829,-4.334,-60.59
 15:05:34.303,eb:33:2e:f9:57:b5, 2085-97-42 249:170:04:4205,-0.993,0.471,2.21,-489.502,-156.982,-165.955,-52.663,-6.702,-60.2
 15:05:34.303,eb:33:2e:f9:57:b5, 2085-97-219 247:223:06:2250,-1.182,0.774,1.877,-501.526,-56.274,-176.941,-57.629,-8.712,-60.359
 15:05:34.303,eb:33:2e:f9:57:b5, 2085-97-60 243:23:06:-4124,-1.487,0.93,-0.145,-427.49,56.274,-205.994,-62.205,-10.349,-61.342
 15:05:34.332,eb:33:2e:f9:57:b5, 2085-97-77 246:31:09:536,-0.986,0.915,-1.133,-163.025,164.978,-221.13,-64.698,-11.7,-63.583
 15:05:34.332,eb:33:2e:f9:57:b5, 2085-97-162 247:196:15:3210,-1.053,1.625,1.118,86.243,111.877,-177.917,-64.363,-12.887,-65.731
 15:05:34.332,eb:33:2e:f9:57:b5, 2085-97-47 249:128:15:3302,-0.666,2.028,1.705,187.622,37.292,-133.85,-62.529,-13.947,-67.072
 15:05:34.332,eb:33:2e:f9:57:b5, 2085-97-81 251:23:13:2263,-0.569,1.796,1.398,183.777,26.489,-116.577,-60.397,-14.892,-67.906
 15:05:34.362,eb:33:2e:f9:57:b5, 2085-97-163 251:244:10:1042,-0.461,1.478,0.794,159.79,57.434,-108.093,-58.453,-15.65,-68.873
 15:05:34.362,eb:33:2e:f9:57:b5, 2085-97-48 253:10:10:286,-0.27,1.297,0.267,159.302,101.196,-93.14,-56.519,-16.057,-70.148
 15:05:34.362,eb:33:2e:f9:57:b5, 2085-97-51 254:46:10:460,-0.208,1.253,0.149,187.073,142.944,-65.552,-54.366,-15.996,-71.691
 15:05:34.362,eb:33:2e:f9:57:b5, 2085-97-98 254:122:10:952,-0.195,1.298,0.333,234.741,152.283,-23.499,-51.817,-15.43,-73.224
 15:05:34.423,eb:33:2e:f9:57:b5, 2085-97-137 254:225:09:1416,-0.166,1.288,0.596,282.776,135.498,23.01,-48.9,-14.496,-74.355
 15:05:34.423,eb:33:2e:f9:57:b5, 2085-97-200 254:120:08:1484,-0.147,1.157,0.729,313.721,117.065,61.279,-45.72,-13.315,-74.987
 15:05:34.423,eb:33:2e:f9:57:b5, 2085-97-210 254:223:06:1475,-0.135,0.957,0.718,327.332,113.098,88.562,-42.44,-11.964,-75.229
 15:05:34.423,eb:33:2e:f9:57:b5, 2085-97-03 255:142:05:1371,-0.136,0.77,0.701,329.651,126.221,105.469,-39.122,-10.415,-75.262
 15:05:34.454,eb:33:2e:f9:57:b5, 2085-97-120 254:179:04:1619,-0.186,0.641,0.686,334.229,151.428,118.286,-35.815,-8.619,-75.212
 15:05:34.454,eb:33:2e:f9:57:b5, 2085-97-81 254:55:04:2178,-0.236,0.543,0.917,340.393,172.302,127.686,-32.426,-6.564,-75.103
 15:05:34.454,eb:33:2e:f9:57:b5, 2085-97-243 253:136:03:2538,-0.28,0.49,1.156,345.52,183.044,131.714,-29.02,-4.362,-74.899
 15:05:34.454,eb:33:2e:f9:57:b5, 2085-97-166 253:179:02:3124,-0.305,0.386,1.389,355.713,183.838,134.155,-25.505,-2.098,-74.559
 15:05:34.543,eb:33:2e:f9:57:b5, 2085-97-129 253:229:01:3561,-0.318,0.285,1.642,361.816,174.744,130.005,-21.918,0.071,-74.07
 15:05:34.543,eb:33:2e:f9:57:b5, 2085-97-112 253:34:01:3905,-0.319,0.192,1.83,364.136,161.072,120.972,-18.248,2.082,-73.471
 15:05:34.543,eb:33:2e:f9:57:b5, 2085-97-129 253:116:00:4137,-0.302,0.092,1.967,364.014,145.874,108.154,-14.568,3.856,-72.828
 15:05:34.543,eb:33:2e:f9:57:b5, 2085-97-178 253:114:00:4441,-0.282,0.043,2.088,364.624,134.888,94.971,-10.844,5.444,-72.153
 15:05:34.545,eb:33:2e:f9:57:b5, 2085-97-180 253:237:00:4761,-0.294,0.083,2.249,368.835,123.535,89.05,-7.097,6.855,-71.477
 15:05:34.545,eb:33:2e:f9:57:b5, 2085-97-124 253:68:01:4991,-0.34,0.145,2.386,376.526,111.389,93.018,-3.235,8.108,-70.675
 15:05:34.545,eb:33:2e:f9:57:b5, 2085-97-244 252:246:00:5381,-0.412,0.152,2.508,384.033,109.253,102.234,0.714,9.218,-69.736
 15:05:34.545,eb:33:2e:f9:57:b5, 2085-97-140 252:05:00:5901,-0.444,0.072,2.763,390.503,108.704,114.807,4.818,10.267,-68.571
 15:05:34.573,eb:33:2e:f9:57:b5, 2085-97-66 252:126:254:6195,-0.502,-0.082,2.96,391.846,101.074,129.15,8.992,11.157,-67.231
 15:05:34.573,eb:33:2e:f9:57:b5, 2085-97-129 251:147:251:6403,-0.753,-0.341,3.092,381.348,89.417,142.151,13.206,11.827,-65.671
 15:05:34.573,eb:33:2e:f9:57:b5, 2085-97-81 248:227:245:6226,-1.048,-0.867,3.132,359.741,73.364,142.273,17.243,12.239,-64.056
 15:05:34.573,eb:33:2e:f9:57:b5, 2085-97-88 247:152:239:5124,-1.137,-1.678,2.786,340.332,64.087,123.718,21.083,12.42,-62.54
 15:05:34.633,eb:33:2e:f9:57:b5, 2085-97-120 247:20:235:4205,-0.912,-2.332,2.308,310.059,94.604,79.468,24.615,12.755,-61.293
 15:05:34.633,eb:33:2e:f9:57:b5, 2085-97-89 250:24:233:3704,-0.404,-2.781,1.836,265.015,152.222,28.198,27.74,13.651,-60.244
 15:05:34.633,eb:33:2e:f9:57:b5, 2085-97-225 255:117:233:3936,0.397,-2.89,1.85,202.576,206.97,-15.32,30.295,15.244,-59.315
 15:05:34.633,eb:33:2e:f9:57:b5, 2085-97-124 06:234:235:4569,1.16,-2.672,2.061,136.169,224.06,-29.297,32.234,17.276,-58.348
 15:05:34.662,eb:33:2e:f9:57:b5, 2085-97-55 11:13:237:5113,1.541,-2.39,2.402,81.055,173.157,-2.869,33.591,19.072,-57.376
 15:05:34.662,eb:33:2e:f9:57:b5, 2085-97-97 12:35:235:4531,1.471,-2.463,2.417,41.138,64.575,47.485,34.486,19.913,-56.47
 15:05:34.662,eb:33:2e:f9:57:b5, 2085-97-205 10:100:233:3508,1.239,-2.741,1.954,7.141,-2.625,77.82,34.964,19.72,-55.778
 15:05:34.662,eb:33:2e:f9:57:b5, 2085-97-106 09:144:234:3046,1.152,-2.809,1.563,-36.743,-15.625,83.496,35.013,19.144,-55.14
 15:05:34.692,eb:33:2e:f9:57:b5, 2085-97-59 09:147:238:3190,1.153,-2.462,1.495,-77.82,-10.681,86.67,34.618,18.556,-54.514
 15:05:34.692,eb:33:2e:f9:57:b5, 2085-97-07 09:44:243:3460,1.073,-1.879,1.631,-102.295,-18.799,106.873,33.931,17.902,-53.756
 15:05:34.692,eb:33:2e:f9:57:b5, 2085-97-200 07:36:246:3350,0.835,-1.384,1.699,-122.498,-33.997,134.949,33.069,16.99,-52.872
 15:05:34.692,eb:33:2e:f9:57:b5, 2085-97-128 05:179:247:2808,0.354,-1.131,1.504,-145.142,-32.043,151.978,32.02,15.908,-51.795
 15:05:34.814,eb:33:2e:f9:57:b5, 2085-97-36 248:137:22:6535,-1.272,-0.093,2.76,-192.322,20.996,127.686,30.762,15.073,-50.543
 15:05:34.814,eb:33:2e:f9:57:b5, 2085-97-112 250:127:32:1966,-0.25,3.887,1.07,-322.815,-30.457,67.932,28.295,14.65,-49.878
 15:05:34.814,eb:33:2e:f9:57:b5, 2085-97-193 255:168:04:2335,0.411,2.363,0.629,-491.394,-82.031,-18.494,24.038,14.002,-50.043
 15:05:34.814,eb:33:2e:f9:57:b5, 2085-97-214 05:114:247:3013,0.508,-0.801,1.602,-492.981,-91.248,-42.236,18.809,13.304,-50.713
 15:05:34.814,eb:33:2e:f9:57:b5, 2085-97-168 01:79:249:3302,-0.218,-0.874,1.422,-401.367,-48.279,-56.396,14.211,12.755,-51.427
 15:05:34.814,eb:33:2e:f9:57:b5, 2085-113-58 00:152:254:-4365,-0.452,-0.929,1.892,-307.007,-18.982,-83.008,10.519,12.656,-52.224
 15:05:34.814,eb:33:2e:f9:57:b5, 2085-97-248 251:214:252:3368,-0.405,-0.829,1.894,-279.48,-29.846,-83.862,8.976,12.601,-52.674
 15:05:34.815,eb:33:2e:f9:57:b5, 2085-97-225 252:212:254:2833,-0.582,-0.018,1.388,-231.628,-48.157,-54.688,6.284,12.266,-53.492
 15:05:34.815,eb:33:2e:f9:57:b5, 2085-97-167 250:138:252:3094,-0.465,-0.383,1.509,-175.049,-62.988,-7.935,4.18,11.772,-53.833
 15:05:34.817,eb:33:2e:f9:57:b5, 2085-97-121 254:179:252:2235,0.031,-0.442,1.312,-119.934,-98.083,8.667,2.752,10.904,-53.86
 15:05:34.817,eb:33:2e:f9:57:b5, 2085-97-103 00:09:254:1679,-0.006,-0.327,0.866,-89.355,-85.205,-6.531,1.714,9.97,-53.899
 15:05:34.817,eb:33:2e:f9:57:b5, 2085-97-162 254:122:253:2079,-0.211,-0.234,0.891,-62.744,-62.988,-0.977,0.945,9.25,-53.998
 15:05:34.817,eb:33:2e:f9:57:b5, 2085-97-253 254:203:254:2019,0.02,-0.249,1.042,-33.142,-65.308,7.812,0.5,8.613,-53.954
 15:05:34.963,eb:33:2e:f9:57:b5, 2085-97-133 00:73:255:1828,0.034,-0.097,0.909,-26.062,-57.495,3.784,0.22,7.982,-53.926
 15:05:34.963,eb:33:2e:f9:57:b5, 2085-97-166 255:47:255:1946,-0.109,-0.107,0.909,-19.226,-39.124,4.395,-0.011,7.504,-53.888
 15:05:34.963,eb:33:2e:f9:57:b5, 2085-97-43 255:51:255:2052,-0.07,-0.101,0.992,-12.695,-33.447,4.761,-0.154,7.152,-53.871
 15:05:34.963,eb:33:2e:f9:57:b5, 2085-97-188 255:185:255:1988,-0.014,-0.059,0.99,-8.972,-31.067,4.211,-0.264,6.823,-53.828
 15:05:34.965,eb:33:2e:f9:57:b5, 2085-97-232 255:201:255:1993,-0.035,-0.034,0.967,-7.874,-23.621,5.859,-0.341,6.548,-53.806
 15:05:34.965,eb:33:2e:f9:57:b5, 2085-97-126 255:00:00:2102,-0.076,-0.012,0.997,-8.362,-16.052,7.263,-0.428,6.356,-53.74
 15:05:34.965,eb:33:2e:f9:57:b5, 2085-97-123 255:240:255:2104,-0.044,-0.001,1.038,-9.277,-13.916,9.155,-0.505,6.207,-53.679
 15:05:34.965,eb:33:2e:f9:57:b5, 2085-97-225 255:222:255:1992,-0.007,-0.013,1.002,-9.521,-10.864,11.169,-0.604,6.075,-53.58
 15:05:34.967,eb:33:2e:f9:57:b5, 2085-97-227 255:210:255:1980,-0.041,-0.025,0.961,-8.179,-4.578,13.611,-0.681,5.999,-53.481
 15:05:34.967,eb:33:2e:f9:57:b5, 2085-97-125 255:226:255:2065,-0.101,-0.017,0.991,-7.141,-0.183,15.564,-0.753,5.982,-53.333
 15:05:34.967,eb:33:2e:f9:57:b5, 2085-97-235 254:199:255:2184,-0.134,-0.026,1.034,-7.202,0.305,16.296,-0.807,5.988,-53.201
 15:05:34.967,eb:33:2e:f9:57:b5, 2085-97-246 254:227:255:2174,-0.125,-0.027,1.065,-6.958,-4.395,17.639,-0.873,5.96,-53.031
 15:05:34.993,eb:33:2e:f9:57:b5, 2085-97-01 255:209:255:2134,-0.136,-0.021,1.048,-7.263,-7.751,18.433,-0.923,5.9,-52.877
 15:05:34.993,eb:33:2e:f9:57:b5, 2085-97-247 254:164:255:2100,-0.1,-0.033,1.042,-6.104,-13.123,18.86,-0.983,5.79,-52.685
 15:05:34.993,eb:33:2e:f9:57:b5, 2085-97-91 255:175:255:2048,-0.076,-0.042,1,-4.7,-17.7,18.188,-1.022,5.63,-52.531
 15:05:34.993,eb:33:2e:f9:57:b5, 2085-97-124 255:228:255:2045,-0.074,-0.032,0.997,-4.456,-18.921,17.517,-1.06,5.444,-52.35
 15:05:35.023,eb:33:2e:f9:57:b5, 2085-97-165 255:252:255:2060,-0.017,-0.011,1.019,-7.141,-17.944,15.564,-1.099,5.262,-52.207
 15:05:35.023,eb:33:2e:f9:57:b5, 2085-97-08 00:01:00:1990,0.017,0.005,0.993,-11.23,-12.939,13.672,-1.192,5.103,-52.064
 15:05:35.023,eb:33:2e:f9:57:b5, 2085-97-13 00:238:255:1975,-0.006,0,0.963,-14.282,-4.028,12.634,-1.313,5.026,-51.96
 15:05:35.023,eb:33:2e:f9:57:b5, 2085-97-227 255:223:255:2009,-0.035,-0.017,0.971,-17.761,4.517,11.353,-1.472,5.032,-51.839
 15:05:35.083,eb:33:2e:f9:57:b5, 2085-97-168 255:218:255:2057,-0.07,-0.025,0.989,-20.569,10.254,10.437,-1.659,5.114,-51.762
 15:05:35.083,eb:33:2e:f9:57:b5, 2085-97-101 255:183:255:2115,-0.089,-0.031,1.024,-22.217,12.024,10.01,-1.879,5.229,-51.663
 15:05:35.083,eb:33:2e:f9:57:b5, 2085-97-62 255:168:255:2166,-0.1,-0.04,1.052,-25.269,12.268,8.667,-2.109,5.35,-51.603
 15:05:35.083,eb:33:2e:f9:57:b5, 2085-97-51 255:157:255:2133,-0.077,-0.047,1.042,-28.625,11.597,6.958,-2.384,5.466,-51.531
 15:05:35.172,eb:33:2e:f9:57:b5, 2085-97-161 255:143:255:2043,-0.04,-0.051,1.021,-31.128,11.414,5.859,-2.681,5.581,-51.498
 15:05:35.172,eb:33:2e:f9:57:b5, 2085-97-225 255:120:255:1946,-0.024,-0.056,0.991,-31.677,12.756,6.653,-2.999,5.702,-51.449
 15:05:35.172,eb:33:2e:f9:57:b5, 2085-97-186 255:133:255:2027,-0.033,-0.064,0.962,-31.982,16.663,7.874,-3.312,5.856,-51.411
 15:05:35.172,eb:33:2e:f9:57:b5, 2085-97-184 255:141:255:2062,-0.031,-0.061,0.998,-33.386,18.982,8.911,-3.647,6.037,-51.339
 15:05:35.174,eb:33:2e:f9:57:b5, 2085-97-172 255:156:255:2091,-0.074,-0.044,1.023,-35.828,23.499,10.742,-3.983,6.251,-51.284
 15:05:35.174,eb:33:2e:f9:57:b5, 2085-97-239 254:106:255:2208,-0.134,-0.076,1.019,-38.757,27.161,11.475,-4.356,6.515,-51.191
 15:05:35.175,eb:33:2e:f9:57:b5, 2085-97-27 255:144:255:2218,-0.067,-0.093,1.048,-41.748,24.475,10.925,-4.752,6.773,-51.13
 15:05:35.175,eb:33:2e:f9:57:b5, 2085-97-99 255:159:255:2274,-0.055,-0.037,1.109,-45.471,24.902,13.794,-5.191,7.02,-51.031
 15:05:35.177,eb:33:2e:f9:57:b5, 2085-97-105 255:223:255:2471,-0.148,-0.018,1.153,-51.331,26.672,17.212,-5.658,7.289,-50.927
 15:05:35.178,eb:33:2e:f9:57:b5, 2085-97-100 254:173:255:2684,-0.2,-0.053,1.211,-60.608,27.1,18.86,-6.213,7.57,-50.762
 15:05:35.179,eb:33:2e:f9:57:b5, 2085-97-132 254:175:255:2750,-0.174,-0.064,1.287,-71.411,21.362,18.616,-6.855,7.822,-50.63
 15:05:35.179,eb:33:2e:f9:57:b5, 2085-97-143 254:208:255:2861,-0.188,-0.009,1.395,-85.815,16.296,17.212,-7.641,8.026,-50.482
 15:05:35.233,eb:33:2e:f9:57:b5, 2085-97-129 254:05:00:3052,-0.192,-0.009,1.417,-100.647,13.062,14.954,-8.558,8.19,-50.372
 15:05:35.233,eb:33:2e:f9:57:b5, 2085-97-135 254:39:00:3202,-0.196,0.009,1.485,-117.981,9.216,11.78,-9.657,8.306,-50.262
 15:05:35.233,eb:33:2e:f9:57:b5, 2085-97-109 254:87:00:3238,-0.198,0.055,1.559,-137.024,5.981,8.179,-10.926,8.388,-50.208
 15:05:35.233,eb:33:2e:f9:57:b5, 2085-97-86 254:209:00:3383,-0.178,0.046,1.622,-159.607,5.31,2.136,-12.42,8.448,-50.169
 15:05:35.292,eb:33:2e:f9:57:b5, 2085-97-203 254:213:01:3625,-0.14,0.156,1.715,-185.852,4.883,-3.662,-14.161,8.487,-50.219
 15:05:35.292,eb:33:2e:f9:57:b5, 2085-97-222 254:230:02:3966,-0.173,0.237,1.846,-218.201,9.277,-8.057,-16.216,8.531,-50.295
 15:05:35.292,eb:33:2e:f9:57:b5, 2085-97-221 253:65:03:4144,-0.389,0.376,2.021,-257.324,9.277,-12.817,-18.622,8.586,-50.455
 15:05:35.292,eb:33:2e:f9:57:b5, 2085-97-25 252:169:03:4644,-0.579,0.444,2.155,-302.673,6.653,-23.56,-21.478,8.602,-50.663
 15:05:35.294,eb:33:2e:f9:57:b5, 2085-97-208 250:68:04:4948,-0.686,0.49,2.388,-353.76,-10.742,-40.161,-24.824,8.448,-50.988
 15:05:35.294,eb:33:2e:f9:57:b5, 2085-97-127 250:85:04:5492,-0.677,0.532,2.559,-409.18,-34.607,-59.814,-28.724,8.009,-51.339
 15:05:35.295,eb:33:2e:f9:57:b5, 2085-97-207 250:97:02:6162,-0.599,0.364,2.824,-461.243,-69.092,-76.416,-33.162,7.202,-51.663
 15:05:35.296,eb:33:2e:f9:57:b5, 2085-97-60 251:96:00:5999,-0.602,0.09,2.94,-501.282,-102.478,-88.501,-38.029,5.982,-51.806
 15:05:35.353,eb:33:2e:f9:57:b5, 2085-97-66 248:14:253:6978,-1.043,-0.424,2.67,-509.521,-84.717,-96.069,-43.132,4.653,-51.839
 15:05:35.353,eb:33:2e:f9:57:b5, 2085-113-81 00:81:150:11680,-0.624,0.463,3.453,-515.564,-161.682,-115.479,-48.214,2.994,-51.784
 15:05:35.353,eb:33:2e:f9:57:b5, 2085-97-128 252:177:02:3937,-0.614,0.667,2.658,-528.381,-165.527,-108.704,-50.823,2.021,-51.498
 15:05:35.353,eb:33:2e:f9:57:b5, 2085-97-09 249:88:03:4012,-1.032,0.216,1.949,-533.447,-61.707,-135.559,-56.135,0.374,-51.328
 15:05:35.383,eb:33:2e:f9:57:b5, 2085-97-02 248:123:05:2007,-1.234,0.58,1.702,-534.485,36.682,-155.64,-61.485,-0.912,-52.02
 15:05:35.383,eb:33:2e:f9:57:b5, 2085-97-219 241:151:02:-1829,-1.414,0.762,-0.5,-433.105,201.416,-214.478,-66.429,-2.087,-53.833
 15:05:35.383,eb:33:2e:f9:57:b5, 2085-97-111 247:161:10:1181,-0.869,0.642,-0.369,-172.058,254.211,-267.029,-69.291,-3.609,-57.129
 15:05:35.383,eb:33:2e:f9:57:b5, 2085-97-193 248:237:15:3362,-0.958,1.814,1.222,92.529,145.63,-208.13,-69.252,-5.12,-59.815
 15:05:35.414,eb:33:2e:f9:57:b5, 2085-97-252 248:28:15:3710,-0.747,2.001,1.876,223.45,30.884,-158.325,-67.346,-6.482,-61.232
 15:05:35.414,eb:33:2e:f9:57:b5, 2085-97-217 250:54:12:2293,-0.565,1.711,1.506,239.624,-13.062,-149.414,-64.88,-7.866,-61.837
 15:05:35.414,eb:33:2e:f9:57:b5, 2085-97-10 252:249:09:961,-0.409,1.365,0.76,222.168,16.235,-154.785,-62.474,-9.234,-62.507
 15:05:35.414,eb:33:2e:f9:57:b5, 2085-97-112 253:223:08:229,-0.24,1.157,0.236,214.966,78.064,-159.058,-60.095,-10.377,-63.715
 15:05:35.473,eb:33:2e:f9:57:b5, 2085-97-149 254:59:09:340,-0.145,1.11,0.098,237.976,135.437,-149.231,-57.513,-11.129,-65.5
 15:05:35.475,eb:33:2e:f9:57:b5, 2085-97-249 254:56:10:1092,-0.098,1.223,0.327,285.217,158.691,-121.338,-54.465,-11.393,-67.555
 15:05:35.475,eb:33:2e:f9:57:b5, 2085-97-141 255:80:10:1759,-0.017,1.306,0.723,329.529,144.653,-85.022,-50.993,-11.277,-69.423
 15:05:35.475,eb:33:2e:f9:57:b5, 2085-97-50 00:58:09:1963,0.064,1.234,0.941,350.22,124.634,-53.772,-47.263,-10.909,-70.9
 15:05:35.533,eb:33:2e:f9:57:b5, 2085-97-184 00:199:07:1829,0.093,1.059,0.932,349.67,119.507,-30.579,-43.539,-10.355,-72.059
 15:05:35.533,eb:33:2e:f9:57:b5, 2085-97-191 00:152:06:1660,0.068,0.892,0.858,341.675,130.249,-11.353,-39.891,-9.553,-73.054
 15:05:35.533,eb:33:2e:f9:57:b5, 2085-97-100 00:68:06:1741,0.031,0.795,0.819,337.891,153.625,4.944,-36.365,-8.443,-73.96
 15:05:35.533,eb:33:2e:f9:57:b5, 2085-97-06 00:66:06:2068,-0.016,0.786,0.911,341.858,173.889,21.851,-32.838,-6.993,-74.795
 15:05:35.533,eb:33:2e:f9:57:b5, 2085-97-196 255:231:05:2530,-0.037,0.774,1.131,350.159,182.861,39.001,-29.301,-5.295,-75.454
 15:05:35.533,eb:33:2e:f9:57:b5, 2085-97-184 255:93:05:2890,-0.027,0.707,1.329,355.713,185.242,51.025,-25.708,-3.439,-75.899
 15:05:35.533,eb:33:2e:f9:57:b5, 2085-97-236 255:10:05:3290,0.018,0.646,1.508,357.361,188.354,59.082,-22.126,-1.505,-76.152
 15:05:35.533,eb:33:2e:f9:57:b5, 2085-97-93 00:40:05:3706,0.059,0.634,1.721,359.619,186.584,67.932,-18.523,0.483,-76.212
 15:05:35.623,eb:33:2e:f9:57:b5, 2085-97-108 00:61:05:4154,0.054,0.656,1.921,367.126,174.438,82.764,-14.886,2.433,-76.02
 15:05:35.623,eb:33:2e:f9:57:b5, 2085-97-93 00:242:04:4323,0.02,0.643,2.079,377.441,152.405,101.379,-11.096,4.23,-75.476
 15:05:35.623,eb:33:2e:f9:57:b5, 2085-97-225 255:172:04:4684,-0.041,0.596,2.175,386.475,142.09,118.958,-7.191,5.839,-74.63
 15:05:35.623,eb:33:2e:f9:57:b5, 2085-97-123 255:171:04:5341,-0.104,0.583,2.435,391.296,137.817,136.597,-3.137,7.35,-73.466
 15:05:35.625,eb:33:2e:f9:57:b5, 2085-97-216 254:213:03:6079,-0.214,0.559,2.796,394.47,121.643,161.499,1,8.685,-72.004
 15:05:35.625,eb:33:2e:f9:57:b5, 2085-97-142 254:200:00:6433,-0.136,0.311,3.118,393.555,91.553,188.599,5.279,9.641,-70.159
 15:05:35.625,eb:33:2e:f9:57:b5, 2085-97-70 255:46:253:6226,-0.142,-0.131,3.099,378.174,85.938,202.82,9.503,10.228,-68.082
 15:05:35.625,eb:33:2e:f9:57:b5, 2085-97-74 254:111:249:6496,-0.364,-0.588,3.101,360.474,98.389,210.693,13.623,10.739,-65.819
 15:05:35.654,eb:33:2e:f9:57:b5, 2085-97-24 249:178:243:6989,-1.136,-1.115,3.3,353.577,73.975,216.431,17.639,11.03,-63.484
 15:05:35.654,eb:33:2e:f9:57:b5, 2085-97-118 246:177:236:5731,-1.196,-1.986,3.183,357.056,-1.282,206.36,21.627,10.602,-61.342
 15:05:35.654,eb:33:2e:f9:57:b5, 2085-97-189 246:50:232:4257,-1.087,-2.723,2.441,332.581,-4.089,159.241,25.4,9.783,-59.7
 15:05:35.654,eb:33:2e:f9:57:b5, 2085-97-67 249:196:229:3032,-0.571,-3.172,1.705,271.057,68.359,91.125,28.63,9.498,-58.453
 15:05:35.743,eb:33:2e:f9:57:b5, 2085-97-195 253:15:230:3750,0.102,-3.315,1.592,196.472,173.462,30.029,31.135,10.338,-57.327
 15:05:35.743,eb:33:2e:f9:57:b5, 2085-97-01 04:140:232:4622,0.805,-3.087,2.035,136.78,200.134,9.277,32.992,11.926,-56.14
 15:05:35.743,eb:33:2e:f9:57:b5, 2085-97-230 07:198:232:5167,0.975,-2.848,2.474,91.858,146.545,30.884,34.365,13.288,-55.003
 15:05:35.743,eb:33:2e:f9:57:b5, 2085-97-200 06:188:229:4534,0.667,-3.062,2.432,50.415,62.805,56.152,35.288,13.848,-54.025
 15:05:35.743,eb:33:2e:f9:57:b5, 2085-97-17 04:117:227:3407,0.412,-3.484,1.937,9.277,7.812,51.819,35.722,13.749,-53.405
 15:05:35.743,eb:33:2e:f9:57:b5, 2085-97-105 03:124:230:2932,0.537,-3.444,1.461,-32.959,3.723,19.226,35.662,13.557,-53.097
 15:05:35.743,eb:33:2e:f9:57:b5, 2085-97-64 05:51:236:3107,0.761,-2.851,1.457,-66.589,11.902,0,35.162,13.59,-53.015
 15:05:35.744,eb:33:2e:f9:57:b5, 2085-97-231 252:36:36:15473,3.607,-2.105,1.561,-93.262,7.629,10.071,34.354,13.661,-52.932
 15:05:35.773,eb:33:2e:f9:57:b5, 2085-97-04 09:112:20:-3648,1.213,0.144,-1.585,-361.816,-182.19,5.981,31.641,12.81,-53.372
 15:05:35.773,eb:33:2e:f9:57:b5, 2085-97-219 06:234:10:144,0.187,2.327,-1.253,-483.948,-7.874,55.786,27.345,11.832,-53.481
 15:05:35.773,eb:33:2e:f9:57:b5, 2085-97-153 253:22:251:4348,-0.35,0.191,1.397,-525.452,52.002,50.476,22.28,11.959,-52.866
 15:05:35.773,eb:33:2e:f9:57:b5, 2085-97-132 255:62:248:4171,0.129,-1.003,2.39,-464.111,-13.428,9.399,17.386,11.997,-52.515
 15:05:35.864,eb:33:2e:f9:57:b5, 2085-97-178 01:71:248:3305,0.081,-0.954,1.852,-380.676,-3.296,-39.124,13.156,11.904,-52.74
 15:05:35.864,eb:33:2e:f9:57:b5, 2085-97-151 254:65:250:2739,-0.326,-0.99,1.44,-300.781,37.476,-78.308,9.668,12.228,-53.317
 15:05:35.864,eb:33:2e:f9:57:b5, 2085-97-21 253:182:254:2662,-0.418,-0.398,1.292,-245.3,40.405,-80.811,6.806,12.75,-54.13
 15:05:35.864,eb:33:2e:f9:57:b5, 2085-97-95 251:230:254:2799,-0.65,-0.12,1.276,-201.904,27.405,-41.626,4.449,13.156,-54.728
 15:05:36.013,eb:33:2e:f9:57:b5, 2085-97-218 251:91:252:2460,-0.32,-0.279,1.332,-158.569,-13.855,-7.202,2.62,13.228,-54.959
 15:05:36.013,eb:33:2e:f9:57:b5, 2085-97-208 253:46:251:2031,-0.27,-0.489,1.084,-114.319,-38.879,-3.296,1.247,12.909,-55.009
 15:05:36.013,eb:33:2e:f9:57:b5, 2085-97-07 254:225:252:2056,-0.282,-0.639,0.981,-64.575,-44.678,-6.653,0.368,12.486,-55.096
 15:05:36.013,eb:33:2e:f9:57:b5, 2085-97-190 253:154:254:2141,-0.154,-0.187,1.033,-37.964,-51.147,0.61,-0.121,11.997,-55.129
 15:05:36.042,eb:33:2e:f9:57:b5, 2085-97-187 255:191:254:1838,-0.036,-0.212,0.982,-25.085,-52.368,-2.258,-0.428,11.459,-55.157
 15:05:36.042,eb:33:2e:f9:57:b5, 2085-97-184 254:11:255:2004,-0.235,-0.126,0.891,-16.235,-36.072,-1.282,-0.648,11.014,-55.179
 15:05:36.042,eb:33:2e:f9:57:b5, 2085-97-67 254:230:254:2102,-0.14,-0.123,1.034,-8.545,-38.391,-0.427,-0.769,10.657,-55.212
 15:05:36.042,eb:33:2e:f9:57:b5, 2085-97-44 255:122:255:1992,-0.082,-0.107,0.987,-2.686,-39.429,0.183,-0.835,10.25,-55.212
 15:05:36.044,eb:33:2e:f9:57:b5, 2085-97-121 255:255:255:1999,-0.072,-0.022,0.972,-3.052,-31.067,0.61,-0.857,9.893,-55.228
 15:05:36.044,eb:33:2e:f9:57:b5, 2085-97-120 255:251:255:2022,-0.057,0,0.986,-6.531,-20.752,1.343,-0.917,9.635,-55.217
 15:05:36.044,eb:33:2e:f9:57:b5, 2085-97-165 255:10:00:1989,-0.052,-0.002,0.986,-8.24,-11.597,3.845,-0.989,9.476,-55.217
 15:05:36.044,eb:33:2e:f9:57:b5, 2085-97-126 255:233:255:2029,-0.069,-0.011,0.973,-10.681,-1.343,5.798,-1.088,9.41,-55.168
 15:05:36.048,eb:33:2e:f9:57:b5, 2085-97-104 255:23:00:2067,-0.074,0.005,1.006,-12.634,6.042,8.362,-1.192,9.437,-55.124
 15:05:36.048,eb:33:2e:f9:57:b5, 2085-97-68 255:172:255:1993,-0.151,0.001,0.994,-13.245,11.719,11.475,-1.324,9.531,-55.031
 15:05:36.048,eb:33:2e:f9:57:b5, 2085-97-126 254:92:255:2077,-0.209,-0.081,0.997,-10.925,14.038,12.573,-1.428,9.668,-54.937
 15:05:36.048,eb:33:2e:f9:57:b5, 2085-97-31 254:77:255:2106,-0.259,-0.065,1.026,-6.714,6.104,13,-1.505,9.767,-54.811
 15:05:36.049,eb:33:2e:f9:57:b5, 2085-97-197 253:67:255:2150,-0.298,-0.09,1.045,-3.601,-6.836,12.329,-1.533,9.767,-54.712
 15:05:36.049,eb:33:2e:f9:57:b5, 2085-97-242 253:87:255:2119,-0.211,-0.104,1.054,-1.221,-24.536,10.681,-1.544,9.597,-54.591
 15:05:36.049,eb:33:2e:f9:57:b5, 2085-97-143 254:130:255:2044,-0.134,-0.062,1.017,0.427,-37.354,10.62,-1.527,9.272,-54.503
 15:05:36.049,eb:33:2e:f9:57:b5, 2085-97-54 255:192:255:1984,-0.081,-0.033,0.985,-0.061,-40.466,10.193,-1.522,8.877,-54.393
 15:05:36.133,eb:33:2e:f9:57:b5, 2085-97-165 255:238:255:1970,-0.049,-0.026,0.969,-2.625,-35.706,9.338,-1.516,8.492,-54.311
 15:05:36.133,eb:33:2e:f9:57:b5, 2085-97-129 255:255:255:2041,-0.088,0,0.978,-6.531,-27.1,8.911,-1.56,8.179,-54.212
 15:05:36.133,eb:33:2e:f9:57:b5, 2085-97-22 255:234:255:2121,-0.114,-0.003,1.021,-10.071,-22.095,8.972,-1.637,7.938,-54.146
 15:05:36.133,eb:33:2e:f9:57:b5, 2085-97-184 254:150:255:2129,-0.09,-0.013,1.028,-12.695,-21.912,8.545,-1.752,7.718,-54.058
 15:05:36.135,eb:33:2e:f9:57:b5, 2085-97-00 255:112:255:2039,-0.158,-0.033,1,-13.062,-22.278,7.935,-1.868,7.487,-53.992
 15:05:36.135,eb:33:2e:f9:57:b5, 2085-97-228 254:71:255:2022,-0.114,-0.083,1.001,-12.207,-26.855,6.592,-1.994,7.245,-53.915
 15:05:36.135,eb:33:2e:f9:57:b5, 2085-97-86 255:87:255:1985,-0.067,-0.1,0.978,-11.047,-30.64,4.944,-2.104,6.949,-53.877
 15:05:36.135,eb:33:2e:f9:57:b5, 2085-97-136 255:191:255:2054,-0.066,-0.055,0.979,-12.329,-29.236,3.906,-2.225,6.647,-53.822
 15:05:36.164,eb:33:2e:f9:57:b5, 2085-97-109 255:191:255:2133,-0.062,-0.039,1.022,-16.602,-24.963,3.052,-2.368,6.372,-53.806
 15:05:36.164,eb:33:2e:f9:57:b5, 2085-97-198 255:21:00:2165,0.012,-0.005,1.063,-21.301,-19.958,3.296,-2.565,6.147,-53.767
 15:05:36.164,eb:33:2e:f9:57:b5, 2085-97-76 00:36:00:2106,0.039,0.021,1.039,-27.771,-8.423,5.127,-2.807,5.999,-53.745
 15:05:36.164,eb:33:2e:f9:57:b5, 2085-97-181 255:50:00:2307,-0.06,0.01,1.024,-33.936,7.69,8.301,-3.126,5.999,-53.679
 15:05:36.223,eb:33:2e:f9:57:b5, 2085-97-139 255:38:00:2398,-0.059,-0.034,1.096,-39.612,12.451,11.169,-3.488,6.103,-53.608
 15:05:36.223,eb:33:2e:f9:57:b5, 2085-97-17 00:233:255:2297,0.029,-0.017,1.139,-43.213,7.629,16.724,-3.9,6.218,-53.476
 15:05:36.223,eb:33:2e:f9:57:b5, 2085-97-210 255:10:00:2490,-0.08,-0.052,1.081,-49.866,13.184,19.47,-4.351,6.312,-53.322
 15:05:36.223,eb:33:2e:f9:57:b5, 2085-97-216 254:169:255:2603,-0.173,-0.014,1.22,-57.495,12.268,24.841,-4.878,6.454,-53.113
 15:05:36.223,eb:33:2e:f9:57:b5, 2085-113-81 00:145:141:549,-0.159,-0.019,1.341,-67.139,4.883,26.611,-5.477,6.564,-52.888
 15:05:36.223,eb:33:2e:f9:57:b5, 2085-97-196 254:222:255:2778,-0.165,-0.023,1.347,-73.303,0.366,26.55,-5.812,6.586,-52.756
 15:05:36.223,eb:33:2e:f9:57:b5, 2085-97-222 254:210:255:2889,-0.112,-0.024,1.426,-85.999,-7.202,25.33,-6.597,6.575,-52.498
 15:05:36.223,eb:33:2e:f9:57:b5, 2085-97-95 255:00:00:2858,-0.05,-0.031,1.403,-100.83,-11.414,22.705,-7.504,6.498,-52.273
 15:05:36.224,eb:33:2e:f9:57:b5, 2085-97-244 255:106:00:3089,0.021,0.02,1.463,-116.699,-7.874,19.897,-8.586,6.432,-52.053
 15:05:36.343,eb:33:2e:f9:57:b5, 2085-97-236 255:216:00:3119,-0.049,0.075,1.539,-135.437,-5.31,18.433,-9.833,6.394,-51.877
 15:05:36.343,eb:33:2e:f9:57:b5, 2085-97-51 255:180:00:3287,-0.148,0.085,1.564,-156.799,2.563,16.235,-11.294,6.416,-51.702
 15:05:36.343,eb:33:2e:f9:57:b5, 2085-97-55 254:04:01:3328,-0.254,0.09,1.616,-180.115,4.15,11.23,-12.975,6.471,-51.603
 15:05:36.344,eb:33:2e:f9:57:b5, 2085-97-18 254:119:01:3562,-0.221,0.126,1.703,-208.13,2.136,2.319,-14.93,6.52,-51.548
 15:05:36.344,eb:33:2e:f9:57:b5, 2085-97-02 254:47:02:3744,-0.31,0.209,1.761,-239.563,4.883,-6.775,-17.188,6.526,-51.608
 15:05:36.344,eb:33:2e:f9:57:b5, 2085-97-179 252:178:02:3983,-0.478,0.278,1.883,-276.001,4.517,-17.212,-19.803,6.542,-51.74
 15:05:36.344,eb:33:2e:f9:57:b5, 2085-97-126 251:32:03:4338,-0.67,0.368,2.057,-317.139,-5.554,-29.175,-22.813,6.443,-51.987
 15:05:36.344,eb:33:2e:f9:57:b5, 2085-97-40 250:107:03:4605,-0.789,0.465,2.207,-361.755,-24.902,-43.823,-26.263,6.141,-52.262
 15:05:36.346,eb:33:2e:f9:57:b5, 2085-97-144 249:112:02:5189,-0.852,0.361,2.396,-407.776,-51.819,-62.439,-30.174,5.554,-52.575
 15:05:36.346,eb:33:2e:f9:57:b5, 2085-97-70 249:134:255:5921,-0.776,0.169,2.711,-443.848,-97.656,-77.148,-34.481,4.532,-52.767
 15:05:36.346,eb:33:2e:f9:57:b5, 2085-97-249 249:49:252:5782,-0.793,-0.102,2.904,-460.571,-154.968,-88.379,-39.023,2.977,-52.663
 15:05:36.346,eb:33:2e:f9:57:b5, 2085-97-166 249:249:250:5361,-0.959,-0.521,2.633,-460.754,-174.927,-110.107,-43.643,1.038,-52.306
 15:05:36.403,eb:33:2e:f9:57:b5, 2085-97-241 248:68:01:5539,-0.76,-0.145,2.837,-443.115,-209.961,-133.545,-48.153,-1.154,-51.833
 15:05:36.403,eb:33:2e:f9:57:b5, 2085-97-05 250:123:03:3940,-0.911,0.411,2.297,-454.59,-227.112,-134.583,-52.657,-3.664,-50.916
 15:05:36.403,eb:33:2e:f9:57:b5, 2085-97-230 246:01:05:3084,-1.226,0.526,1.701,-484.375,-113.77,-149.353,-57.404,-5.823,-50.328
 15:05:36.403,eb:33:2e:f9:57:b5, 2085-97-208 245:242:04:675,-1.617,0.719,1.021,-500.061,15.564,-167.664,-62.32,-7.416,-50.773
 15:05:36.436,eb:33:2e:f9:57:b5, 2085-97-68 242:84:04:-1104,-1.373,0.57,-0.723,-414.307,183.777,-229.492,-66.725,-8.734,-52.548
 15:05:36.436,eb:33:2e:f9:57:b5, 2085-97-193 247:112:08:778,-0.723,0.494,-0.153,-204.346,240.295,-270.691,-69.318,-10.366,-55.684
 15:05:36.436,eb:33:2e:f9:57:b5, 2085-97-115 250:245:13:1971,-0.812,1.572,0.645,40.649,183.289,-214.233,-69.412,-11.909,-58.557
 15:05:36.436,eb:33:2e:f9:57:b5, 2085-97-66 249:99:13:3422,-0.694,1.776,1.423,198.547,96.619,-143.066,-67.61,-13.019,-60.546
 15:05:36.495,eb:33:2e:f9:57:b5, 2085-97-193 251:113:11:2832,-0.464,1.554,1.626,248.474,24.597,-104.431,-65.05,-13.903,-61.512
 15:05:36.495,eb:33:2e:f9:57:b5, 2085-97-151 252:189:09:1668,-0.365,1.328,1.114,240.784,16.785,-89.783,-62.435,-14.683,-62.1
 15:05:36.495,eb:33:2e:f9:57:b5, 2085-97-156 253:60:08:598,-0.219,1.11,0.518,232.239,42.664,-75.928,-59.908,-15.266,-62.77
 15:05:36.495,eb:33:2e:f9:57:b5, 2085-97-197 254:174:07:193,-0.116,0.978,0.14,239.258,89.905,-59.265,-57.294,-15.48,-63.737
 15:05:36.524,eb:33:2e:f9:57:b5, 2085-97-48 255:227:07:577,-0.106,0.966,0.151,261.047,133.789,-35.4,-54.459,-15.222,-64.995
 15:05:36.524,eb:33:2e:f9:57:b5, 2085-97-37 255:18:08:1324,-0.099,1.004,0.46,288.696,148.071,-3.174,-51.345,-14.485,-66.313
 15:05:36.524,eb:33:2e:f9:57:b5, 2085-97-110 255:132:07:1818,-0.054,0.986,0.804,309.875,133.972,31.555,-48.093,-13.453,-67.319
 15:05:36.524,eb:33:2e:f9:57:b5, 2085-97-146 255:98:06:1860,-0.052,0.874,0.917,321.472,113.647,62.988,-44.78,-12.244,-67.885
 15:05:36.553,eb:33:2e:f9:57:b5, 2085-97-147 255:45:05:1682,-0.064,0.718,0.866,328.613,104.797,88.379,-41.49,-10.931,-68.055
 15:05:36.553,eb:33:2e:f9:57:b5, 2085-97-67 255:71:04:1625,-0.13,0.588,0.789,335.876,114.38,106.689,-38.161,-9.454,-67.994
 15:05:36.553,eb:33:2e:f9:57:b5, 2085-97-219 254:164:03:1905,-0.158,0.488,0.85,344.055,134.277,119.08,-34.783,-7.773,-67.819
 15:05:36.553,eb:33:2e:f9:57:b5, 2085-97-177 254:23:03:2051,-0.186,0.423,0.965,350.403,155.579,123.901,-31.311,-5.878,-67.599
 15:05:36.643,eb:33:2e:f9:57:b5, 2085-97-74 254:219:02:2501,-0.229,0.36,1.081,360.901,173.523,127.136,-27.779,-3.812,-67.319
 15:05:36.643,eb:33:2e:f9:57:b5, 2085-97-30 254:178:02:3180,-0.236,0.352,1.39,369.812,175.354,129.089,-24.109,-1.659,-66.94
 15:05:36.643,eb:33:2e:f9:57:b5, 2085-97-21 254:37:02:3657,-0.235,0.312,1.688,370.544,159.79,128.296,-20.407,0.379,-66.396
 15:05:36.643,eb:33:2e:f9:57:b5, 2085-97-59 254:128:01:3870,-0.198,0.225,1.845,365.356,139.465,124.268,-16.688,2.197,-65.671
 15:05:36.643,eb:33:2e:f9:57:b5, 2085-97-134 254:80:01:4157,-0.176,0.164,1.944,359.863,125.183,120.178,-13.024,3.774,-64.847
 15:05:36.643,eb:33:2e:f9:57:b5, 2085-97-152 254:158:01:4429,-0.183,0.178,2.106,358.337,110.413,121.216,-9.338,5.164,-63.896
 15:05:36.643,eb:33:2e:f9:57:b5, 2085-97-81 254:218:01:4778,-0.246,0.224,2.214,361.328,97.168,129.639,-5.63,6.339,-62.809
 15:05:36.643,eb:33:2e:f9:57:b5, 2085-97-174 253:101:01:5357,-0.34,0.22,2.467,363.464,88.44,143.433,-1.813,7.355,-61.49
 15:05:36.672,eb:33:2e:f9:57:b5, 2085-97-253 252:179:255:5822,-0.377,0.086,2.755,362,77.332,157.532,2.016,8.174,-59.991
 15:05:36.672,eb:33:2e:f9:57:b5, 2085-97-34 253:145:253:5772,-0.406,-0.177,2.854,360.657,67.932,169.556,5.911,8.778,-58.282
 15:05:36.672,eb:33:2e:f9:57:b5, 2085-97-91 252:251:250:6016,-0.485,-0.449,2.853,357.605,66.284,179.26,9.794,9.201,-56.459
 15:05:36.672,eb:33:2e:f9:57:b5, 2085-97-126 249:191:246:6031,-1.114,-0.846,2.925,348.145,58.96,178.955,13.661,9.459,-54.531
 15:05:36.703,eb:33:2e:f9:57:b5, 2085-97-218 246:107:240:5227,-1.15,-1.571,2.893,342.346,22.278,165.649,17.408,9.377,-52.756
 15:05:36.703,eb:33:2e:f9:57:b5, 2085-97-153 246:06:236:4083,-1.146,-2.238,2.257,324.28,25.208,124.756,21.017,9.086,-51.295
 15:05:36.703,eb:33:2e:f9:57:b5, 2085-97-33 248:72:233:3163,-0.773,-2.708,1.758,281.677,73.303,63.782,24.208,9.179,-50.279
 15:05:36.703,eb:33:2e:f9:57:b5, 2085-97-03 252:133:233:3347,-0.115,-2.864,1.509,224.182,148.743,5.188,26.867,10.091,-49.488
 15:05:36.764,eb:33:2e:f9:57:b5, 2085-97-119 02:67:236:3949,0.715,-2.673,1.769,161.926,195.068,-28.931,28.894,11.744,-48.818
 15:05:36.764,eb:33:2e:f9:57:b5, 2085-113-58 00:171:250:-5085,1.04,-2.274,2.107,111.145,179.443,-16.907,30.394,13.546,-48.071
 15:05:36.764,eb:33:2e:f9:57:b5, 2085-97-221 09:201:238:4791,1.282,-2.16,2.263,91.797,147.644,3.235,30.987,14.255,-47.703
 15:05:36.764,eb:33:2e:f9:57:b5, 2085-97-205 09:74:236:4336,1.09,-2.267,2.288,62.622,62.439,50.903,31.943,14.969,-46.895
 15:05:36.796,eb:33:2e:f9:57:b5, 2085-97-135 07:83:233:3371,0.828,-2.672,1.891,34.058,1.709,77.942,32.613,14.815,-46.187
 15:05:36.796,eb:33:2e:f9:57:b5, 2085-97-47 06:88:233:2704,0.781,-2.899,1.445,-4.761,-6.592,73.181,32.904,14.337,-45.555
 15:05:36.796,eb:33:2e:f9:57:b5, 2085-97-166 06:40:237:2709,0.917,-2.634,1.277,-45.044,13.489,60.12,32.772,14.019,-44.995
 15:05:36.796,eb:33:2e:f9:57:b5, 2085-97-225 07:45:242:2992,0.827,-2.047,1.387,-72.998,22.156,66.895,32.305,13.854,-44.352
 15:05:36.883,eb:33:2e:f9:57:b5, 2085-97-189 14:09:241:7158,-0.1,0.017,3.995,-196.655,-36.865,101.807,31.509,13.645,-43.533
 15:05:36.883,eb:33:2e:f9:57:b5, 2085-97-41 00:46:11:158,-0.147,1.451,0.133,-349.548,-155.823,64.697,28.29,11.898,-44.083
 15:05:36.883,eb:33:2e:f9:57:b5, 2085-97-246 255:70:09:3622,0.458,1.032,1.259,-395.996,-162.415,62.866,24.456,10.19,-44.176
 15:05:36.883,eb:33:2e:f9:57:b5, 2085-113-81 00:92:140:-6250,0.326,0.384,1.61,-416.931,-143.677,12.817,20.281,8.575,-44.473
 15:05:36.883,eb:33:2e:f9:57:b5, 2085-97-86 04:158:251:3190,0.662,-0.248,1.832,-402.771,-139.771,-6.653,18.199,7.91,-44.698
 15:05:36.914,eb:33:2e:f9:57:b5, 2085-97-204 04:94:248:2697,0.385,-0.843,1.372,-342.59,-103.333,-47.424,14.376,6.768,-45.363
 15:05:36.914,eb:33:2e:f9:57:b5, 2085-97-57 00:44:251:2815,-0.135,-0.874,1.29,-262.939,-46.387,-87.402,11.294,6.246,-46.225
 15:05:36.914,eb:33:2e:f9:57:b5, 2085-97-207 253:217:00:2738,-0.311,-0.257,1.348,-210.999,-36.438,-85.571,8.871,6.021,-47.219
 15:05:36.914,eb:33:2e:f9:57:b5, 2085-97-86 252:207:00:2907,-0.567,0.234,1.345,-183.472,-45.41,-34.119,6.833,5.702,-47.884
 15:05:36.914,eb:33:2e:f9:57:b5, 2085-97-182 251:183:252:2917,-0.21,-0.233,1.469,-142.212,-83.191,15.32,5.197,5.065,-48.01
 15:05:36.914,eb:33:2e:f9:57:b5, 2085-97-209 00:106:251:1899,0.286,-0.559,1.182,-92.041,-112.549,18.982,4.048,3.999,-47.889
 15:05:36.914,eb:33:2e:f9:57:b5, 2085-97-112 02:100:255:1508,0.085,-0.335,0.768,-58.716,-87.524,-0.183,3.34,2.994,-47.911
 15:05:36.914,eb:33:2e:f9:57:b5, 2085-97-209 255:53:254:2075,0.033,-0.099,0.902,-41.626,-61.218,9.949,2.818,2.285,-47.917
 15:05:37.002,eb:33:2e:f9:57:b5, 2085-97-217 01:79:255:1711,0.321,-0.21,0.979,-22.156,-54.138,7.935,2.527,1.714,-47.873
 15:05:37.002,eb:33:2e:f9:57:b5, 2085-97-13 02:183:255:1675,0.087,-0.026,0.773,-17.639,-29.48,3.967,2.324,1.28,-47.84
 15:05:37.002,eb:33:2e:f9:57:b5, 2085-97-207 255:98:255:2071,-0.047,-0.067,0.929,-11.536,-12.268,4.639,2.175,1.104,-47.834
 15:05:37.002,eb:33:2e:f9:57:b5, 2085-97-243 255:181:255:2104,0.046,-0.068,1.041,-5.615,-16.418,3.052,2.082,0.961,-47.802
 15:05:37.032,eb:33:2e:f9:57:b5, 2085-97-154 00:70:00:2038,0.081,0.009,1.002,-4.211,-16.296,3.296,2.038,0.786,-47.812
 15:05:37.032,eb:33:2e:f9:57:b5, 2085-97-165 00:99:00:2062,0.09,0.036,0.996,-6.775,-10.437,4.272,1.967,0.648,-47.78
 15:05:37.032,eb:33:2e:f9:57:b5, 2085-97-159 00:127:00:2087,0.067,0.058,1.01,-9.46,-2.93,6.775,1.884,0.577,-47.758
 15:05:37.032,eb:33:2e:f9:57:b5, 2085-97-115 00:93:00:2104,0.064,0.056,1.024,-13.55,2.808,8.972,1.752,0.577,-47.681
 15:05:37.035,eb:33:2e:f9:57:b5, 2085-97-156 00:90:00:2064,0.098,0.042,1.014,-15.991,6.47,10.986,1.604,0.615,-47.609
 15:05:37.035,eb:33:2e:f9:57:b5, 2085-97-188 00:46:00:2007,0.071,0.04,0.986,-16.968,12.695,13.489,1.423,0.703,-47.483
 15:05:37.035,eb:33:2e:f9:57:b5, 2085-97-29 00:16:00:2109,-0.013,0.013,0.995,-16.418,19.104,15.625,1.258,0.868,-47.362
 15:05:37.035,eb:33:2e:f9:57:b5, 2085-97-248 255:45:00:2140,-0.015,0.02,1.052,-16.357,18.86,15.564,1.088,1.049,-47.203
 15:05:37.063,eb:33:2e:f9:57:b5, 2085-97-217 255:244:255:2122,-0.048,0.007,1.046,-15.991,18.372,16.296,0.923,1.236,-47.071
 15:05:37.063,eb:33:2e:f9:57:b5, 2085-97-130 255:234:255:2139,-0.075,-0.006,1.043,-15.747,15.93,15.015,0.758,1.401,-46.912
 15:05:37.063,eb:33:2e:f9:57:b5, 2085-97-101 255:199:255:2135,-0.074,-0.018,1.048,-15.442,9.033,13.367,0.604,1.522,-46.802
 15:05:37.063,eb:33:2e:f9:57:b5, 2085-97-161 255:215:255:2083,-0.021,-0.038,1.032,-13.611,0.61,12.024,0.45,1.56,-46.675
 15:05:37.122,eb:33:2e:f9:57:b5, 2085-97-02 00:229:255:2059,-0.011,-0.015,1.005,-12.085,-3.723,10.803,0.324,1.538,-46.593
 15:05:37.122,eb:33:2e:f9:57:b5, 2085-113-58 00:30:00:-3855,-0.011,-0.01,1.024,-14.099,-2.991,8.911,0.187,1.5,-46.5
 15:05:37.122,eb:33:2e:f9:57:b5, 2085-97-04 00:28:00:2094,0.009,0.001,1.04,-16.052,-2.38,8.24,0.11,1.483,-46.489
 15:05:37.122,eb:33:2e:f9:57:b5, 2085-97-31 00:14:00:2064,0.032,0.015,1.012,-18.86,-0.427,7.263,-0.071,1.461,-46.412
 15:05:37.154,eb:33:2e:f9:57:b5, 2085-97-65 00:31:00:2092,0.017,0.001,1.012,-21.423,2.991,6.47,-0.275,1.478,-46.373
 15:05:37.154,eb:33:2e:f9:57:b5, 2085-97-17 00:239:255:2089,-0.004,-0.007,1.009,-24.414,6.226,6.287,-0.516,1.522,-46.313
 15:05:37.154,eb:33:2e:f9:57:b5, 2085-97-172 255:150:255:2142,-0.076,-0.037,1.016,-26.55,7.202,5.188,-0.775,1.593,-46.285
 15:05:37.154,eb:33:2e:f9:57:b5, 2085-97-247 254:51:255:2187,-0.075,-0.021,1.125,-28.748,3.601,4.395,-1.066,1.648,-46.247
 15:05:37.243,eb:33:2e:f9:57:b5, 2085-97-255 255:179:255:2083,0.053,-0.044,1.087,-29.297,-6.653,1.831,-1.351,1.62,-46.252
 15:05:37.243,eb:33:2e:f9:57:b5, 2085-97-47 00:209:255:2101,0.022,-0.006,1.005,-31.555,-3.296,2.319,-1.67,1.56,-46.236
 15:05:37.243,eb:33:2e:f9:57:b5, 2085-97-70 00:212:255:2093,0.075,-0.049,0.993,-32.959,0,3.357,-1.994,1.538,-46.236
 15:05:37.243,eb:33:2e:f9:57:b5, 2085-97-199 00:240:255:2153,0.127,-0.018,1.05,-36.011,3.906,5.249,-2.351,1.555,-46.192
 15:05:37.245,eb:33:2e:f9:57:b5, 2085-97-03 01:68:00:2241,0.079,0,1.031,-40.1,12.451,9.277,-2.73,1.637,-46.154
 15:05:37.245,eb:33:2e:f9:57:b5, 2085-97-00 00:185:255:2330,-0.031,0.011,1.12,-47.424,21.729,13.489,-3.181,1.818,-46.049
 15:05:37.245,eb:33:2e:f9:57:b5, 2085-97-200 255:216:255:2514,-0.051,-0.026,1.19,-55.603,25.146,13.916,-3.697,2.065,-45.956
 15:05:37.245,eb:33:2e:f9:57:b5, 2085-97-171 255:02:00:2668,-0.022,-0.036,1.253,-64.331,25.085,14.343,-4.307,2.318,-45.835
 15:05:37.363,eb:33:2e:f9:57:b5, 2085-97-234 255:28:00:2735,0.004,0.003,1.313,-75.867,23.804,16.357,-5.004,2.571,-45.731
 15:05:37.363,eb:33:2e:f9:57:b5, 2085-97-37 00:119:00:2865,0.031,0.042,1.408,-89.172,22.705,17.09,-5.839,2.818,-45.588
 15:05:37.363,eb:33:2e:f9:57:b5, 2085-97-80 00:111:00:2908,0.045,0.062,1.436,-104.98,22.827,19.836,-6.812,3.06,-45.456
 15:05:37.363,eb:33:2e:f9:57:b5, 2085-97-121 00:177:00:3106,0.051,0.038,1.415,-123.047,31.006,18.25,-7.96,3.34,-45.302
 15:05:37.365,eb:33:2e:f9:57:b5, 2085-97-72 00:18:01:3284,-0.005,0.108,1.571,-143.738,33.936,17.822,-9.294,3.691,-45.209
 15:05:37.365,eb:33:2e:f9:57:b5, 2085-97-188 255:37:01:3649,-0.079,0.134,1.649,-167.664,36.621,16.235,-10.865,4.07,-45.099
 15:05:37.365,eb:33:2e:f9:57:b5, 2085-97-232 254:20:02:3704,-0.181,0.202,1.82,-194.885,32.227,12.39,-12.684,4.427,-45.06
 15:05:37.365,eb:33:2e:f9:57:b5, 2085-97-26 254:105:02:4208,-0.333,0.276,1.938,-226.013,26.428,7.69,-14.804,4.741,-45.022
 15:05:37.367,eb:33:2e:f9:57:b5, 2085-97-85 252:207:02:4402,-0.561,0.391,2.077,-262.939,14.16,0.916,-17.265,4.927,-45.071
 15:05:37.367,eb:33:2e:f9:57:b5, 2085-97-226 250:68:03:4626,-0.758,0.35,2.263,-305.298,-6.897,-16.052,-20.143,4.933,-45.165
 15:05:37.367,eb:33:2e:f9:57:b5, 2085-97-108 249:132:03:4865,-0.816,0.417,2.239,-349.854,-27.893,-34.302,-23.45,4.647,-45.357
 15:05:37.367,eb:33:2e:f9:57:b5, 2085-97-97 249:153:03:5201,-0.779,0.428,2.545,-400.208,-68.787,-56.946,-27.241,4.016,-45.582
 15:05:37.392,eb:33:2e:f9:57:b5, 2085-97-160 249:182:00:5528,-0.787,0.109,2.602,-438.354,-105.652,-73.853,-31.492,2.922,-45.709
 15:05:37.392,eb:33:2e:f9:57:b5, 2085-97-252 249:97:254:5700,-0.803,-0.083,2.822,-456.238,-157.715,-86.67,-35.997,1.384,-45.637
 15:05:37.392,eb:33:2e:f9:57:b5, 2085-97-110 249:134:254:4978,-0.786,-0.362,2.676,-452.698,-195.862,-103.088,-40.545,-0.615,-45.258
 15:05:37.392,eb:33:2e:f9:57:b5, 2085-97-109 248:233:255:5633,-0.875,-0.395,2.333,-436.584,-194.946,-121.094,-45.011,-2.818,-44.725
 15:05:37.544,eb:33:2e:f9:57:b5, 2085-97-195 248:62:04:4833,-0.945,0.397,2.597,-435.303,-233.826,-127.075,-49.4,-5.229,-43.995
 15:05:37.544,eb:33:2e:f9:57:b5, 2085-97-34 247:157:06:3424,-1.198,0.7,1.976,-455.139,-194.885,-132.385,-53.943,-7.625,-43.061
 15:05:37.544,eb:33:2e:f9:57:b5, 2085-97-215 246:231:06:214,-1.227,0.937,1.127,-476.135,-92.529,-143.433,-58.683,-9.547,-42.649
 15:05:37.544,eb:33:2e:f9:57:b5, 2085-97-133 245:198:05:-3839,-1.118,1.17,-0.934,-411.133,76.355,-174.561,-63.094,-11.014,-43.374
 15:05:37.544,eb:33:2e:f9:57:b5, 2085-97-101 248:54:08:280,-0.84,0.641,-1.039,-184.57,217.224,-191.467,-65.588,-12.014,-45.846
 15:05:37.544,eb:33:2e:f9:57:b5, 2085-113-58 00:217:249:-105,-0.952,1.603,0.8,52.307,187.866,-149.78,-65.484,-12.706,-48.488
 15:05:37.544,eb:33:2e:f9:57:b5, 2085-97-168 247:94:15:3380,-0.956,1.902,1.248,137.024,143.921,-120.605,-64.731,-12.964,-49.537
 15:05:37.545,eb:33:2e:f9:57:b5, 2085-97-233 249:73:13:3224,-0.62,1.801,1.764,224.915,46.387,-82.336,-62.507,-13.447,-50.768
 15:05:37.545,eb:33:2e:f9:57:b5, 2085-97-129 251:48:11:1921,-0.513,1.533,1.267,239.746,26.001,-77.148,-59.985,-13.986,-51.422
 15:05:37.545,eb:33:2e:f9:57:b5, 2085-97-124 252:149:09:711,-0.289,1.286,0.625,240.845,54.81,-77.026,-57.398,-14.442,-52.174
 15:05:37.545,eb:33:2e:f9:57:b5, 2085-97-109 254:43:09:-021,-0.187,1.146,0.094,253.906,118.225,-74.829,-54.63,-14.584,-53.366
 15:05:37.545,eb:33:2e:f9:57:b5, 2085-97-91 254:46:10:593,-0.198,1.196,0.075,289.917,182.434,-61.951,-51.482,-14.194,-55.08
 15:05:37.545,eb:33:2e:f9:57:b5, 2085-97-173 254:181:10:1625,-0.126,1.327,0.542,331.787,198.181,-35.706,-47.895,-13.293,-56.937
 15:05:37.547,eb:33:2e:f9:57:b5, 2085-97-101 255:114:09:2361,-0.039,1.292,1.004,354.675,178.711,-8.789,-44.094,-12.129,-58.48
 15:05:37.547,eb:33:2e:f9:57:b5, 2085-97-224 255:141:07:2339,-0.008,1.065,1.178,353.638,150.208,10.132,-40.303,-10.904,-59.573
 15:05:37.547,eb:33:2e:f9:57:b5, 2085-97-60 00:107:05:2051,0.026,0.799,1.081,343.079,140.015,18.494,-36.683,-9.69,-60.353
 15:05:37.547,eb:33:2e:f9:57:b5, 2085-97-23 00:127:04:1948,0.008,0.605,0.958,334.839,151.917,18.372,-33.179,-8.383,-61.046
 15:05:37.604,eb:33:2e:f9:57:b5, 2085-97-45 00:111:04:2246,0.056,0.552,0.999,335.388,166.199,19.897,-29.745,-6.916,-61.721
 15:05:37.604,eb:33:2e:f9:57:b5, 2085-97-173 00:160:04:2613,0.1,0.562,1.193,339.478,176.697,23.438,-26.29,-5.284,-62.353
 15:05:37.604,eb:33:2e:f9:57:b5, 2085-97-250 00:12:05:3012,0.131,0.604,1.368,348.206,181.824,32.043,-22.813,-3.532,-62.858
 15:05:37.604,eb:33:2e:f9:57:b5, 2085-97-12 01:110:05:3571,0.134,0.659,1.605,355.896,177.368,46.753,-19.248,-1.697,-63.138
 15:05:37.662,eb:33:2e:f9:57:b5, 2085-97-04 01:105:05:3898,0.113,0.685,1.843,357.3,161.56,64.941,-15.683,0.077,-63.127
 15:05:37.662,eb:33:2e:f9:57:b5, 2085-97-173 00:01:05:4007,0.044,0.658,1.938,356.262,144.226,85.083,-12.09,1.736,-62.759
 15:05:37.662,eb:33:2e:f9:57:b5, 2085-97-245 255:72:04:4086,-0.07,0.583,1.968,356.995,132.996,104.919,-8.492,3.252,-62.084
 15:05:37.662,eb:33:2e:f9:57:b5, 2085-97-203 254:171:03:4433,-0.232,0.494,2.06,360.352,130.737,121.277,-4.812,4.697,-61.1
 15:05:37.753,eb:33:2e:f9:57:b5, 2085-97-197 253:21:03:4887,-0.29,0.425,2.289,365.051,127.869,132.996,-1.066,6.053,-59.914
 15:05:37.753,eb:33:2e:f9:57:b5, 2085-97-137 253:06:02:5204,-0.396,0.332,2.458,371.277,129.211,140.442,2.802,7.317,-58.508
 15:05:37.753,eb:33:2e:f9:57:b5, 2085-97-217 251:16:255:5851,-0.628,0.105,2.678,383.728,123.047,147.888,6.795,8.47,-56.975
 15:05:37.753,eb:33:2e:f9:57:b5, 2085-97-79 250:21:250:6307,-0.777,-0.403,3.004,393.433,96.313,149.048,10.986,9.322,-55.311
 15:05:37.844,eb:33:2e:f9:57:b5, 2085-97-08 249:230:243:6227,-0.971,-1.111,3.078,378.357,76.965,130.31,15.128,9.822,-53.756
 15:05:37.844,eb:33:2e:f9:57:b5, 2085-97-239 247:186:236:5819,-0.998,-1.958,2.977,337.036,72.815,89.539,18.951,10.212,-52.476
 15:05:37.844,eb:33:2e:f9:57:b5, 2085-97-07 249:185:230:4830,-0.627,-2.823,2.662,283.813,84.9,31.799,22.181,10.739,-51.663
 15:05:37.844,eb:33:2e:f9:57:b5, 2085-97-195 253:183:230:4101,0.069,-3.219,2.127,231.384,122.803,-27.893,24.813,11.717,-51.273
 15:05:37.850,eb:33:2e:f9:57:b5, 2085-97-27 04:75:234:4318,0.98,-2.975,2.013,183.777,159.851,-46.631,26.922,13.211,-51.031
 15:05:37.850,eb:33:2e:f9:57:b5, 2085-97-41 11:188:238:4422,1.75,-2.412,2.183,124.39,161.133,-23.499,28.57,14.837,-50.581
 15:05:37.850,eb:33:2e:f9:57:b5, 2085-97-58 15:150:238:4238,1.792,-2.073,2.05,63.965,139.465,33.081,29.685,16.117,-49.807
 15:05:37.850,eb:33:2e:f9:57:b5, 2085-97-176 12:63:234:4393,1.377,-2.413,2.173,27.893,86.914,88.379,30.449,16.787,-48.62
 15:05:37.962,eb:33:2e:f9:57:b5, 2085-97-177 09:13:230:3539,1.086,-3.024,1.97,-1.16,24.17,110.291,30.927,16.677,-47.45
 15:05:37.962,eb:33:2e:f9:57:b5, 2085-97-64 08:26:230:2821,1.026,-3.322,1.504,-44.739,13.245,90.454,30.959,16.276,-46.467
 15:05:37.962,eb:33:2e:f9:57:b5, 2085-97-118 08:110:234:2824,1.09,-3.009,1.354,-83.679,27.039,63.11,30.498,16.078,-45.72
 15:05:37.962,eb:33:2e:f9:57:b5, 2085-97-123 04:37:09:11381,2.569,-2.346,1.427,-104.736,25.452,55.664,29.707,16.035,-45.06
 15:05:37.993,eb:33:2e:f9:57:b5, 2085-97-07 10:153:19:-1459,1.287,-0.929,2.029,-320.679,-192.81,11.597,27.482,14.903,-45.143
 15:05:37.993,eb:33:2e:f9:57:b5, 2085-97-12 04:107:11:1592,0.336,2.527,-1.001,-457.581,-27.527,15.747,23.45,13.964,-45.385
 15:05:37.993,eb:33:2e:f9:57:b5, 2085-97-12 01:234:250:3634,0.142,0.332,1.044,-496.521,-7.446,-35.461,18.539,13.881,-45.566
 15:05:37.993,eb:33:2e:f9:57:b5, 2085-97-35 00:74:248:4094,-0.219,-1.046,2.078,-451.416,-9.949,-85.876,13.59,13.964,-46.252
 15:05:37.995,eb:33:2e:f9:57:b5, 2085-97-208 252:31:248:3960,-0.657,-0.873,1.961,-371.094,3.296,-105.408,9.261,14.134,-47.302
 15:05:37.995,eb:33:2e:f9:57:b5, 2085-97-89 250:102:251:3512,-0.759,-0.904,1.882,-279.053,-18.127,-86.914,5.795,14.211,-48.307
 15:05:37.995,eb:33:2e:f9:57:b5, 2085-97-97 251:244:251:3031,-0.514,-0.338,1.569,-189.026,-50.598,-35.767,3.356,13.931,-49.021
 15:05:37.995,eb:33:2e:f9:57:b5, 2085-113-58 00:49:252:-3795,-0.44,-0.491,1.392,-118.164,-82.458,10.681,1.846,13.25,-49.12
 15:05:37.997,eb:33:2e:f9:57:b5, 2085-97-69 255:225:252:1857,0.071,-0.395,1.198,-97.168,-90.393,10.193,1.335,12.805,-49.109
 15:05:37.997,eb:33:2e:f9:57:b5, 2085-97-220 255:83:254:1684,-0.158,-0.318,0.745,-68.665,-68.848,-5.92,0.516,11.986,-49.125
 15:05:37.997,eb:33:2e:f9:57:b5, 2085-97-186 254:104:253:1971,-0.102,-0.218,0.957,-42.358,-57.434,10.254,-0.022,11.387,-49.147
 15:05:37.997,eb:33:2e:f9:57:b5, 2085-97-21 00:228:254:1747,0.043,-0.263,0.933,-22.766,-50.11,5.127,-0.313,10.849,-49.054
 15:05:37.999,eb:33:2e:f9:57:b5, 2085-97-41 255:56:255:1990,-0.234,-0.062,0.857,-19.836,-30.701,1.587,-0.516,10.443,-49.059
 15:05:38.001,eb:33:2e:f9:57:b5, 2085-97-18 255:239:255:2140,-0.139,-0.142,1.072,-13.062,-28.015,3.174,-0.692,10.173,-49.037
 15:05:38.001,eb:33:2e:f9:57:b5, 2085-97-242 254:12:00:2195,-0.132,0.001,1.074,-15.808,0.671,10.437,-1.269,9.448,-48.801
 15:05:38.001,eb:33:2e:f9:57:b5, 2085-97-237 254:229:255:2148,-0.144,0.002,1.071,-18.982,2.93,12.146,-1.445,9.459,-48.691
 15:05:38.054,eb:33:2e:f9:57:b5, 2085-97-181 254:157:255:2097,-0.15,-0.035,1.029,-19.348,3.845,13,-1.615,9.498,-48.598
 15:05:38.055,eb:33:2e:f9:57:b5, 2085-97-209 254:191:255:2078,-0.131,-0.039,1.008,-16.968,1.221,14.465,-1.791,9.52,-48.466
 15:05:38.055,eb:33:2e:f9:57:b5, 2085-97-197 254:153:255:2047,-0.17,-0.043,0.983,-13.977,0.122,15.869,-1.917,9.525,-48.34
 15:05:38.055,eb:33:2e:f9:57:b5, 2085-97-99 254:138:255:2104,-0.223,-0.045,1.012,-10.62,-4.028,16.785,-2.027,9.503,-48.181
 15:05:38.082,eb:33:2e:f9:57:b5, 2085-97-251 253:38:255:2103,-0.235,-0.079,1.019,-8.118,-12.573,16.174,-2.087,9.421,-48.038
 15:05:38.082,eb:33:2e:f9:57:b5, 2085-97-111 254:101:255:2034,-0.146,-0.11,1,-7.751,-21.851,13.123,-2.159,9.24,-47.889
 15:05:38.082,eb:33:2e:f9:57:b5, 2085-97-31 255:138:255:1938,-0.104,-0.068,0.962,-6.836,-25.391,11.902,-2.208,8.992,-47.785
 15:05:38.082,eb:33:2e:f9:57:b5, 2085-97-31 255:160:255:2008,-0.074,-0.064,0.954,-7.141,-21.667,9.888,-2.269,8.756,-47.67
 15:05:38.114,eb:33:2e:f9:57:b5, 2085-97-192 255:02:00:1992,-0.027,-0.023,0.978,-10.132,-17.639,8.24,-2.34,8.553,-47.604
 15:05:38.114,eb:33:2e:f9:57:b5, 2085-97-159 255:00:00:2077,-0.043,-0.013,0.967,-14.771,-6.897,7.324,-2.466,8.432,-47.527
 15:05:38.114,eb:33:2e:f9:57:b5, 2085-97-101 255:215:255:2085,-0.093,-0.009,0.993,-19.409,1.404,6.714,-2.631,8.405,-47.488
 15:05:38.114,eb:33:2e:f9:57:b5, 2085-97-232 254:126:255:2106,-0.179,-0.041,1.008,-21.729,5.249,6.714,-2.845,8.443,-47.422
 15:05:38.172,eb:33:2e:f9:57:b5, 2085-97-168 254:105:255:2121,-0.155,-0.066,1.067,-22.339,0.977,6.47,-3.06,8.481,-47.395
 15:05:38.172,eb:33:2e:f9:57:b5, 2085-97-176 254:77:255:2102,-0.167,-0.079,1.025,-21.484,-4.7,6.592,-3.285,8.454,-47.329
 15:05:38.172,eb:33:2e:f9:57:b5, 2085-97-164 254:110:255:2129,-0.149,-0.083,1.034,-20.691,-10.681,6.836,-3.483,8.377,-47.291
 15:05:38.172,eb:33:2e:f9:57:b5, 2085-97-239 254:100:255:2097,-0.131,-0.073,1.018,-20.813,-18.494,7.141,-3.691,8.223,-47.214
 15:05:38.232,eb:33:2e:f9:57:b5, 2085-97-247 254:41:255:2093,-0.122,-0.096,1.039,-23.01,-21.851,7.446,-3.9,8.02,-47.153
 15:05:38.232,eb:33:2e:f9:57:b5, 2085-97-102 255:142:255:2142,-0.057,-0.084,1.029,-26.978,-18.738,5.554,-4.153,7.817,-47.082
 15:05:38.232,eb:33:2e:f9:57:b5, 2085-97-139 255:126:255:2132,-0.064,-0.051,1.041,-30.762,-15.198,7.874,-4.433,7.646,-47.032
 15:05:38.232,eb:33:2e:f9:57:b5, 2085-97-54 255:157:255:2253,-0.116,-0.048,1.082,-35.156,-8.667,9.949,-4.768,7.537,-46.939
 15:05:38.235,eb:33:2e:f9:57:b5, 2085-97-67 255:147:255:2273,-0.031,-0.063,1.099,-40.039,-5.554,11.902,-5.131,7.471,-46.851
 15:05:38.235,eb:33:2e:f9:57:b5, 2085-97-245 255:08:00:2359,0.003,-0.029,1.121,-45.715,-1.709,14.832,-5.554,7.443,-46.719
 15:05:38.235,eb:33:2e:f9:57:b5, 2085-97-248 255:255:255:2467,-0.017,-0.016,1.167,-53.467,4.456,18.433,-6.031,7.471,-46.582
 15:05:38.235,eb:33:2e:f9:57:b5, 2085-97-196 255:40:00:2529,-0.042,0.016,1.229,-63.293,8.606,22.705,-6.603,7.559,-46.384
 15:05:38.322,eb:33:2e:f9:57:b5, 2085-97-127 255:225:255:2649,-0.089,0.013,1.248,-74.219,12.146,25.269,-7.267,7.685,-46.187
 15:05:38.322,eb:33:2e:f9:57:b5, 2085-97-04 255:255:255:2734,-0.129,-0.041,1.302,-88.989,15.198,24.109,-8.075,7.85,-45.961
 15:05:38.322,eb:33:2e:f9:57:b5, 2085-97-255 254:240:255:2843,-0.127,0.002,1.346,-104.065,15.442,22.949,-9.014,8.031,-45.786
 15:05:38.323,eb:33:2e:f9:57:b5, 2085-97-246 254:31:00:2987,-0.135,0.029,1.449,-119.08,15.93,18.677,-10.124,8.218,-45.615
 15:05:38.323,eb:33:2e:f9:57:b5, 2085-97-164 254:86:00:3156,-0.185,0.02,1.464,-136.902,17.456,14.221,-11.393,8.405,-45.516
 15:05:38.323,eb:33:2e:f9:57:b5, 2085-97-87 254:117:00:3181,-0.258,0.068,1.608,-157.288,12.146,9.155,-12.876,8.575,-45.439
 15:05:38.323,eb:33:2e:f9:57:b5, 2085-97-141 253:112:00:3288,-0.329,0.044,1.542,-179.688,13.916,1.892,-14.568,8.701,-45.445
 15:05:38.324,eb:33:2e:f9:57:b5, 2085-97-111 253:218:00:3353,-0.31,0.086,1.609,-205.75,12.207,-8.362,-16.523,8.811,-45.516
 15:05:38.353,eb:33:2e:f9:57:b5, 2085-97-128 253:60:02:3781,-0.345,0.181,1.769,-239.136,16.113,-21.545,-18.787,8.893,-45.742
 15:05:38.353,eb:33:2e:f9:57:b5, 2085-97-88 252:202:02:4077,-0.505,0.302,1.954,-277.771,11.536,-32.654,-21.445,8.932,-46.055
 15:05:38.353,eb:33:2e:f9:57:b5, 2085-97-95 251:14:03:4386,-0.614,0.362,2.051,-320.679,1.587,-44.983,-24.516,8.828,-46.478
 15:05:38.353,eb:33:2e:f9:57:b5, 2085-97-189 250:104:03:4772,-0.658,0.368,2.195,-365.112,-19.409,-60.669,-28.048,8.503,-46.923
 15:05:38.413,eb:33:2e:f9:57:b5, 2085-97-158 250:48:02:5362,-0.639,0.338,2.429,-409.485,-53.284,-71.045,-32.014,7.85,-47.324
 15:05:38.413,eb:33:2e:f9:57:b5, 2085-97-247 250:171:255:5922,-0.585,0.047,2.75,-447.937,-94.421,-80.933,-36.359,6.779,-47.521
 15:05:38.413,eb:33:2e:f9:57:b5, 2085-97-199 251:62:253:6064,-0.584,-0.088,3.066,-464.844,-145.752,-88.257,-40.935,5.29,-47.444
 15:05:38.413,eb:33:2e:f9:57:b5, 2085-97-235 249:30:253:5088,-0.775,-0.339,2.552,-471.924,-156.372,-90.82,-45.599,3.505,-47.005
 15:05:38.443,eb:33:2e:f9:57:b5, 2085-97-138 250:150:255:5264,-0.576,-0.203,2.629,-469.116,-160.95,-108.765,-50.279,1.719,-46.544
 15:05:38.443,eb:33:2e:f9:57:b5, 2085-97-78 251:97:01:4483,-0.707,0.078,2.411,-476.562,-157.837,-119.507,-54.987,-0.209,-45.928
 15:05:38.443,eb:33:2e:f9:57:b5, 2085-97-177 248:238:03:3179,-0.962,0.328,1.918,-495.85,-72.205,-133.911,-59.87,-1.912,-45.637
 15:05:38.443,eb:33:2e:f9:57:b5, 2085-97-249 246:183:02:-289,-1.766,0.488,0.911,-479.492,52.551,-157.898,-64.753,-3.219,-46.28
 15:05:38.472,eb:33:2e:f9:57:b5, 2085-97-184 241:158:01:-1313,-1.417,-0.415,-1.497,-326.904,234.131,-274.597,-68.698,-4.521,-48.516
 15:05:38.472,eb:33:2e:f9:57:b5, 2085-97-228 246:33:10:1896,-0.996,0.687,0.255,-59.631,232.483,-302.124,-70.225,-6.443,-51.927
 15:05:38.472,eb:33:2e:f9:57:b5, 2085-97-63 248:126:14:3093,-0.846,1.649,1.266,152.466,131.409,-272.278,-69.219,-8.542,-54.591
 15:05:38.472,eb:33:2e:f9:57:b5, 2085-97-39 250:247:13:3158,-0.609,1.815,1.612,243.652,40.466,-240.173,-66.808,-10.596,-56.288
 15:05:38.533,eb:33:2e:f9:57:b5, 2085-97-32 252:153:12:1883,-0.344,1.653,1.272,246.704,8.423,-230.469,-64.083,-12.656,-57.442
 15:05:38.533,eb:33:2e:f9:57:b5, 2085-97-250 253:86:11:647,-0.188,1.495,0.566,231.567,33.386,-217.163,-61.403,-14.557,-58.667
 15:05:38.533,eb:33:2e:f9:57:b5, 2085-97-238 254:245:10:127,-0.088,1.375,0.148,233.276,84.412,-194.092,-58.678,-16.035,-60.276
 15:05:38.533,eb:33:2e:f9:57:b5, 2085-97-123 255:30:11:357,-0.055,1.375,0.068,262.268,126.282,-154.663,-55.64,-16.897,-62.221
 15:05:38.562,eb:33:2e:f9:57:b5, 2085-97-195 255:24:11:1050,-0.028,1.395,0.342,299.683,142.212,-105.347,-52.24,-17.128,-64.166
 15:05:38.562,eb:33:2e:f9:57:b5, 2085-97-218 255:133:10:1662,0.016,1.37,0.702,321.533,136.719,-58.411,-48.604,-16.837,-65.836
 15:05:38.562,eb:33:2e:f9:57:b5, 2085-97-128 00:229:08:1455,0.1,1.221,0.796,326.111,124.573,-17.7,-45.005,-16.216,-67.066
 15:05:38.563,eb:33:2e:f9:57:b5, 2085-97-194 00:38:07:1271,0.054,1,0.631,324.768,134.033,16.174,-41.484,-15.266,-67.972
 15:05:38.592,eb:33:2e:f9:57:b5, 2085-97-23 00:151:05:1544,-0.027,0.791,0.673,319.214,158.936,40.039,-38.084,-13.942,-68.703
 15:05:38.592,eb:33:2e:f9:57:b5, 2085-97-136 255:155:04:1839,-0.085,0.632,0.835,312.805,180.786,53.955,-34.761,-12.266,-69.362
 15:05:38.592,eb:33:2e:f9:57:b5, 2085-97-43 255:233:03:2142,-0.117,0.528,0.967,312.012,193.359,64.331,-31.536,-10.366,-69.901
 15:05:38.592,eb:33:2e:f9:57:b5, 2085-97-238 254:101:03:2524,-0.132,0.457,1.137,315.674,198.914,71.899,-28.317,-8.311,-70.302
 15:05:38.653,eb:33:2e:f9:57:b5, 2085-97-252 254:234:02:2758,-0.119,0.392,1.297,321.106,199.707,76.538,-25.098,-6.191,-70.532
 15:05:38.653,eb:33:2e:f9:57:b5, 2085-97-245 254:248:02:3057,-0.13,0.367,1.402,330.994,200.073,80.994,-21.808,-4.037,-70.615
 15:05:38.653,eb:33:2e:f9:57:b5, 2085-97-245 254:31:03:3507,-0.138,0.381,1.601,340.21,195.679,87.341,-18.452,-1.89,-70.521
 15:05:38.653,eb:33:2e:f9:57:b5, 2085-97-218 254:254:02:3920,-0.134,0.389,1.824,346.924,181.702,96.069,-14.991,0.181,-70.192
 15:05:38.863,eb:33:2e:f9:57:b5, 2085-97-250 254:184:02:4155,-0.134,0.352,1.972,352.539,163.757,107.239,-11.481,2.076,-69.62
 15:05:38.863,eb:33:2e:f9:57:b5, 2085-97-200 254:203:02:4406,-0.178,0.342,2.093,358.765,150.513,120.911,-7.85,3.818,-68.758
 15:05:38.863,eb:33:2e:f9:57:b5, 2085-97-34 254:255:02:4688,-0.298,0.367,2.196,366.577,140.32,138.489,-4.125,5.383,-67.637
 15:05:38.863,eb:33:2e:f9:57:b5, 2085-97-44 253:167:02:5169,-0.408,0.367,2.406,372.742,132.019,157.715,-0.242,6.806,-66.193
 15:05:39.012,eb:33:2e:f9:57:b5, 2085-97-72 252:43:01:5672,-0.517,0.254,2.654,372.986,122.375,175.903,3.719,8.02,-64.495
 15:05:39.012,eb:33:2e:f9:57:b5, 2085-97-104 251:200:254:5948,-0.654,0.009,2.843,366.76,111.206,189.27,7.74,8.998,-62.529
 15:05:39.013,eb:33:2e:f9:57:b5, 2085-97-216 249:32:251:6170,-0.91,-0.352,2.96,353.394,98.145,194.885,11.684,9.695,-60.447
 15:05:39.013,eb:33:2e:f9:57:b5, 2085-97-139 247:92:245:6026,-1.175,-0.944,3.001,338.623,81.36,186.34,15.524,10.113,-58.343
 15:05:39.016,eb:33:2e:f9:57:b5, 2085-97-190 245:185:239:5422,-1.376,-1.72,2.818,328.918,72.632,156.006,19.199,10.322,-56.481
 15:05:39.016,eb:33:2e:f9:57:b5, 2085-97-34 246:41:236:4407,-0.94,-2.271,2.476,311.523,83.74,103.394,22.698,10.585,-54.976
 15:05:39.016,eb:33:2e:f9:57:b5, 2085-97-229 249:46:234:4025,-0.516,-2.638,1.897,270.874,157.471,36.987,25.829,11.387,-53.877
 15:05:39.016,eb:33:2e:f9:57:b5, 2085-97-113 254:110:234:4574,0.164,-2.746,2.071,221.008,218.384,-16.907,28.477,13.112,-52.916
 15:05:39.045,eb:33:2e:f9:57:b5, 2085-97-92 04:192:235:5135,0.874,-2.604,2.428,177.185,203.186,-33.936,30.646,15.145,-52.108
 15:05:39.045,eb:33:2e:f9:57:b5, 2085-97-172 08:49:235:4901,1.196,-2.522,2.472,132.874,138.245,-17.944,32.371,16.732,-51.427
 15:05:39.045,eb:33:2e:f9:57:b5, 2085-97-255 09:94:232:4072,1.262,-2.754,2.246,86.975,72.388,6.287,33.607,17.6,-50.922
 15:05:39.045,eb:33:2e:f9:57:b5, 2085-97-36 10:162:231:3494,1.297,-3.052,1.799,40.405,33.203,23.438,34.343,17.897,-50.499
 15:05:39.104,eb:33:2e:f9:57:b5, 2085-97-204 10:83:234:3444,1.392,-2.926,1.686,-3.601,18.494,33.569,34.629,17.935,-50.136
 15:05:39.104,eb:33:2e:f9:57:b5, 2085-97-153 01:212:07:1624,0.155,-2.433,1.692,-48.584,4.272,54.81,34.475,17.776,-49.697
 15:05:39.104,eb:33:2e:f9:57:b5, 2085-97-34 01:200:248:3607,0.221,-0.353,1.584,-479.797,-58.716,16.357,22.126,13.354,-47.439
 15:05:39.104,eb:33:2e:f9:57:b5, 2085-97-239 02:145:249:3431,0.489,-0.878,1.705,-425.293,-66.528,-22.217,17.534,12.733,-47.725
 15:05:39.104,eb:33:2e:f9:57:b5, 2085-97-16 02:33:249:3142,-0.091,-0.761,1.521,-351.562,-16.296,-78.003,13.552,12.453,-48.4
 15:05:39.104,eb:33:2e:f9:57:b5, 2085-97-197 253:93:252:2852,-0.476,-0.798,1.511,-285.095,10.681,-102.112,10.19,12.689,-49.351
 15:05:39.104,eb:33:2e:f9:57:b5, 2085-97-143 251:27:255:3018,-0.652,-0.16,1.406,-231.567,1.526,-80.933,7.432,12.903,-50.334
 15:05:39.104,eb:33:2e:f9:57:b5, 2085-97-21 250:149:254:3193,-0.698,-0.145,1.544,-181.335,-27.344,-23.071,5.257,12.832,-50.867
 15:05:39.162,eb:33:2e:f9:57:b5, 2085-97-217 251:80:252:2571,-0.248,-0.296,1.441,-130.798,-75.562,11.169,3.713,12.288,-50.944
 15:05:39.162,eb:33:2e:f9:57:b5, 2085-97-207 255:68:00:2053,-0.039,-0.413,1.022,-88.928,-94.604,3.54,2.653,11.376,-50.905
 15:05:39.162,eb:33:2e:f9:57:b5, 2085-97-153 255:96:00:2120,-0.048,0.04,1.022,-11.353,-15.015,5.554,0.511,6.784,-50.79
 15:05:39.162,eb:33:2e:f9:57:b5, 2085-97-162 255:50:00:2084,-0.035,0.03,1.025,-14.893,-9.766,7.69,0.368,6.652,-50.729
 15:05:39.165,eb:33:2e:f9:57:b5, 2085-97-188 255:253:255:2013,-0.047,0.018,0.993,-16.235,-6.042,9.827,0.22,6.57,-50.674
 15:05:39.165,eb:33:2e:f9:57:b5, 2085-97-130 255:217:255:2033,-0.104,-0.012,0.99,-15.503,-2.38,10.742,0.06,6.526,-50.576
 15:05:39.165,eb:33:2e:f9:57:b5, 2085-97-253 254:202:255:2121,-0.121,-0.036,1.017,-13.977,-1.16,11.414,-0.071,6.515,-50.493
 15:05:39.165,eb:33:2e:f9:57:b5, 2085-97-202 254:182:255:2155,-0.167,-0.027,1.027,-12.207,-4.7,12.085,-0.203,6.476,-50.383
 15:05:39.165,eb:33:2e:f9:57:b5, 2085-97-133 254:146:255:2156,-0.153,-0.059,1.043,-10.01,-12.329,11.719,-0.297,6.389,-50.295
 15:05:39.165,eb:33:2e:f9:57:b5, 2085-97-15 255:186:255:2051,-0.098,-0.046,1.021,-7.019,-22.888,11.353,-0.385,6.196,-50.18
 15:05:39.165,eb:33:2e:f9:57:b5, 2085-97-55 255:187:255:2034,-0.089,-0.035,0.989,-4.822,-27.771,10.986,-0.428,5.933,-50.098
 15:05:39.165,eb:33:2e:f9:57:b5, 2085-97-88 255:196:255:2035,-0.073,-0.027,0.998,-4.272,-30.884,10.071,-0.478,5.63,-49.993
 15:05:39.167,eb:33:2e:f9:57:b5, 2085-97-136 255:203:255:2039,-0.044,-0.023,0.996,-4.578,-31.128,9.583,-0.511,5.317,-49.927
 15:05:39.167,eb:33:2e:f9:57:b5, 2085-97-203 255:00:00:2018,0.001,-0.015,0.992,-5.859,-29.175,8.911,-0.566,5.015,-49.839
 15:05:39.167,eb:33:2e:f9:57:b5, 2085-97-41 00:00:00:1949,0.02,-0.002,0.958,-6.897,-24.414,8.423,-0.626,4.741,-49.785
 15:05:39.168,eb:33:2e:f9:57:b5, 2085-97-55 00:251:255:1952,0.003,-0.005,0.951,-8.728,-15.198,7.751,-0.714,4.543,-49.708
 15:05:39.253,eb:33:2e:f9:57:b5, 2085-97-190 255:228:255:2034,-0.048,-0.01,0.968,-10.498,-7.568,7.324,-0.807,4.433,-49.664
 15:05:39.253,eb:33:2e:f9:57:b5, 2085-97-157 255:210:255:2078,-0.058,-0.018,1.006,-11.292,-5.798,7.812,-0.923,4.367,-49.587
 15:05:39.253,eb:33:2e:f9:57:b5, 2085-97-168 255:235:255:2124,-0.076,-0.022,1.035,-13.672,-3.906,6.897,-1.038,4.318,-49.548
 15:05:39.253,eb:33:2e:f9:57:b5, 2085-97-231 254:207:255:2304,-0.139,-0.016,1.079,-17.7,-2.625,4.944,-1.208,4.285,-49.488
 15:05:39.253,eb:33:2e:f9:57:b5, 2085-97-175 254:199:255:2303,-0.126,-0.024,1.117,-20.752,-9.033,3.723,-1.401,4.224,-49.477
 15:05:39.256,eb:33:2e:f9:57:b5, 2085-113-58 00:121:255:-3975,-0.202,0.009,1.172,-24.292,-17.09,2.991,-1.637,4.087,-49.449
 15:05:39.256,eb:33:2e:f9:57:b5, 2085-97-128 255:162:255:2091,0.026,-0.116,1.053,-23.132,-23.315,1.77,-1.758,3.983,-49.438
 15:05:39.256,eb:33:2e:f9:57:b5, 2085-97-171 00:21:00:2012,0.087,-0.042,0.953,-23.865,-19.653,2.808,-1.989,3.746,-49.438
 15:05:39.256,eb:33:2e:f9:57:b5, 2085-97-93 00:226:255:2086,0.055,0.036,1.031,-28.687,-6.592,6.226,-2.258,3.62,-49.395
 15:05:39.284,eb:33:2e:f9:57:b5, 2085-97-118 00:22:00:2188,0.049,0.015,1.066,-34.119,4.211,9.338,-2.571,3.62,-49.351
 15:05:39.284,eb:33:2e:f9:57:b5, 2085-97-73 00:26:00:2318,0.055,0.026,1.112,-41.321,13.123,12.329,-2.955,3.713,-49.246
 15:05:39.284,eb:33:2e:f9:57:b5, 2085-97-96 00:14:00:2338,-0.001,0.032,1.141,-47.974,17.334,17.578,-3.395,3.867,-49.136
 15:05:39.284,eb:33:2e:f9:57:b5, 2085-97-221 255:73:00:2629,-0.038,0.026,1.26,-57.129,22.095,21.362,-3.922,4.087,-48.961
 15:05:39.343,eb:33:2e:f9:57:b5, 2085-97-149 255:33:00:2631,-0.02,-0.019,1.241,-68.604,22.522,21.179,-4.537,4.318,-48.785
 15:05:39.343,eb:33:2e:f9:57:b5, 2085-97-48 00:250:255:2535,0.041,0.032,1.326,-80.688,20.02,23.01,-5.284,4.543,-48.587
 15:05:39.343,eb:33:2e:f9:57:b5, 2085-97-99 00:140:00:2793,0.049,0.026,1.309,-95.093,28.992,20.691,-6.158,4.818,-48.428
 15:05:39.343,eb:33:2e:f9:57:b5, 2085-97-27 00:101:00:2797,-0.017,0.039,1.33,-110.413,34.119,21.973,-7.185,5.147,-48.246
 15:05:39.373,eb:33:2e:f9:57:b5, 2085-97-130 255:105:00:2927,-0.095,0.072,1.416,-127.808,36.499,21.118,-8.366,5.532,-48.115
 15:05:39.373,eb:33:2e:f9:57:b5, 2085-97-41 255:213:00:3181,-0.119,0.057,1.452,-144.348,38.391,17.456,-9.734,5.922,-47.983
 15:05:39.373,eb:33:2e:f9:57:b5, 2085-97-171 254:124:00:3243,-0.233,0.084,1.624,-163.269,30.518,14.893,-11.266,6.295,-47.928
 15:05:39.373,eb:33:2e:f9:57:b5, 2085-97-08 254:106:01:3709,-0.251,0.088,1.624,-185.608,31.433,7.202,-13.03,6.608,-47.884
 15:05:39.402,eb:33:2e:f9:57:b5, 2085-97-160 253:206:01:3956,-0.405,0.247,1.882,-214.478,18.372,3.174,-15.04,6.855,-47.933
 15:05:39.402,eb:33:2e:f9:57:b5, 2085-97-169 251:163:01:4160,-0.634,0.189,1.901,-249.756,13.367,-8.972,-17.391,6.976,-47.999
 15:05:39.402,eb:33:2e:f9:57:b5, 2085-97-210 250:254:01:4444,-0.667,0.263,2.109,-288.757,-2.991,-26.672,-20.127,6.96,-48.23
 15:05:39.402,eb:33:2e:f9:57:b5, 2085-97-222 250:222:02:4962,-0.594,0.296,2.244,-331.787,-20.264,-49.316,-23.297,6.691,-48.554
 15:05:39.462,eb:33:2e:f9:57:b5, 2085-97-97 251:104:02:5187,-0.546,0.312,2.38,-376.77,-41.565,-64.88,-26.911,6.13,-48.977
 15:05:39.462,eb:33:2e:f9:57:b5, 2085-97-196 251:56:02:5610,-0.44,0.271,2.609,-415.955,-65.002,-76.66,-30.943,5.306,-49.351
 15:05:39.463,eb:33:2e:f9:57:b5, 2085-97-55 252:235:00:5071,-0.52,0.21,2.712,-444.336,-101.562,-79.712,-35.305,4.147,-49.559
 15:05:39.463,eb:33:2e:f9:57:b5, 2085-97-79 251:101:00:4979,-0.605,-0.104,2.505,-454.346,-115.662,-91.125,-39.82,2.78,-49.559
 15:05:39.492,eb:33:2e:f9:57:b5, 2085-97-127 251:39:254:4439,-0.736,-0.067,2.138,-454.834,-125.061,-97.961,-44.368,1.219,-49.417
 15:05:39.492,eb:33:2e:f9:57:b5, 2085-97-26 250:214:00:4507,-0.821,-0.084,2.279,-450.806,-127.38,-118.408,-48.9,-0.423,-49.29
 15:05:39.492,eb:33:2e:f9:57:b5, 2085-97-144 248:00:03:3568,-1.044,0.2,1.951,-460.51,-101.562,-135.803,-53.438,-2.17,-49.136
 15:05:39.492,eb:33:2e:f9:57:b5, 2085-97-156 247:197:05:1497,-1.256,0.63,1.414,-476.074,-5.92,-158.081,-58.118,-3.697,-49.548
 15:05:39.522,eb:33:2e:f9:57:b5, 2085-97-138 242:92:00:-292,-1.548,0.483,0.005,-439.331,129.883,-203.857,-62.65,-4.927,-50.988
 15:05:39.522,eb:33:2e:f9:57:b5, 2085-97-213 246:185:03:887,-0.747,0.204,0.214,-302.856,187.622,-278.503,-66.121,-6.482,-53.679
 15:05:39.522,eb:33:2e:f9:57:b5, 2085-97-253 250:155:10:1082,-0.655,1.002,0.502,-57.861,126.77,-245.728,-67.555,-8.311,-56.212
 15:05:39.522,eb:33:2e:f9:57:b5, 2085-97-105 250:241:10:2221,-0.66,1.417,0.777,120.789,59.143,-184.082,-66.819,-9.921,-57.887
 15:05:39.582,eb:33:2e:f9:57:b5, 2085-97-105 251:105:09:2364,-0.501,1.272,1.217,205.383,-5.981,-144.531,-64.913,-11.294,-58.733
 15:05:39.582,eb:33:2e:f9:57:b5, 2085-113-58 00:129:247:075,-0.467,1.114,0.988,217.102,-17.883,-135.925,-62.644,-12.607,-59.211
 15:05:39.582,eb:33:2e:f9:57:b5, 2085-97-179 252:192:07:1079,-0.356,1.044,0.773,211.67,-10.62,-134.094,-61.518,-13.239,-59.469
 15:05:39.582,eb:33:2e:f9:57:b5, 2085-97-200 253:227:06:288,-0.192,0.909,0.319,200.012,23.132,-128.357,-59.288,-14.348,-60.2
 15:05:39.614,eb:33:2e:f9:57:b5, 2085-97-251 254:202:06:-155,-0.083,0.837,-0.002,202.942,75.439,-116.821,-57.003,-15.117,-61.315
 15:05:39.614,eb:33:2e:f9:57:b5, 2085-97-154 255:169:07:114,-0.022,0.895,-0.058,229.614,121.643,-90.637,-54.443,-15.397,-62.803
 15:05:39.614,eb:33:2e:f9:57:b5, 2085-97-211 255:130:08:948,-0.041,1.018,0.237,266.724,137.39,-50.537,-51.537,-15.15,-64.336
 15:05:39.614,eb:33:2e:f9:57:b5, 2085-97-171 255:117:08:1564,-0.02,1.08,0.665,293.335,119.873,-7.446,-48.389,-14.518,-65.55
 15:05:39.644,eb:33:2e:f9:57:b5, 2085-97-30 00:139:07:1454,0.056,1.013,0.77,302.246,97.534,30.09,-45.22,-13.689,-66.253
 15:05:39.644,eb:33:2e:f9:57:b5, 2085-97-141 00:179:05:1154,0.064,0.826,0.614,299.072,97.961,60.242,-42.122,-12.667,-66.588
 15:05:39.644,eb:33:2e:f9:57:b5, 2085-97-96 00:99:04:1060,0.005,0.626,0.527,289.795,126.038,79.102,-39.139,-11.36,-66.769
 15:05:39.644,eb:33:2e:f9:57:b5, 2085-97-183 255:215:03:1401,-0.067,0.503,0.573,286.621,162.781,91.675,-36.211,-9.662,-67
 15:05:39.702,eb:33:2e:f9:57:b5, 2085-97-65 255:130:03:2036,-0.097,0.465,0.835,293.091,179.321,104.675,-33.289,-7.674,-67.176
 15:05:39.702,eb:33:2e:f9:57:b5, 2085-97-45 255:197:02:2536,-0.112,0.398,1.118,303.772,176.147,115.662,-30.284,-5.565,-67.181
 15:05:39.702,eb:33:2e:f9:57:b5, 2085-97-01 255:43:02:2807,-0.131,0.312,1.305,315.186,164.978,122.253,-27.191,-3.499,-66.945
 15:05:39.702,eb:33:2e:f9:57:b5, 2085-97-244 254:193:01:3033,-0.135,0.24,1.426,325.073,153.015,124.146,-23.983,-1.533,-66.528
 15:05:39.733,eb:33:2e:f9:57:b5, 2085-97-214 254:122:01:3336,-0.157,0.202,1.548,330.994,143.066,122.498,-20.704,0.286,-65.967
 15:05:39.733,eb:33:2e:f9:57:b5, 2085-97-163 254:62:01:3550,-0.179,0.169,1.684,334.717,129.456,119.324,-17.336,1.967,-65.275
 15:05:39.733,eb:33:2e:f9:57:b5, 2085-97-125 254:43:01:3763,-0.205,0.146,1.778,338.318,117.981,116.455,-13.931,3.455,-64.501
 15:05:39.733,eb:33:2e:f9:57:b5, 2085-97-58 254:90:01:4075,-0.247,0.155,1.919,343.079,109.619,115.967,-10.437,4.818,-63.611
 15:05:39.763,eb:33:2e:f9:57:b5, 2085-97-181 253:158:01:4382,-0.332,0.187,2.056,351.257,101.929,119.629,-6.872,6.026,-62.633
 15:05:39.763,eb:33:2e:f9:57:b5, 2085-97-238 252:130:01:4854,-0.448,0.205,2.244,364.746,93.628,127.808,-3.126,7.114,-61.479
 15:05:39.763,eb:33:2e:f9:57:b5, 2085-97-247 251:154:00:5411,-0.555,0.15,2.515,377.441,80.872,136.963,0.764,8.009,-60.189
 15:05:39.763,eb:33:2e:f9:57:b5, 2085-97-55 251:192:254:5678,-0.645,-0.031,2.73,384.399,67.566,142.151,4.818,8.674,-58.738
 15:05:39.823,eb:33:2e:f9:57:b5, 2085-97-58 250:80:252:5720,-0.809,-0.299,2.784,387.085,59.265,143.066,8.915,9.124,-57.261
 15:05:39.823,eb:33:2e:f9:57:b5, 2085-97-206 248:228:248:5750,-1.001,-0.658,2.806,384.583,49.5,139.343,13.046,9.393,-55.745
 15:05:39.823,eb:33:2e:f9:57:b5, 2085-97-84 247:118:244:5458,-1.103,-1.153,2.776,371.887,38.635,125.061,17.067,9.465,-54.366
 15:05:39.823,eb:33:2e:f9:57:b5, 2085-97-10 248:35:240:4372,-0.884,-1.718,2.44,342.896,48.157,93.872,20.858,9.492,-53.185
 15:05:39.854,eb:33:2e:f9:57:b5, 2085-97-198 249:77:237:3737,-0.602,-2.168,1.956,295.593,103.333,51.88,24.203,9.932,-52.251
 15:05:39.854,eb:33:2e:f9:57:b5, 2085-97-26 253:77:236:3655,-0.079,-2.438,1.755,239.075,163.452,15.137,27.032,11.03,-51.361
 15:05:39.854,eb:33:2e:f9:57:b5, 2085-97-223 01:156:236:4047,0.531,-2.455,1.865,180.237,203.735,-6.592,29.284,12.684,-50.466
 15:05:39.854,eb:33:2e:f9:57:b5, 2085-97-29 06:214:236:4623,0.938,-2.392,2.129,131.836,197.266,-4.089,31.053,14.502,-49.471
 15:05:39.883,eb:33:2e:f9:57:b5, 2085-97-174 08:91:235:4902,1.12,-2.46,2.359,96.313,132.629,16.174,32.421,15.87,-48.543
 15:05:39.883,eb:33:2e:f9:57:b5, 2085-97-251 08:216:232:4256,1.107,-2.754,2.31,65.002,49.927,30.945,33.415,16.463,-47.829
 15:05:39.883,eb:33:2e:f9:57:b5, 2085-97-194 08:157:232:3411,1.117,-2.974,1.851,29.419,-0.427,30.334,33.986,16.441,-47.477
 15:05:39.884,eb:33:2e:f9:57:b5, 2085-97-61 09:248:235:3013,1.223,-2.761,1.546,-20.02,-11.719,21.24,34.041,16.227,-47.324
 15:05:39.972,eb:33:2e:f9:57:b5, 2085-97-55 10:224:240:2994,1.444,-2.207,1.44,-59.509,-8.667,31.738,33.657,16.002,-47.203
 15:05:39.972,eb:33:2e:f9:57:b5, 2085-97-152 12:142:249:7122,0.668,-0.159,3.315,-161.072,-48.157,80.505,32.893,15.732,-46.813
 15:05:39.972,eb:33:2e:f9:57:b5, 2085-97-39 01:151:22:-667,0.874,1.572,-0.241,-294.25,-153.076,77.576,30.229,13.667,-47.307
 15:05:39.972,eb:33:2e:f9:57:b5, 2085-97-126 02:57:08:1552,0.06,2.2,0.069,-422.119,-73.425,75.195,26.576,12.299,-47.098
 15:05:39.974,eb:33:2e:f9:57:b5, 2085-97-107 00:47:249:3923,0.193,-0.127,1.544,-432.922,-64.148,34.546,22.236,11.519,-46.906
 15:05:39.974,eb:33:2e:f9:57:b5, 2085-97-21 03:255:250:3036,0.519,-0.849,1.795,-369.08,-95.764,-5.066,18.199,10.673,-47.076
 15:05:39.974,eb:33:2e:f9:57:b5, 2085-97-31 03:220:249:2838,0.288,-0.765,1.478,-300.964,-46.692,-58.289,14.777,10.052,-47.642
 15:05:39.974,eb:33:2e:f9:57:b5, 2085-97-33 00:05:254:2372,-0.148,-0.619,1.247,-240.784,4.028,-96.069,11.953,10.069,-48.51
 15:05:40.033,eb:33:2e:f9:57:b5, 2085-97-04 254:222:255:2487,-0.439,-0.054,1.158,-208.435,22.217,-84.595,9.569,10.399,-49.444
 15:05:40.033,eb:33:2e:f9:57:b5, 2085-97-144 251:03:01:2805,-0.56,0.095,1.304,-175.171,16.663,-39.917,7.553,10.706,-50.037
 15:05:40.033,eb:33:2e:f9:57:b5, 2085-97-254 251:240:253:2653,-0.421,-0.021,1.336,-147.095,-19.47,-0.854,5.922,10.701,-50.235
 15:05:40.033,eb:33:2e:f9:57:b5, 2085-97-53 254:159:252:2220,-0.057,-0.393,1.204,-109.436,-50.598,1.038,4.636,10.311,-50.24
 15:05:40.184,eb:33:2e:f9:57:b5, 2085-97-131 255:155:254:1952,-0.173,-0.279,0.962,-79.407,-52.429,-7.996,3.708,9.761,-50.367
 15:05:40.184,eb:33:2e:f9:57:b5, 2085-97-86 254:207:254:2152,-0.192,-0.129,1.017,-59.631,-46.509,-2.93,2.988,9.289,-50.466
 15:05:40.184,eb:33:2e:f9:57:b5, 2085-97-39 255:152:254:2061,0.003,-0.197,1.061,-36.987,-49.194,5.554,2.521,8.806,-50.499
 15:05:40.184,eb:33:2e:f9:57:b5, 2085-97-81 00:232:255:1792,-0.026,-0.079,0.923,-24.658,-40.344,2.869,2.219,8.339,-50.477
 15:05:40.184,eb:33:2e:f9:57:b5, 2085-97-211 254:56:255:2036,-0.172,-0.027,0.909,-20.447,-27.893,3.601,2,8.009,-50.499
 15:05:40.185,eb:33:2e:f9:57:b5, 2085-97-248 254:90:255:2050,-0.045,-0.114,1.027,-9.827,-32.593,3.601,1.84,7.701,-50.471
 15:05:40.185,eb:33:2e:f9:57:b5, 2085-97-07 00:12:00:1910,0.006,-0.04,0.953,-4.272,-30.762,3.174,1.78,7.366,-50.482
 15:05:40.185,eb:33:2e:f9:57:b5, 2085-97-200 255:88:00:2015,-0.054,0.018,0.947,-4.761,-19.165,3.174,1.73,7.119,-50.466
 15:05:40.188,eb:33:2e:f9:57:b5, 2085-97-148 255:114:00:2102,-0.029,0.052,1.014,-8.301,-11.902,3.174,1.664,6.965,-50.471
 15:05:40.188,eb:33:2e:f9:57:b5, 2085-97-241 255:129:00:2014,-0.005,0.065,1.006,-12.39,-5.127,4.333,1.549,6.872,-50.444
 15:05:40.188,eb:33:2e:f9:57:b5, 2085-97-233 255:63:00:1975,-0.029,0.05,0.972,-15.32,3.418,5.737,1.412,6.866,-50.422
 15:05:40.188,eb:33:2e:f9:57:b5, 2085-97-166 255:25:00:1988,-0.071,0.019,0.967,-15.869,10.559,7.08,1.247,6.932,-50.361
 15:05:40.188,eb:33:2e:f9:57:b5, 2085-97-106 255:00:00:2003,-0.078,0.008,0.982,-15.015,13.611,7.446,1.104,7.059,-50.317
 15:05:40.188,eb:33:2e:f9:57:b5, 2085-97-55 255:248:255:2043,-0.126,-0.003,0.983,-13.489,14.832,7.568,0.956,7.191,-50.246
 15:05:40.188,eb:33:2e:f9:57:b5, 2085-97-178 254:235:255:2135,-0.19,-0.005,1.019,-11.902,12.756,7.935,0.84,7.328,-50.197
 15:05:40.188,eb:33:2e:f9:57:b5, 2085-97-88 254:198:255:2171,-0.22,-0.02,1.054,-10.376,4.456,7.202,0.725,7.41,-50.125
 15:05:40.213,eb:33:2e:f9:57:b5, 2085-97-78 254:190:255:2157,-0.188,-0.036,1.065,-7.507,-8.667,7.019,0.643,7.383,-50.087
 15:05:40.213,eb:33:2e:f9:57:b5, 2085-97-200 254:211:255:2075,-0.117,-0.031,1.036,-4.7,-20.691,7.141,0.582,7.218,-50.021
 15:05:40.213,eb:33:2e:f9:57:b5, 2085-97-34 255:218:255:2036,-0.108,-0.017,0.997,-2.991,-25.574,6.958,0.555,6.971,-49.988
 15:05:40.213,eb:33:2e:f9:57:b5, 2085-97-51 255:03:00:2039,-0.077,-0.007,0.997,-2.563,-27.344,6.287,0.522,6.702,-49.927
 15:05:40.273,eb:33:2e:f9:57:b5, 2085-97-151 255:38:00:2011,-0.028,0.002,0.986,-2.808,-27.649,5.432,0.5,6.416,-49.905
 15:05:40.273,eb:33:2e:f9:57:b5, 2085-97-198 255:53:00:2022,-0.049,0.029,0.973,-4.211,-23.926,5.737,0.456,6.147,-49.856
 15:05:40.273,eb:33:2e:f9:57:b5, 2085-97-124 255:56:00:2096,-0.06,0.035,1.008,-7.324,-18.25,5.493,0.406,5.938,-49.839
 15:05:40.273,eb:33:2e:f9:57:b5, 2085-97-124 255:47:00:2087,-0.076,0.028,1.022,-11.414,-14.587,4.333,0.302,5.768,-49.796
 15:05:40.273,eb:33:2e:f9:57:b5, 2085-97-99 255:248:255:2073,-0.086,0.019,1.022,-13.123,-13.977,3.784,0.176,5.625,-49.79
 15:05:40.302,eb:33:2e:f9:57:b5, 2085-113-81 00:06:140:-683,-0.089,-0.015,1.007,-13,-15.808,3.418,0.033,5.471,-49.757
 15:05:40.302,eb:33:2e:f9:57:b5, 2085-97-85 255:177:255:2030,-0.067,-0.03,0.999,-12.573,-17.395,3.235,-0.022,5.389,-49.746
 15:05:40.302,eb:33:2e:f9:57:b5, 2085-97-127 255:206:255:2034,-0.067,-0.025,0.991,-12.146,-19.348,2.563,-0.143,5.202,-49.752
 15:05:40.302,eb:33:2e:f9:57:b5, 2085-97-103 255:246:255:2112,-0.085,-0.009,1.008,-13.123,-19.226,1.953,-0.28,4.999,-49.73
 15:05:40.482,eb:33:2e:f9:57:b5, 2085-97-71 255:32:00:2189,-0.113,0.008,1.051,-16.541,-19.714,0.671,-0.423,4.801,-49.752
 15:05:40.482,eb:33:2e:f9:57:b5, 2085-97-128 255:187:255:2076,0.005,-0.024,1.053,-18.86,-21.912,0,-0.621,4.592,-49.752
 15:05:40.482,eb:33:2e:f9:57:b5, 2085-97-149 00:17:00:1940,0.075,-0.016,0.975,-19.653,-18.188,0,-0.813,4.378,-49.785
 15:05:40.482,eb:33:2e:f9:57:b5, 2085-97-170 255:247:255:2157,-0.075,0.035,0.98,-22.4,-4.456,2.136,-1.033,4.268,-49.774
 15:05:40.487,eb:33:2e:f9:57:b5, 2085-97-85 255:227:255:2201,-0.037,-0.008,1.076,-25.452,-3.113,2.502,-1.274,4.235,-49.785
 15:05:40.487,eb:33:2e:f9:57:b5, 2085-97-252 255:246:255:2124,0,0.001,1.059,-28.687,-2.014,2.686,-1.555,4.197,-49.763
 15:05:40.487,eb:33:2e:f9:57:b5, 2085-97-16 00:11:00:2152,-0.001,0.013,1.051,-31.86,4.7,4.028,-1.857,4.208,-49.768
 15:05:40.488,eb:33:2e:f9:57:b5, 2085-97-175 255:239:255:2215,-0.069,0.008,1.063,-35.095,13.123,6.592,-2.203,4.301,-49.719
 15:05:40.512,eb:33:2e:f9:57:b5, 2085-97-158 255:31:00:2314,-0.004,-0.004,1.116,-39.001,16.724,8.057,-2.571,4.455,-49.686
 15:05:40.512,eb:33:2e:f9:57:b5, 2085-97-42 00:97:00:2443,0.033,0.037,1.147,-46.509,21.79,12.451,-3.005,4.647,-49.598
 15:05:40.512,eb:33:2e:f9:57:b5, 2085-97-101 00:93:00:2496,0.036,0.069,1.219,-57.068,26.062,17.456,-3.516,4.894,-49.493
 15:05:40.512,eb:33:2e:f9:57:b5, 2085-97-67 00:127:00:2514,-0.008,0.082,1.274,-71.655,33.997,19.104,-4.158,5.208,-49.34
 15:05:40.516,eb:33:2e:f9:57:b5, 2085-97-204 255:78:00:2679,-0.014,0.026,1.293,-90.21,42.542,20.325,-4.955,5.614,-49.197
 15:05:40.516,eb:33:2e:f9:57:b5, 2085-97-233 255:127:00:2769,-0.036,0.046,1.4,-105.774,43.03,20.996,-5.933,6.064,-49.032
 15:05:40.516,eb:33:2e:f9:57:b5, 2085-97-97 255:79:00:2902,-0.098,0.017,1.291,-120.605,48.523,20.752,-7.059,6.531,-48.895
 15:05:40.516,eb:33:2e:f9:57:b5, 2085-97-229 254:128:255:2780,-0.185,0.011,1.457,-134.277,42.175,21.545,-8.333,7.004,-48.757
 15:05:40.574,eb:33:2e:f9:57:b5, 2085-97-183 254:54:00:3041,-0.151,0.001,1.415,-146.484,39.612,19.653,-9.728,7.449,-48.658
 15:05:40.574,eb:33:2e:f9:57:b5, 2085-97-205 254:101:00:3124,-0.198,0.013,1.435,-161.621,34.79,16.663,-11.266,7.822,-48.538
 15:05:40.574,eb:33:2e:f9:57:b5, 2085-97-42 254:38:00:3228,-0.26,0.068,1.575,-179.016,26.672,13.794,-12.964,8.157,-48.494
 15:05:40.574,eb:33:2e:f9:57:b5, 2085-97-163 253:146:00:3238,-0.334,0.053,1.621,-197.815,18.433,6.287,-14.859,8.394,-48.45
 15:05:40.574,eb:33:2e:f9:57:b5, 2085-97-104 253:21:01:3455,-0.362,0.106,1.655,-221.863,14.709,-2.869,-16.968,8.553,-48.516
 15:05:40.574,eb:33:2e:f9:57:b5, 2085-97-20 253:216:01:3713,-0.371,0.159,1.759,-252.197,12.817,-14.404,-19.374,8.641,-48.647
 15:05:40.574,eb:33:2e:f9:57:b5, 2085-97-204 252:71:02:4182,-0.424,0.274,1.903,-288.086,8.911,-26.672,-22.132,8.668,-48.922
 15:05:40.574,eb:33:2e:f9:57:b5, 2085-97-69 252:83:02:4396,-0.493,0.323,2.056,-326.111,-3.479,-39.49,-25.274,8.536,-49.252
 15:05:40.576,eb:33:2e:f9:57:b5, 2085-97-231 251:73:02:4816,-0.539,0.264,2.268,-363.892,-23.315,-52.551,-28.806,8.19,-49.647
 15:05:40.576,eb:33:2e:f9:57:b5, 2085-97-114 251:242:00:4912,-0.51,0.127,2.409,-399.048,-48.279,-64.392,-32.695,7.57,-49.955
 15:05:40.576,eb:33:2e:f9:57:b5, 2085-97-233 251:254:253:5256,-0.53,-0.117,2.466,-419.495,-69.458,-72.266,-36.854,6.691,-50.18
 15:05:40.576,eb:33:2e:f9:57:b5, 2085-97-163 251:198:252:4692,-0.578,-0.27,2.384,-428.284,-94.727,-80.017,-41.116,5.526,-50.235
 15:05:40.664,eb:33:2e:f9:57:b5, 2085-97-16 251:43:254:5020,-0.629,-0.249,2.446,-416.199,-115.601,-90.332,-45.324,4.175,-50.175
 15:05:40.664,eb:33:2e:f9:57:b5, 2085-97-40 250:191:255:4086,-0.913,-0.126,2.14,-422.729,-137.634,-98.511,-49.493,2.56,-49.823
 15:05:40.664,eb:33:2e:f9:57:b5, 2085-97-49 248:81:04:3303,-0.953,0.297,1.874,-445.435,-86.548,-125.244,-53.817,0.956,-49.62
 15:05:40.664,eb:33:2e:f9:57:b5, 2085-97-203 247:200:04:1776,-1.304,0.638,1.234,-470.52,3.967,-142.334,-58.414,-0.396,-50.043
 15:05:40.666,eb:33:2e:f9:57:b5, 2085-97-201 243:126:255:1464,-1.541,0.491,1.011,-471.68,97.351,-174.438,-63.133,-1.483,-51.328
 15:05:40.666,eb:33:2e:f9:57:b5, 2085-97-89 246:45:01:1096,-0.795,-0.056,0.694,-413.94,164.612,-271.362,-67.489,-2.972,-53.536
 15:05:40.666,eb:33:2e:f9:57:b5, 2085-97-106 252:80:07:190,-0.172,0.445,0.273,-265.625,190.247,-296.204,-70.714,-5.065,-56.283
 15:05:40.666,eb:33:2e:f9:57:b5, 2085-97-99 255:106:12:238,-0.068,1.345,-0.023,-60.547,169.434,-233.948,-71.971,-7.02,-58.865
 15:05:40.692,eb:33:2e:f9:57:b5, 2085-97-09 255:190:12:1649,-0.263,1.63,0.491,119.995,121.094,-143.799,-71.274,-8.317,-60.837
 15:05:40.692,eb:33:2e:f9:57:b5, 2085-97-12 254:31:11:2203,-0.217,1.509,1.058,232.483,48.157,-70.068,-69.225,-8.992,-61.963
 15:05:40.692,eb:33:2e:f9:57:b5, 2085-97-149 254:90:09:1962,-0.153,1.277,1.048,286.377,0.671,-24.719,-66.506,-9.322,-62.298
 15:05:40.692,eb:33:2e:f9:57:b5, 2085-97-27 255:241:07:1319,-0.096,1.068,0.832,304.443,-9.155,-4.822,-63.517,-9.465,-62.287
 15:05:40.845,eb:33:2e:f9:57:b5, 2085-97-115 255:174:06:465,-0.033,0.911,0.418,315.369,7.324,5.066,-60.425,-9.47,-62.271
 15:05:40.845,eb:33:2e:f9:57:b5, 2085-97-18 00:04:06:289,0.041,0.783,0.138,330.261,44.678,13.489,-57.14,-9.24,-62.446
 15:05:40.845,eb:33:2e:f9:57:b5, 2085-97-142 00:195:05:621,0.085,0.734,0.205,333.984,94.604,11.108,-53.729,-8.723,-62.974
 15:05:40.845,eb:33:2e:f9:57:b5, 2085-97-169 00:111:05:1271,0.082,0.698,0.442,328.125,132.446,7.019,-50.273,-7.932,-63.858
 15:05:40.848,eb:33:2e:f9:57:b5, 2085-97-167 00:55:05:1883,0.083,0.664,0.791,322.693,138.672,7.874,-46.901,-6.96,-64.858
 15:05:40.848,eb:33:2e:f9:57:b5, 2085-97-169 00:10:05:2127,0.083,0.644,1,326.721,116.882,16.479,-43.55,-5.977,-65.698
 15:05:40.848,eb:33:2e:f9:57:b5, 2085-97-158 00:162:04:2130,0.063,0.609,1.052,339.05,89.172,29.907,-40.172,-5.065,-66.198
 15:05:40.848,eb:33:2e:f9:57:b5, 2085-97-69 00:238:03:1982,0.012,0.542,1.008,352.295,76.416,40.405,-36.672,-4.208,-66.429
 15:05:40.851,eb:33:2e:f9:57:b5, 2085-97-04 00:111:03:2043,-0.008,0.454,0.967,360.229,88.257,44.067,-33.085,-3.296,-66.539
 15:05:40.851,eb:33:2e:f9:57:b5, 2085-97-206 255:28:03:2400,-0.023,0.401,1.069,358.887,109.253,42.114,-29.46,-2.214,-66.698
 15:05:40.851,eb:33:2e:f9:57:b5, 2085-97-224 255:41:03:2874,-0.003,0.389,1.289,355.225,119.446,41.504,-25.889,-0.989,-66.868
 15:05:40.851,eb:33:2e:f9:57:b5, 2085-97-19 00:93:03:3274,0.025,0.408,1.51,352.6,113.342,46.021,-22.33,0.253,-66.962
 15:05:40.853,eb:33:2e:f9:57:b5, 2085-97-76 00:105:03:3411,0.035,0.425,1.647,351.501,98.511,55.176,-18.814,1.417,-66.868
 15:05:40.853,eb:33:2e:f9:57:b5, 2085-97-33 00:72:03:3469,-0.015,0.418,1.672,350.952,90.393,66.284,-15.266,2.488,-66.566
 15:05:40.853,eb:33:2e:f9:57:b5, 2085-97-154 255:32:03:3665,-0.097,0.403,1.735,351.929,90.149,77.515,-11.728,3.527,-66.099
 15:05:40.853,eb:33:2e:f9:57:b5, 2085-97-203 254:194:02:4010,-0.204,0.37,1.864,353.76,90.698,87.891,-8.124,4.565,-65.44
 15:05:40.933,eb:33:2e:f9:57:b5, 2085-97-237 253:80:02:4444,-0.3,0.321,2.062,353.271,87.952,96.252,-4.515,5.548,-64.644
 15:05:40.933,eb:33:2e:f9:57:b5, 2085-113-58 00:242:254:-3165,-0.331,0.254,2.264,349.426,85.388,101.196,-0.879,6.454,-63.693
 15:05:40.933,eb:33:2e:f9:57:b5, 2085-97-23 253:155:01:5034,-0.394,0.227,2.354,348.511,85.632,103.882,0.923,6.883,-63.204
 15:05:40.933,eb:33:2e:f9:57:b5, 2085-97-161 252:181:00:5479,-0.451,0.164,2.568,353.76,81.238,114.319,4.598,7.668,-62.067
 15:05:40.935,eb:33:2e:f9:57:b5, 2085-97-235 251:209:254:5956,-0.554,-0.018,2.78,366.516,73.853,127.869,8.388,8.295,-60.793
 15:05:40.935,eb:33:2e:f9:57:b5, 2085-97-157 251:141:252:6084,-0.344,-0.288,2.987,375.366,67.261,136.475,12.36,8.74,-59.332
 15:05:40.935,eb:33:2e:f9:57:b5, 2085-97-233 253:59:250:6019,-0.191,-0.585,2.926,366.943,87.708,138.55,16.337,9.141,-57.81
 15:05:40.935,eb:33:2e:f9:57:b5, 2085-97-76 254:42:247:6165,-0.52,-0.864,2.946,342.468,112.122,140.32,20.171,9.684,-56.14
 15:05:40.993,eb:33:2e:f9:57:b5, 2085-97-92 249:08:240:6173,-0.99,-1.475,3.101,321.899,74.402,145.325,23.769,10.063,-54.454
 15:05:40.993,eb:33:2e:f9:57:b5, 2085-97-252 247:187:231:4403,-0.816,-2.543,2.674,303.101,12.146,126.282,27.164,9.789,-53.026
 15:05:40.993,eb:33:2e:f9:57:b5, 2085-97-09 251:13:226:2116,-0.374,-3.514,1.416,238.953,67.261,51.575,30.064,9.591,-52.108
 15:05:40.993,eb:33:2e:f9:57:b5, 2085-97-203 255:02:227:2642,0.428,-3.777,1.007,155.396,192.688,-34.973,32.141,10.756,-51.356
 15:05:41.056,eb:33:2e:f9:57:b5, 2085-97-106 07:168:231:4431,1.372,-3.353,1.722,86.67,232.239,-78.552,33.431,13.002,-50.691
 15:05:41.056,eb:33:2e:f9:57:b5, 2085-97-31 13:134:235:5659,1.739,-2.758,2.528,46.57,142.029,-54.321,34.184,14.985,-50.197
 15:05:41.056,eb:33:2e:f9:57:b5, 2085-97-73 13:175:235:4970,1.475,-2.491,2.733,15.625,-13.123,5.249,34.519,15.584,-50.087
 15:05:41.056,eb:33:2e:f9:57:b5, 2085-97-174 09:160:234:3209,0.921,-2.629,1.968,-26.55,-103.577,48.035,34.409,14.804,-50.246
 15:05:41.056,eb:33:2e:f9:57:b5, 2085-97-218 05:209:235:2485,0.605,-2.631,1.329,-75.989,-103.821,58.289,33.832,13.596,-50.438
 15:05:41.056,eb:33:2e:f9:57:b5, 2085-97-48 04:177:239:2552,0.489,-2.315,1.195,-115.967,-70.312,55.969,32.822,12.557,-50.444
 15:05:41.056,eb:33:2e:f9:57:b5, 2085-97-89 04:155:252:5394,-0.877,-1.711,1.309,-136.841,-47.424,65.491,31.58,11.761,-50.268
 15:05:41.056,eb:33:2e:f9:57:b5, 2085-97-195 248:18:37:517,-0.91,3.911,2.448,-195.129,-9.888,60.669,29.949,11.223,-49.993
 15:05:41.144,eb:33:2e:f9:57:b5, 2085-97-239 245:157:20:2342,-0.772,4.709,0.514,-356.079,-32.532,27.222,27.279,10.783,-49.79
 15:05:41.144,eb:33:2e:f9:57:b5, 2085-97-36 01:105:249:2893,0.704,0.705,1.213,-461.548,-118.286,9.766,22.852,9.987,-50.076
 15:05:41.144,eb:33:2e:f9:57:b5, 2085-97-224 06:03:252:1744,0.808,-1.01,1.116,-389.038,-120.728,35.156,18.55,8.707,-50.328
 15:05:41.144,eb:33:2e:f9:57:b5, 2085-97-51 03:23:249:3058,0.09,-0.429,1.02,-318.054,-38.086,12.024,15.057,7.861,-50.284
 15:05:41.144,eb:33:2e:f9:57:b5, 2085-97-200 00:196:248:3149,0.092,-1.14,1.742,-253.357,-12.39,-62.683,12.195,7.778,-50.658
 15:05:41.144,eb:33:2e:f9:57:b5, 2085-97-182 00:111:00:2005,0.023,-0.226,1.163,-213.196,-2.563,-103.271,9.778,7.839,-51.57
 15:05:41.144,eb:33:2e:f9:57:b5, 2085-97-245 254:234:255:2392,-0.404,0.01,1.011,-192.2,28.198,-84.534,7.625,8.135,-52.553
 15:05:41.144,eb:33:2e:f9:57:b5, 2085-97-232 250:251:255:3107,-0.627,0.072,1.361,-163.818,21.606,-34.241,5.757,8.476,-53.102
 15:05:41.173,eb:33:2e:f9:57:b5, 2085-97-177 251:137:253:2873,-0.433,-0.229,1.521,-122.681,-27.649,0.854,4.323,8.438,-53.256
 15:05:41.173,eb:33:2e:f9:57:b5, 2085-97-252 253:149:254:2191,-0.083,-0.269,1.233,-89.844,-65.918,2.625,3.285,7.932,-53.256
 15:05:41.173,eb:33:2e:f9:57:b5, 2085-97-52 00:164:254:1847,-0.029,-0.163,0.945,-70.435,-72.083,-0.977,2.488,7.207,-53.328
 15:05:41.173,eb:33:2e:f9:57:b5, 2085-97-237 254:75:254:2099,-0.18,-0.175,0.958,-50.781,-59.875,2.197,1.873,6.553,-53.355
 15:05:41.234,eb:33:2e:f9:57:b5, 2085-97-12 255:172:254:2101,-0.015,-0.231,1.057,-29.175,-62.744,4.822,1.489,5.949,-53.366
 15:05:41.234,eb:33:2e:f9:57:b5, 2085-97-86 00:86:255:1844,0.062,-0.1,0.955,-16.907,-59.57,4.272,1.263,5.312,-53.339
 15:05:41.234,eb:33:2e:f9:57:b5, 2085-97-124 00:94:255:1796,0.03,-0.096,0.876,-9.338,-47.974,2.747,1.137,4.779,-53.35
 15:05:41.234,eb:33:2e:f9:57:b5, 2085-97-00 00:100:255:1951,-0.002,-0.07,0.91,-2.808,-38.025,2.075,1.066,4.351,-53.339
 15:05:41.324,eb:33:2e:f9:57:b5, 2085-97-243 255:196:255:2011,0.001,-0.057,0.967,1.892,-33.875,1.038,1.066,3.988,-53.366
 15:05:41.324,eb:33:2e:f9:57:b5, 2085-97-00 00:49:00:2038,0.006,0.001,0.987,2.625,-30.273,0.671,1.077,3.658,-53.372
 15:05:41.324,eb:33:2e:f9:57:b5, 2085-97-58 00:72:00:2039,0.005,0.025,1.005,0.793,-25.452,1.892,1.099,3.378,-53.394
 15:05:41.324,eb:33:2e:f9:57:b5, 2085-97-74 00:83:00:2037,0.062,0.03,1.017,-2.075,-18.677,2.686,1.077,3.159,-53.377
 15:05:41.326,eb:33:2e:f9:57:b5, 2085-97-129 00:85:00:1979,0.049,0.045,0.973,-5.188,-9.216,3.723,1.044,3.021,-53.383
 15:05:41.327,eb:33:2e:f9:57:b5, 2085-97-69 00:59:00:1998,0.032,0.032,0.972,-7.263,-0.305,4.944,0.967,2.972,-53.344
 15:05:41.327,eb:33:2e:f9:57:b5, 2085-97-61 00:31:00:1991,0.013,0.024,0.976,-8.24,4.822,6.104,0.89,2.994,-53.322
 15:05:41.327,eb:33:2e:f9:57:b5, 2085-97-247 255:16:00:2041,-0.03,0.012,0.984,-8.362,8.545,6.592,0.797,3.06,-53.262
 15:05:41.352,eb:33:2e:f9:57:b5, 2085-97-150 255:246:255:2097,-0.065,0.002,1.011,-7.812,9.399,7.202,0.72,3.148,-53.223
 15:05:41.352,eb:33:2e:f9:57:b5, 2085-97-120 255:226:255:2111,-0.08,-0.021,1.025,-5.981,5.981,7.874,0.643,3.219,-53.152
 15:05:41.352,eb:33:2e:f9:57:b5, 2085-97-53 255:229:255:2158,-0.101,-0.015,1.039,-4.578,-0.244,8.423,0.593,3.241,-53.102
 15:05:41.352,eb:33:2e:f9:57:b5, 2085-97-71 255:03:00:2157,-0.074,-0.003,1.061,-4.578,-8.301,7.996,0.544,3.186,-53.026
 15:05:41.384,eb:33:2e:f9:57:b5, 2085-97-153 255:05:00:2101,-0.018,0.003,1.044,-5.066,-14.221,7.935,0.494,3.065,-52.982
 15:05:41.384,eb:33:2e:f9:57:b5, 2085-97-221 255:09:00:2052,-0.005,0,1.002,-5.371,-15.259,7.874,0.434,2.906,-52.91
 15:05:41.384,eb:33:2e:f9:57:b5, 2085-97-229 255:41:00:2063,-0.017,0.01,0.996,-6.226,-13.916,7.751,0.385,2.758,-52.872
 15:05:41.384,eb:33:2e:f9:57:b5, 2085-97-209 255:48:00:2086,-0.014,0.021,1.015,-8.606,-12.756,7.385,0.297,2.615,-52.795
 15:05:41.442,eb:33:2e:f9:57:b5, 2085-97-03 00:08:00:2054,0.009,0.012,1.013,-10.681,-11.902,6.836,0.203,2.488,-52.762
 15:05:41.442,eb:33:2e:f9:57:b5, 2085-97-26 00:13:00:2034,0.006,0.011,0.997,-11.658,-9.583,6.653,0.082,2.373,-52.696
 15:05:41.442,eb:33:2e:f9:57:b5, 2085-97-230 255:232:255:2058,-0.021,0.005,0.994,-12.634,-7.08,6.348,-0.033,2.291,-52.668
 15:05:41.442,eb:33:2e:f9:57:b5, 2085-97-190 255:227:255:2098,-0.052,-0.009,1.012,-12.573,-7.69,5.981,-0.17,2.214,-52.608
 15:05:41.474,eb:33:2e:f9:57:b5, 2085-97-128 255:248:255:2170,-0.075,-0.021,1.042,-12.939,-10.376,5.737,-0.297,2.12,-52.586
 15:05:41.474,eb:33:2e:f9:57:b5, 2085-97-106 255:223:255:2189,-0.051,-0.016,1.067,-14.465,-15.747,5.371,-0.445,1.983,-52.531
 15:05:41.474,eb:33:2e:f9:57:b5, 2085-97-238 255:232:255:2113,0.022,-0.009,1.054,-16.724,-19.531,4.456,-0.604,1.796,-52.515
 15:05:41.474,eb:33:2e:f9:57:b5, 2085-97-59 00:17:00:2092,0.011,0.004,1.017,-19.104,-16.602,4.028,-0.791,1.604,-52.471
 15:05:41.503,eb:33:2e:f9:57:b5, 2085-97-66 00:239:255:2079,0.05,-0.006,1.021,-22.644,-11.353,3.845,-1.005,1.467,-52.465
 15:05:41.503,eb:33:2e:f9:57:b5, 2085-97-143 00:246:255:2053,0.051,-0.007,1.002,-24.658,-3.723,4.333,-1.252,1.384,-52.427
 15:05:41.503,eb:33:2e:f9:57:b5, 2085-97-84 00:249:255:2077,0.047,-0.006,1.01,-27.1,5.127,5.371,-1.511,1.401,-52.416
 15:05:41.503,eb:33:2e:f9:57:b5, 2085-97-79 00:05:00:2109,0.022,-0.011,1.01,-29.053,12.085,6.165,-1.802,1.483,-52.361
 15:05:41.563,eb:33:2e:f9:57:b5, 2085-97-35 00:06:00:2229,0.024,-0.004,1.058,-32.776,19.653,7.446,-2.109,1.648,-52.333
 15:05:41.563,eb:33:2e:f9:57:b5, 2085-97-35 00:31:00:2273,0.032,0.013,1.109,-37.537,24.902,10.132,-2.472,1.873,-52.256
 15:05:41.563,eb:33:2e:f9:57:b5, 2085-97-61 00:103:00:2385,0.021,0.042,1.162,-44.495,31.372,13.306,-2.878,2.159,-52.191
 15:05:41.563,eb:33:2e:f9:57:b5, 2085-97-62 00:82:00:2502,0.062,0.051,1.186,-53.162,37.109,18.372,-3.373,2.505,-52.048
 15:05:41.594,eb:33:2e:f9:57:b5, 2085-97-138 00:142:00:2639,0.035,0.085,1.305,-67.871,38.452,22.888,-3.977,2.9,-51.905
 15:05:41.594,eb:33:2e:f9:57:b5, 2085-97-211 255:148:00:2881,-0.032,0.057,1.367,-84.839,41.016,23.01,-4.746,3.318,-51.707
 15:05:41.594,eb:33:2e:f9:57:b5, 2085-97-148 255:97:00:2849,-0.071,0.045,1.432,-100.403,37.476,25.513,-5.663,3.724,-51.531
 15:05:41.594,eb:33:2e:f9:57:b5, 2085-97-53 255:56:00:2976,-0.135,0.045,1.416,-116.211,37.354,24.536,-6.757,4.125,-51.323
 15:05:41.623,eb:33:2e:f9:57:b5, 2085-97-222 254:228:255:3074,-0.116,-0.039,1.447,-132.202,32.104,21.301,-7.993,4.493,-51.174
 15:05:41.623,eb:33:2e:f9:57:b5, 2085-97-04 255:71:00:3122,-0.139,-0.023,1.487,-144.653,23.315,17.395,-9.382,4.785,-51.015
 15:05:41.623,eb:33:2e:f9:57:b5, 2085-97-215 254:64:00:3299,-0.128,0.018,1.521,-159.729,17.212,13.977,-10.898,4.999,-50.927
 15:05:41.623,eb:33:2e:f9:57:b5, 2085-113-81 00:241:140:2602,-0.121,0.104,1.612,-178.345,8.423,9.827,-12.596,5.136,-50.839
 15:05:41.623,eb:33:2e:f9:57:b5, 2085-97-52 255:109:01:3494,-0.165,0.169,1.662,-189.575,6.958,8.728,-13.519,5.18,-50.801
 15:05:41.683,eb:33:2e:f9:57:b5, 2085-97-184 253:149:01:3685,-0.354,0.208,1.778,-216.431,2.502,4.333,-15.557,5.246,-50.79
 15:05:41.683,eb:33:2e:f9:57:b5, 2085-97-112 252:89:01:3916,-0.502,0.182,1.802,-246.643,-4.15,-5.188,-17.891,5.224,-50.779
 15:05:41.683,eb:33:2e:f9:57:b5, 2085-97-182 251:130:02:4283,-0.584,0.238,1.99,-282.959,-13.428,-22.095,-20.566,5.087,-50.933
 15:05:41.683,eb:33:2e:f9:57:b5, 2085-97-252 250:72:02:4675,-0.688,0.337,2.105,-325.195,-24.597,-38.94,-23.654,4.779,-51.141
 15:05:41.745,eb:33:2e:f9:57:b5, 2085-97-79 250:149:01:4892,-0.742,0.295,2.382,-366.577,-50.781,-58.044,-27.158,4.213,-51.465
 15:05:41.745,eb:33:2e:f9:57:b5, 2085-97-161 250:94:00:5129,-0.624,0.156,2.498,-401.062,-81.299,-76.66,-31.053,3.296,-51.735
 15:05:41.745,eb:33:2e:f9:57:b5, 2085-97-99 251:09:254:4879,-0.568,-0.133,2.485,-421.448,-117.798,-90.027,-35.206,1.967,-51.877
 15:05:41.745,eb:33:2e:f9:57:b5, 2085-97-210 250:67:253:4340,-0.664,-0.354,2.125,-428.101,-121.155,-104.736,-39.463,0.396,-51.894
 15:05:41.747,eb:33:2e:f9:57:b5, 2085-97-73 250:160:255:4959,-0.662,-0.316,2.198,-415.222,-128.052,-127.014,-43.698,-1.296,-51.976
 15:05:41.747,eb:33:2e:f9:57:b5, 2085-97-26 251:148:01:3848,-0.681,0.197,2.199,-415.894,-170.532,-131.348,-47.84,-3.318,-51.768
 15:05:41.747,eb:33:2e:f9:57:b5, 2085-97-129 249:143:03:3211,-0.95,0.321,1.712,-435.12,-121.887,-146.667,-52.108,-5.361,-51.509
 15:05:41.747,eb:33:2e:f9:57:b5, 2085-97-00 248:222:04:1838,-1.028,0.544,1.351,-459.839,-36.133,-159.79,-56.574,-7.064,-51.801
 15:05:41.803,eb:33:2e:f9:57:b5, 2085-97-142 245:68:04:-751,-1.527,0.552,0.528,-445.801,61.523,-181.274,-61.002,-8.427,-52.828
 15:05:41.803,eb:33:2e:f9:57:b5, 2085-97-155 245:93:02:-595,-0.947,0.178,-0.42,-312.866,172.424,-264.465,-64.468,-9.838,-55.047
 15:05:41.803,eb:33:2e:f9:57:b5, 2085-97-222 249:243:09:301,-0.748,0.796,-0.1,-69.824,165.955,-263.733,-65.781,-11.574,-57.827
 15:05:41.803,eb:33:2e:f9:57:b5, 2085-97-147 249:68:12:1818,-0.774,1.471,0.485,133.972,117.493,-218.933,-64.786,-13.178,-60.156
 15:05:41.833,eb:33:2e:f9:57:b5, 2085-97-132 250:37:11:2465,-0.599,1.488,1.15,234.131,59.692,-179.443,-62.408,-14.557,-61.82
 15:05:41.833,eb:33:2e:f9:57:b5, 2085-97-184 251:203:09:1744,-0.494,1.308,1.082,246.643,44.25,-172.363,-59.606,-15.842,-63.122
 15:05:41.833,eb:33:2e:f9:57:b5, 2085-97-105 252:97:08:819,-0.361,1.136,0.601,235.168,65.613,-171.082,-56.799,-17.023,-64.545
 15:05:41.833,eb:33:2e:f9:57:b5, 2085-97-06 254:247:07:401,-0.149,1.004,0.27,233.398,100.22,-160.767,-53.948,-17.908,-66.264
 15:05:41.895,eb:33:2e:f9:57:b5, 2085-97-105 255:93:08:407,-0.022,1.015,0.178,245.117,135.864,-139.893,-50.949,-18.364,-68.231
 15:05:41.895,eb:33:2e:f9:57:b5, 2085-97-154 00:193:08:699,0.116,1.061,0.25,271.362,152.771,-101.379,-47.725,-18.314,-70.241
 15:05:41.895,eb:33:2e:f9:57:b5, 2085-97-42 01:72:09:1776,0.158,1.152,0.587,295.105,152.1,-51.636,-44.335,-17.776,-71.955
 15:05:41.895,eb:33:2e:f9:57:b5, 2085-97-101 01:159:08:2077,0.189,1.131,0.975,303.284,122.192,2.258,-40.979,-16.913,-73.076
 15:05:42.072,eb:33:2e:f9:57:b5, 2085-97-140 01:94:07:1737,0.177,1.002,0.957,301.636,94.604,59.509,-37.831,-15.881,-73.477
 15:05:42.072,eb:33:2e:f9:57:b5, 2085-97-35 01:66:06:1292,0.083,0.846,0.723,299.194,101.44,103.821,-34.849,-14.606,-73.372
 15:05:42.072,eb:33:2e:f9:57:b5, 2085-97-95 00:99:05:1414,-0.016,0.723,0.628,299.316,132.141,140.869,-31.954,-12.942,-72.955
 15:05:42.072,eb:33:2e:f9:57:b5, 2085-97-108 255:152:04:1866,-0.122,0.632,0.808,294.922,166.321,166.443,-29.081,-10.838,-72.383
 15:05:42.075,eb:33:2e:f9:57:b5, 2085-97-189 254:127:03:2348,-0.183,0.506,1.019,289.49,184.814,184.753,-26.285,-8.438,-71.636
 15:05:42.075,eb:33:2e:f9:57:b5, 2085-97-88 254:87:02:2901,-0.227,0.366,1.284,283.203,187.683,195.435,-23.522,-5.927,-70.697
 15:05:42.075,eb:33:2e:f9:57:b5, 2085-97-12 254:70:01:3338,-0.25,0.223,1.533,277.1,177.673,198.669,-20.819,-3.488,-69.571
 15:05:42.075,eb:33:2e:f9:57:b5, 2085-97-247 253:106:00:3562,-0.258,0.102,1.695,273.865,161.072,196.106,-18.1,-1.236,-68.28
 15:05:42.077,eb:33:2e:f9:57:b5, 2085-97-207 253:236:255:3797,-0.302,0.014,1.786,275.818,146.362,189.575,-15.359,0.775,-66.901
 15:05:42.077,eb:33:2e:f9:57:b5, 2085-97-87 253:196:255:4146,-0.358,-0.024,1.938,284.485,127.563,181.702,-12.491,2.549,-65.44
 15:05:42.077,eb:33:2e:f9:57:b5, 2085-97-231 252:187:255:4467,-0.409,-0.031,2.106,298.035,100.098,174.744,-9.487,3.994,-63.94
 15:05:42.077,eb:33:2e:f9:57:b5, 2085-97-125 252:103:255:4641,-0.464,-0.056,2.231,310.364,69.153,167.419,-6.284,5.054,-62.364
 15:05:42.079,eb:33:2e:f9:57:b5, 2085-97-249 251:198:254:4737,-0.545,-0.106,2.282,317.688,47.363,158.02,-2.983,5.74,-60.82
 15:05:42.079,eb:33:2e:f9:57:b5, 2085-97-48 251:198:253:4876,-0.681,-0.21,2.345,322.754,37.048,147.217,0.396,6.191,-59.304
 15:05:42.079,eb:33:2e:f9:57:b5, 2085-97-222 249:106:252:4994,-0.838,-0.355,2.412,331.238,28.809,137.573,3.829,6.465,-57.903
 15:05:42.079,eb:33:2e:f9:57:b5, 2085-97-200 248:65:250:4989,-0.986,-0.564,2.448,342.896,16.479,130.188,7.383,6.559,-56.547
 15:05:42.102,eb:33:2e:f9:57:b5, 2085-97-85 247:250:246:4801,-1.177,-0.903,2.406,347.046,12.451,117.004,10.992,6.493,-55.327
 15:05:42.102,eb:33:2e:f9:57:b5, 2085-97-45 246:34:242:4207,-1.169,-1.391,2.236,336.365,26.733,89.844,14.557,6.443,-54.272
 15:05:42.102,eb:33:2e:f9:57:b5, 2085-97-18 247:126:238:3664,-0.98,-1.994,1.863,303.65,83.435,38.635,17.842,6.795,-53.553
 15:05:42.102,eb:33:2e:f9:57:b5, 2085-97-06 250:44:237:3329,-0.435,-2.32,1.671,258.24,153.076,-12.695,20.715,7.916,-53.053
 15:05:42.104,eb:33:2e:f9:57:b5, 2085-97-125 255:203:237:3650,0.363,-2.336,1.67,205.811,217.041,-47.241,23.071,9.805,-52.685
 15:05:42.104,eb:33:2e:f9:57:b5, 2085-97-148 05:202:239:4354,1,-2.151,1.93,153.992,245.361,-51.636,24.95,12.189,-52.185
 15:05:42.104,eb:33:2e:f9:57:b5, 2085-97-113 09:80:239:4976,1.259,-2.013,2.269,109.192,204.468,-23.56,26.384,14.409,-51.559
 15:05:42.104,eb:33:2e:f9:57:b5, 2085-97-70 10:44:236:4835,1.26,-2.247,2.487,77.454,102.661,13.367,27.477,15.782,-50.878
 15:05:42.164,eb:33:2e:f9:57:b5, 2085-97-180 09:164:232:3687,1.165,-2.719,2.108,46.814,4.456,33.936,28.218,16.051,-50.444
 15:05:42.164,eb:33:2e:f9:57:b5, 2085-97-246 08:201:231:2571,1.12,-3.035,1.492,1.099,-26.978,26.428,28.499,15.732,-50.251
 15:05:42.164,eb:33:2e:f9:57:b5, 2085-97-106 09:147:235:2334,1.262,-2.841,1.134,-47.546,-6.958,15.198,28.262,15.491,-50.197
 15:05:42.164,eb:33:2e:f9:57:b5, 2085-97-197 10:121:241:2817,1.4,-2.185,1.251,-85.388,11.23,27.466,27.614,15.441,-50.004
 15:05:42.223,eb:33:2e:f9:57:b5, 2085-97-49 249:114:22:17094,1.645,-1.444,1.516,-104.248,63.721,53.528,26.768,15.37,-49.526
 15:05:42.223,eb:33:2e:f9:57:b5, 2085-97-74 01:73:18:-524,0.238,0.972,0.286,-251.892,-189.026,92.407,24.664,13.206,-49.362
 15:05:42.223,eb:33:2e:f9:57:b5, 2085-97-23 05:63:13:1506,0.803,2.703,0.1,-364.319,-113.281,121.338,21.72,11.409,-48.856
 15:05:42.223,eb:33:2e:f9:57:b5, 2085-97-179 02:49:252:2935,0.324,0.679,0.921,-408.142,-60.181,81.909,17.858,10.234,-48.203
 15:05:42.253,eb:33:2e:f9:57:b5, 2085-97-134 03:50:245:2966,0.562,-1.088,1.512,-359.985,-62.012,31.677,14.057,9.514,-47.878
 15:05:42.253,eb:33:2e:f9:57:b5, 2085-97-142 02:82:248:2808,0.28,-1.291,1.41,-276.55,-33.508,-41.504,10.854,8.992,-48.071
 15:05:42.253,eb:33:2e:f9:57:b5, 2085-97-108 02:166:253:2094,0.074,-0.599,1.19,-217.529,16.357,-94.849,8.339,9.047,-48.873
 15:05:42.253,eb:33:2e:f9:57:b5, 2085-97-171 253:223:01:2272,-0.487,0.044,0.984,-198.059,56.091,-90.21,6.13,9.58,-49.807
 15:05:42.313,eb:33:2e:f9:57:b5, 2085-97-173 251:07:255:2926,-0.833,0.238,1.275,-183.167,40.588,-31.006,4.131,10.151,-50.389
 15:05:42.313,eb:33:2e:f9:57:b5, 2085-97-113 248:249:249:3186,-0.612,-0.436,1.582,-127.93,-7.263,12.268,2.543,10.333,-50.433
 15:05:42.313,eb:33:2e:f9:57:b5, 2085-97-169 253:79:252:2097,0.033,-0.72,1.331,-62.927,-69.885,10.498,1.659,9.855,-50.339
 15:05:42.313,eb:33:2e:f9:57:b5, 2085-97-166 00:131:255:1655,-0.081,-0.179,0.842,-39.124,-66.895,-0.793,1.181,9.108,-50.328
 15:05:42.373,eb:33:2e:f9:57:b5, 2085-97-192 254:68:254:2008,-0.095,-0.155,0.912,-26.672,-47.546,4.211,0.846,8.569,-50.356
 15:05:42.373,eb:33:2e:f9:57:b5, 2085-97-22 00:55:255:1870,0.035,-0.191,0.956,-10.376,-43.762,2.625,0.67,8.102,-50.328
 15:05:42.373,eb:33:2e:f9:57:b5, 2085-97-133 00:175:255:1790,0.054,-0.058,0.914,-5.676,-28.564,-0.366,0.593,7.745,-50.367
 15:05:42.373,eb:33:2e:f9:57:b5, 2085-97-218 255:126:255:1881,-0.108,-0.058,0.873,-1.648,-11.353,-0.488,0.544,7.548,-50.378
 15:05:42.375,eb:33:2e:f9:57:b5, 2085-97-186 254:134:255:2134,-0.161,-0.061,0.995,2.991,-7.385,-0.732,0.555,7.471,-50.422
 15:05:42.375,eb:33:2e:f9:57:b5, 2085-97-224 254:203:255:2147,-0.117,-0.042,1.052,5.859,-13.611,-1.343,0.582,7.355,-50.438
 15:05:42.375,eb:33:2e:f9:57:b5, 2085-97-54 255:253:255:2112,-0.106,-0.015,1.038,6.348,-16.235,-1.526,0.648,7.202,-50.493
 15:05:42.375,eb:33:2e:f9:57:b5, 2085-97-48 255:42:00:2148,-0.108,0.007,1.047,4.761,-16.357,-1.404,0.687,7.031,-50.515
 15:05:42.465,eb:33:2e:f9:57:b5, 2085-97-50 255:23:00:2128,-0.08,0.016,1.053,2.808,-15.686,-0.549,0.72,6.866,-50.565
 15:05:42.465,eb:33:2e:f9:57:b5, 2085-97-120 255:00:00:2051,-0.066,0.005,1.016,1.892,-14.526,-0.122,0.731,6.707,-50.576
 15:05:42.465,eb:33:2e:f9:57:b5, 2085-97-126 255:11:00:2028,-0.083,0.003,0.994,1.953,-12.207,0.549,0.747,6.575,-50.614
 15:05:42.465,eb:33:2e:f9:57:b5, 2085-97-89 255:250:255:2021,-0.06,0,1.001,2.38,-11.292,1.16,0.758,6.454,-50.609
 15:05:42.465,eb:33:2e:f9:57:b5, 2085-97-133 255:16:00:2007,-0.089,0.011,0.972,3.296,-9.827,2.563,0.791,6.345,-50.625
 15:05:42.465,eb:33:2e:f9:57:b5, 2085-97-58 255:43:00:2058,-0.103,0.008,1,3.479,-9.155,3.845,0.813,6.246,-50.598
 15:05:42.465,eb:33:2e:f9:57:b5, 2085-97-25 255:08:00:2091,-0.113,0.013,1.01,2.808,-11.78,4.395,0.851,6.141,-50.592
 15:05:42.466,eb:33:2e:f9:57:b5, 2085-97-243 254:26:00:2137,-0.141,0.007,1.025,2.319,-16.296,4.517,0.868,5.988,-50.554
 15:05:42.467,eb:33:2e:f9:57:b5, 2085-97-252 254:56:00:2146,-0.095,0.021,1.054,0.977,-23.315,4.578,0.89,5.79,-50.548
 15:05:42.467,eb:33:2e:f9:57:b5, 2085-97-120 255:24:00:2050,-0.051,0.022,1.022,-0.244,-27.466,4.7,0.879,5.521,-50.51
 15:05:42.467,eb:33:2e:f9:57:b5, 2085-97-182 255:76:00:2033,-0.044,0.014,0.995,-0.549,-26.306,5.493,0.879,5.246,-50.499
 15:05:42.467,eb:33:2e:f9:57:b5, 2085-97-156 255:93:00:2056,-0.056,0.049,1,-2.93,-23.621,6.287,0.857,4.988,-50.449
 15:05:42.673,eb:33:2e:f9:57:b5, 2085-97-180 255:96:00:2059,-0.017,0.037,1.016,-5.798,-22.461,6.653,0.818,4.757,-50.422
 15:05:42.673,eb:33:2e:f9:57:b5, 2085-97-235 255:77:00:2034,-0.019,0.048,0.994,-9.094,-18.677,7.08,0.731,4.543,-50.356
 15:05:42.673,eb:33:2e:f9:57:b5, 2085-97-168 255:47:00:2074,-0.074,0.025,0.998,-11.597,-13.123,6.775,0.632,4.384,-50.328
 15:05:42.673,eb:33:2e:f9:57:b5, 2085-97-105 255:59:00:2127,-0.07,0.022,1.035,-13.916,-13.184,6.47,0.494,4.252,-50.268
 15:05:42.678,eb:33:2e:f9:57:b5, 2085-97-111 255:03:00:2111,-0.059,0.02,1.034,-16.418,-14.709,6.653,0.346,4.109,-50.235
 15:05:42.678,eb:33:2e:f9:57:b5, 2085-97-177 255:00:00:2059,-0.04,-0.008,1.017,-17.578,-15.93,6.348,0.165,3.944,-50.175
 15:05:42.678,eb:33:2e:f9:57:b5, 2085-97-173 255:35:00:2107,-0.048,0.014,1.017,-18.677,-14.587,6.653,-0.011,3.79,-50.147
 15:05:42.678,eb:33:2e:f9:57:b5, 2085-97-157 255:00:00:2135,-0.032,0.016,1.041,-21.362,-12.573,6.47,-0.214,3.647,-50.087
 15:05:42.681,eb:33:2e:f9:57:b5, 2085-97-225 255:29:00:2096,0.009,0,1.03,-23.01,-9.46,7.446,-0.434,3.538,-50.054
 15:05:42.681,eb:33:2e:f9:57:b5, 2085-97-65 00:23:00:2048,-0.011,0.02,1.011,-26.123,-2.502,8.423,-0.687,3.472,-49.977
 15:05:42.681,eb:33:2e:f9:57:b5, 2085-97-224 255:218:255:2101,0.032,-0.02,1.001,-28.625,5.127,8.789,-0.961,3.494,-49.927
 15:05:42.681,eb:33:2e:f9:57:b5, 2085-97-55 00:10:00:2062,0.043,0.038,1.059,-31.86,11.597,10.01,-1.269,3.571,-49.839
 15:05:42.683,eb:33:2e:f9:57:b5, 2085-97-144 00:100:00:2087,0.056,0.024,1.01,-35.767,22.339,11.108,-1.599,3.746,-49.779
 15:05:42.683,eb:33:2e:f9:57:b5, 2085-97-11 00:61:00:2255,-0.023,0.035,1.036,-39.978,34.546,14.465,-1.983,4.037,-49.658
 15:05:42.683,eb:33:2e:f9:57:b5, 2085-97-240 255:43:00:2264,-0.043,0.033,1.142,-46.814,38.818,17.151,-2.406,4.417,-49.554
 15:05:42.683,eb:33:2e:f9:57:b5, 2085-97-191 255:125:00:2508,-0.029,0.046,1.192,-56.58,43.701,19.104,-2.928,4.839,-49.395
 15:05:42.684,eb:33:2e:f9:57:b5, 2085-97-199 255:81:01:2892,-0.01,0.066,1.297,-69.702,43.091,23.743,-3.549,5.295,-49.241
 15:05:42.684,eb:33:2e:f9:57:b5, 2085-97-20 255:99:00:3000,-0.113,-0.037,1.167,-85.327,47.119,27.649,-4.318,5.713,-48.988
