Time,Device name,Chip Time(),Acceleration X(g),Acceleration Y(g),Acceleration Z(g),Angular velocity X(°/s),Angular velocity Y(°/s),Angular velocity Z(°/s),ShiftX(mm),ShiftY(mm),ShiftZ(mm),SpeedX(mm/s),SpeedY(mm/s),SpeedZ(mm/s),Angle X(°),Angle Y(°),Angle Z(°)
 13:50:22.451,eb:33:2e:f9:57:b5, 2015-01-01 00:14:31.480,0.774,-0.006,2.436,265.991,205.2,-53.04, , , , , , ,12.656,4.977,-119.762
 13:50:22.452,eb:33:2e:f9:57:b5, 2015-01-01 00:14:31.480,0.448,-0.086,2.77,282.715,218.14,-42.542, , , , , , ,14.041,6.075,-119.745
 13:50:22.453,eb:33:2e:f9:57:b5, 2015-01-01 00:14:31.480,0.561,-0.468,2.811,298.828,228.394,-36.804, , , , , , ,15.513,7.202,-119.647
 13:50:22.453,eb:33:2e:f9:57:b5, 2015-01-01 00:14:31.480,0.573,-0.808,2.474,312.744,235.413,-27.893, , , , , , ,17.073,8.361,-119.476
 13:50:22.453,eb:33:2e:f9:57:b5, 2015-01-01 00:14:31.480,0.743,-0.905,2.325,328.674,244.507,-29.236, , , , , , ,18.721,9.547,-119.24
 13:50:22.453,eb:33:2e:f9:57:b5, 2015-01-01 00:14:31.480,0.727,-0.77,2.148,346.069,252.991,-31.189, , , , , , ,20.473,10.767,-118.954
 13:50:22.453,eb:33:2e:f9:57:b5, 2015-01-01 00:14:31.480,0.668,-0.742,2.184,353.943,266.541,-36.743, , , , , , ,22.28,12.036,-118.647
 13:50:22.453,eb:33:2e:f9:57:b5, 2015-01-01 00:14:31.480,0.816,-0.948,2.507,368.347,290.71,-40.405, , , , , , ,24.175,13.414,-118.262
 13:50:22.456,eb:33:2e:f9:57:b5, 2015-01-01 00:14:31.480,0.972,-0.742,2.251,389.954,316.101,-37.109, , , , , , ,26.202,14.875,-117.762
 13:50:22.456,eb:33:2e:f9:57:b5, 2015-01-01 00:14:31.480,0.969,-0.327,2.365,413.696,339.844,-46.143, , , , , , ,28.383,16.441,-117.175
 13:50:22.456,eb:33:2e:f9:57:b5, 2015-01-01 00:14:31.480,1.193,-0.101,2.675,422.302,370.117,-54.565, , , , , , ,30.685,18.116,-116.488
 13:50:22.456,eb:33:2e:f9:57:b5, 2015-01-01 00:14:31.480,1.264,-0.234,3.09,427.185,395.935,-49.133, , , , , , ,33.08,19.896,-115.648
 13:50:22.456,eb:33:2e:f9:57:b5, 2015-01-01 00:14:31.480,1.266,-0.241,3.307,435.12,407.776,-45.654, , , , , , ,35.601,21.709,-114.631
 13:50:22.456,eb:33:2e:f9:57:b5, 2015-01-01 00:14:31.480,1.368,0.333,3.276,446.411,389.587,-50.476, , , , , , ,38.227,23.439,-113.538
 13:50:22.457,eb:33:2e:f9:57:b5, 2015-01-01 00:14:31.480,1.394,1.334,4.039,469.299,385.193,-78.796, , , , , , ,40.957,25.126,-112.478
 13:50:22.457,eb:33:2e:f9:57:b5, 2015-01-01 00:14:31.480,0.797,0.791,4.651,474.67,394.592,-92.773, , , , , , ,43.802,26.873,-111.39
 13:50:22.457,eb:33:2e:f9:57:b5, 2015-01-01 00:14:31.480,0.291,0.472,4.6,467.346,392.334,-100.83, , , , , , ,46.719,28.619,-110.193
 13:50:22.457,eb:33:2e:f9:57:b5, 2015-01-01 00:14:31.480,0.201,0.845,4.69,442.444,378.845,-103.882, , , , , , ,49.609,30.278,-108.935
 13:50:22.457,eb:33:2e:f9:57:b5, 2015-01-01 00:14:31.480,0.358,0.924,5.329,402.893,390.625,-96.252, , , , , , ,52.394,31.882,-107.578
 13:50:22.457,eb:33:2e:f9:57:b5, 2015-01-01 00:14:31.480,0.635,0.584,5.737,355.53,429.321,-86.121, , , , , , ,55.162,33.47,-105.919
 13:50:22.457,eb:33:2e:f9:57:b5, 2015-01-01 00:14:31.480,0.791,-0.151,5.095,305.603,447.876,-69.885, , , , , , ,57.914,35.013,-103.931
 13:50:22.457,eb:33:2e:f9:57:b5, 2015-01-01 00:14:31.480,0.637,-1.752,3.702,233.704,427.917,-15.686, , , , , , ,60.496,36.321,-101.75
 13:50:22.457,eb:33:2e:f9:57:b5, 2015-01-01 00:14:31.480,0.544,-2.697,4.67,218.018,475.708,85.815, , , , , , ,63.105,37.178,-99.196
 13:50:22.458,eb:33:2e:f9:57:b5, 2015-01-01 00:14:31.480,0.124,-1.744,5.865,306.702,520.264,138.977, , , , , , ,66.418,37.678,-95.944
 13:50:22.460,eb:33:2e:f9:57:b5, 2015-01-01 00:14:31.480,1.793,0.676,3.957,317.627,447.693,125.977, , , , , , ,69.966,37.963,-92.829
 13:50:22.460,eb:33:2e:f9:57:b5, 2015-01-01 00:14:31.480,1.552,1.209,3.465,229.309,378.601,167.053, , , , , , ,72.982,37.897,-90.082
 13:50:22.460,eb:33:2e:f9:57:b5, 2015-01-01 00:14:31.480,1.351,-0.181,3.465,172.852,306.458,164.978, , , , , , ,75.333,37.54,-87.781
 13:50:22.460,eb:33:2e:f9:57:b5, 2015-01-01 00:14:31.480,1.51,-0.912,2.702,133.85,235.779,164.856, , , , , , ,77.201,37.057,-85.935
 13:50:22.460,eb:33:2e:f9:57:b5, 2015-01-01 00:14:31.480,1.452,-0.958,1.98,89.478,185.669,177.124, , , , , , ,78.618,36.431,-84.457
 13:50:22.460,eb:33:2e:f9:57:b5, 2015-01-01 00:14:31.480,1.365,-1.085,1.865,59.326,144.958,179.993, , , , , , ,79.667,35.7,-83.271
 13:50:22.460,eb:33:2e:f9:57:b5, 2015-01-01 00:14:31.480,1.296,-1.229,2.042,47.546,105.713,174.988, , , , , , ,80.409,34.926,-82.386
 13:50:22.460,eb:33:2e:f9:57:b5, 2015-01-01 00:14:31.480,1.265,-1.282,2.27,43.945,73.242,163.635, , , , , , ,81.024,34.162,-81.705
 13:50:22.462,eb:33:2e:f9:57:b5, 2015-01-01 00:14:31.480,1.22,-1.336,2.347,42.908,44.495,149.536, , , , , , ,81.502,33.437,-81.233
 13:50:22.462,eb:33:2e:f9:57:b5, 2015-01-01 00:14:31.480,1.17,-1.459,2.261,39.368,22.522,130.859, , , , , , ,81.87,32.778,-80.931
 13:50:22.463,eb:33:2e:f9:57:b5, 2015-01-01 00:14:31.480,1.093,-1.665,2.122,30.334,6.897,110.657, , , , , , ,82.09,32.19,-80.793
 13:50:22.463,eb:33:2e:f9:57:b5, 2015-01-01 00:14:31.480,1.063,-1.888,1.864,10.986,-2.991,94.849, , , , , , ,82.233,31.696,-80.711
 13:50:22.463,eb:33:2e:f9:57:b5, 2015-01-01 00:14:31.480,1.081,-2.1,1.417,-21.484,-6.714,84.839, , , , , , ,82.216,31.251,-80.673
 13:50:22.463,eb:33:2e:f9:57:b5, 2015-01-01 00:14:31.480,1.144,-2.306,0.858,-65.857,-6.775,78.674, , , , , , ,81.991,30.85,-80.645
 13:50:22.463,eb:33:2e:f9:57:b5, 2015-01-01 00:14:31.480,1.242,-2.534,0.07,-121.033,-10.376,76.355, , , , , , ,81.458,30.454,-80.667
 13:50:22.463,eb:33:2e:f9:57:b5, 2015-01-01 00:14:31.480,1.353,-2.774,-0.707,-180.786,-24.414,75.989, , , , , , ,80.662,30.064,-80.7
 13:50:22.497,eb:33:2e:f9:57:b5, 2015-01-01 00:14:31.480,1.427,-2.917,-1.132,-237.061,-52.795,75.562, , , , , , ,79.508,29.658,-80.848
 13:50:22.497,eb:33:2e:f9:57:b5, 2015-01-01 00:14:31.480,1.454,-2.907,-1.095,-284.363,-92.163,71.045, , , , , , ,78.008,29.224,-81.194
 13:50:22.497,eb:33:2e:f9:57:b5, 2015-01-01 00:14:31.480,1.476,-2.817,-0.882,-323.792,-134.644,65.063, , , , , , ,76.141,28.762,-81.799
 13:50:22.497,eb:33:2e:f9:57:b5, 2015-01-01 00:14:31.480,1.514,-2.756,-0.727,-360.718,-169.983,59.265, , , , , , ,74.042,28.262,-82.573
 13:50:22.497,eb:33:2e:f9:57:b5, 2015-01-01 00:14:31.480,1.492,-2.764,-0.59,-397.095,-193.359,56.396, , , , , , ,71.702,27.719,-83.474
 13:50:22.497,eb:33:2e:f9:57:b5, 2015-01-01 00:14:31.480,1.448,-2.742,-0.406,-432.739,-206.238,55.237, , , , , , ,69.164,27.12,-84.441
 13:50:22.497,eb:33:2e:f9:57:b5, 2015-01-01 00:14:31.480,1.383,-2.644,-0.19,-465.881,-212.341,56.58, , , , , , ,66.418,26.455,-85.446
 13:50:22.497,eb:33:2e:f9:57:b5, 2015-01-01 00:14:31.480,1.328,-2.504,0,-495.239,-217.834,60.425, , , , , , ,63.578,25.735,-86.396
 13:50:22.542,eb:33:2e:f9:57:b5, 2015-01-01 00:14:31.480,1.316,-2.332,0.163,-521.118,-223.572,66.833, , , , , , ,60.634,24.933,-87.308
 13:50:22.542,eb:33:2e:f9:57:b5, 2015-01-01 00:14:31.480,1.327,-2.142,0.322,-542.664,-231.689,76.05, , , , , , ,57.596,24.038,-88.182
 13:50:22.542,eb:33:2e:f9:57:b5, 2015-01-01 00:14:31.480,1.388,-1.907,0.486,-558.899,-240.906,85.327, , , , , , ,54.459,23.027,-89.039
 13:50:22.542,eb:33:2e:f9:57:b5, 2015-01-01 00:14:31.480,1.464,-1.624,0.635,-568.726,-252.563,94.543, , , , , , ,51.334,21.918,-89.808
 13:50:22.542,eb:33:2e:f9:57:b5, 2015-01-01 00:14:31.480,1.53,-1.322,0.758,-572.327,-266.663,101.257, , , , , , ,48.214,20.698,-90.533
 13:50:22.542,eb:33:2e:f9:57:b5, 2015-01-01 00:14:31.480,1.615,-0.99,0.878,-571.35,-282.227,105.103, , , , , , ,45.115,19.374,-91.225
 13:50:22.542,eb:33:2e:f9:57:b5, 2015-01-01 00:14:31.480,1.688,-0.587,1.019,-567.932,-296.631,103.638, , , , , , ,42.012,17.946,-91.912
 13:50:22.542,eb:33:2e:f9:57:b5, 2015-01-01 00:14:31.480,1.702,-0.13,1.146,-560.73,-311.401,96.436, , , , , , ,39.007,16.458,-92.554
 13:50:22.699,eb:33:2e:f9:57:b5, 2015-01-01 00:14:31.995,1.622,0.439,1.239,-546.082,-328.735,76.965, , , , , , ,36.063,14.925,-93.214
 13:50:22.699,eb:33:2e:f9:57:b5, 2015-01-01 00:14:31.995,1.413,0.84,1.234,-528.015,-345.52,58.533, , , , , , ,33.206,13.343,-93.928
 13:50:22.699,eb:33:2e:f9:57:b5, 2015-01-01 00:14:31.995,1.149,1.163,1.214,-505.31,-361.328,39.307, , , , , , ,30.427,11.689,-94.708
 13:50:22.699,eb:33:2e:f9:57:b5, 2015-01-01 00:14:31.995,0.829,1.383,1.232,-478.333,-375.671,22.644, , , , , , ,27.834,10.003,-95.493
 13:50:22.699,eb:33:2e:f9:57:b5, 2015-01-01 00:14:31.995,0.478,1.544,1.255,-448.669,-388.428,8.301, , , , , , ,25.4,8.262,-96.301
 13:50:22.699,eb:33:2e:f9:57:b5, 2015-01-01 00:14:31.995,0.087,1.666,1.231,-416.87,-400.818,-1.16, , , , , , ,23.148,6.454,-97.114
 13:50:22.699,eb:33:2e:f9:57:b5, 2015-01-01 00:14:31.995,-0.259,1.788,1.182,-382.996,-411.743,-6.775, , , , , , ,21.044,4.548,-97.921
 13:50:22.699,eb:33:2e:f9:57:b5, 2015-01-01 00:14:31.995,-0.594,1.981,1.238,-344.727,-417.847,-7.935, , , , , , ,19.199,2.609,-98.679
 13:50:22.721,eb:33:2e:f9:57:b5, 2015-01-01 00:14:31.995,-0.952,2.238,1.433,-301.758,-420.593,-3.845, , , , , , ,17.584,0.626,-99.366
 13:50:22.721,eb:33:2e:f9:57:b5, 2015-01-01 00:14:31.995,-1.157,2.533,1.734,-260.437,-416.016,1.953, , , , , , ,16.205,-1.373,-99.976
 13:50:22.721,eb:33:2e:f9:57:b5, 2015-01-01 00:14:31.995,-1.29,2.901,2.139,-227.905,-393.86,7.446, , , , , , ,14.985,-3.351,-100.503
 13:50:22.721,eb:33:2e:f9:57:b5, 2015-01-01 00:14:31.995,-1.463,3.365,2.447,-206.177,-356.323,11.414, , , , , , ,13.947,-5.164,-100.926
 13:50:22.721,eb:33:2e:f9:57:b5, 2015-01-01 00:14:31.995,-1.644,3.929,2.475,-196.899,-309.57,11.475, , , , , , ,12.986,-6.779,-101.255
 13:50:22.721,eb:33:2e:f9:57:b5, 2015-01-01 00:14:31.995,-1.769,4.483,2.273,-197.876,-264.221,5.92, , , , , , ,12.036,-8.163,-101.519
 13:50:22.721,eb:33:2e:f9:57:b5, 2015-01-01 00:14:31.995,-1.909,5.033,2.031,-203.064,-228.088,-6.836, , , , , , ,11.041,-9.366,-101.777
 13:50:22.721,eb:33:2e:f9:57:b5, 2015-01-01 00:14:31.995,-2.077,5.639,1.777,-204.102,-210.327,-27.893, , , , , , ,10.069,-10.41,-102.074
 13:50:22.878,eb:33:2e:f9:57:b5, 2015-01-01 00:14:31.995,-2.328,6.241,1.655,-195.984,-209.29,-56.885, , , , , , ,9.146,-11.398,-102.475
 13:50:22.878,eb:33:2e:f9:57:b5, 2015-01-01 00:14:31.995,-2.639,6.687,1.711,-175.415,-220.642,-89.905, , , , , , ,8.333,-12.409,-103.035
 13:50:22.878,eb:33:2e:f9:57:b5, 2015-01-01 00:14:31.995,-2.976,6.936,2.029,-142.822,-233.215,-122.009, , , , , , ,7.696,-13.48,-103.755
 13:50:22.878,eb:33:2e:f9:57:b5, 2015-01-01 00:14:31.995,-3.273,7.019,2.611,-102.844,-232.605,-152.1, , , , , , ,7.311,-14.551,-104.634
 13:50:22.878,eb:33:2e:f9:57:b5, 2015-01-01 00:14:31.995,-3.536,6.981,3.281,-60.181,-211.609,-174.438, , , , , , ,7.185,-15.546,-105.634
 13:50:22.878,eb:33:2e:f9:57:b5, 2015-01-01 00:14:31.995,-3.696,6.889,3.847,-19.836,-165.833,-192.932, , , , , , ,7.3,-16.353,-106.716
 13:50:22.878,eb:33:2e:f9:57:b5, 2015-01-01 00:14:31.995,-3.698,6.697,4.058,17.395,-105.652,-206.116, , , , , , ,7.63,-16.88,-107.842
 13:50:22.878,eb:33:2e:f9:57:b5, 2015-01-01 00:14:31.995,-3.599,6.479,3.937,51.88,-43.945,-215.942, , , , , , ,8.157,-17.073,-108.995
 13:50:22.967,eb:33:2e:f9:57:b5, 2015-01-01 00:14:31.995,-3.466,6.209,3.568,87.097,2.563,-221.497, , , , , , ,8.86,-16.979,-110.138
 13:50:22.967,eb:33:2e:f9:57:b5, 2015-01-01 00:14:31.995,-3.391,5.833,3.156,126.221,26.672,-223.328, , , , , , ,9.739,-16.705,-111.275
 13:50:22.967,eb:33:2e:f9:57:b5, 2015-01-01 00:14:31.995,-3.384,5.291,2.789,167.664,30.579,-221.375, , , , , , ,10.816,-16.364,-112.39
 13:50:22.967,eb:33:2e:f9:57:b5, 2015-01-01 00:14:31.995,-3.446,4.585,2.482,207.52,20.874,-211.182, , , , , , ,12.074,-16.024,-113.467
 13:50:22.967,eb:33:2e:f9:57:b5, 2015-01-01 00:14:31.995,-3.557,3.803,2.306,240.234,11.902,-197.266, , , , , , ,13.491,-15.727,-114.478
 13:50:22.967,eb:33:2e:f9:57:b5, 2015-01-01 00:14:31.995,-4.353,3.017,2.229,266.113,12.878,-178.467, , , , , , ,15.024,-15.441,-115.406
 13:50:22.968,eb:33:2e:f9:57:b5, 2015-01-01 00:14:31.995,-3.729,1.85,1.239,159.363,-20.874,-166.382, , , , , , ,16.414,-15.364,-116.318
 13:50:22.968,eb:33:2e:f9:57:b5, 2015-01-01 00:14:31.995,-5.81,-3.463,5.444,44.067,352.905,34.546, , , , , , ,16.76,-14.106,-116.4
 13:50:22.970,eb:33:2e:f9:57:b5, 2015-01-01 00:14:31.995,-2.932,-1.372,1.748,2.808,506.531,131.47, , , , , , ,16.622,-12.167,-115.148
 13:50:22.970,eb:33:2e:f9:57:b5, 2015-01-01 00:14:31.995,0.732,-0.866,1.598,-64.88,546.631,201.05, , , , , , ,16.117,-9.75,-113.604
 13:50:22.970,eb:33:2e:f9:57:b5, 2015-01-01 00:14:31.995,4.835,-2.76,1.793,-148.865,429.016,324.646, , , , , , ,15.227,-7.795,-111.495
 13:50:22.970,eb:33:2e:f9:57:b5, 2015-01-01 00:14:31.995,6.396,4.282,-2.836,-142.7,127.197,205.322, , , , , , ,14.271,-6.85,-109.841
 13:50:22.970,eb:33:2e:f9:57:b5, 2015-01-01 00:14:31.995,2.842,4.546,-1.26,-117.737,-75.867,45.41, , , , , , ,13.557,-7.059,-109.363
 13:50:22.970,eb:33:2e:f9:57:b5, 2015-01-01 00:14:31.995,0.038,0.25,4.833,-82.764,-2.075,-25.269, , , , , , ,13.09,-7.3,-109.446
 13:50:22.970,eb:33:2e:f9:57:b5, 2015-01-01 00:14:31.995,1.282,-2.12,6.775,-25.696,163.757,-13.794, , , , , , ,12.838,-6.779,-109.429
 13:50:22.970,eb:33:2e:f9:57:b5, 2015-01-01 00:14:31.995,1.929,-0.603,4.635,27.649,210.999,-38.086, , , , , , ,12.865,-5.74,-109.325
 13:50:23.014,eb:33:2e:f9:57:b5, 2015-01-01 00:14:31.995,1.392,1.667,0.721,62.5,153.32,-101.685, , , , , , ,13.129,-4.79,-109.479
 13:50:23.014,eb:33:2e:f9:57:b5, 2015-01-01 00:14:31.995,-0.902,1.104,0.858,71.228,136.963,-115.051, , , , , , ,13.508,-3.977,-109.902
 13:50:23.014,eb:33:2e:f9:57:b5, 2015-01-01 00:14:31.995,-2.03,-0.659,1.863,69.214,161.682,-77.576, , , , , , ,13.881,-3.126,-110.165
 13:50:23.014,eb:33:2e:f9:57:b5, 2015-01-01 00:14:31.995,-1.869,-0.917,0.96,72.876,142.151,-50.842, , , , , , ,14.244,-2.296,-110.275
 13:50:23.014,eb:33:2e:f9:57:b5, 2015-01-01 00:14:31.995,-1.615,-0.341,-0.954,61.401,79.285,-22.522, , , , , , ,14.584,-1.747,-110.308
 13:50:23.014,eb:33:2e:f9:57:b5, 2015-01-01 00:14:31.995,-1.114,-0.141,-1.033,38.269,28.442,4.089, , , , , , ,14.821,-1.511,-110.281
 13:50:23.014,eb:33:2e:f9:57:b5, 2015-01-01 00:14:31.995,-0.222,0.191,-0.241,17.7,4.456,14.099, , , , , , ,14.952,-1.461,-110.204
 13:50:23.014,eb:33:2e:f9:57:b5, 2015-01-01 00:14:31.995,0.665,0.575,-0.142,-2.502,-4.211,13.977, , , , , , ,14.98,-1.489,-110.138
 13:50:23.014,eb:33:2e:f9:57:b5, 2015-01-01 00:14:31.995,1.206,0.777,0.322,-20.142,9.827,6.653, , , , , , ,14.914,-1.494,-110.089
 13:50:23.014,eb:33:2e:f9:57:b5, 2015-01-01 00:14:31.995,1.292,0.928,1.003,-31.25,43.091,-8.85, , , , , , ,14.777,-1.351,-110.061
 13:50:23.014,eb:33:2e:f9:57:b5, 2015-01-01 00:14:31.995,1.04,0.856,1.409,-34.729,84.106,-25.513, , , , , , ,14.612,-0.994,-110.067
 13:50:23.014,eb:33:2e:f9:57:b5, 2015-01-01 00:14:31.995,0.713,0.637,1.82,-30.579,126.16,-41.809, , , , , , ,14.447,-0.423,-110.105
 13:50:23.014,eb:33:2e:f9:57:b5, 2015-01-01 00:14:31.995,0.217,0.412,1.911,-21.362,160.461,-45.471, , , , , , ,14.321,0.341,-110.138
 13:50:23.014,eb:33:2e:f9:57:b5, 2015-01-01 00:14:31.995,-0.401,0.146,1.838,-7.568,176.758,-38.818, , , , , , ,14.249,1.23,-110.132
 13:50:23.015,eb:33:2e:f9:57:b5, 2015-01-01 00:14:31.995,-0.758,-0.108,1.794,12.512,169.739,-29.785, , , , , , ,14.277,2.12,-110.078
 13:50:23.015,eb:33:2e:f9:57:b5, 2015-01-01 00:14:31.995,-0.814,-0.263,1.871,38.147,145.935,-17.944, , , , , , ,14.42,2.906,-109.995
 13:50:23.019,eb:33:2e:f9:57:b5, 2015-01-01 00:14:31.995,1.423,-0.373,1.99,66.284,121.155,-7.324, , , , , , ,14.7,3.554,-109.885
 13:50:23.019,eb:33:2e:f9:57:b5, 2015-01-01 00:14:31.995,2.181,-1.636,6.632,538.635,186.646,-10.803, , , , , , ,27.614,7.449,-108.265
 13:50:23.019,eb:33:2e:f9:57:b5, 2015-01-01 00:14:31.995,2.903,-1.631,6.522,602.966,243.225,-26.306, , , , , , ,30.558,8.454,-107.82
 13:50:23.019,eb:33:2e:f9:57:b5, 2015-01-01 00:14:31.995,3.489,-1.704,6.33,656.067,315.674,-57.434, , , , , , ,33.827,9.772,-107.238
 13:50:23.019,eb:33:2e:f9:57:b5, 2015-01-01 00:14:31.995,3.929,-1.507,6.125,710.876,397.949,-89.05, , , , , , ,37.408,11.492,-106.479
 13:50:23.019,eb:33:2e:f9:57:b5, 2015-01-01 00:14:31.995,3.121,-1.181,5.919,764.954,458.374,-91.003, , , , , , ,41.353,13.48,-105.419
 13:50:23.019,eb:33:2e:f9:57:b5, 2015-01-01 00:14:31.995,2.971,-0.496,6.375,835.022,479.553,-80.811, , , , , , ,45.709,15.447,-104.057
 13:50:23.019,eb:33:2e:f9:57:b5, 2015-01-01 00:14:31.995,2.539,-1.216,6.542,916.26,422.913,-89.111, , , , , , ,50.537,17.303,-102.629
 13:50:23.021,eb:33:2e:f9:57:b5, 2015-01-01 00:14:31.995,-1.077,-0.533,6.485,946.106,360.291,-90.149, , , , , , ,55.629,18.831,-101.277
 13:50:23.021,eb:33:2e:f9:57:b5, 2015-01-01 00:14:31.995,0.529,2.158,6.008,238.77,553.162,336.609, , , , , , ,84.331,21.747,-90.231
 13:50:23.021,eb:33:2e:f9:57:b5, 2015-01-01 00:14:31.995,0.564,0.535,6.023,180.786,453.857,355.713, , , , , , ,86.276,20.182,-87.468
 13:50:23.021,eb:33:2e:f9:57:b5, 2015-01-01 00:14:31.995,1.522,-0.624,4.428,159.851,374.756,334.412, , , , , , ,87.863,18.556,-85.232
 13:50:23.021,eb:33:2e:f9:57:b5, 2015-01-01 00:14:31.995,1.992,-0.147,4.212,148.132,303.589,277.771, , , , , , ,89.165,17.084,-83.441
 13:50:23.021,eb:33:2e:f9:57:b5, 2015-01-01 00:14:31.995,1.869,0.562,4.722,156.372,240.234,193.665, , , , , , ,90.319,15.947,-82.051
 13:50:23.021,eb:33:2e:f9:57:b5, 2015-01-01 00:14:31.995,1.66,1.129,4.961,179.016,178.101,92.285, , , , , , ,91.401,15.266,-81.03
 13:50:23.021,eb:33:2e:f9:57:b5, 2015-01-01 00:14:31.995,1.578,1.273,5.064,196.472,110.291,-21.729, , , , , , ,92.538,15.117,-80.321
 13:50:23.023,eb:33:2e:f9:57:b5, 2015-01-01 00:14:31.995,1.189,0.86,4.967,196.838,53.345,-136.78, , , , , , ,93.636,15.557,-79.904
 13:50:23.023,eb:33:2e:f9:57:b5, 2015-01-01 00:14:31.995,0.762,0.276,4.419,178.406,10.681,-237.793, , , , , , ,94.636,16.54,-79.689
 13:50:23.023,eb:33:2e:f9:57:b5, 2015-01-01 00:14:31.995,0.465,-0.338,3.962,138.916,-21.118,-316.223, , , , , , ,95.383,17.974,-79.634
 13:50:23.023,eb:33:2e:f9:57:b5, 2015-01-01 00:14:31.995,0.21,-1.082,3.866,83.496,-38.208,-375.61, , , , , , ,95.922,19.753,-79.618
 13:50:23.023,eb:33:2e:f9:57:b5, 2015-01-01 00:14:31.995,0.015,-1.953,3.824,23.315,-43.884,-409.18, , , , , , ,96.158,21.753,-79.612
 13:50:23.023,eb:33:2e:f9:57:b5, 2015-01-01 00:14:31.995,-0.151,-2.853,3.642,-35.034,-40.283,-419.067, , , , , , ,96.108,23.851,-79.596
 13:50:23.023,eb:33:2e:f9:57:b5, 2015-01-01 00:14:31.995,-0.23,-3.722,3.372,-89.783,-28.015,-405.396, , , , , , ,95.724,25.922,-79.59
 13:50:23.023,eb:33:2e:f9:57:b5, 2015-01-01 00:14:31.995,-0.316,-4.402,2.962,-144.043,-6.47,-370.972, , , , , , ,95.164,27.85,-79.47
 13:50:23.128,eb:33:2e:f9:57:b5, 2015-01-01 00:14:31.995,-0.351,-4.759,2.388,-200.684,14.709,-323.792, , , , , , ,94.373,29.564,-79.266
 13:50:23.128,eb:33:2e:f9:57:b5, 2015-01-01 00:14:31.995,-0.233,-4.951,1.66,-262.695,43.945,-262.207, , , , , , ,93.334,30.987,-78.97
 13:50:23.128,eb:33:2e:f9:57:b5, 2015-01-01 00:14:31.995,0.05,-5.001,0.98,-328.247,70.007,-195.129, , , , , , ,91.967,32.091,-78.613
 13:50:23.128,eb:33:2e:f9:57:b5, 2015-01-01 00:14:31.995,0.411,-4.898,0.47,-395.813,87.28,-130.737, , , , , , ,90.396,32.86,-78.113
 13:50:23.128,eb:33:2e:f9:57:b5, 2015-01-01 00:14:31.995,0.854,-4.644,0.122,-458.557,86.914,-76.477, , , , , , ,88.511,33.354,-77.58
 13:50:23.128,eb:33:2e:f9:57:b5, 2015-01-01 00:14:31.995,1.36,-4.217,-0.145,-511.047,65.308,-36.133, , , , , , ,86.298,33.624,-77.141
 13:50:23.128,eb:33:2e:f9:57:b5, 2015-01-01 00:14:31.995,1.915,-3.688,-0.44,-554.688,25.33,-10.254, , , , , , ,83.672,33.75,-76.954
 13:50:23.128,eb:33:2e:f9:57:b5, 2015-01-01 00:14:31.995,2.341,-3.169,-0.724,-591.064,-25.208,3.967, , , , , , ,80.771,33.75,-76.981
 13:50:23.237,eb:33:2e:f9:57:b5, 2015-01-01 00:14:31.995,2.564,-2.767,-0.958,-621.948,-77.82,6.775, , , , , , ,77.542,33.668,-77.305
 13:50:23.237,eb:33:2e:f9:57:b5, 2015-01-01 00:14:31.995,2.572,-2.491,-0.94,-647.4,-132.568,4.822, , , , , , ,73.998,33.503,-77.943
 13:50:23.237,eb:33:2e:f9:57:b5, 2015-01-01 00:14:31.995,2.406,-2.238,-0.468,-673.889,-188.782,-1.038, , , , , , ,70.093,33.245,-78.948
 13:50:23.237,eb:33:2e:f9:57:b5, 2015-01-01 00:14:31.995,2.2,-2.044,0.156,-694.641,-222.961,-6.836, , , , , , ,66.017,32.871,-80.118
 13:50:23.237,eb:33:2e:f9:57:b5, 2015-01-01 00:14:31.995,1.958,-1.834,0.738,-715.759,-243.835,-10.62, , , , , , ,61.787,32.399,-81.403
 13:50:23.237,eb:33:2e:f9:57:b5, 2015-01-01 00:14:31.995,1.82,-1.598,1.245,-735.657,-252.441,-15.625, , , , , , ,57.453,31.822,-82.716
 13:50:23.237,eb:33:2e:f9:57:b5, 2015-01-01 00:14:31.995,1.846,-1.306,1.708,-751.526,-255.005,-22.644, , , , , , ,52.976,31.185,-84.067
 13:50:23.237,eb:33:2e:f9:57:b5, 2015-01-01 00:14:31.995,1.936,-0.929,2.175,-762.634,-252.869,-33.02, , , , , , ,48.538,30.487,-85.314
 13:50:23.243,eb:33:2e:f9:57:b5, 2015-01-01 00:14:31.995,1.962,-0.424,2.552,-766.968,-251.099,-49.377, , , , , , ,44.099,29.778,-86.534
 13:50:23.243,eb:33:2e:f9:57:b5, 2015-01-01 00:14:31.995,2.028,0.169,2.721,-766.357,-253.967,-71.289, , , , , , ,39.655,29.042,-87.77
 13:50:23.243,eb:33:2e:f9:57:b5, 2015-01-01 00:14:31.995,2.007,0.872,2.891,-762.085,-258.179,-100.281, , , , , , ,35.145,28.29,-89.116
 13:50:23.243,eb:33:2e:f9:57:b5, 2015-01-01 00:14:31.995,1.829,1.445,2.895,-747.498,-272.583,-128.052, , , , , , ,30.729,27.488,-90.489
 13:50:23.244,eb:33:2e:f9:57:b5, 2015-01-01 00:14:31.995,1.549,1.877,2.642,-724.06,-301.575,-154.175, , , , , , ,26.384,26.565,-91.978
 13:50:23.244,eb:33:2e:f9:57:b5, 2015-01-01 00:14:31.995,1.334,2.093,2.196,-695.801,-339.355,-167.908, , , , , , ,22.159,25.422,-93.543
 13:50:23.244,eb:33:2e:f9:57:b5, 2015-01-01 00:14:31.995,1.167,2.059,1.96,-667.114,-372.192,-172.729, , , , , , ,18.04,24.016,-95.164
 13:50:23.244,eb:33:2e:f9:57:b5, 2015-01-01 00:14:31.995,0.864,1.859,1.951,-638.184,-395.02,-162.476, , , , , , ,14.211,22.39,-96.625
 13:50:23.397,eb:33:2e:f9:57:b5, 2015-01-01 00:14:31.995,0.264,1.803,2.007,-604.98,-412.048,-143.738, , , , , , ,10.651,20.577,-97.888
 13:50:23.397,eb:33:2e:f9:57:b5, 2015-01-01 00:14:31.995,-0.064,1.683,1.967,-556.763,-432.495,-123.108, , , , , , ,7.416,18.583,-98.932
 13:50:23.397,eb:33:2e:f9:57:b5, 2015-01-01 00:14:31.995,-0.26,1.7,2.05,-502.38,-451.416,-95.886, , , , , , ,4.493,16.414,-99.772
 13:50:23.397,eb:33:2e:f9:57:b5, 2015-01-01 00:14:31.995,-0.46,1.864,2.059,-449.463,-470.276,-63.904, , , , , , ,2,14.123,-100.305
 13:50:23.397,eb:33:2e:f9:57:b5, 2015-01-01 00:14:31.995,-0.632,2.081,2.169,-402.039,-480.225,-35.706, , , , , , ,-0.159,11.739,-100.58
 13:50:23.397,eb:33:2e:f9:57:b5, 2015-01-01 00:14:31.995,-0.721,2.313,2.205,-360.779,-481.323,-15.198, , , , , , ,-2.06,9.333,-100.657
 13:50:23.397,eb:33:2e:f9:57:b5, 2015-01-01 00:14:31.995,-0.81,2.623,2.186,-325.684,-478.943,2.319, , , , , , ,-3.796,6.905,-100.574
 13:50:23.397,eb:33:2e:f9:57:b5, 2015-01-01 00:14:31.995,-0.92,3.04,2.155,-298.584,-478.027,18.677, , , , , , ,-5.312,4.526,-100.322
 13:50:23.444,eb:33:2e:f9:57:b5, 2015-01-01 00:14:31.995,-1.029,3.54,2.261,-279.724,-479.797,31.494, , , , , , ,-6.724,2.159,-99.943
 13:50:23.444,eb:33:2e:f9:57:b5, 2015-01-01 00:14:31.995,-1.239,4.12,2.606,-265.259,-480.53,41.016, , , , , , ,-8.069,-0.192,-99.448
 13:50:23.444,eb:33:2e:f9:57:b5, 2015-01-01 00:14:31.995,-1.538,4.74,3.02,-249.695,-484.314,48.645, , , , , , ,-9.415,-2.565,-98.866
 13:50:23.444,eb:33:2e:f9:57:b5, 2015-01-01 00:14:31.995,-1.778,5.425,3.386,-229.919,-491.272,49.133, , , , , , ,-10.651,-4.927,-98.196
 13:50:23.444,eb:33:2e:f9:57:b5, 2015-01-01 00:14:31.995,-1.989,6.167,3.828,-203.064,-495.361,45.227, , , , , , ,-11.799,-7.306,-97.487
 13:50:23.444,eb:33:2e:f9:57:b5, 2015-01-01 00:14:31.995,-2.195,6.947,4.332,-166.931,-488.098,36.682, , , , , , ,-12.816,-9.662,-96.757
 13:50:23.444,eb:33:2e:f9:57:b5, 2015-01-01 00:14:31.995,-2.353,7.785,4.735,-120.667,-473.267,22.583, , , , , , ,-13.683,-11.986,-96.059
 13:50:23.444,eb:33:2e:f9:57:b5, 2015-01-01 00:14:31.995,-2.457,8.506,5.02,-66.772,-455.017,1.831, , , , , , ,-14.271,-14.216,-95.427
 13:50:23.488,eb:33:2e:f9:57:b5, 2015-01-01 00:14:31.995,-2.483,9.018,5.316,-9.521,-429.749,-26.367, , , , , , ,-14.562,-16.364,-94.938
 13:50:23.489,eb:33:2e:f9:57:b5, 2015-01-01 00:14:31.995,-2.524,9.331,5.747,41.87,-375.671,-61.218, , , , , , ,-14.535,-18.358,-94.653
 13:50:23.489,eb:33:2e:f9:57:b5, 2015-01-01 00:14:31.995,-2.489,9.595,6.027,78.247,-301.025,-103.577, , , , , , ,-14.227,-20.083,-94.653
 13:50:23.489,eb:33:2e:f9:57:b5, 2015-01-01 00:14:31.995,-2.462,9.877,5.998,96.191,-215.332,-155.029, , , , , , ,-13.645,-21.456,-95.026
 13:50:23.489,eb:33:2e:f9:57:b5, 2015-01-01 00:14:31.995,-2.546,10.006,5.644,103.333,-135.254,-212.097, , , , , , ,-12.843,-22.484,-95.817
 13:50:23.490,eb:33:2e:f9:57:b5, 2015-01-01 00:14:31.995,-2.663,9.539,5.125,115.967,-57.8,-284.119, , , , , , ,-11.81,-23.187,-97.064
 13:50:23.490,eb:33:2e:f9:57:b5, 2015-01-01 00:14:31.995,-2.993,8.458,4.729,135.864,-8.667,-336.06, , , , , , ,-10.514,-23.632,-98.729
 13:50:23.490,eb:33:2e:f9:57:b5, 2015-01-01 00:14:31.995,-3.486,6.982,4.169,164.246,28.809,-367.126, , , , , , ,-8.97,-23.857,-100.662
 13:50:23.507,eb:33:2e:f9:57:b5, 2015-01-01 00:14:32.710,-3.975,5.353,3.686,198.12,53.04,-374.39, , , , , , ,-7.218,-23.906,-102.722
 13:50:23.507,eb:33:2e:f9:57:b5, 2015-01-01 00:14:32.710,-4.401,3.653,3.474,233.582,83.923,-359.619, , , , , , ,-5.295,-23.758,-104.76
 13:50:23.507,eb:33:2e:f9:57:b5, 2015-01-01 00:14:32.710,-5.549,1.952,3.308,267.273,120.911,-330.444, , , , , , ,-3.252,-23.357,-106.666
 13:50:23.507,eb:33:2e:f9:57:b5, 2015-01-01 00:14:32.710,0.403,1.246,6.114,294.373,448.853,-348.206, , , , , , ,-1.088,-22.143,-108.408
 13:50:23.508,eb:33:2e:f9:57:b5, 2015-01-01 00:14:32.710,7.319,-0.818,3.4,256.104,107.971,-197.571, , , , , , ,0.906,-20.869,-109.781
 13:50:23.508,eb:33:2e:f9:57:b5, 2015-01-01 00:14:32.710,10.384,1.654,1.347,25.818,461.426,-137.146, , , , , , ,1.824,-19.506,-110.77
 13:50:23.508,eb:33:2e:f9:57:b5, 2015-01-01 00:14:32.710,1.601,4.529,2.959,-183.838,986.328,-146.667, , , , , , ,1.428,-15.364,-111.275
 13:50:23.508,eb:33:2e:f9:57:b5, 2015-01-01 00:14:32.710,-3.097,-0.631,2.288,-158.264,1039.001,-80.322, , , , , , ,0.632,-10.014,-111.852
 13:50:23.510,eb:33:2e:f9:57:b5, 2015-01-01 00:14:32.710,-0.134,-1.444,0.937,15.991,694.336,-31.067, , , , , , ,0.396,-5.79,-112.137
 13:50:23.510,eb:33:2e:f9:57:b5, 2015-01-01 00:14:32.710,-0.063,-0.419,3.538,249.878,11.658,-23.743, , , , , , ,9.256,1.038,-112.95
 13:50:23.510,eb:33:2e:f9:57:b5, 2015-01-01 00:14:32.710,0.655,-0.434,3.989,305.481,33.325,-39.185, , , , , , ,10.684,1.187,-113.099
 13:50:23.510,eb:33:2e:f9:57:b5, 2015-01-01 00:14:32.710,1.082,-0.705,5.285,365.356,63.66,-32.532, , , , , , ,12.382,1.483,-113.22
 13:50:23.510,eb:33:2e:f9:57:b5, 2015-01-01 00:14:32.710,1.096,-0.917,5.732,427.49,93.506,-12.268, , , , , , ,14.387,1.917,-113.214
 13:50:23.510,eb:33:2e:f9:57:b5, 2015-01-01 00:14:32.710,1.459,-0.932,5.858,495.605,114.685,-17.7, , , , , , ,16.738,2.439,-113.143
 13:50:23.510,eb:33:2e:f9:57:b5, 2015-01-01 00:14:32.710,2.249,-1.306,7.053,559.387,159.302,-21.851, , , , , , ,19.413,3.131,-113.027
 13:50:23.510,eb:33:2e:f9:57:b5, 2015-01-01 00:14:32.710,3.41,-1.912,7.879,617.554,238.831,-19.897, , , , , , ,22.401,4.12,-112.764
 13:50:23.511,eb:33:2e:f9:57:b5, 2015-01-01 00:14:32.710,4.121,-2.118,8.312,684.265,328.43,-26.794, , , , , , ,25.73,5.521,-112.269
 13:50:23.511,eb:33:2e:f9:57:b5, 2015-01-01 00:14:32.710,4.214,-1.507,7.898,754.456,440.857,-56.824, , , , , , ,29.427,7.344,-111.55
 13:50:23.511,eb:33:2e:f9:57:b5, 2015-01-01 00:14:32.710,3.976,-2.586,8.118,814.331,557.922,-84.534, , , , , , ,33.53,9.767,-110.539
 13:50:23.511,eb:33:2e:f9:57:b5, 2015-01-01 00:14:32.710,3.9,-0.788,8.782,897.156,647.278,-72.876, , , , , , ,38.15,12.458,-108.984
 13:50:23.511,eb:33:2e:f9:57:b5, 2015-01-01 00:14:32.710,2.814,-0.664,9.278,986.389,682.251,-44.067, , , , , , ,43.385,15.233,-106.957
 13:50:23.511,eb:33:2e:f9:57:b5, 2015-01-01 00:14:32.710,1.576,-0.376,7.693,1060.669,600.708,-16.907, , , , , , ,49.202,17.54,-104.645
 13:50:23.511,eb:33:2e:f9:57:b5, 2015-01-01 00:14:32.710,0.572,0.459,5.649,1088.135,460.815,-13.916, , , , , , ,55.25,19.221,-102.546
 13:50:23.511,eb:33:2e:f9:57:b5, 2015-01-01 00:14:32.710,0.624,1.918,2.499,991.699,247.375,-58.044, , , , , , ,60.947,20.303,-101.146
 13:50:23.513,eb:33:2e:f9:57:b5, 2015-01-01 00:14:32.710,0.333,3.641,-0.744,718.567,120.544,-82.214, , , , , , ,65.325,21.033,-100.563
 13:50:23.513,eb:33:2e:f9:57:b5, 2015-01-01 00:14:32.710,0.015,0.557,0.169,434.998,126.099,-37.292, , , , , , ,68.225,21.561,-100.146
 13:50:23.513,eb:33:2e:f9:57:b5, 2015-01-01 00:14:32.710,-0.482,-5.222,3.136,260.193,303.528,173.035, , , , , , ,70.208,21.594,-98.91
 13:50:23.513,eb:33:2e:f9:57:b5, 2015-01-01 00:14:32.710,-1.924,-2.886,6.067,392.273,524.292,311.89, , , , , , ,72.861,20.94,-96.114
 13:50:23.513,eb:33:2e:f9:57:b5, 2015-01-01 00:14:32.710,0.279,2.026,4.082,419.617,493.408,284.729, , , , , , ,76.124,20.27,-92.95
 13:50:23.513,eb:33:2e:f9:57:b5, 2015-01-01 00:14:32.710,0.266,2.915,5.18,332.581,365.295,335.632, , , , , , ,78.799,19.171,-90.417
 13:50:23.513,eb:33:2e:f9:57:b5, 2015-01-01 00:14:32.710,0.283,1.171,5.441,336.914,247.742,300.354, , , , , , ,81.002,17.897,-88.627
 13:50:23.513,eb:33:2e:f9:57:b5, 2015-01-01 00:14:32.710,0.981,0.981,4.627,347.412,180.115,249.268, , , , , , ,83.09,16.688,-87.369
 13:50:23.620,eb:33:2e:f9:57:b5, 2015-01-01 00:14:32.710,1.544,1.214,5.421,364.868,136.047,173.462, , , , , , ,85.128,15.749,-86.468
 13:50:23.620,eb:33:2e:f9:57:b5, 2015-01-01 00:14:32.710,1.509,1.179,6.676,393.311,115.112,87.524, , , , , , ,87.215,15.183,-85.787
 13:50:23.620,eb:33:2e:f9:57:b5, 2015-01-01 00:14:32.710,1.564,0.959,7.195,423.706,94.666,-10.559, , , , , , ,89.374,15.04,-85.27
 13:50:23.620,eb:33:2e:f9:57:b5, 2015-01-01 00:14:32.710,1.652,0.464,7.375,445.618,66.223,-113.892, , , , , , ,91.67,15.403,-84.858
 13:50:23.620,eb:33:2e:f9:57:b5, 2015-01-01 00:14:32.710,1.617,-0.003,7.162,445.618,40.161,-208.862, , , , , , ,93.994,16.249,-84.545
 13:50:23.620,eb:33:2e:f9:57:b5, 2015-01-01 00:14:32.710,1.494,-0.503,6.811,416.626,25.33,-286.682, , , , , , ,96.229,17.518,-84.265
 13:50:23.621,eb:33:2e:f9:57:b5, 2015-01-01 00:14:32.710,1.351,-1.083,6.468,363.525,21.667,-348.389, , , , , , ,98.207,19.105,-83.963
 13:50:23.621,eb:33:2e:f9:57:b5, 2015-01-01 00:14:32.710,1.281,-1.675,6.219,299.377,26.55,-394.104, , , , , , ,99.987,20.951,-83.518
 13:50:23.666,eb:33:2e:f9:57:b5, 2015-01-01 00:14:32.710,1.265,-2.198,5.952,234.985,37.537,-419.861, , , , , , ,101.514,22.939,-82.919
 13:50:23.666,eb:33:2e:f9:57:b5, 2015-01-01 00:14:32.710,1.218,-2.637,5.706,174.927,55.176,-430.664, , , , , , ,102.81,24.983,-82.167
 13:50:23.666,eb:33:2e:f9:57:b5, 2015-01-01 00:14:32.710,1.051,-3.066,5.431,124.146,71.533,-421.936, , , , , , ,103.854,26.977,-81.304
 13:50:23.666,eb:33:2e:f9:57:b5, 2015-01-01 00:14:32.710,0.971,-3.454,5.163,84.778,81.299,-405.334, , , , , , ,104.821,28.883,-80.305
 13:50:23.666,eb:33:2e:f9:57:b5, 2015-01-01 00:14:32.710,0.965,-3.775,4.883,52.551,93.018,-374.878, , , , , , ,105.683,30.641,-79.217
 13:50:23.666,eb:33:2e:f9:57:b5, 2015-01-01 00:14:32.710,0.986,-4.04,4.586,25.574,104.919,-333.801, , , , , , ,106.458,32.184,-78.085
 13:50:23.667,eb:33:2e:f9:57:b5, 2015-01-01 00:14:32.710,0.992,-4.317,4.231,1.892,117.798,-284.79, , , , , , ,107.062,33.486,-76.981
 13:50:23.667,eb:33:2e:f9:57:b5, 2015-01-01 00:14:32.710,0.989,-4.6,3.716,-20.203,123.352,-228.149, , , , , , ,107.65,34.503,-75.828
 13:50:23.667,eb:33:2e:f9:57:b5, 2015-01-01 00:14:32.710,0.994,-4.859,3.096,-43.884,121.704,-167.236, , , , , , ,108.1,35.233,-74.74
 13:50:23.667,eb:33:2e:f9:57:b5, 2015-01-01 00:14:32.710,1.036,-5.125,2.207,-74.768,103.516,-100.403, , , , , , ,108.309,35.667,-73.839
 13:50:23.667,eb:33:2e:f9:57:b5, 2015-01-01 00:14:32.710,1.277,-5.46,0.839,-123.962,83.74,-19.653, , , , , , ,108.089,35.782,-73.262
 13:50:23.667,eb:33:2e:f9:57:b5, 2015-01-01 00:14:32.710,1.943,-5.68,-0.698,-202.393,63.416,69.519, , , , , , ,107.452,35.519,-72.905
 13:50:23.667,eb:33:2e:f9:57:b5, 2015-01-01 00:14:32.710,2.611,-5.46,-1.91,-328.247,52.612,149.597, , , , , , ,106.155,34.865,-72.768
 13:50:23.667,eb:33:2e:f9:57:b5, 2015-01-01 00:14:32.710,2.885,-4.866,-1.871,-430.969,22.766,186.584, , , , , , ,104.172,33.975,-72.823
 13:50:23.667,eb:33:2e:f9:57:b5, 2015-01-01 00:14:32.710,3.076,-4.145,-1.517,-516.602,-33.813,194.458, , , , , , ,101.503,33.058,-73.202
 13:50:23.667,eb:33:2e:f9:57:b5, 2015-01-01 00:14:32.710,3.212,-3.458,-1.266,-584.229,-104.492,187.134, , , , , , ,98.366,32.184,-73.839
 13:50:23.669,eb:33:2e:f9:57:b5, 2015-01-01 00:14:32.710,3.296,-2.841,-0.932,-643.005,-161.072,157.104, , , , , , ,94.774,31.421,-74.767
 13:50:23.669,eb:33:2e:f9:57:b5, 2015-01-01 00:14:32.710,3.067,-2.447,-0.49,-693.115,-205.322,129.15, , , , , , ,90.813,30.762,-75.916
 13:50:23.669,eb:33:2e:f9:57:b5, 2015-01-01 00:14:32.710,2.821,-2.186,0.201,-734.558,-236.45,97.229, , , , , , ,86.49,30.196,-77.261
 13:50:23.669,eb:33:2e:f9:57:b5, 2015-01-01 00:14:32.710,2.529,-1.957,0.955,-768.677,-255.31,62.805, , , , , , ,82.024,29.691,-78.64
 13:50:23.669,eb:33:2e:f9:57:b5, 2015-01-01 00:14:32.710,2.204,-1.728,1.628,-797.424,-268.799,33.936, , , , , , ,77.382,29.24,-80.079
 13:50:23.669,eb:33:2e:f9:57:b5, 2015-01-01 00:14:32.710,2.022,-1.482,2.22,-830.322,-274.719,6.592, , , , , , ,72.576,28.801,-81.568
 13:50:23.669,eb:33:2e:f9:57:b5, 2015-01-01 00:14:32.710,1.92,-1.222,2.692,-860.291,-275.391,-16.724, , , , , , ,67.544,28.367,-83.112
 13:50:23.669,eb:33:2e:f9:57:b5, 2015-01-01 00:14:32.710,1.977,-0.843,3.092,-886.658,-268.188,-45.227, , , , , , ,62.468,27.944,-84.584
 13:50:23.801,eb:33:2e:f9:57:b5, 2015-01-01 00:14:32.710,1.983,-0.389,3.41,-907.776,-261.658,-78.674, , , , , , ,57.277,27.565,-86.056
 13:50:23.801,eb:33:2e:f9:57:b5, 2015-01-01 00:14:32.710,1.928,0.076,3.649,-916.87,-263.123,-116.333, , , , , , ,52.004,27.219,-87.589
 13:50:23.801,eb:33:2e:f9:57:b5, 2015-01-01 00:14:32.710,1.697,0.563,3.736,-913.025,-276.001,-155.029, , , , , , ,46.593,26.851,-89.308
 13:50:23.801,eb:33:2e:f9:57:b5, 2015-01-01 00:14:32.710,1.293,1.005,3.717,-897.339,-299.988,-189.148, , , , , , ,41.243,26.422,-91.143
 13:50:23.801,eb:33:2e:f9:57:b5, 2015-01-01 00:14:32.710,0.937,1.2,3.583,-867.065,-336.914,-210.999, , , , , , ,35.964,25.796,-93.142
 13:50:23.801,eb:33:2e:f9:57:b5, 2015-01-01 00:14:32.710,0.74,1.243,3.511,-827.271,-370.422,-220.764, , , , , , ,30.85,24.906,-95.235
 13:50:23.802,eb:33:2e:f9:57:b5, 2015-01-01 00:14:32.710,0.45,1.061,3.411,-785.278,-398.071,-215.454, , , , , , ,25.911,23.692,-97.355
 13:50:23.802,eb:33:2e:f9:57:b5, 2015-01-01 00:14:32.710,0.154,0.848,3.299,-741.638,-416.687,-198.547, , , , , , ,21.363,22.231,-99.272
 13:50:23.802,eb:33:2e:f9:57:b5, 2015-01-01 00:14:32.710,-0.066,0.651,3.21,-692.81,-429.565,-171.753, , , , , , ,17.188,20.522,-100.953
 13:50:23.802,eb:33:2e:f9:57:b5, 2015-01-01 00:14:32.710,-0.265,0.654,3.173,-643.127,-437.439,-137.329, , , , , , ,13.409,18.627,-102.338
 13:50:23.802,eb:33:2e:f9:57:b5, 2015-01-01 00:14:32.710,-0.33,0.77,3.165,-596.252,-442.017,-100.586, , , , , , ,9.943,16.551,-103.436
 13:50:23.802,eb:33:2e:f9:57:b5, 2015-01-01 00:14:32.710,-0.312,0.935,3.197,-554.077,-440.796,-65.613, , , , , , ,6.894,14.425,-104.178
 13:50:23.802,eb:33:2e:f9:57:b5, 2015-01-01 00:14:32.710,-0.288,1.106,3.108,-517.456,-437.927,-34.912, , , , , , ,4.125,12.266,-104.639
 13:50:23.802,eb:33:2e:f9:57:b5, 2015-01-01 00:14:32.710,-0.301,1.319,2.781,-482.483,-446.167,-3.418, , , , , , ,1.609,10.063,-104.832
 13:50:23.802,eb:33:2e:f9:57:b5, 2015-01-01 00:14:32.710,-0.357,1.598,2.415,-451.477,-468.018,25.574, , , , , , ,-0.758,7.729,-104.804
 13:50:23.802,eb:33:2e:f9:57:b5, 2015-01-01 00:14:32.710,-0.341,1.978,2.256,-423.279,-498.901,45.532, , , , , , ,-2.9,5.306,-104.535
 13:50:23.805,eb:33:2e:f9:57:b5, 2015-01-01 00:14:32.710,-0.387,2.444,2.341,-395.996,-538.33,60.73, , , , , , ,-4.9,2.719,-104.079
 13:50:23.805,eb:33:2e:f9:57:b5, 2015-01-01 00:14:32.710,-0.466,2.988,2.576,-371.704,-583.435,71.289, , , , , , ,-6.795,-0.049,-103.458
 13:50:23.805,eb:33:2e:f9:57:b5, 2015-01-01 00:14:32.710,-0.518,3.54,2.882,-352.356,-622.192,78.247, , , , , , ,-8.674,-3.038,-102.695
 13:50:23.805,eb:33:2e:f9:57:b5, 2015-01-01 00:14:32.710,-0.695,4.042,3.264,-335.938,-653.076,87.28, , , , , , ,-10.459,-6.13,-101.744
 13:50:23.806,eb:33:2e:f9:57:b5, 2015-01-01 00:14:32.710,-0.925,4.549,3.855,-320.374,-670.654,94.36, , , , , , ,-12.244,-9.294,-100.635
 13:50:23.806,eb:33:2e:f9:57:b5, 2015-01-01 00:14:32.710,-1.333,5.145,4.678,-301.636,-668.823,102.539, , , , , , ,-14.03,-12.453,-99.366
 13:50:23.806,eb:33:2e:f9:57:b5, 2015-01-01 00:14:32.710,-1.905,5.9,5.521,-274.597,-652.283,106.567, , , , , , ,-15.853,-15.535,-97.971
 13:50:23.806,eb:33:2e:f9:57:b5, 2015-01-01 00:14:32.710,-2.332,6.976,6.447,-228.821,-614.319,104.004, , , , , , ,-17.529,-18.413,-96.493
 13:50:23.823,eb:33:2e:f9:57:b5, 2015-01-01 00:14:32.710,-2.683,7.822,7.138,-183.899,-559.204,89.966, , , , , , ,-19.034,-21.028,-95.037
 13:50:23.823,eb:33:2e:f9:57:b5, 2015-01-01 00:14:32.710,-3.017,8.568,7.538,-138.916,-480.774,62.5, , , , , , ,-20.308,-23.318,-93.724
 13:50:23.823,eb:33:2e:f9:57:b5, 2015-01-01 00:14:32.710,-3.108,9.372,7.518,-98.328,-380.615,20.203, , , , , , ,-21.341,-25.241,-92.697
 13:50:23.823,eb:33:2e:f9:57:b5, 2015-01-01 00:14:32.710,-2.959,10.063,7.41,-62.805,-275.94,-39.917, , , , , , ,-21.973,-26.746,-92.12
 13:50:23.823,eb:33:2e:f9:57:b5, 2015-01-01 00:14:32.710,-2.751,10.583,7.061,-35.461,-173.889,-113.892, , , , , , ,-22.209,-27.894,-92.115
 13:50:23.823,eb:33:2e:f9:57:b5, 2015-01-01 00:14:32.710,-2.684,10.922,6.412,-13.733,-89.417,-195.251, , , , , , ,-22.033,-28.762,-92.708
 13:50:23.823,eb:33:2e:f9:57:b5, 2015-01-01 00:14:32.710,-2.848,10.67,5.708,10.193,-29.602,-274.414, , , , , , ,-21.467,-29.465,-93.895
 13:50:23.823,eb:33:2e:f9:57:b5, 2015-01-01 00:14:32.710,-3.213,9.583,5.074,38.696,9.216,-336.06, , , , , , ,-20.5,-30.048,-95.57
 13:50:23.913,eb:33:2e:f9:57:b5, 2015-01-01 00:14:32.710,-3.782,7.853,4.619,71.106,35.522,-368.835, , , , , , ,-19.199,-30.536,-97.581
 13:50:23.913,eb:33:2e:f9:57:b5, 2015-01-01 00:14:32.710,-4.305,5.88,4.334,105.225,63.782,-365.601, , , , , , ,-17.65,-30.872,-99.712
 13:50:23.913,eb:33:2e:f9:57:b5, 2015-01-01 00:14:32.710,-4.666,3.973,4.219,143.433,85.876,-334.656, , , , , , ,-15.936,-30.998,-101.799
 13:50:23.913,eb:33:2e:f9:57:b5, 2015-01-01 00:14:32.710,-4.593,2.357,4.126,182.922,128.113,-292.358, , , , , , ,-14.106,-30.872,-103.727
 13:50:23.913,eb:33:2e:f9:57:b5, 2015-01-01 00:14:32.710,-1.02,0.917,3.579,226.379,172.729,-224.121, , , , , , ,-12.228,-30.399,-105.364
 13:50:23.913,eb:33:2e:f9:57:b5, 2015-01-01 00:14:32.710,-5.217,5.051,9.642,545.044,587.036,-410.767, , , , , , ,-9.053,-28.477,-107.661
 13:50:23.913,eb:33:2e:f9:57:b5, 2015-01-01 00:14:32.710,9.648,2.858,3.891,677.002,511.353,-415.161, , , , , , ,-4.455,-26.411,-109.951
 13:50:23.913,eb:33:2e:f9:57:b5, 2015-01-01 00:14:32.710,10.003,7.111,5.451,205.261,1347.29,-343.079, , , , , , ,-1.582,-21.78,-112.05
 13:50:23.915,eb:33:2e:f9:57:b5, 2015-01-01 00:14:32.710,-1.154,6.743,3.435,-110.962,1428.406,-439.27, , , , , , ,-0.846,-14.496,-114.527
 13:50:23.916,eb:33:2e:f9:57:b5, 2015-01-01 00:14:32.710,-4.798,-2.773,-0.443,-90.332,1124.39,-211.426, , , , , , ,-1.093,-8.223,-116.202
 13:50:23.916,eb:33:2e:f9:57:b5, 2015-01-01 00:14:32.710,-5.588,-3.117,-0.997,-28.015,712.524,106.689, , , , , , ,-1.187,-3.878,-116.461
 13:50:23.916,eb:33:2e:f9:57:b5, 2015-01-01 00:14:32.710,-4.309,1.898,-3.516,31.006,381.531,60.303, , , , , , ,-1.269,-1.274,-115.867
 13:50:23.916,eb:33:2e:f9:57:b5, 2015-01-01 00:14:32.710,-3.034,-1.778,-0.046,88.379,228.088,-26.184, , , , , , ,-0.934,0.214,-116.142
 13:50:23.916,eb:33:2e:f9:57:b5, 2015-01-01 00:14:32.710,-0.233,-1.485,-0.799,110.962,50.903,132.568, , , , , , ,-0.401,0.681,-115.697
 13:50:23.916,eb:33:2e:f9:57:b5, 2015-01-01 00:14:32.710,-0.048,-0.864,1.666,124.939,82.764,113.708, , , , , , ,0.192,1.148,-115.093
 13:50:23.916,eb:33:2e:f9:57:b5, 2015-01-01 00:14:32.710,0.706,1.282,0.335,121.643,69.824,29.907, , , , , , ,0.857,1.456,-114.747
 13:50:23.960,eb:33:2e:f9:57:b5, 2015-01-01 00:14:32.710,0.116,0.818,1.08,89.172,116.76,23.01, , , , , , ,1.357,1.945,-114.659
 13:50:23.960,eb:33:2e:f9:57:b5, 2015-01-01 00:14:32.710,-0.785,0.206,1.614,92.224,138.184,7.874, , , , , , ,1.802,2.637,-114.543
 13:50:23.960,eb:33:2e:f9:57:b5, 2015-01-01 00:14:32.710,-1.469,-0.052,0.128,91.003,91.37,3.723, , , , , , ,2.285,3.208,-114.521
 13:50:23.960,eb:33:2e:f9:57:b5, 2015-01-01 00:14:32.710,0.979,-0.275,0.399,77.698,58.96,37.415, , , , , , ,2.708,3.549,-114.384
 13:50:23.960,eb:33:2e:f9:57:b5, 2015-01-01 00:14:32.710,1.399,0.648,1.86,78.125,86.548,19.47, , , , , , ,3.098,3.895,-114.208
 13:50:23.960,eb:33:2e:f9:57:b5, 2015-01-01 00:14:32.710,-0.183,0.476,1.925,89.539,116.333,-7.812, , , , , , ,3.527,4.438,-114.175
 13:50:23.960,eb:33:2e:f9:57:b5, 2015-01-01 00:14:32.710,-2.17,0.008,1.102,98.755,100.769,-12.695, , , , , , ,4.016,4.999,-114.197
 13:50:23.961,eb:33:2e:f9:57:b5, 2015-01-01 00:14:32.710,-2.333,-0.772,0.714,110.107,26.794,22.278, , , , , , ,4.548,5.312,-114.148
 13:50:24.003,eb:33:2e:f9:57:b5, 2015-01-01 00:14:33.400,-1.113,-0.81,0.787,121.155,-34.546,46.814, , , , , , ,5.153,5.235,-113.961
 13:50:24.003,eb:33:2e:f9:57:b5, 2015-01-01 00:14:33.400,-0.102,-0.285,1.761,142.09,-64.209,48.401, , , , , , ,5.834,4.911,-113.741
 13:50:24.003,eb:33:2e:f9:57:b5, 2015-01-01 00:14:33.400,-0.263,-0.185,3.164,178.284,-59.57,45.166, , , , , , ,6.68,4.603,-113.549
 13:50:24.003,eb:33:2e:f9:57:b5, 2015-01-01 00:14:33.400,-0.564,-0.396,3.894,245.544,-72.327,28.809, , , , , , ,7.762,4.246,-113.406
 13:50:24.003,eb:33:2e:f9:57:b5, 2015-01-01 00:14:33.400,0.084,-0.511,4.399,325.378,-86.121,-5.31, , , , , , ,9.223,3.834,-113.423
 13:50:24.003,eb:33:2e:f9:57:b5, 2015-01-01 00:14:33.400,0.865,-0.616,6.208,409.058,-51.636,-33.63, , , , , , ,11.091,3.516,-113.626
 13:50:24.003,eb:33:2e:f9:57:b5, 2015-01-01 00:14:33.400,1.206,-1.734,8.287,502.991,19.714,-5.615, , , , , , ,13.414,3.488,-113.714
 13:50:24.004,eb:33:2e:f9:57:b5, 2015-01-01 00:14:33.400,2.287,-2.013,8.936,588.318,100.098,-6.836, , , , , , ,16.199,3.829,-113.681
 13:50:24.115,eb:33:2e:f9:57:b5, 2015-01-01 00:14:33.400,3.029,-2.298,9.484,667.786,189.209,-0.732, , , , , , ,19.391,4.57,-113.456
 13:50:24.115,eb:33:2e:f9:57:b5, 2015-01-01 00:14:33.400,3.583,-2.283,9.89,746.704,257.507,-17.456, , , , , , ,23.011,5.702,-113.055
 13:50:24.115,eb:33:2e:f9:57:b5, 2015-01-01 00:14:33.400,3.461,-2.42,10.282,840.271,377.136,-36.499, , , , , , ,27.065,7.202,-112.5
 13:50:24.115,eb:33:2e:f9:57:b5, 2015-01-01 00:14:33.400,3.685,-2.702,11.924,941.772,636.169,-1.77, , , , , , ,31.767,9.481,-111.297
 13:50:24.115,eb:33:2e:f9:57:b5, 2015-01-01 00:14:33.400,3.888,-1.82,12.202,1027.527,843.75,45.837, , , , , , ,37.161,12.574,-108.99
 13:50:24.115,eb:33:2e:f9:57:b5, 2015-01-01 00:14:33.400,1.854,-0.599,10.402,1121.399,852.783,98.389, , , , , , ,43.369,15.639,-105.776
 13:50:24.116,eb:33:2e:f9:57:b5, 2015-01-01 00:14:33.400,2.022,0.806,6.566,1195.74,641.785,89.966, , , , , , ,50.147,17.726,-102.651
 13:50:24.116,eb:33:2e:f9:57:b5, 2015-01-01 00:14:33.400,1.802,2.771,3.043,1030.396,275.391,42.175, , , , , , ,56.398,18.907,-100.591
 13:50:24.118,eb:33:2e:f9:57:b5, 2015-01-01 00:14:33.400,0.884,3.452,-1.355,690.552,56.58,-3.54, , , , , , ,60.732,19.27,-99.954
 13:50:24.118,eb:33:2e:f9:57:b5, 2015-01-01 00:14:33.400,0.561,-0.839,0.723,387.573,73.914,52.917, , , , , , ,63.287,19.369,-99.662
 13:50:24.118,eb:33:2e:f9:57:b5, 2015-01-01 00:14:33.400,-1.557,-5.334,6.834,349.426,326.355,257.812, , , , , , ,65.396,19.1,-98.267
 13:50:24.118,eb:33:2e:f9:57:b5, 2015-01-01 00:14:33.400,-1.062,-0.936,8.92,514.648,560.608,327.026, , , , , , ,68.621,18.583,-95.306
 13:50:24.118,eb:33:2e:f9:57:b5, 2015-01-01 00:14:33.400,0.301,2.329,8.329,519.47,532.043,349.426, , , , , , ,72.35,17.908,-91.901
 13:50:24.118,eb:33:2e:f9:57:b5, 2015-01-01 00:14:33.400,0.595,0.928,8.936,480.469,428.284,353.149, , , , , , ,75.652,16.842,-89.017
 13:50:24.118,eb:33:2e:f9:57:b5, 2015-01-01 00:14:33.400,1.113,-0.579,6.951,497.07,305.786,337.158, , , , , , ,78.695,15.518,-86.841
 13:50:24.118,eb:33:2e:f9:57:b5, 2015-01-01 00:14:33.400,1.639,-0.101,6.014,500.549,228.21,266.235, , , , , , ,81.595,14.293,-85.259
 13:50:24.118,eb:33:2e:f9:57:b5, 2015-01-01 00:14:33.400,1.752,0.051,6.958,506.592,170.715,178.04, , , , , , ,84.38,13.343,-84.133
 13:50:24.118,eb:33:2e:f9:57:b5, 2015-01-01 00:14:33.400,1.841,0.116,7.849,519.226,129.944,73.73, , , , , , ,87.133,12.821,-83.342
 13:50:24.118,eb:33:2e:f9:57:b5, 2015-01-01 00:14:33.400,2.187,-0.096,8.599,525.757,99.731,-41.809, , , , , , ,89.824,12.81,-82.793
 13:50:24.118,eb:33:2e:f9:57:b5, 2015-01-01 00:14:33.400,2.231,-0.524,8.867,517.334,91.309,-158.142, , , , , , ,92.549,13.365,-82.299
 13:50:24.118,eb:33:2e:f9:57:b5, 2015-01-01 00:14:33.400,2.041,-1.019,8.646,485.962,100.22,-263.367, , , , , , ,95.191,14.442,-81.722
 13:50:24.118,eb:33:2e:f9:57:b5, 2015-01-01 00:14:33.400,1.863,-1.525,8.189,436.218,112.793,-349.854, , , , , , ,97.668,15.952,-80.98
 13:50:24.118,eb:33:2e:f9:57:b5, 2015-01-01 00:14:33.400,1.718,-2.03,7.771,378.052,121.765,-418.823, , , , , , ,99.877,17.803,-80.085
 13:50:24.118,eb:33:2e:f9:57:b5, 2015-01-01 00:14:33.400,1.756,-2.547,7.273,321.045,123.352,-468.14, , , , , , ,101.948,19.891,-78.992
 13:50:24.165,eb:33:2e:f9:57:b5, 2015-01-01 00:14:33.400,1.693,-3.104,6.876,266.968,121.887,-496.277, , , , , , ,103.832,22.126,-77.756
 13:50:24.165,eb:33:2e:f9:57:b5, 2015-01-01 00:14:33.400,1.658,-3.706,6.457,217.224,119.202,-513.123, , , , , , ,105.546,24.434,-76.421
 13:50:24.165,eb:33:2e:f9:57:b5, 2015-01-01 00:14:33.400,1.569,-4.312,6.032,171.875,121.033,-508.118, , , , , , ,107.029,26.724,-75.031
 13:50:24.165,eb:33:2e:f9:57:b5, 2015-01-01 00:14:33.400,1.494,-4.847,5.495,128.174,122.437,-481.323, , , , , , ,108.457,28.894,-73.526
 13:50:24.165,eb:33:2e:f9:57:b5, 2015-01-01 00:14:33.400,1.396,-5.244,4.863,83.252,121.216,-438.171, , , , , , ,109.726,30.85,-71.993
 13:50:24.165,eb:33:2e:f9:57:b5, 2015-01-01 00:14:33.400,1.145,-5.655,4.098,35.4,114.563,-382.751, , , , , , ,110.781,32.552,-70.516
 13:50:24.165,eb:33:2e:f9:57:b5, 2015-01-01 00:14:33.400,1.113,-6.318,2.561,-35.278,98.145,-286.011, , , , , , ,111.368,33.92,-69.285
 13:50:24.165,eb:33:2e:f9:57:b5, 2015-01-01 00:14:33.400,1.244,-6.926,0.984,-116.76,96.069,-183.594, , , , , , ,111.55,34.794,-68.242
 13:50:24.205,eb:33:2e:f9:57:b5, 2015-01-01 00:14:33.400,1.697,-7.384,-0.39,-221.985,109.253,-73.303, , , , , , ,111.143,35.151,-67.39
 13:50:24.205,eb:33:2e:f9:57:b5, 2015-01-01 00:14:33.400,2.094,-7.154,-0.813,-330.017,112.305,22.217, , , , , , ,110.094,35.013,-66.714
 13:50:24.205,eb:33:2e:f9:57:b5, 2015-01-01 00:14:33.400,2.535,-6.425,-0.672,-418.274,79.163,91.797, , , , , , ,108.314,34.568,-66.368
 13:50:24.205,eb:33:2e:f9:57:b5, 2015-01-01 00:14:33.400,3.234,-5.607,-0.854,-487.305,21.179,140.198, , , , , , ,106.04,33.915,-66.324
 13:50:24.205,eb:33:2e:f9:57:b5, 2015-01-01 00:14:33.400,3.829,-4.726,-1.203,-544.617,-42.603,158.875, , , , , , ,103.244,33.195,-66.643
 13:50:24.205,eb:33:2e:f9:57:b5, 2015-01-01 00:14:33.400,4.033,-3.858,-1.425,-592.407,-108.704,150.635, , , , , , ,100.014,32.52,-67.302
 13:50:24.205,eb:33:2e:f9:57:b5, 2015-01-01 00:14:33.400,3.941,-3.176,-1.266,-628.052,-177.551,125.427, , , , , , ,96.328,31.97,-68.362
 13:50:24.205,eb:33:2e:f9:57:b5, 2015-01-01 00:14:33.400,3.733,-2.67,-0.693,-656.433,-239.563,89.966, , , , , , ,92.411,31.531,-69.67
 13:50:24.228,eb:33:2e:f9:57:b5, 2015-01-01 00:14:33.400,3.438,-2.261,0.087,-682.556,-290.039,49.316, , , , , , ,88.226,31.212,-71.252
 13:50:24.228,eb:33:2e:f9:57:b5, 2015-01-01 00:14:33.400,3.07,-1.925,0.892,-710.754,-321.716,3.357, , , , , , ,83.804,30.992,-73.054
 13:50:24.228,eb:33:2e:f9:57:b5, 2015-01-01 00:14:33.400,2.679,-1.77,1.562,-742.249,-343.445,-37.231, , , , , , ,79.069,30.855,-75.075
 13:50:24.228,eb:33:2e:f9:57:b5, 2015-01-01 00:14:33.400,2.376,-1.705,2.199,-778.015,-355.103,-75.684, , , , , , ,74.191,30.751,-77.146
 13:50:24.228,eb:33:2e:f9:57:b5, 2015-01-01 00:14:33.400,2.211,-1.674,2.741,-815.308,-360.352,-108.398, , , , , , ,69.088,30.641,-79.294
 13:50:24.228,eb:33:2e:f9:57:b5, 2015-01-01 00:14:33.400,2.059,-1.589,3.197,-853.821,-362.976,-141.296, , , , , , ,63.765,30.504,-81.519
 13:50:24.228,eb:33:2e:f9:57:b5, 2015-01-01 00:14:33.400,2.126,-1.441,3.565,-885.925,-365.906,-173.096, , , , , , ,58.14,30.311,-83.892
 13:50:24.228,eb:33:2e:f9:57:b5, 2015-01-01 00:14:33.400,2.002,-1.146,3.952,-908.875,-371.582,-207.275, , , , , , ,52.432,30.059,-86.287
 13:50:24.295,eb:33:2e:f9:57:b5, 2015-01-01 00:14:33.400,1.786,-0.872,4.066,-917.114,-389.954,-234.375, , , , , , ,46.609,29.669,-88.797
 13:50:24.295,eb:33:2e:f9:57:b5, 2015-01-01 00:14:33.400,1.384,-0.652,4.181,-912.781,-413.94,-251.343, , , , , , ,40.748,29.053,-91.412
 13:50:24.295,eb:33:2e:f9:57:b5, 2015-01-01 00:14:33.400,1.019,-0.559,4.343,-890.808,-449.158,-254.272, , , , , , ,34.876,28.092,-94.142
 13:50:24.295,eb:33:2e:f9:57:b5, 2015-01-01 00:14:33.400,0.716,-0.462,4.489,-855.835,-484.375,-242.737, , , , , , ,29.328,26.757,-96.735
 13:50:24.295,eb:33:2e:f9:57:b5, 2015-01-01 00:14:33.400,0.195,-0.423,4.454,-815.796,-509.644,-218.506, , , , , , ,24.126,25.038,-99.113
 13:50:24.295,eb:33:2e:f9:57:b5, 2015-01-01 00:14:33.400,-0.125,-0.544,4.108,-768.738,-536.987,-183.838, , , , , , ,19.341,22.961,-101.19
 13:50:24.295,eb:33:2e:f9:57:b5, 2015-01-01 00:14:33.400,-0.265,-0.708,3.717,-717.834,-554.749,-138.184, , , , , , ,14.941,20.533,-102.925
 13:50:24.295,eb:33:2e:f9:57:b5, 2015-01-01 00:14:33.400,-0.329,-0.547,3.516,-678.345,-562.805,-88.257, , , , , , ,11.069,17.93,-104.15
 13:50:24.319,eb:33:2e:f9:57:b5, 2015-01-01 00:14:33.690,-0.453,-0.216,3.677,-648.193,-559.448,-45.532, , , , , , ,7.548,15.205,-104.941
 13:50:24.319,eb:33:2e:f9:57:b5, 2015-01-01 00:14:33.690,-0.544,0.156,3.952,-624.573,-541.687,-15.93, , , , , , ,4.274,12.491,-105.37
 13:50:24.319,eb:33:2e:f9:57:b5, 2015-01-01 00:14:33.690,-0.788,0.497,3.929,-604.614,-533.081,14.648, , , , , , ,1.11,9.767,-105.529
 13:50:24.319,eb:33:2e:f9:57:b5, 2015-01-01 00:14:33.690,-0.956,0.956,3.837,-589.294,-525.024,32.959, , , , , , ,-1.84,7.125,-105.37
 13:50:24.319,eb:33:2e:f9:57:b5, 2015-01-01 00:14:33.690,-1.087,1.482,3.757,-574.463,-529.907,47.852, , , , , , ,-4.708,4.504,-105.013
 13:50:24.319,eb:33:2e:f9:57:b5, 2015-01-01 00:14:33.690,-1.252,2.115,3.951,-559.326,-544.373,58.105, , , , , , ,-7.504,1.857,-104.458
 13:50:24.319,eb:33:2e:f9:57:b5, 2015-01-01 00:14:33.690,-1.37,2.922,4.521,-542.969,-558.167,62.073, , , , , , ,-10.322,-0.868,-103.749
 13:50:24.319,eb:33:2e:f9:57:b5, 2015-01-01 00:14:33.690,-1.549,3.821,5.292,-525.269,-574.402,64.819, , , , , , ,-13.019,-3.582,-102.865
 13:50:24.364,eb:33:2e:f9:57:b5, 2015-01-01 00:14:33.690,-2.042,4.823,6.157,-503.174,-590.271,70.984, , , , , , ,-15.672,-6.328,-101.805
 13:50:24.364,eb:33:2e:f9:57:b5, 2015-01-01 00:14:33.690,-2.545,6.207,7.305,-464.111,-594.116,75.256, , , , , , ,-18.248,-9.064,-100.574
 13:50:24.364,eb:33:2e:f9:57:b5, 2015-01-01 00:14:33.690,-3.048,7.49,8.343,-414.734,-567.566,72.144, , , , , , ,-20.737,-11.717,-99.24
 13:50:24.364,eb:33:2e:f9:57:b5, 2015-01-01 00:14:33.690,-3.365,8.875,9.362,-349.487,-505.615,57.434, , , , , , ,-22.917,-14.073,-97.916
 13:50:24.364,eb:33:2e:f9:57:b5, 2015-01-01 00:14:33.690,-3.617,10.221,9.891,-272.522,-418.335,34.607, , , , , , ,-24.736,-16.068,-96.762
 13:50:24.364,eb:33:2e:f9:57:b5, 2015-01-01 00:14:33.690,-3.802,11.265,9.67,-189.758,-334.167,2.197, , , , , , ,-26.115,-17.688,-95.861
 13:50:24.364,eb:33:2e:f9:57:b5, 2015-01-01 00:14:33.690,-3.738,11.857,8.849,-104.919,-261.292,-47.302, , , , , , ,-27.026,-19.061,-95.301
 13:50:24.364,eb:33:2e:f9:57:b5, 2015-01-01 00:14:33.690,-3.525,12.099,7.814,-28.625,-197.388,-103.088, , , , , , ,-27.367,-20.237,-95.142
 13:50:24.430,eb:33:2e:f9:57:b5, 2015-01-01 00:14:33.690,-3.475,12.37,6.811,32.776,-147.156,-159.546, , , , , , ,-27.235,-21.286,-95.394
 13:50:24.430,eb:33:2e:f9:57:b5, 2015-01-01 00:14:33.690,-3.559,12.093,5.877,86.182,-116.272,-212.952, , , , , , ,-26.68,-22.291,-96.004
 13:50:24.430,eb:33:2e:f9:57:b5, 2015-01-01 00:14:33.690,-3.722,10.811,5.194,132.996,-88.135,-254.822, , , , , , ,-25.757,-23.28,-96.938
 13:50:24.430,eb:33:2e:f9:57:b5, 2015-01-01 00:14:33.690,-4.112,9,4.649,171.753,-53.955,-267.029, , , , , , ,-24.505,-24.153,-98.091
 13:50:24.430,eb:33:2e:f9:57:b5, 2015-01-01 00:14:33.690,-4.385,7.286,4.348,205.261,-10.925,-257.751, , , , , , ,-23.022,-24.813,-99.355
 13:50:24.430,eb:33:2e:f9:57:b5, 2015-01-01 00:14:33.690,-6.337,5.72,4.234,242.126,40.71,-235.046, , , , , , ,-21.341,-25.186,-100.646
 13:50:24.430,eb:33:2e:f9:57:b5, 2015-01-01 00:14:33.690,-5.939,6.682,9.062,551.941,631.409,-410.217, , , , , , ,-18.528,-24.324,-102.634
 13:50:24.430,eb:33:2e:f9:57:b5, 2015-01-01 00:14:33.690,1.27,3.308,4.944,927.063,585.632,-359.741, , , , , , ,-13.651,-22.126,-105.359
 13:50:24.453,eb:33:2e:f9:57:b5, 2015-01-01 00:14:33.690,10.217,2.705,3.781,612.427,1272.461,-548.462, , , , , , ,-8.465,-18.034,-109.204
 13:50:24.453,eb:33:2e:f9:57:b5, 2015-01-01 00:14:33.690,0.278,8.237,7.643,254.395,1476.562,-334.778, , , , , , ,-5.773,-11.025,-112.17
 13:50:24.453,eb:33:2e:f9:57:b5, 2015-01-01 00:14:33.690,-4.291,-1.276,4.728,149.231,946.472,61.035, , , , , , ,-4.746,-5.416,-113.038
 13:50:24.454,eb:33:2e:f9:57:b5, 2015-01-01 00:14:33.690,-7.884,-1.866,-1.675,199.768,486.633,184.692, , , , , , ,-3.829,-1.945,-112.533
 13:50:24.454,eb:33:2e:f9:57:b5, 2015-01-01 00:14:33.690,-4.458,2.267,-5.274,114.685,110.046,56.58, , , , , , ,-3.131,-0.851,-111.962
 13:50:24.454,eb:33:2e:f9:57:b5, 2015-01-01 00:14:33.690,0.543,-0.186,-0.681,120.667,17.212,-36.377, , , , , , ,-2.543,-0.786,-112.028
 13:50:24.454,eb:33:2e:f9:57:b5, 2015-01-01 00:14:33.690,0.55,-0.549,1.085,126.709,33.752,32.837, , , , , , ,-1.89,-0.61,-112.033
 13:50:24.454,eb:33:2e:f9:57:b5, 2015-01-01 00:14:33.690,1.508,0.26,1.941,121.277,113.953,55.603, , , , , , ,-1.285,-0.214,-111.797
 13:50:24.521,eb:33:2e:f9:57:b5, 2015-01-01 00:14:33.690,0.712,-0.25,2.218,149.963,148.254,52.856, , , , , , ,-0.577,0.478,-111.489
 13:50:24.521,eb:33:2e:f9:57:b5, 2015-01-01 00:14:33.690,0.121,1.556,0.834,125.488,189.087,-14.893, , , , , , ,0.11,1.39,-111.462
 13:50:24.521,eb:33:2e:f9:57:b5, 2015-01-01 00:14:33.690,-1.758,0.523,1.057,107.971,215.881,-10.376, , , , , , ,0.687,2.444,-111.555
 13:50:24.521,eb:33:2e:f9:57:b5, 2015-01-01 00:14:33.690,-1.29,-0.75,0.444,121.582,145.203,11.902, , , , , , ,1.269,3.362,-111.517
 13:50:24.522,eb:33:2e:f9:57:b5, 2015-01-01 00:14:33.690,0.414,-0.065,0.193,126.587,58.594,24.292, , , , , , ,1.906,3.796,-111.407
 13:50:24.522,eb:33:2e:f9:57:b5, 2015-01-01 00:14:33.690,0.548,0.636,1.45,118.164,75.073,10.742, , , , , , ,2.516,4.109,-111.302
 13:50:24.522,eb:33:2e:f9:57:b5, 2015-01-01 00:14:33.690,-0.774,0.382,1.901,126.038,93.506,-17.944, , , , , , ,3.148,4.576,-111.324
 13:50:24.522,eb:33:2e:f9:57:b5, 2015-01-01 00:14:33.690,-1.394,-0.252,-0.033,135.376,34.729,-8.24, , , , , , ,3.834,4.9,-111.385
 13:50:24.522,eb:33:2e:f9:57:b5, 2015-01-01 00:14:33.690,-1.457,-0.849,0.915,132.874,5.31,20.081, , , , , , ,4.482,5.015,-111.363
 13:50:24.522,eb:33:2e:f9:57:b5, 2015-01-01 00:14:33.690,-0.419,-0.184,1.195,148.865,-51.88,25.94, , , , , , ,5.197,4.861,-111.259
 13:50:24.522,eb:33:2e:f9:57:b5, 2015-01-01 00:14:33.690,0.541,-0.038,2.478,165.649,-40.1,11.719, , , , , , ,6.021,4.592,-111.187
 13:50:24.522,eb:33:2e:f9:57:b5, 2015-01-01 00:14:33.690,0.162,-0.081,3.978,197.937,8.118,2.747, , , , , , ,6.938,4.543,-111.171
 13:50:24.522,eb:33:2e:f9:57:b5, 2015-01-01 00:14:33.690,-0.434,-0.374,4.49,257.812,24.048,-11.047, , , , , , ,8.097,4.631,-111.182
 13:50:24.522,eb:33:2e:f9:57:b5, 2015-01-01 00:14:33.690,0.032,-0.697,4.937,353.21,7.69,-27.771, , , , , , ,9.651,4.719,-111.264
 13:50:24.522,eb:33:2e:f9:57:b5, 2015-01-01 00:14:33.690,0.662,-1.162,5.894,438.904,11.414,-43.64, , , , , , ,11.678,4.807,-111.451
 13:50:24.522,eb:33:2e:f9:57:b5, 2015-01-01 00:14:33.690,0.625,-1.708,8.205,517.761,79.956,-10.864, , , , , , ,14.106,5.07,-111.533
 13:50:24.611,eb:33:2e:f9:57:b5, 2015-01-01 00:14:33.690,1.51,-2.603,9.37,611.328,159.424,12.756, , , , , , ,16.99,5.691,-111.33
 13:50:24.611,eb:33:2e:f9:57:b5, 2015-01-01 00:14:33.690,3.196,-2.662,9.722,703.674,227.051,19.714, , , , , , ,20.363,6.603,-110.923
 13:50:24.611,eb:33:2e:f9:57:b5, 2015-01-01 00:14:33.690,4,-2.561,10.346,789.307,280.884,-12.817, , , , , , ,24.197,7.828,-110.44
 13:50:24.611,eb:33:2e:f9:57:b5, 2015-01-01 00:14:33.690,5.158,-3.282,10.821,894.043,434.387,-31.189, , , , , , ,28.597,9.531,-109.704
 13:50:24.611,eb:33:2e:f9:57:b5, 2015-01-01 00:14:33.690,5.02,-3.678,12.029,974.243,643.372,11.536, , , , , , ,33.558,11.915,-108.27
 13:50:24.611,eb:33:2e:f9:57:b5, 2015-01-01 00:14:33.690,5.213,-2.319,14.243,1068.848,862.305,25.635, , , , , , ,39.287,15.029,-105.82
 13:50:24.611,eb:33:2e:f9:57:b5, 2015-01-01 00:14:33.690,3.077,-2.085,11.613,1171.448,855.53,72.083, , , , , , ,45.884,18.094,-102.469
 13:50:24.611,eb:33:2e:f9:57:b5, 2015-01-01 00:14:33.690,2.97,0.934,9.094,1187.256,671.326,5.554, , , , , , ,52.888,20.385,-99.327
 13:50:24.611,eb:33:2e:f9:57:b5, 2015-01-01 00:14:33.690,2.984,1.451,5.173,1024.963,346.558,-13.977, , , , , , ,59.211,21.78,-97.119
 13:50:24.611,eb:33:2e:f9:57:b5, 2015-01-01 00:14:33.690,2.289,3.176,-1.484,696.045,90.21,-63.782, , , , , , ,63.633,22.418,-96.4
 13:50:24.612,eb:33:2e:f9:57:b5, 2015-01-01 00:14:33.690,1.247,-0.914,1.149,381.836,76.721,-12.451, , , , , , ,66.132,22.758,-96.235
 13:50:24.612,eb:33:2e:f9:57:b5, 2015-01-01 00:14:33.690,-0.962,-7.68,7.379,370.117,336.426,250.549, , , , , , ,68.362,22.516,-94.845
 13:50:24.612,eb:33:2e:f9:57:b5, 2015-01-01 00:14:33.690,-0.091,-1.822,7.046,524.048,524.292,324.646, , , , , , ,71.851,21.868,-91.906
 13:50:24.612,eb:33:2e:f9:57:b5, 2015-01-01 00:14:33.690,1.062,1.478,6.346,452.82,446.533,366.76, , , , , , ,75.449,20.885,-88.841
 13:50:24.612,eb:33:2e:f9:57:b5, 2015-01-01 00:14:33.690,0.693,0.244,7.665,390.015,316.833,365.112, , , , , , ,78.239,19.468,-86.495
 13:50:24.612,eb:33:2e:f9:57:b5, 2015-01-01 00:14:33.690,1.149,-0.434,5.692,387.39,190.186,336.365, , , , , , ,80.7,17.941,-84.924
 13:50:24.679,eb:33:2e:f9:57:b5, 2015-01-01 00:14:33.690,1.662,0.452,5.231,380.432,105.225,256.836, , , , , , ,82.886,16.6,-83.985
 13:50:24.679,eb:33:2e:f9:57:b5, 2015-01-01 00:14:33.690,1.76,0.48,6.631,387.756,62.805,157.959, , , , , , ,84.946,15.656,-83.474
 13:50:24.679,eb:33:2e:f9:57:b5, 2015-01-01 00:14:33.690,1.894,0.32,7.906,411.499,50.781,46.753, , , , , , ,86.984,15.211,-83.183
 13:50:24.679,eb:33:2e:f9:57:b5, 2015-01-01 00:14:33.690,2.167,-0.057,8.741,428.284,48.767,-69.885, , , , , , ,89.165,15.337,-82.93
 13:50:24.679,eb:33:2e:f9:57:b5, 2015-01-01 00:14:33.690,1.983,-0.639,8.792,428.833,56.763,-187.805, , , , , , ,91.39,16.04,-82.639
 13:50:24.679,eb:33:2e:f9:57:b5, 2015-01-01 00:14:33.690,1.514,-1.108,8.026,406.738,67.688,-289.001, , , , , , ,93.587,17.276,-82.249
 13:50:24.680,eb:33:2e:f9:57:b5, 2015-01-01 00:14:33.690,1.016,-1.408,7.211,361.45,67.444,-372.437, , , , , , ,95.576,18.935,-81.777
 13:50:24.680,eb:33:2e:f9:57:b5, 2015-01-01 00:14:33.690,0.836,-1.815,6.63,301.453,56.335,-437.317, , , , , , ,97.399,20.951,-81.2
 13:50:24.745,eb:33:2e:f9:57:b5, 2015-01-01 00:14:33.690,0.848,-2.419,6.373,239.929,45.41,-479.675, , , , , , ,98.959,23.214,-80.568
 13:50:24.745,eb:33:2e:f9:57:b5, 2015-01-01 00:14:33.690,0.78,-3.142,6.126,179.688,42.053,-503.235, , , , , , ,100.261,25.626,-79.876
 13:50:24.745,eb:33:2e:f9:57:b5, 2015-01-01 00:14:33.690,0.668,-3.902,5.74,122.742,48.218,-505.066, , , , , , ,101.239,28.065,-79.156
 13:50:24.745,eb:33:2e:f9:57:b5, 2015-01-01 00:14:33.690,0.5,-4.597,5.306,71.045,61.279,-480.652, , , , , , ,102.134,30.421,-78.267
 13:50:24.745,eb:33:2e:f9:57:b5, 2015-01-01 00:14:33.690,0.421,-5.168,4.686,22.644,73.853,-429.382, , , , , , ,102.849,32.552,-77.283
 13:50:24.745,eb:33:2e:f9:57:b5, 2015-01-01 00:14:33.690,0.521,-5.6,4.069,-28.259,92.224,-363.647, , , , , , ,103.376,34.354,-76.262
 13:50:24.745,eb:33:2e:f9:57:b5, 2015-01-01 00:14:33.690,0.601,-5.928,3.351,-81.787,114.258,-279.846, , , , , , ,103.579,35.76,-75.267
 13:50:24.746,eb:33:2e:f9:57:b5, 2015-01-01 00:14:33.690,0.499,-6.312,2.35,-137.512,129.15,-189.087, , , , , , ,103.645,36.711,-74.185
 13:50:24.748,eb:33:2e:f9:57:b5, 2015-01-01 00:14:34.095,0.53,-6.96,0.797,-208.923,115.967,-70.19, , , , , , ,103.315,37.156,-73.24
 13:50:24.748,eb:33:2e:f9:57:b5, 2015-01-01 00:14:34.095,0.994,-7.308,-0.436,-279.053,81.726,32.349, , , , , , ,102.426,37.084,-72.642
 13:50:24.748,eb:33:2e:f9:57:b5, 2015-01-01 00:14:34.095,1.756,-7.065,-0.959,-360.046,37.781,120.728, , , , , , ,100.816,36.617,-72.493
 13:50:24.748,eb:33:2e:f9:57:b5, 2015-01-01 00:14:34.095,2.525,-6.229,-0.981,-447.449,-0.183,179.688, , , , , , ,98.712,35.821,-72.576
 13:50:24.748,eb:33:2e:f9:57:b5, 2015-01-01 00:14:34.095,3.125,-5.228,-0.826,-534.363,-37.842,207.092, , , , , , ,96.042,34.854,-72.856
 13:50:24.749,eb:33:2e:f9:57:b5, 2015-01-01 00:14:34.095,3.522,-4.274,-0.73,-613.098,-79.163,207.703, , , , , , ,92.862,33.838,-73.334
 13:50:24.749,eb:33:2e:f9:57:b5, 2015-01-01 00:14:34.095,3.607,-3.447,-0.519,-678.955,-125.305,185.608, , , , , , ,89.121,32.882,-74.081
 13:50:24.749,eb:33:2e:f9:57:b5, 2015-01-01 00:14:34.095,3.47,-2.804,-0.055,-730.896,-173.645,152.405, , , , , , ,85.1,32.009,-74.949
 13:50:24.769,eb:33:2e:f9:57:b5, 2015-01-01 00:14:34.095,3.353,-2.32,0.649,-771.667,-212.646,111.328, , , , , , ,80.766,31.251,-76.003
 13:50:24.769,eb:33:2e:f9:57:b5, 2015-01-01 00:14:34.095,3.237,-1.939,1.516,-803.284,-241.089,65.674, , , , , , ,76.185,30.602,-77.223
 13:50:24.769,eb:33:2e:f9:57:b5, 2015-01-01 00:14:34.095,3.001,-1.544,2.289,-833.74,-256.775,18.005, , , , , , ,71.296,30.081,-78.651
 13:50:24.769,eb:33:2e:f9:57:b5, 2015-01-01 00:14:34.095,2.737,-1.244,2.804,-861.145,-269.653,-25.085, , , , , , ,66.324,29.641,-80.09
 13:50:24.769,eb:33:2e:f9:57:b5, 2015-01-01 00:14:34.095,2.663,-1.039,3.27,-883.24,-278.992,-64.636, , , , , , ,61.194,29.251,-81.628
 13:50:24.769,eb:33:2e:f9:57:b5, 2015-01-01 00:14:34.095,2.648,-0.834,3.653,-899.536,-291.26,-101.013, , , , , , ,55.92,28.878,-83.287
 13:50:24.769,eb:33:2e:f9:57:b5, 2015-01-01 00:14:34.095,2.743,-0.516,4.028,-909.912,-298.462,-143.005, , , , , , ,50.422,28.482,-85.155
 13:50:24.769,eb:33:2e:f9:57:b5, 2015-01-01 00:14:34.095,2.562,-0.131,4.204,-911.743,-310.12,-180.908, , , , , , ,44.956,28.065,-87.072
 13:50:24.791,eb:33:2e:f9:57:b5, 2015-01-01 00:14:34.095,2.281,0.225,4.07,-907.288,-328.491,-211.609, , , , , , ,39.452,27.543,-89.127
 13:50:24.791,eb:33:2e:f9:57:b5, 2015-01-01 00:14:34.095,1.873,0.516,3.938,-894.958,-352.417,-237.671, , , , , , ,33.953,26.856,-91.302
 13:50:24.791,eb:33:2e:f9:57:b5, 2015-01-01 00:14:34.095,1.501,0.56,3.672,-870.605,-387.695,-248.962, , , , , , ,28.438,25.862,-93.631
 13:50:24.791,eb:33:2e:f9:57:b5, 2015-01-01 00:14:34.095,1.123,0.474,3.4,-839.172,-426.758,-244.751, , , , , , ,23.231,24.554,-95.85
 13:50:24.791,eb:33:2e:f9:57:b5, 2015-01-01 00:14:34.095,0.441,0.29,3.131,-804.26,-465.698,-224.365, , , , , , ,18.303,22.863,-97.916
 13:50:24.791,eb:33:2e:f9:57:b5, 2015-01-01 00:14:34.095,0.193,0.052,2.644,-760.559,-507.263,-187.988, , , , , , ,13.749,20.786,-99.695
 13:50:24.791,eb:33:2e:f9:57:b5, 2015-01-01 00:14:34.095,0.193,-0.049,2.57,-713.623,-530.64,-139.038, , , , , , ,9.525,18.331,-101.14
 13:50:24.791,eb:33:2e:f9:57:b5, 2015-01-01 00:14:34.095,0.042,0.358,2.778,-676.27,-535.034,-97.839, , , , , , ,5.784,15.76,-102.107
 13:50:24.859,eb:33:2e:f9:57:b5, 2015-01-01 00:14:34.095,-0.089,0.869,2.969,-639.404,-534.912,-67.505, , , , , , ,2.362,13.129,-102.711
 13:50:24.859,eb:33:2e:f9:57:b5, 2015-01-01 00:14:34.095,-0.408,1.137,2.707,-597.717,-552.979,-26.245, , , , , , ,-0.758,10.41,-102.964
 13:50:24.859,eb:33:2e:f9:57:b5, 2015-01-01 00:14:34.095,-0.53,1.358,2.171,-556.58,-580.872,7.019, , , , , , ,-3.702,7.509,-102.925
 13:50:24.859,eb:33:2e:f9:57:b5, 2015-01-01 00:14:34.095,-0.622,1.634,1.773,-518.555,-624.023,40.222, , , , , , ,-6.328,4.504,-102.519
 13:50:24.860,eb:33:2e:f9:57:b5, 2015-01-01 00:14:34.095,-0.715,2.095,1.894,-485.84,-674.927,69.519, , , , , , ,-8.784,1.302,-101.805
 13:50:24.860,eb:33:2e:f9:57:b5, 2015-01-01 00:14:34.095,-0.728,2.682,2.68,-457.092,-727.234,103.21, , , , , , ,-11.135,-2.098,-100.75
 13:50:24.860,eb:33:2e:f9:57:b5, 2015-01-01 00:14:34.095,-1.016,3.32,3.878,-435.364,-775.146,145.691, , , , , , ,-13.535,-5.718,-99.333
 13:50:24.860,eb:33:2e:f9:57:b5, 2015-01-01 00:14:34.095,-1.301,4.167,5.455,-416.992,-799.072,182.617, , , , , , ,-15.903,-9.327,-97.504
 13:50:24.971,eb:33:2e:f9:57:b5, 2015-01-01 00:14:34.095,-1.657,5.187,7.092,-397.461,-793.884,219.666, , , , , , ,-18.353,-12.838,-95.312
 13:50:24.971,eb:33:2e:f9:57:b5, 2015-01-01 00:14:34.095,-1.969,6.424,8.587,-372.559,-748.291,245.789, , , , , , ,-20.891,-16.068,-92.829
 13:50:24.971,eb:33:2e:f9:57:b5, 2015-01-01 00:14:34.095,-2.024,7.974,9.941,-331.299,-638.367,254.333, , , , , , ,-23.494,-18.814,-90.236
 13:50:24.971,eb:33:2e:f9:57:b5, 2015-01-01 00:14:34.095,-2.108,9.296,10.297,-285.889,-525.696,238.953, , , , , , ,-25.856,-20.885,-87.781
 13:50:24.971,eb:33:2e:f9:57:b5, 2015-01-01 00:14:34.095,-2.012,10.873,9.99,-230.591,-400.33,196.106, , , , , , ,-27.905,-22.396,-85.671
 13:50:24.971,eb:33:2e:f9:57:b5, 2015-01-01 00:14:34.095,-1.843,12.414,9.444,-165.71,-302.185,124.512, , , , , , ,-29.498,-23.511,-84.045
 13:50:24.971,eb:33:2e:f9:57:b5, 2015-01-01 00:14:34.095,-1.678,13.548,8.723,-100.525,-228.455,27.893, , , , , , ,-30.591,-24.467,-83.013
 13:50:24.971,eb:33:2e:f9:57:b5, 2015-01-01 00:14:34.095,-1.556,14.147,7.777,-47.058,-165.527,-86.914, , , , , , ,-31.075,-25.384,-82.667
 13:50:24.971,eb:33:2e:f9:57:b5, 2015-01-01 00:14:34.095,-1.631,14.097,6.803,-10.071,-107.239,-204.346, , , , , , ,-31.025,-26.351,-83.057
 13:50:24.971,eb:33:2e:f9:57:b5, 2015-01-01 00:14:34.095,-1.895,13.169,6.034,12.695,-48.706,-310.669, , , , , , ,-30.509,-27.35,-84.15
 13:50:24.971,eb:33:2e:f9:57:b5, 2015-01-01 00:14:34.095,-2.453,11.379,5.457,30.762,7.141,-386.597, , , , , , ,-29.597,-28.323,-85.875
 13:50:24.971,eb:33:2e:f9:57:b5, 2015-01-01 00:14:34.095,-3.064,9.082,4.998,55.298,54.932,-423.401, , , , , , ,-28.334,-29.163,-88.033
 13:50:24.971,eb:33:2e:f9:57:b5, 2015-01-01 00:14:34.095,-3.776,6.82,4.757,90.576,99.487,-421.814, , , , , , ,-26.779,-29.784,-90.423
 13:50:24.971,eb:33:2e:f9:57:b5, 2015-01-01 00:14:34.095,-2.84,5.065,5.346,331.848,307.556,-442.261, , , , , , ,-24.598,-29.894,-93.032
 13:50:24.971,eb:33:2e:f9:57:b5, 2015-01-01 00:14:34.095,0.424,-0.502,9.261,843.445,231.384,-513.733, , , , , , ,-19.407,-28.51,-97.306
 13:50:24.971,eb:33:2e:f9:57:b5, 2015-01-01 00:14:34.095,12.029,1.695,4.055,755.981,1184.814,-1052.979, , , , , , ,-12.283,-26.257,-103.096
 13:50:24.974,eb:33:2e:f9:57:b5, 2015-01-01 00:14:34.095,5.051,6.985,8.746,391.174,1033.325,-784.973, , , , , , ,-6.932,-24.478,-108.583
 13:50:24.974,eb:33:2e:f9:57:b5, 2015-01-01 00:14:34.095,-3.809,2.909,3.436,94.055,1283.936,-542.603, , , , , , ,-4.417,-18.226,-113
 13:50:24.974,eb:33:2e:f9:57:b5, 2015-01-01 00:14:34.095,-7.11,-3.369,-0.12,142.09,789.978,5.92, , , , , , ,-3.433,-13.524,-114.236
 13:50:24.974,eb:33:2e:f9:57:b5, 2015-01-01 00:14:34.095,-5.922,-2.467,-1.665,158.569,527.405,123.84, , , , , , ,-2.714,-10.399,-113.917
 13:50:24.974,eb:33:2e:f9:57:b5, 2015-01-01 00:14:34.095,-2.644,1.105,-2.007,129.517,258.911,97.168, , , , , , ,-2.104,-8.707,-113.384
 13:50:24.974,eb:33:2e:f9:57:b5, 2015-01-01 00:14:34.095,-0.681,-0.528,-0.188,127.136,123.169,81.543, , , , , , ,-1.522,-7.839,-113.011
 13:50:24.974,eb:33:2e:f9:57:b5, 2015-01-01 00:14:34.095,-0.147,0.376,0.58,119.995,94.727,88.928, , , , , , ,-0.928,-7.306,-112.615
 13:50:24.974,eb:33:2e:f9:57:b5, 2015-01-01 00:14:34.095,0.328,0.367,0.906,130.737,108.398,126.099, , , , , , ,-0.379,-6.828,-112.077
 13:50:25.061,eb:33:2e:f9:57:b5, 2015-01-01 00:14:34.095,1.769,0.091,2.476,148.682,162.72,69.214, , , , , , ,0.264,-6.169,-111.55
 13:50:25.061,eb:33:2e:f9:57:b5, 2015-01-01 00:14:34.095,-0.544,1.465,1.577,152.283,200.378,5.432, , , , , , ,1.011,-5.235,-111.374
 13:50:25.061,eb:33:2e:f9:57:b5, 2015-01-01 00:14:34.095,-2.395,0.45,0.981,153.015,180.664,-23.193, , , , , , ,1.813,-4.268,-111.462
 13:50:25.061,eb:33:2e:f9:57:b5, 2015-01-01 00:14:34.095,-0.718,-1.193,0.59,159.18,127.625,23.926, , , , , , ,2.582,-3.494,-111.412
 13:50:25.061,eb:33:2e:f9:57:b5, 2015-01-01 00:14:34.095,0.393,0.269,0.505,152.161,84.778,22.827, , , , , , ,3.356,-3.016,-111.248
 13:50:25.061,eb:33:2e:f9:57:b5, 2015-01-01 00:14:34.095,-0.536,0.795,1.553,139.465,95.703,7.812, , , , , , ,4.07,-2.571,-111.165
 13:50:25.061,eb:33:2e:f9:57:b5, 2015-01-01 00:14:34.095,-1.11,-0.181,1.597,138.733,94.971,21.973, , , , , , ,4.785,-2.076,-111.061
 13:50:25.061,eb:33:2e:f9:57:b5, 2015-01-01 00:14:34.095,-1.681,-0.779,1.65,156.555,67.871,36.621, , , , , , ,5.515,-1.675,-110.874
 13:50:25.064,eb:33:2e:f9:57:b5, 2015-01-01 00:14:34.095,-2.072,-0.547,1.351,179.688,1.099,53.467, , , , , , ,6.367,-1.566,-110.627
 13:50:25.064,eb:33:2e:f9:57:b5, 2015-01-01 00:14:34.095,-0.785,-0.564,1.684,195.618,-43.091,79.163, , , , , , ,7.3,-1.736,-110.303
 13:50:25.064,eb:33:2e:f9:57:b5, 2015-01-01 00:14:34.095,0.51,-0.171,2.726,225.525,-45.532,77.332, , , , , , ,8.377,-2.027,-109.94
 13:50:25.064,eb:33:2e:f9:57:b5, 2015-01-01 00:14:34.095,-0.444,-0.143,4.825,279.846,-24.841,81.848, , , , , , ,9.641,-2.247,-109.578
 13:50:25.064,eb:33:2e:f9:57:b5, 2015-01-01 00:14:34.095,-0.619,-0.997,5.669,369.141,-56.519,77.515, , , , , , ,11.277,-2.527,-109.21
 13:50:25.064,eb:33:2e:f9:57:b5, 2015-01-01 00:14:34.095,0.663,-1.167,6.82,477.539,-84.9,48.523, , , , , , ,13.431,-2.972,-108.995
 13:50:25.064,eb:33:2e:f9:57:b5, 2015-01-01 00:14:34.095,2.113,-2.24,9.156,610.291,-26.245,16.479, , , , , , ,16.243,-3.268,-108.929
 13:50:25.064,eb:33:2e:f9:57:b5, 2015-01-01 00:14:34.095,3.324,-3.003,12.056,706.787,110.352,21.057, , , , , , ,19.561,-3.038,-108.743
 13:50:25.084,eb:33:2e:f9:57:b5, 2015-01-01 00:14:34.095,4.28,-3.44,11.872,816.162,216.431,5.188, , , , , , ,23.395,-2.241,-108.342
 13:50:25.084,eb:33:2e:f9:57:b5, 2015-01-01 00:14:34.095,3.311,-2.897,11.716,958.374,317.688,-2.441, , , , , , ,27.878,-1.005,-107.765
 13:50:25.084,eb:33:2e:f9:57:b5, 2015-01-01 00:14:34.095,3.533,-2.877,14.273,1057.678,623.108,-1.465, , , , , , ,33.014,1.093,-106.578
 13:50:25.084,eb:33:2e:f9:57:b5, 2015-01-01 00:14:34.095,4.396,-4.044,14.411,1143.188,894.287,79.346, , , , , , ,38.672,4.202,-104.013
 13:50:25.084,eb:33:2e:f9:57:b5, 2015-01-01 00:14:34.095,2.968,-0.741,10.212,1254.028,843.811,119.568, , , , , , ,45.038,7.059,-100.673
 13:50:25.084,eb:33:2e:f9:57:b5, 2015-01-01 00:14:34.095,2.076,-1.619,10.802,1308.105,675.293,129.028, , , , , , ,51.982,9.212,-97.377
 13:50:25.084,eb:33:2e:f9:57:b5, 2015-01-01 00:14:34.095,0.33,1.729,3.49,1130.981,388.794,94.116, , , , , , ,58.491,10.162,-95.026
 13:50:25.084,eb:33:2e:f9:57:b5, 2015-01-01 00:14:34.095,1.067,-1.303,2.436,777.588,324.89,190.247, , , , , , ,63.43,10.377,-93.186
 13:50:25.176,eb:33:2e:f9:57:b5, 2015-01-01 00:14:34.095,2.737,-4.91,1.869,493.652,380.859,411.316, , , , , , ,66.83,9.657,-90.923
 13:50:25.176,eb:33:2e:f9:57:b5, 2015-01-01 00:14:34.095,-1.167,-4.336,5.057,561.829,559.143,609.192, , , , , , ,69.906,7.954,-87.534
 13:50:25.176,eb:33:2e:f9:57:b5, 2015-01-01 00:14:34.095,1.513,1.064,4.504,544.617,550.232,600.281, , , , , , ,73.202,6.097,-83.754
 13:50:25.176,eb:33:2e:f9:57:b5, 2015-01-01 00:14:34.095,1.436,3.485,2.991,400.513,355.896,629.761, , , , , , ,75.773,3.741,-80.865
 13:50:25.176,eb:33:2e:f9:57:b5, 2015-01-01 00:14:34.095,0.944,1.867,7.104,362,204.956,523.743, , , , , , ,77.673,1.285,-78.915
 13:50:25.176,eb:33:2e:f9:57:b5, 2015-01-01 00:14:34.095,1.335,2.617,6.57,392.517,62.622,425.293, , , , , , ,79.563,-0.923,-77.877
 13:50:25.176,eb:33:2e:f9:57:b5, 2015-01-01 00:14:34.095,1.411,4.043,8.28,486.511,-38.94,249.878, , , , , , ,81.744,-2.516,-77.64
 13:50:25.176,eb:33:2e:f9:57:b5, 2015-01-01 00:14:34.095,2.018,3.021,10.069,578.125,-68.848,61.096, , , , , , ,84.474,-3.23,-77.855
 13:50:25.176,eb:33:2e:f9:57:b5, 2015-01-01 00:14:34.095,2.264,1.583,10.62,615.234,-72.266,-112, , , , , , ,87.528,-3.038,-78.223
 13:50:25.176,eb:33:2e:f9:57:b5, 2015-01-01 00:14:34.095,1.938,0.512,10.667,610.168,-51.331,-270.325, , , , , , ,90.61,-2.01,-78.541
 13:50:25.177,eb:33:2e:f9:57:b5, 2015-01-01 00:14:34.095,1.704,-0.067,10.075,576.965,-31.921,-423.218, , , , , , ,93.505,-0.176,-78.673
 13:50:25.177,eb:33:2e:f9:57:b5, 2015-01-01 00:14:34.095,1.515,-0.625,9.078,508.423,-31.555,-538.818, , , , , , ,96.202,2.291,-78.607
 13:50:25.177,eb:33:2e:f9:57:b5, 2015-01-01 00:14:34.095,1.586,-1.743,8.015,414.062,-45.898,-627.625, , , , , , ,98.476,5.268,-78.409
 13:50:25.177,eb:33:2e:f9:57:b5, 2015-01-01 00:14:34.095,1.467,-2.924,7.371,322.998,-59.692,-687.805, , , , , , ,100.305,8.597,-78.129
 13:50:25.177,eb:33:2e:f9:57:b5, 2015-01-01 00:14:34.095,1.226,-3.905,6.843,243.042,-75.623,-715.088, , , , , , ,101.64,12.129,-77.811
 13:50:25.177,eb:33:2e:f9:57:b5, 2015-01-01 00:14:34.095,0.901,-4.747,6.604,176.941,-83.374,-712.219, , , , , , ,102.739,15.716,-77.437
 13:50:25.197,eb:33:2e:f9:57:b5, 2015-01-01 00:14:34.095,0.658,-5.437,6.52,126.709,-80.811,-679.81, , , , , , ,103.59,19.193,-77.014
 13:50:25.197,eb:33:2e:f9:57:b5, 2015-01-01 00:14:34.095,0.451,-5.979,6.403,89.355,-74.158,-619.446, , , , , , ,104.26,22.418,-76.58
 13:50:25.197,eb:33:2e:f9:57:b5, 2015-01-01 00:14:34.095,0.37,-6.555,6.392,58.838,-53.711,-547.852, , , , , , ,104.683,25.296,-76.19
 13:50:25.197,eb:33:2e:f9:57:b5, 2015-01-01 00:14:34.095,0.296,-7.163,6.034,22.644,-15.686,-464.233, , , , , , ,105.123,27.751,-75.641
 13:50:25.197,eb:33:2e:f9:57:b5, 2015-01-01 00:14:34.095,0.328,-7.855,4.737,-39.429,32.654,-356.628, , , , , , ,105.386,29.669,-74.949
 13:50:25.197,eb:33:2e:f9:57:b5, 2015-01-01 00:14:34.095,0.819,-8.398,2.46,-142.578,84.29,-221.924, , , , , , ,105.298,30.921,-74.163
 13:50:25.197,eb:33:2e:f9:57:b5, 2015-01-01 00:14:34.095,1.844,-8.479,0.166,-289.307,141.663,-95.154, , , , , , ,104.491,31.476,-73.361
 13:50:25.197,eb:33:2e:f9:57:b5, 2015-01-01 00:14:34.095,2.397,-7.905,-0.991,-445.923,159.607,-9.399, , , , , , ,103.068,31.481,-72.405
 13:50:25.241,eb:33:2e:f9:57:b5, 2015-01-01 00:14:34.095,2.897,-6.909,-1.338,-573.486,113.586,44.25, , , , , , ,100.833,31.223,-71.631
 13:50:25.241,eb:33:2e:f9:57:b5, 2015-01-01 00:14:34.095,3.709,-5.923,-1.705,-664.429,7.69,84.9, , , , , , ,97.806,30.833,-71.389
 13:50:25.241,eb:33:2e:f9:57:b5, 2015-01-01 00:14:34.095,4.21,-4.807,-1.686,-736.572,-131.531,103.821, , , , , , ,93.889,30.399,-71.977
 13:50:25.241,eb:33:2e:f9:57:b5, 2015-01-01 00:14:34.095,4.374,-4.17,-1.006,-775.452,-225.586,98.145, , , , , , ,89.522,29.921,-73.092
 13:50:25.241,eb:33:2e:f9:57:b5, 2015-01-01 00:14:34.095,4.159,-3.744,-0.004,-801.453,-302.673,83.252, , , , , , ,84.803,29.405,-74.625
 13:50:25.241,eb:33:2e:f9:57:b5, 2015-01-01 00:14:34.095,3.917,-3.345,1.095,-823.547,-343.933,49.377, , , , , , ,79.843,28.867,-76.448
 13:50:25.241,eb:33:2e:f9:57:b5, 2015-01-01 00:14:34.095,3.479,-2.988,2.079,-842.346,-375.366,26.672, , , , , , ,74.608,28.312,-78.508
 13:50:25.241,eb:33:2e:f9:57:b5, 2015-01-01 00:14:34.095,3.284,-2.655,2.876,-864.502,-385.742,-7.935, , , , , , ,69.368,27.691,-80.557
 13:50:25.286,eb:33:2e:f9:57:b5, 2015-01-01 00:14:34.650,3.027,-2.458,3.493,-886.047,-398.987,-37.964, , , , , , ,64.017,27.032,-82.639
 13:50:25.286,eb:33:2e:f9:57:b5, 2015-01-01 00:14:34.650,2.891,-2.254,3.99,-907.715,-413.147,-70.74, , , , , , ,58.557,26.323,-84.787
 13:50:25.286,eb:33:2e:f9:57:b5, 2015-01-01 00:14:34.650,2.964,-2.174,4.387,-927.307,-435.852,-101.868, , , , , , ,52.855,25.477,-87.122
 13:50:25.286,eb:33:2e:f9:57:b5, 2015-01-01 00:14:34.650,3.063,-2.204,4.753,-943.115,-468.018,-132.629, , , , , , ,47.181,24.483,-89.467
 13:50:25.286,eb:33:2e:f9:57:b5, 2015-01-01 00:14:34.650,2.996,-2.269,5.052,-952.332,-506.714,-160.706, , , , , , ,41.435,23.247,-91.923
 13:50:25.286,eb:33:2e:f9:57:b5, 2015-01-01 00:14:34.650,2.77,-2.462,5.13,-953.857,-561.279,-172.241, , , , , , ,35.7,21.676,-94.444
 13:50:25.286,eb:33:2e:f9:57:b5, 2015-01-01 00:14:34.650,2.453,-2.684,5.237,-950.317,-614.868,-166.077, , , , , , ,29.938,19.594,-97.015
 13:50:25.286,eb:33:2e:f9:57:b5, 2015-01-01 00:14:34.650,2.157,-2.85,5.567,-940.369,-668.213,-143.738, , , , , , ,24.494,17.073,-99.289
 13:50:25.353,eb:33:2e:f9:57:b5, 2015-01-01 00:14:34.650,1.816,-2.749,6.014,-922.791,-704.163,-107.483, , , , , , ,19.319,14.095,-101.217
 13:50:25.353,eb:33:2e:f9:57:b5, 2015-01-01 00:14:34.650,1.424,-2.438,6.402,-894.226,-720.764,-66.589, , , , , , ,14.469,10.789,-102.689
 13:50:25.353,eb:33:2e:f9:57:b5, 2015-01-01 00:14:34.650,1.042,-1.834,6.458,-853.21,-721.863,-24.902, , , , , , ,9.833,7.234,-103.722
 13:50:25.353,eb:33:2e:f9:57:b5, 2015-01-01 00:14:34.650,1.168,-0.868,6.43,-809.631,-716.064,10.498, , , , , , ,5.647,3.68,-104.222
 13:50:25.353,eb:33:2e:f9:57:b5, 2015-01-01 00:14:34.650,0.64,0.156,6.542,-768.372,-707.458,55.908, , , , , , ,1.725,0.121,-104.266
 13:50:25.353,eb:33:2e:f9:57:b5, 2015-01-01 00:14:34.650,0.012,1.247,6.37,-731.567,-706.482,93.994, , , , , , ,-2.016,-3.389,-103.865
 13:50:25.353,eb:33:2e:f9:57:b5, 2015-01-01 00:14:34.650,-0.753,2.139,5.73,-687.927,-741.089,138.794, , , , , , ,-5.751,-7.042,-103.03
 13:50:25.353,eb:33:2e:f9:57:b5, 2015-01-01 00:14:34.650,-1.058,2.958,5.261,-640.747,-785.706,180.542, , , , , , ,-9.256,-10.739,-101.706
 13:50:25.353,eb:33:2e:f9:57:b5, 2015-01-01 00:14:34.650,-1.617,3.793,5.345,-597.717,-834.961,235.413, , , , , , ,-12.739,-14.546,-99.849
 13:50:25.353,eb:33:2e:f9:57:b5, 2015-01-01 00:14:34.650,-1.997,4.963,6.316,-559.814,-858.643,290.833, , , , , , ,-16.32,-18.336,-97.372
 13:50:25.353,eb:33:2e:f9:57:b5, 2015-01-01 00:14:34.650,-2.372,6.592,8.186,-518.372,-831.36,347.046, , , , , , ,-20.182,-21.912,-94.296
 13:50:25.353,eb:33:2e:f9:57:b5, 2015-01-01 00:14:34.650,-2.359,8.817,10.512,-473.999,-723.938,369.324, , , , , , ,-24,-24.807,-90.884
 13:50:25.353,eb:33:2e:f9:57:b5, 2015-01-01 00:14:34.650,-2.391,11.202,11.963,-422.974,-578.491,363.831, , , , , , ,-27.702,-26.867,-87.517
 13:50:25.353,eb:33:2e:f9:57:b5, 2015-01-01 00:14:34.650,-2.311,13.396,11.811,-360.718,-441.65,319.763, , , , , , ,-31.036,-28.191,-84.479
 13:50:25.354,eb:33:2e:f9:57:b5, 2015-01-01 00:14:34.650,-2.274,14.521,10.507,-284.668,-343.75,241.699, , , , , , ,-33.904,-29.064,-81.974
 13:50:25.354,eb:33:2e:f9:57:b5, 2015-01-01 00:14:34.650,-2.266,14.933,8.991,-197.632,-296.326,135.681, , , , , , ,-35.991,-29.822,-80.101
 13:50:25.421,eb:33:2e:f9:57:b5, 2015-01-01 00:14:34.650,-2.348,15.104,7.964,-114.929,-271.057,11.597, , , , , , ,-37.359,-30.762,-78.86
 13:50:25.421,eb:33:2e:f9:57:b5, 2015-01-01 00:14:34.650,-2.594,15.167,7.438,-49.377,-238.586,-113.831, , , , , , ,-38.04,-31.954,-78.25
 13:50:25.421,eb:33:2e:f9:57:b5, 2015-01-01 00:14:34.650,-3.505,15.177,7.096,-11.23,-177.429,-230.652, , , , , , ,-38.145,-33.333,-78.365
 13:50:25.421,eb:33:2e:f9:57:b5, 2015-01-01 00:14:34.650,-3.304,14.39,8.641,386.902,277.466,-420.715, , , , , , ,-36.623,-34.332,-79.827
 13:50:25.421,eb:33:2e:f9:57:b5, 2015-01-01 00:14:34.650,3.453,9.798,8.458,1122.681,27.466,-638.733, , , , , , ,-30.789,-35.195,-83.419
 13:50:25.421,eb:33:2e:f9:57:b5, 2015-01-01 00:14:34.650,10.741,13.649,9.831,963.684,-209.778,-1532.898, , , , , , ,-20.572,-36.403,-91.582
 13:50:25.421,eb:33:2e:f9:57:b5, 2015-01-01 00:14:34.650,3.397,13.762,9.694,333.435,1273.987,-970.52, , , , , , ,-12.986,-33.86,-99.943
 13:50:25.421,eb:33:2e:f9:57:b5, 2015-01-01 00:14:34.650,-5.75,-1.376,5.021,167.053,987.61,-242.31, , , , , , ,-9.706,-28.35,-104.403
 13:50:25.465,eb:33:2e:f9:57:b5, 2015-01-01 00:14:34.650,-8.263,-0.912,-0.425,200.012,800.476,-104.736, , , , , , ,-8.075,-24.17,-106.078
 13:50:25.465,eb:33:2e:f9:57:b5, 2015-01-01 00:14:34.650,-6.86,-0.847,-4.551,127.258,343.628,-33.936, , , , , , ,-7.026,-21.665,-106.688
 13:50:25.465,eb:33:2e:f9:57:b5, 2015-01-01 00:14:34.650,0.449,-1.885,-2.05,120.117,26.184,-11.047, , , , , , ,-6.35,-20.956,-106.886
 13:50:25.465,eb:33:2e:f9:57:b5, 2015-01-01 00:14:34.650,2.33,-1.04,1.105,140.503,13.794,50.049, , , , , , ,-5.729,-20.825,-106.848
 13:50:25.465,eb:33:2e:f9:57:b5, 2015-01-01 00:14:34.650,1.008,-0.677,1.701,214.661,-22.949,116.821, , , , , , ,-4.982,-20.792,-106.37
 13:50:25.465,eb:33:2e:f9:57:b5, 2015-01-01 00:14:34.650,3.456,0.07,4.301,240.295,107.666,94.666, , , , , , ,-3.999,-20.49,-105.804
 13:50:25.465,eb:33:2e:f9:57:b5, 2015-01-01 00:14:34.650,0.219,2.113,3.581,230.774,363.77,4.272, , , , , , ,-2.9,-19.171,-105.656
 13:50:25.465,eb:33:2e:f9:57:b5, 2015-01-01 00:14:34.650,-1.192,1.294,2.481,253.357,408.875,-87.646, , , , , , ,-1.577,-17.073,-105.996
 13:50:25.488,eb:33:2e:f9:57:b5, 2015-01-01 00:14:34.650,-3.538,0.048,-1.78,244.629,247.009,-59.021, , , , , , ,-0.176,-15.557,-106.436
 13:50:25.488,eb:33:2e:f9:57:b5, 2015-01-01 00:14:34.650,-2.625,-1.762,-0.623,187.805,212.952,13.306, , , , , , ,0.895,-14.398,-106.551
 13:50:25.488,eb:33:2e:f9:57:b5, 2015-01-01 00:14:34.650,0.497,-0.064,-1.023,179.749,86.06,61.035, , , , , , ,1.747,-13.694,-106.331
 13:50:25.488,eb:33:2e:f9:57:b5, 2015-01-01 00:14:34.650,1.341,0.164,2.102,182.861,82.214,33.569, , , , , , ,2.582,-13.343,-106.051
 13:50:25.488,eb:33:2e:f9:57:b5, 2015-01-01 00:14:34.650,0.564,0.852,3.198,202.332,129.517,-12.207, , , , , , ,3.549,-12.772,-106.018
 13:50:25.488,eb:33:2e:f9:57:b5, 2015-01-01 00:14:34.650,-1.289,-0.025,2.302,215.82,131.653,-23.682, , , , , , ,4.609,-12.096,-106.073
 13:50:25.488,eb:33:2e:f9:57:b5, 2015-01-01 00:14:34.650,-2.658,-0.484,1.3,224.915,98.45,-4.944, , , , , , ,5.735,-11.497,-106.122
 13:50:25.488,eb:33:2e:f9:57:b5, 2015-01-01 00:14:34.650,-1.566,-1.166,1.326,238.892,38.208,33.386, , , , , , ,6.872,-11.195,-105.996
 13:50:25.534,eb:33:2e:f9:57:b5, 2015-01-01 00:14:34.650,0.372,-0.29,1.823,254.761,-5.676,39.734, , , , , , ,8.075,-11.168,-105.787
 13:50:25.534,eb:33:2e:f9:57:b5, 2015-01-01 00:14:34.650,1.378,0.47,2.138,267.151,0.427,13.55, , , , , , ,9.366,-11.212,-105.667
 13:50:25.534,eb:33:2e:f9:57:b5, 2015-01-01 00:14:34.650,-0.004,0.366,2.999,278.748,30.701,6.531, , , , , , ,10.734,-11.107,-105.65
 13:50:25.534,eb:33:2e:f9:57:b5, 2015-01-01 00:14:34.650,-1.804,-0.654,3.738,317.322,35.706,25.818, , , , , , ,12.2,-10.937,-105.507
 13:50:25.534,eb:33:2e:f9:57:b5, 2015-01-01 00:14:34.650,-1.618,-1.23,3.794,374.084,4.517,25.146, , , , , , ,13.925,-10.882,-105.353
 13:50:25.534,eb:33:2e:f9:57:b5, 2015-01-01 00:14:34.650,-0.33,-1.439,4.603,439.941,-6.226,22.888, , , , , , ,15.974,-10.937,-105.255
 13:50:25.534,eb:33:2e:f9:57:b5, 2015-01-01 00:14:34.650,0.478,-1.639,6.205,517.639,8.484,43.274, , , , , , ,18.369,-10.953,-105.112
 13:50:25.534,eb:33:2e:f9:57:b5, 2015-01-01 00:14:34.650,1.373,-2.114,7.558,611.877,21.118,45.227, , , , , , ,21.182,-10.959,-104.865
 13:50:25.601,eb:33:2e:f9:57:b5, 2015-01-01 00:14:34.650,2.678,-2.513,8.603,705.322,45.349,5.31, , , , , , ,24.5,-10.838,-104.672
 13:50:25.601,eb:33:2e:f9:57:b5, 2015-01-01 00:14:34.650,3.081,-1.777,10.249,810.242,106.934,-2.258, , , , , , ,28.29,-10.53,-104.546
 13:50:25.601,eb:33:2e:f9:57:b5, 2015-01-01 00:14:34.650,3.007,-3.417,13.793,936.035,387.878,17.273, , , , , , ,32.58,-9.371,-103.865
 13:50:25.601,eb:33:2e:f9:57:b5, 2015-01-01 00:14:34.650,3.72,-3.76,15.02,1002.38,851.196,94.543, , , , , , ,37.172,-6.817,-101.689
 13:50:25.601,eb:33:2e:f9:57:b5, 2015-01-01 00:14:34.650,4.315,-2.063,15.364,1125.61,1180.908,169.189, , , , , , ,42.182,-3.214,-97.685
 13:50:25.601,eb:33:2e:f9:57:b5, 2015-01-01 00:14:34.650,4.643,-1.221,14.251,1206.299,1161.743,188.232, , , , , , ,47.983,0.45,-92.791
 13:50:25.601,eb:33:2e:f9:57:b5, 2015-01-01 00:14:34.650,4.135,0.909,8.647,1136.719,847.412,188.11, , , , , , ,53.965,2.873,-88.374
 13:50:25.601,eb:33:2e:f9:57:b5, 2015-01-01 00:14:34.650,3.403,5.311,1.26,870.178,492.92,156.067, , , , , , ,59.112,3.895,-85.303
 13:50:25.668,eb:33:2e:f9:57:b5, 2015-01-01 00:14:34.650,4.144,0.989,-0.267,425.537,312.073,218.506, , , , , , ,62.331,4.054,-83.271
 13:50:25.668,eb:33:2e:f9:57:b5, 2015-01-01 00:14:34.650,0.046,-7.356,4.172,351.379,477.051,480.591, , , , , , ,64.116,3.235,-80.717
 13:50:25.668,eb:33:2e:f9:57:b5, 2015-01-01 00:14:34.650,0.967,1.125,4.813,540.405,560.364,481.201, , , , , , ,66.671,2.076,-77.223
 13:50:25.668,eb:33:2e:f9:57:b5, 2015-01-01 00:14:34.650,1.713,5.46,5.26,490.295,288.147,435.669, , , , , , ,69.329,0.681,-74.388
 13:50:25.668,eb:33:2e:f9:57:b5, 2015-01-01 00:14:34.650,1.401,4.286,7.362,430.481,18.005,390.808, , , , , , ,71.532,-1.077,-73.13
 13:50:25.668,eb:33:2e:f9:57:b5, 2015-01-01 00:14:34.650,0.277,2.882,7.916,480.896,-143.616,266.174, , , , , , ,73.834,-2.697,-73.07
 13:50:25.668,eb:33:2e:f9:57:b5, 2015-01-01 00:14:34.650,1.051,3.446,8.668,528.748,-217.529,86.121, , , , , , ,76.355,-3.708,-73.823
 13:50:25.668,eb:33:2e:f9:57:b5, 2015-01-01 00:14:34.650,2.078,2.381,11.378,568.848,-174.988,-93.323, , , , , , ,79.2,-3.801,-74.806
 13:50:25.670,eb:33:2e:f9:57:b5, 2015-01-01 00:14:34.650,2.414,0.976,12.551,568.604,-94.421,-242.188, , , , , , ,82.106,-2.983,-75.569
 13:50:25.670,eb:33:2e:f9:57:b5, 2015-01-01 00:14:34.650,1.673,-0.396,12.39,548.645,-15.198,-366.516, , , , , , ,84.902,-1.428,-75.965
 13:50:25.670,eb:33:2e:f9:57:b5, 2015-01-01 00:14:34.650,1.47,-1.407,11.195,531.86,23.987,-485.84, , , , , , ,87.501,0.78,-76.058
 13:50:25.670,eb:33:2e:f9:57:b5, 2015-01-01 00:14:34.650,1.275,-1.901,9.666,491.882,19.226,-575.439, , , , , , ,90.055,3.494,-75.998
 13:50:25.670,eb:33:2e:f9:57:b5, 2015-01-01 00:14:34.650,1.2,-2.817,8.568,424.744,-11.353,-631.775, , , , , , ,92.324,6.548,-75.91
 13:50:25.670,eb:33:2e:f9:57:b5, 2015-01-01 00:14:34.650,1.012,-4.029,7.82,355.835,-38.452,-659.058, , , , , , ,94.246,9.811,-75.855
 13:50:25.670,eb:33:2e:f9:57:b5, 2015-01-01 00:14:35.030,0.877,-5.084,7.27,292.297,-61.157,-648.743, , , , , , ,95.707,13.107,-75.866
 13:50:25.670,eb:33:2e:f9:57:b5, 2015-01-01 00:14:35.030,0.694,-5.63,6.548,225.891,-73.12,-600.647, , , , , , ,96.971,16.243,-75.866
 13:50:25.713,eb:33:2e:f9:57:b5, 2015-01-01 00:14:35.030,0.295,-6.085,6.071,166.199,-67.139,-524.536, , , , , , ,97.921,19.05,-75.839
 13:50:25.713,eb:33:2e:f9:57:b5, 2015-01-01 00:14:35.030,-0.125,-6.748,5.615,110.779,-50.659,-426.575, , , , , , ,98.608,21.407,-75.784
 13:50:25.713,eb:33:2e:f9:57:b5, 2015-01-01 00:14:35.030,-0.413,-7.469,4.703,50.049,-27.771,-302.856, , , , , , ,98.86,23.198,-75.762
 13:50:25.713,eb:33:2e:f9:57:b5, 2015-01-01 00:14:35.030,-0.597,-8.18,3.38,-21.973,-11.292,-166.077, , , , , , ,98.943,24.307,-75.663
 13:50:25.713,eb:33:2e:f9:57:b5, 2015-01-01 00:14:35.030,-0.475,-8.908,1.711,-117.981,1.892,-17.822, , , , , , ,98.58,24.697,-75.591
 13:50:25.714,eb:33:2e:f9:57:b5, 2015-01-01 00:14:35.030,0.137,-9.19,0.645,-241.15,19.043,123.108, , , , , , ,97.63,24.346,-75.58
 13:50:25.714,eb:33:2e:f9:57:b5, 2015-01-01 00:14:35.030,0.955,-8.566,0.515,-370.605,24.17,226.624, , , , , , ,95.883,23.417,-75.663
 13:50:25.714,eb:33:2e:f9:57:b5, 2015-01-01 00:14:35.030,1.938,-7.467,0.689,-493.469,23.865,284.058, , , , , , ,93.658,22.094,-75.657
 13:50:25.758,eb:33:2e:f9:57:b5, 2015-01-01 00:14:35.030,2.958,-6.389,0.637,-609.375,9.033,302.002, , , , , , ,90.851,20.599,-75.624
 13:50:25.758,eb:33:2e:f9:57:b5, 2015-01-01 00:14:35.030,4.025,-5.273,0.287,-716.064,-9.033,281.067, , , , , , ,87.484,19.138,-75.602
 13:50:25.758,eb:33:2e:f9:57:b5, 2015-01-01 00:14:35.030,4.517,-4.18,-0.041,-808.594,-28.748,224.792, , , , , , ,83.474,17.891,-75.712
 13:50:25.758,eb:33:2e:f9:57:b5, 2015-01-01 00:14:35.030,4.167,-3.295,0.073,-879.639,-69.092,145.569, , , , , , ,79.173,16.979,-75.833
 13:50:25.758,eb:33:2e:f9:57:b5, 2015-01-01 00:14:35.030,3.804,-2.642,0.606,-925.964,-117.188,53.772, , , , , , ,74.515,16.43,-76.212
 13:50:25.758,eb:33:2e:f9:57:b5, 2015-01-01 00:14:35.030,3.445,-2.237,1.273,-957.642,-166.138,-18.188, , , , , , ,69.587,16.15,-76.926
 13:50:25.758,eb:33:2e:f9:57:b5, 2015-01-01 00:14:35.030,3.122,-1.994,2.267,-978.394,-208.557,-77.942, , , , , , ,64.297,16.035,-78.047
 13:50:25.758,eb:33:2e:f9:57:b5, 2015-01-01 00:14:35.030,2.854,-1.698,3.229,-996.765,-235.474,-128.601, , , , , , ,58.991,15.974,-79.349
 13:50:25.760,eb:33:2e:f9:57:b5, 2015-01-01 00:14:35.030,2.607,-1.265,3.969,-1011.414,-265.747,-170.166, , , , , , ,53.542,15.908,-80.881
 13:50:25.760,eb:33:2e:f9:57:b5, 2015-01-01 00:14:35.030,2.286,-0.717,4.465,-1017.334,-304.932,-206.421, , , , , , ,47.972,15.743,-82.678
 13:50:25.760,eb:33:2e:f9:57:b5, 2015-01-01 00:14:35.030,2.153,-0.196,4.753,-1012.39,-361.694,-240.906, , , , , , ,42.182,15.337,-84.836
 13:50:25.760,eb:33:2e:f9:57:b5, 2015-01-01 00:14:35.030,1.75,0.156,5.083,-997.986,-430.359,-268.799, , , , , , ,36.552,14.601,-87.193
 13:50:25.760,eb:33:2e:f9:57:b5, 2015-01-01 00:14:35.030,1.508,0.22,5.215,-967.712,-514.771,-274.109, , , , , , ,31.025,13.359,-89.731
 13:50:25.760,eb:33:2e:f9:57:b5, 2015-01-01 00:14:35.030,1.192,0.336,5.712,-934.326,-563.66,-263.855, , , , , , ,25.735,11.596,-92.269
 13:50:25.760,eb:33:2e:f9:57:b5, 2015-01-01 00:14:35.030,0.871,0.451,6.167,-891.174,-594.727,-239.136, , , , , , ,20.61,9.349,-94.669
 13:50:25.760,eb:33:2e:f9:57:b5, 2015-01-01 00:14:35.030,0.483,0.662,6.447,-845.886,-598.511,-209.839, , , , , , ,16.002,6.855,-96.685
 13:50:25.803,eb:33:2e:f9:57:b5, 2015-01-01 00:14:35.030,0.072,0.608,6.123,-797.18,-595.398,-170.593, , , , , , ,11.761,4.186,-98.317
 13:50:25.803,eb:33:2e:f9:57:b5, 2015-01-01 00:14:35.030,0.051,0.577,5.534,-751.77,-586.365,-136.108, , , , , , ,7.85,1.406,-99.558
 13:50:25.803,eb:33:2e:f9:57:b5, 2015-01-01 00:14:35.030,-0.104,0.675,4.807,-715.881,-583.496,-97.412, , , , , , ,4.054,-1.511,-100.453
 13:50:25.803,eb:33:2e:f9:57:b5, 2015-01-01 00:14:35.030,-0.173,0.947,4.208,-686.768,-586.182,-63.721, , , , , , ,0.588,-4.411,-100.953
 13:50:25.803,eb:33:2e:f9:57:b5, 2015-01-01 00:14:35.030,-0.333,1.152,3.761,-660.583,-600.769,-35.889, , , , , , ,-2.747,-7.377,-101.14
 13:50:25.803,eb:33:2e:f9:57:b5, 2015-01-01 00:14:35.030,-0.743,1.244,3.355,-633.118,-636.658,-10.62, , , , , , ,-5.988,-10.481,-101.003
 13:50:25.803,eb:33:2e:f9:57:b5, 2015-01-01 00:14:35.030,-0.93,1.245,2.833,-605.469,-694.397,12.634, , , , , , ,-9.316,-13.865,-100.53
 13:50:25.803,eb:33:2e:f9:57:b5, 2015-01-01 00:14:35.030,-1.168,1.254,2.515,-580.933,-756.165,46.082, , , , , , ,-12.513,-17.435,-99.63
 13:50:25.872,eb:33:2e:f9:57:b5, 2015-01-01 00:14:35.030,-1.286,1.441,2.653,-564.697,-800.354,78.735, , , , , , ,-15.809,-21.154,-98.3
 13:50:25.872,eb:33:2e:f9:57:b5, 2015-01-01 00:14:35.030,-1.413,1.794,3.332,-555.847,-818.604,124.512, , , , , , ,-19.341,-24.873,-96.416
 13:50:25.872,eb:33:2e:f9:57:b5, 2015-01-01 00:14:35.030,-1.636,2.247,4.605,-551.636,-803.467,180.969, , , , , , ,-23.384,-28.427,-93.884
 13:50:25.872,eb:33:2e:f9:57:b5, 2015-01-01 00:14:35.030,-1.9,3.059,6.433,-547.18,-746.338,234.375, , , , , , ,-27.647,-31.454,-90.851
 13:50:25.872,eb:33:2e:f9:57:b5, 2015-01-01 00:14:35.030,-2.102,4.308,8.19,-534.912,-658.752,278.015, , , , , , ,-32.184,-33.81,-87.468
 13:50:25.872,eb:33:2e:f9:57:b5, 2015-01-01 00:14:35.030,-2.099,5.902,9.489,-511.597,-555.298,302.734, , , , , , ,-36.799,-35.436,-83.947
 13:50:25.872,eb:33:2e:f9:57:b5, 2015-01-01 00:14:35.030,-2.067,7.621,10.174,-477.173,-452.82,306.03, , , , , , ,-41.402,-36.398,-80.48
 13:50:25.872,eb:33:2e:f9:57:b5, 2015-01-01 00:14:35.030,-1.889,9.312,10.129,-419.861,-370.056,284.485, , , , , , ,-45.445,-36.848,-77.426
 13:50:25.894,eb:33:2e:f9:57:b5, 2015-01-01 00:14:35.030,-1.596,11.031,9.668,-348.999,-307.861,238.281, , , , , , ,-48.911,-37.024,-74.828
 13:50:25.894,eb:33:2e:f9:57:b5, 2015-01-01 00:14:35.030,-1.511,12.704,9.267,-262.573,-271.973,169.617, , , , , , ,-51.713,-37.167,-72.658
 13:50:25.895,eb:33:2e:f9:57:b5, 2015-01-01 00:14:35.030,-1.413,14.041,8.63,-167.969,-256.47,77.82, , , , , , ,-53.899,-37.48,-70.878
 13:50:25.895,eb:33:2e:f9:57:b5, 2015-01-01 00:14:35.030,-1.303,14.736,7.91,-79.468,-240.784,-28.076, , , , , , ,-55.283,-38.139,-69.543
 13:50:25.895,eb:33:2e:f9:57:b5, 2015-01-01 00:14:35.030,-1.431,14.865,7.288,-8.118,-210.938,-136.353, , , , , , ,-55.986,-39.15,-68.725
 13:50:25.895,eb:33:2e:f9:57:b5, 2015-01-01 00:14:35.030,-1.598,14.325,6.668,45.837,-165.161,-240.295, , , , , , ,-56.03,-40.496,-68.456
 13:50:25.896,eb:33:2e:f9:57:b5, 2015-01-01 00:14:35.030,-1.941,12.828,6.092,86.121,-107.544,-323.181, , , , , , ,-55.459,-42.061,-68.84
 13:50:25.896,eb:33:2e:f9:57:b5, 2015-01-01 00:14:35.030,-2.463,10.636,5.557,117.981,-51.392,-373.84, , , , , , ,-54.25,-43.731,-69.835
 13:50:25.939,eb:33:2e:f9:57:b5, 2015-01-01 00:14:35.030,-2.957,8.198,4.938,148.865,-6.042,-387.085, , , , , , ,-52.531,-45.341,-71.34
 13:50:25.939,eb:33:2e:f9:57:b5, 2015-01-01 00:14:35.030,-3.889,5.871,4.433,183.289,31.677,-368.103, , , , , , ,-50.389,-46.769,-73.136
 13:50:25.939,eb:33:2e:f9:57:b5, 2015-01-01 00:14:35.030,-5.211,4.291,5.279,453.552,379.028,-427.734, , , , , , ,-47.098,-47.659,-75.74
 13:50:25.939,eb:33:2e:f9:57:b5, 2015-01-01 00:14:35.030,-0.655,-2.825,8.856,1239.075,150.085,-510.681, , , , , , ,-38.573,-47.675,-80.854
 13:50:25.939,eb:33:2e:f9:57:b5, 2015-01-01 00:14:35.030,10.995,8.163,5.729,975.22,-297.729,-1465.82, , , , , , ,-26.499,-49.763,-89.291
 13:50:25.939,eb:33:2e:f9:57:b5, 2015-01-01 00:14:35.030,2.07,11.091,5.581,327.026,1397.156,-794.617, , , , , , ,-16.727,-47.346,-98.613
 13:50:25.939,eb:33:2e:f9:57:b5, 2015-01-01 00:14:35.030,-8.253,-2.398,2.977,219.36,981.14,-24.109, , , , , , ,-12.233,-41.792,-103.299
 13:50:25.939,eb:33:2e:f9:57:b5, 2015-01-01 00:14:35.030,-7.56,-2.835,-0.599,244.507,743.652,99.915, , , , , , ,-10.953,-37.634,-103.491
 13:50:25.961,eb:33:2e:f9:57:b5, 2015-01-01 00:14:35.030,-5.695,1.529,-4.707,140.076,382.08,42.48, , , , , , ,-9.811,-34.926,-103.854
 13:50:25.961,eb:33:2e:f9:57:b5, 2015-01-01 00:14:35.030,-1.306,0.076,-0.652,119.263,220.093,-40.649, , , , , , ,-8.992,-33.404,-104.233
 13:50:25.961,eb:33:2e:f9:57:b5, 2015-01-01 00:14:35.030,0.631,-1.851,1.009,140.564,148.315,7.507, , , , , , ,-8.097,-32.514,-104.617
 13:50:25.961,eb:33:2e:f9:57:b5, 2015-01-01 00:14:35.030,0.332,-0.181,0.86,153.564,137.329,136.841, , , , , , ,-7.586,-31.75,-104.189
 13:50:25.961,eb:33:2e:f9:57:b5, 2015-01-01 00:14:35.030,0.794,-0.342,1.225,174.805,132.019,157.471, , , , , , ,-7.185,-30.948,-103.387
 13:50:25.961,eb:33:2e:f9:57:b5, 2015-01-01 00:14:35.030,-0.1,1.632,0.795,172.424,127.136,56.274, , , , , , ,-6.559,-30.284,-102.859
 13:50:25.961,eb:33:2e:f9:57:b5, 2015-01-01 00:14:35.030,-2.804,1.088,0.988,164.917,119.202,-2.197, , , , , , ,-5.685,-29.641,-102.931
 13:50:25.961,eb:33:2e:f9:57:b5, 2015-01-01 00:14:35.030,-1.109,-1.574,0.691,163.513,74.402,69.397, , , , , , ,-4.949,-29.13,-102.766
 13:50:26.007,eb:33:2e:f9:57:b5, 2015-01-01 00:14:35.030,0.042,-0.222,0.228,167.175,26.062,72.693, , , , , , ,-4.329,-28.883,-102.343
 13:50:26.007,eb:33:2e:f9:57:b5, 2015-01-01 00:14:35.030,0.024,0.375,1.776,165.161,40.039,43.335, , , , , , ,-3.62,-28.707,-102.074
 13:50:26.007,eb:33:2e:f9:57:b5, 2015-01-01 00:14:35.030,1.116,0.493,1.66,150.024,57.556,63.538, , , , , , ,-2.955,-28.4,-101.843
 13:50:26.007,eb:33:2e:f9:57:b5, 2015-01-01 00:14:35.030,-0.105,0.508,2.593,166.016,82.764,30.579, , , , , , ,-2.291,-28.015,-101.591
 13:50:26.007,eb:33:2e:f9:57:b5, 2015-01-01 00:14:35.030,-2.569,-0.157,2.571,200.256,55.664,-0.244, , , , , , ,-1.368,-27.642,-101.585
 13:50:26.007,eb:33:2e:f9:57:b5, 2015-01-01 00:14:35.030,-2.146,-1.128,2.193,222.534,4.822,40.1, , , , , , ,-0.346,-27.526,-101.47
 13:50:26.008,eb:33:2e:f9:57:b5, 2015-01-01 00:14:35.030,-0.334,-1.056,2.732,240.967,-22.766,82.764, , , , , , ,0.659,-27.554,-101.146
 13:50:26.008,eb:33:2e:f9:57:b5, 2015-01-01 00:14:35.030,0.773,-0.046,3.89,292.358,-35.522,78.796, , , , , , ,1.785,-27.697,-100.679
 13:50:26.096,eb:33:2e:f9:57:b5, 2015-01-01 00:14:35.030,0.506,-0.553,5.543,365.601,-55.42,60.73, , , , , , ,3.296,-27.955,-100.322
 13:50:26.096,eb:33:2e:f9:57:b5, 2015-01-01 00:14:35.030,-0.05,-1.346,7.019,466.064,-62.805,51.636, , , , , , ,5.295,-28.262,-100.047
 13:50:26.096,eb:33:2e:f9:57:b5, 2015-01-01 00:14:35.030,0.767,-2.127,8.715,572.998,-26.672,37.231, , , , , , ,7.855,-28.455,-99.904
 13:50:26.096,eb:33:2e:f9:57:b5, 2015-01-01 00:14:35.030,2.558,-3.138,10.555,688.171,69.58,20.996, , , , , , ,10.981,-28.339,-99.717
 13:50:26.096,eb:33:2e:f9:57:b5, 2015-01-01 00:14:35.030,4.322,-3.456,11.499,795.41,193.726,0.427, , , , , , ,14.639,-27.642,-99.492
 13:50:26.096,eb:33:2e:f9:57:b5, 2015-01-01 00:14:35.030,4.1,-2.589,11.081,913.025,283.386,-18.066, , , , , , ,18.809,-26.461,-99.163
 13:50:26.096,eb:33:2e:f9:57:b5, 2015-01-01 00:14:35.030,3.513,-2.247,13.685,1014.587,536.926,-15.198, , , , , , ,23.39,-24.434,-98.47
 13:50:26.096,eb:33:2e:f9:57:b5, 2015-01-01 00:14:35.030,3.327,-1.902,14.234,1045.166,773.193,39.124, , , , , , ,27.872,-21.352,-96.735
 13:50:26.118,eb:33:2e:f9:57:b5, 2015-01-01 00:14:35.455,2.366,-0.278,12.138,1069.092,800.903,28.687, , , , , , ,32.415,-17.809,-94.433
 13:50:26.118,eb:33:2e:f9:57:b5, 2015-01-01 00:14:35.455,2.596,1.661,7.758,1021.179,611.572,30.396, , , , , , ,37.035,-15.024,-92.247
 13:50:26.118,eb:33:2e:f9:57:b5, 2015-01-01 00:14:35.455,2.86,2.759,3.604,807.007,352.234,36.865, , , , , , ,41.171,-13.359,-90.714
 13:50:26.118,eb:33:2e:f9:57:b5, 2015-01-01 00:14:35.455,2.379,-0.144,-0.31,538.33,206.787,112.61, , , , , , ,44.094,-12.662,-89.522
 13:50:26.118,eb:33:2e:f9:57:b5, 2015-01-01 00:14:35.455,0.99,0.484,1.703,445.129,227.844,171.57, , , , , , ,46.181,-12.448,-88.264
 13:50:26.118,eb:33:2e:f9:57:b5, 2015-01-01 00:14:35.455,0.265,0.886,5.995,535.461,264.038,237.183, , , , , , ,48.296,-12.475,-86.506
 13:50:26.118,eb:33:2e:f9:57:b5, 2015-01-01 00:14:35.455,0.671,3.189,5.324,551.819,160.095,226.929, , , , , , ,50.702,-12.552,-84.935
 13:50:26.119,eb:33:2e:f9:57:b5, 2015-01-01 00:14:35.455,0.948,2.284,7.356,496.521,68.481,199.707, , , , , , ,53.031,-13.09,-83.864
 13:50:26.164,eb:33:2e:f9:57:b5, 2015-01-01 00:14:35.455,1.057,0.377,7.127,517.578,-2.686,177.612, , , , , , ,55.421,-13.804,-83.188
 13:50:26.164,eb:33:2e:f9:57:b5, 2015-01-01 00:14:35.455,1.174,0.408,7.21,532.532,-20.02,115.54, , , , , , ,57.969,-14.42,-82.853
 13:50:26.164,eb:33:2e:f9:57:b5, 2015-01-01 00:14:35.455,1.266,0.31,8.779,556.03,2.686,27.283, , , , , , ,60.634,-14.667,-82.76
 13:50:26.164,eb:33:2e:f9:57:b5, 2015-01-01 00:14:35.455,1.653,-0.036,9.8,576.721,36.377,-55.115, , , , , , ,63.468,-14.518,-82.705
 13:50:26.164,eb:33:2e:f9:57:b5, 2015-01-01 00:14:35.455,1.846,-0.683,10.053,583.252,74.158,-142.151, , , , , , ,66.363,-13.898,-82.65
 13:50:26.164,eb:33:2e:f9:57:b5, 2015-01-01 00:14:35.455,1.906,-1.408,9.322,571.35,112,-219.971, , , , , , ,69.23,-12.838,-82.551
 13:50:26.164,eb:33:2e:f9:57:b5, 2015-01-01 00:14:35.455,1.932,-2.049,8.643,541.748,143.066,-284.973, , , , , , ,71.9,-11.338,-82.392
 13:50:26.164,eb:33:2e:f9:57:b5, 2015-01-01 00:14:35.455,1.902,-2.562,8.289,501.221,167.847,-343.933, , , , , , ,74.432,-9.569,-82.09
 13:50:26.186,eb:33:2e:f9:57:b5, 2015-01-01 00:14:35.455,1.888,-2.889,7.742,456.482,180.969,-392.212, , , , , , ,76.745,-7.537,-81.672
 13:50:26.186,eb:33:2e:f9:57:b5, 2015-01-01 00:14:35.455,1.786,-3.195,7.134,411.377,184.814,-428.406, , , , , , ,78.838,-5.306,-81.205
 13:50:26.186,eb:33:2e:f9:57:b5, 2015-01-01 00:14:35.455,1.623,-3.703,6.643,369.446,174.927,-445.618, , , , , , ,80.64,-2.928,-80.744
 13:50:26.186,eb:33:2e:f9:57:b5, 2015-01-01 00:14:35.455,1.469,-4.26,6.276,329.651,161.499,-446.472, , , , , , ,82.354,-0.593,-80.25
 13:50:26.186,eb:33:2e:f9:57:b5, 2015-01-01 00:14:35.455,1.274,-4.659,5.895,288.818,148.804,-426.636, , , , , , ,83.886,1.659,-79.733
 13:50:26.186,eb:33:2e:f9:57:b5, 2015-01-01 00:14:35.455,1.017,-4.86,5.479,244.69,138.367,-388.489, , , , , , ,85.221,3.741,-79.217
 13:50:26.186,eb:33:2e:f9:57:b5, 2015-01-01 00:14:35.455,0.823,-4.999,5.099,197.449,133.789,-337.28, , , , , , ,86.237,5.625,-78.723
 13:50:26.186,eb:33:2e:f9:57:b5, 2015-01-01 00:14:35.455,0.741,-5.14,4.831,150.024,134.705,-276.001, , , , , , ,87.149,7.169,-78.135
 13:50:26.209,eb:33:2e:f9:57:b5, 2015-01-01 00:14:35.455,0.752,-5.243,4.683,104.37,142.09,-211.365, , , , , , ,87.847,8.388,-77.47
 13:50:26.209,eb:33:2e:f9:57:b5, 2015-01-01 00:14:35.455,0.895,-5.342,4.497,61.646,154.663,-145.386, , , , , , ,88.352,9.267,-76.745
 13:50:26.209,eb:33:2e:f9:57:b5, 2015-01-01 00:14:35.455,1.161,-5.381,4.329,20.935,171.326,-85.144, , , , , , ,88.55,9.882,-75.992
 13:50:26.209,eb:33:2e:f9:57:b5, 2015-01-01 00:14:35.455,1.43,-5.303,4.014,-19.653,183.533,-34.912, , , , , , ,88.687,10.179,-75.086
 13:50:26.209,eb:33:2e:f9:57:b5, 2015-01-01 00:14:35.455,1.555,-5.18,3.337,-62.317,184.509,4.272, , , , , , ,88.632,10.25,-74.13
 13:50:26.210,eb:33:2e:f9:57:b5, 2015-01-01 00:14:35.455,1.537,-5.143,2.143,-110.168,160.828,34.79, , , , , , ,88.336,10.157,-73.251
 13:50:26.210,eb:33:2e:f9:57:b5, 2015-01-01 00:14:35.455,1.553,-5.318,0.536,-172.058,117.493,64.27, , , , , , ,87.594,9.976,-72.625
 13:50:26.210,eb:33:2e:f9:57:b5, 2015-01-01 00:14:35.455,1.946,-5.666,-0.962,-254.944,64.026,94.482, , , , , , ,86.572,9.586,-72.169
 13:50:26.252,eb:33:2e:f9:57:b5, 2015-01-01 00:14:35.455,2.415,-5.831,-1.597,-355.957,13.611,117.798, , , , , , ,85.034,9.047,-71.944
 13:50:26.252,eb:33:2e:f9:57:b5, 2015-01-01 00:14:35.455,2.765,-5.487,-1.224,-461.975,-28.809,116.15, , , , , , ,82.936,8.454,-71.944
 13:50:26.252,eb:33:2e:f9:57:b5, 2015-01-01 00:14:35.455,2.905,-4.841,-0.642,-563.843,-63.049,93.14, , , , , , ,80.167,7.954,-72.191
 13:50:26.252,eb:33:2e:f9:57:b5, 2015-01-01 00:14:35.455,3.121,-4.243,-0.314,-657.104,-90.149,62.622, , , , , , ,77.02,7.504,-72.51
 13:50:26.252,eb:33:2e:f9:57:b5, 2015-01-01 00:14:35.455,3.217,-3.734,-0.05,-741.943,-116.272,23.987, , , , , , ,73.416,7.174,-72.96
 13:50:26.252,eb:33:2e:f9:57:b5, 2015-01-01 00:14:35.455,3.095,-3.295,0.317,-811.096,-145.203,-17.09, , , , , , ,69.417,6.971,-73.597
 13:50:26.252,eb:33:2e:f9:57:b5, 2015-01-01 00:14:35.455,3.108,-2.962,0.965,-864.807,-172.607,-58.96, , , , , , ,64.957,6.883,-74.509
 13:50:26.252,eb:33:2e:f9:57:b5, 2015-01-01 00:14:35.455,2.947,-2.693,1.728,-901.184,-209.961,-90.759, , , , , , ,60.397,6.779,-75.564
 13:50:26.298,eb:33:2e:f9:57:b5, 2015-01-01 00:14:35.455,2.863,-2.306,2.706,-929.993,-241.211,-131.165, , , , , , ,55.651,6.663,-76.838
 13:50:26.298,eb:33:2e:f9:57:b5, 2015-01-01 00:14:35.455,2.562,-1.871,3.47,-954.163,-272.034,-162.903, , , , , , ,50.751,6.487,-78.338
 13:50:26.298,eb:33:2e:f9:57:b5, 2015-01-01 00:14:35.455,2.26,-1.453,4.07,-970.398,-316.467,-188.843, , , , , , ,45.599,6.18,-80.123
 13:50:26.298,eb:33:2e:f9:57:b5, 2015-01-01 00:14:35.455,2.144,-1.17,4.667,-977.295,-372.498,-210.632, , , , , , ,40.523,5.598,-82.062
 13:50:26.298,eb:33:2e:f9:57:b5, 2015-01-01 00:14:35.455,2.162,-0.949,5.309,-974.976,-429.993,-227.539, , , , , , ,35.447,4.675,-84.194
 13:50:26.298,eb:33:2e:f9:57:b5, 2015-01-01 00:14:35.455,2.147,-0.674,5.902,-966.858,-474.609,-239.197, , , , , , ,30.432,3.395,-86.429
 13:50:26.298,eb:33:2e:f9:57:b5, 2015-01-01 00:14:35.455,2.046,-0.236,6.566,-947.266,-501.526,-254.639, , , , , , ,25.395,1.78,-88.737
 13:50:26.298,eb:33:2e:f9:57:b5, 2015-01-01 00:14:35.455,1.49,0.215,6.797,-918.884,-516.357,-262.878, , , , , , ,20.709,-0.049,-90.928
 13:50:26.321,eb:33:2e:f9:57:b5, 2015-01-01 00:14:35.455,1.047,0.543,6.423,-881.775,-539.673,-258.728, , , , , , ,16.265,-2.153,-93.016
 13:50:26.321,eb:33:2e:f9:57:b5, 2015-01-01 00:14:35.455,0.758,0.716,6.17,-839.722,-553.955,-244.324, , , , , , ,12.085,-4.499,-94.911
 13:50:26.321,eb:33:2e:f9:57:b5, 2015-01-01 00:14:35.455,0.582,0.56,5.921,-794.434,-567.993,-220.276, , , , , , ,8.036,-7.119,-96.559
 13:50:26.321,eb:33:2e:f9:57:b5, 2015-01-01 00:14:35.455,0.305,0.363,5.537,-753.113,-572.51,-192.627, , , , , , ,4.384,-9.844,-97.899
 13:50:26.321,eb:33:2e:f9:57:b5, 2015-01-01 00:14:35.455,0.344,0.083,4.728,-713.318,-581.238,-157.593, , , , , , ,0.939,-12.689,-98.921
 13:50:26.321,eb:33:2e:f9:57:b5, 2015-01-01 00:14:35.455,0.381,0.003,4.041,-680.237,-593.506,-118.958, , , , , , ,-2.362,-15.634,-99.58
 13:50:26.321,eb:33:2e:f9:57:b5, 2015-01-01 00:14:35.455,0.302,0.122,3.703,-655.334,-609.741,-84.961, , , , , , ,-5.757,-18.732,-99.86
 13:50:26.321,eb:33:2e:f9:57:b5, 2015-01-01 00:14:35.455,0.041,0.228,3.422,-632.141,-641.602,-49.805, , , , , , ,-8.998,-21.879,-99.767
 13:50:26.388,eb:33:2e:f9:57:b5, 2015-01-01 00:14:35.455,-0.19,0.253,3.115,-608.398,-692.383,-19.653, , , , , , ,-12.294,-25.192,-99.283
 13:50:26.388,eb:33:2e:f9:57:b5, 2015-01-01 00:14:35.455,-0.44,0.229,2.829,-582.764,-757.202,16.113, , , , , , ,-15.716,-28.735,-98.278
 13:50:26.388,eb:33:2e:f9:57:b5, 2015-01-01 00:14:35.455,-0.546,0.258,2.814,-557.495,-823.486,62.073, , , , , , ,-19.567,-32.514,-96.581
 13:50:26.388,eb:33:2e:f9:57:b5, 2015-01-01 00:14:35.455,-0.639,0.496,3.514,-536.438,-871.155,114.197, , , , , , ,-23.665,-36.31,-94.153
 13:50:26.388,eb:33:2e:f9:57:b5, 2015-01-01 00:14:35.455,-0.755,0.949,4.797,-520.813,-889.404,175.049, , , , , , ,-28.35,-39.952,-90.857
 13:50:26.388,eb:33:2e:f9:57:b5, 2015-01-01 00:14:35.455,-0.963,1.505,6.539,-510.925,-872.07,241.15, , , , , , ,-33.755,-43.176,-86.594
 13:50:26.388,eb:33:2e:f9:57:b5, 2015-01-01 00:14:35.455,-1.071,2.413,8.504,-506.958,-801.086,294.983, , , , , , ,-40.029,-45.687,-81.442
 13:50:26.389,eb:33:2e:f9:57:b5, 2015-01-01 00:14:35.455,-1.297,3.849,10.269,-505.798,-689.209,333.496, , , , , , ,-46.45,-47.274,-76.091
 13:50:26.455,eb:33:2e:f9:57:b5, 2015-01-01 00:14:35.455,-1.472,5.841,11.479,-498.962,-566.65,344.055, , , , , , ,-52.74,-47.961,-71.01
 13:50:26.455,eb:33:2e:f9:57:b5, 2015-01-01 00:14:35.455,-1.583,7.973,11.798,-478.088,-452.82,326.355, , , , , , ,-58.508,-47.983,-66.528
 13:50:26.455,eb:33:2e:f9:57:b5, 2015-01-01 00:14:35.455,-1.756,9.985,11.504,-427.368,-371.704,283.203, , , , , , ,-63.627,-47.571,-62.765
 13:50:26.455,eb:33:2e:f9:57:b5, 2015-01-01 00:14:35.455,-2.023,11.724,11.042,-347.229,-326.538,216.064, , , , , , ,-67.775,-47.153,-59.722
 13:50:26.455,eb:33:2e:f9:57:b5, 2015-01-01 00:14:35.455,-2.202,12.984,10.35,-245.789,-302.612,126.465, , , , , , ,-71.076,-46.928,-57.206
 13:50:26.455,eb:33:2e:f9:57:b5, 2015-01-01 00:14:35.455,-2.094,13.75,9.491,-148.499,-268.311,19.531, , , , , , ,-73.559,-47.06,-55.08
 13:50:26.455,eb:33:2e:f9:57:b5, 2015-01-01 00:14:35.455,-1.924,14.112,8.664,-76.233,-204.651,-90.881, , , , , , ,-75.256,-47.543,-53.542
 13:50:26.455,eb:33:2e:f9:57:b5, 2015-01-01 00:14:35.455,-1.771,14.046,7.852,-33.508,-111.45,-199.707, , , , , , ,-76.091,-48.494,-52.745
 13:50:26.502,eb:33:2e:f9:57:b5, 2015-01-01 00:14:35.455,-1.831,13.128,6.938,-9.155,-12.573,-293.152, , , , , , ,-76.108,-49.801,-52.872
 13:50:26.502,eb:33:2e:f9:57:b5, 2015-01-01 00:14:35.455,-2.182,11.357,6.059,15.503,68.909,-356.201, , , , , , ,-75.35,-51.372,-53.817
 13:50:26.502,eb:33:2e:f9:57:b5, 2015-01-01 00:14:35.455,-2.625,9.149,5.322,53.04,118.469,-381.592, , , , , , ,-73.861,-53.015,-55.508
 13:50:26.502,eb:33:2e:f9:57:b5, 2015-01-01 00:14:35.455,-3.096,6.937,4.664,104.126,138.855,-371.216, , , , , , ,-71.818,-54.63,-57.53
 13:50:26.502,eb:33:2e:f9:57:b5, 2015-01-01 00:14:35.455,-3.631,4.899,4.118,165.771,132.202,-333.313, , , , , , ,-69.351,-56.041,-59.705
 13:50:26.502,eb:33:2e:f9:57:b5, 2015-01-01 00:14:35.455,-5.273,6.021,9.429,757.507,717.773,-477.539, , , , , , ,-63.188,-56.909,-64.451
 13:50:26.502,eb:33:2e:f9:57:b5, 2015-01-01 00:14:35.455,9.456,3.49,-1.021,1231.506,278.625,-874.146, , , , , , ,-53.218,-58.414,-69.571
 13:50:26.502,eb:33:2e:f9:57:b5, 2015-01-01 00:14:35.455,8.283,11.447,8.901,660.4,741.333,-999.023, , , , , , ,-38.112,-61.15,-81.552
 13:50:26.546,eb:33:2e:f9:57:b5, 2015-01-01 00:14:35.860,-6.117,5.312,2.795,409.485,1345.825,-535.461, , , , , , ,-24.884,-57.568,-94.158
 13:50:26.546,eb:33:2e:f9:57:b5, 2015-01-01 00:14:35.860,-7.349,-2.582,1.619,334.595,709.717,349.731, , , , , , ,-21.566,-53.52,-95.982
 13:50:26.546,eb:33:2e:f9:57:b5, 2015-01-01 00:14:35.860,-6.403,-2.524,-0.029,312.988,682.434,105.713, , , , , , ,-19.655,-49.68,-96.449
 13:50:26.546,eb:33:2e:f9:57:b5, 2015-01-01 00:14:35.860,-4.896,3.184,-3.582,222.595,343.75,57.312, , , , , , ,-17.908,-47.324,-96.949
 13:50:26.546,eb:33:2e:f9:57:b5, 2015-01-01 00:14:35.860,-0.702,1.022,0.191,155.701,256.287,-50.293, , , , , , ,-16.523,-45.846,-97.663
 13:50:26.546,eb:33:2e:f9:57:b5, 2015-01-01 00:14:35.860,0.469,-0.961,0.847,148.376,216.064,21.423, , , , , , ,-15.348,-44.852,-98.234
 13:50:26.546,eb:33:2e:f9:57:b5, 2015-01-01 00:14:35.860,0.74,-0.248,0.919,159.058,206.299,140.32, , , , , , ,-14.777,-43.638,-97.987
 13:50:26.546,eb:33:2e:f9:57:b5, 2015-01-01 00:14:35.860,0.641,0.51,0.729,169.983,213.196,112.732, , , , , , ,-14.288,-42.424,-97.482
 13:50:26.569,eb:33:2e:f9:57:b5, 2015-01-01 00:14:35.860,-0.759,1.379,0.733,165.771,197.144,28.992, , , , , , ,-13.48,-41.325,-97.449
 13:50:26.569,eb:33:2e:f9:57:b5, 2015-01-01 00:14:35.860,-2.736,0.802,0.612,152.649,178.65,3.784, , , , , , ,-12.53,-40.424,-97.69
 13:50:26.569,eb:33:2e:f9:57:b5, 2015-01-01 00:14:35.860,-0.54,-1.432,0.384,142.944,124.084,57.983, , , , , , ,-11.755,-39.573,-97.795
 13:50:26.569,eb:33:2e:f9:57:b5, 2015-01-01 00:14:35.860,-0.185,0.092,0.261,148.071,75.684,53.711, , , , , , ,-11.212,-39.078,-97.504
 13:50:26.569,eb:33:2e:f9:57:b5, 2015-01-01 00:14:35.860,-0.208,-0.035,2.062,160.034,79.59,41.199, , , , , , ,-10.536,-38.639,-97.377
 13:50:26.569,eb:33:2e:f9:57:b5, 2015-01-01 00:14:35.860,0.87,0.488,1.855,157.654,71.655,67.81, , , , , , ,-9.904,-38.227,-97.103
 13:50:26.569,eb:33:2e:f9:57:b5, 2015-01-01 00:14:35.860,-0.197,0.356,2.716,165.039,96.741,47.913, , , , , , ,-9.229,-37.683,-96.927
 13:50:26.570,eb:33:2e:f9:57:b5, 2015-01-01 00:14:35.860,-2.06,-0.363,2.295,197.876,77.332,25.208, , , , , , ,-8.361,-37.194,-96.844
 13:50:26.591,eb:33:2e:f9:57:b5, 2015-01-01 00:14:35.860,-1.756,-0.768,1.484,219.971,8.789,56.641, , , , , , ,-7.438,-36.98,-96.647
 13:50:26.591,eb:33:2e:f9:57:b5, 2015-01-01 00:14:35.860,-0.466,-0.378,2.164,239.685,-33.142,82.031, , , , , , ,-6.564,-37.04,-96.169
 13:50:26.591,eb:33:2e:f9:57:b5, 2015-01-01 00:14:35.860,0.741,-0.023,3.11,265.991,-27.954,83.618, , , , , , ,-5.581,-37.095,-95.724
 13:50:26.591,eb:33:2e:f9:57:b5, 2015-01-01 00:14:35.860,0.092,-0.183,4.556,323.669,-40.161,68.909, , , , , , ,-4.378,-37.233,-95.235
 13:50:26.592,eb:33:2e:f9:57:b5, 2015-01-01 00:14:35.860,-0.978,-1.26,6.431,401.001,-23.132,59.937, , , , , , ,-2.774,-37.348,-94.878
 13:50:26.592,eb:33:2e:f9:57:b5, 2015-01-01 00:14:35.860,-0.447,-2.044,7.131,500.366,-3.296,54.199, , , , , , ,-0.698,-37.414,-94.504
 13:50:26.592,eb:33:2e:f9:57:b5, 2015-01-01 00:14:35.860,0.685,-2.415,7.982,591.98,46.021,50.598, , , , , , ,1.934,-37.2,-94.312
 13:50:26.592,eb:33:2e:f9:57:b5, 2015-01-01 00:14:35.860,1.484,-3.034,8.413,695.374,86.426,55.847, , , , , , ,4.977,-36.865,-93.933
 13:50:26.612,eb:33:2e:f9:57:b5, 2015-01-01 00:14:35.860,2.17,-3.334,8.586,790.283,112.305,38.391, , , , , , ,8.531,-36.348,-93.62
 13:50:26.612,eb:33:2e:f9:57:b5, 2015-01-01 00:14:35.860,2.075,-2.957,8.937,914.185,132.263,15.808, , , , , , ,12.678,-35.782,-93.323
 13:50:26.612,eb:33:2e:f9:57:b5, 2015-01-01 00:14:35.860,2.308,-3.425,12.213,1004.028,318.481,21.851, , , , , , ,17.303,-34.607,-92.972
 13:50:26.612,eb:33:2e:f9:57:b5, 2015-01-01 00:14:35.860,2.157,-4.533,14.369,1037.231,593.384,59.753, , , , , , ,21.769,-32.377,-91.774
 13:50:26.612,eb:33:2e:f9:57:b5, 2015-01-01 00:14:35.860,1.811,-2.895,12.49,1099.792,725.586,60.974, , , , , , ,26.136,-29.383,-89.813
 13:50:26.612,eb:33:2e:f9:57:b5, 2015-01-01 00:14:35.860,1.378,0.06,11.589,1121.399,727.478,46.387, , , , , , ,30.679,-26.301,-87.556
 13:50:26.612,eb:33:2e:f9:57:b5, 2015-01-01 00:14:35.860,2.114,0.523,7.697,970.825,570.862,43.396, , , , , , ,35.041,-23.593,-85.534
 13:50:26.612,eb:33:2e:f9:57:b5, 2015-01-01 00:14:35.860,2.432,3.154,0.906,677.002,381.775,29.785, , , , , , ,38.392,-21.918,-83.919
 13:50:26.659,eb:33:2e:f9:57:b5, 2015-01-01 00:14:35.860,2.316,-0.418,0.444,378.174,312.012,71.533, , , , , , ,40.331,-20.759,-82.601
 13:50:26.659,eb:33:2e:f9:57:b5, 2015-01-01 00:14:35.860,1.238,-5.175,2.764,307.251,387.024,253.418, , , , , , ,41.21,-20.028,-80.7
 13:50:26.659,eb:33:2e:f9:57:b5, 2015-01-01 00:14:35.860,0.708,-1.42,4.593,453.369,516.907,326.904, , , , , , ,42.237,-19.177,-77.882
 13:50:26.659,eb:33:2e:f9:57:b5, 2015-01-01 00:14:35.860,1.46,2.939,4.877,445.679,365.784,326.233, , , , , , ,43.61,-18.655,-74.954
 13:50:26.660,eb:33:2e:f9:57:b5, 2015-01-01 00:14:35.860,1.713,2.052,6.224,397.644,188.477,294.739, , , , , , ,44.973,-18.814,-72.823
 13:50:26.660,eb:33:2e:f9:57:b5, 2015-01-01 00:14:35.860,1.786,0.601,5.803,412.292,70.068,242.126, , , , , , ,46.549,-19.374,-71.417
 13:50:26.660,eb:33:2e:f9:57:b5, 2015-01-01 00:14:35.860,1.869,0.362,5.465,415.283,8.972,168.335, , , , , , ,48.356,-19.891,-70.675
 13:50:26.660,eb:33:2e:f9:57:b5, 2015-01-01 00:14:35.860,1.88,-0.135,6.663,427.673,-7.385,77.209, , , , , , ,50.328,-20.336,-70.291
 13:50:26.703,eb:33:2e:f9:57:b5, 2015-01-01 00:14:35.860,2.196,-0.35,7.76,449.402,-4.761,-18.494, , , , , , ,52.531,-20.402,-70.23
 13:50:26.703,eb:33:2e:f9:57:b5, 2015-01-01 00:14:35.860,2.467,-0.639,8.669,458.618,7.874,-120.667, , , , , , ,54.899,-20.078,-70.472
 13:50:26.703,eb:33:2e:f9:57:b5, 2015-01-01 00:14:35.860,2.29,-1.131,8.424,452.942,32.654,-222.351, , , , , , ,57.31,-19.149,-70.977
 13:50:26.703,eb:33:2e:f9:57:b5, 2015-01-01 00:14:35.860,2.048,-1.784,7.702,433.411,47.18,-309.57, , , , , , ,59.7,-17.864,-71.543
 13:50:26.703,eb:33:2e:f9:57:b5, 2015-01-01 00:14:35.860,1.812,-2.308,7.036,400.513,41.87,-384.033, , , , , , ,61.979,-16.188,-72.219
 13:50:26.703,eb:33:2e:f9:57:b5, 2015-01-01 00:14:35.860,1.722,-2.818,6.545,360.046,19.958,-443.726, , , , , , ,64.083,-14.238,-73.07
 13:50:26.703,eb:33:2e:f9:57:b5, 2015-01-01 00:14:35.860,1.656,-3.264,6.033,315.369,-10.986,-485.718, , , , , , ,65.934,-12.014,-74.141
 13:50:26.703,eb:33:2e:f9:57:b5, 2015-01-01 00:14:35.860,1.472,-3.695,5.627,263.794,-31.738,-510.925, , , , , , ,67.571,-9.756,-75.267
 13:50:26.727,eb:33:2e:f9:57:b5, 2015-01-01 00:14:35.860,0.999,-4.245,5.151,204.468,-37.781,-507.08, , , , , , ,68.884,-7.443,-76.371
 13:50:26.727,eb:33:2e:f9:57:b5, 2015-01-01 00:14:35.860,0.603,-4.84,4.746,144.287,-37.537,-470.886, , , , , , ,69.84,-5.224,-77.415
 13:50:26.727,eb:33:2e:f9:57:b5, 2015-01-01 00:14:35.860,0.458,-5.197,4.525,87.158,-33.203,-411.133, , , , , , ,70.373,-3.153,-78.382
 13:50:26.727,eb:33:2e:f9:57:b5, 2015-01-01 00:14:35.860,0.382,-5.293,4.566,32.41,-18.677,-342.59, , , , , , ,70.67,-1.445,-79.124
 13:50:26.727,eb:33:2e:f9:57:b5, 2015-01-01 00:14:35.860,0.3,-5.333,4.604,-17.883,4.15,-268.311, , , , , , ,70.686,-0.044,-79.618
 13:50:26.727,eb:33:2e:f9:57:b5, 2015-01-01 00:14:35.860,0.412,-5.366,4.461,-65.918,30.334,-193.42, , , , , , ,70.45,1.038,-79.898
 13:50:26.727,eb:33:2e:f9:57:b5, 2015-01-01 00:14:35.860,0.629,-5.313,4.082,-114.563,52.246,-121.521, , , , , , ,69.862,1.89,-80.013
 13:50:26.728,eb:33:2e:f9:57:b5, 2015-01-01 00:14:35.860,0.866,-5.185,3.471,-162.72,64.697,-60.486, , , , , , ,69.153,2.39,-79.871
 13:50:26.771,eb:33:2e:f9:57:b5, 2015-01-01 00:14:35.860,0.934,-5.126,2.466,-208.679,55.237,-7.263, , , , , , ,68.209,2.637,-79.618
 13:50:26.771,eb:33:2e:f9:57:b5, 2015-01-01 00:14:35.860,0.996,-5.254,1.166,-255.737,17.517,42.297, , , , , , ,67.033,2.598,-79.415
 13:50:26.771,eb:33:2e:f9:57:b5, 2015-01-01 00:14:35.860,1.206,-5.491,-0.074,-310.608,-39.062,91.309, , , , , , ,65.479,2.302,-79.415
 13:50:26.771,eb:33:2e:f9:57:b5, 2015-01-01 00:14:35.860,1.514,-5.551,-0.713,-377.93,-97.778,135.071, , , , , , ,63.726,1.609,-79.497
 13:50:26.771,eb:33:2e:f9:57:b5, 2015-01-01 00:14:35.860,1.946,-5.196,-0.441,-453.613,-143.738,161.255, , , , , , ,61.6,0.648,-79.689
 13:50:26.771,eb:33:2e:f9:57:b5, 2015-01-01 00:14:35.860,2.134,-4.59,0.359,-535.034,-176.514,165.588, , , , , , ,59.09,-0.472,-80.002
 13:50:26.771,eb:33:2e:f9:57:b5, 2015-01-01 00:14:35.860,2.19,-3.866,1.077,-619.873,-188.538,147.583, , , , , , ,56.036,-1.566,-80.442
 13:50:26.771,eb:33:2e:f9:57:b5, 2015-01-01 00:14:35.860,2.274,-3.236,1.506,-703.857,-189.27,121.399, , , , , , ,52.701,-2.659,-80.821
 13:50:26.816,eb:33:2e:f9:57:b5, 2015-01-01 00:14:35.860,2.369,-2.698,1.81,-780.579,-188.171,90.271, , , , , , ,48.961,-3.647,-81.216
 13:50:26.816,eb:33:2e:f9:57:b5, 2015-01-01 00:14:35.860,2.462,-2.186,2.159,-850.403,-191.345,54.016, , , , , , ,44.874,-4.548,-81.672
 13:50:26.816,eb:33:2e:f9:57:b5, 2015-01-01 00:14:35.860,2.464,-1.656,2.615,-899.536,-199.097,7.996, , , , , , ,40.375,-5.317,-82.299
 13:50:26.816,eb:33:2e:f9:57:b5, 2015-01-01 00:14:35.860,2.385,-1.167,3.215,-929.443,-216.858,-47.424, , , , , , ,35.854,-6.064,-83.04
 13:50:26.816,eb:33:2e:f9:57:b5, 2015-01-01 00:14:35.860,2.151,-0.667,3.861,-942.078,-248.047,-99.976, , , , , , ,31.278,-6.823,-84.034
 13:50:26.816,eb:33:2e:f9:57:b5, 2015-01-01 00:14:35.860,1.918,-0.112,4.427,-937.561,-292.053,-151.794, , , , , , ,26.73,-7.701,-85.276
 13:50:26.816,eb:33:2e:f9:57:b5, 2015-01-01 00:14:35.860,1.63,0.2,4.924,-919.189,-346.313,-191.65, , , , , , ,22.154,-8.795,-86.803
 13:50:26.816,eb:33:2e:f9:57:b5, 2015-01-01 00:14:35.860,1.588,0.138,5.253,-894.592,-404.663,-220.886, , , , , , ,17.908,-10.228,-88.467
 13:50:26.860,eb:33:2e:f9:57:b5, 2015-01-01 00:14:36.240,1.692,-0.028,5.53,-868.896,-454.163,-248.535, , , , , , ,13.859,-11.997,-90.264
 13:50:26.860,eb:33:2e:f9:57:b5, 2015-01-01 00:14:36.240,1.691,-0.086,5.545,-851.807,-475.891,-263.733, , , , , , ,9.97,-14.019,-92.054
 13:50:26.860,eb:33:2e:f9:57:b5, 2015-01-01 00:14:36.240,1.407,-0.061,5.479,-833.435,-489.075,-272.217, , , , , , ,6.053,-16.221,-93.796
 13:50:26.860,eb:33:2e:f9:57:b5, 2015-01-01 00:14:36.240,1.114,-0.091,5.108,-812.5,-508.301,-266.907, , , , , , ,2.428,-18.616,-95.4
 13:50:26.860,eb:33:2e:f9:57:b5, 2015-01-01 00:14:36.240,0.665,-0.125,5.012,-791.382,-523.926,-252.502, , , , , , ,-1.082,-21.182,-96.839
 13:50:26.860,eb:33:2e:f9:57:b5, 2015-01-01 00:14:36.240,0.365,-0.264,4.877,-764.648,-544.067,-231.628, , , , , , ,-4.521,-23.912,-97.993
 13:50:26.860,eb:33:2e:f9:57:b5, 2015-01-01 00:14:36.240,0.227,-0.31,4.642,-735.046,-565.186,-208.984, , , , , , ,-8.064,-26.807,-98.828
 13:50:26.860,eb:33:2e:f9:57:b5, 2015-01-01 00:14:36.240,0.121,-0.451,4.159,-698.486,-600.647,-167.175, , , , , , ,-11.409,-29.839,-99.311
 13:50:26.906,eb:33:2e:f9:57:b5, 2015-01-01 00:14:36.240,-0.078,-0.51,3.818,-666.992,-634.46,-116.272, , , , , , ,-14.832,-33.014,-99.278
 13:50:26.906,eb:33:2e:f9:57:b5, 2015-01-01 00:14:36.240,-0.251,-0.495,3.855,-645.752,-658.936,-72.571, , , , , , ,-18.441,-36.249,-98.685
 13:50:26.906,eb:33:2e:f9:57:b5, 2015-01-01 00:14:36.240,-0.501,-0.475,4.322,-627.319,-685.608,-24.597, , , , , , ,-22.571,-39.479,-97.377
 13:50:26.906,eb:33:2e:f9:57:b5, 2015-01-01 00:14:36.240,-0.664,-0.415,4.819,-611.023,-712.83,19.592, , , , , , ,-26.96,-42.671,-95.394
 13:50:26.906,eb:33:2e:f9:57:b5, 2015-01-01 00:14:36.240,-0.919,-0.213,5.139,-594.421,-746.826,67.81, , , , , , ,-31.921,-45.731,-92.631
