Time,Device name,Chip Time(),Acceleration X(g),Acceleration Y(g),Acceleration Z(g),Angular velocity X(°/s),Angular velocity Y(°/s),Angular velocity Z(°/s),ShiftX(mm),ShiftY(mm),ShiftZ(mm),SpeedX(mm/s),SpeedY(mm/s),SpeedZ(mm/s),Angle X(°),Angle Y(°),Angle Z(°)
 13:54:30.339,eb:33:2e:f9:57:b5, 2015-01-01 00:18:37.965,-0.034,0.022,0.996,-0.122,0.122,0, , , , , , ,2.45,1.599,32.349
 13:54:30.339,eb:33:2e:f9:57:b5, 2015-01-01 00:18:37.965,-0.034,0.022,0.996,-0.122,0.061,0, , , , , , ,2.45,1.599,32.349
 13:54:30.339,eb:33:2e:f9:57:b5, 2015-01-01 00:18:37.965,-0.034,0.023,0.996,-0.122,0,0, , , , , , ,2.439,1.599,32.349
 13:54:30.340,eb:33:2e:f9:57:b5, 2015-01-01 00:18:37.965,-0.035,0.023,0.995,-0.122,0,0, , , , , , ,2.439,1.599,32.349
 13:54:30.340,eb:33:2e:f9:57:b5, 2015-01-01 00:18:37.965,-0.034,0.023,0.994,-0.183,-0.122,0, , , , , , ,2.439,1.599,32.349
 13:54:30.340,eb:33:2e:f9:57:b5, 2015-01-01 00:18:37.965,-0.034,0.024,0.994,-0.305,-0.183,0, , , , , , ,2.439,1.599,32.349
 13:54:30.340,eb:33:2e:f9:57:b5, 2015-01-01 00:18:37.965,-0.034,0.024,0.994,-0.427,-0.244,0, , , , , , ,2.433,1.604,32.349
 13:54:30.340,eb:33:2e:f9:57:b5, 2015-01-01 00:18:37.965,-0.033,0.022,0.995,-0.488,-0.244,0, , , , , , ,2.433,1.604,32.349
 13:54:30.385,eb:33:2e:f9:57:b5, 2015-01-01 00:18:37.965,-0.031,0.022,0.997,-0.366,-0.244,0, , , , , , ,2.433,1.604,32.349
 13:54:30.385,eb:33:2e:f9:57:b5, 2015-01-01 00:18:37.965,-0.031,0.021,1,-0.366,-0.183,0, , , , , , ,2.433,1.604,32.349
 13:54:30.385,eb:33:2e:f9:57:b5, 2015-01-01 00:18:37.965,-0.031,0.022,0.999,-0.366,-0.122,0.061, , , , , , ,2.428,1.604,32.349
 13:54:30.385,eb:33:2e:f9:57:b5, 2015-01-01 00:18:37.965,-0.03,0.021,1.001,-0.244,0,0.061, , , , , , ,2.428,1.604,32.349
 13:54:30.385,eb:33:2e:f9:57:b5, 2015-01-01 00:18:37.965,-0.029,0.021,1.005,-0.061,0.183,0.061, , , , , , ,2.428,1.604,32.349
 13:54:30.385,eb:33:2e:f9:57:b5, 2015-01-01 00:18:37.965,-0.033,0.02,1.003,0,0.366,0.061, , , , , , ,2.428,1.604,32.349
 13:54:30.385,eb:33:2e:f9:57:b5, 2015-01-01 00:18:37.965,-0.032,0.022,1,0.061,0.427,0.122, , , , , , ,2.422,1.604,32.349
 13:54:30.385,eb:33:2e:f9:57:b5, 2015-01-01 00:18:37.965,-0.032,0.021,1,0.122,0.427,0.122, , , , , , ,2.422,1.604,32.349
 13:54:30.429,eb:33:2e:f9:57:b5, 2015-01-01 00:18:37.965,-0.033,0.021,1.001,0.183,0.488,0.183, , , , , , ,2.422,1.604,32.349
 13:54:30.431,eb:33:2e:f9:57:b5, 2015-01-01 00:18:37.965,-0.033,0.021,1,0.305,0.488,0.244, , , , , , ,2.422,1.604,32.349
 13:54:30.431,eb:33:2e:f9:57:b5, 2015-01-01 00:18:37.965,-0.033,0.021,0.999,0.366,0.488,0.244, , , , , , ,2.417,1.604,32.349
 13:54:30.431,eb:33:2e:f9:57:b5, 2015-01-01 00:18:37.965,-0.033,0.023,0.998,0.305,0.61,0.244, , , , , , ,2.417,1.604,32.349
 13:54:30.431,eb:33:2e:f9:57:b5, 2015-01-01 00:18:37.965,-0.036,0.023,0.998,0.366,0.61,0.244, , , , , , ,2.417,1.604,32.349
 13:54:30.431,eb:33:2e:f9:57:b5, 2015-01-01 00:18:37.965,-0.034,0.022,0.997,0.305,0.488,0.244, , , , , , ,2.417,1.604,32.349
 13:54:30.431,eb:33:2e:f9:57:b5, 2015-01-01 00:18:37.965,-0.034,0.022,0.996,0.305,0.488,0.183, , , , , , ,2.406,1.609,32.349
 13:54:30.431,eb:33:2e:f9:57:b5, 2015-01-01 00:18:37.965,-0.033,0.023,0.995,0.244,0.366,0.244, , , , , , ,2.406,1.609,32.349
 13:54:30.475,eb:33:2e:f9:57:b5, 2015-01-01 00:18:37.965,-0.034,0.023,0.995,0.244,0.366,0.244, , , , , , ,2.406,1.609,32.349
 13:54:30.475,eb:33:2e:f9:57:b5, 2015-01-01 00:18:37.965,-0.035,0.023,0.995,0.183,0.366,0.183, , , , , , ,2.406,1.609,32.349
 13:54:30.475,eb:33:2e:f9:57:b5, 2015-01-01 00:18:37.965,-0.034,0.023,0.996,0.122,0.305,0.183, , , , , , ,2.401,1.609,32.349
 13:54:30.475,eb:33:2e:f9:57:b5, 2015-01-01 00:18:37.965,-0.034,0.023,0.996,0.061,0.244,0.183, , , , , , ,2.401,1.609,32.349
 13:54:30.475,eb:33:2e:f9:57:b5, 2015-01-01 00:18:37.965,-0.032,0.023,0.995,0,0.244,0.183, , , , , , ,2.401,1.609,32.349
 13:54:30.475,eb:33:2e:f9:57:b5, 2015-01-01 00:18:37.965,-0.031,0.023,0.998,0.061,0.244,0.183, , , , , , ,2.401,1.609,32.349
 13:54:30.475,eb:33:2e:f9:57:b5, 2015-01-01 00:18:37.965,-0.035,0.022,0.999,0.061,0.305,0.183, , , , , , ,2.395,1.609,32.349
 13:54:30.475,eb:33:2e:f9:57:b5, 2015-01-01 00:18:37.965,-0.034,0.021,0.998,0.061,0.244,0.183, , , , , , ,2.395,1.609,32.349
 13:54:30.497,eb:33:2e:f9:57:b5, 2015-01-01 00:18:37.965,-0.032,0.023,0.999,0.122,0.305,0.183, , , , , , ,2.395,1.609,32.349
 13:54:30.497,eb:33:2e:f9:57:b5, 2015-01-01 00:18:37.965,-0.033,0.022,1,0.244,0.427,0.183, , , , , , ,2.395,1.609,32.349
 13:54:30.497,eb:33:2e:f9:57:b5, 2015-01-01 00:18:37.965,-0.035,0.023,0.999,0.305,0.427,0.183, , , , , , ,2.39,1.615,32.349
 13:54:30.497,eb:33:2e:f9:57:b5, 2015-01-01 00:18:37.965,-0.037,0.022,0.997,0.305,0.427,0.183, , , , , , ,2.39,1.615,32.349
 13:54:30.497,eb:33:2e:f9:57:b5, 2015-01-01 00:18:37.965,-0.034,0.021,0.996,0.366,0.305,0.244, , , , , , ,2.39,1.615,32.349
 13:54:30.497,eb:33:2e:f9:57:b5, 2015-01-01 00:18:37.965,-0.034,0.022,0.999,0.427,0.305,0.244, , , , , , ,2.39,1.615,32.349
 13:54:30.497,eb:33:2e:f9:57:b5, 2015-01-01 00:18:37.965,-0.035,0.022,0.998,0.427,0.366,0.305, , , , , , ,2.384,1.615,32.349
 13:54:30.497,eb:33:2e:f9:57:b5, 2015-01-01 00:18:37.965,-0.035,0.024,0.996,0.427,0.305,0.183, , , , , , ,2.384,1.615,32.349
 13:54:30.542,eb:33:2e:f9:57:b5, 2015-01-01 00:18:37.965,-0.035,0.023,0.995,0.366,0.305,0.244, , , , , , ,2.384,1.615,32.349
 13:54:30.542,eb:33:2e:f9:57:b5, 2015-01-01 00:18:37.965,-0.034,0.023,0.996,0.366,0.183,0.183, , , , , , ,2.384,1.615,32.349
 13:54:30.542,eb:33:2e:f9:57:b5, 2015-01-01 00:18:37.965,-0.034,0.022,0.998,0.427,0.244,0.183, , , , , , ,2.379,1.615,32.349
 13:54:30.542,eb:33:2e:f9:57:b5, 2015-01-01 00:18:37.965,-0.033,0.023,0.998,0.427,0.244,0.183, , , , , , ,2.379,1.615,32.349
 13:54:30.542,eb:33:2e:f9:57:b5, 2015-01-01 00:18:37.965,-0.036,0.024,0.997,0.427,0.305,0.183, , , , , , ,2.379,1.615,32.349
 13:54:30.543,eb:33:2e:f9:57:b5, 2015-01-01 00:18:37.965,-0.038,0.023,0.995,0.366,0.305,0.183, , , , , , ,2.379,1.615,32.349
 13:54:30.543,eb:33:2e:f9:57:b5, 2015-01-01 00:18:37.965,-0.035,0.023,0.993,0.366,0.122,0.183, , , , , , ,2.368,1.62,32.349
 13:54:30.543,eb:33:2e:f9:57:b5, 2015-01-01 00:18:37.965,-0.033,0.024,0.994,0.244,0,0.244, , , , , , ,2.368,1.62,32.349
 13:54:30.631,eb:33:2e:f9:57:b5, 2015-01-01 00:18:37.965,-0.033,0.025,0.996,0.183,0,0.244, , , , , , ,2.368,1.62,32.349
 13:54:30.631,eb:33:2e:f9:57:b5, 2015-01-01 00:18:37.965,-0.034,0.024,0.996,0.183,0,0.122, , , , , , ,2.368,1.62,32.349
 13:54:30.631,eb:33:2e:f9:57:b5, 2015-01-01 00:18:37.965,-0.033,0.023,0.996,0.122,0,0.061, , , , , , ,2.362,1.62,32.349
 13:54:30.631,eb:33:2e:f9:57:b5, 2015-01-01 00:18:37.965,-0.033,0.024,0.996,0.061,0,0.061, , , , , , ,2.362,1.62,32.349
 13:54:30.631,eb:33:2e:f9:57:b5, 2015-01-01 00:18:37.965,-0.032,0.024,0.997,0.061,0,0, , , , , , ,2.362,1.62,32.349
 13:54:30.631,eb:33:2e:f9:57:b5, 2015-01-01 00:18:37.965,-0.035,0.024,0.997,0.061,0.061,0, , , , , , ,2.362,1.62,32.349
 13:54:30.631,eb:33:2e:f9:57:b5, 2015-01-01 00:18:37.965,-0.035,0.023,0.996,0,0,0.061, , , , , , ,2.357,1.62,32.349
 13:54:30.631,eb:33:2e:f9:57:b5, 2015-01-01 00:18:37.965,-0.03,0.024,0.995,0,-0.061,0, , , , , , ,2.357,1.62,32.349
 13:54:30.654,eb:33:2e:f9:57:b5, 2015-01-01 00:18:38.280,-0.033,0.023,1,0,0.122,0, , , , , , ,2.357,1.62,32.349
 13:54:30.654,eb:33:2e:f9:57:b5, 2015-01-01 00:18:38.280,-0.032,0.023,0.999,0,0.183,0.061, , , , , , ,2.357,1.62,32.349
 13:54:30.654,eb:33:2e:f9:57:b5, 2015-01-01 00:18:38.280,-0.033,0.023,0.999,0,0.305,0, , , , , , ,2.351,1.626,32.349
 13:54:30.654,eb:33:2e:f9:57:b5, 2015-01-01 00:18:38.280,-0.037,0.023,0.998,0.061,0.366,-0.061, , , , , , ,2.351,1.626,32.349
 13:54:30.654,eb:33:2e:f9:57:b5, 2015-01-01 00:18:38.280,-0.036,0.024,0.993,0,0.244,0, , , , , , ,2.351,1.626,32.349
 13:54:30.654,eb:33:2e:f9:57:b5, 2015-01-01 00:18:38.280,-0.036,0.024,0.995,-0.061,0.122,0, , , , , , ,2.351,1.626,32.349
 13:54:30.654,eb:33:2e:f9:57:b5, 2015-01-01 00:18:38.280,-0.036,0.023,0.994,-0.061,0,0, , , , , , ,2.346,1.626,32.349
 13:54:30.654,eb:33:2e:f9:57:b5, 2015-01-01 00:18:38.280,-0.035,0.024,0.993,-0.183,-0.061,0, , , , , , ,2.346,1.626,32.349
 13:54:30.701,eb:33:2e:f9:57:b5, 2015-01-01 00:18:38.280,-0.036,0.024,0.995,-0.244,-0.183,0, , , , , , ,2.346,1.626,32.349
 13:54:30.701,eb:33:2e:f9:57:b5, 2015-01-01 00:18:38.280,-0.037,0.024,0.994,-0.366,-0.305,0, , , , , , ,2.346,1.626,32.349
 13:54:30.702,eb:33:2e:f9:57:b5, 2015-01-01 00:18:38.280,-0.035,0.023,0.993,-0.366,-0.366,0, , , , , , ,2.34,1.631,32.349
 13:54:30.702,eb:33:2e:f9:57:b5, 2015-01-01 00:18:38.280,-0.033,0.024,0.994,-0.488,-0.488,0, , , , , , ,2.34,1.631,32.349
 13:54:30.702,eb:33:2e:f9:57:b5, 2015-01-01 00:18:38.280,-0.033,0.024,0.997,-0.427,-0.488,0, , , , , , ,2.34,1.631,32.349
 13:54:30.703,eb:33:2e:f9:57:b5, 2015-01-01 00:18:38.280,-0.034,0.023,0.998,-0.488,-0.427,0, , , , , , ,2.34,1.631,32.349
 13:54:30.703,eb:33:2e:f9:57:b5, 2015-01-01 00:18:38.280,-0.033,0.023,0.997,-0.488,-0.427,0, , , , , , ,2.335,1.631,32.349
 13:54:30.703,eb:33:2e:f9:57:b5, 2015-01-01 00:18:38.280,-0.03,0.024,0.997,-0.427,-0.366,0, , , , , , ,2.335,1.631,32.349
 13:54:30.722,eb:33:2e:f9:57:b5, 2015-01-01 00:18:38.280,-0.032,0.023,1.001,-0.427,-0.244,-0.061, , , , , , ,2.335,1.631,32.349
 13:54:30.722,eb:33:2e:f9:57:b5, 2015-01-01 00:18:38.280,-0.033,0.023,1,-0.427,-0.122,0, , , , , , ,2.335,1.631,32.349
 13:54:30.722,eb:33:2e:f9:57:b5, 2015-01-01 00:18:38.280,-0.032,0.022,1,-0.305,-0.061,0, , , , , , ,2.329,1.631,32.349
 13:54:30.722,eb:33:2e:f9:57:b5, 2015-01-01 00:18:38.280,-0.033,0.021,1.001,-0.244,0,0, , , , , , ,2.329,1.631,32.349
 13:54:30.722,eb:33:2e:f9:57:b5, 2015-01-01 00:18:38.280,-0.033,0.023,0.998,-0.244,0,0, , , , , , ,2.329,1.631,32.349
 13:54:30.722,eb:33:2e:f9:57:b5, 2015-01-01 00:18:38.280,-0.035,0.022,0.998,-0.244,0.061,0, , , , , , ,2.329,1.631,32.349
 13:54:30.722,eb:33:2e:f9:57:b5, 2015-01-01 00:18:38.280,-0.035,0.022,0.997,-0.244,0,0.061, , , , , , ,2.324,1.637,32.349
 13:54:30.722,eb:33:2e:f9:57:b5, 2015-01-01 00:18:38.280,-0.034,0.022,0.997,-0.183,-0.061,0.061, , , , , , ,2.324,1.637,32.349
 13:54:30.744,eb:33:2e:f9:57:b5, 2015-01-01 00:18:38.280,-0.034,0.022,0.998,-0.122,-0.061,0.061, , , , , , ,2.324,1.637,32.349
 13:54:30.744,eb:33:2e:f9:57:b5, 2015-01-01 00:18:38.280,-0.035,0.023,0.998,-0.061,-0.061,0.061, , , , , , ,2.324,1.637,32.349
 13:54:30.744,eb:33:2e:f9:57:b5, 2015-01-01 00:18:38.280,-0.036,0.023,0.996,-0.122,-0.122,0.061, , , , , , ,2.318,1.637,32.349
 13:54:30.744,eb:33:2e:f9:57:b5, 2015-01-01 00:18:38.280,-0.035,0.023,0.995,-0.244,-0.183,0, , , , , , ,2.318,1.637,32.349
 13:54:30.744,eb:33:2e:f9:57:b5, 2015-01-01 00:18:38.280,-0.034,0.023,0.995,-0.244,-0.244,0, , , , , , ,2.318,1.637,32.349
 13:54:30.744,eb:33:2e:f9:57:b5, 2015-01-01 00:18:38.280,-0.033,0.023,0.996,-0.244,-0.305,0.061, , , , , , ,2.318,1.637,32.349
 13:54:30.744,eb:33:2e:f9:57:b5, 2015-01-01 00:18:38.280,-0.035,0.023,0.996,-0.305,-0.305,0, , , , , , ,2.313,1.637,32.349
 13:54:30.744,eb:33:2e:f9:57:b5, 2015-01-01 00:18:38.280,-0.036,0.023,0.994,-0.366,-0.366,0.061, , , , , , ,2.313,1.637,32.349
 13:54:30.790,eb:33:2e:f9:57:b5, 2015-01-01 00:18:38.280,-0.037,0.023,0.992,-0.488,-0.427,0, , , , , , ,2.313,1.637,32.349
 13:54:30.790,eb:33:2e:f9:57:b5, 2015-01-01 00:18:38.280,-0.036,0.022,0.993,-0.549,-0.549,0, , , , , , ,2.313,1.637,32.349
 13:54:30.790,eb:33:2e:f9:57:b5, 2015-01-01 00:18:38.280,-0.035,0.023,0.994,-0.671,-0.671,0, , , , , , ,2.307,1.642,32.349
 13:54:30.790,eb:33:2e:f9:57:b5, 2015-01-01 00:18:38.280,-0.034,0.022,0.996,-0.671,-0.671,0.061, , , , , , ,2.307,1.642,32.349
 13:54:30.790,eb:33:2e:f9:57:b5, 2015-01-01 00:18:38.280,-0.031,0.021,0.999,-0.671,-0.671,0.122, , , , , , ,2.307,1.642,32.349
 13:54:30.790,eb:33:2e:f9:57:b5, 2015-01-01 00:18:38.280,-0.03,0.021,1.002,-0.549,-0.488,0.122, , , , , , ,2.307,1.642,32.349
 13:54:30.790,eb:33:2e:f9:57:b5, 2015-01-01 00:18:38.280,-0.032,0.022,1.002,-0.427,-0.366,0.122, , , , , , ,2.302,1.642,32.349
 13:54:30.790,eb:33:2e:f9:57:b5, 2015-01-01 00:18:38.280,-0.034,0.021,1.002,-0.366,-0.305,0.061, , , , , , ,2.302,1.642,32.349
 13:54:30.836,eb:33:2e:f9:57:b5, 2015-01-01 00:18:38.280,-0.035,0.022,1,-0.305,-0.183,0.061, , , , , , ,2.302,1.642,32.349
 13:54:30.836,eb:33:2e:f9:57:b5, 2015-01-01 00:18:38.280,-0.033,0.021,0.999,-0.305,-0.244,0.061, , , , , , ,2.302,1.642,32.349
 13:54:30.836,eb:33:2e:f9:57:b5, 2015-01-01 00:18:38.280,-0.033,0.022,0.999,-0.305,-0.244,0.122, , , , , , ,2.296,1.642,32.349
 13:54:30.836,eb:33:2e:f9:57:b5, 2015-01-01 00:18:38.280,-0.032,0.022,0.997,-0.305,-0.183,0.061, , , , , , ,2.296,1.642,32.349
 13:54:30.836,eb:33:2e:f9:57:b5, 2015-01-01 00:18:38.280,-0.032,0.023,0.998,-0.244,-0.122,0.122, , , , , , ,2.296,1.642,32.349
 13:54:30.836,eb:33:2e:f9:57:b5, 2015-01-01 00:18:38.280,-0.034,0.022,0.997,-0.244,-0.122,0.122, , , , , , ,2.296,1.642,32.349
 13:54:30.836,eb:33:2e:f9:57:b5, 2015-01-01 00:18:38.280,-0.035,0.022,0.996,-0.244,-0.122,0.061, , , , , , ,2.291,1.648,32.349
 13:54:30.836,eb:33:2e:f9:57:b5, 2015-01-01 00:18:38.280,-0.034,0.022,0.995,-0.244,-0.183,0.061, , , , , , ,2.291,1.648,32.349
 13:54:30.858,eb:33:2e:f9:57:b5, 2015-01-01 00:18:38.280,-0.034,0.022,0.995,-0.305,-0.183,0, , , , , , ,2.291,1.648,32.349
 13:54:30.858,eb:33:2e:f9:57:b5, 2015-01-01 00:18:38.280,-0.034,0.022,0.995,-0.305,-0.244,0, , , , , , ,2.291,1.648,32.349
 13:54:30.858,eb:33:2e:f9:57:b5, 2015-01-01 00:18:38.280,-0.033,0.022,0.996,-0.366,-0.305,0, , , , , , ,2.285,1.648,32.349
 13:54:30.858,eb:33:2e:f9:57:b5, 2015-01-01 00:18:38.280,-0.033,0.021,0.998,-0.427,-0.305,0, , , , , , ,2.285,1.648,32.349
 13:54:30.858,eb:33:2e:f9:57:b5, 2015-01-01 00:18:38.280,-0.034,0.022,0.997,-0.427,-0.305,0, , , , , , ,2.285,1.648,32.349
 13:54:30.858,eb:33:2e:f9:57:b5, 2015-01-01 00:18:38.280,-0.035,0.022,0.995,-0.427,-0.427,0, , , , , , ,2.285,1.648,32.349
 13:54:30.858,eb:33:2e:f9:57:b5, 2015-01-01 00:18:38.280,-0.033,0.022,0.995,-0.427,-0.488,0, , , , , , ,2.28,1.648,32.349
 13:54:30.858,eb:33:2e:f9:57:b5, 2015-01-01 00:18:38.280,-0.032,0.021,0.998,-0.427,-0.488,0, , , , , , ,2.28,1.648,32.349
 13:54:30.904,eb:33:2e:f9:57:b5, 2015-01-01 00:18:38.280,-0.032,0.021,0.999,-0.366,-0.366,0, , , , , , ,2.28,1.648,32.349
 13:54:30.904,eb:33:2e:f9:57:b5, 2015-01-01 00:18:38.280,-0.031,0.021,1,-0.305,-0.305,0, , , , , , ,2.28,1.648,32.349
 13:54:30.904,eb:33:2e:f9:57:b5, 2015-01-01 00:18:38.280,-0.03,0.021,1.001,-0.183,-0.183,0, , , , , , ,2.274,1.653,32.349
 13:54:30.904,eb:33:2e:f9:57:b5, 2015-01-01 00:18:38.280,-0.029,0.021,1.003,-0.061,-0.061,0, , , , , , ,2.274,1.653,32.349
 13:54:30.904,eb:33:2e:f9:57:b5, 2015-01-01 00:18:38.280,-0.032,0.021,1.004,0.122,0.122,0, , , , , , ,2.274,1.653,32.349
 13:54:30.904,eb:33:2e:f9:57:b5, 2015-01-01 00:18:38.280,-0.035,0.021,1.002,0.122,0.244,0, , , , , , ,2.274,1.653,32.349
 13:54:30.904,eb:33:2e:f9:57:b5, 2015-01-01 00:18:38.280,-0.035,0.021,0.999,0.183,0.244,0, , , , , , ,2.269,1.653,32.349
 13:54:30.904,eb:33:2e:f9:57:b5, 2015-01-01 00:18:38.280,-0.034,0.02,0.996,0.244,0.183,0, , , , , , ,2.269,1.653,32.349
 13:54:30.948,eb:33:2e:f9:57:b5, 2015-01-01 00:18:38.280,-0.034,0.02,0.998,0.244,0.122,0, , , , , , ,2.269,1.653,32.349
 13:54:30.948,eb:33:2e:f9:57:b5, 2015-01-01 00:18:38.280,-0.035,0.021,0.996,0.244,0.061,0, , , , , , ,2.269,1.653,32.349
 13:54:30.948,eb:33:2e:f9:57:b5, 2015-01-01 00:18:38.280,-0.036,0.022,0.996,0.183,0,0.061, , , , , , ,2.258,1.653,32.349
 13:54:30.948,eb:33:2e:f9:57:b5, 2015-01-01 00:18:38.280,-0.035,0.022,0.995,0.122,0,0, , , , , , ,2.258,1.653,32.349
 13:54:30.948,eb:33:2e:f9:57:b5, 2015-01-01 00:18:38.280,-0.033,0.023,0.995,0.122,-0.061,0.061, , , , , , ,2.258,1.653,32.349
 13:54:30.948,eb:33:2e:f9:57:b5, 2015-01-01 00:18:38.280,-0.034,0.023,0.995,0.061,-0.122,0.061, , , , , , ,2.258,1.653,32.349
 13:54:30.948,eb:33:2e:f9:57:b5, 2015-01-01 00:18:38.280,-0.034,0.023,0.995,0,-0.122,0.061, , , , , , ,2.252,1.653,32.349
 13:54:30.948,eb:33:2e:f9:57:b5, 2015-01-01 00:18:38.280,-0.033,0.022,0.996,0,-0.183,0.061, , , , , , ,2.252,1.653,32.349
 13:54:30.993,eb:33:2e:f9:57:b5, 2015-01-01 00:18:38.635,-0.033,0.021,0.997,0,-0.183,0.061, , , , , , ,2.252,1.653,32.349
 13:54:30.993,eb:33:2e:f9:57:b5, 2015-01-01 00:18:38.635,-0.032,0.021,0.996,0,-0.122,0.183, , , , , , ,2.252,1.653,32.349
 13:54:30.993,eb:33:2e:f9:57:b5, 2015-01-01 00:18:38.635,-0.03,0.021,1,0.061,-0.061,0.122, , , , , , ,2.247,1.659,32.349
 13:54:30.993,eb:33:2e:f9:57:b5, 2015-01-01 00:18:38.635,-0.031,0.022,1.002,0.122,0,0.061, , , , , , ,2.247,1.659,32.349
 13:54:30.993,eb:33:2e:f9:57:b5, 2015-01-01 00:18:38.635,-0.033,0.022,1.001,0.183,0.183,0.122, , , , , , ,2.247,1.659,32.349
 13:54:30.993,eb:33:2e:f9:57:b5, 2015-01-01 00:18:38.635,-0.033,0.021,0.999,0.244,0.183,0.122, , , , , , ,2.247,1.659,32.349
 13:54:30.993,eb:33:2e:f9:57:b5, 2015-01-01 00:18:38.635,-0.033,0.022,0.999,0.305,0.244,0.061, , , , , , ,2.241,1.659,32.349
 13:54:30.993,eb:33:2e:f9:57:b5, 2015-01-01 00:18:38.635,-0.035,0.022,0.999,0.305,0.305,0.061, , , , , , ,2.241,1.659,32.349
 13:54:31.037,eb:33:2e:f9:57:b5, 2015-01-01 00:18:38.635,-0.036,0.022,0.996,0.366,0.244,0.183, , , , , , ,2.241,1.659,32.349
 13:54:31.037,eb:33:2e:f9:57:b5, 2015-01-01 00:18:38.635,-0.035,0.022,0.995,0.305,0.061,0.183, , , , , , ,2.241,1.659,32.349
 13:54:31.037,eb:33:2e:f9:57:b5, 2015-01-01 00:18:38.635,-0.033,0.021,0.996,0.244,0.061,0.122, , , , , , ,2.236,1.659,32.349
 13:54:31.037,eb:33:2e:f9:57:b5, 2015-01-01 00:18:38.635,-0.033,0.022,0.997,0.244,0.061,0.122, , , , , , ,2.236,1.659,32.349
 13:54:31.037,eb:33:2e:f9:57:b5, 2015-01-01 00:18:38.635,-0.034,0.022,0.996,0.244,0.061,0.061, , , , , , ,2.236,1.659,32.349
 13:54:31.037,eb:33:2e:f9:57:b5, 2015-01-01 00:18:38.635,-0.034,0.023,0.995,0.183,0.061,0.061, , , , , , ,2.236,1.659,32.349
 13:54:31.037,eb:33:2e:f9:57:b5, 2015-01-01 00:18:38.635,-0.033,0.023,0.995,0.061,0,0.061, , , , , , ,2.23,1.659,32.349
 13:54:31.037,eb:33:2e:f9:57:b5, 2015-01-01 00:18:38.635,-0.033,0.022,0.997,0,0,0.061, , , , , , ,2.23,1.659,32.349
 13:54:31.060,eb:33:2e:f9:57:b5, 2015-01-01 00:18:38.635,-0.032,0.022,0.999,0.061,0.061,0.061, , , , , , ,2.23,1.659,32.349
 13:54:31.060,eb:33:2e:f9:57:b5, 2015-01-01 00:18:38.635,-0.032,0.022,0.999,0.122,0.061,0.061, , , , , , ,2.23,1.659,32.349
 13:54:31.060,eb:33:2e:f9:57:b5, 2015-01-01 00:18:38.635,-0.032,0.021,1.001,0.244,0.183,0.122, , , , , , ,2.225,1.664,32.349
 13:54:31.060,eb:33:2e:f9:57:b5, 2015-01-01 00:18:38.635,-0.035,0.021,1,0.305,0.244,0.183, , , , , , ,2.225,1.664,32.349
 13:54:31.060,eb:33:2e:f9:57:b5, 2015-01-01 00:18:38.635,-0.034,0.021,0.999,0.305,0.244,0.183, , , , , , ,2.225,1.664,32.349
 13:54:31.060,eb:33:2e:f9:57:b5, 2015-01-01 00:18:38.635,-0.035,0.021,0.997,0.366,0.183,0.183, , , , , , ,2.225,1.664,32.349
 13:54:31.060,eb:33:2e:f9:57:b5, 2015-01-01 00:18:38.635,-0.035,0.021,0.998,0.366,0.244,0.244, , , , , , ,2.219,1.664,32.349
 13:54:31.060,eb:33:2e:f9:57:b5, 2015-01-01 00:18:38.635,-0.035,0.022,0.997,0.366,0.244,0.244, , , , , , ,2.219,1.664,32.349
 13:54:31.103,eb:33:2e:f9:57:b5, 2015-01-01 00:18:38.635,-0.034,0.021,0.996,0.366,0.122,0.305, , , , , , ,2.219,1.664,32.349
 13:54:31.103,eb:33:2e:f9:57:b5, 2015-01-01 00:18:38.635,-0.034,0.022,0.996,0.366,0.061,0.244, , , , , , ,2.219,1.664,32.349
 13:54:31.103,eb:33:2e:f9:57:b5, 2015-01-01 00:18:38.635,-0.035,0.022,0.996,0.305,0.061,0.183, , , , , , ,2.214,1.664,32.349
 13:54:31.103,eb:33:2e:f9:57:b5, 2015-01-01 00:18:38.635,-0.034,0.023,0.995,0.244,0,0.244, , , , , , ,2.214,1.664,32.349
 13:54:31.103,eb:33:2e:f9:57:b5, 2015-01-01 00:18:38.635,-0.035,0.023,0.995,0.183,0,0.244, , , , , , ,2.214,1.664,32.349
 13:54:31.103,eb:33:2e:f9:57:b5, 2015-01-01 00:18:38.635,-0.034,0.022,0.995,0.183,0,0.122, , , , , , ,2.214,1.664,32.349
 13:54:31.103,eb:33:2e:f9:57:b5, 2015-01-01 00:18:38.635,-0.031,0.023,0.997,0.122,0,0.122, , , , , , ,2.208,1.67,32.349
 13:54:31.103,eb:33:2e:f9:57:b5, 2015-01-01 00:18:38.635,-0.033,0.023,1,0.183,0.122,0.061, , , , , , ,2.208,1.67,32.349
 13:54:31.150,eb:33:2e:f9:57:b5, 2015-01-01 00:18:38.635,-0.035,0.023,0.998,0.183,0.183,0.061, , , , , , ,2.208,1.67,32.349
 13:54:31.150,eb:33:2e:f9:57:b5, 2015-01-01 00:18:38.635,-0.035,0.022,0.996,0.183,0.183,0.122, , , , , , ,2.208,1.67,32.349
 13:54:31.150,eb:33:2e:f9:57:b5, 2015-01-01 00:18:38.635,-0.035,0.022,0.996,0.122,0.122,0.122, , , , , , ,2.203,1.67,32.349
 13:54:31.150,eb:33:2e:f9:57:b5, 2015-01-01 00:18:38.635,-0.036,0.022,0.996,0.122,0.061,0.183, , , , , , ,2.203,1.67,32.349
 13:54:31.150,eb:33:2e:f9:57:b5, 2015-01-01 00:18:38.635,-0.035,0.023,0.995,0.122,0,0.183, , , , , , ,2.203,1.67,32.349
 13:54:31.150,eb:33:2e:f9:57:b5, 2015-01-01 00:18:38.635,-0.036,0.022,0.994,0.061,0,0.122, , , , , , ,2.203,1.67,32.349
 13:54:31.150,eb:33:2e:f9:57:b5, 2015-01-01 00:18:38.635,-0.035,0.022,0.995,0,-0.122,0.122, , , , , , ,2.197,1.67,32.349
 13:54:31.150,eb:33:2e:f9:57:b5, 2015-01-01 00:18:38.635,-0.034,0.022,0.995,0,-0.244,0.183, , , , , , ,2.197,1.67,32.349
 13:54:31.195,eb:33:2e:f9:57:b5, 2015-01-01 00:18:38.635,-0.034,0.022,0.995,-0.061,-0.244,0.183, , , , , , ,2.197,1.67,32.349
 13:54:31.195,eb:33:2e:f9:57:b5, 2015-01-01 00:18:38.635,-0.033,0.022,0.998,-0.061,-0.305,0.122, , , , , , ,2.197,1.67,32.349
 13:54:31.195,eb:33:2e:f9:57:b5, 2015-01-01 00:18:38.635,-0.032,0.021,0.999,-0.061,-0.183,0.183, , , , , , ,2.192,1.675,32.349
 13:54:31.195,eb:33:2e:f9:57:b5, 2015-01-01 00:18:38.635,-0.032,0.021,1,0,-0.061,0.183, , , , , , ,2.192,1.675,32.349
 13:54:31.195,eb:33:2e:f9:57:b5, 2015-01-01 00:18:38.635,-0.031,0.021,1.001,0.061,0,0.183, , , , , , ,2.192,1.675,32.349
 13:54:31.195,eb:33:2e:f9:57:b5, 2015-01-01 00:18:38.635,-0.031,0.021,1.001,0.244,0.061,0.122, , , , , , ,2.192,1.675,32.349
 13:54:31.195,eb:33:2e:f9:57:b5, 2015-01-01 00:18:38.635,-0.032,0.022,1.001,0.305,0.183,0.122, , , , , , ,2.192,1.675,32.349
 13:54:31.195,eb:33:2e:f9:57:b5, 2015-01-01 00:18:38.635,-0.033,0.022,1,0.305,0.305,0.122, , , , , , ,2.192,1.675,32.349
 13:54:31.240,eb:33:2e:f9:57:b5, 2015-01-01 00:18:38.635,-0.034,0.021,1.001,0.427,0.366,0.183, , , , , , ,2.192,1.675,32.349
 13:54:31.240,eb:33:2e:f9:57:b5, 2015-01-01 00:18:38.635,-0.036,0.021,0.998,0.488,0.366,0.183, , , , , , ,2.192,1.675,32.349
 13:54:31.240,eb:33:2e:f9:57:b5, 2015-01-01 00:18:38.635,-0.036,0.022,0.996,0.549,0.366,0.183, , , , , , ,2.186,1.675,32.349
 13:54:31.240,eb:33:2e:f9:57:b5, 2015-01-01 00:18:38.635,-0.035,0.022,0.995,0.488,0.244,0.244, , , , , , ,2.186,1.675,32.349
 13:54:31.240,eb:33:2e:f9:57:b5, 2015-01-01 00:18:38.635,-0.034,0.022,0.996,0.488,0.183,0.183, , , , , , ,2.186,1.675,32.349
 13:54:31.240,eb:33:2e:f9:57:b5, 2015-01-01 00:18:38.635,-0.034,0.022,0.996,0.427,0.183,0.183, , , , , , ,2.186,1.675,32.349
 13:54:31.241,eb:33:2e:f9:57:b5, 2015-01-01 00:18:38.635,-0.035,0.023,0.995,0.366,0.183,0.183, , , , , , ,2.181,1.675,32.349
 13:54:31.241,eb:33:2e:f9:57:b5, 2015-01-01 00:18:38.635,-0.036,0.024,0.995,0.305,0.122,0.122, , , , , , ,2.181,1.675,32.349
 13:54:31.261,eb:33:2e:f9:57:b5, 2015-01-01 00:18:38.925,-0.035,0.023,0.994,0.244,0,0.183, , , , , , ,2.181,1.675,32.349
 13:54:31.261,eb:33:2e:f9:57:b5, 2015-01-01 00:18:38.925,-0.033,0.024,0.995,0.183,0.061,0.183, , , , , , ,2.181,1.675,32.349
 13:54:31.261,eb:33:2e:f9:57:b5, 2015-01-01 00:18:38.925,-0.033,0.023,0.997,0.183,0.122,0.122, , , , , , ,2.175,1.681,32.349
 13:54:31.261,eb:33:2e:f9:57:b5, 2015-01-01 00:18:38.925,-0.035,0.023,0.997,0.122,0.061,0.183, , , , , , ,2.175,1.681,32.349
 13:54:31.262,eb:33:2e:f9:57:b5, 2015-01-01 00:18:38.925,-0.034,0.023,0.996,0.061,0,0.122, , , , , , ,2.175,1.681,32.349
 13:54:31.262,eb:33:2e:f9:57:b5, 2015-01-01 00:18:38.925,-0.033,0.023,0.996,0.061,0.061,0.183, , , , , , ,2.175,1.681,32.349
 13:54:31.262,eb:33:2e:f9:57:b5, 2015-01-01 00:18:38.925,-0.034,0.022,0.998,0.122,0.061,0.122, , , , , , ,2.17,1.681,32.349
 13:54:31.262,eb:33:2e:f9:57:b5, 2015-01-01 00:18:38.925,-0.034,0.022,0.999,0.183,0.122,0.122, , , , , , ,2.17,1.681,32.349
 13:54:31.308,eb:33:2e:f9:57:b5, 2015-01-01 00:18:38.925,-0.032,0.021,1.001,0.244,0.183,0.183, , , , , , ,2.17,1.681,32.349
 13:54:31.308,eb:33:2e:f9:57:b5, 2015-01-01 00:18:38.925,-0.032,0.021,1.003,0.427,0.305,0.244, , , , , , ,2.17,1.681,32.349
 13:54:31.308,eb:33:2e:f9:57:b5, 2015-01-01 00:18:38.925,-0.035,0.021,1.002,0.549,0.427,0.244, , , , , , ,2.164,1.681,32.349
 13:54:31.308,eb:33:2e:f9:57:b5, 2015-01-01 00:18:38.925,-0.035,0.023,0.999,0.61,0.488,0.244, , , , , , ,2.164,1.681,32.349
 13:54:31.308,eb:33:2e:f9:57:b5, 2015-01-01 00:18:38.925,-0.035,0.022,0.999,0.671,0.488,0.244, , , , , , ,2.164,1.681,32.349
 13:54:31.308,eb:33:2e:f9:57:b5, 2015-01-01 00:18:38.925,-0.033,0.022,0.999,0.732,0.549,0.244, , , , , , ,2.164,1.681,32.349
 13:54:31.308,eb:33:2e:f9:57:b5, 2015-01-01 00:18:38.925,-0.031,0.023,0.999,0.793,0.61,0.244, , , , , , ,2.159,1.686,32.344
 13:54:31.308,eb:33:2e:f9:57:b5, 2015-01-01 00:18:38.925,-0.039,0.024,1,0.732,0.732,0.122, , , , , , ,2.159,1.686,32.344
 13:54:31.351,eb:33:2e:f9:57:b5, 2015-01-01 00:18:38.925,-0.039,0.022,0.993,0.671,0.61,0.305, , , , , , ,2.159,1.686,32.344
 13:54:31.351,eb:33:2e:f9:57:b5, 2015-01-01 00:18:38.925,-0.035,0.024,0.992,0.549,0.427,0.305, , , , , , ,2.159,1.686,32.344
 13:54:31.351,eb:33:2e:f9:57:b5, 2015-01-01 00:18:38.925,-0.034,0.024,0.995,0.488,0.305,0.244, , , , , , ,2.153,1.686,32.344
 13:54:31.351,eb:33:2e:f9:57:b5, 2015-01-01 00:18:38.925,-0.036,0.025,0.993,0.366,0.244,0.122, , , , , , ,2.153,1.686,32.344
 13:54:31.351,eb:33:2e:f9:57:b5, 2015-01-01 00:18:38.925,-0.036,0.025,0.993,0.305,0.183,0.061, , , , , , ,2.153,1.686,32.344
 13:54:31.351,eb:33:2e:f9:57:b5, 2015-01-01 00:18:38.925,-0.035,0.023,0.993,0.183,0.122,0.061, , , , , , ,2.153,1.686,32.344
 13:54:31.352,eb:33:2e:f9:57:b5, 2015-01-01 00:18:38.925,-0.034,0.023,0.995,0.122,0.061,0.061, , , , , , ,2.148,1.686,32.344
 13:54:31.352,eb:33:2e:f9:57:b5, 2015-01-01 00:18:38.925,-0.033,0.024,0.997,0.122,0.061,0.061, , , , , , ,2.148,1.686,32.344
 13:54:31.398,eb:33:2e:f9:57:b5, 2015-01-01 00:18:38.925,-0.033,0.023,0.997,0.122,0.122,0.061, , , , , , ,2.148,1.686,32.344
 13:54:31.398,eb:33:2e:f9:57:b5, 2015-01-01 00:18:38.925,-0.034,0.022,0.999,0.122,0.183,0.061, , , , , , ,2.148,1.686,32.344
 13:54:31.398,eb:33:2e:f9:57:b5, 2015-01-01 00:18:38.925,-0.035,0.023,0.998,0.183,0.244,0.061, , , , , , ,2.148,1.692,32.344
 13:54:31.398,eb:33:2e:f9:57:b5, 2015-01-01 00:18:38.925,-0.033,0.023,0.999,0.244,0.244,0.061, , , , , , ,2.148,1.692,32.344
 13:54:31.398,eb:33:2e:f9:57:b5, 2015-01-01 00:18:38.925,-0.033,0.022,1,0.305,0.305,0.061, , , , , , ,2.148,1.692,32.344
 13:54:31.398,eb:33:2e:f9:57:b5, 2015-01-01 00:18:38.925,-0.034,0.023,1.002,0.305,0.427,0.122, , , , , , ,2.148,1.692,32.344
 13:54:31.398,eb:33:2e:f9:57:b5, 2015-01-01 00:18:38.925,-0.037,0.022,1,0.427,0.488,0.122, , , , , , ,2.142,1.692,32.344
 13:54:31.399,eb:33:2e:f9:57:b5, 2015-01-01 00:18:38.925,-0.037,0.022,0.998,0.427,0.488,0.183, , , , , , ,2.142,1.692,32.344
 13:54:31.444,eb:33:2e:f9:57:b5, 2015-01-01 00:18:38.925,-0.038,0.023,0.995,0.366,0.366,0.244, , , , , , ,2.142,1.692,32.344
 13:54:31.444,eb:33:2e:f9:57:b5, 2015-01-01 00:18:38.925,-0.036,0.023,0.995,0.305,0.305,0.244, , , , , , ,2.142,1.692,32.344
 13:54:31.444,eb:33:2e:f9:57:b5, 2015-01-01 00:18:38.925,-0.037,0.024,0.996,0.366,0.244,0.244, , , , , , ,2.137,1.692,32.344
 13:54:31.444,eb:33:2e:f9:57:b5, 2015-01-01 00:18:38.925,-0.036,0.024,0.996,0.305,0.244,0.122, , , , , , ,2.137,1.692,32.344
 13:54:31.444,eb:33:2e:f9:57:b5, 2015-01-01 00:18:38.925,-0.035,0.024,0.996,0.244,0.183,0.122, , , , , , ,2.137,1.692,32.344
 13:54:31.444,eb:33:2e:f9:57:b5, 2015-01-01 00:18:38.925,-0.035,0.024,0.997,0.305,0.183,0.122, , , , , , ,2.137,1.692,32.344
 13:54:31.444,eb:33:2e:f9:57:b5, 2015-01-01 00:18:38.925,-0.037,0.024,0.998,0.244,0.183,0.122, , , , , , ,2.131,1.697,32.344
 13:54:31.444,eb:33:2e:f9:57:b5, 2015-01-01 00:18:38.925,-0.035,0.023,0.997,0.305,0.183,0.122, , , , , , ,2.131,1.697,32.344
 13:54:31.465,eb:33:2e:f9:57:b5, 2015-01-01 00:18:38.925,-0.034,0.024,0.997,0.244,0.183,0.122, , , , , , ,2.131,1.697,32.344
 13:54:31.465,eb:33:2e:f9:57:b5, 2015-01-01 00:18:38.925,-0.036,0.024,0.997,0.244,0.244,0.122, , , , , , ,2.131,1.697,32.344
 13:54:31.465,eb:33:2e:f9:57:b5, 2015-01-01 00:18:38.925,-0.038,0.023,0.996,0.244,0.122,0.244, , , , , , ,2.126,1.697,32.344
 13:54:31.465,eb:33:2e:f9:57:b5, 2015-01-01 00:18:38.925,-0.036,0.024,0.995,0.183,0.061,0.183, , , , , , ,2.126,1.697,32.344
 13:54:31.465,eb:33:2e:f9:57:b5, 2015-01-01 00:18:38.925,-0.036,0.024,0.996,0.183,0,0.244, , , , , , ,2.126,1.697,32.344
 13:54:31.465,eb:33:2e:f9:57:b5, 2015-01-01 00:18:38.925,-0.037,0.024,0.996,0.122,-0.061,0.244, , , , , , ,2.126,1.697,32.344
 13:54:31.465,eb:33:2e:f9:57:b5, 2015-01-01 00:18:38.925,-0.037,0.025,0.995,0.061,-0.061,0.183, , , , , , ,2.12,1.697,32.344
 13:54:31.465,eb:33:2e:f9:57:b5, 2015-01-01 00:18:38.925,-0.037,0.026,0.994,0,-0.122,0.183, , , , , , ,2.12,1.697,32.344
 13:54:31.509,eb:33:2e:f9:57:b5, 2015-01-01 00:18:38.925,-0.035,0.025,0.995,-0.061,-0.244,0.183, , , , , , ,2.12,1.697,32.344
 13:54:31.509,eb:33:2e:f9:57:b5, 2015-01-01 00:18:38.925,-0.034,0.024,0.996,-0.122,-0.244,0.061, , , , , , ,2.12,1.697,32.344
 13:54:31.509,eb:33:2e:f9:57:b5, 2015-01-01 00:18:38.925,-0.034,0.024,0.997,-0.122,-0.244,0.122, , , , , , ,2.12,1.703,32.344
 13:54:31.509,eb:33:2e:f9:57:b5, 2015-01-01 00:18:38.925,-0.033,0.024,0.998,-0.183,-0.183,0.061, , , , , , ,2.12,1.703,32.344
 13:54:31.509,eb:33:2e:f9:57:b5, 2015-01-01 00:18:38.925,-0.034,0.024,0.999,-0.122,-0.122,0.061, , , , , , ,2.12,1.703,32.344
 13:54:31.509,eb:33:2e:f9:57:b5, 2015-01-01 00:18:38.925,-0.033,0.024,0.999,-0.061,-0.061,0.061, , , , , , ,2.12,1.703,32.344
 13:54:31.509,eb:33:2e:f9:57:b5, 2015-01-01 00:18:38.925,-0.033,0.023,1,0,0,0, , , , , , ,2.115,1.703,32.344
 13:54:31.509,eb:33:2e:f9:57:b5, 2015-01-01 00:18:38.925,-0.036,0.024,0.999,0,0.061,0, , , , , , ,2.115,1.703,32.344
 13:54:31.554,eb:33:2e:f9:57:b5, 2015-01-01 00:18:38.925,-0.037,0.024,0.996,0,0.061,0, , , , , , ,2.115,1.703,32.344
 13:54:31.554,eb:33:2e:f9:57:b5, 2015-01-01 00:18:38.925,-0.037,0.024,0.996,0,0,0.061, , , , , , ,2.115,1.703,32.344
 13:54:31.554,eb:33:2e:f9:57:b5, 2015-01-01 00:18:38.925,-0.035,0.023,0.997,0,-0.061,0.061, , , , , , ,2.109,1.703,32.344
 13:54:31.554,eb:33:2e:f9:57:b5, 2015-01-01 00:18:38.925,-0.036,0.024,0.997,0,-0.061,0.122, , , , , , ,2.109,1.703,32.344
 13:54:31.554,eb:33:2e:f9:57:b5, 2015-01-01 00:18:38.925,-0.037,0.024,0.996,0,-0.061,0.122, , , , , , ,2.109,1.703,32.344
 13:54:31.554,eb:33:2e:f9:57:b5, 2015-01-01 00:18:38.925,-0.037,0.023,0.995,-0.061,-0.244,0.122, , , , , , ,2.109,1.703,32.344
 13:54:31.554,eb:33:2e:f9:57:b5, 2015-01-01 00:18:38.925,-0.036,0.024,0.996,-0.061,-0.244,0.122, , , , , , ,2.104,1.708,32.344
 13:54:31.554,eb:33:2e:f9:57:b5, 2015-01-01 00:18:38.925,-0.035,0.024,0.997,-0.061,-0.305,0.122, , , , , , ,2.104,1.708,32.344
 13:54:31.599,eb:33:2e:f9:57:b5, 2015-01-01 00:18:39.240,-0.034,0.025,0.996,-0.122,-0.305,0.122, , , , , , ,2.104,1.708,32.344
 13:54:31.599,eb:33:2e:f9:57:b5, 2015-01-01 00:18:39.240,-0.034,0.024,0.997,-0.122,-0.305,0.061, , , , , , ,2.104,1.708,32.344
 13:54:31.599,eb:33:2e:f9:57:b5, 2015-01-01 00:18:39.240,-0.035,0.025,0.996,-0.183,-0.244,0, , , , , , ,2.104,1.708,32.344
 13:54:31.599,eb:33:2e:f9:57:b5, 2015-01-01 00:18:39.240,-0.035,0.025,0.995,-0.305,-0.244,0, , , , , , ,2.104,1.708,32.344
 13:54:31.599,eb:33:2e:f9:57:b5, 2015-01-01 00:18:39.240,-0.033,0.024,0.997,-0.305,-0.305,0, , , , , , ,2.104,1.708,32.344
 13:54:31.599,eb:33:2e:f9:57:b5, 2015-01-01 00:18:39.240,-0.033,0.024,0.999,-0.305,-0.244,0, , , , , , ,2.104,1.708,32.344
 13:54:31.599,eb:33:2e:f9:57:b5, 2015-01-01 00:18:39.240,-0.034,0.022,1.001,-0.183,-0.122,0, , , , , , ,2.098,1.708,32.344
 13:54:31.599,eb:33:2e:f9:57:b5, 2015-01-01 00:18:39.240,-0.034,0.022,1.001,-0.122,0,0, , , , , , ,2.098,1.708,32.344
 13:54:31.622,eb:33:2e:f9:57:b5, 2015-01-01 00:18:39.240,-0.034,0.024,1,-0.061,0.061,0, , , , , , ,2.098,1.708,32.344
 13:54:31.622,eb:33:2e:f9:57:b5, 2015-01-01 00:18:39.240,-0.034,0.023,0.998,0,0.061,0.061, , , , , , ,2.098,1.708,32.344
 13:54:31.622,eb:33:2e:f9:57:b5, 2015-01-01 00:18:39.240,-0.036,0.022,1,0,0.122,0.061, , , , , , ,2.093,1.714,32.344
 13:54:31.622,eb:33:2e:f9:57:b5, 2015-01-01 00:18:39.240,-0.038,0.022,0.997,0,0.061,0.061, , , , , , ,2.093,1.714,32.344
 13:54:31.622,eb:33:2e:f9:57:b5, 2015-01-01 00:18:39.240,-0.037,0.023,0.996,0,0,0.122, , , , , , ,2.093,1.714,32.344
 13:54:31.622,eb:33:2e:f9:57:b5, 2015-01-01 00:18:39.240,-0.036,0.023,0.997,0,-0.122,0.183, , , , , , ,2.093,1.714,32.344
 13:54:31.622,eb:33:2e:f9:57:b5, 2015-01-01 00:18:39.240,-0.036,0.023,0.997,0,-0.122,0.183, , , , , , ,2.093,1.714,32.344
 13:54:31.622,eb:33:2e:f9:57:b5, 2015-01-01 00:18:39.240,-0.036,0.023,0.997,0,-0.183,0.183, , , , , , ,2.093,1.714,32.344
 13:54:31.667,eb:33:2e:f9:57:b5, 2015-01-01 00:18:39.240,-0.035,0.024,0.997,0,-0.244,0.122, , , , , , ,2.093,1.714,32.344
 13:54:31.667,eb:33:2e:f9:57:b5, 2015-01-01 00:18:39.240,-0.035,0.024,0.997,-0.061,-0.305,0.122, , , , , , ,2.093,1.714,32.344
 13:54:31.667,eb:33:2e:f9:57:b5, 2015-01-01 00:18:39.240,-0.034,0.025,0.996,-0.061,-0.305,0.122, , , , , , ,2.087,1.714,32.344
 13:54:31.667,eb:33:2e:f9:57:b5, 2015-01-01 00:18:39.240,-0.033,0.025,0.996,-0.122,-0.244,0.061, , , , , , ,2.087,1.714,32.344
 13:54:31.667,eb:33:2e:f9:57:b5, 2015-01-01 00:18:39.240,-0.034,0.025,0.997,-0.183,-0.183,0.061, , , , , , ,2.087,1.714,32.344
 13:54:31.667,eb:33:2e:f9:57:b5, 2015-01-01 00:18:39.240,-0.035,0.026,0.995,-0.244,-0.244,0, , , , , , ,2.087,1.714,32.344
 13:54:31.667,eb:33:2e:f9:57:b5, 2015-01-01 00:18:39.240,-0.035,0.024,0.996,-0.244,-0.244,0, , , , , , ,2.082,1.719,32.344
 13:54:31.667,eb:33:2e:f9:57:b5, 2015-01-01 00:18:39.240,-0.033,0.024,0.998,-0.244,-0.305,0, , , , , , ,2.082,1.719,32.344
 13:54:31.711,eb:33:2e:f9:57:b5, 2015-01-01 00:18:39.240,-0.035,0.025,0.999,-0.305,-0.244,0, , , , , , ,2.082,1.719,32.344
 13:54:31.711,eb:33:2e:f9:57:b5, 2015-01-01 00:18:39.240,-0.034,0.024,0.999,-0.183,-0.244,0.061, , , , , , ,2.082,1.719,32.344
 13:54:31.711,eb:33:2e:f9:57:b5, 2015-01-01 00:18:39.240,-0.033,0.023,1,-0.183,-0.122,0, , , , , , ,2.076,1.719,32.344
 13:54:31.711,eb:33:2e:f9:57:b5, 2015-01-01 00:18:39.240,-0.034,0.022,1.001,-0.061,0,0, , , , , , ,2.076,1.719,32.344
 13:54:31.711,eb:33:2e:f9:57:b5, 2015-01-01 00:18:39.240,-0.035,0.023,1.001,0,0.122,0.061, , , , , , ,2.076,1.719,32.344
 13:54:31.711,eb:33:2e:f9:57:b5, 2015-01-01 00:18:39.240,-0.036,0.023,0.999,0,0.122,0, , , , , , ,2.076,1.719,32.344
 13:54:31.711,eb:33:2e:f9:57:b5, 2015-01-01 00:18:39.240,-0.036,0.023,0.999,0,0.122,0.061, , , , , , ,2.076,1.719,32.344
 13:54:31.711,eb:33:2e:f9:57:b5, 2015-01-01 00:18:39.240,-0.035,0.022,0.999,0.061,0.061,0, , , , , , ,2.076,1.719,32.344
 13:54:31.758,eb:33:2e:f9:57:b5, 2015-01-01 00:18:39.240,-0.034,0.022,1,0.183,0.122,0.061, , , , , , ,2.076,1.719,32.344
 13:54:31.758,eb:33:2e:f9:57:b5, 2015-01-01 00:18:39.240,-0.035,0.023,1,0.244,0.122,0, , , , , , ,2.076,1.719,32.344
 13:54:31.758,eb:33:2e:f9:57:b5, 2015-01-01 00:18:39.240,-0.037,0.023,0.999,0.244,0.183,0.122, , , , , , ,2.071,1.725,32.344
 13:54:31.758,eb:33:2e:f9:57:b5, 2015-01-01 00:18:39.240,-0.038,0.023,0.996,0.183,0.122,0.122, , , , , , ,2.071,1.725,32.344
 13:54:31.758,eb:33:2e:f9:57:b5, 2015-01-01 00:18:39.240,-0.038,0.023,0.994,0.122,0,0.122, , , , , , ,2.071,1.725,32.344
 13:54:31.758,eb:33:2e:f9:57:b5, 2015-01-01 00:18:39.240,-0.036,0.023,0.995,0.122,0,0.061, , , , , , ,2.071,1.725,32.344
 13:54:31.759,eb:33:2e:f9:57:b5, 2015-01-01 00:18:39.240,-0.036,0.024,0.996,0.061,-0.061,0.122, , , , , , ,2.065,1.725,32.344
 13:54:31.759,eb:33:2e:f9:57:b5, 2015-01-01 00:18:39.240,-0.035,0.024,0.996,0,-0.122,0.183, , , , , , ,2.065,1.725,32.344
 13:54:31.803,eb:33:2e:f9:57:b5, 2015-01-01 00:18:39.240,-0.035,0.024,0.996,0,-0.183,0.183, , , , , , ,2.065,1.725,32.344
 13:54:31.803,eb:33:2e:f9:57:b5, 2015-01-01 00:18:39.240,-0.034,0.025,0.997,0,-0.183,0.122, , , , , , ,2.065,1.725,32.344
 13:54:31.803,eb:33:2e:f9:57:b5, 2015-01-01 00:18:39.240,-0.034,0.024,0.997,0,-0.122,0.122, , , , , , ,2.06,1.725,32.344
 13:54:31.803,eb:33:2e:f9:57:b5, 2015-01-01 00:18:39.240,-0.034,0.024,0.997,-0.061,-0.122,0.061, , , , , , ,2.06,1.725,32.344
 13:54:31.803,eb:33:2e:f9:57:b5, 2015-01-01 00:18:39.240,-0.034,0.023,0.998,-0.061,-0.061,0, , , , , , ,2.06,1.725,32.344
 13:54:31.803,eb:33:2e:f9:57:b5, 2015-01-01 00:18:39.240,-0.034,0.023,0.998,-0.061,0,0.061, , , , , , ,2.06,1.725,32.344
 13:54:31.803,eb:33:2e:f9:57:b5, 2015-01-01 00:18:39.240,-0.034,0.024,1,0,0,0.061, , , , , , ,2.06,1.73,32.344
 13:54:31.803,eb:33:2e:f9:57:b5, 2015-01-01 00:18:39.240,-0.035,0.022,1,0.061,0.061,0.061, , , , , , ,2.06,1.73,32.344
 13:54:31.825,eb:33:2e:f9:57:b5, 2015-01-01 00:18:39.240,-0.036,0.022,0.999,0.061,0.061,0.122, , , , , , ,2.06,1.73,32.344
 13:54:31.825,eb:33:2e:f9:57:b5, 2015-01-01 00:18:39.240,-0.032,0.023,0.999,0.061,0.122,0.122, , , , , , ,2.06,1.73,32.344
 13:54:31.825,eb:33:2e:f9:57:b5, 2015-01-01 00:18:39.240,-0.032,0.021,1.003,0.183,0.305,0, , , , , , ,2.054,1.73,32.344
 13:54:31.825,eb:33:2e:f9:57:b5, 2015-01-01 00:18:39.240,-0.036,0.022,1.003,0.366,0.488,0.061, , , , , , ,2.054,1.73,32.344
 13:54:31.825,eb:33:2e:f9:57:b5, 2015-01-01 00:18:39.240,-0.038,0.024,0.998,0.427,0.488,0.061, , , , , , ,2.054,1.73,32.344
 13:54:31.825,eb:33:2e:f9:57:b5, 2015-01-01 00:18:39.240,-0.037,0.023,0.997,0.366,0.488,0.122, , , , , , ,2.054,1.73,32.344
 13:54:31.826,eb:33:2e:f9:57:b5, 2015-01-01 00:18:39.240,-0.036,0.023,0.997,0.366,0.366,0.183, , , , , , ,2.049,1.73,32.344
 13:54:31.826,eb:33:2e:f9:57:b5, 2015-01-01 00:18:39.240,-0.037,0.024,0.996,0.366,0.305,0.122, , , , , , ,2.049,1.73,32.344
 13:54:31.870,eb:33:2e:f9:57:b5, 2015-01-01 00:18:39.240,-0.037,0.024,0.995,0.305,0.244,0.122, , , , , , ,2.049,1.73,32.344
 13:54:31.870,eb:33:2e:f9:57:b5, 2015-01-01 00:18:39.240,-0.038,0.024,0.995,0.244,0.122,0.183, , , , , , ,2.049,1.73,32.344
 13:54:31.870,eb:33:2e:f9:57:b5, 2015-01-01 00:18:39.240,-0.037,0.024,0.994,0.183,0.061,0.244, , , , , , ,2.049,1.73,32.344
 13:54:31.870,eb:33:2e:f9:57:b5, 2015-01-01 00:18:39.240,-0.036,0.025,0.994,0.061,0,0.183, , , , , , ,2.049,1.73,32.344
 13:54:31.870,eb:33:2e:f9:57:b5, 2015-01-01 00:18:39.240,-0.036,0.025,0.994,0,-0.061,0.244, , , , , , ,2.049,1.73,32.344
 13:54:31.870,eb:33:2e:f9:57:b5, 2015-01-01 00:18:39.240,-0.035,0.025,0.994,0,-0.122,0.183, , , , , , ,2.049,1.73,32.344
 13:54:31.870,eb:33:2e:f9:57:b5, 2015-01-01 00:18:39.240,-0.035,0.025,0.995,-0.061,-0.122,0.183, , , , , , ,2.043,1.736,32.344
 13:54:31.870,eb:33:2e:f9:57:b5, 2015-01-01 00:18:39.240,-0.035,0.024,0.997,-0.122,-0.122,0.122, , , , , , ,2.043,1.736,32.344
 13:54:31.915,eb:33:2e:f9:57:b5, 2015-01-01 00:18:39.530,-0.038,0.025,0.998,-0.122,-0.061,0.122, , , , , , ,2.043,1.736,32.344
 13:54:31.915,eb:33:2e:f9:57:b5, 2015-01-01 00:18:39.530,-0.032,0.023,0.997,-0.122,-0.122,0.183, , , , , , ,2.043,1.736,32.344
 13:54:31.915,eb:33:2e:f9:57:b5, 2015-01-01 00:18:39.530,-0.033,0.024,1.001,-0.122,0,0.122, , , , , , ,2.038,1.736,32.344
 13:54:31.915,eb:33:2e:f9:57:b5, 2015-01-01 00:18:39.530,-0.038,0.024,0.999,-0.122,0.061,0.122, , , , , , ,2.038,1.736,32.344
 13:54:31.915,eb:33:2e:f9:57:b5, 2015-01-01 00:18:39.530,-0.037,0.024,0.995,-0.122,0,0.183, , , , , , ,2.038,1.736,32.344
 13:54:31.915,eb:33:2e:f9:57:b5, 2015-01-01 00:18:39.530,-0.035,0.023,0.997,-0.061,0,0.122, , , , , , ,2.038,1.736,32.344
 13:54:31.915,eb:33:2e:f9:57:b5, 2015-01-01 00:18:39.530,-0.037,0.022,1,0,0,0.061, , , , , , ,2.032,1.736,32.344
 13:54:31.915,eb:33:2e:f9:57:b5, 2015-01-01 00:18:39.530,-0.037,0.022,0.997,0,0,0.183, , , , , , ,2.032,1.736,32.344
 13:54:31.961,eb:33:2e:f9:57:b5, 2015-01-01 00:18:39.530,-0.037,0.023,0.997,0,0,0.061, , , , , , ,2.032,1.736,32.344
 13:54:31.961,eb:33:2e:f9:57:b5, 2015-01-01 00:18:39.530,-0.038,0.023,0.997,0,0,0.122, , , , , , ,2.032,1.736,32.344
 13:54:31.961,eb:33:2e:f9:57:b5, 2015-01-01 00:18:39.530,-0.037,0.023,0.995,0,-0.183,0.183, , , , , , ,2.032,1.741,32.344
 13:54:31.961,eb:33:2e:f9:57:b5, 2015-01-01 00:18:39.530,-0.036,0.023,0.996,0,-0.244,0.244, , , , , , ,2.032,1.741,32.344
 13:54:31.961,eb:33:2e:f9:57:b5, 2015-01-01 00:18:39.530,-0.036,0.023,0.996,-0.061,-0.305,0.183, , , , , , ,2.032,1.741,32.344
 13:54:31.961,eb:33:2e:f9:57:b5, 2015-01-01 00:18:39.530,-0.036,0.024,0.995,-0.122,-0.366,0.183, , , , , , ,2.032,1.741,32.344
 13:54:31.961,eb:33:2e:f9:57:b5, 2015-01-01 00:18:39.530,-0.036,0.024,0.996,-0.183,-0.427,0.183, , , , , , ,2.027,1.741,32.344
 13:54:31.961,eb:33:2e:f9:57:b5, 2015-01-01 00:18:39.530,-0.036,0.024,0.994,-0.244,-0.488,0.183, , , , , , ,2.027,1.741,32.344
 13:54:32.005,eb:33:2e:f9:57:b5, 2015-01-01 00:18:39.530,-0.035,0.024,0.995,-0.244,-0.488,0.183, , , , , , ,2.027,1.741,32.344
 13:54:32.005,eb:33:2e:f9:57:b5, 2015-01-01 00:18:39.530,-0.035,0.024,0.997,-0.305,-0.427,0.122, , , , , , ,2.027,1.741,32.344
 13:54:32.005,eb:33:2e:f9:57:b5, 2015-01-01 00:18:39.530,-0.033,0.024,0.999,-0.305,-0.427,0.122, , , , , , ,2.021,1.747,32.338
 13:54:32.005,eb:33:2e:f9:57:b5, 2015-01-01 00:18:39.530,-0.033,0.024,1,-0.244,-0.366,0.122, , , , , , ,2.021,1.747,32.338
 13:54:32.005,eb:33:2e:f9:57:b5, 2015-01-01 00:18:39.530,-0.035,0.023,1,-0.183,-0.244,0.122, , , , , , ,2.021,1.747,32.338
 13:54:32.005,eb:33:2e:f9:57:b5, 2015-01-01 00:18:39.530,-0.033,0.022,1,-0.122,-0.183,0.122, , , , , , ,2.021,1.747,32.338
 13:54:32.006,eb:33:2e:f9:57:b5, 2015-01-01 00:18:39.530,-0.033,0.024,1,-0.061,-0.061,0.061, , , , , , ,2.021,1.747,32.338
 13:54:32.006,eb:33:2e:f9:57:b5, 2015-01-01 00:18:39.530,-0.034,0.022,1.002,0,0.061,0.061, , , , , , ,2.021,1.747,32.338
 13:54:32.027,eb:33:2e:f9:57:b5, 2015-01-01 00:18:39.530,-0.037,0.022,1,0.061,0.122,0.122, , , , , , ,2.021,1.747,32.338
 13:54:32.027,eb:33:2e:f9:57:b5, 2015-01-01 00:18:39.530,-0.038,0.023,0.999,0.061,0.061,0.122, , , , , , ,2.021,1.747,32.338
 13:54:32.027,eb:33:2e:f9:57:b5, 2015-01-01 00:18:39.530,-0.037,0.024,0.997,0.122,0.061,0.122, , , , , , ,2.016,1.747,32.338
 13:54:32.027,eb:33:2e:f9:57:b5, 2015-01-01 00:18:39.530,-0.036,0.024,0.997,0.061,0,0.061, , , , , , ,2.016,1.747,32.338
 13:54:32.027,eb:33:2e:f9:57:b5, 2015-01-01 00:18:39.530,-0.035,0.024,0.997,0,0,0.122, , , , , , ,2.016,1.747,32.338
 13:54:32.027,eb:33:2e:f9:57:b5, 2015-01-01 00:18:39.530,-0.035,0.024,0.996,0,0,0.061, , , , , , ,2.016,1.747,32.338
 13:54:32.027,eb:33:2e:f9:57:b5, 2015-01-01 00:18:39.530,-0.036,0.024,0.995,0,-0.061,0.061, , , , , , ,2.01,1.747,32.338
 13:54:32.027,eb:33:2e:f9:57:b5, 2015-01-01 00:18:39.530,-0.035,0.024,0.994,0,-0.122,0.061, , , , , , ,2.01,1.747,32.338
 13:54:32.072,eb:33:2e:f9:57:b5, 2015-01-01 00:18:39.530,-0.036,0.024,0.995,-0.122,-0.122,0.061, , , , , , ,2.01,1.747,32.338
 13:54:32.073,eb:33:2e:f9:57:b5, 2015-01-01 00:18:39.530,-0.036,0.024,0.995,-0.122,-0.122,0.122, , , , , , ,2.01,1.747,32.338
 13:54:32.073,eb:33:2e:f9:57:b5, 2015-01-01 00:18:39.530,-0.037,0.025,0.994,-0.244,-0.244,0.061, , , , , , ,2.01,1.752,32.338
 13:54:32.073,eb:33:2e:f9:57:b5, 2015-01-01 00:18:39.530,-0.037,0.024,0.995,-0.183,-0.244,0.061, , , , , , ,2.01,1.752,32.338
 13:54:32.073,eb:33:2e:f9:57:b5, 2015-01-01 00:18:39.530,-0.035,0.023,0.997,-0.183,-0.305,0.122, , , , , , ,2.01,1.752,32.338
 13:54:32.073,eb:33:2e:f9:57:b5, 2015-01-01 00:18:39.530,-0.034,0.022,0.998,-0.122,-0.305,0.061, , , , , , ,2.01,1.752,32.338
 13:54:32.073,eb:33:2e:f9:57:b5, 2015-01-01 00:18:39.530,-0.035,0.022,0.999,-0.122,-0.244,0.122, , , , , , ,2.005,1.752,32.338
 13:54:32.073,eb:33:2e:f9:57:b5, 2015-01-01 00:18:39.530,-0.036,0.023,0.999,-0.061,-0.183,0.061, , , , , , ,2.005,1.752,32.338
 13:54:32.118,eb:33:2e:f9:57:b5, 2015-01-01 00:18:39.530,-0.036,0.024,0.998,-0.061,-0.183,0.122, , , , , , ,2.005,1.752,32.338
 13:54:32.118,eb:33:2e:f9:57:b5, 2015-01-01 00:18:39.530,-0.035,0.023,0.998,-0.061,-0.183,0.183, , , , , , ,2.005,1.752,32.338
 13:54:32.118,eb:33:2e:f9:57:b5, 2015-01-01 00:18:39.530,-0.035,0.023,1,0,-0.244,0.061, , , , , , ,2,1.752,32.338
 13:54:32.118,eb:33:2e:f9:57:b5, 2015-01-01 00:18:39.530,-0.033,0.023,1,-0.061,-0.122,0.061, , , , , , ,2,1.752,32.338
 13:54:32.118,eb:33:2e:f9:57:b5, 2015-01-01 00:18:39.530,-0.032,0.024,1,0,0,0, , , , , , ,2,1.752,32.338
 13:54:32.118,eb:33:2e:f9:57:b5, 2015-01-01 00:18:39.530,-0.033,0.023,1,0,0.061,0, , , , , , ,2,1.752,32.338
 13:54:32.118,eb:33:2e:f9:57:b5, 2015-01-01 00:18:39.530,-0.034,0.023,1,0,0.122,0, , , , , , ,2,1.758,32.338
 13:54:32.118,eb:33:2e:f9:57:b5, 2015-01-01 00:18:39.530,-0.036,0.024,0.999,0,0.183,0, , , , , , ,2,1.758,32.338
 13:54:32.164,eb:33:2e:f9:57:b5, 2015-01-01 00:18:39.530,-0.035,0.024,0.997,0,0.244,0, , , , , , ,2,1.758,32.338
 13:54:32.164,eb:33:2e:f9:57:b5, 2015-01-01 00:18:39.530,-0.035,0.024,0.997,0,0.244,-0.061, , , , , , ,2,1.758,32.338
 13:54:32.164,eb:33:2e:f9:57:b5, 2015-01-01 00:18:39.530,-0.037,0.023,0.997,0,0.183,-0.061, , , , , , ,1.994,1.758,32.338
 13:54:32.164,eb:33:2e:f9:57:b5, 2015-01-01 00:18:39.530,-0.038,0.024,0.996,0,0.122,0, , , , , , ,1.994,1.758,32.338
 13:54:32.164,eb:33:2e:f9:57:b5, 2015-01-01 00:18:39.530,-0.038,0.023,0.995,0,0,0, , , , , , ,1.994,1.758,32.338
 13:54:32.165,eb:33:2e:f9:57:b5, 2015-01-01 00:18:39.530,-0.038,0.023,0.994,-0.061,0,0, , , , , , ,1.994,1.758,32.338
 13:54:32.165,eb:33:2e:f9:57:b5, 2015-01-01 00:18:39.530,-0.036,0.022,0.995,-0.061,-0.122,0.122, , , , , , ,1.989,1.758,32.338
 13:54:32.165,eb:33:2e:f9:57:b5, 2015-01-01 00:18:39.530,-0.034,0.022,0.997,0,-0.122,0.122, , , , , , ,1.989,1.758,32.338
 13:54:32.208,eb:33:2e:f9:57:b5, 2015-01-01 00:18:39.840,-0.036,0.022,0.998,0,-0.061,0.183, , , , , , ,1.989,1.758,32.338
 13:54:32.208,eb:33:2e:f9:57:b5, 2015-01-01 00:18:39.840,-0.037,0.022,0.997,0,-0.122,0.244, , , , , , ,1.989,1.758,32.338
 13:54:32.208,eb:33:2e:f9:57:b5, 2015-01-01 00:18:39.840,-0.035,0.022,0.997,0.061,-0.122,0.183, , , , , , ,1.989,1.758,32.338
 13:54:32.208,eb:33:2e:f9:57:b5, 2015-01-01 00:18:39.840,-0.034,0.021,1,0.122,-0.061,0.183, , , , , , ,1.989,1.758,32.338
 13:54:32.208,eb:33:2e:f9:57:b5, 2015-01-01 00:18:39.840,-0.036,0.022,1,0.183,0,0.244, , , , , , ,1.989,1.758,32.338
 13:54:32.208,eb:33:2e:f9:57:b5, 2015-01-01 00:18:39.840,-0.037,0.023,0.998,0.244,0,0.305, , , , , , ,1.989,1.758,32.338
 13:54:32.208,eb:33:2e:f9:57:b5, 2015-01-01 00:18:39.840,-0.036,0.023,0.996,0.244,0,0.244, , , , , , ,1.983,1.763,32.338
 13:54:32.208,eb:33:2e:f9:57:b5, 2015-01-01 00:18:39.840,-0.034,0.024,0.997,0.244,-0.061,0.244, , , , , , ,1.983,1.763,32.338
 13:54:32.230,eb:33:2e:f9:57:b5, 2015-01-01 00:18:39.840,-0.034,0.024,0.997,0.305,0,0.244, , , , , , ,1.983,1.763,32.338
 13:54:32.230,eb:33:2e:f9:57:b5, 2015-01-01 00:18:39.840,-0.036,0.025,0.996,0.244,0,0.244, , , , , , ,1.983,1.763,32.338
 13:54:32.230,eb:33:2e:f9:57:b5, 2015-01-01 00:18:39.840,-0.035,0.024,0.994,0.122,0,0.122, , , , , , ,1.978,1.763,32.338
 13:54:32.230,eb:33:2e:f9:57:b5, 2015-01-01 00:18:39.840,-0.034,0.024,0.996,0.061,0,0.061, , , , , , ,1.978,1.763,32.338
 13:54:32.230,eb:33:2e:f9:57:b5, 2015-01-01 00:18:39.840,-0.035,0.025,0.997,0.061,0,0.122, , , , , , ,1.978,1.763,32.338
 13:54:32.230,eb:33:2e:f9:57:b5, 2015-01-01 00:18:39.840,-0.036,0.025,0.996,0,0,0.061, , , , , , ,1.978,1.763,32.338
 13:54:32.230,eb:33:2e:f9:57:b5, 2015-01-01 00:18:39.840,-0.037,0.025,0.995,0,0,0, , , , , , ,1.978,1.763,32.338
 13:54:32.230,eb:33:2e:f9:57:b5, 2015-01-01 00:18:39.840,-0.037,0.024,0.994,-0.122,0,0, , , , , , ,1.978,1.763,32.338
 13:54:32.275,eb:33:2e:f9:57:b5, 2015-01-01 00:18:39.840,-0.036,0.023,0.994,-0.122,-0.122,0, , , , , , ,1.978,1.763,32.338
 13:54:32.275,eb:33:2e:f9:57:b5, 2015-01-01 00:18:39.840,-0.035,0.023,0.997,-0.061,-0.122,0.122, , , , , , ,1.978,1.763,32.338
 13:54:32.275,eb:33:2e:f9:57:b5, 2015-01-01 00:18:39.840,-0.035,0.022,0.999,0,-0.122,0.061, , , , , , ,1.972,1.769,32.338
 13:54:32.275,eb:33:2e:f9:57:b5, 2015-01-01 00:18:39.840,-0.035,0.024,1,0,-0.061,0.061, , , , , , ,1.972,1.769,32.338
 13:54:32.275,eb:33:2e:f9:57:b5, 2015-01-01 00:18:39.840,-0.037,0.024,0.999,0,0,0.122, , , , , , ,1.972,1.769,32.338
 13:54:32.275,eb:33:2e:f9:57:b5, 2015-01-01 00:18:39.840,-0.037,0.022,0.998,0.122,0,0.183, , , , , , ,1.972,1.769,32.338
 13:54:32.276,eb:33:2e:f9:57:b5, 2015-01-01 00:18:39.840,-0.034,0.021,1,0.183,0,0.183, , , , , , ,1.972,1.769,32.338
 13:54:32.276,eb:33:2e:f9:57:b5, 2015-01-01 00:18:39.840,-0.035,0.022,1.001,0.244,0,0.244, , , , , , ,1.972,1.769,32.338
 13:54:32.320,eb:33:2e:f9:57:b5, 2015-01-01 00:18:39.840,-0.037,0.021,1,0.366,0.061,0.305, , , , , , ,1.972,1.769,32.338
 13:54:32.320,eb:33:2e:f9:57:b5, 2015-01-01 00:18:39.840,-0.037,0.022,0.999,0.427,0,0.305, , , , , , ,1.972,1.769,32.338
 13:54:32.320,eb:33:2e:f9:57:b5, 2015-01-01 00:18:39.840,-0.038,0.024,0.996,0.427,0,0.366, , , , , , ,1.967,1.769,32.338
 13:54:32.320,eb:33:2e:f9:57:b5, 2015-01-01 00:18:39.840,-0.037,0.023,0.995,0.305,0,0.366, , , , , , ,1.967,1.769,32.338
 13:54:32.320,eb:33:2e:f9:57:b5, 2015-01-01 00:18:39.840,-0.036,0.025,0.995,0.305,-0.061,0.366, , , , , , ,1.967,1.769,32.338
 13:54:32.320,eb:33:2e:f9:57:b5, 2015-01-01 00:18:39.840,-0.036,0.025,0.995,0.244,-0.183,0.305, , , , , , ,1.967,1.769,32.338
 13:54:32.320,eb:33:2e:f9:57:b5, 2015-01-01 00:18:39.840,-0.035,0.026,0.995,0.183,-0.122,0.244, , , , , , ,1.961,1.774,32.338
 13:54:32.320,eb:33:2e:f9:57:b5, 2015-01-01 00:18:39.840,-0.035,0.024,0.997,0.122,-0.122,0.305, , , , , , ,1.961,1.774,32.338
 13:54:32.365,eb:33:2e:f9:57:b5, 2015-01-01 00:18:39.840,-0.035,0.025,0.995,0.061,-0.061,0.183, , , , , , ,1.961,1.774,32.338
 13:54:32.365,eb:33:2e:f9:57:b5, 2015-01-01 00:18:39.840,-0.033,0.025,0.996,0,-0.122,0.183, , , , , , ,1.961,1.774,32.338
 13:54:32.365,eb:33:2e:f9:57:b5, 2015-01-01 00:18:39.840,-0.032,0.024,0.998,0,-0.122,0.122, , , , , , ,1.961,1.774,32.338
 13:54:32.365,eb:33:2e:f9:57:b5, 2015-01-01 00:18:39.840,-0.034,0.024,0.999,0.061,0,0.122, , , , , , ,1.961,1.774,32.338
 13:54:32.365,eb:33:2e:f9:57:b5, 2015-01-01 00:18:39.840,-0.036,0.023,0.998,0.061,0.061,0.122, , , , , , ,1.961,1.774,32.338
 13:54:32.365,eb:33:2e:f9:57:b5, 2015-01-01 00:18:39.840,-0.036,0.023,0.998,0.061,0,0.061, , , , , , ,1.961,1.774,32.338
 13:54:32.365,eb:33:2e:f9:57:b5, 2015-01-01 00:18:39.840,-0.036,0.023,0.999,0.061,0.061,0.061, , , , , , ,1.956,1.774,32.338
 13:54:32.365,eb:33:2e:f9:57:b5, 2015-01-01 00:18:39.840,-0.036,0.023,0.999,0.122,0.061,0.122, , , , , , ,1.956,1.774,32.338
 13:54:32.409,eb:33:2e:f9:57:b5, 2015-01-01 00:18:39.840,-0.036,0.023,0.998,0.183,0.061,0.122, , , , , , ,1.956,1.774,32.338
 13:54:32.409,eb:33:2e:f9:57:b5, 2015-01-01 00:18:39.840,-0.036,0.023,0.998,0.183,0.122,0.183, , , , , , ,1.956,1.774,32.338
 13:54:32.409,eb:33:2e:f9:57:b5, 2015-01-01 00:18:39.840,-0.036,0.023,0.999,0.244,0.122,0.183, , , , , , ,1.956,1.774,32.338
 13:54:32.409,eb:33:2e:f9:57:b5, 2015-01-01 00:18:39.840,-0.036,0.023,0.997,0.305,0.183,0.244, , , , , , ,1.956,1.774,32.338
 13:54:32.409,eb:33:2e:f9:57:b5, 2015-01-01 00:18:39.840,-0.037,0.024,0.996,0.244,0.122,0.183, , , , , , ,1.956,1.774,32.338
 13:54:32.409,eb:33:2e:f9:57:b5, 2015-01-01 00:18:39.840,-0.036,0.023,0.996,0.244,0.061,0.183, , , , , , ,1.956,1.774,32.338
 13:54:32.409,eb:33:2e:f9:57:b5, 2015-01-01 00:18:39.840,-0.034,0.023,0.998,0.305,0.122,0.183, , , , , , ,1.95,1.78,32.338
 13:54:32.409,eb:33:2e:f9:57:b5, 2015-01-01 00:18:39.840,-0.035,0.025,0.997,0.183,0.122,0.122, , , , , , ,1.95,1.78,32.338
 13:54:32.433,eb:33:2e:f9:57:b5, 2015-01-01 00:18:39.840,-0.036,0.026,0.995,0.122,0.061,0.061, , , , , , ,1.95,1.78,32.338
 13:54:32.433,eb:33:2e:f9:57:b5, 2015-01-01 00:18:39.840,-0.036,0.025,0.995,0.061,0.061,0.061, , , , , , ,1.95,1.78,32.338
 13:54:32.433,eb:33:2e:f9:57:b5, 2015-01-01 00:18:39.840,-0.037,0.025,0.993,0.061,0,0.061, , , , , , ,1.945,1.78,32.338
 13:54:32.433,eb:33:2e:f9:57:b5, 2015-01-01 00:18:39.840,-0.035,0.025,0.994,0,-0.061,0.061, , , , , , ,1.945,1.78,32.338
 13:54:32.433,eb:33:2e:f9:57:b5, 2015-01-01 00:18:39.840,-0.034,0.025,0.997,-0.061,-0.061,0, , , , , , ,1.945,1.78,32.338
 13:54:32.433,eb:33:2e:f9:57:b5, 2015-01-01 00:18:39.840,-0.037,0.025,0.998,0,0,0, , , , , , ,1.945,1.78,32.338
 13:54:32.433,eb:33:2e:f9:57:b5, 2015-01-01 00:18:39.840,-0.038,0.024,0.996,-0.061,0,0, , , , , , ,1.945,1.78,32.338
 13:54:32.433,eb:33:2e:f9:57:b5, 2015-01-01 00:18:39.840,-0.037,0.023,0.995,-0.122,-0.122,0, , , , , , ,1.945,1.78,32.338
 13:54:32.478,eb:33:2e:f9:57:b5, 2015-01-01 00:18:39.840,-0.037,0.022,0.997,-0.122,-0.183,0.061, , , , , , ,1.945,1.78,32.338
 13:54:32.478,eb:33:2e:f9:57:b5, 2015-01-01 00:18:39.840,-0.035,0.022,1,0,-0.122,0.122, , , , , , ,1.945,1.78,32.338
 13:54:32.478,eb:33:2e:f9:57:b5, 2015-01-01 00:18:39.840,-0.033,0.022,1,0,-0.061,0.183, , , , , , ,1.939,1.78,32.338
 13:54:32.478,eb:33:2e:f9:57:b5, 2015-01-01 00:18:39.840,-0.034,0.023,1.002,0.061,0,0.061, , , , , , ,1.939,1.78,32.338
 13:54:32.478,eb:33:2e:f9:57:b5, 2015-01-01 00:18:39.840,-0.033,0.023,1.001,0.244,0.061,0.183, , , , , , ,1.939,1.78,32.338
 13:54:32.479,eb:33:2e:f9:57:b5, 2015-01-01 00:18:39.840,-0.032,0.024,1.001,0.305,0.183,0.122, , , , , , ,1.939,1.78,32.338
 13:54:32.479,eb:33:2e:f9:57:b5, 2015-01-01 00:18:39.840,-0.036,0.025,1,0.366,0.366,0.122, , , , , , ,1.939,1.785,32.338
 13:54:32.479,eb:33:2e:f9:57:b5, 2015-01-01 00:18:39.840,-0.036,0.023,0.999,0.427,0.366,0.183, , , , , , ,1.939,1.785,32.338
 13:54:32.521,eb:33:2e:f9:57:b5, 2015-01-01 00:18:40.155,-0.037,0.023,0.998,0.366,0.305,0.122, , , , , , ,1.939,1.785,32.338
 13:54:32.521,eb:33:2e:f9:57:b5, 2015-01-01 00:18:40.155,-0.038,0.023,0.997,0.366,0.244,0.122, , , , , , ,1.939,1.785,32.338
 13:54:32.521,eb:33:2e:f9:57:b5, 2015-01-01 00:18:40.155,-0.037,0.024,0.995,0.244,0.183,0.183, , , , , , ,1.934,1.785,32.338
 13:54:32.521,eb:33:2e:f9:57:b5, 2015-01-01 00:18:40.155,-0.038,0.025,0.994,0.244,0.061,0.244, , , , , , ,1.934,1.785,32.338
 13:54:32.521,eb:33:2e:f9:57:b5, 2015-01-01 00:18:40.155,-0.038,0.025,0.994,0.183,0,0.244, , , , , , ,1.934,1.785,32.338
 13:54:32.521,eb:33:2e:f9:57:b5, 2015-01-01 00:18:40.155,-0.036,0.024,0.993,0.061,-0.061,0.183, , , , , , ,1.934,1.785,32.338
 13:54:32.521,eb:33:2e:f9:57:b5, 2015-01-01 00:18:40.155,-0.036,0.025,0.993,0,-0.122,0.244, , , , , , ,1.934,1.785,32.338
 13:54:32.521,eb:33:2e:f9:57:b5, 2015-01-01 00:18:40.155,-0.036,0.025,0.994,-0.061,-0.183,0.122, , , , , , ,1.934,1.785,32.338
 13:54:32.566,eb:33:2e:f9:57:b5, 2015-01-01 00:18:40.155,-0.037,0.025,0.994,-0.122,-0.244,0.122, , , , , , ,1.934,1.785,32.338
 13:54:32.566,eb:33:2e:f9:57:b5, 2015-01-01 00:18:40.155,-0.036,0.026,0.994,-0.244,-0.305,0.122, , , , , , ,1.934,1.785,32.338
 13:54:32.566,eb:33:2e:f9:57:b5, 2015-01-01 00:18:40.155,-0.036,0.025,0.995,-0.244,-0.427,0.061, , , , , , ,1.928,1.791,32.338
 13:54:32.566,eb:33:2e:f9:57:b5, 2015-01-01 00:18:40.155,-0.034,0.025,0.996,-0.366,-0.427,0.061, , , , , , ,1.928,1.791,32.338
 13:54:32.566,eb:33:2e:f9:57:b5, 2015-01-01 00:18:40.155,-0.033,0.025,0.998,-0.366,-0.305,0, , , , , , ,1.928,1.791,32.338
 13:54:32.566,eb:33:2e:f9:57:b5, 2015-01-01 00:18:40.155,-0.034,0.023,1,-0.305,-0.244,0, , , , , , ,1.928,1.791,32.338
 13:54:32.566,eb:33:2e:f9:57:b5, 2015-01-01 00:18:40.155,-0.036,0.024,1,-0.183,-0.122,0, , , , , , ,1.923,1.791,32.338
 13:54:32.566,eb:33:2e:f9:57:b5, 2015-01-01 00:18:40.155,-0.036,0.023,0.999,-0.183,-0.061,0, , , , , , ,1.923,1.791,32.338
 13:54:32.589,eb:33:2e:f9:57:b5, 2015-01-01 00:18:40.155,-0.036,0.023,1,-0.122,0,0, , , , , , ,1.923,1.791,32.338
 13:54:32.589,eb:33:2e:f9:57:b5, 2015-01-01 00:18:40.155,-0.038,0.022,1,0,0,0, , , , , , ,1.923,1.791,32.338
 13:54:32.589,eb:33:2e:f9:57:b5, 2015-01-01 00:18:40.155,-0.038,0.023,0.998,0,-0.061,0.061, , , , , , ,1.923,1.791,32.338
 13:54:32.589,eb:33:2e:f9:57:b5, 2015-01-01 00:18:40.155,-0.039,0.023,0.997,0,-0.122,0.122, , , , , , ,1.923,1.791,32.338
 13:54:32.589,eb:33:2e:f9:57:b5, 2015-01-01 00:18:40.155,-0.037,0.024,0.995,0,-0.183,0.122, , , , , , ,1.923,1.791,32.338
 13:54:32.589,eb:33:2e:f9:57:b5, 2015-01-01 00:18:40.155,-0.037,0.023,0.996,0,-0.305,0.183, , , , , , ,1.923,1.791,32.338
 13:54:32.589,eb:33:2e:f9:57:b5, 2015-01-01 00:18:40.155,-0.036,0.023,0.997,0,-0.366,0.122, , , , , , ,1.917,1.791,32.338
 13:54:32.589,eb:33:2e:f9:57:b5, 2015-01-01 00:18:40.155,-0.036,0.025,0.995,0,-0.366,0.183, , , , , , ,1.917,1.791,32.338
 13:54:32.635,eb:33:2e:f9:57:b5, 2015-01-01 00:18:40.155,-0.035,0.025,0.995,-0.061,-0.366,0.122, , , , , , ,1.917,1.791,32.338
 13:54:32.635,eb:33:2e:f9:57:b5, 2015-01-01 00:18:40.155,-0.035,0.025,0.995,-0.122,-0.366,0.122, , , , , , ,1.917,1.791,32.338
 13:54:32.635,eb:33:2e:f9:57:b5, 2015-01-01 00:18:40.155,-0.035,0.026,0.994,-0.244,-0.366,0.061, , , , , , ,1.917,1.796,32.338
 13:54:32.635,eb:33:2e:f9:57:b5, 2015-01-01 00:18:40.155,-0.035,0.026,0.994,-0.305,-0.427,0, , , , , , ,1.917,1.796,32.338
 13:54:32.635,eb:33:2e:f9:57:b5, 2015-01-01 00:18:40.155,-0.035,0.026,0.993,-0.427,-0.488,0.061, , , , , , ,1.917,1.796,32.338
 13:54:32.635,eb:33:2e:f9:57:b5, 2015-01-01 00:18:40.155,-0.033,0.023,0.998,-0.366,-0.488,0.061, , , , , , ,1.917,1.796,32.338
 13:54:32.635,eb:33:2e:f9:57:b5, 2015-01-01 00:18:40.155,-0.034,0.023,1,-0.305,-0.366,0.061, , , , , , ,1.912,1.796,32.338
 13:54:32.635,eb:33:2e:f9:57:b5, 2015-01-01 00:18:40.155,-0.036,0.023,1,-0.244,-0.305,0, , , , , , ,1.912,1.796,32.338
 13:54:32.681,eb:33:2e:f9:57:b5, 2015-01-01 00:18:40.155,-0.036,0.022,0.999,-0.305,-0.305,0.061, , , , , , ,1.912,1.796,32.338
 13:54:32.681,eb:33:2e:f9:57:b5, 2015-01-01 00:18:40.155,-0.035,0.022,0.999,-0.183,-0.305,0.061, , , , , , ,1.912,1.796,32.338
 13:54:32.681,eb:33:2e:f9:57:b5, 2015-01-01 00:18:40.155,-0.033,0.022,1.002,-0.061,-0.183,0.061, , , , , , ,1.912,1.796,32.333
 13:54:32.681,eb:33:2e:f9:57:b5, 2015-01-01 00:18:40.155,-0.036,0.022,1.001,0,-0.061,0.122, , , , , , ,1.912,1.796,32.333
 13:54:32.681,eb:33:2e:f9:57:b5, 2015-01-01 00:18:40.155,-0.038,0.023,1,0,-0.061,0.122, , , , , , ,1.912,1.796,32.333
 13:54:32.681,eb:33:2e:f9:57:b5, 2015-01-01 00:18:40.155,-0.037,0.023,0.997,0.061,-0.061,0.122, , , , , , ,1.912,1.796,32.333
 13:54:32.681,eb:33:2e:f9:57:b5, 2015-01-01 00:18:40.155,-0.035,0.023,0.996,0.061,-0.183,0.183, , , , , , ,1.906,1.802,32.333
 13:54:32.681,eb:33:2e:f9:57:b5, 2015-01-01 00:18:40.155,-0.036,0.024,0.997,0,-0.122,0.122, , , , , , ,1.906,1.802,32.333
 13:54:32.748,eb:33:2e:f9:57:b5, 2015-01-01 00:18:40.155,-0.036,0.024,0.996,0.061,-0.183,0.122, , , , , , ,1.906,1.802,32.333
 13:54:32.748,eb:33:2e:f9:57:b5, 2015-01-01 00:18:40.155,-0.036,0.025,0.996,0,-0.244,0.061, , , , , , ,1.906,1.802,32.333
 13:54:32.748,eb:33:2e:f9:57:b5, 2015-01-01 00:18:40.155,-0.035,0.025,0.995,-0.122,-0.244,0.061, , , , , , ,1.906,1.802,32.333
 13:54:32.748,eb:33:2e:f9:57:b5, 2015-01-01 00:18:40.155,-0.035,0.024,0.995,-0.122,-0.244,0, , , , , , ,1.906,1.802,32.333
 13:54:32.748,eb:33:2e:f9:57:b5, 2015-01-01 00:18:40.155,-0.035,0.025,0.995,-0.183,-0.305,0, , , , , , ,1.906,1.802,32.333
 13:54:32.748,eb:33:2e:f9:57:b5, 2015-01-01 00:18:40.155,-0.035,0.025,0.995,-0.244,-0.305,0, , , , , , ,1.906,1.802,32.333
 13:54:32.748,eb:33:2e:f9:57:b5, 2015-01-01 00:18:40.155,-0.035,0.025,0.995,-0.305,-0.366,-0.061, , , , , , ,1.901,1.802,32.333
 13:54:32.748,eb:33:2e:f9:57:b5, 2015-01-01 00:18:40.155,-0.036,0.024,0.996,-0.305,-0.366,-0.061, , , , , , ,1.901,1.802,32.333
 13:54:32.770,eb:33:2e:f9:57:b5, 2015-01-01 00:18:40.155,-0.036,0.024,0.995,-0.427,-0.427,-0.061, , , , , , ,1.901,1.802,32.333
 13:54:32.771,eb:33:2e:f9:57:b5, 2015-01-01 00:18:40.155,-0.036,0.024,0.994,-0.488,-0.488,0, , , , , , ,1.901,1.802,32.333
 13:54:32.771,eb:33:2e:f9:57:b5, 2015-01-01 00:18:40.155,-0.034,0.023,0.997,-0.427,-0.488,-0.061, , , , , , ,1.901,1.802,32.333
 13:54:32.771,eb:33:2e:f9:57:b5, 2015-01-01 00:18:40.155,-0.031,0.022,1,-0.305,-0.427,-0.061, , , , , , ,1.901,1.802,32.333
 13:54:32.771,eb:33:2e:f9:57:b5, 2015-01-01 00:18:40.155,-0.033,0.021,1.004,-0.183,-0.305,0, , , , , , ,1.901,1.802,32.333
 13:54:32.771,eb:33:2e:f9:57:b5, 2015-01-01 00:18:40.155,-0.034,0.023,1.002,-0.061,-0.061,-0.061, , , , , , ,1.901,1.802,32.333
 13:54:32.771,eb:33:2e:f9:57:b5, 2015-01-01 00:18:40.155,-0.036,0.023,1,0,-0.061,-0.061, , , , , , ,1.895,1.802,32.333
 13:54:32.771,eb:33:2e:f9:57:b5, 2015-01-01 00:18:40.155,-0.035,0.023,0.999,0,0,-0.061, , , , , , ,1.895,1.802,32.333
 13:54:32.793,eb:33:2e:f9:57:b5, 2015-01-01 00:18:40.155,-0.038,0.023,0.998,0.061,0,-0.061, , , , , , ,1.895,1.802,32.333
 13:54:32.793,eb:33:2e:f9:57:b5, 2015-01-01 00:18:40.155,-0.038,0.022,0.997,0.061,-0.122,0, , , , , , ,1.895,1.802,32.333
 13:54:32.793,eb:33:2e:f9:57:b5, 2015-01-01 00:18:40.155,-0.036,0.023,0.996,0.061,-0.183,0.061, , , , , , ,1.89,1.807,32.333
 13:54:32.793,eb:33:2e:f9:57:b5, 2015-01-01 00:18:40.155,-0.035,0.023,0.997,0.061,-0.183,0, , , , , , ,1.89,1.807,32.333
 13:54:32.793,eb:33:2e:f9:57:b5, 2015-01-01 00:18:40.155,-0.034,0.024,0.998,0,-0.183,0, , , , , , ,1.89,1.807,32.333
 13:54:32.793,eb:33:2e:f9:57:b5, 2015-01-01 00:18:40.155,-0.035,0.024,0.997,0,-0.183,0, , , , , , ,1.89,1.807,32.333
 13:54:32.793,eb:33:2e:f9:57:b5, 2015-01-01 00:18:40.155,-0.035,0.024,0.995,0,-0.183,0, , , , , , ,1.89,1.807,32.333
 13:54:32.793,eb:33:2e:f9:57:b5, 2015-01-01 00:18:40.155,-0.035,0.025,0.994,-0.061,-0.244,0, , , , , , ,1.89,1.807,32.333
 13:54:32.837,eb:33:2e:f9:57:b5, 2015-01-01 00:18:40.465,-0.036,0.024,0.996,-0.183,-0.305,0, , , , , , ,1.89,1.807,32.333
 13:54:32.837,eb:33:2e:f9:57:b5, 2015-01-01 00:18:40.465,-0.035,0.023,0.995,-0.183,-0.305,0, , , , , , ,1.89,1.807,32.333
 13:54:32.837,eb:33:2e:f9:57:b5, 2015-01-01 00:18:40.465,-0.035,0.023,0.996,-0.183,-0.305,0, , , , , , ,1.884,1.807,32.333
 13:54:32.837,eb:33:2e:f9:57:b5, 2015-01-01 00:18:40.465,-0.033,0.021,0.998,-0.061,-0.305,0, , , , , , ,1.884,1.807,32.333
 13:54:32.837,eb:33:2e:f9:57:b5, 2015-01-01 00:18:40.465,-0.032,0.022,1,0,-0.244,0, , , , , , ,1.884,1.807,32.333
 13:54:32.837,eb:33:2e:f9:57:b5, 2015-01-01 00:18:40.465,-0.034,0.024,1,0,-0.122,0, , , , , , ,1.884,1.807,32.333
 13:54:32.837,eb:33:2e:f9:57:b5, 2015-01-01 00:18:40.465,-0.036,0.023,1,0,-0.061,-0.061, , , , , , ,1.884,1.807,32.333
 13:54:32.837,eb:33:2e:f9:57:b5, 2015-01-01 00:18:40.465,-0.037,0.021,0.999,0,-0.061,0, , , , , , ,1.884,1.807,32.333
 13:54:32.882,eb:33:2e:f9:57:b5, 2015-01-01 00:18:40.465,-0.035,0.021,1,0.061,-0.061,0, , , , , , ,1.884,1.807,32.333
 13:54:32.882,eb:33:2e:f9:57:b5, 2015-01-01 00:18:40.465,-0.035,0.021,1,0.122,0,0.061, , , , , , ,1.884,1.807,32.333
 13:54:32.882,eb:33:2e:f9:57:b5, 2015-01-01 00:18:40.465,-0.035,0.022,1,0.122,0,0.061, , , , , , ,1.879,1.813,32.333
 13:54:32.882,eb:33:2e:f9:57:b5, 2015-01-01 00:18:40.465,-0.035,0.023,0.998,0.183,0,0.122, , , , , , ,1.879,1.813,32.333
 13:54:32.882,eb:33:2e:f9:57:b5, 2015-01-01 00:18:40.465,-0.035,0.023,0.998,0.183,0,0, , , , , , ,1.879,1.813,32.333
 13:54:32.882,eb:33:2e:f9:57:b5, 2015-01-01 00:18:40.465,-0.035,0.023,0.997,0.122,0,0.122, , , , , , ,1.879,1.813,32.333
 13:54:32.882,eb:33:2e:f9:57:b5, 2015-01-01 00:18:40.465,-0.035,0.024,0.997,0.183,0,0.061, , , , , , ,1.879,1.813,32.333
 13:54:32.882,eb:33:2e:f9:57:b5, 2015-01-01 00:18:40.465,-0.035,0.024,0.995,0.122,-0.061,0.061, , , , , , ,1.879,1.813,32.333
 13:54:32.928,eb:33:2e:f9:57:b5, 2015-01-01 00:18:40.465,-0.034,0.024,0.996,0.061,-0.122,0.061, , , , , , ,1.879,1.813,32.333
 13:54:32.928,eb:33:2e:f9:57:b5, 2015-01-01 00:18:40.465,-0.035,0.024,0.996,0,-0.061,0, , , , , , ,1.879,1.813,32.333
 13:54:32.928,eb:33:2e:f9:57:b5, 2015-01-01 00:18:40.465,-0.034,0.024,0.996,0,-0.122,0.061, , , , , , ,1.873,1.813,32.333
 13:54:32.928,eb:33:2e:f9:57:b5, 2015-01-01 00:18:40.465,-0.034,0.024,0.996,-0.061,-0.122,0, , , , , , ,1.873,1.813,32.333
 13:54:32.928,eb:33:2e:f9:57:b5, 2015-01-01 00:18:40.465,-0.035,0.023,0.996,-0.122,-0.122,0.061, , , , , , ,1.873,1.813,32.333
 13:54:32.928,eb:33:2e:f9:57:b5, 2015-01-01 00:18:40.465,-0.035,0.023,0.997,-0.183,-0.122,0.061, , , , , , ,1.873,1.813,32.333
 13:54:32.928,eb:33:2e:f9:57:b5, 2015-01-01 00:18:40.465,-0.035,0.024,0.996,-0.122,-0.183,0, , , , , , ,1.873,1.813,32.333
 13:54:32.928,eb:33:2e:f9:57:b5, 2015-01-01 00:18:40.465,-0.034,0.023,0.997,-0.183,-0.244,0, , , , , , ,1.873,1.813,32.333
 13:54:32.973,eb:33:2e:f9:57:b5, 2015-01-01 00:18:40.465,-0.033,0.022,0.999,-0.061,-0.183,0, , , , , , ,1.873,1.813,32.333
 13:54:32.973,eb:33:2e:f9:57:b5, 2015-01-01 00:18:40.465,-0.034,0.021,1.002,0,-0.122,0, , , , , , ,1.873,1.813,32.333
 13:54:32.973,eb:33:2e:f9:57:b5, 2015-01-01 00:18:40.465,-0.035,0.022,1,0.061,0,0, , , , , , ,1.868,1.813,32.333
 13:54:32.973,eb:33:2e:f9:57:b5, 2015-01-01 00:18:40.465,-0.035,0.022,0.999,0.061,0,0.061, , , , , , ,1.868,1.813,32.333
 13:54:32.973,eb:33:2e:f9:57:b5, 2015-01-01 00:18:40.465,-0.037,0.022,0.998,0.061,0,0.061, , , , , , ,1.868,1.813,32.333
 13:54:32.973,eb:33:2e:f9:57:b5, 2015-01-01 00:18:40.465,-0.036,0.022,0.996,0.061,-0.061,0.122, , , , , , ,1.868,1.813,32.333
 13:54:32.973,eb:33:2e:f9:57:b5, 2015-01-01 00:18:40.465,-0.033,0.023,0.997,0.061,-0.122,0.183, , , , , , ,1.868,1.818,32.333
 13:54:32.973,eb:33:2e:f9:57:b5, 2015-01-01 00:18:40.465,-0.033,0.023,0.999,0.122,0,0.122, , , , , , ,1.868,1.818,32.333
 13:54:32.995,eb:33:2e:f9:57:b5, 2015-01-01 00:18:40.465,-0.035,0.023,0.997,0.061,0,0.183, , , , , , ,1.868,1.818,32.333
 13:54:32.995,eb:33:2e:f9:57:b5, 2015-01-01 00:18:40.465,-0.034,0.024,0.995,0,0,0.122, , , , , , ,1.868,1.818,32.333
 13:54:32.995,eb:33:2e:f9:57:b5, 2015-01-01 00:18:40.465,-0.036,0.024,0.995,0,0,0.061, , , , , , ,1.862,1.818,32.333
 13:54:32.995,eb:33:2e:f9:57:b5, 2015-01-01 00:18:40.465,-0.036,0.024,0.995,0,0,0.122, , , , , , ,1.862,1.818,32.333
 13:54:32.995,eb:33:2e:f9:57:b5, 2015-01-01 00:18:40.465,-0.035,0.023,0.995,0,-0.061,0.122, , , , , , ,1.862,1.818,32.333
 13:54:32.995,eb:33:2e:f9:57:b5, 2015-01-01 00:18:40.465,-0.035,0.024,0.995,-0.061,-0.061,0.061, , , , , , ,1.862,1.818,32.333
 13:54:32.995,eb:33:2e:f9:57:b5, 2015-01-01 00:18:40.465,-0.035,0.024,0.996,-0.061,-0.122,0.122, , , , , , ,1.857,1.818,32.333
 13:54:32.995,eb:33:2e:f9:57:b5, 2015-01-01 00:18:40.465,-0.033,0.022,0.999,-0.061,-0.183,0.061, , , , , , ,1.857,1.818,32.333
 13:54:33.040,eb:33:2e:f9:57:b5, 2015-01-01 00:18:40.465,-0.036,0.023,0.998,-0.061,-0.183,0.061, , , , , , ,1.857,1.818,32.333
 13:54:33.040,eb:33:2e:f9:57:b5, 2015-01-01 00:18:40.465,-0.035,0.023,0.999,-0.061,-0.122,0, , , , , , ,1.857,1.818,32.333
 13:54:33.040,eb:33:2e:f9:57:b5, 2015-01-01 00:18:40.465,-0.036,0.023,0.998,-0.122,-0.061,0, , , , , , ,1.857,1.818,32.333
 13:54:33.040,eb:33:2e:f9:57:b5, 2015-01-01 00:18:40.465,-0.036,0.022,0.997,-0.061,-0.122,0.061, , , , , , ,1.857,1.818,32.333
 13:54:33.040,eb:33:2e:f9:57:b5, 2015-01-01 00:18:40.465,-0.036,0.023,0.997,-0.061,-0.183,0, , , , , , ,1.857,1.818,32.333
 13:54:33.040,eb:33:2e:f9:57:b5, 2015-01-01 00:18:40.465,-0.036,0.023,0.998,-0.061,-0.183,0.061, , , , , , ,1.857,1.818,32.333
 13:54:33.040,eb:33:2e:f9:57:b5, 2015-01-01 00:18:40.465,-0.032,0.022,0.997,-0.061,-0.183,0.122, , , , , , ,1.851,1.818,32.333
 13:54:33.040,eb:33:2e:f9:57:b5, 2015-01-01 00:18:40.465,-0.032,0.023,1,0,-0.061,0.061, , , , , , ,1.851,1.818,32.333
 13:54:33.086,eb:33:2e:f9:57:b5, 2015-01-01 00:18:40.465,-0.036,0.022,0.999,0,-0.061,0.122, , , , , , ,1.851,1.818,32.333
 13:54:33.086,eb:33:2e:f9:57:b5, 2015-01-01 00:18:40.465,-0.038,0.023,0.996,0,-0.061,0.122, , , , , , ,1.851,1.818,32.333
 13:54:33.086,eb:33:2e:f9:57:b5, 2015-01-01 00:18:40.465,-0.036,0.022,0.994,0,-0.122,0.244, , , , , , ,1.851,1.824,32.333
 13:54:33.086,eb:33:2e:f9:57:b5, 2015-01-01 00:18:40.465,-0.032,0.024,0.995,0,-0.183,0.183, , , , , , ,1.851,1.824,32.333
 13:54:33.086,eb:33:2e:f9:57:b5, 2015-01-01 00:18:40.465,-0.034,0.022,0.999,0,-0.122,0.183, , , , , , ,1.851,1.824,32.333
 13:54:33.086,eb:33:2e:f9:57:b5, 2015-01-01 00:18:40.465,-0.036,0.023,0.996,0,-0.122,0.183, , , , , , ,1.851,1.824,32.333
 13:54:33.086,eb:33:2e:f9:57:b5, 2015-01-01 00:18:40.465,-0.036,0.023,0.995,0,-0.183,0.122, , , , , , ,1.846,1.824,32.333
 13:54:33.086,eb:33:2e:f9:57:b5, 2015-01-01 00:18:40.465,-0.035,0.023,0.995,-0.122,-0.244,0.183, , , , , , ,1.846,1.824,32.333
 13:54:33.130,eb:33:2e:f9:57:b5, 2015-01-01 00:18:40.760,-0.034,0.023,0.996,-0.061,-0.366,0.122, , , , , , ,1.846,1.824,32.333
 13:54:33.130,eb:33:2e:f9:57:b5, 2015-01-01 00:18:40.760,-0.034,0.023,0.998,-0.061,-0.244,0.122, , , , , , ,1.846,1.824,32.333
 13:54:33.130,eb:33:2e:f9:57:b5, 2015-01-01 00:18:40.760,-0.036,0.023,0.999,-0.061,-0.183,0.061, , , , , , ,1.846,1.824,32.333
 13:54:33.130,eb:33:2e:f9:57:b5, 2015-01-01 00:18:40.760,-0.036,0.023,0.998,-0.061,-0.183,0.061, , , , , , ,1.846,1.824,32.333
 13:54:33.130,eb:33:2e:f9:57:b5, 2015-01-01 00:18:40.760,-0.036,0.022,0.997,0,-0.244,0.122, , , , , , ,1.846,1.824,32.333
 13:54:33.130,eb:33:2e:f9:57:b5, 2015-01-01 00:18:40.760,-0.037,0.022,0.997,-0.061,-0.305,0.122, , , , , , ,1.846,1.824,32.333
 13:54:33.130,eb:33:2e:f9:57:b5, 2015-01-01 00:18:40.760,-0.036,0.022,0.996,-0.122,-0.366,0.183, , , , , , ,1.84,1.824,32.333
 13:54:33.130,eb:33:2e:f9:57:b5, 2015-01-01 00:18:40.760,-0.036,0.022,0.995,-0.122,-0.427,0.183, , , , , , ,1.84,1.824,32.333
 13:54:33.175,eb:33:2e:f9:57:b5, 2015-01-01 00:18:40.760,-0.034,0.023,0.996,-0.122,-0.427,0.183, , , , , , ,1.84,1.824,32.333
 13:54:33.175,eb:33:2e:f9:57:b5, 2015-01-01 00:18:40.760,-0.033,0.024,0.996,-0.183,-0.427,0.183, , , , , , ,1.84,1.824,32.333
 13:54:33.175,eb:33:2e:f9:57:b5, 2015-01-01 00:18:40.760,-0.032,0.023,0.998,-0.183,-0.427,0.244, , , , , , ,1.84,1.824,32.333
 13:54:33.175,eb:33:2e:f9:57:b5, 2015-01-01 00:18:40.760,-0.032,0.023,1,-0.122,-0.366,0.122, , , , , , ,1.84,1.824,32.333
 13:54:33.175,eb:33:2e:f9:57:b5, 2015-01-01 00:18:40.760,-0.034,0.022,1.001,-0.122,-0.183,0.122, , , , , , ,1.84,1.824,32.333
 13:54:33.175,eb:33:2e:f9:57:b5, 2015-01-01 00:18:40.760,-0.032,0.022,1.001,0,-0.061,0.122, , , , , , ,1.84,1.824,32.333
 13:54:33.175,eb:33:2e:f9:57:b5, 2015-01-01 00:18:40.760,-0.033,0.023,1,0,0,0.061, , , , , , ,1.835,1.824,32.333
 13:54:33.176,eb:33:2e:f9:57:b5, 2015-01-01 00:18:40.760,-0.037,0.023,1,0,0,0.122, , , , , , ,1.835,1.824,32.333
 13:54:33.196,eb:33:2e:f9:57:b5, 2015-01-01 00:18:40.760,-0.038,0.023,0.997,0.061,0,0.061, , , , , , ,1.835,1.824,32.333
 13:54:33.196,eb:33:2e:f9:57:b5, 2015-01-01 00:18:40.760,-0.037,0.022,0.995,0.061,-0.061,0.122, , , , , , ,1.835,1.824,32.333
 13:54:33.196,eb:33:2e:f9:57:b5, 2015-01-01 00:18:40.760,-0.036,0.022,0.996,0.061,-0.122,0.061, , , , , , ,1.835,1.829,32.333
 13:54:33.196,eb:33:2e:f9:57:b5, 2015-01-01 00:18:40.760,-0.035,0.022,0.997,0.061,-0.183,0.122, , , , , , ,1.835,1.829,32.333
 13:54:33.196,eb:33:2e:f9:57:b5, 2015-01-01 00:18:40.760,-0.036,0.023,0.997,0,-0.244,0.061, , , , , , ,1.835,1.829,32.333
 13:54:33.196,eb:33:2e:f9:57:b5, 2015-01-01 00:18:40.760,-0.036,0.023,0.996,0,-0.244,0.122, , , , , , ,1.835,1.829,32.333
 13:54:33.196,eb:33:2e:f9:57:b5, 2015-01-01 00:18:40.760,-0.035,0.023,0.995,0,-0.305,0.183, , , , , , ,1.829,1.829,32.333
 13:54:33.196,eb:33:2e:f9:57:b5, 2015-01-01 00:18:40.760,-0.034,0.023,0.995,0,-0.366,0.183, , , , , , ,1.829,1.829,32.333
 13:54:33.241,eb:33:2e:f9:57:b5, 2015-01-01 00:18:40.760,-0.033,0.024,0.996,-0.122,-0.366,0.122, , , , , , ,1.829,1.829,32.333
 13:54:33.241,eb:33:2e:f9:57:b5, 2015-01-01 00:18:40.760,-0.033,0.023,0.997,-0.061,-0.305,0.122, , , , , , ,1.829,1.829,32.333
 13:54:33.241,eb:33:2e:f9:57:b5, 2015-01-01 00:18:40.760,-0.033,0.023,0.998,-0.122,-0.305,0.122, , , , , , ,1.829,1.829,32.333
 13:54:33.241,eb:33:2e:f9:57:b5, 2015-01-01 00:18:40.760,-0.033,0.023,0.998,-0.122,-0.183,0.061, , , , , , ,1.829,1.829,32.333
 13:54:33.241,eb:33:2e:f9:57:b5, 2015-01-01 00:18:40.760,-0.034,0.022,1,-0.061,-0.122,0, , , , , , ,1.829,1.829,32.333
 13:54:33.241,eb:33:2e:f9:57:b5, 2015-01-01 00:18:40.760,-0.034,0.022,1,0,-0.061,0.061, , , , , , ,1.829,1.829,32.333
 13:54:33.241,eb:33:2e:f9:57:b5, 2015-01-01 00:18:40.760,-0.034,0.022,0.999,0,-0.061,0.061, , , , , , ,1.824,1.829,32.333
 13:54:33.241,eb:33:2e:f9:57:b5, 2015-01-01 00:18:40.760,-0.036,0.023,0.998,0,-0.061,0.122, , , , , , ,1.824,1.829,32.333
 13:54:33.287,eb:33:2e:f9:57:b5, 2015-01-01 00:18:40.760,-0.036,0.022,0.998,0.061,-0.061,0.122, , , , , , ,1.824,1.829,32.333
 13:54:33.287,eb:33:2e:f9:57:b5, 2015-01-01 00:18:40.760,-0.035,0.022,0.997,0.061,-0.061,0.122, , , , , , ,1.824,1.829,32.333
 13:54:33.287,eb:33:2e:f9:57:b5, 2015-01-01 00:18:40.760,-0.035,0.024,0.996,0,-0.183,0.122, , , , , , ,1.824,1.829,32.333
 13:54:33.287,eb:33:2e:f9:57:b5, 2015-01-01 00:18:40.760,-0.034,0.023,0.995,-0.061,-0.183,0.122, , , , , , ,1.824,1.829,32.333
 13:54:33.287,eb:33:2e:f9:57:b5, 2015-01-01 00:18:40.760,-0.034,0.024,0.995,-0.061,-0.244,0.122, , , , , , ,1.824,1.829,32.333
 13:54:33.287,eb:33:2e:f9:57:b5, 2015-01-01 00:18:40.760,-0.033,0.024,0.996,-0.061,-0.305,0.122, , , , , , ,1.824,1.829,32.333
 13:54:33.287,eb:33:2e:f9:57:b5, 2015-01-01 00:18:40.760,-0.033,0.023,0.997,-0.061,-0.183,0.061, , , , , , ,1.818,1.829,32.333
 13:54:33.287,eb:33:2e:f9:57:b5, 2015-01-01 00:18:40.760,-0.033,0.023,0.998,-0.122,-0.122,0.122, , , , , , ,1.818,1.829,32.333
 13:54:33.333,eb:33:2e:f9:57:b5, 2015-01-01 00:18:40.760,-0.034,0.023,0.999,-0.183,-0.061,0.061, , , , , , ,1.818,1.829,32.333
 13:54:33.333,eb:33:2e:f9:57:b5, 2015-01-01 00:18:40.760,-0.035,0.023,0.998,-0.122,0,0, , , , , , ,1.818,1.829,32.333
 13:54:33.333,eb:33:2e:f9:57:b5, 2015-01-01 00:18:40.760,-0.034,0.022,0.998,-0.122,0,0, , , , , , ,1.818,1.835,32.333
 13:54:33.333,eb:33:2e:f9:57:b5, 2015-01-01 00:18:40.760,-0.035,0.022,0.998,-0.122,-0.061,0, , , , , , ,1.818,1.835,32.333
 13:54:33.333,eb:33:2e:f9:57:b5, 2015-01-01 00:18:40.760,-0.037,0.023,0.997,-0.122,-0.061,0.061, , , , , , ,1.818,1.835,32.333
 13:54:33.333,eb:33:2e:f9:57:b5, 2015-01-01 00:18:40.760,-0.037,0.022,0.997,-0.122,-0.183,0.061, , , , , , ,1.818,1.835,32.333
 13:54:33.333,eb:33:2e:f9:57:b5, 2015-01-01 00:18:40.760,-0.035,0.022,0.996,-0.122,-0.244,0.183, , , , , , ,1.813,1.835,32.333
 13:54:33.333,eb:33:2e:f9:57:b5, 2015-01-01 00:18:40.760,-0.034,0.022,0.997,-0.122,-0.305,0.183, , , , , , ,1.813,1.835,32.333
 13:54:33.355,eb:33:2e:f9:57:b5, 2015-01-01 00:18:40.760,-0.034,0.022,0.998,-0.122,-0.305,0.183, , , , , , ,1.813,1.835,32.333
 13:54:33.355,eb:33:2e:f9:57:b5, 2015-01-01 00:18:40.760,-0.034,0.022,0.999,-0.122,-0.244,0.183, , , , , , ,1.813,1.835,32.333
 13:54:33.355,eb:33:2e:f9:57:b5, 2015-01-01 00:18:40.760,-0.034,0.022,0.998,-0.061,-0.183,0.183, , , , , , ,1.813,1.835,32.333
 13:54:33.355,eb:33:2e:f9:57:b5, 2015-01-01 00:18:40.760,-0.033,0.023,0.996,-0.061,-0.183,0.183, , , , , , ,1.813,1.835,32.333
 13:54:33.355,eb:33:2e:f9:57:b5, 2015-01-01 00:18:40.760,-0.034,0.022,0.998,-0.061,-0.183,0.122, , , , , , ,1.813,1.835,32.333
 13:54:33.355,eb:33:2e:f9:57:b5, 2015-01-01 00:18:40.760,-0.034,0.022,0.998,-0.061,-0.183,0.183, , , , , , ,1.813,1.835,32.333
 13:54:33.355,eb:33:2e:f9:57:b5, 2015-01-01 00:18:40.760,-0.033,0.023,0.998,-0.061,-0.122,0.061, , , , , , ,1.807,1.835,32.333
 13:54:33.355,eb:33:2e:f9:57:b5, 2015-01-01 00:18:40.760,-0.034,0.024,0.997,0,-0.061,0.122, , , , , , ,1.807,1.835,32.333
 13:54:33.423,eb:33:2e:f9:57:b5, 2015-01-01 00:18:40.760,-0.035,0.023,0.996,-0.061,-0.061,0.061, , , , , , ,1.807,1.835,32.333
 13:54:33.423,eb:33:2e:f9:57:b5, 2015-01-01 00:18:40.760,-0.036,0.022,0.996,-0.122,-0.122,0.061, , , , , , ,1.807,1.835,32.333
 13:54:33.423,eb:33:2e:f9:57:b5, 2015-01-01 00:18:40.760,-0.034,0.022,0.995,-0.183,-0.183,0.061, , , , , , ,1.807,1.835,32.333
 13:54:33.423,eb:33:2e:f9:57:b5, 2015-01-01 00:18:40.760,-0.034,0.023,0.996,-0.183,-0.244,0.061, , , , , , ,1.807,1.835,32.333
 13:54:33.423,eb:33:2e:f9:57:b5, 2015-01-01 00:18:40.760,-0.034,0.023,0.997,-0.244,-0.183,0.061, , , , , , ,1.807,1.835,32.333
 13:54:33.423,eb:33:2e:f9:57:b5, 2015-01-01 00:18:40.760,-0.034,0.023,0.996,-0.244,-0.183,0.061, , , , , , ,1.807,1.835,32.333
 13:54:33.423,eb:33:2e:f9:57:b5, 2015-01-01 00:18:40.760,-0.034,0.022,0.996,-0.244,-0.183,0, , , , , , ,1.802,1.835,32.333
 13:54:33.423,eb:33:2e:f9:57:b5, 2015-01-01 00:18:40.760,-0.034,0.022,0.995,-0.305,-0.244,0, , , , , , ,1.802,1.835,32.333
 13:54:33.446,eb:33:2e:f9:57:b5, 2015-01-01 00:18:41.050,-0.033,0.022,0.997,-0.305,-0.244,0, , , , , , ,1.802,1.835,32.333
 13:54:33.446,eb:33:2e:f9:57:b5, 2015-01-01 00:18:41.050,-0.033,0.021,0.998,-0.244,-0.244,0, , , , , , ,1.802,1.835,32.333
 13:54:33.446,eb:33:2e:f9:57:b5, 2015-01-01 00:18:41.050,-0.033,0.022,0.999,-0.244,-0.244,0, , , , , , ,1.802,1.835,32.333
 13:54:33.446,eb:33:2e:f9:57:b5, 2015-01-01 00:18:41.050,-0.033,0.02,1,-0.061,-0.183,0.061, , , , , , ,1.802,1.835,32.333
 13:54:33.446,eb:33:2e:f9:57:b5, 2015-01-01 00:18:41.050,-0.034,0.021,1.001,0,-0.183,0.122, , , , , , ,1.802,1.835,32.333
 13:54:33.446,eb:33:2e:f9:57:b5, 2015-01-01 00:18:41.050,-0.035,0.022,1,0,-0.122,0.183, , , , , , ,1.802,1.835,32.333
 13:54:33.446,eb:33:2e:f9:57:b5, 2015-01-01 00:18:41.050,-0.036,0.022,0.998,0.061,-0.122,0.183, , , , , , ,1.796,1.84,32.333
 13:54:33.446,eb:33:2e:f9:57:b5, 2015-01-01 00:18:41.050,-0.035,0.022,0.996,0.061,-0.244,0.183, , , , , , ,1.796,1.84,32.333
 13:54:33.490,eb:33:2e:f9:57:b5, 2015-01-01 00:18:41.050,-0.032,0.022,0.998,0.061,-0.305,0.244, , , , , , ,1.796,1.84,32.333
 13:54:33.490,eb:33:2e:f9:57:b5, 2015-01-01 00:18:41.050,-0.03,0.023,0.999,0.122,-0.244,0.183, , , , , , ,1.796,1.84,32.333
 13:54:33.490,eb:33:2e:f9:57:b5, 2015-01-01 00:18:41.050,-0.032,0.024,1,0.122,-0.122,0.061, , , , , , ,1.796,1.84,32.333
 13:54:33.490,eb:33:2e:f9:57:b5, 2015-01-01 00:18:41.050,-0.038,0.022,0.998,0.061,-0.061,0.061, , , , , , ,1.796,1.84,32.333
 13:54:33.490,eb:33:2e:f9:57:b5, 2015-01-01 00:18:41.050,-0.034,0.024,0.992,0,-0.244,0.122, , , , , , ,1.796,1.84,32.333
 13:54:33.490,eb:33:2e:f9:57:b5, 2015-01-01 00:18:41.050,-0.031,0.023,0.997,0,-0.244,0.061, , , , , , ,1.796,1.84,32.333
 13:54:33.490,eb:33:2e:f9:57:b5, 2015-01-01 00:18:41.050,-0.03,0.023,0.998,-0.061,-0.183,0.122, , , , , , ,1.791,1.84,32.333
 13:54:33.491,eb:33:2e:f9:57:b5, 2015-01-01 00:18:41.050,-0.033,0.024,0.998,-0.061,-0.061,0.061, , , , , , ,1.791,1.84,32.333
 13:54:33.535,eb:33:2e:f9:57:b5, 2015-01-01 00:18:41.050,-0.035,0.023,0.997,-0.122,-0.061,0.061, , , , , , ,1.791,1.84,32.333
 13:54:33.535,eb:33:2e:f9:57:b5, 2015-01-01 00:18:41.050,-0.034,0.023,0.995,-0.122,-0.061,0.061, , , , , , ,1.791,1.84,32.333
 13:54:33.535,eb:33:2e:f9:57:b5, 2015-01-01 00:18:41.050,-0.032,0.023,0.995,-0.183,-0.061,0, , , , , , ,1.791,1.84,32.333
 13:54:33.535,eb:33:2e:f9:57:b5, 2015-01-01 00:18:41.050,-0.032,0.022,0.997,-0.244,-0.061,0, , , , , , ,1.791,1.84,32.333
 13:54:33.535,eb:33:2e:f9:57:b5, 2015-01-01 00:18:41.050,-0.035,0.022,0.997,-0.244,0,0, , , , , , ,1.791,1.84,32.333
 13:54:33.535,eb:33:2e:f9:57:b5, 2015-01-01 00:18:41.050,-0.035,0.021,0.998,-0.122,-0.061,0, , , , , , ,1.791,1.84,32.333
 13:54:33.535,eb:33:2e:f9:57:b5, 2015-01-01 00:18:41.050,-0.036,0.021,0.997,-0.122,-0.122,0, , , , , , ,1.785,1.84,32.333
 13:54:33.535,eb:33:2e:f9:57:b5, 2015-01-01 00:18:41.050,-0.034,0.022,0.997,-0.183,-0.122,0.061, , , , , , ,1.785,1.84,32.333
 13:54:33.557,eb:33:2e:f9:57:b5, 2015-01-01 00:18:41.050,-0.034,0.021,0.997,-0.183,-0.244,0.061, , , , , , ,1.785,1.84,32.333
 13:54:33.557,eb:33:2e:f9:57:b5, 2015-01-01 00:18:41.050,-0.033,0.021,0.999,-0.061,-0.183,0.061, , , , , , ,1.785,1.84,32.333
 13:54:33.557,eb:33:2e:f9:57:b5, 2015-01-01 00:18:41.050,-0.032,0.021,1,0,-0.183,0.061, , , , , , ,1.785,1.84,32.333
 13:54:33.557,eb:33:2e:f9:57:b5, 2015-01-01 00:18:41.050,-0.033,0.021,0.999,0,-0.122,0.183, , , , , , ,1.785,1.84,32.333
 13:54:33.557,eb:33:2e:f9:57:b5, 2015-01-01 00:18:41.050,-0.034,0.022,0.997,0,-0.122,0.183, , , , , , ,1.785,1.84,32.333
 13:54:33.557,eb:33:2e:f9:57:b5, 2015-01-01 00:18:41.050,-0.033,0.023,0.997,0,-0.183,0.122, , , , , , ,1.785,1.84,32.333
 13:54:33.557,eb:33:2e:f9:57:b5, 2015-01-01 00:18:41.050,-0.032,0.022,0.998,0,-0.122,0.122, , , , , , ,1.78,1.84,32.327
 13:54:33.557,eb:33:2e:f9:57:b5, 2015-01-01 00:18:41.050,-0.032,0.022,0.998,0,-0.061,0.122, , , , , , ,1.78,1.84,32.327
 13:54:33.604,eb:33:2e:f9:57:b5, 2015-01-01 00:18:41.050,-0.033,0.022,0.998,0,0,0.122, , , , , , ,1.78,1.84,32.327
 13:54:33.604,eb:33:2e:f9:57:b5, 2015-01-01 00:18:41.050,-0.033,0.023,0.997,0,0,0.122, , , , , , ,1.78,1.84,32.327
 13:54:33.604,eb:33:2e:f9:57:b5, 2015-01-01 00:18:41.050,-0.034,0.023,0.997,0,0,0.061, , , , , , ,1.78,1.84,32.327
 13:54:33.604,eb:33:2e:f9:57:b5, 2015-01-01 00:18:41.050,-0.035,0.023,0.995,-0.061,0,0.061, , , , , , ,1.78,1.84,32.327
 13:54:33.604,eb:33:2e:f9:57:b5, 2015-01-01 00:18:41.050,-0.034,0.023,0.995,-0.183,0,0.061, , , , , , ,1.78,1.84,32.327
 13:54:33.604,eb:33:2e:f9:57:b5, 2015-01-01 00:18:41.050,-0.033,0.022,0.996,-0.061,-0.061,0.061, , , , , , ,1.78,1.84,32.327
 13:54:33.604,eb:33:2e:f9:57:b5, 2015-01-01 00:18:41.050,-0.031,0.021,0.999,-0.061,-0.061,0.061, , , , , , ,1.774,1.84,32.327
 13:54:33.604,eb:33:2e:f9:57:b5, 2015-01-01 00:18:41.050,-0.034,0.022,1,0,0,0, , , , , , ,1.774,1.84,32.327
 13:54:33.647,eb:33:2e:f9:57:b5, 2015-01-01 00:18:41.050,-0.037,0.022,0.997,0,0.061,0, , , , , , ,1.774,1.84,32.327
 13:54:33.647,eb:33:2e:f9:57:b5, 2015-01-01 00:18:41.050,-0.036,0.022,0.994,0,-0.061,0.061, , , , , , ,1.774,1.84,32.327
 13:54:33.647,eb:33:2e:f9:57:b5, 2015-01-01 00:18:41.050,-0.034,0.021,0.996,0,-0.122,0.061, , , , , , ,1.774,1.84,32.327
 13:54:33.647,eb:33:2e:f9:57:b5, 2015-01-01 00:18:41.050,-0.032,0.021,0.998,0,-0.122,0.183, , , , , , ,1.774,1.84,32.327
 13:54:33.647,eb:33:2e:f9:57:b5, 2015-01-01 00:18:41.050,-0.033,0.022,0.999,0,-0.061,0.122, , , , , , ,1.774,1.84,32.327
 13:54:33.647,eb:33:2e:f9:57:b5, 2015-01-01 00:18:41.050,-0.035,0.022,0.997,0,-0.122,0.122, , , , , , ,1.774,1.84,32.327
 13:54:33.647,eb:33:2e:f9:57:b5, 2015-01-01 00:18:41.050,-0.034,0.022,0.995,0,-0.183,0.122, , , , , , ,1.769,1.846,32.327
 13:54:33.647,eb:33:2e:f9:57:b5, 2015-01-01 00:18:41.050,-0.033,0.022,0.996,0,-0.183,0.122, , , , , , ,1.769,1.846,32.327
 13:54:33.693,eb:33:2e:f9:57:b5, 2015-01-01 00:18:41.050,-0.033,0.022,0.997,0,-0.183,0.122, , , , , , ,1.769,1.846,32.327
 13:54:33.693,eb:33:2e:f9:57:b5, 2015-01-01 00:18:41.050,-0.032,0.023,0.997,-0.122,-0.122,0.061, , , , , , ,1.769,1.846,32.327
 13:54:33.693,eb:33:2e:f9:57:b5, 2015-01-01 00:18:41.050,-0.033,0.023,0.997,-0.122,-0.122,0.061, , , , , , ,1.769,1.846,32.327
 13:54:33.693,eb:33:2e:f9:57:b5, 2015-01-01 00:18:41.050,-0.033,0.022,0.996,-0.122,-0.061,0.061, , , , , , ,1.769,1.846,32.327
 13:54:33.693,eb:33:2e:f9:57:b5, 2015-01-01 00:18:41.050,-0.032,0.022,0.997,-0.183,-0.122,0, , , , , , ,1.769,1.846,32.327
 13:54:33.693,eb:33:2e:f9:57:b5, 2015-01-01 00:18:41.050,-0.032,0.022,0.998,-0.183,0,0, , , , , , ,1.769,1.846,32.327
 13:54:33.693,eb:33:2e:f9:57:b5, 2015-01-01 00:18:41.050,-0.033,0.022,0.999,-0.183,0,0, , , , , , ,1.763,1.846,32.327
 13:54:33.693,eb:33:2e:f9:57:b5, 2015-01-01 00:18:41.050,-0.033,0.021,0.998,-0.122,0,0, , , , , , ,1.763,1.846,32.327
 13:54:33.737,eb:33:2e:f9:57:b5, 2015-01-01 00:18:41.050,-0.033,0.021,0.997,-0.122,0,0.061, , , , , , ,1.763,1.846,32.327
 13:54:33.737,eb:33:2e:f9:57:b5, 2015-01-01 00:18:41.050,-0.033,0.022,0.999,-0.122,0,0, , , , , , ,1.763,1.846,32.327
 13:54:33.737,eb:33:2e:f9:57:b5, 2015-01-01 00:18:41.050,-0.035,0.022,0.998,-0.122,0.061,0, , , , , , ,1.763,1.846,32.327
 13:54:33.737,eb:33:2e:f9:57:b5, 2015-01-01 00:18:41.050,-0.037,0.021,0.996,-0.122,0,0, , , , , , ,1.763,1.846,32.327
 13:54:33.737,eb:33:2e:f9:57:b5, 2015-01-01 00:18:41.050,-0.034,0.021,0.995,-0.122,-0.183,0.061, , , , , , ,1.763,1.846,32.327
 13:54:33.737,eb:33:2e:f9:57:b5, 2015-01-01 00:18:41.050,-0.031,0.022,0.998,-0.122,-0.183,0, , , , , , ,1.763,1.846,32.327
 13:54:33.737,eb:33:2e:f9:57:b5, 2015-01-01 00:18:41.050,-0.033,0.021,1,-0.061,0,0, , , , , , ,1.758,1.846,32.327
 13:54:33.737,eb:33:2e:f9:57:b5, 2015-01-01 00:18:41.050,-0.036,0.021,0.997,0,0,0.061, , , , , , ,1.758,1.846,32.327
 13:54:33.760,eb:33:2e:f9:57:b5, 2015-01-01 00:18:41.405,-0.035,0.021,0.996,-0.061,-0.061,0.122, , , , , , ,1.758,1.846,32.327
 13:54:33.760,eb:33:2e:f9:57:b5, 2015-01-01 00:18:41.405,-0.032,0.021,0.996,-0.122,-0.183,0.061, , , , , , ,1.758,1.846,32.327
 13:54:33.760,eb:33:2e:f9:57:b5, 2015-01-01 00:18:41.405,-0.031,0.022,0.999,-0.061,-0.122,0.061, , , , , , ,1.758,1.846,32.327
 13:54:33.760,eb:33:2e:f9:57:b5, 2015-01-01 00:18:41.405,-0.033,0.022,0.999,0,0,0.061, , , , , , ,1.758,1.846,32.327
 13:54:33.760,eb:33:2e:f9:57:b5, 2015-01-01 00:18:41.405,-0.036,0.021,0.997,-0.061,-0.061,0.061, , , , , , ,1.758,1.846,32.327
 13:54:33.760,eb:33:2e:f9:57:b5, 2015-01-01 00:18:41.405,-0.032,0.023,0.995,-0.061,-0.122,0, , , , , , ,1.758,1.846,32.327
 13:54:33.760,eb:33:2e:f9:57:b5, 2015-01-01 00:18:41.405,-0.034,0.022,0.998,-0.122,-0.061,0, , , , , , ,1.752,1.846,32.327
 13:54:33.760,eb:33:2e:f9:57:b5, 2015-01-01 00:18:41.405,-0.035,0.023,0.995,-0.122,-0.122,0.122, , , , , , ,1.752,1.846,32.327
 13:54:33.804,eb:33:2e:f9:57:b5, 2015-01-01 00:18:41.405,-0.033,0.021,0.997,-0.122,-0.122,0, , , , , , ,1.752,1.846,32.327
 13:54:33.804,eb:33:2e:f9:57:b5, 2015-01-01 00:18:41.405,-0.032,0.02,1,0,-0.122,0.122, , , , , , ,1.752,1.846,32.327
 13:54:33.804,eb:33:2e:f9:57:b5, 2015-01-01 00:18:41.405,-0.03,0.021,1,0,0,0.122, , , , , , ,1.752,1.846,32.327
 13:54:33.804,eb:33:2e:f9:57:b5, 2015-01-01 00:18:41.405,-0.033,0.022,1.001,0.122,0.122,0.061, , , , , , ,1.752,1.846,32.327
 13:54:33.804,eb:33:2e:f9:57:b5, 2015-01-01 00:18:41.405,-0.036,0.021,1,0.122,0.183,0.061, , , , , , ,1.752,1.846,32.327
 13:54:33.804,eb:33:2e:f9:57:b5, 2015-01-01 00:18:41.405,-0.036,0.021,0.997,0.183,0.122,0.122, , , , , , ,1.752,1.846,32.327
 13:54:33.805,eb:33:2e:f9:57:b5, 2015-01-01 00:18:41.405,-0.036,0.021,0.995,0.122,0.061,0.122, , , , , , ,1.747,1.846,32.327
 13:54:33.805,eb:33:2e:f9:57:b5, 2015-01-01 00:18:41.405,-0.033,0.021,0.995,0.122,0,0.183, , , , , , ,1.747,1.846,32.327
 13:54:33.851,eb:33:2e:f9:57:b5, 2015-01-01 00:18:41.405,-0.033,0.021,0.998,0.061,0,0.122, , , , , , ,1.747,1.846,32.327
 13:54:33.851,eb:33:2e:f9:57:b5, 2015-01-01 00:18:41.405,-0.035,0.022,0.997,0.122,-0.061,0.122, , , , , , ,1.747,1.846,32.327
 13:54:33.851,eb:33:2e:f9:57:b5, 2015-01-01 00:18:41.405,-0.034,0.022,0.995,0.122,-0.122,0.061, , , , , , ,1.747,1.846,32.327
 13:54:33.851,eb:33:2e:f9:57:b5, 2015-01-01 00:18:41.405,-0.033,0.021,0.996,0.061,-0.061,0.122, , , , , , ,1.747,1.846,32.327
 13:54:33.851,eb:33:2e:f9:57:b5, 2015-01-01 00:18:41.405,-0.033,0.022,0.998,0.061,-0.122,0.122, , , , , , ,1.747,1.846,32.327
 13:54:33.851,eb:33:2e:f9:57:b5, 2015-01-01 00:18:41.405,-0.035,0.022,0.997,0.061,-0.061,0.122, , , , , , ,1.747,1.846,32.327
 13:54:33.851,eb:33:2e:f9:57:b5, 2015-01-01 00:18:41.405,-0.034,0.022,0.996,0,-0.122,0.122, , , , , , ,1.741,1.846,32.327
 13:54:33.851,eb:33:2e:f9:57:b5, 2015-01-01 00:18:41.405,-0.032,0.022,0.996,0,-0.183,0.061, , , , , , ,1.741,1.846,32.327
 13:54:33.894,eb:33:2e:f9:57:b5, 2015-01-01 00:18:41.405,-0.032,0.022,0.999,0,-0.122,0.061, , , , , , ,1.741,1.846,32.327
 13:54:33.894,eb:33:2e:f9:57:b5, 2015-01-01 00:18:41.405,-0.034,0.023,0.998,0,-0.061,0, , , , , , ,1.741,1.846,32.327
 13:54:33.894,eb:33:2e:f9:57:b5, 2015-01-01 00:18:41.405,-0.035,0.022,0.996,-0.061,-0.061,0.061, , , , , , ,1.741,1.851,32.327
 13:54:33.894,eb:33:2e:f9:57:b5, 2015-01-01 00:18:41.405,-0.034,0.022,0.995,-0.061,-0.183,0, , , , , , ,1.741,1.851,32.327
 13:54:33.894,eb:33:2e:f9:57:b5, 2015-01-01 00:18:41.405,-0.032,0.022,0.997,-0.061,-0.183,0.061, , , , , , ,1.741,1.851,32.327
 13:54:33.894,eb:33:2e:f9:57:b5, 2015-01-01 00:18:41.405,-0.032,0.021,1,0,-0.122,0.061, , , , , , ,1.741,1.851,32.327
 13:54:33.894,eb:33:2e:f9:57:b5, 2015-01-01 00:18:41.405,-0.032,0.022,1,0,-0.061,0.061, , , , , , ,1.736,1.851,32.327
 13:54:33.894,eb:33:2e:f9:57:b5, 2015-01-01 00:18:41.405,-0.032,0.022,0.999,0,0,0.061, , , , , , ,1.736,1.851,32.327
 13:54:33.940,eb:33:2e:f9:57:b5, 2015-01-01 00:18:41.405,-0.033,0.021,0.999,0,0,0.061, , , , , , ,1.736,1.851,32.327
 13:54:33.940,eb:33:2e:f9:57:b5, 2015-01-01 00:18:41.405,-0.033,0.021,0.999,0.061,0.061,0.122, , , , , , ,1.736,1.851,32.327
 13:54:33.940,eb:33:2e:f9:57:b5, 2015-01-01 00:18:41.405,-0.033,0.021,0.999,0.061,0.061,0.061, , , , , , ,1.736,1.851,32.327
 13:54:33.940,eb:33:2e:f9:57:b5, 2015-01-01 00:18:41.405,-0.033,0.021,1,0.122,0.122,0.122, , , , , , ,1.736,1.851,32.327
 13:54:33.940,eb:33:2e:f9:57:b5, 2015-01-01 00:18:41.405,-0.032,0.021,0.999,0.183,0.183,0.061, , , , , , ,1.736,1.851,32.327
 13:54:33.940,eb:33:2e:f9:57:b5, 2015-01-01 00:18:41.405,-0.034,0.023,0.998,0.183,0.244,0.061, , , , , , ,1.736,1.851,32.327
 13:54:33.940,eb:33:2e:f9:57:b5, 2015-01-01 00:18:41.405,-0.035,0.022,0.996,0.122,0.183,0, , , , , , ,1.73,1.851,32.327
 13:54:33.940,eb:33:2e:f9:57:b5, 2015-01-01 00:18:41.405,-0.034,0.022,0.995,0.122,0.122,0.061, , , , , , ,1.73,1.851,32.327
 13:54:33.963,eb:33:2e:f9:57:b5, 2015-01-01 00:18:41.405,-0.035,0.022,0.994,0.061,0.061,0, , , , , , ,1.73,1.851,32.327
 13:54:33.963,eb:33:2e:f9:57:b5, 2015-01-01 00:18:41.405,-0.037,0.021,0.994,0,0,0, , , , , , ,1.73,1.851,32.327
 13:54:33.963,eb:33:2e:f9:57:b5, 2015-01-01 00:18:41.405,-0.036,0.021,0.994,0,-0.061,0.122, , , , , , ,1.73,1.851,32.327
 13:54:33.963,eb:33:2e:f9:57:b5, 2015-01-01 00:18:41.405,-0.032,0.022,0.996,-0.061,-0.244,0.122, , , , , , ,1.73,1.851,32.327
 13:54:33.963,eb:33:2e:f9:57:b5, 2015-01-01 00:18:41.405,-0.033,0.023,0.998,-0.061,-0.122,0.061, , , , , , ,1.73,1.851,32.327
 13:54:33.963,eb:33:2e:f9:57:b5, 2015-01-01 00:18:41.405,-0.037,0.022,0.997,-0.122,-0.061,0.061, , , , , , ,1.73,1.851,32.327
 13:54:33.963,eb:33:2e:f9:57:b5, 2015-01-01 00:18:41.405,-0.033,0.022,0.995,-0.122,-0.122,0.122, , , , , , ,1.725,1.851,32.327
 13:54:33.963,eb:33:2e:f9:57:b5, 2015-01-01 00:18:41.405,-0.033,0.021,0.999,-0.122,-0.122,0.061, , , , , , ,1.725,1.851,32.327
 13:54:34.008,eb:33:2e:f9:57:b5, 2015-01-01 00:18:41.405,-0.034,0.021,0.997,-0.122,-0.122,0.122, , , , , , ,1.725,1.851,32.327
 13:54:34.008,eb:33:2e:f9:57:b5, 2015-01-01 00:18:41.405,-0.036,0.021,0.997,-0.061,-0.122,0.183, , , , , , ,1.725,1.851,32.327
 13:54:34.008,eb:33:2e:f9:57:b5, 2015-01-01 00:18:41.405,-0.031,0.021,0.996,-0.122,-0.183,0.183, , , , , , ,1.725,1.851,32.327
 13:54:34.008,eb:33:2e:f9:57:b5, 2015-01-01 00:18:41.405,-0.032,0.022,1,-0.061,-0.061,0.122, , , , , , ,1.725,1.851,32.327
 13:54:34.008,eb:33:2e:f9:57:b5, 2015-01-01 00:18:41.405,-0.034,0.022,0.999,0,0,0.183, , , , , , ,1.725,1.851,32.327
 13:54:34.008,eb:33:2e:f9:57:b5, 2015-01-01 00:18:41.405,-0.035,0.022,0.997,0,-0.061,0.183, , , , , , ,1.725,1.851,32.327
 13:54:34.008,eb:33:2e:f9:57:b5, 2015-01-01 00:18:41.405,-0.036,0.022,0.996,-0.061,-0.122,0.122, , , , , , ,1.719,1.851,32.327
 13:54:34.008,eb:33:2e:f9:57:b5, 2015-01-01 00:18:41.405,-0.035,0.021,0.995,-0.061,-0.183,0.183, , , , , , ,1.719,1.851,32.327
 13:54:34.053,eb:33:2e:f9:57:b5, 2015-01-01 00:18:41.405,-0.033,0.022,0.995,-0.122,-0.244,0.122, , , , , , ,1.719,1.851,32.327
 13:54:34.053,eb:33:2e:f9:57:b5, 2015-01-01 00:18:41.405,-0.033,0.022,0.997,-0.122,-0.244,0.122, , , , , , ,1.719,1.851,32.327
 13:54:34.053,eb:33:2e:f9:57:b5, 2015-01-01 00:18:41.405,-0.035,0.022,0.997,-0.061,-0.244,0.061, , , , , , ,1.719,1.851,32.327
 13:54:34.053,eb:33:2e:f9:57:b5, 2015-01-01 00:18:41.405,-0.034,0.022,0.997,-0.122,-0.305,0.061, , , , , , ,1.719,1.851,32.327
 13:54:34.053,eb:33:2e:f9:57:b5, 2015-01-01 00:18:41.405,-0.032,0.022,0.998,-0.122,-0.305,0.061, , , , , , ,1.719,1.851,32.327
 13:54:34.053,eb:33:2e:f9:57:b5, 2015-01-01 00:18:41.405,-0.032,0.022,0.998,-0.183,-0.244,0, , , , , , ,1.719,1.851,32.327
 13:54:34.053,eb:33:2e:f9:57:b5, 2015-01-01 00:18:41.405,-0.033,0.022,0.998,-0.122,-0.183,0, , , , , , ,1.714,1.851,32.327
 13:54:34.053,eb:33:2e:f9:57:b5, 2015-01-01 00:18:41.405,-0.034,0.022,0.997,-0.122,-0.183,0, , , , , , ,1.714,1.851,32.327
 13:54:34.097,eb:33:2e:f9:57:b5, 2015-01-01 00:18:41.720,-0.034,0.022,0.996,-0.183,-0.183,0, , , , , , ,1.714,1.851,32.327
 13:54:34.097,eb:33:2e:f9:57:b5, 2015-01-01 00:18:41.720,-0.033,0.023,0.997,-0.244,-0.183,0, , , , , , ,1.714,1.851,32.327
 13:54:34.097,eb:33:2e:f9:57:b5, 2015-01-01 00:18:41.720,-0.033,0.021,0.998,-0.244,-0.183,0, , , , , , ,1.714,1.851,32.327
 13:54:34.097,eb:33:2e:f9:57:b5, 2015-01-01 00:18:41.720,-0.033,0.021,0.997,-0.244,-0.183,0, , , , , , ,1.714,1.851,32.327
 13:54:34.097,eb:33:2e:f9:57:b5, 2015-01-01 00:18:41.720,-0.033,0.021,0.996,-0.244,-0.183,0, , , , , , ,1.714,1.851,32.327
 13:54:34.097,eb:33:2e:f9:57:b5, 2015-01-01 00:18:41.720,-0.033,0.021,0.998,-0.244,-0.183,0, , , , , , ,1.714,1.851,32.327
 13:54:34.098,eb:33:2e:f9:57:b5, 2015-01-01 00:18:41.720,-0.034,0.021,0.999,-0.244,-0.183,0, , , , , , ,1.708,1.857,32.327
 13:54:34.098,eb:33:2e:f9:57:b5, 2015-01-01 00:18:41.720,-0.033,0.021,0.998,-0.183,-0.183,0.061, , , , , , ,1.708,1.857,32.327
 13:54:34.122,eb:33:2e:f9:57:b5, 2015-01-01 00:18:41.720,-0.034,0.021,0.999,-0.183,-0.183,0.061, , , , , , ,1.708,1.857,32.327
 13:54:34.122,eb:33:2e:f9:57:b5, 2015-01-01 00:18:41.720,-0.033,0.02,1,-0.122,-0.183,0.061, , , , , , ,1.708,1.857,32.327
 13:54:34.122,eb:33:2e:f9:57:b5, 2015-01-01 00:18:41.720,-0.033,0.02,1,-0.061,-0.183,0.122, , , , , , ,1.708,1.857,32.327
 13:54:34.122,eb:33:2e:f9:57:b5, 2015-01-01 00:18:41.720,-0.033,0.022,0.999,0,-0.061,0.183, , , , , , ,1.708,1.857,32.327
 13:54:34.122,eb:33:2e:f9:57:b5, 2015-01-01 00:18:41.720,-0.034,0.021,0.999,0,-0.061,0.122, , , , , , ,1.708,1.857,32.327
 13:54:34.122,eb:33:2e:f9:57:b5, 2015-01-01 00:18:41.720,-0.035,0.021,0.997,0,-0.061,0.122, , , , , , ,1.708,1.857,32.327
 13:54:34.122,eb:33:2e:f9:57:b5, 2015-01-01 00:18:41.720,-0.034,0.021,0.996,0,-0.122,0.122, , , , , , ,1.703,1.857,32.327
 13:54:34.122,eb:33:2e:f9:57:b5, 2015-01-01 00:18:41.720,-0.033,0.022,0.997,0,-0.183,0.122, , , , , , ,1.703,1.857,32.327
 13:54:34.165,eb:33:2e:f9:57:b5, 2015-01-01 00:18:41.720,-0.033,0.022,0.997,0,-0.122,0.122, , , , , , ,1.703,1.857,32.327
 13:54:34.165,eb:33:2e:f9:57:b5, 2015-01-01 00:18:41.720,-0.033,0.022,0.997,-0.061,-0.122,0.061, , , , , , ,1.703,1.857,32.327
 13:54:34.165,eb:33:2e:f9:57:b5, 2015-01-01 00:18:41.720,-0.034,0.022,0.996,-0.061,-0.122,0.122, , , , , , ,1.703,1.857,32.327
 13:54:34.165,eb:33:2e:f9:57:b5, 2015-01-01 00:18:41.720,-0.033,0.022,0.996,-0.122,-0.183,0.061, , , , , , ,1.703,1.857,32.327
 13:54:34.165,eb:33:2e:f9:57:b5, 2015-01-01 00:18:41.720,-0.032,0.022,0.997,-0.183,-0.244,0, , , , , , ,1.703,1.857,32.327
 13:54:34.165,eb:33:2e:f9:57:b5, 2015-01-01 00:18:41.720,-0.033,0.022,0.997,-0.244,-0.183,0.061, , , , , , ,1.703,1.857,32.327
 13:54:34.165,eb:33:2e:f9:57:b5, 2015-01-01 00:18:41.720,-0.032,0.022,0.997,-0.244,-0.244,0, , , , , , ,1.703,1.857,32.327
 13:54:34.165,eb:33:2e:f9:57:b5, 2015-01-01 00:18:41.720,-0.033,0.022,0.997,-0.244,-0.122,0, , , , , , ,1.703,1.857,32.327
 13:54:34.210,eb:33:2e:f9:57:b5, 2015-01-01 00:18:41.720,-0.034,0.021,0.998,-0.244,-0.183,0, , , , , , ,1.703,1.857,32.327
 13:54:34.210,eb:33:2e:f9:57:b5, 2015-01-01 00:18:41.720,-0.034,0.021,0.996,-0.183,-0.244,0.061, , , , , , ,1.703,1.857,32.327
 13:54:34.210,eb:33:2e:f9:57:b5, 2015-01-01 00:18:41.720,-0.033,0.021,0.997,-0.183,-0.244,0, , , , , , ,1.697,1.857,32.327
 13:54:34.210,eb:33:2e:f9:57:b5, 2015-01-01 00:18:41.720,-0.031,0.02,1,-0.122,-0.183,0, , , , , , ,1.697,1.857,32.327
 13:54:34.210,eb:33:2e:f9:57:b5, 2015-01-01 00:18:41.720,-0.032,0.02,1.001,-0.061,-0.122,0, , , , , , ,1.697,1.857,32.327
 13:54:34.210,eb:33:2e:f9:57:b5, 2015-01-01 00:18:41.720,-0.033,0.021,1.001,0,-0.061,0.061, , , , , , ,1.697,1.857,32.327
 13:54:34.210,eb:33:2e:f9:57:b5, 2015-01-01 00:18:41.720,-0.033,0.02,0.998,0,-0.061,0.061, , , , , , ,1.697,1.857,32.327
 13:54:34.210,eb:33:2e:f9:57:b5, 2015-01-01 00:18:41.720,-0.033,0.021,0.997,0,-0.061,0.061, , , , , , ,1.697,1.857,32.327
 13:54:34.255,eb:33:2e:f9:57:b5, 2015-01-01 00:18:41.720,-0.034,0.021,0.996,0.061,-0.122,0.061, , , , , , ,1.697,1.857,32.327
 13:54:34.255,eb:33:2e:f9:57:b5, 2015-01-01 00:18:41.720,-0.033,0.02,0.997,0,-0.183,0, , , , , , ,1.697,1.857,32.327
 13:54:34.255,eb:33:2e:f9:57:b5, 2015-01-01 00:18:41.720,-0.033,0.021,0.997,0.061,-0.183,0, , , , , , ,1.692,1.857,32.327
 13:54:34.255,eb:33:2e:f9:57:b5, 2015-01-01 00:18:41.720,-0.033,0.021,0.997,0,-0.183,0, , , , , , ,1.692,1.857,32.327
 13:54:34.255,eb:33:2e:f9:57:b5, 2015-01-01 00:18:41.720,-0.034,0.022,0.997,0,-0.183,0, , , , , , ,1.692,1.857,32.327
 13:54:34.256,eb:33:2e:f9:57:b5, 2015-01-01 00:18:41.720,-0.034,0.022,0.996,0,-0.244,0, , , , , , ,1.692,1.857,32.327
 13:54:34.256,eb:33:2e:f9:57:b5, 2015-01-01 00:18:41.720,-0.034,0.022,0.996,-0.122,-0.305,0, , , , , , ,1.692,1.857,32.327
 13:54:34.256,eb:33:2e:f9:57:b5, 2015-01-01 00:18:41.720,-0.034,0.021,0.996,-0.122,-0.366,-0.061, , , , , , ,1.692,1.857,32.327
 13:54:34.300,eb:33:2e:f9:57:b5, 2015-01-01 00:18:41.720,-0.032,0.021,0.997,-0.122,-0.305,0, , , , , , ,1.692,1.857,32.327
 13:54:34.300,eb:33:2e:f9:57:b5, 2015-01-01 00:18:41.720,-0.033,0.021,0.998,-0.122,-0.244,0, , , , , , ,1.692,1.857,32.327
 13:54:34.300,eb:33:2e:f9:57:b5, 2015-01-01 00:18:41.720,-0.032,0.021,0.998,-0.122,-0.244,0, , , , , , ,1.686,1.857,32.327
 13:54:34.300,eb:33:2e:f9:57:b5, 2015-01-01 00:18:41.720,-0.032,0.022,0.998,-0.183,-0.244,0, , , , , , ,1.686,1.857,32.327
 13:54:34.300,eb:33:2e:f9:57:b5, 2015-01-01 00:18:41.720,-0.032,0.022,0.999,-0.183,-0.183,0, , , , , , ,1.686,1.857,32.327
 13:54:34.300,eb:33:2e:f9:57:b5, 2015-01-01 00:18:41.720,-0.031,0.021,0.997,-0.061,-0.122,0, , , , , , ,1.686,1.857,32.327
 13:54:34.300,eb:33:2e:f9:57:b5, 2015-01-01 00:18:41.720,-0.032,0.021,0.999,-0.061,-0.061,0, , , , , , ,1.686,1.857,32.327
 13:54:34.300,eb:33:2e:f9:57:b5, 2015-01-01 00:18:41.720,-0.035,0.021,0.998,-0.122,0,0, , , , , , ,1.686,1.857,32.327
 13:54:34.322,eb:33:2e:f9:57:b5, 2015-01-01 00:18:41.720,-0.032,0.021,0.997,-0.122,-0.122,0, , , , , , ,1.686,1.857,32.327
 13:54:34.322,eb:33:2e:f9:57:b5, 2015-01-01 00:18:41.720,-0.032,0.022,0.998,-0.122,-0.061,-0.061, , , , , , ,1.686,1.857,32.327
 13:54:34.322,eb:33:2e:f9:57:b5, 2015-01-01 00:18:41.720,-0.035,0.021,0.998,-0.122,0,-0.061, , , , , , ,1.681,1.857,32.327
 13:54:34.322,eb:33:2e:f9:57:b5, 2015-01-01 00:18:41.720,-0.034,0.021,0.997,-0.122,0,0, , , , , , ,1.681,1.857,32.327
 13:54:34.322,eb:33:2e:f9:57:b5, 2015-01-01 00:18:41.720,-0.032,0.021,0.997,-0.122,-0.061,-0.061, , , , , , ,1.681,1.857,32.327
 13:54:34.322,eb:33:2e:f9:57:b5, 2015-01-01 00:18:41.720,-0.031,0.021,0.999,-0.061,-0.122,-0.061, , , , , , ,1.681,1.857,32.327
 13:54:34.322,eb:33:2e:f9:57:b5, 2015-01-01 00:18:41.720,-0.033,0.021,0.999,-0.061,0,0, , , , , , ,1.681,1.857,32.327
 13:54:34.322,eb:33:2e:f9:57:b5, 2015-01-01 00:18:41.720,-0.034,0.021,0.998,-0.061,0,0, , , , , , ,1.681,1.857,32.327
 13:54:34.368,eb:33:2e:f9:57:b5, 2015-01-01 00:18:41.720,-0.034,0.021,0.997,-0.122,-0.061,0, , , , , , ,1.681,1.857,32.327
 13:54:34.368,eb:33:2e:f9:57:b5, 2015-01-01 00:18:41.720,-0.033,0.021,0.997,-0.122,-0.061,0, , , , , , ,1.681,1.857,32.327
 13:54:34.368,eb:33:2e:f9:57:b5, 2015-01-01 00:18:41.720,-0.032,0.021,0.998,-0.061,-0.061,-0.061, , , , , , ,1.675,1.857,32.327
 13:54:34.368,eb:33:2e:f9:57:b5, 2015-01-01 00:18:41.720,-0.032,0.021,0.999,-0.061,0,0, , , , , , ,1.675,1.857,32.327
 13:54:34.368,eb:33:2e:f9:57:b5, 2015-01-01 00:18:41.720,-0.034,0.021,0.998,0,0,-0.061, , , , , , ,1.675,1.857,32.327
 13:54:34.368,eb:33:2e:f9:57:b5, 2015-01-01 00:18:41.720,-0.035,0.021,0.997,0,0,0, , , , , , ,1.675,1.857,32.327
 13:54:34.368,eb:33:2e:f9:57:b5, 2015-01-01 00:18:41.720,-0.035,0.02,0.996,0,-0.061,0, , , , , , ,1.675,1.857,32.327
 13:54:34.368,eb:33:2e:f9:57:b5, 2015-01-01 00:18:41.720,-0.034,0.021,0.996,-0.061,-0.122,0.061, , , , , , ,1.675,1.857,32.327
 13:54:34.413,eb:33:2e:f9:57:b5, 2015-01-01 00:18:42.010,-0.033,0.021,0.996,-0.061,-0.183,0.061, , , , , , ,1.675,1.857,32.327
 13:54:34.413,eb:33:2e:f9:57:b5, 2015-01-01 00:18:42.010,-0.032,0.021,0.998,0,-0.183,0.061, , , , , , ,1.675,1.857,32.327
 13:54:34.413,eb:33:2e:f9:57:b5, 2015-01-01 00:18:42.010,-0.032,0.02,1,0,-0.122,0.061, , , , , , ,1.67,1.857,32.327
 13:54:34.413,eb:33:2e:f9:57:b5, 2015-01-01 00:18:42.010,-0.032,0.02,0.999,0,-0.061,0.122, , , , , , ,1.67,1.857,32.327
 13:54:34.413,eb:33:2e:f9:57:b5, 2015-01-01 00:18:42.010,-0.033,0.021,0.998,0.061,-0.122,0.122, , , , , , ,1.67,1.857,32.327
 13:54:34.413,eb:33:2e:f9:57:b5, 2015-01-01 00:18:42.010,-0.034,0.021,0.997,0.061,-0.061,0.122, , , , , , ,1.67,1.857,32.327
 13:54:34.413,eb:33:2e:f9:57:b5, 2015-01-01 00:18:42.010,-0.033,0.021,0.997,0.061,-0.122,0.183, , , , , , ,1.67,1.857,32.327
 13:54:34.413,eb:33:2e:f9:57:b5, 2015-01-01 00:18:42.010,-0.031,0.021,0.998,0.122,-0.122,0.183, , , , , , ,1.67,1.857,32.327
 13:54:34.457,eb:33:2e:f9:57:b5, 2015-01-01 00:18:42.010,-0.031,0.021,1,0.122,0,0.183, , , , , , ,1.67,1.857,32.327
 13:54:34.457,eb:33:2e:f9:57:b5, 2015-01-01 00:18:42.010,-0.031,0.021,1,0.122,0,0.183, , , , , , ,1.67,1.857,32.327
 13:54:34.457,eb:33:2e:f9:57:b5, 2015-01-01 00:18:42.010,-0.032,0.021,1,0.244,0.122,0.122, , , , , , ,1.664,1.862,32.327
 13:54:34.457,eb:33:2e:f9:57:b5, 2015-01-01 00:18:42.010,-0.03,0.02,1,0.305,0.183,0.061, , , , , , ,1.664,1.862,32.327
 13:54:34.457,eb:33:2e:f9:57:b5, 2015-01-01 00:18:42.010,-0.032,0.021,1,0.366,0.244,0.061, , , , , , ,1.664,1.862,32.327
 13:54:34.457,eb:33:2e:f9:57:b5, 2015-01-01 00:18:42.010,-0.035,0.021,0.997,0.305,0.305,0.061, , , , , , ,1.664,1.862,32.327
 13:54:34.457,eb:33:2e:f9:57:b5, 2015-01-01 00:18:42.010,-0.035,0.022,0.992,0.244,0.244,0.061, , , , , , ,1.664,1.862,32.327
 13:54:34.458,eb:33:2e:f9:57:b5, 2015-01-01 00:18:42.010,-0.035,0.021,0.993,0.183,0.122,0, , , , , , ,1.664,1.862,32.327
 13:54:34.502,eb:33:2e:f9:57:b5, 2015-01-01 00:18:42.010,-0.035,0.021,0.996,0.122,0,0, , , , , , ,1.664,1.862,32.327
 13:54:34.502,eb:33:2e:f9:57:b5, 2015-01-01 00:18:42.010,-0.035,0.021,0.994,0.122,0,0.061, , , , , , ,1.664,1.862,32.327
 13:54:34.502,eb:33:2e:f9:57:b5, 2015-01-01 00:18:42.010,-0.034,0.022,0.994,0.061,-0.122,0.061, , , , , , ,1.664,1.862,32.327
 13:54:34.502,eb:33:2e:f9:57:b5, 2015-01-01 00:18:42.010,-0.034,0.021,0.994,0,-0.183,0.122, , , , , , ,1.664,1.862,32.327
 13:54:34.502,eb:33:2e:f9:57:b5, 2015-01-01 00:18:42.010,-0.033,0.021,0.994,0,-0.305,0.122, , , , , , ,1.664,1.862,32.327
 13:54:34.502,eb:33:2e:f9:57:b5, 2015-01-01 00:18:42.010,-0.034,0.022,0.995,-0.061,-0.366,0.122, , , , , , ,1.664,1.862,32.327
 13:54:34.502,eb:33:2e:f9:57:b5, 2015-01-01 00:18:42.010,-0.033,0.022,0.996,-0.122,-0.427,0.122, , , , , , ,1.659,1.862,32.327
 13:54:34.502,eb:33:2e:f9:57:b5, 2015-01-01 00:18:42.010,-0.033,0.022,0.997,-0.122,-0.366,0.122, , , , , , ,1.659,1.862,32.327
 13:54:34.570,eb:33:2e:f9:57:b5, 2015-01-01 00:18:42.010,-0.033,0.021,0.997,-0.122,-0.366,0.061, , , , , , ,1.659,1.862,32.327
 13:54:34.570,eb:33:2e:f9:57:b5, 2015-01-01 00:18:42.010,-0.033,0.021,0.997,-0.122,-0.366,0.122, , , , , , ,1.659,1.862,32.327
 13:54:34.570,eb:33:2e:f9:57:b5, 2015-01-01 00:18:42.010,-0.032,0.022,0.997,-0.122,-0.305,0.061, , , , , , ,1.659,1.862,32.327
 13:54:34.570,eb:33:2e:f9:57:b5, 2015-01-01 00:18:42.010,-0.031,0.021,0.999,-0.183,-0.305,0.061, , , , , , ,1.659,1.862,32.327
 13:54:34.570,eb:33:2e:f9:57:b5, 2015-01-01 00:18:42.010,-0.029,0.021,1,-0.061,-0.244,0.061, , , , , , ,1.659,1.862,32.327
 13:54:34.570,eb:33:2e:f9:57:b5, 2015-01-01 00:18:42.010,-0.03,0.02,1.002,0,-0.061,0.122, , , , , , ,1.659,1.862,32.327
 13:54:34.570,eb:33:2e:f9:57:b5, 2015-01-01 00:18:42.010,-0.031,0.02,1.001,0,0.061,0.122, , , , , , ,1.653,1.862,32.327
 13:54:34.570,eb:33:2e:f9:57:b5, 2015-01-01 00:18:42.010,-0.032,0.02,1,0.122,0.183,0.122, , , , , , ,1.653,1.862,32.327
 13:54:34.593,eb:33:2e:f9:57:b5, 2015-01-01 00:18:42.010,-0.034,0.021,0.999,0.183,0.183,0.122, , , , , , ,1.653,1.862,32.327
 13:54:34.593,eb:33:2e:f9:57:b5, 2015-01-01 00:18:42.010,-0.036,0.021,0.998,0.183,0.183,0.122, , , , , , ,1.653,1.862,32.327
 13:54:34.593,eb:33:2e:f9:57:b5, 2015-01-01 00:18:42.010,-0.036,0.021,0.995,0.122,0.061,0.122, , , , , , ,1.653,1.862,32.327
 13:54:34.593,eb:33:2e:f9:57:b5, 2015-01-01 00:18:42.010,-0.035,0.021,0.994,0.122,0,0.183, , , , , , ,1.653,1.862,32.327
 13:54:34.593,eb:33:2e:f9:57:b5, 2015-01-01 00:18:42.010,-0.035,0.021,0.994,0.122,-0.061,0.183, , , , , , ,1.653,1.862,32.327
 13:54:34.593,eb:33:2e:f9:57:b5, 2015-01-01 00:18:42.010,-0.035,0.021,0.995,0.061,-0.183,0.244, , , , , , ,1.653,1.862,32.327
 13:54:34.593,eb:33:2e:f9:57:b5, 2015-01-01 00:18:42.010,-0.035,0.021,0.995,0.061,-0.305,0.305, , , , , , ,1.648,1.862,32.327
 13:54:34.593,eb:33:2e:f9:57:b5, 2015-01-01 00:18:42.010,-0.033,0.022,0.994,0,-0.366,0.183, , , , , , ,1.648,1.862,32.327
 13:54:34.661,eb:33:2e:f9:57:b5, 2015-01-01 00:18:42.010,-0.033,0.022,0.995,-0.122,-0.366,0.244, , , , , , ,1.648,1.862,32.327
 13:54:34.661,eb:33:2e:f9:57:b5, 2015-01-01 00:18:42.010,-0.033,0.022,0.995,-0.122,-0.427,0.244, , , , , , ,1.648,1.862,32.327
 13:54:34.661,eb:33:2e:f9:57:b5, 2015-01-01 00:18:42.010,-0.034,0.021,0.996,-0.183,-0.488,0.244, , , , , , ,1.648,1.862,32.327
 13:54:34.661,eb:33:2e:f9:57:b5, 2015-01-01 00:18:42.010,-0.033,0.021,0.995,-0.183,-0.488,0.183, , , , , , ,1.648,1.862,32.327
 13:54:34.661,eb:33:2e:f9:57:b5, 2015-01-01 00:18:42.010,-0.032,0.022,0.995,-0.305,-0.61,0.122, , , , , , ,1.648,1.862,32.327
 13:54:34.661,eb:33:2e:f9:57:b5, 2015-01-01 00:18:42.010,-0.03,0.021,0.998,-0.305,-0.61,0, , , , , , ,1.648,1.862,32.327
 13:54:34.661,eb:33:2e:f9:57:b5, 2015-01-01 00:18:42.010,-0.028,0.02,1.003,-0.244,-0.549,0, , , , , , ,1.642,1.862,32.327
 13:54:34.661,eb:33:2e:f9:57:b5, 2015-01-01 00:18:42.010,-0.031,0.021,1.003,-0.122,-0.244,0, , , , , , ,1.642,1.862,32.327
 13:54:34.682,eb:33:2e:f9:57:b5, 2015-01-01 00:18:42.010,-0.033,0.021,1,0,-0.122,0.061, , , , , , ,1.642,1.862,32.327
 13:54:34.683,eb:33:2e:f9:57:b5, 2015-01-01 00:18:42.010,-0.033,0.02,1,0,-0.122,0.122, , , , , , ,1.642,1.862,32.327
 13:54:34.683,eb:33:2e:f9:57:b5, 2015-01-01 00:18:42.010,-0.033,0.021,0.999,0.061,-0.122,0.122, , , , , , ,1.642,1.862,32.327
 13:54:34.683,eb:33:2e:f9:57:b5, 2015-01-01 00:18:42.010,-0.031,0.02,0.999,0.061,-0.122,0.183, , , , , , ,1.642,1.862,32.327
 13:54:34.683,eb:33:2e:f9:57:b5, 2015-01-01 00:18:42.010,-0.031,0.021,1,0.122,0,0.122, , , , , , ,1.642,1.862,32.327
 13:54:34.683,eb:33:2e:f9:57:b5, 2015-01-01 00:18:42.010,-0.032,0.022,0.999,0.061,-0.061,0.122, , , , , , ,1.642,1.862,32.327
 13:54:34.683,eb:33:2e:f9:57:b5, 2015-01-01 00:18:42.010,-0.034,0.022,0.997,0.061,0,0.061, , , , , , ,1.642,1.862,32.327
 13:54:34.683,eb:33:2e:f9:57:b5, 2015-01-01 00:18:42.010,-0.033,0.021,0.997,0,0,0.061, , , , , , ,1.642,1.862,32.327
 13:54:34.687,eb:33:2e:f9:57:b5, 2015-01-01 00:18:42.010,-0.032,0.021,0.996,0,-0.061,0.061, , , , , , ,1.642,1.862,32.327
 13:54:34.687,eb:33:2e:f9:57:b5, 2015-01-01 00:18:42.010,-0.032,0.022,0.995,0,-0.061,0.061, , , , , , ,1.642,1.862,32.327
 13:54:34.687,eb:33:2e:f9:57:b5, 2015-01-01 00:18:42.010,-0.034,0.022,0.995,-0.061,-0.061,0, , , , , , ,1.637,1.862,32.327
 13:54:34.687,eb:33:2e:f9:57:b5, 2015-01-01 00:18:42.010,-0.034,0.022,0.994,-0.061,-0.183,0, , , , , , ,1.637,1.862,32.327
 13:54:34.687,eb:33:2e:f9:57:b5, 2015-01-01 00:18:42.010,-0.032,0.021,0.995,-0.122,-0.244,0, , , , , , ,1.637,1.862,32.327
 13:54:34.687,eb:33:2e:f9:57:b5, 2015-01-01 00:18:42.010,-0.031,0.022,0.996,-0.244,-0.244,0, , , , , , ,1.637,1.862,32.327
 13:54:34.687,eb:33:2e:f9:57:b5, 2015-01-01 00:18:42.010,-0.032,0.022,0.997,-0.244,-0.244,0, , , , , , ,1.637,1.862,32.327
 13:54:34.687,eb:33:2e:f9:57:b5, 2015-01-01 00:18:42.010,-0.034,0.022,0.996,-0.244,-0.244,0, , , , , , ,1.637,1.862,32.327
 13:54:34.731,eb:33:2e:f9:57:b5, 2015-01-01 00:18:42.010,-0.033,0.021,0.996,-0.305,-0.305,0, , , , , , ,1.637,1.862,32.327
 13:54:34.731,eb:33:2e:f9:57:b5, 2015-01-01 00:18:42.010,-0.029,0.019,0.999,-0.244,-0.244,-0.061, , , , , , ,1.637,1.862,32.327
 13:54:34.731,eb:33:2e:f9:57:b5, 2015-01-01 00:18:42.010,-0.03,0.02,1.002,-0.122,-0.122,0, , , , , , ,1.631,1.862,32.327
 13:54:34.731,eb:33:2e:f9:57:b5, 2015-01-01 00:18:42.010,-0.031,0.02,1.002,-0.061,0,0, , , , , , ,1.631,1.862,32.327
 13:54:34.731,eb:33:2e:f9:57:b5, 2015-01-01 00:18:42.010,-0.033,0.02,1,0,0,0.061, , , , , , ,1.631,1.862,32.327
 13:54:34.731,eb:33:2e:f9:57:b5, 2015-01-01 00:18:42.010,-0.033,0.02,0.999,0,0,0.061, , , , , , ,1.631,1.862,32.327
 13:54:34.731,eb:33:2e:f9:57:b5, 2015-01-01 00:18:42.010,-0.033,0.021,0.998,0,0,0.122, , , , , , ,1.631,1.862,32.327
 13:54:34.731,eb:33:2e:f9:57:b5, 2015-01-01 00:18:42.010,-0.033,0.021,0.997,0,0,0.061, , , , , , ,1.631,1.862,32.327
 13:54:34.772,eb:33:2e:f9:57:b5, 2015-01-01 00:18:42.010,-0.033,0.02,0.997,0,0,0.122, , , , , , ,1.631,1.862,32.327
 13:54:34.772,eb:33:2e:f9:57:b5, 2015-01-01 00:18:42.010,-0.032,0.021,0.997,0,-0.061,0.061, , , , , , ,1.631,1.862,32.327
 13:54:34.772,eb:33:2e:f9:57:b5, 2015-01-01 00:18:42.010,-0.033,0.021,0.997,0,0,0.061, , , , , , ,1.626,1.862,32.327
 13:54:34.772,eb:33:2e:f9:57:b5, 2015-01-01 00:18:42.010,-0.034,0.021,0.996,0,0,0.061, , , , , , ,1.626,1.862,32.327
 13:54:34.772,eb:33:2e:f9:57:b5, 2015-01-01 00:18:42.010,-0.034,0.021,0.995,-0.061,-0.061,0.061, , , , , , ,1.626,1.862,32.327
 13:54:34.772,eb:33:2e:f9:57:b5, 2015-01-01 00:18:42.010,-0.033,0.021,0.996,-0.122,-0.122,0, , , , , , ,1.626,1.862,32.327
 13:54:34.772,eb:33:2e:f9:57:b5, 2015-01-01 00:18:42.010,-0.032,0.021,0.996,-0.122,-0.183,0.061, , , , , , ,1.626,1.862,32.322
 13:54:34.772,eb:33:2e:f9:57:b5, 2015-01-01 00:18:42.010,-0.032,0.021,0.997,-0.183,-0.122,0.122, , , , , , ,1.626,1.862,32.322
 13:54:34.818,eb:33:2e:f9:57:b5, 2015-01-01 00:18:42.435,-0.033,0.021,0.997,-0.183,-0.122,0.061, , , , , , ,1.626,1.862,32.322
 13:54:34.818,eb:33:2e:f9:57:b5, 2015-01-01 00:18:42.435,-0.033,0.021,0.997,-0.183,-0.183,0.122, , , , , , ,1.626,1.862,32.322
 13:54:34.818,eb:33:2e:f9:57:b5, 2015-01-01 00:18:42.435,-0.033,0.021,0.997,-0.183,-0.122,0, , , , , , ,1.626,1.862,32.322
 13:54:34.818,eb:33:2e:f9:57:b5, 2015-01-01 00:18:42.435,-0.032,0.02,0.997,-0.183,-0.183,0.061, , , , , , ,1.626,1.862,32.322
 13:54:34.818,eb:33:2e:f9:57:b5, 2015-01-01 00:18:42.435,-0.032,0.021,0.998,-0.183,-0.183,0.061, , , , , , ,1.626,1.862,32.322
 13:54:34.818,eb:33:2e:f9:57:b5, 2015-01-01 00:18:42.435,-0.031,0.021,0.999,-0.183,-0.122,0.061, , , , , , ,1.626,1.862,32.322
 13:54:34.818,eb:33:2e:f9:57:b5, 2015-01-01 00:18:42.435,-0.031,0.02,0.999,-0.122,-0.061,0, , , , , , ,1.62,1.862,32.322
 13:54:34.818,eb:33:2e:f9:57:b5, 2015-01-01 00:18:42.435,-0.033,0.021,0.998,-0.122,0,0.061, , , , , , ,1.62,1.862,32.322
 13:54:34.863,eb:33:2e:f9:57:b5, 2015-01-01 00:18:42.435,-0.031,0.021,0.999,-0.061,0,0.122, , , , , , ,1.62,1.862,32.322
 13:54:34.863,eb:33:2e:f9:57:b5, 2015-01-01 00:18:42.435,-0.03,0.02,1,-0.061,0.061,0.122, , , , , , ,1.62,1.862,32.322
 13:54:34.863,eb:33:2e:f9:57:b5, 2015-01-01 00:18:42.435,-0.031,0.02,1,0,0.122,0.183, , , , , , ,1.62,1.862,32.322
 13:54:34.863,eb:33:2e:f9:57:b5, 2015-01-01 00:18:42.435,-0.034,0.021,0.997,0,0.122,0.122, , , , , , ,1.62,1.862,32.322
 13:54:34.863,eb:33:2e:f9:57:b5, 2015-01-01 00:18:42.435,-0.035,0.021,0.995,0,0.061,0.122, , , , , , ,1.62,1.862,32.322
 13:54:34.863,eb:33:2e:f9:57:b5, 2015-01-01 00:18:42.435,-0.033,0.021,0.994,-0.122,0,0.122, , , , , , ,1.62,1.862,32.322
 13:54:34.863,eb:33:2e:f9:57:b5, 2015-01-01 00:18:42.435,-0.032,0.021,0.995,-0.122,-0.122,0.061, , , , , , ,1.615,1.862,32.322
 13:54:34.863,eb:33:2e:f9:57:b5, 2015-01-01 00:18:42.435,-0.035,0.021,0.995,-0.244,-0.122,0.061, , , , , , ,1.615,1.862,32.322
 13:54:34.908,eb:33:2e:f9:57:b5, 2015-01-01 00:18:42.435,-0.036,0.021,0.993,-0.305,-0.183,0.061, , , , , , ,1.615,1.862,32.322
 13:54:34.908,eb:33:2e:f9:57:b5, 2015-01-01 00:18:42.435,-0.032,0.021,0.993,-0.305,-0.427,0.061, , , , , , ,1.615,1.862,32.322
 13:54:34.908,eb:33:2e:f9:57:b5, 2015-01-01 00:18:42.435,-0.03,0.021,0.997,-0.305,-0.427,0, , , , , , ,1.615,1.862,32.322
 13:54:34.908,eb:33:2e:f9:57:b5, 2015-01-01 00:18:42.435,-0.032,0.021,0.999,-0.305,-0.366,0, , , , , , ,1.615,1.862,32.322
 13:54:34.908,eb:33:2e:f9:57:b5, 2015-01-01 00:18:42.435,-0.034,0.021,0.998,-0.366,-0.366,0.061, , , , , , ,1.615,1.862,32.322
 13:54:34.908,eb:33:2e:f9:57:b5, 2015-01-01 00:18:42.435,-0.03,0.02,0.997,-0.305,-0.427,0, , , , , , ,1.615,1.862,32.322
 13:54:34.908,eb:33:2e:f9:57:b5, 2015-01-01 00:18:42.435,-0.026,0.019,1.001,-0.183,-0.366,0, , , , , , ,1.609,1.862,32.322
 13:54:34.908,eb:33:2e:f9:57:b5, 2015-01-01 00:18:42.435,-0.032,0.02,1.003,-0.183,-0.183,0.061, , , , , , ,1.609,1.862,32.322
 13:54:34.930,eb:33:2e:f9:57:b5, 2015-01-01 00:18:42.435,-0.034,0.019,0.999,-0.061,-0.122,0.122, , , , , , ,1.609,1.862,32.322
 13:54:34.930,eb:33:2e:f9:57:b5, 2015-01-01 00:18:42.435,-0.035,0.02,0.997,-0.061,-0.122,0.061, , , , , , ,1.609,1.862,32.322
 13:54:34.930,eb:33:2e:f9:57:b5, 2015-01-01 00:18:42.435,-0.034,0.019,0.996,-0.061,-0.183,0.183, , , , , , ,1.609,1.862,32.322
 13:54:34.930,eb:33:2e:f9:57:b5, 2015-01-01 00:18:42.435,-0.03,0.02,0.997,-0.061,-0.183,0.061, , , , , , ,1.609,1.862,32.322
 13:54:34.930,eb:33:2e:f9:57:b5, 2015-01-01 00:18:42.435,-0.033,0.02,0.999,0,-0.122,0.122, , , , , , ,1.609,1.862,32.322
 13:54:34.930,eb:33:2e:f9:57:b5, 2015-01-01 00:18:42.435,-0.033,0.02,0.998,-0.061,-0.122,0.122, , , , , , ,1.609,1.862,32.322
 13:54:34.930,eb:33:2e:f9:57:b5, 2015-01-01 00:18:42.435,-0.031,0.021,0.996,-0.061,-0.183,0.122, , , , , , ,1.609,1.862,32.322
 13:54:34.930,eb:33:2e:f9:57:b5, 2015-01-01 00:18:42.435,-0.034,0.021,0.997,-0.122,-0.183,0.061, , , , , , ,1.609,1.862,32.322
 13:54:34.975,eb:33:2e:f9:57:b5, 2015-01-01 00:18:42.435,-0.034,0.021,0.994,-0.183,-0.305,0.122, , , , , , ,1.609,1.862,32.322
 13:54:34.975,eb:33:2e:f9:57:b5, 2015-01-01 00:18:42.435,-0.032,0.021,0.995,-0.244,-0.366,0.061, , , , , , ,1.609,1.862,32.322
 13:54:34.975,eb:33:2e:f9:57:b5, 2015-01-01 00:18:42.435,-0.033,0.02,0.997,-0.244,-0.366,0.061, , , , , , ,1.604,1.862,32.322
 13:54:34.975,eb:33:2e:f9:57:b5, 2015-01-01 00:18:42.435,-0.031,0.02,0.995,-0.305,-0.366,0.122, , , , , , ,1.604,1.862,32.322
 13:54:34.975,eb:33:2e:f9:57:b5, 2015-01-01 00:18:42.435,-0.032,0.021,0.996,-0.366,-0.427,0, , , , , , ,1.604,1.862,32.322
 13:54:34.975,eb:33:2e:f9:57:b5, 2015-01-01 00:18:42.435,-0.034,0.02,0.996,-0.305,-0.488,0, , , , , , ,1.604,1.862,32.322
 13:54:34.975,eb:33:2e:f9:57:b5, 2015-01-01 00:18:42.435,-0.03,0.021,0.995,-0.427,-0.61,0.061, , , , , , ,1.604,1.862,32.322
 13:54:34.975,eb:33:2e:f9:57:b5, 2015-01-01 00:18:42.435,-0.032,0.021,1,-0.366,-0.549,0, , , , , , ,1.604,1.862,32.322
 13:54:35.020,eb:33:2e:f9:57:b5, 2015-01-01 00:18:42.435,-0.032,0.019,0.999,-0.427,-0.488,0.061, , , , , , ,1.604,1.862,32.322
 13:54:35.020,eb:33:2e:f9:57:b5, 2015-01-01 00:18:42.435,-0.032,0.021,0.998,-0.366,-0.488,0, , , , , , ,1.604,1.862,32.322
 13:54:35.020,eb:33:2e:f9:57:b5, 2015-01-01 00:18:42.435,-0.032,0.02,0.999,-0.366,-0.427,0, , , , , , ,1.599,1.862,32.322
 13:54:35.020,eb:33:2e:f9:57:b5, 2015-01-01 00:18:42.435,-0.029,0.019,0.999,-0.305,-0.427,0.061, , , , , , ,1.599,1.862,32.322
 13:54:35.020,eb:33:2e:f9:57:b5, 2015-01-01 00:18:42.435,-0.028,0.018,1.002,-0.183,-0.244,0.061, , , , , , ,1.599,1.862,32.322
 13:54:35.020,eb:33:2e:f9:57:b5, 2015-01-01 00:18:42.435,-0.03,0.019,1.004,-0.061,0,0, , , , , , ,1.599,1.862,32.322
 13:54:35.020,eb:33:2e:f9:57:b5, 2015-01-01 00:18:42.435,-0.032,0.019,1.001,0,0.122,0.061, , , , , , ,1.599,1.862,32.322
 13:54:35.020,eb:33:2e:f9:57:b5, 2015-01-01 00:18:42.435,-0.033,0.019,1,0,0.122,0.061, , , , , , ,1.599,1.862,32.322
 13:54:35.065,eb:33:2e:f9:57:b5, 2015-01-01 00:18:42.435,-0.035,0.019,0.997,0.061,0.061,0.183, , , , , , ,1.599,1.862,32.322
 13:54:35.065,eb:33:2e:f9:57:b5, 2015-01-01 00:18:42.435,-0.031,0.02,0.995,0.061,-0.122,0.183, , , , , , ,1.599,1.862,32.322
 13:54:35.065,eb:33:2e:f9:57:b5, 2015-01-01 00:18:42.435,-0.032,0.02,0.997,0.061,-0.061,0.061, , , , , , ,1.593,1.862,32.322
 13:54:35.065,eb:33:2e:f9:57:b5, 2015-01-01 00:18:42.435,-0.033,0.02,0.996,0,-0.061,0.183, , , , , , ,1.593,1.862,32.322
 13:54:35.065,eb:33:2e:f9:57:b5, 2015-01-01 00:18:42.435,-0.033,0.021,0.995,-0.061,-0.183,0.122, , , , , , ,1.593,1.862,32.322
 13:54:35.065,eb:33:2e:f9:57:b5, 2015-01-01 00:18:42.435,-0.033,0.02,0.994,-0.122,-0.305,0.122, , , , , , ,1.593,1.862,32.322
 13:54:35.065,eb:33:2e:f9:57:b5, 2015-01-01 00:18:42.435,-0.032,0.021,0.994,-0.183,-0.366,0, , , , , , ,1.593,1.862,32.322
 13:54:35.065,eb:33:2e:f9:57:b5, 2015-01-01 00:18:42.435,-0.032,0.021,0.995,-0.244,-0.427,0.061, , , , , , ,1.593,1.862,32.322
 13:54:35.087,eb:33:2e:f9:57:b5, 2015-01-01 00:18:42.725,-0.032,0.021,0.995,-0.305,-0.366,0.061, , , , , , ,1.593,1.862,32.322
 13:54:35.087,eb:33:2e:f9:57:b5, 2015-01-01 00:18:42.725,-0.032,0.021,0.995,-0.366,-0.488,0, , , , , , ,1.593,1.862,32.322
 13:54:35.087,eb:33:2e:f9:57:b5, 2015-01-01 00:18:42.725,-0.029,0.019,0.997,-0.366,-0.488,0.061, , , , , , ,1.588,1.862,32.322
 13:54:35.087,eb:33:2e:f9:57:b5, 2015-01-01 00:18:42.725,-0.03,0.02,0.999,-0.366,-0.427,0, , , , , , ,1.588,1.862,32.322
 13:54:35.087,eb:33:2e:f9:57:b5, 2015-01-01 00:18:42.725,-0.032,0.02,0.998,-0.305,-0.427,0.061, , , , , , ,1.588,1.862,32.322
 13:54:35.087,eb:33:2e:f9:57:b5, 2015-01-01 00:18:42.725,-0.031,0.02,0.997,-0.244,-0.427,0.061, , , , , , ,1.588,1.862,32.322
 13:54:35.087,eb:33:2e:f9:57:b5, 2015-01-01 00:18:42.725,-0.031,0.02,0.998,-0.244,-0.427,0, , , , , , ,1.588,1.862,32.322
 13:54:35.088,eb:33:2e:f9:57:b5, 2015-01-01 00:18:42.725,-0.03,0.019,1,-0.244,-0.366,0.061, , , , , , ,1.588,1.862,32.322
 13:54:35.132,eb:33:2e:f9:57:b5, 2015-01-01 00:18:42.725,-0.029,0.019,1,-0.183,-0.305,0.061, , , , , , ,1.588,1.862,32.322
 13:54:35.132,eb:33:2e:f9:57:b5, 2015-01-01 00:18:42.725,-0.031,0.018,1,-0.122,-0.244,0.122, , , , , , ,1.588,1.862,32.322
 13:54:35.132,eb:33:2e:f9:57:b5, 2015-01-01 00:18:42.725,-0.032,0.019,0.999,-0.122,-0.122,0.183, , , , , , ,1.582,1.862,32.322
 13:54:35.132,eb:33:2e:f9:57:b5, 2015-01-01 00:18:42.725,-0.033,0.019,0.997,-0.061,-0.183,0.122, , , , , , ,1.582,1.862,32.322
 13:54:35.132,eb:33:2e:f9:57:b5, 2015-01-01 00:18:42.725,-0.033,0.019,0.996,-0.061,-0.305,0.061, , , , , , ,1.582,1.862,32.322
 13:54:35.132,eb:33:2e:f9:57:b5, 2015-01-01 00:18:42.725,-0.032,0.02,0.995,-0.122,-0.366,0.122, , , , , , ,1.582,1.862,32.322
 13:54:35.132,eb:33:2e:f9:57:b5, 2015-01-01 00:18:42.725,-0.032,0.02,0.997,-0.183,-0.366,0.122, , , , , , ,1.582,1.862,32.322
 13:54:35.132,eb:33:2e:f9:57:b5, 2015-01-01 00:18:42.725,-0.032,0.019,0.996,-0.122,-0.427,0.122, , , , , , ,1.582,1.862,32.322
 13:54:35.180,eb:33:2e:f9:57:b5, 2015-01-01 00:18:42.725,-0.031,0.021,0.997,-0.183,-0.488,0.061, , , , , , ,1.582,1.862,32.322
 13:54:35.180,eb:33:2e:f9:57:b5, 2015-01-01 00:18:42.725,-0.031,0.02,0.997,-0.183,-0.427,0.122, , , , , , ,1.582,1.862,32.322
 13:54:35.180,eb:33:2e:f9:57:b5, 2015-01-01 00:18:42.725,-0.03,0.02,0.997,-0.244,-0.427,0.122, , , , , , ,1.582,1.862,32.322
 13:54:35.180,eb:33:2e:f9:57:b5, 2015-01-01 00:18:42.725,-0.03,0.02,0.998,-0.244,-0.366,0.122, , , , , , ,1.582,1.862,32.322
 13:54:35.180,eb:33:2e:f9:57:b5, 2015-01-01 00:18:42.725,-0.03,0.02,0.998,-0.244,-0.427,0.061, , , , , , ,1.582,1.862,32.322
 13:54:35.180,eb:33:2e:f9:57:b5, 2015-01-01 00:18:42.725,-0.029,0.02,0.998,-0.244,-0.305,0.122, , , , , , ,1.582,1.862,32.322
