Time,Device name,Chip Time(),Acceleration X(g),Acceleration Y(g),Acceleration Z(g),Angular velocity X(°/s),Angular velocity Y(°/s),Angular velocity Z(°/s),ShiftX(mm),ShiftY(mm),ShiftZ(mm),SpeedX(mm/s),SpeedY(mm/s),SpeedZ(mm/s),Angle X(°),Angle Y(°),Angle Z(°)
 09:49:46.410,eb:33:2e:f9:57:b5, 2015-01-01 00:38:17.585,0.033,0,1,3.113,8.667,5.737, , , , , , ,0.753,-1.857,-105.837
 09:49:46.411,eb:33:2e:f9:57:b5, 2015-01-01 00:38:17.585,0.038,-0.002,1.001,3.601,9.033,6.104, , , , , , ,0.764,-1.813,-105.809
 09:49:46.411,eb:33:2e:f9:57:b5, 2015-01-01 00:38:17.585,0.038,-0.004,1.005,4.333,9.705,6.409, , , , , , ,0.786,-1.769,-105.776
 09:49:46.411,eb:33:2e:f9:57:b5, 2015-01-01 00:38:17.585,0.04,-0.008,1.008,5.066,10.559,6.592, , , , , , ,0.807,-1.714,-105.743
 09:49:46.411,eb:33:2e:f9:57:b5, 2015-01-01 00:38:17.585,0.048,-0.013,1.012,6.042,11.536,6.836, , , , , , ,0.829,-1.659,-105.705
 09:49:46.411,eb:33:2e:f9:57:b5, 2015-01-01 00:38:17.585,0.053,-0.018,1.021,7.263,12.512,7.202, , , , , , ,0.862,-1.604,-105.672
 09:49:46.411,eb:33:2e:f9:57:b5, 2015-01-01 00:38:17.585,0.052,-0.014,1.024,8.301,13.916,7.507, , , , , , ,0.901,-1.538,-105.634
 09:49:46.414,eb:33:2e:f9:57:b5, 2015-01-01 00:38:17.585,0.039,-0.004,1.019,9.277,15.381,7.812, , , , , , ,0.945,-1.461,-105.595
 09:49:46.454,eb:33:2e:f9:57:b5, 2015-01-01 00:38:17.585,0.032,0.003,1.01,9.949,16.296,7.874, , , , , , ,0.989,-1.384,-105.557
 09:49:46.456,eb:33:2e:f9:57:b5, 2015-01-01 00:38:17.585,0.025,0.008,1.006,10.62,16.785,7.629, , , , , , ,1.038,-1.302,-105.518
 09:49:46.457,eb:33:2e:f9:57:b5, 2015-01-01 00:38:17.585,0.024,0.013,1,11.23,17.029,7.263, , , , , , ,1.093,-1.219,-105.48
 09:49:46.457,eb:33:2e:f9:57:b5, 2015-01-01 00:38:17.585,0.018,0.016,0.997,11.841,17.273,6.653, , , , , , ,1.148,-1.137,-105.441
 09:49:46.457,eb:33:2e:f9:57:b5, 2015-01-01 00:38:17.585,0.013,0.021,0.993,12.207,17.334,6.042, , , , , , ,1.208,-1.049,-105.408
 09:49:46.457,eb:33:2e:f9:57:b5, 2015-01-01 00:38:17.585,0.01,0.023,0.992,12.695,17.395,5.249, , , , , , ,1.269,-0.961,-105.381
 09:49:46.457,eb:33:2e:f9:57:b5, 2015-01-01 00:38:17.585,0.008,0.025,0.991,13.306,17.517,4.272, , , , , , ,1.335,-0.879,-105.353
 09:49:46.457,eb:33:2e:f9:57:b5, 2015-01-01 00:38:17.585,0.002,0.019,0.992,14.221,17.639,3.235, , , , , , ,1.401,-0.791,-105.331
 09:49:46.458,eb:33:2e:f9:57:b5, 2015-01-01 00:38:17.585,0.007,0.012,0.994,15.381,17.761,2.563, , , , , , ,1.472,-0.703,-105.315
 09:49:46.458,eb:33:2e:f9:57:b5, 2015-01-01 00:38:17.585,0.017,0.013,1.002,16.357,18.25,1.892, , , , , , ,1.555,-0.615,-105.304
 09:49:46.458,eb:33:2e:f9:57:b5, 2015-01-01 00:38:17.585,0.023,0.009,1.013,17.578,19.043,1.465, , , , , , ,1.637,-0.522,-105.293
 09:49:46.458,eb:33:2e:f9:57:b5, 2015-01-01 00:38:17.585,0.025,0,1.023,18.982,20.02,1.343, , , , , , ,1.73,-0.423,-105.287
 09:49:46.458,eb:33:2e:f9:57:b5, 2015-01-01 00:38:17.585,0.037,-0.007,1.037,20.935,21.179,1.587, , , , , , ,1.829,-0.319,-105.276
 09:49:46.458,eb:33:2e:f9:57:b5, 2015-01-01 00:38:17.585,0.067,-0.013,1.055,23.254,22.034,1.953, , , , , , ,1.939,-0.214,-105.26
 09:49:46.459,eb:33:2e:f9:57:b5, 2015-01-01 00:38:17.585,0.077,-0.021,1.083,26.062,24.475,2.258, , , , , , ,2.06,-0.099,-105.249
 09:49:46.459,eb:33:2e:f9:57:b5, 2015-01-01 00:38:17.585,0.092,-0.032,1.106,29.297,27.71,2.808, , , , , , ,2.197,0.027,-105.233
 09:49:46.499,eb:33:2e:f9:57:b5, 2015-01-01 00:38:17.585,0.123,-0.045,1.13,33.936,31.433,3.723, , , , , , ,2.357,0.176,-105.205
 09:49:46.499,eb:33:2e:f9:57:b5, 2015-01-01 00:38:17.585,0.172,-0.047,1.173,40.1,34.973,3.54, , , , , , ,2.543,0.341,-105.183
 09:49:46.499,eb:33:2e:f9:57:b5, 2015-01-01 00:38:17.585,0.212,-0.117,1.3,48.584,41.626,4.089, , , , , , ,2.769,0.533,-105.156
 09:49:46.499,eb:33:2e:f9:57:b5, 2015-01-01 00:38:17.585,0.232,-0.115,1.318,58.044,49.561,5.432, , , , , , ,3.038,0.764,-105.117
 09:49:46.500,eb:33:2e:f9:57:b5, 2015-01-01 00:38:17.585,0.311,-0.137,1.372,69.519,59.082,8.179, , , , , , ,3.362,1.033,-105.068
 09:49:46.500,eb:33:2e:f9:57:b5, 2015-01-01 00:38:17.585,0.56,-0.087,1.522,87.524,67.871,6.958, , , , , , ,3.763,1.351,-105.007
 09:49:46.500,eb:33:2e:f9:57:b5, 2015-01-01 00:38:17.585,0.717,-0.164,2.08,100.281,89.233,2.869, , , , , , ,4.241,1.741,-104.963
 09:49:46.500,eb:33:2e:f9:57:b5, 2015-01-01 00:38:17.585,0.75,0.031,2.226,113.586,121.826,-8.118, , , , , , ,4.785,2.285,-104.936
 09:49:46.500,eb:33:2e:f9:57:b5, 2015-01-01 00:38:17.585,0.466,-0.081,2.49,131.653,151.855,-22.888, , , , , , ,5.394,2.983,-104.958
 09:49:46.500,eb:33:2e:f9:57:b5, 2015-01-01 00:38:17.585,0.655,-0.966,3.049,230.347,189.453,-58.838, , , , , , ,14.277,10.646,-105.765
 09:49:46.500,eb:33:2e:f9:57:b5, 2015-01-01 00:38:17.585,0.841,-1.478,2.992,237.305,216.309,-47.18, , , , , , ,15.452,11.711,-105.754
 09:49:46.500,eb:33:2e:f9:57:b5, 2015-01-01 00:38:17.585,1.007,-1.561,2.508,235.168,231.873,-45.471, , , , , , ,16.65,12.849,-105.661
 09:49:46.500,eb:33:2e:f9:57:b5, 2015-01-01 00:38:17.585,1.032,-1.878,2.056,222.961,247.742,-45.959, , , , , , ,17.825,14.079,-105.518
 09:49:46.500,eb:33:2e:f9:57:b5, 2015-01-01 00:38:17.585,1.388,-1.985,1.321,206.177,226.44,-45.837, , , , , , ,18.929,15.282,-105.342
 09:49:46.500,eb:33:2e:f9:57:b5, 2015-01-01 00:38:17.585,1.616,-2.131,0.992,189.819,195.801,-48.096, , , , , , ,19.951,16.337,-105.216
 09:49:46.500,eb:33:2e:f9:57:b5, 2015-01-01 00:38:17.585,1.718,-2.316,0.872,179.932,164.795,-45.41, , , , , , ,20.88,17.243,-105.134
 09:49:46.522,eb:33:2e:f9:57:b5, 2015-01-01 00:38:17.585,1.751,-2.327,0.938,170.41,144.287,-45.41, , , , , , ,21.775,18.034,-105.062
 09:49:46.522,eb:33:2e:f9:57:b5, 2015-01-01 00:38:17.585,1.933,-2.368,0.568,154.236,115.967,-46.936, , , , , , ,22.588,18.71,-105.024
 09:49:46.522,eb:33:2e:f9:57:b5, 2015-01-01 00:38:17.585,2.024,-2.397,0.253,128.052,89.966,-55.237, , , , , , ,23.269,19.27,-105.068
 09:49:46.522,eb:33:2e:f9:57:b5, 2015-01-01 00:38:17.585,1.978,-2.434,0.213,102.539,68.359,-67.383, , , , , , ,23.774,19.737,-105.222
 09:49:46.522,eb:33:2e:f9:57:b5, 2015-01-01 00:38:17.585,1.909,-2.447,0.318,81.604,50.415,-79.468, , , , , , ,24.137,20.154,-105.463
 09:49:46.523,eb:33:2e:f9:57:b5, 2015-01-01 00:38:17.585,1.829,-2.499,0.404,66.223,35.278,-88.928, , , , , , ,24.384,20.517,-105.776
 09:49:46.523,eb:33:2e:f9:57:b5, 2015-01-01 00:38:17.585,1.734,-2.537,0.425,53.894,19.592,-95.398, , , , , , ,24.538,20.825,-106.172
 09:49:46.523,eb:33:2e:f9:57:b5, 2015-01-01 00:38:17.585,1.653,-2.543,0.413,40.833,1.526,-99.487, , , , , , ,24.587,21.061,-106.639
 09:49:46.589,eb:33:2e:f9:57:b5, 2015-01-01 00:38:17.585,1.563,-2.54,0.4,26.062,-17.761,-102.417, , , , , , ,24.56,21.226,-107.155
 09:49:46.589,eb:33:2e:f9:57:b5, 2015-01-01 00:38:17.585,1.466,-2.505,0.416,10.864,-39.429,-105.042, , , , , , ,24.434,21.302,-107.721
 09:49:46.589,eb:33:2e:f9:57:b5, 2015-01-01 00:38:17.585,1.353,-2.426,0.499,-4.7,-61.707,-107.788, , , , , , ,24.208,21.281,-108.358
 09:49:46.589,eb:33:2e:f9:57:b5, 2015-01-01 00:38:17.585,1.22,-2.341,0.63,-20.691,-81.421,-110.474, , , , , , ,23.868,21.149,-109.072
 09:49:46.589,eb:33:2e:f9:57:b5, 2015-01-01 00:38:17.585,1.089,-2.267,0.762,-37.415,-99.121,-112.671, , , , , , ,23.445,20.951,-109.819
 09:49:46.590,eb:33:2e:f9:57:b5, 2015-01-01 00:38:17.585,0.964,-2.199,0.898,-55.176,-113.892,-114.441, , , , , , ,22.923,20.676,-110.594
 09:49:46.590,eb:33:2e:f9:57:b5, 2015-01-01 00:38:17.585,0.832,-2.145,1.047,-72.937,-125.488,-115.234, , , , , , ,22.308,20.341,-111.407
 09:49:46.590,eb:33:2e:f9:57:b5, 2015-01-01 00:38:17.585,0.706,-2.094,1.168,-90.088,-134.827,-114.807, , , , , , ,21.583,19.929,-112.253
 09:49:46.637,eb:33:2e:f9:57:b5, 2015-01-01 00:38:18.125,0.58,-2.034,1.232,-107.422,-142.395,-113.159, , , , , , ,20.797,19.484,-113.088
 09:49:46.637,eb:33:2e:f9:57:b5, 2015-01-01 00:38:18.125,0.417,-1.984,1.231,-124.573,-150.024,-109.985, , , , , , ,19.935,18.99,-113.895
 09:49:46.637,eb:33:2e:f9:57:b5, 2015-01-01 00:38:18.125,0.288,-1.912,1.159,-144.958,-161.804,-104.065, , , , , , ,18.995,18.43,-114.703
 09:49:46.637,eb:33:2e:f9:57:b5, 2015-01-01 00:38:18.125,0.184,-1.843,1.134,-161.072,-173.523,-97.534, , , , , , ,17.952,17.77,-115.499
 09:49:46.637,eb:33:2e:f9:57:b5, 2015-01-01 00:38:18.125,0.089,-1.758,1.187,-175.476,-185.303,-90.454, , , , , , ,16.88,17.045,-116.252
 09:49:46.637,eb:33:2e:f9:57:b5, 2015-01-01 00:38:18.125,-0.017,-1.663,1.257,-187.927,-197.144,-83.74, , , , , , ,15.754,16.243,-116.949
 09:49:46.637,eb:33:2e:f9:57:b5, 2015-01-01 00:38:18.125,-0.151,-1.574,1.31,-198.73,-209.656,-77.759, , , , , , ,14.595,15.359,-117.631
 09:49:46.638,eb:33:2e:f9:57:b5, 2015-01-01 00:38:18.125,-0.298,-1.492,1.37,-209.045,-221.191,-72.144, , , , , , ,13.381,14.381,-118.29
 09:49:46.638,eb:33:2e:f9:57:b5, 2015-01-01 00:38:18.125,-0.451,-1.399,1.484,-219.666,-228.027,-66.528, , , , , , ,12.156,13.354,-118.894
 09:49:46.638,eb:33:2e:f9:57:b5, 2015-01-01 00:38:18.125,-0.597,-1.289,1.613,-229.98,-228.577,-60.486, , , , , , ,10.904,12.294,-119.427
 09:49:46.638,eb:33:2e:f9:57:b5, 2015-01-01 00:38:18.125,-0.751,-1.154,1.712,-239.563,-223.938,-53.894, , , , , , ,9.624,11.234,-119.916
 09:49:46.638,eb:33:2e:f9:57:b5, 2015-01-01 00:38:18.125,-0.931,-1,1.769,-248.474,-217.59,-45.715, , , , , , ,8.295,10.162,-120.355
 09:49:46.638,eb:33:2e:f9:57:b5, 2015-01-01 00:38:18.125,-1.088,-0.876,1.814,-256.348,-211.548,-33.936, , , , , , ,6.971,9.13,-120.696
 09:49:46.638,eb:33:2e:f9:57:b5, 2015-01-01 00:38:18.125,-1.223,-0.83,1.913,-261.78,-202.637,-17.639, , , , , , ,5.636,8.113,-120.921
 09:49:46.638,eb:33:2e:f9:57:b5, 2015-01-01 00:38:18.125,-1.312,-0.807,1.959,-263.672,-191.467,4.15, , , , , , ,4.301,7.141,-121.031
 09:49:46.638,eb:33:2e:f9:57:b5, 2015-01-01 00:38:18.125,-1.387,-0.719,1.903,-262.756,-183.838,29.968, , , , , , ,2.961,6.185,-121.009
 09:49:46.835,eb:33:2e:f9:57:b5, 2015-01-01 00:38:18.125,-1.465,-0.543,1.769,-260.254,-184.143,58.411, , , , , , ,1.675,5.257,-120.806
 09:49:46.835,eb:33:2e:f9:57:b5, 2015-01-01 00:38:18.125,-1.478,-0.352,1.652,-255.249,-189.575,89.661, , , , , , ,0.417,4.318,-120.427
 09:49:46.835,eb:33:2e:f9:57:b5, 2015-01-01 00:38:18.125,-1.402,-0.178,1.645,-246.521,-192.322,121.826, , , , , , ,-0.797,3.356,-119.872
 09:49:46.835,eb:33:2e:f9:57:b5, 2015-01-01 00:38:18.125,-1.22,0.014,1.654,-234.863,-189.941,152.893, , , , , , ,-1.983,2.401,-119.163
 09:49:46.835,eb:33:2e:f9:57:b5, 2015-01-01 00:38:18.125,-0.981,0.242,1.575,-222.412,-184.448,179.016, , , , , , ,-3.093,1.505,-118.273
 09:49:46.835,eb:33:2e:f9:57:b5, 2015-01-01 00:38:18.125,-0.752,0.542,1.369,-211.426,-181.396,195.923, , , , , , ,-4.153,0.659,-117.257
 09:49:46.835,eb:33:2e:f9:57:b5, 2015-01-01 00:38:18.125,-0.575,0.895,1.157,-199.829,-181.946,201.599, , , , , , ,-5.175,-0.159,-116.186
 09:49:46.835,eb:33:2e:f9:57:b5, 2015-01-01 00:38:18.125,-0.495,1.278,0.986,-185.974,-185.12,197.571, , , , , , ,-6.169,-0.989,-115.115
 09:49:46.858,eb:33:2e:f9:57:b5, 2015-01-01 00:38:18.125,-0.478,1.66,0.852,-172.791,-191.467,186.279, , , , , , ,-7.086,-1.818,-114.055
 09:49:46.858,eb:33:2e:f9:57:b5, 2015-01-01 00:38:18.125,-0.562,1.986,0.85,-163.635,-195.496,170.837, , , , , , ,-7.96,-2.67,-113.044
 09:49:46.858,eb:33:2e:f9:57:b5, 2015-01-01 00:38:18.125,-0.719,2.187,1.001,-157.837,-192.2,155.884, , , , , , ,-8.817,-3.51,-112.099
 09:49:46.858,eb:33:2e:f9:57:b5, 2015-01-01 00:38:18.125,-0.846,2.279,1.241,-154.175,-179.199,145.142, , , , , , ,-9.679,-4.318,-111.226
 09:49:46.858,eb:33:2e:f9:57:b5, 2015-01-01 00:38:18.125,-0.897,2.316,1.498,-152.649,-154.724,139.893, , , , , , ,-10.514,-5.01,-110.38
 09:49:46.858,eb:33:2e:f9:57:b5, 2015-01-01 00:38:18.125,-0.879,2.346,1.684,-151.428,-122.437,138.489, , , , , , ,-11.349,-5.543,-109.567
 09:49:46.858,eb:33:2e:f9:57:b5, 2015-01-01 00:38:18.125,-0.819,2.404,1.733,-148.254,-90.881,137.939, , , , , , ,-12.178,-5.905,-108.781
 09:49:46.859,eb:33:2e:f9:57:b5, 2015-01-01 00:38:18.125,-0.708,2.497,1.666,-140.686,-68.176,136.047, , , , , , ,-13.002,-6.141,-108.034
 09:49:46.861,eb:33:2e:f9:57:b5, 2015-01-01 00:38:18.125,-0.589,2.625,1.55,-127.991,-57.983,131.409, , , , , , ,-13.749,-6.284,-107.309
 09:49:46.861,eb:33:2e:f9:57:b5, 2015-01-01 00:38:18.125,-0.501,2.774,1.471,-111.511,-57.922,124.39, , , , , , ,-14.42,-6.405,-106.622
 09:49:46.861,eb:33:2e:f9:57:b5, 2015-01-01 00:38:18.125,-0.446,2.918,1.472,-93.079,-62.927,116.028, , , , , , ,-14.996,-6.548,-105.963
 09:49:46.861,eb:33:2e:f9:57:b5, 2015-01-01 00:38:18.125,-0.435,3.055,1.552,-74.036,-67.322,106.934, , , , , , ,-15.496,-6.729,-105.342
 09:49:46.861,eb:33:2e:f9:57:b5, 2015-01-01 00:38:18.125,-2.074,2.671,4.075,38.879,-82.947,71.167, , , , , , ,-15.71,-6.982,-104.793
 09:49:46.861,eb:33:2e:f9:57:b5, 2015-01-01 00:38:18.125,-2.729,3.787,6.334,122.62,143.982,65.674, , , , , , ,-15.035,-6.844,-104.524
 09:49:46.861,eb:33:2e:f9:57:b5, 2015-01-01 00:38:18.125,-1.823,3.083,6.594,285.461,151.001,107.178, , , , , , ,-13.865,-6.125,-104.315
 09:49:46.863,eb:33:2e:f9:57:b5, 2015-01-01 00:38:18.125,-1.791,5.099,3.155,319.702,97.29,123.657, , , , , , ,-12.469,-5.559,-103.865
 09:49:46.865,eb:33:2e:f9:57:b5, 2015-01-01 00:38:18.125,-2.023,5.929,2.299,377.686,72.937,191.772, , , , , , ,-10.811,-5.054,-103.167
 09:49:46.865,eb:33:2e:f9:57:b5, 2015-01-01 00:38:18.125,-2.263,6.125,1.964,359.558,70.679,198.181, , , , , , ,-9.08,-4.565,-102.283
 09:49:46.865,eb:33:2e:f9:57:b5, 2015-01-01 00:38:18.125,-1.819,4.799,1.883,311.401,56.946,183.35, , , , , , ,-7.493,-4.12,-101.398
 09:49:46.865,eb:33:2e:f9:57:b5, 2015-01-01 00:38:18.125,-0.604,5.118,1.394,215.698,39.673,138.977, , , , , , ,-6.251,-3.796,-100.64
 09:49:46.865,eb:33:2e:f9:57:b5, 2015-01-01 00:38:18.125,-0.436,3.908,1.371,103.577,42.908,87.341, , , , , , ,-5.554,-3.532,-100.129
 09:49:46.865,eb:33:2e:f9:57:b5, 2015-01-01 00:38:18.125,-0.307,2.458,1.077,27.588,17.456,43.701, , , , , , ,-5.301,-3.367,-99.844
 09:49:46.865,eb:33:2e:f9:57:b5, 2015-01-01 00:38:18.125,-0.454,1.771,1.081,-0.793,18.127,5.127, , , , , , ,-5.268,-3.279,-99.75
 09:49:46.866,eb:33:2e:f9:57:b5, 2015-01-01 00:38:18.125,-0.411,1.495,1.138,36.621,2.136,-26.733, , , , , , ,-5.197,-3.219,-99.822
 09:49:46.866,eb:33:2e:f9:57:b5, 2015-01-01 00:38:18.125,-0.068,2.875,1.611,143.921,-50.537,-65.125, , , , , , ,-4.669,-3.395,-100.052
 09:49:46.866,eb:33:2e:f9:57:b5, 2015-01-01 00:38:18.125,0.113,1.631,1.993,203.735,-28.503,-120.544, , , , , , ,-3.735,-3.658,-100.552
 09:49:46.866,eb:33:2e:f9:57:b5, 2015-01-01 00:38:18.125,0,0.188,1.915,212.097,34.729,-139.771, , , , , , ,-2.598,-3.653,-101.201
 09:49:46.866,eb:33:2e:f9:57:b5, 2015-01-01 00:38:18.125,0.302,-0.678,1.204,160.706,103.394,-155.884, , , , , , ,-1.67,-3.268,-101.975
 09:49:46.866,eb:33:2e:f9:57:b5, 2015-01-01 00:38:18.125,0.757,-0.758,0.105,120.728,124.512,-181.824, , , , , , ,-0.923,-2.692,-102.843
 09:49:46.866,eb:33:2e:f9:57:b5, 2015-01-01 00:38:18.125,0.768,-2.215,-0.493,50.964,88.44,-188.354, , , , , , ,-0.483,-2.175,-103.793
 09:49:46.866,eb:33:2e:f9:57:b5, 2015-01-01 00:38:18.125,1.055,-3.297,0.491,30.945,20.508,-123.779, , , , , , ,-0.291,-1.961,-104.568
 09:49:46.866,eb:33:2e:f9:57:b5, 2015-01-01 00:38:18.125,1.527,-1.956,2.156,46.631,69.275,-57.922, , , , , , ,-0.055,-1.708,-104.969
 09:49:46.996,eb:33:2e:f9:57:b5, 2015-01-01 00:38:18.125,0.878,-0.1,2.504,43.213,110.046,-24.353, , , , , , ,0.148,-1.285,-105.139
 09:49:46.996,eb:33:2e:f9:57:b5, 2015-01-01 00:38:18.125,0.212,-0.562,2.425,68.542,151.428,9.888, , , , , , ,0.445,-0.593,-105.15
 09:49:46.996,eb:33:2e:f9:57:b5, 2015-01-01 00:38:18.125,-0.376,-0.038,1.292,87.097,157.41,-1.16, , , , , , ,0.835,0.203,-105.106
 09:49:46.996,eb:33:2e:f9:57:b5, 2015-01-01 00:38:18.125,-0.757,0.293,0.703,98.511,111.938,-33.875, , , , , , ,1.318,0.857,-105.2
 09:49:46.996,eb:33:2e:f9:57:b5, 2015-01-01 00:38:18.125,-0.764,0.229,0.364,88.196,71.106,-38.635, , , , , , ,1.78,1.307,-105.386
 09:49:46.996,eb:33:2e:f9:57:b5, 2015-01-01 00:38:18.125,-0.436,-0.144,0.56,74.28,45.349,-18.372, , , , , , ,2.175,1.577,-105.507
 09:49:46.996,eb:33:2e:f9:57:b5, 2015-01-01 00:38:18.125,-0.342,0.121,0.627,67.566,24.658,-18.188, , , , , , ,2.516,1.747,-105.584
 09:49:46.997,eb:33:2e:f9:57:b5, 2015-01-01 00:38:18.125,-0.097,0.009,0.718,66.589,2.38,-19.958, , , , , , ,2.851,1.802,-105.677
 09:49:46.997,eb:33:2e:f9:57:b5, 2015-01-01 00:38:18.125,0.381,0.056,0.858,61.707,-1.343,-17.639, , , , , , ,3.17,1.802,-105.771
 09:49:46.997,eb:33:2e:f9:57:b5, 2015-01-01 00:38:18.125,0.688,0.292,1.056,55.847,14.832,-23.865, , , , , , ,3.45,1.84,-105.87
 09:49:46.997,eb:33:2e:f9:57:b5, 2015-01-01 00:38:18.125,0.848,0.314,1.24,54.993,41.138,-38.208, , , , , , ,3.719,2,-106.024
 09:49:46.997,eb:33:2e:f9:57:b5, 2015-01-01 00:38:18.125,0.766,0.293,1.472,58.777,74.524,-52.673, , , , , , ,3.999,2.318,-106.232
 09:49:46.997,eb:33:2e:f9:57:b5, 2015-01-01 00:38:18.125,0.115,0.192,1.539,65.857,109.07,-64.209, , , , , , ,4.301,2.818,-106.501
 09:49:46.997,eb:33:2e:f9:57:b5, 2015-01-01 00:38:18.125,-0.626,-0.077,1.182,69.153,124.817,-63.904, , , , , , ,4.625,3.444,-106.776
 09:49:46.997,eb:33:2e:f9:57:b5, 2015-01-01 00:38:18.125,-0.618,-0.032,0.631,65.674,96.13,-53.833, , , , , , ,4.949,4.021,-107.018
 09:49:46.997,eb:33:2e:f9:57:b5, 2015-01-01 00:38:18.125,-0.479,0.034,0.635,60.12,72.083,-46.021, , , , , , ,5.246,4.444,-107.227
 09:49:47.000,eb:33:2e:f9:57:b5, 2015-01-01 00:38:18.125,-0.222,0.068,0.687,53.223,57.068,-38.269, , , , , , ,5.51,4.779,-107.402
 09:49:47.000,eb:33:2e:f9:57:b5, 2015-01-01 00:38:18.125,0.089,0.126,0.861,48.279,50.598,-34.424, , , , , , ,5.746,5.048,-107.545
 09:49:47.000,eb:33:2e:f9:57:b5, 2015-01-01 00:38:18.125,0.168,0.155,1.087,46.875,60.486,-34.424, , , , , , ,5.971,5.345,-107.688
 09:49:47.000,eb:33:2e:f9:57:b5, 2015-01-01 00:38:18.125,0.203,0.152,1.242,47.424,71.35,-35.706, , , , , , ,6.191,5.696,-107.831
 09:49:47.001,eb:33:2e:f9:57:b5, 2015-01-01 00:38:18.125,0.209,0.129,1.347,50.049,82.703,-36.682, , , , , , ,6.416,6.103,-107.968
 09:49:47.001,eb:33:2e:f9:57:b5, 2015-01-01 00:38:18.125,0.049,0.123,1.358,52.917,95.093,-37.842, , , , , , ,6.658,6.575,-108.1
 09:49:47.001,eb:33:2e:f9:57:b5, 2015-01-01 00:38:18.125,-0.063,0.093,1.313,55.054,101.074,-36.743, , , , , , ,6.916,7.092,-108.226
 09:49:47.001,eb:33:2e:f9:57:b5, 2015-01-01 00:38:18.125,-0.21,0.099,1.106,56.58,96.863,-35.339, , , , , , ,7.18,7.603,-108.342
 09:49:47.001,eb:33:2e:f9:57:b5, 2015-01-01 00:38:18.125,-0.245,0.078,1.149,57.312,86.365,-29.419, , , , , , ,7.454,8.069,-108.441
 09:49:47.001,eb:33:2e:f9:57:b5, 2015-01-01 00:38:18.125,-0.269,0.108,1.109,57.739,73.181,-23.682, , , , , , ,7.729,8.476,-108.512
 09:49:47.001,eb:33:2e:f9:57:b5, 2015-01-01 00:38:18.125,-0.317,0.087,1.126,59.692,59.57,-16.724, , , , , , ,8.015,8.811,-108.567
 09:49:47.001,eb:33:2e:f9:57:b5, 2015-01-01 00:38:18.125,-0.321,0.068,1.243,64.758,42.297,-7.141, , , , , , ,8.322,9.064,-108.583
 09:49:47.002,eb:33:2e:f9:57:b5, 2015-01-01 00:38:18.125,-0.45,0.012,1.394,71.96,31.616,1.16, , , , , , ,8.668,9.234,-108.572
 09:49:47.002,eb:33:2e:f9:57:b5, 2015-01-01 00:38:18.125,-0.619,-0.154,1.818,87.097,26.917,15.442, , , , , , ,9.08,9.366,-108.49
 09:49:47.002,eb:33:2e:f9:57:b5, 2015-01-01 00:38:18.125,-0.812,-0.301,2.125,107.361,23.376,28.992, , , , , , ,9.602,9.465,-108.353
 09:49:47.002,eb:33:2e:f9:57:b5, 2015-01-01 00:38:18.125,-0.867,-0.466,2.879,132.507,26.794,47.058, , , , , , ,10.239,9.558,-108.133
 09:49:47.061,eb:33:2e:f9:57:b5, 2015-01-01 00:38:18.125,-0.507,-0.34,3.27,166.382,21.973,61.768, , , , , , ,11.069,9.641,-107.814
 09:49:47.061,eb:33:2e:f9:57:b5, 2015-01-01 00:38:18.125,-0.457,-0.292,3.462,208.862,9.277,72.388, , , , , , ,12.096,9.619,-107.441
 09:49:47.061,eb:33:2e:f9:57:b5, 2015-01-01 00:38:18.125,-0.261,-0.862,4.096,257.874,11.169,84.473, , , , , , ,13.348,9.553,-107.04
 09:49:47.061,eb:33:2e:f9:57:b5, 2015-01-01 00:38:18.125,0.377,-0.878,5.055,302.917,29.48,91.187, , , , , , ,14.843,9.558,-106.578
 09:49:47.061,eb:33:2e:f9:57:b5, 2015-01-01 00:38:18.125,0.898,-1.042,4.986,359.558,47.241,90.576, , , , , , ,16.611,9.619,-106.073
 09:49:47.062,eb:33:2e:f9:57:b5, 2015-01-01 00:38:18.125,1.224,-1.032,4.611,417.358,51.27,72.571, , , , , , ,18.655,9.734,-105.595
 09:49:47.062,eb:33:2e:f9:57:b5, 2015-01-01 00:38:18.125,1.467,-1.197,4.656,469.666,61.707,47.058, , , , , , ,20.962,9.904,-105.227
 09:49:47.062,eb:33:2e:f9:57:b5, 2015-01-01 00:38:18.125,1.44,-1.34,4.637,520.447,91.553,16.235, , , , , , ,23.511,10.217,-104.941
 09:49:47.083,eb:33:2e:f9:57:b5, 2015-01-01 00:38:18.595,1.473,-1.399,4.557,574.28,102.6,-7.446, , , , , , ,26.307,10.668,-104.727
 09:49:47.083,eb:33:2e:f9:57:b5, 2015-01-01 00:38:18.595,1.387,-1.493,4.334,620.667,127.136,-35.217, , , , , , ,29.361,11.261,-104.535
 09:49:47.084,eb:33:2e:f9:57:b5, 2015-01-01 00:38:18.595,1.387,-1.388,4.377,649.536,130.737,-61.462, , , , , , ,32.574,11.937,-104.42
 09:49:47.084,eb:33:2e:f9:57:b5, 2015-01-01 00:38:18.595,1.633,-1.354,4.045,682.068,136.353,-86.731, , , , , , ,35.925,12.722,-104.359
 09:49:47.084,eb:33:2e:f9:57:b5, 2015-01-01 00:38:18.595,1.49,-0.758,3.366,693.848,120.911,-117.981, , , , , , ,39.375,13.568,-104.381
 09:49:47.084,eb:33:2e:f9:57:b5, 2015-01-01 00:38:18.595,1.036,-0.317,3.029,692.932,73.914,-152.161, , , , , , ,42.786,14.387,-104.579
 09:49:47.084,eb:33:2e:f9:57:b5, 2015-01-01 00:38:18.595,0.341,0.203,3.164,679.199,27.1,-177.49, , , , , , ,46.099,15.139,-105.04
 09:49:47.084,eb:33:2e:f9:57:b5, 2015-01-01 00:38:18.595,0.112,0.899,4.053,613.708,-3.357,-188.782, , , , , , ,49.131,15.859,-105.688
 09:49:47.129,eb:33:2e:f9:57:b5, 2015-01-01 00:38:18.595,-0.292,0.545,5.241,548.523,25.391,-164.978, , , , , , ,51.844,16.562,-106.227
 09:49:47.129,eb:33:2e:f9:57:b5, 2015-01-01 00:38:18.595,-0.476,-0.343,4.738,439.27,70.129,-116.455, , , , , , ,54.218,17.243,-106.441
 09:49:47.129,eb:33:2e:f9:57:b5, 2015-01-01 00:38:18.595,-1.583,-2.529,2.971,305.176,168.762,-39.124, , , , , , ,56.107,17.93,-106.122
 09:49:47.129,eb:33:2e:f9:57:b5, 2015-01-01 00:38:18.595,-0.891,-4.669,0.53,217.957,263.672,127.93, , , , , , ,57.673,18.303,-104.98
 09:49:47.129,eb:33:2e:f9:57:b5, 2015-01-01 00:38:18.595,-0.339,-3.417,0.529,218.567,272.827,262.146, , , , , , ,59.354,18.149,-103.096
 09:49:47.130,eb:33:2e:f9:57:b5, 2015-01-01 00:38:18.595,0.465,-0.273,1.92,146.118,183.472,315.491, , , , , , ,60.765,17.391,-101.31
 09:49:47.130,eb:33:2e:f9:57:b5, 2015-01-01 00:38:18.595,0.793,-0.346,3.295,129.456,138.55,338.745, , , , , , ,61.864,16.304,-99.772
 09:49:47.130,eb:33:2e:f9:57:b5, 2015-01-01 00:38:18.595,1.246,-1.126,4.413,161.255,134.644,327.271, , , , , , ,62.952,15.123,-98.377
 09:49:47.218,eb:33:2e:f9:57:b5, 2015-01-01 00:38:18.595,1.875,-1.634,4.826,226.807,144.714,280.457, , , , , , ,64.281,14.09,-97.031
 09:49:47.218,eb:33:2e:f9:57:b5, 2015-01-01 00:38:18.595,2.379,-1.647,4.747,289.49,146.79,207.153, , , , , , ,65.896,13.315,-95.801
 09:49:47.218,eb:33:2e:f9:57:b5, 2015-01-01 00:38:18.595,2.409,-1.536,3.853,316.895,134.094,116.577, , , , , , ,67.665,12.892,-94.818
 09:49:47.218,eb:33:2e:f9:57:b5, 2015-01-01 00:38:18.595,2.314,-1.68,2.46,295.898,93.445,20.081, , , , , , ,69.313,12.816,-94.213
 09:49:47.218,eb:33:2e:f9:57:b5, 2015-01-01 00:38:18.595,2.03,-2.163,1.818,245.667,54.443,-76.599, , , , , , ,70.703,13.112,-93.95
 09:49:47.218,eb:33:2e:f9:57:b5, 2015-01-01 00:38:18.595,1.776,-2.608,2.05,181.58,38.94,-167.969, , , , , , ,71.746,13.81,-93.917
 09:49:47.218,eb:33:2e:f9:57:b5, 2015-01-01 00:38:18.595,1.796,-2.671,2.299,100.769,34.546,-246.094, , , , , , ,72.372,14.892,-94.092
 09:49:47.218,eb:33:2e:f9:57:b5, 2015-01-01 00:38:18.595,1.64,-2.931,2.827,25.085,60.974,-301.025, , , , , , ,72.543,16.298,-94.323
 09:49:47.221,eb:33:2e:f9:57:b5, 2015-01-01 00:38:18.595,1.368,-3.381,3.218,-25.757,98.572,-334.351, , , , , , ,72.482,17.963,-94.411
 09:49:47.221,eb:33:2e:f9:57:b5, 2015-01-01 00:38:18.595,1.142,-3.558,3.096,-62.866,126.953,-349.915, , , , , , ,72.252,19.781,-94.345
 09:49:47.221,eb:33:2e:f9:57:b5, 2015-01-01 00:38:18.595,0.876,-3.495,2.767,-94.055,144.348,-351.074, , , , , , ,71.884,21.665,-94.219
 09:49:47.221,eb:33:2e:f9:57:b5, 2015-01-01 00:38:18.595,0.601,-3.332,2.432,-118.408,147.949,-340.515, , , , , , ,71.351,23.527,-94.087
 09:49:47.221,eb:33:2e:f9:57:b5, 2015-01-01 00:38:18.595,0.356,-3.112,2.216,-135.62,140.625,-319.458, , , , , , ,70.768,25.318,-93.922
 09:49:47.221,eb:33:2e:f9:57:b5, 2015-01-01 00:38:18.595,0.142,-2.884,2.106,-147.888,126.831,-288.208, , , , , , ,70.115,26.96,-93.757
 09:49:47.221,eb:33:2e:f9:57:b5, 2015-01-01 00:38:18.595,0.021,-2.716,2.075,-156.555,108.887,-247.986, , , , , , ,69.39,28.405,-93.658
 09:49:47.222,eb:33:2e:f9:57:b5, 2015-01-01 00:38:18.595,0.023,-2.683,2.13,-160.645,89.417,-198.73, , , , , , ,68.566,29.592,-93.636
 09:49:47.291,eb:33:2e:f9:57:b5, 2015-01-01 00:38:18.595,0.055,-2.769,2.226,-157.837,68.909,-140.503, , , , , , ,67.802,30.504,-93.571
 09:49:47.291,eb:33:2e:f9:57:b5, 2015-01-01 00:38:18.595,-0.024,-2.855,2.258,-151.428,47.913,-76.843, , , , , , ,67.066,31.08,-93.466
 09:49:47.291,eb:33:2e:f9:57:b5, 2015-01-01 00:38:18.595,0.007,-2.715,1.902,-146.729,20.691,-18.738, , , , , , ,66.363,31.339,-93.384
 09:49:47.291,eb:33:2e:f9:57:b5, 2015-01-01 00:38:18.595,0.188,-2.385,1.369,-142.456,-27.466,29.602, , , , , , ,65.572,31.262,-93.45
 09:49:47.291,eb:33:2e:f9:57:b5, 2015-01-01 00:38:18.595,0.27,-2.036,1.167,-147.034,-69.824,65.247, , , , , , ,64.77,30.916,-93.609
 09:49:47.291,eb:33:2e:f9:57:b5, 2015-01-01 00:38:18.595,0.447,-1.845,1.103,-159.363,-104.614,91.98, , , , , , ,63.864,30.344,-93.851
 09:49:47.292,eb:33:2e:f9:57:b5, 2015-01-01 00:38:18.595,0.614,-1.678,1.072,-180.725,-128.967,110.535, , , , , , ,62.825,29.614,-94.202
 09:49:47.292,eb:33:2e:f9:57:b5, 2015-01-01 00:38:18.595,0.693,-1.499,0.957,-209.595,-145.813,120.667, , , , , , ,61.584,28.762,-94.653
 09:49:47.292,eb:33:2e:f9:57:b5, 2015-01-01 00:38:18.595,0.783,-1.304,0.808,-242.249,-161.682,122.009, , , , , , ,60.227,27.85,-95.087
 09:49:47.292,eb:33:2e:f9:57:b5, 2015-01-01 00:38:18.595,0.817,-1.053,0.683,-276.428,-174.133,113.77, , , , , , ,58.689,26.911,-95.543
 09:49:47.292,eb:33:2e:f9:57:b5, 2015-01-01 00:38:18.595,0.849,-0.761,0.557,-310.913,-186.707,95.703, , , , , , ,56.959,25.988,-96.097
 09:49:47.292,eb:33:2e:f9:57:b5, 2015-01-01 00:38:18.595,0.811,-0.477,0.5,-352.417,-199.036,62.378, , , , , , ,54.937,25.115,-96.806
 09:49:47.292,eb:33:2e:f9:57:b5, 2015-01-01 00:38:18.595,0.853,-0.321,0.482,-384.644,-209.839,27.771, , , , , , ,52.751,24.34,-97.581
 09:49:47.292,eb:33:2e:f9:57:b5, 2015-01-01 00:38:18.595,0.916,-0.226,0.625,-417.053,-215.332,-10.132, , , , , , ,50.361,23.654,-98.454
 09:49:47.292,eb:33:2e:f9:57:b5, 2015-01-01 00:38:18.595,0.912,-0.284,0.875,-449.646,-213.928,-46.57, , , , , , ,47.78,23.071,-99.459
 09:49:47.293,eb:33:2e:f9:57:b5, 2015-01-01 00:38:18.595,0.831,-0.438,1.143,-478.088,-204.285,-78.186, , , , , , ,44.967,22.571,-100.58
 09:49:47.333,eb:33:2e:f9:57:b5, 2015-01-01 00:38:18.595,0.691,-0.539,1.385,-497.437,-194.275,-102.844, , , , , , ,42.094,22.176,-101.684
 09:49:47.333,eb:33:2e:f9:57:b5, 2015-01-01 00:38:18.595,0.542,-0.572,1.488,-511.353,-191.895,-119.385, , , , , , ,39.133,21.819,-102.805
 09:49:47.333,eb:33:2e:f9:57:b5, 2015-01-01 00:38:18.595,0.465,-0.618,1.498,-523.682,-197.327,-128.967, , , , , , ,36.107,21.429,-103.98
 09:49:47.333,eb:33:2e:f9:57:b5, 2015-01-01 00:38:18.595,0.455,-0.708,1.513,-533.875,-207.703,-132.141, , , , , , ,32.953,20.945,-105.227
 09:49:47.333,eb:33:2e:f9:57:b5, 2015-01-01 00:38:18.595,0.542,-0.761,1.561,-540.588,-222.9,-130.188, , , , , , ,29.839,20.363,-106.43
 09:49:47.333,eb:33:2e:f9:57:b5, 2015-01-01 00:38:18.595,0.601,-0.75,1.629,-544.556,-241.394,-124.329, , , , , , ,26.719,19.633,-107.595
 09:49:47.334,eb:33:2e:f9:57:b5, 2015-01-01 00:38:18.595,0.639,-0.694,1.665,-545.227,-263.733,-115.723, , , , , , ,23.615,18.737,-108.743
 09:49:47.334,eb:33:2e:f9:57:b5, 2015-01-01 00:38:18.595,0.584,-0.6,1.739,-541.443,-288.147,-103.455, , , , , , ,20.495,17.622,-109.869
 09:49:47.353,eb:33:2e:f9:57:b5, 2015-01-01 00:38:18.595,0.375,-0.482,1.825,-533.203,-312.317,-87.708, , , , , , ,17.523,16.342,-110.852
 09:49:47.353,eb:33:2e:f9:57:b5, 2015-01-01 00:38:18.595,0.116,-0.38,1.919,-520.691,-335.632,-65.063, , , , , , ,14.661,14.881,-111.676
 09:49:47.353,eb:33:2e:f9:57:b5, 2015-01-01 00:38:18.595,-0.12,-0.297,2.112,-504.089,-354.98,-34.668, , , , , , ,11.948,13.244,-112.33
 09:49:47.353,eb:33:2e:f9:57:b5, 2015-01-01 00:38:18.595,-0.325,-0.229,2.393,-483.582,-368.958,1.892, , , , , , ,9.338,11.437,-112.78
 09:49:47.353,eb:33:2e:f9:57:b5, 2015-01-01 00:38:18.595,-0.479,-0.176,2.645,-461.792,-380.493,44.678, , , , , , ,6.96,9.553,-112.912
 09:49:47.353,eb:33:2e:f9:57:b5, 2015-01-01 00:38:18.595,-0.55,-0.098,2.811,-441.406,-391.479,91.187, , , , , , ,4.735,7.592,-112.736
 09:49:47.353,eb:33:2e:f9:57:b5, 2015-01-01 00:38:18.595,-0.482,0.081,2.922,-424.927,-403.076,137.512, , , , , , ,2.631,5.565,-112.264
 09:49:47.353,eb:33:2e:f9:57:b5, 2015-01-01 00:38:18.595,-0.336,0.422,3.036,-414.978,-414.978,180.237, , , , , , ,0.538,3.461,-111.539
 09:49:47.399,eb:33:2e:f9:57:b5, 2015-01-01 00:38:18.595,-0.208,0.88,3.148,-413.269,-426.575,216.797, , , , , , ,-1.483,1.362,-110.506
 09:49:47.399,eb:33:2e:f9:57:b5, 2015-01-01 00:38:18.595,-0.131,1.382,3.236,-417.542,-438.232,247.498, , , , , , ,-3.554,-0.753,-109.232
 09:49:47.399,eb:33:2e:f9:57:b5, 2015-01-01 00:38:18.595,-0.094,1.941,3.348,-423.035,-449.036,271.179, , , , , , ,-5.707,-2.862,-107.743
 09:49:47.399,eb:33:2e:f9:57:b5, 2015-01-01 00:38:18.595,-0.012,2.588,3.417,-426.147,-466.98,286.316, , , , , , ,-8.009,-4.999,-106.095
 09:49:47.399,eb:33:2e:f9:57:b5, 2015-01-01 00:38:18.595,0.065,3.272,3.594,-420.837,-483.276,291.016, , , , , , ,-10.322,-7.13,-104.277
 09:49:47.399,eb:33:2e:f9:57:b5, 2015-01-01 00:38:18.595,0.01,3.923,3.922,-400.391,-490.54,286.56, , , , , , ,-12.645,-9.234,-102.365
 09:49:47.399,eb:33:2e:f9:57:b5, 2015-01-01 00:38:18.595,-0.095,4.545,4.271,-364.197,-494.751,275.33, , , , , , ,-14.903,-11.294,-100.382
 09:49:47.400,eb:33:2e:f9:57:b5, 2015-01-01 00:38:18.595,-0.146,5.121,4.688,-320.923,-492.188,259.827, , , , , , ,-17.078,-13.321,-98.394
 09:49:47.467,eb:33:2e:f9:57:b5, 2015-01-01 00:38:18.930,-0.193,5.615,5.185,-279.175,-465.881,242.004, , , , , , ,-19.045,-15.211,-96.405
 09:49:47.467,eb:33:2e:f9:57:b5, 2015-01-01 00:38:18.930,-0.213,6.077,5.563,-243.103,-413.452,221.985, , , , , , ,-20.858,-16.87,-94.521
 09:49:47.467,eb:33:2e:f9:57:b5, 2015-01-01 00:38:18.930,-0.231,6.541,5.636,-212.28,-337.646,196.472, , , , , , ,-22.5,-18.204,-92.796
 09:49:47.467,eb:33:2e:f9:57:b5, 2015-01-01 00:38:18.930,-0.22,6.984,5.357,-186.218,-261.292,161.133, , , , , , ,-24,-19.204,-91.34
 09:49:47.468,eb:33:2e:f9:57:b5, 2015-01-01 00:38:18.930,-0.137,7.383,4.837,-162.903,-199.341,112.915, , , , , , ,-25.241,-19.935,-90.203
 09:49:47.468,eb:33:2e:f9:57:b5, 2015-01-01 00:38:18.930,-0.091,7.756,4.139,-138.611,-152.527,40.283, , , , , , ,-26.235,-20.55,-89.495
 09:49:47.468,eb:33:2e:f9:57:b5, 2015-01-01 00:38:18.930,-0.211,7.77,3.721,-119.69,-123.23,-25.085, , , , , , ,-26.993,-21.149,-89.165
 09:49:47.469,eb:33:2e:f9:57:b5, 2015-01-01 00:38:18.930,-0.498,7.426,3.477,-100.586,-87.891,-86.487, , , , , , ,-27.548,-21.758,-89.214
 09:49:47.533,eb:33:2e:f9:57:b5, 2015-01-01 00:38:18.930,-0.852,6.841,3.367,-80.017,-41.443,-136.169, , , , , , ,-27.839,-22.297,-89.621
 09:49:47.533,eb:33:2e:f9:57:b5, 2015-01-01 00:38:18.930,-1.194,6.133,3.262,-57.495,12.512,-171.326, , , , , , ,-27.889,-22.709,-90.385
 09:49:47.533,eb:33:2e:f9:57:b5, 2015-01-01 00:38:18.930,-1.465,5.375,3.08,-33.813,65.491,-190.43, , , , , , ,-27.719,-22.945,-91.379
 09:49:47.533,eb:33:2e:f9:57:b5, 2015-01-01 00:38:18.930,-1.715,4.626,2.86,-9.949,112,-194.397, , , , , , ,-27.378,-22.978,-92.549
 09:49:47.533,eb:33:2e:f9:57:b5, 2015-01-01 00:38:18.930,-1.923,3.928,2.578,13.611,144.958,-184.814, , , , , , ,-26.873,-22.824,-93.79
 09:49:47.533,eb:33:2e:f9:57:b5, 2015-01-01 00:38:18.930,-2.107,3.276,2.253,38.269,163.33,-162.903, , , , , , ,-26.263,-22.505,-95.032
 09:49:47.533,eb:33:2e:f9:57:b5, 2015-01-01 00:38:18.930,-2.251,2.682,1.9,65.796,165.344,-130.798, , , , , , ,-25.576,-22.077,-96.125
 09:49:47.533,eb:33:2e:f9:57:b5, 2015-01-01 00:38:18.930,-2.304,2.118,1.547,96.741,154.419,-90.149, , , , , , ,-24.835,-21.583,-97.009
 09:49:47.624,eb:33:2e:f9:57:b5, 2015-01-01 00:38:18.930,-2.358,1.589,1.233,130.249,137.024,-44.25, , , , , , ,-24.027,-21.061,-97.641
 09:49:47.624,eb:33:2e:f9:57:b5, 2015-01-01 00:38:18.930,0.324,1.15,0.847,164.551,110.779,6.042, , , , , , ,-23.154,-20.528,-97.993
 09:49:47.624,eb:33:2e:f9:57:b5, 2015-01-01 00:38:18.930,0.924,2.005,3.786,436.89,-162.354,-106.689, , , , , , ,-21.742,-20.693,-98.097
 09:49:47.624,eb:33:2e:f9:57:b5, 2015-01-01 00:38:18.930,3.565,6.374,4.227,720.459,215.332,-219.177, , , , , , ,-18.073,-20.588,-99.24
 09:49:47.625,eb:33:2e:f9:57:b5, 2015-01-01 00:38:18.930,3.674,3.893,0.166,628.601,216.187,-370.422, , , , , , ,-14.134,-20.374,-101.091
 09:49:47.625,eb:33:2e:f9:57:b5, 2015-01-01 00:38:18.930,1.892,3.292,4.788,549.377,443.604,-334.534, , , , , , ,-10.443,-18.935,-103.321
 09:49:47.625,eb:33:2e:f9:57:b5, 2015-01-01 00:38:18.930,0.141,2.351,6.347,426.086,526.428,-235.168, , , , , , ,-7.515,-16.749,-105.068
 09:49:47.625,eb:33:2e:f9:57:b5, 2015-01-01 00:38:18.930,-0.966,1.433,6.579,323.914,673.157,-128.052, , , , , , ,-5.312,-13.738,-106.265
 09:49:47.627,eb:33:2e:f9:57:b5, 2015-01-01 00:38:18.930,-0.279,-0.645,4.348,233.215,611.084,-2.136, , , , , , ,-3.911,-10.508,-106.831
 09:49:47.627,eb:33:2e:f9:57:b5, 2015-01-01 00:38:18.930,-1.208,-0.204,1.305,210.144,506.47,59.204, , , , , , ,-2.802,-7.74,-106.76
 09:49:47.627,eb:33:2e:f9:57:b5, 2015-01-01 00:38:18.930,-2.7,0.488,-0.294,180.298,357.422,12.085, , , , , , ,-1.873,-5.641,-106.672
 09:49:47.627,eb:33:2e:f9:57:b5, 2015-01-01 00:38:18.930,-1.301,0.211,-0.237,168.762,245.972,-15.564, , , , , , ,-0.994,-4.224,-106.754
 09:49:47.627,eb:33:2e:f9:57:b5, 2015-01-01 00:38:18.930,-0.292,-0.093,-0.253,170.898,185.486,-25.024, , , , , , ,-0.143,-3.214,-106.864
 09:49:47.627,eb:33:2e:f9:57:b5, 2015-01-01 00:38:18.930,0.116,0.583,0.245,139.038,171.57,-12.634, , , , , , ,0.643,-2.318,-106.963
 09:49:47.628,eb:33:2e:f9:57:b5, 2015-01-01 00:38:18.930,0.382,1.677,0.182,82.092,139.282,-21.179, , , , , , ,1.165,-1.577,-107.012
 09:49:47.628,eb:33:2e:f9:57:b5, 2015-01-01 00:38:18.930,0.603,0.388,0.24,63.049,129.089,-28.687, , , , , , ,1.505,-0.884,-107.144
 09:49:47.628,eb:33:2e:f9:57:b5, 2015-01-01 00:38:18.930,-0.121,0.104,1.224,67.2,147.583,-28.32, , , , , , ,1.835,-0.231,-107.254
 09:49:47.628,eb:33:2e:f9:57:b5, 2015-01-01 00:38:18.930,-1.583,0.285,1.036,56.885,180.847,-34.18, , , , , , ,2.142,0.659,-107.397
 09:49:47.628,eb:33:2e:f9:57:b5, 2015-01-01 00:38:18.930,-0.333,-0.138,0.279,54.199,96.008,-20.142, , , , , , ,2.406,1.313,-107.496
 09:49:47.628,eb:33:2e:f9:57:b5, 2015-01-01 00:38:18.930,0.212,-0.247,1.317,63.416,88.074,-20.996, , , , , , ,2.703,1.747,-107.573
 09:49:47.628,eb:33:2e:f9:57:b5, 2015-01-01 00:38:18.930,0.693,0.037,1.561,72.876,95.642,-24.78, , , , , , ,3.049,2.214,-107.666
 09:49:47.628,eb:33:2e:f9:57:b5, 2015-01-01 00:38:18.930,0.359,0.263,1.721,72.327,126.404,-34.607, , , , , , ,3.406,2.785,-107.787
 09:49:47.628,eb:33:2e:f9:57:b5, 2015-01-01 00:38:18.930,-0.641,0.205,1.204,70.496,142.456,-38.269, , , , , , ,3.752,3.488,-107.935
 09:49:47.629,eb:33:2e:f9:57:b5, 2015-01-01 00:38:18.930,-0.859,-0.044,0.643,71.594,107.91,-28.137, , , , , , ,4.103,4.131,-108.056
 09:49:47.646,eb:33:2e:f9:57:b5, 2015-01-01 00:38:18.930,-0.116,0.099,0.375,61.584,68.115,-15.808, , , , , , ,4.427,4.559,-108.127
 09:49:47.646,eb:33:2e:f9:57:b5, 2015-01-01 00:38:18.930,0.641,0.323,1.118,60.791,43.579,-13.672, , , , , , ,4.724,4.812,-108.171
 09:49:47.646,eb:33:2e:f9:57:b5, 2015-01-01 00:38:18.930,-0.668,0.254,1.792,97.046,12.695,-20.081, , , , , , ,5.136,4.977,-108.248
 09:49:47.646,eb:33:2e:f9:57:b5, 2015-01-01 00:38:18.930,-1.207,-0.987,2.658,109.07,60.73,14.038, , , , , , ,5.636,5.191,-108.259
 09:49:47.646,eb:33:2e:f9:57:b5, 2015-01-01 00:38:18.930,0.401,-0.756,2.946,151.733,-29.236,60.669, , , , , , ,6.328,5.213,-108.007
 09:49:47.646,eb:33:2e:f9:57:b5, 2015-01-01 00:38:18.930,-0.693,-0.066,2.877,191.528,-28.931,52.185, , , , , , ,7.229,4.982,-107.743
 09:49:47.646,eb:33:2e:f9:57:b5, 2015-01-01 00:38:18.930,-1.085,-0.566,4.324,232.178,-33.447,49.011, , , , , , ,8.3,4.807,-107.529
 09:49:47.646,eb:33:2e:f9:57:b5, 2015-01-01 00:38:18.930,-0.433,-1.474,5.927,293.762,-6.409,67.749, , , , , , ,9.662,4.675,-107.254
 09:49:47.692,eb:33:2e:f9:57:b5, 2015-01-01 00:38:18.930,0.018,-1.556,5.233,364.685,26.428,86.304, , , , , , ,11.387,4.68,-106.848
 09:49:47.692,eb:33:2e:f9:57:b5, 2015-01-01 00:38:18.930,0.148,-1.346,4.129,420.41,22.766,91.98, , , , , , ,13.425,4.713,-106.37
 09:49:47.692,eb:33:2e:f9:57:b5, 2015-01-01 00:38:18.930,0.614,-1.066,4.269,455.627,-3.174,85.51, , , , , , ,15.677,4.647,-105.925
 09:49:47.692,eb:33:2e:f9:57:b5, 2015-01-01 00:38:18.930,0.575,-1.912,4.13,524.048,-4.761,76.05, , , , , , ,18.177,4.46,-105.562
 09:49:47.692,eb:33:2e:f9:57:b5, 2015-01-01 00:38:18.930,0.966,-1.835,4.522,580.017,7.996,67.993, , , , , , ,21,4.356,-105.222
 09:49:47.692,eb:33:2e:f9:57:b5, 2015-01-01 00:38:18.930,0.915,-1.346,5.316,619.629,39.185,47.485, , , , , , ,24.049,4.378,-104.897
 09:49:47.692,eb:33:2e:f9:57:b5, 2015-01-01 00:38:18.930,1.199,-1.442,5.552,645.081,68.42,24.841, , , , , , ,27.246,4.559,-104.623
 09:49:47.693,eb:33:2e:f9:57:b5, 2015-01-01 00:38:18.930,1.608,-1.576,5.635,668.884,113.953,6.592, , , , , , ,30.547,4.933,-104.348
 09:49:47.804,eb:33:2e:f9:57:b5, 2015-01-01 00:38:18.930,1.744,-1.442,5.172,703.613,169.922,-13.977, , , , , , ,34.047,5.603,-103.947
 09:49:47.804,eb:33:2e:f9:57:b5, 2015-01-01 00:38:18.930,1.389,-0.462,4.323,716.309,134.827,-56.641, , , , , , ,37.634,6.317,-103.645
 09:49:47.804,eb:33:2e:f9:57:b5, 2015-01-01 00:38:18.930,0.356,0.031,4.704,711.731,114.38,-77.759, , , , , , ,41.215,7.015,-103.557
 09:49:47.804,eb:33:2e:f9:57:b5, 2015-01-01 00:38:18.930,-0.688,0.583,5.491,705.566,146.606,-75.928, , , , , , ,44.764,7.778,-103.387
 09:49:47.805,eb:33:2e:f9:57:b5, 2015-01-01 00:38:18.930,-0.743,-0.234,5.947,680.176,146.667,-30.762, , , , , , ,48.268,8.399,-103.041
 09:49:47.805,eb:33:2e:f9:57:b5, 2015-01-01 00:38:18.930,-0.259,-0.25,4.672,639.404,147.461,39.856, , , , , , ,51.691,8.888,-102.398
 09:49:47.805,eb:33:2e:f9:57:b5, 2015-01-01 00:38:18.930,-0.032,-0.915,1.563,463.196,223.999,103.516, , , , , , ,54.553,9.174,-101.393
 09:49:47.805,eb:33:2e:f9:57:b5, 2015-01-01 00:38:18.930,0.853,-1.587,0.693,339.539,289.551,189.209, , , , , , ,56.624,9.234,-99.882
 09:49:47.805,eb:33:2e:f9:57:b5, 2015-01-01 00:38:18.930,1.223,-0.801,0.722,332.092,261.658,248.535, , , , , , ,58.634,9.053,-98.026
 09:49:47.806,eb:33:2e:f9:57:b5, 2015-01-01 00:38:18.930,1.34,1.712,1.927,234.558,214.844,234.863, , , , , , ,60.255,8.591,-96.361
 09:49:47.806,eb:33:2e:f9:57:b5, 2015-01-01 00:38:18.930,1.945,1.168,3.104,220.581,110.535,224.06, , , , , , ,61.512,7.954,-95.136
 09:49:47.806,eb:33:2e:f9:57:b5, 2015-01-01 00:38:18.930,1.906,0.721,4.837,269.653,53.04,188.66, , , , , , ,62.836,7.229,-94.329
 09:49:47.806,eb:33:2e:f9:57:b5, 2015-01-01 00:38:18.930,1.789,0.482,5.326,337.646,-16.541,128.784, , , , , , ,64.435,6.564,-93.933
 09:49:47.806,eb:33:2e:f9:57:b5, 2015-01-01 00:38:19.285,1.345,0.023,5.333,409.058,-72.021,62.256, , , , , , ,66.324,6.048,-93.955
 09:49:47.806,eb:33:2e:f9:57:b5, 2015-01-01 00:38:19.285,1.66,-0.899,5.19,475.586,-115.356,-1.709, , , , , , ,68.538,5.762,-94.356
 09:49:47.806,eb:33:2e:f9:57:b5, 2015-01-01 00:38:19.285,1.719,-1.313,5.387,497.437,-136.536,-64.453, , , , , , ,70.9,5.707,-95.065
 09:49:47.894,eb:33:2e:f9:57:b5, 2015-01-01 00:38:19.285,1.759,-1.711,5.518,479.614,-143.433,-130.249, , , , , , ,73.257,5.988,-95.905
 09:49:47.894,eb:33:2e:f9:57:b5, 2015-01-01 00:38:19.285,1.386,-2.302,5.661,439.209,-101.562,-196.411, , , , , , ,75.454,6.641,-96.691
 09:49:47.894,eb:33:2e:f9:57:b5, 2015-01-01 00:38:19.285,1.222,-3.183,5.276,364.563,-8.179,-264.221, , , , , , ,77.382,7.734,-97.207
 09:49:47.894,eb:33:2e:f9:57:b5, 2015-01-01 00:38:19.285,1.688,-3.601,4.237,272.095,52.734,-305.42, , , , , , ,78.871,9.179,-97.383
 09:49:47.894,eb:33:2e:f9:57:b5, 2015-01-01 00:38:19.285,1.843,-3.798,3.704,176.086,113.037,-337.158, , , , , , ,79.958,10.854,-97.245
 09:49:47.894,eb:33:2e:f9:57:b5, 2015-01-01 00:38:19.285,1.607,-4.017,3.864,114.441,159.424,-363.342, , , , , , ,80.722,12.717,-96.784
 09:49:47.894,eb:33:2e:f9:57:b5, 2015-01-01 00:38:19.285,1.437,-3.999,3.653,76.538,166.626,-382.812, , , , , , ,81.304,14.7,-96.24
 09:49:47.895,eb:33:2e:f9:57:b5, 2015-01-01 00:38:19.285,1.339,-3.931,3.127,44.25,146.606,-392.883, , , , , , ,81.672,16.732,-95.773
 09:49:47.895,eb:33:2e:f9:57:b5, 2015-01-01 00:38:19.285,1.083,-4.042,2.685,12.573,123.047,-393.677, , , , , , ,81.914,18.776,-95.383
 09:49:47.895,eb:33:2e:f9:57:b5, 2015-01-01 00:38:19.285,0.739,-4.243,2.397,-18.25,100.769,-383.057, , , , , , ,81.98,20.775,-95.054
 09:49:47.895,eb:33:2e:f9:57:b5, 2015-01-01 00:38:19.285,0.486,-4.377,2.288,-48.462,81.299,-358.826, , , , , , ,81.87,22.665,-94.867
 09:49:47.895,eb:33:2e:f9:57:b5, 2015-01-01 00:38:19.285,0.307,-4.38,2.293,-78.369,76.294,-324.646, , , , , , ,81.535,24.39,-94.757
 09:49:47.895,eb:33:2e:f9:57:b5, 2015-01-01 00:38:19.285,0.198,-4.301,2.242,-108.765,82.031,-282.104, , , , , , ,81.129,25.933,-94.576
 09:49:47.896,eb:33:2e:f9:57:b5, 2015-01-01 00:38:19.285,0.125,-4.208,2.088,-139.587,91.98,-233.032, , , , , , ,80.607,27.252,-94.279
 09:49:47.896,eb:33:2e:f9:57:b5, 2015-01-01 00:38:19.285,0.18,-4.182,1.888,-169.495,98.206,-178.223, , , , , , ,79.98,28.317,-93.933
 09:49:47.896,eb:33:2e:f9:57:b5, 2015-01-01 00:38:19.285,0.307,-4.18,1.672,-196.899,97.107,-120.3, , , , , , ,79.173,29.108,-93.582
 09:49:47.896,eb:33:2e:f9:57:b5, 2015-01-01 00:38:19.285,0.449,-4.032,1.253,-223.511,82.214,-65.918, , , , , , ,78.305,29.625,-93.17
 09:49:47.896,eb:33:2e:f9:57:b5, 2015-01-01 00:38:19.285,0.664,-3.753,0.635,-250.122,42.786,-15.991, , , , , , ,77.256,29.861,-92.845
 09:49:47.896,eb:33:2e:f9:57:b5, 2015-01-01 00:38:19.285,0.882,-3.414,0.188,-276.733,-9.338,25.513, , , , , , ,75.959,29.828,-92.763
 09:49:47.896,eb:33:2e:f9:57:b5, 2015-01-01 00:38:19.285,1.093,-3.084,0.032,-301.025,-64.087,55.298, , , , , , ,74.344,29.553,-92.988
 09:49:47.896,eb:33:2e:f9:57:b5, 2015-01-01 00:38:19.285,1.282,-2.758,-0.08,-325.195,-119.873,75.623, , , , , , ,72.559,29.086,-93.417
 09:49:47.896,eb:33:2e:f9:57:b5, 2015-01-01 00:38:19.285,1.398,-2.471,-0.144,-353.088,-169.983,87.585, , , , , , ,70.532,28.455,-94.048
 09:49:47.896,eb:33:2e:f9:57:b5, 2015-01-01 00:38:19.285,1.427,-2.23,-0.097,-384.888,-215.21,93.018, , , , , , ,68.264,27.68,-94.916
 09:49:47.897,eb:33:2e:f9:57:b5, 2015-01-01 00:38:19.285,1.375,-2.005,0.133,-417.48,-252.502,93.75, , , , , , ,65.693,26.779,-96.004
 09:49:48.277,eb:33:2e:f9:57:b5, 2015-01-01 00:38:19.285,1.312,-1.723,0.478,-447.876,-281.86,91.003, , , , , , ,63.007,25.774,-97.141
 09:49:48.277,eb:33:2e:f9:57:b5, 2015-01-01 00:38:19.285,1.193,-1.374,0.876,-474.792,-302.124,85.571, , , , , , ,60.172,24.686,-98.322
 09:49:48.277,eb:33:2e:f9:57:b5, 2015-01-01 00:38:19.285,1.089,-1.033,1.251,-500.366,-313.11,78.613, , , , , , ,57.222,23.533,-99.542
 09:49:48.277,eb:33:2e:f9:57:b5, 2015-01-01 00:38:19.285,1.018,-0.83,1.639,-523.865,-308.35,71.411, , , , , , ,54.119,22.335,-100.767
 09:49:48.277,eb:33:2e:f9:57:b5, 2015-01-01 00:38:19.285,1.004,-0.762,1.972,-545.959,-288.757,64.026, , , , , , ,51.042,21.165,-101.821
 09:49:48.277,eb:33:2e:f9:57:b5, 2015-01-01 00:38:19.285,1.066,-0.74,2.154,-567.383,-261.963,57.19, , , , , , ,47.928,20.05,-102.7
 09:49:48.278,eb:33:2e:f9:57:b5, 2015-01-01 00:38:19.285,1.209,-0.776,2.335,-587.708,-235.229,51.086, , , , , , ,44.775,19.006,-103.458
 09:49:48.278,eb:33:2e:f9:57:b5, 2015-01-01 00:38:19.285,1.21,-0.797,2.496,-603.333,-209.167,44.739, , , , , , ,41.523,18.029,-104.117
 09:49:48.280,eb:33:2e:f9:57:b5, 2015-01-01 00:38:19.285,1.294,-0.722,2.453,-613.525,-199.89,38.574, , , , , , ,38.315,17.117,-104.634
 09:49:48.280,eb:33:2e:f9:57:b5, 2015-01-01 00:38:19.285,1.377,-0.619,2.391,-620.422,-204.163,32.104, , , , , , ,35.085,16.205,-105.106
 09:49:48.280,eb:33:2e:f9:57:b5, 2015-01-01 00:38:19.285,1.364,-0.544,2.286,-625.549,-221.802,26.062, , , , , , ,31.833,15.238,-105.59
 09:49:48.280,eb:33:2e:f9:57:b5, 2015-01-01 00:38:19.285,1.409,-0.537,2.165,-627.991,-250.549,19.958, , , , , , ,28.493,14.123,-106.161
 09:49:48.280,eb:33:2e:f9:57:b5, 2015-01-01 00:38:19.285,1.393,-0.523,2.231,-626.221,-289.734,12.329, , , , , , ,25.219,12.87,-106.727
 09:49:48.280,eb:33:2e:f9:57:b5, 2015-01-01 00:38:19.285,1.243,-0.386,2.255,-618.958,-328.369,5.127, , , , , , ,21.984,11.42,-107.32
 09:49:48.280,eb:33:2e:f9:57:b5, 2015-01-01 00:38:19.285,0.86,-0.166,2.275,-607.117,-373.474,1.038, , , , , , ,18.809,9.75,-107.935
 09:49:48.281,eb:33:2e:f9:57:b5, 2015-01-01 00:38:19.285,0.294,0.083,2.377,-594.299,-422.302,3.296, , , , , , ,15.645,7.795,-108.572
 09:49:48.281,eb:33:2e:f9:57:b5, 2015-01-01 00:38:19.285,-0.268,0.3,2.608,-585.571,-468.445,21.057, , , , , , ,12.64,5.598,-109.067
 09:49:48.281,eb:33:2e:f9:57:b5, 2015-01-01 00:38:19.285,-0.752,0.445,3.133,-584.656,-494.08,54.382, , , , , , ,9.695,3.175,-109.336
 09:49:48.281,eb:33:2e:f9:57:b5, 2015-01-01 00:38:19.285,-1.064,0.562,3.89,-588.074,-488.586,104.187, , , , , , ,6.762,0.676,-109.281
 09:49:48.281,eb:33:2e:f9:57:b5, 2015-01-01 00:38:19.285,-1.113,0.903,4.723,-595.215,-456.299,164.307, , , , , , ,3.724,-1.763,-108.82
 09:49:48.281,eb:33:2e:f9:57:b5, 2015-01-01 00:38:19.285,-0.938,1.475,5.472,-608.582,-406.372,227.905, , , , , , ,0.659,-3.939,-107.891
 09:49:48.281,eb:33:2e:f9:57:b5, 2015-01-01 00:38:19.285,-0.676,2.167,5.861,-624.817,-344.666,287.842, , , , , , ,-2.543,-5.762,-106.54
 09:49:48.281,eb:33:2e:f9:57:b5, 2015-01-01 00:38:19.285,-0.234,3.021,5.874,-632.812,-294.128,332.703, , , , , , ,-5.894,-7.207,-104.843
 09:49:48.281,eb:33:2e:f9:57:b5, 2015-01-01 00:38:19.285,0.308,4.128,5.812,-621.46,-263.55,353.882, , , , , , ,-9.366,-8.355,-102.931
 09:49:48.346,eb:33:2e:f9:57:b5, 2015-01-01 00:38:19.285,0.618,5.543,5.677,-584.595,-261.658,348.083, , , , , , ,-12.678,-9.294,-100.931
 09:49:48.346,eb:33:2e:f9:57:b5, 2015-01-01 00:38:19.285,0.566,7.05,5.35,-526.001,-297.18,319.946, , , , , , ,-15.771,-10.239,-98.959
 09:49:48.346,eb:33:2e:f9:57:b5, 2015-01-01 00:38:19.285,0.337,8.222,5.084,-456.726,-361.816,278.381, , , , , , ,-18.561,-11.404,-97.015
 09:49:48.346,eb:33:2e:f9:57:b5, 2015-01-01 00:38:19.285,-0.03,8.841,5.243,-384.644,-416.992,234.497, , , , , , ,-21.088,-12.859,-95.125
 09:49:48.346,eb:33:2e:f9:57:b5, 2015-01-01 00:38:19.285,-0.388,9.123,5.733,-306.213,-435.242,196.35, , , , , , ,-23.214,-14.458,-93.279
 09:49:48.346,eb:33:2e:f9:57:b5, 2015-01-01 00:38:19.285,-0.687,9.256,6.401,-219.116,-403.32,167.297, , , , , , ,-24.944,-16.013,-91.571
 09:49:48.346,eb:33:2e:f9:57:b5, 2015-01-01 00:38:19.285,-0.765,9.411,6.822,-135.437,-327.271,141.174, , , , , , ,-26.224,-17.314,-90.044
 09:49:48.346,eb:33:2e:f9:57:b5, 2015-01-01 00:38:19.285,-0.542,9.537,6.657,-71.167,-228.394,109.375, , , , , , ,-27.109,-18.243,-88.83
 09:49:48.411,eb:33:2e:f9:57:b5, 2015-01-01 00:38:19.285,-0.169,9.587,5.948,-25.757,-127.991,67.017, , , , , , ,-27.576,-18.792,-88.028
 09:49:48.411,eb:33:2e:f9:57:b5, 2015-01-01 00:38:19.285,0.09,9.545,4.95,11.78,-47.791,11.536, , , , , , ,-27.708,-19.056,-87.698
 09:49:48.411,eb:33:2e:f9:57:b5, 2015-01-01 00:38:19.285,0.03,9.286,3.87,42.236,0.305,-52.49, , , , , , ,-27.526,-19.188,-87.781
 09:49:48.411,eb:33:2e:f9:57:b5, 2015-01-01 00:38:19.285,-0.35,8.614,2.879,64.148,17.944,-116.028, , , , , , ,-27.109,-19.347,-88.242
 09:49:48.411,eb:33:2e:f9:57:b5, 2015-01-01 00:38:19.285,-0.969,7.541,2.374,81.848,18.433,-164.673, , , , , , ,-26.488,-19.594,-88.984
 09:49:48.411,eb:33:2e:f9:57:b5, 2015-01-01 00:38:19.285,-1.667,6.334,2.414,103.516,18.372,-191.895, , , , , , ,-25.708,-19.913,-89.923
 09:49:48.411,eb:33:2e:f9:57:b5, 2015-01-01 00:38:19.285,-2.272,5.04,2.561,132.263,28.137,-196.106, , , , , , ,-24.769,-20.226,-90.917
 09:49:48.411,eb:33:2e:f9:57:b5, 2015-01-01 00:38:19.285,-2.613,3.83,2.501,162.964,47.058,-179.626, , , , , , ,-23.67,-20.435,-91.917
 09:49:48.458,eb:33:2e:f9:57:b5, 2015-01-01 00:38:19.285,1.063,2.741,2.277,192.444,71.899,-150.391, , , , , , ,-22.44,-20.473,-92.845
 09:49:48.458,eb:33:2e:f9:57:b5, 2015-01-01 00:38:19.285,1.227,-1.745,5.354,655.457,11.536,42.664, , , , , , ,21.83,2.307,-102.876
 09:49:48.458,eb:33:2e:f9:57:b5, 2015-01-01 00:38:19.285,1.761,-1.574,5.839,712.036,20.691,11.108, , , , , , ,25.285,2.34,-102.733
 09:49:48.458,eb:33:2e:f9:57:b5, 2015-01-01 00:38:19.285,2.053,-1.681,5.961,745.911,37.72,-25.146, , , , , , ,28.938,2.499,-102.722
 09:49:48.458,eb:33:2e:f9:57:b5, 2015-01-01 00:38:19.285,2.402,-1.337,5.328,770.264,46.875,-69.397, , , , , , ,32.745,2.84,-102.821
 09:49:48.458,eb:33:2e:f9:57:b5, 2015-01-01 00:38:19.285,2.202,-1.333,5.246,792.48,39.978,-113.77, , , , , , ,36.639,3.285,-103.085
 09:49:48.458,eb:33:2e:f9:57:b5, 2015-01-01 00:38:19.285,1.013,-0.448,5.357,838.928,35.278,-152.405, , , , , , ,40.693,3.84,-103.513
 09:49:48.458,eb:33:2e:f9:57:b5, 2015-01-01 00:38:19.285,0.492,1.081,7.108,851.074,15.564,-181.824, , , , , , ,44.912,4.548,-104.073
 09:49:48.503,eb:33:2e:f9:57:b5, 2015-01-01 00:38:19.285,-1.066,-0.843,7.184,811.401,131.226,-146.667, , , , , , ,49.07,5.515,-104.288
 09:49:48.503,eb:33:2e:f9:57:b5, 2015-01-01 00:38:19.285,-0.218,-0.916,3.947,690.735,89.661,-110.779, , , , , , ,52.773,6.378,-104.244
 09:49:48.503,eb:33:2e:f9:57:b5, 2015-01-01 00:38:19.285,0.769,-0.013,1.953,471.985,83.801,-72.754, , , , , , ,55.602,6.943,-104.238
 09:49:48.503,eb:33:2e:f9:57:b5, 2015-01-01 00:38:19.285,-0.197,-1.203,2.58,352.112,266.663,-28.198, , , , , , ,57.585,7.663,-103.541
 09:49:48.503,eb:33:2e:f9:57:b5, 2015-01-01 00:38:19.285,0.194,-1.103,1.858,355.774,297.119,28.931, , , , , , ,59.579,8.383,-102.266
 09:49:48.503,eb:33:2e:f9:57:b5, 2015-01-01 00:38:19.285,1.412,1.327,2.609,258.545,267.273,34.119, , , , , , ,61.282,8.954,-100.865
 09:49:48.503,eb:33:2e:f9:57:b5, 2015-01-01 00:38:19.285,1.655,1.17,4.073,239.319,174.316,34.729, , , , , , ,62.628,9.283,-99.866
 09:49:48.504,eb:33:2e:f9:57:b5, 2015-01-01 00:38:19.285,1.534,0.513,5.616,297.607,105.469,28.809, , , , , , ,64.067,9.443,-99.201
 09:49:48.524,eb:33:2e:f9:57:b5, 2015-01-01 00:38:19.285,1.458,-0.124,6.269,376.099,49.622,4.578, , , , , , ,65.847,9.52,-98.839
 09:49:48.524,eb:33:2e:f9:57:b5, 2015-01-01 00:38:19.285,1.637,-0.442,6.429,448.303,-12.268,-18.25, , , , , , ,67.956,9.586,-98.784
 09:49:48.524,eb:33:2e:f9:57:b5, 2015-01-01 00:38:19.285,1.062,-1.15,6.964,495.422,-16.418,-37.659, , , , , , ,70.323,9.695,-98.926
 09:49:48.524,eb:33:2e:f9:57:b5, 2015-01-01 00:38:19.285,1.115,-2.14,6.71,513.977,-12.756,-53.772, , , , , , ,72.806,9.888,-99.091
 09:49:48.524,eb:33:2e:f9:57:b5, 2015-01-01 00:38:19.285,1.466,-2.952,6.6,506.165,16.479,-70.374, , , , , , ,75.35,10.201,-99.168
 09:49:48.524,eb:33:2e:f9:57:b5, 2015-01-01 00:38:19.285,1.785,-3.253,6.273,474.304,59.326,-93.689, , , , , , ,77.811,10.657,-99.025
 09:49:48.524,eb:33:2e:f9:57:b5, 2015-01-01 00:38:19.285,1.826,-3.283,5.69,424.194,110.107,-127.991, , , , , , ,80.101,11.294,-98.685
 09:49:48.524,eb:33:2e:f9:57:b5, 2015-01-01 00:38:19.285,1.832,-3.223,4.691,359.253,144.531,-172.119, , , , , , ,82.095,12.151,-98.157
 09:49:48.524,eb:33:2e:f9:57:b5, 2015-01-01 00:38:19.285,0.004,-3.147,3.615,286.072,139.587,-221.863, , , , , , ,83.804,13.239,-97.548
 09:49:48.526,eb:33:2e:f9:57:b5, 2015-01-01 00:38:19.285,0.072,-4.2,2.514,-116.943,145.752,-187.012, , , , , , ,87.935,26.598,-93.494
 09:49:48.526,eb:33:2e:f9:57:b5, 2015-01-01 00:38:19.285,0.208,-4.062,2.112,-156.86,161.926,-138.855, , , , , , ,87.616,27.422,-92.653
 09:49:48.526,eb:33:2e:f9:57:b5, 2015-01-01 00:38:19.285,0.356,-3.901,1.602,-196.716,163.94,-94.055, , , , , , ,87.05,28.015,-91.807
 09:49:48.526,eb:33:2e:f9:57:b5, 2015-01-01 00:38:19.285,0.55,-3.741,0.99,-236.816,146.24,-53.04, , , , , , ,86.347,28.405,-90.95
 09:49:48.526,eb:33:2e:f9:57:b5, 2015-01-01 00:38:19.285,0.723,-3.594,0.387,-277.344,112.671,-16.235, , , , , , ,85.38,28.603,-90.209
 09:49:48.526,eb:33:2e:f9:57:b5, 2015-01-01 00:38:19.285,0.999,-3.456,-0.128,-317.505,64.209,17.517, , , , , , ,84.106,28.619,-89.725
 09:49:48.526,eb:33:2e:f9:57:b5, 2015-01-01 00:38:19.285,1.319,-3.219,-0.374,-356.689,12.573,45.471, , , , , , ,82.419,28.471,-89.577
 09:49:48.770,eb:33:2e:f9:57:b5, 2015-01-01 00:38:19.285,1.52,-2.861,-0.263,-391.846,-35.522,63.11, , , , , , ,80.502,28.174,-89.621
 09:49:48.770,eb:33:2e:f9:57:b5, 2015-01-01 00:38:19.285,1.745,-2.434,-0.205,-424.622,-83.984,70.068, , , , , , ,78.311,27.779,-89.879
 09:49:48.770,eb:33:2e:f9:57:b5, 2015-01-01 00:38:19.285,1.954,-2.019,-0.251,-462.402,-127.319,68.97, , , , , , ,75.833,27.318,-90.396
 09:49:48.770,eb:33:2e:f9:57:b5, 2015-01-01 00:38:19.285,2.009,-1.607,-0.126,-510.681,-171.204,57.556, , , , , , ,72.966,26.807,-91.198
 09:49:48.770,eb:33:2e:f9:57:b5, 2015-01-01 00:38:19.285,2.006,-1.244,0.191,-548.157,-200.562,41.87, , , , , , ,69.89,26.274,-92.12
 09:49:48.770,eb:33:2e:f9:57:b5, 2015-01-01 00:38:19.285,1.954,-0.856,0.528,-580.383,-226.318,21.362, , , , , , ,66.588,25.735,-93.148
 09:49:48.770,eb:33:2e:f9:57:b5, 2015-01-01 00:38:19.285,1.797,-0.537,0.847,-609.802,-249.817,-0.549, , , , , , ,63.083,25.186,-94.334
 09:49:48.770,eb:33:2e:f9:57:b5, 2015-01-01 00:38:19.285,1.685,-0.41,1.17,-636.169,-268.25,-19.958, , , , , , ,59.326,24.604,-95.696
 09:49:48.838,eb:33:2e:f9:57:b5, 2015-01-01 00:38:19.285,1.67,-0.444,1.658,-658.813,-275.452,-34.668, , , , , , ,55.519,23.994,-97.048
 09:49:48.838,eb:33:2e:f9:57:b5, 2015-01-01 00:38:19.285,1.604,-0.52,2.199,-677.246,-265.503,-44.128, , , , , , ,51.636,23.351,-98.35
 09:49:48.838,eb:33:2e:f9:57:b5, 2015-01-01 00:38:19.285,1.526,-0.551,2.616,-688.721,-252.075,-48.95, , , , , , ,47.73,22.703,-99.58
 09:49:48.838,eb:33:2e:f9:57:b5, 2015-01-01 00:38:19.285,1.42,-0.496,2.845,-693.42,-245.605,-50.537, , , , , , ,43.753,22.006,-100.794
 09:49:48.838,eb:33:2e:f9:57:b5, 2015-01-01 00:38:19.285,1.425,-0.415,2.837,-692.505,-254.7,-49.194, , , , , , ,39.88,21.242,-101.887
 09:49:48.838,eb:33:2e:f9:57:b5, 2015-01-01 00:38:19.285,1.43,-0.346,2.808,-686.951,-273.01,-46.021, , , , , , ,36.052,20.341,-102.953
 09:49:48.838,eb:33:2e:f9:57:b5, 2015-01-01 00:38:19.285,1.404,-0.323,2.75,-676.697,-300.537,-41.992, , , , , , ,32.283,19.27,-104.008
 09:49:48.839,eb:33:2e:f9:57:b5, 2015-01-01 00:38:19.285,1.296,-0.385,2.596,-662.354,-334.534,-36.011, , , , , , ,28.537,17.957,-105.095
 09:49:48.843,eb:33:2e:f9:57:b5, 2015-01-01 00:38:19.285,1.355,-0.448,2.465,-644.836,-375.977,-30.029, , , , , , ,24.977,16.425,-106.089
 09:49:48.843,eb:33:2e:f9:57:b5, 2015-01-01 00:38:19.285,1.305,-0.436,2.553,-624.512,-414.856,-27.405, , , , , , ,21.555,14.645,-107.034
 09:49:48.843,eb:33:2e:f9:57:b5, 2015-01-01 00:38:19.285,0.961,-0.281,2.594,-603.821,-451.965,-27.344, , , , , , ,18.287,12.634,-107.935
 09:49:48.843,eb:33:2e:f9:57:b5, 2015-01-01 00:38:19.285,0.443,-0.134,2.584,-584.534,-494.568,-21.179, , , , , , ,15.084,10.349,-108.798
 09:49:48.843,eb:33:2e:f9:57:b5, 2015-01-01 00:38:19.285,-0.09,-0.104,2.814,-567.383,-530.518,-5.493, , , , , , ,12.101,7.85,-109.473
 09:49:48.843,eb:33:2e:f9:57:b5, 2015-01-01 00:38:19.285,-0.558,-0.138,3.34,-554.138,-548.401,23.926, , , , , , ,9.256,5.169,-109.918
 09:49:48.843,eb:33:2e:f9:57:b5, 2015-01-01 00:38:19.285,-0.987,-0.123,4.097,-544.556,-539.551,67.688, , , , , , ,6.504,2.439,-110.05
 09:49:48.844,eb:33:2e:f9:57:b5, 2015-01-01 00:38:19.285,-1.172,0.042,4.897,-537.659,-506.897,121.826, , , , , , ,3.73,-0.236,-109.808
 09:49:48.846,eb:33:2e:f9:57:b5, 2015-01-01 00:38:19.285,-1.191,0.354,5.619,-531.616,-452.454,178.223, , , , , , ,1.038,-2.642,-109.133
 09:49:48.846,eb:33:2e:f9:57:b5, 2015-01-01 00:38:19.285,-1.07,0.847,5.8,-528.259,-397.949,228.699, , , , , , ,-1.675,-4.735,-108.073
 09:49:48.846,eb:33:2e:f9:57:b5, 2015-01-01 00:38:19.285,-0.735,1.458,5.358,-530.762,-364.502,268.066, , , , , , ,-4.455,-6.542,-106.699
 09:49:48.846,eb:33:2e:f9:57:b5, 2015-01-01 00:38:19.285,-0.431,2.188,4.864,-535.889,-353.455,289.429, , , , , , ,-7.41,-8.201,-105.112
 09:49:48.846,eb:33:2e:f9:57:b5, 2015-01-01 00:38:19.285,-0.134,3.061,4.544,-537.537,-370.361,294.067, , , , , , ,-10.371,-9.756,-103.359
 09:49:48.846,eb:33:2e:f9:57:b5, 2015-01-01 00:38:19.285,-0.019,4.011,4.624,-530.212,-405.273,284.546, , , , , , ,-13.381,-11.371,-101.508
 09:49:48.847,eb:33:2e:f9:57:b5, 2015-01-01 00:38:19.285,-0.154,4.891,5.059,-513.123,-443.665,268.677, , , , , , ,-16.392,-13.09,-99.586
 09:49:48.847,eb:33:2e:f9:57:b5, 2015-01-01 00:38:19.285,-0.344,5.61,5.699,-486.511,-471.924,252.319, , , , , , ,-19.44,-14.914,-97.586
 09:49:48.906,eb:33:2e:f9:57:b5, 2015-01-01 00:38:19.285,-1.354,6.203,6.418,-451.721,-460.327,238.22, , , , , , ,-22.33,-16.666,-95.537
 09:49:48.906,eb:33:2e:f9:57:b5, 2015-01-01 00:38:19.285,-1.759,0.173,0.016,84.351,196.228,-37.109, , , , , , ,1.912,3.51,-111.945
 09:49:48.906,eb:33:2e:f9:57:b5, 2015-01-01 00:38:19.285,-0.816,-0.034,-0.441,72.266,112.488,-16.541, , , , , , ,2.285,4.219,-112.039
 09:49:48.906,eb:33:2e:f9:57:b5, 2015-01-01 00:38:19.285,1.162,-0.081,0.826,77.209,69.885,2.258, , , , , , ,2.675,4.647,-112.039
 09:49:48.906,eb:33:2e:f9:57:b5, 2015-01-01 00:38:19.285,0.913,0.411,2.387,94.36,106.384,-18.738, , , , , , ,3.109,5.065,-112.05
 09:49:48.906,eb:33:2e:f9:57:b5, 2015-01-01 00:38:19.285,-0.277,-0.057,2.653,107.91,162.842,-33.63, , , , , , ,3.615,5.79,-112.154
 09:49:48.906,eb:33:2e:f9:57:b5, 2015-01-01 00:38:19.285,-0.388,-0.316,1.158,123.962,138.794,-20.63, , , , , , ,4.197,6.581,-112.236
 09:49:48.906,eb:33:2e:f9:57:b5, 2015-01-01 00:38:19.285,-0.111,0.637,0.227,118.103,55.847,-21.545, , , , , , ,4.828,7.048,-112.291
 09:49:48.929,eb:33:2e:f9:57:b5, 2015-01-01 00:38:19.285,-1.052,0.311,1.387,103.516,53.528,-22.4, , , , , , ,5.356,7.284,-112.385
 09:49:48.929,eb:33:2e:f9:57:b5, 2015-01-01 00:38:19.285,-1.121,-0.727,2.651,131.958,47.852,17.639, , , , , , ,5.944,7.592,-112.346
 09:49:48.929,eb:33:2e:f9:57:b5, 2015-01-01 00:38:19.285,-1.41,-0.659,2.913,180.664,-2.258,36.011, , , , , , ,6.773,7.63,-112.181
 09:49:48.929,eb:33:2e:f9:57:b5, 2015-01-01 00:38:19.285,-1.805,-0.442,3.325,209.229,-15.686,48.279, , , , , , ,7.806,7.586,-111.978
 09:49:48.930,eb:33:2e:f9:57:b5, 2015-01-01 00:38:19.285,-1.556,-0.896,4.394,270.142,-50.72,73.425, , , , , , ,9.08,7.366,-111.682
 09:49:48.930,eb:33:2e:f9:57:b5, 2015-01-01 00:38:19.285,-0.964,-1.577,5.549,338.989,-63.171,96.619, , , , , , ,10.684,6.993,-111.297
 09:49:48.930,eb:33:2e:f9:57:b5, 2015-01-01 00:38:19.285,-0.208,-2.024,5.735,416.26,-51.086,124.451, , , , , , ,12.662,6.608,-110.797
 09:49:48.930,eb:33:2e:f9:57:b5, 2015-01-01 00:38:19.285,0.236,-2.015,5.217,502.625,-51.941,137.878, , , , , , ,15.09,6.207,-110.198
 09:49:48.934,eb:33:2e:f9:57:b5, 2015-01-01 00:38:19.285,0.599,-1.882,5.067,568.42,-74.341,129.578, , , , , , ,17.864,5.707,-109.655
 09:49:48.935,eb:33:2e:f9:57:b5, 2015-01-01 00:38:19.285,0.76,-2.298,6.045,639.16,-59.387,113.708, , , , , , ,20.945,5.169,-109.193
 09:49:48.935,eb:33:2e:f9:57:b5, 2015-01-01 00:38:19.285,1.067,-2.345,6.948,708.801,-11.414,91.675, , , , , , ,24.39,4.834,-108.787
 09:49:48.935,eb:33:2e:f9:57:b5, 2015-01-01 00:38:19.285,1.433,-2.087,7.473,767.273,54.016,59.387, , , , , , ,28.152,4.823,-108.397
 09:49:48.935,eb:33:2e:f9:57:b5, 2015-01-01 00:38:19.285,1.767,-1.827,7.427,809.875,114.624,29.297, , , , , , ,32.151,5.081,-107.985
 09:49:48.935,eb:33:2e:f9:57:b5, 2015-01-01 00:38:19.285,1.267,-2.161,7.035,847.107,174.133,0.305, , , , , , ,36.354,5.652,-107.512
 09:49:48.936,eb:33:2e:f9:57:b5, 2015-01-01 00:38:19.285,1.446,-1.123,7.86,863.098,255.737,-19.287, , , , , , ,40.715,6.597,-106.859
 09:49:48.936,eb:33:2e:f9:57:b5, 2015-01-01 00:38:19.285,0.248,-2.224,7.938,907.532,347.961,8.667, , , , , , ,45.269,7.685,-105.826
 09:49:48.936,eb:33:2e:f9:57:b5, 2015-01-01 00:38:19.285,-0.721,-2.171,6.309,930.176,353.882,35.522, , , , , , ,50.076,8.822,-104.398
 09:49:48.936,eb:33:2e:f9:57:b5, 2015-01-01 00:38:19.285,-0.556,0.397,4.779,859.558,241.089,98.511, , , , , , ,54.789,9.531,-102.936
 09:49:48.936,eb:33:2e:f9:57:b5, 2015-01-01 00:38:19.285,0.876,0.613,2.067,702.576,153.748,176.819, , , , , , ,58.859,9.536,-101.761
 09:49:48.937,eb:33:2e:f9:57:b5, 2015-01-01 00:38:19.285,1.809,-0.75,0.094,482.056,287.964,224.854, , , , , , ,61.952,9.311,-100.256
 09:49:48.937,eb:33:2e:f9:57:b5, 2015-01-01 00:38:19.285,0.717,-0.72,1.956,430.969,404.785,278.625, , , , , , ,64.462,9.042,-97.987
 09:49:48.937,eb:33:2e:f9:57:b5, 2015-01-01 00:38:19.285,1.252,2.53,0.577,303.528,410.583,302.429, , , , , , ,66.698,8.47,-95.466
 09:49:48.937,eb:33:2e:f9:57:b5, 2015-01-01 00:38:19.285,3.134,2.713,2.202,186.951,274.841,284.241, , , , , , ,68.088,7.789,-93.312
 09:49:48.937,eb:33:2e:f9:57:b5, 2015-01-01 00:38:19.285,2.712,2.228,4.628,240.417,215.698,243.835, , , , , , ,69.34,6.993,-91.736
 09:49:48.995,eb:33:2e:f9:57:b5, 2015-01-01 00:38:20.470,3.091,2.472,6.111,349.06,83.74,169.25, , , , , , ,70.966,6.284,-90.736
 09:49:48.995,eb:33:2e:f9:57:b5, 2015-01-01 00:38:20.470,2.975,2.91,6.624,469.299,-30.823,60.73, , , , , , ,73.103,5.812,-90.461
 09:49:48.995,eb:33:2e:f9:57:b5, 2015-01-01 00:38:20.470,2.609,3.026,6.671,561.035,-151.001,-50.598, , , , , , ,75.685,5.696,-90.989
 09:49:48.995,eb:33:2e:f9:57:b5, 2015-01-01 00:38:20.470,1.568,2.187,6.933,618.408,-210.205,-161.926, , , , , , ,78.536,6.059,-92.06
 09:49:48.995,eb:33:2e:f9:57:b5, 2015-01-01 00:38:20.470,1.932,0.95,7.067,632.324,-265.259,-247.375, , , , , , ,81.535,6.91,-93.466
 09:49:48.995,eb:33:2e:f9:57:b5, 2015-01-01 00:38:20.470,1.682,0.008,8.542,599.854,-235.413,-323.669, , , , , , ,84.419,8.207,-94.883
 09:49:48.995,eb:33:2e:f9:57:b5, 2015-01-01 00:38:20.470,1.404,-1.23,9.334,552.002,-147.949,-382.568, , , , , , ,87.111,9.937,-95.96
 09:49:48.996,eb:33:2e:f9:57:b5, 2015-01-01 00:38:20.470,1.338,-2.371,8.997,494.69,-27.649,-416.748, , , , , , ,89.572,11.942,-96.427
 09:49:49.062,eb:33:2e:f9:57:b5, 2015-01-01 00:38:20.470,1.627,-3.139,7.7,416.687,81.299,-427.979, , , , , , ,91.868,14.062,-96.191
 09:49:49.062,eb:33:2e:f9:57:b5, 2015-01-01 00:38:20.470,1.739,-3.803,6.547,338.501,170.349,-425.049, , , , , , ,93.928,16.155,-95.334
 09:49:49.062,eb:33:2e:f9:57:b5, 2015-01-01 00:38:20.470,1.451,-4.222,5.509,267.822,227.295,-414.551, , , , , , ,95.779,18.155,-94.054
 09:49:49.062,eb:33:2e:f9:57:b5, 2015-01-01 00:38:20.470,1.122,-4.182,4.673,224.792,219.238,-401.489, , , , , , ,97.388,20.039,-92.648
 09:49:49.062,eb:33:2e:f9:57:b5, 2015-01-01 00:38:20.470,0.876,-4.153,4.154,191.406,177.917,-382.629, , , , , , ,98.888,21.835,-91.318
 09:49:49.062,eb:33:2e:f9:57:b5, 2015-01-01 00:38:20.470,0.677,-4.295,3.899,161.987,127.625,-354.37, , , , , , ,100.184,23.522,-90.154
 09:49:49.062,eb:33:2e:f9:57:b5, 2015-01-01 00:38:20.470,0.498,-4.549,3.732,130.127,92.773,-316.101, , , , , , ,101.272,25.054,-89.247
 09:49:49.062,eb:33:2e:f9:57:b5, 2015-01-01 00:38:20.470,0.344,-4.835,3.562,92.468,77.332,-266.846, , , , , , ,102.068,26.378,-88.528
 09:49:49.064,eb:33:2e:f9:57:b5, 2015-01-01 00:38:20.470,0.291,-5.064,3.334,49.072,78.857,-207.947, , , , , , ,102.722,27.427,-87.825
 09:49:49.064,eb:33:2e:f9:57:b5, 2015-01-01 00:38:20.470,0.283,-5.104,3.06,1.648,91.98,-146.729, , , , , , ,103.145,28.163,-87.089
 09:49:49.064,eb:33:2e:f9:57:b5, 2015-01-01 00:38:20.470,0.358,-4.996,2.694,-44.922,104.004,-87.036, , , , , , ,103.343,28.586,-86.396
 09:49:49.064,eb:33:2e:f9:57:b5, 2015-01-01 00:38:20.470,0.522,-4.809,2.253,-89.966,109.68,-35.583, , , , , , ,103.222,28.74,-85.776
 09:49:49.064,eb:33:2e:f9:57:b5, 2015-01-01 00:38:20.470,0.8,-4.603,1.675,-136.353,105.652,8.179, , , , , , ,102.925,28.658,-85.166
 09:49:49.064,eb:33:2e:f9:57:b5, 2015-01-01 00:38:20.470,1.042,-4.34,0.943,-187.805,90.698,39.917, , , , , , ,102.338,28.416,-84.611
 09:49:49.064,eb:33:2e:f9:57:b5, 2015-01-01 00:38:20.470,1.331,-4.069,0.073,-245.789,62.256,64.941, , , , , , ,101.387,28.065,-84.265
 09:49:49.066,eb:33:2e:f9:57:b5, 2015-01-01 00:38:20.470,1.675,-3.795,-0.576,-309.448,25.94,80.2, , , , , , ,99.959,27.669,-84.177
 09:49:49.086,eb:33:2e:f9:57:b5, 2015-01-01 00:38:20.470,2.049,-3.535,-0.759,-369.202,-12.329,84.351, , , , , , ,98.201,27.252,-84.238
 09:49:49.086,eb:33:2e:f9:57:b5, 2015-01-01 00:38:20.470,2.324,-3.188,-0.807,-424.438,-52.734,75.012, , , , , , ,96.07,26.878,-84.457
 09:49:49.086,eb:33:2e:f9:57:b5, 2015-01-01 00:38:20.470,2.416,-2.793,-1.059,-482.544,-92.957,58.716, , , , , , ,93.565,26.587,-84.919
 09:49:49.086,eb:33:2e:f9:57:b5, 2015-01-01 00:38:20.470,2.452,-2.399,-1.017,-539.49,-137.268,37.903, , , , , , ,90.604,26.384,-85.66
 09:49:49.086,eb:33:2e:f9:57:b5, 2015-01-01 00:38:20.470,2.552,-1.96,-0.582,-586.975,-177.734,13.916, , , , , , ,87.358,26.246,-86.561
 09:49:49.086,eb:33:2e:f9:57:b5, 2015-01-01 00:38:20.470,2.401,-1.456,-0.002,-623.657,-205.017,-15.442, , , , , , ,83.826,26.191,-87.616
 09:49:49.086,eb:33:2e:f9:57:b5, 2015-01-01 00:38:20.470,2.082,-1.078,0.458,-649.475,-232.727,-42.603, , , , , , ,80.074,26.197,-88.857
 09:49:49.086,eb:33:2e:f9:57:b5, 2015-01-01 00:38:20.470,1.857,-0.941,0.832,-665.833,-264.526,-60.852, , , , , , ,76.064,26.197,-90.368
 09:49:49.131,eb:33:2e:f9:57:b5, 2015-01-01 00:38:20.470,1.654,-0.972,1.277,-677.673,-282.288,-70.312, , , , , , ,71.999,26.142,-91.95
 09:49:49.131,eb:33:2e:f9:57:b5, 2015-01-01 00:38:20.470,1.583,-1.131,1.739,-685.913,-291.138,-70.557, , , , , , ,67.857,25.977,-93.565
 09:49:49.131,eb:33:2e:f9:57:b5, 2015-01-01 00:38:20.470,1.409,-1.221,2.172,-692.383,-290.466,-62.866, , , , , , ,63.699,25.692,-95.186
 09:49:49.131,eb:33:2e:f9:57:b5, 2015-01-01 00:38:20.470,1.195,-1.241,2.53,-697.144,-286.56,-48.95, , , , , , ,59.474,25.236,-96.795
 09:49:49.131,eb:33:2e:f9:57:b5, 2015-01-01 00:38:20.470,1.203,-1.227,2.808,-697.51,-288.513,-30.396, , , , , , ,55.377,24.626,-98.245
 09:49:49.131,eb:33:2e:f9:57:b5, 2015-01-01 00:38:20.470,1.139,-1.149,3.069,-695.129,-294.739,-11.902, , , , , , ,51.339,23.835,-99.564
 09:49:49.131,eb:33:2e:f9:57:b5, 2015-01-01 00:38:20.470,1.125,-1.072,3.057,-691.04,-315.186,8.85, , , , , , ,47.373,22.835,-100.827
 09:49:49.131,eb:33:2e:f9:57:b5, 2015-01-01 00:38:20.470,1.127,-1.077,3.01,-687.622,-342.773,30.151, , , , , , ,43.396,21.577,-102.079
 09:49:49.219,eb:33:2e:f9:57:b5, 2015-01-01 00:38:20.470,1.125,-1.152,3.018,-686.157,-374.512,52.856, , , , , , ,39.567,20.078,-103.184
 09:49:49.219,eb:33:2e:f9:57:b5, 2015-01-01 00:38:20.470,1.245,-1.228,3.124,-685.425,-405.884,72.693, , , , , , ,35.81,18.32,-104.167
 09:49:49.219,eb:33:2e:f9:57:b5, 2015-01-01 00:38:20.470,1.533,-1.261,3.333,-683.655,-434.143,87.219, , , , , , ,32.124,16.337,-105.051
 09:49:49.219,eb:33:2e:f9:57:b5, 2015-01-01 00:38:20.470,1.856,-1.161,3.575,-681.213,-455.811,91.492, , , , , , ,28.427,14.145,-105.864
 09:49:49.219,eb:33:2e:f9:57:b5, 2015-01-01 00:38:20.470,1.926,-0.736,3.66,-680.359,-480.347,80.627, , , , , , ,24.868,11.849,-106.551
 09:49:49.219,eb:33:2e:f9:57:b5, 2015-01-01 00:38:20.470,1.527,-0.215,3.549,-683.96,-514.709,64.941, , , , , , ,21.335,9.415,-107.205
 09:49:49.219,eb:33:2e:f9:57:b5, 2015-01-01 00:38:20.470,0.799,0.251,3.429,-697.327,-566.589,57.373, , , , , , ,17.787,6.746,-107.842
 09:49:49.220,eb:33:2e:f9:57:b5, 2015-01-01 00:38:20.470,0.303,0.462,3.82,-721.436,-609.924,65.674, , , , , , ,14.101,3.763,-108.408
 09:49:49.333,eb:33:2e:f9:57:b5, 2015-01-01 00:38:20.470,-0.114,0.441,5.022,-743.408,-598.206,91.858, , , , , , ,10.41,0.709,-108.66
 09:49:49.333,eb:33:2e:f9:57:b5, 2015-01-01 00:38:20.470,-0.499,0.537,6.274,-748.901,-538.025,132.69, , , , , , ,6.663,-2.164,-108.506
 09:49:49.333,eb:33:2e:f9:57:b5, 2015-01-01 00:38:20.470,-0.798,1.02,6.804,-736.694,-459.9,179.016, , , , , , ,2.911,-4.675,-107.913
 09:49:49.333,eb:33:2e:f9:57:b5, 2015-01-01 00:38:20.470,-0.78,1.773,6.671,-713.806,-398.865,221.008, , , , , , ,-0.884,-6.844,-106.935
 09:49:49.333,eb:33:2e:f9:57:b5, 2015-01-01 00:38:20.470,-0.622,2.729,6.402,-686.829,-363.037,251.16, , , , , , ,-4.554,-8.657,-105.634
 09:49:49.333,eb:33:2e:f9:57:b5, 2015-01-01 00:38:20.470,-0.422,3.831,6.253,-657.776,-355.896,267.151, , , , , , ,-8.152,-10.283,-104.123
 09:49:49.333,eb:33:2e:f9:57:b5, 2015-01-01 00:38:20.470,-0.285,4.966,6.241,-626.343,-370.911,269.165, , , , , , ,-11.667,-11.843,-102.448
 09:49:49.333,eb:33:2e:f9:57:b5, 2015-01-01 00:38:20.470,-0.481,6.098,6.305,-593.201,-401.001,260.01, , , , , , ,-15.167,-13.447,-100.673
 09:49:49.337,eb:33:2e:f9:57:b5, 2015-01-01 00:38:20.470,-0.646,7.063,6.379,-556.885,-443.298,245.544, , , , , , ,-18.495,-15.123,-98.789
 09:49:49.337,eb:33:2e:f9:57:b5, 2015-01-01 00:38:20.470,-0.777,7.738,6.922,-506.47,-470.276,227.356, , , , , , ,-21.682,-16.891,-96.833
 09:49:49.337,eb:33:2e:f9:57:b5, 2015-01-01 00:38:20.470,-1.146,8.321,7.639,-439.636,-454.956,208.008, , , , , , ,-24.631,-18.6,-94.834
 09:49:49.337,eb:33:2e:f9:57:b5, 2015-01-01 00:38:20.470,-1.59,8.928,7.817,-363.281,-412.415,183.533, , , , , , ,-27.296,-20.127,-92.9
 09:49:49.337,eb:33:2e:f9:57:b5, 2015-01-01 00:38:20.470,-1.779,9.266,7.415,-283.691,-351.501,153.748, , , , , , ,-29.493,-21.39,-91.159
 09:49:49.337,eb:33:2e:f9:57:b5, 2015-01-01 00:38:20.470,-1.536,9.395,6.898,-210.51,-270.813,117.981, , , , , , ,-31.229,-22.374,-89.742
 09:49:49.337,eb:33:2e:f9:57:b5, 2015-01-01 00:38:20.470,-1.109,9.509,6.496,-154.053,-162.231,71.777, , , , , , ,-32.498,-23.016,-88.726
 09:49:49.337,eb:33:2e:f9:57:b5, 2015-01-01 00:38:20.470,-0.91,9.547,5.813,-112.61,-46.875,16.235, , , , , , ,-33.344,-23.297,-88.27
 09:49:49.383,eb:33:2e:f9:57:b5, 2015-01-01 00:38:20.470,-1.226,9.406,4.703,-80.444,42.053,-47.18, , , , , , ,-33.761,-23.318,-88.396
 09:49:49.383,eb:33:2e:f9:57:b5, 2015-01-01 00:38:20.470,-1.921,8.708,3.461,-54.749,85.022,-102.722, , , , , , ,-33.849,-23.247,-89.011
 09:49:49.383,eb:33:2e:f9:57:b5, 2015-01-01 00:38:20.470,-2.74,7.524,2.684,-28.992,94.543,-137.024, , , , , , ,-33.717,-23.209,-89.857
 09:49:49.383,eb:33:2e:f9:57:b5, 2015-01-01 00:38:20.470,-3.331,6.182,2.434,3.601,89.417,-144.104, , , , , , ,-33.409,-23.225,-90.786
 09:49:49.383,eb:33:2e:f9:57:b5, 2015-01-01 00:38:20.470,-3.541,4.913,2.461,45.715,90.942,-126.465, , , , , , ,-32.921,-23.225,-91.67
 09:49:49.383,eb:33:2e:f9:57:b5, 2015-01-01 00:38:20.470,-2.494,3.879,2.492,96.069,104.248,-93.201, , , , , , ,-32.234,-23.099,-92.472
 09:49:49.383,eb:33:2e:f9:57:b5, 2015-01-01 00:38:20.470,3.606,3.471,3.268,321.228,-111.023,-178.589, , , , , , ,-31.097,-23.209,-93.104
 09:49:49.383,eb:33:2e:f9:57:b5, 2015-01-01 00:38:20.470,1.821,6.608,8.915,782.104,271.423,-380.127, , , , , , ,-27.328,-23.769,-94.708
 09:49:49.383,eb:33:2e:f9:57:b5, 2015-01-01 00:38:20.470,5.837,13.123,-1.979,855.286,231.934,-687.805, , , , , , ,-21.797,-23.752,-98.015
 09:49:49.383,eb:33:2e:f9:57:b5, 2015-01-01 00:38:20.470,0.518,6.246,5.177,800.171,364.563,-695.618, , , , , , ,-16.007,-23.346,-102.31
 09:49:49.383,eb:33:2e:f9:57:b5, 2015-01-01 00:38:20.470,-0.41,6.875,9.271,681.458,462.646,-503.784, , , , , , ,-10.882,-22.061,-105.809
 09:49:49.384,eb:33:2e:f9:57:b5, 2015-01-01 00:38:20.470,1.674,2.661,9.104,491.455,732.483,-345.703, , , , , , ,-7.02,-19.369,-108.66
 09:49:49.384,eb:33:2e:f9:57:b5, 2015-01-01 00:38:20.470,3.615,-0.074,7.373,340.271,799.438,54.932, , , , , , ,-4.763,-15.414,-109.589
 09:49:49.384,eb:33:2e:f9:57:b5, 2015-01-01 00:38:20.470,-3.18,1.455,3.881,258.362,792.786,129.639, , , , , , ,-3.34,-11.426,-109.171
 09:49:49.384,eb:33:2e:f9:57:b5, 2015-01-01 00:38:20.470,-5.053,1.645,-1.855,142.761,583.252,-42.603, , , , , , ,-2.477,-8.163,-109.21
 09:49:49.384,eb:33:2e:f9:57:b5, 2015-01-01 00:38:20.470,-0.449,-1.232,-3.254,188.904,425.476,-43.457, , , , , , ,-1.588,-5.543,-109.545
 09:49:49.468,eb:33:2e:f9:57:b5, 2015-01-01 00:38:20.470,-0.449,0.154,-0.927,190.43,216.98,-92.529, , , , , , ,-0.577,-4.235,-109.94
 09:49:49.468,eb:33:2e:f9:57:b5, 2015-01-01 00:38:20.470,0.311,1.113,1.336,136.108,250.732,-29.236, , , , , , ,0.225,-3.049,-110.264
 09:49:49.468,eb:33:2e:f9:57:b5, 2015-01-01 00:38:20.470,1.618,1.208,-0.051,105.652,198.242,-35.828, , , , , , ,0.807,-1.923,-110.347
 09:49:49.468,eb:33:2e:f9:57:b5, 2015-01-01 00:38:20.470,-0.298,0.146,1.226,115.601,211.67,-84.351, , , , , , ,1.395,-0.879,-110.687
 09:49:49.469,eb:33:2e:f9:57:b5, 2015-01-01 00:38:20.470,-2.619,0.139,1.329,103.943,245.544,-75.012, , , , , , ,1.945,0.308,-111.072
 09:49:49.469,eb:33:2e:f9:57:b5, 2015-01-01 00:38:20.470,-1.904,-0.16,-0.737,84.778,153.32,-30.64, , , , , , ,2.406,1.302,-111.281
 09:49:49.469,eb:33:2e:f9:57:b5, 2015-01-01 00:38:20.470,0.352,-0.432,0.15,76.599,79.529,11.597, , , , , , ,2.785,1.807,-111.27
 09:49:49.469,eb:33:2e:f9:57:b5, 2015-01-01 00:38:20.470,1.425,0.025,2.212,96.191,85.632,7.629, , , , , , ,3.263,2.208,-111.176
 09:49:49.469,eb:33:2e:f9:57:b5, 2015-01-01 00:38:20.470,0.375,0.595,2.463,103.394,140.686,-22.461, , , , , , ,3.768,2.802,-111.204
 09:49:49.469,eb:33:2e:f9:57:b5, 2015-01-01 00:38:20.470,0.154,-0.067,1.883,119.69,134.827,-12.939, , , , , , ,4.323,3.538,-111.242
 09:49:49.470,eb:33:2e:f9:57:b5, 2015-01-01 00:38:20.470,-0.446,0.121,1.031,130.371,86.548,-13.916, , , , , , ,4.966,4.059,-111.259
 09:49:49.470,eb:33:2e:f9:57:b5, 2015-01-01 00:38:20.470,-1.38,0.138,1.502,122.131,77.82,-8.484, , , , , , ,5.614,4.488,-111.292
 09:49:49.470,eb:33:2e:f9:57:b5, 2015-01-01 00:38:20.470,-1.005,-0.321,2.581,148.376,30.579,35.706, , , , , , ,6.306,4.713,-111.165
 09:49:49.470,eb:33:2e:f9:57:b5, 2015-01-01 00:38:20.470,-1.35,-0.688,3.51,199.768,8.484,52.612, , , , , , ,7.207,4.763,-110.912
 09:49:49.470,eb:33:2e:f9:57:b5, 2015-01-01 00:38:20.470,-1.187,-0.846,4.144,247.375,-24.719,53.711, , , , , , ,8.372,4.664,-110.649
 09:49:49.470,eb:33:2e:f9:57:b5, 2015-01-01 00:38:20.470,0.008,-1.21,5.303,323.914,-56.091,64.27, , , , , , ,9.866,4.395,-110.38
 09:49:49.473,eb:33:2e:f9:57:b5, 2015-01-01 00:38:20.470,0.707,-1.149,6.059,392.395,-39.856,64.026, , , , , , ,11.722,4.087,-110.116
 09:49:49.473,eb:33:2e:f9:57:b5, 2015-01-01 00:38:20.470,0.675,-1.721,6.146,460.938,-0.427,70.19, , , , , , ,13.898,3.922,-109.792
 09:49:49.473,eb:33:2e:f9:57:b5, 2015-01-01 00:38:20.470,0.946,-2.066,5.921,546.448,27.832,77.82, , , , , , ,16.479,3.917,-109.396
 09:49:49.473,eb:33:2e:f9:57:b5, 2015-01-01 00:38:20.470,0.902,-2.031,5.932,621.216,40.466,61.035, , , , , , ,19.49,3.999,-109.012
 09:49:49.474,eb:33:2e:f9:57:b5, 2015-01-01 00:38:20.470,0.752,-1.965,6.082,683.777,61.707,39.246, , , , , , ,22.813,4.169,-108.699
 09:49:49.474,eb:33:2e:f9:57:b5, 2015-01-01 00:38:20.470,0.986,-1.343,6.422,725.464,52.551,14.465, , , , , , ,26.367,4.378,-108.457
 09:49:49.474,eb:33:2e:f9:57:b5, 2015-01-01 00:38:20.470,1.28,-1.545,6.167,778.625,62.866,-14.709, , , , , , ,30.185,4.658,-108.32
 09:49:49.474,eb:33:2e:f9:57:b5, 2015-01-01 00:38:20.470,1.624,-1.426,6.477,796.204,34.912,-41.931, , , , , , ,34.135,4.927,-108.331
 09:49:49.491,eb:33:2e:f9:57:b5, 2015-01-01 00:38:20.895,0.622,-1.397,6.514,848.45,70.679,-79.224, , , , , , ,38.243,5.306,-108.446
 09:49:49.491,eb:33:2e:f9:57:b5, 2015-01-01 00:38:20.895,0.215,0.737,7.878,898.132,129.944,-87.219, , , , , , ,42.66,5.971,-108.413
 09:49:49.491,eb:33:2e:f9:57:b5, 2015-01-01 00:38:20.895,-0.667,1.202,8.935,903.32,206.116,-66.711, , , , , , ,47.241,6.894,-108.073
 09:49:49.491,eb:33:2e:f9:57:b5, 2015-01-01 00:38:20.895,-0.542,1.441,5.798,817.017,226.135,8.911, , , , , , ,51.669,7.778,-107.249
 09:49:49.491,eb:33:2e:f9:57:b5, 2015-01-01 00:38:20.895,0.578,0.229,2.751,629.639,244.568,65.613, , , , , , ,55.311,8.267,-106.232
 09:49:49.491,eb:33:2e:f9:57:b5, 2015-01-01 00:38:20.895,1.644,0.43,0.691,461.487,357.971,150.391, , , , , , ,58.167,8.608,-104.568
 09:49:49.492,eb:33:2e:f9:57:b5, 2015-01-01 00:38:20.895,0.911,0.884,0.287,425.049,386.658,227.783, , , , , , ,60.71,8.778,-102.354
 09:49:49.492,eb:33:2e:f9:57:b5, 2015-01-01 00:38:20.895,1.996,4.193,-0.238,249.207,311.035,216.125, , , , , , ,62.655,8.619,-100.25
 09:49:49.537,eb:33:2e:f9:57:b5, 2015-01-01 00:38:20.895,2.338,2.265,2.529,195.984,169.128,197.815, , , , , , ,63.836,8.174,-98.833
 09:49:49.537,eb:33:2e:f9:57:b5, 2015-01-01 00:38:20.895,2.444,1.962,4.322,263.428,115.417,167.358, , , , , , ,65.143,7.663,-97.762
 09:49:49.537,eb:33:2e:f9:57:b5, 2015-01-01 00:38:20.895,2.164,1.939,5.088,353.516,59.387,108.887, , , , , , ,66.808,7.213,-97.114
 09:49:49.537,eb:33:2e:f9:57:b5, 2015-01-01 00:38:20.895,2.378,2.177,5.026,452.515,-46.387,40.771, , , , , , ,68.884,6.899,-96.993
 09:49:49.537,eb:33:2e:f9:57:b5, 2015-01-01 00:38:20.895,1.805,2.015,5.598,523.621,-120.178,-29.541, , , , , , ,71.318,6.746,-97.438
 09:49:49.537,eb:33:2e:f9:57:b5, 2015-01-01 00:38:20.895,1.377,1.482,5.828,553.467,-176.025,-91.919, , , , , , ,73.943,6.839,-98.256
 09:49:49.537,eb:33:2e:f9:57:b5, 2015-01-01 00:38:20.895,1.116,0.879,6.319,545.776,-191.956,-140.015, , , , , , ,76.569,7.185,-99.333
 09:49:49.537,eb:33:2e:f9:57:b5, 2015-01-01 00:38:20.895,0.92,0.268,7.079,522.339,-171.204,-176.697, , , , , , ,79.063,7.784,-100.41
 09:49:49.603,eb:33:2e:f9:57:b5, 2015-01-01 00:38:20.895,0.804,-0.434,7.775,498.657,-118.164,-204.834, , , , , , ,81.48,8.619,-101.277
 09:49:49.603,eb:33:2e:f9:57:b5, 2015-01-01 00:38:20.895,1.079,-1.11,7.988,475.891,-55.054,-228.088, , , , , , ,83.82,9.651,-101.777
 09:49:49.604,eb:33:2e:f9:57:b5, 2015-01-01 00:38:20.895,1.615,-1.639,7.948,451.416,9.216,-249.939, , , , , , ,86.089,10.844,-101.975
 09:49:49.604,eb:33:2e:f9:57:b5, 2015-01-01 00:38:20.895,1.869,-2.058,7.771,428.284,77.148,-274.414, , , , , , ,88.275,12.167,-101.794
 09:49:49.604,eb:33:2e:f9:57:b5, 2015-01-01 00:38:20.895,2.053,-2.486,7.314,408.936,131.226,-299.255, , , , , , ,90.478,13.618,-101.245
 09:49:49.604,eb:33:2e:f9:57:b5, 2015-01-01 00:38:20.895,2.009,-2.884,6.808,390.747,173.035,-323.12, , , , , , ,92.681,15.161,-100.338
 09:49:49.604,eb:33:2e:f9:57:b5, 2015-01-01 00:38:20.895,1.706,-3.252,6.136,369.324,195.618,-342.041, , , , , , ,94.872,16.771,-99.245
 09:49:49.604,eb:33:2e:f9:57:b5, 2015-01-01 00:38:20.895,1.381,-3.598,5.25,338.989,195.068,-352.234, , , , , , ,96.943,18.397,-98.058
 09:49:49.625,eb:33:2e:f9:57:b5, 2015-01-01 00:38:20.895,1.02,-3.879,4.419,291.992,180.847,-352.173, , , , , , ,98.91,20.017,-96.823
 09:49:49.625,eb:33:2e:f9:57:b5, 2015-01-01 00:38:20.895,0.649,-4.154,3.797,231.384,164.001,-338.806, , , , , , ,100.624,21.572,-95.559
 09:49:49.625,eb:33:2e:f9:57:b5, 2015-01-01 00:38:20.895,0.381,-4.415,3.521,168.213,149.719,-309.937, , , , , , ,102.03,23,-94.4
 09:49:49.625,eb:33:2e:f9:57:b5, 2015-01-01 00:38:20.895,0.211,-4.595,3.573,110.291,147.644,-271.79, , , , , , ,103.074,24.236,-93.307
 09:49:49.625,eb:33:2e:f9:57:b5, 2015-01-01 00:38:20.895,0.135,-4.66,3.67,63.171,154.541,-227.417, , , , , , ,103.947,25.252,-92.186
 09:49:49.625,eb:33:2e:f9:57:b5, 2015-01-01 00:38:20.895,0.073,-4.643,3.65,26.855,164.978,-182.8, , , , , , ,104.645,26.027,-90.994
 09:49:49.625,eb:33:2e:f9:57:b5, 2015-01-01 00:38:20.895,0.15,-4.627,3.534,-0.183,171.631,-135.498, , , , , , ,105.194,26.554,-89.863
 09:49:49.625,eb:33:2e:f9:57:b5, 2015-01-01 00:38:20.895,0.363,-4.551,3.27,-23.926,175.293,-90.271, , , , , , ,105.54,26.851,-88.813
 09:49:49.694,eb:33:2e:f9:57:b5, 2015-01-01 00:38:20.895,0.593,-4.405,2.866,-50.476,173.828,-51.086, , , , , , ,105.815,26.933,-87.77
 09:49:49.694,eb:33:2e:f9:57:b5, 2015-01-01 00:38:20.895,0.804,-4.274,2.397,-80.444,165.833,-18.982, , , , , , ,105.908,26.851,-86.759
 09:49:49.694,eb:33:2e:f9:57:b5, 2015-01-01 00:38:20.895,1.052,-4.091,1.851,-115.479,145.996,6.409, , , , , , ,105.782,26.653,-85.919
 09:49:49.694,eb:33:2e:f9:57:b5, 2015-01-01 00:38:20.895,1.237,-3.786,1.331,-157.654,121.277,23.499, , , , , , ,105.304,26.411,-85.298
 09:49:49.694,eb:33:2e:f9:57:b5, 2015-01-01 00:38:20.895,1.454,-3.488,0.8,-206.604,91.003,33.142, , , , , , ,104.595,26.131,-84.787
 09:49:49.694,eb:33:2e:f9:57:b5, 2015-01-01 00:38:20.895,1.745,-3.245,0.253,-264.771,62.134,36.56, , , , , , ,103.546,25.867,-84.397
 09:49:49.695,eb:33:2e:f9:57:b5, 2015-01-01 00:38:20.895,1.907,-3.063,-0.308,-333.435,45.044,32.776, , , , , , ,102.118,25.637,-84.161
 09:49:49.695,eb:33:2e:f9:57:b5, 2015-01-01 00:38:20.895,2.194,-2.97,-0.813,-406.494,31.311,24.841, , , , , , ,100.228,25.483,-84.062
 09:49:49.697,eb:33:2e:f9:57:b5, 2015-01-01 00:38:20.895,2.435,-2.848,-0.878,-472.961,23.743,8.301, , , , , , ,98.042,25.378,-83.93
 09:49:49.697,eb:33:2e:f9:57:b5, 2015-01-01 00:38:20.895,2.625,-2.576,-0.849,-526.55,6.531,-18.127, , , , , , ,95.554,25.406,-83.804
 09:49:49.697,eb:33:2e:f9:57:b5, 2015-01-01 00:38:20.895,2.856,-2.173,-1.167,-579.041,-31.311,-47.18, , , , , , ,92.73,25.587,-83.87
 09:49:49.697,eb:33:2e:f9:57:b5, 2015-01-01 00:38:20.895,2.861,-1.682,-0.993,-639.832,-88.196,-82.825, , , , , , ,89.429,25.944,-84.287
 09:49:49.697,eb:33:2e:f9:57:b5, 2015-01-01 00:38:20.895,2.589,-1.324,-0.253,-678.772,-137.756,-110.535, , , , , , ,85.803,26.417,-84.974
 09:49:49.697,eb:33:2e:f9:57:b5, 2015-01-01 00:38:20.895,2.233,-1.013,0.466,-707.52,-188.11,-129.089, , , , , , ,81.87,26.938,-85.941
 09:49:49.697,eb:33:2e:f9:57:b5, 2015-01-01 00:38:20.895,2.011,-0.941,1.197,-728.271,-225.769,-134.216, , , , , , ,77.668,27.4,-87.253
 09:49:49.698,eb:33:2e:f9:57:b5, 2015-01-01 00:38:20.895,1.856,-1.067,1.935,-745.605,-242.31,-128.601, , , , , , ,73.213,27.746,-88.802
 09:49:49.853,eb:33:2e:f9:57:b5, 2015-01-01 00:38:20.895,1.773,-1.233,2.468,-761.23,-243.896,-113.159, , , , , , ,68.725,27.916,-90.324
 09:49:49.853,eb:33:2e:f9:57:b5, 2015-01-01 00:38:20.895,1.761,-1.27,2.847,-772.217,-240.784,-91.797, , , , , , ,64.188,27.894,-91.78
 09:49:49.853,eb:33:2e:f9:57:b5, 2015-01-01 00:38:20.895,1.812,-1.143,3.059,-777.283,-244.751,-70.19, , , , , , ,59.645,27.675,-93.192
 09:49:49.853,eb:33:2e:f9:57:b5, 2015-01-01 00:38:20.895,1.938,-0.984,3.218,-775.452,-264.709,-49.072, , , , , , ,55.042,27.213,-94.653
 09:49:49.853,eb:33:2e:f9:57:b5, 2015-01-01 00:38:20.895,2.186,-0.851,3.207,-767.151,-297.852,-29.907, , , , , , ,50.554,26.505,-96.048
 09:49:49.853,eb:33:2e:f9:57:b5, 2015-01-01 00:38:20.895,2.411,-0.714,3.253,-754.761,-339.294,-15.076, , , , , , ,46.132,25.51,-97.438
 09:49:49.856,eb:33:2e:f9:57:b5, 2015-01-01 00:38:20.895,2.485,-0.584,3.287,-737.671,-391.113,-7.202, , , , , , ,41.792,24.214,-98.893
 09:49:49.858,eb:33:2e:f9:57:b5, 2015-01-01 00:38:20.895,2.419,-0.487,3.289,-714.172,-447.754,-6.104, , , , , , ,37.491,22.577,-100.464
 09:49:50.076,eb:33:2e:f9:57:b5, 2015-01-01 00:38:20.895,2.324,-0.458,3.423,-686.829,-512.024,-8.85, , , , , , ,33.431,20.616,-102.014
 09:49:50.076,eb:33:2e:f9:57:b5, 2015-01-01 00:38:20.895,2.251,-0.364,3.633,-663.025,-568.42,-16.724, , , , , , ,29.542,18.325,-103.568
 09:49:50.076,eb:33:2e:f9:57:b5, 2015-01-01 00:38:20.895,2.089,-0.369,3.856,-642.7,-616.943,-25.574, , , , , , ,25.829,15.727,-105.128
 09:49:50.076,eb:33:2e:f9:57:b5, 2015-01-01 00:38:20.895,1.585,-0.194,4.124,-632.141,-650.94,-30.518, , , , , , ,22.209,12.832,-106.661
 09:49:50.076,eb:33:2e:f9:57:b5, 2015-01-01 00:38:20.895,0.83,-0.091,4.319,-635.071,-677.979,-22.888, , , , , , ,18.781,9.745,-107.985
 09:49:50.076,eb:33:2e:f9:57:b5, 2015-01-01 00:38:20.895,0.021,-0.08,4.671,-653.748,-685.486,3.479, , , , , , ,15.403,6.487,-109.034
 09:49:50.076,eb:33:2e:f9:57:b5, 2015-01-01 00:38:20.895,-0.59,-0.156,5.436,-679.626,-654.114,49.988, , , , , , ,12.003,3.203,-109.682
 09:49:50.076,eb:33:2e:f9:57:b5, 2015-01-01 00:38:20.895,-0.875,-0.208,6.499,-697.205,-579.712,111.023, , , , , , ,8.459,0.06,-109.83
 09:49:50.076,eb:33:2e:f9:57:b5, 2015-01-01 00:38:20.895,-1.046,-0.008,7.253,-697.632,-481.628,176.453, , , , , , ,4.949,-2.604,-109.391
 09:49:50.078,eb:33:2e:f9:57:b5, 2015-01-01 00:38:20.895,-0.974,0.443,7.215,-681.702,-410.828,234.741, , , , , , ,1.439,-4.845,-108.452
 09:49:50.078,eb:33:2e:f9:57:b5, 2015-01-01 00:38:20.895,-0.818,1.042,6.742,-655.823,-376.282,277.1, , , , , , ,-2.021,-6.768,-107.128
 09:49:50.078,eb:33:2e:f9:57:b5, 2015-01-01 00:38:20.895,-0.502,1.695,6.087,-626.526,-386.78,305.115, , , , , , ,-5.515,-8.608,-105.518
 09:49:50.078,eb:33:2e:f9:57:b5, 2015-01-01 00:38:20.895,-0.14,2.398,5.638,-598.877,-427.246,319.397, , , , , , ,-8.871,-10.443,-103.672
 09:49:50.078,eb:33:2e:f9:57:b5, 2015-01-01 00:38:20.895,-0.125,3.19,5.665,-578.796,-482.788,323.975, , , , , , ,-12.206,-12.409,-101.64
 09:49:50.078,eb:33:2e:f9:57:b5, 2015-01-01 00:38:20.895,-0.272,4.006,6.044,-565.186,-536.499,324.646, , , , , , ,-15.584,-14.524,-99.382
 09:49:50.078,eb:33:2e:f9:57:b5, 2015-01-01 00:38:20.895,-0.477,4.8,6.832,-548.889,-563.232,323.303, , , , , , ,-19.111,-16.716,-96.91
 09:49:50.083,eb:33:2e:f9:57:b5, 2015-01-01 00:38:20.895,-0.64,5.479,7.873,-516.907,-545.715,319.092, , , , , , ,-22.566,-18.748,-94.296
 09:49:50.083,eb:33:2e:f9:57:b5, 2015-01-01 00:38:20.895,-0.813,6.191,8.692,-466.187,-475.586,310.059, , , , , , ,-25.884,-20.413,-91.697
 09:49:50.083,eb:33:2e:f9:57:b5, 2015-01-01 00:38:20.895,-0.796,7.106,8.907,-405.64,-379.028,289.673, , , , , , ,-28.922,-21.594,-89.236
 09:49:50.083,eb:33:2e:f9:57:b5, 2015-01-01 00:38:20.895,-0.479,8.034,8.573,-342.957,-268.433,252.075, , , , , , ,-31.602,-22.275,-87.122
 09:49:50.083,eb:33:2e:f9:57:b5, 2015-01-01 00:38:20.895,0.256,8.684,7.809,-285.339,-156.067,196.228, , , , , , ,-33.75,-22.527,-85.534
 09:49:50.083,eb:33:2e:f9:57:b5, 2015-01-01 00:38:20.895,0.804,9.272,6.551,-236.816,-18.066,106.506, , , , , , ,-35.359,-22.423,-84.688
 09:49:50.083,eb:33:2e:f9:57:b5, 2015-01-01 00:38:20.895,1.051,9.57,5.253,-211.304,80.261,19.043, , , , , , ,-36.508,-22.094,-84.584
 09:49:50.084,eb:33:2e:f9:57:b5, 2015-01-01 00:38:20.895,0.611,9.714,3.805,-187.561,141.174,-71.777, , , , , , ,-37.315,-21.714,-85.128
 09:49:50.084,eb:33:2e:f9:57:b5, 2015-01-01 00:38:20.895,-0.403,9.278,2.394,-160.767,147.461,-148.132, , , , , , ,-37.809,-21.495,-86.122
 09:49:50.084,eb:33:2e:f9:57:b5, 2015-01-01 00:38:20.895,-1.56,8.262,1.44,-123.84,105.652,-191.956, , , , , , ,-38.079,-21.539,-87.33
 09:49:50.084,eb:33:2e:f9:57:b5, 2015-01-01 00:38:20.895,-2.422,7.041,1.247,-70.251,35.828,-197.388, , , , , , ,-38.156,-21.896,-88.385
 09:49:50.084,eb:33:2e:f9:57:b5, 2015-01-01 00:38:20.895,-2.793,5.847,1.688,-0.244,-29.785,-167.358, , , , , , ,-38.024,-22.484,-89.138
 09:49:50.084,eb:33:2e:f9:57:b5, 2015-01-01 00:38:20.895,-2.686,4.856,2.346,77.393,-66.772,-114.502, , , , , , ,-37.639,-23.121,-89.544
 09:49:50.084,eb:33:2e:f9:57:b5, 2015-01-01 00:38:20.895,-2.441,4.142,2.839,150.269,-66.223,-54.199, , , , , , ,-36.985,-23.632,-89.687
 09:49:50.085,eb:33:2e:f9:57:b5, 2015-01-01 00:38:20.895,5.074,3.633,3.061,215.942,-49.438,-5.676, , , , , , ,-36.074,-23.923,-89.604
 09:49:50.085,eb:33:2e:f9:57:b5, 2015-01-01 00:38:20.895,-1.176,3.864,10.013,809.753,-6.714,-248.23, , , , , , ,-33.217,-25.148,-89.813
 09:49:50.085,eb:33:2e:f9:57:b5, 2015-01-01 00:38:20.895,5.292,10.973,-3.751,989.319,244.019,-378.479, , , , , , ,-27.592,-24.51,-92.181
 09:49:50.085,eb:33:2e:f9:57:b5, 2015-01-01 00:38:20.895,-2.8,9.93,4.168,978.76,323.12,-570.312, , , , , , ,-21.237,-24.461,-95.565
 09:49:50.085,eb:33:2e:f9:57:b5, 2015-01-01 00:38:20.895,-3.493,5.502,5.692,1081.238,305.42,-330.566, , , , , , ,-14.854,-23.851,-98.174
 09:49:50.085,eb:33:2e:f9:57:b5, 2015-01-01 00:38:20.895,0.398,7.329,9.224,860.046,511.414,-375.061, , , , , , ,-9.058,-22.137,-100.541
 09:49:50.085,eb:33:2e:f9:57:b5, 2015-01-01 00:38:20.895,6.135,1.077,8.857,588.135,819.58,-64.819, , , , , , ,-4.96,-18.726,-102.272
 09:49:50.085,eb:33:2e:f9:57:b5, 2015-01-01 00:38:20.895,3.028,2.2,7.07,351.501,789.917,331.421, , , , , , ,-3.098,-14.727,-101.475
 09:49:50.086,eb:33:2e:f9:57:b5, 2015-01-01 00:38:20.895,-9.685,8.154,-0.258,85.144,677.795,45.959, , , , , , ,-2.357,-10.964,-100.745
 09:49:50.086,eb:33:2e:f9:57:b5, 2015-01-01 00:38:20.895,-2.67,-0.436,-3.75,83.313,375.183,47.791, , , , , , ,-2.021,-8.234,-100.712
 09:49:50.100,eb:33:2e:f9:57:b5, 2015-01-01 00:38:20.895,0.934,-2.175,-1.772,200.806,122.192,-27.466, , , , , , ,-1.219,-7.229,-100.684
 09:49:50.100,eb:33:2e:f9:57:b5, 2015-01-01 00:38:20.895,0.186,-0.435,6.443,880.493,-100.952,-139.16, , , , , , ,40.122,0.209,-103.008
 09:49:50.100,eb:33:2e:f9:57:b5, 2015-01-01 00:38:20.895,0.553,1.943,9.264,923.645,-28.503,-172.241, , , , , , ,44.643,0.516,-103.815
 09:49:50.100,eb:33:2e:f9:57:b5, 2015-01-01 00:38:20.895,-0.813,0.869,8.956,945.496,135.681,-169.434, , , , , , ,49.367,1.39,-104.161
 09:49:50.100,eb:33:2e:f9:57:b5, 2015-01-01 00:38:20.895,-0.313,1.525,3.782,883.362,178.101,-136.169, , , , , , ,53.954,2.532,-103.942
 09:49:50.100,eb:33:2e:f9:57:b5, 2015-01-01 00:38:20.895,0.842,1.243,-0.347,668.213,173.95,-113.281, , , , , , ,57.75,3.527,-103.612
 09:49:50.100,eb:33:2e:f9:57:b5, 2015-01-01 00:38:20.895,1.345,1.459,-2.177,474.121,215.027,-75.134, , , , , , ,60.568,4.4,-103.019
 09:49:50.100,eb:33:2e:f9:57:b5, 2015-01-01 00:38:20.895,0.792,2.435,-1.599,391.541,217.224,-75.439, , , , , , ,62.704,5.339,-102.151
 09:49:50.189,eb:33:2e:f9:57:b5, 2015-01-01 00:38:21.635,0.379,3.732,-0.403,288.452,152.161,-71.35, , , , , , ,64.435,5.993,-101.569
 09:49:50.189,eb:33:2e:f9:57:b5, 2015-01-01 00:38:21.635,1.054,2.999,1.624,228.455,85.266,-58.228, , , , , , ,65.698,6.542,-101.151
 09:49:50.189,eb:33:2e:f9:57:b5, 2015-01-01 00:38:21.635,0.971,2.251,3.97,236.816,72.815,-50.903, , , , , , ,66.874,6.927,-100.909
 09:49:50.189,eb:33:2e:f9:57:b5, 2015-01-01 00:38:21.635,1.324,1.852,4.971,293.152,42.175,-57.983, , , , , , ,68.236,7.289,-100.761
 09:49:50.190,eb:33:2e:f9:57:b5, 2015-01-01 00:38:21.635,1.137,1.578,5.805,369.446,40.466,-71.411, , , , , , ,69.939,7.668,-100.695
 09:49:50.190,eb:33:2e:f9:57:b5, 2015-01-01 00:38:21.635,1.052,1.353,5.628,432.495,33.508,-82.397, , , , , , ,71.988,8.097,-100.607
 09:49:50.190,eb:33:2e:f9:57:b5, 2015-01-01 00:38:21.635,0.937,0.906,5.405,469.543,31.25,-89.233, , , , , , ,74.273,8.558,-100.58
 09:49:50.190,eb:33:2e:f9:57:b5, 2015-01-01 00:38:21.635,0.892,0.478,5.132,490.112,22.217,-96.313, , , , , , ,76.685,9.042,-100.569
 09:49:50.192,eb:33:2e:f9:57:b5, 2015-01-01 00:38:21.635,0.773,0.269,4.972,496.277,4.395,-103.271, , , , , , ,79.151,9.547,-100.618
 09:49:50.192,eb:33:2e:f9:57:b5, 2015-01-01 00:38:21.635,0.666,0.253,4.916,488.037,-15.198,-109.68, , , , , , ,81.59,10.069,-100.706
 09:49:50.192,eb:33:2e:f9:57:b5, 2015-01-01 00:38:21.635,0.708,0.217,5.155,470.703,-24.597,-114.319, , , , , , ,83.947,10.613,-100.887
 09:49:50.192,eb:33:2e:f9:57:b5, 2015-01-01 00:38:21.635,0.891,-0.013,5.76,452.82,-10.254,-117.432, , , , , , ,86.199,11.184,-101.041
 09:49:50.192,eb:33:2e:f9:57:b5, 2015-01-01 00:38:21.635,1.118,-0.386,6.44,442.139,26.062,-124.512, , , , , , ,88.434,11.788,-101.014
 09:49:50.192,eb:33:2e:f9:57:b5, 2015-01-01 00:38:21.635,1.565,-0.872,6.83,441.65,67.627,-139.343, , , , , , ,90.692,12.453,-100.712
 09:49:50.192,eb:33:2e:f9:57:b5, 2015-01-01 00:38:21.635,1.935,-1.211,6.868,442.749,108.398,-160.767, , , , , , ,93.016,13.195,-100.217
 09:49:50.193,eb:33:2e:f9:57:b5, 2015-01-01 00:38:21.635,2.035,-1.375,6.568,439.148,139.099,-186.89, , , , , , ,95.35,14.019,-99.509
 09:49:50.255,eb:33:2e:f9:57:b5, 2015-01-01 00:38:21.635,2.172,-1.518,6.053,430.908,151.245,-216.919, , , , , , ,97.745,14.952,-98.63
 09:49:50.255,eb:33:2e:f9:57:b5, 2015-01-01 00:38:21.635,2.152,-1.756,5.595,413.452,155.64,-254.272, , , , , , ,100.113,16.013,-97.592
 09:49:50.255,eb:33:2e:f9:57:b5, 2015-01-01 00:38:21.635,2.013,-2.008,5.238,391.785,153.076,-283.997, , , , , , ,102.426,17.194,-96.526
 09:49:50.255,eb:33:2e:f9:57:b5, 2015-01-01 00:38:21.635,1.801,-2.203,4.678,358.582,146.729,-307.007, , , , , , ,104.579,18.468,-95.416
 09:49:50.255,eb:33:2e:f9:57:b5, 2015-01-01 00:38:21.635,1.571,-2.371,4.128,312.805,139.771,-320.312, , , , , , ,106.622,19.792,-94.241
 09:49:50.255,eb:33:2e:f9:57:b5, 2015-01-01 00:38:21.635,1.361,-2.591,3.772,260.864,136.169,-325.195, , , , , , ,108.463,21.127,-92.972
 09:49:50.255,eb:33:2e:f9:57:b5, 2015-01-01 00:38:21.635,1.185,-2.806,3.584,208.191,134.827,-320.801, , , , , , ,110.072,22.434,-91.708
 09:49:50.256,eb:33:2e:f9:57:b5, 2015-01-01 00:38:21.635,0.942,-2.952,3.481,157.288,140.381,-306.946, , , , , , ,111.407,23.648,-90.439
 09:49:50.259,eb:33:2e:f9:57:b5, 2015-01-01 00:38:21.635,0.726,-3.066,3.358,111.511,140.93,-285.645, , , , , , ,112.593,24.752,-89.121
 09:49:50.259,eb:33:2e:f9:57:b5, 2015-01-01 00:38:21.635,0.568,-3.171,3.235,71.045,139.832,-257.935, , , , , , ,113.582,25.714,-87.77
 09:49:50.259,eb:33:2e:f9:57:b5, 2015-01-01 00:38:21.635,0.487,-3.276,3.181,35.95,142.334,-226.013, , , , , , ,114.384,26.521,-86.512
 09:49:50.259,eb:33:2e:f9:57:b5, 2015-01-01 00:38:21.635,0.48,-3.386,3.143,6.836,146.057,-188.965, , , , , , ,114.95,27.153,-85.342
 09:49:50.259,eb:33:2e:f9:57:b5, 2015-01-01 00:38:21.635,0.503,-3.465,3.044,-17.944,150.269,-150.513, , , , , , ,115.444,27.587,-84.188
 09:49:50.259,eb:33:2e:f9:57:b5, 2015-01-01 00:38:21.635,0.654,-3.52,2.833,-41.992,151.367,-110.107, , , , , , ,115.779,27.828,-83.057
 09:49:50.259,eb:33:2e:f9:57:b5, 2015-01-01 00:38:21.635,0.55,-3.599,2.568,-65.43,149.109,-72.632, , , , , , ,115.961,27.889,-82.073
 09:49:50.259,eb:33:2e:f9:57:b5, 2015-01-01 00:38:21.635,0.347,-3.629,2.031,-91.309,126.282,-35.767, , , , , , ,115.867,27.834,-81.304
 09:49:50.325,eb:33:2e:f9:57:b5, 2015-01-01 00:38:21.635,0.334,-3.632,1.31,-124.817,86.426,2.625, , , , , , ,115.571,27.669,-80.75
 09:49:50.325,eb:33:2e:f9:57:b5, 2015-01-01 00:38:21.635,0.464,-3.652,0.755,-173.34,55.664,41.809, , , , , , ,114.939,27.405,-80.425
 09:49:50.325,eb:33:2e:f9:57:b5, 2015-01-01 00:38:21.635,0.805,-3.67,0.318,-239.38,46.143,79.834, , , , , , ,113.923,27.01,-80.327
 09:49:50.325,eb:33:2e:f9:57:b5, 2015-01-01 00:38:21.635,1.296,-3.624,0.12,-315.43,56.458,111.328, , , , , , ,112.451,26.472,-80.338
 09:49:50.325,eb:33:2e:f9:57:b5, 2015-01-01 00:38:21.635,1.78,-3.337,0.041,-394.897,74.951,130.005, , , , , , ,110.676,25.768,-80.244
 09:49:50.327,eb:33:2e:f9:57:b5, 2015-01-01 00:38:21.635,2.188,-2.867,-0.004,-470.703,89.478,134.583, , , , , , ,108.55,24.994,-80.008
 09:49:50.327,eb:33:2e:f9:57:b5, 2015-01-01 00:38:21.635,2.733,-2.324,-0.083,-535.156,85.693,123.657, , , , , , ,106.106,24.252,-79.755
 09:49:50.327,eb:33:2e:f9:57:b5, 2015-01-01 00:38:21.635,3.166,-1.619,-0.186,-591.919,72.815,95.459, , , , , , ,103.304,23.643,-79.541
 09:49:50.459,eb:33:2e:f9:57:b5, 2015-01-01 00:38:21.635,3.382,-0.815,-0.292,-639.526,35.461,54.626, , , , , , ,100.272,23.242,-79.343
 09:49:50.459,eb:33:2e:f9:57:b5, 2015-01-01 00:38:21.635,3.356,-0.169,-0.295,-671.082,-29.297,7.874, , , , , , ,96.96,23.104,-79.332
 09:49:50.459,eb:33:2e:f9:57:b5, 2015-01-01 00:38:21.635,3.189,0.112,-0.102,-684.998,-109.253,-37.781, , , , , , ,93.395,23.236,-79.739
 09:49:50.459,eb:33:2e:f9:57:b5, 2015-01-01 00:38:21.635,2.984,-0.004,0.294,-684.509,-186.584,-75.928, , , , , , ,89.572,23.571,-80.64
 09:49:50.459,eb:33:2e:f9:57:b5, 2015-01-01 00:38:21.635,2.773,-0.368,0.761,-679.138,-249.939,-100.159, , , , , , ,85.655,23.983,-81.898
 09:49:50.459,eb:33:2e:f9:57:b5, 2015-01-01 00:38:21.635,2.433,-0.701,1.234,-677.124,-292.175,-112.244, , , , , , ,81.623,24.368,-83.441
 09:49:50.459,eb:33:2e:f9:57:b5, 2015-01-01 00:38:21.635,2.243,-0.944,1.705,-678.772,-325.806,-113.037, , , , , , ,77.481,24.642,-85.243
 09:49:50.459,eb:33:2e:f9:57:b5, 2015-01-01 00:38:21.635,2.055,-0.964,2.281,-683.533,-349.609,-106.689, , , , , , ,73.191,24.73,-87.27
 09:49:50.462,eb:33:2e:f9:57:b5, 2015-01-01 00:38:21.635,1.851,-0.783,2.761,-690.125,-368.896,-98.938, , , , , , ,68.89,24.626,-89.33
 09:49:50.462,eb:33:2e:f9:57:b5, 2015-01-01 00:38:21.635,1.614,-0.633,3.117,-693.726,-387.878,-90.759, , , , , , ,64.545,24.307,-91.423
 09:49:50.462,eb:33:2e:f9:57:b5, 2015-01-01 00:38:21.635,1.452,-0.588,3.265,-694.58,-417.053,-79.59, , , , , , ,60.183,23.741,-93.604
 09:49:50.462,eb:33:2e:f9:57:b5, 2015-01-01 00:38:21.635,1.313,-0.64,3.405,-697.083,-444.702,-67.139, , , , , , ,55.756,22.879,-95.867
 09:49:50.462,eb:33:2e:f9:57:b5, 2015-01-01 00:38:21.635,1.219,-0.765,3.649,-700.439,-472.656,-48.706, , , , , , ,51.427,21.736,-98.058
 09:49:50.462,eb:33:2e:f9:57:b5, 2015-01-01 00:38:21.635,1.052,-0.902,3.986,-700.684,-482.971,-30.701, , , , , , ,47.175,20.314,-100.118
 09:49:50.462,eb:33:2e:f9:57:b5, 2015-01-01 00:38:21.635,1.016,-0.985,4.396,-698.181,-484.497,-7.507, , , , , , ,43.044,18.666,-102.008
 09:49:50.462,eb:33:2e:f9:57:b5, 2015-01-01 00:38:21.635,1.05,-1.015,4.848,-690.979,-470.337,13.367, , , , , , ,39.007,16.815,-103.672
 09:49:50.463,eb:33:2e:f9:57:b5, 2015-01-01 00:38:21.635,1.112,-0.973,5.062,-678.772,-457.581,28.748, , , , , , ,35.211,14.903,-105.029
 09:49:50.463,eb:33:2e:f9:57:b5, 2015-01-01 00:38:21.635,1.018,-0.81,4.926,-666.626,-453.369,39.978, , , , , , ,31.586,12.909,-106.15
 09:49:50.463,eb:33:2e:f9:57:b5, 2015-01-01 00:38:21.635,0.892,-0.567,4.565,-657.959,-469.299,45.41, , , , , , ,28.076,10.794,-107.128
 09:49:50.463,eb:33:2e:f9:57:b5, 2015-01-01 00:38:21.635,0.372,-0.262,4.29,-653.87,-502.136,52.856, , , , , , ,24.576,8.459,-108.034
 09:49:50.463,eb:33:2e:f9:57:b5, 2015-01-01 00:38:21.635,-0.235,0.149,4.177,-657.654,-554.26,72.021, , , , , , ,21.204,5.883,-108.781
 09:49:50.463,eb:33:2e:f9:57:b5, 2015-01-01 00:38:21.635,-0.73,0.538,4.585,-665.71,-601.196,103.943, , , , , , ,17.847,2.983,-109.325
 09:49:50.463,eb:33:2e:f9:57:b5, 2015-01-01 00:38:21.635,-0.868,0.797,5.362,-667.786,-623.474,143.555, , , , , , ,14.496,-0.154,-109.572
 09:49:50.463,eb:33:2e:f9:57:b5, 2015-01-01 00:38:21.635,-0.941,1.066,6.123,-659.79,-609.497,189.941, , , , , , ,11.096,-3.4,-109.44
 09:49:50.463,eb:33:2e:f9:57:b5, 2015-01-01 00:38:21.635,-1.084,1.49,6.317,-646.79,-575.073,241.211, , , , , , ,7.778,-6.487,-108.836
 09:49:50.464,eb:33:2e:f9:57:b5, 2015-01-01 00:38:21.635,-1.149,2.099,6.151,-630.859,-541.199,289.246, , , , , , ,4.444,-9.388,-107.776
 09:49:50.464,eb:33:2e:f9:57:b5, 2015-01-01 00:38:21.635,-1.04,2.989,6.014,-617.737,-511.902,327.087, , , , , , ,1.06,-12.074,-106.309
 09:49:50.464,eb:33:2e:f9:57:b5, 2015-01-01 00:38:21.635,-0.713,4.045,6.037,-608.582,-483.398,351.379, , , , , , ,-2.488,-14.562,-104.518
 09:49:50.464,eb:33:2e:f9:57:b5, 2015-01-01 00:38:21.635,-0.531,5.085,6.297,-597.778,-452.576,363.22, , , , , , ,-6.053,-16.749,-102.475
 09:49:50.464,eb:33:2e:f9:57:b5, 2015-01-01 00:38:21.635,-0.507,6.222,6.642,-583.496,-428.711,361.45, , , , , , ,-9.673,-18.666,-100.283
 09:49:50.465,eb:33:2e:f9:57:b5, 2015-01-01 00:38:21.635,-0.551,7.323,7.074,-556.213,-408.02,344.116, , , , , , ,-13.277,-20.363,-98.015
 09:49:50.465,eb:33:2e:f9:57:b5, 2015-01-01 00:38:21.635,-0.68,8.209,7.349,-507.385,-378.235,314.575, , , , , , ,-16.793,-21.841,-95.768
 09:49:50.571,eb:33:2e:f9:57:b5, 2015-01-01 00:38:21.635,-0.81,8.85,7.153,-441.895,-340.637,276.245, , , , , , ,-19.94,-23.071,-93.658
 09:49:50.571,eb:33:2e:f9:57:b5, 2015-01-01 00:38:21.635,-0.911,9.17,6.517,-370.789,-295.471,231.628, , , , , , ,-22.698,-24.082,-91.791
 09:49:50.571,eb:33:2e:f9:57:b5, 2015-01-01 00:38:21.635,-0.716,9.232,5.83,-302.795,-243.53,183.105, , , , , , ,-25.01,-24.884,-90.181
 09:49:50.571,eb:33:2e:f9:57:b5, 2015-01-01 00:38:21.635,-0.289,9.204,5.599,-243.713,-164.429,130.493, , , , , , ,-26.9,-25.455,-88.94
 09:49:50.572,eb:33:2e:f9:57:b5, 2015-01-01 00:38:21.635,0.036,9.371,5.433,-199.28,-56.213,70.557, , , , , , ,-28.295,-25.681,-88.215
 09:49:50.572,eb:33:2e:f9:57:b5, 2015-01-01 00:38:21.635,0.108,9.518,4.724,-167.297,46.204,4.211, , , , , , ,-29.251,-25.571,-88.116
 09:49:50.572,eb:33:2e:f9:57:b5, 2015-01-01 00:38:21.635,-0.238,9.345,3.679,-139.282,115.906,-63.782, , , , , , ,-29.822,-25.269,-88.539
 09:49:50.572,eb:33:2e:f9:57:b5, 2015-01-01 00:38:21.635,-0.882,8.652,2.582,-109.436,140.503,-123.413, , , , , , ,-30.064,-24.939,-89.396
 09:49:50.683,eb:33:2e:f9:57:b5, 2015-01-01 00:38:22.035,-1.568,7.583,1.684,-77.026,123.901,-165.588, , , , , , ,-30.064,-24.741,-90.478
 09:49:50.683,eb:33:2e:f9:57:b5, 2015-01-01 00:38:22.035,-2.054,6.386,1.199,-40.894,79.163,-184.631, , , , , , ,-29.872,-24.763,-91.631
 09:49:50.683,eb:33:2e:f9:57:b5, 2015-01-01 00:38:22.035,-2.343,5.216,1.201,0.122,35.645,-181.519, , , , , , ,-29.526,-24.994,-92.653
 09:49:50.684,eb:33:2e:f9:57:b5, 2015-01-01 00:38:22.035,-2.386,4.149,1.478,44.128,13.672,-159.973, , , , , , ,-29.004,-25.323,-93.538
 09:49:50.684,eb:33:2e:f9:57:b5, 2015-01-01 00:38:22.035,-2.373,3.326,1.676,89.111,13.672,-127.869, , , , , , ,-28.339,-25.609,-94.257
 09:49:50.685,eb:33:2e:f9:57:b5, 2015-01-01 00:38:22.035,-2.379,2.718,1.464,134.216,18.86,-88.867, , , , , , ,-27.515,-25.779,-94.839
 09:49:50.685,eb:33:2e:f9:57:b5, 2015-01-01 00:38:22.035,-0.663,1.999,1.067,190.308,17.151,-37.964, , , , , , ,-26.532,-25.829,-95.18
 09:49:50.685,eb:33:2e:f9:57:b5, 2015-01-01 00:38:22.035,3.961,2.629,3.01,449.829,-225.586,-170.166, , , , , , ,-24.961,-26.307,-95.378
 09:49:50.706,eb:33:2e:f9:57:b5, 2015-01-01 00:38:22.035,3.076,8.253,7.553,891.785,589.05,-385.132, , , , , , ,-20.132,-25.906,-97.526
 09:49:50.706,eb:33:2e:f9:57:b5, 2015-01-01 00:38:22.035,-0.381,12.154,-1.72,688.904,332.275,-632.08, , , , , , ,-14.952,-24.615,-100.706
 09:49:50.706,eb:33:2e:f9:57:b5, 2015-01-01 00:38:22.035,1.804,6.462,4.912,665.344,386.78,-426.147, , , , , , ,-10.091,-23.39,-104.194
 09:49:50.706,eb:33:2e:f9:57:b5, 2015-01-01 00:38:22.035,0.007,8.338,8.816,311.584,851.013,-122.864, , , , , , ,-7.169,-20.259,-106.029
 09:49:50.707,eb:33:2e:f9:57:b5, 2015-01-01 00:38:22.035,-0.736,1.375,7.431,160.156,958.862,160.034, , , , , , ,-6.075,-15.661,-106.227
 09:49:50.707,eb:33:2e:f9:57:b5, 2015-01-01 00:38:22.035,-5.117,2.002,1.338,75.012,754.578,52.002, , , , , , ,-5.532,-11.228,-106.106
 09:49:50.707,eb:33:2e:f9:57:b5, 2015-01-01 00:38:22.035,-3.963,-1.993,-1.348,117.676,601.501,-7.69, , , , , , ,-5.087,-7.883,-106.485
 09:49:50.707,eb:33:2e:f9:57:b5, 2015-01-01 00:38:22.035,-1.265,-2.047,-1.721,210.999,369.507,-19.531, , , , , , ,-4.098,-5.559,-106.727
 09:49:50.707,eb:33:2e:f9:57:b5, 2015-01-01 00:38:22.035,-2.607,-0.071,-0.61,193.542,229.492,-24.597, , , , , , ,-3.032,-4.164,-106.99
 09:49:50.707,eb:33:2e:f9:57:b5, 2015-01-01 00:38:22.035,0.702,0.826,0.72,131.958,149.78,51.392, , , , , , ,-2.28,-3.296,-106.919
 09:49:50.708,eb:33:2e:f9:57:b5, 2015-01-01 00:38:22.035,2.417,1.282,0.296,105.896,94.421,-2.075, , , , , , ,-1.714,-2.758,-106.793
 09:49:50.708,eb:33:2e:f9:57:b5, 2015-01-01 00:38:22.035,0.319,0.725,1.7,118.408,147.278,-48.645, , , , , , ,-1.071,-2.159,-106.946
 09:49:50.708,eb:33:2e:f9:57:b5, 2015-01-01 00:38:22.035,-2.054,0.708,0.625,83.191,198.425,-61.34, , , , , , ,-0.577,-1.187,-107.287
 09:49:50.708,eb:33:2e:f9:57:b5, 2015-01-01 00:38:22.035,-0.687,-0.057,-0.858,67.078,103.638,-20.569, , , , , , ,-0.209,-0.489,-107.463
 09:49:50.708,eb:33:2e:f9:57:b5, 2015-01-01 00:38:22.035,0.967,-0.026,0.998,66.467,77.454,-11.108, , , , , , ,0.104,-0.077,-107.534
 09:49:50.709,eb:33:2e:f9:57:b5, 2015-01-01 00:38:22.035,0.402,0.305,2.558,78.247,116.028,-32.715, , , , , , ,0.527,0.428,-107.633
 09:49:50.709,eb:33:2e:f9:57:b5, 2015-01-01 00:38:22.035,-1.02,-0.094,2.33,92.041,139.587,-45.349, , , , , , ,0.95,1.115,-107.853
 09:49:50.709,eb:33:2e:f9:57:b5, 2015-01-01 00:38:22.035,-0.86,-0.606,1.253,110.535,93.628,-16.724, , , , , , ,1.467,1.686,-107.985
 09:49:50.709,eb:33:2e:f9:57:b5, 2015-01-01 00:38:22.035,0.216,-0.047,1.229,128.418,10.864,8.545, , , , , , ,2.076,1.912,-107.968
 09:49:50.709,eb:33:2e:f9:57:b5, 2015-01-01 00:38:22.035,-1.025,0.347,1.537,126.404,-7.141,8.057, , , , , , ,2.769,1.895,-107.935
 09:49:50.710,eb:33:2e:f9:57:b5, 2015-01-01 00:38:22.035,-1.697,-0.592,2.438,150.33,-21.729,65.796, , , , , , ,3.461,1.857,-107.754
 09:49:50.710,eb:33:2e:f9:57:b5, 2015-01-01 00:38:22.035,-0.712,-0.864,4.131,203.552,-50.903,106.384, , , , , , ,4.373,1.626,-107.298
 09:49:50.710,eb:33:2e:f9:57:b5, 2015-01-01 00:38:22.035,-0.619,-0.458,4.911,258.423,-72.693,91.248, , , , , , ,5.576,1.258,-106.831
 09:49:50.710,eb:33:2e:f9:57:b5, 2015-01-01 00:38:22.035,0.073,-1.03,5.804,325.5,-84.29,91.37, , , , , , ,7.103,0.829,-106.436
 09:49:50.752,eb:33:2e:f9:57:b5, 2015-01-01 00:38:22.035,0.481,-2.128,6.683,407.349,-86.243,83.801, , , , , , ,8.954,0.297,-106.068
 09:49:50.752,eb:33:2e:f9:57:b5, 2015-01-01 00:38:22.035,1.175,-2.513,6.809,519.226,-48.523,91.797, , , , , , ,11.321,-0.093,-105.677
 09:49:50.752,eb:33:2e:f9:57:b5, 2015-01-01 00:38:22.035,1.771,-1.988,6.01,602.722,-18.372,73.914, , , , , , ,14.189,-0.313,-105.304
 09:49:50.752,eb:33:2e:f9:57:b5, 2015-01-01 00:38:22.035,1.466,-2.006,5.379,684.448,-7.751,43.396, , , , , , ,17.479,-0.434,-105.051
 09:49:50.752,eb:33:2e:f9:57:b5, 2015-01-01 00:38:22.035,0.461,-1.743,5.031,749.329,-49.011,0.549, , , , , , ,21.105,-0.626,-105.013
 09:49:50.752,eb:33:2e:f9:57:b5, 2015-01-01 00:38:22.035,0.737,-1.617,5.446,809.509,-98.999,-51.27, , , , , , ,25.032,-0.912,-105.293
 09:49:50.752,eb:33:2e:f9:57:b5, 2015-01-01 00:38:22.035,1.101,-1.849,6.875,864.868,-54.443,-94.116, , , , , , ,29.284,-1.121,-105.826
 09:49:50.753,eb:33:2e:f9:57:b5, 2015-01-01 00:38:22.035,0.818,-2.059,7.882,888.733,34.546,-107.788, , , , , , ,33.706,-0.884,-106.271
 09:49:50.755,eb:33:2e:f9:57:b5, 2015-01-01 00:38:22.035,0.708,-0.706,7.429,928.833,109.985,-145.264, , , , , , ,38.26,-0.203,-106.578
 09:49:50.755,eb:33:2e:f9:57:b5, 2015-01-01 00:38:22.035,0.157,-0.621,8.058,947.083,183.533,-144.592, , , , , , ,42.979,0.797,-106.622
 09:49:50.755,eb:33:2e:f9:57:b5, 2015-01-01 00:38:22.035,-0.255,-0.798,6.896,946.655,241.699,-111.511, , , , , , ,47.741,2.038,-106.232
 09:49:50.755,eb:33:2e:f9:57:b5, 2015-01-01 00:38:22.035,0.506,0.419,5.203,866.089,210.327,-96.741, , , , , , ,52.328,3.159,-105.705
 09:49:50.755,eb:33:2e:f9:57:b5, 2015-01-01 00:38:22.035,0.599,1.997,1.695,730.469,202.087,-88.806, , , , , , ,56.332,4.087,-105.117
 09:49:50.755,eb:33:2e:f9:57:b5, 2015-01-01 00:38:22.035,1.994,1.876,-0.188,519.836,176.575,-68.42, , , , , , ,59.392,4.818,-104.584
 09:49:50.755,eb:33:2e:f9:57:b5, 2015-01-01 00:38:22.035,0.389,0.681,0.825,515.808,212.708,-41.26, , , , , , ,62.007,5.652,-103.722
 09:49:50.755,eb:33:2e:f9:57:b5, 2015-01-01 00:38:22.035,0.448,3.565,-0.319,348.999,151.184,-49.622, , , , , , ,64.232,6.185,-103.107
 09:49:50.842,eb:33:2e:f9:57:b5, 2015-01-01 00:38:22.035,1.427,2.47,1.678,204.285,97.107,-52.795, , , , , , ,65.544,6.691,-102.651
 09:49:50.842,eb:33:2e:f9:57:b5, 2015-01-01 00:38:22.035,1.541,1.886,3.842,188.416,90.149,-53.101, , , , , , ,66.506,7.108,-102.327
 09:49:50.842,eb:33:2e:f9:57:b5, 2015-01-01 00:38:22.035,1.367,1.515,6.538,241.699,91.98,-55.908, , , , , , ,67.637,7.537,-102.008
 09:49:50.843,eb:33:2e:f9:57:b5, 2015-01-01 00:38:22.035,0.92,1.035,8.149,333.252,105.042,-74.463, , , , , , ,69.148,8.042,-101.656
 09:49:50.843,eb:33:2e:f9:57:b5, 2015-01-01 00:38:22.035,1.153,0.955,8.261,442.688,58.533,-86.853, , , , , , ,71.18,8.564,-101.437
 09:49:50.843,eb:33:2e:f9:57:b5, 2015-01-01 00:38:22.035,0.89,0.676,8.308,528.809,44.434,-96.985, , , , , , ,73.68,9.08,-101.299
 09:49:50.843,eb:33:2e:f9:57:b5, 2015-01-01 00:38:22.035,0.717,0.167,7.958,580.322,32.776,-105.957, , , , , , ,76.498,9.619,-101.255
 09:49:50.843,eb:33:2e:f9:57:b5, 2015-01-01 00:38:22.035,0.768,-0.608,7.907,610.474,36.011,-115.662, , , , , , ,79.481,10.206,-101.217
 09:49:50.844,eb:33:2e:f9:57:b5, 2015-01-01 00:38:22.035,1.565,-1.402,8.026,627.38,54.443,-129.883, , , , , , ,82.612,10.849,-101.096
 09:49:50.844,eb:33:2e:f9:57:b5, 2015-01-01 00:38:22.035,1.773,-1.851,8.528,622.498,108.398,-147.339, , , , , , ,85.814,11.585,-100.684
 09:49:50.844,eb:33:2e:f9:57:b5, 2015-01-01 00:38:22.035,1.918,-2.249,8.236,603.821,163.208,-172.119, , , , , , ,89.017,12.426,-99.998
 09:49:50.844,eb:33:2e:f9:57:b5, 2015-01-01 00:38:22.035,2.061,-2.553,7.449,571.655,209.229,-198.792, , , , , , ,92.12,13.354,-99.031
 09:49:50.844,eb:33:2e:f9:57:b5, 2015-01-01 00:38:22.035,2.205,-2.821,6.423,519.287,241.516,-229.797, , , , , , ,95.136,14.365,-97.773
 09:49:50.844,eb:33:2e:f9:57:b5, 2015-01-01 00:38:22.035,2.371,-2.948,4.728,435.974,250.671,-259.705, , , , , , ,97.861,15.452,-96.295
 09:49:50.845,eb:33:2e:f9:57:b5, 2015-01-01 00:38:22.035,2.203,-3.067,3.172,333.252,232.91,-289.978, , , , , , ,100.135,16.639,-94.828
 09:49:50.845,eb:33:2e:f9:57:b5, 2015-01-01 00:38:22.035,1.706,-3.296,2.807,242.981,206.421,-312.195, , , , , , ,101.887,17.924,-93.439
 09:49:50.864,eb:33:2e:f9:57:b5, 2015-01-01 00:38:22.035,1.29,-3.345,3.086,178.894,162.415,-320.74, , , , , , ,103.315,19.281,-92.131
 09:49:50.864,eb:33:2e:f9:57:b5, 2015-01-01 00:38:22.035,1.028,-3.276,3.432,130.188,116.943,-313.66, , , , , , ,104.436,20.66,-90.983
 09:49:50.864,eb:33:2e:f9:57:b5, 2015-01-01 00:38:22.035,0.836,-3.394,3.725,90.881,91.125,-297.729, , , , , , ,105.304,22.006,-90.044
 09:49:50.864,eb:33:2e:f9:57:b5, 2015-01-01 00:38:22.035,0.625,-3.724,3.908,57.739,92.102,-269.348, , , , , , ,105.93,23.247,-89.209
 09:49:50.864,eb:33:2e:f9:57:b5, 2015-01-01 00:38:22.035,0.57,-4.051,3.872,27.405,108.765,-231.018, , , , , , ,106.49,24.296,-88.303
 09:49:50.864,eb:33:2e:f9:57:b5, 2015-01-01 00:38:22.035,0.55,-4.272,3.646,-4.456,141.113,-185.608, , , , , , ,106.946,25.087,-87.253
 09:49:50.864,eb:33:2e:f9:57:b5, 2015-01-01 00:38:22.035,0.656,-4.339,3.2,-39.185,171.448,-138.977, , , , , , ,107.292,25.604,-86.155
 09:49:50.865,eb:33:2e:f9:57:b5, 2015-01-01 00:38:22.035,0.709,-4.27,2.644,-76.66,190.247,-94.238, , , , , , ,107.419,25.878,-85.045
 09:49:50.909,eb:33:2e:f9:57:b5, 2015-01-01 00:38:22.035,0.811,-4.122,1.93,-116.943,185.73,-51.758, , , , , , ,107.402,25.922,-83.925
 09:49:50.909,eb:33:2e:f9:57:b5, 2015-01-01 00:38:22.035,1.096,-3.934,1.038,-163.635,159.912,-12.878, , , , , , ,107.095,25.801,-82.919
 09:49:50.909,eb:33:2e:f9:57:b5, 2015-01-01 00:38:22.035,1.31,-3.703,-0.038,-234.741,115.051,24.963, , , , , , ,106.381,25.56,-82.222
 09:49:50.909,eb:33:2e:f9:57:b5, 2015-01-01 00:38:22.035,1.633,-3.532,-0.785,-301.941,70.129,50.354, , , , , , ,105.112,25.263,-81.865
 09:49:50.909,eb:33:2e:f9:57:b5, 2015-01-01 00:38:22.035,1.947,-3.37,-1.058,-367.92,28.259,65.063, , , , , , ,103.464,24.917,-81.716
 09:49:50.909,eb:33:2e:f9:57:b5, 2015-01-01 00:38:22.035,2.214,-3.112,-1.079,-431.274,-6.958,70.618, , , , , , ,101.415,24.571,-81.716
 09:49:50.910,eb:33:2e:f9:57:b5, 2015-01-01 00:38:22.035,2.417,-2.786,-0.875,-485.474,-37.415,64.514, , , , , , ,99.003,24.258,-81.92
 09:49:50.910,eb:33:2e:f9:57:b5, 2015-01-01 00:38:22.035,2.514,-2.392,-0.819,-533.203,-70.679,47.974, , , , , , ,96.229,24.044,-82.321
 09:49:50.954,eb:33:2e:f9:57:b5, 2015-01-01 00:38:22.035,2.629,-1.931,-0.958,-581.421,-111.145,30.273, , , , , , ,93.197,23.895,-82.859
 09:49:50.954,eb:33:2e:f9:57:b5, 2015-01-01 00:38:22.035,2.657,-1.5,-0.664,-625.305,-152.771,7.996, , , , , , ,89.852,23.824,-83.568
 09:49:50.954,eb:33:2e:f9:57:b5, 2015-01-01 00:38:22.035,2.573,-1.172,-0.107,-656.738,-195.068,-13.611, , , , , , ,86.232,23.824,-84.54
 09:49:50.954,eb:33:2e:f9:57:b5, 2015-01-01 00:38:22.035,2.344,-0.945,0.476,-677.673,-233.765,-32.41, , , , , , ,82.332,23.846,-85.803
 09:49:50.954,eb:33:2e:f9:57:b5, 2015-01-01 00:38:22.035,2.096,-0.876,1.096,-690.369,-266.541,-48.584, , , , , , ,78.333,23.846,-87.209
 09:49:50.954,eb:33:2e:f9:57:b5, 2015-01-01 00:38:22.035,1.903,-0.923,1.646,-696.96,-288.208,-56.091, , , , , , ,74.224,23.774,-88.737
 09:49:50.954,eb:33:2e:f9:57:b5, 2015-01-01 00:38:22.035,1.711,-0.985,2.103,-701.965,-297.913,-56.58, , , , , , ,70.071,23.593,-90.363
 09:49:50.954,eb:33:2e:f9:57:b5, 2015-01-01 00:38:22.035,1.515,-1.012,2.474,-706.97,-306.091,-51.147, , , , , , ,65.825,23.275,-92.06
 09:49:50.998,eb:33:2e:f9:57:b5, 2015-01-01 00:38:22.480,1.416,-0.988,2.758,-710.693,-316.833,-41.748, , , , , , ,61.639,22.786,-93.691
 09:49:50.998,eb:33:2e:f9:57:b5, 2015-01-01 00:38:22.480,1.363,-0.89,3.069,-713.257,-329.163,-30.273, , , , , , ,57.464,22.115,-95.273
 09:49:50.998,eb:33:2e:f9:57:b5, 2015-01-01 00:38:22.480,1.309,-0.778,3.335,-713.501,-343.628,-17.761, , , , , , ,53.317,21.248,-96.833
 09:49:50.998,eb:33:2e:f9:57:b5, 2015-01-01 00:38:22.480,1.269,-0.681,3.535,-712.158,-358.704,-6.226, , , , , , ,49.147,20.171,-98.399
 09:49:50.998,eb:33:2e:f9:57:b5, 2015-01-01 00:38:22.480,1.202,-0.654,3.688,-710.022,-372.925,5.554, , , , , , ,45.11,18.918,-99.822
 09:49:50.998,eb:33:2e:f9:57:b5, 2015-01-01 00:38:22.480,1.08,-0.649,3.769,-708.618,-384.766,18.372, , , , , , ,41.149,17.485,-101.118
 09:49:50.998,eb:33:2e:f9:57:b5, 2015-01-01 00:38:22.480,1.079,-0.662,3.822,-704.773,-396.973,28.259, , , , , , ,37.277,15.892,-102.31
 09:49:50.999,eb:33:2e:f9:57:b5, 2015-01-01 00:38:22.480,1.165,-0.73,3.876,-697.021,-411.987,36.865, , , , , , ,33.415,14.112,-103.436
 09:49:51.046,eb:33:2e:f9:57:b5, 2015-01-01 00:38:22.480,1.169,-0.714,3.907,-688.599,-426.331,41.504, , , , , , ,29.74,12.217,-104.392
 09:49:51.046,eb:33:2e:f9:57:b5, 2015-01-01 00:38:22.480,1.12,-0.582,3.82,-681.03,-446.838,42.969, , , , , , ,26.147,10.179,-105.233
 09:49:51.046,eb:33:2e:f9:57:b5, 2015-01-01 00:38:22.480,0.837,-0.348,3.75,-675.171,-477.966,44.861, , , , , , ,22.643,7.971,-106.002
 09:49:51.046,eb:33:2e:f9:57:b5, 2015-01-01 00:38:22.480,0.376,-0.062,3.758,-675.354,-515.32,56.885, , , , , , ,19.111,5.51,-106.694
 09:49:51.047,eb:33:2e:f9:57:b5, 2015-01-01 00:38:22.480,-0.033,0.207,4.06,-683.899,-545.044,80.505, , , , , , ,15.672,2.851,-107.161
 09:49:51.047,eb:33:2e:f9:57:b5, 2015-01-01 00:38:22.480,-0.351,0.358,4.785,-693.787,-547.302,114.441, , , , , , ,12.217,0.066,-107.331
 09:49:51.047,eb:33:2e:f9:57:b5, 2015-01-01 00:38:22.480,-0.518,0.565,5.589,-698.181,-518.738,157.471, , , , , , ,8.723,-2.67,-107.128
 09:49:51.047,eb:33:2e:f9:57:b5, 2015-01-01 00:38:22.480,-0.558,0.942,6.088,-695.19,-469.788,203.552, , , , , , ,5.114,-5.251,-106.518
 09:49:51.090,eb:33:2e:f9:57:b5, 2015-01-01 00:38:22.480,-0.443,1.438,6.261,-683.411,-420.532,245.85, , , , , , ,1.555,-7.515,-105.496
 09:49:51.090,eb:33:2e:f9:57:b5, 2015-01-01 00:38:22.480,-0.204,2.222,6.179,-661.743,-374.268,281.555, , , , , , ,-2,-9.465,-104.139
 09:49:51.090,eb:33:2e:f9:57:b5, 2015-01-01 00:38:22.480,0.086,2.913,6.131,-647.583,-352.6,293.579, , , , , , ,-5.554,-11.168,-102.546
 09:49:51.090,eb:33:2e:f9:57:b5, 2015-01-01 00:38:22.480,0.248,3.997,6.067,-634.888,-340.027,296.082, , , , , , ,-9.185,-12.706,-100.822
 09:49:51.090,eb:33:2e:f9:57:b5, 2015-01-01 00:38:22.480,0.194,5.156,6.056,-623.901,-346.68,285.706, , , , , , ,-12.744,-14.112,-99.02
 09:49:51.090,eb:33:2e:f9:57:b5, 2015-01-01 00:38:22.480,-0.022,6.478,6.099,-606.018,-371.094,262.573, , , , , , ,-16.287,-15.513,-97.207
 09:49:51.090,eb:33:2e:f9:57:b5, 2015-01-01 00:38:22.480,-0.144,7.387,6.239,-578.857,-395.874,236.816, , , , , , ,-19.759,-16.968,-95.356
 09:49:51.090,eb:33:2e:f9:57:b5, 2015-01-01 00:38:22.480,-0.402,7.955,6.646,-527.771,-398.132,208.069, , , , , , ,-23.132,-18.441,-93.51
 09:49:51.111,eb:33:2e:f9:57:b5, 2015-01-01 00:38:22.480,-0.748,8.451,6.89,-455.078,-380.676,178.162, , , , , , ,-26.142,-19.808,-91.736
 09:49:51.111,eb:33:2e:f9:57:b5, 2015-01-01 00:38:22.480,-0.97,8.917,6.778,-372.375,-349.854,143.372, , , , , , ,-28.74,-21.055,-90.126
 09:49:51.111,eb:33:2e:f9:57:b5, 2015-01-01 00:38:22.480,-0.78,9.065,6.325,-288.513,-303.589,104.248, , , , , , ,-30.877,-22.165,-88.698
 09:49:51.111,eb:33:2e:f9:57:b5, 2015-01-01 00:38:22.480,-0.323,9.083,5.832,-216.675,-227.966,59.57, , , , , , ,-32.547,-23.071,-87.594
 09:49:51.111,eb:33:2e:f9:57:b5, 2015-01-01 00:38:22.480,0.069,9.231,5.416,-168.335,-125.793,5.432, , , , , , ,-33.728,-23.698,-86.962
 09:49:51.111,eb:33:2e:f9:57:b5, 2015-01-01 00:38:22.480,0.082,9.369,4.766,-136.902,-21.423,-59.57, , , , , , ,-34.486,-24.044,-86.957
 09:49:51.111,eb:33:2e:f9:57:b5, 2015-01-01 00:38:22.480,-0.352,9.194,3.662,-110.107,48.828,-127.991, , , , , , ,-34.871,-24.236,-87.49
 09:49:51.112,eb:33:2e:f9:57:b5, 2015-01-01 00:38:22.480,-1.269,8.479,2.586,-83.069,74.768,-185.974, , , , , , ,-34.942,-24.428,-88.445
 09:49:51.156,eb:33:2e:f9:57:b5, 2015-01-01 00:38:22.480,-2.347,7.338,1.87,-54.443,58.228,-221.924, , , , , , ,-34.794,-24.752,-89.604
 09:49:51.156,eb:33:2e:f9:57:b5, 2015-01-01 00:38:22.480,-3.162,5.971,1.571,-20.02,17.517,-228.027, , , , , , ,-34.481,-25.258,-90.78
 09:49:51.156,eb:33:2e:f9:57:b5, 2015-01-01 00:38:22.480,-3.575,4.686,1.81,21.606,-9.216,-205.75, , , , , , ,-34.036,-25.873,-91.769
 09:49:51.156,eb:33:2e:f9:57:b5, 2015-01-01 00:38:22.480,-3.628,3.611,2.302,66.895,-1.648,-163.757, , , , , , ,-33.398,-26.406,-92.609
 09:49:51.156,eb:33:2e:f9:57:b5, 2015-01-01 00:38:22.480,-2.026,2.791,2.591,110.779,29.541,-112.976, , , , , , ,-32.629,-26.702,-93.285
 09:49:51.156,eb:33:2e:f9:57:b5, 2015-01-01 00:38:22.480,2.235,1.717,5.736,412.17,-98.206,-176.147, , , , , , ,-31.24,-27.131,-93.873
 09:49:51.156,eb:33:2e:f9:57:b5, 2015-01-01 00:38:22.480,1.183,7.922,8.139,742.981,417.725,-345.276, , , , , , ,-27.153,-26.927,-95.729
 09:49:51.158,eb:33:2e:f9:57:b5, 2015-01-01 00:38:22.480,2.937,13.294,-0.574,889.16,259.766,-637.39, , , , , , ,-21.193,-26.51,-99.24
 09:49:51.224,eb:33:2e:f9:57:b5, 2015-01-01 00:38:22.480,-0.864,4.981,6.476,912.17,337.585,-583.191, , , , , , ,-15.013,-26.027,-103.304
 09:49:51.224,eb:33:2e:f9:57:b5, 2015-01-01 00:38:22.480,-1.025,9.847,8.548,686.157,557.495,-459.045, , , , , , ,-9.701,-24.368,-106.342
 09:49:51.225,eb:33:2e:f9:57:b5, 2015-01-01 00:38:22.480,2.72,2.087,7.833,433.838,780.273,-167.908, , , , , , ,-6.213,-21.176,-108.627
 09:49:51.225,eb:33:2e:f9:57:b5, 2015-01-01 00:38:22.480,3.013,0.99,6.56,255.676,745.605,196.167, , , , , , ,-4.62,-17.336,-108.572
 09:49:51.225,eb:33:2e:f9:57:b5, 2015-01-01 00:38:22.480,-4.548,4.007,2.343,127.991,644.104,70.068, , , , , , ,-3.774,-13.716,-108.193
 09:49:51.225,eb:33:2e:f9:57:b5, 2015-01-01 00:38:22.480,-4.943,-0.049,-0.765,106.079,525.33,-17.151, , , , , , ,-3.235,-10.942,-108.292
 09:49:51.225,eb:33:2e:f9:57:b5, 2015-01-01 00:38:22.480,-0.357,-1.822,-2.476,201.294,315.43,-11.353, , , , , , ,-2.401,-8.828,-108.43
 09:49:51.225,eb:33:2e:f9:57:b5, 2015-01-01 00:38:22.480,0.374,0.38,-0.56,205.505,151.062,-49.194, , , , , , ,-1.219,-7.839,-108.649
 09:49:51.225,eb:33:2e:f9:57:b5, 2015-01-01 00:38:22.480,-0.635,1.314,1.418,144.653,244.263,-34.424, , , , , , ,-0.357,-6.877,-108.902
 09:49:51.225,eb:33:2e:f9:57:b5, 2015-01-01 00:38:22.480,1.082,0.826,-0.654,118.347,176.514,-12.634, , , , , , ,0.291,-5.729,-108.979
 09:49:51.225,eb:33:2e:f9:57:b5, 2015-01-01 00:38:22.480,1.615,0.523,0.728,114.807,134.705,-47.668, , , , , , ,0.868,-5.059,-109.149
 09:49:51.225,eb:33:2e:f9:57:b5, 2015-01-01 00:38:22.480,-1.858,0.784,1.933,102.6,245.789,-87.891, , , , , , ,1.505,-4.032,-109.501
 09:49:51.225,eb:33:2e:f9:57:b5, 2015-01-01 00:38:22.480,-2.201,0.049,-0.589,84.473,177.734,-55.054, , , , , , ,1.989,-2.889,-109.852
 09:49:51.227,eb:33:2e:f9:57:b5, 2015-01-01 00:38:22.480,-0.129,-0.228,-0.478,69.458,69.031,-3.479, , , , , , ,2.357,-2.384,-109.924
 09:49:51.227,eb:33:2e:f9:57:b5, 2015-01-01 00:38:22.480,1.271,0.014,1.68,84.229,57.373,0.122, , , , , , ,2.747,-2.087,-109.902
 09:49:51.227,eb:33:2e:f9:57:b5, 2015-01-01 00:38:22.480,0.78,0.634,2.304,88.013,109.314,-34.912, , , , , , ,3.252,-1.637,-109.984
