Time,Device name,Chip Time(),Acceleration X(g),Acceleration Y(g),Acceleration Z(g),Angular velocity X(°/s),Angular velocity Y(°/s),Angular velocity Z(°/s),ShiftX(mm),ShiftY(mm),ShiftZ(mm),SpeedX(mm/s),SpeedY(mm/s),SpeedZ(mm/s),Angle X(°),Angle Y(°),Angle Z(°)
 13:52:33.426,eb:33:2e:f9:57:b5, 2015-01-01 00:16:41.815,0.153,-0.785,0.783,-391.113,-204.102,-27.466, , , , , , ,46.983,22.203,-93.631
 13:52:33.540,eb:33:2e:f9:57:b5, 2015-01-01 00:16:41.815,0.118,-0.816,0.938,-399.353,-200.073,-17.639, , , , , , ,44.676,21.583,-94.488
 13:52:33.540,eb:33:2e:f9:57:b5, 2015-01-01 00:16:41.815,0.1,-0.833,1.102,-406.677,-192.932,-7.385, , , , , , ,42.38,20.912,-95.262
 13:52:33.540,eb:33:2e:f9:57:b5, 2015-01-01 00:16:41.815,0.057,-0.819,1.242,-412.903,-183.655,2.991, , , , , , ,40.073,20.204,-95.938
 13:52:33.540,eb:33:2e:f9:57:b5, 2015-01-01 00:16:41.815,0.05,-0.74,1.302,-418.457,-174.194,14.221, , , , , , ,37.798,19.479,-96.487
 13:52:33.540,eb:33:2e:f9:57:b5, 2015-01-01 00:16:41.815,0.096,-0.61,1.305,-421.631,-167.664,20.752, , , , , , ,35.546,18.743,-96.949
 13:52:33.540,eb:33:2e:f9:57:b5, 2015-01-01 00:16:41.815,0.156,-0.465,1.335,-422.913,-162.964,24.231, , , , , , ,33.311,17.996,-97.339
 13:52:33.540,eb:33:2e:f9:57:b5, 2015-01-01 00:16:41.815,0.207,-0.339,1.389,-422.119,-160.217,23.499, , , , , , ,31.069,17.243,-97.69
 13:52:33.540,eb:33:2e:f9:57:b5, 2015-01-01 00:16:41.815,0.234,-0.244,1.428,-418.823,-160.095,20.081, , , , , , ,28.872,16.496,-98.015
 13:52:33.540,eb:33:2e:f9:57:b5, 2015-01-01 00:16:41.815,0.239,-0.181,1.446,-413.147,-162.537,14.526, , , , , , ,26.708,15.743,-98.328
 13:52:33.540,eb:33:2e:f9:57:b5, 2015-01-01 00:16:41.815,0.256,-0.149,1.446,-405.884,-167.969,7.568, , , , , , ,24.576,14.974,-98.652
 13:52:33.540,eb:33:2e:f9:57:b5, 2015-01-01 00:16:41.815,0.266,-0.142,1.452,-397.888,-176.208,1.343, , , , , , ,22.462,14.167,-98.998
 13:52:33.540,eb:33:2e:f9:57:b5, 2015-01-01 00:16:41.815,0.281,-0.138,1.486,-391.174,-184.57,-6.47, , , , , , ,20.407,13.326,-99.355
 13:52:33.540,eb:33:2e:f9:57:b5, 2015-01-01 00:16:41.815,0.287,-0.146,1.561,-386.963,-191.772,-15.076, , , , , , ,18.38,12.453,-99.734
 13:52:33.540,eb:33:2e:f9:57:b5, 2015-01-01 00:16:41.815,0.277,-0.16,1.669,-386.292,-196.533,-24.78, , , , , , ,16.364,11.558,-100.129
 13:52:33.540,eb:33:2e:f9:57:b5, 2015-01-01 00:16:41.815,0.232,-0.173,1.789,-389.648,-199.219,-34.973, , , , , , ,14.315,10.629,-100.558
 13:52:33.540,eb:33:2e:f9:57:b5, 2015-01-01 00:16:41.815,0.174,-0.177,1.902,-396.912,-199.829,-45.898, , , , , , ,12.272,9.706,-100.997
 13:52:33.585,eb:33:2e:f9:57:b5, 2015-01-01 00:16:41.815,0.101,-0.177,2.02,-407.593,-199.097,-57.373, , , , , , ,10.179,8.778,-101.459
 13:52:33.585,eb:33:2e:f9:57:b5, 2015-01-01 00:16:41.815,0.015,-0.164,2.132,-421.814,-197.937,-69.458, , , , , , ,8.031,7.85,-101.942
 13:52:33.585,eb:33:2e:f9:57:b5, 2015-01-01 00:16:41.815,-0.064,-0.163,2.224,-438.538,-198.669,-80.383, , , , , , ,5.784,6.899,-102.448
 13:52:33.585,eb:33:2e:f9:57:b5, 2015-01-01 00:16:41.815,-0.117,-0.189,2.327,-456.787,-200.317,-89.6, , , , , , ,3.477,5.938,-102.964
 13:52:33.585,eb:33:2e:f9:57:b5, 2015-01-01 00:16:41.815,-0.156,-0.237,2.455,-475.525,-202.454,-96.008, , , , , , ,1.088,4.949,-103.475
 13:52:33.585,eb:33:2e:f9:57:b5, 2015-01-01 00:16:41.815,-0.185,-0.29,2.607,-492.493,-205.078,-98.938, , , , , , ,-1.373,3.933,-103.964
 13:52:33.586,eb:33:2e:f9:57:b5, 2015-01-01 00:16:41.815,-0.228,-0.297,2.778,-506.104,-208.679,-98.389, , , , , , ,-3.933,2.856,-104.414
 13:52:33.586,eb:33:2e:f9:57:b5, 2015-01-01 00:16:41.815,-0.261,-0.201,2.964,-515.076,-211.67,-98.999, , , , , , ,-6.509,1.763,-104.81
 13:52:33.654,eb:33:2e:f9:57:b5, 2015-01-01 00:16:41.815,-0.315,-0.004,3.143,-517.7,-216.248,-99.243, , , , , , ,-9.102,0.637,-105.156
 13:52:33.654,eb:33:2e:f9:57:b5, 2015-01-01 00:16:41.815,-0.397,0.276,3.336,-512.756,-221.924,-101.257, , , , , , ,-11.678,-0.527,-105.452
 13:52:33.654,eb:33:2e:f9:57:b5, 2015-01-01 00:16:41.815,-0.514,0.596,3.542,-499.756,-227.905,-105.896, , , , , , ,-14.227,-1.758,-105.71
 13:52:33.654,eb:33:2e:f9:57:b5, 2015-01-01 00:16:41.815,-0.667,0.89,3.747,-479.309,-232.91,-111.206, , , , , , ,-16.661,-3.021,-105.925
 13:52:33.654,eb:33:2e:f9:57:b5, 2015-01-01 00:16:41.815,-0.749,1.176,3.972,-447.327,-235.352,-116.028, , , , , , ,-18.951,-4.312,-106.111
 13:52:33.654,eb:33:2e:f9:57:b5, 2015-01-01 00:16:41.815,-0.863,1.326,4.092,-422.974,-233.704,-118.225, , , , , , ,-21.099,-5.614,-106.265
 13:52:33.654,eb:33:2e:f9:57:b5, 2015-01-01 00:16:41.815,-0.971,1.435,4.125,-389.648,-229.797,-119.69, , , , , , ,-23.126,-6.921,-106.381
 13:52:33.654,eb:33:2e:f9:57:b5, 2015-01-01 00:16:41.815,-0.977,1.349,3.95,-354.98,-228.577,-114.502, , , , , , ,-24.961,-8.207,-106.452
 13:52:33.765,eb:33:2e:f9:57:b5, 2015-01-01 00:16:41.815,-1.278,1.419,3.69,-327.698,-227.234,-105.53, , , , , , ,-26.647,-9.47,-106.452
 13:52:33.765,eb:33:2e:f9:57:b5, 2015-01-01 00:16:41.815,-1.559,1.7,3.168,-304.138,-238.77,-91.736, , , , , , ,-28.235,-10.728,-106.342
 13:52:33.802,eb:33:2e:f9:57:b5, 2015-01-01 00:16:41.815,-1.903,2.163,2.722,-281.25,-257.751,-75.134, , , , , , ,-29.751,-12.03,-106.095
 13:52:33.802,eb:33:2e:f9:57:b5, 2015-01-01 00:16:41.815,-2.321,2.703,2.282,-256.226,-285.278,-54.688, , , , , , ,-31.179,-13.37,-105.661
 13:52:33.802,eb:33:2e:f9:57:b5, 2015-01-01 00:16:41.815,-2.873,3.196,1.903,-224.304,-321.228,-28.442, , , , , , ,-32.531,-14.777,-105.002
 13:52:33.802,eb:33:2e:f9:57:b5, 2015-01-01 00:16:41.815,-3.279,3.769,1.735,-169.617,-360.901,4.822, , , , , , ,-33.755,-16.243,-104.062
 13:52:33.802,eb:33:2e:f9:57:b5, 2015-01-01 00:16:41.815,-3.461,4.287,1.911,-107.91,-376.526,24.353, , , , , , ,-34.772,-17.737,-102.887
 13:52:33.802,eb:33:2e:f9:57:b5, 2015-01-01 00:16:41.815,-3.232,4.708,2.365,-37.292,-364.746,34.058, , , , , , ,-35.502,-19.171,-101.629
 13:52:33.832,eb:33:2e:f9:57:b5, 2015-01-01 00:16:41.815,-2.862,4.9,3.014,32.349,-325.5,42.236, , , , , , ,-35.892,-20.451,-100.399
 13:52:33.832,eb:33:2e:f9:57:b5, 2015-01-01 00:16:41.815,-2.537,4.904,3.638,91.309,-262.634,52.002, , , , , , ,-35.947,-21.478,-99.278
 13:52:33.832,eb:33:2e:f9:57:b5, 2015-01-01 00:16:41.815,-2.323,4.642,4.093,134.827,-178.162,61.89, , , , , , ,-35.695,-22.176,-98.355
 13:52:33.832,eb:33:2e:f9:57:b5, 2015-01-01 00:16:41.815,-2.146,4.107,4.199,161.804,-82.703,66.956, , , , , , ,-35.189,-22.478,-97.69
 13:52:33.832,eb:33:2e:f9:57:b5, 2015-01-01 00:16:41.815,-2.019,3.432,3.984,174.927,6.714,71.411, , , , , , ,-34.486,-22.396,-97.295
 13:52:33.832,eb:33:2e:f9:57:b5, 2015-01-01 00:16:41.815,0.098,2.644,3.755,234.863,120.056,115.845, , , , , , ,-33.602,-21.896,-97.108
 13:52:33.832,eb:33:2e:f9:57:b5, 2015-01-01 00:16:41.815,1.175,-1.917,10.47,333.984,105.469,-103.271, , , , , , ,-31.783,-21.511,-97.586
 13:52:33.832,eb:33:2e:f9:57:b5, 2015-01-01 00:16:41.815,-0.366,-2.083,-1.906,318.848,57.861,186.218, , , , , , ,-30.251,-20.967,-97.339
 13:52:33.899,eb:33:2e:f9:57:b5, 2015-01-01 00:16:41.815,2.772,-1.271,1.831,289.978,144.592,-81.848, , , , , , ,-28.674,-20.429,-97.564
 13:52:33.899,eb:33:2e:f9:57:b5, 2015-01-01 00:16:41.815,1.606,-2.785,0.935,308.777,192.261,-112.305, , , , , , ,-26.895,-19.918,-98.372
 13:52:33.899,eb:33:2e:f9:57:b5, 2015-01-01 00:16:41.815,1.277,-2.265,1.172,342.773,233.948,-240.417, , , , , , ,-24.747,-19.374,-99.822
 13:52:33.899,eb:33:2e:f9:57:b5, 2015-01-01 00:16:41.815,0.699,-0.925,2.024,352.966,303.162,-300.476, , , , , , ,-22.357,-18.666,-101.761
 13:52:33.899,eb:33:2e:f9:57:b5, 2015-01-01 00:16:41.815,0.256,-0.672,1.46,352.783,310.425,-274.536, , , , , , ,-19.962,-17.726,-103.799
 13:52:33.899,eb:33:2e:f9:57:b5, 2015-01-01 00:16:41.815,0.43,-0.068,1.409,336.487,325.989,-253.723, , , , , , ,-17.693,-16.65,-105.65
 13:52:33.899,eb:33:2e:f9:57:b5, 2015-01-01 00:16:41.815,-0.246,0.279,1.248,325.378,366.76,-188.782, , , , , , ,-15.601,-15.266,-107.254
 13:52:33.899,eb:33:2e:f9:57:b5, 2015-01-01 00:16:41.815,-0.386,0.111,1.004,321.106,371.582,-132.751, , , , , , ,-13.667,-13.656,-108.512
 13:52:33.903,eb:33:2e:f9:57:b5, 2015-01-01 00:16:41.815,-0.123,-0.303,0.896,310.913,321.167,-85.205, , , , , , ,-11.893,-12.096,-109.413
 13:52:33.903,eb:33:2e:f9:57:b5, 2015-01-01 00:16:41.815,0.312,-0.122,1.382,280.579,283.936,-71.045, , , , , , ,-10.283,-10.723,-110.083
 13:52:33.903,eb:33:2e:f9:57:b5, 2015-01-01 00:16:41.815,0.211,0.052,1.682,244.873,243.53,-39.551, , , , , , ,-8.899,-9.476,-110.572
 13:52:33.903,eb:33:2e:f9:57:b5, 2015-01-01 00:16:41.815,-0.049,0.152,1.438,212.891,217.773,-6.165, , , , , , ,-7.734,-8.361,-110.847
 13:52:33.903,eb:33:2e:f9:57:b5, 2015-01-01 00:16:41.815,-0.147,-0.009,1.025,192.078,196.411,29.053, , , , , , ,-6.729,-7.355,-110.885
 13:52:33.903,eb:33:2e:f9:57:b5, 2015-01-01 00:16:41.815,-0.165,0.003,0.951,176.27,176.575,46.753, , , , , , ,-5.828,-6.416,-110.781
 13:52:33.903,eb:33:2e:f9:57:b5, 2015-01-01 00:16:41.815,-0.212,0.132,0.939,162.476,163.818,45.227, , , , , , ,-4.993,-5.537,-110.627
 13:52:33.903,eb:33:2e:f9:57:b5, 2015-01-01 00:16:41.815,-0.403,0.457,1.046,141.113,130.92,42.236, , , , , , ,-4.252,-4.785,-110.468
 13:52:33.903,eb:33:2e:f9:57:b5, 2015-01-01 00:16:41.815,-0.457,0.515,0.883,115.051,89.6,29.419, , , , , , ,-3.636,-4.246,-110.325
 13:52:33.903,eb:33:2e:f9:57:b5, 2015-01-01 00:16:41.815,-0.44,0.438,0.782,91.98,62.012,17.517, , , , , , ,-3.142,-3.878,-110.237
 13:52:33.903,eb:33:2e:f9:57:b5, 2015-01-01 00:16:41.815,-0.296,0.261,0.777,77.087,44.373,7.812, , , , , , ,-2.719,-3.609,-110.193
 13:52:33.903,eb:33:2e:f9:57:b5, 2015-01-01 00:16:41.815,-0.09,0.104,0.862,65.002,30.029,7.141, , , , , , ,-2.373,-3.428,-110.171
 13:52:33.903,eb:33:2e:f9:57:b5, 2015-01-01 00:16:41.815,0.021,0.124,0.927,52.063,20.691,15.991, , , , , , ,-2.087,-3.307,-110.116
 13:52:33.903,eb:33:2e:f9:57:b5, 2015-01-01 00:16:41.815,-0.109,0.05,0.994,44.922,15.564,21.179, , , , , , ,-1.851,-3.219,-110.023
 13:52:33.904,eb:33:2e:f9:57:b5, 2015-01-01 00:16:41.815,-0.219,0.056,0.941,37.598,9.338,25.513, , , , , , ,-1.648,-3.148,-109.902
 13:52:33.904,eb:33:2e:f9:57:b5, 2015-01-01 00:16:41.815,-0.007,0.11,0.886,32.776,-0.732,17.456, , , , , , ,-1.483,-3.131,-109.792
 13:52:33.923,eb:33:2e:f9:57:b5, 2015-01-01 00:16:41.815,0.077,0.104,0.966,28.32,-6.714,11.292, , , , , , ,-1.335,-3.153,-109.726
 13:52:33.923,eb:33:2e:f9:57:b5, 2015-01-01 00:16:41.815,0.027,0.067,0.989,25.696,-8.179,9.766, , , , , , ,-1.203,-3.186,-109.677
 13:52:33.923,eb:33:2e:f9:57:b5, 2015-01-01 00:16:41.815,0.108,0.076,1.016,23.499,-7.446,5.554, , , , , , ,-1.071,-3.214,-109.638
 13:52:33.923,eb:33:2e:f9:57:b5, 2015-01-01 00:16:41.815,0.108,0.027,1.045,22.217,-6.165,8.301, , , , , , ,-0.961,-3.246,-109.605
 13:52:33.923,eb:33:2e:f9:57:b5, 2015-01-01 00:16:41.815,0.107,0.009,1.054,21.606,-4.15,9.949, , , , , , ,-0.851,-3.274,-109.556
 13:52:33.923,eb:33:2e:f9:57:b5, 2015-01-01 00:16:41.815,0.073,0.007,1.051,21.729,-1.831,9.949, , , , , , ,-0.747,-3.285,-109.506
 13:52:33.923,eb:33:2e:f9:57:b5, 2015-01-01 00:16:41.815,0.057,-0.003,1.041,22.461,-1.16,9.644, , , , , , ,-0.626,-3.285,-109.457
 13:52:33.923,eb:33:2e:f9:57:b5, 2015-01-01 00:16:41.815,0.095,-0.003,1.027,22.888,-1.526,9.888, , , , , , ,-0.516,-3.29,-109.407
 13:52:33.989,eb:33:2e:f9:57:b5, 2015-01-01 00:16:41.815,0.102,0.021,1.044,23.254,-2.563,9.521, , , , , , ,-0.406,-3.296,-109.363
 13:52:33.989,eb:33:2e:f9:57:b5, 2015-01-01 00:16:41.815,0.079,0.018,1.061,23.438,-0.793,8.362, , , , , , ,-0.291,-3.307,-109.314
 13:52:33.989,eb:33:2e:f9:57:b5, 2015-01-01 00:16:41.815,0.093,0.037,1.04,23.743,0,5.92, , , , , , ,-0.159,-3.296,-109.281
 13:52:33.989,eb:33:2e:f9:57:b5, 2015-01-01 00:16:41.815,0.083,0.014,1.045,24.658,0.305,4.395, , , , , , ,-0.044,-3.296,-109.254
 13:52:33.989,eb:33:2e:f9:57:b5, 2015-01-01 00:16:41.815,0.021,0.034,1.029,23.438,3.235,1.526, , , , , , ,0.077,-3.29,-109.243
 13:52:33.989,eb:33:2e:f9:57:b5, 2015-01-01 00:16:41.815,0.024,-0.016,1.015,24.475,1.709,1.831, , , , , , ,0.198,-3.274,-109.237
 13:52:33.990,eb:33:2e:f9:57:b5, 2015-01-01 00:16:41.815,0.004,0.053,0.965,22.827,1.709,2.808, , , , , , ,0.324,-3.252,-109.226
 13:52:33.990,eb:33:2e:f9:57:b5, 2015-01-01 00:16:41.815,0.033,0.051,0.975,20.935,1.77,2.197, , , , , , ,0.434,-3.246,-109.21
 13:52:33.992,eb:33:2e:f9:57:b5, 2015-01-01 00:16:41.815,0.024,0.044,0.992,20.142,1.953,3.54, , , , , , ,0.533,-3.241,-109.199
 13:52:33.992,eb:33:2e:f9:57:b5, 2015-01-01 00:16:41.815,0.014,0.038,0.98,18.616,3.174,4.944, , , , , , ,0.632,-3.224,-109.177
 13:52:33.992,eb:33:2e:f9:57:b5, 2015-01-01 00:16:41.815,0.066,0.064,1.003,18.799,2.93,3.906, , , , , , ,0.731,-3.203,-109.149
 13:52:33.992,eb:33:2e:f9:57:b5, 2015-01-01 00:16:41.815,0.078,0.053,1.036,19.043,5.066,3.052, , , , , , ,0.824,-3.181,-109.133
 13:52:33.992,eb:33:2e:f9:57:b5, 2015-01-01 00:16:41.815,0.126,0.063,1.028,18.982,7.751,2.136, , , , , , ,0.923,-3.148,-109.122
 13:52:33.992,eb:33:2e:f9:57:b5, 2015-01-01 00:16:41.815,0.14,0.067,1.073,19.775,12.024,0.427, , , , , , ,1.016,-3.098,-109.116
 13:52:33.992,eb:33:2e:f9:57:b5, 2015-01-01 00:16:41.815,0.146,0.07,1.067,19.287,18.494,-0.488, , , , , , ,1.126,-3.01,-109.116
 13:52:33.992,eb:33:2e:f9:57:b5, 2015-01-01 00:16:41.815,0.101,0.077,1.084,17.883,26.794,-2.502, , , , , , ,1.219,-2.889,-109.122
 13:52:34.059,eb:33:2e:f9:57:b5, 2015-01-01 00:16:41.815,0.127,0.115,1.053,16.724,34.058,-3.357, , , , , , ,1.307,-2.736,-109.133
 13:52:34.059,eb:33:2e:f9:57:b5, 2015-01-01 00:16:41.815,0.031,0.066,1.02,16.541,36.316,-3.113, , , , , , ,1.39,-2.554,-109.144
 13:52:34.059,eb:33:2e:f9:57:b5, 2015-01-01 00:16:41.815,-0.008,0.086,0.92,14.893,34.485,-1.343, , , , , , ,1.483,-2.373,-109.149
 13:52:34.059,eb:33:2e:f9:57:b5, 2015-01-01 00:16:41.815,0.027,0.057,0.973,13.367,34.058,-1.099, , , , , , ,1.549,-2.197,-109.155
 13:52:34.059,eb:33:2e:f9:57:b5, 2015-01-01 00:16:41.815,0.018,0.083,0.947,12.451,32.654,0.061, , , , , , ,1.615,-2.032,-109.155
 13:52:34.059,eb:33:2e:f9:57:b5, 2015-01-01 00:16:41.815,0.011,0.058,1.025,11.658,33.936,-0.854, , , , , , ,1.675,-1.862,-109.155
 13:52:34.060,eb:33:2e:f9:57:b5, 2015-01-01 00:16:41.815,-0.022,0.046,0.992,11.78,32.837,-0.549, , , , , , ,1.741,-1.686,-109.149
 13:52:34.060,eb:33:2e:f9:57:b5, 2015-01-01 00:16:41.815,-0.047,0.063,0.951,11.78,30.151,0.061, , , , , , ,1.802,-1.527,-109.149
 13:52:34.217,eb:33:2e:f9:57:b5, 2015-01-01 00:16:41.815,-0.027,0.041,1.014,13.367,28.625,-0.366, , , , , , ,1.868,-1.384,-109.144
 13:52:34.217,eb:33:2e:f9:57:b5, 2015-01-01 00:16:41.815,-0.029,0.007,1.076,16.235,25.818,-1.343, , , , , , ,1.939,-1.247,-109.144
 13:52:34.217,eb:33:2e:f9:57:b5, 2015-01-01 00:16:41.815,-0.018,0.037,1.018,16.541,25.757,-1.526, , , , , , ,2.038,-1.11,-109.149
 13:52:34.217,eb:33:2e:f9:57:b5, 2015-01-01 00:16:41.815,-0.007,0.056,0.97,15.93,25.391,-1.16, , , , , , ,2.115,-0.983,-109.149
 13:52:34.217,eb:33:2e:f9:57:b5, 2015-01-01 00:16:41.815,-0.017,0.059,0.985,15.747,24.841,-1.343, , , , , , ,2.197,-0.857,-109.155
 13:52:34.217,eb:33:2e:f9:57:b5, 2015-01-01 00:16:41.815,-0.024,0.059,0.955,14.954,23.865,-0.183, , , , , , ,2.274,-0.736,-109.155
 13:52:34.217,eb:33:2e:f9:57:b5, 2015-01-01 00:16:41.815,-0.02,0.064,0.925,13.977,22.339,0.488, , , , , , ,2.357,-0.61,-109.144
 13:52:34.217,eb:33:2e:f9:57:b5, 2015-01-01 00:16:41.815,-0.016,0.067,0.951,13.428,20.874,0.793, , , , , , ,2.422,-0.505,-109.138
 13:52:34.259,eb:33:2e:f9:57:b5, 2015-01-01 00:16:41.815,-0.008,0.061,0.97,13.611,19.47,0.793, , , , , , ,2.494,-0.406,-109.127
 13:52:34.259,eb:33:2e:f9:57:b5, 2015-01-01 00:16:41.815,-0.017,0.077,0.964,13.123,18.616,1.343, , , , , , ,2.56,-0.308,-109.122
 13:52:34.259,eb:33:2e:f9:57:b5, 2015-01-01 00:16:41.815,-0.001,0.077,0.941,12.085,17.517,2.747, , , , , , ,2.631,-0.214,-109.105
 13:52:34.259,eb:33:2e:f9:57:b5, 2015-01-01 00:16:41.815,-0.02,0.08,0.976,11.78,17.273,2.502, , , , , , ,2.692,-0.126,-109.089
 13:52:34.259,eb:33:2e:f9:57:b5, 2015-01-01 00:16:41.815,-0.032,0.066,0.999,12.024,16.968,2.686, , , , , , ,2.752,-0.038,-109.072
 13:52:34.259,eb:33:2e:f9:57:b5, 2015-01-01 00:16:41.815,-0.02,0.056,1.011,13,16.052,2.869, , , , , , ,2.812,0.033,-109.05
 13:52:34.259,eb:33:2e:f9:57:b5, 2015-01-01 00:16:41.815,0.011,0.056,1.048,14.954,14.587,2.441, , , , , , ,2.895,0.121,-109.034
 13:52:34.260,eb:33:2e:f9:57:b5, 2015-01-01 00:16:41.815,0.03,0.074,1.083,18.494,12.146,0.427, , , , , , ,2.983,0.187,-109.023
 13:52:34.262,eb:33:2e:f9:57:b5, 2015-01-01 00:16:41.815,0.028,0.06,1.146,22.339,12.024,-1.709, , , , , , ,3.087,0.247,-109.028
 13:52:34.262,eb:33:2e:f9:57:b5, 2015-01-01 00:16:41.815,0.027,0.062,1.151,26.123,12.756,-3.54, , , , , , ,3.208,0.308,-109.039
 13:52:34.262,eb:33:2e:f9:57:b5, 2015-01-01 00:16:41.815,0.024,0.062,1.116,28.931,13.55,-4.761, , , , , , ,3.362,0.385,-109.056
 13:52:34.262,eb:33:2e:f9:57:b5, 2015-01-01 00:16:41.815,0.024,0.083,1.07,30.823,13.977,-5.31, , , , , , ,3.51,0.456,-109.078
 13:52:34.262,eb:33:2e:f9:57:b5, 2015-01-01 00:16:41.815,0.013,0.093,1.046,32.288,13.855,-6.042, , , , , , ,3.669,0.527,-109.105
 13:52:34.262,eb:33:2e:f9:57:b5, 2015-01-01 00:16:41.815,0.003,0.092,1.074,34.729,13,-6.836, , , , , , ,3.834,0.599,-109.133
 13:52:34.262,eb:33:2e:f9:57:b5, 2015-01-01 00:16:41.815,-0.009,0.083,1.109,37.415,13.062,-8.484, , , , , , ,4.026,0.67,-109.166
 13:52:34.262,eb:33:2e:f9:57:b5, 2015-01-01 00:16:41.815,-0.005,0.07,1.118,40.649,12.573,-9.521, , , , , , ,4.224,0.742,-109.21
 13:52:34.283,eb:33:2e:f9:57:b5, 2015-01-01 00:16:42.530,0.035,0.088,1.111,44.373,10.132,-10.986, , , , , , ,4.438,0.802,-109.254
 13:52:34.283,eb:33:2e:f9:57:b5, 2015-01-01 00:16:42.530,0.009,0.108,1.103,47.424,9.094,-12.695, , , , , , ,4.669,0.851,-109.314
 13:52:34.283,eb:33:2e:f9:57:b5, 2015-01-01 00:16:42.530,0.022,0.116,1.112,49.805,9.094,-14.648, , , , , , ,4.922,0.912,-109.374
 13:52:34.283,eb:33:2e:f9:57:b5, 2015-01-01 00:16:42.530,0.043,0.105,1.132,51.514,10.803,-15.991, , , , , , ,5.175,0.967,-109.451
 13:52:34.283,eb:33:2e:f9:57:b5, 2015-01-01 00:16:42.530,0.057,0.111,1.205,53.345,13.428,-17.273, , , , , , ,5.438,1.038,-109.528
 13:52:34.283,eb:33:2e:f9:57:b5, 2015-01-01 00:16:42.530,0.055,0.101,1.33,54.321,19.958,-18.433, , , , , , ,5.707,1.132,-109.611
 13:52:34.283,eb:33:2e:f9:57:b5, 2015-01-01 00:16:42.530,0.044,0.091,1.279,57.007,25.513,-18.616, , , , , , ,5.993,1.269,-109.688
 13:52:34.283,eb:33:2e:f9:57:b5, 2015-01-01 00:16:42.530,0.049,0.12,1.225,61.523,26.489,-21.118, , , , , , ,6.29,1.406,-109.775
 13:52:34.285,eb:33:2e:f9:57:b5, 2015-01-01 00:16:42.530,-0.156,0.122,1.202,65.857,26.917,-23.499, , , , , , ,6.608,1.555,-109.874
 13:52:34.285,eb:33:2e:f9:57:b5, 2015-01-01 00:16:42.530,0.029,0.038,1.529,160.828,23.499,2.014, , , , , , ,15.82,4.065,-110.83
 13:52:34.285,eb:33:2e:f9:57:b5, 2015-01-01 00:16:42.530,0.153,0.128,1.612,170.654,26.978,0.305, , , , , , ,16.666,4.191,-110.792
 13:52:34.285,eb:33:2e:f9:57:b5, 2015-01-01 00:16:42.530,0.22,0.195,1.675,180.481,32.776,-1.953, , , , , , ,17.551,4.34,-110.748
 13:52:34.285,eb:33:2e:f9:57:b5, 2015-01-01 00:16:42.530,0.261,0.223,1.772,189.819,41.504,-4.089, , , , , , ,18.484,4.521,-110.704
 13:52:34.285,eb:33:2e:f9:57:b5, 2015-01-01 00:16:42.530,0.26,0.159,1.912,201.416,52.002,-6.287, , , , , , ,19.473,4.763,-110.654
 13:52:34.285,eb:33:2e:f9:57:b5, 2015-01-01 00:16:42.530,0.291,0.134,2.012,212.769,65.247,-8.667, , , , , , ,20.528,5.065,-110.588
 13:52:34.285,eb:33:2e:f9:57:b5, 2015-01-01 00:16:42.530,0.342,0.119,2.133,222.046,81.543,-10.132, , , , , , ,21.627,5.427,-110.495
 13:52:34.287,eb:33:2e:f9:57:b5, 2015-01-01 00:16:42.530,0.447,0.101,2.172,234.314,98.572,-12.878, , , , , , ,22.786,5.878,-110.374
 13:52:34.287,eb:33:2e:f9:57:b5, 2015-01-01 00:16:42.530,0.489,0.131,2.118,247.314,114.38,-15.991, , , , , , ,24.011,6.4,-110.231
 13:52:34.287,eb:33:2e:f9:57:b5, 2015-01-01 00:16:42.530,0.517,0.115,2.135,261.23,130.737,-19.714, , , , , , ,25.318,7.009,-110.05
 13:52:34.287,eb:33:2e:f9:57:b5, 2015-01-01 00:16:42.530,0.586,0.075,2.309,275.696,148.132,-23.865, , , , , , ,26.691,7.696,-109.841
 13:52:34.287,eb:33:2e:f9:57:b5, 2015-01-01 00:16:42.530,0.73,0.069,2.417,293.152,161.621,-28.931, , , , , , ,28.158,8.448,-109.594
 13:52:34.287,eb:33:2e:f9:57:b5, 2015-01-01 00:16:42.530,0.834,0.156,2.431,310.913,175.049,-38.086, , , , , , ,29.713,9.278,-109.33
 13:52:34.287,eb:33:2e:f9:57:b5, 2015-01-01 00:16:42.530,0.891,0.209,2.411,327.576,189.453,-48.035, , , , , , ,31.371,10.184,-109.05
 13:52:34.287,eb:33:2e:f9:57:b5, 2015-01-01 00:16:42.530,0.94,0.136,2.595,345.642,208.923,-59.387, , , , , , ,33.118,11.184,-108.737
 13:52:34.326,eb:33:2e:f9:57:b5, 2015-01-01 00:16:42.530,0.901,0.067,2.716,365.112,226.44,-66.284, , , , , , ,34.98,12.272,-108.38
 13:52:34.326,eb:33:2e:f9:57:b5, 2015-01-01 00:16:42.530,0.974,0.105,2.903,390.32,239.563,-75.073, , , , , , ,36.969,13.436,-107.968
 13:52:34.326,eb:33:2e:f9:57:b5, 2015-01-01 00:16:42.530,0.918,0.285,2.959,414.856,240.967,-79.712, , , , , , ,39.106,14.623,-107.518
 13:52:34.326,eb:33:2e:f9:57:b5, 2015-01-01 00:16:42.530,0.852,0.521,3.253,433.228,248.413,-91.675, , , , , , ,41.364,15.848,-107.04
 13:52:34.326,eb:33:2e:f9:57:b5, 2015-01-01 00:16:42.530,0.76,0.593,3.26,446.289,249.695,-99.792, , , , , , ,43.715,17.078,-106.534
 13:52:34.326,eb:33:2e:f9:57:b5, 2015-01-01 00:16:42.530,0.575,0.431,3.574,456.116,263.367,-107.483, , , , , , ,46.148,18.369,-105.963
 13:52:34.326,eb:33:2e:f9:57:b5, 2015-01-01 00:16:42.530,0.492,0.228,3.539,474.548,267.639,-104.675, , , , , , ,48.691,19.655,-105.304
 13:52:34.326,eb:33:2e:f9:57:b5, 2015-01-01 00:16:42.530,0.505,0.217,3.522,495.85,269.836,-111.694, , , , , , ,51.383,20.94,-104.579
 13:52:34.350,eb:33:2e:f9:57:b5, 2015-01-01 00:16:42.530,0.111,0.072,3.395,507.629,276.245,-115.479, , , , , , ,54.19,22.225,-103.782
 13:52:34.350,eb:33:2e:f9:57:b5, 2015-01-01 00:16:42.530,0.057,-0.147,2.989,512.817,276.733,-108.093, , , , , , ,57.096,23.472,-102.881
 13:52:34.350,eb:33:2e:f9:57:b5, 2015-01-01 00:16:42.530,0.214,-0.204,2.877,515.869,259.521,-97.839, , , , , , ,60.051,24.604,-101.926
 13:52:34.350,eb:33:2e:f9:57:b5, 2015-01-01 00:16:42.530,0.599,0.47,2.827,506.226,260.986,-103.638, , , , , , ,63.029,25.67,-100.937
 13:52:34.350,eb:33:2e:f9:57:b5, 2015-01-01 00:16:42.530,0.721,0.309,2.987,480.896,269.836,-107.788, , , , , , ,65.973,26.719,-99.849
 13:52:34.350,eb:33:2e:f9:57:b5, 2015-01-01 00:16:42.530,0.615,0.233,2.809,449.28,279.602,-108.459, , , , , , ,68.829,27.74,-98.652
 13:52:34.350,eb:33:2e:f9:57:b5, 2015-01-01 00:16:42.530,0.885,0.225,2.538,417.603,273.621,-111.694, , , , , , ,71.565,28.718,-97.388
 13:52:34.350,eb:33:2e:f9:57:b5, 2015-01-01 00:16:42.530,1.05,-0.131,2.015,376.221,252.38,-119.446, , , , , , ,74.136,29.663,-96.158
 13:52:34.394,eb:33:2e:f9:57:b5, 2015-01-01 00:16:42.530,1.044,-0.775,1.47,321.106,236.45,-111.694, , , , , , ,76.448,30.531,-94.971
 13:52:34.394,eb:33:2e:f9:57:b5, 2015-01-01 00:16:42.530,1.028,-1.649,1.442,273.315,246.094,-86.609, , , , , , ,78.536,31.284,-93.73
 13:52:34.394,eb:33:2e:f9:57:b5, 2015-01-01 00:16:42.530,0.775,-2.04,1.724,274.414,273.987,-55.481, , , , , , ,80.618,31.844,-92.302
 13:52:34.394,eb:33:2e:f9:57:b5, 2015-01-01 00:16:42.530,0.392,-1.446,1.544,314.331,281.982,-43.579, , , , , , ,82.969,32.278,-90.687
 13:52:34.394,eb:33:2e:f9:57:b5, 2015-01-01 00:16:42.530,0.352,-0.143,0.022,300.842,231.323,-37.048, , , , , , ,85.331,32.613,-89.203
 13:52:34.394,eb:33:2e:f9:57:b5, 2015-01-01 00:16:42.530,0.334,0.489,-0.898,221.497,174.622,-19.287, , , , , , ,87.231,32.805,-88.039
 13:52:34.394,eb:33:2e:f9:57:b5, 2015-01-01 00:16:42.530,0.419,-0.22,-0.484,154.48,117.126,-6.104, , , , , , ,88.555,32.893,-87.22
 13:52:34.394,eb:33:2e:f9:57:b5, 2015-01-01 00:16:42.530,0.535,-0.768,-0.594,98.816,55.969,14.465, , , , , , ,89.423,32.866,-86.743
 13:52:34.463,eb:33:2e:f9:57:b5, 2015-01-01 00:16:42.530,0.507,-0.891,-0.845,32.959,10.376,32.837, , , , , , ,89.813,32.739,-86.578
 13:52:34.463,eb:33:2e:f9:57:b5, 2015-01-01 00:16:42.530,0.432,-1.082,-0.664,-34.18,-14.526,49.255, , , , , , ,89.753,32.525,-86.611
 13:52:34.463,eb:33:2e:f9:57:b5, 2015-01-01 00:16:42.530,0.375,-1.184,-0.349,-94.604,-23.621,62.683, , , , , , ,89.313,32.234,-86.743
 13:52:34.463,eb:33:2e:f9:57:b5, 2015-01-01 00:16:42.530,0.372,-1.153,-0.097,-150.024,-22.522,77.454, , , , , , ,88.605,31.877,-86.874
 13:52:34.463,eb:33:2e:f9:57:b5, 2015-01-01 00:16:42.530,0.4,-1.009,0.13,-200.684,-15.015,91.187, , , , , , ,87.649,31.443,-86.962
 13:52:34.463,eb:33:2e:f9:57:b5, 2015-01-01 00:16:42.530,0.446,-0.853,0.355,-244.751,-4.211,100.403, , , , , , ,86.501,30.959,-86.984
 13:52:34.463,eb:33:2e:f9:57:b5, 2015-01-01 00:16:42.530,0.529,-0.731,0.502,-281.555,5.005,104.37, , , , , , ,85.172,30.438,-86.946
 13:52:34.463,eb:33:2e:f9:57:b5, 2015-01-01 00:16:42.530,0.556,-0.627,0.576,-311.829,11.841,104.126, , , , , , ,83.727,29.927,-86.83
 13:52:34.485,eb:33:2e:f9:57:b5, 2015-01-01 00:16:42.530,0.564,-0.539,0.551,-335.999,14.099,98.145, , , , , , ,82.167,29.432,-86.677
 13:52:34.485,eb:33:2e:f9:57:b5, 2015-01-01 00:16:42.530,0.583,-0.48,0.432,-354.614,10.01,90.393, , , , , , ,80.502,28.982,-86.523
 13:52:34.485,eb:33:2e:f9:57:b5, 2015-01-01 00:16:42.530,0.607,-0.443,0.323,-368.286,0.183,80.811, , , , , , ,78.717,28.564,-86.424
 13:52:34.485,eb:33:2e:f9:57:b5, 2015-01-01 00:16:42.530,0.64,-0.43,0.237,-377.197,-14.832,69.824, , , , , , ,76.866,28.196,-86.38
 13:52:34.485,eb:33:2e:f9:57:b5, 2015-01-01 00:16:42.530,0.66,-0.43,0.168,-381.775,-34.485,58.35, , , , , , ,74.938,27.856,-86.435
 13:52:34.485,eb:33:2e:f9:57:b5, 2015-01-01 00:16:42.530,0.656,-0.43,0.103,-382.812,-58.228,46.875, , , , , , ,72.938,27.543,-86.616
 13:52:34.485,eb:33:2e:f9:57:b5, 2015-01-01 00:16:42.530,0.643,-0.432,0.054,-380.981,-85.144,35.522, , , , , , ,70.862,27.235,-86.951
 13:52:34.485,eb:33:2e:f9:57:b5, 2015-01-01 00:16:42.530,0.629,-0.446,0.031,-377.38,-113.77,24.658, , , , , , ,68.747,26.922,-87.435
 13:52:34.666,eb:33:2e:f9:57:b5, 2015-01-01 00:16:42.530,0.583,-0.492,0.033,-373.84,-141.663,16.113, , , , , , ,66.583,26.587,-88.072
 13:52:34.666,eb:33:2e:f9:57:b5, 2015-01-01 00:16:42.530,0.522,-0.561,0.049,-371.155,-167.236,9.827, , , , , , ,64.38,26.202,-88.841
 13:52:34.666,eb:33:2e:f9:57:b5, 2015-01-01 00:16:42.530,0.462,-0.647,0.085,-370.239,-189.575,6.592, , , , , , ,62.122,25.757,-89.731
 13:52:34.666,eb:33:2e:f9:57:b5, 2015-01-01 00:16:42.530,0.386,-0.728,0.163,-371.46,-207.336,6.348, , , , , , ,59.854,25.241,-90.687
 13:52:34.666,eb:33:2e:f9:57:b5, 2015-01-01 00:16:42.530,0.313,-0.801,0.294,-375.61,-222.29,9.766, , , , , , ,57.563,24.648,-91.681
 13:52:34.666,eb:33:2e:f9:57:b5, 2015-01-01 00:16:42.530,0.242,-0.838,0.415,-380.92,-229.98,15.32, , , , , , ,55.261,23.967,-92.681
 13:52:34.666,eb:33:2e:f9:57:b5, 2015-01-01 00:16:42.530,0.174,-0.866,0.527,-387.512,-234.497,23.01, , , , , , ,52.927,23.192,-93.653
 13:52:34.666,eb:33:2e:f9:57:b5, 2015-01-01 00:16:42.530,0.121,-0.881,0.619,-394.714,-237.061,32.288, , , , , , ,50.614,22.352,-94.565
 13:52:34.709,eb:33:2e:f9:57:b5, 2015-01-01 00:16:42.530,0.093,-0.879,0.687,-402.1,-238.953,42.969, , , , , , ,48.307,21.434,-95.405
 13:52:34.709,eb:33:2e:f9:57:b5, 2015-01-01 00:16:42.530,0.043,-0.854,0.758,-408.875,-239.014,54.504, , , , , , ,46.005,20.435,-96.163
 13:52:34.709,eb:33:2e:f9:57:b5, 2015-01-01 00:16:42.530,0.051,-0.827,0.8,-415.894,-238.647,65.857, , , , , , ,43.687,19.369,-96.833
 13:52:34.709,eb:33:2e:f9:57:b5, 2015-01-01 00:16:42.530,0.117,-0.833,0.945,-420.349,-239.258,76.111, , , , , , ,41.407,18.248,-97.41
 13:52:34.710,eb:33:2e:f9:57:b5, 2015-01-01 00:16:42.530,0.192,-0.742,1.034,-423.218,-241.394,83.923, , , , , , ,39.144,17.073,-97.894
 13:52:34.710,eb:33:2e:f9:57:b5, 2015-01-01 00:16:42.530,0.255,-0.671,1.223,-423.889,-244.202,86.975, , , , , , ,36.903,15.853,-98.328
 13:52:34.710,eb:33:2e:f9:57:b5, 2015-01-01 00:16:42.530,0.242,-0.556,1.334,-425.415,-240.051,87.891, , , , , , ,34.662,14.601,-98.701
 13:52:34.710,eb:33:2e:f9:57:b5, 2015-01-01 00:16:42.530,0.314,-0.456,1.395,-427.307,-236.267,86.487, , , , , , ,32.454,13.376,-99.003
 13:52:34.711,eb:33:2e:f9:57:b5, 2015-01-01 00:16:42.530,0.341,-0.379,1.48,-427.979,-232.422,86.182, , , , , , ,30.262,12.156,-99.245
 13:52:34.711,eb:33:2e:f9:57:b5, 2015-01-01 00:16:42.530,0.347,-0.282,1.496,-427.002,-230.713,81.97, , , , , , ,28.081,10.942,-99.448
 13:52:34.711,eb:33:2e:f9:57:b5, 2015-01-01 00:16:42.530,0.369,-0.234,1.557,-424.744,-229.98,76.721, , , , , , ,25.9,9.728,-99.63
 13:52:34.711,eb:33:2e:f9:57:b5, 2015-01-01 00:16:42.530,0.392,-0.186,1.632,-421.387,-228.149,69.885, , , , , , ,23.758,8.536,-99.783
 13:52:34.711,eb:33:2e:f9:57:b5, 2015-01-01 00:16:42.530,0.401,-0.164,1.747,-416.992,-226.685,63.171, , , , , , ,21.643,7.361,-99.921
 13:52:34.711,eb:33:2e:f9:57:b5, 2015-01-01 00:16:42.530,0.401,-0.14,1.863,-412.415,-223.755,54.626, , , , , , ,19.561,6.207,-100.042
 13:52:34.711,eb:33:2e:f9:57:b5, 2015-01-01 00:16:42.530,0.378,-0.133,1.953,-408.142,-221.436,46.326, , , , , , ,17.474,5.059,-100.168
 13:52:34.711,eb:33:2e:f9:57:b5, 2015-01-01 00:16:42.530,0.386,-0.12,2.023,-405.334,-218.201,36.56, , , , , , ,15.43,3.95,-100.283
 13:52:34.714,eb:33:2e:f9:57:b5, 2015-01-01 00:16:42.530,0.36,-0.14,2.058,-404.236,-216.736,29.724, , , , , , ,13.403,2.856,-100.399
 13:52:34.714,eb:33:2e:f9:57:b5, 2015-01-01 00:16:42.530,0.327,-0.153,2.104,-406.433,-214.417,22.217, , , , , , ,11.371,1.78,-100.508
 13:52:34.714,eb:33:2e:f9:57:b5, 2015-01-01 00:16:42.530,0.297,-0.175,2.18,-411.865,-211.243,14.709, , , , , , ,9.294,0.709,-100.618
 13:52:34.714,eb:33:2e:f9:57:b5, 2015-01-01 00:16:42.530,0.25,-0.205,2.299,-419.861,-208.984,9.888, , , , , , ,7.213,-0.335,-100.706
 13:52:34.714,eb:33:2e:f9:57:b5, 2015-01-01 00:16:42.530,0.197,-0.214,2.465,-429.871,-205.75,6.165, , , , , , ,5.087,-1.368,-100.783
 13:52:34.714,eb:33:2e:f9:57:b5, 2015-01-01 00:16:42.530,0.159,-0.215,2.66,-441.589,-199.829,3.845, , , , , , ,2.9,-2.379,-100.833
 13:52:34.714,eb:33:2e:f9:57:b5, 2015-01-01 00:16:42.530,0.127,-0.213,2.861,-453.308,-192.688,4.517, , , , , , ,0.632,-3.373,-100.844
 13:52:34.715,eb:33:2e:f9:57:b5, 2015-01-01 00:16:42.530,0.106,-0.179,3.062,-464.172,-183.594,7.324, , , , , , ,-1.664,-4.307,-100.805
 13:52:34.822,eb:33:2e:f9:57:b5, 2015-01-01 00:16:42.530,0.122,-0.089,3.255,-473.45,-172.913,10.681, , , , , , ,-4.021,-5.191,-100.717
 13:52:34.822,eb:33:2e:f9:57:b5, 2015-01-01 00:16:42.530,0.143,0.087,3.438,-480.591,-160.156,13.672, , , , , , ,-6.427,-6.01,-100.58
 13:52:34.822,eb:33:2e:f9:57:b5, 2015-01-01 00:16:42.530,0.185,0.347,3.582,-484.497,-147.827,14.648, , , , , , ,-8.888,-6.768,-100.404
 13:52:34.822,eb:33:2e:f9:57:b5, 2015-01-01 00:16:42.530,0.208,0.674,3.658,-484.009,-139.893,14.404, , , , , , ,-11.338,-7.46,-100.206
 13:52:34.822,eb:33:2e:f9:57:b5, 2015-01-01 00:16:42.530,0.212,1.023,3.667,-479.004,-135.742,10.864, , , , , , ,-13.771,-8.113,-99.998
 13:52:34.822,eb:33:2e:f9:57:b5, 2015-01-01 00:16:42.530,0.2,1.343,3.598,-468.567,-136.963,5.188, , , , , , ,-16.172,-8.756,-99.783
 13:52:34.822,eb:33:2e:f9:57:b5, 2015-01-01 00:16:42.530,0.166,1.663,3.464,-447.998,-147.827,-2.563, , , , , , ,-18.512,-9.448,-99.564
 13:52:34.822,eb:33:2e:f9:57:b5, 2015-01-01 00:16:42.530,0.106,1.872,3.341,-423.95,-164.734,-10.986, , , , , , ,-20.726,-10.201,-99.333
 13:52:34.866,eb:33:2e:f9:57:b5, 2015-01-01 00:16:42.530,0.047,2.011,3.184,-394.348,-189.514,-18.921, , , , , , ,-22.808,-11.063,-99.075
 13:52:34.866,eb:33:2e:f9:57:b5, 2015-01-01 00:16:42.530,0.062,1.961,3.026,-358.276,-215.881,-29.297, , , , , , ,-24.73,-12.057,-98.762
 13:52:34.866,eb:33:2e:f9:57:b5, 2015-01-01 00:16:42.530,-0.391,1.99,2.812,-322.144,-243.652,-37.537, , , , , , ,-26.51,-13.184,-98.41
 13:52:34.866,eb:33:2e:f9:57:b5, 2015-01-01 00:16:42.530,-0.742,2.27,2.328,-285.767,-288.086,-46.509, , , , , , ,-28.12,-14.48,-97.971
 13:52:34.866,eb:33:2e:f9:57:b5, 2015-01-01 00:16:42.530,-1.158,2.669,2.112,-249.451,-336.792,-51.147, , , , , , ,-29.586,-15.991,-97.405
 13:52:34.866,eb:33:2e:f9:57:b5, 2015-01-01 00:16:42.530,-1.652,3.056,2.257,-215.515,-376.404,-50.598, , , , , , ,-30.943,-17.682,-96.685
 13:52:34.866,eb:33:2e:f9:57:b5, 2015-01-01 00:16:42.530,-2.206,3.303,2.731,-182.495,-389.832,-45.776, , , , , , ,-32.201,-19.462,-95.828
 13:52:34.866,eb:33:2e:f9:57:b5, 2015-01-01 00:16:42.530,-2.621,3.475,3.253,-149.231,-367.798,-39.062, , , , , , ,-33.333,-21.176,-94.922
 13:52:34.935,eb:33:2e:f9:57:b5, 2015-01-01 00:16:43.245,-2.856,3.694,3.676,-119.141,-307.678,-33.02, , , , , , ,-34.299,-22.659,-94.081
 13:52:34.935,eb:33:2e:f9:57:b5, 2015-01-01 00:16:43.245,-2.89,4.059,3.837,-93.872,-222.839,-26.672, , , , , , ,-35.079,-23.807,-93.411
 13:52:34.935,eb:33:2e:f9:57:b5, 2015-01-01 00:16:43.245,-2.866,4.498,3.918,-70.557,-125.793,-21.362, , , , , , ,-35.651,-24.549,-92.999
 13:52:34.935,eb:33:2e:f9:57:b5, 2015-01-01 00:16:43.245,-2.727,4.808,3.876,-43.701,-31.799,-19.531, , , , , , ,-35.98,-24.884,-92.862
 13:52:34.935,eb:33:2e:f9:57:b5, 2015-01-01 00:16:43.245,-2.474,4.802,3.69,-11.353,48.157,-24.719, , , , , , ,-36.035,-24.879,-93.027
 13:52:34.935,eb:33:2e:f9:57:b5, 2015-01-01 00:16:43.245,-2.139,4.475,3.353,24.963,107.3,-33.325, , , , , , ,-35.815,-24.62,-93.433
 13:52:34.935,eb:33:2e:f9:57:b5, 2015-01-01 00:16:43.245,-1.769,3.975,2.939,62.256,143.433,-40.894, , , , , , ,-35.321,-24.197,-94.032
 13:52:34.935,eb:33:2e:f9:57:b5, 2015-01-01 00:16:43.245,-1.677,3.408,2.557,95.154,161.865,-45.105, , , , , , ,-34.629,-23.687,-94.713
 13:52:35.002,eb:33:2e:f9:57:b5, 2015-01-01 00:16:43.245,1.522,2.494,2.577,200.806,254.639,49.683, , , , , , ,-33.712,-22.956,-95.378
 13:52:35.002,eb:33:2e:f9:57:b5, 2015-01-01 00:16:43.245,0.408,-3.771,8.958,281.555,191.772,-193.115, , , , , , ,-31.778,-22.302,-96.894
 13:52:35.002,eb:33:2e:f9:57:b5, 2015-01-01 00:16:43.245,1.774,-2.707,-3.161,289.856,229.065,98.633, , , , , , ,-30.207,-21.264,-97.251
 13:52:35.002,eb:33:2e:f9:57:b5, 2015-01-01 00:16:43.245,2.086,-1.804,0.836,293.457,202.515,-78.43, , , , , , ,-28.499,-20.391,-98.119
 13:52:35.002,eb:33:2e:f9:57:b5, 2015-01-01 00:16:43.245,1.836,-2.483,-0.424,345.52,220.276,-145.813, , , , , , ,-26.526,-19.688,-99.146
 13:52:35.002,eb:33:2e:f9:57:b5, 2015-01-01 00:16:43.245,1.052,-1.773,0.789,379.272,276.733,-210.754, , , , , , ,-24.181,-18.979,-100.651
 13:52:35.003,eb:33:2e:f9:57:b5, 2015-01-01 00:16:43.245,0.525,-0.472,1.908,370.483,331.238,-231.445, , , , , , ,-21.731,-17.974,-102.393
 13:52:35.003,eb:33:2e:f9:57:b5, 2015-01-01 00:16:43.245,0.153,-0.226,1.761,346.802,364.075,-205.811, , , , , , ,-19.44,-16.688,-104.117
 13:52:35.047,eb:33:2e:f9:57:b5, 2015-01-01 00:16:43.245,0.01,-0.49,1.03,349.426,340.82,-165.161, , , , , , ,-17.303,-15.309,-105.606
 13:52:35.047,eb:33:2e:f9:57:b5, 2015-01-01 00:16:43.245,-0.561,-0.482,0.771,368.591,353.821,-99.426, , , , , , ,-15.216,-13.81,-106.721
 13:52:35.047,eb:33:2e:f9:57:b5, 2015-01-01 00:16:43.245,-0.369,-0.274,0.769,372.253,367.126,-62.256, , , , , , ,-13.145,-12.14,-107.545
 13:52:35.047,eb:33:2e:f9:57:b5, 2015-01-01 00:16:43.245,-0.219,0.035,1.499,340.637,326.904,-41.321, , , , , , ,-11.25,-10.486,-108.16
 13:52:35.047,eb:33:2e:f9:57:b5, 2015-01-01 00:16:43.245,-0.295,0.431,1.974,289.429,281.189,-25.452, , , , , , ,-9.619,-9.025,-108.605
 13:52:35.047,eb:33:2e:f9:57:b5, 2015-01-01 00:16:43.245,-0.411,0.548,1.538,244.995,230.896,-17.761, , , , , , ,-8.267,-7.828,-108.891
 13:52:35.047,eb:33:2e:f9:57:b5, 2015-01-01 00:16:43.245,-0.315,0.485,1.43,207.703,201.477,-14.648, , , , , , ,-7.114,-6.768,-109.122
 13:52:35.047,eb:33:2e:f9:57:b5, 2015-01-01 00:16:43.245,-0.256,0.182,1.054,186.462,169.25,-4.761, , , , , , ,-6.13,-5.878,-109.27
 13:52:35.049,eb:33:2e:f9:57:b5, 2015-01-01 00:16:43.245,-0.099,0.097,0.972,175.354,141.907,3.906, , , , , , ,-5.224,-5.103,-109.347
 13:52:35.049,eb:33:2e:f9:57:b5, 2015-01-01 00:16:43.245,-0.034,0.147,1.075,161.56,98.389,13.916, , , , , , ,-4.384,-4.51,-109.352
 13:52:35.049,eb:33:2e:f9:57:b5, 2015-01-01 00:16:43.245,-0.116,0.241,1.056,145.386,74.158,20.447, , , , , , ,-3.615,-4.081,-109.292
 13:52:35.049,eb:33:2e:f9:57:b5, 2015-01-01 00:16:43.245,-0.188,0.17,0.996,131.592,55.481,23.438, , , , , , ,-2.939,-3.763,-109.199
 13:52:35.049,eb:33:2e:f9:57:b5, 2015-01-01 00:16:43.245,-0.156,0.162,0.898,116.882,35.828,24.231, , , , , , ,-2.329,-3.543,-109.083
 13:52:35.049,eb:33:2e:f9:57:b5, 2015-01-01 00:16:43.245,0.024,0.231,0.934,100.342,23.56,25.818, , , , , , ,-1.802,-3.4,-108.968
 13:52:35.049,eb:33:2e:f9:57:b5, 2015-01-01 00:16:43.245,0.041,0.255,0.999,83.252,18.86,30.518, , , , , , ,-1.346,-3.279,-108.831
 13:52:35.049,eb:33:2e:f9:57:b5, 2015-01-01 00:16:43.245,0.033,0.314,0.991,65.857,18.005,28.503, , , , , , ,-0.994,-3.192,-108.682
 13:52:35.051,eb:33:2e:f9:57:b5, 2015-01-01 00:16:43.245,-0.187,0.219,0.95,52.917,14.893,29.053, , , , , , ,-0.709,-3.104,-108.539
 13:52:35.051,eb:33:2e:f9:57:b5, 2015-01-01 00:16:43.245,-0.165,0.339,0.849,38.025,5.432,17.761, , , , , , ,-0.494,-3.065,-108.419
 13:52:35.051,eb:33:2e:f9:57:b5, 2015-01-01 00:16:43.245,-0.073,0.24,0.862,28.381,-6.897,8.362, , , , , , ,-0.33,-3.071,-108.358
 13:52:35.051,eb:33:2e:f9:57:b5, 2015-01-01 00:16:43.245,0.086,0.122,0.951,23.926,-9.583,1.16, , , , , , ,-0.203,-3.12,-108.342
 13:52:35.051,eb:33:2e:f9:57:b5, 2015-01-01 00:16:43.245,0.052,0.039,1.012,22.949,-7.08,3.723, , , , , , ,-0.088,-3.164,-108.331
 13:52:35.051,eb:33:2e:f9:57:b5, 2015-01-01 00:16:43.245,0.017,0.049,1.008,21.179,-4.211,4.578, , , , , , ,0.016,-3.186,-108.309
 13:52:35.051,eb:33:2e:f9:57:b5, 2015-01-01 00:16:43.245,0.019,0.073,0.965,18.738,-4.944,4.883, , , , , , ,0.126,-3.208,-108.281
 13:52:35.051,eb:33:2e:f9:57:b5, 2015-01-01 00:16:43.245,-0.012,0.076,0.978,16.541,-3.418,3.906, , , , , , ,0.214,-3.224,-108.265
 13:52:35.051,eb:33:2e:f9:57:b5, 2015-01-01 00:16:43.245,0.027,0.05,0.966,15.259,-3.418,2.869, , , , , , ,0.291,-3.241,-108.248
 13:52:35.051,eb:33:2e:f9:57:b5, 2015-01-01 00:16:43.245,0.078,0.03,1.006,15.076,-0.793,1.648, , , , , , ,0.368,-3.252,-108.237
 13:52:35.051,eb:33:2e:f9:57:b5, 2015-01-01 00:16:43.245,0.062,0.013,1.03,15.381,0.183,2.38, , , , , , ,0.456,-3.241,-108.226
 13:52:35.051,eb:33:2e:f9:57:b5, 2015-01-01 00:16:43.245,0.047,0.021,1.035,15.015,2.441,2.136, , , , , , ,0.533,-3.235,-108.215
 13:52:35.051,eb:33:2e:f9:57:b5, 2015-01-01 00:16:43.245,0.035,0.042,1.007,13.977,3.052,2.502, , , , , , ,0.604,-3.219,-108.204
 13:52:35.051,eb:33:2e:f9:57:b5, 2015-01-01 00:16:43.245,0.046,0.035,1.006,13.123,3.906,0.854, , , , , , ,0.67,-3.203,-108.199
 13:52:35.051,eb:33:2e:f9:57:b5, 2015-01-01 00:16:43.245,0.044,0.031,1.008,12.939,5.737,-0.122, , , , , , ,0.747,-3.17,-108.193
 13:52:35.052,eb:33:2e:f9:57:b5, 2015-01-01 00:16:43.245,0.029,0.038,0.997,12.39,6.897,-0.732, , , , , , ,0.813,-3.137,-108.199
 13:52:35.206,eb:33:2e:f9:57:b5, 2015-01-01 00:16:43.245,0.068,0.036,0.983,12.024,7.324,-0.244, , , , , , ,0.873,-3.104,-108.199
 13:52:35.206,eb:33:2e:f9:57:b5, 2015-01-01 00:16:43.245,0.043,0.059,1.011,11.414,15.32,-0.183, , , , , , ,1.417,-2.609,-108.182
 13:52:35.206,eb:33:2e:f9:57:b5, 2015-01-01 00:16:43.245,0.066,0.072,0.989,10.559,15.381,-1.465, , , , , , ,1.489,-2.527,-108.182
 13:52:35.206,eb:33:2e:f9:57:b5, 2015-01-01 00:16:43.245,0.037,0.076,0.977,8.728,16.968,-0.61, , , , , , ,1.533,-2.439,-108.188
 13:52:35.206,eb:33:2e:f9:57:b5, 2015-01-01 00:16:43.245,0.046,0.075,0.971,6.409,19.47,0.305, , , , , , ,1.571,-2.346,-108.188
 13:52:35.206,eb:33:2e:f9:57:b5, 2015-01-01 00:16:43.245,0.042,0.061,0.993,5.432,21.057,0.854, , , , , , ,1.599,-2.247,-108.182
 13:52:35.206,eb:33:2e:f9:57:b5, 2015-01-01 00:16:43.245,0.042,0.061,0.991,4.944,21.606,1.038, , , , , , ,1.637,-2.131,-108.171
 13:52:35.206,eb:33:2e:f9:57:b5, 2015-01-01 00:16:43.245,0.016,0.059,0.977,4.211,21.362,2.502, , , , , , ,1.659,-2.021,-108.16
 13:52:35.209,eb:33:2e:f9:57:b5, 2015-01-01 00:16:43.245,0.006,0.064,0.954,2.625,21.545,4.272, , , , , , ,1.675,-1.917,-108.144
 13:52:35.209,eb:33:2e:f9:57:b5, 2015-01-01 00:16:43.245,0.04,0.053,0.963,2.014,19.409,5.066, , , , , , ,1.686,-1.813,-108.111
 13:52:35.209,eb:33:2e:f9:57:b5, 2015-01-01 00:16:43.245,0.006,0.062,0.969,1.038,20.02,5.859, , , , , , ,1.703,-1.708,-108.083
 13:52:35.209,eb:33:2e:f9:57:b5, 2015-01-01 00:16:43.245,0.029,0.05,0.984,0.916,18.555,5.005, , , , , , ,1.708,-1.609,-108.056
 13:52:35.210,eb:33:2e:f9:57:b5, 2015-01-01 00:16:43.245,0.016,0.058,0.973,0.671,17.334,5.615, , , , , , ,1.714,-1.522,-108.023
 13:52:35.210,eb:33:2e:f9:57:b5, 2015-01-01 00:16:43.245,0.031,0.063,0.964,-0.061,16.602,5.615, , , , , , ,1.714,-1.439,-107.996
 13:52:35.211,eb:33:2e:f9:57:b5, 2015-01-01 00:16:43.245,0.044,0.067,0.99,-0.549,15.93,4.333, , , , , , ,1.725,-1.351,-107.968
 13:52:35.211,eb:33:2e:f9:57:b5, 2015-01-01 00:16:43.245,0.041,0.052,1.003,-0.488,16.296,4.639, , , , , , ,1.719,-1.269,-107.941
 13:52:35.211,eb:33:2e:f9:57:b5, 2015-01-01 00:16:43.245,0.061,0.07,1.007,0.183,15.869,3.296, , , , , , ,1.719,-1.192,-107.919
 13:52:35.211,eb:33:2e:f9:57:b5, 2015-01-01 00:16:43.245,0.022,0.075,1.028,0.977,16.785,1.648, , , , , , ,1.719,-1.11,-107.908
 13:52:35.211,eb:33:2e:f9:57:b5, 2015-01-01 00:16:43.245,-0.007,0.039,1.057,2.258,18.127,1.221, , , , , , ,1.741,-1.011,-107.897
 13:52:35.211,eb:33:2e:f9:57:b5, 2015-01-01 00:16:43.245,-0.002,0.03,1.021,4.089,16.663,1.221, , , , , , ,1.758,-0.923,-107.886
 13:52:35.211,eb:33:2e:f9:57:b5, 2015-01-01 00:16:43.245,-0.015,0.047,1.023,6.042,14.709,0.122, , , , , , ,1.785,-0.846,-107.886
 13:52:35.211,eb:33:2e:f9:57:b5, 2015-01-01 00:16:43.245,-0.008,0.042,1.049,7.568,14.648,-1.221, , , , , , ,1.818,-0.775,-107.886
 13:52:35.211,eb:33:2e:f9:57:b5, 2015-01-01 00:16:43.245,-0.015,0.035,1.029,9.583,13.489,-1.038, , , , , , ,1.879,-0.692,-107.891
 13:52:35.211,eb:33:2e:f9:57:b5, 2015-01-01 00:16:43.245,-0.032,0.026,1.049,12.695,11.047,-1.648, , , , , , ,1.934,-0.632,-107.897
 13:52:35.272,eb:33:2e:f9:57:b5, 2015-01-01 00:16:43.245,-0.034,0.014,1.095,15.991,9.949,-3.235, , , , , , ,2.005,-0.582,-107.908
 13:52:35.272,eb:33:2e:f9:57:b5, 2015-01-01 00:16:43.245,-0.018,0.028,1.022,17.395,8.85,-2.869, , , , , , ,2.093,-0.533,-107.919
 13:52:35.272,eb:33:2e:f9:57:b5, 2015-01-01 00:16:43.245,-0.004,0.055,0.98,17.578,7.69,-2.808, , , , , , ,2.192,-0.483,-107.935
 13:52:35.272,eb:33:2e:f9:57:b5, 2015-01-01 00:16:43.245,0.003,0.062,0.974,17.395,7.08,-2.502, , , , , , ,2.28,-0.445,-107.946
 13:52:35.272,eb:33:2e:f9:57:b5, 2015-01-01 00:16:43.245,0.028,0.06,1.019,17.7,7.324,-2.93, , , , , , ,2.368,-0.406,-107.957
 13:52:35.272,eb:33:2e:f9:57:b5, 2015-01-01 00:16:43.245,0.053,0.062,1.04,18.188,8.85,-3.235, , , , , , ,2.461,-0.368,-107.974
 13:52:35.272,eb:33:2e:f9:57:b5, 2015-01-01 00:16:43.245,0.052,0.075,1.06,19.409,9.705,-3.906, , , , , , ,2.565,-0.313,-107.99
 13:52:35.272,eb:33:2e:f9:57:b5, 2015-01-01 00:16:43.245,0.037,0.069,1.082,21.24,10.986,-5.188, , , , , , ,2.67,-0.258,-108.012
 13:52:35.274,eb:33:2e:f9:57:b5, 2015-01-01 00:16:43.245,-0.154,0.065,1.086,22.888,12.39,-6.104, , , , , , ,2.78,-0.198,-108.034
 13:52:35.274,eb:33:2e:f9:57:b5, 2015-01-01 00:16:43.245,-0.16,0.016,1.025,49.866,6.836,-13.428, , , , , , ,4.455,0.505,-108.572
 13:52:35.274,eb:33:2e:f9:57:b5, 2015-01-01 00:16:43.245,-0.13,0.027,1.02,52.002,2.319,-12.146, , , , , , ,4.719,0.538,-108.633
 13:52:35.274,eb:33:2e:f9:57:b5, 2015-01-01 00:16:43.245,-0.103,0.035,1.038,53.284,0.183,-10.071, , , , , , ,4.982,0.549,-108.688
 13:52:35.274,eb:33:2e:f9:57:b5, 2015-01-01 00:16:43.245,-0.042,0.042,1.085,55.42,-1.099,-8.545, , , , , , ,5.257,0.549,-108.732
 13:52:35.274,eb:33:2e:f9:57:b5, 2015-01-01 00:16:43.245,0.024,0.048,1.222,58.899,-0.244,-7.69, , , , , , ,5.543,0.549,-108.776
 13:52:35.274,eb:33:2e:f9:57:b5, 2015-01-01 00:16:43.245,0.114,0.064,1.329,64.575,2.319,-8.606, , , , , , ,5.861,0.566,-108.814
 13:52:35.274,eb:33:2e:f9:57:b5, 2015-01-01 00:16:43.245,0.15,0.099,1.387,70.984,6.47,-10.925, , , , , , ,6.207,0.599,-108.864
 13:52:35.295,eb:33:2e:f9:57:b5, 2015-01-01 00:16:43.245,0.098,0.114,1.348,77.209,11.414,-12.634, , , , , , ,6.575,0.654,-108.918
 13:52:35.295,eb:33:2e:f9:57:b5, 2015-01-01 00:16:43.245,0.103,0.102,1.375,84.106,15.137,-14.771, , , , , , ,6.982,0.731,-108.979
 13:52:35.295,eb:33:2e:f9:57:b5, 2015-01-01 00:16:43.245,0.106,0.083,1.427,90.881,20.325,-16.174, , , , , , ,7.432,0.835,-109.045
 13:52:35.295,eb:33:2e:f9:57:b5, 2015-01-01 00:16:43.245,0.127,0.102,1.45,99.182,24.048,-18.25, , , , , , ,7.91,0.961,-109.116
 13:52:35.295,eb:33:2e:f9:57:b5, 2015-01-01 00:16:43.245,0.109,0.141,1.42,107.3,26.245,-20.874, , , , , , ,8.432,1.104,-109.193
 13:52:35.295,eb:33:2e:f9:57:b5, 2015-01-01 00:16:43.245,-0.05,0.138,1.336,114.136,27.222,-21.79, , , , , , ,8.987,1.252,-109.281
 13:52:35.295,eb:33:2e:f9:57:b5, 2015-01-01 00:16:43.245,-0.149,0.073,1.282,120.544,25.94,-20.264, , , , , , ,9.586,1.412,-109.363
 13:52:35.295,eb:33:2e:f9:57:b5, 2015-01-01 00:16:43.245,-0.199,-0.024,1.42,128.052,25.33,-18.677, , , , , , ,10.212,1.549,-109.44
 13:52:35.340,eb:33:2e:f9:57:b5, 2015-01-01 00:16:43.245,-0.048,-0.066,1.559,135.62,29.48,-15.198, , , , , , ,10.871,1.697,-109.495
 13:52:35.340,eb:33:2e:f9:57:b5, 2015-01-01 00:16:43.245,0.047,-0.072,1.755,144.775,35.95,-11.108, , , , , , ,11.574,1.873,-109.528
 13:52:35.341,eb:33:2e:f9:57:b5, 2015-01-01 00:16:43.245,0.192,0.029,1.745,156.25,40.71,-13.489, , , , , , ,12.343,2.087,-109.545
 13:52:35.341,eb:33:2e:f9:57:b5, 2015-01-01 00:16:43.245,0.219,0.13,1.706,167.786,45.471,-15.991, , , , , , ,13.156,2.318,-109.572
 13:52:35.341,eb:33:2e:f9:57:b5, 2015-01-01 00:16:43.245,0.22,0.146,1.744,180.664,49.316,-19.348, , , , , , ,14.03,2.571,-109.6
 13:52:35.342,eb:33:2e:f9:57:b5, 2015-01-01 00:16:43.245,0.148,0.083,1.823,194.275,55.481,-22.034, , , , , , ,14.974,2.856,-109.638
 13:52:35.342,eb:33:2e:f9:57:b5, 2015-01-01 00:16:43.245,0.119,0.05,1.881,208.618,61.401,-23.865, , , , , , ,15.996,3.181,-109.666
 13:52:35.342,eb:33:2e:f9:57:b5, 2015-01-01 00:16:43.245,0.083,-0.028,1.955,224.06,66.65,-24.292, , , , , , ,17.084,3.521,-109.693
 13:52:35.384,eb:33:2e:f9:57:b5, 2015-01-01 00:16:43.245,0.047,-0.125,2.044,239.502,72.693,-22.522, , , , , , ,18.248,3.895,-109.698
 13:52:35.386,eb:33:2e:f9:57:b5, 2015-01-01 00:16:43.245,0.14,-0.194,2.319,255.188,85.266,-20.203, , , , , , ,19.495,4.307,-109.666
 13:52:35.386,eb:33:2e:f9:57:b5, 2015-01-01 00:16:43.245,0.408,-0.172,2.413,271.545,99.792,-19.592, , , , , , ,20.836,4.79,-109.594
 13:52:35.386,eb:33:2e:f9:57:b5, 2015-01-01 00:16:43.245,0.614,-0.081,2.333,287.537,116.089,-21.423, , , , , , ,22.247,5.334,-109.49
 13:52:35.386,eb:33:2e:f9:57:b5, 2015-01-01 00:16:43.245,0.719,0.097,2.21,303.162,130.249,-27.588, , , , , , ,23.747,5.955,-109.358
 13:52:35.386,eb:33:2e:f9:57:b5, 2015-01-01 00:16:43.245,0.824,0.167,2.158,319.519,142.761,-36.743, , , , , , ,25.323,6.652,-109.221
 13:52:35.386,eb:33:2e:f9:57:b5, 2015-01-01 00:16:43.245,0.713,0.099,2.316,336.548,152.649,-46.753, , , , , , ,26.999,7.416,-109.083
 13:52:35.386,eb:33:2e:f9:57:b5, 2015-01-01 00:16:43.245,0.595,0.065,2.447,353.088,166.443,-57.251, , , , , , ,28.751,8.251,-108.94
 13:52:35.429,eb:33:2e:f9:57:b5, 2015-01-01 00:16:43.850,0.663,0.003,2.699,370.972,183.228,-64.758, , , , , , ,30.591,9.168,-108.77
 13:52:35.429,eb:33:2e:f9:57:b5, 2015-01-01 00:16:43.850,0.647,-0.1,2.914,391.296,196.655,-69.458, , , , , , ,32.547,10.162,-108.556
 13:52:35.429,eb:33:2e:f9:57:b5, 2015-01-01 00:16:43.850,0.553,0.135,2.973,410.889,211.243,-69.824, , , , , , ,34.612,11.206,-108.276
 13:52:35.429,eb:33:2e:f9:57:b5, 2015-01-01 00:16:43.850,0.464,-0.037,3.388,430.664,218.079,-68.237, , , , , , ,36.799,12.294,-107.924
 13:52:35.429,eb:33:2e:f9:57:b5, 2015-01-01 00:16:43.850,0.588,0.043,3.443,452.515,223.572,-65.979, , , , , , ,39.111,13.37,-107.485
 13:52:35.429,eb:33:2e:f9:57:b5, 2015-01-01 00:16:43.850,0.58,0.266,3.651,469.849,239.502,-70.801, , , , , , ,41.55,14.48,-106.985
 13:52:35.429,eb:33:2e:f9:57:b5, 2015-01-01 00:16:43.850,0.352,-0.079,3.8,482.422,255.676,-67.81, , , , , , ,44.099,15.628,-106.37
 13:52:35.429,eb:33:2e:f9:57:b5, 2015-01-01 00:16:43.850,0.429,-0.148,3.756,502.075,265.259,-65.125, , , , , , ,46.769,16.782,-105.639
 13:52:35.496,eb:33:2e:f9:57:b5, 2015-01-01 00:16:43.850,0.396,-0.253,3.598,523.499,259.827,-67.383, , , , , , ,49.581,17.913,-104.843
 13:52:35.496,eb:33:2e:f9:57:b5, 2015-01-01 00:16:43.850,0.25,-0.057,3.568,537.659,264.832,-71.472, , , , , , ,52.509,19.023,-103.991
 13:52:35.496,eb:33:2e:f9:57:b5, 2015-01-01 00:16:43.850,0.207,-0.185,3.418,537.903,275.452,-76.111, , , , , , ,55.514,20.116,-103.063
 13:52:35.496,eb:33:2e:f9:57:b5, 2015-01-01 00:16:43.850,0.146,-0.148,3.282,530.396,284.485,-70.557, , , , , , ,58.552,21.182,-102.019
 13:52:35.496,eb:33:2e:f9:57:b5, 2015-01-01 00:16:43.850,0.438,0.129,3.303,515.564,302.429,-74.707, , , , , , ,61.595,22.236,-100.838
 13:52:35.496,eb:33:2e:f9:57:b5, 2015-01-01 00:16:43.850,0.406,-0.099,3.443,492.371,334.595,-67.2, , , , , , ,64.644,23.28,-99.454
 13:52:35.496,eb:33:2e:f9:57:b5, 2015-01-01 00:16:43.850,0.546,-0.571,3.33,464.539,347.107,-55.603, , , , , , ,67.648,24.247,-97.872
 13:52:35.496,eb:33:2e:f9:57:b5, 2015-01-01 00:16:43.850,0.733,-0.658,2.568,421.326,337.463,-49.194, , , , , , ,70.543,25.104,-96.207
 13:52:35.498,eb:33:2e:f9:57:b5, 2015-01-01 00:16:43.850,0.825,-0.908,1.54,361.572,311.523,-47.058, , , , , , ,73.174,25.834,-94.587
 13:52:35.498,eb:33:2e:f9:57:b5, 2015-01-01 00:16:43.850,1.062,-1.481,0.92,295.776,274.353,-32.104, , , , , , ,75.443,26.411,-93.093
 13:52:35.498,eb:33:2e:f9:57:b5, 2015-01-01 00:16:43.850,1.329,-2.031,0.818,231.812,255.005,-6.714, , , , , , ,77.333,26.812,-91.703
 13:52:35.498,eb:33:2e:f9:57:b5, 2015-01-01 00:16:43.850,1.17,-1.856,1.098,204.163,265.564,10.62, , , , , , ,79.025,27.059,-90.275
 13:52:35.498,eb:33:2e:f9:57:b5, 2015-01-01 00:16:43.850,0.648,-1.221,1.755,236.633,262.146,-3.601, , , , , , ,80.81,27.263,-88.786
 13:52:35.498,eb:33:2e:f9:57:b5, 2015-01-01 00:16:43.850,0.384,-0.272,1.005,228.455,223.755,-32.959, , , , , , ,82.623,27.548,-87.457
 13:52:35.498,eb:33:2e:f9:57:b5, 2015-01-01 00:16:43.850,0.462,0.354,-0.673,142.151,188.721,-30.945, , , , , , ,84.012,27.834,-86.364
 13:52:35.498,eb:33:2e:f9:57:b5, 2015-01-01 00:16:43.850,0.745,-0.119,-0.664,63.293,147.522,-28.32, , , , , , ,84.902,28.054,-85.446
 13:52:35.564,eb:33:2e:f9:57:b5, 2015-01-01 00:16:43.850,1.15,-0.539,-0.553,5.859,96.313,-39.734, , , , , , ,85.347,28.279,-84.798
 13:52:35.564,eb:33:2e:f9:57:b5, 2015-01-01 00:16:43.850,1.169,-0.786,-0.748,-58.533,62.012,-43.396, , , , , , ,85.375,28.521,-84.402
 13:52:35.564,eb:33:2e:f9:57:b5, 2015-01-01 00:16:43.850,0.848,-1.009,-1.045,-123.779,53.04,-41.992, , , , , , ,85.007,28.757,-84.111
 13:52:35.564,eb:33:2e:f9:57:b5, 2015-01-01 00:16:43.850,0.748,-1.22,-1.042,-176.208,38.33,-39.307, , , , , , ,84.337,28.982,-83.881
 13:52:35.564,eb:33:2e:f9:57:b5, 2015-01-01 00:16:43.850,0.809,-1.144,-0.758,-215.637,19.287,-38.452, , , , , , ,83.397,29.185,-83.743
 13:52:35.564,eb:33:2e:f9:57:b5, 2015-01-01 00:16:43.850,0.78,-0.939,-0.323,-243.164,0.793,-42.786, , , , , , ,82.238,29.394,-83.727
 13:52:35.564,eb:33:2e:f9:57:b5, 2015-01-01 00:16:43.850,0.726,-0.834,0.024,-259.583,-18.616,-46.936, , , , , , ,80.903,29.608,-83.837
 13:52:35.564,eb:33:2e:f9:57:b5, 2015-01-01 00:16:43.850,0.713,-0.802,0.254,-267.151,-38.208,-50.415, , , , , , ,79.47,29.828,-84.056
 13:52:35.587,eb:33:2e:f9:57:b5, 2015-01-01 00:16:43.850,0.705,-0.802,0.382,-270.081,-54.321,-52.551, , , , , , ,77.959,30.037,-84.386
 13:52:35.588,eb:33:2e:f9:57:b5, 2015-01-01 00:16:43.850,0.708,-0.823,0.404,-271.729,-66.65,-53.284, , , , , , ,76.393,30.223,-84.803
 13:52:35.588,eb:33:2e:f9:57:b5, 2015-01-01 00:16:43.850,0.707,-0.858,0.398,-273.56,-75.623,-52.368, , , , , , ,74.767,30.388,-85.292
 13:52:35.588,eb:33:2e:f9:57:b5, 2015-01-01 00:16:43.850,0.672,-0.889,0.423,-275.818,-81.543,-50.11, , , , , , ,73.125,30.526,-85.82
 13:52:35.588,eb:33:2e:f9:57:b5, 2015-01-01 00:16:43.850,0.629,-0.903,0.492,-278.748,-85.571,-45.166, , , , , , ,71.455,30.624,-86.364
 13:52:35.588,eb:33:2e:f9:57:b5, 2015-01-01 00:16:43.850,0.57,-0.889,0.565,-282.043,-87.341,-39.734, , , , , , ,69.769,30.679,-86.918
 13:52:35.588,eb:33:2e:f9:57:b5, 2015-01-01 00:16:43.850,0.51,-0.862,0.617,-286.499,-88.745,-33.203, , , , , , ,68.044,30.685,-87.484
 13:52:35.588,eb:33:2e:f9:57:b5, 2015-01-01 00:16:43.850,0.471,-0.836,0.623,-292.48,-90.454,-25.757, , , , , , ,66.313,30.646,-88.033
 13:52:35.610,eb:33:2e:f9:57:b5, 2015-01-01 00:16:43.850,0.455,-0.812,0.572,-300.659,-93.994,-16.907, , , , , , ,64.556,30.547,-88.566
 13:52:35.610,eb:33:2e:f9:57:b5, 2015-01-01 00:16:43.850,0.462,-0.781,0.501,-311.462,-98.755,-8.301, , , , , , ,62.748,30.388,-89.099
 13:52:35.610,eb:33:2e:f9:57:b5, 2015-01-01 00:16:43.850,0.468,-0.761,0.411,-324.219,-106.995,0.061, , , , , , ,60.859,30.152,-89.648
 13:52:35.610,eb:33:2e:f9:57:b5, 2015-01-01 00:16:43.850,0.474,-0.74,0.32,-338.44,-117.249,8.423, , , , , , ,58.92,29.85,-90.198
 13:52:35.610,eb:33:2e:f9:57:b5, 2015-01-01 00:16:43.850,0.483,-0.722,0.258,-353.394,-130.859,16.357, , , , , , ,56.904,29.46,-90.764
 13:52:35.610,eb:33:2e:f9:57:b5, 2015-01-01 00:16:43.850,0.5,-0.702,0.247,-368.469,-146.973,22.766, , , , , , ,54.794,28.982,-91.368
 13:52:35.610,eb:33:2e:f9:57:b5, 2015-01-01 00:16:43.850,0.502,-0.689,0.274,-382.874,-165.527,29.053, , , , , , ,52.581,28.4,-92.016
 13:52:35.610,eb:33:2e:f9:57:b5, 2015-01-01 00:16:43.850,0.501,-0.683,0.359,-396.301,-184.448,34.668, , , , , , ,50.312,27.724,-92.681
 13:52:35.655,eb:33:2e:f9:57:b5, 2015-01-01 00:16:43.850,0.51,-0.687,0.489,-408.508,-201.538,39.612, , , , , , ,47.972,26.944,-93.373
 13:52:35.656,eb:33:2e:f9:57:b5, 2015-01-01 00:16:43.850,0.503,-0.698,0.649,-419.189,-215.759,44.861, , , , , , ,45.588,26.071,-94.065
 13:52:35.656,eb:33:2e:f9:57:b5, 2015-01-01 00:16:43.850,0.507,-0.7,0.827,-428.284,-226.257,49.194, , , , , , ,43.149,25.104,-94.752
 13:52:35.656,eb:33:2e:f9:57:b5, 2015-01-01 00:16:43.850,0.512,-0.694,1.01,-435.608,-233.215,53.589, , , , , , ,40.721,24.071,-95.389
 13:52:35.656,eb:33:2e:f9:57:b5, 2015-01-01 00:16:43.850,0.511,-0.66,1.199,-441.04,-236.389,56.03, , , , , , ,38.293,22.989,-95.971
 13:52:35.656,eb:33:2e:f9:57:b5, 2015-01-01 00:16:43.850,0.481,-0.607,1.37,-444.092,-236.572,57.19, , , , , , ,35.876,21.874,-96.498
 13:52:35.656,eb:33:2e:f9:57:b5, 2015-01-01 00:16:43.850,0.455,-0.528,1.492,-445.435,-234.131,56.885, , , , , , ,33.453,20.737,-96.976
 13:52:35.656,eb:33:2e:f9:57:b5, 2015-01-01 00:16:43.850,0.414,-0.436,1.613,-445.374,-230.225,55.664, , , , , , ,31.086,19.605,-97.383
 13:52:35.700,eb:33:2e:f9:57:b5, 2015-01-01 00:16:43.850,0.341,-0.329,1.713,-443.909,-225.891,52.917, , , , , , ,28.746,18.484,-97.734
 13:52:35.700,eb:33:2e:f9:57:b5, 2015-01-01 00:16:43.850,0.284,-0.233,1.773,-440.674,-221.924,48.34, , , , , , ,26.439,17.375,-98.042
 13:52:35.700,eb:33:2e:f9:57:b5, 2015-01-01 00:16:43.850,0.298,-0.17,1.847,-435.608,-219.604,42.908, , , , , , ,24.142,16.276,-98.333
 13:52:35.700,eb:33:2e:f9:57:b5, 2015-01-01 00:16:43.850,0.308,-0.126,1.972,-430.115,-217.224,36.804, , , , , , ,21.912,15.194,-98.586
 13:52:35.700,eb:33:2e:f9:57:b5, 2015-01-01 00:16:43.850,0.299,-0.102,2.093,-425.781,-212.891,27.954, , , , , , ,19.715,14.134,-98.828
 13:52:35.700,eb:33:2e:f9:57:b5, 2015-01-01 00:16:43.850,0.276,-0.114,2.147,-422.241,-209.473,19.104, , , , , , ,17.54,13.096,-99.064
 13:52:35.701,eb:33:2e:f9:57:b5, 2015-01-01 00:16:43.850,0.268,-0.135,2.164,-420.532,-206.238,8.667, , , , , , ,15.359,12.068,-99.311
 13:52:35.701,eb:33:2e:f9:57:b5, 2015-01-01 00:16:43.850,0.234,-0.169,2.136,-420.654,-205.566,-0.61, , , , , , ,13.206,11.069,-99.558
 13:52:35.745,eb:33:2e:f9:57:b5, 2015-01-01 00:16:44.205,0.204,-0.212,2.105,-422.546,-209.229,-10.681, , , , , , ,11.052,10.063,-99.811
 13:52:35.745,eb:33:2e:f9:57:b5, 2015-01-01 00:16:44.205,0.173,-0.252,2.124,-424.438,-213.257,-17.456, , , , , , ,8.888,9.036,-100.074
 13:52:35.745,eb:33:2e:f9:57:b5, 2015-01-01 00:16:44.205,0.123,-0.324,2.207,-427.002,-220.642,-23.621, , , , , , ,6.691,7.96,-100.338
 13:52:35.745,eb:33:2e:f9:57:b5, 2015-01-01 00:16:44.205,0.058,-0.377,2.349,-430.054,-228.455,-28.87, , , , , , ,4.515,6.85,-100.58
 13:52:35.745,eb:33:2e:f9:57:b5, 2015-01-01 00:16:44.205,-0.03,-0.406,2.506,-432.922,-236.145,-32.715, , , , , , ,2.329,5.696,-100.811
 13:52:35.745,eb:33:2e:f9:57:b5, 2015-01-01 00:16:44.205,-0.087,-0.406,2.726,-436.157,-245.605,-33.203, , , , , , ,0.137,4.493,-101.008
 13:52:35.745,eb:33:2e:f9:57:b5, 2015-01-01 00:16:44.205,-0.176,-0.376,2.897,-438.232,-251.831,-31.616, , , , , , ,-2.082,3.224,-101.151
 13:52:35.745,eb:33:2e:f9:57:b5, 2015-01-01 00:16:44.205,-0.252,-0.275,3.164,-441.101,-261.719,-25.879, , , , , , ,-4.285,1.934,-101.223
 13:52:35.812,eb:33:2e:f9:57:b5, 2015-01-01 00:16:44.205,-0.318,-0.109,3.388,-443.237,-267.517,-20.996, , , , , , ,-6.493,0.599,-101.217
 13:52:35.812,eb:33:2e:f9:57:b5, 2015-01-01 00:16:44.205,-0.332,0.127,3.588,-445.007,-270.691,-17.639, , , , , , ,-8.718,-0.742,-101.129
 13:52:35.813,eb:33:2e:f9:57:b5, 2015-01-01 00:16:44.205,-0.334,0.414,3.758,-445.801,-273.132,-13.428, , , , , , ,-10.975,-2.115,-100.975
 13:52:35.813,eb:33:2e:f9:57:b5, 2015-01-01 00:16:44.205,-0.312,0.739,3.906,-445.862,-272.583,-11.475, , , , , , ,-13.217,-3.461,-100.75
 13:52:35.813,eb:33:2e:f9:57:b5, 2015-01-01 00:16:44.205,-0.293,1.045,4.024,-444.214,-268.555,-10.254, , , , , , ,-15.463,-4.785,-100.464
 13:52:35.813,eb:33:2e:f9:57:b5, 2015-01-01 00:16:44.205,-0.28,1.32,4.101,-439.331,-262.268,-8.789, , , , , , ,-17.704,-6.064,-100.135
 13:52:35.813,eb:33:2e:f9:57:b5, 2015-01-01 00:16:44.205,-0.251,1.577,4.139,-430.542,-252.258,-8.362, , , , , , ,-19.94,-7.306,-99.756
 13:52:35.814,eb:33:2e:f9:57:b5, 2015-01-01 00:16:44.205,-0.005,1.752,4.115,-414.673,-239.319,-10.376, , , , , , ,-22.104,-8.465,-99.355
 13:52:35.814,eb:33:2e:f9:57:b5, 2015-01-01 00:16:44.205,-0.038,1.878,4.114,-391.724,-218.14,-21.24, , , , , , ,-24.17,-9.542,-98.987
 13:52:35.814,eb:33:2e:f9:57:b5, 2015-01-01 00:16:44.205,-0.234,2.226,3.635,-361.938,-213.562,-31.982, , , , , , ,-26.104,-10.569,-98.652
 13:52:35.814,eb:33:2e:f9:57:b5, 2015-01-01 00:16:44.205,-0.422,2.753,2.953,-323.853,-232.361,-48.523, , , , , , ,-27.878,-11.667,-98.328
 13:52:35.814,eb:33:2e:f9:57:b5, 2015-01-01 00:16:44.205,-0.733,3.357,2.352,-280.823,-269.775,-64.758, , , , , , ,-29.449,-12.92,-97.965
 13:52:35.814,eb:33:2e:f9:57:b5, 2015-01-01 00:16:44.205,-1.199,3.802,1.899,-236.145,-318.848,-76.416, , , , , , ,-30.822,-14.392,-97.52
 13:52:35.814,eb:33:2e:f9:57:b5, 2015-01-01 00:16:44.205,-1.751,3.943,1.682,-190.43,-367.432,-83.984, , , , , , ,-32.02,-16.089,-96.938
 13:52:35.814,eb:33:2e:f9:57:b5, 2015-01-01 00:16:44.205,-2.294,3.905,1.733,-144.287,-406.067,-81.604, , , , , , ,-33.058,-17.974,-96.196
 13:52:35.814,eb:33:2e:f9:57:b5, 2015-01-01 00:16:44.205,-2.66,3.98,2.115,-99.609,-419.434,-71.96, , , , , , ,-33.931,-19.924,-95.317
 13:52:35.857,eb:33:2e:f9:57:b5, 2015-01-01 00:16:44.205,-2.852,4.215,2.76,-59.692,-390.991,-59.814, , , , , , ,-34.64,-21.78,-94.389
 13:52:35.857,eb:33:2e:f9:57:b5, 2015-01-01 00:16:44.205,-2.906,4.438,3.406,-25.696,-323.486,-45.288, , , , , , ,-35.167,-23.379,-93.521
 13:52:35.857,eb:33:2e:f9:57:b5, 2015-01-01 00:16:44.205,-2.861,4.58,3.841,4.395,-232.3,-28.198, , , , , , ,-35.486,-24.582,-92.829
 13:52:35.857,eb:33:2e:f9:57:b5, 2015-01-01 00:16:44.205,-2.649,4.596,4.039,33.63,-131.531,-12.39, , , , , , ,-35.574,-25.34,-92.357
 13:52:35.857,eb:33:2e:f9:57:b5, 2015-01-01 00:16:44.205,-2.307,4.363,4.057,61.218,-29.358,-0.488, , , , , , ,-35.409,-25.637,-92.164
 13:52:35.857,eb:33:2e:f9:57:b5, 2015-01-01 00:16:44.205,-1.941,3.92,3.811,86.975,60.669,8.423, , , , , , ,-34.997,-25.516,-92.225
 13:52:35.857,eb:33:2e:f9:57:b5, 2015-01-01 00:16:44.205,-1.581,3.403,3.374,111.755,126.221,17.639, , , , , , ,-34.365,-25.054,-92.488
 13:52:35.857,eb:33:2e:f9:57:b5, 2015-01-01 00:16:44.205,-1.238,2.958,2.899,133.423,166.626,23.621, , , , , , ,-33.585,-24.362,-92.862
 13:52:35.925,eb:33:2e:f9:57:b5, 2015-01-01 00:16:44.205,-2.267,2.599,2.511,151.428,183.167,27.039, , , , , , ,-32.69,-23.544,-93.279
 13:52:35.925,eb:33:2e:f9:57:b5, 2015-01-01 00:16:44.205,3.624,-0.183,4.833,296.326,325.378,17.7, , , , , , ,-31.448,-22.363,-93.735
 13:52:35.925,eb:33:2e:f9:57:b5, 2015-01-01 00:16:44.205,-1.266,-4.869,4.927,315.552,236.572,46.875, , , , , , ,-29.454,-21.445,-94.828
 13:52:35.925,eb:33:2e:f9:57:b5, 2015-01-01 00:16:44.205,1.721,-2.125,-2.911,286.255,268.188,172.485, , , , , , ,-28.103,-19.836,-94.411
 13:52:35.925,eb:33:2e:f9:57:b5, 2015-01-01 00:16:44.205,1.032,-2.387,-0.199,312.622,192.322,17.395, , , , , , ,-26.543,-18.754,-94.724
 13:52:35.925,eb:33:2e:f9:57:b5, 2015-01-01 00:16:44.205,1.037,-3.331,-1.06,376.709,172.241,-105.835, , , , , , ,-24.593,-18.083,-95.361
 13:52:35.925,eb:33:2e:f9:57:b5, 2015-01-01 00:16:44.205,0.415,-2.058,1.036,426.697,188.904,-176.025, , , , , , ,-22.192,-17.534,-96.52
 13:52:35.925,eb:33:2e:f9:57:b5, 2015-01-01 00:16:44.205,0.641,-0.684,1.485,439.392,243.225,-231.262, , , , , , ,-19.578,-16.924,-97.932
 13:52:35.927,eb:33:2e:f9:57:b5, 2015-01-01 00:16:44.205,-0.23,0.038,2.315,421.204,310.547,-194.885, , , , , , ,-16.996,-15.837,-99.553
 13:52:35.927,eb:33:2e:f9:57:b5, 2015-01-01 00:16:44.205,0.058,0.623,1.687,399.841,348.938,-154.724, , , , , , ,-14.612,-14.502,-100.849
 13:52:35.927,eb:33:2e:f9:57:b5, 2015-01-01 00:16:44.205,-0.729,0.495,1.568,380.127,387.39,-80.261, , , , , , ,-12.42,-12.766,-101.86
 13:52:35.927,eb:33:2e:f9:57:b5, 2015-01-01 00:16:44.205,0.008,0.133,1.506,346.863,371.338,-67.871, , , , , , ,-10.453,-10.959,-102.579
 13:52:35.927,eb:33:2e:f9:57:b5, 2015-01-01 00:16:44.205,0.043,0.041,1.475,311.584,293.762,-71.655, , , , , , ,-8.718,-9.437,-103.206
 13:52:35.927,eb:33:2e:f9:57:b5, 2015-01-01 00:16:44.205,0.278,0.197,1.386,265.747,259.644,-62.012, , , , , , ,-7.202,-8.13,-103.749
 13:52:35.927,eb:33:2e:f9:57:b5, 2015-01-01 00:16:44.205,0.09,0.402,1.687,219.971,185.12,-18.494, , , , , , ,-5.966,-7.119,-104.041
 13:52:35.927,eb:33:2e:f9:57:b5, 2015-01-01 00:16:44.205,0.071,0.278,1.258,192.078,168.396,13.733, , , , , , ,-4.944,-6.224,-104.123
 13:52:36.016,eb:33:2e:f9:57:b5, 2015-01-01 00:16:44.205,-0.247,0.166,1.105,169.678,140.747,44.189, , , , , , ,-4.065,-5.477,-104.013
 13:52:36.016,eb:33:2e:f9:57:b5, 2015-01-01 00:16:44.205,-0.33,0.128,0.922,150.085,127.563,63.11, , , , , , ,-3.29,-4.796,-103.766
 13:52:36.016,eb:33:2e:f9:57:b5, 2015-01-01 00:16:44.205,-0.438,0.451,0.879,120.361,111.145,51.88, , , , , , ,-2.631,-4.18,-103.513
 13:52:36.016,eb:33:2e:f9:57:b5, 2015-01-01 00:16:44.205,-0.461,0.501,0.687,94.543,78.979,38.269, , , , , , ,-2.126,-3.719,-103.304
 13:52:36.016,eb:33:2e:f9:57:b5, 2015-01-01 00:16:44.205,-0.357,0.395,0.686,75.256,53.65,20.813, , , , , , ,-1.719,-3.395,-103.184
 13:52:36.016,eb:33:2e:f9:57:b5, 2015-01-01 00:16:44.205,-0.13,0.311,0.783,58.716,31.372,6.714, , , , , , ,-1.395,-3.203,-103.129
 13:52:36.016,eb:33:2e:f9:57:b5, 2015-01-01 00:16:44.205,-0.05,0.237,0.86,45.288,23.987,5.432, , , , , , ,-1.132,-3.06,-103.107
 13:52:36.016,eb:33:2e:f9:57:b5, 2015-01-01 00:16:44.205,-0.072,0.106,0.945,36.804,20.203,10.01, , , , , , ,-0.934,-2.944,-103.068
 13:52:36.038,eb:33:2e:f9:57:b5, 2015-01-01 00:16:44.205,-0.082,0.062,0.934,30.273,16.602,16.174, , , , , , ,-0.775,-2.851,-103.002
 13:52:36.038,eb:33:2e:f9:57:b5, 2015-01-01 00:16:44.205,-0.108,0.078,0.912,25.513,10.315,19.47, , , , , , ,-0.643,-2.785,-102.909
 13:52:36.038,eb:33:2e:f9:57:b5, 2015-01-01 00:16:44.205,-0.069,0.107,0.892,21.912,5.005,15.137, , , , , , ,-0.511,-2.741,-102.827
 13:52:36.038,eb:33:2e:f9:57:b5, 2015-01-01 00:16:44.205,-0.025,0.101,0.918,19.165,2.319,9.583, , , , , , ,-0.412,-2.725,-102.766
 13:52:36.038,eb:33:2e:f9:57:b5, 2015-01-01 00:16:44.205,-0.027,0.097,0.949,16.663,2.075,4.395, , , , , , ,-0.33,-2.708,-102.739
 13:52:36.038,eb:33:2e:f9:57:b5, 2015-01-01 00:16:44.205,0.048,0.08,0.97,14.893,0,1.526, , , , , , ,-0.253,-2.708,-102.722
 13:52:36.039,eb:33:2e:f9:57:b5, 2015-01-01 00:16:44.205,0.048,0.029,1.022,14.221,0.793,2.625, , , , , , ,-0.165,-2.697,-102.717
 13:52:36.039,eb:33:2e:f9:57:b5, 2015-01-01 00:16:44.205,0.047,0.031,1.022,13.794,1.282,3.235, , , , , , ,-0.093,-2.692,-102.7
 13:52:36.082,eb:33:2e:f9:57:b5, 2015-01-01 00:16:44.205,0.042,0.041,1.014,13.794,1.465,2.625, , , , , , ,-0.027,-2.686,-102.684
 13:52:36.082,eb:33:2e:f9:57:b5, 2015-01-01 00:16:44.205,0.059,0.029,1.024,14.832,1.099,1.16, , , , , , ,0.038,-2.675,-102.678
 13:52:36.082,eb:33:2e:f9:57:b5, 2015-01-01 00:16:44.205,0.09,0.027,1.042,15.991,1.343,-0.671, , , , , , ,0.132,-2.664,-102.678
 13:52:36.082,eb:33:2e:f9:57:b5, 2015-01-01 00:16:44.205,0.098,0.02,1.065,17.517,2.686,-1.282, , , , , , ,0.22,-2.653,-102.684
 13:52:36.082,eb:33:2e:f9:57:b5, 2015-01-01 00:16:44.205,0.109,0.025,1.066,18.677,4.944,-2.014, , , , , , ,0.308,-2.631,-102.695
 13:52:36.082,eb:33:2e:f9:57:b5, 2015-01-01 00:16:44.205,0.11,0.013,1.076,20.081,7.69,-2.563, , , , , , ,0.406,-2.598,-102.706
 13:52:36.082,eb:33:2e:f9:57:b5, 2015-01-01 00:16:44.205,0.08,0.019,1.069,20.874,10.864,-3.601, , , , , , ,0.527,-2.543,-102.722
 13:52:36.082,eb:33:2e:f9:57:b5, 2015-01-01 00:16:44.205,0.043,0.015,1.039,20.752,13.306,-3.967, , , , , , ,0.632,-2.477,-102.744
 13:52:36.084,eb:33:2e:f9:57:b5, 2015-01-01 00:16:44.565,0.034,0.014,1.009,19.775,14.465,-4.211, , , , , , ,0.736,-2.406,-102.766
 13:52:36.084,eb:33:2e:f9:57:b5, 2015-01-01 00:16:44.565,0.025,0.029,0.988,18.311,15.93,-3.235, , , , , , ,0.829,-2.329,-102.783
 13:52:36.084,eb:33:2e:f9:57:b5, 2015-01-01 00:16:44.565,0.039,0.024,0.991,17.151,17.273,-1.953, , , , , , ,0.934,-2.236,-102.794
 13:52:36.084,eb:33:2e:f9:57:b5, 2015-01-01 00:16:44.565,0.037,0.044,1.006,16.846,19.165,-0.671, , , , , , ,1.016,-2.142,-102.799
 13:52:36.084,eb:33:2e:f9:57:b5, 2015-01-01 00:16:44.565,-0.004,0.059,0.969,15.686,20.386,0.793, , , , , , ,1.099,-2.043,-102.799
 13:52:36.084,eb:33:2e:f9:57:b5, 2015-01-01 00:16:44.565,-0.001,0.061,0.959,14.587,20.63,1.343, , , , , , ,1.17,-1.945,-102.788
 13:52:36.084,eb:33:2e:f9:57:b5, 2015-01-01 00:16:44.565,-0.008,0.048,1.003,14.587,21.423,-0.061, , , , , , ,1.258,-1.829,-102.788
 13:52:36.084,eb:33:2e:f9:57:b5, 2015-01-01 00:16:44.565,-0.008,0.055,0.995,15.015,19.897,-0.244, , , , , , ,1.335,-1.725,-102.783
 13:52:36.217,eb:33:2e:f9:57:b5, 2015-01-01 00:16:44.565,0.013,0.061,0.962,14.038,19.104,0.061, , , , , , ,1.406,-1.631,-102.788
 13:52:36.217,eb:33:2e:f9:57:b5, 2015-01-01 00:16:44.565,0.006,0.053,0.974,13.489,17.883,1.709, , , , , , ,1.478,-1.538,-102.777
 13:52:36.217,eb:33:2e:f9:57:b5, 2015-01-01 00:16:44.565,0.037,0.06,0.957,12.756,17.029,1.709, , , , , , ,1.555,-1.445,-102.766
 13:52:36.217,eb:33:2e:f9:57:b5, 2015-01-01 00:16:44.565,0.013,0.066,0.986,13.855,14.648,-0.061, , , , , , ,1.62,-1.362,-102.761
 13:52:36.217,eb:33:2e:f9:57:b5, 2015-01-01 00:16:44.565,-0.027,0.055,0.941,12.695,14.282,2.38, , , , , , ,1.686,-1.28,-102.761
 13:52:36.217,eb:33:2e:f9:57:b5, 2015-01-01 00:16:44.565,0.008,0.063,0.969,11.597,14.587,2.625, , , , , , ,1.747,-1.208,-102.744
 13:52:36.217,eb:33:2e:f9:57:b5, 2015-01-01 00:16:44.565,0.023,0.051,1.025,11.902,15.747,2.258, , , , , , ,1.818,-1.126,-102.733
 13:52:36.217,eb:33:2e:f9:57:b5, 2015-01-01 00:16:44.565,0.033,0.06,0.995,12.085,16.418,2.747, , , , , , ,1.879,-1.049,-102.717
 13:52:36.219,eb:33:2e:f9:57:b5, 2015-01-01 00:16:44.565,0.042,0.069,1.034,12.207,19.287,1.587, , , , , , ,1.939,-0.956,-102.7
 13:52:36.219,eb:33:2e:f9:57:b5, 2015-01-01 00:16:44.565,0.037,0.054,1.085,13.123,22.217,-0.916, , , , , , ,2.005,-0.851,-102.7
 13:52:36.219,eb:33:2e:f9:57:b5, 2015-01-01 00:16:44.565,-0.021,0.052,1.054,13.184,25.085,-1.587, , , , , , ,2.082,-0.725,-102.7
 13:52:36.219,eb:33:2e:f9:57:b5, 2015-01-01 00:16:44.565,-0.033,0.045,0.994,13.245,25.452,-0.916, , , , , , ,2.148,-0.593,-102.706
 13:52:36.219,eb:33:2e:f9:57:b5, 2015-01-01 00:16:44.565,-0.029,0.043,1.005,13.733,24.17,-1.099, , , , , , ,2.219,-0.472,-102.706
 13:52:36.219,eb:33:2e:f9:57:b5, 2015-01-01 00:16:44.565,-0.02,0.051,0.973,13.55,22.217,-0.427, , , , , , ,2.285,-0.357,-102.706
 13:52:36.219,eb:33:2e:f9:57:b5, 2015-01-01 00:16:44.565,-0.014,0.073,0.939,12.695,20.813,-0.549, , , , , , ,2.368,-0.242,-102.706
 13:52:36.219,eb:33:2e:f9:57:b5, 2015-01-01 00:16:44.565,-0.034,0.06,0.998,13.367,18.921,-1.221, , , , , , ,2.428,-0.143,-102.706
 13:52:36.219,eb:33:2e:f9:57:b5, 2015-01-01 00:16:44.565,-0.096,0.035,0.998,14.587,15.625,0.977, , , , , , ,2.499,-0.055,-102.706
 13:52:36.219,eb:33:2e:f9:57:b5, 2015-01-01 00:16:44.565,-0.033,0.034,0.924,15.076,9.338,5.798, , , , , , ,2.576,0,-102.684
 13:52:36.219,eb:33:2e:f9:57:b5, 2015-01-01 00:16:44.565,0.063,0.061,1.007,15.259,8.667,4.517, , , , , , ,2.664,0.049,-102.651
 13:52:36.219,eb:33:2e:f9:57:b5, 2015-01-01 00:16:44.565,0.026,0.087,1.062,15.747,11.78,2.441, , , , , , ,2.741,0.099,-102.634
 13:52:36.219,eb:33:2e:f9:57:b5, 2015-01-01 00:16:44.565,0.034,0.086,1.019,15.808,13.733,1.221, , , , , , ,2.823,0.165,-102.623
 13:52:36.219,eb:33:2e:f9:57:b5, 2015-01-01 00:16:44.565,0.009,0.084,1.008,15.381,16.357,1.221, , , , , , ,2.9,0.242,-102.618
 13:52:36.220,eb:33:2e:f9:57:b5, 2015-01-01 00:16:44.565,-0.004,0.09,0.98,15.442,16.052,1.038, , , , , , ,2.988,0.33,-102.607
 13:52:36.220,eb:33:2e:f9:57:b5, 2015-01-01 00:16:44.565,-0.009,0.077,1.001,16.052,15.686,0.793, , , , , , ,3.071,0.406,-102.596
 13:52:36.308,eb:33:2e:f9:57:b5, 2015-01-01 00:16:44.565,-0.021,0.067,1.009,16.479,15.808,1.038, , , , , , ,3.153,0.489,-102.59
 13:52:36.308,eb:33:2e:f9:57:b5, 2015-01-01 00:16:44.565,-0.018,0.086,0.987,17.212,14.099,0.366, , , , , , ,3.235,0.566,-102.585
 13:52:36.308,eb:33:2e:f9:57:b5, 2015-01-01 00:16:44.565,-0.01,0.09,0.993,17.883,12.817,-0.427, , , , , , ,3.34,0.637,-102.579
 13:52:36.308,eb:33:2e:f9:57:b5, 2015-01-01 00:16:44.565,-0.008,0.086,0.993,18.25,12.573,-1.099, , , , , , ,3.428,0.698,-102.579
 13:52:36.308,eb:33:2e:f9:57:b5, 2015-01-01 00:16:44.565,0.002,0.086,0.992,18.921,11.719,-1.404, , , , , , ,3.521,0.764,-102.585
 13:52:36.308,eb:33:2e:f9:57:b5, 2015-01-01 00:16:44.565,-0.012,0.082,1.021,19.47,12.207,-1.526, , , , , , ,3.62,0.824,-102.59
 13:52:36.308,eb:33:2e:f9:57:b5, 2015-01-01 00:16:44.565,-0.011,0.078,1.027,21.118,11.475,-1.709, , , , , , ,3.735,0.89,-102.59
 13:52:36.308,eb:33:2e:f9:57:b5, 2015-01-01 00:16:44.565,0.001,0.077,1.057,23.315,10.925,-2.502, , , , , , ,3.845,0.945,-102.601
 13:52:36.311,eb:33:2e:f9:57:b5, 2015-01-01 00:16:44.565,0.029,0.098,1.042,24.902,10.803,-3.479, , , , , , ,3.966,1,-102.612
 13:52:36.311,eb:33:2e:f9:57:b5, 2015-01-01 00:16:44.565,0.045,0.113,1.023,26.184,10.864,-4.333, , , , , , ,4.098,1.055,-102.629
 13:52:36.311,eb:33:2e:f9:57:b5, 2015-01-01 00:16:44.565,0.027,0.098,1.104,28.076,13.489,-6.104, , , , , , ,4.246,1.126,-102.651
 13:52:36.311,eb:33:2e:f9:57:b5, 2015-01-01 00:16:44.565,0.012,0.084,1.118,31.555,14.343,-7.629, , , , , , ,4.395,1.203,-102.684
 13:52:36.311,eb:33:2e:f9:57:b5, 2015-01-01 00:16:44.565,-0.008,0.081,1.116,35.339,13.733,-9.094, , , , , , ,4.565,1.274,-102.722
 13:52:36.311,eb:33:2e:f9:57:b5, 2015-01-01 00:16:44.565,-0.052,0.085,1.101,38.086,13.977,-10.559, , , , , , ,4.746,1.346,-102.766
 13:52:36.312,eb:33:2e:f9:57:b5, 2015-01-01 00:16:44.565,-0.09,0.083,1.043,39.429,13.611,-10.559, , , , , , ,4.955,1.428,-102.81
 13:52:36.312,eb:33:2e:f9:57:b5, 2015-01-01 00:16:44.565,-0.107,0.071,1.026,40.894,11.597,-9.827, , , , , , ,5.153,1.494,-102.854
 13:52:36.351,eb:33:2e:f9:57:b5, 2015-01-01 00:16:44.565,-0.08,0.062,1.085,44.373,7.996,-10.254, , , , , , ,5.367,1.549,-102.903
 13:52:36.351,eb:33:2e:f9:57:b5, 2015-01-01 00:16:44.565,-0.061,0.061,1.098,47.241,6.714,-9.949, , , , , , ,5.598,1.588,-102.953
 13:52:36.351,eb:33:2e:f9:57:b5, 2015-01-01 00:16:44.565,-0.031,0.091,1.089,50.293,4.517,-10.132, , , , , , ,5.856,1.626,-102.997
 13:52:36.351,eb:33:2e:f9:57:b5, 2015-01-01 00:16:44.565,-0.031,0.089,1.138,53.955,3.479,-10.437, , , , , , ,6.114,1.653,-103.046
 13:52:36.351,eb:33:2e:f9:57:b5, 2015-01-01 00:16:44.565,-0.025,0.076,1.187,58.35,3.601,-10.925, , , , , , ,6.4,1.675,-103.101
 13:52:36.351,eb:33:2e:f9:57:b5, 2015-01-01 00:16:44.565,-0.003,0.075,1.225,64.026,2.686,-11.353, , , , , , ,6.702,1.697,-103.156
 13:52:36.351,eb:33:2e:f9:57:b5, 2015-01-01 00:16:44.565,0.026,0.075,1.303,71.045,2.075,-12.451, , , , , , ,7.059,1.725,-103.211
 13:52:36.352,eb:33:2e:f9:57:b5, 2015-01-01 00:16:44.565,0.021,0.053,1.408,78.43,4.089,-13.184, , , , , , ,7.432,1.747,-103.277
 13:52:36.377,eb:33:2e:f9:57:b5, 2015-01-01 00:16:44.565,0.012,0.051,1.435,85.022,9.216,-12.878, , , , , , ,7.844,1.791,-103.337
 13:52:36.377,eb:33:2e:f9:57:b5, 2015-01-01 00:16:44.565,0.013,0.051,1.454,92.468,13.062,-12.573, , , , , , ,8.289,1.862,-103.392
 13:52:36.377,eb:33:2e:f9:57:b5, 2015-01-01 00:16:44.565,0.012,0.072,1.427,99.915,15.869,-13, , , , , , ,8.784,1.95,-103.447
 13:52:36.377,eb:33:2e:f9:57:b5, 2015-01-01 00:16:44.565,0,0.121,1.383,107.056,17.09,-14.404, , , , , , ,9.3,2.043,-103.502
 13:52:36.377,eb:33:2e:f9:57:b5, 2015-01-01 00:16:44.565,-0.049,0.125,1.315,113.953,16.602,-14.526, , , , , , ,9.855,2.142,-103.557
 13:52:36.377,eb:33:2e:f9:57:b5, 2015-01-01 00:16:44.565,-0.108,0.112,1.288,119.812,15.93,-13, , , , , , ,10.443,2.236,-103.612
 13:52:36.377,eb:33:2e:f9:57:b5, 2015-01-01 00:16:44.565,-0.138,0.067,1.337,125.061,16.418,-10.071, , , , , , ,11.069,2.329,-103.651
 13:52:36.377,eb:33:2e:f9:57:b5, 2015-01-01 00:16:44.565,-0.076,0.025,1.438,133.362,16.357,-7.141, , , , , , ,11.717,2.417,-103.678
 13:52:36.489,eb:33:2e:f9:57:b5, 2015-01-01 00:16:44.565,0.051,0.053,1.575,143.005,17.517,-6.714, , , , , , ,12.409,2.51,-103.694
 13:52:36.489,eb:33:2e:f9:57:b5, 2015-01-01 00:16:44.565,0.108,0.087,1.621,151.306,21.606,-6.897, , , , , , ,13.151,2.615,-103.705
 13:52:36.489,eb:33:2e:f9:57:b5, 2015-01-01 00:16:44.565,0.109,0.086,1.747,158.63,30.334,-7.019, , , , , , ,13.942,2.758,-103.711
 13:52:36.489,eb:33:2e:f9:57:b5, 2015-01-01 00:16:44.565,0.107,0.075,1.845,169.739,37.781,-9.094, , , , , , ,14.766,2.939,-103.705
 13:52:36.489,eb:33:2e:f9:57:b5, 2015-01-01 00:16:44.565,0.016,0.065,1.813,182.983,41.077,-10.376, , , , , , ,15.65,3.148,-103.7
 13:52:36.489,eb:33:2e:f9:57:b5, 2015-01-01 00:16:44.565,0.003,0.003,1.869,196.289,44.8,-10.925, , , , , , ,16.606,3.367,-103.694
 13:52:36.489,eb:33:2e:f9:57:b5, 2015-01-01 00:16:44.565,0.1,-0.075,2.075,211.853,52.429,-11.719, , , , , , ,17.644,3.631,-103.672
 13:52:36.489,eb:33:2e:f9:57:b5, 2015-01-01 00:16:44.565,0.222,-0.056,2.107,227.783,59.326,-12.512, , , , , , ,18.754,3.917,-103.645
 13:52:36.489,eb:33:2e:f9:57:b5, 2015-01-01 00:16:44.565,0.333,0.008,2.105,244.202,66.162,-16.907, , , , , , ,19.946,4.246,-103.612
 13:52:36.489,eb:33:2e:f9:57:b5, 2015-01-01 00:16:44.565,0.384,0.042,2.129,260.986,74.707,-19.714, , , , , , ,21.22,4.609,-103.574
 13:52:36.489,eb:33:2e:f9:57:b5, 2015-01-01 00:16:44.565,0.393,-0.041,2.258,281.799,91.064,-22.278, , , , , , ,22.599,5.043,-103.513
 13:52:36.489,eb:33:2e:f9:57:b5, 2015-01-01 00:16:44.565,0.464,-0.112,2.445,300.781,107.239,-24.475, , , , , , ,24.071,5.559,-103.425
 13:52:36.490,eb:33:2e:f9:57:b5, 2015-01-01 00:16:44.565,0.603,-0.104,2.612,322.266,124.756,-27.832, , , , , , ,25.653,6.141,-103.293
 13:52:36.490,eb:33:2e:f9:57:b5, 2015-01-01 00:16:44.565,0.729,-0.137,2.657,343.933,143.372,-32.166, , , , , , ,27.345,6.817,-103.129
 13:52:36.490,eb:33:2e:f9:57:b5, 2015-01-01 00:16:44.565,0.826,-0.154,2.639,365.967,161.438,-39.124, , , , , , ,29.163,7.592,-102.914
 13:52:36.490,eb:33:2e:f9:57:b5, 2015-01-01 00:16:44.565,0.862,-0.165,2.71,388.123,178.162,-47.302, , , , , , ,31.097,8.443,-102.673
 13:52:36.511,eb:33:2e:f9:57:b5, 2015-01-01 00:16:44.565,0.919,-0.186,2.938,409.973,197.266,-53.65, , , , , , ,33.146,9.382,-102.382
 13:52:36.511,eb:33:2e:f9:57:b5, 2015-01-01 00:16:44.565,0.911,-0.288,3.289,432.617,219.36,-58.533, , , , , , ,35.327,10.415,-102.019
 13:52:36.511,eb:33:2e:f9:57:b5, 2015-01-01 00:16:44.565,0.748,-0.135,3.504,456.97,238.831,-57.007, , , , , , ,37.65,11.519,-101.558
 13:52:36.511,eb:33:2e:f9:57:b5, 2015-01-01 00:16:44.565,0.896,-0.083,3.832,487.854,257.751,-64.148, , , , , , ,40.144,12.684,-100.992
 13:52:36.511,eb:33:2e:f9:57:b5, 2015-01-01 00:16:44.565,0.561,-0.358,3.739,515.503,262.085,-64.758, , , , , , ,42.819,13.887,-100.349
 13:52:36.511,eb:33:2e:f9:57:b5, 2015-01-01 00:16:44.565,0.106,0.199,3.89,533.936,279.236,-67.078, , , , , , ,45.637,15.079,-99.613
 13:52:36.511,eb:33:2e:f9:57:b5, 2015-01-01 00:16:44.565,-0.223,-0.463,4.039,546.936,291.565,-65.979, , , , , , ,48.582,16.309,-98.756
 13:52:36.511,eb:33:2e:f9:57:b5, 2015-01-01 00:16:44.565,-0.087,-0.276,3.451,565.369,286.255,-59.753, , , , , , ,51.647,17.468,-97.8
 13:52:36.554,eb:33:2e:f9:57:b5, 2015-01-01 00:16:44.565,0.124,-0.262,3.283,587.646,266.968,-55.237, , , , , , ,54.838,18.523,-96.817
 13:52:36.554,eb:33:2e:f9:57:b5, 2015-01-01 00:16:44.565,-0.108,0.201,3.251,603.76,262.146,-60.852, , , , , , ,58.156,19.49,-95.828
 13:52:36.554,eb:33:2e:f9:57:b5, 2015-01-01 00:16:44.565,-0.035,-0.453,3.033,600.403,247.498,-52.307, , , , , , ,61.507,20.358,-94.823
 13:52:36.554,eb:33:2e:f9:57:b5, 2015-01-01 00:16:44.565,-0.097,-0.423,2.676,583.13,238.77,-38.269, , , , , , ,64.83,21.094,-93.774
 13:52:36.554,eb:33:2e:f9:57:b5, 2015-01-01 00:16:44.565,0.223,-0.198,2.633,572.144,222.9,-28.32, , , , , , ,68.104,21.703,-92.686
 13:52:36.554,eb:33:2e:f9:57:b5, 2015-01-01 00:16:44.565,0.471,0.736,2.394,543.396,210.327,-47.485, , , , , , ,71.263,22.264,-91.675
 13:52:36.554,eb:33:2e:f9:57:b5, 2015-01-01 00:16:44.565,0.478,0.434,2.423,499.39,199.829,-68.604, , , , , , ,74.213,22.852,-90.725
 13:52:36.554,eb:33:2e:f9:57:b5, 2015-01-01 00:16:44.565,0.522,-0.474,1.883,430.847,191.467,-76.233, , , , , , ,76.877,23.456,-89.802
 13:52:36.598,eb:33:2e:f9:57:b5, 2015-01-01 00:16:45.035,0.588,-1.311,1.089,341.675,188.599,-61.279, , , , , , ,79.146,23.989,-88.868
 13:52:36.598,eb:33:2e:f9:57:b5, 2015-01-01 00:16:45.035,0.842,-1.619,0.896,252.014,203.735,-30.701, , , , , , ,80.997,24.362,-87.852
 13:52:36.598,eb:33:2e:f9:57:b5, 2015-01-01 00:16:45.035,0.563,-2.202,1.565,211.182,253.845,8.972, , , , , , ,82.595,24.565,-86.6
 13:52:36.598,eb:33:2e:f9:57:b5, 2015-01-01 00:16:45.035,0.204,-1.71,2.143,248.23,275.085,8.911, , , , , , ,84.37,24.653,-85.111
 13:52:36.598,eb:33:2e:f9:57:b5, 2015-01-01 00:16:45.035,0.32,-0.324,0.758,243.958,234.68,-11.963, , , , , , ,86.221,24.78,-83.716
 13:52:36.598,eb:33:2e:f9:57:b5, 2015-01-01 00:16:45.035,0.464,0.57,-0.863,148.438,192.139,-5.371, , , , , , ,87.649,24.89,-82.59
 13:52:36.598,eb:33:2e:f9:57:b5, 2015-01-01 00:16:45.035,0.578,0.117,-0.675,61.462,148.682,-6.531, , , , , , ,88.484,24.939,-81.672
 13:52:36.598,eb:33:2e:f9:57:b5, 2015-01-01 00:16:45.035,0.868,-0.455,-0.522,-2.625,92.59,-16.846, , , , , , ,88.863,25.021,-81.041
 13:52:36.621,eb:33:2e:f9:57:b5, 2015-01-01 00:16:45.035,0.862,-0.635,-0.582,-71.899,54.749,-20.874, , , , , , ,88.802,25.126,-80.662
 13:52:36.621,eb:33:2e:f9:57:b5, 2015-01-01 00:16:45.035,0.678,-0.839,-0.55,-138.062,39.856,-23.315, , , , , , ,88.341,25.247,-80.414
 13:52:36.621,eb:33:2e:f9:57:b5, 2015-01-01 00:16:45.035,0.579,-1.007,-0.529,-192.078,26.855,-26.55, , , , , , ,87.539,25.378,-80.25
 13:52:36.621,eb:33:2e:f9:57:b5, 2015-01-01 00:16:45.035,0.593,-1.033,-0.5,-235.352,11.658,-26.672, , , , , , ,86.484,25.521,-80.156
 13:52:36.621,eb:33:2e:f9:57:b5, 2015-01-01 00:16:45.035,0.626,-0.916,-0.318,-268.555,-2.625,-27.893, , , , , , ,85.21,25.659,-80.145
 13:52:36.621,eb:33:2e:f9:57:b5, 2015-01-01 00:16:45.035,0.602,-0.816,0.015,-293.396,-19.47,-31.433, , , , , , ,83.749,25.801,-80.233
 13:52:36.621,eb:33:2e:f9:57:b5, 2015-01-01 00:16:45.035,0.583,-0.782,0.199,-303.223,-35.095,-35.339, , , , , , ,82.15,25.95,-80.42
 13:52:36.621,eb:33:2e:f9:57:b5, 2015-01-01 00:16:45.035,0.589,-0.782,0.291,-305.908,-51.941,-38.879, , , , , , ,80.502,26.098,-80.7
 13:52:36.668,eb:33:2e:f9:57:b5, 2015-01-01 00:16:45.035,0.595,-0.793,0.326,-305.115,-68.237,-41.931, , , , , , ,78.805,26.246,-81.074
 13:52:36.668,eb:33:2e:f9:57:b5, 2015-01-01 00:16:45.035,0.6,-0.808,0.314,-302.917,-83.801,-44.25, , , , , , ,77.075,26.378,-81.552
 13:52:36.668,eb:33:2e:f9:57:b5, 2015-01-01 00:16:45.035,0.599,-0.822,0.292,-300.903,-96.985,-46.448, , , , , , ,75.3,26.488,-82.117
 13:52:36.668,eb:33:2e:f9:57:b5, 2015-01-01 00:16:45.035,0.572,-0.83,0.273,-300.537,-108.521,-46.997, , , , , , ,73.515,26.576,-82.749
 13:52:36.668,eb:33:2e:f9:57:b5, 2015-01-01 00:16:45.035,0.525,-0.824,0.277,-302.979,-118.408,-46.631, , , , , , ,71.697,26.631,-83.436
 13:52:36.668,eb:33:2e:f9:57:b5, 2015-01-01 00:16:45.035,0.483,-0.812,0.292,-308.594,-126.648,-45.105, , , , , , ,69.835,26.642,-84.172
 13:52:36.668,eb:33:2e:f9:57:b5, 2015-01-01 00:16:45.035,0.435,-0.803,0.313,-316.895,-132.996,-42.297, , , , , , ,67.906,26.609,-84.952
 13:52:36.668,eb:33:2e:f9:57:b5, 2015-01-01 00:16:45.035,0.409,-0.8,0.329,-327.759,-137.207,-38.269, , , , , , ,65.934,26.526,-85.737
 13:52:36.690,eb:33:2e:f9:57:b5, 2015-01-01 00:16:45.035,0.38,-0.807,0.347,-340.027,-140.137,-32.349, , , , , , ,63.907,26.389,-86.517
 13:52:36.690,eb:33:2e:f9:57:b5, 2015-01-01 00:16:45.035,0.371,-0.811,0.375,-353.027,-142.273,-26.428, , , , , , ,61.826,26.197,-87.292
 13:52:36.690,eb:33:2e:f9:57:b5, 2015-01-01 00:16:45.035,0.354,-0.804,0.41,-365.356,-144.226,-20.02, , , , , , ,59.667,25.944,-88.061
 13:52:36.690,eb:33:2e:f9:57:b5, 2015-01-01 00:16:45.035,0.348,-0.791,0.439,-376.221,-147.827,-13.428, , , , , , ,57.486,25.631,-88.802
 13:52:36.690,eb:33:2e:f9:57:b5, 2015-01-01 00:16:45.035,0.342,-0.77,0.472,-384.888,-153.992,-6.775, , , , , , ,55.267,25.252,-89.528
 13:52:36.690,eb:33:2e:f9:57:b5, 2015-01-01 00:16:45.035,0.351,-0.736,0.529,-391.663,-161.255,-1.343, , , , , , ,53.015,24.802,-90.242
 13:52:36.690,eb:33:2e:f9:57:b5, 2015-01-01 00:16:45.035,0.348,-0.715,0.588,-396.484,-169.617,4.089, , , , , , ,50.724,24.274,-90.967
 13:52:36.690,eb:33:2e:f9:57:b5, 2015-01-01 00:16:45.035,0.34,-0.693,0.655,-400.208,-178.528,9.705, , , , , , ,48.444,23.681,-91.67
 13:52:36.804,eb:33:2e:f9:57:b5, 2015-01-01 00:16:45.035,0.332,-0.669,0.731,-403.564,-186.707,14.954, , , , , , ,46.159,23.011,-92.357
 13:52:36.804,eb:33:2e:f9:57:b5, 2015-01-01 00:16:45.035,0.327,-0.656,0.814,-406.982,-193.848,20.386, , , , , , ,43.879,22.275,-93.016
 13:52:36.804,eb:33:2e:f9:57:b5, 2015-01-01 00:16:45.035,0.333,-0.659,0.9,-410.461,-200.928,25.574, , , , , , ,41.572,21.456,-93.658
 13:52:36.804,eb:33:2e:f9:57:b5, 2015-01-01 00:16:45.035,0.346,-0.636,0.978,-414.185,-206.848,30.029, , , , , , ,39.298,20.588,-94.252
 13:52:36.804,eb:33:2e:f9:57:b5, 2015-01-01 00:16:45.035,0.355,-0.592,1.027,-418.091,-212.402,33.936, , , , , , ,37.024,19.66,-94.807
 13:52:36.804,eb:33:2e:f9:57:b5, 2015-01-01 00:16:45.035,0.372,-0.529,1.082,-422.241,-216.736,35.034, , , , , , ,34.75,18.688,-95.328
 13:52:36.804,eb:33:2e:f9:57:b5, 2015-01-01 00:16:45.035,0.36,-0.478,1.123,-425.415,-222.473,36.133, , , , , , ,32.454,17.661,-95.823
 13:52:36.804,eb:33:2e:f9:57:b5, 2015-01-01 00:16:45.035,0.362,-0.43,1.166,-427.063,-229.004,35.217, , , , , , ,30.185,16.606,-96.279
 13:52:36.804,eb:33:2e:f9:57:b5, 2015-01-01 00:16:45.035,0.415,-0.364,1.246,-427.49,-234.741,31.799, , , , , , ,27.922,15.507,-96.713
 13:52:36.804,eb:33:2e:f9:57:b5, 2015-01-01 00:16:45.035,0.457,-0.283,1.398,-426.025,-240.54,27.344, , , , , , ,25.681,14.376,-97.136
 13:52:36.804,eb:33:2e:f9:57:b5, 2015-01-01 00:16:45.035,0.47,-0.212,1.566,-423.584,-244.08,20.569, , , , , , ,23.434,13.217,-97.553
 13:52:36.804,eb:33:2e:f9:57:b5, 2015-01-01 00:16:45.035,0.467,-0.159,1.725,-420.288,-245.056,11.353, , , , , , ,21.237,12.052,-97.96
 13:52:36.804,eb:33:2e:f9:57:b5, 2015-01-01 00:16:45.035,0.443,-0.133,1.854,-416.382,-245.85,1.404, , , , , , ,19.067,10.893,-98.361
 13:52:36.804,eb:33:2e:f9:57:b5, 2015-01-01 00:16:45.035,0.402,-0.118,1.944,-412.476,-247.375,-8.972, , , , , , ,16.924,9.728,-98.773
 13:52:36.804,eb:33:2e:f9:57:b5, 2015-01-01 00:16:45.035,0.366,-0.105,2.011,-410.095,-248.535,-20.142, , , , , , ,14.777,8.542,-99.201
 13:52:36.805,eb:33:2e:f9:57:b5, 2015-01-01 00:16:45.035,0.321,-0.119,2.066,-409.973,-248.962,-31.555, , , , , , ,12.667,7.366,-99.635
 13:52:36.825,eb:33:2e:f9:57:b5, 2015-01-01 00:16:45.035,0.252,-0.185,2.127,-412.781,-252.136,-39.856, , , , , , ,10.558,6.174,-100.069
 13:52:36.825,eb:33:2e:f9:57:b5, 2015-01-01 00:16:45.035,0.164,-0.25,2.214,-417.725,-253.662,-44.739, , , , , , ,8.438,4.96,-100.492
 13:52:36.825,eb:33:2e:f9:57:b5, 2015-01-01 00:16:45.035,0.07,-0.317,2.316,-424.683,-254.944,-46.814, , , , , , ,6.273,3.713,-100.893
 13:52:36.825,eb:33:2e:f9:57:b5, 2015-01-01 00:16:45.035,-0.021,-0.399,2.447,-432.556,-256.775,-43.335, , , , , , ,4.109,2.461,-101.234
 13:52:36.825,eb:33:2e:f9:57:b5, 2015-01-01 00:16:45.035,-0.093,-0.47,2.646,-440.918,-257.202,-35.828, , , , , , ,1.912,1.187,-101.497
 13:52:36.825,eb:33:2e:f9:57:b5, 2015-01-01 00:16:45.035,-0.158,-0.522,2.903,-448.547,-255.798,-23.621, , , , , , ,-0.313,-0.088,-101.662
 13:52:36.825,eb:33:2e:f9:57:b5, 2015-01-01 00:16:45.035,-0.229,-0.513,3.201,-454.651,-251.587,-7.385, , , , , , ,-2.598,-1.373,-101.7
 13:52:36.826,eb:33:2e:f9:57:b5, 2015-01-01 00:16:45.035,-0.288,-0.389,3.493,-458.801,-243.958,10.193, , , , , , ,-4.889,-2.604,-101.607
 13:52:36.869,eb:33:2e:f9:57:b5, 2015-01-01 00:16:45.035,-0.337,-0.153,3.745,-459.656,-234.192,27.1, , , , , , ,-7.202,-3.774,-101.382
 13:52:36.869,eb:33:2e:f9:57:b5, 2015-01-01 00:16:45.035,-0.318,0.183,3.912,-457.336,-224.854,38.147, , , , , , ,-9.52,-4.883,-101.047
 13:52:36.869,eb:33:2e:f9:57:b5, 2015-01-01 00:16:45.035,-0.308,0.571,3.966,-451.721,-220.337,46.265, , , , , , ,-11.854,-5.944,-100.624
 13:52:36.869,eb:33:2e:f9:57:b5, 2015-01-01 00:16:45.035,-0.292,0.968,3.924,-443.665,-217.468,49.988, , , , , , ,-14.145,-6.954,-100.14
 13:52:36.869,eb:33:2e:f9:57:b5, 2015-01-01 00:16:45.035,-0.3,1.319,3.831,-432.739,-217.102,53.894, , , , , , ,-16.403,-7.932,-99.597
 13:52:36.869,eb:33:2e:f9:57:b5, 2015-01-01 00:16:45.035,-0.338,1.626,3.767,-418.945,-215.393,54.993, , , , , , ,-18.616,-8.882,-99.009
 13:52:36.869,eb:33:2e:f9:57:b5, 2015-01-01 00:16:45.035,-0.362,1.87,3.75,-400.757,-213.623,53.894, , , , , , ,-20.781,-9.811,-98.377
 13:52:36.869,eb:33:2e:f9:57:b5, 2015-01-01 00:16:45.035,-0.12,1.972,3.728,-374.939,-208.984,47.546, , , , , , ,-22.824,-10.695,-97.74
 13:52:36.894,eb:33:2e:f9:57:b5, 2015-01-01 00:16:45.035,-0.262,2.058,3.75,-345.398,-194.824,33.691, , , , , , ,-24.725,-11.536,-97.152
 13:52:36.894,eb:33:2e:f9:57:b5, 2015-01-01 00:16:45.035,-0.411,2.409,3.215,-314.026,-197.937,19.775, , , , , , ,-26.472,-12.354,-96.603
 13:52:36.894,eb:33:2e:f9:57:b5, 2015-01-01 00:16:45.035,-0.532,2.951,2.665,-280.823,-214.783,-0.916, , , , , , ,-28.076,-13.271,-96.075
 13:52:36.894,eb:33:2e:f9:57:b5, 2015-01-01 00:16:45.035,-0.819,3.569,2.254,-247.864,-242.737,-18.921, , , , , , ,-29.504,-14.31,-95.559
 13:52:36.894,eb:33:2e:f9:57:b5, 2015-01-01 00:16:45.035,-1.27,4.047,1.968,-214.172,-275.574,-36.499, , , , , , ,-30.784,-15.518,-95.01
 13:52:36.894,eb:33:2e:f9:57:b5, 2015-01-01 00:16:45.035,-1.776,4.289,1.805,-177.795,-307.129,-51.086, , , , , , ,-31.915,-16.897,-94.417
 13:52:36.894,eb:33:2e:f9:57:b5, 2015-01-01 00:16:45.035,-2.128,4.343,1.854,-138.062,-329.651,-62.439, , , , , , ,-32.888,-18.419,-93.768
 13:52:36.894,eb:33:2e:f9:57:b5, 2015-01-01 00:16:45.035,-2.396,4.36,2.14,-99.182,-330.994,-68.909, , , , , , ,-33.679,-19.99,-93.098
 13:52:36.938,eb:33:2e:f9:57:b5, 2015-01-01 00:16:45.035,-2.571,4.431,2.521,-64.819,-309.387,-69.824, , , , , , ,-34.299,-21.511,-92.455
 13:52:36.938,eb:33:2e:f9:57:b5, 2015-01-01 00:16:45.035,-2.743,4.535,3.055,-35.522,-262.207,-65.979, , , , , , ,-34.744,-22.874,-91.895
 13:52:36.938,eb:33:2e:f9:57:b5, 2015-01-01 00:16:45.035,-2.846,4.53,3.678,-8.789,-186.584,-59.937, , , , , , ,-34.997,-23.95,-91.494
 13:52:36.938,eb:33:2e:f9:57:b5, 2015-01-01 00:16:45.035,-2.759,4.349,4.192,14.404,-78.125,-53.711, , , , , , ,-35.024,-24.62,-91.357
 13:52:36.938,eb:33:2e:f9:57:b5, 2015-01-01 00:16:45.035,-2.819,3.958,4.324,32.471,47.729,-46.021, , , , , , ,-34.81,-24.774,-91.577
 13:52:36.938,eb:33:2e:f9:57:b5, 2015-01-01 00:16:45.035,0.783,3.1,5.228,149.902,280.762,-86.731, , , , , , ,-34.151,-24.241,-92.258
 13:52:36.938,eb:33:2e:f9:57:b5, 2015-01-01 00:16:45.035,-0.917,-0.933,8.445,240.845,298.706,-139.343, , , , , , ,-32.267,-23.28,-94.312
 13:52:36.938,eb:33:2e:f9:57:b5, 2015-01-01 00:16:45.035,2.58,-0.899,-1.094,269.409,313.599,-46.57, , , , , , ,-30.531,-22.05,-95.411
 13:52:36.981,eb:33:2e:f9:57:b5, 2015-01-01 00:16:45.410,2.163,-1.676,-0.171,276.367,322.083,-91.797, , , , , , ,-28.696,-20.929,-96.751
 13:52:36.981,eb:33:2e:f9:57:b5, 2015-01-01 00:16:45.410,1.397,-1.772,0.062,327.026,319.031,-135.986, , , , , , ,-26.719,-19.715,-98.042
 13:52:36.981,eb:33:2e:f9:57:b5, 2015-01-01 00:16:45.410,1.332,-1.562,0.771,359.07,367.493,-197.144, , , , , , ,-24.412,-18.512,-99.723
 13:52:36.981,eb:33:2e:f9:57:b5, 2015-01-01 00:16:45.410,0.414,-0.968,1.471,361.084,411.865,-198.669, , , , , , ,-22.044,-17.095,-101.519
 13:52:36.981,eb:33:2e:f9:57:b5, 2015-01-01 00:16:45.410,-0.149,-0.407,1.524,349.487,397.522,-157.837, , , , , , ,-19.814,-15.485,-103.151
 13:52:36.981,eb:33:2e:f9:57:b5, 2015-01-01 00:16:45.410,-0.237,-0.151,1.201,330.505,378.296,-119.812, , , , , , ,-17.792,-13.892,-104.469
 13:52:36.981,eb:33:2e:f9:57:b5, 2015-01-01 00:16:45.410,-0.579,-0.036,0.95,322.51,373.474,-52.612, , , , , , ,-15.936,-12.2,-105.397
 13:52:36.981,eb:33:2e:f9:57:b5, 2015-01-01 00:16:45.410,-0.617,0.083,1.086,303.223,374.207,-19.714, , , , , , ,-14.244,-10.437,-106.051
 13:52:37.118,eb:33:2e:f9:57:b5, 2015-01-01 00:16:45.410,-0.622,-0.08,1.277,275.33,308.655,5.066, , , , , , ,-12.744,-8.789,-106.474
 13:52:37.118,eb:33:2e:f9:57:b5, 2015-01-01 00:16:45.410,-0.801,-0.12,1.108,245.605,234.253,11.414, , , , , , ,-11.426,-7.487,-106.716
 13:52:37.118,eb:33:2e:f9:57:b5, 2015-01-01 00:16:45.410,-0.498,-0.102,0.914,230.713,167.969,3.357, , , , , , ,-10.217,-6.531,-106.848
 13:52:37.118,eb:33:2e:f9:57:b5, 2015-01-01 00:16:45.410,-0.226,0.069,1.098,221.191,136.353,-24.658, , , , , , ,-9.075,-5.817,-107.056
 13:52:37.118,eb:33:2e:f9:57:b5, 2015-01-01 00:16:45.410,0.015,0.097,1.08,217.346,127.563,-35.583, , , , , , ,-7.954,-5.202,-107.309
 13:52:37.118,eb:33:2e:f9:57:b5, 2015-01-01 00:16:45.410,0.35,0.12,1.37,209.534,124.817,-35.217, , , , , , ,-6.866,-4.592,-107.573
 13:52:37.118,eb:33:2e:f9:57:b5, 2015-01-01 00:16:45.410,0.247,0.144,1.279,196.655,130.188,-34.18, , , , , , ,-5.828,-3.972,-107.814
 13:52:37.118,eb:33:2e:f9:57:b5, 2015-01-01 00:16:45.410,0.092,0.116,1.091,184.998,122.925,-33.508, , , , , , ,-4.861,-3.356,-108.04
 13:52:37.119,eb:33:2e:f9:57:b5, 2015-01-01 00:16:45.410,-0.099,0.239,1.062,161.377,104.675,-26.611, , , , , , ,-3.994,-2.796,-108.237
 13:52:37.119,eb:33:2e:f9:57:b5, 2015-01-01 00:16:45.410,-0.17,0.445,0.91,130.127,91.797,-14.465, , , , , , ,-3.274,-2.329,-108.364
 13:52:37.119,eb:33:2e:f9:57:b5, 2015-01-01 00:16:45.410,-0.317,0.347,0.896,100.22,67.81,0.305, , , , , , ,-2.692,-1.917,-108.424
 13:52:37.119,eb:33:2e:f9:57:b5, 2015-01-01 00:16:45.410,-0.186,0.512,0.841,65.552,53.528,8.179, , , , , , ,-2.302,-1.631,-108.402
 13:52:37.119,eb:33:2e:f9:57:b5, 2015-01-01 00:16:45.410,-0.213,0.209,0.855,48.096,36.682,18.494, , , , , , ,-2.032,-1.417,-108.342
 13:52:37.119,eb:33:2e:f9:57:b5, 2015-01-01 00:16:45.410,-0.209,0.089,0.889,38.269,25.452,23.987, , , , , , ,-1.829,-1.263,-108.232
 13:52:37.119,eb:33:2e:f9:57:b5, 2015-01-01 00:16:45.410,-0.142,0.085,0.884,32.593,18.005,24.963, , , , , , ,-1.642,-1.148,-108.111
 13:52:37.119,eb:33:2e:f9:57:b5, 2015-01-01 00:16:45.410,-0.053,0.063,0.918,30.64,12.146,21.667, , , , , , ,-1.489,-1.071,-107.996
 13:52:37.206,eb:33:2e:f9:57:b5, 2015-01-01 00:16:45.410,-0.009,0.049,0.961,30.457,9.705,15.076, , , , , , ,-1.34,-1.016,-107.913
 13:52:37.206,eb:33:2e:f9:57:b5, 2015-01-01 00:16:45.410,-0.027,0.066,0.998,29.236,8.728,8.362, , , , , , ,-1.192,-0.967,-107.858
 13:52:37.206,eb:33:2e:f9:57:b5, 2015-01-01 00:16:45.410,-0.006,0.091,0.972,25.085,5.737,5.31, , , , , , ,-1.044,-0.923,-107.825
 13:52:37.207,eb:33:2e:f9:57:b5, 2015-01-01 00:16:45.410,-0.049,0.081,1,20.813,3.601,3.601, , , , , , ,-0.928,-0.901,-107.809
 13:52:37.207,eb:33:2e:f9:57:b5, 2015-01-01 00:16:45.410,-0.083,0.073,0.969,17.212,1.099,2.502, , , , , , ,-0.835,-0.884,-107.792
 13:52:37.207,eb:33:2e:f9:57:b5, 2015-01-01 00:16:45.410,-0.019,0.062,0.965,14.587,-0.732,-0.061, , , , , , ,-0.758,-0.89,-107.792
 13:52:37.207,eb:33:2e:f9:57:b5, 2015-01-01 00:16:45.410,-0.013,0.016,0.987,14.038,-0.854,1.404, , , , , , ,-0.676,-0.884,-107.787
 13:52:37.207,eb:33:2e:f9:57:b5, 2015-01-01 00:16:45.410,-0.004,-0.004,1.006,14.099,-0.854,4.028, , , , , , ,-0.604,-0.884,-107.776
 13:52:37.210,eb:33:2e:f9:57:b5, 2015-01-01 00:16:45.410,-0.018,-0.007,1.004,14.221,-1.587,7.385, , , , , , ,-0.533,-0.895,-107.743
 13:52:37.210,eb:33:2e:f9:57:b5, 2015-01-01 00:16:45.410,-0.024,0.013,0.997,13.855,-2.869,10.01, , , , , , ,-0.467,-0.901,-107.699
 13:52:37.210,eb:33:2e:f9:57:b5, 2015-01-01 00:16:45.410,-0.017,0.019,0.999,13.672,-4.211,10.193, , , , , , ,-0.385,-0.912,-107.65
 13:52:37.210,eb:33:2e:f9:57:b5, 2015-01-01 00:16:45.410,0.004,0,1.004,14.465,-5.798,10.742, , , , , , ,-0.313,-0.939,-107.595
 13:52:37.210,eb:33:2e:f9:57:b5, 2015-01-01 00:16:45.410,0.011,-0.001,1.017,15.442,-6.47,11.169, , , , , , ,-0.236,-0.972,-107.54
 13:52:37.210,eb:33:2e:f9:57:b5, 2015-01-01 00:16:45.410,-0.029,0,1.009,15.991,-6.958,12.268, , , , , , ,-0.159,-1.005,-107.479
 13:52:37.210,eb:33:2e:f9:57:b5, 2015-01-01 00:16:45.410,-0.031,-0.006,0.989,16.479,-10.254,15.503, , , , , , ,-0.066,-1.038,-107.413
 13:52:37.210,eb:33:2e:f9:57:b5, 2015-01-01 00:16:45.410,-0.016,0.033,0.985,15.93,-11.536,15.747, , , , , , ,0.005,-1.093,-107.331
 13:52:37.210,eb:33:2e:f9:57:b5, 2015-01-01 00:16:45.410,0.01,0.038,0.993,15.442,-12.573,15.32, , , , , , ,0.082,-1.154,-107.254
 13:52:37.211,eb:33:2e:f9:57:b5, 2015-01-01 00:16:45.410,0.043,0.042,1.009,15.015,-11.963,14.404, , , , , , ,0.159,-1.219,-107.183
 13:52:37.211,eb:33:2e:f9:57:b5, 2015-01-01 00:16:45.410,0.061,0.041,1.031,14.771,-10.254,13.062, , , , , , ,0.247,-1.263,-107.117
 13:52:37.211,eb:33:2e:f9:57:b5, 2015-01-01 00:16:45.410,0.079,0.042,1.03,14.343,-7.751,12.573, , , , , , ,0.319,-1.307,-107.051
 13:52:37.211,eb:33:2e:f9:57:b5, 2015-01-01 00:16:45.410,0.069,0.074,1.039,13.245,-3.418,9.888, , , , , , ,0.385,-1.335,-106.996
 13:52:37.211,eb:33:2e:f9:57:b5, 2015-01-01 00:16:45.410,0.06,0.067,1.018,12.146,0,8.118, , , , , , ,0.445,-1.34,-106.952
 13:52:37.211,eb:33:2e:f9:57:b5, 2015-01-01 00:16:45.410,0.058,0.05,1.03,11.658,2.991,7.507, , , , , , ,0.516,-1.324,-106.913
 13:52:37.211,eb:33:2e:f9:57:b5, 2015-01-01 00:16:45.410,0.05,0.039,1.05,12.329,5.981,6.47, , , , , , ,0.577,-1.302,-106.88
 13:52:37.213,eb:33:2e:f9:57:b5, 2015-01-01 00:16:45.410,0.054,0.015,1.081,14.954,7.507,5.676, , , , , , ,0.648,-1.263,-106.853
 13:52:37.213,eb:33:2e:f9:57:b5, 2015-01-01 00:16:45.410,0.077,0.02,1.062,16.418,9.338,4.944, , , , , , ,0.725,-1.225,-106.826
 13:52:37.213,eb:33:2e:f9:57:b5, 2015-01-01 00:16:45.410,0.064,0.062,1.036,16.785,12.268,4.272, , , , , , ,0.824,-1.159,-106.804
 13:52:37.213,eb:33:2e:f9:57:b5, 2015-01-01 00:16:45.410,0.057,0.066,1.037,16.418,16.541,2.014, , , , , , ,0.906,-1.088,-106.787
 13:52:37.213,eb:33:2e:f9:57:b5, 2015-01-01 00:16:45.410,0.025,0.065,1.037,16.113,20.264,-0.061, , , , , , ,0.989,-0.989,-106.782
 13:52:37.213,eb:33:2e:f9:57:b5, 2015-01-01 00:16:45.410,-0.013,0.071,0.976,14.771,21.912,0.244, , , , , , ,1.066,-0.884,-106.782
 13:52:37.213,eb:33:2e:f9:57:b5, 2015-01-01 00:16:45.410,-0.037,0.055,0.959,13.977,21.362,1.099, , , , , , ,1.148,-0.764,-106.776
 13:52:37.213,eb:33:2e:f9:57:b5, 2015-01-01 00:16:45.410,-0.051,0.03,0.997,14.832,20.081,2.502, , , , , , ,1.219,-0.659,-106.765
 13:52:37.275,eb:33:2e:f9:57:b5, 2015-01-01 00:16:45.410,-0.041,0.018,0.976,16.052,15.991,4.944, , , , , , ,1.296,-0.571,-106.743
 13:52:37.275,eb:33:2e:f9:57:b5, 2015-01-01 00:16:45.410,-0.065,0.051,0.954,15.442,14.709,6.47, , , , , , ,1.379,-0.5,-106.71
 13:52:37.275,eb:33:2e:f9:57:b5, 2015-01-01 00:16:45.410,-0.053,0.037,0.973,14.709,14.404,7.385, , , , , , ,1.467,-0.417,-106.672
 13:52:37.275,eb:33:2e:f9:57:b5, 2015-01-01 00:16:45.410,-0.031,0.02,1.012,15.503,12.451,7.507, , , , , , ,1.538,-0.352,-106.639
 13:52:37.275,eb:33:2e:f9:57:b5, 2015-01-01 00:16:45.410,-0.03,0.046,0.952,15.32,10.193,8.179, , , , , , ,1.615,-0.297,-106.595
 13:52:37.275,eb:33:2e:f9:57:b5, 2015-01-01 00:16:45.410,-0.031,0.05,0.961,15.137,7.568,8.179, , , , , , ,1.692,-0.253,-106.556
 13:52:37.275,eb:33:2e:f9:57:b5, 2015-01-01 00:16:45.410,-0.022,0.052,0.964,14.587,5.798,8.423, , , , , , ,1.78,-0.214,-106.512
 13:52:37.275,eb:33:2e:f9:57:b5, 2015-01-01 00:16:45.410,0.006,0.062,0.965,14.282,3.235,7.935, , , , , , ,1.851,-0.192,-106.469
 13:52:37.297,eb:33:2e:f9:57:b5, 2015-01-01 00:16:45.410,0.027,0.076,0.993,14.709,2.747,4.089, , , , , , ,1.923,-0.181,-106.441
 13:52:37.297,eb:33:2e:f9:57:b5, 2015-01-01 00:16:45.410,-0.068,0.045,1.057,15.808,2.747,4.272, , , , , , ,2.005,-0.165,-106.425
 13:52:37.297,eb:33:2e:f9:57:b5, 2015-01-01 00:16:45.410,-0.062,0.048,0.891,14.343,0.183,10.742, , , , , , ,2.093,-0.154,-106.381
 13:52:37.297,eb:33:2e:f9:57:b5, 2015-01-01 00:16:45.410,0.037,0.07,0.992,14.587,-1.404,9.094, , , , , , ,2.159,-0.159,-106.326
 13:52:37.297,eb:33:2e:f9:57:b5, 2015-01-01 00:16:45.410,0.062,0.051,1.067,16.968,-1.831,8.362, , , , , , ,2.241,-0.17,-106.287
 13:52:37.297,eb:33:2e:f9:57:b5, 2015-01-01 00:16:45.410,0.07,0.075,1.046,16.418,3.54,5.859, , , , , , ,2.324,-0.165,-106.254
 13:52:37.297,eb:33:2e:f9:57:b5, 2015-01-01 00:16:45.410,0.062,0.118,0.965,14.343,7.385,3.418, , , , , , ,2.417,-0.132,-106.227
 13:52:37.297,eb:33:2e:f9:57:b5, 2015-01-01 00:16:45.410,0,0.109,0.971,12.085,10.559,1.465, , , , , , ,2.483,-0.082,-106.216
 13:52:37.341,eb:33:2e:f9:57:b5, 2015-01-01 00:16:45.410,-0.007,0.073,0.955,10.925,11.047,2.991, , , , , , ,2.538,-0.027,-106.205
 13:52:37.341,eb:33:2e:f9:57:b5, 2015-01-01 00:16:45.410,0.001,0.049,1.033,12.268,10.62,3.235, , , , , , ,2.598,0.016,-106.183
 13:52:37.341,eb:33:2e:f9:57:b5, 2015-01-01 00:16:45.410,0.003,0.044,1.064,14.404,10.864,2.808, , , , , , ,2.675,0.082,-106.166
 13:52:37.341,eb:33:2e:f9:57:b5, 2015-01-01 00:16:45.410,0.009,0.066,1.008,15.076,11.536,2.747, , , , , , ,2.752,0.137,-106.15
 13:52:37.341,eb:33:2e:f9:57:b5, 2015-01-01 00:16:45.410,0.019,0.084,0.975,14.343,12.329,2.625, , , , , , ,2.823,0.198,-106.133
 13:52:37.341,eb:33:2e:f9:57:b5, 2015-01-01 00:16:45.410,0.018,0.088,0.986,13.733,13.611,2.258, , , , , , ,2.895,0.258,-106.122
 13:52:37.343,eb:33:2e:f9:57:b5, 2015-01-01 00:16:45.410,0.003,0.082,1.005,14.038,14.404,2.136, , , , , , ,2.977,0.341,-106.106
 13:52:37.343,eb:33:2e:f9:57:b5, 2015-01-01 00:16:45.410,-0.019,0.066,1.032,15.076,14.832,1.953, , , , , , ,3.049,0.412,-106.095
 13:52:37.386,eb:33:2e:f9:57:b5, 2015-01-01 00:16:45.815,-0.036,0.06,1.036,16.724,14.404,1.709, , , , , , ,3.131,0.489,-106.078
 13:52:37.386,eb:33:2e:f9:57:b5, 2015-01-01 00:16:45.815,-0.033,0.062,1.014,18.005,13.245,1.953, , , , , , ,3.219,0.555,-106.068
 13:52:37.386,eb:33:2e:f9:57:b5, 2015-01-01 00:16:45.815,-0.027,0.065,1.013,18.921,12.329,1.892, , , , , , ,3.323,0.626,-106.057
 13:52:37.387,eb:33:2e:f9:57:b5, 2015-01-01 00:16:45.815,-0.027,0.077,1.023,20.264,11.047,1.465, , , , , , ,3.422,0.681,-106.04
 13:52:37.387,eb:33:2e:f9:57:b5, 2015-01-01 00:16:45.815,-0.012,0.081,1.018,21.912,8.972,0.854, , , , , , ,3.532,0.731,-106.035
 13:52:37.387,eb:33:2e:f9:57:b5, 2015-01-01 00:16:45.815,-0.011,0.072,1.056,23.743,8.301,0.183, , , , , , ,3.647,0.775,-106.029
 13:52:37.387,eb:33:2e:f9:57:b5, 2015-01-01 00:16:45.815,-0.017,0.074,1.082,25.757,8.301,-0.732, , , , , , ,3.785,0.824,-106.029
 13:52:37.387,eb:33:2e:f9:57:b5, 2015-01-01 00:16:45.815,-0.037,0.064,1.086,28.625,7.385,-1.16, , , , , , ,3.922,0.862,-106.029
 13:52:37.455,eb:33:2e:f9:57:b5, 2015-01-01 00:16:45.815,-0.073,0.046,1.117,32.104,5.981,-1.77, , , , , , ,4.076,0.895,-106.04
 13:52:37.455,eb:33:2e:f9:57:b5, 2015-01-01 00:16:45.815,-0.057,0.038,1.114,36.072,3.662,-2.197, , , , , , ,4.246,0.923,-106.046
 13:52:37.455,eb:33:2e:f9:57:b5, 2015-01-01 00:16:45.815,-0.051,0.043,1.125,40.344,0.732,-2.686, , , , , , ,4.455,0.939,-106.057
 13:52:37.455,eb:33:2e:f9:57:b5, 2015-01-01 00:16:45.815,-0.036,0.058,1.114,44.006,-1.404,-3.906, , , , , , ,4.664,0.939,-106.078
 13:52:37.455,eb:33:2e:f9:57:b5, 2015-01-01 00:16:45.815,-0.031,0.062,1.096,46.692,-2.441,-4.028, , , , , , ,4.894,0.928,-106.1
 13:52:37.455,eb:33:2e:f9:57:b5, 2015-01-01 00:16:45.815,-0.053,0.06,1.128,49.988,-2.93,-3.967, , , , , , ,5.136,0.917,-106.122
 13:52:37.455,eb:33:2e:f9:57:b5, 2015-01-01 00:16:45.815,-0.055,0.054,1.133,54.26,-3.906,-4.395, , , , , , ,5.411,0.912,-106.144
 13:52:37.455,eb:33:2e:f9:57:b5, 2015-01-01 00:16:45.815,-0.033,0.058,1.19,59.753,-5.859,-5.493, , , , , , ,5.696,0.89,-106.172
 13:52:37.455,eb:33:2e:f9:57:b5, 2015-01-01 00:16:45.815,0.009,0.069,1.226,65.918,-7.568,-7.507, , , , , , ,6.015,0.857,-106.21
 13:52:37.455,eb:33:2e:f9:57:b5, 2015-01-01 00:16:45.815,0.038,0.082,1.209,71.472,-8.057,-8.179, , , , , , ,6.361,0.824,-106.254
 13:52:37.455,eb:33:2e:f9:57:b5, 2015-01-01 00:16:45.815,0.045,0.087,1.261,77.454,-7.324,-9.338, , , , , , ,6.746,0.797,-106.304
 13:52:37.455,eb:33:2e:f9:57:b5, 2015-01-01 00:16:45.815,0.045,0.084,1.34,84.534,-6.531,-10.803, , , , , , ,7.152,0.769,-106.359
 13:52:37.455,eb:33:2e:f9:57:b5, 2015-01-01 00:16:45.815,0.04,0.082,1.375,92.59,-5.249,-13.428, , , , , , ,7.597,0.747,-106.425
 13:52:37.456,eb:33:2e:f9:57:b5, 2015-01-01 00:16:45.815,0.047,0.071,1.371,99.915,-3.357,-15.625, , , , , , ,8.086,0.736,-106.501
 13:52:37.456,eb:33:2e:f9:57:b5, 2015-01-01 00:16:45.815,-0.024,0.076,1.338,106.628,-1.526,-16.541, , , , , , ,8.613,0.747,-106.584
 13:52:37.456,eb:33:2e:f9:57:b5, 2015-01-01 00:16:45.815,-0.058,0.077,1.312,111.938,-1.343,-17.944, , , , , , ,9.163,0.753,-106.666
 13:52:37.499,eb:33:2e:f9:57:b5, 2015-01-01 00:16:45.815,-0.146,0.052,1.268,118.225,-2.869,-16.113, , , , , , ,9.739,0.758,-106.754
 13:52:37.499,eb:33:2e:f9:57:b5, 2015-01-01 00:16:45.815,-0.131,0.035,1.269,125.732,-6.714,-15.137, , , , , , ,10.349,0.742,-106.837
 13:52:37.499,eb:33:2e:f9:57:b5, 2015-01-01 00:16:45.815,-0.06,-0.01,1.362,134.216,-8.179,-12.207, , , , , , ,11.014,0.725,-106.908
 13:52:37.499,eb:33:2e:f9:57:b5, 2015-01-01 00:16:45.815,0.049,0.002,1.578,146.79,-6.958,-11.475, , , , , , ,11.722,0.698,-106.974
 13:52:37.499,eb:33:2e:f9:57:b5, 2015-01-01 00:16:45.815,0.134,0.048,1.667,160.583,-7.263,-14.771, , , , , , ,12.497,0.681,-107.045
 13:52:37.499,eb:33:2e:f9:57:b5, 2015-01-01 00:16:45.815,0.121,0.076,1.704,175.781,-7.08,-19.226, , , , , , ,13.343,0.665,-107.139
 13:52:37.499,eb:33:2e:f9:57:b5, 2015-01-01 00:16:45.815,0.062,0.048,1.764,191.772,-5.859,-23.621, , , , , , ,14.277,0.665,-107.254
 13:52:37.499,eb:33:2e:f9:57:b5, 2015-01-01 00:16:45.815,0.099,0.006,1.862,209.29,-4.639,-27.832, , , , , , ,15.287,0.676,-107.386
 13:52:37.611,eb:33:2e:f9:57:b5, 2015-01-01 00:16:45.815,0.129,-0.043,1.975,226.929,-0.061,-31.494, , , , , , ,16.386,0.709,-107.534
 13:52:37.611,eb:33:2e:f9:57:b5, 2015-01-01 00:16:45.815,0.176,-0.034,2.02,243.347,6.042,-34.607, , , , , , ,17.567,0.775,-107.688
 13:52:37.611,eb:33:2e:f9:57:b5, 2015-01-01 00:16:45.815,0.207,-0.04,2.048,261.108,12.512,-37.72, , , , , , ,18.847,0.884,-107.847
 13:52:37.611,eb:33:2e:f9:57:b5, 2015-01-01 00:16:45.815,0.181,-0.062,2.143,279.053,20.935,-39.612, , , , , , ,20.198,1.033,-108.001
 13:52:37.611,eb:33:2e:f9:57:b5, 2015-01-01 00:16:45.815,0.219,-0.12,2.222,295.776,33.569,-41.443, , , , , , ,21.643,1.236,-108.138
 13:52:37.611,eb:33:2e:f9:57:b5, 2015-01-01 00:16:45.815,0.285,-0.165,2.388,311.707,51.331,-42.542, , , , , , ,23.17,1.522,-108.248
 13:52:37.611,eb:33:2e:f9:57:b5, 2015-01-01 00:16:45.815,0.387,-0.157,2.464,328.735,70.435,-43.518, , , , , , ,24.785,1.901,-108.32
 13:52:37.611,eb:33:2e:f9:57:b5, 2015-01-01 00:16:45.815,0.525,-0.114,2.535,346.008,92.407,-46.021, , , , , , ,26.477,2.373,-108.342
 13:52:37.613,eb:33:2e:f9:57:b5, 2015-01-01 00:16:45.815,0.684,-0.137,2.737,364.624,113.098,-46.936, , , , , , ,28.262,2.944,-108.309
 13:52:37.613,eb:33:2e:f9:57:b5, 2015-01-01 00:16:45.815,0.824,-0.121,2.915,384.949,129.089,-47.485, , , , , , ,30.152,3.598,-108.215
 13:52:37.613,eb:33:2e:f9:57:b5, 2015-01-01 00:16:45.815,0.839,0.026,3.191,410.706,152.954,-53.589, , , , , , ,32.168,4.351,-108.062
 13:52:37.613,eb:33:2e:f9:57:b5, 2015-01-01 00:16:45.815,0.803,-0.079,3.414,435.242,182.8,-56.335, , , , , , ,34.316,5.213,-107.825
 13:52:37.613,eb:33:2e:f9:57:b5, 2015-01-01 00:16:45.815,0.92,-0.145,3.522,456.482,212.036,-55.237, , , , , , ,36.595,6.191,-107.463
 13:52:37.613,eb:33:2e:f9:57:b5, 2015-01-01 00:16:45.815,1.037,0.019,3.507,480.896,230.713,-57.19, , , , , , ,39.001,7.245,-106.996
 13:52:37.614,eb:33:2e:f9:57:b5, 2015-01-01 00:16:45.815,0.757,-0.041,3.708,500.549,244.202,-61.829, , , , , , ,41.545,8.361,-106.447
 13:52:37.614,eb:33:2e:f9:57:b5, 2015-01-01 00:16:45.815,0.584,-0.192,3.589,516.296,253.113,-56.458, , , , , , ,44.193,9.47,-105.809
 13:52:37.616,eb:33:2e:f9:57:b5, 2015-01-01 00:16:45.815,0.54,-0.227,3.724,531.799,263.55,-58.96, , , , , , ,46.95,10.58,-105.073
 13:52:37.616,eb:33:2e:f9:57:b5, 2015-01-01 00:16:45.815,0.579,-0.317,3.759,541.443,278.625,-59.387, , , , , , ,49.801,11.706,-104.238
 13:52:37.616,eb:33:2e:f9:57:b5, 2015-01-01 00:16:45.815,0.893,-0.345,3.581,554.749,290.894,-48.462, , , , , , ,52.751,12.805,-103.271
 13:52:37.617,eb:33:2e:f9:57:b5, 2015-01-01 00:16:45.815,0.833,-0.434,3.647,559.937,304.016,-37.72, , , , , , ,55.794,13.848,-102.162
 13:52:37.617,eb:33:2e:f9:57:b5, 2015-01-01 00:16:45.815,1.015,0.22,3.362,561.707,318.481,-45.166, , , , , , ,58.914,14.859,-100.909
 13:52:37.617,eb:33:2e:f9:57:b5, 2015-01-01 00:16:45.815,0.988,0.177,3.313,553.65,339.05,-57.312, , , , , , ,62.062,15.908,-99.553
 13:52:37.617,eb:33:2e:f9:57:b5, 2015-01-01 00:16:45.815,0.805,-0.321,3.429,536.987,366.821,-73.914, , , , , , ,65.198,16.996,-98.047
 13:52:37.617,eb:33:2e:f9:57:b5, 2015-01-01 00:16:45.815,0.473,-0.958,2.944,502.625,396.79,-69.763, , , , , , ,68.297,18.1,-96.35
 13:52:37.657,eb:33:2e:f9:57:b5, 2015-01-01 00:16:45.815,0.397,-0.38,2.606,483.521,411.987,-45.654, , , , , , ,71.356,19.067,-94.417
 13:52:37.657,eb:33:2e:f9:57:b5, 2015-01-01 00:16:45.815,0.78,-0.335,2.531,478.516,386.475,-37.781, , , , , , ,74.416,19.847,-92.45
 13:52:37.657,eb:33:2e:f9:57:b5, 2015-01-01 00:16:45.815,1.162,-0.674,2.003,463.684,356.873,-31.372, , , , , , ,77.393,20.462,-90.599
 13:52:37.657,eb:33:2e:f9:57:b5, 2015-01-01 00:16:45.815,1.439,-1.321,0.904,418.335,304.932,-22.156, , , , , , ,80.184,20.907,-88.912
 13:52:37.657,eb:33:2e:f9:57:b5, 2015-01-01 00:16:45.815,1.499,-1.331,0.147,348.694,275.208,-8.606, , , , , , ,82.606,21.193,-87.407
 13:52:37.657,eb:33:2e:f9:57:b5, 2015-01-01 00:16:45.815,1.597,-1.678,0.074,297.546,256.226,14.099, , , , , , ,84.694,21.302,-86.001
 13:52:37.657,eb:33:2e:f9:57:b5, 2015-01-01 00:16:45.815,1.138,-1.439,0.371,295.166,240.479,9.888, , , , , , ,86.611,21.313,-84.677
 13:52:37.657,eb:33:2e:f9:57:b5, 2015-01-01 00:16:45.815,0.806,-0.495,0.167,299.194,206.909,-20.508, , , , , , ,88.55,21.407,-83.485
 13:52:37.702,eb:33:2e:f9:57:b5, 2015-01-01 00:16:45.815,0.581,0.669,-1.325,230.713,142.822,-37.476, , , , , , ,90.203,21.577,-82.573
 13:52:37.702,eb:33:2e:f9:57:b5, 2015-01-01 00:16:45.815,0.504,0.411,-1.407,134.094,80.444,-36.682, , , , , , ,91.269,21.758,-82.002
 13:52:37.702,eb:33:2e:f9:57:b5, 2015-01-01 00:16:45.815,0.692,-0.243,-0.828,62.256,16.357,-46.448, , , , , , ,91.785,21.962,-81.777
 13:52:37.702,eb:33:2e:f9:57:b5, 2015-01-01 00:16:45.815,0.782,-0.448,-0.821,-12.39,-36.255,-48.34, , , , , , ,91.846,22.209,-81.859
 13:52:37.702,eb:33:2e:f9:57:b5, 2015-01-01 00:16:45.815,0.749,-0.686,-0.629,-90.515,-59.692,-46.936, , , , , , ,91.445,22.451,-82.134
 13:52:37.702,eb:33:2e:f9:57:b5, 2015-01-01 00:16:45.815,0.67,-0.946,-0.247,-157.837,-61.951,-46.082, , , , , , ,90.654,22.692,-82.463
 13:52:37.702,eb:33:2e:f9:57:b5, 2015-01-01 00:16:45.815,0.561,-1.062,0.085,-214.6,-53.894,-41.504, , , , , , ,89.555,22.912,-82.782
 13:52:37.702,eb:33:2e:f9:57:b5, 2015-01-01 00:16:45.815,0.482,-1.019,0.275,-262.451,-40.527,-37.17, , , , , , ,88.237,23.099,-83.035
 13:52:37.747,eb:33:2e:f9:57:b5, 2015-01-01 00:16:46.195,0.501,-0.905,0.396,-302.49,-25.452,-33.63, , , , , , ,86.732,23.269,-83.21
 13:52:37.747,eb:33:2e:f9:57:b5, 2015-01-01 00:16:46.195,0.548,-0.746,0.524,-335.144,-10.132,-33.936, , , , , , ,85.073,23.428,-83.309
 13:52:37.747,eb:33:2e:f9:57:b5, 2015-01-01 00:16:46.195,0.566,-0.611,0.624,-360.901,3.052,-38.757, , , , , , ,83.287,23.61,-83.348
 13:52:37.747,eb:33:2e:f9:57:b5, 2015-01-01 00:16:46.195,0.509,-0.529,0.645,-380.005,9.766,-44.922, , , , , , ,81.431,23.824,-83.337
 13:52:37.747,eb:33:2e:f9:57:b5, 2015-01-01 00:16:46.195,0.458,-0.499,0.559,-393.127,7.446,-51.636, , , , , , ,79.492,24.077,-83.326
 13:52:37.747,eb:33:2e:f9:57:b5, 2015-01-01 00:16:46.195,0.432,-0.508,0.459,-401.428,-1.709,-58.167, , , , , , ,77.476,24.351,-83.375
 13:52:37.747,eb:33:2e:f9:57:b5, 2015-01-01 00:16:46.195,0.424,-0.532,0.364,-406.311,-15.137,-64.27, , , , , , ,75.383,24.637,-83.513
 13:52:37.747,eb:33:2e:f9:57:b5, 2015-01-01 00:16:46.195,0.433,-0.564,0.265,-408.813,-32.288,-68.237, , , , , , ,73.24,24.928,-83.743
 13:52:37.793,eb:33:2e:f9:57:b5, 2015-01-01 00:16:46.195,0.452,-0.6,0.19,-409.241,-51.636,-71.716, , , , , , ,71.049,25.197,-84.089
 13:52:37.793,eb:33:2e:f9:57:b5, 2015-01-01 00:16:46.195,0.459,-0.641,0.158,-408.081,-71.838,-74.158, , , , , , ,68.802,25.428,-84.562
 13:52:37.793,eb:33:2e:f9:57:b5, 2015-01-01 00:16:46.195,0.451,-0.678,0.175,-405.334,-91.248,-75.806, , , , , , ,66.5,25.615,-85.155
 13:52:37.793,eb:33:2e:f9:57:b5, 2015-01-01 00:16:46.195,0.416,-0.722,0.213,-401.733,-109.68,-75.073, , , , , , ,64.182,25.746,-85.847
 13:52:37.793,eb:33:2e:f9:57:b5, 2015-01-01 00:16:46.195,0.376,-0.763,0.264,-397.766,-127.014,-70.923, , , , , , ,61.848,25.796,-86.622
 13:52:37.793,eb:33:2e:f9:57:b5, 2015-01-01 00:16:46.195,0.345,-0.788,0.341,-394.165,-142.09,-65.43, , , , , , ,59.502,25.757,-87.468
 13:52:37.793,eb:33:2e:f9:57:b5, 2015-01-01 00:16:46.195,0.294,-0.803,0.433,-391.479,-154.053,-57.922, , , , , , ,57.134,25.62,-88.363
 13:52:37.793,eb:33:2e:f9:57:b5, 2015-01-01 00:16:46.195,0.254,-0.808,0.509,-390.137,-163.025,-49.622, , , , , , ,54.794,25.395,-89.258
 13:52:37.860,eb:33:2e:f9:57:b5, 2015-01-01 00:16:46.195,0.212,-0.802,0.583,-390.503,-170.166,-40.283, , , , , , ,52.465,25.071,-90.143
 13:52:37.860,eb:33:2e:f9:57:b5, 2015-01-01 00:16:46.195,0.171,-0.794,0.642,-392.883,-176.636,-29.541, , , , , , ,50.142,24.664,-91.011
 13:52:37.860,eb:33:2e:f9:57:b5, 2015-01-01 00:16:46.195,0.158,-0.781,0.7,-397.217,-182.617,-19.165, , , , , , ,47.796,24.153,-91.851
 13:52:37.860,eb:33:2e:f9:57:b5, 2015-01-01 00:16:46.195,0.141,-0.782,0.742,-403.503,-188.66,-7.568, , , , , , ,45.472,23.555,-92.637
 13:52:37.860,eb:33:2e:f9:57:b5, 2015-01-01 00:16:46.195,0.144,-0.794,0.775,-411.255,-194.214,4.7, , , , , , ,43.143,22.874,-93.367
 13:52:37.860,eb:33:2e:f9:57:b5, 2015-01-01 00:16:46.195,0.166,-0.816,0.833,-419.861,-199.28,16.113, , , , , , ,40.809,22.099,-94.032
 13:52:37.860,eb:33:2e:f9:57:b5, 2015-01-01 00:16:46.195,0.191,-0.826,0.904,-428.345,-204.529,26.428, , , , , , ,38.436,21.242,-94.647
 13:52:37.860,eb:33:2e:f9:57:b5, 2015-01-01 00:16:46.195,0.214,-0.786,0.951,-436.34,-210.327,35.889, , , , , , ,36.079,20.314,-95.18
 13:52:37.860,eb:33:2e:f9:57:b5, 2015-01-01 00:16:46.195,0.287,-0.689,1.001,-443.237,-214.6,41.931, , , , , , ,33.717,19.33,-95.652
 13:52:37.860,eb:33:2e:f9:57:b5, 2015-01-01 00:16:46.195,0.346,-0.559,1.145,-447.388,-218.506,45.715, , , , , , ,31.349,18.292,-96.07
 13:52:37.860,eb:33:2e:f9:57:b5, 2015-01-01 00:16:46.195,0.41,-0.438,1.352,-446.655,-218.445,41.992, , , , , , ,28.971,17.227,-96.46
 13:52:37.860,eb:33:2e:f9:57:b5, 2015-01-01 00:16:46.195,0.42,-0.313,1.556,-442.505,-214.172,34.058, , , , , , ,26.647,16.183,-96.812
 13:52:37.860,eb:33:2e:f9:57:b5, 2015-01-01 00:16:46.195,0.391,-0.168,1.755,-434.082,-210.938,23.499, , , , , , ,24.368,15.167,-97.158
 13:52:37.860,eb:33:2e:f9:57:b5, 2015-01-01 00:16:46.195,0.351,-0.039,1.922,-421.936,-207.764,11.108, , , , , , ,22.143,14.178,-97.504
 13:52:37.860,eb:33:2e:f9:57:b5, 2015-01-01 00:16:46.195,0.298,0.054,2.08,-406.799,-205.872,-1.648, , , , , , ,19.962,13.195,-97.877
 13:52:37.860,eb:33:2e:f9:57:b5, 2015-01-01 00:16:46.195,0.244,0.1,2.203,-390.869,-204.041,-15.32, , , , , , ,17.891,12.239,-98.267
 13:52:37.904,eb:33:2e:f9:57:b5, 2015-01-01 00:16:46.195,0.204,0.088,2.245,-376.465,-201.66,-29.053, , , , , , ,15.897,11.305,-98.685
 13:52:37.904,eb:33:2e:f9:57:b5, 2015-01-01 00:16:46.195,0.177,0.03,2.194,-366.211,-199.28,-40.955, , , , , , ,13.964,10.382,-99.13
 13:52:37.904,eb:33:2e:f9:57:b5, 2015-01-01 00:16:46.195,0.153,-0.044,2.1,-361.389,-197.937,-50.72, , , , , , ,12.047,9.459,-99.591
 13:52:37.904,eb:33:2e:f9:57:b5, 2015-01-01 00:16:46.195,0.117,-0.11,2.029,-362,-198.73,-57.068, , , , , , ,10.162,8.536,-100.058
 13:52:37.904,eb:33:2e:f9:57:b5, 2015-01-01 00:16:46.195,0.075,-0.152,2.028,-367.065,-201.172,-61.951, , , , , , ,8.278,7.597,-100.525
 13:52:37.904,eb:33:2e:f9:57:b5, 2015-01-01 00:16:46.195,0.042,-0.182,2.1,-374.939,-205.017,-65.491, , , , , , ,6.361,6.63,-100.975
 13:52:37.904,eb:33:2e:f9:57:b5, 2015-01-01 00:16:46.195,0.009,-0.208,2.241,-384.399,-210.449,-66.589, , , , , , ,4.389,5.609,-101.409
 13:52:37.904,eb:33:2e:f9:57:b5, 2015-01-01 00:16:46.195,-0.018,-0.214,2.437,-394.714,-215.088,-65.918, , , , , , ,2.401,4.565,-101.805
 13:52:37.952,eb:33:2e:f9:57:b5, 2015-01-01 00:16:46.195,-0.068,-0.208,2.62,-404.724,-219.849,-61.584, , , , , , ,0.368,3.483,-102.151
 13:52:37.952,eb:33:2e:f9:57:b5, 2015-01-01 00:16:46.195,-0.112,-0.168,2.8,-413.757,-223.999,-55.115, , , , , , ,-1.692,2.368,-102.431
 13:52:37.952,eb:33:2e:f9:57:b5, 2015-01-01 00:16:46.195,-0.133,-0.077,2.972,-421.692,-226.746,-47.302, , , , , , ,-3.818,1.214,-102.634
 13:52:37.952,eb:33:2e:f9:57:b5, 2015-01-01 00:16:46.195,-0.145,0.083,3.137,-428.223,-227.6,-37.903, , , , , , ,-5.944,0.066,-102.744
 13:52:37.952,eb:33:2e:f9:57:b5, 2015-01-01 00:16:46.195,-0.151,0.317,3.29,-432.983,-225.586,-28.809, , , , , , ,-8.102,-1.077,-102.766
 13:52:37.953,eb:33:2e:f9:57:b5, 2015-01-01 00:16:46.195,-0.176,0.607,3.439,-434.937,-223.694,-20.752, , , , , , ,-10.278,-2.203,-102.706
 13:52:37.953,eb:33:2e:f9:57:b5, 2015-01-01 00:16:46.195,-0.2,0.909,3.53,-433.472,-222.29,-15.747, , , , , , ,-12.48,-3.329,-102.574
 13:52:37.953,eb:33:2e:f9:57:b5, 2015-01-01 00:16:46.195,-0.233,1.178,3.545,-427.246,-223.755,-11.78, , , , , , ,-14.645,-4.427,-102.376
 13:52:38.017,eb:33:2e:f9:57:b5, 2015-01-01 00:16:46.195,-0.312,1.401,3.496,-415.955,-228.394,-8.179, , , , , , ,-16.771,-5.526,-102.118
 13:52:38.017,eb:33:2e:f9:57:b5, 2015-01-01 00:16:46.195,-0.418,1.573,3.378,-399.841,-235.596,-6.165, , , , , , ,-18.836,-6.641,-101.794
 13:52:38.017,eb:33:2e:f9:57:b5, 2015-01-01 00:16:46.195,-0.585,1.68,3.218,-377.686,-249.268,-1.038, , , , , , ,-20.841,-7.806,-101.393
 13:52:38.017,eb:33:2e:f9:57:b5, 2015-01-01 00:16:46.195,-0.543,1.666,3.059,-349.121,-264.832,4.395, , , , , , ,-22.72,-9.003,-100.898
 13:52:38.017,eb:33:2e:f9:57:b5, 2015-01-01 00:16:46.195,-0.658,1.631,3.065,-316.772,-272.827,9.216, , , , , , ,-24.467,-10.228,-100.322
 13:52:38.017,eb:33:2e:f9:57:b5, 2015-01-01 00:16:46.195,-1.119,1.74,2.833,-283.447,-286.743,16.418, , , , , , ,-26.076,-11.464,-99.651
 13:52:38.017,eb:33:2e:f9:57:b5, 2015-01-01 00:16:46.195,-1.399,2.06,2.29,-248.169,-315.735,21.118, , , , , , ,-27.57,-12.783,-98.86
 13:52:38.017,eb:33:2e:f9:57:b5, 2015-01-01 00:16:46.195,-1.612,2.533,2.007,-213.623,-345.642,28.198, , , , , , ,-28.922,-14.194,-97.932
 13:52:38.053,eb:33:2e:f9:57:b5, 2015-01-01 00:16:46.195,-1.907,3.037,2.094,-182.129,-362.915,37.781, , , , , , ,-30.168,-15.667,-96.872
 13:52:38.053,eb:33:2e:f9:57:b5, 2015-01-01 00:16:46.195,-2.196,3.533,2.382,-152.649,-357.544,45.471, , , , , , ,-31.317,-17.111,-95.718
 13:52:38.053,eb:33:2e:f9:57:b5, 2015-01-01 00:16:46.195,-2.433,4.045,2.753,-123.535,-320.984,49.072, , , , , , ,-32.355,-18.43,-94.565
 13:52:38.053,eb:33:2e:f9:57:b5, 2015-01-01 00:16:46.195,-2.487,4.646,3.094,-87.341,-243.896,47.607, , , , , , ,-33.195,-19.468,-93.554
 13:52:38.053,eb:33:2e:f9:57:b5, 2015-01-01 00:16:46.195,-2.463,5.03,3.233,-54.199,-167.847,44.495, , , , , , ,-33.799,-20.165,-92.78
 13:52:38.053,eb:33:2e:f9:57:b5, 2015-01-01 00:16:46.195,-2.38,5.168,3.285,-14.648,-92.407,39.307, , , , , , ,-34.146,-20.561,-92.23
 13:52:38.053,eb:33:2e:f9:57:b5, 2015-01-01 00:16:46.195,-2.219,4.908,3.204,30.273,-25.024,33.447, , , , , , ,-34.189,-20.671,-91.923
 13:52:38.053,eb:33:2e:f9:57:b5, 2015-01-01 00:16:46.195,-1.985,4.372,2.961,75.378,29.358,27.893, , , , , , ,-33.937,-20.55,-91.818
 13:52:38.062,eb:33:2e:f9:57:b5, 2015-01-01 00:16:46.485,-1.709,3.756,2.642,116.821,65.979,27.771, , , , , , ,-33.42,-20.253,-91.857
 13:52:38.062,eb:33:2e:f9:57:b5, 2015-01-01 00:16:46.485,-1.653,3.203,2.375,150.146,90.759,27.832, , , , , , ,-32.695,-19.836,-91.972
 13:52:38.062,eb:33:2e:f9:57:b5, 2015-01-01 00:16:46.485,0.853,2.427,2.682,271.118,213.44,99.609, , , , , , ,-31.679,-19.155,-92.109
 13:52:38.062,eb:33:2e:f9:57:b5, 2015-01-01 00:16:46.485,-0.362,-2.979,8.687,355.774,142.578,-65.796, , , , , , ,-29.68,-18.391,-93.06
 13:52:38.062,eb:33:2e:f9:57:b5, 2015-01-01 00:16:46.485,1.286,-1.714,-2.591,367.065,189.453,101.868, , , , , , ,-27.85,-17.397,-93.109
 13:52:38.062,eb:33:2e:f9:57:b5, 2015-01-01 00:16:46.485,1.437,-1.467,0.169,362.854,162.292,-41.077, , , , , , ,-25.906,-16.688,-93.625
 13:52:38.062,eb:33:2e:f9:57:b5, 2015-01-01 00:16:46.485,1.033,-0.998,0.449,400.452,208.008,-76.965, , , , , , ,-23.785,-15.881,-94.285
 13:52:38.062,eb:33:2e:f9:57:b5, 2015-01-01 00:16:46.485,0.75,-1.36,1.104,421.509,254.883,-142.273, , , , , , ,-21.434,-15.068,-95.339
 13:52:38.106,eb:33:2e:f9:57:b5, 2015-01-01 00:16:46.485,0.708,-0.868,1.737,431.274,297.913,-149.231, , , , , , ,-18.99,-13.991,-96.553
 13:52:38.106,eb:33:2e:f9:57:b5, 2015-01-01 00:16:46.485,-0.031,-0.907,1.717,444.641,299.622,-136.292, , , , , , ,-16.523,-12.783,-97.751
 13:52:38.106,eb:33:2e:f9:57:b5, 2015-01-01 00:16:46.485,-0.236,-0.575,1.288,451.355,310.608,-100.098, , , , , , ,-14.046,-11.508,-98.718
 13:52:38.106,eb:33:2e:f9:57:b5, 2015-01-01 00:16:46.485,-0.587,0.015,1.63,427.551,324.707,-47.363, , , , , , ,-11.722,-10.014,-99.443
 13:52:38.106,eb:33:2e:f9:57:b5, 2015-01-01 00:16:46.485,-0.673,0.64,2.066,371.765,313.66,-17.517, , , , , , ,-9.69,-8.388,-99.904
 13:52:38.106,eb:33:2e:f9:57:b5, 2015-01-01 00:16:46.485,-0.368,0.782,1.316,318.787,258.362,-12.024, , , , , , ,-7.949,-7.037,-100.168
 13:52:38.106,eb:33:2e:f9:57:b5, 2015-01-01 00:16:46.485,0.054,0.852,1.288,261.475,202.82,-26.245, , , , , , ,-6.482,-5.922,-100.415
 13:52:38.107,eb:33:2e:f9:57:b5, 2015-01-01 00:16:46.485,0.088,1.066,1.63,196.838,152.161,-32.227, , , , , , ,-5.35,-5.092,-100.657
 13:52:38.175,eb:33:2e:f9:57:b5, 2015-01-01 00:16:46.485,0.07,0.629,1.272,157.349,128.052,-28.198, , , , , , ,-4.477,-4.417,-100.876
