Time,Device name,Chip Time(),Acceleration X(g),Acceleration Y(g),Acceleration Z(g),Angular velocity X(°/s),Angular velocity Y(°/s),Angular velocity Z(°/s),ShiftX(mm),ShiftY(mm),ShiftZ(mm),SpeedX(mm/s),SpeedY(mm/s),SpeedZ(mm/s),Angle X(°),Angle Y(°),Angle Z(°)
 13:49:03.585,eb:33:2e:f9:57:b5, 2015-01-01 00:13:13.555,0,0.022,0.997,0,-0.061,0.122, , , , , , ,1.263,-0.088,-56.766
 13:49:03.585,eb:33:2e:f9:57:b5, 2015-01-01 00:13:13.555,0,0.022,0.996,0.061,-0.122,0.183, , , , , , ,1.263,-0.088,-56.766
 13:49:03.585,eb:33:2e:f9:57:b5, 2015-01-01 00:13:13.555,0.002,0.022,0.996,0.061,-0.122,0.183, , , , , , ,1.263,-0.088,-56.766
 13:49:03.585,eb:33:2e:f9:57:b5, 2015-01-01 00:13:13.555,0.002,0.021,0.996,0,-0.183,0.122, , , , , , ,1.263,-0.088,-56.766
 13:49:03.587,eb:33:2e:f9:57:b5, 2015-01-01 00:13:13.555,0.003,0.022,0.996,0,-0.122,0.122, , , , , , ,1.263,-0.088,-56.766
 13:49:03.587,eb:33:2e:f9:57:b5, 2015-01-01 00:13:13.555,0.003,0.022,0.998,0,0,0.122, , , , , , ,1.263,-0.088,-56.766
 13:49:03.587,eb:33:2e:f9:57:b5, 2015-01-01 00:13:13.555,0.002,0.022,0.998,0,0,0.122, , , , , , ,1.263,-0.088,-56.766
 13:49:03.587,eb:33:2e:f9:57:b5, 2015-01-01 00:13:13.555,0.001,0.022,0.998,0,0.061,0.122, , , , , , ,1.263,-0.088,-56.766
 13:49:03.632,eb:33:2e:f9:57:b5, 2015-01-01 00:13:13.555,0,0.022,0.996,0,0,0.183, , , , , , ,1.263,-0.088,-56.766
 13:49:03.632,eb:33:2e:f9:57:b5, 2015-01-01 00:13:13.555,0.001,0.021,0.996,0,0,0.122, , , , , , ,1.263,-0.088,-56.766
 13:49:03.632,eb:33:2e:f9:57:b5, 2015-01-01 00:13:13.555,0.002,0.022,0.996,-0.061,0,0.122, , , , , , ,1.263,-0.088,-56.766
 13:49:03.632,eb:33:2e:f9:57:b5, 2015-01-01 00:13:13.555,0.001,0.021,0.997,-0.061,0,0.061, , , , , , ,1.263,-0.088,-56.766
 13:49:03.632,eb:33:2e:f9:57:b5, 2015-01-01 00:13:13.555,0.001,0.021,0.997,0,0.061,0.122, , , , , , ,1.263,-0.088,-56.766
 13:49:03.632,eb:33:2e:f9:57:b5, 2015-01-01 00:13:13.555,0.001,0.022,0.997,0,0.061,0.183, , , , , , ,1.263,-0.088,-56.766
 13:49:03.632,eb:33:2e:f9:57:b5, 2015-01-01 00:13:13.555,0.001,0.021,0.997,0,0.061,0.183, , , , , , ,1.263,-0.088,-56.766
 13:49:03.632,eb:33:2e:f9:57:b5, 2015-01-01 00:13:13.555,0.002,0.021,0.999,0,0.061,0.183, , , , , , ,1.263,-0.088,-56.766
 13:49:03.653,eb:33:2e:f9:57:b5, 2015-01-01 00:13:13.555,0.002,0.021,1,0.122,0.061,0.183, , , , , , ,1.263,-0.088,-56.766
 13:49:03.653,eb:33:2e:f9:57:b5, 2015-01-01 00:13:13.555,0,0.021,0.998,0.183,0.183,0.244, , , , , , ,1.263,-0.088,-56.766
 13:49:03.654,eb:33:2e:f9:57:b5, 2015-01-01 00:13:13.555,-0.001,0.021,0.996,0.122,0.122,0.183, , , , , , ,1.263,-0.088,-56.766
 13:49:03.654,eb:33:2e:f9:57:b5, 2015-01-01 00:13:13.555,0,0.021,0.995,0.183,0,0.244, , , , , , ,1.263,-0.088,-56.766
 13:49:03.654,eb:33:2e:f9:57:b5, 2015-01-01 00:13:13.555,0,0.021,0.996,0.183,-0.061,0.305, , , , , , ,1.263,-0.088,-56.766
 13:49:03.654,eb:33:2e:f9:57:b5, 2015-01-01 00:13:13.555,0,0.021,0.996,0.183,-0.122,0.305, , , , , , ,1.263,-0.088,-56.766
 13:49:03.654,eb:33:2e:f9:57:b5, 2015-01-01 00:13:13.555,0.001,0.021,0.996,0.183,-0.183,0.366, , , , , , ,1.263,-0.088,-56.766
 13:49:03.654,eb:33:2e:f9:57:b5, 2015-01-01 00:13:13.555,0.001,0.022,0.996,0.183,-0.244,0.305, , , , , , ,1.263,-0.088,-56.766
 13:49:03.744,eb:33:2e:f9:57:b5, 2015-01-01 00:13:13.555,0.002,0.022,0.996,0.122,-0.183,0.305, , , , , , ,1.263,-0.088,-56.766
 13:49:03.744,eb:33:2e:f9:57:b5, 2015-01-01 00:13:13.555,0.001,0.022,0.997,0,-0.183,0.305, , , , , , ,1.263,-0.088,-56.766
 13:49:03.744,eb:33:2e:f9:57:b5, 2015-01-01 00:13:13.555,0.002,0.023,0.997,0.061,-0.122,0.244, , , , , , ,1.263,-0.088,-56.766
 13:49:03.744,eb:33:2e:f9:57:b5, 2015-01-01 00:13:13.555,0.002,0.022,0.996,0,-0.061,0.244, , , , , , ,1.263,-0.088,-56.766
 13:49:03.744,eb:33:2e:f9:57:b5, 2015-01-01 00:13:13.555,0.002,0.022,0.997,0,0,0.244, , , , , , ,1.263,-0.088,-56.766
 13:49:03.744,eb:33:2e:f9:57:b5, 2015-01-01 00:13:13.555,0.002,0.023,0.997,0,0,0.183, , , , , , ,1.263,-0.088,-56.766
 13:49:03.744,eb:33:2e:f9:57:b5, 2015-01-01 00:13:13.555,0.003,0.023,0.998,0,0.061,0.183, , , , , , ,1.263,-0.088,-56.766
 13:49:03.744,eb:33:2e:f9:57:b5, 2015-01-01 00:13:13.555,0.002,0.021,0.999,0.061,0.061,0.122, , , , , , ,1.263,-0.088,-56.766
 13:49:03.744,eb:33:2e:f9:57:b5, 2015-01-01 00:13:13.555,0.002,0.021,1,0.122,0.122,0.244, , , , , , ,1.263,-0.088,-56.766
 13:49:03.746,eb:33:2e:f9:57:b5, 2015-01-01 00:13:13.555,0.002,0.021,0.999,0.244,0.061,0.305, , , , , , ,1.263,-0.088,-56.766
 13:49:03.746,eb:33:2e:f9:57:b5, 2015-01-01 00:13:13.555,0.001,0.022,0.999,0.305,0.061,0.244, , , , , , ,1.263,-0.088,-56.766
 13:49:03.746,eb:33:2e:f9:57:b5, 2015-01-01 00:13:13.555,0,0.022,0.998,0.305,0,0.244, , , , , , ,1.263,-0.088,-56.766
 13:49:03.746,eb:33:2e:f9:57:b5, 2015-01-01 00:13:13.555,0,0.022,0.997,0.366,0,0.366, , , , , , ,1.263,-0.088,-56.766
 13:49:03.746,eb:33:2e:f9:57:b5, 2015-01-01 00:13:13.555,0,0.021,0.997,0.427,0,0.366, , , , , , ,1.263,-0.088,-56.766
 13:49:03.746,eb:33:2e:f9:57:b5, 2015-01-01 00:13:13.555,0,0.022,0.996,0.366,-0.061,0.305, , , , , , ,1.263,-0.088,-56.766
 13:49:03.746,eb:33:2e:f9:57:b5, 2015-01-01 00:13:13.555,0.001,0.023,0.996,0.366,-0.122,0.305, , , , , , ,1.263,-0.088,-56.766
 13:49:03.811,eb:33:2e:f9:57:b5, 2015-01-01 00:13:13.555,0.001,0.023,0.997,0.427,-0.122,0.305, , , , , , ,1.263,-0.088,-56.766
 13:49:03.811,eb:33:2e:f9:57:b5, 2015-01-01 00:13:13.555,0.001,0.023,0.997,0.427,-0.122,0.305, , , , , , ,1.263,-0.088,-56.766
 13:49:03.811,eb:33:2e:f9:57:b5, 2015-01-01 00:13:13.555,0,0.023,0.997,0.366,-0.183,0.305, , , , , , ,1.263,-0.088,-56.766
 13:49:03.811,eb:33:2e:f9:57:b5, 2015-01-01 00:13:13.555,0,0.022,0.995,0.305,-0.122,0.305, , , , , , ,1.263,-0.088,-56.766
 13:49:03.812,eb:33:2e:f9:57:b5, 2015-01-01 00:13:13.555,0,0.022,0.994,0.305,-0.244,0.305, , , , , , ,1.263,-0.088,-56.766
 13:49:03.812,eb:33:2e:f9:57:b5, 2015-01-01 00:13:13.555,0.002,0.023,0.996,0.305,-0.183,0.305, , , , , , ,1.263,-0.088,-56.766
 13:49:03.812,eb:33:2e:f9:57:b5, 2015-01-01 00:13:13.555,0.003,0.023,0.996,0.244,-0.183,0.305, , , , , , ,1.263,-0.088,-56.766
 13:49:03.812,eb:33:2e:f9:57:b5, 2015-01-01 00:13:13.555,0.001,0.022,0.997,0.244,-0.122,0.244, , , , , , ,1.263,-0.088,-56.766
 13:49:03.833,eb:33:2e:f9:57:b5, 2015-01-01 00:13:13.555,0.002,0.023,0.997,0.183,-0.183,0.305, , , , , , ,1.263,-0.088,-56.766
 13:49:03.833,eb:33:2e:f9:57:b5, 2015-01-01 00:13:13.555,0.003,0.023,0.996,0.183,-0.183,0.305, , , , , , ,1.263,-0.088,-56.766
 13:49:03.833,eb:33:2e:f9:57:b5, 2015-01-01 00:13:13.555,0.001,0.023,0.997,0.183,-0.122,0.305, , , , , , ,1.263,-0.088,-56.766
 13:49:03.833,eb:33:2e:f9:57:b5, 2015-01-01 00:13:13.555,0.002,0.022,0.998,0.183,0,0.244, , , , , , ,1.263,-0.088,-56.766
 13:49:03.833,eb:33:2e:f9:57:b5, 2015-01-01 00:13:13.555,0.002,0.022,0.999,0.244,0,0.305, , , , , , ,1.263,-0.088,-56.766
 13:49:03.833,eb:33:2e:f9:57:b5, 2015-01-01 00:13:13.555,0.003,0.022,1,0.305,0,0.244, , , , , , ,1.263,-0.088,-56.766
 13:49:03.833,eb:33:2e:f9:57:b5, 2015-01-01 00:13:13.555,0.002,0.022,0.999,0.427,0.122,0.244, , , , , , ,1.263,-0.088,-56.766
 13:49:03.834,eb:33:2e:f9:57:b5, 2015-01-01 00:13:13.555,0,0.022,0.998,0.427,0.122,0.244, , , , , , ,1.263,-0.088,-56.766
 13:49:03.856,eb:33:2e:f9:57:b5, 2015-01-01 00:13:13.555,0,0.022,0.997,0.488,0.061,0.305, , , , , , ,1.263,-0.088,-56.766
 13:49:03.856,eb:33:2e:f9:57:b5, 2015-01-01 00:13:13.555,0.002,0.021,0.998,0.549,0.061,0.366, , , , , , ,1.263,-0.088,-56.766
 13:49:03.856,eb:33:2e:f9:57:b5, 2015-01-01 00:13:13.555,0.001,0.022,0.998,0.549,0.061,0.366, , , , , , ,1.263,-0.088,-56.766
 13:49:03.856,eb:33:2e:f9:57:b5, 2015-01-01 00:13:13.555,0,0.023,0.998,0.549,0.061,0.366, , , , , , ,1.263,-0.088,-56.766
 13:49:03.856,eb:33:2e:f9:57:b5, 2015-01-01 00:13:13.555,0,0.023,0.995,0.549,0,0.427, , , , , , ,1.263,-0.088,-56.766
 13:49:03.856,eb:33:2e:f9:57:b5, 2015-01-01 00:13:13.555,0,0.024,0.995,0.488,0,0.366, , , , , , ,1.263,-0.088,-56.766
 13:49:03.856,eb:33:2e:f9:57:b5, 2015-01-01 00:13:13.555,0,0.024,0.994,0.427,-0.122,0.366, , , , , , ,1.269,-0.088,-56.766
 13:49:03.856,eb:33:2e:f9:57:b5, 2015-01-01 00:13:13.555,0,0.024,0.995,0.366,-0.122,0.366, , , , , , ,1.269,-0.088,-56.766
 13:49:03.946,eb:33:2e:f9:57:b5, 2015-01-01 00:13:13.555,0.001,0.024,0.994,0.244,-0.183,0.305, , , , , , ,1.269,-0.088,-56.766
 13:49:03.946,eb:33:2e:f9:57:b5, 2015-01-01 00:13:13.555,0.001,0.024,0.995,0.122,-0.183,0.244, , , , , , ,1.269,-0.088,-56.766
 13:49:03.946,eb:33:2e:f9:57:b5, 2015-01-01 00:13:13.555,0.002,0.024,0.995,0.122,-0.122,0.244, , , , , , ,1.269,-0.088,-56.766
 13:49:03.946,eb:33:2e:f9:57:b5, 2015-01-01 00:13:13.555,0.002,0.024,0.995,0,-0.061,0.183, , , , , , ,1.269,-0.088,-56.766
 13:49:03.946,eb:33:2e:f9:57:b5, 2015-01-01 00:13:13.555,0.002,0.024,0.996,0,0,0.183, , , , , , ,1.269,-0.088,-56.766
 13:49:03.946,eb:33:2e:f9:57:b5, 2015-01-01 00:13:13.555,0,0.023,0.997,0.061,-0.061,0.122, , , , , , ,1.269,-0.088,-56.766
 13:49:03.946,eb:33:2e:f9:57:b5, 2015-01-01 00:13:13.555,0,0.023,0.998,0.061,0,0.244, , , , , , ,1.269,-0.088,-56.766
 13:49:03.947,eb:33:2e:f9:57:b5, 2015-01-01 00:13:13.555,0.002,0.023,0.998,0.061,-0.061,0.244, , , , , , ,1.269,-0.088,-56.766
 13:49:03.947,eb:33:2e:f9:57:b5, 2015-01-01 00:13:13.555,0.002,0.023,1,0.183,0,0.122, , , , , , ,1.269,-0.088,-56.766
 13:49:03.947,eb:33:2e:f9:57:b5, 2015-01-01 00:13:13.555,0,0.022,1,0.305,0.061,0.183, , , , , , ,1.269,-0.088,-56.766
 13:49:03.947,eb:33:2e:f9:57:b5, 2015-01-01 00:13:13.555,-0.001,0.021,0.998,0.366,0,0.305, , , , , , ,1.269,-0.088,-56.766
 13:49:03.947,eb:33:2e:f9:57:b5, 2015-01-01 00:13:13.555,0,0.022,0.996,0.366,-0.122,0.427, , , , , , ,1.269,-0.088,-56.766
 13:49:03.947,eb:33:2e:f9:57:b5, 2015-01-01 00:13:13.555,0,0.023,0.996,0.427,-0.183,0.427, , , , , , ,1.269,-0.088,-56.766
 13:49:03.947,eb:33:2e:f9:57:b5, 2015-01-01 00:13:13.555,0,0.024,0.996,0.366,-0.183,0.366, , , , , , ,1.269,-0.088,-56.766
 13:49:03.947,eb:33:2e:f9:57:b5, 2015-01-01 00:13:13.555,0.001,0.024,0.996,0.366,-0.244,0.427, , , , , , ,1.269,-0.088,-56.766
 13:49:03.947,eb:33:2e:f9:57:b5, 2015-01-01 00:13:13.555,0.002,0.025,0.995,0.366,-0.244,0.427, , , , , , ,1.269,-0.088,-56.766
 13:49:04.013,eb:33:2e:f9:57:b5, 2015-01-01 00:13:13.910,0.003,0.025,0.996,0.244,-0.183,0.366, , , , , , ,1.269,-0.088,-56.766
 13:49:04.013,eb:33:2e:f9:57:b5, 2015-01-01 00:13:13.910,0.002,0.025,0.995,0.183,-0.183,0.305, , , , , , ,1.269,-0.088,-56.766
 13:49:04.013,eb:33:2e:f9:57:b5, 2015-01-01 00:13:13.910,0.002,0.026,0.995,0.183,-0.122,0.305, , , , , , ,1.269,-0.088,-56.766
 13:49:04.013,eb:33:2e:f9:57:b5, 2015-01-01 00:13:13.910,0.003,0.026,0.996,0.061,-0.122,0.183, , , , , , ,1.269,-0.088,-56.766
 13:49:04.013,eb:33:2e:f9:57:b5, 2015-01-01 00:13:13.910,0.003,0.025,0.996,0,0,0.183, , , , , , ,1.269,-0.088,-56.766
 13:49:04.013,eb:33:2e:f9:57:b5, 2015-01-01 00:13:13.910,0.003,0.026,0.997,0,0,0.122, , , , , , ,1.269,-0.088,-56.766
 13:49:04.013,eb:33:2e:f9:57:b5, 2015-01-01 00:13:13.910,0.001,0.025,0.996,-0.122,0.061,0.122, , , , , , ,1.269,-0.088,-56.766
 13:49:04.013,eb:33:2e:f9:57:b5, 2015-01-01 00:13:13.910,0.001,0.024,0.996,-0.122,0.061,0.061, , , , , , ,1.269,-0.088,-56.766
 13:49:04.081,eb:33:2e:f9:57:b5, 2015-01-01 00:13:13.910,0,0.024,0.997,-0.122,0.061,0.061, , , , , , ,1.269,-0.088,-56.766
 13:49:04.081,eb:33:2e:f9:57:b5, 2015-01-01 00:13:13.910,0.001,0.024,0.997,-0.183,0.122,0.061, , , , , , ,1.269,-0.088,-56.766
 13:49:04.081,eb:33:2e:f9:57:b5, 2015-01-01 00:13:13.910,0.002,0.025,0.995,-0.183,0.061,0.122, , , , , , ,1.269,-0.088,-56.766
 13:49:04.081,eb:33:2e:f9:57:b5, 2015-01-01 00:13:13.910,0.002,0.024,0.996,-0.183,0,0.061, , , , , , ,1.269,-0.088,-56.766
 13:49:04.081,eb:33:2e:f9:57:b5, 2015-01-01 00:13:13.910,0,0.025,0.996,-0.244,0,0, , , , , , ,1.269,-0.088,-56.766
 13:49:04.081,eb:33:2e:f9:57:b5, 2015-01-01 00:13:13.910,0,0.024,0.996,-0.244,0,0.061, , , , , , ,1.269,-0.088,-56.766
 13:49:04.081,eb:33:2e:f9:57:b5, 2015-01-01 00:13:13.910,0,0.023,0.995,-0.244,-0.061,0.061, , , , , , ,1.269,-0.088,-56.766
 13:49:04.081,eb:33:2e:f9:57:b5, 2015-01-01 00:13:13.910,0.002,0.024,0.995,-0.244,-0.122,0.061, , , , , , ,1.269,-0.088,-56.766
 13:49:04.084,eb:33:2e:f9:57:b5, 2015-01-01 00:13:13.910,0.001,0.024,0.995,-0.305,-0.122,0.061, , , , , , ,1.269,-0.088,-56.766
 13:49:04.084,eb:33:2e:f9:57:b5, 2015-01-01 00:13:13.910,0.002,0.024,0.996,-0.366,-0.183,0.122, , , , , , ,1.269,-0.088,-56.766
 13:49:04.084,eb:33:2e:f9:57:b5, 2015-01-01 00:13:13.910,0.001,0.023,0.996,-0.427,-0.122,0, , , , , , ,1.274,-0.088,-56.766
 13:49:04.084,eb:33:2e:f9:57:b5, 2015-01-01 00:13:13.910,0.001,0.023,0.995,-0.366,-0.183,0, , , , , , ,1.274,-0.088,-56.766
 13:49:04.084,eb:33:2e:f9:57:b5, 2015-01-01 00:13:13.910,0.001,0.023,0.997,-0.427,-0.122,0.061, , , , , , ,1.274,-0.088,-56.766
 13:49:04.084,eb:33:2e:f9:57:b5, 2015-01-01 00:13:13.910,0.002,0.024,0.997,-0.427,-0.061,0, , , , , , ,1.274,-0.088,-56.766
 13:49:04.084,eb:33:2e:f9:57:b5, 2015-01-01 00:13:13.910,0,0.024,0.996,-0.427,-0.061,0.061, , , , , , ,1.274,-0.088,-56.766
 13:49:04.084,eb:33:2e:f9:57:b5, 2015-01-01 00:13:13.910,-0.008,0.023,0.993,-0.549,-0.183,0.122, , , , , , ,1.274,-0.088,-56.766
 13:49:04.103,eb:33:2e:f9:57:b5, 2015-01-01 00:13:13.910,0.014,0.021,0.992,-0.549,-0.549,0.244, , , , , , ,1.274,-0.088,-56.766
 13:49:04.103,eb:33:2e:f9:57:b5, 2015-01-01 00:13:13.910,0.008,0.025,1.006,-0.366,-0.122,0, , , , , , ,1.274,-0.088,-56.766
 13:49:04.103,eb:33:2e:f9:57:b5, 2015-01-01 00:13:13.910,0.007,0.021,1.005,-0.244,0.122,0.061, , , , , , ,1.274,-0.088,-56.766
 13:49:04.103,eb:33:2e:f9:57:b5, 2015-01-01 00:13:13.910,-0.003,0.024,1.002,-0.122,0.366,0, , , , , , ,1.274,-0.088,-56.766
 13:49:04.103,eb:33:2e:f9:57:b5, 2015-01-01 00:13:13.910,-0.003,0.023,0.993,-0.122,0.183,0, , , , , , ,1.274,-0.088,-56.766
 13:49:04.103,eb:33:2e:f9:57:b5, 2015-01-01 00:13:13.910,0.003,0.022,0.995,-0.122,-0.061,0.061, , , , , , ,1.274,-0.088,-56.766
 13:49:04.103,eb:33:2e:f9:57:b5, 2015-01-01 00:13:13.910,0.004,0.022,0.999,0,0,0.061, , , , , , ,1.274,-0.088,-56.766
 13:49:04.103,eb:33:2e:f9:57:b5, 2015-01-01 00:13:13.910,0.002,0.023,1,0,0.061,0.122, , , , , , ,1.274,-0.088,-56.766
 13:49:04.149,eb:33:2e:f9:57:b5, 2015-01-01 00:13:13.910,0,0.023,0.997,0,0.122,0.183, , , , , , ,1.274,-0.088,-56.766
 13:49:04.149,eb:33:2e:f9:57:b5, 2015-01-01 00:13:13.910,0,0.022,0.995,0,0,0.122, , , , , , ,1.274,-0.088,-56.766
 13:49:04.149,eb:33:2e:f9:57:b5, 2015-01-01 00:13:13.910,0,0.023,0.996,0,-0.061,0.183, , , , , , ,1.274,-0.088,-56.766
 13:49:04.149,eb:33:2e:f9:57:b5, 2015-01-01 00:13:13.910,0.002,0.023,0.996,0.061,-0.122,0.183, , , , , , ,1.274,-0.088,-56.766
 13:49:04.149,eb:33:2e:f9:57:b5, 2015-01-01 00:13:13.910,0.002,0.024,0.997,0.061,-0.122,0.183, , , , , , ,1.274,-0.088,-56.766
 13:49:04.149,eb:33:2e:f9:57:b5, 2015-01-01 00:13:13.910,0.001,0.024,0.996,0,-0.061,0.183, , , , , , ,1.274,-0.088,-56.766
 13:49:04.149,eb:33:2e:f9:57:b5, 2015-01-01 00:13:13.910,0,0.023,0.996,0,-0.122,0.183, , , , , , ,1.274,-0.088,-56.766
 13:49:04.149,eb:33:2e:f9:57:b5, 2015-01-01 00:13:13.910,0.002,0.023,0.996,0,-0.122,0.122, , , , , , ,1.274,-0.088,-56.766
 13:49:04.195,eb:33:2e:f9:57:b5, 2015-01-01 00:13:13.910,0.002,0.024,0.997,-0.061,-0.061,0.122, , , , , , ,1.274,-0.088,-56.766
 13:49:04.195,eb:33:2e:f9:57:b5, 2015-01-01 00:13:13.910,0.002,0.024,0.996,-0.061,-0.061,0.122, , , , , , ,1.274,-0.088,-56.766
 13:49:04.195,eb:33:2e:f9:57:b5, 2015-01-01 00:13:13.910,0.001,0.025,0.996,-0.183,0,0.061, , , , , , ,1.274,-0.088,-56.766
 13:49:04.195,eb:33:2e:f9:57:b5, 2015-01-01 00:13:13.910,0.001,0.024,0.996,-0.183,0,0, , , , , , ,1.274,-0.088,-56.766
 13:49:04.195,eb:33:2e:f9:57:b5, 2015-01-01 00:13:13.910,0.001,0.023,0.996,-0.183,0.061,0.061, , , , , , ,1.274,-0.088,-56.766
 13:49:04.195,eb:33:2e:f9:57:b5, 2015-01-01 00:13:13.910,0.002,0.023,0.997,-0.183,0,0.061, , , , , , ,1.274,-0.088,-56.766
 13:49:04.195,eb:33:2e:f9:57:b5, 2015-01-01 00:13:13.910,0.002,0.022,0.999,-0.061,0,0.122, , , , , , ,1.274,-0.088,-56.766
 13:49:04.195,eb:33:2e:f9:57:b5, 2015-01-01 00:13:13.910,0.004,0.021,1,0.061,0,0.122, , , , , , ,1.274,-0.088,-56.766
 13:49:04.239,eb:33:2e:f9:57:b5, 2015-01-01 00:13:13.910,0.002,0.021,1,0.122,0.061,0.244, , , , , , ,1.274,-0.088,-56.766
 13:49:04.239,eb:33:2e:f9:57:b5, 2015-01-01 00:13:13.910,0,0.021,0.999,0.183,0.122,0.244, , , , , , ,1.274,-0.088,-56.766
 13:49:04.239,eb:33:2e:f9:57:b5, 2015-01-01 00:13:13.910,0,0.021,0.997,0.244,0,0.305, , , , , , ,1.274,-0.088,-56.766
 13:49:04.239,eb:33:2e:f9:57:b5, 2015-01-01 00:13:13.910,0,0.022,0.997,0.305,0,0.305, , , , , , ,1.274,-0.088,-56.766
 13:49:04.239,eb:33:2e:f9:57:b5, 2015-01-01 00:13:13.910,0.001,0.022,0.998,0.366,-0.122,0.366, , , , , , ,1.274,-0.088,-56.766
 13:49:04.239,eb:33:2e:f9:57:b5, 2015-01-01 00:13:13.910,0,0.023,0.997,0.305,-0.122,0.366, , , , , , ,1.274,-0.088,-56.766
 13:49:04.239,eb:33:2e:f9:57:b5, 2015-01-01 00:13:13.910,0.001,0.024,0.995,0.305,-0.183,0.366, , , , , , ,1.274,-0.088,-56.766
 13:49:04.239,eb:33:2e:f9:57:b5, 2015-01-01 00:13:13.910,0.001,0.024,0.995,0.244,-0.183,0.366, , , , , , ,1.274,-0.088,-56.766
 13:49:04.261,eb:33:2e:f9:57:b5, 2015-01-01 00:13:13.910,0.001,0.025,0.995,0.305,-0.244,0.366, , , , , , ,1.274,-0.088,-56.766
 13:49:04.261,eb:33:2e:f9:57:b5, 2015-01-01 00:13:13.910,0.001,0.025,0.995,0.244,-0.183,0.305, , , , , , ,1.274,-0.088,-56.766
 13:49:04.261,eb:33:2e:f9:57:b5, 2015-01-01 00:13:13.910,0.002,0.025,0.995,0.122,-0.183,0.244, , , , , , ,1.274,-0.088,-56.766
 13:49:04.261,eb:33:2e:f9:57:b5, 2015-01-01 00:13:13.910,0.002,0.025,0.995,0.061,-0.122,0.244, , , , , , ,1.274,-0.088,-56.766
 13:49:04.261,eb:33:2e:f9:57:b5, 2015-01-01 00:13:13.910,0.003,0.024,0.996,0,-0.061,0.183, , , , , , ,1.274,-0.088,-56.766
 13:49:04.261,eb:33:2e:f9:57:b5, 2015-01-01 00:13:13.910,0.002,0.024,0.997,0,-0.061,0.183, , , , , , ,1.274,-0.088,-56.766
 13:49:04.261,eb:33:2e:f9:57:b5, 2015-01-01 00:13:13.910,0.001,0.024,0.996,-0.061,0,0.183, , , , , , ,1.28,-0.088,-56.766
 13:49:04.261,eb:33:2e:f9:57:b5, 2015-01-01 00:13:13.910,0.002,0.024,0.996,-0.122,0,0.122, , , , , , ,1.28,-0.088,-56.766
 13:49:04.308,eb:33:2e:f9:57:b5, 2015-01-01 00:13:14.250,0.001,0.024,0.997,-0.061,0.061,0.061, , , , , , ,1.28,-0.088,-56.766
 13:49:04.308,eb:33:2e:f9:57:b5, 2015-01-01 00:13:14.250,0.001,0.024,0.997,-0.122,0,0.061, , , , , , ,1.28,-0.088,-56.766
 13:49:04.308,eb:33:2e:f9:57:b5, 2015-01-01 00:13:14.250,0,0.024,0.997,-0.061,0,0.122, , , , , , ,1.28,-0.088,-56.766
 13:49:04.308,eb:33:2e:f9:57:b5, 2015-01-01 00:13:14.250,0,0.023,0.996,-0.122,0,0.061, , , , , , ,1.28,-0.088,-56.766
 13:49:04.308,eb:33:2e:f9:57:b5, 2015-01-01 00:13:14.250,0.001,0.024,0.996,-0.061,-0.061,0.183, , , , , , ,1.28,-0.088,-56.766
 13:49:04.308,eb:33:2e:f9:57:b5, 2015-01-01 00:13:14.250,0.002,0.023,0.999,0,-0.061,0.183, , , , , , ,1.28,-0.088,-56.766
 13:49:04.308,eb:33:2e:f9:57:b5, 2015-01-01 00:13:14.250,0.002,0.023,0.999,0.061,-0.061,0.183, , , , , , ,1.28,-0.088,-56.766
 13:49:04.308,eb:33:2e:f9:57:b5, 2015-01-01 00:13:14.250,0.001,0.023,0.999,0,0,0.244, , , , , , ,1.28,-0.088,-56.766
 13:49:04.352,eb:33:2e:f9:57:b5, 2015-01-01 00:13:14.250,0,0.023,0.998,0.061,0,0.244, , , , , , ,1.28,-0.088,-56.766
 13:49:04.352,eb:33:2e:f9:57:b5, 2015-01-01 00:13:14.250,0,0.023,0.996,0.122,0,0.244, , , , , , ,1.28,-0.088,-56.766
 13:49:04.352,eb:33:2e:f9:57:b5, 2015-01-01 00:13:14.250,0,0.023,0.996,0.122,-0.061,0.305, , , , , , ,1.28,-0.088,-56.766
 13:49:04.352,eb:33:2e:f9:57:b5, 2015-01-01 00:13:14.250,0.001,0.023,0.997,0.122,-0.122,0.305, , , , , , ,1.28,-0.088,-56.766
 13:49:04.352,eb:33:2e:f9:57:b5, 2015-01-01 00:13:14.250,0,0.023,0.997,0.122,-0.183,0.305, , , , , , ,1.28,-0.088,-56.766
 13:49:04.352,eb:33:2e:f9:57:b5, 2015-01-01 00:13:14.250,0,0.023,0.995,0.122,-0.183,0.305, , , , , , ,1.28,-0.088,-56.766
 13:49:04.352,eb:33:2e:f9:57:b5, 2015-01-01 00:13:14.250,0,0.023,0.995,0.061,-0.305,0.366, , , , , , ,1.28,-0.088,-56.766
 13:49:04.352,eb:33:2e:f9:57:b5, 2015-01-01 00:13:14.250,0.001,0.025,0.995,0.061,-0.305,0.305, , , , , , ,1.28,-0.088,-56.766
 13:49:04.419,eb:33:2e:f9:57:b5, 2015-01-01 00:13:14.250,0.001,0.024,0.995,0,-0.366,0.305, , , , , , ,1.28,-0.088,-56.766
 13:49:04.419,eb:33:2e:f9:57:b5, 2015-01-01 00:13:14.250,0.002,0.024,0.995,0,-0.366,0.244, , , , , , ,1.28,-0.088,-56.766
 13:49:04.419,eb:33:2e:f9:57:b5, 2015-01-01 00:13:14.250,0.001,0.025,0.995,-0.061,-0.305,0.244, , , , , , ,1.28,-0.088,-56.766
 13:49:04.419,eb:33:2e:f9:57:b5, 2015-01-01 00:13:14.250,0.002,0.026,0.995,-0.183,-0.305,0.183, , , , , , ,1.28,-0.088,-56.766
 13:49:04.419,eb:33:2e:f9:57:b5, 2015-01-01 00:13:14.250,0.003,0.026,0.995,-0.244,-0.244,0.122, , , , , , ,1.28,-0.088,-56.766
 13:49:04.419,eb:33:2e:f9:57:b5, 2015-01-01 00:13:14.250,0.003,0.025,0.996,-0.366,-0.122,0.061, , , , , , ,1.28,-0.088,-56.766
 13:49:04.419,eb:33:2e:f9:57:b5, 2015-01-01 00:13:14.250,0.004,0.024,0.997,-0.366,-0.061,0, , , , , , ,1.28,-0.088,-56.766
 13:49:04.419,eb:33:2e:f9:57:b5, 2015-01-01 00:13:14.250,0.003,0.023,0.999,-0.305,0,0.061, , , , , , ,1.28,-0.088,-56.766
 13:49:04.442,eb:33:2e:f9:57:b5, 2015-01-01 00:13:14.250,0.002,0.024,0.998,-0.366,0,0, , , , , , ,1.28,-0.088,-56.766
 13:49:04.442,eb:33:2e:f9:57:b5, 2015-01-01 00:13:14.250,0.001,0.024,0.997,-0.305,0,0, , , , , , ,1.28,-0.088,-56.766
 13:49:04.442,eb:33:2e:f9:57:b5, 2015-01-01 00:13:14.250,0.001,0.023,0.997,-0.305,0,0, , , , , , ,1.28,-0.088,-56.766
 13:49:04.442,eb:33:2e:f9:57:b5, 2015-01-01 00:13:14.250,0.001,0.023,0.997,-0.305,0,0.061, , , , , , ,1.28,-0.088,-56.766
 13:49:04.442,eb:33:2e:f9:57:b5, 2015-01-01 00:13:14.250,0,0.024,0.997,-0.305,0,0.061, , , , , , ,1.28,-0.088,-56.766
 13:49:04.442,eb:33:2e:f9:57:b5, 2015-01-01 00:13:14.250,0,0.024,0.996,-0.305,-0.061,0, , , , , , ,1.28,-0.088,-56.766
 13:49:04.442,eb:33:2e:f9:57:b5, 2015-01-01 00:13:14.250,0.001,0.024,0.996,-0.305,-0.122,0.061, , , , , , ,1.28,-0.088,-56.766
 13:49:04.442,eb:33:2e:f9:57:b5, 2015-01-01 00:13:14.250,0.001,0.024,0.996,-0.305,-0.122,0.061, , , , , , ,1.28,-0.088,-56.766
 13:49:04.487,eb:33:2e:f9:57:b5, 2015-01-01 00:13:14.250,0.001,0.024,0.996,-0.366,-0.183,0.061, , , , , , ,1.28,-0.088,-56.766
 13:49:04.487,eb:33:2e:f9:57:b5, 2015-01-01 00:13:14.250,0.001,0.023,0.996,-0.366,-0.183,0.061, , , , , , ,1.28,-0.088,-56.766
 13:49:04.487,eb:33:2e:f9:57:b5, 2015-01-01 00:13:14.250,0.001,0.024,0.996,-0.427,-0.183,0.061, , , , , , ,1.285,-0.088,-56.766
 13:49:04.488,eb:33:2e:f9:57:b5, 2015-01-01 00:13:14.250,0.002,0.024,0.995,-0.427,-0.183,0.061, , , , , , ,1.285,-0.088,-56.766
 13:49:04.488,eb:33:2e:f9:57:b5, 2015-01-01 00:13:14.250,0.002,0.025,0.996,-0.488,-0.183,0.061, , , , , , ,1.285,-0.088,-56.766
 13:49:04.488,eb:33:2e:f9:57:b5, 2015-01-01 00:13:14.250,0.002,0.024,0.998,-0.488,-0.183,0, , , , , , ,1.285,-0.088,-56.766
 13:49:04.488,eb:33:2e:f9:57:b5, 2015-01-01 00:13:14.250,0.002,0.023,0.999,-0.427,-0.183,0, , , , , , ,1.285,-0.088,-56.766
 13:49:04.488,eb:33:2e:f9:57:b5, 2015-01-01 00:13:14.250,0.002,0.024,0.999,-0.366,-0.122,0.061, , , , , , ,1.285,-0.088,-56.766
 13:49:04.509,eb:33:2e:f9:57:b5, 2015-01-01 00:13:14.250,0.002,0.023,0.999,-0.366,-0.122,0.061, , , , , , ,1.285,-0.088,-56.766
 13:49:04.509,eb:33:2e:f9:57:b5, 2015-01-01 00:13:14.250,0.003,0.022,0.999,-0.244,-0.061,0.061, , , , , , ,1.285,-0.088,-56.766
 13:49:04.509,eb:33:2e:f9:57:b5, 2015-01-01 00:13:14.250,0.003,0.023,1,-0.183,0,0.061, , , , , , ,1.285,-0.088,-56.766
 13:49:04.509,eb:33:2e:f9:57:b5, 2015-01-01 00:13:14.250,0,0.023,1,-0.122,0.061,0.061, , , , , , ,1.285,-0.088,-56.766
 13:49:04.509,eb:33:2e:f9:57:b5, 2015-01-01 00:13:14.250,0,0.023,0.997,-0.122,0,0.061, , , , , , ,1.285,-0.088,-56.766
 13:49:04.509,eb:33:2e:f9:57:b5, 2015-01-01 00:13:14.250,0,0.023,0.995,-0.122,-0.061,0.061, , , , , , ,1.285,-0.088,-56.766
 13:49:04.509,eb:33:2e:f9:57:b5, 2015-01-01 00:13:14.250,0.002,0.023,0.995,-0.122,-0.122,0.061, , , , , , ,1.285,-0.088,-56.766
 13:49:04.509,eb:33:2e:f9:57:b5, 2015-01-01 00:13:14.250,0.001,0.024,0.996,-0.183,-0.122,0.122, , , , , , ,1.285,-0.088,-56.766
 13:49:04.553,eb:33:2e:f9:57:b5, 2015-01-01 00:13:14.250,0,0.024,0.996,-0.305,-0.122,0.061, , , , , , ,1.285,-0.088,-56.766
 13:49:04.553,eb:33:2e:f9:57:b5, 2015-01-01 00:13:14.250,0.001,0.024,0.995,-0.366,-0.183,0.122, , , , , , ,1.285,-0.088,-56.766
 13:49:04.553,eb:33:2e:f9:57:b5, 2015-01-01 00:13:14.250,0.001,0.024,0.995,-0.427,-0.183,0.061, , , , , , ,1.285,-0.088,-56.766
 13:49:04.553,eb:33:2e:f9:57:b5, 2015-01-01 00:13:14.250,0.002,0.024,0.996,-0.427,-0.122,0, , , , , , ,1.285,-0.088,-56.766
 13:49:04.553,eb:33:2e:f9:57:b5, 2015-01-01 00:13:14.250,0.002,0.023,0.997,-0.488,-0.122,0, , , , , , ,1.285,-0.088,-56.766
 13:49:04.553,eb:33:2e:f9:57:b5, 2015-01-01 00:13:14.250,0.002,0.024,0.997,-0.488,-0.061,0, , , , , , ,1.285,-0.088,-56.766
 13:49:04.553,eb:33:2e:f9:57:b5, 2015-01-01 00:13:14.250,0.002,0.024,0.997,-0.488,0,0, , , , , , ,1.285,-0.088,-56.766
 13:49:04.553,eb:33:2e:f9:57:b5, 2015-01-01 00:13:14.250,0.003,0.023,0.997,-0.549,0,-0.061, , , , , , ,1.285,-0.088,-56.766
 13:49:04.621,eb:33:2e:f9:57:b5, 2015-01-01 00:13:14.250,0.002,0.024,0.997,-0.549,0,-0.061, , , , , , ,1.285,-0.088,-56.766
 13:49:04.621,eb:33:2e:f9:57:b5, 2015-01-01 00:13:14.250,0.002,0.023,0.997,-0.61,0.061,-0.061, , , , , , ,1.285,-0.088,-56.766
 13:49:04.621,eb:33:2e:f9:57:b5, 2015-01-01 00:13:14.250,0.002,0.024,0.997,-0.61,0.122,-0.183, , , , , , ,1.285,-0.088,-56.766
 13:49:04.622,eb:33:2e:f9:57:b5, 2015-01-01 00:13:14.250,0.001,0.023,0.997,-0.61,0.183,-0.183, , , , , , ,1.285,-0.088,-56.766
 13:49:04.622,eb:33:2e:f9:57:b5, 2015-01-01 00:13:14.250,0.001,0.022,0.997,-0.61,0.183,-0.122, , , , , , ,1.285,-0.088,-56.766
 13:49:04.622,eb:33:2e:f9:57:b5, 2015-01-01 00:13:14.250,0.001,0.023,0.997,-0.549,0.122,-0.061, , , , , , ,1.285,-0.088,-56.766
 13:49:04.622,eb:33:2e:f9:57:b5, 2015-01-01 00:13:14.250,0.001,0.022,0.997,-0.549,0.061,-0.061, , , , , , ,1.285,-0.088,-56.766
 13:49:04.622,eb:33:2e:f9:57:b5, 2015-01-01 00:13:14.250,0.001,0.022,0.997,-0.549,0,0, , , , , , ,1.285,-0.088,-56.766
 13:49:04.644,eb:33:2e:f9:57:b5, 2015-01-01 00:13:14.605,0,0.023,0.996,-0.61,0,0, , , , , , ,1.285,-0.088,-56.766
 13:49:04.644,eb:33:2e:f9:57:b5, 2015-01-01 00:13:14.605,0,0.021,0.994,-0.671,-0.061,0, , , , , , ,1.285,-0.088,-56.766
 13:49:04.644,eb:33:2e:f9:57:b5, 2015-01-01 00:13:14.605,0.001,0.022,0.995,-0.671,-0.183,0, , , , , , ,1.285,-0.088,-56.766
 13:49:04.644,eb:33:2e:f9:57:b5, 2015-01-01 00:13:14.605,0.002,0.023,0.996,-0.671,-0.183,0, , , , , , ,1.285,-0.088,-56.766
 13:49:04.644,eb:33:2e:f9:57:b5, 2015-01-01 00:13:14.605,0.002,0.022,0.997,-0.671,-0.244,-0.061, , , , , , ,1.285,-0.088,-56.766
 13:49:04.644,eb:33:2e:f9:57:b5, 2015-01-01 00:13:14.605,0.003,0.021,0.999,-0.549,-0.183,0, , , , , , ,1.285,-0.088,-56.766
 13:49:04.644,eb:33:2e:f9:57:b5, 2015-01-01 00:13:14.605,0.004,0.022,1,-0.427,-0.183,0, , , , , , ,1.285,-0.088,-56.766
 13:49:04.644,eb:33:2e:f9:57:b5, 2015-01-01 00:13:14.605,0.003,0.022,1,-0.366,-0.061,0, , , , , , ,1.285,-0.088,-56.766
 13:49:04.666,eb:33:2e:f9:57:b5, 2015-01-01 00:13:14.605,0.004,0.02,1.001,-0.244,0,0.061, , , , , , ,1.285,-0.088,-56.766
 13:49:04.666,eb:33:2e:f9:57:b5, 2015-01-01 00:13:14.605,0.005,0.02,1.002,-0.061,0,0.122, , , , , , ,1.285,-0.088,-56.766
 13:49:04.666,eb:33:2e:f9:57:b5, 2015-01-01 00:13:14.605,0.004,0.021,1.002,0.061,0.122,0.122, , , , , , ,1.285,-0.088,-56.766
 13:49:04.666,eb:33:2e:f9:57:b5, 2015-01-01 00:13:14.605,0,0.021,1,0.061,0.244,0.122, , , , , , ,1.285,-0.088,-56.766
 13:49:04.666,eb:33:2e:f9:57:b5, 2015-01-01 00:13:14.605,0,0.021,0.998,0.183,0.183,0.122, , , , , , ,1.285,-0.088,-56.766
 13:49:04.666,eb:33:2e:f9:57:b5, 2015-01-01 00:13:14.605,0,0.021,0.996,0.183,0,0.122, , , , , , ,1.285,-0.088,-56.766
 13:49:04.666,eb:33:2e:f9:57:b5, 2015-01-01 00:13:14.605,0.002,0.022,0.997,0.122,-0.061,0.183, , , , , , ,1.285,-0.088,-56.766
 13:49:04.666,eb:33:2e:f9:57:b5, 2015-01-01 00:13:14.605,0.002,0.022,0.997,0.183,-0.061,0.183, , , , , , ,1.285,-0.088,-56.766
 13:49:04.711,eb:33:2e:f9:57:b5, 2015-01-01 00:13:14.605,0.001,0.022,0.997,0.183,-0.061,0.183, , , , , , ,1.285,-0.088,-56.766
 13:49:04.711,eb:33:2e:f9:57:b5, 2015-01-01 00:13:14.605,0.001,0.022,0.997,0.183,-0.122,0.244, , , , , , ,1.285,-0.088,-56.766
 13:49:04.711,eb:33:2e:f9:57:b5, 2015-01-01 00:13:14.605,0.001,0.023,0.995,0.061,-0.061,0.244, , , , , , ,1.285,-0.088,-56.766
 13:49:04.711,eb:33:2e:f9:57:b5, 2015-01-01 00:13:14.605,0.002,0.023,0.995,0.122,-0.122,0.183, , , , , , ,1.285,-0.088,-56.766
 13:49:04.711,eb:33:2e:f9:57:b5, 2015-01-01 00:13:14.605,0.002,0.023,0.996,0.061,0,0.183, , , , , , ,1.285,-0.088,-56.766
 13:49:04.711,eb:33:2e:f9:57:b5, 2015-01-01 00:13:14.605,0.002,0.023,0.996,0.061,0,0.122, , , , , , ,1.285,-0.088,-56.766
 13:49:04.711,eb:33:2e:f9:57:b5, 2015-01-01 00:13:14.605,0.002,0.023,0.997,0,0,0.122, , , , , , ,1.285,-0.088,-56.766
 13:49:04.711,eb:33:2e:f9:57:b5, 2015-01-01 00:13:14.605,0.001,0.023,0.997,0,0,0.061, , , , , , ,1.285,-0.088,-56.766
 13:49:04.757,eb:33:2e:f9:57:b5, 2015-01-01 00:13:14.605,0,0.023,0.996,-0.061,0,0.061, , , , , , ,1.285,-0.088,-56.766
 13:49:04.757,eb:33:2e:f9:57:b5, 2015-01-01 00:13:14.605,0.001,0.023,0.996,-0.061,0,0.122, , , , , , ,1.285,-0.088,-56.766
 13:49:04.757,eb:33:2e:f9:57:b5, 2015-01-01 00:13:14.605,0.001,0.022,0.997,-0.122,0,0.122, , , , , , ,1.285,-0.088,-56.766
 13:49:04.757,eb:33:2e:f9:57:b5, 2015-01-01 00:13:14.605,0.002,0.022,0.997,-0.122,0,0.061, , , , , , ,1.285,-0.088,-56.766
 13:49:04.757,eb:33:2e:f9:57:b5, 2015-01-01 00:13:14.605,0.002,0.023,0.996,-0.122,0,0.061, , , , , , ,1.285,-0.088,-56.766
 13:49:04.758,eb:33:2e:f9:57:b5, 2015-01-01 00:13:14.605,0.002,0.023,0.997,-0.183,0,0, , , , , , ,1.285,-0.088,-56.766
 13:49:04.758,eb:33:2e:f9:57:b5, 2015-01-01 00:13:14.605,0.001,0.022,0.997,-0.122,0,0, , , , , , ,1.285,-0.088,-56.766
 13:49:04.758,eb:33:2e:f9:57:b5, 2015-01-01 00:13:14.605,0.001,0.022,0.997,-0.122,0,0, , , , , , ,1.285,-0.088,-56.766
 13:49:04.803,eb:33:2e:f9:57:b5, 2015-01-01 00:13:14.605,0.003,0.022,0.998,-0.122,0.061,0, , , , , , ,1.285,-0.088,-56.766
 13:49:04.803,eb:33:2e:f9:57:b5, 2015-01-01 00:13:14.605,0.002,0.023,0.998,-0.061,0.122,0, , , , , , ,1.285,-0.088,-56.766
 13:49:04.803,eb:33:2e:f9:57:b5, 2015-01-01 00:13:14.605,0.001,0.022,0.999,-0.061,0.122,0.061, , , , , , ,1.285,-0.093,-56.766
 13:49:04.803,eb:33:2e:f9:57:b5, 2015-01-01 00:13:14.605,0,0.021,0.997,-0.061,0.183,0.061, , , , , , ,1.285,-0.093,-56.766
 13:49:04.803,eb:33:2e:f9:57:b5, 2015-01-01 00:13:14.605,0,0.022,0.996,0,0.122,0.061, , , , , , ,1.285,-0.093,-56.766
 13:49:04.803,eb:33:2e:f9:57:b5, 2015-01-01 00:13:14.605,0,0.022,0.996,0,0.122,0.061, , , , , , ,1.285,-0.093,-56.766
 13:49:04.803,eb:33:2e:f9:57:b5, 2015-01-01 00:13:14.605,0,0.022,0.996,-0.061,0,0.183, , , , , , ,1.285,-0.093,-56.766
 13:49:04.803,eb:33:2e:f9:57:b5, 2015-01-01 00:13:14.605,0,0.023,0.996,0,-0.061,0.183, , , , , , ,1.285,-0.093,-56.766
 13:49:04.824,eb:33:2e:f9:57:b5, 2015-01-01 00:13:14.605,0.001,0.023,0.996,0,-0.122,0.183, , , , , , ,1.285,-0.093,-56.766
 13:49:04.824,eb:33:2e:f9:57:b5, 2015-01-01 00:13:14.605,0,0.022,0.996,-0.061,-0.061,0.122, , , , , , ,1.285,-0.093,-56.766
 13:49:04.824,eb:33:2e:f9:57:b5, 2015-01-01 00:13:14.605,0,0.022,0.995,-0.122,-0.122,0.183, , , , , , ,1.285,-0.093,-56.766
 13:49:04.824,eb:33:2e:f9:57:b5, 2015-01-01 00:13:14.605,0.001,0.022,0.995,-0.183,-0.183,0.122, , , , , , ,1.285,-0.093,-56.766
 13:49:04.824,eb:33:2e:f9:57:b5, 2015-01-01 00:13:14.605,0.001,0.022,0.995,-0.244,-0.183,0.122, , , , , , ,1.285,-0.093,-56.766
 13:49:04.824,eb:33:2e:f9:57:b5, 2015-01-01 00:13:14.605,0.001,0.023,0.996,-0.244,-0.183,0.122, , , , , , ,1.285,-0.093,-56.766
 13:49:04.824,eb:33:2e:f9:57:b5, 2015-01-01 00:13:14.605,0.002,0.023,0.995,-0.244,-0.183,0.183, , , , , , ,1.285,-0.088,-56.766
 13:49:04.824,eb:33:2e:f9:57:b5, 2015-01-01 00:13:14.605,0.002,0.023,0.996,-0.244,-0.244,0.122, , , , , , ,1.285,-0.088,-56.766
 13:49:04.868,eb:33:2e:f9:57:b5, 2015-01-01 00:13:14.605,0.001,0.023,0.996,-0.305,-0.183,0.122, , , , , , ,1.285,-0.088,-56.766
 13:49:04.868,eb:33:2e:f9:57:b5, 2015-01-01 00:13:14.605,0.002,0.022,0.997,-0.366,-0.183,0.061, , , , , , ,1.285,-0.088,-56.766
 13:49:04.868,eb:33:2e:f9:57:b5, 2015-01-01 00:13:14.605,0.002,0.022,0.996,-0.366,-0.122,0.061, , , , , , ,1.285,-0.088,-56.766
 13:49:04.868,eb:33:2e:f9:57:b5, 2015-01-01 00:13:14.605,0.002,0.022,0.996,-0.366,-0.122,0.061, , , , , , ,1.285,-0.088,-56.766
 13:49:04.868,eb:33:2e:f9:57:b5, 2015-01-01 00:13:14.605,0.003,0.022,0.997,-0.366,-0.122,0.061, , , , , , ,1.285,-0.088,-56.766
 13:49:04.868,eb:33:2e:f9:57:b5, 2015-01-01 00:13:14.605,0.003,0.022,0.998,-0.366,-0.122,0, , , , , , ,1.285,-0.088,-56.766
 13:49:04.868,eb:33:2e:f9:57:b5, 2015-01-01 00:13:14.605,0.004,0.021,0.999,-0.366,-0.061,0, , , , , , ,1.285,-0.093,-56.766
 13:49:04.868,eb:33:2e:f9:57:b5, 2015-01-01 00:13:14.605,0.003,0.021,1,-0.305,0.061,0, , , , , , ,1.285,-0.093,-56.766
 13:49:04.937,eb:33:2e:f9:57:b5, 2015-01-01 00:13:14.605,0.002,0.022,0.998,-0.244,0.122,0.061, , , , , , ,1.285,-0.093,-56.766
 13:49:04.937,eb:33:2e:f9:57:b5, 2015-01-01 00:13:14.605,0.001,0.022,0.997,-0.244,0.122,0, , , , , , ,1.285,-0.093,-56.766
 13:49:04.937,eb:33:2e:f9:57:b5, 2015-01-01 00:13:14.605,0.001,0.022,0.998,-0.244,0.122,0, , , , , , ,1.285,-0.093,-56.766
 13:49:04.937,eb:33:2e:f9:57:b5, 2015-01-01 00:13:14.605,0,0.021,0.999,-0.183,0.122,0, , , , , , ,1.285,-0.093,-56.766
 13:49:04.937,eb:33:2e:f9:57:b5, 2015-01-01 00:13:14.605,0,0.022,0.998,-0.122,0.061,0.061, , , , , , ,1.285,-0.093,-56.766
 13:49:04.937,eb:33:2e:f9:57:b5, 2015-01-01 00:13:14.605,-0.001,0.022,0.995,-0.183,0,0.061, , , , , , ,1.285,-0.093,-56.766
 13:49:04.937,eb:33:2e:f9:57:b5, 2015-01-01 00:13:14.605,0,0.022,0.994,-0.183,-0.122,0.122, , , , , , ,1.285,-0.093,-56.766
 13:49:04.937,eb:33:2e:f9:57:b5, 2015-01-01 00:13:14.605,0.001,0.022,0.995,-0.183,-0.244,0.061, , , , , , ,1.285,-0.093,-56.766
 13:49:04.959,eb:33:2e:f9:57:b5, 2015-01-01 00:13:14.605,0.003,0.022,0.996,-0.244,-0.244,0.122, , , , , , ,1.285,-0.093,-56.766
 13:49:04.959,eb:33:2e:f9:57:b5, 2015-01-01 00:13:14.605,0.001,0.022,0.996,-0.244,-0.244,0.061, , , , , , ,1.285,-0.093,-56.766
 13:49:04.959,eb:33:2e:f9:57:b5, 2015-01-01 00:13:14.605,0.001,0.023,0.996,-0.305,-0.244,0.061, , , , , , ,1.285,-0.093,-56.766
 13:49:04.959,eb:33:2e:f9:57:b5, 2015-01-01 00:13:14.605,0.002,0.023,0.996,-0.305,-0.183,0.061, , , , , , ,1.285,-0.093,-56.766
 13:49:04.959,eb:33:2e:f9:57:b5, 2015-01-01 00:13:14.605,0.002,0.023,0.996,-0.427,-0.122,0.061, , , , , , ,1.285,-0.093,-56.766
 13:49:04.959,eb:33:2e:f9:57:b5, 2015-01-01 00:13:14.605,0.002,0.023,0.997,-0.488,-0.122,0, , , , , , ,1.285,-0.093,-56.766
 13:49:04.959,eb:33:2e:f9:57:b5, 2015-01-01 00:13:14.605,0.002,0.023,0.997,-0.488,-0.061,0, , , , , , ,1.285,-0.093,-56.766
 13:49:04.959,eb:33:2e:f9:57:b5, 2015-01-01 00:13:14.605,0.002,0.022,0.997,-0.427,-0.061,0, , , , , , ,1.285,-0.093,-56.766
 13:49:05.050,eb:33:2e:f9:57:b5, 2015-01-01 00:13:14.940,0.001,0.022,0.998,-0.488,-0.061,0, , , , , , ,1.285,-0.093,-56.766
 13:49:05.050,eb:33:2e:f9:57:b5, 2015-01-01 00:13:14.940,0,0.022,0.998,-0.488,-0.061,0, , , , , , ,1.285,-0.093,-56.766
 13:49:05.050,eb:33:2e:f9:57:b5, 2015-01-01 00:13:14.940,-0.001,0.021,0.997,-0.427,-0.122,0.061, , , , , , ,1.285,-0.093,-56.766
 13:49:05.050,eb:33:2e:f9:57:b5, 2015-01-01 00:13:14.940,0.012,0.02,0.997,-0.366,-0.183,0.122, , , , , , ,1.285,-0.093,-56.766
 13:49:05.050,eb:33:2e:f9:57:b5, 2015-01-01 00:13:14.940,0.007,0.023,1.005,-0.244,0.061,-0.122, , , , , , ,1.285,-0.093,-56.766
 13:49:05.050,eb:33:2e:f9:57:b5, 2015-01-01 00:13:14.940,0.002,0.02,1.003,-0.122,0.427,0, , , , , , ,1.285,-0.093,-56.766
 13:49:05.050,eb:33:2e:f9:57:b5, 2015-01-01 00:13:14.940,-0.001,0.02,0.999,0,0.366,0, , , , , , ,1.285,-0.093,-56.766
 13:49:05.050,eb:33:2e:f9:57:b5, 2015-01-01 00:13:14.940,-0.002,0.02,0.996,0,0.244,0, , , , , , ,1.285,-0.093,-56.766
 13:49:05.073,eb:33:2e:f9:57:b5, 2015-01-01 00:13:14.940,0.002,0.019,0.996,0.122,0.061,0.061, , , , , , ,1.285,-0.093,-56.766
 13:49:05.073,eb:33:2e:f9:57:b5, 2015-01-01 00:13:14.940,0.001,0.021,0.999,0.122,0.061,0.122, , , , , , ,1.285,-0.093,-56.766
 13:49:05.073,eb:33:2e:f9:57:b5, 2015-01-01 00:13:14.940,-0.002,0.021,0.998,0.122,0.061,0.183, , , , , , ,1.285,-0.093,-56.766
 13:49:05.073,eb:33:2e:f9:57:b5, 2015-01-01 00:13:14.940,0,0.02,0.995,0.183,-0.061,0.244, , , , , , ,1.285,-0.093,-56.766
 13:49:05.073,eb:33:2e:f9:57:b5, 2015-01-01 00:13:14.940,0.001,0.021,0.995,0.183,-0.244,0.305, , , , , , ,1.285,-0.093,-56.766
 13:49:05.073,eb:33:2e:f9:57:b5, 2015-01-01 00:13:14.940,0.002,0.021,0.996,0.122,-0.183,0.244, , , , , , ,1.285,-0.093,-56.766
 13:49:05.073,eb:33:2e:f9:57:b5, 2015-01-01 00:13:14.940,0.003,0.022,0.998,0.183,-0.244,0.305, , , , , , ,1.285,-0.093,-56.766
 13:49:05.073,eb:33:2e:f9:57:b5, 2015-01-01 00:13:14.940,0.001,0.023,0.997,0.122,-0.244,0.244, , , , , , ,1.285,-0.093,-56.766
 13:49:05.073,eb:33:2e:f9:57:b5, 2015-01-01 00:13:14.940,0.001,0.022,0.995,0.061,-0.183,0.183, , , , , , ,1.285,-0.093,-56.766
 13:49:05.073,eb:33:2e:f9:57:b5, 2015-01-01 00:13:14.940,0.002,0.022,0.995,0.061,-0.183,0.183, , , , , , ,1.285,-0.093,-56.766
 13:49:05.073,eb:33:2e:f9:57:b5, 2015-01-01 00:13:14.940,0.004,0.023,0.995,0,-0.183,0.122, , , , , , ,1.285,-0.093,-56.766
 13:49:05.073,eb:33:2e:f9:57:b5, 2015-01-01 00:13:14.940,0.003,0.022,0.997,-0.061,-0.122,0.122, , , , , , ,1.285,-0.093,-56.766
 13:49:05.073,eb:33:2e:f9:57:b5, 2015-01-01 00:13:14.940,0.002,0.022,0.996,-0.061,0,0.061, , , , , , ,1.285,-0.093,-56.766
 13:49:05.074,eb:33:2e:f9:57:b5, 2015-01-01 00:13:14.940,0.002,0.022,0.997,-0.061,0,0.122, , , , , , ,1.285,-0.093,-56.766
 13:49:05.074,eb:33:2e:f9:57:b5, 2015-01-01 00:13:14.940,0.003,0.021,0.998,-0.122,0,0.061, , , , , , ,1.285,-0.093,-56.766
 13:49:05.074,eb:33:2e:f9:57:b5, 2015-01-01 00:13:14.940,0.003,0.021,0.999,-0.061,0.061,0.061, , , , , , ,1.285,-0.093,-56.766
 13:49:05.116,eb:33:2e:f9:57:b5, 2015-01-01 00:13:14.940,0.001,0.021,0.999,0,0.122,0.122, , , , , , ,1.285,-0.093,-56.766
 13:49:05.116,eb:33:2e:f9:57:b5, 2015-01-01 00:13:14.940,0,0.022,0.997,0,0.183,0.122, , , , , , ,1.285,-0.093,-56.766
 13:49:05.116,eb:33:2e:f9:57:b5, 2015-01-01 00:13:14.940,0.001,0.022,0.996,0,0.061,0.183, , , , , , ,1.285,-0.093,-56.766
 13:49:05.116,eb:33:2e:f9:57:b5, 2015-01-01 00:13:14.940,0.001,0.021,0.996,0.061,0.061,0.122, , , , , , ,1.285,-0.093,-56.766
 13:49:05.116,eb:33:2e:f9:57:b5, 2015-01-01 00:13:14.940,0.002,0.021,0.998,0,0,0.183, , , , , , ,1.285,-0.093,-56.766
 13:49:05.116,eb:33:2e:f9:57:b5, 2015-01-01 00:13:14.940,0.001,0.021,0.998,0.061,0,0.183, , , , , , ,1.285,-0.093,-56.766
 13:49:05.116,eb:33:2e:f9:57:b5, 2015-01-01 00:13:14.940,0,0.021,0.997,0.061,0,0.183, , , , , , ,1.285,-0.093,-56.766
 13:49:05.116,eb:33:2e:f9:57:b5, 2015-01-01 00:13:14.940,0,0.021,0.996,0.122,0,0.183, , , , , , ,1.285,-0.093,-56.766
 13:49:05.185,eb:33:2e:f9:57:b5, 2015-01-01 00:13:14.940,0,0.022,0.996,0.061,-0.122,0.183, , , , , , ,1.285,-0.093,-56.766
 13:49:05.185,eb:33:2e:f9:57:b5, 2015-01-01 00:13:14.940,0.001,0.022,0.996,0.061,-0.061,0.183, , , , , , ,1.285,-0.093,-56.766
 13:49:05.185,eb:33:2e:f9:57:b5, 2015-01-01 00:13:14.940,0.002,0.023,0.995,0,-0.061,0.183, , , , , , ,1.285,-0.093,-56.766
 13:49:05.185,eb:33:2e:f9:57:b5, 2015-01-01 00:13:14.940,0.003,0.022,0.997,0,-0.122,0.183, , , , , , ,1.285,-0.093,-56.766
 13:49:05.185,eb:33:2e:f9:57:b5, 2015-01-01 00:13:14.940,0,0.022,0.997,0,-0.122,0.183, , , , , , ,1.285,-0.093,-56.766
 13:49:05.185,eb:33:2e:f9:57:b5, 2015-01-01 00:13:14.940,0,0.022,0.995,0,-0.183,0.244, , , , , , ,1.285,-0.093,-56.766
 13:49:05.185,eb:33:2e:f9:57:b5, 2015-01-01 00:13:14.940,0.001,0.022,0.995,0,-0.305,0.244, , , , , , ,1.285,-0.093,-56.766
 13:49:05.185,eb:33:2e:f9:57:b5, 2015-01-01 00:13:14.940,0.003,0.022,0.997,0,-0.305,0.244, , , , , , ,1.285,-0.093,-56.766
 13:49:05.207,eb:33:2e:f9:57:b5, 2015-01-01 00:13:14.940,0.003,0.022,0.999,-0.061,-0.122,0.244, , , , , , ,1.285,-0.093,-56.766
 13:49:05.207,eb:33:2e:f9:57:b5, 2015-01-01 00:13:14.940,0.003,0.022,0.999,0,-0.122,0.183, , , , , , ,1.285,-0.093,-56.766
 13:49:05.207,eb:33:2e:f9:57:b5, 2015-01-01 00:13:14.940,0.003,0.022,1,0,0,0.183, , , , , , ,1.285,-0.093,-56.766
 13:49:05.207,eb:33:2e:f9:57:b5, 2015-01-01 00:13:14.940,0.002,0.022,0.999,0.061,0,0.244, , , , , , ,1.285,-0.093,-56.766
 13:49:05.207,eb:33:2e:f9:57:b5, 2015-01-01 00:13:14.940,0.002,0.022,0.997,0.061,0,0.244, , , , , , ,1.285,-0.093,-56.766
 13:49:05.207,eb:33:2e:f9:57:b5, 2015-01-01 00:13:14.940,0.002,0.022,0.997,0.061,0.061,0.244, , , , , , ,1.285,-0.093,-56.766
 13:49:05.207,eb:33:2e:f9:57:b5, 2015-01-01 00:13:14.940,0,0.022,0.997,0.061,0,0.244, , , , , , ,1.285,-0.093,-56.766
 13:49:05.207,eb:33:2e:f9:57:b5, 2015-01-01 00:13:14.940,0.001,0.022,0.996,0.061,0,0.244, , , , , , ,1.285,-0.093,-56.766
 13:49:05.275,eb:33:2e:f9:57:b5, 2015-01-01 00:13:14.940,0,0.021,0.997,0.122,0,0.244, , , , , , ,1.285,-0.093,-56.766
 13:49:05.275,eb:33:2e:f9:57:b5, 2015-01-01 00:13:14.940,0.001,0.021,0.996,0.122,-0.061,0.305, , , , , , ,1.285,-0.093,-56.766
 13:49:05.275,eb:33:2e:f9:57:b5, 2015-01-01 00:13:14.940,0.001,0.022,0.996,0.122,-0.183,0.305, , , , , , ,1.285,-0.093,-56.766
 13:49:05.275,eb:33:2e:f9:57:b5, 2015-01-01 00:13:14.940,0.001,0.022,0.996,0.122,-0.244,0.305, , , , , , ,1.285,-0.093,-56.766
 13:49:05.275,eb:33:2e:f9:57:b5, 2015-01-01 00:13:14.940,0.001,0.022,0.997,0.122,-0.183,0.305, , , , , , ,1.285,-0.093,-56.766
 13:49:05.275,eb:33:2e:f9:57:b5, 2015-01-01 00:13:14.940,0.001,0.022,0.996,0.122,-0.244,0.305, , , , , , ,1.285,-0.093,-56.766
 13:49:05.275,eb:33:2e:f9:57:b5, 2015-01-01 00:13:14.940,0.001,0.023,0.995,0,-0.244,0.305, , , , , , ,1.285,-0.093,-56.766
 13:49:05.275,eb:33:2e:f9:57:b5, 2015-01-01 00:13:14.940,0.001,0.023,0.995,0,-0.244,0.305, , , , , , ,1.285,-0.093,-56.766
 13:49:05.387,eb:33:2e:f9:57:b5, 2015-01-01 00:13:14.940,0.003,0.023,0.995,-0.061,-0.244,0.244, , , , , , ,1.285,-0.093,-56.766
 13:49:05.387,eb:33:2e:f9:57:b5, 2015-01-01 00:13:14.940,0.002,0.023,0.995,-0.061,-0.244,0.183, , , , , , ,1.285,-0.093,-56.766
 13:49:05.387,eb:33:2e:f9:57:b5, 2015-01-01 00:13:14.940,0.003,0.023,0.996,-0.122,-0.183,0.183, , , , , , ,1.285,-0.093,-56.766
 13:49:05.387,eb:33:2e:f9:57:b5, 2015-01-01 00:13:14.940,0.004,0.022,0.998,-0.122,-0.122,0.183, , , , , , ,1.285,-0.093,-56.766
 13:49:05.387,eb:33:2e:f9:57:b5, 2015-01-01 00:13:14.940,0.004,0.022,0.999,-0.122,-0.061,0.122, , , , , , ,1.285,-0.093,-56.766
 13:49:05.387,eb:33:2e:f9:57:b5, 2015-01-01 00:13:14.940,0.002,0.023,0.999,-0.061,0.061,0.122, , , , , , ,1.285,-0.093,-56.766
 13:49:05.387,eb:33:2e:f9:57:b5, 2015-01-01 00:13:14.940,0,0.022,0.998,-0.061,0.061,0.061, , , , , , ,1.285,-0.093,-56.766
 13:49:05.387,eb:33:2e:f9:57:b5, 2015-01-01 00:13:14.940,0.001,0.021,0.997,0,0,0.122, , , , , , ,1.285,-0.093,-56.766
 13:49:05.387,eb:33:2e:f9:57:b5, 2015-01-01 00:13:14.940,0.001,0.022,0.997,0,0,0.122, , , , , , ,1.285,-0.093,-56.766
 13:49:05.387,eb:33:2e:f9:57:b5, 2015-01-01 00:13:14.940,0.001,0.021,0.997,0,0,0.122, , , , , , ,1.285,-0.093,-56.766
 13:49:05.387,eb:33:2e:f9:57:b5, 2015-01-01 00:13:14.940,0,0.022,0.997,0,0,0.244, , , , , , ,1.285,-0.093,-56.766
 13:49:05.387,eb:33:2e:f9:57:b5, 2015-01-01 00:13:14.940,0,0.022,0.995,0,-0.061,0.183, , , , , , ,1.285,-0.093,-56.766
 13:49:05.387,eb:33:2e:f9:57:b5, 2015-01-01 00:13:14.940,0.001,0.022,0.994,0,-0.244,0.244, , , , , , ,1.285,-0.093,-56.766
 13:49:05.387,eb:33:2e:f9:57:b5, 2015-01-01 00:13:14.940,0.002,0.022,0.996,0,-0.244,0.183, , , , , , ,1.285,-0.093,-56.766
 13:49:05.387,eb:33:2e:f9:57:b5, 2015-01-01 00:13:14.940,0.001,0.023,0.997,-0.061,-0.244,0.122, , , , , , ,1.285,-0.093,-56.766
 13:49:05.387,eb:33:2e:f9:57:b5, 2015-01-01 00:13:14.940,0.001,0.023,0.995,-0.061,-0.305,0.183, , , , , , ,1.285,-0.093,-56.766
 13:49:05.389,eb:33:2e:f9:57:b5, 2015-01-01 00:13:14.940,0.002,0.023,0.996,-0.061,-0.244,0.244, , , , , , ,1.285,-0.093,-56.766
 13:49:05.389,eb:33:2e:f9:57:b5, 2015-01-01 00:13:14.940,0.003,0.024,0.997,-0.061,-0.244,0.244, , , , , , ,1.285,-0.093,-56.766
 13:49:05.389,eb:33:2e:f9:57:b5, 2015-01-01 00:13:14.940,0.004,0.022,0.997,-0.122,-0.183,0.122, , , , , , ,1.285,-0.093,-56.766
 13:49:05.389,eb:33:2e:f9:57:b5, 2015-01-01 00:13:14.940,0.003,0.022,0.998,-0.183,-0.122,0.122, , , , , , ,1.285,-0.093,-56.766
 13:49:05.389,eb:33:2e:f9:57:b5, 2015-01-01 00:13:14.940,0.003,0.022,0.997,-0.122,-0.122,0.122, , , , , , ,1.285,-0.093,-56.766
 13:49:05.389,eb:33:2e:f9:57:b5, 2015-01-01 00:13:14.940,0.003,0.022,0.997,-0.061,0,0.122, , , , , , ,1.285,-0.093,-56.766
 13:49:05.389,eb:33:2e:f9:57:b5, 2015-01-01 00:13:14.940,0.002,0.022,0.997,-0.122,0,0.122, , , , , , ,1.285,-0.093,-56.766
 13:49:05.389,eb:33:2e:f9:57:b5, 2015-01-01 00:13:14.940,0.002,0.023,0.997,-0.122,0,0.061, , , , , , ,1.285,-0.093,-56.766
 13:49:05.394,eb:33:2e:f9:57:b5, 2015-01-01 00:13:14.940,0.001,0.022,0.997,-0.122,0,0.061, , , , , , ,1.285,-0.093,-56.766
 13:49:05.394,eb:33:2e:f9:57:b5, 2015-01-01 00:13:14.940,0,0.022,0.995,-0.122,0,0.122, , , , , , ,1.285,-0.093,-56.766
 13:49:05.394,eb:33:2e:f9:57:b5, 2015-01-01 00:13:14.940,0,0.022,0.995,-0.183,-0.061,0.122, , , , , , ,1.285,-0.093,-56.766
 13:49:05.394,eb:33:2e:f9:57:b5, 2015-01-01 00:13:14.940,0,0.022,0.994,-0.244,-0.061,0, , , , , , ,1.285,-0.093,-56.766
 13:49:05.394,eb:33:2e:f9:57:b5, 2015-01-01 00:13:14.940,0.001,0.023,0.994,-0.305,-0.183,0.061, , , , , , ,1.285,-0.093,-56.766
 13:49:05.394,eb:33:2e:f9:57:b5, 2015-01-01 00:13:14.940,0.002,0.023,0.995,-0.366,-0.244,0.122, , , , , , ,1.285,-0.093,-56.766
 13:49:05.394,eb:33:2e:f9:57:b5, 2015-01-01 00:13:14.940,0.001,0.022,0.996,-0.427,-0.183,0.061, , , , , , ,1.285,-0.093,-56.766
 13:49:05.394,eb:33:2e:f9:57:b5, 2015-01-01 00:13:14.940,0.001,0.023,0.996,-0.488,-0.244,0, , , , , , ,1.285,-0.093,-56.766
 13:49:05.455,eb:33:2e:f9:57:b5, 2015-01-01 00:13:14.940,0.002,0.022,0.996,-0.549,-0.183,0, , , , , , ,1.285,-0.093,-56.766
 13:49:05.455,eb:33:2e:f9:57:b5, 2015-01-01 00:13:14.940,0.003,0.022,0.995,-0.549,-0.244,0, , , , , , ,1.285,-0.093,-56.766
 13:49:05.455,eb:33:2e:f9:57:b5, 2015-01-01 00:13:14.940,0.003,0.023,0.997,-0.549,-0.244,0, , , , , , ,1.285,-0.093,-56.766
 13:49:05.455,eb:33:2e:f9:57:b5, 2015-01-01 00:13:14.940,0.003,0.022,0.997,-0.61,-0.183,-0.061, , , , , , ,1.285,-0.093,-56.766
 13:49:05.455,eb:33:2e:f9:57:b5, 2015-01-01 00:13:14.940,0.002,0.022,0.998,-0.61,-0.122,-0.061, , , , , , ,1.285,-0.093,-56.766
 13:49:05.455,eb:33:2e:f9:57:b5, 2015-01-01 00:13:14.940,0.004,0.023,0.997,-0.671,-0.122,-0.061, , , , , , ,1.285,-0.093,-56.766
 13:49:05.455,eb:33:2e:f9:57:b5, 2015-01-01 00:13:14.940,0.002,0.023,0.997,-0.671,-0.061,-0.122, , , , , , ,1.285,-0.093,-56.766
 13:49:05.456,eb:33:2e:f9:57:b5, 2015-01-01 00:13:14.940,0.003,0.022,0.997,-0.732,0,-0.122, , , , , , ,1.285,-0.093,-56.766
 13:49:05.499,eb:33:2e:f9:57:b5, 2015-01-01 00:13:15.410,0.003,0.021,0.998,-0.732,0,-0.183, , , , , , ,1.285,-0.093,-56.766
 13:49:05.499,eb:33:2e:f9:57:b5, 2015-01-01 00:13:15.410,0.002,0.021,0.998,-0.61,0.061,-0.122, , , , , , ,1.285,-0.093,-56.766
 13:49:05.499,eb:33:2e:f9:57:b5, 2015-01-01 00:13:15.410,0.002,0.02,0.998,-0.671,0.061,-0.122, , , , , , ,1.285,-0.093,-56.766
 13:49:05.499,eb:33:2e:f9:57:b5, 2015-01-01 00:13:15.410,0.001,0.021,0.997,-0.671,0.061,-0.183, , , , , , ,1.285,-0.093,-56.766
 13:49:05.499,eb:33:2e:f9:57:b5, 2015-01-01 00:13:15.410,0.001,0.021,0.996,-0.671,0,-0.122, , , , , , ,1.285,-0.093,-56.766
 13:49:05.499,eb:33:2e:f9:57:b5, 2015-01-01 00:13:15.410,0.001,0.021,0.996,-0.671,0,-0.183, , , , , , ,1.285,-0.093,-56.766
 13:49:05.499,eb:33:2e:f9:57:b5, 2015-01-01 00:13:15.410,0.001,0.021,0.997,-0.671,0,-0.122, , , , , , ,1.285,-0.093,-56.766
 13:49:05.499,eb:33:2e:f9:57:b5, 2015-01-01 00:13:15.410,0,0.021,0.997,-0.732,-0.061,-0.061, , , , , , ,1.285,-0.093,-56.766
 13:49:05.522,eb:33:2e:f9:57:b5, 2015-01-01 00:13:15.410,0,0.021,0.995,-0.732,-0.061,-0.061, , , , , , ,1.285,-0.093,-56.766
 13:49:05.522,eb:33:2e:f9:57:b5, 2015-01-01 00:13:15.410,0.001,0.021,0.994,-0.793,-0.183,-0.122, , , , , , ,1.285,-0.093,-56.766
 13:49:05.522,eb:33:2e:f9:57:b5, 2015-01-01 00:13:15.410,0.002,0.022,0.995,-0.854,-0.244,-0.122, , , , , , ,1.285,-0.093,-56.766
 13:49:05.522,eb:33:2e:f9:57:b5, 2015-01-01 00:13:15.410,0.002,0.022,0.995,-0.916,-0.244,-0.183, , , , , , ,1.285,-0.093,-56.766
 13:49:05.522,eb:33:2e:f9:57:b5, 2015-01-01 00:13:15.410,0.001,0.022,0.995,-0.977,-0.183,-0.183, , , , , , ,1.285,-0.093,-56.766
 13:49:05.522,eb:33:2e:f9:57:b5, 2015-01-01 00:13:15.410,0.003,0.022,0.996,-1.038,-0.183,-0.244, , , , , , ,1.285,-0.093,-56.766
 13:49:05.522,eb:33:2e:f9:57:b5, 2015-01-01 00:13:15.410,0.004,0.021,0.998,-1.038,-0.122,-0.305, , , , , , ,1.285,-0.093,-56.766
 13:49:05.522,eb:33:2e:f9:57:b5, 2015-01-01 00:13:15.410,0.005,0.02,1,-0.977,-0.122,-0.244, , , , , , ,1.285,-0.093,-56.766
 13:49:05.566,eb:33:2e:f9:57:b5, 2015-01-01 00:13:15.410,0.004,0.019,1.001,-0.854,0,-0.183, , , , , , ,1.285,-0.093,-56.766
 13:49:05.566,eb:33:2e:f9:57:b5, 2015-01-01 00:13:15.410,0.004,0.018,1.001,-0.671,0.183,-0.122, , , , , , ,1.285,-0.093,-56.766
 13:49:05.566,eb:33:2e:f9:57:b5, 2015-01-01 00:13:15.410,0.003,0.018,1,-0.427,0.183,-0.061, , , , , , ,1.285,-0.093,-56.766
 13:49:05.566,eb:33:2e:f9:57:b5, 2015-01-01 00:13:15.410,0.002,0.02,1,-0.366,0.244,0, , , , , , ,1.285,-0.093,-56.766
 13:49:05.566,eb:33:2e:f9:57:b5, 2015-01-01 00:13:15.410,0,0.02,0.999,-0.244,0.244,0.061, , , , , , ,1.285,-0.093,-56.766
 13:49:05.566,eb:33:2e:f9:57:b5, 2015-01-01 00:13:15.410,-0.001,0.02,0.996,-0.244,0.061,0.122, , , , , , ,1.285,-0.093,-56.766
 13:49:05.566,eb:33:2e:f9:57:b5, 2015-01-01 00:13:15.410,0,0.021,0.995,-0.244,-0.061,0.061, , , , , , ,1.285,-0.093,-56.766
 13:49:05.566,eb:33:2e:f9:57:b5, 2015-01-01 00:13:15.410,0.001,0.021,0.996,-0.244,-0.244,0.122, , , , , , ,1.285,-0.093,-56.766
 13:49:05.590,eb:33:2e:f9:57:b5, 2015-01-01 00:13:15.410,0,0.021,0.996,-0.244,-0.305,0.122, , , , , , ,1.285,-0.093,-56.766
 13:49:05.590,eb:33:2e:f9:57:b5, 2015-01-01 00:13:15.410,0,0.021,0.996,-0.305,-0.305,0.061, , , , , , ,1.285,-0.093,-56.766
 13:49:05.590,eb:33:2e:f9:57:b5, 2015-01-01 00:13:15.410,0.001,0.022,0.995,-0.305,-0.305,0.061, , , , , , ,1.285,-0.093,-56.766
 13:49:05.590,eb:33:2e:f9:57:b5, 2015-01-01 00:13:15.410,0.002,0.022,0.996,-0.427,-0.366,0.061, , , , , , ,1.285,-0.093,-56.766
 13:49:05.590,eb:33:2e:f9:57:b5, 2015-01-01 00:13:15.410,0.003,0.021,0.997,-0.427,-0.244,0.061, , , , , , ,1.285,-0.093,-56.766
 13:49:05.590,eb:33:2e:f9:57:b5, 2015-01-01 00:13:15.410,0.002,0.021,0.997,-0.488,-0.244,0, , , , , , ,1.285,-0.093,-56.766
 13:49:05.591,eb:33:2e:f9:57:b5, 2015-01-01 00:13:15.410,0.002,0.021,0.997,-0.549,-0.183,0, , , , , , ,1.285,-0.093,-56.766
 13:49:05.591,eb:33:2e:f9:57:b5, 2015-01-01 00:13:15.410,0.001,0.02,0.997,-0.549,-0.183,-0.061, , , , , , ,1.285,-0.093,-56.766
 13:49:05.679,eb:33:2e:f9:57:b5, 2015-01-01 00:13:15.410,0.003,0.02,0.997,-0.61,-0.122,-0.061, , , , , , ,1.285,-0.093,-56.766
 13:49:05.679,eb:33:2e:f9:57:b5, 2015-01-01 00:13:15.410,0.003,0.021,0.996,-0.671,-0.183,-0.061, , , , , , ,1.285,-0.093,-56.766
 13:49:05.679,eb:33:2e:f9:57:b5, 2015-01-01 00:13:15.410,0.003,0.021,0.997,-0.671,-0.122,-0.122, , , , , , ,1.285,-0.093,-56.766
 13:49:05.679,eb:33:2e:f9:57:b5, 2015-01-01 00:13:15.410,0.003,0.021,0.997,-0.732,-0.061,-0.122, , , , , , ,1.285,-0.093,-56.766
 13:49:05.679,eb:33:2e:f9:57:b5, 2015-01-01 00:13:15.410,0.003,0.019,0.998,-0.61,-0.122,-0.183, , , , , , ,1.285,-0.093,-56.766
 13:49:05.679,eb:33:2e:f9:57:b5, 2015-01-01 00:13:15.410,0.003,0.018,0.999,-0.61,-0.061,-0.122, , , , , , ,1.285,-0.093,-56.766
 13:49:05.679,eb:33:2e:f9:57:b5, 2015-01-01 00:13:15.410,0.002,0.018,1,-0.488,-0.061,0, , , , , , ,1.285,-0.093,-56.766
 13:49:05.679,eb:33:2e:f9:57:b5, 2015-01-01 00:13:15.410,0.001,0.018,0.999,-0.427,-0.122,0, , , , , , ,1.285,-0.093,-56.766
 13:49:05.702,eb:33:2e:f9:57:b5, 2015-01-01 00:13:15.410,0.001,0.02,0.998,-0.366,-0.061,0, , , , , , ,1.285,-0.093,-56.766
 13:49:05.702,eb:33:2e:f9:57:b5, 2015-01-01 00:13:15.410,0.001,0.019,0.996,-0.366,-0.122,0, , , , , , ,1.285,-0.093,-56.766
 13:49:05.702,eb:33:2e:f9:57:b5, 2015-01-01 00:13:15.410,0.001,0.018,0.996,-0.366,-0.122,0.061, , , , , , ,1.28,-0.093,-56.766
 13:49:05.702,eb:33:2e:f9:57:b5, 2015-01-01 00:13:15.410,0.002,0.02,0.997,-0.305,-0.244,0.061, , , , , , ,1.28,-0.093,-56.766
 13:49:05.702,eb:33:2e:f9:57:b5, 2015-01-01 00:13:15.410,0.003,0.02,0.998,-0.366,-0.244,0.122, , , , , , ,1.28,-0.093,-56.766
 13:49:05.702,eb:33:2e:f9:57:b5, 2015-01-01 00:13:15.410,0.004,0.019,0.999,-0.305,-0.244,0.061, , , , , , ,1.28,-0.093,-56.766
 13:49:05.702,eb:33:2e:f9:57:b5, 2015-01-01 00:13:15.410,0.003,0.02,0.997,-0.305,-0.183,0.061, , , , , , ,1.28,-0.093,-56.766
 13:49:05.702,eb:33:2e:f9:57:b5, 2015-01-01 00:13:15.410,0.002,0.02,0.997,-0.305,-0.122,0, , , , , , ,1.28,-0.093,-56.766
 13:49:05.725,eb:33:2e:f9:57:b5, 2015-01-01 00:13:15.410,0.002,0.02,0.996,-0.366,-0.061,0, , , , , , ,1.28,-0.093,-56.766
 13:49:05.725,eb:33:2e:f9:57:b5, 2015-01-01 00:13:15.410,0.003,0.021,0.996,-0.305,-0.122,0, , , , , , ,1.28,-0.093,-56.766
 13:49:05.725,eb:33:2e:f9:57:b5, 2015-01-01 00:13:15.410,0.003,0.02,0.996,-0.427,0,-0.061, , , , , , ,1.28,-0.099,-56.766
 13:49:05.725,eb:33:2e:f9:57:b5, 2015-01-01 00:13:15.410,0.003,0.02,0.997,-0.549,0,0, , , , , , ,1.28,-0.099,-56.766
 13:49:05.725,eb:33:2e:f9:57:b5, 2015-01-01 00:13:15.410,0.003,0.02,0.998,-0.488,0,0, , , , , , ,1.28,-0.099,-56.766
 13:49:05.725,eb:33:2e:f9:57:b5, 2015-01-01 00:13:15.410,0.003,0.019,0.998,-0.488,0.061,-0.122, , , , , , ,1.28,-0.099,-56.766
 13:49:05.725,eb:33:2e:f9:57:b5, 2015-01-01 00:13:15.410,0.003,0.018,0.999,-0.366,0.061,-0.061, , , , , , ,1.28,-0.099,-56.766
 13:49:05.725,eb:33:2e:f9:57:b5, 2015-01-01 00:13:15.410,0.004,0.018,1,-0.244,0.122,0, , , , , , ,1.28,-0.099,-56.766
 13:49:05.795,eb:33:2e:f9:57:b5, 2015-01-01 00:13:15.410,0.002,0.018,1,-0.183,0.183,0, , , , , , ,1.28,-0.099,-56.766
 13:49:05.795,eb:33:2e:f9:57:b5, 2015-01-01 00:13:15.410,0.002,0.018,0.999,-0.122,0.183,0.061, , , , , , ,1.28,-0.099,-56.766
 13:49:05.795,eb:33:2e:f9:57:b5, 2015-01-01 00:13:15.410,0.001,0.017,0.999,0,0.122,0.122, , , , , , ,1.28,-0.099,-56.766
 13:49:05.795,eb:33:2e:f9:57:b5, 2015-01-01 00:13:15.410,0.001,0.017,0.998,0.061,0.061,0.183, , , , , , ,1.28,-0.099,-56.766
 13:49:05.795,eb:33:2e:f9:57:b5, 2015-01-01 00:13:15.410,0,0.018,0.998,0.061,0.122,0.183, , , , , , ,1.28,-0.099,-56.766
 13:49:05.795,eb:33:2e:f9:57:b5, 2015-01-01 00:13:15.410,0,0.019,0.996,0.061,0,0.183, , , , , , ,1.28,-0.099,-56.766
 13:49:05.795,eb:33:2e:f9:57:b5, 2015-01-01 00:13:15.410,0,0.019,0.996,0.061,-0.061,0.244, , , , , , ,1.28,-0.099,-56.766
 13:49:05.796,eb:33:2e:f9:57:b5, 2015-01-01 00:13:15.410,0.002,0.02,0.996,0.122,-0.122,0.305, , , , , , ,1.28,-0.099,-56.766
 13:49:05.796,eb:33:2e:f9:57:b5, 2015-01-01 00:13:15.410,0.002,0.02,0.997,0.122,-0.122,0.183, , , , , , ,1.28,-0.099,-56.766
 13:49:05.796,eb:33:2e:f9:57:b5, 2015-01-01 00:13:15.410,0.002,0.02,0.997,0.122,-0.183,0.244, , , , , , ,1.28,-0.099,-56.766
 13:49:05.796,eb:33:2e:f9:57:b5, 2015-01-01 00:13:15.410,0.003,0.02,0.997,0.061,-0.183,0.244, , , , , , ,1.274,-0.099,-56.766
 13:49:05.796,eb:33:2e:f9:57:b5, 2015-01-01 00:13:15.410,0.003,0.021,0.997,0,-0.122,0.244, , , , , , ,1.274,-0.099,-56.766
 13:49:05.796,eb:33:2e:f9:57:b5, 2015-01-01 00:13:15.410,0.003,0.021,0.997,0,-0.122,0.244, , , , , , ,1.274,-0.099,-56.766
 13:49:05.796,eb:33:2e:f9:57:b5, 2015-01-01 00:13:15.410,0.003,0.021,0.997,0,-0.061,0.183, , , , , , ,1.274,-0.099,-56.766
 13:49:05.796,eb:33:2e:f9:57:b5, 2015-01-01 00:13:15.410,0.003,0.02,0.996,-0.061,0,0.122, , , , , , ,1.274,-0.099,-56.766
 13:49:05.796,eb:33:2e:f9:57:b5, 2015-01-01 00:13:15.410,0.004,0.02,0.997,-0.061,0,0.061, , , , , , ,1.274,-0.099,-56.766
 13:49:05.836,eb:33:2e:f9:57:b5, 2015-01-01 00:13:15.410,0.003,0.021,0.997,-0.122,0.061,0.061, , , , , , ,1.274,-0.099,-56.766
 13:49:05.836,eb:33:2e:f9:57:b5, 2015-01-01 00:13:15.410,0.001,0.02,0.997,-0.122,0.122,0.061, , , , , , ,1.274,-0.099,-56.766
 13:49:05.836,eb:33:2e:f9:57:b5, 2015-01-01 00:13:15.410,0.002,0.019,0.996,-0.122,0.061,0.122, , , , , , ,1.274,-0.099,-56.766
 13:49:05.836,eb:33:2e:f9:57:b5, 2015-01-01 00:13:15.410,0.001,0.02,0.997,-0.122,0,0.122, , , , , , ,1.274,-0.099,-56.766
 13:49:05.836,eb:33:2e:f9:57:b5, 2015-01-01 00:13:15.410,0.002,0.018,0.997,-0.061,0,0.122, , , , , , ,1.274,-0.099,-56.766
 13:49:05.836,eb:33:2e:f9:57:b5, 2015-01-01 00:13:15.410,0.004,0.019,0.999,0,0,0.183, , , , , , ,1.274,-0.099,-56.766
 13:49:05.836,eb:33:2e:f9:57:b5, 2015-01-01 00:13:15.410,0.003,0.019,0.999,0,0,0.183, , , , , , ,1.274,-0.099,-56.766
 13:49:05.836,eb:33:2e:f9:57:b5, 2015-01-01 00:13:15.410,0.002,0.018,0.998,0.061,0.061,0.244, , , , , , ,1.274,-0.099,-56.766
 13:49:05.882,eb:33:2e:f9:57:b5, 2015-01-01 00:13:15.835,0,0.018,0.997,0.122,0,0.244, , , , , , ,1.274,-0.099,-56.766
 13:49:05.882,eb:33:2e:f9:57:b5, 2015-01-01 00:13:15.835,0.001,0.019,0.995,0.122,-0.061,0.183, , , , , , ,1.274,-0.099,-56.766
 13:49:05.882,eb:33:2e:f9:57:b5, 2015-01-01 00:13:15.835,0.002,0.02,0.996,0.122,-0.122,0.244, , , , , , ,1.274,-0.099,-56.766
 13:49:05.882,eb:33:2e:f9:57:b5, 2015-01-01 00:13:15.835,0.002,0.021,0.997,0.122,-0.122,0.244, , , , , , ,1.274,-0.099,-56.766
 13:49:05.882,eb:33:2e:f9:57:b5, 2015-01-01 00:13:15.835,0.003,0.02,0.998,0.122,-0.183,0.244, , , , , , ,1.274,-0.099,-56.766
 13:49:05.882,eb:33:2e:f9:57:b5, 2015-01-01 00:13:15.835,0.002,0.021,0.996,0.061,-0.122,0.183, , , , , , ,1.274,-0.099,-56.766
 13:49:05.882,eb:33:2e:f9:57:b5, 2015-01-01 00:13:15.835,0.002,0.021,0.996,0,-0.122,0.122, , , , , , ,1.274,-0.099,-56.766
 13:49:05.882,eb:33:2e:f9:57:b5, 2015-01-01 00:13:15.835,0.003,0.021,0.997,0,-0.061,0.183, , , , , , ,1.274,-0.099,-56.766
 13:49:05.925,eb:33:2e:f9:57:b5, 2015-01-01 00:13:15.835,0.004,0.021,0.996,0,0,0.122, , , , , , ,1.274,-0.099,-56.766
 13:49:05.925,eb:33:2e:f9:57:b5, 2015-01-01 00:13:15.835,0.003,0.021,0.996,0,0,0.061, , , , , , ,1.274,-0.099,-56.766
 13:49:05.925,eb:33:2e:f9:57:b5, 2015-01-01 00:13:15.835,0.003,0.021,0.997,-0.061,0.061,0.061, , , , , , ,1.274,-0.099,-56.766
 13:49:05.925,eb:33:2e:f9:57:b5, 2015-01-01 00:13:15.835,0.003,0.02,0.997,-0.122,0.122,0, , , , , , ,1.274,-0.099,-56.766
 13:49:05.925,eb:33:2e:f9:57:b5, 2015-01-01 00:13:15.835,0.002,0.021,0.998,-0.183,0.183,0.061, , , , , , ,1.274,-0.099,-56.766
 13:49:05.925,eb:33:2e:f9:57:b5, 2015-01-01 00:13:15.835,0.002,0.02,0.996,-0.122,0.183,0, , , , , , ,1.274,-0.099,-56.766
 13:49:05.925,eb:33:2e:f9:57:b5, 2015-01-01 00:13:15.835,0.001,0.019,0.998,-0.183,0.183,0, , , , , , ,1.269,-0.099,-56.766
 13:49:05.925,eb:33:2e:f9:57:b5, 2015-01-01 00:13:15.835,0.002,0.018,0.997,-0.061,0.061,0.061, , , , , , ,1.269,-0.099,-56.766
 13:49:05.948,eb:33:2e:f9:57:b5, 2015-01-01 00:13:15.835,0.003,0.019,0.999,0,0.183,0.061, , , , , , ,1.269,-0.099,-56.766
 13:49:05.948,eb:33:2e:f9:57:b5, 2015-01-01 00:13:15.835,0.001,0.019,0.999,0,0.183,0.061, , , , , , ,1.269,-0.099,-56.766
 13:49:05.948,eb:33:2e:f9:57:b5, 2015-01-01 00:13:15.835,0,0.019,0.997,0.061,0.183,0.122, , , , , , ,1.269,-0.099,-56.766
 13:49:05.948,eb:33:2e:f9:57:b5, 2015-01-01 00:13:15.835,0.001,0.017,0.998,0.183,0.061,0.183, , , , , , ,1.269,-0.099,-56.766
 13:49:05.948,eb:33:2e:f9:57:b5, 2015-01-01 00:13:15.835,0,0.018,0.997,0.244,0,0.244, , , , , , ,1.269,-0.099,-56.766
 13:49:05.948,eb:33:2e:f9:57:b5, 2015-01-01 00:13:15.835,0,0.019,0.996,0.244,-0.122,0.305, , , , , , ,1.269,-0.099,-56.766
 13:49:05.948,eb:33:2e:f9:57:b5, 2015-01-01 00:13:15.835,0.001,0.02,0.996,0.305,-0.183,0.305, , , , , , ,1.269,-0.099,-56.766
 13:49:05.948,eb:33:2e:f9:57:b5, 2015-01-01 00:13:15.835,0.002,0.019,0.996,0.244,-0.244,0.366, , , , , , ,1.269,-0.099,-56.766
 13:49:06.016,eb:33:2e:f9:57:b5, 2015-01-01 00:13:15.835,0.002,0.019,0.997,0.244,-0.244,0.427, , , , , , ,1.269,-0.099,-56.766
 13:49:06.016,eb:33:2e:f9:57:b5, 2015-01-01 00:13:15.835,0.003,0.02,0.997,0.305,-0.183,0.305, , , , , , ,1.269,-0.099,-56.766
 13:49:06.016,eb:33:2e:f9:57:b5, 2015-01-01 00:13:15.835,0.003,0.021,0.996,0.244,-0.122,0.305, , , , , , ,1.269,-0.099,-56.766
 13:49:06.016,eb:33:2e:f9:57:b5, 2015-01-01 00:13:15.835,0.003,0.021,0.996,0.244,-0.122,0.366, , , , , , ,1.269,-0.099,-56.766
 13:49:06.016,eb:33:2e:f9:57:b5, 2015-01-01 00:13:15.835,0.003,0.02,0.997,0.183,-0.183,0.305, , , , , , ,1.269,-0.099,-56.766
 13:49:06.016,eb:33:2e:f9:57:b5, 2015-01-01 00:13:15.835,0.003,0.02,0.997,0.244,-0.061,0.244, , , , , , ,1.269,-0.099,-56.766
 13:49:06.016,eb:33:2e:f9:57:b5, 2015-01-01 00:13:15.835,0.002,0.021,0.997,0.183,0,0.183, , , , , , ,1.269,-0.099,-56.766
 13:49:06.016,eb:33:2e:f9:57:b5, 2015-01-01 00:13:15.835,0.002,0.021,0.996,0.061,0,0.122, , , , , , ,1.269,-0.099,-56.766
 13:49:06.085,eb:33:2e:f9:57:b5, 2015-01-01 00:13:15.835,0.003,0.021,0.996,0,0,0.183, , , , , , ,1.269,-0.099,-56.766
 13:49:06.085,eb:33:2e:f9:57:b5, 2015-01-01 00:13:15.835,0.002,0.021,0.996,0,0.122,0.122, , , , , , ,1.269,-0.099,-56.766
 13:49:06.085,eb:33:2e:f9:57:b5, 2015-01-01 00:13:15.835,0.002,0.02,0.997,0,0.061,0.122, , , , , , ,1.269,-0.099,-56.766
 13:49:06.085,eb:33:2e:f9:57:b5, 2015-01-01 00:13:15.835,0.002,0.019,0.998,0,0.183,0.122, , , , , , ,1.269,-0.099,-56.766
 13:49:06.085,eb:33:2e:f9:57:b5, 2015-01-01 00:13:15.835,0.001,0.019,0.998,0.061,0.183,0.122, , , , , , ,1.269,-0.099,-56.766
 13:49:06.085,eb:33:2e:f9:57:b5, 2015-01-01 00:13:15.835,0,0.02,0.997,0.061,0.122,0.183, , , , , , ,1.269,-0.099,-56.766
 13:49:06.085,eb:33:2e:f9:57:b5, 2015-01-01 00:13:15.835,0,0.019,0.996,0.122,0,0.244, , , , , , ,1.269,-0.099,-56.766
 13:49:06.085,eb:33:2e:f9:57:b5, 2015-01-01 00:13:15.835,0.002,0.018,0.997,0.183,0,0.244, , , , , , ,1.269,-0.099,-56.766
 13:49:06.085,eb:33:2e:f9:57:b5, 2015-01-01 00:13:15.835,0.001,0.019,0.999,0.244,-0.122,0.305, , , , , , ,1.269,-0.099,-56.766
 13:49:06.086,eb:33:2e:f9:57:b5, 2015-01-01 00:13:15.835,0.001,0.02,0.998,0.366,-0.061,0.366, , , , , , ,1.269,-0.099,-56.766
 13:49:06.086,eb:33:2e:f9:57:b5, 2015-01-01 00:13:15.835,0,0.02,0.997,0.366,-0.061,0.366, , , , , , ,1.263,-0.099,-56.766
 13:49:06.086,eb:33:2e:f9:57:b5, 2015-01-01 00:13:15.835,0,0.021,0.995,0.366,-0.305,0.427, , , , , , ,1.263,-0.099,-56.766
 13:49:06.086,eb:33:2e:f9:57:b5, 2015-01-01 00:13:15.835,0.002,0.02,0.996,0.366,-0.305,0.427, , , , , , ,1.263,-0.099,-56.766
 13:49:06.086,eb:33:2e:f9:57:b5, 2015-01-01 00:13:15.835,0.003,0.021,0.996,0.305,-0.366,0.427, , , , , , ,1.263,-0.099,-56.766
 13:49:06.086,eb:33:2e:f9:57:b5, 2015-01-01 00:13:15.835,0.001,0.022,0.996,0.244,-0.366,0.366, , , , , , ,1.263,-0.099,-56.766
 13:49:06.086,eb:33:2e:f9:57:b5, 2015-01-01 00:13:15.835,0.002,0.021,0.994,0.183,-0.366,0.366, , , , , , ,1.263,-0.099,-56.766
 13:49:06.130,eb:33:2e:f9:57:b5, 2015-01-01 00:13:15.835,0.003,0.021,0.995,0.122,-0.244,0.305, , , , , , ,1.263,-0.099,-56.766
 13:49:06.130,eb:33:2e:f9:57:b5, 2015-01-01 00:13:15.835,0.003,0.021,0.996,0.061,-0.244,0.244, , , , , , ,1.263,-0.099,-56.766
 13:49:06.130,eb:33:2e:f9:57:b5, 2015-01-01 00:13:15.835,0.003,0.022,0.996,0,-0.183,0.244, , , , , , ,1.263,-0.099,-56.766
 13:49:06.130,eb:33:2e:f9:57:b5, 2015-01-01 00:13:15.835,0.003,0.021,0.997,0,-0.061,0.183, , , , , , ,1.263,-0.099,-56.766
 13:49:06.130,eb:33:2e:f9:57:b5, 2015-01-01 00:13:15.835,0.003,0.021,0.998,0,0,0.122, , , , , , ,1.263,-0.099,-56.766
 13:49:06.130,eb:33:2e:f9:57:b5, 2015-01-01 00:13:15.835,0.003,0.02,0.997,-0.061,0.061,0.183, , , , , , ,1.263,-0.099,-56.766
 13:49:06.130,eb:33:2e:f9:57:b5, 2015-01-01 00:13:15.835,0.003,0.021,0.997,0,0.183,0.061, , , , , , ,1.263,-0.099,-56.766
 13:49:06.130,eb:33:2e:f9:57:b5, 2015-01-01 00:13:15.835,0.002,0.021,0.998,0,0.183,0.061, , , , , , ,1.263,-0.099,-56.766
 13:49:06.174,eb:33:2e:f9:57:b5, 2015-01-01 00:13:15.835,0.001,0.02,0.998,0,0.122,0.122, , , , , , ,1.263,-0.099,-56.766
 13:49:06.174,eb:33:2e:f9:57:b5, 2015-01-01 00:13:15.835,0.001,0.02,0.998,0,0.122,0.061, , , , , , ,1.263,-0.099,-56.766
 13:49:06.174,eb:33:2e:f9:57:b5, 2015-01-01 00:13:15.835,0.001,0.019,0.997,0,0.061,0.122, , , , , , ,1.263,-0.099,-56.766
 13:49:06.174,eb:33:2e:f9:57:b5, 2015-01-01 00:13:15.835,0,0.02,0.996,0,0,0.122, , , , , , ,1.263,-0.099,-56.766
 13:49:06.174,eb:33:2e:f9:57:b5, 2015-01-01 00:13:15.835,0.001,0.02,0.997,0,-0.061,0.122, , , , , , ,1.263,-0.099,-56.766
 13:49:06.174,eb:33:2e:f9:57:b5, 2015-01-01 00:13:15.835,0,0.02,0.997,0.061,-0.061,0.122, , , , , , ,1.263,-0.099,-56.766
 13:49:06.174,eb:33:2e:f9:57:b5, 2015-01-01 00:13:15.835,0.002,0.02,0.996,0.061,-0.122,0.122, , , , , , ,1.263,-0.099,-56.766
 13:49:06.174,eb:33:2e:f9:57:b5, 2015-01-01 00:13:15.835,0.002,0.021,0.996,0.061,-0.183,0.122, , , , , , ,1.263,-0.099,-56.766
 13:49:06.196,eb:33:2e:f9:57:b5, 2015-01-01 00:13:15.835,0.002,0.021,0.996,0,-0.183,0.122, , , , , , ,1.263,-0.099,-56.766
 13:49:06.196,eb:33:2e:f9:57:b5, 2015-01-01 00:13:15.835,0.002,0.021,0.996,0,-0.061,0.183, , , , , , ,1.263,-0.099,-56.766
 13:49:06.196,eb:33:2e:f9:57:b5, 2015-01-01 00:13:15.835,0.002,0.021,0.996,-0.061,-0.061,0.122, , , , , , ,1.263,-0.099,-56.766
 13:49:06.196,eb:33:2e:f9:57:b5, 2015-01-01 00:13:15.835,0.002,0.021,0.996,-0.122,-0.061,0.061, , , , , , ,1.263,-0.099,-56.766
 13:49:06.196,eb:33:2e:f9:57:b5, 2015-01-01 00:13:15.835,0.003,0.021,0.996,-0.061,-0.061,0.061, , , , , , ,1.263,-0.099,-56.766
 13:49:06.196,eb:33:2e:f9:57:b5, 2015-01-01 00:13:15.835,0.004,0.021,0.997,-0.122,0,0, , , , , , ,1.263,-0.099,-56.766
 13:49:06.196,eb:33:2e:f9:57:b5, 2015-01-01 00:13:15.835,0.004,0.021,0.997,-0.183,0.061,0, , , , , , ,1.263,-0.099,-56.766
 13:49:06.196,eb:33:2e:f9:57:b5, 2015-01-01 00:13:15.835,0.004,0.021,0.998,-0.183,0.183,0, , , , , , ,1.263,-0.099,-56.766
 13:49:06.287,eb:33:2e:f9:57:b5, 2015-01-01 00:13:16.170,0.003,0.02,0.999,-0.122,0.305,-0.061, , , , , , ,1.263,-0.099,-56.766
 13:49:06.287,eb:33:2e:f9:57:b5, 2015-01-01 00:13:16.170,0.001,0.019,0.998,-0.061,0.305,0, , , , , , ,1.263,-0.099,-56.766
 13:49:06.287,eb:33:2e:f9:57:b5, 2015-01-01 00:13:16.170,0,0.018,0.998,0,0.305,0.061, , , , , , ,1.263,-0.104,-56.766
 13:49:06.287,eb:33:2e:f9:57:b5, 2015-01-01 00:13:16.170,0.001,0.02,0.997,0,0.183,0.061, , , , , , ,1.263,-0.104,-56.766
 13:49:06.287,eb:33:2e:f9:57:b5, 2015-01-01 00:13:16.170,0.002,0.019,0.998,0,0.183,0.061, , , , , , ,1.263,-0.104,-56.766
 13:49:06.287,eb:33:2e:f9:57:b5, 2015-01-01 00:13:16.170,0,0.019,0.999,0.061,0.183,0.061, , , , , , ,1.263,-0.104,-56.766
 13:49:06.287,eb:33:2e:f9:57:b5, 2015-01-01 00:13:16.170,0,0.019,0.997,0.122,0.061,0.183, , , , , , ,1.263,-0.104,-56.766
 13:49:06.287,eb:33:2e:f9:57:b5, 2015-01-01 00:13:16.170,0,0.02,0.996,0.122,0,0.244, , , , , , ,1.263,-0.104,-56.766
 13:49:06.287,eb:33:2e:f9:57:b5, 2015-01-01 00:13:16.170,0.001,0.02,0.995,0.122,-0.061,0.244, , , , , , ,1.263,-0.104,-56.766
 13:49:06.287,eb:33:2e:f9:57:b5, 2015-01-01 00:13:16.170,0.002,0.02,0.997,0.122,-0.122,0.244, , , , , , ,1.263,-0.104,-56.766
 13:49:06.287,eb:33:2e:f9:57:b5, 2015-01-01 00:13:16.170,0.002,0.02,0.999,0.183,-0.122,0.305, , , , , , ,1.258,-0.104,-56.766
 13:49:06.287,eb:33:2e:f9:57:b5, 2015-01-01 00:13:16.170,0.001,0.021,0.998,0.244,-0.122,0.366, , , , , , ,1.258,-0.104,-56.766
 13:49:06.288,eb:33:2e:f9:57:b5, 2015-01-01 00:13:16.170,0,0.021,0.996,0.305,-0.183,0.305, , , , , , ,1.258,-0.104,-56.766
 13:49:06.288,eb:33:2e:f9:57:b5, 2015-01-01 00:13:16.170,0.003,0.021,0.995,0.122,-0.244,0.305, , , , , , ,1.258,-0.104,-56.766
 13:49:06.288,eb:33:2e:f9:57:b5, 2015-01-01 00:13:16.170,0.005,0.021,0.997,0.122,-0.122,0.244, , , , , , ,1.258,-0.104,-56.766
 13:49:06.288,eb:33:2e:f9:57:b5, 2015-01-01 00:13:16.170,0.004,0.022,0.998,0.122,0,0.183, , , , , , ,1.258,-0.104,-56.766
 13:49:06.333,eb:33:2e:f9:57:b5, 2015-01-01 00:13:16.170,0.002,0.021,0.997,0.122,0,0.183, , , , , , ,1.258,-0.104,-56.766
 13:49:06.333,eb:33:2e:f9:57:b5, 2015-01-01 00:13:16.170,0.002,0.021,0.996,0.061,0.061,0.183, , , , , , ,1.258,-0.104,-56.766
 13:49:06.333,eb:33:2e:f9:57:b5, 2015-01-01 00:13:16.170,0.002,0.021,0.997,0,0.061,0.122, , , , , , ,1.258,-0.104,-56.766
 13:49:06.333,eb:33:2e:f9:57:b5, 2015-01-01 00:13:16.170,0.002,0.021,0.997,0.061,0.061,0.061, , , , , , ,1.258,-0.104,-56.766
 13:49:06.333,eb:33:2e:f9:57:b5, 2015-01-01 00:13:16.170,0.002,0.022,0.998,0.061,0.122,0.122, , , , , , ,1.258,-0.104,-56.766
 13:49:06.333,eb:33:2e:f9:57:b5, 2015-01-01 00:13:16.170,0.001,0.021,0.997,0,0.183,0.061, , , , , , ,1.258,-0.104,-56.766
 13:49:06.333,eb:33:2e:f9:57:b5, 2015-01-01 00:13:16.170,0.001,0.021,0.996,0,0.183,0.061, , , , , , ,1.258,-0.104,-56.766
 13:49:06.333,eb:33:2e:f9:57:b5, 2015-01-01 00:13:16.170,0.003,0.021,0.997,0.061,0.183,0.122, , , , , , ,1.258,-0.104,-56.766
 13:49:06.353,eb:33:2e:f9:57:b5, 2015-01-01 00:13:16.170,0.002,0.02,0.998,0.061,0.183,0.122, , , , , , ,1.258,-0.104,-56.766
 13:49:06.353,eb:33:2e:f9:57:b5, 2015-01-01 00:13:16.170,0.001,0.02,0.998,0.122,0.183,0.183, , , , , , ,1.258,-0.104,-56.766
 13:49:06.353,eb:33:2e:f9:57:b5, 2015-01-01 00:13:16.170,0.001,0.02,0.998,0.305,0.183,0.183, , , , , , ,1.258,-0.104,-56.766
 13:49:06.353,eb:33:2e:f9:57:b5, 2015-01-01 00:13:16.170,0,0.02,0.999,0.366,0.183,0.305, , , , , , ,1.258,-0.104,-56.766
 13:49:06.353,eb:33:2e:f9:57:b5, 2015-01-01 00:13:16.170,0,0.019,0.998,0.427,0.122,0.305, , , , , , ,1.258,-0.104,-56.766
 13:49:06.353,eb:33:2e:f9:57:b5, 2015-01-01 00:13:16.170,0.003,0.019,0.999,0.549,0.061,0.427, , , , , , ,1.258,-0.104,-56.766
 13:49:06.353,eb:33:2e:f9:57:b5, 2015-01-01 00:13:16.170,0,0.02,0.998,0.549,0,0.427, , , , , , ,1.258,-0.104,-56.766
 13:49:06.353,eb:33:2e:f9:57:b5, 2015-01-01 00:13:16.170,-0.001,0.021,0.996,0.549,-0.061,0.488, , , , , , ,1.258,-0.104,-56.766
 13:49:06.444,eb:33:2e:f9:57:b5, 2015-01-01 00:13:16.170,0.001,0.02,0.995,0.549,-0.183,0.427, , , , , , ,1.258,-0.104,-56.766
 13:49:06.444,eb:33:2e:f9:57:b5, 2015-01-01 00:13:16.170,0.004,0.021,0.996,0.549,-0.183,0.427, , , , , , ,1.258,-0.104,-56.766
 13:49:06.444,eb:33:2e:f9:57:b5, 2015-01-01 00:13:16.170,0.003,0.022,0.999,0.549,-0.061,0.305, , , , , , ,1.258,-0.104,-56.766
 13:49:06.444,eb:33:2e:f9:57:b5, 2015-01-01 00:13:16.170,0,0.022,0.998,0.549,0,0.305, , , , , , ,1.258,-0.104,-56.766
 13:49:06.444,eb:33:2e:f9:57:b5, 2015-01-01 00:13:16.170,0,0.021,0.995,0.549,0,0.305, , , , , , ,1.258,-0.104,-56.766
 13:49:06.444,eb:33:2e:f9:57:b5, 2015-01-01 00:13:16.170,0.001,0.022,0.994,0.488,-0.061,0.305, , , , , , ,1.258,-0.104,-56.766
 13:49:06.444,eb:33:2e:f9:57:b5, 2015-01-01 00:13:16.170,0.002,0.022,0.996,0.427,-0.061,0.305, , , , , , ,1.258,-0.104,-56.766
 13:49:06.444,eb:33:2e:f9:57:b5, 2015-01-01 00:13:16.170,0.002,0.021,0.997,0.366,0,0.305, , , , , , ,1.258,-0.104,-56.766
 13:49:06.444,eb:33:2e:f9:57:b5, 2015-01-01 00:13:16.170,0.001,0.021,0.996,0.305,0,0.244, , , , , , ,1.258,-0.104,-56.766
 13:49:06.444,eb:33:2e:f9:57:b5, 2015-01-01 00:13:16.170,0.001,0.022,0.994,0.244,0,0.244, , , , , , ,1.258,-0.104,-56.766
 13:49:06.444,eb:33:2e:f9:57:b5, 2015-01-01 00:13:16.170,0.002,0.022,0.994,0.122,0,0.122, , , , , , ,1.258,-0.104,-56.766
 13:49:06.444,eb:33:2e:f9:57:b5, 2015-01-01 00:13:16.170,0.002,0.022,0.995,0,0,0.183, , , , , , ,1.258,-0.104,-56.766
 13:49:06.444,eb:33:2e:f9:57:b5, 2015-01-01 00:13:16.170,0.002,0.022,0.997,0,0,0.183, , , , , , ,1.258,-0.104,-56.766
 13:49:06.444,eb:33:2e:f9:57:b5, 2015-01-01 00:13:16.170,0.001,0.022,0.996,0,0.061,0.061, , , , , , ,1.258,-0.104,-56.766
 13:49:06.444,eb:33:2e:f9:57:b5, 2015-01-01 00:13:16.170,0.002,0.021,0.997,0,0.061,0.122, , , , , , ,1.258,-0.104,-56.761
 13:49:06.444,eb:33:2e:f9:57:b5, 2015-01-01 00:13:16.170,0.001,0.021,0.998,0,0.122,0.122, , , , , , ,1.258,-0.104,-56.761
 13:49:06.513,eb:33:2e:f9:57:b5, 2015-01-01 00:13:16.170,0,0.021,0.998,0.061,0.122,0.183, , , , , , ,1.258,-0.104,-56.761
 13:49:06.513,eb:33:2e:f9:57:b5, 2015-01-01 00:13:16.170,0.001,0.021,0.998,0.122,0.061,0.183, , , , , , ,1.258,-0.104,-56.761
 13:49:06.513,eb:33:2e:f9:57:b5, 2015-01-01 00:13:16.170,0.001,0.02,0.998,0.183,0,0.244, , , , , , ,1.258,-0.104,-56.761
 13:49:06.513,eb:33:2e:f9:57:b5, 2015-01-01 00:13:16.170,0.001,0.02,0.999,0.244,0,0.244, , , , , , ,1.258,-0.104,-56.761
 13:49:06.513,eb:33:2e:f9:57:b5, 2015-01-01 00:13:16.170,0,0.02,0.998,0.305,0,0.305, , , , , , ,1.258,-0.104,-56.761
 13:49:06.513,eb:33:2e:f9:57:b5, 2015-01-01 00:13:16.170,0,0.021,0.996,0.305,0,0.366, , , , , , ,1.258,-0.104,-56.761
 13:49:06.513,eb:33:2e:f9:57:b5, 2015-01-01 00:13:16.170,0,0.021,0.994,0.305,-0.122,0.305, , , , , , ,1.258,-0.104,-56.761
 13:49:06.513,eb:33:2e:f9:57:b5, 2015-01-01 00:13:16.170,0.002,0.022,0.994,0.244,-0.244,0.305, , , , , , ,1.258,-0.104,-56.761
 13:49:06.513,eb:33:2e:f9:57:b5, 2015-01-01 00:13:16.170,0.002,0.023,0.996,0.183,-0.183,0.244, , , , , , ,1.258,-0.104,-56.761
 13:49:06.513,eb:33:2e:f9:57:b5, 2015-01-01 00:13:16.170,0.002,0.023,0.996,0.122,-0.183,0.244, , , , , , ,1.258,-0.104,-56.761
 13:49:06.513,eb:33:2e:f9:57:b5, 2015-01-01 00:13:16.170,0.002,0.023,0.996,0.061,-0.122,0.244, , , , , , ,1.258,-0.104,-56.761
 13:49:06.513,eb:33:2e:f9:57:b5, 2015-01-01 00:13:16.170,0.003,0.022,0.997,0,-0.061,0.122, , , , , , ,1.258,-0.104,-56.761
 13:49:06.513,eb:33:2e:f9:57:b5, 2015-01-01 00:13:16.170,0.002,0.023,0.997,0,-0.061,0.061, , , , , , ,1.258,-0.104,-56.761
 13:49:06.513,eb:33:2e:f9:57:b5, 2015-01-01 00:13:16.170,0.002,0.023,0.997,-0.061,0,0.061, , , , , , ,1.258,-0.104,-56.761
 13:49:06.514,eb:33:2e:f9:57:b5, 2015-01-01 00:13:16.170,0.002,0.022,0.996,-0.061,0,0.061, , , , , , ,1.258,-0.104,-56.761
 13:49:06.514,eb:33:2e:f9:57:b5, 2015-01-01 00:13:16.170,0.002,0.023,0.996,-0.183,0.061,0, , , , , , ,1.258,-0.104,-56.761
 13:49:06.604,eb:33:2e:f9:57:b5, 2015-01-01 00:13:16.170,0.002,0.022,0.996,-0.244,0.183,0, , , , , , ,1.258,-0.104,-56.761
 13:49:06.604,eb:33:2e:f9:57:b5, 2015-01-01 00:13:16.170,0.002,0.023,0.996,-0.305,0.061,0, , , , , , ,1.258,-0.104,-56.761
 13:49:06.604,eb:33:2e:f9:57:b5, 2015-01-01 00:13:16.170,0.003,0.022,0.997,-0.305,0.122,0.061, , , , , , ,1.258,-0.104,-56.761
 13:49:06.604,eb:33:2e:f9:57:b5, 2015-01-01 00:13:16.170,0.001,0.022,0.997,-0.305,0.183,0, , , , , , ,1.258,-0.104,-56.761
 13:49:06.604,eb:33:2e:f9:57:b5, 2015-01-01 00:13:16.170,0,0.021,0.997,-0.183,0.183,0, , , , , , ,1.258,-0.104,-56.761
 13:49:06.604,eb:33:2e:f9:57:b5, 2015-01-01 00:13:16.170,0.001,0.021,0.997,-0.122,0.122,0, , , , , , ,1.258,-0.104,-56.761
 13:49:06.604,eb:33:2e:f9:57:b5, 2015-01-01 00:13:16.170,0,0.021,0.997,-0.183,0.061,0.061, , , , , , ,1.258,-0.104,-56.761
 13:49:06.604,eb:33:2e:f9:57:b5, 2015-01-01 00:13:16.170,0,0.021,0.997,-0.183,0,0.122, , , , , , ,1.258,-0.104,-56.761
 13:49:06.607,eb:33:2e:f9:57:b5, 2015-01-01 00:13:16.550,0,0.021,0.997,-0.122,0,0.183, , , , , , ,1.258,-0.104,-56.761
 13:49:06.607,eb:33:2e:f9:57:b5, 2015-01-01 00:13:16.550,0.001,0.021,0.996,-0.061,-0.061,0.183, , , , , , ,1.258,-0.104,-56.761
 13:49:06.607,eb:33:2e:f9:57:b5, 2015-01-01 00:13:16.550,0,0.021,0.996,-0.061,-0.122,0.122, , , , , , ,1.258,-0.104,-56.761
 13:49:06.607,eb:33:2e:f9:57:b5, 2015-01-01 00:13:16.550,0.001,0.021,0.997,0,-0.183,0.183, , , , , , ,1.258,-0.104,-56.761
 13:49:06.607,eb:33:2e:f9:57:b5, 2015-01-01 00:13:16.550,0.001,0.021,0.997,0,-0.244,0.244, , , , , , ,1.258,-0.104,-56.761
 13:49:06.607,eb:33:2e:f9:57:b5, 2015-01-01 00:13:16.550,0.002,0.021,0.997,0,-0.244,0.244, , , , , , ,1.258,-0.104,-56.761
 13:49:06.607,eb:33:2e:f9:57:b5, 2015-01-01 00:13:16.550,0.002,0.022,0.997,0,-0.244,0.244, , , , , , ,1.258,-0.104,-56.761
 13:49:06.607,eb:33:2e:f9:57:b5, 2015-01-01 00:13:16.550,0.002,0.023,0.997,-0.061,-0.244,0.183, , , , , , ,1.258,-0.104,-56.761
 13:49:06.669,eb:33:2e:f9:57:b5, 2015-01-01 00:13:16.550,0.002,0.022,0.997,-0.061,-0.183,0.183, , , , , , ,1.258,-0.104,-56.761
 13:49:06.669,eb:33:2e:f9:57:b5, 2015-01-01 00:13:16.550,0.002,0.021,0.998,-0.122,-0.183,0.183, , , , , , ,1.258,-0.104,-56.761
 13:49:06.669,eb:33:2e:f9:57:b5, 2015-01-01 00:13:16.550,0.002,0.022,0.997,-0.183,-0.061,0.183, , , , , , ,1.258,-0.104,-56.761
 13:49:06.669,eb:33:2e:f9:57:b5, 2015-01-01 00:13:16.550,0.002,0.022,0.996,-0.183,-0.061,0.183, , , , , , ,1.258,-0.104,-56.761
 13:49:06.669,eb:33:2e:f9:57:b5, 2015-01-01 00:13:16.550,0.002,0.022,0.997,-0.183,0,0.122, , , , , , ,1.258,-0.104,-56.761
 13:49:06.669,eb:33:2e:f9:57:b5, 2015-01-01 00:13:16.550,0.001,0.022,0.997,-0.183,-0.061,0.122, , , , , , ,1.258,-0.104,-56.761
 13:49:06.669,eb:33:2e:f9:57:b5, 2015-01-01 00:13:16.550,0.001,0.021,0.996,-0.244,-0.061,0.122, , , , , , ,1.258,-0.104,-56.761
 13:49:06.670,eb:33:2e:f9:57:b5, 2015-01-01 00:13:16.550,0.001,0.021,0.997,-0.122,-0.061,0.122, , , , , , ,1.258,-0.104,-56.761
 13:49:06.713,eb:33:2e:f9:57:b5, 2015-01-01 00:13:16.550,0.002,0.021,0.998,-0.122,-0.061,0.122, , , , , , ,1.258,-0.104,-56.761
 13:49:06.713,eb:33:2e:f9:57:b5, 2015-01-01 00:13:16.550,0.002,0.021,0.999,-0.122,0,0.061, , , , , , ,1.258,-0.104,-56.761
 13:49:06.713,eb:33:2e:f9:57:b5, 2015-01-01 00:13:16.550,0.003,0.021,0.998,-0.061,0,0.122, , , , , , ,1.258,-0.104,-56.761
 13:49:06.713,eb:33:2e:f9:57:b5, 2015-01-01 00:13:16.550,0.002,0.021,0.999,0,0,0.122, , , , , , ,1.258,-0.104,-56.761
 13:49:06.713,eb:33:2e:f9:57:b5, 2015-01-01 00:13:16.550,0.002,0.021,0.998,0.061,0,0.183, , , , , , ,1.258,-0.104,-56.761
 13:49:06.713,eb:33:2e:f9:57:b5, 2015-01-01 00:13:16.550,0.001,0.021,1,0,0,0.183, , , , , , ,1.258,-0.104,-56.761
 13:49:06.714,eb:33:2e:f9:57:b5, 2015-01-01 00:13:16.550,0,0.02,0.999,0.061,0,0.244, , , , , , ,1.258,-0.104,-56.761
 13:49:06.714,eb:33:2e:f9:57:b5, 2015-01-01 00:13:16.550,0.001,0.021,0.995,0.061,-0.061,0.244, , , , , , ,1.258,-0.104,-56.761
 13:49:06.736,eb:33:2e:f9:57:b5, 2015-01-01 00:13:16.550,0.001,0.023,0.996,0.122,-0.122,0.244, , , , , , ,1.258,-0.104,-56.761
 13:49:06.736,eb:33:2e:f9:57:b5, 2015-01-01 00:13:16.550,0.001,0.021,0.996,0.061,-0.244,0.305, , , , , , ,1.258,-0.104,-56.761
 13:49:06.736,eb:33:2e:f9:57:b5, 2015-01-01 00:13:16.550,0.001,0.021,0.995,0.061,-0.244,0.305, , , , , , ,1.258,-0.104,-56.761
 13:49:06.736,eb:33:2e:f9:57:b5, 2015-01-01 00:13:16.550,0.001,0.022,0.995,0,-0.244,0.244, , , , , , ,1.258,-0.104,-56.761
 13:49:06.736,eb:33:2e:f9:57:b5, 2015-01-01 00:13:16.550,0.002,0.022,0.995,0,-0.244,0.183, , , , , , ,1.258,-0.104,-56.761
 13:49:06.736,eb:33:2e:f9:57:b5, 2015-01-01 00:13:16.550,0.003,0.022,0.996,-0.061,-0.244,0.122, , , , , , ,1.258,-0.104,-56.761
 13:49:06.736,eb:33:2e:f9:57:b5, 2015-01-01 00:13:16.550,0.003,0.022,0.996,-0.061,-0.183,0.122, , , , , , ,1.258,-0.104,-56.761
 13:49:06.736,eb:33:2e:f9:57:b5, 2015-01-01 00:13:16.550,0.002,0.023,0.996,-0.183,-0.061,0.061, , , , , , ,1.258,-0.104,-56.761
 13:49:06.781,eb:33:2e:f9:57:b5, 2015-01-01 00:13:16.550,0.002,0.023,0.997,-0.244,0,0, , , , , , ,1.258,-0.104,-56.761
 13:49:06.781,eb:33:2e:f9:57:b5, 2015-01-01 00:13:16.550,0.003,0.022,0.996,-0.183,0,0.061, , , , , , ,1.258,-0.104,-56.761
 13:49:06.781,eb:33:2e:f9:57:b5, 2015-01-01 00:13:16.550,0.003,0.022,0.996,-0.244,0,0, , , , , , ,1.258,-0.104,-56.761
 13:49:06.782,eb:33:2e:f9:57:b5, 2015-01-01 00:13:16.550,0.003,0.023,0.997,-0.305,0,0, , , , , , ,1.258,-0.104,-56.761
 13:49:06.782,eb:33:2e:f9:57:b5, 2015-01-01 00:13:16.550,0.002,0.022,0.997,-0.305,0,0, , , , , , ,1.258,-0.104,-56.761
 13:49:06.782,eb:33:2e:f9:57:b5, 2015-01-01 00:13:16.550,0.002,0.023,0.997,-0.305,0.061,0, , , , , , ,1.258,-0.104,-56.761
 13:49:06.783,eb:33:2e:f9:57:b5, 2015-01-01 00:13:16.550,0.001,0.021,0.998,-0.244,0.061,0, , , , , , ,1.258,-0.104,-56.761
 13:49:06.783,eb:33:2e:f9:57:b5, 2015-01-01 00:13:16.550,0,0.021,0.997,-0.244,0,0, , , , , , ,1.258,-0.104,-56.761
 13:49:06.803,eb:33:2e:f9:57:b5, 2015-01-01 00:13:16.550,0,0.021,0.997,-0.244,0,0, , , , , , ,1.258,-0.104,-56.761
 13:49:06.803,eb:33:2e:f9:57:b5, 2015-01-01 00:13:16.550,0.002,0.022,0.997,-0.244,0,0.061, , , , , , ,1.258,-0.104,-56.761
 13:49:06.803,eb:33:2e:f9:57:b5, 2015-01-01 00:13:16.550,0.002,0.021,0.997,-0.183,0,0, , , , , , ,1.258,-0.104,-56.761
 13:49:06.803,eb:33:2e:f9:57:b5, 2015-01-01 00:13:16.550,0.001,0.021,0.998,-0.122,0,0.061, , , , , , ,1.258,-0.104,-56.761
 13:49:06.803,eb:33:2e:f9:57:b5, 2015-01-01 00:13:16.550,0.001,0.021,0.997,-0.122,-0.061,0.061, , , , , , ,1.258,-0.104,-56.761
 13:49:06.803,eb:33:2e:f9:57:b5, 2015-01-01 00:13:16.550,0,0.022,0.995,-0.183,0,0.122, , , , , , ,1.258,-0.104,-56.761
 13:49:06.803,eb:33:2e:f9:57:b5, 2015-01-01 00:13:16.550,0,0.021,0.996,-0.122,-0.061,0.122, , , , , , ,1.258,-0.104,-56.761
 13:49:06.803,eb:33:2e:f9:57:b5, 2015-01-01 00:13:16.550,0.001,0.021,0.996,-0.183,-0.122,0.122, , , , , , ,1.258,-0.104,-56.761
 13:49:06.895,eb:33:2e:f9:57:b5, 2015-01-01 00:13:16.550,0.001,0.021,0.995,-0.183,-0.122,0.122, , , , , , ,1.258,-0.104,-56.761
 13:49:06.895,eb:33:2e:f9:57:b5, 2015-01-01 00:13:16.550,0.002,0.021,0.995,-0.244,-0.183,0.183, , , , , , ,1.258,-0.104,-56.761
 13:49:06.895,eb:33:2e:f9:57:b5, 2015-01-01 00:13:16.550,0.001,0.022,0.997,-0.244,-0.305,0.122, , , , , , ,1.258,-0.104,-56.761
 13:49:06.895,eb:33:2e:f9:57:b5, 2015-01-01 00:13:16.550,0.002,0.022,0.997,-0.305,-0.244,0.061, , , , , , ,1.258,-0.104,-56.761
 13:49:06.895,eb:33:2e:f9:57:b5, 2015-01-01 00:13:16.550,0.003,0.022,0.997,-0.366,-0.244,0.061, , , , , , ,1.258,-0.104,-56.761
 13:49:06.895,eb:33:2e:f9:57:b5, 2015-01-01 00:13:16.550,0.002,0.022,0.997,-0.366,-0.183,0.061, , , , , , ,1.258,-0.104,-56.761
 13:49:06.895,eb:33:2e:f9:57:b5, 2015-01-01 00:13:16.550,0.001,0.021,0.996,-0.427,-0.183,0.061, , , , , , ,1.258,-0.104,-56.761
 13:49:06.895,eb:33:2e:f9:57:b5, 2015-01-01 00:13:16.550,0.002,0.022,0.996,-0.488,-0.244,0, , , , , , ,1.258,-0.104,-56.761
 13:49:06.917,eb:33:2e:f9:57:b5, 2015-01-01 00:13:16.550,0.003,0.021,0.997,-0.427,-0.183,0, , , , , , ,1.258,-0.104,-56.761
 13:49:06.917,eb:33:2e:f9:57:b5, 2015-01-01 00:13:16.550,0.003,0.02,0.999,-0.366,-0.183,0, , , , , , ,1.258,-0.104,-56.761
 13:49:06.917,eb:33:2e:f9:57:b5, 2015-01-01 00:13:16.550,0.002,0.021,1,-0.244,-0.122,0.061, , , , , , ,1.258,-0.104,-56.761
 13:49:06.917,eb:33:2e:f9:57:b5, 2015-01-01 00:13:16.550,0.002,0.021,0.999,-0.183,-0.183,0.061, , , , , , ,1.258,-0.104,-56.761
 13:49:06.917,eb:33:2e:f9:57:b5, 2015-01-01 00:13:16.550,0.002,0.02,0.999,-0.122,-0.061,0.183, , , , , , ,1.258,-0.104,-56.761
 13:49:06.917,eb:33:2e:f9:57:b5, 2015-01-01 00:13:16.550,0.003,0.02,0.999,-0.061,-0.061,0.183, , , , , , ,1.258,-0.104,-56.761
 13:49:06.917,eb:33:2e:f9:57:b5, 2015-01-01 00:13:16.550,0.003,0.021,0.998,0,0,0.183, , , , , , ,1.258,-0.104,-56.761
 13:49:06.917,eb:33:2e:f9:57:b5, 2015-01-01 00:13:16.550,0.002,0.021,0.997,0,0,0.183, , , , , , ,1.258,-0.104,-56.761
 13:49:06.939,eb:33:2e:f9:57:b5, 2015-01-01 00:13:16.550,0,0.021,0.997,-0.061,0,0.183, , , , , , ,1.258,-0.104,-56.761
 13:49:06.939,eb:33:2e:f9:57:b5, 2015-01-01 00:13:16.550,0.001,0.021,0.997,0,-0.122,0.244, , , , , , ,1.258,-0.104,-56.761
 13:49:06.939,eb:33:2e:f9:57:b5, 2015-01-01 00:13:16.550,0,0.022,0.996,0,-0.122,0.183, , , , , , ,1.258,-0.104,-56.761
 13:49:06.939,eb:33:2e:f9:57:b5, 2015-01-01 00:13:16.550,0.001,0.022,0.996,-0.122,-0.061,0.183, , , , , , ,1.258,-0.104,-56.761
 13:49:06.939,eb:33:2e:f9:57:b5, 2015-01-01 00:13:16.550,0.003,0.021,0.997,-0.122,-0.122,0.183, , , , , , ,1.258,-0.104,-56.761
 13:49:06.939,eb:33:2e:f9:57:b5, 2015-01-01 00:13:16.550,0.002,0.021,0.997,-0.061,-0.061,0.244, , , , , , ,1.258,-0.104,-56.761
 13:49:06.939,eb:33:2e:f9:57:b5, 2015-01-01 00:13:16.550,0.001,0.021,0.997,-0.061,-0.061,0.183, , , , , , ,1.258,-0.104,-56.761
 13:49:06.939,eb:33:2e:f9:57:b5, 2015-01-01 00:13:16.550,0.002,0.021,0.997,-0.061,-0.061,0.183, , , , , , ,1.258,-0.104,-56.761
 13:49:07.006,eb:33:2e:f9:57:b5, 2015-01-01 00:13:16.550,0.003,0.021,0.997,0,-0.061,0.183, , , , , , ,1.258,-0.104,-56.761
 13:49:07.006,eb:33:2e:f9:57:b5, 2015-01-01 00:13:16.550,0.002,0.021,0.998,0,0,0.183, , , , , , ,1.258,-0.104,-56.761
 13:49:07.006,eb:33:2e:f9:57:b5, 2015-01-01 00:13:16.550,0.001,0.021,0.998,0,-0.061,0.183, , , , , , ,1.258,-0.104,-56.761
 13:49:07.006,eb:33:2e:f9:57:b5, 2015-01-01 00:13:16.550,0.002,0.021,0.997,0,-0.122,0.244, , , , , , ,1.258,-0.104,-56.761
 13:49:07.006,eb:33:2e:f9:57:b5, 2015-01-01 00:13:16.550,0.001,0.022,0.997,0,-0.061,0.183, , , , , , ,1.258,-0.104,-56.761
 13:49:07.006,eb:33:2e:f9:57:b5, 2015-01-01 00:13:16.550,0.001,0.021,0.996,0,-0.122,0.244, , , , , , ,1.258,-0.104,-56.761
 13:49:07.007,eb:33:2e:f9:57:b5, 2015-01-01 00:13:16.550,0.001,0.021,0.996,-0.061,0,0.183, , , , , , ,1.258,-0.104,-56.761
 13:49:07.007,eb:33:2e:f9:57:b5, 2015-01-01 00:13:16.550,0.002,0.022,0.996,0,-0.061,0.122, , , , , , ,1.258,-0.104,-56.761
 13:49:07.009,eb:33:2e:f9:57:b5, 2015-01-01 00:13:16.950,0.003,0.022,0.997,-0.061,0,0.122, , , , , , ,1.258,-0.104,-56.761
 13:49:07.009,eb:33:2e:f9:57:b5, 2015-01-01 00:13:16.950,0.003,0.022,0.997,-0.122,0,0.061, , , , , , ,1.258,-0.104,-56.761
 13:49:07.009,eb:33:2e:f9:57:b5, 2015-01-01 00:13:16.950,0.003,0.021,0.998,-0.061,0,0.061, , , , , , ,1.258,-0.104,-56.761
 13:49:07.009,eb:33:2e:f9:57:b5, 2015-01-01 00:13:16.950,0.003,0.021,0.997,-0.122,0.122,0, , , , , , ,1.258,-0.104,-56.761
 13:49:07.009,eb:33:2e:f9:57:b5, 2015-01-01 00:13:16.950,0.001,0.021,0.997,-0.122,0.122,0, , , , , , ,1.258,-0.104,-56.761
 13:49:07.009,eb:33:2e:f9:57:b5, 2015-01-01 00:13:16.950,0.002,0.021,0.997,-0.122,0.061,0.061, , , , , , ,1.258,-0.104,-56.761
 13:49:07.009,eb:33:2e:f9:57:b5, 2015-01-01 00:13:16.950,0.002,0.021,0.998,-0.122,0.061,0, , , , , , ,1.258,-0.104,-56.761
 13:49:07.009,eb:33:2e:f9:57:b5, 2015-01-01 00:13:16.950,0.001,0.02,0.999,-0.061,0.122,0.061, , , , , , ,1.258,-0.104,-56.761
 13:49:07.052,eb:33:2e:f9:57:b5, 2015-01-01 00:13:16.950,0,0.02,0.998,0,0.122,0.122, , , , , , ,1.258,-0.104,-56.761
 13:49:07.052,eb:33:2e:f9:57:b5, 2015-01-01 00:13:16.950,0,0.021,0.996,0,0,0.122, , , , , , ,1.258,-0.104,-56.761
 13:49:07.052,eb:33:2e:f9:57:b5, 2015-01-01 00:13:16.950,0.001,0.021,0.995,-0.061,0,0.183, , , , , , ,1.258,-0.104,-56.761
 13:49:07.052,eb:33:2e:f9:57:b5, 2015-01-01 00:13:16.950,0.001,0.021,0.996,-0.061,0,0.183, , , , , , ,1.258,-0.104,-56.761
 13:49:07.052,eb:33:2e:f9:57:b5, 2015-01-01 00:13:16.950,0.001,0.02,0.996,-0.061,-0.122,0.183, , , , , , ,1.258,-0.104,-56.761
 13:49:07.052,eb:33:2e:f9:57:b5, 2015-01-01 00:13:16.950,0.001,0.021,0.996,-0.122,-0.122,0.183, , , , , , ,1.258,-0.104,-56.761
 13:49:07.052,eb:33:2e:f9:57:b5, 2015-01-01 00:13:16.950,0.002,0.021,0.997,-0.122,-0.122,0.122, , , , , , ,1.258,-0.104,-56.761
 13:49:07.053,eb:33:2e:f9:57:b5, 2015-01-01 00:13:16.950,0.003,0.022,0.997,-0.122,-0.183,0.122, , , , , , ,1.258,-0.104,-56.761
 13:49:07.096,eb:33:2e:f9:57:b5, 2015-01-01 00:13:16.950,0.002,0.021,0.996,-0.122,-0.122,0.122, , , , , , ,1.258,-0.104,-56.761
 13:49:07.096,eb:33:2e:f9:57:b5, 2015-01-01 00:13:16.950,0.003,0.021,0.996,-0.122,-0.122,0.122, , , , , , ,1.258,-0.104,-56.761
 13:49:07.096,eb:33:2e:f9:57:b5, 2015-01-01 00:13:16.950,0.002,0.022,0.996,-0.122,-0.122,0.122, , , , , , ,1.258,-0.104,-56.761
 13:49:07.096,eb:33:2e:f9:57:b5, 2015-01-01 00:13:16.950,0.001,0.022,0.997,-0.183,-0.061,0.122, , , , , , ,1.258,-0.104,-56.761
 13:49:07.096,eb:33:2e:f9:57:b5, 2015-01-01 00:13:16.950,0.001,0.021,0.996,-0.244,-0.061,0.122, , , , , , ,1.258,-0.104,-56.761
 13:49:07.096,eb:33:2e:f9:57:b5, 2015-01-01 00:13:16.950,0.002,0.022,0.997,-0.244,-0.061,0.061, , , , , , ,1.258,-0.104,-56.761
 13:49:07.096,eb:33:2e:f9:57:b5, 2015-01-01 00:13:16.950,0.002,0.022,0.996,-0.244,-0.122,0.061, , , , , , ,1.258,-0.104,-56.761
 13:49:07.096,eb:33:2e:f9:57:b5, 2015-01-01 00:13:16.950,0.002,0.022,0.997,-0.305,-0.061,0, , , , , , ,1.258,-0.104,-56.761
 13:49:07.119,eb:33:2e:f9:57:b5, 2015-01-01 00:13:16.950,0.003,0.021,0.998,-0.244,0,0, , , , , , ,1.258,-0.104,-56.761
 13:49:07.119,eb:33:2e:f9:57:b5, 2015-01-01 00:13:16.950,0.003,0.021,0.999,-0.244,0,0.061, , , , , , ,1.258,-0.104,-56.761
 13:49:07.119,eb:33:2e:f9:57:b5, 2015-01-01 00:13:16.950,0.001,0.021,0.998,-0.183,0.061,0.061, , , , , , ,1.258,-0.104,-56.761
 13:49:07.120,eb:33:2e:f9:57:b5, 2015-01-01 00:13:16.950,0.002,0.021,0.997,-0.244,0.061,0.061, , , , , , ,1.258,-0.104,-56.761
 13:49:07.120,eb:33:2e:f9:57:b5, 2015-01-01 00:13:16.950,0.001,0.02,0.998,-0.122,0,0.061, , , , , , ,1.258,-0.104,-56.761
 13:49:07.120,eb:33:2e:f9:57:b5, 2015-01-01 00:13:16.950,0.001,0.021,0.998,-0.122,0,0.061, , , , , , ,1.258,-0.104,-56.761
 13:49:07.120,eb:33:2e:f9:57:b5, 2015-01-01 00:13:16.950,0.002,0.021,0.998,-0.122,0.061,0.061, , , , , , ,1.258,-0.104,-56.761
 13:49:07.120,eb:33:2e:f9:57:b5, 2015-01-01 00:13:16.950,0.002,0.021,0.997,-0.122,0,0.061, , , , , , ,1.258,-0.104,-56.761
 13:49:07.164,eb:33:2e:f9:57:b5, 2015-01-01 00:13:16.950,0.002,0.021,0.997,-0.122,0,0.061, , , , , , ,1.258,-0.104,-56.761
 13:49:07.164,eb:33:2e:f9:57:b5, 2015-01-01 00:13:16.950,0.001,0.022,0.997,-0.122,0.061,0.061, , , , , , ,1.258,-0.104,-56.761
 13:49:07.164,eb:33:2e:f9:57:b5, 2015-01-01 00:13:16.950,0.001,0.021,0.997,-0.183,0.061,0, , , , , , ,1.258,-0.104,-56.761
 13:49:07.164,eb:33:2e:f9:57:b5, 2015-01-01 00:13:16.950,0.002,0.022,0.997,-0.183,0,0.061, , , , , , ,1.258,-0.104,-56.761
 13:49:07.164,eb:33:2e:f9:57:b5, 2015-01-01 00:13:16.950,0,0.021,0.997,-0.244,0.061,0, , , , , , ,1.258,-0.104,-56.761
 13:49:07.164,eb:33:2e:f9:57:b5, 2015-01-01 00:13:16.950,0.001,0.022,0.997,-0.244,0.122,0.061, , , , , , ,1.258,-0.104,-56.761
 13:49:07.164,eb:33:2e:f9:57:b5, 2015-01-01 00:13:16.950,0,0.021,0.996,-0.183,0,0, , , , , , ,1.258,-0.104,-56.761
 13:49:07.164,eb:33:2e:f9:57:b5, 2015-01-01 00:13:16.950,0.002,0.021,0.996,-0.183,-0.061,0, , , , , , ,1.258,-0.104,-56.761
 13:49:07.230,eb:33:2e:f9:57:b5, 2015-01-01 00:13:16.950,0.001,0.021,0.996,-0.244,-0.061,0, , , , , , ,1.258,-0.104,-56.761
 13:49:07.230,eb:33:2e:f9:57:b5, 2015-01-01 00:13:16.950,0.001,0.021,0.997,-0.244,-0.061,0.061, , , , , , ,1.258,-0.104,-56.761
 13:49:07.230,eb:33:2e:f9:57:b5, 2015-01-01 00:13:16.950,0.001,0.021,0.996,-0.305,-0.061,0.061, , , , , , ,1.252,-0.104,-56.761
 13:49:07.230,eb:33:2e:f9:57:b5, 2015-01-01 00:13:16.950,0.002,0.02,0.997,-0.305,-0.122,0.122, , , , , , ,1.252,-0.104,-56.761
 13:49:07.230,eb:33:2e:f9:57:b5, 2015-01-01 00:13:16.950,0.003,0.02,0.998,-0.244,-0.183,0.122, , , , , , ,1.252,-0.104,-56.761
 13:49:07.230,eb:33:2e:f9:57:b5, 2015-01-01 00:13:16.950,0.002,0.021,0.999,-0.183,-0.183,0.122, , , , , , ,1.252,-0.104,-56.761
 13:49:07.230,eb:33:2e:f9:57:b5, 2015-01-01 00:13:16.950,0.002,0.021,0.996,-0.183,-0.061,0.122, , , , , , ,1.252,-0.104,-56.761
 13:49:07.230,eb:33:2e:f9:57:b5, 2015-01-01 00:13:16.950,0.001,0.021,0.996,-0.183,-0.122,0.122, , , , , , ,1.252,-0.104,-56.761
 13:49:07.277,eb:33:2e:f9:57:b5, 2015-01-01 00:13:16.950,0.003,0.02,0.996,-0.244,-0.122,0.122, , , , , , ,1.252,-0.104,-56.761
 13:49:07.277,eb:33:2e:f9:57:b5, 2015-01-01 00:13:16.950,0.003,0.021,0.997,-0.183,-0.122,0.183, , , , , , ,1.252,-0.104,-56.761
 13:49:07.277,eb:33:2e:f9:57:b5, 2015-01-01 00:13:16.950,0.002,0.021,0.997,-0.183,-0.061,0.122, , , , , , ,1.252,-0.104,-56.761
 13:49:07.277,eb:33:2e:f9:57:b5, 2015-01-01 00:13:16.950,0.001,0.021,0.997,-0.183,-0.061,0.061, , , , , , ,1.252,-0.104,-56.761
 13:49:07.277,eb:33:2e:f9:57:b5, 2015-01-01 00:13:16.950,0.002,0.022,0.996,-0.183,-0.122,0.122, , , , , , ,1.252,-0.104,-56.761
 13:49:07.277,eb:33:2e:f9:57:b5, 2015-01-01 00:13:16.950,0.002,0.022,0.996,-0.244,0,0.061, , , , , , ,1.252,-0.104,-56.761
 13:49:07.277,eb:33:2e:f9:57:b5, 2015-01-01 00:13:16.950,0.003,0.022,0.997,-0.244,0,0, , , , , , ,1.252,-0.104,-56.761
 13:49:07.277,eb:33:2e:f9:57:b5, 2015-01-01 00:13:16.950,0.003,0.022,0.996,-0.305,0,0, , , , , , ,1.252,-0.104,-56.761
 13:49:07.279,eb:33:2e:f9:57:b5, 2015-01-01 00:13:16.950,0.002,0.022,0.997,-0.366,0,0, , , , , , ,1.252,-0.104,-56.761
 13:49:07.280,eb:33:2e:f9:57:b5, 2015-01-01 00:13:16.950,0.002,0.021,0.997,-0.366,0.061,0, , , , , , ,1.252,-0.104,-56.761
 13:49:07.280,eb:33:2e:f9:57:b5, 2015-01-01 00:13:16.950,0.002,0.021,0.996,-0.427,0.061,0, , , , , , ,1.252,-0.104,-56.761
 13:49:07.280,eb:33:2e:f9:57:b5, 2015-01-01 00:13:16.950,0.003,0.021,0.997,-0.488,0.061,0, , , , , , ,1.252,-0.104,-56.761
 13:49:07.280,eb:33:2e:f9:57:b5, 2015-01-01 00:13:16.950,0.003,0.021,0.998,-0.488,0.061,-0.061, , , , , , ,1.252,-0.104,-56.761
 13:49:07.280,eb:33:2e:f9:57:b5, 2015-01-01 00:13:16.950,0.002,0.02,0.998,-0.427,0.122,0, , , , , , ,1.252,-0.104,-56.761
 13:49:07.280,eb:33:2e:f9:57:b5, 2015-01-01 00:13:16.950,0.001,0.019,0.998,-0.305,0.122,-0.061, , , , , , ,1.252,-0.104,-56.761
 13:49:07.280,eb:33:2e:f9:57:b5, 2015-01-01 00:13:16.950,0.002,0.019,0.999,-0.244,0.122,0, , , , , , ,1.252,-0.104,-56.761
 13:49:07.322,eb:33:2e:f9:57:b5, 2015-01-01 00:13:16.950,0.001,0.019,0.998,-0.244,0.122,0, , , , , , ,1.252,-0.104,-56.761
 13:49:07.322,eb:33:2e:f9:57:b5, 2015-01-01 00:13:16.950,0,0.019,0.998,-0.183,0.061,0.061, , , , , , ,1.252,-0.104,-56.761
 13:49:07.322,eb:33:2e:f9:57:b5, 2015-01-01 00:13:16.950,0,0.019,0.997,-0.122,0,0.122, , , , , , ,1.252,-0.104,-56.761
 13:49:07.322,eb:33:2e:f9:57:b5, 2015-01-01 00:13:16.950,0.001,0.02,0.998,-0.061,0,0.122, , , , , , ,1.252,-0.104,-56.761
 13:49:07.322,eb:33:2e:f9:57:b5, 2015-01-01 00:13:16.950,0.001,0.02,0.998,-0.061,0,0.122, , , , , , ,1.252,-0.104,-56.761
 13:49:07.322,eb:33:2e:f9:57:b5, 2015-01-01 00:13:16.950,0,0.021,0.998,0,0,0.122, , , , , , ,1.252,-0.104,-56.761
 13:49:07.322,eb:33:2e:f9:57:b5, 2015-01-01 00:13:16.950,0.001,0.021,0.996,0,0,0.183, , , , , , ,1.252,-0.104,-56.761
 13:49:07.322,eb:33:2e:f9:57:b5, 2015-01-01 00:13:16.950,0.002,0.021,0.997,0,-0.061,0.183, , , , , , ,1.252,-0.104,-56.761
 13:49:07.366,eb:33:2e:f9:57:b5, 2015-01-01 00:13:17.310,0.003,0.021,0.997,0,-0.061,0.183, , , , , , ,1.252,-0.104,-56.761
 13:49:07.366,eb:33:2e:f9:57:b5, 2015-01-01 00:13:17.310,0.002,0.02,0.997,0,0,0.122, , , , , , ,1.252,-0.104,-56.761
 13:49:07.366,eb:33:2e:f9:57:b5, 2015-01-01 00:13:17.310,0,0.02,0.998,0,0,0.122, , , , , , ,1.252,-0.104,-56.761
 13:49:07.366,eb:33:2e:f9:57:b5, 2015-01-01 00:13:17.310,0.001,0.021,0.996,0,-0.061,0.183, , , , , , ,1.252,-0.104,-56.761
 13:49:07.366,eb:33:2e:f9:57:b5, 2015-01-01 00:13:17.310,0.003,0.021,0.996,0,0,0.122, , , , , , ,1.252,-0.104,-56.761
 13:49:07.366,eb:33:2e:f9:57:b5, 2015-01-01 00:13:17.310,0.002,0.021,0.997,-0.061,0,0.122, , , , , , ,1.252,-0.104,-56.761
 13:49:07.366,eb:33:2e:f9:57:b5, 2015-01-01 00:13:17.310,0.002,0.021,0.997,-0.122,0.061,0.122, , , , , , ,1.252,-0.104,-56.761
 13:49:07.366,eb:33:2e:f9:57:b5, 2015-01-01 00:13:17.310,0.002,0.021,0.996,-0.122,0.122,0.061, , , , , , ,1.252,-0.104,-56.761
 13:49:07.457,eb:33:2e:f9:57:b5, 2015-01-01 00:13:17.310,0.002,0.02,0.997,-0.122,0.061,0, , , , , , ,1.252,-0.104,-56.761
 13:49:07.457,eb:33:2e:f9:57:b5, 2015-01-01 00:13:17.310,0.002,0.02,0.996,-0.122,0.183,0.061, , , , , , ,1.252,-0.104,-56.761
 13:49:07.457,eb:33:2e:f9:57:b5, 2015-01-01 00:13:17.310,0.002,0.02,0.997,-0.122,0.183,0, , , , , , ,1.252,-0.104,-56.761
 13:49:07.457,eb:33:2e:f9:57:b5, 2015-01-01 00:13:17.310,0.001,0.021,0.997,-0.061,0.183,0.061, , , , , , ,1.252,-0.104,-56.761
 13:49:07.457,eb:33:2e:f9:57:b5, 2015-01-01 00:13:17.310,0.001,0.02,0.997,-0.061,0.183,0.061, , , , , , ,1.252,-0.104,-56.761
 13:49:07.457,eb:33:2e:f9:57:b5, 2015-01-01 00:13:17.310,0.001,0.02,0.997,0,0.183,0.061, , , , , , ,1.252,-0.104,-56.761
 13:49:07.458,eb:33:2e:f9:57:b5, 2015-01-01 00:13:17.310,0.001,0.019,0.999,0.061,0.122,0.122, , , , , , ,1.252,-0.104,-56.761
 13:49:07.458,eb:33:2e:f9:57:b5, 2015-01-01 00:13:17.310,0,0.02,0.998,0.122,0.061,0.183, , , , , , ,1.252,-0.104,-56.761
 13:49:07.458,eb:33:2e:f9:57:b5, 2015-01-01 00:13:17.310,0,0.021,0.997,0.122,0,0.244, , , , , , ,1.252,-0.104,-56.761
 13:49:07.458,eb:33:2e:f9:57:b5, 2015-01-01 00:13:17.310,0,0.021,0.996,0.122,-0.061,0.244, , , , , , ,1.252,-0.104,-56.761
 13:49:07.458,eb:33:2e:f9:57:b5, 2015-01-01 00:13:17.310,0.001,0.021,0.996,0.122,-0.061,0.244, , , , , , ,1.252,-0.104,-56.761
 13:49:07.458,eb:33:2e:f9:57:b5, 2015-01-01 00:13:17.310,0.001,0.021,0.996,0.122,-0.122,0.244, , , , , , ,1.252,-0.104,-56.761
 13:49:07.458,eb:33:2e:f9:57:b5, 2015-01-01 00:13:17.310,0.002,0.021,0.996,0.061,-0.122,0.305, , , , , , ,1.252,-0.104,-56.761
 13:49:07.458,eb:33:2e:f9:57:b5, 2015-01-01 00:13:17.310,0.002,0.021,0.997,0.122,-0.183,0.244, , , , , , ,1.252,-0.104,-56.761
 13:49:07.458,eb:33:2e:f9:57:b5, 2015-01-01 00:13:17.310,0.003,0.022,0.997,0.061,-0.061,0.305, , , , , , ,1.252,-0.104,-56.761
 13:49:07.458,eb:33:2e:f9:57:b5, 2015-01-01 00:13:17.310,0.002,0.021,0.997,0.061,0,0.244, , , , , , ,1.252,-0.104,-56.761
 13:49:07.501,eb:33:2e:f9:57:b5, 2015-01-01 00:13:17.310,0.002,0.021,0.996,0,0.061,0.183, , , , , , ,1.252,-0.104,-56.761
 13:49:07.501,eb:33:2e:f9:57:b5, 2015-01-01 00:13:17.310,0.001,0.021,0.997,0,0.122,0.061, , , , , , ,1.252,-0.104,-56.761
 13:49:07.501,eb:33:2e:f9:57:b5, 2015-01-01 00:13:17.310,-0.004,0.021,0.995,-0.122,0.122,0.122, , , , , , ,1.252,-0.104,-56.761
 13:49:07.501,eb:33:2e:f9:57:b5, 2015-01-01 00:13:17.310,0.007,0.02,0.992,-0.122,-0.061,0.244, , , , , , ,1.252,-0.104,-56.761
 13:49:07.501,eb:33:2e:f9:57:b5, 2015-01-01 00:13:17.310,0.008,0.024,0.999,-0.122,0.061,0, , , , , , ,1.252,-0.104,-56.761
 13:49:07.501,eb:33:2e:f9:57:b5, 2015-01-01 00:13:17.310,0.003,0.021,1,-0.183,0.366,-0.061, , , , , , ,1.252,-0.104,-56.761
 13:49:07.501,eb:33:2e:f9:57:b5, 2015-01-01 00:13:17.310,0.001,0.019,0.999,-0.183,0.488,0, , , , , , ,1.252,-0.104,-56.761
 13:49:07.501,eb:33:2e:f9:57:b5, 2015-01-01 00:13:17.310,-0.004,0.021,0.996,-0.183,0.488,0.061, , , , , , ,1.252,-0.104,-56.761
 13:49:07.524,eb:33:2e:f9:57:b5, 2015-01-01 00:13:17.310,0,0.02,0.994,-0.122,0.183,0, , , , , , ,1.252,-0.104,-56.761
 13:49:07.524,eb:33:2e:f9:57:b5, 2015-01-01 00:13:17.310,0.002,0.02,0.995,-0.122,0.122,0, , , , , , ,1.252,-0.104,-56.761
 13:49:07.524,eb:33:2e:f9:57:b5, 2015-01-01 00:13:17.310,0.001,0.02,0.998,-0.061,0.183,0.061, , , , , , ,1.247,-0.104,-56.761
 13:49:07.524,eb:33:2e:f9:57:b5, 2015-01-01 00:13:17.310,0,0.02,0.997,0,0.122,0.061, , , , , , ,1.247,-0.104,-56.761
 13:49:07.524,eb:33:2e:f9:57:b5, 2015-01-01 00:13:17.310,0,0.02,0.997,0.061,0.061,0.061, , , , , , ,1.247,-0.104,-56.761
 13:49:07.524,eb:33:2e:f9:57:b5, 2015-01-01 00:13:17.310,0,0.02,0.997,0,0,0.122, , , , , , ,1.247,-0.104,-56.761
 13:49:07.524,eb:33:2e:f9:57:b5, 2015-01-01 00:13:17.310,0.001,0.02,0.997,0.061,-0.061,0.183, , , , , , ,1.247,-0.104,-56.761
 13:49:07.524,eb:33:2e:f9:57:b5, 2015-01-01 00:13:17.310,0.001,0.02,0.998,0,-0.061,0.183, , , , , , ,1.247,-0.104,-56.761
 13:49:07.570,eb:33:2e:f9:57:b5, 2015-01-01 00:13:17.310,0.002,0.02,0.998,0.061,0,0.244, , , , , , ,1.247,-0.104,-56.761
 13:49:07.570,eb:33:2e:f9:57:b5, 2015-01-01 00:13:17.310,0.001,0.02,0.997,0.061,0,0.244, , , , , , ,1.247,-0.104,-56.761
 13:49:07.570,eb:33:2e:f9:57:b5, 2015-01-01 00:13:17.310,0,0.021,0.997,0.061,0,0.244, , , , , , ,1.247,-0.104,-56.761
 13:49:07.570,eb:33:2e:f9:57:b5, 2015-01-01 00:13:17.310,0,0.021,0.997,0,-0.061,0.305, , , , , , ,1.247,-0.104,-56.761
 13:49:07.570,eb:33:2e:f9:57:b5, 2015-01-01 00:13:17.310,0.002,0.021,0.996,0,-0.061,0.244, , , , , , ,1.247,-0.104,-56.761
 13:49:07.570,eb:33:2e:f9:57:b5, 2015-01-01 00:13:17.310,0.002,0.022,0.996,0,0,0.183, , , , , , ,1.247,-0.104,-56.761
 13:49:07.570,eb:33:2e:f9:57:b5, 2015-01-01 00:13:17.310,0,0.022,0.997,0,0,0.122, , , , , , ,1.247,-0.104,-56.761
 13:49:07.570,eb:33:2e:f9:57:b5, 2015-01-01 00:13:17.310,0,0.021,0.995,0,0,0.183, , , , , , ,1.247,-0.104,-56.761
 13:49:07.635,eb:33:2e:f9:57:b5, 2015-01-01 00:13:17.310,0,0.021,0.995,-0.061,0,0.183, , , , , , ,1.247,-0.104,-56.761
 13:49:07.635,eb:33:2e:f9:57:b5, 2015-01-01 00:13:17.310,0,0.02,0.995,-0.061,-0.122,0.183, , , , , , ,1.247,-0.104,-56.761
 13:49:07.635,eb:33:2e:f9:57:b5, 2015-01-01 00:13:17.310,0,0.02,0.996,-0.122,-0.183,0.122, , , , , , ,1.247,-0.104,-56.761
 13:49:07.635,eb:33:2e:f9:57:b5, 2015-01-01 00:13:17.310,0.001,0.021,0.996,-0.122,-0.183,0.122, , , , , , ,1.247,-0.104,-56.761
 13:49:07.635,eb:33:2e:f9:57:b5, 2015-01-01 00:13:17.310,0.001,0.02,0.996,-0.183,-0.244,0.183, , , , , , ,1.247,-0.104,-56.761
 13:49:07.635,eb:33:2e:f9:57:b5, 2015-01-01 00:13:17.310,0.002,0.021,0.996,-0.183,-0.244,0.122, , , , , , ,1.247,-0.104,-56.761
 13:49:07.635,eb:33:2e:f9:57:b5, 2015-01-01 00:13:17.310,0.002,0.021,0.998,-0.122,-0.183,0.122, , , , , , ,1.247,-0.104,-56.761
 13:49:07.635,eb:33:2e:f9:57:b5, 2015-01-01 00:13:17.310,0.002,0.021,0.998,-0.122,-0.183,0.183, , , , , , ,1.247,-0.104,-56.761
 13:49:07.681,eb:33:2e:f9:57:b5, 2015-01-01 00:13:17.600,0.002,0.019,0.999,-0.061,-0.061,0.122, , , , , , ,1.247,-0.104,-56.761
 13:49:07.681,eb:33:2e:f9:57:b5, 2015-01-01 00:13:17.600,0.003,0.019,1,0,0,0.183, , , , , , ,1.247,-0.104,-56.761
 13:49:07.681,eb:33:2e:f9:57:b5, 2015-01-01 00:13:17.600,0.004,0.019,1,0.122,0,0.244, , , , , , ,1.247,-0.104,-56.761
 13:49:07.681,eb:33:2e:f9:57:b5, 2015-01-01 00:13:17.600,0.003,0.02,1.001,0.183,0.061,0.305, , , , , , ,1.247,-0.104,-56.761
 13:49:07.681,eb:33:2e:f9:57:b5, 2015-01-01 00:13:17.600,0,0.02,0.998,0.244,0.183,0.244, , , , , , ,1.247,-0.104,-56.761
 13:49:07.681,eb:33:2e:f9:57:b5, 2015-01-01 00:13:17.600,0,0.02,0.996,0.244,0.183,0.244, , , , , , ,1.247,-0.104,-56.761
 13:49:07.681,eb:33:2e:f9:57:b5, 2015-01-01 00:13:17.600,0,0.02,0.996,0.305,0.061,0.305, , , , , , ,1.247,-0.104,-56.761
 13:49:07.681,eb:33:2e:f9:57:b5, 2015-01-01 00:13:17.600,0.001,0.02,0.997,0.305,0.061,0.305, , , , , , ,1.247,-0.104,-56.761
 13:49:07.682,eb:33:2e:f9:57:b5, 2015-01-01 00:13:17.600,0.001,0.019,0.999,0.305,0,0.305, , , , , , ,1.247,-0.104,-56.761
 13:49:07.682,eb:33:2e:f9:57:b5, 2015-01-01 00:13:17.600,0,0.02,0.998,0.366,0.061,0.366, , , , , , ,1.247,-0.104,-56.761
 13:49:07.682,eb:33:2e:f9:57:b5, 2015-01-01 00:13:17.600,0,0.021,0.995,0.366,0,0.305, , , , , , ,1.247,-0.104,-56.761
 13:49:07.682,eb:33:2e:f9:57:b5, 2015-01-01 00:13:17.600,0,0.021,0.994,0.305,-0.122,0.305, , , , , , ,1.247,-0.104,-56.761
 13:49:07.682,eb:33:2e:f9:57:b5, 2015-01-01 00:13:17.600,0,0.022,0.994,0.244,-0.122,0.244, , , , , , ,1.247,-0.104,-56.761
 13:49:07.682,eb:33:2e:f9:57:b5, 2015-01-01 00:13:17.600,0,0.022,0.994,0.183,-0.183,0.244, , , , , , ,1.247,-0.104,-56.761
 13:49:07.682,eb:33:2e:f9:57:b5, 2015-01-01 00:13:17.600,0,0.022,0.996,0.122,-0.305,0.244, , , , , , ,1.247,-0.104,-56.761
 13:49:07.682,eb:33:2e:f9:57:b5, 2015-01-01 00:13:17.600,0.001,0.021,0.995,0.061,-0.305,0.305, , , , , , ,1.247,-0.104,-56.761
 13:49:07.728,eb:33:2e:f9:57:b5, 2015-01-01 00:13:17.600,0.002,0.021,0.995,0,-0.244,0.244, , , , , , ,1.247,-0.104,-56.761
 13:49:07.728,eb:33:2e:f9:57:b5, 2015-01-01 00:13:17.600,0.002,0.021,0.997,0,-0.244,0.183, , , , , , ,1.247,-0.104,-56.761
 13:49:07.728,eb:33:2e:f9:57:b5, 2015-01-01 00:13:17.600,0.001,0.022,0.996,0,-0.183,0.183, , , , , , ,1.247,-0.104,-56.761
 13:49:07.728,eb:33:2e:f9:57:b5, 2015-01-01 00:13:17.600,0.001,0.021,0.996,-0.061,-0.183,0.183, , , , , , ,1.247,-0.104,-56.761
 13:49:07.728,eb:33:2e:f9:57:b5, 2015-01-01 00:13:17.600,0.002,0.021,0.998,-0.061,-0.183,0.183, , , , , , ,1.247,-0.104,-56.761
 13:49:07.728,eb:33:2e:f9:57:b5, 2015-01-01 00:13:17.600,0.003,0.02,0.999,0,-0.183,0.244, , , , , , ,1.247,-0.104,-56.761
 13:49:07.728,eb:33:2e:f9:57:b5, 2015-01-01 00:13:17.600,0.003,0.021,1,0.061,-0.122,0.305, , , , , , ,1.247,-0.104,-56.761
 13:49:07.728,eb:33:2e:f9:57:b5, 2015-01-01 00:13:17.600,0.001,0.02,1,0.183,-0.061,0.244, , , , , , ,1.247,-0.104,-56.761
 13:49:07.839,eb:33:2e:f9:57:b5, 2015-01-01 00:13:17.600,0.002,0.021,0.999,0.183,0,0.305, , , , , , ,1.247,-0.104,-56.761
 13:49:07.839,eb:33:2e:f9:57:b5, 2015-01-01 00:13:17.600,0.001,0.021,0.998,0.244,0,0.244, , , , , , ,1.247,-0.104,-56.761
 13:49:07.839,eb:33:2e:f9:57:b5, 2015-01-01 00:13:17.600,0.002,0.021,0.998,0.305,-0.061,0.244, , , , , , ,1.247,-0.104,-56.761
 13:49:07.839,eb:33:2e:f9:57:b5, 2015-01-01 00:13:17.600,0.001,0.021,0.998,0.305,0,0.305, , , , , , ,1.247,-0.104,-56.761
 13:49:07.839,eb:33:2e:f9:57:b5, 2015-01-01 00:13:17.600,0.002,0.021,0.997,0.305,0,0.305, , , , , , ,1.247,-0.104,-56.761
 13:49:07.839,eb:33:2e:f9:57:b5, 2015-01-01 00:13:17.600,0.002,0.022,0.996,0.244,0,0.244, , , , , , ,1.247,-0.104,-56.761
 13:49:07.839,eb:33:2e:f9:57:b5, 2015-01-01 00:13:17.600,0.001,0.023,0.996,0.183,0,0.244, , , , , , ,1.247,-0.104,-56.761
 13:49:07.839,eb:33:2e:f9:57:b5, 2015-01-01 00:13:17.600,0.001,0.022,0.995,0.122,0,0.183, , , , , , ,1.247,-0.104,-56.761
 13:49:07.861,eb:33:2e:f9:57:b5, 2015-01-01 00:13:17.600,0,0.022,0.995,0.122,0,0.183, , , , , , ,1.247,-0.104,-56.761
 13:49:07.861,eb:33:2e:f9:57:b5, 2015-01-01 00:13:17.600,0,0.022,0.994,0,-0.061,0.122, , , , , , ,1.247,-0.104,-56.761
 13:49:07.861,eb:33:2e:f9:57:b5, 2015-01-01 00:13:17.600,0,0.021,0.994,0,-0.061,0.122, , , , , , ,1.247,-0.104,-56.761
 13:49:07.861,eb:33:2e:f9:57:b5, 2015-01-01 00:13:17.600,0.001,0.021,0.995,-0.061,-0.122,0.122, , , , , , ,1.247,-0.104,-56.761
 13:49:07.861,eb:33:2e:f9:57:b5, 2015-01-01 00:13:17.600,0,0.021,0.995,-0.061,-0.183,0.122, , , , , , ,1.247,-0.104,-56.761
 13:49:07.861,eb:33:2e:f9:57:b5, 2015-01-01 00:13:17.600,0,0.021,0.996,-0.061,-0.122,0.122, , , , , , ,1.247,-0.104,-56.761
 13:49:07.861,eb:33:2e:f9:57:b5, 2015-01-01 00:13:17.600,0.001,0.021,0.996,-0.122,-0.183,0.122, , , , , , ,1.247,-0.104,-56.761
 13:49:07.861,eb:33:2e:f9:57:b5, 2015-01-01 00:13:17.600,0,0.021,0.996,-0.122,-0.183,0.122, , , , , , ,1.247,-0.104,-56.761
 13:49:07.997,eb:33:2e:f9:57:b5, 2015-01-01 00:13:17.600,0.001,0.021,0.997,-0.122,-0.244,0.183, , , , , , ,1.247,-0.104,-56.761
 13:49:07.997,eb:33:2e:f9:57:b5, 2015-01-01 00:13:17.600,0.002,0.02,0.996,-0.122,-0.244,0.183, , , , , , ,1.247,-0.104,-56.761
 13:49:07.997,eb:33:2e:f9:57:b5, 2015-01-01 00:13:17.600,0.003,0.021,0.998,-0.061,-0.244,0.183, , , , , , ,1.247,-0.104,-56.761
 13:49:07.997,eb:33:2e:f9:57:b5, 2015-01-01 00:13:17.600,0.004,0.021,0.999,0,-0.122,0.183, , , , , , ,1.247,-0.104,-56.761
 13:49:07.998,eb:33:2e:f9:57:b5, 2015-01-01 00:13:17.600,0.002,0.021,0.998,0,-0.122,0.183, , , , , , ,1.247,-0.104,-56.761
 13:49:07.998,eb:33:2e:f9:57:b5, 2015-01-01 00:13:17.600,0.002,0.022,0.997,0,-0.122,0.244, , , , , , ,1.247,-0.104,-56.761
 13:49:07.998,eb:33:2e:f9:57:b5, 2015-01-01 00:13:17.600,0.003,0.021,0.998,0,-0.061,0.183, , , , , , ,1.247,-0.104,-56.761
 13:49:07.998,eb:33:2e:f9:57:b5, 2015-01-01 00:13:17.600,0.002,0.021,0.997,0,0,0.183, , , , , , ,1.247,-0.104,-56.761
 13:49:08.000,eb:33:2e:f9:57:b5, 2015-01-01 00:13:17.600,0.002,0.021,0.997,0,0,0.183, , , , , , ,1.247,-0.104,-56.761
 13:49:08.000,eb:33:2e:f9:57:b5, 2015-01-01 00:13:17.600,0.002,0.022,0.996,0,0,0.122, , , , , , ,1.247,-0.104,-56.761
 13:49:08.000,eb:33:2e:f9:57:b5, 2015-01-01 00:13:17.600,0.002,0.023,0.996,0,0.061,0.122, , , , , , ,1.247,-0.104,-56.761
 13:49:08.000,eb:33:2e:f9:57:b5, 2015-01-01 00:13:17.600,0.001,0.023,0.996,0,0.183,0.061, , , , , , ,1.247,-0.104,-56.761
 13:49:08.000,eb:33:2e:f9:57:b5, 2015-01-01 00:13:17.600,0.002,0.022,0.996,-0.122,0.183,0.061, , , , , , ,1.247,-0.104,-56.761
 13:49:08.000,eb:33:2e:f9:57:b5, 2015-01-01 00:13:17.600,0.001,0.023,0.996,-0.183,0.122,0, , , , , , ,1.247,-0.104,-56.761
 13:49:08.000,eb:33:2e:f9:57:b5, 2015-01-01 00:13:17.600,0.001,0.022,0.996,-0.183,0.122,0, , , , , , ,1.247,-0.104,-56.761
 13:49:08.001,eb:33:2e:f9:57:b5, 2015-01-01 00:13:17.600,0.001,0.021,0.996,-0.244,0.122,0, , , , , , ,1.247,-0.104,-56.761
 13:49:08.003,eb:33:2e:f9:57:b5, 2015-01-01 00:13:17.600,0.001,0.021,0.997,-0.244,0.061,0, , , , , , ,1.247,-0.104,-56.761
 13:49:08.003,eb:33:2e:f9:57:b5, 2015-01-01 00:13:17.600,0,0.021,0.997,-0.183,0,0, , , , , , ,1.247,-0.104,-56.761
 13:49:08.003,eb:33:2e:f9:57:b5, 2015-01-01 00:13:17.600,0.001,0.02,0.997,-0.122,0,0, , , , , , ,1.247,-0.104,-56.761
 13:49:08.003,eb:33:2e:f9:57:b5, 2015-01-01 00:13:17.600,0.001,0.02,0.998,-0.061,0,0.061, , , , , , ,1.247,-0.104,-56.761
 13:49:08.003,eb:33:2e:f9:57:b5, 2015-01-01 00:13:17.600,0,0.02,0.998,0,-0.061,0.183, , , , , , ,1.247,-0.104,-56.761
 13:49:08.003,eb:33:2e:f9:57:b5, 2015-01-01 00:13:17.600,0.001,0.019,0.999,0,0,0.122, , , , , , ,1.247,-0.104,-56.761
 13:49:08.003,eb:33:2e:f9:57:b5, 2015-01-01 00:13:17.600,0.001,0.021,0.998,0.061,-0.122,0.183, , , , , , ,1.247,-0.104,-56.761
 13:49:08.003,eb:33:2e:f9:57:b5, 2015-01-01 00:13:17.600,0.001,0.021,0.998,0.122,-0.061,0.183, , , , , , ,1.247,-0.104,-56.761
 13:49:08.043,eb:33:2e:f9:57:b5, 2015-01-01 00:13:17.600,0.001,0.021,0.997,0.122,-0.122,0.244, , , , , , ,1.247,-0.104,-56.761
 13:49:08.043,eb:33:2e:f9:57:b5, 2015-01-01 00:13:17.600,0.001,0.022,0.996,0.183,-0.122,0.244, , , , , , ,1.247,-0.104,-56.761
 13:49:08.043,eb:33:2e:f9:57:b5, 2015-01-01 00:13:17.600,0.001,0.022,0.998,0.183,-0.183,0.244, , , , , , ,1.247,-0.104,-56.761
 13:49:08.043,eb:33:2e:f9:57:b5, 2015-01-01 00:13:17.600,0.003,0.021,0.998,0.183,-0.122,0.305, , , , , , ,1.247,-0.104,-56.761
 13:49:08.043,eb:33:2e:f9:57:b5, 2015-01-01 00:13:17.600,0.002,0.021,0.997,0.183,-0.122,0.244, , , , , , ,1.247,-0.104,-56.761
 13:49:08.043,eb:33:2e:f9:57:b5, 2015-01-01 00:13:17.600,0.003,0.022,0.997,0.183,-0.061,0.305, , , , , , ,1.247,-0.104,-56.761
 13:49:08.043,eb:33:2e:f9:57:b5, 2015-01-01 00:13:17.600,0.001,0.022,0.996,0.122,0,0.183, , , , , , ,1.247,-0.104,-56.761
 13:49:08.043,eb:33:2e:f9:57:b5, 2015-01-01 00:13:17.600,0.003,0.022,0.995,0,0,0.183, , , , , , ,1.247,-0.104,-56.761
 13:49:08.046,eb:33:2e:f9:57:b5, 2015-01-01 00:13:17.600,0.003,0.022,0.996,0,0,0.061, , , , , , ,1.247,-0.104,-56.761
 13:49:08.046,eb:33:2e:f9:57:b5, 2015-01-01 00:13:17.600,0.002,0.022,0.997,0,0.061,0.122, , , , , , ,1.247,-0.104,-56.761
 13:49:08.046,eb:33:2e:f9:57:b5, 2015-01-01 00:13:17.600,0.001,0.022,0.996,-0.061,0.122,0.061, , , , , , ,1.247,-0.104,-56.761
 13:49:08.046,eb:33:2e:f9:57:b5, 2015-01-01 00:13:17.600,0.001,0.022,0.995,-0.122,0.061,0, , , , , , ,1.247,-0.104,-56.761
 13:49:08.046,eb:33:2e:f9:57:b5, 2015-01-01 00:13:17.600,0.002,0.022,0.996,-0.122,0,0, , , , , , ,1.247,-0.104,-56.761
 13:49:08.046,eb:33:2e:f9:57:b5, 2015-01-01 00:13:17.600,0.001,0.021,0.996,-0.122,0.061,0, , , , , , ,1.247,-0.104,-56.761
 13:49:08.046,eb:33:2e:f9:57:b5, 2015-01-01 00:13:17.600,0.001,0.021,0.997,-0.122,0.061,0, , , , , , ,1.247,-0.104,-56.761
 13:49:08.046,eb:33:2e:f9:57:b5, 2015-01-01 00:13:17.600,0,0.021,0.997,-0.061,0,0.061, , , , , , ,1.247,-0.104,-56.761
 13:49:08.047,eb:33:2e:f9:57:b5, 2015-01-01 00:13:17.600,0,0.021,0.996,-0.061,0,0.061, , , , , , ,1.247,-0.104,-56.761
 13:49:08.047,eb:33:2e:f9:57:b5, 2015-01-01 00:13:17.600,0.001,0.021,0.996,-0.061,0,0.061, , , , , , ,1.247,-0.104,-56.761
 13:49:08.047,eb:33:2e:f9:57:b5, 2015-01-01 00:13:17.600,0.002,0.021,0.998,0,0,0.061, , , , , , ,1.247,-0.104,-56.761
 13:49:08.047,eb:33:2e:f9:57:b5, 2015-01-01 00:13:17.600,0.001,0.021,0.998,0,0,0.061, , , , , , ,1.247,-0.104,-56.761
 13:49:08.048,eb:33:2e:f9:57:b5, 2015-01-01 00:13:17.600,0,0.021,0.998,0,0,0.183, , , , , , ,1.247,-0.104,-56.761
 13:49:08.048,eb:33:2e:f9:57:b5, 2015-01-01 00:13:17.600,0.002,0.021,0.998,0,0,0.122, , , , , , ,1.247,-0.104,-56.761
 13:49:08.048,eb:33:2e:f9:57:b5, 2015-01-01 00:13:17.600,0.002,0.021,0.998,0,0,0.061, , , , , , ,1.247,-0.104,-56.761
 13:49:08.048,eb:33:2e:f9:57:b5, 2015-01-01 00:13:17.600,0.001,0.022,0.997,0,0,0.061, , , , , , ,1.247,-0.104,-56.761
 13:49:08.131,eb:33:2e:f9:57:b5, 2015-01-01 00:13:17.600,0.001,0.022,0.996,0,0,0.061, , , , , , ,1.247,-0.104,-56.761
 13:49:08.131,eb:33:2e:f9:57:b5, 2015-01-01 00:13:17.600,0.001,0.022,0.997,0,-0.061,0.122, , , , , , ,1.247,-0.104,-56.761
 13:49:08.131,eb:33:2e:f9:57:b5, 2015-01-01 00:13:17.600,0.001,0.022,0.996,-0.061,-0.061,0.061, , , , , , ,1.247,-0.104,-56.761
 13:49:08.131,eb:33:2e:f9:57:b5, 2015-01-01 00:13:17.600,0.002,0.022,0.996,-0.122,0,0.061, , , , , , ,1.247,-0.104,-56.761
 13:49:08.131,eb:33:2e:f9:57:b5, 2015-01-01 00:13:17.600,0.001,0.022,0.996,-0.122,0,0.061, , , , , , ,1.247,-0.104,-56.761
 13:49:08.131,eb:33:2e:f9:57:b5, 2015-01-01 00:13:17.600,0.002,0.021,0.996,-0.183,0,0, , , , , , ,1.247,-0.104,-56.761
 13:49:08.131,eb:33:2e:f9:57:b5, 2015-01-01 00:13:17.600,0.002,0.021,0.996,-0.183,0,0, , , , , , ,1.247,-0.104,-56.761
 13:49:08.131,eb:33:2e:f9:57:b5, 2015-01-01 00:13:17.600,0.002,0.021,0.997,-0.244,0,0, , , , , , ,1.247,-0.104,-56.761
 13:49:08.131,eb:33:2e:f9:57:b5, 2015-01-01 00:13:17.600,0.002,0.021,0.997,-0.244,0,0, , , , , , ,1.247,-0.104,-56.761
 13:49:08.131,eb:33:2e:f9:57:b5, 2015-01-01 00:13:17.600,0.002,0.021,0.997,-0.244,0,0, , , , , , ,1.247,-0.104,-56.761
 13:49:08.131,eb:33:2e:f9:57:b5, 2015-01-01 00:13:17.600,0.003,0.021,0.997,-0.244,0,0, , , , , , ,1.247,-0.104,-56.761
 13:49:08.131,eb:33:2e:f9:57:b5, 2015-01-01 00:13:17.600,0.002,0.021,0.997,-0.244,0.122,0, , , , , , ,1.247,-0.104,-56.761
 13:49:08.131,eb:33:2e:f9:57:b5, 2015-01-01 00:13:17.600,0.002,0.021,0.999,-0.183,0.122,0, , , , , , ,1.247,-0.104,-56.761
 13:49:08.131,eb:33:2e:f9:57:b5, 2015-01-01 00:13:17.600,0.001,0.021,0.998,-0.122,0.183,0, , , , , , ,1.247,-0.104,-56.761
 13:49:08.131,eb:33:2e:f9:57:b5, 2015-01-01 00:13:17.600,-0.001,0.021,0.998,-0.122,0.122,0, , , , , , ,1.247,-0.104,-56.761
 13:49:08.131,eb:33:2e:f9:57:b5, 2015-01-01 00:13:17.600,-0.001,0.021,0.995,-0.061,0.061,0.061, , , , , , ,1.247,-0.104,-56.761
 13:49:08.177,eb:33:2e:f9:57:b5, 2015-01-01 00:13:17.600,0,0.021,0.996,-0.061,0,0.061, , , , , , ,1.247,-0.104,-56.761
 13:49:08.177,eb:33:2e:f9:57:b5, 2015-01-01 00:13:17.600,0.001,0.021,0.997,-0.122,-0.061,0.122, , , , , , ,1.247,-0.104,-56.761
 13:49:08.177,eb:33:2e:f9:57:b5, 2015-01-01 00:13:17.600,0.001,0.021,0.997,-0.061,-0.061,0.122, , , , , , ,1.247,-0.104,-56.761
 13:49:08.177,eb:33:2e:f9:57:b5, 2015-01-01 00:13:17.600,0,0.021,0.997,-0.061,-0.061,0.061, , , , , , ,1.247,-0.104,-56.761
 13:49:08.177,eb:33:2e:f9:57:b5, 2015-01-01 00:13:17.600,0.001,0.021,0.996,-0.061,-0.122,0.061, , , , , , ,1.247,-0.104,-56.761
 13:49:08.177,eb:33:2e:f9:57:b5, 2015-01-01 00:13:17.600,0.002,0.022,0.996,-0.061,-0.183,0.061, , , , , , ,1.247,-0.104,-56.761
 13:49:08.177,eb:33:2e:f9:57:b5, 2015-01-01 00:13:17.600,0.002,0.022,0.997,-0.183,-0.122,0.061, , , , , , ,1.247,-0.104,-56.761
 13:49:08.177,eb:33:2e:f9:57:b5, 2015-01-01 00:13:17.600,0.001,0.022,0.997,-0.183,-0.061,0, , , , , , ,1.247,-0.104,-56.761
 13:49:08.222,eb:33:2e:f9:57:b5, 2015-01-01 00:13:18.155,0.001,0.021,0.996,-0.183,-0.061,0, , , , , , ,1.247,-0.104,-56.761
 13:49:08.222,eb:33:2e:f9:57:b5, 2015-01-01 00:13:18.155,0.001,0.021,0.997,-0.183,0,0, , , , , , ,1.247,-0.104,-56.761
 13:49:08.222,eb:33:2e:f9:57:b5, 2015-01-01 00:13:18.155,0.002,0.021,0.997,-0.244,0,0.061, , , , , , ,1.247,-0.104,-56.761
 13:49:08.222,eb:33:2e:f9:57:b5, 2015-01-01 00:13:18.155,0.002,0.021,0.997,-0.305,0,0, , , , , , ,1.247,-0.104,-56.761
 13:49:08.222,eb:33:2e:f9:57:b5, 2015-01-01 00:13:18.155,0.002,0.022,0.997,-0.305,0,0, , , , , , ,1.247,-0.104,-56.761
 13:49:08.222,eb:33:2e:f9:57:b5, 2015-01-01 00:13:18.155,0.001,0.021,0.997,-0.305,0.061,0.061, , , , , , ,1.247,-0.104,-56.761
 13:49:08.222,eb:33:2e:f9:57:b5, 2015-01-01 00:13:18.155,0,0.021,0.997,-0.244,0,0, , , , , , ,1.247,-0.104,-56.761
 13:49:08.222,eb:33:2e:f9:57:b5, 2015-01-01 00:13:18.155,0.001,0.02,0.997,-0.244,0,0.061, , , , , , ,1.247,-0.104,-56.761
 13:49:08.267,eb:33:2e:f9:57:b5, 2015-01-01 00:13:18.155,0,0.02,0.998,-0.183,0,0.061, , , , , , ,1.247,-0.104,-56.761
 13:49:08.267,eb:33:2e:f9:57:b5, 2015-01-01 00:13:18.155,0,0.02,0.997,-0.122,0,0.183, , , , , , ,1.247,-0.104,-56.761
 13:49:08.267,eb:33:2e:f9:57:b5, 2015-01-01 00:13:18.155,0.001,0.019,0.998,-0.061,-0.122,0.183, , , , , , ,1.247,-0.104,-56.761
 13:49:08.267,eb:33:2e:f9:57:b5, 2015-01-01 00:13:18.155,0.001,0.021,0.999,0,-0.061,0.244, , , , , , ,1.247,-0.104,-56.761
 13:49:08.267,eb:33:2e:f9:57:b5, 2015-01-01 00:13:18.155,0,0.02,0.999,0,-0.183,0.244, , , , , , ,1.247,-0.104,-56.761
 13:49:08.267,eb:33:2e:f9:57:b5, 2015-01-01 00:13:18.155,0,0.021,0.997,0,-0.244,0.305, , , , , , ,1.247,-0.104,-56.761
 13:49:08.267,eb:33:2e:f9:57:b5, 2015-01-01 00:13:18.155,0.001,0.021,0.996,0,-0.244,0.305, , , , , , ,1.241,-0.104,-56.761
 13:49:08.267,eb:33:2e:f9:57:b5, 2015-01-01 00:13:18.155,0.002,0.022,0.996,0,-0.305,0.305, , , , , , ,1.241,-0.104,-56.761
 13:49:08.312,eb:33:2e:f9:57:b5, 2015-01-01 00:13:18.155,0.003,0.022,0.996,-0.061,-0.244,0.244, , , , , , ,1.241,-0.104,-56.761
 13:49:08.312,eb:33:2e:f9:57:b5, 2015-01-01 00:13:18.155,0.002,0.022,0.997,-0.061,-0.183,0.183, , , , , , ,1.241,-0.104,-56.761
 13:49:08.312,eb:33:2e:f9:57:b5, 2015-01-01 00:13:18.155,0.001,0.022,0.996,-0.122,-0.122,0.183, , , , , , ,1.241,-0.104,-56.761
 13:49:08.312,eb:33:2e:f9:57:b5, 2015-01-01 00:13:18.155,0.001,0.022,0.995,-0.122,-0.061,0.122, , , , , , ,1.241,-0.104,-56.761
 13:49:08.312,eb:33:2e:f9:57:b5, 2015-01-01 00:13:18.155,0.001,0.022,0.996,-0.183,-0.061,0.122, , , , , , ,1.241,-0.104,-56.761
 13:49:08.312,eb:33:2e:f9:57:b5, 2015-01-01 00:13:18.155,0.001,0.022,0.996,-0.183,-0.061,0.061, , , , , , ,1.241,-0.104,-56.761
 13:49:08.312,eb:33:2e:f9:57:b5, 2015-01-01 00:13:18.155,0.002,0.021,0.997,-0.183,0,0, , , , , , ,1.241,-0.104,-56.761
 13:49:08.312,eb:33:2e:f9:57:b5, 2015-01-01 00:13:18.155,0.001,0.022,0.997,-0.305,0,0.061, , , , , , ,1.241,-0.104,-56.761
 13:49:08.333,eb:33:2e:f9:57:b5, 2015-01-01 00:13:18.155,0.001,0.021,0.996,-0.305,0,0.061, , , , , , ,1.241,-0.104,-56.761
 13:49:08.333,eb:33:2e:f9:57:b5, 2015-01-01 00:13:18.155,0.001,0.021,0.996,-0.366,0,0.061, , , , , , ,1.241,-0.104,-56.761
 13:49:08.333,eb:33:2e:f9:57:b5, 2015-01-01 00:13:18.155,0.001,0.021,0.997,-0.305,0,0.061, , , , , , ,1.241,-0.104,-56.761
 13:49:08.333,eb:33:2e:f9:57:b5, 2015-01-01 00:13:18.155,0.001,0.021,0.997,-0.366,0,0.061, , , , , , ,1.241,-0.104,-56.761
 13:49:08.333,eb:33:2e:f9:57:b5, 2015-01-01 00:13:18.155,0.001,0.019,0.998,-0.305,0,0, , , , , , ,1.241,-0.104,-56.761
 13:49:08.333,eb:33:2e:f9:57:b5, 2015-01-01 00:13:18.155,0.002,0.019,0.999,-0.244,-0.061,0.122, , , , , , ,1.241,-0.104,-56.761
 13:49:08.333,eb:33:2e:f9:57:b5, 2015-01-01 00:13:18.155,0,0.02,0.999,-0.122,-0.122,0.183, , , , , , ,1.241,-0.104,-56.761
 13:49:08.333,eb:33:2e:f9:57:b5, 2015-01-01 00:13:18.155,-0.001,0.02,0.996,-0.122,-0.122,0.183, , , , , , ,1.241,-0.104,-56.761
 13:49:08.401,eb:33:2e:f9:57:b5, 2015-01-01 00:13:18.155,0,0.02,0.995,-0.061,-0.244,0.183, , , , , , ,1.241,-0.104,-56.761
 13:49:08.401,eb:33:2e:f9:57:b5, 2015-01-01 00:13:18.155,0.001,0.02,0.996,-0.061,-0.366,0.244, , , , , , ,1.241,-0.104,-56.761
 13:49:08.401,eb:33:2e:f9:57:b5, 2015-01-01 00:13:18.155,0.002,0.02,0.997,0,-0.427,0.305, , , , , , ,1.241,-0.104,-56.761
 13:49:08.401,eb:33:2e:f9:57:b5, 2015-01-01 00:13:18.155,0.002,0.021,0.997,-0.061,-0.366,0.305, , , , , , ,1.241,-0.104,-56.761
 13:49:08.401,eb:33:2e:f9:57:b5, 2015-01-01 00:13:18.155,0.002,0.022,0.997,-0.122,-0.366,0.244, , , , , , ,1.241,-0.104,-56.761
 13:49:08.401,eb:33:2e:f9:57:b5, 2015-01-01 00:13:18.155,0.002,0.022,0.996,-0.122,-0.305,0.244, , , , , , ,1.241,-0.104,-56.761
 13:49:08.401,eb:33:2e:f9:57:b5, 2015-01-01 00:13:18.155,0.004,0.022,0.997,-0.122,-0.244,0.122, , , , , , ,1.241,-0.104,-56.761
 13:49:08.401,eb:33:2e:f9:57:b5, 2015-01-01 00:13:18.155,0.004,0.021,0.998,-0.244,-0.183,0.122, , , , , , ,1.241,-0.104,-56.761
 13:49:08.425,eb:33:2e:f9:57:b5, 2015-01-01 00:13:18.155,0.004,0.022,0.998,-0.244,0,0, , , , , , ,1.241,-0.104,-56.761
