Time,Device name,Chip Time(),Acceleration X(g),Acceleration Y(g),Acceleration Z(g),Angular velocity X(°/s),Angular velocity Y(°/s),Angular velocity Z(°/s),Angle X(°),Angle Y(°),Angle Z(°),Magnetic field X(ʯt),Magnetic field Y(ʯt),Magnetic field Z(ʯt),Temperature(℃),Quaternions 0(),Quaternions 1(),Quaternions 2(),Quaternions 3()
 13:39:06.842,eb:33:2e:f9:57:b5, 2085-97-138 02:06:254:1409,0.289,-0.247,0.64,-45.227,-83.313,62.805,10.366,7.103,-122.948,-49.4,-41.4,1.14,25.66,0.4306,0.0235,-0.00275,-0.90219
 13:39:06.844,eb:33:2e:f9:57:b5, 2085-97-12 02:34:254:1612,0.227,-0.242,0.735,-54.993,-88.135,58.472,9.91,6.147,-122.503,-49.4,-41.4,1.14,25.66,0.4306,0.0235,-0.00275,-0.90219
 13:39:07.713,eb:33:2e:f9:57:b5, 2085-97-152 01:111:254:1857,0.17,-0.216,0.848,-64.087,-88.867,55.359,9.349,5.175,-122.091,-49.4,-41.4,1.14,25.66,0.4306,0.0235,-0.00275,-0.90219
 13:39:07.713,eb:33:2e:f9:57:b5, 2085-97-32 01:169:254:2085,0.098,-0.178,0.959,-69.885,-87.158,53.711,8.701,4.219,-121.69,-49.4,-41.4,1.14,25.66,0.4306,0.0235,-0.00275,-0.90219
 13:39:07.714,eb:33:2e:f9:57:b5, 2085-97-99 00:180:254:2287,0.005,-0.163,1.074,-73.181,-83.74,55.847,8.015,3.296,-121.273,-49.4,-41.4,1.14,25.66,0.4306,0.0235,-0.00275,-0.90219
 13:39:07.714,eb:33:2e:f9:57:b5, 2085-97-195 255:203:254:2433,-0.06,-0.158,1.147,-75.806,-78.247,63.049,7.289,2.411,-120.789,-49.4,-41.4,1.14,25.66,0.4306,0.0235,-0.00275,-0.90219
 13:39:07.714,eb:33:2e:f9:57:b5, 2085-97-75 255:46:255:2567,-0.121,-0.137,1.23,-76.843,-70.129,74.524,6.542,1.593,-120.19,-49.4,-41.4,1.14,25.66,0.4306,0.0235,-0.00275,-0.90219
 13:39:07.716,eb:33:2e:f9:57:b5, 2085-97-215 254:14:00:2578,-0.17,-0.054,1.257,-73.425,-60.913,87.097,5.801,0.857,-119.449,-49.4,-41.4,1.14,25.66,0.47659,0.08362,-0.04977,-0.87366
 13:39:07.717,eb:33:2e:f9:57:b5, 2085-97-123 254:254:00:2558,-0.21,0.068,1.255,-65.491,-53.894,97.046,5.114,0.203,-118.581,-49.4,-41.4,1.14,25.66,0.47659,0.08362,-0.04977,-0.87366
 13:39:07.717,eb:33:2e:f9:57:b5, 2085-97-36 254:242:01:2333,-0.245,0.179,1.218,-57.373,-50.476,103.76,4.504,-0.39,-117.614,-49.4,-41.4,1.14,25.66,0.47659,0.08362,-0.04977,-0.87366
 13:39:07.717,eb:33:2e:f9:57:b5, 2085-97-249 253:158:02:2224,-0.264,0.286,1.087,-57.068,-59.814,106.934,3.928,-1.016,-116.598,-49.4,-41.4,1.14,25.66,0.47659,0.08362,-0.04977,-0.87366
 13:39:07.717,eb:33:2e:f9:57:b5, 2085-97-186 253:110:03:2422,-0.312,0.379,1.127,-57.8,-69.214,106.689,3.323,-1.741,-115.571,-49.4,-41.4,1.14,25.66,0.47659,0.08362,-0.04977,-0.87366
 13:39:07.717,eb:33:2e:f9:57:b5, 2085-97-69 253:45:04:2566,-0.375,0.477,1.229,-53.162,-70.312,103.271,2.73,-2.499,-114.56,-49.4,-41.4,1.14,25.66,0.47659,0.08362,-0.04977,-0.87366
 13:39:07.719,eb:33:2e:f9:57:b5, 2085-97-180 252:170:04:2568,-0.444,0.559,1.256,-45.532,-64.758,97.778,2.186,-3.219,-113.582,-49.4,-41.4,1.14,25.66,0.47659,0.08362,-0.04977,-0.87366
 13:39:07.719,eb:33:2e:f9:57:b5, 2085-97-68 252:21:05:2571,-0.483,0.605,1.262,-36.316,-56.274,91.431,1.725,-3.856,-112.654,-49.4,-41.4,1.14,25.66,0.47659,0.08362,-0.04977,-0.87366
 13:39:07.719,eb:33:2e:f9:57:b5, 2085-97-28 252:159:05:2413,-0.484,0.669,1.222,-30.151,-47.424,84.045,1.335,-4.395,-111.791,-49.4,-41.4,1.14,25.66,0.47659,0.08362,-0.04977,-0.87366
 13:39:07.720,eb:33:2e:f9:57:b5, 2085-97-27 252:44:06:2324,-0.495,0.738,1.15,-26.672,-41.26,75.317,0.989,-4.845,-111.006,-49.4,-41.4,1.14,25.66,0.47659,0.08362,-0.04977,-0.87366
 13:39:07.720,eb:33:2e:f9:57:b5, 2085-97-252 251:180:06:2225,-0.402,0.805,1.116,-23.254,-35.095,65.125,0.681,-5.235,-110.308,-49.4,-41.4,1.14,25.66,0.47659,0.08362,-0.04977,-0.87366
 13:39:07.720,eb:33:2e:f9:57:b5, 2085-97-196 250:139:10:7418,-1.233,0.94,1.804,-12.39,-20.569,58.411,0.423,-5.565,-109.704,-49.4,-41.4,1.14,25.66,0.47659,0.08362,-0.04977,-0.87366
 13:39:07.720,eb:33:2e:f9:57:b5, 2085-97-97 251:196:09:2929,-0.822,1.125,0.996,-11.658,64.819,46.265,0.28,-5.043,-109.243,-49.4,-41.4,1.14,25.66,0.47659,0.08362,-0.04977,-0.87366
 13:39:07.720,eb:33:2e:f9:57:b5, 2085-97-37 248:24:12:2246,-1.076,1.351,1.018,-19.043,114.868,32.959,0.066,-4.005,-108.853,-49.4,-41.4,1.14,25.66,0.47659,0.08362,-0.04977,-0.87366
 13:39:07.720,eb:33:2e:f9:57:b5, 2085-97-177 246:64:13:2304,-1.164,1.631,1.159,1.038,109.497,5.554,-0.027,-2.884,-108.666,-49.4,-41.4,1.14,25.66,0.47659,0.08362,-0.04977,-0.87366
 13:39:07.720,eb:33:2e:f9:57:b5, 2085-97-166 246:173:12:2162,-1.077,1.654,1.106,17.09,107.361,-16.113,0.077,-1.818,-108.732,-49.4,-41.4,1.14,25.66,0.47659,0.08362,-0.04977,-0.87366
 13:39:07.721,eb:33:2e:f9:57:b5, 2085-97-187 252:39:02:1899,-0.051,0.953,0.784,13.794,104.004,-27.466,0.28,-0.731,-108.979,-49.4,-41.4,1.14,25.66,0.47659,0.08362,-0.04977,-0.87366
 13:39:07.721,eb:33:2e:f9:57:b5, 2085-97-139 254:123:00:1743,-0.621,0.157,0.881,-15.503,89.233,-16.174,0.28,0.225,-109.204,-49.4,-41.4,1.14,25.66,0.47659,0.08362,-0.04977,-0.87366
 13:39:07.721,eb:33:2e:f9:57:b5, 2085-97-139 00:184:254:2367,-0.038,-0.628,0.779,-0.305,32.654,-7.69,0.159,0.873,-109.325,-49.4,-41.4,1.14,25.66,0.47659,0.08362,-0.04977,-0.87366
 13:39:07.721,eb:33:2e:f9:57:b5, 2085-97-54 00:06:255:2253,-0.094,-0.303,1.082,16.418,27.466,-15.93,0.231,1.159,-109.49,-49.4,-41.4,1.14,25.66,0.47659,0.08362,-0.04977,-0.87366
 13:39:07.721,eb:33:2e:f9:57:b5, 2085-97-85 255:93:00:1972,-0.058,0,0.978,22.278,26.062,-17.334,0.445,1.45,-109.66,-49.4,-41.4,1.14,25.66,0.47659,0.08362,-0.04977,-0.87366
 13:39:07.721,eb:33:2e:f9:57:b5, 2085-97-215 255:208:255:2119,-0.051,0.057,0.977,14.099,17.212,-7.874,0.615,1.659,-109.781,-49.4,-41.4,1.14,25.66,0.47659,0.08362,-0.04977,-0.87366
 13:39:07.721,eb:33:2e:f9:57:b5, 2085-97-234 254:72:00:1872,-0.13,0.014,1.043,10.437,29.846,0.366,0.742,1.884,-109.808,-49.4,-41.4,1.14,25.66,0.47659,0.08362,-0.04977,-0.87366
 13:39:07.722,eb:33:2e:f9:57:b5, 2085-97-19 255:215:255:1991,-0.096,0.015,0.926,9.094,13.855,-0.366,0.835,2.093,-109.803,-49.4,-41.4,1.14,25.66,0.47659,0.08362,-0.04977,-0.87366
 13:39:07.722,eb:33:2e:f9:57:b5, 2085-97-162 255:106:00:2000,-0.025,0.034,0.946,8.301,11.597,1.404,0.928,2.225,-109.803,-49.4,-41.4,1.14,25.66,0.47659,0.08362,-0.04977,-0.87366
 13:39:07.722,eb:33:2e:f9:57:b5, 2085-97-184 255:19:00:2037,-0.025,0.007,1.015,6.531,10.254,1.526,1,2.324,-109.781,-49.4,-41.4,1.14,25.66,0.47659,0.08362,-0.04977,-0.87366
 13:39:07.723,eb:33:2e:f9:57:b5, 2085-97-230 255:73:00:2073,-0.023,0.018,1.003,6.104,9.094,1.77,1.066,2.417,-109.764,-49.4,-41.4,1.14,25.66,0.47659,0.08362,-0.04977,-0.87366
 13:39:07.723,eb:33:2e:f9:57:b5, 2085-97-153 255:37:00:2025,-0.072,0.035,1.006,4.517,10.559,2.686,1.121,2.516,-109.737,-49.4,-41.4,1.14,25.66,0.47659,0.08362,-0.04977,-0.87366
 13:39:07.723,eb:33:2e:f9:57:b5, 2085-97-88 255:03:00:1984,-0.08,0.001,0.977,4.456,8.972,2.808,1.165,2.615,-109.709,-49.4,-41.4,1.14,25.66,0.47659,0.08362,-0.04977,-0.87366
 13:39:07.724,eb:33:2e:f9:57:b5, 2085-97-107 255:24:00:2014,-0.057,0.008,0.977,4.761,6.348,2.38,1.214,2.692,-109.677,-49.4,-41.4,1.14,25.66,0.47659,0.08362,-0.04977,-0.87366
 13:39:07.724,eb:33:2e:f9:57:b5, 2085-97-157 255:29:00:2043,-0.049,0.015,0.992,5.005,4.578,1.892,1.263,2.741,-109.655,-49.4,-41.4,1.14,25.66,0.47659,0.08362,-0.04977,-0.87366
 13:39:07.724,eb:33:2e:f9:57:b5, 2085-97-137 255:46:00:2010,-0.066,0.02,0.99,4.883,4.15,1.404,1.313,2.785,-109.638,-49.4,-41.4,1.14,25.66,0.47659,0.08362,-0.04977,-0.87366
 13:39:07.724,eb:33:2e:f9:57:b5, 2085-97-124 255:34:00:2012,-0.057,0.02,0.979,4.639,2.625,0.549,1.362,2.818,-109.622,-49.4,-41.4,1.14,25.66,0.47659,0.08362,-0.04977,-0.87366
 13:39:07.724,eb:33:2e:f9:57:b5, 2085-97-150 255:24:00:2036,-0.046,0.015,0.989,5.005,1.465,0,1.412,2.84,-109.622,-49.4,-41.4,1.14,25.66,0.47659,0.08362,-0.04977,-0.87366
 13:39:07.724,eb:33:2e:f9:57:b5, 2085-97-170 255:48:00:2049,-0.047,0.016,0.999,5.31,0.977,-0.244,1.467,2.851,-109.622,-49.4,-41.4,1.14,25.66,0.47659,0.08362,-0.04977,-0.87366
 13:39:07.724,eb:33:2e:f9:57:b5, 2085-97-161 255:45:00:2045,-0.049,0.021,0.998,5.31,0.916,-0.488,1.516,2.862,-109.627,-49.4,-41.4,1.14,25.66,0.47659,0.08362,-0.04977,-0.87366
 13:39:07.725,eb:33:2e:f9:57:b5, 2085-97-173 255:44:00:2054,-0.034,0.017,1,5.31,0.671,-0.61,1.571,2.873,-109.633,-49.4,-41.4,1.14,25.66,0.47659,0.08362,-0.04977,-0.87366
 13:39:07.725,eb:33:2e:f9:57:b5, 2085-97-175 255:64:00:2051,-0.043,0.029,1.006,5.066,0.916,-0.671,1.626,2.878,-109.638,-49.4,-41.4,1.14,25.66,0.47659,0.08362,-0.04977,-0.87366
 13:39:07.725,eb:33:2e:f9:57:b5, 2085-97-168 255:54:00:2052,-0.039,0.03,1,4.395,0.916,-0.488,1.67,2.889,-109.644,-49.4,-41.4,1.14,25.66,0.47659,0.08362,-0.04977,-0.87366
 13:39:07.725,eb:33:2e:f9:57:b5, 2085-97-183 255:55:00:2072,-0.031,0.025,1.009,4.028,0.977,-0.122,1.714,2.9,-109.644,-49.4,-41.4,1.14,25.66,0.47659,0.08362,-0.04977,-0.87366
 13:39:07.725,eb:33:2e:f9:57:b5, 2085-97-177 255:46:00:2074,-0.043,0.026,1.017,3.601,1.709,0.427,1.752,2.911,-109.644,-49.4,-41.4,1.14,25.66,0.47659,0.08362,-0.04977,-0.87366
 13:39:07.725,eb:33:2e:f9:57:b5, 2085-97-160 255:43:00:2060,-0.049,0.021,1.009,3.418,1.892,1.16,1.785,2.933,-109.633,-49.4,-41.4,1.14,25.66,0.47659,0.08362,-0.04977,-0.87366
 13:39:07.725,eb:33:2e:f9:57:b5, 2085-97-155 255:48:00:2053,-0.049,0.022,1.002,3.418,1.648,1.526,1.824,2.95,-109.616,-49.4,-41.4,1.14,25.66,0.47659,0.08362,-0.04977,-0.87366
 13:39:07.726,eb:33:2e:f9:57:b5, 2085-97-176 255:55:00:2075,-0.033,0.022,1.005,3.479,1.404,2.075,1.857,2.966,-109.6,-49.4,-41.4,1.14,25.66,0.47659,0.08362,-0.04977,-0.87366
 13:39:07.726,eb:33:2e:f9:57:b5, 2085-97-175 255:44:00:2086,-0.047,0.027,1.021,3.784,1.892,2.258,1.895,2.983,-109.578,-49.4,-41.4,1.14,25.66,0.47659,0.08362,-0.04977,-0.87366
 13:39:07.726,eb:33:2e:f9:57:b5, 2085-97-174 255:42:00:2087,-0.047,0.015,1.018,4.395,1.953,2.808,1.939,2.999,-109.55,-49.4,-41.4,1.14,25.66,0.47659,0.08362,-0.04977,-0.87366
 13:39:07.726,eb:33:2e:f9:57:b5, 2085-97-169 255:62:00:2060,-0.043,0.021,1.008,5.188,1.953,2.991,1.989,3.021,-109.517,-49.4,-41.4,1.14,25.66,0.47659,0.08362,-0.04977,-0.87366
 13:39:07.726,eb:33:2e:f9:57:b5, 2085-97-168 255:61:00:2059,-0.036,0.03,1.005,5.066,1.892,3.174,2.043,3.043,-109.484,-49.4,-41.4,1.14,25.66,0.47659,0.08362,-0.04977,-0.87366
 13:39:07.726,eb:33:2e:f9:57:b5, 2085-97-187 255:75:00:2077,-0.029,0.036,1.014,4.822,2.258,3.052,2.093,3.06,-109.451,-49.4,-41.4,1.14,25.66,0.47659,0.08362,-0.04977,-0.87366
 13:39:07.726,eb:33:2e:f9:57:b5, 2085-97-210 255:100:00:2072,-0.018,0.045,1.01,4.333,3.235,2.869,2.142,3.087,-109.424,-49.4,-41.4,1.14,25.66,0.47659,0.08362,-0.04977,-0.87366
 13:39:07.726,eb:33:2e:f9:57:b5, 2085-97-219 255:106:00:2081,-0.029,0.049,1.016,3.479,4.883,2.441,2.186,3.126,-109.396,-49.4,-41.4,1.14,25.66,0.47659,0.08362,-0.04977,-0.87366
 13:39:07.726,eb:33:2e:f9:57:b5, 2085-97-182 255:88:00:2061,-0.037,0.045,1.011,2.747,6.714,1.831,2.214,3.186,-109.369,-49.4,-41.4,1.14,25.66,0.47659,0.08362,-0.04977,-0.87366
 13:39:07.726,eb:33:2e:f9:57:b5, 2085-97-195 255:97:00:2079,-0.038,0.044,1.006,2.686,7.507,1.709,2.247,3.257,-109.347,-49.4,-41.4,1.14,25.66,0.47659,0.08362,-0.04977,-0.87366
 13:39:07.727,eb:33:2e:f9:57:b5, 2085-97-180 255:92:00:2078,-0.052,0.046,1.004,3.601,8.057,0.061,2.274,3.334,-109.336,-49.4,-41.4,1.14,25.66,0.47659,0.08362,-0.04977,-0.87366
 13:39:07.727,eb:33:2e:f9:57:b5, 2085-97-154 255:59:00:2088,-0.056,0.017,1.041,5.188,9.155,-1.099,2.318,3.422,-109.341,-49.4,-41.4,1.14,25.66,0.47659,0.08362,-0.04977,-0.87366
 13:39:07.727,eb:33:2e:f9:57:b5, 2085-97-140 255:46:00:2077,-0.076,0.032,1.005,7.141,7.935,-2.136,2.384,3.51,-109.352,-49.4,-41.4,1.14,25.66,0.47659,0.08362,-0.04977,-0.87366
 13:39:07.727,eb:33:2e:f9:57:b5, 2085-97-81 255:211:255:2245,-0.099,0.003,1.037,9.766,5.31,-2.319,2.466,3.576,-109.374,-49.4,-41.4,1.14,25.66,0.47659,0.08362,-0.04977,-0.87366
 13:39:07.727,eb:33:2e:f9:57:b5, 2085-97-64 255:00:00:2070,-0.079,-0.039,1.088,13.611,6.165,-0.549,2.587,3.636,-109.385,-49.4,-41.4,1.14,25.66,0.47659,0.08362,-0.04977,-0.87366
 13:39:07.727,eb:33:2e:f9:57:b5, 2085-97-128 255:69:00:2072,-0.05,0.021,0.996,15.808,3.235,-0.061,2.736,3.68,-109.385,-49.4,-41.4,1.14,25.66,0.47659,0.08362,-0.04977,-0.87366
 13:39:07.727,eb:33:2e:f9:57:b5, 2085-97-134 255:64:00:2096,-0.06,0.039,1.02,16.113,4.272,-0.366,2.895,3.719,-109.385,-49.4,-41.4,1.14,25.66,0.47659,0.08362,-0.04977,-0.87366
 13:39:07.727,eb:33:2e:f9:57:b5, 2085-97-127 255:51:00:2123,-0.053,0.027,1.039,16.296,6.226,-0.183,3.06,3.768,-109.385,-49.4,-41.4,1.14,25.66,0.47659,0.08362,-0.04977,-0.87366
 13:39:07.727,eb:33:2e:f9:57:b5, 2085-97-172 255:101:00:2108,-0.039,0.037,1.031,17.09,7.385,0,3.23,3.84,-109.38,-49.4,-41.4,1.14,25.66,0.47659,0.08362,-0.04977,-0.87366
 13:39:07.729,eb:33:2e:f9:57:b5, 2085-97-177 255:125:00:2095,-0.04,0.057,1.022,17.212,9.338,-0.244,3.4,3.922,-109.38,-49.4,-41.4,1.14,25.66,0.47659,0.08362,-0.04977,-0.87366
 13:39:07.729,eb:33:2e:f9:57:b5, 2085-97-166 255:117:00:2104,-0.051,0.062,1.024,17.151,11.475,-0.916,3.571,4.032,-109.374,-49.4,-41.4,1.14,25.66,0.47659,0.08362,-0.04977,-0.87366
 13:39:07.729,eb:33:2e:f9:57:b5, 2085-97-155 255:120:00:2085,-0.05,0.054,1.021,17.09,13.672,-1.038,3.746,4.158,-109.38,-49.4,-41.4,1.14,25.66,0.47659,0.08362,-0.04977,-0.87366
 13:39:07.729,eb:33:2e:f9:57:b5, 2085-97-162 255:149:00:2079,-0.049,0.064,1.014,17.212,15.32,-1.282,3.917,4.307,-109.38,-49.4,-41.4,1.14,25.66,0.47659,0.08362,-0.04977,-0.87366
 13:39:07.729,eb:33:2e:f9:57:b5, 2085-97-118 255:115:00:2085,-0.088,0.071,1.018,17.212,17.212,-1.709,4.087,4.471,-109.385,-49.4,-41.4,1.14,25.66,0.47659,0.08362,-0.04977,-0.87366
 13:39:07.729,eb:33:2e:f9:57:b5, 2085-97-68 255:78:00:2110,-0.097,0.042,1.024,18.86,16.541,-1.77,4.268,4.642,-109.391,-49.4,-41.4,1.14,25.66,0.47659,0.08362,-0.04977,-0.87366
 13:39:07.729,eb:33:2e:f9:57:b5, 2085-97-76 255:87:00:2131,-0.082,0.038,1.026,21.362,15.137,-1.16,4.471,4.801,-109.391,-49.4,-41.4,1.14,25.66,0.47659,0.08362,-0.04977,-0.87366
 13:39:07.729,eb:33:2e:f9:57:b5, 2085-97-91 255:108:00:2157,-0.083,0.046,1.046,23.682,14.893,-0.549,4.697,4.955,-109.385,-49.4,-41.4,1.14,25.66,0.47659,0.08362,-0.04977,-0.87366
 13:39:07.729,eb:33:2e:f9:57:b5, 2085-97-96 255:112:00:2196,-0.081,0.059,1.052,26.733,14.526,-0.732,4.949,5.103,-109.38,-49.4,-41.4,1.14,25.66,0.47659,0.08362,-0.04977,-0.87366
 13:39:07.729,eb:33:2e:f9:57:b5, 2085-97-109 255:108:00:2259,-0.075,0.046,1.095,30.396,15.503,-0.427,5.235,5.251,-109.374,-49.4,-41.4,1.14,25.66,0.47659,0.08362,-0.04977,-0.87366
 13:39:07.729,eb:33:2e:f9:57:b5, 2085-97-125 255:143:00:2275,-0.063,0.059,1.088,34.607,16.541,-0.671,5.565,5.416,-109.363,-49.4,-41.4,1.14,25.66,0.47659,0.08362,-0.04977,-0.87366
 13:39:07.730,eb:33:2e:f9:57:b5, 2085-97-116 255:95:00:2379,-0.063,0.061,1.146,38.818,19.287,-1.099,5.933,5.592,-109.352,-49.4,-41.4,1.14,25.66,0.47659,0.08362,-0.04977,-0.87366
 13:39:07.730,eb:33:2e:f9:57:b5, 2085-97-114 255:96:00:2383,-0.08,0.05,1.167,44.861,22.461,-1.221,6.356,5.806,-109.341,-49.4,-41.4,1.14,25.66,0.47659,0.08362,-0.04977,-0.87366
 13:39:07.730,eb:33:2e:f9:57:b5, 2085-97-87 255:70:00:2402,-0.102,0.044,1.165,50.476,25.452,-0.244,6.839,6.048,-109.319,-49.4,-41.4,1.14,25.66,0.47659,0.08362,-0.04977,-0.87366
 13:39:07.730,eb:33:2e:f9:57:b5, 2085-97-65 255:43:00:2492,-0.098,0.018,1.194,57.373,27.161,1.038,7.383,6.306,-109.286,-49.4,-41.4,1.14,25.66,0.47659,0.08362,-0.04977,-0.87366
 13:39:07.730,eb:33:2e:f9:57:b5, 2085-97-49 255:104:00:2399,-0.096,0.035,1.189,64.148,30.396,2.808,8.004,6.597,-109.226,-49.4,-41.4,1.14,25.66,0.47659,0.08362,-0.04977,-0.87366
 13:39:07.730,eb:33:2e:f9:57:b5, 2085-97-39 255:58:00:2554,-0.109,0.051,1.224,71.716,32.043,3.784,8.696,6.894,-109.149,-49.4,-41.4,1.14,25.66,0.47659,0.08362,-0.04977,-0.87366
 13:39:07.730,eb:33:2e:f9:57:b5, 2085-97-62 255:28:00:2722,-0.056,0.025,1.297,80.444,36.011,6.226,9.476,7.224,-109.039,-49.4,-41.4,1.14,25.66,0.47659,0.08362,-0.04977,-0.87366
 13:39:07.731,eb:33:2e:f9:57:b5, 2085-97-199 255:182:00:2827,-0.015,0.044,1.353,89.905,43.396,9.155,10.349,7.603,-108.891,-49.4,-41.4,1.14,25.66,0.47659,0.08362,-0.04977,-0.87366
 13:39:07.731,eb:33:2e:f9:57:b5, 2085-97-29 00:122:00:3020,0.017,0.084,1.43,100.22,51.575,9.583,11.332,8.053,-108.71,-49.4,-41.4,1.14,25.66,0.47659,0.08362,-0.04977,-0.87366
 13:39:07.731,eb:33:2e:f9:57:b5, 2085-97-60 00:76:00:3203,0.052,0.062,1.519,111.45,64.636,10.437,12.426,8.608,-108.484,-49.4,-41.4,1.14,25.66,0.47659,0.08362,-0.04977,-0.87366
 13:39:07.731,eb:33:2e:f9:57:b5, 2085-97-189 00:216:00:3285,0.124,0.072,1.61,122.62,81.543,10.437,13.645,9.3,-108.215,-49.4,-41.4,1.14,25.66,0.47659,0.08362,-0.04977,-0.87366
 13:39:07.731,eb:33:2e:f9:57:b5, 2085-97-23 01:50:01:3403,0.146,0.144,1.607,136.047,97.29,7.874,14.996,10.157,-107.891,-49.4,-41.4,1.14,25.66,0.47659,0.08362,-0.04977,-0.87366
 13:39:07.769,eb:33:2e:f9:57:b5, 2085-97-28 01:165:00:3635,0.16,0.113,1.762,151.794,116.394,3.601,16.507,11.168,-107.545,-49.4,-41.4,1.14,25.66,0.47659,0.08362,-0.04977,-0.87366
 13:39:07.769,eb:33:2e:f9:57:b5, 2085-97-123 01:85:01:3619,0.197,0.107,1.757,166.504,138.855,1.465,18.193,12.398,-107.122,-49.4,-41.4,1.14,25.66,0.47659,0.08362,-0.04977,-0.87366
 13:39:07.769,eb:33:2e:f9:57:b5, 2085-97-184 01:120:01:3813,0.223,0.196,1.823,183.105,155.701,-6.348,20.056,13.799,-106.65,-49.4,-41.4,1.14,25.66,0.47659,0.08362,-0.04977,-0.87366
 13:39:07.769,eb:33:2e:f9:57:b5, 2085-97-60 02:57:01:4206,0.265,0.198,1.98,201.111,170.532,-15.381,22.11,15.364,-106.144,-49.4,-41.4,1.14,25.66,0.47659,0.08362,-0.04977,-0.87366
 13:39:07.829,eb:33:2e:f9:57:b5, 2085-97-21 02:17:01:4416,0.221,0.19,2.078,215.698,195.251,-26.978,24.362,17.139,-105.595,-49.4,-41.4,1.14,25.66,0.47659,0.08362,-0.04977,-0.87366
 13:39:07.829,eb:33:2e:f9:57:b5, 2085-97-252 01:241:02:4620,0.223,0.232,2.154,226.868,217.957,-35.706,26.779,19.16,-104.936,-49.4,-41.4,1.14,25.66,0.47659,0.08362,-0.04977,-0.87366
 13:39:07.829,eb:33:2e:f9:57:b5, 2085-97-177 01:103:01:4555,0.215,0.297,2.334,241.821,234.558,-50.232,29.383,21.368,-104.222,-49.4,-41.4,1.14,25.66,0.47659,0.08362,-0.04977,-0.87366
 13:39:07.829,eb:33:2e:f9:57:b5, 2085-97-129 02:84:01:4652,0.306,0.232,2.219,249.817,240.54,-57.678,32.162,23.698,-103.392,-49.4,-41.4,1.14,25.66,0.47659,0.08362,-0.04977,-0.87366
 13:39:07.831,eb:33:2e:f9:57:b5, 2085-97-237 01:69:01:4249,0.197,0.1,2.265,254.395,262.085,-62.683,35.096,26.125,-102.42,-49.4,-41.4,1.14,25.66,0.47659,0.08362,-0.04977,-0.87366
 13:39:07.831,eb:33:2e:f9:57:b5, 2085-97-22 02:106:02:4302,0.184,0.328,2.097,255.798,265.198,-67.81,38.205,28.647,-101.217,-49.4,-41.4,1.14,25.66,0.47659,0.08362,-0.04977,-0.87366
 13:39:07.831,eb:33:2e:f9:57:b5, 2085-97-95 02:31:01:4116,0.378,0.289,2.072,251.404,267.273,-72.021,41.418,31.146,-99.866,-49.4,-41.4,1.14,25.66,0.47659,0.08362,-0.04977,-0.87366
 13:39:07.831,eb:33:2e:f9:57:b5, 2085-97-60 04:67:255:3618,0.669,0.11,1.927,244.019,273.499,-75.439,44.72,33.624,-98.317,-49.4,-41.4,1.14,25.66,0.47659,0.08362,-0.04977,-0.87366
 13:39:07.889,eb:33:2e:f9:57:b5, 2085-97-116 06:152:254:2639,1.025,-0.176,1.537,226.624,271.118,-70.19,48.104,36.024,-96.526,-49.4,-41.4,1.14,25.66,0.47659,0.08362,-0.04977,-0.87366
 13:39:07.889,eb:33:2e:f9:57:b5, 2085-97-117 09:201:249:1931,1.096,-0.51,1.133,210.022,278.259,-71.716,51.493,38.342,-94.488,-49.4,-41.4,1.14,25.66,0.47659,0.08362,-0.04977,-0.87366
 13:39:07.889,eb:33:2e:f9:57:b5, 2085-97-146 02:71:255:-3537,0.244,-1.108,0.116,206.909,284.424,-49.5,55.157,40.556,-92.005,-49.4,-41.4,1.14,25.66,0.47659,0.08362,-0.04977,-0.87366
 13:39:07.889,eb:33:2e:f9:57:b5, 2085-97-121 03:168:255:-3022,0.463,0.132,-1.985,134.827,130.432,-53.223,58.145,42.133,-90.104,-49.4,-41.4,1.14,25.66,0.47659,0.08362,-0.04977,-0.87366
 13:39:07.920,eb:33:2e:f9:57:b5, 2085-97-143 03:209:253:-955,0.375,-0.244,-0.93,61.462,-10.376,-47.607,59.227,42.825,-89.896,-49.4,-41.4,1.14,25.66,0.47659,0.08362,-0.04977,-0.87366
 13:39:07.921,eb:33:2e:f9:57:b5, 2085-97-227 02:239:252:582,0.389,-0.31,-0.073,-5.676,-86.548,-35.278,58.799,42.88,-90.857,-49.4,-41.4,1.14,25.66,0.47659,0.08362,-0.04977,-0.87366
 13:39:07.921,eb:33:2e:f9:57:b5, 2085-97-90 03:138:252:1529,0.433,-0.425,0.57,-52.551,-108.032,-18.372,57.53,42.561,-92.23,-49.4,-41.4,1.14,25.66,0.47659,0.08362,-0.04977,-0.87366
 13:39:07.922,eb:33:2e:f9:57:b5, 2085-97-127 03:31:253:1724,0.436,-0.407,0.843,-80.078,-94.482,-0.488,56.008,42.067,-93.461,-49.4,-41.4,1.14,25.66,0.47659,0.08362,-0.04977,-0.87366
 13:39:07.922,eb:33:2e:f9:57:b5, 2085-113-58 00:176:230:-7965,0.422,-0.302,0.774,-93.628,-76.416,11.108,54.547,41.534,-94.345,-49.4,-41.4,1.14,25.66,0.47659,0.08362,-0.04977,-0.87366
 13:39:07.950,eb:33:2e:f9:57:b5, 2085-97-63 03:113:254:1010,0.397,-0.24,0.648,-100.22,-71.655,14.832,53.833,41.265,-94.686,-43.2,-53.1,-10.127,25.66,0.47659,0.08362,-0.04977,-0.87366
 13:39:07.950,eb:33:2e:f9:57:b5, 2085-97-35 03:231:254:432,0.392,-0.163,0.34,-117.615,-76.111,19.409,52.317,40.682,-95.323,-43.2,-53.1,-10.127,25.66,0.47659,0.08362,-0.04977,-0.87366
 13:39:07.950,eb:33:2e:f9:57:b5, 2085-97-38 03:34:255:168,0.386,-0.117,0.121,-140.747,-95.703,21.973,50.554,39.985,-96.031,-43.2,-53.1,-10.127,25.66,0.47659,0.08362,-0.04977,-0.87366
 13:39:07.950,eb:33:2e:f9:57:b5, 2085-97-12 03:20:255:230,0.37,-0.109,0.079,-163.94,-124.207,23.376,48.433,39.084,-96.938,-43.2,-53.1,-10.127,25.66,0.47659,0.08362,-0.04977,-0.87366
 13:39:08.009,eb:33:2e:f9:57:b5, 2085-97-220 02:195:254:486,0.342,-0.129,0.169,-180.237,-156.86,24.963,46,37.941,-98.064,-43.2,-53.1,-10.127,25.66,0.47659,0.08362,-0.04977,-0.87366
 13:39:08.009,eb:33:2e:f9:57:b5, 2085-97-151 02:112:254:811,0.3,-0.179,0.315,-190.918,-187.378,28.442,43.341,36.508,-99.366,-43.2,-53.1,-10.127,25.66,0.47659,0.08362,-0.04977,-0.87366
 13:39:08.009,eb:33:2e:f9:57:b5, 2085-97-38 02:68:254:1168,0.233,-0.209,0.481,-198.547,-208.191,34.546,40.594,34.81,-100.723,-43.2,-53.1,-10.127,25.66,0.47659,0.08362,-0.04977,-0.87366
 13:39:08.009,eb:33:2e:f9:57:b5, 2085-97-139 01:65:254:1494,0.167,-0.219,0.657,-203.308,-218.75,42.908,37.864,32.888,-101.997,-43.2,-53.1,-10.127,25.66,0.47659,0.08362,-0.04977,-0.87366
 13:39:08.039,eb:33:2e:f9:57:b5, 2085-97-32 01:99:254:1732,0.118,-0.209,0.793,-206.421,-221.741,52.246,35.233,30.828,-103.09,-43.2,-53.1,-10.127,25.66,0.48685,0.43826,-0.07742,-0.75153
 13:39:08.039,eb:33:2e:f9:57:b5, 2085-97-205 00:167:254:1971,0.083,-0.191,0.904,-207.581,-219.971,61.401,32.717,28.669,-103.969,-43.2,-53.1,-10.127,25.66,0.48685,0.43826,-0.07742,-0.75153
 13:39:08.039,eb:33:2e:f9:57:b5, 2085-97-139 00:76:255:2161,0.047,-0.131,1.012,-206.97,-215.881,68.054,30.344,26.466,-104.628,-43.2,-53.1,-10.127,25.66,0.48685,0.43826,-0.07742,-0.75153
 13:39:08.039,eb:33:2e:f9:57:b5, 2085-97-60 00:00:00:2285,0.013,-0.041,1.085,-205.383,-212.158,70.496,28.065,24.252,-105.112,-43.2,-53.1,-10.127,25.66,0.48685,0.43826,-0.07742,-0.75153
 13:39:08.069,eb:33:2e:f9:57:b5, 2085-97-03 00:66:00:2459,-0.011,0.028,1.15,-203.491,-210.205,69.519,25.878,22.055,-105.469,-43.2,-53.1,-10.127,25.66,0.48685,0.43826,-0.07742,-0.75153
 13:39:08.069,eb:33:2e:f9:57:b5, 2085-97-213 255:252:255:2686,-0.022,0.02,1.248,-202.271,-206.421,68.115,23.747,19.863,-105.743,-43.2,-53.1,-10.127,25.66,0.48685,0.43826,-0.07742,-0.75153
 13:39:08.069,eb:33:2e:f9:57:b5, 2085-97-216 255:223:255:2895,-0.006,-0.018,1.374,-202.637,-197.388,67.871,21.671,17.737,-105.908,-43.2,-53.1,-10.127,25.66,0.48685,0.43826,-0.07742,-0.75153
 13:39:08.069,eb:33:2e:f9:57:b5, 2085-97-15 00:176:00:2871,0.004,0.013,1.424,-208.191,-182.8,67.139,19.6,15.716,-105.947,-43.2,-53.1,-10.127,25.66,0.48685,0.43826,-0.07742,-0.75153
 13:39:08.130,eb:33:2e:f9:57:b5, 2085-97-244 255:251:01:2789,-0.018,0.169,1.368,-217.529,-174.622,59.692,17.474,13.837,-105.903,-43.2,-53.1,-10.127,25.66,0.48685,0.43826,-0.07742,-0.75153
 13:39:08.130,eb:33:2e:f9:57:b5, 2085-97-178 255:113:02:3012,-0.055,0.296,1.403,-220.337,-181.58,46.448,15.266,11.975,-105.903,-43.2,-53.1,-10.127,25.66,0.48685,0.43826,-0.07742,-0.75153
 13:39:08.130,eb:33:2e:f9:57:b5, 2085-97-112 255:06:02:3336,-0.097,0.285,1.554,-216.003,-188.171,34.18,13.068,10.074,-105.974,-43.2,-53.1,-10.127,25.66,0.48685,0.43826,-0.07742,-0.75153
 13:39:08.130,eb:33:2e:f9:57:b5, 2085-97-253 254:116:01:3537,-0.153,0.218,1.681,-208.923,-188.538,27.527,10.92,8.157,-106.078,-43.2,-53.1,-10.127,25.66,0.48685,0.43826,-0.07742,-0.75153
 13:39:08.159,eb:33:2e:f9:57:b5, 2085-97-132 254:248:00:3719,-0.215,0.147,1.774,-202.82,-185.12,27.71,8.86,6.268,-106.133,-43.2,-53.1,-10.127,25.66,0.48685,0.43826,-0.07742,-0.75153
 13:39:08.159,eb:33:2e:f9:57:b5, 2085-97-27 254:219:00:3971,-0.254,0.108,1.873,-198.303,-177.612,34.546,6.855,4.417,-106.073,-43.2,-53.1,-10.127,25.66,0.48685,0.43826,-0.07742,-0.75153
 13:39:08.159,eb:33:2e:f9:57:b5, 2085-97-221 253:61:01:4066,-0.265,0.123,1.984,-195.007,-162.842,46.082,4.905,2.686,-105.842,-43.2,-53.1,-10.127,25.66,0.48685,0.43826,-0.07742,-0.75153
 13:39:08.159,eb:33:2e:f9:57:b5, 2085-97-237 253:33:02:3870,-0.242,0.205,1.952,-192.81,-149.292,57.922,2.972,1.093,-105.425,-43.2,-53.1,-10.127,25.66,0.48685,0.43826,-0.07742,-0.75153
 13:39:08.191,eb:33:2e:f9:57:b5, 2085-97-33 254:45:03:3631,-0.234,0.333,1.83,-191.895,-144.531,65.43,1.049,-0.379,-104.854,-43.2,-53.1,-10.127,25.66,0.48685,0.43826,-0.07742,-0.75153
 13:39:08.191,eb:33:2e:f9:57:b5, 2085-97-08 254:64:04:3388,-0.277,0.461,1.718,-190.491,-149.78,67.505,-0.879,-1.857,-104.183,-43.2,-53.1,-10.127,25.66,0.48685,0.43826,-0.07742,-0.75153
 13:39:08.191,eb:33:2e:f9:57:b5, 2085-97-125 253:187:04:3226,-0.344,0.577,1.594,-191.467,-168.823,63.416,-2.818,-3.428,-103.475,-43.2,-53.1,-10.127,25.66,0.48685,0.43826,-0.07742,-0.75153
 13:39:08.191,eb:33:2e:f9:57:b5, 2085-97-225 252:172:04:3566,-0.428,0.597,1.636,-197.388,-186.829,57.007,-4.823,-5.191,-102.75,-43.2,-53.1,-10.127,25.66,0.48685,0.43826,-0.07742,-0.75153
 13:39:08.250,eb:33:2e:f9:57:b5, 2085-97-31 252:163:04:3993,-0.574,0.573,1.863,-203.369,-185.73,52.612,-6.916,-7.009,-102.014,-43.2,-53.1,-10.127,25.66,0.48685,0.43826,-0.07742,-0.75153
 13:39:08.250,eb:33:2e:f9:57:b5, 2085-113-58 00:133:228:-4290,-0.635,0.613,1.968,-201.111,-170.898,51.941,-9.058,-8.707,-101.245,-43.2,-53.1,-10.127,25.66,0.48685,0.43826,-0.07742,-0.75153
 13:39:08.250,eb:33:2e:f9:57:b5, 2085-97-160 250:75:06:3985,-0.713,0.686,1.966,-195.618,-162.842,52.307,-10.113,-9.481,-100.844,-43.2,-53.1,-10.127,25.66,0.48685,0.43826,-0.07742,-0.75153
 13:39:08.250,eb:33:2e:f9:57:b5, 2085-97-214 249:105:08:3668,-0.828,0.914,1.883,-177.856,-147.522,52.002,-12.134,-10.898,-100.02,-43.2,-53.1,-10.127,25.66,0.48685,0.43826,-0.07742,-0.75153
 13:39:08.279,eb:33:2e:f9:57:b5, 2085-97-225 248:02:11:3225,-1.021,1.201,1.687,-151.489,-139.038,49.622,-13.942,-12.173,-99.185,-46.9,-28.6,2.98,25.66,0.48685,0.43826,-0.07742,-0.75153
 13:39:08.279,eb:33:2e:f9:57:b5, 2085-97-184 246:02:14:2695,-1.31,1.591,1.417,-116.699,-136.902,42.358,-15.469,-13.381,-98.366,-46.9,-28.6,2.98,25.66,0.48685,0.43826,-0.07742,-0.75153
 13:39:08.279,eb:33:2e:f9:57:b5, 2085-97-58 244:117:16:2479,-1.624,1.928,1.234,-79.895,-139.771,33.508,-16.622,-14.612,-97.597,-46.9,-28.6,2.98,25.66,0.48685,0.43826,-0.07742,-0.75153
 13:39:08.279,eb:33:2e:f9:57:b5, 2085-97-240 241:188:16:2902,-1.801,2.112,1.274,-40.894,-133.789,28.015,-17.402,-15.848,-96.877,-46.9,-28.6,2.98,25.66,0.48685,0.43826,-0.07742,-0.75153
 13:39:08.341,eb:33:2e:f9:57:b5, 2085-97-181 241:247:14:3742,-1.701,2.012,1.627,2.991,-102.295,29.297,-17.754,-16.902,-96.224,-46.9,-28.6,2.98,25.66,0.48685,0.43826,-0.07742,-0.75153
 13:39:08.341,eb:33:2e:f9:57:b5, 2085-97-138 243:05:12:4036,-1.4,1.69,1.963,43.213,-38.757,35.95,-17.661,-17.468,-95.674,-46.9,-28.6,2.98,25.66,0.48685,0.43826,-0.07742,-0.75153
 13:39:08.341,eb:33:2e:f9:57:b5, 2085-97-31 246:206:09:3415,-1.064,1.344,1.846,66.406,31.555,44.556,-17.205,-17.336,-95.273,-46.9,-28.6,2.98,25.66,0.48685,0.43826,-0.07742,-0.75153
 13:39:08.341,eb:33:2e:f9:57:b5, 2085-97-222 04:118:03:11371,-0.264,1.147,1.473,71.167,74.646,49.622,-16.595,-16.639,-94.966,-46.9,-28.6,2.98,25.66,0.48685,0.43826,-0.07742,-0.75153
 13:39:08.370,eb:33:2e:f9:57:b5, 2085-97-34 06:124:255:1955,0.826,1.473,-0.457,142.883,168.518,25.94,-15.293,-15.238,-95.032,-46.9,-28.6,2.98,25.66,0.64404,-0.20624,0.00839,-0.73654
 13:39:08.370,eb:33:2e:f9:57:b5, 2085-97-21 02:61:255:1867,0.28,-0.772,0.799,164.917,180.115,18.005,-13.661,-13.579,-95.18,-46.9,-28.6,2.98,25.66,0.64404,-0.20624,0.00839,-0.73654
 13:39:08.370,eb:33:2e:f9:57:b5, 2085-97-205 05:124:251:2164,0.532,-0.356,0.915,169.067,170.593,-0.732,-11.92,-11.849,-95.504,-46.9,-28.6,2.98,25.66,0.64404,-0.20624,0.00839,-0.73654
 13:39:08.370,eb:33:2e:f9:57:b5, 2085-97-253 01:250:253:2171,-0.068,-0.272,1.074,174.255,174.377,-18.188,-10.124,-10.157,-95.916,-46.9,-28.6,2.98,25.66,0.64404,-0.20624,0.00839,-0.73654
 13:39:08.431,eb:33:2e:f9:57:b5, 2085-97-122 253:41:254:1654,-0.359,-0.274,1.019,182.983,158.569,-26.428,-8.245,-8.542,-96.443,-46.9,-28.6,2.98,25.66,0.64404,-0.20624,0.00839,-0.73654
 13:39:08.431,eb:33:2e:f9:57:b5, 2085-97-140 253:236:00:2248,-0.204,-0.054,0.943,183.655,130.066,-16.785,-6.339,-7.185,-96.839,-46.9,-28.6,2.98,25.66,0.64404,-0.20624,0.00839,-0.73654
 13:39:08.431,eb:33:2e:f9:57:b5, 2085-97-147 255:229:00:2427,-0.107,0.103,1.123,162.415,125.977,-9.094,-4.587,-5.916,-97.086,-46.9,-28.6,2.98,25.66,0.64404,-0.20624,0.00839,-0.73654
 13:39:08.431,eb:33:2e:f9:57:b5, 2085-97-118 255:01:01:2307,-0.138,0.034,1.147,143.921,119.873,-14.16,-3.054,-4.68,-97.289,-46.9,-28.6,2.98,25.66,0.64404,-0.20624,0.00839,-0.73654
 13:39:08.431,eb:33:2e:f9:57:b5, 2085-97-43 255:153:01:2298,-0.104,0.145,1.066,123.474,105.896,-22.034,-1.708,-3.554,-97.537,-46.9,-28.6,2.98,25.66,0.64404,-0.20624,0.00839,-0.73654
 13:39:08.431,eb:33:2e:f9:57:b5, 2085-97-40 254:41:02:2138,-0.11,0.173,1.029,96.252,97.473,-17.944,-0.615,-2.538,-97.767,-46.9,-28.6,2.98,25.66,0.64404,-0.20624,0.00839,-0.73654
 13:39:08.431,eb:33:2e:f9:57:b5, 2085-97-13 254:119:03:2046,-0.089,0.2,0.98,66.589,74.402,-14.832,0.187,-1.675,-97.943,-46.9,-28.6,2.98,25.66,0.64404,-0.20624,0.00839,-0.73654
 13:39:08.432,eb:33:2e:f9:57:b5, 2085-97-160 255:06:02:2032,-0.113,0.236,1.009,38.757,40.71,-16.479,0.698,-1.132,-98.124,-46.9,-28.6,2.98,25.66,0.64404,-0.20624,0.00839,-0.73654
 13:39:08.490,eb:33:2e:f9:57:b5, 2085-97-41 255:101:00:1888,-0.043,0.108,0.948,23.865,25.574,-12.512,1,-0.802,-98.278,-46.9,-28.6,2.98,25.66,0.64404,-0.20624,0.00839,-0.73654
 13:39:08.490,eb:33:2e:f9:57:b5, 2085-97-187 255:242:255:2001,-0.031,0.019,0.971,18.921,16.907,-5.371,1.208,-0.615,-98.355,-46.9,-28.6,2.98,25.66,0.64404,-0.20624,0.00839,-0.73654
 13:39:08.490,eb:33:2e:f9:57:b5, 2085-97-177 255:115:00:1970,-0.05,0.025,0.972,16.296,16.602,-0.244,1.384,-0.445,-98.372,-46.9,-28.6,2.98,25.66,0.64404,-0.20624,0.00839,-0.73654
 13:39:08.490,eb:33:2e:f9:57:b5, 2085-97-160 255:117:00:1990,-0.04,0.063,0.959,12.146,12.024,1.038,1.527,-0.302,-98.366,-46.9,-28.6,2.98,25.66,0.64404,-0.20624,0.00839,-0.73654
 13:39:08.520,eb:33:2e:f9:57:b5, 2085-97-173 255:118:00:1995,-0.022,0.076,0.971,7.996,9.399,1.221,1.626,-0.198,-98.35,-46.9,-28.6,2.98,25.66,0.64404,-0.20624,0.00839,-0.73654
 13:39:08.520,eb:33:2e:f9:57:b5, 2085-97-03 00:39:00:2079,0.002,0.021,1,6.775,7.874,0.061,1.697,-0.121,-98.344,-46.9,-28.6,2.98,25.66,0.64404,-0.20624,0.00839,-0.73654
 13:39:08.520,eb:33:2e:f9:57:b5, 2085-97-226 255:90:00:2045,-0.019,0.044,1.008,5.92,7.629,0.732,1.763,-0.038,-98.333,-46.9,-28.6,2.98,25.66,0.64404,-0.20624,0.00839,-0.73654
 13:39:08.520,eb:33:2e:f9:57:b5, 2085-97-251 255:21:00:2077,0,0.015,1.003,5.371,6.592,0.916,1.818,0.027,-98.328,-46.9,-28.6,2.98,25.66,0.64404,-0.20624,0.00839,-0.73654
 13:39:08.550,eb:33:2e:f9:57:b5, 2085-97-234 255:30:00:2065,-0.017,0.018,1.016,5.798,5.859,1.831,1.873,0.088,-98.311,-46.9,-28.6,2.98,25.66,0.64404,-0.20624,0.00839,-0.73654
 13:39:08.550,eb:33:2e:f9:57:b5, 2085-97-231 255:47:00:2055,-0.003,0.015,1.001,6.104,4.639,2.38,1.934,0.143,-98.284,-46.9,-28.6,2.98,25.66,0.64404,-0.20624,0.00839,-0.73654
 13:39:08.550,eb:33:2e:f9:57:b5, 2085-97-07 00:55:00:2075,0,0.026,1.007,5.981,4.272,2.197,2,0.187,-98.262,-46.9,-28.6,2.98,25.66,0.64404,-0.20624,0.00839,-0.73654
 13:39:08.550,eb:33:2e:f9:57:b5, 2085-97-00 00:52:00:2081,0.006,0.023,1.013,5.92,4.944,2.197,2.054,0.231,-98.24,-46.9,-28.6,2.98,25.66,0.64404,-0.20624,0.00839,-0.73654
 13:39:08.609,eb:33:2e:f9:57:b5, 2085-97-18 00:50:00:2097,0.013,0.027,1.021,5.737,6.104,2.319,2.115,0.286,-98.212,-52.7,-32.7,-1.84,25.66,0.64404,-0.20624,0.00839,-0.73654
 13:39:08.609,eb:33:2e:f9:57:b5, 2085-97-34 00:50:00:2104,0.014,0.02,1.028,5.676,8.057,2.747,2.175,0.357,-98.185,-52.7,-32.7,-1.84,25.66,0.64404,-0.20624,0.00839,-0.73654
 13:39:08.609,eb:33:2e:f9:57:b5, 2085-97-23 00:66:00:2075,0.006,0.026,1.022,5.249,9.827,3.54,2.23,0.45,-98.152,-52.7,-32.7,-1.84,25.66,0.64404,-0.20624,0.00839,-0.73654
 13:39:08.609,eb:33:2e:f9:57:b5, 2085-97-29 00:74:00:2077,0.02,0.033,1.009,3.906,10.559,4.028,2.274,0.555,-98.108,-52.7,-32.7,-1.84,25.66,0.64404,-0.20624,0.00839,-0.73654
 13:39:08.640,eb:33:2e:f9:57:b5, 2085-97-05 00:80:00:2053,-0.006,0.043,1.014,2.075,12.329,4.639,2.307,0.665,-98.058,-52.7,-32.7,-1.84,25.66,0.65555,0.01807,-0.01108,-0.75479
 13:39:08.640,eb:33:2e:f9:57:b5, 2085-97-235 255:98:00:2003,-0.017,0.047,0.985,0.488,12.817,4.7,2.318,0.791,-98.004,-52.7,-32.7,-1.84,25.66,0.65555,0.01807,-0.01108,-0.75479
 13:39:08.640,eb:33:2e:f9:57:b5, 2085-97-208 255:59:00:1998,-0.036,0.038,0.978,-0.671,11.963,4.395,2.318,0.912,-97.954,-52.7,-32.7,-1.84,25.66,0.65555,0.01807,-0.01108,-0.75479
 13:39:08.640,eb:33:2e:f9:57:b5, 2085-97-187 255:49:00:1995,-0.022,0.021,0.973,-1.526,11.047,4.517,2.307,1.027,-97.905,-52.7,-32.7,-1.84,25.66,0.65555,0.01807,-0.01108,-0.75479
 13:39:08.670,eb:33:2e:f9:57:b5, 2085-97-232 255:64:00:2030,-0.014,0.024,0.987,-1.221,9.644,4.15,2.296,1.126,-97.861,-52.7,-32.7,-1.84,25.66,0.65555,0.01807,-0.01108,-0.75479
 13:39:08.670,eb:33:2e:f9:57:b5, 2085-97-238 255:66:00:2042,-0.022,0.03,0.991,-0.549,8.789,2.869,2.285,1.219,-97.822,-52.7,-32.7,-1.84,25.66,0.65555,0.01807,-0.01108,-0.75479
 13:39:08.670,eb:33:2e:f9:57:b5, 2085-97-234 255:71:00:2045,-0.003,0.026,0.993,-0.122,8.24,2.075,2.285,1.307,-97.795,-52.7,-32.7,-1.84,25.66,0.65555,0.01807,-0.01108,-0.75479
 13:39:08.670,eb:33:2e:f9:57:b5, 2085-97-236 255:60:00:2066,-0.013,0.036,1.005,0.244,8.606,0.671,2.285,1.39,-97.778,-52.7,-32.7,-1.84,25.66,0.65555,0.01807,-0.01108,-0.75479
 13:39:08.729,eb:33:2e:f9:57:b5, 2085-97-231 255:71:00:2052,-0.021,0.032,1,0.427,9.033,0.061,2.291,1.478,-97.773,-52.7,-32.7,-1.84,25.66,0.65555,0.01807,-0.01108,-0.75479
 13:39:08.729,eb:33:2e:f9:57:b5, 2085-97-220 255:62:00:2051,-0.022,0.029,0.996,0.061,9.094,-0.244,2.291,1.571,-97.773,-52.7,-32.7,-1.84,25.66,0.65555,0.01807,-0.01108,-0.75479
 13:39:08.729,eb:33:2e:f9:57:b5, 2085-97-202 255:53:00:2030,-0.026,0.028,0.996,0.244,9.094,-0.793,2.296,1.659,-97.773,-52.7,-32.7,-1.84,25.66,0.65555,0.01807,-0.01108,-0.75479
 13:39:08.729,eb:33:2e:f9:57:b5, 2085-97-207 255:56:00:2050,-0.023,0.027,0.998,0.122,9.094,-0.793,2.296,1.752,-97.778,-52.7,-32.7,-1.84,25.66,0.65555,0.01807,-0.01108,-0.75479
 13:39:08.760,eb:33:2e:f9:57:b5, 2085-97-214 255:58:00:2061,-0.024,0.028,0.997,0,9.521,-0.732,2.296,1.846,-97.784,-52.7,-32.7,-1.84,25.66,0.65555,0.01807,-0.01108,-0.75479
 13:39:08.760,eb:33:2e:f9:57:b5, 2085-97-197 255:48:00:2054,-0.022,0.026,1,0.183,10.132,-1.16,2.296,1.945,-97.789,-52.7,-32.7,-1.84,25.66,0.65555,0.01807,-0.01108,-0.75479
 13:39:08.760,eb:33:2e:f9:57:b5, 2085-97-220 255:68:00:2062,-0.008,0.031,1.005,0.305,10.62,-1.343,2.302,2.049,-97.8,-52.7,-32.7,-1.84,25.66,0.65555,0.01807,-0.01108,-0.75479
 13:39:08.760,eb:33:2e:f9:57:b5, 2085-97-03 00:85:00:2123,0.008,0.036,1.023,0.488,11.902,-2.197,2.307,2.164,-97.811,-52.7,-32.7,-1.84,25.66,0.65555,0.01807,-0.01108,-0.75479
 13:39:08.820,eb:33:2e:f9:57:b5, 2085-97-27 00:90:00:2174,-0.001,0.042,1.056,0.427,15.991,-3.479,2.307,2.307,-97.839,-52.7,-32.7,-1.84,25.66,0.65555,0.01807,-0.01108,-0.75479
 13:39:08.820,eb:33:2e:f9:57:b5, 2085-97-217 255:78:00:2048,-0.046,0.041,1.037,0.61,20.691,-4.883,2.313,2.499,-97.872,-52.7,-32.7,-1.84,25.66,0.65555,0.01807,-0.01108,-0.75479
 13:39:08.820,eb:33:2e:f9:57:b5, 2085-97-181 255:91:00:2051,-0.024,0.021,1.003,1.709,20.447,-5.676,2.324,2.708,-97.916,-52.7,-32.7,-1.84,25.66,0.65555,0.01807,-0.01108,-0.75479
 13:39:08.820,eb:33:2e:f9:57:b5, 2085-97-225 255:54:00:2185,-0.011,0.042,1.03,2.502,21.606,-6.531,2.346,2.917,-97.971,-52.7,-32.7,-1.84,25.66,0.65555,0.01807,-0.01108,-0.75479
 13:39:08.878,eb:33:2e:f9:57:b5, 2085-97-226 255:09:00:2307,0.01,0.027,1.07,3.357,26.672,-6.775,2.373,3.164,-98.031,-52.7,-32.7,-1.84,25.66,0.65555,0.01807,-0.01108,-0.75479
 13:39:08.878,eb:33:2e:f9:57:b5, 2085-97-05 00:51:00:2268,-0.034,0.005,1.176,3.113,37.17,-5.859,2.401,3.483,-98.08,-52.7,-32.7,-1.84,25.66,0.65555,0.01807,-0.01108,-0.75479
 13:39:08.878,eb:33:2e:f9:57:b5, 2085-97-191 255:52:00:2163,-0.051,0.03,1.049,2.991,43.335,-5.676,2.428,3.906,-98.119,-52.7,-32.7,-1.84,25.66,0.65555,0.01807,-0.01108,-0.75479
 13:39:08.878,eb:33:2e:f9:57:b5, 2085-97-66 255:05:00:2059,-0.083,0.01,1.05,4.761,45.898,-5.737,2.461,4.356,-98.157,-52.7,-32.7,-1.84,25.66,0.65555,0.01807,-0.01108,-0.75479
 13:39:08.909,eb:33:2e:f9:57:b5, 2085-97-104 255:00:00:2161,-0.066,0.006,1.027,6.592,44.128,-4.517,2.516,4.807,-98.19,-53.1,-34.9,-5.513,25.66,0.65555,0.01807,-0.01108,-0.75479
 13:39:08.909,eb:33:2e:f9:57:b5, 2085-97-139 255:24:00:2223,-0.063,0.02,1.05,8.789,44.25,-3.601,2.593,5.251,-98.207,-53.1,-34.9,-5.513,25.66,0.65555,0.01807,-0.01108,-0.75479
 13:39:08.909,eb:33:2e:f9:57:b5, 2085-97-149 255:31:00:2334,-0.006,0,1.099,14.526,42.664,-3.235,2.708,5.696,-98.223,-53.1,-34.9,-5.513,25.66,0.65555,0.01807,-0.01108,-0.75479
 13:39:08.909,eb:33:2e:f9:57:b5, 2085-97-250 254:115:255:2471,-0.15,0.092,1.067,24.719,36.987,-6.287,2.906,6.092,-98.245,-53.1,-34.9,-5.513,25.66,0.65555,0.01807,-0.01108,-0.75479
 13:39:08.911,eb:33:2e:f9:57:b5, 2085-97-129 254:40:255:2501,-0.22,-0.117,1.313,37.598,37.598,-3.479,3.214,6.465,-98.284,-53.1,-34.9,-5.513,25.66,0.65555,0.01807,-0.01108,-0.75479
 13:39:08.911,eb:33:2e:f9:57:b5, 2085-97-62 254:228:254:2494,-0.2,-0.134,1.239,48.401,35.461,0.122,3.658,6.828,-98.278,-53.1,-34.9,-5.513,25.66,0.65555,0.01807,-0.01108,-0.75479
 13:39:08.911,eb:33:2e:f9:57:b5, 2085-97-129 254:115:255:2327,-0.209,-0.082,1.155,58.716,32.104,5.432,4.208,7.169,-98.223,-53.1,-34.9,-5.513,25.66,0.65555,0.01807,-0.01108,-0.75479
 13:39:08.911,eb:33:2e:f9:57:b5, 2085-97-177 254:134:255:2470,-0.171,-0.062,1.161,67.688,26.367,9.094,4.856,7.454,-98.124,-53.1,-34.9,-5.513,25.66,0.65555,0.01807,-0.01108,-0.75479
 13:39:08.970,eb:33:2e:f9:57:b5, 2085-97-215 254:154:255:2616,-0.109,-0.063,1.211,79.041,23.743,12.146,5.614,7.69,-97.993,-53.1,-34.9,-5.513,25.66,0.65555,0.01807,-0.01108,-0.75479
 13:39:08.970,eb:33:2e:f9:57:b5, 2085-97-113 255:202:255:2931,-0.051,-0.024,1.384,91.248,26.55,13.916,6.493,7.927,-97.828,-53.1,-34.9,-5.513,25.66,0.65555,0.01807,-0.01108,-0.75479
 13:39:08.970,eb:33:2e:f9:57:b5, 2085-97-167 255:207:255:3024,0.005,-0.034,1.459,105.164,33.875,13.855,7.504,8.207,-97.652,-53.1,-34.9,-5.513,25.66,0.65555,0.01807,-0.01108,-0.75479
 13:39:08.970,eb:33:2e:f9:57:b5, 2085-97-91 00:78:00:3088,0.042,0.019,1.511,117.615,45.349,13.123,8.657,8.58,-97.46,-53.1,-34.9,-5.513,25.66,0.65555,0.01807,-0.01108,-0.75479
 13:39:09.000,eb:33:2e:f9:57:b5, 2085-97-69 00:164:00:3177,0.037,0.059,1.518,130.127,58.533,10.071,9.932,9.08,-97.262,-53.1,-34.9,-5.513,25.66,0.65164,0.09277,0.00037,-0.75278
 13:39:09.000,eb:33:2e:f9:57:b5, 2085-97-32 00:34:00:3236,0.022,0.002,1.559,142.517,73.059,7.812,11.332,9.717,-97.053,-53.1,-34.9,-5.513,25.66,0.65164,0.09277,0.00037,-0.75278
 13:39:09.000,eb:33:2e:f9:57:b5, 2085-97-90 00:57:00:3279,0.042,0.008,1.58,153.809,89.355,9.033,12.865,10.508,-96.795,-53.1,-34.9,-5.513,25.66,0.65164,0.09277,0.00037,-0.75278
 13:39:09.000,eb:33:2e:f9:57:b5, 2085-97-197 00:31:00:3466,0.067,0.041,1.609,167.542,101.013,7.69,14.535,11.415,-96.482,-53.1,-34.9,-5.513,25.66,0.65164,0.09277,0.00037,-0.75278
 13:39:09.059,eb:33:2e:f9:57:b5, 2085-97-71 01:187:00:3600,0.179,0.059,1.737,179.81,120.789,8.24,16.359,12.475,-96.097,-53.1,-34.9,-5.513,25.66,0.65164,0.09277,0.00037,-0.75278
 13:39:09.059,eb:33:2e:f9:57:b5, 2085-97-205 01:57:01:3640,0.277,0.161,1.71,197.021,137.146,3.418,18.347,13.705,-95.63,-53.1,-34.9,-5.513,25.66,0.65164,0.09277,0.00037,-0.75278
 13:39:09.059,eb:33:2e:f9:57:b5, 2085-97-47 02:255:00:3919,0.272,0.123,1.866,214.111,154.846,-3.479,20.539,15.084,-95.131,-53.1,-34.9,-5.513,25.66,0.65164,0.09277,0.00037,-0.75278
 13:39:09.059,eb:33:2e:f9:57:b5, 2085-97-46 02:09:01:4263,0.301,0.146,1.923,235.168,169.739,-14.343,22.939,16.639,-94.581,-53.1,-34.9,-5.513,25.66,0.65164,0.09277,0.00037,-0.75278
 13:39:09.090,eb:33:2e:f9:57:b5, 2085-97-16 02:183:00:4633,0.322,0.047,2.225,256.47,191.711,-26.672,25.582,18.369,-94.016,-53.1,-34.9,-5.513,25.66,0.65164,0.09277,0.00037,-0.75278
 13:39:09.090,eb:33:2e:f9:57:b5, 2085-97-109 01:199:01:5066,0.147,0.094,2.358,277.71,218.018,-36.316,28.493,20.352,-93.318,-53.1,-34.9,-5.513,25.66,0.65164,0.09277,0.00037,-0.75278
 13:39:09.090,eb:33:2e:f9:57:b5, 2085-97-232 01:183:00:5906,0.234,0.268,2.807,294.8,234.375,-54.016,31.652,22.533,-92.538,-53.1,-34.9,-5.513,25.66,0.65164,0.09277,0.00037,-0.75278
 13:39:09.090,eb:33:2e:f9:57:b5, 2085-97-93 02:65:01:4848,0.306,0.061,2.496,308.228,257.324,-56.091,35.09,24.933,-91.516,-53.1,-34.9,-5.513,25.66,0.65164,0.09277,0.00037,-0.75278
 13:39:09.121,eb:33:2e:f9:57:b5, 2085-97-138 01:06:01:4589,0.193,0.049,2.424,314.88,267.273,-62.134,38.738,27.378,-90.319,-53.1,-34.9,-5.513,25.66,0.65164,0.09277,0.00037,-0.75278
 13:39:09.121,eb:33:2e:f9:57:b5, 2085-97-85 01:147:01:4812,0.235,0.287,2.3,316.589,263.245,-73.181,42.567,29.828,-88.929,-53.1,-34.9,-5.513,25.66,0.65164,0.09277,0.00037,-0.75278
 13:39:09.121,eb:33:2e:f9:57:b5, 2085-97-02 03:247:255:4188,0.408,0.118,2.316,308.472,263,-81.482,46.467,32.256,-87.429,-53.1,-34.9,-5.513,25.66,0.65164,0.09277,0.00037,-0.75278
 13:39:09.121,eb:33:2e:f9:57:b5, 2085-97-35 05:185:253:2591,0.885,-0.061,1.681,290.344,257.385,-83.13,50.383,34.607,-85.737,-53.1,-34.9,-5.513,25.66,0.65164,0.09277,0.00037,-0.75278
 13:39:09.180,eb:33:2e:f9:57:b5, 2085-97-11 07:75:251:1577,1.208,-0.346,1.076,255.066,238.586,-84.595,54.124,36.771,-83.963,-53.1,-34.9,-5.513,25.66,0.65164,0.09277,0.00037,-0.75278
 13:39:09.180,eb:33:2e:f9:57:b5, 2085-97-247 09:83:253:-1576,0.236,-1.112,0.447,242.126,215.149,-75.806,57.662,38.705,-82.211,-53.1,-34.9,-5.513,25.66,0.65164,0.09277,0.00037,-0.75278
 13:39:09.180,eb:33:2e:f9:57:b5, 2085-97-242 00:196:02:-4089,0.526,0.562,-2.157,195.801,101.013,-119.385,60.787,40.413,-80.887,-53.1,-34.9,-5.513,25.66,0.65164,0.09277,0.00037,-0.75278
 13:39:09.180,eb:33:2e:f9:57:b5, 2085-97-103 04:125:252:-429,0.456,-0.074,-0.862,93.811,-68.787,-138.062,61.551,41.567,-81.788,-53.1,-34.9,-5.513,25.66,0.65164,0.09277,0.00037,-0.75278
 13:39:09.180,eb:33:2e:f9:57:b5, 2085-97-50 03:94:250:577,0.421,-0.639,0.104,16.296,-135.315,-126.77,60.584,42.198,-83.969,-53.1,-34.9,-5.513,25.66,0.65164,0.09277,0.00037,-0.75278
 13:39:09.240,eb:33:2e:f9:57:b5, 2085-113-58 00:235:231:-9495,0.469,-0.716,0.462,-31.921,-152.954,-105.652,58.749,42.44,-86.49,-41.1,-63.3,-24.813,25.66,0.65164,0.09277,0.00037,-0.75278
 13:39:09.240,eb:33:2e:f9:57:b5, 2085-97-217 03:50:250:1699,0.464,-0.715,0.673,-45.349,-148.682,-93.811,57.722,42.462,-87.715,-41.1,-63.3,-24.813,25.66,0.65164,0.09277,0.00037,-0.75278
 13:39:09.240,eb:33:2e:f9:57:b5, 2085-97-142 03:188:250:1744,0.418,-0.708,0.893,-54.688,-127.625,-71.899,55.745,42.391,-89.879,-41.1,-63.3,-24.813,25.66,0.65164,0.09277,0.00037,-0.75278
 13:39:09.240,eb:33:2e:f9:57:b5, 2085-97-49 03:103:251:1109,0.389,-0.612,0.722,-60.73,-109.924,-52.979,53.959,42.209,-91.659,-41.1,-63.3,-24.813,25.66,0.65164,0.09277,0.00037,-0.75278
 13:39:09.243,eb:33:2e:f9:57:b5, 2085-97-44 03:196:251:370,0.41,-0.551,0.348,-75.928,-106.628,-36.438,52.273,41.918,-93.164,-41.1,-63.3,-24.813,25.66,0.65164,0.09277,0.00037,-0.75278
 13:39:09.243,eb:33:2e:f9:57:b5, 2085-97-95 03:18:252:-050,0.434,-0.508,0.057,-102.783,-119.446,-21.606,50.416,41.424,-94.587,-41.1,-63.3,-24.813,25.66,0.65164,0.09277,0.00037,-0.75278
 13:39:09.243,eb:33:2e:f9:57:b5, 2085-97-155 03:81:252:-116,0.469,-0.481,-0.061,-135.071,-141.113,-9.705,48.263,40.688,-96.031,-41.1,-63.3,-24.813,25.66,0.65164,0.09277,0.00037,-0.75278
 13:39:09.243,eb:33:2e:f9:57:b5, 2085-97-251 03:227:252:145,0.5,-0.432,-0.013,-162.048,-168.03,-2.991,45.747,39.655,-97.575,-41.1,-63.3,-24.813,25.66,0.65164,0.09277,0.00037,-0.75278
 13:39:09.299,eb:33:2e:f9:57:b5, 2085-97-252 03:169:253:448,0.478,-0.344,0.145,-178.955,-196.472,-3.845,42.973,38.364,-99.256,-41.1,-63.3,-24.813,25.66,0.46912,0.48444,-0.07098,-0.73489
 13:39:09.299,eb:33:2e:f9:57:b5, 2085-97-176 03:62:254:775,0.415,-0.253,0.292,-187.439,-223.633,-9.399,39.996,36.81,-101.096,-41.1,-63.3,-24.813,25.66,0.46912,0.48444,-0.07098,-0.73489
 13:39:09.299,eb:33:2e:f9:57:b5, 2085-97-254 02:111:254:1171,0.321,-0.2,0.481,-191.345,-246.887,-16.357,36.958,35.041,-103.035,-41.1,-63.3,-24.813,25.66,0.46912,0.48444,-0.07098,-0.73489
 13:39:09.299,eb:33:2e:f9:57:b5, 2085-97-67 02:67:254:1587,0.233,-0.205,0.664,-191.65,-260.559,-20.142,33.926,33.058,-105.013,-41.1,-63.3,-24.813,25.66,0.46912,0.48444,-0.07098,-0.73489
 13:39:09.360,eb:33:2e:f9:57:b5, 2085-97-124 01:17:254:1996,0.131,-0.23,0.875,-190.308,-264.893,-19.592,31.025,30.943,-106.886,-41.1,-63.3,-24.813,25.66,0.46912,0.48444,-0.07098,-0.73489
 13:39:09.360,eb:33:2e:f9:57:b5, 2085-97-166 00:06:254:2261,0.047,-0.249,1.05,-191.04,-262.512,-14.648,28.273,28.724,-108.567,-41.1,-63.3,-24.813,25.66,0.46912,0.48444,-0.07098,-0.73489
 13:39:09.360,eb:33:2e:f9:57:b5, 2085-97-23 00:34:254:2439,-0.021,-0.236,1.149,-196.106,-257.812,-7.019,25.67,26.45,-110.006,-41.1,-63.3,-24.813,25.66,0.46912,0.48444,-0.07098,-0.73489
 13:39:09.360,eb:33:2e:f9:57:b5, 2085-97-176 255:235:253:2700,-0.058,-0.247,1.244,-202.637,-252.747,2.563,23.154,24.12,-111.198,-41.1,-63.3,-24.813,25.66,0.46912,0.48444,-0.07098,-0.73489
 13:39:09.360,eb:33:2e:f9:57:b5, 2085-97-136 255:173:253:3020,-0.057,-0.277,1.392,-205.872,-244.751,15.076,20.748,21.786,-112.115,-41.1,-63.3,-24.813,25.66,0.46912,0.48444,-0.07098,-0.73489
 13:39:09.360,eb:33:2e:f9:57:b5, 2085-97-158 255:244:253:3216,-0.037,-0.285,1.537,-204.773,-232.178,29.48,18.457,19.446,-112.742,-41.1,-63.3,-24.813,25.66,0.46912,0.48444,-0.07098,-0.73489
 13:39:09.360,eb:33:2e:f9:57:b5, 2085-97-203 255:215:254:3242,-0.019,-0.206,1.577,-200.684,-219.604,42.48,16.326,17.188,-113.077,-41.1,-63.3,-24.813,25.66,0.46912,0.48444,-0.07098,-0.73489
 13:39:09.360,eb:33:2e:f9:57:b5, 2085-97-232 255:233:255:3200,-0.006,-0.078,1.577,-195.862,-216.492,50.171,14.299,14.958,-113.203,-41.1,-63.3,-24.813,25.66,0.46912,0.48444,-0.07098,-0.73489
 13:39:09.420,eb:33:2e:f9:57:b5, 2085-97-10 00:144:00:3287,0.021,0.041,1.561,-195.129,-223.816,52.307,12.349,12.695,-113.203,-41.1,-63.3,-24.813,25.66,0.46912,0.48444,-0.07098,-0.73489
 13:39:09.420,eb:33:2e:f9:57:b5, 2085-97-61 00:214:00:3728,0.024,0.089,1.704,-196.411,-232.361,50.842,10.388,10.333,-113.148,-41.1,-63.3,-24.813,25.66,0.46912,0.48444,-0.07098,-0.73489
 13:39:09.420,eb:33:2e:f9:57:b5, 2085-97-13 00:244:00:4134,-0.019,0.116,1.929,-195.862,-235.657,47.424,8.438,7.938,-113.049,-41.1,-63.3,-24.813,25.66,0.46912,0.48444,-0.07098,-0.73489
 13:39:09.420,eb:33:2e:f9:57:b5, 2085-97-154 255:07:01:4357,-0.086,0.12,2.084,-195.312,-235.046,44.189,6.487,5.526,-112.901,-41.1,-63.3,-24.813,25.66,0.46912,0.48444,-0.07098,-0.73489
 13:39:09.450,eb:33:2e:f9:57:b5, 2085-97-253 254:80:01:4407,-0.167,0.143,2.146,-199.097,-232.361,42.664,4.537,3.159,-112.692,-41.1,-63.3,-24.813,25.66,0.46912,0.48444,-0.07098,-0.73489
 13:39:09.450,eb:33:2e:f9:57:b5, 2085-97-84 254:192:01:4462,-0.249,0.194,2.161,-207.092,-232.056,42.542,2.499,0.802,-112.412,-41.1,-63.3,-24.813,25.66,0.46912,0.48444,-0.07098,-0.73489
 13:39:09.450,eb:33:2e:f9:57:b5, 2085-97-160 253:34:02:4585,-0.346,0.242,2.209,-215.454,-231.75,43.762,0.374,-1.527,-112.039,-41.1,-63.3,-24.813,25.66,0.46912,0.48444,-0.07098,-0.73489
 13:39:09.450,eb:33:2e:f9:57:b5, 2085-97-201 252:204:02:4533,-0.471,0.298,2.234,-219.543,-228.21,46.082,-1.84,-3.834,-111.555,-41.1,-63.3,-24.813,25.66,0.46912,0.48444,-0.07098,-0.73489
 13:39:09.479,eb:33:2e:f9:57:b5, 2085-97-168 251:209:03:4518,-0.605,0.41,2.197,-215.149,-226.746,46.265,-4.07,-6.081,-110.973,-71.9,-19.8,1.467,25.66,0.46912,0.48444,-0.07098,-0.73489
 13:39:09.479,eb:33:2e:f9:57:b5, 2085-97-199 250:197:04:4643,-0.643,0.545,2.238,-205.688,-226.196,44.189,-6.262,-8.311,-110.308,-71.9,-19.8,1.467,25.66,0.46912,0.48444,-0.07098,-0.73489
 13:39:09.479,eb:33:2e:f9:57:b5, 2085-97-04 251:176:05:4600,-0.715,0.632,2.291,-198.792,-213.989,43.152,-8.399,-10.453,-109.589,-71.9,-19.8,1.467,25.66,0.46912,0.48444,-0.07098,-0.73489
 13:39:09.479,eb:33:2e:f9:57:b5, 2085-97-223 249:90:09:4016,-0.848,0.916,2.07,-189.941,-194.641,41.931,-10.514,-12.382,-108.814,-71.9,-19.8,1.467,25.66,0.46912,0.48444,-0.07098,-0.73489
 13:39:09.542,eb:33:2e:f9:57:b5, 2085-97-221 247:33:13:3456,-1.355,1.403,1.861,-166.687,-188.599,31.616,-12.475,-14.178,-108.051,-71.9,-19.8,1.467,25.66,0.46912,0.48444,-0.07098,-0.73489
 13:39:09.542,eb:33:2e:f9:57:b5, 2085-97-75 241:65:15:2127,-2.276,1.815,1.378,-127.502,-198.975,22.522,-14.139,-15.996,-107.325,-71.9,-19.8,1.467,25.66,0.46912,0.48444,-0.07098,-0.73489
 13:39:09.542,eb:33:2e:f9:57:b5, 2085-97-40 235:232:18:2429,-2.791,2.083,0.93,-75.195,-228.394,30.701,-15.37,-18.023,-106.49,-71.9,-19.8,1.467,25.66,0.46912,0.48444,-0.07098,-0.73489
 13:39:09.542,eb:33:2e:f9:57:b5, 2085-97-152 233:152:21:4907,-2.564,2.64,1.761,-20.508,-203.003,50.537,-16.188,-20.056,-105.425,-71.9,-19.8,1.467,25.66,0.46912,0.48444,-0.07098,-0.73489
 13:39:09.569,eb:33:2e:f9:57:b5, 2085-97-156 238:81:16:5811,-1.867,2.45,2.822,41.748,-92.102,67.932,-16.425,-21.297,-104.359,-71.9,-19.8,1.467,25.66,0.56848,-0.19351,0.01526,-0.79941
 13:39:09.569,eb:33:2e:f9:57:b5, 2085-97-208 242:202:11:4124,-1.469,1.698,2.489,84.229,33.63,81.604,-16.057,-21.275,-103.513,-71.9,-19.8,1.467,25.66,0.56848,-0.19351,0.01526,-0.79941
 13:39:09.569,eb:33:2e:f9:57:b5, 2085-97-167 245:89:09:2383,-0.146,1.3,1.55,93.201,93.811,83.801,-15.375,-20.341,-102.859,-71.9,-19.8,1.467,25.66,0.56848,-0.19351,0.01526,-0.79941
 13:39:09.569,eb:33:2e:f9:57:b5, 2085-97-165 247:06:01:3840,-1.013,0.846,1.996,154.297,11.658,18.188,-14.529,-19.479,-102.36,-71.9,-19.8,1.467,25.66,0.56848,-0.19351,0.01526,-0.79941
 13:39:09.629,eb:33:2e:f9:57:b5, 2085-97-30 08:169:249:695,0.305,-0.91,0.644,142.151,224.854,95.947,-13.299,-16.809,-101.986,-71.9,-19.8,1.467,25.66,0.56848,-0.19351,0.01526,-0.79941
 13:39:09.629,eb:33:2e:f9:57:b5, 2085-97-20 255:250:253:1719,0.467,-0.351,0.693,160.706,241.821,68.42,-11.843,-14.216,-101.777,-71.9,-19.8,1.467,25.66,0.56848,-0.19351,0.01526,-0.79941
 13:39:09.629,eb:33:2e:f9:57:b5, 2085-97-226 02:39:253:2084,-0.13,-0.569,0.87,170.959,215.027,41.138,-10.206,-11.898,-101.695,-71.9,-19.8,1.467,25.66,0.56848,-0.19351,0.01526,-0.79941
 13:39:09.629,eb:33:2e:f9:57:b5, 2085-97-254 251:66:253:1537,-0.418,-0.245,0.982,181.091,191.101,8.667,-8.405,-9.86,-101.816,-71.9,-19.8,1.467,25.66,0.56848,-0.19351,0.01526,-0.79941
 13:39:09.688,eb:33:2e:f9:57:b5, 2085-97-210 251:117:255:1768,-0.403,-0.021,1,190.002,150.879,-3.357,-6.482,-8.229,-102.025,-71.9,-19.8,1.467,25.66,0.56848,-0.19351,0.01526,-0.79941
 13:39:09.688,eb:33:2e:f9:57:b5, 2085-97-166 252:228:00:2171,-0.263,0.113,1.115,180.237,137.146,0.183,-4.598,-6.839,-102.156,-71.9,-19.8,1.467,25.66,0.56848,-0.19351,0.01526,-0.79941
 13:39:09.688,eb:33:2e:f9:57:b5, 2085-97-144 254:52:01:2425,-0.097,0.118,1.136,163.086,126.465,-12.207,-2.873,-5.532,-102.305,-71.9,-19.8,1.467,25.66,0.56848,-0.19351,0.01526,-0.79941
 13:39:09.689,eb:33:2e:f9:57:b5, 2085-97-225 255:223:01:2283,0.063,0.206,1.155,139.771,111.511,-27.893,-1.34,-4.351,-102.563,-71.9,-19.8,1.467,25.66,0.56848,-0.19351,0.01526,-0.79941
 13:39:09.691,eb:33:2e:f9:57:b5, 2085-97-70 00:58:01:2272,-0.221,0.214,1.129,112.549,101.074,-24.658,-0.071,-3.307,-102.854,-71.9,-19.8,1.467,25.66,0.56848,-0.19351,0.01526,-0.79941
 13:39:09.691,eb:33:2e:f9:57:b5, 2085-97-253 255:163:03:2041,-0.055,0.744,0.914,64.087,74.829,-22.644,0.835,-2.379,-103.057,-71.9,-19.8,1.467,25.66,0.56848,-0.19351,0.01526,-0.79941
 13:39:09.691,eb:33:2e:f9:57:b5, 2085-97-219 253:215:00:1732,-0.18,0.458,0.949,24.658,46.57,-9.583,1.241,-1.791,-103.156,-71.9,-19.8,1.467,25.66,0.56848,-0.19351,0.01526,-0.79941
 13:39:09.691,eb:33:2e:f9:57:b5, 2085-97-156 255:213:255:1991,-0.04,-0.076,0.906,18.982,30.09,2.075,1.439,-1.428,-103.184,-71.9,-19.8,1.467,25.66,0.56848,-0.19351,0.01526,-0.79941
 13:39:09.719,eb:33:2e:f9:57:b5, 2085-97-57 255:231:00:1866,-0.112,0.07,0.955,18.188,27.954,2.258,1.631,-1.132,-103.145,-71.9,-19.8,1.467,25.66,0.56848,-0.19351,0.01526,-0.79941
 13:39:09.719,eb:33:2e:f9:57:b5, 2085-97-33 255:62:01:1841,-0.103,0.118,0.938,9.644,20.203,5.92,1.769,-0.906,-103.107,-71.9,-19.8,1.467,25.66,0.56848,-0.19351,0.01526,-0.79941
 13:39:09.719,eb:33:2e:f9:57:b5, 2085-97-104 255:25:00:1950,-0.019,0.079,0.924,5.432,8.179,-0.183,1.835,-0.769,-103.068,-71.9,-19.8,1.467,25.66,0.56848,-0.19351,0.01526,-0.79941
 13:39:09.719,eb:33:2e:f9:57:b5, 2085-97-220 255:99:00:2021,-0.023,0.018,0.989,6.042,5.432,-0.793,1.895,-0.709,-103.079,-71.9,-19.8,1.467,25.66,0.56848,-0.19351,0.01526,-0.79941
 13:39:09.779,eb:33:2e:f9:57:b5, 2085-97-231 255:74:00:2039,0.001,0.05,0.988,4.456,3.54,-0.732,1.945,-0.665,-103.079,-71.9,-19.8,1.467,25.66,0.56848,-0.19351,0.01526,-0.79941
 13:39:09.779,eb:33:2e:f9:57:b5, 2085-113-58 00:118:213:-2115,0.019,0.027,1.012,4.639,3.784,-0.671,1.989,-0.626,-103.09,-71.9,-19.8,1.467,25.66,0.56848,-0.19351,0.01526,-0.79941
 13:39:09.779,eb:33:2e:f9:57:b5, 2085-97-03 00:51:00:2071,-0.013,0.021,1.028,4.883,5.371,-0.427,2.016,-0.599,-103.09,-71.9,-19.8,1.467,25.66,0.56848,-0.19351,0.01526,-0.79941
 13:39:09.779,eb:33:2e:f9:57:b5, 2085-97-205 255:66:00:2029,-0.021,0.033,1.001,5.005,4.944,0.183,2.065,-0.544,-103.085,-71.9,-19.8,1.467,25.66,0.56848,-0.19351,0.01526,-0.79941
 13:39:09.810,eb:33:2e:f9:57:b5, 2085-97-235 255:37:00:2059,-0.011,0.025,0.994,5.005,3.479,0.549,2.115,-0.505,-103.079,-72.6,-14.1,-8.573,25.66,0.56848,-0.19351,0.01526,-0.79941
 13:39:09.810,eb:33:2e:f9:57:b5, 2085-97-222 255:63:00:2048,-0.013,0.024,1.005,5.493,3.601,1.343,2.17,-0.467,-103.068,-72.6,-14.1,-8.573,25.66,0.56848,-0.19351,0.01526,-0.79941
 13:39:09.810,eb:33:2e:f9:57:b5, 2085-97-242 255:66:00:2067,0.008,0.035,1.001,5.127,3.357,1.465,2.225,-0.434,-103.052,-72.6,-14.1,-8.573,25.66,0.56848,-0.19351,0.01526,-0.79941
 13:39:09.810,eb:33:2e:f9:57:b5, 2085-97-25 00:74:00:2103,0.008,0.034,1.023,5.188,4.395,1.343,2.28,-0.396,-103.035,-72.6,-14.1,-8.573,25.66,0.56848,-0.19351,0.01526,-0.79941
 13:39:09.840,eb:33:2e:f9:57:b5, 2085-97-10 00:79:00:2089,0.001,0.037,1.024,4.883,6.287,1.709,2.329,-0.341,-103.019,-72.6,-14.1,-8.573,25.66,0.56848,-0.19351,0.01526,-0.79941
 13:39:09.840,eb:33:2e:f9:57:b5, 2085-97-07 00:78:00:2076,0.004,0.036,1.016,4.211,7.874,2.136,2.373,-0.264,-102.991,-72.6,-14.1,-8.573,25.66,0.56848,-0.19351,0.01526,-0.79941
 13:39:09.840,eb:33:2e:f9:57:b5, 2085-97-19 00:97:00:2072,0,0.044,1.01,3.418,8.728,2.136,2.411,-0.181,-102.969,-72.6,-14.1,-8.573,25.66,0.56848,-0.19351,0.01526,-0.79941
 13:39:09.840,eb:33:2e:f9:57:b5, 2085-97-253 255:86:00:2052,0,0.042,1.006,2.441,9.644,2.075,2.444,-0.088,-102.942,-72.6,-14.1,-8.573,25.66,0.56848,-0.19351,0.01526,-0.79941
 13:39:09.899,eb:33:2e:f9:57:b5, 2085-97-251 255:75:00:2051,-0.011,0.042,1,1.709,10.01,2.441,2.466,0.005,-102.914,-72.6,-14.1,-8.573,25.66,0.62265,0.01224,-0.01733,-0.78214
 13:39:09.899,eb:33:2e:f9:57:b5, 2085-97-234 255:69:00:2038,-0.014,0.033,0.994,1.099,10.071,2.686,2.477,0.11,-102.881,-72.6,-14.1,-8.573,25.66,0.62265,0.01224,-0.01733,-0.78214
 13:39:09.899,eb:33:2e:f9:57:b5, 2085-97-239 255:75:00:2036,-0.019,0.03,0.995,0.427,10.193,3.418,2.488,0.209,-102.849,-72.6,-14.1,-8.573,25.66,0.62265,0.01224,-0.01733,-0.78214
 13:39:09.899,eb:33:2e:f9:57:b5, 2085-97-216 255:71:00:2021,-0.021,0.034,0.984,-0.305,10.193,3.906,2.488,0.313,-102.805,-72.6,-14.1,-8.573,25.66,0.62265,0.01224,-0.01733,-0.78214
 13:39:09.930,eb:33:2e:f9:57:b5, 2085-97-247 255:70:00:2058,0.001,0.03,0.99,-0.671,9.277,4.15,2.483,0.406,-102.761,-72.6,-14.1,-8.573,25.66,0.62265,0.01224,-0.01733,-0.78214
 13:39:09.930,eb:33:2e:f9:57:b5, 2085-97-23 00:81:00:2092,0.007,0.038,1.014,0.732,8.545,2.625,2.483,0.5,-102.728,-72.6,-14.1,-8.573,25.66,0.62265,0.01224,-0.01733,-0.78214
 13:39:09.930,eb:33:2e:f9:57:b5, 2085-97-34 00:94:00:2103,0.014,0.038,1.021,1.282,9.888,1.77,2.494,0.588,-102.7,-72.6,-14.1,-8.573,25.66,0.62265,0.01224,-0.01733,-0.78214
 13:39:09.930,eb:33:2e:f9:57:b5, 2085-97-11 00:92:00:2087,0.006,0.049,1.024,0.549,12.146,1.038,2.505,0.703,-102.678,-72.6,-14.1,-8.573,25.66,0.62265,0.01224,-0.01733,-0.78214
 13:39:09.960,eb:33:2e:f9:57:b5, 2085-97-05 00:101:00:2074,-0.005,0.051,1.02,0.122,13.855,0.183,2.51,0.835,-102.667,-72.6,-14.1,-8.573,25.66,0.62265,0.01224,-0.01733,-0.78214
 13:39:09.960,eb:33:2e:f9:57:b5, 2085-97-249 255:98:00:2065,-0.012,0.043,1.015,0.061,15.442,-0.671,2.51,0.983,-102.662,-72.6,-14.1,-8.573,25.66,0.62265,0.01224,-0.01733,-0.78214
 13:39:09.960,eb:33:2e:f9:57:b5, 2085-97-199 255:83:00:2032,-0.03,0.045,1.003,0,17.029,-1.77,2.51,1.148,-102.667,-72.6,-14.1,-8.573,25.66,0.62265,0.01224,-0.01733,-0.78214
 13:39:09.960,eb:33:2e:f9:57:b5, 2085-97-192 255:70:00:2045,-0.029,0.036,0.996,0.488,16.602,-2.258,2.516,1.318,-102.684,-72.6,-14.1,-8.573,25.66,0.62265,0.01224,-0.01733,-0.78214
 13:39:10.020,eb:33:2e:f9:57:b5, 2085-97-219 255:69:00:2101,-0.033,0.032,1.011,0.916,17.151,-2.38,2.521,1.489,-102.7,-72.6,-14.1,-8.573,25.66,0.62265,0.01224,-0.01733,-0.78214
 13:39:10.020,eb:33:2e:f9:57:b5, 2085-97-211 255:92:00:2071,-0.028,0.042,0.995,1.648,17.883,-3.052,2.538,1.67,-102.717,-72.6,-14.1,-8.573,25.66,0.62265,0.01224,-0.01733,-0.78214
 13:39:10.020,eb:33:2e:f9:57:b5, 2085-97-187 255:101:00:2029,-0.039,0.039,1.013,1.709,19.714,-3.845,2.554,1.862,-102.744,-72.6,-14.1,-8.573,25.66,0.62265,0.01224,-0.01733,-0.78214
 13:39:10.020,eb:33:2e:f9:57:b5, 2085-97-192 255:115:00:2046,-0.029,0.041,0.996,2.441,19.409,-4.761,2.576,2.06,-102.777,-72.6,-14.1,-8.573,25.66,0.62265,0.01224,-0.01733,-0.78214
 13:39:10.050,eb:33:2e:f9:57:b5, 2085-97-185 255:88:00:2084,-0.031,0.043,1.021,2.93,20.63,-6.042,2.604,2.263,-102.827,-72.6,-14.1,-8.573,25.66,0.62265,0.01224,-0.01733,-0.78214
 13:39:10.050,eb:33:2e:f9:57:b5, 2085-97-217 255:79:00:2163,-0.032,0.034,1.048,2.808,23.499,-6.348,2.631,2.483,-102.881,-72.6,-14.1,-8.573,25.66,0.62265,0.01224,-0.01733,-0.78214
 13:39:10.050,eb:33:2e:f9:57:b5, 2085-97-210 255:54:00:2210,-0.032,0.035,1.063,2.38,28.442,-6.409,2.653,2.752,-102.931,-72.6,-14.1,-8.573,25.66,0.62265,0.01224,-0.01733,-0.78214
 13:39:10.050,eb:33:2e:f9:57:b5, 2085-97-162 255:77:00:2107,-0.051,0.041,1.039,2.38,33.264,-6.104,2.675,3.071,-102.98,-72.6,-14.1,-8.573,25.66,0.62265,0.01224,-0.01733,-0.78214
 13:39:10.080,eb:33:2e:f9:57:b5, 2085-97-134 255:53:00:2128,-0.072,0.032,1.034,3.418,34.546,-5.92,2.697,3.417,-103.024,-72.1,-15.4,-13,25.66,0.62265,0.01224,-0.01733,-0.78214
 13:39:10.080,eb:33:2e:f9:57:b5, 2085-97-72 255:18:00:2088,-0.071,0.015,1.031,6.531,33.63,-5.432,2.752,3.757,-103.063,-72.1,-15.4,-13,25.66,0.62265,0.01224,-0.01733,-0.78214
 13:39:10.080,eb:33:2e:f9:57:b5, 2085-97-132 255:71:00:2117,-0.062,0.024,1.031,8.728,32.043,-4.089,2.829,4.087,-103.096,-72.1,-15.4,-13,25.66,0.62265,0.01224,-0.01733,-0.78214
 13:39:10.080,eb:33:2e:f9:57:b5, 2085-97-123 255:21:00:2244,-0.073,0.022,1.068,11.536,31.982,-3.479,2.928,4.411,-103.112,-72.1,-15.4,-13,25.66,0.62265,0.01224,-0.01733,-0.78214
 13:39:10.140,eb:33:2e:f9:57:b5, 2085-97-109 255:02:00:2333,-0.063,0.015,1.097,17.334,31.189,-3.479,3.071,4.73,-103.134,-72.1,-15.4,-13,25.66,0.62265,0.01224,-0.01733,-0.78214
 13:39:10.140,eb:33:2e:f9:57:b5, 2085-97-63 255:214:255:2407,-0.102,-0.003,1.182,23.865,33.997,-3.357,3.285,5.054,-103.151,-72.1,-15.4,-13,25.66,0.62265,0.01224,-0.01733,-0.78214
 13:39:10.140,eb:33:2e:f9:57:b5, 2085-97-233 254:135:255:2484,-0.134,-0.004,1.153,33.081,32.776,-2.563,3.571,5.4,-103.151,-72.1,-15.4,-13,25.66,0.62265,0.01224,-0.01733,-0.78214
 13:39:10.140,eb:33:2e:f9:57:b5, 2085-97-198 254:117:255:2540,-0.168,-0.083,1.269,45.166,33.936,0.977,3.966,5.724,-103.145,-72.1,-15.4,-13,25.66,0.62265,0.01224,-0.01733,-0.78214
 13:39:10.170,eb:33:2e:f9:57:b5, 2085-97-223 254:163:255:2485,-0.151,-0.069,1.207,56.335,30.945,4.639,4.488,6.053,-103.09,-72.1,-15.4,-13,25.66,0.61945,0.05423,0.005,-0.78308
 13:39:10.170,eb:33:2e:f9:57:b5, 2085-97-225 254:145:255:2615,-0.131,-0.062,1.235,67.261,28.87,8.057,5.12,6.345,-102.997,-72.1,-15.4,-13,25.66,0.61945,0.05423,0.005,-0.78308
 13:39:10.170,eb:33:2e:f9:57:b5, 2085-97-248 254:158:255:2776,-0.087,-0.045,1.318,80.2,28.809,10.559,5.872,6.619,-102.876,-72.1,-15.4,-13,25.66,0.61945,0.05423,0.005,-0.78308
 13:39:10.170,eb:33:2e:f9:57:b5, 2085-97-59 255:143:255:3015,-0.066,-0.045,1.438,93.689,33.142,12.817,6.768,6.91,-102.717,-72.1,-15.4,-13,25.66,0.61945,0.05423,0.005,-0.78308
 13:39:10.230,eb:33:2e:f9:57:b5, 2085-97-217 255:220:255:3204,0.032,-0.047,1.516,108.398,40.649,13.916,7.806,7.262,-102.535,-72.1,-15.4,-13,25.66,0.61945,0.05423,0.005,-0.78308
 13:39:10.230,eb:33:2e:f9:57:b5, 2085-97-100 00:76:00:3214,0.061,0.004,1.577,124.023,52.917,13.123,9.003,7.712,-102.327,-72.1,-15.4,-13,25.66,0.61945,0.05423,0.005,-0.78308
 13:39:10.230,eb:33:2e:f9:57:b5, 2085-97-145 00:34:00:3471,0.076,0.015,1.646,139.709,66.101,10.559,10.36,8.278,-102.112,-72.1,-15.4,-13,25.66,0.61945,0.05423,0.005,-0.78308
 13:39:10.230,eb:33:2e:f9:57:b5, 2085-97-141 00:38:00:3574,0.12,-0.007,1.715,156.982,82.947,9.033,11.887,9.003,-101.871,-72.1,-15.4,-13,25.66,0.61945,0.05423,0.005,-0.78308
 13:39:10.259,eb:33:2e:f9:57:b5, 2085-97-141 01:49:00:3810,0.22,0.047,1.798,172.424,103.76,7.996,13.596,9.904,-101.574,-72.1,-15.4,-13,25.66,0.61945,0.05423,0.005,-0.78308
 13:39:10.259,eb:33:2e:f9:57:b5, 2085-97-62 02:05:01:4123,0.331,0.066,1.939,192.078,126.465,6.592,15.491,11.014,-101.206,-72.1,-15.4,-13,25.66,0.61945,0.05423,0.005,-0.78308
 13:39:10.259,eb:33:2e:f9:57:b5, 2085-97-25 03:130:01:4298,0.415,0.151,2.06,213.684,148.193,1.343,17.617,12.332,-100.761,-72.1,-15.4,-13,25.66,0.61945,0.05423,0.005,-0.78308
 13:39:10.259,eb:33:2e:f9:57:b5, 2085-97-230 03:197:00:4568,0.486,0.162,2.156,242.188,163.452,-12.695,20.006,13.832,-100.3,-72.1,-15.4,-13,25.66,0.61945,0.05423,0.005,-0.78308
 13:39:10.289,eb:33:2e:f9:57:b5, 2085-97-184 03:219:255:4836,0.427,0.057,2.265,271.179,188.232,-27.771,22.709,15.557,-99.844,-72.1,-15.4,-13,25.66,0.61945,0.05423,0.005,-0.78308
 13:39:10.289,eb:33:2e:f9:57:b5, 2085-97-211 02:225:255:5282,0.4,-0.024,2.45,296.631,217.285,-44.006,25.714,17.573,-99.316,-72.1,-15.4,-13,25.66,0.61945,0.05423,0.005,-0.78308
 13:39:10.289,eb:33:2e:f9:57:b5, 2085-97-96 02:65:01:5696,0.201,0.01,2.604,327.698,240.295,-57.312,29.053,19.858,-98.668,-72.1,-15.4,-13,25.66,0.61945,0.05423,0.005,-0.78308
 13:39:10.289,eb:33:2e:f9:57:b5, 2085-113-64 00:25:10:000,0.328,0.121,3.124,350.098,253.052,-74.951,32.712,22.308,-97.938,-72.1,-15.4,-13,25.66,0.61945,0.05423,0.005,-0.78308
 13:39:10.289,eb:33:2e:f9:57:b5, 2085-97-70 02:129:00:5711,0.43,-0.023,3.25,356.506,272.583,-75.134,34.667,23.621,-97.482,-72.1,-15.4,-13,25.66,0.61945,0.05423,0.005,-0.78308
 13:39:10.350,eb:33:2e:f9:57:b5, 2085-97-222 02:22:00:5142,0.338,0.048,2.795,358.154,286.56,-83.191,38.727,26.329,-96.361,-72.1,-15.4,-13,25.85,0.61945,0.05423,0.005,-0.78308
 13:39:10.350,eb:33:2e:f9:57:b5, 2085-97-77 02:56:02:5185,0.374,0.125,2.422,360.962,282.288,-93.933,42.951,29.086,-94.977,-72.1,-15.4,-13,25.85,0.61945,0.05423,0.005,-0.78308
 13:39:10.350,eb:33:2e:f9:57:b5, 2085-97-142 03:130:255:3955,0.644,-0.036,2.453,353.638,275.574,-104.248,47.274,31.772,-93.538,-72.1,-15.4,-13,25.85,0.61945,0.05423,0.005,-0.78308
 13:39:10.350,eb:33:2e:f9:57:b5, 2085-97-160 07:05:253:2202,1.143,-0.165,1.473,324.402,246.704,-107.727,51.515,34.266,-91.972,-72.1,-15.4,-13,25.85,0.61945,0.05423,0.005,-0.78308
 13:39:10.380,eb:33:2e:f9:57:b5, 2085-97-05 09:128:248:1534,1.536,-0.643,0.922,279.541,219.238,-112.366,55.333,36.53,-90.511,-72.1,-15.4,-13,25.85,0.61945,0.05423,0.005,-0.78308
 13:39:10.380,eb:33:2e:f9:57:b5, 2085-97-179 05:112:00:-2622,0.09,-1.149,0.312,269.348,210.876,-108.765,58.931,38.589,-89.077,-72.1,-15.4,-13,25.85,0.61945,0.05423,0.005,-0.78308
 13:39:10.380,eb:33:2e:f9:57:b5, 2085-97-104 03:77:02:-3566,0.725,0.709,-2.422,190.613,47.119,-170.349,61.765,40.507,-88.44,-72.1,-15.4,-13,25.85,0.61945,0.05423,0.005,-0.78308
 13:39:10.380,eb:33:2e:f9:57:b5, 2085-97-147 05:250:250:-781,0.586,-0.203,-0.869,77.515,-109.436,-186.157,61.864,41.874,-90.176,-72.1,-15.4,-13,25.85,0.61945,0.05423,0.005,-0.78308
 13:39:10.409,eb:33:2e:f9:57:b5, 2085-97-88 04:181:248:320,0.521,-0.854,-0.09,3.113,-177.917,-170.288,60.189,42.715,-93.148,-72.1,-15.4,-13,25.85,0.61945,0.05423,0.005,-0.78308
 13:39:10.409,eb:33:2e:f9:57:b5, 2085-97-252 03:224:248:1470,0.471,-0.918,0.455,-40.527,-189.636,-141.235,57.695,43.061,-96.454,-72.1,-15.4,-13,25.85,0.61945,0.05423,0.005,-0.78308
 13:39:10.409,eb:33:2e:f9:57:b5, 2085-97-165 03:67:249:2004,0.425,-0.862,0.9,-58.228,-165.71,-109.375,55.151,43.105,-99.421,-72.1,-15.4,-13,25.85,0.61945,0.05423,0.005,-0.78308
 13:39:10.409,eb:33:2e:f9:57:b5, 2085-97-47 03:224:249:1454,0.375,-0.809,0.898,-68.97,-134.46,-78.43,52.872,42.973,-101.81,-72.1,-15.4,-13,25.85,0.61945,0.05423,0.005,-0.78308
 13:39:10.469,eb:33:2e:f9:57:b5, 2085-97-217 02:99:250:492,0.358,-0.731,0.475,-86.365,-115.723,-47.852,50.845,42.698,-103.645,-72.1,-15.4,-13,25.85,0.61945,0.05423,0.005,-0.78308
 13:39:10.469,eb:33:2e:f9:57:b5, 2085-97-248 02:210:250:-186,0.389,-0.672,0.05,-113.22,-118.835,-18.555,48.829,42.188,-105.128,-72.1,-15.4,-13,25.85,0.61945,0.05423,0.005,-0.78308
 13:39:10.469,eb:33:2e:f9:57:b5, 2085-97-73 03:215:250:-347,0.436,-0.638,-0.168,-146.24,-143.066,7.385,46.626,41.336,-106.463,-72.1,-15.4,-13,25.85,0.61945,0.05423,0.005,-0.78308
 13:39:10.470,eb:33:2e:f9:57:b5, 2085-97-202 03:206:250:-021,0.506,-0.654,-0.115,-174.744,-175.903,29.724,44.121,40.051,-107.798,-72.1,-15.4,-13,25.85,0.61945,0.05423,0.005,-0.78308
 13:39:10.499,eb:33:2e:f9:57:b5, 2085-97-47 04:78:251:552,0.515,-0.628,0.141,-191.956,-207.825,47.791,41.435,38.359,-109.116,-72.1,-15.4,-13,25.85,0.61945,0.05423,0.005,-0.78308
 13:39:10.499,eb:33:2e:f9:57:b5, 2085-97-23 04:89:252:855,0.492,-0.53,0.351,-194.519,-229.858,55.908,38.705,36.321,-110.396,-72.1,-15.4,-13,25.85,0.61945,0.05423,0.005,-0.78308
 13:39:10.499,eb:33:2e:f9:57:b5, 2085-97-203 03:74:253:1048,0.456,-0.396,0.463,-193.237,-249.207,55.847,36.052,34.063,-111.632,-72.1,-15.4,-13,25.85,0.61945,0.05423,0.005,-0.78308
 13:39:10.499,eb:33:2e:f9:57:b5, 2085-97-124 03:252:253:1379,0.42,-0.292,0.58,-192.505,-265.076,48.95,33.437,31.624,-112.879,-72.1,-15.4,-13,25.85,0.61945,0.05423,0.005,-0.78308
 13:39:10.529,eb:33:2e:f9:57:b5, 2085-97-49 03:167:254:1884,0.35,-0.216,0.798,-193.604,-272.461,38.086,30.883,29.108,-114.12,-53.6,-45.8,-13.06,25.85,0.61945,0.05423,0.005,-0.78308
 13:39:10.529,eb:33:2e:f9:57:b5, 2085-97-125 02:78:255:2213,0.261,-0.122,1,-197.021,-271.667,23.376,28.345,26.576,-115.351,-53.6,-45.8,-13.06,25.85,0.61945,0.05423,0.005,-0.78308
 13:39:10.529,eb:33:2e:f9:57:b5, 2085-97-201 01:54:255:2460,0.184,-0.078,1.146,-203.674,-267.334,6.409,25.818,24.109,-116.57,-53.6,-45.8,-13.06,25.85,0.61945,0.05423,0.005,-0.78308
 13:39:10.529,eb:33:2e:f9:57:b5, 2085-97-42 01:84:254:2663,0.101,-0.146,1.25,-213.196,-259.827,-7.507,23.247,21.709,-117.779,-53.6,-45.8,-13.06,25.85,0.61945,0.05423,0.005,-0.78308
 13:39:10.620,eb:33:2e:f9:57:b5, 2085-97-122 00:90:253:2887,0.023,-0.276,1.353,-222.778,-251.526,-14.16,20.66,19.385,-118.916,-53.6,-45.8,-13.06,25.85,0.61945,0.05423,0.005,-0.78308
 13:39:10.620,eb:33:2e:f9:57:b5, 2085-97-236 255:236:252:3156,-0.032,-0.372,1.481,-229.553,-242.31,-12.756,18.062,17.084,-119.921,-53.6,-45.8,-13.06,25.85,0.61945,0.05423,0.005,-0.78308
 13:39:10.620,eb:33:2e:f9:57:b5, 2085-97-167 255:129:253:3353,-0.051,-0.359,1.593,-229.919,-233.704,-7.141,15.535,14.843,-120.734,-53.6,-45.8,-13.06,25.85,0.61945,0.05423,0.005,-0.78308
 13:39:10.621,eb:33:2e:f9:57:b5, 2085-97-161 255:125:254:3456,-0.027,-0.253,1.662,-225.159,-231.262,-1.526,13.096,12.59,-121.366,-53.6,-45.8,-13.06,25.85,0.61945,0.05423,0.005,-0.78308
 13:39:10.622,eb:33:2e:f9:57:b5, 2085-97-13 00:117:255:3781,0.042,-0.125,1.746,-217.712,-237.549,0.854,10.783,10.294,-121.855,-53.6,-45.8,-13.06,25.85,0.61945,0.05423,0.005,-0.78308
 13:39:10.622,eb:33:2e:f9:57:b5, 2085-97-116 00:28:00:4284,0.031,-0.022,1.973,-207.153,-243.835,-0.549,8.58,7.899,-122.267,-53.6,-45.8,-13.06,25.85,0.61945,0.05423,0.005,-0.78308
 13:39:10.622,eb:33:2e:f9:57:b5, 2085-97-219 255:195:00:4622,-0.086,0.048,2.182,-191.101,-249.268,-3.906,6.553,5.455,-122.613,-53.6,-45.8,-13.06,25.85,0.61945,0.05423,0.005,-0.78308
 13:39:10.623,eb:33:2e:f9:57:b5, 2085-97-184 254:180:01:4846,-0.235,0.154,2.319,-177.734,-254.944,-5.371,4.686,2.928,-122.915,-53.6,-45.8,-13.06,25.85,0.4696,0.19107,-0.0571,-0.85999
 13:39:10.650,eb:33:2e:f9:57:b5, 2085-97-145 253:156:02:4962,-0.382,0.276,2.395,-177.307,-257.874,-3.174,2.917,0.368,-123.129,-53.6,-45.8,-13.06,25.85,0.4696,0.19107,-0.0571,-0.85999
 13:39:10.650,eb:33:2e:f9:57:b5, 2085-97-88 252:162:02:5221,-0.566,0.346,2.485,-183.411,-252.686,5.249,1.093,-2.208,-123.212,-53.6,-45.8,-13.06,25.85,0.4696,0.19107,-0.0571,-0.85999
 13:39:10.650,eb:33:2e:f9:57:b5, 2085-97-99 250:116:02:5030,-0.832,0.308,2.55,-180.908,-240.173,20.569,-0.736,-4.664,-123.085,-53.6,-45.8,-13.06,25.85,0.4696,0.19107,-0.0571,-0.85999
 13:39:10.650,eb:33:2e:f9:57:b5, 2085-97-80 248:182:02:4353,-1.059,0.326,2.295,-173.523,-239.624,40.527,-2.56,-7.053,-122.701,-53.6,-45.8,-13.06,25.85,0.4696,0.19107,-0.0571,-0.85999
 13:39:10.710,eb:33:2e:f9:57:b5, 2085-97-254 246:153:02:4228,-1.165,0.338,2.044,-175.232,-250.793,61.279,-4.389,-9.476,-122.025,-53.6,-45.8,-13.06,25.85,0.4696,0.19107,-0.0571,-0.85999
 13:39:10.710,eb:33:2e:f9:57:b5, 2085-97-159 246:224:02:4715,-1.164,0.322,2.177,-185.73,-243.53,84.839,-6.394,-11.909,-121.036,-53.6,-45.8,-13.06,25.85,0.4696,0.19107,-0.0571,-0.85999
 13:39:10.710,eb:33:2e:f9:57:b5, 2085-97-199 246:157:06:4661,-1.113,0.54,2.334,-194.092,-203.064,107.788,-8.597,-13.991,-119.745,-53.6,-45.8,-13.06,25.85,0.4696,0.19107,-0.0571,-0.85999
 13:39:10.710,eb:33:2e:f9:57:b5, 2085-97-213 246:188:11:4021,-1.266,1.15,2.175,-186.584,-160.156,118.042,-10.909,-15.573,-118.257,-53.6,-45.8,-13.06,25.85,0.4696,0.19107,-0.0571,-0.85999
 13:39:10.740,eb:33:2e:f9:57:b5, 2085-97-242 243:103:16:2711,-1.871,1.776,1.675,-152.222,-143.86,111.755,-13.024,-16.782,-116.757,-53.6,-45.8,-13.06,25.85,0.4696,0.19107,-0.0571,-0.85999
 13:39:10.740,eb:33:2e:f9:57:b5, 2085-97-236 238:38:18:2033,-2.238,2.177,1.001,-96.863,-165.222,100.525,-14.705,-18.023,-115.296,-53.6,-45.8,-13.06,25.85,0.4696,0.19107,-0.0571,-0.85999
 13:39:10.740,eb:33:2e:f9:57:b5, 2085-97-193 237:196:20:3479,-2.272,2.444,1.286,-38.574,-168.579,97.046,-15.815,-19.424,-113.818,-53.6,-45.8,-13.06,25.85,0.4696,0.19107,-0.0571,-0.85999
 13:39:10.740,eb:33:2e:f9:57:b5, 2085-97-215 238:110:18:4658,-1.927,2.56,2.072,14.16,-108.032,94.299,-16.397,-20.506,-112.423,-53.6,-45.8,-13.06,25.85,0.4696,0.19107,-0.0571,-0.85999
 13:39:10.799,eb:33:2e:f9:57:b5, 2085-97-246 241:83:13:3872,-1.645,1.961,2.185,61.646,-18.066,92.773,-16.381,-20.797,-111.292,-53.6,-45.8,-13.06,25.85,0.4696,0.19107,-0.0571,-0.85999
 13:39:10.799,eb:33:2e:f9:57:b5, 2085-97-195 243:161:09:2669,-0.907,1.417,1.567,86.975,35.706,87.83,-15.919,-20.396,-110.407,-53.6,-45.8,-13.06,25.85,0.4696,0.19107,-0.0571,-0.85999
 13:39:10.799,eb:33:2e:f9:57:b5, 2085-97-198 226:216:11:-737,0.812,0.241,8.965,162.231,285.217,91.003,-14.837,-19.611,-109.847,-53.6,-45.8,-13.06,25.85,0.4696,0.19107,-0.0571,-0.85999
 13:39:10.799,eb:33:2e:f9:57:b5, 2085-97-12 08:80:251:1181,0.105,0.597,1.188,180.42,235.779,48.035,-13.118,-17.243,-109.715,-53.6,-45.8,-13.06,25.85,0.4696,0.19107,-0.0571,-0.85999
 13:39:10.829,eb:33:2e:f9:57:b5, 2085-97-148 00:105:00:2490,0.563,0.236,0.965,182.739,252.38,30.945,-11.223,-14.782,-109.83,-53.6,-45.8,-13.06,25.85,0.4696,0.19107,-0.0571,-0.85999
 13:39:10.829,eb:33:2e:f9:57:b5, 2085-97-58 00:124:252:2259,-0.096,-0.346,1.096,177.185,240.967,-5.066,-9.388,-12.316,-110.143,-53.6,-45.8,-13.06,25.85,0.4696,0.19107,-0.0571,-0.85999
 13:39:10.829,eb:33:2e:f9:57:b5, 2085-97-108 253:129:253:1997,-0.263,-0.436,1.042,196.289,200.867,-39.49,-7.405,-10.157,-110.737,-53.6,-45.8,-13.06,25.85,0.4696,0.19107,-0.0571,-0.85999
 13:39:10.829,eb:33:2e:f9:57:b5, 2085-97-171 253:02:00:2036,-0.336,-0.052,1.081,202.698,169.128,-37.354,-5.268,-8.443,-111.335,-53.6,-45.8,-13.06,25.85,0.4696,0.19107,-0.0571,-0.85999
 13:39:10.859,eb:33:2e:f9:57:b5, 2085-97-231 253:157:01:2533,-0.357,0.174,1.151,181.519,161.133,-29.846,-3.274,-6.828,-111.775,-51.4,-32.2,2.6,25.85,0.4696,0.19107,-0.0571,-0.85999
 13:39:10.859,eb:33:2e:f9:57:b5, 2085-97-38 255:44:02:2181,-0.093,0.262,1.1,144.897,142.761,-31.555,-1.62,-5.301,-112.132,-51.4,-32.2,2.6,25.85,0.4696,0.19107,-0.0571,-0.85999
 13:39:10.859,eb:33:2e:f9:57:b5, 2085-97-43 254:77:02:2272,-0.128,0.139,1.06,114.746,122.131,-24.78,-0.308,-4.005,-112.473,-51.4,-32.2,2.6,25.85,0.4696,0.19107,-0.0571,-0.85999
 13:39:10.859,eb:33:2e:f9:57:b5, 2085-97-124 255:82:04:1965,-0.181,0.553,0.988,57.678,87.769,-13.428,0.566,-2.95,-112.67,-51.4,-32.2,2.6,25.85,0.4696,0.19107,-0.0571,-0.85999
 13:39:10.890,eb:33:2e:f9:57:b5, 2085-97-253 253:03:01:1730,-0.178,0.285,0.902,23.01,51.27,0.549,0.934,-2.291,-112.709,-51.4,-32.2,2.6,25.85,0.4696,0.19107,-0.0571,-0.85999
 13:39:10.890,eb:33:2e:f9:57:b5, 2085-97-116 255:37:00:1965,-0.138,-0.013,0.896,19.165,33.447,3.845,1.121,-1.89,-112.67,-51.4,-32.2,2.6,25.85,0.4696,0.19107,-0.0571,-0.85999
 13:39:10.890,eb:33:2e:f9:57:b5, 2085-97-41 255:99:01:1902,-0.137,0.037,0.887,19.165,24.963,2.686,1.318,-1.577,-112.637,-51.4,-32.2,2.6,25.85,0.4696,0.19107,-0.0571,-0.85999
 13:39:10.890,eb:33:2e:f9:57:b5, 2085-97-75 255:234:00:1891,-0.098,0.195,0.88,7.141,13.306,4.272,1.439,-1.368,-112.577,-51.4,-32.2,2.6,25.85,0.4696,0.19107,-0.0571,-0.85999
 13:39:10.949,eb:33:2e:f9:57:b5, 2085-97-187 255:40:00:2004,-0.037,0.019,0.933,5.676,6.531,-0.244,1.494,-1.269,-112.566,-51.4,-32.2,2.6,25.85,0.55478,-0.00378,-0.01721,-0.83176
 13:39:10.949,eb:33:2e:f9:57:b5, 2085-97-159 255:65:00:1999,-0.033,0.041,0.977,5.188,3.845,-0.793,1.555,-1.214,-112.571,-51.4,-32.2,2.6,25.85,0.55478,-0.00378,-0.01721,-0.83176
 13:39:10.949,eb:33:2e:f9:57:b5, 2085-97-247 255:32:00:2088,0.024,0.02,0.99,5.432,2.686,-0.977,1.604,-1.181,-112.577,-51.4,-32.2,2.6,25.85,0.55478,-0.00378,-0.01721,-0.83176
 13:39:10.949,eb:33:2e:f9:57:b5, 2085-97-73 00:41:00:2153,0.011,0.005,1.046,6.958,6.104,0.366,1.67,-1.137,-112.582,-51.4,-32.2,2.6,25.85,0.55478,-0.00378,-0.01721,-0.83176
 13:39:10.979,eb:33:2e:f9:57:b5, 2085-97-241 255:82:00:2067,-0.017,0.034,1.028,7.568,8.362,1.465,1.747,-1.055,-112.566,-51.4,-32.2,2.6,25.85,0.55478,-0.00378,-0.01721,-0.83176
 13:39:10.979,eb:33:2e:f9:57:b5, 2085-97-203 255:70:00:2035,-0.019,0.04,1,6.836,7.751,1.77,1.818,-0.972,-112.549,-51.4,-32.2,2.6,25.85,0.55478,-0.00378,-0.01721,-0.83176
 13:39:10.979,eb:33:2e:f9:57:b5, 2085-97-227 255:81:00:2058,-0.021,0.037,0.999,6.165,6.714,2.014,1.884,-0.901,-112.527,-51.4,-32.2,2.6,25.85,0.55478,-0.00378,-0.01721,-0.83176
 13:39:10.979,eb:33:2e:f9:57:b5, 2085-97-225 255:59:00:2073,-0.009,0.031,1.004,5.249,6.348,2.441,1.945,-0.829,-112.5,-51.4,-32.2,2.6,25.85,0.55478,-0.00378,-0.01721,-0.83176
 13:39:11.009,eb:33:2e:f9:57:b5, 2085-97-15 00:61:00:2119,0.014,0.025,1.021,4.7,6.775,3.235,1.994,-0.764,-112.467,-51.4,-32.2,2.6,25.85,0.55478,-0.00378,-0.01721,-0.83176
 13:39:11.009,eb:33:2e:f9:57:b5, 2085-97-14 00:80:00:2102,-0.007,0.035,1.038,3.906,9.155,4.517,2.038,-0.681,-112.429,-51.4,-32.2,2.6,25.85,0.55478,-0.00378,-0.01721,-0.83176
 13:39:11.009,eb:33:2e:f9:57:b5, 2085-97-227 255:82:00:2041,-0.012,0.042,1.011,2.075,11.475,5.554,2.065,-0.577,-112.374,-51.4,-32.2,2.6,25.85,0.55478,-0.00378,-0.01721,-0.83176
 13:39:11.009,eb:33:2e:f9:57:b5, 2085-97-247 255:77:00:2050,0,0.041,0.998,0.488,12.756,6.226,2.082,-0.45,-112.308,-51.4,-32.2,2.6,25.85,0.55478,-0.00378,-0.01721,-0.83176
 13:39:11.069,eb:33:2e:f9:57:b5, 2085-97-240 255:64:00:2043,-0.019,0.036,1.005,-1.16,14.893,6.714,2.076,-0.313,-112.242,-51.4,-32.2,2.6,25.85,0.55478,-0.00378,-0.01721,-0.83176
 13:39:11.069,eb:33:2e:f9:57:b5, 2085-97-209 255:57:00:2038,-0.006,0.02,1.001,-2.502,15.991,7.568,2.06,-0.154,-112.165,-51.4,-32.2,2.6,25.85,0.55478,-0.00378,-0.01721,-0.83176
 13:39:11.069,eb:33:2e:f9:57:b5, 2085-97-216 255:53:00:2037,-0.004,0.026,1.011,-1.831,14.709,7.263,2.038,-0.011,-112.088,-51.4,-32.2,2.6,25.85,0.55478,-0.00378,-0.01721,-0.83176
 13:39:11.069,eb:33:2e:f9:57:b5, 2085-97-09 00:103:00:2066,0.012,0.044,0.999,-1.648,13.367,7.202,2.021,0.126,-112.006,-51.4,-32.2,2.6,25.85,0.55478,-0.00378,-0.01721,-0.83176
 13:39:11.101,eb:33:2e:f9:57:b5, 2085-97-244 255:76:00:2050,-0.016,0.049,1.018,0,13.428,4.456,2.016,0.253,-111.94,-51.4,-32.2,2.6,25.85,0.55478,-0.00378,-0.01721,-0.83176
 13:39:11.101,eb:33:2e:f9:57:b5, 2085-97-240 255:76:00:2074,-0.016,0.029,1.008,1.16,13.245,3.296,2.021,0.396,-111.901,-51.4,-32.2,2.6,25.85,0.55478,-0.00378,-0.01721,-0.83176
 13:39:11.101,eb:33:2e:f9:57:b5, 2085-97-04 00:103:00:2083,0.002,0.029,1.011,2.686,12.573,2.197,2.043,0.527,-111.868,-51.4,-32.2,2.6,25.85,0.55478,-0.00378,-0.01721,-0.83176
 13:39:11.101,eb:33:2e:f9:57:b5, 2085-113-58 00:91:225:-5370,-0.02,0.045,1.024,2.441,14.709,1.038,2.071,0.665,-111.846,-51.4,-32.2,2.6,25.85,0.55478,-0.00378,-0.01721,-0.83176
 13:39:11.129,eb:33:2e:f9:57:b5, 2085-97-224 255:68:00:2089,-0.032,0.04,1,2.625,14.526,0.916,2.087,0.742,-111.841,-52.3,-35.8,-0.927,25.85,0.55478,-0.00378,-0.01721,-0.83176
 13:39:11.130,eb:33:2e:f9:57:b5, 2085-97-186 255:78:00:2039,-0.02,0.035,0.997,4.272,13.855,0,2.126,0.89,-111.83,-52.3,-35.8,-0.927,25.85,0.55478,-0.00378,-0.01721,-0.83176
 13:39:11.130,eb:33:2e:f9:57:b5, 2085-97-242 255:107:00:2075,-0.021,0.045,1.005,6.287,11.292,-1.282,2.181,1.011,-111.835,-52.3,-35.8,-0.927,25.85,0.55478,-0.00378,-0.01721,-0.83176
 13:39:11.130,eb:33:2e:f9:57:b5, 2085-97-219 255:116:00:2045,-0.016,0.058,0.988,6.409,12.146,-2.502,2.247,1.137,-111.852,-52.3,-35.8,-0.927,25.85,0.55478,-0.00378,-0.01721,-0.83176
 13:39:11.189,eb:33:2e:f9:57:b5, 2085-97-219 255:116:00:2064,-0.021,0.056,1.01,6.531,13.367,-4.028,2.307,1.269,-111.879,-52.3,-35.8,-0.927,25.85,0.55478,-0.00378,-0.01721,-0.83176
 13:39:11.189,eb:33:2e:f9:57:b5, 2085-97-215 255:111:00:2075,-0.011,0.049,1.017,6.897,14.648,-5.432,2.379,1.412,-111.923,-52.3,-35.8,-0.927,25.85,0.55478,-0.00378,-0.01721,-0.83176
 13:39:11.189,eb:33:2e:f9:57:b5, 2085-97-180 255:84:00:2052,-0.043,0.047,1.037,6.775,17.7,-6.104,2.45,1.577,-111.973,-52.3,-35.8,-0.927,25.85,0.55478,-0.00378,-0.01721,-0.83176
 13:39:11.189,eb:33:2e:f9:57:b5, 2085-97-172 255:90:00:2060,-0.046,0.046,0.998,6.836,18.311,-6.531,2.516,1.763,-112.028,-52.3,-35.8,-0.927,25.85,0.55478,-0.00378,-0.01721,-0.83176
 13:39:11.220,eb:33:2e:f9:57:b5, 2085-97-162 255:92:00:2082,-0.042,0.039,1.017,6.592,20.02,-6.775,2.582,1.961,-112.088,-52.3,-35.8,-0.927,25.85,0.55914,0.02258,-0.01016,-0.82864
 13:39:11.220,eb:33:2e:f9:57:b5, 2085-97-157 255:70:00:2118,-0.046,0.038,1.038,5.92,22.766,-7.385,2.648,2.181,-112.148,-52.3,-35.8,-0.927,25.85,0.55914,0.02258,-0.01016,-0.82864
 13:39:11.220,eb:33:2e:f9:57:b5, 2085-97-155 255:109:00:2047,-0.064,0.049,1.013,6.042,24.719,-7.69,2.703,2.428,-112.214,-52.3,-35.8,-0.927,25.85,0.55914,0.02258,-0.01016,-0.82864
 13:39:11.220,eb:33:2e:f9:57:b5, 2085-97-117 255:91:00:2033,-0.073,0.048,0.987,5.371,25.635,-7.935,2.763,2.692,-112.28,-52.3,-35.8,-0.927,25.85,0.55914,0.02258,-0.01016,-0.82864
 13:39:11.249,eb:33:2e:f9:57:b5, 2085-97-88 255:58:00:2063,-0.077,0.038,0.999,5.798,25.33,-7.69,2.812,2.95,-112.346,-52.3,-35.8,-0.927,25.85,0.55914,0.02258,-0.01016,-0.82864
 13:39:11.249,eb:33:2e:f9:57:b5, 2085-97-125 255:89:00:2095,-0.056,0.035,1.013,6.775,24.841,-6.775,2.878,3.208,-112.407,-52.3,-35.8,-0.927,25.85,0.55914,0.02258,-0.01016,-0.82864
 13:39:11.249,eb:33:2e:f9:57:b5, 2085-97-148 255:85:00:2161,-0.058,0.044,1.041,7.507,26.184,-6.714,2.944,3.466,-112.462,-52.3,-35.8,-0.927,25.85,0.55914,0.02258,-0.01016,-0.82864
 13:39:11.249,eb:33:2e:f9:57:b5, 2085-97-131 255:55:00:2210,-0.06,0.038,1.059,9.277,27.832,-6.287,3.027,3.746,-112.511,-52.3,-35.8,-0.927,25.85,0.55914,0.02258,-0.01016,-0.82864
 13:39:11.310,eb:33:2e:f9:57:b5, 2085-97-156 255:122:00:2155,-0.045,0.043,1.066,12.695,28.687,-6.165,3.137,4.032,-112.555,-52.3,-35.8,-0.927,25.85,0.55914,0.02258,-0.01016,-0.82864
 13:39:11.310,eb:33:2e:f9:57:b5, 2085-97-133 255:37:00:2353,-0.083,0.045,1.095,17.639,27.893,-7.385,3.285,4.323,-112.61,-52.3,-35.8,-0.927,25.85,0.55914,0.02258,-0.01016,-0.82864
 13:39:11.310,eb:33:2e:f9:57:b5, 2085-97-165 254:111:255:2444,-0.175,0.014,1.14,24.78,29.602,-7.629,3.499,4.614,-112.665,-52.3,-35.8,-0.927,25.85,0.55914,0.02258,-0.01016,-0.82864
 13:39:11.310,eb:33:2e:f9:57:b5, 2085-97-223 254:140:255:2480,-0.146,-0.092,1.233,35.767,28.503,-4.15,3.801,4.916,-112.709,-52.3,-35.8,-0.927,25.85,0.55914,0.02258,-0.01016,-0.82864
 13:39:11.340,eb:33:2e:f9:57:b5, 2085-97-19 255:224:255:2465,-0.088,-0.041,1.182,45.654,26.672,-1.343,4.213,5.197,-112.72,-52.3,-35.8,-0.927,25.85,0.55914,0.02258,-0.01016,-0.82864
 13:39:11.340,eb:33:2e:f9:57:b5, 2085-97-22 255:173:255:2568,-0.146,-0.005,1.236,53.772,28.198,0.61,4.719,5.471,-112.698,-52.3,-35.8,-0.927,25.85,0.55914,0.02258,-0.01016,-0.82864
 13:39:11.340,eb:33:2e:f9:57:b5, 2085-97-180 254:129:255:2567,-0.168,-0.054,1.257,65.247,29.724,3.967,5.323,5.762,-112.648,-52.3,-35.8,-0.927,25.85,0.55914,0.02258,-0.01016,-0.82864
 13:39:11.340,eb:33:2e:f9:57:b5, 2085-97-176 254:100:255:2727,-0.156,-0.069,1.28,77.576,28.198,7.507,6.053,6.048,-112.56,-52.3,-35.8,-0.927,25.85,0.55914,0.02258,-0.01016,-0.82864
 13:39:11.370,eb:33:2e:f9:57:b5, 2085-97-252 254:171:255:2800,-0.098,-0.07,1.363,91.064,29.358,11.658,6.921,6.323,-112.429,-52.3,-35.8,-0.927,25.85,0.55914,0.02258,-0.01016,-0.82864
 13:39:11.370,eb:33:2e:f9:57:b5, 2085-97-120 255:242:255:2916,-0.04,-0.031,1.38,104.37,32.288,13.916,7.921,6.619,-112.258,-52.3,-35.8,-0.927,25.85,0.55914,0.02258,-0.01016,-0.82864
 13:39:11.370,eb:33:2e:f9:57:b5, 2085-97-210 255:54:00:3024,-0.021,0.009,1.463,118.53,39.001,14.038,9.069,6.949,-112.061,-52.3,-35.8,-0.927,25.85,0.55914,0.02258,-0.01016,-0.82864
 13:39:11.370,eb:33:2e:f9:57:b5, 2085-97-33 00:116:00:3196,0.078,0.011,1.504,131.958,49.133,14.343,10.355,7.366,-111.846,-52.3,-35.8,-0.927,25.85,0.55914,0.02258,-0.01016,-0.82864
 13:39:11.429,eb:33:2e:f9:57:b5, 2085-97-164 00:151:00:3246,0.107,0.067,1.56,145.325,63.904,12.451,11.783,7.899,-111.599,-52.3,-35.8,-0.927,25.85,0.55914,0.02258,-0.01016,-0.82864
 13:39:11.429,eb:33:2e:f9:57:b5, 2085-97-245 00:138:00:3509,0.167,0.104,1.668,158.875,81.299,8.545,13.343,8.597,-111.335,-52.3,-35.8,-0.927,25.85,0.55914,0.02258,-0.01016,-0.82864
 13:39:11.429,eb:33:2e:f9:57:b5, 2085-97-73 01:221:00:3480,0.164,0.097,1.717,174.744,101.746,5.249,15.068,9.476,-111.039,-52.3,-35.8,-0.927,25.85,0.55914,0.02258,-0.01016,-0.82864
 13:39:11.429,eb:33:2e:f9:57:b5, 2085-97-228 01:134:01:3674,0.252,0.144,1.708,190.735,121.338,2.563,16.968,10.552,-110.682,-52.3,-35.8,-0.927,25.85,0.55914,0.02258,-0.01016,-0.82864
 13:39:11.460,eb:33:2e:f9:57:b5, 2085-97-222 01:243:00:4231,0.301,0.136,1.879,212.402,136.963,-3.601,19.067,11.788,-110.275,-52.1,-42.1,-4.927,25.85,0.55914,0.02258,-0.01016,-0.82864
 13:39:11.460,eb:33:2e:f9:57:b5, 2085-97-148 02:191:00:4271,0.321,0.06,2.126,237.061,158.752,-9.338,21.423,13.206,-109.814,-52.1,-42.1,-4.927,25.85,0.55914,0.02258,-0.01016,-0.82864
 13:39:11.460,eb:33:2e:f9:57:b5, 2085-97-131 02:237:00:4630,0.34,0.132,2.157,268.372,171.875,-23.682,24.088,14.804,-109.308,-52.1,-42.1,-4.927,25.85,0.55914,0.02258,-0.01016,-0.82864
 13:39:11.460,eb:33:2e:f9:57:b5, 2085-97-72 02:17:00:5386,0.293,0.102,2.471,300.049,187.866,-41.443,27.081,16.567,-108.825,-52.1,-42.1,-4.927,25.85,0.55914,0.02258,-0.01016,-0.82864
 13:39:11.490,eb:33:2e:f9:57:b5, 2085-97-249 00:65:00:6072,0.052,-0.023,2.696,330.872,212.341,-52.185,30.438,18.561,-108.237,-52.1,-42.1,-4.927,25.85,0.55914,0.02258,-0.01016,-0.82864
 13:39:11.490,eb:33:2e:f9:57:b5, 2085-97-90 01:157:255:6542,0.199,0.083,3.268,355.896,230.103,-61.768,34.129,20.737,-107.507,-52.1,-42.1,-4.927,25.85,0.55914,0.02258,-0.01016,-0.82864
 13:39:11.490,eb:33:2e:f9:57:b5, 2085-97-135 02:122:255:5709,0.345,-0.042,2.878,363.708,252.991,-61.951,38.128,23.077,-106.479,-52.1,-42.1,-4.927,25.85,0.55914,0.02258,-0.01016,-0.82864
 13:39:11.490,eb:33:2e:f9:57:b5, 2085-97-63 02:200:00:5336,0.356,-0.007,2.54,370.483,265.869,-67.322,42.347,25.483,-105.15,-52.1,-42.1,-4.927,25.85,0.55914,0.02258,-0.01016,-0.82864
 13:39:11.551,eb:33:2e:f9:57:b5, 2085-97-94 03:132:255:5259,0.472,0.025,2.729,371.765,263.733,-79.956,46.725,27.878,-103.694,-52.1,-42.1,-4.927,25.85,0.49576,0.36014,-0.14911,-0.776
 13:39:11.551,eb:33:2e:f9:57:b5, 2085-97-217 03:117:254:3871,0.91,-0.068,2.267,349.976,268.127,-86.365,51.141,30.262,-102.03,-52.1,-42.1,-4.927,25.85,0.49576,0.36014,-0.14911,-0.776
 13:39:11.551,eb:33:2e:f9:57:b5, 2085-97-245 06:176:250:2101,0.937,-0.378,1.45,317.688,255.432,-92.285,55.432,32.542,-100.184,-52.1,-42.1,-4.927,25.85,0.49576,0.36014,-0.14911,-0.776
 13:39:11.551,eb:33:2e:f9:57:b5, 2085-97-155 11:159:247:099,1.201,-0.847,0.645,302.551,201.782,-86.792,59.431,34.514,-98.481,-52.1,-42.1,-4.927,25.85,0.49576,0.36014,-0.14911,-0.776
 13:39:11.579,eb:33:2e:f9:57:b5, 2085-97-79 01:60:06:-5203,0.163,0.029,-1.26,284.485,147.034,-112.122,63.171,36.216,-97.064,-52.1,-42.1,-4.927,25.85,0.49576,0.36014,-0.14911,-0.776
 13:39:11.579,eb:33:2e:f9:57:b5, 2085-97-143 05:181:254:-1460,0.625,0.311,-1.995,155.701,-62.988,-169.8,65.045,37.727,-97.548,-52.1,-42.1,-4.927,25.85,0.49576,0.36014,-0.14911,-0.776
 13:39:11.579,eb:33:2e:f9:57:b5, 2085-97-45 04:224:248:372,0.499,-0.633,-0.093,42.419,-152.283,-166.321,64.528,38.76,-99.844,-52.1,-42.1,-4.927,25.85,0.49576,0.36014,-0.14911,-0.776
 13:39:11.579,eb:33:2e:f9:57:b5, 2085-97-238 03:88:248:1066,0.506,-0.939,0.354,-34.912,-173.584,-142.09,62.71,39.38,-102.684,-52.1,-42.1,-4.927,25.85,0.49576,0.36014,-0.14911,-0.776
 13:39:11.640,eb:33:2e:f9:57:b5, 2085-97-237 03:204:248:1701,0.474,-0.95,0.721,-80.322,-152.161,-111.755,60.392,39.705,-105.331,-52.1,-42.1,-4.927,25.85,0.49576,0.36014,-0.14911,-0.776
 13:39:11.640,eb:33:2e:f9:57:b5, 2085-97-189 03:250:249:1572,0.452,-0.821,0.838,-93.811,-120.605,-86.609,58.101,39.847,-107.49,-52.1,-42.1,-4.927,25.85,0.49576,0.36014,-0.14911,-0.776
 13:39:11.640,eb:33:2e:f9:57:b5, 2085-97-104 03:181:250:852,0.411,-0.701,0.62,-96.436,-102.112,-65.552,56.047,39.886,-109.215,-52.1,-42.1,-4.927,25.85,0.49576,0.36014,-0.14911,-0.776
 13:39:11.640,eb:33:2e:f9:57:b5, 2085-97-69 03:45:251:136,0.402,-0.632,0.214,-102.661,-102.478,-47.363,54.08,39.754,-110.715,-52.1,-42.1,-4.927,25.85,0.49576,0.36014,-0.14911,-0.776
 13:39:11.669,eb:33:2e:f9:57:b5, 2085-97-53 03:164:251:-081,0.398,-0.574,-0.02,-118.896,-117.798,-31.372,52.059,39.397,-112.154,-52.1,-42.1,-4.927,25.85,0.49576,0.36014,-0.14911,-0.776
 13:39:11.669,eb:33:2e:f9:57:b5, 2085-97-60 03:214:251:026,0.417,-0.526,-0.028,-141.785,-140.869,-17.7,49.785,38.754,-113.654,-52.1,-42.1,-4.927,25.85,0.49576,0.36014,-0.14911,-0.776
 13:39:11.669,eb:33:2e:f9:57:b5, 2085-97-123 03:196:251:302,0.448,-0.527,0.072,-165.222,-165.405,-5.92,47.263,37.815,-115.225,-52.1,-42.1,-4.927,25.85,0.49576,0.36014,-0.14911,-0.776
 13:39:11.669,eb:33:2e:f9:57:b5, 2085-97-164 03:07:252:595,0.46,-0.519,0.23,-187.988,-189.27,4.089,44.5,36.568,-116.84,-52.1,-42.1,-4.927,25.85,0.49576,0.36014,-0.14911,-0.776
 13:39:11.700,eb:33:2e:f9:57:b5, 2085-97-198 03:175:252:827,0.466,-0.461,0.344,-204.407,-209.473,8.24,41.572,35.057,-118.466,-52.1,-42.1,-4.927,25.85,0.49576,0.36014,-0.14911,-0.776
 13:39:11.700,eb:33:2e:f9:57:b5, 2085-97-202 03:130:253:1016,0.46,-0.366,0.444,-215.149,-228.882,6.104,38.529,33.311,-120.114,-52.1,-42.1,-4.927,25.85,0.49576,0.36014,-0.14911,-0.776
 13:39:11.700,eb:33:2e:f9:57:b5, 2085-97-133 03:26:254:1278,0.413,-0.269,0.548,-219.36,-249.451,-1.404,35.442,31.382,-121.8,-52.1,-42.1,-4.927,25.85,0.49576,0.36014,-0.14911,-0.776
 13:39:11.700,eb:33:2e:f9:57:b5, 2085-113-58 00:148:228:-8085,0.382,-0.213,0.716,-218.933,-268.616,-11.108,32.349,29.246,-123.558,-52.1,-42.1,-4.927,25.85,0.49576,0.36014,-0.14911,-0.776
 13:39:11.700,eb:33:2e:f9:57:b5, 2085-97-193 02:134:254:1916,0.3,-0.195,0.824,-218.14,-276.184,-15.625,30.833,28.114,-124.437,-52.1,-42.1,-4.927,25.85,0.49576,0.36014,-0.14911,-0.776
 13:39:11.759,eb:33:2e:f9:57:b5, 2085-97-20 02:140:254:2355,0.197,-0.179,1.042,-217.346,-286.804,-23.315,27.867,25.752,-126.189,-46.8,-53.9,-13.407,25.85,0.49576,0.36014,-0.14911,-0.776
 13:39:11.759,eb:33:2e:f9:57:b5, 2085-97-66 01:70:254:2797,0.108,-0.2,1.246,-219.421,-291.992,-27.893,24.972,23.258,-127.87,-46.8,-53.9,-13.407,25.85,0.49576,0.36014,-0.14911,-0.776
 13:39:11.759,eb:33:2e:f9:57:b5, 2085-97-147 00:235:253:3279,0.025,-0.237,1.481,-224.365,-289.124,-28.381,22.176,20.704,-129.408,-46.8,-53.9,-13.407,25.85,0.49576,0.36014,-0.14911,-0.776
 13:39:11.759,eb:33:2e:f9:57:b5, 2085-97-196 255:115:253:3558,-0.083,-0.291,1.694,-230.53,-274.536,-22.583,19.446,18.144,-130.732,-46.8,-53.9,-13.407,25.85,0.49576,0.36014,-0.14911,-0.776
 13:39:11.790,eb:33:2e:f9:57:b5, 2085-97-36 255:99:253:3579,-0.104,-0.332,1.74,-233.032,-256.409,-10.986,16.82,15.683,-131.754,-46.8,-53.9,-13.407,25.85,0.38293,0.16843,-0.07202,-0.90536
 13:39:11.790,eb:33:2e:f9:57:b5, 2085-97-43 255:64:254:3681,-0.106,-0.29,1.776,-226.318,-246.704,1.953,14.321,13.266,-132.49,-46.8,-53.9,-13.407,25.85,0.38293,0.16843,-0.07202,-0.90536
 13:39:11.790,eb:33:2e:f9:57:b5, 2085-97-51 255:139:255:3720,-0.081,-0.135,1.806,-212.769,-248.962,11.902,12.025,10.844,-132.984,-46.8,-53.9,-13.407,25.85,0.38293,0.16843,-0.07202,-0.90536
 13:39:11.791,eb:33:2e:f9:57:b5, 2085-97-146 255:67:00:3934,-0.035,-0.001,1.849,-197.937,-260.742,17.578,9.904,8.295,-133.325,-46.8,-53.9,-13.407,25.85,0.38293,0.16843,-0.07202,-0.90536
 13:39:11.820,eb:33:2e:f9:57:b5, 2085-97-179 255:145:00:4370,-0.066,0.056,2.023,-184.875,-272.949,21.545,7.971,5.62,-133.544,-46.8,-53.9,-13.407,25.85,0.38293,0.16843,-0.07202,-0.90536
 13:39:11.820,eb:33:2e:f9:57:b5, 2085-97-42 255:192:00:4726,-0.158,0.081,2.226,-179.199,-278.137,26.733,6.141,2.829,-133.649,-46.8,-53.9,-13.407,25.85,0.38293,0.16843,-0.07202,-0.90536
 13:39:11.820,eb:33:2e:f9:57:b5, 2085-97-87 254:244:00:4978,-0.242,0.102,2.373,-185.852,-275.269,36.682,4.323,0.038,-133.583,-46.8,-53.9,-13.407,25.85,0.38293,0.16843,-0.07202,-0.90536
 13:39:11.820,eb:33:2e:f9:57:b5, 2085-97-167 253:48:01:5250,-0.344,0.138,2.499,-198.792,-263.672,51.697,2.368,-2.692,-133.297,-46.8,-53.9,-13.407,25.85,0.38293,0.16843,-0.07202,-0.90536
 13:39:11.880,eb:33:2e:f9:57:b5, 2085-97-173 252:179:01:5217,-0.501,0.157,2.594,-208.496,-243.713,71.655,0.275,-5.229,-132.72,-46.8,-53.9,-13.407,25.85,0.38293,0.16843,-0.07202,-0.90536
 13:39:11.880,eb:33:2e:f9:57:b5, 2085-97-25 251:95:03:4638,-0.717,0.308,2.436,-208.496,-235.779,85.266,-1.923,-7.608,-131.885,-46.8,-53.9,-13.407,25.85,0.38293,0.16843,-0.07202,-0.90536
 13:39:11.880,eb:33:2e:f9:57:b5, 2085-97-117 249:159:04:4049,-0.882,0.524,2.094,-210.205,-256.897,90.21,-4.164,-10.009,-130.853,-46.8,-53.9,-13.407,25.85,0.38293,0.16843,-0.07202,-0.90536
 13:39:11.880,eb:33:2e:f9:57:b5, 2085-97-36 249:233:04:4336,-0.822,0.588,1.969,-220.825,-284.973,92.163,-6.57,-12.662,-129.661,-46.8,-53.9,-13.407,25.85,0.38293,0.16843,-0.07202,-0.90536
 13:39:11.909,eb:33:2e:f9:57:b5, 2085-97-18 249:32:08:5085,-0.95,0.756,2.328,-230.896,-275.024,98.389,-9.174,-15.342,-128.287,-46.8,-53.9,-13.407,25.85,0.38293,0.16843,-0.07202,-0.90536
 13:39:11.917,eb:33:2e:f9:57:b5, 2085-97-194 247:194:13:5314,-1.19,1.343,2.58,-223.389,-232.239,99.609,-11.909,-17.661,-126.777,-46.8,-53.9,-13.407,25.85,0.38293,0.16843,-0.07202,-0.90536
 13:39:11.918,eb:33:2e:f9:57:b5, 2085-97-84 244:144:20:4177,-1.849,2.133,2.41,-187.866,-181.519,91.003,-14.442,-19.418,-125.305,-46.8,-53.9,-13.407,25.85,0.38293,0.16843,-0.07202,-0.90536
 13:39:11.918,eb:33:2e:f9:57:b5, 2085-97-111 237:129:27:2357,-2.687,3.025,1.554,-127.502,-165.833,74.463,-16.469,-20.836,-123.981,-46.8,-53.9,-13.407,25.85,0.38293,0.16843,-0.07202,-0.90536
 13:39:11.940,eb:33:2e:f9:57:b5, 2085-97-01 233:120:30:3284,-2.848,3.74,1.159,-48.95,-182.861,55.847,-17.776,-22.33,-122.756,-46.8,-53.9,-13.407,25.85,0.38293,0.16843,-0.07202,-0.90536
 13:39:11.940,eb:33:2e:f9:57:b5, 2085-97-230 234:248:23:5393,-2.397,3.532,2.23,44.495,-139.221,43.457,-18.177,-23.769,-121.696,-46.8,-53.9,-13.407,25.85,0.38293,0.16843,-0.07202,-0.90536
 13:39:11.940,eb:33:2e:f9:57:b5, 2085-97-125 238:234:15:4891,-2.026,2.45,2.617,112.488,-32.776,45.105,-17.611,-24.406,-120.965,-46.8,-53.9,-13.407,25.85,0.38293,0.16843,-0.07202,-0.90536
 13:39:11.940,eb:33:2e:f9:57:b5, 2085-97-124 02:47:255:12297,-1.808,1.579,2.053,125.183,58.411,53.101,-16.562,-24.066,-120.515,-46.8,-53.9,-13.407,25.85,0.38293,0.16843,-0.07202,-0.90536
 13:39:12.000,eb:33:2e:f9:57:b5, 2085-97-191 03:162:252:2521,1.258,0.514,-0.208,139.832,292.725,86.792,-15.222,-21.967,-120.328,-46.8,-53.9,-13.407,25.85,0.38293,0.16843,-0.07202,-0.90536
 13:39:12.000,eb:33:2e:f9:57:b5, 2085-97-183 04:153:254:2128,0.308,-0.476,0.023,150.818,271.606,89.6,-13.87,-19.039,-119.982,-46.8,-53.9,-13.407,25.85,0.38293,0.16843,-0.07202,-0.90536
 13:39:12.000,eb:33:2e:f9:57:b5, 2085-97-247 04:41:250:1815,0.493,-0.407,1.08,149.963,262.024,37.476,-12.371,-16.188,-119.998,-46.8,-53.9,-13.407,25.85,0.38293,0.16843,-0.07202,-0.90536
 13:39:12.000,eb:33:2e:f9:57:b5, 2085-97-108 01:235:253:2469,-0.26,-0.371,0.98,163.33,232.91,-10.986,-10.695,-13.76,-120.366,-46.8,-53.9,-13.407,25.85,0.38293,0.16843,-0.07202,-0.90536
 13:39:12.029,eb:33:2e:f9:57:b5, 2085-97-86 251:29:255:1731,-0.783,-0.187,0.85,176.331,201.965,-43.884,-8.828,-11.673,-121.086,-40.3,-25.1,6.593,25.85,0.38293,0.16843,-0.07202,-0.90536
 13:39:12.029,eb:33:2e:f9:57:b5, 2085-97-117 250:112:255:1904,-0.297,-0.089,0.738,182.434,164.124,-41.931,-6.888,-9.926,-121.794,-40.3,-25.1,6.593,25.85,0.38293,0.16843,-0.07202,-0.90536
 13:39:12.029,eb:33:2e:f9:57:b5, 2085-97-21 255:43:255:2410,0.004,-0.015,1.028,172.241,141.602,-33.997,-5.026,-8.481,-122.322,-40.3,-25.1,6.593,25.85,0.38293,0.16843,-0.07202,-0.90536
 13:39:12.029,eb:33:2e:f9:57:b5, 2085-97-226 255:88:00:2388,-0.036,-0.068,1.234,158.264,128.845,-27.466,-3.312,-7.169,-122.728,-40.3,-25.1,6.593,25.85,0.38293,0.16843,-0.07202,-0.90536
 13:39:12.090,eb:33:2e:f9:57:b5, 2085-97-28 255:203:01:2146,-0.175,0.197,1.197,127.136,121.887,-11.475,-1.851,-5.938,-122.975,-40.3,-25.1,6.593,25.85,0.38293,0.16843,-0.07202,-0.90536
 13:39:12.090,eb:33:2e:f9:57:b5, 2085-97-140 252:113:05:2022,-0.152,0.296,1.013,89.905,111.084,6.226,-0.78,-4.757,-122.997,-40.3,-25.1,6.593,25.85,0.38293,0.16843,-0.07202,-0.90536
 13:39:12.091,eb:33:2e:f9:57:b5, 2085-97-50 255:192:02:2040,-0.211,0.526,1.055,40.955,59.326,-10.559,-0.165,-3.939,-123.063,-40.3,-25.1,6.593,25.85,0.38293,0.16843,-0.07202,-0.90536
 13:39:12.091,eb:33:2e:f9:57:b5, 2085-97-254 254:217:255:1915,-0.029,0.023,0.927,26.917,38.513,-10.132,0.154,-3.466,-123.201,-40.3,-25.1,6.593,25.85,0.38293,0.16843,-0.07202,-0.90536
 13:39:12.120,eb:33:2e:f9:57:b5, 2085-97-144 255:120:00:1979,-0.118,-0.005,0.983,23.621,32.288,1.831,0.406,-3.137,-123.228,-40.3,-25.1,6.593,25.85,0.47586,-0.0282,-0.01535,-0.87888
 13:39:12.120,eb:33:2e:f9:57:b5, 2085-97-47 255:179:00:1885,-0.067,0.094,0.915,19.104,23.804,1.648,0.615,-2.834,-123.201,-40.3,-25.1,6.593,25.85,0.47586,-0.0282,-0.01535,-0.87888
 13:39:12.120,eb:33:2e:f9:57:b5, 2085-97-24 00:104:00:2075,0.021,0.078,0.945,15.32,13.184,-0.244,0.791,-2.659,-123.201,-40.3,-25.1,6.593,25.85,0.47586,-0.0282,-0.01535,-0.87888
 13:39:12.120,eb:33:2e:f9:57:b5, 2085-97-53 00:125:00:2104,-0.016,0.041,1.019,12.512,14.954,1.77,0.928,-2.51,-123.19,-40.3,-25.1,6.593,25.85,0.47586,-0.0282,-0.01535,-0.87888
 13:39:12.149,eb:33:2e:f9:57:b5, 2085-97-150 255:242:00:1933,-0.043,0.084,1.002,8.606,16.602,2.38,1.033,-2.351,-123.162,-40.3,-25.1,6.593,25.85,0.47586,-0.0282,-0.01535,-0.87888
 13:39:12.149,eb:33:2e:f9:57:b5, 2085-97-29 00:21:00:2096,0.056,0.058,0.972,6.165,7.874,-1.953,1.104,-2.23,-123.168,-40.3,-25.1,6.593,25.85,0.47586,-0.0282,-0.01535,-0.87888
 13:39:12.149,eb:33:2e:f9:57:b5, 2085-97-67 00:109:00:2110,-0.007,0.026,1.052,6.042,11.719,-0.122,1.17,-2.131,-123.173,-40.3,-25.1,6.593,25.85,0.47586,-0.0282,-0.01535,-0.87888
 13:39:12.149,eb:33:2e:f9:57:b5, 2085-97-213 255:33:00:2052,0.003,0.043,1.007,4.883,12.207,-0.61,1.225,-2,-123.173,-40.3,-25.1,6.593,25.85,0.47586,-0.0282,-0.01535,-0.87888
 13:39:12.210,eb:33:2e:f9:57:b5, 2085-97-08 00:35:00:2094,-0.011,0.014,1.019,5.981,11.169,0,1.28,-1.884,-123.173,-40.3,-25.1,6.593,25.85,0.47586,-0.0282,-0.01535,-0.87888
 13:39:12.210,eb:33:2e:f9:57:b5, 2085-97-209 255:35:00:2052,-0.025,0.011,1.017,6.714,11.475,0.916,1.346,-1.763,-123.168,-40.3,-25.1,6.593,25.85,0.47586,-0.0282,-0.01535,-0.87888
 13:39:12.210,eb:33:2e:f9:57:b5, 2085-97-191 255:40:00:2020,-0.029,0.021,0.994,6.775,10.01,2.075,1.417,-1.659,-123.151,-40.3,-25.1,6.593,25.85,0.47586,-0.0282,-0.01535,-0.87888
 13:39:12.210,eb:33:2e:f9:57:b5, 2085-97-213 255:46:00:2034,-0.013,0.017,0.99,6.47,8.667,3.357,1.483,-1.56,-123.118,-40.3,-25.1,6.593,25.85,0.47586,-0.0282,-0.01535,-0.87888
 13:39:12.239,eb:33:2e:f9:57:b5, 2085-97-233 255:54:00:2043,-0.007,0.023,1,6.104,8.484,4.15,1.549,-1.472,-123.074,-40.3,-25.1,6.593,25.85,0.47586,-0.0282,-0.01535,-0.87888
 13:39:12.239,eb:33:2e:f9:57:b5, 2085-97-238 255:66:00:2030,-0.005,0.033,0.993,5.371,8.606,4.822,1.609,-1.384,-123.03,-40.3,-25.1,6.593,25.85,0.47586,-0.0282,-0.01535,-0.87888
 13:39:12.239,eb:33:2e:f9:57:b5, 2085-97-253 255:90:00:2029,-0.002,0.036,0.993,4.517,8.85,5.005,1.653,-1.296,-122.975,-40.3,-25.1,6.593,25.85,0.47586,-0.0282,-0.01535,-0.87888
 13:39:12.239,eb:33:2e:f9:57:b5, 2085-97-241 255:89:00:2012,-0.009,0.042,0.989,3.296,9.399,4.822,1.697,-1.198,-122.921,-40.3,-25.1,6.593,25.85,0.47586,-0.0282,-0.01535,-0.87888
 13:39:12.300,eb:33:2e:f9:57:b5, 2085-97-249 255:83:00:2017,-0.007,0.04,0.983,2.075,9.338,4.822,1.725,-1.104,-122.871,-40.3,-25.1,6.593,25.85,0.47586,-0.0282,-0.01535,-0.87888
 13:39:12.300,eb:33:2e:f9:57:b5, 2085-97-254 255:77:00:2024,0.009,0.028,0.99,0.61,10.254,5.493,1.736,-1,-122.816,-40.3,-25.1,6.593,25.85,0.47586,-0.0282,-0.01535,-0.87888
 13:39:12.301,eb:33:2e:f9:57:b5, 2085-97-13 00:73:00:2048,0.005,0.046,0.996,-0.122,10.803,5.554,1.736,-0.895,-122.756,-40.3,-25.1,6.593,25.85,0.47586,-0.0282,-0.01535,-0.87888
 13:39:12.301,eb:33:2e:f9:57:b5, 2085-97-25 00:116:00:2030,-0.004,0.048,0.992,-0.793,11.475,5.493,1.73,-0.775,-122.695,-40.3,-25.1,6.593,25.85,0.47586,-0.0282,-0.01535,-0.87888
 13:39:12.301,eb:33:2e:f9:57:b5, 2085-97-09 00:98:00:2039,0.002,0.039,0.988,-0.732,11.719,4.211,1.725,-0.659,-122.646,-40.3,-25.1,6.593,25.85,0.47586,-0.0282,-0.01535,-0.87888
 13:39:12.301,eb:33:2e:f9:57:b5, 2085-97-248 255:89:00:2029,-0.003,0.045,1.004,0.183,12.146,2.563,1.725,-0.538,-122.607,-40.3,-25.1,6.593,25.85,0.47586,-0.0282,-0.01535,-0.87888
 13:39:12.303,eb:33:2e:f9:57:b5, 2085-97-225 255:64:00:2043,-0.024,0.041,0.999,0.793,12.39,1.038,1.73,-0.412,-122.585,-40.3,-25.1,6.593,25.85,0.47586,-0.0282,-0.01535,-0.87888
 13:39:12.303,eb:33:2e:f9:57:b5, 2085-97-224 255:59:00:2054,-0.021,0.029,0.998,1.465,11.902,0.427,1.747,-0.28,-122.574,-40.3,-25.1,6.593,25.85,0.47586,-0.0282,-0.01535,-0.87888
 13:39:12.359,eb:33:2e:f9:57:b5, 2085-97-228 255:69:00:2063,-0.02,0.032,1.003,1.831,12.085,0.244,1.763,-0.159,-122.569,-47.3,-33.2,1.433,25.85,0.47586,-0.0282,-0.01535,-0.87888
 13:39:12.359,eb:33:2e:f9:57:b5, 2085-97-209 255:63:00:2054,-0.035,0.032,1.003,1.953,12.512,0,1.785,-0.027,-122.563,-47.3,-33.2,1.433,25.85,0.47586,-0.0282,-0.01535,-0.87888
 13:39:12.359,eb:33:2e:f9:57:b5, 2085-97-189 255:57:00:2051,-0.031,0.021,1,2.319,11.963,-0.061,1.802,0.093,-122.558,-47.3,-33.2,1.433,25.85,0.47586,-0.0282,-0.01535,-0.87888
 13:39:12.359,eb:33:2e:f9:57:b5, 2085-97-191 255:67:00:2044,-0.028,0.032,1.001,2.808,11.536,-0.793,1.835,0.214,-122.558,-47.3,-33.2,1.433,25.85,0.47586,-0.0282,-0.01535,-0.87888
 13:39:12.389,eb:33:2e:f9:57:b5, 2085-97-188 255:70:00:2040,-0.042,0.031,1.01,3.479,11.353,-1.465,1.862,0.33,-122.569,-47.3,-33.2,1.433,25.85,0.48026,0.01096,-0.01279,-0.87689
 13:39:12.389,eb:33:2e:f9:57:b5, 2085-97-188 255:79:00:2052,-0.033,0.033,0.991,3.845,10.559,-2.38,1.906,0.45,-122.58,-47.3,-33.2,1.433,25.85,0.48026,0.01096,-0.01279,-0.87689
 13:39:12.389,eb:33:2e:f9:57:b5, 2085-97-183 255:79:00:2047,-0.024,0.042,0.999,4.456,10.132,-3.54,1.945,0.555,-122.607,-47.3,-33.2,1.433,25.85,0.48026,0.01096,-0.01279,-0.87689
 13:39:12.389,eb:33:2e:f9:57:b5, 2085-97-177 255:88:00:2024,-0.042,0.046,1.009,4.944,10.376,-4.7,2,0.665,-122.646,-47.3,-33.2,1.433,25.85,0.48026,0.01096,-0.01279,-0.87689
 13:39:12.419,eb:33:2e:f9:57:b5, 2085-97-201 255:80:00:2103,-0.018,0.036,1.007,5.493,9.583,-4.761,2.049,0.769,-122.69,-47.3,-33.2,1.433,25.85,0.48026,0.01096,-0.01279,-0.87689
 13:39:12.419,eb:33:2e:f9:57:b5, 2085-97-232 255:102:00:2125,-0.004,0.04,1.038,7.141,9.583,-5.737,2.115,0.873,-122.739,-47.3,-33.2,1.433,25.85,0.48026,0.01096,-0.01279,-0.87689
 13:39:12.419,eb:33:2e:f9:57:b5, 2085-97-212 255:11:00:2258,-0.046,0.065,1.034,8.728,9.949,-6.897,2.197,0.972,-122.8,-47.3,-33.2,1.433,25.85,0.48026,0.01096,-0.01279,-0.87689
 13:39:12.419,eb:33:2e:f9:57:b5, 2085-97-160 255:33:00:2162,-0.035,0.024,1.042,12.512,10.254,-6.592,2.307,1.088,-122.866,-47.3,-33.2,1.433,25.85,0.48026,0.01096,-0.01279,-0.87689
 13:39:12.509,eb:33:2e:f9:57:b5, 2085-97-216 255:68:00:2200,-0.011,0.032,1.06,15.686,10.376,-6.226,2.444,1.198,-122.921,-47.3,-33.2,1.433,25.85,0.48026,0.01096,-0.01279,-0.87689
 13:39:12.509,eb:33:2e:f9:57:b5, 2085-97-246 255:196:255:2590,-0.036,0.028,1.116,18.738,13,-6.348,2.626,1.318,-122.981,-47.3,-33.2,1.433,25.85,0.48026,0.01096,-0.01279,-0.87689
 13:39:12.509,eb:33:2e:f9:57:b5, 2085-97-239 255:97:00:2267,-0.062,-0.032,1.197,23.193,23.926,-3.723,2.823,1.527,-123.019,-47.3,-33.2,1.433,25.85,0.48026,0.01096,-0.01279,-0.87689
 13:39:12.509,eb:33:2e:f9:57:b5, 2085-97-49 255:135:255:2395,-0.082,-0.013,1.116,32.227,20.264,-4.944,3.115,1.752,-123.058,-47.3,-33.2,1.433,25.85,0.48026,0.01096,-0.01279,-0.87689
 13:39:12.511,eb:33:2e:f9:57:b5, 2085-97-102 255:248:255:2299,-0.07,-0.02,1.141,42.236,18.372,-2.441,3.483,1.956,-123.08,-47.3,-33.2,1.433,25.85,0.48026,0.01096,-0.01279,-0.87689
 13:39:12.511,eb:33:2e:f9:57:b5, 2085-97-75 255:125:255:2575,-0.12,-0.025,1.207,51.147,16.663,-1.465,3.966,2.126,-123.091,-47.3,-33.2,1.433,25.85,0.48026,0.01096,-0.01279,-0.87689
 13:39:12.511,eb:33:2e:f9:57:b5, 2085-97-71 255:146:255:2553,-0.098,-0.074,1.248,59.082,21.057,2.563,4.51,2.329,-123.069,-47.3,-33.2,1.433,25.85,0.48026,0.01096,-0.01279,-0.87689
 13:39:12.511,eb:33:2e:f9:57:b5, 2085-97-168 255:41:00:2467,-0.08,-0.004,1.174,70.618,19.958,6.287,5.169,2.549,-123.008,-47.3,-33.2,1.433,25.85,0.48026,0.01096,-0.01279,-0.87689
 13:39:12.570,eb:33:2e:f9:57:b5, 2085-97-142 255:241:255:2687,-0.03,-0.017,1.239,81.787,18.616,8.24,5.938,2.73,-122.915,-47.3,-33.2,1.433,25.85,0.48026,0.01096,-0.01279,-0.87689
 13:39:12.570,eb:33:2e:f9:57:b5, 2085-97-145 255:219:255:2773,-0.042,0.002,1.318,92.346,23.01,10.193,6.823,2.939,-122.8,-47.3,-33.2,1.433,25.85,0.48026,0.01096,-0.01279,-0.87689
 13:39:12.570,eb:33:2e:f9:57:b5, 2085-97-248 255:56:00:2803,0.008,-0.006,1.395,102.478,30.151,12.878,7.811,3.186,-122.646,-47.3,-33.2,1.433,25.85,0.48026,0.01096,-0.01279,-0.87689
 13:39:12.570,eb:33:2e:f9:57:b5, 2085-97-226 255:40:00:2864,-0.018,0.037,1.35,115.173,37.231,12.573,8.921,3.51,-122.465,-47.3,-33.2,1.433,25.85,0.48026,0.01096,-0.01279,-0.87689
 13:39:12.600,eb:33:2e:f9:57:b5, 2085-97-230 255:29:00:2920,0.049,0.02,1.409,125.549,45.898,13.611,10.14,3.9,-122.267,-47.3,-33.2,1.433,25.85,0.48026,0.01096,-0.01279,-0.87689
 13:39:12.600,eb:33:2e:f9:57:b5, 2085-97-119 00:59:00:3117,0.013,0.021,1.5,139.343,53.894,12.939,11.486,4.373,-122.042,-47.3,-33.2,1.433,25.85,0.48026,0.01096,-0.01279,-0.87689
 13:39:12.600,eb:33:2e:f9:57:b5, 2085-97-132 00:06:00:3244,0.077,0.034,1.514,154.785,62.073,12.573,12.986,4.922,-121.789,-47.3,-33.2,1.433,25.85,0.48026,0.01096,-0.01279,-0.87689
 13:39:12.600,eb:33:2e:f9:57:b5, 2085-97-56 00:47:00:3179,0.13,0.007,1.581,172.424,74.89,12.573,14.656,5.57,-121.498,-47.3,-33.2,1.433,25.85,0.48026,0.01096,-0.01279,-0.87689
 13:39:12.630,eb:33:2e:f9:57:b5, 2085-113-58 00:224:227:-5865,0.126,0.062,1.621,189.209,85.51,12.085,16.507,6.306,-121.163,-48,-39.1,-2.367,25.85,0.48026,0.01096,-0.01279,-0.87689
 13:39:12.630,eb:33:2e:f9:57:b5, 2085-97-62 01:51:00:3793,0.18,0.009,1.69,199.829,91.125,10.01,17.507,6.718,-120.981,-48,-39.1,-2.367,25.85,0.48026,0.01096,-0.01279,-0.87689
 13:39:12.630,eb:33:2e:f9:57:b5, 2085-97-09 02:59:00:3930,0.252,0.023,1.917,221.313,112.244,7.324,19.671,7.663,-120.569,-48,-39.1,-2.367,25.85,0.48026,0.01096,-0.01279,-0.87689
 13:39:12.630,eb:33:2e:f9:57:b5, 2085-97-33 02:64:00:4501,0.292,0.007,2.062,247.131,133.484,1.465,22.094,8.795,-120.092,-48,-39.1,-2.367,25.85,0.48026,0.01096,-0.01279,-0.87689
 13:39:12.660,eb:33:2e:f9:57:b5, 2085-97-230 02:190:00:4856,0.396,0.057,2.333,272.522,162.659,-5.981,24.802,10.173,-119.504,-48,-39.1,-2.367,25.85,0.48026,0.01096,-0.01279,-0.87689
 13:39:12.660,eb:33:2e:f9:57:b5, 2085-97-38 03:238:00:5513,0.376,0.124,2.524,303.955,186.035,-20.569,27.817,11.816,-118.834,-48,-39.1,-2.367,25.85,0.48026,0.01096,-0.01279,-0.87689
 13:39:12.661,eb:33:2e:f9:57:b5, 2085-97-209 01:181:01:6534,0.34,0.114,2.901,334.595,209.29,-36.56,31.201,13.694,-118.103,-48,-39.1,-2.367,25.85,0.48026,0.01096,-0.01279,-0.87689
 13:39:12.661,eb:33:2e:f9:57:b5, 2085-97-134 02:208:255:6590,0.323,-0.027,3.452,358.826,242.615,-44.617,34.904,15.809,-117.219,-48,-39.1,-2.367,25.85,0.48026,0.01096,-0.01279,-0.87689
 13:39:12.720,eb:33:2e:f9:57:b5, 2085-97-241 03:98:254:6147,0.421,0.016,3.05,364.563,268.982,-51.025,38.892,18.166,-115.988,-48,-39.1,-2.367,25.85,0.46072,0.25082,-0.17758,-0.83258
 13:39:12.720,eb:33:2e:f9:57:b5, 2085-97-231 02:157:255:5564,0.475,-0.218,2.849,369.263,299.133,-48.828,43.088,20.676,-114.379,-48,-39.1,-2.367,25.85,0.46072,0.25082,-0.17758,-0.83258
 13:39:12.720,eb:33:2e:f9:57:b5, 2085-97-217 03:187:255:5243,0.458,-0.003,2.757,381.592,296.57,-56.763,47.56,23.143,-112.505,-48,-39.1,-2.367,25.85,0.46072,0.25082,-0.17758,-0.83258
 13:39:12.720,eb:33:2e:f9:57:b5, 2085-97-115 03:36:255:3948,0.769,0,2.313,369.751,293.457,-61.096,52.169,25.499,-110.451,-48,-39.1,-2.367,25.85,0.46072,0.25082,-0.17758,-0.83258
 13:39:12.750,eb:33:2e:f9:57:b5, 2085-97-04 06:144:250:2403,0.872,-0.325,1.483,336.426,272.217,-67.993,56.673,27.675,-108.281,-48,-39.1,-2.367,25.85,0.46072,0.25082,-0.17758,-0.83258
 13:39:12.750,eb:33:2e:f9:57:b5, 2085-97-89 09:216:249:021,1.483,-0.841,0.711,327.698,197.937,-62.805,60.853,29.443,-106.397,-48,-39.1,-2.367,25.85,0.46072,0.25082,-0.17758,-0.83258
 13:39:12.750,eb:33:2e:f9:57:b5, 2085-97-220 04:71:05:-4188,0.07,-0.017,-0.765,311.34,143.555,-100.159,64.698,30.855,-105.068,-48,-39.1,-2.367,25.85,0.46072,0.25082,-0.17758,-0.83258
 13:39:12.750,eb:33:2e:f9:57:b5, 2085-97-190 04:103:255:-2304,0.588,0.477,-2.364,205.2,-43.335,-173.34,67.286,32.371,-105.2,-48,-39.1,-2.367,25.85,0.46072,0.25082,-0.17758,-0.83258
 13:39:12.780,eb:33:2e:f9:57:b5, 2085-97-101 03:191:248:193,0.348,-0.589,-0.3,79.956,-154.297,-174.988,67.495,33.569,-107.276,-48,-39.1,-2.367,25.85,0.46072,0.25082,-0.17758,-0.83258
 13:39:12.780,eb:33:2e:f9:57:b5, 2085-97-160 02:117:247:1185,0.33,-1.02,0.365,-13.55,-184.082,-147.522,66.22,34.354,-110.001,-48,-39.1,-2.367,25.85,0.46072,0.25082,-0.17758,-0.83258
 13:39:12.780,eb:33:2e:f9:57:b5, 2085-97-157 02:79:247:1970,0.315,-1.109,0.81,-77.209,-156.433,-108.032,64.259,34.783,-112.544,-48,-39.1,-2.367,25.85,0.46072,0.25082,-0.17758,-0.83258
 13:39:12.780,eb:33:2e:f9:57:b5, 2085-97-158 02:21:249:1876,0.316,-0.984,0.988,-107.361,-109.558,-72.205,62.199,34.98,-114.45,-48,-39.1,-2.367,25.85,0.46072,0.25082,-0.17758,-0.83258
 13:39:12.840,eb:33:2e:f9:57:b5, 2085-97-134 02:21:250:1206,0.312,-0.784,0.756,-122.192,-79.712,-45.288,60.287,35.035,-115.757,-48,-39.1,-2.367,25.85,0.46072,0.25082,-0.17758,-0.83258
 13:39:12.840,eb:33:2e:f9:57:b5, 2085-97-148 02:170:250:475,0.345,-0.712,0.403,-136.108,-70.923,-24.414,58.414,34.948,-116.741,-48,-39.1,-2.367,25.85,0.46072,0.25082,-0.17758,-0.83258
 13:39:12.840,eb:33:2e:f9:57:b5, 2085-97-226 02:138:251:031,0.379,-0.608,0.103,-160.4,-80.994,-8.85,56.431,34.673,-117.614,-48,-39.1,-2.367,25.85,0.46072,0.25082,-0.17758,-0.83258
 13:39:12.840,eb:33:2e:f9:57:b5, 2085-97-54 03:248:251:-082,0.431,-0.524,-0.026,-193.604,-102.722,0.793,54.102,34.167,-118.564,-48,-39.1,-2.367,25.85,0.46072,0.25082,-0.17758,-0.83258
 13:39:12.869,eb:33:2e:f9:57:b5, 2085-97-156 03:42:252:030,0.474,-0.486,-0.028,-225.159,-133.118,4.944,51.367,33.42,-119.674,-48,-39.1,-2.367,25.85,0.46072,0.25082,-0.17758,-0.83258
 13:39:12.869,eb:33:2e:f9:57:b5, 2085-97-241 03:88:252:565,0.497,-0.473,0.116,-246.643,-165.039,5.005,48.246,32.399,-121.014,-48,-39.1,-2.367,25.85,0.46072,0.25082,-0.17758,-0.83258
 13:39:12.869,eb:33:2e:f9:57:b5, 2085-97-231 03:228:252:1061,0.473,-0.429,0.409,-257.08,-188.904,1.953,44.918,31.135,-122.525,-48,-39.1,-2.367,25.85,0.46072,0.25082,-0.17758,-0.83258
 13:39:12.869,eb:33:2e:f9:57:b5, 2085-97-131 03:125:253:1323,0.408,-0.344,0.599,-258.911,-200.806,-2.747,41.523,29.702,-124.091,-48,-39.1,-2.367,25.85,0.46072,0.25082,-0.17758,-0.83258
 13:39:12.900,eb:33:2e:f9:57:b5, 2085-97-20 03:190:253:1543,0.348,-0.294,0.693,-258.179,-210.022,-8.362,38.183,28.158,-125.651,-38.9,-58.5,-11.833,25.85,0.46072,0.25082,-0.17758,-0.83258
 13:39:12.900,eb:33:2e:f9:57:b5, 2085-97-120 02:210:253:1730,0.274,-0.278,0.803,-257.935,-216.98,-12.878,34.882,26.499,-127.194,-38.9,-58.5,-11.833,25.85,0.46072,0.25082,-0.17758,-0.83258
 13:39:12.900,eb:33:2e:f9:57:b5, 2085-97-226 01:207:253:1946,0.208,-0.273,0.894,-260.132,-224.121,-15.747,31.652,24.73,-128.672,-38.9,-58.5,-11.833,25.85,0.46072,0.25082,-0.17758,-0.83258
 13:39:12.900,eb:33:2e:f9:57:b5, 2085-97-122 01:155:253:2362,0.157,-0.286,1.044,-262.817,-228.699,-15.869,28.449,22.835,-130.073,-38.9,-58.5,-11.833,25.85,0.46072,0.25082,-0.17758,-0.83258
 13:39:12.960,eb:33:2e:f9:57:b5, 2085-97-03 01:138:253:2656,0.102,-0.305,1.243,-265.137,-229.126,-13.428,25.34,20.858,-131.331,-38.9,-58.5,-11.833,25.85,0.46072,0.25082,-0.17758,-0.83258
 13:39:12.960,eb:33:2e:f9:57:b5, 2085-97-166 00:79:253:2837,0.066,-0.321,1.344,-267.7,-229.431,-8.362,22.286,18.792,-132.429,-38.9,-58.5,-11.833,25.85,0.46072,0.25082,-0.17758,-0.83258
 13:39:12.960,eb:33:2e:f9:57:b5, 2085-97-87 00:61:253:2981,0.047,-0.347,1.435,-269.897,-228.088,0.488,19.325,16.666,-133.319,-38.9,-58.5,-11.833,25.85,0.46072,0.25082,-0.17758,-0.83258
 13:39:12.960,eb:33:2e:f9:57:b5, 2085-97-107 00:230:253:3207,0.054,-0.315,1.497,-266.968,-227.966,10.559,16.436,14.469,-133.989,-38.9,-58.5,-11.833,25.85,0.46072,0.25082,-0.17758,-0.83258
 13:39:12.990,eb:33:2e:f9:57:b5, 2085-97-97 00:254:254:3579,0.036,-0.195,1.658,-256.531,-231.323,17.7,13.711,12.211,-134.456,-38.9,-58.5,-11.833,25.85,0.3627,0.21027,-0.10287,-0.90198
 13:39:12.990,eb:33:2e:f9:57:b5, 2085-97-59 00:229:255:3860,0.027,-0.062,1.823,-243.958,-235.657,21.362,11.135,9.871,-134.769,-38.9,-58.5,-11.833,25.85,0.3627,0.21027,-0.10287,-0.90198
 13:39:12.990,eb:33:2e:f9:57:b5, 2085-97-66 00:105:00:4125,0.021,0.025,1.941,-233.398,-244.141,21.423,8.723,7.471,-134.973,-38.9,-58.5,-11.833,25.85,0.3627,0.21027,-0.10287,-0.90198
 13:39:12.990,eb:33:2e:f9:57:b5, 2085-97-243 255:118:00:4527,-0.047,0.061,2.102,-230.347,-253.052,21.545,6.383,4.96,-135.088,-38.9,-58.5,-11.833,25.85,0.3627,0.21027,-0.10287,-0.90198
 13:39:13.020,eb:33:2e:f9:57:b5, 2085-97-69 255:68:00:4996,-0.133,0.045,2.326,-238.586,-254.639,26.978,4.043,2.401,-135.082,-38.9,-58.5,-11.833,25.85,0.3627,0.21027,-0.10287,-0.90198
 13:39:13.020,eb:33:2e:f9:57:b5, 2085-97-169 254:161:00:5220,-0.193,0.044,2.515,-257.324,-246.521,39.246,1.544,-0.126,-134.874,-38.9,-58.5,-11.833,25.85,0.3627,0.21027,-0.10287,-0.90198
 13:39:13.020,eb:33:2e:f9:57:b5, 2085-97-83 254:209:01:5259,-0.215,0.13,2.561,-279.358,-235.718,54.504,-1.159,-2.532,-134.407,-38.9,-58.5,-11.833,25.85,0.3627,0.21027,-0.10287,-0.90198
 13:39:13.020,eb:33:2e:f9:57:b5, 2085-97-40 254:68:04:5294,-0.275,0.355,2.576,-288.208,-230.957,65.247,-4.087,-4.839,-133.682,-38.9,-58.5,-11.833,25.85,0.3627,0.21027,-0.10287,-0.90198
 13:39:13.079,eb:33:2e:f9:57:b5, 2085-97-55 253:172:07:5358,-0.435,0.747,2.596,-277.588,-233.887,64.087,-7.015,-7.086,-132.797,-38.9,-58.5,-11.833,25.85,0.3627,0.21027,-0.10287,-0.90198
 13:39:13.079,eb:33:2e:f9:57:b5, 2085-97-222 251:45:10:5473,-0.615,1.137,2.645,-257.996,-237.854,54.626,-9.838,-9.349,-131.852,-38.9,-58.5,-11.833,25.85,0.3627,0.21027,-0.10287,-0.90198
 13:39:13.079,eb:33:2e:f9:57:b5, 2085-97-126 250:102:12:5233,-0.749,1.398,2.628,-240.112,-230.713,46.509,-12.491,-11.558,-130.891,-38.9,-58.5,-11.833,25.85,0.3627,0.21027,-0.10287,-0.90198
 13:39:13.079,eb:33:2e:f9:57:b5, 2085-97-110 249:152:15:4652,-0.923,1.726,2.442,-220.276,-211.67,40.161,-15.018,-13.607,-129.919,-38.9,-58.5,-11.833,25.85,0.3627,0.21027,-0.10287,-0.90198
 13:39:13.110,eb:33:2e:f9:57:b5, 2085-97-75 247:147:19:3701,-1.338,2.204,2.062,-185.12,-195.496,27.832,-17.276,-15.447,-129.001,-38.9,-58.5,-11.833,25.85,0.3627,0.21027,-0.10287,-0.90198
 13:39:13.110,eb:33:2e:f9:57:b5, 2085-97-175 242:149:22:2665,-2.094,2.646,1.539,-128.296,-199.89,9.277,-19.072,-17.26,-128.183,-38.9,-58.5,-11.833,25.85,0.3627,0.21027,-0.10287,-0.90198
 13:39:13.110,eb:33:2e:f9:57:b5, 2085-97-228 235:173:23:2461,-2.803,2.921,1.136,-62.744,-223.328,-1.221,-20.237,-19.248,-127.408,-38.9,-58.5,-11.833,25.85,0.3627,0.21027,-0.10287,-0.90198
 13:39:13.110,eb:33:2e:f9:57:b5, 2085-97-01 233:72:23:4293,-2.709,2.977,1.566,4.272,-219.482,4.395,-20.797,-21.374,-126.546,-38.9,-58.5,-11.833,25.85,0.3627,0.21027,-0.10287,-0.90198
 13:39:13.170,eb:33:2e:f9:57:b5, 2085-97-201 236:97:18:5558,-2.096,2.677,2.564,60.852,-128.418,18.86,-20.726,-22.983,-125.744,-38.9,-58.5,-11.833,25.85,0.3627,0.21027,-0.10287,-0.90198
 13:39:13.170,eb:33:2e:f9:57:b5, 2085-97-47 241:167:12:4353,-1.646,1.898,2.52,88.684,3.784,37.964,-20.138,-23.384,-125.239,-38.9,-58.5,-11.833,25.85,0.3627,0.21027,-0.10287,-0.90198
 13:39:13.170,eb:33:2e:f9:57:b5, 2085-97-67 244:131:09:2712,-1.288,1.36,1.688,91.003,80.139,50.293,-19.336,-22.736,-124.964,-38.9,-58.5,-11.833,25.85,0.3627,0.21027,-0.10287,-0.90198
 13:39:13.170,eb:33:2e:f9:57:b5, 2085-97-18 247:32:08:2007,1.641,1.073,1.085,87.28,85.632,50.537,-18.523,-21.736,-124.744,-38.9,-58.5,-11.833,25.85,0.3627,0.21027,-0.10287,-0.90198
 13:39:13.170,eb:33:2e:f9:57:b5, 2085-97-127 250:90:02:-7534,2.104,-2.26,6.766,148.499,202.148,85.632,-17.468,-21.231,-124.557,-38.9,-58.5,-11.833,25.85,0.3627,0.21027,-0.10287,-0.90198
 13:39:13.199,eb:33:2e:f9:57:b5, 2085-113-58 00:161:230:-5145,0.84,-0.03,1.079,160.4,263.733,48.767,-15.963,-18.276,-124.459,-43.3,-34.3,3.46,25.85,0.3627,0.21027,-0.10287,-0.90198
 13:39:13.199,eb:33:2e:f9:57:b5, 2085-97-44 04:132:250:1822,0.861,-1.415,0.409,179.199,247.07,60.974,-15.084,-16.963,-124.514,-43.3,-34.3,3.46,25.85,0.3627,0.21027,-0.10287,-0.90198
 13:39:13.199,eb:33:2e:f9:57:b5, 2085-97-207 06:105:252:2283,-0.065,-0.857,0.974,202.515,225.83,4.883,-13.074,-14.634,-124.871,-43.3,-34.3,3.46,25.85,0.3627,0.21027,-0.10287,-0.90198
 13:39:13.199,eb:33:2e:f9:57:b5, 2085-97-151 251:71:254:1854,-0.641,-0.111,1.172,221.252,227.051,-31.616,-10.783,-12.409,-125.53,-43.3,-34.3,3.46,25.85,0.3627,0.21027,-0.10287,-0.90198
 13:39:13.259,eb:33:2e:f9:57:b5, 2085-97-07 250:42:01:1925,-0.467,0.119,0.928,216.797,192.688,-24.902,-8.427,-10.453,-126.178,-43.3,-34.3,3.46,25.85,0.3627,0.21027,-0.10287,-0.90198
 13:39:13.259,eb:33:2e:f9:57:b5, 2085-97-88 254:78:01:2304,-0.148,0.217,1.054,186.096,171.57,-15.686,-6.339,-8.69,-126.579,-43.3,-34.3,3.46,25.85,0.3627,0.21027,-0.10287,-0.90198
 13:39:13.259,eb:33:2e:f9:57:b5, 2085-97-136 255:42:01:2336,-0.147,0.178,1.227,153.992,148.193,-32.593,-4.598,-7.125,-126.98,-43.3,-34.3,3.46,25.85,0.3627,0.21027,-0.10287,-0.90198
 13:39:13.259,eb:33:2e:f9:57:b5, 2085-97-38 255:175:00:2143,-0.111,0.082,1.074,125.183,128.235,-19.165,-3.17,-5.779,-127.37,-43.3,-34.3,3.46,25.85,0.3627,0.21027,-0.10287,-0.90198
 13:39:13.261,eb:33:2e:f9:57:b5, 2085-97-239 254:77:01:2191,-0.387,0.112,1.05,94.421,123.291,11.902,-2.082,-4.526,-127.425,-43.3,-34.3,3.46,25.85,0.44193,-0.06506,0.00507,-0.89462
 13:39:13.261,eb:33:2e:f9:57:b5, 2085-97-249 253:55:04:1958,-0.259,0.565,1.013,63.171,87.83,-2.38,-1.291,-3.422,-127.365,-43.3,-34.3,3.46,25.85,0.44193,-0.06506,0.00507,-0.89462
 13:39:13.261,eb:33:2e:f9:57:b5, 2085-97-208 253:151:00:1770,-0.172,0.314,0.9,36.926,51.025,-20.02,-0.824,-2.769,-127.513,-43.3,-34.3,3.46,25.85,0.44193,-0.06506,0.00507,-0.89462
 13:39:13.262,eb:33:2e:f9:57:b5, 2085-97-125 255:243:255:1985,-0.032,-0.015,0.911,31.921,33.63,-13.672,-0.478,-2.357,-127.694,-43.3,-34.3,3.46,25.85,0.44193,-0.06506,0.00507,-0.89462
 13:39:13.349,eb:33:2e:f9:57:b5, 2085-97-120 255:142:00:1951,-0.111,0.031,0.983,28.381,30.09,-7.141,-0.17,-2.049,-127.787,-43.3,-34.3,3.46,25.85,0.44193,-0.06506,0.00507,-0.89462
 13:39:13.349,eb:33:2e:f9:57:b5, 2085-97-76 255:186:00:1927,-0.041,0.092,0.925,23.438,21.851,-8.301,0.088,-1.774,-127.864,-43.3,-34.3,3.46,25.85,0.44193,-0.06506,0.00507,-0.89462
 13:39:13.349,eb:33:2e:f9:57:b5, 2085-97-05 00:56:00:2104,0.039,0.055,0.984,17.944,15.747,-7.263,0.297,-1.599,-127.952,-43.3,-34.3,3.46,25.85,0.44193,-0.06506,0.00507,-0.89462
 13:39:13.349,eb:33:2e:f9:57:b5, 2085-97-40 00:123:00:2142,-0.022,0.026,1.058,14.465,18.433,-2.441,0.461,-1.417,-127.996,-43.3,-34.3,3.46,25.85,0.44193,-0.06506,0.00507,-0.89462
 13:39:13.351,eb:33:2e:f9:57:b5, 2085-97-126 255:201:00:1998,-0.071,0.102,0.996,9.033,19.714,-0.549,0.577,-1.214,-128.002,-43.3,-34.3,3.46,25.85,0.44193,-0.06506,0.00507,-0.89462
 13:39:13.351,eb:33:2e:f9:57:b5, 2085-97-181 255:61:00:2048,-0.003,0.055,0.972,4.883,15.625,-1.465,0.643,-1.027,-128.013,-43.3,-34.3,3.46,25.85,0.44193,-0.06506,0.00507,-0.89462
 13:39:13.351,eb:33:2e:f9:57:b5, 2085-97-228 255:79:00:2090,-0.044,0.031,1.029,3.357,15.076,-0.305,0.687,-0.884,-128.024,-43.3,-34.3,3.46,25.85,0.44193,-0.06506,0.00507,-0.89462
 13:39:13.351,eb:33:2e:f9:57:b5, 2085-97-144 255:22:00:2038,-0.047,0.023,1.004,2.014,14.954,-0.183,0.714,-0.72,-128.018,-43.3,-34.3,3.46,25.85,0.44193,-0.06506,0.00507,-0.89462
 13:39:13.409,eb:33:2e:f9:57:b5, 2085-97-158 255:05:00:2054,-0.052,0.011,1.002,2.319,13.367,0.366,0.742,-0.577,-128.018,-43.3,-34.3,3.46,25.85,0.44193,-0.06506,0.00507,-0.89462
 13:39:13.409,eb:33:2e:f9:57:b5, 2085-97-127 255:13:00:2020,-0.069,0.001,0.999,2.93,12.39,1.343,0.769,-0.439,-128.007,-43.3,-34.3,3.46,25.85,0.44193,-0.06506,0.00507,-0.89462
 13:39:13.409,eb:33:2e:f9:57:b5, 2085-97-93 255:247:255:1981,-0.067,0.01,0.97,3.052,10.193,2.258,0.802,-0.324,-127.985,-43.3,-34.3,3.46,25.85,0.44193,-0.06506,0.00507,-0.89462
 13:39:13.410,eb:33:2e:f9:57:b5, 2085-97-152 255:08:00:2033,-0.051,-0.001,0.98,3.479,8.057,4.211,0.84,-0.231,-127.952,-43.3,-34.3,3.46,25.85,0.44193,-0.06506,0.00507,-0.89462
 13:39:13.440,eb:33:2e:f9:57:b5, 2085-97-153 255:27:00:2012,-0.057,0.004,0.99,3.906,7.812,5.066,0.879,-0.148,-127.903,-43.3,-34.3,3.46,25.85,0.44193,-0.06506,0.00507,-0.89462
