Time,Device name,Chip Time(),Acceleration X(g),Acceleration Y(g),Acceleration Z(g),Angular velocity X(°/s),Angular velocity Y(°/s),Angular velocity Z(°/s),Angle X(°),Angle Y(°),Angle Z(°),Magnetic field X(ʯt),Magnetic field Y(ʯt),Magnetic field Z(ʯt),Temperature(℃),Quaternions 0(),Quaternions 1(),Quaternions 2(),Quaternions 3()
 13:45:29.480,eb:33:2e:f9:57:b5, 2085-97-122 255:112:255:3410,-0.054,-0.105,1.388,163.879,64.453,-73.425,71.631,32.662,-63.105,-56.4,-31.5,-4.86,29.05,0.74249,0.07083,0.01495,-0.66586
 13:45:29.480,eb:33:2e:f9:57:b5, 2085-97-218 255:104:00:4368,0.046,0,1.908,121.033,112.976,-39.001,73.449,33.442,-62.287,-56.4,-31.5,-4.86,29.05,0.74249,0.07083,0.01495,-0.66586
 13:45:29.480,eb:33:2e:f9:57:b5, 2085-97-196 00:227:00:5042,0.146,0.086,2.341,94.116,167.297,-8.667,75.383,34.041,-60.732,-56.4,-31.5,-4.86,29.05,0.74249,0.07083,0.01495,-0.66586
 13:45:29.480,eb:33:2e:f9:57:b5, 2085-97-195 01:215:00:5067,0.318,0.13,2.505,81.604,209.961,14.771,77.487,34.437,-58.48,-56.4,-31.5,-4.86,29.05,0.74249,0.07083,0.01495,-0.66586
 13:45:29.482,eb:33:2e:f9:57:b5, 2085-113-58 00:247:234:-8565,0.365,0.133,2.473,80.261,229.919,29.48,79.832,34.651,-55.794,-56.4,-31.5,-4.86,29.05,0.74249,0.07083,0.01495,-0.66586
 13:45:29.508,eb:33:2e:f9:57:b5, 2085-97-250 02:134:00:4904,0.351,0.106,2.45,83.801,232.117,33.386,81.052,34.684,-54.371,-35.9,-57.1,-21.74,29.05,0.74249,0.07083,0.01495,-0.66586
 13:45:29.508,eb:33:2e:f9:57:b5, 2085-97-159 02:235:255:4710,0.343,0.029,2.315,102.783,214.722,36.987,83.513,34.634,-51.63,-35.9,-57.1,-21.74,29.05,0.74249,0.07083,0.01495,-0.66586
 13:45:29.508,eb:33:2e:f9:57:b5, 2085-97-114 02:238:254:4639,0.243,-0.057,2.323,133.484,178.101,35.95,86.067,34.442,-49.257,-35.9,-57.1,-21.74,29.05,0.74249,0.07083,0.01495,-0.66586
 13:45:29.508,eb:33:2e:f9:57:b5, 2085-97-95 01:168:254:4604,0.146,-0.163,2.221,158.203,133.789,34.18,88.555,34.167,-47.406,-35.9,-57.1,-21.74,29.05,0.74249,0.07083,0.01495,-0.66586
 13:45:29.569,eb:33:2e:f9:57:b5, 2085-97-76 01:229:254:5101,0.167,-0.148,2.362,163.208,93.628,31.86,90.928,33.843,-46.099,-35.9,-57.1,-21.74,29.05,0.74249,0.07083,0.01495,-0.66586
 13:45:29.569,eb:33:2e:f9:57:b5, 2085-97-80 01:168:254:5098,0.149,-0.146,2.529,142.334,79.285,30.945,92.961,33.508,-45.143,-35.9,-57.1,-21.74,29.05,0.74249,0.07083,0.01495,-0.66586
 13:45:29.569,eb:33:2e:f9:57:b5, 2085-97-128 01:173:253:4525,0.229,-0.234,2.375,103.76,77.393,34.79,94.675,33.135,-44.258,-35.9,-57.1,-21.74,29.05,0.74249,0.07083,0.01495,-0.66586
 13:45:29.569,eb:33:2e:f9:57:b5, 2085-97-25 02:134:252:3435,0.251,-0.382,1.94,60.181,72.327,41.077,95.878,32.695,-43.44,-35.9,-57.1,-21.74,29.05,0.74249,0.07083,0.01495,-0.66586
 13:45:29.598,eb:33:2e:f9:57:b5, 2085-97-200 01:249:251:2404,0.217,-0.472,1.417,28.503,43.213,45.471,96.641,32.195,-42.819,-35.9,-57.1,-21.74,29.05,0.52524,0.72174,-0.08505,-0.44257
 13:45:29.598,eb:33:2e:f9:57:b5, 2085-97-184 01:133:251:1657,0.265,-0.528,0.992,-0.122,-14.709,44.861,96.746,31.734,-42.77,-35.9,-57.1,-21.74,29.05,0.52524,0.72174,-0.08505,-0.44257
 13:45:29.598,eb:33:2e:f9:57:b5, 2085-97-103 02:71:251:1066,0.296,-0.583,0.668,-35.706,-82.397,39.795,96.207,31.377,-43.456,-35.9,-57.1,-21.74,29.05,0.52524,0.72174,-0.08505,-0.44257
 13:45:29.598,eb:33:2e:f9:57:b5, 2085-97-69 02:115:251:358,0.28,-0.583,0.341,-83.679,-139.709,34.79,94.807,31.124,-44.868,-35.9,-57.1,-21.74,29.05,0.52524,0.72174,-0.08505,-0.44257
 13:45:29.628,eb:33:2e:f9:57:b5, 2085-97-129 02:83:251:-008,0.372,-0.562,0.043,-139.709,-188.293,31.067,92.648,30.905,-46.862,-35.9,-57.1,-21.74,29.05,0.52524,0.72174,-0.08505,-0.44257
 13:45:29.629,eb:33:2e:f9:57:b5, 2085-97-49 03:145:250:-054,0.4,-0.625,-0.004,-199.158,-220.459,29.236,89.61,30.652,-49.323,-35.9,-57.1,-21.74,29.05,0.52524,0.72174,-0.08505,-0.44257
 13:45:29.629,eb:33:2e:f9:57:b5, 2085-97-45 03:161:250:-451,0.41,-0.704,-0.103,-259.399,-235.779,30.64,85.941,30.267,-51.998,-35.9,-57.1,-21.74,29.05,0.52524,0.72174,-0.08505,-0.44257
 13:45:29.629,eb:33:2e:f9:57:b5, 2085-97-145 03:124:251:-673,0.476,-0.63,-0.296,-319.824,-245.483,32.776,81.573,29.691,-54.761,-35.9,-57.1,-21.74,29.05,0.52524,0.72174,-0.08505,-0.44257
 13:45:29.688,eb:33:2e:f9:57:b5, 2085-97-207 03:104:253:-434,0.477,-0.454,-0.339,-380.859,-252.258,32.837,76.701,28.889,-57.519,-35.9,-57.1,-21.74,29.05,0.52524,0.72174,-0.08505,-0.44257
 13:45:29.688,eb:33:2e:f9:57:b5, 2085-97-152 03:61:255:942,0.397,-0.191,0.128,-427.307,-266.602,28.32,71.241,27.856,-60.293,-35.9,-57.1,-21.74,29.05,0.52524,0.72174,-0.08505,-0.44257
 13:45:29.688,eb:33:2e:f9:57:b5, 2085-97-47 03:74:00:1716,0.412,-0.042,0.688,-444.824,-275.635,19.409,65.588,26.642,-63.067,-35.9,-57.1,-21.74,29.05,0.52524,0.72174,-0.08505,-0.44257
 13:45:29.688,eb:33:2e:f9:57:b5, 2085-97-112 03:110:01:1909,0.414,0.113,0.901,-441.65,-282.349,8.606,59.897,25.219,-65.781,-35.9,-57.1,-21.74,29.05,0.52524,0.72174,-0.08505,-0.44257
 13:45:29.719,eb:33:2e:f9:57:b5, 2085-97-58 03:20:02:2102,0.381,0.233,0.949,-424.927,-294.922,-4.517,54.465,23.643,-68.456,-35.9,-57.1,-21.74,29.05,0.52524,0.72174,-0.08505,-0.44257
 13:45:29.719,eb:33:2e:f9:57:b5, 2085-97-229 02:122:01:2769,0.315,0.252,1.162,-401.367,-312.073,-16.296,49.246,21.824,-71.153,-35.9,-57.1,-21.74,29.05,0.52524,0.72174,-0.08505,-0.44257
 13:45:29.719,eb:33:2e:f9:57:b5, 2085-97-38 02:249:255:3369,0.229,0.089,1.514,-382.141,-313.538,-18.555,44.423,19.808,-73.768,-35.9,-57.1,-21.74,29.05,0.52524,0.72174,-0.08505,-0.44257
 13:45:29.719,eb:33:2e:f9:57:b5, 2085-97-170 01:14:255:3579,0.208,-0.088,1.731,-375.366,-295.593,-7.751,39.858,17.606,-76.053,-35.9,-57.1,-21.74,29.05,0.52524,0.72174,-0.08505,-0.44257
 13:45:29.749,eb:33:2e:f9:57:b5, 2085-97-218 01:159:255:3249,0.27,-0.098,1.677,-381.653,-271.545,8.545,35.568,15.37,-77.871,-35.9,-57.1,-21.74,29.05,0.52524,0.72174,-0.08505,-0.44257
 13:45:29.749,eb:33:2e:f9:57:b5, 2085-97-106 02:242:00:3087,0.311,0.021,1.53,-386.292,-270.325,14.099,31.311,13.019,-79.299,-35.9,-57.1,-21.74,29.05,0.52524,0.72174,-0.08505,-0.44257
 13:45:29.749,eb:33:2e:f9:57:b5, 2085-97-122 02:138:02:3081,0.291,0.227,1.495,-380.554,-294.922,3.54,27.202,10.508,-80.651,-35.9,-57.1,-21.74,29.05,0.52524,0.72174,-0.08505,-0.44257
 13:45:29.749,eb:33:2e:f9:57:b5, 2085-97-233 01:63:03:3374,0.161,0.374,1.548,-367.188,-328.735,-18.188,23.181,7.663,-82.079,-35.9,-57.1,-21.74,29.05,0.52524,0.72174,-0.08505,-0.44257
 13:45:29.808,eb:33:2e:f9:57:b5, 2085-97-106 00:229:02:4258,-0.096,0.401,1.843,-352.905,-350.159,-40.283,19.424,4.581,-83.644,-35.9,-57.1,-21.74,29.05,0.52524,0.72174,-0.08505,-0.44257
 13:45:29.808,eb:33:2e:f9:57:b5, 2085-97-244 253:67:03:4839,-0.436,0.345,2.257,-343.018,-339.478,-51.636,15.815,1.379,-85.15,-35.9,-57.1,-21.74,29.05,0.52524,0.72174,-0.08505,-0.44257
 13:45:29.808,eb:33:2e:f9:57:b5, 2085-97-235 250:04:06:4910,-0.824,0.548,2.4,-333.679,-313.843,-55.054,12.437,-1.642,-86.495,-35.9,-57.1,-21.74,29.05,0.52524,0.72174,-0.08505,-0.44257
 13:45:29.808,eb:33:2e:f9:57:b5, 2085-97-208 247:10:10:5076,-1.246,0.993,2.43,-316.162,-297.18,-56.946,9.19,-4.565,-87.61,-35.9,-57.1,-21.74,29.05,0.52524,0.72174,-0.08505,-0.44257
 13:45:29.870,eb:33:2e:f9:57:b5, 2085-97-46 244:87:14:5251,-1.715,1.522,2.52,-284.79,-291.809,-58.655,6.29,-7.394,-88.61,-49.2,-28.1,-12.04,29.05,0.52524,0.72174,-0.08505,-0.44257
 13:45:29.870,eb:33:2e:f9:57:b5, 2085-97-68 240:29:18:5566,-2.211,2.058,2.623,-234.619,-297.119,-59.509,3.785,-10.316,-89.456,-49.2,-28.1,-12.04,29.05,0.52524,0.72174,-0.08505,-0.44257
 13:45:29.870,eb:33:2e:f9:57:b5, 2085-97-182 236:63:20:5837,-2.56,2.407,2.81,-178.955,-296.753,-54.688,1.895,-13.271,-90.214,-49.2,-28.1,-12.04,29.05,0.52524,0.72174,-0.08505,-0.44257
 13:45:29.870,eb:33:2e:f9:57:b5, 2085-97-133 234:69:23:5708,-2.754,2.699,2.827,-136.536,-268.616,-42.542,0.456,-16.133,-90.764,-49.2,-28.1,-12.04,29.05,0.52524,0.72174,-0.08505,-0.44257
 13:45:29.870,eb:33:2e:f9:57:b5, 2085-97-111 233:234:26:5457,-2.89,3.133,2.768,-110.901,-213.867,-31.982,-0.643,-18.539,-91.165,-49.2,-28.1,-12.04,29.05,0.52524,0.72174,-0.08505,-0.44257
 13:45:29.870,eb:33:2e:f9:57:b5, 2085-97-129 232:148:29:4356,-2.958,3.564,2.421,-87.036,-142.7,-32.227,-1.56,-20.319,-91.45,-49.2,-28.1,-12.04,29.05,0.52524,0.72174,-0.08505,-0.44257
 13:45:29.870,eb:33:2e:f9:57:b5, 2085-97-119 232:160:28:3293,-2.939,3.705,1.833,-42.969,-89.417,-44.739,-2.076,-21.44,-91.851,-49.2,-28.1,-12.04,29.05,0.52524,0.72174,-0.08505,-0.44257
 13:45:29.870,eb:33:2e:f9:57:b5, 2085-97-134 232:106:23:2489,-2.907,3.309,1.406,12.085,-62.073,-57.007,-2.021,-22.198,-92.379,-49.2,-28.1,-12.04,29.05,0.52524,0.72174,-0.08505,-0.44257
 13:45:29.958,eb:33:2e:f9:57:b5, 2085-97-47 243:108:21:7076,-6.309,2.48,1.021,67.078,-44.312,-55.542,-1.368,-22.742,-93.01,-49.2,-28.1,-12.04,29.05,0.67877,-0.14917,-0.11838,-0.70917
 13:45:29.958,eb:33:2e:f9:57:b5, 2085-97-250 232:146:26:3516,-1.581,3.794,4.502,314.087,447.937,-122.192,0.692,-21.758,-93.669,-49.2,-28.1,-12.04,29.05,0.67877,-0.14917,-0.11838,-0.70917
 13:45:29.958,eb:33:2e:f9:57:b5, 2085-97-111 250:207:74:10344,-0.904,8.343,2.349,178.772,606.506,-212.341,4.164,-16.381,-94.883,-49.2,-28.1,-12.04,29.05,0.67877,-0.14917,-0.11838,-0.70917
 13:45:29.958,eb:33:2e:f9:57:b5, 2085-97-14 255:149:31:1030,-5.202,4.709,1.128,-240.723,806.152,-83.984,3.829,-8.707,-96.367,-49.2,-28.1,-12.04,29.05,0.67877,-0.14917,-0.11838,-0.70917
 13:45:29.960,eb:33:2e:f9:57:b5, 2085-97-28 229:115:233:-474,-2.13,-3.682,-0.686,-243.958,557.068,53.223,0.956,-1.752,-96.91,-49.2,-28.1,-12.04,29.05,0.67877,-0.14917,-0.11838,-0.70917
 13:45:29.960,eb:33:2e:f9:57:b5, 2085-97-09 231:12:241:-343,-1.126,-0.958,-0.38,0.122,176.758,-55.542,0.258,1.241,-96.844,-49.2,-28.1,-12.04,29.05,0.67877,-0.14917,-0.11838,-0.70917
 13:45:29.960,eb:33:2e:f9:57:b5, 2085-97-165 244:253:251:-177,-0.211,-0.053,0.236,-0.732,73.364,38.208,0.286,2.236,-96.548,-49.2,-28.1,-12.04,29.05,0.67877,-0.14917,-0.11838,-0.70917
 13:45:29.960,eb:33:2e:f9:57:b5, 2085-97-222 09:158:05:4471,0.313,0.107,0.737,14.526,-7.568,57.068,0.456,2.439,-96.097,-49.2,-28.1,-12.04,29.05,0.67877,-0.14917,-0.11838,-0.70917
 13:45:30.046,eb:33:2e:f9:57:b5, 2085-97-77 254:113:02:1131,0.26,0.65,1.096,7.751,76.843,1.953,0.599,2.955,-95.933,-49.2,-28.1,-12.04,29.05,0.67877,-0.14917,-0.11838,-0.70917
 13:45:30.046,eb:33:2e:f9:57:b5, 2085-97-253 253:120:00:1611,-1.062,0.105,1.344,9.277,68.359,-7.202,0.676,3.56,-95.933,-49.2,-28.1,-12.04,29.05,0.67877,-0.14917,-0.11838,-0.70917
 13:45:30.046,eb:33:2e:f9:57:b5, 2085-97-154 251:238:254:1251,0.188,-0.275,0.048,6.775,32.41,2.38,0.742,4.219,-96.021,-49.2,-28.1,-12.04,29.05,0.67877,-0.14917,-0.11838,-0.70917
 13:45:30.046,eb:33:2e:f9:57:b5, 2085-97-92 00:207:00:2475,0.016,0.181,1.383,9.949,31.799,0.244,0.857,4.411,-95.955,-49.2,-28.1,-12.04,29.05,0.67877,-0.14917,-0.11838,-0.70917
 13:45:30.052,eb:33:2e:f9:57:b5, 2085-97-234 00:41:01:2708,-0.259,0.063,1.281,17.151,43.457,-7.69,0.983,4.801,-96.015,-49.2,-28.1,-12.04,29.05,0.67877,-0.14917,-0.11838,-0.70917
 13:45:30.052,eb:33:2e:f9:57:b5, 2085-97-122 252:166:254:2051,-0.142,-0.056,1.071,19.409,58.594,-13.489,1.176,5.394,-96.136,-49.2,-28.1,-12.04,29.05,0.67877,-0.14917,-0.11838,-0.70917
 13:45:30.052,eb:33:2e:f9:57:b5, 2085-97-07 00:211:255:2988,-0.116,-0.109,1.366,21.301,53.101,-5.676,1.362,5.905,-96.224,-49.2,-28.1,-12.04,29.05,0.67877,-0.14917,-0.11838,-0.70917
 13:45:30.052,eb:33:2e:f9:57:b5, 2085-97-208 253:190:254:2584,-0.24,-0.05,1.317,27.71,63.599,-4.089,1.62,6.537,-96.268,-49.2,-28.1,-12.04,29.05,0.67877,-0.14917,-0.11838,-0.70917
 13:45:30.139,eb:33:2e:f9:57:b5, 2085-97-255 254:22:00:2932,-0.032,-0.143,1.311,39.062,48.218,9.155,1.961,7.086,-96.251,-49.2,-28.1,-12.04,29.05,0.67877,-0.14917,-0.11838,-0.70917
 13:45:30.139,eb:33:2e:f9:57:b5, 2085-97-114 255:182:255:3974,-0.183,0.066,1.65,64.758,35.034,12.451,2.505,7.504,-96.125,-49.2,-28.1,-12.04,29.05,0.67877,-0.14917,-0.11838,-0.70917
 13:45:30.139,eb:33:2e:f9:57:b5, 2085-97-229 253:142:250:6262,-0.349,-0.395,2.612,119.873,31.555,7.812,3.444,7.795,-96.048,-49.2,-28.1,-12.04,29.05,0.67877,-0.14917,-0.11838,-0.70917
 13:45:30.139,eb:33:2e:f9:57:b5, 2085-97-139 252:148:248:6875,-0.286,-0.744,3.11,205.2,41.87,22.583,5.153,8.212,-95.85,-49.2,-28.1,-12.04,29.05,0.67877,-0.14917,-0.11838,-0.70917
 13:45:30.139,eb:33:2e:f9:57:b5, 2085-97-69 255:149:247:7497,0.261,-1.095,3.585,285.706,49.011,42.908,7.696,8.597,-95.504,-49.2,-28.1,-12.04,29.05,0.67877,-0.14917,-0.11838,-0.70917
 13:45:30.139,eb:33:2e:f9:57:b5, 2085-97-75 04:235:247:7424,0.832,-0.99,3.685,367.981,78.857,54.504,11.118,9.163,-94.889,-49.2,-28.1,-12.04,29.05,0.67877,-0.14917,-0.11838,-0.70917
 13:45:30.140,eb:33:2e:f9:57:b5, 2085-97-195 06:45:251:7443,1.123,-0.921,3.678,426.636,139.893,52.551,15.271,10.102,-94.147,-49.2,-28.1,-12.04,29.05,0.67877,-0.14917,-0.11838,-0.70917
 13:45:30.140,eb:33:2e:f9:57:b5, 2085-97-78 11:252:249:7010,1.169,-0.602,3.613,479.736,216.064,34.18,20.012,11.7,-93.131,-49.2,-28.1,-12.04,29.05,0.67877,-0.14917,-0.11838,-0.70917
 13:45:30.170,eb:33:2e:f9:57:b5, 2085-97-139 05:122:251:7125,0.647,-0.846,3.156,529.907,270.02,-17.273,25.329,13.997,-92.104,-49.4,-33.5,-8.413,29.05,0.67877,-0.14917,-0.11838,-0.70917
 13:45:30.170,eb:33:2e:f9:57:b5, 2085-97-162 02:166:249:8901,0.401,-0.747,4.317,576.965,298.157,-57.556,31.152,16.661,-91.17,-49.4,-33.5,-8.413,29.05,0.67877,-0.14917,-0.11838,-0.70917
 13:45:30.170,eb:33:2e:f9:57:b5, 2085-97-140 02:222:254:6143,0.284,-0.653,3.759,593.14,315.063,-55.603,37.485,19.578,-89.841,-49.4,-33.5,-8.413,29.05,0.67877,-0.14917,-0.11838,-0.70917
 13:45:30.170,eb:33:2e:f9:57:b5, 2085-97-17 00:241:04:6124,-0.026,0.029,2.886,548.645,300.781,-57.678,43.742,22.231,-88.209,-49.4,-33.5,-8.413,29.05,0.67877,-0.14917,-0.11838,-0.70917
 13:45:30.200,eb:33:2e:f9:57:b5, 2085-97-61 255:79:05:3028,-0.045,0.395,2.43,490.662,313.049,-57.8,49.757,24.758,-86.259,-49.4,-33.5,-8.413,29.05,0.67877,-0.14917,-0.11838,-0.70917
 13:45:30.200,eb:33:2e:f9:57:b5, 2085-97-228 03:181:00:-370,0.599,0.451,0.436,380.188,306.396,-52.551,55.085,27.125,-83.881,-49.4,-33.5,-8.413,29.05,0.67877,-0.14917,-0.11838,-0.70917
 13:45:30.200,eb:33:2e:f9:57:b5, 2085-97-216 246:63:18:-4352,-0.986,0.062,0.467,346.313,362.854,-8.911,59.897,29.207,-81.041,-49.4,-33.5,-8.413,29.05,0.67877,-0.14917,-0.11838,-0.70917
 13:45:30.200,eb:33:2e:f9:57:b5, 2085-113-81 00:164:69:17647,-0.078,1.574,-1.453,209.839,202.148,-39.917,64.05,30.828,-78.431,-49.4,-33.5,-8.413,29.05,0.67877,-0.14917,-0.11838,-0.70917
 13:45:30.229,eb:33:2e:f9:57:b5, 2085-97-170 253:89:05:1380,-0.2,0.634,0.496,143.127,194.824,-14.038,65.402,31.355,-77.465,-49.4,-33.5,-8.413,29.05,0.54407,0.53854,-0.14862,-0.62592
 13:45:30.229,eb:33:2e:f9:57:b5, 2085-97-176 254:246:03:3716,-0.042,0.616,1.327,41.626,208.374,13.733,67.313,32.13,-75.383,-49.4,-33.5,-8.413,29.05,0.54407,0.53854,-0.14862,-0.62592
 13:45:30.229,eb:33:2e:f9:57:b5, 2085-97-198 00:232:05:4962,0.163,0.585,2.186,19.348,245.667,43.152,68.978,32.706,-72.729,-49.4,-33.5,-8.413,29.05,0.54407,0.53854,-0.14862,-0.62592
 13:45:30.229,eb:33:2e:f9:57:b5, 2085-97-151 01:73:07:5391,0.216,0.854,2.549,59.814,249.512,58.96,70.977,33.069,-69.725,-49.4,-33.5,-8.413,29.05,0.54407,0.53854,-0.14862,-0.62592
 13:45:30.288,eb:33:2e:f9:57:b5, 2085-97-03 02:96:06:5917,0.325,0.893,2.74,124.268,228.882,62.195,73.526,33.217,-66.797,-49.4,-33.5,-8.413,29.05,0.54407,0.53854,-0.14862,-0.62592
 13:45:30.288,eb:33:2e:f9:57:b5, 2085-97-48 03:148:04:6820,0.48,0.719,3.113,181.702,202.942,55.115,76.525,33.212,-64.149,-49.4,-33.5,-8.413,29.05,0.54407,0.53854,-0.14862,-0.62592
 13:45:30.288,eb:33:2e:f9:57:b5, 2085-97-231 03:30:01:7281,0.438,0.382,3.504,227.783,181.335,44.006,79.893,33.124,-61.826,-49.4,-33.5,-8.413,29.05,0.54407,0.53854,-0.14862,-0.62592
 13:45:30.288,eb:33:2e:f9:57:b5, 2085-97-15 03:60:253:6930,0.346,-0.12,3.514,259.46,161.987,35.889,83.452,32.986,-59.766,-49.4,-33.5,-8.413,29.05,0.54407,0.53854,-0.14862,-0.62592
 13:45:30.319,eb:33:2e:f9:57:b5, 2085-97-213 02:214:250:6311,0.408,-0.548,3.184,275.146,140.198,29.602,87.138,32.789,-57.975,-49.4,-33.5,-8.413,29.05,0.54407,0.53854,-0.14862,-0.62592
 13:45:30.319,eb:33:2e:f9:57:b5, 2085-97-175 03:226:251:6678,0.415,-0.615,3.122,264.404,126.587,25.391,90.648,32.547,-56.442,-49.4,-33.5,-8.413,29.05,0.54407,0.53854,-0.14862,-0.62592
 13:45:30.319,eb:33:2e:f9:57:b5, 2085-97-185 02:45:253:6845,0.288,-0.436,3.343,229.736,130.005,15.442,93.917,32.294,-54.954,-49.4,-33.5,-8.413,29.05,0.54407,0.53854,-0.14862,-0.62592
 13:45:30.319,eb:33:2e:f9:57:b5, 2085-97-73 02:228:252:6592,0.262,-0.325,3.289,194.214,123.474,0.244,96.751,32.108,-53.492,-49.4,-33.5,-8.413,29.05,0.54407,0.53854,-0.14862,-0.62592
 13:45:30.380,eb:33:2e:f9:57:b5, 2085-97-79 01:170:250:5844,0.008,-0.508,3.075,170.715,100.281,-14.893,99.256,32.036,-52.18,-49.4,-33.5,-8.413,29.05,0.54407,0.53854,-0.14862,-0.62592
 13:45:30.380,eb:33:2e:f9:57:b5, 2085-97-130 255:211:246:5077,-0.043,-0.894,2.614,156.372,55.237,-21.362,101.305,32.102,-51.279,-49.4,-33.5,-8.413,29.05,0.54407,0.53854,-0.14862,-0.62592
 13:45:30.380,eb:33:2e:f9:57:b5, 2085-97-61 00:169:243:4574,0.126,-1.365,2.384,142.822,13.367,-14.465,103.013,32.217,-50.9,-49.4,-33.5,-8.413,29.05,0.54407,0.53854,-0.14862,-0.62592
 13:45:30.380,eb:33:2e:f9:57:b5, 2085-97-250 01:210:241:3749,0.338,-1.682,2.04,119.995,-4.395,0.671,104.271,32.294,-50.894,-49.4,-33.5,-8.413,29.05,0.54407,0.53854,-0.14862,-0.62592
 13:45:30.468,eb:33:2e:f9:57:b5, 2085-97-88 03:233:241:2504,0.418,-1.824,1.544,86.609,-9.644,21.851,105.233,32.195,-51.026,-49.4,-33.5,-8.413,29.05,0.54407,0.53854,-0.14862,-0.62592
 13:45:30.468,eb:33:2e:f9:57:b5, 2085-97-147 03:114:244:514,0.393,-1.608,0.798,36.377,-24.536,43.274,105.612,31.932,-51.356,-49.4,-33.5,-8.413,29.05,0.54407,0.53854,-0.14862,-0.62592
 13:45:30.468,eb:33:2e:f9:57:b5, 2085-97-225 04:190:242:-6370,0.732,-1.523,-1.294,-52.734,-71.228,56.396,105.194,31.564,-52.042,-49.4,-33.5,-8.413,29.05,0.54407,0.53854,-0.14862,-0.62592
 13:45:30.468,eb:33:2e:f9:57:b5, 2085-97-55 08:51:237:-6010,0.998,-2.229,-4.169,-237.061,-163.025,73.547,102.865,31.289,-53.564,-49.4,-33.5,-8.413,29.05,0.54407,0.53854,-0.14862,-0.62592
 13:45:30.470,eb:33:2e:f9:57:b5, 2085-97-51 07:28:244:-1273,0.807,-1.977,-1.405,-363.464,-240.54,78.918,98.377,30.894,-56.135,-30.1,-60.9,-9.967,29.05,0.54407,0.53854,-0.14862,-0.62592
 13:45:30.470,eb:33:2e:f9:57:b5, 2085-97-232 06:54:244:-1245,0.929,-1.433,-0.593,-430.664,-289.307,71.472,92.637,30.416,-59.359,-30.1,-60.9,-9.967,29.05,0.54407,0.53854,-0.14862,-0.62592
 13:45:30.470,eb:33:2e:f9:57:b5, 2085-97-109 07:209:245:-313,0.868,-1.425,-0.469,-472.29,-326.172,65.857,86.298,29.707,-62.968,-30.1,-60.9,-9.967,29.05,0.54407,0.53854,-0.14862,-0.62592
 13:45:30.470,eb:33:2e:f9:57:b5, 2085-97-52 06:64:249:1190,0.658,-1.073,0.227,-504.15,-342.346,59.509,79.508,28.669,-66.736,-30.1,-60.9,-9.967,29.05,0.54407,0.53854,-0.14862,-0.62592
 13:45:30.474,eb:33:2e:f9:57:b5, 2085-97-121 04:146:252:2352,0.535,-0.622,0.888,-521.057,-352.844,48.218,72.631,27.312,-70.444,-30.1,-60.9,-9.967,29.05,0.54407,0.53854,-0.14862,-0.62592
 13:45:30.474,eb:33:2e:f9:57:b5, 2085-97-126 04:230:255:3183,0.583,-0.233,1.389,-524.719,-356.995,30.579,65.737,25.67,-74.042,-30.1,-60.9,-9.967,29.05,0.54407,0.53854,-0.14862,-0.62592
 13:45:30.474,eb:33:2e:f9:57:b5, 2085-97-244 03:204:02:3194,0.415,0.216,1.611,-519.47,-353.027,0.549,59.09,23.895,-77.459,-30.1,-60.9,-9.967,29.05,0.54407,0.53854,-0.14862,-0.62592
 13:45:30.474,eb:33:2e:f9:57:b5, 2085-97-104 02:127:03:3476,0.127,0.407,1.634,-508.85,-357.361,-33.813,52.597,22.033,-80.799,-30.1,-60.9,-9.967,29.05,0.54407,0.53854,-0.14862,-0.62592
 13:45:30.558,eb:33:2e:f9:57:b5, 2085-97-221 255:201:01:3597,-0.14,0.386,1.687,-499.634,-355.957,-57.19,46.395,20.083,-84.073,-30.1,-60.9,-9.967,29.05,0.54407,0.53854,-0.14862,-0.62592
 13:45:30.558,eb:33:2e:f9:57:b5, 2085-97-46 254:223:254:4236,-0.314,0.012,1.896,-487.854,-345.886,-54.81,40.424,17.908,-87.1,-30.1,-60.9,-9.967,29.05,0.54407,0.53854,-0.14862,-0.62592
 13:45:30.558,eb:33:2e:f9:57:b5, 2085-97-237 252:82:254:4580,-0.428,-0.222,2.2,-478.027,-309.631,-26.123,34.898,15.568,-89.561,-30.1,-60.9,-9.967,29.05,0.54407,0.53854,-0.14862,-0.62592
 13:45:30.558,eb:33:2e:f9:57:b5, 2085-97-216 252:32:00:4050,-0.334,-0.124,2.124,-467.712,-279.297,10.01,29.696,13.118,-91.23,-30.1,-60.9,-9.967,29.05,0.54407,0.53854,-0.14862,-0.62592
 13:45:30.558,eb:33:2e:f9:57:b5, 2085-97-237 253:143:02:3596,-0.173,0.164,1.835,-448.73,-287.537,32.288,24.89,10.519,-92.357,-30.1,-60.9,-9.967,29.05,0.54407,0.53854,-0.14862,-0.62592
 13:45:30.558,eb:33:2e:f9:57:b5, 2085-97-229 254:230:03:3800,-0.145,0.441,1.782,-418.396,-324.28,32.715,20.363,7.526,-93.235,-30.1,-60.9,-9.967,29.05,0.54407,0.53854,-0.14862,-0.62592
 13:45:30.559,eb:33:2e:f9:57:b5, 2085-97-184 254:177:03:4513,-0.261,0.463,1.995,-395.264,-360.962,23.132,16.243,4.153,-94.098,-30.1,-60.9,-9.967,29.05,0.54407,0.53854,-0.14862,-0.62592
 13:45:30.559,eb:33:2e:f9:57:b5, 2085-97-106 252:83:06:4986,-0.648,0.573,2.351,-396.667,-363.525,15.747,12.206,0.544,-94.812,-30.1,-60.9,-9.967,29.05,0.54407,0.53854,-0.14862,-0.62592
 13:45:30.618,eb:33:2e:f9:57:b5, 2085-97-43 249:235:10:5582,-1.064,1.069,2.557,-396.729,-366.333,3.662,8.24,-3.054,-95.394,-30.1,-60.9,-9.967,29.05,0.66278,0.19104,-0.08792,-0.7186
 13:45:30.618,eb:33:2e:f9:57:b5, 2085-97-143 245:190:15:6428,-1.613,1.658,2.935,-376.709,-368.591,-13.367,4.351,-6.746,-95.85,-30.1,-60.9,-9.967,29.05,0.66278,0.19104,-0.08792,-0.7186
 13:45:30.618,eb:33:2e:f9:57:b5, 2085-97-242 239:85:22:6975,-2.232,2.33,3.26,-332.153,-352.478,-30.09,0.857,-10.333,-96.268,-30.1,-60.9,-9.967,29.05,0.66278,0.19104,-0.08792,-0.7186
 13:45:30.618,eb:33:2e:f9:57:b5, 2085-97-159 236:214:26:7946,-2.63,3.123,3.676,-254.7,-328.308,-52.185,-1.989,-13.777,-96.663,-30.1,-60.9,-9.967,29.05,0.66278,0.19104,-0.08792,-0.7186
 13:45:30.679,eb:33:2e:f9:57:b5, 2085-97-98 233:126:29:7528,-3.049,3.517,3.854,-207.397,-273.804,-67.749,-4.12,-16.804,-97.152,-30.1,-60.9,-9.967,29.05,0.66278,0.19104,-0.08792,-0.7186
 13:45:30.679,eb:33:2e:f9:57:b5, 2085-97-94 230:175:34:6944,-3.267,3.953,3.474,-189.148,-215.027,-78.43,-5.944,-19.286,-97.696,-30.1,-60.9,-9.967,29.05,0.66278,0.19104,-0.08792,-0.7186
 13:45:30.679,eb:33:2e:f9:57:b5, 2085-97-245 229:221:39:6283,-3.228,4.724,3.269,-162.354,-159.668,-99.609,-7.46,-21.226,-98.427,-30.1,-60.9,-9.967,29.05,0.66278,0.19104,-0.08792,-0.7186
 13:45:30.679,eb:33:2e:f9:57:b5, 2085-97-82 230:44:39:5305,-2.925,5.066,2.817,-109.375,-99.609,-128.479,-8.438,-22.648,-99.476,-30.1,-60.9,-9.967,29.05,0.66278,0.19104,-0.08792,-0.7186
 13:45:30.708,eb:33:2e:f9:57:b5, 2085-97-203 226:174:45:20932,-5.591,4.547,2.72,24.658,-188.721,-116.15,-8.569,-23.708,-100.805,-30.1,-60.9,-9.967,29.05,0.66278,0.19104,-0.08792,-0.7186
 13:45:30.708,eb:33:2e:f9:57:b5, 2085-97-63 240:107:54:6977,-2.652,5.475,4.166,187.134,412.659,-176.27,-6.427,-21.495,-103.024,-30.1,-60.9,-9.967,29.05,0.66278,0.19104,-0.08792,-0.7186
 13:45:30.708,eb:33:2e:f9:57:b5, 2085-97-187 222:47:60:4818,-4.564,7.076,4.327,133.85,810.547,-178.467,-4.043,-15.09,-105.683,-30.1,-60.9,-9.967,29.05,0.66278,0.19104,-0.08792,-0.7186
 13:45:30.708,eb:33:2e:f9:57:b5, 2085-97-68 213:249:249:-1940,-1.967,3.699,1.718,163.513,590.393,-312.561,-2.104,-7.971,-108.572,-30.1,-60.9,-9.967,29.05,0.66278,0.19104,-0.08792,-0.7186
 13:45:30.738,eb:33:2e:f9:57:b5, 2085-97-195 243:172:255:2315,-0.352,0.026,1.006,42.053,301.392,-41.748,-0.983,-4.136,-110.072,-30.1,-60.9,-9.967,29.05,0.66278,0.19104,-0.08792,-0.7186
 13:45:30.738,eb:33:2e:f9:57:b5, 2085-97-06 04:217:254:2534,-0.644,-0.643,1.603,18.433,104.126,67.383,-0.736,-2.725,-109.764,-30.1,-60.9,-9.967,29.05,0.66278,0.19104,-0.08792,-0.7186
 13:45:30.738,eb:33:2e:f9:57:b5, 2085-97-62 245:255:255:576,1.275,-0.511,0.793,47.363,158.508,-21.667,-0.527,-0.978,-109.567,-30.1,-60.9,-9.967,29.05,0.66278,0.19104,-0.08792,-0.7186
 13:45:30.738,eb:33:2e:f9:57:b5, 2085-97-161 01:149:06:855,-1.339,1.19,2.243,12.695,165.466,49.622,-0.033,-0.077,-109.067,-30.1,-60.9,-9.967,29.05,0.66278,0.19104,-0.08792,-0.7186
 13:45:30.770,eb:33:2e:f9:57:b5, 2085-97-29 255:223:05:371,0.05,0.189,-1.137,18.494,64.087,1.16,0.187,1.291,-109.193,-30.1,-60.9,-9.967,29.05,0.66278,0.19104,-0.08792,-0.7186
 13:45:30.770,eb:33:2e:f9:57:b5, 2085-97-61 249:177:254:544,-0.822,-0.23,1.719,10.376,77.454,-24.292,0.269,1.846,-109.308,-30.1,-60.9,-9.967,29.05,0.66278,0.19104,-0.08792,-0.7186
 13:45:30.770,eb:33:2e:f9:57:b5, 2085-97-88 252:67:255:1494,-0.403,-0.346,0.414,11.23,13.855,-4.395,0.368,2.274,-109.462,-30.1,-60.9,-9.967,29.05,0.66278,0.19104,-0.08792,-0.7186
 13:45:30.770,eb:33:2e:f9:57:b5, 2085-97-114 04:167:01:3969,0.581,-0.062,0.91,10.986,-2.991,1.404,0.489,2.373,-109.484,-30.1,-60.9,-9.967,29.05,0.66278,0.19104,-0.08792,-0.7186
 13:45:30.799,eb:33:2e:f9:57:b5, 2085-97-11 02:219:01:3244,0.125,0.251,2.004,12.695,78.308,-12.512,0.61,2.752,-109.556,-53.4,-39.5,-2.067,29.05,0.66278,0.19104,-0.08792,-0.7186
 13:45:30.799,eb:33:2e:f9:57:b5, 2085-97-215 251:12:253:1827,-0.697,-0.034,1.522,6.958,122.681,-13.428,0.72,3.796,-109.688,-53.4,-39.5,-2.067,29.05,0.66278,0.19104,-0.08792,-0.7186
 13:45:30.799,eb:33:2e:f9:57:b5, 2085-97-71 252:54:255:1852,-0.31,-0.272,0.724,15.015,77.148,8.179,0.829,4.828,-109.709,-53.4,-39.5,-2.067,29.05,0.66278,0.19104,-0.08792,-0.7186
 13:45:30.799,eb:33:2e:f9:57:b5, 2085-97-137 253:244:252:3691,-0.421,-0.206,1.247,24.841,43.457,20.752,1.044,5.427,-109.539,-53.4,-39.5,-2.067,29.05,0.66278,0.19104,-0.08792,-0.7186
 13:45:30.859,eb:33:2e:f9:57:b5, 2085-97-199 251:176:250:5257,-0.471,-0.512,2.189,60.974,36.804,41.687,1.505,5.806,-109.243,-53.4,-39.5,-2.067,29.05,0.66278,0.19104,-0.08792,-0.7186
 13:45:30.859,eb:33:2e:f9:57:b5, 2085-97-228 251:110:248:6639,-0.274,-0.662,2.899,164.734,-14.16,55.176,2.708,5.916,-108.737,-53.4,-39.5,-2.067,29.05,0.66278,0.19104,-0.08792,-0.7186
 13:45:30.859,eb:33:2e:f9:57:b5, 2085-113-81 00:183:74:2140,0.024,-1.004,3.457,268.188,-23.315,65.552,4.993,5.63,-108.144,-53.4,-39.5,-2.067,29.05,0.66278,0.19104,-0.08792,-0.7186
 13:45:30.859,eb:33:2e:f9:57:b5, 2085-97-07 03:207:246:8833,0.722,-1.021,3.797,314.819,-10.437,61.462,6.509,5.515,-107.836,-53.4,-39.5,-2.067,29.05,0.66278,0.19104,-0.08792,-0.7186
 13:45:30.859,eb:33:2e:f9:57:b5, 2085-97-44 08:211:246:9568,1.324,-1.04,4.545,401.855,65.918,60.12,10.212,5.729,-107.188,-53.4,-39.5,-2.067,29.05,0.66278,0.19104,-0.08792,-0.7186
 13:45:30.888,eb:33:2e:f9:57:b5, 2085-97-233 12:185:248:8360,1.686,-1.23,4.476,470.703,185.242,61.584,14.733,6.861,-106.304,-53.4,-39.5,-2.067,29.05,0.58371,0.06531,-0.00644,-0.80923
 13:45:30.888,eb:33:2e:f9:57:b5, 2085-97-206 15:111:250:7913,1.772,-0.359,3.765,529.785,269.714,31.128,19.929,8.981,-105.068,-53.4,-39.5,-2.067,29.05,0.58371,0.06531,-0.00644,-0.80923
 13:45:30.888,eb:33:2e:f9:57:b5, 2085-97-208 09:157:248:7952,0.917,-1.07,3.667,588.196,342.041,-35.95,25.768,11.904,-103.942,-53.4,-39.5,-2.067,29.05,0.58371,0.06531,-0.00644,-0.80923
 13:45:30.888,eb:33:2e:f9:57:b5, 2085-97-51 06:101:247:11071,0.66,-0.81,4.887,627.625,363.708,-89.722,32.141,15.342,-102.805,-53.4,-39.5,-2.067,29.05,0.58371,0.06531,-0.00644,-0.80923
 13:45:30.918,eb:33:2e:f9:57:b5, 2085-97-25 07:123:250:8286,0.306,-0.696,4.746,654.236,364.075,-98.633,39.073,18.918,-101.354,-53.4,-39.5,-2.067,29.05,0.58371,0.06531,-0.00644,-0.80923
 13:45:30.918,eb:33:2e:f9:57:b5, 2085-97-225 255:118:05:7050,0.248,-0.073,3.318,610.535,374.573,-94.604,46.066,22.302,-99.377,-53.4,-39.5,-2.067,29.05,0.58371,0.06531,-0.00644,-0.80923
 13:45:30.918,eb:33:2e:f9:57:b5, 2085-97-112 255:167:00:3430,0.008,0.406,3.333,518.799,420.593,-94.421,52.734,25.565,-96.888,-53.4,-39.5,-2.067,29.05,0.58371,0.06531,-0.00644,-0.80923
 13:45:30.918,eb:33:2e:f9:57:b5, 2085-97-70 05:224:250:926,-1.433,-0.375,-0.046,374.634,442.2,-54.504,58.782,28.63,-93.268,-53.4,-39.5,-2.067,29.05,0.58371,0.06531,-0.00644,-0.80923
 13:45:30.980,eb:33:2e:f9:57:b5, 2085-97-169 251:171:06:-2417,-0.034,2.51,-3.638,260.62,387.512,-23.315,64.539,30.976,-88.522,-53.4,-39.5,-2.067,29.05,0.58371,0.06531,-0.00644,-0.80923
 13:45:30.980,eb:33:2e:f9:57:b5, 2085-97-124 255:80:09:1646,0.002,0.416,0.28,103.76,285.278,34.729,67.939,32.168,-85.084,-53.4,-39.5,-2.067,29.05,0.58371,0.06531,-0.00644,-0.80923
 13:45:30.980,eb:33:2e:f9:57:b5, 2085-97-55 01:150:10:5692,0.336,1.221,1.961,54.443,259.888,37.598,70.247,32.761,-82.024,-53.4,-39.5,-2.067,29.05,0.58371,0.06531,-0.00644,-0.80923
 13:45:30.980,eb:33:2e:f9:57:b5, 2085-97-93 03:96:14:7219,0.5,1.607,3.293,108.215,266.724,26.123,72.719,33.311,-78.915,-53.4,-39.5,-2.067,29.05,0.58371,0.06531,-0.00644,-0.80923
 13:45:31.009,eb:33:2e:f9:57:b5, 2085-97-142 04:167:12:7076,0.625,1.78,3.567,199.28,247.314,-0.916,75.97,33.893,-75.916,-53.4,-39.5,-2.067,29.4,0.58371,0.06531,-0.00644,-0.80923
 13:45:31.009,eb:33:2e:f9:57:b5, 2085-97-38 05:219:08:6900,0.683,1.333,3.36,267.029,217.834,-26.55,79.865,34.541,-73.229,-53.4,-39.5,-2.067,29.4,0.58371,0.06531,-0.00644,-0.80923
 13:45:31.009,eb:33:2e:f9:57:b5, 2085-97-32 06:27:05:7814,0.884,0.89,3.542,299.5,188.11,-45.166,84.089,35.2,-70.884,-53.4,-39.5,-2.067,29.4,0.58371,0.06531,-0.00644,-0.80923
 13:45:31.009,eb:33:2e:f9:57:b5, 2085-97-213 07:243:255:8389,1.039,0.332,4.057,301.636,178.772,-54.626,88.352,35.837,-68.73,-53.4,-39.5,-2.067,29.4,0.58371,0.06531,-0.00644,-0.80923
 13:45:31.039,eb:33:2e:f9:57:b5, 2085-97-156 08:136:251:7077,1.109,-0.326,3.874,280.518,183.96,-52.49,92.598,36.365,-66.478,-53.4,-39.5,-2.067,29.4,0.58371,0.06531,-0.00644,-0.80923
 13:45:31.039,eb:33:2e:f9:57:b5, 2085-97-12 09:195:248:5466,1.149,-0.75,2.985,241.76,173.218,-44.128,96.515,36.705,-64.226,-53.4,-39.5,-2.067,29.4,0.58371,0.06531,-0.00644,-0.80923
 13:45:31.039,eb:33:2e:f9:57:b5, 2085-97-119 08:46:249:4761,0.994,-0.89,2.477,198.853,145.203,-30.151,99.91,36.837,-62.205,-53.4,-39.5,-2.067,29.4,0.58371,0.06531,-0.00644,-0.80923
 13:45:31.039,eb:33:2e:f9:57:b5, 2085-97-20 07:39:249:4592,0.711,-0.822,2.254,165.344,99.67,-21.362,102.579,36.859,-60.688,-53.4,-39.5,-2.067,29.4,0.58371,0.06531,-0.00644,-0.80923
 13:45:31.099,eb:33:2e:f9:57:b5, 2085-97-68 04:131:246:4480,0.457,-0.987,2.234,147.461,40.588,-10.498,104.65,36.854,-59.81,-53.4,-39.5,-2.067,29.4,0.58371,0.06531,-0.00644,-0.80923
 13:45:31.099,eb:33:2e:f9:57:b5, 2085-97-48 04:01:244:4477,0.613,-1.371,2.156,142.334,-24.78,8.85,106.062,36.865,-59.804,-53.4,-39.5,-2.067,29.4,0.58371,0.06531,-0.00644,-0.80923
 13:45:31.099,eb:33:2e:f9:57:b5, 2085-97-216 05:234:241:4253,0.872,-1.648,2.161,125.061,-52.246,31.372,107.051,36.788,-60.397,-53.4,-39.5,-2.067,29.4,0.58371,0.06531,-0.00644,-0.80923
 13:45:31.099,eb:33:2e:f9:57:b5, 2085-97-199 07:153:241:3119,1.049,-1.798,1.883,93.018,-43.152,53.223,107.622,36.535,-61.199,-53.4,-39.5,-2.067,29.4,0.58371,0.06531,-0.00644,-0.80923
 13:45:31.129,eb:33:2e:f9:57:b5, 2085-97-212 08:68:242:1346,1.116,-1.775,1.083,48.828,-26.245,71.289,107.941,36.03,-61.826,-53.4,-39.5,-2.067,29.4,0.58371,0.06531,-0.00644,-0.80923
 13:45:31.129,eb:33:2e:f9:57:b5, 2085-97-111 09:238:242:-3139,1.309,-1.622,0.12,-6.531,-31.25,84.717,107.721,35.37,-62.474,-53.4,-39.5,-2.067,29.4,0.58371,0.06531,-0.00644,-0.80923
 13:45:31.129,eb:33:2e:f9:57:b5, 2085-97-248 10:27:239:-7782,1.494,-1.781,-3.163,-134.094,-119.629,75.378,106.353,34.816,-63.616,-53.4,-39.5,-2.067,29.4,0.58371,0.06531,-0.00644,-0.80923
 13:45:31.129,eb:33:2e:f9:57:b5, 2085-97-172 11:42:244:-2097,1.423,-1.894,-2.561,-291.626,-238.831,76.538,102.634,34.53,-66.127,-53.4,-39.5,-2.067,29.4,0.58371,0.06531,-0.00644,-0.80923
 13:45:31.159,eb:33:2e:f9:57:b5, 2085-97-50 10:30:246:285,1.207,-1.196,-0.107,-381.775,-296.143,59.509,97.24,34.354,-69.571,-53.4,-39.5,-2.067,29.4,0.58371,0.06531,-0.00644,-0.80923
 13:45:31.159,eb:33:2e:f9:57:b5, 2085-97-199 09:183:244:274,1.199,-1.374,0.112,-435.059,-324.341,50.903,90.917,34.041,-73.411,-53.4,-39.5,-2.067,29.4,0.58371,0.06531,-0.00644,-0.80923
 13:45:31.159,eb:33:2e:f9:57:b5, 2085-97-06 09:19:246:1061,1.047,-1.341,0.285,-472.107,-342.529,52.002,84.133,33.393,-77.421,-53.4,-39.5,-2.067,29.4,0.58371,0.06531,-0.00644,-0.80923
 13:45:31.159,eb:33:2e:f9:57:b5, 2085-97-174 07:180:247:2098,0.886,-1.138,0.78,-500.427,-355.713,57.068,77.025,32.278,-81.458,-53.4,-39.5,-2.067,29.4,0.58371,0.06531,-0.00644,-0.80923
 13:45:31.218,eb:33:2e:f9:57:b5, 2085-97-157 06:34:249:3013,0.779,-0.939,1.25,-516.479,-369.141,62.744,69.895,30.663,-85.347,-53.4,-39.5,-2.067,29.4,0.58371,0.06531,-0.00644,-0.80923
 13:45:31.218,eb:33:2e:f9:57:b5, 2085-97-181 05:236:249:3884,0.661,-0.794,1.698,-521.301,-382.446,69.397,62.831,28.537,-89.039,-53.4,-39.5,-2.067,29.4,0.58371,0.06531,-0.00644,-0.80923
 13:45:31.218,eb:33:2e:f9:57:b5, 2085-97-62 05:05:250:4816,0.652,-0.754,2.115,-518.555,-389.282,78.247,56.107,25.928,-92.384,-53.4,-39.5,-2.067,29.4,0.58371,0.06531,-0.00644,-0.80923
 13:45:31.218,eb:33:2e:f9:57:b5, 2085-97-12 05:170:250:5506,0.61,-0.719,2.543,-512.878,-378.662,88.501,49.735,22.923,-95.224,-53.4,-39.5,-2.067,29.4,0.58371,0.06531,-0.00644,-0.80923
 13:45:31.249,eb:33:2e:f9:57:b5, 2085-97-227 04:253:251:5811,0.625,-0.596,2.783,-508.667,-360.718,95.215,43.824,19.726,-97.454,-33.7,-58.3,-7.94,29.4,0.58371,0.06531,-0.00644,-0.80923
 13:45:31.250,eb:33:2e:f9:57:b5, 2085-97-13 05:126:253:5718,0.66,-0.396,2.841,-507.874,-348.877,92.163,38.167,16.414,-99.163,-33.7,-58.3,-7.94,29.4,0.58371,0.06531,-0.00644,-0.80923
 13:45:31.250,eb:33:2e:f9:57:b5, 2085-97-143 05:38:254:5843,0.699,-0.26,2.79,-503.113,-357.483,75.073,32.75,13.063,-100.591,-33.7,-58.3,-7.94,29.4,0.58371,0.06531,-0.00644,-0.80923
 13:45:31.250,eb:33:2e:f9:57:b5, 2085-97-122 05:126:254:6439,0.628,-0.218,2.966,-496.46,-377.808,48.584,27.438,9.536,-101.953,-33.7,-58.3,-7.94,29.4,0.58371,0.06531,-0.00644,-0.80923
 13:45:31.279,eb:33:2e:f9:57:b5, 2085-97-76 04:234:255:7240,0.451,-0.125,3.337,-501.526,-396.79,18.86,22.275,5.878,-103.326,-33.7,-58.3,-7.94,29.4,0.58371,0.06531,-0.00644,-0.80923
 13:45:31.279,eb:33:2e:f9:57:b5, 2085-97-216 02:209:01:8633,0.231,0.111,3.832,-520.264,-419.373,-9.155,17.018,1.972,-104.689,-33.7,-58.3,-7.94,29.4,0.58371,0.06531,-0.00644,-0.80923
 13:45:31.279,eb:33:2e:f9:57:b5, 2085-97-30 00:170:05:10215,-0.226,0.395,4.606,-533.813,-424.683,-30.518,11.722,-2.082,-105.974,-33.7,-58.3,-7.94,29.4,0.58371,0.06531,-0.00644,-0.80923
 13:45:31.279,eb:33:2e:f9:57:b5, 2085-97-01 252:161:12:10808,-0.854,1.091,5.174,-504.456,-414.551,-47.791,6.526,-6.196,-107.04,-33.7,-58.3,-7.94,29.4,0.58371,0.06531,-0.00644,-0.80923
 13:45:31.339,eb:33:2e:f9:57:b5, 2085-97-82 245:00:21:10438,-1.844,2.11,5.288,-436.34,-393.555,-61.34,1.945,-10.184,-107.924,-33.7,-58.3,-7.94,29.4,0.59808,0.0181,-0.08481,-0.79666
 13:45:31.339,eb:33:2e:f9:57:b5, 2085-97-138 237:11:26:9418,-2.849,3.033,4.836,-333.313,-391.724,-70.496,-1.774,-14.112,-108.6,-33.7,-58.3,-7.94,29.4,0.59808,0.0181,-0.08481,-0.79666
 13:45:31.339,eb:33:2e:f9:57:b5, 2085-97-29 228:69:28:8259,-4.05,3.36,4.307,-238.892,-404.419,-56.58,-4.438,-18.133,-109.078,-33.7,-58.3,-7.94,29.4,0.59808,0.0181,-0.08481,-0.79666
 13:45:31.339,eb:33:2e:f9:57:b5, 2085-97-27 220:164:33:8079,-4.778,3.841,3.934,-170.105,-395.752,-12.207,-6.504,-22.214,-109.006,-33.7,-58.3,-7.94,29.4,0.59808,0.0181,-0.08481,-0.79666
 13:45:31.368,eb:33:2e:f9:57:b5, 2085-97-10 216:224:39:7473,-5.012,4.613,3.926,-97.778,-307.983,36.194,-8.091,-25.708,-108.364,-33.7,-58.3,-7.94,29.4,0.59808,0.0181,-0.08481,-0.79666
 13:45:31.368,eb:33:2e:f9:57:b5, 2085-97-207 216:213:42:6128,-2.965,5.255,3.402,-22.705,-168.457,63.171,-9.135,-27.933,-107.364,-33.7,-58.3,-7.94,29.4,0.59808,0.0181,-0.08481,-0.79666
 13:45:31.368,eb:33:2e:f9:57:b5, 2085-97-125 202:194:46:12664,-4.949,6.15,7.843,98.694,93.872,55.359,-9.278,-28.757,-106.441,-33.7,-58.3,-7.94,29.4,0.59808,0.0181,-0.08481,-0.79666
 13:45:31.368,eb:33:2e:f9:57:b5, 2085-97-246 225:43:62:9458,-4.144,6.694,5.906,212.341,478.394,-9.155,-7.35,-25.565,-106.776,-33.7,-58.3,-7.94,29.4,0.59808,0.0181,-0.08481,-0.79666
 13:45:31.399,eb:33:2e:f9:57:b5, 2085-97-62 215:128:78:6716,-5.169,8.861,3.669,199.036,791.199,-68.726,-4.845,-18.962,-107.919,-33.7,-58.3,-7.94,29.4,0.59808,0.0181,-0.08481,-0.79666
 13:45:31.399,eb:33:2e:f9:57:b5, 2085-97-98 213:249:29:433,-4.354,9.85,1.772,173.34,800.171,-226.135,-2.444,-10.563,-109.885,-33.7,-58.3,-7.94,29.4,0.59808,0.0181,-0.08481,-0.79666
 13:45:31.399,eb:33:2e:f9:57:b5, 2085-97-223 247:129:07:3306,-1.692,0.409,0.692,51.086,422.18,-83.923,-0.786,-4.889,-112.335,-33.7,-58.3,-7.94,29.4,0.59808,0.0181,-0.08481,-0.79666
 13:45:31.399,eb:33:2e:f9:57:b5, 2085-97-252 246:108:243:1174,-0.792,-0.479,0.829,9.766,112.915,-10.925,-0.593,-2.433,-112.835,-33.7,-58.3,-7.94,29.4,0.59808,0.0181,-0.08481,-0.79666
 13:45:31.458,eb:33:2e:f9:57:b5, 2085-97-237 233:109:246:-805,1.006,1.201,-0.691,18.188,106.262,-25.879,-0.396,-1.34,-112.335,-33.7,-58.3,-7.94,29.4,0.59808,0.0181,-0.08481,-0.79666
 13:45:31.458,eb:33:2e:f9:57:b5, 2085-97-06 03:172:04:2106,-0.501,1.223,1.243,2.869,48.035,74.646,-0.11,-1.219,-111.654,-33.7,-58.3,-7.94,29.4,0.59808,0.0181,-0.08481,-0.79666
 13:45:31.458,eb:33:2e:f9:57:b5, 2085-97-73 255:108:01:2118,-0.098,0.156,0.487,14.282,42.603,10.315,0.038,-0.621,-111.588,-33.7,-58.3,-7.94,29.4,0.59808,0.0181,-0.08481,-0.79666
 13:45:31.458,eb:33:2e:f9:57:b5, 2085-97-07 251:253:254:1109,-0.564,0.021,1.002,12.939,53.284,-7.751,0.203,-0.132,-111.599,-33.7,-58.3,-7.94,29.4,0.59808,0.0181,-0.08481,-0.79666
 13:45:31.489,eb:33:2e:f9:57:b5, 2085-97-68 253:62:00:1714,0.092,-0.111,0.616,11.902,20.752,2.686,0.319,0.209,-111.621,-33.7,-58.3,-7.94,29.4,0.59808,0.0181,-0.08481,-0.79666
 13:45:31.489,eb:33:2e:f9:57:b5, 2085-97-118 03:222:00:3419,0.336,0.082,1.287,10.376,22.522,2.197,0.45,0.417,-111.583,-33.7,-58.3,-7.94,29.4,0.59808,0.0181,-0.08481,-0.79666
 13:45:31.489,eb:33:2e:f9:57:b5, 2085-97-29 01:57:01:2821,-0.024,0.114,1.599,10.193,71.472,-2.93,0.549,0.928,-111.599,-33.7,-58.3,-7.94,29.4,0.59808,0.0181,-0.08481,-0.79666
 13:45:31.489,eb:33:2e:f9:57:b5, 2085-113-58 00:153:223:-6045,-0.143,-0.006,1.24,5.005,92.468,-1.404,0.643,1.818,-111.61,-33.7,-58.3,-7.94,29.4,0.59808,0.0181,-0.08481,-0.79666
 13:45:31.520,eb:33:2e:f9:57:b5, 2085-97-215 254:111:255:2761,-0.161,-0.208,1.568,7.629,101.685,3.113,0.67,2.302,-111.616,-55.3,-40.3,-2.513,29.4,0.59808,0.0181,-0.08481,-0.79666
 13:45:31.520,eb:33:2e:f9:57:b5, 2085-97-25 253:196:252:3778,-0.487,-0.078,1.328,23.499,89.294,3.967,0.873,3.296,-111.555,-55.3,-40.3,-2.513,29.4,0.59808,0.0181,-0.08481,-0.79666
 13:45:31.520,eb:33:2e:f9:57:b5, 2085-97-19 251:00:250:4649,-0.646,-0.869,2.671,66.528,88.867,26.611,1.335,4.125,-111.407,-55.3,-40.3,-2.513,29.4,0.59808,0.0181,-0.08481,-0.79666
 13:45:31.520,eb:33:2e:f9:57:b5, 2085-97-118 252:103:246:7340,-0.194,-0.667,2.435,176.086,-9.338,35.583,2.571,4.598,-111.05,-55.3,-40.3,-2.513,29.4,0.59808,0.0181,-0.08481,-0.79666
 13:45:31.578,eb:33:2e:f9:57:b5, 2085-97-75 03:126:245:9739,0.96,-1.328,4.29,288.757,-2.625,51.392,5.015,4.422,-110.654,-55.3,-40.3,-2.513,29.4,0.59808,0.0181,-0.08481,-0.79666
 13:45:31.578,eb:33:2e:f9:57:b5, 2085-97-10 10:208:246:10256,1.696,-1.178,4.953,388.733,91.248,59.021,8.525,4.828,-110.034,-55.3,-40.3,-2.513,29.4,0.59808,0.0181,-0.08481,-0.79666
 13:45:31.578,eb:33:2e:f9:57:b5, 2085-97-93 14:233:250:9067,2.168,-0.996,5.002,454.346,226.685,81.116,12.914,6.29,-109.078,-55.3,-40.3,-2.513,29.4,0.59808,0.0181,-0.08481,-0.79666
 13:45:31.578,eb:33:2e:f9:57:b5, 2085-97-163 21:249:248:7750,2.513,-0.607,4.021,510.681,329.834,30.945,17.968,8.915,-107.672,-55.3,-40.3,-2.513,29.4,0.59808,0.0181,-0.08481,-0.79666
 13:45:31.609,eb:33:2e:f9:57:b5, 2085-97-234 15:146:255:8117,1.662,-0.645,3.373,559.814,407.898,-42.969,23.61,12.53,-106.397,-55.3,-40.3,-2.513,29.4,0.56949,0.09171,-0.04858,-0.81537
 13:45:31.609,eb:33:2e:f9:57:b5, 2085-97-114 09:144:254:10934,1.396,-0.424,5.058,579.956,446.655,-102.051,29.603,16.705,-105.227,-55.3,-40.3,-2.513,29.4,0.56949,0.09171,-0.04858,-0.81537
 13:45:31.609,eb:33:2e:f9:57:b5, 2085-97-196 08:39:254:7794,0.827,-0.465,4.95,620.85,434.692,-124.451,36.129,21.088,-103.771,-55.3,-40.3,-2.513,29.4,0.56949,0.09171,-0.04858,-0.81537
 13:45:31.609,eb:33:2e:f9:57:b5, 2085-97-29 05:169:01:7113,0.357,0.218,3.315,591.187,386.719,-140.747,42.918,25.06,-102.057,-55.3,-40.3,-2.513,29.4,0.56949,0.09171,-0.04858,-0.81537
 13:45:31.639,eb:33:2e:f9:57:b5, 2085-97-26 03:178:249:5912,0.708,-0.034,3.656,514.343,406.799,-132.385,49.351,28.768,-100.003,-55.3,-40.3,-2.513,29.4,0.56949,0.09171,-0.04858,-0.81537
 13:45:31.639,eb:33:2e:f9:57:b5, 2085-97-223 08:137:237:3434,-1.46,-1.912,1.848,376.526,483.276,-45.898,55.525,32.184,-96.581,-55.3,-40.3,-2.513,29.4,0.56949,0.09171,-0.04858,-0.81537
 13:45:31.639,eb:33:2e:f9:57:b5, 2085-97-21 01:224:255:-3036,0.795,0.669,-3.256,232.117,491.028,100.769,62.183,34.579,-90.269,-55.3,-40.3,-2.513,29.4,0.56949,0.09171,-0.04858,-0.81537
 13:45:31.639,eb:33:2e:f9:57:b5, 2085-97-164 05:83:03:688,0.88,-0.389,-0.25,34.485,333.557,189.453,66.105,34.865,-85.248,-55.3,-40.3,-2.513,29.4,0.56949,0.09171,-0.04858,-0.81537
 13:45:31.699,eb:33:2e:f9:57:b5, 2085-97-238 07:65:10:5966,1.121,1.027,1.628,-7.568,251.16,185.547,68.39,34.178,-81.211,-55.3,-40.3,-2.513,29.4,0.56949,0.09171,-0.04858,-0.81537
 13:45:31.699,eb:33:2e:f9:57:b5, 2085-97-190 09:25:13:8254,1.253,1.521,3.802,89.294,215.637,137.512,70.587,33.47,-77.937,-55.3,-40.3,-2.513,29.4,0.56949,0.09171,-0.04858,-0.81537
 13:45:31.699,eb:33:2e:f9:57:b5, 2085-97-70 10:233:08:6269,1.235,1.448,3.621,218.384,173.889,61.707,73.63,33.157,-75.377,-55.3,-40.3,-2.513,29.4,0.56949,0.09171,-0.04858,-0.81537
 13:45:31.699,eb:33:2e:f9:57:b5, 2085-97-193 08:117:05:5033,0.927,0.855,2.651,284.363,118.713,-5.798,77.179,33.305,-73.647,-55.3,-40.3,-2.513,29.4,0.56949,0.09171,-0.04858,-0.81537
 13:45:31.728,eb:33:2e:f9:57:b5, 2085-97-199 05:83:03:5193,0.577,0.56,2.448,280.945,58.838,-56.274,80.563,33.816,-72.729,-55.3,-40.3,-2.513,29.4,0.56949,0.09171,-0.04858,-0.81537
 13:45:31.728,eb:33:2e:f9:57:b5, 2085-97-22 04:131:255:5977,0.513,0.205,2.688,237.305,11.841,-86.304,83.265,34.601,-72.499,-55.3,-40.3,-2.513,29.4,0.56949,0.09171,-0.04858,-0.81537
 13:45:31.728,eb:33:2e:f9:57:b5, 2085-97-227 03:176:252:6807,0.442,-0.276,3.167,185.547,4.578,-90.149,85.314,35.508,-72.57,-55.3,-40.3,-2.513,29.4,0.56949,0.09171,-0.04858,-0.81537
 13:45:31.728,eb:33:2e:f9:57:b5, 2085-97-27 03:49:252:7047,0.329,-0.472,3.422,143.555,33.508,-78.918,86.99,36.359,-72.422,-55.3,-40.3,-2.513,29.4,0.56949,0.09171,-0.04858,-0.81537
 13:45:31.758,eb:33:2e:f9:57:b5, 2085-97-109 02:57:252:6901,0.319,-0.459,3.396,122.559,63.416,-65.613,88.654,37.095,-71.818,-55.3,-40.3,-2.513,29.4,0.56949,0.09171,-0.04858,-0.81537
 13:45:31.758,eb:33:2e:f9:57:b5, 2085-97-254 01:207:249:6600,0.063,-0.575,3.366,125,70.679,-55.542,90.357,37.7,-70.983,-55.3,-40.3,-2.513,29.4,0.56949,0.09171,-0.04858,-0.81537
 13:45:31.758,eb:33:2e:f9:57:b5, 2085-97-122 255:154:245:5021,-0.009,-1.038,2.875,137.329,49.438,-38.513,92.17,38.156,-70.175,-55.3,-40.3,-2.513,29.4,0.56949,0.09171,-0.04858,-0.81537
 13:45:31.758,eb:33:2e:f9:57:b5, 2085-97-203 01:20:243:3912,0.413,-1.494,2.072,135.559,2.014,-13.916,93.697,38.397,-69.901,-55.3,-40.3,-2.513,29.4,0.56949,0.09171,-0.04858,-0.81537
 13:45:31.819,eb:33:2e:f9:57:b5, 2085-97-192 04:09:242:3177,0.696,-1.695,1.749,103.333,-8.545,11.353,94.839,38.408,-69.994,-55.3,-40.3,-2.513,29.4,0.56949,0.09171,-0.04858,-0.81537
 13:45:31.819,eb:33:2e:f9:57:b5, 2085-97-23 06:240:241:1874,0.757,-1.774,1.256,56.519,6.409,40.1,95.537,38.145,-70.065,-55.3,-40.3,-2.513,29.4,0.56949,0.09171,-0.04858,-0.81537
 13:45:31.819,eb:33:2e:f9:57:b5, 2085-97-142 06:233:242:-805,0.864,-1.708,0.519,5.615,11.414,67.505,95.872,37.579,-69.988,-55.3,-40.3,-2.513,29.4,0.56949,0.09171,-0.04858,-0.81537
 13:45:31.819,eb:33:2e:f9:57:b5, 2085-97-17 07:224:239:-7935,1.058,-1.682,-1.901,-89.966,-26.367,79.529,95.306,36.804,-70.208,-55.3,-40.3,-2.513,29.4,0.56949,0.09171,-0.04858,-0.81537
 13:45:31.849,eb:33:2e:f9:57:b5, 2085-97-03 09:164:238:-3930,0.999,-2.425,-3.715,-262.329,-134.583,123.352,92.785,35.859,-71.373,-21.2,-59.3,-14.373,29.4,0.56949,0.09171,-0.04858,-0.81537
 13:45:31.849,eb:33:2e:f9:57:b5, 2085-97-09 07:237:244:-269,0.803,-1.703,-0.606,-347.229,-200.195,126.953,88.341,34.607,-73.548,-21.2,-59.3,-14.373,29.4,0.56949,0.09171,-0.04858,-0.81537
 13:45:31.849,eb:33:2e:f9:57:b5, 2085-97-195 06:251:243:-365,0.923,-1.396,-0.119,-385.742,-242.188,124.023,83.199,33.195,-76.135,-21.2,-59.3,-14.373,29.4,0.56949,0.09171,-0.04858,-0.81537
 13:45:31.849,eb:33:2e:f9:57:b5, 2085-97-140 07:68:245:640,0.894,-1.481,-0.02,-414.307,-271.851,124.146,77.646,31.536,-78.97,-21.2,-59.3,-14.373,29.4,0.56949,0.09171,-0.04858,-0.81537
 13:45:31.909,eb:33:2e:f9:57:b5, 2085-97-136 06:195:248:1907,0.746,-1.141,0.655,-444.702,-277.649,120.361,71.949,29.63,-81.705,-21.2,-59.3,-14.373,29.4,0.56949,0.09171,-0.04858,-0.81537
 13:45:31.909,eb:33:2e:f9:57:b5, 2085-97-183 05:22:252:2729,0.718,-0.678,1.144,-477.356,-277.71,107.544,66.088,27.565,-84.221,-21.2,-59.3,-14.373,29.4,0.56949,0.09171,-0.04858,-0.81537
 13:45:31.909,eb:33:2e:f9:57:b5, 2085-97-212 05:38:254:3344,0.736,-0.344,1.504,-506.348,-277.527,85.815,60.128,25.45,-86.528,-21.2,-59.3,-14.373,29.4,0.56949,0.09171,-0.04858,-0.81537
 13:45:31.909,eb:33:2e:f9:57:b5, 2085-97-218 05:136:255:3630,0.651,-0.131,1.714,-522.034,-279.48,56.641,54.031,23.34,-88.698,-21.2,-59.3,-14.373,29.4,0.56949,0.09171,-0.04858,-0.81537
 13:45:31.939,eb:33:2e:f9:57:b5, 2085-97-190 04:29:255:3917,0.534,-0.069,1.802,-523.315,-294.678,27.832,47.988,21.226,-90.862,-21.2,-59.3,-14.373,29.4,0.54962,0.46564,-0.18942,-0.66718
 13:45:31.939,eb:33:2e:f9:57:b5, 2085-97-238 03:54:255:4253,0.461,-0.119,2.003,-521.79,-306.335,9.216,41.979,18.957,-93.032,-21.2,-59.3,-14.373,29.4,0.54962,0.46564,-0.18942,-0.66718
 13:45:31.939,eb:33:2e:f9:57:b5, 2085-97-57 03:169:255:4487,0.337,-0.073,2.154,-517.883,-313.599,-1.709,36.156,16.529,-95.092,-21.2,-59.3,-14.373,29.4,0.54962,0.46564,-0.18942,-0.66718
 13:45:31.939,eb:33:2e:f9:57:b5, 2085-97-244 01:38:00:4599,0.147,-0.008,2.221,-511.108,-322.205,-8.85,30.476,13.881,-96.971,-21.2,-59.3,-14.373,29.4,0.54962,0.46564,-0.18942,-0.66718
 13:45:31.969,eb:33:2e:f9:57:b5, 2085-97-148 00:167:00:4960,-0.009,0.043,2.297,-500,-337.402,-11.475,25.06,11.008,-98.663,-21.2,-59.3,-14.373,29.4,0.54962,0.46564,-0.18942,-0.66718
 13:45:31.969,eb:33:2e:f9:57:b5, 2085-97-10 255:28:02:5489,-0.225,0.151,2.562,-490.417,-348.755,-7.874,19.836,7.844,-100.102,-21.2,-59.3,-14.373,29.4,0.54962,0.46564,-0.18942,-0.66718
 13:45:31.969,eb:33:2e:f9:57:b5, 2085-97-69 253:242:04:6095,-0.488,0.422,2.823,-488.708,-356.384,0,14.826,4.482,-101.223,-21.2,-59.3,-14.373,29.4,0.54962,0.46564,-0.18942,-0.66718
 13:45:31.969,eb:33:2e:f9:57:b5, 2085-97-178 250:39:09:6934,-0.833,0.839,3.133,-482.483,-369.995,7.751,9.877,0.906,-101.959,-21.2,-59.3,-14.373,29.4,0.54962,0.46564,-0.18942,-0.66718
 13:45:31.999,eb:33:2e:f9:57:b5, 2085-97-173 247:70:15:7712,-1.285,1.486,3.597,-446.838,-389.832,11.414,5.235,-2.878,-102.376,-21.2,-59.3,-14.373,29.4,0.54962,0.46564,-0.18942,-0.66718
 13:45:31.999,eb:33:2e:f9:57:b5, 2085-97-169 243:155:21:8251,-1.812,2.34,3.903,-397.034,-403.931,9.705,1.005,-6.888,-102.48,-21.2,-59.3,-14.373,29.4,0.54962,0.46564,-0.18942,-0.66718
 13:45:31.999,eb:33:2e:f9:57:b5, 2085-97-62 239:204:26:8543,-2.429,3.016,4.131,-353.271,-388.611,8.789,-2.736,-10.876,-102.354,-21.2,-59.3,-14.373,29.4,0.54962,0.46564,-0.18942,-0.66718
 13:45:31.999,eb:33:2e:f9:57:b5, 2085-97-198 233:184:31:8074,-3.002,3.676,4.109,-322.327,-343.445,14.832,-6.218,-14.524,-101.937,-21.2,-59.3,-14.373,29.4,0.54962,0.46564,-0.18942,-0.66718
 13:45:32.058,eb:33:2e:f9:57:b5, 2085-97-215 227:88:35:6818,-3.55,4.199,3.851,-274.231,-286.865,19.409,-9.377,-17.617,-101.338,-21.2,-59.3,-14.373,29.4,0.54962,0.46564,-0.18942,-0.66718
 13:45:32.058,eb:33:2e:f9:57:b5, 2085-97-52 227:134:37:6184,-3.51,4.592,3.312,-176.086,-258.118,15.503,-11.871,-20.264,-100.591,-21.2,-59.3,-14.373,29.4,0.54962,0.46564,-0.18942,-0.66718
 13:45:32.058,eb:33:2e:f9:57:b5, 2085-97-208 228:63:41:4592,-3.3,4.891,2.668,-89.966,-214.05,4.272,-13.354,-22.544,-99.948,-21.2,-59.3,-14.373,29.4,0.54962,0.46564,-0.18942,-0.66718
 13:45:32.058,eb:33:2e:f9:57:b5, 2085-97-17 230:194:41:3309,-3.226,5.32,1.857,-49.744,-149.109,-13.489,-14.189,-24.285,-99.536,-21.2,-59.3,-14.373,29.4,0.54962,0.46564,-0.18942,-0.66718
 13:45:32.089,eb:33:2e:f9:57:b5, 2085-97-105 230:97:35:3353,-2.54,4.88,1.555,5.554,-95.886,-34.729,-14.431,-25.499,-99.503,-21.2,-59.3,-14.373,29.4,0.54962,0.46564,-0.18942,-0.66718
 13:45:32.089,eb:33:2e:f9:57:b5, 2085-97-162 214:233:50:19490,-4.179,4.077,2.451,206.055,-211.121,-22.4,-13.727,-26.499,-99.641,-21.2,-59.3,-14.373,29.4,0.54962,0.46564,-0.18942,-0.66718
 13:45:32.089,eb:33:2e:f9:57:b5, 2085-97-227 03:251:69:9804,-3.305,7.246,2.542,457.336,538.513,-212.158,-8.954,-23.049,-102.299,-21.2,-59.3,-14.373,29.4,0.54962,0.46564,-0.18942,-0.66718
 13:45:32.089,eb:33:2e:f9:57:b5, 2085-97-35 220:241:44:2378,-5.287,8.399,3.007,300.354,930.115,-254.211,-4.125,-14.518,-105.699,-21.2,-59.3,-14.373,29.4,0.54962,0.46564,-0.18942,-0.66718
 13:45:32.150,eb:33:2e:f9:57:b5, 2085-97-128 250:66:15:6640,-1.01,-0.184,2.17,108.704,465.454,-110.229,-1.373,-8.13,-108.836,-21.2,-59.3,-14.373,29.4,0.54962,0.46564,-0.18942,-0.66718
 13:45:32.150,eb:33:2e:f9:57:b5, 2085-97-45 248:186:241:2491,0.251,0.297,2.537,2.686,149.963,-53.04,-1.049,-5.219,-109.506,-21.2,-59.3,-14.373,29.4,0.54962,0.46564,-0.18942,-0.66718
 13:45:32.150,eb:33:2e:f9:57:b5, 2085-97-238 232:100:03:-4269,-2.109,-0.093,1.212,24.109,247.986,52.246,-0.758,-3.549,-109.056,-21.2,-59.3,-14.373,29.4,0.54962,0.46564,-0.18942,-0.66718
 13:45:32.150,eb:33:2e:f9:57:b5, 2085-97-166 03:188:07:1783,0.317,-0.678,-0.5,-2.747,19.226,157.349,-0.56,-2.604,-108.649,-21.2,-59.3,-14.373,29.4,0.54962,0.46564,-0.18942,-0.66718
 13:45:32.179,eb:33:2e:f9:57:b5, 2085-97-21 254:67:01:2057,0.669,0.506,1.07,14.954,67.139,2.38,-0.456,-2.203,-108.149,-54,-38,-1.827,29.4,0.54962,0.46564,-0.18942,-0.66718
 13:45:32.179,eb:33:2e:f9:57:b5, 2085-97-183 254:253:255:1725,-1.196,0.285,1.85,17.09,96.008,-13.306,-0.253,-1.555,-108.1,-54,-38,-1.827,29.4,0.54962,0.46564,-0.18942,-0.66718
 13:45:32.179,eb:33:2e:f9:57:b5, 2085-97-53 247:248:252:355,0.195,-0.451,0.045,16.052,68.42,-1.709,-0.104,-0.566,-108.248,-54,-38,-1.827,29.4,0.54962,0.46564,-0.18942,-0.66718
 13:45:32.179,eb:33:2e:f9:57:b5, 2085-97-210 06:169:03:4086,0.265,0.153,1.427,21.79,29.846,12.39,0.121,-0.253,-108.105,-54,-38,-1.827,29.4,0.54962,0.46564,-0.18942,-0.66718
 13:45:32.210,eb:33:2e:f9:57:b5, 2085-97-113 00:08:01:2447,0.327,0.193,1.461,8.545,103.149,-8.057,0.258,0.566,-108.149,-54,-38,-1.827,29.4,0.54962,0.46564,-0.18942,-0.66718
 13:45:32.210,eb:33:2e:f9:57:b5, 2085-97-02 00:175:00:2766,-0.149,-0.116,2.15,9.583,140.076,-9.827,0.39,1.697,-108.226,-54,-38,-1.827,29.4,0.54962,0.46564,-0.18942,-0.66718
 13:45:32.210,eb:33:2e:f9:57:b5, 2085-97-143 255:178:253:3770,-0.585,0.02,1.211,11.047,133.667,-2.441,0.5,3.115,-108.292,-54,-38,-1.827,29.4,0.54962,0.46564,-0.18942,-0.66718
 13:45:32.210,eb:33:2e:f9:57:b5, 2085-113-81 00:237:74:1170,-0.632,-0.788,2.183,58.594,114.075,15.259,0.84,4.444,-108.243,-54,-38,-1.827,29.4,0.54962,0.46564,-0.18942,-0.66718
 13:45:32.210,eb:33:2e:f9:57:b5, 2085-97-103 252:165:252:4714,-0.341,-0.57,2.033,97.412,79.651,22.4,1.258,4.9,-108.138,-54,-38,-1.827,29.4,0.54962,0.46564,-0.18942,-0.66718
 13:45:32.269,eb:33:2e:f9:57:b5, 2085-97-251 252:238:244:8848,-0.062,-0.88,3.254,210.754,13.489,16.846,2.829,5.273,-107.957,-54,-38,-1.827,29.4,0.58536,0.03571,0.01675,-0.80975
 13:45:32.269,eb:33:2e:f9:57:b5, 2085-97-43 03:235:242:10205,0.723,-1.648,5.026,332.153,57.007,43.945,5.669,5.576,-107.644,-54,-38,-1.827,29.4,0.58536,0.03571,0.01675,-0.80975
 13:45:32.269,eb:33:2e:f9:57:b5, 2085-97-153 09:49:244:9713,1.492,-1.331,4.931,442.505,139.465,59.387,9.695,6.504,-106.974,-54,-38,-1.827,29.4,0.58536,0.03571,0.01675,-0.80975
 13:45:32.269,eb:33:2e:f9:57:b5, 2085-97-147 14:217:251:7567,2.09,-0.971,4.334,515.991,244.019,64.941,14.711,8.35,-105.892,-54,-38,-1.827,29.4,0.58536,0.03571,0.01675,-0.80975
 13:45:32.299,eb:33:2e:f9:57:b5, 2085-97-75 15:97:250:7227,1.32,-0.53,3.403,589.966,285.706,-9.338,20.468,10.865,-104.793,-54,-38,-1.827,29.4,0.58536,0.03571,0.01675,-0.80975
 13:45:32.299,eb:33:2e:f9:57:b5, 2085-97-156 08:117:248:11823,0.586,-0.668,4.639,642.09,312.622,-91.125,26.84,13.865,-104.084,-54,-38,-1.827,29.4,0.58536,0.03571,0.01675,-0.80975
 13:45:32.299,eb:33:2e:f9:57:b5, 2085-97-176 06:32:248:10739,0.577,-0.92,5.736,707.214,334.167,-110.596,33.854,17.292,-103.255,-54,-38,-1.827,29.4,0.58536,0.03571,0.01675,-0.80975
 13:45:32.299,eb:33:2e:f9:57:b5, 2085-97-134 02:07:01:7348,0.063,-0.641,3.784,670.837,321.411,-103.394,41.215,20.561,-102.03,-54,-38,-1.827,29.4,0.58536,0.03571,0.01675,-0.80975
 13:45:32.329,eb:33:2e:f9:57:b5, 2085-97-00 00:215:03:5598,0.217,0.487,3.62,561.89,366.333,-110.779,48.021,23.719,-100.338,-54,-38,-1.827,29.4,0.58536,0.03571,0.01675,-0.80975
 13:45:32.329,eb:33:2e:f9:57:b5, 2085-97-46 07:41:248:2956,-0.765,0.062,0.938,393.555,380.31,-79.224,53.86,26.884,-97.723,-54,-38,-1.827,29.4,0.58536,0.03571,0.01675,-0.80975
 13:45:32.329,eb:33:2e:f9:57:b5, 2085-97-236 248:94:10:-2602,0.306,0.669,-0.874,308.594,469.971,17.456,59.31,29.504,-93.494,-54,-38,-1.827,29.4,0.58536,0.03571,0.01675,-0.80975
 13:45:32.329,eb:33:2e:f9:57:b5, 2085-97-204 255:73:05:4074,0.262,0.315,1.373,145.63,306.58,78.064,63.226,30.8,-89.819,-54,-38,-1.827,29.4,0.58536,0.03571,0.01675,-0.80975
 13:45:32.388,eb:33:2e:f9:57:b5, 2085-97-184 03:202:11:8248,0.668,1.453,2.956,104.675,287.842,94.604,66.237,31.201,-86.32,-54,-38,-1.827,29.4,0.58536,0.03571,0.01675,-0.80975
 13:45:32.388,eb:33:2e:f9:57:b5, 2085-97-221 06:173:11:9864,1.014,1.452,4.703,152.954,315.369,84.29,69.401,31.514,-82.623,-54,-38,-1.827,29.4,0.58536,0.03571,0.01675,-0.80975
 13:45:32.388,eb:33:2e:f9:57:b5, 2085-97-135 09:152:06:8130,1.35,1.207,4.464,243.53,306.091,53.711,73.405,31.877,-78.882,-54,-38,-1.827,29.4,0.58536,0.03571,0.01675,-0.80975
 13:45:32.388,eb:33:2e:f9:57:b5, 2085-97-155 11:166:01:6811,1.491,0.488,3.571,305.542,259.46,18.616,77.981,32.25,-75.553,-54,-38,-1.827,29.4,0.58536,0.03571,0.01675,-0.80975
 13:45:32.419,eb:33:2e:f9:57:b5, 2085-97-197 11:116:254:6170,1.406,-0.01,3.165,320.374,205.872,-15.747,82.595,32.646,-72.878,-54,-38,-1.827,29.4,0.58536,0.03571,0.01675,-0.80975
 13:45:32.419,eb:33:2e:f9:57:b5, 2085-97-80 10:214:251:5705,1.199,-0.344,2.869,294.8,149.414,-45.349,86.781,33.135,-70.845,-54,-38,-1.827,29.4,0.58536,0.03571,0.01675,-0.80975
 13:45:32.419,eb:33:2e:f9:57:b5, 2085-97-79 08:61:249:5165,0.917,-0.682,2.68,251.648,96.375,-65.247,90.275,33.745,-69.445,-54,-38,-1.827,29.4,0.58536,0.03571,0.01675,-0.80975
 13:45:32.419,eb:33:2e:f9:57:b5, 2085-97-65 06:77:248:4761,0.675,-0.917,2.406,206.543,50.781,-70.679,93.005,34.426,-68.593,-54,-38,-1.827,29.4,0.58536,0.03571,0.01675,-0.80975
 13:45:32.448,eb:33:2e:f9:57:b5, 2085-97-79 04:48:247:4998,0.402,-1.023,2.393,158.325,23.56,-62.134,95.076,35.068,-68.132,-23.2,-59.2,-12.207,29.4,0.58536,0.03571,0.01675,-0.80975
 13:45:32.448,eb:33:2e:f9:57:b5, 2085-97-239 02:23:245:5097,0.36,-1.224,2.477,119.202,5.981,-44.678,96.531,35.585,-67.912,-23.2,-59.2,-12.207,29.4,0.58536,0.03571,0.01675,-0.80975
 13:45:32.448,eb:33:2e:f9:57:b5, 2085-97-134 02:26:242:4477,0.25,-1.528,2.389,95.154,-7.446,-23.804,97.603,35.92,-67.879,-23.2,-59.2,-12.207,29.4,0.58536,0.03571,0.01675,-0.80975
 13:45:32.448,eb:33:2e:f9:57:b5, 2085-97-01 02:69:238:3587,0.404,-1.983,1.949,87.28,-36.194,-0.305,98.311,36.063,-68.148,-23.2,-59.2,-12.207,29.4,0.58536,0.03571,0.01675,-0.80975
 13:45:32.508,eb:33:2e:f9:57:b5, 2085-97-62 04:146:237:2860,0.554,-2.312,1.627,85.999,-66.223,23.132,98.778,36.019,-68.846,-23.2,-59.2,-12.207,29.4,0.58536,0.03571,0.01675,-0.80975
 13:45:32.508,eb:33:2e:f9:57:b5, 2085-97-01 05:71:238:1446,0.746,-2.245,1.02,66.162,-79.163,43.64,98.943,35.793,-69.829,-23.2,-59.2,-12.207,29.4,0.58536,0.03571,0.01675,-0.80975
 13:45:32.508,eb:33:2e:f9:57:b5, 2085-97-118 05:86:236:-3288,0.907,-2.218,0.272,15.686,-84.473,64.148,98.701,35.381,-70.961,-23.2,-59.2,-12.207,29.4,0.58536,0.03571,0.01675,-0.80975
 13:45:32.508,eb:33:2e:f9:57:b5, 2085-97-35 09:10:231:-7872,1.197,-2.851,-3.821,-152.466,-135.132,83.069,97.207,34.838,-72.361,-23.2,-59.2,-12.207,29.4,0.58536,0.03571,0.01675,-0.80975
 13:45:32.539,eb:33:2e:f9:57:b5, 2085-97-211 08:201:240:-543,0.923,-2.561,-1.923,-338.501,-212.097,121.094,93.235,33.882,-74.685,-23.2,-59.2,-12.207,29.4,0.37189,0.70575,-0.25439,-0.5466
 13:45:32.539,eb:33:2e:f9:57:b5, 2085-97-25 06:230:243:933,0.77,-1.543,0.383,-424.744,-230.835,120.972,87.803,32.695,-77.415,-23.2,-59.2,-12.207,29.4,0.37189,0.70575,-0.25439,-0.5466
 13:45:32.539,eb:33:2e:f9:57:b5, 2085-97-232 06:06:244:765,0.924,-1.543,0.365,-454.895,-259.949,120.728,81.903,31.278,-80.178,-23.2,-59.2,-12.207,29.4,0.37189,0.70575,-0.25439,-0.5466
 13:45:32.539,eb:33:2e:f9:57:b5, 2085-97-46 07:72:246:1507,0.824,-1.372,0.521,-470.642,-293.152,119.751,75.767,29.553,-83.112,-23.2,-59.2,-12.207,29.4,0.37189,0.70575,-0.25439,-0.5466
 13:45:32.568,eb:33:2e:f9:57:b5, 2085-97-25 06:11:249:2591,0.719,-1.042,0.985,-486.328,-317.871,115.295,69.565,27.515,-86.061,-23.2,-59.2,-12.207,29.4,0.37189,0.70575,-0.25439,-0.5466
 13:45:32.568,eb:33:2e:f9:57:b5, 2085-97-182 05:173:251:3637,0.719,-0.694,1.529,-497.559,-337.28,106.14,63.325,25.181,-88.962,-23.2,-59.2,-12.207,29.4,0.37189,0.70575,-0.25439,-0.5466
 13:45:32.568,eb:33:2e:f9:57:b5, 2085-97-180 05:110:253:4222,0.663,-0.417,1.964,-505.127,-346.191,91.248,57.2,22.626,-91.703,-23.2,-59.2,-12.207,29.4,0.37189,0.70575,-0.25439,-0.5466
 13:45:32.568,eb:33:2e:f9:57:b5, 2085-97-227 04:159:253:4327,0.613,-0.294,2.077,-509.766,-354.309,72.388,51.163,19.913,-94.268,-23.2,-59.2,-12.207,29.4,0.37189,0.70575,-0.25439,-0.5466
 13:45:32.658,eb:33:2e:f9:57:b5, 2085-97-206 04:91:255:4664,0.568,-0.231,2.22,-520.02,-358.521,55.359,45.264,17.056,-96.669,-23.2,-59.2,-12.207,29.4,0.37189,0.70575,-0.25439,-0.5466
 13:45:32.658,eb:33:2e:f9:57:b5, 2085-97-196 03:128:02:4726,0.294,0.117,2.311,-540.344,-355.591,35.034,39.342,14.106,-98.833,-23.2,-59.2,-12.207,29.4,0.37189,0.70575,-0.25439,-0.5466
 13:45:32.658,eb:33:2e:f9:57:b5, 2085-97-70 01:192:03:4828,0.048,0.443,2.277,-561.279,-371.277,11.292,33.376,11.058,-100.882,-23.2,-59.2,-12.207,29.4,0.37189,0.70575,-0.25439,-0.5466
 13:45:32.658,eb:33:2e:f9:57:b5, 2085-97-172 255:163:02:5470,-0.111,0.411,2.499,-571.472,-389.038,-2.258,27.334,7.734,-102.832,-23.2,-59.2,-12.207,29.4,0.37189,0.70575,-0.25439,-0.5466
 13:45:32.660,eb:33:2e:f9:57:b5, 2085-97-127 254:168:02:6447,-0.306,0.29,2.914,-563.904,-389.282,4.089,21.478,4.169,-104.485,-23.2,-59.2,-12.207,29.4,0.37189,0.70575,-0.25439,-0.5466
 13:45:32.660,eb:33:2e:f9:57:b5, 2085-97-246 252:04:05:7135,-0.425,0.441,3.321,-547.485,-365.112,23.315,15.837,0.533,-105.568,-23.2,-59.2,-12.207,29.4,0.37189,0.70575,-0.25439,-0.5466
 13:45:32.660,eb:33:2e:f9:57:b5, 2085-97-12 252:36:10:7243,-0.567,0.922,3.573,-525.94,-334.9,40.588,10.481,-2.922,-106.051,-23.2,-59.2,-12.207,29.4,0.37189,0.70575,-0.25439,-0.5466
 13:45:32.660,eb:33:2e:f9:57:b5, 2085-97-210 250:62:16:6929,-0.805,1.64,3.463,-494.08,-333.74,38.269,5.35,-6.273,-106.1,-23.2,-59.2,-12.207,29.4,0.37189,0.70575,-0.25439,-0.5466
 13:45:32.749,eb:33:2e:f9:57:b5, 2085-97-143 248:176:22:6909,-1.081,2.492,3.296,-445.374,-373.352,12.329,0.643,-9.8,-106.04,-23.2,-59.2,-12.207,29.4,0.37189,0.70575,-0.25439,-0.5466
 13:45:32.749,eb:33:2e:f9:57:b5, 2085-97-131 245:176:27:7921,-1.715,3.134,3.587,-398.987,-408.02,-22.156,-3.598,-13.766,-105.991,-23.2,-59.2,-12.207,29.4,0.37189,0.70575,-0.25439,-0.5466
 13:45:32.749,eb:33:2e:f9:57:b5, 2085-97-80 238:171:33:8609,-2.724,3.843,4.071,-322.693,-409.546,-58.533,-7.202,-17.897,-106.04,-23.2,-59.2,-12.207,29.4,0.37189,0.70575,-0.25439,-0.5466
 13:45:32.749,eb:33:2e:f9:57:b5, 2085-97-32 231:08:34:8722,-3.489,4.339,4.23,-216.858,-397.888,-91.736,-9.816,-22.017,-106.216,-23.2,-59.2,-12.207,29.4,0.37189,0.70575,-0.25439,-0.5466
 13:45:32.752,eb:33:2e:f9:57:b5, 2085-97-240 226:19:33:8191,-3.606,4.13,4.063,-155.151,-338.684,-83.618,-11.53,-25.774,-106.441,-23.2,-59.2,-12.207,29.4,0.37189,0.70575,-0.25439,-0.5466
 13:45:32.752,eb:33:2e:f9:57:b5, 2085-97-138 228:10:40:7630,-3.283,4.463,3.96,-131.897,-202.698,-57.19,-12.909,-28.581,-106.545,-23.2,-59.2,-12.207,29.4,0.37189,0.70575,-0.25439,-0.5466
 13:45:32.752,eb:33:2e:f9:57:b5, 2085-97-11 230:76:43:4532,-3.283,5.391,3.029,-90.149,-46.204,-55.176,-13.892,-29.767,-106.864,-23.2,-59.2,-12.207,29.4,0.37189,0.70575,-0.25439,-0.5466
 13:45:32.752,eb:33:2e:f9:57:b5, 2085-97-51 229:235:36:2584,-3.345,5.165,1.604,0,-5.981,-71.289,-13.98,-30.059,-107.545,-23.2,-59.2,-12.207,29.4,0.37189,0.70575,-0.25439,-0.5466
 13:45:32.778,eb:33:2e:f9:57:b5, 2085-97-14 230:135:26:3182,-1.646,3.905,1.31,89.417,-16.724,-63.354,-13.09,-30.355,-108.314,-23.2,-59.2,-12.207,29.4,0.37189,0.70575,-0.25439,-0.5466
 13:45:32.778,eb:33:2e:f9:57:b5, 2085-97-198 206:23:42:16367,-2.122,3.476,3.44,324.829,-178.04,-11.414,-11.343,-30.839,-108.66,-23.2,-59.2,-12.207,29.4,0.37189,0.70575,-0.25439,-0.5466
 13:45:32.778,eb:33:2e:f9:57:b5, 2085-97-86 03:216:25:4080,-2.563,6.032,3.576,463.318,795.654,-177.917,-5.735,-25.444,-111.149,-23.2,-59.2,-12.207,29.4,0.37189,0.70575,-0.25439,-0.5466
 13:45:32.778,eb:33:2e:f9:57:b5, 2085-97-25 245:241:16:5789,-1.956,4.318,2.139,237.183,859.619,-153.503,-1.747,-15.947,-112.885,-23.2,-59.2,-12.207,29.4,0.37189,0.70575,-0.25439,-0.5466
 13:45:32.808,eb:33:2e:f9:57:b5, 2085-97-04 248:60:10:5244,-2.313,2.682,2.303,2.319,387.878,-14.343,-0.357,-10.003,-114.066,-51,-34.3,2.14,29.4,0.37189,0.70575,-0.25439,-0.5466
 13:45:32.808,eb:33:2e:f9:57:b5, 2085-97-40 253:152:251:2221,-1.569,-2.28,0.782,44.25,119.446,4.639,-0.434,-7.438,-114.45,-51,-34.3,2.14,29.4,0.37189,0.70575,-0.25439,-0.5466
 13:45:32.808,eb:33:2e:f9:57:b5, 2085-97-133 235:178:250:-2046,-0.314,0.624,-0.81,25.513,139.038,-12.939,-0.044,-5.96,-114.208,-51,-34.3,2.14,29.4,0.37189,0.70575,-0.25439,-0.5466
 13:45:32.808,eb:33:2e:f9:57:b5, 2085-97-75 253:26:02:917,-0.341,0.805,0.198,16.113,43.213,41.687,0.088,-5.394,-113.467,-51,-34.3,2.14,29.4,0.37189,0.70575,-0.25439,-0.5466
 13:45:32.868,eb:33:2e:f9:57:b5, 2085-97-35 04:118:03:3183,0.095,0.118,0.747,19.104,21.423,17.944,0.253,-5.01,-113.318,-51,-34.3,2.14,29.4,0.37189,0.70575,-0.25439,-0.5466
 13:45:32.868,eb:33:2e:f9:57:b5, 2085-113-81 00:71:70:-988,-0.123,0.101,1.281,11.536,74.097,-10.193,0.445,-4.427,-113.351,-51,-34.3,2.14,29.4,0.37189,0.70575,-0.25439,-0.5466
 13:45:32.868,eb:33:2e:f9:57:b5, 2085-97-168 250:97:254:1084,-0.575,-0.189,1.095,14.221,83.008,-7.385,0.511,-4.032,-113.395,-51,-34.3,2.14,29.4,0.37189,0.70575,-0.25439,-0.5466
 13:45:32.868,eb:33:2e:f9:57:b5, 2085-97-69 01:167:00:2598,0.271,-0.121,0.564,14.099,43.152,5.92,0.687,-3.345,-113.39,-51,-34.3,2.14,29.4,0.37189,0.70575,-0.25439,-0.5466
 13:45:32.899,eb:33:2e:f9:57:b5, 2085-97-163 01:187:01:2660,0.129,0.251,1.394,6.714,80.322,-2.991,0.797,-2.736,-113.373,-51,-34.3,2.14,29.4,0.54904,-0.03015,-0.02448,-0.83484
 13:45:32.899,eb:33:2e:f9:57:b5, 2085-97-157 254:247:254:2687,-0.218,0.057,1.212,-0.305,101.501,-4.395,0.846,-1.763,-113.395,-51,-34.3,2.14,29.4,0.54904,-0.03015,-0.02448,-0.83484
 13:45:32.899,eb:33:2e:f9:57:b5, 2085-97-90 00:189:00:2830,-0.304,-0.366,1.83,17.09,98.389,16.296,0.912,-0.775,-113.351,-51,-34.3,2.14,29.4,0.54904,-0.03015,-0.02448,-0.83484
 13:45:32.899,eb:33:2e:f9:57:b5, 2085-97-197 251:214:250:4568,-0.621,-0.604,1.91,25.696,98.145,24.536,1.148,0.203,-113.209,-51,-34.3,2.14,29.4,0.54904,-0.03015,-0.02448,-0.83484
 13:45:32.928,eb:33:2e:f9:57:b5, 2085-97-210 251:10:252:5134,-0.342,-0.569,2.135,109.558,36.316,43.457,1.829,0.923,-112.813,-51,-34.3,2.14,29.4,0.54904,-0.03015,-0.02448,-0.83484
 13:45:32.928,eb:33:2e:f9:57:b5, 2085-97-65 00:171:246:9178,0.561,-1.012,3.548,235.962,-31.921,49.561,3.664,0.797,-112.352,-51,-34.3,2.14,29.4,0.54904,-0.03015,-0.02448,-0.83484
 13:45:32.928,eb:33:2e:f9:57:b5, 2085-97-29 08:42:248:9715,1.408,-1.269,4.893,347.29,40.71,54.077,6.663,0.747,-111.835,-51,-34.3,2.14,29.4,0.54904,-0.03015,-0.02448,-0.83484
 13:45:32.928,eb:33:2e:f9:57:b5, 2085-97-45 13:232:249:8524,1.868,-0.994,4.586,424.988,156.86,45.776,10.64,1.714,-111.182,-51,-34.3,2.14,29.4,0.54904,-0.03015,-0.02448,-0.83484
 13:45:32.989,eb:33:2e:f9:57:b5, 2085-97-132 15:70:253:6614,1.63,-0.485,3.714,464.539,275.085,30.884,15.156,3.834,-110.308,-51,-34.3,2.14,29.4,0.54904,-0.03015,-0.02448,-0.83484
 13:45:32.989,eb:33:2e:f9:57:b5, 2085-97-161 11:52:249:6946,1.021,-0.311,3.141,519.226,317.749,-26.978,20.22,6.773,-109.286,-51,-34.3,2.14,29.4,0.54904,-0.03015,-0.02448,-0.83484
 13:45:32.989,eb:33:2e:f9:57:b5, 2085-97-184 07:51:248:10188,0.522,-0.84,3.89,565.369,338.989,-80.872,25.779,10.047,-108.495,-51,-34.3,2.14,29.4,0.54904,-0.03015,-0.02448,-0.83484
 13:45:32.989,eb:33:2e:f9:57:b5, 2085-97-136 03:254:249:8746,0.313,-0.944,4.805,609.253,364.502,-93.75,31.877,13.661,-107.551,-51,-34.3,2.14,29.4,0.54904,-0.03015,-0.02448,-0.83484
 13:45:33.019,eb:33:2e:f9:57:b5, 2085-97-60 255:215:01:7233,-0.37,-0.271,3.641,577.393,338.44,-96.863,38.216,17.051,-106.304,-51,-34.3,2.14,29.4,0.54904,-0.03015,-0.02448,-0.83484
 13:45:33.019,eb:33:2e:f9:57:b5, 2085-97-252 252:58:03:5357,-0.195,0.324,3.396,491.577,412.415,-82.825,44.187,20.479,-104.409,-51,-34.3,2.14,29.4,0.54904,-0.03015,-0.02448,-0.83484
 13:45:33.019,eb:33:2e:f9:57:b5, 2085-97-244 02:160:02:-722,0.835,0.507,1.1,350.647,436.829,-43.091,49.46,23.901,-101.459,-51,-34.3,2.14,29.4,0.54904,-0.03015,-0.02448,-0.83484
 13:45:33.019,eb:33:2e:f9:57:b5, 2085-97-250 246:229:20:-5162,-0.542,0.387,0.469,270.447,490.173,26.917,53.954,26.818,-97.685,-51,-34.3,2.14,29.4,0.54904,-0.03015,-0.02448,-0.83484
 13:45:33.079,eb:33:2e:f9:57:b5, 2085-97-171 00:57:06:1275,-0.149,1.701,-1.071,145.081,267.639,-5.005,57.645,28.927,-94.235,-51,-34.3,2.14,29.4,0.54904,-0.03015,-0.02448,-0.83484
 13:45:33.079,eb:33:2e:f9:57:b5, 2085-97-117 255:215:09:3516,0.029,1.167,0.903,101.868,197.327,14.709,59.98,30.026,-91.901,-51,-34.3,2.14,29.4,0.54904,-0.03015,-0.02448,-0.83484
 13:45:33.079,eb:33:2e:f9:57:b5, 2085-97-239 00:180:08:6402,0.184,1.019,2.599,115.54,192.81,13.489,62.023,30.822,-89.918,-51,-34.3,2.14,29.4,0.54904,-0.03015,-0.02448,-0.83484
 13:45:33.079,eb:33:2e:f9:57:b5, 2085-97-222 01:204:09:7207,0.294,1.202,3.415,176.086,209.045,7.507,64.638,31.646,-87.742,-51,-34.3,2.14,29.4,0.54904,-0.03015,-0.02448,-0.83484
 13:45:33.108,eb:33:2e:f9:57:b5, 2085-97-127 02:122:08:7158,0.359,1.16,3.532,231.079,218.018,-6.348,67.95,32.509,-85.43,-51,-34.3,2.14,29.4,0.54904,-0.03015,-0.02448,-0.83484
 13:45:33.108,eb:33:2e:f9:57:b5, 2085-97-134 03:31:06:7895,0.448,0.952,3.6,263.855,208.862,-21.301,71.741,33.393,-83.095,-51,-34.3,2.14,29.4,0.54904,-0.03015,-0.02448,-0.83484
 13:45:33.108,eb:33:2e:f9:57:b5, 2085-97-169 03:35:03:8669,0.456,0.573,4.076,278.87,206.482,-32.227,75.756,34.239,-80.799,-51,-34.3,2.14,29.4,0.54904,-0.03015,-0.02448,-0.83484
 13:45:33.108,eb:33:2e:f9:57:b5, 2085-97-92 04:50:254:8810,0.661,0.095,4.312,280.701,212.83,-37.903,79.915,35.041,-78.404,-51,-34.3,2.14,29.4,0.54904,-0.03015,-0.02448,-0.83484
 13:45:33.139,eb:33:2e:f9:57:b5, 2085-97-169 05:224:250:7987,0.725,-0.483,4.17,276.184,222.595,-32.654,84.21,35.695,-75.822,-25.5,-55.8,-8.733,29.4,0.54904,-0.03015,-0.02448,-0.83484
 13:45:33.139,eb:33:2e:f9:57:b5, 2085-97-193 06:247:248:6801,0.979,-0.783,3.54,257.08,221.924,-27.466,88.462,36.134,-73.103,-25.5,-55.8,-8.733,29.4,0.54904,-0.03015,-0.02448,-0.83484
 13:45:33.139,eb:33:2e:f9:57:b5, 2085-97-26 08:100:249:6312,0.942,-0.889,3.192,229.37,210.144,-26.428,92.466,36.381,-70.422,-25.5,-55.8,-8.733,29.4,0.54904,-0.03015,-0.02448,-0.83484
 13:45:33.139,eb:33:2e:f9:57:b5, 2085-97-04 07:82:249:6092,0.801,-0.788,2.99,215.271,174.927,-33.02,96.081,36.541,-68.011,-25.5,-55.8,-8.733,29.4,0.54904,-0.03015,-0.02448,-0.83484
 13:45:33.169,eb:33:2e:f9:57:b5, 2085-97-254 05:127:246:5976,0.639,-0.984,2.952,220.032,118.835,-39.185,99.355,36.716,-66.165,-25.5,-55.8,-8.733,29.4,0.54904,-0.03015,-0.02448,-0.83484
 13:45:33.169,eb:33:2e:f9:57:b5, 2085-97-82 04:229:241:5405,0.483,-1.464,2.807,221.436,65.125,-31.25,102.244,36.914,-65.012,-25.5,-55.8,-8.733,29.4,0.54904,-0.03015,-0.02448,-0.83484
 13:45:33.169,eb:33:2e:f9:57:b5, 2085-97-130 04:104:237:5148,0.671,-2.079,2.483,211.365,8.911,-10.864,104.7,37.035,-64.528,-25.5,-55.8,-8.733,29.4,0.54904,-0.03015,-0.02448,-0.83484
 13:45:33.169,eb:33:2e:f9:57:b5, 2085-97-172 06:197:236:4509,0.989,-2.413,2.395,191.956,-15.564,15.93,106.611,37.035,-64.671,-25.5,-55.8,-8.733,29.4,0.54904,-0.03015,-0.02448,-0.83484
 13:45:33.229,eb:33:2e:f9:57:b5, 2085-97-151 08:100:237:3009,1.126,-2.353,1.85,154.907,-2.441,51.697,108.188,36.738,-64.929,-25.5,-55.8,-8.733,29.4,0.34869,0.74152,-0.24136,-0.51981
 13:45:33.229,eb:33:2e:f9:57:b5, 2085-97-99 09:243:236:-1480,1.629,-2.301,1.052,107.239,14.587,86.06,109.33,36.074,-65.165,-25.5,-55.8,-8.733,29.4,0.34869,0.74152,-0.24136,-0.51981
 13:45:33.229,eb:33:2e:f9:57:b5, 2085-97-11 15:60:231:-10526,1.871,-2.523,-3.549,-23.071,-19.165,94.177,109.633,35.162,-65.462,-25.5,-55.8,-8.733,29.4,0.34869,0.74152,-0.24136,-0.51981
 13:45:33.229,eb:33:2e:f9:57:b5, 2085-97-56 13:81:239:-3034,1.672,-2.816,-3.632,-231.018,-144.348,127.075,107.287,34.305,-66.945,-25.5,-55.8,-8.733,29.4,0.34869,0.74152,-0.24136,-0.51981
 13:45:33.288,eb:33:2e:f9:57:b5, 2085-97-233 11:198:245:-913,1.478,-1.359,-0.428,-320.312,-231.812,106.262,102.947,33.712,-69.659,-25.5,-55.8,-8.733,29.4,0.34869,0.74152,-0.24136,-0.51981
 13:45:33.288,eb:33:2e:f9:57:b5, 2085-97-160 12:87:242:-1225,1.562,-1.546,-0.674,-381.287,-293.823,89.661,97.52,33.239,-73.021,-25.5,-55.8,-8.733,29.4,0.34869,0.74152,-0.24136,-0.51981
 13:45:33.288,eb:33:2e:f9:57:b5, 2085-97-226 11:153:244:371,1.387,-1.621,-0.253,-419.067,-340.088,81.299,91.362,32.646,-76.921,-25.5,-55.8,-8.733,29.4,0.34869,0.74152,-0.24136,-0.51981
 13:45:33.288,eb:33:2e:f9:57:b5, 2085-97-97 10:254:247:1784,1.193,-1.214,0.562,-450.867,-360.596,76.782,84.771,31.745,-81.085,-25.5,-55.8,-8.733,29.4,0.34869,0.74152,-0.24136,-0.51981
 13:45:33.292,eb:33:2e:f9:57:b5, 2085-97-146 08:89:250:2651,0.978,-0.817,1.1,-485.596,-370.483,70.984,77.948,30.465,-85.199,-25.5,-55.8,-8.733,29.4,0.34869,0.74152,-0.24136,-0.51981
 13:45:33.292,eb:33:2e:f9:57:b5, 2085-97-91 07:56:251:3687,0.885,-0.644,1.527,-514.282,-380.432,66.833,70.939,28.795,-89.187,-25.5,-55.8,-8.733,29.4,0.34869,0.74152,-0.24136,-0.51981
 13:45:33.292,eb:33:2e:f9:57:b5, 2085-97-201 06:231:251:4799,0.803,-0.553,2.086,-525.085,-382.263,64.209,63.99,26.724,-92.917,-25.5,-55.8,-8.733,29.4,0.34869,0.74152,-0.24136,-0.51981
 13:45:33.292,eb:33:2e:f9:57:b5, 2085-97-215 05:23:252:5563,0.7,-0.488,2.552,-522.278,-372.559,64.514,57.294,24.307,-96.24,-25.5,-55.8,-8.733,29.4,0.34869,0.74152,-0.24136,-0.51981
 13:45:33.349,eb:33:2e:f9:57:b5, 2085-97-95 05:45:252:5764,0.639,-0.477,2.768,-513.306,-361.328,68.726,51.026,21.627,-99.064,-25.5,-55.8,-8.733,29.4,0.34869,0.74152,-0.24136,-0.51981
 13:45:33.349,eb:33:2e:f9:57:b5, 2085-97-211 04:141:252:5816,0.596,-0.468,2.846,-507.507,-355.164,76.172,45.093,18.688,-101.404,-25.5,-55.8,-8.733,29.4,0.34869,0.74152,-0.24136,-0.51981
 13:45:33.349,eb:33:2e:f9:57:b5, 2085-97-151 04:169:253:5911,0.553,-0.361,2.861,-508.301,-363.403,81.238,39.457,15.496,-103.337,-25.5,-55.8,-8.733,29.4,0.34869,0.74152,-0.24136,-0.51981
 13:45:33.349,eb:33:2e:f9:57:b5, 2085-97-131 04:234:254:6258,0.55,-0.228,2.936,-512.634,-383.545,78.003,33.92,12.003,-104.996,-25.5,-55.8,-8.733,29.4,0.34869,0.74152,-0.24136,-0.51981
 13:45:33.409,eb:33:2e:f9:57:b5, 2085-97-161 03:14:02:6745,0.209,0.016,3.196,-515.381,-404.846,64.819,28.521,8.251,-106.49,-25.5,-55.8,-8.733,29.4,0.34869,0.74152,-0.24136,-0.51981
 13:45:33.409,eb:33:2e:f9:57:b5, 2085-97-176 255:100:07:7444,-0.273,0.624,3.407,-514.221,-438.538,41.504,23.176,4.208,-107.869,-25.5,-55.8,-8.733,29.4,0.34869,0.74152,-0.24136,-0.51981
 13:45:33.409,eb:33:2e:f9:57:b5, 2085-97-169 251:160:11:9313,-0.869,1.204,4.062,-498.596,-468.994,19.897,18.056,-0.176,-109.232,-25.5,-55.8,-8.733,29.4,0.34869,0.74152,-0.24136,-0.51981
 13:45:33.410,eb:33:2e:f9:57:b5, 2085-97-152 246:197:15:10297,-1.502,1.684,4.898,-462.28,-450.134,8.362,13.26,-4.691,-110.374,-25.5,-55.8,-8.733,29.4,0.34869,0.74152,-0.24136,-0.51981
 13:45:33.410,eb:33:2e:f9:57:b5, 2085-97-131 241:138:21:9682,-2.087,2.324,4.919,-420.227,-390.93,10.559,8.959,-8.817,-111.121,-25.5,-55.8,-8.733,29.4,0.34869,0.74152,-0.24136,-0.51981
 13:45:33.410,eb:33:2e:f9:57:b5, 2085-97-18 237:71:27:8929,-2.667,3.041,4.56,-393.677,-335.632,14.343,4.938,-12.415,-111.44,-25.5,-55.8,-8.733,29.4,0.34869,0.74152,-0.24136,-0.51981
 13:45:33.410,eb:33:2e:f9:57:b5, 2085-97-42 232:208:33:7922,-3.266,3.795,4.12,-364.624,-305.359,12.939,1.148,-15.59,-111.473,-25.5,-55.8,-8.733,29.4,0.34869,0.74152,-0.24136,-0.51981
 13:45:33.411,eb:33:2e:f9:57:b5, 2085-97-42 226:20:41:6869,-3.976,4.669,3.635,-281.006,-288.574,-2.747,-2.142,-18.572,-111.401,-25.5,-55.8,-8.733,29.4,0.34869,0.74152,-0.24136,-0.51981
 13:45:33.470,eb:33:2e:f9:57:b5, 2085-97-07 223:137:42:6533,-4.249,5.317,3.292,-152.71,-271.912,-27.771,-4.263,-21.379,-111.412,-57.1,-60.6,-1.38,29.4,0.34869,0.74152,-0.24136,-0.51981
 13:45:33.470,eb:33:2e:f9:57:b5, 2085-97-120 221:160:42:5179,-4.328,5.332,2.958,-56.335,-195.19,-39.917,-5.153,-23.752,-111.588,-57.1,-60.6,-1.38,29.4,0.34869,0.74152,-0.24136,-0.51981
 13:45:33.470,eb:33:2e:f9:57:b5, 2085-97-42 221:118:39:3118,-4.395,5.205,1.988,-8.606,-105.103,-41.992,-5.306,-25.219,-111.912,-57.1,-60.6,-1.38,29.4,0.34869,0.74152,-0.24136,-0.51981
 13:45:33.470,eb:33:2e:f9:57:b5, 2085-97-99 221:133:32:2821,-4.117,4.563,1.302,51.636,-52.368,-31.311,-4.933,-25.972,-112.269,-57.1,-60.6,-1.38,29.4,0.34869,0.74152,-0.24136,-0.51981
 13:45:33.528,eb:33:2e:f9:57:b5, 2085-97-137 224:169:24:2861,-3.552,3.514,1.521,121.46,9.583,2.197,-3.961,-26.197,-112.434,-57.1,-60.6,-1.38,29.4,0.53665,-0.2027,-0.10208,-0.81262
 13:45:33.528,eb:33:2e:f9:57:b5, 2085-97-191 246:244:76:22572,-5.356,2.729,1.539,275.757,-128.052,139.587,-2.45,-26.005,-112.044,-57.1,-60.6,-1.38,29.4,0.53665,-0.2027,-0.10208,-0.81262
 13:45:33.528,eb:33:2e:f9:57:b5, 2085-97-14 14:181:94:-2791,-1.04,5.97,-2.32,568.054,558.411,-190.613,2.571,-21.489,-112.67,-57.1,-60.6,-1.38,29.4,0.53665,-0.2027,-0.10208,-0.81262
 13:45:33.528,eb:33:2e:f9:57:b5, 2085-97-14 28:221:95:6750,2.005,6.073,3.747,-97.778,858.459,-117.92,6.031,-14.337,-115.214,-57.1,-60.6,-1.38,29.4,0.53665,-0.2027,-0.10208,-0.81262
 13:45:33.617,eb:33:2e:f9:57:b5, 2085-97-43 207:38:186:-5871,-3.546,-0.426,2.209,-318.909,679.443,-298.035,2.527,-6.702,-116.065,-57.1,-60.6,-1.38,29.4,0.53665,-0.2027,-0.10208,-0.81262
 13:45:33.617,eb:33:2e:f9:57:b5, 2085-97-180 246:72:253:2237,-4.023,0.884,-2.058,12.878,18.494,30.823,1.45,-3.84,-115.175,-57.1,-60.6,-1.38,29.4,0.53665,-0.2027,-0.10208,-0.81262
 13:45:33.617,eb:33:2e:f9:57:b5, 2085-97-146 244:39:01:-1609,1.138,-2.026,-1.637,28.259,31.311,52.612,1.373,-2.796,-115.01,-57.1,-60.6,-1.38,29.4,0.53665,-0.2027,-0.10208,-0.81262
 13:45:33.617,eb:33:2e:f9:57:b5, 2085-97-215 07:245:08:3796,-0.659,0.146,2.446,32.043,23.865,26.611,1.653,-3.016,-114.5,-57.1,-60.6,-1.38,29.4,0.53665,-0.2027,-0.10208,-0.81262
 13:45:33.619,eb:33:2e:f9:57:b5, 2085-97-227 252:200:251:2491,-0.215,-0.101,0.571,6.165,68.604,3.845,1.791,-2.197,-114.538,-57.1,-60.6,-1.38,29.4,0.53665,-0.2027,-0.10208,-0.81262
 13:45:33.619,eb:33:2e:f9:57:b5, 2085-97-134 253:121:00:1967,0.595,-0.128,1.231,28.442,65.125,10.498,2.027,-1.555,-114.401,-57.1,-60.6,-1.38,29.4,0.53665,-0.2027,-0.10208,-0.81262
 13:45:33.619,eb:33:2e:f9:57:b5, 2085-97-02 09:168:04:4118,-0.081,0.532,1.68,33.875,53.528,7.324,2.351,-1.082,-114.274,-57.1,-60.6,-1.38,29.4,0.53665,-0.2027,-0.10208,-0.81262
 13:45:33.619,eb:33:2e:f9:57:b5, 2085-97-227 248:231:249:2955,-0.66,-0.32,1.945,25.635,142.395,-9.705,2.62,0.11,-114.329,-57.1,-60.6,-1.38,29.4,0.53665,-0.2027,-0.10208,-0.81262
 13:45:33.622,eb:33:2e:f9:57:b5, 2085-97-88 01:205:01:3038,0.375,-0.13,0.56,67.139,58.167,12.878,3.164,1.126,-114.23,-57.1,-60.6,-1.38,29.4,0.53665,-0.2027,-0.10208,-0.81262
 13:45:33.622,eb:33:2e:f9:57:b5, 2085-97-192 250:138:249:5329,-0.992,0.249,2.198,91.309,68.97,-4.761,3.939,1.763,-114.109,-57.1,-60.6,-1.38,29.4,0.53665,-0.2027,-0.10208,-0.81262
 13:45:33.622,eb:33:2e:f9:57:b5, 2085-97-42 255:205:249:6923,0.146,-1.072,3.033,185.669,26.001,16.479,5.345,2.241,-114.071,-57.1,-60.6,-1.38,29.4,0.53665,-0.2027,-0.10208,-0.81262
 13:45:33.622,eb:33:2e:f9:57:b5, 2085-97-61 01:33:248:7683,0.288,-0.811,3.365,269.592,53.101,16.663,7.712,2.659,-113.857,-57.1,-60.6,-1.38,29.4,0.53665,-0.2027,-0.10208,-0.81262
 13:45:33.710,eb:33:2e:f9:57:b5, 2085-97-144 05:217:245:9925,0.944,-1.078,4.489,369.751,100.952,32.166,10.959,3.345,-113.505,-57.1,-60.6,-1.38,29.4,0.53665,-0.2027,-0.10208,-0.81262
 13:45:33.710,eb:33:2e:f9:57:b5, 2085-97-25 11:200:247:8999,1.811,-1.162,4.618,442.749,207.214,45.654,15.167,4.867,-112.72,-57.1,-60.6,-1.38,29.4,0.53665,-0.2027,-0.10208,-0.81262
 13:45:33.710,eb:33:2e:f9:57:b5, 2085-97-96 14:155:248:7960,1.354,-0.781,4.239,518.433,283.325,17.09,20.116,7.114,-111.682,-57.1,-60.6,-1.38,29.4,0.53665,-0.2027,-0.10208,-0.81262
 13:45:33.710,eb:33:2e:f9:57:b5, 2085-97-04 09:162:249:9970,1.032,-0.532,3.9,581.421,335.51,-27.161,25.878,10.085,-110.457,-57.1,-60.6,-1.38,29.4,0.53665,-0.2027,-0.10208,-0.81262
 13:45:33.710,eb:33:2e:f9:57:b5, 2085-97-49 04:01:250:12801,0.572,-0.83,5.975,647.156,372.192,-61.768,32.3,13.398,-109.171,-57.1,-60.6,-1.38,29.4,0.53665,-0.2027,-0.10208,-0.81262
 13:45:33.712,eb:33:2e:f9:57:b5, 2085-113-58 00:202:234:-9360,0.031,-0.993,5.449,641.174,390.991,-53.101,39.348,16.837,-107.435,-57.1,-60.6,-1.38,29.4,0.53665,-0.2027,-0.10208,-0.81262
 13:45:33.712,eb:33:2e:f9:57:b5, 2085-97-25 01:102:00:4991,0.158,-0.664,3.537,594.543,377.625,-42.48,42.764,18.446,-106.298,-57.1,-60.6,-1.38,29.4,0.53665,-0.2027,-0.10208,-0.81262
 13:45:33.712,eb:33:2e:f9:57:b5, 2085-97-20 03:181:00:3445,0.86,0.569,1.867,446.35,380.127,-47.424,48.812,21.319,-103.793,-36.2,-62.4,-12.907,29.4,0.53665,-0.2027,-0.10208,-0.81262
 13:45:33.712,eb:33:2e:f9:57:b5, 2085-97-17 09:237:248:3685,-0.617,-0.435,1.249,289.673,462.341,-22.888,53.685,24.219,-100.497,-36.2,-62.4,-12.907,29.4,0.53665,-0.2027,-0.10208,-0.81262
 13:45:33.738,eb:33:2e:f9:57:b5, 2085-97-118 252:04:11:-3471,0.972,1.303,-1.371,257.751,495.483,37.72,58.683,26.922,-95.427,-36.2,-62.4,-12.907,29.4,0.53665,-0.2027,-0.10208,-0.81262
 13:45:33.738,eb:33:2e:f9:57:b5, 2085-97-167 05:23:02:665,0.895,0.284,0.442,140.686,303.711,73.486,62.281,28.246,-91.648,-36.2,-62.4,-12.907,29.4,0.53665,-0.2027,-0.10208,-0.81262
 13:45:33.738,eb:33:2e:f9:57:b5, 2085-97-85 07:47:03:3632,0.953,0.489,0.884,103.882,222.778,87.158,64.88,28.625,-88.665,-36.2,-62.4,-12.907,29.4,0.53665,-0.2027,-0.10208,-0.81262
 13:45:33.738,eb:33:2e:f9:57:b5, 2085-97-16 08:110:07:4917,0.984,0.599,2.279,136.414,204.834,84.29,67.313,28.691,-86.056,-36.2,-62.4,-12.907,29.4,0.53665,-0.2027,-0.10208,-0.81262
 13:45:33.828,eb:33:2e:f9:57:b5, 2085-97-106 07:79:09:4663,0.868,1.116,2.329,198.73,169.25,52.917,70.109,28.735,-83.787,-36.2,-62.4,-12.907,29.4,0.53665,-0.2027,-0.10208,-0.81262
 13:45:33.828,eb:33:2e:f9:57:b5, 2085-97-100 06:225:08:5087,0.682,1.147,2.337,254.822,120.056,5.493,73.218,28.932,-82.145,-36.2,-62.4,-12.907,29.4,0.53665,-0.2027,-0.10208,-0.81262
 13:45:33.828,eb:33:2e:f9:57:b5, 2085-97-190 04:97:07:5800,0.555,1.044,2.625,290.894,76.294,-45.837,76.47,29.405,-81.161,-36.2,-62.4,-12.907,29.4,0.53665,-0.2027,-0.10208,-0.81262
 13:45:33.828,eb:33:2e:f9:57:b5, 2085-97-82 04:225:03:6784,0.535,0.727,3.105,299.133,50.964,-86.548,79.7,30.218,-80.656,-36.2,-62.4,-12.907,29.4,0.53665,-0.2027,-0.10208,-0.81262
 13:45:33.831,eb:33:2e:f9:57:b5, 2085-97-118 04:201:255:6818,0.608,0.229,3.384,283.508,57.19,-108.887,82.842,31.289,-80.233,-36.2,-62.4,-12.907,29.4,0.53665,-0.2027,-0.10208,-0.81262
 13:45:33.831,eb:33:2e:f9:57:b5, 2085-97-47 05:50:252:6111,0.647,-0.278,3.175,251.465,69.763,-113.892,85.836,32.481,-79.612,-36.2,-62.4,-12.907,29.4,0.53665,-0.2027,-0.10208,-0.81262
 13:45:33.831,eb:33:2e:f9:57:b5, 2085-97-31 05:76:250:5235,0.625,-0.611,2.759,210.51,71.411,-103.027,88.561,33.607,-78.816,-36.2,-62.4,-12.907,29.4,0.53665,-0.2027,-0.10208,-0.81262
 13:45:33.831,eb:33:2e:f9:57:b5, 2085-97-07 05:106:249:4629,0.595,-0.784,2.367,170.959,59.937,-84.167,90.873,34.541,-78.036,-36.2,-62.4,-12.907,29.4,0.53665,-0.2027,-0.10208,-0.81262
 13:45:33.859,eb:33:2e:f9:57:b5, 2085-97-100 04:232:248:4589,0.437,-0.855,2.205,141.174,42.786,-62.927,92.78,35.25,-77.377,-36.2,-62.4,-12.907,29.4,0.48209,0.57568,-0.233,-0.61786
 13:45:33.859,eb:33:2e:f9:57:b5, 2085-97-235 01:27:247:4701,0.1,-0.963,2.306,127.869,12.512,-43.884,94.307,35.76,-77.014,-36.2,-62.4,-12.907,29.4,0.48209,0.57568,-0.233,-0.61786
 13:45:33.859,eb:33:2e:f9:57:b5, 2085-97-218 00:191:243:4635,0.268,-1.319,2.263,125.671,-43.213,-18.066,95.466,36.079,-77.179,-36.2,-62.4,-12.907,29.4,0.48209,0.57568,-0.233,-0.61786
 13:45:33.859,eb:33:2e:f9:57:b5, 2085-97-238 03:99:242:4527,0.726,-1.664,2.294,109.802,-72.571,14.282,96.158,36.156,-78.003,-36.2,-62.4,-12.907,29.4,0.48209,0.57568,-0.233,-0.61786
 13:45:33.949,eb:33:2e:f9:57:b5, 2085-97-107 06:34:242:2994,0.89,-1.704,1.914,61.218,-41.077,45.837,96.57,35.914,-78.761,-36.2,-62.4,-12.907,29.4,0.48209,0.57568,-0.233,-0.61786
 13:45:33.949,eb:33:2e:f9:57:b5, 2085-97-126 07:148:241:909,0.995,-1.777,0.991,4.517,-9.766,70.74,96.625,35.354,-79.162,-36.2,-62.4,-12.907,29.4,0.48209,0.57568,-0.233,-0.61786
 13:45:33.949,eb:33:2e:f9:57:b5, 2085-97-191 08:119:242:-2681,1.053,-1.805,-0.334,-59.204,-9.46,90.393,96.235,34.541,-79.321,-36.2,-62.4,-12.907,29.4,0.48209,0.57568,-0.233,-0.61786
 13:45:33.949,eb:33:2e:f9:57:b5, 2085-97-243 07:212:242:-5588,1.15,-1.582,-2.338,-166.931,-67.017,92.834,94.763,33.662,-79.887,-36.2,-62.4,-12.907,29.4,0.48209,0.57568,-0.233,-0.61786
 13:45:33.951,eb:33:2e:f9:57:b5, 2085-97-255 08:92:244:-2068,1.099,-1.604,-1.978,-298.828,-167.175,103.455,91.489,32.723,-81.42,-36.2,-62.4,-12.907,29.4,0.48209,0.57568,-0.233,-0.61786
 13:45:33.951,eb:33:2e:f9:57:b5, 2085-97-152 08:122:245:-029,1.051,-1.313,-0.345,-379.883,-239.868,101.501,86.682,31.674,-83.914,-36.2,-62.4,-12.907,29.4,0.48209,0.57568,-0.233,-0.61786
 13:45:33.952,eb:33:2e:f9:57:b5, 2085-97-99 08:187:244:421,1.025,-1.388,0.106,-430.725,-288.818,104.553,81.052,30.361,-86.885,-36.2,-62.4,-12.907,29.4,0.48209,0.57568,-0.233,-0.61786
 13:45:33.952,eb:33:2e:f9:57:b5, 2085-97-233 07:142:245:1305,0.941,-1.369,0.371,-465.454,-327.393,110.718,74.921,28.663,-90.154,-36.2,-62.4,-12.907,29.4,0.48209,0.57568,-0.233,-0.61786
 13:45:34.008,eb:33:2e:f9:57:b5, 2085-97-39 07:54:247:2581,0.841,-1.219,0.953,-485.107,-350.891,117.371,68.637,26.505,-93.411,-36.2,-62.4,-12.907,29.4,0.48209,0.57568,-0.233,-0.61786
 13:45:34.008,eb:33:2e:f9:57:b5, 2085-97-65 06:153:249:3474,0.743,-0.952,1.509,-488.892,-360.107,118.408,62.424,23.945,-96.487,-36.2,-62.4,-12.907,29.4,0.48209,0.57568,-0.233,-0.61786
 13:45:34.008,eb:33:2e:f9:57:b5, 2085-97-166 05:149:251:4146,0.621,-0.661,1.878,-482.239,-366.577,111.938,56.508,21.099,-99.256,-36.2,-62.4,-12.907,29.4,0.48209,0.57568,-0.233,-0.61786
 13:45:34.008,eb:33:2e:f9:57:b5, 2085-97-93 04:133:251:4629,0.511,-0.524,2.11,-477.722,-369.08,102.295,50.856,18.062,-101.761,-36.2,-62.4,-12.907,29.4,0.48209,0.57568,-0.233,-0.61786
 13:45:34.039,eb:33:2e:f9:57:b5, 2085-97-163 03:48:252:5329,0.439,-0.562,2.479,-488.159,-356.628,98.511,45.428,14.881,-103.92,-36.2,-62.4,-12.907,29.4,0.48209,0.57568,-0.233,-0.61786
 13:45:34.039,eb:33:2e:f9:57:b5, 2085-97-128 03:136:254:5615,0.422,-0.346,2.702,-506.409,-328.064,92.529,40.023,11.717,-105.595,-36.2,-62.4,-12.907,29.4,0.48209,0.57568,-0.233,-0.61786
 13:45:34.039,eb:33:2e:f9:57:b5, 2085-97-24 03:66:01:5357,0.369,-0.005,2.697,-513.123,-313.232,70.557,34.678,8.696,-106.919,-36.2,-62.4,-12.907,29.4,0.48209,0.57568,-0.233,-0.61786
 13:45:34.039,eb:33:2e:f9:57:b5, 2085-97-222 02:16:03:5493,0.316,0.29,2.603,-504.944,-327.881,35.583,29.388,5.691,-108.204,-36.2,-62.4,-12.907,29.4,0.48209,0.57568,-0.233,-0.61786
 13:45:34.100,eb:33:2e:f9:57:b5, 2085-97-31 02:188:03:6020,0.187,0.437,2.795,-492.737,-347.595,-2.38,24.307,2.598,-109.627,-45.6,-45.4,-5.72,29.4,0.48209,0.57568,-0.233,-0.61786
 13:45:34.100,eb:33:2e:f9:57:b5, 2085-97-171 00:06:04:6922,-0.051,0.475,3.158,-476.196,-366.699,-37.354,19.402,-0.654,-111.176,-45.6,-45.4,-5.72,29.4,0.48209,0.57568,-0.233,-0.61786
 13:45:34.100,eb:33:2e:f9:57:b5, 2085-97-137 254:168:05:8172,-0.331,0.578,3.647,-465.942,-378.174,-53.162,14.766,-4.092,-112.747,-45.6,-45.4,-5.72,29.4,0.48209,0.57568,-0.233,-0.61786
 13:45:34.100,eb:33:2e:f9:57:b5, 2085-97-80 252:19:09:9553,-0.587,0.887,4.35,-459.167,-363.647,-54.016,10.234,-7.63,-114.104,-45.6,-45.4,-5.72,29.4,0.48209,0.57568,-0.233,-0.61786
 13:45:34.398,eb:33:2e:f9:57:b5, 2085-97-243 249:79:15:9521,-0.969,1.49,4.794,-431.274,-334.351,-53.162,5.938,-10.986,-115.142,-45.6,-45.4,-5.72,29.4,0.48209,0.57568,-0.233,-0.61786
 13:45:34.398,eb:33:2e:f9:57:b5, 2085-97-86 246:83:21:8346,-1.535,2.315,4.354,-382.568,-347.717,-63.843,2.032,-14.326,-115.977,-45.6,-45.4,-5.72,29.4,0.48209,0.57568,-0.233,-0.61786
 13:45:34.398,eb:33:2e:f9:57:b5, 2085-97-226 239:152:25:7458,-2.56,2.947,3.835,-320.557,-392.151,-78.064,-1.258,-18.034,-116.757,-45.6,-45.4,-5.72,29.4,0.48209,0.57568,-0.233,-0.61786
 13:45:34.398,eb:33:2e:f9:57:b5, 2085-97-82 232:190:26:8230,-3.62,3.321,3.659,-224.976,-439.697,-79.041,-3.763,-22.291,-117.411,-45.6,-45.4,-5.72,29.4,0.48209,0.57568,-0.233,-0.61786
 13:45:34.400,eb:33:2e:f9:57:b5, 2085-97-87 224:133:26:8268,-4.179,3.316,4.025,-138.428,-390.381,-37.292,-5.389,-26.537,-117.719,-45.6,-45.4,-5.72,29.4,0.51004,-0.16074,-0.07162,-0.84189
 13:45:34.400,eb:33:2e:f9:57:b5, 2085-97-13 222:107:29:5633,-4.255,3.431,3.541,-93.872,-245.117,35.461,-6.713,-29.669,-117.312,-45.6,-45.4,-5.72,29.4,0.51004,-0.16074,-0.07162,-0.84189
 13:45:34.400,eb:33:2e:f9:57:b5, 2085-97-96 222:238:33:2705,-4.074,4.02,1.925,-57.556,-117.615,100.159,-8.036,-31.223,-116.23,-45.6,-45.4,-5.72,29.4,0.51004,-0.16074,-0.07162,-0.84189
 13:45:34.400,eb:33:2e:f9:57:b5, 2085-97-65 225:174:32:2009,-3.627,4.221,1.041,29.419,-87.036,128.052,-8.987,-31.981,-114.697,-45.6,-45.4,-5.72,29.4,0.51004,-0.16074,-0.07162,-0.84189
 13:45:34.458,eb:33:2e:f9:57:b5, 2085-97-147 01:59:57:16930,-8.191,3.883,0.902,124.634,-69.397,140.503,-9.069,-32.542,-112.983,-45.6,-45.4,-5.72,29.4,0.51004,-0.16074,-0.07162,-0.84189
 13:45:34.458,eb:33:2e:f9:57:b5, 2085-97-98 241:215:58:10065,-2.127,5.884,-0.92,490.906,346.008,15.869,-6.015,-31.097,-112.319,-45.6,-45.4,-5.72,29.4,0.51004,-0.16074,-0.07162,-0.84189
 13:45:34.458,eb:33:2e:f9:57:b5, 2085-97-214 221:78:106:6440,-1.63,8.741,3.011,478.638,831.238,-67.566,-0.549,-24.977,-113.209,-45.6,-45.4,-5.72,29.4,0.51004,-0.16074,-0.07162,-0.84189
 13:45:34.458,eb:33:2e:f9:57:b5, 2085-97-35 242:222:38:6313,-0.152,6.828,2.269,134.888,821.472,-244.507,3.636,-16.617,-115.565,-45.6,-45.4,-5.72,29.4,0.51004,-0.16074,-0.07162,-0.84189
 13:45:34.548,eb:33:2e:f9:57:b5, 2085-97-01 239:196:248:3281,-3.354,4.363,3.771,-178.04,448.242,16.113,3.203,-10.355,-115.735,-45.6,-45.4,-5.72,29.4,0.51004,-0.16074,-0.07162,-0.84189
 13:45:34.548,eb:33:2e:f9:57:b5, 2085-97-219 244:30:08:-2417,-3.446,-3.51,-0.243,-20.935,216.248,173.401,1.983,-6.438,-115.521,-45.6,-45.4,-5.72,29.4,0.51004,-0.16074,-0.07162,-0.84189
 13:45:34.548,eb:33:2e:f9:57:b5, 2085-97-87 253:32:09:110,-1.426,-2.097,-0.256,-40.344,140.564,209.961,1.56,-4.614,-114.626,-45.6,-45.4,-5.72,29.4,0.51004,-0.16074,-0.07162,-0.84189
 13:45:34.548,eb:33:2e:f9:57:b5, 2085-97-247 255:83:02:2184,1.425,-0.4,-0.402,9.521,72.998,44.8,1.516,-3.549,-113.78,-45.6,-45.4,-5.72,29.4,0.51004,-0.16074,-0.07162,-0.84189
 13:45:34.579,eb:33:2e:f9:57:b5, 2085-97-83 255:85:02:1556,-0.385,0.865,2.491,14.465,140.259,-12.573,1.648,-2.845,-113.395,-45.6,-45.4,-5.72,29.4,0.51004,-0.16074,-0.07162,-0.84189
 13:45:34.579,eb:33:2e:f9:57:b5, 2085-97-140 250:196:254:647,-1.543,-0.054,0.603,13.428,110.718,-8.362,1.818,-1.522,-113.489,-45.6,-45.4,-5.72,29.4,0.51004,-0.16074,-0.07162,-0.84189
 13:45:34.579,eb:33:2e:f9:57:b5, 2085-97-78 248:247:253:554,0.808,-0.353,-0.458,10.742,47.485,8.667,1.928,-0.593,-113.511,-45.6,-45.4,-5.72,29.4,0.51004,-0.16074,-0.07162,-0.84189
 13:45:34.579,eb:33:2e:f9:57:b5, 2085-97-145 09:233:03:5919,0.383,0.413,2.201,13.916,36.011,14.099,2.104,-0.467,-113.258,-45.6,-45.4,-5.72,29.4,0.51004,-0.16074,-0.07162,-0.84189
 13:45:34.669,eb:33:2e:f9:57:b5, 2085-97-217 255:217:255:2512,1.325,0.205,2.01,11.292,144.287,-15.625,2.23,0.637,-113.329,-45.6,-45.4,-5.72,29.4,0.51004,-0.16074,-0.07162,-0.84189
 13:45:34.669,eb:33:2e:f9:57:b5, 2085-97-12 13:14:03:-1960,2.143,-0.497,0.165,280.64,432.983,22.461,49.037,23.857,-97.372,-45.6,-45.4,-5.72,29.4,0.51004,-0.16074,-0.07162,-0.84189
 13:45:34.669,eb:33:2e:f9:57:b5, 2085-97-43 06:14:17:-5076,0.686,0.954,-0.456,262.024,351.074,-15.747,53.015,26.263,-94.12,-45.6,-45.4,-5.72,29.4,0.51004,-0.16074,-0.07162,-0.84189
 13:45:34.669,eb:33:2e:f9:57:b5, 2085-97-76 11:109:04:-469,0.875,1.451,-2.157,191.711,51.88,-115.845,55.887,28.065,-92.867,-45.6,-45.4,-5.72,29.4,0.51004,-0.16074,-0.07162,-0.84189
 13:45:34.909,eb:33:2e:f9:57:b5, 2085-97-250 04:177:00:2086,0.545,0.113,0.385,166.382,-57.373,-142.7,57.162,29.092,-93.834,-45.6,-45.4,-5.72,29.4,0.51004,-0.16074,-0.07162,-0.84189
 13:45:34.909,eb:33:2e:f9:57:b5, 2085-97-241 04:153:251:4804,0.687,-0.505,2.48,127.014,69.031,-76.721,63.177,33.728,-98.822,-45.6,-45.4,-5.72,29.4,0.51004,-0.16074,-0.07162,-0.84189
 13:45:34.910,eb:33:2e:f9:57:b5, 2085-97-09 06:94:251:4220,0.871,-0.579,2.203,96.008,105.652,-49.988,64.633,34.678,-98.174,-45.6,-45.4,-5.72,29.4,0.51004,-0.16074,-0.07162,-0.84189
 13:45:34.910,eb:33:2e:f9:57:b5, 2085-97-183 07:255:251:3906,1.056,-0.538,1.958,84.29,121.277,-31.799,66.143,35.524,-97.086,-45.6,-45.4,-5.72,29.4,0.51004,-0.16074,-0.07162,-0.84189
 13:45:35.059,eb:33:2e:f9:57:b5, 2085-97-173 08:135:252:3845,1.057,-0.459,1.921,92.163,116.76,-25.818,67.736,36.249,-95.861,-45.6,-45.4,-5.72,29.4,0.51004,-0.16074,-0.07162,-0.84189
 13:45:35.059,eb:33:2e:f9:57:b5, 2085-97-44 08:22:253:3288,0.941,-0.401,1.748,106.812,92.102,-27.527,69.395,36.887,-94.768,-45.6,-45.4,-5.72,29.4,0.51004,-0.16074,-0.07162,-0.84189
 13:45:35.059,eb:33:2e:f9:57:b5, 2085-97-78 07:147:252:2859,0.879,-0.395,1.436,113.22,42.48,-35.095,70.9,37.414,-94.114,-45.6,-45.4,-5.72,29.4,0.51004,-0.16074,-0.07162,-0.84189
 13:45:35.059,eb:33:2e:f9:57:b5, 2085-97-242 05:193:250:3192,0.545,-0.503,1.467,107.422,-12.085,-40.771,71.993,37.826,-94.142,-45.6,-45.4,-5.72,29.4,0.51004,-0.16074,-0.07162,-0.84189
 13:45:35.061,eb:33:2e:f9:57:b5, 2085-97-218 02:137:247:3494,0.401,-0.856,1.652,96.863,-67.078,-33.813,72.603,38.062,-94.796,-45.6,-45.4,-5.72,29.4,0.51004,-0.16074,-0.07162,-0.84189
 13:45:35.061,eb:33:2e:f9:57:b5, 2085-97-126 04:137:245:4043,0.642,-1.213,1.884,75.439,-121.643,-10.498,72.669,37.991,-96.114,-45.6,-45.4,-5.72,29.4,0.51004,-0.16074,-0.07162,-0.84189
 13:45:35.061,eb:33:2e:f9:57:b5, 2085-97-182 04:222:244:2916,0.573,-1.369,1.816,26.245,-116.577,19.104,72.285,37.579,-97.553,-45.6,-45.4,-5.72,29.4,0.51004,-0.16074,-0.07162,-0.84189
 13:45:35.061,eb:33:2e:f9:57:b5, 2085-97-13 04:136:244:579,0.601,-1.386,0.957,-36.011,-114.319,51.331,71.455,36.876,-98.8,-45.6,-45.4,-5.72,29.4,0.51004,-0.16074,-0.07162,-0.84189
 13:45:35.208,eb:33:2e:f9:57:b5, 2085-97-77 05:171:245:-1576,0.729,-1.375,-0.309,-118.53,-133.606,80.627,69.966,35.821,-99.97,-45.6,-45.4,-5.72,29.4,0.51004,-0.16074,-0.07162,-0.84189
 13:45:35.208,eb:33:2e:f9:57:b5, 2085-113-58 00:195:241:-9165,0.865,-1.182,-0.783,-217.041,-176.147,103.943,67.434,34.382,-101.343,-45.6,-45.4,-5.72,29.4,0.51004,-0.16074,-0.07162,-0.84189
 13:45:35.208,eb:33:2e:f9:57:b5, 2085-97-04 07:64:249:177,0.871,-1.005,-0.32,-256.47,-196.899,106.689,65.786,33.519,-102.134,-45.6,-45.4,-5.72,29.4,0.51004,-0.16074,-0.07162,-0.84189
 13:45:35.208,eb:33:2e:f9:57:b5, 2085-97-246 06:185:250:650,0.861,-0.717,0.292,-303.406,-234.375,101.99,61.952,31.624,-103.942,-45.6,-45.4,-5.72,29.4,0.51004,-0.16074,-0.07162,-0.84189
 13:45:35.212,eb:33:2e:f9:57:b5, 2085-97-208 06:59:250:518,0.832,-0.675,0.25,-326.05,-276.55,94.971,57.766,29.487,-105.947,-45.6,-45.4,-5.72,29.4,0.51004,-0.16074,-0.07162,-0.84189
 13:45:35.212,eb:33:2e:f9:57:b5, 2085-97-92 00:98:01:5287,-0.157,-0.757,0.385,-346.68,-315.918,93.75,53.322,27.015,-108.182,-45.6,-45.4,-5.72,29.4,0.51004,-0.16074,-0.07162,-0.84189
 13:45:35.212,eb:33:2e:f9:57:b5, 2085-97-127 252:231:04:6718,-0.691,0.37,2.838,-343.201,-338.745,112.793,17.726,-2.104,-116.895,-45.6,-45.4,-5.72,29.4,0.51004,-0.16074,-0.07162,-0.84189
 13:45:35.212,eb:33:2e:f9:57:b5, 2085-97-185 248:68:08:8509,-1.056,0.812,3.726,-329.285,-317.078,120.361,14.315,-5.603,-116.697,-45.6,-45.4,-5.72,29.4,0.51004,-0.16074,-0.07162,-0.84189
 13:45:35.298,eb:33:2e:f9:57:b5, 2085-97-213 246:187:14:9177,-1.257,1.37,4.43,-309.753,-259.705,132.141,11.047,-8.69,-116.104,-24.3,-61.1,-15.08,29.4,0.51004,-0.16074,-0.07162,-0.84189
 13:45:35.298,eb:33:2e:f9:57:b5, 2085-97-99 247:95:252:224,-0.502,2.36,4.329,-288.086,-194.946,133.545,7.872,-11.118,-115.137,-24.3,-61.1,-15.08,29.4,0.51004,-0.16074,-0.07162,-0.84189
 13:45:35.298,eb:33:2e:f9:57:b5, 2085-97-218 254:197:01:1654,-0.903,-0.351,0.899,26.123,63.232,4.089,0.857,-0.544,-110.369,-24.3,-61.1,-15.08,29.4,0.51004,-0.16074,-0.07162,-0.84189
 13:45:35.298,eb:33:2e:f9:57:b5, 2085-97-209 250:172:254:1643,0.608,-0.297,0.354,24.231,46.509,-2.747,1.11,0.198,-110.451,-24.3,-61.1,-15.08,29.4,0.51004,-0.16074,-0.07162,-0.84189
 13:45:35.361,eb:33:2e:f9:57:b5, 2085-97-236 07:138:02:5833,0.285,0.256,2.209,30.579,44.434,3.601,1.401,0.439,-110.38,-24.3,-61.1,-15.08,29.4,0.51004,-0.16074,-0.07162,-0.84189
 13:45:35.361,eb:33:2e:f9:57:b5, 2085-97-05 11:149:246:3483,1.835,0.145,1.997,50.964,111.145,-20.203,1.857,1.423,-110.495,-24.3,-61.1,-15.08,29.4,0.51004,-0.16074,-0.07162,-0.84189
 13:45:35.361,eb:33:2e:f9:57:b5, 2085-97-78 18:35:03:-3310,2.371,-0.882,0.278,322.144,424.194,47.974,50.713,23.373,-93.631,-24.3,-61.1,-15.08,29.4,0.51004,-0.16074,-0.07162,-0.84189
 13:45:35.361,eb:33:2e:f9:57:b5, 2085-97-126 11:64:13:-2720,-0.199,1.502,-2.003,296.997,281.128,-87.769,54.959,25.67,-90.621,-24.3,-61.1,-15.08,29.4,0.51004,-0.16074,-0.07162,-0.84189
 13:45:35.361,eb:33:2e:f9:57:b5, 2085-97-122 04:48:09:398,0.922,1.305,-1.535,262.573,43.762,-218.14,58.085,28.048,-89.989,-24.3,-61.1,-15.08,29.4,0.51004,-0.16074,-0.07162,-0.84189
 13:45:35.361,eb:33:2e:f9:57:b5, 2085-97-195 07:224:253:4233,0.888,0.517,1.353,210.938,-102.966,-281.494,59.458,29.976,-92.071,-24.3,-61.1,-15.08,29.4,0.51004,-0.16074,-0.07162,-0.84189
 13:45:35.361,eb:33:2e:f9:57:b5, 2085-97-80 05:196:246:5581,0.525,-0.853,2.594,176.636,-98.328,-281.128,59.936,31.904,-94.856,-24.3,-61.1,-15.08,29.4,0.51004,-0.16074,-0.07162,-0.84189
 13:45:35.361,eb:33:2e:f9:57:b5, 2085-97-139 03:73:245:5771,0.414,-1.28,2.815,155.701,-55.054,-228.76,60.342,33.755,-97.174,-24.3,-61.1,-15.08,29.4,0.51004,-0.16074,-0.07162,-0.84189
 13:45:35.361,eb:33:2e:f9:57:b5, 2085-97-180 03:85:245:4994,0.494,-1.365,2.685,133.85,13.855,-153.442,61.046,35.31,-98.481,-24.3,-61.1,-15.08,29.4,0.51004,-0.16074,-0.07162,-0.84189
 13:45:35.362,eb:33:2e:f9:57:b5, 2085-97-61 05:122:254:2361,0.69,-1.28,2.022,107.544,65.491,-77.454,62.155,36.519,-98.641,-24.3,-61.1,-15.08,29.4,0.51004,-0.16074,-0.07162,-0.84189
 13:45:35.362,eb:33:2e:f9:57:b5, 2085-97-32 05:61:252:2794,0.507,-0.295,1.286,25.146,-132.69,-18.677,65.259,36.793,-99.388,-24.3,-61.1,-15.08,29.4,0.51004,-0.16074,-0.07162,-0.84189
 13:45:35.362,eb:33:2e:f9:57:b5, 2085-97-98 03:88:248:2308,0.508,-0.716,1.314,-27.832,-176.941,-30.518,64.1,36.376,-101.288,-24.3,-61.1,-15.08,29.4,0.51004,-0.16074,-0.07162,-0.84189
 13:45:35.508,eb:33:2e:f9:57:b5, 2085-97-102 05:253:245:1239,0.917,-1.161,0.883,-111.145,-215.332,-32.532,61.974,35.755,-103.705,-24.3,-61.1,-15.08,29.4,0.51004,-0.16074,-0.07162,-0.84189
 13:45:35.508,eb:33:2e:f9:57:b5, 2085-97-114 08:169:246:1590,0.856,-1.205,0.576,-209.106,-214.111,-25.879,58.854,34.942,-106.21,-24.3,-61.1,-15.08,29.4,0.51004,-0.16074,-0.07162,-0.84189
 13:45:35.508,eb:33:2e:f9:57:b5, 2085-97-208 04:178:246:1708,0.417,-1.176,0.887,-246.948,-215.271,-28.259,55.162,34.025,-108.539,-24.3,-61.1,-15.08,29.4,0.51004,-0.16074,-0.07162,-0.84189
 13:45:35.508,eb:33:2e:f9:57:b5, 2085-97-138 02:147:247:1372,0.226,-1.112,0.747,-218.811,-249.817,-21.24,51.471,32.838,-110.989,-24.3,-61.1,-15.08,29.4,0.51004,-0.16074,-0.07162,-0.84189
 13:45:35.541,eb:33:2e:f9:57:b5, 2085-97-67 01:253:246:967,0.129,-1.058,0.565,-192.627,-272.4,-2.625,48.137,31.229,-113.461,-24.3,-61.1,-15.08,29.4,0.51004,-0.16074,-0.07162,-0.84189
 13:45:35.541,eb:33:2e:f9:57:b5, 2085-97-100 01:110:246:1070,0.252,-1.208,0.457,-191.406,-288.94,23.56,45.071,29.213,-115.763,-24.3,-61.1,-15.08,29.4,0.51004,-0.16074,-0.07162,-0.84189
 13:45:35.541,eb:33:2e:f9:57:b5, 2085-97-126 02:241:247:1207,0.332,-1.107,0.575,-213.257,-296.326,46.082,42.111,26.834,-117.757,-24.3,-61.1,-15.08,29.4,0.51004,-0.16074,-0.07162,-0.84189
 13:45:35.541,eb:33:2e:f9:57:b5, 2085-97-139 02:104:249:1190,0.301,-0.907,0.569,-240.54,-318.115,53.589,39.04,24.181,-119.559,-24.3,-61.1,-15.08,29.4,0.51004,-0.16074,-0.07162,-0.84189
 13:45:35.542,eb:33:2e:f9:57:b5, 2085-97-85 02:15:249:2035,0.25,-0.812,0.727,-260.132,-356.934,50.415,35.826,21.165,-121.355,-24.3,-61.1,-15.08,29.4,0.51004,-0.16074,-0.07162,-0.84189
 13:45:35.750,eb:33:2e:f9:57:b5, 2085-113-81 00:226:52:8608,-0.03,-0.955,1.259,-268.127,-374.634,49.133,32.552,17.836,-123.146,-24.3,-61.1,-15.08,29.4,0.41315,0.2627,-0.17267,-0.85461
 13:45:35.750,eb:33:2e:f9:57:b5, 2085-97-135 255:223:250:3628,-0.103,-0.831,1.667,-295.898,-334.29,79.468,18.957,2.626,-127.238,-24.3,-61.1,-15.08,29.4,0.41315,0.2627,-0.17267,-0.85461
 13:45:35.750,eb:33:2e:f9:57:b5, 2085-97-167 254:134:254:4742,-0.273,-0.419,2,-295.532,-342.468,58.655,15.991,-0.829,-127.606,-24.3,-61.1,-15.08,29.4,0.41315,0.2627,-0.17267,-0.85461
 13:45:35.750,eb:33:2e:f9:57:b5, 2085-97-144 252:27:01:6087,-0.653,0.001,2.658,-291.26,-320.068,24.414,13.041,-4.153,-128.062,-24.3,-61.1,-15.08,29.4,0.41315,0.2627,-0.17267,-0.85461
 13:45:35.750,eb:33:2e:f9:57:b5, 2085-97-218 248:225:02:6158,-1.03,0.24,3.106,-296.265,-280.945,-10.376,10.173,-7.086,-128.628,-24.3,-61.1,-15.08,29.4,0.41315,0.2627,-0.17267,-0.85461
 13:45:35.751,eb:33:2e:f9:57:b5, 2085-97-03 247:227:04:5282,-1.202,0.505,2.818,-323.059,-266.052,-38.696,7.141,-9.712,-129.309,-24.3,-61.1,-15.08,29.4,0.41315,0.2627,-0.17267,-0.85461
 13:45:35.751,eb:33:2e:f9:57:b5, 2085-97-144 245:96:06:5156,-1.466,0.671,2.454,-348.877,-291.992,-61.157,3.906,-12.426,-130.111,-24.3,-61.1,-15.08,29.4,0.41315,0.2627,-0.17267,-0.85461
 13:45:35.751,eb:33:2e:f9:57:b5, 2085-97-37 242:61:10:6104,-2.025,0.996,2.722,-329.59,-328.491,-72.449,0.632,-15.535,-130.941,-24.3,-61.1,-15.08,29.4,0.41315,0.2627,-0.17267,-0.85461
 13:45:35.751,eb:33:2e:f9:57:b5, 2085-97-05 236:82:38:22549,-0.077,1.668,3.297,-222.839,-406.616,-34.241,-2.016,-19.001,-131.627,-24.3,-61.1,-15.08,29.4,0.41315,0.2627,-0.17267,-0.85461
 13:45:35.751,eb:33:2e:f9:57:b5, 2085-97-193 252:79:00:2599,0.136,0.565,1.2,24.292,131.592,26.428,0.934,-3.878,-135.445,-24.3,-61.1,-15.08,29.4,0.41315,0.2627,-0.17267,-0.85461
 13:45:35.751,eb:33:2e:f9:57:b5, 2085-97-50 253:178:00:1230,-0.002,0.185,1.103,16.907,143.555,13.123,1.06,-2.538,-135.126,-24.3,-61.1,-15.08,29.4,0.41315,0.2627,-0.17267,-0.85461
 13:45:35.751,eb:33:2e:f9:57:b5, 2085-97-11 05:46:02:3615,0.335,0.489,0.571,16.724,95.337,10.559,1.296,-1.329,-134.967,-24.3,-61.1,-15.08,29.4,0.41315,0.2627,-0.17267,-0.85461
 13:45:35.754,eb:33:2e:f9:57:b5, 2085-97-34 253:184:00:1027,-0.609,0.421,1.485,23.865,140.686,-28.442,1.533,-0.143,-135.044,-24.3,-61.1,-15.08,29.4,0.41315,0.2627,-0.17267,-0.85461
 13:45:35.754,eb:33:2e:f9:57:b5, 2085-97-165 249:69:255:330,-1.258,-0.425,0.552,20.874,101.685,-13.55,1.725,1.132,-135.258,-24.3,-61.1,-15.08,29.4,0.41315,0.2627,-0.17267,-0.85461
 13:45:35.754,eb:33:2e:f9:57:b5, 2085-97-14 249:95:254:437,0.076,-0.162,-0.438,11.23,36.072,5.249,1.901,1.879,-135.308,-24.3,-61.1,-15.08,29.4,0.41315,0.2627,-0.17267,-0.85461
 13:45:35.754,eb:33:2e:f9:57:b5, 2085-97-226 01:143:01:3251,-0.046,0.163,1.286,8.911,10.498,15.564,2.027,1.983,-135.126,-24.3,-61.1,-15.08,29.4,0.41315,0.2627,-0.17267,-0.85461
 13:45:35.759,eb:33:2e:f9:57:b5, 2085-97-213 254:27:00:2550,-0.238,0.074,1.379,10.925,45.105,-0.671,2.12,2.318,-135.066,-24.3,-61.1,-15.08,29.4,0.41315,0.2627,-0.17267,-0.85461
 13:45:35.759,eb:33:2e:f9:57:b5, 2085-97-26 253:250:253:2765,-0.223,-0.108,1.297,15.259,51.392,-3.113,2.258,2.867,-135.077,-24.3,-61.1,-15.08,29.4,0.41315,0.2627,-0.17267,-0.85461
 13:45:35.759,eb:33:2e:f9:57:b5, 2085-97-235 255:185:255:3192,-0.078,-0.095,1.272,29.724,38.574,1.709,2.494,3.312,-135.049,-24.3,-61.1,-15.08,29.4,0.41315,0.2627,-0.17267,-0.85461
 13:45:35.759,eb:33:2e:f9:57:b5, 2085-97-90 252:245:251:4096,-0.791,-0.159,1.716,40.771,58.411,-8.057,2.845,3.873,-135.071,-24.3,-61.1,-15.08,29.4,0.41315,0.2627,-0.17267,-0.85461
 13:45:35.810,eb:33:2e:f9:57:b5, 2085-97-72 250:112:250:3537,0.301,-0.625,1.828,92.163,22.217,19.226,3.499,4.345,-134.989,-24.3,-61.1,-15.08,29.4,0.41315,0.2627,-0.17267,-0.85461
 13:45:35.810,eb:33:2e:f9:57:b5, 2085-113-58 00:51:235:-8685,0.321,0.262,1.707,266.785,203.613,-32.715,35.305,15.557,-128.101,-24.3,-61.1,-15.08,29.4,0.41315,0.2627,-0.17267,-0.85461
 13:45:35.810,eb:33:2e:f9:57:b5, 2085-97-94 03:129:02:3901,0.534,0.333,1.743,272.583,202.82,-37.903,36.788,16.485,-127.634,-24.3,-61.1,-15.08,29.4,0.41315,0.2627,-0.17267,-0.85461
 13:45:35.810,eb:33:2e:f9:57:b5, 2085-97-135 03:143:01:3444,0.448,0.222,1.889,281.799,221.069,-47.241,39.886,18.452,-126.617,-24.3,-61.1,-15.08,29.4,0.41315,0.2627,-0.17267,-0.85461
 13:45:35.839,eb:33:2e:f9:57:b5, 2085-97-196 03:128:00:3310,0.478,0.076,1.629,302.002,219.238,-54.932,43.182,20.451,-125.48,-35.5,-57.9,-11.36,29.4,0.41315,0.2627,-0.17267,-0.85461
 13:45:35.839,eb:33:2e:f9:57:b5, 2085-97-124 03:21:00:3431,0.505,0.001,1.674,327.576,213.501,-65.125,46.785,22.451,-124.299,-35.5,-57.9,-11.36,29.4,0.41315,0.2627,-0.17267,-0.85461
 13:45:35.839,eb:33:2e:f9:57:b5, 2085-97-02 04:180:255:3252,0.455,0.01,1.625,344.727,205.322,-76.111,50.652,24.351,-123.091,-35.5,-57.9,-11.36,29.4,0.41315,0.2627,-0.17267,-0.85461
 13:45:35.839,eb:33:2e:f9:57:b5, 2085-97-211 03:68:254:2402,0.429,-0.078,1.414,343.872,197.144,-83.74,54.641,26.252,-121.866,-35.5,-57.9,-11.36,29.4,0.41315,0.2627,-0.17267,-0.85461
 13:45:35.869,eb:33:2e:f9:57:b5, 2085-97-36 03:136:254:1043,0.493,-0.269,0.815,332.092,169.006,-83.557,58.568,27.971,-120.646,-35.5,-57.9,-11.36,29.4,0.41315,0.2627,-0.17267,-0.85461
 13:45:35.869,eb:33:2e:f9:57:b5, 2085-97-44 04:160:252:534,0.001,-0.513,0.47,315.918,116.516,-78.918,62.249,29.427,-119.745,-35.5,-57.9,-11.36,29.4,0.41315,0.2627,-0.17267,-0.85461
 13:45:35.869,eb:33:2e:f9:57:b5, 2085-97-181 254:31:254:-023,-0.25,-0.704,-0.506,245.361,30.945,-50.964,65.369,30.405,-119.279,-35.5,-57.9,-11.36,29.4,0.41315,0.2627,-0.17267,-0.85461
 13:45:35.869,eb:33:2e:f9:57:b5, 2085-97-103 255:96:255:3332,0.06,-0.064,0.821,156.128,-61.401,-11.23,67.11,30.597,-119.614,-35.5,-57.9,-11.36,29.4,0.41315,0.2627,-0.17267,-0.85461
 13:45:35.929,eb:33:2e:f9:57:b5, 2085-97-41 02:38:253:4572,0.46,-0.234,2.037,100.342,-90.698,15.564,67.901,30.245,-120.482,-35.5,-57.9,-11.36,29.4,0.28302,0.45709,-0.34445,-0.76953
 13:45:35.929,eb:33:2e:f9:57:b5, 2085-97-124 04:23:254:4560,0.517,-0.34,2.275,67.2,-73.853,32.166,68.318,29.724,-121.273,-35.5,-57.9,-11.36,29.4,0.28302,0.45709,-0.34445,-0.76953
 13:45:35.929,eb:33:2e:f9:57:b5, 2085-97-131 03:05:255:3957,0.487,-0.164,2.12,40.649,-59.082,34.18,68.577,29.174,-121.789,-35.5,-57.9,-11.36,29.4,0.28302,0.45709,-0.34445,-0.76953
 13:45:35.929,eb:33:2e:f9:57:b5, 2085-97-243 04:214:255:2702,0.768,-0.08,1.683,8.24,-72.754,25.94,68.544,28.68,-122.377,-35.5,-57.9,-11.36,29.4,0.28302,0.45709,-0.34445,-0.76953
 13:45:36.018,eb:33:2e:f9:57:b5, 2085-97-205 06:205:00:1231,0.882,0.048,0.925,-49.255,-96.436,5.859,67.928,28.218,-123.184,-35.5,-57.9,-11.36,29.4,0.28302,0.45709,-0.34445,-0.76953
 13:45:36.018,eb:33:2e:f9:57:b5, 2085-97-28 07:135:00:1119,0.918,0.099,0.471,-96.985,-153.076,-30.029,66.495,27.894,-124.552,-35.5,-57.9,-11.36,29.4,0.28302,0.45709,-0.34445,-0.76953
 13:45:36.018,eb:33:2e:f9:57:b5, 2085-97-187 07:193:254:1615,0.953,-0.021,0.715,-114.868,-224.304,-67.139,64.38,27.554,-126.766,-35.5,-57.9,-11.36,29.4,0.28302,0.45709,-0.34445,-0.76953
 13:45:36.019,eb:33:2e:f9:57:b5, 2085-97-84 07:80:252:1032,0.887,-0.291,0.662,-141.602,-286.377,-100.098,61.677,27.169,-129.853,-35.5,-57.9,-11.36,29.4,0.28302,0.45709,-0.34445,-0.76953
 13:45:36.021,eb:33:2e:f9:57:b5, 2085-97-227 06:127:249:1378,0.823,-0.643,0.493,-187.134,-311.279,-115.601,58.398,26.609,-133.401,-35.5,-57.9,-11.36,29.4,0.28302,0.45709,-0.34445,-0.76953
 13:45:36.021,eb:33:2e:f9:57:b5, 2085-97-87 05:138:247:2119,0.446,-0.954,0.935,-212.28,-306.213,-116.211,54.745,25.9,-137.027,-35.5,-57.9,-11.36,29.4,0.28302,0.45709,-0.34445,-0.76953
 13:45:36.021,eb:33:2e:f9:57:b5, 2085-97-45 02:170:248:1418,0.208,-1.024,0.906,-208.923,-313.843,-109.07,51.136,24.939,-140.493,-35.5,-57.9,-11.36,29.4,0.28302,0.45709,-0.34445,-0.76953
 13:45:36.021,eb:33:2e:f9:57:b5, 2085-97-197 01:73:248:1706,0.229,-0.896,0.657,-207.642,-333.923,-96.313,47.615,23.621,-143.954,-35.5,-57.9,-11.36,29.4,0.28302,0.45709,-0.34445,-0.76953
 13:45:36.048,eb:33:2e:f9:57:b5, 2085-97-143 01:85:248:2420,0.13,-1.003,1.056,-197.205,-342.651,-82.581,44.297,21.89,-147.255,-35.5,-57.9,-11.36,29.4,0.28302,0.45709,-0.34445,-0.76953
 13:45:36.048,eb:33:2e:f9:57:b5, 2085-97-175 00:224:249:2402,0.079,-0.853,1.187,-186.218,-347.229,-73.242,41.254,19.896,-150.392,-35.5,-57.9,-11.36,29.4,0.28302,0.45709,-0.34445,-0.76953
 13:45:36.048,eb:33:2e:f9:57:b5, 2085-97-138 00:109:249:2750,0.043,-0.761,1.232,-189.636,-351.868,-69.397,38.43,17.661,-153.325,-35.5,-57.9,-11.36,29.4,0.28302,0.45709,-0.34445,-0.76953
 13:45:36.048,eb:33:2e:f9:57:b5, 2085-97-36 00:190:248:3081,0.002,-0.881,1.442,-198.364,-348.389,-63.843,35.667,15.276,-156.105,-35.5,-57.9,-11.36,29.4,0.28302,0.45709,-0.34445,-0.76953
 13:45:36.080,eb:33:2e:f9:57:b5, 2085-97-21 00:142:248:3190,0.013,-0.925,1.531,-203.857,-342.834,-55.237,33.041,12.766,-158.599,-35.5,-57.9,-11.36,29.4,0.28302,0.45709,-0.34445,-0.76953
 13:45:36.080,eb:33:2e:f9:57:b5, 2085-97-45 00:85:248:3389,0.017,-0.944,1.587,-204.651,-342.773,-47.18,30.504,10.129,-160.9,-35.5,-57.9,-11.36,29.4,0.28302,0.45709,-0.34445,-0.76953
 13:45:36.080,eb:33:2e:f9:57:b5, 2085-97-02 00:255:247:3780,-0.04,-0.984,1.749,-205.505,-343.14,-37.842,28.136,7.344,-162.96,-35.5,-57.9,-11.36,29.4,0.28302,0.45709,-0.34445,-0.76953
 13:45:36.080,eb:33:2e:f9:57:b5, 2085-97-120 255:127:248:3831,-0.098,-0.993,1.868,-207.764,-337.952,-25.391,25.834,4.46,-164.806,-35.5,-57.9,-11.36,29.4,0.28302,0.45709,-0.34445,-0.76953
 13:45:36.110,eb:33:2e:f9:57:b5, 2085-97-202 254:16:251:3668,-0.219,-0.813,1.846,-207.092,-343.384,-16.479,23.67,1.456,-166.393,-29.2,-59.2,-23.3,29.4,0.28302,0.45709,-0.34445,-0.76953
 13:45:36.110,eb:33:2e:f9:57:b5, 2085-97-105 253:89:254:3852,-0.469,-0.398,1.788,-198.364,-369.08,-21.973,21.599,-1.752,-167.943,-29.2,-59.2,-23.3,29.4,0.28302,0.45709,-0.34445,-0.76953
 13:45:36.110,eb:33:2e:f9:57:b5, 2085-97-201 250:164:00:4765,-0.869,-0.056,2.071,-183.655,-393.494,-39.429,19.792,-5.24,-169.574,-29.2,-59.2,-23.3,29.4,0.28302,0.45709,-0.34445,-0.76953
 13:45:36.110,eb:33:2e:f9:57:b5, 2085-97-251 246:47:03:5857,-1.478,0.218,2.599,-166.809,-388.184,-61.951,18.221,-8.795,-171.354,-29.2,-59.2,-23.3,29.4,0.28302,0.45709,-0.34445,-0.76953
 13:45:36.170,eb:33:2e:f9:57:b5, 2085-97-215 241:245:05:6889,-2.055,0.607,3.158,-147.278,-340.515,-90.454,16.996,-12.063,-173.21,-29.2,-59.2,-23.3,29.4,0.28302,0.45709,-0.34445,-0.76953
 13:45:36.170,eb:33:2e:f9:57:b5, 2085-97-161 237:27:08:6722,-2.455,0.874,3.424,-141.785,-260.498,-111.694,15.958,-14.628,-175.084,-29.2,-59.2,-23.3,29.4,0.28302,0.45709,-0.34445,-0.76953
 13:45:36.170,eb:33:2e:f9:57:b5, 2085-97-70 235:133:10:5525,-2.672,1.182,3.013,-151.55,-174.683,-126.526,14.974,-16.359,-176.863,-29.2,-59.2,-23.3,29.4,0.28302,0.45709,-0.34445,-0.76953
 13:45:36.171,eb:33:2e:f9:57:b5, 2085-97-44 234:00:13:4628,-2.768,1.459,2.454,-152.466,-106.323,-134.521,13.87,-17.336,-178.533,-29.2,-59.2,-23.3,29.4,0.28302,0.45709,-0.34445,-0.76953
 13:45:36.258,eb:33:2e:f9:57:b5, 2085-97-140 233:10:15:4000,-2.835,1.78,2.103,-122.559,-55.969,-135.803,12.964,-17.776,179.907,-29.2,-59.2,-23.3,29.4,0.05252,-0.12973,-0.138,-0.98044
 13:45:36.258,eb:33:2e:f9:57:b5, 2085-97-113 233:68:15:3282,-2.804,1.913,1.789,-67.932,-11.108,-122.314,12.409,-17.781,178.517,-29.2,-59.2,-23.3,29.4,0.05252,-0.12973,-0.138,-0.98044
 13:45:36.258,eb:33:2e:f9:57:b5, 2085-97-213 233:200:13:2134,-2.716,1.837,1.334,-1.77,30.518,-89.966,12.404,-17.43,177.484,-29.2,-59.2,-23.3,29.4,0.05252,-0.12973,-0.138,-0.98044
 13:45:36.258,eb:33:2e:f9:57:b5, 2085-97-193 229:215:39:5099,-1.631,1.571,0.773,78.43,44.189,-37.415,12.947,-16.848,176.929,-29.2,-59.2,-23.3,29.4,0.05252,-0.12973,-0.138,-0.98044
 13:45:36.288,eb:33:2e:f9:57:b5, 2085-97-211 237:42:27:9348,-2.699,4.253,6.544,-29.663,272.766,-92.834,13.469,-15.886,176.435,-29.2,-59.2,-23.3,29.4,0.05252,-0.12973,-0.138,-0.98044
 13:45:36.288,eb:33:2e:f9:57:b5, 2085-97-227 207:91:53:6585,-7.003,1.771,1.781,-107.971,618.469,-151.978,12.612,-10.651,176.309,-29.2,-59.2,-23.3,29.4,0.05252,-0.12973,-0.138,-0.98044
 13:45:36.288,eb:33:2e:f9:57:b5, 2085-97-21 214:23:28:-22454,-1.159,2.958,-0.011,-218.201,776.123,-253.296,11.475,-2.714,175.792,-29.2,-59.2,-23.3,29.4,0.05252,-0.12973,-0.138,-0.98044
 13:45:36.288,eb:33:2e:f9:57:b5, 2085-97-119 206:199:205:3191,-3.669,2.891,-2.384,-287.231,172.607,-269.897,9.421,0.176,174.479,-29.2,-59.2,-23.3,29.4,0.05252,-0.12973,-0.138,-0.98044
 13:45:36.290,eb:33:2e:f9:57:b5, 2085-97-155 15:103:241:13380,1.827,-4.15,1.661,-128.784,-141.174,90.881,6.619,1.104,174.342,-29.2,-59.2,-23.3,29.4,0.05252,-0.12973,-0.138,-0.98044
 13:45:36.290,eb:33:2e:f9:57:b5, 2085-97-227 238:230:249:059,0.373,1.072,2.08,-29.846,113.037,-30.396,6.367,0.615,174.402,-29.2,-59.2,-23.3,29.4,0.05252,-0.12973,-0.138,-0.98044
 13:45:36.290,eb:33:2e:f9:57:b5, 2085-97-123 06:76:00:4410,-0.318,-0.159,2.106,-11.78,7.324,29.053,6.158,0.654,174.661,-29.2,-59.2,-23.3,29.4,0.05252,-0.12973,-0.138,-0.98044
 13:45:36.290,eb:33:2e:f9:57:b5, 2085-97-192 00:134:00:2969,-0.142,-0.074,1.08,4.7,57.983,12.146,6.103,1.313,174.853,-29.2,-59.2,-23.3,29.4,0.05252,-0.12973,-0.138,-0.98044
 13:45:36.349,eb:33:2e:f9:57:b5, 2085-97-48 251:200:254:1068,-0.24,-0.07,1.059,10.864,81.421,0.305,6.191,2.021,175.007,-29.2,-59.2,-23.3,29.4,0.05252,-0.12973,-0.138,-0.98044
 13:45:36.349,eb:33:2e:f9:57:b5, 2085-97-02 255:78:01:1766,-0.137,0.092,0.813,15.564,44.495,1.404,6.312,2.626,175.095,-29.2,-59.2,-23.3,29.4,0.05252,-0.12973,-0.138,-0.98044
 13:45:36.349,eb:33:2e:f9:57:b5, 2085-97-40 254:169:00:1658,-0.446,0.101,0.924,12.146,39.368,-4.272,6.449,3.043,175.15,-29.2,-59.2,-23.3,29.4,0.05252,-0.12973,-0.138,-0.98044
 13:45:36.349,eb:33:2e:f9:57:b5, 2085-97-195 252:71:255:1529,-0.282,-0.074,0.642,8.179,21.24,-0.183,6.509,3.422,175.144,-29.2,-59.2,-23.3,29.4,0.05252,-0.12973,-0.138,-0.98044
 13:45:36.351,eb:33:2e:f9:57:b5, 2085-97-243 254:254:255:2347,0.042,-0.033,0.938,8.24,3.357,5.615,6.592,3.521,175.232,-29.2,-59.2,-23.3,29.4,0.05252,-0.12973,-0.138,-0.98044
 13:45:36.351,eb:33:2e:f9:57:b5, 2085-97-06 00:110:00:2721,-0.136,0.077,1.349,11.414,11.047,3.113,6.663,3.598,175.281,-29.2,-59.2,-23.3,29.4,0.05252,-0.12973,-0.138,-0.98044
 13:45:36.351,eb:33:2e:f9:57:b5, 2085-97-129 253:248:254:2095,-0.353,-0.016,1.152,15.747,16.846,3.052,6.812,3.763,175.358,-29.2,-59.2,-23.3,29.4,0.05252,-0.12973,-0.138,-0.98044
 13:45:36.351,eb:33:2e:f9:57:b5, 2085-97-02 254:116:255:2226,-0.241,-0.167,1.107,18.982,-0.671,10.742,6.96,3.867,175.43,-29.2,-59.2,-23.3,29.4,0.05252,-0.12973,-0.138,-0.98044
 13:45:36.408,eb:33:2e:f9:57:b5, 2085-97-228 253:54:254:3020,-0.475,-0.144,1.278,29.236,-17.7,16.785,7.213,3.735,175.583,-29.2,-59.2,-23.3,29.4,0.05252,-0.12973,-0.138,-0.98044
 13:45:36.408,eb:33:2e:f9:57:b5, 2085-97-180 251:200:250:4191,-0.252,-0.488,1.838,52.185,-16.541,36.743,7.592,3.565,175.814,-29.2,-59.2,-23.3,29.4,0.05252,-0.12973,-0.138,-0.98044
 13:45:36.408,eb:33:2e:f9:57:b5, 2085-97-166 255:157:254:4161,-0.025,-0.216,1.784,105.957,-39.368,53.833,8.394,3.285,176.336,-29.2,-59.2,-23.3,29.4,0.05252,-0.12973,-0.138,-0.98044
 13:45:36.408,eb:33:2e:f9:57:b5, 2085-97-31 00:216:251:5173,0.1,-0.388,2.436,165.71,-45.776,46.021,9.794,2.758,176.715,-29.2,-59.2,-23.3,29.4,0.05252,-0.12973,-0.138,-0.98044
 13:45:36.468,eb:33:2e:f9:57:b5, 2085-97-11 01:196:253:4525,0.167,-0.375,2.337,212.341,-16.052,49.622,11.739,2.384,177.188,-43.4,-60.6,-28.167,29.4,0.05252,-0.12973,-0.138,-0.98044
 13:45:36.468,eb:33:2e:f9:57:b5, 2085-97-108 01:239:252:4832,0.289,-0.375,2.312,252.136,2.808,41.687,14.068,2.247,177.594,-43.4,-60.6,-28.167,29.4,0.05252,-0.12973,-0.138,-0.98044
 13:45:36.468,eb:33:2e:f9:57:b5, 2085-97-190 02:237:253:4377,0.356,-0.349,2.291,282.166,41.321,42.175,16.787,2.368,178.099,-43.4,-60.6,-28.167,29.4,0.05252,-0.12973,-0.138,-0.98044
 13:45:36.468,eb:33:2e:f9:57:b5, 2085-97-93 03:190:253:4503,0.383,-0.322,2.197,304.321,78.125,31.433,19.72,2.878,178.627,-43.4,-60.6,-28.167,29.4,0.05252,-0.12973,-0.138,-0.98044
 13:45:36.472,eb:33:2e:f9:57:b5, 2085-97-191 02:52:254:4269,0.383,-0.213,2.147,322.388,119.995,16.846,22.896,3.735,179.247,-43.4,-60.6,-28.167,29.4,0.05252,-0.12973,-0.138,-0.98044
 13:45:36.472,eb:33:2e:f9:57:b5, 2085-97-26 02:71:255:3700,0.287,-0.227,1.905,339.722,153.87,5.249,26.235,5.004,179.918,-43.4,-60.6,-28.167,29.4,0.05252,-0.12973,-0.138,-0.98044
 13:45:36.472,eb:33:2e:f9:57:b5, 2085-113-81 00:234:254:1840,0.328,-0.145,1.802,349.854,177.429,-6.348,29.773,6.471,-179.28,-43.4,-60.6,-28.167,29.4,0.05252,-0.12973,-0.138,-0.98044
 13:45:36.474,eb:33:2e:f9:57:b5, 2085-97-153 01:29:01:3364,0.192,-0.146,1.72,351.807,187.744,-9.949,31.586,7.284,-178.852,-43.4,-60.6,-28.167,29.4,0.05252,-0.12973,-0.138,-0.98044
 13:45:36.474,eb:33:2e:f9:57:b5, 2085-97-186 02:142:00:3642,0.264,0.216,1.836,346.741,199.829,-20.996,35.167,9.036,-177.907,-43.4,-60.6,-28.167,29.4,0.05252,-0.12973,-0.138,-0.98044
 13:45:36.558,eb:33:2e:f9:57:b5, 2085-97-192 02:44:02:3216,0.381,0.215,1.623,331.177,221.741,-25.024,38.743,10.882,-176.748,-43.4,-60.6,-28.167,29.4,-0.00848,0.05615,-0.25616,-0.9649
 13:45:36.558,eb:33:2e:f9:57:b5, 2085-97-64 03:88:02:2788,0.395,0.213,1.469,312.988,231.628,-30.945,42.188,12.843,-175.468,-43.4,-60.6,-28.167,29.4,-0.00848,0.05615,-0.25616,-0.9649
 13:45:36.558,eb:33:2e:f9:57:b5, 2085-97-76 03:107:03:2272,0.46,0.309,1.187,296.57,237.366,-36.011,45.571,14.777,-174.001,-43.4,-60.6,-28.167,29.4,-0.00848,0.05615,-0.25616,-0.9649
 13:45:36.558,eb:33:2e:f9:57:b5, 2085-97-227 03:242:03:2366,0.48,0.526,1.126,275.208,236.877,-45.776,48.796,16.721,-172.496,-43.4,-60.6,-28.167,29.4,-0.00848,0.05615,-0.25616,-0.9649
 13:45:36.561,eb:33:2e:f9:57:b5, 2085-97-208 03:199:01:2878,0.46,0.409,1.268,252.563,249.695,-56.824,51.91,18.666,-170.848,-43.4,-60.6,-28.167,29.4,-0.00848,0.05615,-0.25616,-0.9649
 13:45:36.561,eb:33:2e:f9:57:b5, 2085-97-38 05:59:00:2949,0.649,0.326,1.549,255.493,264.893,-60.303,55.009,20.709,-169.019,-43.4,-60.6,-28.167,29.4,-0.00848,0.05615,-0.25616,-0.9649
 13:45:36.561,eb:33:2e:f9:57:b5, 2085-97-105 05:103:02:1010,0.717,0.212,0.89,257.324,263.062,-57.129,58.343,22.654,-166.91,-43.4,-60.6,-28.167,29.4,-0.00848,0.05615,-0.25616,-0.9649
 13:45:36.561,eb:33:2e:f9:57:b5, 2085-97-28 06:176:01:568,0.794,0.203,0.353,286.133,201.843,-72.266,61.738,24.417,-165.092,-43.4,-60.6,-28.167,29.4,-0.00848,0.05615,-0.25616,-0.9649
 13:45:36.619,eb:33:2e:f9:57:b5, 2085-97-19 07:117:04:1626,0.515,0.347,0.423,343.445,143.738,-99.976,65.424,25.939,-163.79,-43.4,-60.6,-28.167,29.4,-0.00848,0.05615,-0.25616,-0.9649
 13:45:36.619,eb:33:2e:f9:57:b5, 2085-97-157 01:69:09:1339,0.256,0.96,0.731,401.978,101.929,-152.588,69.5,27.625,-163.076,-43.4,-60.6,-28.167,29.4,-0.00848,0.05615,-0.25616,-0.9649
 13:45:36.619,eb:33:2e:f9:57:b5, 2085-97-194 01:114:04:2470,0.263,0.813,1.131,389.954,35.095,-188.965,73.482,29.515,-162.977,-43.4,-60.6,-28.167,29.4,-0.00848,0.05615,-0.25616,-0.9649
 13:45:36.619,eb:33:2e:f9:57:b5, 2085-97-206 01:185:00:2425,0.141,0.351,1.217,346.008,-4.395,-193.481,76.904,31.448,-163.46,-43.4,-60.6,-28.167,29.4,-0.00848,0.05615,-0.25616,-0.9649
 13:45:36.649,eb:33:2e:f9:57:b5, 2085-97-159 00:255:253:2147,0.044,-0.128,1.095,268.86,-8.789,-171.448,79.667,33.228,-163.922,-43.4,-60.6,-28.167,29.4,-0.00848,0.05615,-0.25616,-0.9649
 13:45:36.649,eb:33:2e:f9:57:b5, 2085-97-67 00:02:255:2173,0.002,-0.235,1.034,184.692,-4.578,-132.141,81.601,34.722,-164.312,-43.4,-60.6,-28.167,29.4,-0.00848,0.05615,-0.25616,-0.9649
 13:45:36.649,eb:33:2e:f9:57:b5, 2085-97-203 255:212:00:2611,-0.013,-0.001,1.139,109.558,-6.042,-93.201,82.881,35.81,-164.471,-43.4,-60.6,-28.167,29.4,-0.00848,0.05615,-0.25616,-0.9649
 13:45:36.649,eb:33:2e:f9:57:b5, 2085-97-00 00:214:01:3475,0.021,0.192,1.507,44.25,-14.954,-53.772,83.436,36.552,-164.74,-43.4,-60.6,-28.167,29.4,-0.00848,0.05615,-0.25616,-0.9649
 13:45:36.678,eb:33:2e:f9:57:b5, 2085-97-72 00:118:02:4258,0.117,0.271,1.934,-6.348,-16.907,-21.606,83.436,36.887,-164.905,-43.4,-60.6,-28.167,29.4,-0.00848,0.05615,-0.25616,-0.9649
 13:45:36.678,eb:33:2e:f9:57:b5, 2085-97-128 02:68:02:4402,0.549,0.312,2.144,-51.27,-19.531,1.465,82.925,36.98,-165.185,-43.4,-60.6,-28.167,29.4,-0.00848,0.05615,-0.25616,-0.9649
 13:45:36.678,eb:33:2e:f9:57:b5, 2085-97-16 06:255:01:3851,0.906,0.254,2.055,-89.233,-10.925,9.827,82.079,36.881,-165.278,-43.4,-60.6,-28.167,29.4,-0.00848,0.05615,-0.25616,-0.9649
 13:45:36.678,eb:33:2e:f9:57:b5, 2085-97-90 07:224:02:2413,0.91,0.295,1.587,-107.483,-14.954,-2.014,80.942,36.854,-165.432,-43.4,-60.6,-28.167,29.4,-0.00848,0.05615,-0.25616,-0.9649
 13:45:36.798,eb:33:2e:f9:57:b5, 2085-97-49 07:13:02:1076,0.884,0.344,0.836,-106.262,-75.439,-24.353,79.508,36.914,-165.932,2.4,-46.4,-32.813,29.4,-0.00848,0.05615,-0.25616,-0.9649
 13:45:36.798,eb:33:2e:f9:57:b5, 2085-97-241 06:232:255:-341,0.868,0.13,0.19,-105.286,-164.978,-46.57,77.443,37.057,-167.569,2.4,-46.4,-32.813,29.4,-0.00848,0.05615,-0.25616,-0.9649
 13:45:36.798,eb:33:2e:f9:57:b5, 2085-97-08 07:153:252:-1108,0.918,-0.205,-0.424,-127.014,-279.846,-61.646,74.52,37.051,-170.414,2.4,-46.4,-32.813,29.4,-0.00848,0.05615,-0.25616,-0.9649
 13:45:36.798,eb:33:2e:f9:57:b5, 2085-97-111 07:133:249:-643,0.957,-0.64,-0.454,-167.053,-389.954,-64.087,70.373,36.645,-174.798,2.4,-46.4,-32.813,29.4,-0.00848,0.05615,-0.25616,-0.9649
 13:45:36.800,eb:33:2e:f9:57:b5, 2085-97-03 08:76:247:519,0.982,-0.976,-0.072,-216.003,-449.219,-49.194,65.374,35.568,-179.896,2.4,-46.4,-32.813,29.4,-0.17346,0.24414,-0.50177,-0.81143
 13:45:36.800,eb:33:2e:f9:57:b5, 2085-97-46 07:138:247:1871,0.786,-1.116,0.591,-252.991,-449.341,-23.865,60.024,33.816,174.968,2.4,-46.4,-32.813,29.4,-0.17346,0.24414,-0.50177,-0.81143
 13:45:36.800,eb:33:2e:f9:57:b5, 2085-97-71 05:22:250:2784,0.541,-0.915,1.178,-260.437,-424.622,-4.15,55.009,31.575,170.585,2.4,-46.4,-32.813,29.4,-0.17346,0.24414,-0.50177,-0.81143
 13:45:36.800,eb:33:2e:f9:57:b5, 2085-97-139 03:87:252:3119,0.401,-0.571,1.474,-240.601,-395.508,3.113,50.526,29.097,166.783,2.4,-46.4,-32.813,29.4,-0.17346,0.24414,-0.50177,-0.81143
