Time,Device name,Chip Time(),Acceleration X(g),Acceleration Y(g),Acceleration Z(g),Angular velocity X(°/s),Angular velocity Y(°/s),Angular velocity Z(°/s),Angle X(°),Angle Y(°),Angle Z(°),Magnetic field X(ʯt),Magnetic field Y(ʯt),Magnetic field Z(ʯt),Temperature(℃),Quaternions 0(),Quaternions 1(),Quaternions 2(),Quaternions 3()
 13:47:12.294,eb:33:2e:f9:57:b5, 2085-97-10 00:83:00:2037,0.007,0.041,0.994,-0.122,0.183,0.122,2.318,-0.423,-139.07,-49.2,-55.8,-21.307,30.2,0.34943,0.00357,-0.02026,-0.93668
 13:47:12.294,eb:33:2e:f9:57:b5, 2085-97-15 00:80:00:2039,0.009,0.039,0.995,-0.061,0,0.122,2.318,-0.423,-139.07,-49.2,-55.8,-21.307,30.2,0.34943,0.00357,-0.02026,-0.93668
 13:47:12.294,eb:33:2e:f9:57:b5, 2085-97-18 00:86:00:2043,0.004,0.041,0.997,0,0,0.244,2.318,-0.423,-139.07,-49.2,-55.8,-21.307,30.2,0.34943,0.00357,-0.02026,-0.93668
 13:47:12.294,eb:33:2e:f9:57:b5, 2085-97-10 00:84:00:2036,0.004,0.042,0.994,-0.122,0.061,0.183,2.318,-0.423,-139.07,-49.2,-55.8,-21.307,30.2,0.34943,0.00357,-0.02026,-0.93668
 13:47:12.324,eb:33:2e:f9:57:b5, 2085-97-11 00:83:00:2036,0.005,0.041,0.995,-0.122,0,0.122,2.318,-0.423,-139.07,-49.2,-55.8,-21.307,30.2,0.34943,0.00357,-0.02026,-0.93668
 13:47:12.324,eb:33:2e:f9:57:b5, 2085-97-03 00:86:00:2032,0.002,0.041,0.995,-0.122,0,0.122,2.318,-0.423,-139.07,-49.2,-55.8,-21.307,30.2,0.34943,0.00357,-0.02026,-0.93668
 13:47:12.324,eb:33:2e:f9:57:b5, 2085-97-25 00:82:00:2045,0.007,0.041,0.993,-0.427,-0.183,0.488,2.318,-0.423,-139.065,-49.2,-55.8,-21.307,30.2,0.34943,0.00357,-0.02026,-0.93668
 13:47:12.325,eb:33:2e:f9:57:b5, 2085-97-06 00:82:00:2034,0.005,0.041,0.996,-0.427,-0.061,0.549,2.318,-0.423,-139.065,-49.2,-55.8,-21.307,30.2,0.34943,0.00357,-0.02026,-0.93668
 13:47:12.353,eb:33:2e:f9:57:b5, 2085-97-20 00:79:00:2046,0.01,0.039,0.996,-0.366,-0.244,0.305,2.318,-0.423,-139.065,-49.4,-57.2,-20.753,30.2,0.34943,0.00357,-0.02026,-0.93668
 13:47:12.353,eb:33:2e:f9:57:b5, 2085-97-12 00:81:00:2043,0.005,0.039,1,-0.244,0,0.305,2.318,-0.423,-139.065,-49.4,-57.2,-20.753,30.2,0.34943,0.00357,-0.02026,-0.93668
 13:47:12.353,eb:33:2e:f9:57:b5, 2085-97-11 00:79:00:2041,0.009,0.039,0.997,-0.122,-0.122,0.183,2.318,-0.423,-139.059,-49.4,-57.2,-20.753,30.2,0.34943,0.00357,-0.02026,-0.93668
 13:47:12.353,eb:33:2e:f9:57:b5, 2085-97-14 00:82:00:2038,0.004,0.038,0.998,-0.061,-0.061,0.244,2.318,-0.423,-139.059,-49.4,-57.2,-20.753,30.2,0.34943,0.00357,-0.02026,-0.93668
 13:47:12.414,eb:33:2e:f9:57:b5, 2085-97-10 00:84:00:2037,0.005,0.042,0.994,-0.122,-0.244,0.366,2.318,-0.423,-139.059,-49.4,-57.2,-20.753,30.2,0.34943,0.00357,-0.02026,-0.93668
 13:47:12.414,eb:33:2e:f9:57:b5, 2085-97-06 00:83:00:2032,0.002,0.039,0.994,-0.061,-0.183,0.366,2.318,-0.423,-139.059,-49.4,-57.2,-20.753,30.2,0.34943,0.00357,-0.02026,-0.93668
 13:47:12.414,eb:33:2e:f9:57:b5, 2085-97-09 00:83:00:2032,0.005,0.042,0.991,-0.183,-0.427,0.366,2.318,-0.423,-139.054,-49.4,-57.2,-20.753,30.2,0.34943,0.00357,-0.02026,-0.93668
 13:47:12.414,eb:33:2e:f9:57:b5, 2085-97-13 00:82:00:2038,0.007,0.04,0.993,-0.244,-0.549,0.427,2.318,-0.423,-139.054,-49.4,-57.2,-20.753,30.2,0.34943,0.00357,-0.02026,-0.93668
 13:47:12.443,eb:33:2e:f9:57:b5, 2085-97-17 00:81:00:2045,0.006,0.041,0.998,-0.305,-0.549,0.427,2.318,-0.423,-139.054,-49.4,-57.2,-20.753,30.2,0.34967,0.0036,-0.02026,-0.93658
 13:47:12.444,eb:33:2e:f9:57:b5, 2085-97-11 00:82:00:2039,0.006,0.039,0.997,-0.244,-0.366,0.427,2.318,-0.423,-139.054,-49.4,-57.2,-20.753,30.2,0.34967,0.0036,-0.02026,-0.93658
 13:47:12.444,eb:33:2e:f9:57:b5, 2085-97-17 00:78:00:2041,0.009,0.039,0.996,-0.244,-0.366,0.488,2.318,-0.423,-139.054,-49.4,-57.2,-20.753,30.2,0.34967,0.0036,-0.02026,-0.93658
 13:47:12.444,eb:33:2e:f9:57:b5, 2085-97-21 00:82:00:2044,0.01,0.038,0.997,-0.122,-0.427,0.427,2.318,-0.423,-139.054,-49.4,-57.2,-20.753,30.2,0.34967,0.0036,-0.02026,-0.93658
 13:47:12.473,eb:33:2e:f9:57:b5, 2085-97-16 00:79:00:2039,0.005,0.04,0.998,-0.183,-0.244,0.305,2.318,-0.423,-139.048,-49.4,-57.2,-20.753,30.2,0.34967,0.0036,-0.02026,-0.93658
 13:47:12.473,eb:33:2e:f9:57:b5, 2085-97-16 00:83:00:2038,0.006,0.041,0.994,-0.183,-0.183,0.305,2.318,-0.423,-139.048,-49.4,-57.2,-20.753,30.2,0.34967,0.0036,-0.02026,-0.93658
 13:47:12.473,eb:33:2e:f9:57:b5, 2085-97-14 00:83:00:2036,0.006,0.04,0.994,-0.183,-0.122,0.183,2.318,-0.423,-139.048,-49.4,-57.2,-20.753,30.2,0.34967,0.0036,-0.02026,-0.93658
 13:47:12.473,eb:33:2e:f9:57:b5, 2085-97-11 00:81:00:2037,0.004,0.04,0.994,-0.183,-0.183,0.122,2.318,-0.423,-139.048,-49.4,-57.2,-20.753,30.2,0.34967,0.0036,-0.02026,-0.93658
 13:47:12.533,eb:33:2e:f9:57:b5, 2085-97-09 00:81:00:2033,0.007,0.04,0.992,-0.183,-0.366,0.244,2.318,-0.423,-139.043,-49.4,-57.2,-20.753,30.2,0.34967,0.0036,-0.02026,-0.93658
 13:47:12.533,eb:33:2e:f9:57:b5, 2085-97-13 00:83:00:2038,0.008,0.04,0.992,-0.183,-0.427,0.366,2.318,-0.423,-139.043,-49.4,-57.2,-20.753,30.2,0.34967,0.0036,-0.02026,-0.93658
 13:47:12.533,eb:33:2e:f9:57:b5, 2085-97-16 00:80:00:2040,0.009,0.042,0.995,-0.305,-0.549,0.183,2.318,-0.423,-139.043,-49.4,-57.2,-20.753,30.2,0.34967,0.0036,-0.02026,-0.93658
 13:47:12.534,eb:33:2e:f9:57:b5, 2085-97-21 00:80:00:2045,0.01,0.04,0.997,-0.305,-0.488,0.183,2.318,-0.423,-139.043,-49.4,-57.2,-20.753,30.2,0.34967,0.0036,-0.02026,-0.93658
 13:47:12.563,eb:33:2e:f9:57:b5, 2085-97-20 00:77:00:2046,0.008,0.038,1,-0.244,-0.427,0.183,2.318,-0.423,-139.037,-49.4,-57.2,-20.753,30.2,0.34967,0.0036,-0.02026,-0.93658
 13:47:12.563,eb:33:2e:f9:57:b5, 2085-97-14 00:81:00:2038,0.006,0.039,0.997,-0.122,-0.305,0.122,2.318,-0.423,-139.037,-49.4,-57.2,-20.753,30.2,0.34967,0.0036,-0.02026,-0.93658
 13:47:12.563,eb:33:2e:f9:57:b5, 2085-97-15 00:77:00:2040,0.008,0.039,0.995,-0.061,-0.305,0.122,2.318,-0.423,-139.037,-49.4,-57.2,-20.753,30.2,0.34967,0.0036,-0.02026,-0.93658
 13:47:12.563,eb:33:2e:f9:57:b5, 2085-97-16 00:82:00:2042,0.006,0.039,0.997,0,-0.244,0.061,2.318,-0.423,-139.037,-49.4,-57.2,-20.753,30.2,0.34967,0.0036,-0.02026,-0.93658
 13:47:12.624,eb:33:2e:f9:57:b5, 2085-97-14 00:82:00:2040,0.006,0.04,0.996,-0.061,-0.183,0.122,2.318,-0.423,-139.037,-49.4,-57.2,-20.753,30.2,0.34967,0.0036,-0.02026,-0.93658
 13:47:12.624,eb:33:2e:f9:57:b5, 2085-97-13 00:82:00:2036,0.004,0.039,0.995,-0.122,-0.183,0.183,2.318,-0.423,-139.037,-49.4,-57.2,-20.753,30.2,0.34967,0.0036,-0.02026,-0.93658
 13:47:12.624,eb:33:2e:f9:57:b5, 2085-97-07 00:82:00:2030,0.002,0.041,0.993,-0.244,-0.183,0.244,2.318,-0.423,-139.032,-49.4,-57.2,-20.753,30.2,0.34967,0.0036,-0.02026,-0.93658
 13:47:12.624,eb:33:2e:f9:57:b5, 2085-97-09 00:83:00:2027,0.005,0.042,0.991,-0.427,-0.549,0.244,2.318,-0.423,-139.032,-49.4,-57.2,-20.753,30.2,0.34967,0.0036,-0.02026,-0.93658
 13:47:12.624,eb:33:2e:f9:57:b5, 2085-97-11 00:77:00:2034,0.012,0.039,0.993,-0.366,-0.916,0.122,2.318,-0.423,-139.032,-49.4,-57.2,-20.753,30.2,0.34967,0.0036,-0.02026,-0.93658
 13:47:12.654,eb:33:2e:f9:57:b5, 2085-113-58 00:134:227:-8115,0.01,0.039,0.999,-0.244,-0.977,0.244,2.318,-0.423,-139.032,-48.6,-54.1,-18.04,30.2,0.34967,0.0036,-0.02026,-0.93658
 13:47:12.654,eb:33:2e:f9:57:b5, 2085-97-21 00:78:00:2046,0.01,0.037,0.999,-0.183,-0.916,0.366,2.318,-0.423,-139.032,-48.6,-54.1,-18.04,30.2,0.34967,0.0036,-0.02026,-0.93658
 13:47:12.654,eb:33:2e:f9:57:b5, 2085-97-18 00:75:00:2044,0.01,0.038,0.999,-0.122,-0.793,0.305,2.318,-0.423,-139.026,-48.6,-54.1,-18.04,30.2,0.34967,0.0036,-0.02026,-0.93658
 13:47:12.654,eb:33:2e:f9:57:b5, 2085-97-20 00:78:00:2044,0.009,0.037,0.999,-0.061,-0.793,0.305,2.318,-0.423,-139.026,-48.6,-54.1,-18.04,30.2,0.34967,0.0036,-0.02026,-0.93658
 13:47:12.683,eb:33:2e:f9:57:b5, 2085-97-17 00:76:00:2042,0.013,0.038,0.997,0,-0.61,0.305,2.318,-0.423,-139.026,-48.6,-54.1,-18.04,30.2,0.34967,0.0036,-0.02026,-0.93658
 13:47:12.683,eb:33:2e:f9:57:b5, 2085-97-25 00:78:00:2045,0.009,0.037,1,0.183,-0.427,0.244,2.318,-0.423,-139.026,-48.6,-54.1,-18.04,30.2,0.34967,0.0036,-0.02026,-0.93658
 13:47:12.683,eb:33:2e:f9:57:b5, 2085-97-12 00:84:00:2033,0.008,0.04,0.995,0.183,-0.305,0.183,2.318,-0.423,-139.026,-48.6,-54.1,-18.04,30.2,0.34967,0.0036,-0.02026,-0.93658
 13:47:12.683,eb:33:2e:f9:57:b5, 2085-97-21 00:83:00:2038,0.012,0.04,0.993,0.183,-0.305,0,2.318,-0.423,-139.026,-48.6,-54.1,-18.04,30.2,0.34967,0.0036,-0.02026,-0.93658
 13:47:12.744,eb:33:2e:f9:57:b5, 2085-97-26 00:85:00:2049,0.01,0.041,0.999,0.122,-0.061,-0.122,2.318,-0.423,-139.021,-48.6,-54.1,-18.04,30.2,0.34995,0.0036,-0.02023,-0.93649
 13:47:12.744,eb:33:2e:f9:57:b5, 2085-97-19 00:79:00:2042,0.01,0.04,0.999,0.122,0.244,-0.122,2.313,-0.423,-139.021,-48.6,-54.1,-18.04,30.2,0.34995,0.0036,-0.02023,-0.93649
 13:47:12.744,eb:33:2e:f9:57:b5, 2085-97-25 00:79:00:2049,0.012,0.038,0.998,0.183,0.366,-0.305,2.313,-0.423,-139.021,-48.6,-54.1,-18.04,30.2,0.34995,0.0036,-0.02023,-0.93649
 13:47:12.744,eb:33:2e:f9:57:b5, 2085-97-21 00:80:00:2046,0.009,0.039,1.001,0.305,0.549,-0.366,2.313,-0.423,-139.021,-48.6,-54.1,-18.04,30.2,0.34995,0.0036,-0.02023,-0.93649
 13:47:12.803,eb:33:2e:f9:57:b5, 2085-97-15 00:80:00:2039,0.009,0.039,0.998,0.366,0.61,-0.305,2.313,-0.423,-139.021,-48.6,-54.1,-18.04,30.2,0.34995,0.0036,-0.02023,-0.93649
 13:47:12.803,eb:33:2e:f9:57:b5, 2085-97-19 00:80:00:2043,0.009,0.039,0.997,0.488,0.549,-0.366,2.313,-0.423,-139.021,-48.6,-54.1,-18.04,30.2,0.34995,0.0036,-0.02023,-0.93649
 13:47:12.803,eb:33:2e:f9:57:b5, 2085-97-15 00:82:00:2039,0.007,0.039,0.997,0.488,0.549,-0.183,2.313,-0.423,-139.016,-48.6,-54.1,-18.04,30.2,0.34995,0.0036,-0.02023,-0.93649
 13:47:12.803,eb:33:2e:f9:57:b5, 2085-97-12 00:80:00:2034,0.007,0.039,0.995,0.427,0.549,-0.244,2.313,-0.423,-139.016,-48.6,-54.1,-18.04,30.2,0.34995,0.0036,-0.02023,-0.93649
 13:47:12.834,eb:33:2e:f9:57:b5, 2085-97-15 00:79:00:2037,0.011,0.039,0.995,0.427,0.488,-0.244,2.313,-0.423,-139.016,-48.6,-54.1,-18.04,30.2,0.34995,0.0036,-0.02023,-0.93649
 13:47:12.834,eb:33:2e:f9:57:b5, 2085-97-14 00:83:00:2036,0.007,0.04,0.997,0.488,0.488,-0.244,2.313,-0.428,-139.016,-48.6,-54.1,-18.04,30.2,0.34995,0.0036,-0.02023,-0.93649
 13:47:12.834,eb:33:2e:f9:57:b5, 2085-97-12 00:84:00:2034,0.006,0.042,0.995,0.366,0.488,-0.244,2.313,-0.428,-139.01,-48.6,-54.1,-18.04,30.2,0.34995,0.0036,-0.02023,-0.93649
 13:47:12.834,eb:33:2e:f9:57:b5, 2085-97-10 00:83:00:2033,0.005,0.04,0.994,0.366,0.427,-0.305,2.313,-0.428,-139.01,-48.6,-54.1,-18.04,30.2,0.34995,0.0036,-0.02023,-0.93649
 13:47:12.863,eb:33:2e:f9:57:b5, 2085-97-17 00:85:00:2037,0.008,0.041,0.994,0.244,0.366,-0.366,2.313,-0.428,-139.01,-48.6,-54.1,-18.04,30.2,0.34995,0.0036,-0.02023,-0.93649
 13:47:12.863,eb:33:2e:f9:57:b5, 2085-97-15 00:84:00:2040,0.008,0.041,0.996,0.122,0.305,-0.305,2.313,-0.428,-139.01,-48.6,-54.1,-18.04,30.2,0.34995,0.0036,-0.02023,-0.93649
 13:47:12.863,eb:33:2e:f9:57:b5, 2085-97-16 00:81:00:2041,0.008,0.04,0.997,0.122,0.366,-0.183,2.313,-0.428,-139.01,-48.6,-54.1,-18.04,30.2,0.34995,0.0036,-0.02023,-0.93649
 13:47:12.863,eb:33:2e:f9:57:b5, 2085-97-12 00:83:00:2035,0.005,0.041,0.995,0,0.366,-0.122,2.313,-0.428,-139.01,-48.6,-54.1,-18.04,30.2,0.34995,0.0036,-0.02023,-0.93649
 13:47:12.895,eb:33:2e:f9:57:b5, 2085-97-11 00:80:00:2036,0.006,0.04,0.993,0,0.244,-0.122,2.313,-0.428,-139.005,-48.6,-54.1,-18.04,30.2,0.34995,0.0036,-0.02023,-0.93649
 13:47:12.895,eb:33:2e:f9:57:b5, 2085-97-10 00:82:00:2035,0.005,0.04,0.994,0.061,0.122,-0.122,2.313,-0.428,-139.005,-48.6,-54.1,-18.04,30.2,0.34995,0.0036,-0.02023,-0.93649
 13:47:12.895,eb:33:2e:f9:57:b5, 2085-97-11 00:81:00:2035,0.004,0.041,0.994,0,0,0,2.313,-0.428,-139.005,-48.6,-54.1,-18.04,30.2,0.34995,0.0036,-0.02023,-0.93649
 13:47:12.895,eb:33:2e:f9:57:b5, 2085-97-13 00:83:00:2040,0.007,0.04,0.993,0,-0.061,0.305,2.313,-0.428,-139.005,-48.6,-54.1,-18.04,30.2,0.34995,0.0036,-0.02023,-0.93649
 13:47:12.923,eb:33:2e:f9:57:b5, 2085-97-12 00:82:00:2039,0.007,0.04,0.995,-0.122,-0.122,0.427,2.313,-0.428,-139.005,-47.4,-55.8,-16.68,30.2,0.34995,0.0036,-0.02023,-0.93649
 13:47:12.923,eb:33:2e:f9:57:b5, 2085-97-16 00:80:00:2043,0.008,0.04,0.997,-0.183,-0.122,0.427,2.313,-0.428,-139.005,-47.4,-55.8,-16.68,30.2,0.34995,0.0036,-0.02023,-0.93649
 13:47:12.923,eb:33:2e:f9:57:b5, 2085-97-13 00:83:00:2038,0.008,0.04,0.997,-0.122,-0.183,0.61,2.313,-0.428,-138.999,-47.4,-55.8,-16.68,30.2,0.34995,0.0036,-0.02023,-0.93649
 13:47:12.923,eb:33:2e:f9:57:b5, 2085-97-06 00:83:00:2027,0.006,0.042,0.995,-0.244,-0.183,0.61,2.313,-0.428,-138.999,-47.4,-55.8,-16.68,30.2,0.34995,0.0036,-0.02023,-0.93649
 13:47:12.984,eb:33:2e:f9:57:b5, 2085-97-14 00:83:00:2035,0.007,0.042,0.992,-0.305,-0.549,0.732,2.313,-0.428,-138.999,-47.4,-55.8,-16.68,30.2,0.34995,0.0036,-0.02023,-0.93649
 13:47:12.984,eb:33:2e:f9:57:b5, 2085-97-16 00:81:00:2037,0.006,0.039,0.994,-0.183,-0.549,0.488,2.313,-0.428,-138.999,-47.4,-55.8,-16.68,30.2,0.34995,0.0036,-0.02023,-0.93649
 13:47:12.984,eb:33:2e:f9:57:b5, 2085-97-20 00:82:00:2046,0.009,0.039,0.997,-0.061,-0.549,0.366,2.313,-0.428,-138.994,-47.4,-55.8,-16.68,30.2,0.34995,0.0036,-0.02023,-0.93649
 13:47:12.984,eb:33:2e:f9:57:b5, 2085-97-18 00:82:00:2044,0.006,0.04,0.999,-0.061,-0.427,0.305,2.313,-0.423,-138.994,-47.4,-55.8,-16.68,30.2,0.34995,0.0036,-0.02023,-0.93649
 13:47:13.014,eb:33:2e:f9:57:b5, 2085-97-08 00:84:00:2034,0.006,0.04,0.996,-0.061,-0.366,0.244,2.313,-0.423,-138.994,-47.4,-55.8,-16.68,30.2,0.35019,0.00357,-0.02023,-0.9364
 13:47:13.014,eb:33:2e:f9:57:b5, 2085-97-12 00:82:00:2040,0.009,0.041,0.995,-0.061,-0.488,0.244,2.313,-0.423,-138.994,-47.4,-55.8,-16.68,30.2,0.35019,0.00357,-0.02023,-0.9364
 13:47:13.014,eb:33:2e:f9:57:b5, 2085-97-18 00:82:00:2043,0.01,0.04,0.997,-0.061,-0.427,0.183,2.313,-0.423,-138.994,-47.4,-55.8,-16.68,30.2,0.35019,0.00357,-0.02023,-0.9364
 13:47:13.014,eb:33:2e:f9:57:b5, 2085-97-16 00:81:00:2040,0.009,0.04,0.998,-0.061,-0.244,0.122,2.313,-0.423,-138.994,-47.4,-55.8,-16.68,30.2,0.35019,0.00357,-0.02023,-0.9364
 13:47:13.044,eb:33:2e:f9:57:b5, 2085-97-22 00:81:00:2044,0.01,0.039,0.997,0,-0.244,0.122,2.313,-0.423,-138.988,-47.4,-55.8,-16.68,30.2,0.35019,0.00357,-0.02023,-0.9364
 13:47:13.044,eb:33:2e:f9:57:b5, 2085-97-19 00:83:00:2041,0.008,0.04,0.998,0,-0.122,0.122,2.313,-0.428,-138.988,-47.4,-55.8,-16.68,30.2,0.35019,0.00357,-0.02023,-0.9364
 13:47:13.044,eb:33:2e:f9:57:b5, 2085-97-16 00:82:00:2039,0.008,0.041,0.996,-0.061,0,0.061,2.313,-0.428,-138.988,-47.4,-55.8,-16.68,30.2,0.35019,0.00357,-0.02023,-0.9364
 13:47:13.044,eb:33:2e:f9:57:b5, 2085-97-19 00:84:00:2041,0.008,0.041,0.996,0,0,0,2.313,-0.428,-138.988,-47.4,-55.8,-16.68,30.2,0.35019,0.00357,-0.02023,-0.9364
 13:47:13.105,eb:33:2e:f9:57:b5, 2085-97-15 00:80:00:2037,0.007,0.041,0.996,-0.061,0.122,0,2.313,-0.428,-138.988,-47.4,-55.8,-16.68,30.2,0.35019,0.00357,-0.02023,-0.9364
 13:47:13.105,eb:33:2e:f9:57:b5, 2085-97-14 00:80:00:2037,0.006,0.039,0.994,0,0,-0.061,2.313,-0.428,-138.988,-47.4,-55.8,-16.68,30.2,0.35019,0.00357,-0.02023,-0.9364
 13:47:13.105,eb:33:2e:f9:57:b5, 2085-97-14 00:82:00:2036,0.006,0.039,0.994,0,0,0,2.313,-0.428,-138.983,-47.4,-55.8,-16.68,30.2,0.35019,0.00357,-0.02023,-0.9364
 13:47:13.105,eb:33:2e:f9:57:b5, 2085-97-18 00:80:00:2043,0.009,0.039,0.996,0.061,-0.122,-0.061,2.313,-0.428,-138.983,-47.4,-55.8,-16.68,30.2,0.35019,0.00357,-0.02023,-0.9364
 13:47:13.133,eb:33:2e:f9:57:b5, 2085-97-20 00:82:00:2043,0.008,0.04,0.998,0.122,0,-0.061,2.313,-0.428,-138.983,-47.4,-55.8,-16.68,30.2,0.35019,0.00357,-0.02023,-0.9364
 13:47:13.133,eb:33:2e:f9:57:b5, 2085-97-17 00:84:00:2041,0.007,0.039,0.998,0.061,0,-0.061,2.313,-0.428,-138.983,-47.4,-55.8,-16.68,30.2,0.35019,0.00357,-0.02023,-0.9364
 13:47:13.133,eb:33:2e:f9:57:b5, 2085-97-22 00:85:00:2045,0.009,0.041,0.996,0.122,0.061,-0.122,2.313,-0.428,-138.983,-47.4,-55.8,-16.68,30.2,0.35019,0.00357,-0.02023,-0.9364
 13:47:13.133,eb:33:2e:f9:57:b5, 2085-97-20 00:84:00:2042,0.008,0.041,0.997,0.122,0.305,-0.183,2.313,-0.428,-138.983,-47.4,-55.8,-16.68,30.2,0.35019,0.00357,-0.02023,-0.9364
 13:47:13.164,eb:33:2e:f9:57:b5, 2085-97-12 00:83:00:2038,0.008,0.04,0.995,0.122,0.427,-0.183,2.313,-0.428,-138.977,-47.4,-55.8,-16.68,30.2,0.35019,0.00357,-0.02023,-0.9364
 13:47:13.164,eb:33:2e:f9:57:b5, 2085-97-11 00:81:00:2035,0.006,0.041,0.996,0,0.488,-0.183,2.313,-0.428,-138.977,-47.4,-55.8,-16.68,30.2,0.35019,0.00357,-0.02023,-0.9364
 13:47:13.164,eb:33:2e:f9:57:b5, 2085-97-09 00:82:00:2031,0.005,0.041,0.994,0,0.427,-0.183,2.313,-0.428,-138.977,-47.4,-55.8,-16.68,30.2,0.35019,0.00357,-0.02023,-0.9364
 13:47:13.164,eb:33:2e:f9:57:b5, 2085-97-11 00:80:00:2035,0.008,0.04,0.992,0,0.366,-0.305,2.313,-0.428,-138.977,-47.4,-55.8,-16.68,30.2,0.35019,0.00357,-0.02023,-0.9364
 13:47:13.255,eb:33:2e:f9:57:b5, 2085-97-17 00:80:00:2042,0.009,0.039,0.996,0,0.305,-0.183,2.313,-0.428,-138.977,-47.4,-55.8,-16.68,30.2,0.35019,0.00357,-0.02023,-0.9364
 13:47:13.255,eb:33:2e:f9:57:b5, 2085-97-21 00:80:00:2050,0.01,0.038,1,0.122,0.366,-0.061,2.313,-0.428,-138.977,-47.4,-55.8,-16.68,30.2,0.35019,0.00357,-0.02023,-0.9364
 13:47:13.255,eb:33:2e:f9:57:b5, 2085-97-19 00:81:00:2046,0.009,0.04,1,0.183,0.549,0,2.313,-0.428,-138.972,-47.4,-55.8,-16.68,30.2,0.35019,0.00357,-0.02023,-0.9364
 13:47:13.255,eb:33:2e:f9:57:b5, 2085-97-13 00:82:00:2038,0.004,0.039,0.998,0.183,0.671,0.061,2.313,-0.428,-138.972,-47.4,-55.8,-16.68,30.2,0.35019,0.00357,-0.02023,-0.9364
 13:47:13.255,eb:33:2e:f9:57:b5, 2085-97-11 00:83:00:2037,0.006,0.04,0.994,0.061,0.549,0.244,2.313,-0.428,-138.972,-47.4,-55.8,-16.68,30.2,0.35019,0.00357,-0.02023,-0.9364
 13:47:13.255,eb:33:2e:f9:57:b5, 2085-97-15 00:81:00:2039,0.006,0.04,0.995,0.122,0.549,0.244,2.313,-0.428,-138.972,-47.4,-55.8,-16.68,30.2,0.35019,0.00357,-0.02023,-0.9364
 13:47:13.255,eb:33:2e:f9:57:b5, 2085-97-14 00:84:00:2038,0.006,0.041,0.995,0.061,0.488,0.244,2.313,-0.428,-138.972,-47.4,-55.8,-16.68,30.2,0.35019,0.00357,-0.02023,-0.9364
 13:47:13.255,eb:33:2e:f9:57:b5, 2085-97-13 00:83:00:2038,0.006,0.041,0.995,0.061,0.488,0.183,2.313,-0.428,-138.972,-47.4,-55.8,-16.68,30.2,0.35019,0.00357,-0.02023,-0.9364
 13:47:13.283,eb:33:2e:f9:57:b5, 2085-97-12 00:83:00:2038,0.007,0.041,0.996,0,0.366,0.183,2.313,-0.428,-138.966,-50.1,-56.8,-21.153,30.2,0.35019,0.00357,-0.02023,-0.9364
 13:47:13.283,eb:33:2e:f9:57:b5, 2085-97-13 00:84:00:2038,0.005,0.04,0.996,0,0.244,0.183,2.313,-0.428,-138.966,-50.1,-56.8,-21.153,30.2,0.35019,0.00357,-0.02023,-0.9364
 13:47:13.283,eb:33:2e:f9:57:b5, 2085-97-10 00:84:00:2034,0.004,0.042,0.994,0,0.305,0.122,2.313,-0.428,-138.966,-50.1,-56.8,-21.153,30.2,0.35019,0.00357,-0.02023,-0.9364
 13:47:13.283,eb:33:2e:f9:57:b5, 2085-97-14 00:82:00:2037,0.007,0.04,0.994,0,0.122,0.122,2.313,-0.428,-138.966,-50.1,-56.8,-21.153,30.2,0.35019,0.00357,-0.02023,-0.9364
 13:47:13.345,eb:33:2e:f9:57:b5, 2085-97-12 00:86:00:2035,0.006,0.041,0.995,0,0.122,0,2.313,-0.428,-138.966,-50.1,-56.8,-21.153,30.2,0.35019,0.00357,-0.02023,-0.9364
 13:47:13.345,eb:33:2e:f9:57:b5, 2085-113-81 00:220:44:116,0.003,0.041,0.995,0,0.061,0,2.313,-0.428,-138.966,-50.1,-56.8,-21.153,30.2,0.35019,0.00357,-0.02023,-0.9364
 13:47:13.345,eb:33:2e:f9:57:b5, 2085-97-11 00:83:00:2039,0.005,0.04,0.993,0,0,0,2.313,-0.428,-138.961,-50.1,-56.8,-21.153,30.2,0.35019,0.00357,-0.02023,-0.9364
 13:47:13.345,eb:33:2e:f9:57:b5, 2085-97-11 00:81:00:2042,0.009,0.04,0.996,-0.061,-0.061,-0.122,2.313,-0.428,-138.961,-50.1,-56.8,-21.153,30.2,0.35019,0.00357,-0.02023,-0.9364
 13:47:13.373,eb:33:2e:f9:57:b5, 2085-97-12 00:80:00:2042,0.004,0.041,0.999,-0.061,0,0,2.313,-0.428,-138.961,-50.1,-56.8,-21.153,30.2,0.35046,0.00354,-0.02023,-0.93631
 13:47:13.373,eb:33:2e:f9:57:b5, 2085-97-14 00:79:00:2043,0.005,0.039,0.996,-0.061,-0.061,0.122,2.313,-0.428,-138.961,-50.1,-56.8,-21.153,30.2,0.35046,0.00354,-0.02023,-0.93631
 13:47:13.373,eb:33:2e:f9:57:b5, 2085-97-13 00:82:00:2041,0.006,0.039,0.996,0,-0.122,0.183,2.313,-0.428,-138.955,-50.1,-56.8,-21.153,30.2,0.35046,0.00354,-0.02023,-0.93631
 13:47:13.373,eb:33:2e:f9:57:b5, 2085-97-12 00:82:00:2037,0.007,0.04,0.996,0,-0.183,0.183,2.313,-0.428,-138.955,-50.1,-56.8,-21.153,30.2,0.35046,0.00354,-0.02023,-0.93631
 13:47:13.403,eb:33:2e:f9:57:b5, 2085-97-16 00:84:00:2040,0.006,0.04,0.996,0,-0.244,0.244,2.313,-0.428,-138.955,-50.1,-56.8,-21.153,30.2,0.35046,0.00354,-0.02023,-0.93631
 13:47:13.403,eb:33:2e:f9:57:b5, 2085-97-17 00:85:00:2042,0.008,0.041,0.995,0.061,-0.244,0.183,2.313,-0.428,-138.955,-50.1,-56.8,-21.153,30.2,0.35046,0.00354,-0.02023,-0.93631
 13:47:13.403,eb:33:2e:f9:57:b5, 2085-97-17 00:85:00:2042,0.008,0.041,0.996,0,-0.122,0.183,2.313,-0.428,-138.955,-50.1,-56.8,-21.153,30.2,0.35046,0.00354,-0.02023,-0.93631
 13:47:13.403,eb:33:2e:f9:57:b5, 2085-97-12 00:85:00:2036,0.007,0.042,0.997,-0.061,-0.061,0.122,2.313,-0.428,-138.955,-50.1,-56.8,-21.153,30.2,0.35046,0.00354,-0.02023,-0.93631
 13:47:13.463,eb:33:2e:f9:57:b5, 2085-97-13 00:83:00:2038,0.005,0.041,0.995,-0.061,-0.122,0.061,2.313,-0.428,-138.955,-50.1,-56.8,-21.153,30.2,0.35046,0.00354,-0.02023,-0.93631
 13:47:13.463,eb:33:2e:f9:57:b5, 2085-97-11 00:82:00:2037,0.005,0.04,0.994,0,-0.244,0.061,2.313,-0.428,-138.955,-50.1,-56.8,-21.153,30.2,0.35046,0.00354,-0.02023,-0.93631
 13:47:13.463,eb:33:2e:f9:57:b5, 2085-97-10 00:85:00:2033,0.005,0.041,0.994,0.061,-0.305,0,2.313,-0.428,-138.95,-50.1,-56.8,-21.153,30.2,0.35046,0.00354,-0.02023,-0.93631
 13:47:13.463,eb:33:2e:f9:57:b5, 2085-97-14 00:82:00:2038,0.008,0.042,0.994,0,-0.427,-0.061,2.313,-0.428,-138.95,-50.1,-56.8,-21.153,30.2,0.35046,0.00354,-0.02023,-0.93631
 13:47:13.493,eb:33:2e:f9:57:b5, 2085-97-15 00:84:00:2039,0.008,0.041,0.995,0,-0.366,-0.061,2.313,-0.428,-138.95,-50.1,-56.8,-21.153,30.2,0.35046,0.00354,-0.02023,-0.93631
 13:47:13.493,eb:33:2e:f9:57:b5, 2085-97-15 00:81:00:2039,0.009,0.041,0.995,0,-0.305,-0.122,2.313,-0.428,-138.95,-50.1,-56.8,-21.153,30.2,0.35046,0.00354,-0.02023,-0.93631
 13:47:13.493,eb:33:2e:f9:57:b5, 2085-97-21 00:80:00:2045,0.01,0.04,0.998,0.061,-0.305,-0.061,2.313,-0.428,-138.95,-50.1,-56.8,-21.153,30.2,0.35046,0.00354,-0.02023,-0.93631
 13:47:13.493,eb:33:2e:f9:57:b5, 2085-97-17 00:79:00:2045,0.007,0.038,0.999,0.183,-0.183,-0.061,2.313,-0.428,-138.95,-50.1,-56.8,-21.153,30.2,0.35046,0.00354,-0.02023,-0.93631
 13:47:13.556,eb:33:2e:f9:57:b5, 2085-97-16 00:83:00:2041,0.009,0.04,0.997,0.183,-0.122,0,2.313,-0.428,-138.944,-50.1,-56.8,-21.153,30.2,0.35046,0.00354,-0.02023,-0.93631
 13:47:13.556,eb:33:2e:f9:57:b5, 2085-97-15 00:82:00:2041,0.008,0.041,0.997,0.183,-0.061,0,2.313,-0.428,-138.944,-50.1,-56.8,-21.153,30.2,0.35046,0.00354,-0.02023,-0.93631
 13:47:13.556,eb:33:2e:f9:57:b5, 2085-97-17 00:84:00:2040,0.008,0.041,0.996,0.122,-0.061,0.061,2.313,-0.428,-138.944,-50.1,-56.8,-21.153,30.2,0.35046,0.00354,-0.02023,-0.93631
 13:47:13.556,eb:33:2e:f9:57:b5, 2085-97-13 00:85:00:2038,0.005,0.042,0.997,0.061,0,0,2.313,-0.428,-138.944,-50.1,-56.8,-21.153,30.2,0.35046,0.00354,-0.02023,-0.93631
 13:47:13.583,eb:33:2e:f9:57:b5, 2085-97-09 00:82:00:2036,0.005,0.04,0.995,0.061,0,0,2.313,-0.428,-138.944,-50.1,-56.8,-21.153,30.2,0.35046,0.00354,-0.02023,-0.93631
 13:47:13.583,eb:33:2e:f9:57:b5, 2085-97-14 00:86:00:2038,0.005,0.041,0.994,0,-0.122,0.061,2.313,-0.428,-138.944,-50.1,-56.8,-21.153,30.2,0.35046,0.00354,-0.02023,-0.93631
 13:47:13.583,eb:33:2e:f9:57:b5, 2085-97-09 00:82:00:2036,0.005,0.041,0.995,0.061,-0.122,0,2.313,-0.428,-138.939,-50.1,-56.8,-21.153,30.2,0.35046,0.00354,-0.02023,-0.93631
 13:47:13.583,eb:33:2e:f9:57:b5, 2085-97-12 00:85:00:2038,0.006,0.041,0.995,0.061,-0.244,0,2.313,-0.428,-138.939,-50.1,-56.8,-21.153,30.2,0.35046,0.00354,-0.02023,-0.93631
 13:47:13.614,eb:33:2e:f9:57:b5, 2085-97-15 00:86:00:2039,0.008,0.042,0.996,0.061,-0.244,0,2.313,-0.428,-138.939,-47.8,-55.9,-22.093,30.2,0.35046,0.00354,-0.02023,-0.93631
 13:47:13.614,eb:33:2e:f9:57:b5, 2085-97-16 00:83:00:2042,0.009,0.041,0.996,0,-0.122,0,2.313,-0.428,-138.939,-47.8,-55.9,-22.093,30.2,0.35046,0.00354,-0.02023,-0.93631
 13:47:13.614,eb:33:2e:f9:57:b5, 2085-97-21 00:82:00:2045,0.01,0.041,0.999,0.061,-0.122,0,2.313,-0.428,-138.939,-47.8,-55.9,-22.093,30.2,0.35046,0.00354,-0.02023,-0.93631
 13:47:13.614,eb:33:2e:f9:57:b5, 2085-97-19 00:86:00:2045,0.008,0.041,0.999,0.122,0.061,0.061,2.313,-0.428,-138.939,-47.8,-55.9,-22.093,30.2,0.35046,0.00354,-0.02023,-0.93631
 13:47:13.733,eb:33:2e:f9:57:b5, 2085-97-14 00:84:00:2039,0.006,0.042,0.997,0.061,0.183,0.061,2.313,-0.428,-138.933,-47.8,-55.9,-22.093,30.2,0.35046,0.00354,-0.02023,-0.93631
 13:47:13.733,eb:33:2e:f9:57:b5, 2085-97-10 00:83:00:2036,0.004,0.042,0.995,0,0.244,0.061,2.313,-0.428,-138.933,-47.8,-55.9,-22.093,30.2,0.35046,0.00354,-0.02023,-0.93631
 13:47:13.733,eb:33:2e:f9:57:b5, 2085-97-12 00:85:00:2035,0.005,0.041,0.994,0.061,0.122,0.061,2.313,-0.428,-138.933,-47.8,-55.9,-22.093,30.2,0.35046,0.00354,-0.02023,-0.93631
 13:47:13.733,eb:33:2e:f9:57:b5, 2085-97-18 00:80:00:2041,0.008,0.041,0.994,0,0.122,0,2.313,-0.428,-138.933,-47.8,-55.9,-22.093,30.2,0.35046,0.00354,-0.02023,-0.93631
 13:47:13.735,eb:33:2e:f9:57:b5, 2085-97-14 00:82:00:2041,0.008,0.04,0.998,0.183,0.183,0.061,2.313,-0.428,-138.933,-47.8,-55.9,-22.093,30.2,0.35071,0.00357,-0.02023,-0.93622
 13:47:13.735,eb:33:2e:f9:57:b5, 2085-97-15 00:86:00:2042,0.007,0.042,0.998,0.122,0.122,0.183,2.313,-0.428,-138.933,-47.8,-55.9,-22.093,30.2,0.35071,0.00357,-0.02023,-0.93622
 13:47:13.735,eb:33:2e:f9:57:b5, 2085-97-08 00:83:00:2035,0.006,0.042,0.995,0,0.183,0.183,2.313,-0.428,-138.928,-47.8,-55.9,-22.093,30.2,0.35071,0.00357,-0.02023,-0.93622
 13:47:13.735,eb:33:2e:f9:57:b5, 2085-97-16 00:86:00:2040,0.008,0.042,0.995,0,0.122,0.183,2.313,-0.428,-138.928,-47.8,-55.9,-22.093,30.2,0.35071,0.00357,-0.02023,-0.93622
 13:47:13.737,eb:33:2e:f9:57:b5, 2085-97-13 00:83:00:2039,0.006,0.042,0.996,-0.061,0.305,0.061,2.313,-0.428,-138.928,-47.8,-55.9,-22.093,30.2,0.35071,0.00357,-0.02023,-0.93622
 13:47:13.737,eb:33:2e:f9:57:b5, 2085-97-16 00:83:00:2042,0.008,0.04,0.996,-0.122,0.244,0.122,2.313,-0.428,-138.928,-47.8,-55.9,-22.093,30.2,0.35071,0.00357,-0.02023,-0.93622
 13:47:13.737,eb:33:2e:f9:57:b5, 2085-97-15 00:83:00:2041,0.006,0.04,0.998,0,0.305,0.061,2.313,-0.428,-138.928,-47.8,-55.9,-22.093,30.2,0.35071,0.00357,-0.02023,-0.93622
 13:47:13.737,eb:33:2e:f9:57:b5, 2085-97-15 00:81:00:2042,0.007,0.04,0.996,0,0.244,0.061,2.313,-0.428,-138.928,-47.8,-55.9,-22.093,30.2,0.35071,0.00357,-0.02023,-0.93622
 13:47:13.763,eb:33:2e:f9:57:b5, 2085-97-14 00:84:00:2036,0.005,0.04,0.996,0,0.244,0.183,2.313,-0.428,-138.928,-47.8,-55.9,-22.093,30.2,0.35071,0.00357,-0.02023,-0.93622
 13:47:13.763,eb:33:2e:f9:57:b5, 2085-97-08 00:84:00:2033,0.005,0.042,0.994,0,0.244,0.183,2.313,-0.428,-138.922,-47.8,-55.9,-22.093,30.2,0.35071,0.00357,-0.02023,-0.93622
 13:47:13.763,eb:33:2e:f9:57:b5, 2085-97-13 00:84:00:2037,0.005,0.04,0.992,0,0.061,0.122,2.313,-0.428,-138.922,-47.8,-55.9,-22.093,30.2,0.35071,0.00357,-0.02023,-0.93622
 13:47:13.763,eb:33:2e:f9:57:b5, 2085-97-12 00:84:00:2037,0.006,0.042,0.994,0,0.061,0.122,2.313,-0.423,-138.922,-47.8,-55.9,-22.093,30.2,0.35071,0.00357,-0.02023,-0.93622
 13:47:13.825,eb:33:2e:f9:57:b5, 2085-97-11 00:80:00:2038,0.008,0.041,0.996,0,0,0.061,2.313,-0.423,-138.922,-47.8,-55.9,-22.093,30.2,0.35071,0.00357,-0.02023,-0.93622
 13:47:13.825,eb:33:2e:f9:57:b5, 2085-97-17 00:85:00:2043,0.007,0.04,0.997,0,0.061,0,2.318,-0.423,-138.922,-47.8,-55.9,-22.093,30.2,0.35071,0.00357,-0.02023,-0.93622
 13:47:13.825,eb:33:2e:f9:57:b5, 2085-97-15 00:85:00:2040,0.006,0.041,0.997,0,0.183,0.061,2.318,-0.423,-138.922,-47.8,-55.9,-22.093,30.2,0.35071,0.00357,-0.02023,-0.93622
 13:47:13.825,eb:33:2e:f9:57:b5, 2085-97-17 00:85:00:2045,0.011,0.041,0.996,-0.061,0.183,0.061,2.318,-0.423,-138.922,-47.8,-55.9,-22.093,30.2,0.35071,0.00357,-0.02023,-0.93622
 13:47:13.854,eb:33:2e:f9:57:b5, 2085-97-16 00:85:00:2040,0.004,0.043,0.999,-0.122,0.366,0,2.318,-0.423,-138.917,-47.8,-55.9,-22.093,30.2,0.35071,0.00357,-0.02023,-0.93622
 13:47:13.854,eb:33:2e:f9:57:b5, 2085-97-07 00:83:00:2034,0.005,0.041,0.994,-0.122,0.366,0.061,2.318,-0.423,-138.917,-47.8,-55.9,-22.093,30.2,0.35071,0.00357,-0.02023,-0.93622
 13:47:13.854,eb:33:2e:f9:57:b5, 2085-97-13 00:83:00:2039,0.005,0.041,0.995,-0.061,0.183,0,2.318,-0.423,-138.917,-47.8,-55.9,-22.093,30.2,0.35071,0.00357,-0.02023,-0.93622
 13:47:13.854,eb:33:2e:f9:57:b5, 2085-97-11 00:83:00:2039,0.005,0.041,0.996,-0.122,0.183,0,2.318,-0.423,-138.917,-47.8,-55.9,-22.093,30.2,0.35071,0.00357,-0.02023,-0.93622
 13:47:13.913,eb:33:2e:f9:57:b5, 2085-97-12 00:82:00:2038,0.006,0.04,0.995,-0.122,0.183,0,2.318,-0.423,-138.917,-47.8,-55.9,-22.093,30.2,0.35071,0.00357,-0.02023,-0.93622
 13:47:13.913,eb:33:2e:f9:57:b5, 2085-97-12 00:83:00:2041,0.006,0.04,0.997,-0.061,0,0,2.318,-0.423,-138.917,-47.8,-55.9,-22.093,30.2,0.35071,0.00357,-0.02023,-0.93622
 13:47:13.913,eb:33:2e:f9:57:b5, 2085-97-13 00:83:00:2038,0.006,0.041,0.996,-0.122,0,0,2.318,-0.423,-138.911,-47.8,-55.9,-22.093,30.2,0.35071,0.00357,-0.02023,-0.93622
 13:47:13.913,eb:33:2e:f9:57:b5, 2085-97-14 00:87:00:2037,0.006,0.042,0.996,-0.061,0,0,2.318,-0.423,-138.911,-47.8,-55.9,-22.093,30.2,0.35071,0.00357,-0.02023,-0.93622
 13:47:13.944,eb:33:2e:f9:57:b5, 2085-97-15 00:84:00:2040,0.006,0.042,0.995,-0.122,0.061,0,2.318,-0.423,-138.911,-47.8,-55.9,-22.093,30.2,0.35071,0.00357,-0.02023,-0.93622
 13:47:13.944,eb:33:2e:f9:57:b5, 2085-97-12 00:87:00:2039,0.005,0.042,0.997,-0.061,0.122,0,2.318,-0.423,-138.911,-47.8,-55.9,-22.093,30.2,0.35071,0.00357,-0.02023,-0.93622
 13:47:13.944,eb:33:2e:f9:57:b5, 2085-97-08 00:83:00:2037,0.004,0.042,0.995,-0.061,0.061,0,2.318,-0.423,-138.911,-47.8,-55.9,-22.093,30.2,0.35071,0.00357,-0.02023,-0.93622
 13:47:13.945,eb:33:2e:f9:57:b5, 2085-97-11 00:80:00:2041,0.006,0.039,0.995,-0.061,0,-0.061,2.318,-0.423,-138.911,-47.8,-55.9,-22.093,30.2,0.35071,0.00357,-0.02023,-0.93622
 13:47:13.974,eb:33:2e:f9:57:b5, 2085-97-11 00:83:00:2040,0.004,0.04,0.997,0,0.061,-0.061,2.318,-0.423,-138.911,-48.8,-55.7,-22.9,30.2,0.35071,0.00357,-0.02023,-0.93622
 13:47:13.974,eb:33:2e:f9:57:b5, 2085-97-09 00:85:00:2039,0.004,0.042,0.995,-0.061,0.061,0,2.318,-0.423,-138.911,-48.8,-55.7,-22.9,30.2,0.35071,0.00357,-0.02023,-0.93622
 13:47:13.974,eb:33:2e:f9:57:b5, 2085-97-14 00:85:00:2043,0.007,0.041,0.996,0,-0.061,0,2.318,-0.423,-138.906,-48.8,-55.7,-22.9,30.2,0.35071,0.00357,-0.02023,-0.93622
 13:47:13.974,eb:33:2e:f9:57:b5, 2085-97-13 00:85:00:2040,0.004,0.041,0.997,-0.061,0,0,2.318,-0.423,-138.906,-48.8,-55.7,-22.9,30.2,0.35071,0.00357,-0.02023,-0.93622
 13:47:14.035,eb:33:2e:f9:57:b5, 2085-97-11 00:84:00:2036,0.007,0.041,0.994,-0.122,0,0,2.318,-0.423,-138.906,-48.8,-55.7,-22.9,30.2,0.35071,0.00357,-0.02023,-0.93622
 13:47:14.035,eb:33:2e:f9:57:b5, 2085-97-15 00:83:00:2039,0.005,0.041,0.997,-0.061,0.061,0,2.318,-0.423,-138.906,-48.8,-55.7,-22.9,30.2,0.35071,0.00357,-0.02023,-0.93622
 13:47:14.035,eb:33:2e:f9:57:b5, 2085-113-81 00:236:44:119,0.005,0.04,0.995,0,0.122,0,2.318,-0.423,-138.906,-48.8,-55.7,-22.9,30.2,0.35071,0.00357,-0.02023,-0.93622
 13:47:14.035,eb:33:2e:f9:57:b5, 2085-97-11 00:85:00:2036,0.005,0.041,0.995,0,0,0,2.318,-0.423,-138.906,-48.8,-55.7,-22.9,30.2,0.35071,0.00357,-0.02023,-0.93622
 13:47:14.035,eb:33:2e:f9:57:b5, 2085-97-12 00:82:00:2039,0.005,0.041,0.994,-0.061,0,0,2.318,-0.423,-138.906,-48.8,-55.7,-22.9,30.2,0.35071,0.00357,-0.02023,-0.93622
 13:47:14.064,eb:33:2e:f9:57:b5, 2085-97-10 00:86:00:2039,0.006,0.041,0.996,0,0,0,2.318,-0.423,-138.9,-48.8,-55.7,-22.9,30.2,0.35095,0.00363,-0.02023,-0.93613
 13:47:14.064,eb:33:2e:f9:57:b5, 2085-97-10 00:84:00:2037,0.005,0.042,0.995,-0.061,0.061,0,2.318,-0.423,-138.9,-48.8,-55.7,-22.9,30.2,0.35095,0.00363,-0.02023,-0.93613
 13:47:14.064,eb:33:2e:f9:57:b5, 2085-97-13 00:81:00:2041,0.006,0.04,0.995,-0.061,0,0,2.318,-0.423,-138.9,-48.8,-55.7,-22.9,30.2,0.35095,0.00363,-0.02023,-0.93613
 13:47:14.064,eb:33:2e:f9:57:b5, 2085-97-13 00:82:00:2043,0.005,0.039,0.997,0,-0.061,0,2.318,-0.423,-138.9,-48.8,-55.7,-22.9,30.2,0.35095,0.00363,-0.02023,-0.93613
 13:47:14.094,eb:33:2e:f9:57:b5, 2085-97-09 00:81:00:2037,0.005,0.041,0.997,0,0,0,2.318,-0.423,-138.9,-48.8,-55.7,-22.9,30.2,0.35095,0.00363,-0.02023,-0.93613
 13:47:14.094,eb:33:2e:f9:57:b5, 2085-97-13 00:83:00:2043,0.006,0.041,0.996,0,-0.061,0.061,2.318,-0.423,-138.9,-48.8,-55.7,-22.9,30.2,0.35095,0.00363,-0.02023,-0.93613
 13:47:14.098,eb:33:2e:f9:57:b5, 2085-97-13 00:82:00:2042,0.006,0.04,0.997,0.061,0,0.061,2.318,-0.423,-138.895,-48.8,-55.7,-22.9,30.2,0.35095,0.00363,-0.02023,-0.93613
 13:47:14.098,eb:33:2e:f9:57:b5, 2085-97-12 00:86:00:2037,0.005,0.042,0.997,0.061,0,0.122,2.318,-0.417,-138.895,-48.8,-55.7,-22.9,30.2,0.35095,0.00363,-0.02023,-0.93613
 13:47:14.154,eb:33:2e:f9:57:b5, 2085-97-11 00:85:00:2036,0.004,0.042,0.994,0,0,0.061,2.318,-0.417,-138.895,-48.8,-55.7,-22.9,30.2,0.35095,0.00363,-0.02023,-0.93613
 13:47:14.154,eb:33:2e:f9:57:b5, 2085-97-10 00:84:00:2034,0.005,0.041,0.993,-0.061,0.061,0,2.318,-0.417,-138.895,-48.8,-55.7,-22.9,30.2,0.35095,0.00363,-0.02023,-0.93613
 13:47:14.154,eb:33:2e:f9:57:b5, 2085-97-09 00:85:00:2036,0.004,0.042,0.994,-0.061,0,-0.122,2.318,-0.417,-138.895,-48.8,-55.7,-22.9,30.2,0.35095,0.00363,-0.02023,-0.93613
 13:47:14.154,eb:33:2e:f9:57:b5, 2085-97-11 00:81:00:2039,0.006,0.041,0.994,-0.061,0,-0.061,2.318,-0.417,-138.895,-48.8,-55.7,-22.9,30.2,0.35095,0.00363,-0.02023,-0.93613
 13:47:14.183,eb:33:2e:f9:57:b5, 2085-97-14 00:82:00:2044,0.006,0.04,0.997,-0.061,-0.122,0,2.318,-0.417,-138.895,-48.8,-55.7,-22.9,30.2,0.35095,0.00363,-0.02023,-0.93613
 13:47:14.183,eb:33:2e:f9:57:b5, 2085-97-10 00:82:00:2040,0.004,0.041,0.998,-0.061,-0.061,0.061,2.318,-0.417,-138.895,-48.8,-55.7,-22.9,30.2,0.35095,0.00363,-0.02023,-0.93613
 13:47:14.183,eb:33:2e:f9:57:b5, 2085-97-07 00:80:00:2036,0.005,0.039,0.996,0,-0.122,0.061,2.318,-0.417,-138.889,-48.8,-55.7,-22.9,30.2,0.35095,0.00363,-0.02023,-0.93613
 13:47:14.183,eb:33:2e:f9:57:b5, 2085-97-12 00:83:00:2037,0.005,0.041,0.995,-0.061,-0.183,0.122,2.318,-0.417,-138.889,-48.8,-55.7,-22.9,30.2,0.35095,0.00363,-0.02023,-0.93613
 13:47:14.213,eb:33:2e:f9:57:b5, 2085-97-09 00:85:00:2034,0.003,0.041,0.994,-0.122,-0.244,0.122,2.318,-0.417,-138.889,-48.8,-55.7,-22.9,30.2,0.35095,0.00363,-0.02023,-0.93613
 13:47:14.213,eb:33:2e:f9:57:b5, 2085-97-06 00:87:00:2034,0.005,0.042,0.992,-0.183,-0.366,0.183,2.318,-0.417,-138.889,-48.8,-55.7,-22.9,30.2,0.35095,0.00363,-0.02023,-0.93613
 13:47:14.213,eb:33:2e:f9:57:b5, 2085-97-12 00:83:00:2037,0.002,0.041,0.994,-0.305,-0.366,0.183,2.318,-0.417,-138.889,-48.8,-55.7,-22.9,30.2,0.35095,0.00363,-0.02023,-0.93613
 13:47:14.213,eb:33:2e:f9:57:b5, 2085-97-08 00:82:00:2037,0.005,0.04,0.992,-0.366,-0.488,0.305,2.318,-0.417,-138.889,-48.8,-55.7,-22.9,30.2,0.35095,0.00363,-0.02023,-0.93613
 13:47:14.275,eb:33:2e:f9:57:b5, 2085-97-09 00:83:00:2035,0.006,0.04,0.995,-0.427,-0.549,0.305,2.318,-0.417,-138.889,-48.8,-55.7,-22.9,30.2,0.35095,0.00363,-0.02023,-0.93613
 13:47:14.275,eb:33:2e:f9:57:b5, 2085-97-16 00:85:00:2035,-0.001,0.041,0.995,-0.427,-0.549,0.305,2.318,-0.417,-138.889,-48.8,-55.7,-22.9,30.2,0.35095,0.00363,-0.02023,-0.93613
 13:47:14.275,eb:33:2e:f9:57:b5, 2085-97-15 00:83:00:2042,0.008,0.037,0.99,-0.366,-0.977,0.244,2.318,-0.417,-138.884,-48.8,-55.7,-22.9,30.2,0.35095,0.00363,-0.02023,-0.93613
 13:47:14.275,eb:33:2e:f9:57:b5, 2085-97-19 00:84:00:2046,0.008,0.04,0.998,-0.244,-0.916,0.061,2.318,-0.417,-138.884,-48.8,-55.7,-22.9,30.2,0.35095,0.00363,-0.02023,-0.93613
 13:47:14.304,eb:33:2e:f9:57:b5, 2085-97-16 00:80:00:2046,0.008,0.04,0.998,-0.305,-0.732,0.061,2.318,-0.417,-138.884,-49.2,-55.6,-18.5,30.2,0.35095,0.00363,-0.02023,-0.93613
 13:47:14.304,eb:33:2e:f9:57:b5, 2085-97-16 00:79:00:2045,0.007,0.038,0.999,-0.183,-0.671,0.061,2.318,-0.412,-138.884,-49.2,-55.6,-18.5,30.2,0.35095,0.00363,-0.02023,-0.93613
 13:47:14.304,eb:33:2e:f9:57:b5, 2085-97-11 00:80:00:2037,0.006,0.04,0.997,-0.183,-0.549,0,2.318,-0.412,-138.884,-49.2,-55.6,-18.5,30.2,0.35095,0.00363,-0.02023,-0.93613
 13:47:14.304,eb:33:2e:f9:57:b5, 2085-97-12 00:83:00:2038,0.005,0.04,0.996,-0.122,-0.61,0.061,2.318,-0.412,-138.884,-49.2,-55.6,-18.5,30.2,0.35095,0.00363,-0.02023,-0.93613
 13:47:14.334,eb:33:2e:f9:57:b5, 2085-97-14 00:83:00:2040,0.009,0.04,0.995,-0.183,-0.671,0.122,2.318,-0.412,-138.878,-49.2,-55.6,-18.5,30.2,0.35095,0.00363,-0.02023,-0.93613
 13:47:14.334,eb:33:2e:f9:57:b5, 2085-97-14 00:80:00:2039,0.006,0.039,0.997,-0.122,-0.549,0.061,2.318,-0.412,-138.878,-49.2,-55.6,-18.5,30.2,0.35095,0.00363,-0.02023,-0.93613
 13:47:14.334,eb:33:2e:f9:57:b5, 2085-97-13 00:84:00:2038,0.008,0.04,0.996,-0.183,-0.671,0.183,2.318,-0.412,-138.878,-49.2,-55.6,-18.5,30.2,0.35095,0.00363,-0.02023,-0.93613
 13:47:14.334,eb:33:2e:f9:57:b5, 2085-97-19 00:81:00:2042,0.008,0.04,0.996,-0.122,-0.671,0.183,2.318,-0.412,-138.878,-49.2,-55.6,-18.5,30.2,0.35095,0.00363,-0.02023,-0.93613
 13:47:14.393,eb:33:2e:f9:57:b5, 2085-97-18 00:83:00:2040,0.008,0.039,0.998,-0.061,-0.61,0.183,2.318,-0.412,-138.878,-49.2,-55.6,-18.5,30.2,0.35114,0.00369,-0.02023,-0.93604
 13:47:14.393,eb:33:2e:f9:57:b5, 2085-97-16 00:81:00:2039,0.008,0.04,0.996,-0.122,-0.549,0.183,2.318,-0.412,-138.878,-49.2,-55.6,-18.5,30.2,0.35114,0.00369,-0.02023,-0.93604
 13:47:14.393,eb:33:2e:f9:57:b5, 2085-97-14 00:81:00:2041,0.009,0.039,0.996,-0.061,-0.549,0.183,2.318,-0.412,-138.878,-49.2,-55.6,-18.5,30.2,0.35114,0.00369,-0.02023,-0.93604
 13:47:14.393,eb:33:2e:f9:57:b5, 2085-97-18 00:83:00:2040,0.009,0.041,0.997,-0.061,-0.549,0.122,2.318,-0.412,-138.878,-49.2,-55.6,-18.5,30.2,0.35114,0.00369,-0.02023,-0.93604
 13:47:14.424,eb:33:2e:f9:57:b5, 2085-97-16 00:82:00:2040,0.008,0.041,0.997,-0.061,-0.366,0.061,2.318,-0.412,-138.873,-49.2,-55.6,-18.5,30.2,0.35114,0.00369,-0.02023,-0.93604
 13:47:14.424,eb:33:2e:f9:57:b5, 2085-97-16 00:81:00:2039,0.007,0.04,0.996,-0.061,-0.244,0.061,2.318,-0.412,-138.873,-49.2,-55.6,-18.5,30.2,0.35114,0.00369,-0.02023,-0.93604
 13:47:14.424,eb:33:2e:f9:57:b5, 2085-97-12 00:82:00:2036,0.005,0.041,0.995,-0.061,-0.244,0,2.318,-0.412,-138.873,-49.2,-55.6,-18.5,30.2,0.35114,0.00369,-0.02023,-0.93604
 13:47:14.424,eb:33:2e:f9:57:b5, 2085-97-17 00:81:00:2037,0.004,0.039,0.994,-0.061,-0.305,0,2.318,-0.417,-138.873,-49.2,-55.6,-18.5,30.2,0.35114,0.00369,-0.02023,-0.93604
 13:47:14.454,eb:33:2e:f9:57:b5, 2085-97-13 00:84:00:2033,0.006,0.04,0.992,-0.244,-0.488,0.183,2.318,-0.417,-138.873,-49.2,-55.6,-18.5,30.2,0.35114,0.00369,-0.02023,-0.93604
 13:47:14.454,eb:33:2e:f9:57:b5, 2085-97-12 00:79:00:2034,0.007,0.042,0.992,-0.244,-0.549,0.122,2.318,-0.417,-138.873,-49.2,-55.6,-18.5,30.2,0.35114,0.00369,-0.02023,-0.93604
 13:47:14.454,eb:33:2e:f9:57:b5, 2085-97-18 00:79:00:2038,0.005,0.039,0.995,-0.122,-0.671,0.061,2.318,-0.417,-138.873,-49.2,-55.6,-18.5,30.2,0.35114,0.00369,-0.02023,-0.93604
 13:47:14.454,eb:33:2e:f9:57:b5, 2085-97-14 00:79:00:2041,0.013,0.038,0.998,-0.061,-0.671,0.061,2.318,-0.417,-138.873,-49.2,-55.6,-18.5,30.2,0.35114,0.00369,-0.02023,-0.93604
 13:47:14.513,eb:33:2e:f9:57:b5, 2085-97-25 00:79:00:2049,0.01,0.039,1,-0.061,-0.549,0,2.318,-0.417,-138.867,-49.2,-55.6,-18.5,30.2,0.35114,0.00369,-0.02023,-0.93604
 13:47:14.513,eb:33:2e:f9:57:b5, 2085-97-17 00:81:00:2043,0.01,0.04,0.999,0,-0.366,0.061,2.318,-0.417,-138.867,-49.2,-55.6,-18.5,30.2,0.35114,0.00369,-0.02023,-0.93604
 13:47:14.513,eb:33:2e:f9:57:b5, 2085-97-20 00:81:00:2042,0.011,0.039,0.997,0,-0.366,0,2.318,-0.417,-138.867,-49.2,-55.6,-18.5,30.2,0.35114,0.00369,-0.02023,-0.93604
 13:47:14.513,eb:33:2e:f9:57:b5, 2085-97-21 00:83:00:2045,0.009,0.04,0.999,0,-0.244,0,2.318,-0.417,-138.867,-49.2,-55.6,-18.5,30.2,0.35114,0.00369,-0.02023,-0.93604
 13:47:14.543,eb:33:2e:f9:57:b5, 2085-97-21 00:81:00:2042,0.01,0.041,0.997,0,-0.122,0,2.318,-0.417,-138.867,-49.2,-55.6,-18.5,30.2,0.35114,0.00369,-0.02023,-0.93604
 13:47:14.543,eb:33:2e:f9:57:b5, 2085-97-16 00:81:00:2037,0.007,0.04,0.996,0,-0.061,0.061,2.318,-0.417,-138.867,-49.2,-55.6,-18.5,30.2,0.35114,0.00369,-0.02023,-0.93604
 13:47:14.543,eb:33:2e:f9:57:b5, 2085-97-16 00:81:00:2036,0.007,0.04,0.993,-0.061,-0.122,0.122,2.318,-0.417,-138.867,-49.2,-55.6,-18.5,30.2,0.35114,0.00369,-0.02023,-0.93604
 13:47:14.543,eb:33:2e:f9:57:b5, 2085-97-15 00:83:00:2036,0.008,0.04,0.993,-0.061,-0.183,0.122,2.318,-0.417,-138.867,-49.2,-55.6,-18.5,30.2,0.35114,0.00369,-0.02023,-0.93604
 13:47:14.604,eb:33:2e:f9:57:b5, 2085-97-18 00:79:00:2040,0.008,0.041,0.995,-0.061,-0.183,0.061,2.318,-0.417,-138.862,-48.4,-56.4,-19.913,30.2,0.35114,0.00369,-0.02023,-0.93604
 13:47:14.604,eb:33:2e:f9:57:b5, 2085-97-15 00:80:00:2037,0.008,0.039,0.996,-0.122,-0.122,0,2.318,-0.417,-138.862,-48.4,-56.4,-19.913,30.2,0.35114,0.00369,-0.02023,-0.93604
 13:47:14.604,eb:33:2e:f9:57:b5, 2085-97-18 00:81:00:2039,0.009,0.039,0.995,-0.061,-0.183,0,2.318,-0.417,-138.862,-48.4,-56.4,-19.913,30.2,0.35114,0.00369,-0.02023,-0.93604
 13:47:14.604,eb:33:2e:f9:57:b5, 2085-97-19 00:80:00:2044,0.009,0.039,0.997,-0.061,-0.183,0,2.318,-0.417,-138.862,-48.4,-56.4,-19.913,30.2,0.35114,0.00369,-0.02023,-0.93604
 13:47:14.634,eb:33:2e:f9:57:b5, 2085-97-22 00:80:00:2047,0.01,0.04,1,0,-0.122,0.061,2.318,-0.417,-138.862,-48.4,-56.4,-19.913,30.2,0.35114,0.00369,-0.02023,-0.93604
 13:47:14.634,eb:33:2e:f9:57:b5, 2085-97-20 00:81:00:2042,0.009,0.039,0.999,-0.061,0,0.061,2.318,-0.417,-138.862,-48.4,-56.4,-19.913,30.2,0.35114,0.00369,-0.02023,-0.93604
 13:47:14.634,eb:33:2e:f9:57:b5, 2085-97-14 00:78:00:2036,0.009,0.039,0.995,-0.061,0.061,0,2.318,-0.417,-138.862,-48.4,-56.4,-19.913,30.2,0.35114,0.00369,-0.02023,-0.93604
 13:47:14.634,eb:33:2e:f9:57:b5, 2085-97-17 00:82:00:2038,0.008,0.039,0.996,0,0,0.061,2.318,-0.417,-138.862,-48.4,-56.4,-19.913,30.2,0.35114,0.00369,-0.02023,-0.93604
 13:47:14.665,eb:33:2e:f9:57:b5, 2085-97-14 00:79:00:2035,0.007,0.039,0.995,0,-0.061,0.061,2.318,-0.417,-138.856,-48.4,-56.4,-19.913,30.2,0.35129,0.00366,-0.02023,-0.93597
 13:47:14.665,eb:33:2e:f9:57:b5, 2085-97-15 00:80:00:2033,0.008,0.039,0.994,0,-0.183,0,2.318,-0.417,-138.856,-48.4,-56.4,-19.913,30.2,0.35129,0.00366,-0.02023,-0.93597
 13:47:14.665,eb:33:2e:f9:57:b5, 2085-97-20 00:82:00:2039,0.009,0.04,0.995,-0.061,-0.244,0.122,2.318,-0.417,-138.856,-48.4,-56.4,-19.913,30.2,0.35129,0.00366,-0.02023,-0.93597
 13:47:14.665,eb:33:2e:f9:57:b5, 2085-97-19 00:82:00:2039,0.008,0.04,0.996,-0.061,-0.183,0.061,2.318,-0.417,-138.856,-48.4,-56.4,-19.913,30.2,0.35129,0.00366,-0.02023,-0.93597
 13:47:14.725,eb:33:2e:f9:57:b5, 2085-97-16 00:80:00:2037,0.009,0.04,0.995,-0.061,-0.244,0.122,2.318,-0.423,-138.856,-48.4,-56.4,-19.913,30.2,0.35129,0.00366,-0.02023,-0.93597
 13:47:14.725,eb:33:2e:f9:57:b5, 2085-97-18 00:81:00:2038,0.009,0.04,0.996,-0.122,-0.183,0.061,2.318,-0.423,-138.856,-48.4,-56.4,-19.913,30.2,0.35129,0.00366,-0.02023,-0.93597
 13:47:14.725,eb:33:2e:f9:57:b5, 2085-113-100 00:153:01:000,0.009,0.041,0.996,-0.183,-0.244,0.122,2.318,-0.423,-138.856,-48.4,-56.4,-19.913,30.2,0.35129,0.00366,-0.02023,-0.93597
 13:47:14.725,eb:33:2e:f9:57:b5, 2085-97-16 00:80:00:2038,0.008,0.039,0.996,-0.183,-0.244,0.061,2.318,-0.423,-138.856,-48.4,-56.4,-19.913,30.2,0.35129,0.00366,-0.02023,-0.93597
 13:47:14.753,eb:33:2e:f9:57:b5, 2085-97-18 00:75:00:2040,0.008,0.037,0.995,-0.122,-0.366,0.122,2.318,-0.423,-138.851,-48.4,-56.4,-19.913,30.2,0.35129,0.00366,-0.02023,-0.93597
 13:47:14.753,eb:33:2e:f9:57:b5, 2085-97-19 00:82:00:2040,0.009,0.038,0.995,0,-0.549,0.244,2.313,-0.423,-138.851,-48.4,-56.4,-19.913,30.2,0.35129,0.00366,-0.02023,-0.93597
 13:47:14.753,eb:33:2e:f9:57:b5, 2085-97-21 00:79:00:2039,0.009,0.039,0.995,0,-0.427,0.305,2.313,-0.423,-138.851,-48.4,-56.4,-19.913,30.2,0.35129,0.00366,-0.02023,-0.93597
 13:47:14.753,eb:33:2e:f9:57:b5, 2085-97-18 00:82:00:2038,0.008,0.039,0.995,0,-0.427,0.244,2.313,-0.423,-138.851,-48.4,-56.4,-19.913,30.2,0.35129,0.00366,-0.02023,-0.93597
 13:47:14.813,eb:33:2e:f9:57:b5, 2085-97-21 00:82:00:2039,0.01,0.041,0.995,0,-0.427,0.122,2.313,-0.423,-138.851,-48.4,-56.4,-19.913,30.2,0.35129,0.00366,-0.02023,-0.93597
 13:47:14.813,eb:33:2e:f9:57:b5, 2085-97-19 00:78:00:2038,0.011,0.038,0.995,0,-0.366,0.122,2.313,-0.423,-138.851,-48.4,-56.4,-19.913,30.2,0.35129,0.00366,-0.02023,-0.93597
 13:47:14.813,eb:33:2e:f9:57:b5, 2085-97-22 00:82:00:2043,0.014,0.041,0.996,0.061,-0.244,0,2.313,-0.423,-138.851,-48.4,-56.4,-19.913,30.2,0.35129,0.00366,-0.02023,-0.93597
 13:47:14.813,eb:33:2e:f9:57:b5, 2085-97-23 00:82:00:2043,0.009,0.039,1,0.061,-0.122,0,2.313,-0.423,-138.851,-48.4,-56.4,-19.913,30.2,0.35129,0.00366,-0.02023,-0.93597
 13:47:14.873,eb:33:2e:f9:57:b5, 2085-97-16 00:83:00:2037,0.01,0.041,0.996,0,0.061,0,2.313,-0.423,-138.851,-48.4,-56.4,-19.913,30.12,0.35129,0.00366,-0.02023,-0.93597
 13:47:14.873,eb:33:2e:f9:57:b5, 2085-97-19 00:79:00:2039,0.01,0.04,0.997,0,0.061,0,2.313,-0.423,-138.851,-48.4,-56.4,-19.913,30.12,0.35129,0.00366,-0.02023,-0.93597
 13:47:14.873,eb:33:2e:f9:57:b5, 2085-97-17 00:84:00:2038,0.007,0.04,0.995,-0.061,0.061,0,2.313,-0.423,-138.845,-48.4,-56.4,-19.913,30.12,0.35129,0.00366,-0.02023,-0.93597
 13:47:14.873,eb:33:2e:f9:57:b5, 2085-97-17 00:81:00:2037,0.009,0.04,0.995,-0.061,0.061,0,2.313,-0.423,-138.845,-48.4,-56.4,-19.913,30.12,0.35129,0.00366,-0.02023,-0.93597
 13:47:14.875,eb:33:2e:f9:57:b5, 2085-97-19 00:80:00:2038,0.009,0.039,0.995,-0.061,0,0,2.313,-0.423,-138.845,-48.4,-56.4,-19.913,30.12,0.35129,0.00366,-0.02023,-0.93597
 13:47:14.875,eb:33:2e:f9:57:b5, 2085-97-19 00:79:00:2038,0.009,0.039,0.995,0,0,0,2.313,-0.428,-138.845,-48.4,-56.4,-19.913,30.12,0.35129,0.00366,-0.02023,-0.93597
 13:47:14.875,eb:33:2e:f9:57:b5, 2085-97-19 00:81:00:2038,0.009,0.039,0.996,0,0,0,2.313,-0.428,-138.845,-48.4,-56.4,-19.913,30.12,0.35129,0.00366,-0.02023,-0.93597
 13:47:14.875,eb:33:2e:f9:57:b5, 2085-97-16 00:82:00:2035,0.008,0.04,0.995,0,0,0,2.313,-0.428,-138.845,-48.4,-56.4,-19.913,30.12,0.35129,0.00366,-0.02023,-0.93597
 13:47:14.904,eb:33:2e:f9:57:b5, 2085-97-18 00:81:00:2040,0.009,0.04,0.994,0,0,0,2.313,-0.428,-138.845,-48.4,-56.4,-19.913,30.12,0.35129,0.00366,-0.02023,-0.93597
 13:47:14.904,eb:33:2e:f9:57:b5, 2085-97-20 00:82:00:2039,0.01,0.039,0.996,0,0,0,2.313,-0.428,-138.845,-48.4,-56.4,-19.913,30.12,0.35129,0.00366,-0.02023,-0.93597
 13:47:14.904,eb:33:2e:f9:57:b5, 2085-97-21 00:81:00:2042,0.011,0.04,0.996,0,0,0,2.313,-0.428,-138.84,-48.4,-56.4,-19.913,30.12,0.35129,0.00366,-0.02023,-0.93597
 13:47:14.904,eb:33:2e:f9:57:b5, 2085-97-19 00:82:00:2038,0.008,0.04,0.997,0,0.061,-0.061,2.313,-0.428,-138.84,-48.4,-56.4,-19.913,30.12,0.35129,0.00366,-0.02023,-0.93597
 13:47:14.934,eb:33:2e:f9:57:b5, 2085-97-17 00:81:00:2040,0.008,0.039,0.996,-0.061,0.061,0,2.313,-0.428,-138.84,-48.4,-56.4,-19.913,30.12,0.35129,0.00366,-0.02023,-0.93597
 13:47:14.934,eb:33:2e:f9:57:b5, 2085-97-19 00:81:00:2039,0.009,0.04,0.997,0,0.061,0,2.313,-0.428,-138.84,-48.4,-56.4,-19.913,30.12,0.35129,0.00366,-0.02023,-0.93597
 13:47:14.934,eb:33:2e:f9:57:b5, 2085-97-20 00:80:00:2043,0.009,0.04,0.997,0,0.061,0,2.313,-0.428,-138.84,-48.4,-56.4,-19.913,30.12,0.35129,0.00366,-0.02023,-0.93597
 13:47:14.934,eb:33:2e:f9:57:b5, 2085-97-18 00:78:00:2041,0.009,0.039,0.997,0,0.122,0,2.313,-0.428,-138.84,-48.4,-56.4,-19.913,30.12,0.35129,0.00366,-0.02023,-0.93597
 13:47:14.994,eb:33:2e:f9:57:b5, 2085-97-20 00:81:00:2039,0.01,0.039,0.997,0,0.122,0,2.313,-0.428,-138.84,-48.4,-56.4,-19.913,30.12,0.35129,0.00366,-0.02023,-0.93597
 13:47:14.994,eb:33:2e:f9:57:b5, 2085-97-20 00:79:00:2038,0.01,0.04,0.996,0,0.183,0,2.313,-0.428,-138.84,-48.4,-56.4,-19.913,30.12,0.35129,0.00366,-0.02023,-0.93597
 13:47:14.994,eb:33:2e:f9:57:b5, 2085-97-21 00:82:00:2041,0.01,0.04,0.998,0.061,0.183,-0.061,2.313,-0.428,-138.84,-48.4,-56.4,-19.913,30.12,0.35129,0.00366,-0.02023,-0.93597
 13:47:14.994,eb:33:2e:f9:57:b5, 2085-97-19 00:80:00:2043,0.011,0.04,0.997,0,0.305,-0.061,2.313,-0.428,-138.84,-48.4,-56.4,-19.913,30.12,0.35129,0.00366,-0.02023,-0.93597
 13:47:15.023,eb:33:2e:f9:57:b5, 2085-97-21 00:83:00:2046,0.01,0.041,0.999,0.061,0.427,-0.183,2.313,-0.428,-138.834,-48.4,-56.4,-19.913,30.12,0.35129,0.00366,-0.02023,-0.93597
 13:47:15.023,eb:33:2e:f9:57:b5, 2085-97-22 00:83:00:2040,0.005,0.04,0.999,0,0.671,-0.183,2.313,-0.434,-138.834,-48.4,-56.4,-19.913,30.12,0.35129,0.00366,-0.02023,-0.93597
 13:47:15.023,eb:33:2e:f9:57:b5, 2085-97-13 00:81:00:2033,0.007,0.038,0.992,0,0.549,-0.183,2.313,-0.434,-138.834,-48.4,-56.4,-19.913,30.12,0.35129,0.00366,-0.02023,-0.93597
 13:47:15.024,eb:33:2e:f9:57:b5, 2085-97-16 00:81:00:2039,0.009,0.04,0.995,0,0.366,-0.122,2.313,-0.434,-138.834,-48.4,-56.4,-19.913,30.12,0.35129,0.00366,-0.02023,-0.93597
 13:47:15.084,eb:33:2e:f9:57:b5, 2085-97-11 00:80:00:2032,0.004,0.04,0.996,0,0.366,0,2.313,-0.434,-138.834,-47.4,-54.3,-23.833,30.12,0.35129,0.00366,-0.02023,-0.93597
 13:47:15.084,eb:33:2e:f9:57:b5, 2085-97-08 00:79:00:2034,0.004,0.04,0.992,-0.122,0.122,0.122,2.313,-0.434,-138.834,-47.4,-54.3,-23.833,30.12,0.35129,0.00366,-0.02023,-0.93597
 13:47:15.084,eb:33:2e:f9:57:b5, 2085-97-09 00:77:00:2035,0.005,0.038,0.993,-0.061,0,0.183,2.313,-0.434,-138.834,-47.4,-54.3,-23.833,30.12,0.35129,0.00366,-0.02023,-0.93597
 13:47:15.084,eb:33:2e:f9:57:b5, 2085-97-09 00:81:00:2032,0.005,0.04,0.994,-0.061,-0.244,0.244,2.313,-0.434,-138.834,-47.4,-54.3,-23.833,30.12,0.35129,0.00366,-0.02023,-0.93597
 13:47:15.175,eb:33:2e:f9:57:b5, 2085-97-15 00:79:00:2036,0.008,0.039,0.992,-0.061,-0.488,0.488,2.313,-0.434,-138.829,-47.4,-54.3,-23.833,30.12,0.35129,0.00366,-0.02023,-0.93597
 13:47:15.175,eb:33:2e:f9:57:b5, 2085-97-18 00:80:00:2038,0.011,0.04,0.995,-0.061,-0.549,0.427,2.313,-0.434,-138.829,-47.4,-54.3,-23.833,30.12,0.35129,0.00366,-0.02023,-0.93597
 13:47:15.175,eb:33:2e:f9:57:b5, 2085-97-25 00:81:00:2045,0.012,0.039,0.998,-0.061,-0.549,0.488,2.313,-0.434,-138.829,-47.4,-54.3,-23.833,30.12,0.35129,0.00366,-0.02023,-0.93597
 13:47:15.175,eb:33:2e:f9:57:b5, 2085-97-21 00:83:00:2042,0.011,0.041,0.998,-0.183,-0.366,0.427,2.313,-0.434,-138.829,-47.4,-54.3,-23.833,30.12,0.35129,0.00366,-0.02023,-0.93597
 13:47:15.179,eb:33:2e:f9:57:b5, 2085-97-23 00:82:00:2045,0.011,0.04,0.999,-0.122,-0.183,0.244,2.313,-0.434,-138.829,-47.4,-54.3,-23.833,30.12,0.35153,0.00354,-0.0202,-0.93588
 13:47:15.179,eb:33:2e:f9:57:b5, 2085-97-21 00:82:00:2040,0.009,0.041,0.998,-0.122,0,0.122,2.313,-0.434,-138.829,-47.4,-54.3,-23.833,30.12,0.35153,0.00354,-0.0202,-0.93588
 13:47:15.179,eb:33:2e:f9:57:b5, 2085-97-18 00:79:00:2035,0.008,0.04,0.994,-0.183,0.061,0.122,2.313,-0.434,-138.829,-47.4,-54.3,-23.833,30.12,0.35153,0.00354,-0.0202,-0.93588
 13:47:15.179,eb:33:2e:f9:57:b5, 2085-97-16 00:80:00:2035,0.006,0.04,0.994,-0.061,0,0,2.313,-0.434,-138.829,-47.4,-54.3,-23.833,30.12,0.35153,0.00354,-0.0202,-0.93588
 13:47:15.235,eb:33:2e:f9:57:b5, 2085-97-12 00:79:00:2033,0.008,0.039,0.994,-0.122,-0.061,0.061,2.313,-0.434,-138.829,-47.4,-54.3,-23.833,30.12,0.35153,0.00354,-0.0202,-0.93588
 13:47:15.235,eb:33:2e:f9:57:b5, 2085-97-13 00:79:00:2034,0.005,0.039,0.994,-0.122,-0.305,0.122,2.313,-0.434,-138.829,-47.4,-54.3,-23.833,30.12,0.35153,0.00354,-0.0202,-0.93588
 13:47:15.235,eb:33:2e:f9:57:b5, 2085-97-14 00:79:00:2036,0.007,0.039,0.994,-0.061,-0.427,0.183,2.313,-0.434,-138.823,-47.4,-54.3,-23.833,30.12,0.35153,0.00354,-0.0202,-0.93588
 13:47:15.235,eb:33:2e:f9:57:b5, 2085-97-14 00:78:00:2035,0.007,0.039,0.994,-0.122,-0.549,0.244,2.307,-0.434,-138.823,-47.4,-54.3,-23.833,30.12,0.35153,0.00354,-0.0202,-0.93588
 13:47:15.237,eb:33:2e:f9:57:b5, 2085-97-20 00:79:00:2041,0.011,0.039,0.995,-0.122,-0.671,0.244,2.307,-0.434,-138.823,-47.4,-54.3,-23.833,30.12,0.35153,0.00354,-0.0202,-0.93588
 13:47:15.237,eb:33:2e:f9:57:b5, 2085-97-23 00:81:00:2044,0.012,0.039,0.998,-0.061,-0.61,0.305,2.307,-0.434,-138.823,-47.4,-54.3,-23.833,30.12,0.35153,0.00354,-0.0202,-0.93588
 13:47:15.237,eb:33:2e:f9:57:b5, 2085-97-21 00:81:00:2041,0.011,0.04,0.998,-0.061,-0.488,0.183,2.307,-0.434,-138.823,-47.4,-54.3,-23.833,30.12,0.35153,0.00354,-0.0202,-0.93588
 13:47:15.237,eb:33:2e:f9:57:b5, 2085-97-24 00:80:00:2043,0.012,0.039,0.998,-0.061,-0.366,0.183,2.307,-0.434,-138.823,-47.4,-54.3,-23.833,30.12,0.35153,0.00354,-0.0202,-0.93588
 13:47:15.264,eb:33:2e:f9:57:b5, 2085-97-22 00:82:00:2040,0.01,0.04,0.998,-0.061,-0.244,0.183,2.307,-0.434,-138.823,-47.4,-54.3,-23.833,30.12,0.35153,0.00354,-0.0202,-0.93588
 13:47:15.264,eb:33:2e:f9:57:b5, 2085-97-15 00:79:00:2034,0.006,0.039,0.995,-0.122,-0.061,0.183,2.307,-0.434,-138.823,-47.4,-54.3,-23.833,30.12,0.35153,0.00354,-0.0202,-0.93588
 13:47:15.264,eb:33:2e:f9:57:b5, 2085-97-13 00:81:00:2033,0.008,0.039,0.992,-0.183,-0.244,0.183,2.307,-0.434,-138.823,-47.4,-54.3,-23.833,30.12,0.35153,0.00354,-0.0202,-0.93588
 13:47:15.264,eb:33:2e:f9:57:b5, 2085-97-17 00:78:00:2038,0.008,0.039,0.995,-0.061,-0.427,0.122,2.307,-0.434,-138.823,-47.4,-54.3,-23.833,30.12,0.35153,0.00354,-0.0202,-0.93588
 13:47:15.352,eb:33:2e:f9:57:b5, 2085-97-16 00:78:00:2037,0.009,0.039,0.995,-0.061,-0.549,0.183,2.307,-0.434,-138.818,-47.4,-54.3,-23.833,30.12,0.35153,0.00354,-0.0202,-0.93588
 13:47:15.352,eb:33:2e:f9:57:b5, 2085-97-19 00:78:00:2040,0.013,0.038,0.996,0,-0.61,0.122,2.307,-0.434,-138.818,-47.4,-54.3,-23.833,30.12,0.35153,0.00354,-0.0202,-0.93588
 13:47:15.352,eb:33:2e:f9:57:b5, 2085-97-24 00:82:00:2042,0.011,0.04,0.999,-0.061,-0.549,0.183,2.307,-0.434,-138.818,-47.4,-54.3,-23.833,30.12,0.35153,0.00354,-0.0202,-0.93588
 13:47:15.353,eb:33:2e:f9:57:b5, 2085-97-23 00:78:00:2040,0.011,0.039,0.997,-0.061,-0.427,0.183,2.307,-0.439,-138.818,-47.4,-54.3,-23.833,30.12,0.35153,0.00354,-0.0202,-0.93588
 13:47:15.355,eb:33:2e:f9:57:b5, 2085-97-22 00:79:00:2039,0.009,0.038,0.997,0,-0.366,0.122,2.307,-0.439,-138.818,-47.4,-54.3,-23.833,30.12,0.35153,0.00354,-0.0202,-0.93588
 13:47:15.355,eb:33:2e:f9:57:b5, 2085-97-16 00:82:00:2035,0.008,0.04,0.994,-0.061,-0.366,0.183,2.307,-0.439,-138.818,-47.4,-54.3,-23.833,30.12,0.35153,0.00354,-0.0202,-0.93588
 13:47:15.355,eb:33:2e:f9:57:b5, 2085-97-24 00:78:00:2041,0.011,0.039,0.993,-0.061,-0.488,0.122,2.307,-0.439,-138.818,-47.4,-54.3,-23.833,30.12,0.35153,0.00354,-0.0202,-0.93588
 13:47:15.355,eb:33:2e:f9:57:b5, 2085-97-19 00:81:00:2038,0.01,0.039,0.996,0,-0.427,0.122,2.307,-0.439,-138.818,-47.4,-54.3,-23.833,30.12,0.35153,0.00354,-0.0202,-0.93588
 13:47:15.384,eb:33:2e:f9:57:b5, 2085-97-23 00:78:00:2044,0.013,0.04,0.996,-0.061,-0.427,0.061,2.307,-0.439,-138.818,-47.4,-54.3,-23.833,30.12,0.35153,0.00354,-0.0202,-0.93588
 13:47:15.384,eb:33:2e:f9:57:b5, 2085-97-24 00:82:00:2041,0.011,0.039,0.998,0,-0.305,0.122,2.307,-0.439,-138.818,-47.4,-54.3,-23.833,30.12,0.35153,0.00354,-0.0202,-0.93588
 13:47:15.384,eb:33:2e:f9:57:b5, 2085-97-21 00:79:00:2039,0.009,0.039,0.996,-0.061,-0.183,0.061,2.307,-0.439,-138.812,-47.4,-54.3,-23.833,30.12,0.35153,0.00354,-0.0202,-0.93588
 13:47:15.384,eb:33:2e:f9:57:b5, 2085-97-21 00:80:00:2038,0.01,0.039,0.995,-0.061,-0.244,0.061,2.307,-0.439,-138.812,-47.4,-54.3,-23.833,30.12,0.35153,0.00354,-0.0202,-0.93588
 13:47:15.445,eb:33:2e:f9:57:b5, 2085-97-17 00:79:00:2034,0.009,0.039,0.995,-0.122,-0.183,0,2.307,-0.439,-138.812,-48.5,-56.3,-19.107,30.12,0.35153,0.00354,-0.0202,-0.93588
 13:47:15.445,eb:33:2e:f9:57:b5, 2085-97-22 00:79:00:2037,0.009,0.039,0.994,-0.122,-0.366,0.061,2.307,-0.439,-138.812,-48.5,-56.3,-19.107,30.12,0.35153,0.00354,-0.0202,-0.93588
 13:47:15.445,eb:33:2e:f9:57:b5, 2085-97-19 00:78:00:2037,0.01,0.038,0.995,-0.061,-0.366,0.061,2.307,-0.439,-138.812,-48.5,-56.3,-19.107,30.12,0.35153,0.00354,-0.0202,-0.93588
 13:47:15.445,eb:33:2e:f9:57:b5, 2085-97-22 00:76:00:2041,0.013,0.039,0.996,-0.061,-0.366,0,2.307,-0.445,-138.812,-48.5,-56.3,-19.107,30.12,0.35153,0.00354,-0.0202,-0.93588
 13:47:15.445,eb:33:2e:f9:57:b5, 2085-97-25 00:77:00:2044,0.011,0.038,0.999,0,-0.427,0.061,2.307,-0.445,-138.812,-48.5,-56.3,-19.107,30.12,0.35153,0.00354,-0.0202,-0.93588
 13:47:15.474,eb:33:2e:f9:57:b5, 2085-113-81 00:05:45:112,0.011,0.038,0.996,0,-0.427,0.122,2.307,-0.445,-138.812,-48.5,-56.3,-19.107,30.12,0.35172,0.00342,-0.0202,-0.93582
 13:47:15.474,eb:33:2e:f9:57:b5, 2085-97-21 00:80:00:2040,0.012,0.038,0.996,0,-0.427,0.061,2.307,-0.445,-138.812,-48.5,-56.3,-19.107,30.12,0.35172,0.00342,-0.0202,-0.93582
 13:47:15.474,eb:33:2e:f9:57:b5, 2085-97-29 00:81:00:2044,0.013,0.039,0.997,0,-0.366,0.061,2.307,-0.445,-138.812,-48.5,-56.3,-19.107,30.12,0.35172,0.00342,-0.0202,-0.93582
 13:47:15.474,eb:33:2e:f9:57:b5, 2085-97-22 00:80:00:2041,0.009,0.04,0.998,-0.061,-0.183,0.061,2.307,-0.445,-138.812,-48.5,-56.3,-19.107,30.12,0.35172,0.00342,-0.0202,-0.93582
 13:47:15.503,eb:33:2e:f9:57:b5, 2085-97-20 00:80:00:2039,0.011,0.039,0.995,0,-0.183,0,2.307,-0.445,-138.807,-48.5,-56.3,-19.107,30.12,0.35172,0.00342,-0.0202,-0.93582
 13:47:15.503,eb:33:2e:f9:57:b5, 2085-97-23 00:78:00:2037,0.01,0.039,0.996,0,-0.244,0.061,2.302,-0.445,-138.807,-48.5,-56.3,-19.107,30.12,0.35172,0.00342,-0.0202,-0.93582
 13:47:15.503,eb:33:2e:f9:57:b5, 2085-97-20 00:81:00:2039,0.011,0.038,0.994,-0.061,-0.183,0.061,2.302,-0.445,-138.807,-48.5,-56.3,-19.107,30.12,0.35172,0.00342,-0.0202,-0.93582
 13:47:15.503,eb:33:2e:f9:57:b5, 2085-97-23 00:78:00:2038,0.011,0.039,0.995,-0.061,-0.244,0,2.302,-0.445,-138.807,-48.5,-56.3,-19.107,30.12,0.35172,0.00342,-0.0202,-0.93582
 13:47:15.563,eb:33:2e:f9:57:b5, 2085-97-21 00:81:00:2038,0.01,0.039,0.995,-0.061,-0.244,0.061,2.302,-0.445,-138.807,-48.5,-56.3,-19.107,30.12,0.35172,0.00342,-0.0202,-0.93582
 13:47:15.563,eb:33:2e:f9:57:b5, 2085-97-22 00:80:00:2038,0.011,0.04,0.995,-0.061,-0.305,0,2.302,-0.445,-138.807,-48.5,-56.3,-19.107,30.12,0.35172,0.00342,-0.0202,-0.93582
 13:47:15.563,eb:33:2e:f9:57:b5, 2085-97-23 00:78:00:2039,0.011,0.038,0.996,-0.061,-0.244,0,2.302,-0.445,-138.807,-48.5,-56.3,-19.107,30.12,0.35172,0.00342,-0.0202,-0.93582
 13:47:15.563,eb:33:2e:f9:57:b5, 2085-97-22 00:77:00:2040,0.01,0.039,0.996,0,-0.244,0,2.302,-0.45,-138.807,-48.5,-56.3,-19.107,30.12,0.35172,0.00342,-0.0202,-0.93582
 13:47:15.594,eb:33:2e:f9:57:b5, 2085-97-22 00:78:00:2039,0.011,0.037,0.995,0.061,-0.244,0.061,2.302,-0.45,-138.807,-48.5,-56.3,-19.107,30.12,0.35172,0.00342,-0.0202,-0.93582
 13:47:15.594,eb:33:2e:f9:57:b5, 2085-97-22 00:78:00:2038,0.011,0.039,0.995,0.061,-0.244,0,2.302,-0.45,-138.807,-48.5,-56.3,-19.107,30.12,0.35172,0.00342,-0.0202,-0.93582
 13:47:15.594,eb:33:2e:f9:57:b5, 2085-97-25 00:80:00:2042,0.012,0.039,0.996,0.061,-0.244,-0.061,2.302,-0.45,-138.801,-48.5,-56.3,-19.107,30.12,0.35172,0.00342,-0.0202,-0.93582
 13:47:15.594,eb:33:2e:f9:57:b5, 2085-97-23 00:81:00:2040,0.011,0.039,0.998,0.061,-0.122,-0.061,2.302,-0.45,-138.801,-48.5,-56.3,-19.107,30.12,0.35172,0.00342,-0.0202,-0.93582
 13:47:15.653,eb:33:2e:f9:57:b5, 2085-97-23 00:80:00:2041,0.012,0.039,0.997,0.061,-0.122,0,2.302,-0.45,-138.801,-48.5,-56.3,-19.107,30.12,0.35172,0.00342,-0.0202,-0.93582
 13:47:15.653,eb:33:2e:f9:57:b5, 2085-97-26 00:79:00:2043,0.012,0.037,0.997,0.061,-0.122,0,2.302,-0.45,-138.801,-48.5,-56.3,-19.107,30.12,0.35172,0.00342,-0.0202,-0.93582
 13:47:15.653,eb:33:2e:f9:57:b5, 2085-97-25 00:80:00:2039,0.011,0.039,0.997,0.061,0,0,2.302,-0.45,-138.801,-48.5,-56.3,-19.107,30.12,0.35172,0.00342,-0.0202,-0.93582
 13:47:15.653,eb:33:2e:f9:57:b5, 2085-97-21 00:79:00:2038,0.011,0.039,0.995,0.061,-0.061,0,2.302,-0.45,-138.801,-48.5,-56.3,-19.107,30.12,0.35172,0.00342,-0.0202,-0.93582
 13:47:15.713,eb:33:2e:f9:57:b5, 2085-97-25 00:81:00:2039,0.012,0.039,0.995,0,0,0,2.302,-0.456,-138.801,-48.5,-56.3,-19.107,30.12,0.35172,0.00342,-0.0202,-0.93582
 13:47:15.713,eb:33:2e:f9:57:b5, 2085-97-23 00:80:00:2038,0.011,0.039,0.996,0,0,0.061,2.302,-0.456,-138.801,-48.5,-56.3,-19.107,30.12,0.35172,0.00342,-0.0202,-0.93582
 13:47:15.713,eb:33:2e:f9:57:b5, 2085-97-23 00:77:00:2038,0.012,0.039,0.995,0,0,0,2.302,-0.456,-138.801,-48.5,-56.3,-19.107,30.12,0.35172,0.00342,-0.0202,-0.93582
 13:47:15.713,eb:33:2e:f9:57:b5, 2085-97-24 00:78:00:2042,0.012,0.038,0.996,0.061,0,0,2.302,-0.456,-138.801,-48.5,-56.3,-19.107,30.12,0.35172,0.00342,-0.0202,-0.93582
 13:47:15.715,eb:33:2e:f9:57:b5, 2085-97-25 00:78:00:2040,0.011,0.038,0.997,0.183,0,0.061,2.302,-0.456,-138.801,-48.5,-56.3,-19.107,30.12,0.35172,0.00342,-0.0202,-0.93582
 13:47:15.715,eb:33:2e:f9:57:b5, 2085-97-22 00:78:00:2038,0.01,0.039,0.996,0.183,0,0,2.302,-0.456,-138.801,-48.5,-56.3,-19.107,30.12,0.35172,0.00342,-0.0202,-0.93582
 13:47:15.715,eb:33:2e:f9:57:b5, 2085-97-20 00:80:00:2039,0.011,0.039,0.995,0.122,0,0,2.302,-0.456,-138.796,-48.5,-56.3,-19.107,30.12,0.35172,0.00342,-0.0202,-0.93582
 13:47:15.715,eb:33:2e:f9:57:b5, 2085-97-25 00:80:00:2042,0.013,0.04,0.996,0.122,0.061,0,2.302,-0.456,-138.796,-48.5,-56.3,-19.107,30.12,0.35172,0.00342,-0.0202,-0.93582
 13:47:15.744,eb:33:2e:f9:57:b5, 2085-97-23 00:79:00:2041,0.012,0.038,0.997,0.183,0.061,0,2.302,-0.456,-138.796,-48.9,-56.3,-21.313,30.12,0.35172,0.00342,-0.0202,-0.93582
 13:47:15.744,eb:33:2e:f9:57:b5, 2085-97-23 00:82:00:2041,0.012,0.04,0.997,0.183,0.061,0,2.302,-0.461,-138.796,-48.9,-56.3,-21.313,30.12,0.35172,0.00342,-0.0202,-0.93582
 13:47:15.744,eb:33:2e:f9:57:b5, 2085-97-21 00:81:00:2038,0.009,0.039,0.996,0.122,0.183,0,2.302,-0.461,-138.796,-48.9,-56.3,-21.313,30.12,0.35172,0.00342,-0.0202,-0.93582
 13:47:15.744,eb:33:2e:f9:57:b5, 2085-97-21 00:82:00:2036,0.011,0.04,0.994,0.061,0.122,0.122,2.302,-0.461,-138.796,-48.9,-56.3,-21.313,30.12,0.35172,0.00342,-0.0202,-0.93582
 13:47:15.804,eb:33:2e:f9:57:b5, 2085-97-23 00:81:00:2039,0.011,0.04,0.996,0,0.122,0.061,2.302,-0.461,-138.796,-48.9,-56.3,-21.313,30.12,0.35172,0.00342,-0.0202,-0.93582
 13:47:15.804,eb:33:2e:f9:57:b5, 2085-97-21 00:81:00:2037,0.01,0.04,0.995,0,0.183,0.061,2.302,-0.461,-138.796,-48.9,-56.3,-21.313,30.12,0.35172,0.00342,-0.0202,-0.93582
 13:47:15.804,eb:33:2e:f9:57:b5, 2085-97-24 00:81:00:2040,0.011,0.04,0.996,0,0.061,0.061,2.302,-0.461,-138.796,-48.9,-56.3,-21.313,30.12,0.35172,0.00342,-0.0202,-0.93582
 13:47:15.804,eb:33:2e:f9:57:b5, 2085-97-21 00:80:00:2039,0.01,0.04,0.996,0,0.183,0.061,2.296,-0.461,-138.796,-48.9,-56.3,-21.313,30.12,0.35172,0.00342,-0.0202,-0.93582
 13:47:15.864,eb:33:2e:f9:57:b5, 2085-97-21 00:80:00:2038,0.011,0.039,0.995,0,0.122,0,2.296,-0.461,-138.79,-48.9,-56.3,-21.313,30.12,0.35184,0.00327,-0.0202,-0.93579
 13:47:15.864,eb:33:2e:f9:57:b5, 2085-97-23 00:79:00:2039,0.011,0.039,0.995,0,0,0,2.296,-0.461,-138.796,-48.9,-56.3,-21.313,30.12,0.35184,0.00327,-0.0202,-0.93579
 13:47:15.864,eb:33:2e:f9:57:b5, 2085-97-21 00:82:00:2038,0.01,0.039,0.996,0,0.122,0.061,2.296,-0.461,-138.79,-48.9,-56.3,-21.313,30.12,0.35184,0.00327,-0.0202,-0.93579
 13:47:15.864,eb:33:2e:f9:57:b5, 2085-97-20 00:79:00:2038,0.011,0.039,0.995,-0.061,0.122,0,2.296,-0.467,-138.79,-48.9,-56.3,-21.313,30.12,0.35184,0.00327,-0.0202,-0.93579
 13:47:15.864,eb:33:2e:f9:57:b5, 2085-97-23 00:78:00:2039,0.011,0.038,0.996,0,0.061,0,2.296,-0.467,-138.79,-48.9,-56.3,-21.313,30.12,0.35184,0.00327,-0.0202,-0.93579
 13:47:15.864,eb:33:2e:f9:57:b5, 2085-97-22 00:79:00:2039,0.011,0.039,0.995,0,0.061,0,2.296,-0.467,-138.79,-48.9,-56.3,-21.313,30.12,0.35184,0.00327,-0.0202,-0.93579
 13:47:15.865,eb:33:2e:f9:57:b5, 2085-97-20 00:81:00:2038,0.01,0.04,0.997,0,0.061,0,2.296,-0.467,-138.79,-48.9,-56.3,-21.313,30.12,0.35184,0.00327,-0.0202,-0.93579
 13:47:15.865,eb:33:2e:f9:57:b5, 2085-97-24 00:81:00:2039,0.012,0.04,0.995,0,0.061,0,2.296,-0.467,-138.79,-48.9,-56.3,-21.313,30.12,0.35184,0.00327,-0.0202,-0.93579
 13:47:15.924,eb:33:2e:f9:57:b5, 2085-97-21 00:80:00:2039,0.011,0.039,0.995,0,0.061,0,2.296,-0.467,-138.79,-48.9,-56.3,-21.313,30.12,0.35184,0.00327,-0.0202,-0.93579
 13:47:15.924,eb:33:2e:f9:57:b5, 2085-97-23 00:79:00:2037,0.011,0.039,0.996,0,0.061,0,2.296,-0.467,-138.79,-48.9,-56.3,-21.313,30.12,0.35184,0.00327,-0.0202,-0.93579
 13:47:15.924,eb:33:2e:f9:57:b5, 2085-97-20 00:81:00:2038,0.011,0.039,0.995,0,0.061,0,2.296,-0.467,-138.79,-48.9,-56.3,-21.313,30.12,0.35184,0.00327,-0.0202,-0.93579
 13:47:15.924,eb:33:2e:f9:57:b5, 2085-97-21 00:81:00:2039,0.01,0.04,0.996,0,0.061,0,2.296,-0.467,-138.79,-48.9,-56.3,-21.313,30.12,0.35184,0.00327,-0.0202,-0.93579
 13:47:15.954,eb:33:2e:f9:57:b5, 2085-97-23 00:81:00:2038,0.01,0.039,0.995,0,0.061,-0.061,2.296,-0.467,-138.785,-48.9,-56.3,-21.313,30.12,0.35184,0.00327,-0.0202,-0.93579
 13:47:15.954,eb:33:2e:f9:57:b5, 2085-97-19 00:78:00:2039,0.01,0.039,0.996,0,0,0,2.296,-0.467,-138.785,-48.9,-56.3,-21.313,30.12,0.35184,0.00327,-0.0202,-0.93579
 13:47:15.954,eb:33:2e:f9:57:b5, 2085-97-19 00:80:00:2040,0.01,0.039,0.996,0,0,-0.061,2.296,-0.467,-138.785,-48.9,-56.3,-21.313,30.12,0.35184,0.00327,-0.0202,-0.93579
 13:47:15.954,eb:33:2e:f9:57:b5, 2085-97-20 00:80:00:2039,0.011,0.04,0.995,0,0,0,2.296,-0.472,-138.785,-48.9,-56.3,-21.313,30.12,0.35184,0.00327,-0.0202,-0.93579
 13:47:15.985,eb:33:2e:f9:57:b5, 2085-97-20 00:81:00:2039,0.011,0.039,0.997,0,0,0,2.296,-0.472,-138.785,-48.9,-56.3,-21.313,30.12,0.35184,0.00327,-0.0202,-0.93579
 13:47:15.985,eb:33:2e:f9:57:b5, 2085-97-22 00:82:00:2041,0.01,0.041,0.996,0,0,0,2.296,-0.472,-138.785,-48.9,-56.3,-21.313,30.12,0.35184,0.00327,-0.0202,-0.93579
 13:47:15.985,eb:33:2e:f9:57:b5, 2085-97-22 00:77:00:2042,0.01,0.039,0.997,0,0,0,2.296,-0.472,-138.785,-48.9,-56.3,-21.313,30.12,0.35184,0.00327,-0.0202,-0.93579
 13:47:15.985,eb:33:2e:f9:57:b5, 2085-97-23 00:81:00:2039,0.011,0.038,0.997,-0.061,0.061,0,2.296,-0.472,-138.785,-48.9,-56.3,-21.313,30.12,0.35184,0.00327,-0.0202,-0.93579
 13:47:16.073,eb:33:2e:f9:57:b5, 2085-97-22 00:79:00:2039,0.01,0.04,0.995,0,0.061,0,2.296,-0.472,-138.785,-48.9,-56.3,-21.313,30.12,0.35184,0.00327,-0.0202,-0.93579
 13:47:16.073,eb:33:2e:f9:57:b5, 2085-97-20 00:79:00:2038,0.012,0.038,0.995,0,0.061,0,2.296,-0.472,-138.785,-48.9,-56.3,-21.313,30.12,0.35184,0.00327,-0.0202,-0.93579
 13:47:16.073,eb:33:2e:f9:57:b5, 2085-97-24 00:80:00:2041,0.009,0.039,0.997,0,0.061,0,2.296,-0.472,-138.785,-48.9,-56.3,-21.313,30.12,0.35184,0.00327,-0.0202,-0.93579
 13:47:16.073,eb:33:2e:f9:57:b5, 2085-97-21 00:80:00:2039,0.011,0.04,0.996,0.061,0.061,0,2.296,-0.472,-138.785,-48.9,-56.3,-21.313,30.12,0.35184,0.00327,-0.0202,-0.93579
 13:47:16.075,eb:33:2e:f9:57:b5, 2085-97-22 00:80:00:2039,0.008,0.04,0.996,0.061,0.122,0,2.296,-0.472,-138.779,-48.9,-56.3,-21.313,30.12,0.35184,0.00327,-0.0202,-0.93579
 13:47:16.075,eb:33:2e:f9:57:b5, 2085-97-17 00:81:00:2035,0.009,0.039,0.994,0,0.122,0,2.296,-0.472,-138.779,-48.9,-56.3,-21.313,30.12,0.35184,0.00327,-0.0202,-0.93579
 13:47:16.075,eb:33:2e:f9:57:b5, 2085-97-19 00:83:00:2038,0.008,0.04,0.995,0,0.122,0,2.296,-0.472,-138.779,-48.9,-56.3,-21.313,30.12,0.35184,0.00327,-0.0202,-0.93579
 13:47:16.075,eb:33:2e:f9:57:b5, 2085-97-17 00:80:00:2038,0.011,0.041,0.995,0,0.061,-0.061,2.296,-0.472,-138.779,-47.9,-56.1,-19.493,30.12,0.35184,0.00327,-0.0202,-0.93579
 13:47:16.104,eb:33:2e:f9:57:b5, 2085-97-23 00:79:00:2042,0.01,0.038,0.997,0,0,0,2.296,-0.472,-138.779,-47.9,-56.1,-19.493,30.12,0.35184,0.00327,-0.0202,-0.93579
 13:47:16.104,eb:33:2e:f9:57:b5, 2085-97-24 00:78:00:2043,0.013,0.039,0.997,0,0,0,2.296,-0.472,-138.779,-47.9,-56.1,-19.493,30.12,0.35184,0.00327,-0.0202,-0.93579
 13:47:16.105,eb:33:2e:f9:57:b5, 2085-97-21 00:79:00:2039,0.011,0.04,0.998,0.061,0.122,0,2.296,-0.472,-138.779,-47.9,-56.1,-19.493,30.12,0.35184,0.00327,-0.0202,-0.93579
 13:47:16.105,eb:33:2e:f9:57:b5, 2085-97-21 00:80:00:2040,0.01,0.04,0.997,0.061,0.122,0.061,2.296,-0.478,-138.779,-47.9,-56.1,-19.493,30.12,0.35184,0.00327,-0.0202,-0.93579
 13:47:16.195,eb:33:2e:f9:57:b5, 2085-97-22 00:81:00:2039,0.01,0.039,0.996,0.061,0.183,0,2.296,-0.478,-138.779,-47.9,-56.1,-19.493,30.12,0.35184,0.00327,-0.0202,-0.93579
 13:47:16.195,eb:33:2e:f9:57:b5, 2085-113-81 00:14:45:103,0.008,0.041,0.995,0,0.183,0,2.296,-0.478,-138.779,-47.9,-56.1,-19.493,30.12,0.35184,0.00327,-0.0202,-0.93579
 13:47:16.195,eb:33:2e:f9:57:b5, 2085-97-19 00:80:00:2038,0.009,0.039,0.994,0,0.183,0,2.296,-0.478,-138.779,-47.9,-56.1,-19.493,30.12,0.35184,0.00327,-0.0202,-0.93579
 13:47:16.195,eb:33:2e:f9:57:b5, 2085-97-19 00:81:00:2038,0.009,0.039,0.995,0,0.061,0.061,2.296,-0.478,-138.779,-47.9,-56.1,-19.493,30.12,0.35184,0.00327,-0.0202,-0.93579
 13:47:16.197,eb:33:2e:f9:57:b5, 2085-97-19 00:81:00:2036,0.009,0.041,0.994,0,0.061,0.061,2.296,-0.478,-138.774,-47.9,-56.1,-19.493,30.12,0.35184,0.00327,-0.0202,-0.93579
 13:47:16.197,eb:33:2e:f9:57:b5, 2085-97-20 00:80:00:2040,0.01,0.039,0.995,0,0,0,2.296,-0.478,-138.774,-47.9,-56.1,-19.493,30.12,0.35184,0.00327,-0.0202,-0.93579
 13:47:16.197,eb:33:2e:f9:57:b5, 2085-97-20 00:79:00:2041,0.012,0.04,0.996,-0.061,0,0.061,2.296,-0.478,-138.774,-47.9,-56.1,-19.493,30.12,0.35184,0.00327,-0.0202,-0.93579
 13:47:16.197,eb:33:2e:f9:57:b5, 2085-97-19 00:81:00:2040,0.01,0.039,0.998,0,0,0,2.296,-0.478,-138.774,-47.9,-56.1,-19.493,30.12,0.35184,0.00327,-0.0202,-0.93579
 13:47:16.224,eb:33:2e:f9:57:b5, 2085-97-20 00:80:00:2038,0.011,0.04,0.995,0,0,0,2.296,-0.478,-138.774,-47.9,-56.1,-19.493,30.12,0.35199,0.00314,-0.02023,-0.93573
 13:47:16.224,eb:33:2e:f9:57:b5, 2085-97-22 00:81:00:2038,0.01,0.04,0.996,0.061,0,0,2.296,-0.478,-138.774,-47.9,-56.1,-19.493,30.12,0.35199,0.00314,-0.02023,-0.93573
 13:47:16.224,eb:33:2e:f9:57:b5, 2085-97-18 00:83:00:2039,0.008,0.04,0.995,0.061,0,0,2.296,-0.478,-138.774,-47.9,-56.1,-19.493,30.12,0.35199,0.00314,-0.02023,-0.93573
 13:47:16.224,eb:33:2e:f9:57:b5, 2085-97-19 00:80:00:2040,0.011,0.04,0.995,0.061,0,0,2.296,-0.478,-138.774,-47.9,-56.1,-19.493,30.12,0.35199,0.00314,-0.02023,-0.93573
 13:47:16.283,eb:33:2e:f9:57:b5, 2085-97-22 00:80:00:2042,0.01,0.039,0.996,0,0,-0.061,2.296,-0.478,-138.774,-47.9,-56.1,-19.493,30.12,0.35199,0.00314,-0.02023,-0.93573
 13:47:16.283,eb:33:2e:f9:57:b5, 2085-97-19 00:80:00:2040,0.01,0.039,0.997,0,0.061,-0.061,2.296,-0.478,-138.774,-47.9,-56.1,-19.493,30.12,0.35199,0.00314,-0.02023,-0.93573
 13:47:16.283,eb:33:2e:f9:57:b5, 2085-97-19 00:81:00:2039,0.01,0.04,0.996,0,0.061,-0.061,2.296,-0.478,-138.774,-47.9,-56.1,-19.493,30.12,0.35199,0.00314,-0.02023,-0.93573
 13:47:16.283,eb:33:2e:f9:57:b5, 2085-97-23 00:82:00:2039,0.011,0.04,0.996,0.122,0.061,-0.122,2.296,-0.483,-138.774,-47.9,-56.1,-19.493,30.12,0.35199,0.00314,-0.02023,-0.93573
 13:47:16.314,eb:33:2e:f9:57:b5, 2085-97-20 00:81:00:2040,0.011,0.04,0.996,0.061,0.122,-0.061,2.296,-0.483,-138.768,-47.9,-56.1,-19.493,30.12,0.35199,0.00314,-0.02023,-0.93573
 13:47:16.315,eb:33:2e:f9:57:b5, 2085-97-18 00:78:00:2040,0.01,0.04,0.997,0,0.183,-0.122,2.296,-0.483,-138.768,-47.9,-56.1,-19.493,30.12,0.35199,0.00314,-0.02023,-0.93573
 13:47:16.315,eb:33:2e:f9:57:b5, 2085-97-19 00:81:00:2039,0.009,0.04,0.996,0.061,0.244,-0.122,2.296,-0.483,-138.768,-47.9,-56.1,-19.493,30.12,0.35199,0.00314,-0.02023,-0.93573
 13:47:16.315,eb:33:2e:f9:57:b5, 2085-97-21 00:81:00:2039,0.011,0.04,0.996,0.061,0.183,-0.183,2.296,-0.483,-138.768,-47.9,-56.1,-19.493,30.12,0.35199,0.00314,-0.02023,-0.93573
 13:47:16.375,eb:33:2e:f9:57:b5, 2085-97-21 00:79:00:2040,0.01,0.039,0.996,0.122,0.183,-0.305,2.296,-0.483,-138.768,-47.9,-56.1,-19.493,30.12,0.35199,0.00314,-0.02023,-0.93573
 13:47:16.375,eb:33:2e:f9:57:b5, 2085-97-20 00:85:00:2039,0.009,0.04,0.996,0.122,0.183,-0.183,2.296,-0.483,-138.768,-47.9,-56.1,-19.493,30.12,0.35199,0.00314,-0.02023,-0.93573
 13:47:16.375,eb:33:2e:f9:57:b5, 2085-97-19 00:80:00:2041,0.011,0.041,0.995,0,0.183,-0.244,2.296,-0.483,-138.768,-47.9,-56.1,-19.493,30.12,0.35199,0.00314,-0.02023,-0.93573
 13:47:16.375,eb:33:2e:f9:57:b5, 2085-97-20 00:83:00:2039,0.009,0.041,0.996,0,0.305,-0.183,2.296,-0.483,-138.768,-47.9,-56.1,-19.493,30.12,0.35199,0.00314,-0.02023,-0.93573
 13:47:16.403,eb:33:2e:f9:57:b5, 2085-97-17 00:80:00:2038,0.009,0.041,0.995,0,0.244,-0.244,2.296,-0.483,-138.768,-47.9,-56.1,-19.493,30.12,0.35199,0.00314,-0.02023,-0.93573
 13:47:16.403,eb:33:2e:f9:57:b5, 2085-97-22 00:81:00:2041,0.011,0.038,0.996,0,0.244,-0.305,2.296,-0.483,-138.768,-47.9,-56.1,-19.493,30.12,0.35199,0.00314,-0.02023,-0.93573
 13:47:16.403,eb:33:2e:f9:57:b5, 2085-97-16 00:75:00:2038,0.008,0.038,0.997,0,0.305,-0.244,2.296,-0.483,-138.768,-47.9,-56.1,-19.493,30.12,0.35199,0.00314,-0.02023,-0.93573
 13:47:16.403,eb:33:2e:f9:57:b5, 2085-97-15 00:79:00:2039,0.008,0.039,0.995,0.061,0.061,0,2.296,-0.483,-138.768,-47.9,-56.1,-19.493,30.12,0.35199,0.00314,-0.02023,-0.93573
 13:47:16.434,eb:33:2e:f9:57:b5, 2085-97-19 00:81:00:2041,0.008,0.039,0.996,0.061,0,0,2.296,-0.483,-138.763,-48.5,-55.5,-19.687,30.12,0.35199,0.00314,-0.02023,-0.93573
 13:47:16.434,eb:33:2e:f9:57:b5, 2085-97-16 00:81:00:2037,0.009,0.04,0.994,0.122,0,0,2.296,-0.483,-138.763,-48.5,-55.5,-19.687,30.12,0.35199,0.00314,-0.02023,-0.93573
 13:47:16.434,eb:33:2e:f9:57:b5, 2085-97-19 00:83:00:2037,0.008,0.04,0.994,0.061,0,0,2.296,-0.483,-138.763,-48.5,-55.5,-19.687,30.12,0.35199,0.00314,-0.02023,-0.93573
 13:47:16.434,eb:33:2e:f9:57:b5, 2085-97-19 00:83:00:2038,0.009,0.04,0.994,0.061,0,0,2.296,-0.483,-138.763,-48.5,-55.5,-19.687,30.12,0.35199,0.00314,-0.02023,-0.93573
 13:47:16.464,eb:33:2e:f9:57:b5, 2085-97-21 00:83:00:2040,0.01,0.04,0.996,0.061,0,0,2.296,-0.483,-138.763,-48.5,-55.5,-19.687,30.12,0.35199,0.00314,-0.02023,-0.93573
 13:47:16.464,eb:33:2e:f9:57:b5, 2085-97-19 00:82:00:2040,0.008,0.041,0.997,0,0.122,0,2.296,-0.483,-138.763,-48.5,-55.5,-19.687,30.12,0.35199,0.00314,-0.02023,-0.93573
 13:47:16.464,eb:33:2e:f9:57:b5, 2085-97-18 00:82:00:2038,0.009,0.039,0.996,0,0.122,0,2.296,-0.483,-138.763,-48.5,-55.5,-19.687,30.12,0.35199,0.00314,-0.02023,-0.93573
 13:47:16.464,eb:33:2e:f9:57:b5, 2085-97-19 00:82:00:2039,0.008,0.041,0.996,0,0.122,0,2.296,-0.483,-138.763,-48.5,-55.5,-19.687,30.12,0.35199,0.00314,-0.02023,-0.93573
 13:47:16.555,eb:33:2e:f9:57:b5, 2085-97-18 00:81:00:2037,0.009,0.04,0.996,0,0.122,-0.061,2.296,-0.483,-138.763,-48.5,-55.5,-19.687,30.12,0.35211,0.00305,-0.02023,-0.93567
 13:47:16.555,eb:33:2e:f9:57:b5, 2085-97-17 00:78:00:2037,0.009,0.039,0.994,0,0.061,-0.061,2.296,-0.483,-138.763,-48.5,-55.5,-19.687,30.12,0.35211,0.00305,-0.02023,-0.93567
 13:47:16.555,eb:33:2e:f9:57:b5, 2085-97-19 00:81:00:2040,0.009,0.039,0.996,0.061,0,-0.061,2.296,-0.483,-138.763,-48.5,-55.5,-19.687,30.12,0.35211,0.00305,-0.02023,-0.93567
 13:47:16.555,eb:33:2e:f9:57:b5, 2085-97-18 00:80:00:2036,0.007,0.041,0.995,0.061,0,-0.122,2.296,-0.483,-138.763,-48.5,-55.5,-19.687,30.12,0.35211,0.00305,-0.02023,-0.93567
 13:47:16.583,eb:33:2e:f9:57:b5, 2085-97-17 00:80:00:2038,0.01,0.039,0.994,0.122,-0.061,-0.061,2.296,-0.483,-138.757,-48.5,-55.5,-19.687,30.12,0.35211,0.00305,-0.02023,-0.93567
 13:47:16.583,eb:33:2e:f9:57:b5, 2085-97-19 00:83:00:2040,0.007,0.04,0.996,0.122,-0.061,-0.061,2.291,-0.483,-138.757,-48.5,-55.5,-19.687,30.12,0.35211,0.00305,-0.02023,-0.93567
 13:47:16.583,eb:33:2e:f9:57:b5, 2085-97-15 00:81:00:2039,0.009,0.04,0.996,0.061,-0.061,0,2.291,-0.483,-138.757,-48.5,-55.5,-19.687,30.12,0.35211,0.00305,-0.02023,-0.93567
 13:47:16.583,eb:33:2e:f9:57:b5, 2085-97-18 00:81:00:2038,0.008,0.039,0.996,0,-0.061,0.061,2.291,-0.483,-138.757,-48.5,-55.5,-19.687,30.12,0.35211,0.00305,-0.02023,-0.93567
 13:47:16.585,eb:33:2e:f9:57:b5, 2085-97-19 00:83:00:2040,0.009,0.04,0.996,0,-0.061,0.061,2.291,-0.483,-138.757,-48.5,-55.5,-19.687,30.12,0.35211,0.00305,-0.02023,-0.93567
 13:47:16.585,eb:33:2e:f9:57:b5, 2085-97-21 00:84:00:2042,0.01,0.04,0.997,-0.061,0,0.122,2.291,-0.483,-138.757,-48.5,-55.5,-19.687,30.12,0.35211,0.00305,-0.02023,-0.93567
 13:47:16.585,eb:33:2e:f9:57:b5, 2085-97-21 00:82:00:2039,0.01,0.041,0.996,-0.122,0,0.183,2.291,-0.483,-138.757,-48.5,-55.5,-19.687,30.12,0.35211,0.00305,-0.02023,-0.93567
 13:47:16.585,eb:33:2e:f9:57:b5, 2085-97-18 00:81:00:2038,0.008,0.041,0.995,-0.122,0.061,0.122,2.291,-0.489,-138.757,-48.5,-55.5,-19.687,30.12,0.35211,0.00305,-0.02023,-0.93567
 13:47:16.643,eb:33:2e:f9:57:b5, 2085-97-18 00:82:00:2038,0.008,0.039,0.994,-0.183,0,0.122,2.291,-0.489,-138.757,-48.5,-55.5,-19.687,30.12,0.35211,0.00305,-0.02023,-0.93567
 13:47:16.643,eb:33:2e:f9:57:b5, 2085-97-18 00:83:00:2038,0.008,0.04,0.995,-0.122,0,0.061,2.296,-0.489,-138.757,-48.5,-55.5,-19.687,30.12,0.35211,0.00305,-0.02023,-0.93567
 13:47:16.643,eb:33:2e:f9:57:b5, 2085-97-15 00:82:00:2035,0.008,0.04,0.995,-0.183,0,0,2.296,-0.489,-138.757,-48.5,-55.5,-19.687,30.12,0.35211,0.00305,-0.02023,-0.93567
 13:47:16.643,eb:33:2e:f9:57:b5, 2085-97-15 00:81:00:2033,0.009,0.04,0.994,-0.122,-0.061,0,2.296,-0.489,-138.757,-48.5,-55.5,-19.687,30.12,0.35211,0.00305,-0.02023,-0.93567
 13:47:16.703,eb:33:2e:f9:57:b5, 2085-97-17 00:81:00:2036,0.007,0.04,0.994,-0.122,-0.122,0,2.296,-0.489,-138.752,-48.5,-55.5,-19.687,30.12,0.35211,0.00305,-0.02023,-0.93567
 13:47:16.703,eb:33:2e:f9:57:b5, 2085-97-17 00:82:00:2036,0.009,0.04,0.993,-0.061,-0.244,0.061,2.296,-0.489,-138.752,-48.5,-55.5,-19.687,30.12,0.35211,0.00305,-0.02023,-0.93567
 13:47:16.703,eb:33:2e:f9:57:b5, 2085-97-17 00:82:00:2040,0.01,0.04,0.995,-0.122,-0.305,0.061,2.296,-0.489,-138.752,-48.5,-55.5,-19.687,30.12,0.35211,0.00305,-0.02023,-0.93567
 13:47:16.704,eb:33:2e:f9:57:b5, 2085-97-20 00:81:00:2042,0.009,0.04,0.997,-0.183,-0.183,0,2.296,-0.489,-138.752,-48.5,-55.5,-19.687,30.12,0.35211,0.00305,-0.02023,-0.93567
 13:47:16.705,eb:33:2e:f9:57:b5, 2085-97-19 00:81:00:2041,0.01,0.039,0.997,-0.183,-0.244,0.061,2.296,-0.489,-138.752,-48.5,-55.5,-19.687,30.12,0.35211,0.00305,-0.02023,-0.93567
 13:47:16.705,eb:33:2e:f9:57:b5, 2085-97-21 00:80:00:2041,0.009,0.04,0.997,-0.183,-0.122,0.061,2.296,-0.489,-138.752,-48.5,-55.5,-19.687,30.12,0.35211,0.00305,-0.02023,-0.93567
 13:47:16.705,eb:33:2e:f9:57:b5, 2085-97-21 00:81:00:2038,0.009,0.039,0.995,-0.183,-0.061,0.061,2.296,-0.489,-138.752,-48.5,-55.5,-19.687,30.12,0.35211,0.00305,-0.02023,-0.93567
 13:47:16.705,eb:33:2e:f9:57:b5, 2085-97-19 00:82:00:2035,0.007,0.039,0.995,-0.122,-0.061,0,2.296,-0.489,-138.752,-48.5,-55.5,-19.687,30.12,0.35211,0.00305,-0.02023,-0.93567
 13:47:16.764,eb:33:2e:f9:57:b5, 2085-97-19 00:78:00:2039,0.009,0.039,0.993,-0.183,-0.244,0,2.296,-0.489,-138.752,-49.4,-55.1,-21.487,30.12,0.35211,0.00305,-0.02023,-0.93567
 13:47:16.764,eb:33:2e:f9:57:b5, 2085-97-16 00:83:00:2037,0.007,0.041,0.995,-0.122,-0.122,0,2.296,-0.489,-138.752,-49.4,-55.1,-21.487,30.12,0.35211,0.00305,-0.02023,-0.93567
 13:47:16.764,eb:33:2e:f9:57:b5, 2085-97-17 00:81:00:2038,0.009,0.04,0.993,-0.183,-0.244,0,2.296,-0.489,-138.752,-49.4,-55.1,-21.487,30.12,0.35211,0.00305,-0.02023,-0.93567
 13:47:16.764,eb:33:2e:f9:57:b5, 2085-97-18 00:80:00:2039,0.01,0.038,0.995,-0.183,-0.244,0,2.291,-0.489,-138.752,-49.4,-55.1,-21.487,30.12,0.35211,0.00305,-0.02023,-0.93567
 13:47:16.793,eb:33:2e:f9:57:b5, 2085-97-19 00:77:00:2042,0.009,0.04,0.996,-0.183,-0.122,0,2.291,-0.489,-138.746,-49.4,-55.1,-21.487,30.12,0.3522,0.00305,-0.02023,-0.93564
 13:47:16.793,eb:33:2e:f9:57:b5, 2085-97-20 00:81:00:2039,0.008,0.038,0.997,-0.305,-0.122,0,2.291,-0.489,-138.746,-49.4,-55.1,-21.487,30.12,0.3522,0.00305,-0.02023,-0.93564
 13:47:16.793,eb:33:2e:f9:57:b5, 2085-97-17 00:78:00:2035,0.009,0.04,0.994,-0.244,-0.061,0,2.291,-0.489,-138.746,-49.4,-55.1,-21.487,30.12,0.3522,0.00305,-0.02023,-0.93564
 13:47:16.794,eb:33:2e:f9:57:b5, 2085-97-19 00:82:00:2038,0.009,0.039,0.994,-0.244,-0.183,-0.061,2.291,-0.489,-138.746,-49.4,-55.1,-21.487,30.12,0.3522,0.00305,-0.02023,-0.93564
 13:47:16.854,eb:33:2e:f9:57:b5, 2085-97-20 00:80:00:2040,0.01,0.039,0.996,-0.244,-0.122,0,2.291,-0.489,-138.746,-49.4,-55.1,-21.487,30.12,0.3522,0.00305,-0.02023,-0.93564
 13:47:16.855,eb:33:2e:f9:57:b5, 2085-97-19 00:80:00:2040,0.01,0.039,0.995,-0.305,-0.183,-0.061,2.291,-0.489,-138.746,-49.4,-55.1,-21.487,30.12,0.3522,0.00305,-0.02023,-0.93564
 13:47:16.855,eb:33:2e:f9:57:b5, 2085-97-25 00:80:00:2045,0.009,0.039,0.997,-0.244,-0.183,0,2.291,-0.489,-138.746,-49.4,-55.1,-21.487,30.12,0.3522,0.00305,-0.02023,-0.93564
 13:47:16.855,eb:33:2e:f9:57:b5, 2085-97-17 00:80:00:2037,0.009,0.039,0.997,-0.183,-0.061,0,2.291,-0.489,-138.746,-49.4,-55.1,-21.487,30.12,0.3522,0.00305,-0.02023,-0.93564
 13:47:16.883,eb:33:2e:f9:57:b5, 2085-97-18 00:80:00:2041,0.01,0.041,0.995,-0.183,-0.122,0.061,2.291,-0.489,-138.746,-49.4,-55.1,-21.487,30.12,0.3522,0.00305,-0.02023,-0.93564
 13:47:16.883,eb:33:2e:f9:57:b5, 2085-97-18 00:78:00:2039,0.009,0.039,0.997,-0.183,-0.122,0,2.291,-0.489,-138.746,-49.4,-55.1,-21.487,30.12,0.3522,0.00305,-0.02023,-0.93564
 13:47:16.883,eb:33:2e:f9:57:b5, 2085-97-20 00:77:00:2040,0.01,0.038,0.995,-0.122,-0.183,0,2.291,-0.489,-138.746,-49.4,-55.1,-21.487,30.12,0.3522,0.00305,-0.02023,-0.93564
 13:47:16.883,eb:33:2e:f9:57:b5, 2085-97-20 00:76:00:2042,0.011,0.036,0.997,0,-0.244,0.061,2.291,-0.489,-138.746,-49.4,-55.1,-21.487,30.12,0.3522,0.00305,-0.02023,-0.93564
 13:47:16.913,eb:33:2e:f9:57:b5, 2085-97-23 00:79:00:2042,0.01,0.038,0.997,0.061,-0.244,0.061,2.291,-0.489,-138.746,-49.4,-55.1,-21.487,30.12,0.3522,0.00305,-0.02023,-0.93564
 13:47:16.913,eb:33:2e:f9:57:b5, 2085-97-18 00:81:00:2042,0.008,0.039,0.997,0.061,-0.244,0.122,2.291,-0.489,-138.746,-49.4,-55.1,-21.487,30.12,0.3522,0.00305,-0.02023,-0.93564
 13:47:16.913,eb:33:2e:f9:57:b5, 2085-97-19 00:79:00:2039,0.011,0.039,0.997,0.061,-0.183,0.122,2.291,-0.489,-138.741,-49.4,-55.1,-21.487,30.12,0.3522,0.00305,-0.02023,-0.93564
 13:47:16.913,eb:33:2e:f9:57:b5, 2085-97-22 00:81:00:2039,0.009,0.039,0.997,0,-0.122,0.122,2.291,-0.489,-138.741,-49.4,-55.1,-21.487,30.12,0.3522,0.00305,-0.02023,-0.93564
 13:47:16.974,eb:33:2e:f9:57:b5, 2085-97-17 00:82:00:2037,0.008,0.04,0.994,-0.061,-0.122,0.183,2.291,-0.489,-138.741,-49.4,-55.1,-21.487,30.12,0.3522,0.00305,-0.02023,-0.93564
 13:47:16.974,eb:33:2e:f9:57:b5, 2085-97-16 00:75:00:2038,0.01,0.038,0.995,-0.122,-0.122,0.122,2.291,-0.489,-138.741,-49.4,-55.1,-21.487,30.12,0.3522,0.00305,-0.02023,-0.93564
 13:47:16.974,eb:33:2e:f9:57:b5, 2085-97-20 00:78:00:2040,0.009,0.038,0.995,-0.061,-0.244,0.122,2.291,-0.489,-138.741,-49.4,-55.1,-21.487,30.12,0.3522,0.00305,-0.02023,-0.93564
 13:47:16.974,eb:33:2e:f9:57:b5, 2085-97-17 00:78:00:2036,0.009,0.039,0.995,0,-0.244,0.305,2.291,-0.489,-138.741,-49.4,-55.1,-21.487,30.12,0.3522,0.00305,-0.02023,-0.93564
 13:47:16.974,eb:33:2e:f9:57:b5, 2085-97-17 00:75:00:2037,0.008,0.037,0.995,0,-0.305,0.244,2.291,-0.489,-138.741,-49.4,-55.1,-21.487,30.12,0.3522,0.00305,-0.02023,-0.93564
 13:47:17.004,eb:33:2e:f9:57:b5, 2085-113-58 00:225:226:-8205,0.008,0.038,0.994,0,-0.366,0.366,2.291,-0.489,-138.741,-49.7,-54.7,-20.88,30.12,0.3522,0.00305,-0.02023,-0.93564
 13:47:17.004,eb:33:2e:f9:57:b5, 2085-97-19 00:78:00:2036,0.01,0.039,0.994,0,-0.427,0.305,2.291,-0.489,-138.741,-49.7,-54.7,-20.88,30.12,0.3522,0.00305,-0.02023,-0.93564
 13:47:17.004,eb:33:2e:f9:57:b5, 2085-97-21 00:82:00:2038,0.009,0.039,0.994,0,-0.488,0.305,2.291,-0.489,-138.741,-49.7,-54.7,-20.88,30.12,0.3522,0.00305,-0.02023,-0.93564
 13:47:17.004,eb:33:2e:f9:57:b5, 2085-97-21 00:78:00:2041,0.011,0.038,0.995,0,-0.488,0.244,2.291,-0.494,-138.741,-49.7,-54.7,-20.88,30.12,0.3522,0.00305,-0.02023,-0.93564
 13:47:17.034,eb:33:2e:f9:57:b5, 2085-97-25 00:80:00:2045,0.012,0.04,0.998,0,-0.488,0.244,2.291,-0.494,-138.741,-49.7,-54.7,-20.88,30.12,0.3522,0.00305,-0.02023,-0.93564
 13:47:17.034,eb:33:2e:f9:57:b5, 2085-97-24 00:79:00:2046,0.012,0.039,0.999,0,-0.244,0.244,2.291,-0.494,-138.741,-49.7,-54.7,-20.88,30.12,0.3522,0.00305,-0.02023,-0.93564
 13:47:17.034,eb:33:2e:f9:57:b5, 2085-97-21 00:80:00:2042,0.009,0.038,0.999,0.061,-0.122,0.366,2.291,-0.494,-138.741,-49.7,-54.7,-20.88,30.12,0.3522,0.00305,-0.02023,-0.93564
 13:47:17.035,eb:33:2e:f9:57:b5, 2085-97-19 00:83:00:2035,0.01,0.041,0.996,0,-0.061,0.366,2.291,-0.494,-138.741,-49.7,-54.7,-20.88,30.12,0.3522,0.00305,-0.02023,-0.93564
 13:47:17.093,eb:33:2e:f9:57:b5, 2085-97-21 00:78:00:2036,0.011,0.039,0.995,0,-0.122,0.244,2.291,-0.494,-138.735,-49.7,-54.7,-20.88,30.12,0.35229,0.00299,-0.02023,-0.93561
 13:47:17.093,eb:33:2e:f9:57:b5, 2085-97-20 00:80:00:2036,0.009,0.039,0.995,-0.061,-0.122,0.244,2.291,-0.494,-138.735,-49.7,-54.7,-20.88,30.12,0.35229,0.00299,-0.02023,-0.93561
 13:47:17.093,eb:33:2e:f9:57:b5, 2085-97-20 00:79:00:2036,0.01,0.039,0.995,-0.061,-0.122,0.183,2.291,-0.494,-138.735,-49.7,-54.7,-20.88,30.12,0.35229,0.00299,-0.02023,-0.93561
 13:47:17.093,eb:33:2e:f9:57:b5, 2085-97-20 00:79:00:2038,0.01,0.038,0.995,0,-0.061,0.061,2.291,-0.494,-138.735,-49.7,-54.7,-20.88,30.12,0.35229,0.00299,-0.02023,-0.93561
 13:47:17.124,eb:33:2e:f9:57:b5, 2085-97-20 00:80:00:2038,0.011,0.039,0.995,0,-0.122,0.061,2.291,-0.494,-138.735,-49.7,-54.7,-20.88,30.12,0.35229,0.00299,-0.02023,-0.93561
 13:47:17.124,eb:33:2e:f9:57:b5, 2085-97-21 00:78:00:2041,0.013,0.038,0.996,0,-0.183,0.061,2.291,-0.494,-138.735,-49.7,-54.7,-20.88,30.12,0.35229,0.00299,-0.02023,-0.93561
 13:47:17.124,eb:33:2e:f9:57:b5, 2085-97-22 00:76:00:2042,0.01,0.039,0.998,0.061,-0.061,0.122,2.291,-0.494,-138.735,-49.7,-54.7,-20.88,30.12,0.35229,0.00299,-0.02023,-0.93561
 13:47:17.124,eb:33:2e:f9:57:b5, 2085-97-22 00:78:00:2041,0.01,0.038,0.997,0.122,-0.061,0.122,2.291,-0.494,-138.735,-49.7,-54.7,-20.88,30.12,0.35229,0.00299,-0.02023,-0.93561
 13:47:17.153,eb:33:2e:f9:57:b5, 2085-97-18 00:81:00:2037,0.01,0.039,0.995,0.122,-0.061,0.061,2.291,-0.494,-138.735,-49.7,-54.7,-20.88,30.12,0.35229,0.00299,-0.02023,-0.93561
 13:47:17.153,eb:33:2e:f9:57:b5, 2085-97-21 00:80:00:2040,0.01,0.039,0.996,0.122,-0.061,0.122,2.285,-0.494,-138.735,-49.7,-54.7,-20.88,30.12,0.35229,0.00299,-0.02023,-0.93561
 13:47:17.153,eb:33:2e:f9:57:b5, 2085-97-21 00:79:00:2040,0.011,0.039,0.997,0.061,0,0.183,2.285,-0.494,-138.735,-49.7,-54.7,-20.88,30.12,0.35229,0.00299,-0.02023,-0.93561
 13:47:17.153,eb:33:2e:f9:57:b5, 2085-97-24 00:80:00:2043,0.012,0.039,0.997,0.061,0,0.122,2.285,-0.494,-138.735,-49.7,-54.7,-20.88,30.12,0.35229,0.00299,-0.02023,-0.93561
 13:47:17.214,eb:33:2e:f9:57:b5, 2085-97-20 00:78:00:2040,0.01,0.039,0.997,0,0.122,0.183,2.285,-0.494,-138.735,-49.7,-54.7,-20.88,30.12,0.35229,0.00299,-0.02023,-0.93561
 13:47:17.214,eb:33:2e:f9:57:b5, 2085-97-21 00:81:00:2041,0.01,0.039,0.996,0.061,0.244,0.122,2.285,-0.5,-138.735,-49.7,-54.7,-20.88,30.12,0.35229,0.00299,-0.02023,-0.93561
 13:47:17.214,eb:33:2e:f9:57:b5, 2085-97-19 00:80:00:2039,0.009,0.039,0.997,0.061,0.305,0.061,2.285,-0.5,-138.73,-49.7,-54.7,-20.88,30.12,0.35229,0.00299,-0.02023,-0.93561
 13:47:17.214,eb:33:2e:f9:57:b5, 2085-97-19 00:79:00:2039,0.009,0.039,0.996,0.122,0.183,0.061,2.285,-0.5,-138.73,-49.7,-54.7,-20.88,30.12,0.35229,0.00299,-0.02023,-0.93561
 13:47:17.244,eb:33:2e:f9:57:b5, 2085-97-20 00:80:00:2040,0.01,0.039,0.995,0.183,0.183,0.183,2.285,-0.5,-138.73,-49.7,-54.7,-20.88,30.12,0.35229,0.00299,-0.02023,-0.93561
 13:47:17.244,eb:33:2e:f9:57:b5, 2085-97-21 00:79:00:2039,0.011,0.04,0.996,0.122,0.183,0.061,2.285,-0.5,-138.73,-49.7,-54.7,-20.88,30.12,0.35229,0.00299,-0.02023,-0.93561
 13:47:17.244,eb:33:2e:f9:57:b5, 2085-97-21 00:79:00:2039,0.011,0.038,0.996,0.183,0.122,0,2.285,-0.5,-138.73,-49.7,-54.7,-20.88,30.12,0.35229,0.00299,-0.02023,-0.93561
 13:47:17.244,eb:33:2e:f9:57:b5, 2085-97-18 00:81:00:2035,0.008,0.04,0.995,0.183,0.244,0,2.285,-0.5,-138.73,-49.7,-54.7,-20.88,30.12,0.35229,0.00299,-0.02023,-0.93561
 13:47:17.275,eb:33:2e:f9:57:b5, 2085-97-18 00:82:00:2036,0.01,0.04,0.994,0.183,0.122,0,2.285,-0.5,-138.73,-48.9,-55.2,-20.68,30.12,0.35229,0.00299,-0.02023,-0.93561
 13:47:17.275,eb:33:2e:f9:57:b5, 2085-97-20 00:81:00:2036,0.009,0.04,0.994,0.122,0.122,-0.122,2.285,-0.5,-138.73,-48.9,-55.2,-20.68,30.12,0.35229,0.00299,-0.02023,-0.93561
 13:47:17.275,eb:33:2e:f9:57:b5, 2085-97-17 00:79:00:2036,0.009,0.04,0.994,0.061,0.122,-0.305,2.285,-0.5,-138.73,-48.9,-55.2,-20.68,30.12,0.35229,0.00299,-0.02023,-0.93561
 13:47:17.275,eb:33:2e:f9:57:b5, 2085-97-16 00:81:00:2034,0.009,0.039,0.994,0.183,0.061,-0.305,2.285,-0.5,-138.73,-48.9,-55.2,-20.68,30.12,0.35229,0.00299,-0.02023,-0.93561
 13:47:17.334,eb:33:2e:f9:57:b5, 2085-97-23 00:80:00:2042,0.01,0.04,0.996,0.183,-0.061,-0.183,2.285,-0.5,-138.73,-48.9,-55.2,-20.68,30.12,0.35229,0.00299,-0.02023,-0.93561
 13:47:17.334,eb:33:2e:f9:57:b5, 2085-97-20 00:81:00:2037,0.01,0.039,0.996,0.183,-0.061,-0.061,2.285,-0.5,-138.73,-48.9,-55.2,-20.68,30.12,0.35229,0.00299,-0.02023,-0.93561
 13:47:17.334,eb:33:2e:f9:57:b5, 2085-97-19 00:83:00:2040,0.01,0.039,0.995,0.183,-0.061,-0.122,2.285,-0.5,-138.73,-48.9,-55.2,-20.68,30.12,0.35229,0.00299,-0.02023,-0.93561
 13:47:17.334,eb:33:2e:f9:57:b5, 2085-97-22 00:81:00:2045,0.011,0.041,0.998,0.122,-0.061,-0.122,2.285,-0.5,-138.73,-48.9,-55.2,-20.68,30.12,0.35229,0.00299,-0.02023,-0.93561
 13:47:17.363,eb:33:2e:f9:57:b5, 2085-97-22 00:80:00:2048,0.011,0.039,1,0.122,0.061,-0.122,2.285,-0.5,-138.724,-48.9,-55.2,-20.68,30.12,0.35239,0.00293,-0.02023,-0.93558
 13:47:17.363,eb:33:2e:f9:57:b5, 2085-97-23 00:82:00:2042,0.009,0.039,0.998,0.244,0.122,-0.061,2.285,-0.5,-138.724,-48.9,-55.2,-20.68,30.12,0.35239,0.00293,-0.02023,-0.93558
 13:47:17.363,eb:33:2e:f9:57:b5, 2085-97-16 00:79:00:2036,0.008,0.039,0.995,0.183,0.183,-0.061,2.285,-0.5,-138.724,-48.9,-55.2,-20.68,30.12,0.35239,0.00293,-0.02023,-0.93558
 13:47:17.363,eb:33:2e:f9:57:b5, 2085-97-21 00:82:00:2041,0.01,0.038,0.995,0.244,0.061,-0.183,2.285,-0.5,-138.724,-48.9,-55.2,-20.68,30.12,0.35239,0.00293,-0.02023,-0.93558
 13:47:17.394,eb:33:2e:f9:57:b5, 2085-97-17 00:80:00:2037,0.01,0.04,0.997,0.244,0.122,-0.183,2.285,-0.5,-138.724,-48.9,-55.2,-20.68,30.12,0.35239,0.00293,-0.02023,-0.93558
 13:47:17.394,eb:33:2e:f9:57:b5, 2085-97-20 00:83:00:2037,0.009,0.04,0.996,0.244,0.061,-0.183,2.285,-0.5,-138.724,-48.9,-55.2,-20.68,30.12,0.35239,0.00293,-0.02023,-0.93558
 13:47:17.394,eb:33:2e:f9:57:b5, 2085-97-19 00:84:00:2037,0.009,0.04,0.995,0.183,0.122,-0.183,2.285,-0.5,-138.724,-48.9,-55.2,-20.68,30.12,0.35239,0.00293,-0.02023,-0.93558
 13:47:17.394,eb:33:2e:f9:57:b5, 2085-97-18 00:83:00:2044,0.012,0.042,0.997,0.061,0.244,-0.244,2.285,-0.5,-138.724,-48.9,-55.2,-20.68,30.12,0.35239,0.00293,-0.02023,-0.93558
 13:47:17.453,eb:33:2e:f9:57:b5, 2085-97-27 00:83:00:2042,0.003,0.041,0.997,0,0.305,-0.183,2.285,-0.5,-138.724,-48.9,-55.2,-20.68,30.12,0.35239,0.00293,-0.02023,-0.93558
 13:47:17.453,eb:33:2e:f9:57:b5, 2085-97-17 00:80:00:2038,0.009,0.037,0.992,0,0.244,-0.061,2.285,-0.505,-138.724,-48.9,-55.2,-20.68,30.12,0.35239,0.00293,-0.02023,-0.93558
 13:47:17.453,eb:33:2e:f9:57:b5, 2085-97-20 00:82:00:2040,0.008,0.039,0.995,0,0.183,-0.061,2.285,-0.505,-138.724,-48.9,-55.2,-20.68,30.12,0.35239,0.00293,-0.02023,-0.93558
 13:47:17.453,eb:33:2e:f9:57:b5, 2085-97-16 00:81:00:2038,0.009,0.04,0.995,0,0.183,0,2.285,-0.505,-138.724,-48.9,-55.2,-20.68,30.12,0.35239,0.00293,-0.02023,-0.93558
 13:47:17.484,eb:33:2e:f9:57:b5, 2085-97-18 00:83:00:2036,0.009,0.039,0.995,0,0.061,0,2.285,-0.505,-138.724,-48.9,-55.2,-20.68,30.12,0.35239,0.00293,-0.02023,-0.93558
 13:47:17.484,eb:33:2e:f9:57:b5, 2085-97-15 00:79:00:2036,0.007,0.041,0.995,0,0.183,0,2.285,-0.505,-138.724,-48.9,-55.2,-20.68,30.12,0.35239,0.00293,-0.02023,-0.93558
 13:47:17.484,eb:33:2e:f9:57:b5, 2085-97-16 00:80:00:2038,0.009,0.04,0.994,0.061,0,0.061,2.285,-0.505,-138.724,-48.9,-55.2,-20.68,30.12,0.35239,0.00293,-0.02023,-0.93558
 13:47:17.484,eb:33:2e:f9:57:b5, 2085-97-20 00:79:00:2043,0.009,0.04,0.998,0.061,0,0,2.285,-0.505,-138.719,-48.9,-55.2,-20.68,30.12,0.35239,0.00293,-0.02023,-0.93558
 13:47:17.514,eb:33:2e:f9:57:b5, 2085-97-18 00:80:00:2040,0.009,0.039,0.996,0.122,0,0.061,2.285,-0.505,-138.719,-48.9,-55.2,-20.68,30.12,0.35239,0.00293,-0.02023,-0.93558
 13:47:17.514,eb:33:2e:f9:57:b5, 2085-97-20 00:82:00:2041,0.011,0.04,0.996,0.122,-0.061,0.061,2.285,-0.505,-138.719,-48.9,-55.2,-20.68,30.12,0.35239,0.00293,-0.02023,-0.93558
 13:47:17.514,eb:33:2e:f9:57:b5, 2085-97-20 00:81:00:2039,0.009,0.04,0.997,0.183,0,0.061,2.285,-0.505,-138.719,-48.9,-55.2,-20.68,30.12,0.35239,0.00293,-0.02023,-0.93558
 13:47:17.514,eb:33:2e:f9:57:b5, 2085-97-18 00:85:00:2037,0.01,0.04,0.996,0.122,0.061,0,2.285,-0.505,-138.719,-48.9,-55.2,-20.68,30.12,0.35239,0.00293,-0.02023,-0.93558
 13:47:17.575,eb:33:2e:f9:57:b5, 2085-97-20 00:85:00:2037,0.009,0.042,0.995,0.061,0.061,0,2.285,-0.505,-138.719,-48.9,-55.2,-20.68,30.12,0.35239,0.00293,-0.02023,-0.93558
 13:47:17.575,eb:33:2e:f9:57:b5, 2085-113-58 00:240:226:-8415,0.008,0.042,0.994,0,0.061,-0.061,2.285,-0.505,-138.719,-48.9,-55.2,-20.68,30.12,0.35239,0.00293,-0.02023,-0.93558
 13:47:17.575,eb:33:2e:f9:57:b5, 2085-97-17 00:83:00:2035,0.007,0.041,0.994,0,0.061,-0.122,2.285,-0.505,-138.719,-48.9,-55.2,-20.68,30.12,0.35239,0.00293,-0.02023,-0.93558
 13:47:17.575,eb:33:2e:f9:57:b5, 2085-97-18 00:82:00:2037,0.009,0.04,0.994,0,0,-0.061,2.285,-0.505,-138.719,-48.9,-55.2,-20.68,30.12,0.35239,0.00293,-0.02023,-0.93558
 13:47:17.693,eb:33:2e:f9:57:b5, 2085-97-19 00:82:00:2039,0.009,0.041,0.996,0,0,-0.122,2.285,-0.505,-138.719,-49.6,-56.1,-16.72,30.12,0.35239,0.00293,-0.02023,-0.93558
 13:47:17.693,eb:33:2e:f9:57:b5, 2085-97-22 00:82:00:2044,0.009,0.04,0.997,0,0,-0.061,2.285,-0.505,-138.719,-49.6,-56.1,-16.72,30.12,0.35239,0.00293,-0.02023,-0.93558
 13:47:17.693,eb:33:2e:f9:57:b5, 2085-97-15 00:81:00:2041,0.008,0.04,0.998,0,0.061,-0.122,2.285,-0.505,-138.719,-49.6,-56.1,-16.72,30.12,0.35239,0.00293,-0.02023,-0.93558
 13:47:17.693,eb:33:2e:f9:57:b5, 2085-97-16 00:82:00:2040,0.008,0.04,0.997,0,0.061,0,2.285,-0.505,-138.719,-49.6,-56.1,-16.72,30.12,0.35239,0.00293,-0.02023,-0.93558
 13:47:17.697,eb:33:2e:f9:57:b5, 2085-97-19 00:80:00:2041,0.011,0.039,0.996,0,0,0.061,2.285,-0.505,-138.719,-49.6,-56.1,-16.72,30.12,0.35239,0.00293,-0.02023,-0.93558
 13:47:17.697,eb:33:2e:f9:57:b5, 2085-97-17 00:81:00:2041,0.007,0.041,0.999,0,0.061,0.061,2.285,-0.505,-138.719,-49.6,-56.1,-16.72,30.12,0.35239,0.00293,-0.02023,-0.93558
 13:47:17.697,eb:33:2e:f9:57:b5, 2085-97-17 00:82:00:2040,0.009,0.04,0.995,0,0,0.122,2.285,-0.505,-138.713,-49.6,-56.1,-16.72,30.12,0.35239,0.00293,-0.02023,-0.93558
 13:47:17.697,eb:33:2e:f9:57:b5, 2085-97-18 00:81:00:2039,0.009,0.039,0.997,0.061,0,0.122,2.285,-0.505,-138.713,-49.6,-56.1,-16.72,30.12,0.35239,0.00293,-0.02023,-0.93558
 13:47:17.699,eb:33:2e:f9:57:b5, 2085-97-18 00:84:00:2037,0.008,0.041,0.995,0.061,0,0.122,2.285,-0.505,-138.713,-49.6,-56.1,-16.72,30.12,0.35248,0.0029,-0.02023,-0.93555
 13:47:17.699,eb:33:2e:f9:57:b5, 2085-97-17 00:84:00:2033,0.008,0.041,0.993,0,0,0.061,2.285,-0.505,-138.713,-49.6,-56.1,-16.72,30.12,0.35248,0.0029,-0.02023,-0.93555
 13:47:17.699,eb:33:2e:f9:57:b5, 2085-97-14 00:82:00:2034,0.009,0.041,0.994,0,0,0,2.285,-0.505,-138.713,-49.6,-56.1,-16.72,30.12,0.35248,0.0029,-0.02023,-0.93555
 13:47:17.700,eb:33:2e:f9:57:b5, 2085-97-19 00:84:00:2038,0.009,0.041,0.995,0,0,0,2.285,-0.505,-138.713,-49.6,-56.1,-16.72,30.12,0.35248,0.0029,-0.02023,-0.93555
 13:47:17.724,eb:33:2e:f9:57:b5, 2085-97-16 00:81:00:2038,0.009,0.042,0.995,-0.061,0.061,0,2.285,-0.505,-138.713,-49.6,-56.1,-16.72,30.12,0.35248,0.0029,-0.02023,-0.93555
 13:47:17.724,eb:33:2e:f9:57:b5, 2085-97-17 00:81:00:2037,0.008,0.04,0.996,-0.061,0,0,2.285,-0.505,-138.713,-49.6,-56.1,-16.72,30.12,0.35248,0.0029,-0.02023,-0.93555
 13:47:17.724,eb:33:2e:f9:57:b5, 2085-97-16 00:82:00:2036,0.008,0.041,0.995,-0.061,0,0,2.285,-0.505,-138.713,-49.6,-56.1,-16.72,30.12,0.35248,0.0029,-0.02023,-0.93555
 13:47:17.724,eb:33:2e:f9:57:b5, 2085-97-19 00:83:00:2035,0.008,0.04,0.994,-0.122,0,0,2.285,-0.505,-138.713,-49.6,-56.1,-16.72,30.12,0.35248,0.0029,-0.02023,-0.93555
 13:47:17.754,eb:33:2e:f9:57:b5, 2085-97-16 00:83:00:2032,0.007,0.041,0.994,-0.122,0,-0.122,2.285,-0.505,-138.713,-49.6,-56.1,-16.72,30.12,0.35248,0.0029,-0.02023,-0.93555
 13:47:17.754,eb:33:2e:f9:57:b5, 2085-97-16 00:82:00:2034,0.009,0.04,0.993,-0.061,-0.061,-0.061,2.285,-0.505,-138.713,-49.6,-56.1,-16.72,30.12,0.35248,0.0029,-0.02023,-0.93555
 13:47:17.754,eb:33:2e:f9:57:b5, 2085-97-17 00:82:00:2036,0.007,0.04,0.994,0,-0.122,-0.183,2.285,-0.505,-138.713,-49.6,-56.1,-16.72,30.12,0.35248,0.0029,-0.02023,-0.93555
 13:47:17.754,eb:33:2e:f9:57:b5, 2085-97-14 00:83:00:2035,0.009,0.04,0.993,0,-0.183,-0.183,2.291,-0.505,-138.713,-49.6,-56.1,-16.72,30.12,0.35248,0.0029,-0.02023,-0.93555
 13:47:17.813,eb:33:2e:f9:57:b5, 2085-97-20 00:82:00:2040,0.01,0.04,0.995,0,-0.305,-0.244,2.291,-0.505,-138.708,-49.6,-56.1,-16.72,30.12,0.35248,0.0029,-0.02023,-0.93555
 13:47:17.813,eb:33:2e:f9:57:b5, 2085-97-22 00:82:00:2046,0.01,0.04,0.998,0,-0.244,-0.183,2.291,-0.505,-138.708,-49.6,-56.1,-16.72,30.12,0.35248,0.0029,-0.02023,-0.93555
 13:47:17.813,eb:33:2e:f9:57:b5, 2085-97-20 00:80:00:2045,0.012,0.04,0.999,0,-0.122,-0.183,2.291,-0.505,-138.708,-49.6,-56.1,-16.72,30.12,0.35248,0.0029,-0.02023,-0.93555
 13:47:17.813,eb:33:2e:f9:57:b5, 2085-97-23 00:80:00:2047,0.009,0.04,1,0,0,-0.061,2.291,-0.505,-138.708,-49.6,-56.1,-16.72,30.12,0.35248,0.0029,-0.02023,-0.93555
 13:47:17.844,eb:33:2e:f9:57:b5, 2085-97-20 00:82:00:2047,0.01,0.039,0.999,0,0,0,2.291,-0.505,-138.708,-49.6,-56.1,-16.72,30.12,0.35248,0.0029,-0.02023,-0.93555
 13:47:17.844,eb:33:2e:f9:57:b5, 2085-97-21 00:82:00:2047,0.01,0.04,1,0,0.122,0.061,2.291,-0.505,-138.708,-49.6,-56.1,-16.72,30.12,0.35248,0.0029,-0.02023,-0.93555
 13:47:17.844,eb:33:2e:f9:57:b5, 2085-97-18 00:84:00:2045,0.009,0.041,0.999,0,0.244,0.122,2.291,-0.505,-138.708,-49.6,-56.1,-16.72,30.12,0.35248,0.0029,-0.02023,-0.93555
 13:47:17.844,eb:33:2e:f9:57:b5, 2085-97-21 00:83:00:2041,0.009,0.041,0.997,0,0.244,0.244,2.291,-0.505,-138.708,-49.6,-56.1,-16.72,30.12,0.35248,0.0029,-0.02023,-0.93555
 13:47:17.874,eb:33:2e:f9:57:b5, 2085-97-18 00:84:00:2039,0.006,0.041,0.997,-0.061,0.366,0.244,2.291,-0.505,-138.708,-49.6,-56.1,-16.72,30.12,0.35248,0.0029,-0.02023,-0.93555
 13:47:17.874,eb:33:2e:f9:57:b5, 2085-97-20 00:84:00:2042,0.009,0.04,0.994,-0.061,0.305,0.183,2.291,-0.505,-138.708,-49.6,-56.1,-16.72,30.12,0.35248,0.0029,-0.02023,-0.93555
 13:47:17.874,eb:33:2e:f9:57:b5, 2085-97-19 00:82:00:2038,0.007,0.04,0.996,-0.061,0.488,0.183,2.291,-0.505,-138.708,-49.6,-56.1,-16.72,30.12,0.35248,0.0029,-0.02023,-0.93555
 13:47:17.874,eb:33:2e:f9:57:b5, 2085-97-13 00:83:00:2034,0.006,0.04,0.994,-0.122,0.488,0.122,2.291,-0.505,-138.708,-49.6,-56.1,-16.72,30.12,0.35248,0.0029,-0.02023,-0.93555
 13:47:17.934,eb:33:2e:f9:57:b5, 2085-97-14 00:83:00:2035,0.007,0.04,0.994,-0.122,0.366,0.122,2.291,-0.505,-138.708,-49.6,-56.1,-16.72,30.12,0.35248,0.0029,-0.02023,-0.93555
 13:47:17.934,eb:33:2e:f9:57:b5, 2085-97-14 00:85:00:2035,0.008,0.041,0.992,-0.183,0.305,0.183,2.291,-0.505,-138.708,-49.6,-56.1,-16.72,30.12,0.35248,0.0029,-0.02023,-0.93555
 13:47:17.934,eb:33:2e:f9:57:b5, 2085-97-15 00:75:00:2037,0.006,0.04,0.995,-0.122,0.305,0,2.291,-0.505,-138.708,-49.6,-56.1,-16.72,30.12,0.35248,0.0029,-0.02023,-0.93555
 13:47:17.934,eb:33:2e:f9:57:b5, 2085-97-09 00:82:00:2030,0.004,0.041,0.992,-0.061,0.244,0,2.291,-0.505,-138.708,-49.6,-56.1,-16.72,30.12,0.35248,0.0029,-0.02023,-0.93555
 13:47:17.963,eb:33:2e:f9:57:b5, 2085-97-14 00:78:00:2034,0.009,0.039,0.991,-0.061,-0.061,0,2.291,-0.505,-138.702,-49.8,-56.2,-19.527,30.12,0.35248,0.0029,-0.02023,-0.93555
 13:47:17.963,eb:33:2e:f9:57:b5, 2085-97-16 00:82:00:2036,0.008,0.039,0.995,0,-0.122,0,2.291,-0.505,-138.702,-49.8,-56.2,-19.527,30.12,0.35248,0.0029,-0.02023,-0.93555
 13:47:17.963,eb:33:2e:f9:57:b5, 2085-97-13 00:81:00:2037,0.007,0.041,0.994,0,-0.122,-0.061,2.291,-0.505,-138.702,-49.8,-56.2,-19.527,30.12,0.35248,0.0029,-0.02023,-0.93555
 13:47:17.963,eb:33:2e:f9:57:b5, 2085-97-16 00:81:00:2039,0.008,0.039,0.994,0,-0.244,-0.061,2.291,-0.505,-138.702,-49.8,-56.2,-19.527,30.12,0.35248,0.0029,-0.02023,-0.93555
 13:47:17.994,eb:33:2e:f9:57:b5, 2085-97-18 00:82:00:2039,0.009,0.039,0.996,0,-0.244,0,2.291,-0.505,-138.702,-49.8,-56.2,-19.527,30.12,0.35248,0.0029,-0.02023,-0.93555
 13:47:17.994,eb:33:2e:f9:57:b5, 2085-97-20 00:84:00:2042,0.011,0.041,0.996,0,-0.183,0,2.291,-0.505,-138.702,-49.8,-56.2,-19.527,30.12,0.35248,0.0029,-0.02023,-0.93555
 13:47:17.994,eb:33:2e:f9:57:b5, 2085-97-17 00:82:00:2039,0.01,0.042,0.997,0,0,-0.122,2.291,-0.505,-138.702,-49.8,-56.2,-19.527,30.12,0.35248,0.0029,-0.02023,-0.93555
 13:47:17.994,eb:33:2e:f9:57:b5, 2085-97-18 00:79:00:2043,0.009,0.04,0.999,0,0,-0.061,2.291,-0.505,-138.702,-49.8,-56.2,-19.527,30.12,0.35248,0.0029,-0.02023,-0.93555
 13:47:18.054,eb:33:2e:f9:57:b5, 2085-97-19 00:83:00:2044,0.01,0.04,0.998,0,0,0,2.291,-0.505,-138.702,-49.8,-56.2,-19.527,30.12,0.3526,0.0029,-0.02026,-0.93549
 13:47:18.054,eb:33:2e:f9:57:b5, 2085-97-20 00:80:00:2043,0.008,0.04,0.998,0,0.183,0,2.291,-0.505,-138.702,-49.8,-56.2,-19.527,30.12,0.3526,0.0029,-0.02026,-0.93549
 13:47:18.054,eb:33:2e:f9:57:b5, 2085-97-15 00:80:00:2040,0.008,0.04,0.997,0,0.183,0,2.291,-0.505,-138.702,-49.8,-56.2,-19.527,30.12,0.3526,0.0029,-0.02026,-0.93549
 13:47:18.054,eb:33:2e:f9:57:b5, 2085-97-15 00:81:00:2040,0.007,0.04,0.997,0,0.122,0,2.291,-0.505,-138.702,-49.8,-56.2,-19.527,30.12,0.3526,0.0029,-0.02026,-0.93549
 13:47:18.084,eb:33:2e:f9:57:b5, 2085-97-08 00:78:00:2034,0.004,0.039,0.994,0,0,0.061,2.291,-0.505,-138.702,-49.8,-56.2,-19.527,30.12,0.3526,0.0029,-0.02026,-0.93549
 13:47:18.084,eb:33:2e:f9:57:b5, 2085-97-18 00:83:00:2039,0.008,0.039,0.994,0,-0.183,0.305,2.291,-0.505,-138.702,-49.8,-56.2,-19.527,30.12,0.3526,0.0029,-0.02026,-0.93549
 13:47:18.084,eb:33:2e:f9:57:b5, 2085-97-18 00:84:00:2039,0.007,0.041,0.995,-0.061,-0.183,0.366,2.291,-0.505,-138.697,-49.8,-56.2,-19.527,30.12,0.3526,0.0029,-0.02026,-0.93549
 13:47:18.084,eb:33:2e:f9:57:b5, 2085-97-16 00:83:00:2039,0.009,0.04,0.995,-0.061,-0.183,0.305,2.291,-0.505,-138.697,-49.8,-56.2,-19.527,30.12,0.3526,0.0029,-0.02026,-0.93549
 13:47:18.115,eb:33:2e:f9:57:b5, 2085-97-19 00:85:00:2041,0.004,0.041,0.997,0,-0.183,0.244,2.291,-0.505,-138.697,-49.8,-56.2,-19.527,30.12,0.3526,0.0029,-0.02026,-0.93549
 13:47:18.115,eb:33:2e:f9:57:b5, 2085-97-15 00:82:00:2036,0.005,0.039,0.993,-0.122,-0.061,0.244,2.291,-0.505,-138.697,-49.8,-56.2,-19.527,30.12,0.3526,0.0029,-0.02026,-0.93549
 13:47:18.115,eb:33:2e:f9:57:b5, 2085-97-19 00:82:00:2040,0.008,0.039,0.994,0,-0.427,0.244,2.291,-0.505,-138.697,-49.8,-56.2,-19.527,30.12,0.3526,0.0029,-0.02026,-0.93549
 13:47:18.115,eb:33:2e:f9:57:b5, 2085-97-23 00:87:00:2042,0.008,0.04,0.995,0,-0.305,0.183,2.291,-0.505,-138.697,-49.8,-56.2,-19.527,30.12,0.3526,0.0029,-0.02026,-0.93549
 13:47:18.175,eb:33:2e:f9:57:b5, 2085-97-17 00:82:00:2036,0.009,0.041,0.994,-0.061,-0.122,0.122,2.291,-0.505,-138.697,-49.8,-56.2,-19.527,30.12,0.3526,0.0029,-0.02026,-0.93549
 13:47:18.175,eb:33:2e:f9:57:b5, 2085-97-17 00:82:00:2036,0.006,0.042,0.995,-0.122,0,0.061,2.291,-0.505,-138.697,-49.8,-56.2,-19.527,30.12,0.3526,0.0029,-0.02026,-0.93549
 13:47:18.175,eb:33:2e:f9:57:b5, 2085-97-12 00:81:00:2034,0.006,0.039,0.994,-0.122,-0.244,0.122,2.291,-0.505,-138.697,-49.8,-56.2,-19.527,30.12,0.3526,0.0029,-0.02026,-0.93549
 13:47:18.175,eb:33:2e:f9:57:b5, 2085-97-15 00:82:00:2032,0.005,0.04,0.993,-0.122,-0.366,0.305,2.291,-0.5,-138.697,-49.8,-56.2,-19.527,30.12,0.3526,0.0029,-0.02026,-0.93549
 13:47:18.205,eb:33:2e:f9:57:b5, 2085-97-12 00:81:00:2032,0.009,0.039,0.992,-0.122,-0.61,0.183,2.291,-0.5,-138.697,-49.8,-56.2,-19.527,30.12,0.3526,0.0029,-0.02026,-0.93549
 13:47:18.205,eb:33:2e:f9:57:b5, 2085-97-20 00:84:00:2040,0.011,0.04,0.995,-0.061,-0.671,0.183,2.291,-0.5,-138.697,-49.8,-56.2,-19.527,30.12,0.3526,0.0029,-0.02026,-0.93549
 13:47:18.205,eb:33:2e:f9:57:b5, 2085-97-22 00:81:00:2040,0.011,0.041,0.997,-0.122,-0.488,0.183,2.291,-0.5,-138.697,-49.8,-56.2,-19.527,30.12,0.3526,0.0029,-0.02026,-0.93549
 13:47:18.205,eb:33:2e:f9:57:b5, 2085-97-17 00:82:00:2040,0.008,0.041,0.998,-0.183,-0.305,0.122,2.291,-0.5,-138.697,-49.8,-56.2,-19.527,30.12,0.3526,0.0029,-0.02026,-0.93549
 13:47:18.265,eb:33:2e:f9:57:b5, 2085-97-17 00:80:00:2040,0.011,0.04,0.996,-0.061,-0.488,0.183,2.291,-0.5,-138.697,-49.3,-56.3,-20.72,30.12,0.3526,0.0029,-0.02026,-0.93549
 13:47:18.265,eb:33:2e:f9:57:b5, 2085-97-19 00:78:00:2046,0.011,0.039,0.999,-0.122,-0.488,0.305,2.291,-0.5,-138.697,-49.3,-56.3,-20.72,30.12,0.3526,0.0029,-0.02026,-0.93549
 13:47:18.265,eb:33:2e:f9:57:b5, 2085-97-25 00:84:00:2045,0.01,0.039,0.998,-0.061,-0.427,0.305,2.291,-0.5,-138.691,-49.3,-56.3,-20.72,30.12,0.3526,0.0029,-0.02026,-0.93549
 13:47:18.265,eb:33:2e:f9:57:b5, 2085-97-19 00:82:00:2041,0.009,0.04,0.998,-0.061,-0.183,0.183,2.291,-0.5,-138.691,-49.3,-56.3,-20.72,30.12,0.3526,0.0029,-0.02026,-0.93549
 13:47:18.265,eb:33:2e:f9:57:b5, 2085-97-22 00:81:00:2043,0.009,0.039,0.997,-0.061,-0.244,0.183,2.291,-0.5,-138.691,-49.3,-56.3,-20.72,30.12,0.3526,0.0029,-0.02026,-0.93549
 13:47:18.293,eb:33:2e:f9:57:b5, 2085-113-81 00:36:45:095,0.009,0.038,0.997,0,-0.244,0.183,2.291,-0.505,-138.691,-49.3,-56.3,-20.72,30.12,0.35266,0.0029,-0.02026,-0.93546
 13:47:18.293,eb:33:2e:f9:57:b5, 2085-97-18 00:80:00:2041,0.011,0.039,0.998,0,-0.183,0.183,2.291,-0.505,-138.691,-49.3,-56.3,-20.72,30.12,0.35266,0.0029,-0.02026,-0.93546
 13:47:18.293,eb:33:2e:f9:57:b5, 2085-97-21 00:82:00:2042,0.009,0.04,0.997,0,-0.183,0.244,2.291,-0.505,-138.691,-49.3,-56.3,-20.72,30.12,0.35266,0.0029,-0.02026,-0.93546
 13:47:18.293,eb:33:2e:f9:57:b5, 2085-97-17 00:81:00:2036,0.007,0.04,0.996,0,-0.122,0.122,2.291,-0.505,-138.691,-49.3,-56.3,-20.72,30.12,0.35266,0.0029,-0.02026,-0.93546
 13:47:18.323,eb:33:2e:f9:57:b5, 2085-97-16 00:83:00:2035,0.008,0.04,0.993,0.061,-0.122,0.122,2.291,-0.505,-138.691,-49.3,-56.3,-20.72,30.12,0.35266,0.0029,-0.02026,-0.93546
 13:47:18.323,eb:33:2e:f9:57:b5, 2085-97-17 00:81:00:2037,0.01,0.04,0.993,0.061,-0.183,0,2.291,-0.505,-138.691,-49.3,-56.3,-20.72,30.12,0.35266,0.0029,-0.02026,-0.93546
 13:47:18.323,eb:33:2e:f9:57:b5, 2085-97-20 00:82:00:2040,0.011,0.04,0.997,0,-0.183,0.061,2.291,-0.505,-138.691,-49.3,-56.3,-20.72,30.12,0.35266,0.0029,-0.02026,-0.93546
 13:47:18.323,eb:33:2e:f9:57:b5, 2085-97-20 00:80:00:2038,0.008,0.041,0.996,0,-0.061,0,2.291,-0.505,-138.691,-49.3,-56.3,-20.72,30.12,0.35266,0.0029,-0.02026,-0.93546
 13:47:18.384,eb:33:2e:f9:57:b5, 2085-97-14 00:79:00:2034,0.008,0.038,0.995,0,-0.183,0.061,2.291,-0.505,-138.691,-49.3,-56.3,-20.72,30.12,0.35266,0.0029,-0.02026,-0.93546
 13:47:18.384,eb:33:2e:f9:57:b5, 2085-97-18 00:81:00:2040,0.01,0.039,0.994,0,-0.366,0.061,2.291,-0.505,-138.691,-49.3,-56.3,-20.72,30.12,0.35266,0.0029,-0.02026,-0.93546
 13:47:18.384,eb:33:2e:f9:57:b5, 2085-97-18 00:80:00:2039,0.011,0.04,0.996,0.061,-0.305,0,2.291,-0.505,-138.691,-49.3,-56.3,-20.72,30.12,0.35266,0.0029,-0.02026,-0.93546
 13:47:18.384,eb:33:2e:f9:57:b5, 2085-97-21 00:80:00:2043,0.013,0.041,0.998,0.061,-0.244,0.061,2.291,-0.505,-138.691,-49.3,-56.3,-20.72,30.12,0.35266,0.0029,-0.02026,-0.93546
 13:47:18.414,eb:33:2e:f9:57:b5, 2085-97-22 00:83:00:2044,0.008,0.041,0.999,0,-0.183,0.122,2.291,-0.505,-138.691,-49.3,-56.3,-20.72,30.12,0.35266,0.0029,-0.02026,-0.93546
 13:47:18.414,eb:33:2e:f9:57:b5, 2085-97-22 00:83:00:2044,0.012,0.039,0.997,0,-0.183,0.244,2.291,-0.505,-138.691,-49.3,-56.3,-20.72,30.12,0.35266,0.0029,-0.02026,-0.93546
 13:47:18.414,eb:33:2e:f9:57:b5, 2085-97-16 00:79:00:2038,0.01,0.041,0.998,0,0,0.183,2.291,-0.505,-138.686,-49.3,-56.3,-20.72,30.12,0.35266,0.0029,-0.02026,-0.93546
 13:47:18.414,eb:33:2e:f9:57:b5, 2085-97-20 00:81:00:2042,0.009,0.04,0.996,0,-0.061,0.244,2.291,-0.505,-138.686,-49.3,-56.3,-20.72,30.12,0.35266,0.0029,-0.02026,-0.93546
 13:47:18.444,eb:33:2e:f9:57:b5, 2085-97-19 00:83:00:2039,0.01,0.039,0.996,0,0,0.244,2.291,-0.505,-138.686,-49.3,-56.3,-20.72,30.12,0.35266,0.0029,-0.02026,-0.93546
 13:47:18.444,eb:33:2e:f9:57:b5, 2085-97-16 00:82:00:2037,0.009,0.04,0.995,0,0,0.183,2.291,-0.505,-138.686,-49.3,-56.3,-20.72,30.12,0.35266,0.0029,-0.02026,-0.93546
 13:47:18.444,eb:33:2e:f9:57:b5, 2085-97-21 00:84:00:2040,0.012,0.041,0.995,0,0,0.183,2.291,-0.505,-138.686,-49.3,-56.3,-20.72,30.12,0.35266,0.0029,-0.02026,-0.93546
 13:47:18.444,eb:33:2e:f9:57:b5, 2085-97-18 00:81:00:2036,0.01,0.041,0.997,0,0,0.122,2.291,-0.505,-138.686,-49.3,-56.3,-20.72,30.12,0.35266,0.0029,-0.02026,-0.93546
 13:47:18.504,eb:33:2e:f9:57:b5, 2085-97-22 00:83:00:2039,0.011,0.041,0.995,0,0,0,2.291,-0.505,-138.686,-49.3,-56.3,-20.72,30.12,0.35266,0.0029,-0.02026,-0.93546
 13:47:18.504,eb:33:2e:f9:57:b5, 2085-97-22 00:80:00:2041,0.01,0.04,0.996,0,0.061,0.061,2.291,-0.505,-138.686,-49.3,-56.3,-20.72,30.12,0.35266,0.0029,-0.02026,-0.93546
 13:47:18.504,eb:33:2e:f9:57:b5, 2085-97-22 00:81:00:2041,0.01,0.039,0.997,0,0.122,0,2.291,-0.505,-138.686,-49.3,-56.3,-20.72,30.12,0.35266,0.0029,-0.02026,-0.93546
 13:47:18.504,eb:33:2e:f9:57:b5, 2085-97-18 00:83:00:2038,0.01,0.041,0.996,0,0.122,0.061,2.291,-0.505,-138.686,-49.3,-56.3,-20.72,30.12,0.35266,0.0029,-0.02026,-0.93546
 13:47:18.535,eb:33:2e:f9:57:b5, 2085-97-18 00:83:00:2037,0.009,0.04,0.996,0,0.183,0.061,2.291,-0.505,-138.686,-48.4,-52.5,-17.993,30.12,0.35266,0.0029,-0.02026,-0.93546
 13:47:18.535,eb:33:2e:f9:57:b5, 2085-97-19 00:82:00:2039,0.008,0.041,0.995,-0.122,0.183,0,2.291,-0.505,-138.686,-48.4,-52.5,-17.993,30.12,0.35266,0.0029,-0.02026,-0.93546
 13:47:18.535,eb:33:2e:f9:57:b5, 2085-97-17 00:82:00:2034,0.007,0.04,0.994,-0.061,0.183,0,2.291,-0.505,-138.686,-48.4,-52.5,-17.993,30.12,0.35266,0.0029,-0.02026,-0.93546
 13:47:18.535,eb:33:2e:f9:57:b5, 2085-97-15 00:81:00:2034,0.009,0.04,0.993,-0.061,0.061,0,2.291,-0.505,-138.686,-48.4,-52.5,-17.993,30.12,0.35266,0.0029,-0.02026,-0.93546
 13:47:18.564,eb:33:2e:f9:57:b5, 2085-97-19 00:80:00:2039,0.009,0.04,0.995,0,0,0,2.291,-0.505,-138.686,-48.4,-52.5,-17.993,30.12,0.35266,0.0029,-0.02026,-0.93546
 13:47:18.566,eb:33:2e:f9:57:b5, 2085-97-18 00:81:00:2040,0.009,0.04,0.996,-0.061,0,0,2.291,-0.505,-138.686,-48.4,-52.5,-17.993,30.12,0.35266,0.0029,-0.02026,-0.93546
 13:47:18.566,eb:33:2e:f9:57:b5, 2085-97-18 00:82:00:2040,0.009,0.041,0.996,0,0,0,2.291,-0.505,-138.68,-48.4,-52.5,-17.993,30.12,0.35266,0.0029,-0.02026,-0.93546
 13:47:18.566,eb:33:2e:f9:57:b5, 2085-97-20 00:83:00:2040,0.009,0.041,0.996,0,0.061,0,2.291,-0.505,-138.68,-48.4,-52.5,-17.993,30.12,0.35266,0.0029,-0.02026,-0.93546
 13:47:18.623,eb:33:2e:f9:57:b5, 2085-97-15 00:80:00:2036,0.009,0.04,0.995,0,0.061,-0.061,2.291,-0.505,-138.68,-48.4,-52.5,-17.993,30.12,0.35275,0.00287,-0.02026,-0.93542
 13:47:18.623,eb:33:2e:f9:57:b5, 2085-97-18 00:81:00:2041,0.01,0.039,0.995,0,0,-0.122,2.291,-0.505,-138.68,-48.4,-52.5,-17.993,30.12,0.35275,0.00287,-0.02026,-0.93542
 13:47:18.623,eb:33:2e:f9:57:b5, 2085-97-19 00:85:00:2038,0.01,0.041,0.996,0,0.061,-0.122,2.291,-0.505,-138.68,-48.4,-52.5,-17.993,30.12,0.35275,0.00287,-0.02026,-0.93542
 13:47:18.623,eb:33:2e:f9:57:b5, 2085-97-19 00:81:00:2038,0.008,0.04,0.996,0,0.061,-0.122,2.291,-0.505,-138.68,-48.4,-52.5,-17.993,30.12,0.35275,0.00287,-0.02026,-0.93542
 13:47:18.653,eb:33:2e:f9:57:b5, 2085-97-17 00:80:00:2036,0.008,0.039,0.995,0,0,-0.183,2.291,-0.505,-138.68,-48.4,-52.5,-17.993,30.12,0.35275,0.00287,-0.02026,-0.93542
 13:47:18.653,eb:33:2e:f9:57:b5, 2085-97-18 00:78:00:2040,0.01,0.039,0.995,0,0,-0.244,2.291,-0.505,-138.68,-48.4,-52.5,-17.993,30.12,0.35275,0.00287,-0.02026,-0.93542
 13:47:18.653,eb:33:2e:f9:57:b5, 2085-97-20 00:79:00:2041,0.008,0.039,0.997,0,0,-0.183,2.291,-0.505,-138.68,-48.4,-52.5,-17.993,30.12,0.35275,0.00287,-0.02026,-0.93542
 13:47:18.653,eb:33:2e:f9:57:b5, 2085-97-17 00:81:00:2039,0.009,0.039,0.995,0.061,0,-0.122,2.291,-0.505,-138.68,-48.4,-52.5,-17.993,30.12,0.35275,0.00287,-0.02026,-0.93542
 13:47:18.683,eb:33:2e:f9:57:b5, 2085-97-17 00:83:00:2038,0.008,0.041,0.996,0.061,0,-0.183,2.291,-0.505,-138.68,-48.4,-52.5,-17.993,30.12,0.35275,0.00287,-0.02026,-0.93542
 13:47:18.683,eb:33:2e:f9:57:b5, 2085-97-20 00:85:00:2039,0.009,0.042,0.994,0.061,0,-0.244,2.291,-0.505,-138.68,-48.4,-52.5,-17.993,30.12,0.35275,0.00287,-0.02026,-0.93542
 13:47:18.683,eb:33:2e:f9:57:b5, 2085-97-17 00:80:00:2038,0.011,0.041,0.995,0,0,-0.305,2.291,-0.505,-138.68,-48.4,-52.5,-17.993,30.12,0.35275,0.00287,-0.02026,-0.93542
 13:47:18.683,eb:33:2e:f9:57:b5, 2085-97-19 00:79:00:2039,0.008,0.04,0.998,0,0,-0.366,2.291,-0.505,-138.68,-48.4,-52.5,-17.993,30.12,0.35275,0.00287,-0.02026,-0.93542
 13:47:18.775,eb:33:2e:f9:57:b5, 2085-97-21 00:81:00:2043,0.008,0.039,0.994,0.061,0,-0.183,2.291,-0.505,-138.68,-48.4,-52.5,-17.993,30.12,0.35275,0.00287,-0.02026,-0.93542
 13:47:18.775,eb:33:2e:f9:57:b5, 2085-97-16 00:80:00:2041,0.011,0.038,0.996,0.061,0,-0.183,2.291,-0.505,-138.68,-48.4,-52.5,-17.993,30.12,0.35275,0.00287,-0.02026,-0.93542
 13:47:18.775,eb:33:2e:f9:57:b5, 2085-97-19 00:81:00:2040,0.008,0.041,0.998,0,0.122,-0.183,2.291,-0.505,-138.68,-48.4,-52.5,-17.993,30.12,0.35275,0.00287,-0.02026,-0.93542
 13:47:18.775,eb:33:2e:f9:57:b5, 2085-97-18 00:82:00:2042,0.008,0.039,0.996,0,0.061,-0.061,2.291,-0.505,-138.68,-48.4,-52.5,-17.993,30.12,0.35275,0.00287,-0.02026,-0.93542
 13:47:18.775,eb:33:2e:f9:57:b5, 2085-97-17 00:78:00:2040,0.008,0.039,0.996,0.061,0,0,2.291,-0.505,-138.675,-48.4,-52.5,-17.993,30.12,0.35275,0.00287,-0.02026,-0.93542
 13:47:18.775,eb:33:2e:f9:57:b5, 2085-97-17 00:80:00:2037,0.009,0.04,0.995,0,0.061,-0.061,2.291,-0.505,-138.675,-48.4,-52.5,-17.993,30.12,0.35275,0.00287,-0.02026,-0.93542
 13:47:18.775,eb:33:2e:f9:57:b5, 2085-97-20 00:80:00:2040,0.009,0.039,0.996,0.061,0,-0.061,2.291,-0.505,-138.675,-48.4,-52.5,-17.993,30.12,0.35275,0.00287,-0.02026,-0.93542
 13:47:18.776,eb:33:2e:f9:57:b5, 2085-97-19 00:83:00:2040,0.009,0.039,0.997,0.061,0,0,2.291,-0.505,-138.675,-48.4,-52.5,-17.993,30.12,0.35275,0.00287,-0.02026,-0.93542
 13:47:18.803,eb:33:2e:f9:57:b5, 2085-97-18 00:82:00:2039,0.009,0.041,0.996,0,0.061,-0.061,2.291,-0.505,-138.675,-49,-54.9,-20.873,30.12,0.35275,0.00287,-0.02026,-0.93542
 13:47:18.803,eb:33:2e:f9:57:b5, 2085-97-18 00:81:00:2038,0.01,0.041,0.995,0,0,0,2.291,-0.505,-138.675,-49,-54.9,-20.873,30.12,0.35275,0.00287,-0.02026,-0.93542
 13:47:18.803,eb:33:2e:f9:57:b5, 2085-97-19 00:82:00:2038,0.009,0.041,0.996,0,0.061,-0.061,2.291,-0.505,-138.675,-49,-54.9,-20.873,30.12,0.35275,0.00287,-0.02026,-0.93542
 13:47:18.803,eb:33:2e:f9:57:b5, 2085-97-15 00:82:00:2036,0.008,0.04,0.994,0,0,-0.061,2.291,-0.505,-138.675,-49,-54.9,-20.873,30.12,0.35275,0.00287,-0.02026,-0.93542
 13:47:18.864,eb:33:2e:f9:57:b5, 2085-97-17 00:81:00:2038,0.008,0.04,0.995,0,0,-0.061,2.291,-0.511,-138.675,-49,-54.9,-20.873,30.12,0.35275,0.00287,-0.02026,-0.93542
 13:47:18.864,eb:33:2e:f9:57:b5, 2085-97-18 00:83:00:2040,0.01,0.041,0.995,0,0,-0.061,2.291,-0.505,-138.675,-49,-54.9,-20.873,30.12,0.35275,0.00287,-0.02026,-0.93542
 13:47:18.864,eb:33:2e:f9:57:b5, 2085-97-19 00:82:00:2039,0.008,0.04,0.997,0,0.061,0,2.291,-0.511,-138.675,-49,-54.9,-20.873,30.12,0.35275,0.00287,-0.02026,-0.93542
 13:47:18.864,eb:33:2e:f9:57:b5, 2085-97-12 00:79:00:2035,0.006,0.04,0.995,-0.061,0,0,2.291,-0.511,-138.675,-49,-54.9,-20.873,30.12,0.35275,0.00287,-0.02026,-0.93542
 13:47:18.894,eb:33:2e:f9:57:b5, 2085-97-17 00:81:00:2038,0.009,0.039,0.994,0,-0.244,0,2.291,-0.511,-138.675,-49,-54.9,-20.873,30.12,0.35284,0.00287,-0.02029,-0.93542
 13:47:18.894,eb:33:2e:f9:57:b5, 2085-97-15 00:81:00:2038,0.009,0.041,0.996,0,-0.122,0,2.291,-0.505,-138.675,-49,-54.9,-20.873,30.12,0.35284,0.00287,-0.02029,-0.93542
 13:47:18.894,eb:33:2e:f9:57:b5, 2085-97-18 00:81:00:2041,0.008,0.04,0.997,0,-0.244,0,2.291,-0.505,-138.675,-49,-54.9,-20.873,30.12,0.35284,0.00287,-0.02029,-0.93542
 13:47:18.894,eb:33:2e:f9:57:b5, 2085-97-19 00:84:00:2041,0.012,0.041,0.996,-0.061,-0.122,0.122,2.291,-0.505,-138.675,-49,-54.9,-20.873,30.12,0.35284,0.00287,-0.02029,-0.93542
 13:47:18.923,eb:33:2e:f9:57:b5, 2085-97-22 00:84:00:2044,0.008,0.042,0.998,-0.305,0,0.366,2.291,-0.505,-138.675,-49,-54.9,-20.873,30.12,0.35284,0.00287,-0.02029,-0.93542
 13:47:18.923,eb:33:2e:f9:57:b5, 2085-97-19 00:79:00:2041,0.012,0.041,0.996,-0.305,0,0.305,2.291,-0.505,-138.675,-49,-54.9,-20.873,30.12,0.35284,0.00287,-0.02029,-0.93542
 13:47:18.923,eb:33:2e:f9:57:b5, 2085-97-16 00:81:00:2037,0.006,0.04,0.998,-0.244,0.061,0.244,2.291,-0.505,-138.669,-49,-54.9,-20.873,30.12,0.35284,0.00287,-0.02029,-0.93542
 13:47:18.923,eb:33:2e:f9:57:b5, 2085-97-21 00:82:00:2039,0.008,0.039,0.994,-0.366,-0.061,0.61,2.291,-0.511,-138.669,-49,-54.9,-20.873,30.12,0.35284,0.00287,-0.02029,-0.93542
 13:47:18.984,eb:33:2e:f9:57:b5, 2085-97-09 00:80:00:2032,0.005,0.039,0.994,-0.366,-0.122,0.61,2.291,-0.511,-138.669,-49,-54.9,-20.873,30.12,0.35284,0.00287,-0.02029,-0.93542
 13:47:18.984,eb:33:2e:f9:57:b5, 2085-97-17 00:80:00:2040,0.011,0.038,0.994,-0.244,-0.305,0.488,2.291,-0.511,-138.669,-49,-54.9,-20.873,30.12,0.35284,0.00287,-0.02029,-0.93542
 13:47:18.984,eb:33:2e:f9:57:b5, 2085-97-18 00:82:00:2040,0.008,0.04,0.997,-0.244,-0.244,0.488,2.291,-0.511,-138.669,-49,-54.9,-20.873,30.12,0.35284,0.00287,-0.02029,-0.93542
 13:47:18.984,eb:33:2e:f9:57:b5, 2085-97-19 00:82:00:2041,0.01,0.039,0.996,-0.183,-0.305,0.488,2.291,-0.505,-138.669,-49,-54.9,-20.873,30.12,0.35284,0.00287,-0.02029,-0.93542
 13:47:19.014,eb:33:2e:f9:57:b5, 2085-97-20 00:81:00:2039,0.009,0.041,0.997,-0.183,-0.244,0.427,2.291,-0.505,-138.669,-49,-54.9,-20.873,30.12,0.35284,0.00287,-0.02029,-0.93542
 13:47:19.014,eb:33:2e:f9:57:b5, 2085-97-19 00:81:00:2041,0.01,0.04,0.996,-0.122,-0.244,0.305,2.291,-0.505,-138.669,-49,-54.9,-20.873,30.12,0.35284,0.00287,-0.02029,-0.93542
 13:47:19.014,eb:33:2e:f9:57:b5, 2085-97-22 00:82:00:2042,0.008,0.04,0.997,-0.061,-0.183,0.183,2.291,-0.505,-138.669,-49,-54.9,-20.873,30.12,0.35284,0.00287,-0.02029,-0.93542
 13:47:19.014,eb:33:2e:f9:57:b5, 2085-97-12 00:81:00:2033,0.01,0.041,0.995,-0.183,-0.183,0.366,2.291,-0.511,-138.669,-49,-54.9,-20.873,30.12,0.35284,0.00287,-0.02029,-0.93542
 13:47:19.043,eb:33:2e:f9:57:b5, 2085-97-17 00:83:00:2036,0.009,0.041,0.995,-0.183,-0.305,0.488,2.291,-0.511,-138.669,-49,-54.9,-20.873,30.12,0.35284,0.00287,-0.02029,-0.93542
 13:47:19.043,eb:33:2e:f9:57:b5, 2085-97-20 00:82:00:2038,0.009,0.04,0.995,-0.183,-0.305,0.427,2.291,-0.511,-138.669,-49,-54.9,-20.873,30.12,0.35284,0.00287,-0.02029,-0.93542
 13:47:19.043,eb:33:2e:f9:57:b5, 2085-97-18 00:81:00:2038,0.009,0.04,0.996,-0.122,-0.244,0.244,2.291,-0.511,-138.669,-49,-54.9,-20.873,30.12,0.35284,0.00287,-0.02029,-0.93542
 13:47:19.043,eb:33:2e:f9:57:b5, 2085-97-23 00:81:00:2041,0.011,0.039,0.996,-0.061,-0.305,0.244,2.291,-0.511,-138.669,-49,-54.9,-20.873,30.12,0.35284,0.00287,-0.02029,-0.93542
 13:47:19.134,eb:33:2e:f9:57:b5, 2085-97-22 00:83:00:2045,0.01,0.04,0.998,-0.061,-0.244,0.183,2.291,-0.511,-138.669,-49,-54.9,-20.873,30.12,0.35284,0.00287,-0.02029,-0.93542
 13:47:19.134,eb:33:2e:f9:57:b5, 2085-113-58 00:119:227:-8265,0.011,0.04,0.998,0,-0.061,0.061,2.291,-0.511,-138.669,-49,-54.9,-20.873,30.12,0.35284,0.00287,-0.02029,-0.93542
 13:47:19.134,eb:33:2e:f9:57:b5, 2085-97-24 00:82:00:2046,0.01,0.039,0.998,0,0,0.122,2.291,-0.511,-138.669,-49,-54.9,-20.873,30.12,0.35284,0.00287,-0.02029,-0.93542
 13:47:19.134,eb:33:2e:f9:57:b5, 2085-97-17 00:81:00:2039,0.008,0.04,0.997,-0.061,0.061,0.061,2.291,-0.511,-138.669,-49,-54.9,-20.873,30.12,0.35284,0.00287,-0.02029,-0.93542
 13:47:19.136,eb:33:2e:f9:57:b5, 2085-97-17 00:80:00:2039,0.009,0.04,0.996,0,0,0.061,2.291,-0.511,-138.664,-48.7,-55.1,-20.88,30.12,0.35284,0.00287,-0.02029,-0.93542
 13:47:19.136,eb:33:2e:f9:57:b5, 2085-97-16 00:79:00:2036,0.007,0.039,0.995,0,0.061,0,2.291,-0.511,-138.664,-48.7,-55.1,-20.88,30.12,0.35284,0.00287,-0.02029,-0.93542
 13:47:19.136,eb:33:2e:f9:57:b5, 2085-97-19 00:79:00:2037,0.01,0.038,0.993,0.061,0,0,2.291,-0.511,-138.664,-48.7,-55.1,-20.88,30.12,0.35284,0.00287,-0.02029,-0.93542
 13:47:19.136,eb:33:2e:f9:57:b5, 2085-97-21 00:79:00:2039,0.011,0.038,0.995,0.061,-0.061,-0.061,2.291,-0.511,-138.664,-48.7,-55.1,-20.88,30.12,0.35284,0.00287,-0.02029,-0.93542
 13:47:19.165,eb:33:2e:f9:57:b5, 2085-97-20 00:79:00:2039,0.009,0.039,0.996,0.061,0,-0.122,2.291,-0.511,-138.664,-48.7,-55.1,-20.88,30.12,0.35284,0.00287,-0.02029,-0.93542
 13:47:19.165,eb:33:2e:f9:57:b5, 2085-97-20 00:79:00:2041,0.009,0.038,0.995,0.122,0,-0.122,2.291,-0.511,-138.664,-48.7,-55.1,-20.88,30.12,0.35284,0.00287,-0.02029,-0.93542
 13:47:19.165,eb:33:2e:f9:57:b5, 2085-97-21 00:83:00:2040,0.009,0.04,0.997,0.122,0,-0.122,2.291,-0.511,-138.664,-48.7,-55.1,-20.88,30.12,0.35284,0.00287,-0.02029,-0.93542
 13:47:19.165,eb:33:2e:f9:57:b5, 2085-97-17 00:83:00:2038,0.009,0.04,0.994,0.122,0,-0.183,2.291,-0.511,-138.664,-48.7,-55.1,-20.88,30.12,0.35284,0.00287,-0.02029,-0.93542
 13:47:19.224,eb:33:2e:f9:57:b5, 2085-97-19 00:83:00:2038,0.009,0.042,0.995,0.061,0,-0.183,2.291,-0.511,-138.664,-48.7,-55.1,-20.88,30.12,0.35284,0.00287,-0.02029,-0.93542
