Time,Device name,Chip Time(),Acceleration X(g),Acceleration Y(g),Acceleration Z(g),Angular velocity X(°/s),Angular velocity Y(°/s),Angular velocity Z(°/s),Angle X(°),Angle Y(°),Angle Z(°),Magnetic field X(ʯt),Magnetic field Y(ʯt),Magnetic field Z(ʯt),Temperature(℃),Quaternions 0(),Quaternions 1(),Quaternions 2(),Quaternions 3()
 13:43:39.462,eb:33:2e:f9:57:b5, 2085-97-226 255:20:00:2042,-0.015,0.01,0.997,-0.183,-0.122,0,0.5,0.813,51.883,-48.7,-49.2,-7.893,28.5,0.89917,0.00079,0.0083,0.43738
 13:43:39.463,eb:33:2e:f9:57:b5, 2085-97-228 255:19:00:2042,-0.014,0.01,0.997,-0.183,-0.122,0,0.5,0.813,51.883,-48.7,-49.2,-7.893,28.5,0.89917,0.00079,0.0083,0.43738
 13:43:39.463,eb:33:2e:f9:57:b5, 2085-97-228 255:20:00:2041,-0.014,0.01,0.997,-0.122,-0.122,0,0.5,0.813,51.883,-48.7,-49.2,-7.893,28.5,0.89917,0.00079,0.0083,0.43738
 13:43:39.463,eb:33:2e:f9:57:b5, 2085-97-224 255:20:00:2041,-0.015,0.01,0.997,-0.183,-0.122,0,0.5,0.813,51.883,-48.7,-49.2,-7.893,28.5,0.89917,0.00079,0.0083,0.43738
 13:43:39.463,eb:33:2e:f9:57:b5, 2085-97-227 255:19:00:2041,-0.015,0.009,0.997,-0.122,-0.061,0,0.5,0.813,51.883,-48.7,-49.2,-7.893,28.5,0.89917,0.00079,0.0083,0.43738
 13:43:39.463,eb:33:2e:f9:57:b5, 2085-97-226 255:19:00:2042,-0.016,0.009,0.997,-0.122,-0.122,0,0.5,0.818,51.883,-48.7,-49.2,-7.893,28.5,0.89917,0.00079,0.0083,0.43738
 13:43:39.463,eb:33:2e:f9:57:b5, 2085-97-224 255:19:00:2040,-0.016,0.009,0.997,-0.122,-0.122,-0.061,0.5,0.818,51.883,-48.7,-49.2,-7.893,28.5,0.89917,0.00079,0.0083,0.43738
 13:43:39.464,eb:33:2e:f9:57:b5, 2085-97-225 255:19:00:2040,-0.015,0.009,0.997,-0.183,-0.122,0,0.5,0.818,51.883,-48.7,-49.2,-7.893,28.5,0.89917,0.00079,0.0083,0.43738
 13:43:39.467,eb:33:2e:f9:57:b5, 2085-97-226 255:19:00:2041,-0.013,0.01,0.996,-0.122,-0.183,0,0.5,0.818,51.883,-48.7,-49.2,-7.893,28.5,0.89917,0.00079,0.0083,0.43738
 13:43:39.467,eb:33:2e:f9:57:b5, 2085-97-227 255:20:00:2041,-0.014,0.009,0.998,-0.122,-0.244,-0.061,0.5,0.818,51.883,-48.7,-49.2,-7.893,28.5,0.89917,0.00079,0.0083,0.43738
 13:43:39.467,eb:33:2e:f9:57:b5, 2085-97-228 255:18:00:2043,-0.015,0.009,0.998,-0.183,-0.244,-0.061,0.5,0.818,51.883,-48.7,-49.2,-7.893,28.5,0.89917,0.00079,0.0083,0.43738
 13:43:39.467,eb:33:2e:f9:57:b5, 2085-97-226 255:17:00:2043,-0.014,0.009,0.998,-0.183,-0.244,0,0.5,0.818,51.883,-48.7,-49.2,-7.893,28.5,0.89917,0.00079,0.0083,0.43738
 13:43:39.524,eb:33:2e:f9:57:b5, 2085-97-228 255:18:00:2043,-0.014,0.009,0.998,-0.122,-0.244,0,0.5,0.818,51.883,-48.7,-49.2,-7.893,28.5,0.89917,0.00079,0.0083,0.43738
 13:43:39.524,eb:33:2e:f9:57:b5, 2085-97-226 255:17:00:2043,-0.014,0.009,0.998,-0.061,-0.183,0,0.5,0.818,51.883,-48.7,-49.2,-7.893,28.5,0.89917,0.00079,0.0083,0.43738
 13:43:39.524,eb:33:2e:f9:57:b5, 2085-97-226 255:20:00:2044,-0.015,0.01,0.997,-0.061,-0.183,0,0.5,0.818,51.883,-48.7,-49.2,-7.893,28.5,0.89917,0.00079,0.0083,0.43738
 13:43:39.524,eb:33:2e:f9:57:b5, 2085-97-228 255:19:00:2044,-0.014,0.009,0.999,-0.061,-0.183,-0.061,0.5,0.818,51.883,-48.7,-49.2,-7.893,28.5,0.89917,0.00079,0.0083,0.43738
 13:43:39.524,eb:33:2e:f9:57:b5, 2085-97-228 255:19:00:2042,-0.013,0.009,0.997,-0.061,-0.183,0,0.5,0.818,51.883,-48.7,-49.2,-7.893,28.5,0.89917,0.00079,0.0083,0.43738
 13:43:39.524,eb:33:2e:f9:57:b5, 2085-97-229 255:19:00:2043,-0.015,0.009,0.998,-0.122,-0.183,0,0.5,0.818,51.883,-48.7,-49.2,-7.893,28.5,0.89917,0.00079,0.0083,0.43738
 13:43:39.524,eb:33:2e:f9:57:b5, 2085-97-228 255:21:00:2042,-0.013,0.01,0.997,-0.183,-0.183,0,0.5,0.818,51.883,-48.7,-49.2,-7.893,28.5,0.89917,0.00079,0.0083,0.43738
 13:43:39.524,eb:33:2e:f9:57:b5, 2085-97-229 255:20:00:2042,-0.014,0.009,0.997,-0.122,-0.244,0,0.5,0.818,51.883,-48.7,-49.2,-7.893,28.5,0.89917,0.00079,0.0083,0.43738
 13:43:39.586,eb:33:2e:f9:57:b5, 2085-97-230 255:17:00:2042,-0.013,0.009,0.997,-0.122,-0.122,0,0.5,0.818,51.883,-48.7,-49.2,-7.893,28.5,0.89917,0.00079,0.0083,0.43738
 13:43:39.586,eb:33:2e:f9:57:b5, 2085-97-228 255:18:00:2043,-0.014,0.008,0.997,-0.183,-0.122,-0.061,0.5,0.818,51.883,-48.7,-49.2,-7.893,28.5,0.89917,0.00079,0.0083,0.43738
 13:43:39.586,eb:33:2e:f9:57:b5, 2085-97-229 255:18:00:2044,-0.014,0.009,0.997,-0.122,-0.183,-0.122,0.5,0.818,51.883,-48.7,-49.2,-7.893,28.5,0.89917,0.00079,0.0083,0.43738
 13:43:39.586,eb:33:2e:f9:57:b5, 2085-97-230 255:19:00:2043,-0.013,0.009,0.998,-0.061,-0.183,0,0.5,0.818,51.883,-48.7,-49.2,-7.893,28.5,0.89917,0.00079,0.0083,0.43738
 13:43:39.675,eb:33:2e:f9:57:b5, 2085-97-228 255:18:00:2043,-0.013,0.009,0.998,-0.061,-0.183,0,0.5,0.818,51.883,-48.2,-47,-5.013,28.5,0.89917,0.00079,0.0083,0.43738
 13:43:39.675,eb:33:2e:f9:57:b5, 2085-97-229 255:19:00:2041,-0.013,0.009,0.998,-0.061,-0.122,0,0.5,0.818,51.883,-48.2,-47,-5.013,28.5,0.89917,0.00079,0.0083,0.43738
 13:43:39.675,eb:33:2e:f9:57:b5, 2085-97-227 255:17:00:2042,-0.014,0.009,0.998,-0.061,-0.122,0,0.5,0.818,51.883,-48.2,-47,-5.013,28.5,0.89917,0.00079,0.0083,0.43738
 13:43:39.675,eb:33:2e:f9:57:b5, 2085-97-229 255:18:00:2042,-0.014,0.01,0.996,0,-0.122,0,0.5,0.818,51.883,-48.2,-47,-5.013,28.5,0.89917,0.00079,0.0083,0.43738
 13:43:39.676,eb:33:2e:f9:57:b5, 2085-97-226 255:17:00:2042,-0.013,0.008,0.998,0,-0.122,0,0.5,0.818,51.883,-48.2,-47,-5.013,28.5,0.89917,0.00079,0.0083,0.43738
 13:43:39.676,eb:33:2e:f9:57:b5, 2085-97-228 255:19:00:2042,-0.014,0.009,0.997,0,-0.183,0,0.5,0.818,51.883,-48.2,-47,-5.013,28.5,0.89917,0.00079,0.0083,0.43738
 13:43:39.676,eb:33:2e:f9:57:b5, 2085-97-228 255:18:00:2042,-0.014,0.009,0.998,-0.061,-0.244,0,0.5,0.818,51.883,-48.2,-47,-5.013,28.5,0.89917,0.00079,0.0083,0.43738
 13:43:39.676,eb:33:2e:f9:57:b5, 2085-97-229 255:17:00:2043,-0.013,0.009,0.998,0,-0.183,0,0.5,0.818,51.883,-48.2,-47,-5.013,28.5,0.89917,0.00079,0.0083,0.43738
 13:43:39.824,eb:33:2e:f9:57:b5, 2085-97-231 255:18:00:2045,-0.013,0.009,0.997,-0.061,-0.244,0,0.5,0.818,51.883,-48.2,-47,-5.013,28.5,0.89917,0.00082,0.00833,0.43738
 13:43:39.824,eb:33:2e:f9:57:b5, 2085-97-230 255:19:00:2043,-0.014,0.008,0.998,0,-0.122,0.061,0.5,0.818,51.883,-48.2,-47,-5.013,28.5,0.89917,0.00082,0.00833,0.43738
 13:43:39.824,eb:33:2e:f9:57:b5, 2085-97-229 255:19:00:2042,-0.013,0.009,0.997,0,-0.122,0.061,0.5,0.818,51.883,-48.2,-47,-5.013,28.5,0.89917,0.00082,0.00833,0.43738
 13:43:39.824,eb:33:2e:f9:57:b5, 2085-97-228 255:17:00:2042,-0.015,0.009,0.997,-0.061,-0.061,0,0.5,0.813,51.883,-48.2,-47,-5.013,28.5,0.89917,0.00082,0.00833,0.43738
 13:43:39.852,eb:33:2e:f9:57:b5, 2085-97-230 255:17:00:2043,-0.013,0.009,0.997,0,-0.061,0,0.5,0.813,51.883,-48.2,-47,-5.013,28.5,0.89917,0.00082,0.00833,0.43738
 13:43:39.852,eb:33:2e:f9:57:b5, 2085-97-230 255:19:00:2042,-0.014,0.01,0.997,0,-0.061,0,0.5,0.813,51.883,-48.2,-47,-5.013,28.5,0.89917,0.00082,0.00833,0.43738
 13:43:39.852,eb:33:2e:f9:57:b5, 2085-97-227 255:18:00:2041,-0.014,0.009,0.997,0,-0.061,0,0.5,0.813,51.883,-48.2,-47,-5.013,28.5,0.89917,0.00082,0.00833,0.43738
 13:43:39.852,eb:33:2e:f9:57:b5, 2085-97-229 255:18:00:2042,-0.014,0.008,0.997,-0.061,-0.122,0,0.505,0.813,51.883,-48.2,-47,-5.013,28.5,0.89917,0.00082,0.00833,0.43738
 13:43:39.913,eb:33:2e:f9:57:b5, 2085-97-228 255:18:00:2040,-0.014,0.009,0.997,-0.061,-0.122,0,0.505,0.813,51.883,-48.2,-47,-5.013,28.5,0.89917,0.00082,0.00833,0.43738
 13:43:39.913,eb:33:2e:f9:57:b5, 2085-97-229 255:18:00:2041,-0.013,0.009,0.998,-0.122,-0.122,0,0.505,0.813,51.883,-48.2,-47,-5.013,28.5,0.89917,0.00082,0.00833,0.43738
 13:43:39.913,eb:33:2e:f9:57:b5, 2085-97-228 255:18:00:2042,-0.014,0.009,0.998,-0.061,-0.122,0,0.505,0.813,51.883,-48.2,-47,-5.013,28.5,0.89917,0.00082,0.00833,0.43738
 13:43:39.913,eb:33:2e:f9:57:b5, 2085-97-229 255:19:00:2040,-0.013,0.009,0.996,-0.061,-0.183,0,0.505,0.813,51.883,-48.2,-47,-5.013,28.5,0.89917,0.00082,0.00833,0.43738
 13:43:39.913,eb:33:2e:f9:57:b5, 2085-97-228 255:16:00:2043,-0.013,0.008,0.997,-0.061,-0.183,0.061,0.505,0.813,51.883,-48.2,-47,-5.013,28.5,0.89917,0.00082,0.00833,0.43738
 13:43:39.915,eb:33:2e:f9:57:b5, 2085-97-230 255:17:00:2044,-0.013,0.008,0.998,-0.061,-0.244,0,0.505,0.813,51.883,-48.2,-47,-5.013,28.5,0.89917,0.00082,0.00833,0.43738
 13:43:39.915,eb:33:2e:f9:57:b5, 2085-97-231 255:19:00:2044,-0.012,0.009,0.998,-0.061,-0.244,0,0.505,0.813,51.883,-48.2,-47,-5.013,28.5,0.89917,0.00082,0.00833,0.43738
 13:43:39.915,eb:33:2e:f9:57:b5, 2085-97-229 255:18:00:2042,-0.013,0.009,0.997,-0.061,-0.122,0,0.505,0.813,51.883,-48.2,-47,-5.013,28.5,0.89917,0.00082,0.00833,0.43738
 13:43:39.915,eb:33:2e:f9:57:b5, 2085-97-230 255:18:00:2044,-0.013,0.009,0.998,-0.061,-0.122,0,0.505,0.813,51.883,-48.2,-47,-5.013,28.5,0.89917,0.00082,0.00833,0.43738
 13:43:39.915,eb:33:2e:f9:57:b5, 2085-97-229 255:18:00:2041,-0.014,0.009,0.998,-0.122,-0.061,0,0.505,0.813,51.883,-48.2,-47,-5.013,28.5,0.89917,0.00082,0.00833,0.43738
 13:43:39.916,eb:33:2e:f9:57:b5, 2085-97-227 255:17:00:2039,-0.013,0.008,0.996,-0.122,-0.122,0,0.505,0.813,51.883,-48.2,-47,-5.013,28.5,0.89917,0.00082,0.00833,0.43738
 13:43:39.916,eb:33:2e:f9:57:b5, 2085-97-229 255:18:00:2042,-0.013,0.008,0.996,0,-0.122,-0.061,0.505,0.813,51.883,-48.2,-47,-5.013,28.5,0.89917,0.00082,0.00833,0.43738
 13:43:39.945,eb:33:2e:f9:57:b5, 2085-97-230 255:18:00:2042,-0.013,0.009,0.998,0,-0.183,-0.061,0.505,0.813,51.883,-48.2,-47,-5.013,28.5,0.89917,0.00082,0.00833,0.43738
 13:43:39.945,eb:33:2e:f9:57:b5, 2085-97-229 255:17:00:2043,-0.013,0.007,0.997,0,-0.183,0,0.505,0.813,51.883,-48.2,-47,-5.013,28.5,0.89917,0.00082,0.00833,0.43738
 13:43:39.945,eb:33:2e:f9:57:b5, 2085-97-230 255:17:00:2043,-0.013,0.008,0.997,0,-0.122,0,0.505,0.813,51.883,-48.2,-47,-5.013,28.5,0.89917,0.00082,0.00833,0.43738
 13:43:39.945,eb:33:2e:f9:57:b5, 2085-97-229 255:18:00:2043,-0.013,0.009,0.998,0,-0.122,0,0.505,0.813,51.883,-48.2,-47,-5.013,28.5,0.89917,0.00082,0.00833,0.43738
 13:43:39.949,eb:33:2e:f9:57:b5, 2085-97-231 255:18:00:2045,-0.012,0.009,0.999,-0.061,-0.122,0,0.505,0.813,51.883,-48.2,-47,-5.013,28.5,0.89917,0.00082,0.00833,0.43738
 13:43:39.949,eb:33:2e:f9:57:b5, 2085-97-230 255:18:00:2042,-0.012,0.009,0.998,-0.061,-0.122,0,0.505,0.813,51.883,-48.2,-47,-5.013,28.5,0.89917,0.00082,0.00833,0.43738
 13:43:39.949,eb:33:2e:f9:57:b5, 2085-97-230 255:18:00:2043,-0.013,0.009,0.997,-0.061,-0.061,0,0.505,0.813,51.883,-48.2,-47,-5.013,28.5,0.89917,0.00082,0.00833,0.43738
 13:43:39.949,eb:33:2e:f9:57:b5, 2085-97-230 255:19:00:2044,-0.013,0.009,0.998,0,-0.061,0,0.505,0.813,51.883,-48.2,-47,-5.013,28.5,0.89917,0.00082,0.00833,0.43738
 13:43:40.004,eb:33:2e:f9:57:b5, 2085-97-230 255:16:00:2040,-0.014,0.008,0.997,-0.122,-0.061,0,0.505,0.813,51.883,-47.2,-46.3,-3.58,28.5,0.89917,0.00082,0.00833,0.43738
 13:43:40.005,eb:33:2e:f9:57:b5, 2085-97-230 255:19:00:2043,-0.013,0.008,0.997,-0.061,-0.061,0,0.505,0.813,51.883,-47.2,-46.3,-3.58,28.5,0.89917,0.00082,0.00833,0.43738
 13:43:40.005,eb:33:2e:f9:57:b5, 2085-97-231 255:19:00:2042,-0.013,0.008,0.997,-0.061,-0.061,0,0.505,0.813,51.883,-47.2,-46.3,-3.58,28.5,0.89917,0.00082,0.00833,0.43738
 13:43:40.005,eb:33:2e:f9:57:b5, 2085-97-230 255:17:00:2042,-0.012,0.008,0.998,-0.122,0,-0.061,0.505,0.813,51.883,-47.2,-46.3,-3.58,28.5,0.89917,0.00082,0.00833,0.43738
 13:43:40.005,eb:33:2e:f9:57:b5, 2085-97-230 255:17:00:2044,-0.013,0.008,0.997,-0.122,0,-0.061,0.505,0.813,51.883,-47.2,-46.3,-3.58,28.5,0.89917,0.00082,0.00833,0.43738
 13:43:40.005,eb:33:2e:f9:57:b5, 2085-97-230 255:17:00:2042,-0.013,0.008,0.997,0,0,-0.061,0.505,0.813,51.883,-47.2,-46.3,-3.58,28.5,0.89917,0.00082,0.00833,0.43738
 13:43:40.005,eb:33:2e:f9:57:b5, 2085-97-230 255:16:00:2042,-0.014,0.009,0.997,0,-0.061,0,0.505,0.813,51.883,-47.2,-46.3,-3.58,28.5,0.89917,0.00082,0.00833,0.43738
 13:43:40.005,eb:33:2e:f9:57:b5, 2085-97-227 255:15:00:2041,-0.013,0.008,0.997,0,-0.061,0,0.505,0.813,51.883,-47.2,-46.3,-3.58,28.5,0.89917,0.00082,0.00833,0.43738
 13:43:40.062,eb:33:2e:f9:57:b5, 2085-97-229 255:16:00:2043,-0.014,0.008,0.997,0,-0.061,0,0.505,0.813,51.883,-47.2,-46.3,-3.58,28.5,0.89917,0.00082,0.00833,0.43738
 13:43:40.062,eb:33:2e:f9:57:b5, 2085-113-81 00:24:115:028,-0.014,0.009,0.997,0,-0.061,-0.061,0.505,0.813,51.883,-47.2,-46.3,-3.58,28.5,0.89917,0.00082,0.00833,0.43738
 13:43:40.062,eb:33:2e:f9:57:b5, 2085-97-229 255:18:00:2042,-0.013,0.009,0.997,0,-0.122,-0.061,0.505,0.813,51.883,-47.2,-46.3,-3.58,28.5,0.89917,0.00082,0.00833,0.43738
 13:43:40.062,eb:33:2e:f9:57:b5, 2085-97-229 255:17:00:2040,-0.015,0.008,0.997,0,-0.122,-0.061,0.505,0.813,51.883,-47.2,-46.3,-3.58,28.5,0.89917,0.00082,0.00833,0.43738
 13:43:40.093,eb:33:2e:f9:57:b5, 2085-97-225 255:15:00:2037,-0.016,0.007,0.995,0,-0.244,-0.122,0.505,0.813,51.883,-47.2,-46.3,-3.58,28.5,0.89917,0.00085,0.0083,0.43738
 13:43:40.093,eb:33:2e:f9:57:b5, 2085-97-221 255:15:00:2028,-0.023,0.008,0.993,0,-0.366,-0.061,0.505,0.813,51.883,-47.2,-46.3,-3.58,28.5,0.89917,0.00085,0.0083,0.43738
 13:43:40.093,eb:33:2e:f9:57:b5, 2085-97-197 255:07:00:2005,-0.021,0.006,0.984,-0.061,-0.793,0,0.505,0.813,51.883,-47.2,-46.3,-3.58,28.5,0.89917,0.00085,0.0083,0.43738
 13:43:40.093,eb:33:2e:f9:57:b5, 2085-97-242 255:19:00:2046,-0.013,0.005,0.986,-0.183,-1.526,0.854,0.505,0.813,51.883,-47.2,-46.3,-3.58,28.5,0.89917,0.00085,0.0083,0.43738
 13:43:40.182,eb:33:2e:f9:57:b5, 2085-97-185 255:03:00:2010,-0.026,0.009,0.999,0.061,-1.404,0.61,0.505,0.813,51.883,-47.2,-46.3,-3.58,28.5,0.89917,0.00085,0.0083,0.43738
 13:43:40.182,eb:33:2e:f9:57:b5, 2085-97-228 255:16:00:2032,-0.019,0.004,0.982,0.305,-2.747,0.854,0.505,0.813,51.883,-47.2,-46.3,-3.58,28.5,0.89917,0.00085,0.0083,0.43738
 13:43:40.182,eb:33:2e:f9:57:b5, 2085-97-204 255:15:00:2022,-0.021,0.007,0.993,0.61,-2.93,0.366,0.511,0.78,51.888,-47.2,-46.3,-3.58,28.5,0.89917,0.00085,0.0083,0.43738
 13:43:40.182,eb:33:2e:f9:57:b5, 2085-97-214 255:23:00:2014,-0.024,0.009,0.986,0.732,-3.723,-0.061,0.516,0.747,51.888,-47.2,-46.3,-3.58,28.5,0.89917,0.00085,0.0083,0.43738
 13:43:40.214,eb:33:2e:f9:57:b5, 2085-97-202 255:25:00:2006,-0.015,0.014,0.978,0.427,-4.517,-0.61,0.522,0.709,51.883,-47.2,-46.3,-3.58,28.5,0.89917,0.00085,0.0083,0.43738
 13:43:40.214,eb:33:2e:f9:57:b5, 2085-97-224 255:12:00:2025,-0.021,0.009,0.992,0.305,-5.493,-0.916,0.527,0.654,51.877,-47.2,-46.3,-3.58,28.5,0.89917,0.00085,0.0083,0.43738
 13:43:40.214,eb:33:2e:f9:57:b5, 2085-97-222 255:15:00:2006,-0.017,0.004,0.982,0.61,-6.47,-1.709,0.533,0.593,51.861,-47.2,-46.3,-3.58,28.5,0.89917,0.00085,0.0083,0.43738
 13:43:40.214,eb:33:2e:f9:57:b5, 2085-97-224 255:28:00:2006,-0.013,0.011,0.974,0.977,-7.507,-2.686,0.538,0.527,51.839,-47.2,-46.3,-3.58,28.5,0.89917,0.00085,0.0083,0.43738
 13:43:40.214,eb:33:2e:f9:57:b5, 2085-97-217 255:41:00:2005,-0.008,0.018,0.986,0.854,-8.179,-3.479,0.549,0.445,51.806,-47.2,-46.3,-3.58,28.5,0.89917,0.00085,0.0083,0.43738
 13:43:40.214,eb:33:2e:f9:57:b5, 2085-97-250 255:43:00:2014,-0.004,0.021,0.984,0.671,-8.667,-4.883,0.56,0.363,51.762,-47.2,-46.3,-3.58,28.5,0.89917,0.00085,0.0083,0.43738
 13:43:40.215,eb:33:2e:f9:57:b5, 2085-97-242 255:45:00:2015,-0.009,0.019,0.985,0.427,-8.972,-5.676,0.566,0.275,51.707,-47.2,-46.3,-3.58,28.5,0.89917,0.00085,0.0083,0.43738
 13:43:40.215,eb:33:2e:f9:57:b5, 2085-97-246 255:38:00:2028,0.002,0.018,0.988,0.061,-9.277,-6.287,0.566,0.181,51.647,-47.2,-46.3,-3.58,28.5,0.89917,0.00085,0.0083,0.43738
 13:43:40.273,eb:33:2e:f9:57:b5, 2085-97-19 00:30:00:2057,0.012,0.014,0.997,-0.183,-9.094,-6.714,0.566,0.093,51.581,-47.2,-46.3,-3.58,28.5,0.89917,0.00085,0.0083,0.43738
 13:43:40.273,eb:33:2e:f9:57:b5, 2085-97-18 00:30:00:2056,0.006,0.014,1.008,-0.183,-8.423,-7.141,0.566,0.005,51.509,-47.2,-46.3,-3.58,28.5,0.89917,0.00085,0.0083,0.43738
 13:43:40.273,eb:33:2e:f9:57:b5, 2085-97-12 00:08:00:2073,0.014,0.011,1.006,-0.183,-8.057,-7.202,0.56,-0.071,51.438,-47.2,-46.3,-3.58,28.5,0.89917,0.00085,0.0083,0.43738
 13:43:40.273,eb:33:2e:f9:57:b5, 2085-97-49 00:19:00:2083,0.021,0.006,1.015,-0.061,-7.629,-6.897,0.56,-0.148,51.367,-47.2,-46.3,-3.58,28.5,0.89917,0.00085,0.0083,0.43738
 13:43:40.331,eb:33:2e:f9:57:b5, 2085-97-38 00:24:00:2070,0.012,0.011,1.013,0,-6.409,-6.653,0.56,-0.22,51.295,-47.2,-46.3,-3.58,28.5,0.89917,0.00085,0.0083,0.43738
 13:43:40.331,eb:33:2e:f9:57:b5, 2085-97-24 00:16:00:2064,0.017,0.009,1.005,0.122,-5.859,-6.592,0.56,-0.28,51.229,-47.2,-46.3,-3.58,28.5,0.89917,0.00085,0.0083,0.43738
 13:43:40.331,eb:33:2e:f9:57:b5, 2085-97-37 00:11:00:2068,0.018,0.008,1.01,0.122,-5.249,-6.531,0.566,-0.335,51.163,-47.2,-46.3,-3.58,28.5,0.89917,0.00085,0.0083,0.43738
 13:43:40.331,eb:33:2e:f9:57:b5, 2085-97-41 00:18:00:2071,0.019,0.006,1.008,0.244,-4.639,-5.798,0.566,-0.385,51.097,-47.2,-46.3,-3.58,28.5,0.89917,0.00085,0.0083,0.43738
 13:43:40.364,eb:33:2e:f9:57:b5, 2085-97-23 00:04:00:2048,0.004,0.005,1.007,0.183,-3.784,-5.127,0.571,-0.423,51.042,-47.6,-45.9,-5.573,28.5,0.89917,0.00085,0.0083,0.43738
 13:43:40.364,eb:33:2e:f9:57:b5, 2085-97-10 00:05:00:2041,0.008,0.002,0.996,0.366,-3.845,-4.456,0.571,-0.461,50.999,-47.6,-45.9,-5.573,28.5,0.89917,0.00085,0.0083,0.43738
 13:43:40.364,eb:33:2e:f9:57:b5, 2085-97-26 00:04:00:2051,0.015,0.001,1,0.61,-4.211,-3.845,0.582,-0.5,50.955,-47.6,-45.9,-5.573,28.5,0.89917,0.00085,0.0083,0.43738
 13:43:40.364,eb:33:2e:f9:57:b5, 2085-97-26 00:07:00:2049,0.014,0.007,1.004,0.549,-3.845,-2.869,0.588,-0.538,50.922,-47.6,-45.9,-5.573,28.5,0.89917,0.00085,0.0083,0.43738
 13:43:40.393,eb:33:2e:f9:57:b5, 2085-97-42 00:255:255:2065,0.023,0,1.002,0.732,-3.723,-1.953,0.593,-0.577,50.894,-47.6,-45.9,-5.573,28.5,0.89917,0.00085,0.0083,0.43738
 13:43:40.393,eb:33:2e:f9:57:b5, 2085-97-49 00:17:00:2070,0.024,0.001,1.01,0.916,-3.357,-0.854,0.604,-0.615,50.883,-47.6,-45.9,-5.573,28.5,0.89917,0.00085,0.0083,0.43738
 13:43:40.393,eb:33:2e:f9:57:b5, 2085-97-44 00:19:00:2067,0.022,0.011,1.011,0.366,-2.563,0.183,0.61,-0.643,50.878,-47.6,-45.9,-5.573,28.5,0.89917,0.00085,0.0083,0.43738
 13:43:40.393,eb:33:2e:f9:57:b5, 2085-97-37 00:10:00:2057,0.019,0.006,1.008,0.122,-2.075,1.099,0.615,-0.665,50.889,-47.6,-45.9,-5.573,28.5,0.89917,0.00085,0.0083,0.43738
 13:43:40.423,eb:33:2e:f9:57:b5, 2085-97-29 00:16:00:2042,0.013,0.007,1.003,0.061,-1.831,1.892,0.615,-0.687,50.905,-47.6,-45.9,-5.573,28.5,0.89917,0.00085,0.0083,0.43738
 13:43:40.423,eb:33:2e:f9:57:b5, 2085-97-26 00:11:00:2031,0.013,0.008,0.993,0.122,-1.953,2.197,0.615,-0.703,50.922,-47.6,-45.9,-5.573,28.5,0.89917,0.00085,0.0083,0.43738
 13:43:40.423,eb:33:2e:f9:57:b5, 2085-97-27 00:17:00:2026,0.012,0.005,0.99,0.427,-2.075,2.441,0.621,-0.725,50.949,-47.6,-45.9,-5.573,28.5,0.89917,0.00085,0.0083,0.43738
 13:43:40.423,eb:33:2e:f9:57:b5, 2085-97-11 00:16:00:2014,0.004,0.01,0.988,0.61,-2.136,2.502,0.626,-0.747,50.971,-47.6,-45.9,-5.573,28.5,0.89917,0.00085,0.0083,0.43738
 13:43:40.454,eb:33:2e:f9:57:b5, 2085-97-11 00:06:00:2015,0.004,0.003,0.983,1.099,-2.808,2.319,0.632,-0.775,50.999,-47.6,-45.9,-5.573,28.5,0.90247,0.00803,-0.00378,0.43057
 13:43:40.455,eb:33:2e:f9:57:b5, 2085-97-13 00:04:00:2026,0.013,0.001,0.983,1.892,-3.723,2.014,0.648,-0.807,51.021,-47.6,-45.9,-5.573,28.5,0.90247,0.00803,-0.00378,0.43057
 13:43:40.455,eb:33:2e:f9:57:b5, 2085-97-26 00:30:00:2044,0.021,0.009,0.995,2.441,-4.333,1.892,0.67,-0.846,51.037,-47.6,-45.9,-5.573,28.5,0.90247,0.00803,-0.00378,0.43057
 13:43:40.455,eb:33:2e:f9:57:b5, 2085-97-39 00:29:00:2063,0.02,0.018,1.006,2.258,-4.089,1.831,0.698,-0.89,51.059,-47.6,-45.9,-5.573,28.5,0.90247,0.00803,-0.00378,0.43057
 13:43:40.542,eb:33:2e:f9:57:b5, 2085-97-59 00:38:00:2077,0.033,0.016,1.008,1.892,-4.333,2.197,0.72,-0.934,51.075,-47.6,-45.9,-5.573,28.5,0.90247,0.00803,-0.00378,0.43057
 13:43:40.542,eb:33:2e:f9:57:b5, 2085-97-65 00:31:00:2078,0.029,0.018,1.016,1.221,-3.418,2.625,0.731,-0.972,51.103,-47.6,-45.9,-5.573,28.5,0.90247,0.00803,-0.00378,0.43057
 13:43:40.542,eb:33:2e:f9:57:b5, 2085-97-58 00:32:00:2068,0.029,0.017,1.011,1.038,-2.625,2.563,0.742,-1,51.125,-47.6,-45.9,-5.573,28.5,0.90247,0.00803,-0.00378,0.43057
 13:43:40.542,eb:33:2e:f9:57:b5, 2085-97-63 00:30:00:2072,0.035,0.013,1.011,0.977,-2.014,2.319,0.753,-1.027,51.152,-47.6,-45.9,-5.573,28.5,0.90247,0.00803,-0.00378,0.43057
 13:43:40.544,eb:33:2e:f9:57:b5, 2085-97-68 00:36:00:2075,0.029,0.02,1.014,0.732,-1.038,2.319,0.764,-1.038,51.174,-47.6,-45.9,-5.573,28.5,0.90247,0.00803,-0.00378,0.43057
 13:43:40.544,eb:33:2e:f9:57:b5, 2085-97-66 00:35:00:2067,0.03,0.016,1.011,0.427,0.122,1.953,0.769,-1.044,51.196,-47.6,-45.9,-5.573,28.5,0.90247,0.00803,-0.00378,0.43057
 13:43:40.544,eb:33:2e:f9:57:b5, 2085-97-55 00:44:00:2048,0.031,0.018,1.006,0.122,1.221,1.953,0.769,-1.038,51.213,-47.6,-45.9,-5.573,28.5,0.90247,0.00803,-0.00378,0.43057
 13:43:40.544,eb:33:2e:f9:57:b5, 2085-97-81 00:07:00:2097,0.035,0.018,1.007,0.305,2.625,1.099,0.775,-1.016,51.229,-47.6,-45.9,-5.573,28.5,0.90247,0.00803,-0.00378,0.43057
 13:43:40.572,eb:33:2e:f9:57:b5, 2085-97-80 00:42:00:2089,0.028,0,1.019,1.77,5.249,0.427,0.786,-0.972,51.235,-47.6,-45.9,-5.573,28.5,0.90247,0.00803,-0.00378,0.43057
 13:43:40.572,eb:33:2e:f9:57:b5, 2085-97-23 00:48:00:2032,-0.001,0.032,1.002,1.526,7.141,-0.427,0.802,-0.912,51.24,-47.6,-45.9,-5.573,28.5,0.90247,0.00803,-0.00378,0.43057
 13:43:40.572,eb:33:2e:f9:57:b5, 2085-97-03 00:18:00:2022,0.012,0.008,0.985,1.587,7.202,-1.221,0.818,-0.835,51.229,-47.6,-45.9,-5.573,28.5,0.90247,0.00803,-0.00378,0.43057
 13:43:40.572,eb:33:2e:f9:57:b5, 2085-97-27 00:38:00:2047,0.013,0.015,0.997,2.075,6.47,-1.587,0.835,-0.769,51.218,-47.6,-45.9,-5.573,28.5,0.90247,0.00803,-0.00378,0.43057
 13:43:40.633,eb:33:2e:f9:57:b5, 2085-97-34 00:36:00:2049,0.018,0.02,0.994,1.587,6.47,-1.77,0.857,-0.703,51.202,-47.6,-45.9,-5.573,28.5,0.90247,0.00803,-0.00378,0.43057
 13:43:40.633,eb:33:2e:f9:57:b5, 2085-97-56 00:55:00:2065,0.026,0.02,1.002,1.465,6.775,-1.953,0.873,-0.637,51.18,-47.6,-45.9,-5.573,28.5,0.90247,0.00803,-0.00378,0.43057
 13:43:40.633,eb:33:2e:f9:57:b5, 2085-97-55 00:58:00:2068,0.022,0.023,1.009,1.16,7.69,-2.502,0.884,-0.56,51.158,-47.6,-45.9,-5.573,28.5,0.90247,0.00803,-0.00378,0.43057
 13:43:40.633,eb:33:2e:f9:57:b5, 2085-97-36 00:42:00:2065,0.03,0.025,1.009,0.916,9.277,-3.235,0.895,-0.478,51.13,-47.6,-45.9,-5.573,28.5,0.90247,0.00803,-0.00378,0.43057
 13:43:40.693,eb:33:2e:f9:57:b5, 2085-97-78 00:33:00:2114,0.04,0.022,1.02,0.854,10.559,-3.845,0.906,-0.374,51.097,-47.6,-45.9,-5.573,28.5,0.90247,0.00803,-0.00378,0.43057
 13:43:40.693,eb:33:2e:f9:57:b5, 2085-97-77 00:45:00:2101,0.031,0.023,1.029,0.854,12.39,-4.028,0.917,-0.258,51.059,-47.6,-45.9,-5.573,28.5,0.90247,0.00803,-0.00378,0.43057
 13:43:40.693,eb:33:2e:f9:57:b5, 2085-97-51 00:57:00:2093,0.023,0.028,1.022,0.549,13.428,-3.723,0.923,-0.126,51.021,-47.6,-45.9,-5.573,28.5,0.90247,0.00803,-0.00378,0.43057
 13:43:40.693,eb:33:2e:f9:57:b5, 2085-97-58 00:46:00:2119,0.041,0.025,1.027,0.366,14.587,-3.54,0.928,0.011,50.988,-47.6,-45.9,-5.573,28.5,0.90247,0.00803,-0.00378,0.43057
 13:43:40.693,eb:33:2e:f9:57:b5, 2085-113-58 00:13:228:-7275,0.043,0.031,1.037,-0.122,15.686,-2.136,0.928,0.165,50.96,-47.6,-45.9,-5.573,28.5,0.90247,0.00803,-0.00378,0.43057
 13:43:40.695,eb:33:2e:f9:57:b5, 2085-97-69 00:40:00:2140,0.007,0.029,1.037,-0.732,16.052,-1.038,0.928,0.242,50.955,-47.6,-45.9,-5.573,28.5,0.90247,0.00803,-0.00378,0.43057
 13:43:40.695,eb:33:2e:f9:57:b5, 2085-97-56 00:18:00:2133,0.062,-0.004,1.04,-1.465,16.846,1.831,0.917,0.412,50.96,-47.6,-45.9,-5.573,28.5,0.90247,0.00803,-0.00378,0.43057
 13:43:40.695,eb:33:2e:f9:57:b5, 2085-97-107 00:95:00:2130,0.051,0.019,1.078,-2.136,18.311,5.676,0.895,0.577,51.004,-47.6,-45.9,-5.573,28.5,0.90247,0.00803,-0.00378,0.43057
 13:43:40.695,eb:33:2e:f9:57:b5, 2085-97-138 00:39:00:2288,0.104,0.048,1.058,-2.319,19.165,7.324,0.873,0.764,51.075,-47.6,-45.9,-5.573,28.5,0.90247,0.00803,-0.00378,0.43057
 13:43:40.754,eb:33:2e:f9:57:b5, 2085-97-183 00:109:255:2886,0.098,-0.021,1.265,-3.174,28.015,12.329,0.857,0.983,51.174,-47.7,-48.5,-7.453,28.5,0.90247,0.00803,-0.00378,0.43057
 13:43:40.754,eb:33:2e:f9:57:b5, 2085-97-65 01:193:255:3443,0.167,0.025,1.293,-5.005,48.157,16.235,0.802,1.395,51.35,-47.7,-48.5,-7.453,28.5,0.90247,0.00803,-0.00378,0.43057
 13:43:40.754,eb:33:2e:f9:57:b5, 2085-97-242 01:122:254:4946,0.104,-0.073,1.842,-1.099,90.088,13.672,0.775,2.087,51.498,-47.7,-48.5,-7.453,28.5,0.90247,0.00803,-0.00378,0.43057
 13:43:40.754,eb:33:2e:f9:57:b5, 2085-97-151 01:174:254:4469,0.316,-0.615,2.679,-34.424,190.063,40.649,0.593,3.516,51.735,-47.7,-48.5,-7.453,28.5,0.90247,0.00803,-0.00378,0.43057
 13:43:40.782,eb:33:2e:f9:57:b5, 2085-97-101 01:126:02:3217,0.382,0.065,1.871,-39.673,231.689,44.8,0.253,5.674,52.185,-47.7,-48.5,-7.453,28.5,0.89566,-0.02524,0.0535,0.44064
 13:43:40.782,eb:33:2e:f9:57:b5, 2085-97-183 03:99:02:3921,0.387,0.418,1.836,-7.996,197.144,22.461,0.049,7.778,52.537,-47.7,-48.5,-7.453,28.5,0.89566,-0.02524,0.0535,0.44064
 13:43:40.782,eb:33:2e:f9:57:b5, 2085-97-20 03:105:01:4258,0.419,0.226,1.957,1.587,214.355,14.343,0.066,9.844,52.707,-47.7,-48.5,-7.453,28.5,0.89566,-0.02524,0.0535,0.44064
 13:43:40.782,eb:33:2e:f9:57:b5, 2085-97-255 03:97:01:4433,0.594,0.181,2.117,3.723,238.892,13.184,0.126,12.118,52.844,-47.7,-48.5,-7.453,28.5,0.89566,-0.02524,0.0535,0.44064
 13:43:40.813,eb:33:2e:f9:57:b5, 2085-97-158 04:177:01:4658,0.625,0.15,2.273,-11.169,277.527,17.395,0.137,14.705,53.009,-47.7,-48.5,-7.453,28.5,0.89566,-0.02524,0.0535,0.44064
 13:43:40.813,eb:33:2e:f9:57:b5, 2085-97-78 05:199:02:4605,0.625,0.383,2.337,-41.199,319.153,24.841,-0.06,17.704,53.245,-47.7,-48.5,-7.453,28.5,0.89566,-0.02524,0.0535,0.44064
 13:43:40.813,eb:33:2e:f9:57:b5, 2085-97-38 05:218:02:3983,0.656,0.379,2.075,-69.092,353.455,35.461,-0.533,21.11,53.547,-47.7,-48.5,-7.453,28.5,0.89566,-0.02524,0.0535,0.44064
 13:43:40.813,eb:33:2e:f9:57:b5, 2085-97-137 05:195:00:4161,0.408,0.35,1.935,-105.164,372.864,50.781,-1.252,24.747,53.954,-47.7,-48.5,-7.453,28.5,0.89566,-0.02524,0.0535,0.44064
 13:43:40.874,eb:33:2e:f9:57:b5, 2085-97-68 03:202:243:4397,0.185,-0.337,2.351,-130.371,427.368,113.647,-2.153,28.768,54.69,-47.7,-48.5,-7.453,28.5,0.89566,-0.02524,0.0535,0.44064
 13:43:40.874,eb:33:2e:f9:57:b5, 2085-97-50 04:185:253:-2136,1.109,-1.431,0.287,-61.707,381.653,292.969,-1.972,33.146,56.975,-47.7,-48.5,-7.453,28.5,0.89566,-0.02524,0.0535,0.44064
 13:43:40.874,eb:33:2e:f9:57:b5, 2085-97-52 10:130:02:-133,1.45,0.328,-0.93,19.104,106.995,376.465,0.225,35.42,61.106,-47.7,-48.5,-7.453,28.5,0.89566,-0.02524,0.0535,0.44064
 13:43:40.874,eb:33:2e:f9:57:b5, 2085-97-217 11:228:03:2945,1.468,0.362,0.924,84.9,-3.296,409.18,3.647,35.574,66,-47.7,-48.5,-7.453,28.5,0.89566,-0.02524,0.0535,0.44064
 13:43:40.902,eb:33:2e:f9:57:b5, 2085-97-135 11:190:05:2384,1.461,0.602,1.519,109.619,17.334,409.485,7.592,35.211,71.032,-47.7,-48.5,-7.453,28.5,0.89566,-0.02524,0.0535,0.44064
 13:43:40.902,eb:33:2e:f9:57:b5, 2085-97-248 11:96:06:1239,1.502,0.792,0.807,102.356,13.428,380.31,11.415,34.766,75.833,-47.7,-48.5,-7.453,28.5,0.89566,-0.02524,0.0535,0.44064
 13:43:40.902,eb:33:2e:f9:57:b5, 2085-97-211 11:25:06:1169,1.416,0.783,0.538,94.604,-26.733,334.045,14.749,33.882,80.013,-47.7,-48.5,-7.453,28.5,0.89566,-0.02524,0.0535,0.44064
 13:43:40.902,eb:33:2e:f9:57:b5, 2085-97-170 10:02:05:1525,1.252,0.711,0.65,91.125,-57.983,279.663,17.512,32.596,83.353,-47.7,-48.5,-7.453,28.5,0.89566,-0.02524,0.0535,0.44064
 13:43:40.935,eb:33:2e:f9:57:b5, 2085-97-31 09:240:02:1696,1.12,0.515,0.833,79.163,-66.162,230.957,19.726,31.179,85.924,-47.7,-48.5,-7.453,28.5,0.89566,-0.02524,0.0535,0.44064
 13:43:40.935,eb:33:2e:f9:57:b5, 2085-97-77 08:163:01:1596,0.976,0.286,0.844,55.908,-62.744,194.641,21.423,29.828,87.946,-47.7,-48.5,-7.453,28.5,0.89566,-0.02524,0.0535,0.44064
 13:43:40.935,eb:33:2e:f9:57:b5, 2085-97-127 07:185:00:1427,0.902,0.141,0.733,29.358,-63.782,167.114,22.632,28.575,89.572,-47.7,-48.5,-7.453,28.5,0.89566,-0.02524,0.0535,0.44064
 13:43:40.935,eb:33:2e:f9:57:b5, 2085-97-213 06:234:255:1220,0.791,0.039,0.657,9.033,-67.749,144.47,23.423,27.361,90.89,-47.7,-48.5,-7.453,28.5,0.89566,-0.02524,0.0535,0.44064
 13:43:40.993,eb:33:2e:f9:57:b5, 2085-97-202 05:246:254:997,0.666,-0.064,0.524,-5.432,-78.613,126.709,23.901,26.153,91.939,-47.7,-48.5,-7.453,28.5,0.89566,-0.02524,0.0535,0.44064
 13:43:40.993,eb:33:2e:f9:57:b5, 2085-97-239 04:214:253:1039,0.571,-0.203,0.494,-19.958,-91.736,117.126,24.126,24.868,92.769,-47.7,-48.5,-7.453,28.5,0.89566,-0.02524,0.0535,0.44064
 13:43:40.993,eb:33:2e:f9:57:b5, 2085-97-47 04:28:253:1038,0.41,-0.321,0.509,-36.621,-99.06,117.249,24.137,23.516,93.505,-47.7,-48.5,-7.453,28.5,0.89566,-0.02524,0.0535,0.44064
 13:43:40.993,eb:33:2e:f9:57:b5, 2085-97-118 02:158:251:1309,0.364,-0.477,0.589,-53.894,-101.562,127.197,23.972,22.083,94.257,-47.7,-48.5,-7.453,28.5,0.89566,-0.02524,0.0535,0.44064
 13:43:41.024,eb:33:2e:f9:57:b5, 2085-97-181 02:184:252:927,0.398,-0.434,0.567,-67.688,-105.042,142.456,23.67,20.599,95.164,-54.3,-44.3,-13.427,28.5,0.89566,-0.02524,0.0535,0.44064
 13:43:41.024,eb:33:2e:f9:57:b5, 2085-97-96 03:182:253:819,0.414,-0.356,0.395,-74.036,-125.183,154.968,23.28,18.946,96.141,-54.3,-44.3,-13.427,28.5,0.89566,-0.02524,0.0535,0.44064
 13:43:41.024,eb:33:2e:f9:57:b5, 2085-97-25 03:46:254:1108,0.325,-0.226,0.425,-76.904,-150.757,159.485,22.824,17.045,97.097,-54.3,-44.3,-13.427,28.5,0.89566,-0.02524,0.0535,0.44064
 13:43:41.024,eb:33:2e:f9:57:b5, 2085-97-40 02:245:253:1595,0.23,-0.25,0.67,-87.097,-159.79,165.833,22.258,14.963,98.031,-54.3,-44.3,-13.427,28.5,0.89566,-0.02524,0.0535,0.44064
 13:43:41.114,eb:33:2e:f9:57:b5, 2085-97-157 01:121:254:1643,0.167,-0.241,0.822,-101.624,-155.823,175.049,21.555,12.859,99.058,-54.3,-44.3,-13.427,28.5,0.89566,-0.02524,0.0535,0.44064
 13:43:41.114,eb:33:2e:f9:57:b5, 2085-97-13 01:12:00:1499,0.074,-0.108,0.755,-114.38,-158.569,179.932,20.693,10.75,100.179,-54.3,-44.3,-13.427,28.5,0.89566,-0.02524,0.0535,0.44064
 13:43:41.114,eb:33:2e:f9:57:b5, 2085-97-18 00:65:02:1655,-0.073,0.159,0.748,-121.582,-170.654,174.561,19.688,8.591,101.299,-54.3,-44.3,-13.427,28.5,0.89566,-0.02524,0.0535,0.44064
 13:43:41.114,eb:33:2e:f9:57:b5, 2085-97-178 254:247:03:1975,-0.25,0.39,0.887,-122.375,-177.795,162.17,18.6,6.378,102.321,-54.3,-44.3,-13.427,28.5,0.89566,-0.02524,0.0535,0.44064
 13:43:41.114,eb:33:2e:f9:57:b5, 2085-97-64 253:186:05:2207,-0.445,0.605,1.035,-124.268,-174.194,147.949,17.452,4.219,103.25,-54.3,-44.3,-13.427,28.5,0.89566,-0.02524,0.0535,0.44064
 13:43:41.114,eb:33:2e:f9:57:b5, 2085-97-142 251:125:07:2276,-0.674,0.828,1.093,-125.061,-165.283,132.324,16.243,2.186,104.09,-54.3,-44.3,-13.427,28.5,0.89566,-0.02524,0.0535,0.44064
 13:43:41.114,eb:33:2e:f9:57:b5, 2085-97-128 249:111:09:2386,-0.952,1.054,1.146,-121.643,-157.043,116.821,15.024,0.308,104.854,-54.3,-44.3,-13.427,28.5,0.89566,-0.02524,0.0535,0.44064
 13:43:41.114,eb:33:2e:f9:57:b5, 2085-97-79 247:190:11:2544,-1.224,1.321,1.188,-112.122,-148.682,101.624,13.843,-1.445,105.524,-54.3,-44.3,-13.427,28.5,0.89566,-0.02524,0.0535,0.44064
 13:43:41.173,eb:33:2e:f9:57:b5, 2085-97-25 245:245:13:2743,-1.492,1.612,1.305,-93.384,-133.301,85.815,12.794,-3.032,106.1,-54.3,-44.3,-13.427,28.5,0.62878,0.05469,0.1694,0.75687
 13:43:41.173,eb:33:2e:f9:57:b5, 2085-97-28 243:156:15:2593,-1.704,1.858,1.332,-65.857,-109.558,71.411,11.97,-4.378,106.606,-54.3,-44.3,-13.427,28.5,0.62878,0.05469,0.1694,0.75687
 13:43:41.173,eb:33:2e:f9:57:b5, 2085-97-161 241:167:16:2318,-1.882,2.04,1.189,-29.602,-86.914,58.167,11.464,-5.46,107.04,-54.3,-44.3,-13.427,28.5,0.62878,0.05469,0.1694,0.75687
 13:43:41.173,eb:33:2e:f9:57:b5, 2085-97-29 235:199:40:3970,-1.883,2.016,1.114,21.362,-67.139,50.659,11.398,-6.312,107.397,-54.3,-44.3,-13.427,28.5,0.62878,0.05469,0.1694,0.75687
 13:43:41.176,eb:33:2e:f9:57:b5, 2085-97-145 239:118:30:6336,-2.073,3.854,4.03,-75.5,89.111,-27.161,11.294,-6.663,107.331,-54.3,-44.3,-13.427,28.5,0.62878,0.05469,0.1694,0.75687
 13:43:41.176,eb:33:2e:f9:57:b5, 2085-97-72 228:02:55:8063,-4.399,4.119,2.902,-143.738,335.144,-91.37,10.02,-4.235,107.133,-54.3,-44.3,-13.427,28.5,0.62878,0.05469,0.1694,0.75687
 13:43:41.176,eb:33:2e:f9:57:b5, 2085-97-10 209:21:08:-3506,-2.619,5.424,3.254,-159.607,495.361,-208.618,8.696,0.456,106.282,-54.3,-44.3,-13.427,28.5,0.62878,0.05469,0.1694,0.75687
 13:43:41.176,eb:33:2e:f9:57:b5, 2085-97-199 235:138:245:-1750,-2.554,0.145,-1.332,-73.425,142.151,-60.73,7.927,3.087,105.601,-54.3,-44.3,-13.427,28.5,0.62878,0.05469,0.1694,0.75687
 13:43:41.294,eb:33:2e:f9:57:b5, 2085-97-107 248:129:245:1711,-1.308,-2.124,-0.126,-98.389,61.584,13.428,6.839,4.164,105.584,-54.3,-44.3,-13.427,28.5,0.62878,0.05469,0.1694,0.75687
 13:43:41.294,eb:33:2e:f9:57:b5, 2085-97-213 248:230:250:2802,-0.386,-1.516,1.26,-9.949,-26.489,24.414,6.328,4.301,105.76,-54.3,-44.3,-13.427,28.5,0.62878,0.05469,0.1694,0.75687
 13:43:41.294,eb:33:2e:f9:57:b5, 2085-97-236 254:70:02:1912,-0.061,0.082,0.903,11.23,-61.584,52.246,6.438,3.768,106.155,-54.3,-44.3,-13.427,28.5,0.62878,0.05469,0.1694,0.75687
 13:43:41.294,eb:33:2e:f9:57:b5, 2085-97-43 04:72:02:3098,1.192,-0.022,1.372,38.33,-89.783,40.405,6.713,2.884,106.501,-54.3,-44.3,-13.427,28.5,0.62878,0.05469,0.1694,0.75687
 13:43:41.294,eb:33:2e:f9:57:b5, 2085-97-223 09:217:08:2628,0.89,0.892,1.492,19.897,-16.418,21.362,7.037,2.307,106.776,-54.3,-44.3,-13.427,28.5,0.62878,0.05469,0.1694,0.75687
 13:43:41.294,eb:33:2e:f9:57:b5, 2085-97-221 04:80:05:2026,0.418,0.883,1.128,-17.09,58.777,-12.512,7.042,2.565,106.815,-54.3,-44.3,-13.427,28.5,0.62878,0.05469,0.1694,0.75687
 13:43:41.294,eb:33:2e:f9:57:b5, 2085-97-78 00:94:02:1520,-0.436,0.587,0.837,-48.767,102.844,-27.588,6.685,3.45,106.705,-54.3,-44.3,-13.427,28.5,0.62878,0.05469,0.1694,0.75687
 13:43:41.295,eb:33:2e:f9:57:b5, 2085-97-24 250:97:253:1364,-0.814,-0.096,0.707,-57.434,96.802,-26.062,6.108,4.515,106.534,-54.3,-44.3,-13.427,28.5,0.62878,0.05469,0.1694,0.75687
 13:43:41.297,eb:33:2e:f9:57:b5, 2085-97-164 250:215:252:1770,-0.493,-0.412,0.734,-33.752,39.673,-11.902,5.636,5.208,106.425,-54.3,-44.3,-13.427,28.5,0.62878,0.05469,0.1694,0.75687
 13:43:41.297,eb:33:2e:f9:57:b5, 2085-97-79 254:125:255:2347,0.067,-0.249,0.949,-12.756,-0.977,0.366,5.416,5.378,106.397,-54.3,-44.3,-13.427,28.5,0.62878,0.05469,0.1694,0.75687
 13:43:41.298,eb:33:2e:f9:57:b5, 2085-97-215 01:11:01:3044,0.262,0.075,1.359,-1.465,-4.089,1.16,5.356,5.312,106.408,-54.3,-44.3,-13.427,28.5,0.62878,0.05469,0.1694,0.75687
 13:43:41.298,eb:33:2e:f9:57:b5, 2085-97-169 01:15:01:2978,0.119,0.14,1.523,4.639,21.362,-4.7,5.378,5.405,106.397,-54.3,-44.3,-13.427,28.5,0.62878,0.05469,0.1694,0.75687
 13:43:41.413,eb:33:2e:f9:57:b5, 2085-97-150 255:45:00:2450,-0.201,0.095,1.364,8.728,40.894,-7.263,5.444,5.74,106.364,-54.3,-44.3,-13.427,28.5,0.62878,0.05469,0.1694,0.75687
 13:43:41.413,eb:33:2e:f9:57:b5, 2085-97-38 254:77:255:2364,-0.315,-0.057,1.092,14.038,36.377,-2.38,5.554,6.152,106.353,-54.3,-44.3,-13.427,28.5,0.62878,0.05469,0.1694,0.75687
 13:43:41.413,eb:33:2e:f9:57:b5, 2085-97-92 253:99:254:2738,-0.283,-0.156,1.215,29.541,19.348,6.165,5.773,6.427,106.397,-54.3,-44.3,-13.427,28.5,0.62878,0.05469,0.1694,0.75687
 13:43:41.413,eb:33:2e:f9:57:b5, 2085-97-13 254:253:253:3304,-0.193,-0.226,1.449,56.458,0.061,14.709,6.229,6.493,106.518,-54.3,-44.3,-13.427,28.5,0.62878,0.05469,0.1694,0.75687
 13:43:41.415,eb:33:2e:f9:57:b5, 2085-97-233 254:47:254:3702,-0.09,-0.214,1.725,87.524,-5.432,22.217,6.982,6.438,106.699,-54.3,-44.3,-13.427,28.5,0.62878,0.05469,0.1694,0.75687
 13:43:41.415,eb:33:2e:f9:57:b5, 2085-97-138 255:230:253:4369,0.019,-0.242,1.984,122.375,-3.296,27.222,8.08,6.345,106.941,-54.3,-44.3,-13.427,28.5,0.62878,0.05469,0.1694,0.75687
 13:43:41.415,eb:33:2e:f9:57:b5, 2085-97-128 00:121:253:4828,0.122,-0.307,2.268,158.325,15.869,31.372,9.531,6.367,107.243,-58.4,-25,-7.487,28.5,0.62878,0.05469,0.1694,0.75687
 13:43:41.415,eb:33:2e:f9:57:b5, 2085-97-110 01:155:253:5229,0.323,-0.327,2.459,198.975,39.185,33.752,11.376,6.581,107.617,-58.4,-25,-7.487,28.5,0.62878,0.05469,0.1694,0.75687
 13:43:41.417,eb:33:2e:f9:57:b5, 2085-97-07 03:147:253:5148,0.435,-0.379,2.565,241.943,78.552,35.278,13.651,7.075,108.083,-58.4,-25,-7.487,28.5,0.62878,0.05469,0.1694,0.75687
 13:43:41.417,eb:33:2e:f9:57:b5, 2085-97-245 03:122:254:4767,0.535,-0.202,2.467,273.499,117.493,28.503,16.326,7.96,108.66,-58.4,-25,-7.487,28.5,0.62878,0.05469,0.1694,0.75687
 13:43:41.417,eb:33:2e:f9:57:b5, 2085-97-137 04:52:255:4246,0.585,-0.166,2.248,296.57,154.175,15.015,19.292,9.212,109.297,-58.4,-25,-7.487,28.5,0.62878,0.05469,0.1694,0.75687
 13:43:41.417,eb:33:2e:f9:57:b5, 2085-97-161 04:182:00:3771,0.588,0.013,1.924,312.927,179.26,1.343,22.462,10.767,109.99,-58.4,-25,-7.487,28.5,0.62878,0.05469,0.1694,0.75687
 13:43:41.475,eb:33:2e:f9:57:b5, 2085-97-217 03:58:00:3659,0.327,0.084,1.884,331.543,195.801,-22.156,25.834,12.524,110.676,-58.4,-25,-7.487,28.5,0.62878,0.05469,0.1694,0.75687
 13:43:41.475,eb:33:2e:f9:57:b5, 2085-97-146 02:92:00:4030,0.279,0.11,1.805,337.646,200.989,-47.913,29.339,14.474,111.302,-58.4,-25,-7.487,28.5,0.62878,0.05469,0.1694,0.75687
 13:43:41.475,eb:33:2e:f9:57:b5, 2085-97-33 01:119:255:4022,0.079,-0.077,2.007,338.623,221.619,-58.228,32.899,16.556,111.94,-58.4,-25,-7.487,28.5,0.62878,0.05469,0.1694,0.75687
 13:43:41.475,eb:33:2e:f9:57:b5, 2085-97-206 01:213:00:3592,0.274,0.062,1.914,326.172,238.831,-62.866,36.475,18.82,112.813,-58.4,-25,-7.487,28.5,0.62878,0.05469,0.1694,0.75687
 13:43:41.503,eb:33:2e:f9:57:b5, 2085-113-81 00:56:71:1283,0.239,0.117,1.597,313.843,249.023,-65.491,40.051,21.132,113.884,-58.4,-25,-7.487,28.5,0.5564,0.03915,0.3761,0.73981
 13:43:41.503,eb:33:2e:f9:57:b5, 2085-97-231 01:53:02:3142,0.254,0.136,1.48,300.293,250.305,-67.261,41.797,22.297,114.494,-58.4,-25,-7.487,28.5,0.5564,0.03915,0.3761,0.73981
 13:43:41.503,eb:33:2e:f9:57:b5, 2085-97-76 02:21:01:3113,0.299,0.256,1.605,283.691,257.69,-69.641,45.247,24.604,115.845,-58.4,-25,-7.487,28.5,0.5564,0.03915,0.3761,0.73981
 13:43:41.503,eb:33:2e:f9:57:b5, 2085-97-94 02:149:01:1808,0.318,0.108,1.25,264.221,268.677,-62.988,48.686,26.9,117.504,-58.4,-25,-7.487,28.5,0.5564,0.03915,0.3761,0.73981
 13:43:41.533,eb:33:2e:f9:57:b5, 2085-97-02 04:234:00:1488,0.658,0.357,0.885,244.812,243.958,-66.406,52.059,29.026,119.279,-58.4,-25,-7.487,28.5,0.5564,0.03915,0.3761,0.73981
 13:43:41.533,eb:33:2e:f9:57:b5, 2085-97-113 04:173:255:1055,0.679,-0.014,0.544,216.492,220.154,-65.857,55.184,30.916,120.965,-58.4,-25,-7.487,28.5,0.5564,0.03915,0.3761,0.73981
 13:43:41.533,eb:33:2e:f9:57:b5, 2085-97-134 07:14:252:281,0.366,-0.203,0.452,212.646,199.036,-61.584,58.167,32.596,122.585,-58.4,-25,-7.487,28.5,0.5564,0.03915,0.3761,0.73981
 13:43:41.533,eb:33:2e:f9:57:b5, 2085-97-222 255:09:05:-3254,0.248,0.27,-0.918,205.505,160.217,-60.913,61.172,34.041,124.195,-58.4,-25,-7.487,28.5,0.5564,0.03915,0.3761,0.73981
 13:43:41.593,eb:33:2e:f9:57:b5, 2085-97-132 01:35:00:-093,0.099,0.195,-0.672,125.854,44.373,-70.923,63.089,35.107,124.755,-58.4,-25,-7.487,28.5,0.5564,0.03915,0.3761,0.73981
 13:43:41.593,eb:33:2e:f9:57:b5, 2085-97-142 00:166:00:1976,0.075,0.059,0.396,69.641,-18.921,-60.852,63.847,35.728,124.453,-58.4,-25,-7.487,28.5,0.5564,0.03915,0.3761,0.73981
 13:43:41.593,eb:33:2e:f9:57:b5, 2085-97-123 00:223:255:3226,0.015,0.044,1.339,27.1,-36.133,-36.133,63.918,36.013,123.832,-58.4,-25,-7.487,28.5,0.5564,0.03915,0.3761,0.73981
 13:43:41.593,eb:33:2e:f9:57:b5, 2085-97-32 00:235:254:3498,0.023,-0.076,1.663,8.545,-21.24,-6.592,63.814,36.063,123.393,-58.4,-25,-7.487,28.5,0.5564,0.03915,0.3761,0.73981
 13:43:41.623,eb:33:2e:f9:57:b5, 2085-97-111 00:159:254:3498,0.067,-0.175,1.706,9.583,-1.892,22.034,63.853,35.931,123.338,-58.4,-25,-7.487,28.5,0.5564,0.03915,0.3761,0.73981
 13:43:41.623,eb:33:2e:f9:57:b5, 2085-97-99 00:117:254:3766,-0.01,-0.171,1.738,27.588,-0.183,40.955,64.144,35.634,123.53,-58.4,-25,-7.487,28.5,0.5564,0.03915,0.3761,0.73981
 13:43:41.623,eb:33:2e:f9:57:b5, 2085-97-90 255:159:253:4350,-0.051,-0.239,1.985,55.542,-32.959,52.063,64.616,35.145,123.613,-58.4,-25,-7.487,28.5,0.5564,0.03915,0.3761,0.73981
 13:43:41.623,eb:33:2e:f9:57:b5, 2085-97-198 00:07:253:4622,0.272,-0.34,2.229,70.007,-75.012,59.082,65.072,34.382,123.261,-58.4,-25,-7.487,28.5,0.5564,0.03915,0.3761,0.73981
 13:43:41.654,eb:33:2e:f9:57:b5, 2085-97-26 03:145:252:3834,0.435,-0.411,2.156,43.03,-71.472,62.134,65.358,33.503,122.723,-58.4,-25,-7.487,28.5,0.5564,0.03915,0.3761,0.73981
 13:43:41.654,eb:33:2e:f9:57:b5, 2085-97-157 03:115:253:2453,0.475,-0.371,1.512,-12.573,-43.579,65.002,65.33,32.684,122.432,-58.4,-25,-7.487,28.5,0.5564,0.03915,0.3761,0.73981
 13:43:41.654,eb:33:2e:f9:57:b5, 2085-97-46 04:120:254:1998,0.573,-0.243,1.013,-61.951,-44.434,54.932,64.852,31.959,122.294,-58.4,-25,-7.487,28.5,0.5564,0.03915,0.3761,0.73981
 13:43:41.654,eb:33:2e:f9:57:b5, 2085-97-196 04:179:254:2020,0.608,-0.163,1.01,-88.379,-78.552,31.616,63.831,31.306,121.866,-58.4,-25,-7.487,28.5,0.5564,0.03915,0.3761,0.73981
 13:43:41.714,eb:33:2e:f9:57:b5, 2085-97-122 04:211:253:1603,0.516,-0.196,0.922,-101.685,-132.263,1.526,62.336,30.679,120.828,-58.4,-25,-7.487,28.5,0.5564,0.03915,0.3761,0.73981
 13:43:41.714,eb:33:2e:f9:57:b5, 2085-97-15 04:21:252:1258,0.505,-0.37,0.642,-117.065,-191.65,-28.503,60.331,30.015,119.053,-58.4,-25,-7.487,28.5,0.5564,0.03915,0.3761,0.73981
 13:43:41.714,eb:33:2e:f9:57:b5, 2085-97-144 03:00:250:1672,0.354,-0.627,0.709,-137.085,-224.121,-47.119,57.898,29.268,116.708,-58.4,-25,-7.487,28.5,0.5564,0.03915,0.3761,0.73981
 13:43:41.714,eb:33:2e:f9:57:b5, 2085-97-03 02:11:249:1866,0.202,-0.827,0.895,-161.438,-216.125,-50.171,55.206,28.449,114.269,-58.4,-25,-7.487,28.5,0.5564,0.03915,0.3761,0.73981
 13:43:41.744,eb:33:2e:f9:57:b5, 2085-97-120 01:183:249:1644,0.167,-0.843,0.876,-189.392,-186.218,-42.969,52.432,27.647,112.115,-44.4,-53.4,-19.16,28.5,0.5564,0.03915,0.3761,0.73981
 13:43:41.744,eb:33:2e:f9:57:b5, 2085-97-72 01:221:250:1223,0.168,-0.715,0.696,-213.623,-158.691,-36.316,49.576,26.873,110.358,-44.4,-53.4,-19.16,28.5,0.5564,0.03915,0.3761,0.73981
 13:43:41.744,eb:33:2e:f9:57:b5, 2085-97-121 01:251:251:920,0.217,-0.57,0.518,-226.196,-160.645,-37.72,46.659,26.098,108.776,-44.4,-53.4,-19.16,28.5,0.5564,0.03915,0.3761,0.73981
 13:43:41.744,eb:33:2e:f9:57:b5, 2085-97-251 01:87:252:948,0.259,-0.474,0.444,-233.765,-186.218,-44.189,43.605,25.148,107.073,-44.4,-53.4,-19.16,28.5,0.5564,0.03915,0.3761,0.73981
 13:43:41.804,eb:33:2e:f9:57:b5, 2085-97-205 01:94:252:1173,0.16,-0.441,0.503,-241.577,-211.975,-49.622,40.452,23.978,105.216,-44.4,-53.4,-19.16,28.5,0.5564,0.03915,0.3761,0.73981
 13:43:41.804,eb:33:2e:f9:57:b5, 2085-97-110 00:115:251:1738,-0.052,-0.508,0.708,-251.282,-235.291,-47.241,37.194,22.516,103.25,-44.4,-53.4,-19.16,28.5,0.5564,0.03915,0.3761,0.73981
 13:43:41.804,eb:33:2e:f9:57:b5, 2085-97-234 254:182:250:2437,-0.184,-0.63,1.009,-257.996,-241.882,-25.818,33.959,20.775,101.42,-44.4,-53.4,-19.16,28.5,0.5564,0.03915,0.3761,0.73981
 13:43:41.804,eb:33:2e:f9:57:b5, 2085-97-120 254:157:251:2944,-0.174,-0.632,1.353,-252.197,-226.44,11.353,30.916,18.82,100.02,-44.4,-53.4,-19.16,28.5,0.5564,0.03915,0.3761,0.73981
 13:43:41.833,eb:33:2e:f9:57:b5, 2085-97-217 254:240:253:2631,-0.111,-0.422,1.394,-237.305,-210.144,48.34,28.218,16.782,99.201,-44.4,-53.4,-19.16,28.5,0.64084,0.04828,0.31708,0.69739
 13:43:41.833,eb:33:2e:f9:57:b5, 2085-97-52 255:131:00:2589,-0.116,-0.09,1.226,-219.849,-214.722,70.007,25.807,14.606,98.773,-44.4,-53.4,-19.16,28.5,0.64084,0.04828,0.31708,0.69739
 13:43:41.833,eb:33:2e:f9:57:b5, 2085-97-197 254:160:02:3072,-0.199,0.205,1.374,-193.909,-222.656,76.233,23.687,12.299,98.525,-44.4,-53.4,-19.16,28.5,0.64084,0.04828,0.31708,0.69739
 13:43:41.833,eb:33:2e:f9:57:b5, 2085-97-199 253:128:04:3410,-0.377,0.447,1.61,-163.635,-220.032,71.106,21.868,9.948,98.339,-44.4,-53.4,-19.16,28.5,0.64084,0.04828,0.31708,0.69739
 13:43:41.864,eb:33:2e:f9:57:b5, 2085-97-13 252:23:06:3661,-0.622,0.668,1.717,-141.418,-209.473,60.303,20.336,7.712,98.179,-44.4,-53.4,-19.16,28.5,0.64084,0.04828,0.31708,0.69739
 13:43:41.864,eb:33:2e:f9:57:b5, 2085-97-07 250:80:07:4145,-0.883,0.839,1.896,-131.592,-195.007,48.523,18.957,5.614,98.004,-44.4,-53.4,-19.16,28.5,0.64084,0.04828,0.31708,0.69739
 13:43:41.864,eb:33:2e:f9:57:b5, 2085-97-218 247:219:08:4320,-1.139,1,2.108,-142.212,-165.588,38.696,17.584,3.768,97.844,-44.4,-53.4,-19.16,28.5,0.64084,0.04828,0.31708,0.69739
 13:43:41.864,eb:33:2e:f9:57:b5, 2085-97-27 246:226:10:3873,-1.341,1.225,2.022,-165.222,-130.066,27.283,16.018,2.274,97.74,-44.4,-53.4,-19.16,28.5,0.64084,0.04828,0.31708,0.69739
 13:43:42.013,eb:33:2e:f9:57:b5, 2085-97-138 244:171:12:3177,-1.508,1.484,1.71,-183.838,-114.258,9.949,14.249,1.077,97.603,-44.4,-53.4,-19.16,28.5,0.64084,0.04828,0.31708,0.69739
 13:43:42.013,eb:33:2e:f9:57:b5, 2085-97-143 243:186:13:2861,-1.57,1.661,1.453,-184.631,-122.375,-9.399,12.376,-0.071,97.328,-44.4,-53.4,-19.16,28.5,0.64084,0.04828,0.31708,0.69739
 13:43:42.013,eb:33:2e:f9:57:b5, 2085-97-101 243:71:14:2835,-1.561,1.745,1.39,-166.077,-133.545,-24.048,10.624,-1.302,96.888,-44.4,-53.4,-19.16,28.5,0.64084,0.04828,0.31708,0.69739
 13:43:42.013,eb:33:2e:f9:57:b5, 2085-97-194 243:114:15:2968,-1.486,1.843,1.407,-136.108,-124.329,-28.87,9.124,-2.554,96.394,-44.4,-53.4,-19.16,28.5,0.64084,0.04828,0.31708,0.69739
 13:43:42.016,eb:33:2e:f9:57:b5, 2085-97-89 244:96:17:2934,-1.424,2.056,1.485,-87.585,-80.994,-27.344,8.026,-3.543,95.96,-44.4,-53.4,-19.16,28.5,0.64084,0.04828,0.31708,0.69739
 13:43:42.017,eb:33:2e:f9:57:b5, 2085-97-187 240:206:24:2594,-1.401,2.238,1.302,-20.447,-34.18,-27.1,7.515,-4.054,95.614,-44.4,-53.4,-19.16,28.5,0.64084,0.04828,0.31708,0.69739
 13:43:42.017,eb:33:2e:f9:57:b5, 2085-97-238 243:252:32:8105,-1.9,4.997,3.644,-23.926,13.977,-71.96,7.493,-4.301,95.136,-44.4,-53.4,-19.16,28.5,0.64084,0.04828,0.31708,0.69739
 13:43:42.017,eb:33:2e:f9:57:b5, 2085-97-01 231:255:31:3835,-6.224,2.962,2.332,-66.772,254.883,-112.854,6.993,-2.609,94.433,-44.4,-53.4,-19.16,28.5,0.64084,0.04828,0.31708,0.69739
 13:43:42.017,eb:33:2e:f9:57:b5, 2085-97-130 215:09:25:-5548,-3.54,7.736,3.583,-86.792,432.8,-148.193,6.334,1.132,93.587,-44.4,-53.4,-19.16,28.5,0.64084,0.04828,0.31708,0.69739
 13:43:42.017,eb:33:2e:f9:57:b5, 2085-97-220 222:225:91:893,-5.404,6.004,-4.522,30.457,-1.709,-119.934,6.163,2.878,92.335,-44.4,-53.4,-19.16,28.5,0.64084,0.04828,0.31708,0.69739
 13:43:42.017,eb:33:2e:f9:57:b5, 2085-97-116 213:251:229:-3336,-3.476,3.284,2.208,-92.834,199.158,-170.532,5.389,4.576,90.654,-44.4,-53.4,-19.16,28.5,0.64084,0.04828,0.31708,0.69739
 13:43:42.018,eb:33:2e:f9:57:b5, 2085-97-252 06:253:255:4123,1.79,-2.134,-2.105,-119.69,-56.641,63.171,4.213,5.262,90.522,-44.4,-53.4,-19.16,28.5,0.64084,0.04828,0.31708,0.69739
 13:43:42.018,eb:33:2e:f9:57:b5, 2085-97-47 253:134:249:4935,-1.107,-0.354,4.688,-18.799,48.828,-22.278,3.631,4.823,90.621,-44.4,-53.4,-19.16,28.5,0.64084,0.04828,0.31708,0.69739
 13:43:42.018,eb:33:2e:f9:57:b5, 2085-97-01 255:05:05:-100,0.192,0.155,-0.466,-16.296,18.25,21.24,3.565,5.416,90.681,-44.4,-53.4,-19.16,28.5,0.64084,0.04828,0.31708,0.69739
 13:43:42.018,eb:33:2e:f9:57:b5, 2085-97-69 01:38:255:3883,0.197,-0.029,1.781,-9.766,-0.671,-1.587,3.34,5.378,90.764,-44.4,-53.4,-19.16,28.5,0.64084,0.04828,0.31708,0.69739
 13:43:42.018,eb:33:2e:f9:57:b5, 2085-97-166 253:232:254:2158,-0.104,0.505,0.647,-13.611,29.48,-6.775,3.296,5.581,90.764,-44.4,-53.4,-19.16,28.5,0.64084,0.04828,0.31708,0.69739
 13:43:42.131,eb:33:2e:f9:57:b5, 2085-97-44 254:36:01:1408,-0.545,-0.129,1.341,-0.732,20.142,0,3.219,5.773,90.753,-44.4,-53.4,-19.16,28.5,0.64084,0.04828,0.31708,0.69739
 13:43:42.131,eb:33:2e:f9:57:b5, 2085-97-143 255:54:00:2366,0.179,-0.042,0.5,-2.258,-12.268,0.122,3.197,5.872,90.731,-44.4,-53.4,-19.16,28.5,0.64084,0.04828,0.31708,0.69739
 13:43:42.131,eb:33:2e:f9:57:b5, 2085-97-51 255:190:255:2578,-0.093,0.037,1.572,1.953,7.141,-1.587,3.197,5.784,90.725,-44.4,-53.4,-19.16,28.5,0.64084,0.04828,0.31708,0.69739
 13:43:42.131,eb:33:2e:f9:57:b5, 2085-97-220 00:217:255:3106,0.128,-0.038,1.256,8.606,7.69,-2.075,3.257,5.867,90.709,-44.4,-53.4,-19.16,28.5,0.64084,0.04828,0.31708,0.69739
 13:43:42.134,eb:33:2e:f9:57:b5, 2085-97-162 00:153:255:3329,-0.13,-0.08,1.691,18.494,32.837,-1.892,3.389,6.07,90.698,-44.4,-53.4,-19.16,28.5,0.64084,0.04828,0.31708,0.69739
 13:43:42.134,eb:33:2e:f9:57:b5, 2085-97-167 253:249:253:3037,-0.415,-0.112,1.436,30.823,37.659,6.042,3.631,6.46,90.736,-44.4,-53.4,-19.16,28.5,0.64084,0.04828,0.31708,0.69739
 13:43:42.134,eb:33:2e:f9:57:b5, 2085-97-199 252:252:253:3385,-0.375,-0.394,1.644,62.195,19.226,23.743,4.114,6.729,90.906,-44.4,-53.4,-19.16,28.5,0.64084,0.04828,0.31708,0.69739
 13:43:42.134,eb:33:2e:f9:57:b5, 2085-97-216 252:156:251:4439,-0.283,-0.536,2.03,117.737,-14.771,31.677,5.076,6.674,91.17,-44.4,-53.4,-19.16,28.5,0.64084,0.04828,0.31708,0.69739
 13:43:42.163,eb:33:2e:f9:57:b5, 2085-97-144 255:219:251:5202,0.088,-0.492,2.291,174.194,-25.146,40.405,6.592,6.427,91.527,-64,-21,-12.253,28.5,0.64084,0.04828,0.31708,0.69739
 13:43:42.163,eb:33:2e:f9:57:b5, 2085-97-188 01:82:252:5733,0.374,-0.471,2.691,224.731,-0.854,43.762,8.674,6.224,91.934,-64,-21,-12.253,28.5,0.64084,0.04828,0.31708,0.69739
 13:43:42.163,eb:33:2e:f9:57:b5, 2085-97-152 03:50:252:5567,0.501,-0.488,2.778,273.987,40.344,43.762,11.245,6.339,92.395,-64,-21,-12.253,28.5,0.64084,0.04828,0.31708,0.69739
 13:43:42.163,eb:33:2e:f9:57:b5, 2085-97-231 04:11:253:4934,0.649,-0.355,2.572,309.875,88.928,38.086,14.249,6.905,92.95,-64,-21,-12.253,28.5,0.64084,0.04828,0.31708,0.69739
 13:43:42.223,eb:33:2e:f9:57:b5, 2085-97-224 05:62:253:4819,0.684,-0.308,2.363,340.881,128.601,19.592,17.6,7.899,93.565,-64,-21,-12.253,28.5,0.64084,0.04828,0.31708,0.69739
 13:43:42.223,eb:33:2e:f9:57:b5, 2085-97-04 06:30:253:4873,0.661,-0.32,2.415,361.45,181.519,0.244,21.22,9.344,94.18,-64,-21,-12.253,28.5,0.64084,0.04828,0.31708,0.69739
 13:43:42.223,eb:33:2e:f9:57:b5, 2085-97-238 03:140:254:4070,0.464,-0.269,2.126,374.695,228.577,-15.137,25.043,11.316,94.982,-64,-21,-12.253,28.5,0.64084,0.04828,0.31708,0.69739
 13:43:42.223,eb:33:2e:f9:57:b5, 2085-97-213 02:138:254:4943,0.04,-0.192,2.162,389.099,240.112,-35.339,29.064,13.53,95.839,-64,-21,-12.253,28.5,0.64084,0.04828,0.31708,0.69739
 13:43:42.223,eb:33:2e:f9:57:b5, 2085-113-81 00:95:84:2890,0.073,-0.19,2.457,378.54,270.813,-38.757,33.179,15.925,96.888,-64,-21,-12.253,28.5,0.64084,0.04828,0.31708,0.69739
 13:43:42.225,eb:33:2e:f9:57:b5, 2085-97-163 00:239:253:4313,0.265,-0.167,2.466,364.502,291.626,-35.278,35.222,17.199,97.553,-64,-21,-12.253,28.5,0.65915,0.0882,0.29968,0.68399
 13:43:42.225,eb:33:2e:f9:57:b5, 2085-97-84 03:99:00:3009,0.457,-0.251,1.799,334.595,310.73,-20.203,39.238,19.781,99.283,-64,-21,-12.253,28.5,0.65915,0.0882,0.29968,0.68399
 13:43:42.225,eb:33:2e:f9:57:b5, 2085-97-123 04:80:03:2473,0.514,0.214,1.226,321.045,297.668,-20.386,43.198,22.22,101.288,-64,-21,-12.253,28.5,0.65915,0.0882,0.29968,0.68399
 13:43:42.225,eb:33:2e:f9:57:b5, 2085-97-63 03:99:04:2970,0.586,0.606,1.248,304.016,275.452,-34.973,47.131,24.417,103.271,-64,-21,-12.253,28.5,0.65915,0.0882,0.29968,0.68399
 13:43:42.283,eb:33:2e:f9:57:b5, 2085-97-02 04:173:254:3570,0.434,0.168,1.782,269.348,285.583,-49.5,50.828,26.565,105.266,-64,-21,-12.253,28.5,0.65915,0.0882,0.29968,0.68399
 13:43:42.283,eb:33:2e:f9:57:b5, 2085-97-213 05:88:253:836,0.806,-0.309,1.261,257.507,292.114,-39.185,54.52,28.707,107.6,-64,-21,-12.253,28.5,0.65915,0.0882,0.29968,0.68399
 13:43:42.283,eb:33:2e:f9:57:b5, 2085-97-04 08:03:01:-1458,0.629,-0.151,-0.433,231.75,247.803,-28.564,58.123,30.465,110.028,-64,-21,-12.253,28.5,0.65915,0.0882,0.29968,0.68399
 13:43:42.283,eb:33:2e:f9:57:b5, 2085-97-197 255:208:09:-2936,0.114,0.759,-1,250.061,167.297,-65.613,61.474,31.921,111.896,-64,-21,-12.253,28.5,0.65915,0.0882,0.29968,0.68399
 13:43:42.312,eb:33:2e:f9:57:b5, 2085-97-157 00:110:02:787,-0.056,0.674,-0.326,207.336,13.977,-110.779,63.885,33.157,112.187,-64,-21,-12.253,28.5,0.65915,0.0882,0.29968,0.68399
 13:43:42.312,eb:33:2e:f9:57:b5, 2085-97-126 255:58:255:2141,-0.042,0.11,0.669,168.152,-63.965,-116.272,65.215,34.058,111.22,-64,-21,-12.253,28.5,0.65915,0.0882,0.29968,0.68399
 13:43:42.312,eb:33:2e:f9:57:b5, 2085-97-193 255:134:252:3605,-0.015,-0.308,1.428,128.967,-78.979,-91.553,65.891,34.689,109.858,-64,-21,-12.253,28.5,0.65915,0.0882,0.29968,0.68399
 13:43:42.312,eb:33:2e:f9:57:b5, 2085-97-53 00:43:252:4340,0.091,-0.477,2.001,104.065,-40.161,-52.612,66.434,35.085,108.831,-64,-21,-12.253,28.5,0.65915,0.0882,0.29968,0.68399
 13:43:42.344,eb:33:2e:f9:57:b5, 2085-97-103 01:233:252:4322,0.222,-0.456,2.131,94.238,13.306,-16.846,67.253,35.343,108.556,-64,-21,-12.253,28.5,0.65915,0.0882,0.29968,0.68399
 13:43:42.344,eb:33:2e:f9:57:b5, 2085-97-95 02:12:254:4073,0.335,-0.312,2.022,95.825,47.119,6.775,68.406,35.497,108.935,-64,-21,-12.253,28.5,0.65915,0.0882,0.29968,0.68399
 13:43:42.344,eb:33:2e:f9:57:b5, 2085-97-119 02:138:254:4043,0.225,-0.207,1.976,99.67,53.589,18.127,69.78,35.552,109.6,-64,-21,-12.253,28.5,0.65915,0.0882,0.29968,0.68399
 13:43:42.344,eb:33:2e:f9:57:b5, 2085-97-212 00:73:254:3908,0.117,-0.183,1.979,99.304,30.09,23.315,71.104,35.497,110.182,-64,-21,-12.253,28.5,0.65915,0.0882,0.29968,0.68399
 13:43:42.403,eb:33:2e:f9:57:b5, 2085-97-110 02:147:253:3682,0.496,-0.256,1.845,87.158,-10.803,25.757,72.147,35.277,110.352,-64,-21,-12.253,28.5,0.65915,0.0882,0.29968,0.68399
 13:43:42.403,eb:33:2e:f9:57:b5, 2085-97-203 04:108:253:2979,0.66,-0.342,1.67,47.974,-20.081,25.146,72.735,34.975,110.22,-64,-21,-12.253,28.5,0.65915,0.0882,0.29968,0.68399
 13:43:42.403,eb:33:2e:f9:57:b5, 2085-97-72 05:131:254:2070,0.649,-0.244,1.221,-5.249,-19.348,19.714,72.845,34.7,110.083,-64,-21,-12.253,28.5,0.65915,0.0882,0.29968,0.68399
 13:43:42.403,eb:33:2e:f9:57:b5, 2085-97-29 05:01:254:1550,0.626,-0.189,0.857,-48.889,-42.786,7.324,72.345,34.475,109.775,-64,-21,-12.253,28.5,0.65915,0.0882,0.29968,0.68399
 13:43:42.433,eb:33:2e:f9:57:b5, 2085-97-26 05:35:253:1208,0.649,-0.317,0.664,-74.341,-91.309,-9.155,71.268,34.283,108.984,-64,-21,-12.253,28.5,0.65915,0.0882,0.29968,0.68399
 13:43:42.433,eb:33:2e:f9:57:b5, 2085-97-57 05:213:252:877,0.687,-0.371,0.507,-98.877,-151.306,-25.208,69.538,34.025,107.485,-64,-21,-12.253,28.5,0.65915,0.0882,0.29968,0.68399
 13:43:42.433,eb:33:2e:f9:57:b5, 2085-97-198 05:152:251:768,0.735,-0.445,0.393,-130.615,-204.651,-37.415,67.165,33.657,105.304,-64,-21,-12.253,28.5,0.65915,0.0882,0.29968,0.68399
 13:43:42.434,eb:33:2e:f9:57:b5, 2085-97-204 05:49:250:623,0.685,-0.659,0.365,-170.044,-238.403,-41.809,64.149,33.091,102.629,-64,-21,-12.253,28.5,0.65915,0.0882,0.29968,0.68399
 13:43:42.463,eb:33:2e:f9:57:b5, 2085-97-79 05:124:250:245,0.658,-0.736,0.19,-207.703,-258.911,-36.926,60.705,32.283,99.778,-44.9,-56.5,-14.26,28.5,0.65915,0.0882,0.29968,0.68399
 13:43:42.463,eb:33:2e:f9:57:b5, 2085-97-49 05:17:251:702,0.619,-0.634,0.147,-246.948,-273.376,-29.541,56.865,31.168,96.872,-44.9,-56.5,-14.26,28.5,0.65915,0.0882,0.29968,0.68399
 13:43:42.463,eb:33:2e:f9:57:b5, 2085-97-114 04:80:251:1812,0.49,-0.608,0.638,-268.127,-277.161,-23.56,52.833,29.795,94.092,-44.9,-56.5,-14.26,28.5,0.65915,0.0882,0.29968,0.68399
 13:43:42.463,eb:33:2e:f9:57:b5, 2085-97-145 03:167:251:2326,0.437,-0.563,1.054,-268.25,-271.79,-17.212,48.867,28.202,91.5,-44.9,-56.5,-14.26,28.5,0.65915,0.0882,0.29968,0.68399
 13:43:42.524,eb:33:2e:f9:57:b5, 2085-97-142 03:172:252:2013,0.464,-0.495,1.106,-271.484,-260.376,-8.484,45.132,26.483,89.242,-44.9,-56.5,-14.26,28.5,0.65915,0.0882,0.29968,0.68399
 13:43:42.524,eb:33:2e:f9:57:b5, 2085-97-205 03:163:253:1838,0.474,-0.335,0.886,-289.795,-264.038,-3.967,41.429,24.609,87.209,-44.9,-56.5,-14.26,28.5,0.65915,0.0882,0.29968,0.68399
 13:43:42.524,eb:33:2e:f9:57:b5, 2085-97-150 03:33:253:2451,0.397,-0.306,1.022,-302.551,-281.616,-3.296,37.678,22.527,85.298,-44.9,-56.5,-14.26,28.5,0.65915,0.0882,0.29968,0.68399
 13:43:42.524,eb:33:2e:f9:57:b5, 2085-97-118 02:103:252:2802,0.244,-0.414,1.339,-304.443,-292.847,4.883,33.959,20.165,83.48,-44.9,-56.5,-14.26,28.5,0.65915,0.0882,0.29968,0.68399
 13:43:42.555,eb:33:2e:f9:57:b5, 2085-97-146 01:143:252:2860,0.137,-0.464,1.378,-303.467,-299.866,23.682,30.416,17.573,81.958,-44.9,-56.5,-14.26,28.5,0.71951,0.11017,0.36688,0.57916
 13:43:42.555,eb:33:2e:f9:57:b5, 2085-97-191 00:80:254:3068,0.043,-0.339,1.423,-296.204,-312.134,43.335,27.059,14.711,80.75,-44.9,-56.5,-14.26,28.5,0.71951,0.11017,0.36688,0.57916
 13:43:42.555,eb:33:2e:f9:57:b5, 2085-97-210 255:181:00:3518,-0.113,-0.065,1.605,-279.297,-330.505,53.589,23.961,11.585,79.805,-44.9,-56.5,-14.26,28.5,0.71951,0.11017,0.36688,0.57916
 13:43:42.555,eb:33:2e:f9:57:b5, 2085-97-85 254:23:03:4093,-0.332,0.241,1.833,-257.812,-344.299,53.955,21.127,8.229,78.997,-44.9,-56.5,-14.26,28.5,0.71951,0.11017,0.36688,0.57916
 13:43:42.584,eb:33:2e:f9:57:b5, 2085-97-44 252:89:05:4913,-0.642,0.528,2.191,-234.68,-346.619,49.194,18.594,4.79,78.322,-44.9,-56.5,-14.26,28.5,0.71951,0.11017,0.36688,0.57916
 13:43:42.584,eb:33:2e:f9:57:b5, 2085-97-141 249:145:07:5713,-0.981,0.806,2.603,-209.656,-327.332,44.373,16.331,1.406,77.745,-44.9,-56.5,-14.26,28.5,0.71951,0.11017,0.36688,0.57916
 13:43:42.584,eb:33:2e:f9:57:b5, 2085-97-167 246:12:10:6184,-1.363,1.097,2.941,-177.307,-285.95,42.358,14.403,-1.653,77.371,-44.9,-56.5,-14.26,28.5,0.71951,0.11017,0.36688,0.57916
 13:43:42.584,eb:33:2e:f9:57:b5, 2085-97-202 243:153:12:5920,-1.695,1.416,2.998,-137.512,-237.122,44.006,12.838,-4.285,77.179,-44.9,-56.5,-14.26,28.5,0.71951,0.11017,0.36688,0.57916
 13:43:42.644,eb:33:2e:f9:57:b5, 2085-97-106 241:211:14:5007,-1.94,1.747,2.657,-95.581,-196.96,49.805,11.689,-6.482,77.201,-44.9,-56.5,-14.26,28.5,0.71951,0.11017,0.36688,0.57916
 13:43:42.644,eb:33:2e:f9:57:b5, 2085-97-219 239:204:15:4723,-2.067,1.922,2.326,-72.083,-172.058,60.059,10.844,-8.405,77.388,-44.9,-56.5,-14.26,28.5,0.71951,0.11017,0.36688,0.57916
 13:43:42.644,eb:33:2e:f9:57:b5, 2085-97-111 239:68:17:4309,-2.011,2.048,2.245,-83.191,-123.718,74.768,10.025,-9.992,77.811,-44.9,-56.5,-14.26,28.5,0.71951,0.11017,0.36688,0.57916
 13:43:42.644,eb:33:2e:f9:57:b5, 2085-97-220 240:164:19:3265,-1.737,2.293,1.876,-116.455,-54.321,84.961,8.871,-10.986,78.486,-44.9,-56.5,-14.26,28.5,0.71951,0.11017,0.36688,0.57916
 13:43:42.673,eb:33:2e:f9:57:b5, 2085-97-56 243:79:22:2013,-1.514,2.622,1.302,-128.662,1.831,75.989,7.454,-11.316,79.299,-44.9,-56.5,-14.26,28.5,0.71951,0.11017,0.36688,0.57916
 13:43:42.673,eb:33:2e:f9:57:b5, 2085-97-30 244:205:22:654,-1.5,2.889,0.626,-89.172,25.391,45.044,6.196,-11.212,79.937,-44.9,-56.5,-14.26,28.5,0.71951,0.11017,0.36688,0.57916
 13:43:42.673,eb:33:2e:f9:57:b5, 2085-97-56 243:04:19:136,-1.757,2.675,0.129,4.944,4.395,7.446,5.74,-11.074,80.217,-44.9,-56.5,-14.26,28.5,0.71951,0.11017,0.36688,0.57916
 13:43:42.673,eb:33:2e:f9:57:b5, 2085-97-183 240:254:13:279,-3.423,2.059,0.08,109.985,-25.757,-13.794,6.389,-11.206,80.14,-44.9,-56.5,-14.26,28.5,0.71951,0.11017,0.36688,0.57916
 13:43:42.704,eb:33:2e:f9:57:b5, 2085-97-161 250:42:59:19654,-1.015,8.314,2.781,91.675,-129.333,-107.056,7.789,-11.887,79.783,-44.9,-56.5,-14.26,28.5,0.71951,0.11017,0.36688,0.57916
 13:43:42.704,eb:33:2e:f9:57:b5, 2085-97-24 220:219:21:959,-5.09,4.017,5.756,-48.279,523.987,-262.756,7.965,-9.272,78.234,-44.9,-56.5,-14.26,28.5,0.71951,0.11017,0.36688,0.57916
 13:43:42.704,eb:33:2e:f9:57:b5, 2085-97-120 194:56:32:-16532,-2.396,10.169,2.762,-179.81,841.919,-179.993,7.092,-2.615,77.542,-44.9,-56.5,-14.26,28.5,0.71951,0.11017,0.36688,0.57916
 13:43:42.704,eb:33:2e:f9:57:b5, 2085-97-166 244:160:238:8736,-1.677,4.076,-4.737,-246.399,114.624,-126.221,4.741,1.549,76.937,-44.9,-56.5,-14.26,28.5,0.71951,0.11017,0.36688,0.57916
 13:43:42.765,eb:33:2e:f9:57:b5, 2085-97-107 255:255:241:4926,1.082,-4.104,4.017,-89.233,101.624,15.259,2.302,3.62,76.421,-44.9,-56.5,-14.26,28.5,0.71951,0.11017,0.36688,0.57916
 13:43:42.765,eb:33:2e:f9:57:b5, 2085-113-58 00:118:228:-4485,-2.819,1.181,1.264,-50.171,189.697,-18.066,2.087,4.614,76.619,-44.9,-56.5,-14.26,28.5,0.71951,0.11017,0.36688,0.57916
 13:43:42.765,eb:33:2e:f9:57:b5, 2085-97-183 253:196:253:1939,0.505,-1.026,-0.625,-16.602,13.367,23.926,1.961,5.004,76.635,-44.9,-56.5,-14.26,28.5,0.71951,0.11017,0.36688,0.57916
 13:43:42.765,eb:33:2e:f9:57:b5, 2085-97-74 253:130:00:1560,0.028,-0.039,2.029,5.249,47.729,7.019,1.906,5.131,76.899,-44.9,-56.5,-14.26,28.5,0.71951,0.11017,0.36688,0.57916
 13:43:42.792,eb:33:2e:f9:57:b5, 2085-97-108 00:156:255:2641,-0.518,0.009,1.39,8.362,37.781,8.667,1.967,5.488,77.02,-47,-29.9,8.533,28.5,0.71951,0.11017,0.36688,0.57916
 13:43:42.792,eb:33:2e:f9:57:b5, 2085-97-193 00:30:02:2315,-0.04,-0.221,0.731,20.935,29.114,7.629,2.126,5.949,77.075,-47,-29.9,8.533,28.5,0.71951,0.11017,0.36688,0.57916
 13:43:42.793,eb:33:2e:f9:57:b5, 2085-97-01 252:74:255:1301,-0.014,0.165,0.905,18.555,40.71,-7.08,2.329,6.301,77.08,-47,-29.9,8.533,28.5,0.71951,0.11017,0.36688,0.57916
 13:43:42.793,eb:33:2e:f9:57:b5, 2085-97-180 01:42:01:2853,-0.177,0.145,1.104,17.761,17.029,0.916,2.521,6.498,77.091,-47,-29.9,8.533,28.5,0.71951,0.11017,0.36688,0.57916
 13:43:42.823,eb:33:2e:f9:57:b5, 2085-97-171 254:242:255:2352,0.074,-0.04,1.131,18.005,33.447,-3.113,2.697,6.823,77.086,-47,-29.9,8.533,28.5,0.71951,0.11017,0.36688,0.57916
 13:43:42.823,eb:33:2e:f9:57:b5, 2085-97-131 00:62:00:3049,-0.15,0.058,1.421,16.785,39.49,0.366,2.867,7.152,77.102,-47,-29.9,8.533,28.5,0.71951,0.11017,0.36688,0.57916
 13:43:42.823,eb:33:2e:f9:57:b5, 2085-97-205 253:189:254:2614,-0.382,-0.058,1.312,26.306,44.067,3.479,3.082,7.619,77.141,-47,-29.9,8.533,28.5,0.71951,0.11017,0.36688,0.57916
 13:43:42.823,eb:33:2e:f9:57:b5, 2085-97-188 252:22:255:2489,-0.382,-0.206,1.211,43.457,23.743,16.235,3.444,7.971,77.261,-47,-29.9,8.533,28.5,0.71951,0.11017,0.36688,0.57916
 13:43:42.883,eb:33:2e:f9:57:b5, 2085-97-109 253:11:254:3258,-0.256,-0.221,1.376,75.195,-12.268,24.597,4.087,7.965,77.465,-47,-29.9,8.533,28.5,0.78064,-0.02048,0.07089,0.62054
 13:43:42.883,eb:33:2e:f9:57:b5, 2085-97-51 254:198:252:4545,-0.193,-0.304,1.975,114.502,-30.457,29.663,5.087,7.701,77.717,-47,-29.9,8.533,28.5,0.78064,-0.02048,0.07089,0.62054
 13:43:42.883,eb:33:2e:f9:57:b5, 2085-97-166 255:103:252:5188,0.038,-0.44,2.259,170.166,-35.95,33.508,6.564,7.355,78.025,-47,-29.9,8.533,28.5,0.78064,-0.02048,0.07089,0.62054
 13:43:42.883,eb:33:2e:f9:57:b5, 2085-97-87 01:44:252:5704,0.356,-0.498,2.682,221.68,-14.343,34.973,8.58,7.059,78.333,-47,-29.9,8.533,28.5,0.78064,-0.02048,0.07089,0.62054
 13:43:42.914,eb:33:2e:f9:57:b5, 2085-97-41 03:166:251:5522,0.511,-0.484,2.808,274.231,24.536,33.997,11.135,7.048,78.706,-47,-29.9,8.533,28.5,0.78064,-0.02048,0.07089,0.62054
 13:43:42.914,eb:33:2e:f9:57:b5, 2085-97-178 04:71:253:5380,0.711,-0.484,2.625,312.927,79.895,30.64,14.161,7.504,79.146,-47,-29.9,8.533,28.5,0.78064,-0.02048,0.07089,0.62054
 13:43:42.914,eb:33:2e:f9:57:b5, 2085-97-47 06:75:252:5715,0.739,-0.366,2.698,346.191,126.099,9.521,17.54,8.459,79.656,-47,-29.9,8.533,28.5,0.78064,-0.02048,0.07089,0.62054
 13:43:42.914,eb:33:2e:f9:57:b5, 2085-97-211 05:136:252:5216,0.62,-0.441,2.785,374.146,193.97,-5.432,21.248,9.992,80.211,-47,-29.9,8.533,28.5,0.78064,-0.02048,0.07089,0.62054
 13:43:42.943,eb:33:2e:f9:57:b5, 2085-97-106 04:125:253:4450,0.48,-0.308,2.31,398.438,240.601,-22.583,25.28,12.107,81.008,-47,-29.9,8.533,28.5,0.78064,-0.02048,0.07089,0.62054
 13:43:42.943,eb:33:2e:f9:57:b5, 2085-97-220 01:167:252:5074,-0.122,-0.225,2.423,417.48,257.141,-45.776,29.57,14.464,81.854,-47,-29.9,8.533,28.5,0.78064,-0.02048,0.07089,0.62054
 13:43:42.943,eb:33:2e:f9:57:b5, 2085-97-242 00:73:254:4684,0.244,-0.094,2.411,405.823,278.809,-39.734,33.992,17.012,82.996,-47,-29.9,8.533,28.5,0.78064,-0.02048,0.07089,0.62054
 13:43:42.943,eb:33:2e:f9:57:b5, 2085-97-169 02:33:255:2878,0.392,-0.217,1.82,374.023,301.575,-29.358,38.364,19.589,84.534,-47,-29.9,8.533,28.5,0.78064,-0.02048,0.07089,0.62054
 13:43:43.003,eb:33:2e:f9:57:b5, 2085-97-246 04:243:01:3265,0.64,0.171,1.324,348.45,285.767,-30.518,42.589,22.017,86.358,-47,-29.9,8.533,28.5,0.78064,-0.02048,0.07089,0.62054
 13:43:43.003,eb:33:2e:f9:57:b5, 2085-97-145 04:158:01:3349,0.617,0.236,1.623,330.994,287.231,-41.077,46.73,24.291,88.264,-47,-29.9,8.533,28.5,0.78064,-0.02048,0.07089,0.62054
 13:43:43.003,eb:33:2e:f9:57:b5, 2085-97-102 04:70:254:3510,0.734,-0.042,1.796,313.843,288.818,-53.589,50.801,26.559,90.313,-47,-29.9,8.533,28.5,0.78064,-0.02048,0.07089,0.62054
 13:43:43.003,eb:33:2e:f9:57:b5, 2085-97-185 06:202:253:872,0.879,-0.439,1.295,305.054,289.185,-42.847,54.959,28.702,92.582,-47,-29.9,8.533,28.5,0.78064,-0.02048,0.07089,0.62054
 13:43:43.034,eb:33:2e:f9:57:b5, 2085-97-22 08:247:00:-155,0.919,-0.069,-0.167,294.373,229.553,-42.419,59.035,30.454,94.878,-47,-29.9,8.533,28.5,0.78064,-0.02048,0.07089,0.62054
 13:43:43.034,eb:33:2e:f9:57:b5, 2085-97-54 01:162:09:-559,-0.054,0.508,0.148,343.933,178.101,-82.825,63.062,31.959,96.586,-47,-29.9,8.533,28.5,0.78064,-0.02048,0.07089,0.62054
 13:43:43.034,eb:33:2e:f9:57:b5, 2085-97-254 255:216:04:1786,-0.065,1.063,0.06,342.224,52.246,-138.55,66.896,33.503,97.191,-47,-29.9,8.533,28.5,0.78064,-0.02048,0.07089,0.62054
 13:43:43.034,eb:33:2e:f9:57:b5, 2085-97-22 255:185:00:3248,-0.208,0.368,1.258,302.246,-19.043,-147.705,69.796,34.876,96.619,-47,-29.9,8.533,28.5,0.78064,-0.02048,0.07089,0.62054
 13:43:43.063,eb:33:2e:f9:57:b5, 2085-97-249 253:221:251:3708,-0.255,-0.257,1.771,226.746,-10.803,-121.887,71.971,36.107,95.867,-34,-55.8,-0.267,28.5,0.78064,-0.02048,0.07089,0.62054
 13:43:43.063,eb:33:2e:f9:57:b5, 2085-97-84 254:134:250:3803,-0.144,-0.667,1.831,146.545,31.677,-66.345,73.652,37.018,95.641,-34,-55.8,-0.267,28.5,0.78064,-0.02048,0.07089,0.62054
 13:43:43.063,eb:33:2e:f9:57:b5, 2085-97-154 255:31:252:3746,0.048,-0.61,1.854,80.811,85.51,-4.639,75.125,37.485,96.279,-34,-55.8,-0.267,28.5,0.78064,-0.02048,0.07089,0.62054
 13:43:43.063,eb:33:2e:f9:57:b5, 2085-97-219 00:254:253:3462,0.146,-0.354,1.795,43.579,121.216,42.847,76.525,37.524,97.657,-34,-55.8,-0.267,28.5,0.78064,-0.02048,0.07089,0.62054
 13:43:43.124,eb:33:2e:f9:57:b5, 2085-97-198 01:61:00:3022,0.299,-0.129,1.561,41.748,117.92,68.298,77.937,37.222,99.327,-34,-55.8,-0.267,28.5,0.78064,-0.02048,0.07089,0.62054
 13:43:43.124,eb:33:2e:f9:57:b5, 2085-97-207 02:143:02:3072,0.328,0.192,1.459,62.378,87.402,71.96,79.299,36.711,100.75,-34,-55.8,-0.267,28.5,0.78064,-0.02048,0.07089,0.62054
 13:43:43.124,eb:33:2e:f9:57:b5, 2085-97-10 02:152:02:3301,0.218,0.357,1.562,92.773,48.157,58.533,80.656,36.183,101.711,-34,-55.8,-0.267,28.5,0.78064,-0.02048,0.07089,0.62054
 13:43:43.124,eb:33:2e:f9:57:b5, 2085-97-125 01:128:01:3284,0.245,0.282,1.63,120.361,0.732,40.833,81.936,35.733,102.052,-34,-55.8,-0.267,28.5,0.78064,-0.02048,0.07089,0.62054
 13:43:43.182,eb:33:2e:f9:57:b5, 2085-97-42 02:165:00:2982,0.316,0.126,1.577,116.272,-40.588,22.522,83.007,35.398,101.794,-34,-55.8,-0.267,28.5,0.61679,0.20178,0.6239,0.43527
 13:43:43.182,eb:33:2e:f9:57:b5, 2085-97-190 02:124:00:2387,0.34,0.07,1.325,74.524,-59.448,6.226,83.584,35.195,101.162,-34,-55.8,-0.267,28.5,0.61679,0.20178,0.6239,0.43527
 13:43:43.182,eb:33:2e:f9:57:b5, 2085-97-187 02:135:255:1544,0.349,0.019,0.962,12.024,-75.256,-8.362,83.524,35.14,100.338,-34,-55.8,-0.267,28.5,0.61679,0.20178,0.6239,0.43527
 13:43:43.183,eb:33:2e:f9:57:b5, 2085-97-178 02:145:253:738,0.338,-0.182,0.563,-50.781,-101.99,-18.188,82.628,35.167,99.218,-34,-55.8,-0.267,28.5,0.61679,0.20178,0.6239,0.43527
 13:43:43.185,eb:33:2e:f9:57:b5, 2085-97-136 02:248:251:110,0.279,-0.41,0.197,-102.6,-140.442,-22.766,80.947,35.206,97.701,-34,-55.8,-0.267,28.5,0.61679,0.20178,0.6239,0.43527
 13:43:43.185,eb:33:2e:f9:57:b5, 2085-97-63 02:158:250:-389,0.292,-0.584,-0.096,-147.217,-190.979,-21.973,78.459,35.123,95.62,-34,-55.8,-0.267,28.5,0.61679,0.20178,0.6239,0.43527
 13:43:43.185,eb:33:2e:f9:57:b5, 2085-97-173 02:165:248:-531,0.368,-0.794,-0.25,-191.589,-241.699,-14.893,75.212,34.805,92.961,-34,-55.8,-0.267,28.5,0.61679,0.20178,0.6239,0.43527
 13:43:43.185,eb:33:2e:f9:57:b5, 2085-97-233 02:194:247:-564,0.362,-1.016,-0.259,-235.596,-274.597,-2.258,71.296,34.124,89.885,-34,-55.8,-0.267,28.5,0.61679,0.20178,0.6239,0.43527
 13:43:43.274,eb:33:2e:f9:57:b5, 2085-97-216 02:46:249:-219,0.365,-0.955,-0.232,-281.738,-305.969,12.024,66.896,33.03,86.638,-34,-55.8,-0.267,28.5,0.61679,0.20178,0.6239,0.43527
 13:43:43.274,eb:33:2e:f9:57:b5, 2085-97-244 02:109:250:601,0.358,-0.769,0.092,-328.796,-334.351,22.278,62.001,31.465,83.276,-34,-55.8,-0.267,28.5,0.61679,0.20178,0.6239,0.43527
 13:43:43.274,eb:33:2e:f9:57:b5, 2085-97-203 02:110:251:1194,0.343,-0.63,0.443,-367.615,-352.417,27.161,56.816,29.493,79.98,-34,-55.8,-0.267,28.5,0.61679,0.20178,0.6239,0.43527
 13:43:43.274,eb:33:2e:f9:57:b5, 2085-97-216 02:51:252:1871,0.393,-0.525,0.735,-386.047,-357.3,28.442,51.52,27.164,76.871,-34,-55.8,-0.267,28.5,0.61679,0.20178,0.6239,0.43527
 13:43:43.274,eb:33:2e:f9:57:b5, 2085-97-229 02:52:254:2620,0.264,-0.372,1.122,-379.7,-341.736,25.269,46.478,24.659,74.13,-34,-55.8,-0.267,28.5,0.61679,0.20178,0.6239,0.43527
 13:43:43.274,eb:33:2e:f9:57:b5, 2085-97-53 01:91:255:3263,0.03,-0.104,1.417,-357.971,-325.195,16.479,41.836,22.115,71.763,-34,-55.8,-0.267,28.5,0.61679,0.20178,0.6239,0.43527
 13:43:43.274,eb:33:2e:f9:57:b5, 2085-97-253 254:192:253:3543,-0.207,-0.141,1.736,-337.402,-302.49,15.564,37.65,19.611,69.736,-34,-55.8,-0.267,28.5,0.61679,0.20178,0.6239,0.43527
 13:43:43.274,eb:33:2e:f9:57:b5, 2085-97-56 254:221:251:3185,-0.203,-0.434,1.667,-331.055,-270.325,36.682,33.816,17.128,68.192,-34,-55.8,-0.267,28.5,0.61679,0.20178,0.6239,0.43527
 13:43:43.335,eb:33:2e:f9:57:b5, 2085-97-175 254:98:252:2676,-0.136,-0.52,1.421,-341.553,-240.723,70.312,30.207,14.694,67.28,-34,-55.8,-0.267,28.5,0.61679,0.20178,0.6239,0.43527
 13:43:43.335,eb:33:2e:f9:57:b5, 2085-97-25 255:144:253:2839,-0.101,-0.388,1.307,-347.229,-240.601,99.976,26.631,12.167,66.918,-34,-55.8,-0.267,28.5,0.61679,0.20178,0.6239,0.43527
 13:43:43.335,eb:33:2e:f9:57:b5, 2085-97-46 255:215:255:3311,-0.128,-0.184,1.496,-335.205,-263.794,112.61,23.198,9.421,66.852,-34,-55.8,-0.267,28.5,0.61679,0.20178,0.6239,0.43527
 13:43:43.335,eb:33:2e:f9:57:b5, 2085-97-132 254:76:03:3965,-0.28,0.183,1.76,-320.19,-281.799,112.915,19.913,6.427,66.901,-34,-55.8,-0.267,28.5,0.61679,0.20178,0.6239,0.43527
 13:43:43.335,eb:33:2e:f9:57:b5, 2085-97-186 252:54:07:4822,-0.571,0.652,2.141,-307.861,-285.583,101.685,16.793,3.384,67.044,-34,-55.8,-0.267,28.5,0.61679,0.20178,0.6239,0.43527
 13:43:43.363,eb:33:2e:f9:57:b5, 2085-113-58 00:164:227:-7170,-0.771,1.177,2.522,-293.945,-270.752,81.726,13.766,0.428,67.192,-48.4,-47.8,-0.247,28.5,0.61679,0.20178,0.6239,0.43527
 13:43:43.363,eb:33:2e:f9:57:b5, 2085-97-34 248:194:14:5644,-1.19,1.487,2.622,-280.029,-259.033,68.909,12.332,-0.934,67.253,-48.4,-47.8,-0.247,28.5,0.61679,0.20178,0.6239,0.43527
 13:43:43.364,eb:33:2e:f9:57:b5, 2085-97-72 244:234:20:6600,-1.777,2.242,2.998,-227.417,-226.624,37.537,9.8,-3.422,67.302,-48.4,-47.8,-0.247,28.5,0.61679,0.20178,0.6239,0.43527
 13:43:43.364,eb:33:2e:f9:57:b5, 2085-97-151 239:229:24:6326,-2.282,2.912,3.28,-162.72,-168.64,3.174,7.872,-5.411,67.181,-48.4,-47.8,-0.247,28.5,0.61679,0.20178,0.6239,0.43527
 13:43:43.393,eb:33:2e:f9:57:b5, 2085-97-09 236:113:27:4780,-2.689,3.281,2.72,-119.385,-107.971,-23.56,6.542,-6.729,66.89,-48.4,-47.8,-0.247,28.5,0.61679,0.20178,0.6239,0.43527
 13:43:43.393,eb:33:2e:f9:57:b5, 2085-97-218 233:37:30:3436,-2.78,3.588,1.958,-110.474,-62.378,-41.382,5.455,-7.515,66.467,-48.4,-47.8,-0.247,28.5,0.61679,0.20178,0.6239,0.43527
 13:43:43.393,eb:33:2e:f9:57:b5, 2085-97-173 233:186:31:2910,-2.812,3.89,1.512,-108.826,-35.095,-60.974,4.422,-7.932,65.907,-48.4,-47.8,-0.247,28.5,0.61679,0.20178,0.6239,0.43527
 13:43:43.393,eb:33:2e:f9:57:b5, 2085-97-62 233:175:31:2809,-2.828,4.02,1.397,-68.848,-14.221,-83.13,3.609,-8.124,65.154,-48.4,-47.8,-0.247,28.5,0.61679,0.20178,0.6239,0.43527
 13:43:43.454,eb:33:2e:f9:57:b5, 2085-97-219 233:114:27:2470,-3.69,3.757,1.312,1.831,11.353,-98.45,3.433,-8.08,64.215,-48.4,-47.8,-0.247,28.5,0.83682,0.06696,-0.04044,0.54175
 13:43:43.454,eb:33:2e:f9:57:b5, 2085-97-132 236:139:59:11181,-2.028,5.067,1.576,50.964,-8.85,-109.192,3.939,-7.811,63.254,-48.4,-47.8,-0.247,28.5,0.83682,0.06696,-0.04044,0.54175
 13:43:43.454,eb:33:2e:f9:57:b5, 2085-97-254 236:151:27:5410,-3.135,6.496,5.686,-9.094,328.857,-219.299,4.213,-6.262,61.661,-48.4,-47.8,-0.247,28.5,0.83682,0.06696,-0.04044,0.54175
 13:43:43.454,eb:33:2e:f9:57:b5, 2085-97-123 203:34:06:-13026,-1.468,4.987,2.862,-122.864,717.834,-167.847,3.977,-0.906,60.249,-48.4,-47.8,-0.247,28.5,0.83682,0.06696,-0.04044,0.54175
 13:43:43.484,eb:33:2e:f9:57:b5, 2085-97-245 255:57:01:2148,-1.23,1.979,-4.004,-137.634,86.365,-23.743,2.73,2.307,60.216,-48.4,-47.8,-0.247,28.5,0.83682,0.06696,-0.04044,0.54175
 13:43:43.485,eb:33:2e:f9:57:b5, 2085-97-230 251:242:242:5986,-0.72,-2.113,2.555,-129.395,144.47,-21.301,1.033,3.79,59.848,-48.4,-47.8,-0.247,28.5,0.83682,0.06696,-0.04044,0.54175
 13:43:43.485,eb:33:2e:f9:57:b5, 2085-97-130 241:37:255:-2628,-0.514,-0.728,1.353,15.808,87.891,-5.31,0.813,4.757,59.771,-48.4,-47.8,-0.247,28.5,0.83682,0.06696,-0.04044,0.54175
 13:43:43.485,eb:33:2e:f9:57:b5, 2085-97-178 06:68:01:4874,-0.059,-0.058,0.536,2.93,-51.27,26.123,0.862,4.713,59.936,-48.4,-47.8,-0.247,28.5,0.83682,0.06696,-0.04044,0.54175
 13:43:43.602,eb:33:2e:f9:57:b5, 2085-97-128 255:123:03:748,0.313,0.338,0.556,12.634,6.348,-2.136,1.005,4.719,59.996,-48.4,-47.8,-0.247,28.5,0.83682,0.06696,-0.04044,0.54175
 13:43:43.602,eb:33:2e:f9:57:b5, 2085-97-26 255:187:255:2262,-0.438,0.137,1.721,-7.08,22.461,-0.977,0.961,4.752,60.024,-48.4,-47.8,-0.247,28.5,0.83682,0.06696,-0.04044,0.54175
 13:43:43.602,eb:33:2e:f9:57:b5, 2085-97-133 254:43:00:2134,-0.103,0.067,0.554,-4.456,3.479,-0.305,0.928,4.955,60.013,-48.4,-47.8,-0.247,28.5,0.83682,0.06696,-0.04044,0.54175
 13:43:43.602,eb:33:2e:f9:57:b5, 2085-97-205 255:219:255:2584,0.122,-0.021,1.165,0.977,0.916,-3.662,0.906,4.971,59.985,-48.4,-47.8,-0.247,28.5,0.83682,0.06696,-0.04044,0.54175
 13:43:43.605,eb:33:2e:f9:57:b5, 2085-97-237 254:172:255:2333,-0.153,0.015,1.429,5.554,17.822,-3.357,0.945,5.032,59.963,-48.4,-47.8,-0.247,28.5,0.83682,0.06696,-0.04044,0.54175
 13:43:43.605,eb:33:2e:f9:57:b5, 2085-97-128 00:50:00:2778,0.034,-0.042,1.086,11.292,11.23,-0.61,1.033,5.197,59.947,-48.4,-47.8,-0.247,28.5,0.83682,0.06696,-0.04044,0.54175
 13:43:43.605,eb:33:2e:f9:57:b5, 2085-97-73 255:213:255:2461,-0.135,0.017,1.315,18.25,24.597,-2.075,1.187,5.389,59.93,-48.4,-47.8,-0.247,28.5,0.83682,0.06696,-0.04044,0.54175
 13:43:43.605,eb:33:2e:f9:57:b5, 2085-97-100 254:107:254:2934,-0.34,-0.151,1.456,22.095,24.17,3.479,1.39,5.625,59.941,-48.4,-47.8,-0.247,28.5,0.83682,0.06696,-0.04044,0.54175
 13:43:43.607,eb:33:2e:f9:57:b5, 2085-97-36 253:46:253:3489,-0.44,-0.285,1.472,42.48,6.775,15.564,1.725,5.79,60.035,-48.4,-47.8,-0.247,28.5,0.83682,0.06696,-0.04044,0.54175
 13:43:43.607,eb:33:2e:f9:57:b5, 2085-97-159 252:30:251:4666,-0.19,-0.554,2.1,87.708,-13.123,37.842,2.395,5.751,60.326,-48.4,-47.8,-0.247,28.5,0.83682,0.06696,-0.04044,0.54175
 13:43:43.607,eb:33:2e:f9:57:b5, 2085-97-167 255:232:251:5900,0.161,-0.481,2.368,170.288,-54.382,42.175,3.746,5.389,60.732,-48.4,-47.8,-0.247,28.5,0.83682,0.06696,-0.04044,0.54175
 13:43:43.607,eb:33:2e:f9:57:b5, 2085-97-154 03:110:249:7851,0.727,-0.821,3.558,248.535,-32.166,40.955,5.938,4.828,61.078,-48.4,-47.8,-0.247,28.5,0.83682,0.06696,-0.04044,0.54175
 13:43:43.634,eb:33:2e:f9:57:b5, 2085-97-116 08:124:251:7586,1.307,-0.626,3.759,317.627,47.18,41.199,8.839,4.894,61.529,-48.4,-47.8,-0.247,28.5,0.83682,0.06696,-0.04044,0.54175
 13:43:43.634,eb:33:2e:f9:57:b5, 2085-97-120 11:109:251:6768,1.483,-0.619,3.697,371.155,149.414,26.672,12.387,5.823,62.051,-48.4,-47.8,-0.247,28.5,0.83682,0.06696,-0.04044,0.54175
 13:43:43.634,eb:33:2e:f9:57:b5, 2085-97-159 11:193:252:5857,1.155,-0.313,2.967,413.208,234.253,-8.057,16.397,7.756,62.666,-48.4,-47.8,-0.247,28.5,0.83682,0.06696,-0.04044,0.54175
 13:43:43.634,eb:33:2e:f9:57:b5, 2085-97-140 06:93:249:6692,0.412,-0.698,3.121,455.322,300.781,-51.208,20.885,10.432,63.21,-48.4,-47.8,-0.247,28.5,0.83682,0.06696,-0.04044,0.54175
 13:43:43.694,eb:33:2e:f9:57:b5, 2085-97-83 02:154:250:6538,0.077,-0.882,2.958,475.037,346.008,-57.251,25.714,13.727,64.05,-45.8,-49.8,-2.467,28.5,0.83682,0.06696,-0.04044,0.54175
 13:43:43.694,eb:33:2e:f9:57:b5, 2085-97-134 255:221:249:6977,0.039,-0.794,3.386,510.742,326.904,-61.584,30.965,16.985,65.121,-45.8,-49.8,-2.467,28.5,0.83682,0.06696,-0.04044,0.54175
 13:43:43.694,eb:33:2e:f9:57:b5, 2085-97-13 02:69:250:5183,0.194,-0.765,2.957,502.441,308.838,-51.941,36.53,19.913,66.451,-45.8,-49.8,-2.467,28.5,0.83682,0.06696,-0.04044,0.54175
 13:43:43.694,eb:33:2e:f9:57:b5, 2085-97-181 02:70:255:4768,0.391,-0.561,2.292,448.914,335.693,-30.579,41.918,22.687,68.34,-45.8,-49.8,-2.467,28.5,0.83682,0.06696,-0.04044,0.54175
 13:43:43.724,eb:33:2e:f9:57:b5, 2085-97-40 03:42:02:3722,0.431,0.021,2.024,397.583,353.821,-27.222,47.131,25.351,70.779,-45.8,-49.8,-2.467,28.5,0.77078,0.20673,0.40967,0.44183
 13:43:43.724,eb:33:2e:f9:57:b5, 2085-97-126 02:235:255:945,0.644,-0.137,1.162,336.487,374.39,-25.33,52.075,27.955,73.691,-45.8,-49.8,-2.467,28.5,0.77078,0.20673,0.40967,0.44183
 13:43:43.724,eb:33:2e:f9:57:b5, 2085-97-247 05:145:254:2117,-0.394,-0.168,0.533,301.514,364.38,-16.418,56.783,30.24,76.948,-45.8,-49.8,-2.467,28.5,0.77078,0.20673,0.40967,0.44183
 13:43:43.724,eb:33:2e:f9:57:b5, 2085-97-21 253:156:06:-2411,0.176,1.011,-0.908,307.495,360.596,-3.296,61.946,32.223,80.848,-45.8,-49.8,-2.467,28.5,0.77078,0.20673,0.40967,0.44183
 13:43:43.756,eb:33:2e:f9:57:b5, 2085-97-121 255:29:04:-670,0.07,0.329,-0.148,222.412,252.93,15.808,66.22,33.459,83.985,-45.8,-49.8,-2.467,28.5,0.77078,0.20673,0.40967,0.44183
 13:43:43.756,eb:33:2e:f9:57:b5, 2085-97-176 00:212:03:1987,0.106,0.528,0.292,150.696,178.711,15.93,69.335,34.085,86.325,-45.8,-49.8,-2.467,28.5,0.77078,0.20673,0.40967,0.44183
 13:43:43.756,eb:33:2e:f9:57:b5, 2085-97-251 00:174:05:3942,0.152,0.571,1.546,109.009,170.288,13.855,71.713,34.508,88.336,-45.8,-49.8,-2.467,28.5,0.77078,0.20673,0.40967,0.44183
 13:43:43.756,eb:33:2e:f9:57:b5, 2085-97-198 01:217:06:4863,0.291,0.808,2.167,103.821,173.889,3.174,73.9,34.937,90.368,-45.8,-49.8,-2.467,28.5,0.77078,0.20673,0.40967,0.44183
 13:43:43.813,eb:33:2e:f9:57:b5, 2085-97-154 03:18:06:5643,0.64,0.837,2.536,119.934,175.354,-11.78,76.196,35.436,92.417,-45.8,-49.8,-2.467,28.5,0.77078,0.20673,0.40967,0.44183
 13:43:43.813,eb:33:2e:f9:57:b5, 2085-97-74 07:50:03:6428,1.162,0.6,2.955,144.409,189.941,-28.503,78.75,36.035,94.543,-45.8,-49.8,-2.467,28.5,0.77078,0.20673,0.40967,0.44183
 13:43:43.813,eb:33:2e:f9:57:b5, 2085-97-81 10:16:00:6196,1.303,0.194,3.192,178.162,215.698,-48.584,81.81,36.766,96.965,-45.8,-49.8,-2.467,28.5,0.77078,0.20673,0.40967,0.44183
 13:43:43.813,eb:33:2e:f9:57:b5, 2085-97-237 10:139:254:4460,1.342,-0.142,2.619,215.698,206.421,-71.594,85.358,37.617,99.553,-45.8,-49.8,-2.467,28.5,0.77078,0.20673,0.40967,0.44183
 13:43:43.845,eb:33:2e:f9:57:b5, 2085-97-130 10:238:253:3345,1.194,-0.235,1.851,229.614,146.057,-95.886,88.962,38.557,101.733,-45.8,-49.8,-2.467,28.5,0.77078,0.20673,0.40967,0.44183
 13:43:43.845,eb:33:2e:f9:57:b5, 2085-97-251 07:221:252:2717,0.769,-0.314,1.462,208.252,69.214,-112.671,91.994,39.611,103.074,-45.8,-49.8,-2.467,28.5,0.77078,0.20673,0.40967,0.44183
 13:43:43.845,eb:33:2e:f9:57:b5, 2085-97-108 05:51:251:2965,0.594,-0.492,1.302,161.438,-17.212,-112.549,94.07,40.737,103.447,-45.8,-49.8,-2.467,28.5,0.77078,0.20673,0.40967,0.44183
 13:43:43.845,eb:33:2e:f9:57:b5, 2085-97-119 04:84:248:3462,0.574,-0.791,1.592,99.731,-74.463,-90.454,94.933,41.797,102.838,-45.8,-49.8,-2.467,28.5,0.77078,0.20673,0.40967,0.44183
 13:43:43.906,eb:33:2e:f9:57:b5, 2085-97-130 04:59:247:3278,0.581,-1.071,1.731,28.259,-85.815,-50.476,94.839,42.561,101.783,-45.8,-49.8,-2.467,28.5,0.77078,0.20673,0.40967,0.44183
 13:43:43.906,eb:33:2e:f9:57:b5, 2085-97-184 04:177:247:2146,0.649,-1.051,1.355,-60.791,-65.674,-2.441,93.928,42.858,100.756,-45.8,-49.8,-2.467,28.5,0.77078,0.20673,0.40967,0.44183
 13:43:43.906,eb:33:2e:f9:57:b5, 2085-97-96 06:152:247:1104,0.914,-1.055,0.759,-145.691,-64.331,34.302,92.252,42.704,99.893,-45.8,-49.8,-2.467,28.5,0.77078,0.20673,0.40967,0.44183
 13:43:43.906,eb:33:2e:f9:57:b5, 2085-97-249 07:19:249:180,1.027,-1.004,0.328,-217.712,-95.032,57.068,89.632,42.231,98.795,-45.8,-49.8,-2.467,28.5,0.77078,0.20673,0.40967,0.44183
 13:43:43.934,eb:33:2e:f9:57:b5, 2085-97-95 08:123:251:-879,1.101,-0.698,-0.184,-292.053,-160.339,64.087,85.924,41.556,97.114,-45.8,-49.8,-2.467,28.5,0.77078,0.20673,0.40967,0.44183
 13:43:43.934,eb:33:2e:f9:57:b5, 2085-97-68 09:187:251:-1067,1.244,-0.516,-0.54,-367.126,-248.657,59.082,80.799,40.688,94.427,-45.8,-49.8,-2.467,28.5,0.77078,0.20673,0.40967,0.44183
 13:43:43.934,eb:33:2e:f9:57:b5, 2085-97-104 10:18:251:-072,1.31,-0.569,-0.33,-425.598,-329.346,48.218,74.454,39.54,90.807,-45.8,-49.8,-2.467,28.5,0.77078,0.20673,0.40967,0.44183
 13:43:43.934,eb:33:2e:f9:57:b5, 2085-97-249 09:61:251:1265,1.132,-0.625,0.299,-459.778,-375.366,39.429,67.352,37.947,86.633,-45.8,-49.8,-2.467,28.5,0.77078,0.20673,0.40967,0.44183
 13:43:43.963,eb:33:2e:f9:57:b5, 2085-97-02 08:39:252:2307,0.945,-0.55,0.894,-467.163,-385.559,33.569,60.222,35.931,82.529,-26.2,-59.8,-12.673,28.5,0.77078,0.20673,0.40967,0.44183
 13:43:43.963,eb:33:2e:f9:57:b5, 2085-97-217 06:235:252:3316,0.771,-0.427,1.417,-448.608,-369.08,31.677,53.514,33.574,78.86,-26.2,-59.8,-12.673,28.5,0.77078,0.20673,0.40967,0.44183
 13:43:43.963,eb:33:2e:f9:57:b5, 2085-97-127 05:27:254:3568,0.594,-0.319,1.736,-411.682,-337.646,29.236,47.626,31.102,75.872,-26.2,-59.8,-12.673,28.5,0.77078,0.20673,0.40967,0.44183
 13:43:43.964,eb:33:2e:f9:57:b5, 2085-97-35 04:181:254:3127,0.439,-0.173,1.647,-379.7,-315.552,26.367,42.462,28.597,73.438,-26.2,-59.8,-12.673,28.5,0.77078,0.20673,0.40967,0.44183
 13:43:44.021,eb:33:2e:f9:57:b5, 2085-97-116 02:136:252:3144,0.271,-0.219,1.431,-368.53,-311.157,28.931,37.809,26.043,71.406,-26.2,-59.8,-12.673,28.5,0.77078,0.20673,0.40967,0.44183
 13:43:44.021,eb:33:2e:f9:57:b5, 2085-97-254 01:15:251:3314,0.227,-0.555,1.591,-380.188,-305.42,52.673,33.371,23.275,69.78,-26.2,-59.8,-12.673,28.5,0.77078,0.20673,0.40967,0.44183
 13:43:44.021,eb:33:2e:f9:57:b5, 2085-113-81 00:218:103:3522,0.272,-0.633,1.625,-396.24,-297.546,85.022,29.086,20.341,68.747,-26.2,-59.8,-12.673,28.5,0.77078,0.20673,0.40967,0.44183
 13:43:44.021,eb:33:2e:f9:57:b5, 2085-97-184 02:248:251:3679,0.369,-0.584,1.677,-399.475,-298.096,99.915,26.966,18.781,68.439,-26.2,-59.8,-12.673,28.5,0.77078,0.20673,0.40967,0.44183
 13:43:44.113,eb:33:2e:f9:57:b5, 2085-97-00 03:251:253:4246,0.364,-0.392,1.935,-392.09,-307.617,120.117,22.912,15.568,68.192,-26.2,-59.8,-12.673,28.5,0.81134,0.10748,0.28064,0.50128
 13:43:44.113,eb:33:2e:f9:57:b5, 2085-97-228 02:251:255:4879,0.361,-0.117,2.211,-375.793,-324.097,130.066,19.061,12.134,68.231,-26.2,-59.8,-12.673,28.5,0.81134,0.10748,0.28064,0.50128
 13:43:44.113,eb:33:2e:f9:57:b5, 2085-97-188 02:14:02:5658,0.313,0.118,2.574,-359.192,-332.825,131.47,15.441,8.591,68.516,-26.2,-59.8,-12.673,28.5,0.81134,0.10748,0.28064,0.50128
 13:43:44.113,eb:33:2e:f9:57:b5, 2085-97-70 02:88:04:6698,0.255,0.394,2.981,-340.881,-331.726,124.756,11.975,5.026,68.972,-26.2,-59.8,-12.673,28.5,0.81134,0.10748,0.28064,0.50128
 13:43:44.115,eb:33:2e:f9:57:b5, 2085-97-208 00:163:08:7600,-0.084,0.758,3.591,-328.003,-301.514,116.577,8.679,1.67,69.604,-26.2,-59.8,-12.673,28.5,0.81134,0.10748,0.28064,0.50128
 13:43:44.115,eb:33:2e:f9:57:b5, 2085-97-246 253:49:15:7500,-0.45,1.495,3.697,-304.749,-259.827,101.013,5.471,-1.23,70.345,-26.2,-59.8,-12.673,28.5,0.81134,0.10748,0.28064,0.50128
 13:43:44.115,eb:33:2e:f9:57:b5, 2085-97-149 250:119:19:7297,-0.945,2.221,3.626,-250.854,-250.488,73.364,2.67,-3.807,71.032,-26.2,-59.8,-12.673,28.5,0.81134,0.10748,0.28064,0.50128
 13:43:44.115,eb:33:2e:f9:57:b5, 2085-97-99 246:250:20:6518,-1.437,2.548,3.431,-194.031,-245.544,50.598,0.412,-6.334,71.565,-26.2,-59.8,-12.673,28.5,0.81134,0.10748,0.28064,0.50128
 13:43:44.143,eb:33:2e:f9:57:b5, 2085-97-243 242:172:22:5083,-1.793,2.703,2.822,-169.556,-243.408,46.814,-1.417,-8.762,72.087,-26.2,-59.8,-12.673,28.5,0.81134,0.10748,0.28064,0.50128
 13:43:44.143,eb:33:2e:f9:57:b5, 2085-97-240 240:29:27:4294,-2.006,3.073,2.205,-178.772,-228.455,56.885,-3.296,-11.146,72.719,-26.2,-59.8,-12.673,28.5,0.81134,0.10748,0.28064,0.50128
 13:43:44.143,eb:33:2e:f9:57:b5, 2085-97-236 238:168:33:3574,-2.315,3.783,1.952,-146.423,-176.514,59.875,-5.131,-13.101,73.504,-26.2,-59.8,-12.673,28.5,0.81134,0.10748,0.28064,0.50128
 13:43:44.143,eb:33:2e:f9:57:b5, 2085-97-146 235:09:34:2474,-2.728,4.391,1.51,-45.471,-148.071,37.72,-6.257,-14.634,74.174,-26.2,-59.8,-12.673,28.5,0.81134,0.10748,0.28064,0.50128
 13:43:44.172,eb:33:2e:f9:57:b5, 2085-97-147 233:50:28:1896,-2.845,3.93,0.987,59.387,-144.104,20.386,-6.218,-16.051,74.636,-26.2,-59.8,-12.673,28.5,0.81134,0.10748,0.28064,0.50128
 13:43:44.172,eb:33:2e:f9:57:b5, 2085-97-85 250:05:35:12015,-7.584,3.083,0.917,111.511,-115.967,28.687,-5.416,-17.353,75.02,-26.2,-59.8,-12.673,28.5,0.81134,0.10748,0.28064,0.50128
 13:43:44.172,eb:33:2e:f9:57:b5, 2085-97-154 237:12:26:3848,-2.19,3.509,0.086,309.57,272.278,-1.038,-3.296,-16.837,75.229,-26.2,-59.8,-12.673,28.5,0.81134,0.10748,0.28064,0.50128
 13:43:44.172,eb:33:2e:f9:57:b5, 2085-97-02 214:22:70:3958,-3.428,4.086,1.708,346.375,598.633,-17.09,0.247,-12.475,74.855,-26.2,-59.8,-12.673,28.5,0.81134,0.10748,0.28064,0.50128
 13:43:44.204,eb:33:2e:f9:57:b5, 2085-97-242 226:149:46:2186,0.332,13.463,2.64,175.903,595.581,-333.008,3.323,-6.702,73.444,-26.2,-59.8,-12.673,28.5,0.81134,0.10748,0.28064,0.50128
 13:43:44.204,eb:33:2e:f9:57:b5, 2085-97-144 228:231:241:-1627,-5.602,7.799,2.172,-330.017,685.425,-180.237,2.175,0.06,72.026,-26.2,-59.8,-12.673,28.5,0.81134,0.10748,0.28064,0.50128
 13:43:44.204,eb:33:2e:f9:57:b5, 2085-97-48 239:56:248:1340,1.276,-4.401,-2.616,-28.748,19.592,139.893,0.341,3.477,72.202,-26.2,-59.8,-12.673,28.5,0.81134,0.10748,0.28064,0.50128
 13:43:44.204,eb:33:2e:f9:57:b5, 2085-97-126 244:232:245:1646,-2.774,0.843,2.246,-33.691,112.427,64.697,0.417,3.494,73.246,-26.2,-59.8,-12.673,28.5,0.81134,0.10748,0.28064,0.50128
 13:43:44.234,eb:33:2e:f9:57:b5, 2085-97-90 255:237:255:1271,2.279,-0.492,-1.688,30.945,-28.198,57.007,0.538,4.312,73.713,-26.2,-59.8,-12.673,28.5,0.81134,0.10748,0.28064,0.50128
 13:43:44.234,eb:33:2e:f9:57:b5, 2085-97-65 06:218:07:2356,-0.685,1.42,2.995,28.748,55.481,7.202,0.934,3.961,74.273,-26.2,-59.8,-12.673,28.5,0.81134,0.10748,0.28064,0.50128
 13:43:44.234,eb:33:2e:f9:57:b5, 2085-97-21 03:143:01:2884,-0.328,-0.376,0.683,19.165,46.509,4.028,1.044,4.812,74.18,-26.2,-59.8,-12.673,28.5,0.81134,0.10748,0.28064,0.50128
 13:43:44.234,eb:33:2e:f9:57:b5, 2085-97-231 245:18:253:-242,-0.648,-0.051,0.815,12.207,91.797,-12.451,1.203,5.592,74.136,-26.2,-59.8,-12.673,28.5,0.81134,0.10748,0.28064,0.50128
 13:43:44.294,eb:33:2e:f9:57:b5, 2085-97-187 00:225:01:2449,0.38,-0.026,0.275,19.226,1.892,6.592,1.39,5.933,74.18,-51.8,-44.5,-3.593,28.5,0.81134,0.10748,0.28064,0.50128
 13:43:44.294,eb:33:2e:f9:57:b5, 2085-97-75 03:91:01:3666,0.057,0.251,1.583,13.123,33.997,-3.174,1.549,6.097,74.196,-51.8,-44.5,-3.593,28.5,0.81134,0.10748,0.28064,0.50128
 13:43:44.294,eb:33:2e:f9:57:b5, 2085-97-13 255:08:00:2738,0.112,0,1.604,21.79,67.383,-10.315,1.708,6.68,74.152,-51.8,-44.5,-3.593,28.5,0.81134,0.10748,0.28064,0.50128
 13:43:44.294,eb:33:2e:f9:57:b5, 2085-97-02 255:92:255:2795,-0.492,0.09,1.442,26.184,72.144,-9.46,1.967,7.328,74.092,-51.8,-44.5,-3.593,28.5,0.81134,0.10748,0.28064,0.50128
 13:43:44.323,eb:33:2e:f9:57:b5, 2085-97-136 251:36:253:3182,-0.492,-0.393,1.469,53.65,48.584,-5.066,2.346,7.982,74.031,-51.8,-44.5,-3.593,28.5,0.79721,-0.02402,0.07074,0.59897
 13:43:44.323,eb:33:2e:f9:57:b5, 2085-97-16 252:01:251:4873,-0.419,-0.439,1.815,108.887,-4.578,0.488,3.181,8.152,74.026,-51.8,-44.5,-3.593,28.5,0.79721,-0.02402,0.07074,0.59897
 13:43:44.323,eb:33:2e:f9:57:b5, 2085-97-15 254:157:250:6080,0.009,-0.732,2.823,170.288,-8.545,13.245,4.598,8.058,74.119,-51.8,-44.5,-3.593,28.5,0.79721,-0.02402,0.07074,0.59897
 13:43:44.323,eb:33:2e:f9:57:b5, 2085-97-34 02:29:250:6957,0.472,-0.662,3.132,242.798,6.897,15.259,6.729,8.026,74.273,-51.8,-44.5,-3.593,28.5,0.79721,-0.02402,0.07074,0.59897
 13:43:44.354,eb:33:2e:f9:57:b5, 2085-97-131 05:87:250:7050,0.751,-0.768,3.481,305.786,80.139,16.907,9.569,8.432,74.509,-51.8,-44.5,-3.593,28.5,0.79721,-0.02402,0.07074,0.59897
 13:43:44.354,eb:33:2e:f9:57:b5, 2085-97-76 06:168:252:6292,1.003,-0.592,3.213,345.276,165.894,18.555,12.92,9.673,74.949,-51.8,-44.5,-3.593,28.5,0.79721,-0.02402,0.07074,0.59897
 13:43:44.354,eb:33:2e:f9:57:b5, 2085-97-176 07:201:250:5650,0.833,-0.54,3.011,382.69,230.835,7.996,16.699,11.558,75.619,-51.8,-44.5,-3.593,28.5,0.79721,-0.02402,0.07074,0.59897
 13:43:44.354,eb:33:2e:f9:57:b5, 2085-97-15 06:227:252:6099,0.528,-0.723,2.675,418.213,295.105,-0.122,20.934,14.112,76.553,-51.8,-44.5,-3.593,28.5,0.79721,-0.02402,0.07074,0.59897
 13:43:44.413,eb:33:2e:f9:57:b5, 2085-97-153 00:41:255:7071,0.249,-0.414,3.305,447.632,318.787,-25.391,25.604,17.012,77.679,-51.8,-44.5,-3.593,28.5,0.79721,-0.02402,0.07074,0.59897
 13:43:44.413,eb:33:2e:f9:57:b5, 2085-97-48 00:153:250:5865,0.272,-0.531,3.58,443.42,345.459,-24.048,30.536,20.028,79.019,-51.8,-44.5,-3.593,28.5,0.79721,-0.02402,0.07074,0.59897
 13:43:44.413,eb:33:2e:f9:57:b5, 2085-97-61 03:238:250:3883,0.545,-0.793,2.317,408.203,364.868,-6.409,35.508,23.11,81.024,-51.8,-44.5,-3.593,28.5,0.79721,-0.02402,0.07074,0.59897
 13:43:44.413,eb:33:2e:f9:57:b5, 2085-97-121 05:108:02:3201,0.859,-0.261,1.685,375.671,354.675,-0.305,40.424,25.977,83.469,-51.8,-44.5,-3.593,28.5,0.79721,-0.02402,0.07074,0.59897
 13:43:44.443,eb:33:2e:f9:57:b5, 2085-97-04 07:195:05:2347,1.035,0.791,1.414,334.595,325.012,-19.653,45.121,28.488,85.984,-51.8,-44.5,-3.593,28.5,0.79721,-0.02402,0.07074,0.59897
 13:43:44.443,eb:33:2e:f9:57:b5, 2085-97-93 06:29:01:-1940,1.059,-0.125,0.476,257.263,335.327,-25.879,49.34,30.921,88.544,-51.8,-44.5,-3.593,28.5,0.79721,-0.02402,0.07074,0.59897
 13:43:44.443,eb:33:2e:f9:57:b5, 2085-97-26 13:220:12:-1697,0.172,0.888,-1.479,199.341,253.54,-64.819,52.839,33.074,91.033,-51.8,-44.5,-3.593,28.5,0.79721,-0.02402,0.07074,0.59897
 13:43:44.443,eb:33:2e:f9:57:b5, 2085-97-45 00:100:09:-2204,0.453,1.863,-1.939,178.894,145.691,-170.593,55.47,35.349,92.296,-51.8,-44.5,-3.593,28.5,0.79721,-0.02402,0.07074,0.59897
 13:43:44.473,eb:33:2e:f9:57:b5, 2085-97-245 01:70:02:1211,0.196,0.655,0.262,145.203,7.446,-196.838,56.596,37.194,91.527,-51.8,-44.5,-3.593,28.5,0.79721,-0.02402,0.07074,0.59897
 13:43:44.473,eb:33:2e:f9:57:b5, 2085-97-68 01:244:254:2788,0.142,0.056,0.975,137.695,-38.635,-207.153,56.948,38.776,89.852,-51.8,-44.5,-3.593,28.5,0.79721,-0.02402,0.07074,0.59897
 13:43:44.473,eb:33:2e:f9:57:b5, 2085-97-29 01:103:254:3989,0.165,-0.218,1.708,140.991,-30.823,-191.833,57.184,40.248,88.033,-51.8,-44.5,-3.593,28.5,0.79721,-0.02402,0.07074,0.59897
 13:43:44.473,eb:33:2e:f9:57:b5, 2085-97-77 01:238:254:4336,0.186,-0.146,2.088,138.245,2.441,-166.382,57.651,41.671,86.6,-51.8,-44.5,-3.593,28.5,0.79721,-0.02402,0.07074,0.59897
 13:43:44.533,eb:33:2e:f9:57:b5, 2085-97-206 01:55:254:4350,0.261,-0.159,2.129,123.047,41.199,-134.644,58.42,43.066,85.803,-51.8,-44.5,-3.593,28.5,0.79721,-0.02402,0.07074,0.59897
 13:43:44.533,eb:33:2e:f9:57:b5, 2085-97-113 02:110:253:4107,0.364,-0.291,2.074,95.215,84.229,-91.003,59.491,44.346,85.792,-51.8,-44.5,-3.593,28.5,0.79721,-0.02402,0.07074,0.59897
 13:43:44.533,eb:33:2e:f9:57:b5, 2085-97-104 03:99:253:3790,0.577,-0.326,1.927,59.937,112.122,-47.974,60.793,45.428,86.55,-51.8,-44.5,-3.593,28.5,0.79721,-0.02402,0.07074,0.59897
 13:43:44.533,eb:33:2e:f9:57:b5, 2085-97-06 06:132:252:3907,0.929,-0.361,1.875,20.142,127.075,-6.958,62.122,46.214,87.885,-51.8,-44.5,-3.593,28.5,0.79721,-0.02402,0.07074,0.59897
 13:43:44.565,eb:33:2e:f9:57:b5, 2085-97-72 08:254:251:4056,1.016,-0.488,1.949,-3.479,137.573,24.048,63.484,46.73,89.692,-32.7,-62.6,-20.66,28.5,0.79721,-0.02402,0.07074,0.59897
 13:43:44.565,eb:33:2e:f9:57:b5, 2085-97-115 07:87:252:3879,0.874,-0.497,1.939,8.972,112.366,39.062,64.858,46.978,91.588,-32.7,-62.6,-20.66,28.5,0.79721,-0.02402,0.07074,0.59897
 13:43:44.565,eb:33:2e:f9:57:b5, 2085-97-127 07:140:251:3437,1.026,-0.475,1.799,30.09,34.119,47.058,65.967,46.879,92.796,-32.7,-62.6,-20.66,28.5,0.79721,-0.02402,0.07074,0.59897
 13:43:44.565,eb:33:2e:f9:57:b5, 2085-97-133 09:158:249:3113,1.332,-0.711,1.559,16.174,-32.471,50.415,66.357,46.401,93.01,-32.7,-62.6,-20.66,28.5,0.79721,-0.02402,0.07074,0.59897
 13:43:44.593,eb:33:2e:f9:57:b5, 2085-97-244 10:184:249:2411,1.328,-0.792,1.41,-22.217,-58.594,57.312,66.077,45.703,92.664,-32.7,-62.6,-20.66,28.5,0.79721,-0.02402,0.07074,0.59897
 13:43:44.593,eb:33:2e:f9:57:b5, 2085-97-84 10:251:249:969,1.215,-0.772,0.812,-63.599,-75.195,59.021,65.226,44.879,92.131,-32.7,-62.6,-20.66,28.5,0.79721,-0.02402,0.07074,0.59897
 13:43:44.595,eb:33:2e:f9:57:b5, 2085-97-88 09:213:249:306,1.162,-0.763,0.242,-93.994,-121.826,53.65,63.781,43.945,91.23,-32.7,-62.6,-20.66,28.5,0.79721,-0.02402,0.07074,0.59897
 13:43:44.595,eb:33:2e:f9:57:b5, 2085-97-81 09:247:249:402,1.168,-0.763,0.163,-116.821,-184.814,45.105,61.584,42.775,89.61,-32.7,-62.6,-20.66,28.5,0.79721,-0.02402,0.07074,0.59897
 13:43:44.654,eb:33:2e:f9:57:b5, 2085-97-49 09:16:250:308,1.114,-0.746,0.198,-149.414,-242.065,35.889,58.733,41.347,87.341,-32.7,-62.6,-20.66,28.5,0.69504,0.11646,0.56595,0.42773
 13:43:44.654,eb:33:2e:f9:57:b5, 2085-97-158 08:173:249:252,1.068,-0.76,0.097,-195.74,-295.593,27.588,55.162,39.589,84.551,-32.7,-62.6,-20.66,28.5,0.69504,0.11646,0.56595,0.42773
 13:43:44.654,eb:33:2e:f9:57:b5, 2085-97-108 08:140:249:1163,1.019,-0.808,0.297,-240.967,-336.121,23.315,51.026,37.469,81.469,-32.7,-62.6,-20.66,28.5,0.69504,0.11646,0.56595,0.42773
 13:43:44.654,eb:33:2e:f9:57:b5, 2085-97-156 07:31:250:2278,0.856,-0.779,0.862,-268.494,-351.196,23.315,46.62,34.997,78.409,-32.7,-62.6,-20.66,28.5,0.69504,0.11646,0.56595,0.42773
 13:43:44.683,eb:33:2e:f9:57:b5, 2085-97-14 06:241:250:2936,0.673,-0.681,1.299,-276.917,-351.807,25.024,42.347,32.316,75.652,-32.7,-62.6,-20.66,28.5,0.69504,0.11646,0.56595,0.42773
 13:43:44.683,eb:33:2e:f9:57:b5, 2085-97-255 04:114:251:3254,0.589,-0.599,1.521,-276.917,-345.337,28.687,38.326,29.46,73.251,-32.7,-62.6,-20.66,28.5,0.69504,0.11646,0.56595,0.42773
 13:43:44.683,eb:33:2e:f9:57:b5, 2085-97-121 04:90:251:3377,0.515,-0.556,1.606,-279.236,-337.097,34.607,34.607,26.532,71.257,-32.7,-62.6,-20.66,28.5,0.69504,0.11646,0.56595,0.42773
 13:43:44.683,eb:33:2e:f9:57:b5, 2085-97-127 03:151:250:3691,0.352,-0.633,1.732,-286.438,-338.806,44.067,31.053,23.456,69.593,-32.7,-62.6,-20.66,28.5,0.69504,0.11646,0.56595,0.42773
 13:43:44.745,eb:33:2e:f9:57:b5, 2085-97-48 02:197:250:4054,0.202,-0.693,1.878,-296.448,-343.201,62.5,27.647,20.22,68.291,-32.7,-62.6,-20.66,28.5,0.69504,0.11646,0.56595,0.42773
 13:43:44.745,eb:33:2e:f9:57:b5, 2085-97-88 01:223:252:4637,0.121,-0.55,2.102,-301.086,-344.36,84.534,24.346,16.776,67.407,-32.7,-62.6,-20.66,28.5,0.69504,0.11646,0.56595,0.42773
 13:43:44.745,eb:33:2e:f9:57:b5, 2085-97-90 00:132:255:5216,-0.045,-0.218,2.41,-296.57,-345.276,99.731,21.226,13.233,66.918,-32.7,-62.6,-20.66,28.5,0.69504,0.11646,0.56595,0.42773
 13:43:44.745,eb:33:2e:f9:57:b5, 2085-97-215 254:196:01:5860,-0.251,0.077,2.695,-287.17,-343.323,109.436,18.243,9.602,66.736,-32.7,-62.6,-20.66,28.5,0.69504,0.11646,0.56595,0.42773
 13:43:44.773,eb:33:2e:f9:57:b5, 2085-97-71 253:99:04:6694,-0.444,0.379,3.048,-275.391,-327.209,117.371,15.452,6.059,66.857,-32.7,-62.6,-20.66,28.5,0.69504,0.11646,0.56595,0.42773
 13:43:44.773,eb:33:2e:f9:57:b5, 2085-97-34 251:20:08:7331,-0.847,0.748,3.478,-257.263,-293.823,121.643,12.794,2.73,67.264,-32.7,-62.6,-20.66,28.5,0.69504,0.11646,0.56595,0.42773
 13:43:44.773,eb:33:2e:f9:57:b5, 2085-97-72 247:154:13:6791,-1.317,1.333,3.515,-232.666,-268.86,120.3,10.366,-0.225,67.901,-32.7,-62.6,-20.66,28.5,0.69504,0.11646,0.56595,0.42773
 13:43:44.773,eb:33:2e:f9:57:b5, 2085-97-210 243:168:18:5458,-1.647,2.051,3.015,-209.778,-284.668,110.657,8.124,-3.148,68.604,-32.7,-62.6,-20.66,28.5,0.69504,0.11646,0.56595,0.42773
 13:43:44.805,eb:33:2e:f9:57:b5, 2085-97-219 241:248:22:4769,-1.906,2.614,2.4,-194.763,-327.026,97.717,6.064,-6.323,69.28,-32.7,-62.6,-20.66,28.5,0.69504,0.11646,0.56595,0.42773
 13:43:44.805,eb:33:2e:f9:57:b5, 2085-97-02 240:157:26:5091,-2.096,3.111,2.392,-188.171,-351.44,79.285,4.065,-9.86,69.862,-32.7,-62.6,-20.66,28.5,0.69504,0.11646,0.56595,0.42773
 13:43:44.806,eb:33:2e:f9:57:b5, 2085-97-05 238:225:29:5024,-2.425,3.55,2.516,-193.909,-308.594,56.152,2.049,-13.233,70.389,-32.7,-62.6,-20.66,28.5,0.69504,0.11646,0.56595,0.42773
 13:43:44.806,eb:33:2e:f9:57:b5, 2085-113-58 00:173:233:-5820,-2.547,3.894,2.249,-172.729,-222.534,23.254,0.082,-15.875,70.741,-32.7,-62.6,-20.66,28.5,0.69504,0.11646,0.56595,0.42773
 13:43:44.806,eb:33:2e:f9:57:b5, 2085-97-86 234:80:31:3722,-2.859,3.972,2.059,-144.836,-179.138,6.104,-0.714,-16.859,70.812,-32.7,-62.6,-20.66,28.5,0.69504,0.11646,0.56595,0.42773
 13:43:44.864,eb:33:2e:f9:57:b5, 2085-97-64 232:87:27:2741,-3.076,3.72,1.556,-61.951,-103.516,-18.311,-1.708,-18.221,70.774,-38.1,-38.8,0.8,28.5,0.69504,0.11646,0.56595,0.42773
 13:43:44.864,eb:33:2e:f9:57:b5, 2085-97-13 231:116:21:2232,-3.041,3.055,1.175,26.855,-40.039,-13.55,-1.791,-18.913,70.609,-38.1,-38.8,0.8,28.5,0.69504,0.11646,0.56595,0.42773
 13:43:44.864,eb:33:2e:f9:57:b5, 2085-97-224 232:126:15:2122,-2.746,2.237,1.076,104.004,27.161,21.118,-1.093,-18.973,70.659,-38.1,-38.8,0.8,28.5,0.69504,0.11646,0.56595,0.42773
 13:43:44.864,eb:33:2e:f9:57:b5, 2085-97-119 235:228:12:1377,-2.333,1.734,0.868,140.625,95.154,66.101,0.005,-18.32,71.136,-38.1,-38.8,0.8,28.5,0.69504,0.11646,0.56595,0.42773
 13:43:44.894,eb:33:2e:f9:57:b5, 2085-97-229 243:96:16:6255,-1.443,1.527,0.54,169.617,134.644,98.572,1.285,-17.133,72.076,-38.1,-38.8,0.8,28.5,0.79422,0.10062,-0.10614,0.58966
 13:43:44.894,eb:33:2e:f9:57:b5, 2085-97-203 220:133:14:1431,-2.399,9.293,11.082,171.814,514.465,-171.387,3.021,-14.892,73.136,-38.1,-38.8,0.8,28.5,0.79422,0.10062,-0.10614,0.58966
 13:43:44.894,eb:33:2e:f9:57:b5, 2085-97-74 15:24:57:5121,-2.157,6.642,-0.031,-92.041,687.134,-0.732,3.741,-9.426,72.675,-38.1,-38.8,0.8,28.5,0.79422,0.10062,-0.10614,0.58966
 13:43:44.894,eb:33:2e:f9:57:b5, 2085-97-141 195:244:197:-1109,-2.994,7.213,-5.376,-335.815,628.967,-195.129,0.401,-0.143,72.274,-38.1,-38.8,0.8,28.5,0.79422,0.10062,-0.10614,0.58966
 13:43:44.923,eb:33:2e:f9:57:b5, 2085-97-48 24:87:11:7275,-1.359,-3.022,-0.257,-21.79,-75.745,179.688,-0.972,1.675,72.702,-38.1,-38.8,0.8,28.5,0.79422,0.10062,-0.10614,0.58966
 13:43:44.923,eb:33:2e:f9:57:b5, 2085-97-131 242:104:251:188,-1.141,-1.036,0.823,-9.46,131.531,25.757,-1.148,2.928,72.999,-38.1,-38.8,0.8,28.5,0.79422,0.10062,-0.10614,0.58966
 13:43:44.923,eb:33:2e:f9:57:b5, 2085-97-01 00:183:254:2777,0.817,-0.417,0.152,18.494,18.188,23.682,-1.027,3.466,73.339,-38.1,-38.8,0.8,28.5,0.79422,0.10062,-0.10614,0.58966
 13:43:44.923,eb:33:2e:f9:57:b5, 2085-97-05 255:50:02:1309,-0.366,0.68,1.754,27.588,62.622,-4.211,-0.725,3.752,73.521,-38.1,-38.8,0.8,28.5,0.79422,0.10062,-0.10614,0.58966
 13:43:44.983,eb:33:2e:f9:57:b5, 2085-97-179 255:217:00:1891,-0.434,-0.096,0.729,18.555,35.95,5.066,-0.544,4.274,73.526,-38.1,-38.8,0.8,28.5,0.79422,0.10062,-0.10614,0.58966
 13:43:44.983,eb:33:2e:f9:57:b5, 2085-97-00 00:13:01:2446,0.049,-0.1,0.792,19.714,26.367,0,-0.363,4.675,73.504,-38.1,-38.8,0.8,28.5,0.79422,0.10062,-0.10614,0.58966
 13:43:44.983,eb:33:2e:f9:57:b5, 2085-97-162 255:52:00:2535,0.2,0.106,1.282,19.043,45.227,-10.01,-0.176,5.032,73.488,-38.1,-38.8,0.8,28.5,0.79422,0.10062,-0.10614,0.58966
 13:43:44.983,eb:33:2e:f9:57:b5, 2085-97-148 00:195:00:2851,-0.265,0.111,1.496,19.226,61.279,-13.184,0.016,5.537,73.389,-38.1,-38.8,0.8,28.5,0.79422,0.10062,-0.10614,0.58966
 13:43:45.014,eb:33:2e:f9:57:b5, 2085-97-233 254:20:00:2285,-0.055,0.032,0.899,22.705,56.763,-17.273,0.209,6.207,73.229,-38.1,-38.8,0.8,28.5,0.79422,0.10062,-0.10614,0.58966
 13:43:45.014,eb:33:2e:f9:57:b5, 2085-97-85 253:217:253:3127,-0.498,-0.117,1.557,37.17,45.41,-17.395,0.489,6.68,73.076,-38.1,-38.8,0.8,28.5,0.79422,0.10062,-0.10614,0.58966
 13:43:45.014,eb:33:2e:f9:57:b5, 2085-97-92 252:172:252:3701,-0.287,-0.33,1.565,77.148,-0.244,-5.066,1.055,6.921,72.982,-38.1,-38.8,0.8,28.5,0.79422,0.10062,-0.10614,0.58966
 13:43:45.014,eb:33:2e:f9:57:b5, 2085-97-160 254:171:251:5146,-0.144,-0.411,2.294,129.089,-27.222,6.775,2.104,6.735,73.01,-38.1,-38.8,0.8,28.5,0.79422,0.10062,-0.10614,0.58966
 13:43:45.044,eb:33:2e:f9:57:b5, 2085-97-207 255:119:252:5062,0.144,-0.494,2.484,182.129,-19.897,11.658,3.702,6.498,73.125,-38.1,-38.8,0.8,28.5,0.79422,0.10062,-0.10614,0.58966
 13:43:45.044,eb:33:2e:f9:57:b5, 2085-97-41 00:205:250:4942,0.141,-0.497,2.516,239.624,-7.935,8.484,5.845,6.35,73.224,-38.1,-38.8,0.8,28.5,0.79422,0.10062,-0.10614,0.58966
 13:43:45.044,eb:33:2e:f9:57:b5, 2085-97-04 02:195:251:5199,0.381,-0.682,2.412,286.255,22.705,21.606,8.547,6.383,73.4,-38.1,-38.8,0.8,28.5,0.79422,0.10062,-0.10614,0.58966
 13:43:45.044,eb:33:2e:f9:57:b5, 2085-97-51 04:162:250:5637,0.682,-0.638,2.66,318.481,78.491,25.391,11.624,6.872,73.74,-38.1,-38.8,0.8,28.5,0.79422,0.10062,-0.10614,0.58966
 13:43:45.104,eb:33:2e:f9:57:b5, 2085-97-36 06:207:250:5842,0.716,-0.533,2.892,362.915,137.939,8.789,15.106,7.888,74.202,-38.1,-38.8,0.8,28.5,0.79422,0.10062,-0.10614,0.58966
 13:43:45.104,eb:33:2e:f9:57:b5, 2085-97-175 04:57:251:5404,0.424,-0.504,2.746,395.142,208.679,-3.662,19.017,9.575,74.767,-38.1,-38.8,0.8,28.5,0.79422,0.10062,-0.10614,0.58966
 13:43:45.104,eb:33:2e:f9:57:b5, 2085-97-177 02:231:251:5064,0.181,-0.509,2.54,420.959,250.977,-13.55,23.258,11.799,75.575,-38.1,-38.8,0.8,28.5,0.79422,0.10062,-0.10614,0.58966
 13:43:45.104,eb:33:2e:f9:57:b5, 2085-97-23 255:135:253:5129,0.027,-0.493,2.514,429.565,280.579,-14.526,27.784,14.26,76.575,-38.1,-38.8,0.8,28.5,0.79422,0.10062,-0.10614,0.58966
 13:43:45.134,eb:33:2e:f9:57:b5, 2085-97-19 01:157:254:3833,0.364,-0.417,2.441,410.522,307.861,-7.935,32.371,16.87,78.008,-46.3,-52.6,-5.36,28.5,0.79422,0.10062,-0.10614,0.58966
 13:43:45.134,eb:33:2e:f9:57:b5, 2085-97-117 03:125:02:2618,0.561,0.072,1.417,370.911,306.58,-3.113,36.837,19.44,79.832,-46.3,-52.6,-5.36,28.5,0.79422,0.10062,-0.10614,0.58966
 13:43:45.134,eb:33:2e:f9:57:b5, 2085-97-217 04:09:04:2622,0.619,0.461,1.349,334.839,294.617,-17.334,41.012,21.824,81.793,-46.3,-52.6,-5.36,28.5,0.79422,0.10062,-0.10614,0.58966
 13:43:45.134,eb:33:2e:f9:57:b5, 2085-97-112 05:11:02:2069,0.724,0.393,1.084,294.25,285.767,-32.593,44.912,24.131,83.732,-46.3,-52.6,-5.36,28.5,0.79422,0.10062,-0.10614,0.58966
 13:43:45.163,eb:33:2e:f9:57:b5, 2085-97-124 05:84:255:241,0.899,-0.001,0.733,255.249,287.537,-24.292,48.505,26.312,85.831,-46.3,-52.6,-5.36,28.5,0.79422,0.10062,-0.10614,0.58966
 13:43:45.163,eb:33:2e:f9:57:b5, 2085-97-149 07:68:05:-973,1.164,0.165,-0.369,231.506,242.065,-21.729,51.91,28.169,87.979,-46.3,-52.6,-5.36,28.5,0.79422,0.10062,-0.10614,0.58966
 13:43:45.163,eb:33:2e:f9:57:b5, 2085-97-229 07:78:12:689,0.312,1.176,0.074,251.77,192.261,-77.759,55.052,29.795,89.583,-46.3,-52.6,-5.36,28.5,0.79422,0.10062,-0.10614,0.58966
 13:43:45.163,eb:33:2e:f9:57:b5, 2085-97-246 02:117:10:335,0.409,1.712,-0.218,285.645,112.854,-169.434,58.211,31.767,90.308,-46.3,-52.6,-5.36,28.5,0.79422,0.10062,-0.10614,0.58966
 13:43:45.224,eb:33:2e:f9:57:b5, 2085-97-05 03:198:05:1679,0.288,1.076,0.389,278.015,5.493,-220.032,60.683,33.728,89.632,-46.3,-52.6,-5.36,28.5,0.68854,0.15811,0.48877,0.51175
 13:43:45.224,eb:33:2e:f9:57:b5, 2085-97-85 01:188:00:3359,0.12,0.337,1.333,225.708,-24.414,-246.582,62.265,35.722,88.017,-46.3,-52.6,-5.36,28.5,0.68854,0.15811,0.48877,0.51175
 13:43:45.224,eb:33:2e:f9:57:b5, 2085-97-219 00:225:254:3868,0.11,-0.05,1.809,166.077,11.963,-234.497,63.325,37.842,86.561,-46.3,-52.6,-5.36,28.5,0.68854,0.15811,0.48877,0.51175
 13:43:45.224,eb:33:2e:f9:57:b5, 2085-97-24 01:254:253:3669,0.165,-0.209,1.869,113.831,61.035,-203.003,64.193,39.968,85.77,-46.3,-52.6,-5.36,28.5,0.68854,0.15811,0.48877,0.51175
 13:43:45.282,eb:33:2e:f9:57:b5, 2085-97-225 01:153:253:3452,0.241,-0.286,1.713,77.209,100.83,-162.17,65.105,41.962,85.754,-46.3,-52.6,-5.36,28.5,0.68854,0.15811,0.48877,0.51175
 13:43:45.282,eb:33:2e:f9:57:b5, 2085-97-33 02:123:253:3252,0.254,-0.326,1.618,53.772,132.935,-118.042,66.215,43.709,86.462,-46.3,-52.6,-5.36,28.5,0.68854,0.15811,0.48877,0.51175
 13:43:45.282,eb:33:2e:f9:57:b5, 2085-97-45 02:193:253:2934,0.317,-0.299,1.498,44.067,147.095,-75.012,67.615,45.132,87.786,-46.3,-52.6,-5.36,28.5,0.68854,0.15811,0.48877,0.51175
 13:43:45.282,eb:33:2e:f9:57:b5, 2085-97-45 03:187:253:3051,0.407,-0.28,1.423,50.293,140.93,-37.964,69.241,46.165,89.423,-46.3,-52.6,-5.36,28.5,0.68854,0.15811,0.48877,0.51175
 13:43:45.287,eb:33:2e:f9:57:b5, 2085-97-33 03:85:254:3062,0.354,-0.267,1.509,71.411,125.671,-8.728,71.104,46.818,91.143,-46.3,-52.6,-5.36,28.5,0.68854,0.15811,0.48877,0.51175
 13:43:45.287,eb:33:2e:f9:57:b5, 2085-97-176 02:244:255:3151,0.311,-0.106,1.472,97.229,91.125,11.658,73.065,47.115,92.659,-46.3,-52.6,-5.36,28.5,0.68854,0.15811,0.48877,0.51175
 13:43:45.287,eb:33:2e:f9:57:b5, 2085-97-143 01:45:00:3441,0.116,0.043,1.66,109.619,43.823,25.879,74.85,47.104,93.658,-46.3,-52.6,-5.36,28.5,0.68854,0.15811,0.48877,0.51175
 13:43:45.287,eb:33:2e:f9:57:b5, 2085-97-37 01:55:00:3550,0.174,0.009,1.689,98.877,-8.179,42.664,76.141,46.802,93.983,-46.3,-52.6,-5.36,28.5,0.68854,0.15811,0.48877,0.51175
 13:43:45.345,eb:33:2e:f9:57:b5, 2085-97-26 02:98:255:3440,0.323,-0.03,1.731,57.312,-36.743,58.105,76.778,46.241,93.785,-46.3,-52.6,-5.36,28.5,0.68854,0.15811,0.48877,0.51175
 13:43:45.345,eb:33:2e:f9:57:b5, 2085-97-230 02:247:254:2467,0.413,-0.114,1.502,-2.93,-41.565,74.463,76.761,45.483,93.433,-46.3,-52.6,-5.36,28.5,0.68854,0.15811,0.48877,0.51175
 13:43:45.345,eb:33:2e:f9:57:b5, 2085-97-185 03:118:254:1026,0.468,-0.151,0.841,-69.214,-63.782,84.473,76.058,44.583,92.994,-46.3,-52.6,-5.36,28.5,0.68854,0.15811,0.48877,0.51175
 13:43:45.345,eb:33:2e:f9:57:b5, 2085-97-231 03:169:253:375,0.52,-0.253,0.263,-132.568,-106.689,87.585,74.388,43.517,92.12,-46.3,-52.6,-5.36,28.5,0.68854,0.15811,0.48877,0.51175
 13:43:45.375,eb:33:2e:f9:57:b5, 2085-97-74 04:117:253:248,0.552,-0.311,0.152,-184.509,-151.855,88.135,71.834,42.292,90.747,-46.3,-52.6,-5.36,28.5,0.68854,0.15811,0.48877,0.51175
 13:43:45.375,eb:33:2e:f9:57:b5, 2085-97-219 04:205:252:022,0.652,-0.35,0.083,-228.638,-197.571,87.83,68.5,40.853,88.901,-46.3,-52.6,-5.36,28.5,0.68854,0.15811,0.48877,0.51175
 13:43:45.375,eb:33:2e:f9:57:b5, 2085-97-98 05:51:252:-192,0.659,-0.445,-0.053,-270.996,-244.385,87.708,64.534,39.15,86.671,-46.3,-52.6,-5.36,28.5,0.68854,0.15811,0.48877,0.51175
 13:43:45.375,eb:33:2e:f9:57:b5, 2085-97-80 05:204:252:053,0.645,-0.465,-0.089,-307.007,-290.588,88.318,60.051,37.106,84.15,-46.3,-52.6,-5.36,28.5,0.68854,0.15811,0.48877,0.51175
 13:43:45.405,eb:33:2e:f9:57:b5, 2085-97-68 05:181:253:881,0.661,-0.343,0.191,-338.623,-335.144,85.51,55.206,34.678,81.431,-32,-61.1,-14.207,28.5,0.68854,0.15811,0.48877,0.51175
 13:43:45.405,eb:33:2e:f9:57:b5, 2085-97-151 05:88:254:2042,0.688,-0.261,0.703,-353.394,-359.619,80.444,50.191,31.877,78.684,-32,-61.1,-14.207,28.5,0.68854,0.15811,0.48877,0.51175
 13:43:45.405,eb:33:2e:f9:57:b5, 2085-97-62 05:212:255:2819,0.576,-0.133,1.232,-345.459,-352.966,72.266,45.428,28.905,76.201,-32,-61.1,-14.207,28.5,0.68854,0.15811,0.48877,0.51175
 13:43:45.405,eb:33:2e:f9:57:b5, 2085-97-206 03:57:02:2754,0.4,0.13,1.38,-322.449,-333.252,54.504,41.094,25.966,74.081,-32,-61.1,-14.207,28.5,0.68854,0.15811,0.48877,0.51175
 13:43:45.464,eb:33:2e:f9:57:b5, 2085-97-76 02:110:02:3184,0.1,0.358,1.409,-295.654,-328.918,29.541,37.216,23.148,72.136,-32,-61.1,-14.207,28.5,0.68854,0.15811,0.48877,0.51175
 13:43:45.464,eb:33:2e:f9:57:b5, 2085-113-81 00:96:102:4444,0.009,0.123,1.758,-279.297,-317.932,16.235,33.657,20.363,70.28,-32,-61.1,-14.207,28.5,0.68854,0.15811,0.48877,0.51175
 13:43:45.464,eb:33:2e:f9:57:b5, 2085-97-202 255:22:255:3490,-0.096,-0.04,1.826,-278.381,-306.091,18.188,31.992,19.006,69.456,-32,-61.1,-14.207,28.5,0.68854,0.15811,0.48877,0.51175
 13:43:45.464,eb:33:2e:f9:57:b5, 2085-97-165 254:13:254:3108,-0.194,-0.201,1.583,-288.269,-284.668,32.166,28.735,16.326,68.115,-32,-61.1,-14.207,28.5,0.68854,0.15811,0.48877,0.51175
 13:43:45.493,eb:33:2e:f9:57:b5, 2085-97-127 254:210:254:3225,-0.202,-0.217,1.515,-297.058,-265.32,56.274,25.56,13.683,67.236,-32,-61.1,-14.207,28.5,0.7998,0.13562,0.3024,0.50037
 13:43:45.493,eb:33:2e:f9:57:b5, 2085-97-255 253:112:00:3501,-0.312,-0.06,1.652,-285.583,-259.338,73.547,22.516,11.008,66.769,-32,-61.1,-14.207,28.5,0.7998,0.13562,0.3024,0.50037
 13:43:45.493,eb:33:2e:f9:57:b5, 2085-97-213 252:126:02:3595,-0.49,0.184,1.737,-264.099,-261.536,83.008,19.742,8.295,66.572,-32,-61.1,-14.207,28.5,0.7998,0.13562,0.3024,0.50037
 13:43:45.493,eb:33:2e:f9:57:b5, 2085-97-73 251:199:04:3948,-0.691,0.447,1.815,-242.981,-263.55,86.67,17.199,5.51,66.55,-32,-61.1,-14.207,28.5,0.7998,0.13562,0.3024,0.50037
 13:43:45.525,eb:33:2e:f9:57:b5, 2085-97-64 249:108:07:4468,-1.028,0.756,2.078,-224.426,-256.836,86.792,14.881,2.758,66.665,-32,-61.1,-14.207,28.5,0.7998,0.13562,0.3024,0.50037
 13:43:45.525,eb:33:2e:f9:57:b5, 2085-97-88 246:62:11:4434,-1.384,1.143,2.208,-211.67,-244.69,83.313,12.7,0.104,66.896,-32,-61.1,-14.207,28.5,0.7998,0.13562,0.3024,0.50037
 13:43:45.525,eb:33:2e:f9:57:b5, 2085-97-165 243:88:15:4023,-1.754,1.68,2.06,-204.651,-238.892,73.914,10.613,-2.401,67.181,-32,-61.1,-14.207,28.5,0.7998,0.13562,0.3024,0.50037
 13:43:45.525,eb:33:2e:f9:57:b5, 2085-97-162 240:238:17:3701,-2.074,2.117,1.865,-189.514,-245.239,57.556,8.602,-4.911,67.429,-32,-61.1,-14.207,28.5,0.7998,0.13562,0.3024,0.50037
 13:43:45.583,eb:33:2e:f9:57:b5, 2085-97-40 238:28:20:3617,-2.375,2.375,1.775,-163.391,-250.122,45.41,6.823,-7.443,67.599,-32,-61.1,-14.207,28.5,0.7998,0.13562,0.3024,0.50037
 13:43:45.583,eb:33:2e:f9:57:b5, 2085-97-47 236:27:22:3826,-2.559,2.648,1.783,-132.202,-242.554,36.743,5.323,-9.965,67.747,-32,-61.1,-14.207,28.5,0.7998,0.13562,0.3024,0.50037
 13:43:45.583,eb:33:2e:f9:57:b5, 2085-97-17 235:155:23:4213,-2.628,2.858,1.985,-98.999,-200.562,31.494,4.153,-12.211,67.901,-32,-61.1,-14.207,28.5,0.7998,0.13562,0.3024,0.50037
 13:43:45.583,eb:33:2e:f9:57:b5, 2085-97-81 235:199:24:4020,-2.512,3.038,2.053,-61.951,-119.812,28.503,3.312,-13.821,68.104,-32,-61.1,-14.207,28.5,0.7998,0.13562,0.3024,0.50037
 13:43:45.614,eb:33:2e:f9:57:b5, 2085-97-125 236:138:24:3050,-2.388,3.114,1.769,-21.912,-27.1,23.987,2.851,-14.518,68.362,-32,-61.1,-14.207,28.5,0.7998,0.13562,0.3024,0.50037
 13:43:45.614,eb:33:2e:f9:57:b5, 2085-97-61 237:144:22:1724,-2.253,2.953,1.167,21.423,46.082,20.569,2.807,-14.376,68.593,-32,-61.1,-14.207,28.5,0.7998,0.13562,0.3024,0.50037
 13:43:45.614,eb:33:2e:f9:57:b5, 2085-97-255 238:146:19:726,-4.011,2.688,0.562,81.299,86.487,18.677,3.268,-13.672,68.862,-32,-61.1,-14.207,28.5,0.7998,0.13562,0.3024,0.50037
 13:43:45.614,eb:33:2e:f9:57:b5, 2085-97-34 254:111:93:18715,0.583,5.874,1.266,132.141,-44.861,17.761,4.427,-13.035,69.148,-32,-61.1,-14.207,28.5,0.7998,0.13562,0.3024,0.50037
 13:43:45.644,eb:33:2e:f9:57:b5, 2085-97-52 216:226:255:-693,-3.248,5.886,7.624,-0.916,620.117,-284.241,5.12,-10.366,67.714,-32,-61.1,-14.207,28.5,0.7998,0.13562,0.3024,0.50037
 13:43:45.644,eb:33:2e:f9:57:b5, 2085-97-84 245:40:47:-15981,-0.565,3.784,-2.414,-328.735,704.285,89.783,3.73,-3.549,67.687,-32,-61.1,-14.207,28.5,0.7998,0.13562,0.3024,0.50037
 13:43:45.644,eb:33:2e:f9:57:b5, 2085-97-161 232:19:183:17939,-2.157,0.88,-0.859,-327.881,168.64,-186.951,0.044,-0.005,67.225,-32,-61.1,-14.207,28.5,0.7998,0.13562,0.3024,0.50037
 13:43:45.644,eb:33:2e:f9:57:b5, 2085-97-182 35:144:25:7131,-3.506,-2.224,-0.328,59.326,-86.609,149.353,-1.011,1.467,67.434,-32,-61.1,-14.207,28.5,0.7998,0.13562,0.3024,0.50037
 13:43:45.705,eb:33:2e:f9:57:b5, 2085-97-136 239:54:247:-1493,0.89,-1.676,-0.954,-8.911,94.238,-11.353,-1.412,3.252,67.264,-32,-61.1,-14.207,28.5,0.7998,0.13562,0.3024,0.50037
 13:43:45.705,eb:33:2e:f9:57:b5, 2085-97-94 00:116:01:1865,-0.577,0.013,2.532,17.944,30.762,8.972,-1.324,3.142,67.665,-32,-61.1,-14.207,28.5,0.7998,0.13562,0.3024,0.50037
 13:43:45.705,eb:33:2e:f9:57:b5, 2085-97-246 04:232:02:3458,-0.063,-0.112,0.748,15.869,3.235,19.287,-1.176,3.477,67.72,-32,-61.1,-14.207,28.5,0.7998,0.13562,0.3024,0.50037
 13:43:45.705,eb:33:2e:f9:57:b5, 2085-97-26 254:13:00:1905,-0.085,-0.143,1.263,19.165,52.124,0.122,-1.016,3.911,67.747,-32,-61.1,-14.207,28.5,0.7998,0.13562,0.3024,0.50037
 13:43:45.734,eb:33:2e:f9:57:b5, 2085-97-49 252:225:254:1486,-0.064,0.143,0.878,16.357,47.363,-5.92,-0.813,4.351,67.742,-49.8,-41.4,-1.467,28.5,0.7998,0.13562,0.3024,0.50037
 13:43:45.734,eb:33:2e:f9:57:b5, 2085-97-124 02:67:01:3159,0.047,0.058,1.064,20.386,21.973,0.061,-0.61,4.642,67.731,-49.8,-41.4,-1.467,28.5,0.7998,0.13562,0.3024,0.50037
 13:43:45.735,eb:33:2e:f9:57:b5, 2085-97-100 254:168:255:2182,-0.041,0.062,1.38,20.691,53.711,-8.362,-0.396,5.059,67.659,-49.8,-41.4,-1.467,28.5,0.7998,0.13562,0.3024,0.50037
 13:43:45.735,eb:33:2e:f9:57:b5, 2085-97-168 255:23:255:2943,-0.287,-0.092,1.322,23.132,45.166,-1.038,-0.181,5.537,67.626,-49.8,-41.4,-1.467,28.5,0.7998,0.13562,0.3024,0.50037
 13:43:45.765,eb:33:2e:f9:57:b5, 2085-97-46 253:186:254:2374,-0.354,-0.16,1.188,35.156,38.208,5.432,0.11,6.004,67.637,-49.8,-41.4,-1.467,28.5,0.7998,0.13562,0.3024,0.50037
 13:43:45.765,eb:33:2e:f9:57:b5, 2085-97-249 252:163:253:3194,-0.351,-0.222,1.385,61.279,1.831,13.062,0.604,6.202,67.747,-49.8,-41.4,-1.467,28.5,0.7998,0.13562,0.3024,0.50037
 13:43:45.765,eb:33:2e:f9:57:b5, 2085-97-69 254:87:253:4130,-0.162,-0.307,1.708,106.75,-39.429,16.907,1.483,5.982,67.89,-49.8,-41.4,-1.467,28.5,0.7998,0.13562,0.3024,0.50037
 13:43:45.765,eb:33:2e:f9:57:b5, 2085-97-176 255:139:251:5271,0.204,-0.455,2.293,156.982,-48.767,26.123,2.845,5.521,68.104,-49.8,-41.4,-1.467,28.5,0.7998,0.13562,0.3024,0.50037
 13:43:45.823,eb:33:2e:f9:57:b5, 2085-97-145 03:238:251:6508,0.599,-0.519,2.911,210.938,-20.813,30.029,4.741,5.131,68.368,-49.8,-41.4,-1.467,28.5,0.82837,-0.01294,0.05185,0.55753
 13:43:45.823,eb:33:2e:f9:57:b5, 2085-97-134 05:70:252:6338,0.734,-0.498,3.182,267.09,43.64,26.306,7.196,5.235,68.659,-49.8,-41.4,-1.467,28.5,0.82837,-0.01294,0.05185,0.55753
 13:43:45.823,eb:33:2e:f9:57:b5, 2085-97-16 06:144:251:5956,0.858,-0.497,3.05,306.824,119.934,19.348,10.129,6.037,69.022,-49.8,-41.4,-1.467,28.5,0.82837,-0.01294,0.05185,0.55753
 13:43:45.823,eb:33:2e:f9:57:b5, 2085-97-117 07:33:252:5933,0.959,-0.507,2.881,347.29,186.035,1.282,13.48,7.57,69.461,-49.8,-41.4,-1.467,28.5,0.82837,-0.01294,0.05185,0.55753
 13:43:45.853,eb:33:2e:f9:57:b5, 2085-97-248 06:40:251:5913,0.625,-0.545,3,385.803,250.488,-20.996,17.249,9.734,69.961,-49.8,-41.4,-1.467,28.5,0.82837,-0.01294,0.05185,0.55753
 13:43:45.853,eb:33:2e:f9:57:b5, 2085-97-111 03:07:251:5344,0.267,-0.611,2.714,415.1,304.688,-33.325,21.412,12.519,70.664,-49.8,-41.4,-1.467,28.5,0.82837,-0.01294,0.05185,0.55753
 13:43:45.853,eb:33:2e:f9:57:b5, 2085-97-234 254:248:251:5658,-0.058,-0.522,2.797,445.862,309.998,-44.495,25.961,15.48,71.559,-49.8,-41.4,-1.467,28.5,0.82837,-0.01294,0.05185,0.55753
 13:43:45.853,eb:33:2e:f9:57:b5, 2085-97-126 00:148:250:5280,0.079,-0.695,2.938,450.5,309.875,-31.311,30.811,18.386,72.735,-49.8,-41.4,-1.467,28.5,0.82837,-0.01294,0.05185,0.55753
 13:43:45.913,eb:33:2e:f9:57:b5, 2085-97-203 00:188:253:3747,0.28,-0.561,2.205,407.837,323.486,-14.099,35.673,21.176,74.399,-49.8,-41.4,-1.467,28.5,0.82837,-0.01294,0.05185,0.55753
 13:43:45.913,eb:33:2e:f9:57:b5, 2085-97-144 04:159:03:3221,0.717,0.019,1.599,368.347,317.749,-4.15,40.336,23.774,76.487,-49.8,-41.4,-1.467,28.5,0.82837,-0.01294,0.05185,0.55753
 13:43:45.913,eb:33:2e:f9:57:b5, 2085-97-156 06:197:01:3833,0.752,0.583,1.671,311.218,313.66,-24.353,44.648,26.164,78.706,-49.8,-41.4,-1.467,28.5,0.82837,-0.01294,0.05185,0.55753
 13:43:45.913,eb:33:2e:f9:57:b5, 2085-97-06 04:197:01:2448,0.711,-0.062,1.824,274.719,373.718,-19.775,48.741,28.696,81.343,-49.8,-41.4,-1.467,28.5,0.82837,-0.01294,0.05185,0.55753
 13:43:45.943,eb:33:2e:f9:57:b5, 2085-97-104 09:99:00:2113,0.753,0.215,0.824,275.33,379.944,-20.142,53.069,31.245,84.628,-49.8,-41.4,-1.467,28.5,0.82837,-0.01294,0.05185,0.55753
 13:43:45.943,eb:33:2e:f9:57:b5, 2085-97-238 253:111:09:-2898,0.203,0.455,0.361,339.478,396.179,-15.32,58.184,33.651,88.434,-49.8,-41.4,-1.467,28.5,0.82837,-0.01294,0.05185,0.55753
 13:43:45.943,eb:33:2e:f9:57:b5, 2085-97-119 01:102:04:453,0.202,0.69,-0.29,310.608,232.849,-39.185,63.1,35.453,91.379,-49.8,-41.4,-1.467,28.5,0.82837,-0.01294,0.05185,0.55753
 13:43:45.943,eb:33:2e:f9:57:b5, 2085-97-66 02:148:00:3240,0.334,0.411,0.797,250,141.418,-44.556,66.918,36.579,93.098,-49.8,-41.4,-1.467,28.5,0.82837,-0.01294,0.05185,0.55753
 13:43:45.973,eb:33:2e:f9:57:b5, 2085-97-251 02:156:253:5047,0.419,-0.201,2.191,174.377,162.048,-28.625,69.917,37.469,94.631,-49.8,-41.4,-1.467,28.5,0.82837,-0.01294,0.05185,0.55753
 13:43:45.973,eb:33:2e:f9:57:b5, 2085-97-220 03:23:254:4731,0.498,-0.301,2.499,124.573,212.83,-4.883,72.724,38.221,96.861,-49.8,-41.4,-1.467,28.5,0.82837,-0.01294,0.05185,0.55753
 13:43:45.973,eb:33:2e:f9:57:b5, 2085-97-150 04:133:254:3195,0.638,-0.195,1.919,111.389,215.332,9.033,75.564,38.787,99.586,-49.8,-41.4,-1.467,28.5,0.82837,-0.01294,0.05185,0.55753
 13:43:45.973,eb:33:2e:f9:57:b5, 2085-97-34 05:239:253:2601,0.593,-0.196,1.381,115.417,167.786,15.259,78.212,39.089,102.003,-49.8,-41.4,-1.467,28.5,0.82837,-0.01294,0.05185,0.55753
 13:43:46.003,eb:33:2e:f9:57:b5, 2085-97-154 04:150:253:2412,0.549,-0.328,1.179,123.23,109.558,14.465,80.519,39.194,103.766,-27.8,-58.7,-10.267,28.5,0.82837,-0.01294,0.05185,0.55753
 13:43:46.003,eb:33:2e:f9:57:b5, 2085-97-223 03:66:255:2690,0.385,-0.214,1.252,126.221,55.603,11.353,82.414,39.183,104.788,-27.8,-58.7,-10.267,28.5,0.82837,-0.01294,0.05185,0.55753
 13:43:46.003,eb:33:2e:f9:57:b5, 2085-97-116 02:130:01:2838,0.25,0.06,1.328,109.192,7.263,6.958,83.853,39.128,105.178,-27.8,-58.7,-10.267,28.5,0.82837,-0.01294,0.05185,0.55753
 13:43:46.003,eb:33:2e:f9:57:b5, 2085-97-182 01:246:01:3431,0.172,0.248,1.519,70.129,-36.072,3.601,84.584,39.056,104.941,-27.8,-58.7,-10.267,28.5,0.82837,-0.01294,0.05185,0.55753
 13:43:46.063,eb:33:2e:f9:57:b5, 2085-97-86 01:252:00:3731,0.211,0.203,1.764,22.644,-60.913,4.395,84.617,38.974,104.293,-27.8,-58.7,-10.267,28.5,0.82837,-0.01294,0.05185,0.55753
 13:43:46.063,eb:33:2e:f9:57:b5, 2085-97-122 02:176:254:3835,0.409,-0.015,1.855,-23.621,-67.505,10.742,84.034,38.826,103.442,-27.8,-58.7,-10.267,28.5,0.82837,-0.01294,0.05185,0.55753
 13:43:46.063,eb:33:2e:f9:57:b5, 2085-97-68 04:180:253:3271,0.595,-0.257,1.795,-57.434,-56.152,16.113,83.117,38.617,102.673,-27.8,-58.7,-10.267,28.5,0.82837,-0.01294,0.05185,0.55753
 13:43:46.063,eb:33:2e:f9:57:b5, 2085-97-213 04:108:253:2129,0.625,-0.297,1.348,-80.078,-52.307,13.184,81.985,38.392,102.025,-27.8,-58.7,-10.267,28.5,0.82837,-0.01294,0.05185,0.55753
 13:43:46.094,eb:33:2e:f9:57:b5, 2085-97-45 05:08:253:1132,0.651,-0.348,0.769,-97.534,-83.435,5.981,80.585,38.199,101.201,-27.8,-58.7,-10.267,28.5,0.6106,0.19781,0.64606,0.41296
 13:43:46.094,eb:33:2e:f9:57:b5, 2085-97-42 05:209:252:332,0.623,-0.384,0.355,-128.113,-137.329,-0.793,78.569,37.969,99.794,-27.8,-58.7,-10.267,28.5,0.6106,0.19781,0.64606,0.41296
 13:43:46.094,eb:33:2e:f9:57:b5, 2085-97-217 04:34:252:-393,0.619,-0.443,-0.017,-174.438,-205.444,-5.371,75.723,37.617,97.641,-27.8,-58.7,-10.267,28.5,0.6106,0.19781,0.64606,0.41296
 13:43:46.094,eb:33:2e:f9:57:b5, 2085-97-85 05:183:251:-753,0.728,-0.508,-0.327,-233.337,-273.926,-3.967,71.84,36.974,94.653,-27.8,-58.7,-10.267,28.5,0.6106,0.19781,0.64606,0.41296
 13:43:46.154,eb:33:2e:f9:57:b5, 2085-97-29 06:224:250:-183,0.769,-0.591,-0.294,-303.223,-319.031,5.005,67.044,35.92,91.154,-27.8,-58.7,-10.267,28.5,0.6106,0.19781,0.64606,0.41296
