Time,Device name,Chip Time(),Acceleration X(g),Acceleration Y(g),Acceleration Z(g),Angular velocity X(°/s),Angular velocity Y(°/s),Angular velocity Z(°/s),Angle X(°),Angle Y(°),Angle Z(°),Magnetic field X(ʯt),Magnetic field Y(ʯt),Magnetic field Z(ʯt),Temperature(℃),Quaternions 0(),Quaternions 1(),Quaternions 2(),Quaternions 3()
 13:48:22.199,eb:33:2e:f9:57:b5, 2085-97-48 00:45:00:1990,0.014,-0.002,0.959,-21.606,-13.184,12.634,5.175,4.109,-140.883,-48.2,-55.8,-20.487,29.49,0.31888,0.0397,-0.03296,-0.94635
 13:48:22.200,eb:33:2e:f9:57:b5, 2085-97-07 00:152:00:2025,-0.004,0.048,0.983,-22.766,-13.428,9.033,4.955,3.966,-140.79,-48.2,-55.8,-20.487,29.49,0.31888,0.0397,-0.03296,-0.94635
 13:48:22.200,eb:33:2e:f9:57:b5, 2085-97-234 255:251:00:2026,-0.019,0.099,0.989,-23.132,-13.733,4.883,4.73,3.829,-140.735,-48.2,-55.8,-20.487,29.49,0.31888,0.0397,-0.03296,-0.94635
 13:48:22.200,eb:33:2e:f9:57:b5, 2085-97-205 255:94:01:2040,-0.03,0.147,0.992,-23.193,-14.404,0.427,4.499,3.686,-140.724,-48.2,-55.8,-20.487,29.49,0.31888,0.0397,-0.03296,-0.94635
 13:48:22.227,eb:33:2e:f9:57:b5, 2085-97-187 255:186:01:2082,-0.038,0.193,1.004,-21.973,-14.587,-4.333,4.268,3.543,-140.757,-46.2,-57.3,-26.307,29.49,0.31888,0.0397,-0.03296,-0.94635
 13:48:22.227,eb:33:2e:f9:57:b5, 2085-97-171 255:253:01:2103,-0.048,0.234,1.025,-19.104,-13.794,-9.46,4.059,3.406,-140.839,-46.2,-57.3,-26.307,29.49,0.31888,0.0397,-0.03296,-0.94635
 13:48:22.227,eb:33:2e:f9:57:b5, 2085-97-144 255:16:02:2061,-0.058,0.257,1.018,-15.93,-12.39,-14.16,3.878,3.285,-140.971,-46.2,-57.3,-26.307,29.49,0.31888,0.0397,-0.03296,-0.94635
 13:48:22.227,eb:33:2e:f9:57:b5, 2085-97-129 255:00:02:2058,-0.065,0.255,1.003,-13.428,-11.414,-17.273,3.719,3.175,-141.141,-46.2,-57.3,-26.307,29.49,0.31888,0.0397,-0.03296,-0.94635
 13:48:22.257,eb:33:2e:f9:57:b5, 2085-97-118 255:231:01:2058,-0.071,0.244,1.006,-10.498,-9.766,-18.494,3.593,3.082,-141.328,-46.2,-57.3,-26.307,29.49,0.31888,0.0397,-0.03296,-0.94635
 13:48:22.257,eb:33:2e:f9:57:b5, 2085-97-106 255:197:01:2033,-0.075,0.23,0.999,-6.104,-8.057,-17.944,3.499,3.005,-141.52,-46.2,-57.3,-26.307,29.49,0.31888,0.0397,-0.03296,-0.94635
 13:48:22.257,eb:33:2e:f9:57:b5, 2085-97-102 255:143:01:2035,-0.072,0.209,0.992,-0.732,-6.531,-15.686,3.455,2.944,-141.691,-46.2,-57.3,-26.307,29.49,0.31888,0.0397,-0.03296,-0.94635
 13:48:22.257,eb:33:2e:f9:57:b5, 2085-97-115 255:102:01:2013,-0.064,0.184,0.993,5.005,-4.272,-11.414,3.477,2.9,-141.828,-46.2,-57.3,-26.307,29.49,0.31888,0.0397,-0.03296,-0.94635
 13:48:22.346,eb:33:2e:f9:57:b5, 2085-97-137 255:71:01:1948,-0.048,0.166,0.966,9.888,-2.991,-6.775,3.549,2.873,-141.921,-46.2,-57.3,-26.307,29.49,0.32648,0.03394,-0.02017,-0.94434
 13:48:22.346,eb:33:2e:f9:57:b5, 2085-97-188 255:70:01:1960,-0.02,0.156,0.946,15.747,-2.502,-2.197,3.675,2.845,-141.965,-46.2,-57.3,-26.307,29.49,0.32648,0.03394,-0.02017,-0.94434
 13:48:22.346,eb:33:2e:f9:57:b5, 2085-97-254 255:92:01:2016,0.019,0.165,0.966,26.123,-0.061,0.916,3.884,2.834,-141.971,-46.2,-57.3,-26.307,29.49,0.32648,0.03394,-0.02017,-0.94434
 13:48:22.346,eb:33:2e:f9:57:b5, 2085-97-60 00:135:01:2102,-0.113,0.178,1.011,46.692,3.418,1.282,4.252,2.851,-141.96,-46.2,-57.3,-26.307,29.49,0.32648,0.03394,-0.02017,-0.94434
 13:48:22.349,eb:33:2e:f9:57:b5, 2085-97-92 252:215:01:1417,-0.123,0.539,1.061,51.636,3.54,-9.216,4.823,2.889,-141.965,-46.2,-57.3,-26.307,29.49,0.32648,0.03394,-0.02017,-0.94434
 13:48:22.349,eb:33:2e:f9:57:b5, 2085-97-67 00:227:00:2041,-0.151,-0.124,0.886,-31.86,-6.165,-3.845,4.708,2.911,-142.031,-46.2,-57.3,-26.307,29.49,0.32648,0.03394,-0.02017,-0.94434
 13:48:22.349,eb:33:2e:f9:57:b5, 2085-97-136 254:60:00:1753,-0.297,0.233,0.797,0.061,-24.597,-22.4,4.57,2.829,-142.191,-46.2,-57.3,-26.307,29.49,0.32648,0.03394,-0.02017,-0.94434
 13:48:22.349,eb:33:2e:f9:57:b5, 2085-97-120 253:175:254:2075,-0.12,-0.165,0.963,-17.944,-18.982,-7.385,4.482,2.587,-142.383,-46.2,-57.3,-26.307,29.49,0.32648,0.03394,-0.02017,-0.94434
 13:48:22.408,eb:33:2e:f9:57:b5, 2085-97-35 00:158:01:1750,-0.015,0.047,0.971,-24.292,-14.282,4.456,4.257,2.444,-142.377,-46.2,-57.3,-26.307,29.49,0.32648,0.03394,-0.02017,-0.94434
 13:48:22.408,eb:33:2e:f9:57:b5, 2085-97-169 255:198:00:1891,-0.044,0.184,0.792,-24.475,-26.245,-2.319,4.016,2.241,-142.388,-46.2,-57.3,-26.307,29.49,0.32648,0.03394,-0.02017,-0.94434
 13:48:22.408,eb:33:2e:f9:57:b5, 2085-97-163 255:25:00:2261,-0.018,0.021,1.08,-29.602,-24.414,-0.061,3.741,1.972,-142.427,-46.2,-57.3,-26.307,29.49,0.32648,0.03394,-0.02017,-0.94434
 13:48:22.408,eb:33:2e:f9:57:b5, 2085-97-252 255:230:00:1990,-0.011,0.066,1.019,-31.433,-20.935,1.709,3.428,1.758,-142.421,-46.2,-57.3,-26.307,29.49,0.32648,0.03394,-0.02017,-0.94434
 13:48:22.436,eb:33:2e:f9:57:b5, 2085-97-201 255:39:00:2204,-0.032,0.081,1.041,-34.912,-21.179,-1.038,3.098,1.538,-142.438,-46.2,-57.3,-26.307,29.49,0.32648,0.03394,-0.02017,-0.94434
 13:48:22.436,eb:33:2e:f9:57:b5, 2085-97-01 255:05:00:2269,-0.09,0.026,1.037,-35.034,-17.517,-0.488,2.747,1.351,-142.454,-46.2,-57.3,-26.307,29.49,0.32648,0.03394,-0.02017,-0.94434
 13:48:22.436,eb:33:2e:f9:57:b5, 2085-97-149 00:138:255:2651,-0.033,-0.272,1.597,-6.531,-33.875,-6.653,2.538,1.044,-142.52,-46.2,-57.3,-26.307,29.49,0.32648,0.03394,-0.02017,-0.94434
 13:48:22.436,eb:33:2e:f9:57:b5, 2085-97-215 00:47:00:2523,0.099,0.013,1.018,-0.977,-27.832,-5.493,2.51,0.791,-142.592,-46.2,-57.3,-26.307,29.49,0.32648,0.03394,-0.02017,-0.94434
 13:48:22.467,eb:33:2e:f9:57:b5, 2085-97-106 00:135:00:2214,0.069,0.075,1.125,1.343,-14.404,-5.554,2.521,0.593,-142.652,-46.2,-57.3,-26.307,29.49,0.32648,0.03394,-0.02017,-0.94434
 13:48:22.467,eb:33:2e:f9:57:b5, 2085-97-71 00:94:00:2167,0.034,0.06,1.1,1.221,-8.667,-4.944,2.532,0.478,-142.712,-46.2,-57.3,-26.307,29.49,0.32648,0.03394,-0.02017,-0.94434
 13:48:22.467,eb:33:2e:f9:57:b5, 2085-97-52 00:82:00:2144,0.021,0.04,1.061,1.526,-5.615,-3.418,2.549,0.412,-142.756,-46.2,-57.3,-26.307,29.49,0.32648,0.03394,-0.02017,-0.94434
 13:48:22.467,eb:33:2e:f9:57:b5, 2085-97-39 00:110:00:2096,0.01,0.048,1.034,1.831,-4.089,-2.258,2.565,0.363,-142.784,-46.2,-57.3,-26.307,29.49,0.32648,0.03394,-0.02017,-0.94434
 13:48:22.498,eb:33:2e:f9:57:b5, 2085-97-03 00:92:00:2060,-0.01,0.055,1.01,1.282,-2.869,-1.77,2.582,0.33,-142.811,-49.2,-55.8,-24.707,29.49,0.32648,0.03394,-0.02017,-0.94434
 13:48:22.498,eb:33:2e:f9:57:b5, 2085-97-220 255:70:00:2025,-0.014,0.039,0.993,1.526,-2.93,-1.465,2.593,0.308,-142.828,-49.2,-55.8,-24.707,29.49,0.32648,0.03394,-0.02017,-0.94434
 13:48:22.498,eb:33:2e:f9:57:b5, 2085-97-245 255:88:00:2032,0,0.038,0.989,2.197,-4.028,-1.404,2.615,0.269,-142.844,-49.2,-55.8,-24.707,29.49,0.32648,0.03394,-0.02017,-0.94434
 13:48:22.498,eb:33:2e:f9:57:b5, 2085-97-06 00:102:00:2036,0.001,0.048,0.994,2.197,-4.028,-1.404,2.637,0.231,-142.861,-49.2,-55.8,-24.707,29.49,0.32648,0.03394,-0.02017,-0.94434
 13:48:22.557,eb:33:2e:f9:57:b5, 2085-97-01 00:102:00:2025,0.001,0.049,0.99,2.136,-3.54,-1.465,2.659,0.192,-142.877,-49.2,-55.8,-24.707,29.49,0.32648,0.03394,-0.02017,-0.94434
 13:48:22.557,eb:33:2e:f9:57:b5, 2085-97-248 255:97:00:2009,-0.012,0.05,0.986,2.197,-3.174,-1.892,2.681,0.159,-142.899,-49.2,-55.8,-24.707,29.49,0.32648,0.03394,-0.02017,-0.94434
 13:48:22.557,eb:33:2e:f9:57:b5, 2085-97-236 255:85:00:2014,-0.002,0.041,0.979,2.625,-3.357,-2.319,2.703,0.132,-142.921,-49.2,-55.8,-24.707,29.49,0.32648,0.03394,-0.02017,-0.94434
 13:48:22.557,eb:33:2e:f9:57:b5, 2085-97-12 00:110:00:2029,0.004,0.047,0.984,2.991,-3.662,-2.502,2.736,0.093,-142.949,-49.2,-55.8,-24.707,29.49,0.32648,0.03394,-0.02017,-0.94434
 13:48:22.616,eb:33:2e:f9:57:b5, 2085-97-16 00:121:00:2022,-0.004,0.056,0.986,2.563,-3.174,-2.625,2.763,0.066,-142.976,-49.2,-55.8,-24.707,29.49,0.3179,0.0087,-0.02185,-0.94778
 13:48:22.616,eb:33:2e:f9:57:b5, 2085-97-241 255:97:00:2003,0,0.053,0.981,2.319,-2.808,-3.174,2.785,0.038,-143.009,-49.2,-55.8,-24.707,29.49,0.3179,0.0087,-0.02185,-0.94778
 13:48:22.616,eb:33:2e:f9:57:b5, 2085-97-18 00:109:00:2038,0.008,0.05,0.989,2.502,-3.296,-3.357,2.812,0.005,-143.042,-49.2,-55.8,-24.707,29.49,0.3179,0.0087,-0.02185,-0.94778
 13:48:22.616,eb:33:2e:f9:57:b5, 2085-97-09 00:96:00:2040,0.012,0.052,0.997,2.93,-3.113,-3.662,2.84,-0.016,-143.08,-49.2,-55.8,-24.707,29.49,0.3179,0.0087,-0.02185,-0.94778
 13:48:22.618,eb:33:2e:f9:57:b5, 2085-97-29 00:103:00:2065,0.021,0.048,1.003,3.967,-3.418,-3.967,2.873,-0.049,-143.119,-49.2,-55.8,-24.707,29.49,0.3179,0.0087,-0.02185,-0.94778
 13:48:22.618,eb:33:2e:f9:57:b5, 2085-97-36 00:113:00:2071,0.013,0.057,1.014,4.395,-3.296,-3.601,2.917,-0.082,-143.163,-49.2,-55.8,-24.707,29.49,0.3179,0.0087,-0.02185,-0.94778
 13:48:22.618,eb:33:2e:f9:57:b5, 2085-97-40 00:108:00:2087,0.021,0.051,1.012,4.395,-3.174,-2.869,2.961,-0.11,-143.196,-49.2,-55.8,-24.707,29.49,0.3179,0.0087,-0.02185,-0.94778
 13:48:22.618,eb:33:2e:f9:57:b5, 2085-97-56 00:124:00:2103,0.029,0.054,1.024,3.906,-2.197,-1.953,3.005,-0.137,-143.223,-49.2,-55.8,-24.707,29.49,0.3179,0.0087,-0.02185,-0.94778
 13:48:22.676,eb:33:2e:f9:57:b5, 2085-97-44 00:122:00:2098,0.016,0.062,1.028,2.991,-0.854,-0.916,3.038,-0.148,-143.24,-49.2,-55.8,-24.707,29.49,0.3179,0.0087,-0.02185,-0.94778
 13:48:22.676,eb:33:2e:f9:57:b5, 2085-97-28 00:113:00:2091,0.021,0.057,1.021,2.38,0.061,0,3.065,-0.154,-143.245,-49.2,-55.8,-24.707,29.49,0.3179,0.0087,-0.02185,-0.94778
 13:48:22.676,eb:33:2e:f9:57:b5, 2085-97-52 00:121:00:2106,0.025,0.056,1.026,1.892,0.916,0.61,3.087,-0.148,-143.24,-49.2,-55.8,-24.707,29.49,0.3179,0.0087,-0.02185,-0.94778
 13:48:22.677,eb:33:2e:f9:57:b5, 2085-97-38 00:125:00:2086,0.007,0.062,1.025,1.16,2.502,1.038,3.104,-0.132,-143.234,-49.2,-55.8,-24.707,29.49,0.3179,0.0087,-0.02185,-0.94778
 13:48:22.736,eb:33:2e:f9:57:b5, 2085-97-17 00:104:00:2069,0.017,0.055,1.009,0.793,3.296,1.343,3.109,-0.099,-143.218,-49.2,-55.8,-24.707,29.49,0.3179,0.0087,-0.02185,-0.94778
 13:48:22.736,eb:33:2e:f9:57:b5, 2085-97-43 00:122:00:2076,0.01,0.053,1.015,0.61,3.845,1.953,3.12,-0.066,-143.201,-49.2,-55.8,-24.707,29.49,0.3179,0.0087,-0.02185,-0.94778
 13:48:22.736,eb:33:2e:f9:57:b5, 2085-97-00 00:124:00:2027,-0.002,0.061,1.001,0,4.517,2.441,3.12,-0.022,-143.179,-49.2,-55.8,-24.707,29.49,0.3179,0.0087,-0.02185,-0.94778
 13:48:22.736,eb:33:2e:f9:57:b5, 2085-97-04 00:126:00:2029,0.007,0.061,0.986,-0.122,3.967,2.258,3.12,0.016,-143.152,-49.2,-55.8,-24.707,29.49,0.3179,0.0087,-0.02185,-0.94778
 13:48:22.738,eb:33:2e:f9:57:b5, 2085-97-12 00:130:00:2033,0,0.062,0.996,-0.183,3.723,2.014,3.12,0.049,-143.13,-49.2,-55.8,-24.707,29.49,0.3179,0.0087,-0.02185,-0.94778
 13:48:22.738,eb:33:2e:f9:57:b5, 2085-97-248 255:115:00:2019,-0.002,0.06,0.989,-0.305,3.479,1.709,3.12,0.088,-143.108,-49.2,-55.8,-24.707,29.49,0.3179,0.0087,-0.02185,-0.94778
 13:48:22.738,eb:33:2e:f9:57:b5, 2085-97-02 00:120:00:2027,0.004,0.055,0.988,-0.305,2.93,1.648,3.115,0.121,-143.091,-49.2,-55.8,-24.707,29.49,0.3179,0.0087,-0.02185,-0.94778
 13:48:22.738,eb:33:2e:f9:57:b5, 2085-97-00 00:115:00:2028,0,0.062,0.991,-0.549,2.93,1.465,3.109,0.148,-143.075,-49.2,-55.8,-24.707,29.49,0.3179,0.0087,-0.02185,-0.94778
 13:48:22.798,eb:33:2e:f9:57:b5, 2085-97-06 00:120:00:2028,0.002,0.054,0.99,-0.61,2.563,1.526,3.104,0.176,-143.058,-49.2,-55.8,-24.707,29.49,0.3179,0.0087,-0.02185,-0.94778
 13:48:22.798,eb:33:2e:f9:57:b5, 2085-97-251 255:127:00:2019,-0.008,0.062,0.988,-0.977,2.625,1.465,3.098,0.203,-143.042,-49.2,-55.8,-24.707,29.49,0.3179,0.0087,-0.02185,-0.94778
 13:48:22.798,eb:33:2e:f9:57:b5, 2085-97-244 255:117:00:2018,-0.001,0.057,0.982,-1.404,2.136,1.221,3.087,0.225,-143.031,-49.2,-55.8,-24.707,29.49,0.3179,0.0087,-0.02185,-0.94778
 13:48:22.798,eb:33:2e:f9:57:b5, 2085-97-255 255:124:00:2023,0,0.06,0.99,-1.709,1.892,1.038,3.071,0.247,-143.02,-49.2,-55.8,-24.707,29.49,0.3179,0.0087,-0.02185,-0.94778
 13:48:22.827,eb:33:2e:f9:57:b5, 2085-113-58 00:44:227:-8385,-0.013,0.062,0.985,-2.197,1.892,0.793,3.049,0.264,-143.009,-49.2,-55.9,-24.113,29.49,0.3179,0.0087,-0.02185,-0.94778
 13:48:22.827,eb:33:2e:f9:57:b5, 2085-97-208 255:89:00:2002,-0.021,0.052,0.979,-2.258,1.526,0.671,3.038,0.269,-143.004,-49.2,-55.9,-24.113,29.49,0.3179,0.0087,-0.02185,-0.94778
 13:48:22.827,eb:33:2e:f9:57:b5, 2085-97-237 255:102:00:2032,-0.001,0.046,0.981,-1.709,0.122,0.549,3.021,0.28,-142.998,-49.2,-55.9,-24.113,29.49,0.3179,0.0087,-0.02185,-0.94778
 13:48:22.828,eb:33:2e:f9:57:b5, 2085-97-253 255:100:00:2054,0.004,0.051,1,-1.465,-0.122,0.366,3.005,0.28,-142.993,-49.2,-55.9,-24.113,29.49,0.3179,0.0087,-0.02185,-0.94778
 13:48:22.887,eb:33:2e:f9:57:b5, 2085-97-08 00:118:00:2055,0.002,0.056,1.003,-1.343,0,0.305,2.988,0.28,-142.993,-49.2,-55.9,-24.113,29.49,0.3179,0.0087,-0.02185,-0.94778
 13:48:22.887,eb:33:2e:f9:57:b5, 2085-97-04 00:114:00:2050,0.001,0.056,1.002,-1.343,0.183,0.183,2.977,0.28,-142.993,-49.2,-55.9,-24.113,29.49,0.3179,0.0087,-0.02185,-0.94778
 13:48:22.887,eb:33:2e:f9:57:b5, 2085-97-01 00:113:00:2048,0.003,0.056,1,-1.465,0.244,0.061,2.961,0.28,-142.987,-49.2,-55.9,-24.113,29.49,0.3179,0.0087,-0.02185,-0.94778
 13:48:22.887,eb:33:2e:f9:57:b5, 2085-97-13 00:121:00:2056,0.009,0.057,1.002,-1.526,0.305,0,2.95,0.286,-142.987,-49.2,-55.9,-24.113,29.49,0.3179,0.0087,-0.02185,-0.94778
 13:48:22.918,eb:33:2e:f9:57:b5, 2085-97-19 00:119:00:2061,0.008,0.06,1.006,-1.892,0.854,-0.061,2.933,0.291,-142.993,-49.2,-55.9,-24.113,29.49,0.31717,0.01056,-0.02368,-0.94797
 13:48:22.918,eb:33:2e:f9:57:b5, 2085-97-05 00:111:00:2054,0,0.057,1.007,-2.075,1.465,-0.061,2.911,0.302,-142.993,-49.2,-55.9,-24.113,29.49,0.31717,0.01056,-0.02368,-0.94797
 13:48:22.918,eb:33:2e:f9:57:b5, 2085-97-253 255:107:00:2043,-0.002,0.053,1,-2.136,1.709,0,2.889,0.324,-142.993,-49.2,-55.9,-24.113,29.49,0.31717,0.01056,-0.02368,-0.94797
 13:48:22.918,eb:33:2e:f9:57:b5, 2085-97-240 255:98:00:2031,-0.012,0.052,0.995,-2.136,1.648,-0.061,2.867,0.341,-142.993,-49.2,-55.9,-24.113,29.49,0.31717,0.01056,-0.02368,-0.94797
 13:48:22.946,eb:33:2e:f9:57:b5, 2085-97-235 255:98:00:2024,-0.01,0.046,0.988,-2.075,1.16,0.061,2.845,0.352,-142.993,-49.2,-55.9,-24.113,29.49,0.31717,0.01056,-0.02368,-0.94797
 13:48:22.946,eb:33:2e:f9:57:b5, 2085-97-238 255:100:00:2021,-0.009,0.049,0.987,-2.075,0.732,0.122,2.829,0.363,-142.993,-49.2,-55.9,-24.113,29.49,0.31717,0.01056,-0.02368,-0.94797
 13:48:22.946,eb:33:2e:f9:57:b5, 2085-97-235 255:95:00:2016,-0.014,0.046,0.987,-2.014,0.488,0.183,2.807,0.368,-142.993,-49.2,-55.9,-24.113,29.49,0.31717,0.01056,-0.02368,-0.94797
 13:48:22.946,eb:33:2e:f9:57:b5, 2085-97-230 255:97:00:2013,-0.009,0.046,0.981,-1.831,0,0.183,2.785,0.374,-142.993,-49.2,-55.9,-24.113,29.49,0.31717,0.01056,-0.02368,-0.94797
 13:48:22.976,eb:33:2e:f9:57:b5, 2085-97-243 255:105:00:2021,-0.002,0.049,0.985,-1.709,-0.427,0.122,2.769,0.368,-142.987,-49.2,-55.9,-24.113,29.49,0.31717,0.01056,-0.02368,-0.94797
 13:48:22.976,eb:33:2e:f9:57:b5, 2085-97-00 00:106:00:2033,0.001,0.052,0.989,-1.77,-0.427,-0.061,2.752,0.368,-142.993,-49.2,-55.9,-24.113,29.49,0.31717,0.01056,-0.02368,-0.94797
 13:48:22.976,eb:33:2e:f9:57:b5, 2085-97-04 00:102:00:2039,0,0.05,0.994,-1.709,-0.244,-0.244,2.736,0.363,-142.993,-49.2,-55.9,-24.113,29.49,0.31717,0.01056,-0.02368,-0.94797
 13:48:22.976,eb:33:2e:f9:57:b5, 2085-97-03 00:102:00:2041,0,0.048,0.996,-1.648,0.061,-0.305,2.719,0.363,-142.998,-49.2,-55.9,-24.113,29.49,0.31717,0.01056,-0.02368,-0.94797
 13:48:23.037,eb:33:2e:f9:57:b5, 2085-97-253 255:98:00:2037,-0.004,0.049,0.996,-1.587,0.244,-0.427,2.703,0.363,-143.004,-49.2,-55.9,-24.113,29.49,0.31717,0.01056,-0.02368,-0.94797
 13:48:23.037,eb:33:2e:f9:57:b5, 2085-97-251 255:98:00:2040,-0.001,0.047,0.994,-1.404,0.305,-0.549,2.686,0.368,-143.009,-49.2,-55.9,-24.113,29.49,0.31717,0.01056,-0.02368,-0.94797
 13:48:23.037,eb:33:2e:f9:57:b5, 2085-97-255 255:96:00:2042,-0.001,0.048,0.996,-1.16,0.305,-0.549,2.675,0.374,-143.015,-49.2,-55.9,-24.113,29.49,0.31717,0.01056,-0.02368,-0.94797
 13:48:23.037,eb:33:2e:f9:57:b5, 2085-97-255 255:93:00:2046,0,0.047,0.997,-0.977,0.549,-0.61,2.664,0.379,-143.02,-49.2,-55.9,-24.113,29.49,0.31717,0.01056,-0.02368,-0.94797
 13:48:23.067,eb:33:2e:f9:57:b5, 2085-97-01 00:94:00:2050,0,0.044,1,-0.61,0.732,-0.671,2.653,0.385,-143.031,-49.2,-55.9,-24.113,29.49,0.31717,0.01056,-0.02368,-0.94797
 13:48:23.067,eb:33:2e:f9:57:b5, 2085-97-254 255:96:00:2049,0,0.047,1,-0.366,0.977,-0.488,2.653,0.396,-143.036,-49.2,-55.9,-24.113,29.49,0.31717,0.01056,-0.02368,-0.94797
 13:48:23.067,eb:33:2e:f9:57:b5, 2085-97-00 00:98:00:2049,0,0.048,1,-0.183,1.099,-0.549,2.648,0.406,-143.042,-49.2,-55.9,-24.113,29.49,0.31717,0.01056,-0.02368,-0.94797
 13:48:23.067,eb:33:2e:f9:57:b5, 2085-97-247 255:94:00:2045,-0.005,0.047,1,-0.122,1.282,-0.488,2.648,0.417,-143.047,-49.2,-55.9,-24.113,29.49,0.31717,0.01056,-0.02368,-0.94797
 13:48:23.098,eb:33:2e:f9:57:b5, 2085-97-246 255:90:00:2045,-0.003,0.044,0.998,0.061,1.16,-0.366,2.648,0.434,-143.053,-49.2,-55.9,-24.113,29.49,0.31717,0.01056,-0.02368,-0.94797
 13:48:23.098,eb:33:2e:f9:57:b5, 2085-97-248 255:95:00:2044,-0.004,0.046,1,0.183,1.16,-0.183,2.648,0.445,-143.053,-49.2,-55.9,-24.113,29.49,0.31717,0.01056,-0.02368,-0.94797
 13:48:23.098,eb:33:2e:f9:57:b5, 2085-97-248 255:93:00:2042,-0.005,0.045,0.998,0.244,1.038,-0.061,2.653,0.456,-143.058,-49.2,-55.9,-24.113,29.49,0.31717,0.01056,-0.02368,-0.94797
 13:48:23.098,eb:33:2e:f9:57:b5, 2085-97-243 255:95:00:2041,-0.006,0.046,0.997,0.427,1.099,0.061,2.653,0.467,-143.058,-49.2,-55.9,-24.113,29.49,0.31717,0.01056,-0.02368,-0.94797
 13:48:23.159,eb:33:2e:f9:57:b5, 2085-97-248 255:98:00:2042,-0.003,0.047,0.995,0.488,0.916,0.183,2.659,0.478,-143.058,-48.5,-58,-24.16,29.49,0.31717,0.01056,-0.02368,-0.94797
 13:48:23.159,eb:33:2e:f9:57:b5, 2085-97-250 255:104:00:2039,-0.004,0.049,0.997,0.427,0.977,0.122,2.664,0.489,-143.053,-48.5,-58,-24.16,29.49,0.31717,0.01056,-0.02368,-0.94797
 13:48:23.159,eb:33:2e:f9:57:b5, 2085-97-242 255:101:00:2028,-0.008,0.05,0.993,0.366,1.16,0.061,2.67,0.5,-143.053,-48.5,-58,-24.16,29.49,0.31717,0.01056,-0.02368,-0.94797
 13:48:23.159,eb:33:2e:f9:57:b5, 2085-97-238 255:96:00:2029,-0.009,0.048,0.991,0.305,1.038,-0.061,2.675,0.511,-143.053,-48.5,-58,-24.16,29.49,0.31717,0.01056,-0.02368,-0.94797
 13:48:23.187,eb:33:2e:f9:57:b5, 2085-97-242 255:100:00:2034,-0.007,0.046,0.991,0.305,0.671,-0.061,2.681,0.522,-143.053,-48.5,-58,-24.16,29.49,0.31662,0.01178,-0.02072,-0.94821
 13:48:23.187,eb:33:2e:f9:57:b5, 2085-97-240 255:97:00:2035,-0.005,0.049,0.993,0.244,0.732,-0.061,2.681,0.527,-143.058,-48.5,-58,-24.16,29.49,0.31662,0.01178,-0.02072,-0.94821
 13:48:23.187,eb:33:2e:f9:57:b5, 2085-97-247 255:96:00:2042,-0.006,0.047,0.997,0.305,0.61,-0.061,2.686,0.538,-143.058,-48.5,-58,-24.16,29.49,0.31662,0.01178,-0.02072,-0.94821
 13:48:23.187,eb:33:2e:f9:57:b5, 2085-97-239 255:96:00:2034,-0.011,0.047,0.994,0.366,0.61,0,2.686,0.544,-143.058,-48.5,-58,-24.16,29.49,0.31662,0.01178,-0.02072,-0.94821
 13:48:23.248,eb:33:2e:f9:57:b5, 2085-97-229 255:98:00:2021,-0.013,0.048,0.99,0.366,0.427,0,2.692,0.549,-143.058,-48.5,-58,-24.16,29.49,0.31662,0.01178,-0.02072,-0.94821
 13:48:23.248,eb:33:2e:f9:57:b5, 2085-97-233 255:97:00:2025,-0.009,0.047,0.987,0.305,0,-0.122,2.697,0.549,-143.058,-48.5,-58,-24.16,29.49,0.31662,0.01178,-0.02072,-0.94821
 13:48:23.248,eb:33:2e:f9:57:b5, 2085-97-238 255:101:00:2029,-0.009,0.048,0.991,0.244,-0.244,-0.122,2.703,0.549,-143.064,-48.5,-58,-24.16,29.49,0.31662,0.01178,-0.02072,-0.94821
 13:48:23.248,eb:33:2e:f9:57:b5, 2085-97-231 255:102:00:2022,-0.012,0.05,0.99,0.061,-0.427,-0.244,2.703,0.544,-143.069,-48.5,-58,-24.16,29.49,0.31662,0.01178,-0.02072,-0.94821
 13:48:23.277,eb:33:2e:f9:57:b5, 2085-97-240 255:105:00:2030,-0.005,0.049,0.989,0,-0.854,-0.122,2.703,0.538,-143.069,-48.5,-58,-24.16,29.49,0.31662,0.01178,-0.02072,-0.94821
 13:48:23.277,eb:33:2e:f9:57:b5, 2085-97-250 255:99:00:2042,-0.003,0.05,0.996,-0.122,-0.854,-0.244,2.703,0.533,-143.075,-48.5,-58,-24.16,29.49,0.31662,0.01178,-0.02072,-0.94821
 13:48:23.277,eb:33:2e:f9:57:b5, 2085-97-251 255:98:00:2045,-0.002,0.047,0.999,-0.061,-0.732,-0.183,2.703,0.522,-143.075,-48.5,-58,-24.16,29.49,0.31662,0.01178,-0.02072,-0.94821
 13:48:23.277,eb:33:2e:f9:57:b5, 2085-97-248 255:101:00:2040,-0.006,0.049,0.998,0,-0.549,-0.122,2.703,0.516,-143.08,-48.5,-58,-24.16,29.49,0.31662,0.01178,-0.02072,-0.94821
 13:48:23.307,eb:33:2e:f9:57:b5, 2085-97-244 255:98:00:2037,-0.008,0.049,0.994,0,-0.488,-0.122,2.697,0.511,-143.086,-48.5,-58,-24.16,29.49,0.31662,0.01178,-0.02072,-0.94821
 13:48:23.307,eb:33:2e:f9:57:b5, 2085-97-241 255:98:00:2037,-0.002,0.047,0.995,-0.061,-0.549,-0.183,2.697,0.505,-143.086,-48.5,-58,-24.16,29.49,0.31662,0.01178,-0.02072,-0.94821
 13:48:23.307,eb:33:2e:f9:57:b5, 2085-97-253 255:102:00:2049,0,0.05,0.999,0.061,-0.488,-0.244,2.703,0.5,-143.091,-48.5,-58,-24.16,29.49,0.31662,0.01178,-0.02072,-0.94821
 13:48:23.307,eb:33:2e:f9:57:b5, 2085-97-251 255:96:00:2048,-0.005,0.048,1.001,0.061,-0.183,-0.305,2.703,0.5,-143.097,-48.5,-58,-24.16,29.49,0.31662,0.01178,-0.02072,-0.94821
 13:48:23.368,eb:33:2e:f9:57:b5, 2085-97-247 255:97:00:2043,-0.004,0.047,0.999,0.122,-0.122,-0.244,2.703,0.5,-143.097,-48.5,-58,-24.16,29.49,0.31662,0.01178,-0.02072,-0.94821
 13:48:23.368,eb:33:2e:f9:57:b5, 2085-97-248 255:101:00:2043,-0.004,0.049,0.998,0.183,-0.122,-0.244,2.703,0.494,-143.102,-48.5,-58,-24.16,29.49,0.31662,0.01178,-0.02072,-0.94821
 13:48:23.368,eb:33:2e:f9:57:b5, 2085-97-252 255:100:00:2049,-0.001,0.048,0.999,0.183,-0.061,-0.244,2.708,0.494,-143.108,-48.5,-58,-24.16,29.49,0.31662,0.01178,-0.02072,-0.94821
 13:48:23.368,eb:33:2e:f9:57:b5, 2085-97-253 255:100:00:2045,0,0.049,1,0.183,0.183,-0.183,2.708,0.5,-143.108,-48.5,-58,-24.16,29.49,0.31662,0.01178,-0.02072,-0.94821
 13:48:23.397,eb:33:2e:f9:57:b5, 2085-97-253 255:102:00:2041,-0.002,0.049,0.998,0.244,0.427,-0.244,2.714,0.5,-143.113,-48.5,-58,-24.16,29.49,0.31662,0.01178,-0.02072,-0.94821
 13:48:23.397,eb:33:2e:f9:57:b5, 2085-97-246 255:100:00:2034,-0.008,0.05,0.996,0.183,0.671,-0.305,2.714,0.505,-143.113,-48.5,-58,-24.16,29.49,0.31662,0.01178,-0.02072,-0.94821
 13:48:23.397,eb:33:2e:f9:57:b5, 2085-97-238 255:97:00:2029,-0.009,0.047,0.992,0.244,0.549,-0.366,2.719,0.516,-143.119,-48.5,-58,-24.16,29.49,0.31662,0.01178,-0.02072,-0.94821
 13:48:23.397,eb:33:2e:f9:57:b5, 2085-97-237 255:99:00:2029,-0.007,0.048,0.99,0.305,0.244,-0.488,2.719,0.522,-143.124,-48.5,-58,-24.16,29.49,0.31662,0.01178,-0.02072,-0.94821
 13:48:23.397,eb:33:2e:f9:57:b5, 2085-113-58 00:13:228:-8520,-0.005,0.047,0.993,0.305,0.122,-0.427,2.725,0.522,-143.13,-48.5,-58,-24.16,29.49,0.31662,0.01178,-0.02072,-0.94821
 13:48:23.428,eb:33:2e:f9:57:b5, 2085-97-242 255:97:00:2038,-0.005,0.048,0.995,0.244,0.061,-0.366,2.725,0.522,-143.13,-47.7,-56.8,-24.513,29.49,0.31662,0.01178,-0.02072,-0.94821
 13:48:23.428,eb:33:2e:f9:57:b5, 2085-97-245 255:101:00:2040,-0.005,0.049,0.996,0.183,0.122,-0.305,2.73,0.522,-143.135,-47.7,-56.8,-24.513,29.49,0.31662,0.01178,-0.02072,-0.94821
 13:48:23.428,eb:33:2e:f9:57:b5, 2085-97-245 255:102:00:2038,-0.007,0.05,0.996,0.122,0.183,-0.244,2.73,0.527,-143.141,-47.7,-56.8,-24.513,29.49,0.31662,0.01178,-0.02072,-0.94821
 13:48:23.428,eb:33:2e:f9:57:b5, 2085-97-239 255:97:00:2033,-0.007,0.048,0.994,0.122,0.122,-0.183,2.73,0.527,-143.146,-47.7,-56.8,-24.513,29.49,0.31662,0.01178,-0.02072,-0.94821
 13:48:23.487,eb:33:2e:f9:57:b5, 2085-97-241 255:100:00:2035,-0.007,0.049,0.993,0,0,-0.183,2.736,0.533,-143.146,-47.7,-56.8,-24.513,29.49,0.31662,0.01178,-0.02072,-0.94821
 13:48:23.487,eb:33:2e:f9:57:b5, 2085-97-241 255:99:00:2035,-0.007,0.048,0.994,0,-0.061,-0.061,2.736,0.533,-143.146,-47.7,-56.8,-24.513,29.49,0.31662,0.01178,-0.02072,-0.94821
 13:48:23.487,eb:33:2e:f9:57:b5, 2085-97-240 255:99:00:2036,-0.008,0.048,0.995,-0.122,-0.244,0,2.736,0.527,-143.152,-47.7,-56.8,-24.513,29.49,0.31662,0.01178,-0.02072,-0.94821
 13:48:23.487,eb:33:2e:f9:57:b5, 2085-97-239 255:102:00:2034,-0.009,0.05,0.993,-0.244,-0.427,0,2.73,0.527,-143.152,-47.7,-56.8,-24.513,29.49,0.31662,0.01178,-0.02072,-0.94821
 13:48:23.516,eb:33:2e:f9:57:b5, 2085-97-238 255:98:00:2033,-0.01,0.05,0.992,-0.305,-0.61,0,2.73,0.522,-143.152,-47.7,-56.8,-24.513,29.49,0.31583,0.01193,-0.02118,-0.94846
 13:48:23.516,eb:33:2e:f9:57:b5, 2085-97-238 255:97:00:2031,-0.007,0.046,0.992,-0.244,-0.671,0.061,2.725,0.516,-143.152,-47.7,-56.8,-24.513,29.49,0.31583,0.01193,-0.02118,-0.94846
 13:48:23.516,eb:33:2e:f9:57:b5, 2085-97-242 255:99:00:2037,-0.004,0.048,0.993,-0.183,-0.916,0.122,2.725,0.505,-143.152,-47.7,-56.8,-24.513,29.49,0.31583,0.01193,-0.02118,-0.94846
 13:48:23.516,eb:33:2e:f9:57:b5, 2085-97-246 255:100:00:2038,-0.006,0.05,0.996,-0.183,-0.977,0.061,2.719,0.494,-143.152,-47.7,-56.8,-24.513,29.49,0.31583,0.01193,-0.02118,-0.94846
 13:48:23.547,eb:33:2e:f9:57:b5, 2085-97-244 255:100:00:2039,-0.002,0.048,0.995,-0.183,-0.977,0.061,2.719,0.489,-143.152,-47.7,-56.8,-24.513,29.49,0.31583,0.01193,-0.02118,-0.94846
 13:48:23.547,eb:33:2e:f9:57:b5, 2085-97-253 255:104:00:2044,-0.003,0.05,0.998,-0.183,-0.916,0,2.719,0.478,-143.152,-47.7,-56.8,-24.513,29.49,0.31583,0.01193,-0.02118,-0.94846
 13:48:23.547,eb:33:2e:f9:57:b5, 2085-97-246 255:101:00:2036,-0.006,0.051,0.996,-0.427,-0.732,0,2.714,0.467,-143.152,-47.7,-56.8,-24.513,29.49,0.31583,0.01193,-0.02118,-0.94846
 13:48:23.547,eb:33:2e:f9:57:b5, 2085-97-246 255:99:00:2040,0,0.048,0.995,-0.488,-0.671,0.061,2.708,0.461,-143.157,-47.7,-56.8,-24.513,29.49,0.31583,0.01193,-0.02118,-0.94846
 13:48:23.607,eb:33:2e:f9:57:b5, 2085-97-252 255:104:00:2045,-0.001,0.051,1,-0.549,-0.61,0.061,2.703,0.456,-143.157,-47.7,-56.8,-24.513,29.49,0.31583,0.01193,-0.02118,-0.94846
 13:48:23.607,eb:33:2e:f9:57:b5, 2085-97-251 255:101:00:2043,-0.002,0.05,0.998,-0.671,-0.427,0.122,2.697,0.45,-143.157,-47.7,-56.8,-24.513,29.49,0.31583,0.01193,-0.02118,-0.94846
 13:48:23.607,eb:33:2e:f9:57:b5, 2085-97-251 255:102:00:2043,-0.002,0.049,0.998,-0.732,-0.366,0.061,2.692,0.445,-143.157,-47.7,-56.8,-24.513,29.49,0.31583,0.01193,-0.02118,-0.94846
 13:48:23.607,eb:33:2e:f9:57:b5, 2085-97-00 00:100:00:2045,0,0.049,0.997,-0.732,-0.183,0,2.686,0.439,-143.157,-47.7,-56.8,-24.513,29.49,0.31583,0.01193,-0.02118,-0.94846
 13:48:23.668,eb:33:2e:f9:57:b5, 2085-97-00 00:104:00:2048,0.001,0.05,0.999,-0.671,0.122,0,2.675,0.439,-143.157,-47.7,-56.8,-24.513,29.49,0.31583,0.01193,-0.02118,-0.94846
 13:48:23.668,eb:33:2e:f9:57:b5, 2085-97-01 00:99:00:2048,0,0.051,1.001,-0.61,0.61,-0.244,2.67,0.445,-143.157,-47.7,-56.8,-24.513,29.49,0.31583,0.01193,-0.02118,-0.94846
 13:48:23.668,eb:33:2e:f9:57:b5, 2085-97-01 00:99:00:2051,0,0.046,1.001,-0.427,0.793,-0.244,2.664,0.456,-143.163,-47.7,-56.8,-24.513,29.49,0.31583,0.01193,-0.02118,-0.94846
 13:48:23.668,eb:33:2e:f9:57:b5, 2085-97-253 255:94:00:2047,-0.004,0.048,1,-0.305,1.038,-0.366,2.664,0.461,-143.168,-47.7,-56.8,-24.513,29.49,0.31583,0.01193,-0.02118,-0.94846
 13:48:23.668,eb:33:2e:f9:57:b5, 2085-97-247 255:95:00:2042,-0.005,0.045,0.998,0,0.977,-0.244,2.659,0.472,-143.168,-47.7,-56.8,-24.513,29.49,0.31583,0.01193,-0.02118,-0.94846
 13:48:23.669,eb:33:2e:f9:57:b5, 2085-97-245 255:95:00:2041,-0.003,0.046,0.996,0.122,0.854,-0.122,2.659,0.483,-143.174,-47.7,-56.8,-24.513,29.49,0.31583,0.01193,-0.02118,-0.94846
 13:48:23.669,eb:33:2e:f9:57:b5, 2085-97-246 255:95:00:2041,-0.005,0.047,0.998,0.183,0.671,-0.183,2.664,0.494,-143.174,-47.7,-56.8,-24.513,29.49,0.31583,0.01193,-0.02118,-0.94846
 13:48:23.669,eb:33:2e:f9:57:b5, 2085-97-244 255:94:00:2039,-0.006,0.046,0.996,0.244,0.671,-0.061,2.664,0.5,-143.179,-47.7,-56.8,-24.513,29.49,0.31583,0.01193,-0.02118,-0.94846
 13:48:23.728,eb:33:2e:f9:57:b5, 2085-97-240 255:95:00:2032,-0.009,0.047,0.995,0.366,0.488,-0.061,2.67,0.505,-143.179,-47.7,-56.8,-24.513,29.49,0.31583,0.01193,-0.02118,-0.94846
 13:48:23.728,eb:33:2e:f9:57:b5, 2085-97-238 255:100:00:2029,-0.008,0.047,0.992,0.366,0.244,-0.061,2.675,0.511,-143.179,-47.7,-56.8,-24.513,29.49,0.31583,0.01193,-0.02118,-0.94846
 13:48:23.728,eb:33:2e:f9:57:b5, 2085-97-237 255:99:00:2028,-0.008,0.05,0.99,0.244,0,-0.122,2.675,0.516,-143.179,-47.7,-56.8,-24.513,29.49,0.31583,0.01193,-0.02118,-0.94846
 13:48:23.728,eb:33:2e:f9:57:b5, 2085-97-243 255:100:00:2035,-0.005,0.048,0.991,0.122,-0.061,-0.183,2.681,0.516,-143.185,-47.7,-56.8,-24.513,29.49,0.31583,0.01193,-0.02118,-0.94846
 13:48:23.758,eb:33:2e:f9:57:b5, 2085-97-245 255:100:00:2036,-0.004,0.049,0.995,0,-0.122,-0.061,2.681,0.511,-143.185,-49.4,-56.6,-20.533,29.49,0.31583,0.01193,-0.02118,-0.94846
 13:48:23.758,eb:33:2e:f9:57:b5, 2085-97-245 255:102:00:2035,-0.006,0.049,0.995,0,0,-0.183,2.681,0.511,-143.19,-49.4,-56.6,-20.533,29.49,0.31583,0.01193,-0.02118,-0.94846
 13:48:23.758,eb:33:2e:f9:57:b5, 2085-97-240 255:98:00:2034,-0.008,0.05,0.992,-0.122,0,-0.122,2.681,0.511,-143.19,-49.4,-56.6,-20.533,29.49,0.31583,0.01193,-0.02118,-0.94846
 13:48:23.758,eb:33:2e:f9:57:b5, 2085-97-242 255:98:00:2035,-0.008,0.048,0.994,-0.122,-0.061,-0.061,2.681,0.511,-143.196,-49.4,-56.6,-20.533,29.49,0.31583,0.01193,-0.02118,-0.94846
 13:48:23.818,eb:33:2e:f9:57:b5, 2085-97-240 255:99:00:2033,-0.006,0.049,0.993,-0.244,-0.122,-0.061,2.675,0.511,-143.196,-49.4,-56.6,-20.533,29.49,0.31583,0.01193,-0.02118,-0.94846
 13:48:23.818,eb:33:2e:f9:57:b5, 2085-97-239 255:95:00:2032,-0.007,0.047,0.992,-0.366,-0.244,-0.122,2.675,0.511,-143.196,-49.4,-56.6,-20.533,29.49,0.31583,0.01193,-0.02118,-0.94846
 13:48:23.818,eb:33:2e:f9:57:b5, 2085-97-239 255:98:00:2035,-0.007,0.046,0.994,-0.305,-0.366,-0.122,2.67,0.505,-143.201,-49.4,-56.6,-20.533,29.49,0.31583,0.01193,-0.02118,-0.94846
 13:48:23.818,eb:33:2e:f9:57:b5, 2085-97-241 255:98:00:2037,-0.006,0.048,0.994,-0.427,-0.488,-0.183,2.664,0.5,-143.207,-49.4,-56.6,-20.533,29.49,0.31583,0.01193,-0.02118,-0.94846
 13:48:23.848,eb:33:2e:f9:57:b5, 2085-97-246 255:101:00:2040,-0.003,0.048,0.995,-0.427,-0.61,-0.183,2.664,0.5,-143.196,-49.4,-56.6,-20.533,29.49,0.3154,0.01154,-0.02069,-0.94861
 13:48:23.848,eb:33:2e:f9:57:b5, 2085-97-253 255:98:00:2045,0,0.048,0.998,-0.488,-0.488,-0.305,2.692,0.406,-143.196,-49.4,-56.6,-20.533,29.49,0.3154,0.01154,-0.02069,-0.94861
 13:48:23.848,eb:33:2e:f9:57:b5, 2085-97-05 00:99:00:2053,0.002,0.049,1.002,-0.427,-0.305,-0.305,2.692,0.406,-143.19,-49.4,-56.6,-20.533,29.49,0.3154,0.01154,-0.02069,-0.94861
 13:48:23.848,eb:33:2e:f9:57:b5, 2085-97-249 255:97:00:2046,-0.001,0.049,1.002,-0.427,0,-0.305,2.692,0.401,-143.19,-49.4,-56.6,-20.533,29.49,0.3154,0.01154,-0.02069,-0.94861
 13:48:23.877,eb:33:2e:f9:57:b5, 2085-97-252 255:96:00:2048,-0.001,0.047,1,-0.305,0.061,-0.305,2.692,0.401,-143.179,-49.4,-56.6,-20.533,29.49,0.3154,0.01154,-0.02069,-0.94861
 13:48:23.877,eb:33:2e:f9:57:b5, 2085-97-254 255:97:00:2049,-0.004,0.046,1,-0.244,0.305,-0.305,2.692,0.401,-143.179,-49.4,-56.6,-20.533,29.49,0.3154,0.01154,-0.02069,-0.94861
 13:48:23.877,eb:33:2e:f9:57:b5, 2085-97-250 255:98:00:2046,-0.003,0.046,0.998,-0.183,0.427,-0.183,2.692,0.401,-143.168,-49.4,-56.6,-20.533,29.49,0.3154,0.01154,-0.02069,-0.94861
 13:48:23.877,eb:33:2e:f9:57:b5, 2085-97-248 255:97:00:2041,-0.007,0.047,0.998,-0.122,0.366,-0.244,2.692,0.401,-143.168,-49.4,-56.6,-20.533,29.49,0.3154,0.01154,-0.02069,-0.94861
 13:48:23.906,eb:33:2e:f9:57:b5, 2085-97-237 255:94:00:2031,-0.011,0.046,0.993,-0.122,0.244,-0.122,2.692,0.396,-143.163,-49.4,-56.6,-20.533,29.49,0.3154,0.01154,-0.02069,-0.94861
 13:48:23.906,eb:33:2e:f9:57:b5, 2085-97-237 255:90:00:2033,-0.007,0.045,0.991,0,0,-0.061,2.692,0.396,-143.163,-49.4,-56.6,-20.533,29.49,0.3154,0.01154,-0.02069,-0.94861
 13:48:23.906,eb:33:2e:f9:57:b5, 2085-97-242 255:95:00:2037,-0.007,0.045,0.994,0.061,-0.305,-0.061,2.692,0.396,-143.152,-49.4,-56.6,-20.533,29.49,0.3154,0.01154,-0.02069,-0.94861
 13:48:23.906,eb:33:2e:f9:57:b5, 2085-97-238 255:96:00:2033,-0.009,0.046,0.994,0.061,-0.427,0,2.692,0.396,-143.152,-49.4,-56.6,-20.533,29.49,0.3154,0.01154,-0.02069,-0.94861
 13:48:23.968,eb:33:2e:f9:57:b5, 2085-97-240 255:99:00:2032,-0.005,0.047,0.992,0,-0.671,0,2.692,0.396,-143.141,-49.4,-56.6,-20.533,29.49,0.3154,0.01154,-0.02069,-0.94861
 13:48:23.968,eb:33:2e:f9:57:b5, 2085-97-250 255:95:00:2043,-0.002,0.049,0.995,-0.183,-0.61,0,2.692,0.396,-143.141,-49.4,-56.6,-20.533,29.49,0.3154,0.01154,-0.02069,-0.94861
 13:48:23.968,eb:33:2e:f9:57:b5, 2085-97-248 255:96:00:2042,-0.005,0.045,0.999,0,-0.488,0,2.692,0.396,-143.13,-49.4,-56.6,-20.533,29.49,0.3154,0.01154,-0.02069,-0.94861
 13:48:23.968,eb:33:2e:f9:57:b5, 2085-97-244 255:100:00:2034,-0.006,0.048,0.995,-0.061,-0.366,0,2.692,0.396,-143.13,-49.4,-56.6,-20.533,29.49,0.3154,0.01154,-0.02069,-0.94861
 13:48:23.998,eb:33:2e:f9:57:b5, 2085-97-244 255:96:00:2034,-0.007,0.048,0.993,-0.244,-0.366,-0.061,2.692,0.396,-143.124,-49.4,-56.6,-20.533,29.49,0.3154,0.01154,-0.02069,-0.94861
 13:48:23.998,eb:33:2e:f9:57:b5, 2085-97-243 255:97:00:2033,-0.006,0.046,0.993,-0.183,-0.427,-0.061,2.692,0.396,-143.124,-49.4,-56.6,-20.533,29.49,0.3154,0.01154,-0.02069,-0.94861
 13:48:23.998,eb:33:2e:f9:57:b5, 2085-97-244 255:98:00:2032,-0.007,0.049,0.994,-0.427,-0.488,-0.122,2.692,0.396,-143.113,-49.4,-56.6,-20.533,29.49,0.3154,0.01154,-0.02069,-0.94861
 13:48:23.998,eb:33:2e:f9:57:b5, 2085-97-243 255:95:00:2033,-0.009,0.046,0.993,-0.488,-0.61,-0.122,2.692,0.396,-143.113,-49.4,-56.6,-20.533,29.49,0.3154,0.01154,-0.02069,-0.94861
 13:48:24.028,eb:33:2e:f9:57:b5, 2085-97-244 255:97:00:2033,-0.006,0.046,0.991,-0.488,-0.793,-0.061,2.692,0.396,-143.108,-49.4,-56.6,-20.533,29.49,0.3154,0.01154,-0.02069,-0.94861
 13:48:24.028,eb:33:2e:f9:57:b5, 2085-97-246 255:100:00:2033,-0.007,0.047,0.993,-0.671,-0.916,0,2.692,0.396,-143.108,-49.4,-56.6,-20.533,29.49,0.3154,0.01154,-0.02069,-0.94861
 13:48:24.028,eb:33:2e:f9:57:b5, 2085-113-58 00:28:228:-8625,-0.008,0.048,0.992,-0.854,-1.099,-0.122,2.692,0.396,-143.097,-49.4,-56.6,-20.533,29.49,0.3154,0.01154,-0.02069,-0.94861
 13:48:24.028,eb:33:2e:f9:57:b5, 2085-97-244 255:101:00:2027,-0.008,0.048,0.991,-0.977,-1.221,-0.183,2.692,0.396,-143.097,-49.4,-56.6,-20.533,29.49,0.3154,0.01154,-0.02069,-0.94861
 13:48:24.087,eb:33:2e:f9:57:b5, 2085-97-240 255:99:00:2024,-0.006,0.05,0.988,-1.221,-1.648,-0.427,2.692,0.396,-143.097,-47.6,-57.5,-23.333,29.49,0.3154,0.01154,-0.02069,-0.94861
 13:48:24.087,eb:33:2e:f9:57:b5, 2085-97-252 255:95:00:2037,0,0.049,0.99,-1.282,-2.014,-0.732,2.692,0.396,-143.097,-47.6,-57.5,-23.333,29.49,0.3154,0.01154,-0.02069,-0.94861
 13:48:24.087,eb:33:2e:f9:57:b5, 2085-97-03 00:91:00:2048,0.001,0.044,0.997,-1.099,-1.953,-0.854,2.692,0.396,-143.097,-47.6,-57.5,-23.333,29.49,0.3154,0.01154,-0.02069,-0.94861
 13:48:24.087,eb:33:2e:f9:57:b5, 2085-97-04 00:91:00:2053,0.001,0.045,1,-0.916,-1.709,-0.732,2.692,0.396,-143.097,-47.6,-57.5,-23.333,29.49,0.3154,0.01154,-0.02069,-0.94861
 13:48:24.117,eb:33:2e:f9:57:b5, 2085-97-06 00:84:00:2059,0.002,0.042,1.004,-0.488,-1.343,-0.732,2.692,0.396,-143.097,-47.6,-57.5,-23.333,29.49,0.31628,0.01068,-0.02118,-0.9483
 13:48:24.117,eb:33:2e:f9:57:b5, 2085-97-00 00:92:00:2049,-0.002,0.043,1.003,-0.305,-0.977,-0.427,2.692,0.396,-143.097,-47.6,-57.5,-23.333,29.49,0.31628,0.01068,-0.02118,-0.9483
 13:48:24.117,eb:33:2e:f9:57:b5, 2085-97-253 255:92:00:2046,0,0.044,0.999,-0.183,-0.916,-0.305,2.692,0.396,-143.097,-47.6,-57.5,-23.333,29.49,0.31628,0.01068,-0.02118,-0.9483
 13:48:24.117,eb:33:2e:f9:57:b5, 2085-97-255 255:95:00:2040,-0.002,0.045,0.998,-0.244,-0.793,-0.305,2.692,0.39,-143.097,-47.6,-57.5,-23.333,29.49,0.31628,0.01068,-0.02118,-0.9483
 13:48:24.147,eb:33:2e:f9:57:b5, 2085-97-250 255:92:00:2038,-0.001,0.045,0.995,-0.244,-0.854,-0.305,2.692,0.39,-143.097,-47.6,-57.5,-23.333,29.49,0.31628,0.01068,-0.02118,-0.9483
 13:48:24.147,eb:33:2e:f9:57:b5, 2085-97-255 255:94:00:2040,-0.001,0.046,0.996,-0.244,-0.916,-0.366,2.692,0.39,-143.097,-47.6,-57.5,-23.333,29.49,0.31628,0.01068,-0.02118,-0.9483
 13:48:24.147,eb:33:2e:f9:57:b5, 2085-97-253 255:99:00:2036,-0.003,0.047,0.996,-0.366,-0.854,-0.427,2.692,0.39,-143.097,-47.6,-57.5,-23.333,29.49,0.31628,0.01068,-0.02118,-0.9483
 13:48:24.147,eb:33:2e:f9:57:b5, 2085-97-244 255:95:00:2028,-0.005,0.047,0.991,-0.488,-1.038,-0.61,2.692,0.39,-143.097,-47.6,-57.5,-23.333,29.49,0.31628,0.01068,-0.02118,-0.9483
 13:48:24.209,eb:33:2e:f9:57:b5, 2085-97-247 255:99:00:2030,-0.002,0.047,0.991,-0.732,-1.526,-0.793,2.692,0.39,-143.097,-47.6,-57.5,-23.333,29.49,0.31628,0.01068,-0.02118,-0.9483
 13:48:24.209,eb:33:2e:f9:57:b5, 2085-97-252 255:94:00:2036,0.006,0.048,0.991,-0.916,-1.892,-0.916,2.692,0.39,-143.097,-47.6,-57.5,-23.333,29.49,0.31628,0.01068,-0.02118,-0.9483
 13:48:24.209,eb:33:2e:f9:57:b5, 2085-97-26 00:66:00:2076,0.007,0.041,1.003,-0.488,-1.526,-0.977,2.692,0.39,-143.097,-47.6,-57.5,-23.333,29.49,0.31628,0.01068,-0.02118,-0.9483
 13:48:24.209,eb:33:2e:f9:57:b5, 2085-97-13 00:92:00:2064,0.005,0.032,1.011,0.244,-0.793,-0.061,2.692,0.39,-143.097,-47.6,-57.5,-23.333,29.49,0.31628,0.01068,-0.02118,-0.9483
 13:48:24.237,eb:33:2e:f9:57:b5, 2085-97-05 00:88:00:2055,0.001,0.048,1.004,0.122,0,0.244,2.692,0.39,-143.097,-47.6,-57.5,-23.333,29.49,0.31628,0.01068,-0.02118,-0.9483
 13:48:24.237,eb:33:2e:f9:57:b5, 2085-97-00 00:92:00:2047,0,0.041,1.001,0.366,0.244,0.427,2.692,0.39,-143.097,-47.6,-57.5,-23.333,29.49,0.31628,0.01068,-0.02118,-0.9483
 13:48:24.237,eb:33:2e:f9:57:b5, 2085-97-254 255:94:00:2040,0,0.047,0.997,0.305,0.427,0.549,2.692,0.39,-143.097,-47.6,-57.5,-23.333,29.49,0.31628,0.01068,-0.02118,-0.9483
 13:48:24.237,eb:33:2e:f9:57:b5, 2085-97-254 255:95:00:2036,-0.003,0.046,0.995,0.183,0.488,0.488,2.692,0.39,-143.097,-47.6,-57.5,-23.333,29.49,0.31628,0.01068,-0.02118,-0.9483
 13:48:24.296,eb:33:2e:f9:57:b5, 2085-97-244 255:95:00:2029,-0.006,0.046,0.992,0.061,0.488,0.427,2.692,0.39,-143.097,-47.6,-57.5,-23.333,29.49,0.31628,0.01068,-0.02118,-0.9483
 13:48:24.296,eb:33:2e:f9:57:b5, 2085-97-248 255:93:00:2029,-0.002,0.045,0.99,0,0.244,0.305,2.692,0.39,-143.097,-47.6,-57.5,-23.333,29.49,0.31628,0.01068,-0.02118,-0.9483
 13:48:24.296,eb:33:2e:f9:57:b5, 2085-97-251 255:94:00:2033,-0.001,0.046,0.992,0,0,0.305,2.692,0.39,-143.097,-47.6,-57.5,-23.333,29.49,0.31628,0.01068,-0.02118,-0.9483
 13:48:24.296,eb:33:2e:f9:57:b5, 2085-97-255 255:92:00:2037,0,0.045,0.994,-0.122,-0.061,0.183,2.692,0.39,-143.097,-47.6,-57.5,-23.333,29.49,0.31628,0.01068,-0.02118,-0.9483
 13:48:24.327,eb:33:2e:f9:57:b5, 2085-97-255 255:93:00:2038,0,0.046,0.996,-0.244,-0.061,0.183,2.692,0.39,-143.097,-47.6,-57.5,-23.333,29.49,0.31628,0.01068,-0.02118,-0.9483
 13:48:24.327,eb:33:2e:f9:57:b5, 2085-97-00 00:92:00:2039,0,0.045,0.996,-0.244,-0.061,0.244,2.686,0.39,-143.097,-47.6,-57.5,-23.333,29.49,0.31628,0.01068,-0.02118,-0.9483
 13:48:24.327,eb:33:2e:f9:57:b5, 2085-97-01 00:94:00:2041,0.001,0.045,0.996,-0.183,-0.122,0.183,2.686,0.39,-143.097,-47.6,-57.5,-23.333,29.49,0.31628,0.01068,-0.02118,-0.9483
 13:48:24.327,eb:33:2e:f9:57:b5, 2085-97-01 00:94:00:2041,0,0.046,0.998,-0.183,0,0.122,2.686,0.39,-143.097,-47.6,-57.5,-23.333,29.49,0.31628,0.01068,-0.02118,-0.9483
 13:48:24.358,eb:33:2e:f9:57:b5, 2085-97-255 255:94:00:2039,0,0.046,0.997,-0.244,0,0.122,2.686,0.39,-143.097,-48.6,-56.6,-24.12,29.49,0.31628,0.01068,-0.02118,-0.9483
 13:48:24.358,eb:33:2e:f9:57:b5, 2085-97-00 00:93:00:2041,0,0.045,0.996,-0.305,0,0.122,2.686,0.385,-143.097,-48.6,-56.6,-24.12,29.49,0.31628,0.01068,-0.02118,-0.9483
 13:48:24.358,eb:33:2e:f9:57:b5, 2085-97-00 00:90:00:2043,0,0.044,0.998,-0.244,0,0.061,2.686,0.385,-143.097,-48.6,-56.6,-24.12,29.49,0.31628,0.01068,-0.02118,-0.9483
 13:48:24.358,eb:33:2e:f9:57:b5, 2085-97-253 255:93:00:2036,-0.003,0.045,0.997,-0.305,0.061,0.061,2.686,0.385,-143.097,-48.6,-56.6,-24.12,29.49,0.31628,0.01068,-0.02118,-0.9483
 13:48:24.387,eb:33:2e:f9:57:b5, 2085-97-246 255:89:00:2031,-0.004,0.044,0.992,-0.183,0,0,2.686,0.385,-143.097,-48.6,-56.6,-24.12,29.49,0.31628,0.01068,-0.02118,-0.9483
 13:48:24.387,eb:33:2e:f9:57:b5, 2085-97-01 00:90:00:2039,0.001,0.043,0.993,-0.122,-0.305,0,2.686,0.385,-143.097,-48.6,-56.6,-24.12,29.49,0.31628,0.01068,-0.02118,-0.9483
 13:48:24.387,eb:33:2e:f9:57:b5, 2085-97-254 255:91:00:2036,-0.004,0.044,0.995,-0.122,-0.244,0,2.686,0.385,-143.097,-48.6,-56.6,-24.12,29.49,0.31628,0.01068,-0.02118,-0.9483
 13:48:24.387,eb:33:2e:f9:57:b5, 2085-97-246 255:88:00:2033,-0.005,0.044,0.993,-0.183,-0.427,-0.061,2.686,0.385,-143.097,-48.6,-56.6,-24.12,29.49,0.31628,0.01068,-0.02118,-0.9483
 13:48:24.446,eb:33:2e:f9:57:b5, 2085-97-252 255:94:00:2025,-0.004,0.044,0.993,-0.244,-0.671,-0.061,2.686,0.385,-143.097,-48.6,-56.6,-24.12,29.49,0.31628,0.01062,-0.02118,-0.9483
 13:48:24.446,eb:33:2e:f9:57:b5, 2085-97-245 255:91:00:2027,-0.006,0.046,0.99,-0.244,-0.916,-0.183,2.686,0.385,-143.097,-48.6,-56.6,-24.12,29.49,0.31628,0.01062,-0.02118,-0.9483
 13:48:24.446,eb:33:2e:f9:57:b5, 2085-97-246 255:91:00:2028,-0.006,0.044,0.988,-0.305,-1.404,-0.244,2.686,0.385,-143.097,-48.6,-56.6,-24.12,29.49,0.31628,0.01062,-0.02118,-0.9483
 13:48:24.446,eb:33:2e:f9:57:b5, 2085-97-246 255:96:00:2025,-0.006,0.045,0.99,-0.427,-1.831,-0.427,2.686,0.385,-143.097,-48.6,-56.6,-24.12,29.49,0.31628,0.01062,-0.02118,-0.9483
 13:48:24.477,eb:33:2e:f9:57:b5, 2085-97-244 255:94:00:2027,-0.002,0.047,0.989,-0.671,-2.319,-0.61,2.686,0.385,-143.097,-48.6,-56.6,-24.12,29.49,0.31628,0.01062,-0.02118,-0.9483
 13:48:24.477,eb:33:2e:f9:57:b5, 2085-97-00 00:93:00:2035,0.003,0.045,0.992,-0.671,-2.747,-0.854,2.686,0.379,-143.097,-48.6,-56.6,-24.12,29.49,0.31628,0.01062,-0.02118,-0.9483
 13:48:24.477,eb:33:2e:f9:57:b5, 2085-97-08 00:90:00:2045,0.003,0.045,0.996,-0.671,-2.93,-1.038,2.681,0.352,-143.108,-48.6,-56.6,-24.12,29.49,0.31628,0.01062,-0.02118,-0.9483
 13:48:24.477,eb:33:2e:f9:57:b5, 2085-97-09 00:86:00:2047,0.004,0.042,0.999,-0.61,-2.747,-1.038,2.675,0.324,-143.124,-48.6,-56.6,-24.12,29.49,0.31628,0.01062,-0.02118,-0.9483
 13:48:24.507,eb:33:2e:f9:57:b5, 2085-97-14 00:86:00:2052,0.006,0.042,1,-0.488,-2.625,-0.977,2.67,0.297,-143.135,-48.6,-56.6,-24.12,29.49,0.31628,0.01062,-0.02118,-0.9483
 13:48:24.507,eb:33:2e:f9:57:b5, 2085-97-11 00:85:00:2046,0.005,0.041,1,-0.305,-2.258,-0.732,2.664,0.275,-143.146,-48.6,-56.6,-24.12,29.49,0.31628,0.01062,-0.02118,-0.9483
 13:48:24.507,eb:33:2e:f9:57:b5, 2085-97-11 00:90:00:2047,0.006,0.043,0.999,-0.244,-2.075,-0.549,2.659,0.253,-143.157,-48.6,-56.6,-24.12,29.49,0.31628,0.01062,-0.02118,-0.9483
 13:48:24.507,eb:33:2e:f9:57:b5, 2085-97-14 00:89:00:2045,0.007,0.044,0.999,-0.244,-1.892,-0.488,2.659,0.236,-143.163,-48.6,-56.6,-24.12,29.49,0.31628,0.01062,-0.02118,-0.9483
 13:48:24.567,eb:33:2e:f9:57:b5, 2085-97-11 00:88:00:2045,0.005,0.043,1,-0.183,-1.526,-0.305,2.659,0.22,-143.168,-48.6,-56.6,-24.12,29.49,0.31628,0.01062,-0.02118,-0.9483
 13:48:24.567,eb:33:2e:f9:57:b5, 2085-97-09 00:87:00:2039,0.005,0.043,0.998,-0.183,-1.404,-0.305,2.653,0.203,-143.174,-48.6,-56.6,-24.12,29.49,0.31628,0.01062,-0.02118,-0.9483
 13:48:24.567,eb:33:2e:f9:57:b5, 2085-97-10 00:89:00:2042,0.006,0.044,0.997,-0.061,-1.282,-0.305,2.653,0.192,-143.179,-48.6,-56.6,-24.12,29.49,0.31628,0.01062,-0.02118,-0.9483
 13:48:24.567,eb:33:2e:f9:57:b5, 2085-97-13 00:88:00:2045,0.006,0.044,0.998,-0.183,-1.16,-0.366,2.653,0.181,-143.185,-48.6,-56.6,-24.12,29.49,0.31628,0.01062,-0.02118,-0.9483
 13:48:24.597,eb:33:2e:f9:57:b5, 2085-97-09 00:88:00:2043,0.003,0.043,0.999,-0.183,-0.854,-0.183,2.648,0.17,-143.185,-48.6,-56.6,-24.12,29.49,0.31628,0.01062,-0.02118,-0.9483
 13:48:24.597,eb:33:2e:f9:57:b5, 2085-97-11 00:87:00:2044,0.006,0.042,0.997,-0.183,-0.854,0,2.648,0.165,-143.19,-48.6,-56.6,-24.12,29.49,0.31628,0.01062,-0.02118,-0.9483
 13:48:24.598,eb:33:2e:f9:57:b5, 2085-97-10 00:89:00:2039,0.004,0.042,0.998,-0.122,-0.732,0,2.648,0.154,-143.19,-48.6,-56.6,-24.12,29.49,0.31628,0.01062,-0.02118,-0.9483
 13:48:24.598,eb:33:2e:f9:57:b5, 2085-97-10 00:87:00:2038,0.005,0.044,0.995,-0.122,-0.732,0,2.648,0.148,-143.19,-48.6,-56.6,-24.12,29.49,0.31628,0.01062,-0.02118,-0.9483
 13:48:24.628,eb:33:2e:f9:57:b5, 2085-97-10 00:90:00:2039,0.005,0.043,0.996,-0.061,-0.671,0.061,2.642,0.143,-143.19,-48.7,-56.3,-24.113,29.49,0.31628,0.01062,-0.02118,-0.9483
 13:48:24.628,eb:33:2e:f9:57:b5, 2085-97-06 00:88:00:2032,0.004,0.044,0.994,0,-0.61,0,2.642,0.137,-143.19,-48.7,-56.3,-24.113,29.49,0.31628,0.01062,-0.02118,-0.9483
 13:48:24.628,eb:33:2e:f9:57:b5, 2085-97-11 00:88:00:2039,0.006,0.042,0.994,0,-0.732,-0.122,2.642,0.126,-143.196,-48.7,-56.3,-24.113,29.49,0.31628,0.01062,-0.02118,-0.9483
 13:48:24.628,eb:33:2e:f9:57:b5, 2085-97-13 00:90:00:2043,0.007,0.044,0.997,0,-0.671,-0.122,2.642,0.121,-143.196,-48.7,-56.3,-24.113,29.49,0.31628,0.01062,-0.02118,-0.9483
 13:48:24.717,eb:33:2e:f9:57:b5, 2085-97-13 00:89:00:2041,0.006,0.043,0.999,0,-0.488,0,2.642,0.115,-143.201,-48.7,-56.3,-24.113,29.49,0.31628,0.01062,-0.02118,-0.9483
 13:48:24.717,eb:33:2e:f9:57:b5, 2085-97-13 00:89:00:2043,0.007,0.044,0.997,0,-0.427,0,2.642,0.11,-143.201,-48.7,-56.3,-24.113,29.49,0.31628,0.01062,-0.02118,-0.9483
 13:48:24.717,eb:33:2e:f9:57:b5, 2085-97-12 00:92:00:2041,0.003,0.044,0.997,0,-0.305,0,2.642,0.11,-143.201,-48.7,-56.3,-24.113,29.49,0.31628,0.01062,-0.02118,-0.9483
 13:48:24.717,eb:33:2e:f9:57:b5, 2085-97-10 00:87:00:2036,0.005,0.043,0.995,0,-0.244,0,2.642,0.104,-143.201,-48.7,-56.3,-24.113,29.49,0.31628,0.01062,-0.02118,-0.9483
 13:48:24.719,eb:33:2e:f9:57:b5, 2085-97-07 00:84:00:2035,0.005,0.043,0.993,0,-0.244,0,2.642,0.104,-143.201,-48.7,-56.3,-24.113,29.49,0.31628,0.01062,-0.02118,-0.9483
 13:48:24.719,eb:33:2e:f9:57:b5, 2085-97-09 00:87:00:2039,0.005,0.042,0.995,0.122,-0.427,-0.122,2.642,0.099,-143.201,-48.7,-56.3,-24.113,29.49,0.31628,0.01062,-0.02118,-0.9483
 13:48:24.719,eb:33:2e:f9:57:b5, 2085-97-13 00:91:00:2040,0.005,0.043,0.996,0.122,-0.427,-0.061,2.642,0.099,-143.201,-48.7,-56.3,-24.113,29.49,0.31628,0.01062,-0.02118,-0.9483
 13:48:24.719,eb:33:2e:f9:57:b5, 2085-97-14 00:90:00:2045,0.008,0.044,0.997,0.122,-0.366,-0.061,2.642,0.099,-143.201,-48.7,-56.3,-24.113,29.49,0.31549,0.00821,-0.02158,-0.94861
 13:48:24.777,eb:33:2e:f9:57:b5, 2085-97-15 00:88:00:2044,0.006,0.043,1,0.183,-0.122,0,2.642,0.099,-143.201,-48.7,-56.3,-24.113,29.49,0.31549,0.00821,-0.02158,-0.94861
 13:48:24.778,eb:33:2e:f9:57:b5, 2085-97-11 00:92:00:2038,0.003,0.043,0.997,0.183,0.061,0,2.642,0.093,-143.201,-48.7,-56.3,-24.113,29.49,0.31549,0.00821,-0.02158,-0.94861
 13:48:24.778,eb:33:2e:f9:57:b5, 2085-97-06 00:90:00:2033,0.004,0.044,0.993,0.122,0.061,0,2.642,0.093,-143.201,-48.7,-56.3,-24.113,29.49,0.31549,0.00821,-0.02158,-0.94861
 13:48:24.778,eb:33:2e:f9:57:b5, 2085-97-10 00:88:00:2037,0.006,0.043,0.994,0.061,0,-0.061,2.637,0.088,-143.201,-48.7,-56.3,-24.113,29.49,0.31549,0.00821,-0.02158,-0.94861
 13:48:24.807,eb:33:2e:f9:57:b5, 2085-97-13 00:92:00:2041,0.006,0.043,0.996,0,-0.061,-0.122,2.637,0.088,-143.201,-48.7,-56.3,-24.113,29.49,0.31549,0.00821,-0.02158,-0.94861
 13:48:24.807,eb:33:2e:f9:57:b5, 2085-97-10 00:91:00:2037,0.005,0.044,0.996,0,0,-0.061,2.637,0.088,-143.201,-48.7,-56.3,-24.113,29.49,0.31549,0.00821,-0.02158,-0.94861
 13:48:24.807,eb:33:2e:f9:57:b5, 2085-97-12 00:91:00:2036,0.006,0.044,0.994,0,0,-0.122,2.637,0.088,-143.201,-48.7,-56.3,-24.113,29.49,0.31549,0.00821,-0.02158,-0.94861
 13:48:24.807,eb:33:2e:f9:57:b5, 2085-97-13 00:91:00:2039,0.007,0.044,0.995,0.061,0,-0.122,2.637,0.082,-143.201,-48.7,-56.3,-24.113,29.49,0.31549,0.00821,-0.02158,-0.94861
 13:48:24.837,eb:33:2e:f9:57:b5, 2085-97-08 00:90:00:2038,0.002,0.045,0.996,0,0,-0.122,2.637,0.082,-143.201,-48.7,-56.3,-24.113,29.49,0.31549,0.00821,-0.02158,-0.94861
 13:48:24.837,eb:33:2e:f9:57:b5, 2085-97-07 00:89:00:2035,0.004,0.043,0.993,0,0,-0.122,2.637,0.082,-143.201,-48.7,-56.3,-24.113,29.49,0.31549,0.00821,-0.02158,-0.94861
 13:48:24.837,eb:33:2e:f9:57:b5, 2085-97-12 00:89:00:2039,0.006,0.043,0.995,0,-0.122,-0.061,2.637,0.082,-143.201,-48.7,-56.3,-24.113,29.49,0.31549,0.00821,-0.02158,-0.94861
 13:48:24.837,eb:33:2e:f9:57:b5, 2085-97-08 00:89:00:2040,0.005,0.044,0.996,-0.061,-0.122,0,2.637,0.077,-143.201,-48.7,-56.3,-24.113,29.49,0.31549,0.00821,-0.02158,-0.94861
 13:48:24.897,eb:33:2e:f9:57:b5, 2085-97-11 00:88:00:2042,0.006,0.043,0.997,-0.061,-0.183,0,2.637,0.077,-143.201,-48.7,-56.3,-24.113,29.49,0.31549,0.00821,-0.02158,-0.94861
 13:48:24.897,eb:33:2e:f9:57:b5, 2085-97-14 00:91:00:2040,0.006,0.044,0.996,-0.061,-0.061,0.061,2.637,0.077,-143.201,-48.7,-56.3,-24.113,29.49,0.31549,0.00821,-0.02158,-0.94861
 13:48:24.897,eb:33:2e:f9:57:b5, 2085-97-11 00:91:00:2036,0.006,0.045,0.995,-0.122,-0.061,0.061,2.637,0.077,-143.201,-48.7,-56.3,-24.113,29.49,0.31549,0.00821,-0.02158,-0.94861
 13:48:24.897,eb:33:2e:f9:57:b5, 2085-97-07 00:90:00:2034,0.003,0.045,0.995,-0.183,0,0.061,2.637,0.071,-143.201,-48.7,-56.3,-24.113,29.49,0.31549,0.00821,-0.02158,-0.94861
 13:48:24.928,eb:33:2e:f9:57:b5, 2085-97-15 00:91:00:2038,0.007,0.043,0.993,-0.183,-0.122,0.061,2.637,0.071,-143.201,-48.7,-56.3,-24.113,29.49,0.31549,0.00821,-0.02158,-0.94861
 13:48:24.928,eb:33:2e:f9:57:b5, 2085-97-10 00:90:00:2037,0.005,0.044,0.995,-0.244,0,0,2.631,0.071,-143.201,-48.7,-56.3,-24.113,29.49,0.31549,0.00821,-0.02158,-0.94861
 13:48:24.928,eb:33:2e:f9:57:b5, 2085-97-14 00:89:00:2040,0.006,0.044,0.995,-0.244,0,0,2.631,0.071,-143.201,-48.7,-56.3,-24.113,29.49,0.31549,0.00821,-0.02158,-0.94861
 13:48:24.928,eb:33:2e:f9:57:b5, 2085-97-09 00:91:00:2037,0.004,0.044,0.995,-0.305,0,0.122,2.631,0.071,-143.201,-48.7,-56.3,-24.113,29.49,0.31549,0.00821,-0.02158,-0.94861
 13:48:24.928,eb:33:2e:f9:57:b5, 2085-113-58 00:149:227:-8160,0.003,0.043,0.994,-0.244,-0.061,0.061,2.631,0.071,-143.201,-48.7,-56.3,-24.113,29.49,0.31549,0.00821,-0.02158,-0.94861
 13:48:24.959,eb:33:2e:f9:57:b5, 2085-97-11 00:86:00:2039,0.006,0.042,0.993,-0.244,-0.183,0,2.631,0.071,-143.201,-48.5,-54.4,-23.053,29.49,0.31549,0.00821,-0.02158,-0.94861
 13:48:24.959,eb:33:2e:f9:57:b5, 2085-97-14 00:87:00:2041,0.007,0.042,0.998,-0.183,-0.183,0,2.631,0.066,-143.201,-48.5,-54.4,-23.053,29.49,0.31549,0.00821,-0.02158,-0.94861
 13:48:24.959,eb:33:2e:f9:57:b5, 2085-97-13 00:85:00:2043,0.007,0.042,0.998,-0.183,-0.183,0,2.631,0.066,-143.201,-48.5,-54.4,-23.053,29.49,0.31549,0.00821,-0.02158,-0.94861
 13:48:24.959,eb:33:2e:f9:57:b5, 2085-97-14 00:87:00:2041,0.007,0.042,0.997,-0.061,-0.183,0,2.631,0.066,-143.201,-48.5,-54.4,-23.053,29.49,0.31549,0.00821,-0.02158,-0.94861
 13:48:25.018,eb:33:2e:f9:57:b5, 2085-97-15 00:89:00:2042,0.006,0.043,0.996,-0.061,-0.122,0,2.631,0.066,-143.201,-48.5,-54.4,-23.053,29.49,0.31549,0.00821,-0.02158,-0.94861
 13:48:25.018,eb:33:2e:f9:57:b5, 2085-97-11 00:90:00:2038,0.004,0.044,0.996,0,0,0,2.631,0.06,-143.201,-48.5,-54.4,-23.053,29.49,0.31549,0.00821,-0.02158,-0.94861
 13:48:25.018,eb:33:2e:f9:57:b5, 2085-97-08 00:89:00:2035,0.005,0.043,0.995,0,0,-0.061,2.631,0.06,-143.201,-48.5,-54.4,-23.053,29.49,0.31549,0.00821,-0.02158,-0.94861
 13:48:25.018,eb:33:2e:f9:57:b5, 2085-97-13 00:89:00:2042,0.006,0.043,0.996,0,0,-0.244,2.631,0.06,-143.201,-48.5,-54.4,-23.053,29.49,0.31549,0.00821,-0.02158,-0.94861
 13:48:25.047,eb:33:2e:f9:57:b5, 2085-97-10 00:87:00:2041,0.006,0.042,0.998,0,0,-0.183,2.631,0.06,-143.201,-48.5,-54.4,-23.053,29.49,0.31546,0.00778,-0.02161,-0.94861
 13:48:25.047,eb:33:2e:f9:57:b5, 2085-97-10 00:89:00:2040,0.005,0.044,0.997,0,0.061,-0.122,2.631,0.055,-143.201,-48.5,-54.4,-23.053,29.49,0.31546,0.00778,-0.02161,-0.94861
 13:48:25.047,eb:33:2e:f9:57:b5, 2085-97-13 00:87:00:2041,0.007,0.042,0.995,-0.061,0,0,2.631,0.055,-143.201,-48.5,-54.4,-23.053,29.49,0.31546,0.00778,-0.02161,-0.94861
 13:48:25.047,eb:33:2e:f9:57:b5, 2085-97-12 00:91:00:2036,0.003,0.044,0.997,-0.183,0.122,0.061,2.631,0.055,-143.201,-48.5,-54.4,-23.053,29.49,0.31546,0.00778,-0.02161,-0.94861
 13:48:25.077,eb:33:2e:f9:57:b5, 2085-97-06 00:88:00:2035,0.005,0.043,0.994,-0.183,0,0,2.631,0.055,-143.201,-48.5,-54.4,-23.053,29.49,0.31546,0.00778,-0.02161,-0.94861
 13:48:25.077,eb:33:2e:f9:57:b5, 2085-97-14 00:88:00:2039,0.006,0.042,0.994,-0.122,-0.061,0,2.626,0.055,-143.201,-48.5,-54.4,-23.053,29.49,0.31546,0.00778,-0.02161,-0.94861
 13:48:25.077,eb:33:2e:f9:57:b5, 2085-97-12 00:86:00:2039,0.005,0.043,0.996,-0.122,-0.061,0.122,2.626,0.055,-143.201,-48.5,-54.4,-23.053,29.49,0.31546,0.00778,-0.02161,-0.94861
 13:48:25.077,eb:33:2e:f9:57:b5, 2085-97-13 00:86:00:2041,0.007,0.042,0.995,-0.122,-0.122,0.122,2.626,0.049,-143.201,-48.5,-54.4,-23.053,29.49,0.31546,0.00778,-0.02161,-0.94861
 13:48:25.138,eb:33:2e:f9:57:b5, 2085-97-10 00:87:00:2041,0.005,0.042,0.997,-0.061,-0.061,0.061,2.626,0.049,-143.201,-48.5,-54.4,-23.053,29.49,0.31546,0.00778,-0.02161,-0.94861
 13:48:25.138,eb:33:2e:f9:57:b5, 2085-97-13 00:87:00:2042,0.01,0.042,0.996,0,-0.122,0.061,2.626,0.049,-143.207,-48.5,-54.4,-23.053,29.49,0.31546,0.00778,-0.02161,-0.94861
 13:48:25.138,eb:33:2e:f9:57:b5, 2085-97-23 00:80:00:2049,0.012,0.042,0.999,0.244,0.061,0.061,2.626,0.049,-143.207,-48.5,-54.4,-23.053,29.49,0.31546,0.00778,-0.02161,-0.94861
 13:48:25.138,eb:33:2e:f9:57:b5, 2085-97-19 00:84:00:2049,0.007,0.038,1.002,0.61,0.427,0.244,2.626,0.044,-143.207,-48.5,-54.4,-23.053,29.49,0.31546,0.00778,-0.02161,-0.94861
 13:48:25.167,eb:33:2e:f9:57:b5, 2085-97-08 00:95:00:2038,0.002,0.046,0.998,0.549,0.671,0.244,2.626,0.044,-143.207,-48.5,-54.4,-23.053,29.49,0.31546,0.00778,-0.02161,-0.94861
 13:48:25.167,eb:33:2e:f9:57:b5, 2085-97-05 00:88:00:2031,0.004,0.044,0.993,0.488,0.488,0.183,2.626,0.044,-143.207,-48.5,-54.4,-23.053,29.49,0.31546,0.00778,-0.02161,-0.94861
 13:48:25.167,eb:33:2e:f9:57:b5, 2085-97-13 00:90:00:2038,0.007,0.043,0.993,0.366,0.305,0.061,2.626,0.044,-143.207,-48.5,-54.4,-23.053,29.49,0.31546,0.00778,-0.02161,-0.94861
 13:48:25.167,eb:33:2e:f9:57:b5, 2085-97-11 00:89:00:2035,0.005,0.045,0.996,0.366,0.305,0,2.626,0.044,-143.207,-48.5,-54.4,-23.053,29.49,0.31546,0.00778,-0.02161,-0.94861
 13:48:25.227,eb:33:2e:f9:57:b5, 2085-97-07 00:90:00:2039,0.006,0.044,0.995,0.305,0.244,0.061,2.626,0.044,-143.207,-48.5,-54.4,-23.053,29.49,0.31546,0.00778,-0.02161,-0.94861
 13:48:25.227,eb:33:2e:f9:57:b5, 2085-97-14 00:88:00:2042,0.005,0.044,0.997,0.366,0.366,0,2.626,0.038,-143.207,-48.5,-54.4,-23.053,29.49,0.31546,0.00778,-0.02161,-0.94861
 13:48:25.227,eb:33:2e:f9:57:b5, 2085-97-10 00:90:00:2039,0.005,0.043,0.997,0.366,0.427,0.122,2.626,0.038,-143.207,-48.5,-54.4,-23.053,29.49,0.31546,0.00778,-0.02161,-0.94861
 13:48:25.227,eb:33:2e:f9:57:b5, 2085-97-12 00:89:00:2040,0.006,0.044,0.996,0.305,0.488,0.122,2.626,0.038,-143.207,-48.5,-54.4,-23.053,29.49,0.31546,0.00778,-0.02161,-0.94861
 13:48:25.286,eb:33:2e:f9:57:b5, 2085-97-11 00:91:00:2039,0.005,0.044,0.997,0.305,0.488,0.183,2.626,0.038,-143.207,-48.5,-54.4,-23.053,29.49,0.31546,0.00778,-0.02161,-0.94861
 13:48:25.286,eb:33:2e:f9:57:b5, 2085-97-05 00:90:00:2035,0.001,0.045,0.995,0.244,0.549,0.244,2.62,0.038,-143.207,-48.5,-54.4,-23.053,29.49,0.31546,0.00778,-0.02161,-0.94861
 13:48:25.286,eb:33:2e:f9:57:b5, 2085-97-03 00:91:00:2032,0.002,0.044,0.992,0.183,0.366,0.122,2.62,0.038,-143.207,-48.5,-54.4,-23.053,29.49,0.31546,0.00778,-0.02161,-0.94861
 13:48:25.286,eb:33:2e:f9:57:b5, 2085-97-05 00:91:00:2031,0.004,0.044,0.992,0.061,0.183,0.122,2.62,0.033,-143.207,-48.5,-54.4,-23.053,29.49,0.31546,0.00778,-0.02161,-0.94861
 13:48:25.289,eb:33:2e:f9:57:b5, 2085-97-05 00:90:00:2035,0.003,0.045,0.993,0,0.122,0.061,2.62,0.033,-143.207,-48.5,-54.4,-23.053,29.49,0.31546,0.00778,-0.02161,-0.94861
 13:48:25.289,eb:33:2e:f9:57:b5, 2085-97-08 00:90:00:2037,0.004,0.044,0.993,0,0,0.061,2.62,0.033,-143.207,-48.5,-54.4,-23.053,29.49,0.31546,0.00778,-0.02161,-0.94861
 13:48:25.289,eb:33:2e:f9:57:b5, 2085-97-10 00:87:00:2038,0.005,0.042,0.994,0,-0.061,0,2.62,0.033,-143.207,-48.5,-54.4,-23.053,29.49,0.31546,0.00778,-0.02161,-0.94861
 13:48:25.289,eb:33:2e:f9:57:b5, 2085-97-07 00:89:00:2035,0.003,0.043,0.996,-0.061,0,0.061,2.62,0.027,-143.207,-48.4,-56.6,-24.12,29.49,0.31546,0.00778,-0.02161,-0.94861
 13:48:25.347,eb:33:2e:f9:57:b5, 2085-97-07 00:90:00:2038,0.003,0.043,0.994,-0.061,-0.122,0.122,2.62,0.027,-143.207,-48.4,-56.6,-24.12,29.49,0.31546,0.00778,-0.02161,-0.94861
 13:48:25.347,eb:33:2e:f9:57:b5, 2085-97-07 00:91:00:2036,0.002,0.044,0.994,-0.122,-0.122,0.061,2.62,0.027,-143.207,-48.4,-56.6,-24.12,29.49,0.31546,0.00778,-0.02161,-0.94861
 13:48:25.347,eb:33:2e:f9:57:b5, 2085-97-06 00:94:00:2044,0.01,0.044,0.995,-0.305,-0.061,0.061,2.62,0.027,-143.207,-48.4,-56.6,-24.12,29.49,0.31546,0.00778,-0.02161,-0.94861
 13:48:25.347,eb:33:2e:f9:57:b5, 2085-97-245 255:84:00:2021,0,0.048,0.994,-0.488,0.244,0.061,2.62,0.027,-143.207,-48.4,-56.6,-24.12,29.49,0.31546,0.00778,-0.02161,-0.94861
 13:48:25.377,eb:33:2e:f9:57:b5, 2085-97-05 00:90:00:2033,0.004,0.043,0.991,-0.549,-0.183,0,2.62,0.027,-143.207,-48.4,-56.6,-24.12,29.49,0.31546,0.00778,-0.02161,-0.94861
 13:48:25.377,eb:33:2e:f9:57:b5, 2085-97-13 00:88:00:2040,0.002,0.044,0.994,-0.61,-0.244,0,2.62,0.022,-143.207,-48.4,-56.6,-24.12,29.49,0.31546,0.00778,-0.02161,-0.94861
 13:48:25.377,eb:33:2e:f9:57:b5, 2085-97-07 00:81:00:2040,0.007,0.041,0.995,-0.427,-0.122,0,2.62,0.022,-143.207,-48.4,-56.6,-24.12,29.49,0.31546,0.00778,-0.02161,-0.94861
 13:48:25.377,eb:33:2e:f9:57:b5, 2085-97-18 00:92:00:2047,0.009,0.042,1,-0.305,-0.122,0.061,2.62,0.022,-143.207,-48.4,-56.6,-24.12,29.49,0.31546,0.00778,-0.02161,-0.94861
 13:48:25.408,eb:33:2e:f9:57:b5, 2085-97-21 00:86:00:2052,0.009,0.043,1,-0.183,0.183,0.122,2.62,0.022,-143.207,-48.4,-56.6,-24.12,29.49,0.31546,0.00739,-0.02161,-0.94861
 13:48:25.408,eb:33:2e:f9:57:b5, 2085-97-24 00:90:00:2056,0.009,0.039,1.003,0,0.549,0.305,2.62,0.022,-143.207,-48.4,-56.6,-24.12,29.49,0.31546,0.00739,-0.02161,-0.94861
 13:48:25.408,eb:33:2e:f9:57:b5, 2085-97-13 00:93:00:2042,0.004,0.046,1,0,0.916,0.305,2.62,0.022,-143.207,-48.4,-56.6,-24.12,29.49,0.31546,0.00739,-0.02161,-0.94861
 13:48:25.408,eb:33:2e:f9:57:b5, 2085-97-08 00:89:00:2040,0.004,0.044,0.995,0,0.854,0.305,2.615,0.016,-143.207,-48.4,-56.6,-24.12,29.49,0.31546,0.00739,-0.02161,-0.94861
 13:48:25.437,eb:33:2e:f9:57:b5, 2085-97-18 00:91:00:2045,0.005,0.042,0.995,0.061,0.61,0.244,2.615,0.016,-143.207,-48.4,-56.6,-24.12,29.49,0.31546,0.00739,-0.02161,-0.94861
 13:48:25.437,eb:33:2e:f9:57:b5, 2085-97-10 00:86:00:2041,0.005,0.042,0.996,0.061,0.732,0.183,2.615,0.016,-143.207,-48.4,-56.6,-24.12,29.49,0.31546,0.00739,-0.02161,-0.94861
 13:48:25.437,eb:33:2e:f9:57:b5, 2085-97-11 00:84:00:2046,0.006,0.042,0.998,0.305,0.61,0.183,2.615,0.016,-143.207,-48.4,-56.6,-24.12,29.49,0.31546,0.00739,-0.02161,-0.94861
 13:48:25.437,eb:33:2e:f9:57:b5, 2085-97-16 00:88:00:2046,0.007,0.042,0.999,0.427,0.61,0.244,2.615,0.016,-143.207,-48.4,-56.6,-24.12,29.49,0.31546,0.00739,-0.02161,-0.94861
 13:48:25.557,eb:33:2e:f9:57:b5, 2085-97-10 00:88:00:2041,0.003,0.043,0.999,0.488,0.854,0.366,2.615,0.016,-143.207,-48.4,-56.6,-24.12,29.49,0.31546,0.00739,-0.02161,-0.94861
 13:48:25.557,eb:33:2e:f9:57:b5, 2085-97-07 00:91:00:2035,0.001,0.044,0.995,0.488,0.854,0.305,2.615,0.011,-143.207,-48.4,-56.6,-24.12,29.49,0.31546,0.00739,-0.02161,-0.94861
 13:48:25.557,eb:33:2e:f9:57:b5, 2085-97-02 00:90:00:2032,0.001,0.045,0.992,0.427,0.793,0.183,2.615,0.011,-143.207,-48.4,-56.6,-24.12,29.49,0.31546,0.00739,-0.02161,-0.94861
 13:48:25.557,eb:33:2e:f9:57:b5, 2085-97-04 00:88:00:2034,0.005,0.044,0.993,0.427,0.549,0.183,2.615,0.011,-143.207,-48.4,-56.6,-24.12,29.49,0.31546,0.00739,-0.02161,-0.94861
 13:48:25.559,eb:33:2e:f9:57:b5, 2085-97-11 00:89:00:2045,0.004,0.044,0.998,0.427,0.671,0.122,2.615,0.011,-143.207,-48.4,-56.6,-24.12,29.49,0.31546,0.00739,-0.02161,-0.94861
 13:48:25.559,eb:33:2e:f9:57:b5, 2085-97-02 00:94:00:2036,0,0.044,0.996,0.366,0.732,0.183,2.615,0.011,-143.207,-48.4,-56.6,-24.12,29.49,0.31546,0.00739,-0.02161,-0.94861
 13:48:25.559,eb:33:2e:f9:57:b5, 2085-97-00 00:90:00:2033,0.001,0.045,0.992,0.244,0.671,0.183,2.615,0.011,-143.207,-48.4,-56.6,-24.12,29.49,0.31546,0.00739,-0.02161,-0.94861
 13:48:25.559,eb:33:2e:f9:57:b5, 2085-97-08 00:92:00:2039,0.001,0.044,0.994,0.183,0.427,0.122,2.615,0.005,-143.207,-48.4,-56.6,-24.12,29.49,0.31546,0.00739,-0.02161,-0.94861
 13:48:25.559,eb:33:2e:f9:57:b5, 2085-97-00 00:89:00:2037,0,0.044,0.995,0.183,0.427,0.122,2.615,0.005,-143.207,-48.4,-56.6,-24.12,29.49,0.31546,0.00739,-0.02161,-0.94861
 13:48:25.559,eb:33:2e:f9:57:b5, 2085-97-03 00:90:00:2039,0.004,0.043,0.994,0.122,0.244,0.244,2.615,0.005,-143.207,-48.4,-56.6,-24.12,29.49,0.31546,0.00739,-0.02161,-0.94861
 13:48:25.559,eb:33:2e:f9:57:b5, 2085-97-07 00:89:00:2043,0.002,0.043,0.997,0.183,0.366,0.244,2.615,0.005,-143.207,-48.4,-56.6,-24.12,29.49,0.31546,0.00739,-0.02161,-0.94861
 13:48:25.559,eb:33:2e:f9:57:b5, 2085-97-03 00:90:00:2038,0.002,0.043,0.996,0.183,0.366,0.366,2.615,0.005,-143.207,-48.4,-56.6,-24.12,29.49,0.31546,0.00739,-0.02161,-0.94861
 13:48:25.618,eb:33:2e:f9:57:b5, 2085-97-00 00:91:00:2036,0.001,0.045,0.994,0.183,0.244,0.305,2.615,0.005,-143.207,-48.4,-56.6,-24.12,29.49,0.31546,0.00739,-0.02161,-0.94861
 13:48:25.619,eb:33:2e:f9:57:b5, 2085-97-06 00:93:00:2039,0.004,0.045,0.995,0.061,0.122,0.305,2.615,0.005,-143.207,-48.4,-56.6,-24.12,29.49,0.31546,0.00739,-0.02161,-0.94861
 13:48:25.619,eb:33:2e:f9:57:b5, 2085-97-05 00:93:00:2040,0.002,0.045,0.996,0,0.244,0.244,2.615,0.005,-143.207,-48.4,-56.6,-24.12,29.49,0.31546,0.00739,-0.02161,-0.94861
 13:48:25.619,eb:33:2e:f9:57:b5, 2085-97-05 00:92:00:2040,0.001,0.044,0.995,0,0.183,0.183,2.609,0,-143.207,-48.4,-56.6,-24.12,29.49,0.31546,0.00739,-0.02161,-0.94861
 13:48:25.648,eb:33:2e:f9:57:b5, 2085-97-04 00:91:00:2037,0.002,0.044,0.994,0,0.183,0.244,2.609,0,-143.207,-49.6,-55.9,-23.72,29.49,0.31546,0.00739,-0.02161,-0.94861
 13:48:25.648,eb:33:2e:f9:57:b5, 2085-97-06 00:93:00:2036,0.003,0.045,0.994,-0.061,0.122,0.122,2.609,0,-143.207,-49.6,-55.9,-23.72,29.49,0.31546,0.00739,-0.02161,-0.94861
 13:48:25.648,eb:33:2e:f9:57:b5, 2085-97-02 00:93:00:2033,0.001,0.046,0.994,-0.122,0.244,0.061,2.609,0,-143.207,-49.6,-55.9,-23.72,29.49,0.31546,0.00739,-0.02161,-0.94861
 13:48:25.648,eb:33:2e:f9:57:b5, 2085-97-06 00:88:00:2040,0.003,0.044,0.994,-0.061,0.244,0,2.609,0,-143.207,-49.6,-55.9,-23.72,29.49,0.31546,0.00739,-0.02161,-0.94861
 13:48:25.677,eb:33:2e:f9:57:b5, 2085-97-07 00:90:00:2040,0.003,0.042,0.997,0.061,0.305,0,2.609,0,-143.207,-49.6,-55.9,-23.72,29.49,0.31546,0.00739,-0.02161,-0.94861
 13:48:25.677,eb:33:2e:f9:57:b5, 2085-97-07 00:89:00:2042,0.001,0.044,0.996,0.122,0.244,0,2.609,0,-143.207,-49.6,-55.9,-23.72,29.49,0.31546,0.00739,-0.02161,-0.94861
 13:48:25.677,eb:33:2e:f9:57:b5, 2085-113-81 00:98:40:235,0,0.044,0.997,0.122,0.305,0,2.609,0,-143.207,-49.6,-55.9,-23.72,29.49,0.31546,0.00739,-0.02161,-0.94861
 13:48:25.677,eb:33:2e:f9:57:b5, 2085-97-00 00:94:00:2037,0,0.044,0.995,0.122,0.183,0.061,2.609,0,-143.207,-49.6,-55.9,-23.72,29.49,0.31546,0.00739,-0.02161,-0.94861
 13:48:25.766,eb:33:2e:f9:57:b5, 2085-97-00 00:91:00:2033,0,0.045,0.994,0,0.183,0,2.609,0,-143.207,-49.6,-55.9,-23.72,29.49,0.31549,0.00717,-0.02161,-0.94861
 13:48:25.766,eb:33:2e:f9:57:b5, 2085-97-03 00:90:00:2034,0.001,0.045,0.992,0.061,0,-0.122,2.609,0,-143.207,-49.6,-55.9,-23.72,29.49,0.31549,0.00717,-0.02161,-0.94861
 13:48:25.766,eb:33:2e:f9:57:b5, 2085-97-03 00:88:00:2039,0.004,0.043,0.995,0,-0.061,-0.183,2.609,0,-143.207,-49.6,-55.9,-23.72,29.49,0.31549,0.00717,-0.02161,-0.94861
 13:48:25.766,eb:33:2e:f9:57:b5, 2085-97-05 00:91:00:2042,0,0.043,0.997,0.061,-0.061,-0.244,2.609,0,-143.207,-49.6,-55.9,-23.72,29.49,0.31549,0.00717,-0.02161,-0.94861
 13:48:25.798,eb:33:2e:f9:57:b5, 2085-97-02 00:93:00:2037,0.001,0.045,0.995,0.122,-0.122,-0.183,2.609,0,-143.207,-49.6,-55.9,-23.72,29.49,0.31549,0.00717,-0.02161,-0.94861
 13:48:25.798,eb:33:2e:f9:57:b5, 2085-97-05 00:90:00:2041,0.005,0.045,0.995,0.061,-0.183,-0.244,2.604,-0.022,-143.207,-49.6,-55.9,-23.72,29.49,0.31549,0.00717,-0.02161,-0.94861
 13:48:25.798,eb:33:2e:f9:57:b5, 2085-97-10 00:90:00:2047,0.003,0.045,0.999,0.061,-0.183,-0.244,2.604,-0.022,-143.201,-49.6,-55.9,-23.72,29.49,0.31549,0.00717,-0.02161,-0.94861
 13:48:25.798,eb:33:2e:f9:57:b5, 2085-97-03 00:92:00:2037,0,0.044,0.997,0.061,-0.122,-0.122,2.604,-0.022,-143.201,-49.6,-55.9,-23.72,29.49,0.31549,0.00717,-0.02161,-0.94861
 13:48:25.828,eb:33:2e:f9:57:b5, 2085-97-00 00:90:00:2039,0,0.044,0.995,0.122,-0.183,-0.122,2.598,-0.022,-143.19,-49.6,-55.9,-23.72,29.49,0.31549,0.00717,-0.02161,-0.94861
 13:48:25.828,eb:33:2e:f9:57:b5, 2085-97-05 00:89:00:2042,0.002,0.042,0.996,0.183,-0.122,-0.183,2.598,-0.022,-143.19,-49.6,-55.9,-23.72,29.49,0.31549,0.00717,-0.02161,-0.94861
 13:48:25.828,eb:33:2e:f9:57:b5, 2085-97-03 00:91:00:2040,0.001,0.045,0.996,0.183,-0.122,0,2.598,-0.022,-143.185,-49.6,-55.9,-23.72,29.49,0.31549,0.00717,-0.02161,-0.94861
 13:48:25.828,eb:33:2e:f9:57:b5, 2085-97-02 00:91:00:2035,-0.001,0.045,0.996,0.183,0,0,2.598,-0.027,-143.185,-49.6,-55.9,-23.72,29.49,0.31549,0.00717,-0.02161,-0.94861
 13:48:25.859,eb:33:2e:f9:57:b5, 2085-97-250 255:88:00:2031,0.006,0.044,0.991,0.305,-0.122,-0.061,2.598,-0.027,-143.179,-49.6,-55.9,-23.72,29.49,0.31549,0.00717,-0.02161,-0.94861
 13:48:25.859,eb:33:2e:f9:57:b5, 2085-97-11 00:95:00:2044,0.003,0.047,0.998,0.244,-0.122,-0.122,2.598,-0.027,-143.179,-49.6,-55.9,-23.72,29.49,0.31549,0.00717,-0.02161,-0.94861
 13:48:25.859,eb:33:2e:f9:57:b5, 2085-97-00 00:92:00:2037,0.001,0.046,0.996,0.122,0,-0.122,2.598,-0.027,-143.174,-49.6,-55.9,-23.72,29.49,0.31549,0.00717,-0.02161,-0.94861
 13:48:25.859,eb:33:2e:f9:57:b5, 2085-97-07 00:94:00:2039,0.003,0.045,0.994,0.122,-0.061,-0.061,2.598,-0.027,-143.174,-49.6,-55.9,-23.72,29.49,0.31549,0.00717,-0.02161,-0.94861
 13:48:25.887,eb:33:2e:f9:57:b5, 2085-97-00 00:92:00:2036,0,0.046,0.996,0,0.061,-0.122,2.598,-0.027,-143.163,-49.6,-55.9,-23.72,29.49,0.31549,0.00717,-0.02161,-0.94861
 13:48:25.887,eb:33:2e:f9:57:b5, 2085-97-00 00:92:00:2034,0.001,0.044,0.993,0,-0.061,-0.122,2.598,-0.027,-143.163,-49.6,-55.9,-23.72,29.49,0.31549,0.00717,-0.02161,-0.94861
 13:48:25.887,eb:33:2e:f9:57:b5, 2085-97-02 00:91:00:2039,0.003,0.044,0.994,0,-0.183,-0.122,2.598,-0.027,-143.157,-49.6,-55.9,-23.72,29.49,0.31549,0.00717,-0.02161,-0.94861
 13:48:25.887,eb:33:2e:f9:57:b5, 2085-97-06 00:87:00:2043,0.001,0.044,0.998,0,0,-0.061,2.598,-0.027,-143.157,-49.6,-55.9,-23.72,29.49,0.31549,0.00717,-0.02161,-0.94861
 13:48:25.918,eb:33:2e:f9:57:b5, 2085-97-00 00:91:00:2039,0.001,0.043,0.996,0.122,-0.061,0,2.598,-0.027,-143.152,-49.5,-54.7,-23.68,29.49,0.31549,0.00717,-0.02161,-0.94861
 13:48:25.918,eb:33:2e:f9:57:b5, 2085-97-03 00:92:00:2040,0.001,0.044,0.996,0.122,0,0.061,2.598,-0.027,-143.152,-49.5,-54.7,-23.68,29.49,0.31549,0.00717,-0.02161,-0.94861
 13:48:25.918,eb:33:2e:f9:57:b5, 2085-97-06 00:94:00:2038,0.003,0.045,0.995,0.061,-0.061,0.061,2.598,-0.027,-143.146,-49.5,-54.7,-23.68,29.49,0.31549,0.00717,-0.02161,-0.94861
 13:48:25.918,eb:33:2e:f9:57:b5, 2085-97-04 00:93:00:2040,0.001,0.045,0.996,0,0,0,2.598,-0.027,-143.146,-49.5,-54.7,-23.68,29.49,0.31549,0.00717,-0.02161,-0.94861
 13:48:25.977,eb:33:2e:f9:57:b5, 2085-97-01 00:93:00:2035,0.001,0.045,0.994,0.061,0,0,2.598,-0.027,-143.141,-49.5,-54.7,-23.68,29.49,0.31549,0.00717,-0.02161,-0.94861
 13:48:25.977,eb:33:2e:f9:57:b5, 2085-97-06 00:91:00:2039,0.006,0.045,0.994,0,-0.061,-0.061,2.598,-0.033,-143.141,-49.5,-54.7,-23.68,29.49,0.31549,0.00717,-0.02161,-0.94861
 13:48:25.977,eb:33:2e:f9:57:b5, 2085-97-10 00:92:00:2046,0.001,0.045,0.999,0.061,-0.122,-0.061,2.598,-0.033,-143.13,-49.5,-54.7,-23.68,29.49,0.31549,0.00717,-0.02161,-0.94861
 13:48:25.977,eb:33:2e:f9:57:b5, 2085-97-00 00:93:00:2032,0,0.044,0.995,0,-0.061,-0.122,2.598,-0.033,-143.13,-49.5,-54.7,-23.68,29.49,0.31549,0.00717,-0.02161,-0.94861
 13:48:26.006,eb:33:2e:f9:57:b5, 2085-97-03 00:92:00:2036,0.002,0.046,0.992,0,-0.244,-0.061,2.598,-0.033,-143.124,-49.5,-54.7,-23.68,29.49,0.31604,0.00687,-0.02161,-0.94843
 13:48:26.006,eb:33:2e:f9:57:b5, 2085-97-05 00:93:00:2039,0.002,0.045,0.996,0,-0.305,-0.122,2.598,-0.033,-143.124,-49.5,-54.7,-23.68,29.49,0.31604,0.00687,-0.02161,-0.94843
 13:48:26.006,eb:33:2e:f9:57:b5, 2085-97-08 00:90:00:2040,0.004,0.046,0.995,0,-0.305,-0.122,2.598,-0.033,-143.119,-49.5,-54.7,-23.68,29.49,0.31604,0.00687,-0.02161,-0.94843
 13:48:26.006,eb:33:2e:f9:57:b5, 2085-97-11 00:90:00:2046,0.003,0.042,0.998,0.122,-0.183,-0.122,2.598,-0.033,-143.119,-49.5,-54.7,-23.68,29.49,0.31604,0.00687,-0.02161,-0.94843
 13:48:26.066,eb:33:2e:f9:57:b5, 2085-97-03 00:94:00:2038,0,0.046,0.997,0.122,0,0,2.598,-0.033,-143.113,-49.5,-54.7,-23.68,29.49,0.31604,0.00687,-0.02161,-0.94843
 13:48:26.068,eb:33:2e:f9:57:b5, 2085-97-02 00:93:00:2037,0.003,0.044,0.995,0.061,0,0,2.598,-0.033,-143.113,-49.5,-54.7,-23.68,29.49,0.31604,0.00687,-0.02161,-0.94843
 13:48:26.068,eb:33:2e:f9:57:b5, 2085-97-07 00:97:00:2039,0.001,0.047,0.996,0,-0.061,0,2.598,-0.033,-143.108,-49.5,-54.7,-23.68,29.49,0.31604,0.00687,-0.02161,-0.94843
 13:48:26.068,eb:33:2e:f9:57:b5, 2085-97-01 00:94:00:2035,0.002,0.046,0.995,-0.122,0,-0.061,2.598,-0.033,-143.108,-49.5,-54.7,-23.68,29.49,0.31604,0.00687,-0.02161,-0.94843
 13:48:26.097,eb:33:2e:f9:57:b5, 2085-97-05 00:93:00:2038,0.001,0.045,0.995,-0.122,0,-0.061,2.598,-0.033,-143.097,-49.5,-54.7,-23.68,29.49,0.31604,0.00687,-0.02161,-0.94843
 13:48:26.097,eb:33:2e:f9:57:b5, 2085-97-01 00:92:00:2036,0,0.045,0.995,-0.122,0,-0.122,2.598,-0.038,-143.097,-49.5,-54.7,-23.68,29.49,0.31604,0.00687,-0.02161,-0.94843
 13:48:26.097,eb:33:2e:f9:57:b5, 2085-97-01 00:94:00:2038,0,0.045,0.995,-0.183,0,-0.122,2.593,-0.038,-143.091,-49.5,-54.7,-23.68,29.49,0.31604,0.00687,-0.02161,-0.94843
 13:48:26.097,eb:33:2e:f9:57:b5, 2085-97-04 00:91:00:2039,0.001,0.045,0.995,-0.244,-0.122,-0.122,2.598,-0.038,-143.091,-49.5,-54.7,-23.68,29.49,0.31604,0.00687,-0.02161,-0.94843
 13:48:26.127,eb:33:2e:f9:57:b5, 2085-97-03 00:92:00:2036,0.002,0.044,0.995,-0.183,-0.122,-0.122,2.593,-0.038,-143.086,-49.5,-54.7,-23.68,29.49,0.31604,0.00687,-0.02161,-0.94843
 13:48:26.127,eb:33:2e:f9:57:b5, 2085-97-06 00:87:00:2043,0.003,0.043,0.996,-0.183,-0.061,-0.122,2.593,-0.038,-143.086,-49.5,-54.7,-23.68,29.49,0.31604,0.00687,-0.02161,-0.94843
 13:48:26.128,eb:33:2e:f9:57:b5, 2085-97-04 00:92:00:2041,0.001,0.043,0.999,0,0,0,2.593,-0.038,-143.08,-49.5,-54.7,-23.68,29.49,0.31604,0.00687,-0.02161,-0.94843
 13:48:26.128,eb:33:2e:f9:57:b5, 2085-97-00 00:88:00:2034,0.001,0.044,0.995,-0.061,0.061,0,2.593,-0.038,-143.08,-49.5,-54.7,-23.68,29.49,0.31604,0.00687,-0.02161,-0.94843
 13:48:26.187,eb:33:2e:f9:57:b5, 2085-97-08 00:89:00:2043,0.003,0.043,0.995,0,0,0,2.593,-0.038,-143.075,-49.5,-54.7,-23.68,29.49,0.31604,0.00687,-0.02161,-0.94843
 13:48:26.187,eb:33:2e:f9:57:b5, 2085-97-05 00:91:00:2038,0.001,0.044,0.997,0.061,0,0,2.593,-0.038,-143.075,-49.5,-54.7,-23.68,29.49,0.31604,0.00687,-0.02161,-0.94843
 13:48:26.187,eb:33:2e:f9:57:b5, 2085-97-01 00:92:00:2034,0,0.044,0.994,0.061,0,0.061,2.593,-0.038,-143.069,-49.5,-54.7,-23.68,29.49,0.31604,0.00687,-0.02161,-0.94843
 13:48:26.187,eb:33:2e:f9:57:b5, 2085-97-04 00:96:00:2037,0.003,0.045,0.995,0,-0.061,0,2.593,-0.038,-143.069,-49.5,-54.7,-23.68,29.49,0.31604,0.00687,-0.02161,-0.94843
 13:48:26.187,eb:33:2e:f9:57:b5, 2085-97-07 00:95:00:2041,0.002,0.046,0.996,0,0,0,2.593,-0.038,-143.058,-49.5,-54.7,-23.68,29.49,0.31604,0.00687,-0.02161,-0.94843
 13:48:26.218,eb:33:2e:f9:57:b5, 2085-113-58 00:119:227:-8370,0,0.046,0.995,0,0,-0.061,2.593,-0.038,-143.058,-48.7,-55.8,-24.1,29.49,0.31604,0.00687,-0.02161,-0.94843
 13:48:26.218,eb:33:2e:f9:57:b5, 2085-97-02 00:92:00:2036,0.002,0.045,0.994,-0.061,0.061,-0.122,2.593,-0.038,-143.058,-48.7,-55.8,-24.1,29.49,0.31604,0.00687,-0.02161,-0.94843
 13:48:26.218,eb:33:2e:f9:57:b5, 2085-97-06 00:93:00:2039,0.001,0.045,0.995,-0.061,-0.061,-0.122,2.593,-0.038,-143.053,-48.7,-55.8,-24.1,29.49,0.31604,0.00687,-0.02161,-0.94843
 13:48:26.218,eb:33:2e:f9:57:b5, 2085-97-01 00:90:00:2035,0.001,0.045,0.995,0,-0.061,-0.244,2.593,-0.038,-143.053,-48.7,-55.8,-24.1,29.49,0.31604,0.00687,-0.02161,-0.94843
 13:48:26.248,eb:33:2e:f9:57:b5, 2085-97-03 00:88:00:2040,0.001,0.043,0.995,0,-0.183,-0.183,2.593,-0.044,-143.047,-48.7,-55.8,-24.1,29.49,0.31604,0.00687,-0.02161,-0.94843
 13:48:26.248,eb:33:2e:f9:57:b5, 2085-97-04 00:92:00:2039,0.003,0.044,0.996,0,-0.183,-0.061,2.593,-0.044,-143.047,-48.7,-55.8,-24.1,29.49,0.31604,0.00687,-0.02161,-0.94843
 13:48:26.248,eb:33:2e:f9:57:b5, 2085-97-04 00:90:00:2041,0.001,0.044,0.996,0.061,-0.183,-0.061,2.593,-0.044,-143.042,-48.7,-55.8,-24.1,29.49,0.31604,0.00687,-0.02161,-0.94843
 13:48:26.248,eb:33:2e:f9:57:b5, 2085-97-05 00:93:00:2040,0.001,0.044,0.996,0.183,-0.244,0,2.593,-0.044,-143.042,-48.7,-55.8,-24.1,29.49,0.31604,0.00687,-0.02161,-0.94843
 13:48:26.306,eb:33:2e:f9:57:b5, 2085-97-03 00:92:00:2036,0,0.045,0.995,0.122,-0.122,0,2.593,-0.044,-143.036,-48.7,-55.8,-24.1,29.49,0.31683,0.00677,-0.02158,-0.94815
 13:48:26.306,eb:33:2e:f9:57:b5, 2085-97-02 00:94:00:2035,0.001,0.045,0.993,0.122,-0.183,0,2.593,-0.044,-143.036,-48.7,-55.8,-24.1,29.49,0.31683,0.00677,-0.02158,-0.94815
 13:48:26.306,eb:33:2e:f9:57:b5, 2085-97-03 00:93:00:2034,0,0.046,0.994,0.061,-0.183,0,2.593,-0.044,-143.031,-48.7,-55.8,-24.1,29.49,0.31683,0.00677,-0.02158,-0.94815
 13:48:26.306,eb:33:2e:f9:57:b5, 2085-97-01 00:92:00:2035,0,0.045,0.993,0,-0.244,-0.061,2.593,-0.044,-143.031,-48.7,-55.8,-24.1,29.49,0.31683,0.00677,-0.02158,-0.94815
 13:48:26.338,eb:33:2e:f9:57:b5, 2085-97-02 00:92:00:2039,0.002,0.044,0.994,0,-0.427,-0.061,2.593,-0.044,-143.026,-48.7,-55.8,-24.1,29.49,0.31683,0.00677,-0.02158,-0.94815
 13:48:26.338,eb:33:2e:f9:57:b5, 2085-97-07 00:91:00:2039,0.003,0.045,0.996,0,-0.488,-0.122,2.593,-0.044,-143.026,-48.7,-55.8,-24.1,29.49,0.31683,0.00677,-0.02158,-0.94815
 13:48:26.338,eb:33:2e:f9:57:b5, 2085-97-03 00:95:00:2037,0.001,0.045,0.996,0,-0.488,0,2.593,-0.044,-143.015,-48.7,-55.8,-24.1,29.49,0.31683,0.00677,-0.02158,-0.94815
 13:48:26.338,eb:33:2e:f9:57:b5, 2085-97-05 00:89:00:2040,0.004,0.044,0.995,0,-0.549,-0.061,2.593,-0.044,-143.015,-48.7,-55.8,-24.1,29.49,0.31683,0.00677,-0.02158,-0.94815
 13:48:26.366,eb:33:2e:f9:57:b5, 2085-97-06 00:95:00:2040,0.002,0.045,0.997,0,-0.549,-0.061,2.593,-0.044,-143.009,-48.7,-55.8,-24.1,29.49,0.31683,0.00677,-0.02158,-0.94815
 13:48:26.366,eb:33:2e:f9:57:b5, 2085-97-01 00:93:00:2033,0.001,0.047,0.995,0,-0.427,-0.061,2.593,-0.044,-143.009,-48.7,-55.8,-24.1,29.49,0.31683,0.00677,-0.02158,-0.94815
 13:48:26.366,eb:33:2e:f9:57:b5, 2085-97-03 00:94:00:2038,0.003,0.045,0.994,-0.061,-0.549,-0.183,2.593,-0.044,-143.004,-48.7,-55.8,-24.1,29.49,0.31683,0.00677,-0.02158,-0.94815
 13:48:26.366,eb:33:2e:f9:57:b5, 2085-97-06 00:95:00:2037,0,0.046,0.995,-0.122,-0.61,-0.183,2.593,-0.044,-143.004,-48.7,-55.8,-24.1,29.49,0.31683,0.00677,-0.02158,-0.94815
 13:48:26.427,eb:33:2e:f9:57:b5, 2085-97-02 00:94:00:2037,0.001,0.045,0.995,-0.305,-0.61,-0.183,2.593,-0.049,-142.998,-48.7,-55.8,-24.1,29.49,0.31683,0.00677,-0.02158,-0.94815
 13:48:26.427,eb:33:2e:f9:57:b5, 2085-97-05 00:93:00:2037,0.003,0.045,0.994,-0.427,-0.793,-0.244,2.593,-0.049,-142.998,-48.7,-55.8,-24.1,29.49,0.31683,0.00677,-0.02158,-0.94815
 13:48:26.427,eb:33:2e:f9:57:b5, 2085-97-07 00:94:00:2036,0.003,0.046,0.994,-0.488,-0.916,-0.305,2.593,-0.049,-142.993,-48.7,-55.8,-24.1,29.49,0.31683,0.00677,-0.02158,-0.94815
 13:48:26.427,eb:33:2e:f9:57:b5, 2085-97-07 00:90:00:2038,0.005,0.043,0.996,-0.488,-0.916,-0.366,2.593,-0.049,-142.993,-48.7,-55.8,-24.1,29.49,0.31683,0.00677,-0.02158,-0.94815
 13:48:26.488,eb:33:2e:f9:57:b5, 2085-97-12 00:89:00:2042,0.006,0.044,0.996,-0.488,-0.916,-0.305,2.593,-0.049,-142.987,-48.7,-55.8,-24.1,29.49,0.31683,0.00677,-0.02158,-0.94815
 13:48:26.488,eb:33:2e:f9:57:b5, 2085-97-11 00:89:00:2043,0.003,0.043,0.998,-0.366,-0.854,-0.244,2.593,-0.049,-142.987,-48.7,-55.8,-24.1,29.49,0.31683,0.00677,-0.02158,-0.94815
 13:48:26.488,eb:33:2e:f9:57:b5, 2085-97-06 00:87:00:2039,0.004,0.042,0.996,-0.244,-0.732,-0.122,2.593,-0.049,-142.982,-48.7,-55.8,-24.1,29.49,0.31683,0.00677,-0.02158,-0.94815
 13:48:26.488,eb:33:2e:f9:57:b5, 2085-97-14 00:92:00:2043,0.004,0.044,0.996,-0.122,-0.732,-0.122,2.593,-0.049,-142.982,-48.7,-55.8,-24.1,29.49,0.31683,0.00677,-0.02158,-0.94815
 13:48:26.490,eb:33:2e:f9:57:b5, 2085-97-08 00:90:00:2040,0.003,0.043,0.996,-0.061,-0.671,-0.122,2.593,-0.049,-142.976,-48,-55.6,-23.88,29.49,0.31683,0.00677,-0.02158,-0.94815
 13:48:26.490,eb:33:2e:f9:57:b5, 2085-97-09 00:89:00:2042,0.007,0.044,0.996,-0.061,-0.61,-0.183,2.587,-0.049,-142.976,-48,-55.6,-23.88,29.49,0.31683,0.00677,-0.02158,-0.94815
 13:48:26.490,eb:33:2e:f9:57:b5, 2085-97-14 00:92:00:2043,0.007,0.044,0.998,-0.061,-0.488,-0.122,2.587,-0.049,-142.965,-48,-55.6,-23.88,29.49,0.31683,0.00677,-0.02158,-0.94815
 13:48:26.490,eb:33:2e:f9:57:b5, 2085-97-11 00:93:00:2042,0.003,0.045,0.998,-0.061,-0.305,-0.061,2.587,-0.055,-142.965,-48,-55.6,-23.88,29.49,0.31683,0.00677,-0.02158,-0.94815
 13:48:26.547,eb:33:2e:f9:57:b5, 2085-97-08 00:92:00:2039,0.005,0.044,0.996,-0.122,-0.305,0,2.587,-0.055,-142.96,-48,-55.6,-23.88,29.49,0.31683,0.00677,-0.02158,-0.94815
 13:48:26.547,eb:33:2e:f9:57:b5, 2085-97-13 00:91:00:2042,0.006,0.044,0.996,-0.122,-0.183,-0.122,2.587,-0.055,-142.96,-48,-55.6,-23.88,29.49,0.31683,0.00677,-0.02158,-0.94815
 13:48:26.547,eb:33:2e:f9:57:b5, 2085-97-10 00:91:00:2040,0.003,0.044,0.997,-0.122,-0.061,-0.061,2.587,-0.055,-142.954,-48,-55.6,-23.88,29.49,0.31683,0.00677,-0.02158,-0.94815
 13:48:26.547,eb:33:2e:f9:57:b5, 2085-97-05 00:91:00:2037,0.003,0.045,0.995,-0.183,0,-0.122,2.587,-0.055,-142.954,-48,-55.6,-23.88,29.49,0.31683,0.00677,-0.02158,-0.94815
 13:48:26.578,eb:33:2e:f9:57:b5, 2085-97-08 00:91:00:2038,0.004,0.045,0.995,-0.183,-0.061,-0.122,2.587,-0.055,-142.949,-48,-55.6,-23.88,29.49,0.3176,0.00665,-0.02158,-0.94791
 13:48:26.578,eb:33:2e:f9:57:b5, 2085-97-09 00:90:00:2038,0.003,0.045,0.996,-0.183,0,-0.061,2.587,-0.06,-142.949,-48,-55.6,-23.88,29.49,0.3176,0.00665,-0.02158,-0.94791
 13:48:26.578,eb:33:2e:f9:57:b5, 2085-97-06 00:88:00:2039,0.003,0.042,0.996,-0.183,-0.061,-0.061,2.587,-0.06,-142.943,-48,-55.6,-23.88,29.49,0.3176,0.00665,-0.02158,-0.94791
 13:48:26.578,eb:33:2e:f9:57:b5, 2085-97-08 00:88:00:2037,0.002,0.043,0.996,-0.122,-0.122,0,2.587,-0.06,-142.943,-48,-55.6,-23.88,29.49,0.3176,0.00665,-0.02158,-0.94791
 13:48:26.607,eb:33:2e:f9:57:b5, 2085-97-06 00:89:00:2037,0.004,0.043,0.994,-0.061,-0.183,0,2.587,-0.06,-142.938,-48,-55.6,-23.88,29.49,0.3176,0.00665,-0.02158,-0.94791
 13:48:26.607,eb:33:2e:f9:57:b5, 2085-97-09 00:91:00:2039,0.004,0.044,0.996,-0.061,-0.244,0,2.587,-0.06,-142.938,-48,-55.6,-23.88,29.49,0.3176,0.00665,-0.02158,-0.94791
 13:48:26.607,eb:33:2e:f9:57:b5, 2085-97-06 00:90:00:2034,0.003,0.044,0.995,-0.061,-0.244,0,2.587,-0.06,-142.932,-48,-55.6,-23.88,29.49,0.3176,0.00665,-0.02158,-0.94791
 13:48:26.607,eb:33:2e:f9:57:b5, 2085-97-05 00:89:00:2037,0.003,0.043,0.995,0,-0.305,0,2.587,-0.06,-142.932,-48,-55.6,-23.88,29.49,0.3176,0.00665,-0.02158,-0.94791
 13:48:26.666,eb:33:2e:f9:57:b5, 2085-97-08 00:89:00:2038,0.006,0.043,0.995,0,-0.366,0,2.587,-0.06,-142.927,-48,-55.6,-23.88,29.49,0.3176,0.00665,-0.02158,-0.94791
 13:48:26.666,eb:33:2e:f9:57:b5, 2085-97-10 00:88:00:2043,0.004,0.043,0.996,0,-0.366,0,2.587,-0.06,-142.927,-48,-55.6,-23.88,29.49,0.3176,0.00665,-0.02158,-0.94791
 13:48:26.666,eb:33:2e:f9:57:b5, 2085-97-13 00:92:00:2043,0.004,0.043,0.996,0.061,-0.366,0,2.587,-0.066,-142.921,-48,-55.6,-23.88,29.49,0.3176,0.00665,-0.02158,-0.94791
 13:48:26.667,eb:33:2e:f9:57:b5, 2085-97-09 00:89:00:2040,0.006,0.043,0.995,0.061,-0.305,0,2.587,-0.066,-142.921,-48,-55.6,-23.88,29.49,0.3176,0.00665,-0.02158,-0.94791
 13:48:26.697,eb:33:2e:f9:57:b5, 2085-97-11 00:91:00:2040,0.005,0.045,0.996,0,-0.244,0,2.587,-0.066,-142.916,-48,-55.6,-23.88,29.49,0.3176,0.00665,-0.02158,-0.94791
 13:48:26.697,eb:33:2e:f9:57:b5, 2085-97-10 00:90:00:2039,0.006,0.044,0.996,0.061,-0.122,-0.061,2.587,-0.066,-142.916,-48,-55.6,-23.88,29.49,0.3176,0.00665,-0.02158,-0.94791
 13:48:26.697,eb:33:2e:f9:57:b5, 2085-97-12 00:92:00:2040,0.004,0.045,0.997,0.061,0,-0.061,2.587,-0.066,-142.91,-48,-55.6,-23.88,29.49,0.3176,0.00665,-0.02158,-0.94791
 13:48:26.697,eb:33:2e:f9:57:b5, 2085-97-12 00:87:00:2040,0.006,0.044,0.994,0,0,-0.061,2.582,-0.066,-142.91,-48,-55.6,-23.88,29.49,0.3176,0.00665,-0.02158,-0.94791
 13:48:26.757,eb:33:2e:f9:57:b5, 2085-97-14 00:90:00:2043,0.007,0.042,0.998,0.061,0,-0.061,2.582,-0.066,-142.905,-48,-55.6,-23.88,29.49,0.3176,0.00665,-0.02158,-0.94791
 13:48:26.757,eb:33:2e:f9:57:b5, 2085-97-10 00:92:00:2043,0.003,0.045,0.999,0.122,0.061,0,2.582,-0.071,-142.905,-48,-55.6,-23.88,29.49,0.3176,0.00665,-0.02158,-0.94791
 13:48:26.757,eb:33:2e:f9:57:b5, 2085-97-07 00:90:00:2040,0.004,0.043,0.997,0.061,0.183,0,2.582,-0.071,-142.899,-48,-55.6,-23.88,29.49,0.3176,0.00665,-0.02158,-0.94791
 13:48:26.757,eb:33:2e:f9:57:b5, 2085-97-08 00:91:00:2039,0.005,0.043,0.996,0.061,0.122,0.061,2.582,-0.071,-142.899,-48,-55.6,-23.88,29.49,0.3176,0.00665,-0.02158,-0.94791
 13:48:26.788,eb:33:2e:f9:57:b5, 2085-97-09 00:91:00:2039,0.003,0.044,0.995,0,0.061,0.122,2.582,-0.071,-142.888,-48,-55.6,-23.88,29.49,0.3176,0.00665,-0.02158,-0.94791
 13:48:26.788,eb:33:2e:f9:57:b5, 2085-97-05 00:88:00:2037,0.005,0.043,0.996,-0.061,0,0.183,2.582,-0.071,-142.888,-48,-55.6,-23.88,29.49,0.3176,0.00665,-0.02158,-0.94791
 13:48:26.788,eb:33:2e:f9:57:b5, 2085-97-12 00:89:00:2041,0.007,0.042,0.996,0,-0.061,0.244,2.582,-0.071,-142.883,-48,-55.6,-23.88,29.49,0.3176,0.00665,-0.02158,-0.94791
 13:48:26.788,eb:33:2e:f9:57:b5, 2085-97-10 00:90:00:2035,0.002,0.044,0.996,0.061,-0.061,0.305,2.582,-0.071,-142.883,-48,-55.6,-23.88,29.49,0.3176,0.00665,-0.02158,-0.94791
 13:48:26.817,eb:33:2e:f9:57:b5, 2085-97-07 00:87:00:2034,0.005,0.043,0.992,0.122,-0.122,0.305,2.582,-0.071,-142.877,-48.5,-56.5,-21.313,29.49,0.3176,0.00665,-0.02158,-0.94791
 13:48:26.817,eb:33:2e:f9:57:b5, 2085-97-12 00:90:00:2039,0.006,0.043,0.994,0.305,-0.183,0.244,2.582,-0.077,-142.877,-48.5,-56.5,-21.313,29.49,0.3176,0.00665,-0.02158,-0.94791
 13:48:26.817,eb:33:2e:f9:57:b5, 2085-97-09 00:91:00:2038,0.002,0.044,0.996,0.427,-0.122,0.183,2.582,-0.077,-142.872,-48.5,-56.5,-21.313,29.49,0.3176,0.00665,-0.02158,-0.94791
 13:48:26.817,eb:33:2e:f9:57:b5, 2085-97-02 00:89:00:2033,0.003,0.044,0.993,0.366,-0.244,0.122,2.582,-0.077,-142.872,-48.5,-56.5,-21.313,29.49,0.3176,0.00665,-0.02158,-0.94791
 13:48:26.847,eb:33:2e:f9:57:b5, 2085-97-08 00:93:00:2037,0.004,0.044,0.994,0.366,-0.366,0.061,2.582,-0.077,-142.866,-48.5,-56.5,-21.313,29.49,0.3176,0.00665,-0.02158,-0.94791
 13:48:26.847,eb:33:2e:f9:57:b5, 2085-97-10 00:92:00:2039,0.004,0.045,0.995,0.244,-0.305,0.122,2.582,-0.077,-142.866,-48.5,-56.5,-21.313,29.49,0.3176,0.00665,-0.02158,-0.94791
 13:48:26.847,eb:33:2e:f9:57:b5, 2085-113-81 00:191:40:213,0.005,0.045,0.995,0.244,-0.366,0.122,2.582,-0.077,-142.861,-48.5,-56.5,-21.313,29.49,0.3176,0.00665,-0.02158,-0.94791
 13:48:26.847,eb:33:2e:f9:57:b5, 2085-97-09 00:91:00:2039,0.005,0.045,0.995,0.183,-0.305,0.122,2.582,-0.077,-142.861,-48.5,-56.5,-21.313,29.49,0.3176,0.00665,-0.02158,-0.94791
 13:48:26.908,eb:33:2e:f9:57:b5, 2085-97-12 00:91:00:2043,0.006,0.044,0.996,0.122,-0.366,0.122,2.582,-0.077,-142.855,-48.5,-56.5,-21.313,29.49,0.31833,0.0065,-0.02158,-0.94766
 13:48:26.908,eb:33:2e:f9:57:b5, 2085-97-14 00:93:00:2040,0.006,0.046,0.997,0.061,-0.305,0.244,2.582,-0.082,-142.855,-48.5,-56.5,-21.313,29.49,0.31833,0.0065,-0.02158,-0.94766
 13:48:26.908,eb:33:2e:f9:57:b5, 2085-97-12 00:90:00:2042,0.005,0.045,0.997,0.122,-0.122,0.183,2.582,-0.082,-142.85,-48.5,-56.5,-21.313,29.49,0.31833,0.0065,-0.02158,-0.94766
 13:48:26.908,eb:33:2e:f9:57:b5, 2085-97-13 00:90:00:2041,0.007,0.043,0.996,0.183,-0.122,0.244,2.582,-0.082,-142.85,-48.5,-56.5,-21.313,29.49,0.31833,0.0065,-0.02158,-0.94766
 13:48:26.937,eb:33:2e:f9:57:b5, 2085-97-13 00:87:00:2041,0.008,0.043,0.997,0.244,0,0.305,2.582,-0.082,-142.844,-48.5,-56.5,-21.313,29.49,0.31833,0.0065,-0.02158,-0.94766
 13:48:26.937,eb:33:2e:f9:57:b5, 2085-97-17 00:94:00:2047,0.007,0.043,0.999,0.305,0,0.549,2.582,-0.082,-142.844,-48.5,-56.5,-21.313,29.49,0.31833,0.0065,-0.02158,-0.94766
 13:48:26.937,eb:33:2e:f9:57:b5, 2085-97-11 00:93:00:2042,0.005,0.047,0.998,0.183,0.366,0.488,2.582,-0.082,-142.839,-48.5,-56.5,-21.313,29.49,0.31833,0.0065,-0.02158,-0.94766
 13:48:26.937,eb:33:2e:f9:57:b5, 2085-97-05 00:92:00:2037,0.002,0.046,0.997,0.183,0.488,0.488,2.582,-0.088,-142.839,-48.5,-56.5,-21.313,29.49,0.31833,0.0065,-0.02158,-0.94766
 13:48:26.967,eb:33:2e:f9:57:b5, 2085-97-04 00:89:00:2035,0.005,0.044,0.992,0.244,0.244,0.427,2.576,-0.088,-142.833,-48.5,-56.5,-21.313,29.49,0.31833,0.0065,-0.02158,-0.94766
 13:48:26.967,eb:33:2e:f9:57:b5, 2085-97-11 00:94:00:2040,0.004,0.045,0.997,0.244,0.183,0.488,2.576,-0.088,-142.833,-48.5,-56.5,-21.313,29.49,0.31833,0.0065,-0.02158,-0.94766
 13:48:26.967,eb:33:2e:f9:57:b5, 2085-97-09 00:92:00:2036,0.004,0.046,0.995,0.122,0.183,0.488,2.576,-0.088,-142.828,-48.5,-56.5,-21.313,29.49,0.31833,0.0065,-0.02158,-0.94766
 13:48:26.967,eb:33:2e:f9:57:b5, 2085-97-09 00:94:00:2035,0.005,0.045,0.994,0.122,0.122,0.488,2.576,-0.088,-142.828,-48.5,-56.5,-21.313,29.49,0.31833,0.0065,-0.02158,-0.94766
 13:48:27.027,eb:33:2e:f9:57:b5, 2085-97-09 00:95:00:2038,0.005,0.045,0.994,0.061,0,0.366,2.576,-0.088,-142.822,-48.5,-56.5,-21.313,29.49,0.31833,0.0065,-0.02158,-0.94766
 13:48:27.027,eb:33:2e:f9:57:b5, 2085-97-07 00:94:00:2034,0.006,0.047,0.994,0,0.061,0.305,2.576,-0.088,-142.822,-48.5,-56.5,-21.313,29.49,0.31833,0.0065,-0.02158,-0.94766
 13:48:27.027,eb:33:2e:f9:57:b5, 2085-97-15 00:91:00:2039,0.006,0.045,0.995,0.061,0.122,0.183,2.576,-0.088,-142.817,-48.5,-56.5,-21.313,29.49,0.31833,0.0065,-0.02158,-0.94766
 13:48:27.027,eb:33:2e:f9:57:b5, 2085-97-11 00:94:00:2037,0.004,0.045,0.995,0,0.244,0.122,2.576,-0.093,-142.817,-48.5,-56.5,-21.313,29.49,0.31833,0.0065,-0.02158,-0.94766
 13:48:27.058,eb:33:2e:f9:57:b5, 2085-97-10 00:93:00:2038,0.005,0.045,0.994,0,0.244,0.061,2.576,-0.093,-142.811,-48.5,-56.5,-21.313,29.49,0.31833,0.0065,-0.02158,-0.94766
 13:48:27.058,eb:33:2e:f9:57:b5, 2085-97-07 00:91:00:2035,0.003,0.045,0.995,0,0.244,0,2.576,-0.093,-142.811,-48.5,-56.5,-21.313,29.49,0.31833,0.0065,-0.02158,-0.94766
 13:48:27.058,eb:33:2e:f9:57:b5, 2085-97-04 00:91:00:2036,0.002,0.045,0.994,0,0.183,0,2.576,-0.093,-142.806,-48.5,-56.5,-21.313,29.49,0.31833,0.0065,-0.02158,-0.94766
 13:48:27.058,eb:33:2e:f9:57:b5, 2085-97-08 00:92:00:2041,0.005,0.045,0.996,0,0,0,2.576,-0.093,-142.806,-48.5,-56.5,-21.313,29.49,0.31833,0.0065,-0.02158,-0.94766
 13:48:27.118,eb:33:2e:f9:57:b5, 2085-97-08 00:90:00:2038,0.003,0.045,0.996,0,0,0,2.576,-0.093,-142.8,-47.6,-55.4,-24.467,29.49,0.31833,0.0065,-0.02158,-0.94766
 13:48:27.118,eb:33:2e:f9:57:b5, 2085-97-09 00:90:00:2038,0.003,0.045,0.995,0,0,0.061,2.576,-0.093,-142.8,-47.6,-55.4,-24.467,29.49,0.31833,0.0065,-0.02158,-0.94766
 13:48:27.118,eb:33:2e:f9:57:b5, 2085-97-09 00:93:00:2040,0.004,0.044,0.994,0,-0.122,0.122,2.576,-0.093,-142.795,-47.6,-55.4,-24.467,29.49,0.31833,0.0065,-0.02158,-0.94766
 13:48:27.118,eb:33:2e:f9:57:b5, 2085-97-12 00:92:00:2044,0.006,0.044,0.996,0,-0.122,0.061,2.576,-0.093,-142.795,-47.6,-55.4,-24.467,29.49,0.31833,0.0065,-0.02158,-0.94766
 13:48:27.147,eb:33:2e:f9:57:b5, 2085-97-10 00:90:00:2042,0.004,0.045,0.998,0.061,0.061,0.061,2.576,-0.093,-142.789,-47.6,-55.4,-24.467,29.49,0.31833,0.0065,-0.02158,-0.94766
 13:48:27.147,eb:33:2e:f9:57:b5, 2085-97-12 00:94:00:2042,0.006,0.045,0.997,0.183,0,0.061,2.576,-0.099,-142.789,-47.6,-55.4,-24.467,29.49,0.31833,0.0065,-0.02158,-0.94766
 13:48:27.147,eb:33:2e:f9:57:b5, 2085-97-11 00:93:00:2041,0.005,0.046,0.997,0.122,0.061,0.061,2.576,-0.099,-142.784,-47.6,-55.4,-24.467,29.49,0.31833,0.0065,-0.02158,-0.94766
 13:48:27.147,eb:33:2e:f9:57:b5, 2085-97-12 00:96:00:2038,0.004,0.045,0.996,0.061,0.122,0.122,2.576,-0.099,-142.784,-47.6,-55.4,-24.467,29.49,0.31833,0.0065,-0.02158,-0.94766
 13:48:27.178,eb:33:2e:f9:57:b5, 2085-97-11 00:94:00:2039,0.004,0.046,0.994,0,0.183,0.061,2.576,-0.099,-142.778,-47.6,-55.4,-24.467,29.49,0.31894,0.00635,-0.02161,-0.94745
 13:48:27.178,eb:33:2e:f9:57:b5, 2085-97-11 00:95:00:2038,0.004,0.044,0.994,0,0.122,0,2.576,-0.099,-142.778,-47.6,-55.4,-24.467,29.49,0.31894,0.00635,-0.02161,-0.94745
 13:48:27.178,eb:33:2e:f9:57:b5, 2085-97-08 00:92:00:2036,0.002,0.045,0.995,0.061,0.122,0,2.576,-0.099,-142.773,-47.6,-55.4,-24.467,29.49,0.31894,0.00635,-0.02161,-0.94745
 13:48:27.178,eb:33:2e:f9:57:b5, 2085-97-07 00:92:00:2038,0.004,0.044,0.994,0,0.061,-0.122,2.576,-0.099,-142.773,-47.6,-55.4,-24.467,29.49,0.31894,0.00635,-0.02161,-0.94745
 13:48:27.207,eb:33:2e:f9:57:b5, 2085-97-08 00:94:00:2039,0.004,0.045,0.996,0,0.061,-0.183,2.576,-0.099,-142.767,-47.6,-55.4,-24.467,29.49,0.31894,0.00635,-0.02161,-0.94745
 13:48:27.207,eb:33:2e:f9:57:b5, 2085-97-07 00:92:00:2036,0.003,0.046,0.996,0,0.061,-0.122,2.576,-0.104,-142.767,-47.6,-55.4,-24.467,29.49,0.31894,0.00635,-0.02161,-0.94745
 13:48:27.207,eb:33:2e:f9:57:b5, 2085-97-05 00:92:00:2035,0.003,0.045,0.994,0,0,-0.183,2.576,-0.104,-142.762,-47.6,-55.4,-24.467,29.49,0.31894,0.00635,-0.02161,-0.94745
 13:48:27.207,eb:33:2e:f9:57:b5, 2085-97-12 00:91:00:2040,0.005,0.045,0.995,0,-0.061,-0.244,2.576,-0.104,-142.762,-47.6,-55.4,-24.467,29.49,0.31894,0.00635,-0.02161,-0.94745
 13:48:27.267,eb:33:2e:f9:57:b5, 2085-97-13 00:91:00:2043,0.005,0.044,0.997,0.061,0,-0.183,2.576,-0.104,-142.756,-47.6,-55.4,-24.467,29.49,0.31894,0.00635,-0.02161,-0.94745
 13:48:27.267,eb:33:2e:f9:57:b5, 2085-97-09 00:91:00:2042,0.004,0.045,0.997,0.122,0.122,-0.061,2.576,-0.104,-142.756,-47.6,-55.4,-24.467,29.49,0.31894,0.00635,-0.02161,-0.94745
 13:48:27.267,eb:33:2e:f9:57:b5, 2085-97-06 00:89:00:2041,0.003,0.043,0.995,0.122,0.122,0,2.576,-0.104,-142.751,-47.6,-55.4,-24.467,29.49,0.31894,0.00635,-0.02161,-0.94745
 13:48:27.267,eb:33:2e:f9:57:b5, 2085-97-08 00:91:00:2039,0.004,0.044,0.997,0.244,0.122,0.122,2.576,-0.104,-142.751,-47.6,-55.4,-24.467,29.49,0.31894,0.00635,-0.02161,-0.94745
 13:48:27.327,eb:33:2e:f9:57:b5, 2085-97-08 00:90:00:2040,0.004,0.044,0.997,0.244,0.122,0.183,2.576,-0.104,-142.745,-47.6,-55.4,-24.467,29.49,0.31894,0.00635,-0.02161,-0.94745
 13:48:27.328,eb:33:2e:f9:57:b5, 2085-97-09 00:94:00:2039,0.004,0.046,0.997,0.244,0.061,0.244,2.576,-0.104,-142.745,-47.6,-55.4,-24.467,29.49,0.31894,0.00635,-0.02161,-0.94745
 13:48:27.328,eb:33:2e:f9:57:b5, 2085-97-08 00:95:00:2038,0.004,0.046,0.997,0.183,0.061,0.244,2.576,-0.104,-142.74,-47.6,-55.4,-24.467,29.49,0.31894,0.00635,-0.02161,-0.94745
 13:48:27.328,eb:33:2e:f9:57:b5, 2085-97-07 00:94:00:2035,0.003,0.046,0.995,0.061,0.122,0.244,2.576,-0.11,-142.74,-47.6,-55.4,-24.467,29.49,0.31894,0.00635,-0.02161,-0.94745
 13:48:27.328,eb:33:2e:f9:57:b5, 2085-97-14 00:94:00:2035,0.002,0.046,0.995,0.061,0.122,0.244,2.576,-0.11,-142.734,-47.6,-55.4,-24.467,29.49,0.31894,0.00635,-0.02161,-0.94745
 13:48:27.328,eb:33:2e:f9:57:b5, 2085-97-12 00:96:00:2040,0.003,0.044,0.996,0.061,0.061,0.244,2.576,-0.11,-142.734,-47.6,-55.4,-24.467,29.49,0.31894,0.00635,-0.02161,-0.94745
 13:48:27.328,eb:33:2e:f9:57:b5, 2085-97-06 00:93:00:2040,0.003,0.045,0.996,0,0.122,0.244,2.576,-0.11,-142.729,-47.6,-55.4,-24.467,29.49,0.31894,0.00635,-0.02161,-0.94745
 13:48:27.330,eb:33:2e:f9:57:b5, 2085-97-07 00:90:00:2040,0.006,0.045,0.995,0,0.122,0.244,2.576,-0.11,-142.729,-47.6,-55.4,-24.467,29.49,0.31894,0.00635,-0.02161,-0.94745
 13:48:27.387,eb:33:2e:f9:57:b5, 2085-97-09 00:97:00:2043,0.003,0.045,0.999,0,0.244,0.305,2.576,-0.11,-142.723,-47.6,-55.4,-24.467,29.49,0.31894,0.00635,-0.02161,-0.94745
 13:48:27.387,eb:33:2e:f9:57:b5, 2085-97-03 00:92:00:2038,0,0.047,0.995,0,0.305,0.366,2.576,-0.11,-142.723,-47.6,-55.4,-24.467,29.49,0.31894,0.00635,-0.02161,-0.94745
 13:48:27.387,eb:33:2e:f9:57:b5, 2085-97-03 00:93:00:2034,0.002,0.045,0.993,-0.061,0.122,0.305,2.576,-0.11,-142.718,-47.6,-55.4,-24.467,29.49,0.31894,0.00635,-0.02161,-0.94745
 13:48:27.387,eb:33:2e:f9:57:b5, 2085-97-04 00:93:00:2033,0.002,0.046,0.993,0,0,0.244,2.576,-0.11,-142.718,-47.6,-55.4,-24.467,29.49,0.31894,0.00635,-0.02161,-0.94745
 13:48:27.418,eb:33:2e:f9:57:b5, 2085-97-05 00:91:00:2036,0.004,0.045,0.993,-0.061,0,0.244,2.576,-0.11,-142.712,-48.2,-56.1,-23.093,29.49,0.31894,0.00635,-0.02161,-0.94745
 13:48:27.418,eb:33:2e:f9:57:b5, 2085-97-08 00:95:00:2040,0.003,0.045,0.995,0,-0.061,0.183,2.576,-0.11,-142.712,-48.2,-56.1,-23.093,29.49,0.31894,0.00635,-0.02161,-0.94745
 13:48:27.418,eb:33:2e:f9:57:b5, 2085-97-09 00:94:00:2038,0.006,0.046,0.994,-0.122,0,0.122,2.576,-0.11,-142.707,-48.2,-56.1,-23.093,29.49,0.31894,0.00635,-0.02161,-0.94745
 13:48:27.418,eb:33:2e:f9:57:b5, 2085-97-14 00:93:00:2042,0.001,0.047,0.997,0,0,0.061,2.576,-0.115,-142.707,-48.2,-56.1,-23.093,29.49,0.31894,0.00635,-0.02161,-0.94745
 13:48:27.478,eb:33:2e:f9:57:b5, 2085-97-07 00:95:00:2038,0.005,0.044,0.993,0,0,0.061,2.576,-0.115,-142.701,-48.2,-56.1,-23.093,29.49,0.31894,0.00635,-0.02161,-0.94745
 13:48:27.478,eb:33:2e:f9:57:b5, 2085-97-08 00:95:00:2040,0.004,0.046,0.997,0,0,0.061,2.576,-0.115,-142.701,-48.2,-56.1,-23.093,29.49,0.31894,0.00635,-0.02161,-0.94745
 13:48:27.478,eb:33:2e:f9:57:b5, 2085-97-07 00:93:00:2040,0.001,0.046,0.998,0,0,0.122,2.576,-0.115,-142.696,-48.2,-56.1,-23.093,29.49,0.31894,0.00635,-0.02161,-0.94745
 13:48:27.478,eb:33:2e:f9:57:b5, 2085-97-04 00:93:00:2036,0.003,0.045,0.994,-0.061,0.061,0.061,2.576,-0.115,-142.696,-48.2,-56.1,-23.093,29.49,0.31894,0.00635,-0.02161,-0.94745
 13:48:27.506,eb:33:2e:f9:57:b5, 2085-97-07 00:93:00:2037,0.003,0.045,0.996,-0.061,0,0.061,2.576,-0.115,-142.69,-48.2,-56.1,-23.093,29.49,0.3197,0.00623,-0.02164,-0.9472
 13:48:27.506,eb:33:2e:f9:57:b5, 2085-97-04 00:94:00:2036,0.002,0.047,0.995,-0.061,-0.061,0.061,2.576,-0.115,-142.69,-48.2,-56.1,-23.093,29.49,0.3197,0.00623,-0.02164,-0.9472
 13:48:27.506,eb:33:2e:f9:57:b5, 2085-97-08 00:91:00:2037,0.004,0.044,0.995,-0.061,-0.061,0.061,2.576,-0.115,-142.685,-48.2,-56.1,-23.093,29.49,0.3197,0.00623,-0.02164,-0.9472
 13:48:27.506,eb:33:2e:f9:57:b5, 2085-97-04 00:93:00:2035,0.002,0.046,0.995,0,0,0,2.576,-0.115,-142.685,-48.2,-56.1,-23.093,29.49,0.3197,0.00623,-0.02164,-0.9472
 13:48:27.567,eb:33:2e:f9:57:b5, 2085-97-06 00:91:00:2038,0.005,0.044,0.994,0,-0.122,0,2.576,-0.115,-142.679,-48.2,-56.1,-23.093,29.49,0.3197,0.00623,-0.02164,-0.9472
 13:48:27.567,eb:33:2e:f9:57:b5, 2085-97-07 00:93:00:2039,0.003,0.045,0.995,0,0,0,2.576,-0.115,-142.679,-48.2,-56.1,-23.093,29.49,0.3197,0.00623,-0.02164,-0.9472
 13:48:27.567,eb:33:2e:f9:57:b5, 2085-97-06 00:89:00:2038,0.004,0.045,0.996,0,0,0,2.576,-0.115,-142.674,-48.2,-56.1,-23.093,29.49,0.3197,0.00623,-0.02164,-0.9472
 13:48:27.567,eb:33:2e:f9:57:b5, 2085-97-10 00:91:00:2041,0.003,0.044,0.996,0.061,0,0.061,2.576,-0.115,-142.674,-48.2,-56.1,-23.093,29.49,0.3197,0.00623,-0.02164,-0.9472
 13:48:27.570,eb:33:2e:f9:57:b5, 2085-97-04 00:92:00:2039,0.003,0.046,0.996,0.122,0,0,2.576,-0.115,-142.668,-48.2,-56.1,-23.093,29.49,0.3197,0.00623,-0.02164,-0.9472
 13:48:27.570,eb:33:2e:f9:57:b5, 2085-97-05 00:93:00:2040,0.002,0.045,0.996,0.061,-0.061,0.061,2.576,-0.115,-142.668,-48.2,-56.1,-23.093,29.49,0.3197,0.00623,-0.02164,-0.9472
 13:48:27.570,eb:33:2e:f9:57:b5, 2085-97-05 00:91:00:2040,0.002,0.045,0.996,0.122,-0.061,0.061,2.576,-0.121,-142.663,-48.2,-56.1,-23.093,29.49,0.3197,0.00623,-0.02164,-0.9472
 13:48:27.570,eb:33:2e:f9:57:b5, 2085-97-07 00:94:00:2038,0.003,0.045,0.995,0,-0.183,0.061,2.576,-0.121,-142.663,-48.2,-56.1,-23.093,29.49,0.3197,0.00623,-0.02164,-0.9472
 13:48:27.627,eb:33:2e:f9:57:b5, 2085-97-07 00:93:00:2038,0.003,0.046,0.994,0,-0.183,0.061,2.576,-0.121,-142.663,-48.2,-56.1,-23.093,29.49,0.3197,0.00623,-0.02164,-0.9472
 13:48:27.627,eb:33:2e:f9:57:b5, 2085-97-08 00:95:00:2037,0.003,0.045,0.994,0,-0.183,0,2.576,-0.121,-142.663,-48.2,-56.1,-23.093,29.49,0.3197,0.00623,-0.02164,-0.9472
 13:48:27.628,eb:33:2e:f9:57:b5, 2085-97-08 00:93:00:2038,0.005,0.046,0.995,0,-0.183,0,2.576,-0.121,-142.657,-48.2,-56.1,-23.093,29.49,0.3197,0.00623,-0.02164,-0.9472
 13:48:27.628,eb:33:2e:f9:57:b5, 2085-97-11 00:94:00:2042,0.004,0.046,0.997,0,-0.122,0,2.576,-0.121,-142.657,-48.2,-56.1,-23.093,29.49,0.3197,0.00623,-0.02164,-0.9472
 13:48:27.657,eb:33:2e:f9:57:b5, 2085-97-10 00:91:00:2042,0.005,0.046,0.998,0,0,-0.061,2.576,-0.121,-142.652,-48.2,-56.1,-23.093,29.49,0.3197,0.00623,-0.02164,-0.9472
 13:48:27.657,eb:33:2e:f9:57:b5, 2085-97-08 00:95:00:2041,0.002,0.044,0.997,0.061,0,0,2.576,-0.121,-142.652,-48.2,-56.1,-23.093,29.49,0.3197,0.00623,-0.02164,-0.9472
 13:48:27.657,eb:33:2e:f9:57:b5, 2085-97-04 00:94:00:2038,0.002,0.046,0.996,0.061,0,0,2.576,-0.121,-142.646,-48.2,-56.1,-23.093,29.49,0.3197,0.00623,-0.02164,-0.9472
 13:48:27.657,eb:33:2e:f9:57:b5, 2085-97-06 00:92:00:2039,0.004,0.045,0.995,0.122,0,0,2.576,-0.121,-142.646,-48.2,-56.1,-23.093,29.49,0.3197,0.00623,-0.02164,-0.9472
 13:48:27.718,eb:33:2e:f9:57:b5, 2085-97-06 00:93:00:2037,0.002,0.045,0.995,0.122,-0.061,-0.061,2.576,-0.121,-142.641,-48.2,-56.1,-23.093,29.49,0.3197,0.00623,-0.02164,-0.9472
 13:48:27.719,eb:33:2e:f9:57:b5, 2085-97-06 00:91:00:2039,0.005,0.045,0.994,0.122,-0.122,-0.122,2.576,-0.121,-142.641,-48.2,-56.1,-23.093,29.49,0.3197,0.00623,-0.02164,-0.9472
 13:48:27.719,eb:33:2e:f9:57:b5, 2085-113-58 00:195:226:-8610,0.005,0.046,0.998,0.122,-0.122,-0.061,2.576,-0.121,-142.635,-48.2,-56.1,-23.093,29.49,0.3197,0.00623,-0.02164,-0.9472
 13:48:27.719,eb:33:2e:f9:57:b5, 2085-97-08 00:95:00:2040,0.003,0.046,0.997,0.061,-0.061,-0.122,2.576,-0.121,-142.635,-48.2,-56.1,-23.093,29.49,0.3197,0.00623,-0.02164,-0.9472
 13:48:27.719,eb:33:2e:f9:57:b5, 2085-97-06 00:94:00:2040,0.005,0.045,0.996,0.122,-0.061,-0.122,2.576,-0.121,-142.635,-48.2,-56.1,-23.093,29.49,0.3197,0.00623,-0.02164,-0.9472
 13:48:27.747,eb:33:2e:f9:57:b5, 2085-97-11 00:95:00:2041,0.005,0.046,0.997,0,-0.061,-0.061,2.576,-0.126,-142.63,-49.9,-57.4,-21.567,29.49,0.3197,0.00623,-0.02164,-0.9472
 13:48:27.747,eb:33:2e:f9:57:b5, 2085-97-09 00:89:00:2042,0.005,0.045,0.997,0,0,-0.061,2.576,-0.126,-142.63,-49.9,-57.4,-21.567,29.49,0.3197,0.00623,-0.02164,-0.9472
 13:48:27.747,eb:33:2e:f9:57:b5, 2085-97-11 00:94:00:2042,0.005,0.043,0.998,0.183,0,0,2.576,-0.126,-142.625,-49.9,-57.4,-21.567,29.49,0.3197,0.00623,-0.02164,-0.9472
 13:48:27.747,eb:33:2e:f9:57:b5, 2085-97-08 00:93:00:2039,0.003,0.046,0.996,0.183,0.061,0.061,2.576,-0.126,-142.625,-49.9,-57.4,-21.567,29.49,0.3197,0.00623,-0.02164,-0.9472
 13:48:27.778,eb:33:2e:f9:57:b5, 2085-97-07 00:92:00:2040,0.005,0.045,0.996,0.183,0.122,0.061,2.576,-0.126,-142.619,-49.9,-57.4,-21.567,29.49,0.3197,0.00623,-0.02164,-0.9472
 13:48:27.778,eb:33:2e:f9:57:b5, 2085-97-08 00:96:00:2041,0.003,0.046,0.997,0.244,0.122,0.122,2.576,-0.126,-142.619,-49.9,-57.4,-21.567,29.49,0.3197,0.00623,-0.02164,-0.9472
 13:48:27.778,eb:33:2e:f9:57:b5, 2085-97-09 00:92:00:2040,0.005,0.045,0.995,0.183,0.183,0.183,2.576,-0.126,-142.614,-49.9,-57.4,-21.567,29.49,0.3197,0.00623,-0.02164,-0.9472
 13:48:27.778,eb:33:2e:f9:57:b5, 2085-97-10 00:95:00:2039,0.002,0.046,0.996,0.122,0.183,0.244,2.576,-0.126,-142.614,-49.9,-57.4,-21.567,29.49,0.3197,0.00623,-0.02164,-0.9472
 13:48:27.837,eb:33:2e:f9:57:b5, 2085-97-04 00:93:00:2037,0.003,0.046,0.995,0,0.244,0.183,2.576,-0.126,-142.608,-49.9,-57.4,-21.567,29.49,0.3204,0.00613,-0.02167,-0.94696
 13:48:27.837,eb:33:2e:f9:57:b5, 2085-97-06 00:92:00:2040,0.003,0.046,0.996,0,0.183,0.244,2.576,-0.126,-142.608,-49.9,-57.4,-21.567,29.49,0.3204,0.00613,-0.02167,-0.94696
 13:48:27.837,eb:33:2e:f9:57:b5, 2085-97-05 00:96:00:2036,0.002,0.046,0.996,0,0.244,0.183,2.576,-0.126,-142.603,-49.9,-57.4,-21.567,29.49,0.3204,0.00613,-0.02167,-0.94696
 13:48:27.837,eb:33:2e:f9:57:b5, 2085-97-02 00:93:00:2037,0.003,0.046,0.994,0,0.183,0.183,2.576,-0.126,-142.603,-49.9,-57.4,-21.567,29.49,0.3204,0.00613,-0.02167,-0.94696
 13:48:27.867,eb:33:2e:f9:57:b5, 2085-97-04 00:94:00:2039,0.001,0.045,0.996,0.061,0.122,0.122,2.576,-0.126,-142.597,-49.9,-57.4,-21.567,29.49,0.3204,0.00613,-0.02167,-0.94696
 13:48:27.867,eb:33:2e:f9:57:b5, 2085-97-12 00:92:00:2045,0.006,0.045,0.996,0.122,0.061,0.183,2.576,-0.132,-142.597,-49.9,-57.4,-21.567,29.49,0.3204,0.00613,-0.02167,-0.94696
 13:48:27.867,eb:33:2e:f9:57:b5, 2085-97-08 00:93:00:2042,0.003,0.044,0.999,0.122,0.305,0.366,2.576,-0.132,-142.592,-49.9,-57.4,-21.567,29.49,0.3204,0.00613,-0.02167,-0.94696
 13:48:27.867,eb:33:2e:f9:57:b5, 2085-97-05 00:92:00:2040,0.006,0.045,0.996,0.183,0.305,0.427,2.576,-0.132,-142.592,-49.9,-57.4,-21.567,29.49,0.3204,0.00613,-0.02167,-0.94696
 13:48:27.897,eb:33:2e:f9:57:b5, 2085-97-11 00:97:00:2041,0.002,0.046,0.998,0.183,0.305,0.488,2.576,-0.132,-142.592,-49.9,-57.4,-21.567,29.49,0.3204,0.00613,-0.02167,-0.94696
 13:48:27.897,eb:33:2e:f9:57:b5, 2085-97-07 00:97:00:2039,0.004,0.046,0.996,0.183,0.366,0.488,2.576,-0.132,-142.592,-49.9,-57.4,-21.567,29.49,0.3204,0.00613,-0.02167,-0.94696
 13:48:27.897,eb:33:2e:f9:57:b5, 2085-97-07 00:95:00:2038,0.002,0.047,0.995,0.061,0.366,0.488,2.576,-0.132,-142.586,-49.9,-57.4,-21.567,29.49,0.3204,0.00613,-0.02167,-0.94696
 13:48:27.897,eb:33:2e:f9:57:b5, 2085-97-02 00:95:00:2036,0.001,0.047,0.994,0.061,0.427,0.427,2.582,-0.132,-142.586,-49.9,-57.4,-21.567,29.49,0.3204,0.00613,-0.02167,-0.94696
 13:48:27.958,eb:33:2e:f9:57:b5, 2085-97-05 00:96:00:2038,0.002,0.046,0.994,0.061,0.244,0.427,2.576,-0.132,-142.581,-49.9,-57.4,-21.567,29.49,0.3204,0.00613,-0.02167,-0.94696
 13:48:27.958,eb:33:2e:f9:57:b5, 2085-97-05 00:96:00:2035,0.001,0.047,0.995,0.061,0.183,0.366,2.582,-0.132,-142.581,-49.9,-57.4,-21.567,29.49,0.3204,0.00613,-0.02167,-0.94696
 13:48:27.958,eb:33:2e:f9:57:b5, 2085-97-01 00:94:00:2035,0.001,0.046,0.993,0,0.122,0.244,2.582,-0.132,-142.575,-49.9,-57.4,-21.567,29.49,0.3204,0.00613,-0.02167,-0.94696
 13:48:27.958,eb:33:2e:f9:57:b5, 2085-97-02 00:94:00:2037,0.002,0.046,0.994,0.061,0,0.122,2.582,-0.132,-142.575,-49.9,-57.4,-21.567,29.49,0.3204,0.00613,-0.02167,-0.94696
 13:48:27.988,eb:33:2e:f9:57:b5, 2085-97-08 00:95:00:2037,0.004,0.046,0.995,0.061,-0.061,0.122,2.582,-0.132,-142.57,-49.9,-57.4,-21.567,29.49,0.3204,0.00613,-0.02167,-0.94696
 13:48:27.988,eb:33:2e:f9:57:b5, 2085-97-06 00:96:00:2037,0.003,0.047,0.995,0,0,0,2.582,-0.132,-142.57,-49.9,-57.4,-21.567,29.49,0.3204,0.00613,-0.02167,-0.94696
 13:48:27.988,eb:33:2e:f9:57:b5, 2085-97-04 00:97:00:2038,0.002,0.048,0.995,-0.061,0,0,2.582,-0.132,-142.564,-49.9,-57.4,-21.567,29.49,0.3204,0.00613,-0.02167,-0.94696
 13:48:27.988,eb:33:2e:f9:57:b5, 2085-97-06 00:96:00:2037,0.003,0.046,0.995,0,0,0,2.582,-0.132,-142.564,-49.9,-57.4,-21.567,29.49,0.3204,0.00613,-0.02167,-0.94696
 13:48:28.048,eb:33:2e:f9:57:b5, 2085-97-06 00:93:00:2041,0.003,0.047,0.997,0,0.061,-0.122,2.582,-0.132,-142.559,-49.4,-55.8,-23.107,29.49,0.3204,0.00613,-0.02167,-0.94696
 13:48:28.048,eb:33:2e:f9:57:b5, 2085-97-06 00:95:00:2041,0.004,0.046,0.998,-0.061,0.183,-0.061,2.582,-0.132,-142.559,-49.4,-55.8,-23.107,29.49,0.3204,0.00613,-0.02167,-0.94696
 13:48:28.048,eb:33:2e:f9:57:b5, 2085-97-07 00:96:00:2041,0.002,0.047,0.997,-0.122,0.183,0,2.582,-0.132,-142.553,-49.4,-55.8,-23.107,29.49,0.3204,0.00613,-0.02167,-0.94696
 13:48:28.048,eb:33:2e:f9:57:b5, 2085-97-02 00:96:00:2037,0.001,0.046,0.996,-0.122,0.244,-0.061,2.582,-0.132,-142.553,-49.4,-55.8,-23.107,29.49,0.3204,0.00613,-0.02167,-0.94696
 13:48:28.078,eb:33:2e:f9:57:b5, 2085-97-03 00:94:00:2038,0.003,0.046,0.994,-0.122,0.183,-0.061,2.582,-0.132,-142.548,-49.4,-55.8,-23.107,29.49,0.3204,0.00613,-0.02167,-0.94696
 13:48:28.078,eb:33:2e:f9:57:b5, 2085-97-04 00:95:00:2036,0.001,0.046,0.995,-0.061,0.061,-0.122,2.582,-0.132,-142.548,-49.4,-55.8,-23.107,29.49,0.3204,0.00613,-0.02167,-0.94696
 13:48:28.078,eb:33:2e:f9:57:b5, 2085-97-03 00:92:00:2035,0.002,0.046,0.994,0,0,-0.122,2.582,-0.132,-142.542,-49.4,-55.8,-23.107,29.49,0.3204,0.00613,-0.02167,-0.94696
 13:48:28.078,eb:33:2e:f9:57:b5, 2085-97-04 00:95:00:2039,0.002,0.045,0.995,-0.061,-0.061,-0.061,2.582,-0.132,-142.542,-49.4,-55.8,-23.107,29.49,0.3204,0.00613,-0.02167,-0.94696
 13:48:28.108,eb:33:2e:f9:57:b5, 2085-97-05 00:91:00:2041,0.002,0.045,0.996,-0.061,0,-0.061,2.582,-0.137,-142.542,-49.4,-55.8,-23.107,29.49,0.32098,0.0061,-0.02173,-0.94678
 13:48:28.108,eb:33:2e:f9:57:b5, 2085-97-05 00:96:00:2040,0.002,0.046,0.997,0,0,0,2.582,-0.137,-142.542,-49.4,-55.8,-23.107,29.49,0.32098,0.0061,-0.02173,-0.94678
 13:48:28.108,eb:33:2e:f9:57:b5, 2085-97-03 00:95:00:2038,0.002,0.046,0.995,0,0,0,2.582,-0.137,-142.537,-49.4,-55.8,-23.107,29.49,0.32098,0.0061,-0.02173,-0.94678
 13:48:28.108,eb:33:2e:f9:57:b5, 2085-97-09 00:93:00:2043,0.005,0.045,0.996,0,-0.061,-0.061,2.582,-0.137,-142.537,-49.4,-55.8,-23.107,29.49,0.32098,0.0061,-0.02173,-0.94678
 13:48:28.137,eb:33:2e:f9:57:b5, 2085-97-08 00:95:00:2040,0.003,0.046,0.998,0,0.061,0,2.582,-0.137,-142.531,-49.4,-55.8,-23.107,29.49,0.32098,0.0061,-0.02173,-0.94678
 13:48:28.137,eb:33:2e:f9:57:b5, 2085-97-05 00:94:00:2039,0.002,0.046,0.996,0,0.061,0,2.582,-0.137,-142.531,-49.4,-55.8,-23.107,29.49,0.32098,0.0061,-0.02173,-0.94678
 13:48:28.137,eb:33:2e:f9:57:b5, 2085-97-05 00:95:00:2039,0.001,0.046,0.997,0,0,0,2.582,-0.137,-142.526,-49.4,-55.8,-23.107,29.49,0.32098,0.0061,-0.02173,-0.94678
 13:48:28.137,eb:33:2e:f9:57:b5, 2085-97-05 00:94:00:2039,0.002,0.046,0.995,0,0,0,2.582,-0.137,-142.526,-49.4,-55.8,-23.107,29.49,0.32098,0.0061,-0.02173,-0.94678
 13:48:28.227,eb:33:2e:f9:57:b5, 2085-97-03 00:94:00:2038,0.001,0.045,0.995,0,0,0.061,2.582,-0.137,-142.52,-49.4,-55.8,-23.107,29.49,0.32098,0.0061,-0.02173,-0.94678
 13:48:28.227,eb:33:2e:f9:57:b5, 2085-97-04 00:94:00:2038,0.002,0.046,0.995,0,0,0,2.582,-0.137,-142.52,-49.4,-55.8,-23.107,29.49,0.32098,0.0061,-0.02173,-0.94678
 13:48:28.227,eb:33:2e:f9:57:b5, 2085-97-06 00:93:00:2039,0.003,0.046,0.995,0,-0.061,0,2.582,-0.137,-142.515,-49.4,-55.8,-23.107,29.49,0.32098,0.0061,-0.02173,-0.94678
 13:48:28.227,eb:33:2e:f9:57:b5, 2085-97-08 00:92:00:2043,0.002,0.044,0.998,0.061,0,0.122,2.582,-0.137,-142.515,-49.4,-55.8,-23.107,29.49,0.32098,0.0061,-0.02173,-0.94678
 13:48:28.231,eb:33:2e:f9:57:b5, 2085-97-00 00:94:00:2037,0,0.046,0.996,0,0,0.122,2.582,-0.137,-142.509,-49.4,-55.8,-23.107,29.49,0.32098,0.0061,-0.02173,-0.94678
 13:48:28.231,eb:33:2e:f9:57:b5, 2085-97-01 00:92:00:2038,0.002,0.045,0.995,0,-0.122,0.122,2.582,-0.137,-142.509,-49.4,-55.8,-23.107,29.49,0.32098,0.0061,-0.02173,-0.94678
 13:48:28.231,eb:33:2e:f9:57:b5, 2085-97-03 00:93:00:2037,0.002,0.045,0.995,0.061,-0.183,0.122,2.582,-0.137,-142.504,-49.4,-55.8,-23.107,29.49,0.32098,0.0061,-0.02173,-0.94678
 13:48:28.231,eb:33:2e:f9:57:b5, 2085-97-04 00:93:00:2039,0.002,0.045,0.995,0.061,-0.183,0.183,2.582,-0.137,-142.504,-49.4,-55.8,-23.107,29.49,0.32098,0.0061,-0.02173,-0.94678
 13:48:28.258,eb:33:2e:f9:57:b5, 2085-97-04 00:95:00:2038,0.001,0.046,0.996,0,-0.122,0.244,2.582,-0.137,-142.498,-49.4,-55.8,-23.107,29.49,0.32098,0.0061,-0.02173,-0.94678
 13:48:28.258,eb:33:2e:f9:57:b5, 2085-97-04 00:94:00:2039,0.003,0.046,0.995,0.061,-0.122,0.244,2.582,-0.137,-142.498,-49.4,-55.8,-23.107,29.49,0.32098,0.0061,-0.02173,-0.94678
 13:48:28.258,eb:33:2e:f9:57:b5, 2085-97-05 00:96:00:2036,0.003,0.046,0.996,0.061,-0.122,0.244,2.582,-0.137,-142.498,-49.4,-55.8,-23.107,29.49,0.32098,0.0061,-0.02173,-0.94678
 13:48:28.258,eb:33:2e:f9:57:b5, 2085-97-04 00:95:00:2037,0.001,0.048,0.994,0,-0.061,0.122,2.582,-0.137,-142.498,-49.4,-55.8,-23.107,29.49,0.32098,0.0061,-0.02173,-0.94678
 13:48:28.317,eb:33:2e:f9:57:b5, 2085-97-05 00:94:00:2039,0.003,0.047,0.995,-0.061,-0.061,0.061,2.582,-0.137,-142.493,-49.4,-55.8,-23.107,29.49,0.32098,0.0061,-0.02173,-0.94678
 13:48:28.317,eb:33:2e:f9:57:b5, 2085-113-58 00:89:227:-8355,0.003,0.046,0.997,0,-0.061,0.061,2.582,-0.137,-142.493,-49.4,-55.8,-23.107,29.49,0.32098,0.0061,-0.02173,-0.94678
 13:48:28.317,eb:33:2e:f9:57:b5, 2085-97-06 00:95:00:2040,0.003,0.046,0.996,0,-0.122,0.061,2.582,-0.137,-142.487,-49.4,-55.8,-23.107,29.49,0.32098,0.0061,-0.02173,-0.94678
 13:48:28.317,eb:33:2e:f9:57:b5, 2085-97-05 00:93:00:2039,0.003,0.045,0.996,0,-0.061,0,2.582,-0.137,-142.487,-49.4,-55.8,-23.107,29.49,0.32098,0.0061,-0.02173,-0.94678
 13:48:28.348,eb:33:2e:f9:57:b5, 2085-97-06 00:94:00:2038,0.002,0.047,0.995,-0.061,0,0,2.582,-0.137,-142.482,-48.9,-55.7,-23.7,29.49,0.32098,0.0061,-0.02173,-0.94678
 13:48:28.348,eb:33:2e:f9:57:b5, 2085-97-06 00:93:00:2039,0.002,0.045,0.995,0,0,0.061,2.582,-0.137,-142.482,-48.9,-55.7,-23.7,29.49,0.32098,0.0061,-0.02173,-0.94678
 13:48:28.348,eb:33:2e:f9:57:b5, 2085-97-04 00:96:00:2038,0.002,0.046,0.995,0,0,0,2.582,-0.137,-142.476,-48.9,-55.7,-23.7,29.49,0.32098,0.0061,-0.02173,-0.94678
 13:48:28.348,eb:33:2e:f9:57:b5, 2085-97-01 00:95:00:2035,0.001,0.047,0.994,0,-0.061,0,2.587,-0.137,-142.476,-48.9,-55.7,-23.7,29.49,0.32098,0.0061,-0.02173,-0.94678
 13:48:28.377,eb:33:2e:f9:57:b5, 2085-97-06 00:96:00:2038,0.004,0.046,0.994,0,-0.122,0,2.582,-0.137,-142.471,-48.9,-55.7,-23.7,29.49,0.32098,0.0061,-0.02173,-0.94678
 13:48:28.377,eb:33:2e:f9:57:b5, 2085-97-08 00:96:00:2039,0.001,0.047,0.995,0,-0.122,-0.061,2.587,-0.137,-142.471,-48.9,-55.7,-23.7,29.49,0.32098,0.0061,-0.02173,-0.94678
 13:48:28.377,eb:33:2e:f9:57:b5, 2085-97-03 00:95:00:2032,0.001,0.046,0.994,-0.061,-0.122,-0.061,2.587,-0.137,-142.465,-48.9,-55.7,-23.7,29.49,0.32098,0.0061,-0.02173,-0.94678
 13:48:28.377,eb:33:2e:f9:57:b5, 2085-97-06 00:94:00:2036,0.003,0.046,0.993,-0.061,-0.183,-0.061,2.587,-0.137,-142.465,-48.9,-55.7,-23.7,29.49,0.32098,0.0061,-0.02173,-0.94678
 13:48:28.437,eb:33:2e:f9:57:b5, 2085-97-08 00:95:00:2042,0.004,0.046,0.996,0,-0.183,-0.122,2.587,-0.137,-142.465,-48.9,-55.7,-23.7,29.49,0.32159,0.00607,-0.02176,-0.94656
 13:48:28.437,eb:33:2e:f9:57:b5, 2085-97-08 00:94:00:2042,0.003,0.046,0.998,0,-0.183,-0.061,2.587,-0.137,-142.465,-48.9,-55.7,-23.7,29.49,0.32159,0.00607,-0.02176,-0.94656
 13:48:28.437,eb:33:2e:f9:57:b5, 2085-97-04 00:96:00:2040,0.001,0.045,0.996,0,-0.122,0,2.587,-0.137,-142.46,-48.9,-55.7,-23.7,29.49,0.32159,0.00607,-0.02176,-0.94656
 13:48:28.437,eb:33:2e:f9:57:b5, 2085-97-04 00:93:00:2039,0.004,0.047,0.995,-0.061,-0.122,0,2.587,-0.137,-142.46,-48.9,-55.7,-23.7,29.49,0.32159,0.00607,-0.02176,-0.94656
 13:48:28.497,eb:33:2e:f9:57:b5, 2085-97-08 00:97:00:2041,0.003,0.046,0.996,-0.061,-0.122,0,2.587,-0.137,-142.454,-48.9,-55.7,-23.7,29.49,0.32159,0.00607,-0.02176,-0.94656
 13:48:28.497,eb:33:2e:f9:57:b5, 2085-97-04 00:94:00:2036,0.001,0.046,0.996,-0.061,-0.061,0,2.587,-0.143,-142.454,-48.9,-55.7,-23.7,29.49,0.32159,0.00607,-0.02176,-0.94656
 13:48:28.497,eb:33:2e:f9:57:b5, 2085-97-02 00:93:00:2035,0.001,0.045,0.994,-0.122,-0.183,0,2.587,-0.143,-142.449,-48.9,-55.7,-23.7,29.49,0.32159,0.00607,-0.02176,-0.94656
 13:48:28.497,eb:33:2e:f9:57:b5, 2085-97-07 00:94:00:2037,0.003,0.046,0.994,-0.122,-0.183,0,2.587,-0.143,-142.449,-48.9,-55.7,-23.7,29.49,0.32159,0.00607,-0.02176,-0.94656
 13:48:28.500,eb:33:2e:f9:57:b5, 2085-97-07 00:94:00:2040,0.004,0.046,0.995,-0.122,-0.183,0,2.587,-0.143,-142.443,-48.9,-55.7,-23.7,29.49,0.32159,0.00607,-0.02176,-0.94656
 13:48:28.500,eb:33:2e:f9:57:b5, 2085-97-07 00:94:00:2041,0.004,0.046,0.996,-0.122,-0.183,0,2.587,-0.143,-142.443,-48.9,-55.7,-23.7,29.49,0.32159,0.00607,-0.02176,-0.94656
 13:48:28.500,eb:33:2e:f9:57:b5, 2085-97-05 00:92:00:2040,0.004,0.045,0.996,-0.122,-0.122,0,2.587,-0.143,-142.438,-48.9,-55.7,-23.7,29.49,0.32159,0.00607,-0.02176,-0.94656
 13:48:28.500,eb:33:2e:f9:57:b5, 2085-97-10 00:93:00:2043,0.004,0.045,0.997,-0.061,-0.122,0,2.587,-0.143,-142.438,-48.9,-55.7,-23.7,29.49,0.32159,0.00607,-0.02176,-0.94656
 13:48:28.557,eb:33:2e:f9:57:b5, 2085-97-04 00:91:00:2039,0.002,0.045,0.998,-0.061,-0.061,0.061,2.587,-0.143,-142.432,-48.9,-55.7,-23.7,29.49,0.32159,0.00607,-0.02176,-0.94656
 13:48:28.557,eb:33:2e:f9:57:b5, 2085-97-06 00:95:00:2039,0.004,0.046,0.996,0,-0.061,0,2.587,-0.143,-142.432,-48.9,-55.7,-23.7,29.49,0.32159,0.00607,-0.02176,-0.94656
 13:48:28.557,eb:33:2e:f9:57:b5, 2085-97-07 00:94:00:2041,0.003,0.046,0.996,0,0,0,2.587,-0.143,-142.432,-48.9,-55.7,-23.7,29.49,0.32159,0.00607,-0.02176,-0.94656
 13:48:28.557,eb:33:2e:f9:57:b5, 2085-97-06 00:93:00:2042,0.004,0.046,0.997,0,0,0.061,2.587,-0.143,-142.432,-48.9,-55.7,-23.7,29.49,0.32159,0.00607,-0.02176,-0.94656
 13:48:28.587,eb:33:2e:f9:57:b5, 2085-97-08 00:94:00:2041,0.003,0.045,0.997,0,0,0.061,2.587,-0.143,-142.427,-48.9,-55.7,-23.7,29.49,0.32159,0.00607,-0.02176,-0.94656
 13:48:28.587,eb:33:2e:f9:57:b5, 2085-97-04 00:95:00:2037,0.002,0.047,0.996,0,0.061,0.061,2.587,-0.143,-142.427,-48.9,-55.7,-23.7,29.49,0.32159,0.00607,-0.02176,-0.94656
 13:48:28.587,eb:33:2e:f9:57:b5, 2085-97-05 00:95:00:2038,0.002,0.045,0.995,0,0,0,2.587,-0.143,-142.421,-48.9,-55.7,-23.7,29.49,0.32159,0.00607,-0.02176,-0.94656
 13:48:28.587,eb:33:2e:f9:57:b5, 2085-97-07 00:94:00:2038,0.002,0.046,0.994,0,0.061,0.061,2.587,-0.143,-142.421,-48.9,-55.7,-23.7,29.49,0.32159,0.00607,-0.02176,-0.94656
 13:48:28.617,eb:33:2e:f9:57:b5, 2085-97-06 00:96:00:2038,0.003,0.046,0.995,0,0.061,0.061,2.587,-0.143,-142.416,-49.1,-56.9,-22.94,29.49,0.32159,0.00607,-0.02176,-0.94656
 13:48:28.617,eb:33:2e:f9:57:b5, 2085-97-09 00:95:00:2039,0.003,0.046,0.996,0,0,0.061,2.587,-0.143,-142.416,-49.1,-56.9,-22.94,29.49,0.32159,0.00607,-0.02176,-0.94656
 13:48:28.617,eb:33:2e:f9:57:b5, 2085-97-03 00:94:00:2038,0.002,0.046,0.995,0,0.061,0.061,2.587,-0.143,-142.41,-49.1,-56.9,-22.94,29.49,0.32159,0.00607,-0.02176,-0.94656
 13:48:28.617,eb:33:2e:f9:57:b5, 2085-97-02 00:93:00:2036,0.001,0.045,0.995,0,0.061,0,2.587,-0.143,-142.41,-49.1,-56.9,-22.94,29.49,0.32159,0.00607,-0.02176,-0.94656
 13:48:28.708,eb:33:2e:f9:57:b5, 2085-97-04 00:92:00:2038,0.002,0.044,0.994,0,0,0.061,2.587,-0.143,-142.405,-49.1,-56.9,-22.94,29.49,0.32159,0.00607,-0.02176,-0.94656
 13:48:28.708,eb:33:2e:f9:57:b5, 2085-97-09 00:92:00:2043,0.004,0.045,0.997,0.061,0,0,2.587,-0.143,-142.405,-49.1,-56.9,-22.94,29.49,0.32159,0.00607,-0.02176,-0.94656
 13:48:28.708,eb:33:2e:f9:57:b5, 2085-97-08 00:95:00:2041,0.004,0.046,0.997,0.061,0,0.061,2.587,-0.143,-142.405,-49.1,-56.9,-22.94,29.49,0.32159,0.00607,-0.02176,-0.94656
 13:48:28.708,eb:33:2e:f9:57:b5, 2085-97-06 00:94:00:2039,0.002,0.045,0.996,0,0.061,0.122,2.587,-0.143,-142.405,-49.1,-56.9,-22.94,29.49,0.32159,0.00607,-0.02176,-0.94656
 13:48:28.710,eb:33:2e:f9:57:b5, 2085-97-04 00:96:00:2038,0.002,0.046,0.995,0,0.122,0.061,2.587,-0.143,-142.399,-49.1,-56.9,-22.94,29.49,0.32211,0.00604,-0.02179,-0.94638
 13:48:28.710,eb:33:2e:f9:57:b5, 2085-97-05 00:93:00:2039,0.002,0.046,0.996,0,0.122,0,2.587,-0.143,-142.399,-49.1,-56.9,-22.94,29.49,0.32211,0.00604,-0.02179,-0.94638
 13:48:28.710,eb:33:2e:f9:57:b5, 2085-97-04 00:93:00:2037,0.002,0.046,0.995,0,0.061,0.061,2.587,-0.143,-142.394,-49.1,-56.9,-22.94,29.49,0.32211,0.00604,-0.02179,-0.94638
 13:48:28.710,eb:33:2e:f9:57:b5, 2085-97-03 00:97:00:2037,0.002,0.046,0.995,0,0,0.061,2.587,-0.143,-142.394,-49.1,-56.9,-22.94,29.49,0.32211,0.00604,-0.02179,-0.94638
 13:48:28.737,eb:33:2e:f9:57:b5, 2085-97-06 00:93:00:2040,0.002,0.047,0.995,-0.061,0,0,2.587,-0.148,-142.388,-49.1,-56.9,-22.94,29.49,0.32211,0.00604,-0.02179,-0.94638
 13:48:28.737,eb:33:2e:f9:57:b5, 2085-97-04 00:92:00:2039,0.002,0.044,0.996,-0.061,0.061,0,2.587,-0.148,-142.388,-49.1,-56.9,-22.94,29.49,0.32211,0.00604,-0.02179,-0.94638
 13:48:28.737,eb:33:2e:f9:57:b5, 2085-97-04 00:92:00:2039,0,0.044,0.996,0,0.061,0.061,2.587,-0.148,-142.383,-49.1,-56.9,-22.94,29.49,0.32211,0.00604,-0.02179,-0.94638
 13:48:28.737,eb:33:2e:f9:57:b5, 2085-97-00 00:96:00:2034,0,0.046,0.995,0,0,0.061,2.587,-0.148,-142.383,-49.1,-56.9,-22.94,29.49,0.32211,0.00604,-0.02179,-0.94638
 13:48:28.797,eb:33:2e:f9:57:b5, 2085-97-02 00:94:00:2034,0.001,0.046,0.993,0,-0.061,0,2.587,-0.148,-142.383,-49.1,-56.9,-22.94,29.49,0.32211,0.00604,-0.02179,-0.94638
 13:48:28.797,eb:33:2e:f9:57:b5, 2085-97-02 00:96:00:2034,0.001,0.046,0.994,0,-0.061,0,2.587,-0.148,-142.383,-49.1,-56.9,-22.94,29.49,0.32211,0.00604,-0.02179,-0.94638
 13:48:28.797,eb:33:2e:f9:57:b5, 2085-97-05 00:94:00:2038,0.004,0.046,0.994,0,-0.183,-0.122,2.587,-0.148,-142.377,-49.1,-56.9,-22.94,29.49,0.32211,0.00604,-0.02179,-0.94638
 13:48:28.797,eb:33:2e:f9:57:b5, 2085-97-09 00:96:00:2041,0.004,0.046,0.996,0,-0.183,-0.061,2.587,-0.148,-142.377,-49.1,-56.9,-22.94,29.49,0.32211,0.00604,-0.02179,-0.94638
 13:48:28.828,eb:33:2e:f9:57:b5, 2085-97-07 00:93:00:2037,0.004,0.047,0.996,-0.061,-0.122,-0.122,2.587,-0.148,-142.372,-49.1,-56.9,-22.94,29.49,0.32211,0.00604,-0.02179,-0.94638
 13:48:28.828,eb:33:2e:f9:57:b5, 2085-97-05 00:94:00:2040,0.002,0.046,0.997,0,0,-0.122,2.587,-0.148,-142.372,-49.1,-56.9,-22.94,29.49,0.32211,0.00604,-0.02179,-0.94638
 13:48:28.828,eb:33:2e:f9:57:b5, 2085-97-06 00:90:00:2042,0.004,0.045,0.997,0,-0.061,-0.122,2.587,-0.148,-142.366,-49.1,-56.9,-22.94,29.49,0.32211,0.00604,-0.02179,-0.94638
 13:48:28.829,eb:33:2e:f9:57:b5, 2085-97-07 00:91:00:2042,0.001,0.045,0.997,0,-0.061,-0.122,2.587,-0.148,-142.366,-49.1,-56.9,-22.94,29.49,0.32211,0.00604,-0.02179,-0.94638
 13:48:28.858,eb:33:2e:f9:57:b5, 2085-97-04 00:92:00:2040,0.003,0.045,0.997,0,-0.061,0,2.587,-0.148,-142.361,-49.1,-56.9,-22.94,29.49,0.32211,0.00604,-0.02179,-0.94638
 13:48:28.858,eb:33:2e:f9:57:b5, 2085-97-04 00:94:00:2039,0.001,0.046,0.996,0,-0.122,0,2.587,-0.148,-142.361,-49.1,-56.9,-22.94,29.49,0.32211,0.00604,-0.02179,-0.94638
 13:48:28.858,eb:33:2e:f9:57:b5, 2085-97-05 00:93:00:2041,0.003,0.044,0.995,0,-0.122,0,2.587,-0.148,-142.355,-49.1,-56.9,-22.94,29.49,0.32211,0.00604,-0.02179,-0.94638
 13:48:28.858,eb:33:2e:f9:57:b5, 2085-97-08 00:95:00:2041,0.002,0.047,0.997,0.061,-0.061,0.061,2.587,-0.148,-142.355,-49.1,-56.9,-22.94,29.49,0.32211,0.00604,-0.02179,-0.94638
 13:48:28.918,eb:33:2e:f9:57:b5, 2085-97-00 00:92:00:2037,0.005,0.045,0.996,0,-0.061,0.061,2.587,-0.148,-142.355,-49.1,-56.9,-22.94,29.49,0.32211,0.00604,-0.02179,-0.94638
 13:48:28.918,eb:33:2e:f9:57:b5, 2085-97-17 00:97:00:2048,0.004,0.048,0.997,0,-0.122,0.061,2.587,-0.148,-142.355,-49.1,-56.9,-22.94,29.49,0.32211,0.00604,-0.02179,-0.94638
 13:48:28.918,eb:33:2e:f9:57:b5, 2085-97-00 00:92:00:2034,0.002,0.045,0.996,-0.061,0.122,0.061,2.587,-0.148,-142.35,-49.1,-56.9,-22.94,29.49,0.32211,0.00604,-0.02179,-0.94638
 13:48:28.918,eb:33:2e:f9:57:b5, 2085-97-07 00:95:00:2039,0.003,0.046,0.995,-0.061,0,0,2.587,-0.148,-142.35,-49.1,-56.9,-22.94,29.49,0.32211,0.00604,-0.02179,-0.94638
 13:48:28.978,eb:33:2e:f9:57:b5, 2085-97-07 00:91:00:2041,0.003,0.044,0.997,0,0.061,0,2.587,-0.148,-142.344,-49.9,-57.8,-25.973,29.49,0.32211,0.00604,-0.02179,-0.94638
 13:48:28.978,eb:33:2e:f9:57:b5, 2085-97-04 00:93:00:2039,0.001,0.046,0.998,0,0.061,0,2.587,-0.148,-142.344,-49.9,-57.8,-25.973,29.49,0.32211,0.00604,-0.02179,-0.94638
 13:48:28.978,eb:33:2e:f9:57:b5, 2085-97-04 00:94:00:2037,0.002,0.045,0.995,0,0,0.122,2.587,-0.148,-142.339,-49.9,-57.8,-25.973,29.49,0.32211,0.00604,-0.02179,-0.94638
 13:48:28.978,eb:33:2e:f9:57:b5, 2085-97-06 00:94:00:2039,0.002,0.045,0.995,0,0.061,0.122,2.587,-0.148,-142.339,-49.9,-57.8,-25.973,29.49,0.32211,0.00604,-0.02179,-0.94638
 13:48:29.007,eb:33:2e:f9:57:b5, 2085-97-04 00:94:00:2040,0.003,0.045,0.996,0,0.122,0.122,2.587,-0.148,-142.333,-49.9,-57.8,-25.973,29.49,0.32211,0.00604,-0.02179,-0.94638
 13:48:29.007,eb:33:2e:f9:57:b5, 2085-97-06 00:97:00:2038,0.002,0.047,0.996,0,0.122,0.061,2.587,-0.148,-142.333,-49.9,-57.8,-25.973,29.49,0.32211,0.00604,-0.02179,-0.94638
 13:48:29.007,eb:33:2e:f9:57:b5, 2085-97-04 00:93:00:2039,0.002,0.046,0.995,-0.061,0.183,0.061,2.587,-0.148,-142.333,-49.9,-57.8,-25.973,29.49,0.32211,0.00604,-0.02179,-0.94638
 13:48:29.007,eb:33:2e:f9:57:b5, 2085-97-07 00:93:00:2041,0.003,0.045,0.996,0,0.122,0,2.587,-0.148,-142.333,-49.9,-57.8,-25.973,29.49,0.32211,0.00604,-0.02179,-0.94638
 13:48:29.007,eb:33:2e:f9:57:b5, 2085-97-05 00:89:00:2041,0.004,0.045,0.997,0,0.244,0.061,2.587,-0.148,-142.328,-49.9,-57.8,-25.973,29.49,0.32211,0.00604,-0.02179,-0.94638
 13:48:29.037,eb:33:2e:f9:57:b5, 2085-113-81 00:80:41:198,0.004,0.045,0.998,0.061,0.366,0.183,2.587,-0.148,-142.328,-49.9,-57.8,-25.973,29.49,0.32275,0.00604,-0.02182,-0.94617
 13:48:29.037,eb:33:2e:f9:57:b5, 2085-97-06 00:93:00:2043,0.001,0.045,0.999,0,0.488,0.244,2.587,-0.148,-142.328,-49.9,-57.8,-25.973,29.49,0.32275,0.00604,-0.02182,-0.94617
