Time,Device name,Chip Time(),Acceleration X(g),Acceleration Y(g),Acceleration Z(g),Angular velocity X(°/s),Angular velocity Y(°/s),Angular velocity Z(°/s),Angle X(°),Angle Y(°),Angle Z(°),Magnetic field X(ʯt),Magnetic field Y(ʯt),Magnetic field Z(ʯt),Temperature(℃),Quaternions 0(),Quaternions 1(),Quaternions 2(),Quaternions 3()
 13:41:37.958,eb:33:2e:f9:57:b5, 2085-97-252 255:36:00:2042,-0.001,0.017,0.997,0,-0.122,-0.061,0.945,0.341,-132.039,-51.8,-40.2,-3.46,26.84,0.40561,0.00616,-0.00626,-0.91394
 13:41:37.959,eb:33:2e:f9:57:b5, 2085-97-250 255:35:00:2039,-0.001,0.018,0.997,0,-0.122,-0.061,0.945,0.335,-132.039,-51.8,-40.2,-3.46,26.84,0.40561,0.00616,-0.00626,-0.91394
 13:41:37.959,eb:33:2e:f9:57:b5, 2085-97-254 255:34:00:2039,-0.003,0.017,0.997,-0.061,-0.183,-0.061,0.945,0.335,-132.028,-51.8,-40.2,-3.46,26.84,0.40561,0.00616,-0.00626,-0.91394
 13:41:37.959,eb:33:2e:f9:57:b5, 2085-97-250 255:35:00:2038,-0.002,0.017,0.995,-0.122,-0.183,-0.122,0.945,0.335,-132.028,-51.8,-40.2,-3.46,26.84,0.40561,0.00616,-0.00626,-0.91394
 13:41:37.988,eb:33:2e:f9:57:b5, 2085-97-253 255:32:00:2043,-0.001,0.016,0.997,-0.061,-0.305,-0.061,0.945,0.335,-132.023,-51.8,-40.2,-3.46,26.84,0.4064,0.00607,-0.00635,-0.9136
 13:41:37.988,eb:33:2e:f9:57:b5, 2085-97-253 255:32:00:2044,-0.001,0.016,0.998,-0.061,-0.244,-0.061,0.945,0.335,-132.023,-51.8,-40.2,-3.46,26.84,0.4064,0.00607,-0.00635,-0.9136
 13:41:37.988,eb:33:2e:f9:57:b5, 2085-97-00 00:33:00:2046,0.001,0.016,0.998,0,-0.183,0,0.945,0.335,-132.017,-51.8,-40.2,-3.46,26.84,0.4064,0.00607,-0.00635,-0.9136
 13:41:37.988,eb:33:2e:f9:57:b5, 2085-97-00 00:33:00:2046,0.001,0.017,0.999,0,-0.061,0,0.945,0.335,-132.017,-51.8,-40.2,-3.46,26.84,0.4064,0.00607,-0.00635,-0.9136
 13:41:38.018,eb:33:2e:f9:57:b5, 2085-97-00 00:35:00:2040,-0.001,0.017,0.999,0,0.061,0,0.945,0.335,-132.012,-51.8,-40.2,-3.46,26.84,0.4064,0.00607,-0.00635,-0.9136
 13:41:38.018,eb:33:2e:f9:57:b5, 2085-97-248 255:37:00:2034,-0.004,0.019,0.995,0,0.061,0,0.945,0.33,-132.012,-51.8,-40.2,-3.46,26.84,0.4064,0.00607,-0.00635,-0.9136
 13:41:38.018,eb:33:2e:f9:57:b5, 2085-97-246 255:34:00:2034,-0.003,0.017,0.993,-0.061,-0.061,-0.061,0.945,0.33,-132.001,-51.8,-40.2,-3.46,26.84,0.4064,0.00607,-0.00635,-0.9136
 13:41:38.018,eb:33:2e:f9:57:b5, 2085-97-00 00:35:00:2041,-0.002,0.017,0.994,0,-0.305,-0.061,0.945,0.33,-132.001,-51.8,-40.2,-3.46,26.84,0.4064,0.00607,-0.00635,-0.9136
 13:41:38.076,eb:33:2e:f9:57:b5, 2085-97-252 255:33:00:2039,-0.003,0.016,0.996,0,-0.244,0,0.945,0.33,-131.995,-51.8,-40.2,-3.46,26.84,0.4064,0.00607,-0.00635,-0.9136
 13:41:38.076,eb:33:2e:f9:57:b5, 2085-97-253 255:34:00:2040,-0.002,0.016,0.995,-0.061,-0.305,0,0.945,0.33,-131.995,-51.8,-40.2,-3.46,26.84,0.4064,0.00607,-0.00635,-0.9136
 13:41:38.076,eb:33:2e:f9:57:b5, 2085-97-253 255:33:00:2043,-0.001,0.016,0.998,-0.061,-0.305,0,0.945,0.33,-131.99,-51.8,-40.2,-3.46,26.84,0.4064,0.00607,-0.00635,-0.9136
 13:41:38.076,eb:33:2e:f9:57:b5, 2085-97-00 00:33:00:2042,0,0.017,0.998,-0.061,-0.244,0,0.945,0.33,-131.99,-51.8,-40.2,-3.46,26.84,0.4064,0.00607,-0.00635,-0.9136
 13:41:38.106,eb:33:2e:f9:57:b5, 2085-97-01 00:36:00:2042,0,0.017,0.997,0,-0.183,0.061,0.945,0.33,-131.984,-51.8,-40.2,-3.46,26.84,0.4064,0.00607,-0.00635,-0.9136
 13:41:38.106,eb:33:2e:f9:57:b5, 2085-97-01 00:33:00:2042,0.001,0.017,0.997,-0.061,-0.122,0.061,0.945,0.324,-131.984,-51.8,-40.2,-3.46,26.84,0.4064,0.00607,-0.00635,-0.9136
 13:41:38.106,eb:33:2e:f9:57:b5, 2085-97-01 00:35:00:2043,0,0.016,0.998,-0.061,0,0,0.945,0.324,-131.973,-51.8,-40.2,-3.46,26.84,0.4064,0.00607,-0.00635,-0.9136
 13:41:38.107,eb:33:2e:f9:57:b5, 2085-97-254 255:34:00:2042,0,0.018,0.998,0,0,0,0.95,0.324,-131.973,-51.8,-40.2,-3.46,26.84,0.4064,0.00607,-0.00635,-0.9136
 13:41:38.137,eb:33:2e:f9:57:b5, 2085-97-254 255:36:00:2038,-0.001,0.017,0.996,-0.061,0,0,0.95,0.324,-131.968,-51.8,-40.2,-3.46,26.84,0.4064,0.00607,-0.00635,-0.9136
 13:41:38.137,eb:33:2e:f9:57:b5, 2085-97-250 255:34:00:2038,-0.002,0.017,0.996,-0.061,0,0,0.95,0.324,-131.968,-51.8,-40.2,-3.46,26.84,0.4064,0.00607,-0.00635,-0.9136
 13:41:38.137,eb:33:2e:f9:57:b5, 2085-97-251 255:34:00:2038,-0.001,0.018,0.997,0,-0.122,0,0.95,0.324,-131.962,-51.8,-40.2,-3.46,26.84,0.4064,0.00607,-0.00635,-0.9136
 13:41:38.137,eb:33:2e:f9:57:b5, 2085-97-00 00:33:00:2042,-0.003,0.016,0.997,0,-0.244,0,0.95,0.324,-131.962,-51.8,-40.2,-3.46,26.84,0.4064,0.00607,-0.00635,-0.9136
 13:41:38.227,eb:33:2e:f9:57:b5, 2085-97-253 255:35:00:2040,-0.003,0.016,0.995,0,-0.244,0,0.95,0.324,-131.957,-51.8,-40.2,-3.46,26.84,0.4064,0.00607,-0.00635,-0.9136
 13:41:38.228,eb:33:2e:f9:57:b5, 2085-113-58 00:197:224:-6165,0,0.016,0.995,-0.061,-0.305,0,0.95,0.319,-131.957,-51.8,-40.2,-3.46,26.84,0.4064,0.00607,-0.00635,-0.9136
 13:41:38.228,eb:33:2e:f9:57:b5, 2085-97-253 255:32:00:2040,-0.001,0.017,0.998,0,-0.244,-0.061,0.95,0.319,-131.946,-51.8,-40.2,-3.46,26.84,0.4064,0.00607,-0.00635,-0.9136
 13:41:38.228,eb:33:2e:f9:57:b5, 2085-97-01 00:32:00:2046,0,0.015,0.998,0,-0.244,0,0.95,0.319,-131.946,-51.8,-40.2,-3.46,26.84,0.4064,0.00607,-0.00635,-0.9136
 13:41:38.229,eb:33:2e:f9:57:b5, 2085-97-01 00:34:00:2044,0,0.017,0.999,0.061,-0.061,0,0.95,0.319,-131.94,-51.8,-40.2,-3.46,26.84,0.4064,0.00607,-0.00635,-0.9136
 13:41:38.229,eb:33:2e:f9:57:b5, 2085-97-255 255:35:00:2040,-0.001,0.016,0.997,0,0,0,0.95,0.319,-131.94,-51.8,-40.2,-3.46,26.84,0.4064,0.00607,-0.00635,-0.9136
 13:41:38.229,eb:33:2e:f9:57:b5, 2085-97-253 255:36:00:2036,-0.002,0.018,0.995,0.061,-0.061,0,0.95,0.319,-131.935,-51.8,-40.2,-3.46,26.84,0.4064,0.00607,-0.00635,-0.9136
 13:41:38.229,eb:33:2e:f9:57:b5, 2085-97-251 255:33:00:2039,-0.002,0.017,0.995,0,-0.122,0,0.95,0.319,-131.935,-51.8,-40.2,-3.46,26.84,0.4064,0.00607,-0.00635,-0.9136
 13:41:38.258,eb:33:2e:f9:57:b5, 2085-97-253 255:34:00:2040,0,0.016,0.996,0,-0.183,0,0.95,0.319,-131.929,-53.3,-41.1,-1.107,26.84,0.4064,0.00607,-0.00635,-0.9136
 13:41:38.258,eb:33:2e:f9:57:b5, 2085-97-00 00:34:00:2042,0,0.017,0.997,0,-0.183,-0.061,0.95,0.313,-131.929,-53.3,-41.1,-1.107,26.84,0.4064,0.00607,-0.00635,-0.9136
 13:41:38.258,eb:33:2e:f9:57:b5, 2085-97-00 00:34:00:2041,-0.001,0.016,0.997,0,-0.183,0,0.95,0.313,-131.918,-53.3,-41.1,-1.107,26.84,0.4064,0.00607,-0.00635,-0.9136
 13:41:38.258,eb:33:2e:f9:57:b5, 2085-97-253 255:33:00:2039,0,0.016,0.996,0.061,-0.183,0,0.95,0.313,-131.918,-53.3,-41.1,-1.107,26.84,0.4064,0.00607,-0.00635,-0.9136
 13:41:38.317,eb:33:2e:f9:57:b5, 2085-97-255 255:35:00:2042,0,0.017,0.997,0.061,-0.244,0,0.95,0.313,-131.913,-53.3,-41.1,-1.107,26.84,0.4064,0.00607,-0.00635,-0.9136
 13:41:38.317,eb:33:2e:f9:57:b5, 2085-97-255 255:35:00:2043,0,0.017,0.997,0,-0.122,0,0.95,0.313,-131.913,-53.3,-41.1,-1.107,26.84,0.4064,0.00607,-0.00635,-0.9136
 13:41:38.317,eb:33:2e:f9:57:b5, 2085-97-00 00:34:00:2047,0.002,0.017,0.999,0.061,-0.061,0,0.95,0.313,-131.907,-53.3,-41.1,-1.107,26.84,0.4064,0.00607,-0.00635,-0.9136
 13:41:38.317,eb:33:2e:f9:57:b5, 2085-97-03 00:32:00:2047,0,0.016,1,0.061,0.061,0,0.95,0.308,-131.907,-53.3,-41.1,-1.107,26.84,0.4064,0.00607,-0.00635,-0.9136
 13:41:38.346,eb:33:2e:f9:57:b5, 2085-97-253 255:34:00:2042,-0.001,0.016,0.998,0.122,0.244,0.122,0.95,0.308,-131.902,-53.3,-41.1,-1.107,26.84,0.40735,0.00586,-0.00644,-0.91318
 13:41:38.346,eb:33:2e:f9:57:b5, 2085-97-254 255:33:00:2041,-0.001,0.017,0.997,0.122,0.305,0.061,0.95,0.308,-131.902,-53.3,-41.1,-1.107,26.84,0.40735,0.00586,-0.00644,-0.91318
 13:41:38.347,eb:33:2e:f9:57:b5, 2085-97-00 00:34:00:2043,0,0.016,0.997,0.122,0.244,0.122,0.95,0.308,-131.896,-53.3,-41.1,-1.107,26.84,0.40735,0.00586,-0.00644,-0.91318
 13:41:38.347,eb:33:2e:f9:57:b5, 2085-97-252 255:37:00:2038,-0.003,0.018,0.997,0.183,0.305,0.122,0.95,0.308,-131.896,-53.3,-41.1,-1.107,26.84,0.40735,0.00586,-0.00644,-0.91318
 13:41:38.376,eb:33:2e:f9:57:b5, 2085-97-251 255:33:00:2038,-0.001,0.017,0.995,0.122,0.183,0.061,0.95,0.308,-131.885,-53.3,-41.1,-1.107,26.84,0.40735,0.00586,-0.00644,-0.91318
 13:41:38.377,eb:33:2e:f9:57:b5, 2085-97-253 255:32:00:2043,0,0.016,0.997,0.122,0.122,0.122,0.95,0.308,-131.885,-53.3,-41.1,-1.107,26.84,0.40735,0.00586,-0.00644,-0.91318
 13:41:38.377,eb:33:2e:f9:57:b5, 2085-97-254 255:34:00:2043,-0.002,0.017,0.999,0.183,0.244,0.122,0.95,0.308,-131.88,-53.3,-41.1,-1.107,26.84,0.40735,0.00586,-0.00644,-0.91318
 13:41:38.377,eb:33:2e:f9:57:b5, 2085-97-251 255:33:00:2039,0,0.017,0.997,0.183,0.305,0.122,0.95,0.302,-131.88,-53.3,-41.1,-1.107,26.84,0.40735,0.00586,-0.00644,-0.91318
 13:41:38.436,eb:33:2e:f9:57:b5, 2085-97-00 00:30:00:2047,0,0.016,0.998,0.244,0.183,0.183,0.95,0.302,-131.874,-53.3,-41.1,-1.107,26.84,0.40735,0.00586,-0.00644,-0.91318
 13:41:38.436,eb:33:2e:f9:57:b5, 2085-97-00 00:32:00:2047,0,0.015,0.999,0.305,0.427,0.305,0.95,0.302,-131.874,-53.3,-41.1,-1.107,26.84,0.40735,0.00586,-0.00644,-0.91318
 13:41:38.436,eb:33:2e:f9:57:b5, 2085-97-01 00:35:00:2047,0,0.017,1,0.366,0.488,0.366,0.95,0.302,-131.869,-53.3,-41.1,-1.107,26.84,0.40735,0.00586,-0.00644,-0.91318
 13:41:38.436,eb:33:2e:f9:57:b5, 2085-97-255 255:32:00:2045,0,0.018,0.998,0.366,0.61,0.366,0.95,0.302,-131.869,-53.3,-41.1,-1.107,26.84,0.40735,0.00586,-0.00644,-0.91318
 13:41:38.468,eb:33:2e:f9:57:b5, 2085-97-00 00:35:00:2043,0,0.016,0.999,0.488,0.671,0.427,0.95,0.302,-131.863,-53.3,-41.1,-1.107,26.84,0.40735,0.00586,-0.00644,-0.91318
 13:41:38.468,eb:33:2e:f9:57:b5, 2085-97-248 255:37:00:2037,-0.006,0.02,0.997,0.427,0.793,0.427,0.95,0.302,-131.863,-53.3,-41.1,-1.107,26.84,0.40735,0.00586,-0.00644,-0.91318
 13:41:38.468,eb:33:2e:f9:57:b5, 2085-97-246 255:36:00:2034,-0.003,0.018,0.993,0.366,0.61,0.427,0.95,0.302,-131.852,-53.3,-41.1,-1.107,26.84,0.40735,0.00586,-0.00644,-0.91318
 13:41:38.468,eb:33:2e:f9:57:b5, 2085-97-248 255:36:00:2035,-0.003,0.018,0.994,0.305,0.488,0.305,0.95,0.297,-131.852,-53.3,-41.1,-1.107,26.84,0.40735,0.00586,-0.00644,-0.91318
 13:41:38.496,eb:33:2e:f9:57:b5, 2085-97-249 255:32:00:2035,-0.001,0.018,0.996,0.305,0.427,0.244,0.95,0.297,-131.847,-53.3,-41.1,-1.107,26.84,0.40735,0.00586,-0.00644,-0.91318
 13:41:38.496,eb:33:2e:f9:57:b5, 2085-97-247 255:34:00:2033,-0.002,0.019,0.999,0.305,0.427,0.305,0.95,0.297,-131.847,-53.3,-41.1,-1.107,26.84,0.40735,0.00586,-0.00644,-0.91318
 13:41:38.496,eb:33:2e:f9:57:b5, 2085-97-251 255:35:00:2041,-0.002,0.018,1,0.244,0.366,0.244,0.95,0.297,-131.841,-53.3,-41.1,-1.107,26.84,0.40735,0.00586,-0.00644,-0.91318
 13:41:38.496,eb:33:2e:f9:57:b5, 2085-97-00 00:34:00:2046,-0.002,0.015,0.997,0.305,0.366,0.244,0.95,0.297,-131.841,-53.3,-41.1,-1.107,26.84,0.40735,0.00586,-0.00644,-0.91318
 13:41:38.557,eb:33:2e:f9:57:b5, 2085-97-253 255:41:00:2044,-0.002,0.019,0.998,0.244,0.671,0.183,0.95,0.297,-131.836,-53.3,-41.1,-1.107,26.84,0.40735,0.00586,-0.00644,-0.91318
 13:41:38.557,eb:33:2e:f9:57:b5, 2085-97-249 255:33:00:2040,-0.002,0.018,0.998,0.244,0.732,0.122,0.95,0.297,-131.836,-53.3,-41.1,-1.107,26.84,0.40735,0.00586,-0.00644,-0.91318
 13:41:38.557,eb:33:2e:f9:57:b5, 2085-97-00 00:36:00:2045,-0.001,0.017,0.999,0.305,0.671,0.305,0.95,0.297,-131.83,-53.3,-41.1,-1.107,26.84,0.40735,0.00586,-0.00644,-0.91318
 13:41:38.557,eb:33:2e:f9:57:b5, 2085-97-253 255:35:00:2045,-0.002,0.017,0.998,0.366,0.854,0.244,0.95,0.297,-131.83,-53.3,-41.1,-1.107,26.84,0.40735,0.00586,-0.00644,-0.91318
 13:41:38.586,eb:33:2e:f9:57:b5, 2085-97-252 255:39:00:2044,-0.003,0.019,0.998,0.366,0.977,0.366,0.95,0.297,-131.819,-53.3,-41.2,-1.913,26.84,0.40735,0.00586,-0.00644,-0.91318
 13:41:38.586,eb:33:2e:f9:57:b5, 2085-97-251 255:33:00:2044,-0.002,0.018,0.997,0.427,0.977,0.366,0.95,0.291,-131.819,-53.3,-41.2,-1.913,26.84,0.40735,0.00586,-0.00644,-0.91318
 13:41:38.586,eb:33:2e:f9:57:b5, 2085-97-250 255:39:00:2043,-0.004,0.019,0.999,0.427,1.221,0.549,0.95,0.291,-131.814,-53.3,-41.2,-1.913,26.84,0.40735,0.00586,-0.00644,-0.91318
 13:41:38.586,eb:33:2e:f9:57:b5, 2085-97-247 255:35:00:2040,-0.005,0.018,0.996,0.427,1.221,0.488,0.95,0.291,-131.814,-53.3,-41.2,-1.913,26.84,0.40735,0.00586,-0.00644,-0.91318
 13:41:38.617,eb:33:2e:f9:57:b5, 2085-97-245 255:34:00:2044,-0.003,0.018,0.997,0.549,1.16,0.549,0.95,0.291,-131.808,-53.3,-41.2,-1.913,26.84,0.40735,0.00586,-0.00644,-0.91318
 13:41:38.617,eb:33:2e:f9:57:b5, 2085-97-246 255:35:00:2040,-0.006,0.017,0.998,0.549,1.221,0.61,0.95,0.291,-131.808,-53.3,-41.2,-1.913,26.84,0.40735,0.00586,-0.00644,-0.91318
 13:41:38.617,eb:33:2e:f9:57:b5, 2085-97-244 255:36:00:2040,-0.006,0.018,0.997,0.549,1.282,0.61,0.95,0.291,-131.803,-53.3,-41.2,-1.913,26.84,0.40735,0.00586,-0.00644,-0.91318
 13:41:38.617,eb:33:2e:f9:57:b5, 2085-97-248 255:37:00:2042,-0.005,0.018,0.997,0.549,1.099,0.671,0.95,0.291,-131.803,-53.3,-41.2,-1.913,26.84,0.40735,0.00586,-0.00644,-0.91318
 13:41:38.677,eb:33:2e:f9:57:b5, 2085-97-251 255:40:00:2041,-0.004,0.019,0.996,0.488,1.099,0.61,0.95,0.291,-131.797,-53.3,-41.2,-1.913,26.84,0.40823,0.00574,-0.00653,-0.91278
 13:41:38.677,eb:33:2e:f9:57:b5, 2085-97-246 255:38:00:2040,-0.004,0.019,0.996,0.488,1.16,0.549,0.95,0.291,-131.797,-53.3,-41.2,-1.913,26.84,0.40823,0.00574,-0.00653,-0.91278
 13:41:38.677,eb:33:2e:f9:57:b5, 2085-97-251 255:40:00:2044,-0.003,0.018,0.997,0.488,1.16,0.61,0.95,0.291,-131.792,-53.3,-41.2,-1.913,26.84,0.40823,0.00574,-0.00653,-0.91278
 13:41:38.677,eb:33:2e:f9:57:b5, 2085-97-247 255:39:00:2041,-0.006,0.02,0.998,0.427,1.282,0.61,0.95,0.291,-131.792,-53.3,-41.2,-1.913,26.84,0.40823,0.00574,-0.00653,-0.91278
 13:41:38.707,eb:33:2e:f9:57:b5, 2085-97-246 255:40:00:2041,-0.004,0.018,0.996,0.488,1.282,0.671,0.95,0.291,-131.781,-53.3,-41.2,-1.913,26.84,0.40823,0.00574,-0.00653,-0.91278
 13:41:38.707,eb:33:2e:f9:57:b5, 2085-97-243 255:38:00:2040,-0.005,0.02,0.997,0.427,1.343,0.671,0.956,0.291,-131.781,-53.3,-41.2,-1.913,26.84,0.40823,0.00574,-0.00653,-0.91278
 13:41:38.707,eb:33:2e:f9:57:b5, 2085-97-245 255:38:00:2041,-0.006,0.019,0.998,0.427,1.343,0.732,0.956,0.291,-131.776,-53.3,-41.2,-1.913,26.84,0.40823,0.00574,-0.00653,-0.91278
 13:41:38.707,eb:33:2e:f9:57:b5, 2085-97-244 255:39:00:2040,-0.008,0.02,0.998,0.427,1.343,0.732,0.956,0.291,-131.776,-53.3,-41.2,-1.913,26.84,0.40823,0.00574,-0.00653,-0.91278
 13:41:38.767,eb:33:2e:f9:57:b5, 2085-97-240 255:39:00:2040,-0.007,0.019,0.995,0.427,1.282,0.671,0.956,0.291,-131.77,-53.3,-41.2,-1.913,26.84,0.40823,0.00574,-0.00653,-0.91278
 13:41:38.767,eb:33:2e:f9:57:b5, 2085-97-247 255:41:00:2044,-0.005,0.018,0.997,0.427,1.282,0.671,0.956,0.291,-131.77,-53.3,-41.2,-1.913,26.84,0.40823,0.00574,-0.00653,-0.91278
 13:41:38.767,eb:33:2e:f9:57:b5, 2085-97-242 255:42:00:2037,-0.006,0.021,0.996,0.305,1.282,0.671,0.956,0.291,-131.765,-53.3,-41.2,-1.913,26.84,0.40823,0.00574,-0.00653,-0.91278
 13:41:38.767,eb:33:2e:f9:57:b5, 2085-97-241 255:39:00:2039,-0.006,0.02,0.996,0.366,1.343,0.671,0.956,0.291,-131.765,-53.3,-41.2,-1.913,26.84,0.40823,0.00574,-0.00653,-0.91278
 13:41:38.798,eb:33:2e:f9:57:b5, 2085-97-244 255:45:00:2041,-0.007,0.021,0.997,0.244,1.282,0.61,0.956,0.291,-131.759,-53.3,-41.2,-1.913,26.84,0.40823,0.00574,-0.00653,-0.91278
 13:41:38.798,eb:33:2e:f9:57:b5, 2085-97-236 255:40:00:2037,-0.008,0.021,0.996,0.244,1.282,0.61,0.956,0.291,-131.759,-53.3,-41.2,-1.913,26.84,0.40823,0.00574,-0.00653,-0.91278
 13:41:38.798,eb:33:2e:f9:57:b5, 2085-97-240 255:41:00:2039,-0.008,0.019,0.995,0.305,1.038,0.549,0.956,0.291,-131.754,-53.3,-41.2,-1.913,26.84,0.40823,0.00574,-0.00653,-0.91278
 13:41:38.798,eb:33:2e:f9:57:b5, 2085-97-239 255:42:00:2042,-0.008,0.02,0.997,0.183,1.099,0.549,0.956,0.291,-131.754,-53.3,-41.2,-1.913,26.84,0.40823,0.00574,-0.00653,-0.91278
 13:41:38.858,eb:33:2e:f9:57:b5, 2085-97-237 255:39:00:2040,-0.009,0.021,0.997,0.183,1.038,0.488,0.956,0.291,-131.748,-53.3,-41.2,-1.913,26.84,0.40823,0.00574,-0.00653,-0.91278
 13:41:38.858,eb:33:2e:f9:57:b5, 2085-97-241 255:40:00:2044,-0.008,0.019,0.996,0.244,0.977,0.488,0.961,0.291,-131.748,-53.3,-41.2,-1.913,26.84,0.40823,0.00574,-0.00653,-0.91278
 13:41:38.858,eb:33:2e:f9:57:b5, 2085-97-237 255:41:00:2043,-0.009,0.02,0.997,0.244,0.977,0.549,0.961,0.291,-131.737,-53.3,-41.2,-1.913,26.84,0.40823,0.00574,-0.00653,-0.91278
 13:41:38.858,eb:33:2e:f9:57:b5, 2085-113-58 00:46:225:-6135,-0.009,0.02,0.997,0.244,1.099,0.549,0.961,0.297,-131.737,-53.3,-41.2,-1.913,26.84,0.40823,0.00574,-0.00653,-0.91278
 13:41:38.858,eb:33:2e:f9:57:b5, 2085-97-241 255:41:00:2045,-0.008,0.019,0.997,0.244,1.038,0.549,0.961,0.297,-131.737,-53.3,-41.2,-1.913,26.84,0.40823,0.00574,-0.00653,-0.91278
 13:41:38.860,eb:33:2e:f9:57:b5, 2085-97-237 255:42:00:2039,-0.009,0.021,0.997,0.183,1.16,0.671,0.961,0.297,-131.732,-53.3,-41.2,-1.913,26.84,0.40823,0.00574,-0.00653,-0.91278
 13:41:38.860,eb:33:2e:f9:57:b5, 2085-97-236 255:39:00:2040,-0.009,0.02,0.995,0.244,1.099,0.61,0.961,0.297,-131.732,-53.3,-41.2,-1.913,26.84,0.40823,0.00574,-0.00653,-0.91278
 13:41:38.860,eb:33:2e:f9:57:b5, 2085-97-237 255:44:00:2038,-0.01,0.02,0.998,0.305,1.038,0.549,0.961,0.297,-131.726,-53.3,-41.2,-1.913,26.84,0.40823,0.00574,-0.00653,-0.91278
 13:41:38.860,eb:33:2e:f9:57:b5, 2085-97-232 255:40:00:2038,-0.01,0.021,0.995,0.122,1.038,0.549,0.961,0.297,-131.726,-53.3,-41.2,-1.913,26.84,0.40823,0.00574,-0.00653,-0.91278
 13:41:38.947,eb:33:2e:f9:57:b5, 2085-97-236 255:42:00:2042,-0.01,0.019,0.996,0.183,0.977,0.488,0.961,0.297,-131.721,-52.6,-40.9,-1.493,26.84,0.40823,0.00574,-0.00653,-0.91278
 13:41:38.947,eb:33:2e:f9:57:b5, 2085-97-232 255:41:00:2038,-0.011,0.021,0.997,0.183,0.916,0.488,0.961,0.297,-131.721,-52.6,-40.9,-1.493,26.84,0.40823,0.00574,-0.00653,-0.91278
 13:41:38.947,eb:33:2e:f9:57:b5, 2085-97-233 255:42:00:2039,-0.01,0.021,0.996,0.183,0.793,0.427,0.961,0.297,-131.715,-52.6,-40.9,-1.493,26.84,0.40823,0.00574,-0.00653,-0.91278
 13:41:38.947,eb:33:2e:f9:57:b5, 2085-97-234 255:38:00:2040,-0.009,0.021,0.996,0.183,0.732,0.305,0.967,0.297,-131.715,-52.6,-40.9,-1.493,26.84,0.40823,0.00574,-0.00653,-0.91278
 13:41:38.949,eb:33:2e:f9:57:b5, 2085-97-237 255:42:00:2042,-0.01,0.02,0.998,0.244,0.793,0.366,0.967,0.297,-131.71,-52.6,-40.9,-1.493,26.84,0.40823,0.00574,-0.00653,-0.91278
 13:41:38.949,eb:33:2e:f9:57:b5, 2085-97-235 255:41:00:2042,-0.011,0.02,0.997,0.183,0.854,0.427,0.967,0.302,-131.71,-52.6,-40.9,-1.493,26.84,0.40823,0.00574,-0.00653,-0.91278
 13:41:38.949,eb:33:2e:f9:57:b5, 2085-97-236 255:44:00:2040,-0.01,0.02,0.996,0.122,0.732,0.366,0.967,0.302,-131.704,-52.6,-40.9,-1.493,26.84,0.40897,0.00583,-0.00662,-0.91245
 13:41:38.949,eb:33:2e:f9:57:b5, 2085-97-236 255:43:00:2041,-0.01,0.021,0.996,0.183,0.732,0.366,0.967,0.302,-131.704,-52.6,-40.9,-1.493,26.84,0.40897,0.00583,-0.00662,-0.91245
 13:41:39.007,eb:33:2e:f9:57:b5, 2085-97-234 255:41:00:2041,-0.011,0.021,0.997,0.061,0.671,0.305,0.967,0.302,-131.693,-52.6,-40.9,-1.493,26.84,0.40897,0.00583,-0.00662,-0.91245
 13:41:39.007,eb:33:2e:f9:57:b5, 2085-97-232 255:44:00:2037,-0.013,0.021,0.995,0.061,0.61,0.244,0.967,0.302,-131.693,-52.6,-40.9,-1.493,26.84,0.40897,0.00583,-0.00662,-0.91245
 13:41:39.007,eb:33:2e:f9:57:b5, 2085-97-231 255:46:00:2036,-0.013,0.021,0.994,0.122,0.427,0.244,0.967,0.302,-131.688,-52.6,-40.9,-1.493,26.84,0.40897,0.00583,-0.00662,-0.91245
 13:41:39.007,eb:33:2e:f9:57:b5, 2085-97-232 255:43:00:2038,-0.012,0.021,0.995,0.122,0.305,0.061,0.967,0.308,-131.688,-52.6,-40.9,-1.493,26.84,0.40897,0.00583,-0.00662,-0.91245
 13:41:39.038,eb:33:2e:f9:57:b5, 2085-97-233 255:43:00:2042,-0.011,0.02,0.996,0.061,0.183,0,0.967,0.308,-131.682,-52.6,-40.9,-1.493,26.84,0.40897,0.00583,-0.00662,-0.91245
 13:41:39.038,eb:33:2e:f9:57:b5, 2085-97-234 255:41:00:2044,-0.011,0.021,0.998,0.122,0.244,0,0.972,0.308,-131.682,-52.6,-40.9,-1.493,26.84,0.40897,0.00583,-0.00662,-0.91245
 13:41:39.038,eb:33:2e:f9:57:b5, 2085-97-230 255:38:00:2044,-0.008,0.021,0.997,0.061,0.244,0,0.972,0.308,-131.677,-52.6,-40.9,-1.493,26.84,0.40897,0.00583,-0.00662,-0.91245
 13:41:39.038,eb:33:2e:f9:57:b5, 2085-97-242 255:45:00:2048,-0.01,0.02,1,0.061,0.305,0,0.972,0.308,-131.677,-52.6,-40.9,-1.493,26.84,0.40897,0.00583,-0.00662,-0.91245
 13:41:39.068,eb:33:2e:f9:57:b5, 2085-97-235 255:42:00:2041,-0.012,0.022,0.997,0,0.61,0.061,0.972,0.308,-131.671,-52.6,-40.9,-1.493,26.84,0.40897,0.00583,-0.00662,-0.91245
 13:41:39.068,eb:33:2e:f9:57:b5, 2085-97-232 255:43:00:2040,-0.011,0.021,0.996,0,0.549,0.061,0.972,0.313,-131.671,-52.6,-40.9,-1.493,26.84,0.40897,0.00583,-0.00662,-0.91245
 13:41:39.068,eb:33:2e:f9:57:b5, 2085-97-229 255:40:00:2040,-0.01,0.021,0.996,0,0.61,0,0.972,0.313,-131.666,-52.6,-40.9,-1.493,26.84,0.40897,0.00583,-0.00662,-0.91245
 13:41:39.068,eb:33:2e:f9:57:b5, 2085-97-235 255:40:00:2047,-0.01,0.02,0.999,0,0.671,0.122,0.972,0.313,-131.666,-52.6,-40.9,-1.493,26.84,0.40897,0.00583,-0.00662,-0.91245
 13:41:39.127,eb:33:2e:f9:57:b5, 2085-97-238 255:36:00:2050,-0.007,0.018,1,0,0.916,0.305,0.972,0.313,-131.66,-52.6,-40.9,-1.493,26.84,0.40897,0.00583,-0.00662,-0.91245
 13:41:39.127,eb:33:2e:f9:57:b5, 2085-97-236 255:41:00:2046,-0.011,0.02,1.001,0,1.221,0.488,0.978,0.313,-131.66,-52.6,-40.9,-1.493,26.84,0.40897,0.00583,-0.00662,-0.91245
 13:41:39.127,eb:33:2e:f9:57:b5, 2085-97-230 255:40:00:2042,-0.014,0.021,0.999,0,1.465,0.671,0.978,0.313,-131.655,-52.6,-40.9,-1.493,26.84,0.40897,0.00583,-0.00662,-0.91245
 13:41:39.127,eb:33:2e:f9:57:b5, 2085-97-225 255:39:00:2039,-0.013,0.02,0.996,0.061,1.465,0.671,0.978,0.319,-131.655,-52.6,-40.9,-1.493,26.84,0.40897,0.00583,-0.00662,-0.91245
 13:41:39.159,eb:33:2e:f9:57:b5, 2085-97-230 255:44:00:2042,-0.012,0.021,0.997,0,1.465,0.793,0.978,0.319,-131.649,-52.6,-40.9,-1.493,26.84,0.40897,0.00583,-0.00662,-0.91245
 13:41:39.159,eb:33:2e:f9:57:b5, 2085-97-231 255:44:00:2041,-0.013,0.021,0.998,0,1.404,0.854,0.978,0.319,-131.649,-52.6,-40.9,-1.493,26.84,0.40897,0.00583,-0.00662,-0.91245
 13:41:39.159,eb:33:2e:f9:57:b5, 2085-97-230 255:41:00:2041,-0.01,0.021,0.997,-0.061,1.465,0.793,0.978,0.319,-131.644,-52.6,-40.9,-1.493,26.84,0.40897,0.00583,-0.00662,-0.91245
 13:41:39.159,eb:33:2e:f9:57:b5, 2085-97-228 255:44:00:2037,-0.014,0.022,0.997,-0.122,1.587,0.854,0.978,0.319,-131.644,-52.6,-40.9,-1.493,26.84,0.40897,0.00583,-0.00662,-0.91245
 13:41:39.187,eb:33:2e:f9:57:b5, 2085-97-228 255:41:00:2040,-0.014,0.021,0.995,-0.061,1.404,0.732,0.978,0.319,-131.633,-53.5,-41.8,-3.733,26.84,0.40897,0.00583,-0.00662,-0.91245
 13:41:39.187,eb:33:2e:f9:57:b5, 2085-97-225 255:40:00:2039,-0.015,0.021,0.996,-0.061,1.404,0.793,0.978,0.324,-131.633,-53.5,-41.8,-3.733,26.84,0.40897,0.00583,-0.00662,-0.91245
 13:41:39.187,eb:33:2e:f9:57:b5, 2085-97-224 255:37:00:2038,-0.015,0.021,0.996,0,1.343,0.732,0.978,0.324,-131.627,-53.5,-41.8,-3.733,26.84,0.40897,0.00583,-0.00662,-0.91245
 13:41:39.187,eb:33:2e:f9:57:b5, 2085-97-227 255:42:00:2043,-0.015,0.018,0.998,0.061,1.221,0.916,0.983,0.324,-131.627,-53.5,-41.8,-3.733,26.84,0.40897,0.00583,-0.00662,-0.91245
 13:41:39.246,eb:33:2e:f9:57:b5, 2085-97-223 255:42:00:2037,-0.015,0.021,0.997,0,1.221,0.916,0.983,0.324,-131.622,-53.5,-41.8,-3.733,26.84,0.40897,0.00583,-0.00662,-0.91245
 13:41:39.246,eb:33:2e:f9:57:b5, 2085-97-221 255:37:00:2040,-0.013,0.02,0.997,0.061,1.221,0.854,0.983,0.33,-131.622,-53.5,-41.8,-3.733,26.84,0.40897,0.00583,-0.00662,-0.91245
 13:41:39.246,eb:33:2e:f9:57:b5, 2085-97-224 255:39:00:2045,-0.013,0.019,1,0.061,1.221,0.916,0.983,0.33,-131.616,-53.5,-41.8,-3.733,26.84,0.40897,0.00583,-0.00662,-0.91245
 13:41:39.246,eb:33:2e:f9:57:b5, 2085-97-224 255:40:00:2038,-0.017,0.021,0.999,0.122,1.282,1.038,0.983,0.33,-131.616,-53.5,-41.8,-3.733,26.84,0.40897,0.00583,-0.00662,-0.91245
 13:41:39.277,eb:33:2e:f9:57:b5, 2085-97-218 255:38:00:2037,-0.017,0.018,0.996,0.183,1.221,1.099,0.983,0.33,-131.611,-53.5,-41.8,-3.733,26.84,0.4097,0.00613,-0.00665,-0.91211
 13:41:39.277,eb:33:2e:f9:57:b5, 2085-97-219 255:41:00:2036,-0.016,0.021,0.996,0.244,1.16,1.099,0.983,0.335,-131.611,-53.5,-41.8,-3.733,26.84,0.4097,0.00613,-0.00665,-0.91211
 13:41:39.277,eb:33:2e:f9:57:b5, 2085-97-222 255:42:00:2040,-0.016,0.021,0.995,0.183,1.038,1.038,0.983,0.335,-131.605,-53.5,-41.8,-3.733,26.84,0.4097,0.00613,-0.00665,-0.91211
 13:41:39.277,eb:33:2e:f9:57:b5, 2085-97-221 255:45:00:2038,-0.02,0.021,0.996,0.183,0.854,0.916,0.983,0.335,-131.605,-53.5,-41.8,-3.733,26.84,0.4097,0.00613,-0.00665,-0.91211
 13:41:39.306,eb:33:2e:f9:57:b5, 2085-97-222 255:45:00:2042,-0.018,0.022,0.994,0.244,0.61,0.854,0.983,0.335,-131.6,-53.5,-41.8,-3.733,26.84,0.4097,0.00613,-0.00665,-0.91211
 13:41:39.306,eb:33:2e:f9:57:b5, 2085-97-225 255:43:00:2044,-0.016,0.021,0.995,0.122,0.488,0.854,0.983,0.341,-131.6,-53.5,-41.8,-3.733,26.84,0.4097,0.00613,-0.00665,-0.91211
 13:41:39.306,eb:33:2e:f9:57:b5, 2085-97-225 255:43:00:2044,-0.016,0.021,0.997,0.061,0.488,0.732,0.983,0.341,-131.594,-53.5,-41.8,-3.733,26.84,0.4097,0.00613,-0.00665,-0.91211
 13:41:39.306,eb:33:2e:f9:57:b5, 2085-97-223 255:45:00:2040,-0.019,0.021,0.997,0,0.549,0.732,0.989,0.346,-131.594,-53.5,-41.8,-3.733,26.84,0.4097,0.00613,-0.00665,-0.91211
 13:41:39.396,eb:33:2e:f9:57:b5, 2085-97-221 255:43:00:2036,-0.018,0.021,0.994,0,0.366,0.61,0.989,0.346,-131.589,-53.5,-41.8,-3.733,26.84,0.4097,0.00613,-0.00665,-0.91211
 13:41:39.396,eb:33:2e:f9:57:b5, 2085-97-221 255:43:00:2039,-0.016,0.021,0.995,0,0.183,0.549,0.989,0.346,-131.589,-53.5,-41.8,-3.733,26.84,0.4097,0.00613,-0.00665,-0.91211
 13:41:39.396,eb:33:2e:f9:57:b5, 2085-97-220 255:45:00:2040,-0.018,0.022,0.997,0,0.122,0.427,0.989,0.346,-131.583,-53.5,-41.8,-3.733,26.84,0.4097,0.00613,-0.00665,-0.91211
 13:41:39.396,eb:33:2e:f9:57:b5, 2085-97-221 255:43:00:2038,-0.017,0.022,0.995,0,0,0.366,0.989,0.352,-131.583,-53.5,-41.8,-3.733,26.84,0.4097,0.00613,-0.00665,-0.91211
 13:41:39.427,eb:33:2e:f9:57:b5, 2085-97-222 255:43:00:2042,-0.015,0.021,0.996,0,-0.061,0.305,0.989,0.352,-131.578,-53.5,-41.8,-3.733,26.84,0.4097,0.00613,-0.00665,-0.91211
 13:41:39.427,eb:33:2e:f9:57:b5, 2085-97-224 255:45:00:2041,-0.017,0.022,0.998,0,-0.122,0.183,0.989,0.352,-131.578,-53.5,-41.8,-3.733,26.84,0.4097,0.00613,-0.00665,-0.91211
 13:41:39.427,eb:33:2e:f9:57:b5, 2085-97-222 255:45:00:2040,-0.018,0.021,0.996,-0.061,-0.183,0.122,0.989,0.352,-131.572,-53.5,-41.8,-3.733,26.84,0.4097,0.00613,-0.00665,-0.91211
 13:41:39.427,eb:33:2e:f9:57:b5, 2085-97-221 255:39:00:2038,-0.017,0.021,0.996,-0.061,-0.244,0.061,0.994,0.357,-131.572,-53.5,-41.8,-3.733,26.84,0.4097,0.00613,-0.00665,-0.91211
 13:41:39.429,eb:33:2e:f9:57:b5, 2085-97-223 255:45:00:2039,-0.016,0.02,0.996,-0.122,-0.305,0,0.994,0.357,-131.567,-53.5,-41.8,-3.733,26.84,0.4097,0.00613,-0.00665,-0.91211
 13:41:39.429,eb:33:2e:f9:57:b5, 2085-97-223 255:44:00:2038,-0.017,0.022,0.994,-0.183,-0.366,-0.061,0.994,0.363,-131.567,-53.5,-41.8,-3.733,26.84,0.4097,0.00613,-0.00665,-0.91211
 13:41:39.429,eb:33:2e:f9:57:b5, 2085-97-226 255:43:00:2041,-0.015,0.021,0.996,-0.244,-0.488,-0.061,0.994,0.363,-131.556,-53.5,-41.8,-3.733,26.84,0.4097,0.00613,-0.00665,-0.91211
 13:41:39.429,eb:33:2e:f9:57:b5, 2085-97-223 255:42:00:2041,-0.015,0.021,0.997,-0.244,-0.427,-0.122,0.994,0.363,-131.556,-53.5,-41.8,-3.733,26.84,0.4097,0.00613,-0.00665,-0.91211
 13:41:39.488,eb:33:2e:f9:57:b5, 2085-97-230 255:41:00:2049,-0.013,0.02,0.998,-0.305,-0.427,-0.061,0.994,0.363,-131.55,-53.5,-41.8,-3.733,26.84,0.4097,0.00613,-0.00665,-0.91211
 13:41:39.488,eb:33:2e:f9:57:b5, 2085-97-225 255:40:00:2045,-0.015,0.02,1,-0.305,-0.122,-0.061,0.994,0.368,-131.55,-53.5,-41.8,-3.733,26.84,0.4097,0.00613,-0.00665,-0.91211
 13:41:39.488,eb:33:2e:f9:57:b5, 2085-97-224 255:38:00:2044,-0.016,0.02,0.998,-0.183,-0.061,0,0.994,0.368,-131.545,-53.5,-41.8,-3.733,26.84,0.4097,0.00613,-0.00665,-0.91211
 13:41:39.488,eb:33:2e:f9:57:b5, 2085-97-229 255:38:00:2050,-0.013,0.017,1,-0.061,0,0.122,1,0.368,-131.545,-53.5,-41.8,-3.733,26.84,0.4097,0.00613,-0.00665,-0.91211
 13:41:39.517,eb:33:2e:f9:57:b5, 2085-97-225 255:44:00:2042,-0.017,0.021,1,-0.122,0.183,0.122,1,0.368,-131.539,-54.4,-42.1,-3.56,26.84,0.4097,0.00613,-0.00665,-0.91211
 13:41:39.517,eb:33:2e:f9:57:b5, 2085-97-220 255:41:00:2038,-0.017,0.021,0.995,-0.122,0.183,0.122,1,0.374,-131.539,-54.4,-42.1,-3.56,26.84,0.4097,0.00613,-0.00665,-0.91211
 13:41:39.517,eb:33:2e:f9:57:b5, 2085-97-225 255:43:00:2040,-0.016,0.02,0.995,-0.061,0,0.061,1,0.374,-131.534,-54.4,-42.1,-3.56,26.84,0.4097,0.00613,-0.00665,-0.91211
 13:41:39.517,eb:33:2e:f9:57:b5, 2085-97-220 255:42:00:2036,-0.018,0.021,0.996,-0.122,0,0.061,1,0.374,-131.534,-54.4,-42.1,-3.56,26.84,0.4097,0.00613,-0.00665,-0.91211
 13:41:39.578,eb:33:2e:f9:57:b5, 2085-97-220 255:42:00:2037,-0.018,0.02,0.994,-0.183,-0.061,0,1,0.374,-131.528,-54.4,-42.1,-3.56,26.84,0.4097,0.00613,-0.00665,-0.91211
 13:41:39.578,eb:33:2e:f9:57:b5, 2085-97-221 255:42:00:2036,-0.016,0.022,0.994,-0.244,-0.244,-0.061,1,0.379,-131.528,-54.4,-42.1,-3.56,26.84,0.4097,0.00613,-0.00665,-0.91211
 13:41:39.578,eb:33:2e:f9:57:b5, 2085-113-81 00:137:52:217,-0.015,0.021,0.996,-0.183,-0.366,-0.061,1,0.379,-131.523,-54.4,-42.1,-3.56,26.84,0.4097,0.00613,-0.00665,-0.91211
 13:41:39.578,eb:33:2e:f9:57:b5, 2085-97-224 255:41:00:2040,-0.017,0.021,0.997,-0.183,-0.305,-0.122,1,0.385,-131.523,-54.4,-42.1,-3.56,26.84,0.4097,0.00613,-0.00665,-0.91211
 13:41:39.606,eb:33:2e:f9:57:b5, 2085-97-221 255:39:00:2039,-0.016,0.02,0.995,-0.183,-0.305,-0.183,1,0.385,-131.517,-54.4,-42.1,-3.56,26.84,0.41043,0.00662,-0.00659,-0.91177
 13:41:39.606,eb:33:2e:f9:57:b5, 2085-97-223 255:39:00:2042,-0.016,0.019,0.998,-0.061,-0.427,-0.244,1,0.385,-131.517,-54.4,-42.1,-3.56,26.84,0.41043,0.00662,-0.00659,-0.91177
 13:41:39.606,eb:33:2e:f9:57:b5, 2085-97-223 255:39:00:2042,-0.018,0.021,0.998,0,-0.366,-0.183,1,0.385,-131.512,-54.4,-42.1,-3.56,26.84,0.41043,0.00662,-0.00659,-0.91177
 13:41:39.606,eb:33:2e:f9:57:b5, 2085-97-220 255:39:00:2039,-0.016,0.02,0.996,0,-0.427,-0.183,1.005,0.39,-131.512,-54.4,-42.1,-3.56,26.84,0.41043,0.00662,-0.00659,-0.91177
 13:41:39.636,eb:33:2e:f9:57:b5, 2085-97-220 255:39:00:2040,-0.016,0.021,0.996,0,-0.549,-0.244,1.005,0.39,-131.506,-54.4,-42.1,-3.56,26.84,0.41043,0.00662,-0.00659,-0.91177
 13:41:39.636,eb:33:2e:f9:57:b5, 2085-97-225 255:43:00:2041,-0.016,0.021,0.998,0,-0.549,-0.305,1.005,0.39,-131.506,-54.4,-42.1,-3.56,26.84,0.41043,0.00662,-0.00659,-0.91177
 13:41:39.636,eb:33:2e:f9:57:b5, 2085-97-223 255:41:00:2040,-0.016,0.02,0.997,-0.061,-0.671,-0.244,1.005,0.39,-131.501,-54.4,-42.1,-3.56,26.84,0.41043,0.00662,-0.00659,-0.91177
 13:41:39.636,eb:33:2e:f9:57:b5, 2085-97-226 255:42:00:2042,-0.016,0.019,0.997,0,-0.671,-0.305,1.005,0.396,-131.501,-54.4,-42.1,-3.56,26.84,0.41043,0.00662,-0.00659,-0.91177
 13:41:39.667,eb:33:2e:f9:57:b5, 2085-97-222 255:41:00:2039,-0.016,0.021,0.996,0,-0.671,-0.366,1.005,0.396,-131.495,-54.4,-42.1,-3.56,26.84,0.41043,0.00662,-0.00659,-0.91177
 13:41:39.667,eb:33:2e:f9:57:b5, 2085-97-223 255:42:00:2042,-0.016,0.021,0.996,-0.061,-0.793,-0.366,1.005,0.396,-131.495,-54.4,-42.1,-3.56,26.84,0.41043,0.00662,-0.00659,-0.91177
 13:41:39.667,eb:33:2e:f9:57:b5, 2085-97-223 255:41:00:2040,-0.016,0.02,0.997,-0.061,-0.854,-0.488,1.005,0.396,-131.49,-54.4,-42.1,-3.56,26.84,0.41043,0.00662,-0.00659,-0.91177
 13:41:39.667,eb:33:2e:f9:57:b5, 2085-97-225 255:40:00:2041,-0.014,0.02,0.996,-0.061,-0.916,-0.549,1.005,0.401,-131.49,-54.4,-42.1,-3.56,26.84,0.41043,0.00662,-0.00659,-0.91177
 13:41:39.728,eb:33:2e:f9:57:b5, 2085-97-226 255:39:00:2041,-0.014,0.019,0.998,0,-0.977,-0.549,1.005,0.401,-131.484,-54.4,-42.1,-3.56,26.84,0.41043,0.00662,-0.00659,-0.91177
 13:41:39.728,eb:33:2e:f9:57:b5, 2085-97-229 255:38:00:2045,-0.013,0.019,0.999,0,-0.916,-0.549,1.005,0.401,-131.484,-54.4,-42.1,-3.56,26.84,0.41043,0.00662,-0.00659,-0.91177
 13:41:39.728,eb:33:2e:f9:57:b5, 2085-97-228 255:41:00:2046,-0.014,0.02,0.999,0,-0.732,-0.427,1.005,0.401,-131.479,-54.4,-42.1,-3.56,26.84,0.41043,0.00662,-0.00659,-0.91177
 13:41:39.728,eb:33:2e:f9:57:b5, 2085-97-228 255:41:00:2043,-0.015,0.02,0.998,0,-0.61,-0.366,1.005,0.406,-131.479,-54.4,-42.1,-3.56,26.84,0.41043,0.00662,-0.00659,-0.91177
 13:41:39.788,eb:33:2e:f9:57:b5, 2085-97-227 255:40:00:2040,-0.015,0.02,0.997,0.061,-0.61,-0.305,1.005,0.406,-131.473,-54.4,-42.1,-3.56,26.84,0.41043,0.00662,-0.00659,-0.91177
 13:41:39.788,eb:33:2e:f9:57:b5, 2085-97-226 255:40:00:2040,-0.014,0.019,0.996,0.061,-0.671,-0.305,1.011,0.406,-131.473,-54.4,-42.1,-3.56,26.84,0.41043,0.00662,-0.00659,-0.91177
 13:41:39.788,eb:33:2e:f9:57:b5, 2085-97-230 255:38:00:2044,-0.012,0.019,0.997,0,-0.732,-0.366,1.011,0.406,-131.468,-54.4,-42.1,-3.56,26.84,0.41043,0.00662,-0.00659,-0.91177
 13:41:39.788,eb:33:2e:f9:57:b5, 2085-97-231 255:44:00:2044,-0.014,0.02,0.999,0,-0.549,-0.305,1.011,0.412,-131.468,-54.4,-42.1,-3.56,26.84,0.41043,0.00662,-0.00659,-0.91177
 13:41:39.788,eb:33:2e:f9:57:b5, 2085-97-230 255:43:00:2041,-0.014,0.02,0.997,0.061,-0.549,-0.244,1.011,0.412,-131.462,-54.4,-42.1,-3.56,26.84,0.41043,0.00662,-0.00659,-0.91177
 13:41:39.789,eb:33:2e:f9:57:b5, 2085-97-227 255:40:00:2039,-0.012,0.021,0.996,0,-0.549,-0.305,1.011,0.412,-131.462,-54.4,-42.1,-3.56,26.84,0.41043,0.00662,-0.00659,-0.91177
 13:41:39.789,eb:33:2e:f9:57:b5, 2085-97-233 255:43:00:2044,-0.012,0.02,0.998,0,-0.549,-0.244,1.011,0.412,-131.457,-54.4,-42.1,-3.56,26.84,0.41043,0.00662,-0.00659,-0.91177
 13:41:39.789,eb:33:2e:f9:57:b5, 2085-97-229 255:40:00:2042,-0.013,0.02,0.998,0,-0.488,-0.244,1.011,0.412,-131.457,-54.4,-42.1,-3.56,26.84,0.41043,0.00662,-0.00659,-0.91177
 13:41:39.847,eb:33:2e:f9:57:b5, 2085-97-230 255:39:00:2044,-0.013,0.02,0.997,0,-0.488,-0.244,1.011,0.412,-131.451,-54.4,-42.1,-3.56,26.84,0.41043,0.00662,-0.00659,-0.91177
 13:41:39.847,eb:33:2e:f9:57:b5, 2085-97-232 255:41:00:2046,-0.011,0.019,0.999,0,-0.366,-0.183,1.011,0.417,-131.451,-54.4,-42.1,-3.56,26.84,0.41043,0.00662,-0.00659,-0.91177
 13:41:39.847,eb:33:2e:f9:57:b5, 2085-97-232 255:39:00:2046,-0.013,0.02,0.999,0,-0.183,-0.122,1.011,0.417,-131.446,-54.4,-42.1,-3.56,26.84,0.41043,0.00662,-0.00659,-0.91177
 13:41:39.847,eb:33:2e:f9:57:b5, 2085-97-225 255:42:00:2038,-0.015,0.02,0.997,0,-0.183,-0.122,1.011,0.417,-131.446,-54.4,-42.1,-3.56,26.84,0.41043,0.00662,-0.00659,-0.91177
 13:41:39.878,eb:33:2e:f9:57:b5, 2085-97-226 255:42:00:2038,-0.015,0.021,0.995,-0.061,-0.366,-0.183,1.011,0.417,-131.44,-53,-40.5,-3.287,26.84,0.41043,0.00662,-0.00659,-0.91177
 13:41:39.878,eb:33:2e:f9:57:b5, 2085-97-229 255:38:00:2040,-0.012,0.02,0.994,0,-0.488,-0.305,1.011,0.417,-131.44,-53,-40.5,-3.287,26.84,0.41043,0.00662,-0.00659,-0.91177
 13:41:39.878,eb:33:2e:f9:57:b5, 2085-97-230 255:38:00:2044,-0.012,0.019,0.997,0,-0.427,-0.244,1.011,0.417,-131.435,-53,-40.5,-3.287,26.84,0.41043,0.00662,-0.00659,-0.91177
 13:41:39.878,eb:33:2e:f9:57:b5, 2085-97-231 255:40:00:2041,-0.013,0.02,0.998,0,-0.366,-0.244,1.016,0.423,-131.435,-53,-40.5,-3.287,26.84,0.41043,0.00662,-0.00659,-0.91177
 13:41:39.907,eb:33:2e:f9:57:b5, 2085-97-229 255:41:00:2041,-0.012,0.019,0.997,-0.061,-0.366,-0.244,1.016,0.423,-131.429,-53,-40.5,-3.287,26.84,0.41043,0.00662,-0.00659,-0.91177
 13:41:39.907,eb:33:2e:f9:57:b5, 2085-97-230 255:41:00:2042,-0.012,0.021,0.997,-0.061,-0.427,-0.244,1.016,0.423,-131.429,-53,-40.5,-3.287,26.84,0.41043,0.00662,-0.00659,-0.91177
 13:41:39.907,eb:33:2e:f9:57:b5, 2085-97-230 255:40:00:2042,-0.014,0.02,0.998,0,-0.305,-0.183,1.016,0.423,-131.424,-53,-40.5,-3.287,26.84,0.41043,0.00662,-0.00659,-0.91177
 13:41:39.907,eb:33:2e:f9:57:b5, 2085-97-229 255:37:00:2040,-0.012,0.02,0.996,0,-0.305,-0.122,1.016,0.423,-131.424,-53,-40.5,-3.287,26.84,0.41043,0.00662,-0.00659,-0.91177
 13:41:39.968,eb:33:2e:f9:57:b5, 2085-97-230 255:40:00:2039,-0.013,0.02,0.996,0,-0.366,-0.122,1.016,0.423,-131.418,-53,-40.5,-3.287,26.84,0.41122,0.00702,-0.00653,-0.91144
 13:41:39.968,eb:33:2e:f9:57:b5, 2085-97-231 255:44:00:2039,-0.012,0.02,0.997,0,-0.427,-0.183,1.016,0.428,-131.418,-53,-40.5,-3.287,26.84,0.41122,0.00702,-0.00653,-0.91144
 13:41:39.968,eb:33:2e:f9:57:b5, 2085-97-229 255:44:00:2036,-0.014,0.021,0.996,-0.061,-0.488,-0.183,1.016,0.428,-131.413,-53,-40.5,-3.287,26.84,0.41122,0.00702,-0.00653,-0.91144
 13:41:39.968,eb:33:2e:f9:57:b5, 2085-97-229 255:41:00:2040,-0.011,0.02,0.995,-0.061,-0.61,-0.244,1.016,0.428,-131.413,-53,-40.5,-3.287,26.84,0.41122,0.00702,-0.00653,-0.91144
 13:41:39.998,eb:33:2e:f9:57:b5, 2085-97-232 255:39:00:2041,-0.01,0.021,0.997,0,-0.671,-0.305,1.016,0.428,-131.407,-53,-40.5,-3.287,26.84,0.41122,0.00702,-0.00653,-0.91144
 13:41:39.998,eb:33:2e:f9:57:b5, 2085-97-229 255:39:00:2040,-0.013,0.021,0.997,0,-0.671,-0.305,1.016,0.428,-131.407,-53,-40.5,-3.287,26.84,0.41122,0.00702,-0.00653,-0.91144
 13:41:39.998,eb:33:2e:f9:57:b5, 2085-97-233 255:40:00:2041,-0.012,0.018,0.997,0,-0.671,-0.305,1.016,0.428,-131.402,-53,-40.5,-3.287,26.84,0.41122,0.00702,-0.00653,-0.91144
 13:41:39.998,eb:33:2e:f9:57:b5, 2085-97-226 255:40:00:2037,-0.013,0.02,0.996,0,-0.671,-0.305,1.016,0.434,-131.402,-53,-40.5,-3.287,26.84,0.41122,0.00702,-0.00653,-0.91144
 13:41:40.027,eb:33:2e:f9:57:b5, 2085-97-227 255:42:00:2036,-0.012,0.021,0.995,-0.122,-0.916,-0.427,1.016,0.434,-131.396,-53,-40.5,-3.287,26.84,0.41122,0.00702,-0.00653,-0.91144
 13:41:40.027,eb:33:2e:f9:57:b5, 2085-97-231 255:37:00:2042,-0.011,0.019,0.995,-0.061,-1.038,-0.427,1.016,0.434,-131.396,-53,-40.5,-3.287,26.84,0.41122,0.00702,-0.00653,-0.91144
 13:41:40.027,eb:33:2e:f9:57:b5, 2085-97-235 255:41:00:2043,-0.011,0.02,0.999,-0.061,-1.099,-0.366,1.016,0.434,-131.391,-53,-40.5,-3.287,26.84,0.41122,0.00702,-0.00653,-0.91144
 13:41:40.027,eb:33:2e:f9:57:b5, 2085-97-233 255:45:00:2040,-0.012,0.021,0.997,-0.122,-1.038,-0.427,1.022,0.434,-131.391,-53,-40.5,-3.287,26.84,0.41122,0.00702,-0.00653,-0.91144
 13:41:40.088,eb:33:2e:f9:57:b5, 2085-97-232 255:39:00:2041,-0.011,0.02,0.996,-0.183,-0.977,-0.427,1.022,0.434,-131.385,-53,-40.5,-3.287,26.84,0.41122,0.00702,-0.00653,-0.91144
 13:41:40.088,eb:33:2e:f9:57:b5, 2085-97-238 255:42:00:2045,-0.01,0.02,0.998,-0.122,-1.038,-0.427,1.022,0.439,-131.385,-53,-40.5,-3.287,26.84,0.41122,0.00702,-0.00653,-0.91144
 13:41:40.088,eb:33:2e:f9:57:b5, 2085-97-241 255:41:00:2046,-0.01,0.019,0.998,-0.183,-0.916,-0.427,1.022,0.439,-131.38,-53,-40.5,-3.287,26.84,0.41122,0.00702,-0.00653,-0.91144
 13:41:40.088,eb:33:2e:f9:57:b5, 2085-97-17 00:61:00:2065,-0.02,0.017,0.998,0,-1.465,-0.671,1.022,0.439,-131.38,-53,-40.5,-3.287,26.84,0.41122,0.00702,-0.00653,-0.91144
 13:41:40.147,eb:33:2e:f9:57:b5, 2085-97-251 255:46:00:2053,-0.013,0.018,0.989,-0.122,-0.916,-0.244,1.022,0.439,-131.38,-53,-40.5,-3.287,26.84,0.41122,0.00702,-0.00653,-0.91144
 13:41:40.147,eb:33:2e:f9:57:b5, 2085-97-238 255:41:00:2045,-0.007,0.018,0.996,-0.122,-0.61,-0.244,1.022,0.439,-131.38,-53,-40.5,-3.287,26.84,0.41122,0.00702,-0.00653,-0.91144
 13:41:40.147,eb:33:2e:f9:57:b5, 2085-97-237 255:39:00:2042,-0.006,0.021,1.001,-0.061,-0.305,-0.366,1.022,0.439,-131.38,-53,-40.5,-3.287,26.84,0.41122,0.00702,-0.00653,-0.91144
 13:41:40.147,eb:33:2e:f9:57:b5, 2085-97-234 255:40:00:2042,-0.007,0.021,1,-0.061,-0.183,-0.305,1.022,0.439,-131.38,-53,-40.5,-3.287,26.84,0.41122,0.00702,-0.00653,-0.91144
 13:41:40.207,eb:33:2e:f9:57:b5, 2085-97-237 255:41:00:2041,-0.01,0.02,0.999,-0.061,0,-0.244,1.022,0.439,-131.38,-53.2,-41.1,-0.707,26.84,0.41122,0.00702,-0.00653,-0.91144
 13:41:40.207,eb:33:2e:f9:57:b5, 2085-97-238 255:41:00:2042,-0.008,0.02,0.996,0,0,-0.244,1.022,0.439,-131.38,-53.2,-41.1,-0.707,26.84,0.41122,0.00702,-0.00653,-0.91144
 13:41:40.207,eb:33:2e:f9:57:b5, 2085-97-242 255:37:00:2047,-0.006,0.02,0.999,0,0,-0.305,1.022,0.439,-131.38,-53.2,-41.1,-0.707,26.84,0.41122,0.00702,-0.00653,-0.91144
 13:41:40.207,eb:33:2e:f9:57:b5, 2085-97-240 255:38:00:2046,-0.011,0.018,1,-0.061,0.244,-0.183,1.022,0.439,-131.38,-53.2,-41.1,-0.707,26.84,0.41122,0.00702,-0.00653,-0.91144
 13:41:40.209,eb:33:2e:f9:57:b5, 2085-97-234 255:39:00:2040,-0.009,0.02,0.998,-0.061,0.244,-0.122,1.022,0.439,-131.38,-53.2,-41.1,-0.707,26.84,0.41122,0.00702,-0.00653,-0.91144
 13:41:40.209,eb:33:2e:f9:57:b5, 2085-97-235 255:35:00:2040,-0.013,0.019,0.997,0,0.244,-0.183,1.022,0.439,-131.38,-53.2,-41.1,-0.707,26.84,0.41122,0.00702,-0.00653,-0.91144
 13:41:40.209,eb:33:2e:f9:57:b5, 2085-97-234 255:39:00:2038,-0.01,0.017,0.995,0.061,0.244,-0.122,1.022,0.439,-131.38,-53.2,-41.1,-0.707,26.84,0.41122,0.00702,-0.00653,-0.91144
 13:41:40.209,eb:33:2e:f9:57:b5, 2085-97-231 255:39:00:2035,-0.012,0.02,0.996,0.122,0.183,-0.061,1.022,0.439,-131.38,-53.2,-41.1,-0.707,26.84,0.41122,0.00702,-0.00653,-0.91144
 13:41:40.237,eb:33:2e:f9:57:b5, 2085-97-230 255:39:00:2036,-0.011,0.019,0.995,0.122,0.061,-0.122,1.022,0.439,-131.38,-53.2,-41.1,-0.707,26.84,0.41122,0.00702,-0.00653,-0.91144
 13:41:40.237,eb:33:2e:f9:57:b5, 2085-97-234 255:40:00:2041,-0.012,0.019,0.996,0.061,0,-0.122,1.022,0.439,-131.38,-53.2,-41.1,-0.707,26.84,0.41122,0.00702,-0.00653,-0.91144
 13:41:40.237,eb:33:2e:f9:57:b5, 2085-97-237 255:41:00:2042,-0.01,0.02,0.996,0.061,0,-0.122,1.022,0.439,-131.38,-53.2,-41.1,-0.707,26.84,0.41122,0.00702,-0.00653,-0.91144
 13:41:40.237,eb:33:2e:f9:57:b5, 2085-113-81 00:174:52:235,-0.01,0.02,0.997,0.061,0,-0.122,1.022,0.439,-131.38,-53.2,-41.1,-0.707,26.84,0.41122,0.00702,-0.00653,-0.91144
 13:41:40.237,eb:33:2e:f9:57:b5, 2085-97-234 255:37:00:2042,-0.011,0.019,0.997,0.061,0,-0.061,1.022,0.439,-131.38,-53.2,-41.1,-0.707,26.84,0.41122,0.00702,-0.00653,-0.91144
 13:41:40.296,eb:33:2e:f9:57:b5, 2085-97-237 255:41:00:2043,-0.011,0.019,0.998,0.061,0,-0.061,1.022,0.439,-131.38,-53.2,-41.1,-0.707,26.84,0.41156,0.00717,-0.00653,-0.91129
 13:41:40.296,eb:33:2e:f9:57:b5, 2085-97-236 255:40:00:2043,-0.01,0.02,0.997,0.061,0.061,0,1.022,0.439,-131.38,-53.2,-41.1,-0.707,26.84,0.41156,0.00717,-0.00653,-0.91129
 13:41:40.296,eb:33:2e:f9:57:b5, 2085-97-236 255:39:00:2044,-0.01,0.019,0.998,0.122,0.122,0,1.022,0.439,-131.38,-53.2,-41.1,-0.707,26.84,0.41156,0.00717,-0.00653,-0.91129
 13:41:40.296,eb:33:2e:f9:57:b5, 2085-97-239 255:40:00:2047,-0.009,0.019,0.998,0.122,0.122,0.122,1.022,0.439,-131.38,-53.2,-41.1,-0.707,26.84,0.41156,0.00717,-0.00653,-0.91129
 13:41:40.327,eb:33:2e:f9:57:b5, 2085-97-236 255:40:00:2042,-0.01,0.02,0.999,0.122,0.244,0.061,1.022,0.439,-131.38,-53.2,-41.1,-0.707,26.84,0.41156,0.00717,-0.00653,-0.91129
 13:41:40.327,eb:33:2e:f9:57:b5, 2085-97-233 255:39:00:2041,-0.012,0.02,0.997,0.061,0.244,0.061,1.022,0.439,-131.38,-53.2,-41.1,-0.707,26.84,0.41156,0.00717,-0.00653,-0.91129
 13:41:40.327,eb:33:2e:f9:57:b5, 2085-97-232 255:41:00:2037,-0.011,0.021,0.995,0.122,0.244,0.061,1.022,0.439,-131.38,-53.2,-41.1,-0.707,26.84,0.41156,0.00717,-0.00653,-0.91129
 13:41:40.327,eb:33:2e:f9:57:b5, 2085-97-231 255:41:00:2036,-0.012,0.021,0.995,0.061,0.061,0.061,1.022,0.439,-131.38,-53.2,-41.1,-0.707,26.84,0.41156,0.00717,-0.00653,-0.91129
 13:41:40.357,eb:33:2e:f9:57:b5, 2085-97-239 255:39:00:2046,-0.008,0.017,0.997,0.061,0,0,1.022,0.439,-131.38,-53.2,-41.1,-0.707,26.84,0.41156,0.00717,-0.00653,-0.91129
 13:41:40.357,eb:33:2e:f9:57:b5, 2085-97-234 255:42:00:2041,-0.011,0.021,0.999,0.122,0.122,0.061,1.022,0.439,-131.38,-53.2,-41.1,-0.707,26.84,0.41156,0.00717,-0.00653,-0.91129
 13:41:40.357,eb:33:2e:f9:57:b5, 2085-97-238 255:42:00:2043,-0.012,0.019,0.997,0.061,0.122,0.061,1.022,0.439,-131.38,-53.2,-41.1,-0.707,26.84,0.41156,0.00717,-0.00653,-0.91129
 13:41:40.357,eb:33:2e:f9:57:b5, 2085-97-235 255:42:00:2041,-0.01,0.02,0.995,0.061,0.061,0.122,1.022,0.439,-131.38,-53.2,-41.1,-0.707,26.84,0.41156,0.00717,-0.00653,-0.91129
 13:41:40.417,eb:33:2e:f9:57:b5, 2085-97-233 255:38:00:2039,-0.012,0.02,0.997,0,0.122,0.122,1.022,0.439,-131.38,-53.2,-41.1,-0.707,26.84,0.41156,0.00717,-0.00653,-0.91129
 13:41:40.417,eb:33:2e:f9:57:b5, 2085-97-231 255:40:00:2038,-0.012,0.02,0.996,0,0.061,0,1.022,0.439,-131.38,-53.2,-41.1,-0.707,26.84,0.41156,0.00717,-0.00653,-0.91129
 13:41:40.417,eb:33:2e:f9:57:b5, 2085-97-227 255:37:00:2038,-0.011,0.02,0.996,0,0,0,1.022,0.439,-131.38,-53.2,-41.1,-0.707,26.84,0.41156,0.00717,-0.00653,-0.91129
 13:41:40.417,eb:33:2e:f9:57:b5, 2085-97-235 255:43:00:2040,-0.01,0.019,0.997,0.061,-0.061,0,1.022,0.439,-131.38,-53.2,-41.1,-0.707,26.84,0.41156,0.00717,-0.00653,-0.91129
 13:41:40.448,eb:33:2e:f9:57:b5, 2085-97-233 255:39:00:2036,-0.012,0.021,0.996,0,-0.061,0,1.022,0.439,-131.38,-53.2,-41.1,-0.707,26.84,0.41156,0.00717,-0.00653,-0.91129
 13:41:40.448,eb:33:2e:f9:57:b5, 2085-97-232 255:40:00:2037,-0.011,0.02,0.995,0,-0.183,-0.061,1.022,0.439,-131.38,-53.2,-41.1,-0.707,26.84,0.41156,0.00717,-0.00653,-0.91129
 13:41:40.448,eb:33:2e:f9:57:b5, 2085-97-238 255:40:00:2044,-0.009,0.019,0.997,0,-0.244,-0.061,1.022,0.439,-131.38,-53.2,-41.1,-0.707,26.84,0.41156,0.00717,-0.00653,-0.91129
 13:41:40.448,eb:33:2e:f9:57:b5, 2085-97-236 255:41:00:2042,-0.011,0.021,0.998,0,-0.122,-0.061,1.022,0.439,-131.38,-53.2,-41.1,-0.707,26.84,0.41156,0.00717,-0.00653,-0.91129
 13:41:40.478,eb:33:2e:f9:57:b5, 2085-97-235 255:40:00:2041,-0.01,0.019,0.995,0,-0.244,0,1.022,0.439,-131.38,-53,-41.1,-2.707,26.84,0.41156,0.00717,-0.00653,-0.91129
 13:41:40.478,eb:33:2e:f9:57:b5, 2085-97-231 255:37:00:2040,-0.011,0.02,0.997,0.061,-0.122,0,1.022,0.439,-131.38,-53,-41.1,-2.707,26.84,0.41156,0.00717,-0.00653,-0.91129
 13:41:40.478,eb:33:2e:f9:57:b5, 2085-97-236 255:42:00:2042,-0.01,0.02,0.996,0.061,-0.244,-0.061,1.022,0.439,-131.38,-53,-41.1,-2.707,26.84,0.41156,0.00717,-0.00653,-0.91129
 13:41:40.478,eb:33:2e:f9:57:b5, 2085-97-234 255:40:00:2041,-0.009,0.02,0.997,0,-0.244,-0.122,1.022,0.445,-131.38,-53,-41.1,-2.707,26.84,0.41156,0.00717,-0.00653,-0.91129
 13:41:40.538,eb:33:2e:f9:57:b5, 2085-97-234 255:39:00:2039,-0.012,0.021,0.997,0,-0.305,-0.061,1.022,0.445,-131.38,-53,-41.1,-2.707,26.84,0.41156,0.00717,-0.00653,-0.91129
 13:41:40.538,eb:33:2e:f9:57:b5, 2085-97-235 255:42:00:2039,-0.013,0.021,0.995,0,-0.305,-0.061,1.027,0.445,-131.38,-53,-41.1,-2.707,26.84,0.41156,0.00717,-0.00653,-0.91129
 13:41:40.538,eb:33:2e:f9:57:b5, 2085-97-232 255:39:00:2037,-0.011,0.019,0.993,0,-0.427,-0.061,1.027,0.445,-131.38,-53,-41.1,-2.707,26.84,0.41156,0.00717,-0.00653,-0.91129
 13:41:40.538,eb:33:2e:f9:57:b5, 2085-97-235 255:39:00:2039,-0.014,0.021,0.994,0,-0.61,-0.122,1.027,0.445,-131.38,-53,-41.1,-2.707,26.84,0.41156,0.00717,-0.00653,-0.91129
 13:41:40.566,eb:33:2e:f9:57:b5, 2085-97-232 255:37:00:2040,-0.007,0.017,0.996,0.183,-0.732,-0.061,1.027,0.445,-131.38,-53,-41.1,-2.707,26.84,0.41156,0.00723,-0.00656,-0.91125
 13:41:40.566,eb:33:2e:f9:57:b5, 2085-97-230 255:36:00:2034,-0.013,0.023,0.998,0.183,-0.61,-0.061,1.027,0.445,-131.38,-53,-41.1,-2.707,26.84,0.41156,0.00723,-0.00656,-0.91125
 13:41:40.566,eb:33:2e:f9:57:b5, 2085-97-233 255:36:00:2038,-0.015,0.018,0.994,0.244,-0.854,0.061,1.027,0.445,-131.38,-53,-41.1,-2.707,26.84,0.41156,0.00723,-0.00656,-0.91125
 13:41:40.566,eb:33:2e:f9:57:b5, 2085-97-237 255:45:00:2036,-0.012,0.018,0.992,0.366,-1.099,0.061,1.027,0.445,-131.38,-53,-41.1,-2.707,26.84,0.41156,0.00723,-0.00656,-0.91125
 13:41:40.598,eb:33:2e:f9:57:b5, 2085-97-223 255:33:00:2020,-0.021,0.02,0.989,0.305,-1.16,0.122,1.027,0.445,-131.38,-53,-41.1,-2.707,26.84,0.41156,0.00723,-0.00656,-0.91125
 13:41:40.598,eb:33:2e:f9:57:b5, 2085-97-226 255:40:00:2027,-0.013,0.015,0.985,0.427,-1.648,0.488,1.027,0.445,-131.38,-53,-41.1,-2.707,26.84,0.41156,0.00723,-0.00656,-0.91125
 13:41:40.598,eb:33:2e:f9:57:b5, 2085-97-235 255:41:00:2039,-0.006,0.021,0.992,0.61,-1.953,0.122,1.027,0.445,-131.38,-53,-41.1,-2.707,26.84,0.41156,0.00723,-0.00656,-0.91125
 13:41:40.598,eb:33:2e:f9:57:b5, 2085-97-250 255:46:00:2050,-0.004,0.021,0.999,0.671,-2.014,0,1.027,0.445,-131.38,-53,-41.1,-2.707,26.84,0.41156,0.00723,-0.00656,-0.91125
 13:41:40.656,eb:33:2e:f9:57:b5, 2085-97-252 255:45:00:2054,-0.002,0.022,1.001,0.61,-1.77,-0.061,1.027,0.445,-131.38,-53,-41.1,-2.707,26.84,0.41156,0.00723,-0.00656,-0.91125
 13:41:40.656,eb:33:2e:f9:57:b5, 2085-97-248 255:52:00:2042,-0.004,0.024,1,0.366,-1.343,-0.122,1.027,0.45,-131.38,-53,-41.1,-2.707,26.84,0.41156,0.00723,-0.00656,-0.91125
 13:41:40.656,eb:33:2e:f9:57:b5, 2085-97-235 255:43:00:2030,-0.01,0.024,0.997,0.183,-1.16,-0.244,1.027,0.45,-131.38,-53,-41.1,-2.707,26.84,0.41156,0.00723,-0.00656,-0.91125
 13:41:40.656,eb:33:2e:f9:57:b5, 2085-97-237 255:45:00:2027,-0.005,0.022,0.99,0.061,-1.282,-0.183,1.027,0.45,-131.38,-53,-41.1,-2.707,26.84,0.41156,0.00723,-0.00656,-0.91125
 13:41:40.687,eb:33:2e:f9:57:b5, 2085-97-227 255:45:00:2010,-0.022,0.025,0.989,0,-1.404,-0.244,1.027,0.45,-131.38,-53,-41.1,-2.707,26.84,0.41156,0.00723,-0.00656,-0.91125
 13:41:40.687,eb:33:2e:f9:57:b5, 2085-97-228 255:51:00:2019,-0.013,0.02,0.979,0.122,-2.38,-0.549,1.027,0.45,-131.38,-53,-41.1,-2.707,26.84,0.41156,0.00723,-0.00656,-0.91125
 13:41:40.687,eb:33:2e:f9:57:b5, 2085-97-230 255:48:00:2028,-0.01,0.023,0.988,0.183,-2.869,-1.343,1.027,0.439,-131.385,-53,-41.1,-2.707,26.84,0.41156,0.00723,-0.00656,-0.91125
 13:41:40.687,eb:33:2e:f9:57:b5, 2085-97-254 255:30:00:2060,0.006,0.021,0.994,0.244,-3.235,-1.709,1.033,0.406,-131.402,-53,-41.1,-2.707,26.84,0.41156,0.00723,-0.00656,-0.91125
 13:41:40.717,eb:33:2e:f9:57:b5, 2085-97-33 00:31:00:2104,0.009,0.009,1.018,0.977,-2.563,-1.343,1.038,0.379,-131.418,-53,-41.1,-2.707,26.84,0.41156,0.00723,-0.00656,-0.91125
 13:41:40.717,eb:33:2e:f9:57:b5, 2085-97-253 255:29:00:2072,-0.001,0.02,1.022,1.16,-0.732,-0.732,1.044,0.363,-131.429,-53,-41.1,-2.707,26.84,0.41156,0.00723,-0.00656,-0.91125
 13:41:40.717,eb:33:2e:f9:57:b5, 2085-97-14 00:37:00:2083,0.004,0.012,1.012,1.526,-0.427,-0.061,1.06,0.352,-131.435,-53,-41.1,-2.707,26.84,0.41156,0.00723,-0.00656,-0.91125
 13:41:40.717,eb:33:2e:f9:57:b5, 2085-97-248 255:50:00:2051,-0.007,0.024,1.012,1.465,0.549,0.122,1.071,0.352,-131.435,-53,-41.1,-2.707,26.84,0.41156,0.00723,-0.00656,-0.91125
 13:41:40.777,eb:33:2e:f9:57:b5, 2085-97-243 255:48:00:2041,-0.005,0.024,0.997,1.282,0.549,0.061,1.088,0.357,-131.435,-53,-41.1,-2.707,26.84,0.41156,0.00723,-0.00656,-0.91125
 13:41:40.777,eb:33:2e:f9:57:b5, 2085-97-247 255:58:00:2036,-0.006,0.024,0.996,1.099,0.366,0,1.099,0.363,-131.435,-53,-41.1,-2.707,26.84,0.41156,0.00723,-0.00656,-0.91125
 13:41:40.777,eb:33:2e:f9:57:b5, 2085-97-244 255:58:00:2032,-0.007,0.027,0.992,0.854,0.366,-0.427,1.11,0.368,-131.44,-53,-41.1,-2.707,26.84,0.41156,0.00723,-0.00656,-0.91125
 13:41:40.777,eb:33:2e:f9:57:b5, 2085-97-246 255:48:00:2040,0,0.025,0.991,0.671,0.061,-0.732,1.115,0.368,-131.446,-53,-41.1,-2.707,26.84,0.41156,0.00723,-0.00656,-0.91125
 13:41:40.837,eb:33:2e:f9:57:b5, 2085-97-249 255:53:00:2041,-0.007,0.027,1,0.549,0.183,-1.16,1.121,0.368,-131.457,-51.8,-41.8,-2.907,26.84,0.41156,0.00723,-0.00656,-0.91125
 13:41:40.837,eb:33:2e:f9:57:b5, 2085-97-232 255:44:00:2028,-0.01,0.024,0.992,0.427,0.183,-1.404,1.126,0.368,-131.473,-51.8,-41.8,-2.907,26.84,0.41156,0.00723,-0.00656,-0.91125
 13:41:40.837,eb:33:2e:f9:57:b5, 2085-97-243 255:50:00:2035,-0.004,0.022,0.991,0.488,-0.305,-1.648,1.126,0.368,-131.49,-51.8,-41.8,-2.907,26.84,0.41156,0.00723,-0.00656,-0.91125
 13:41:40.837,eb:33:2e:f9:57:b5, 2085-97-249 255:56:00:2037,-0.008,0.024,0.994,0.671,-0.427,-2.197,1.132,0.363,-131.506,-51.8,-41.8,-2.907,26.84,0.41156,0.00723,-0.00656,-0.91125
 13:41:40.839,eb:33:2e:f9:57:b5, 2085-97-231 255:43:00:2021,-0.01,0.023,0.992,0.793,-0.427,-2.563,1.143,0.357,-131.534,-51.8,-41.8,-2.907,26.84,0.41156,0.00723,-0.00656,-0.91125
 13:41:40.839,eb:33:2e:f9:57:b5, 2085-97-245 255:52:00:2032,-0.008,0.021,0.989,0.977,-0.854,-2.991,1.148,0.352,-131.561,-51.8,-41.8,-2.907,26.84,0.41156,0.00723,-0.00656,-0.91125
 13:41:40.839,eb:33:2e:f9:57:b5, 2085-97-243 255:55:00:2025,-0.015,0.027,0.988,0.854,-0.854,-2.808,1.159,0.341,-131.594,-51.8,-41.8,-2.907,26.84,0.41156,0.00723,-0.00656,-0.91125
 13:41:40.839,eb:33:2e:f9:57:b5, 2085-97-221 255:42:00:2020,-0.01,0.022,0.984,0.977,-0.977,-3.113,1.165,0.33,-131.627,-51.8,-41.8,-2.907,26.84,0.41156,0.00723,-0.00656,-0.91125
 13:41:40.898,eb:33:2e:f9:57:b5, 2085-97-244 255:47:00:2035,-0.008,0.02,0.993,1.221,-1.465,-3.54,1.176,0.319,-131.66,-51.8,-41.8,-2.907,26.84,0.41156,0.00723,-0.00656,-0.91125
 13:41:40.898,eb:33:2e:f9:57:b5, 2085-97-227 255:47:00:2025,-0.015,0.025,0.993,1.038,-1.465,-3.296,1.187,0.302,-131.693,-51.8,-41.8,-2.907,26.84,0.41156,0.00723,-0.00656,-0.91125
 13:41:40.898,eb:33:2e:f9:57:b5, 2085-97-231 255:48:00:2028,-0.005,0.022,0.989,0.916,-1.892,-3.662,1.198,0.286,-131.732,-51.8,-41.8,-2.907,26.84,0.41156,0.00723,-0.00656,-0.91125
 13:41:40.898,eb:33:2e:f9:57:b5, 2085-97-246 255:58:00:2037,-0.001,0.027,0.997,0.793,-2.38,-4.028,1.203,0.264,-131.77,-51.8,-41.8,-2.907,26.84,0.41156,0.00723,-0.00656,-0.91125
 13:41:40.927,eb:33:2e:f9:57:b5, 2085-97-251 255:58:00:2043,-0.001,0.031,0.997,0.488,-2.502,-4.456,1.208,0.236,-131.814,-51.8,-41.8,-2.907,26.84,0.40894,0.00662,-0.00842,-0.91245
 13:41:40.928,eb:33:2e:f9:57:b5, 2085-97-05 00:41:00:2059,0.005,0.024,1.001,0.366,-2.319,-4.639,1.214,0.214,-131.863,-51.8,-41.8,-2.907,26.84,0.40894,0.00662,-0.00842,-0.91245
 13:41:40.928,eb:33:2e:f9:57:b5, 2085-97-03 00:47:00:2055,0.003,0.022,1.007,0.427,-2.075,-4.395,1.214,0.187,-131.913,-51.8,-41.8,-2.907,26.84,0.40894,0.00662,-0.00842,-0.91245
 13:41:40.928,eb:33:2e:f9:57:b5, 2085-97-00 00:44:00:2057,0.005,0.025,1.006,0.244,-1.587,-4.028,1.219,0.17,-131.951,-51.8,-41.8,-2.907,26.84,0.40894,0.00662,-0.00842,-0.91245
 13:41:40.957,eb:33:2e:f9:57:b5, 2085-97-06 00:41:00:2062,0.002,0.021,1.009,0.305,-1.221,-3.784,1.219,0.154,-131.995,-51.8,-41.8,-2.907,26.84,0.40894,0.00662,-0.00842,-0.91245
 13:41:40.957,eb:33:2e:f9:57:b5, 2085-97-236 255:41:00:2035,-0.005,0.024,1.003,0.244,-0.916,-3.357,1.225,0.143,-132.028,-51.8,-41.8,-2.907,26.84,0.40894,0.00662,-0.00842,-0.91245
 13:41:40.957,eb:33:2e:f9:57:b5, 2085-97-241 255:42:00:2040,-0.003,0.023,0.998,0.244,-1.038,-3.052,1.225,0.132,-132.061,-51.8,-41.8,-2.907,26.84,0.40894,0.00662,-0.00842,-0.91245
 13:41:40.957,eb:33:2e:f9:57:b5, 2085-97-00 00:38:00:2055,0.007,0.02,1,0.427,-1.099,-2.747,1.225,0.121,-132.094,-51.8,-41.8,-2.907,26.84,0.40894,0.00662,-0.00842,-0.91245
 13:41:41.018,eb:33:2e:f9:57:b5, 2085-97-06 00:54:00:2055,0.002,0.024,1.007,0.488,-0.671,-2.502,1.23,0.11,-132.122,-51.8,-41.8,-2.907,26.84,0.40894,0.00662,-0.00842,-0.91245
 13:41:41.018,eb:33:2e:f9:57:b5, 2085-97-255 255:50:00:2048,0,0.028,1.001,0.366,-0.305,-2.38,1.236,0.104,-132.144,-51.8,-41.8,-2.907,26.84,0.40894,0.00662,-0.00842,-0.91245
 13:41:41.019,eb:33:2e:f9:57:b5, 2085-97-249 255:33:00:2047,0,0.021,1.003,0.549,-0.061,-2.319,1.241,0.099,-132.171,-51.8,-41.8,-2.907,26.84,0.40894,0.00662,-0.00842,-0.91245
 13:41:41.019,eb:33:2e:f9:57:b5, 2085-97-245 255:48:00:2038,0,0.025,1.001,0.671,0,-1.709,1.247,0.099,-132.188,-51.8,-41.8,-2.907,26.84,0.40894,0.00662,-0.00842,-0.91245
 13:41:41.046,eb:33:2e:f9:57:b5, 2085-97-253 255:49:00:2048,-0.005,0.025,0.999,0.549,0,-1.465,1.252,0.099,-132.204,-51.8,-41.8,-2.907,26.84,0.40894,0.00662,-0.00842,-0.91245
 13:41:41.046,eb:33:2e:f9:57:b5, 2085-97-255 255:45:00:2056,-0.001,0.019,0.999,0.732,0.122,-1.221,1.258,0.099,-132.22,-51.8,-41.8,-2.907,26.84,0.40894,0.00662,-0.00842,-0.91245
 13:41:41.046,eb:33:2e:f9:57:b5, 2085-97-242 255:44:00:2045,-0.011,0.024,1.002,0.793,0.61,-1.038,1.263,0.104,-132.231,-51.8,-41.8,-2.907,26.84,0.40894,0.00662,-0.00842,-0.91245
 13:41:41.046,eb:33:2e:f9:57:b5, 2085-97-251 255:46:00:2050,-0.004,0.019,0.994,0.977,0.488,-0.977,1.274,0.11,-132.242,-51.8,-41.8,-2.907,26.84,0.40894,0.00662,-0.00842,-0.91245
 13:41:41.078,eb:33:2e:f9:57:b5, 2085-97-252 255:45:00:2060,0,0.02,1.001,1.404,0.916,-0.916,1.285,0.115,-132.253,-51.8,-41.8,-2.907,26.84,0.40894,0.00662,-0.00842,-0.91245
 13:41:41.078,eb:33:2e:f9:57:b5, 2085-97-253 255:45:00:2061,0.001,0.025,1.008,1.465,1.221,-0.732,1.296,0.126,-132.264,-51.8,-41.8,-2.907,26.84,0.40894,0.00662,-0.00842,-0.91245
 13:41:41.078,eb:33:2e:f9:57:b5, 2085-97-11 00:50:00:2078,0.01,0.022,1.01,1.587,1.526,-0.305,1.313,0.137,-132.27,-51.8,-41.8,-2.907,26.84,0.40894,0.00662,-0.00842,-0.91245
 13:41:41.078,eb:33:2e:f9:57:b5, 2085-97-33 00:62:00:2094,0.003,0.027,1.016,1.648,2.563,0,1.329,0.159,-132.275,-51.8,-41.8,-2.907,26.84,0.40894,0.00662,-0.00842,-0.91245
 13:41:41.138,eb:33:2e:f9:57:b5, 2085-97-12 00:59:00:2072,-0.003,0.025,1.015,1.282,3.601,0.61,1.34,0.192,-132.27,-51.8,-41.8,-2.907,26.84,0.40894,0.00662,-0.00842,-0.91245
 13:41:41.138,eb:33:2e:f9:57:b5, 2085-113-58 00:46:225:-6375,0.008,0.022,1.006,1.099,3.662,1.343,1.351,0.225,-132.264,-51.8,-41.8,-2.907,26.84,0.40894,0.00662,-0.00842,-0.91245
 13:41:41.138,eb:33:2e:f9:57:b5, 2085-97-22 00:55:00:2088,0.017,0.028,1.018,0.793,3.906,1.648,1.357,0.247,-132.253,-51.8,-41.8,-2.907,26.84,0.40894,0.00662,-0.00842,-0.91245
 13:41:41.138,eb:33:2e:f9:57:b5, 2085-97-25 00:61:00:2097,0.016,0.03,1.036,0.305,4.272,2.808,1.362,0.286,-132.231,-51.8,-41.8,-2.907,26.84,0.40894,0.00662,-0.00842,-0.91245
 13:41:41.169,eb:33:2e:f9:57:b5, 2085-97-39 00:78:00:2097,0.021,0.033,1.025,-0.732,4.456,4.456,1.362,0.324,-132.193,-52.6,-42.5,-1.547,26.84,0.40894,0.00662,-0.00842,-0.91245
 13:41:41.169,eb:33:2e:f9:57:b5, 2085-97-15 00:67:00:2090,0.012,0.04,1.033,-2.197,5.31,6.287,1.34,0.374,-132.138,-52.6,-42.5,-1.547,26.84,0.40894,0.00662,-0.00842,-0.91245
 13:41:41.169,eb:33:2e:f9:57:b5, 2085-97-43 00:58:00:2126,0.045,0.026,1.041,-2.747,5.127,7.507,1.318,0.423,-132.067,-52.6,-42.5,-1.547,26.84,0.40894,0.00662,-0.00842,-0.91245
 13:41:41.169,eb:33:2e:f9:57:b5, 2085-97-96 00:85:00:2161,0.08,0.036,1.059,-2.38,5.554,8.972,1.285,0.472,-131.979,-52.6,-42.5,-1.547,26.84,0.40894,0.00662,-0.00842,-0.91245
 13:41:41.197,eb:33:2e:f9:57:b5, 2085-97-181 00:94:00:2291,0.092,0.048,1.098,-1.526,9.705,9.338,1.269,0.544,-131.885,-52.6,-42.5,-1.547,26.84,0.40894,0.00662,-0.00842,-0.91245
 13:41:41.197,eb:33:2e:f9:57:b5, 2085-97-06 01:108:00:2440,0.156,0.043,1.136,0.061,17.09,9.033,1.263,0.676,-131.792,-52.6,-42.5,-1.547,26.84,0.40894,0.00662,-0.00842,-0.91245
 13:41:41.197,eb:33:2e:f9:57:b5, 2085-97-143 01:04:00:2915,0.196,0.043,1.261,1.831,31.921,9.399,1.269,0.917,-131.699,-52.6,-42.5,-1.547,26.84,0.40894,0.00662,-0.00842,-0.91245
 13:41:41.198,eb:33:2e:f9:57:b5, 2085-97-85 01:198:255:3077,0.166,0.053,1.415,4.333,59.57,6.714,1.307,1.384,-131.605,-52.6,-42.5,-1.547,26.84,0.40894,0.00662,-0.00842,-0.91245
 13:41:41.256,eb:33:2e:f9:57:b5, 2085-97-201 255:38:253:3826,-0.047,-0.041,1.59,7.874,93.628,5.676,1.362,2.159,-131.517,-52.6,-42.5,-1.547,26.84,0.40933,0.01349,-0.00626,-0.9122
 13:41:41.256,eb:33:2e:f9:57:b5, 2085-97-160 02:247:00:3991,0.138,-0.047,1.664,30.273,96.741,6.409,1.527,3.214,-131.407,-52.6,-42.5,-1.547,26.84,0.40933,0.01349,-0.00626,-0.9122
 13:41:41.256,eb:33:2e:f9:57:b5, 2085-97-234 255:217:254:3761,0.123,-0.091,1.907,51.453,109.314,-4.944,1.978,4.213,-131.413,-52.6,-42.5,-1.547,26.84,0.40933,0.01349,-0.00626,-0.9122
 13:41:41.256,eb:33:2e:f9:57:b5, 2085-97-109 01:184:00:3589,0.13,0.028,1.842,58.655,121.277,0.854,2.527,5.378,-131.369,-52.6,-42.5,-1.547,26.84,0.40933,0.01349,-0.00626,-0.9122
 13:41:41.287,eb:33:2e:f9:57:b5, 2085-97-212 00:156:255:4094,0.172,0.024,1.805,69.641,126.587,-3.113,3.192,6.608,-131.331,-52.6,-42.5,-1.547,26.84,0.40933,0.01349,-0.00626,-0.9122
 13:41:41.287,eb:33:2e:f9:57:b5, 2085-97-251 01:225:254:4469,0.296,-0.146,2.131,56.458,162.354,9.888,3.84,8.042,-131.21,-52.6,-42.5,-1.547,26.84,0.40933,0.01349,-0.00626,-0.9122
 13:41:41.287,eb:33:2e:f9:57:b5, 2085-97-228 02:186:00:4283,0.449,-0.038,2.183,42.969,208.923,21.667,4.373,9.904,-130.897,-52.6,-42.5,-1.547,26.84,0.40933,0.01349,-0.00626,-0.9122
 13:41:41.287,eb:33:2e:f9:57:b5, 2085-97-134 02:145:00:3794,0.355,0.018,1.849,35.95,237.488,21.79,4.845,12.151,-130.496,-52.6,-42.5,-1.547,26.84,0.40933,0.01349,-0.00626,-0.9122
 13:41:41.317,eb:33:2e:f9:57:b5, 2085-97-184 02:252:253:4235,0.31,-0.092,2.114,0.122,277.527,36.072,5.147,14.661,-129.974,-52.6,-42.5,-1.547,26.84,0.40933,0.01349,-0.00626,-0.9122
 13:41:41.317,eb:33:2e:f9:57:b5, 2085-97-242 02:51:254:3572,0.427,-0.226,1.912,-29.419,321.594,56.641,5.191,17.655,-129.188,-52.6,-42.5,-1.547,26.84,0.40933,0.01349,-0.00626,-0.9122
 13:41:41.317,eb:33:2e:f9:57:b5, 2085-97-90 04:37:252:2867,0.496,-0.167,1.594,-55.115,346.802,77.271,5.098,20.934,-128.156,-52.6,-42.5,-1.547,26.84,0.40933,0.01349,-0.00626,-0.9122
 13:41:41.317,eb:33:2e:f9:57:b5, 2085-97-173 00:132:245:-723,0.277,-1.488,0.84,-48.95,343.018,159.668,5.103,24.34,-126.634,-52.6,-42.5,-1.547,26.84,0.40933,0.01349,-0.00626,-0.9122
 13:41:41.377,eb:33:2e:f9:57:b5, 2085-97-208 05:125:253:-968,0.803,-0.565,-0.891,4.089,169.678,253.296,6.092,26.68,-123.959,-52.6,-42.5,-1.547,26.84,0.40933,0.01349,-0.00626,-0.9122
 13:41:41.377,eb:33:2e:f9:57:b5, 2085-97-244 06:99:253:1177,0.917,-0.388,0.065,37.537,41.321,304.626,7.806,27.241,-120.685,-52.6,-42.5,-1.547,26.84,0.40933,0.01349,-0.00626,-0.9122
 13:41:41.377,eb:33:2e:f9:57:b5, 2085-97-151 07:78:255:2236,0.964,-0.199,0.922,59.143,18.677,334.045,9.97,26.955,-117.065,-52.6,-42.5,-1.547,26.84,0.40933,0.01349,-0.00626,-0.9122
 13:41:41.377,eb:33:2e:f9:57:b5, 2085-97-07 08:255:00:1695,1.045,0.018,1.04,61.768,40.283,341.37,12.294,26.598,-113.269,-52.6,-42.5,-1.547,26.84,0.40933,0.01349,-0.00626,-0.9122
 13:41:41.407,eb:33:2e:f9:57:b5, 2085-97-133 08:34:02:856,1.064,0.211,0.584,60.12,35.889,330.505,14.573,26.213,-109.506,-52.6,-42.5,-1.547,26.84,0.40933,0.01349,-0.00626,-0.9122
 13:41:41.407,eb:33:2e:f9:57:b5, 2085-97-86 08:48:02:741,1.011,0.292,0.355,65.308,2.747,301.819,16.699,25.543,-106.062,-52.6,-42.5,-1.547,26.84,0.40933,0.01349,-0.00626,-0.9122
 13:41:41.407,eb:33:2e:f9:57:b5, 2085-97-202 07:124:01:850,0.929,0.235,0.393,72.327,-23.682,271.423,18.644,24.554,-103.107,-52.6,-42.5,-1.547,26.84,0.40933,0.01349,-0.00626,-0.9122
 13:41:41.407,eb:33:2e:f9:57:b5, 2085-97-17 07:173:00:854,0.836,0.139,0.417,74.097,-39.246,244.934,20.413,23.384,-100.585,-52.6,-42.5,-1.547,26.84,0.40933,0.01349,-0.00626,-0.9122
 13:41:41.437,eb:33:2e:f9:57:b5, 2085-97-92 06:218:255:863,0.75,0.028,0.414,63.904,-49.866,224.854,21.951,22.121,-98.405,-56.9,-39.3,-11.913,26.84,0.40933,0.01349,-0.00626,-0.9122
 13:41:41.437,eb:33:2e:f9:57:b5, 2085-97-175 05:70:255:915,0.697,-0.06,0.432,39.978,-57.007,211.182,23.17,20.781,-96.476,-56.9,-39.3,-11.913,26.84,0.40933,0.01349,-0.00626,-0.9122
 13:41:41.437,eb:33:2e:f9:57:b5, 2085-97-133 05:16:255:995,0.697,-0.108,0.475,7.324,-59.265,201.355,23.994,19.418,-94.724,-56.9,-39.3,-11.913,26.84,0.40933,0.01349,-0.00626,-0.9122
 13:41:41.437,eb:33:2e:f9:57:b5, 2085-97-159 05:67:255:969,0.704,-0.11,0.489,-22.949,-58.533,190.979,24.417,18.073,-93.093,-56.9,-39.3,-11.913,26.84,0.40933,0.01349,-0.00626,-0.9122
 13:41:41.499,eb:33:2e:f9:57:b5, 2085-97-144 05:183:255:854,0.677,-0.062,0.446,-43.091,-62.439,175.964,24.51,16.765,-91.609,-56.9,-39.3,-11.913,26.84,0.40933,0.01349,-0.00626,-0.9122
 13:41:41.499,eb:33:2e:f9:57:b5, 2085-97-46 05:211:255:845,0.618,-0.021,0.403,-54.504,-75.073,156.311,24.362,15.452,-90.341,-56.9,-39.3,-11.913,26.84,0.40933,0.01349,-0.00626,-0.9122
 13:41:41.499,eb:33:2e:f9:57:b5, 2085-97-171 04:127:255:1059,0.551,-0.038,0.459,-65.491,-89.844,136.475,24.016,14.095,-89.324,-56.9,-39.3,-11.913,26.84,0.40933,0.01349,-0.00626,-0.9122
 13:41:41.499,eb:33:2e:f9:57:b5, 2085-97-15 04:247:254:1332,0.474,-0.098,0.586,-82.275,-97.473,119.995,23.456,12.711,-88.522,-56.9,-39.3,-11.913,26.84,0.40933,0.01349,-0.00626,-0.9122
 13:41:41.528,eb:33:2e:f9:57:b5, 2085-97-142 03:201:254:1542,0.419,-0.144,0.712,-102.356,-98.267,107.178,22.665,11.36,-87.858,-56.9,-39.3,-11.913,26.84,0.66772,0.23611,-0.05774,-0.70352
 13:41:41.528,eb:33:2e:f9:57:b5, 2085-97-60 03:183:254:1610,0.391,-0.158,0.773,-121.033,-96.191,95.764,21.638,10.074,-87.281,-56.9,-39.3,-11.913,26.84,0.66772,0.23611,-0.05774,-0.70352
 13:41:41.528,eb:33:2e:f9:57:b5, 2085-97-249 02:162:254:1721,0.351,-0.164,0.807,-134.094,-97.656,85.388,20.429,8.849,-86.786,-56.9,-39.3,-11.913,26.84,0.66772,0.23611,-0.05774,-0.70352
 13:41:41.528,eb:33:2e:f9:57:b5, 2085-97-181 02:127:254:1878,0.329,-0.179,0.877,-144.043,-101.746,76.721,19.089,7.63,-86.364,-56.9,-39.3,-11.913,26.84,0.66772,0.23611,-0.05774,-0.70352
 13:41:41.586,eb:33:2e:f9:57:b5, 2085-97-138 02:97:254:2072,0.304,-0.197,0.963,-154.297,-103.21,71.045,17.639,6.422,-85.99,-56.9,-39.3,-11.913,26.84,0.66772,0.23611,-0.05774,-0.70352
 13:41:41.586,eb:33:2e:f9:57:b5, 2085-97-101 02:141:254:2307,0.304,-0.199,1.068,-164.795,-102.6,67.688,16.068,5.229,-85.627,-56.9,-39.3,-11.913,26.84,0.66772,0.23611,-0.05774,-0.70352
 13:41:41.586,eb:33:2e:f9:57:b5, 2085-97-123 02:60:255:2526,0.315,-0.14,1.183,-174.683,-97.778,63.538,14.392,4.087,-85.254,-56.9,-39.3,-11.913,26.84,0.66772,0.23611,-0.05774,-0.70352
 13:41:41.586,eb:33:2e:f9:57:b5, 2085-97-132 02:07:00:2767,0.303,-0.045,1.292,-177.612,-91.064,56.152,12.64,3.027,-84.897,-56.9,-39.3,-11.913,26.84,0.66772,0.23611,-0.05774,-0.70352
 13:41:41.617,eb:33:2e:f9:57:b5, 2085-97-98 02:170:00:2952,0.288,0.049,1.385,-172.913,-83.435,44.983,10.898,2.071,-84.578,-56.9,-39.3,-11.913,26.84,0.66772,0.23611,-0.05774,-0.70352
 13:41:41.617,eb:33:2e:f9:57:b5, 2085-97-19 02:246:00:3233,0.222,0.106,1.513,-163.513,-74.341,32.715,9.218,1.225,-84.342,-56.9,-39.3,-11.913,26.84,0.66772,0.23611,-0.05774,-0.70352
 13:41:41.617,eb:33:2e:f9:57:b5, 2085-97-113 01:14:01:3423,0.143,0.125,1.635,-153.32,-63.11,23.132,7.641,0.511,-84.177,-56.9,-39.3,-11.913,26.84,0.66772,0.23611,-0.05774,-0.70352
 13:41:41.617,eb:33:2e:f9:57:b5, 2085-97-187 00:139:01:3508,0.031,0.154,1.701,-145.935,-52.795,18.25,6.147,-0.088,-84.051,-56.9,-39.3,-11.913,26.84,0.66772,0.23611,-0.05774,-0.70352
 13:41:41.648,eb:33:2e:f9:57:b5, 2085-97-142 255:201:02:3382,-0.151,0.259,1.703,-138,-46.631,15.381,4.73,-0.593,-83.93,-56.9,-39.3,-11.913,26.84,0.66772,0.23611,-0.05774,-0.70352
 13:41:41.648,eb:33:2e:f9:57:b5, 2085-97-247 253:195:04:3170,-0.344,0.464,1.591,-125.732,-54.382,9.46,3.406,-1.099,-83.837,-56.9,-39.3,-11.913,26.84,0.66772,0.23611,-0.05774,-0.70352
 13:41:41.648,eb:33:2e:f9:57:b5, 2085-97-123 252:06:07:3081,-0.554,0.74,1.528,-113.159,-78.186,-0.244,2.219,-1.769,-83.831,-56.9,-39.3,-11.913,26.84,0.66772,0.23611,-0.05774,-0.70352
 13:41:41.648,eb:33:2e:f9:57:b5, 2085-97-163 250:227:08:2835,-0.775,1.01,1.436,-108.276,-109.131,-12.329,1.121,-2.719,-83.925,-56.9,-39.3,-11.913,26.84,0.66772,0.23611,-0.05774,-0.70352
 13:41:41.708,eb:33:2e:f9:57:b5, 2085-97-47 249:235:09:2937,-0.924,1.179,1.382,-109.253,-136.963,-23.254,0.044,-3.977,-84.122,-56.9,-39.3,-11.913,26.84,0.66772,0.23611,-0.05774,-0.70352
 13:41:41.708,eb:33:2e:f9:57:b5, 2085-97-42 248:209:10:3324,-1.042,1.299,1.518,-111.572,-143.738,-29.297,-1.038,-5.411,-84.386,-56.9,-39.3,-11.913,26.84,0.66772,0.23611,-0.05774,-0.70352
 13:41:41.708,eb:33:2e:f9:57:b5, 2085-97-10 248:142:11:3879,-1.346,1.389,1.676,-114.075,-126.831,-29.419,-2.142,-6.779,-84.65,-56.9,-39.3,-11.913,26.84,0.66772,0.23611,-0.05774,-0.70352
 13:41:41.708,eb:33:2e:f9:57:b5, 2085-97-14 244:157:12:1501,-0.996,1.469,3.602,-96.985,-25.452,-24.231,-3.164,-7.657,-84.88,-56.9,-39.3,-11.913,26.84,0.66772,0.23611,-0.05774,-0.70352
 13:41:41.708,eb:33:2e:f9:57:b5, 2085-97-132 244:218:11:3983,-2.179,1.625,1.419,-79.041,-10.315,-2.869,-4.059,-7.932,-84.985,-56.9,-39.3,-11.913,26.84,0.66772,0.23611,-0.05774,-0.70352
 13:41:41.737,eb:33:2e:f9:57:b5, 2085-113-58 00:103:228:-1515,-0.226,2.173,0.027,-0.488,-56.824,12.756,-4.499,-7.949,-84.919,-47.1,-10.1,-3.447,26.84,0.66772,0.23611,-0.05774,-0.70352
 13:41:41.737,eb:33:2e:f9:57:b5, 2085-97-27 248:110:12:5562,-2.679,2.208,0.551,27.893,-46.448,-0.549,-4.433,-8.24,-84.913,-47.1,-10.1,-3.447,26.84,0.66772,0.23611,-0.05774,-0.70352
 13:41:41.737,eb:33:2e:f9:57:b5, 2085-97-169 238:195:09:3499,-2.14,1.365,0.727,56.946,4.944,35.95,-3.972,-8.229,-84.798,-47.1,-10.1,-3.447,26.84,0.66772,0.23611,-0.05774,-0.70352
 13:41:41.737,eb:33:2e:f9:57:b5, 2085-97-204 237:58:15:2235,-1.888,1.214,1.767,66.284,108.276,96.069,-3.527,-7.328,-84.089,-47.1,-10.1,-3.447,26.84,0.66772,0.23611,-0.05774,-0.70352
 13:41:41.769,eb:33:2e:f9:57:b5, 2085-97-34 243:169:08:1986,-0.689,1.771,1.685,115.601,140.991,112.854,-2.642,-6.163,-83.051,-47.1,-10.1,-3.447,26.84,0.66772,0.23611,-0.05774,-0.70352
 13:41:41.769,eb:33:2e:f9:57:b5, 2085-97-09 253:53:05:2230,-0.121,0.739,1.049,89.966,158.569,121.216,-1.692,-4.576,-81.903,-47.1,-10.1,-3.447,26.84,0.66772,0.23611,-0.05774,-0.70352
 13:41:41.769,eb:33:2e:f9:57:b5, 2085-97-176 00:169:00:2335,-0.082,0.512,1.137,45.532,137.024,66.589,-1.121,-3.043,-80.969,-47.1,-10.1,-3.447,26.84,0.66772,0.23611,-0.05774,-0.70352
 13:41:41.769,eb:33:2e:f9:57:b5, 2085-97-51 253:22:00:1867,-0.412,0.091,1.069,49.011,77.698,-16.296,-0.681,-1.989,-80.799,-47.1,-10.1,-3.447,26.84,0.66772,0.23611,-0.05774,-0.70352
 13:41:41.828,eb:33:2e:f9:57:b5, 2085-97-82 252:51:00:1902,-0.27,-0.105,0.865,64.758,37.109,-42.175,-0.093,-1.489,-81.172,-47.1,-10.1,-3.447,26.84,0.76126,-0.0199,-0.01105,-0.64795
 13:41:41.828,eb:33:2e:f9:57:b5, 2085-97-126 254:51:01:1664,0,0.069,0.857,47.546,22.644,-30.334,0.494,-1.17,-81.557,-47.1,-10.1,-3.447,26.84,0.76126,-0.0199,-0.01105,-0.64795
 13:41:41.828,eb:33:2e:f9:57:b5, 2085-97-03 02:172:255:2362,0.367,0.162,0.92,25.879,-13.611,-4.822,0.846,-1.176,-81.705,-47.1,-10.1,-3.447,26.84,0.76126,-0.0199,-0.01105,-0.64795
 13:41:41.828,eb:33:2e:f9:57:b5, 2085-97-111 01:80:00:2242,-0.11,-0.1,1.282,23.865,29.053,7.324,1.077,-1.137,-81.672,-47.1,-10.1,-3.447,26.84,0.76126,-0.0199,-0.01105,-0.64795
 13:41:41.858,eb:33:2e:f9:57:b5, 2085-97-33 253:134:01:1248,-0.275,0.256,0.77,11.963,38.208,8.179,1.274,-0.714,-81.579,-47.1,-10.1,-3.447,26.84,0.76126,-0.0199,-0.01105,-0.64795
 13:41:41.858,eb:33:2e:f9:57:b5, 2085-97-237 253:44:255:1666,-0.02,0.107,0.785,5.432,7.263,-4.822,1.357,-0.582,-81.573,-47.1,-10.1,-3.447,26.84,0.76126,-0.0199,-0.01105,-0.64795
 13:41:41.858,eb:33:2e:f9:57:b5, 2085-97-250 00:151:00:2209,0.109,-0.049,0.969,8.24,-4.517,-1.038,1.428,-0.582,-81.606,-47.1,-10.1,-3.447,26.84,0.76126,-0.0199,-0.01105,-0.64795
 13:41:41.858,eb:33:2e:f9:57:b5, 2085-97-20 00:63:00:2044,-0.02,0.083,1.067,5.066,4.578,-1.831,1.5,-0.582,-81.617,-47.1,-10.1,-3.447,26.84,0.76126,-0.0199,-0.01105,-0.64795
 13:41:41.886,eb:33:2e:f9:57:b5, 2085-97-204 255:38:00:2016,-0.034,0.013,0.996,3.723,2.625,0,1.538,-0.549,-81.628,-47.1,-10.1,-3.447,26.84,0.76126,-0.0199,-0.01105,-0.64795
 13:41:41.886,eb:33:2e:f9:57:b5, 2085-97-201 255:24:00:2000,-0.021,0.018,0.97,2.93,0.244,0.122,1.571,-0.533,-81.628,-47.1,-10.1,-3.447,26.84,0.76126,-0.0199,-0.01105,-0.64795
 13:41:41.886,eb:33:2e:f9:57:b5, 2085-97-24 00:65:00:2055,0.019,0.015,0.98,2.502,-2.808,0.793,1.599,-0.549,-81.623,-47.1,-10.1,-3.447,26.84,0.76126,-0.0199,-0.01105,-0.64795
 13:41:41.886,eb:33:2e:f9:57:b5, 2085-97-16 00:36:00:2067,-0.006,0.03,1.01,0.977,-2.197,1.404,1.615,-0.577,-81.617,-47.1,-10.1,-3.447,26.84,0.76126,-0.0199,-0.01105,-0.64795
 13:41:41.947,eb:33:2e:f9:57:b5, 2085-97-247 255:22:00:2054,0.012,0.01,1.004,0.488,-1.892,2.197,1.62,-0.593,-81.601,-47.1,-10.1,-3.447,26.84,0.76126,-0.0199,-0.01105,-0.64795
 13:41:41.947,eb:33:2e:f9:57:b5, 2085-97-11 00:27:00:2065,0.011,0.017,1.013,0.977,-1.831,1.709,1.626,-0.621,-81.579,-47.1,-10.1,-3.447,26.84,0.76126,-0.0199,-0.01105,-0.64795
 13:41:41.947,eb:33:2e:f9:57:b5, 2085-97-14 00:32:00:2062,0.006,0.017,1.011,1.587,-1.221,0.977,1.637,-0.637,-81.568,-47.1,-10.1,-3.447,26.84,0.76126,-0.0199,-0.01105,-0.64795
 13:41:41.947,eb:33:2e:f9:57:b5, 2085-97-11 00:40:00:2053,0,0.018,1.003,2.075,-0.854,0.122,1.659,-0.648,-81.562,-47.1,-10.1,-3.447,26.84,0.76126,-0.0199,-0.01105,-0.64795
 13:41:41.977,eb:33:2e:f9:57:b5, 2085-97-40 00:32:00:2081,0.023,0.011,1,2.991,-1.038,-0.793,1.681,-0.659,-81.573,-47.1,-10.1,-3.447,26.84,0.76126,-0.0199,-0.01105,-0.64795
 13:41:41.977,eb:33:2e:f9:57:b5, 2085-97-57 00:41:00:2087,0.031,0.013,1.019,4.028,0.305,-1.465,1.719,-0.665,-81.584,-47.1,-10.1,-3.447,26.84,0.76126,-0.0199,-0.01105,-0.64795
 13:41:41.977,eb:33:2e:f9:57:b5, 2085-97-42 00:53:00:2075,0.017,0.03,1.02,4.089,1.77,-1.831,1.758,-0.654,-81.601,-47.1,-10.1,-3.447,26.84,0.76126,-0.0199,-0.01105,-0.64795
 13:41:41.978,eb:33:2e:f9:57:b5, 2085-97-25 00:14:00:2088,0.016,0.018,1.016,4.456,2.869,-2.014,1.802,-0.626,-81.623,-47.1,-10.1,-3.447,26.84,0.76126,-0.0199,-0.01105,-0.64795
 13:41:42.008,eb:33:2e:f9:57:b5, 2085-97-28 00:34:00:2083,0.012,0.009,1.022,5.127,3.906,-1.831,1.851,-0.593,-81.645,-50.6,-13.9,-6.02,26.84,0.76126,-0.0199,-0.01105,-0.64795
 13:41:42.008,eb:33:2e:f9:57:b5, 2085-97-07 00:47:00:2051,0,0.024,1.009,4.822,5.005,-1.343,1.901,-0.549,-81.656,-50.6,-13.9,-6.02,26.84,0.76126,-0.0199,-0.01105,-0.64795
 13:41:42.008,eb:33:2e:f9:57:b5, 2085-97-05 00:38:00:2057,0.002,0.021,1.001,4.211,5.127,-0.977,1.945,-0.5,-81.667,-50.6,-13.9,-6.02,26.84,0.76126,-0.0199,-0.01105,-0.64795
 13:41:42.008,eb:33:2e:f9:57:b5, 2085-97-06 00:32:00:2058,0.004,0.015,1.006,4.028,5.432,-0.427,1.983,-0.45,-81.678,-50.6,-13.9,-6.02,26.84,0.76126,-0.0199,-0.01105,-0.64795
 13:41:42.097,eb:33:2e:f9:57:b5, 2085-97-254 255:43:00:2042,0,0.021,1.001,3.723,5.676,0,2.021,-0.39,-81.678,-50.6,-13.9,-6.02,26.84,0.76126,-0.0199,-0.01105,-0.64795
 13:41:42.097,eb:33:2e:f9:57:b5, 2085-97-04 00:42:00:2054,0.008,0.023,1,3.601,5.127,0.183,2.06,-0.341,-81.672,-50.6,-13.9,-6.02,26.84,0.76126,-0.0199,-0.01105,-0.64795
 13:41:42.097,eb:33:2e:f9:57:b5, 2085-97-22 00:62:00:2052,0.007,0.027,1.001,3.601,4.761,0.366,2.093,-0.291,-81.667,-50.6,-13.9,-6.02,26.84,0.76126,-0.0199,-0.01105,-0.64795
 13:41:42.097,eb:33:2e:f9:57:b5, 2085-97-14 00:63:00:2050,0.014,0.027,1.001,3.601,4.7,0.183,2.131,-0.247,-81.667,-50.6,-13.9,-6.02,26.84,0.76126,-0.0199,-0.01105,-0.64795
 13:41:42.099,eb:33:2e:f9:57:b5, 2085-97-25 00:53:00:2059,0.004,0.032,1.006,3.418,4.822,0.183,2.164,-0.198,-81.661,-50.6,-13.9,-6.02,26.84,0.76126,-0.0199,-0.01105,-0.64795
 13:41:42.099,eb:33:2e:f9:57:b5, 2085-97-17 00:50:00:2055,0.011,0.024,0.999,3.662,5.127,0.183,2.197,-0.148,-81.656,-50.6,-13.9,-6.02,26.84,0.76126,-0.0199,-0.01105,-0.64795
 13:41:42.099,eb:33:2e:f9:57:b5, 2085-97-11 00:55:00:2048,-0.008,0.025,1.004,3.845,5.493,0.061,2.236,-0.099,-81.656,-50.6,-13.9,-6.02,26.84,0.76126,-0.0199,-0.01105,-0.64795
 13:41:42.099,eb:33:2e:f9:57:b5, 2085-97-226 255:40:00:2022,-0.012,0.024,0.984,3.723,5.432,0.427,2.274,-0.044,-81.65,-50.6,-13.9,-6.02,26.84,0.75644,0.0119,-0.01395,-0.65372
 13:41:42.126,eb:33:2e:f9:57:b5, 2085-97-248 255:43:00:2040,0.004,0.016,0.986,3.54,4.883,1.099,2.307,0.005,-81.645,-50.6,-13.9,-6.02,26.84,0.75644,0.0119,-0.01395,-0.65372
 13:41:42.126,eb:33:2e:f9:57:b5, 2085-97-15 00:64:00:2054,0,0.028,0.994,3.479,5.127,1.648,2.346,0.049,-81.628,-50.6,-13.9,-6.02,26.84,0.75644,0.0119,-0.01395,-0.65372
 13:41:42.126,eb:33:2e:f9:57:b5, 2085-97-243 255:55:00:2024,0.004,0.028,0.996,3.54,5.615,1.343,2.379,0.104,-81.617,-50.6,-13.9,-6.02,26.84,0.75644,0.0119,-0.01395,-0.65372
 13:41:42.126,eb:33:2e:f9:57:b5, 2085-97-25 00:83:00:2052,0.014,0.037,0.992,3.784,5.127,1.221,2.417,0.154,-81.601,-50.6,-13.9,-6.02,26.84,0.75644,0.0119,-0.01395,-0.65372
 13:41:42.188,eb:33:2e:f9:57:b5, 2085-97-33 00:87:00:2057,0.022,0.04,1.001,3.479,5.798,0.61,2.45,0.209,-81.59,-50.6,-13.9,-6.02,26.84,0.75644,0.0119,-0.01395,-0.65372
 13:41:42.188,eb:33:2e:f9:57:b5, 2085-97-39 00:108:00:2049,0.015,0.049,1.005,3.113,6.836,0.061,2.483,0.269,-81.584,-50.6,-13.9,-6.02,26.84,0.75644,0.0119,-0.01395,-0.65372
 13:41:42.188,eb:33:2e:f9:57:b5, 2085-97-07 00:96:00:2020,-0.007,0.051,0.997,2.625,7.507,-0.977,2.51,0.341,-81.59,-50.6,-13.9,-6.02,26.84,0.75644,0.0119,-0.01395,-0.65372
 13:41:42.188,eb:33:2e:f9:57:b5, 2085-97-233 255:76:00:2014,-0.015,0.039,0.984,2.319,7.08,-1.709,2.538,0.417,-81.601,-50.6,-13.9,-6.02,26.84,0.75644,0.0119,-0.01395,-0.65372
 13:41:42.217,eb:33:2e:f9:57:b5, 2085-97-247 255:86:00:2033,0.002,0.035,0.985,2.258,6.348,-2.075,2.56,0.483,-81.623,-50.6,-13.9,-6.02,26.84,0.75644,0.0119,-0.01395,-0.65372
 13:41:42.217,eb:33:2e:f9:57:b5, 2085-97-253 255:85:00:2053,0.005,0.045,1,2.197,6.531,-2.93,2.582,0.544,-81.645,-50.6,-13.9,-6.02,26.84,0.75644,0.0119,-0.01395,-0.65372
 13:41:42.217,eb:33:2e:f9:57:b5, 2085-97-38 00:95:00:2105,0.022,0.041,1.012,2.563,7.08,-3.845,2.604,0.615,-81.678,-50.6,-13.9,-6.02,26.84,0.75644,0.0119,-0.01395,-0.65372
 13:41:42.217,eb:33:2e:f9:57:b5, 2085-97-50 00:116:00:2111,0.024,0.048,1.034,2.563,9.583,-5.127,2.626,0.698,-81.722,-50.6,-13.9,-6.02,26.84,0.75644,0.0119,-0.01395,-0.65372
 13:41:42.247,eb:33:2e:f9:57:b5, 2085-97-30 00:103:00:2099,0.005,0.053,1.038,2.502,12.512,-6.653,2.653,0.813,-81.777,-50.6,-13.9,-6.02,26.84,0.75644,0.0119,-0.01395,-0.65372
 13:41:42.247,eb:33:2e:f9:57:b5, 2085-97-24 00:120:00:2085,0.015,0.038,1.032,2.686,14.954,-7.568,2.675,0.95,-81.848,-50.6,-13.9,-6.02,26.84,0.75644,0.0119,-0.01395,-0.65372
 13:41:42.247,eb:33:2e:f9:57:b5, 2085-97-20 00:105:00:2114,0.049,0.044,1.041,3.113,18.372,-9.094,2.703,1.121,-81.925,-50.6,-13.9,-6.02,26.84,0.75644,0.0119,-0.01395,-0.65372
 13:41:42.247,eb:33:2e:f9:57:b5, 2085-97-18 00:88:00:2126,0.006,0.082,1.038,4.333,22.156,-10.559,2.741,1.324,-82.018,-50.6,-13.9,-6.02,26.84,0.75644,0.0119,-0.01395,-0.65372
 13:41:42.308,eb:33:2e:f9:57:b5, 2085-97-06 00:54:00:2174,0.003,0.051,1.03,4.456,24.78,-11.108,2.785,1.56,-82.117,-50.6,-13.9,-6.02,26.84,0.75644,0.0119,-0.01395,-0.65372
 13:41:42.308,eb:33:2e:f9:57:b5, 2085-97-56 00:99:00:2203,0.019,0,1.108,4.272,31.799,-9.155,2.823,1.846,-82.211,-50.6,-13.9,-6.02,26.84,0.75644,0.0119,-0.01395,-0.65372
 13:41:42.308,eb:33:2e:f9:57:b5, 2085-97-33 00:66:00:2249,0.054,0.022,1.11,4.456,39.001,-9.155,2.862,2.208,-82.288,-50.6,-13.9,-6.02,26.84,0.75644,0.0119,-0.01395,-0.65372
 13:41:42.308,eb:33:2e:f9:57:b5, 2085-97-23 01:236:255:2810,-0.11,0.235,0.894,7.874,33.142,-14.16,2.917,2.609,-82.359,-50.6,-13.9,-6.02,26.84,0.75644,0.0119,-0.01395,-0.65372
 13:41:42.367,eb:33:2e:f9:57:b5, 2085-97-201 00:117:01:1948,-0.084,-0.175,1.337,6.226,58.167,-6.958,2.95,3.12,-82.458,-50.6,-13.9,-6.02,26.84,0.75644,0.0119,-0.01395,-0.65372
 13:41:42.367,eb:33:2e:f9:57:b5, 2085-97-160 254:38:254:2889,-0.132,-0.001,1.031,11.23,51.086,-10.559,3.032,3.675,-82.529,-50.6,-13.9,-6.02,26.84,0.75644,0.0119,-0.01395,-0.65372
 13:41:42.367,eb:33:2e:f9:57:b5, 2085-97-96 254:123:254:2616,-0.239,-0.186,1.434,38.635,44.8,-5.676,3.285,4.153,-82.579,-50.6,-13.9,-6.02,26.84,0.75644,0.0119,-0.01395,-0.65372
 13:41:42.367,eb:33:2e:f9:57:b5, 2085-113-58 00:242:224:-2190,-0.165,-0.192,1.25,56.274,36.865,0.671,3.768,4.559,-82.579,-50.6,-13.9,-6.02,26.84,0.75644,0.0119,-0.01395,-0.65372
 13:41:42.428,eb:33:2e:f9:57:b5, 2085-97-184 254:29:255:2549,-0.139,-0.135,1.27,64.514,33.63,3.601,4.076,4.735,-82.557,-53,-14.6,-9.28,26.84,0.75644,0.0119,-0.01395,-0.65372
 13:41:42.428,eb:33:2e:f9:57:b5, 2085-97-84 255:124:255:2840,-0.051,-0.103,1.294,79.529,27.71,7.446,4.812,5.032,-82.48,-53,-14.6,-9.28,26.84,0.75644,0.0119,-0.01395,-0.65372
 13:41:42.428,eb:33:2e:f9:57:b5, 2085-97-190 255:105:255:3062,-0.026,-0.084,1.476,95.703,30.212,10.01,5.702,5.306,-82.365,-53,-14.6,-9.28,26.84,0.75644,0.0119,-0.01395,-0.65372
 13:41:42.428,eb:33:2e:f9:57:b5, 2085-97-180 255:35:255:3228,-0.014,-0.07,1.497,112,36.987,10.925,6.762,5.63,-82.222,-53,-14.6,-9.28,26.84,0.75644,0.0119,-0.01395,-0.65372
 13:41:42.428,eb:33:2e:f9:57:b5, 2085-97-112 00:144:255:3386,0.104,-0.094,1.661,128.906,48.767,13.306,7.993,6.037,-82.046,-53,-14.6,-9.28,26.84,0.75644,0.0119,-0.01395,-0.65372
 13:41:42.429,eb:33:2e:f9:57:b5, 2085-97-212 00:199:255:3423,0.102,0.006,1.607,147.949,60.913,10.315,9.41,6.564,-81.843,-53,-14.6,-9.28,26.84,0.75644,0.0119,-0.01395,-0.65372
 13:41:42.429,eb:33:2e:f9:57:b5, 2085-97-142 00:146:255:3549,0.056,-0.047,1.739,164.978,78.247,8.972,11.008,7.234,-81.628,-53,-14.6,-9.28,26.84,0.75644,0.0119,-0.01395,-0.65372
 13:41:42.429,eb:33:2e:f9:57:b5, 2085-97-133 00:71:255:3546,0.036,-0.091,1.687,186.951,92.346,8.911,12.805,8.058,-81.365,-53,-14.6,-9.28,26.84,0.75644,0.0119,-0.01395,-0.65372
 13:41:42.487,eb:33:2e:f9:57:b5, 2085-97-150 00:116:255:3678,0.115,-0.114,1.759,206.787,103.455,10.376,14.826,8.992,-81.03,-53,-14.6,-9.28,26.84,0.75644,0.0119,-0.01395,-0.65372
 13:41:42.487,eb:33:2e:f9:57:b5, 2085-97-32 01:153:255:3850,0.135,-0.078,1.8,226.99,116.272,10.376,17.067,10.02,-80.618,-53,-14.6,-9.28,26.84,0.75644,0.0119,-0.01395,-0.65372
 13:41:42.487,eb:33:2e:f9:57:b5, 2085-97-71 02:117:255:4062,0.254,0.005,1.902,250.977,127.563,7.812,19.556,11.162,-80.134,-53,-14.6,-9.28,26.84,0.75644,0.0119,-0.01395,-0.65372
 13:41:42.487,eb:33:2e:f9:57:b5, 2085-97-130 02:88:00:4536,0.333,-0.042,2.084,275.33,147.522,3.052,22.313,12.437,-79.579,-53,-14.6,-9.28,26.84,0.75644,0.0119,-0.01395,-0.65372
 13:41:42.490,eb:33:2e:f9:57:b5, 2085-97-182 02:196:255:5126,0.367,-0.036,2.337,303.589,169.739,-9.399,25.356,13.909,-78.948,-53,-14.6,-9.28,26.84,0.73352,0.22919,-0.04434,-0.63824
 13:41:42.490,eb:33:2e:f9:57:b5, 2085-97-160 02:90:255:5423,0.23,-0.086,2.598,335.693,195.496,-24.231,28.74,15.623,-78.256,-53,-14.6,-9.28,26.84,0.73352,0.22919,-0.04434,-0.63824
 13:41:42.490,eb:33:2e:f9:57:b5, 2085-97-123 01:45:255:6507,0.202,-0.001,2.898,357.117,219.177,-38.696,32.465,17.573,-77.443,-53,-14.6,-9.28,26.84,0.73352,0.22919,-0.04434,-0.63824
 13:41:42.490,eb:33:2e:f9:57:b5, 2085-97-211 01:227:254:6148,0.476,-0.144,3.124,367.004,256.836,-41.016,36.447,19.781,-76.371,-53,-14.6,-9.28,26.84,0.73352,0.22919,-0.04434,-0.63824
 13:41:42.547,eb:33:2e:f9:57:b5, 2085-97-82 03:142:254:5261,0.387,-0.237,2.833,372.986,281.067,-41.687,40.666,22.143,-74.932,-53,-14.6,-9.28,26.84,0.73352,0.22919,-0.04434,-0.63824
 13:41:42.547,eb:33:2e:f9:57:b5, 2085-97-156 03:104:255:5057,0.39,-0.083,2.453,388.489,281.616,-49.377,45.148,24.527,-73.191,-53,-14.6,-9.28,26.84,0.73352,0.22919,-0.04434,-0.63824
 13:41:42.547,eb:33:2e:f9:57:b5, 2085-97-28 03:207:254:5398,0.383,0.057,2.549,399.048,272.583,-63.66,49.9,26.807,-71.367,-53,-14.6,-9.28,26.84,0.73352,0.22919,-0.04434,-0.63824
 13:41:42.547,eb:33:2e:f9:57:b5, 2085-97-243 03:202:252:3659,0.718,-0.457,2.126,380.31,286.56,-61.096,54.789,29.026,-69.291,-53,-14.6,-9.28,26.84,0.73352,0.22919,-0.04434,-0.63824
 13:41:42.577,eb:33:2e:f9:57:b5, 2085-97-03 05:41:249:2143,0.838,-0.566,1.592,342.407,275.879,-62.439,59.568,31.086,-66.934,-53,-14.6,-9.28,26.84,0.73352,0.22919,-0.04434,-0.63824
 13:41:42.577,eb:33:2e:f9:57:b5, 2085-97-05 10:142:247:-1207,1.544,-0.952,0.325,326.355,193.176,-47.607,64.012,32.668,-64.836,-53,-14.6,-9.28,26.84,0.73352,0.22919,-0.04434,-0.63824
 13:41:42.577,eb:33:2e:f9:57:b5, 2085-97-242 01:133:06:-6011,0.124,0.132,-1.567,300.354,111.755,-77.393,67.874,33.777,-63.468,-53,-14.6,-9.28,26.84,0.73352,0.22919,-0.04434,-0.63824
 13:41:42.577,eb:33:2e:f9:57:b5, 2085-97-50 04:248:253:-1707,0.514,0.281,-2.291,157.288,-89.783,-146.24,69.835,34.909,-63.995,-53,-14.6,-9.28,26.84,0.73352,0.22919,-0.04434,-0.63824
 13:41:42.608,eb:33:2e:f9:57:b5, 2085-97-46 03:244:247:458,0.372,-0.774,-0.009,14.587,-191.956,-139.954,69.247,35.744,-66.396,-53,-14.6,-9.28,26.84,0.73352,0.22919,-0.04434,-0.63824
 13:41:42.608,eb:33:2e:f9:57:b5, 2085-97-78 03:09:247:1368,0.456,-1.093,0.399,-70.618,-207.092,-109.497,67.165,36.134,-69.313,-53,-14.6,-9.28,26.84,0.73352,0.22919,-0.04434,-0.63824
 13:41:42.608,eb:33:2e:f9:57:b5, 2085-97-169 03:213:247:2342,0.405,-1.112,0.977,-112.976,-177.673,-79.041,64.622,36.183,-71.971,-53,-14.6,-9.28,26.84,0.73352,0.22919,-0.04434,-0.63824
 13:41:42.608,eb:33:2e:f9:57:b5, 2085-97-219 02:254:249:1953,0.339,-0.883,1.116,-124.756,-139.648,-57.434,62.166,36.079,-74.07,-53,-14.6,-9.28,26.84,0.73352,0.22919,-0.04434,-0.63824
 13:41:42.668,eb:33:2e:f9:57:b5, 2085-97-148 02:251:250:888,0.31,-0.661,0.708,-132.141,-125,-45.471,59.881,35.892,-75.773,-53,-14.6,-9.28,26.84,0.73352,0.22919,-0.04434,-0.63824
 13:41:42.668,eb:33:2e:f9:57:b5, 2085-97-91 02:212:250:190,0.271,-0.632,0.217,-150.818,-133.545,-36.743,57.508,35.563,-77.393,-53,-14.6,-9.28,26.84,0.73352,0.22919,-0.04434,-0.63824
 13:41:42.668,eb:33:2e:f9:57:b5, 2085-97-06 02:183:250:201,0.238,-0.66,0.064,-181.03,-151.733,-26.794,54.871,35.03,-79.069,-53,-14.6,-9.28,26.84,0.73352,0.22919,-0.04434,-0.63824
 13:41:42.668,eb:33:2e:f9:57:b5, 2085-97-222 01:177:250:497,0.236,-0.66,0.158,-212.585,-173.523,-16.663,51.877,34.217,-80.826,-53,-14.6,-9.28,26.84,0.73352,0.22919,-0.04434,-0.63824
 13:41:42.699,eb:33:2e:f9:57:b5, 2085-97-236 01:185:250:900,0.246,-0.667,0.339,-235.474,-195.068,-7.751,48.609,33.118,-82.634,-53,-14.6,-9.28,26.84,0.73352,0.22919,-0.04434,-0.63824
 13:41:42.699,eb:33:2e:f9:57:b5, 2085-97-216 01:30:251:1267,0.213,-0.637,0.54,-248.413,-208.313,-0.427,45.203,31.75,-84.43,-53,-14.6,-9.28,26.84,0.73352,0.22919,-0.04434,-0.63824
 13:41:42.699,eb:33:2e:f9:57:b5, 2085-97-138 01:159:251:1507,0.165,-0.581,0.686,-251.77,-214.966,4.822,41.825,30.19,-86.116,-53,-14.6,-9.28,26.84,0.73352,0.22919,-0.04434,-0.63824
 13:41:42.699,eb:33:2e:f9:57:b5, 2085-97-248 00:247:251:1601,0.082,-0.518,0.768,-247.986,-219.604,8.057,38.546,28.477,-87.671,-53,-14.6,-9.28,26.84,0.73352,0.22919,-0.04434,-0.63824
 13:41:42.728,eb:33:2e:f9:57:b5, 2085-97-126 00:28:252:1699,0.038,-0.499,0.808,-242.554,-226.99,10.193,35.436,26.636,-89.11,-49.4,-42.1,-23.08,26.84,0.73352,0.22919,-0.04434,-0.63824
 13:41:42.728,eb:33:2e:f9:57:b5, 2085-97-50 00:70:252:1832,0.017,-0.477,0.851,-241.699,-233.398,11.047,32.426,24.648,-90.445,-49.4,-42.1,-23.08,26.84,0.73352,0.22919,-0.04434,-0.63824
 13:41:42.728,eb:33:2e:f9:57:b5, 2085-97-05 00:103:252:2162,-0.012,-0.455,0.969,-244.568,-236.45,10.803,29.504,22.571,-91.664,-49.4,-42.1,-23.08,26.84,0.73352,0.22919,-0.04434,-0.63824
 13:41:42.728,eb:33:2e:f9:57:b5, 2085-97-190 255:153:252:2495,-0.036,-0.435,1.147,-249.207,-234.68,9.399,26.614,20.435,-92.769,-49.4,-42.1,-23.08,26.84,0.73352,0.22919,-0.04434,-0.63824
 13:41:42.817,eb:33:2e:f9:57:b5, 2085-97-160 255:142:252:2782,-0.055,-0.422,1.295,-256.531,-230.225,7.08,23.763,18.292,-93.746,-49.4,-42.1,-23.08,26.84,0.73352,0.22919,-0.04434,-0.63824
 13:41:42.817,eb:33:2e:f9:57:b5, 2085-97-133 255:169:252:2986,-0.063,-0.435,1.422,-267.212,-222.412,5.676,20.88,16.166,-94.587,-49.4,-42.1,-23.08,26.84,0.73352,0.22919,-0.04434,-0.63824
 13:41:42.817,eb:33:2e:f9:57:b5, 2085-97-147 255:91:253:3066,-0.023,-0.382,1.478,-278.076,-217.163,3.845,17.957,14.079,-95.301,-49.4,-42.1,-23.08,26.84,0.73352,0.22919,-0.04434,-0.63824
 13:41:42.817,eb:33:2e:f9:57:b5, 2085-97-04 00:122:254:3290,0.021,-0.263,1.543,-284.546,-218.018,-2.441,14.98,11.981,-95.927,-49.4,-42.1,-23.08,26.84,0.73352,0.22919,-0.04434,-0.63824
 13:41:42.819,eb:33:2e:f9:57:b5, 2085-97-38 00:129:255:3602,0.032,-0.119,1.685,-284.302,-224.67,-14.404,12.014,9.849,-96.542,-49.4,-42.1,-23.08,26.84,0.73352,0.22919,-0.04434,-0.63824
 13:41:42.819,eb:33:2e:f9:57:b5, 2085-97-77 00:232:255:4084,0.032,-0.021,1.87,-281.128,-234.558,-28.625,9.075,7.608,-97.191,-49.4,-42.1,-23.08,26.84,0.73352,0.22919,-0.04434,-0.63824
 13:41:42.819,eb:33:2e:f9:57:b5, 2085-97-12 00:115:255:4592,-0.022,-0.029,2.122,-279.602,-239.258,-39.612,6.196,5.301,-97.861,-49.4,-42.1,-23.08,26.84,0.73352,0.22919,-0.04434,-0.63824
 13:41:42.819,eb:33:2e:f9:57:b5, 2085-97-136 255:109:254:5080,-0.11,-0.128,2.366,-280.579,-237,-41.626,3.34,2.939,-98.481,-49.4,-42.1,-23.08,26.84,0.73352,0.22919,-0.04434,-0.63824
 13:41:42.847,eb:33:2e:f9:57:b5, 2085-97-162 254:190:253:5283,-0.22,-0.254,2.556,-284.058,-229.797,-31.006,0.5,0.621,-98.926,-49.4,-42.1,-23.08,26.84,0.64395,0.20862,-0.03561,-0.73514
 13:41:42.847,eb:33:2e:f9:57:b5, 2085-97-236 253:179:253:5326,-0.31,-0.292,2.59,-286.926,-226.929,-9.827,-2.373,-1.664,-99.091,-49.4,-42.1,-23.08,26.84,0.64395,0.20862,-0.03561,-0.73514
 13:41:42.847,eb:33:2e:f9:57:b5, 2085-97-24 253:117:254:5370,-0.427,-0.256,2.612,-283.875,-229.98,17.822,-5.24,-3.939,-98.893,-49.4,-42.1,-23.08,26.84,0.64395,0.20862,-0.03561,-0.73514
 13:41:42.847,eb:33:2e:f9:57:b5, 2085-97-08 252:00:00:5255,-0.558,-0.103,2.603,-274.841,-241.394,43.945,-8.108,-6.251,-98.289,-49.4,-42.1,-23.08,26.84,0.64395,0.20862,-0.03561,-0.73514
 13:41:42.907,eb:33:2e:f9:57:b5, 2085-97-246 250:212:01:5202,-0.739,0.111,2.541,-263.367,-255.92,63.843,-10.92,-8.624,-97.322,-49.4,-42.1,-23.08,26.84,0.64395,0.20862,-0.03561,-0.73514
 13:41:42.907,eb:33:2e:f9:57:b5, 2085-97-52 249:230:03:5259,-0.923,0.353,2.539,-247.62,-265.625,75.745,-13.705,-11.036,-96.048,-49.4,-42.1,-23.08,26.84,0.64395,0.20862,-0.03561,-0.73514
 13:41:42.907,eb:33:2e:f9:57:b5, 2085-97-121 248:43:07:5617,-0.882,0.657,2.648,-229.858,-260.254,80.078,-16.397,-13.398,-94.565,-49.4,-42.1,-23.08,26.84,0.64395,0.20862,-0.03561,-0.73514
 13:41:42.907,eb:33:2e:f9:57:b5, 2085-97-154 249:219:13:5844,-0.742,1.257,2.833,-222.656,-204.346,75.134,-19.039,-15.403,-93.054,-49.4,-42.1,-23.08,26.84,0.64395,0.20862,-0.03561,-0.73514
 13:41:42.936,eb:33:2e:f9:57:b5, 2085-97-87 249:17:24:4824,-1.082,2.337,2.745,-219.971,-104.37,51.819,-21.577,-16.595,-91.884,-49.4,-42.1,-23.08,26.84,0.64395,0.20862,-0.03561,-0.73514
 13:41:42.936,eb:33:2e:f9:57:b5, 2085-97-61 244:189:32:2226,-2.002,3.635,1.749,-188.843,-54.626,-0.183,-23.807,-17.139,-91.368,-49.4,-42.1,-23.08,26.84,0.64395,0.20862,-0.03561,-0.73514
 13:41:42.936,eb:33:2e:f9:57:b5, 2085-97-84 238:225:31:1701,-2.19,4.233,0.61,-94.421,-115.967,-71.167,-25.252,-18.029,-91.373,-49.4,-42.1,-23.08,26.84,0.64395,0.20862,-0.03561,-0.73514
 13:41:42.936,eb:33:2e:f9:57:b5, 2085-97-20 239:253:23:4219,-2.019,3.535,1.449,8.728,-139.16,-107.544,-25.532,-19.688,-91.648,-49.4,-42.1,-23.08,26.84,0.64395,0.20862,-0.03561,-0.73514
 13:41:42.968,eb:33:2e:f9:57:b5, 2085-97-249 240:141:14:5033,-1.703,2.394,2.42,75.134,-61.707,-108.643,-24.824,-21.088,-92.252,-49.4,-42.1,-23.08,26.84,0.64395,0.20862,-0.03561,-0.73514
 13:41:42.968,eb:33:2e:f9:57:b5, 2085-97-200 243:215:07:3960,-1.345,1.321,2.274,80.627,49.072,-83.862,-23.654,-21.495,-93.192,-49.4,-42.1,-23.08,26.84,0.64395,0.20862,-0.03561,-0.73514
 13:41:42.968,eb:33:2e:f9:57:b5, 2085-97-167 246:213:05:2668,-1.003,0.8,1.569,54.871,118.408,-50.72,-22.61,-20.896,-94.224,-49.4,-42.1,-23.08,26.84,0.64395,0.20862,-0.03561,-0.73514
 13:41:42.968,eb:33:2e:f9:57:b5, 2085-97-110 249:156:06:2270,-0.653,0.751,1.138,41.26,128.052,-29.114,-21.852,-19.858,-95.114,-49.4,-42.1,-23.08,26.84,0.64395,0.20862,-0.03561,-0.73514
 13:41:43.028,eb:33:2e:f9:57:b5, 2085-97-02 252:201:07:2648,-0.367,0.909,1.175,54.871,111.572,-23.987,-21.149,-18.842,-95.828,-49.4,-42.1,-23.08,26.84,0.64395,0.20862,-0.03561,-0.73514
 13:41:43.028,eb:33:2e:f9:57:b5, 2085-97-209 253:204:07:3058,0.291,0.994,1.415,81.726,103.516,-28.809,-20.242,-17.946,-96.482,-49.4,-42.1,-23.08,26.84,0.64395,0.20862,-0.03561,-0.73514
 13:41:43.028,eb:33:2e:f9:57:b5, 2085-97-51 15:211:212:10365,0.14,0.533,1.931,165.466,-26.855,-170.41,-18.968,-17.331,-97.311,-49.4,-42.1,-23.08,26.84,0.64395,0.20862,-0.03561,-0.73514
 13:41:43.028,eb:33:2e:f9:57:b5, 2085-97-51 18:26:234:-586,0.615,-2.794,-0.392,167.969,226.013,4.822,-16.93,-15.276,-98.179,-49.4,-42.1,-23.08,26.84,0.64395,0.20862,-0.03561,-0.73514
 13:41:43.059,eb:33:2e:f9:57:b5, 2085-97-120 07:201:243:922,1.11,-0.911,0.749,179.26,202.332,-20.325,-15.101,-12.975,-98.811,-49.4,-42.1,-23.08,26.84,0.64395,0.20862,-0.03561,-0.73514
 13:41:43.059,eb:33:2e:f9:57:b5, 2085-97-113 01:115:254:2201,-0.11,-1.052,0.723,235.779,153.198,-46.814,-12.816,-11.525,-99.608,-49.4,-42.1,-23.08,26.84,0.64395,0.20862,-0.03561,-0.73514
 13:41:43.059,eb:33:2e:f9:57:b5, 2085-97-225 251:67:255:2109,-0.602,-0.465,0.802,254.822,137.512,-34.18,-10.157,-10.168,-100.421,-49.4,-42.1,-23.08,26.84,0.64395,0.20862,-0.03561,-0.73514
 13:41:43.059,eb:33:2e:f9:57:b5, 2085-113-58 00:210:226:-1575,-0.542,0.369,1.075,229.98,145.02,8.545,-7.657,-8.767,-100.712,-49.4,-42.1,-23.08,26.84,0.64395,0.20862,-0.03561,-0.73514
 13:41:43.059,eb:33:2e:f9:57:b5, 2085-97-152 254:221:02:2975,-0.068,0.36,1.114,207.642,137.451,20.935,-6.57,-8.064,-100.717,-49.4,-42.1,-23.08,26.84,0.64395,0.20862,-0.03561,-0.73514
 13:41:43.117,eb:33:2e:f9:57:b5, 2085-97-63 255:43:01:2459,-0.207,0.267,1.356,161.255,139.465,12.024,-4.779,-6.636,-100.668,-49.8,-10.5,-13.3,26.84,0.64395,0.20862,-0.03561,-0.73514
 13:41:43.117,eb:33:2e:f9:57:b5, 2085-97-187 253:236:00:2457,-0.164,0.076,1.237,140.93,126.465,-0.977,-3.279,-5.328,-100.739,-49.8,-10.5,-13.3,26.84,0.64395,0.20862,-0.03561,-0.73514
 13:41:43.117,eb:33:2e:f9:57:b5, 2085-97-207 254:185:01:2144,-0.139,0.244,1.179,110.107,117.737,2.258,-2.021,-4.114,-100.789,-49.8,-10.5,-13.3,26.84,0.64395,0.20862,-0.03561,-0.73514
 13:41:43.117,eb:33:2e:f9:57:b5, 2085-97-185 254:17:01:1990,-0.099,0.179,0.995,81.543,92.529,4.944,-1.104,-3.076,-100.778,-49.8,-10.5,-13.3,26.84,0.64395,0.20862,-0.03561,-0.73514
 13:41:43.178,eb:33:2e:f9:57:b5, 2085-97-157 254:72:02:1959,-0.231,0.124,1.006,68.909,79.102,5.798,-0.363,-2.236,-100.723,-49.8,-10.5,-13.3,26.84,0.63776,-0.01282,-0.0101,-0.76999
 13:41:43.178,eb:33:2e:f9:57:b5, 2085-97-113 255:62:02:1997,-0.064,0.52,0.955,49.744,44.373,-17.944,0.231,-1.588,-100.783,-49.8,-10.5,-13.3,26.84,0.63776,-0.01282,-0.0101,-0.76999
 13:41:43.178,eb:33:2e:f9:57:b5, 2085-97-74 255:231:00:1892,0.022,0.236,0.94,31.799,23.56,-19.897,0.621,-1.274,-100.975,-49.8,-10.5,-13.3,26.84,0.63776,-0.01282,-0.0101,-0.76999
 13:41:43.178,eb:33:2e:f9:57:b5, 2085-97-106 00:00:00:2152,-0.003,0.026,1.018,24.231,16.724,-10.193,0.895,-1.099,-101.113,-49.8,-10.5,-13.3,26.84,0.63776,-0.01282,-0.0101,-0.76999
 13:41:43.178,eb:33:2e:f9:57:b5, 2085-97-78 255:131:00:1944,-0.109,0.054,1.017,20.752,24.353,-7.69,1.121,-0.884,-101.19,-49.8,-10.5,-13.3,26.84,0.63776,-0.01282,-0.0101,-0.76999
 13:41:43.178,eb:33:2e:f9:57:b5, 2085-97-32 255:234:00:1897,-0.042,0.106,0.948,14.771,16.052,-4.883,1.302,-0.687,-101.255,-49.8,-10.5,-13.3,26.84,0.63776,-0.01282,-0.0101,-0.76999
 13:41:43.178,eb:33:2e:f9:57:b5, 2085-97-46 00:46:00:2114,0.013,0.062,0.98,9.338,8.301,-3.967,1.417,-0.582,-101.294,-49.8,-10.5,-13.3,26.84,0.63776,-0.01282,-0.0101,-0.76999
 13:41:43.178,eb:33:2e:f9:57:b5, 2085-97-229 255:114:00:2052,-0.033,0.037,1.02,7.874,11.047,-1.953,1.5,-0.478,-101.321,-49.8,-10.5,-13.3,26.84,0.63776,-0.01282,-0.0101,-0.76999
 13:41:43.238,eb:33:2e:f9:57:b5, 2085-97-208 255:21:00:2037,-0.021,0.025,0.984,6.104,9.644,-0.854,1.566,-0.374,-101.338,-49.8,-10.5,-13.3,26.84,0.63776,-0.01282,-0.0101,-0.76999
 13:41:43.238,eb:33:2e:f9:57:b5, 2085-97-243 255:29:00:2097,-0.01,0.013,1.006,7.019,8.728,0.61,1.631,-0.28,-101.332,-49.8,-10.5,-13.3,26.84,0.63776,-0.01282,-0.0101,-0.76999
 13:41:43.238,eb:33:2e:f9:57:b5, 2085-97-222 255:20:00:2083,-0.026,0.004,1.022,7.935,9.155,2.38,1.708,-0.192,-101.316,-49.8,-10.5,-13.3,26.84,0.63776,-0.01282,-0.0101,-0.76999
 13:41:43.238,eb:33:2e:f9:57:b5, 2085-97-183 255:45:00:2047,-0.033,0.02,1.006,7.996,8.545,4.456,1.785,-0.104,-101.277,-49.8,-10.5,-13.3,26.84,0.63776,-0.01282,-0.0101,-0.76999
 13:41:43.268,eb:33:2e:f9:57:b5, 2085-97-216 255:54:00:2064,-0.015,0.018,1.001,7.812,7.874,5.554,1.862,-0.027,-101.228,-49.8,-10.5,-13.3,26.84,0.63776,-0.01282,-0.0101,-0.76999
 13:41:43.268,eb:33:2e:f9:57:b5, 2085-97-227 255:71:00:2063,-0.024,0.032,1.01,6.897,8.606,6.104,1.939,0.049,-101.168,-49.8,-10.5,-13.3,26.84,0.63776,-0.01282,-0.0101,-0.76999
 13:41:43.268,eb:33:2e:f9:57:b5, 2085-97-194 255:50:00:2032,-0.031,0.028,0.998,5.371,9.46,6.592,2,0.137,-101.102,-49.8,-10.5,-13.3,26.84,0.63776,-0.01282,-0.0101,-0.76999
 13:41:43.268,eb:33:2e:f9:57:b5, 2085-97-206 255:44:00:2040,-0.031,0.02,0.996,4.578,9.155,7.568,2.049,0.225,-101.03,-49.8,-10.5,-13.3,26.84,0.63776,-0.01282,-0.0101,-0.76999
 13:41:43.298,eb:33:2e:f9:57:b5, 2085-97-217 255:85:00:2018,-0.029,0.028,0.984,2.441,8.972,8.911,2.082,0.313,-100.942,-49.8,-10.5,-13.3,26.84,0.63776,-0.01282,-0.0101,-0.76999
 13:41:43.298,eb:33:2e:f9:57:b5, 2085-97-219 255:90:00:2027,0.015,0.032,0.988,-0.061,9.766,9.949,2.087,0.406,-100.849,-49.8,-10.5,-13.3,26.84,0.63776,-0.01282,-0.0101,-0.76999
 13:41:43.298,eb:33:2e:f9:57:b5, 2085-97-18 00:97:00:2075,0.005,0.056,1.012,-1.038,10.62,9.216,2.076,0.505,-100.745,-49.8,-10.5,-13.3,26.84,0.63776,-0.01282,-0.0101,-0.76999
 13:41:43.298,eb:33:2e:f9:57:b5, 2085-97-08 00:86:00:2068,0,0.032,1.021,0.061,10.071,7.812,2.071,0.61,-100.657,-49.8,-10.5,-13.3,26.84,0.63776,-0.01282,-0.0101,-0.76999
 13:41:43.358,eb:33:2e:f9:57:b5, 2085-97-25 00:100:00:2103,0.033,0.042,1.011,0.305,10.315,6.042,2.076,0.703,-100.585,-49.8,-10.5,-13.3,26.84,0.63776,-0.01282,-0.0101,-0.76999
 13:41:43.358,eb:33:2e:f9:57:b5, 2085-97-66 00:105:00:2130,0.018,0.05,1.038,0.793,12.756,3.723,2.082,0.813,-100.536,-49.8,-10.5,-13.3,26.84,0.63776,-0.01282,-0.0101,-0.76999
 13:41:43.358,eb:33:2e:f9:57:b5, 2085-97-52 00:124:00:2086,0.009,0.052,1.021,1.16,14.771,1.953,2.093,0.95,-100.503,-49.8,-10.5,-13.3,26.84,0.63776,-0.01282,-0.0101,-0.76999
 13:41:43.358,eb:33:2e:f9:57:b5, 2085-97-27 00:125:00:2080,-0.017,0.05,1.026,1.099,16.907,0.122,2.104,1.115,-100.486,-49.8,-10.5,-13.3,26.84,0.63776,-0.01282,-0.0101,-0.76999
 13:41:43.387,eb:33:2e:f9:57:b5, 2085-97-236 255:117:00:2028,-0.001,0.062,0.974,0.366,18.066,-1.831,2.109,1.291,-100.492,-54.5,-14.9,-15.307,26.84,0.63776,-0.01282,-0.0101,-0.76999
 13:41:43.387,eb:33:2e:f9:57:b5, 2085-97-253 255:132:00:2034,-0.001,0.058,0.998,0.61,18.555,-4.089,2.115,1.478,-100.514,-54.5,-14.9,-15.307,26.84,0.63776,-0.01282,-0.0101,-0.76999
 13:41:43.387,eb:33:2e:f9:57:b5, 2085-97-16 00:153:00:2069,0.001,0.063,1.002,1.282,19.348,-7.324,2.12,1.67,-100.569,-54.5,-14.9,-15.307,26.84,0.63776,-0.01282,-0.0101,-0.76999
 13:41:43.387,eb:33:2e:f9:57:b5, 2085-97-60 00:44:00:2359,-0.013,0.073,1.023,2.93,20.813,-10.559,2.137,1.873,-100.651,-54.5,-14.9,-15.307,26.84,0.63776,-0.01282,-0.0101,-0.76999
 13:41:43.418,eb:33:2e:f9:57:b5, 2085-97-172 255:46:00:2086,-0.045,0.041,1.035,3.906,28.748,-10.62,2.164,2.148,-100.75,-54.5,-14.9,-15.307,26.84,0.63776,-0.01282,-0.0101,-0.76999
 13:41:43.418,eb:33:2e:f9:57:b5, 2085-97-89 255:44:00:1967,-0.069,0.038,0.988,4.944,28.931,-10.742,2.208,2.439,-100.844,-54.5,-14.9,-15.307,26.84,0.63776,-0.01282,-0.0101,-0.76999
 13:41:43.418,eb:33:2e:f9:57:b5, 2085-97-148 255:91:00:2001,-0.015,0.029,0.975,5.066,26.855,-9.644,2.258,2.714,-100.931,-54.5,-14.9,-15.307,26.84,0.63776,-0.01282,-0.0101,-0.76999
 13:41:43.418,eb:33:2e:f9:57:b5, 2085-97-222 255:100:00:2183,-0.026,0.054,1.041,5.554,27.344,-10.925,2.307,2.983,-101.025,-54.5,-14.9,-15.307,26.84,0.63776,-0.01282,-0.0101,-0.76999
 13:41:43.477,eb:33:2e:f9:57:b5, 2085-97-135 255:101:00:2017,-0.067,0.049,1.037,4.7,32.959,-11.353,2.351,3.296,-101.129,-54.5,-14.9,-15.307,26.84,0.63547,0.03186,0.00046,-0.77139
 13:41:43.477,eb:33:2e:f9:57:b5, 2085-97-133 255:101:00:2049,-0.058,0.045,0.988,4.639,32.715,-11.475,2.39,3.631,-101.228,-54.5,-14.9,-15.307,26.84,0.63547,0.03186,0.00046,-0.77139
 13:41:43.477,eb:33:2e:f9:57:b5, 2085-97-172 255:132:00:2077,-0.065,0.044,1.009,4.456,33.569,-11.475,2.428,3.966,-101.332,-54.5,-14.9,-15.307,26.84,0.63547,0.03186,0.00046,-0.77139
 13:41:43.477,eb:33:2e:f9:57:b5, 2085-97-103 255:71:00:2087,-0.077,0.049,1.007,4.761,34.424,-11.963,2.461,4.312,-101.437,-54.5,-14.9,-15.307,26.84,0.63547,0.03186,0.00046,-0.77139
 13:41:43.507,eb:33:2e:f9:57:b5, 2085-97-64 255:63:00:2055,-0.109,0.041,1.012,5.432,34.607,-11.292,2.505,4.664,-101.541,-54.5,-14.9,-15.307,26.84,0.63547,0.03186,0.00046,-0.77139
 13:41:43.507,eb:33:2e:f9:57:b5, 2085-97-17 255:232:255:2181,-0.09,0.001,1.038,6.348,34.241,-9.827,2.56,5.004,-101.64,-54.5,-14.9,-15.307,26.84,0.63547,0.03186,0.00046,-0.77139
 13:41:43.507,eb:33:2e:f9:57:b5, 2085-97-140 255:71:00:2279,-0.044,0.018,1.078,8.362,36.133,-8.057,2.62,5.361,-101.711,-54.5,-14.9,-15.307,26.84,0.63547,0.03186,0.00046,-0.77139
 13:41:43.507,eb:33:2e:f9:57:b5, 2085-97-151 255:55:00:2432,-0.071,0.037,1.163,14.343,37.842,-8.911,2.73,5.735,-101.777,-54.5,-14.9,-15.307,26.84,0.63547,0.03186,0.00046,-0.77139
 13:41:43.537,eb:33:2e:f9:57:b5, 2085-97-57 255:236:255:2489,-0.131,0.011,1.192,21.301,42.725,-8.667,2.9,6.147,-101.849,-54.5,-14.9,-15.307,26.84,0.63547,0.03186,0.00046,-0.77139
 13:41:43.537,eb:33:2e:f9:57:b5, 2085-97-191 254:94:255:2573,-0.193,-0.04,1.235,30.701,45.898,-7.629,3.153,6.597,-101.909,-54.5,-14.9,-15.307,26.84,0.63547,0.03186,0.00046,-0.77139
 13:41:43.537,eb:33:2e:f9:57:b5, 2085-97-96 254:53:255:2500,-0.212,-0.112,1.256,43.396,45.593,-3.479,3.527,7.059,-101.942,-54.5,-14.9,-15.307,26.84,0.63547,0.03186,0.00046,-0.77139
 13:41:43.537,eb:33:2e:f9:57:b5, 2085-97-102 254:86:255:2479,-0.257,-0.09,1.2,57.19,39.062,1.404,4.037,7.482,-101.92,-54.5,-14.9,-15.307,26.84,0.63547,0.03186,0.00046,-0.77139
 13:41:43.597,eb:33:2e:f9:57:b5, 2085-97-210 253:155:254:2647,-0.294,-0.136,1.201,70.129,32.959,6.958,4.686,7.839,-101.849,-54.5,-14.9,-15.307,26.84,0.63547,0.03186,0.00046,-0.77139
 13:41:43.597,eb:33:2e:f9:57:b5, 2085-97-185 253:165:254:2768,-0.227,-0.196,1.331,86.121,28.809,15.32,5.493,8.13,-101.711,-54.5,-14.9,-15.307,26.84,0.63547,0.03186,0.00046,-0.77139
 13:41:43.597,eb:33:2e:f9:57:b5, 2085-97-168 254:57:255:3041,-0.081,-0.144,1.414,101.318,27.71,22.583,6.471,8.383,-101.486,-54.5,-14.9,-15.307,26.84,0.63547,0.03186,0.00046,-0.77139
 13:41:43.597,eb:33:2e:f9:57:b5, 2085-97-208 255:208:255:3200,-0.029,-0.041,1.535,119.019,33.264,24.231,7.619,8.657,-101.206,-54.5,-14.9,-15.307,26.84,0.63547,0.03186,0.00046,-0.77139
 13:41:43.628,eb:33:2e:f9:57:b5, 2085-97-237 255:214:255:3348,0.012,-0.036,1.591,136.963,43.701,23.254,8.954,9.003,-100.909,-54.5,-14.9,-15.307,26.84,0.63547,0.03186,0.00046,-0.77139
 13:41:43.628,eb:33:2e:f9:57:b5, 2085-97-100 00:74:00:3470,0.134,-0.014,1.636,154.419,57.617,23.132,10.47,9.465,-100.591,-54.5,-14.9,-15.307,26.84,0.63547,0.03186,0.00046,-0.77139
 13:41:43.628,eb:33:2e:f9:57:b5, 2085-97-242 00:110:00:3554,0.15,0.046,1.722,174.072,77.209,20.569,12.189,10.085,-100.239,-54.5,-14.9,-15.307,26.84,0.63547,0.03186,0.00046,-0.77139
 13:41:43.628,eb:33:2e:f9:57:b5, 2085-97-15 01:35:00:3761,0.126,0.036,1.78,194.153,94.543,18.25,14.106,10.887,-99.849,-54.5,-14.9,-15.307,26.84,0.63547,0.03186,0.00046,-0.77139
 13:41:43.688,eb:33:2e:f9:57:b5, 2085-97-67 01:85:00:3860,0.219,0,1.881,215.576,110.718,15.93,16.249,11.843,-99.404,-57.5,-26.5,-18.52,26.84,0.63547,0.03186,0.00046,-0.77139
 13:41:43.688,eb:33:2e:f9:57:b5, 2085-97-251 01:84:00:4222,0.291,0.003,1.911,241.821,123.352,8.789,18.649,12.925,-98.926,-57.5,-26.5,-18.52,26.84,0.63547,0.03186,0.00046,-0.77139
 13:41:43.688,eb:33:2e:f9:57:b5, 2085-97-246 02:87:00:4774,0.454,0.039,2.225,272.095,140.991,-2.869,21.341,14.156,-98.432,-57.5,-26.5,-18.52,26.84,0.63547,0.03186,0.00046,-0.77139
 13:41:43.688,eb:33:2e:f9:57:b5, 2085-97-192 03:252:255:4809,0.356,0.039,2.333,304.993,164.795,-17.273,24.373,15.612,-97.916,-57.5,-26.5,-18.52,26.84,0.63547,0.03186,0.00046,-0.77139
 13:41:43.717,eb:33:2e:f9:57:b5, 2085-97-89 02:08:00:5677,0.344,0.012,2.51,338.013,187.988,-36.865,27.762,17.325,-97.366,-57.5,-26.5,-18.52,26.84,0.63547,0.03186,0.00046,-0.77139
 13:41:43.717,eb:33:2e:f9:57:b5, 2085-97-200 01:175:00:6437,0.099,-0.032,2.881,370.483,215.759,-49.5,31.52,19.319,-96.713,-57.5,-26.5,-18.52,26.84,0.63547,0.03186,0.00046,-0.77139
 13:41:43.717,eb:33:2e:f9:57:b5, 2085-97-08 02:213:254:7395,0.254,0.064,3.469,398.01,231.873,-64.575,35.656,21.511,-95.916,-57.5,-26.5,-18.52,26.84,0.63547,0.03186,0.00046,-0.77139
 13:41:43.717,eb:33:2e:f9:57:b5, 2085-97-77 02:234:254:6222,0.381,-0.198,3.301,410.889,263.55,-67.566,40.15,23.895,-94.818,-57.5,-26.5,-18.52,26.84,0.63547,0.03186,0.00046,-0.77139
 13:41:43.747,eb:33:2e:f9:57:b5, 2085-97-70 03:20:00:5229,0.433,-0.053,2.729,419.067,275.33,-73.242,44.923,26.367,-93.356,-57.5,-26.5,-18.52,26.84,0.59039,0.31573,-0.09854,-0.73618
 13:41:43.747,eb:33:2e:f9:57:b5, 2085-97-09 04:142:255:5560,0.603,0.064,2.627,428.711,257.751,-92.834,49.883,28.773,-91.78,-57.5,-26.5,-18.52,26.84,0.59039,0.31573,-0.09854,-0.73618
 13:41:43.747,eb:33:2e:f9:57:b5, 2085-97-22 05:202:253:3971,0.82,-0.401,2.338,416.382,255.432,-98.328,54.959,31.119,-90.121,-57.5,-26.5,-18.52,26.84,0.59039,0.31573,-0.09854,-0.73618
 13:41:43.747,eb:33:2e:f9:57:b5, 2085-97-90 08:154:250:1644,1.027,-0.656,1.191,377.38,226.257,-102.173,59.865,33.289,-88.363,-57.5,-26.5,-18.52,26.84,0.59039,0.31573,-0.09854,-0.73618
 13:41:43.777,eb:33:2e:f9:57:b5, 2085-97-193 10:44:246:614,1.442,-0.988,0.582,346.13,161.011,-106.75,64.254,35.145,-86.896,-57.5,-26.5,-18.52,26.84,0.59039,0.31573,-0.09854,-0.73618
 13:41:43.777,eb:33:2e:f9:57:b5, 2085-97-152 02:09:06:-3881,0.191,-0.213,-0.469,327.82,121.704,-119.934,68.176,36.678,-85.853,-57.5,-26.5,-18.52,26.84,0.59039,0.31573,-0.09854,-0.73618
 13:41:43.777,eb:33:2e:f9:57:b5, 2085-97-222 05:167:252:-836,0.672,0.442,-1.813,207.336,-66.772,-187.683,70.626,38.271,-86.298,-57.5,-26.5,-18.52,26.84,0.59039,0.31573,-0.09854,-0.73618
 13:41:43.777,eb:33:2e:f9:57:b5, 2085-97-105 04:23:247:302,0.484,-0.903,0.019,66.711,-169.067,-170.959,70.345,39.523,-88.72,-57.5,-26.5,-18.52,26.84,0.59039,0.31573,-0.09854,-0.73618
 13:41:43.837,eb:33:2e:f9:57:b5, 2085-97-08 04:226:246:619,0.541,-1.144,0.147,-31.799,-189.514,-137.085,68.566,40.314,-91.653,-57.5,-26.5,-18.52,26.84,0.59039,0.31573,-0.09854,-0.73618
 13:41:43.837,eb:33:2e:f9:57:b5, 2085-97-85 04:178:247:1520,0.556,-1.115,0.556,-99.304,-170.166,-99.731,66.006,40.688,-94.466,-57.5,-26.5,-18.52,26.84,0.59039,0.31573,-0.09854,-0.73618
 13:41:43.837,eb:33:2e:f9:57:b5, 2085-97-68 04:99:249:1622,0.505,-0.929,0.847,-127.93,-142.883,-69.336,63.32,40.77,-96.779,-57.5,-26.5,-18.52,26.84,0.59039,0.31573,-0.09854,-0.73618
 13:41:43.837,eb:33:2e:f9:57:b5, 2085-97-250 03:57:250:851,0.505,-0.763,0.626,-140.137,-130.066,-47.424,60.699,40.633,-98.707,-57.5,-26.5,-18.52,26.84,0.59039,0.31573,-0.09854,-0.73618
 13:41:43.867,eb:33:2e:f9:57:b5, 2085-97-03 04:233:250:070,0.49,-0.684,0.213,-154.358,-135.315,-30.945,58.09,40.287,-100.453,-57.5,-26.5,-18.52,26.84,0.59039,0.31573,-0.09854,-0.73618
 13:41:43.867,eb:33:2e:f9:57:b5, 2085-97-199 03:161:251:-204,0.456,-0.587,-0.071,-174.072,-158.264,-19.043,55.283,39.672,-102.239,-57.5,-26.5,-18.52,26.84,0.59039,0.31573,-0.09854,-0.73618
 13:41:43.867,eb:33:2e:f9:57:b5, 2085-97-130 03:190:251:098,0.42,-0.525,-0.051,-193.298,-194.824,-12.146,52.191,38.743,-104.205,-57.5,-26.5,-18.52,26.84,0.59039,0.31573,-0.09854,-0.73618
 13:41:43.867,eb:33:2e:f9:57:b5, 2085-97-76 03:85:251:571,0.405,-0.558,0.161,-208.313,-231.079,-7.141,48.801,37.43,-106.403,-57.5,-26.5,-18.52,26.84,0.59039,0.31573,-0.09854,-0.73618
 13:41:43.897,eb:33:2e:f9:57:b5, 2085-97-29 03:12:251:1033,0.365,-0.605,0.395,-218.567,-258.179,-2.075,45.291,35.782,-108.693,-57.5,-26.5,-18.52,26.84,0.59039,0.31573,-0.09854,-0.73618
 13:41:43.897,eb:33:2e:f9:57:b5, 2085-97-156 02:231:250:1429,0.292,-0.63,0.608,-226.318,-275.879,3.235,41.759,33.816,-110.951,-57.5,-26.5,-18.52,26.84,0.59039,0.31573,-0.09854,-0.73618
 13:41:43.897,eb:33:2e:f9:57:b5, 2085-97-25 02:248:250:1772,0.227,-0.633,0.781,-232.3,-285.278,8.911,38.326,31.613,-113.049,-57.5,-26.5,-18.52,26.84,0.59039,0.31573,-0.09854,-0.73618
 13:41:43.897,eb:33:2e:f9:57:b5, 2085-97-151 01:19:251:2095,0.166,-0.625,0.941,-237.366,-285.767,15.015,35.008,29.235,-114.928,-57.5,-26.5,-18.52,26.84,0.59039,0.31573,-0.09854,-0.73618
 13:41:43.987,eb:33:2e:f9:57:b5, 2085-97-30 01:83:251:2414,0.111,-0.604,1.1,-240.784,-279.663,20.752,31.86,26.774,-116.521,-57.5,-26.5,-18.52,26.84,0.59039,0.31573,-0.09854,-0.73618
 13:41:43.987,eb:33:2e:f9:57:b5, 2085-113-58 00:165:226:-6870,0.078,-0.558,1.233,-245.239,-270.325,25.085,28.845,24.269,-117.845,-57.5,-26.5,-18.52,26.84,0.59039,0.31573,-0.09854,-0.73618
 13:41:43.988,eb:33:2e:f9:57:b5, 2085-97-131 00:03:252:2665,0.056,-0.526,1.263,-248.596,-266.846,26.001,27.383,23.027,-118.411,-57.5,-26.5,-18.52,26.84,0.59039,0.31573,-0.09854,-0.73618
 13:41:43.990,eb:33:2e:f9:57:b5, 2085-97-105 00:76:252:2831,0.048,-0.475,1.341,-257.08,-261.353,25.818,24.461,20.522,-119.405,-57.5,-26.5,-18.52,26.84,0.59039,0.31573,-0.09854,-0.73618
 13:41:43.990,eb:33:2e:f9:57:b5, 2085-97-79 00:110:252:3065,0.026,-0.455,1.443,-265.625,-259.338,23.987,21.566,18.029,-120.245,-57.5,-26.5,-18.52,26.84,0.59039,0.31573,-0.09854,-0.73618
 13:41:43.990,eb:33:2e:f9:57:b5, 2085-97-35 00:158:252:3276,0.027,-0.438,1.548,-270.752,-259.766,22.705,18.66,15.496,-120.954,-57.5,-26.5,-18.52,26.84,0.59039,0.31573,-0.09854,-0.73618
 13:41:43.990,eb:33:2e:f9:57:b5, 2085-97-68 00:61:253:3763,0.025,-0.396,1.698,-270.203,-259.033,22.888,15.804,12.947,-121.525,-57.5,-26.5,-18.52,26.84,0.59039,0.31573,-0.09854,-0.73618
 13:41:43.991,eb:33:2e:f9:57:b5, 2085-97-21 00:127:254:4236,0.001,-0.269,1.969,-266.541,-255.005,23.01,13.019,10.382,-121.954,-57.5,-26.5,-18.52,26.84,0.59039,0.31573,-0.09854,-0.73618
 13:41:44.019,eb:33:2e:f9:57:b5, 2085-97-18 00:79:255:4549,0.018,-0.126,2.146,-264.526,-250.793,21.912,10.316,7.861,-122.25,-50.1,-45.8,-10.607,26.84,0.59039,0.31573,-0.09854,-0.73618
 13:41:44.019,eb:33:2e:f9:57:b5, 2085-97-46 00:141:255:4930,0.014,-0.063,2.305,-262.451,-249.451,20.935,7.641,5.339,-122.437,-50.1,-45.8,-10.607,26.84,0.59039,0.31573,-0.09854,-0.73618
 13:41:44.019,eb:33:2e:f9:57:b5, 2085-97-223 255:119:255:5246,-0.066,-0.057,2.502,-262.939,-250,21.545,5.01,2.834,-122.503,-50.1,-45.8,-10.607,26.84,0.59039,0.31573,-0.09854,-0.73618
 13:41:44.019,eb:33:2e:f9:57:b5, 2085-97-19 255:86:255:5356,-0.157,-0.08,2.587,-270.996,-253.479,26.489,2.329,0.286,-122.432,-50.1,-45.8,-10.607,26.84,0.59039,0.31573,-0.09854,-0.73618
 13:41:44.077,eb:33:2e:f9:57:b5, 2085-97-107 254:222:255:5465,-0.234,-0.065,2.651,-284.424,-255.981,37.476,-0.461,-2.263,-122.151,-50.1,-45.8,-10.607,26.84,0.59039,0.31573,-0.09854,-0.73618
 13:41:44.077,eb:33:2e:f9:57:b5, 2085-97-207 253:155:01:5525,-0.117,0.069,2.68,-290.833,-255.737,49.927,-3.4,-4.828,-121.619,-50.1,-45.8,-10.607,26.84,0.59039,0.31573,-0.09854,-0.73618
 13:41:44.078,eb:33:2e:f9:57:b5, 2085-97-169 240:91:04:12352,-0.994,0.432,3.175,-237.671,-292.725,36.011,-6.284,-7.405,-120.877,-50.1,-45.8,-10.607,26.84,0.59039,0.31573,-0.09854,-0.73618
 13:41:44.078,eb:33:2e:f9:57:b5, 2085-97-05 255:206:09:381,-0.952,0.699,1.361,-232.178,-175.354,71.533,-8.734,-9.009,-119.987,-50.1,-45.8,-10.607,26.84,0.59039,0.31573,-0.09854,-0.73618
 13:41:44.136,eb:33:2e:f9:57:b5, 2085-97-177 248:72:10:3228,-0.292,0.956,1.894,-253.845,-191.528,71.106,-11.365,-10.69,-118.96,-50.1,-45.8,-10.607,26.84,0.48727,-0.06708,0.01111,-0.87054
 13:41:44.136,eb:33:2e:f9:57:b5, 2085-97-99 247:236:09:6062,-0.864,1.787,1.028,-259.399,-232.117,61.89,-14.2,-12.64,-117.806,-50.1,-45.8,-10.607,26.84,0.48727,-0.06708,0.01111,-0.87054
 13:41:44.136,eb:33:2e:f9:57:b5, 2085-97-92 248:162:19:3566,-1.283,2.247,1.697,-212.83,-256.042,38.635,-16.765,-14.892,-116.653,-50.1,-45.8,-10.607,26.84,0.48727,-0.06708,0.01111,-0.87054
 13:41:44.136,eb:33:2e:f9:57:b5, 2085-97-178 242:131:23:3935,-2.34,2.59,1.864,-152.771,-263.123,11.841,-18.864,-17.364,-115.593,-50.1,-45.8,-10.607,26.84,0.48727,-0.06708,0.01111,-0.87054
 13:41:44.138,eb:33:2e:f9:57:b5, 2085-97-174 231:99:29:3743,-3.478,3.366,1.802,-82.825,-246.521,7.751,-20.325,-19.731,-114.609,-50.1,-45.8,-10.607,26.84,0.48727,-0.06708,0.01111,-0.87054
 13:41:44.138,eb:33:2e:f9:57:b5, 2085-97-121 228:95:29:5732,-3.017,3.864,2.299,9.521,-197.327,14.465,-21.033,-21.841,-113.637,-50.1,-45.8,-10.607,26.84,0.48727,-0.06708,0.01111,-0.87054
 13:41:44.139,eb:33:2e:f9:57:b5, 2085-97-28 222:22:08:18949,-4.159,3.159,3.096,113.342,-133.057,-1.221,-20.764,-23.066,-112.917,-50.1,-45.8,-10.607,26.84,0.48727,-0.06708,0.01111,-0.87054
 13:41:44.139,eb:33:2e:f9:57:b5, 2085-97-155 238:194:14:6288,0.125,1.045,3.911,205.505,246.521,85.205,-19.061,-21.478,-112.978,-50.1,-45.8,-10.607,26.84,0.48727,-0.06708,0.01111,-0.87054
 13:41:44.198,eb:33:2e:f9:57:b5, 2085-97-28 04:231:248:1464,-0.832,0.445,1.095,207.092,350.952,73.975,-16.864,-18.078,-113.318,-50.1,-45.8,-10.607,26.84,0.48727,-0.06708,0.01111,-0.87054
 13:41:44.198,eb:33:2e:f9:57:b5, 2085-97-72 254:98:254:1485,0.15,-0.158,0.413,229.431,299.988,89.172,-14.672,-14.557,-113.346,-50.1,-45.8,-10.607,26.84,0.48727,-0.06708,0.01111,-0.87054
 13:41:44.198,eb:33:2e:f9:57:b5, 2085-97-225 251:60:251:1998,-0.325,-0.819,0.777,249.756,230.286,28.564,-12.288,-11.898,-113.423,-50.1,-45.8,-10.607,26.84,0.48727,-0.06708,0.01111,-0.87054
 13:41:44.198,eb:33:2e:f9:57:b5, 2085-97-118 252:10:01:2602,-0.585,-0.199,1.144,261.536,183.777,-8.728,-9.635,-9.926,-113.747,-50.1,-45.8,-10.607,26.84,0.48727,-0.06708,0.01111,-0.87054
 13:41:44.228,eb:33:2e:f9:57:b5, 2085-97-167 250:186:02:2558,-0.586,0.373,1.364,236.084,178.284,-21.606,-7.059,-8.185,-114.181,-50.1,-45.8,-10.607,26.84,0.48727,-0.06708,0.01111,-0.87054
 13:41:44.228,eb:33:2e:f9:57:b5, 2085-97-16 252:112:01:2274,-0.252,0.255,1.183,197.754,165.955,-28.076,-4.856,-6.487,-114.615,-50.1,-45.8,-10.607,26.84,0.48727,-0.06708,0.01111,-0.87054
 13:41:44.228,eb:33:2e:f9:57:b5, 2085-97-105 254:252:01:2396,-0.06,0.278,1.216,162.537,131.348,-41.931,-3.027,-5.032,-115.049,-50.1,-45.8,-10.607,26.84,0.48727,-0.06708,0.01111,-0.87054
 13:41:44.228,eb:33:2e:f9:57:b5, 2085-97-13 00:123:01:2230,-0.24,0.219,1.107,126.16,106.445,-29.053,-1.566,-3.9,-115.466,-50.1,-45.8,-10.607,26.84,0.48727,-0.06708,0.01111,-0.87054
 13:41:44.258,eb:33:2e:f9:57:b5, 2085-97-17 01:251:03:2363,0.052,0.697,1.094,77.087,78.247,-18.25,-0.527,-2.928,-115.67,-50.1,-45.8,-10.607,26.84,0.48727,-0.06708,0.01111,-0.87054
 13:41:44.258,eb:33:2e:f9:57:b5, 2085-97-86 254:73:01:1719,-0.214,0.444,0.962,34.119,57.983,-10.132,-0.022,-2.241,-115.79,-50.1,-45.8,-10.607,26.84,0.48727,-0.06708,0.01111,-0.87054
 13:41:44.258,eb:33:2e:f9:57:b5, 2085-97-50 255:20:00:1893,-0.052,0.007,0.842,24.292,41.565,-2.502,0.242,-1.752,-115.845,-50.1,-45.8,-10.607,26.84,0.48727,-0.06708,0.01111,-0.87054
 13:41:44.258,eb:33:2e:f9:57:b5, 2085-97-162 255:04:01:1924,-0.042,0.096,0.93,21.973,33.997,-3.784,0.478,-1.379,-115.867,-50.1,-45.8,-10.607,26.84,0.48727,-0.06708,0.01111,-0.87054
 13:41:44.318,eb:33:2e:f9:57:b5, 2085-97-166 255:18:01:2039,-0.16,0.129,0.968,11.536,29.114,1.099,0.648,-1.071,-115.889,-50.1,-45.8,-10.607,26.84,0.48727,-0.06708,0.01111,-0.87054
 13:41:44.318,eb:33:2e:f9:57:b5, 2085-97-125 254:53:00:1817,-0.131,0.115,0.873,3.113,21.423,1.038,0.698,-0.786,-115.851,-50.1,-45.8,-10.607,26.84,0.48727,-0.06708,0.01111,-0.87054
 13:41:44.318,eb:33:2e:f9:57:b5, 2085-97-186 255:22:00:2036,0,-0.036,0.932,6.775,6.897,-4.089,0.753,-0.665,-115.884,-50.1,-45.8,-10.607,26.84,0.48727,-0.06708,0.01111,-0.87054
 13:41:44.318,eb:33:2e:f9:57:b5, 2085-97-10 00:73:00:2091,0.011,0.053,1.015,4.517,6.47,-1.282,0.813,-0.599,-115.911,-50.1,-45.8,-10.607,26.84,0.48727,-0.06708,0.01111,-0.87054
 13:41:44.407,eb:33:2e:f9:57:b5, 2085-97-14 00:41:00:2093,0.005,0.016,1.021,4.395,8.484,-0.977,0.851,-0.522,-115.922,-52.7,-35,10.887,26.84,0.48727,-0.06708,0.01111,-0.87054
 13:41:44.407,eb:33:2e:f9:57:b5, 2085-97-232 255:02:00:2106,-0.021,0.022,1.029,4.517,9.521,0.122,0.901,-0.428,-115.922,-52.7,-35,10.887,26.84,0.48727,-0.06708,0.01111,-0.87054
 13:41:44.407,eb:33:2e:f9:57:b5, 2085-97-204 255:250:255:2086,-0.038,-0.006,1.023,6.165,9.521,1.831,0.95,-0.335,-115.911,-52.7,-35,10.887,26.84,0.48727,-0.06708,0.01111,-0.87054
 13:41:44.407,eb:33:2e:f9:57:b5, 2085-97-155 255:00:00:2043,-0.057,-0.002,1.009,7.446,8.606,3.662,1.022,-0.242,-115.884,-52.7,-35,10.887,26.84,0.48727,-0.06708,0.01111,-0.87054
 13:41:44.409,eb:33:2e:f9:57:b5, 2085-97-175 255:40:00:2035,-0.018,0.004,0.988,8.057,6.775,4.7,1.099,-0.165,-115.84,-52.7,-35,10.887,26.84,0.48727,-0.06708,0.01111,-0.87054
 13:41:44.409,eb:33:2e:f9:57:b5, 2085-97-244 255:65:00:2075,-0.001,0.028,1.007,7.568,6.531,4.211,1.176,-0.099,-115.796,-52.7,-35,10.887,26.84,0.48727,-0.06708,0.01111,-0.87054
 13:41:44.409,eb:33:2e:f9:57:b5, 2085-97-244 255:76:00:2061,-0.011,0.035,1.015,6.348,8.301,3.784,1.247,-0.027,-115.752,-52.7,-35,10.887,26.84,0.48727,-0.06708,0.01111,-0.87054
 13:41:44.409,eb:33:2e:f9:57:b5, 2085-97-239 255:76:00:2050,-0.002,0.037,1.001,5.005,9.46,3.784,1.302,0.055,-115.714,-52.7,-35,10.887,26.84,0.48727,-0.06708,0.01111,-0.87054
 13:41:44.437,eb:33:2e:f9:57:b5, 2085-97-244 255:72:00:2053,-0.009,0.042,1.003,3.235,10.986,4.028,1.346,0.159,-115.675,-52.7,-35,10.887,26.84,0.48727,-0.06708,0.01111,-0.87054
 13:41:44.437,eb:33:2e:f9:57:b5, 2085-97-251 255:76:00:2060,-0.01,0.039,1,1.404,12.512,4.517,1.368,0.28,-115.631,-52.7,-35,10.887,26.84,0.48727,-0.06708,0.01111,-0.87054
 13:41:44.437,eb:33:2e:f9:57:b5, 2085-97-206 255:55:00:2011,-0.027,0.032,1,-0.61,14.404,4.761,1.373,0.412,-115.582,-52.7,-35,10.887,26.84,0.48727,-0.06708,0.01111,-0.87054
 13:41:44.437,eb:33:2e:f9:57:b5, 2085-97-238 255:52:00:2060,-0.007,0.021,0.993,-1.282,13.733,5.493,1.357,0.56,-115.527,-52.7,-35,10.887,26.84,0.48727,-0.06708,0.01111,-0.87054
 13:41:44.468,eb:33:2e:f9:57:b5, 2085-97-24 00:63:00:2118,-0.011,0.032,1.004,-0.122,12.207,4.211,1.351,0.681,-115.472,-52.7,-35,10.887,26.84,0.53271,0.00894,-0.00854,-0.84616
 13:41:44.468,eb:33:2e:f9:57:b5, 2085-97-236 255:54:00:2068,-0.02,0.021,1.015,1.038,13.428,2.441,1.357,0.818,-115.439,-52.7,-35,10.887,26.84,0.53271,0.00894,-0.00854,-0.84616
 13:41:44.468,eb:33:2e:f9:57:b5, 2085-97-222 255:69:00:2034,-0.026,0.028,0.995,1.16,13.977,1.77,1.368,0.956,-115.422,-52.7,-35,10.887,26.84,0.53271,0.00894,-0.00854,-0.84616
 13:41:44.468,eb:33:2e:f9:57:b5, 2085-97-198 255:60:00:2026,-0.02,0.034,0.981,0.122,13.916,1.587,1.379,1.093,-115.4,-52.7,-35,10.887,26.84,0.53271,0.00894,-0.00854,-0.84616
 13:41:44.527,eb:33:2e:f9:57:b5, 2085-97-252 255:82:00:2097,-0.006,0.032,1.006,0.244,13.428,1.282,1.379,1.23,-115.384,-52.7,-35,10.887,26.84,0.53271,0.00894,-0.00854,-0.84616
 13:41:44.527,eb:33:2e:f9:57:b5, 2085-97-05 00:76:00:2141,0.003,0.032,1.032,1.465,15.198,-0.244,1.39,1.379,-115.378,-52.7,-35,10.887,26.84,0.53271,0.00894,-0.00854,-0.84616
 13:41:44.528,eb:33:2e:f9:57:b5, 2085-97-220 255:61:00:2101,0.002,0.048,1.02,2.319,17.761,-2.319,1.412,1.544,-115.389,-52.7,-35,10.887,26.84,0.53271,0.00894,-0.00854,-0.84616
 13:41:44.529,eb:33:2e:f9:57:b5, 2085-97-217 255:68:00:2099,-0.015,0.051,1.027,3.235,19.409,-4.639,1.439,1.73,-115.417,-52.7,-35,10.887,26.84,0.53271,0.00894,-0.00854,-0.84616
 13:41:44.557,eb:33:2e:f9:57:b5, 2085-97-225 255:62:00:2101,-0.026,0.032,1.028,4.883,20.63,-6.775,1.478,1.934,-115.472,-52.7,-35,10.887,26.84,0.53271,0.00894,-0.00854,-0.84616
 13:41:44.557,eb:33:2e:f9:57:b5, 2085-97-172 255:32:00:2136,-0.055,0.053,1.01,5.92,21.851,-8.789,1.527,2.153,-115.549,-52.7,-35,10.887,26.84,0.53271,0.00894,-0.00854,-0.84616
 13:41:44.557,eb:33:2e:f9:57:b5, 2085-97-192 255:47:00:2132,-0.038,0.013,1.017,7.019,22.766,-7.812,1.588,2.39,-115.62,-52.7,-35,10.887,26.84,0.53271,0.00894,-0.00854,-0.84616
 13:41:44.557,eb:33:2e:f9:57:b5, 2085-97-179 255:48:00:2163,-0.017,0.015,1.056,7.324,26.245,-7.446,1.659,2.637,-115.697,-52.7,-35,10.887,26.84,0.53271,0.00894,-0.00854,-0.84616
 13:41:44.587,eb:33:2e:f9:57:b5, 2085-97-231 255:54:00:2266,-0.038,0.018,1.129,6.653,32.715,-6.958,1.725,2.922,-115.763,-52.7,-35,10.887,26.84,0.53271,0.00894,-0.00854,-0.84616
 13:41:44.587,eb:33:2e:f9:57:b5, 2085-97-153 255:117:00:2032,-0.017,0.058,0.998,7.263,37.109,-7.507,1.796,3.29,-115.823,-52.7,-35,10.887,26.84,0.53271,0.00894,-0.00854,-0.84616
 13:41:44.587,eb:33:2e:f9:57:b5, 2085-97-01 00:202:00:2046,-0.023,0.067,1.027,7.385,37.354,-8.789,1.862,3.664,-115.889,-52.7,-35,10.887,26.84,0.53271,0.00894,-0.00854,-0.84616
 13:41:44.588,eb:33:2e:f9:57:b5, 2085-97-136 255:76:00:2116,-0.113,0.076,1.009,8.362,36.865,-11.353,1.934,4.043,-115.983,-52.7,-35,10.887,26.84,0.53271,0.00894,-0.00854,-0.84616
 13:41:44.647,eb:33:2e:f9:57:b5, 2085-97-193 254:160:255:2197,-0.108,-0.013,1.05,11.902,36.133,-11.597,2.027,4.411,-116.093,-52.7,-35,10.887,26.84,0.53271,0.00894,-0.00854,-0.84616
 13:41:44.647,eb:33:2e:f9:57:b5, 2085-97-66 255:241:255:2312,-0.112,-0.016,1.096,16.235,36.377,-9.521,2.164,4.774,-116.18,-52.7,-35,10.887,26.84,0.53271,0.00894,-0.00854,-0.84616
 13:41:44.647,eb:33:2e:f9:57:b5, 2085-97-247 254:146:255:2442,-0.155,-0.035,1.166,22.766,37.781,-9.094,2.357,5.147,-116.263,-52.7,-35,10.887,26.84,0.53271,0.00894,-0.00854,-0.84616
 13:41:44.647,eb:33:2e:f9:57:b5, 2085-97-194 254:179:255:2256,-0.148,-0.053,1.146,31.372,38.086,-6.104,2.62,5.537,-116.323,-52.7,-35,10.887,26.84,0.53271,0.00894,-0.00854,-0.84616
 13:41:44.647,eb:33:2e:f9:57:b5, 2085-97-229 254:163:255:2401,-0.14,-0.043,1.14,40.649,34.363,-3.479,2.983,5.9,-116.356,-52.7,-35,10.887,26.84,0.53271,0.00894,-0.00854,-0.84616
