Time,Device name,Chip Time(),Acceleration X(g),Acceleration Y(g),Acceleration Z(g),Angular velocity X(°/s),Angular velocity Y(°/s),Angular velocity Z(°/s),ShiftX(mm),ShiftY(mm),ShiftZ(mm),SpeedX(mm/s),SpeedY(mm/s),SpeedZ(mm/s),Angle X(°),Angle Y(°),Angle Z(°)
 12:56:39.271,eb:33:2e:f9:57:b5, 2015-01-01 00:41:16.350,-0.048,0.038,0.971,19.348,26.489,-9.46, , , , , , ,3.768,1.901,-77.684
 12:56:39.272,eb:33:2e:f9:57:b5, 2015-01-01 00:41:16.350,-0.019,0,1.189,13.489,29.602,-14.038, , , , , , ,4.345,2.972,-78.157
 12:56:39.272,eb:33:2e:f9:57:b5, 2015-01-01 00:41:16.350,-0.013,0.042,1.068,14.16,31.311,-13.489, , , , , , ,4.411,3.131,-78.217
 12:56:39.272,eb:33:2e:f9:57:b5, 2015-01-01 00:41:16.350,-0.036,0.095,1.062,14.893,30.884,-14.709, , , , , , ,4.482,3.29,-78.283
 12:56:39.272,eb:33:2e:f9:57:b5, 2015-01-01 00:41:16.350,-0.079,0.067,1.056,15.747,31.189,-14.771, , , , , , ,4.554,3.45,-78.344
 12:56:39.272,eb:33:2e:f9:57:b5, 2015-01-01 00:41:16.350,-0.043,0.061,1.07,17.029,30.823,-13.672, , , , , , ,4.636,3.609,-78.404
 12:56:39.272,eb:33:2e:f9:57:b5, 2015-01-01 00:41:16.350,-0.013,0.074,1.022,17.761,30.396,-13.306, , , , , , ,4.719,3.768,-78.453
 12:56:39.272,eb:33:2e:f9:57:b5, 2015-01-01 00:41:16.350,-0.036,0.112,0.988,19.592,26.184,-14.282, , , , , , ,4.807,3.917,-78.519
 12:56:39.272,eb:33:2e:f9:57:b5, 2015-01-01 00:41:16.350,-0.126,0.064,1.049,21.667,23.193,-15.259, , , , , , ,4.911,4.043,-78.585
 12:56:39.272,eb:33:2e:f9:57:b5, 2015-01-01 00:41:16.350,-0.127,0.06,0.982,21.79,15.686,-9.033, , , , , , ,5.867,4.9,-79.107
 12:56:39.273,eb:33:2e:f9:57:b5, 2015-01-01 00:41:16.350,-0.138,0.062,0.977,21.667,14.893,-8.118, , , , , , ,5.971,4.982,-79.146
 12:56:39.273,eb:33:2e:f9:57:b5, 2015-01-01 00:41:16.350,-0.148,0.064,0.969,21.484,14.099,-7.324, , , , , , ,6.075,5.054,-79.178
 12:56:39.273,eb:33:2e:f9:57:b5, 2015-01-01 00:41:16.350,-0.151,0.05,0.962,21.118,13.184,-6.226, , , , , , ,6.18,5.125,-79.206
 12:56:39.273,eb:33:2e:f9:57:b5, 2015-01-01 00:41:16.350,-0.153,0.059,0.956,20.63,12.207,-5.066, , , , , , ,6.284,5.191,-79.228
 12:56:39.273,eb:33:2e:f9:57:b5, 2015-01-01 00:41:16.350,-0.152,0.068,0.939,19.958,11.047,-4.089, , , , , , ,6.383,5.251,-79.244
 12:56:39.273,eb:33:2e:f9:57:b5, 2015-01-01 00:41:16.350,-0.153,0.076,0.926,19.104,9.827,-3.113, , , , , , ,6.476,5.306,-79.261
 12:56:39.276,eb:33:2e:f9:57:b5, 2015-01-01 00:41:16.350,-0.143,0.085,0.917,17.883,8.911,-2.319, , , , , , ,6.57,5.35,-79.272
 12:56:39.276,eb:33:2e:f9:57:b5, 2015-01-01 00:41:16.350,-0.111,0.139,0.622,-46.509,-32.043,3.296, , , , , , ,6.004,4.801,-79.156
 12:56:39.276,eb:33:2e:f9:57:b5, 2015-01-01 00:41:16.350,-0.092,0.14,0.624,-52.368,-35.583,2.991, , , , , , ,5.757,4.625,-79.156
 12:56:39.276,eb:33:2e:f9:57:b5, 2015-01-01 00:41:16.350,-0.061,0.153,0.625,-57.495,-40.649,1.831, , , , , , ,5.477,4.433,-79.173
 12:56:39.276,eb:33:2e:f9:57:b5, 2015-01-01 00:41:16.350,-0.082,0.152,0.669,-61.707,-44.922,0.488, , , , , , ,5.175,4.219,-79.184
 12:56:39.276,eb:33:2e:f9:57:b5, 2015-01-01 00:41:16.350,-0.146,0.176,0.672,-67.688,-53.345,-3.174, , , , , , ,4.845,3.972,-79.217
 12:56:39.276,eb:33:2e:f9:57:b5, 2015-01-01 00:41:16.350,-0.388,0.176,0.974,-68.848,-68.97,-7.69, , , , , , ,4.499,3.664,-79.272
 12:56:39.276,eb:33:2e:f9:57:b5, 2015-01-01 00:41:16.350,-0.385,-0.229,1.45,-55.298,-89.172,-2.38, , , , , , ,4.186,3.252,-79.338
 12:56:39.384,eb:33:2e:f9:57:b5, 2015-01-01 00:41:16.350,0.454,-0.383,1.286,-42.786,-103.76,5.371, , , , , , ,3.95,2.769,-79.354
 12:56:39.384,eb:33:2e:f9:57:b5, 2015-01-01 00:41:16.350,0.32,-0.345,2.73,-29.358,-71.838,11.658, , , , , , ,3.774,2.307,-79.338
 12:56:39.384,eb:33:2e:f9:57:b5, 2015-01-01 00:41:16.350,0.026,-0.046,1.816,-19.47,-37.659,10.315, , , , , , ,3.658,2.076,-79.305
 12:56:39.385,eb:33:2e:f9:57:b5, 2015-01-01 00:41:16.350,0.174,-0.02,1.239,-13.184,-41.748,7.263, , , , , , ,3.582,1.862,-79.283
 12:56:39.385,eb:33:2e:f9:57:b5, 2015-01-01 00:41:16.350,0.088,0.006,1.315,-8.301,-27.771,5.249, , , , , , ,3.532,1.697,-79.266
 12:56:39.385,eb:33:2e:f9:57:b5, 2015-01-01 00:41:16.350,0.082,0.042,1.179,-5.432,-20.02,3.723, , , , , , ,3.499,1.577,-79.25
 12:56:39.385,eb:33:2e:f9:57:b5, 2015-01-01 00:41:16.350,0.032,0.06,1.137,-4.395,-12.085,0.732, , , , , , ,3.472,1.5,-79.244
 12:56:39.385,eb:33:2e:f9:57:b5, 2015-01-01 00:41:16.350,0.026,0.069,1.083,-4.089,-7.446,1.465, , , , , , ,3.455,1.456,-79.25
 12:56:39.385,eb:33:2e:f9:57:b5, 2015-01-01 00:41:16.350,-0.022,0.069,1.062,-4.578,-3.296,-1.709, , , , , , ,3.433,1.434,-79.261
 12:56:39.385,eb:33:2e:f9:57:b5, 2015-01-01 00:41:16.350,0.008,0.042,1.017,-3.906,-3.113,-2.197, , , , , , ,3.411,1.417,-79.272
 12:56:39.385,eb:33:2e:f9:57:b5, 2015-01-01 00:41:16.350,-0.025,0.042,1.037,-3.906,-1.465,-2.625, , , , , , ,3.389,1.406,-79.283
 12:56:39.386,eb:33:2e:f9:57:b5, 2015-01-01 00:41:16.350,-0.003,0.024,1.006,-3.54,-1.709,-2.441, , , , , , ,3.367,1.401,-79.305
 12:56:39.386,eb:33:2e:f9:57:b5, 2015-01-01 00:41:16.350,-0.023,0.032,1.029,-2.991,0,-2.197, , , , , , ,3.351,1.395,-79.316
 12:56:39.386,eb:33:2e:f9:57:b5, 2015-01-01 00:41:16.350,-0.036,0.026,1.011,-2.625,0.549,-2.625, , , , , , ,3.34,1.395,-79.332
 12:56:39.386,eb:33:2e:f9:57:b5, 2015-01-01 00:41:16.350,-0.032,0.012,1.001,-2.075,-0.305,-1.587, , , , , , ,3.329,1.401,-79.338
 12:56:39.386,eb:33:2e:f9:57:b5, 2015-01-01 00:41:16.350,-0.022,0.021,1.004,-1.77,-0.244,-3.235, , , , , , ,3.318,1.395,-79.36
 12:56:39.386,eb:33:2e:f9:57:b5, 2015-01-01 00:41:16.350,-0.031,0.042,1.01,-0.916,0.366,-3.723, , , , , , ,3.312,1.395,-79.371
 12:56:39.386,eb:33:2e:f9:57:b5, 2015-01-01 00:41:16.350,-0.034,0.03,1.004,-0.427,1.404,-4.395, , , , , , ,3.307,1.401,-79.393
 12:56:39.386,eb:33:2e:f9:57:b5, 2015-01-01 00:41:16.350,-0.046,0.04,0.992,0.244,1.038,-3.54, , , , , , ,3.307,1.406,-79.415
 12:56:39.386,eb:33:2e:f9:57:b5, 2015-01-01 00:41:16.350,-0.046,0.007,0.99,1.099,0.366,-2.38, , , , , , ,3.307,1.417,-79.431
 12:56:39.386,eb:33:2e:f9:57:b5, 2015-01-01 00:41:16.350,-0.034,-0.021,1.002,2.563,0.122,0.061, , , , , , ,3.318,1.417,-79.437
 12:56:39.386,eb:33:2e:f9:57:b5, 2015-01-01 00:41:16.350,-0.062,0.042,0.979,2.808,-0.549,-1.465, , , , , , ,3.329,1.412,-79.442
 12:56:39.386,eb:33:2e:f9:57:b5, 2015-01-01 00:41:16.350,-0.049,-0.013,0.98,3.906,-1.404,0.427, , , , , , ,3.345,1.406,-79.448
 12:56:39.386,eb:33:2e:f9:57:b5, 2015-01-01 00:41:16.350,-0.055,0.049,0.964,4.211,-3.662,0.61, , , , , , ,3.367,1.39,-79.453
 12:56:39.405,eb:33:2e:f9:57:b5, 2015-01-01 00:41:17.335,-0.047,0.038,0.953,4.7,-5.859,0.488, , , , , , ,3.389,1.368,-79.459
 12:56:39.405,eb:33:2e:f9:57:b5, 2015-01-01 00:41:17.335,-0.045,0.021,0.979,4.944,-7.385,0.305, , , , , , ,3.411,1.335,-79.459
 12:56:39.405,eb:33:2e:f9:57:b5, 2015-01-01 00:41:17.335,-0.032,0.054,0.967,4.211,-9.705,0, , , , , , ,3.433,1.291,-79.459
 12:56:39.405,eb:33:2e:f9:57:b5, 2015-01-01 00:41:17.335,-0.02,-0.004,1.017,5.493,-8.545,2.686, , , , , , ,3.461,1.247,-79.459
 12:56:39.405,eb:33:2e:f9:57:b5, 2015-01-01 00:41:17.335,-0.025,0.08,0.975,4.272,-10.925,-0.244, , , , , , ,3.483,1.192,-79.464
 12:56:39.405,eb:33:2e:f9:57:b5, 2015-01-01 00:41:17.335,-0.008,0.043,0.994,4.639,-11.23,0, , , , , , ,3.505,1.137,-79.47
 12:56:39.405,eb:33:2e:f9:57:b5, 2015-01-01 00:41:17.335,-0.015,0.059,1,3.845,-10.803,-1.892, , , , , , ,3.527,1.082,-79.475
 12:56:39.405,eb:33:2e:f9:57:b5, 2015-01-01 00:41:17.335,-0.021,0.041,1.004,3.845,-10.071,-1.77, , , , , , ,3.549,1.033,-79.497
 12:56:39.496,eb:33:2e:f9:57:b5, 2015-01-01 00:41:17.335,-0.022,0.038,0.998,3.601,-9.949,-1.038, , , , , , ,3.565,0.983,-79.508
 12:56:39.496,eb:33:2e:f9:57:b5, 2015-01-01 00:41:17.335,-0.019,0.028,0.999,3.845,-9.888,0.305, , , , , , ,3.582,0.934,-79.514
 12:56:39.496,eb:33:2e:f9:57:b5, 2015-01-01 00:41:17.335,-0.009,0.03,0.997,4.089,-10.132,0.916, , , , , , ,3.604,0.884,-79.514
 12:56:39.496,eb:33:2e:f9:57:b5, 2015-01-01 00:41:17.335,-0.007,0.039,1.001,4.028,-9.888,0.793, , , , , , ,3.625,0.835,-79.519
 12:56:39.496,eb:33:2e:f9:57:b5, 2015-01-01 00:41:17.335,0,0.041,1.005,4.089,-9.399,0.793, , , , , , ,3.642,0.786,-79.514
 12:56:39.496,eb:33:2e:f9:57:b5, 2015-01-01 00:41:17.335,-0.005,0.044,1.013,3.784,-7.263,0.732, , , , , , ,3.664,0.742,-79.514
 12:56:39.496,eb:33:2e:f9:57:b5, 2015-01-01 00:41:17.335,-0.021,0.051,0.986,2.93,-6.714,0.732, , , , , , ,3.675,0.709,-79.519
 12:56:39.496,eb:33:2e:f9:57:b5, 2015-01-01 00:41:17.335,-0.006,0.014,1.006,4.761,-5.859,2.441, , , , , , ,3.697,0.676,-79.519
 12:56:39.499,eb:33:2e:f9:57:b5, 2015-01-01 00:41:17.335,-0.008,0.042,1.004,4.944,-5.31,1.709, , , , , , ,3.719,0.648,-79.514
 12:56:39.499,eb:33:2e:f9:57:b5, 2015-01-01 00:41:17.335,-0.001,0.041,1.006,5.249,-5.127,1.465, , , , , , ,3.746,0.621,-79.508
 12:56:39.499,eb:33:2e:f9:57:b5, 2015-01-01 00:41:17.335,-0.009,0.048,1.009,5.127,-4.639,0.305, , , , , , ,3.774,0.599,-79.508
 12:56:39.499,eb:33:2e:f9:57:b5, 2015-01-01 00:41:17.335,0.015,0.039,1.013,5.798,-3.662,0.244, , , , , , ,3.801,0.571,-79.514
 12:56:39.499,eb:33:2e:f9:57:b5, 2015-01-01 00:41:17.335,-0.026,0.054,1.033,5.066,-0.549,-1.343, , , , , , ,3.829,0.566,-79.519
 12:56:39.499,eb:33:2e:f9:57:b5, 2015-01-01 00:41:17.335,-0.01,0.007,1.007,7.202,-1.587,1.526, , , , , , ,3.856,0.56,-79.519
 12:56:39.499,eb:33:2e:f9:57:b5, 2015-01-01 00:41:17.335,0.006,0.038,1.013,8.972,-1.526,2.563, , , , , , ,3.9,0.549,-79.508
 12:56:39.499,eb:33:2e:f9:57:b5, 2015-01-01 00:41:17.335,0.016,0.053,0.999,8.179,-1.526,-1.099, , , , , , ,3.933,0.538,-79.525
 12:56:39.499,eb:33:2e:f9:57:b5, 2015-01-01 00:41:17.335,0.047,0.048,1.049,9.155,-1.892,-3.662, , , , , , ,3.977,0.538,-79.53
 12:56:39.499,eb:33:2e:f9:57:b5, 2015-01-01 00:41:17.335,-0.007,0.093,1.035,9.949,0.305,-1.343, , , , , , ,4.026,0.533,-79.541
 12:56:39.499,eb:33:2e:f9:57:b5, 2015-01-01 00:41:17.335,0.053,-0.029,1.071,12.207,2.625,0.488, , , , , , ,4.081,0.538,-79.541
 12:56:39.499,eb:33:2e:f9:57:b5, 2015-01-01 00:41:17.335,0.016,0.044,1.062,15.015,5.188,0.916, , , , , , ,4.153,0.544,-79.557
 12:56:39.499,eb:33:2e:f9:57:b5, 2015-01-01 00:41:17.335,0.017,0.059,1,16.357,-0.122,-3.479, , , , , , ,4.23,0.549,-79.574
 12:56:39.499,eb:33:2e:f9:57:b5, 2015-01-01 00:41:17.335,0.075,0.04,1.036,18.616,-1.099,-3.113, , , , , , ,4.307,0.544,-79.601
 12:56:39.499,eb:33:2e:f9:57:b5, 2015-01-01 00:41:17.335,0.031,0.217,1.073,15.198,-0.977,-12.817, , , , , , ,4.389,0.544,-79.64
 12:56:39.499,eb:33:2e:f9:57:b5, 2015-01-01 00:41:17.335,-0.046,0.032,1.135,17.395,3.479,-12.085, , , , , , ,4.477,0.56,-79.706
 12:56:39.518,eb:33:2e:f9:57:b5, 2015-01-01 00:41:17.335,-0.059,-0.052,1.217,22.461,10.132,-6.958, , , , , , ,4.576,0.61,-79.739
 12:56:39.518,eb:33:2e:f9:57:b5, 2015-01-01 00:41:17.335,0,-0.043,1.116,25.818,10.681,-3.113, , , , , , ,4.702,0.665,-79.755
 12:56:39.518,eb:33:2e:f9:57:b5, 2015-01-01 00:41:17.335,-0.017,0.016,1.063,28.687,10.132,-3.052, , , , , , ,4.839,0.714,-79.766
 12:56:39.518,eb:33:2e:f9:57:b5, 2015-01-01 00:41:17.335,-0.026,0.03,1.061,32.349,9.033,-1.648, , , , , , ,4.988,0.764,-79.783
 12:56:39.518,eb:33:2e:f9:57:b5, 2015-01-01 00:41:17.335,-0.058,0.055,1.092,36.438,6.165,-0.244, , , , , , ,5.164,0.797,-79.783
 12:56:39.518,eb:33:2e:f9:57:b5, 2015-01-01 00:41:17.335,-0.043,0.006,1.018,40.71,1.892,-0.916, , , , , , ,5.361,0.818,-79.788
 12:56:39.518,eb:33:2e:f9:57:b5, 2015-01-01 00:41:17.335,-0.011,0.049,1.062,44.495,-1.404,-2.563, , , , , , ,5.576,0.818,-79.794
 12:56:39.518,eb:33:2e:f9:57:b5, 2015-01-01 00:41:17.335,-0.062,0.035,1.147,44.922,2.869,-2.502, , , , , , ,5.806,0.818,-79.816
 12:56:39.587,eb:33:2e:f9:57:b5, 2015-01-01 00:41:17.335,-0.074,0.007,1.15,44.373,5.005,-1.038, , , , , , ,6.026,0.84,-79.821
 12:56:39.587,eb:33:2e:f9:57:b5, 2015-01-01 00:41:17.335,-0.03,0.005,1.095,46.814,-0.61,-4.028, , , , , , ,6.251,0.851,-79.838
 12:56:39.587,eb:33:2e:f9:57:b5, 2015-01-01 00:41:17.335,-0.057,-0.01,1.153,49.927,2.563,-1.587, , , , , , ,6.498,0.862,-79.849
 12:56:39.587,eb:33:2e:f9:57:b5, 2015-01-01 00:41:17.335,-0.044,0.017,1.135,53.04,3.662,-1.221, , , , , , ,6.757,0.873,-79.865
 12:56:39.587,eb:33:2e:f9:57:b5, 2015-01-01 00:41:17.335,-0.012,0.074,1.081,55.847,1.77,-0.488, , , , , , ,7.026,0.89,-79.865
 12:56:39.587,eb:33:2e:f9:57:b5, 2015-01-01 00:41:17.335,-0.008,0.112,1.055,57.19,-0.488,-1.465, , , , , , ,7.311,0.895,-79.865
 12:56:39.587,eb:33:2e:f9:57:b5, 2015-01-01 00:41:17.335,-0.01,0.128,1.01,57.8,-2.747,-1.831, , , , , , ,7.597,0.884,-79.882
 12:56:39.587,eb:33:2e:f9:57:b5, 2015-01-01 00:41:17.335,-0.03,0.125,0.992,58.594,-5.066,-2.747, , , , , , ,7.888,0.862,-79.898
 12:56:39.589,eb:33:2e:f9:57:b5, 2015-01-01 00:41:17.335,-0.055,0.118,0.979,59.082,-7.324,-3.54, , , , , , ,8.185,0.835,-79.92
 12:56:39.589,eb:33:2e:f9:57:b5, 2015-01-01 00:41:17.335,-0.085,0.075,1.001,59.204,-7.08,-2.197, , , , , , ,8.476,0.802,-79.937
 12:56:39.589,eb:33:2e:f9:57:b5, 2015-01-01 00:41:17.335,-0.092,0.063,0.988,59.753,-7.69,-0.488, , , , , , ,8.778,0.769,-79.948
 12:56:39.589,eb:33:2e:f9:57:b5, 2015-01-01 00:41:17.335,-0.085,0.066,1.004,60.608,-9.277,0.732, , , , , , ,9.075,0.725,-79.964
 12:56:39.589,eb:33:2e:f9:57:b5, 2015-01-01 00:41:17.335,-0.075,0.07,1.011,62.256,-11.963,1.892, , , , , , ,9.388,0.67,-79.964
 12:56:39.589,eb:33:2e:f9:57:b5, 2015-01-01 00:41:17.335,-0.075,0.081,1.027,63.782,-13.55,3.357, , , , , , ,9.701,0.604,-79.958
 12:56:39.589,eb:33:2e:f9:57:b5, 2015-01-01 00:41:17.335,-0.06,0.088,0.999,65.125,-15.076,4.761, , , , , , ,10.025,0.533,-79.948
 12:56:39.589,eb:33:2e:f9:57:b5, 2015-01-01 00:41:17.335,-0.055,0.119,0.965,65.43,-17.7,4.761, , , , , , ,10.349,0.445,-79.948
 12:56:39.654,eb:33:2e:f9:57:b5, 2015-01-01 00:41:17.335,-0.056,0.148,0.927,65.125,-19.104,5.432, , , , , , ,10.679,0.346,-79.937
 12:56:39.654,eb:33:2e:f9:57:b5, 2015-01-01 00:41:17.335,-0.035,0.17,0.865,63.232,-20.264,6.653, , , , , , ,10.997,0.247,-79.926
 12:56:39.654,eb:33:2e:f9:57:b5, 2015-01-01 00:41:17.335,-0.026,0.196,0.86,60.669,-21.057,6.775, , , , , , ,11.305,0.132,-79.915
 12:56:39.654,eb:33:2e:f9:57:b5, 2015-01-01 00:41:17.335,-0.011,0.203,0.822,57.739,-21.24,7.324, , , , , , ,11.602,0.022,-79.909
 12:56:39.654,eb:33:2e:f9:57:b5, 2015-01-01 00:41:17.335,0,0.228,0.754,54.016,-23.254,6.592, , , , , , ,11.876,-0.088,-79.898
 12:56:39.654,eb:33:2e:f9:57:b5, 2015-01-01 00:41:17.335,0.011,0.24,0.75,49.377,-24.78,5.737, , , , , , ,12.134,-0.214,-79.893
 12:56:39.654,eb:33:2e:f9:57:b5, 2015-01-01 00:41:17.335,0.022,0.249,0.745,44.983,-24.353,5.066, , , , , , ,12.365,-0.341,-79.893
 12:56:39.654,eb:33:2e:f9:57:b5, 2015-01-01 00:41:17.335,0.051,0.278,0.713,40.405,-24.353,3.906, , , , , , ,12.579,-0.467,-79.904
 12:56:39.721,eb:33:2e:f9:57:b5, 2015-01-01 00:41:17.335,0.055,0.303,0.713,35.034,-22.766,2.869, , , , , , ,12.766,-0.582,-79.915
 12:56:39.721,eb:33:2e:f9:57:b5, 2015-01-01 00:41:17.335,0.053,0.33,0.671,28.625,-21.179,1.953, , , , , , ,12.92,-0.692,-79.931
 12:56:39.721,eb:33:2e:f9:57:b5, 2015-01-01 00:41:17.335,0.025,0.333,0.689,21.667,-20.02,1.038, , , , , , ,13.041,-0.797,-79.948
 12:56:39.721,eb:33:2e:f9:57:b5, 2015-01-01 00:41:17.335,0.014,0.293,0.745,16.235,-19.165,0.488, , , , , , ,13.134,-0.89,-79.969
 12:56:39.721,eb:33:2e:f9:57:b5, 2015-01-01 00:41:17.335,0.015,0.255,0.801,12.512,-18.494,0.366, , , , , , ,13.206,-0.983,-79.991
 12:56:39.721,eb:33:2e:f9:57:b5, 2015-01-01 00:41:17.335,0.02,0.246,0.849,10.254,-17.944,0.244, , , , , , ,13.26,-1.071,-80.008
 12:56:39.721,eb:33:2e:f9:57:b5, 2015-01-01 00:41:17.335,0.018,0.244,0.868,8.545,-17.7,0.244, , , , , , ,13.304,-1.159,-80.03
 12:56:39.721,eb:33:2e:f9:57:b5, 2015-01-01 00:41:17.335,0.024,0.253,0.873,6.531,-18.86,0.061, , , , , , ,13.343,-1.247,-80.052
 12:56:39.723,eb:33:2e:f9:57:b5, 2015-01-01 00:41:17.335,0.029,0.238,0.934,5.005,-18.738,0, , , , , , ,13.37,-1.34,-80.074
 12:56:39.723,eb:33:2e:f9:57:b5, 2015-01-01 00:41:17.335,0.035,0.218,0.985,4.578,-18.066,0, , , , , , ,13.392,-1.428,-80.096
 12:56:39.723,eb:33:2e:f9:57:b5, 2015-01-01 00:41:17.335,0.055,0.212,0.997,4.517,-17.456,-0.061, , , , , , ,13.42,-1.516,-80.118
 12:56:39.723,eb:33:2e:f9:57:b5, 2015-01-01 00:41:17.335,0.069,0.21,1.052,4.822,-15.137,0, , , , , , ,13.442,-1.593,-80.145
 12:56:39.723,eb:33:2e:f9:57:b5, 2015-01-01 00:41:17.335,0.091,0.215,1.079,5.432,-13.184,-0.244, , , , , , ,13.469,-1.664,-80.162
 12:56:39.723,eb:33:2e:f9:57:b5, 2015-01-01 00:41:17.335,0.08,0.208,1.116,6.897,-10.071,-1.16, , , , , , ,13.497,-1.719,-80.178
 12:56:39.723,eb:33:2e:f9:57:b5, 2015-01-01 00:41:17.335,0.077,0.205,1.112,8.728,-7.202,-1.77, , , , , , ,13.541,-1.758,-80.195
 12:56:39.723,eb:33:2e:f9:57:b5, 2015-01-01 00:41:17.335,0.073,0.206,1.098,10.62,-5.188,-2.38, , , , , , ,13.59,-1.78,-80.217
 12:56:39.790,eb:33:2e:f9:57:b5, 2015-01-01 00:41:17.735,0.057,0.199,1.115,12.817,-2.93,-2.747, , , , , , ,13.651,-1.796,-80.239
 12:56:39.790,eb:33:2e:f9:57:b5, 2015-01-01 00:41:17.735,0.047,0.186,1.117,15.259,-1.587,-2.747, , , , , , ,13.722,-1.807,-80.255
 12:56:39.790,eb:33:2e:f9:57:b5, 2015-01-01 00:41:17.735,0.048,0.175,1.139,18.188,-0.366,-2.808, , , , , , ,13.804,-1.807,-80.266
 12:56:39.790,eb:33:2e:f9:57:b5, 2015-01-01 00:41:17.735,0.052,0.17,1.157,21.423,1.343,-2.686, , , , , , ,13.909,-1.802,-80.288
 12:56:39.790,eb:33:2e:f9:57:b5, 2015-01-01 00:41:17.735,0.062,0.182,1.132,24.536,2.747,-3.052, , , , , , ,14.024,-1.785,-80.299
 12:56:39.790,eb:33:2e:f9:57:b5, 2015-01-01 00:41:17.735,0.066,0.202,1.073,26.855,4.028,-3.845, , , , , , ,14.15,-1.763,-80.31
 12:56:39.790,eb:33:2e:f9:57:b5, 2015-01-01 00:41:17.735,0.071,0.219,1.034,28.32,5.249,-4.883, , , , , , ,14.293,-1.736,-80.327
 12:56:39.790,eb:33:2e:f9:57:b5, 2015-01-01 00:41:17.735,0.042,0.231,1.007,28.625,7.507,-5.676, , , , , , ,14.436,-1.697,-80.354
 12:56:39.790,eb:33:2e:f9:57:b5, 2015-01-01 00:41:17.735,0.032,0.252,0.92,27.71,8.301,-6.409, , , , , , ,14.579,-1.648,-80.37
 12:56:39.791,eb:33:2e:f9:57:b5, 2015-01-01 00:41:17.735,0.047,0.271,0.856,25.024,9.399,-6.836, , , , , , ,14.705,-1.599,-80.392
 12:56:39.791,eb:33:2e:f9:57:b5, 2015-01-01 00:41:17.735,0.075,0.301,0.793,20.996,10.925,-7.446, , , , , , ,14.821,-1.538,-80.414
 12:56:39.791,eb:33:2e:f9:57:b5, 2015-01-01 00:41:17.735,0.1,0.33,0.76,16.296,12.878,-9.094, , , , , , ,14.914,-1.472,-80.447
 12:56:39.791,eb:33:2e:f9:57:b5, 2015-01-01 00:41:17.735,0.119,0.356,0.742,10.62,16.113,-11.353, , , , , , ,14.98,-1.384,-80.48
 12:56:39.791,eb:33:2e:f9:57:b5, 2015-01-01 00:41:17.735,0.114,0.37,0.739,4.272,20.386,-13.489, , , , , , ,15.013,-1.28,-80.513
 12:56:39.791,eb:33:2e:f9:57:b5, 2015-01-01 00:41:17.735,0.081,0.376,0.732,-1.892,23.987,-15.991, , , , , , ,15.018,-1.154,-80.557
 12:56:39.791,eb:33:2e:f9:57:b5, 2015-01-01 00:41:17.735,0.051,0.356,0.759,-9.277,28.137,-17.883, , , , , , ,14.985,-1,-80.612
 12:56:39.878,eb:33:2e:f9:57:b5, 2015-01-01 00:41:17.735,0.015,0.321,0.828,-14.038,30.457,-18.433, , , , , , ,14.925,-0.835,-80.662
 12:56:39.878,eb:33:2e:f9:57:b5, 2015-01-01 00:41:17.735,-0.008,0.261,0.917,-16.479,31.189,-18.188, , , , , , ,14.848,-0.659,-80.711
 12:56:39.878,eb:33:2e:f9:57:b5, 2015-01-01 00:41:17.735,-0.017,0.211,1.015,-16.602,30.823,-17.578, , , , , , ,14.76,-0.489,-80.76
 12:56:39.878,eb:33:2e:f9:57:b5, 2015-01-01 00:41:17.735,-0.018,0.18,1.109,-14.832,31.25,-16.235, , , , , , ,14.683,-0.313,-80.81
 12:56:39.878,eb:33:2e:f9:57:b5, 2015-01-01 00:41:17.735,-0.029,0.173,1.137,-12.573,31.006,-15.198, , , , , , ,14.617,-0.143,-80.843
 12:56:39.878,eb:33:2e:f9:57:b5, 2015-01-01 00:41:17.735,-0.042,0.147,1.189,-9.338,30.762,-13.855, , , , , , ,14.562,0.016,-80.876
 12:56:39.878,eb:33:2e:f9:57:b5, 2015-01-01 00:41:17.735,-0.077,0.117,1.252,-4.7,30.457,-11.841, , , , , , ,14.529,0.181,-80.898
 12:56:39.878,eb:33:2e:f9:57:b5, 2015-01-01 00:41:17.735,-0.115,0.091,1.239,0.61,27.405,-9.949, , , , , , ,14.518,0.335,-80.92
 12:56:39.881,eb:33:2e:f9:57:b5, 2015-01-01 00:41:17.735,-0.153,0.068,1.271,6.226,24.841,-5.676, , , , , , ,14.54,0.467,-80.92
 12:56:39.881,eb:33:2e:f9:57:b5, 2015-01-01 00:41:17.735,-0.17,0.057,1.276,12.756,20.02,-0.977, , , , , , ,14.59,0.582,-80.909
 12:56:39.881,eb:33:2e:f9:57:b5, 2015-01-01 00:41:17.735,-0.173,0.033,1.353,21.24,13.367,4.028, , , , , , ,14.678,0.654,-80.876
 12:56:39.881,eb:33:2e:f9:57:b5, 2015-01-01 00:41:17.735,-0.123,-0.008,1.477,32.471,6.958,9.155, , , , , , ,14.815,0.692,-80.837
 12:56:39.881,eb:33:2e:f9:57:b5, 2015-01-01 00:41:17.735,-0.026,-0.01,1.646,47.729,1.221,13.794, , , , , , ,15.024,0.692,-80.771
 12:56:39.881,eb:33:2e:f9:57:b5, 2015-01-01 00:41:17.735,0.054,0.004,1.828,67.261,-4.028,16.235, , , , , , ,15.32,0.665,-80.7
 12:56:39.881,eb:33:2e:f9:57:b5, 2015-01-01 00:41:17.735,0.069,-0.02,2.044,90.088,-5.676,16.296, , , , , , ,15.721,0.615,-80.629
 12:56:39.881,eb:33:2e:f9:57:b5, 2015-01-01 00:41:17.735,0.137,-0.104,2.274,117.554,-0.61,16.724, , , , , , ,16.254,0.577,-80.557
 12:56:39.968,eb:33:2e:f9:57:b5, 2015-01-01 00:41:17.735,0.18,-0.155,2.486,146.79,9.155,17.151, , , , , , ,16.93,0.577,-80.469
 12:56:39.968,eb:33:2e:f9:57:b5, 2015-01-01 00:41:17.735,0.221,-0.195,2.676,178.711,18.677,15.747, , , , , , ,17.754,0.621,-80.37
 12:56:39.968,eb:33:2e:f9:57:b5, 2015-01-01 00:41:17.735,0.285,-0.197,2.754,217.59,25.696,11.597, , , , , , ,18.765,0.709,-80.272
 12:56:39.968,eb:33:2e:f9:57:b5, 2015-01-01 00:41:17.735,0.316,-0.139,2.715,257.69,25.696,3.845, , , , , , ,19.973,0.818,-80.2
 12:56:39.968,eb:33:2e:f9:57:b5, 2015-01-01 00:41:17.735,0.285,-0.203,2.637,296.143,24.475,-4.639, , , , , , ,21.379,0.939,-80.162
 12:56:39.968,eb:33:2e:f9:57:b5, 2015-01-01 00:41:17.735,0.388,-0.154,2.57,331.787,19.714,-12.512, , , , , , ,22.961,1.06,-80.162
 12:56:39.968,eb:33:2e:f9:57:b5, 2015-01-01 00:41:17.735,0.593,0.114,2.432,374.878,2.075,-21.667, , , , , , ,24.747,1.143,-80.217
 12:56:39.968,eb:33:2e:f9:57:b5, 2015-01-01 00:41:17.735,0.193,0.022,2.2,413.269,-20.325,-42.603, , , , , , ,26.735,1.165,-80.403
 12:56:39.970,eb:33:2e:f9:57:b5, 2015-01-01 00:41:17.735,-0.598,-0.563,2.327,427.917,-19.287,-55.603, , , , , , ,28.856,1.187,-80.684
 12:56:39.970,eb:33:2e:f9:57:b5, 2015-01-01 00:41:17.735,-0.94,-1.057,3.477,438.66,36.743,-41.748, , , , , , ,31.003,1.351,-80.881
 12:56:39.970,eb:33:2e:f9:57:b5, 2015-01-01 00:41:17.735,-0.606,-0.752,3.017,475.769,72.571,-25.574, , , , , , ,33.305,1.697,-80.832
 12:56:39.970,eb:33:2e:f9:57:b5, 2015-01-01 00:41:17.735,-0.919,-0.65,1.868,498.657,50.232,-19.104, , , , , , ,35.766,2.021,-80.722
 12:56:39.970,eb:33:2e:f9:57:b5, 2015-01-01 00:41:17.735,-1.422,-0.685,2.064,518.25,12.329,-15.686, , , , , , ,38.32,2.175,-80.722
 12:56:39.970,eb:33:2e:f9:57:b5, 2015-01-01 00:41:17.735,-1.863,-0.935,2.797,525.146,15.442,10.071, , , , , , ,40.935,2.225,-80.695
 12:56:39.970,eb:33:2e:f9:57:b5, 2015-01-01 00:41:17.735,-1.265,-0.288,2.054,536.133,-17.578,35.583, , , , , , ,43.594,2.142,-80.563
 12:56:39.970,eb:33:2e:f9:57:b5, 2015-01-01 00:41:17.735,-1.254,0.266,2.24,563.538,-53.345,57.617, , , , , , ,46.357,1.813,-80.53
 12:56:39.992,eb:33:2e:f9:57:b5, 2015-01-01 00:41:17.735,-1.182,-0.078,2.471,551.88,-49.377,72.388, , , , , , ,49.164,1.379,-80.508
 12:56:39.992,eb:33:2e:f9:57:b5, 2015-01-01 00:41:17.735,-0.553,-0.285,2.741,496.826,5.249,96.191, , , , , , ,51.751,1,-80.272
 12:56:39.992,eb:33:2e:f9:57:b5, 2015-01-01 00:41:17.735,-0.12,0.431,2.319,463.501,11.047,95.276, , , , , , ,54.146,0.626,-79.948
 12:56:39.992,eb:33:2e:f9:57:b5, 2015-01-01 00:41:17.735,-0.092,-0.101,2.182,421.875,51.941,94.238, , , , , , ,56.349,0.335,-79.536
 12:56:39.992,eb:33:2e:f9:57:b5, 2015-01-01 00:41:17.735,0.468,-0.761,1.5,384.094,81.299,99.304, , , , , , ,58.337,0.121,-78.959
 12:56:39.992,eb:33:2e:f9:57:b5, 2015-01-01 00:41:17.735,0.907,-0.233,1.307,375.977,72.327,83.008, , , , , , ,60.211,-0.066,-78.393
 12:56:39.992,eb:33:2e:f9:57:b5, 2015-01-01 00:41:17.735,1.029,0.408,1.337,404.48,47.302,55.115, , , , , , ,62.161,-0.22,-77.97
 12:56:39.992,eb:33:2e:f9:57:b5, 2015-01-01 00:41:17.735,0.909,0.948,0.963,443.909,3.113,32.959, , , , , , ,64.297,-0.363,-77.761
 12:56:40.035,eb:33:2e:f9:57:b5, 2015-01-01 00:41:17.735,1,2.479,1.673,486.877,-36.804,-33.752, , , , , , ,66.643,-0.368,-77.899
 12:56:40.035,eb:33:2e:f9:57:b5, 2015-01-01 00:41:17.735,0.69,2.312,2.635,551.208,-24.78,-100.464, , , , , , ,69.252,-0.104,-78.19
 12:56:40.035,eb:33:2e:f9:57:b5, 2015-01-01 00:41:17.735,0.141,1.916,2.228,608.521,12.268,-150.208, , , , , , ,72.213,0.511,-78.409
 12:56:40.035,eb:33:2e:f9:57:b5, 2015-01-01 00:41:17.735,0.036,2.091,1.244,564.819,36.255,-184.631, , , , , , ,75.146,1.384,-78.519
 12:56:40.035,eb:33:2e:f9:57:b5, 2015-01-01 00:41:17.735,-0.025,0.82,2.449,500.61,90.698,-176.697, , , , , , ,77.783,2.346,-78.404
 12:56:40.035,eb:33:2e:f9:57:b5, 2015-01-01 00:41:17.735,0.04,0.359,2.451,430.359,133.301,-158.142, , , , , , ,80.09,3.274,-77.981
 12:56:40.035,eb:33:2e:f9:57:b5, 2015-01-01 00:41:17.735,0.161,0.445,1.867,347.717,157.959,-140.564, , , , , , ,82.035,4.114,-77.36
 12:56:40.035,eb:33:2e:f9:57:b5, 2015-01-01 00:41:17.735,0.345,0.415,1.611,263.977,176.025,-124.573, , , , , , ,83.578,4.872,-76.591
 12:56:40.105,eb:33:2e:f9:57:b5, 2015-01-01 00:41:17.735,0.488,0.469,1.657,189.148,188.293,-112.244, , , , , , ,84.749,5.548,-75.734
 12:56:40.105,eb:33:2e:f9:57:b5, 2015-01-01 00:41:17.735,0.593,0.75,1.96,131.409,190.002,-107.788, , , , , , ,85.594,6.169,-74.822
 12:56:40.105,eb:33:2e:f9:57:b5, 2015-01-01 00:41:17.735,0.682,1.177,2.433,90.759,180.603,-112.976, , , , , , ,86.221,6.784,-73.932
 12:56:40.105,eb:33:2e:f9:57:b5, 2015-01-01 00:41:17.735,0.785,1.559,2.921,66.772,162.048,-126.282, , , , , , ,86.699,7.438,-73.109
 12:56:40.105,eb:33:2e:f9:57:b5, 2015-01-01 00:41:17.735,0.911,1.77,3.443,58.105,140.503,-146.729, , , , , , ,87.094,8.168,-72.394
 12:56:40.105,eb:33:2e:f9:57:b5, 2015-01-01 00:41:17.735,1.017,1.73,3.967,63.293,126.221,-172.241, , , , , , ,87.473,9.009,-71.768
 12:56:40.105,eb:33:2e:f9:57:b5, 2015-01-01 00:41:17.735,1.032,1.452,4.231,82.581,114.624,-206.726, , , , , , ,87.935,9.992,-71.202
 12:56:40.105,eb:33:2e:f9:57:b5, 2015-01-01 00:41:17.735,1.062,1.158,4.107,99.915,104.675,-230.469, , , , , , ,88.495,11.118,-70.681
 12:56:40.127,eb:33:2e:f9:57:b5, 2015-01-01 00:41:18.115,1.02,0.742,3.854,121.155,87.708,-259.216, , , , , , ,89.154,12.371,-70.219
 12:56:40.127,eb:33:2e:f9:57:b5, 2015-01-01 00:41:18.115,0.89,0.358,3.571,139.282,64.148,-283.813, , , , , , ,89.874,13.744,-69.851
 12:56:40.127,eb:33:2e:f9:57:b5, 2015-01-01 00:41:18.115,0.781,0.032,3.366,151.367,39.551,-309.509, , , , , , ,90.676,15.238,-69.587
 12:56:40.127,eb:33:2e:f9:57:b5, 2015-01-01 00:41:18.115,0.622,-0.318,3.32,154.175,16.663,-325.684, , , , , , ,91.489,16.837,-69.417
 12:56:40.127,eb:33:2e:f9:57:b5, 2015-01-01 00:41:18.115,0.466,-0.821,3.326,146.973,2.136,-332.153, , , , , , ,92.269,18.49,-69.324
 12:56:40.127,eb:33:2e:f9:57:b5, 2015-01-01 00:41:18.115,0.343,-1.302,3.438,131.287,1.77,-329.041, , , , , , ,92.966,20.143,-69.241
 12:56:40.127,eb:33:2e:f9:57:b5, 2015-01-01 00:41:18.115,0.3,-1.596,3.354,106.506,11.108,-318.176, , , , , , ,93.598,21.753,-69.109
 12:56:40.127,eb:33:2e:f9:57:b5, 2015-01-01 00:41:18.115,0.324,-1.784,3.182,72.937,31.128,-300.293, , , , , , ,94.12,23.286,-68.868
 12:56:40.172,eb:33:2e:f9:57:b5, 2015-01-01 00:41:18.115,0.391,-1.869,2.889,33.02,57.19,-279.541, , , , , , ,94.521,24.703,-68.494
 12:56:40.172,eb:33:2e:f9:57:b5, 2015-01-01 00:41:18.115,0.482,-1.927,2.56,-7.446,83.435,-258.118, , , , , , ,94.757,26.005,-67.978
 12:56:40.172,eb:33:2e:f9:57:b5, 2015-01-01 00:41:18.115,0.604,-1.999,2.287,-46.265,106.689,-237.488, , , , , , ,94.9,27.186,-67.319
 12:56:40.172,eb:33:2e:f9:57:b5, 2015-01-01 00:41:18.115,0.694,-1.947,1.917,-92.468,134.46,-211.792, , , , , , ,94.905,28.24,-66.511
 12:56:40.172,eb:33:2e:f9:57:b5, 2015-01-01 00:41:18.115,0.891,-1.891,1.612,-131.714,155.151,-191.895, , , , , , ,94.774,29.174,-65.577
 12:56:40.172,eb:33:2e:f9:57:b5, 2015-01-01 00:41:18.115,1.088,-1.858,0.719,-179.626,168.335,-173.828, , , , , , ,94.449,30.015,-64.567
 12:56:40.173,eb:33:2e:f9:57:b5, 2015-01-01 00:41:18.115,1.526,-1.815,-1.053,-248.352,163.147,-160.583, , , , , , ,93.878,30.778,-63.534
 12:56:40.173,eb:33:2e:f9:57:b5, 2015-01-01 00:41:18.115,1.814,-1.894,-2.917,-341.37,143.188,-153.625, , , , , , ,92.851,31.509,-62.578
 12:56:40.194,eb:33:2e:f9:57:b5, 2015-01-01 00:41:18.115,1.618,-2.3,-2.542,-415.588,88.867,-150.696, , , , , , ,91.274,32.245,-61.88
 12:56:40.194,eb:33:2e:f9:57:b5, 2015-01-01 00:41:18.115,1.411,-2.461,-1.525,-450.5,6.897,-144.348, , , , , , ,89.182,32.986,-61.644
 12:56:40.194,eb:33:2e:f9:57:b5, 2015-01-01 00:41:18.115,1.614,-2.003,-1.383,-466.37,-85.999,-137.268, , , , , , ,86.693,33.679,-61.968
 12:56:40.194,eb:33:2e:f9:57:b5, 2015-01-01 00:41:18.115,1.762,-1.596,-1.208,-476.746,-163.086,-131.104, , , , , , ,83.842,34.288,-62.836
 12:56:40.194,eb:33:2e:f9:57:b5, 2015-01-01 00:41:18.115,1.664,-1.61,-0.896,-482.605,-224.426,-123.474, , , , , , ,80.695,34.777,-64.149
 12:56:40.194,eb:33:2e:f9:57:b5, 2015-01-01 00:41:18.115,1.467,-1.838,-0.496,-481.873,-271.484,-109.619, , , , , , ,77.3,35.107,-65.819
 12:56:40.195,eb:33:2e:f9:57:b5, 2015-01-01 00:41:18.115,1.257,-1.908,-0.053,-478.577,-304.626,-89.355, , , , , , ,73.817,35.217,-67.703
 12:56:40.196,eb:33:2e:f9:57:b5, 2015-01-01 00:41:18.115,0.994,-1.801,0.382,-477.722,-322.998,-64.27, , , , , , ,70.285,35.085,-69.681
 12:56:40.238,eb:33:2e:f9:57:b5, 2015-01-01 00:41:18.115,0.748,-1.681,0.712,-481.689,-332.092,-35.156, , , , , , ,66.758,34.7,-71.653
 12:56:40.238,eb:33:2e:f9:57:b5, 2015-01-01 00:41:18.115,0.599,-1.627,1.002,-490.967,-333.496,-2.625, , , , , , ,63.232,34.069,-73.542
 12:56:40.239,eb:33:2e:f9:57:b5, 2015-01-01 00:41:18.115,0.547,-1.594,1.268,-505.493,-326.965,31.921, , , , , , ,59.799,33.201,-75.234
 12:56:40.239,eb:33:2e:f9:57:b5, 2015-01-01 00:41:18.115,0.565,-1.536,1.462,-522.644,-316.467,66.223, , , , , , ,56.431,32.135,-76.685
 12:56:40.239,eb:33:2e:f9:57:b5, 2015-01-01 00:41:18.115,0.612,-1.453,1.603,-538.391,-305.786,97.717, , , , , , ,53.146,30.894,-77.882
 12:56:40.239,eb:33:2e:f9:57:b5, 2015-01-01 00:41:18.115,0.646,-1.349,1.717,-549.683,-297.424,125.183, , , , , , ,49.905,29.504,-78.849
 12:56:40.239,eb:33:2e:f9:57:b5, 2015-01-01 00:41:18.115,0.663,-1.227,1.799,-556.03,-292.786,149.109, , , , , , ,46.785,28.004,-79.574
 12:56:40.239,eb:33:2e:f9:57:b5, 2015-01-01 00:41:18.115,0.675,-1.1,1.881,-559.204,-288.94,170.898, , , , , , ,43.759,26.406,-80.09
 12:56:40.441,eb:33:2e:f9:57:b5, 2015-01-01 00:41:18.115,0.711,-0.986,1.947,-560.486,-283.508,191.589, , , , , , ,40.82,24.73,-80.403
 12:56:40.441,eb:33:2e:f9:57:b5, 2015-01-01 00:41:18.115,0.861,-0.886,1.957,-559.753,-278.015,209.9, , , , , , ,37.936,23,-80.535
 12:56:40.441,eb:33:2e:f9:57:b5, 2015-01-01 00:41:18.115,1.003,-0.75,1.929,-557.556,-272.827,223.206, , , , , , ,35.167,21.248,-80.469
 12:56:40.441,eb:33:2e:f9:57:b5, 2015-01-01 00:41:18.115,1.141,-0.505,1.682,-553.711,-280.579,227.173, , , , , , ,32.454,19.468,-80.288
 12:56:40.441,eb:33:2e:f9:57:b5, 2015-01-01 00:41:18.115,1.208,-0.172,1.424,-548.645,-305.542,219.727, , , , , , ,29.767,17.633,-80.079
 12:56:40.441,eb:33:2e:f9:57:b5, 2015-01-01 00:41:18.115,1.193,0.204,1.287,-544.006,-345.154,201.965, , , , , , ,27.043,15.677,-79.942
 12:56:40.441,eb:33:2e:f9:57:b5, 2015-01-01 00:41:18.115,1.136,0.552,1.392,-541.443,-390.015,178.284, , , , , , ,24.346,13.596,-79.898
 12:56:40.441,eb:33:2e:f9:57:b5, 2015-01-01 00:41:18.115,1.05,0.841,1.806,-541.382,-424.011,153.992, , , , , , ,21.627,11.376,-79.953
 12:56:40.443,eb:33:2e:f9:57:b5, 2015-01-01 00:41:18.115,0.896,1.085,2.392,-543.152,-434.875,132.324, , , , , , ,18.896,9.102,-80.046
 12:56:40.443,eb:33:2e:f9:57:b5, 2015-01-01 00:41:18.115,0.631,1.339,2.975,-544.922,-419.495,114.563, , , , , , ,16.133,6.872,-80.118
 12:56:40.443,eb:33:2e:f9:57:b5, 2015-01-01 00:41:18.115,0.306,1.637,3.422,-544.189,-381.836,98.816, , , , , , ,13.409,4.812,-80.118
 12:56:40.443,eb:33:2e:f9:57:b5, 2015-01-01 00:41:18.115,0.167,2.065,3.716,-539.246,-314.697,79.956, , , , , , ,10.706,3.038,-80.057
 12:56:40.443,eb:33:2e:f9:57:b5, 2015-01-01 00:41:18.115,0.118,2.354,3.768,-534.363,-263.245,66.345, , , , , , ,8.026,1.588,-79.937
 12:56:40.443,eb:33:2e:f9:57:b5, 2015-01-01 00:41:18.115,0.078,2.728,3.813,-524.963,-186.768,45.471, , , , , , ,5.35,0.461,-79.794
 12:56:40.443,eb:33:2e:f9:57:b5, 2015-01-01 00:41:18.115,-0.016,3.019,3.751,-510.742,-137.634,27.222, , , , , , ,2.763,-0.324,-79.673
 12:56:40.443,eb:33:2e:f9:57:b5, 2015-01-01 00:41:18.115,-0.111,3.411,3.595,-485.962,-114.075,6.775, , , , , , ,0.28,-0.928,-79.623
 12:56:40.445,eb:33:2e:f9:57:b5, 2015-01-01 00:41:18.115,-0.159,3.933,3.464,-449.28,-122.742,-17.456, , , , , , ,-2.038,-1.516,-79.651
 12:56:40.445,eb:33:2e:f9:57:b5, 2015-01-01 00:41:18.115,-0.212,4.502,3.519,-402.649,-154.541,-43.884, , , , , , ,-4.175,-2.236,-79.777
 12:56:40.445,eb:33:2e:f9:57:b5, 2015-01-01 00:41:18.115,-0.359,5.086,3.655,-349.121,-196.35,-70.374, , , , , , ,-6.015,-3.153,-79.997
 12:56:40.445,eb:33:2e:f9:57:b5, 2015-01-01 00:41:18.115,-0.545,5.582,3.696,-293.701,-239.075,-95.398, , , , , , ,-7.575,-4.312,-80.299
 12:56:40.445,eb:33:2e:f9:57:b5, 2015-01-01 00:41:18.115,-0.757,5.878,3.802,-240.173,-270.02,-116.333, , , , , , ,-8.855,-5.669,-80.651
 12:56:40.445,eb:33:2e:f9:57:b5, 2015-01-01 00:41:18.115,-1.027,6.024,3.991,-190.43,-281.86,-131.165, , , , , , ,-9.882,-7.158,-81.041
 12:56:40.445,eb:33:2e:f9:57:b5, 2015-01-01 00:41:18.115,-1.354,6.149,4.104,-144.409,-273.621,-139.282, , , , , , ,-10.635,-8.652,-81.469
 12:56:40.445,eb:33:2e:f9:57:b5, 2015-01-01 00:41:18.115,-1.642,6.321,3.938,-100.83,-252.38,-143.738, , , , , , ,-11.151,-10.069,-81.936
 12:56:40.447,eb:33:2e:f9:57:b5, 2015-01-01 00:41:18.115,-1.874,6.373,3.764,-57.373,-220.642,-146.057, , , , , , ,-11.437,-11.36,-82.43
 12:56:40.447,eb:33:2e:f9:57:b5, 2015-01-01 00:41:18.115,-2.115,6.17,3.646,-12.756,-180.542,-144.348, , , , , , ,-11.492,-12.48,-82.952
 12:56:40.447,eb:33:2e:f9:57:b5, 2015-01-01 00:41:18.115,-2.276,5.737,3.45,31.616,-136.597,-137.573, , , , , , ,-11.299,-13.376,-83.507
 12:56:40.447,eb:33:2e:f9:57:b5, 2015-01-01 00:41:18.115,-2.252,5.214,3.035,70.679,-91.125,-125.793, , , , , , ,-10.887,-14.041,-84.067
 12:56:40.447,eb:33:2e:f9:57:b5, 2015-01-01 00:41:18.115,-2.236,4.676,2.703,102.844,-48.645,-109.802, , , , , , ,-10.305,-14.469,-84.595
 12:56:40.447,eb:33:2e:f9:57:b5, 2015-01-01 00:41:18.115,-2.326,4.086,2.433,131.714,-16.846,-90.393, , , , , , ,-9.597,-14.7,-85.067
 12:56:40.447,eb:33:2e:f9:57:b5, 2015-01-01 00:41:18.115,-1.592,3.444,1.985,162.354,0.916,-67.688, , , , , , ,-8.745,-14.788,-85.457
 12:56:40.447,eb:33:2e:f9:57:b5, 2015-01-01 00:41:18.115,-4.453,3.121,4.596,285.034,53.223,-90.82, , , , , , ,-7.575,-14.799,-85.864
 12:56:40.599,eb:33:2e:f9:57:b5, 2015-01-01 00:41:18.115,-0.161,3.377,5.304,426.758,292.053,-36.438, , , , , , ,-5.548,-13.53,-86.16
 12:56:40.599,eb:33:2e:f9:57:b5, 2015-01-01 00:41:18.115,-0.947,0.562,0.866,55.664,164.185,-0.305, , , , , , ,3.653,-0.33,-87.446
 12:56:40.599,eb:33:2e:f9:57:b5, 2015-01-01 00:41:18.115,-0.509,0.222,0.482,30.762,95.581,18.738, , , , , , ,3.834,0.264,-87.303
 12:56:40.599,eb:33:2e:f9:57:b5, 2015-01-01 00:41:18.115,-0.194,-0.154,0.635,29.968,70.679,12.878, , , , , , ,3.977,0.714,-87.209
 12:56:40.599,eb:33:2e:f9:57:b5, 2015-01-01 00:41:18.115,-0.234,0.146,0.859,20.081,48.157,9.949, , , , , , ,4.098,0.961,-87.149
 12:56:40.599,eb:33:2e:f9:57:b5, 2015-01-01 00:41:18.115,-0.337,0.083,0.958,17.456,36.56,4.761, , , , , , ,4.186,1.159,-87.111
 12:56:40.599,eb:33:2e:f9:57:b5, 2015-01-01 00:41:18.115,0.156,-0.071,0.87,20.935,17.822,3.723, , , , , , ,4.285,1.28,-87.078
 12:56:40.599,eb:33:2e:f9:57:b5, 2015-01-01 00:41:18.115,0.121,0.14,1.195,21.851,27.832,-2.136, , , , , , ,4.395,1.39,-87.072
 12:56:40.599,eb:33:2e:f9:57:b5, 2015-01-01 00:41:18.115,-0.008,0.023,1.251,28.809,41.199,-9.644, , , , , , ,4.521,1.566,-87.094
 12:56:40.599,eb:33:2e:f9:57:b5, 2015-01-01 00:41:18.115,-0.195,0.139,1.073,27.893,49.744,-11.353, , , , , , ,4.664,1.807,-87.127
 12:56:40.599,eb:33:2e:f9:57:b5, 2015-01-01 00:41:18.115,-0.062,0.093,0.866,25.146,37.842,-13, , , , , , ,4.796,2.032,-87.171
 12:56:40.599,eb:33:2e:f9:57:b5, 2015-01-01 00:41:18.115,-0.104,0.088,0.975,23.132,31.86,-15.137, , , , , , ,4.911,2.203,-87.237
 12:56:40.599,eb:33:2e:f9:57:b5, 2015-01-01 00:41:18.115,-0.277,0.046,0.988,22.705,27.1,-14.526, , , , , , ,5.021,2.357,-87.297
 12:56:40.599,eb:33:2e:f9:57:b5, 2015-01-01 00:41:18.115,-0.18,-0.001,0.898,24.719,8.789,-11.414, , , , , , ,5.136,2.45,-87.352
 12:56:40.599,eb:33:2e:f9:57:b5, 2015-01-01 00:41:18.115,-0.083,0.001,1.033,31.311,-7.324,-9.827, , , , , , ,5.279,2.439,-87.407
 12:56:40.599,eb:33:2e:f9:57:b5, 2015-01-01 00:41:18.115,-0.083,-0.035,1.158,37.964,-9.766,-5.676, , , , , , ,5.455,2.401,-87.451
 12:56:40.621,eb:33:2e:f9:57:b5, 2015-01-01 00:41:18.115,-0.272,0.077,0.959,43.03,-26.917,-5.493, , , , , , ,5.658,2.313,-87.484
 12:56:40.621,eb:33:2e:f9:57:b5, 2015-01-01 00:41:18.115,-0.516,-0.27,1.75,68.787,-36.255,0.183, , , , , , ,5.933,2.142,-87.523
 12:56:40.621,eb:33:2e:f9:57:b5, 2015-01-01 00:41:18.115,-0.159,-0.526,1.863,105.835,-52.49,14.404, , , , , , ,6.394,1.923,-87.501
 12:56:40.621,eb:33:2e:f9:57:b5, 2015-01-01 00:41:18.115,-0.169,-0.185,1.604,121.948,-74.768,17.334, , , , , , ,6.976,1.577,-87.468
 12:56:40.621,eb:33:2e:f9:57:b5, 2015-01-01 00:41:18.115,-0.14,-0.23,1.888,145.874,-88.867,21.851, , , , , , ,7.657,1.159,-87.413
 12:56:40.621,eb:33:2e:f9:57:b5, 2015-01-01 00:41:18.115,0.199,-0.28,2.257,175.476,-106.262,26.794, , , , , , ,8.47,0.648,-87.369
 12:56:40.621,eb:33:2e:f9:57:b5, 2015-01-01 00:41:18.115,0.109,-0.342,3.109,199.707,-103.149,36.011, , , , , , ,9.426,0.099,-87.297
 12:56:40.621,eb:33:2e:f9:57:b5, 2015-01-01 00:41:18.115,0.237,-0.722,3.578,236.084,-79.773,48.584, , , , , , ,10.519,-0.379,-87.171
 12:56:40.667,eb:33:2e:f9:57:b5, 2015-01-01 00:41:18.115,0.388,-0.477,3.524,285.034,-52.856,47.18, , , , , , ,11.843,-0.742,-86.99
 12:56:40.667,eb:33:2e:f9:57:b5, 2015-01-01 00:41:18.115,0.575,-0.727,3.537,335.693,-17.273,43.152, , , , , , ,13.42,-0.945,-86.803
 12:56:40.667,eb:33:2e:f9:57:b5, 2015-01-01 00:41:18.115,0.855,-0.655,3.838,379.395,25.513,32.349, , , , , , ,15.216,-0.972,-86.616
 12:56:40.667,eb:33:2e:f9:57:b5, 2015-01-01 00:41:18.115,1.261,-0.809,3.742,429.077,76.294,23.132, , , , , , ,17.265,-0.725,-86.402
 12:56:40.667,eb:33:2e:f9:57:b5, 2015-01-01 00:41:18.115,1.732,-0.446,3.547,469.36,98.206,-0.061, , , , , , ,19.528,-0.308,-86.204
 12:56:40.667,eb:33:2e:f9:57:b5, 2015-01-01 00:41:18.115,1.682,-0.315,3.366,517.334,113.525,-31.738, , , , , , ,22.011,0.22,-86.105
 12:56:40.667,eb:33:2e:f9:57:b5, 2015-01-01 00:41:18.115,1.509,-0.261,3.637,549.316,134.521,-64.575, , , , , , ,24.708,0.884,-86.111
 12:56:40.667,eb:33:2e:f9:57:b5, 2015-01-01 00:41:18.115,1.389,-0.401,4.315,577.637,191.895,-83.13, , , , , , ,27.548,1.813,-86.061
 12:56:40.712,eb:33:2e:f9:57:b5, 2015-01-01 00:41:18.115,0.832,0.099,4.9,591.37,231.75,-113.403, , , , , , ,30.482,2.994,-85.963
 12:56:40.712,eb:33:2e:f9:57:b5, 2015-01-01 00:41:18.115,0.303,-1.32,4.524,598.206,276.367,-112.244, , , , , , ,33.459,4.4,-85.754
 12:56:40.712,eb:33:2e:f9:57:b5, 2015-01-01 00:41:18.115,0.301,-1.361,4.922,617.126,308.289,-104.248, , , , , , ,36.535,5.927,-85.369
 12:56:40.712,eb:33:2e:f9:57:b5, 2015-01-01 00:41:18.115,0.733,-1.139,3.652,643.372,258.301,-85.388, , , , , , ,39.765,7.35,-84.853
 12:56:40.712,eb:33:2e:f9:57:b5, 2015-01-01 00:41:18.115,0.43,-0.034,2.561,644.043,136.475,-95.215, , , , , , ,43.033,8.344,-84.617
 12:56:40.712,eb:33:2e:f9:57:b5, 2015-01-01 00:41:18.115,0.018,-0.543,3.104,592.957,104.98,-91.187, , , , , , ,46.088,9.069,-84.595
 12:56:40.712,eb:33:2e:f9:57:b5, 2015-01-01 00:41:18.115,0.325,-0.6,3.416,578.735,120.483,-78.125, , , , , , ,49.005,9.767,-84.463
 12:56:40.712,eb:33:2e:f9:57:b5, 2015-01-01 00:41:18.115,0.422,-0.156,3.186,587.769,121.094,-80.872, , , , , , ,51.96,10.47,-84.254
 12:56:40.733,eb:33:2e:f9:57:b5, 2015-01-01 00:41:18.115,0.122,-0.03,3.091,594.666,132.751,-76.904, , , , , , ,54.965,11.19,-84.012
 12:56:40.733,eb:33:2e:f9:57:b5, 2015-01-01 00:41:18.115,0.087,-0.465,3.336,610.168,165.161,-71.594, , , , , , ,58.057,11.909,-83.573
 12:56:40.733,eb:33:2e:f9:57:b5, 2015-01-01 00:41:18.115,-0.139,-1.631,3.091,686.951,268.494,-35.706, , , , , , ,61.518,12.673,-82.645
 12:56:40.733,eb:33:2e:f9:57:b5, 2015-01-01 00:41:18.115,-0.728,-1.577,2.375,733.582,328.247,49.072, , , , , , ,65.396,13.271,-81.244
 12:56:40.733,eb:33:2e:f9:57:b5, 2015-01-01 00:41:18.115,-0.174,-0.335,-0.236,706.238,298.218,92.102, , , , , , ,69.401,13.535,-79.623
 12:56:40.733,eb:33:2e:f9:57:b5, 2015-01-01 00:41:18.115,-0.118,0.165,0.462,625.916,292.969,141.907, , , , , , ,73.059,13.425,-77.986
 12:56:40.733,eb:33:2e:f9:57:b5, 2015-01-01 00:41:18.115,0.129,0.274,0.811,544.495,265.442,177.734, , , , , , ,76.311,12.997,-76.388
 12:56:40.733,eb:33:2e:f9:57:b5, 2015-01-01 00:41:18.115,0.367,0.586,0.706,457.886,232.422,195.129, , , , , , ,79.091,12.332,-74.949
 12:56:40.735,eb:33:2e:f9:57:b5, 2015-01-01 00:41:18.115,0.615,0.66,0.638,376.16,200.256,193.787, , , , , , ,81.387,11.547,-73.702
 12:56:40.735,eb:33:2e:f9:57:b5, 2015-01-01 00:41:18.115,0.912,0.596,0.791,307.312,167.236,174.622, , , , , , ,83.232,10.756,-72.669
 12:56:40.735,eb:33:2e:f9:57:b5, 2015-01-01 00:41:18.115,1.004,0.634,1.062,253.479,133.606,144.958, , , , , , ,84.754,10.047,-71.834
 12:56:40.735,eb:33:2e:f9:57:b5, 2015-01-01 00:41:18.115,0.884,0.83,1.426,216.675,94.116,107.117, , , , , , ,86.006,9.481,-71.219
 12:56:40.735,eb:33:2e:f9:57:b5, 2015-01-01 00:41:18.115,0.804,0.938,1.83,199.89,46.997,62.134, , , , , , ,87.089,9.102,-70.862
 12:56:40.735,eb:33:2e:f9:57:b5, 2015-01-01 00:41:18.115,0.771,0.851,2.25,196.838,-1.831,17.517, , , , , , ,88.072,8.926,-70.763
 12:56:40.735,eb:33:2e:f9:57:b5, 2015-01-01 00:41:18.115,0.726,0.668,2.524,200.562,-47.485,-25.024, , , , , , ,89.039,8.965,-70.911
 12:56:40.735,eb:33:2e:f9:57:b5, 2015-01-01 00:41:18.115,0.637,0.381,2.641,206.055,-85.51,-64.575, , , , , , ,90,9.212,-71.268
 12:56:40.868,eb:33:2e:f9:57:b5, 2015-01-01 00:41:18.695,0.532,0.007,2.686,210.449,-114.746,-99.121, , , , , , ,90.961,9.646,-71.79
 12:56:40.868,eb:33:2e:f9:57:b5, 2015-01-01 00:41:18.695,0.467,-0.367,2.796,212.341,-135.193,-127.136, , , , , , ,91.884,10.239,-72.422
 12:56:40.868,eb:33:2e:f9:57:b5, 2015-01-01 00:41:18.695,0.417,-0.689,2.983,210.022,-144.775,-148.56, , , , , , ,92.812,10.97,-73.114
 12:56:40.868,eb:33:2e:f9:57:b5, 2015-01-01 00:41:18.695,0.354,-0.959,3.188,201.721,-142.456,-163.757, , , , , , ,93.708,11.805,-73.79
 12:56:40.868,eb:33:2e:f9:57:b5, 2015-01-01 00:41:18.695,0.295,-1.168,3.348,186.096,-130.554,-173.218, , , , , , ,94.537,12.7,-74.421
 12:56:40.868,eb:33:2e:f9:57:b5, 2015-01-01 00:41:18.695,0.266,-1.301,3.408,161.56,-110.596,-177.734, , , , , , ,95.246,13.623,-74.96
 12:56:40.868,eb:33:2e:f9:57:b5, 2015-01-01 00:41:18.695,0.242,-1.369,3.356,127.625,-82.336,-177.917, , , , , , ,95.861,14.557,-75.35
 12:56:40.868,eb:33:2e:f9:57:b5, 2015-01-01 00:41:18.695,0.224,-1.43,3.218,87.341,-49.194,-174.194, , , , , , ,96.323,15.463,-75.569
 12:56:40.871,eb:33:2e:f9:57:b5, 2015-01-01 00:41:18.695,0.223,-1.49,3.048,43.579,-15.137,-167.542, , , , , , ,96.614,16.326,-75.619
 12:56:40.871,eb:33:2e:f9:57:b5, 2015-01-01 00:41:18.695,0.21,-1.528,2.881,-1.526,16.846,-158.508, , , , , , ,96.702,17.128,-75.498
 12:56:40.871,eb:33:2e:f9:57:b5, 2015-01-01 00:41:18.695,0.191,-1.533,2.722,-45.959,44.373,-147.766, , , , , , ,96.636,17.864,-75.229
 12:56:40.871,eb:33:2e:f9:57:b5, 2015-01-01 00:41:18.695,0.21,-1.533,2.598,-86.914,66.895,-135.62, , , , , , ,96.405,18.528,-74.833
 12:56:40.871,eb:33:2e:f9:57:b5, 2015-01-01 00:41:18.695,0.224,-1.524,2.536,-122.986,85.022,-122.925, , , , , , ,96.015,19.127,-74.35
 12:56:40.871,eb:33:2e:f9:57:b5, 2015-01-01 00:41:18.695,0.197,-1.532,2.417,-153.381,95.459,-110.352, , , , , , ,95.449,19.649,-73.812
 12:56:40.871,eb:33:2e:f9:57:b5, 2015-01-01 00:41:18.695,0.17,-1.576,2.164,-179.321,96.436,-97.778, , , , , , ,94.796,20.116,-73.251
 12:56:40.871,eb:33:2e:f9:57:b5, 2015-01-01 00:41:18.695,0.207,-1.662,1.835,-202.209,89.172,-85.266, , , , , , ,94.016,20.533,-72.713
 12:56:40.871,eb:33:2e:f9:57:b5, 2015-01-01 00:41:18.695,0.334,-1.765,1.541,-224.182,76.965,-73.059, , , , , , ,93.098,20.896,-72.246
 12:56:40.871,eb:33:2e:f9:57:b5, 2015-01-01 00:41:18.695,0.479,-1.817,1.358,-248.291,66.528,-62.378, , , , , , ,92.01,21.209,-71.867
 12:56:40.871,eb:33:2e:f9:57:b5, 2015-01-01 00:41:18.695,0.616,-1.78,1.205,-276.978,61.035,-53.345, , , , , , ,90.807,21.489,-71.521
 12:56:40.871,eb:33:2e:f9:57:b5, 2015-01-01 00:41:18.695,0.713,-1.666,1.039,-311.34,63.11,-46.326, , , , , , ,89.445,21.731,-71.18
 12:56:40.871,eb:33:2e:f9:57:b5, 2015-01-01 00:41:18.695,0.785,-1.477,0.677,-360.229,68.848,-40.405, , , , , , ,87.88,21.956,-70.829
 12:56:40.871,eb:33:2e:f9:57:b5, 2015-01-01 00:41:18.695,0.891,-1.316,0.274,-404.236,69.031,-38.94, , , , , , ,86.039,22.165,-70.483
 12:56:40.871,eb:33:2e:f9:57:b5, 2015-01-01 00:41:18.695,0.999,-1.204,0.004,-445.312,61.768,-41.565, , , , , , ,84.018,22.396,-70.148
 12:56:40.871,eb:33:2e:f9:57:b5, 2015-01-01 00:41:18.695,1.073,-1.192,-0.005,-479.858,44.312,-47.18, , , , , , ,81.782,22.654,-69.89
 12:56:40.892,eb:33:2e:f9:57:b5, 2015-01-01 00:41:18.695,1.061,-1.209,0.086,-508.85,21.729,-53.284, , , , , , ,79.338,22.928,-69.769
 12:56:40.892,eb:33:2e:f9:57:b5, 2015-01-01 00:41:18.695,1.023,-1.071,0.046,-535.828,-5.798,-59.509, , , , , , ,76.657,23.209,-69.824
 12:56:40.892,eb:33:2e:f9:57:b5, 2015-01-01 00:41:18.695,1.008,-0.826,0.005,-561.829,-38.879,-66.223, , , , , , ,73.812,23.483,-70.043
 12:56:40.892,eb:33:2e:f9:57:b5, 2015-01-01 00:41:18.695,1.01,-0.582,0.155,-582.886,-74.341,-72.51, , , , , , ,70.763,23.73,-70.466
 12:56:40.892,eb:33:2e:f9:57:b5, 2015-01-01 00:41:18.695,0.975,-0.413,0.5,-595.093,-108.643,-77.881, , , , , , ,67.549,23.912,-71.104
 12:56:40.892,eb:33:2e:f9:57:b5, 2015-01-01 00:41:18.695,0.905,-0.321,0.87,-597.351,-139.709,-81.238, , , , , , ,64.193,24.016,-71.938
 12:56:40.892,eb:33:2e:f9:57:b5, 2015-01-01 00:41:18.695,0.803,-0.248,1.156,-593.079,-168.03,-81.543, , , , , , ,60.82,24.016,-72.905
 12:56:40.892,eb:33:2e:f9:57:b5, 2015-01-01 00:41:18.695,0.677,-0.167,1.34,-586.121,-194.641,-77.881, , , , , , ,57.431,23.884,-73.993
 12:56:40.937,eb:33:2e:f9:57:b5, 2015-01-01 00:41:18.695,0.568,-0.102,1.504,-578.979,-217.407,-69.946, , , , , , ,54.053,23.599,-75.157
 12:56:40.937,eb:33:2e:f9:57:b5, 2015-01-01 00:41:18.695,0.459,-0.082,1.746,-572.998,-232.422,-57.617, , , , , , ,50.658,23.148,-76.366
 12:56:40.937,eb:33:2e:f9:57:b5, 2015-01-01 00:41:18.695,0.365,-0.086,2.009,-567.078,-239.441,-40.833, , , , , , ,47.368,22.549,-77.509
 12:56:40.937,eb:33:2e:f9:57:b5, 2015-01-01 00:41:18.695,0.304,-0.077,2.25,-560.181,-240.112,-20.935, , , , , , ,44.16,21.819,-78.547
 12:56:40.937,eb:33:2e:f9:57:b5, 2015-01-01 00:41:18.695,0.287,-0.034,2.419,-551.636,-237.732,0.244, , , , , , ,41.056,20.967,-79.448
 12:56:40.937,eb:33:2e:f9:57:b5, 2015-01-01 00:41:18.695,0.292,-0.001,2.502,-540.833,-234.741,21.606, , , , , , ,38.018,20.006,-80.211
 12:56:40.937,eb:33:2e:f9:57:b5, 2015-01-01 00:41:18.695,0.342,-0.001,2.472,-527.832,-234.863,42.725, , , , , , ,35.156,18.962,-80.804
 12:56:40.937,eb:33:2e:f9:57:b5, 2015-01-01 00:41:18.695,0.342,-0.062,2.375,-515.442,-236.023,62.317, , , , , , ,32.41,17.831,-81.26
 12:56:40.958,eb:33:2e:f9:57:b5, 2015-01-01 00:41:18.695,0.389,-0.096,2.182,-505.859,-241.15,83.13, , , , , , ,29.767,16.617,-81.568
 12:56:40.958,eb:33:2e:f9:57:b5, 2015-01-01 00:41:18.695,0.497,-0.106,2.099,-499.084,-245.911,102.539, , , , , , ,27.169,15.304,-81.755
 12:56:40.958,eb:33:2e:f9:57:b5, 2015-01-01 00:41:18.695,0.584,-0.055,2.048,-493.408,-250.427,119.08, , , , , , ,24.681,13.936,-81.788
 12:56:40.958,eb:33:2e:f9:57:b5, 2015-01-01 00:41:18.695,0.639,0.043,1.909,-486.694,-260.193,129.395, , , , , , ,22.247,12.513,-81.722
 12:56:40.958,eb:33:2e:f9:57:b5, 2015-01-01 00:41:18.695,0.655,0.245,1.685,-478.882,-281.494,132.751, , , , , , ,19.863,11.008,-81.595
 12:56:40.958,eb:33:2e:f9:57:b5, 2015-01-01 00:41:18.695,0.622,0.465,1.522,-471.741,-313.843,129.456, , , , , , ,17.474,9.36,-81.458
 12:56:40.958,eb:33:2e:f9:57:b5, 2015-01-01 00:41:18.695,0.583,0.59,1.548,-466.309,-351.074,122.314, , , , , , ,15.15,7.57,-81.326
 12:56:40.958,eb:33:2e:f9:57:b5, 2015-01-01 00:41:18.695,0.532,0.605,1.78,-463.379,-383.606,114.197, , , , , , ,12.843,5.625,-81.211
 12:56:41.004,eb:33:2e:f9:57:b5, 2015-01-01 00:41:18.695,0.405,0.559,2.081,-463.684,-405.64,107.239, , , , , , ,10.536,3.571,-81.074
 12:56:41.004,eb:33:2e:f9:57:b5, 2015-01-01 00:41:18.695,0.196,0.518,2.364,-467.59,-417.664,102.6, , , , , , ,8.168,1.428,-80.898
 12:56:41.004,eb:33:2e:f9:57:b5, 2015-01-01 00:41:18.695,-0.022,0.563,2.646,-475.525,-420.532,100.525, , , , , , ,5.812,-0.714,-80.651
 12:56:41.004,eb:33:2e:f9:57:b5, 2015-01-01 00:41:18.695,-0.195,0.7,3.028,-485.718,-409.912,100.464, , , , , , ,3.395,-2.823,-80.327
 12:56:41.004,eb:33:2e:f9:57:b5, 2015-01-01 00:41:18.695,-0.353,0.913,3.478,-495.422,-381.531,101.685, , , , , , ,0.906,-4.818,-79.893
 12:56:41.004,eb:33:2e:f9:57:b5, 2015-01-01 00:41:18.695,-0.502,1.199,3.856,-502.014,-338.806,102.539, , , , , , ,-1.686,-6.608,-79.36
 12:56:41.004,eb:33:2e:f9:57:b5, 2015-01-01 00:41:18.695,-0.584,1.628,4.162,-503.357,-276.245,101.013, , , , , , ,-4.279,-8.097,-78.766
 12:56:41.004,eb:33:2e:f9:57:b5, 2015-01-01 00:41:18.695,-0.635,2.009,4.31,-497.742,-226.44,96.13, , , , , , ,-6.877,-9.272,-78.162
 12:56:41.070,eb:33:2e:f9:57:b5, 2015-01-01 00:41:18.695,-0.661,2.419,4.471,-485.046,-184.998,86.548, , , , , , ,-9.432,-10.201,-77.563
 12:56:41.070,eb:33:2e:f9:57:b5, 2015-01-01 00:41:18.695,-0.708,2.906,4.651,-465.515,-155.151,71.716, , , , , , ,-11.942,-10.959,-77.003
 12:56:41.070,eb:33:2e:f9:57:b5, 2015-01-01 00:41:18.695,-0.702,3.507,4.689,-440.674,-138.916,50.415, , , , , , ,-14.288,-11.591,-76.542
 12:56:41.070,eb:33:2e:f9:57:b5, 2015-01-01 00:41:18.695,-0.619,4.196,4.626,-411.316,-133.911,21.851, , , , , , ,-16.479,-12.2,-76.207
 12:56:41.070,eb:33:2e:f9:57:b5, 2015-01-01 00:41:18.695,-0.522,4.864,4.651,-376.282,-130.249,-13.428, , , , , , ,-18.479,-12.832,-75.998
 12:56:41.070,eb:33:2e:f9:57:b5, 2015-01-01 00:41:18.695,-0.584,5.449,4.774,-335.266,-118.835,-52.49, , , , , , ,-20.281,-13.486,-75.948
 12:56:41.070,eb:33:2e:f9:57:b5, 2015-01-01 00:41:18.695,-0.732,6.026,4.701,-289.978,-101.501,-93.262, , , , , , ,-21.786,-14.128,-76.119
 12:56:41.070,eb:33:2e:f9:57:b5, 2015-01-01 00:41:18.695,-0.865,6.463,4.401,-242.676,-80.688,-132.69, , , , , , ,-22.994,-14.766,-76.514
 12:56:41.094,eb:33:2e:f9:57:b5, 2015-01-01 00:41:19.075,-1.011,6.582,3.984,-196.167,-55.481,-166.016, , , , , , ,-23.912,-15.375,-77.108
 12:56:41.094,eb:33:2e:f9:57:b5, 2015-01-01 00:41:19.075,-1.232,6.369,3.487,-150.818,-28.748,-187.622, , , , , , ,-24.576,-15.93,-77.871
 12:56:41.094,eb:33:2e:f9:57:b5, 2015-01-01 00:41:19.075,-1.476,5.969,2.989,-104.309,-5.554,-196.533, , , , , , ,-24.944,-16.408,-78.755
 12:56:41.094,eb:33:2e:f9:57:b5, 2015-01-01 00:41:19.075,-1.678,5.481,2.622,-55.603,11.475,-192.81, , , , , , ,-25.054,-16.793,-79.7
 12:56:41.094,eb:33:2e:f9:57:b5, 2015-01-01 00:41:19.075,-1.783,4.965,2.323,-8.484,22.4,-176.941, , , , , , ,-24.922,-17.1,-80.612
 12:56:41.094,eb:33:2e:f9:57:b5, 2015-01-01 00:41:19.075,-1.752,4.504,1.993,32.654,28.992,-151.062, , , , , , ,-24.609,-17.325,-81.436
 12:56:41.094,eb:33:2e:f9:57:b5, 2015-01-01 00:41:19.075,-1.613,4.168,1.755,67.078,34.729,-120.422, , , , , , ,-24.126,-17.452,-82.145
 12:56:41.094,eb:33:2e:f9:57:b5, 2015-01-01 00:41:19.075,-1.398,3.979,1.732,99.243,40.955,-91.553, , , , , , ,-23.522,-17.485,-82.727
 12:56:41.140,eb:33:2e:f9:57:b5, 2015-01-01 00:41:19.075,-1.183,3.851,1.843,133.85,49.988,-67.932, , , , , , ,-22.786,-17.424,-83.194
 12:56:41.140,eb:33:2e:f9:57:b5, 2015-01-01 00:41:19.075,-1.021,3.66,1.86,171.387,60.12,-48.706, , , , , , ,-21.896,-17.276,-83.578
 12:56:41.140,eb:33:2e:f9:57:b5, 2015-01-01 00:41:19.075,-0.915,3.391,1.733,210.51,66.833,-31.311, , , , , , ,-20.83,-17.045,-83.886
 12:56:41.140,eb:33:2e:f9:57:b5, 2015-01-01 00:41:19.075,-0.891,3.062,1.577,249.084,65.43,-15.137, , , , , , ,-19.594,-16.765,-84.122
 12:56:41.140,eb:33:2e:f9:57:b5, 2015-01-01 00:41:19.075,-0.808,2.622,1.385,286.072,52.368,0.977, , , , , , ,-18.204,-16.501,-84.249
 12:56:41.140,eb:33:2e:f9:57:b5, 2015-01-01 00:41:19.075,-0.855,2.08,1.174,319.519,39.246,19.592, , , , , , ,-16.672,-16.276,-84.265
 12:56:41.140,eb:33:2e:f9:57:b5, 2015-01-01 00:41:19.075,-0.938,1.594,0.655,350.647,17.273,40.955, , , , , , ,-15.013,-16.1,-84.139
 12:56:41.140,eb:33:2e:f9:57:b5, 2015-01-01 00:41:19.075,-0.614,1.142,0.331,379.7,-8.057,63.782, , , , , , ,-13.244,-16.024,-83.875
 12:56:41.206,eb:33:2e:f9:57:b5, 2015-01-01 00:41:19.075,-1.78,-0.392,4.038,523.743,86.243,45.166, , , , , , ,-11.146,-16.024,-83.655
 12:56:41.206,eb:33:2e:f9:57:b5, 2015-01-01 00:41:19.075,4.587,-0.042,0.133,675.11,257.812,106.812, , , , , , ,-7.998,-14.491,-83.199
 12:56:41.206,eb:33:2e:f9:57:b5, 2015-01-01 00:41:19.075,2.889,0.385,2.88,600.403,370.667,108.887, , , , , , ,-4.938,-12.92,-82.727
 12:56:41.206,eb:33:2e:f9:57:b5, 2015-01-01 00:41:19.075,1.15,1.562,4.729,508.972,493.591,-50.11, , , , , , ,-2.175,-10.833,-82.914
 12:56:41.206,eb:33:2e:f9:57:b5, 2015-01-01 00:41:19.075,0.156,2.565,5.474,296.814,602.417,-43.762, , , , , , ,-0.187,-8.026,-83.348
 12:56:41.206,eb:33:2e:f9:57:b5, 2015-01-01 00:41:19.075,-4.325,3.423,3.445,174.805,619.751,26.978, , , , , , ,0.939,-4.933,-83.254
 12:56:41.206,eb:33:2e:f9:57:b5, 2015-01-01 00:41:19.075,-4.703,1.838,-0.885,80.566,459.045,1.892, , , , , , ,1.461,-2.241,-83.134
 12:56:41.206,eb:33:2e:f9:57:b5, 2015-01-01 00:41:19.075,0.305,-1.171,-2.089,82.153,133.484,16.235, , , , , , ,1.851,-0.912,-83.046
 12:56:41.228,eb:33:2e:f9:57:b5, 2015-01-01 00:41:19.075,-0.848,0.292,1.132,78.857,114.563,18.616, , , , , , ,2.313,-0.439,-82.941
 12:56:41.228,eb:33:2e:f9:57:b5, 2015-01-01 00:41:19.075,-1.139,0.209,0.47,60.669,76.111,19.287, , , , , , ,2.642,0.06,-82.82
 12:56:41.228,eb:33:2e:f9:57:b5, 2015-01-01 00:41:19.075,-0.245,-0.104,0.21,51.636,15.137,20.447, , , , , , ,2.917,0.264,-82.711
 12:56:41.228,eb:33:2e:f9:57:b5, 2015-01-01 00:41:19.075,0.146,0.06,0.919,50.232,-9.644,10.803, , , , , , ,3.17,0.198,-82.645
 12:56:41.228,eb:33:2e:f9:57:b5, 2015-01-01 00:41:19.075,-0.273,0.225,1.341,49.438,13.367,2.747, , , , , , ,3.422,0.253,-82.612
 12:56:41.228,eb:33:2e:f9:57:b5, 2015-01-01 00:41:19.075,0.303,0.011,1.04,53.467,-2.502,-6.226, , , , , , ,3.68,0.275,-82.623
 12:56:41.228,eb:33:2e:f9:57:b5, 2015-01-01 00:41:19.075,0.329,0.057,1.296,60.486,3.906,-20.325, , , , , , ,3.966,0.269,-82.7
 12:56:41.228,eb:33:2e:f9:57:b5, 2015-01-01 00:41:19.075,0.103,0.038,1.473,70.923,23.254,-28.687, , , , , , ,4.301,0.357,-82.831
 12:56:41.250,eb:33:2e:f9:57:b5, 2015-01-01 00:41:19.075,0.483,0.316,0.976,69.153,21.057,-37.476, , , , , , ,4.658,0.483,-82.985
 12:56:41.250,eb:33:2e:f9:57:b5, 2015-01-01 00:41:19.075,0.018,0.309,1.253,66.101,42.053,-44.617, , , , , , ,4.988,0.67,-83.183
 12:56:41.250,eb:33:2e:f9:57:b5, 2015-01-01 00:41:19.075,-0.656,0.197,0.799,63.721,26.245,-47.119, , , , , , ,5.312,0.862,-83.403
 12:56:41.250,eb:33:2e:f9:57:b5, 2015-01-01 00:41:19.075,0.345,-0.268,0.88,59.204,5.92,-27.527, , , , , , ,5.62,0.967,-83.568
 12:56:41.250,eb:33:2e:f9:57:b5, 2015-01-01 00:41:19.075,-0.033,0.177,1.628,60.181,14.16,-30.212, , , , , , ,5.905,0.994,-83.705
 12:56:41.250,eb:33:2e:f9:57:b5, 2015-01-01 00:41:19.075,-0.226,-0.313,2.028,96.191,3.235,-23.865, , , , , , ,6.301,1.093,-83.842
 12:56:41.250,eb:33:2e:f9:57:b5, 2015-01-01 00:41:19.075,0.261,-0.561,2.383,138,-7.08,-11.719, , , , , , ,6.916,1.055,-83.93
 12:56:41.250,eb:33:2e:f9:57:b5, 2015-01-01 00:41:19.075,0.244,0.144,1.937,152.771,5.798,-8.789, , , , , , ,7.657,1.066,-83.974
 12:56:41.296,eb:33:2e:f9:57:b5, 2015-01-01 00:41:19.075,0.127,0.078,2.3,172.791,5.554,-4.15, , , , , , ,8.476,1.121,-83.996
 12:56:41.296,eb:33:2e:f9:57:b5, 2015-01-01 00:41:19.075,-0.185,-0.243,3.29,198.669,-0.122,1.587, , , , , , ,9.421,1.11,-84.007
 12:56:41.296,eb:33:2e:f9:57:b5, 2015-01-01 00:41:19.075,-0.125,-1.117,4.16,243.286,40.344,32.104, , , , , , ,10.536,1.219,-83.892
 12:56:41.296,eb:33:2e:f9:57:b5, 2015-01-01 00:41:19.075,0.229,-0.876,3.342,294.128,37.598,41.321, , , , , , ,11.909,1.379,-83.661
 12:56:41.296,eb:33:2e:f9:57:b5, 2015-01-01 00:41:19.075,0.573,-0.713,3.337,353.821,30.334,39.062, , , , , , ,13.568,1.489,-83.43
 12:56:41.297,eb:33:2e:f9:57:b5, 2015-01-01 00:41:19.075,0.678,-0.748,3.786,411.743,50.293,34.607, , , , , , ,15.518,1.648,-83.199
 12:56:41.297,eb:33:2e:f9:57:b5, 2015-01-01 00:41:19.075,0.922,-0.825,4.088,455.627,73.181,21.79, , , , , , ,17.721,1.912,-82.98
 12:56:41.297,eb:33:2e:f9:57:b5, 2015-01-01 00:41:19.075,0.847,-0.739,4.163,493.835,99.67,5.676, , , , , , ,20.116,2.302,-82.793
 12:56:41.342,eb:33:2e:f9:57:b5, 2015-01-01 00:41:19.075,0.795,-0.884,3.953,534.973,123.474,-17.7, , , , , , ,22.72,2.845,-82.634
 12:56:41.342,eb:33:2e:f9:57:b5, 2015-01-01 00:41:19.075,0.756,-1.198,3.743,569.397,137.207,-28.992, , , , , , ,25.499,3.516,-82.474
 12:56:41.342,eb:33:2e:f9:57:b5, 2015-01-01 00:41:19.075,0.469,-1,3.638,610.107,112.183,-62.195, , , , , , ,28.46,4.164,-82.43
 12:56:41.342,eb:33:2e:f9:57:b5, 2015-01-01 00:41:19.075,0.219,-1.249,4.312,672.363,115.051,-66.284, , , , , , ,31.701,4.823,-82.447
 12:56:41.342,eb:33:2e:f9:57:b5, 2015-01-01 00:41:19.075,0.014,-0.649,4.153,722.717,86.67,-81.482, , , , , , ,35.206,5.444,-82.48
 12:56:41.342,eb:33:2e:f9:57:b5, 2015-01-01 00:41:19.075,-0.316,-0.551,4.699,763.367,81.909,-79.895, , , , , , ,38.941,6.021,-82.579
 12:56:41.342,eb:33:2e:f9:57:b5, 2015-01-01 00:41:19.075,0.285,0.095,2.123,731.323,-27.649,-78.308, , , , , , ,42.671,6.378,-82.738
 12:56:41.342,eb:33:2e:f9:57:b5, 2015-01-01 00:41:19.075,0.199,1.129,2.548,680.359,-127.991,-89.478, , , , , , ,46.099,6.317,-83.403
 12:56:41.364,eb:33:2e:f9:57:b5, 2015-01-01 00:41:19.075,-0.244,0.773,3.422,626.404,-90.454,-100.281, , , , , , ,49.274,6.29,-84.133
 12:56:41.364,eb:33:2e:f9:57:b5, 2015-01-01 00:41:19.075,-0.573,0.542,3.642,566.833,-4.395,-98.633, , , , , , ,52.152,6.553,-84.595
 12:56:41.364,eb:33:2e:f9:57:b5, 2015-01-01 00:41:19.075,-0.319,0.217,4.117,559.875,100.83,-75.256, , , , , , ,54.926,7.081,-84.628
 12:56:41.364,eb:33:2e:f9:57:b5, 2015-01-01 00:41:19.075,0.416,-0.284,3.867,607.3,170.776,-60.181, , , , , , ,57.892,7.751,-84.216
 12:56:41.364,eb:33:2e:f9:57:b5, 2015-01-01 00:41:19.075,-0.612,-1.011,3.499,767.334,268.738,-24.536, , , , , , ,61.518,8.514,-83.309
 12:56:41.365,eb:33:2e:f9:57:b5, 2015-01-01 00:41:19.075,-0.229,2.221,-2.026,750.244,170.471,-43.213, , , , , , ,65.539,9.141,-82.375
 12:56:41.365,eb:33:2e:f9:57:b5, 2015-01-01 00:41:19.075,-0.766,1.505,-0.026,651.55,157.776,-15.442, , , , , , ,69.082,9.58,-81.694
 12:56:41.365,eb:33:2e:f9:57:b5, 2015-01-01 00:41:19.075,-0.217,0.47,0.545,577.881,104.187,16.968, , , , , , ,72.224,9.772,-81.063
 12:56:41.410,eb:33:2e:f9:57:b5, 2015-01-01 00:41:19.075,-0.027,0.56,0.417,475.281,74.768,45.288, , , , , , ,74.883,9.717,-80.607
 12:56:41.410,eb:33:2e:f9:57:b5, 2015-01-01 00:41:19.075,0.191,0.424,0.527,381.714,60.181,56.396, , , , , , ,77.02,9.542,-80.222
 12:56:41.410,eb:33:2e:f9:57:b5, 2015-01-01 00:41:19.075,0.272,0.41,1.265,309.631,56.274,56.396, , , , , , ,78.755,9.322,-79.876
 12:56:41.410,eb:33:2e:f9:57:b5, 2015-01-01 00:41:19.075,0.369,0.749,2.14,265.259,48.523,44.983, , , , , , ,80.211,9.124,-79.563
 12:56:41.410,eb:33:2e:f9:57:b5, 2015-01-01 00:41:19.075,0.455,1.156,2.958,244.141,35.522,25.208, , , , , , ,81.502,8.987,-79.327
 12:56:41.410,eb:33:2e:f9:57:b5, 2015-01-01 00:41:19.075,0.545,1.479,3.531,239.868,13.123,-1.343, , , , , , ,82.705,8.954,-79.206
 12:56:41.411,eb:33:2e:f9:57:b5, 2015-01-01 00:41:19.075,0.694,1.565,3.949,249.451,-13.184,-34.424, , , , , , ,83.925,9.058,-79.233
 12:56:41.411,eb:33:2e:f9:57:b5, 2015-01-01 00:41:19.075,0.764,1.264,4.351,268.127,-33.569,-68.97, , , , , , ,85.199,9.322,-79.382
 12:56:41.454,eb:33:2e:f9:57:b5, 2015-01-01 00:41:19.410,0.771,0.688,4.442,288.452,-44.067,-100.281, , , , , , ,86.561,9.745,-79.618
 12:56:41.454,eb:33:2e:f9:57:b5, 2015-01-01 00:41:19.410,0.779,0.105,4.283,304.016,-45.471,-126.831, , , , , , ,87.984,10.311,-79.876
 12:56:41.454,eb:33:2e:f9:57:b5, 2015-01-01 00:41:19.410,0.692,-0.402,4.089,309.753,-37.109,-148.438, , , , , , ,89.484,11.008,-80.101
 12:56:41.454,eb:33:2e:f9:57:b5, 2015-01-01 00:41:19.410,0.792,-0.917,3.922,311.279,-27.039,-166.077, , , , , , ,91.005,11.805,-80.244
 12:56:41.454,eb:33:2e:f9:57:b5, 2015-01-01 00:41:19.410,0.87,-1.359,4.017,307.495,-8.423,-178.955, , , , , , ,92.543,12.678,-80.305
 12:56:41.454,eb:33:2e:f9:57:b5, 2015-01-01 00:41:19.410,0.882,-1.653,3.984,296.936,12.756,-188.538, , , , , , ,94.037,13.596,-80.228
 12:56:41.454,eb:33:2e:f9:57:b5, 2015-01-01 00:41:19.410,0.832,-1.875,3.842,280.457,33.447,-194.641, , , , , , ,95.526,14.54,-80.013
 12:56:41.454,eb:33:2e:f9:57:b5, 2015-01-01 00:41:19.410,0.837,-2.056,3.505,258.728,45.715,-198.425, , , , , , ,96.949,15.502,-79.673
 12:56:41.543,eb:33:2e:f9:57:b5, 2015-01-01 00:41:19.410,0.744,-2.213,3.157,230.225,56.641,-198.73, , , , , , ,98.273,16.452,-79.266
 12:56:41.543,eb:33:2e:f9:57:b5, 2015-01-01 00:41:19.410,0.812,-2.318,2.695,199.219,50.049,-199.219, , , , , , ,99.421,17.386,-78.838
 12:56:41.543,eb:33:2e:f9:57:b5, 2015-01-01 00:41:19.410,0.794,-2.365,2.52,162.537,47.119,-197.144, , , , , , ,100.443,18.32,-78.409
 12:56:41.543,eb:33:2e:f9:57:b5, 2015-01-01 00:41:19.410,0.771,-2.367,2.286,122.07,39.978,-194.763, , , , , , ,101.266,19.243,-77.981
 12:56:41.543,eb:33:2e:f9:57:b5, 2015-01-01 00:41:19.410,0.683,-2.335,2.151,77.454,32.837,-190.063, , , , , , ,101.876,20.149,-77.591
 12:56:41.543,eb:33:2e:f9:57:b5, 2015-01-01 00:41:19.410,0.556,-2.291,1.929,29.419,25.269,-182.678, , , , , , ,102.206,21.022,-77.245
 12:56:41.543,eb:33:2e:f9:57:b5, 2015-01-01 00:41:19.410,0.496,-2.215,1.705,-20.386,16.541,-172.729, , , , , , ,102.316,21.868,-76.937
 12:56:41.544,eb:33:2e:f9:57:b5, 2015-01-01 00:41:19.410,0.487,-2.13,1.658,-68.909,9.46,-161.377, , , , , , ,102.162,22.665,-76.674
 12:56:41.544,eb:33:2e:f9:57:b5, 2015-01-01 00:41:19.410,0.475,-2.072,1.782,-113.525,4.883,-149.78, , , , , , ,101.761,23.412,-76.465
 12:56:41.544,eb:33:2e:f9:57:b5, 2015-01-01 00:41:19.410,0.36,-2.055,1.946,-155.64,3.235,-136.78, , , , , , ,101.096,24.104,-76.306
 12:56:41.544,eb:33:2e:f9:57:b5, 2015-01-01 00:41:19.410,0.242,-2.099,1.899,-196.533,0.977,-121.948, , , , , , ,100.25,24.736,-76.168
 12:56:41.544,eb:33:2e:f9:57:b5, 2015-01-01 00:41:19.410,0.244,-2.214,1.696,-238.037,0.793,-104.004, , , , , , ,99.19,25.28,-76.047
 12:56:41.545,eb:33:2e:f9:57:b5, 2015-01-01 00:41:19.410,0.47,-2.273,1.415,-282.41,4.517,-85.327, , , , , , ,97.905,25.741,-75.959
 12:56:41.545,eb:33:2e:f9:57:b5, 2015-01-01 00:41:19.410,0.706,-2.156,1.113,-340.393,15.991,-66.528, , , , , , ,96.328,26.098,-75.872
 12:56:41.545,eb:33:2e:f9:57:b5, 2015-01-01 00:41:19.410,0.856,-1.954,0.93,-391.418,30.457,-55.481, , , , , , ,94.548,26.384,-75.707
 12:56:41.545,eb:33:2e:f9:57:b5, 2015-01-01 00:41:19.410,0.893,-1.775,0.849,-440.063,44.861,-48.035, , , , , , ,92.549,26.625,-75.454
 12:56:41.565,eb:33:2e:f9:57:b5, 2015-01-01 00:41:19.410,0.935,-1.739,0.917,-479.187,52.49,-43.03, , , , , , ,90.352,26.845,-75.168
 12:56:41.565,eb:33:2e:f9:57:b5, 2015-01-01 00:41:19.410,1.058,-1.753,1.049,-505.249,52.124,-40.833, , , , , , ,87.957,27.059,-74.905
 12:56:41.565,eb:33:2e:f9:57:b5, 2015-01-01 00:41:19.410,1.186,-1.564,0.973,-527.1,41.138,-41.748, , , , , , ,85.479,27.274,-74.658
 12:56:41.565,eb:33:2e:f9:57:b5, 2015-01-01 00:41:19.410,1.244,-1.2,0.638,-552.734,21.179,-46.326, , , , , , ,82.831,27.51,-74.509
 12:56:41.565,eb:33:2e:f9:57:b5, 2015-01-01 00:41:19.410,1.273,-0.821,0.249,-583.252,-8.789,-55.42, , , , , , ,79.969,27.768,-74.526
 12:56:41.565,eb:33:2e:f9:57:b5, 2015-01-01 00:41:19.410,1.324,-0.58,0.161,-610.596,-49.805,-68.054, , , , , , ,76.794,28.043,-74.811
 12:56:41.565,eb:33:2e:f9:57:b5, 2015-01-01 00:41:19.410,1.366,-0.438,0.463,-628.235,-95.032,-82.214, , , , , , ,73.433,28.312,-75.344
 12:56:41.565,eb:33:2e:f9:57:b5, 2015-01-01 00:41:19.410,1.372,-0.339,0.965,-634.338,-139.038,-96.008, , , , , , ,69.879,28.553,-76.157
 12:56:41.611,eb:33:2e:f9:57:b5, 2015-01-01 00:41:19.410,1.272,-0.226,1.433,-633.179,-178.894,-106.873, , , , , , ,66.187,28.724,-77.245
 12:56:41.611,eb:33:2e:f9:57:b5, 2015-01-01 00:41:19.410,1.132,-0.169,1.778,-628.967,-212.036,-113.281, , , , , , ,62.358,28.784,-78.574
 12:56:41.611,eb:33:2e:f9:57:b5, 2015-01-01 00:41:19.410,0.995,-0.183,2.042,-624.817,-234.558,-113.159, , , , , , ,58.53,28.718,-80.019
 12:56:41.611,eb:33:2e:f9:57:b5, 2015-01-01 00:41:19.410,0.847,-0.245,2.225,-622.131,-245.972,-105.53, , , , , , ,54.695,28.51,-81.513
 12:56:41.611,eb:33:2e:f9:57:b5, 2015-01-01 00:41:19.410,0.682,-0.331,2.341,-620.117,-250.122,-90.942, , , , , , ,50.9,28.147,-82.969
 12:56:41.611,eb:33:2e:f9:57:b5, 2015-01-01 00:41:19.410,0.546,-0.411,2.442,-617.554,-251.587,-70.801, , , , , , ,47.109,27.609,-84.37
 12:56:41.611,eb:33:2e:f9:57:b5, 2015-01-01 00:41:19.410,0.465,-0.473,2.586,-613.098,-250.793,-46.265, , , , , , ,43.473,26.927,-85.6
 12:56:41.611,eb:33:2e:f9:57:b5, 2015-01-01 00:41:19.410,0.508,-0.506,2.706,-605.957,-247.864,-19.104, , , , , , ,39.957,26.098,-86.649
 12:56:41.657,eb:33:2e:f9:57:b5, 2015-01-01 00:41:19.410,0.647,-0.497,2.768,-596.436,-243.042,8.057, , , , , , ,36.584,25.142,-87.501
 12:56:41.657,eb:33:2e:f9:57:b5, 2015-01-01 00:41:19.410,0.836,-0.435,2.664,-585.205,-242.249,32.715, , , , , , ,33.305,24.071,-88.187
 12:56:41.657,eb:33:2e:f9:57:b5, 2015-01-01 00:41:19.410,1.058,-0.328,2.451,-572.51,-251.343,49.011, , , , , , ,30.212,22.906,-88.698
 12:56:41.657,eb:33:2e:f9:57:b5, 2015-01-01 00:41:19.410,1.181,-0.164,2.239,-559.143,-271.118,56.58, , , , , , ,27.23,21.627,-89.116
 12:56:41.657,eb:33:2e:f9:57:b5, 2015-01-01 00:41:19.410,1.212,0.036,2.005,-545.898,-308.655,54.81, , , , , , ,24.324,20.187,-89.528
 12:56:41.657,eb:33:2e:f9:57:b5, 2015-01-01 00:41:19.410,1.181,0.217,1.911,-534.546,-360.657,46.875, , , , , , ,21.429,18.506,-90
 12:56:41.657,eb:33:2e:f9:57:b5, 2015-01-01 00:41:19.410,1.106,0.329,2.078,-526.733,-414.856,37.292, , , , , , ,18.627,16.584,-90.505
 12:56:41.657,eb:33:2e:f9:57:b5, 2015-01-01 00:41:19.410,0.998,0.389,2.427,-523.56,-460.449,30.029, , , , , , ,15.864,14.42,-91.027
 12:56:41.747,eb:33:2e:f9:57:b5, 2015-01-01 00:41:19.410,0.82,0.444,2.847,-525.818,-492.92,26.917, , , , , , ,13.134,12.057,-91.505
 12:56:41.747,eb:33:2e:f9:57:b5, 2015-01-01 00:41:19.410,0.579,0.496,3.286,-532.959,-510.437,28.503, , , , , , ,10.36,9.531,-91.906
 12:56:41.747,eb:33:2e:f9:57:b5, 2015-01-01 00:41:19.410,0.346,0.578,3.761,-542.175,-511.78,33.936, , , , , , ,7.63,6.976,-92.153
 12:56:41.747,eb:33:2e:f9:57:b5, 2015-01-01 00:41:19.410,0.163,0.733,4.265,-550.354,-496.033,41.992, , , , , , ,4.883,4.449,-92.241
 12:56:41.747,eb:33:2e:f9:57:b5, 2015-01-01 00:41:19.410,0.003,1.008,4.741,-554.688,-465.149,50.842, , , , , , ,2.12,2.049,-92.153
 12:56:41.747,eb:33:2e:f9:57:b5, 2015-01-01 00:41:19.410,-0.199,1.357,5.145,-552.429,-425.598,58.777, , , , , , ,-0.692,-0.187,-91.901
 12:56:41.747,eb:33:2e:f9:57:b5, 2015-01-01 00:41:19.410,-0.426,1.667,5.383,-542.419,-386.902,64.819, , , , , , ,-3.433,-2.186,-91.516
 12:56:41.747,eb:33:2e:f9:57:b5, 2015-01-01 00:41:19.410,-0.585,1.959,5.467,-520.935,-350.83,70.374, , , , , , ,-6.114,-3.972,-91.033
 12:56:41.747,eb:33:2e:f9:57:b5, 2015-01-01 00:41:19.410,-0.825,2.205,5.423,-496.887,-336.243,73.73, , , , , , ,-8.696,-5.614,-90.45
 12:56:41.747,eb:33:2e:f9:57:b5, 2015-01-01 00:41:19.410,-1.109,2.576,5.161,-469.36,-346.863,74.585, , , , , , ,-11.223,-7.251,-89.78
 12:56:41.747,eb:33:2e:f9:57:b5, 2015-01-01 00:41:19.410,-1.345,3.096,4.818,-439.209,-383.301,70.984, , , , , , ,-13.59,-8.965,-89.017
 12:56:41.747,eb:33:2e:f9:57:b5, 2015-01-01 00:41:19.410,-1.58,3.674,4.681,-403.748,-430.847,62.866, , , , , , ,-15.831,-10.871,-88.171
 12:56:41.748,eb:33:2e:f9:57:b5, 2015-01-01 00:41:19.410,-1.851,4.193,4.867,-359.253,-469.788,52.979, , , , , , ,-17.919,-12.969,-87.215
 12:56:41.748,eb:33:2e:f9:57:b5, 2015-01-01 00:41:19.410,-2.171,4.723,5.335,-307.312,-476.501,43.396, , , , , , ,-19.852,-15.167,-86.171
 12:56:41.748,eb:33:2e:f9:57:b5, 2015-01-01 00:41:19.410,-2.44,5.293,5.772,-250.488,-436.829,32.837, , , , , , ,-21.506,-17.238,-85.155
 12:56:41.748,eb:33:2e:f9:57:b5, 2015-01-01 00:41:19.410,-2.513,5.744,5.829,-196.228,-346.863,23.193, , , , , , ,-22.868,-18.979,-84.265
 12:56:41.814,eb:33:2e:f9:57:b5, 2015-01-01 00:41:19.410,-2.493,5.944,5.52,-154.175,-214.294,18.921, , , , , , ,-23.939,-20.182,-83.6
 12:56:41.814,eb:33:2e:f9:57:b5, 2015-01-01 00:41:19.410,-2.419,5.955,4.891,-125.854,-65.186,21.545, , , , , , ,-24.785,-20.72,-83.216
 12:56:41.814,eb:33:2e:f9:57:b5, 2015-01-01 00:41:19.410,-2.295,5.808,4.082,-102.6,71.045,29.358, , , , , , ,-25.373,-20.577,-83.134
 12:56:41.814,eb:33:2e:f9:57:b5, 2015-01-01 00:41:19.410,-2.08,5.592,3.135,-73.669,162.781,39.795, , , , , , ,-25.757,-19.913,-83.276
 12:56:41.814,eb:33:2e:f9:57:b5, 2015-01-01 00:41:19.410,-1.724,5.449,2.053,-34.546,188.66,49.5, , , , , , ,-25.944,-18.984,-83.48
 12:56:41.814,eb:33:2e:f9:57:b5, 2015-01-01 00:41:19.410,-1.325,5.413,1.069,12.634,154.053,55.481, , , , , , ,-25.95,-18.1,-83.622
 12:56:41.814,eb:33:2e:f9:57:b5, 2015-01-01 00:41:19.410,-1.001,5.395,0.583,65.186,82.031,54.382, , , , , , ,-25.735,-17.474,-83.617
 12:56:41.814,eb:33:2e:f9:57:b5, 2015-01-01 00:41:19.410,-0.814,5.239,0.665,119.446,3.906,45.349, , , , , , ,-25.291,-17.21,-83.474
 12:56:41.814,eb:33:2e:f9:57:b5, 2015-01-01 00:41:19.410,-0.757,4.878,0.993,169.617,-53.345,32.715, , , , , , ,-24.615,-17.281,-83.221
 12:56:41.815,eb:33:2e:f9:57:b5, 2015-01-01 00:41:19.410,-0.869,4.366,1.355,214.478,-79.041,22.583, , , , , , ,-23.725,-17.556,-82.941
 12:56:41.815,eb:33:2e:f9:57:b5, 2015-01-01 00:41:19.410,-1.065,3.779,1.655,258.179,-83.13,16.846, , , , , , ,-22.599,-17.897,-82.683
 12:56:41.815,eb:33:2e:f9:57:b5, 2015-01-01 00:41:19.410,-1.22,3.085,1.956,301.453,-75.256,15.442, , , , , , ,-21.248,-18.237,-82.463
 12:56:41.815,eb:33:2e:f9:57:b5, 2015-01-01 00:41:19.410,0.544,2.207,2.125,372.009,-111.694,-18.127, , , , , , ,-19.649,-18.589,-82.271
 12:56:41.815,eb:33:2e:f9:57:b5, 2015-01-01 00:41:19.410,-3.066,2.352,9.849,684.387,295.898,24.597, , , , , , ,-16.683,-18.122,-82.601
 12:56:41.815,eb:33:2e:f9:57:b5, 2015-01-01 00:41:19.410,0.159,3.444,-2.193,766.541,244.019,-119.873, , , , , , ,-12.75,-17.095,-83.381
 12:56:41.815,eb:33:2e:f9:57:b5, 2015-01-01 00:41:19.410,1.509,3.562,0.789,761.108,322.51,-164.368, , , , , , ,-8.586,-15.738,-84.315
 12:56:41.859,eb:33:2e:f9:57:b5, 2015-01-01 00:41:19.410,2.931,3.465,6.261,629.089,529.48,-201.721, , , , , , ,-4.834,-13.634,-85.583
 12:56:41.859,eb:33:2e:f9:57:b5, 2015-01-01 00:41:19.410,-1.31,2.452,5.319,489.258,630.92,-220.947, , , , , , ,-1.846,-10.613,-86.792
 12:56:41.859,eb:33:2e:f9:57:b5, 2015-01-01 00:41:19.410,-1.385,0.697,4.862,325.928,694.092,-75.928, , , , , , ,0.187,-7.328,-87.66
 12:56:41.859,eb:33:2e:f9:57:b5, 2015-01-01 00:41:19.410,-3.801,3.518,1.208,166.199,567.017,36.865, , , , , , ,1.412,-4.23,-87.55
 12:56:41.859,eb:33:2e:f9:57:b5, 2015-01-01 00:41:19.410,-2.556,1.451,-0.843,56.274,367.859,42.542, , , , , , ,1.791,-1.89,-87.259
 12:56:41.859,eb:33:2e:f9:57:b5, 2015-01-01 00:41:19.410,0.203,-1.209,-0.383,92.102,131.165,40.405, , , , , , ,2.148,-0.906,-87.028
 12:56:41.859,eb:33:2e:f9:57:b5, 2015-01-01 00:41:19.410,-1.358,-0.461,0.965,106.506,114.319,43.64, , , , , , ,2.725,-0.423,-86.797
 12:56:41.859,eb:33:2e:f9:57:b5, 2015-01-01 00:41:19.410,-0.444,0.664,0.007,42.297,52.979,38.208, , , , , , ,3.016,0.082,-86.583
 12:56:41.928,eb:33:2e:f9:57:b5, 2015-01-01 00:41:19.880,-0.135,0.135,0.766,38.025,41.748,31.921, , , , , , ,3.192,0.291,-86.424
 12:56:41.928,eb:33:2e:f9:57:b5, 2015-01-01 00:41:19.880,0.068,0.277,1.004,29.663,17.761,15.747, , , , , , ,3.378,0.374,-86.331
 12:56:41.928,eb:33:2e:f9:57:b5, 2015-01-01 00:41:19.880,-0.414,0.094,1.251,29.602,27.588,7.935, , , , , , ,3.521,0.489,-86.276
 12:56:41.928,eb:33:2e:f9:57:b5, 2015-01-01 00:41:19.880,0.132,0.105,0.894,28.87,10.986,-1.038, , , , , , ,3.669,0.582,-86.259
 12:56:41.928,eb:33:2e:f9:57:b5, 2015-01-01 00:41:19.880,0.351,0.139,1.176,26.062,14.099,-12.756, , , , , , ,3.801,0.637,-86.298
 12:56:41.928,eb:33:2e:f9:57:b5, 2015-01-01 00:41:19.880,0.333,0.073,1.291,32.043,28.931,-25.024, , , , , , ,3.961,0.758,-86.391
 12:56:41.928,eb:33:2e:f9:57:b5, 2015-01-01 00:41:19.880,0.152,0.326,1.344,31.921,48.157,-36.682, , , , , , ,4.12,0.978,-86.539
 12:56:41.928,eb:33:2e:f9:57:b5, 2015-01-01 00:41:19.880,-0.185,0.045,1.242,37.109,44.678,-39.551, , , , , , ,4.285,1.23,-86.726
 12:56:41.971,eb:33:2e:f9:57:b5, 2015-01-01 00:41:19.880,-0.949,-0.304,1.242,52.002,28.931,-28.992, , , , , , ,4.51,1.434,-86.885
 12:56:41.971,eb:33:2e:f9:57:b5, 2015-01-01 00:41:19.880,-0.248,-0.456,0.807,69.519,-31.799,-10.071, , , , , , ,4.828,1.412,-86.979
 12:56:41.971,eb:33:2e:f9:57:b5, 2015-01-01 00:41:19.880,0.606,0.061,1.066,64.941,-51.819,-5.554, , , , , , ,5.169,1.165,-87.034
 12:56:41.971,eb:33:2e:f9:57:b5, 2015-01-01 00:41:19.880,0.432,0.209,1.975,63.049,-23.193,-5.676, , , , , , ,5.477,0.989,-87.083
 12:56:41.971,eb:33:2e:f9:57:b5, 2015-01-01 00:41:19.880,0.364,0.119,2.413,90.454,-25.513,-15.93, , , , , , ,5.867,0.879,-87.138
 12:56:41.971,eb:33:2e:f9:57:b5, 2015-01-01 00:41:19.880,0.269,-0.55,3.394,127.319,21.545,1.038, , , , , , ,6.443,0.901,-87.171
 12:56:41.972,eb:33:2e:f9:57:b5, 2015-01-01 00:41:19.880,-0.228,0.05,1.771,148.865,16.968,-1.282, , , , , , ,7.152,1.011,-87.144
 12:56:41.972,eb:33:2e:f9:57:b5, 2015-01-01 00:41:19.880,-0.547,-0.444,2.396,174.622,23.01,14.587, , , , , , ,7.965,1.104,-87.105
 12:56:41.974,eb:33:2e:f9:57:b5, 2015-01-01 00:41:19.880,-0.417,-0.574,3.252,222.9,28.87,27.222, , , , , , ,8.981,1.23,-86.968
 12:56:41.974,eb:33:2e:f9:57:b5, 2015-01-01 00:41:19.880,0.007,-0.995,3.444,285.278,-5.737,28.809, , , , , , ,10.283,1.252,-86.814
 12:56:41.974,eb:33:2e:f9:57:b5, 2015-01-01 00:41:19.880,0.25,-1.173,3.937,360.84,-6.226,33.142, , , , , , ,11.937,1.176,-86.671
 12:56:41.974,eb:33:2e:f9:57:b5, 2015-01-01 00:41:19.880,0.749,-1.02,4.148,433.411,15.625,34.058, , , , , , ,13.969,1.17,-86.506
 12:56:41.974,eb:33:2e:f9:57:b5, 2015-01-01 00:41:19.880,1.066,-0.741,4.038,484.68,29.846,17.883, , , , , , ,16.293,1.247,-86.347
 12:56:41.974,eb:33:2e:f9:57:b5, 2015-01-01 00:41:19.880,1.369,-1.084,4.318,511.292,63.599,3.784, , , , , , ,18.803,1.456,-86.237
 12:56:41.975,eb:33:2e:f9:57:b5, 2015-01-01 00:41:19.880,1.57,-1,4.246,561.279,108.887,-20.996, , , , , , ,21.506,1.912,-86.116
 12:56:41.975,eb:33:2e:f9:57:b5, 2015-01-01 00:41:19.880,1.227,-0.459,3.38,614.563,122.131,-60.608, , , , , , ,24.472,2.538,-86.078
 12:56:42.016,eb:33:2e:f9:57:b5, 2015-01-01 00:41:19.880,0.722,-0.767,3.521,648.438,139.587,-84.717, , , , , , ,27.664,3.296,-86.122
 12:56:42.016,eb:33:2e:f9:57:b5, 2015-01-01 00:41:19.880,0.317,-1.18,5.788,680.725,226.318,-82.642, , , , , , ,30.987,4.318,-86.045
 12:56:42.016,eb:33:2e:f9:57:b5, 2015-01-01 00:41:19.880,-0.378,-1.351,4.485,703.186,253.174,-82.092, , , , , , ,34.536,5.603,-85.677
 12:56:42.016,eb:33:2e:f9:57:b5, 2015-01-01 00:41:19.880,-0.849,-0.806,4.957,664.001,212.769,-86.487, , , , , , ,37.941,6.762,-85.402
 12:56:42.016,eb:33:2e:f9:57:b5, 2015-01-01 00:41:19.880,-0.644,-0.442,4.35,666.87,190.857,-55.603, , , , , , ,41.314,7.74,-85.001
 12:56:42.016,eb:33:2e:f9:57:b5, 2015-01-01 00:41:19.880,-0.19,0.213,3.786,682.312,172.546,-33.264, , , , , , ,44.758,8.531,-84.54
 12:56:42.016,eb:33:2e:f9:57:b5, 2015-01-01 00:41:19.880,0.078,0.613,2.622,662.598,126.038,-26.917, , , , , , ,48.208,9.135,-84.089
 12:56:42.016,eb:33:2e:f9:57:b5, 2015-01-01 00:41:19.880,-0.151,0.551,4.307,604.492,169.8,-26.367, , , , , , ,51.4,9.712,-83.655
 12:56:42.105,eb:33:2e:f9:57:b5, 2015-01-01 00:41:19.880,0.355,-0.527,4.988,601.624,270.752,1.648, , , , , , ,54.558,10.453,-82.738
 12:56:42.105,eb:33:2e:f9:57:b5, 2015-01-01 00:41:19.880,1.321,-0.978,3.561,632.019,316.345,24.231, , , , , , ,57.887,11.212,-81.387
 12:56:42.105,eb:33:2e:f9:57:b5, 2015-01-01 00:41:19.880,0.506,-1.04,3.423,706.726,344.36,44.861, , , , , , ,61.518,11.876,-79.887
 12:56:42.105,eb:33:2e:f9:57:b5, 2015-01-01 00:41:19.880,0.401,0.046,-0.285,799.133,308.96,64.087, , , , , , ,65.819,12.365,-78.08
 12:56:42.105,eb:33:2e:f9:57:b5, 2015-01-01 00:41:19.880,-0.072,1.834,-0.286,684.265,226.074,70.801, , , , , , ,69.747,12.546,-76.805
 12:56:42.105,eb:33:2e:f9:57:b5, 2015-01-01 00:41:19.880,0.109,0.516,1.52,602.539,161.865,102.783, , , , , , ,73.13,12.42,-75.718
 12:56:42.105,eb:33:2e:f9:57:b5, 2015-01-01 00:41:19.880,0.27,0.694,1.224,497.253,93.811,114.197, , , , , , ,75.987,12.047,-74.987
 12:56:42.106,eb:33:2e:f9:57:b5, 2015-01-01 00:41:19.880,0.507,0.522,0.936,396.423,46.875,113.892, , , , , , ,78.261,11.558,-74.526
 12:56:42.106,eb:33:2e:f9:57:b5, 2015-01-01 00:41:19.880,0.708,0.349,1.128,310.547,21.545,103.088, , , , , , ,80.024,11.052,-74.273
 12:56:42.106,eb:33:2e:f9:57:b5, 2015-01-01 00:41:19.880,0.77,0.307,1.947,256.714,11.23,80.627, , , , , , ,81.409,10.618,-74.125
 12:56:42.106,eb:33:2e:f9:57:b5, 2015-01-01 00:41:19.880,0.814,0.36,3.11,238.586,2.441,47.302, , , , , , ,82.639,10.316,-74.048
 12:56:42.106,eb:33:2e:f9:57:b5, 2015-01-01 00:41:19.880,0.802,0.394,4.016,246.094,-5.981,-12.512, , , , , , ,83.848,10.223,-74.053
 12:56:42.106,eb:33:2e:f9:57:b5, 2015-01-01 00:41:19.880,0.83,0.142,4.378,269.592,-26.489,-51.88, , , , , , ,85.128,10.426,-74.125
 12:56:42.106,eb:33:2e:f9:57:b5, 2015-01-01 00:41:19.880,0.816,-0.053,4.126,289.856,-61.707,-69.702, , , , , , ,86.468,10.734,-74.388
 12:56:42.106,eb:33:2e:f9:57:b5, 2015-01-01 00:41:19.880,0.693,-0.322,3.529,290.405,-81.909,-104.004, , , , , , ,87.847,11.162,-74.8
 12:56:42.106,eb:33:2e:f9:57:b5, 2015-01-01 00:41:19.880,0.679,-0.812,3.267,281.677,-92.468,-136.841, , , , , , ,89.182,11.772,-75.273
 12:56:42.151,eb:33:2e:f9:57:b5, 2015-01-01 00:41:19.880,0.6,-1.121,3.151,263.672,-94.36,-161.743, , , , , , ,90.439,12.535,-75.751
 12:56:42.151,eb:33:2e:f9:57:b5, 2015-01-01 00:41:19.880,0.52,-1.36,3.013,239.807,-94.421,-179.993, , , , , , ,91.549,13.403,-76.223
 12:56:42.151,eb:33:2e:f9:57:b5, 2015-01-01 00:41:19.880,0.516,-1.614,2.935,213.196,-90.088,-192.627, , , , , , ,92.565,14.359,-76.663
 12:56:42.151,eb:33:2e:f9:57:b5, 2015-01-01 00:41:19.880,0.53,-1.88,2.979,185.12,-78.674,-199.219, , , , , , ,93.45,15.364,-77.031
 12:56:42.151,eb:33:2e:f9:57:b5, 2015-01-01 00:41:19.880,0.497,-2.078,3.011,154.175,-57.861,-200.317, , , , , , ,94.208,16.386,-77.311
 12:56:42.151,eb:33:2e:f9:57:b5, 2015-01-01 00:41:19.880,0.435,-2.175,2.895,119.507,-31.494,-196.594, , , , , , ,94.796,17.386,-77.459
 12:56:42.151,eb:33:2e:f9:57:b5, 2015-01-01 00:41:19.880,0.39,-2.189,2.658,81.421,-3.967,-189.148, , , , , , ,95.284,18.353,-77.448
 12:56:42.151,eb:33:2e:f9:57:b5, 2015-01-01 00:41:19.880,0.398,-2.134,2.397,41.504,20.508,-179.504, , , , , , ,95.62,19.259,-77.283
 12:56:42.176,eb:33:2e:f9:57:b5, 2015-01-01 00:41:19.880,0.428,-2.039,2.181,1.831,41.26,-168.579, , , , , , ,95.801,20.105,-77.02
 12:56:42.176,eb:33:2e:f9:57:b5, 2015-01-01 00:41:19.880,0.476,-1.917,2.021,-35.461,55.847,-157.898, , , , , , ,95.773,20.88,-76.679
 12:56:42.177,eb:33:2e:f9:57:b5, 2015-01-01 00:41:19.880,0.532,-1.789,1.979,-68.298,64.148,-148.254, , , , , , ,95.647,21.605,-76.267
 12:56:42.177,eb:33:2e:f9:57:b5, 2015-01-01 00:41:19.880,0.555,-1.665,2.048,-96.069,68.42,-140.259, , , , , , ,95.378,22.286,-75.822
 12:56:42.177,eb:33:2e:f9:57:b5, 2015-01-01 00:41:19.880,0.499,-1.598,2.113,-120.178,70.068,-132.69, , , , , , ,94.993,22.934,-75.383
 12:56:42.177,eb:33:2e:f9:57:b5, 2015-01-01 00:41:19.880,0.372,-1.642,2.043,-143.311,66.772,-123.535, , , , , , ,94.444,23.538,-74.971
 12:56:42.177,eb:33:2e:f9:57:b5, 2015-01-01 00:41:19.880,0.328,-1.823,1.841,-167.053,58.228,-111.511, , , , , , ,93.812,24.093,-74.586
 12:56:42.177,eb:33:2e:f9:57:b5, 2015-01-01 00:41:19.880,0.386,-2.07,1.731,-191.589,53.406,-96.191, , , , , , ,93.043,24.593,-74.246
 12:56:42.242,eb:33:2e:f9:57:b5, 2015-01-01 00:41:19.880,0.505,-2.189,1.584,-219.91,59.692,-79.041, , , , , , ,92.142,25.01,-73.911
 12:56:42.242,eb:33:2e:f9:57:b5, 2015-01-01 00:41:19.880,0.683,-2.172,1.13,-256.958,70.679,-60.059, , , , , , ,91.044,25.334,-73.559
 12:56:42.242,eb:33:2e:f9:57:b5, 2015-01-01 00:41:19.880,0.766,-1.961,0.22,-315.491,77.942,-40.466, , , , , , ,89.775,25.576,-73.141
 12:56:42.242,eb:33:2e:f9:57:b5, 2015-01-01 00:41:19.880,0.896,-1.891,-0.293,-358.093,75.317,-30.884, , , , , , ,88.242,25.752,-72.708
 12:56:42.242,eb:33:2e:f9:57:b5, 2015-01-01 00:41:19.880,1.004,-1.967,-0.343,-405.518,66.101,-22.522, , , , , , ,86.473,25.895,-72.323
 12:56:42.242,eb:33:2e:f9:57:b5, 2015-01-01 00:41:19.880,1.071,-2.119,0.141,-443.481,43.579,-15.869, , , , , , ,84.402,26.01,-72.059
 12:56:42.242,eb:33:2e:f9:57:b5, 2015-01-01 00:41:19.880,1.208,-1.874,0.26,-466.98,14.648,-14.343, , , , , , ,82.178,26.098,-71.922
 12:56:42.242,eb:33:2e:f9:57:b5, 2015-01-01 00:41:19.880,1.342,-1.391,0.221,-492.798,-15.381,-17.761, , , , , , ,79.75,26.175,-71.949
 12:56:42.263,eb:33:2e:f9:57:b5, 2015-01-01 00:41:20.240,1.446,-0.999,0.253,-520.508,-44.495,-25.574, , , , , , ,77.113,26.252,-72.153
 12:56:42.263,eb:33:2e:f9:57:b5, 2015-01-01 00:41:20.240,1.524,-0.789,0.438,-544.617,-72.693,-36.56, , , , , , ,74.213,26.329,-72.565
 12:56:42.263,eb:33:2e:f9:57:b5, 2015-01-01 00:41:20.240,1.563,-0.674,0.725,-561.89,-99.609,-49.5, , , , , , ,71.191,26.406,-73.109
 12:56:42.263,eb:33:2e:f9:57:b5, 2015-01-01 00:41:20.240,1.539,-0.563,0.982,-572.693,-126.77,-63.965, , , , , , ,68.027,26.477,-73.823
 12:56:42.263,eb:33:2e:f9:57:b5, 2015-01-01 00:41:20.240,1.491,-0.468,1.147,-577.759,-156.433,-78.064, , , , , , ,64.742,26.516,-74.724
 12:56:42.263,eb:33:2e:f9:57:b5, 2015-01-01 00:41:20.240,1.407,-0.407,1.293,-578.369,-187.866,-91.125, , , , , , ,61.309,26.499,-75.85
 12:56:42.263,eb:33:2e:f9:57:b5, 2015-01-01 00:41:20.240,1.286,-0.412,1.421,-575.745,-219.971,-100.952, , , , , , ,57.854,26.395,-77.124
 12:56:42.263,eb:33:2e:f9:57:b5, 2015-01-01 00:41:20.240,1.139,-0.469,1.532,-571.411,-251.343,-106.567, , , , , , ,54.355,26.158,-78.552
 12:56:42.309,eb:33:2e:f9:57:b5, 2015-01-01 00:41:20.240,0.993,-0.535,1.656,-566.467,-281.372,-107.91, , , , , , ,50.834,25.768,-80.107
 12:56:42.309,eb:33:2e:f9:57:b5, 2015-01-01 00:41:20.240,0.844,-0.588,1.823,-561.34,-307.8,-104.553, , , , , , ,47.258,25.181,-81.771
 12:56:42.309,eb:33:2e:f9:57:b5, 2015-01-01 00:41:20.240,0.718,-0.641,2.031,-556.519,-329.895,-96.985, , , , , , ,43.77,24.412,-83.419
 12:56:42.309,eb:33:2e:f9:57:b5, 2015-01-01 00:41:20.240,0.612,-0.707,2.294,-552.49,-343.75,-85.083, , , , , , ,40.347,23.456,-85.029
 12:56:42.309,eb:33:2e:f9:57:b5, 2015-01-01 00:41:20.240,0.56,-0.761,2.539,-550.476,-349.365,-68.726, , , , , , ,37.007,22.335,-86.528
 12:56:42.309,eb:33:2e:f9:57:b5, 2015-01-01 00:41:20.240,0.542,-0.766,2.766,-550.598,-342.773,-50.537, , , , , , ,33.706,21.072,-87.885
 12:56:42.309,eb:33:2e:f9:57:b5, 2015-01-01 00:41:20.240,0.583,-0.732,2.863,-551.086,-330.261,-33.081, , , , , , ,30.553,19.759,-89.017
 12:56:42.309,eb:33:2e:f9:57:b5, 2015-01-01 00:41:20.240,0.637,-0.668,2.841,-550.903,-321.533,-19.104, , , , , , ,27.488,18.397,-89.967
 12:56:42.332,eb:33:2e:f9:57:b5, 2015-01-01 00:41:20.240,0.648,-0.562,2.71,-550.72,-324.89,-10.376, , , , , , ,24.489,16.979,-90.769
 12:56:42.332,eb:33:2e:f9:57:b5, 2015-01-01 00:41:20.240,0.617,-0.432,2.574,-551.575,-341.614,-5.737, , , , , , ,21.478,15.425,-91.505
 12:56:42.332,eb:33:2e:f9:57:b5, 2015-01-01 00:41:20.240,0.6,-0.298,2.545,-554.688,-367.31,-2.563, , , , , , ,18.55,13.76,-92.153
 12:56:42.332,eb:33:2e:f9:57:b5, 2015-01-01 00:41:20.240,0.556,-0.154,2.721,-560.242,-393.86,1.099, , , , , , ,15.628,11.926,-92.736
 12:56:42.332,eb:33:2e:f9:57:b5, 2015-01-01 00:41:20.240,0.432,0.007,3.02,-567.017,-417.236,6.592, , , , , , ,12.717,9.943,-93.224
 12:56:42.332,eb:33:2e:f9:57:b5, 2015-01-01 00:41:20.240,0.259,0.195,3.342,-572.937,-437.012,14.282, , , , , , ,9.75,7.795,-93.609
 12:56:42.332,eb:33:2e:f9:57:b5, 2015-01-01 00:41:20.240,0.1,0.412,3.728,-574.646,-451.111,24.17, , , , , , ,6.85,5.57,-93.829
 12:56:42.332,eb:33:2e:f9:57:b5, 2015-01-01 00:41:20.240,-0.062,0.67,4.238,-570.068,-454.285,36.377, , , , , , ,3.983,3.296,-93.895
 12:56:42.376,eb:33:2e:f9:57:b5, 2015-01-01 00:41:20.240,-0.267,1.011,4.798,-559.692,-444.336,50.293, , , , , , ,1.165,1.044,-93.774
 12:56:42.376,eb:33:2e:f9:57:b5, 2015-01-01 00:41:20.240,-0.467,1.406,5.275,-543.945,-424.438,65.308, , , , , , ,-1.637,-1.148,-93.466
 12:56:42.376,eb:33:2e:f9:57:b5, 2015-01-01 00:41:20.240,-0.632,1.805,5.665,-523.743,-396.301,80.017, , , , , , ,-4.318,-3.17,-92.994
 12:56:42.376,eb:33:2e:f9:57:b5, 2015-01-01 00:41:20.240,-0.827,2.177,5.896,-499.878,-364.929,94.116, , , , , , ,-6.91,-5.004,-92.373
 12:56:42.376,eb:33:2e:f9:57:b5, 2015-01-01 00:41:20.240,-1.104,2.565,5.842,-472.107,-342.957,106.262, , , , , , ,-9.404,-6.663,-91.62
 12:56:42.376,eb:33:2e:f9:57:b5, 2015-01-01 00:41:20.240,-1.396,3.084,5.48,-437.683,-347.595,113.403, , , , , , ,-11.832,-8.278,-90.742
 12:56:42.376,eb:33:2e:f9:57:b5, 2015-01-01 00:41:20.240,-1.767,3.746,5.087,-396.179,-381.653,113.098, , , , , , ,-14.052,-9.932,-89.764
 12:56:42.376,eb:33:2e:f9:57:b5, 2015-01-01 00:41:20.240,-2.093,4.595,4.788,-338.806,-442.993,103.088, , , , , , ,-16.073,-11.805,-88.687
 12:56:42.422,eb:33:2e:f9:57:b5, 2015-01-01 00:41:20.240,-2.316,5.228,4.832,-286.316,-483.032,88.379, , , , , , ,-17.869,-13.909,-87.523
 12:56:42.422,eb:33:2e:f9:57:b5, 2015-01-01 00:41:20.240,-2.528,5.728,5.268,-234.558,-477.539,70.984, , , , , , ,-19.49,-16.1,-86.325
 12:56:42.422,eb:33:2e:f9:57:b5, 2015-01-01 00:41:20.240,-2.666,6.113,5.604,-188.782,-414.062,53.223, , , , , , ,-20.847,-18.083,-85.226
 12:56:42.422,eb:33:2e:f9:57:b5, 2015-01-01 00:41:20.240,-2.762,6.315,5.502,-154.602,-294.25,40.894, , , , , , ,-21.967,-19.611,-84.348
 12:56:42.422,eb:33:2e:f9:57:b5, 2015-01-01 00:41:20.240,-2.808,6.249,4.895,-131.165,-141.724,40.894, , , , , , ,-22.879,-20.479,-83.738
 12:56:42.422,eb:33:2e:f9:57:b5, 2015-01-01 00:41:20.240,-2.7,6.046,4.077,-108.093,11.353,52.002, , , , , , ,-23.61,-20.621,-83.397
 12:56:42.422,eb:33:2e:f9:57:b5, 2015-01-01 00:41:20.240,-2.431,5.877,3.228,-72.266,126.343,67.2, , , , , , ,-24.093,-20.105,-83.287
 12:56:42.422,eb:33:2e:f9:57:b5, 2015-01-01 00:41:20.240,-1.986,5.828,2.349,-21.24,172.974,79.041, , , , , , ,-24.307,-19.221,-83.287
 12:56:42.489,eb:33:2e:f9:57:b5, 2015-01-01 00:41:20.240,-1.467,5.816,1.541,36.987,155.762,83.374, , , , , , ,-24.252,-18.292,-83.254
 12:56:42.489,eb:33:2e:f9:57:b5, 2015-01-01 00:41:20.240,-1.028,5.72,0.739,89.783,95.398,78.918, , , , , , ,-23.956,-17.578,-83.123
 12:56:42.489,eb:33:2e:f9:57:b5, 2015-01-01 00:41:20.240,-0.759,5.452,0.241,132.69,18.372,65.613, , , , , , ,-23.445,-17.205,-82.886
 12:56:42.489,eb:33:2e:f9:57:b5, 2015-01-01 00:41:20.240,-0.701,5.033,0.374,167.297,-44.8,46.753, , , , , , ,-22.764,-17.199,-82.59
 12:56:42.489,eb:33:2e:f9:57:b5, 2015-01-01 00:41:20.240,-0.866,4.593,0.867,196.899,-82.275,27.405, , , , , , ,-21.929,-17.452,-82.282
 12:56:42.489,eb:33:2e:f9:57:b5, 2015-01-01 00:41:20.240,-1.1,3.928,1.225,225.159,-98.755,12.39, , , , , , ,-20.945,-17.858,-82.024
 12:56:42.490,eb:33:2e:f9:57:b5, 2015-01-01 00:41:20.240,-1.367,2.975,1.458,256.409,-94.238,6.409, , , , , , ,-19.797,-18.303,-81.804
 12:56:42.491,eb:33:2e:f9:57:b5, 2015-01-01 00:41:20.240,-1.625,2.019,1.335,288.879,-80.505,11.414, , , , , , ,-18.474,-18.693,-81.628
 12:56:42.491,eb:33:2e:f9:57:b5, 2015-01-01 00:41:20.240,1.368,1.143,0.957,321.35,-87.524,15.991, , , , , , ,-17.007,-19.039,-81.414
 12:56:42.491,eb:33:2e:f9:57:b5, 2015-01-01 00:41:20.240,-4.181,2.463,9.406,670.349,163.696,5.066, , , , , , ,-14.332,-19.21,-81.645
 12:56:42.493,eb:33:2e:f9:57:b5, 2015-01-01 00:41:20.240,1.77,4.342,-3.433,761.841,-44.861,-234.558, , , , , , ,-10.393,-18.655,-82.359
 12:56:42.493,eb:33:2e:f9:57:b5, 2015-01-01 00:41:20.240,4.932,3.733,1.58,665.71,275.452,-253.906, , , , , , ,-6.339,-18.1,-83.546
 12:56:42.493,eb:33:2e:f9:57:b5, 2015-01-01 00:41:20.240,4.89,4.945,5.436,484.375,725.22,-234.253, , , , , , ,-3.131,-15.392,-85.007
 12:56:42.493,eb:33:2e:f9:57:b5, 2015-01-01 00:41:20.240,0.44,4.264,5.176,257.568,861.45,-188.11, , , , , , ,-1.137,-11.558,-86.27
 12:56:42.493,eb:33:2e:f9:57:b5, 2015-01-01 00:41:20.240,-3.349,1.058,4.178,160.522,924.683,-4.7, , , , , , ,-0.06,-6.921,-86.633
 12:56:42.493,eb:33:2e:f9:57:b5, 2015-01-01 00:41:20.240,-6.096,2.806,-1.593,57.495,691.65,4.822, , , , , , ,0.39,-2.972,-86.666
 12:56:42.579,eb:33:2e:f9:57:b5, 2015-01-01 00:41:20.240,-2.317,-0.648,-2.793,57.068,373.901,26.672, , , , , , ,0.632,-0.478,-86.528
 12:56:42.579,eb:33:2e:f9:57:b5, 2015-01-01 00:41:20.240,-0.413,-0.932,-0.72,84.412,162.048,33.325, , , , , , ,1.049,0.544,-86.375
 12:56:42.579,eb:33:2e:f9:57:b5, 2015-01-01 00:41:20.240,-1.42,0.415,0.944,53.162,166.504,54.993, , , , , , ,1.362,1.478,-86.127
 12:56:42.579,eb:33:2e:f9:57:b5, 2015-01-01 00:41:20.240,-1.577,0.13,-0.095,43.03,71.777,42.908, , , , , , ,1.599,1.989,-85.897
 12:56:42.579,eb:33:2e:f9:57:b5, 2015-01-01 00:41:20.240,0.537,-0.16,0.095,41.87,-17.639,44.006, , , , , , ,1.824,2.038,-85.66
 12:56:42.579,eb:33:2e:f9:57:b5, 2015-01-01 00:41:20.240,-0.176,0.076,1.985,57.556,23.01,16.907, , , , , , ,2.087,2.054,-85.529
 12:56:42.579,eb:33:2e:f9:57:b5, 2015-01-01 00:41:20.240,-0.611,-0.062,1.306,69.092,28.381,6.958, , , , , , ,2.422,2.225,-85.474
 12:56:42.580,eb:33:2e:f9:57:b5, 2015-01-01 00:41:20.240,0.089,0.076,0.639,67.078,-12.268,1.709, , , , , , ,2.763,2.225,-85.463
 12:56:42.624,eb:33:2e:f9:57:b5, 2015-01-01 00:41:20.240,-0.249,0.042,1.218,71.472,-1.953,-4.761, , , , , , ,3.109,2.192,-85.479
 12:56:42.624,eb:33:2e:f9:57:b5, 2015-01-01 00:41:20.240,0.016,0.006,0.939,73.364,-15.442,-7.507, , , , , , ,3.488,2.159,-85.518
 12:56:42.624,eb:33:2e:f9:57:b5, 2015-01-01 00:41:20.240,0.147,0.183,0.989,64.331,-32.41,-13.428, , , , , , ,3.829,2.027,-85.578
 12:56:42.624,eb:33:2e:f9:57:b5, 2015-01-01 00:41:20.240,-0.356,-0.06,1.42,76.477,-31.555,-14.16, , , , , , ,4.164,1.868,-85.677
 12:56:42.624,eb:33:2e:f9:57:b5, 2015-01-01 00:41:20.240,-0.094,-0.216,0.863,90.454,-65.369,-1.953, , , , , , ,4.609,1.637,-85.715
 12:56:42.624,eb:33:2e:f9:57:b5, 2015-01-01 00:41:20.240,0.124,0.139,0.975,83.618,-76.599,0.793, , , , , , ,5.048,1.258,-85.754
 12:56:42.624,eb:33:2e:f9:57:b5, 2015-01-01 00:41:20.240,0.535,-0.104,1.628,94.543,-70.862,15.076, , , , , , ,5.499,0.906,-85.743
 12:56:42.624,eb:33:2e:f9:57:b5, 2015-01-01 00:41:20.240,0.001,0.328,2.035,115.784,-82.703,-4.456, , , , , , ,6.021,0.483,-85.787
 12:56:42.626,eb:33:2e:f9:57:b5, 2015-01-01 00:41:20.240,0.045,-0.584,3.33,149.78,-40.344,13.611, , , , , , ,6.713,0.209,-85.787
 12:56:42.626,eb:33:2e:f9:57:b5, 2015-01-01 00:41:20.240,0.092,-0.497,2.9,170.837,-13.733,33.691, , , , , , ,7.537,0.088,-85.682
 12:56:42.626,eb:33:2e:f9:57:b5, 2015-01-01 00:41:20.240,-0.052,-0.144,2.456,196.289,-20.386,40.771, , , , , , ,8.465,-0.016,-85.501
 12:56:42.626,eb:33:2e:f9:57:b5, 2015-01-01 00:41:20.240,0.043,-0.398,2.635,237.732,-46.204,36.072, , , , , , ,9.564,-0.214,-85.342
 12:56:42.626,eb:33:2e:f9:57:b5, 2015-01-01 00:41:20.240,0.118,-0.804,3.789,292.542,-23.865,36.804, , , , , , ,10.909,-0.434,-85.193
 12:56:42.626,eb:33:2e:f9:57:b5, 2015-01-01 00:41:20.240,0.59,-1.039,3.979,353.943,5.249,36.316, , , , , , ,12.568,-0.489,-85.023
 12:56:42.626,eb:33:2e:f9:57:b5, 2015-01-01 00:41:20.240,1.013,-0.838,3.653,411.316,11.719,20.813, , , , , , ,14.507,-0.472,-84.875
 12:56:42.626,eb:33:2e:f9:57:b5, 2015-01-01 00:41:20.240,1.218,-0.625,3.892,458.74,23.071,-2.136, , , , , , ,16.71,-0.401,-84.831
 12:56:42.669,eb:33:2e:f9:57:b5, 2015-01-01 00:41:20.240,1.188,-0.544,4.143,502.93,51.819,-28.809, , , , , , ,19.133,-0.192,-84.858
 12:56:42.669,eb:33:2e:f9:57:b5, 2015-01-01 00:41:20.240,0.851,-0.912,4.08,531.799,101.318,-45.837, , , , , , ,21.747,0.242,-84.913
 12:56:42.669,eb:33:2e:f9:57:b5, 2015-01-01 00:41:20.240,0.486,-1.076,4.126,555.664,163.513,-63.171, , , , , , ,24.478,0.989,-84.891
 12:56:42.669,eb:33:2e:f9:57:b5, 2015-01-01 00:41:20.240,-0.001,-1.585,4.551,600.769,231.689,-59.204, , , , , , ,27.389,2.054,-84.721
 12:56:42.669,eb:33:2e:f9:57:b5, 2015-01-01 00:41:20.240,0.007,-1.257,4.025,643.25,237.122,-65.308, , , , , , ,30.542,3.263,-84.408
 12:56:42.669,eb:33:2e:f9:57:b5, 2015-01-01 00:41:20.240,0.018,-0.821,4.308,692.566,207.275,-55.542, , , , , , ,33.926,4.356,-84.062
 12:56:42.669,eb:33:2e:f9:57:b5, 2015-01-01 00:41:20.240,-0.442,-0.281,4.037,695.74,165.222,-52.368, , , , , , ,37.447,5.235,-83.776
 12:56:42.669,eb:33:2e:f9:57:b5, 2015-01-01 00:41:20.240,-0.143,0.018,3.724,663.818,146.912,-33.447, , , , , , ,40.88,5.966,-83.414
 12:56:42.691,eb:33:2e:f9:57:b5, 2015-01-01 00:41:20.685,-0.117,-0.094,4.089,610.657,182.8,-2.808, , , , , , ,44.094,6.625,-82.919
 12:56:42.691,eb:33:2e:f9:57:b5, 2015-01-01 00:41:20.685,-0.164,0.09,3.175,539.856,215.698,2.014, , , , , , ,47.016,7.333,-82.205
 12:56:42.691,eb:33:2e:f9:57:b5, 2015-01-01 00:41:20.685,0.012,0.018,3.049,509.583,252.93,23.438, , , , , , ,49.73,8.086,-81.255
 12:56:42.691,eb:33:2e:f9:57:b5, 2015-01-01 00:41:20.685,0.629,0.349,2.968,536.56,255.31,40.344, , , , , , ,52.498,8.773,-80.145
 12:56:42.691,eb:33:2e:f9:57:b5, 2015-01-01 00:41:20.685,0.946,0.113,3.381,613.892,280.029,75.256, , , , , , ,55.602,9.3,-78.865
 12:56:42.691,eb:33:2e:f9:57:b5, 2015-01-01 00:41:20.685,0.47,-0.728,2.741,764.648,310.974,99.792, , , , , , ,59.343,9.728,-77.333
 12:56:42.691,eb:33:2e:f9:57:b5, 2015-01-01 00:41:20.685,0.597,1.682,-1.292,804.993,209.167,83.801, , , , , , ,63.638,9.937,-75.91
 12:56:42.691,eb:33:2e:f9:57:b5, 2015-01-01 00:41:20.685,-0.084,2.344,-0.619,713.013,133.789,83.374, , , , , , ,67.533,9.893,-75.02
 12:56:42.759,eb:33:2e:f9:57:b5, 2015-01-01 00:41:20.685,0.437,1.295,0.521,634.277,51.941,95.276, , , , , , ,70.972,9.63,-74.432
 12:56:42.759,eb:33:2e:f9:57:b5, 2015-01-01 00:41:20.685,0.688,1.644,0.713,533.142,-4.211,85.938, , , , , , ,73.878,9.218,-74.224
 12:56:42.759,eb:33:2e:f9:57:b5, 2015-01-01 00:41:20.685,0.923,1.473,0.923,431.824,-36.194,59.021, , , , , , ,76.229,8.844,-74.257
 12:56:42.759,eb:33:2e:f9:57:b5, 2015-01-01 00:41:20.685,1.053,1.104,1.448,348.328,-47.18,26.062, , , , , , ,78.102,8.608,-74.416
 12:56:42.759,eb:33:2e:f9:57:b5, 2015-01-01 00:41:20.685,1.16,1.102,2.312,280.945,-59.57,-23.01, , , , , , ,79.59,8.564,-74.685
 12:56:42.759,eb:33:2e:f9:57:b5, 2015-01-01 00:41:20.685,1.281,1.308,3.388,255.798,-63.66,-70.862, , , , , , ,80.843,8.756,-75.037
 12:56:42.759,eb:33:2e:f9:57:b5, 2015-01-01 00:41:20.685,1.295,1.332,4.323,255.188,-70.435,-122.314, , , , , , ,82.046,9.212,-75.454
 12:56:42.759,eb:33:2e:f9:57:b5, 2015-01-01 00:41:20.685,1.275,0.997,4.78,271.24,-82.153,-170.959, , , , , , ,83.287,9.915,-75.927
 12:56:42.848,eb:33:2e:f9:57:b5, 2015-01-01 00:41:20.685,1.3,0.405,4.657,291.565,-96.008,-211.548, , , , , , ,84.606,10.844,-76.492
 12:56:42.848,eb:33:2e:f9:57:b5, 2015-01-01 00:41:20.685,1.145,-0.152,4.177,300.903,-106.262,-244.995, , , , , , ,85.952,11.948,-77.108
 12:56:42.848,eb:33:2e:f9:57:b5, 2015-01-01 00:41:20.685,1.07,-0.65,3.675,300.964,-116.028,-270.813, , , , , , ,87.319,13.217,-77.756
 12:56:42.848,eb:33:2e:f9:57:b5, 2015-01-01 00:41:20.685,1.032,-1.025,3.605,293.396,-119.934,-289.124, , , , , , ,88.643,14.612,-78.409
 12:56:42.848,eb:33:2e:f9:57:b5, 2015-01-01 00:41:20.685,0.932,-1.214,3.53,276.428,-119.08,-300.415, , , , , , ,89.896,16.084,-79.052
 12:56:42.849,eb:33:2e:f9:57:b5, 2015-01-01 00:41:20.685,0.797,-1.421,3.417,252.014,-112.488,-305.664, , , , , , ,91.005,17.6,-79.645
 12:56:42.849,eb:33:2e:f9:57:b5, 2015-01-01 00:41:20.685,0.721,-1.664,3.254,223.083,-103.21,-305.115, , , , , , ,92.016,19.144,-80.162
 12:56:42.849,eb:33:2e:f9:57:b5, 2015-01-01 00:41:20.685,0.67,-1.917,3.155,191.406,-89.478,-298.279, , , , , , ,92.884,20.671,-80.59
 12:56:42.871,eb:33:2e:f9:57:b5, 2015-01-01 00:41:20.685,0.581,-2.12,3.059,158.325,-70.374,-285.95, , , , , , ,93.625,22.148,-80.92
 12:56:42.871,eb:33:2e:f9:57:b5, 2015-01-01 00:41:20.685,0.482,-2.242,2.899,125,-49.133,-269.287, , , , , , ,94.197,23.533,-81.14
 12:56:42.871,eb:33:2e:f9:57:b5, 2015-01-01 00:41:20.685,0.389,-2.296,2.746,91.736,-26.611,-249.023, , , , , , ,94.686,24.829,-81.227
 12:56:42.871,eb:33:2e:f9:57:b5, 2015-01-01 00:41:20.685,0.345,-2.283,2.62,59.204,-4.272,-225.83, , , , , , ,95.065,26.01,-81.178
 12:56:42.871,eb:33:2e:f9:57:b5, 2015-01-01 00:41:20.685,0.346,-2.209,2.563,27.466,18.372,-201.66, , , , , , ,95.334,27.059,-81.019
 12:56:42.872,eb:33:2e:f9:57:b5, 2015-01-01 00:41:20.685,0.39,-2.091,2.564,-2.747,41.809,-178.65, , , , , , ,95.466,27.971,-80.755
 12:56:42.872,eb:33:2e:f9:57:b5, 2015-01-01 00:41:20.685,0.438,-1.967,2.544,-31.372,65.247,-158.264, , , , , , ,95.559,28.768,-80.349
 12:56:42.872,eb:33:2e:f9:57:b5, 2015-01-01 00:41:20.685,0.418,-1.879,2.439,-57.983,83.862,-140.015, , , , , , ,95.576,29.465,-79.81
 12:56:42.874,eb:33:2e:f9:57:b5, 2015-01-01 00:41:20.685,0.391,-1.856,2.254,-80.872,91.858,-123.413, , , , , , ,95.504,30.07,-79.228
 12:56:42.874,eb:33:2e:f9:57:b5, 2015-01-01 00:41:20.685,0.313,-1.878,2.146,-100.464,91.736,-107.727, , , , , , ,95.29,30.586,-78.662
 12:56:42.874,eb:33:2e:f9:57:b5, 2015-01-01 00:41:20.685,0.233,-1.949,2.081,-117.737,84.656,-92.041, , , , , , ,95.021,31.036,-78.096
 12:56:42.874,eb:33:2e:f9:57:b5, 2015-01-01 00:41:20.685,0.201,-2.07,2.042,-134.705,74.524,-75.806, , , , , , ,94.642,31.415,-77.585
 12:56:42.874,eb:33:2e:f9:57:b5, 2015-01-01 00:41:20.685,0.241,-2.184,1.929,-154.358,65.674,-58.96, , , , , , ,94.136,31.718,-77.157
 12:56:42.874,eb:33:2e:f9:57:b5, 2015-01-01 00:41:20.685,0.375,-2.275,1.514,-183.533,61.523,-40.405, , , , , , ,93.433,31.932,-76.8
 12:56:42.874,eb:33:2e:f9:57:b5, 2015-01-01 00:41:20.685,0.636,-2.275,0.667,-230.164,60.791,-21.179, , , , , , ,92.576,32.058,-76.437
 12:56:42.874,eb:33:2e:f9:57:b5, 2015-01-01 00:41:20.685,0.973,-2.169,-0.374,-298.035,65.247,-4.456, , , , , , ,91.428,32.102,-76.047
 12:56:42.939,eb:33:2e:f9:57:b5, 2015-01-01 00:41:20.685,1.365,-2.054,-0.897,-375.244,66.467,5.859, , , , , , ,89.912,32.086,-75.657
 12:56:42.939,eb:33:2e:f9:57:b5, 2015-01-01 00:41:20.685,1.514,-2.07,-0.002,-432.373,72.083,9.033, , , , , , ,88.017,32.053,-75.284
 12:56:42.939,eb:33:2e:f9:57:b5, 2015-01-01 00:41:20.685,1.632,-1.952,0.676,-464.966,68.481,6.287, , , , , , ,85.974,32.031,-74.861
 12:56:42.939,eb:33:2e:f9:57:b5, 2015-01-01 00:41:20.685,1.707,-1.53,0.558,-489.746,50.781,-0.61, , , , , , ,83.754,32.042,-74.504
 12:56:42.939,eb:33:2e:f9:57:b5, 2015-01-01 00:41:20.685,1.685,-0.976,-0.059,-516.724,16.235,-14.221, , , , , , ,81.321,32.108,-74.328
 12:56:42.939,eb:33:2e:f9:57:b5, 2015-01-01 00:41:20.685,1.61,-0.679,-0.44,-540.1,-39.185,-30.273, , , , , , ,78.547,32.206,-74.487
 12:56:42.939,eb:33:2e:f9:57:b5, 2015-01-01 00:41:20.685,1.54,-0.569,-0.213,-553.162,-117.676,-48.645, , , , , , ,75.509,32.311,-75.031
 12:56:42.939,eb:33:2e:f9:57:b5, 2015-01-01 00:41:20.685,1.492,-0.564,0.261,-549.866,-181.396,-60.12, , , , , , ,72.224,32.366,-76.003
 12:56:42.941,eb:33:2e:f9:57:b5, 2015-01-01 00:41:20.685,1.38,-0.549,0.727,-539.917,-236.145,-65.918, , , , , , ,68.791,32.305,-77.327
 12:56:42.941,eb:33:2e:f9:57:b5, 2015-01-01 00:41:20.685,1.186,-0.572,1.053,-530.151,-278.137,-65.491, , , , , , ,65.226,32.091,-78.953
 12:56:42.941,eb:33:2e:f9:57:b5, 2015-01-01 00:41:20.685,0.998,-0.734,1.356,-524.78,-305.42,-56.824, , , , , , ,61.683,31.701,-80.673
 12:56:42.941,eb:33:2e:f9:57:b5, 2015-01-01 00:41:20.685,0.839,-0.907,1.625,-526.611,-320.435,-40.527, , , , , , ,58.151,31.119,-82.403
 12:56:42.941,eb:33:2e:f9:57:b5, 2015-01-01 00:41:20.685,0.723,-0.994,1.792,-536.072,-329.407,-19.47, , , , , , ,54.635,30.333,-84.073
 12:56:42.941,eb:33:2e:f9:57:b5, 2015-01-01 00:41:20.685,0.639,-1.016,1.935,-550.659,-334.229,4.333, , , , , , ,51.086,29.339,-85.66
 12:56:42.941,eb:33:2e:f9:57:b5, 2015-01-01 00:41:20.685,0.587,-1.022,2.142,-565.369,-335.815,29.419, , , , , , ,47.62,28.174,-87.045
 12:56:42.941,eb:33:2e:f9:57:b5, 2015-01-01 00:41:20.685,0.581,-1.032,2.391,-575.623,-334.412,54.932, , , , , , ,44.214,26.845,-88.22
 12:56:43.007,eb:33:2e:f9:57:b5, 2015-01-01 00:41:20.685,0.61,-1.024,2.637,-579.773,-329.712,80.322, , , , , , ,40.897,25.384,-89.182
 12:56:43.007,eb:33:2e:f9:57:b5, 2015-01-01 00:41:20.685,0.659,-0.985,2.807,-578.796,-323.059,103.943, , , , , , ,37.634,23.802,-89.951
 12:56:43.007,eb:33:2e:f9:57:b5, 2015-01-01 00:41:20.685,0.768,-0.929,2.854,-574.829,-316.101,125.061, , , , , , ,34.552,22.17,-90.456
 12:56:43.007,eb:33:2e:f9:57:b5, 2015-01-01 00:41:20.685,0.992,-0.802,2.815,-569.641,-311.096,139.282, , , , , , ,31.58,20.495,-90.769
 12:56:43.007,eb:33:2e:f9:57:b5, 2015-01-01 00:41:20.685,1.161,-0.598,2.698,-564.88,-311.89,144.897, , , , , , ,28.691,18.792,-90.934
 12:56:43.007,eb:33:2e:f9:57:b5, 2015-01-01 00:41:20.685,1.2,-0.349,2.419,-561.157,-328.308,140.381, , , , , , ,25.785,17.012,-91.071
 12:56:43.007,eb:33:2e:f9:57:b5, 2015-01-01 00:41:20.685,1.186,-0.098,2.167,-558.838,-364.014,127.502, , , , , , ,22.956,15.15,-91.187
 12:56:43.007,eb:33:2e:f9:57:b5, 2015-01-01 00:41:20.685,1.157,0.094,2.206,-560.181,-408.63,110.474, , , , , , ,20.116,13.118,-91.362
 12:56:43.028,eb:33:2e:f9:57:b5, 2015-01-01 00:41:20.685,1.046,0.223,2.518,-566.162,-449.768,94.421, , , , , , ,17.249,10.904,-91.588
 12:56:43.028,eb:33:2e:f9:57:b5, 2015-01-01 00:41:20.685,0.878,0.322,2.936,-576.355,-482.117,82.275, , , , , , ,14.293,8.492,-91.829
 12:56:43.028,eb:33:2e:f9:57:b5, 2015-01-01 00:41:20.685,0.608,0.415,3.492,-587.769,-498.474,76.294, , , , , , ,11.354,5.999,-92
 12:56:43.028,eb:33:2e:f9:57:b5, 2015-01-01 00:41:20.685,0.278,0.555,4.148,-595.947,-496.399,77.026, , , , , , ,8.383,3.477,-92.054
 12:56:43.028,eb:33:2e:f9:57:b5, 2015-01-01 00:41:20.685,-0.023,0.774,4.833,-598.389,-473.755,83.008, , , , , , ,5.4,1.022,-91.95
 12:56:43.028,eb:33:2e:f9:57:b5, 2015-01-01 00:41:20.685,-0.298,1.145,5.46,-595.703,-428.833,92.407, , , , , , ,2.351,-1.269,-91.664
 12:56:43.028,eb:33:2e:f9:57:b5, 2015-01-01 00:41:20.685,-0.504,1.646,5.849,-587.952,-369.812,101.379, , , , , , ,-0.615,-3.246,-91.208
 12:56:43.028,eb:33:2e:f9:57:b5, 2015-01-01 00:41:20.685,-0.641,2.156,6.008,-575.378,-306.641,108.337, , , , , , ,-3.565,-4.883,-90.626
 12:56:43.075,eb:33:2e:f9:57:b5, 2015-01-01 00:41:20.685,-0.751,2.561,6.002,-557.495,-251.465,113.647, , , , , , ,-6.454,-6.191,-89.951
 12:56:43.075,eb:33:2e:f9:57:b5, 2015-01-01 00:41:20.685,-0.881,2.925,5.873,-533.691,-218.14,115.784, , , , , , ,-9.316,-7.273,-89.214
 12:56:43.075,eb:33:2e:f9:57:b5, 2015-01-01 00:41:20.685,-1.009,3.426,5.564,-503.845,-218.323,111.694, , , , , , ,-11.997,-8.229,-88.445
 12:56:43.075,eb:33:2e:f9:57:b5, 2015-01-01 00:41:20.685,-1.099,4.073,5.167,-468.445,-249.695,99.487, , , , , , ,-14.535,-9.25,-87.665
 12:56:43.075,eb:33:2e:f9:57:b5, 2015-01-01 00:41:20.685,-1.23,4.753,4.913,-424.988,-294.434,79.529, , , , , , ,-16.891,-10.464,-86.852
 12:56:43.075,eb:33:2e:f9:57:b5, 2015-01-01 00:41:20.685,-1.43,5.327,4.932,-371.399,-333.496,53.894, , , , , , ,-19.061,-11.904,-86.034
 12:56:43.075,eb:33:2e:f9:57:b5, 2015-01-01 00:41:20.685,-1.674,5.773,5.148,-311.646,-349.06,27.222, , , , , , ,-20.912,-13.458,-85.243
 12:56:43.075,eb:33:2e:f9:57:b5, 2015-01-01 00:41:20.685,-1.942,6.107,5.324,-254.578,-329.102,3.662, , , , , , ,-22.467,-15.018,-84.551
 12:56:43.096,eb:33:2e:f9:57:b5, 2015-01-01 00:41:21.085,-2.112,6.414,5.188,-198.12,-255.127,-16.663, , , , , , ,-23.719,-16.37,-84.001
 12:56:43.096,eb:33:2e:f9:57:b5, 2015-01-01 00:41:21.085,-2.252,6.455,4.693,-160.034,-165.588,-25.391, , , , , , ,-24.719,-17.353,-83.672
 12:56:43.096,eb:33:2e:f9:57:b5, 2015-01-01 00:41:21.085,-2.357,6.187,4.003,-124.084,-71.716,-23.865, , , , , , ,-25.45,-17.902,-83.551
 12:56:43.096,eb:33:2e:f9:57:b5, 2015-01-01 00:41:21.085,-2.408,5.822,3.329,-83.496,8.301,-13.55, , , , , , ,-25.939,-18.04,-83.6
 12:56:43.096,eb:33:2e:f9:57:b5, 2015-01-01 00:41:21.085,-2.325,5.554,2.61,-36.865,56.396,2.258, , , , , , ,-26.18,-17.864,-83.716
 12:56:43.097,eb:33:2e:f9:57:b5, 2015-01-01 00:41:21.085,-2.041,5.383,1.895,12.39,64.514,16.968, , , , , , ,-26.202,-17.562,-83.809
 12:56:43.097,eb:33:2e:f9:57:b5, 2015-01-01 00:41:21.085,-1.706,5.266,1.464,59.57,45.837,27.466, , , , , , ,-25.994,-17.26,-83.826
 12:56:43.098,eb:33:2e:f9:57:b5, 2015-01-01 00:41:21.085,-1.475,5.177,1.284,101.746,15.076,31.616, , , , , , ,-25.587,-17.067,-83.76
 12:56:43.186,eb:33:2e:f9:57:b5, 2015-01-01 00:41:21.085,-1.359,4.964,1.29,140.503,-13.123,29.358, , , , , , ,-25.005,-17.018,-83.611
 12:56:43.186,eb:33:2e:f9:57:b5, 2015-01-01 00:41:21.085,-1.355,4.536,1.401,178.528,-31.311,25.818, , , , , , ,-24.247,-17.078,-83.436
 12:56:43.186,eb:33:2e:f9:57:b5, 2015-01-01 00:41:21.085,-1.417,4.013,1.63,218.384,-37.72,23.804, , , , , , ,-23.291,-17.194,-83.238
 12:56:43.186,eb:33:2e:f9:57:b5, 2015-01-01 00:41:21.085,-1.483,3.272,1.925,260.193,-32.532,25.146, , , , , , ,-22.126,-17.309,-83.068
 12:56:43.186,eb:33:2e:f9:57:b5, 2015-01-01 00:41:21.085,-1.637,2.29,1.853,296.204,-18.921,35.339, , , , , , ,-20.775,-17.369,-82.87
 12:56:43.186,eb:33:2e:f9:57:b5, 2015-01-01 00:41:21.085,-1.529,1.313,1.296,321.106,-10.925,56.702, , , , , , ,-19.281,-17.353,-82.623
 12:56:43.186,eb:33:2e:f9:57:b5, 2015-01-01 00:41:21.085,0.74,0.475,1.133,406.86,-102.051,-9.949, , , , , , ,-17.639,-17.43,-82.315
 12:56:43.186,eb:33:2e:f9:57:b5, 2015-01-01 00:41:21.085,1.339,2.619,6.708,745.056,264.771,12.207, , , , , , ,-14.392,-16.787,-82.452
 12:56:43.188,eb:33:2e:f9:57:b5, 2015-01-01 00:41:21.085,3.833,1.284,3.183,789.368,226.318,-106.323, , , , , , ,-10.338,-16.441,-83.271
 12:56:43.188,eb:33:2e:f9:57:b5, 2015-01-01 00:41:21.085,5.661,4.069,6.392,671.57,527.771,-180.908, , , , , , ,-6.35,-14.606,-84.353
 12:56:43.188,eb:33:2e:f9:57:b5, 2015-01-01 00:41:21.085,-1.604,3.357,5.822,510.803,774.048,-222.473, , , , , , ,-3.257,-11.173,-85.765
 12:56:43.188,eb:33:2e:f9:57:b5, 2015-01-01 00:41:21.085,-3.287,3.113,3.532,364.624,720.032,-92.346, , , , , , ,-0.939,-7.388,-86.545
 12:56:43.189,eb:33:2e:f9:57:b5, 2015-01-01 00:41:21.085,-2.862,0.599,1.223,250.183,524.475,74.28, , , , , , ,0.604,-4.438,-86.523
 12:56:43.189,eb:33:2e:f9:57:b5, 2015-01-01 00:41:21.085,-3.889,2.326,-0.608,59.387,413.94,76.477, , , , , , ,1.115,-2.115,-86.325
 12:56:43.189,eb:33:2e:f9:57:b5, 2015-01-01 00:41:21.085,0.619,-0.76,-0.906,84.229,117.737,38.94, , , , , , ,1.445,-1.005,-86.094
 12:56:43.189,eb:33:2e:f9:57:b5, 2015-01-01 00:41:21.085,-0.885,0.195,1.194,86.975,116.76,26.611, , , , , , ,1.956,-0.654,-85.902
 12:56:43.256,eb:33:2e:f9:57:b5, 2015-01-01 00:41:21.085,-0.875,0.632,0.318,64.697,89.539,22.583, , , , , , ,2.302,-0.022,-85.743
 12:56:43.256,eb:33:2e:f9:57:b5, 2015-01-01 00:41:21.085,-0.53,0.042,0.327,48.096,39.734,27.954, , , , , , ,2.593,0.28,-85.611
 12:56:43.256,eb:33:2e:f9:57:b5, 2015-01-01 00:41:21.085,0.159,0.306,0.743,37.17,6.287,16.907, , , , , , ,2.802,0.302,-85.485
 12:56:43.256,eb:33:2e:f9:57:b5, 2015-01-01 00:41:21.085,-0.151,0.113,1.442,41.321,31.677,3.967, , , , , , ,2.999,0.423,-85.441
 12:56:43.256,eb:33:2e:f9:57:b5, 2015-01-01 00:41:21.085,-0.136,0.053,1.125,42.358,36.072,-4.211, , , , , , ,3.214,0.621,-85.435
 12:56:43.256,eb:33:2e:f9:57:b5, 2015-01-01 00:41:21.085,0.027,0.169,0.994,37.415,29.846,-10.376, , , , , , ,3.433,0.78,-85.479
 12:56:43.256,eb:33:2e:f9:57:b5, 2015-01-01 00:41:21.085,-0.31,0.128,1.028,33.142,35.767,-15.991, , , , , , ,3.604,0.956,-85.54
 12:56:43.256,eb:33:2e:f9:57:b5, 2015-01-01 00:41:21.085,0.315,-0.015,0.852,34.546,19.47,-19.409, , , , , , ,3.774,1.093,-85.633
 12:56:43.256,eb:33:2e:f9:57:b5, 2015-01-01 00:41:21.085,0.245,0.298,1.167,27.771,36.194,-31.738, , , , , , ,3.922,1.23,-85.754
 12:56:43.256,eb:33:2e:f9:57:b5, 2015-01-01 00:41:21.085,-0.386,0.071,1.187,29.724,42.969,-35.706, , , , , , ,4.076,1.472,-85.924
 12:56:43.257,eb:33:2e:f9:57:b5, 2015-01-01 00:41:21.085,-0.471,-0.417,1.311,55.664,3.601,-18.188, , , , , , ,4.285,1.588,-86.061
 12:56:43.257,eb:33:2e:f9:57:b5, 2015-01-01 00:41:21.085,-0.027,-0.241,1.301,77.881,-36.438,-7.874, , , , , , ,4.631,1.472,-86.144
 12:56:43.257,eb:33:2e:f9:57:b5, 2015-01-01 00:41:21.085,0.359,-0.192,1.893,97.961,-42.908,6.287, , , , , , ,5.087,1.263,-86.144
 12:56:43.257,eb:33:2e:f9:57:b5, 2015-01-01 00:41:21.085,-0.126,0.171,1.846,102.6,-36.011,-0.366, , , , , , ,5.609,1.055,-86.155
 12:56:43.257,eb:33:2e:f9:57:b5, 2015-01-01 00:41:21.085,0.166,-0.549,2.547,132.629,-19.958,20.081, , , , , , ,6.207,0.95,-86.1
 12:56:43.257,eb:33:2e:f9:57:b5, 2015-01-01 00:41:21.085,-0.086,-0.146,2.544,153.076,-27.588,26.001, , , , , , ,6.943,0.797,-86.017
 12:56:43.299,eb:33:2e:f9:57:b5, 2015-01-01 00:41:21.085,-0.028,-0.502,3.019,181.091,-13.245,37.903, , , , , , ,7.789,0.703,-85.853
 12:56:43.299,eb:33:2e:f9:57:b5, 2015-01-01 00:41:21.085,0.085,-0.527,3.258,230.53,-19.47,42.542, , , , , , ,8.855,0.593,-85.66
 12:56:43.299,eb:33:2e:f9:57:b5, 2015-01-01 00:41:21.085,0.257,-0.783,3.467,294.006,-30.09,41.199, , , , , , ,10.195,0.434,-85.474
 12:56:43.299,eb:33:2e:f9:57:b5, 2015-01-01 00:41:21.085,0.715,-0.788,3.955,358.521,-23.743,39.001, , , , , , ,11.865,0.253,-85.309
 12:56:43.299,eb:33:2e:f9:57:b5, 2015-01-01 00:41:21.085,1.004,-1,4.457,415.344,4.333,30.396, , , , , , ,13.837,0.181,-85.144
 12:56:43.299,eb:33:2e:f9:57:b5, 2015-01-01 00:41:21.085,1.123,-1.078,4.796,467.285,47.729,14.954, , , , , , ,16.078,0.297,-85.007
 12:56:43.299,eb:33:2e:f9:57:b5, 2015-01-01 00:41:21.085,1.175,-1.074,4.451,520.264,95.032,-8.484, , , , , , ,18.578,0.659,-84.886
 12:56:43.299,eb:33:2e:f9:57:b5, 2015-01-01 00:41:21.085,0.876,-1.168,4.381,561.096,148.682,-31.799, , , , , , ,21.308,1.291,-84.792
 12:56:43.344,eb:33:2e:f9:57:b5, 2015-01-01 00:41:21.085,0.812,-1.115,4.355,601.379,188.354,-55.054, , , , , , ,24.225,2.175,-84.672
 12:56:43.344,eb:33:2e:f9:57:b5, 2015-01-01 00:41:21.085,0.458,-1.14,4.535,655.762,204.895,-71.472, , , , , , ,27.416,3.235,-84.523
 12:56:43.344,eb:33:2e:f9:57:b5, 2015-01-01 00:41:21.085,0.84,-0.546,4.251,694.397,174.133,-102.051, , , , , , ,30.828,4.274,-84.424
 12:56:43.344,eb:33:2e:f9:57:b5, 2015-01-01 00:41:21.085,0.442,-1.612,5.12,723.267,202.393,-74.341, , , , , , ,34.415,5.328,-84.232
 12:56:43.344,eb:33:2e:f9:57:b5, 2015-01-01 00:41:21.085,0.26,-0.604,4.154,697.021,155.762,-83.984, , , , , , ,37.98,6.262,-84.089
 12:56:43.344,eb:33:2e:f9:57:b5, 2015-01-01 00:41:21.085,0.56,-0.61,4.114,700.195,150.879,-65.735, , , , , , ,41.501,7.092,-83.82
 12:56:43.344,eb:33:2e:f9:57:b5, 2015-01-01 00:41:21.085,0.221,-0.264,3.731,685.12,139.343,-63.538, , , , , , ,45.005,7.828,-83.578
 12:56:43.344,eb:33:2e:f9:57:b5, 2015-01-01 00:41:21.085,-0.587,-0.92,3.918,618.896,179.749,-49.194, , , , , , ,48.301,8.569,-83.21
 12:56:43.389,eb:33:2e:f9:57:b5, 2015-01-01 00:41:21.085,-1.075,-1.938,3.288,558.35,258.728,-11.902, , , , , , ,51.323,9.432,-82.386
 12:56:43.389,eb:33:2e:f9:57:b5, 2015-01-01 00:41:21.085,-0.364,-0.966,2.728,553.711,276.917,22.705, , , , , , ,54.283,10.184,-81.211
 12:56:43.389,eb:33:2e:f9:57:b5, 2015-01-01 00:41:21.085,-0.001,-1.563,3.707,662.903,288.208,122.437, , , , , , ,57.601,10.563,-79.717
 12:56:43.389,eb:33:2e:f9:57:b5, 2015-01-01 00:41:21.085,-0.226,-1.764,1.803,831.116,270.081,207.275, , , , , , ,61.771,10.525,-77.975
 12:56:43.389,eb:33:2e:f9:57:b5, 2015-01-01 00:41:21.085,-0.219,1.618,-1.937,783.081,141.174,217.346, , , , , , ,66.083,9.987,-76.674
 12:56:43.389,eb:33:2e:f9:57:b5, 2015-01-01 00:41:21.085,-0.255,0.667,0.589,706.909,110.291,250.916, , , , , , ,69.922,9.119,-75.624
 12:56:43.389,eb:33:2e:f9:57:b5, 2015-01-01 00:41:21.085,0.236,0.952,1.09,612.122,53.406,260.559, , , , , , ,73.306,7.998,-74.861
 12:56:43.389,eb:33:2e:f9:57:b5, 2015-01-01 00:41:21.085,0.466,1.289,1.261,491.211,37.659,247.009, , , , , , ,76.069,6.828,-74.306
 12:56:43.434,eb:33:2e:f9:57:b5, 2015-01-01 00:41:21.400,0.827,1.179,1.52,382.874,38.025,214.966, , , , , , ,78.239,5.757,-73.872
 12:56:43.434,eb:33:2e:f9:57:b5, 2015-01-01 00:41:21.400,1.102,1.061,2.034,302.429,44.067,169.495, , , , , , ,79.926,4.872,-73.482
 12:56:43.434,eb:33:2e:f9:57:b5, 2015-01-01 00:41:21.400,1.109,1.21,2.563,250.671,50.598,105.042, , , , , , ,81.299,4.246,-73.147
 12:56:43.434,eb:33:2e:f9:57:b5, 2015-01-01 00:41:21.400,0.977,1.353,2.944,234.375,20.508,47.485, , , , , , ,82.507,3.922,-72.894
 12:56:43.434,eb:33:2e:f9:57:b5, 2015-01-01 00:41:21.400,0.914,1.424,3.355,246.948,-58.594,-23.804, , , , , , ,83.694,3.884,-73.01
 12:56:43.434,eb:33:2e:f9:57:b5, 2015-01-01 00:41:21.400,0.876,1.386,3.628,270.325,-129.578,-80.872, , , , , , ,84.941,4.12,-73.542
 12:56:43.434,eb:33:2e:f9:57:b5, 2015-01-01 00:41:21.400,0.714,1.1,3.782,290.161,-183.35,-138.123, , , , , , ,86.287,4.636,-74.405
 12:56:43.434,eb:33:2e:f9:57:b5, 2015-01-01 00:41:21.400,0.734,0.597,3.638,302.246,-224.67,-186.89, , , , , , ,87.687,5.416,-75.487
 12:56:43.502,eb:33:2e:f9:57:b5, 2015-01-01 00:41:21.400,0.595,-0.047,3.828,303.223,-232.422,-222.961, , , , , , ,89.077,6.432,-76.679
 12:56:43.502,eb:33:2e:f9:57:b5, 2015-01-01 00:41:21.400,0.517,-0.683,4.075,299.622,-223.816,-247.192, , , , , , ,90.417,7.614,-77.833
 12:56:43.502,eb:33:2e:f9:57:b5, 2015-01-01 00:41:21.400,0.438,-1.185,4.307,290.405,-200.378,-259.644, , , , , , ,91.741,8.91,-78.876
 12:56:43.502,eb:33:2e:f9:57:b5, 2015-01-01 00:41:21.400,0.388,-1.554,4.367,272.827,-164.856,-264.282, , , , , , ,92.999,10.261,-79.717
 12:56:43.502,eb:33:2e:f9:57:b5, 2015-01-01 00:41:21.400,0.347,-1.809,4.256,245.85,-118.53,-262.085, , , , , , ,94.169,11.618,-80.332
 12:56:43.502,eb:33:2e:f9:57:b5, 2015-01-01 00:41:21.400,0.272,-1.968,4.003,209.778,-65.979,-253.662, , , , , , ,95.186,12.931,-80.678
 12:56:43.502,eb:33:2e:f9:57:b5, 2015-01-01 00:41:21.400,0.21,-2.101,3.68,167.419,-15.015,-239.502, , , , , , ,96.097,14.172,-80.733
 12:56:43.502,eb:33:2e:f9:57:b5, 2015-01-01 00:41:21.400,0.187,-2.205,3.357,122.559,31.25,-220.703, , , , , , ,96.85,15.298,-80.519
 12:56:43.502,eb:33:2e:f9:57:b5, 2015-01-01 00:41:21.400,0.218,-2.263,3.099,78.064,71.106,-199.585, , , , , , ,97.443,16.298,-80.096
 12:56:43.502,eb:33:2e:f9:57:b5, 2015-01-01 00:41:21.400,0.29,-2.256,2.885,36.804,104.187,-179.077, , , , , , ,97.839,17.155,-79.508
 12:56:43.502,eb:33:2e:f9:57:b5, 2015-01-01 00:41:21.400,0.387,-2.165,2.669,-0.122,127.869,-161.804, , , , , , ,98.135,17.908,-78.766
 12:56:43.502,eb:33:2e:f9:57:b5, 2015-01-01 00:41:21.400,0.474,-2.04,2.473,-32.043,142.639,-148.56, , , , , , ,98.295,18.572,-77.915
 12:56:43.502,eb:33:2e:f9:57:b5, 2015-01-01 00:41:21.400,0.548,-1.933,2.297,-58.411,148.926,-139.099, , , , , , ,98.339,19.171,-77.042
 12:56:43.502,eb:33:2e:f9:57:b5, 2015-01-01 00:41:21.400,0.583,-1.881,2.15,-80.322,148.743,-132.019, , , , , , ,98.223,19.726,-76.179
 12:56:43.503,eb:33:2e:f9:57:b5, 2015-01-01 00:41:21.400,0.565,-1.886,1.982,-100.708,142.09,-125.671, , , , , , ,98.053,20.259,-75.311
 12:56:43.503,eb:33:2e:f9:57:b5, 2015-01-01 00:41:21.400,0.536,-1.941,1.664,-122.742,127.625,-119.385, , , , , , ,97.762,20.77,-74.504
 12:56:43.546,eb:33:2e:f9:57:b5, 2015-01-01 00:41:21.400,0.531,-2.061,1.096,-151.733,108.032,-111.511, , , , , , ,97.317,21.264,-73.806
 12:56:43.546,eb:33:2e:f9:57:b5, 2015-01-01 00:41:21.400,0.635,-2.169,0.319,-192.81,86.853,-102.234, , , , , , ,96.597,21.731,-73.257
 12:56:43.546,eb:33:2e:f9:57:b5, 2015-01-01 00:41:21.400,0.852,-2.187,-0.543,-250.122,65.613,-93.811, , , , , , ,95.636,22.176,-72.801
 12:56:43.546,eb:33:2e:f9:57:b5, 2015-01-01 00:41:21.400,1.1,-2.155,-0.99,-318.542,46.204,-89.478, , , , , , ,94.307,22.604,-72.46
 12:56:43.546,eb:33:2e:f9:57:b5, 2015-01-01 00:41:21.400,1.232,-2.125,-0.456,-378.54,33.63,-91.003, , , , , , ,92.62,23.038,-72.224
 12:56:43.546,eb:33:2e:f9:57:b5, 2015-01-01 00:41:21.400,1.279,-2.11,0.325,-417.786,25.085,-96.069, , , , , , ,90.615,23.505,-72.087
 12:56:43.546,eb:33:2e:f9:57:b5, 2015-01-01 00:41:21.400,1.32,-2.12,0.563,-443.604,12.512,-101.562, , , , , , ,88.484,24.005,-71.993
 12:56:43.546,eb:33:2e:f9:57:b5, 2015-01-01 00:41:21.400,1.335,-2.014,0.161,-472.351,-7.202,-106.445, , , , , , ,86.171,24.527,-71.999
 12:56:43.613,eb:33:2e:f9:57:b5, 2015-01-01 00:41:21.400,1.344,-1.712,-0.429,-511.047,-37.476,-111.633, , , , , , ,83.617,25.06,-72.191
 12:56:43.613,eb:33:2e:f9:57:b5, 2015-01-01 00:41:21.400,1.291,-1.347,-0.503,-552.124,-74.646,-118.164, , , , , , ,80.706,25.593,-72.642
 12:56:43.613,eb:33:2e:f9:57:b5, 2015-01-01 00:41:21.400,1.189,-1.088,-0.093,-584.106,-114.136,-123.962, , , , , , ,77.552,26.098,-73.306
 12:56:43.613,eb:33:2e:f9:57:b5, 2015-01-01 00:41:21.400,1.1,-0.974,0.418,-600.159,-153.931,-128.052, , , , , , ,74.169,26.543,-74.218
 12:56:43.613,eb:33:2e:f9:57:b5, 2015-01-01 00:41:21.400,0.981,-0.968,0.848,-602.234,-190.918,-128.296, , , , , , ,70.637,26.889,-75.377
 12:56:43.613,eb:33:2e:f9:57:b5, 2015-01-01 00:41:21.400,0.843,-1.002,1.113,-596.069,-225.769,-122.498, , , , , , ,66.967,27.087,-76.778
 12:56:43.613,eb:33:2e:f9:57:b5, 2015-01-01 00:41:21.400,0.677,-1.004,1.283,-589.111,-255.92,-110.168, , , , , , ,63.314,27.098,-78.3
 12:56:43.613,eb:33:2e:f9:57:b5, 2015-01-01 00:41:21.400,0.567,-1.032,1.511,-584.9,-284.302,-86.914, , , , , , ,59.656,26.873,-79.898
 12:56:43.658,eb:33:2e:f9:57:b5, 2015-01-01 00:41:21.400,0.473,-1.081,1.724,-584.839,-301.453,-62.073, , , , , , ,56.008,26.395,-81.513
 12:56:43.658,eb:33:2e:f9:57:b5, 2015-01-01 00:41:21.400,0.405,-1.113,1.928,-585.876,-314.27,-34.668, , , , , , ,52.344,25.664,-83.095
 12:56:43.658,eb:33:2e:f9:57:b5, 2015-01-01 00:41:21.400,0.365,-1.127,2.149,-586.853,-323.364,-5.737, , , , , , ,48.801,24.714,-84.523
 12:56:43.658,eb:33:2e:f9:57:b5, 2015-01-01 00:41:21.400,0.359,-1.108,2.371,-586.975,-329.102,23.071, , , , , , ,45.346,23.555,-85.787
 12:56:43.658,eb:33:2e:f9:57:b5, 2015-01-01 00:41:21.400,0.374,-1.048,2.576,-585.571,-331.177,50.781, , , , , , ,41.995,22.225,-86.869
 12:56:43.658,eb:33:2e:f9:57:b5, 2015-01-01 00:41:21.400,0.381,-0.98,2.737,-582.275,-330.994,76.599, , , , , , ,38.688,20.731,-87.792
 12:56:43.658,eb:33:2e:f9:57:b5, 2015-01-01 00:41:21.400,0.43,-0.915,2.843,-578.552,-328.43,100.464, , , , , , ,35.557,19.138,-88.462
 12:56:43.658,eb:33:2e:f9:57:b5, 2015-01-01 00:41:21.400,0.536,-0.832,2.947,-575.5,-320.007,120.789, , , , , , ,32.531,17.485,-88.923
 12:56:43.662,eb:33:2e:f9:57:b5, 2015-01-01 00:41:21.400,0.657,-0.728,2.952,-573.608,-308.594,136.536, , , , , , ,29.586,15.804,-89.182
 12:56:43.662,eb:33:2e:f9:57:b5, 2015-01-01 00:41:21.400,0.749,-0.578,2.806,-573.181,-301.819,145.264, , , , , , ,26.631,14.106,-89.302
 12:56:43.663,eb:33:2e:f9:57:b5, 2015-01-01 00:41:21.400,0.764,-0.359,2.609,-574.097,-304.321,145.935, , , , , , ,23.763,12.426,-89.286
 12:56:43.663,eb:33:2e:f9:57:b5, 2015-01-01 00:41:21.400,0.727,-0.097,2.44,-575.378,-320.251,139.832, , , , , , ,20.907,10.712,-89.22
 12:56:43.663,eb:33:2e:f9:57:b5, 2015-01-01 00:41:21.400,0.658,0.163,2.456,-576.965,-345.764,130.066, , , , , , ,18.034,8.904,-89.149
 12:56:43.663,eb:33:2e:f9:57:b5, 2015-01-01 00:41:21.400,0.562,0.419,2.677,-581.665,-371.46,119.751, , , , , , ,15.084,6.971,-89.088
