Time,Device name,Chip Time(),Acceleration X(g),Acceleration Y(g),Acceleration Z(g),Angular velocity X(°/s),Angular velocity Y(°/s),Angular velocity Z(°/s),ShiftX(mm),ShiftY(mm),ShiftZ(mm),SpeedX(mm/s),SpeedY(mm/s),SpeedZ(mm/s),Angle X(°),Angle Y(°),Angle Z(°)
 12:42:32.437,eb:33:2e:f9:57:b5, 2015-01-01 00:28:39.290,-0.006,0.007,0.999,-0.183,-0.061,-0.244, , , , , , ,0.412,0.264,-107.985
 12:42:32.437,eb:33:2e:f9:57:b5, 2015-01-01 00:28:39.290,-0.006,0.006,0.998,-0.244,-0.061,-0.183, , , , , , ,0.412,0.264,-107.985
 12:42:32.437,eb:33:2e:f9:57:b5, 2015-01-01 00:28:39.290,-0.006,0.007,0.999,-0.305,-0.122,-0.183, , , , , , ,0.412,0.264,-107.985
 12:42:32.437,eb:33:2e:f9:57:b5, 2015-01-01 00:28:39.290,-0.007,0.006,0.999,-0.305,-0.183,-0.122, , , , , , ,0.412,0.264,-107.985
 12:42:32.438,eb:33:2e:f9:57:b5, 2015-01-01 00:28:39.290,-0.006,0.005,0.999,-0.305,-0.183,-0.122, , , , , , ,0.412,0.264,-107.985
 12:42:32.438,eb:33:2e:f9:57:b5, 2015-01-01 00:28:39.290,-0.005,0.005,0.999,-0.305,-0.244,-0.183, , , , , , ,0.412,0.264,-107.985
 12:42:32.438,eb:33:2e:f9:57:b5, 2015-01-01 00:28:39.290,-0.006,0.005,0.999,-0.366,-0.244,-0.183, , , , , , ,0.412,0.264,-107.985
 12:42:32.438,eb:33:2e:f9:57:b5, 2015-01-01 00:28:39.290,-0.007,0.006,0.998,-0.305,-0.244,-0.183, , , , , , ,0.412,0.264,-107.985
 12:42:32.482,eb:33:2e:f9:57:b5, 2015-01-01 00:28:39.290,-0.005,0.006,0.998,-0.366,-0.305,-0.183, , , , , , ,0.406,0.264,-107.985
 12:42:32.482,eb:33:2e:f9:57:b5, 2015-01-01 00:28:39.290,-0.006,0.006,0.999,-0.366,-0.305,-0.183, , , , , , ,0.406,0.264,-107.985
 12:42:32.482,eb:33:2e:f9:57:b5, 2015-01-01 00:28:39.290,-0.006,0.005,0.999,-0.305,-0.305,-0.122, , , , , , ,0.406,0.264,-107.985
 12:42:32.482,eb:33:2e:f9:57:b5, 2015-01-01 00:28:39.290,-0.006,0.004,0.999,-0.244,-0.366,-0.122, , , , , , ,0.406,0.264,-107.985
 12:42:32.482,eb:33:2e:f9:57:b5, 2015-01-01 00:28:39.290,-0.006,0.005,0.999,-0.183,-0.427,-0.122, , , , , , ,0.406,0.269,-107.985
 12:42:32.482,eb:33:2e:f9:57:b5, 2015-01-01 00:28:39.290,-0.005,0.005,1,-0.244,-0.366,-0.183, , , , , , ,0.406,0.269,-107.985
 12:42:32.482,eb:33:2e:f9:57:b5, 2015-01-01 00:28:39.290,-0.005,0.005,1,-0.244,-0.305,-0.183, , , , , , ,0.406,0.269,-107.985
 12:42:32.482,eb:33:2e:f9:57:b5, 2015-01-01 00:28:39.290,-0.004,0.005,1,-0.183,-0.305,-0.183, , , , , , ,0.406,0.269,-107.985
 12:42:32.529,eb:33:2e:f9:57:b5, 2015-01-01 00:28:39.290,-0.004,0.006,1,-0.183,-0.244,-0.183, , , , , , ,0.406,0.269,-107.985
 12:42:32.529,eb:33:2e:f9:57:b5, 2015-01-01 00:28:39.290,-0.005,0.005,1,-0.122,-0.122,-0.122, , , , , , ,0.406,0.269,-107.985
 12:42:32.529,eb:33:2e:f9:57:b5, 2015-01-01 00:28:39.290,-0.005,0.004,1,-0.122,-0.122,-0.122, , , , , , ,0.406,0.269,-107.985
 12:42:32.529,eb:33:2e:f9:57:b5, 2015-01-01 00:28:39.290,-0.005,0.005,1,-0.061,0,-0.122, , , , , , ,0.406,0.269,-107.985
 12:42:32.529,eb:33:2e:f9:57:b5, 2015-01-01 00:28:39.290,-0.005,0.006,1,-0.061,0,-0.183, , , , , , ,0.406,0.269,-107.985
 12:42:32.529,eb:33:2e:f9:57:b5, 2015-01-01 00:28:39.290,-0.005,0.005,1,-0.061,0,-0.122, , , , , , ,0.406,0.269,-107.985
 12:42:32.529,eb:33:2e:f9:57:b5, 2015-01-01 00:28:39.290,-0.005,0.004,1,-0.061,0,-0.122, , , , , , ,0.406,0.269,-107.985
 12:42:32.529,eb:33:2e:f9:57:b5, 2015-01-01 00:28:39.290,-0.004,0.004,1,0,0,-0.122, , , , , , ,0.406,0.269,-107.985
 12:42:32.573,eb:33:2e:f9:57:b5, 2015-01-01 00:28:39.600,-0.005,0.005,1,0,0.122,-0.061, , , , , , ,0.406,0.269,-107.985
 12:42:32.573,eb:33:2e:f9:57:b5, 2015-01-01 00:28:39.600,-0.005,0.006,1,-0.061,0.183,-0.061, , , , , , ,0.406,0.269,-107.985
 12:42:32.573,eb:33:2e:f9:57:b5, 2015-01-01 00:28:39.600,-0.005,0.005,0.999,0,0.183,-0.061, , , , , , ,0.406,0.269,-107.985
 12:42:32.573,eb:33:2e:f9:57:b5, 2015-01-01 00:28:39.600,-0.006,0.004,1,0,0.122,0, , , , , , ,0.406,0.269,-107.985
 12:42:32.573,eb:33:2e:f9:57:b5, 2015-01-01 00:28:39.600,-0.006,0.004,1,0,0.122,0, , , , , , ,0.406,0.269,-107.985
 12:42:32.573,eb:33:2e:f9:57:b5, 2015-01-01 00:28:39.600,-0.005,0.005,1,0,0.122,-0.061, , , , , , ,0.406,0.269,-107.985
 12:42:32.573,eb:33:2e:f9:57:b5, 2015-01-01 00:28:39.600,-0.005,0.005,1,0,0.122,-0.061, , , , , , ,0.406,0.269,-107.985
 12:42:32.573,eb:33:2e:f9:57:b5, 2015-01-01 00:28:39.600,-0.006,0.004,0.999,0.061,0.122,0, , , , , , ,0.406,0.269,-107.985
 12:42:32.595,eb:33:2e:f9:57:b5, 2015-01-01 00:28:39.600,-0.007,0.003,0.999,0.061,0.061,0, , , , , , ,0.406,0.269,-107.985
 12:42:32.595,eb:33:2e:f9:57:b5, 2015-01-01 00:28:39.600,-0.005,0.005,0.999,0.122,0.061,0, , , , , , ,0.406,0.269,-107.985
 12:42:32.595,eb:33:2e:f9:57:b5, 2015-01-01 00:28:39.600,-0.006,0.005,0.999,0.183,0.061,0, , , , , , ,0.406,0.269,-107.985
 12:42:32.595,eb:33:2e:f9:57:b5, 2015-01-01 00:28:39.600,-0.005,0.005,1,0.122,0,0, , , , , , ,0.406,0.269,-107.985
 12:42:32.595,eb:33:2e:f9:57:b5, 2015-01-01 00:28:39.600,-0.006,0.004,0.999,0.183,0.122,0, , , , , , ,0.406,0.269,-107.985
 12:42:32.595,eb:33:2e:f9:57:b5, 2015-01-01 00:28:39.600,-0.007,0.006,0.999,0.122,0.122,-0.061, , , , , , ,0.406,0.269,-107.985
 12:42:32.595,eb:33:2e:f9:57:b5, 2015-01-01 00:28:39.600,-0.005,0.006,0.998,0.061,0.122,0, , , , , , ,0.406,0.269,-107.985
 12:42:32.595,eb:33:2e:f9:57:b5, 2015-01-01 00:28:39.600,-0.006,0.005,0.999,0.061,0.061,0, , , , , , ,0.406,0.269,-107.985
 12:42:32.640,eb:33:2e:f9:57:b5, 2015-01-01 00:28:39.600,-0.005,0.006,0.999,0,0.122,0, , , , , , ,0.406,0.269,-107.985
 12:42:32.640,eb:33:2e:f9:57:b5, 2015-01-01 00:28:39.600,-0.007,0.005,0.999,0.061,0.122,0, , , , , , ,0.406,0.269,-107.985
 12:42:32.643,eb:33:2e:f9:57:b5, 2015-01-01 00:28:39.600,-0.005,0.003,0.999,0.061,0.061,0, , , , , , ,0.406,0.269,-107.985
 12:42:32.643,eb:33:2e:f9:57:b5, 2015-01-01 00:28:39.600,-0.008,0.007,0.999,0.061,0.122,-0.061, , , , , , ,0.406,0.269,-107.985
 12:42:32.643,eb:33:2e:f9:57:b5, 2015-01-01 00:28:39.600,-0.006,0.007,0.998,0,0.183,0, , , , , , ,0.406,0.269,-107.985
 12:42:32.643,eb:33:2e:f9:57:b5, 2015-01-01 00:28:39.600,-0.006,0.005,0.998,0,0.122,0, , , , , , ,0.406,0.269,-107.985
 12:42:32.643,eb:33:2e:f9:57:b5, 2015-01-01 00:28:39.600,-0.008,0.005,0.999,0,0.122,0, , , , , , ,0.406,0.269,-107.985
 12:42:32.643,eb:33:2e:f9:57:b5, 2015-01-01 00:28:39.600,-0.006,0.003,1,0,0,0, , , , , , ,0.406,0.269,-107.985
 12:42:32.685,eb:33:2e:f9:57:b5, 2015-01-01 00:28:39.600,-0.009,0.006,0.999,0,0,-0.122, , , , , , ,0.401,0.269,-107.985
 12:42:32.685,eb:33:2e:f9:57:b5, 2015-01-01 00:28:39.600,-0.008,0.006,0.997,-0.061,-0.122,-0.061, , , , , , ,0.401,0.269,-107.985
 12:42:32.685,eb:33:2e:f9:57:b5, 2015-01-01 00:28:39.600,-0.006,0.005,0.997,0,-0.244,-0.061, , , , , , ,0.401,0.269,-107.985
 12:42:32.685,eb:33:2e:f9:57:b5, 2015-01-01 00:28:39.600,-0.008,0.005,0.999,-0.061,-0.244,-0.061, , , , , , ,0.401,0.269,-107.985
 12:42:32.685,eb:33:2e:f9:57:b5, 2015-01-01 00:28:39.600,-0.007,0.004,0.998,0,-0.366,-0.061, , , , , , ,0.401,0.269,-107.985
 12:42:32.685,eb:33:2e:f9:57:b5, 2015-01-01 00:28:39.600,-0.008,0.005,0.999,0,-0.366,-0.061, , , , , , ,0.401,0.269,-107.985
 12:42:32.685,eb:33:2e:f9:57:b5, 2015-01-01 00:28:39.600,-0.007,0.005,0.998,0,-0.427,-0.061, , , , , , ,0.401,0.269,-107.985
 12:42:32.685,eb:33:2e:f9:57:b5, 2015-01-01 00:28:39.600,-0.005,0.004,1,-0.061,-0.549,-0.061, , , , , , ,0.401,0.269,-107.985
 12:42:32.731,eb:33:2e:f9:57:b5, 2015-01-01 00:28:39.600,-0.004,0.004,1,0,-0.427,-0.061, , , , , , ,0.401,0.269,-107.985
 12:42:32.731,eb:33:2e:f9:57:b5, 2015-01-01 00:28:39.600,-0.006,0.005,1,0,-0.366,-0.122, , , , , , ,0.401,0.269,-107.985
 12:42:32.731,eb:33:2e:f9:57:b5, 2015-01-01 00:28:39.600,-0.008,0.005,0.998,0,-0.366,-0.122, , , , , , ,0.401,0.269,-107.985
 12:42:32.731,eb:33:2e:f9:57:b5, 2015-01-01 00:28:39.600,-0.007,0.005,0.998,0,-0.549,-0.122, , , , , , ,0.401,0.269,-107.985
 12:42:32.731,eb:33:2e:f9:57:b5, 2015-01-01 00:28:39.600,-0.004,0.005,0.998,0,-0.61,0, , , , , , ,0.401,0.275,-107.985
 12:42:32.731,eb:33:2e:f9:57:b5, 2015-01-01 00:28:39.600,0,0.004,1,0,-0.488,-0.061, , , , , , ,0.401,0.275,-107.985
 12:42:32.731,eb:33:2e:f9:57:b5, 2015-01-01 00:28:39.600,-0.006,0.004,1.002,0,-0.122,0, , , , , , ,0.401,0.275,-107.985
 12:42:32.731,eb:33:2e:f9:57:b5, 2015-01-01 00:28:39.600,-0.008,0.005,0.998,0,-0.183,0, , , , , , ,0.401,0.275,-107.985
 12:42:32.753,eb:33:2e:f9:57:b5, 2015-01-01 00:28:39.600,-0.005,0.005,0.997,0,-0.305,-0.061, , , , , , ,0.401,0.275,-107.985
 12:42:32.753,eb:33:2e:f9:57:b5, 2015-01-01 00:28:39.600,-0.003,0.005,0.999,0,-0.244,-0.061, , , , , , ,0.401,0.275,-107.985
 12:42:32.753,eb:33:2e:f9:57:b5, 2015-01-01 00:28:39.600,-0.001,0.005,1,0,-0.122,0, , , , , , ,0.401,0.275,-107.985
 12:42:32.753,eb:33:2e:f9:57:b5, 2015-01-01 00:28:39.600,-0.006,0.005,1.002,0,0.061,-0.061, , , , , , ,0.401,0.275,-107.985
 12:42:32.753,eb:33:2e:f9:57:b5, 2015-01-01 00:28:39.600,-0.008,0.004,1,0.061,0.122,-0.061, , , , , , ,0.401,0.275,-107.985
 12:42:32.753,eb:33:2e:f9:57:b5, 2015-01-01 00:28:39.600,-0.007,0.006,0.997,-0.061,-0.122,-0.061, , , , , , ,0.401,0.275,-107.985
 12:42:32.753,eb:33:2e:f9:57:b5, 2015-01-01 00:28:39.600,-0.003,0.005,0.998,0,-0.183,-0.061, , , , , , ,0.401,0.275,-107.985
 12:42:32.753,eb:33:2e:f9:57:b5, 2015-01-01 00:28:39.600,-0.003,0.005,1.001,0,-0.122,-0.061, , , , , , ,0.401,0.275,-107.985
 12:42:32.797,eb:33:2e:f9:57:b5, 2015-01-01 00:28:39.600,-0.003,0.004,1,0,0.061,0, , , , , , ,0.401,0.275,-107.985
 12:42:32.797,eb:33:2e:f9:57:b5, 2015-01-01 00:28:39.600,-0.005,0.004,1,0,0.122,0, , , , , , ,0.401,0.275,-107.985
 12:42:32.797,eb:33:2e:f9:57:b5, 2015-01-01 00:28:39.600,-0.005,0.004,0.999,0.061,0.122,0, , , , , , ,0.401,0.275,-107.985
 12:42:32.797,eb:33:2e:f9:57:b5, 2015-01-01 00:28:39.600,-0.005,0.004,1,0.061,0.183,0, , , , , , ,0.401,0.275,-107.985
 12:42:32.797,eb:33:2e:f9:57:b5, 2015-01-01 00:28:39.600,-0.005,0.005,1,0.061,0.183,0, , , , , , ,0.401,0.275,-107.985
 12:42:32.797,eb:33:2e:f9:57:b5, 2015-01-01 00:28:39.600,-0.004,0.004,1,0.061,0.183,0.061, , , , , , ,0.401,0.275,-107.985
 12:42:32.797,eb:33:2e:f9:57:b5, 2015-01-01 00:28:39.600,-0.004,0.004,1,0.122,0.244,0.061, , , , , , ,0.401,0.275,-107.985
 12:42:32.797,eb:33:2e:f9:57:b5, 2015-01-01 00:28:39.600,-0.006,0.004,1,0.183,0.244,0.122, , , , , , ,0.401,0.275,-107.985
 12:42:32.843,eb:33:2e:f9:57:b5, 2015-01-01 00:28:39.600,-0.007,0.004,0.999,0.244,0.122,0.122, , , , , , ,0.401,0.275,-107.985
 12:42:32.843,eb:33:2e:f9:57:b5, 2015-01-01 00:28:39.600,-0.006,0.005,0.999,0.183,0.061,0.122, , , , , , ,0.401,0.275,-107.985
 12:42:32.843,eb:33:2e:f9:57:b5, 2015-01-01 00:28:39.600,-0.005,0.005,0.999,0.183,0.061,0.122, , , , , , ,0.401,0.275,-107.985
 12:42:32.843,eb:33:2e:f9:57:b5, 2015-01-01 00:28:39.600,-0.006,0.004,0.999,0.183,0.061,0.061, , , , , , ,0.401,0.275,-107.985
 12:42:32.843,eb:33:2e:f9:57:b5, 2015-01-01 00:28:39.600,-0.005,0.005,0.999,0.122,0.061,0.061, , , , , , ,0.396,0.275,-107.985
 12:42:32.843,eb:33:2e:f9:57:b5, 2015-01-01 00:28:39.600,-0.005,0.004,0.999,0.244,0.061,0.122, , , , , , ,0.396,0.275,-107.985
 12:42:32.843,eb:33:2e:f9:57:b5, 2015-01-01 00:28:39.600,-0.004,0.004,0.999,0.244,0,0.122, , , , , , ,0.396,0.275,-107.985
 12:42:32.843,eb:33:2e:f9:57:b5, 2015-01-01 00:28:39.600,-0.005,0.004,1,0.244,0.061,0.122, , , , , , ,0.396,0.275,-107.985
 12:42:32.887,eb:33:2e:f9:57:b5, 2015-01-01 00:28:39.915,-0.005,0.006,1,0.244,0.122,0.061, , , , , , ,0.396,0.275,-107.985
 12:42:32.887,eb:33:2e:f9:57:b5, 2015-01-01 00:28:39.915,-0.005,0.005,1,0.183,0.122,0.061, , , , , , ,0.396,0.275,-107.985
 12:42:32.887,eb:33:2e:f9:57:b5, 2015-01-01 00:28:39.915,-0.006,0.006,0.999,0.122,0.122,0.122, , , , , , ,0.396,0.275,-107.985
 12:42:32.887,eb:33:2e:f9:57:b5, 2015-01-01 00:28:39.915,-0.005,0.005,0.999,0.183,0.183,0.122, , , , , , ,0.396,0.275,-107.985
 12:42:32.887,eb:33:2e:f9:57:b5, 2015-01-01 00:28:39.915,-0.006,0.005,0.999,0.061,0.183,0.122, , , , , , ,0.396,0.275,-107.985
 12:42:32.887,eb:33:2e:f9:57:b5, 2015-01-01 00:28:39.915,-0.006,0.005,0.999,0.122,0.122,0.122, , , , , , ,0.396,0.275,-107.985
 12:42:32.887,eb:33:2e:f9:57:b5, 2015-01-01 00:28:39.915,-0.006,0.005,0.999,0.122,0.122,0.122, , , , , , ,0.396,0.275,-107.985
 12:42:32.887,eb:33:2e:f9:57:b5, 2015-01-01 00:28:39.915,-0.006,0.005,0.998,0.061,0.122,0, , , , , , ,0.396,0.275,-107.985
 12:42:32.932,eb:33:2e:f9:57:b5, 2015-01-01 00:28:39.915,-0.005,0.005,0.998,0.061,0.061,0, , , , , , ,0.396,0.275,-107.985
 12:42:32.932,eb:33:2e:f9:57:b5, 2015-01-01 00:28:39.915,-0.004,0.005,0.999,0.122,0.122,0.061, , , , , , ,0.396,0.275,-107.985
 12:42:32.932,eb:33:2e:f9:57:b5, 2015-01-01 00:28:39.915,-0.005,0.005,0.999,0.122,0.122,0.061, , , , , , ,0.396,0.275,-107.985
 12:42:32.932,eb:33:2e:f9:57:b5, 2015-01-01 00:28:39.915,-0.006,0.005,0.998,0.061,0.061,0.122, , , , , , ,0.396,0.275,-107.985
 12:42:32.932,eb:33:2e:f9:57:b5, 2015-01-01 00:28:39.915,-0.005,0.005,0.999,0.122,0.061,0.061, , , , , , ,0.396,0.275,-107.985
 12:42:32.932,eb:33:2e:f9:57:b5, 2015-01-01 00:28:39.915,-0.006,0.005,0.999,0.061,0.061,0.122, , , , , , ,0.396,0.275,-107.985
 12:42:32.932,eb:33:2e:f9:57:b5, 2015-01-01 00:28:39.915,-0.006,0.005,1,0.061,0.061,0.061, , , , , , ,0.396,0.275,-107.985
 12:42:32.932,eb:33:2e:f9:57:b5, 2015-01-01 00:28:39.915,-0.006,0.005,0.999,0.122,0.122,0.061, , , , , , ,0.396,0.275,-107.985
 12:42:32.955,eb:33:2e:f9:57:b5, 2015-01-01 00:28:39.915,-0.005,0.005,0.999,0.122,0.122,0.122, , , , , , ,0.396,0.275,-107.985
 12:42:32.955,eb:33:2e:f9:57:b5, 2015-01-01 00:28:39.915,-0.006,0.005,1,0.122,0.061,0.122, , , , , , ,0.396,0.275,-107.985
 12:42:32.955,eb:33:2e:f9:57:b5, 2015-01-01 00:28:39.915,-0.006,0.005,0.999,0.122,0.061,0.061, , , , , , ,0.396,0.275,-107.985
 12:42:32.955,eb:33:2e:f9:57:b5, 2015-01-01 00:28:39.915,-0.006,0.004,0.999,0.183,0.061,0.122, , , , , , ,0.396,0.275,-107.985
 12:42:32.955,eb:33:2e:f9:57:b5, 2015-01-01 00:28:39.915,-0.005,0.005,1,0.183,0.122,0.122, , , , , , ,0.396,0.275,-107.985
 12:42:32.955,eb:33:2e:f9:57:b5, 2015-01-01 00:28:39.915,-0.006,0.005,1,0.183,0,0.122, , , , , , ,0.396,0.275,-107.985
 12:42:32.955,eb:33:2e:f9:57:b5, 2015-01-01 00:28:39.915,-0.006,0.005,1,0.183,0,0.122, , , , , , ,0.396,0.275,-107.985
 12:42:32.955,eb:33:2e:f9:57:b5, 2015-01-01 00:28:39.915,-0.005,0.005,1,0.183,0,0.122, , , , , , ,0.396,0.275,-107.985
 12:42:33.000,eb:33:2e:f9:57:b5, 2015-01-01 00:28:39.915,-0.006,0.005,0.999,0.183,0,0.183, , , , , , ,0.396,0.275,-107.985
 12:42:33.000,eb:33:2e:f9:57:b5, 2015-01-01 00:28:39.915,-0.006,0.005,0.998,0.244,-0.061,0.122, , , , , , ,0.396,0.275,-107.985
 12:42:33.000,eb:33:2e:f9:57:b5, 2015-01-01 00:28:39.915,-0.005,0.006,0.998,0.183,0,0.061, , , , , , ,0.396,0.275,-107.985
 12:42:33.000,eb:33:2e:f9:57:b5, 2015-01-01 00:28:39.915,-0.005,0.006,0.999,0.183,0,0.122, , , , , , ,0.396,0.275,-107.985
 12:42:33.000,eb:33:2e:f9:57:b5, 2015-01-01 00:28:39.915,-0.005,0.006,0.999,0.183,0,0.122, , , , , , ,0.396,0.275,-107.985
 12:42:33.000,eb:33:2e:f9:57:b5, 2015-01-01 00:28:39.915,-0.005,0.005,0.999,0.183,0,0.122, , , , , , ,0.396,0.275,-107.985
 12:42:33.000,eb:33:2e:f9:57:b5, 2015-01-01 00:28:39.915,-0.004,0.005,1,0.183,0,0.122, , , , , , ,0.396,0.275,-107.985
 12:42:33.000,eb:33:2e:f9:57:b5, 2015-01-01 00:28:39.915,-0.004,0.005,1,0.183,0,0.122, , , , , , ,0.396,0.275,-107.985
 12:42:33.045,eb:33:2e:f9:57:b5, 2015-01-01 00:28:39.915,-0.005,0.004,1,0.244,0,0.122, , , , , , ,0.396,0.275,-107.985
 12:42:33.045,eb:33:2e:f9:57:b5, 2015-01-01 00:28:39.915,-0.005,0.005,1,0.244,0,0.122, , , , , , ,0.396,0.275,-107.985
 12:42:33.045,eb:33:2e:f9:57:b5, 2015-01-01 00:28:39.915,-0.006,0.005,0.999,0.244,0,0.061, , , , , , ,0.39,0.275,-107.985
 12:42:33.045,eb:33:2e:f9:57:b5, 2015-01-01 00:28:39.915,-0.006,0.005,0.999,0.183,0,0.183, , , , , , ,0.39,0.275,-107.985
 12:42:33.045,eb:33:2e:f9:57:b5, 2015-01-01 00:28:39.915,-0.005,0.005,1,0.183,0,0.183, , , , , , ,0.39,0.275,-107.985
 12:42:33.045,eb:33:2e:f9:57:b5, 2015-01-01 00:28:39.915,-0.005,0.007,1,0.305,0,0.183, , , , , , ,0.39,0.275,-107.985
 12:42:33.045,eb:33:2e:f9:57:b5, 2015-01-01 00:28:39.915,-0.007,0.006,0.999,0.244,0,0.122, , , , , , ,0.39,0.275,-107.979
 12:42:33.045,eb:33:2e:f9:57:b5, 2015-01-01 00:28:39.915,-0.006,0.006,0.999,0.244,0,0.122, , , , , , ,0.39,0.275,-107.979
 12:42:33.090,eb:33:2e:f9:57:b5, 2015-01-01 00:28:39.915,-0.004,0.006,0.999,0.183,0.061,0.061, , , , , , ,0.39,0.275,-107.979
 12:42:33.091,eb:33:2e:f9:57:b5, 2015-01-01 00:28:39.915,-0.004,0.006,0.999,0.122,0.061,0.061, , , , , , ,0.39,0.275,-107.979
 12:42:33.091,eb:33:2e:f9:57:b5, 2015-01-01 00:28:39.915,-0.005,0.006,1,0.183,0.061,0.122, , , , , , ,0.39,0.275,-107.979
 12:42:33.091,eb:33:2e:f9:57:b5, 2015-01-01 00:28:39.915,-0.006,0.006,1,0.122,0.122,0.122, , , , , , ,0.39,0.275,-107.979
 12:42:33.091,eb:33:2e:f9:57:b5, 2015-01-01 00:28:39.915,-0.005,0.005,1,0.122,0.122,0.061, , , , , , ,0.39,0.275,-107.979
 12:42:33.091,eb:33:2e:f9:57:b5, 2015-01-01 00:28:39.915,-0.005,0.006,0.999,0.061,0.122,0.122, , , , , , ,0.39,0.275,-107.979
 12:42:33.091,eb:33:2e:f9:57:b5, 2015-01-01 00:28:39.915,-0.005,0.005,0.999,0.061,0.061,0, , , , , , ,0.39,0.275,-107.979
 12:42:33.091,eb:33:2e:f9:57:b5, 2015-01-01 00:28:39.915,-0.006,0.006,0.999,0.122,0.183,0, , , , , , ,0.39,0.275,-107.979
 12:42:33.135,eb:33:2e:f9:57:b5, 2015-01-01 00:28:39.915,-0.005,0.006,0.999,0.122,0.122,0.061, , , , , , ,0.39,0.275,-107.979
 12:42:33.135,eb:33:2e:f9:57:b5, 2015-01-01 00:28:39.915,-0.005,0.006,0.999,0.061,0.122,0.061, , , , , , ,0.39,0.275,-107.979
 12:42:33.135,eb:33:2e:f9:57:b5, 2015-01-01 00:28:39.915,-0.005,0.006,0.999,0.122,0.122,0.061, , , , , , ,0.39,0.275,-107.979
 12:42:33.135,eb:33:2e:f9:57:b5, 2015-01-01 00:28:39.915,-0.006,0.005,0.999,0.122,0.122,0.061, , , , , , ,0.39,0.275,-107.979
 12:42:33.135,eb:33:2e:f9:57:b5, 2015-01-01 00:28:39.915,-0.006,0.006,0.999,0.061,0.061,0.061, , , , , , ,0.39,0.275,-107.979
 12:42:33.135,eb:33:2e:f9:57:b5, 2015-01-01 00:28:39.915,-0.006,0.006,0.998,0.122,0.061,0, , , , , , ,0.39,0.275,-107.979
 12:42:33.135,eb:33:2e:f9:57:b5, 2015-01-01 00:28:39.915,-0.006,0.005,0.999,0.122,0,0, , , , , , ,0.39,0.275,-107.979
 12:42:33.135,eb:33:2e:f9:57:b5, 2015-01-01 00:28:39.915,-0.005,0.005,0.999,0.061,0.061,0, , , , , , ,0.39,0.275,-107.979
 12:42:33.159,eb:33:2e:f9:57:b5, 2015-01-01 00:28:40.205,-0.005,0.005,1,0.061,0.122,0, , , , , , ,0.39,0.275,-107.979
 12:42:33.159,eb:33:2e:f9:57:b5, 2015-01-01 00:28:40.205,-0.006,0.005,0.999,0.122,0.183,0.061, , , , , , ,0.39,0.275,-107.979
 12:42:33.159,eb:33:2e:f9:57:b5, 2015-01-01 00:28:40.205,-0.006,0.005,0.999,0.061,0.183,0, , , , , , ,0.39,0.275,-107.979
 12:42:33.159,eb:33:2e:f9:57:b5, 2015-01-01 00:28:40.205,-0.006,0.005,0.999,0.061,0.183,0.061, , , , , , ,0.39,0.275,-107.979
 12:42:33.159,eb:33:2e:f9:57:b5, 2015-01-01 00:28:40.205,-0.005,0.005,0.999,0.061,0.244,0.061, , , , , , ,0.39,0.275,-107.979
 12:42:33.159,eb:33:2e:f9:57:b5, 2015-01-01 00:28:40.205,-0.006,0.005,0.999,0.061,0.244,0.061, , , , , , ,0.39,0.275,-107.979
 12:42:33.159,eb:33:2e:f9:57:b5, 2015-01-01 00:28:40.205,-0.006,0.006,0.999,0,0.244,0, , , , , , ,0.39,0.275,-107.979
 12:42:33.159,eb:33:2e:f9:57:b5, 2015-01-01 00:28:40.205,-0.005,0.005,0.999,0.061,0.244,0, , , , , , ,0.39,0.275,-107.979
 12:42:33.202,eb:33:2e:f9:57:b5, 2015-01-01 00:28:40.205,-0.006,0.004,0.999,0,0.305,0.061, , , , , , ,0.39,0.28,-107.979
 12:42:33.202,eb:33:2e:f9:57:b5, 2015-01-01 00:28:40.205,-0.006,0.005,0.999,0.122,0.183,0, , , , , , ,0.39,0.28,-107.979
 12:42:33.202,eb:33:2e:f9:57:b5, 2015-01-01 00:28:40.205,-0.006,0.005,0.999,0.061,0.183,0.061, , , , , , ,0.39,0.28,-107.979
 12:42:33.202,eb:33:2e:f9:57:b5, 2015-01-01 00:28:40.205,-0.006,0.005,0.999,0.061,0.183,0.061, , , , , , ,0.39,0.28,-107.979
 12:42:33.202,eb:33:2e:f9:57:b5, 2015-01-01 00:28:40.205,-0.006,0.005,0.998,0.061,0.122,0, , , , , , ,0.39,0.28,-107.979
 12:42:33.202,eb:33:2e:f9:57:b5, 2015-01-01 00:28:40.205,-0.005,0.005,0.999,0.122,0.061,0.061, , , , , , ,0.39,0.28,-107.979
 12:42:33.202,eb:33:2e:f9:57:b5, 2015-01-01 00:28:40.205,-0.006,0.005,0.999,0.061,0.061,0.061, , , , , , ,0.39,0.28,-107.979
 12:42:33.202,eb:33:2e:f9:57:b5, 2015-01-01 00:28:40.205,-0.006,0.005,1,0.122,0.122,0, , , , , , ,0.39,0.28,-107.979
 12:42:33.248,eb:33:2e:f9:57:b5, 2015-01-01 00:28:40.205,-0.006,0.005,1,0.122,0.061,0.061, , , , , , ,0.39,0.28,-107.979
 12:42:33.248,eb:33:2e:f9:57:b5, 2015-01-01 00:28:40.205,-0.006,0.005,1,0.183,0,0.122, , , , , , ,0.39,0.28,-107.979
 12:42:33.248,eb:33:2e:f9:57:b5, 2015-01-01 00:28:40.205,-0.006,0.004,0.999,0.183,0.061,0.122, , , , , , ,0.39,0.28,-107.979
 12:42:33.248,eb:33:2e:f9:57:b5, 2015-01-01 00:28:40.205,-0.005,0.005,0.999,0.244,0,0.183, , , , , , ,0.39,0.28,-107.979
 12:42:33.248,eb:33:2e:f9:57:b5, 2015-01-01 00:28:40.205,-0.005,0.006,1,0.244,0.061,0.183, , , , , , ,0.39,0.28,-107.979
 12:42:33.248,eb:33:2e:f9:57:b5, 2015-01-01 00:28:40.205,-0.005,0.005,1,0.305,0.061,0.183, , , , , , ,0.39,0.28,-107.979
 12:42:33.248,eb:33:2e:f9:57:b5, 2015-01-01 00:28:40.205,-0.006,0.004,1,0.305,0.122,0.183, , , , , , ,0.39,0.28,-107.979
 12:42:33.248,eb:33:2e:f9:57:b5, 2015-01-01 00:28:40.205,-0.006,0.005,1,0.244,0.122,0.183, , , , , , ,0.39,0.28,-107.979
 12:42:33.292,eb:33:2e:f9:57:b5, 2015-01-01 00:28:40.205,-0.006,0.006,1,0.244,0.122,0.122, , , , , , ,0.39,0.28,-107.979
 12:42:33.292,eb:33:2e:f9:57:b5, 2015-01-01 00:28:40.205,-0.006,0.006,0.999,0.305,0,0.244, , , , , , ,0.39,0.28,-107.979
 12:42:33.292,eb:33:2e:f9:57:b5, 2015-01-01 00:28:40.205,-0.006,0.005,0.999,0.305,0,0.244, , , , , , ,0.39,0.28,-107.979
 12:42:33.292,eb:33:2e:f9:57:b5, 2015-01-01 00:28:40.205,-0.006,0.005,0.999,0.366,0,0.244, , , , , , ,0.39,0.28,-107.979
 12:42:33.292,eb:33:2e:f9:57:b5, 2015-01-01 00:28:40.205,-0.005,0.005,0.999,0.427,0,0.244, , , , , , ,0.39,0.28,-107.979
 12:42:33.292,eb:33:2e:f9:57:b5, 2015-01-01 00:28:40.205,-0.006,0.005,1,0.366,0,0.244, , , , , , ,0.39,0.28,-107.979
 12:42:33.292,eb:33:2e:f9:57:b5, 2015-01-01 00:28:40.205,-0.005,0.005,1,0.366,0,0.244, , , , , , ,0.39,0.28,-107.979
 12:42:33.292,eb:33:2e:f9:57:b5, 2015-01-01 00:28:40.205,-0.005,0.006,1,0.427,0,0.244, , , , , , ,0.39,0.28,-107.979
 12:42:33.337,eb:33:2e:f9:57:b5, 2015-01-01 00:28:40.205,-0.004,0.006,0.999,0.427,0,0.305, , , , , , ,0.385,0.28,-107.979
 12:42:33.337,eb:33:2e:f9:57:b5, 2015-01-01 00:28:40.205,-0.005,0.006,0.999,0.427,0,0.305, , , , , , ,0.385,0.28,-107.979
 12:42:33.337,eb:33:2e:f9:57:b5, 2015-01-01 00:28:40.205,-0.005,0.005,0.999,0.427,0,0.244, , , , , , ,0.385,0.28,-107.979
 12:42:33.337,eb:33:2e:f9:57:b5, 2015-01-01 00:28:40.205,-0.006,0.005,0.999,0.427,0,0.244, , , , , , ,0.385,0.28,-107.979
 12:42:33.337,eb:33:2e:f9:57:b5, 2015-01-01 00:28:40.205,-0.006,0.006,0.999,0.488,0,0.305, , , , , , ,0.385,0.28,-107.979
 12:42:33.337,eb:33:2e:f9:57:b5, 2015-01-01 00:28:40.205,-0.006,0.006,1,0.488,0,0.305, , , , , , ,0.385,0.28,-107.979
 12:42:33.337,eb:33:2e:f9:57:b5, 2015-01-01 00:28:40.205,-0.005,0.006,1,0.427,0,0.244, , , , , , ,0.385,0.28,-107.979
 12:42:33.337,eb:33:2e:f9:57:b5, 2015-01-01 00:28:40.205,-0.006,0.006,0.999,0.488,0.061,0.244, , , , , , ,0.385,0.28,-107.979
 12:42:33.360,eb:33:2e:f9:57:b5, 2015-01-01 00:28:40.205,-0.007,0.006,0.999,0.488,0,0.244, , , , , , ,0.385,0.28,-107.979
 12:42:33.360,eb:33:2e:f9:57:b5, 2015-01-01 00:28:40.205,-0.006,0.006,0.999,0.549,0,0.305, , , , , , ,0.385,0.28,-107.979
 12:42:33.360,eb:33:2e:f9:57:b5, 2015-01-01 00:28:40.205,-0.005,0.007,1,0.488,0,0.305, , , , , , ,0.385,0.28,-107.979
 12:42:33.360,eb:33:2e:f9:57:b5, 2015-01-01 00:28:40.205,-0.007,0.007,1,0.488,0.061,0.244, , , , , , ,0.385,0.28,-107.979
 12:42:33.360,eb:33:2e:f9:57:b5, 2015-01-01 00:28:40.205,-0.006,0.006,0.999,0.427,0.061,0.305, , , , , , ,0.385,0.28,-107.979
 12:42:33.360,eb:33:2e:f9:57:b5, 2015-01-01 00:28:40.205,-0.004,0.006,0.999,0.427,0,0.305, , , , , , ,0.385,0.28,-107.979
 12:42:33.360,eb:33:2e:f9:57:b5, 2015-01-01 00:28:40.205,-0.004,0.006,1,0.488,0.122,0.244, , , , , , ,0.385,0.28,-107.979
 12:42:33.360,eb:33:2e:f9:57:b5, 2015-01-01 00:28:40.205,-0.006,0.006,0.999,0.427,0.183,0.244, , , , , , ,0.385,0.28,-107.979
 12:42:33.405,eb:33:2e:f9:57:b5, 2015-01-01 00:28:40.205,-0.007,0.007,0.998,0.427,0.122,0.244, , , , , , ,0.385,0.28,-107.979
 12:42:33.405,eb:33:2e:f9:57:b5, 2015-01-01 00:28:40.205,-0.004,0.006,0.998,0.366,0,0.366, , , , , , ,0.385,0.28,-107.979
 12:42:33.405,eb:33:2e:f9:57:b5, 2015-01-01 00:28:40.205,-0.005,0.007,1,0.366,0,0.305, , , , , , ,0.385,0.28,-107.979
 12:42:33.405,eb:33:2e:f9:57:b5, 2015-01-01 00:28:40.205,-0.007,0.007,0.999,0.427,0.061,0.244, , , , , , ,0.385,0.28,-107.979
 12:42:33.405,eb:33:2e:f9:57:b5, 2015-01-01 00:28:40.205,-0.009,0.006,0.998,0.366,0,0.244, , , , , , ,0.385,0.28,-107.979
 12:42:33.405,eb:33:2e:f9:57:b5, 2015-01-01 00:28:40.205,-0.001,0.003,0.999,0.549,-0.183,0.305, , , , , , ,0.385,0.28,-107.979
 12:42:33.405,eb:33:2e:f9:57:b5, 2015-01-01 00:28:40.205,-0.007,0.009,1.001,0.427,0,0.183, , , , , , ,0.385,0.28,-107.979
 12:42:33.405,eb:33:2e:f9:57:b5, 2015-01-01 00:28:40.205,-0.007,0.008,0.997,0.305,0,0.183, , , , , , ,0.385,0.28,-107.979
 12:42:33.452,eb:33:2e:f9:57:b5, 2015-01-01 00:28:40.205,-0.006,0.007,0.998,0.244,-0.061,0.183, , , , , , ,0.385,0.28,-107.979
 12:42:33.452,eb:33:2e:f9:57:b5, 2015-01-01 00:28:40.205,-0.006,0.006,0.998,0.244,-0.061,0.122, , , , , , ,0.385,0.28,-107.979
 12:42:33.452,eb:33:2e:f9:57:b5, 2015-01-01 00:28:40.205,-0.006,0.007,0.999,0.122,-0.122,0.122, , , , , , ,0.385,0.28,-107.979
 12:42:33.452,eb:33:2e:f9:57:b5, 2015-01-01 00:28:40.205,-0.005,0.007,0.999,0.183,-0.122,0.061, , , , , , ,0.385,0.28,-107.979
 12:42:33.452,eb:33:2e:f9:57:b5, 2015-01-01 00:28:40.205,-0.006,0.007,0.999,0.122,-0.122,0, , , , , , ,0.385,0.28,-107.979
 12:42:33.452,eb:33:2e:f9:57:b5, 2015-01-01 00:28:40.205,-0.004,0.006,0.999,0.183,-0.183,0.061, , , , , , ,0.385,0.28,-107.979
 12:42:33.452,eb:33:2e:f9:57:b5, 2015-01-01 00:28:40.205,-0.007,0.008,0.999,0.122,-0.061,0.061, , , , , , ,0.385,0.28,-107.979
 12:42:33.452,eb:33:2e:f9:57:b5, 2015-01-01 00:28:40.205,-0.006,0.008,0.999,0.122,-0.122,0.061, , , , , , ,0.385,0.28,-107.979
 12:42:33.496,eb:33:2e:f9:57:b5, 2015-01-01 00:28:40.520,-0.006,0.007,0.999,0,-0.122,0, , , , , , ,0.385,0.28,-107.979
 12:42:33.496,eb:33:2e:f9:57:b5, 2015-01-01 00:28:40.520,-0.005,0.007,0.999,0,-0.061,0, , , , , , ,0.385,0.28,-107.979
 12:42:33.496,eb:33:2e:f9:57:b5, 2015-01-01 00:28:40.520,-0.005,0.007,0.999,0,-0.122,0, , , , , , ,0.385,0.28,-107.979
 12:42:33.496,eb:33:2e:f9:57:b5, 2015-01-01 00:28:40.520,-0.005,0.007,0.999,0,-0.061,0, , , , , , ,0.385,0.28,-107.979
 12:42:33.496,eb:33:2e:f9:57:b5, 2015-01-01 00:28:40.520,-0.005,0.007,0.999,0,-0.061,0, , , , , , ,0.385,0.28,-107.979
 12:42:33.496,eb:33:2e:f9:57:b5, 2015-01-01 00:28:40.520,-0.005,0.006,0.999,0,-0.061,0, , , , , , ,0.385,0.28,-107.979
 12:42:33.496,eb:33:2e:f9:57:b5, 2015-01-01 00:28:40.520,-0.006,0.007,1,0,0,0, , , , , , ,0.385,0.28,-107.979
 12:42:33.496,eb:33:2e:f9:57:b5, 2015-01-01 00:28:40.520,-0.005,0.007,1,0,0.061,0, , , , , , ,0.385,0.28,-107.979
 12:42:33.540,eb:33:2e:f9:57:b5, 2015-01-01 00:28:40.520,-0.004,0.006,1,0,0.061,0, , , , , , ,0.385,0.28,-107.979
 12:42:33.540,eb:33:2e:f9:57:b5, 2015-01-01 00:28:40.520,-0.004,0.006,1,0,0.061,0, , , , , , ,0.385,0.28,-107.979
 12:42:33.540,eb:33:2e:f9:57:b5, 2015-01-01 00:28:40.520,-0.006,0.006,1,0,0.122,0, , , , , , ,0.385,0.28,-107.979
 12:42:33.540,eb:33:2e:f9:57:b5, 2015-01-01 00:28:40.520,-0.006,0.006,0.999,0,0.122,0, , , , , , ,0.385,0.28,-107.979
 12:42:33.540,eb:33:2e:f9:57:b5, 2015-01-01 00:28:40.520,-0.006,0.007,0.998,0,0.061,0, , , , , , ,0.385,0.286,-107.979
 12:42:33.540,eb:33:2e:f9:57:b5, 2015-01-01 00:28:40.520,-0.006,0.006,0.999,0,0,0, , , , , , ,0.385,0.286,-107.979
 12:42:33.540,eb:33:2e:f9:57:b5, 2015-01-01 00:28:40.520,-0.006,0.006,0.998,0,0.061,0, , , , , , ,0.385,0.286,-107.979
 12:42:33.540,eb:33:2e:f9:57:b5, 2015-01-01 00:28:40.520,-0.005,0.008,0.999,0,0,-0.061, , , , , , ,0.385,0.286,-107.979
 12:42:33.563,eb:33:2e:f9:57:b5, 2015-01-01 00:28:40.520,-0.004,0.007,0.999,0,0,0, , , , , , ,0.385,0.286,-107.979
 12:42:33.563,eb:33:2e:f9:57:b5, 2015-01-01 00:28:40.520,-0.005,0.006,0.999,0,0.061,0, , , , , , ,0.385,0.286,-107.979
 12:42:33.563,eb:33:2e:f9:57:b5, 2015-01-01 00:28:40.520,-0.006,0.006,1,0,0.061,-0.061, , , , , , ,0.385,0.286,-107.979
 12:42:33.563,eb:33:2e:f9:57:b5, 2015-01-01 00:28:40.520,-0.006,0.006,0.999,0,0.061,-0.061, , , , , , ,0.385,0.286,-107.979
 12:42:33.563,eb:33:2e:f9:57:b5, 2015-01-01 00:28:40.520,-0.005,0.006,0.999,0,0.061,-0.061, , , , , , ,0.385,0.286,-107.979
 12:42:33.563,eb:33:2e:f9:57:b5, 2015-01-01 00:28:40.520,-0.004,0.006,0.998,0,0.061,-0.061, , , , , , ,0.385,0.286,-107.979
 12:42:33.563,eb:33:2e:f9:57:b5, 2015-01-01 00:28:40.520,-0.005,0.006,0.998,0,0.122,-0.061, , , , , , ,0.385,0.286,-107.979
 12:42:33.563,eb:33:2e:f9:57:b5, 2015-01-01 00:28:40.520,-0.005,0.006,0.999,0,0.244,0, , , , , , ,0.385,0.286,-107.979
 12:42:33.607,eb:33:2e:f9:57:b5, 2015-01-01 00:28:40.520,-0.005,0.006,1,0,0.244,0, , , , , , ,0.385,0.286,-107.979
 12:42:33.607,eb:33:2e:f9:57:b5, 2015-01-01 00:28:40.520,-0.005,0.006,0.999,0,0.244,0, , , , , , ,0.385,0.286,-107.979
 12:42:33.607,eb:33:2e:f9:57:b5, 2015-01-01 00:28:40.520,-0.006,0.006,1,0,0.305,-0.061, , , , , , ,0.385,0.286,-107.979
 12:42:33.607,eb:33:2e:f9:57:b5, 2015-01-01 00:28:40.520,-0.007,0.006,1,0,0.305,0, , , , , , ,0.385,0.286,-107.979
 12:42:33.607,eb:33:2e:f9:57:b5, 2015-01-01 00:28:40.520,-0.006,0.006,0.999,0,0.244,0, , , , , , ,0.385,0.286,-107.979
 12:42:33.607,eb:33:2e:f9:57:b5, 2015-01-01 00:28:40.520,-0.005,0.006,0.999,0.061,0.244,0, , , , , , ,0.385,0.286,-107.979
 12:42:33.607,eb:33:2e:f9:57:b5, 2015-01-01 00:28:40.520,-0.006,0.006,1,0.122,0.244,0, , , , , , ,0.385,0.286,-107.979
 12:42:33.607,eb:33:2e:f9:57:b5, 2015-01-01 00:28:40.520,-0.006,0.005,0.999,0.122,0.244,0, , , , , , ,0.385,0.286,-107.979
 12:42:33.652,eb:33:2e:f9:57:b5, 2015-01-01 00:28:40.520,-0.006,0.005,1,0.183,0.183,0.061, , , , , , ,0.385,0.286,-107.979
 12:42:33.652,eb:33:2e:f9:57:b5, 2015-01-01 00:28:40.520,-0.006,0.006,0.999,0.183,0.183,0.061, , , , , , ,0.385,0.286,-107.979
 12:42:33.652,eb:33:2e:f9:57:b5, 2015-01-01 00:28:40.520,-0.007,0.006,1,0.183,0.061,0.061, , , , , , ,0.385,0.286,-107.974
 12:42:33.652,eb:33:2e:f9:57:b5, 2015-01-01 00:28:40.520,-0.006,0.006,0.999,0.183,0,0, , , , , , ,0.385,0.286,-107.974
 12:42:33.652,eb:33:2e:f9:57:b5, 2015-01-01 00:28:40.520,-0.006,0.007,0.999,0.122,0,0, , , , , , ,0.385,0.286,-107.974
 12:42:33.652,eb:33:2e:f9:57:b5, 2015-01-01 00:28:40.520,-0.006,0.007,0.999,0.122,0,0.061, , , , , , ,0.385,0.286,-107.974
 12:42:33.652,eb:33:2e:f9:57:b5, 2015-01-01 00:28:40.520,-0.006,0.006,1,0.122,0,0, , , , , , ,0.385,0.286,-107.974
 12:42:33.652,eb:33:2e:f9:57:b5, 2015-01-01 00:28:40.520,-0.006,0.007,0.999,0.122,0,0, , , , , , ,0.385,0.286,-107.974
 12:42:33.699,eb:33:2e:f9:57:b5, 2015-01-01 00:28:40.520,-0.005,0.007,0.999,0.061,0,0, , , , , , ,0.385,0.286,-107.974
 12:42:33.699,eb:33:2e:f9:57:b5, 2015-01-01 00:28:40.520,-0.005,0.007,0.999,0.061,0,0, , , , , , ,0.385,0.286,-107.974
 12:42:33.699,eb:33:2e:f9:57:b5, 2015-01-01 00:28:40.520,-0.004,0.007,0.999,0.061,0,0, , , , , , ,0.385,0.286,-107.974
 12:42:33.699,eb:33:2e:f9:57:b5, 2015-01-01 00:28:40.520,-0.005,0.007,0.999,0.061,0,0, , , , , , ,0.385,0.286,-107.974
 12:42:33.699,eb:33:2e:f9:57:b5, 2015-01-01 00:28:40.520,-0.005,0.007,0.999,0.061,0.061,0, , , , , , ,0.385,0.286,-107.974
 12:42:33.699,eb:33:2e:f9:57:b5, 2015-01-01 00:28:40.520,-0.005,0.007,0.999,0,0.183,0, , , , , , ,0.385,0.286,-107.974
 12:42:33.699,eb:33:2e:f9:57:b5, 2015-01-01 00:28:40.520,-0.005,0.007,0.998,0,0.183,0, , , , , , ,0.385,0.286,-107.974
 12:42:33.699,eb:33:2e:f9:57:b5, 2015-01-01 00:28:40.520,-0.006,0.007,0.998,0,0.122,-0.061, , , , , , ,0.385,0.286,-107.974
 12:42:33.720,eb:33:2e:f9:57:b5, 2015-01-01 00:28:40.520,-0.005,0.007,0.999,0,0.122,0, , , , , , ,0.385,0.286,-107.974
 12:42:33.720,eb:33:2e:f9:57:b5, 2015-01-01 00:28:40.520,-0.006,0.007,0.999,0,0.122,-0.061, , , , , , ,0.385,0.286,-107.974
 12:42:33.720,eb:33:2e:f9:57:b5, 2015-01-01 00:28:40.520,-0.006,0.005,0.999,0,0.061,0, , , , , , ,0.385,0.286,-107.974
 12:42:33.720,eb:33:2e:f9:57:b5, 2015-01-01 00:28:40.520,-0.006,0.006,0.999,0,0.061,0, , , , , , ,0.385,0.286,-107.974
 12:42:33.720,eb:33:2e:f9:57:b5, 2015-01-01 00:28:40.520,-0.006,0.006,0.999,0,0,0, , , , , , ,0.385,0.286,-107.974
 12:42:33.720,eb:33:2e:f9:57:b5, 2015-01-01 00:28:40.520,-0.005,0.006,0.999,0,0,0, , , , , , ,0.385,0.286,-107.974
 12:42:33.720,eb:33:2e:f9:57:b5, 2015-01-01 00:28:40.520,-0.006,0.006,0.999,0,-0.061,0, , , , , , ,0.385,0.286,-107.974
 12:42:33.720,eb:33:2e:f9:57:b5, 2015-01-01 00:28:40.520,-0.007,0.005,0.999,0,-0.061,0, , , , , , ,0.385,0.286,-107.974
 12:42:33.766,eb:33:2e:f9:57:b5, 2015-01-01 00:28:40.520,-0.005,0.006,1,0,-0.061,0, , , , , , ,0.385,0.286,-107.974
 12:42:33.766,eb:33:2e:f9:57:b5, 2015-01-01 00:28:40.520,-0.005,0.006,1,0,-0.061,0, , , , , , ,0.385,0.286,-107.974
 12:42:33.766,eb:33:2e:f9:57:b5, 2015-01-01 00:28:40.520,-0.006,0.005,0.999,0,-0.061,0, , , , , , ,0.385,0.286,-107.974
 12:42:33.766,eb:33:2e:f9:57:b5, 2015-01-01 00:28:40.520,-0.005,0.006,0.999,0,0,0, , , , , , ,0.385,0.286,-107.974
 12:42:33.766,eb:33:2e:f9:57:b5, 2015-01-01 00:28:40.520,-0.005,0.006,0.999,0,0,0, , , , , , ,0.385,0.286,-107.974
 12:42:33.766,eb:33:2e:f9:57:b5, 2015-01-01 00:28:40.520,-0.006,0.006,1,0,0,0, , , , , , ,0.385,0.286,-107.974
 12:42:33.766,eb:33:2e:f9:57:b5, 2015-01-01 00:28:40.520,-0.005,0.006,1,0.061,0,0, , , , , , ,0.385,0.286,-107.974
 12:42:33.766,eb:33:2e:f9:57:b5, 2015-01-01 00:28:40.520,-0.006,0.006,0.999,0.061,0,0, , , , , , ,0.385,0.286,-107.974
 12:42:33.809,eb:33:2e:f9:57:b5, 2015-01-01 00:28:40.810,-0.006,0.006,0.999,0.061,0,0, , , , , , ,0.385,0.286,-107.974
 12:42:33.809,eb:33:2e:f9:57:b5, 2015-01-01 00:28:40.810,-0.004,0.006,0.999,0,0.061,0, , , , , , ,0.385,0.286,-107.974
 12:42:33.809,eb:33:2e:f9:57:b5, 2015-01-01 00:28:40.810,-0.006,0.007,1,0,0,0, , , , , , ,0.385,0.286,-107.974
 12:42:33.812,eb:33:2e:f9:57:b5, 2015-01-01 00:28:40.810,-0.005,0.006,1,0.061,0,0, , , , , , ,0.385,0.286,-107.974
 12:42:33.813,eb:33:2e:f9:57:b5, 2015-01-01 00:28:40.810,-0.005,0.006,0.999,0,0.061,0, , , , , , ,0.385,0.286,-107.974
 12:42:33.813,eb:33:2e:f9:57:b5, 2015-01-01 00:28:40.810,-0.006,0.006,0.999,0,0.061,0, , , , , , ,0.385,0.286,-107.974
 12:42:33.813,eb:33:2e:f9:57:b5, 2015-01-01 00:28:40.810,-0.005,0.005,0.999,0.061,0.122,0, , , , , , ,0.385,0.286,-107.974
 12:42:33.813,eb:33:2e:f9:57:b5, 2015-01-01 00:28:40.810,-0.005,0.006,1,0,0.122,0, , , , , , ,0.385,0.286,-107.974
 12:42:33.855,eb:33:2e:f9:57:b5, 2015-01-01 00:28:40.810,-0.005,0.006,0.999,0,0.183,0, , , , , , ,0.385,0.286,-107.974
 12:42:33.855,eb:33:2e:f9:57:b5, 2015-01-01 00:28:40.810,-0.006,0.005,0.999,0.061,0.122,0, , , , , , ,0.385,0.286,-107.974
 12:42:33.855,eb:33:2e:f9:57:b5, 2015-01-01 00:28:40.810,-0.006,0.006,0.999,0.061,0.183,0.061, , , , , , ,0.385,0.286,-107.974
 12:42:33.855,eb:33:2e:f9:57:b5, 2015-01-01 00:28:40.810,-0.006,0.006,0.999,0,0.122,0, , , , , , ,0.385,0.286,-107.974
 12:42:33.855,eb:33:2e:f9:57:b5, 2015-01-01 00:28:40.810,-0.006,0.006,0.999,0,0.122,0, , , , , , ,0.385,0.286,-107.974
 12:42:33.855,eb:33:2e:f9:57:b5, 2015-01-01 00:28:40.810,-0.006,0.006,1,0.061,0.061,0, , , , , , ,0.385,0.286,-107.974
 12:42:33.855,eb:33:2e:f9:57:b5, 2015-01-01 00:28:40.810,-0.006,0.006,0.999,0.061,0.061,0, , , , , , ,0.385,0.286,-107.974
 12:42:33.855,eb:33:2e:f9:57:b5, 2015-01-01 00:28:40.810,-0.006,0.006,0.999,0.122,0.061,0.061, , , , , , ,0.385,0.286,-107.974
 12:42:33.901,eb:33:2e:f9:57:b5, 2015-01-01 00:28:40.810,-0.006,0.006,0.999,0.061,0,0, , , , , , ,0.385,0.286,-107.974
 12:42:33.901,eb:33:2e:f9:57:b5, 2015-01-01 00:28:40.810,-0.006,0.006,0.999,0.122,0,0.061, , , , , , ,0.385,0.286,-107.974
 12:42:33.901,eb:33:2e:f9:57:b5, 2015-01-01 00:28:40.810,-0.006,0.006,0.999,0.122,0,0, , , , , , ,0.385,0.286,-107.974
 12:42:33.901,eb:33:2e:f9:57:b5, 2015-01-01 00:28:40.810,-0.006,0.006,1,0.061,0,0.061, , , , , , ,0.385,0.286,-107.974
 12:42:33.901,eb:33:2e:f9:57:b5, 2015-01-01 00:28:40.810,-0.005,0.006,1,0.122,0.061,0, , , , , , ,0.385,0.286,-107.974
 12:42:33.901,eb:33:2e:f9:57:b5, 2015-01-01 00:28:40.810,-0.005,0.006,0.999,0.122,0.061,0.061, , , , , , ,0.385,0.286,-107.974
 12:42:33.901,eb:33:2e:f9:57:b5, 2015-01-01 00:28:40.810,-0.005,0.007,0.999,0.122,0.122,0, , , , , , ,0.385,0.286,-107.974
 12:42:33.901,eb:33:2e:f9:57:b5, 2015-01-01 00:28:40.810,-0.006,0.006,0.998,0.122,0.122,0.061, , , , , , ,0.385,0.286,-107.974
 12:42:33.923,eb:33:2e:f9:57:b5, 2015-01-01 00:28:40.810,-0.006,0.005,0.998,0.122,0.122,0.061, , , , , , ,0.385,0.286,-107.974
 12:42:33.923,eb:33:2e:f9:57:b5, 2015-01-01 00:28:40.810,-0.006,0.006,0.999,0.122,0.061,0.122, , , , , , ,0.385,0.286,-107.974
 12:42:33.923,eb:33:2e:f9:57:b5, 2015-01-01 00:28:40.810,-0.006,0.006,0.999,0.183,0.061,0.122, , , , , , ,0.385,0.286,-107.974
 12:42:33.923,eb:33:2e:f9:57:b5, 2015-01-01 00:28:40.810,-0.007,0.005,0.999,0.244,0,0.122, , , , , , ,0.385,0.286,-107.974
 12:42:33.923,eb:33:2e:f9:57:b5, 2015-01-01 00:28:40.810,-0.003,0.004,1,0.244,-0.061,0.183, , , , , , ,0.385,0.291,-107.974
 12:42:33.923,eb:33:2e:f9:57:b5, 2015-01-01 00:28:40.810,-0.005,0.006,1.001,0.305,-0.061,0.183, , , , , , ,0.385,0.291,-107.974
 12:42:33.923,eb:33:2e:f9:57:b5, 2015-01-01 00:28:40.810,-0.007,0.009,0.999,0.183,0,0.122, , , , , , ,0.385,0.286,-107.974
 12:42:33.923,eb:33:2e:f9:57:b5, 2015-01-01 00:28:40.810,-0.006,0.007,0.998,0.244,-0.061,0.122, , , , , , ,0.385,0.286,-107.974
 12:42:33.967,eb:33:2e:f9:57:b5, 2015-01-01 00:28:40.810,-0.005,0.006,1,0.244,-0.061,0.061, , , , , , ,0.385,0.291,-107.974
 12:42:33.967,eb:33:2e:f9:57:b5, 2015-01-01 00:28:40.810,-0.005,0.007,1,0.244,0,0, , , , , , ,0.385,0.291,-107.974
 12:42:33.967,eb:33:2e:f9:57:b5, 2015-01-01 00:28:40.810,-0.005,0.007,1,0.244,0.122,0.061, , , , , , ,0.385,0.291,-107.974
 12:42:33.967,eb:33:2e:f9:57:b5, 2015-01-01 00:28:40.810,-0.002,0.005,1,0.305,0.122,0.122, , , , , , ,0.385,0.291,-107.974
 12:42:33.967,eb:33:2e:f9:57:b5, 2015-01-01 00:28:40.810,-0.007,0.01,1,0.122,0.427,0, , , , , , ,0.385,0.291,-107.974
 12:42:33.967,eb:33:2e:f9:57:b5, 2015-01-01 00:28:40.810,-0.005,0.006,0.998,0.122,0.366,0, , , , , , ,0.385,0.291,-107.974
 12:42:33.967,eb:33:2e:f9:57:b5, 2015-01-01 00:28:40.810,-0.005,0.006,0.999,0.122,0.427,0, , , , , , ,0.385,0.291,-107.974
 12:42:33.967,eb:33:2e:f9:57:b5, 2015-01-01 00:28:40.810,-0.005,0.007,0.999,0.122,0.488,0.061, , , , , , ,0.385,0.291,-107.974
 12:42:34.035,eb:33:2e:f9:57:b5, 2015-01-01 00:28:40.810,-0.006,0.007,0.999,0,0.61,0, , , , , , ,0.385,0.291,-107.974
 12:42:34.035,eb:33:2e:f9:57:b5, 2015-01-01 00:28:40.810,-0.006,0.006,0.999,0,0.61,0, , , , , , ,0.385,0.291,-107.974
 12:42:34.035,eb:33:2e:f9:57:b5, 2015-01-01 00:28:40.810,-0.007,0.007,0.999,0,0.61,0.061, , , , , , ,0.385,0.291,-107.974
 12:42:34.035,eb:33:2e:f9:57:b5, 2015-01-01 00:28:40.810,-0.005,0.005,0.999,0,0.671,0.061, , , , , , ,0.385,0.291,-107.974
 12:42:34.035,eb:33:2e:f9:57:b5, 2015-01-01 00:28:40.810,-0.007,0.007,1,0,0.732,0.061, , , , , , ,0.385,0.291,-107.974
 12:42:34.035,eb:33:2e:f9:57:b5, 2015-01-01 00:28:40.810,-0.006,0.007,0.998,0,0.61,0, , , , , , ,0.385,0.291,-107.974
 12:42:34.035,eb:33:2e:f9:57:b5, 2015-01-01 00:28:40.810,-0.006,0.006,0.999,0,0.61,0, , , , , , ,0.385,0.291,-107.974
 12:42:34.035,eb:33:2e:f9:57:b5, 2015-01-01 00:28:40.810,-0.005,0.006,1,0,0.61,0, , , , , , ,0.385,0.291,-107.974
 12:42:34.057,eb:33:2e:f9:57:b5, 2015-01-01 00:28:40.810,-0.007,0.006,1,0,0.61,0, , , , , , ,0.385,0.291,-107.974
 12:42:34.057,eb:33:2e:f9:57:b5, 2015-01-01 00:28:40.810,-0.009,0.008,0.998,0,0.549,0, , , , , , ,0.385,0.291,-107.974
 12:42:34.057,eb:33:2e:f9:57:b5, 2015-01-01 00:28:40.810,-0.007,0.005,0.999,0.061,0.427,0.061, , , , , , ,0.385,0.291,-107.974
 12:42:34.057,eb:33:2e:f9:57:b5, 2015-01-01 00:28:40.810,-0.008,0.007,1,0,0.427,0, , , , , , ,0.385,0.291,-107.974
 12:42:34.057,eb:33:2e:f9:57:b5, 2015-01-01 00:28:40.810,-0.008,0.007,0.998,0,0.244,0.061, , , , , , ,0.385,0.291,-107.974
 12:42:34.057,eb:33:2e:f9:57:b5, 2015-01-01 00:28:40.810,-0.007,0.006,0.998,0,0.183,0.061, , , , , , ,0.385,0.291,-107.974
 12:42:34.058,eb:33:2e:f9:57:b5, 2015-01-01 00:28:40.810,-0.007,0.005,0.999,0.061,0.183,0, , , , , , ,0.385,0.291,-107.974
 12:42:34.058,eb:33:2e:f9:57:b5, 2015-01-01 00:28:40.810,-0.007,0.006,0.999,0.061,0.122,0, , , , , , ,0.385,0.291,-107.974
 12:42:34.106,eb:33:2e:f9:57:b5, 2015-01-01 00:28:40.810,-0.008,0.007,0.998,0.061,0.122,0, , , , , , ,0.385,0.291,-107.974
 12:42:34.106,eb:33:2e:f9:57:b5, 2015-01-01 00:28:40.810,-0.007,0.007,0.998,0.061,0.122,0, , , , , , ,0.385,0.291,-107.974
 12:42:34.106,eb:33:2e:f9:57:b5, 2015-01-01 00:28:40.810,-0.007,0.006,0.999,0.061,0.061,0, , , , , , ,0.385,0.291,-107.974
 12:42:34.106,eb:33:2e:f9:57:b5, 2015-01-01 00:28:40.810,-0.007,0.006,0.999,0.061,0.061,-0.061, , , , , , ,0.385,0.291,-107.974
 12:42:34.106,eb:33:2e:f9:57:b5, 2015-01-01 00:28:40.810,-0.005,0.006,1,0.061,0,0, , , , , , ,0.385,0.291,-107.974
 12:42:34.106,eb:33:2e:f9:57:b5, 2015-01-01 00:28:40.810,-0.006,0.007,1,0.061,0.061,0, , , , , , ,0.385,0.291,-107.974
 12:42:34.106,eb:33:2e:f9:57:b5, 2015-01-01 00:28:40.810,-0.005,0.006,1,0.122,0.244,-0.061, , , , , , ,0.385,0.291,-107.974
 12:42:34.106,eb:33:2e:f9:57:b5, 2015-01-01 00:28:40.810,-0.014,0.007,1,0.122,0.366,-0.061, , , , , , ,0.385,0.291,-107.974
 12:42:34.126,eb:33:2e:f9:57:b5, 2015-01-01 00:28:41.145,-0.01,0.006,0.995,0,0,0, , , , , , ,0.385,0.291,-107.974
 12:42:34.126,eb:33:2e:f9:57:b5, 2015-01-01 00:28:41.145,-0.007,0.007,0.997,0,-0.244,0, , , , , , ,0.385,0.291,-107.974
 12:42:34.126,eb:33:2e:f9:57:b5, 2015-01-01 00:28:41.145,-0.005,0.006,0.999,0.061,-0.305,0, , , , , , ,0.385,0.291,-107.974
 12:42:34.126,eb:33:2e:f9:57:b5, 2015-01-01 00:28:41.145,-0.005,0.007,1,0.061,-0.244,0, , , , , , ,0.385,0.291,-107.974
 12:42:34.126,eb:33:2e:f9:57:b5, 2015-01-01 00:28:41.145,-0.008,0.006,1,0.061,-0.122,0, , , , , , ,0.385,0.291,-107.974
 12:42:34.126,eb:33:2e:f9:57:b5, 2015-01-01 00:28:41.145,-0.004,0.007,0.998,0.061,-0.183,0, , , , , , ,0.385,0.291,-107.974
 12:42:34.126,eb:33:2e:f9:57:b5, 2015-01-01 00:28:41.145,-0.01,0.007,1.001,0.061,-0.061,-0.061, , , , , , ,0.385,0.291,-107.974
 12:42:34.126,eb:33:2e:f9:57:b5, 2015-01-01 00:28:41.145,-0.013,0.005,0.998,0.122,-0.305,-0.061, , , , , , ,0.385,0.291,-107.974
 12:42:34.170,eb:33:2e:f9:57:b5, 2015-01-01 00:28:41.145,-0.009,0.007,0.995,0.061,-0.732,0, , , , , , ,0.385,0.291,-107.968
 12:42:34.170,eb:33:2e:f9:57:b5, 2015-01-01 00:28:41.145,-0.003,0.006,0.998,0,-0.916,0, , , , , , ,0.385,0.291,-107.968
 12:42:34.170,eb:33:2e:f9:57:b5, 2015-01-01 00:28:41.145,0,0.006,1.002,0.122,-0.671,0, , , , , , ,0.385,0.291,-107.968
 12:42:34.170,eb:33:2e:f9:57:b5, 2015-01-01 00:28:41.145,-0.014,0.005,1.002,0.122,-0.244,-0.122, , , , , , ,0.385,0.291,-107.968
 12:42:34.170,eb:33:2e:f9:57:b5, 2015-01-01 00:28:41.145,-0.013,0.008,0.993,0.061,-0.671,0, , , , , , ,0.385,0.297,-107.968
 12:42:34.170,eb:33:2e:f9:57:b5, 2015-01-01 00:28:41.145,-0.004,0.007,0.996,0,-1.038,0, , , , , , ,0.385,0.297,-107.968
 12:42:34.170,eb:33:2e:f9:57:b5, 2015-01-01 00:28:41.145,0.002,0.005,1.001,0.061,-0.916,-0.061, , , , , , ,0.385,0.297,-107.968
 12:42:34.170,eb:33:2e:f9:57:b5, 2015-01-01 00:28:41.145,-0.01,0.005,1.004,0.061,-0.427,-0.061, , , , , , ,0.385,0.297,-107.968
 12:42:34.215,eb:33:2e:f9:57:b5, 2015-01-01 00:28:41.145,-0.009,0.007,0.996,0.061,-0.671,0, , , , , , ,0.385,0.297,-107.968
 12:42:34.215,eb:33:2e:f9:57:b5, 2015-01-01 00:28:41.145,-0.005,0.007,0.998,0.061,-0.854,0, , , , , , ,0.385,0.297,-107.968
 12:42:34.215,eb:33:2e:f9:57:b5, 2015-01-01 00:28:41.145,0.003,0.006,1,0.122,-0.793,0, , , , , , ,0.385,0.297,-107.968
 12:42:34.215,eb:33:2e:f9:57:b5, 2015-01-01 00:28:41.145,-0.012,0.006,1.004,0.183,-0.244,0, , , , , , ,0.385,0.297,-107.968
 12:42:34.215,eb:33:2e:f9:57:b5, 2015-01-01 00:28:41.145,-0.008,0.006,0.996,0.183,-0.549,0, , , , , , ,0.385,0.297,-107.968
 12:42:34.215,eb:33:2e:f9:57:b5, 2015-01-01 00:28:41.145,-0.007,0.007,0.998,0.122,-0.671,0, , , , , , ,0.385,0.297,-107.968
 12:42:34.215,eb:33:2e:f9:57:b5, 2015-01-01 00:28:41.145,-0.002,0.005,1,0.122,-0.732,0, , , , , , ,0.385,0.297,-107.968
 12:42:34.215,eb:33:2e:f9:57:b5, 2015-01-01 00:28:41.145,0,0.006,1.001,0.122,-0.61,0.061, , , , , , ,0.385,0.297,-107.968
 12:42:34.260,eb:33:2e:f9:57:b5, 2015-01-01 00:28:41.145,-0.005,0.008,1.002,0.183,-0.183,0, , , , , , ,0.385,0.297,-107.968
 12:42:34.260,eb:33:2e:f9:57:b5, 2015-01-01 00:28:41.145,-0.009,0.005,1,0.183,-0.183,0.061, , , , , , ,0.385,0.297,-107.968
 12:42:34.260,eb:33:2e:f9:57:b5, 2015-01-01 00:28:41.145,-0.008,0.007,0.997,0.122,-0.427,0, , , , , , ,0.385,0.297,-107.968
 12:42:34.261,eb:33:2e:f9:57:b5, 2015-01-01 00:28:41.145,-0.004,0.007,0.998,0.061,-0.549,0.061, , , , , , ,0.385,0.297,-107.968
 12:42:34.261,eb:33:2e:f9:57:b5, 2015-01-01 00:28:41.145,-0.002,0.006,1,0.122,-0.427,0.122, , , , , , ,0.385,0.297,-107.968
 12:42:34.261,eb:33:2e:f9:57:b5, 2015-01-01 00:28:41.145,-0.005,0.007,1,0.122,-0.305,0.122, , , , , , ,0.385,0.297,-107.968
 12:42:34.261,eb:33:2e:f9:57:b5, 2015-01-01 00:28:41.145,-0.006,0.006,1,0.122,-0.305,0.061, , , , , , ,0.385,0.297,-107.968
 12:42:34.261,eb:33:2e:f9:57:b5, 2015-01-01 00:28:41.145,-0.006,0.007,0.998,0.122,-0.366,0.061, , , , , , ,0.385,0.297,-107.968
 12:42:34.305,eb:33:2e:f9:57:b5, 2015-01-01 00:28:41.145,-0.005,0.006,0.998,0.122,-0.366,0.061, , , , , , ,0.385,0.297,-107.968
 12:42:34.305,eb:33:2e:f9:57:b5, 2015-01-01 00:28:41.145,-0.004,0.008,0.999,0.122,-0.427,0.061, , , , , , ,0.385,0.297,-107.968
 12:42:34.305,eb:33:2e:f9:57:b5, 2015-01-01 00:28:41.145,-0.004,0.007,1,0.183,-0.305,0.061, , , , , , ,0.385,0.297,-107.968
 12:42:34.305,eb:33:2e:f9:57:b5, 2015-01-01 00:28:41.145,-0.005,0.006,1,0.122,-0.183,0.061, , , , , , ,0.385,0.297,-107.968
 12:42:34.305,eb:33:2e:f9:57:b5, 2015-01-01 00:28:41.145,-0.005,0.006,0.999,0.183,-0.183,0.061, , , , , , ,0.385,0.297,-107.968
 12:42:34.305,eb:33:2e:f9:57:b5, 2015-01-01 00:28:41.145,-0.004,0.007,0.999,0.122,-0.183,0.061, , , , , , ,0.385,0.297,-107.968
 12:42:34.305,eb:33:2e:f9:57:b5, 2015-01-01 00:28:41.145,-0.004,0.006,0.999,0.122,-0.183,0, , , , , , ,0.385,0.297,-107.968
 12:42:34.305,eb:33:2e:f9:57:b5, 2015-01-01 00:28:41.145,-0.004,0.007,0.999,0.122,-0.122,0.061, , , , , , ,0.385,0.297,-107.968
 12:42:34.328,eb:33:2e:f9:57:b5, 2015-01-01 00:28:41.145,-0.005,0.007,1,0.122,0,0.061, , , , , , ,0.385,0.297,-107.968
 12:42:34.328,eb:33:2e:f9:57:b5, 2015-01-01 00:28:41.145,-0.005,0.007,0.999,0.183,0.061,0, , , , , , ,0.385,0.297,-107.968
 12:42:34.328,eb:33:2e:f9:57:b5, 2015-01-01 00:28:41.145,-0.004,0.007,0.999,0.122,0.061,0, , , , , , ,0.385,0.297,-107.968
 12:42:34.328,eb:33:2e:f9:57:b5, 2015-01-01 00:28:41.145,-0.004,0.007,0.999,0.061,0.061,-0.061, , , , , , ,0.385,0.297,-107.968
 12:42:34.328,eb:33:2e:f9:57:b5, 2015-01-01 00:28:41.145,-0.004,0.006,0.998,0.122,0.122,-0.061, , , , , , ,0.385,0.297,-107.968
 12:42:34.328,eb:33:2e:f9:57:b5, 2015-01-01 00:28:41.145,-0.004,0.007,0.998,0,0.244,0, , , , , , ,0.385,0.297,-107.968
 12:42:34.328,eb:33:2e:f9:57:b5, 2015-01-01 00:28:41.145,-0.004,0.007,0.998,0,0.305,-0.061, , , , , , ,0.385,0.297,-107.968
 12:42:34.328,eb:33:2e:f9:57:b5, 2015-01-01 00:28:41.145,-0.004,0.007,0.998,0,0.305,-0.061, , , , , , ,0.385,0.297,-107.968
 12:42:34.373,eb:33:2e:f9:57:b5, 2015-01-01 00:28:41.145,-0.005,0.007,1,0,0.366,-0.061, , , , , , ,0.385,0.297,-107.968
 12:42:34.373,eb:33:2e:f9:57:b5, 2015-01-01 00:28:41.145,-0.005,0.006,0.999,0,0.427,0, , , , , , ,0.385,0.297,-107.968
 12:42:34.373,eb:33:2e:f9:57:b5, 2015-01-01 00:28:41.145,-0.005,0.007,0.999,-0.061,0.427,-0.061, , , , , , ,0.385,0.297,-107.968
 12:42:34.373,eb:33:2e:f9:57:b5, 2015-01-01 00:28:41.145,-0.005,0.007,0.999,0,0.488,-0.122, , , , , , ,0.385,0.297,-107.968
 12:42:34.373,eb:33:2e:f9:57:b5, 2015-01-01 00:28:41.145,-0.005,0.006,0.999,-0.061,0.61,-0.122, , , , , , ,0.385,0.297,-107.968
 12:42:34.374,eb:33:2e:f9:57:b5, 2015-01-01 00:28:41.145,-0.006,0.005,0.999,0,0.61,-0.061, , , , , , ,0.385,0.297,-107.968
 12:42:34.374,eb:33:2e:f9:57:b5, 2015-01-01 00:28:41.145,-0.005,0.006,1,-0.061,0.61,-0.122, , , , , , ,0.385,0.297,-107.968
 12:42:34.374,eb:33:2e:f9:57:b5, 2015-01-01 00:28:41.145,-0.004,0.007,1,-0.061,0.61,-0.122, , , , , , ,0.385,0.297,-107.968
 12:42:34.441,eb:33:2e:f9:57:b5, 2015-01-01 00:28:41.145,-0.005,0.007,1,-0.061,0.671,-0.122, , , , , , ,0.385,0.297,-107.968
 12:42:34.441,eb:33:2e:f9:57:b5, 2015-01-01 00:28:41.145,-0.005,0.006,0.999,-0.061,0.671,-0.122, , , , , , ,0.385,0.297,-107.968
 12:42:34.441,eb:33:2e:f9:57:b5, 2015-01-01 00:28:41.145,-0.005,0.005,0.999,-0.061,0.671,-0.122, , , , , , ,0.385,0.297,-107.968
 12:42:34.441,eb:33:2e:f9:57:b5, 2015-01-01 00:28:41.145,-0.005,0.006,0.999,-0.061,0.671,-0.122, , , , , , ,0.385,0.297,-107.968
 12:42:34.442,eb:33:2e:f9:57:b5, 2015-01-01 00:28:41.145,-0.006,0.006,1,-0.061,0.732,-0.061, , , , , , ,0.385,0.297,-107.968
 12:42:34.442,eb:33:2e:f9:57:b5, 2015-01-01 00:28:41.145,-0.007,0.006,1,0,0.732,-0.061, , , , , , ,0.385,0.297,-107.968
 12:42:34.442,eb:33:2e:f9:57:b5, 2015-01-01 00:28:41.145,-0.006,0.006,0.999,0,0.61,-0.061, , , , , , ,0.385,0.297,-107.968
 12:42:34.442,eb:33:2e:f9:57:b5, 2015-01-01 00:28:41.145,-0.005,0.005,1,0,0.61,0, , , , , , ,0.385,0.297,-107.968
 12:42:34.463,eb:33:2e:f9:57:b5, 2015-01-01 00:28:41.480,-0.007,0.005,1,0,0.61,-0.061, , , , , , ,0.385,0.297,-107.968
 12:42:34.463,eb:33:2e:f9:57:b5, 2015-01-01 00:28:41.480,-0.003,0.004,1,0.122,0.549,0, , , , , , ,0.385,0.297,-107.968
 12:42:34.463,eb:33:2e:f9:57:b5, 2015-01-01 00:28:41.480,-0.007,0.007,1.001,0.122,0.671,-0.061, , , , , , ,0.385,0.297,-107.968
 12:42:34.463,eb:33:2e:f9:57:b5, 2015-01-01 00:28:41.480,-0.006,0.007,0.998,0,0.61,-0.122, , , , , , ,0.385,0.297,-107.968
 12:42:34.463,eb:33:2e:f9:57:b5, 2015-01-01 00:28:41.480,-0.006,0.006,0.998,0.061,0.549,-0.061, , , , , , ,0.385,0.297,-107.968
 12:42:34.463,eb:33:2e:f9:57:b5, 2015-01-01 00:28:41.480,-0.006,0.006,0.999,0.061,0.488,0, , , , , , ,0.385,0.297,-107.968
 12:42:34.463,eb:33:2e:f9:57:b5, 2015-01-01 00:28:41.480,-0.006,0.006,1,0.061,0.549,0, , , , , , ,0.385,0.297,-107.968
 12:42:34.463,eb:33:2e:f9:57:b5, 2015-01-01 00:28:41.480,-0.003,0.005,1,0.061,0.549,0, , , , , , ,0.385,0.297,-107.968
 12:42:34.485,eb:33:2e:f9:57:b5, 2015-01-01 00:28:41.480,-0.007,0.008,1.001,0.061,0.732,-0.061, , , , , , ,0.385,0.297,-107.968
 12:42:34.485,eb:33:2e:f9:57:b5, 2015-01-01 00:28:41.480,-0.007,0.007,0.998,0,0.732,-0.061, , , , , , ,0.385,0.297,-107.968
 12:42:34.485,eb:33:2e:f9:57:b5, 2015-01-01 00:28:41.480,-0.008,0.007,0.998,0,0.671,-0.061, , , , , , ,0.385,0.297,-107.968
 12:42:34.485,eb:33:2e:f9:57:b5, 2015-01-01 00:28:41.480,-0.006,0.007,0.998,0,0.61,-0.061, , , , , , ,0.385,0.297,-107.968
 12:42:34.485,eb:33:2e:f9:57:b5, 2015-01-01 00:28:41.480,-0.006,0.008,0.998,0,0.671,-0.122, , , , , , ,0.385,0.297,-107.968
 12:42:34.485,eb:33:2e:f9:57:b5, 2015-01-01 00:28:41.480,-0.007,0.006,0.999,0,0.671,-0.122, , , , , , ,0.385,0.297,-107.968
 12:42:34.485,eb:33:2e:f9:57:b5, 2015-01-01 00:28:41.480,-0.007,0.007,0.999,-0.061,0.671,-0.122, , , , , , ,0.385,0.297,-107.968
 12:42:34.485,eb:33:2e:f9:57:b5, 2015-01-01 00:28:41.480,-0.007,0.007,0.998,-0.061,0.671,-0.122, , , , , , ,0.385,0.297,-107.968
 12:42:34.531,eb:33:2e:f9:57:b5, 2015-01-01 00:28:41.480,-0.007,0.007,0.998,-0.122,0.671,-0.122, , , , , , ,0.385,0.297,-107.968
 12:42:34.531,eb:33:2e:f9:57:b5, 2015-01-01 00:28:41.480,-0.006,0.006,0.999,-0.183,0.61,-0.122, , , , , , ,0.385,0.297,-107.968
 12:42:34.531,eb:33:2e:f9:57:b5, 2015-01-01 00:28:41.480,-0.008,0.007,0.999,-0.183,0.671,-0.122, , , , , , ,0.385,0.297,-107.968
 12:42:34.531,eb:33:2e:f9:57:b5, 2015-01-01 00:28:41.480,-0.004,0.006,0.998,-0.183,0.61,-0.122, , , , , , ,0.385,0.297,-107.968
 12:42:34.531,eb:33:2e:f9:57:b5, 2015-01-01 00:28:41.480,-0.006,0.007,1,-0.183,0.793,-0.183, , , , , , ,0.385,0.297,-107.968
 12:42:34.531,eb:33:2e:f9:57:b5, 2015-01-01 00:28:41.480,-0.008,0.007,0.999,-0.244,0.732,-0.183, , , , , , ,0.385,0.297,-107.968
 12:42:34.531,eb:33:2e:f9:57:b5, 2015-01-01 00:28:41.480,-0.008,0.006,0.999,-0.244,0.671,-0.183, , , , , , ,0.385,0.297,-107.968
 12:42:34.531,eb:33:2e:f9:57:b5, 2015-01-01 00:28:41.480,-0.008,0.006,0.999,-0.244,0.61,-0.183, , , , , , ,0.385,0.297,-107.968
 12:42:34.574,eb:33:2e:f9:57:b5, 2015-01-01 00:28:41.480,-0.008,0.005,0.999,-0.244,0.549,-0.122, , , , , , ,0.385,0.297,-107.968
 12:42:34.574,eb:33:2e:f9:57:b5, 2015-01-01 00:28:41.480,-0.007,0.006,0.999,-0.244,0.488,-0.183, , , , , , ,0.385,0.297,-107.968
 12:42:34.574,eb:33:2e:f9:57:b5, 2015-01-01 00:28:41.480,-0.008,0.006,1,-0.183,0.427,-0.122, , , , , , ,0.385,0.297,-107.968
 12:42:34.574,eb:33:2e:f9:57:b5, 2015-01-01 00:28:41.480,-0.008,0.006,0.999,-0.183,0.488,-0.122, , , , , , ,0.385,0.297,-107.968
 12:42:34.574,eb:33:2e:f9:57:b5, 2015-01-01 00:28:41.480,-0.008,0.006,0.999,-0.122,0.305,-0.061, , , , , , ,0.385,0.297,-107.968
 12:42:34.574,eb:33:2e:f9:57:b5, 2015-01-01 00:28:41.480,-0.008,0.005,1,-0.122,0.305,-0.183, , , , , , ,0.385,0.297,-107.968
 12:42:34.574,eb:33:2e:f9:57:b5, 2015-01-01 00:28:41.480,-0.009,0.005,1,-0.122,0.122,-0.122, , , , , , ,0.385,0.297,-107.968
 12:42:34.574,eb:33:2e:f9:57:b5, 2015-01-01 00:28:41.480,-0.009,0.006,1,-0.061,0.183,-0.061, , , , , , ,0.385,0.297,-107.968
 12:42:34.642,eb:33:2e:f9:57:b5, 2015-01-01 00:28:41.480,-0.008,0.005,0.999,-0.122,0,0, , , , , , ,0.385,0.302,-107.968
 12:42:34.642,eb:33:2e:f9:57:b5, 2015-01-01 00:28:41.480,-0.008,0.005,0.999,-0.122,0,-0.061, , , , , , ,0.385,0.302,-107.968
 12:42:34.642,eb:33:2e:f9:57:b5, 2015-01-01 00:28:41.480,-0.009,0.005,0.999,-0.061,0,-0.122, , , , , , ,0.385,0.302,-107.968
 12:42:34.642,eb:33:2e:f9:57:b5, 2015-01-01 00:28:41.480,-0.008,0.005,0.998,-0.061,-0.122,-0.061, , , , , , ,0.385,0.302,-107.968
 12:42:34.642,eb:33:2e:f9:57:b5, 2015-01-01 00:28:41.480,-0.007,0.006,0.999,-0.122,-0.183,-0.061, , , , , , ,0.379,0.302,-107.968
 12:42:34.642,eb:33:2e:f9:57:b5, 2015-01-01 00:28:41.480,-0.008,0.005,1,-0.061,-0.244,-0.061, , , , , , ,0.379,0.302,-107.968
 12:42:34.642,eb:33:2e:f9:57:b5, 2015-01-01 00:28:41.480,-0.008,0.005,1,0,-0.244,0, , , , , , ,0.379,0.302,-107.968
 12:42:34.642,eb:33:2e:f9:57:b5, 2015-01-01 00:28:41.480,-0.008,0.005,1,0,-0.305,0, , , , , , ,0.379,0.302,-107.968
 12:42:34.710,eb:33:2e:f9:57:b5, 2015-01-01 00:28:41.480,-0.008,0.005,1,-0.061,-0.305,0, , , , , , ,0.379,0.302,-107.968
 12:42:34.710,eb:33:2e:f9:57:b5, 2015-01-01 00:28:41.480,-0.009,0.005,1,0,-0.427,0, , , , , , ,0.379,0.302,-107.968
 12:42:34.710,eb:33:2e:f9:57:b5, 2015-01-01 00:28:41.480,-0.008,0.005,0.999,0,-0.488,0, , , , , , ,0.379,0.302,-107.968
 12:42:34.710,eb:33:2e:f9:57:b5, 2015-01-01 00:28:41.480,-0.008,0.005,0.999,0,-0.549,0, , , , , , ,0.379,0.302,-107.968
 12:42:34.710,eb:33:2e:f9:57:b5, 2015-01-01 00:28:41.480,-0.008,0.005,0.999,0.061,-0.671,0, , , , , , ,0.379,0.302,-107.968
 12:42:34.710,eb:33:2e:f9:57:b5, 2015-01-01 00:28:41.480,-0.008,0.005,0.999,0.061,-0.732,0, , , , , , ,0.379,0.302,-107.968
 12:42:34.710,eb:33:2e:f9:57:b5, 2015-01-01 00:28:41.480,-0.007,0.005,0.998,0.061,-0.732,0, , , , , , ,0.379,0.302,-107.963
 12:42:34.710,eb:33:2e:f9:57:b5, 2015-01-01 00:28:41.480,-0.007,0.006,0.999,0.122,-0.793,0, , , , , , ,0.379,0.302,-107.963
 12:42:34.732,eb:33:2e:f9:57:b5, 2015-01-01 00:28:41.480,-0.007,0.005,0.998,0.061,-0.854,0.061, , , , , , ,0.379,0.302,-107.968
 12:42:34.732,eb:33:2e:f9:57:b5, 2015-01-01 00:28:41.480,-0.007,0.005,0.998,0.122,-0.916,0.061, , , , , , ,0.379,0.302,-107.968
 12:42:34.732,eb:33:2e:f9:57:b5, 2015-01-01 00:28:41.480,-0.007,0.005,0.999,0.061,-0.977,0.061, , , , , , ,0.379,0.302,-107.963
 12:42:34.732,eb:33:2e:f9:57:b5, 2015-01-01 00:28:41.480,-0.007,0.005,0.999,0.122,-1.038,0.061, , , , , , ,0.379,0.302,-107.963
 12:42:34.732,eb:33:2e:f9:57:b5, 2015-01-01 00:28:41.480,-0.006,0.005,1,0.183,-1.099,0.061, , , , , , ,0.379,0.302,-107.963
 12:42:34.732,eb:33:2e:f9:57:b5, 2015-01-01 00:28:41.480,-0.006,0.005,1,0.122,-1.038,0.122, , , , , , ,0.379,0.302,-107.963
 12:42:34.732,eb:33:2e:f9:57:b5, 2015-01-01 00:28:41.480,-0.006,0.005,1,0.183,-1.038,0.122, , , , , , ,0.379,0.302,-107.963
 12:42:34.732,eb:33:2e:f9:57:b5, 2015-01-01 00:28:41.480,-0.006,0.005,0.999,0.183,-1.099,0.122, , , , , , ,0.379,0.302,-107.963
 12:42:34.778,eb:33:2e:f9:57:b5, 2015-01-01 00:28:41.480,-0.005,0.005,1,0.244,-1.099,0.183, , , , , , ,0.379,0.308,-107.963
 12:42:34.778,eb:33:2e:f9:57:b5, 2015-01-01 00:28:41.480,-0.008,0.005,1,0.366,-1.038,0.183, , , , , , ,0.379,0.308,-107.963
 12:42:34.778,eb:33:2e:f9:57:b5, 2015-01-01 00:28:41.480,-0.007,0.004,0.998,0.366,-1.16,0.244, , , , , , ,0.379,0.308,-107.963
 12:42:34.778,eb:33:2e:f9:57:b5, 2015-01-01 00:28:41.480,-0.007,0.005,0.998,0.305,-1.221,0.244, , , , , , ,0.379,0.308,-107.963
 12:42:34.778,eb:33:2e:f9:57:b5, 2015-01-01 00:28:41.480,-0.005,0.006,0.999,0.305,-1.282,0.183, , , , , , ,0.379,0.308,-107.963
 12:42:34.778,eb:33:2e:f9:57:b5, 2015-01-01 00:28:41.480,-0.004,0.006,1,0.305,-1.282,0.183, , , , , , ,0.379,0.308,-107.963
 12:42:34.778,eb:33:2e:f9:57:b5, 2015-01-01 00:28:41.480,-0.005,0.007,1,0.305,-1.16,0.183, , , , , , ,0.379,0.308,-107.963
 12:42:34.779,eb:33:2e:f9:57:b5, 2015-01-01 00:28:41.480,-0.003,0.005,1,0.305,-1.099,0.183, , , , , , ,0.379,0.308,-107.963
 12:42:34.801,eb:33:2e:f9:57:b5, 2015-01-01 00:28:41.480,-0.006,0.006,1,0.305,-0.977,0.244, , , , , , ,0.379,0.308,-107.963
 12:42:34.801,eb:33:2e:f9:57:b5, 2015-01-01 00:28:41.480,-0.005,0.006,0.998,0.366,-0.977,0.183, , , , , , ,0.379,0.308,-107.963
 12:42:34.801,eb:33:2e:f9:57:b5, 2015-01-01 00:28:41.480,-0.004,0.006,0.999,0.366,-1.038,0.183, , , , , , ,0.379,0.308,-107.963
 12:42:34.801,eb:33:2e:f9:57:b5, 2015-01-01 00:28:41.480,-0.002,0.006,0.999,0.366,-0.977,0.122, , , , , , ,0.379,0.308,-107.963
 12:42:34.801,eb:33:2e:f9:57:b5, 2015-01-01 00:28:41.480,-0.003,0.006,1,0.427,-0.916,0.122, , , , , , ,0.379,0.308,-107.963
 12:42:34.801,eb:33:2e:f9:57:b5, 2015-01-01 00:28:41.480,-0.005,0.006,1,0.305,-0.793,0.183, , , , , , ,0.379,0.308,-107.963
 12:42:34.801,eb:33:2e:f9:57:b5, 2015-01-01 00:28:41.480,-0.006,0.005,0.999,0.305,-0.732,0.183, , , , , , ,0.379,0.308,-107.963
 12:42:34.801,eb:33:2e:f9:57:b5, 2015-01-01 00:28:41.480,-0.003,0.006,0.999,0.305,-0.793,0.183, , , , , , ,0.379,0.308,-107.963
 12:42:34.822,eb:33:2e:f9:57:b5, 2015-01-01 00:28:41.480,-0.004,0.006,1,0.366,-0.732,0.122, , , , , , ,0.379,0.308,-107.963
 12:42:34.822,eb:33:2e:f9:57:b5, 2015-01-01 00:28:41.480,-0.005,0.006,0.999,0.366,-0.671,0.122, , , , , , ,0.379,0.308,-107.963
 12:42:34.822,eb:33:2e:f9:57:b5, 2015-01-01 00:28:41.480,-0.004,0.006,0.998,0.366,-0.61,0.183, , , , , , ,0.379,0.308,-107.963
 12:42:34.822,eb:33:2e:f9:57:b5, 2015-01-01 00:28:41.480,-0.003,0.007,1,0.305,-0.549,0.183, , , , , , ,0.379,0.308,-107.963
 12:42:34.822,eb:33:2e:f9:57:b5, 2015-01-01 00:28:41.480,-0.005,0.006,1.001,0.305,-0.549,0.183, , , , , , ,0.379,0.308,-107.963
 12:42:34.822,eb:33:2e:f9:57:b5, 2015-01-01 00:28:41.480,-0.006,0.005,0.998,0.366,-0.488,0.183, , , , , , ,0.379,0.308,-107.963
 12:42:34.822,eb:33:2e:f9:57:b5, 2015-01-01 00:28:41.480,-0.005,0.005,0.998,0.366,-0.61,0.183, , , , , , ,0.379,0.308,-107.963
 12:42:34.822,eb:33:2e:f9:57:b5, 2015-01-01 00:28:41.480,-0.003,0.007,0.999,0.305,-0.61,0.244, , , , , , ,0.379,0.308,-107.963
 12:42:34.867,eb:33:2e:f9:57:b5, 2015-01-01 00:28:41.480,-0.003,0.006,1,0.305,-0.61,0.183, , , , , , ,0.379,0.308,-107.963
 12:42:34.867,eb:33:2e:f9:57:b5, 2015-01-01 00:28:41.480,-0.003,0.005,1,0.366,-0.61,0.183, , , , , , ,0.379,0.308,-107.963
 12:42:34.867,eb:33:2e:f9:57:b5, 2015-01-01 00:28:41.480,-0.002,0.007,1,0.366,-0.488,0.183, , , , , , ,0.379,0.308,-107.963
 12:42:34.867,eb:33:2e:f9:57:b5, 2015-01-01 00:28:41.480,-0.003,0.006,1,0.366,-0.427,0.183, , , , , , ,0.379,0.308,-107.963
 12:42:34.867,eb:33:2e:f9:57:b5, 2015-01-01 00:28:41.480,-0.007,0.008,1,0.305,-0.305,0.183, , , , , , ,0.379,0.308,-107.963
 12:42:34.867,eb:33:2e:f9:57:b5, 2015-01-01 00:28:41.480,-0.003,0.007,0.998,0.366,-0.305,0.183, , , , , , ,0.379,0.308,-107.963
 12:42:34.867,eb:33:2e:f9:57:b5, 2015-01-01 00:28:41.480,-0.002,0.007,0.999,0.366,-0.305,0.183, , , , , , ,0.379,0.308,-107.963
 12:42:34.867,eb:33:2e:f9:57:b5, 2015-01-01 00:28:41.480,-0.003,0.007,1,0.305,-0.305,0.183, , , , , , ,0.379,0.308,-107.963
 12:42:34.912,eb:33:2e:f9:57:b5, 2015-01-01 00:28:41.905,-0.002,0.007,1,0.366,-0.183,0.183, , , , , , ,0.379,0.308,-107.963
 12:42:34.912,eb:33:2e:f9:57:b5, 2015-01-01 00:28:41.905,-0.002,0.008,1,0.244,-0.122,0.183, , , , , , ,0.379,0.308,-107.963
 12:42:34.912,eb:33:2e:f9:57:b5, 2015-01-01 00:28:41.905,-0.003,0.008,0.999,0.305,-0.061,0.122, , , , , , ,0.379,0.308,-107.963
 12:42:34.912,eb:33:2e:f9:57:b5, 2015-01-01 00:28:41.905,-0.003,0.007,0.999,0.305,-0.061,0.122, , , , , , ,0.379,0.308,-107.963
 12:42:34.912,eb:33:2e:f9:57:b5, 2015-01-01 00:28:41.905,-0.002,0.006,1,0.305,0,0.122, , , , , , ,0.379,0.302,-107.963
 12:42:34.912,eb:33:2e:f9:57:b5, 2015-01-01 00:28:41.905,-0.003,0.007,1,0.244,0.061,0.122, , , , , , ,0.379,0.302,-107.963
 12:42:34.912,eb:33:2e:f9:57:b5, 2015-01-01 00:28:41.905,-0.004,0.007,1,0.244,0.061,0.061, , , , , , ,0.379,0.302,-107.963
 12:42:34.912,eb:33:2e:f9:57:b5, 2015-01-01 00:28:41.905,-0.004,0.006,0.999,0.244,0.122,0.122, , , , , , ,0.379,0.302,-107.963
 12:42:34.936,eb:33:2e:f9:57:b5, 2015-01-01 00:28:41.905,-0.004,0.007,0.999,0.244,0.183,0.122, , , , , , ,0.379,0.302,-107.963
 12:42:34.936,eb:33:2e:f9:57:b5, 2015-01-01 00:28:41.905,-0.004,0.007,0.999,0.183,0.183,0.061, , , , , , ,0.379,0.302,-107.963
 12:42:34.936,eb:33:2e:f9:57:b5, 2015-01-01 00:28:41.905,-0.005,0.006,0.999,0.183,0.183,0, , , , , , ,0.379,0.302,-107.963
 12:42:34.936,eb:33:2e:f9:57:b5, 2015-01-01 00:28:41.905,-0.004,0.007,0.999,0.122,0.183,0.061, , , , , , ,0.379,0.302,-107.963
 12:42:34.936,eb:33:2e:f9:57:b5, 2015-01-01 00:28:41.905,-0.003,0.007,0.999,0.122,0.122,0, , , , , , ,0.379,0.302,-107.963
 12:42:34.936,eb:33:2e:f9:57:b5, 2015-01-01 00:28:41.905,-0.003,0.007,1,0.122,0.183,0, , , , , , ,0.379,0.302,-107.963
 12:42:34.936,eb:33:2e:f9:57:b5, 2015-01-01 00:28:41.905,-0.003,0.007,0.999,0.061,0.183,0, , , , , , ,0.379,0.302,-107.963
 12:42:34.936,eb:33:2e:f9:57:b5, 2015-01-01 00:28:41.905,-0.003,0.006,0.999,0.061,0.183,0, , , , , , ,0.379,0.302,-107.963
 12:42:34.980,eb:33:2e:f9:57:b5, 2015-01-01 00:28:41.905,-0.004,0.007,0.999,0,0.244,0, , , , , , ,0.379,0.302,-107.963
 12:42:34.980,eb:33:2e:f9:57:b5, 2015-01-01 00:28:41.905,-0.004,0.007,0.999,0,0.305,0, , , , , , ,0.379,0.302,-107.963
 12:42:34.980,eb:33:2e:f9:57:b5, 2015-01-01 00:28:41.905,-0.004,0.007,0.999,0,0.183,-0.061, , , , , , ,0.379,0.302,-107.963
 12:42:34.980,eb:33:2e:f9:57:b5, 2015-01-01 00:28:41.905,-0.004,0.007,0.999,0,0.244,-0.061, , , , , , ,0.379,0.302,-107.963
 12:42:34.980,eb:33:2e:f9:57:b5, 2015-01-01 00:28:41.905,-0.004,0.007,0.998,0,0.183,-0.061, , , , , , ,0.379,0.302,-107.963
 12:42:34.980,eb:33:2e:f9:57:b5, 2015-01-01 00:28:41.905,-0.004,0.006,0.998,0,0.183,-0.122, , , , , , ,0.379,0.302,-107.963
 12:42:34.982,eb:33:2e:f9:57:b5, 2015-01-01 00:28:41.905,-0.004,0.006,0.999,0,0.183,0, , , , , , ,0.379,0.302,-107.963
 12:42:34.982,eb:33:2e:f9:57:b5, 2015-01-01 00:28:41.905,-0.004,0.006,0.999,0.061,0.244,-0.061, , , , , , ,0.379,0.302,-107.963
 12:42:35.025,eb:33:2e:f9:57:b5, 2015-01-01 00:28:41.905,-0.003,0.007,0.999,0,0.244,-0.061, , , , , , ,0.379,0.302,-107.963
 12:42:35.025,eb:33:2e:f9:57:b5, 2015-01-01 00:28:41.905,-0.004,0.006,0.999,0,0.305,-0.061, , , , , , ,0.379,0.302,-107.963
 12:42:35.025,eb:33:2e:f9:57:b5, 2015-01-01 00:28:41.905,-0.004,0.007,0.999,0,0.366,-0.061, , , , , , ,0.379,0.302,-107.963
 12:42:35.025,eb:33:2e:f9:57:b5, 2015-01-01 00:28:41.905,-0.003,0.007,0.999,0,0.305,-0.061, , , , , , ,0.379,0.302,-107.963
 12:42:35.025,eb:33:2e:f9:57:b5, 2015-01-01 00:28:41.905,-0.004,0.007,0.999,0,0.305,-0.061, , , , , , ,0.379,0.302,-107.963
 12:42:35.025,eb:33:2e:f9:57:b5, 2015-01-01 00:28:41.905,-0.004,0.007,0.999,0,0.305,0, , , , , , ,0.379,0.302,-107.963
 12:42:35.025,eb:33:2e:f9:57:b5, 2015-01-01 00:28:41.905,-0.004,0.007,0.999,0,0.244,0, , , , , , ,0.379,0.302,-107.963
 12:42:35.025,eb:33:2e:f9:57:b5, 2015-01-01 00:28:41.905,-0.004,0.007,0.999,0,0.244,-0.061, , , , , , ,0.379,0.302,-107.963
 12:42:35.070,eb:33:2e:f9:57:b5, 2015-01-01 00:28:41.905,-0.004,0.007,0.999,0,0.244,-0.122, , , , , , ,0.379,0.302,-107.963
 12:42:35.070,eb:33:2e:f9:57:b5, 2015-01-01 00:28:41.905,-0.004,0.007,0.999,0,0.244,-0.122, , , , , , ,0.379,0.302,-107.963
 12:42:35.070,eb:33:2e:f9:57:b5, 2015-01-01 00:28:41.905,-0.004,0.008,0.998,0,0.244,-0.122, , , , , , ,0.379,0.302,-107.963
 12:42:35.070,eb:33:2e:f9:57:b5, 2015-01-01 00:28:41.905,-0.003,0.007,0.999,0,0.244,-0.122, , , , , , ,0.379,0.302,-107.963
 12:42:35.070,eb:33:2e:f9:57:b5, 2015-01-01 00:28:41.905,-0.004,0.008,1,-0.061,0.305,-0.061, , , , , , ,0.379,0.302,-107.963
 12:42:35.070,eb:33:2e:f9:57:b5, 2015-01-01 00:28:41.905,-0.005,0.007,1,-0.061,0.366,-0.122, , , , , , ,0.379,0.302,-107.963
 12:42:35.070,eb:33:2e:f9:57:b5, 2015-01-01 00:28:41.905,-0.005,0.006,0.999,0,0.366,-0.183, , , , , , ,0.379,0.302,-107.963
 12:42:35.070,eb:33:2e:f9:57:b5, 2015-01-01 00:28:41.905,-0.005,0.006,0.999,0,0.366,-0.122, , , , , , ,0.379,0.302,-107.963
 12:42:35.092,eb:33:2e:f9:57:b5, 2015-01-01 00:28:41.905,-0.005,0.007,0.998,0,0.366,-0.122, , , , , , ,0.379,0.302,-107.963
 12:42:35.092,eb:33:2e:f9:57:b5, 2015-01-01 00:28:41.905,-0.004,0.006,0.998,-0.061,0.305,-0.183, , , , , , ,0.379,0.302,-107.963
 12:42:35.092,eb:33:2e:f9:57:b5, 2015-01-01 00:28:41.905,-0.004,0.006,1,0,0.366,-0.183, , , , , , ,0.379,0.302,-107.963
 12:42:35.092,eb:33:2e:f9:57:b5, 2015-01-01 00:28:41.905,-0.005,0.005,1,-0.061,0.305,-0.122, , , , , , ,0.379,0.302,-107.963
 12:42:35.092,eb:33:2e:f9:57:b5, 2015-01-01 00:28:41.905,-0.005,0.006,0.998,0,0.305,-0.122, , , , , , ,0.379,0.302,-107.963
 12:42:35.092,eb:33:2e:f9:57:b5, 2015-01-01 00:28:41.905,-0.003,0.006,0.998,0,0.244,-0.122, , , , , , ,0.379,0.302,-107.963
 12:42:35.092,eb:33:2e:f9:57:b5, 2015-01-01 00:28:41.905,-0.003,0.006,0.999,0,0.305,-0.122, , , , , , ,0.379,0.302,-107.963
 12:42:35.093,eb:33:2e:f9:57:b5, 2015-01-01 00:28:41.905,-0.005,0.006,1,0,0.305,-0.122, , , , , , ,0.379,0.302,-107.963
 12:42:35.138,eb:33:2e:f9:57:b5, 2015-01-01 00:28:41.905,-0.005,0.006,0.999,-0.061,0.366,-0.122, , , , , , ,0.379,0.302,-107.963
 12:42:35.138,eb:33:2e:f9:57:b5, 2015-01-01 00:28:41.905,-0.006,0.007,0.999,0,0.366,-0.122, , , , , , ,0.379,0.302,-107.963
 12:42:35.138,eb:33:2e:f9:57:b5, 2015-01-01 00:28:41.905,-0.004,0.006,0.998,0,0.305,-0.061, , , , , , ,0.379,0.302,-107.963
 12:42:35.138,eb:33:2e:f9:57:b5, 2015-01-01 00:28:41.905,-0.003,0.006,1,-0.061,0.244,-0.122, , , , , , ,0.379,0.302,-107.963
 12:42:35.138,eb:33:2e:f9:57:b5, 2015-01-01 00:28:41.905,-0.003,0.006,1,-0.061,0.366,-0.061, , , , , , ,0.379,0.302,-107.963
 12:42:35.138,eb:33:2e:f9:57:b5, 2015-01-01 00:28:41.905,-0.006,0.006,1.001,0,0.488,0, , , , , , ,0.379,0.302,-107.963
 12:42:35.139,eb:33:2e:f9:57:b5, 2015-01-01 00:28:41.905,-0.006,0.006,0.999,0,0.427,-0.061, , , , , , ,0.379,0.302,-107.963
 12:42:35.139,eb:33:2e:f9:57:b5, 2015-01-01 00:28:41.905,-0.006,0.006,1,0,0.427,-0.061, , , , , , ,0.379,0.302,-107.963
 12:42:35.182,eb:33:2e:f9:57:b5, 2015-01-01 00:28:41.905,-0.005,0.006,0.999,0,0.366,-0.061, , , , , , ,0.379,0.302,-107.963
 12:42:35.182,eb:33:2e:f9:57:b5, 2015-01-01 00:28:41.905,-0.007,0.005,0.999,0.061,0.366,-0.061, , , , , , ,0.379,0.302,-107.963
 12:42:35.182,eb:33:2e:f9:57:b5, 2015-01-01 00:28:41.905,-0.003,0.006,0.998,0,0.183,0, , , , , , ,0.379,0.302,-107.963
 12:42:35.182,eb:33:2e:f9:57:b5, 2015-01-01 00:28:41.905,-0.003,0.006,1,0,0.305,0, , , , , , ,0.379,0.302,-107.963
 12:42:35.182,eb:33:2e:f9:57:b5, 2015-01-01 00:28:41.905,-0.005,0.006,1,0,0.366,0, , , , , , ,0.379,0.302,-107.963
 12:42:35.182,eb:33:2e:f9:57:b5, 2015-01-01 00:28:41.905,-0.006,0.006,0.999,0,0.305,0, , , , , , ,0.379,0.302,-107.963
 12:42:35.182,eb:33:2e:f9:57:b5, 2015-01-01 00:28:41.905,-0.006,0.006,0.999,0,0.244,-0.061, , , , , , ,0.379,0.302,-107.963
 12:42:35.182,eb:33:2e:f9:57:b5, 2015-01-01 00:28:41.905,-0.005,0.006,0.998,0,0.183,0, , , , , , ,0.379,0.302,-107.963
 12:42:35.227,eb:33:2e:f9:57:b5, 2015-01-01 00:28:42.240,-0.006,0.007,0.999,0.061,0.122,0, , , , , , ,0.379,0.302,-107.963
 12:42:35.227,eb:33:2e:f9:57:b5, 2015-01-01 00:28:42.240,-0.006,0.006,0.999,0,0.122,-0.061, , , , , , ,0.379,0.302,-107.963
 12:42:35.227,eb:33:2e:f9:57:b5, 2015-01-01 00:28:42.240,-0.006,0.007,0.999,0,0.183,-0.061, , , , , , ,0.379,0.302,-107.963
 12:42:35.227,eb:33:2e:f9:57:b5, 2015-01-01 00:28:42.240,-0.005,0.006,0.999,0,0.061,0, , , , , , ,0.379,0.302,-107.963
 12:42:35.227,eb:33:2e:f9:57:b5, 2015-01-01 00:28:42.240,-0.005,0.007,0.999,0,0.122,0, , , , , , ,0.379,0.302,-107.963
 12:42:35.227,eb:33:2e:f9:57:b5, 2015-01-01 00:28:42.240,-0.004,0.006,1,0,0.122,0, , , , , , ,0.379,0.302,-107.963
 12:42:35.227,eb:33:2e:f9:57:b5, 2015-01-01 00:28:42.240,-0.005,0.006,1,0,0.183,-0.061, , , , , , ,0.379,0.302,-107.963
 12:42:35.227,eb:33:2e:f9:57:b5, 2015-01-01 00:28:42.240,-0.005,0.006,0.999,0,0.183,-0.061, , , , , , ,0.379,0.302,-107.963
 12:42:35.273,eb:33:2e:f9:57:b5, 2015-01-01 00:28:42.240,-0.005,0.006,1,0,0.183,-0.061, , , , , , ,0.379,0.302,-107.963
 12:42:35.273,eb:33:2e:f9:57:b5, 2015-01-01 00:28:42.240,-0.004,0.006,0.999,-0.061,0.183,0, , , , , , ,0.379,0.302,-107.963
 12:42:35.273,eb:33:2e:f9:57:b5, 2015-01-01 00:28:42.240,-0.005,0.006,0.999,0,0.244,0, , , , , , ,0.379,0.302,-107.963
 12:42:35.273,eb:33:2e:f9:57:b5, 2015-01-01 00:28:42.240,-0.005,0.006,1,0,0.244,0, , , , , , ,0.379,0.302,-107.963
 12:42:35.273,eb:33:2e:f9:57:b5, 2015-01-01 00:28:42.240,-0.005,0.007,0.999,0,0.244,0, , , , , , ,0.379,0.302,-107.963
 12:42:35.274,eb:33:2e:f9:57:b5, 2015-01-01 00:28:42.240,-0.005,0.005,0.999,0,0.305,-0.061, , , , , , ,0.379,0.302,-107.963
 12:42:35.274,eb:33:2e:f9:57:b5, 2015-01-01 00:28:42.240,-0.005,0.006,0.998,0,0.305,-0.061, , , , , , ,0.379,0.302,-107.963
 12:42:35.274,eb:33:2e:f9:57:b5, 2015-01-01 00:28:42.240,-0.006,0.006,0.999,0,0.305,-0.122, , , , , , ,0.379,0.302,-107.963
 12:42:35.296,eb:33:2e:f9:57:b5, 2015-01-01 00:28:42.240,-0.006,0.006,0.999,0,0.183,-0.122, , , , , , ,0.379,0.302,-107.963
 12:42:35.296,eb:33:2e:f9:57:b5, 2015-01-01 00:28:42.240,-0.005,0.006,0.999,0,0.244,-0.061, , , , , , ,0.379,0.302,-107.963
 12:42:35.296,eb:33:2e:f9:57:b5, 2015-01-01 00:28:42.240,-0.006,0.006,0.999,0,0.305,-0.061, , , , , , ,0.379,0.302,-107.963
 12:42:35.296,eb:33:2e:f9:57:b5, 2015-01-01 00:28:42.240,-0.006,0.006,0.999,0,0.305,-0.061, , , , , , ,0.379,0.302,-107.963
 12:42:35.296,eb:33:2e:f9:57:b5, 2015-01-01 00:28:42.240,-0.006,0.005,0.999,0,0.305,0, , , , , , ,0.379,0.302,-107.963
 12:42:35.296,eb:33:2e:f9:57:b5, 2015-01-01 00:28:42.240,-0.006,0.005,1,0.061,0.244,0, , , , , , ,0.379,0.302,-107.963
 12:42:35.296,eb:33:2e:f9:57:b5, 2015-01-01 00:28:42.240,-0.006,0.005,0.999,0.061,0.244,0, , , , , , ,0.379,0.302,-107.963
 12:42:35.296,eb:33:2e:f9:57:b5, 2015-01-01 00:28:42.240,-0.005,0.004,0.999,0.061,0.244,0, , , , , , ,0.379,0.302,-107.963
 12:42:35.339,eb:33:2e:f9:57:b5, 2015-01-01 00:28:42.240,-0.005,0.005,1,0.122,0.244,0, , , , , , ,0.379,0.302,-107.963
 12:42:35.339,eb:33:2e:f9:57:b5, 2015-01-01 00:28:42.240,-0.005,0.005,0.999,0.122,0.244,0, , , , , , ,0.379,0.302,-107.963
 12:42:35.339,eb:33:2e:f9:57:b5, 2015-01-01 00:28:42.240,-0.006,0.006,1,0.183,0.183,0.061, , , , , , ,0.379,0.302,-107.957
 12:42:35.339,eb:33:2e:f9:57:b5, 2015-01-01 00:28:42.240,-0.006,0.006,0.999,0.122,0.183,0, , , , , , ,0.379,0.302,-107.957
 12:42:35.339,eb:33:2e:f9:57:b5, 2015-01-01 00:28:42.240,-0.004,0.006,0.999,0.122,0.122,0, , , , , , ,0.379,0.302,-107.963
 12:42:35.339,eb:33:2e:f9:57:b5, 2015-01-01 00:28:42.240,-0.005,0.005,1,0.122,0.122,0, , , , , , ,0.379,0.302,-107.963
 12:42:35.339,eb:33:2e:f9:57:b5, 2015-01-01 00:28:42.240,-0.006,0.006,0.999,0.122,0.122,0.061, , , , , , ,0.379,0.302,-107.957
 12:42:35.339,eb:33:2e:f9:57:b5, 2015-01-01 00:28:42.240,-0.006,0.007,0.999,0.183,0.122,0.061, , , , , , ,0.379,0.302,-107.957
 12:42:35.386,eb:33:2e:f9:57:b5, 2015-01-01 00:28:42.240,-0.005,0.006,0.999,0.122,0.122,0.061, , , , , , ,0.379,0.302,-107.957
 12:42:35.386,eb:33:2e:f9:57:b5, 2015-01-01 00:28:42.240,-0.005,0.005,0.999,0.122,0.183,0.061, , , , , , ,0.379,0.302,-107.957
 12:42:35.386,eb:33:2e:f9:57:b5, 2015-01-01 00:28:42.240,-0.006,0.006,0.999,0.122,0.244,0, , , , , , ,0.379,0.302,-107.957
 12:42:35.386,eb:33:2e:f9:57:b5, 2015-01-01 00:28:42.240,-0.006,0.006,0.999,0.122,0.183,0, , , , , , ,0.379,0.302,-107.957
 12:42:35.386,eb:33:2e:f9:57:b5, 2015-01-01 00:28:42.240,-0.006,0.006,0.999,0.122,0.183,0, , , , , , ,0.379,0.302,-107.957
 12:42:35.386,eb:33:2e:f9:57:b5, 2015-01-01 00:28:42.240,-0.006,0.006,0.999,0.061,0.183,0, , , , , , ,0.379,0.302,-107.957
 12:42:35.386,eb:33:2e:f9:57:b5, 2015-01-01 00:28:42.240,-0.006,0.006,0.999,0,0.183,0, , , , , , ,0.379,0.302,-107.957
 12:42:35.386,eb:33:2e:f9:57:b5, 2015-01-01 00:28:42.240,-0.005,0.006,0.999,0,0.183,0, , , , , , ,0.379,0.302,-107.957
 12:42:35.431,eb:33:2e:f9:57:b5, 2015-01-01 00:28:42.240,-0.005,0.006,1,0,0.183,0, , , , , , ,0.379,0.302,-107.957
 12:42:35.431,eb:33:2e:f9:57:b5, 2015-01-01 00:28:42.240,-0.005,0.006,1,0,0.183,0, , , , , , ,0.379,0.302,-107.957
 12:42:35.431,eb:33:2e:f9:57:b5, 2015-01-01 00:28:42.240,-0.006,0.006,0.999,0,0.244,0, , , , , , ,0.379,0.302,-107.957
 12:42:35.431,eb:33:2e:f9:57:b5, 2015-01-01 00:28:42.240,-0.006,0.005,0.999,0.061,0.244,0, , , , , , ,0.379,0.302,-107.957
 12:42:35.431,eb:33:2e:f9:57:b5, 2015-01-01 00:28:42.240,-0.007,0.006,0.999,0.122,0.183,0, , , , , , ,0.379,0.302,-107.957
 12:42:35.431,eb:33:2e:f9:57:b5, 2015-01-01 00:28:42.240,-0.006,0.005,0.999,0.122,0.122,0.061, , , , , , ,0.379,0.302,-107.957
 12:42:35.431,eb:33:2e:f9:57:b5, 2015-01-01 00:28:42.240,-0.006,0.005,0.999,0.061,0.122,0, , , , , , ,0.379,0.302,-107.957
 12:42:35.431,eb:33:2e:f9:57:b5, 2015-01-01 00:28:42.240,-0.006,0.006,0.999,0.122,0.122,0.061, , , , , , ,0.379,0.302,-107.957
 12:42:35.452,eb:33:2e:f9:57:b5, 2015-01-01 00:28:42.240,-0.007,0.006,1,0.122,0.122,0.061, , , , , , ,0.379,0.302,-107.957
 12:42:35.452,eb:33:2e:f9:57:b5, 2015-01-01 00:28:42.240,-0.006,0.006,0.999,0.122,0.061,0.061, , , , , , ,0.379,0.302,-107.957
 12:42:35.452,eb:33:2e:f9:57:b5, 2015-01-01 00:28:42.240,-0.006,0.005,0.999,0.122,0,0.061, , , , , , ,0.379,0.302,-107.957
 12:42:35.452,eb:33:2e:f9:57:b5, 2015-01-01 00:28:42.240,-0.006,0.005,0.999,0.122,0,0.061, , , , , , ,0.379,0.302,-107.957
 12:42:35.452,eb:33:2e:f9:57:b5, 2015-01-01 00:28:42.240,-0.006,0.006,0.998,0.122,0,0.061, , , , , , ,0.374,0.302,-107.957
 12:42:35.452,eb:33:2e:f9:57:b5, 2015-01-01 00:28:42.240,-0.006,0.005,0.999,0.183,-0.061,0.122, , , , , , ,0.374,0.302,-107.957
 12:42:35.452,eb:33:2e:f9:57:b5, 2015-01-01 00:28:42.240,-0.006,0.006,0.999,0.122,-0.061,0.122, , , , , , ,0.374,0.302,-107.957
 12:42:35.452,eb:33:2e:f9:57:b5, 2015-01-01 00:28:42.240,-0.005,0.006,0.999,0.244,-0.061,0.122, , , , , , ,0.374,0.302,-107.957
 12:42:35.499,eb:33:2e:f9:57:b5, 2015-01-01 00:28:42.240,-0.004,0.007,1,0.183,-0.122,0.122, , , , , , ,0.374,0.302,-107.957
 12:42:35.499,eb:33:2e:f9:57:b5, 2015-01-01 00:28:42.240,-0.005,0.006,0.999,0.244,0,0.183, , , , , , ,0.374,0.302,-107.957
 12:42:35.499,eb:33:2e:f9:57:b5, 2015-01-01 00:28:42.240,-0.007,0.006,0.999,0.244,0,0.122, , , , , , ,0.374,0.302,-107.957
 12:42:35.499,eb:33:2e:f9:57:b5, 2015-01-01 00:28:42.240,-0.006,0.006,0.999,0.183,0,0.122, , , , , , ,0.374,0.302,-107.957
 12:42:35.499,eb:33:2e:f9:57:b5, 2015-01-01 00:28:42.240,-0.005,0.006,0.999,0.183,-0.061,0.122, , , , , , ,0.374,0.302,-107.957
 12:42:35.499,eb:33:2e:f9:57:b5, 2015-01-01 00:28:42.240,-0.005,0.006,0.999,0.183,-0.061,0.122, , , , , , ,0.374,0.302,-107.957
 12:42:35.499,eb:33:2e:f9:57:b5, 2015-01-01 00:28:42.240,-0.005,0.006,0.999,0.244,-0.061,0.122, , , , , , ,0.374,0.302,-107.957
 12:42:35.499,eb:33:2e:f9:57:b5, 2015-01-01 00:28:42.240,-0.006,0.006,0.999,0.183,-0.061,0.122, , , , , , ,0.374,0.302,-107.957
 12:42:35.542,eb:33:2e:f9:57:b5, 2015-01-01 00:28:42.530,-0.006,0.007,0.999,0.183,-0.061,0.122, , , , , , ,0.374,0.302,-107.957
 12:42:35.542,eb:33:2e:f9:57:b5, 2015-01-01 00:28:42.530,-0.005,0.006,1,0.183,-0.061,0.122, , , , , , ,0.374,0.302,-107.957
 12:42:35.542,eb:33:2e:f9:57:b5, 2015-01-01 00:28:42.530,-0.005,0.007,0.999,0.183,0,0.122, , , , , , ,0.374,0.302,-107.957
 12:42:35.542,eb:33:2e:f9:57:b5, 2015-01-01 00:28:42.530,-0.005,0.006,0.999,0.183,0,0.122, , , , , , ,0.374,0.302,-107.957
 12:42:35.542,eb:33:2e:f9:57:b5, 2015-01-01 00:28:42.530,-0.005,0.006,0.999,0.122,-0.061,0.122, , , , , , ,0.374,0.302,-107.957
 12:42:35.542,eb:33:2e:f9:57:b5, 2015-01-01 00:28:42.530,-0.005,0.007,0.999,0.183,0,0.122, , , , , , ,0.374,0.302,-107.957
 12:42:35.542,eb:33:2e:f9:57:b5, 2015-01-01 00:28:42.530,-0.005,0.007,0.998,0.122,-0.061,0.122, , , , , , ,0.374,0.302,-107.957
 12:42:35.542,eb:33:2e:f9:57:b5, 2015-01-01 00:28:42.530,-0.005,0.007,0.999,0.122,-0.061,0.183, , , , , , ,0.374,0.302,-107.957
 12:42:35.588,eb:33:2e:f9:57:b5, 2015-01-01 00:28:42.530,-0.005,0.006,0.999,0.183,0,0.183, , , , , , ,0.374,0.302,-107.957
 12:42:35.588,eb:33:2e:f9:57:b5, 2015-01-01 00:28:42.530,-0.006,0.006,0.999,0.183,0,0.122, , , , , , ,0.374,0.302,-107.957
 12:42:35.588,eb:33:2e:f9:57:b5, 2015-01-01 00:28:42.530,-0.006,0.006,1,0.122,0,0.122, , , , , , ,0.374,0.302,-107.957
 12:42:35.588,eb:33:2e:f9:57:b5, 2015-01-01 00:28:42.530,-0.006,0.006,0.999,0.244,0,0.061, , , , , , ,0.374,0.302,-107.957
 12:42:35.588,eb:33:2e:f9:57:b5, 2015-01-01 00:28:42.530,-0.006,0.006,0.999,0.183,0,0.122, , , , , , ,0.374,0.302,-107.957
 12:42:35.588,eb:33:2e:f9:57:b5, 2015-01-01 00:28:42.530,-0.006,0.006,1,0.183,-0.061,0.061, , , , , , ,0.374,0.302,-107.957
 12:42:35.588,eb:33:2e:f9:57:b5, 2015-01-01 00:28:42.530,-0.006,0.006,0.999,0.183,-0.061,0.122, , , , , , ,0.374,0.302,-107.957
 12:42:35.588,eb:33:2e:f9:57:b5, 2015-01-01 00:28:42.530,-0.005,0.006,0.998,0.183,-0.061,0.122, , , , , , ,0.374,0.302,-107.957
 12:42:35.632,eb:33:2e:f9:57:b5, 2015-01-01 00:28:42.530,-0.005,0.006,0.999,0.183,0,0.122, , , , , , ,0.374,0.302,-107.957
 12:42:35.632,eb:33:2e:f9:57:b5, 2015-01-01 00:28:42.530,-0.006,0.006,1,0.244,0,0.061, , , , , , ,0.374,0.302,-107.957
 12:42:35.632,eb:33:2e:f9:57:b5, 2015-01-01 00:28:42.530,-0.006,0.006,0.999,0.244,-0.061,0.122, , , , , , ,0.374,0.302,-107.957
 12:42:35.632,eb:33:2e:f9:57:b5, 2015-01-01 00:28:42.530,-0.005,0.006,1,0.183,-0.061,0.061, , , , , , ,0.374,0.302,-107.957
 12:42:35.632,eb:33:2e:f9:57:b5, 2015-01-01 00:28:42.530,-0.006,0.006,1,0.183,-0.061,0.122, , , , , , ,0.374,0.302,-107.957
 12:42:35.632,eb:33:2e:f9:57:b5, 2015-01-01 00:28:42.530,-0.005,0.006,0.999,0.183,-0.061,0.061, , , , , , ,0.374,0.302,-107.957
 12:42:35.632,eb:33:2e:f9:57:b5, 2015-01-01 00:28:42.530,-0.005,0.006,1,0.244,0,0.122, , , , , , ,0.374,0.302,-107.957
 12:42:35.632,eb:33:2e:f9:57:b5, 2015-01-01 00:28:42.530,-0.006,0.006,1,0.244,0,0.122, , , , , , ,0.374,0.302,-107.957
 12:42:35.656,eb:33:2e:f9:57:b5, 2015-01-01 00:28:42.530,-0.006,0.006,0.999,0.183,-0.061,0.122, , , , , , ,0.374,0.302,-107.957
 12:42:35.656,eb:33:2e:f9:57:b5, 2015-01-01 00:28:42.530,-0.006,0.006,0.998,0.244,-0.061,0.122, , , , , , ,0.374,0.302,-107.957
 12:42:35.656,eb:33:2e:f9:57:b5, 2015-01-01 00:28:42.530,-0.007,0.006,0.999,0.244,0,0.122, , , , , , ,0.374,0.302,-107.957
 12:42:35.656,eb:33:2e:f9:57:b5, 2015-01-01 00:28:42.530,-0.007,0.006,0.999,0.183,0,0.183, , , , , , ,0.374,0.302,-107.957
 12:42:35.656,eb:33:2e:f9:57:b5, 2015-01-01 00:28:42.530,-0.006,0.007,0.998,0.244,-0.061,0.122, , , , , , ,0.374,0.302,-107.957
 12:42:35.656,eb:33:2e:f9:57:b5, 2015-01-01 00:28:42.530,-0.006,0.007,0.998,0.183,-0.122,0.122, , , , , , ,0.374,0.302,-107.957
 12:42:35.656,eb:33:2e:f9:57:b5, 2015-01-01 00:28:42.530,-0.005,0.007,0.999,0.122,-0.061,0.061, , , , , , ,0.374,0.302,-107.957
 12:42:35.656,eb:33:2e:f9:57:b5, 2015-01-01 00:28:42.530,-0.005,0.007,0.999,0.183,-0.122,0.061, , , , , , ,0.374,0.302,-107.957
 12:42:35.700,eb:33:2e:f9:57:b5, 2015-01-01 00:28:42.530,-0.005,0.007,0.999,0.183,-0.061,0, , , , , , ,0.374,0.302,-107.957
 12:42:35.700,eb:33:2e:f9:57:b5, 2015-01-01 00:28:42.530,-0.005,0.007,1,0.183,-0.061,0, , , , , , ,0.374,0.302,-107.957
 12:42:35.700,eb:33:2e:f9:57:b5, 2015-01-01 00:28:42.530,-0.005,0.006,0.999,0.122,-0.061,0, , , , , , ,0.374,0.302,-107.957
 12:42:35.700,eb:33:2e:f9:57:b5, 2015-01-01 00:28:42.530,-0.005,0.007,0.999,0.061,0,0, , , , , , ,0.374,0.302,-107.957
 12:42:35.700,eb:33:2e:f9:57:b5, 2015-01-01 00:28:42.530,-0.005,0.007,0.999,0,0,0, , , , , , ,0.374,0.302,-107.957
 12:42:35.700,eb:33:2e:f9:57:b5, 2015-01-01 00:28:42.530,-0.005,0.007,0.999,0,0,0, , , , , , ,0.374,0.302,-107.957
 12:42:35.700,eb:33:2e:f9:57:b5, 2015-01-01 00:28:42.530,-0.005,0.007,0.999,0,0.061,0, , , , , , ,0.374,0.302,-107.957
 12:42:35.700,eb:33:2e:f9:57:b5, 2015-01-01 00:28:42.530,-0.005,0.006,0.999,0,0.122,0, , , , , , ,0.374,0.302,-107.957
 12:42:35.745,eb:33:2e:f9:57:b5, 2015-01-01 00:28:42.530,-0.005,0.006,0.999,0,0.183,0, , , , , , ,0.374,0.302,-107.957
 12:42:35.745,eb:33:2e:f9:57:b5, 2015-01-01 00:28:42.530,-0.005,0.007,0.999,0,0.183,0, , , , , , ,0.374,0.302,-107.957
 12:42:35.745,eb:33:2e:f9:57:b5, 2015-01-01 00:28:42.530,-0.005,0.006,0.999,0,0.183,0, , , , , , ,0.374,0.302,-107.957
 12:42:35.745,eb:33:2e:f9:57:b5, 2015-01-01 00:28:42.530,-0.006,0.006,0.999,0,0.183,0, , , , , , ,0.374,0.302,-107.957
 12:42:35.745,eb:33:2e:f9:57:b5, 2015-01-01 00:28:42.530,-0.006,0.006,0.999,0,0.122,0, , , , , , ,0.374,0.302,-107.957
 12:42:35.745,eb:33:2e:f9:57:b5, 2015-01-01 00:28:42.530,-0.005,0.006,0.999,0.061,0.122,0, , , , , , ,0.374,0.302,-107.957
 12:42:35.745,eb:33:2e:f9:57:b5, 2015-01-01 00:28:42.530,-0.005,0.006,0.999,0,0.122,0, , , , , , ,0.374,0.302,-107.957
 12:42:35.746,eb:33:2e:f9:57:b5, 2015-01-01 00:28:42.530,-0.006,0.006,0.999,0,0.122,0, , , , , , ,0.374,0.302,-107.957
 12:42:35.813,eb:33:2e:f9:57:b5, 2015-01-01 00:28:42.530,-0.005,0.006,0.999,0.061,0.061,0, , , , , , ,0.374,0.302,-107.957
 12:42:35.813,eb:33:2e:f9:57:b5, 2015-01-01 00:28:42.530,-0.005,0.006,0.998,0,0.061,0, , , , , , ,0.374,0.302,-107.957
 12:42:35.813,eb:33:2e:f9:57:b5, 2015-01-01 00:28:42.530,-0.005,0.007,0.998,0,0.061,-0.061, , , , , , ,0.374,0.302,-107.957
 12:42:35.813,eb:33:2e:f9:57:b5, 2015-01-01 00:28:42.530,-0.005,0.006,0.999,0,0.061,-0.061, , , , , , ,0.374,0.302,-107.957
 12:42:35.813,eb:33:2e:f9:57:b5, 2015-01-01 00:28:42.530,-0.005,0.007,1,0,0.122,0, , , , , , ,0.374,0.302,-107.957
 12:42:35.813,eb:33:2e:f9:57:b5, 2015-01-01 00:28:42.530,-0.006,0.007,0.998,0,0.183,0, , , , , , ,0.374,0.302,-107.957
 12:42:35.813,eb:33:2e:f9:57:b5, 2015-01-01 00:28:42.530,-0.006,0.007,0.999,0,0.122,-0.061, , , , , , ,0.374,0.302,-107.957
 12:42:35.813,eb:33:2e:f9:57:b5, 2015-01-01 00:28:42.530,-0.006,0.006,0.999,0,0.122,-0.061, , , , , , ,0.374,0.302,-107.957
 12:42:35.835,eb:33:2e:f9:57:b5, 2015-01-01 00:28:42.840,-0.006,0.006,0.999,0,0.122,0, , , , , , ,0.374,0.302,-107.957
 12:42:35.835,eb:33:2e:f9:57:b5, 2015-01-01 00:28:42.840,-0.006,0.007,1,0,0.122,-0.061, , , , , , ,0.374,0.302,-107.957
 12:42:35.835,eb:33:2e:f9:57:b5, 2015-01-01 00:28:42.840,-0.006,0.006,0.999,0,0.061,0, , , , , , ,0.374,0.302,-107.957
 12:42:35.835,eb:33:2e:f9:57:b5, 2015-01-01 00:28:42.840,-0.005,0.006,1,0,0.061,0, , , , , , ,0.374,0.302,-107.957
 12:42:35.835,eb:33:2e:f9:57:b5, 2015-01-01 00:28:42.840,-0.006,0.006,1,0,0.061,-0.061, , , , , , ,0.374,0.302,-107.957
 12:42:35.835,eb:33:2e:f9:57:b5, 2015-01-01 00:28:42.840,-0.006,0.006,1,0,0,0, , , , , , ,0.374,0.302,-107.957
 12:42:35.835,eb:33:2e:f9:57:b5, 2015-01-01 00:28:42.840,-0.005,0.006,1,0,0,0, , , , , , ,0.374,0.302,-107.957
 12:42:35.835,eb:33:2e:f9:57:b5, 2015-01-01 00:28:42.840,-0.005,0.006,1,0,0,-0.061, , , , , , ,0.374,0.302,-107.957
 12:42:35.857,eb:33:2e:f9:57:b5, 2015-01-01 00:28:42.840,-0.006,0.006,0.999,0,0,-0.061, , , , , , ,0.374,0.308,-107.957
 12:42:35.857,eb:33:2e:f9:57:b5, 2015-01-01 00:28:42.840,-0.005,0.006,0.999,0,0,-0.061, , , , , , ,0.374,0.308,-107.957
 12:42:35.857,eb:33:2e:f9:57:b5, 2015-01-01 00:28:42.840,-0.005,0.006,1,0,0,0, , , , , , ,0.374,0.308,-107.957
 12:42:35.857,eb:33:2e:f9:57:b5, 2015-01-01 00:28:42.840,-0.005,0.006,0.999,0,0.061,0, , , , , , ,0.374,0.308,-107.957
 12:42:35.857,eb:33:2e:f9:57:b5, 2015-01-01 00:28:42.840,-0.005,0.006,0.999,0,0.061,0, , , , , , ,0.374,0.308,-107.957
 12:42:35.857,eb:33:2e:f9:57:b5, 2015-01-01 00:28:42.840,-0.005,0.006,0.999,0,0.061,0, , , , , , ,0.374,0.308,-107.957
 12:42:35.857,eb:33:2e:f9:57:b5, 2015-01-01 00:28:42.840,-0.006,0.006,0.999,0,0.061,0, , , , , , ,0.374,0.308,-107.957
 12:42:35.857,eb:33:2e:f9:57:b5, 2015-01-01 00:28:42.840,-0.006,0.006,0.999,0,0.061,0, , , , , , ,0.374,0.308,-107.957
 12:42:35.902,eb:33:2e:f9:57:b5, 2015-01-01 00:28:42.840,-0.006,0.006,0.999,0,0,0, , , , , , ,0.374,0.308,-107.957
 12:42:35.902,eb:33:2e:f9:57:b5, 2015-01-01 00:28:42.840,-0.006,0.005,0.999,0,0,0, , , , , , ,0.374,0.308,-107.957
 12:42:35.902,eb:33:2e:f9:57:b5, 2015-01-01 00:28:42.840,-0.006,0.006,0.999,0,0,-0.061, , , , , , ,0.374,0.308,-107.957
 12:42:35.902,eb:33:2e:f9:57:b5, 2015-01-01 00:28:42.840,-0.006,0.006,0.999,0,0,0, , , , , , ,0.374,0.308,-107.957
 12:42:35.902,eb:33:2e:f9:57:b5, 2015-01-01 00:28:42.840,-0.007,0.006,0.999,0,0,0, , , , , , ,0.374,0.308,-107.957
 12:42:35.902,eb:33:2e:f9:57:b5, 2015-01-01 00:28:42.840,-0.006,0.006,0.999,0,0,0, , , , , , ,0.374,0.308,-107.957
 12:42:35.902,eb:33:2e:f9:57:b5, 2015-01-01 00:28:42.840,-0.005,0.006,0.999,0,-0.061,0, , , , , , ,0.374,0.308,-107.957
 12:42:35.902,eb:33:2e:f9:57:b5, 2015-01-01 00:28:42.840,-0.005,0.007,0.999,0,0,0, , , , , , ,0.374,0.308,-107.957
 12:42:35.948,eb:33:2e:f9:57:b5, 2015-01-01 00:28:42.840,-0.006,0.005,1,0,0,0, , , , , , ,0.374,0.308,-107.957
 12:42:35.948,eb:33:2e:f9:57:b5, 2015-01-01 00:28:42.840,-0.006,0.005,0.999,0,0,0, , , , , , ,0.374,0.308,-107.957
 12:42:35.948,eb:33:2e:f9:57:b5, 2015-01-01 00:28:42.840,-0.005,0.006,1,0,-0.061,-0.061, , , , , , ,0.374,0.308,-107.957
 12:42:35.948,eb:33:2e:f9:57:b5, 2015-01-01 00:28:42.840,-0.006,0.006,0.999,0,-0.061,0, , , , , , ,0.374,0.308,-107.957
 12:42:35.948,eb:33:2e:f9:57:b5, 2015-01-01 00:28:42.840,-0.005,0.006,1,0,0,0, , , , , , ,0.374,0.308,-107.957
 12:42:35.948,eb:33:2e:f9:57:b5, 2015-01-01 00:28:42.840,-0.005,0.006,0.999,0.061,-0.061,0, , , , , , ,0.374,0.308,-107.957
 12:42:35.948,eb:33:2e:f9:57:b5, 2015-01-01 00:28:42.840,-0.006,0.006,0.999,0.061,-0.122,0, , , , , , ,0.374,0.308,-107.957
 12:42:35.949,eb:33:2e:f9:57:b5, 2015-01-01 00:28:42.840,-0.005,0.007,1,0.061,-0.122,0, , , , , , ,0.374,0.308,-107.957
 12:42:35.992,eb:33:2e:f9:57:b5, 2015-01-01 00:28:42.840,-0.005,0.007,1,0.061,-0.061,0, , , , , , ,0.374,0.308,-107.957
 12:42:35.992,eb:33:2e:f9:57:b5, 2015-01-01 00:28:42.840,-0.006,0.006,1,0.061,0,0, , , , , , ,0.374,0.308,-107.957
 12:42:35.992,eb:33:2e:f9:57:b5, 2015-01-01 00:28:42.840,-0.006,0.006,0.999,0,-0.061,0, , , , , , ,0.374,0.308,-107.952
 12:42:35.992,eb:33:2e:f9:57:b5, 2015-01-01 00:28:42.840,-0.006,0.007,0.999,0,-0.061,0, , , , , , ,0.374,0.308,-107.952
 12:42:35.992,eb:33:2e:f9:57:b5, 2015-01-01 00:28:42.840,-0.005,0.007,0.999,0.061,0,0, , , , , , ,0.374,0.308,-107.952
 12:42:35.992,eb:33:2e:f9:57:b5, 2015-01-01 00:28:42.840,-0.005,0.006,0.999,0.061,-0.061,0, , , , , , ,0.374,0.308,-107.952
 12:42:35.992,eb:33:2e:f9:57:b5, 2015-01-01 00:28:42.840,-0.005,0.006,0.999,0.061,-0.061,0.061, , , , , , ,0.374,0.308,-107.952
 12:42:35.992,eb:33:2e:f9:57:b5, 2015-01-01 00:28:42.840,-0.005,0.006,0.999,0,0,0, , , , , , ,0.374,0.308,-107.952
 12:42:36.037,eb:33:2e:f9:57:b5, 2015-01-01 00:28:42.840,-0.006,0.006,0.999,0.061,0,0, , , , , , ,0.374,0.308,-107.952
 12:42:36.037,eb:33:2e:f9:57:b5, 2015-01-01 00:28:42.840,-0.005,0.006,1,0.122,0,0, , , , , , ,0.374,0.308,-107.952
 12:42:36.037,eb:33:2e:f9:57:b5, 2015-01-01 00:28:42.840,-0.005,0.006,1,0.061,0,0, , , , , , ,0.374,0.308,-107.952
 12:42:36.037,eb:33:2e:f9:57:b5, 2015-01-01 00:28:42.840,-0.005,0.006,1,0.061,0,0, , , , , , ,0.374,0.308,-107.952
 12:42:36.037,eb:33:2e:f9:57:b5, 2015-01-01 00:28:42.840,-0.004,0.005,0.999,0.061,0,0.061, , , , , , ,0.374,0.308,-107.952
 12:42:36.037,eb:33:2e:f9:57:b5, 2015-01-01 00:28:42.840,-0.005,0.006,0.999,0.122,0,0, , , , , , ,0.374,0.308,-107.952
 12:42:36.037,eb:33:2e:f9:57:b5, 2015-01-01 00:28:42.840,-0.005,0.006,0.999,0.061,0.061,0.061, , , , , , ,0.374,0.308,-107.952
 12:42:36.037,eb:33:2e:f9:57:b5, 2015-01-01 00:28:42.840,-0.005,0.006,0.999,0,0,0.061, , , , , , ,0.374,0.308,-107.952
 12:42:36.060,eb:33:2e:f9:57:b5, 2015-01-01 00:28:42.840,-0.006,0.006,1,0.061,0.061,0.061, , , , , , ,0.374,0.308,-107.952
 12:42:36.060,eb:33:2e:f9:57:b5, 2015-01-01 00:28:42.840,-0.007,0.006,0.999,0.122,0,0.061, , , , , , ,0.374,0.308,-107.952
 12:42:36.060,eb:33:2e:f9:57:b5, 2015-01-01 00:28:42.840,-0.006,0.005,0.999,0.122,0,0.061, , , , , , ,0.374,0.308,-107.952
 12:42:36.060,eb:33:2e:f9:57:b5, 2015-01-01 00:28:42.840,-0.005,0.006,0.999,0.122,0,0.061, , , , , , ,0.374,0.308,-107.952
 12:42:36.060,eb:33:2e:f9:57:b5, 2015-01-01 00:28:42.840,-0.005,0.005,0.999,0.122,0,0.122, , , , , , ,0.374,0.308,-107.952
 12:42:36.060,eb:33:2e:f9:57:b5, 2015-01-01 00:28:42.840,-0.006,0.005,1,0.061,0,0.061, , , , , , ,0.374,0.308,-107.952
 12:42:36.060,eb:33:2e:f9:57:b5, 2015-01-01 00:28:42.840,-0.006,0.006,0.999,0.061,0,0, , , , , , ,0.374,0.308,-107.952
 12:42:36.061,eb:33:2e:f9:57:b5, 2015-01-01 00:28:42.840,-0.005,0.007,0.999,0.122,0,0, , , , , , ,0.374,0.308,-107.952
 12:42:36.106,eb:33:2e:f9:57:b5, 2015-01-01 00:28:42.840,-0.005,0.006,0.999,0.122,0,0.061, , , , , , ,0.374,0.308,-107.952
 12:42:36.106,eb:33:2e:f9:57:b5, 2015-01-01 00:28:42.840,-0.004,0.006,0.999,0.061,0,0.122, , , , , , ,0.374,0.308,-107.952
 12:42:36.106,eb:33:2e:f9:57:b5, 2015-01-01 00:28:42.840,-0.005,0.006,0.999,0.122,0.061,0.061, , , , , , ,0.374,0.308,-107.952
 12:42:36.106,eb:33:2e:f9:57:b5, 2015-01-01 00:28:42.840,-0.005,0.007,0.998,0.122,0.061,0, , , , , , ,0.374,0.308,-107.952
 12:42:36.106,eb:33:2e:f9:57:b5, 2015-01-01 00:28:42.840,-0.005,0.006,0.999,0.122,0.122,0, , , , , , ,0.374,0.308,-107.952
 12:42:36.106,eb:33:2e:f9:57:b5, 2015-01-01 00:28:42.840,-0.006,0.006,0.998,0.122,0.122,0, , , , , , ,0.374,0.308,-107.952
 12:42:36.106,eb:33:2e:f9:57:b5, 2015-01-01 00:28:42.840,-0.006,0.006,0.999,0.122,0.061,0.061, , , , , , ,0.374,0.308,-107.952
 12:42:36.106,eb:33:2e:f9:57:b5, 2015-01-01 00:28:42.840,-0.005,0.006,1,0.061,0.122,0.061, , , , , , ,0.374,0.308,-107.952
 12:42:36.151,eb:33:2e:f9:57:b5, 2015-01-01 00:28:42.840,-0.006,0.006,1,0.122,0.122,0.061, , , , , , ,0.374,0.308,-107.952
 12:42:36.151,eb:33:2e:f9:57:b5, 2015-01-01 00:28:42.840,-0.005,0.006,0.999,0.183,0.122,0.122, , , , , , ,0.374,0.308,-107.952
 12:42:36.151,eb:33:2e:f9:57:b5, 2015-01-01 00:28:42.840,-0.006,0.006,1,0.183,0.122,0.061, , , , , , ,0.374,0.308,-107.952
 12:42:36.151,eb:33:2e:f9:57:b5, 2015-01-01 00:28:42.840,-0.006,0.006,1,0.183,0.122,0.061, , , , , , ,0.374,0.308,-107.952
 12:42:36.151,eb:33:2e:f9:57:b5, 2015-01-01 00:28:42.840,-0.007,0.006,0.999,0.183,0.122,0.061, , , , , , ,0.374,0.308,-107.952
 12:42:36.151,eb:33:2e:f9:57:b5, 2015-01-01 00:28:42.840,-0.006,0.006,0.999,0.183,0.061,0.061, , , , , , ,0.374,0.308,-107.952
 12:42:36.151,eb:33:2e:f9:57:b5, 2015-01-01 00:28:42.840,-0.006,0.005,0.999,0.183,0,0.122, , , , , , ,0.374,0.308,-107.952
 12:42:36.151,eb:33:2e:f9:57:b5, 2015-01-01 00:28:42.840,-0.006,0.006,1,0.244,0,0.122, , , , , , ,0.374,0.308,-107.952
 12:42:36.196,eb:33:2e:f9:57:b5, 2015-01-01 00:28:43.200,-0.006,0.006,0.999,0.244,0,0.183, , , , , , ,0.374,0.308,-107.952
 12:42:36.196,eb:33:2e:f9:57:b5, 2015-01-01 00:28:43.200,-0.007,0.006,1,0.244,0,0.183, , , , , , ,0.374,0.308,-107.952
 12:42:36.196,eb:33:2e:f9:57:b5, 2015-01-01 00:28:43.200,-0.006,0.007,0.999,0.244,-0.061,0.122, , , , , , ,0.374,0.308,-107.952
 12:42:36.196,eb:33:2e:f9:57:b5, 2015-01-01 00:28:43.200,-0.005,0.007,0.999,0.244,-0.122,0.122, , , , , , ,0.374,0.308,-107.952
 12:42:36.196,eb:33:2e:f9:57:b5, 2015-01-01 00:28:43.200,-0.005,0.007,0.999,0.183,-0.122,0.122, , , , , , ,0.374,0.308,-107.952
 12:42:36.196,eb:33:2e:f9:57:b5, 2015-01-01 00:28:43.200,-0.006,0.007,1,0.244,0,0.061, , , , , , ,0.374,0.308,-107.952
 12:42:36.197,eb:33:2e:f9:57:b5, 2015-01-01 00:28:43.200,-0.005,0.007,1,0.244,-0.061,0.122, , , , , , ,0.374,0.308,-107.952
 12:42:36.197,eb:33:2e:f9:57:b5, 2015-01-01 00:28:43.200,-0.005,0.007,0.999,0.183,0,0.061, , , , , , ,0.374,0.308,-107.952
 12:42:36.218,eb:33:2e:f9:57:b5, 2015-01-01 00:28:43.200,-0.005,0.007,0.999,0.183,0,0.122, , , , , , ,0.374,0.308,-107.952
 12:42:36.218,eb:33:2e:f9:57:b5, 2015-01-01 00:28:43.200,-0.005,0.007,1,0.244,0,0.122, , , , , , ,0.374,0.308,-107.952
 12:42:36.218,eb:33:2e:f9:57:b5, 2015-01-01 00:28:43.200,-0.005,0.007,1,0.183,0,0.061, , , , , , ,0.374,0.308,-107.952
 12:42:36.218,eb:33:2e:f9:57:b5, 2015-01-01 00:28:43.200,-0.005,0.006,0.999,0.183,0.061,0, , , , , , ,0.374,0.308,-107.952
 12:42:36.218,eb:33:2e:f9:57:b5, 2015-01-01 00:28:43.200,-0.006,0.006,0.999,0.183,0.061,0.061, , , , , , ,0.374,0.308,-107.952
 12:42:36.218,eb:33:2e:f9:57:b5, 2015-01-01 00:28:43.200,-0.005,0.007,0.999,0.183,0.122,0.061, , , , , , ,0.374,0.308,-107.952
 12:42:36.218,eb:33:2e:f9:57:b5, 2015-01-01 00:28:43.200,-0.005,0.007,0.999,0.244,0.061,0.061, , , , , , ,0.374,0.308,-107.952
 12:42:36.218,eb:33:2e:f9:57:b5, 2015-01-01 00:28:43.200,-0.004,0.006,1,0.183,0.183,0.122, , , , , , ,0.374,0.308,-107.952
 12:42:36.263,eb:33:2e:f9:57:b5, 2015-01-01 00:28:43.200,-0.005,0.007,0.999,0.244,0.122,0.183, , , , , , ,0.374,0.308,-107.952
 12:42:36.263,eb:33:2e:f9:57:b5, 2015-01-01 00:28:43.200,-0.006,0.007,0.998,0.244,0.122,0.122, , , , , , ,0.374,0.308,-107.952
 12:42:36.263,eb:33:2e:f9:57:b5, 2015-01-01 00:28:43.200,-0.006,0.006,0.999,0.244,0.061,0.061, , , , , , ,0.374,0.308,-107.952
 12:42:36.263,eb:33:2e:f9:57:b5, 2015-01-01 00:28:43.200,-0.006,0.007,0.999,0.244,0.061,0.122, , , , , , ,0.374,0.308,-107.952
 12:42:36.263,eb:33:2e:f9:57:b5, 2015-01-01 00:28:43.200,-0.006,0.006,0.998,0.183,0,0.122, , , , , , ,0.374,0.308,-107.952
 12:42:36.263,eb:33:2e:f9:57:b5, 2015-01-01 00:28:43.200,-0.006,0.006,0.999,0.183,0,0.122, , , , , , ,0.374,0.308,-107.952
 12:42:36.263,eb:33:2e:f9:57:b5, 2015-01-01 00:28:43.200,-0.005,0.006,1,0.183,0,0.122, , , , , , ,0.374,0.308,-107.952
 12:42:36.263,eb:33:2e:f9:57:b5, 2015-01-01 00:28:43.200,-0.006,0.006,1,0.244,0,0.061, , , , , , ,0.374,0.308,-107.952
 12:42:36.307,eb:33:2e:f9:57:b5, 2015-01-01 00:28:43.200,-0.005,0.007,0.999,0.244,0,0.061, , , , , , ,0.374,0.308,-107.952
 12:42:36.307,eb:33:2e:f9:57:b5, 2015-01-01 00:28:43.200,-0.004,0.006,0.999,0.183,0,0.061, , , , , , ,0.374,0.308,-107.952
 12:42:36.307,eb:33:2e:f9:57:b5, 2015-01-01 00:28:43.200,-0.006,0.006,0.999,0.183,0,0, , , , , , ,0.374,0.308,-107.952
 12:42:36.307,eb:33:2e:f9:57:b5, 2015-01-01 00:28:43.200,-0.005,0.006,0.999,0.183,0,0.061, , , , , , ,0.374,0.308,-107.952
 12:42:36.307,eb:33:2e:f9:57:b5, 2015-01-01 00:28:43.200,-0.005,0.007,0.999,0.183,0,0.061, , , , , , ,0.374,0.308,-107.952
 12:42:36.307,eb:33:2e:f9:57:b5, 2015-01-01 00:28:43.200,-0.005,0.007,0.999,0.183,0,0.122, , , , , , ,0.374,0.308,-107.952
 12:42:36.307,eb:33:2e:f9:57:b5, 2015-01-01 00:28:43.200,-0.005,0.007,0.999,0.244,0,0.122, , , , , , ,0.374,0.308,-107.952
 12:42:36.307,eb:33:2e:f9:57:b5, 2015-01-01 00:28:43.200,-0.005,0.008,0.999,0.244,0,0.061, , , , , , ,0.374,0.308,-107.952
 12:42:36.353,eb:33:2e:f9:57:b5, 2015-01-01 00:28:43.200,-0.006,0.008,0.999,0.183,-0.061,0, , , , , , ,0.374,0.308,-107.952
 12:42:36.353,eb:33:2e:f9:57:b5, 2015-01-01 00:28:43.200,-0.005,0.007,0.999,0.122,0,0.061, , , , , , ,0.374,0.308,-107.952
 12:42:36.353,eb:33:2e:f9:57:b5, 2015-01-01 00:28:43.200,-0.006,0.007,0.998,0.122,0,0, , , , , , ,0.374,0.308,-107.952
 12:42:36.353,eb:33:2e:f9:57:b5, 2015-01-01 00:28:43.200,-0.005,0.007,0.999,0.122,0,0, , , , , , ,0.374,0.308,-107.952
 12:42:36.353,eb:33:2e:f9:57:b5, 2015-01-01 00:28:43.200,-0.004,0.007,0.999,0.061,0,0, , , , , , ,0.374,0.308,-107.952
 12:42:36.353,eb:33:2e:f9:57:b5, 2015-01-01 00:28:43.200,-0.005,0.007,0.999,0.061,0.061,0, , , , , , ,0.374,0.308,-107.952
 12:42:36.353,eb:33:2e:f9:57:b5, 2015-01-01 00:28:43.200,-0.005,0.006,1,0.122,0.061,0.061, , , , , , ,0.374,0.308,-107.952
 12:42:36.353,eb:33:2e:f9:57:b5, 2015-01-01 00:28:43.200,-0.005,0.007,1,0.122,0.122,0, , , , , , ,0.374,0.308,-107.952
 12:42:36.398,eb:33:2e:f9:57:b5, 2015-01-01 00:28:43.200,-0.005,0.006,0.999,0.122,0.183,0, , , , , , ,0.374,0.308,-107.952
 12:42:36.398,eb:33:2e:f9:57:b5, 2015-01-01 00:28:43.200,-0.006,0.007,0.999,0.061,0.122,0, , , , , , ,0.374,0.308,-107.952
 12:42:36.398,eb:33:2e:f9:57:b5, 2015-01-01 00:28:43.200,-0.006,0.007,0.999,0.122,0.122,0.061, , , , , , ,0.374,0.308,-107.952
 12:42:36.398,eb:33:2e:f9:57:b5, 2015-01-01 00:28:43.200,-0.006,0.006,0.999,0.122,0,0, , , , , , ,0.374,0.308,-107.952
 12:42:36.398,eb:33:2e:f9:57:b5, 2015-01-01 00:28:43.200,-0.005,0.007,0.999,0.122,0,0, , , , , , ,0.374,0.308,-107.952
 12:42:36.398,eb:33:2e:f9:57:b5, 2015-01-01 00:28:43.200,-0.006,0.006,0.999,0.183,0,0, , , , , , ,0.374,0.308,-107.952
 12:42:36.398,eb:33:2e:f9:57:b5, 2015-01-01 00:28:43.200,-0.006,0.006,0.998,0.183,0,0, , , , , , ,0.374,0.308,-107.952
 12:42:36.398,eb:33:2e:f9:57:b5, 2015-01-01 00:28:43.200,-0.006,0.006,0.999,0.183,0,0, , , , , , ,0.374,0.308,-107.952
 12:42:36.420,eb:33:2e:f9:57:b5, 2015-01-01 00:28:43.200,-0.006,0.007,0.999,0.122,0,0, , , , , , ,0.374,0.308,-107.952
 12:42:36.420,eb:33:2e:f9:57:b5, 2015-01-01 00:28:43.200,-0.005,0.007,0.999,0.122,0,0, , , , , , ,0.374,0.308,-107.952
 12:42:36.420,eb:33:2e:f9:57:b5, 2015-01-01 00:28:43.200,-0.005,0.007,0.999,0.122,-0.061,0, , , , , , ,0.374,0.308,-107.952
 12:42:36.420,eb:33:2e:f9:57:b5, 2015-01-01 00:28:43.200,-0.005,0.007,0.999,0.061,-0.061,0, , , , , , ,0.374,0.308,-107.952
 12:42:36.420,eb:33:2e:f9:57:b5, 2015-01-01 00:28:43.200,-0.006,0.007,0.999,0.122,0,0, , , , , , ,0.374,0.308,-107.952
 12:42:36.420,eb:33:2e:f9:57:b5, 2015-01-01 00:28:43.200,-0.005,0.007,0.999,0.122,-0.061,0.061, , , , , , ,0.374,0.308,-107.952
 12:42:36.420,eb:33:2e:f9:57:b5, 2015-01-01 00:28:43.200,-0.006,0.007,1,0.122,0,0, , , , , , ,0.374,0.308,-107.952
 12:42:36.420,eb:33:2e:f9:57:b5, 2015-01-01 00:28:43.200,-0.005,0.007,1,0.061,0,0, , , , , , ,0.374,0.308,-107.952
 12:42:36.465,eb:33:2e:f9:57:b5, 2015-01-01 00:28:43.200,-0.005,0.008,0.998,0.122,0,0, , , , , , ,0.374,0.308,-107.952
 12:42:36.465,eb:33:2e:f9:57:b5, 2015-01-01 00:28:43.200,-0.005,0.007,0.999,0.061,0,0, , , , , , ,0.374,0.308,-107.952
 12:42:36.465,eb:33:2e:f9:57:b5, 2015-01-01 00:28:43.200,-0.005,0.007,0.999,0.061,0,0, , , , , , ,0.374,0.308,-107.952
 12:42:36.466,eb:33:2e:f9:57:b5, 2015-01-01 00:28:43.200,-0.005,0.007,0.999,0.061,0,0, , , , , , ,0.374,0.308,-107.952
 12:42:36.466,eb:33:2e:f9:57:b5, 2015-01-01 00:28:43.200,-0.006,0.006,0.999,0.061,0,0, , , , , , ,0.374,0.308,-107.952
 12:42:36.466,eb:33:2e:f9:57:b5, 2015-01-01 00:28:43.200,-0.006,0.007,0.999,0,0,0, , , , , , ,0.374,0.308,-107.952
 12:42:36.466,eb:33:2e:f9:57:b5, 2015-01-01 00:28:43.200,-0.006,0.007,0.999,0.061,-0.061,-0.061, , , , , , ,0.374,0.308,-107.952
 12:42:36.466,eb:33:2e:f9:57:b5, 2015-01-01 00:28:43.200,-0.005,0.007,0.999,0,0,0, , , , , , ,0.374,0.308,-107.952
 12:42:36.510,eb:33:2e:f9:57:b5, 2015-01-01 00:28:43.490,-0.006,0.007,0.999,0,0,0, , , , , , ,0.374,0.308,-107.952
 12:42:36.510,eb:33:2e:f9:57:b5, 2015-01-01 00:28:43.490,-0.005,0.007,0.999,0,0,-0.061, , , , , , ,0.374,0.308,-107.952
 12:42:36.510,eb:33:2e:f9:57:b5, 2015-01-01 00:28:43.490,-0.005,0.006,0.999,0,0,-0.061, , , , , , ,0.374,0.308,-107.952
 12:42:36.510,eb:33:2e:f9:57:b5, 2015-01-01 00:28:43.490,-0.006,0.007,0.999,0,0,-0.061, , , , , , ,0.374,0.308,-107.952
 12:42:36.510,eb:33:2e:f9:57:b5, 2015-01-01 00:28:43.490,-0.005,0.006,0.999,0,0,-0.061, , , , , , ,0.374,0.308,-107.952
 12:42:36.510,eb:33:2e:f9:57:b5, 2015-01-01 00:28:43.490,-0.006,0.007,1,0,0,-0.061, , , , , , ,0.374,0.308,-107.952
 12:42:36.510,eb:33:2e:f9:57:b5, 2015-01-01 00:28:43.490,-0.004,0.007,0.999,0,0,0, , , , , , ,0.374,0.308,-107.952
 12:42:36.511,eb:33:2e:f9:57:b5, 2015-01-01 00:28:43.490,-0.005,0.007,1,0,0,0, , , , , , ,0.374,0.308,-107.952
 12:42:36.554,eb:33:2e:f9:57:b5, 2015-01-01 00:28:43.490,-0.005,0.006,1,0,0,0, , , , , , ,0.374,0.308,-107.952
 12:42:36.554,eb:33:2e:f9:57:b5, 2015-01-01 00:28:43.490,-0.005,0.007,0.999,0.061,0,0, , , , , , ,0.374,0.308,-107.952
 12:42:36.554,eb:33:2e:f9:57:b5, 2015-01-01 00:28:43.490,-0.006,0.007,0.999,0,0,0, , , , , , ,0.374,0.308,-107.952
 12:42:36.554,eb:33:2e:f9:57:b5, 2015-01-01 00:28:43.490,-0.006,0.007,0.999,0.061,0,0, , , , , , ,0.374,0.308,-107.952
 12:42:36.554,eb:33:2e:f9:57:b5, 2015-01-01 00:28:43.490,-0.006,0.007,1,0.061,-0.061,0, , , , , , ,0.374,0.308,-107.952
 12:42:36.554,eb:33:2e:f9:57:b5, 2015-01-01 00:28:43.490,-0.005,0.007,0.999,0.061,0,0, , , , , , ,0.374,0.308,-107.952
 12:42:36.554,eb:33:2e:f9:57:b5, 2015-01-01 00:28:43.490,-0.005,0.007,0.998,0,0,0, , , , , , ,0.374,0.308,-107.952
 12:42:36.555,eb:33:2e:f9:57:b5, 2015-01-01 00:28:43.490,-0.006,0.008,0.999,0,0,0, , , , , , ,0.374,0.308,-107.952
 12:42:36.599,eb:33:2e:f9:57:b5, 2015-01-01 00:28:43.490,-0.005,0.006,0.998,0,0,0, , , , , , ,0.374,0.308,-107.946
 12:42:36.600,eb:33:2e:f9:57:b5, 2015-01-01 00:28:43.490,-0.004,0.007,0.999,0.061,0,0, , , , , , ,0.374,0.308,-107.946
 12:42:36.600,eb:33:2e:f9:57:b5, 2015-01-01 00:28:43.490,-0.004,0.007,0.999,0,0,0, , , , , , ,0.374,0.308,-107.946
 12:42:36.600,eb:33:2e:f9:57:b5, 2015-01-01 00:28:43.490,-0.005,0.007,1,0,0.061,0, , , , , , ,0.374,0.308,-107.946
 12:42:36.600,eb:33:2e:f9:57:b5, 2015-01-01 00:28:43.490,-0.005,0.007,1,0,0.061,-0.061, , , , , , ,0.374,0.308,-107.946
 12:42:36.600,eb:33:2e:f9:57:b5, 2015-01-01 00:28:43.490,-0.004,0.007,0.999,0,0.061,-0.061, , , , , , ,0.374,0.308,-107.946
 12:42:36.600,eb:33:2e:f9:57:b5, 2015-01-01 00:28:43.490,-0.004,0.007,0.999,0,0.122,-0.061, , , , , , ,0.374,0.308,-107.946
 12:42:36.600,eb:33:2e:f9:57:b5, 2015-01-01 00:28:43.490,-0.004,0.007,0.999,0,0.122,-0.061, , , , , , ,0.374,0.308,-107.946
 12:42:36.623,eb:33:2e:f9:57:b5, 2015-01-01 00:28:43.490,-0.005,0.007,0.999,0,0.183,-0.061, , , , , , ,0.374,0.308,-107.946
 12:42:36.623,eb:33:2e:f9:57:b5, 2015-01-01 00:28:43.490,-0.005,0.007,0.999,-0.061,0.183,-0.061, , , , , , ,0.374,0.308,-107.946
 12:42:36.623,eb:33:2e:f9:57:b5, 2015-01-01 00:28:43.490,-0.006,0.007,0.999,-0.061,0.183,-0.061, , , , , , ,0.374,0.308,-107.946
 12:42:36.623,eb:33:2e:f9:57:b5, 2015-01-01 00:28:43.490,-0.006,0.006,0.999,-0.061,0.183,-0.061, , , , , , ,0.374,0.308,-107.946
 12:42:36.623,eb:33:2e:f9:57:b5, 2015-01-01 00:28:43.490,-0.005,0.007,0.999,-0.061,0.183,-0.122, , , , , , ,0.379,0.308,-107.946
 12:42:36.623,eb:33:2e:f9:57:b5, 2015-01-01 00:28:43.490,-0.005,0.007,0.999,-0.061,0.183,-0.122, , , , , , ,0.379,0.308,-107.946
 12:42:36.623,eb:33:2e:f9:57:b5, 2015-01-01 00:28:43.490,-0.005,0.007,0.999,-0.061,0.244,-0.061, , , , , , ,0.379,0.308,-107.946
 12:42:36.623,eb:33:2e:f9:57:b5, 2015-01-01 00:28:43.490,-0.004,0.006,0.999,-0.061,0.244,-0.122, , , , , , ,0.379,0.308,-107.946
 12:42:36.668,eb:33:2e:f9:57:b5, 2015-01-01 00:28:43.490,-0.005,0.006,1,-0.122,0.244,-0.122, , , , , , ,0.379,0.308,-107.946
 12:42:36.668,eb:33:2e:f9:57:b5, 2015-01-01 00:28:43.490,-0.005,0.007,0.999,-0.122,0.244,-0.122, , , , , , ,0.379,0.308,-107.946
 12:42:36.668,eb:33:2e:f9:57:b5, 2015-01-01 00:28:43.490,-0.006,0.006,1,-0.122,0.183,-0.122, , , , , , ,0.379,0.308,-107.946
 12:42:36.668,eb:33:2e:f9:57:b5, 2015-01-01 00:28:43.490,-0.006,0.006,0.999,-0.061,0.183,-0.122, , , , , , ,0.379,0.308,-107.946
 12:42:36.668,eb:33:2e:f9:57:b5, 2015-01-01 00:28:43.490,-0.007,0.007,0.999,-0.061,0.183,-0.061, , , , , , ,0.379,0.308,-107.946
 12:42:36.668,eb:33:2e:f9:57:b5, 2015-01-01 00:28:43.490,-0.005,0.006,0.999,-0.061,0.183,-0.122, , , , , , ,0.379,0.308,-107.946
 12:42:36.668,eb:33:2e:f9:57:b5, 2015-01-01 00:28:43.490,-0.006,0.006,0.999,-0.061,0.183,-0.122, , , , , , ,0.379,0.308,-107.946
 12:42:36.668,eb:33:2e:f9:57:b5, 2015-01-01 00:28:43.490,-0.006,0.006,1,-0.061,0.183,-0.061, , , , , , ,0.379,0.308,-107.946
 12:42:36.713,eb:33:2e:f9:57:b5, 2015-01-01 00:28:43.490,-0.005,0.005,0.999,0,0.122,-0.122, , , , , , ,0.379,0.308,-107.946
 12:42:36.713,eb:33:2e:f9:57:b5, 2015-01-01 00:28:43.490,-0.006,0.006,0.999,-0.061,0.183,-0.061, , , , , , ,0.379,0.308,-107.946
 12:42:36.713,eb:33:2e:f9:57:b5, 2015-01-01 00:28:43.490,-0.006,0.006,0.999,0,0.061,-0.061, , , , , , ,0.379,0.308,-107.946
 12:42:36.713,eb:33:2e:f9:57:b5, 2015-01-01 00:28:43.490,-0.006,0.006,0.999,0,0.061,-0.061, , , , , , ,0.379,0.308,-107.946
 12:42:36.713,eb:33:2e:f9:57:b5, 2015-01-01 00:28:43.490,-0.006,0.005,0.999,0,0.061,0, , , , , , ,0.374,0.308,-107.946
 12:42:36.713,eb:33:2e:f9:57:b5, 2015-01-01 00:28:43.490,-0.007,0.007,0.999,0,0,-0.061, , , , , , ,0.374,0.308,-107.946
 12:42:36.713,eb:33:2e:f9:57:b5, 2015-01-01 00:28:43.490,-0.007,0.006,0.999,0,0,-0.061, , , , , , ,0.374,0.308,-107.946
 12:42:36.713,eb:33:2e:f9:57:b5, 2015-01-01 00:28:43.490,-0.006,0.005,0.998,0,0,-0.061, , , , , , ,0.374,0.308,-107.946
 12:42:36.759,eb:33:2e:f9:57:b5, 2015-01-01 00:28:43.490,-0.004,0.005,0.998,0,0,0, , , , , , ,0.374,0.308,-107.946
 12:42:36.759,eb:33:2e:f9:57:b5, 2015-01-01 00:28:43.490,-0.005,0.006,0.999,-0.061,0,-0.122, , , , , , ,0.374,0.308,-107.946
 12:42:36.759,eb:33:2e:f9:57:b5, 2015-01-01 00:28:43.490,-0.006,0.006,1,0,0,-0.061, , , , , , ,0.374,0.308,-107.946
 12:42:36.759,eb:33:2e:f9:57:b5, 2015-01-01 00:28:43.490,-0.005,0.005,0.999,0,0,0, , , , , , ,0.374,0.308,-107.946
 12:42:36.760,eb:33:2e:f9:57:b5, 2015-01-01 00:28:43.490,-0.004,0.006,1,0,0,0, , , , , , ,0.374,0.308,-107.946
 12:42:36.760,eb:33:2e:f9:57:b5, 2015-01-01 00:28:43.490,-0.005,0.006,1,0,0,0, , , , , , ,0.374,0.308,-107.946
 12:42:36.760,eb:33:2e:f9:57:b5, 2015-01-01 00:28:43.490,-0.006,0.006,1,0,0,0, , , , , , ,0.374,0.308,-107.946
 12:42:36.760,eb:33:2e:f9:57:b5, 2015-01-01 00:28:43.490,-0.006,0.005,0.999,0,0,0, , , , , , ,0.374,0.308,-107.946
 12:42:36.802,eb:33:2e:f9:57:b5, 2015-01-01 00:28:43.800,-0.005,0.006,0.999,0,0,0, , , , , , ,0.374,0.308,-107.946
 12:42:36.802,eb:33:2e:f9:57:b5, 2015-01-01 00:28:43.800,-0.006,0.006,0.999,0,0.122,0, , , , , , ,0.374,0.308,-107.946
 12:42:36.802,eb:33:2e:f9:57:b5, 2015-01-01 00:28:43.800,-0.007,0.006,1,0.061,0.061,0, , , , , , ,0.374,0.308,-107.946
 12:42:36.802,eb:33:2e:f9:57:b5, 2015-01-01 00:28:43.800,-0.006,0.006,0.999,0.061,0,0, , , , , , ,0.374,0.308,-107.946
 12:42:36.802,eb:33:2e:f9:57:b5, 2015-01-01 00:28:43.800,-0.005,0.005,0.999,0.122,-0.061,0, , , , , , ,0.374,0.308,-107.946
 12:42:36.802,eb:33:2e:f9:57:b5, 2015-01-01 00:28:43.800,-0.005,0.005,1,0.061,0,0.061, , , , , , ,0.374,0.308,-107.946
 12:42:36.802,eb:33:2e:f9:57:b5, 2015-01-01 00:28:43.800,-0.006,0.006,1,0.122,0,0, , , , , , ,0.374,0.308,-107.946
 12:42:36.802,eb:33:2e:f9:57:b5, 2015-01-01 00:28:43.800,-0.006,0.007,0.999,0.122,0,0, , , , , , ,0.374,0.308,-107.946
 12:42:36.825,eb:33:2e:f9:57:b5, 2015-01-01 00:28:43.800,-0.006,0.006,0.999,0.122,0,0.061, , , , , , ,0.374,0.308,-107.946
 12:42:36.825,eb:33:2e:f9:57:b5, 2015-01-01 00:28:43.800,-0.006,0.006,1,0.183,-0.061,0.061, , , , , , ,0.374,0.308,-107.946
 12:42:36.825,eb:33:2e:f9:57:b5, 2015-01-01 00:28:43.800,-0.006,0.006,0.999,0.183,0,0.122, , , , , , ,0.374,0.308,-107.946
 12:42:36.825,eb:33:2e:f9:57:b5, 2015-01-01 00:28:43.800,-0.005,0.006,1,0.122,0,0.061, , , , , , ,0.374,0.308,-107.946
 12:42:36.825,eb:33:2e:f9:57:b5, 2015-01-01 00:28:43.800,-0.006,0.006,0.999,0.183,0,0, , , , , , ,0.374,0.308,-107.946
 12:42:36.825,eb:33:2e:f9:57:b5, 2015-01-01 00:28:43.800,-0.007,0.006,0.999,0.183,0,0.061, , , , , , ,0.374,0.308,-107.946
 12:42:36.825,eb:33:2e:f9:57:b5, 2015-01-01 00:28:43.800,-0.006,0.006,0.998,0.183,-0.122,0.061, , , , , , ,0.374,0.308,-107.946
 12:42:36.825,eb:33:2e:f9:57:b5, 2015-01-01 00:28:43.800,-0.005,0.006,0.998,0.183,-0.061,0.061, , , , , , ,0.374,0.308,-107.946
 12:42:36.871,eb:33:2e:f9:57:b5, 2015-01-01 00:28:43.800,-0.006,0.007,0.999,0.183,-0.061,0, , , , , , ,0.374,0.313,-107.946
 12:42:36.871,eb:33:2e:f9:57:b5, 2015-01-01 00:28:43.800,-0.006,0.007,0.999,0.122,0,0, , , , , , ,0.374,0.313,-107.946
 12:42:36.871,eb:33:2e:f9:57:b5, 2015-01-01 00:28:43.800,-0.006,0.007,0.999,0.122,0,0, , , , , , ,0.374,0.313,-107.946
 12:42:36.871,eb:33:2e:f9:57:b5, 2015-01-01 00:28:43.800,-0.006,0.006,0.999,0.122,0,0.061, , , , , , ,0.374,0.313,-107.946
 12:42:36.871,eb:33:2e:f9:57:b5, 2015-01-01 00:28:43.800,-0.005,0.006,0.999,0.122,0,0, , , , , , ,0.374,0.313,-107.946
 12:42:36.871,eb:33:2e:f9:57:b5, 2015-01-01 00:28:43.800,-0.006,0.006,0.998,0.122,0,0.061, , , , , , ,0.374,0.313,-107.946
 12:42:36.871,eb:33:2e:f9:57:b5, 2015-01-01 00:28:43.800,-0.006,0.006,0.999,0.122,0,0.061, , , , , , ,0.374,0.313,-107.946
 12:42:36.871,eb:33:2e:f9:57:b5, 2015-01-01 00:28:43.800,-0.005,0.006,0.999,0.122,0,0, , , , , , ,0.374,0.313,-107.946
 12:42:36.917,eb:33:2e:f9:57:b5, 2015-01-01 00:28:43.800,-0.006,0.006,1,0.122,0,0.061, , , , , , ,0.374,0.313,-107.946
 12:42:36.917,eb:33:2e:f9:57:b5, 2015-01-01 00:28:43.800,-0.004,0.006,0.999,0.061,-0.061,0.061, , , , , , ,0.374,0.313,-107.946
 12:42:36.917,eb:33:2e:f9:57:b5, 2015-01-01 00:28:43.800,-0.004,0.007,1,0.122,0,0.061, , , , , , ,0.374,0.313,-107.946
 12:42:36.917,eb:33:2e:f9:57:b5, 2015-01-01 00:28:43.800,-0.004,0.006,0.999,0.122,0,0.061, , , , , , ,0.374,0.313,-107.946
 12:42:36.917,eb:33:2e:f9:57:b5, 2015-01-01 00:28:43.800,-0.006,0.007,1,0.122,0,0.061, , , , , , ,0.374,0.313,-107.946
 12:42:36.917,eb:33:2e:f9:57:b5, 2015-01-01 00:28:43.800,-0.005,0.006,1,0.122,0,0, , , , , , ,0.374,0.313,-107.946
 12:42:36.917,eb:33:2e:f9:57:b5, 2015-01-01 00:28:43.800,-0.005,0.007,0.999,0.122,0,0, , , , , , ,0.374,0.313,-107.946
 12:42:36.917,eb:33:2e:f9:57:b5, 2015-01-01 00:28:43.800,-0.005,0.007,0.998,0.122,0,0, , , , , , ,0.374,0.313,-107.946
 12:42:36.960,eb:33:2e:f9:57:b5, 2015-01-01 00:28:43.800,-0.006,0.006,0.999,0.122,0,0, , , , , , ,0.374,0.313,-107.946
 12:42:36.960,eb:33:2e:f9:57:b5, 2015-01-01 00:28:43.800,-0.006,0.006,0.999,0.122,0.122,0, , , , , , ,0.374,0.313,-107.946
 12:42:36.960,eb:33:2e:f9:57:b5, 2015-01-01 00:28:43.800,-0.005,0.005,0.999,0.061,0.122,0, , , , , , ,0.374,0.313,-107.946
 12:42:36.960,eb:33:2e:f9:57:b5, 2015-01-01 00:28:43.800,-0.006,0.006,0.999,0.183,0.122,0, , , , , , ,0.374,0.313,-107.946
 12:42:36.960,eb:33:2e:f9:57:b5, 2015-01-01 00:28:43.800,-0.006,0.005,0.999,0.122,0.122,0, , , , , , ,0.374,0.313,-107.946
 12:42:36.960,eb:33:2e:f9:57:b5, 2015-01-01 00:28:43.800,-0.006,0.005,0.999,0.183,0.061,0.061, , , , , , ,0.374,0.313,-107.946
 12:42:36.960,eb:33:2e:f9:57:b5, 2015-01-01 00:28:43.800,-0.006,0.006,0.999,0.183,0.061,0.061, , , , , , ,0.374,0.313,-107.946
 12:42:36.960,eb:33:2e:f9:57:b5, 2015-01-01 00:28:43.800,-0.006,0.005,0.999,0.122,0,0.061, , , , , , ,0.374,0.313,-107.946
 12:42:36.983,eb:33:2e:f9:57:b5, 2015-01-01 00:28:43.800,-0.006,0.006,0.999,0.122,0,0.061, , , , , , ,0.374,0.313,-107.946
 12:42:36.983,eb:33:2e:f9:57:b5, 2015-01-01 00:28:43.800,-0.006,0.006,0.999,0.183,0,0.061, , , , , , ,0.374,0.313,-107.946
 12:42:36.983,eb:33:2e:f9:57:b5, 2015-01-01 00:28:43.800,-0.006,0.006,0.999,0.183,-0.061,0.061, , , , , , ,0.374,0.313,-107.946
 12:42:36.983,eb:33:2e:f9:57:b5, 2015-01-01 00:28:43.800,-0.005,0.006,0.998,0.183,-0.061,0.122, , , , , , ,0.374,0.313,-107.946
 12:42:36.983,eb:33:2e:f9:57:b5, 2015-01-01 00:28:43.800,-0.005,0.006,0.999,0.061,-0.122,0.122, , , , , , ,0.374,0.313,-107.946
 12:42:36.983,eb:33:2e:f9:57:b5, 2015-01-01 00:28:43.800,-0.005,0.007,1,0.122,0,0.061, , , , , , ,0.374,0.313,-107.946
 12:42:36.983,eb:33:2e:f9:57:b5, 2015-01-01 00:28:43.800,-0.004,0.006,0.999,0.122,0,0, , , , , , ,0.374,0.313,-107.946
 12:42:36.983,eb:33:2e:f9:57:b5, 2015-01-01 00:28:43.800,-0.005,0.006,0.999,0.183,0,0.061, , , , , , ,0.374,0.313,-107.946
 12:42:37.028,eb:33:2e:f9:57:b5, 2015-01-01 00:28:43.800,-0.005,0.006,0.999,0.183,0,0.061, , , , , , ,0.374,0.313,-107.946
 12:42:37.028,eb:33:2e:f9:57:b5, 2015-01-01 00:28:43.800,-0.005,0.006,0.999,0.183,0.061,0.061, , , , , , ,0.374,0.313,-107.946
 12:42:37.028,eb:33:2e:f9:57:b5, 2015-01-01 00:28:43.800,-0.005,0.007,0.999,0.183,0,0.061, , , , , , ,0.374,0.313,-107.946
 12:42:37.028,eb:33:2e:f9:57:b5, 2015-01-01 00:28:43.800,-0.005,0.006,0.999,0.183,0.061,0, , , , , , ,0.374,0.313,-107.946
 12:42:37.028,eb:33:2e:f9:57:b5, 2015-01-01 00:28:43.800,-0.006,0.007,0.998,0.122,0.061,0.061, , , , , , ,0.374,0.313,-107.946
 12:42:37.028,eb:33:2e:f9:57:b5, 2015-01-01 00:28:43.800,-0.006,0.007,0.998,0.122,0.061,0, , , , , , ,0.374,0.313,-107.946
 12:42:37.028,eb:33:2e:f9:57:b5, 2015-01-01 00:28:43.800,-0.005,0.006,0.998,0.122,0.061,0.061, , , , , , ,0.374,0.313,-107.946
 12:42:37.028,eb:33:2e:f9:57:b5, 2015-01-01 00:28:43.800,-0.005,0.008,0.999,0.122,0.061,0, , , , , , ,0.374,0.313,-107.946
 12:42:37.073,eb:33:2e:f9:57:b5, 2015-01-01 00:28:43.800,-0.006,0.007,0.999,0.061,0.061,0, , , , , , ,0.374,0.313,-107.946
 12:42:37.073,eb:33:2e:f9:57:b5, 2015-01-01 00:28:43.800,-0.005,0.007,0.999,0.061,0.061,0, , , , , , ,0.374,0.313,-107.946
 12:42:37.073,eb:33:2e:f9:57:b5, 2015-01-01 00:28:43.800,-0.005,0.006,0.999,0.061,0.061,0, , , , , , ,0.374,0.313,-107.946
 12:42:37.073,eb:33:2e:f9:57:b5, 2015-01-01 00:28:43.800,-0.005,0.006,1,0.061,0.061,0, , , , , , ,0.374,0.313,-107.946
 12:42:37.073,eb:33:2e:f9:57:b5, 2015-01-01 00:28:43.800,-0.006,0.006,1,0.061,0.122,0.061, , , , , , ,0.374,0.313,-107.946
 12:42:37.073,eb:33:2e:f9:57:b5, 2015-01-01 00:28:43.800,-0.006,0.007,0.999,0.061,0.122,0, , , , , , ,0.374,0.313,-107.946
 12:42:37.073,eb:33:2e:f9:57:b5, 2015-01-01 00:28:43.800,-0.006,0.007,0.999,0.061,0,0.061, , , , , , ,0.374,0.313,-107.946
 12:42:37.073,eb:33:2e:f9:57:b5, 2015-01-01 00:28:43.800,-0.005,0.006,0.999,0.061,0.061,0, , , , , , ,0.374,0.313,-107.946
 12:42:37.117,eb:33:2e:f9:57:b5, 2015-01-01 00:28:44.115,-0.006,0.007,0.999,0.061,0,0, , , , , , ,0.374,0.313,-107.946
 12:42:37.117,eb:33:2e:f9:57:b5, 2015-01-01 00:28:44.115,-0.006,0.006,0.999,0.122,0,0, , , , , , ,0.374,0.313,-107.946
 12:42:37.117,eb:33:2e:f9:57:b5, 2015-01-01 00:28:44.115,-0.005,0.006,1,0.061,0,0, , , , , , ,0.374,0.313,-107.946
 12:42:37.117,eb:33:2e:f9:57:b5, 2015-01-01 00:28:44.115,-0.005,0.006,1,0.122,0,0.061, , , , , , ,0.374,0.313,-107.946
 12:42:37.117,eb:33:2e:f9:57:b5, 2015-01-01 00:28:44.115,-0.005,0.006,1,0.122,0,0, , , , , , ,0.374,0.313,-107.946
 12:42:37.117,eb:33:2e:f9:57:b5, 2015-01-01 00:28:44.115,-0.005,0.006,1,0.122,0,0, , , , , , ,0.374,0.313,-107.946
 12:42:37.117,eb:33:2e:f9:57:b5, 2015-01-01 00:28:44.115,-0.005,0.007,0.999,0.122,0,0, , , , , , ,0.374,0.313,-107.946
 12:42:37.117,eb:33:2e:f9:57:b5, 2015-01-01 00:28:44.115,-0.006,0.007,0.999,0.183,0.061,0.061, , , , , , ,0.374,0.313,-107.946
 12:42:37.163,eb:33:2e:f9:57:b5, 2015-01-01 00:28:44.115,-0.005,0.007,0.999,0.183,0,0.061, , , , , , ,0.374,0.313,-107.946
 12:42:37.163,eb:33:2e:f9:57:b5, 2015-01-01 00:28:44.115,-0.005,0.007,0.999,0.183,0,0, , , , , , ,0.374,0.313,-107.946
 12:42:37.163,eb:33:2e:f9:57:b5, 2015-01-01 00:28:44.115,-0.005,0.007,1,0.122,0,0, , , , , , ,0.374,0.313,-107.946
 12:42:37.163,eb:33:2e:f9:57:b5, 2015-01-01 00:28:44.115,-0.006,0.007,0.999,0.122,0.061,0, , , , , , ,0.374,0.313,-107.946
 12:42:37.163,eb:33:2e:f9:57:b5, 2015-01-01 00:28:44.115,-0.006,0.007,1,0.122,0,0, , , , , , ,0.374,0.313,-107.946
 12:42:37.163,eb:33:2e:f9:57:b5, 2015-01-01 00:28:44.115,-0.006,0.006,1,0.122,0.061,0.061, , , , , , ,0.374,0.313,-107.946
 12:42:37.163,eb:33:2e:f9:57:b5, 2015-01-01 00:28:44.115,-0.006,0.006,1,0.061,0.061,0, , , , , , ,0.374,0.313,-107.946
 12:42:37.163,eb:33:2e:f9:57:b5, 2015-01-01 00:28:44.115,-0.006,0.006,0.999,0.061,0.061,0.061, , , , , , ,0.374,0.313,-107.946
 12:42:37.185,eb:33:2e:f9:57:b5, 2015-01-01 00:28:44.115,-0.006,0.006,0.999,0.122,0.061,0.061, , , , , , ,0.374,0.313,-107.946
 12:42:37.185,eb:33:2e:f9:57:b5, 2015-01-01 00:28:44.115,-0.005,0.006,0.999,0.122,0.122,0, , , , , , ,0.374,0.313,-107.946
 12:42:37.185,eb:33:2e:f9:57:b5, 2015-01-01 00:28:44.115,-0.005,0.006,0.999,0.183,0.122,0.061, , , , , , ,0.374,0.313,-107.946
 12:42:37.185,eb:33:2e:f9:57:b5, 2015-01-01 00:28:44.115,-0.005,0.007,0.999,0.122,0.122,0, , , , , , ,0.374,0.313,-107.946
 12:42:37.185,eb:33:2e:f9:57:b5, 2015-01-01 00:28:44.115,-0.005,0.007,0.999,0.122,0.122,0, , , , , , ,0.374,0.313,-107.946
 12:42:37.185,eb:33:2e:f9:57:b5, 2015-01-01 00:28:44.115,-0.005,0.007,0.999,0.183,0.183,0, , , , , , ,0.374,0.313,-107.946
 12:42:37.185,eb:33:2e:f9:57:b5, 2015-01-01 00:28:44.115,-0.005,0.007,0.999,0.183,0.122,0, , , , , , ,0.374,0.313,-107.946
 12:42:37.185,eb:33:2e:f9:57:b5, 2015-01-01 00:28:44.115,-0.005,0.006,0.999,0.122,0.183,0, , , , , , ,0.374,0.313,-107.946
 12:42:37.229,eb:33:2e:f9:57:b5, 2015-01-01 00:28:44.115,-0.006,0.007,1,0.061,0.183,0, , , , , , ,0.374,0.313,-107.946
 12:42:37.229,eb:33:2e:f9:57:b5, 2015-01-01 00:28:44.115,-0.006,0.007,0.999,0.122,0.183,0.061, , , , , , ,0.374,0.313,-107.946
 12:42:37.229,eb:33:2e:f9:57:b5, 2015-01-01 00:28:44.115,-0.005,0.006,1,0.061,0.122,0.061, , , , , , ,0.374,0.313,-107.946
 12:42:37.229,eb:33:2e:f9:57:b5, 2015-01-01 00:28:44.115,-0.006,0.006,0.999,0.061,0.122,0.061, , , , , , ,0.374,0.313,-107.946
 12:42:37.229,eb:33:2e:f9:57:b5, 2015-01-01 00:28:44.115,-0.006,0.007,0.999,0.122,0.122,0.061, , , , , , ,0.374,0.313,-107.941
 12:42:37.229,eb:33:2e:f9:57:b5, 2015-01-01 00:28:44.115,-0.006,0.006,0.998,0.122,0.122,0.061, , , , , , ,0.374,0.313,-107.941
 12:42:37.229,eb:33:2e:f9:57:b5, 2015-01-01 00:28:44.115,-0.005,0.006,0.999,0.122,0.061,0.061, , , , , , ,0.374,0.313,-107.941
 12:42:37.229,eb:33:2e:f9:57:b5, 2015-01-01 00:28:44.115,-0.006,0.006,1,0.122,0,0.061, , , , , , ,0.374,0.313,-107.941
 12:42:37.275,eb:33:2e:f9:57:b5, 2015-01-01 00:28:44.115,-0.005,0.007,0.999,0.122,0,0.122, , , , , , ,0.374,0.313,-107.941
 12:42:37.275,eb:33:2e:f9:57:b5, 2015-01-01 00:28:44.115,-0.005,0.007,1,0.183,0,0.061, , , , , , ,0.374,0.313,-107.941
 12:42:37.275,eb:33:2e:f9:57:b5, 2015-01-01 00:28:44.115,-0.006,0.007,0.999,0.122,0,0, , , , , , ,0.374,0.313,-107.941
 12:42:37.275,eb:33:2e:f9:57:b5, 2015-01-01 00:28:44.115,-0.006,0.007,0.999,0.122,0.061,0.122, , , , , , ,0.374,0.313,-107.941
 12:42:37.275,eb:33:2e:f9:57:b5, 2015-01-01 00:28:44.115,-0.006,0.007,0.999,0.122,0,0.122, , , , , , ,0.374,0.313,-107.941
 12:42:37.275,eb:33:2e:f9:57:b5, 2015-01-01 00:28:44.115,-0.006,0.007,0.998,0.183,0,0.122, , , , , , ,0.374,0.313,-107.941
 12:42:37.275,eb:33:2e:f9:57:b5, 2015-01-01 00:28:44.115,-0.005,0.007,0.999,0.122,0,0.122, , , , , , ,0.374,0.313,-107.941
 12:42:37.275,eb:33:2e:f9:57:b5, 2015-01-01 00:28:44.115,-0.006,0.007,0.999,0.183,0,0.061, , , , , , ,0.374,0.313,-107.941
 12:42:37.320,eb:33:2e:f9:57:b5, 2015-01-01 00:28:44.115,-0.007,0.007,0.999,0.122,0,0.122, , , , , , ,0.374,0.313,-107.941
 12:42:37.320,eb:33:2e:f9:57:b5, 2015-01-01 00:28:44.115,-0.006,0.007,0.999,0.183,0,0.061, , , , , , ,0.374,0.313,-107.941
