Time,Device name,Chip Time(),Acceleration X(g),Acceleration Y(g),Acceleration Z(g),Angular velocity X(°/s),Angular velocity Y(°/s),Angular velocity Z(°/s),ShiftX(mm),ShiftY(mm),ShiftZ(mm),SpeedX(mm/s),SpeedY(mm/s),SpeedZ(mm/s),Angle X(°),Angle Y(°),Angle Z(°)
 12:45:40.587,eb:33:2e:f9:57:b5, 2015-01-01 00:31:45.935,-0.047,0.064,0.994,2.747,-4.15,1.709, , , , , , ,3.565,1.225,-111.709
 12:45:40.587,eb:33:2e:f9:57:b5, 2015-01-01 00:31:45.935,-0.043,0.064,0.991,2.625,-4.944,1.77, , , , , , ,3.576,1.203,-111.703
 12:45:40.587,eb:33:2e:f9:57:b5, 2015-01-01 00:31:45.935,-0.04,0.063,0.995,2.808,-5.432,1.831, , , , , , ,3.593,1.176,-111.698
 12:45:40.587,eb:33:2e:f9:57:b5, 2015-01-01 00:31:45.935,-0.041,0.063,0.998,2.869,-5.554,1.831, , , , , , ,3.604,1.148,-111.687
 12:45:40.588,eb:33:2e:f9:57:b5, 2015-01-01 00:31:45.935,-0.041,0.063,0.997,2.991,-5.737,1.831, , , , , , ,3.62,1.121,-111.682
 12:45:40.588,eb:33:2e:f9:57:b5, 2015-01-01 00:31:45.935,-0.039,0.063,0.997,3.113,-5.92,1.831, , , , , , ,3.636,1.088,-111.671
 12:45:40.588,eb:33:2e:f9:57:b5, 2015-01-01 00:31:45.935,-0.037,0.066,0.996,3.174,-6.165,1.77, , , , , , ,3.647,1.06,-111.665
 12:45:40.588,eb:33:2e:f9:57:b5, 2015-01-01 00:31:45.935,-0.035,0.066,0.996,3.174,-6.226,1.648, , , , , , ,3.664,1.027,-111.66
 12:45:40.590,eb:33:2e:f9:57:b5, 2015-01-01 00:31:45.935,-0.033,0.066,0.997,3.235,-6.287,1.648, , , , , , ,3.68,0.994,-111.654
 12:45:40.590,eb:33:2e:f9:57:b5, 2015-01-01 00:31:45.935,-0.032,0.066,1,3.235,-6.104,1.526, , , , , , ,3.697,0.961,-111.649
 12:45:40.590,eb:33:2e:f9:57:b5, 2015-01-01 00:31:45.935,-0.035,0.068,0.998,3.235,-6.042,1.404, , , , , , ,3.713,0.934,-111.643
 12:45:40.590,eb:33:2e:f9:57:b5, 2015-01-01 00:31:45.935,-0.033,0.069,0.994,3.174,-6.348,1.404, , , , , , ,3.73,0.901,-111.638
 12:45:40.590,eb:33:2e:f9:57:b5, 2015-01-01 00:31:45.935,-0.029,0.071,0.995,3.174,-6.531,1.404, , , , , , ,3.741,0.868,-111.632
 12:45:40.590,eb:33:2e:f9:57:b5, 2015-01-01 00:31:45.935,-0.026,0.069,0.999,3.052,-6.348,1.16, , , , , , ,3.757,0.835,-111.627
 12:45:40.590,eb:33:2e:f9:57:b5, 2015-01-01 00:31:45.935,-0.025,0.069,1,2.991,-5.981,0.916, , , , , , ,3.774,0.802,-111.627
 12:45:40.590,eb:33:2e:f9:57:b5, 2015-01-01 00:31:45.935,-0.029,0.07,0.999,2.991,-5.554,0.854, , , , , , ,3.785,0.775,-111.621
 12:45:40.590,eb:33:2e:f9:57:b5, 2015-01-01 00:31:45.935,-0.028,0.071,0.996,2.991,-5.432,0.61, , , , , , ,3.801,0.747,-111.621
 12:45:40.590,eb:33:2e:f9:57:b5, 2015-01-01 00:31:45.935,-0.025,0.072,0.997,2.869,-5.188,0.488, , , , , , ,3.812,0.72,-111.621
 12:45:40.590,eb:33:2e:f9:57:b5, 2015-01-01 00:31:45.935,-0.023,0.071,0.999,2.808,-4.761,0.366, , , , , , ,3.829,0.692,-111.621
 12:45:40.591,eb:33:2e:f9:57:b5, 2015-01-01 00:31:45.935,-0.023,0.07,0.999,2.747,-4.272,0.244, , , , , , ,3.84,0.67,-111.621
 12:45:40.591,eb:33:2e:f9:57:b5, 2015-01-01 00:31:45.935,-0.023,0.072,1,2.625,-3.784,0, , , , , , ,3.856,0.648,-111.621
 12:45:40.591,eb:33:2e:f9:57:b5, 2015-01-01 00:31:45.935,-0.024,0.074,0.999,2.502,-3.296,-0.122, , , , , , ,3.867,0.632,-111.621
 12:45:40.591,eb:33:2e:f9:57:b5, 2015-01-01 00:31:45.935,-0.023,0.074,0.998,2.38,-2.869,-0.244, , , , , , ,3.878,0.621,-111.627
 12:45:40.591,eb:33:2e:f9:57:b5, 2015-01-01 00:31:45.935,-0.018,0.074,0.999,2.197,-2.441,-0.366, , , , , , ,3.889,0.604,-111.627
 12:45:40.656,eb:33:2e:f9:57:b5, 2015-01-01 00:31:45.935,-0.017,0.076,1.001,2.075,-1.587,-0.488, , , , , , ,3.9,0.593,-111.632
 12:45:40.656,eb:33:2e:f9:57:b5, 2015-01-01 00:31:45.935,-0.02,0.076,1.003,1.831,-0.549,-0.854, , , , , , ,3.906,0.593,-111.632
 12:45:40.656,eb:33:2e:f9:57:b5, 2015-01-01 00:31:45.935,-0.021,0.076,1,1.648,0.244,-1.038, , , , , , ,3.917,0.588,-111.638
 12:45:40.656,eb:33:2e:f9:57:b5, 2015-01-01 00:31:45.935,-0.021,0.074,1,1.526,0.916,-0.977, , , , , , ,3.922,0.593,-111.643
 12:45:40.656,eb:33:2e:f9:57:b5, 2015-01-01 00:31:45.935,-0.019,0.076,1,1.404,1.526,-1.16, , , , , , ,3.928,0.599,-111.649
 12:45:40.656,eb:33:2e:f9:57:b5, 2015-01-01 00:31:45.935,-0.017,0.076,1.001,1.16,2.319,-1.282, , , , , , ,3.933,0.61,-111.654
 12:45:40.656,eb:33:2e:f9:57:b5, 2015-01-01 00:31:45.935,-0.021,0.076,1.003,0.977,3.418,-1.404, , , , , , ,3.939,0.626,-111.66
 12:45:40.656,eb:33:2e:f9:57:b5, 2015-01-01 00:31:45.935,-0.026,0.073,1.001,0.916,4.272,-1.526, , , , , , ,3.944,0.648,-111.671
 12:45:40.656,eb:33:2e:f9:57:b5, 2015-01-01 00:31:45.935,-0.028,0.071,1,0.916,4.761,-1.526, , , , , , ,3.944,0.67,-111.676
 12:45:40.657,eb:33:2e:f9:57:b5, 2015-01-01 00:31:45.935,-0.027,0.071,0.999,0.916,5.005,-1.465, , , , , , ,3.95,0.698,-111.682
 12:45:40.657,eb:33:2e:f9:57:b5, 2015-01-01 00:31:45.935,-0.029,0.07,1.001,0.916,5.371,-1.343, , , , , , ,3.955,0.725,-111.687
 12:45:40.657,eb:33:2e:f9:57:b5, 2015-01-01 00:31:45.935,-0.031,0.068,1.002,1.16,5.798,-1.343, , , , , , ,3.961,0.753,-111.693
 12:45:40.657,eb:33:2e:f9:57:b5, 2015-01-01 00:31:45.935,-0.034,0.067,1.001,1.404,6.042,-1.16, , , , , , ,3.966,0.78,-111.693
 12:45:40.657,eb:33:2e:f9:57:b5, 2015-01-01 00:31:45.935,-0.039,0.068,1,1.587,6.226,-0.977, , , , , , ,3.972,0.813,-111.698
 12:45:40.657,eb:33:2e:f9:57:b5, 2015-01-01 00:31:45.935,-0.043,0.066,0.999,1.831,6.165,-0.732, , , , , , ,3.977,0.846,-111.703
 12:45:40.657,eb:33:2e:f9:57:b5, 2015-01-01 00:31:45.935,-0.042,0.063,0.997,2.197,5.615,-0.244, , , , , , ,3.988,0.873,-111.703
 12:45:40.722,eb:33:2e:f9:57:b5, 2015-01-01 00:31:45.935,-0.041,0.066,0.997,2.563,5.066,0.122, , , , , , ,3.999,0.901,-111.698
 12:45:40.722,eb:33:2e:f9:57:b5, 2015-01-01 00:31:45.935,-0.041,0.067,0.998,2.747,4.822,0.427, , , , , , ,4.016,0.923,-111.698
 12:45:40.724,eb:33:2e:f9:57:b5, 2015-01-01 00:31:45.935,-0.045,0.067,0.997,3.052,4.456,0.732, , , , , , ,4.026,0.95,-111.693
 12:45:40.724,eb:33:2e:f9:57:b5, 2015-01-01 00:31:45.935,-0.046,0.067,0.994,3.296,3.906,1.099, , , , , , ,4.043,0.967,-111.687
 12:45:40.724,eb:33:2e:f9:57:b5, 2015-01-01 00:31:45.935,-0.043,0.066,0.994,3.54,3.296,1.465, , , , , , ,4.059,0.983,-111.676
 12:45:40.724,eb:33:2e:f9:57:b5, 2015-01-01 00:31:45.935,-0.039,0.067,0.996,3.784,2.869,1.831, , , , , , ,4.076,1,-111.671
 12:45:40.724,eb:33:2e:f9:57:b5, 2015-01-01 00:31:45.935,-0.038,0.068,1,4.089,2.869,2.136, , , , , , ,4.098,1.016,-111.66
 12:45:40.724,eb:33:2e:f9:57:b5, 2015-01-01 00:31:45.935,-0.04,0.07,0.999,4.395,2.869,2.319, , , , , , ,4.12,1.027,-111.643
 12:45:40.724,eb:33:2e:f9:57:b5, 2015-01-01 00:31:45.935,-0.038,0.069,0.999,4.639,2.869,2.686, , , , , , ,4.142,1.038,-111.632
 12:45:40.724,eb:33:2e:f9:57:b5, 2015-01-01 00:31:45.935,-0.038,0.072,0.998,4.761,2.808,2.747, , , , , , ,4.164,1.055,-111.616
 12:45:40.724,eb:33:2e:f9:57:b5, 2015-01-01 00:31:45.935,-0.04,0.073,0.998,4.944,2.625,2.991, , , , , , ,4.186,1.066,-111.599
 12:45:40.725,eb:33:2e:f9:57:b5, 2015-01-01 00:31:45.935,-0.04,0.073,0.998,5.127,2.502,3.052, , , , , , ,4.213,1.077,-111.583
 12:45:40.725,eb:33:2e:f9:57:b5, 2015-01-01 00:31:45.935,-0.042,0.074,0.998,5.371,2.197,3.052, , , , , , ,4.235,1.088,-111.572
 12:45:40.725,eb:33:2e:f9:57:b5, 2015-01-01 00:31:45.935,-0.039,0.072,0.997,5.615,1.892,3.113, , , , , , ,4.263,1.099,-111.555
 12:45:40.725,eb:33:2e:f9:57:b5, 2015-01-01 00:31:45.935,-0.038,0.075,1,5.798,1.831,3.296, , , , , , ,4.296,1.104,-111.539
 12:45:40.725,eb:33:2e:f9:57:b5, 2015-01-01 00:31:45.935,-0.042,0.075,1,6.042,1.831,3.296, , , , , , ,4.323,1.115,-111.517
 12:45:40.837,eb:33:2e:f9:57:b5, 2015-01-01 00:31:45.935,-0.04,0.073,0.999,6.409,1.465,3.54, , , , , , ,4.356,1.121,-111.5
 12:45:40.837,eb:33:2e:f9:57:b5, 2015-01-01 00:31:45.935,-0.038,0.075,1,6.714,1.404,3.418, , , , , , ,4.389,1.126,-111.484
 12:45:40.837,eb:33:2e:f9:57:b5, 2015-01-01 00:31:45.935,-0.043,0.076,1.002,6.958,1.404,3.479, , , , , , ,4.422,1.132,-111.467
 12:45:40.837,eb:33:2e:f9:57:b5, 2015-01-01 00:31:45.935,-0.045,0.077,0.996,7.263,0.732,3.601, , , , , , ,4.455,1.137,-111.445
 12:45:40.837,eb:33:2e:f9:57:b5, 2015-01-01 00:31:45.935,-0.04,0.078,0.994,7.324,0.305,3.601, , , , , , ,4.493,1.137,-111.429
 12:45:40.837,eb:33:2e:f9:57:b5, 2015-01-01 00:31:45.935,-0.042,0.08,1.001,7.629,0.793,3.54, , , , , , ,4.532,1.137,-111.412
 12:45:40.837,eb:33:2e:f9:57:b5, 2015-01-01 00:31:45.935,-0.042,0.08,0.995,7.751,0.244,3.784, , , , , , ,4.57,1.143,-111.396
 12:45:40.838,eb:33:2e:f9:57:b5, 2015-01-01 00:31:45.935,-0.045,0.079,0.998,7.996,-0.305,3.784, , , , , , ,4.609,1.137,-111.374
 12:45:40.838,eb:33:2e:f9:57:b5, 2015-01-01 00:31:45.935,-0.052,0.084,0.991,7.874,-1.343,3.906, , , , , , ,4.647,1.132,-111.357
 12:45:40.838,eb:33:2e:f9:57:b5, 2015-01-01 00:31:45.935,-0.059,0.082,0.99,7.996,-1.709,3.662, , , , , , ,4.686,1.121,-111.335
 12:45:40.838,eb:33:2e:f9:57:b5, 2015-01-01 00:31:45.935,-0.054,0.083,0.975,8.24,-3.418,4.211, , , , , , ,4.724,1.104,-111.319
 12:45:40.838,eb:33:2e:f9:57:b5, 2015-01-01 00:31:45.935,-0.05,0.076,0.977,8.24,-5.066,4.761, , , , , , ,4.768,1.082,-111.292
 12:45:40.838,eb:33:2e:f9:57:b5, 2015-01-01 00:31:45.935,-0.035,0.075,0.981,8.301,-6.592,5.127, , , , , , ,4.807,1.049,-111.27
 12:45:40.839,eb:33:2e:f9:57:b5, 2015-01-01 00:31:45.935,-0.032,0.091,1.003,8.057,-6.653,4.822, , , , , , ,4.85,1.016,-111.248
 12:45:40.839,eb:33:2e:f9:57:b5, 2015-01-01 00:31:45.935,-0.028,0.087,0.997,8.057,-6.531,4.395, , , , , , ,4.889,0.978,-111.231
 12:45:40.839,eb:33:2e:f9:57:b5, 2015-01-01 00:31:45.935,-0.059,0.087,1.015,8.484,-4.517,4.15, , , , , , ,4.933,0.95,-111.209
 12:45:40.859,eb:33:2e:f9:57:b5, 2015-01-01 00:31:45.935,-0.007,0.082,0.952,8.484,-8.667,3.784, , , , , , ,4.971,0.912,-111.193
 12:45:40.859,eb:33:2e:f9:57:b5, 2015-01-01 00:31:45.935,-0.052,0.09,1.033,8.85,-5.249,4.089, , , , , , ,5.015,0.884,-111.176
 12:45:40.859,eb:33:2e:f9:57:b5, 2015-01-01 00:31:45.935,-0.025,0.094,0.967,8.728,-8.301,3.357, , , , , , ,5.059,0.846,-111.16
 12:45:40.859,eb:33:2e:f9:57:b5, 2015-01-01 00:31:45.935,-0.025,0.097,0.995,8.667,-7.751,3.296, , , , , , ,5.103,0.802,-111.149
 12:45:40.859,eb:33:2e:f9:57:b5, 2015-01-01 00:31:45.935,-0.04,0.091,1.009,8.972,-6.653,2.869, , , , , , ,5.147,0.769,-111.138
 12:45:40.859,eb:33:2e:f9:57:b5, 2015-01-01 00:31:45.935,-0.018,0.088,0.98,8.972,-7.874,2.93, , , , , , ,5.191,0.731,-111.121
 12:45:40.859,eb:33:2e:f9:57:b5, 2015-01-01 00:31:45.935,-0.024,0.089,1.002,9.033,-7.812,2.625, , , , , , ,5.235,0.692,-111.116
 12:45:40.859,eb:33:2e:f9:57:b5, 2015-01-01 00:31:45.935,-0.032,0.095,1.001,9.094,-7.446,2.136, , , , , , ,5.279,0.654,-111.105
 12:45:40.928,eb:33:2e:f9:57:b5, 2015-01-01 00:31:45.935,-0.024,0.093,0.997,9.46,-7.69,2.258, , , , , , ,5.328,0.615,-111.099
 12:45:40.928,eb:33:2e:f9:57:b5, 2015-01-01 00:31:45.935,-0.033,0.096,0.999,9.583,-7.324,2.014, , , , , , ,5.372,0.577,-111.094
 12:45:40.928,eb:33:2e:f9:57:b5, 2015-01-01 00:31:45.935,-0.027,0.098,0.989,9.644,-8.24,1.831, , , , , , ,5.422,0.538,-111.088
 12:45:40.928,eb:33:2e:f9:57:b5, 2015-01-01 00:31:45.935,-0.02,0.096,0.995,9.949,-8.24,1.77, , , , , , ,5.471,0.494,-111.083
 12:45:40.928,eb:33:2e:f9:57:b5, 2015-01-01 00:31:45.935,-0.023,0.101,0.997,10.071,-8.301,1.404, , , , , , ,5.521,0.45,-111.077
 12:45:40.928,eb:33:2e:f9:57:b5, 2015-01-01 00:31:45.935,-0.022,0.099,0.995,10.193,-8.362,1.282, , , , , , ,5.57,0.412,-111.072
 12:45:40.928,eb:33:2e:f9:57:b5, 2015-01-01 00:31:45.935,-0.021,0.101,0.993,10.193,-8.728,1.099, , , , , , ,5.62,0.368,-111.072
 12:45:40.928,eb:33:2e:f9:57:b5, 2015-01-01 00:31:45.935,-0.024,0.101,1.002,10.315,-8.85,0.977, , , , , , ,5.669,0.324,-111.072
 12:45:40.928,eb:33:2e:f9:57:b5, 2015-01-01 00:31:45.935,-0.017,0.102,0.998,10.681,-9.277,0.793, , , , , , ,5.724,0.275,-111.072
 12:45:40.928,eb:33:2e:f9:57:b5, 2015-01-01 00:31:45.935,-0.019,0.109,0.993,10.864,-9.46,0.427, , , , , , ,5.773,0.231,-111.072
 12:45:40.929,eb:33:2e:f9:57:b5, 2015-01-01 00:31:45.935,-0.012,0.106,0.996,10.864,-9.216,0.244, , , , , , ,5.828,0.181,-111.077
 12:45:40.929,eb:33:2e:f9:57:b5, 2015-01-01 00:31:45.935,-0.016,0.109,1,11.108,-9.094,0.061, , , , , , ,5.883,0.137,-111.083
 12:45:40.929,eb:33:2e:f9:57:b5, 2015-01-01 00:31:45.935,-0.013,0.105,0.999,11.292,-9.033,0, , , , , , ,5.938,0.088,-111.083
 12:45:40.929,eb:33:2e:f9:57:b5, 2015-01-01 00:31:45.935,-0.016,0.11,0.994,11.047,-8.972,-0.122, , , , , , ,5.993,0.049,-111.088
 12:45:40.929,eb:33:2e:f9:57:b5, 2015-01-01 00:31:45.935,-0.002,0.108,0.997,11.169,-8.85,-0.305, , , , , , ,6.048,0.005,-111.099
 12:45:40.929,eb:33:2e:f9:57:b5, 2015-01-01 00:31:45.935,-0.011,0.112,1.003,11.292,-8.423,-0.549, , , , , , ,6.103,-0.033,-111.105
 12:45:40.971,eb:33:2e:f9:57:b5, 2015-01-01 00:31:46.380,-0.014,0.117,0.989,11.047,-8.24,-0.732, , , , , , ,6.158,-0.077,-111.11
 12:45:40.971,eb:33:2e:f9:57:b5, 2015-01-01 00:31:46.380,-0.008,0.11,1.002,11.169,-8.057,-0.854, , , , , , ,6.213,-0.115,-111.121
 12:45:40.971,eb:33:2e:f9:57:b5, 2015-01-01 00:31:46.380,0,0.112,1.001,11.292,-8.057,-1.038, , , , , , ,6.273,-0.154,-111.132
 12:45:40.971,eb:33:2e:f9:57:b5, 2015-01-01 00:31:46.380,-0.005,0.116,1.003,11.353,-7.385,-1.343, , , , , , ,6.328,-0.192,-111.143
 12:45:40.971,eb:33:2e:f9:57:b5, 2015-01-01 00:31:46.380,0.003,0.111,1.007,11.475,-6.592,-1.404, , , , , , ,6.383,-0.225,-111.154
 12:45:40.971,eb:33:2e:f9:57:b5, 2015-01-01 00:31:46.380,-0.01,0.121,0.997,11.414,-6.104,-1.648, , , , , , ,6.438,-0.253,-111.165
 12:45:40.971,eb:33:2e:f9:57:b5, 2015-01-01 00:31:46.380,-0.01,0.113,1.003,11.292,-5.676,-1.526, , , , , , ,6.498,-0.286,-111.176
 12:45:40.971,eb:33:2e:f9:57:b5, 2015-01-01 00:31:46.380,-0.007,0.117,1,11.169,-5.432,-1.526, , , , , , ,6.553,-0.313,-111.187
 12:45:41.061,eb:33:2e:f9:57:b5, 2015-01-01 00:31:46.380,-0.006,0.116,0.997,10.986,-5.127,-1.648, , , , , , ,6.608,-0.335,-111.198
 12:45:41.061,eb:33:2e:f9:57:b5, 2015-01-01 00:31:46.380,-0.002,0.118,1.002,11.047,-4.7,-1.587, , , , , , ,6.663,-0.357,-111.209
 12:45:41.061,eb:33:2e:f9:57:b5, 2015-01-01 00:31:46.380,-0.007,0.12,1.004,10.986,-4.272,-1.587, , , , , , ,6.718,-0.379,-111.22
 12:45:41.061,eb:33:2e:f9:57:b5, 2015-01-01 00:31:46.380,-0.007,0.119,1.003,10.986,-3.906,-1.526, , , , , , ,6.768,-0.401,-111.231
 12:45:41.061,eb:33:2e:f9:57:b5, 2015-01-01 00:31:46.380,-0.006,0.117,1.01,10.986,-3.113,-1.221, , , , , , ,6.823,-0.417,-111.237
 12:45:41.061,eb:33:2e:f9:57:b5, 2015-01-01 00:31:46.380,0.007,0.124,0.995,10.498,-2.441,-1.038, , , , , , ,6.877,-0.428,-111.248
 12:45:41.061,eb:33:2e:f9:57:b5, 2015-01-01 00:31:46.380,0.019,0.128,1.011,10.254,-1.16,-1.038, , , , , , ,6.927,-0.434,-111.253
 12:45:41.061,eb:33:2e:f9:57:b5, 2015-01-01 00:31:46.380,0.01,0.138,1.004,9.949,0,-1.282, , , , , , ,6.976,-0.439,-111.259
 12:45:41.061,eb:33:2e:f9:57:b5, 2015-01-01 00:31:46.380,0.012,0.133,1,9.094,1.648,-1.221, , , , , , ,7.026,-0.434,-111.264
 12:45:41.061,eb:33:2e:f9:57:b5, 2015-01-01 00:31:46.380,0.029,0.133,1.003,8.301,3.662,-1.16, , , , , , ,7.07,-0.417,-111.27
 12:45:41.062,eb:33:2e:f9:57:b5, 2015-01-01 00:31:46.380,0.031,0.146,0.992,7.446,5.676,-1.709, , , , , , ,7.108,-0.39,-111.275
 12:45:41.062,eb:33:2e:f9:57:b5, 2015-01-01 00:31:46.380,0.034,0.146,0.998,6.348,8.606,-2.136, , , , , , ,7.141,-0.352,-111.281
 12:45:41.062,eb:33:2e:f9:57:b5, 2015-01-01 00:31:46.380,0.027,0.153,0.989,5.066,11.292,-2.686, , , , , , ,7.169,-0.302,-111.286
 12:45:41.062,eb:33:2e:f9:57:b5, 2015-01-01 00:31:46.380,0.016,0.148,0.989,3.723,14.099,-3.174, , , , , , ,7.185,-0.236,-111.292
 12:45:41.062,eb:33:2e:f9:57:b5, 2015-01-01 00:31:46.380,0.011,0.143,0.994,2.808,16.418,-3.296, , , , , , ,7.202,-0.154,-111.297
 12:45:41.062,eb:33:2e:f9:57:b5, 2015-01-01 00:31:46.380,0.005,0.145,0.978,2.014,17.639,-3.967, , , , , , ,7.213,-0.066,-111.308
 12:45:41.105,eb:33:2e:f9:57:b5, 2015-01-01 00:31:46.380,0.003,0.142,0.983,1.099,19.348,-4.089, , , , , , ,7.218,0.022,-111.313
 12:45:41.105,eb:33:2e:f9:57:b5, 2015-01-01 00:31:46.380,-0.014,0.144,0.982,0.366,20.813,-4.578, , , , , , ,7.224,0.126,-111.324
 12:45:41.106,eb:33:2e:f9:57:b5, 2015-01-01 00:31:46.380,-0.019,0.138,0.976,-0.061,21.179,-4.883, , , , , , ,7.224,0.236,-111.335
 12:45:41.106,eb:33:2e:f9:57:b5, 2015-01-01 00:31:46.380,-0.029,0.133,0.982,-0.488,21.606,-4.761, , , , , , ,7.218,0.346,-111.346
 12:45:41.106,eb:33:2e:f9:57:b5, 2015-01-01 00:31:46.380,-0.03,0.132,0.975,-0.916,21.484,-4.761, , , , , , ,7.213,0.456,-111.357
 12:45:41.106,eb:33:2e:f9:57:b5, 2015-01-01 00:31:46.380,-0.037,0.131,0.978,-1.221,21.24,-4.578, , , , , , ,7.207,0.566,-111.368
 12:45:41.106,eb:33:2e:f9:57:b5, 2015-01-01 00:31:46.380,-0.03,0.127,0.975,-1.404,20.752,-4.456, , , , , , ,7.202,0.67,-111.374
 12:45:41.106,eb:33:2e:f9:57:b5, 2015-01-01 00:31:46.380,-0.03,0.135,0.969,-1.465,20.02,-4.7, , , , , , ,7.191,0.775,-111.385
 12:45:41.151,eb:33:2e:f9:57:b5, 2015-01-01 00:31:46.380,-0.044,0.132,0.981,-1.526,19.897,-4.761, , , , , , ,7.185,0.879,-111.396
 12:45:41.151,eb:33:2e:f9:57:b5, 2015-01-01 00:31:46.380,-0.048,0.125,0.98,-1.404,19.226,-4.639, , , , , , ,7.174,0.978,-111.407
 12:45:41.151,eb:33:2e:f9:57:b5, 2015-01-01 00:31:46.380,-0.061,0.123,0.979,-1.099,18.005,-4.517, , , , , , ,7.169,1.071,-111.418
 12:45:41.151,eb:33:2e:f9:57:b5, 2015-01-01 00:31:46.380,-0.064,0.121,0.973,-0.732,16.296,-4.272, , , , , , ,7.163,1.159,-111.429
 12:45:41.151,eb:33:2e:f9:57:b5, 2015-01-01 00:31:46.380,-0.069,0.115,0.984,-0.244,14.832,-3.784, , , , , , ,7.158,1.236,-111.44
 12:45:41.151,eb:33:2e:f9:57:b5, 2015-01-01 00:31:46.380,-0.066,0.113,0.985,0.244,13,-3.174, , , , , , ,7.158,1.313,-111.451
 12:45:41.151,eb:33:2e:f9:57:b5, 2015-01-01 00:31:46.380,-0.074,0.11,1.003,1.099,11.353,-2.686, , , , , , ,7.163,1.373,-111.456
 12:45:41.151,eb:33:2e:f9:57:b5, 2015-01-01 00:31:46.380,-0.065,0.103,1.01,2.197,9.705,-1.953, , , , , , ,7.169,1.423,-111.462
 12:45:41.218,eb:33:2e:f9:57:b5, 2015-01-01 00:31:46.380,-0.06,0.108,1.015,3.479,8.057,-1.465, , , , , , ,7.185,1.467,-111.462
 12:45:41.218,eb:33:2e:f9:57:b5, 2015-01-01 00:31:46.380,-0.058,0.105,1.025,4.883,6.836,-1.221, , , , , , ,7.202,1.505,-111.467
 12:45:41.218,eb:33:2e:f9:57:b5, 2015-01-01 00:31:46.380,-0.061,0.107,1.03,6.287,5.859,-0.854, , , , , , ,7.234,1.538,-111.467
 12:45:41.218,eb:33:2e:f9:57:b5, 2015-01-01 00:31:46.380,-0.049,0.107,1.034,7.69,4.883,-0.549, , , , , , ,7.267,1.566,-111.467
 12:45:41.218,eb:33:2e:f9:57:b5, 2015-01-01 00:31:46.380,-0.044,0.11,1.044,9.155,4.639,-0.244, , , , , , ,7.311,1.588,-111.467
 12:45:41.218,eb:33:2e:f9:57:b5, 2015-01-01 00:31:46.380,-0.045,0.113,1.045,10.681,4.333,-0.183, , , , , , ,7.361,1.609,-111.467
 12:45:41.218,eb:33:2e:f9:57:b5, 2015-01-01 00:31:46.380,-0.045,0.109,1.056,12.329,4.395,-0.061, , , , , , ,7.416,1.631,-111.462
 12:45:41.218,eb:33:2e:f9:57:b5, 2015-01-01 00:31:46.380,-0.04,0.115,1.052,14.099,4.089,-0.122, , , , , , ,7.482,1.653,-111.462
 12:45:41.220,eb:33:2e:f9:57:b5, 2015-01-01 00:31:46.380,-0.044,0.117,1.061,15.747,3.967,-0.122, , , , , , ,7.559,1.675,-111.462
 12:45:41.220,eb:33:2e:f9:57:b5, 2015-01-01 00:31:46.380,-0.044,0.123,1.042,17.578,3.174,-0.305, , , , , , ,7.641,1.692,-111.462
 12:45:41.220,eb:33:2e:f9:57:b5, 2015-01-01 00:31:46.380,-0.059,0.122,1.04,18.921,2.93,-0.183, , , , , , ,7.734,1.708,-111.462
 12:45:41.220,eb:33:2e:f9:57:b5, 2015-01-01 00:31:46.380,-0.049,0.117,1.034,20.264,2.502,0, , , , , , ,7.828,1.719,-111.456
 12:45:41.220,eb:33:2e:f9:57:b5, 2015-01-01 00:31:46.380,-0.046,0.123,1.039,21.912,1.953,0, , , , , , ,7.938,1.73,-111.456
 12:45:41.220,eb:33:2e:f9:57:b5, 2015-01-01 00:31:46.380,-0.054,0.121,1.044,23.56,1.648,0.061, , , , , , ,8.047,1.741,-111.456
 12:45:41.220,eb:33:2e:f9:57:b5, 2015-01-01 00:31:46.380,-0.056,0.122,1.04,25.085,1.038,0.244, , , , , , ,8.174,1.747,-111.456
 12:45:41.220,eb:33:2e:f9:57:b5, 2015-01-01 00:31:46.380,-0.055,0.121,1.049,26.489,0.793,0.549, , , , , , ,8.3,1.752,-111.451
 12:45:41.287,eb:33:2e:f9:57:b5, 2015-01-01 00:31:46.380,-0.044,0.123,1.055,28.198,0.549,0.793, , , , , , ,8.438,1.752,-111.445
 12:45:41.287,eb:33:2e:f9:57:b5, 2015-01-01 00:31:46.380,-0.041,0.126,1.069,29.907,0.61,1.038, , , , , , ,8.58,1.758,-111.44
 12:45:41.287,eb:33:2e:f9:57:b5, 2015-01-01 00:31:46.380,-0.031,0.129,1.072,31.921,0.671,0.977, , , , , , ,8.74,1.763,-111.434
 12:45:41.287,eb:33:2e:f9:57:b5, 2015-01-01 00:31:46.380,-0.03,0.145,1.066,34.241,0.488,0.488, , , , , , ,8.904,1.763,-111.434
 12:45:41.287,eb:33:2e:f9:57:b5, 2015-01-01 00:31:46.380,-0.028,0.143,1.066,36.133,0.488,0.061, , , , , , ,9.08,1.763,-111.429
 12:45:41.288,eb:33:2e:f9:57:b5, 2015-01-01 00:31:46.380,-0.029,0.142,1.09,38.208,1.099,-0.122, , , , , , ,9.267,1.769,-111.429
 12:45:41.288,eb:33:2e:f9:57:b5, 2015-01-01 00:31:46.380,-0.035,0.142,1.083,40.283,1.465,-0.366, , , , , , ,9.465,1.78,-111.434
 12:45:41.288,eb:33:2e:f9:57:b5, 2015-01-01 00:31:46.380,-0.041,0.146,1.074,42.358,1.099,-0.732, , , , , , ,9.668,1.785,-111.434
 12:45:41.308,eb:33:2e:f9:57:b5, 2015-01-01 00:31:46.760,-0.039,0.139,1.1,44.739,1.709,-0.61, , , , , , ,9.888,1.791,-111.434
 12:45:41.308,eb:33:2e:f9:57:b5, 2015-01-01 00:31:46.760,-0.019,0.143,1.106,47.302,2.258,-0.61, , , , , , ,10.118,1.802,-111.44
 12:45:41.308,eb:33:2e:f9:57:b5, 2015-01-01 00:31:46.760,-0.009,0.161,1.105,49.744,2.869,-0.854, , , , , , ,10.36,1.818,-111.44
 12:45:41.308,eb:33:2e:f9:57:b5, 2015-01-01 00:31:46.760,-0.021,0.164,1.11,52.368,3.906,-1.526, , , , , , ,10.618,1.835,-111.44
 12:45:41.308,eb:33:2e:f9:57:b5, 2015-01-01 00:31:46.760,-0.025,0.153,1.125,55.054,5.005,-1.953, , , , , , ,10.887,1.857,-111.445
 12:45:41.308,eb:33:2e:f9:57:b5, 2015-01-01 00:31:46.760,-0.016,0.161,1.136,57.983,5.798,-1.892, , , , , , ,11.168,1.89,-111.451
 12:45:41.308,eb:33:2e:f9:57:b5, 2015-01-01 00:31:46.760,-0.036,0.155,1.154,61.34,6.531,-2.014, , , , , , ,11.47,1.923,-111.456
 12:45:41.308,eb:33:2e:f9:57:b5, 2015-01-01 00:31:46.760,-0.035,0.138,1.173,64.819,7.812,-1.953, , , , , , ,11.783,1.961,-111.456
 12:45:41.330,eb:33:2e:f9:57:b5, 2015-01-01 00:31:46.760,-0.017,0.146,1.15,68.359,8.789,-1.77, , , , , , ,12.118,2.005,-111.456
 12:45:41.330,eb:33:2e:f9:57:b5, 2015-01-01 00:31:46.760,-0.011,0.178,1.167,72.205,8.789,-2.563, , , , , , ,12.469,2.049,-111.462
 12:45:41.330,eb:33:2e:f9:57:b5, 2015-01-01 00:31:46.760,-0.006,0.166,1.182,76.172,9.583,-3.357, , , , , , ,12.843,2.098,-111.467
 12:45:41.330,eb:33:2e:f9:57:b5, 2015-01-01 00:31:46.760,-0.021,0.167,1.227,80.322,12.268,-3.54, , , , , , ,13.233,2.159,-111.467
 12:45:41.330,eb:33:2e:f9:57:b5, 2015-01-01 00:31:46.760,-0.015,0.171,1.231,84.961,14.465,-4.089, , , , , , ,13.651,2.225,-111.473
 12:45:41.331,eb:33:2e:f9:57:b5, 2015-01-01 00:31:46.760,-0.042,0.141,1.222,88.989,16.541,-3.723, , , , , , ,14.084,2.307,-111.473
 12:45:41.331,eb:33:2e:f9:57:b5, 2015-01-01 00:31:46.760,-0.045,0.148,1.238,93.323,18.372,-3.906, , , , , , ,14.54,2.401,-111.467
 12:45:41.331,eb:33:2e:f9:57:b5, 2015-01-01 00:31:46.760,-0.023,0.169,1.231,97.961,19.714,-3.54, , , , , , ,15.024,2.499,-111.462
 12:45:41.375,eb:33:2e:f9:57:b5, 2015-01-01 00:31:46.760,-0.004,0.183,1.236,102.356,20.02,-4.028, , , , , , ,15.524,2.598,-111.456
 12:45:41.375,eb:33:2e:f9:57:b5, 2015-01-01 00:31:46.760,0,0.193,1.27,107.91,20.02,-5.371, , , , , , ,16.051,2.703,-111.451
 12:45:41.375,eb:33:2e:f9:57:b5, 2015-01-01 00:31:46.760,0.04,0.2,1.301,113.403,20.996,-5.981, , , , , , ,16.606,2.807,-111.451
 12:45:41.375,eb:33:2e:f9:57:b5, 2015-01-01 00:31:46.760,0.082,0.224,1.343,118.896,22.644,-6.653, , , , , , ,17.188,2.922,-111.451
 12:45:41.375,eb:33:2e:f9:57:b5, 2015-01-01 00:31:46.760,0.069,0.251,1.302,124.573,23.376,-9.155, , , , , , ,17.803,3.043,-111.451
 12:45:41.375,eb:33:2e:f9:57:b5, 2015-01-01 00:31:46.760,-0.003,0.216,1.32,130.188,27.466,-11.536, , , , , , ,18.441,3.186,-111.462
 12:45:41.375,eb:33:2e:f9:57:b5, 2015-01-01 00:31:46.760,-0.047,0.145,1.435,134.338,36.987,-11.719, , , , , , ,19.1,3.356,-111.467
 12:45:41.376,eb:33:2e:f9:57:b5, 2015-01-01 00:31:46.760,-0.02,0.136,1.49,140.076,48.462,-9.888, , , , , , ,19.792,3.582,-111.445
 12:45:41.465,eb:33:2e:f9:57:b5, 2015-01-01 00:31:46.760,0.011,0.208,1.358,147.095,52.063,-10.315, , , , , , ,20.511,3.84,-111.401
 12:45:41.465,eb:33:2e:f9:57:b5, 2015-01-01 00:31:46.760,0.029,0.242,1.324,154.48,53.101,-11.719, , , , , , ,21.275,4.109,-111.363
 12:45:41.465,eb:33:2e:f9:57:b5, 2015-01-01 00:31:46.760,0.066,0.226,1.393,161.987,57.007,-13.428, , , , , , ,22.072,4.389,-111.319
 12:45:41.465,eb:33:2e:f9:57:b5, 2015-01-01 00:31:46.760,0.135,0.283,1.442,169.556,60.852,-14.832, , , , , , ,22.906,4.691,-111.264
 12:45:41.465,eb:33:2e:f9:57:b5, 2015-01-01 00:31:46.760,0.145,0.373,1.367,176.758,58.594,-19.592, , , , , , ,23.78,4.999,-111.231
 12:45:41.465,eb:33:2e:f9:57:b5, 2015-01-01 00:31:46.760,0.07,0.354,1.409,185.059,57.617,-25.391, , , , , , ,24.686,5.306,-111.215
 12:45:41.465,eb:33:2e:f9:57:b5, 2015-01-01 00:31:46.760,-0.023,0.262,1.535,191.04,65.369,-27.222, , , , , , ,25.631,5.647,-111.204
 12:45:41.465,eb:33:2e:f9:57:b5, 2015-01-01 00:31:46.760,-0.042,0.229,1.61,197.754,74.463,-27.222, , , , , , ,26.609,6.026,-111.171
 12:45:41.469,eb:33:2e:f9:57:b5, 2015-01-01 00:31:46.760,-0.015,0.305,1.551,206.055,78.186,-27.344, , , , , , ,27.625,6.432,-111.116
 12:45:41.469,eb:33:2e:f9:57:b5, 2015-01-01 00:31:46.760,0.036,0.4,1.462,214.844,72.754,-28.381, , , , , , ,28.685,6.828,-111.061
 12:45:41.469,eb:33:2e:f9:57:b5, 2015-01-01 00:31:46.760,0.032,0.436,1.362,223.145,60.791,-31.189, , , , , , ,29.789,7.191,-111.033
 12:45:41.469,eb:33:2e:f9:57:b5, 2015-01-01 00:31:46.760,-0.039,0.452,1.503,227.356,52.673,-34.363, , , , , , ,30.916,7.515,-111.033
 12:45:41.469,eb:33:2e:f9:57:b5, 2015-01-01 00:31:46.760,-0.059,0.331,1.699,232.788,54.871,-33.752, , , , , , ,32.069,7.828,-111.039
 12:45:41.469,eb:33:2e:f9:57:b5, 2015-01-01 00:31:46.760,-0.116,0.432,1.741,239.136,58.289,-35.095, , , , , , ,33.25,8.163,-111.033
 12:45:41.469,eb:33:2e:f9:57:b5, 2015-01-01 00:31:46.760,-0.141,0.383,1.96,239.319,73.425,-33.203, , , , , , ,34.453,8.536,-110.995
 12:45:41.469,eb:33:2e:f9:57:b5, 2015-01-01 00:31:46.760,0.016,0.32,1.811,238.098,80.627,-30.029, , , , , , ,35.662,8.948,-110.885
 12:45:41.622,eb:33:2e:f9:57:b5, 2015-01-01 00:31:46.760,0.137,0.47,1.849,244.995,79.712,-32.349, , , , , , ,36.881,9.36,-110.775
 12:45:41.622,eb:33:2e:f9:57:b5, 2015-01-01 00:31:46.760,0.242,0.414,1.671,253.723,75.317,-33.264, , , , , , ,38.15,9.772,-110.665
 12:45:41.622,eb:33:2e:f9:57:b5, 2015-01-01 00:31:46.760,0.206,0.448,1.499,255.859,60.73,-39.185, , , , , , ,39.441,10.146,-110.599
 12:45:41.622,eb:33:2e:f9:57:b5, 2015-01-01 00:31:46.760,0.074,0.416,1.857,253.357,65.491,-44.128, , , , , , ,40.715,10.519,-110.561
 12:45:41.622,eb:33:2e:f9:57:b5, 2015-01-01 00:31:46.760,0.077,0.391,2.124,255.371,84.29,-47.485, , , , , , ,42.001,10.959,-110.479
 12:45:41.622,eb:33:2e:f9:57:b5, 2015-01-01 00:31:46.760,0.177,0.333,1.991,258.057,98.328,-46.814, , , , , , ,43.308,11.464,-110.336
 12:45:41.622,eb:33:2e:f9:57:b5, 2015-01-01 00:31:46.760,0.271,0.359,1.528,255.066,90.21,-50.476, , , , , , ,44.626,11.975,-110.182
 12:45:41.622,eb:33:2e:f9:57:b5, 2015-01-01 00:31:46.760,0.297,0.281,1.424,250.122,80.811,-53.284, , , , , , ,45.906,12.458,-110.061
 12:45:41.624,eb:33:2e:f9:57:b5, 2015-01-01 00:31:46.760,0.394,0.253,1.528,254.578,72.021,-58.411, , , , , , ,47.186,12.92,-109.979
 12:45:41.624,eb:33:2e:f9:57:b5, 2015-01-01 00:31:46.760,0.445,0.157,1.579,263.672,64.453,-64.087, , , , , , ,48.488,13.376,-109.935
 12:45:41.624,eb:33:2e:f9:57:b5, 2015-01-01 00:31:46.760,0.438,0.017,1.433,270.142,58.044,-70.435, , , , , , ,49.828,13.832,-109.929
 12:45:41.624,eb:33:2e:f9:57:b5, 2015-01-01 00:31:46.760,0.362,-0.099,1.259,273.315,52.979,-76.294, , , , , , ,51.185,14.288,-109.951
 12:45:41.624,eb:33:2e:f9:57:b5, 2015-01-01 00:31:46.760,0.487,-0.151,1.304,282.166,47.546,-82.825, , , , , , ,52.559,14.76,-110.001
 12:45:41.625,eb:33:2e:f9:57:b5, 2015-01-01 00:31:46.760,0.545,-0.229,1.662,298.035,49.011,-91.492, , , , , , ,53.987,15.255,-110.078
 12:45:41.625,eb:33:2e:f9:57:b5, 2015-01-01 00:31:46.760,0.545,-0.354,1.717,316.65,50.171,-101.074, , , , , , ,55.508,15.793,-110.16
 12:45:41.625,eb:33:2e:f9:57:b5, 2015-01-01 00:31:46.760,0.551,-0.545,1.655,339.355,54.504,-108.215, , , , , , ,57.14,16.381,-110.231
 12:45:41.625,eb:33:2e:f9:57:b5, 2015-01-01 00:31:46.760,0.528,-0.587,1.196,351.196,54.504,-115.845, , , , , , ,58.859,17.001,-110.303
 12:45:41.625,eb:33:2e:f9:57:b5, 2015-01-01 00:31:46.760,0.235,-0.331,0.261,334.839,46.692,-127.38, , , , , , ,60.546,17.661,-110.402
 12:45:41.625,eb:33:2e:f9:57:b5, 2015-01-01 00:31:46.760,0.116,0.011,-0.926,264.16,24.048,-133.423, , , , , , ,61.974,18.32,-110.572
 12:45:41.625,eb:33:2e:f9:57:b5, 2015-01-01 00:31:46.760,0.05,-0.269,-1.482,170.227,2.075,-128.418, , , , , , ,62.93,18.924,-110.841
 12:45:41.625,eb:33:2e:f9:57:b5, 2015-01-01 00:31:46.760,0.06,-0.663,-1.736,61.34,-11.475,-117.432, , , , , , ,63.353,19.457,-111.165
 12:45:41.625,eb:33:2e:f9:57:b5, 2015-01-01 00:31:46.760,0.051,-1.086,-1.432,-44.067,-17.883,-99.426, , , , , , ,63.215,19.896,-111.5
 12:45:41.625,eb:33:2e:f9:57:b5, 2015-01-01 00:31:46.760,-0.007,-1.189,-0.506,-124.939,-17.639,-78.247, , , , , , ,62.639,20.242,-111.791
 12:45:41.625,eb:33:2e:f9:57:b5, 2015-01-01 00:31:46.760,0.027,-0.881,0.325,-187.5,-17.639,-57.861, , , , , , ,61.727,20.495,-112.033
 12:45:41.629,eb:33:2e:f9:57:b5, 2015-01-01 00:31:46.760,0.108,-0.652,0.738,-216.736,-15.808,-46.448, , , , , , ,60.623,20.676,-112.247
 12:45:41.629,eb:33:2e:f9:57:b5, 2015-01-01 00:31:46.760,0.184,-0.546,0.903,-231.018,-12.573,-38.208, , , , , , ,59.42,20.819,-112.423
 12:45:41.629,eb:33:2e:f9:57:b5, 2015-01-01 00:31:46.760,0.235,-0.534,0.881,-234.802,-11.353,-31.738, , , , , , ,58.195,20.934,-112.571
 12:45:41.629,eb:33:2e:f9:57:b5, 2015-01-01 00:31:46.760,0.259,-0.533,0.773,-232.849,-13.184,-26.489, , , , , , ,56.975,21.022,-112.703
 12:45:41.629,eb:33:2e:f9:57:b5, 2015-01-01 00:31:46.760,0.256,-0.49,0.64,-228.882,-17.7,-22.156, , , , , , ,55.772,21.077,-112.846
 12:45:41.630,eb:33:2e:f9:57:b5, 2015-01-01 00:31:46.760,0.238,-0.412,0.527,-225.22,-25.085,-18.494, , , , , , ,54.569,21.094,-113.005
 12:45:41.630,eb:33:2e:f9:57:b5, 2015-01-01 00:31:46.760,0.215,-0.346,0.47,-223.328,-34.485,-15.686, , , , , , ,53.383,21.072,-113.192
 12:45:41.630,eb:33:2e:f9:57:b5, 2015-01-01 00:31:46.760,0.199,-0.321,0.454,-223.877,-44.617,-12.817, , , , , , ,52.185,21.006,-113.406
 12:45:41.668,eb:33:2e:f9:57:b5, 2015-01-01 00:31:46.760,0.194,-0.325,0.444,-227.478,-54.382,-9.644, , , , , , ,50.966,20.891,-113.654
 12:45:41.668,eb:33:2e:f9:57:b5, 2015-01-01 00:31:46.760,0.191,-0.338,0.429,-234.07,-62.927,-6.042, , , , , , ,49.702,20.726,-113.934
 12:45:41.668,eb:33:2e:f9:57:b5, 2015-01-01 00:31:46.760,0.192,-0.354,0.431,-242.92,-70.129,-2.441, , , , , , ,48.406,20.522,-114.219
 12:45:41.668,eb:33:2e:f9:57:b5, 2015-01-01 00:31:46.760,0.193,-0.371,0.473,-252.197,-75.928,1.16, , , , , , ,47.06,20.275,-114.505
 12:45:41.668,eb:33:2e:f9:57:b5, 2015-01-01 00:31:46.760,0.195,-0.373,0.549,-260.193,-80.566,4.639, , , , , , ,45.67,19.99,-114.796
 12:45:41.668,eb:33:2e:f9:57:b5, 2015-01-01 00:31:46.760,0.2,-0.359,0.637,-265.564,-84.778,7.751, , , , , , ,44.247,19.671,-115.087
 12:45:41.668,eb:33:2e:f9:57:b5, 2015-01-01 00:31:46.760,0.2,-0.334,0.714,-267.761,-88.501,10.498, , , , , , ,42.814,19.325,-115.373
 12:45:41.668,eb:33:2e:f9:57:b5, 2015-01-01 00:31:46.760,0.197,-0.304,0.771,-266.724,-92.712,12.817, , , , , , ,41.385,18.946,-115.642
 12:45:41.893,eb:33:2e:f9:57:b5, 2015-01-01 00:31:46.760,0.199,-0.272,0.819,-263.367,-97.107,14.954, , , , , , ,39.974,18.539,-115.917
 12:45:41.893,eb:33:2e:f9:57:b5, 2015-01-01 00:31:46.760,0.163,-0.238,0.874,-258.728,-100.647,16.907, , , , , , ,38.573,18.1,-116.186
 12:45:41.893,eb:33:2e:f9:57:b5, 2015-01-01 00:31:46.760,0.14,-0.216,0.89,-253.235,-104.98,19.409, , , , , , ,37.216,17.633,-116.444
 12:45:41.893,eb:33:2e:f9:57:b5, 2015-01-01 00:31:46.760,0.13,-0.207,0.906,-248.596,-108.276,22.156, , , , , , ,35.887,17.139,-116.686
 12:45:41.893,eb:33:2e:f9:57:b5, 2015-01-01 00:31:46.760,0.115,-0.192,0.925,-245.911,-110.107,25.452, , , , , , ,34.585,16.622,-116.911
 12:45:41.893,eb:33:2e:f9:57:b5, 2015-01-01 00:31:46.760,0.113,-0.179,0.934,-244.629,-111.877,28.687, , , , , , ,33.289,16.084,-117.12
 12:45:41.893,eb:33:2e:f9:57:b5, 2015-01-01 00:31:46.760,0.092,-0.162,0.964,-244.141,-114.258,31.677, , , , , , ,32.02,15.524,-117.307
 12:45:41.893,eb:33:2e:f9:57:b5, 2015-01-01 00:31:46.760,0.096,-0.146,0.965,-243.591,-118.713,34.363, , , , , , ,30.751,14.936,-117.471
 12:45:41.895,eb:33:2e:f9:57:b5, 2015-01-01 00:31:46.760,0.09,-0.118,1.003,-243.286,-122.253,36.682, , , , , , ,29.498,14.326,-117.625
 12:45:41.895,eb:33:2e:f9:57:b5, 2015-01-01 00:31:46.760,0.075,-0.096,1.037,-243.103,-125.61,38.513, , , , , , ,28.235,13.683,-117.768
 12:45:41.895,eb:33:2e:f9:57:b5, 2015-01-01 00:31:46.760,0.077,-0.08,1.067,-242.676,-130.371,40.527, , , , , , ,26.988,13.024,-117.894
 12:45:41.895,eb:33:2e:f9:57:b5, 2015-01-01 00:31:46.760,0.054,-0.075,1.136,-242.981,-132.019,42.236, , , , , , ,25.752,12.338,-117.999
 12:45:41.895,eb:33:2e:f9:57:b5, 2015-01-01 00:31:46.760,0.055,-0.069,1.185,-243.713,-135.132,43.579, , , , , , ,24.51,11.64,-118.092
 12:45:41.895,eb:33:2e:f9:57:b5, 2015-01-01 00:31:46.760,0.038,-0.075,1.279,-244.629,-132.996,46.021, , , , , , ,23.264,10.931,-118.163
 12:45:41.895,eb:33:2e:f9:57:b5, 2015-01-01 00:31:46.760,0.036,-0.073,1.329,-245.483,-130.066,48.828, , , , , , ,22.033,10.234,-118.196
 12:45:41.895,eb:33:2e:f9:57:b5, 2015-01-01 00:31:46.760,0.042,-0.07,1.374,-246.948,-126.221,51.636, , , , , , ,20.797,9.547,-118.191
 12:45:41.959,eb:33:2e:f9:57:b5, 2015-01-01 00:31:47.210,0.048,-0.06,1.426,-248.413,-121.46,53.833, , , , , , ,19.561,8.877,-118.158
 12:45:41.959,eb:33:2e:f9:57:b5, 2015-01-01 00:31:47.210,0.061,-0.036,1.462,-249.329,-117.126,56.335, , , , , , ,18.314,8.218,-118.092
 12:45:41.959,eb:33:2e:f9:57:b5, 2015-01-01 00:31:47.210,0.061,-0.015,1.493,-249.146,-113.281,58.594, , , , , , ,17.078,7.581,-117.988
 12:45:41.959,eb:33:2e:f9:57:b5, 2015-01-01 00:31:47.210,0.097,0.008,1.501,-247.498,-113.586,60.242, , , , , , ,15.853,6.954,-117.861
 12:45:41.959,eb:33:2e:f9:57:b5, 2015-01-01 00:31:47.210,0.122,0.038,1.57,-244.446,-110.352,61.401, , , , , , ,14.639,6.334,-117.713
 12:45:41.959,eb:33:2e:f9:57:b5, 2015-01-01 00:31:47.210,0.095,0.084,1.64,-239.685,-108.643,61.157, , , , , , ,13.431,5.718,-117.554
 12:45:41.959,eb:33:2e:f9:57:b5, 2015-01-01 00:31:47.210,0.033,0.118,1.634,-232.788,-105.652,62.622, , , , , , ,12.272,5.131,-117.367
 12:45:41.959,eb:33:2e:f9:57:b5, 2015-01-01 00:31:47.210,0.264,0.264,1.583,-232.361,-114.319,49.866, , , , , , ,11.129,4.537,-117.186
 12:45:42.005,eb:33:2e:f9:57:b5, 2015-01-01 00:31:47.210,0.163,0.164,1.787,-228.882,-102.539,64.941, , , , , , ,9.981,3.955,-116.999
 12:45:42.005,eb:33:2e:f9:57:b5, 2015-01-01 00:31:47.210,0.189,0,1.762,-217.651,-98.022,58.533, , , , , , ,8.866,3.406,-116.807
 12:45:42.005,eb:33:2e:f9:57:b5, 2015-01-01 00:31:47.210,0.162,0.167,1.821,-209.717,-94.604,52.917, , , , , , ,7.811,2.889,-116.603
 12:45:42.005,eb:33:2e:f9:57:b5, 2015-01-01 00:31:47.210,0.113,0.278,1.928,-195.129,-90.759,52.429, , , , , , ,6.812,2.39,-116.4
 12:45:42.005,eb:33:2e:f9:57:b5, 2015-01-01 00:31:47.210,0.126,0.284,1.926,-180.481,-87.402,50.049, , , , , , ,5.889,1.917,-116.197
 12:45:42.005,eb:33:2e:f9:57:b5, 2015-01-01 00:31:47.210,0.14,0.317,1.943,-165.833,-82.458,47.058, , , , , , ,5.021,1.472,-115.999
 12:45:42.005,eb:33:2e:f9:57:b5, 2015-01-01 00:31:47.210,0.055,0.349,1.938,-149.963,-75.989,47.363, , , , , , ,4.241,1.06,-115.79
 12:45:42.006,eb:33:2e:f9:57:b5, 2015-01-01 00:31:47.210,0.051,0.36,1.82,-134.216,-77.515,45.166, , , , , , ,3.538,0.665,-115.587
 12:45:42.141,eb:33:2e:f9:57:b5, 2015-01-01 00:31:47.210,-0.362,0.375,1.83,-117.859,-79.834,44.312, , , , , , ,2.917,0.258,-115.389
 12:45:42.141,eb:33:2e:f9:57:b5, 2015-01-01 00:31:47.210,-0.396,1.381,1.263,-199.036,-101.074,29.236, , , , , , ,-8.344,-8.591,-111.599
 12:45:42.141,eb:33:2e:f9:57:b5, 2015-01-01 00:31:47.210,-0.43,1.48,1.177,-200.378,-100.281,22.827, , , , , , ,-9.377,-9.069,-111.396
 12:45:42.141,eb:33:2e:f9:57:b5, 2015-01-01 00:31:47.210,-0.5,1.58,1.1,-199.219,-100.037,16.357, , , , , , ,-10.404,-9.547,-111.215
 12:45:42.141,eb:33:2e:f9:57:b5, 2015-01-01 00:31:47.210,-0.574,1.694,0.995,-193.237,-101.257,9.094, , , , , , ,-11.415,-10.031,-111.055
 12:45:42.141,eb:33:2e:f9:57:b5, 2015-01-01 00:31:47.210,-0.649,1.803,0.932,-184.265,-103.577,4.089, , , , , , ,-12.387,-10.53,-110.918
 12:45:42.141,eb:33:2e:f9:57:b5, 2015-01-01 00:31:47.210,-0.758,1.913,0.928,-171.387,-104.492,0.305, , , , , , ,-13.299,-11.036,-110.792
 12:45:42.142,eb:33:2e:f9:57:b5, 2015-01-01 00:31:47.210,-0.868,1.997,0.931,-154.175,-105.164,-1.831, , , , , , ,-14.128,-11.547,-110.671
 12:45:42.142,eb:33:2e:f9:57:b5, 2015-01-01 00:31:47.210,-0.971,2.045,0.954,-132.507,-104.797,-1.953, , , , , , ,-14.865,-12.057,-110.55
 12:45:42.142,eb:33:2e:f9:57:b5, 2015-01-01 00:31:47.210,-1.045,2.048,1,-106.812,-102.478,-0.183, , , , , , ,-15.485,-12.563,-110.413
 12:45:42.142,eb:33:2e:f9:57:b5, 2015-01-01 00:31:47.210,-1.076,2.004,1.091,-77.881,-96.069,3.357, , , , , , ,-15.963,-13.035,-110.27
 12:45:42.142,eb:33:2e:f9:57:b5, 2015-01-01 00:31:47.210,-1.093,1.915,1.242,-47.058,-83.191,8.667, , , , , , ,-16.298,-13.458,-110.11
 12:45:42.142,eb:33:2e:f9:57:b5, 2015-01-01 00:31:47.210,-1.093,1.787,1.409,-15.991,-62.744,15.442, , , , , , ,-16.479,-13.782,-109.946
 12:45:42.142,eb:33:2e:f9:57:b5, 2015-01-01 00:31:47.210,-1.022,1.632,1.569,13,-33.997,23.193, , , , , , ,-16.518,-13.975,-109.775
 12:45:42.142,eb:33:2e:f9:57:b5, 2015-01-01 00:31:47.210,-0.845,1.449,1.862,56.091,-3.052,17.578, , , , , , ,-16.386,-14.013,-109.633
 12:45:42.142,eb:33:2e:f9:57:b5, 2015-01-01 00:31:47.210,-1.239,1.563,5.879,120.85,131.348,36.682, , , , , , ,-15.875,-13.546,-109.611
 12:45:42.144,eb:33:2e:f9:57:b5, 2015-01-01 00:31:47.210,0.024,1.722,1.663,147.339,139.343,37.109, , , , , , ,-15.205,-12.876,-109.611
 12:45:42.144,eb:33:2e:f9:57:b5, 2015-01-01 00:31:47.210,0.891,1.409,0.578,170.349,144.043,18.677, , , , , , ,-14.37,-12.123,-109.666
 12:45:42.144,eb:33:2e:f9:57:b5, 2015-01-01 00:31:47.210,0.62,0.255,1.745,168.274,194.519,19.653, , , , , , ,-13.497,-11.266,-109.792
 12:45:42.144,eb:33:2e:f9:57:b5, 2015-01-01 00:31:47.210,0.603,-0.256,1.042,162.72,216.125,16.113, , , , , , ,-12.645,-10.239,-109.946
 12:45:42.144,eb:33:2e:f9:57:b5, 2015-01-01 00:31:47.210,0.312,-0.002,1.145,149.536,234.192,3.052, , , , , , ,-11.832,-9.119,-110.143
 12:45:42.144,eb:33:2e:f9:57:b5, 2015-01-01 00:31:47.210,0.177,-0.2,1.308,139.832,248.047,-9.094, , , , , , ,-11.08,-7.921,-110.407
 12:45:42.144,eb:33:2e:f9:57:b5, 2015-01-01 00:31:47.210,-0.306,-0.238,1.107,134.888,246.216,-18.677, , , , , , ,-10.36,-6.718,-110.715
 12:45:42.144,eb:33:2e:f9:57:b5, 2015-01-01 00:31:47.210,-0.993,-0.456,1.047,157.166,214.966,-10.925, , , , , , ,-9.608,-5.592,-111.011
 12:45:42.146,eb:33:2e:f9:57:b5, 2015-01-01 00:31:47.210,-0.489,-0.764,0.327,181.641,150.452,2.563, , , , , , ,-8.729,-4.746,-111.171
 12:45:42.146,eb:33:2e:f9:57:b5, 2015-01-01 00:31:47.210,-0.273,-0.543,0.43,194.763,108.093,20.081, , , , , , ,-7.778,-4.125,-111.193
 12:45:42.146,eb:33:2e:f9:57:b5, 2015-01-01 00:31:47.210,-0.284,-0.301,0.759,196.899,81.604,33.569, , , , , , ,-6.795,-3.658,-111.105
 12:45:42.146,eb:33:2e:f9:57:b5, 2015-01-01 00:31:47.210,-0.123,0.002,0.938,191.284,66.345,36.011, , , , , , ,-5.839,-3.279,-110.967
 12:45:42.146,eb:33:2e:f9:57:b5, 2015-01-01 00:31:47.210,-0.317,0.117,1.17,182.983,66.65,33.569, , , , , , ,-4.911,-2.939,-110.825
 12:45:42.146,eb:33:2e:f9:57:b5, 2015-01-01 00:31:47.210,-0.147,0.183,1.015,173.218,57.495,27.649, , , , , , ,-4.032,-2.62,-110.698
 12:45:42.146,eb:33:2e:f9:57:b5, 2015-01-01 00:31:47.210,-0.061,0.154,1.169,158.875,52.063,26.55, , , , , , ,-3.208,-2.34,-110.583
 12:45:42.146,eb:33:2e:f9:57:b5, 2015-01-01 00:31:47.210,-0.17,0.305,1.27,137.573,52.795,26.123, , , , , , ,-2.488,-2.071,-110.468
 12:45:42.148,eb:33:2e:f9:57:b5, 2015-01-01 00:31:47.210,-0.158,0.315,1.183,118.347,45.227,18.005, , , , , , ,-1.857,-1.824,-110.363
 12:45:42.148,eb:33:2e:f9:57:b5, 2015-01-01 00:31:47.210,-0.074,0.515,1.208,97.229,33.936,9.949, , , , , , ,-1.335,-1.648,-110.308
 12:45:42.148,eb:33:2e:f9:57:b5, 2015-01-01 00:31:47.210,-0.079,0.311,1.15,82.703,35.583,8.118, , , , , , ,-0.895,-1.461,-110.264
 12:45:42.148,eb:33:2e:f9:57:b5, 2015-01-01 00:31:47.210,-0.044,0.291,1.045,70.007,30.579,7.69, , , , , , ,-0.522,-1.302,-110.231
 12:45:42.148,eb:33:2e:f9:57:b5, 2015-01-01 00:31:47.210,-0.055,0.238,1.032,57.251,16.968,6.836, , , , , , ,-0.209,-1.176,-110.198
 12:45:42.148,eb:33:2e:f9:57:b5, 2015-01-01 00:31:47.210,-0.031,0.281,0.995,42.908,6.714,6.165, , , , , , ,0.027,-1.126,-110.171
 12:45:42.148,eb:33:2e:f9:57:b5, 2015-01-01 00:31:47.210,-0.011,0.148,0.979,32.776,3.723,10.315, , , , , , ,0.209,-1.104,-110.127
 12:45:42.148,eb:33:2e:f9:57:b5, 2015-01-01 00:31:47.210,-0.053,0.16,0.979,23.438,8.179,9.521, , , , , , ,0.341,-1.066,-110.083
 12:45:42.277,eb:33:2e:f9:57:b5, 2015-01-01 00:31:47.210,0.028,0.137,0.942,17.7,7.751,8.545, , , , , , ,0.439,-1.027,-110.039
 12:45:42.277,eb:33:2e:f9:57:b5, 2015-01-01 00:31:47.210,-0.032,0.015,1.013,2.747,7.69,2.808, , , , , , ,0.786,-0.818,-109.759
 12:45:42.277,eb:33:2e:f9:57:b5, 2015-01-01 00:31:47.210,0.011,0.018,0.964,2.319,6.47,4.089, , , , , , ,0.802,-0.797,-109.731
 12:45:42.277,eb:33:2e:f9:57:b5, 2015-01-01 00:31:47.210,-0.018,0.041,1.021,2.38,11.353,5.188, , , , , , ,0.813,-0.747,-109.709
 12:45:42.277,eb:33:2e:f9:57:b5, 2015-01-01 00:31:47.210,-0.007,0.024,0.966,2.014,8.118,5.249, , , , , , ,0.818,-0.698,-109.688
 12:45:42.277,eb:33:2e:f9:57:b5, 2015-01-01 00:31:47.210,-0.022,0.02,0.979,1.16,8.606,3.601, , , , , , ,0.829,-0.648,-109.666
 12:45:42.277,eb:33:2e:f9:57:b5, 2015-01-01 00:31:47.210,-0.023,0.044,0.986,0.305,5.92,4.333, , , , , , ,0.829,-0.615,-109.649
 12:45:42.277,eb:33:2e:f9:57:b5, 2015-01-01 00:31:47.210,-0.05,0.032,0.993,0,5.615,3.418, , , , , , ,0.829,-0.593,-109.627
 12:45:42.277,eb:33:2e:f9:57:b5, 2015-01-01 00:31:47.210,-0.007,-0.004,0.953,0.183,2.38,4.822, , , , , , ,0.829,-0.571,-109.6
 12:45:42.277,eb:33:2e:f9:57:b5, 2015-01-01 00:31:47.210,-0.019,0.017,0.995,0.122,1.648,5.493, , , , , , ,0.829,-0.555,-109.583
 12:45:42.277,eb:33:2e:f9:57:b5, 2015-01-01 00:31:47.210,-0.009,0.012,0.994,0.183,1.038,5.676, , , , , , ,0.835,-0.555,-109.55
 12:45:42.277,eb:33:2e:f9:57:b5, 2015-01-01 00:31:47.210,-0.008,0.029,0.998,-0.549,1.404,3.296, , , , , , ,0.829,-0.549,-109.528
 12:45:42.277,eb:33:2e:f9:57:b5, 2015-01-01 00:31:47.210,-0.011,0.041,0.996,-1.526,1.221,-0.061, , , , , , ,0.824,-0.544,-109.523
 12:45:42.278,eb:33:2e:f9:57:b5, 2015-01-01 00:31:47.210,-0.014,0.027,0.997,-2.014,0.793,-1.404, , , , , , ,0.818,-0.533,-109.528
 12:45:42.278,eb:33:2e:f9:57:b5, 2015-01-01 00:31:47.210,-0.019,0.021,0.997,-2.136,0,-1.343, , , , , , ,0.802,-0.533,-109.534
 12:45:42.278,eb:33:2e:f9:57:b5, 2015-01-01 00:31:47.210,-0.013,0.015,0.994,-2.136,-1.282,-0.732, , , , , , ,0.791,-0.538,-109.539
 12:45:42.279,eb:33:2e:f9:57:b5, 2015-01-01 00:31:47.210,-0.009,0.019,0.996,-2.197,-2.014,-0.427, , , , , , ,0.78,-0.544,-109.545
 12:45:42.279,eb:33:2e:f9:57:b5, 2015-01-01 00:31:47.210,-0.007,0.014,1,-2.014,-2.319,0, , , , , , ,0.775,-0.555,-109.545
 12:45:42.279,eb:33:2e:f9:57:b5, 2015-01-01 00:31:47.210,-0.003,0.014,1.003,-1.892,-2.258,0.366, , , , , , ,0.764,-0.566,-109.545
 12:45:42.279,eb:33:2e:f9:57:b5, 2015-01-01 00:31:47.210,-0.003,0.016,1.004,-1.709,-1.892,0.488, , , , , , ,0.753,-0.577,-109.545
 12:45:42.279,eb:33:2e:f9:57:b5, 2015-01-01 00:31:47.210,-0.007,0.016,1.007,-1.526,-1.282,0.732, , , , , , ,0.742,-0.582,-109.539
 12:45:42.279,eb:33:2e:f9:57:b5, 2015-01-01 00:31:47.210,-0.002,0.015,1.002,-1.465,-1.892,0.977, , , , , , ,0.736,-0.588,-109.534
 12:45:42.279,eb:33:2e:f9:57:b5, 2015-01-01 00:31:47.210,-0.004,0.012,1.008,-1.221,-1.465,0.854, , , , , , ,0.731,-0.599,-109.534
 12:45:42.279,eb:33:2e:f9:57:b5, 2015-01-01 00:31:47.210,0.002,0.015,1.008,-0.977,-0.793,0.793, , , , , , ,0.725,-0.604,-109.528
 12:45:42.367,eb:33:2e:f9:57:b5, 2015-01-01 00:31:47.210,0.003,0.013,1.016,-0.427,0.61,0.793, , , , , , ,0.72,-0.604,-109.523
 12:45:42.367,eb:33:2e:f9:57:b5, 2015-01-01 00:31:47.210,-0.005,0.009,1.019,0.183,1.892,0.977, , , , , , ,0.72,-0.593,-109.517
 12:45:42.367,eb:33:2e:f9:57:b5, 2015-01-01 00:31:47.210,0,0.017,1.003,0.366,1.648,0, , , , , , ,0.72,-0.582,-109.517
 12:45:42.367,eb:33:2e:f9:57:b5, 2015-01-01 00:31:47.210,-0.006,0.009,1.016,0.916,2.747,-0.061, , , , , , ,0.725,-0.571,-109.517
 12:45:42.367,eb:33:2e:f9:57:b5, 2015-01-01 00:31:47.210,-0.007,0.012,1.008,1.465,3.296,-0.183, , , , , , ,0.731,-0.555,-109.517
 12:45:42.367,eb:33:2e:f9:57:b5, 2015-01-01 00:31:47.210,-0.009,0.016,1.005,1.709,3.54,-0.305, , , , , , ,0.736,-0.538,-109.523
 12:45:42.367,eb:33:2e:f9:57:b5, 2015-01-01 00:31:47.210,-0.012,0.012,1.006,2.136,4.028,0, , , , , , ,0.747,-0.516,-109.523
 12:45:42.367,eb:33:2e:f9:57:b5, 2015-01-01 00:31:47.210,-0.006,0.016,1.001,2.197,3.967,-0.366, , , , , , ,0.758,-0.5,-109.523
 12:45:42.367,eb:33:2e:f9:57:b5, 2015-01-01 00:31:47.210,-0.01,0.021,1.003,2.38,3.967,-0.977, , , , , , ,0.769,-0.478,-109.528
 12:45:42.367,eb:33:2e:f9:57:b5, 2015-01-01 00:31:47.210,-0.009,0.015,1.004,2.686,4.15,-0.793, , , , , , ,0.78,-0.456,-109.534
 12:45:42.367,eb:33:2e:f9:57:b5, 2015-01-01 00:31:47.210,-0.008,0.013,1.003,3.052,4.272,-0.793, , , , , , ,0.797,-0.434,-109.534
 12:45:42.368,eb:33:2e:f9:57:b5, 2015-01-01 00:31:47.210,-0.008,0.011,1.005,3.54,4.517,-0.549, , , , , , ,0.813,-0.412,-109.539
 12:45:42.368,eb:33:2e:f9:57:b5, 2015-01-01 00:31:47.210,-0.011,0.016,1.005,3.723,4.761,-1.099, , , , , , ,0.829,-0.39,-109.545
 12:45:42.368,eb:33:2e:f9:57:b5, 2015-01-01 00:31:47.210,-0.01,0.016,1.002,4.028,4.639,-0.977, , , , , , ,0.851,-0.363,-109.55
 12:45:42.368,eb:33:2e:f9:57:b5, 2015-01-01 00:31:47.210,-0.005,0.011,1.004,4.089,4.822,-1.831, , , , , , ,0.868,-0.335,-109.561
 12:45:42.368,eb:33:2e:f9:57:b5, 2015-01-01 00:31:47.210,-0.008,0.022,1.008,4.15,5.249,-2.014, , , , , , ,0.89,-0.313,-109.567
 12:45:42.387,eb:33:2e:f9:57:b5, 2015-01-01 00:31:47.210,-0.002,0.016,1.006,4.395,5.31,-2.197, , , , , , ,0.912,-0.286,-109.578
 12:45:42.387,eb:33:2e:f9:57:b5, 2015-01-01 00:31:47.210,-0.004,0.015,1.011,4.639,6.042,-2.38, , , , , , ,0.934,-0.253,-109.589
 12:45:42.387,eb:33:2e:f9:57:b5, 2015-01-01 00:31:47.210,-0.009,0.018,1.007,4.822,6.714,-2.38, , , , , , ,0.961,-0.22,-109.6
 12:45:42.387,eb:33:2e:f9:57:b5, 2015-01-01 00:31:47.210,-0.01,0.018,1.003,4.883,7.019,-2.197, , , , , , ,0.983,-0.187,-109.611
 12:45:42.387,eb:33:2e:f9:57:b5, 2015-01-01 00:31:47.210,-0.016,0.019,1,4.822,7.141,-2.319, , , , , , ,1.005,-0.154,-109.627
 12:45:42.387,eb:33:2e:f9:57:b5, 2015-01-01 00:31:47.210,-0.015,0.018,0.998,4.7,6.897,-2.319, , , , , , ,1.033,-0.11,-109.638
 12:45:42.387,eb:33:2e:f9:57:b5, 2015-01-01 00:31:47.210,-0.013,0.018,0.999,4.578,6.775,-2.258, , , , , , ,1.055,-0.077,-109.649
 12:45:42.387,eb:33:2e:f9:57:b5, 2015-01-01 00:31:47.210,-0.014,0.017,1,4.639,6.836,-2.197, , , , , , ,1.077,-0.044,-109.66
 12:45:42.433,eb:33:2e:f9:57:b5, 2015-01-01 00:31:47.210,-0.012,0.02,0.999,4.578,6.897,-2.075, , , , , , ,1.099,-0.011,-109.666
 12:45:42.433,eb:33:2e:f9:57:b5, 2015-01-01 00:31:47.210,-0.009,0.022,0.999,4.456,6.958,-2.014, , , , , , ,1.121,0.022,-109.677
 12:45:42.433,eb:33:2e:f9:57:b5, 2015-01-01 00:31:47.210,-0.01,0.023,1.002,4.395,7.385,-2.075, , , , , , ,1.143,0.06,-109.688
 12:45:42.433,eb:33:2e:f9:57:b5, 2015-01-01 00:31:47.210,-0.013,0.022,1.001,4.395,7.629,-2.136, , , , , , ,1.165,0.099,-109.698
 12:45:42.433,eb:33:2e:f9:57:b5, 2015-01-01 00:31:47.210,-0.015,0.024,1.001,4.272,7.812,-2.197, , , , , , ,1.187,0.137,-109.709
 12:45:42.433,eb:33:2e:f9:57:b5, 2015-01-01 00:31:47.210,-0.016,0.023,1.001,4.272,7.935,-2.197, , , , , , ,1.208,0.181,-109.72
 12:45:42.433,eb:33:2e:f9:57:b5, 2015-01-01 00:31:47.210,-0.017,0.024,1,4.333,7.935,-2.197, , , , , , ,1.23,0.22,-109.731
 12:45:42.433,eb:33:2e:f9:57:b5, 2015-01-01 00:31:47.210,-0.019,0.024,1,4.333,8.057,-2.258, , , , , , ,1.252,0.258,-109.742
 12:45:42.523,eb:33:2e:f9:57:b5, 2015-01-01 00:31:47.900,-0.021,0.026,0.999,4.272,7.996,-2.38, , , , , , ,1.274,0.297,-109.753
 12:45:42.523,eb:33:2e:f9:57:b5, 2015-01-01 00:31:47.900,-0.02,0.027,0.996,4.089,7.751,-2.563, , , , , , ,1.296,0.341,-109.764
 12:45:42.523,eb:33:2e:f9:57:b5, 2015-01-01 00:31:47.900,-0.026,0.029,0.996,3.906,7.507,-2.747, , , , , , ,1.313,0.379,-109.775
 12:45:42.523,eb:33:2e:f9:57:b5, 2015-01-01 00:31:47.900,-0.02,0.026,0.994,3.784,7.202,-2.808, , , , , , ,1.329,0.417,-109.792
 12:45:42.523,eb:33:2e:f9:57:b5, 2015-01-01 00:31:47.900,-0.026,0.03,0.996,3.601,7.202,-2.869, , , , , , ,1.351,0.45,-109.803
 12:45:42.523,eb:33:2e:f9:57:b5, 2015-01-01 00:31:47.900,-0.023,0.027,0.995,3.418,7.019,-2.869, , , , , , ,1.368,0.494,-109.819
 12:45:42.523,eb:33:2e:f9:57:b5, 2015-01-01 00:31:47.900,-0.021,0.028,0.996,3.235,7.263,-2.502, , , , , , ,1.384,0.527,-109.83
 12:45:42.523,eb:33:2e:f9:57:b5, 2015-01-01 00:31:47.900,-0.033,0.023,1,3.174,8.362,-1.404, , , , , , ,1.401,0.566,-109.841
 12:45:42.523,eb:33:2e:f9:57:b5, 2015-01-01 00:31:47.900,-0.03,0.033,0.986,3.113,7.202,-1.892, , , , , , ,1.412,0.61,-109.847
 12:45:42.523,eb:33:2e:f9:57:b5, 2015-01-01 00:31:47.900,-0.026,0.028,0.993,2.991,6.592,-2.014, , , , , , ,1.428,0.643,-109.858
 12:45:42.523,eb:33:2e:f9:57:b5, 2015-01-01 00:31:47.900,-0.025,0.029,0.994,2.869,6.531,-1.953, , , , , , ,1.445,0.676,-109.863
 12:45:42.523,eb:33:2e:f9:57:b5, 2015-01-01 00:31:47.900,-0.021,0.026,0.997,2.93,6.409,-1.892, , , , , , ,1.461,0.709,-109.874
 12:45:42.523,eb:33:2e:f9:57:b5, 2015-01-01 00:31:47.900,-0.024,0.022,1.008,3.357,6.897,-1.77, , , , , , ,1.472,0.742,-109.88
 12:45:42.523,eb:33:2e:f9:57:b5, 2015-01-01 00:31:47.900,-0.025,0.016,1.013,3.906,7.324,-1.587, , , , , , ,1.494,0.78,-109.891
 12:45:42.523,eb:33:2e:f9:57:b5, 2015-01-01 00:31:47.900,-0.029,0.015,1.014,4.517,7.751,-1.892, , , , , , ,1.516,0.818,-109.896
 12:45:42.523,eb:33:2e:f9:57:b5, 2015-01-01 00:31:47.900,-0.034,0.018,1.011,5.066,8.057,-1.77, , , , , , ,1.538,0.862,-109.907
 12:45:42.546,eb:33:2e:f9:57:b5, 2015-01-01 00:31:47.900,-0.028,0.023,1.005,5.615,7.751,-2.136, , , , , , ,1.566,0.901,-109.918
 12:45:42.546,eb:33:2e:f9:57:b5, 2015-01-01 00:31:47.900,-0.034,0.017,1.014,6.165,8.423,-1.953, , , , , , ,1.593,0.945,-109.924
 12:45:42.546,eb:33:2e:f9:57:b5, 2015-01-01 00:31:47.900,-0.034,0.02,1.007,6.592,8.423,-2.258, , , , , , ,1.626,0.989,-109.935
 12:45:42.546,eb:33:2e:f9:57:b5, 2015-01-01 00:31:47.900,-0.033,0.021,1.01,7.202,8.179,-2.563, , , , , , ,1.659,1.027,-109.946
 12:45:42.546,eb:33:2e:f9:57:b5, 2015-01-01 00:31:47.900,-0.034,0.027,1.011,7.568,8.179,-2.869, , , , , , ,1.697,1.071,-109.957
 12:45:42.546,eb:33:2e:f9:57:b5, 2015-01-01 00:31:47.900,-0.027,0.026,1.011,7.935,8.179,-2.869, , , , , , ,1.736,1.115,-109.973
 12:45:42.546,eb:33:2e:f9:57:b5, 2015-01-01 00:31:47.900,-0.038,0.021,1.019,8.24,8.606,-2.93, , , , , , ,1.774,1.159,-109.984
 12:45:42.546,eb:33:2e:f9:57:b5, 2015-01-01 00:31:47.900,-0.021,0.024,1.011,8.545,8.179,-3.235, , , , , , ,1.818,1.198,-110.001
 12:45:42.591,eb:33:2e:f9:57:b5, 2015-01-01 00:31:47.900,-0.02,0.029,1.025,9.033,9.644,-3.357, , , , , , ,1.862,1.247,-110.017
 12:45:42.591,eb:33:2e:f9:57:b5, 2015-01-01 00:31:47.900,-0.012,0.031,1.03,9.521,10.925,-3.357, , , , , , ,1.906,1.302,-110.028
 12:45:42.591,eb:33:2e:f9:57:b5, 2015-01-01 00:31:47.900,-0.006,0.035,1.038,10.132,12.756,-3.784, , , , , , ,1.956,1.362,-110.045
 12:45:42.591,eb:33:2e:f9:57:b5, 2015-01-01 00:31:47.900,-0.001,0.033,1.05,10.986,14.832,-4.211, , , , , , ,2.01,1.434,-110.061
 12:45:42.591,eb:33:2e:f9:57:b5, 2015-01-01 00:31:47.900,0.024,0.038,1.047,11.536,16.724,-4.822, , , , , , ,2.065,1.511,-110.083
 12:45:42.591,eb:33:2e:f9:57:b5, 2015-01-01 00:31:47.900,0.034,0.045,1.084,12.512,20.081,-6.165, , , , , , ,2.126,1.609,-110.11
 12:45:42.591,eb:33:2e:f9:57:b5, 2015-01-01 00:31:47.900,0.042,0.053,1.114,13.367,24.597,-7.629, , , , , , ,2.186,1.725,-110.143
 12:45:42.591,eb:33:2e:f9:57:b5, 2015-01-01 00:31:47.900,0.079,0.053,1.122,15.076,29.541,-9.155, , , , , , ,2.258,1.862,-110.176
 12:45:42.679,eb:33:2e:f9:57:b5, 2015-01-01 00:31:47.900,0.03,0.074,1.146,17.334,34.424,-11.78, , , , , , ,2.34,2.027,-110.226
 12:45:42.679,eb:33:2e:f9:57:b5, 2015-01-01 00:31:47.900,-0.019,0.048,1.125,20.264,35.889,-13.489, , , , , , ,2.433,2.214,-110.281
 12:45:42.679,eb:33:2e:f9:57:b5, 2015-01-01 00:31:47.900,-0.078,-0.029,1.254,25.757,38.086,-13.123, , , , , , ,2.543,2.401,-110.341
 12:45:42.679,eb:33:2e:f9:57:b5, 2015-01-01 00:31:47.900,-0.062,-0.033,1.239,30.945,39.49,-11.475, , , , , , ,2.686,2.598,-110.396
 12:45:42.679,eb:33:2e:f9:57:b5, 2015-01-01 00:31:47.900,-0.027,-0.023,1.25,37.048,39.307,-10.62, , , , , , ,2.856,2.796,-110.44
 12:45:42.679,eb:33:2e:f9:57:b5, 2015-01-01 00:31:47.900,-0.022,0,1.201,38.086,43.396,-8.728, , , , , , ,3.049,3.01,-110.479
 12:45:42.679,eb:33:2e:f9:57:b5, 2015-01-01 00:31:47.900,-0.02,0.044,1.115,41.138,39.978,-8.728, , , , , , ,3.241,3.219,-110.511
 12:45:42.679,eb:33:2e:f9:57:b5, 2015-01-01 00:31:47.900,-0.109,0.016,1.221,45.471,40.344,-8.118, , , , , , ,3.461,3.422,-110.539
 12:45:42.682,eb:33:2e:f9:57:b5, 2015-01-01 00:31:47.900,0.003,-0.052,1.265,52.856,36.499,-5.798, , , , , , ,3.702,3.615,-110.561
 12:45:42.682,eb:33:2e:f9:57:b5, 2015-01-01 00:31:47.900,-0.064,0.064,1.249,60.242,33.447,-7.202, , , , , , ,3.994,3.79,-110.583
 12:45:42.682,eb:33:2e:f9:57:b5, 2015-01-01 00:31:47.900,-0.098,-0.011,1.323,66.528,35.217,-7.141, , , , , , ,4.307,3.966,-110.61
 12:45:42.682,eb:33:2e:f9:57:b5, 2015-01-01 00:31:47.900,-0.057,-0.054,1.404,74.402,37.231,-6.226, , , , , , ,4.664,4.147,-110.627
 12:45:42.684,eb:33:2e:f9:57:b5, 2015-01-01 00:31:47.900,-0.013,-0.028,1.42,81.726,40.771,-6.042, , , , , , ,5.054,4.345,-110.643
 12:45:42.684,eb:33:2e:f9:57:b5, 2015-01-01 00:31:47.900,-0.034,-0.002,1.43,89.05,45.654,-6.042, , , , , , ,5.488,4.57,-110.654
 12:45:42.684,eb:33:2e:f9:57:b5, 2015-01-01 00:31:47.900,0,0.044,1.347,97.29,44.067,-7.324, , , , , , ,5.955,4.796,-110.665
 12:45:42.684,eb:33:2e:f9:57:b5, 2015-01-01 00:31:47.900,-0.05,0.036,1.351,104.736,45.837,-8.118, , , , , , ,6.46,5.026,-110.676
 12:45:42.703,eb:33:2e:f9:57:b5, 2015-01-01 00:31:47.900,-0.052,-0.007,1.312,111.206,46.326,-6.653, , , , , , ,7.004,5.262,-110.687
 12:45:42.703,eb:33:2e:f9:57:b5, 2015-01-01 00:31:47.900,-0.027,-0.004,1.325,116.028,48.279,-4.822, , , , , , ,7.575,5.504,-110.687
 12:45:42.703,eb:33:2e:f9:57:b5, 2015-01-01 00:31:47.900,-0.014,0.017,1.382,121.887,52.246,-3.235, , , , , , ,8.174,5.751,-110.671
 12:45:42.703,eb:33:2e:f9:57:b5, 2015-01-01 00:31:47.900,-0.021,0.057,1.451,130.127,52.673,-4.089, , , , , , ,8.806,6.015,-110.654
 12:45:42.703,eb:33:2e:f9:57:b5, 2015-01-01 00:31:47.900,-0.081,0.011,1.43,138.123,55.298,-4.15, , , , , , ,9.481,6.284,-110.632
 12:45:42.703,eb:33:2e:f9:57:b5, 2015-01-01 00:31:47.900,-0.086,-0.026,1.472,145.935,56.213,-3.174, , , , , , ,10.201,6.564,-110.599
 12:45:42.703,eb:33:2e:f9:57:b5, 2015-01-01 00:31:47.900,-0.052,-0.051,1.54,156.128,58.96,-1.587, , , , , , ,10.964,6.85,-110.555
 12:45:42.703,eb:33:2e:f9:57:b5, 2015-01-01 00:31:47.900,-0.024,-0.019,1.602,167.175,61.401,-0.427, , , , , , ,11.783,7.147,-110.5
 12:45:42.793,eb:33:2e:f9:57:b5, 2015-01-01 00:31:47.900,-0.003,0.024,1.598,179.382,61.279,-0.427, , , , , , ,12.662,7.449,-110.44
 12:45:42.793,eb:33:2e:f9:57:b5, 2015-01-01 00:31:47.900,0.012,0.049,1.614,191.101,62.866,-1.099, , , , , , ,13.607,7.751,-110.374
 12:45:42.793,eb:33:2e:f9:57:b5, 2015-01-01 00:31:47.900,0.081,0.036,1.677,202.698,67.078,-3.174, , , , , , ,14.601,8.069,-110.303
 12:45:42.793,eb:33:2e:f9:57:b5, 2015-01-01 00:31:47.900,0.119,0.039,1.704,214.294,72.51,-5.615, , , , , , ,15.661,8.416,-110.231
 12:45:42.793,eb:33:2e:f9:57:b5, 2015-01-01 00:31:47.900,0.157,0.062,1.695,224.67,75.867,-11.047, , , , , , ,16.771,8.789,-110.171
 12:45:42.793,eb:33:2e:f9:57:b5, 2015-01-01 00:31:47.900,0.137,0,1.755,235.901,81.238,-16.663, , , , , , ,17.935,9.19,-110.121
 12:45:42.793,eb:33:2e:f9:57:b5, 2015-01-01 00:31:47.900,0.062,-0.021,1.853,246.399,86.792,-22.034, , , , , , ,19.155,9.619,-110.083
 12:45:42.793,eb:33:2e:f9:57:b5, 2015-01-01 00:31:47.900,0.039,-0.096,2.109,253.357,105.225,-23.01, , , , , , ,20.418,10.113,-110.023
 12:45:42.795,eb:33:2e:f9:57:b5, 2015-01-01 00:31:47.900,0.1,-0.187,2.271,265.076,134.155,-19.287, , , , , , ,21.736,10.723,-109.896
 12:45:42.795,eb:33:2e:f9:57:b5, 2015-01-01 00:31:47.900,0.399,0.177,2.043,284.729,138.916,-23.804, , , , , , ,23.148,11.415,-109.726
 12:45:42.795,eb:33:2e:f9:57:b5, 2015-01-01 00:31:47.900,0.439,0.258,1.832,303.65,130.432,-34.973, , , , , , ,24.659,12.09,-109.589
 12:45:42.795,eb:33:2e:f9:57:b5, 2015-01-01 00:31:47.900,0.448,0.137,2.016,320.068,124.329,-45.105, , , , , , ,26.246,12.75,-109.501
 12:45:42.795,eb:33:2e:f9:57:b5, 2015-01-01 00:31:47.900,0.315,0.139,2.316,336.426,125.183,-56.213, , , , , , ,27.905,13.42,-109.451
 12:45:42.795,eb:33:2e:f9:57:b5, 2015-01-01 00:31:47.900,0.085,0.21,2.746,348.206,148.621,-65.918, , , , , , ,29.636,14.172,-109.396
 12:45:42.795,eb:33:2e:f9:57:b5, 2015-01-01 00:31:47.900,0.518,0.29,2.799,361.633,171.448,-63.477, , , , , , ,31.454,15.057,-109.226
 12:45:42.795,eb:33:2e:f9:57:b5, 2015-01-01 00:31:47.900,0.382,0.418,2.472,369.324,147.888,-76.538, , , , , , ,33.322,15.908,-109.105
 12:45:42.838,eb:33:2e:f9:57:b5, 2015-01-01 00:31:47.900,0.343,0.175,2.879,370.056,153.076,-82.886, , , , , , ,35.189,16.749,-109.023
 12:45:42.838,eb:33:2e:f9:57:b5, 2015-01-01 00:31:47.900,0.514,-0.079,3.394,377.563,183.838,-81.055, , , , , , ,37.112,17.682,-108.842
 12:45:42.838,eb:33:2e:f9:57:b5, 2015-01-01 00:31:47.900,0.702,0.021,2.852,379.944,192.505,-85.144, , , , , , ,39.095,18.688,-108.561
 12:45:42.838,eb:33:2e:f9:57:b5, 2015-01-01 00:31:47.900,0.638,-0.104,2.697,380.676,196.411,-90.942, , , , , , ,41.1,19.72,-108.248
 12:45:42.838,eb:33:2e:f9:57:b5, 2015-01-01 00:31:47.900,0.467,0.098,2.939,374.084,217.957,-104.248, , , , , , ,43.105,20.808,-107.908
 12:45:42.838,eb:33:2e:f9:57:b5, 2015-01-01 00:31:47.900,0.287,-0.878,3.273,363.464,273.438,-89.05, , , , , , ,45.148,22.055,-107.325
 12:45:42.838,eb:33:2e:f9:57:b5, 2015-01-01 00:31:47.900,0.833,-0.399,2.128,355.408,246.643,-92.834, , , , , , ,47.197,23.275,-106.661
 12:45:42.838,eb:33:2e:f9:57:b5, 2015-01-01 00:31:47.900,0.9,-0.581,2.5,352.112,248.901,-89.172, , , , , , ,49.23,24.439,-105.985
 12:45:42.883,eb:33:2e:f9:57:b5, 2015-01-01 00:31:48.325,1.004,-0.985,2.112,360.352,244.019,-88.318, , , , , , ,51.323,25.565,-105.244
 12:45:42.883,eb:33:2e:f9:57:b5, 2015-01-01 00:31:48.325,1.248,-1.274,1.282,371.826,212.952,-98.45, , , , , , ,53.443,26.62,-104.568
 12:45:42.883,eb:33:2e:f9:57:b5, 2015-01-01 00:31:48.325,1.115,-1.328,1.045,389.282,190.125,-105.53, , , , , , ,55.613,27.614,-103.997
 12:45:42.883,eb:33:2e:f9:57:b5, 2015-01-01 00:31:48.325,0.859,-1.121,1.31,425.842,172.852,-120.361, , , , , , ,57.887,28.592,-103.502
 12:45:42.883,eb:33:2e:f9:57:b5, 2015-01-01 00:31:48.325,0.514,-1.323,1.39,492.92,135.864,-131.165, , , , , , ,60.397,29.531,-103.123
 12:45:42.883,eb:33:2e:f9:57:b5, 2015-01-01 00:31:48.325,0.355,-0.4,0.388,493.835,72.327,-144.958, , , , , , ,62.957,30.377,-103.008
 12:45:42.883,eb:33:2e:f9:57:b5, 2015-01-01 00:31:48.325,0.15,0.094,-0.191,428.101,30.64,-148.315, , , , , , ,65.165,31.146,-103.151
 12:45:42.883,eb:33:2e:f9:57:b5, 2015-01-01 00:31:48.325,0.18,-0.152,-1.139,329.773,-6.897,-140.869, , , , , , ,66.874,31.816,-103.442
 12:45:42.905,eb:33:2e:f9:57:b5, 2015-01-01 00:31:48.325,0.369,-0.588,-2.261,182.678,-24.353,-125.732, , , , , , ,67.879,32.393,-103.848
 12:45:42.905,eb:33:2e:f9:57:b5, 2015-01-01 00:31:48.325,0.29,-1.315,-2.408,28.137,-30.884,-103.088, , , , , , ,68.088,32.86,-104.26
 12:45:42.905,eb:33:2e:f9:57:b5, 2015-01-01 00:31:48.325,0.035,-1.689,-1.004,-88.806,-40.649,-76.904, , , , , , ,67.637,33.195,-104.661
 12:45:42.905,eb:33:2e:f9:57:b5, 2015-01-01 00:31:48.325,-0.152,-1.548,0.192,-161.621,-43.884,-47.424, , , , , , ,66.753,33.387,-105.035
 12:45:42.905,eb:33:2e:f9:57:b5, 2015-01-01 00:31:48.325,-0.065,-1.283,0.735,-202.637,-47.974,-18.311, , , , , , ,65.627,33.431,-105.364
 12:45:42.905,eb:33:2e:f9:57:b5, 2015-01-01 00:31:48.325,0.143,-1.099,1.024,-220.337,-48.706,6.836, , , , , , ,64.391,33.338,-105.645
 12:45:42.905,eb:33:2e:f9:57:b5, 2015-01-01 00:31:48.325,0.272,-0.985,1.064,-222.473,-48.523,27.466, , , , , , ,63.16,33.14,-105.853
 12:45:42.905,eb:33:2e:f9:57:b5, 2015-01-01 00:31:48.325,0.308,-0.929,0.877,-216.37,-50.903,44.8, , , , , , ,61.979,32.86,-106.007
 12:45:42.950,eb:33:2e:f9:57:b5, 2015-01-01 00:31:48.325,0.331,-0.878,0.602,-208.313,-57.922,60.364, , , , , , ,60.848,32.487,-106.139
 12:45:42.950,eb:33:2e:f9:57:b5, 2015-01-01 00:31:48.325,0.343,-0.78,0.383,-202.332,-68.237,73.914, , , , , , ,59.738,32.031,-106.271
 12:45:42.950,eb:33:2e:f9:57:b5, 2015-01-01 00:31:48.325,0.344,-0.642,0.229,-199.646,-83.435,84.229, , , , , , ,58.661,31.487,-106.419
 12:45:42.950,eb:33:2e:f9:57:b5, 2015-01-01 00:31:48.325,0.358,-0.537,0.137,-200.5,-102.539,91.37, , , , , , ,57.557,30.861,-106.611
 12:45:42.950,eb:33:2e:f9:57:b5, 2015-01-01 00:31:48.325,0.378,-0.496,0.12,-205.505,-121.338,96.558, , , , , , ,56.409,30.152,-106.864
 12:45:42.950,eb:33:2e:f9:57:b5, 2015-01-01 00:31:48.325,0.402,-0.491,0.145,-214.111,-137.268,100.098, , , , , , ,55.19,29.372,-107.183
 12:45:42.950,eb:33:2e:f9:57:b5, 2015-01-01 00:31:48.325,0.418,-0.49,0.206,-225.586,-149.048,102.051, , , , , , ,53.921,28.537,-107.518
 12:45:42.950,eb:33:2e:f9:57:b5, 2015-01-01 00:31:48.325,0.429,-0.481,0.306,-238.586,-157.349,102.051, , , , , , ,52.586,27.669,-107.869
 12:45:43.019,eb:33:2e:f9:57:b5, 2015-01-01 00:31:48.325,0.442,-0.456,0.433,-251.831,-162.231,100.159, , , , , , ,51.185,26.774,-108.226
 12:45:43.019,eb:33:2e:f9:57:b5, 2015-01-01 00:31:48.325,0.452,-0.409,0.586,-267.09,-163.94,95.459, , , , , , ,49.708,25.873,-108.594
 12:45:43.019,eb:33:2e:f9:57:b5, 2015-01-01 00:31:48.325,0.454,-0.372,0.687,-278.503,-163.33,89.966, , , , , , ,48.186,24.983,-108.94
 12:45:43.019,eb:33:2e:f9:57:b5, 2015-01-01 00:31:48.325,0.45,-0.338,0.754,-288.086,-162.598,83.008, , , , , , ,46.62,24.12,-109.276
 12:45:43.019,eb:33:2e:f9:57:b5, 2015-01-01 00:31:48.325,0.44,-0.306,0.797,-295.044,-162.659,75.256, , , , , , ,45.022,23.269,-109.616
 12:45:43.019,eb:33:2e:f9:57:b5, 2015-01-01 00:31:48.325,0.421,-0.279,0.836,-299.011,-163.818,67.078, , , , , , ,43.38,22.434,-109.968
 12:45:43.019,eb:33:2e:f9:57:b5, 2015-01-01 00:31:48.325,0.396,-0.253,0.871,-300.11,-166.199,58.838, , , , , , ,41.748,21.616,-110.325
 12:45:43.019,eb:33:2e:f9:57:b5, 2015-01-01 00:31:48.325,0.369,-0.224,0.895,-299.072,-169.8,50.659, , , , , , ,40.111,20.803,-110.693
 12:45:43.042,eb:33:2e:f9:57:b5, 2015-01-01 00:31:48.325,0.336,-0.194,0.916,-296.509,-174.316,42.847, , , , , , ,38.485,19.99,-111.088
 12:45:43.042,eb:33:2e:f9:57:b5, 2015-01-01 00:31:48.325,0.3,-0.167,0.939,-293.335,-179.504,35.4, , , , , , ,36.854,19.166,-111.506
 12:45:43.042,eb:33:2e:f9:57:b5, 2015-01-01 00:31:48.325,0.258,-0.144,0.969,-290.161,-185.181,28.32, , , , , , ,35.255,18.331,-111.945
 12:45:43.042,eb:33:2e:f9:57:b5, 2015-01-01 00:31:48.325,0.21,-0.128,1,-287.415,-190.979,21.912, , , , , , ,33.673,17.485,-112.396
 12:45:43.042,eb:33:2e:f9:57:b5, 2015-01-01 00:31:48.325,0.158,-0.125,1.046,-285.461,-196.289,16.357, , , , , , ,32.102,16.617,-112.868
 12:45:43.042,eb:33:2e:f9:57:b5, 2015-01-01 00:31:48.325,0.105,-0.135,1.107,-283.997,-200.562,11.963, , , , , , ,30.526,15.727,-113.351
 12:45:43.042,eb:33:2e:f9:57:b5, 2015-01-01 00:31:48.325,0.041,-0.155,1.186,-283.203,-202.82,8.911, , , , , , ,28.982,14.821,-113.824
 12:45:43.042,eb:33:2e:f9:57:b5, 2015-01-01 00:31:48.325,-0.021,-0.184,1.258,-283.081,-203.43,7.507, , , , , , ,27.455,13.909,-114.285
 12:45:43.063,eb:33:2e:f9:57:b5, 2015-01-01 00:31:48.325,-0.078,-0.214,1.326,-283.691,-201.782,7.874, , , , , , ,25.933,12.986,-114.719
 12:45:43.063,eb:33:2e:f9:57:b5, 2015-01-01 00:31:48.325,-0.13,-0.25,1.385,-285.278,-197.937,9.949, , , , , , ,24.406,12.052,-115.115
 12:45:43.063,eb:33:2e:f9:57:b5, 2015-01-01 00:31:48.325,-0.177,-0.286,1.432,-287.476,-192.139,13.672, , , , , , ,22.901,11.135,-115.455
 12:45:43.063,eb:33:2e:f9:57:b5, 2015-01-01 00:31:48.325,-0.216,-0.317,1.467,-289.856,-185.791,18.677, , , , , , ,21.401,10.234,-115.741
 12:45:43.063,eb:33:2e:f9:57:b5, 2015-01-01 00:31:48.325,-0.242,-0.343,1.495,-291.87,-179.688,24.536, , , , , , ,19.907,9.344,-115.961
 12:45:43.063,eb:33:2e:f9:57:b5, 2015-01-01 00:31:48.325,-0.251,-0.355,1.524,-293.091,-174.5,31.006, , , , , , ,18.402,8.454,-116.12
 12:45:43.063,eb:33:2e:f9:57:b5, 2015-01-01 00:31:48.325,-0.253,-0.355,1.558,-292.908,-170.837,37.598, , , , , , ,16.919,7.581,-116.219
 12:45:43.063,eb:33:2e:f9:57:b5, 2015-01-01 00:31:48.325,-0.246,-0.34,1.602,-291.138,-168.701,43.823, , , , , , ,15.458,6.707,-116.252
 12:45:43.153,eb:33:2e:f9:57:b5, 2015-01-01 00:31:48.325,-0.232,-0.313,1.664,-287.476,-167.542,49.438, , , , , , ,14.013,5.834,-116.241
 12:45:43.153,eb:33:2e:f9:57:b5, 2015-01-01 00:31:48.325,-0.214,-0.274,1.742,-282.227,-167.053,54.321, , , , , , ,12.574,4.949,-116.175
 12:45:43.153,eb:33:2e:f9:57:b5, 2015-01-01 00:31:48.325,-0.17,-0.229,1.836,-275.452,-166.809,58.167, , , , , , ,11.19,4.076,-116.071
 12:45:43.153,eb:33:2e:f9:57:b5, 2015-01-01 00:31:48.325,-0.157,-0.146,1.914,-269.47,-168.335,57.861, , , , , , ,9.838,3.197,-115.939
 12:45:43.153,eb:33:2e:f9:57:b5, 2015-01-01 00:31:48.325,-0.152,-0.135,2.049,-260.315,-164.734,60.669, , , , , , ,8.52,2.324,-115.779
 12:45:43.153,eb:33:2e:f9:57:b5, 2015-01-01 00:31:48.325,-0.143,-0.032,2.157,-249.207,-162.231,63.354, , , , , , ,7.234,1.456,-115.593
 12:45:43.153,eb:33:2e:f9:57:b5, 2015-01-01 00:31:48.325,-0.182,0.063,2.329,-235.779,-157.41,65.674, , , , , , ,6.031,0.626,-115.362
 12:45:43.153,eb:33:2e:f9:57:b5, 2015-01-01 00:31:48.325,-0.191,0.173,2.424,-221.436,-157.837,63.232, , , , , , ,4.894,-0.181,-115.115
 12:45:43.155,eb:33:2e:f9:57:b5, 2015-01-01 00:31:48.325,-0.229,0.303,2.521,-206.543,-155.64,62.744, , , , , , ,3.829,-0.989,-114.862
 12:45:43.155,eb:33:2e:f9:57:b5, 2015-01-01 00:31:48.325,-0.285,0.435,2.541,-191.772,-156.494,63.11, , , , , , ,2.812,-1.791,-114.593
 12:45:43.155,eb:33:2e:f9:57:b5, 2015-01-01 00:31:48.325,-0.409,0.584,2.549,-179.26,-160.461,64.331, , , , , , ,1.879,-2.598,-114.307
 12:45:43.155,eb:33:2e:f9:57:b5, 2015-01-01 00:31:48.325,-0.531,0.798,2.555,-172.485,-167.542,67.261, , , , , , ,0.989,-3.428,-113.994
 12:45:43.155,eb:33:2e:f9:57:b5, 2015-01-01 00:31:48.325,-0.64,0.982,2.577,-175.415,-171.997,70.679, , , , , , ,0.099,-4.285,-113.659
 12:45:43.155,eb:33:2e:f9:57:b5, 2015-01-01 00:31:48.325,-0.724,1.166,2.606,-185.791,-172.791,74.463, , , , , , ,-0.851,-5.153,-113.286
 12:45:43.155,eb:33:2e:f9:57:b5, 2015-01-01 00:31:48.325,-0.792,1.335,2.624,-202.515,-169.128,78.979, , , , , , ,-1.868,-5.999,-112.879
 12:45:43.155,eb:33:2e:f9:57:b5, 2015-01-01 00:31:48.325,-0.882,1.527,2.642,-224.609,-160.339,83.984, , , , , , ,-2.999,-6.806,-112.434
 12:45:43.197,eb:33:2e:f9:57:b5, 2015-01-01 00:31:48.325,-0.947,1.745,2.585,-251.038,-148.56,88.684, , , , , , ,-4.263,-7.542,-111.945
 12:45:43.197,eb:33:2e:f9:57:b5, 2015-01-01 00:31:48.325,-0.966,1.936,2.489,-280.457,-132.935,93.384, , , , , , ,-5.691,-8.201,-111.423
 12:45:43.197,eb:33:2e:f9:57:b5, 2015-01-01 00:31:48.325,-0.914,2.096,2.364,-309.937,-112.854,97.107, , , , , , ,-7.267,-8.751,-110.874
 12:45:43.197,eb:33:2e:f9:57:b5, 2015-01-01 00:31:48.325,-0.754,2.213,2.247,-335.327,-88.562,99.426, , , , , , ,-8.981,-9.174,-110.308
 12:45:43.197,eb:33:2e:f9:57:b5, 2015-01-01 00:31:48.325,-0.539,2.357,2.187,-352.417,-57.495,99.731, , , , , , ,-10.811,-9.432,-109.748
 12:45:43.197,eb:33:2e:f9:57:b5, 2015-01-01 00:31:48.325,-0.354,2.601,2.107,-357.239,-23.376,96.252, , , , , , ,-12.689,-9.52,-109.226
 12:45:43.197,eb:33:2e:f9:57:b5, 2015-01-01 00:31:48.325,-0.274,2.942,1.942,-347.412,6.226,88.501, , , , , , ,-14.529,-9.432,-108.765
 12:45:43.197,eb:33:2e:f9:57:b5, 2015-01-01 00:31:48.325,-0.307,3.35,1.648,-320.557,21.423,76.172, , , , , , ,-16.254,-9.245,-108.391
 12:45:43.287,eb:33:2e:f9:57:b5, 2015-01-01 00:31:48.685,-0.479,3.767,1.228,-276.794,12.756,60.974, , , , , , ,-17.781,-9.058,-108.094
 12:45:43.287,eb:33:2e:f9:57:b5, 2015-01-01 00:31:48.685,-0.741,4.08,0.719,-218.201,-24.353,45.41, , , , , , ,-19.045,-9.014,-107.831
 12:45:43.287,eb:33:2e:f9:57:b5, 2015-01-01 00:31:48.685,-1.001,4.198,0.32,-149.048,-82.458,32.104, , , , , , ,-19.979,-9.223,-107.556
 12:45:43.287,eb:33:2e:f9:57:b5, 2015-01-01 00:31:48.685,-1.16,4.112,0.215,-76.477,-144.592,24.109, , , , , , ,-20.561,-9.745,-107.221
 12:45:43.287,eb:33:2e:f9:57:b5, 2015-01-01 00:31:48.685,-1.253,3.906,0.451,-8.667,-192.078,21.912, , , , , , ,-20.808,-10.519,-106.798
 12:45:43.287,eb:33:2e:f9:57:b5, 2015-01-01 00:31:48.685,-1.322,3.642,0.854,49.072,-216.064,23.682, , , , , , ,-20.77,-11.453,-106.315
 12:45:43.287,eb:33:2e:f9:57:b5, 2015-01-01 00:31:48.685,-1.377,3.323,1.272,94.238,-215.027,27.893, , , , , , ,-20.49,-12.426,-105.798
 12:45:43.288,eb:33:2e:f9:57:b5, 2015-01-01 00:31:48.685,-1.433,2.944,1.654,125.854,-189.819,34.607, , , , , , ,-20.034,-13.321,-105.287
 12:45:43.288,eb:33:2e:f9:57:b5, 2015-01-01 00:31:48.685,-1.457,2.518,1.951,143.799,-144.958,43.823, , , , , , ,-19.462,-14.024,-104.81
 12:45:43.288,eb:33:2e:f9:57:b5, 2015-01-01 00:31:48.685,-1.406,2.079,2.159,148.926,-85.144,55.786, , , , , , ,-18.825,-14.458,-104.376
 12:45:43.289,eb:33:2e:f9:57:b5, 2015-01-01 00:31:48.685,-1.292,1.67,2.234,142.456,-16.418,70.557, , , , , , ,-18.193,-14.568,-103.986
 12:45:43.289,eb:33:2e:f9:57:b5, 2015-01-01 00:31:48.685,-1.099,1.317,2.114,127.38,51.208,87.708, , , , , , ,-17.617,-14.326,-103.634
 12:45:43.289,eb:33:2e:f9:57:b5, 2015-01-01 00:31:48.685,-0.866,1.064,1.864,109.619,107.422,104.431, , , , , , ,-17.117,-13.771,-103.282
 12:45:43.289,eb:33:2e:f9:57:b5, 2015-01-01 00:31:48.685,3.3,0.896,1.61,95.093,125.977,102.478, , , , , , ,-16.688,-12.997,-102.936
 12:45:43.289,eb:33:2e:f9:57:b5, 2015-01-01 00:31:48.685,0.692,-2.71,8.503,145.63,286.377,149.17, , , , , , ,-16.133,-11.898,-102.7
 12:45:43.289,eb:33:2e:f9:57:b5, 2015-01-01 00:31:48.685,2.627,-2.02,-0.896,113.037,190.979,126.343, , , , , , ,-15.579,-10.613,-102.349
 12:45:43.311,eb:33:2e:f9:57:b5, 2015-01-01 00:31:48.685,1.641,-3.52,-0.575,135.437,194.153,107.91, , , , , , ,-15.024,-9.503,-102.003
 12:45:43.311,eb:33:2e:f9:57:b5, 2015-01-01 00:31:48.685,-0.044,-1.24,1.638,164.551,239.197,62.805, , , , , , ,-14.277,-8.311,-101.898
 12:45:43.311,eb:33:2e:f9:57:b5, 2015-01-01 00:31:48.685,-0.464,-1.775,0.761,215.027,226.135,55.786, , , , , , ,-13.304,-7.108,-101.893
 12:45:43.311,eb:33:2e:f9:57:b5, 2015-01-01 00:31:48.685,-0.859,-0.72,0.718,264.893,202.698,59.082, , , , , , ,-12.085,-6.01,-101.86
 12:45:43.311,eb:33:2e:f9:57:b5, 2015-01-01 00:31:48.685,-0.599,-0.6,0.369,295.898,164.124,63.843, , , , , , ,-10.673,-5.065,-101.733
 12:45:43.311,eb:33:2e:f9:57:b5, 2015-01-01 00:31:48.685,-0.75,-0.192,0.498,311.157,125.793,64.087, , , , , , ,-9.152,-4.323,-101.53
 12:45:43.311,eb:33:2e:f9:57:b5, 2015-01-01 00:31:48.685,-0.577,0.156,0.638,302.246,92.224,53.711, , , , , , ,-7.63,-3.757,-101.31
 12:45:43.311,eb:33:2e:f9:57:b5, 2015-01-01 00:31:48.685,-0.379,0.506,0.878,282.043,65.002,31.067, , , , , , ,-6.185,-3.362,-101.157
 12:45:43.379,eb:33:2e:f9:57:b5, 2015-01-01 00:31:48.685,-0.458,0.484,1.206,260.071,55.115,10.925, , , , , , ,-4.85,-3.065,-101.096
 12:45:43.379,eb:33:2e:f9:57:b5, 2015-01-01 00:31:48.685,-0.162,0.335,1.331,244.446,50.415,-0.671, , , , , , ,-3.593,-2.796,-101.102
 12:45:43.379,eb:33:2e:f9:57:b5, 2015-01-01 00:31:48.685,-0.181,0.623,1.716,212.463,36.926,-4.456, , , , , , ,-2.461,-2.598,-101.129
 12:45:43.379,eb:33:2e:f9:57:b5, 2015-01-01 00:31:48.685,-0.222,0.542,1.386,184.998,24.17,-7.996, , , , , , ,-1.483,-2.455,-101.173
 12:45:43.379,eb:33:2e:f9:57:b5, 2015-01-01 00:31:48.685,-0.126,0.453,1.306,160.95,20.63,-10.315, , , , , , ,-0.626,-2.34,-101.223
 12:45:43.379,eb:33:2e:f9:57:b5, 2015-01-01 00:31:48.685,-0.14,0.324,1.097,138.733,19.775,-5.981, , , , , , ,0.104,-2.247,-101.272
 12:45:43.379,eb:33:2e:f9:57:b5, 2015-01-01 00:31:48.685,-0.011,0.519,0.995,109.68,-3.418,2.502, , , , , , ,0.714,-2.225,-101.272
 12:45:43.379,eb:33:2e:f9:57:b5, 2015-01-01 00:31:48.685,0.084,0.569,1.053,80.261,-13.55,8.789, , , , , , ,1.17,-2.274,-101.239
 12:45:43.423,eb:33:2e:f9:57:b5, 2015-01-01 00:31:48.685,0.095,0.614,1.076,55.237,-6.836,9.216, , , , , , ,1.494,-2.335,-101.19
 12:45:43.423,eb:33:2e:f9:57:b5, 2015-01-01 00:31:48.685,-0.067,0.424,1.002,33.264,3.967,8.911, , , , , , ,1.708,-2.324,-101.14
 12:45:43.423,eb:33:2e:f9:57:b5, 2015-01-01 00:31:48.685,-0.028,0.301,0.938,18.372,0,8.484, , , , , , ,1.824,-2.318,-101.102
 12:45:43.423,eb:33:2e:f9:57:b5, 2015-01-01 00:31:48.685,0.026,0.114,1,15.137,-1.038,5.859, , , , , , ,1.901,-2.318,-101.069
 12:45:43.423,eb:33:2e:f9:57:b5, 2015-01-01 00:31:48.685,-0.012,0.071,1.008,15.259,-0.366,-0.183, , , , , , ,1.978,-2.324,-101.058
 12:45:43.423,eb:33:2e:f9:57:b5, 2015-01-01 00:31:48.685,-0.001,0.013,0.997,15.503,0.427,6.042, , , , , , ,2.054,-2.318,-101.047
 12:45:43.423,eb:33:2e:f9:57:b5, 2015-01-01 00:31:48.685,-0.047,0.174,0.976,10.559,4.211,5.676, , , , , , ,2.12,-2.302,-101.003
 12:45:43.423,eb:33:2e:f9:57:b5, 2015-01-01 00:31:48.685,-0.046,0.136,0.992,9.338,6.47,5.92, , , , , , ,2.164,-2.28,-100.981
 12:45:43.425,eb:33:2e:f9:57:b5, 2015-01-01 00:31:48.685,0.043,0.072,1.001,11.658,8.606,9.644, , , , , , ,2.219,-2.241,-100.931
 12:45:43.425,eb:33:2e:f9:57:b5, 2015-01-01 00:31:48.685,0.091,0.08,1.021,12.085,10.681,8.24, , , , , , ,2.28,-2.186,-100.887
 12:45:43.425,eb:33:2e:f9:57:b5, 2015-01-01 00:31:48.685,0.078,0.061,1.048,12.085,14.954,7.935, , , , , , ,2.34,-2.12,-100.844
 12:45:43.425,eb:33:2e:f9:57:b5, 2015-01-01 00:31:48.685,0.044,0.07,1.032,11.047,18.005,9.094, , , , , , ,2.395,-2.038,-100.8
 12:45:43.425,eb:33:2e:f9:57:b5, 2015-01-01 00:31:48.685,0.027,0.07,1.004,9.888,19.165,10.071, , , , , , ,2.444,-1.95,-100.75
 12:45:43.425,eb:33:2e:f9:57:b5, 2015-01-01 00:31:48.685,0.017,0.069,0.993,8.301,19.348,11.292, , , , , , ,2.488,-1.851,-100.69
 12:45:43.425,eb:33:2e:f9:57:b5, 2015-01-01 00:31:48.685,0.02,0.069,0.994,7.141,19.226,12.39, , , , , , ,2.527,-1.758,-100.624
 12:45:43.425,eb:33:2e:f9:57:b5, 2015-01-01 00:31:48.685,0.02,0.061,1.004,6.592,19.592,13.123, , , , , , ,2.56,-1.659,-100.558
 12:45:43.491,eb:33:2e:f9:57:b5, 2015-01-01 00:31:48.685,0.018,0.056,1.009,6.531,19.592,12.878, , , , , , ,2.587,-1.566,-100.492
 12:45:43.491,eb:33:2e:f9:57:b5, 2015-01-01 00:31:48.685,0.012,0.044,1.016,6.897,20.203,12.268, , , , , , ,2.626,-1.467,-100.426
 12:45:43.491,eb:33:2e:f9:57:b5, 2015-01-01 00:31:48.685,0,0.044,1.01,7.385,20.447,11.597, , , , , , ,2.659,-1.368,-100.36
 12:45:43.491,eb:33:2e:f9:57:b5, 2015-01-01 00:31:48.685,-0.003,0.056,1,7.324,19.531,9.705, , , , , , ,2.692,-1.269,-100.305
 12:45:43.491,eb:33:2e:f9:57:b5, 2015-01-01 00:31:48.685,-0.009,0.065,0.997,7.019,18.738,6.836, , , , , , ,2.725,-1.176,-100.261
 12:45:43.491,eb:33:2e:f9:57:b5, 2015-01-01 00:31:48.685,-0.016,0.069,0.99,6.409,17.334,5.127, , , , , , ,2.763,-1.082,-100.228
 12:45:43.491,eb:33:2e:f9:57:b5, 2015-01-01 00:31:48.685,-0.007,0.053,0.986,6.409,15.198,4.639, , , , , , ,2.796,-1.005,-100.195
 12:45:43.491,eb:33:2e:f9:57:b5, 2015-01-01 00:31:48.685,-0.002,0.061,0.992,6.287,13.367,2.808, , , , , , ,2.829,-0.934,-100.179
 12:45:43.558,eb:33:2e:f9:57:b5, 2015-01-01 00:31:48.685,-0.006,0.067,0.998,5.981,12.39,0.977, , , , , , ,2.856,-0.873,-100.168
 12:45:43.558,eb:33:2e:f9:57:b5, 2015-01-01 00:31:48.685,-0.002,0.071,0.992,5.554,11.047,-0.183, , , , , , ,2.889,-0.807,-100.162
 12:45:43.558,eb:33:2e:f9:57:b5, 2015-01-01 00:31:48.685,-0.005,0.068,0.997,5.432,10.315,-1.099, , , , , , ,2.917,-0.758,-100.162
 12:45:43.558,eb:33:2e:f9:57:b5, 2015-01-01 00:31:48.685,-0.006,0.057,0.999,5.798,9.521,-1.221, , , , , , ,2.944,-0.709,-100.173
 12:45:43.558,eb:33:2e:f9:57:b5, 2015-01-01 00:31:48.685,-0.006,0.051,1,6.531,8.545,-1.404, , , , , , ,2.972,-0.659,-100.173
 12:45:43.558,eb:33:2e:f9:57:b5, 2015-01-01 00:31:48.685,-0.005,0.051,1.002,7.507,7.812,-1.465, , , , , , ,3.016,-0.615,-100.179
 12:45:43.558,eb:33:2e:f9:57:b5, 2015-01-01 00:31:48.685,-0.007,0.048,1.006,8.362,7.507,-1.099, , , , , , ,3.054,-0.577,-100.184
 12:45:43.558,eb:33:2e:f9:57:b5, 2015-01-01 00:31:48.685,0,0.051,1,8.911,7.08,-0.793, , , , , , ,3.098,-0.544,-100.19
 12:45:43.560,eb:33:2e:f9:57:b5, 2015-01-01 00:31:48.685,-0.005,0.06,1.002,9.216,6.897,-0.671, , , , , , ,3.142,-0.505,-100.19
 12:45:43.560,eb:33:2e:f9:57:b5, 2015-01-01 00:31:48.685,-0.008,0.065,0.986,9.094,5.615,-0.244, , , , , , ,3.192,-0.472,-100.195
 12:45:43.560,eb:33:2e:f9:57:b5, 2015-01-01 00:31:48.685,-0.008,0.061,0.988,8.789,4.7,-0.61, , , , , , ,3.235,-0.445,-100.195
 12:45:43.560,eb:33:2e:f9:57:b5, 2015-01-01 00:31:48.685,0.01,0.056,0.983,8.362,2.808,0.244, , , , , , ,3.279,-0.428,-100.195
 12:45:43.560,eb:33:2e:f9:57:b5, 2015-01-01 00:31:48.685,0.002,0.076,1.001,7.874,3.662,-0.671, , , , , , ,3.318,-0.412,-100.195
 12:45:43.560,eb:33:2e:f9:57:b5, 2015-01-01 00:31:48.685,0,0.078,1.003,7.874,3.662,-0.854, , , , , , ,3.362,-0.39,-100.201
 12:45:43.560,eb:33:2e:f9:57:b5, 2015-01-01 00:31:48.685,0.011,0.072,0.991,7.751,3.235,-1.404, , , , , , ,3.4,-0.374,-100.206
 12:45:43.560,eb:33:2e:f9:57:b5, 2015-01-01 00:31:48.685,0.009,0.076,1.004,7.874,4.028,-2.136, , , , , , ,3.439,-0.352,-100.217
 12:45:43.625,eb:33:2e:f9:57:b5, 2015-01-01 00:31:49.020,0.006,0.076,1.003,7.996,4.639,-2.686, , , , , , ,3.477,-0.33,-100.228
 12:45:43.625,eb:33:2e:f9:57:b5, 2015-01-01 00:31:49.020,0.007,0.077,1,8.118,5.066,-3.052, , , , , , ,3.527,-0.302,-100.239
 12:45:43.625,eb:33:2e:f9:57:b5, 2015-01-01 00:31:49.020,0.001,0.074,1.007,8.484,5.432,-3.54, , , , , , ,3.565,-0.275,-100.256
 12:45:43.625,eb:33:2e:f9:57:b5, 2015-01-01 00:31:49.020,0.004,0.07,1.007,9.155,5.554,-3.601, , , , , , ,3.609,-0.247,-100.272
 12:45:43.625,eb:33:2e:f9:57:b5, 2015-01-01 00:31:49.020,-0.003,0.078,1.006,9.277,6.042,-3.967, , , , , , ,3.658,-0.214,-100.289
 12:45:43.625,eb:33:2e:f9:57:b5, 2015-01-01 00:31:49.020,-0.017,0.067,1.01,9.949,6.226,-4.089, , , , , , ,3.708,-0.181,-100.311
 12:45:43.625,eb:33:2e:f9:57:b5, 2015-01-01 00:31:49.020,0.014,0.056,1.011,11.292,5.737,-3.723, , , , , , ,3.763,-0.148,-100.327
 12:45:43.625,eb:33:2e:f9:57:b5, 2015-01-01 00:31:49.020,0.01,0.078,1.016,11.536,6.836,-4.089, , , , , , ,3.818,-0.115,-100.349
 12:45:43.628,eb:33:2e:f9:57:b5, 2015-01-01 00:31:49.020,0.016,0.079,1.014,11.78,7.935,-4.456, , , , , , ,3.878,-0.077,-100.366
 12:45:43.628,eb:33:2e:f9:57:b5, 2015-01-01 00:31:49.020,0.021,0.078,1.028,12.268,9.338,-4.822, , , , , , ,3.944,-0.027,-100.388
 12:45:43.628,eb:33:2e:f9:57:b5, 2015-01-01 00:31:49.020,0.019,0.083,1.023,12.817,10.803,-5.31, , , , , , ,4.005,0.016,-100.41
 12:45:43.628,eb:33:2e:f9:57:b5, 2015-01-01 00:31:49.020,0.002,0.079,1.027,13.062,12.634,-5.737, , , , , , ,4.07,0.082,-100.437
 12:45:43.628,eb:33:2e:f9:57:b5, 2015-01-01 00:31:49.020,0.01,0.084,1.005,13.489,12.573,-6.165, , , , , , ,4.136,0.148,-100.459
 12:45:43.628,eb:33:2e:f9:57:b5, 2015-01-01 00:31:49.020,0.02,0.093,1.015,13.794,13.611,-6.653, , , , , , ,4.208,0.22,-100.486
 12:45:43.628,eb:33:2e:f9:57:b5, 2015-01-01 00:31:49.020,0.027,0.1,1.021,13.794,15.442,-7.141, , , , , , ,4.274,0.291,-100.519
 12:45:43.628,eb:33:2e:f9:57:b5, 2015-01-01 00:31:49.020,0.035,0.099,1.044,14.038,17.029,-7.996, , , , , , ,4.345,0.379,-100.552
 12:45:43.718,eb:33:2e:f9:57:b5, 2015-01-01 00:31:49.020,0.025,0.098,1.057,14.771,19.47,-9.216, , , , , , ,4.417,0.472,-100.591
 12:45:43.718,eb:33:2e:f9:57:b5, 2015-01-01 00:31:49.020,0.017,0.111,1.009,15.32,19.409,-11.169, , , , , , ,4.493,0.577,-100.635
 12:45:43.718,eb:33:2e:f9:57:b5, 2015-01-01 00:31:49.020,0.004,0.107,1.014,16.113,19.165,-12.756, , , , , , ,4.576,0.681,-100.684
 12:45:43.718,eb:33:2e:f9:57:b5, 2015-01-01 00:31:49.020,-0.032,0.105,1.018,16.724,19.47,-13.733, , , , , , ,4.653,0.78,-100.75
 12:45:43.718,eb:33:2e:f9:57:b5, 2015-01-01 00:31:49.020,-0.029,0.084,1.029,17.7,19.165,-13.916, , , , , , ,4.741,0.884,-100.811
 12:45:43.718,eb:33:2e:f9:57:b5, 2015-01-01 00:31:49.020,-0.033,0.067,1.077,19.043,20.874,-13.55, , , , , , ,4.834,0.989,-100.871
 12:45:43.718,eb:33:2e:f9:57:b5, 2015-01-01 00:31:49.020,-0.026,0.08,1.032,19.714,21.79,-13.184, , , , , , ,4.933,1.104,-100.926
 12:45:43.718,eb:33:2e:f9:57:b5, 2015-01-01 00:31:49.020,-0.005,0.1,1.005,20.142,21.057,-13.489, , , , , , ,5.032,1.214,-100.986
 12:45:43.718,eb:33:2e:f9:57:b5, 2015-01-01 00:31:49.020,-0.036,0.109,1.021,20.447,21.912,-13.794, , , , , , ,5.131,1.329,-101.047
 12:45:43.719,eb:33:2e:f9:57:b5, 2015-01-01 00:31:49.020,-0.029,0.097,1.01,20.935,21.24,-13.855, , , , , , ,5.235,1.445,-101.107
 12:45:43.719,eb:33:2e:f9:57:b5, 2015-01-01 00:31:49.020,-0.053,0.096,1.031,21.301,22.156,-13.489, , , , , , ,5.339,1.56,-101.162
 12:45:43.719,eb:33:2e:f9:57:b5, 2015-01-01 00:31:49.020,-0.032,0.094,1.004,21.484,22.034,-13, , , , , , ,5.444,1.681,-101.223
 12:45:43.719,eb:33:2e:f9:57:b5, 2015-01-01 00:31:49.020,-0.023,0.114,1.011,21.545,21.545,-13, , , , , , ,5.554,1.791,-101.277
 12:45:43.719,eb:33:2e:f9:57:b5, 2015-01-01 00:31:49.020,-0.037,0.113,1.018,21.301,22.461,-12.695, , , , , , ,5.658,1.912,-101.332
 12:45:43.719,eb:33:2e:f9:57:b5, 2015-01-01 00:31:49.020,-0.037,0.115,1.001,21.729,21.179,-12.695, , , , , , ,5.768,2.027,-101.382
 12:45:43.719,eb:33:2e:f9:57:b5, 2015-01-01 00:31:49.020,-0.028,0.103,1.029,22.461,21.484,-12.695, , , , , , ,5.872,2.137,-101.437
 12:45:43.761,eb:33:2e:f9:57:b5, 2015-01-01 00:31:49.020,-0.049,0.101,1.053,23.193,23.438,-12.695, , , , , , ,5.988,2.258,-101.492
 12:45:43.761,eb:33:2e:f9:57:b5, 2015-01-01 00:31:49.020,-0.039,0.096,1.051,24.292,24.048,-12.329, , , , , , ,6.108,2.39,-101.541
 12:45:43.761,eb:33:2e:f9:57:b5, 2015-01-01 00:31:49.020,-0.051,0.091,1.085,26.062,25.574,-11.841, , , , , , ,6.229,2.516,-101.585
 12:45:43.761,eb:33:2e:f9:57:b5, 2015-01-01 00:31:49.020,-0.033,0.087,1.093,29.175,25.024,-11.475, , , , , , ,6.367,2.648,-101.629
 12:45:43.761,eb:33:2e:f9:57:b5, 2015-01-01 00:31:49.020,-0.038,0.112,1.068,32.227,23.621,-11.536, , , , , , ,6.52,2.78,-101.678
 12:45:43.761,eb:33:2e:f9:57:b5, 2015-01-01 00:31:49.020,-0.108,0.112,1.055,34.546,22.949,-10.986, , , , , , ,6.691,2.906,-101.717
 12:45:43.761,eb:33:2e:f9:57:b5, 2015-01-01 00:31:49.020,-0.144,0.062,1.076,36.865,21.973,-8.911, , , , , , ,6.866,3.021,-101.755
 12:45:43.761,eb:33:2e:f9:57:b5, 2015-01-01 00:31:49.020,-0.148,0.042,1.092,39.734,20.325,-5.798, , , , , , ,7.059,3.131,-101.777
 12:45:43.806,eb:33:2e:f9:57:b5, 2015-01-01 00:31:49.020,-0.143,0.053,1.11,42.908,17.944,-3.235, , , , , , ,7.267,3.224,-101.788
 12:45:43.806,eb:33:2e:f9:57:b5, 2015-01-01 00:31:49.020,-0.123,0.023,1.217,48.401,16.479,-0.305, , , , , , ,7.498,3.318,-101.783
 12:45:43.806,eb:33:2e:f9:57:b5, 2015-01-01 00:31:49.020,-0.113,0.023,1.227,55.481,14.282,1.587, , , , , , ,7.762,3.389,-101.772
 12:45:43.806,eb:33:2e:f9:57:b5, 2015-01-01 00:31:49.020,-0.128,0.025,1.27,62.622,13.123,3.479, , , , , , ,8.064,3.455,-101.75
 12:45:43.806,eb:33:2e:f9:57:b5, 2015-01-01 00:31:49.020,-0.142,0.005,1.305,68.726,15.259,6.714, , , , , , ,8.394,3.521,-101.711
 12:45:43.806,eb:33:2e:f9:57:b5, 2015-01-01 00:31:49.020,-0.142,0.019,1.295,76.111,13.55,8.667, , , , , , ,8.767,3.593,-101.662
 12:45:43.806,eb:33:2e:f9:57:b5, 2015-01-01 00:31:49.020,-0.143,0.021,1.355,83.252,12.817,9.766, , , , , , ,9.174,3.653,-101.607
 12:45:43.806,eb:33:2e:f9:57:b5, 2015-01-01 00:31:49.020,-0.078,-0.026,1.465,93.567,12.39,11.658, , , , , , ,9.624,3.702,-101.541
 12:45:43.829,eb:33:2e:f9:57:b5, 2015-01-01 00:31:49.020,-0.015,0.006,1.506,105.103,12.39,12.695, , , , , , ,10.129,3.752,-101.47
 12:45:43.829,eb:33:2e:f9:57:b5, 2015-01-01 00:31:49.020,-0.008,0.047,1.492,117.004,12.329,12.024, , , , , , ,10.701,3.807,-101.398
 12:45:43.829,eb:33:2e:f9:57:b5, 2015-01-01 00:31:49.020,-0.014,0.053,1.518,128.784,13.489,11.047, , , , , , ,11.327,3.862,-101.327
 12:45:43.829,eb:33:2e:f9:57:b5, 2015-01-01 00:31:49.020,-0.047,0.021,1.574,143.127,17.151,10.62, , , , , , ,12.014,3.928,-101.261
 12:45:43.829,eb:33:2e:f9:57:b5, 2015-01-01 00:31:49.020,-0.073,0.001,1.617,155.457,19.043,10.925, , , , , , ,12.772,4.005,-101.19
 12:45:43.830,eb:33:2e:f9:57:b5, 2015-01-01 00:31:49.020,-0.078,-0.022,1.682,169.556,19.287,11.597, , , , , , ,13.596,4.087,-101.113
 12:45:43.830,eb:33:2e:f9:57:b5, 2015-01-01 00:31:49.020,-0.04,-0.006,1.78,186.279,18.616,10.925, , , , , , ,14.496,4.164,-101.03
 12:45:43.830,eb:33:2e:f9:57:b5, 2015-01-01 00:31:49.020,-0.043,-0.082,1.866,202.82,21.973,10.498, , , , , , ,15.485,4.252,-100.959
 12:45:43.873,eb:33:2e:f9:57:b5, 2015-01-01 00:31:49.020,0.023,-0.067,2.041,219.91,26.855,10.62, , , , , , ,16.556,4.356,-100.871
 12:45:43.873,eb:33:2e:f9:57:b5, 2015-01-01 00:31:49.020,0.046,-0.059,2.036,240.967,27.71,7.935, , , , , , ,17.726,4.477,-100.789
 12:45:43.873,eb:33:2e:f9:57:b5, 2015-01-01 00:31:49.020,0.085,-0.108,1.988,260.925,28.198,4.944, , , , , , ,18.995,4.598,-100.712
 12:45:43.873,eb:33:2e:f9:57:b5, 2015-01-01 00:31:49.020,0.225,-0.153,2.184,279.541,37.17,2.014, , , , , , ,20.363,4.746,-100.646
 12:45:43.873,eb:33:2e:f9:57:b5, 2015-01-01 00:31:49.020,0.399,-0.106,2.321,299.805,51.147,-3.052, , , , , , ,21.824,4.96,-100.569
 12:45:43.873,eb:33:2e:f9:57:b5, 2015-01-01 00:31:49.020,0.403,0.064,2.442,321.228,66.65,-10.742, , , , , , ,23.395,5.257,-100.481
 12:45:43.874,eb:33:2e:f9:57:b5, 2015-01-01 00:31:49.020,0.255,0.012,2.47,343.689,78.979,-18.25, , , , , , ,25.076,5.63,-100.399
 12:45:43.874,eb:33:2e:f9:57:b5, 2015-01-01 00:31:49.020,0.185,-0.082,2.526,362.122,88.684,-24.292, , , , , , ,26.862,6.059,-100.311
 12:45:44.008,eb:33:2e:f9:57:b5, 2015-01-01 00:31:49.330,0.276,-0.134,2.754,384.888,99.304,-26.367, , , , , , ,28.751,6.542,-100.206
 12:45:44.008,eb:33:2e:f9:57:b5, 2015-01-01 00:31:49.330,0.299,0.002,2.447,411.621,95.093,-28.87, , , , , , ,30.767,7.037,-100.08
 12:45:44.008,eb:33:2e:f9:57:b5, 2015-01-01 00:31:49.330,0.316,0.207,2.319,433.899,75.623,-36.316, , , , , , ,32.899,7.482,-99.998
 12:45:44.008,eb:33:2e:f9:57:b5, 2015-01-01 00:31:49.330,0.262,0.074,2.652,452.881,64.087,-41.26, , , , , , ,35.134,7.877,-99.97
 12:45:44.008,eb:33:2e:f9:57:b5, 2015-01-01 00:31:49.330,0.057,-0.033,2.764,460.754,61.768,-51.27, , , , , , ,37.419,8.262,-99.981
 12:45:44.008,eb:33:2e:f9:57:b5, 2015-01-01 00:31:49.330,0.295,0.006,3.246,473.877,81.604,-45.288, , , , , , ,39.76,8.701,-99.937
 12:45:44.008,eb:33:2e:f9:57:b5, 2015-01-01 00:31:49.330,0.323,0.342,2.543,487.122,71.96,-48.889, , , , , , ,42.193,9.157,-99.855
 12:45:44.008,eb:33:2e:f9:57:b5, 2015-01-01 00:31:49.330,-0.056,1.014,2.14,452.209,33.203,-73.12, , , , , , ,44.517,9.536,-99.948
 12:45:44.008,eb:33:2e:f9:57:b5, 2015-01-01 00:31:49.330,-0.086,0.313,3.5,426.941,67.017,-70.801, , , , , , ,46.681,9.97,-100.009
 12:45:44.008,eb:33:2e:f9:57:b5, 2015-01-01 00:31:49.330,0.279,0.194,3.589,421.692,98.328,-70.923, , , , , , ,48.807,10.525,-99.932
 12:45:44.008,eb:33:2e:f9:57:b5, 2015-01-01 00:31:49.330,0.533,-0.35,3.137,418.457,120.85,-67.932, , , , , , ,50.944,11.151,-99.712
 12:45:44.008,eb:33:2e:f9:57:b5, 2015-01-01 00:31:49.330,0.845,-0.744,2.405,419.006,112.549,-69.519, , , , , , ,53.086,11.788,-99.443
 12:45:44.008,eb:33:2e:f9:57:b5, 2015-01-01 00:31:49.330,1.202,-0.899,2.146,431.946,85.938,-76.172, , , , , , ,55.256,12.371,-99.261
 12:45:44.010,eb:33:2e:f9:57:b5, 2015-01-01 00:31:49.330,1.29,-1.133,1.592,444.092,42.542,-93.872, , , , , , ,57.448,12.898,-99.25
 12:45:44.010,eb:33:2e:f9:57:b5, 2015-01-01 00:31:49.330,1.094,-0.82,1.612,457.581,22.888,-119.385, , , , , , ,59.661,13.431,-99.41
 12:45:44.010,eb:33:2e:f9:57:b5, 2015-01-01 00:31:49.330,1.135,-1.201,2.233,507.568,9.338,-149.597, , , , , , ,62.023,14.062,-99.679
 12:45:44.010,eb:33:2e:f9:57:b5, 2015-01-01 00:31:49.330,0.853,-1.494,2.572,591.431,-0.854,-189.697, , , , , , ,64.704,14.848,-100.063
 12:45:44.010,eb:33:2e:f9:57:b5, 2015-01-01 00:31:49.330,0.634,-0.685,1.519,613.098,-21.484,-226.379, , , , , , ,67.632,15.787,-100.58
 12:45:44.010,eb:33:2e:f9:57:b5, 2015-01-01 00:31:49.330,0.177,0.173,0.674,538.269,-22.278,-245.544, , , , , , ,70.323,16.87,-101.14
 12:45:44.010,eb:33:2e:f9:57:b5, 2015-01-01 00:31:49.330,0.051,-0.101,0.295,454.834,-39.734,-250.061, , , , , , ,72.603,17.996,-101.706
 12:45:44.010,eb:33:2e:f9:57:b5, 2015-01-01 00:31:49.330,-0.003,-0.41,-0.529,322.632,-50.171,-242.004, , , , , , ,74.306,19.111,-102.316
 12:45:44.010,eb:33:2e:f9:57:b5, 2015-01-01 00:31:49.330,0.081,-1.188,-1.661,156.921,-38.696,-220.703, , , , , , ,75.234,20.165,-102.865
 12:45:44.010,eb:33:2e:f9:57:b5, 2015-01-01 00:31:49.330,0.091,-2.013,-2.446,-50.293,-14.587,-185.913, , , , , , ,75.262,21.11,-103.255
 12:45:44.010,eb:33:2e:f9:57:b5, 2015-01-01 00:31:49.330,-0.04,-2.29,-1.174,-171.387,-12.146,-151.672, , , , , , ,74.515,21.89,-103.546
 12:45:44.098,eb:33:2e:f9:57:b5, 2015-01-01 00:31:49.330,-0.199,-2.003,0.053,-242.249,-14.832,-118.591, , , , , , ,73.323,22.505,-103.815
 12:45:44.098,eb:33:2e:f9:57:b5, 2015-01-01 00:31:49.330,-0.222,-1.581,0.656,-279.968,-14.343,-88.257, , , , , , ,71.884,22.961,-104.057
 12:45:44.098,eb:33:2e:f9:57:b5, 2015-01-01 00:31:49.330,-0.019,-1.219,0.884,-294.739,-16.479,-65.552, , , , , , ,70.345,23.286,-104.266
 12:45:44.098,eb:33:2e:f9:57:b5, 2015-01-01 00:31:49.330,0.175,-0.993,1.006,-294.495,-17.517,-49.622, , , , , , ,68.791,23.516,-104.458
 12:45:44.098,eb:33:2e:f9:57:b5, 2015-01-01 00:31:49.330,0.204,-0.946,0.965,-286.377,-15.747,-36.682, , , , , , ,67.269,23.681,-104.623
 12:45:44.098,eb:33:2e:f9:57:b5, 2015-01-01 00:31:49.330,0.176,-0.977,0.717,-274.658,-15.32,-23.682, , , , , , ,65.803,23.78,-104.771
 12:45:44.098,eb:33:2e:f9:57:b5, 2015-01-01 00:31:49.330,0.189,-0.991,0.444,-263.062,-18.25,-9.949, , , , , , ,64.413,23.813,-104.892
 12:45:44.098,eb:33:2e:f9:57:b5, 2015-01-01 00:31:49.330,0.187,-0.931,0.292,-253.906,-22.888,4.333, , , , , , ,63.083,23.774,-104.991
 12:45:44.100,eb:33:2e:f9:57:b5, 2015-01-01 00:31:49.330,0.157,-0.792,0.2,-247.498,-31.86,17.09, , , , , , ,61.793,23.659,-105.095
 12:45:44.100,eb:33:2e:f9:57:b5, 2015-01-01 00:31:49.330,0.153,-0.647,0.134,-244.629,-46.814,26.978, , , , , , ,60.491,23.456,-105.233
 12:45:44.100,eb:33:2e:f9:57:b5, 2015-01-01 00:31:49.330,0.179,-0.571,0.116,-246.582,-63.66,34.912, , , , , , ,59.194,23.176,-105.414
 12:45:44.100,eb:33:2e:f9:57:b5, 2015-01-01 00:31:49.330,0.231,-0.542,0.089,-254.761,-79.346,41.077, , , , , , ,57.849,22.819,-105.639
 12:45:44.100,eb:33:2e:f9:57:b5, 2015-01-01 00:31:49.330,0.291,-0.53,0.081,-268.555,-92.407,45.349, , , , , , ,56.426,22.396,-105.908
 12:45:44.100,eb:33:2e:f9:57:b5, 2015-01-01 00:31:49.330,0.33,-0.521,0.137,-285.645,-103.149,47.058, , , , , , ,54.904,21.923,-106.216
 12:45:44.100,eb:33:2e:f9:57:b5, 2015-01-01 00:31:49.330,0.353,-0.509,0.269,-302.368,-112.427,46.509, , , , , , ,53.3,21.412,-106.545
 12:45:44.100,eb:33:2e:f9:57:b5, 2015-01-01 00:31:49.330,0.366,-0.482,0.439,-316.589,-120.056,44.067, , , , , , ,51.619,20.88,-106.891
 12:45:44.120,eb:33:2e:f9:57:b5, 2015-01-01 00:31:49.330,0.379,-0.444,0.598,-327.209,-126.282,40.222, , , , , , ,49.872,20.325,-107.26
 12:45:44.120,eb:33:2e:f9:57:b5, 2015-01-01 00:31:49.330,0.386,-0.403,0.727,-334.229,-130.737,35.4, , , , , , ,48.06,19.753,-107.655
 12:45:44.120,eb:33:2e:f9:57:b5, 2015-01-01 00:31:49.330,0.384,-0.364,0.817,-337.891,-134.155,30.029, , , , , , ,46.241,19.188,-108.056
 12:45:44.120,eb:33:2e:f9:57:b5, 2015-01-01 00:31:49.330,0.373,-0.326,0.876,-338.806,-137.634,24.109, , , , , , ,44.412,18.611,-108.468
 12:45:44.120,eb:33:2e:f9:57:b5, 2015-01-01 00:31:49.330,0.351,-0.285,0.918,-337.463,-141.663,17.883, , , , , , ,42.589,18.034,-108.896
 12:45:44.120,eb:33:2e:f9:57:b5, 2015-01-01 00:31:49.330,0.32,-0.246,0.947,-334.778,-146.423,11.658, , , , , , ,40.748,17.441,-109.352
 12:45:44.120,eb:33:2e:f9:57:b5, 2015-01-01 00:31:49.330,0.286,-0.211,0.969,-331.482,-151.794,5.432, , , , , , ,38.947,16.842,-109.825
 12:45:44.120,eb:33:2e:f9:57:b5, 2015-01-01 00:31:49.330,0.25,-0.18,0.99,-327.82,-157.41,-0.366, , , , , , ,37.156,16.227,-110.308
 12:45:44.166,eb:33:2e:f9:57:b5, 2015-01-01 00:31:49.330,0.213,-0.157,1.02,-324.341,-162.903,-5.737, , , , , , ,35.387,15.59,-110.819
 12:45:44.166,eb:33:2e:f9:57:b5, 2015-01-01 00:31:49.330,0.169,-0.139,1.062,-321.35,-167.908,-10.681, , , , , , ,33.618,14.925,-111.352
 12:45:44.166,eb:33:2e:f9:57:b5, 2015-01-01 00:31:49.330,0.12,-0.128,1.116,-319.336,-172.058,-15.198, , , , , , ,31.882,14.244,-111.885
 12:45:44.166,eb:33:2e:f9:57:b5, 2015-01-01 00:31:49.330,0.07,-0.123,1.175,-318.298,-174.988,-18.982, , , , , , ,30.157,13.541,-112.423
 12:45:44.166,eb:33:2e:f9:57:b5, 2015-01-01 00:31:49.330,0.021,-0.124,1.242,-318.115,-176.025,-21.729, , , , , , ,28.444,12.827,-112.961
 12:45:44.166,eb:33:2e:f9:57:b5, 2015-01-01 00:31:49.330,-0.026,-0.136,1.32,-318.848,-174.622,-23.193, , , , , , ,26.719,12.096,-113.483
 12:45:44.166,eb:33:2e:f9:57:b5, 2015-01-01 00:31:49.330,-0.068,-0.157,1.4,-320.251,-170.776,-23.132, , , , , , ,25.016,11.371,-113.978
 12:45:44.166,eb:33:2e:f9:57:b5, 2015-01-01 00:31:49.330,-0.106,-0.184,1.47,-321.716,-164.612,-21.545, , , , , , ,23.324,10.651,-114.428
 12:45:44.302,eb:33:2e:f9:57:b5, 2015-01-01 00:31:49.330,-0.129,-0.211,1.542,-323.303,-156.128,-17.7, , , , , , ,21.638,9.948,-114.829
 12:45:44.302,eb:33:2e:f9:57:b5, 2015-01-01 00:31:49.330,-0.132,-0.228,1.6,-323.792,-148.987,-13.55, , , , , , ,19.94,9.261,-115.181
 12:45:44.302,eb:33:2e:f9:57:b5, 2015-01-01 00:31:49.330,-0.125,-0.223,1.663,-323.12,-141.968,-8.911, , , , , , ,18.276,8.591,-115.472
 12:45:44.302,eb:33:2e:f9:57:b5, 2015-01-01 00:31:49.330,-0.087,-0.197,1.678,-321.167,-139.282,-5.493, , , , , , ,16.628,7.938,-115.714
 12:45:44.302,eb:33:2e:f9:57:b5, 2015-01-01 00:31:49.330,-0.028,-0.147,1.683,-315.918,-137.024,-2.563, , , , , , ,15.007,7.278,-115.928
 12:45:44.302,eb:33:2e:f9:57:b5, 2015-01-01 00:31:49.330,-0.029,-0.072,1.767,-308.167,-138.428,-0.977, , , , , , ,13.409,6.603,-116.109
 12:45:44.302,eb:33:2e:f9:57:b5, 2015-01-01 00:31:49.330,0.011,0.003,1.784,-298.157,-150.391,0.183, , , , , , ,11.876,5.9,-116.268
 12:45:44.302,eb:33:2e:f9:57:b5, 2015-01-01 00:31:49.330,-0.039,0.091,1.933,-285.706,-152.588,-3.357, , , , , , ,10.404,5.153,-116.428
 12:45:44.323,eb:33:2e:f9:57:b5, 2015-01-01 00:31:49.330,-0.046,0.206,1.997,-274.78,-160.767,-4.761, , , , , , ,8.992,4.384,-116.581
 12:45:44.323,eb:33:2e:f9:57:b5, 2015-01-01 00:31:49.330,-0.079,0.274,2.208,-265.564,-161.255,-5.859, , , , , , ,7.619,3.587,-116.73
 12:45:44.323,eb:33:2e:f9:57:b5, 2015-01-01 00:31:49.330,-0.158,0.356,2.417,-258.24,-150.696,-8.484, , , , , , ,6.301,2.823,-116.862
 12:45:44.323,eb:33:2e:f9:57:b5, 2015-01-01 00:31:49.330,-0.234,0.454,2.58,-253.967,-142.7,-8.728, , , , , , ,5.021,2.098,-116.977
 12:45:44.323,eb:33:2e:f9:57:b5, 2015-01-01 00:31:49.330,-0.327,0.536,2.749,-252.502,-130.249,-7.629, , , , , , ,3.752,1.428,-117.07
 12:45:44.323,eb:33:2e:f9:57:b5, 2015-01-01 00:31:49.330,-0.437,0.652,2.856,-255.432,-114.929,-5.31, , , , , , ,2.461,0.813,-117.136
 12:45:44.323,eb:33:2e:f9:57:b5, 2015-01-01 00:31:49.330,-0.541,0.773,2.889,-263,-98.755,-2.441, , , , , , ,1.159,0.291,-117.169
 12:45:44.323,eb:33:2e:f9:57:b5, 2015-01-01 00:31:49.330,-0.65,0.913,2.807,-275.024,-86.243,0.366, , , , , , ,-0.187,-0.159,-117.18
 12:45:44.367,eb:33:2e:f9:57:b5, 2015-01-01 00:31:49.690,-0.769,1.056,2.583,-290.833,-83.252,2.93, , , , , , ,-1.609,-0.577,-117.164
 12:45:44.367,eb:33:2e:f9:57:b5, 2015-01-01 00:31:49.690,-0.817,1.192,2.27,-307.8,-93.811,5.432, , , , , , ,-3.137,-1.027,-117.125
 12:45:44.367,eb:33:2e:f9:57:b5, 2015-01-01 00:31:49.690,-0.833,1.333,2.063,-323.73,-113.159,8.789, , , , , , ,-4.724,-1.549,-117.048
 12:45:44.367,eb:33:2e:f9:57:b5, 2015-01-01 00:31:49.690,-0.842,1.48,1.995,-336.06,-135.803,12.817, , , , , , ,-6.389,-2.175,-116.933
 12:45:44.367,eb:33:2e:f9:57:b5, 2015-01-01 00:31:49.690,-0.86,1.623,2.017,-341.919,-157.654,18.066, , , , , , ,-8.097,-2.906,-116.757
 12:45:44.367,eb:33:2e:f9:57:b5, 2015-01-01 00:31:49.690,-0.849,1.737,2.078,-339.05,-176.208,25.574, , , , , , ,-9.833,-3.73,-116.516
 12:45:44.367,eb:33:2e:f9:57:b5, 2015-01-01 00:31:49.690,-0.817,1.855,2.16,-327.393,-186.89,35.828, , , , , , ,-11.519,-4.603,-116.191
 12:45:44.367,eb:33:2e:f9:57:b5, 2015-01-01 00:31:49.690,-0.831,1.999,2.25,-308.594,-185.852,48.95, , , , , , ,-13.14,-5.471,-115.779
 12:45:44.371,eb:33:2e:f9:57:b5, 2015-01-01 00:31:49.690,-0.879,2.169,2.307,-283.691,-174.805,63.354, , , , , , ,-14.661,-6.273,-115.28
 12:45:44.371,eb:33:2e:f9:57:b5, 2015-01-01 00:31:49.690,-0.941,2.402,2.314,-253.784,-155.029,77.209, , , , , , ,-16.073,-6.971,-114.714
 12:45:44.371,eb:33:2e:f9:57:b5, 2015-01-01 00:31:49.690,-1.032,2.659,2.196,-219.727,-131.897,89.111, , , , , , ,-17.32,-7.526,-114.099
 12:45:44.371,eb:33:2e:f9:57:b5, 2015-01-01 00:31:49.690,-1.244,2.923,1.906,-184.57,-112.427,99.976, , , , , , ,-18.402,-7.949,-113.456
 12:45:44.371,eb:33:2e:f9:57:b5, 2015-01-01 00:31:49.690,-1.494,3.192,1.434,-149.597,-106.689,108.582, , , , , , ,-19.314,-8.289,-112.775
 12:45:44.371,eb:33:2e:f9:57:b5, 2015-01-01 00:31:49.690,-1.675,3.412,1.036,-114.868,-112.366,115.662, , , , , , ,-20.072,-8.613,-112.05
 12:45:44.371,eb:33:2e:f9:57:b5, 2015-01-01 00:31:49.690,-1.745,3.543,0.925,-79.895,-118.408,121.704, , , , , , ,-20.66,-8.954,-111.281
 12:45:44.371,eb:33:2e:f9:57:b5, 2015-01-01 00:31:49.690,-1.752,3.584,1.105,-45.044,-113.708,126.465, , , , , , ,-21.083,-9.278,-110.479
 12:45:44.416,eb:33:2e:f9:57:b5, 2015-01-01 00:31:49.690,-1.742,3.527,1.387,-10.986,-94.727,129.578, , , , , , ,-21.335,-9.525,-109.682
 12:45:44.416,eb:33:2e:f9:57:b5, 2015-01-01 00:31:49.690,-1.712,3.365,1.609,20.508,-64.148,130.859, , , , , , ,-21.423,-9.646,-108.924
 12:45:44.416,eb:33:2e:f9:57:b5, 2015-01-01 00:31:49.690,-1.651,3.034,1.699,51.575,-19.409,131.104, , , , , , ,-21.346,-9.586,-108.232
 12:45:44.416,eb:33:2e:f9:57:b5, 2015-01-01 00:31:49.690,-1.55,2.703,1.628,69.885,16.479,131.653, , , , , , ,-21.132,-9.338,-107.622
 12:45:44.416,eb:33:2e:f9:57:b5, 2015-01-01 00:31:49.690,-1.087,2.374,1.512,81.116,47.241,132.385, , , , , , ,-20.836,-8.937,-107.062
 12:45:44.416,eb:33:2e:f9:57:b5, 2015-01-01 00:31:49.690,0.232,1.751,2.582,146.667,45.776,85.388, , , , , , ,-20.38,-8.509,-106.606
 12:45:44.416,eb:33:2e:f9:57:b5, 2015-01-01 00:31:49.690,0.582,-0.126,3.97,181.702,148.132,126.892, , , , , , ,-19.512,-7.619,-106.276
 12:45:44.416,eb:33:2e:f9:57:b5, 2015-01-01 00:31:49.690,0.632,-1.327,0.284,212.158,130.737,100.891, , , , , , ,-18.578,-6.894,-105.991
 12:45:44.435,eb:33:2e:f9:57:b5, 2015-01-01 00:31:49.690,-0.373,-1.288,0.695,259.583,141.602,75.5, , , , , , ,-17.391,-6.108,-105.782
 12:45:44.435,eb:33:2e:f9:57:b5, 2015-01-01 00:31:49.690,-0.277,-0.729,0.937,283.875,126.709,42.053, , , , , , ,-16.024,-5.372,-105.727
 12:45:44.435,eb:33:2e:f9:57:b5, 2015-01-01 00:31:49.690,-0.477,-1.195,0.755,320.984,113.464,34.363, , , , , , ,-14.496,-4.752,-105.699
 12:45:44.435,eb:33:2e:f9:57:b5, 2015-01-01 00:31:49.690,-0.336,-0.268,1,336.06,99.365,23.376, , , , , , ,-12.832,-4.219,-105.688
 12:45:44.435,eb:33:2e:f9:57:b5, 2015-01-01 00:31:49.690,-0.414,-0.17,0.902,330.139,85.388,22.4, , , , , , ,-11.168,-3.741,-105.672
 12:45:44.436,eb:33:2e:f9:57:b5, 2015-01-01 00:31:49.690,-0.064,0.243,0.898,316.406,63.721,15.32, , , , , , ,-9.553,-3.362,-105.645
 12:45:44.436,eb:33:2e:f9:57:b5, 2015-01-01 00:31:49.690,-0.121,0.499,1.49,289.307,67.505,6.47, , , , , , ,-8.047,-3.038,-105.639
 12:45:44.436,eb:33:2e:f9:57:b5, 2015-01-01 00:31:49.690,-0.109,0.612,1.28,265.686,69.458,-10.376, , , , , , ,-6.674,-2.697,-105.705
 12:45:44.482,eb:33:2e:f9:57:b5, 2015-01-01 00:31:49.690,-0.491,0.46,1.444,246.46,74.524,-22.4, , , , , , ,-5.4,-2.351,-105.837
 12:45:44.482,eb:33:2e:f9:57:b5, 2015-01-01 00:31:49.690,-0.169,0.445,1.395,222.107,64.331,-27.222, , , , , , ,-4.224,-2.01,-105.996
 12:45:44.482,eb:33:2e:f9:57:b5, 2015-01-01 00:31:49.690,-0.216,0.193,1.291,199.402,52.551,-16.479, , , , , , ,-3.186,-1.73,-106.122
 12:45:44.482,eb:33:2e:f9:57:b5, 2015-01-01 00:31:49.690,-0.171,0.176,1.136,183.472,43.091,-8.972, , , , , , ,-2.236,-1.505,-106.194
 12:45:44.482,eb:33:2e:f9:57:b5, 2015-01-01 00:31:49.690,-0.243,0.359,1.145,158.813,30.029,-2.014, , , , , , ,-1.39,-1.335,-106.232
 12:45:44.483,eb:33:2e:f9:57:b5, 2015-01-01 00:31:49.690,-0.113,0.916,1.09,111.45,4.7,4.456, , , , , , ,-0.725,-1.263,-106.216
 12:45:44.483,eb:33:2e:f9:57:b5, 2015-01-01 00:31:49.690,-0.073,0.68,1.021,72.266,7.019,10.62, , , , , , ,-0.297,-1.241,-106.177
 12:45:44.483,eb:33:2e:f9:57:b5, 2015-01-01 00:31:49.690,-0.093,0.698,0.955,41.504,14.343,9.338, , , , , , ,-0.027,-1.187,-106.128
 12:45:44.484,eb:33:2e:f9:57:b5, 2015-01-01 00:31:49.690,-0.074,0.368,0.974,25.208,18.494,10.132, , , , , , ,0.115,-1.099,-106.078
 12:45:44.485,eb:33:2e:f9:57:b5, 2015-01-01 00:31:49.690,-0.031,0.095,1.011,21.851,19.531,10.681, , , , , , ,0.231,-0.994,-106.024
 12:45:44.485,eb:33:2e:f9:57:b5, 2015-01-01 00:31:49.690,0.018,0.023,0.969,19.592,15.991,11.414, , , , , , ,0.335,-0.906,-105.969
 12:45:44.485,eb:33:2e:f9:57:b5, 2015-01-01 00:31:49.690,0.003,0.103,0.972,15.198,17.517,11.414, , , , , , ,0.417,-0.824,-105.914
 12:45:44.485,eb:33:2e:f9:57:b5, 2015-01-01 00:31:49.690,-0.025,0.088,0.974,12.878,16.418,10.498, , , , , , ,0.483,-0.736,-105.859
 12:45:44.485,eb:33:2e:f9:57:b5, 2015-01-01 00:31:49.690,-0.025,0.064,0.98,11.414,14.709,9.094, , , , , , ,0.549,-0.654,-105.809
 12:45:44.485,eb:33:2e:f9:57:b5, 2015-01-01 00:31:49.690,-0.03,0.074,0.972,9.094,13,7.751, , , , , , ,0.599,-0.588,-105.765
 12:45:44.485,eb:33:2e:f9:57:b5, 2015-01-01 00:31:49.690,-0.013,0.057,0.978,7.69,11.169,6.714, , , , , , ,0.637,-0.527,-105.732
 12:45:44.639,eb:33:2e:f9:57:b5, 2015-01-01 00:31:49.690,-0.005,0.041,0.993,6.836,10.254,6.531, , , , , , ,0.676,-0.478,-105.699
 12:45:44.639,eb:33:2e:f9:57:b5, 2015-01-01 00:31:49.690,-0.021,0.052,0.998,6.042,10.193,5.92, , , , , , ,0.714,-0.417,-105.667
 12:45:44.639,eb:33:2e:f9:57:b5, 2015-01-01 00:31:49.690,-0.023,0.054,0.984,5.066,9.399,5.188, , , , , , ,0.742,-0.368,-105.639
 12:45:44.639,eb:33:2e:f9:57:b5, 2015-01-01 00:31:49.690,-0.017,0.049,0.985,4.15,8.362,4.089, , , , , , ,0.764,-0.324,-105.617
 12:45:44.639,eb:33:2e:f9:57:b5, 2015-01-01 00:31:49.690,-0.002,0.042,0.99,3.418,7.324,3.479, , , , , , ,0.78,-0.291,-105.595
 12:45:44.639,eb:33:2e:f9:57:b5, 2015-01-01 00:31:49.690,-0.002,0.034,1.007,3.418,8.057,3.235, , , , , , ,0.802,-0.242,-105.579
 12:45:44.639,eb:33:2e:f9:57:b5, 2015-01-01 00:31:49.690,-0.01,0.029,1.01,3.784,9.033,2.991, , , , , , ,0.818,-0.203,-105.562
 12:45:44.639,eb:33:2e:f9:57:b5, 2015-01-01 00:31:49.690,-0.014,0.029,1.005,4.089,9.399,2.808, , , , , , ,0.84,-0.154,-105.551
 12:45:44.639,eb:33:2e:f9:57:b5, 2015-01-01 00:31:49.690,-0.03,0.03,1.005,4.272,9.705,2.563, , , , , , ,0.857,-0.104,-105.535
 12:45:44.639,eb:33:2e:f9:57:b5, 2015-01-01 00:31:49.690,-0.025,0.032,0.995,4.211,9.094,2.625, , , , , , ,0.884,-0.055,-105.524
 12:45:44.640,eb:33:2e:f9:57:b5, 2015-01-01 00:31:49.690,-0.029,0.033,0.999,3.784,9.216,2.991, , , , , , ,0.906,-0.011,-105.507
 12:45:44.640,eb:33:2e:f9:57:b5, 2015-01-01 00:31:49.690,-0.034,0.032,1,3.723,8.911,2.991, , , , , , ,0.923,0.033,-105.491
 12:45:44.640,eb:33:2e:f9:57:b5, 2015-01-01 00:31:49.690,-0.027,0.03,1,3.601,8.301,2.991, , , , , , ,0.939,0.071,-105.48
 12:45:44.640,eb:33:2e:f9:57:b5, 2015-01-01 00:31:49.690,-0.028,0.033,1.005,3.479,8.24,2.747, , , , , , ,0.967,0.121,-105.463
 12:45:44.640,eb:33:2e:f9:57:b5, 2015-01-01 00:31:49.690,-0.026,0.03,1.005,3.235,8.362,2.563, , , , , , ,0.983,0.159,-105.447
 12:45:44.640,eb:33:2e:f9:57:b5, 2015-01-01 00:31:49.690,-0.025,0.031,1.005,3.296,8.362,2.197, , , , , , ,1,0.203,-105.436
 12:45:44.642,eb:33:2e:f9:57:b5, 2015-01-01 00:31:49.690,-0.021,0.03,1.007,3.296,8.606,1.709, , , , , , ,1.016,0.247,-105.425
 12:45:44.642,eb:33:2e:f9:57:b5, 2015-01-01 00:31:49.690,-0.025,0.034,1.008,3.174,9.033,1.221, , , , , , ,1.038,0.297,-105.419
 12:45:44.642,eb:33:2e:f9:57:b5, 2015-01-01 00:31:49.690,-0.027,0.026,1.006,3.174,9.216,0.916, , , , , , ,1.055,0.341,-105.414
 12:45:44.642,eb:33:2e:f9:57:b5, 2015-01-01 00:31:49.690,-0.033,0.026,1.002,3.296,8.85,0.671, , , , , , ,1.066,0.385,-105.408
 12:45:44.642,eb:33:2e:f9:57:b5, 2015-01-01 00:31:49.690,-0.035,0.028,0.996,3.235,7.996,0.488, , , , , , ,1.082,0.428,-105.408
 12:45:44.642,eb:33:2e:f9:57:b5, 2015-01-01 00:31:49.690,-0.034,0.029,0.992,3.113,6.836,0.305, , , , , , ,1.104,0.467,-105.403
 12:45:44.642,eb:33:2e:f9:57:b5, 2015-01-01 00:31:49.690,-0.031,0.03,0.99,2.869,5.798,0.122, , , , , , ,1.121,0.5,-105.403
 12:45:44.642,eb:33:2e:f9:57:b5, 2015-01-01 00:31:49.690,-0.029,0.033,0.989,2.625,4.883,0, , , , , , ,1.132,0.527,-105.403
 12:45:44.642,eb:33:2e:f9:57:b5, 2015-01-01 00:31:49.690,-0.029,0.035,0.989,2.319,4.272,-0.305, , , , , , ,1.143,0.549,-105.403
 12:45:44.642,eb:33:2e:f9:57:b5, 2015-01-01 00:31:49.690,-0.029,0.035,0.989,2.075,3.662,-0.488, , , , , , ,1.165,0.571,-105.408
 12:45:44.643,eb:33:2e:f9:57:b5, 2015-01-01 00:31:49.690,-0.024,0.036,0.989,1.892,3.174,-0.671, , , , , , ,1.17,0.588,-105.408
 12:45:44.643,eb:33:2e:f9:57:b5, 2015-01-01 00:31:49.690,-0.023,0.036,0.993,1.709,2.869,-0.854, , , , , , ,1.181,0.604,-105.414
 12:45:44.643,eb:33:2e:f9:57:b5, 2015-01-01 00:31:49.690,-0.021,0.037,0.994,1.526,2.625,-1.038, , , , , , ,1.187,0.621,-105.419
 12:45:44.643,eb:33:2e:f9:57:b5, 2015-01-01 00:31:49.690,-0.023,0.034,0.997,1.465,2.686,-1.16, , , , , , ,1.203,0.637,-105.425
 12:45:44.643,eb:33:2e:f9:57:b5, 2015-01-01 00:31:49.690,-0.022,0.033,0.998,1.343,2.747,-1.282, , , , , , ,1.208,0.648,-105.43
 12:45:44.643,eb:33:2e:f9:57:b5, 2015-01-01 00:31:49.690,-0.021,0.035,0.999,1.343,2.869,-1.465, , , , , , ,1.214,0.665,-105.441
 12:45:44.729,eb:33:2e:f9:57:b5, 2015-01-01 00:31:49.690,-0.022,0.034,1.001,1.404,3.296,-1.709, , , , , , ,1.219,0.681,-105.447
 12:45:44.729,eb:33:2e:f9:57:b5, 2015-01-01 00:31:49.690,-0.025,0.033,1.002,1.404,3.54,-1.831, , , , , , ,1.23,0.703,-105.458
 12:45:44.729,eb:33:2e:f9:57:b5, 2015-01-01 00:31:49.690,-0.024,0.033,1,1.526,3.723,-2.014, , , , , , ,1.241,0.72,-105.469
 12:45:44.729,eb:33:2e:f9:57:b5, 2015-01-01 00:31:49.690,-0.024,0.034,1.001,1.526,4.15,-2.136, , , , , , ,1.247,0.742,-105.48
 12:45:44.729,eb:33:2e:f9:57:b5, 2015-01-01 00:31:49.690,-0.036,0.034,1.001,1.526,4.578,-2.38, , , , , , ,1.252,0.764,-105.491
 12:45:44.729,eb:33:2e:f9:57:b5, 2015-01-01 00:31:49.690,-0.028,0.032,0.995,1.648,4.395,-2.563, , , , , , ,1.269,0.791,-105.502
 12:45:44.730,eb:33:2e:f9:57:b5, 2015-01-01 00:31:49.690,-0.021,0.035,1,1.709,5.127,-2.686, , , , , , ,1.274,0.818,-105.513
 12:45:44.730,eb:33:2e:f9:57:b5, 2015-01-01 00:31:49.690,-0.022,0.035,1.007,1.892,5.92,-2.869, , , , , , ,1.28,0.846,-105.529
 12:45:44.730,eb:33:2e:f9:57:b5, 2015-01-01 00:31:49.690,-0.021,0.034,1.005,2.075,6.348,-3.113, , , , , , ,1.291,0.879,-105.546
 12:45:44.730,eb:33:2e:f9:57:b5, 2015-01-01 00:31:49.690,-0.027,0.035,1.008,2.136,6.958,-3.357, , , , , , ,1.307,0.917,-105.557
 12:45:44.730,eb:33:2e:f9:57:b5, 2015-01-01 00:31:49.690,-0.023,0.032,1.005,2.319,7.446,-3.601, , , , , , ,1.318,0.95,-105.573
 12:45:44.730,eb:33:2e:f9:57:b5, 2015-01-01 00:31:49.690,-0.03,0.033,1.007,2.563,8.057,-3.784, , , , , , ,1.329,0.994,-105.595
 12:45:44.731,eb:33:2e:f9:57:b5, 2015-01-01 00:31:49.690,-0.032,0.032,1.002,2.869,8.179,-3.845, , , , , , ,1.34,1.033,-105.612
 12:45:44.731,eb:33:2e:f9:57:b5, 2015-01-01 00:31:49.690,-0.033,0.036,1.002,3.296,7.812,-4.028, , , , , , ,1.362,1.077,-105.634
 12:45:44.731,eb:33:2e:f9:57:b5, 2015-01-01 00:31:49.690,-0.009,0.035,0.996,3.784,7.385,-4.517, , , , , , ,1.379,1.115,-105.656
 12:45:44.731,eb:33:2e:f9:57:b5, 2015-01-01 00:31:49.690,-0.048,0.045,1.021,3.784,9.583,-5.005, , , , , , ,1.401,1.159,-105.677
 12:45:44.795,eb:33:2e:f9:57:b5, 2015-01-01 00:31:49.690,-0.031,0.035,0.988,3.967,8.972,-4.822, , , , , , ,1.417,1.208,-105.699
 12:45:44.795,eb:33:2e:f9:57:b5, 2015-01-01 00:31:49.690,-0.039,0.038,1.001,4.028,9.46,-4.517, , , , , , ,1.445,1.263,-105.721
 12:45:44.795,eb:33:2e:f9:57:b5, 2015-01-01 00:31:49.690,-0.04,0.038,0.996,4.089,9.338,-4.822, , , , , , ,1.461,1.307,-105.743
 12:45:44.795,eb:33:2e:f9:57:b5, 2015-01-01 00:31:49.690,-0.048,0.037,0.997,4.272,9.338,-5.188, , , , , , ,1.483,1.357,-105.771
 12:45:44.795,eb:33:2e:f9:57:b5, 2015-01-01 00:31:49.690,-0.054,0.039,0.989,4.395,8.789,-5.31, , , , , , ,1.505,1.401,-105.793
 12:45:44.795,eb:33:2e:f9:57:b5, 2015-01-01 00:31:49.690,-0.037,0.036,0.986,4.517,7.935,-5.127, , , , , , ,1.533,1.45,-105.82
 12:45:44.795,eb:33:2e:f9:57:b5, 2015-01-01 00:31:49.690,-0.052,0.036,1.004,4.822,8.057,-5.188, , , , , , ,1.555,1.489,-105.848
 12:45:44.795,eb:33:2e:f9:57:b5, 2015-01-01 00:31:49.690,-0.044,0.026,0.994,5.188,7.507,-5.066, , , , , , ,1.577,1.533,-105.87
 12:45:44.863,eb:33:2e:f9:57:b5, 2015-01-01 00:31:50.245,-0.03,0.03,1.002,5.554,7.202,-4.883, , , , , , ,1.604,1.566,-105.897
 12:45:44.863,eb:33:2e:f9:57:b5, 2015-01-01 00:31:50.245,-0.059,0.036,1.015,5.981,8.423,-5.005, , , , , , ,1.637,1.609,-105.919
 12:45:44.863,eb:33:2e:f9:57:b5, 2015-01-01 00:31:50.245,-0.049,0.03,0.993,6.287,7.507,-4.822, , , , , , ,1.664,1.653,-105.941
 12:45:44.863,eb:33:2e:f9:57:b5, 2015-01-01 00:31:50.245,-0.044,0.032,1.005,6.592,7.568,-4.578, , , , , , ,1.697,1.692,-105.969
 12:45:44.863,eb:33:2e:f9:57:b5, 2015-01-01 00:31:50.245,-0.054,0.036,1.009,6.897,7.812,-4.7, , , , , , ,1.73,1.73,-105.991
 12:45:44.863,eb:33:2e:f9:57:b5, 2015-01-01 00:31:50.245,-0.04,0.036,1.002,7.019,7.69,-4.456, , , , , , ,1.769,1.774,-106.013
 12:45:44.863,eb:33:2e:f9:57:b5, 2015-01-01 00:31:50.245,-0.047,0.038,1.015,7.446,7.69,-4.822, , , , , , ,1.807,1.813,-106.035
 12:45:44.863,eb:33:2e:f9:57:b5, 2015-01-01 00:31:50.245,-0.026,0.038,1.007,7.935,7.324,-5.005, , , , , , ,1.84,1.851,-106.057
 12:45:44.975,eb:33:2e:f9:57:b5, 2015-01-01 00:31:50.245,-0.037,0.045,1.025,8.423,8.423,-5.859, , , , , , ,1.884,1.89,-106.084
 12:45:44.975,eb:33:2e:f9:57:b5, 2015-01-01 00:31:50.245,-0.032,0.044,1.015,8.789,8.667,-5.981, , , , , , ,1.928,1.945,-106.111
 12:45:44.975,eb:33:2e:f9:57:b5, 2015-01-01 00:31:50.245,-0.041,0.044,1.028,9.644,8.24,-6.592, , , , , , ,1.978,1.983,-106.144
 12:45:44.975,eb:33:2e:f9:57:b5, 2015-01-01 00:31:50.245,-0.017,0.029,1.03,10.803,7.629,-6.531, , , , , , ,2.027,2.027,-106.177
 12:45:44.975,eb:33:2e:f9:57:b5, 2015-01-01 00:31:50.245,-0.036,0.042,1.043,12.268,7.874,-7.507, , , , , , ,2.082,2.065,-106.21
 12:45:44.975,eb:33:2e:f9:57:b5, 2015-01-01 00:31:50.245,-0.026,0.056,0.995,13,6.897,-7.996, , , , , , ,2.148,2.109,-106.249
 12:45:44.975,eb:33:2e:f9:57:b5, 2015-01-01 00:31:50.245,-0.048,0.041,1.042,13.977,7.568,-8.179, , , , , , ,2.214,2.148,-106.287
 12:45:44.975,eb:33:2e:f9:57:b5, 2015-01-01 00:31:50.245,-0.003,0.026,1.054,15.015,7.69,-8.24, , , , , , ,2.285,2.186,-106.331
 12:45:44.977,eb:33:2e:f9:57:b5, 2015-01-01 00:31:50.245,0.004,-0.018,1.274,17.517,16.846,-7.385, , , , , , ,2.368,2.247,-106.37
 12:45:44.977,eb:33:2e:f9:57:b5, 2015-01-01 00:31:50.245,0.034,-0.006,1.219,20.813,23.01,-6.836, , , , , , ,2.466,2.362,-106.397
 12:45:44.977,eb:33:2e:f9:57:b5, 2015-01-01 00:31:50.245,-0.046,0.083,1.09,21.729,25.269,-9.155, , , , , , ,2.571,2.483,-106.436
 12:45:44.977,eb:33:2e:f9:57:b5, 2015-01-01 00:31:50.245,-0.075,0.003,1.19,25.879,26.917,-8.728, , , , , , ,2.692,2.62,-106.474
 12:45:44.977,eb:33:2e:f9:57:b5, 2015-01-01 00:31:50.245,-0.087,-0.012,1.188,34.302,20.386,-9.338, , , , , , ,2.84,2.736,-106.512
 12:45:44.977,eb:33:2e:f9:57:b5, 2015-01-01 00:31:50.245,-0.126,-0.05,1.26,44.312,14.954,-8.667, , , , , , ,3.043,2.829,-106.551
 12:45:44.977,eb:33:2e:f9:57:b5, 2015-01-01 00:31:50.245,-0.133,-0.077,1.343,55.176,10.864,-6.104, , , , , , ,3.296,2.895,-106.584
 12:45:44.977,eb:33:2e:f9:57:b5, 2015-01-01 00:31:50.245,-0.118,-0.087,1.43,66.711,6.531,-4.333, , , , , , ,3.604,2.933,-106.611
 12:45:45.022,eb:33:2e:f9:57:b5, 2015-01-01 00:31:50.245,-0.04,-0.136,1.497,76.294,8.362,0, , , , , , ,3.966,2.977,-106.617
 12:45:45.022,eb:33:2e:f9:57:b5, 2015-01-01 00:31:50.245,0.001,-0.072,1.505,84.717,12.329,2.808, , , , , , ,4.378,3.032,-106.606
 12:45:45.022,eb:33:2e:f9:57:b5, 2015-01-01 00:31:50.245,0.018,-0.018,1.517,94.849,16.174,3.235, , , , , , ,4.834,3.104,-106.584
 12:45:45.022,eb:33:2e:f9:57:b5, 2015-01-01 00:31:50.245,0.054,0.006,1.539,106.628,18.25,3.113, , , , , , ,5.345,3.192,-106.556
 12:45:45.022,eb:33:2e:f9:57:b5, 2015-01-01 00:31:50.245,0.057,0.045,1.546,119.08,18.738,1.953, , , , , , ,5.916,3.279,-106.534
 12:45:45.022,eb:33:2e:f9:57:b5, 2015-01-01 00:31:50.245,-0.018,-0.02,1.506,127.747,24.78,2.258, , , , , , ,6.548,3.395,-106.518
 12:45:45.022,eb:33:2e:f9:57:b5, 2015-01-01 00:31:50.245,-0.046,-0.019,1.478,130.798,33.081,2.869, , , , , , ,7.196,3.538,-106.485
 12:45:45.022,eb:33:2e:f9:57:b5, 2015-01-01 00:31:50.245,0.009,-0.047,1.565,140.747,34.119,2.563, , , , , , ,7.877,3.708,-106.452
 12:45:45.022,eb:33:2e:f9:57:b5, 2015-01-01 00:31:50.245,-0.024,-0.015,1.598,153.259,34.485,2.136, , , , , , ,8.619,3.873,-106.419
 12:45:45.023,eb:33:2e:f9:57:b5, 2015-01-01 00:31:50.245,-0.014,-0.028,1.59,163.452,34.485,2.197, , , , , , ,9.426,4.043,-106.381
 12:45:45.023,eb:33:2e:f9:57:b5, 2015-01-01 00:31:50.245,0.013,-0.102,1.613,173.828,41.931,4.15, , , , , , ,10.272,4.235,-106.326
 12:45:45.023,eb:33:2e:f9:57:b5, 2015-01-01 00:31:50.245,0.079,-0.032,1.533,184.937,43.03,3.113, , , , , , ,11.179,4.438,-106.271
 12:45:45.023,eb:33:2e:f9:57:b5, 2015-01-01 00:31:50.245,0.141,0.062,1.635,195.862,43.579,0.366, , , , , , ,12.14,4.653,-106.216
 12:45:45.023,eb:33:2e:f9:57:b5, 2015-01-01 00:31:50.245,0.172,0.044,1.779,209.778,48.523,-2.686, , , , , , ,13.167,4.883,-106.172
 12:45:45.023,eb:33:2e:f9:57:b5, 2015-01-01 00:31:50.245,0.161,0.034,1.689,223.877,52.124,-6.592, , , , , , ,14.26,5.136,-106.139
 12:45:45.023,eb:33:2e:f9:57:b5, 2015-01-01 00:31:50.245,0.138,0.028,1.611,236.328,50.476,-12.878, , , , , , ,15.419,5.394,-106.122
 12:45:45.025,eb:33:2e:f9:57:b5, 2015-01-01 00:31:50.245,0.102,-0.036,1.825,246.033,55.42,-18.127, , , , , , ,16.628,5.669,-106.133
 12:45:45.025,eb:33:2e:f9:57:b5, 2015-01-01 00:31:50.245,0.061,-0.129,2.072,258.911,72.815,-18.677, , , , , , ,17.902,6.01,-106.122
 12:45:45.025,eb:33:2e:f9:57:b5, 2015-01-01 00:31:50.245,0.113,-0.112,2.047,274.475,89.05,-19.897, , , , , , ,19.248,6.438,-106.084
 12:45:45.025,eb:33:2e:f9:57:b5, 2015-01-01 00:31:50.245,0.194,-0.097,1.977,290.833,99.06,-21.179, , , , , , ,20.676,6.921,-106.013
 12:45:45.025,eb:33:2e:f9:57:b5, 2015-01-01 00:31:50.245,0.297,-0.029,1.885,307.068,100.952,-26.123, , , , , , ,22.187,7.432,-105.941
 12:45:45.025,eb:33:2e:f9:57:b5, 2015-01-01 00:31:50.245,0.415,0.139,2.021,324.829,98.633,-34.058, , , , , , ,23.78,7.954,-105.892
 12:45:45.025,eb:33:2e:f9:57:b5, 2015-01-01 00:31:50.245,0.478,0.098,2.109,343.811,105.286,-40.222, , , , , , ,25.466,8.498,-105.848
 12:45:45.025,eb:33:2e:f9:57:b5, 2015-01-01 00:31:50.245,0.465,0.066,1.98,361.633,104.797,-50.049, , , , , , ,27.246,9.069,-105.82
 12:45:45.043,eb:33:2e:f9:57:b5, 2015-01-01 00:31:50.245,0.202,0,2.167,377.563,106.201,-59.753, , , , , , ,29.103,9.668,-105.82
 12:45:45.043,eb:33:2e:f9:57:b5, 2015-01-01 00:31:50.245,-0.108,-0.004,2.672,390.442,123.84,-65.979, , , , , , ,31.036,10.327,-105.809
 12:45:45.043,eb:33:2e:f9:57:b5, 2015-01-01 00:31:50.245,-0.297,0.093,3.216,389.587,147.766,-65.735, , , , , , ,33.003,11.085,-105.727
 12:45:45.043,eb:33:2e:f9:57:b5, 2015-01-01 00:31:50.245,0.14,0.194,3.344,387.939,176.514,-58.899, , , , , , ,34.98,11.959,-105.491
 12:45:45.043,eb:33:2e:f9:57:b5, 2015-01-01 00:31:50.245,0.29,0.06,3.133,395.813,181.702,-55.542, , , , , , ,37.013,12.854,-105.194
 12:45:45.043,eb:33:2e:f9:57:b5, 2015-01-01 00:31:50.245,0.31,-0.049,2.497,394.958,167.419,-56.519, , , , , , ,39.056,13.711,-104.865
 12:45:45.043,eb:33:2e:f9:57:b5, 2015-01-01 00:31:50.245,0.242,0.199,2.988,407.776,170.288,-67.444, , , , , , ,41.138,14.546,-104.562
 12:45:45.043,eb:33:2e:f9:57:b5, 2015-01-01 00:31:50.245,0.184,-0.204,3.04,427.612,190.247,-62.927, , , , , , ,43.341,15.447,-104.167
 12:45:45.111,eb:33:2e:f9:57:b5, 2015-01-01 00:31:50.245,0.376,-0.108,2.165,432.861,164.49,-66.101, , , , , , ,45.61,16.309,-103.766
 12:45:45.111,eb:33:2e:f9:57:b5, 2015-01-01 00:31:50.245,0.542,-0.064,1.921,425.537,126.038,-68.542, , , , , , ,47.834,17.045,-103.464
 12:45:45.111,eb:33:2e:f9:57:b5, 2015-01-01 00:31:50.245,0.743,-0.244,1.986,419.983,83.313,-75.073, , , , , , ,49.988,17.644,-103.326
 12:45:45.111,eb:33:2e:f9:57:b5, 2015-01-01 00:31:50.245,0.673,-0.61,2.693,411.621,91.309,-78.186, , , , , , ,52.086,18.21,-103.233
 12:45:45.111,eb:33:2e:f9:57:b5, 2015-01-01 00:31:50.245,0.89,-0.993,2.505,412.72,100.22,-84.29, , , , , , ,54.19,18.831,-103.079
 12:45:45.111,eb:33:2e:f9:57:b5, 2015-01-01 00:31:50.245,0.933,-1.086,2.4,418.945,116.333,-96.741, , , , , , ,56.321,19.512,-102.892
 12:45:45.111,eb:33:2e:f9:57:b5, 2015-01-01 00:31:50.245,1.048,-1.247,2.652,443.604,142.212,-112.854, , , , , , ,58.579,20.314,-102.607
 12:45:45.111,eb:33:2e:f9:57:b5, 2015-01-01 00:31:50.245,0.933,-1.75,3.126,500.244,167.114,-130.92, , , , , , ,61.084,21.242,-102.211
 12:45:45.135,eb:33:2e:f9:57:b5, 2015-01-01 00:31:50.245,0.426,-1.96,2.689,573.242,175.11,-142.761, , , , , , ,64.012,22.264,-101.706
 12:45:45.135,eb:33:2e:f9:57:b5, 2015-01-01 00:31:50.245,0.169,-0.416,0.587,523.315,149.109,-154.724, , , , , , ,66.934,23.28,-101.272
 12:45:45.135,eb:33:2e:f9:57:b5, 2015-01-01 00:31:50.245,-0.053,-0.168,-0.802,416.87,132.812,-148.499, , , , , , ,69.406,24.241,-100.86
 12:45:45.135,eb:33:2e:f9:57:b5, 2015-01-01 00:31:50.245,0.354,-0.482,-2.607,264.343,92.468,-138, , , , , , ,71.18,25.098,-100.558
 12:45:45.135,eb:33:2e:f9:57:b5, 2015-01-01 00:31:50.245,0.449,-1.268,-3.614,72.693,64.392,-120.972, , , , , , ,71.999,25.829,-100.382
 12:45:45.135,eb:33:2e:f9:57:b5, 2015-01-01 00:31:50.245,0.234,-2.025,-2.308,-79.285,22.583,-97.839, , , , , , ,71.878,26.4,-100.366
 12:45:45.135,eb:33:2e:f9:57:b5, 2015-01-01 00:31:50.245,0.006,-2.02,-0.572,-173.523,-8.484,-68.604, , , , , , ,71.12,26.79,-100.492
 12:45:45.135,eb:33:2e:f9:57:b5, 2015-01-01 00:31:50.245,0.107,-1.692,0.299,-221.375,-34.912,-41.626, , , , , , ,69.994,26.993,-100.717
 12:45:45.203,eb:33:2e:f9:57:b5, 2015-01-01 00:31:50.245,0.306,-1.399,0.827,-239.075,-52.002,-21.851, , , , , , ,68.687,27.048,-101.014
 12:45:45.203,eb:33:2e:f9:57:b5, 2015-01-01 00:31:50.245,0.436,-1.243,1.065,-237.549,-62.988,-7.568, , , , , , ,67.324,26.999,-101.354
 12:45:45.203,eb:33:2e:f9:57:b5, 2015-01-01 00:31:50.245,0.459,-1.197,1.039,-226.318,-68.787,4.944, , , , , , ,66.006,26.867,-101.7
 12:45:45.203,eb:33:2e:f9:57:b5, 2015-01-01 00:31:50.245,0.457,-1.118,0.819,-214.539,-71.716,17.09, , , , , , ,64.764,26.664,-102.025
 12:45:45.203,eb:33:2e:f9:57:b5, 2015-01-01 00:31:50.245,0.443,-0.974,0.595,-208.008,-73.792,27.405, , , , , , ,63.572,26.4,-102.338
 12:45:45.203,eb:33:2e:f9:57:b5, 2015-01-01 00:31:50.245,0.401,-0.803,0.433,-207.642,-76.904,35.095, , , , , , ,62.391,26.082,-102.634
 12:45:45.203,eb:33:2e:f9:57:b5, 2015-01-01 00:31:50.245,0.364,-0.668,0.333,-212.952,-83.252,38.757, , , , , , ,61.205,25.724,-102.936
