Time,Device name,Chip Time(),Acceleration X(g),Acceleration Y(g),Acceleration Z(g),Angular velocity X(°/s),Angular velocity Y(°/s),Angular velocity Z(°/s),ShiftX(mm),ShiftY(mm),ShiftZ(mm),SpeedX(mm/s),SpeedY(mm/s),SpeedZ(mm/s),Angle X(°),Angle Y(°),Angle Z(°)
 13:10:12.894,eb:33:2e:f9:57:b5, 2015-01-01 00:54:44.720,-0.015,0.013,0.997,-0.061,0.366,-0.061, , , , , , ,0.857,0.56,-105.952
 13:10:12.895,eb:33:2e:f9:57:b5, 2015-01-01 00:54:44.720,-0.018,0.012,0.997,0,0.244,0, , , , , , ,0.857,0.56,-105.952
 13:10:12.895,eb:33:2e:f9:57:b5, 2015-01-01 00:54:44.720,-0.011,0.012,0.995,0,0,0, , , , , , ,0.857,0.56,-105.952
 13:10:12.895,eb:33:2e:f9:57:b5, 2015-01-01 00:54:44.720,-0.014,0.015,0.999,0,0.122,0, , , , , , ,0.857,0.56,-105.952
 13:10:12.895,eb:33:2e:f9:57:b5, 2015-01-01 00:54:44.720,-0.014,0.013,0.997,0,0.122,0, , , , , , ,0.857,0.56,-105.952
 13:10:12.895,eb:33:2e:f9:57:b5, 2015-01-01 00:54:44.720,-0.016,0.013,0.999,-0.061,0.122,0, , , , , , ,0.857,0.566,-105.952
 13:10:12.895,eb:33:2e:f9:57:b5, 2015-01-01 00:54:44.720,-0.018,0.013,0.998,0,0.061,0, , , , , , ,0.857,0.566,-105.952
 13:10:12.895,eb:33:2e:f9:57:b5, 2015-01-01 00:54:44.720,-0.016,0.012,0.999,0,0,0, , , , , , ,0.857,0.566,-105.952
 13:10:12.938,eb:33:2e:f9:57:b5, 2015-01-01 00:54:44.720,-0.016,0.012,0.999,0,-0.061,0, , , , , , ,0.857,0.566,-105.952
 13:10:12.938,eb:33:2e:f9:57:b5, 2015-01-01 00:54:44.720,-0.016,0.012,0.998,0,-0.061,0.061, , , , , , ,0.857,0.566,-105.952
 13:10:12.938,eb:33:2e:f9:57:b5, 2015-01-01 00:54:44.720,-0.017,0.012,0.997,0.061,-0.244,0, , , , , , ,0.857,0.566,-105.952
 13:10:12.938,eb:33:2e:f9:57:b5, 2015-01-01 00:54:44.720,-0.016,0.012,0.996,0.122,-0.366,0, , , , , , ,0.857,0.566,-105.952
 13:10:12.938,eb:33:2e:f9:57:b5, 2015-01-01 00:54:44.720,-0.015,0.013,0.996,0.183,-0.549,0.061, , , , , , ,0.857,0.566,-105.952
 13:10:12.938,eb:33:2e:f9:57:b5, 2015-01-01 00:54:44.720,-0.013,0.013,0.996,0.122,-0.61,0.061, , , , , , ,0.857,0.566,-105.952
 13:10:12.938,eb:33:2e:f9:57:b5, 2015-01-01 00:54:44.720,-0.012,0.013,0.996,0.122,-0.61,0.061, , , , , , ,0.857,0.566,-105.952
 13:10:12.938,eb:33:2e:f9:57:b5, 2015-01-01 00:54:44.720,-0.011,0.014,0.996,0.122,-0.549,0.122, , , , , , ,0.857,0.566,-105.952
 13:10:12.984,eb:33:2e:f9:57:b5, 2015-01-01 00:54:44.720,-0.011,0.014,0.996,0.061,-0.427,0.122, , , , , , ,0.857,0.566,-105.952
 13:10:12.984,eb:33:2e:f9:57:b5, 2015-01-01 00:54:44.720,-0.012,0.015,0.996,0.061,-0.305,0.122, , , , , , ,0.857,0.566,-105.952
 13:10:12.984,eb:33:2e:f9:57:b5, 2015-01-01 00:54:44.720,-0.012,0.016,0.994,0,-0.183,0.061, , , , , , ,0.857,0.566,-105.952
 13:10:12.984,eb:33:2e:f9:57:b5, 2015-01-01 00:54:44.720,-0.012,0.015,0.995,0,-0.122,0.183, , , , , , ,0.857,0.566,-105.952
 13:10:12.984,eb:33:2e:f9:57:b5, 2015-01-01 00:54:44.720,-0.013,0.014,0.996,-0.061,0,0.183, , , , , , ,0.857,0.566,-105.952
 13:10:12.984,eb:33:2e:f9:57:b5, 2015-01-01 00:54:44.720,-0.013,0.014,0.997,-0.122,0,0, , , , , , ,0.857,0.566,-105.952
 13:10:12.984,eb:33:2e:f9:57:b5, 2015-01-01 00:54:44.720,-0.013,0.014,0.999,-0.122,0.122,0, , , , , , ,0.857,0.566,-105.952
 13:10:12.984,eb:33:2e:f9:57:b5, 2015-01-01 00:54:44.720,-0.015,0.014,0.999,-0.183,0.183,0, , , , , , ,0.857,0.566,-105.952
 13:10:13.029,eb:33:2e:f9:57:b5, 2015-01-01 00:54:44.720,-0.016,0.013,0.998,-0.122,0.122,0, , , , , , ,0.857,0.566,-105.952
 13:10:13.029,eb:33:2e:f9:57:b5, 2015-01-01 00:54:44.720,-0.016,0.013,0.998,-0.061,0.061,0, , , , , , ,0.857,0.566,-105.952
 13:10:13.029,eb:33:2e:f9:57:b5, 2015-01-01 00:54:44.720,-0.015,0.013,0.997,-0.061,0,0, , , , , , ,0.857,0.566,-105.952
 13:10:13.029,eb:33:2e:f9:57:b5, 2015-01-01 00:54:44.720,-0.016,0.012,0.997,0,-0.183,0, , , , , , ,0.857,0.566,-105.952
 13:10:13.029,eb:33:2e:f9:57:b5, 2015-01-01 00:54:44.720,-0.016,0.012,0.998,0,-0.244,0, , , , , , ,0.857,0.566,-105.952
 13:10:13.029,eb:33:2e:f9:57:b5, 2015-01-01 00:54:44.720,-0.014,0.012,0.999,0.061,-0.366,0, , , , , , ,0.857,0.571,-105.952
 13:10:13.029,eb:33:2e:f9:57:b5, 2015-01-01 00:54:44.720,-0.014,0.012,0.999,0.061,-0.488,0.061, , , , , , ,0.857,0.571,-105.952
 13:10:13.029,eb:33:2e:f9:57:b5, 2015-01-01 00:54:44.720,-0.014,0.013,0.998,0.122,-0.549,0.122, , , , , , ,0.857,0.571,-105.952
 13:10:13.052,eb:33:2e:f9:57:b5, 2015-01-01 00:54:44.720,-0.014,0.012,0.998,0.244,-0.549,0.061, , , , , , ,0.857,0.571,-105.952
 13:10:13.052,eb:33:2e:f9:57:b5, 2015-01-01 00:54:44.720,-0.013,0.013,0.997,0.244,-0.61,0.061, , , , , , ,0.857,0.571,-105.952
 13:10:13.052,eb:33:2e:f9:57:b5, 2015-01-01 00:54:44.720,-0.012,0.014,0.998,0.244,-0.61,0.061, , , , , , ,0.857,0.571,-105.952
 13:10:13.052,eb:33:2e:f9:57:b5, 2015-01-01 00:54:44.720,-0.012,0.014,0.998,0.244,-0.488,0.122, , , , , , ,0.857,0.571,-105.952
 13:10:13.052,eb:33:2e:f9:57:b5, 2015-01-01 00:54:44.720,-0.012,0.014,0.998,0.183,-0.488,0.061, , , , , , ,0.857,0.571,-105.952
 13:10:13.052,eb:33:2e:f9:57:b5, 2015-01-01 00:54:44.720,-0.011,0.016,0.998,0.183,-0.305,0.061, , , , , , ,0.851,0.571,-105.952
 13:10:13.052,eb:33:2e:f9:57:b5, 2015-01-01 00:54:44.720,-0.011,0.015,0.997,0,-0.183,0.183, , , , , , ,0.851,0.571,-105.952
 13:10:13.052,eb:33:2e:f9:57:b5, 2015-01-01 00:54:44.720,-0.011,0.015,0.996,0,-0.061,0.122, , , , , , ,0.851,0.571,-105.952
 13:10:13.098,eb:33:2e:f9:57:b5, 2015-01-01 00:54:44.720,-0.011,0.015,0.995,0,0,0.122, , , , , , ,0.851,0.571,-105.952
 13:10:13.098,eb:33:2e:f9:57:b5, 2015-01-01 00:54:44.720,-0.011,0.015,0.996,0,0,0.122, , , , , , ,0.851,0.571,-105.952
 13:10:13.098,eb:33:2e:f9:57:b5, 2015-01-01 00:54:44.720,-0.012,0.015,0.995,-0.183,0.061,0.122, , , , , , ,0.851,0.571,-105.952
 13:10:13.098,eb:33:2e:f9:57:b5, 2015-01-01 00:54:44.720,-0.012,0.015,0.996,-0.183,0.183,0.183, , , , , , ,0.851,0.571,-105.952
 13:10:13.099,eb:33:2e:f9:57:b5, 2015-01-01 00:54:44.720,-0.012,0.015,0.996,-0.183,0.122,0.122, , , , , , ,0.851,0.571,-105.952
 13:10:13.099,eb:33:2e:f9:57:b5, 2015-01-01 00:54:44.720,-0.012,0.014,0.996,-0.244,0.122,0.122, , , , , , ,0.851,0.571,-105.952
 13:10:13.099,eb:33:2e:f9:57:b5, 2015-01-01 00:54:44.720,-0.013,0.014,0.996,-0.305,0.244,0.122, , , , , , ,0.851,0.571,-105.952
 13:10:13.099,eb:33:2e:f9:57:b5, 2015-01-01 00:54:44.720,-0.013,0.014,0.996,-0.305,0.183,0.122, , , , , , ,0.851,0.571,-105.952
 13:10:13.141,eb:33:2e:f9:57:b5, 2015-01-01 00:54:45.010,-0.015,0.014,0.997,-0.305,0.183,0.061, , , , , , ,0.851,0.571,-105.952
 13:10:13.141,eb:33:2e:f9:57:b5, 2015-01-01 00:54:45.010,-0.014,0.009,0.998,-0.122,0,0.122, , , , , , ,0.846,0.588,-105.952
 13:10:13.141,eb:33:2e:f9:57:b5, 2015-01-01 00:54:45.010,-0.016,0.013,1,0,0,0.061, , , , , , ,0.846,0.588,-105.952
 13:10:13.141,eb:33:2e:f9:57:b5, 2015-01-01 00:54:45.010,-0.015,0.014,0.998,-0.061,-0.061,0.061, , , , , , ,0.846,0.588,-105.952
 13:10:13.142,eb:33:2e:f9:57:b5, 2015-01-01 00:54:45.010,-0.014,0.012,0.997,0,-0.122,0, , , , , , ,0.846,0.588,-105.952
 13:10:13.142,eb:33:2e:f9:57:b5, 2015-01-01 00:54:45.010,-0.013,0.01,0.999,0.122,-0.244,0.122, , , , , , ,0.846,0.593,-105.952
 13:10:13.142,eb:33:2e:f9:57:b5, 2015-01-01 00:54:45.010,-0.015,0.013,1,0.183,-0.244,0.122, , , , , , ,0.846,0.593,-105.952
 13:10:13.142,eb:33:2e:f9:57:b5, 2015-01-01 00:54:45.010,-0.016,0.016,0.997,0.122,-0.183,0.061, , , , , , ,0.846,0.593,-105.952
 13:10:13.187,eb:33:2e:f9:57:b5, 2015-01-01 00:54:45.010,-0.013,0.012,0.998,0.183,-0.366,0.183, , , , , , ,0.846,0.593,-105.952
 13:10:13.187,eb:33:2e:f9:57:b5, 2015-01-01 00:54:45.010,-0.013,0.011,0.998,0.305,-0.427,0.183, , , , , , ,0.846,0.593,-105.952
 13:10:13.187,eb:33:2e:f9:57:b5, 2015-01-01 00:54:45.010,-0.012,0.013,0.999,0.305,-0.366,0.061, , , , , , ,0.846,0.593,-105.952
 13:10:13.187,eb:33:2e:f9:57:b5, 2015-01-01 00:54:45.010,-0.013,0.015,0.998,0.244,-0.305,0, , , , , , ,0.846,0.593,-105.952
 13:10:13.187,eb:33:2e:f9:57:b5, 2015-01-01 00:54:45.010,-0.012,0.012,0.999,0.244,-0.305,0.061, , , , , , ,0.846,0.593,-105.952
 13:10:13.187,eb:33:2e:f9:57:b5, 2015-01-01 00:54:45.010,-0.014,0.013,1,0.244,-0.244,0, , , , , , ,0.846,0.593,-105.952
 13:10:13.187,eb:33:2e:f9:57:b5, 2015-01-01 00:54:45.010,-0.013,0.014,0.998,0.305,-0.244,0, , , , , , ,0.846,0.593,-105.952
 13:10:13.187,eb:33:2e:f9:57:b5, 2015-01-01 00:54:45.010,-0.013,0.015,0.999,0.244,-0.061,0, , , , , , ,0.846,0.593,-105.952
 13:10:13.232,eb:33:2e:f9:57:b5, 2015-01-01 00:54:45.010,-0.012,0.013,0.998,0.183,-0.061,0, , , , , , ,0.846,0.593,-105.952
 13:10:13.232,eb:33:2e:f9:57:b5, 2015-01-01 00:54:45.010,-0.013,0.015,0.998,0.305,-0.061,0, , , , , , ,0.846,0.593,-105.952
 13:10:13.232,eb:33:2e:f9:57:b5, 2015-01-01 00:54:45.010,-0.014,0.015,0.998,0.244,-0.061,0, , , , , , ,0.846,0.593,-105.952
 13:10:13.232,eb:33:2e:f9:57:b5, 2015-01-01 00:54:45.010,-0.013,0.015,0.997,0.183,-0.061,0, , , , , , ,0.846,0.593,-105.952
 13:10:13.232,eb:33:2e:f9:57:b5, 2015-01-01 00:54:45.010,-0.013,0.015,0.997,0.183,-0.061,0, , , , , , ,0.846,0.593,-105.952
 13:10:13.232,eb:33:2e:f9:57:b5, 2015-01-01 00:54:45.010,-0.013,0.013,0.997,0.183,-0.061,0, , , , , , ,0.846,0.593,-105.952
 13:10:13.232,eb:33:2e:f9:57:b5, 2015-01-01 00:54:45.010,-0.013,0.013,0.997,0.183,0,-0.061, , , , , , ,0.846,0.593,-105.952
 13:10:13.232,eb:33:2e:f9:57:b5, 2015-01-01 00:54:45.010,-0.014,0.013,0.997,0.183,0,0, , , , , , ,0.846,0.593,-105.952
 13:10:13.253,eb:33:2e:f9:57:b5, 2015-01-01 00:54:45.010,-0.015,0.013,0.997,0.183,-0.061,0, , , , , , ,0.846,0.593,-105.952
 13:10:13.253,eb:33:2e:f9:57:b5, 2015-01-01 00:54:45.010,-0.014,0.013,0.997,0.244,-0.122,0, , , , , , ,0.846,0.599,-105.952
 13:10:13.253,eb:33:2e:f9:57:b5, 2015-01-01 00:54:45.010,-0.014,0.013,0.997,0.305,-0.183,0, , , , , , ,0.846,0.599,-105.952
 13:10:13.253,eb:33:2e:f9:57:b5, 2015-01-01 00:54:45.010,-0.013,0.013,0.998,0.366,-0.244,0, , , , , , ,0.846,0.599,-105.952
 13:10:13.253,eb:33:2e:f9:57:b5, 2015-01-01 00:54:45.010,-0.013,0.013,0.997,0.305,-0.305,0, , , , , , ,0.846,0.599,-105.952
 13:10:13.253,eb:33:2e:f9:57:b5, 2015-01-01 00:54:45.010,-0.013,0.013,0.998,0.305,-0.366,0, , , , , , ,0.84,0.599,-105.952
 13:10:13.253,eb:33:2e:f9:57:b5, 2015-01-01 00:54:45.010,-0.012,0.013,0.997,0.427,-0.488,0, , , , , , ,0.84,0.599,-105.952
 13:10:13.253,eb:33:2e:f9:57:b5, 2015-01-01 00:54:45.010,-0.012,0.013,0.997,0.427,-0.366,0, , , , , , ,0.84,0.599,-105.952
 13:10:13.299,eb:33:2e:f9:57:b5, 2015-01-01 00:54:45.010,-0.012,0.013,0.999,0.488,-0.305,0, , , , , , ,0.84,0.599,-105.952
 13:10:13.299,eb:33:2e:f9:57:b5, 2015-01-01 00:54:45.010,-0.012,0.013,0.997,0.488,-0.366,0, , , , , , ,0.84,0.599,-105.952
 13:10:13.299,eb:33:2e:f9:57:b5, 2015-01-01 00:54:45.010,-0.012,0.014,0.997,0.488,-0.366,0, , , , , , ,0.84,0.599,-105.952
 13:10:13.299,eb:33:2e:f9:57:b5, 2015-01-01 00:54:45.010,-0.011,0.014,0.996,0.366,-0.305,0.061, , , , , , ,0.84,0.599,-105.952
 13:10:13.299,eb:33:2e:f9:57:b5, 2015-01-01 00:54:45.010,-0.011,0.016,0.996,0.305,-0.122,0, , , , , , ,0.84,0.599,-105.952
 13:10:13.299,eb:33:2e:f9:57:b5, 2015-01-01 00:54:45.010,-0.01,0.014,0.994,0.244,-0.122,0, , , , , , ,0.84,0.599,-105.952
 13:10:13.299,eb:33:2e:f9:57:b5, 2015-01-01 00:54:45.010,-0.009,0.014,0.996,0.244,0,0.122, , , , , , ,0.84,0.599,-105.952
 13:10:13.299,eb:33:2e:f9:57:b5, 2015-01-01 00:54:45.010,-0.01,0.015,0.998,0.244,0.183,0.061, , , , , , ,0.84,0.599,-105.952
 13:10:13.345,eb:33:2e:f9:57:b5, 2015-01-01 00:54:45.010,-0.012,0.018,0.998,0.061,0.305,0, , , , , , ,0.84,0.599,-105.952
 13:10:13.345,eb:33:2e:f9:57:b5, 2015-01-01 00:54:45.010,-0.011,0.014,0.997,0,0.366,0.061, , , , , , ,0.84,0.599,-105.952
 13:10:13.345,eb:33:2e:f9:57:b5, 2015-01-01 00:54:45.010,-0.012,0.014,0.998,0.061,0.488,0.061, , , , , , ,0.84,0.599,-105.952
 13:10:13.345,eb:33:2e:f9:57:b5, 2015-01-01 00:54:45.010,-0.012,0.015,0.998,0,0.488,0.061, , , , , , ,0.84,0.599,-105.952
 13:10:13.345,eb:33:2e:f9:57:b5, 2015-01-01 00:54:45.010,-0.012,0.016,0.997,-0.061,0.61,0, , , , , , ,0.84,0.599,-105.952
 13:10:13.345,eb:33:2e:f9:57:b5, 2015-01-01 00:54:45.010,-0.011,0.013,0.998,0,0.549,0.061, , , , , , ,0.84,0.599,-105.952
 13:10:13.345,eb:33:2e:f9:57:b5, 2015-01-01 00:54:45.010,-0.014,0.013,0.998,0,0.549,0, , , , , , ,0.84,0.599,-105.952
 13:10:13.345,eb:33:2e:f9:57:b5, 2015-01-01 00:54:45.010,-0.016,0.017,0.995,-0.061,0.549,0, , , , , , ,0.84,0.599,-105.952
 13:10:13.390,eb:33:2e:f9:57:b5, 2015-01-01 00:54:45.010,-0.014,0.013,0.994,-0.061,0.427,0.061, , , , , , ,0.84,0.599,-105.952
 13:10:13.390,eb:33:2e:f9:57:b5, 2015-01-01 00:54:45.010,-0.014,0.013,0.994,-0.061,0.305,0.122, , , , , , ,0.84,0.599,-105.952
 13:10:13.390,eb:33:2e:f9:57:b5, 2015-01-01 00:54:45.010,-0.016,0.016,0.994,-0.061,0.122,0.061, , , , , , ,0.84,0.599,-105.952
 13:10:13.390,eb:33:2e:f9:57:b5, 2015-01-01 00:54:45.010,-0.013,0.012,0.994,-0.061,-0.061,0.183, , , , , , ,0.84,0.599,-105.952
 13:10:13.390,eb:33:2e:f9:57:b5, 2015-01-01 00:54:45.010,-0.016,0.014,0.996,-0.122,-0.061,0.122, , , , , , ,0.84,0.599,-105.952
 13:10:13.390,eb:33:2e:f9:57:b5, 2015-01-01 00:54:45.010,-0.015,0.013,0.994,0,-0.305,0.183, , , , , , ,0.84,0.604,-105.952
 13:10:13.390,eb:33:2e:f9:57:b5, 2015-01-01 00:54:45.010,-0.013,0.014,0.996,0,-0.488,0.244, , , , , , ,0.84,0.604,-105.952
 13:10:13.390,eb:33:2e:f9:57:b5, 2015-01-01 00:54:45.010,-0.014,0.016,0.997,-0.122,-0.427,0.244, , , , , , ,0.84,0.604,-105.952
 13:10:13.434,eb:33:2e:f9:57:b5, 2015-01-01 00:54:45.325,-0.012,0.013,0.996,-0.122,-0.549,0.305, , , , , , ,0.84,0.604,-105.952
 13:10:13.434,eb:33:2e:f9:57:b5, 2015-01-01 00:54:45.325,-0.013,0.016,0.999,-0.183,-0.427,0.244, , , , , , ,0.84,0.604,-105.952
 13:10:13.434,eb:33:2e:f9:57:b5, 2015-01-01 00:54:45.325,-0.012,0.014,0.997,-0.244,-0.427,0.305, , , , , , ,0.84,0.604,-105.952
 13:10:13.434,eb:33:2e:f9:57:b5, 2015-01-01 00:54:45.325,-0.012,0.014,0.999,-0.305,-0.427,0.366, , , , , , ,0.84,0.604,-105.952
 13:10:13.434,eb:33:2e:f9:57:b5, 2015-01-01 00:54:45.325,-0.012,0.015,0.997,-0.305,-0.366,0.244, , , , , , ,0.84,0.604,-105.952
 13:10:13.434,eb:33:2e:f9:57:b5, 2015-01-01 00:54:45.325,-0.012,0.015,0.997,-0.305,-0.366,0.244, , , , , , ,0.84,0.604,-105.952
 13:10:13.434,eb:33:2e:f9:57:b5, 2015-01-01 00:54:45.325,-0.01,0.013,0.999,-0.305,-0.305,0.305, , , , , , ,0.84,0.604,-105.952
 13:10:13.434,eb:33:2e:f9:57:b5, 2015-01-01 00:54:45.325,-0.011,0.013,0.999,-0.244,-0.244,0.244, , , , , , ,0.84,0.604,-105.952
 13:10:13.456,eb:33:2e:f9:57:b5, 2015-01-01 00:54:45.325,-0.011,0.015,0.999,-0.244,-0.122,0.244, , , , , , ,0.84,0.604,-105.952
 13:10:13.456,eb:33:2e:f9:57:b5, 2015-01-01 00:54:45.325,-0.009,0.012,0.999,-0.183,-0.061,0.244, , , , , , ,0.84,0.604,-105.952
 13:10:13.456,eb:33:2e:f9:57:b5, 2015-01-01 00:54:45.325,-0.011,0.012,1,-0.183,0.061,0.244, , , , , , ,0.84,0.604,-105.952
 13:10:13.456,eb:33:2e:f9:57:b5, 2015-01-01 00:54:45.325,-0.011,0.012,0.999,-0.122,0.061,0.244, , , , , , ,0.84,0.604,-105.952
 13:10:13.456,eb:33:2e:f9:57:b5, 2015-01-01 00:54:45.325,-0.013,0.014,0.998,-0.061,0.122,0.183, , , , , , ,0.84,0.604,-105.952
 13:10:13.456,eb:33:2e:f9:57:b5, 2015-01-01 00:54:45.325,-0.01,0.013,0.999,0,0.061,0.244, , , , , , ,0.84,0.604,-105.952
 13:10:13.456,eb:33:2e:f9:57:b5, 2015-01-01 00:54:45.325,-0.01,0.014,1.002,0.061,0.244,0.122, , , , , , ,0.84,0.604,-105.952
 13:10:13.456,eb:33:2e:f9:57:b5, 2015-01-01 00:54:45.325,-0.011,0.013,1.002,0.061,0.427,0.061, , , , , , ,0.84,0.604,-105.952
 13:10:13.501,eb:33:2e:f9:57:b5, 2015-01-01 00:54:45.325,-0.01,0.013,1.002,0.244,0.549,0.061, , , , , , ,0.84,0.604,-105.952
 13:10:13.501,eb:33:2e:f9:57:b5, 2015-01-01 00:54:45.325,-0.013,0.013,1,0.244,0.671,0, , , , , , ,0.84,0.604,-105.952
 13:10:13.501,eb:33:2e:f9:57:b5, 2015-01-01 00:54:45.325,-0.015,0.014,0.998,0.244,0.61,0, , , , , , ,0.84,0.604,-105.952
 13:10:13.501,eb:33:2e:f9:57:b5, 2015-01-01 00:54:45.325,-0.01,0.012,0.995,0.366,0.549,0, , , , , , ,0.84,0.604,-105.952
 13:10:13.501,eb:33:2e:f9:57:b5, 2015-01-01 00:54:45.325,-0.012,0.015,0.999,0.305,0.671,-0.061, , , , , , ,0.84,0.604,-105.952
 13:10:13.501,eb:33:2e:f9:57:b5, 2015-01-01 00:54:45.325,-0.016,0.016,0.997,0.305,0.671,-0.061, , , , , , ,0.84,0.604,-105.952
 13:10:13.501,eb:33:2e:f9:57:b5, 2015-01-01 00:54:45.325,-0.012,0.014,0.993,0.366,0.549,-0.061, , , , , , ,0.84,0.604,-105.952
 13:10:13.501,eb:33:2e:f9:57:b5, 2015-01-01 00:54:45.325,-0.012,0.014,0.996,0.366,0.549,-0.061, , , , , , ,0.84,0.604,-105.952
 13:10:13.546,eb:33:2e:f9:57:b5, 2015-01-01 00:54:45.325,-0.015,0.015,0.996,0.366,0.671,-0.122, , , , , , ,0.84,0.604,-105.952
 13:10:13.546,eb:33:2e:f9:57:b5, 2015-01-01 00:54:45.325,-0.015,0.018,0.993,0.305,0.549,-0.122, , , , , , ,0.84,0.604,-105.952
 13:10:13.546,eb:33:2e:f9:57:b5, 2015-01-01 00:54:45.325,-0.01,0.014,0.995,0.244,0.488,-0.122, , , , , , ,0.84,0.604,-105.952
 13:10:13.546,eb:33:2e:f9:57:b5, 2015-01-01 00:54:45.325,-0.009,0.015,0.996,0.183,0.488,-0.061, , , , , , ,0.84,0.604,-105.952
 13:10:13.546,eb:33:2e:f9:57:b5, 2015-01-01 00:54:45.325,-0.013,0.019,0.996,0.061,0.732,-0.061, , , , , , ,0.84,0.604,-105.952
 13:10:13.546,eb:33:2e:f9:57:b5, 2015-01-01 00:54:45.325,-0.014,0.014,0.996,0,0.793,-0.061, , , , , , ,0.84,0.604,-105.952
 13:10:13.546,eb:33:2e:f9:57:b5, 2015-01-01 00:54:45.325,-0.016,0.015,0.994,0,0.793,-0.061, , , , , , ,0.84,0.604,-105.952
 13:10:13.546,eb:33:2e:f9:57:b5, 2015-01-01 00:54:45.325,-0.015,0.015,0.993,-0.061,0.549,-0.122, , , , , , ,0.84,0.604,-105.952
 13:10:13.594,eb:33:2e:f9:57:b5, 2015-01-01 00:54:45.325,-0.013,0.015,0.994,-0.122,0.488,-0.122, , , , , , ,0.84,0.604,-105.952
 13:10:13.594,eb:33:2e:f9:57:b5, 2015-01-01 00:54:45.325,-0.012,0.014,0.998,-0.122,0.549,-0.061, , , , , , ,0.84,0.61,-105.952
 13:10:13.594,eb:33:2e:f9:57:b5, 2015-01-01 00:54:45.325,-0.016,0.015,0.998,-0.122,0.549,-0.122, , , , , , ,0.84,0.61,-105.952
 13:10:13.594,eb:33:2e:f9:57:b5, 2015-01-01 00:54:45.325,-0.015,0.014,0.995,-0.183,0.427,-0.122, , , , , , ,0.84,0.61,-105.952
 13:10:13.594,eb:33:2e:f9:57:b5, 2015-01-01 00:54:45.325,-0.014,0.014,0.995,-0.183,0.305,-0.122, , , , , , ,0.84,0.61,-105.952
 13:10:13.594,eb:33:2e:f9:57:b5, 2015-01-01 00:54:45.325,-0.014,0.014,0.996,-0.183,0.244,-0.122, , , , , , ,0.84,0.61,-105.952
 13:10:13.594,eb:33:2e:f9:57:b5, 2015-01-01 00:54:45.325,-0.015,0.013,0.997,-0.183,0.244,-0.122, , , , , , ,0.84,0.61,-105.952
 13:10:13.594,eb:33:2e:f9:57:b5, 2015-01-01 00:54:45.325,-0.015,0.013,0.998,-0.183,0.183,-0.183, , , , , , ,0.84,0.61,-105.952
 13:10:13.636,eb:33:2e:f9:57:b5, 2015-01-01 00:54:45.325,-0.013,0.013,0.997,-0.183,0.122,-0.183, , , , , , ,0.84,0.61,-105.952
 13:10:13.636,eb:33:2e:f9:57:b5, 2015-01-01 00:54:45.325,-0.014,0.014,0.998,-0.183,0.122,-0.183, , , , , , ,0.84,0.61,-105.952
 13:10:13.636,eb:33:2e:f9:57:b5, 2015-01-01 00:54:45.325,-0.014,0.014,0.999,-0.244,0.061,-0.183, , , , , , ,0.84,0.61,-105.952
 13:10:13.636,eb:33:2e:f9:57:b5, 2015-01-01 00:54:45.325,-0.014,0.014,0.999,-0.244,0.061,-0.122, , , , , , ,0.84,0.61,-105.952
 13:10:13.637,eb:33:2e:f9:57:b5, 2015-01-01 00:54:45.325,-0.014,0.015,0.998,-0.244,0.122,-0.122, , , , , , ,0.84,0.61,-105.952
 13:10:13.637,eb:33:2e:f9:57:b5, 2015-01-01 00:54:45.325,-0.014,0.015,0.998,-0.183,0.061,-0.183, , , , , , ,0.84,0.61,-105.952
 13:10:13.637,eb:33:2e:f9:57:b5, 2015-01-01 00:54:45.325,-0.013,0.014,0.998,-0.183,0.061,-0.183, , , , , , ,0.84,0.61,-105.952
 13:10:13.637,eb:33:2e:f9:57:b5, 2015-01-01 00:54:45.325,-0.013,0.014,0.997,-0.122,0,-0.183, , , , , , ,0.84,0.61,-105.952
 13:10:13.658,eb:33:2e:f9:57:b5, 2015-01-01 00:54:45.325,-0.014,0.014,0.997,-0.244,0,-0.183, , , , , , ,0.84,0.61,-105.952
 13:10:13.658,eb:33:2e:f9:57:b5, 2015-01-01 00:54:45.325,-0.016,0.013,0.997,-0.183,0.061,-0.183, , , , , , ,0.84,0.61,-105.952
 13:10:13.658,eb:33:2e:f9:57:b5, 2015-01-01 00:54:45.325,-0.015,0.012,0.996,-0.183,0,0, , , , , , ,0.84,0.61,-105.952
 13:10:13.658,eb:33:2e:f9:57:b5, 2015-01-01 00:54:45.325,-0.012,0.014,0.996,-0.183,-0.061,-0.183, , , , , , ,0.84,0.61,-105.952
 13:10:13.658,eb:33:2e:f9:57:b5, 2015-01-01 00:54:45.325,-0.012,0.014,0.998,-0.183,0,-0.183, , , , , , ,0.84,0.61,-105.952
 13:10:13.658,eb:33:2e:f9:57:b5, 2015-01-01 00:54:45.325,-0.014,0.013,0.999,-0.183,0,-0.122, , , , , , ,0.84,0.615,-105.952
 13:10:13.659,eb:33:2e:f9:57:b5, 2015-01-01 00:54:45.325,-0.015,0.013,0.997,-0.122,0,-0.122, , , , , , ,0.84,0.615,-105.952
 13:10:13.659,eb:33:2e:f9:57:b5, 2015-01-01 00:54:45.325,-0.015,0.013,0.997,-0.122,0,-0.122, , , , , , ,0.84,0.615,-105.952
 13:10:13.705,eb:33:2e:f9:57:b5, 2015-01-01 00:54:45.325,-0.013,0.012,0.995,-0.122,-0.061,-0.122, , , , , , ,0.84,0.615,-105.952
 13:10:13.705,eb:33:2e:f9:57:b5, 2015-01-01 00:54:45.325,-0.013,0.013,0.997,-0.122,0,-0.122, , , , , , ,0.84,0.615,-105.952
 13:10:13.705,eb:33:2e:f9:57:b5, 2015-01-01 00:54:45.325,-0.013,0.013,0.997,-0.061,0,-0.183, , , , , , ,0.84,0.615,-105.952
 13:10:13.705,eb:33:2e:f9:57:b5, 2015-01-01 00:54:45.325,-0.015,0.013,0.997,-0.061,0,-0.183, , , , , , ,0.84,0.615,-105.952
 13:10:13.705,eb:33:2e:f9:57:b5, 2015-01-01 00:54:45.325,-0.016,0.013,0.998,-0.061,0,-0.122, , , , , , ,0.84,0.615,-105.952
 13:10:13.705,eb:33:2e:f9:57:b5, 2015-01-01 00:54:45.325,-0.012,0.014,0.996,-0.122,-0.122,-0.122, , , , , , ,0.84,0.615,-105.952
 13:10:13.705,eb:33:2e:f9:57:b5, 2015-01-01 00:54:45.325,-0.011,0.015,0.998,-0.122,0,-0.183, , , , , , ,0.84,0.615,-105.952
 13:10:13.705,eb:33:2e:f9:57:b5, 2015-01-01 00:54:45.325,-0.013,0.013,1,-0.122,0,-0.122, , , , , , ,0.84,0.615,-105.958
 13:10:13.749,eb:33:2e:f9:57:b5, 2015-01-01 00:54:45.635,-0.014,0.014,0.998,-0.122,0.061,-0.183, , , , , , ,0.84,0.615,-105.958
 13:10:13.749,eb:33:2e:f9:57:b5, 2015-01-01 00:54:45.635,-0.014,0.014,0.997,-0.061,0.061,-0.183, , , , , , ,0.84,0.615,-105.958
 13:10:13.749,eb:33:2e:f9:57:b5, 2015-01-01 00:54:45.635,-0.013,0.013,0.997,-0.122,0.061,-0.183, , , , , , ,0.84,0.615,-105.958
 13:10:13.749,eb:33:2e:f9:57:b5, 2015-01-01 00:54:45.635,-0.01,0.015,0.999,-0.122,0.122,-0.244, , , , , , ,0.84,0.615,-105.958
 13:10:13.749,eb:33:2e:f9:57:b5, 2015-01-01 00:54:45.635,-0.011,0.015,1,-0.122,0.366,-0.244, , , , , , ,0.84,0.615,-105.958
 13:10:13.749,eb:33:2e:f9:57:b5, 2015-01-01 00:54:45.635,-0.013,0.013,1,-0.183,0.549,-0.244, , , , , , ,0.84,0.615,-105.958
 13:10:13.749,eb:33:2e:f9:57:b5, 2015-01-01 00:54:45.635,-0.015,0.012,0.998,-0.122,0.61,-0.183, , , , , , ,0.84,0.615,-105.958
 13:10:13.749,eb:33:2e:f9:57:b5, 2015-01-01 00:54:45.635,-0.017,0.013,0.997,-0.061,0.549,-0.183, , , , , , ,0.84,0.615,-105.958
 13:10:13.793,eb:33:2e:f9:57:b5, 2015-01-01 00:54:45.635,-0.014,0.014,0.994,-0.122,0.305,-0.183, , , , , , ,0.84,0.615,-105.958
 13:10:13.793,eb:33:2e:f9:57:b5, 2015-01-01 00:54:45.635,-0.01,0.013,0.996,-0.122,0.305,-0.183, , , , , , ,0.84,0.615,-105.958
 13:10:13.793,eb:33:2e:f9:57:b5, 2015-01-01 00:54:45.635,-0.012,0.017,1,-0.183,0.549,-0.183, , , , , , ,0.84,0.615,-105.958
 13:10:13.793,eb:33:2e:f9:57:b5, 2015-01-01 00:54:45.635,-0.016,0.014,0.998,-0.183,0.61,-0.061, , , , , , ,0.84,0.615,-105.958
 13:10:13.793,eb:33:2e:f9:57:b5, 2015-01-01 00:54:45.635,-0.014,0.012,0.998,-0.061,0.488,-0.061, , , , , , ,0.84,0.615,-105.958
 13:10:13.793,eb:33:2e:f9:57:b5, 2015-01-01 00:54:45.635,-0.017,0.016,0.997,-0.122,0.549,-0.122, , , , , , ,0.84,0.621,-105.958
 13:10:13.793,eb:33:2e:f9:57:b5, 2015-01-01 00:54:45.635,-0.012,0.011,0.995,-0.122,0.427,-0.122, , , , , , ,0.84,0.621,-105.958
 13:10:13.793,eb:33:2e:f9:57:b5, 2015-01-01 00:54:45.635,-0.018,0.016,0.999,-0.183,0.549,-0.122, , , , , , ,0.84,0.621,-105.958
 13:10:13.815,eb:33:2e:f9:57:b5, 2015-01-01 00:54:45.635,-0.015,0.009,0.996,-0.061,0.427,-0.122, , , , , , ,0.84,0.621,-105.958
 13:10:13.815,eb:33:2e:f9:57:b5, 2015-01-01 00:54:45.635,-0.017,0.015,0.997,-0.122,0.366,-0.183, , , , , , ,0.84,0.621,-105.958
 13:10:13.815,eb:33:2e:f9:57:b5, 2015-01-01 00:54:45.635,-0.013,0.01,0.996,0,0.122,0, , , , , , ,0.84,0.621,-105.958
 13:10:13.815,eb:33:2e:f9:57:b5, 2015-01-01 00:54:45.635,-0.014,0.013,0.998,-0.061,0.183,0, , , , , , ,0.84,0.621,-105.958
 13:10:13.815,eb:33:2e:f9:57:b5, 2015-01-01 00:54:45.635,-0.017,0.013,0.997,0,0.122,0, , , , , , ,0.84,0.621,-105.958
 13:10:13.816,eb:33:2e:f9:57:b5, 2015-01-01 00:54:45.635,-0.013,0.011,0.997,0,0.061,0, , , , , , ,0.84,0.621,-105.958
 13:10:13.816,eb:33:2e:f9:57:b5, 2015-01-01 00:54:45.635,-0.015,0.015,0.999,0,0.122,0, , , , , , ,0.84,0.621,-105.958
 13:10:13.816,eb:33:2e:f9:57:b5, 2015-01-01 00:54:45.635,-0.013,0.011,0.997,0.061,0,0.061, , , , , , ,0.84,0.621,-105.958
 13:10:13.862,eb:33:2e:f9:57:b5, 2015-01-01 00:54:45.635,-0.014,0.013,0.999,0.061,0.061,0.061, , , , , , ,0.84,0.621,-105.958
 13:10:13.862,eb:33:2e:f9:57:b5, 2015-01-01 00:54:45.635,-0.015,0.013,0.998,0.061,0.061,0, , , , , , ,0.835,0.621,-105.958
 13:10:13.862,eb:33:2e:f9:57:b5, 2015-01-01 00:54:45.635,-0.012,0.011,0.997,0.061,0,0.061, , , , , , ,0.835,0.621,-105.958
 13:10:13.862,eb:33:2e:f9:57:b5, 2015-01-01 00:54:45.635,-0.014,0.013,0.997,0.122,0.061,0, , , , , , ,0.835,0.621,-105.958
 13:10:13.862,eb:33:2e:f9:57:b5, 2015-01-01 00:54:45.635,-0.014,0.014,0.996,0.061,0,0, , , , , , ,0.835,0.621,-105.958
 13:10:13.862,eb:33:2e:f9:57:b5, 2015-01-01 00:54:45.635,-0.014,0.013,0.997,0,0,0.061, , , , , , ,0.835,0.621,-105.958
 13:10:13.862,eb:33:2e:f9:57:b5, 2015-01-01 00:54:45.635,-0.013,0.012,0.997,0.122,0,0.122, , , , , , ,0.835,0.621,-105.958
 13:10:13.862,eb:33:2e:f9:57:b5, 2015-01-01 00:54:45.635,-0.014,0.014,0.998,0.061,0,0.061, , , , , , ,0.835,0.621,-105.958
 13:10:13.907,eb:33:2e:f9:57:b5, 2015-01-01 00:54:45.635,-0.014,0.015,0.996,0,0.061,0.061, , , , , , ,0.835,0.621,-105.958
 13:10:13.907,eb:33:2e:f9:57:b5, 2015-01-01 00:54:45.635,-0.013,0.014,0.997,0,0.061,0.122, , , , , , ,0.835,0.626,-105.958
 13:10:13.907,eb:33:2e:f9:57:b5, 2015-01-01 00:54:45.635,-0.013,0.013,0.998,0,0.122,0.122, , , , , , ,0.835,0.626,-105.958
 13:10:13.907,eb:33:2e:f9:57:b5, 2015-01-01 00:54:45.635,-0.013,0.014,0.997,0.061,0.122,0.061, , , , , , ,0.835,0.626,-105.958
 13:10:13.907,eb:33:2e:f9:57:b5, 2015-01-01 00:54:45.635,-0.014,0.014,0.997,0.061,0.061,0, , , , , , ,0.835,0.626,-105.958
 13:10:13.907,eb:33:2e:f9:57:b5, 2015-01-01 00:54:45.635,-0.014,0.013,0.998,0.061,0.122,0.061, , , , , , ,0.835,0.626,-105.958
 13:10:13.907,eb:33:2e:f9:57:b5, 2015-01-01 00:54:45.635,-0.015,0.013,0.998,0.122,0.183,0.061, , , , , , ,0.835,0.626,-105.958
 13:10:13.907,eb:33:2e:f9:57:b5, 2015-01-01 00:54:45.635,-0.016,0.013,0.998,0.183,0.122,0.122, , , , , , ,0.835,0.626,-105.958
 13:10:13.953,eb:33:2e:f9:57:b5, 2015-01-01 00:54:45.635,-0.015,0.013,0.996,0.244,0.061,0.122, , , , , , ,0.835,0.626,-105.958
 13:10:13.953,eb:33:2e:f9:57:b5, 2015-01-01 00:54:45.635,-0.016,0.014,0.996,0.183,0.061,0.061, , , , , , ,0.835,0.626,-105.958
 13:10:13.953,eb:33:2e:f9:57:b5, 2015-01-01 00:54:45.635,-0.016,0.014,0.996,0.183,0,0.061, , , , , , ,0.835,0.626,-105.958
 13:10:13.953,eb:33:2e:f9:57:b5, 2015-01-01 00:54:45.635,-0.016,0.013,0.996,0.244,-0.061,0.122, , , , , , ,0.835,0.626,-105.958
 13:10:13.953,eb:33:2e:f9:57:b5, 2015-01-01 00:54:45.635,-0.015,0.014,0.997,0.183,-0.061,0.183, , , , , , ,0.835,0.626,-105.958
 13:10:13.953,eb:33:2e:f9:57:b5, 2015-01-01 00:54:45.635,-0.016,0.015,0.997,0.244,-0.122,0.122, , , , , , ,0.835,0.626,-105.958
 13:10:13.953,eb:33:2e:f9:57:b5, 2015-01-01 00:54:45.635,-0.015,0.013,0.995,0.183,-0.183,0.122, , , , , , ,0.835,0.626,-105.958
 13:10:13.953,eb:33:2e:f9:57:b5, 2015-01-01 00:54:45.635,-0.016,0.013,0.996,0.183,-0.244,0.122, , , , , , ,0.835,0.626,-105.958
 13:10:13.997,eb:33:2e:f9:57:b5, 2015-01-01 00:54:45.635,-0.013,0.012,0.996,0.244,-0.366,0.183, , , , , , ,0.835,0.626,-105.958
 13:10:13.997,eb:33:2e:f9:57:b5, 2015-01-01 00:54:45.635,-0.014,0.015,0.996,0.183,-0.366,0.183, , , , , , ,0.835,0.632,-105.958
 13:10:13.997,eb:33:2e:f9:57:b5, 2015-01-01 00:54:45.635,-0.014,0.014,0.997,0.122,-0.366,0.244, , , , , , ,0.835,0.632,-105.958
 13:10:13.997,eb:33:2e:f9:57:b5, 2015-01-01 00:54:45.635,-0.014,0.014,0.997,0.122,-0.427,0.244, , , , , , ,0.835,0.632,-105.958
 13:10:13.997,eb:33:2e:f9:57:b5, 2015-01-01 00:54:45.635,-0.014,0.014,0.997,0.122,-0.366,0.183, , , , , , ,0.835,0.632,-105.958
 13:10:13.997,eb:33:2e:f9:57:b5, 2015-01-01 00:54:45.635,-0.013,0.015,0.997,0.122,-0.366,0.244, , , , , , ,0.835,0.632,-105.958
 13:10:13.997,eb:33:2e:f9:57:b5, 2015-01-01 00:54:45.635,-0.014,0.014,0.997,0.061,-0.305,0.244, , , , , , ,0.835,0.632,-105.958
 13:10:13.997,eb:33:2e:f9:57:b5, 2015-01-01 00:54:45.635,-0.013,0.013,0.996,0,-0.244,0.244, , , , , , ,0.835,0.632,-105.958
 13:10:14.018,eb:33:2e:f9:57:b5, 2015-01-01 00:54:45.925,-0.014,0.014,0.997,0,-0.183,0.183, , , , , , ,0.835,0.632,-105.958
 13:10:14.018,eb:33:2e:f9:57:b5, 2015-01-01 00:54:45.925,-0.013,0.014,0.998,0,-0.122,0.183, , , , , , ,0.835,0.632,-105.958
 13:10:14.018,eb:33:2e:f9:57:b5, 2015-01-01 00:54:45.925,-0.012,0.014,0.998,0,-0.122,0.122, , , , , , ,0.835,0.632,-105.958
 13:10:14.018,eb:33:2e:f9:57:b5, 2015-01-01 00:54:45.925,-0.012,0.013,0.998,0,0,0.183, , , , , , ,0.835,0.632,-105.958
 13:10:14.018,eb:33:2e:f9:57:b5, 2015-01-01 00:54:45.925,-0.013,0.013,0.998,0,0,0.183, , , , , , ,0.835,0.632,-105.958
 13:10:14.018,eb:33:2e:f9:57:b5, 2015-01-01 00:54:45.925,-0.013,0.013,0.998,0,0.061,0.122, , , , , , ,0.835,0.632,-105.958
 13:10:14.018,eb:33:2e:f9:57:b5, 2015-01-01 00:54:45.925,-0.013,0.012,0.998,0.061,0,0.183, , , , , , ,0.835,0.632,-105.958
 13:10:14.018,eb:33:2e:f9:57:b5, 2015-01-01 00:54:45.925,-0.013,0.013,0.998,0.061,0.061,0.183, , , , , , ,0.835,0.632,-105.958
 13:10:14.064,eb:33:2e:f9:57:b5, 2015-01-01 00:54:45.925,-0.013,0.014,0.998,0.122,0.183,0.122, , , , , , ,0.835,0.632,-105.958
 13:10:14.064,eb:33:2e:f9:57:b5, 2015-01-01 00:54:45.925,-0.015,0.014,0.998,0.061,0.244,0.122, , , , , , ,0.835,0.632,-105.958
 13:10:14.064,eb:33:2e:f9:57:b5, 2015-01-01 00:54:45.925,-0.015,0.013,0.998,0.122,0.244,0.122, , , , , , ,0.835,0.632,-105.958
 13:10:14.064,eb:33:2e:f9:57:b5, 2015-01-01 00:54:45.925,-0.015,0.014,0.996,0.061,0.183,0.061, , , , , , ,0.835,0.632,-105.958
 13:10:14.064,eb:33:2e:f9:57:b5, 2015-01-01 00:54:45.925,-0.014,0.013,0.996,0.061,0.122,0.061, , , , , , ,0.835,0.632,-105.958
 13:10:14.064,eb:33:2e:f9:57:b5, 2015-01-01 00:54:45.925,-0.014,0.014,0.997,0.122,0.122,0.122, , , , , , ,0.835,0.632,-105.958
 13:10:14.064,eb:33:2e:f9:57:b5, 2015-01-01 00:54:45.925,-0.014,0.014,0.997,0.061,0.122,0.061, , , , , , ,0.835,0.632,-105.958
 13:10:14.064,eb:33:2e:f9:57:b5, 2015-01-01 00:54:45.925,-0.014,0.015,0.997,0.061,0.122,0.061, , , , , , ,0.835,0.632,-105.958
 13:10:14.110,eb:33:2e:f9:57:b5, 2015-01-01 00:54:45.925,-0.014,0.014,0.997,0.061,0.061,0.061, , , , , , ,0.835,0.632,-105.958
 13:10:14.110,eb:33:2e:f9:57:b5, 2015-01-01 00:54:45.925,-0.013,0.014,0.997,0.122,0.061,0.061, , , , , , ,0.835,0.637,-105.958
 13:10:14.110,eb:33:2e:f9:57:b5, 2015-01-01 00:54:45.925,-0.013,0.014,0.997,0.122,0.061,0.061, , , , , , ,0.835,0.637,-105.958
 13:10:14.110,eb:33:2e:f9:57:b5, 2015-01-01 00:54:45.925,-0.014,0.014,0.996,0.061,0.183,0.061, , , , , , ,0.835,0.637,-105.958
 13:10:14.111,eb:33:2e:f9:57:b5, 2015-01-01 00:54:45.925,-0.014,0.014,0.997,0.061,0.183,0.061, , , , , , ,0.835,0.637,-105.958
 13:10:14.111,eb:33:2e:f9:57:b5, 2015-01-01 00:54:45.925,-0.013,0.014,0.997,0.061,0.183,0, , , , , , ,0.835,0.637,-105.958
 13:10:14.111,eb:33:2e:f9:57:b5, 2015-01-01 00:54:45.925,-0.014,0.014,0.998,0.122,0.183,0, , , , , , ,0.835,0.637,-105.958
 13:10:14.111,eb:33:2e:f9:57:b5, 2015-01-01 00:54:45.925,-0.014,0.013,0.998,0.122,0.244,0.061, , , , , , ,0.835,0.637,-105.958
 13:10:14.154,eb:33:2e:f9:57:b5, 2015-01-01 00:54:45.925,-0.016,0.013,0.997,0.183,0.244,0, , , , , , ,0.835,0.637,-105.958
 13:10:14.154,eb:33:2e:f9:57:b5, 2015-01-01 00:54:45.925,-0.016,0.013,0.997,0.244,0.183,0.061, , , , , , ,0.835,0.637,-105.958
 13:10:14.154,eb:33:2e:f9:57:b5, 2015-01-01 00:54:45.925,-0.014,0.013,0.997,0.305,0.061,0.061, , , , , , ,0.835,0.637,-105.958
 13:10:14.154,eb:33:2e:f9:57:b5, 2015-01-01 00:54:45.925,-0.014,0.012,0.999,0.305,0.061,0.061, , , , , , ,0.835,0.637,-105.958
 13:10:14.154,eb:33:2e:f9:57:b5, 2015-01-01 00:54:45.925,-0.011,0.009,1,0.488,0,0.244, , , , , , ,0.835,0.637,-105.958
 13:10:14.154,eb:33:2e:f9:57:b5, 2015-01-01 00:54:45.925,-0.016,0.016,1,0.427,0.183,0.061, , , , , , ,0.835,0.637,-105.958
 13:10:14.154,eb:33:2e:f9:57:b5, 2015-01-01 00:54:45.925,-0.015,0.015,0.996,0.305,0.183,0, , , , , , ,0.835,0.637,-105.958
 13:10:14.154,eb:33:2e:f9:57:b5, 2015-01-01 00:54:45.925,-0.015,0.013,0.997,0.305,0.061,0.122, , , , , , ,0.835,0.637,-105.958
 13:10:14.199,eb:33:2e:f9:57:b5, 2015-01-01 00:54:45.925,-0.015,0.012,0.998,0.488,0,0.061, , , , , , ,0.835,0.637,-105.958
 13:10:14.199,eb:33:2e:f9:57:b5, 2015-01-01 00:54:45.925,-0.012,0.011,0.998,0.549,-0.061,0.122, , , , , , ,0.835,0.637,-105.958
 13:10:14.199,eb:33:2e:f9:57:b5, 2015-01-01 00:54:45.925,-0.015,0.017,0.998,0.488,0.061,0.061, , , , , , ,0.835,0.637,-105.958
 13:10:14.199,eb:33:2e:f9:57:b5, 2015-01-01 00:54:45.925,-0.014,0.015,0.997,0.366,0.122,0.061, , , , , , ,0.835,0.637,-105.958
 13:10:14.199,eb:33:2e:f9:57:b5, 2015-01-01 00:54:45.925,-0.015,0.014,0.996,0.366,0.061,0.061, , , , , , ,0.835,0.637,-105.958
 13:10:14.199,eb:33:2e:f9:57:b5, 2015-01-01 00:54:45.925,-0.015,0.013,0.996,0.427,0,0.183, , , , , , ,0.835,0.643,-105.958
 13:10:14.199,eb:33:2e:f9:57:b5, 2015-01-01 00:54:45.925,-0.013,0.012,0.997,0.427,0,0.183, , , , , , ,0.835,0.643,-105.958
 13:10:14.199,eb:33:2e:f9:57:b5, 2015-01-01 00:54:45.925,-0.015,0.017,0.998,0.366,0.122,0.122, , , , , , ,0.835,0.643,-105.958
 13:10:14.222,eb:33:2e:f9:57:b5, 2015-01-01 00:54:45.925,-0.014,0.015,0.996,0.366,0.122,0.122, , , , , , ,0.835,0.643,-105.958
 13:10:14.222,eb:33:2e:f9:57:b5, 2015-01-01 00:54:45.925,-0.016,0.014,0.996,0.305,0.061,0.061, , , , , , ,0.835,0.643,-105.958
 13:10:14.222,eb:33:2e:f9:57:b5, 2015-01-01 00:54:45.925,-0.013,0.012,0.996,0.366,0,0.061, , , , , , ,0.835,0.643,-105.958
 13:10:14.222,eb:33:2e:f9:57:b5, 2015-01-01 00:54:45.925,-0.014,0.017,0.996,0.305,0.061,0, , , , , , ,0.835,0.643,-105.958
 13:10:14.222,eb:33:2e:f9:57:b5, 2015-01-01 00:54:45.925,-0.013,0.015,0.996,0.244,0.183,0.061, , , , , , ,0.835,0.643,-105.958
 13:10:14.222,eb:33:2e:f9:57:b5, 2015-01-01 00:54:45.925,-0.015,0.014,0.997,0.183,0.244,0.061, , , , , , ,0.835,0.643,-105.958
 13:10:14.222,eb:33:2e:f9:57:b5, 2015-01-01 00:54:45.925,-0.014,0.013,0.996,0.244,0.183,0.061, , , , , , ,0.835,0.643,-105.958
 13:10:14.222,eb:33:2e:f9:57:b5, 2015-01-01 00:54:45.925,-0.015,0.016,0.996,0.183,0.244,0.061, , , , , , ,0.835,0.643,-105.958
 13:10:14.266,eb:33:2e:f9:57:b5, 2015-01-01 00:54:45.925,-0.014,0.015,0.995,0.122,0.122,0.061, , , , , , ,0.835,0.643,-105.958
 13:10:14.266,eb:33:2e:f9:57:b5, 2015-01-01 00:54:45.925,-0.015,0.015,0.997,0.061,0.183,0, , , , , , ,0.835,0.643,-105.958
 13:10:14.266,eb:33:2e:f9:57:b5, 2015-01-01 00:54:45.925,-0.016,0.015,0.996,0.122,0.061,0.061, , , , , , ,0.835,0.643,-105.958
 13:10:14.266,eb:33:2e:f9:57:b5, 2015-01-01 00:54:45.925,-0.015,0.015,0.996,0.061,0,0.061, , , , , , ,0.835,0.643,-105.958
 13:10:14.266,eb:33:2e:f9:57:b5, 2015-01-01 00:54:45.925,-0.015,0.015,0.996,0.061,0,0.061, , , , , , ,0.835,0.643,-105.958
 13:10:14.266,eb:33:2e:f9:57:b5, 2015-01-01 00:54:45.925,-0.016,0.014,0.996,0,-0.122,0, , , , , , ,0.835,0.643,-105.958
 13:10:14.266,eb:33:2e:f9:57:b5, 2015-01-01 00:54:45.925,-0.016,0.014,0.996,0.061,-0.122,0.061, , , , , , ,0.835,0.643,-105.958
 13:10:14.266,eb:33:2e:f9:57:b5, 2015-01-01 00:54:45.925,-0.015,0.014,0.996,0.122,-0.244,0.061, , , , , , ,0.835,0.643,-105.958
 13:10:14.312,eb:33:2e:f9:57:b5, 2015-01-01 00:54:45.925,-0.015,0.015,0.996,0.061,-0.305,0.122, , , , , , ,0.835,0.643,-105.958
 13:10:14.312,eb:33:2e:f9:57:b5, 2015-01-01 00:54:45.925,-0.013,0.015,0.997,0.061,-0.366,0.122, , , , , , ,0.835,0.648,-105.958
 13:10:14.313,eb:33:2e:f9:57:b5, 2015-01-01 00:54:45.925,-0.013,0.015,0.997,0,-0.366,0.122, , , , , , ,0.835,0.648,-105.958
 13:10:14.313,eb:33:2e:f9:57:b5, 2015-01-01 00:54:45.925,-0.012,0.015,0.997,0,-0.305,0.061, , , , , , ,0.835,0.648,-105.958
 13:10:14.313,eb:33:2e:f9:57:b5, 2015-01-01 00:54:45.925,-0.012,0.015,0.996,0,-0.244,0.061, , , , , , ,0.835,0.648,-105.958
 13:10:14.313,eb:33:2e:f9:57:b5, 2015-01-01 00:54:45.925,-0.012,0.015,0.997,-0.061,-0.122,0, , , , , , ,0.835,0.648,-105.958
 13:10:14.313,eb:33:2e:f9:57:b5, 2015-01-01 00:54:45.925,-0.013,0.016,0.997,-0.122,-0.122,0, , , , , , ,0.835,0.648,-105.958
 13:10:14.313,eb:33:2e:f9:57:b5, 2015-01-01 00:54:45.925,-0.013,0.016,0.996,-0.122,0,0, , , , , , ,0.835,0.648,-105.958
 13:10:14.356,eb:33:2e:f9:57:b5, 2015-01-01 00:54:46.240,-0.014,0.016,0.996,-0.183,0,0, , , , , , ,0.835,0.648,-105.958
 13:10:14.356,eb:33:2e:f9:57:b5, 2015-01-01 00:54:46.240,-0.014,0.014,0.997,-0.183,0.061,0, , , , , , ,0.835,0.648,-105.958
 13:10:14.356,eb:33:2e:f9:57:b5, 2015-01-01 00:54:46.240,-0.014,0.014,0.997,-0.183,0,-0.061, , , , , , ,0.835,0.648,-105.958
 13:10:14.356,eb:33:2e:f9:57:b5, 2015-01-01 00:54:46.240,-0.014,0.014,0.997,-0.183,0,-0.061, , , , , , ,0.835,0.648,-105.958
 13:10:14.356,eb:33:2e:f9:57:b5, 2015-01-01 00:54:46.240,-0.014,0.014,0.997,-0.122,0,0, , , , , , ,0.835,0.648,-105.958
 13:10:14.356,eb:33:2e:f9:57:b5, 2015-01-01 00:54:46.240,-0.015,0.014,0.997,-0.061,0,0, , , , , , ,0.835,0.648,-105.958
 13:10:14.356,eb:33:2e:f9:57:b5, 2015-01-01 00:54:46.240,-0.015,0.014,0.996,-0.061,0,0, , , , , , ,0.835,0.648,-105.958
 13:10:14.356,eb:33:2e:f9:57:b5, 2015-01-01 00:54:46.240,-0.014,0.014,0.997,-0.122,0,0, , , , , , ,0.835,0.648,-105.958
 13:10:14.401,eb:33:2e:f9:57:b5, 2015-01-01 00:54:46.240,-0.014,0.014,0.997,-0.122,0,0, , , , , , ,0.835,0.648,-105.958
 13:10:14.401,eb:33:2e:f9:57:b5, 2015-01-01 00:54:46.240,-0.014,0.015,0.996,-0.122,0,0, , , , , , ,0.835,0.648,-105.958
 13:10:14.401,eb:33:2e:f9:57:b5, 2015-01-01 00:54:46.240,-0.013,0.014,0.997,-0.122,-0.061,0, , , , , , ,0.835,0.648,-105.958
 13:10:14.401,eb:33:2e:f9:57:b5, 2015-01-01 00:54:46.240,-0.013,0.014,0.997,-0.122,0,-0.061, , , , , , ,0.835,0.648,-105.958
 13:10:14.401,eb:33:2e:f9:57:b5, 2015-01-01 00:54:46.240,-0.013,0.014,0.997,-0.122,0,-0.061, , , , , , ,0.835,0.648,-105.958
 13:10:14.401,eb:33:2e:f9:57:b5, 2015-01-01 00:54:46.240,-0.013,0.015,0.997,-0.122,0.061,0, , , , , , ,0.835,0.648,-105.958
 13:10:14.401,eb:33:2e:f9:57:b5, 2015-01-01 00:54:46.240,-0.014,0.014,0.998,-0.122,0.061,-0.061, , , , , , ,0.835,0.648,-105.958
 13:10:14.401,eb:33:2e:f9:57:b5, 2015-01-01 00:54:46.240,-0.014,0.014,0.998,-0.122,0.122,-0.061, , , , , , ,0.835,0.648,-105.958
 13:10:14.431,eb:33:2e:f9:57:b5, 2015-01-01 00:54:46.240,-0.013,0.014,0.999,-0.183,0.183,-0.061, , , , , , ,0.835,0.648,-105.958
 13:10:14.431,eb:33:2e:f9:57:b5, 2015-01-01 00:54:46.240,-0.014,0.015,0.998,-0.122,0.122,0, , , , , , ,0.835,0.648,-105.958
 13:10:14.431,eb:33:2e:f9:57:b5, 2015-01-01 00:54:46.240,-0.014,0.014,0.998,-0.122,0.183,0, , , , , , ,0.835,0.648,-105.958
 13:10:14.431,eb:33:2e:f9:57:b5, 2015-01-01 00:54:46.240,-0.014,0.014,0.997,-0.061,0.122,-0.061, , , , , , ,0.835,0.648,-105.958
 13:10:14.431,eb:33:2e:f9:57:b5, 2015-01-01 00:54:46.240,-0.014,0.013,0.998,-0.061,0.122,-0.061, , , , , , ,0.835,0.648,-105.958
 13:10:14.431,eb:33:2e:f9:57:b5, 2015-01-01 00:54:46.240,-0.015,0.013,0.998,0,0.122,-0.122, , , , , , ,0.835,0.654,-105.958
 13:10:14.431,eb:33:2e:f9:57:b5, 2015-01-01 00:54:46.240,-0.014,0.013,0.997,0,0.122,-0.061, , , , , , ,0.835,0.654,-105.958
 13:10:14.431,eb:33:2e:f9:57:b5, 2015-01-01 00:54:46.240,-0.014,0.013,0.997,0,0.061,-0.061, , , , , , ,0.835,0.654,-105.958
 13:10:14.474,eb:33:2e:f9:57:b5, 2015-01-01 00:54:46.240,-0.015,0.014,0.997,0,0.122,-0.122, , , , , , ,0.835,0.654,-105.958
 13:10:14.474,eb:33:2e:f9:57:b5, 2015-01-01 00:54:46.240,-0.015,0.014,0.997,0,0.061,-0.061, , , , , , ,0.835,0.654,-105.958
 13:10:14.474,eb:33:2e:f9:57:b5, 2015-01-01 00:54:46.240,-0.014,0.014,0.997,0,0,0, , , , , , ,0.835,0.654,-105.958
 13:10:14.474,eb:33:2e:f9:57:b5, 2015-01-01 00:54:46.240,-0.015,0.014,0.998,0,0,0, , , , , , ,0.835,0.654,-105.958
 13:10:14.474,eb:33:2e:f9:57:b5, 2015-01-01 00:54:46.240,-0.015,0.014,0.996,0,0,0, , , , , , ,0.835,0.654,-105.958
 13:10:14.474,eb:33:2e:f9:57:b5, 2015-01-01 00:54:46.240,-0.014,0.014,0.996,0,0,0, , , , , , ,0.835,0.654,-105.958
 13:10:14.474,eb:33:2e:f9:57:b5, 2015-01-01 00:54:46.240,-0.014,0.014,0.997,0,0,0, , , , , , ,0.835,0.654,-105.958
 13:10:14.474,eb:33:2e:f9:57:b5, 2015-01-01 00:54:46.240,-0.014,0.014,0.997,0,0,0, , , , , , ,0.835,0.654,-105.958
 13:10:14.519,eb:33:2e:f9:57:b5, 2015-01-01 00:54:46.240,-0.014,0.014,0.997,0,0,0, , , , , , ,0.835,0.654,-105.958
 13:10:14.519,eb:33:2e:f9:57:b5, 2015-01-01 00:54:46.240,-0.015,0.014,0.998,0,0,0, , , , , , ,0.835,0.654,-105.958
 13:10:14.519,eb:33:2e:f9:57:b5, 2015-01-01 00:54:46.240,-0.014,0.014,0.998,0,0.061,0, , , , , , ,0.835,0.654,-105.958
 13:10:14.519,eb:33:2e:f9:57:b5, 2015-01-01 00:54:46.240,-0.014,0.014,0.998,0,0.061,0, , , , , , ,0.835,0.654,-105.958
 13:10:14.519,eb:33:2e:f9:57:b5, 2015-01-01 00:54:46.240,-0.014,0.014,0.998,-0.061,0.061,0, , , , , , ,0.835,0.654,-105.958
 13:10:14.519,eb:33:2e:f9:57:b5, 2015-01-01 00:54:46.240,-0.014,0.014,0.998,0,0,0, , , , , , ,0.835,0.654,-105.958
 13:10:14.519,eb:33:2e:f9:57:b5, 2015-01-01 00:54:46.240,-0.014,0.014,0.997,0,0,0, , , , , , ,0.835,0.654,-105.958
 13:10:14.519,eb:33:2e:f9:57:b5, 2015-01-01 00:54:46.240,-0.015,0.014,0.997,0,0,0, , , , , , ,0.835,0.654,-105.958
 13:10:14.559,eb:33:2e:f9:57:b5, 2015-01-01 00:54:46.240,-0.015,0.013,0.996,0,0,0, , , , , , ,0.835,0.654,-105.958
 13:10:14.559,eb:33:2e:f9:57:b5, 2015-01-01 00:54:46.240,-0.015,0.013,0.997,0,0,0, , , , , , ,0.835,0.659,-105.958
 13:10:14.559,eb:33:2e:f9:57:b5, 2015-01-01 00:54:46.240,-0.015,0.014,0.997,0,-0.061,0, , , , , , ,0.835,0.659,-105.958
 13:10:14.559,eb:33:2e:f9:57:b5, 2015-01-01 00:54:46.240,-0.015,0.013,0.997,0,-0.061,0, , , , , , ,0.835,0.659,-105.958
 13:10:14.559,eb:33:2e:f9:57:b5, 2015-01-01 00:54:46.240,-0.015,0.013,0.998,0,-0.122,0.061, , , , , , ,0.835,0.659,-105.958
 13:10:14.559,eb:33:2e:f9:57:b5, 2015-01-01 00:54:46.240,-0.015,0.013,0.997,0,-0.122,0.061, , , , , , ,0.835,0.659,-105.958
 13:10:14.559,eb:33:2e:f9:57:b5, 2015-01-01 00:54:46.240,-0.015,0.013,0.997,0.122,-0.061,0.061, , , , , , ,0.835,0.659,-105.958
 13:10:14.559,eb:33:2e:f9:57:b5, 2015-01-01 00:54:46.240,-0.015,0.013,0.997,0.122,-0.122,0.061, , , , , , ,0.835,0.659,-105.958
 13:10:14.627,eb:33:2e:f9:57:b5, 2015-01-01 00:54:46.240,-0.015,0.014,0.996,0.122,-0.244,0.122, , , , , , ,0.835,0.659,-105.958
 13:10:14.627,eb:33:2e:f9:57:b5, 2015-01-01 00:54:46.240,-0.014,0.014,0.996,0.122,-0.244,0.122, , , , , , ,0.829,0.659,-105.958
 13:10:14.627,eb:33:2e:f9:57:b5, 2015-01-01 00:54:46.240,-0.014,0.014,0.997,0.183,-0.305,0.122, , , , , , ,0.829,0.659,-105.958
 13:10:14.627,eb:33:2e:f9:57:b5, 2015-01-01 00:54:46.240,-0.012,0.014,0.997,0.183,-0.305,0.122, , , , , , ,0.829,0.659,-105.958
 13:10:14.627,eb:33:2e:f9:57:b5, 2015-01-01 00:54:46.240,-0.012,0.013,0.998,0.183,-0.244,0.122, , , , , , ,0.829,0.659,-105.958
 13:10:14.627,eb:33:2e:f9:57:b5, 2015-01-01 00:54:46.240,-0.012,0.013,0.997,0.183,-0.183,0.122, , , , , , ,0.829,0.659,-105.958
 13:10:14.627,eb:33:2e:f9:57:b5, 2015-01-01 00:54:46.240,-0.013,0.014,0.999,0.244,-0.122,0.122, , , , , , ,0.829,0.659,-105.958
 13:10:14.628,eb:33:2e:f9:57:b5, 2015-01-01 00:54:46.240,-0.013,0.014,0.999,0.183,0,0.061, , , , , , ,0.829,0.659,-105.958
 13:10:14.630,eb:33:2e:f9:57:b5, 2015-01-01 00:54:46.240,-0.012,0.014,0.998,0.244,0.061,0.061, , , , , , ,0.829,0.659,-105.958
 13:10:14.630,eb:33:2e:f9:57:b5, 2015-01-01 00:54:46.240,-0.013,0.014,0.998,0.183,0.122,0.061, , , , , , ,0.829,0.659,-105.958
 13:10:14.630,eb:33:2e:f9:57:b5, 2015-01-01 00:54:46.240,-0.013,0.015,0.998,0.183,0.183,0.061, , , , , , ,0.829,0.659,-105.958
 13:10:14.630,eb:33:2e:f9:57:b5, 2015-01-01 00:54:46.240,-0.013,0.015,0.998,0.183,0.244,0.061, , , , , , ,0.829,0.659,-105.963
 13:10:14.630,eb:33:2e:f9:57:b5, 2015-01-01 00:54:46.240,-0.014,0.014,0.997,0.122,0.305,0, , , , , , ,0.829,0.659,-105.963
 13:10:14.630,eb:33:2e:f9:57:b5, 2015-01-01 00:54:46.240,-0.014,0.014,0.998,0.122,0.305,0, , , , , , ,0.829,0.659,-105.963
 13:10:14.630,eb:33:2e:f9:57:b5, 2015-01-01 00:54:46.240,-0.014,0.014,0.997,0.183,0.305,0, , , , , , ,0.829,0.659,-105.963
 13:10:14.630,eb:33:2e:f9:57:b5, 2015-01-01 00:54:46.240,-0.015,0.014,0.998,0.122,0.305,0, , , , , , ,0.829,0.659,-105.963
 13:10:14.673,eb:33:2e:f9:57:b5, 2015-01-01 00:54:46.240,-0.015,0.015,0.997,0.183,0.305,0, , , , , , ,0.829,0.659,-105.963
 13:10:14.673,eb:33:2e:f9:57:b5, 2015-01-01 00:54:46.240,-0.015,0.015,0.997,0.183,0.244,0.061, , , , , , ,0.829,0.659,-105.963
 13:10:14.673,eb:33:2e:f9:57:b5, 2015-01-01 00:54:46.240,-0.016,0.015,0.996,0.183,0.183,0, , , , , , ,0.829,0.659,-105.963
 13:10:14.673,eb:33:2e:f9:57:b5, 2015-01-01 00:54:46.240,-0.016,0.013,0.996,0.183,0.122,0, , , , , , ,0.829,0.659,-105.963
 13:10:14.674,eb:33:2e:f9:57:b5, 2015-01-01 00:54:46.240,-0.016,0.014,0.996,0.183,0,0, , , , , , ,0.829,0.659,-105.963
 13:10:14.674,eb:33:2e:f9:57:b5, 2015-01-01 00:54:46.240,-0.015,0.014,0.996,0.244,0,0, , , , , , ,0.829,0.665,-105.963
 13:10:14.674,eb:33:2e:f9:57:b5, 2015-01-01 00:54:46.240,-0.014,0.014,0.996,0.244,-0.061,0, , , , , , ,0.829,0.665,-105.963
 13:10:14.674,eb:33:2e:f9:57:b5, 2015-01-01 00:54:46.240,-0.014,0.015,0.997,0.183,-0.061,0, , , , , , ,0.829,0.665,-105.963
 13:10:14.716,eb:33:2e:f9:57:b5, 2015-01-01 00:54:46.595,-0.014,0.014,0.997,0.183,-0.061,0, , , , , , ,0.829,0.665,-105.963
 13:10:14.716,eb:33:2e:f9:57:b5, 2015-01-01 00:54:46.595,-0.013,0.014,0.997,0.183,-0.061,0.061, , , , , , ,0.829,0.665,-105.963
 13:10:14.716,eb:33:2e:f9:57:b5, 2015-01-01 00:54:46.595,-0.012,0.015,0.998,0.183,-0.061,0, , , , , , ,0.829,0.665,-105.963
 13:10:14.716,eb:33:2e:f9:57:b5, 2015-01-01 00:54:46.595,-0.012,0.016,0.999,0.244,0,0.061, , , , , , ,0.829,0.665,-105.963
 13:10:14.716,eb:33:2e:f9:57:b5, 2015-01-01 00:54:46.595,-0.013,0.015,0.998,0.244,0.122,0.061, , , , , , ,0.829,0.665,-105.963
 13:10:14.716,eb:33:2e:f9:57:b5, 2015-01-01 00:54:46.595,-0.013,0.016,0.997,0.122,0.183,0, , , , , , ,0.829,0.665,-105.963
 13:10:14.716,eb:33:2e:f9:57:b5, 2015-01-01 00:54:46.595,-0.013,0.016,0.997,0.122,0.244,0, , , , , , ,0.829,0.665,-105.963
 13:10:14.716,eb:33:2e:f9:57:b5, 2015-01-01 00:54:46.595,-0.013,0.015,0.997,0,0.305,-0.061, , , , , , ,0.829,0.665,-105.963
 13:10:14.761,eb:33:2e:f9:57:b5, 2015-01-01 00:54:46.595,-0.013,0.015,0.997,0,0.366,-0.061, , , , , , ,0.829,0.665,-105.963
 13:10:14.761,eb:33:2e:f9:57:b5, 2015-01-01 00:54:46.595,-0.013,0.015,0.997,0.061,0.488,-0.061, , , , , , ,0.829,0.665,-105.963
 13:10:14.761,eb:33:2e:f9:57:b5, 2015-01-01 00:54:46.595,-0.014,0.015,0.996,0,0.488,0, , , , , , ,0.829,0.665,-105.963
 13:10:14.761,eb:33:2e:f9:57:b5, 2015-01-01 00:54:46.595,-0.014,0.015,0.997,0,0.488,-0.061, , , , , , ,0.829,0.665,-105.963
 13:10:14.761,eb:33:2e:f9:57:b5, 2015-01-01 00:54:46.595,-0.015,0.014,0.997,0,0.427,0, , , , , , ,0.829,0.665,-105.963
 13:10:14.761,eb:33:2e:f9:57:b5, 2015-01-01 00:54:46.595,-0.015,0.015,0.997,-0.061,0.488,-0.061, , , , , , ,0.829,0.665,-105.963
 13:10:14.762,eb:33:2e:f9:57:b5, 2015-01-01 00:54:46.595,-0.015,0.015,0.997,0,0.427,-0.061, , , , , , ,0.829,0.665,-105.963
 13:10:14.762,eb:33:2e:f9:57:b5, 2015-01-01 00:54:46.595,-0.016,0.014,0.997,-0.061,0.366,0, , , , , , ,0.829,0.665,-105.963
 13:10:14.784,eb:33:2e:f9:57:b5, 2015-01-01 00:54:46.595,-0.016,0.014,0.997,0,0.305,-0.061, , , , , , ,0.829,0.665,-105.963
 13:10:14.784,eb:33:2e:f9:57:b5, 2015-01-01 00:54:46.595,-0.016,0.014,0.997,0,0.244,0, , , , , , ,0.829,0.665,-105.963
 13:10:14.784,eb:33:2e:f9:57:b5, 2015-01-01 00:54:46.595,-0.016,0.013,0.997,0,0.244,-0.061, , , , , , ,0.829,0.665,-105.963
 13:10:14.784,eb:33:2e:f9:57:b5, 2015-01-01 00:54:46.595,-0.015,0.014,0.996,0,0.061,0, , , , , , ,0.829,0.665,-105.963
 13:10:14.784,eb:33:2e:f9:57:b5, 2015-01-01 00:54:46.595,-0.016,0.014,0.996,0,0,0, , , , , , ,0.829,0.665,-105.963
 13:10:14.784,eb:33:2e:f9:57:b5, 2015-01-01 00:54:46.595,-0.015,0.014,0.996,0,0,0, , , , , , ,0.829,0.67,-105.963
 13:10:14.784,eb:33:2e:f9:57:b5, 2015-01-01 00:54:46.595,-0.016,0.014,0.997,0,-0.122,0, , , , , , ,0.829,0.67,-105.963
 13:10:14.784,eb:33:2e:f9:57:b5, 2015-01-01 00:54:46.595,-0.015,0.014,0.997,0.061,-0.183,0, , , , , , ,0.829,0.67,-105.963
 13:10:14.828,eb:33:2e:f9:57:b5, 2015-01-01 00:54:46.595,-0.014,0.013,0.997,0,-0.122,0, , , , , , ,0.829,0.67,-105.963
 13:10:14.828,eb:33:2e:f9:57:b5, 2015-01-01 00:54:46.595,-0.014,0.014,0.997,0,-0.122,0, , , , , , ,0.829,0.67,-105.963
 13:10:14.828,eb:33:2e:f9:57:b5, 2015-01-01 00:54:46.595,-0.014,0.014,0.998,0,-0.122,0, , , , , , ,0.829,0.67,-105.963
 13:10:14.828,eb:33:2e:f9:57:b5, 2015-01-01 00:54:46.595,-0.013,0.015,0.997,0,-0.061,0, , , , , , ,0.829,0.67,-105.963
 13:10:14.828,eb:33:2e:f9:57:b5, 2015-01-01 00:54:46.595,-0.014,0.015,0.998,0,0,0, , , , , , ,0.829,0.67,-105.963
 13:10:14.828,eb:33:2e:f9:57:b5, 2015-01-01 00:54:46.595,-0.013,0.015,0.998,0,0,0, , , , , , ,0.829,0.67,-105.963
 13:10:14.828,eb:33:2e:f9:57:b5, 2015-01-01 00:54:46.595,-0.014,0.015,0.999,0,0.122,0, , , , , , ,0.829,0.67,-105.963
 13:10:14.828,eb:33:2e:f9:57:b5, 2015-01-01 00:54:46.595,-0.013,0.015,0.998,-0.122,0.122,0, , , , , , ,0.829,0.67,-105.963
 13:10:14.874,eb:33:2e:f9:57:b5, 2015-01-01 00:54:46.595,-0.014,0.015,0.997,-0.061,0.183,-0.061, , , , , , ,0.829,0.67,-105.963
 13:10:14.874,eb:33:2e:f9:57:b5, 2015-01-01 00:54:46.595,-0.014,0.015,0.996,-0.122,0.183,0, , , , , , ,0.829,0.67,-105.963
 13:10:14.874,eb:33:2e:f9:57:b5, 2015-01-01 00:54:46.595,-0.013,0.014,0.996,-0.061,0.183,0, , , , , , ,0.829,0.67,-105.963
 13:10:14.874,eb:33:2e:f9:57:b5, 2015-01-01 00:54:46.595,-0.014,0.014,0.997,-0.061,0.183,0, , , , , , ,0.829,0.67,-105.963
 13:10:14.874,eb:33:2e:f9:57:b5, 2015-01-01 00:54:46.595,-0.014,0.014,0.998,-0.061,0.244,0, , , , , , ,0.829,0.67,-105.963
 13:10:14.874,eb:33:2e:f9:57:b5, 2015-01-01 00:54:46.595,-0.014,0.015,0.997,-0.122,0.244,0, , , , , , ,0.829,0.67,-105.963
 13:10:14.874,eb:33:2e:f9:57:b5, 2015-01-01 00:54:46.595,-0.015,0.015,0.996,-0.122,0.366,0, , , , , , ,0.829,0.67,-105.963
 13:10:14.874,eb:33:2e:f9:57:b5, 2015-01-01 00:54:46.595,-0.015,0.014,0.997,-0.122,0.305,0, , , , , , ,0.835,0.67,-105.963
 13:10:14.919,eb:33:2e:f9:57:b5, 2015-01-01 00:54:46.595,-0.016,0.014,0.997,-0.122,0.305,0, , , , , , ,0.835,0.67,-105.963
 13:10:14.919,eb:33:2e:f9:57:b5, 2015-01-01 00:54:46.595,-0.015,0.014,0.997,-0.061,0.244,0, , , , , , ,0.835,0.67,-105.963
 13:10:14.919,eb:33:2e:f9:57:b5, 2015-01-01 00:54:46.595,-0.016,0.014,0.998,0,0.244,0, , , , , , ,0.835,0.67,-105.963
 13:10:14.919,eb:33:2e:f9:57:b5, 2015-01-01 00:54:46.595,-0.016,0.014,0.998,-0.061,0.244,0, , , , , , ,0.835,0.67,-105.963
 13:10:14.919,eb:33:2e:f9:57:b5, 2015-01-01 00:54:46.595,-0.016,0.014,0.997,-0.061,0.183,0, , , , , , ,0.835,0.67,-105.963
 13:10:14.919,eb:33:2e:f9:57:b5, 2015-01-01 00:54:46.595,-0.015,0.014,0.997,0,0.061,0, , , , , , ,0.829,0.676,-105.963
 13:10:14.920,eb:33:2e:f9:57:b5, 2015-01-01 00:54:46.595,-0.016,0.013,0.997,0,0.061,0.061, , , , , , ,0.829,0.676,-105.963
 13:10:14.920,eb:33:2e:f9:57:b5, 2015-01-01 00:54:46.595,-0.015,0.014,0.997,0,0,0.061, , , , , , ,0.835,0.676,-105.963
 13:10:14.966,eb:33:2e:f9:57:b5, 2015-01-01 00:54:46.595,-0.016,0.014,0.997,0,0,0, , , , , , ,0.835,0.676,-105.963
 13:10:14.966,eb:33:2e:f9:57:b5, 2015-01-01 00:54:46.595,-0.014,0.014,0.997,0,0,0, , , , , , ,0.829,0.676,-105.963
 13:10:14.966,eb:33:2e:f9:57:b5, 2015-01-01 00:54:46.595,-0.014,0.014,0.998,0,0.061,0.061, , , , , , ,0.829,0.676,-105.963
 13:10:14.966,eb:33:2e:f9:57:b5, 2015-01-01 00:54:46.595,-0.015,0.015,0.998,0,0.061,0, , , , , , ,0.829,0.676,-105.963
 13:10:14.966,eb:33:2e:f9:57:b5, 2015-01-01 00:54:46.595,-0.016,0.015,0.998,0,0.183,0, , , , , , ,0.829,0.676,-105.963
 13:10:14.966,eb:33:2e:f9:57:b5, 2015-01-01 00:54:46.595,-0.016,0.015,0.996,0,0.061,0, , , , , , ,0.829,0.676,-105.963
 13:10:14.966,eb:33:2e:f9:57:b5, 2015-01-01 00:54:46.595,-0.015,0.015,0.996,0,0.061,0, , , , , , ,0.829,0.676,-105.963
 13:10:14.966,eb:33:2e:f9:57:b5, 2015-01-01 00:54:46.595,-0.015,0.016,0.997,0,0.061,0, , , , , , ,0.829,0.676,-105.963
 13:10:14.986,eb:33:2e:f9:57:b5, 2015-01-01 00:54:46.885,-0.015,0.015,0.996,-0.061,0.061,0, , , , , , ,0.829,0.676,-105.963
 13:10:14.986,eb:33:2e:f9:57:b5, 2015-01-01 00:54:46.885,-0.015,0.014,0.997,0,0,0.061, , , , , , ,0.829,0.676,-105.963
 13:10:14.986,eb:33:2e:f9:57:b5, 2015-01-01 00:54:46.885,-0.015,0.014,0.997,0,0,0, , , , , , ,0.829,0.676,-105.963
 13:10:14.986,eb:33:2e:f9:57:b5, 2015-01-01 00:54:46.885,-0.016,0.014,0.996,-0.061,0,0, , , , , , ,0.829,0.676,-105.963
 13:10:14.986,eb:33:2e:f9:57:b5, 2015-01-01 00:54:46.885,-0.017,0.014,0.994,0,0,0, , , , , , ,0.829,0.676,-105.963
 13:10:14.986,eb:33:2e:f9:57:b5, 2015-01-01 00:54:46.885,-0.016,0.014,0.995,-0.061,-0.122,0.061, , , , , , ,0.829,0.676,-105.963
 13:10:14.986,eb:33:2e:f9:57:b5, 2015-01-01 00:54:46.885,-0.015,0.013,0.995,0,-0.183,0, , , , , , ,0.829,0.676,-105.963
 13:10:14.986,eb:33:2e:f9:57:b5, 2015-01-01 00:54:46.885,-0.016,0.015,0.997,0,-0.122,0, , , , , , ,0.835,0.676,-105.963
 13:10:15.033,eb:33:2e:f9:57:b5, 2015-01-01 00:54:46.885,-0.014,0.014,0.997,-0.061,-0.122,0, , , , , , ,0.835,0.676,-105.963
 13:10:15.033,eb:33:2e:f9:57:b5, 2015-01-01 00:54:46.885,-0.014,0.014,0.997,0,-0.122,0, , , , , , ,0.829,0.681,-105.963
 13:10:15.033,eb:33:2e:f9:57:b5, 2015-01-01 00:54:46.885,-0.014,0.015,0.997,-0.061,-0.061,0, , , , , , ,0.829,0.681,-105.963
 13:10:15.034,eb:33:2e:f9:57:b5, 2015-01-01 00:54:46.885,-0.014,0.015,0.997,-0.061,0,0.061, , , , , , ,0.829,0.681,-105.963
 13:10:15.034,eb:33:2e:f9:57:b5, 2015-01-01 00:54:46.885,-0.014,0.014,0.997,-0.061,0,0, , , , , , ,0.829,0.681,-105.963
 13:10:15.034,eb:33:2e:f9:57:b5, 2015-01-01 00:54:46.885,-0.014,0.014,0.997,-0.122,0,0, , , , , , ,0.829,0.681,-105.963
 13:10:15.034,eb:33:2e:f9:57:b5, 2015-01-01 00:54:46.885,-0.014,0.014,0.997,-0.061,0,0, , , , , , ,0.829,0.681,-105.963
 13:10:15.034,eb:33:2e:f9:57:b5, 2015-01-01 00:54:46.885,-0.015,0.014,0.998,-0.061,0.061,0, , , , , , ,0.829,0.681,-105.963
 13:10:15.076,eb:33:2e:f9:57:b5, 2015-01-01 00:54:46.885,-0.015,0.014,0.997,0,0,0, , , , , , ,0.829,0.681,-105.963
 13:10:15.076,eb:33:2e:f9:57:b5, 2015-01-01 00:54:46.885,-0.015,0.014,0.997,-0.061,0,0, , , , , , ,0.829,0.681,-105.963
 13:10:15.076,eb:33:2e:f9:57:b5, 2015-01-01 00:54:46.885,-0.014,0.014,0.997,0,0,0, , , , , , ,0.829,0.681,-105.963
 13:10:15.076,eb:33:2e:f9:57:b5, 2015-01-01 00:54:46.885,-0.015,0.014,0.998,0,0,0, , , , , , ,0.829,0.681,-105.963
 13:10:15.076,eb:33:2e:f9:57:b5, 2015-01-01 00:54:46.885,-0.015,0.014,0.998,0,0,0, , , , , , ,0.829,0.681,-105.963
 13:10:15.076,eb:33:2e:f9:57:b5, 2015-01-01 00:54:46.885,-0.015,0.014,0.998,0,0.061,0, , , , , , ,0.829,0.681,-105.963
 13:10:15.076,eb:33:2e:f9:57:b5, 2015-01-01 00:54:46.885,-0.014,0.014,0.998,0,0,0, , , , , , ,0.829,0.681,-105.963
 13:10:15.076,eb:33:2e:f9:57:b5, 2015-01-01 00:54:46.885,-0.014,0.014,0.998,0,0.061,0, , , , , , ,0.829,0.681,-105.963
 13:10:15.122,eb:33:2e:f9:57:b5, 2015-01-01 00:54:46.885,-0.015,0.014,0.998,0,0.122,0, , , , , , ,0.829,0.681,-105.963
 13:10:15.122,eb:33:2e:f9:57:b5, 2015-01-01 00:54:46.885,-0.014,0.014,0.997,0,0.122,0.061, , , , , , ,0.829,0.681,-105.963
 13:10:15.122,eb:33:2e:f9:57:b5, 2015-01-01 00:54:46.885,-0.014,0.014,0.997,0,0.061,0, , , , , , ,0.829,0.681,-105.963
 13:10:15.122,eb:33:2e:f9:57:b5, 2015-01-01 00:54:46.885,-0.014,0.014,0.997,0,0.122,0, , , , , , ,0.829,0.681,-105.963
 13:10:15.122,eb:33:2e:f9:57:b5, 2015-01-01 00:54:46.885,-0.014,0.014,0.998,0,0.122,0, , , , , , ,0.829,0.681,-105.963
 13:10:15.122,eb:33:2e:f9:57:b5, 2015-01-01 00:54:46.885,-0.015,0.014,0.997,0,0.183,0, , , , , , ,0.829,0.681,-105.963
 13:10:15.122,eb:33:2e:f9:57:b5, 2015-01-01 00:54:46.885,-0.015,0.014,0.998,0,0.183,0, , , , , , ,0.829,0.681,-105.963
 13:10:15.122,eb:33:2e:f9:57:b5, 2015-01-01 00:54:46.885,-0.015,0.015,0.996,0,0.122,0, , , , , , ,0.829,0.681,-105.963
 13:10:15.167,eb:33:2e:f9:57:b5, 2015-01-01 00:54:46.885,-0.016,0.015,0.997,0,0.122,0, , , , , , ,0.829,0.681,-105.963
 13:10:15.167,eb:33:2e:f9:57:b5, 2015-01-01 00:54:46.885,-0.015,0.015,0.997,0,0.061,0, , , , , , ,0.829,0.687,-105.963
 13:10:15.167,eb:33:2e:f9:57:b5, 2015-01-01 00:54:46.885,-0.015,0.014,0.997,0,0.122,0, , , , , , ,0.829,0.687,-105.963
 13:10:15.167,eb:33:2e:f9:57:b5, 2015-01-01 00:54:46.885,-0.015,0.014,0.998,0,0.122,0, , , , , , ,0.829,0.687,-105.963
 13:10:15.167,eb:33:2e:f9:57:b5, 2015-01-01 00:54:46.885,-0.015,0.014,0.997,0,0.061,0, , , , , , ,0.829,0.687,-105.963
 13:10:15.167,eb:33:2e:f9:57:b5, 2015-01-01 00:54:46.885,-0.015,0.014,0.996,0,0.061,0, , , , , , ,0.829,0.687,-105.963
 13:10:15.167,eb:33:2e:f9:57:b5, 2015-01-01 00:54:46.885,-0.014,0.015,0.996,0,0.061,0, , , , , , ,0.829,0.687,-105.963
 13:10:15.167,eb:33:2e:f9:57:b5, 2015-01-01 00:54:46.885,-0.015,0.015,0.996,0,0,0, , , , , , ,0.829,0.687,-105.963
 13:10:15.189,eb:33:2e:f9:57:b5, 2015-01-01 00:54:46.885,-0.015,0.015,0.996,-0.061,0,0, , , , , , ,0.829,0.687,-105.963
 13:10:15.189,eb:33:2e:f9:57:b5, 2015-01-01 00:54:46.885,-0.015,0.015,0.997,0,0.061,0, , , , , , ,0.829,0.687,-105.963
 13:10:15.189,eb:33:2e:f9:57:b5, 2015-01-01 00:54:46.885,-0.014,0.014,0.997,0,0,0, , , , , , ,0.829,0.687,-105.963
 13:10:15.189,eb:33:2e:f9:57:b5, 2015-01-01 00:54:46.885,-0.014,0.015,0.996,-0.061,0.061,0, , , , , , ,0.829,0.687,-105.963
 13:10:15.189,eb:33:2e:f9:57:b5, 2015-01-01 00:54:46.885,-0.014,0.015,0.997,-0.061,0.061,0, , , , , , ,0.829,0.687,-105.963
 13:10:15.189,eb:33:2e:f9:57:b5, 2015-01-01 00:54:46.885,-0.014,0.015,0.997,-0.061,0.122,0, , , , , , ,0.829,0.687,-105.963
 13:10:15.189,eb:33:2e:f9:57:b5, 2015-01-01 00:54:46.885,-0.014,0.015,0.997,-0.122,0.122,0, , , , , , ,0.829,0.687,-105.963
 13:10:15.190,eb:33:2e:f9:57:b5, 2015-01-01 00:54:46.885,-0.015,0.015,0.997,-0.122,0.061,-0.061, , , , , , ,0.829,0.687,-105.963
 13:10:15.234,eb:33:2e:f9:57:b5, 2015-01-01 00:54:46.885,-0.015,0.013,0.997,-0.122,0.061,-0.061, , , , , , ,0.829,0.687,-105.963
 13:10:15.234,eb:33:2e:f9:57:b5, 2015-01-01 00:54:46.885,-0.015,0.014,0.997,-0.122,0.061,0, , , , , , ,0.829,0.687,-105.963
 13:10:15.234,eb:33:2e:f9:57:b5, 2015-01-01 00:54:46.885,-0.017,0.013,0.996,-0.122,0,0, , , , , , ,0.829,0.687,-105.963
 13:10:15.234,eb:33:2e:f9:57:b5, 2015-01-01 00:54:46.885,-0.016,0.014,0.996,-0.122,0,0, , , , , , ,0.829,0.687,-105.963
 13:10:15.234,eb:33:2e:f9:57:b5, 2015-01-01 00:54:46.885,-0.015,0.014,0.997,-0.122,0,0, , , , , , ,0.829,0.687,-105.963
 13:10:15.234,eb:33:2e:f9:57:b5, 2015-01-01 00:54:46.885,-0.015,0.013,0.997,-0.122,0,0, , , , , , ,0.829,0.687,-105.963
 13:10:15.234,eb:33:2e:f9:57:b5, 2015-01-01 00:54:46.885,-0.015,0.014,0.998,-0.061,0,0, , , , , , ,0.829,0.687,-105.963
 13:10:15.234,eb:33:2e:f9:57:b5, 2015-01-01 00:54:46.885,-0.015,0.013,0.997,0,-0.061,0, , , , , , ,0.829,0.687,-105.963
 13:10:15.280,eb:33:2e:f9:57:b5, 2015-01-01 00:54:46.885,-0.014,0.013,0.997,0,-0.061,0, , , , , , ,0.829,0.687,-105.963
 13:10:15.280,eb:33:2e:f9:57:b5, 2015-01-01 00:54:46.885,-0.015,0.013,0.998,-0.061,0,0, , , , , , ,0.829,0.692,-105.963
 13:10:15.280,eb:33:2e:f9:57:b5, 2015-01-01 00:54:46.885,-0.015,0.014,0.997,0,0,0, , , , , , ,0.829,0.692,-105.963
 13:10:15.280,eb:33:2e:f9:57:b5, 2015-01-01 00:54:46.885,-0.015,0.013,0.997,-0.061,0,0, , , , , , ,0.829,0.692,-105.963
 13:10:15.280,eb:33:2e:f9:57:b5, 2015-01-01 00:54:46.885,-0.014,0.014,0.998,0,-0.061,0, , , , , , ,0.829,0.692,-105.963
 13:10:15.280,eb:33:2e:f9:57:b5, 2015-01-01 00:54:46.885,-0.014,0.014,0.998,0,0,0, , , , , , ,0.829,0.692,-105.963
 13:10:15.280,eb:33:2e:f9:57:b5, 2015-01-01 00:54:46.885,-0.015,0.014,0.998,0,0,0, , , , , , ,0.829,0.692,-105.963
 13:10:15.280,eb:33:2e:f9:57:b5, 2015-01-01 00:54:46.885,-0.015,0.014,0.997,0,0,0, , , , , , ,0.829,0.692,-105.963
 13:10:15.325,eb:33:2e:f9:57:b5, 2015-01-01 00:54:47.200,-0.016,0.014,0.997,0,0,-0.061, , , , , , ,0.829,0.692,-105.963
 13:10:15.325,eb:33:2e:f9:57:b5, 2015-01-01 00:54:47.200,-0.015,0.013,0.997,0.061,-0.061,0, , , , , , ,0.829,0.692,-105.963
 13:10:15.325,eb:33:2e:f9:57:b5, 2015-01-01 00:54:47.200,-0.014,0.014,0.997,0.061,-0.061,0, , , , , , ,0.829,0.692,-105.963
 13:10:15.325,eb:33:2e:f9:57:b5, 2015-01-01 00:54:47.200,-0.014,0.014,0.998,0.061,-0.061,0, , , , , , ,0.829,0.692,-105.963
 13:10:15.325,eb:33:2e:f9:57:b5, 2015-01-01 00:54:47.200,-0.015,0.014,0.999,0.061,0,0, , , , , , ,0.829,0.692,-105.963
 13:10:15.325,eb:33:2e:f9:57:b5, 2015-01-01 00:54:47.200,-0.016,0.013,0.997,0.061,0,0, , , , , , ,0.829,0.692,-105.963
 13:10:15.325,eb:33:2e:f9:57:b5, 2015-01-01 00:54:47.200,-0.016,0.014,0.997,0.061,0,0, , , , , , ,0.829,0.692,-105.963
 13:10:15.325,eb:33:2e:f9:57:b5, 2015-01-01 00:54:47.200,-0.014,0.013,0.997,0.183,-0.061,0, , , , , , ,0.829,0.692,-105.963
 13:10:15.348,eb:33:2e:f9:57:b5, 2015-01-01 00:54:47.200,-0.015,0.014,0.998,0.122,-0.061,-0.061, , , , , , ,0.829,0.692,-105.963
 13:10:15.348,eb:33:2e:f9:57:b5, 2015-01-01 00:54:47.200,-0.014,0.014,0.998,0.183,0,0, , , , , , ,0.829,0.692,-105.963
 13:10:15.348,eb:33:2e:f9:57:b5, 2015-01-01 00:54:47.200,-0.014,0.014,0.998,0.183,0,-0.061, , , , , , ,0.829,0.692,-105.963
 13:10:15.348,eb:33:2e:f9:57:b5, 2015-01-01 00:54:47.200,-0.015,0.014,0.998,0.183,0.061,-0.061, , , , , , ,0.829,0.692,-105.963
 13:10:15.348,eb:33:2e:f9:57:b5, 2015-01-01 00:54:47.200,-0.014,0.014,0.998,0.183,0.061,0, , , , , , ,0.829,0.692,-105.963
 13:10:15.348,eb:33:2e:f9:57:b5, 2015-01-01 00:54:47.200,-0.014,0.014,0.997,0.183,0.061,0, , , , , , ,0.829,0.692,-105.963
 13:10:15.348,eb:33:2e:f9:57:b5, 2015-01-01 00:54:47.200,-0.013,0.014,0.997,0.122,0.122,0, , , , , , ,0.829,0.692,-105.963
 13:10:15.348,eb:33:2e:f9:57:b5, 2015-01-01 00:54:47.200,-0.013,0.014,0.997,0.183,0.122,0, , , , , , ,0.829,0.692,-105.963
 13:10:15.391,eb:33:2e:f9:57:b5, 2015-01-01 00:54:47.200,-0.014,0.015,0.997,0.183,0.183,-0.061, , , , , , ,0.829,0.692,-105.963
 13:10:15.391,eb:33:2e:f9:57:b5, 2015-01-01 00:54:47.200,-0.014,0.015,0.996,0.122,0.183,0, , , , , , ,0.829,0.698,-105.963
 13:10:15.391,eb:33:2e:f9:57:b5, 2015-01-01 00:54:47.200,-0.014,0.014,0.997,0.122,0.244,0, , , , , , ,0.829,0.698,-105.963
 13:10:15.391,eb:33:2e:f9:57:b5, 2015-01-01 00:54:47.200,-0.014,0.014,0.996,0.061,0.244,0, , , , , , ,0.829,0.698,-105.963
 13:10:15.391,eb:33:2e:f9:57:b5, 2015-01-01 00:54:47.200,-0.014,0.014,0.997,0.061,0.305,-0.061, , , , , , ,0.829,0.698,-105.963
 13:10:15.391,eb:33:2e:f9:57:b5, 2015-01-01 00:54:47.200,-0.015,0.014,0.996,0.061,0.244,0, , , , , , ,0.829,0.698,-105.963
 13:10:15.391,eb:33:2e:f9:57:b5, 2015-01-01 00:54:47.200,-0.016,0.014,0.996,0.061,0.305,0, , , , , , ,0.829,0.698,-105.963
 13:10:15.391,eb:33:2e:f9:57:b5, 2015-01-01 00:54:47.200,-0.016,0.015,0.997,0.061,0.244,0, , , , , , ,0.829,0.698,-105.963
 13:10:15.437,eb:33:2e:f9:57:b5, 2015-01-01 00:54:47.200,-0.017,0.014,0.997,0,0.183,0, , , , , , ,0.829,0.698,-105.963
 13:10:15.437,eb:33:2e:f9:57:b5, 2015-01-01 00:54:47.200,-0.016,0.014,0.996,0,0.122,0, , , , , , ,0.829,0.698,-105.963
 13:10:15.437,eb:33:2e:f9:57:b5, 2015-01-01 00:54:47.200,-0.015,0.014,0.996,0.061,0.122,0, , , , , , ,0.829,0.698,-105.963
 13:10:15.437,eb:33:2e:f9:57:b5, 2015-01-01 00:54:47.200,-0.015,0.014,0.996,0,0.061,-0.061, , , , , , ,0.829,0.698,-105.963
 13:10:15.437,eb:33:2e:f9:57:b5, 2015-01-01 00:54:47.200,-0.015,0.014,0.996,0.061,0.061,0, , , , , , ,0.829,0.698,-105.963
 13:10:15.437,eb:33:2e:f9:57:b5, 2015-01-01 00:54:47.200,-0.015,0.014,0.997,0,0,0, , , , , , ,0.829,0.698,-105.963
 13:10:15.437,eb:33:2e:f9:57:b5, 2015-01-01 00:54:47.200,-0.014,0.015,0.996,0,-0.061,0, , , , , , ,0.829,0.698,-105.963
 13:10:15.437,eb:33:2e:f9:57:b5, 2015-01-01 00:54:47.200,-0.015,0.015,0.997,0,-0.061,0, , , , , , ,0.829,0.698,-105.963
 13:10:15.482,eb:33:2e:f9:57:b5, 2015-01-01 00:54:47.200,-0.015,0.014,0.997,0,-0.122,0, , , , , , ,0.829,0.698,-105.963
 13:10:15.482,eb:33:2e:f9:57:b5, 2015-01-01 00:54:47.200,-0.014,0.015,0.998,0,0,0, , , , , , ,0.829,0.698,-105.963
 13:10:15.482,eb:33:2e:f9:57:b5, 2015-01-01 00:54:47.200,-0.014,0.014,0.998,0,0,0, , , , , , ,0.829,0.698,-105.963
 13:10:15.482,eb:33:2e:f9:57:b5, 2015-01-01 00:54:47.200,-0.014,0.014,0.999,0,0,0, , , , , , ,0.829,0.698,-105.963
 13:10:15.483,eb:33:2e:f9:57:b5, 2015-01-01 00:54:47.200,-0.015,0.014,0.998,0.061,0,0, , , , , , ,0.829,0.698,-105.963
 13:10:15.483,eb:33:2e:f9:57:b5, 2015-01-01 00:54:47.200,-0.015,0.014,0.998,0.122,0,0, , , , , , ,0.829,0.698,-105.963
 13:10:15.483,eb:33:2e:f9:57:b5, 2015-01-01 00:54:47.200,-0.015,0.014,0.998,0.122,0,0, , , , , , ,0.829,0.698,-105.963
 13:10:15.483,eb:33:2e:f9:57:b5, 2015-01-01 00:54:47.200,-0.015,0.014,0.998,0.061,0,0, , , , , , ,0.829,0.698,-105.963
 13:10:15.527,eb:33:2e:f9:57:b5, 2015-01-01 00:54:47.200,-0.015,0.014,0.997,0.061,0.061,0, , , , , , ,0.829,0.698,-105.963
 13:10:15.527,eb:33:2e:f9:57:b5, 2015-01-01 00:54:47.200,-0.015,0.014,0.997,0.061,0.061,0, , , , , , ,0.829,0.703,-105.963
 13:10:15.527,eb:33:2e:f9:57:b5, 2015-01-01 00:54:47.200,-0.015,0.013,0.997,0.061,0.122,0, , , , , , ,0.829,0.703,-105.963
 13:10:15.527,eb:33:2e:f9:57:b5, 2015-01-01 00:54:47.200,-0.015,0.015,0.996,0,0.183,0, , , , , , ,0.829,0.703,-105.963
 13:10:15.528,eb:33:2e:f9:57:b5, 2015-01-01 00:54:47.200,-0.015,0.015,0.997,0.061,0.183,0, , , , , , ,0.829,0.703,-105.963
 13:10:15.528,eb:33:2e:f9:57:b5, 2015-01-01 00:54:47.200,-0.015,0.015,0.997,0,0.122,0, , , , , , ,0.829,0.703,-105.963
 13:10:15.528,eb:33:2e:f9:57:b5, 2015-01-01 00:54:47.200,-0.015,0.013,0.996,0,0.122,0.061, , , , , , ,0.829,0.703,-105.963
 13:10:15.528,eb:33:2e:f9:57:b5, 2015-01-01 00:54:47.200,-0.016,0.014,0.997,0,0.122,0, , , , , , ,0.829,0.703,-105.963
 13:10:15.549,eb:33:2e:f9:57:b5, 2015-01-01 00:54:47.200,-0.016,0.014,0.997,0,0,0, , , , , , ,0.829,0.703,-105.963
 13:10:15.549,eb:33:2e:f9:57:b5, 2015-01-01 00:54:47.200,-0.016,0.014,0.997,0,0,0, , , , , , ,0.829,0.703,-105.963
 13:10:15.549,eb:33:2e:f9:57:b5, 2015-01-01 00:54:47.200,-0.016,0.014,0.997,0,0,0, , , , , , ,0.829,0.703,-105.963
 13:10:15.549,eb:33:2e:f9:57:b5, 2015-01-01 00:54:47.200,-0.015,0.014,0.997,0,0,0, , , , , , ,0.829,0.703,-105.963
 13:10:15.549,eb:33:2e:f9:57:b5, 2015-01-01 00:54:47.200,-0.015,0.013,0.996,0,0,0, , , , , , ,0.829,0.703,-105.963
 13:10:15.549,eb:33:2e:f9:57:b5, 2015-01-01 00:54:47.200,-0.015,0.014,0.996,0,-0.061,0, , , , , , ,0.829,0.703,-105.963
 13:10:15.549,eb:33:2e:f9:57:b5, 2015-01-01 00:54:47.200,-0.015,0.014,0.996,0.061,-0.122,0, , , , , , ,0.829,0.703,-105.963
 13:10:15.549,eb:33:2e:f9:57:b5, 2015-01-01 00:54:47.200,-0.015,0.014,0.997,0,-0.183,0, , , , , , ,0.829,0.703,-105.963
 13:10:15.594,eb:33:2e:f9:57:b5, 2015-01-01 00:54:47.200,-0.015,0.015,0.997,0,-0.122,0, , , , , , ,0.829,0.703,-105.963
 13:10:15.594,eb:33:2e:f9:57:b5, 2015-01-01 00:54:47.200,-0.014,0.014,0.997,0,-0.122,0, , , , , , ,0.829,0.703,-105.963
 13:10:15.594,eb:33:2e:f9:57:b5, 2015-01-01 00:54:47.200,-0.014,0.014,0.998,0,-0.061,0, , , , , , ,0.829,0.703,-105.963
 13:10:15.594,eb:33:2e:f9:57:b5, 2015-01-01 00:54:47.200,-0.013,0.015,0.998,0,-0.061,0, , , , , , ,0.829,0.703,-105.963
 13:10:15.594,eb:33:2e:f9:57:b5, 2015-01-01 00:54:47.200,-0.014,0.014,0.998,0.061,0,0, , , , , , ,0.829,0.703,-105.963
 13:10:15.594,eb:33:2e:f9:57:b5, 2015-01-01 00:54:47.200,-0.015,0.014,0.997,0,0.061,0, , , , , , ,0.829,0.703,-105.963
 13:10:15.594,eb:33:2e:f9:57:b5, 2015-01-01 00:54:47.200,-0.015,0.014,0.998,0,0.061,0, , , , , , ,0.829,0.703,-105.963
 13:10:15.594,eb:33:2e:f9:57:b5, 2015-01-01 00:54:47.200,-0.014,0.015,0.997,0,0.122,0, , , , , , ,0.829,0.703,-105.963
 13:10:15.638,eb:33:2e:f9:57:b5, 2015-01-01 00:54:47.490,-0.014,0.014,0.997,0,0.122,0, , , , , , ,0.829,0.703,-105.963
 13:10:15.638,eb:33:2e:f9:57:b5, 2015-01-01 00:54:47.490,-0.014,0.015,0.998,0,0.061,0, , , , , , ,0.829,0.709,-105.963
 13:10:15.638,eb:33:2e:f9:57:b5, 2015-01-01 00:54:47.490,-0.016,0.015,0.998,0,0.183,0, , , , , , ,0.829,0.709,-105.963
 13:10:15.638,eb:33:2e:f9:57:b5, 2015-01-01 00:54:47.490,-0.016,0.015,0.996,0,0.183,-0.061, , , , , , ,0.829,0.709,-105.963
 13:10:15.638,eb:33:2e:f9:57:b5, 2015-01-01 00:54:47.490,-0.015,0.015,0.997,0,0.122,0, , , , , , ,0.829,0.709,-105.963
 13:10:15.638,eb:33:2e:f9:57:b5, 2015-01-01 00:54:47.490,-0.016,0.014,0.996,0,0.122,0, , , , , , ,0.829,0.709,-105.963
 13:10:15.638,eb:33:2e:f9:57:b5, 2015-01-01 00:54:47.490,-0.015,0.014,0.997,-0.061,0.122,0.061, , , , , , ,0.829,0.709,-105.963
 13:10:15.638,eb:33:2e:f9:57:b5, 2015-01-01 00:54:47.490,-0.016,0.014,0.995,-0.061,0.061,0, , , , , , ,0.829,0.709,-105.963
 13:10:15.685,eb:33:2e:f9:57:b5, 2015-01-01 00:54:47.490,-0.016,0.015,0.996,-0.061,0,0, , , , , , ,0.829,0.709,-105.963
 13:10:15.685,eb:33:2e:f9:57:b5, 2015-01-01 00:54:47.490,-0.016,0.014,0.997,-0.061,0,0, , , , , , ,0.829,0.709,-105.963
 13:10:15.685,eb:33:2e:f9:57:b5, 2015-01-01 00:54:47.490,-0.015,0.014,0.996,-0.122,0,0, , , , , , ,0.829,0.709,-105.963
 13:10:15.685,eb:33:2e:f9:57:b5, 2015-01-01 00:54:47.490,-0.016,0.014,0.996,-0.122,-0.061,0, , , , , , ,0.829,0.709,-105.963
 13:10:15.685,eb:33:2e:f9:57:b5, 2015-01-01 00:54:47.490,-0.015,0.014,0.997,-0.122,-0.061,0, , , , , , ,0.829,0.709,-105.963
 13:10:15.685,eb:33:2e:f9:57:b5, 2015-01-01 00:54:47.490,-0.015,0.014,0.997,-0.061,-0.061,0, , , , , , ,0.829,0.709,-105.963
 13:10:15.685,eb:33:2e:f9:57:b5, 2015-01-01 00:54:47.490,-0.015,0.014,0.997,-0.122,-0.122,0, , , , , , ,0.829,0.709,-105.963
 13:10:15.685,eb:33:2e:f9:57:b5, 2015-01-01 00:54:47.490,-0.015,0.013,0.997,-0.122,-0.122,0, , , , , , ,0.829,0.709,-105.963
 13:10:15.729,eb:33:2e:f9:57:b5, 2015-01-01 00:54:47.490,-0.015,0.014,0.997,-0.122,-0.122,0, , , , , , ,0.829,0.709,-105.963
 13:10:15.729,eb:33:2e:f9:57:b5, 2015-01-01 00:54:47.490,-0.014,0.014,0.998,-0.122,-0.061,0, , , , , , ,0.829,0.709,-105.963
 13:10:15.729,eb:33:2e:f9:57:b5, 2015-01-01 00:54:47.490,-0.014,0.015,0.997,-0.061,-0.061,0, , , , , , ,0.829,0.709,-105.963
 13:10:15.729,eb:33:2e:f9:57:b5, 2015-01-01 00:54:47.490,-0.014,0.015,0.998,-0.122,-0.061,0, , , , , , ,0.829,0.709,-105.963
 13:10:15.729,eb:33:2e:f9:57:b5, 2015-01-01 00:54:47.490,-0.015,0.014,0.998,-0.061,-0.061,0, , , , , , ,0.829,0.709,-105.963
 13:10:15.729,eb:33:2e:f9:57:b5, 2015-01-01 00:54:47.490,-0.015,0.014,0.997,-0.061,0,0, , , , , , ,0.829,0.709,-105.963
 13:10:15.729,eb:33:2e:f9:57:b5, 2015-01-01 00:54:47.490,-0.015,0.014,0.997,-0.061,0,0, , , , , , ,0.829,0.709,-105.963
 13:10:15.729,eb:33:2e:f9:57:b5, 2015-01-01 00:54:47.490,-0.016,0.015,0.997,-0.061,0,0, , , , , , ,0.829,0.709,-105.963
 13:10:15.751,eb:33:2e:f9:57:b5, 2015-01-01 00:54:47.490,-0.016,0.014,0.997,-0.061,0,0, , , , , , ,0.829,0.709,-105.963
 13:10:15.751,eb:33:2e:f9:57:b5, 2015-01-01 00:54:47.490,-0.016,0.013,0.997,0,0,0, , , , , , ,0.829,0.714,-105.963
 13:10:15.751,eb:33:2e:f9:57:b5, 2015-01-01 00:54:47.490,-0.016,0.013,0.997,0,0,0, , , , , , ,0.829,0.714,-105.963
 13:10:15.751,eb:33:2e:f9:57:b5, 2015-01-01 00:54:47.490,-0.016,0.014,0.997,0,-0.061,0, , , , , , ,0.829,0.714,-105.963
 13:10:15.751,eb:33:2e:f9:57:b5, 2015-01-01 00:54:47.490,-0.015,0.014,0.997,0,0,0, , , , , , ,0.829,0.714,-105.963
 13:10:15.751,eb:33:2e:f9:57:b5, 2015-01-01 00:54:47.490,-0.014,0.015,0.997,0,0,0, , , , , , ,0.829,0.714,-105.963
 13:10:15.751,eb:33:2e:f9:57:b5, 2015-01-01 00:54:47.490,-0.014,0.014,0.998,-0.061,0,0, , , , , , ,0.829,0.714,-105.963
 13:10:15.751,eb:33:2e:f9:57:b5, 2015-01-01 00:54:47.490,-0.014,0.014,0.998,0,0,0, , , , , , ,0.829,0.714,-105.963
 13:10:15.819,eb:33:2e:f9:57:b5, 2015-01-01 00:54:47.490,-0.015,0.015,0.997,0,0,0, , , , , , ,0.829,0.714,-105.963
 13:10:15.819,eb:33:2e:f9:57:b5, 2015-01-01 00:54:47.490,-0.015,0.014,0.997,0.061,0.061,0, , , , , , ,0.829,0.714,-105.963
 13:10:15.819,eb:33:2e:f9:57:b5, 2015-01-01 00:54:47.490,-0.015,0.013,0.997,0.061,0.061,0, , , , , , ,0.829,0.714,-105.963
 13:10:15.819,eb:33:2e:f9:57:b5, 2015-01-01 00:54:47.490,-0.015,0.014,0.997,0.122,0,0, , , , , , ,0.829,0.714,-105.963
 13:10:15.819,eb:33:2e:f9:57:b5, 2015-01-01 00:54:47.490,-0.015,0.013,0.998,0.122,0,0, , , , , , ,0.829,0.714,-105.963
 13:10:15.819,eb:33:2e:f9:57:b5, 2015-01-01 00:54:47.490,-0.014,0.014,0.998,0.122,0,0.061, , , , , , ,0.829,0.714,-105.963
 13:10:15.819,eb:33:2e:f9:57:b5, 2015-01-01 00:54:47.490,-0.014,0.015,0.997,0.061,0,0, , , , , , ,0.829,0.714,-105.963
 13:10:15.819,eb:33:2e:f9:57:b5, 2015-01-01 00:54:47.490,-0.014,0.014,0.998,0.061,0.061,0, , , , , , ,0.829,0.714,-105.963
 13:10:15.885,eb:33:2e:f9:57:b5, 2015-01-01 00:54:47.490,-0.015,0.014,0.998,0,0.183,0, , , , , , ,0.829,0.714,-105.963
 13:10:15.885,eb:33:2e:f9:57:b5, 2015-01-01 00:54:47.490,-0.016,0.014,0.998,0,0.183,0, , , , , , ,0.829,0.714,-105.963
 13:10:15.885,eb:33:2e:f9:57:b5, 2015-01-01 00:54:47.490,-0.015,0.014,0.997,0,0.183,0, , , , , , ,0.829,0.714,-105.963
 13:10:15.885,eb:33:2e:f9:57:b5, 2015-01-01 00:54:47.490,-0.015,0.014,0.997,0,0.122,0, , , , , , ,0.829,0.714,-105.963
 13:10:15.885,eb:33:2e:f9:57:b5, 2015-01-01 00:54:47.490,-0.014,0.014,0.998,0,0.122,0, , , , , , ,0.829,0.714,-105.963
 13:10:15.885,eb:33:2e:f9:57:b5, 2015-01-01 00:54:47.490,-0.015,0.014,0.998,0,0.305,0, , , , , , ,0.829,0.714,-105.963
 13:10:15.885,eb:33:2e:f9:57:b5, 2015-01-01 00:54:47.490,-0.016,0.013,0.998,0,0.244,0, , , , , , ,0.829,0.714,-105.963
 13:10:15.885,eb:33:2e:f9:57:b5, 2015-01-01 00:54:47.490,-0.015,0.013,0.998,0,0.244,0, , , , , , ,0.829,0.714,-105.963
 13:10:15.953,eb:33:2e:f9:57:b5, 2015-01-01 00:54:47.490,-0.015,0.014,0.998,0.061,0.122,0, , , , , , ,0.829,0.714,-105.963
 13:10:15.953,eb:33:2e:f9:57:b5, 2015-01-01 00:54:47.490,-0.016,0.014,0.997,0.061,0.122,0.061, , , , , , ,0.829,0.714,-105.963
 13:10:15.953,eb:33:2e:f9:57:b5, 2015-01-01 00:54:47.490,-0.016,0.013,0.998,0.122,0.122,0.061, , , , , , ,0.829,0.714,-105.963
 13:10:15.953,eb:33:2e:f9:57:b5, 2015-01-01 00:54:47.490,-0.015,0.013,0.997,0.122,0.122,0, , , , , , ,0.829,0.714,-105.963
 13:10:15.953,eb:33:2e:f9:57:b5, 2015-01-01 00:54:47.490,-0.015,0.013,0.998,0.183,0,0, , , , , , ,0.829,0.714,-105.963
 13:10:15.953,eb:33:2e:f9:57:b5, 2015-01-01 00:54:47.490,-0.015,0.013,0.998,0.244,0,0.061, , , , , , ,0.829,0.72,-105.963
 13:10:15.953,eb:33:2e:f9:57:b5, 2015-01-01 00:54:47.490,-0.017,0.014,0.998,0.244,0,0.061, , , , , , ,0.829,0.72,-105.963
 13:10:15.953,eb:33:2e:f9:57:b5, 2015-01-01 00:54:47.490,-0.012,0.009,0.998,0.427,-0.122,0.122, , , , , , ,0.829,0.72,-105.963
 13:10:15.976,eb:33:2e:f9:57:b5, 2015-01-01 00:54:47.490,-0.013,0.017,1,0.366,0,0.061, , , , , , ,0.829,0.72,-105.963
 13:10:15.977,eb:33:2e:f9:57:b5, 2015-01-01 00:54:47.490,-0.015,0.016,0.998,0.305,0.061,0, , , , , , ,0.829,0.72,-105.963
 13:10:15.977,eb:33:2e:f9:57:b5, 2015-01-01 00:54:47.490,-0.017,0.013,0.998,0.305,0.122,0, , , , , , ,0.829,0.72,-105.963
 13:10:15.977,eb:33:2e:f9:57:b5, 2015-01-01 00:54:47.490,-0.015,0.009,0.997,0.488,0.061,0.061, , , , , , ,0.829,0.72,-105.963
 13:10:15.977,eb:33:2e:f9:57:b5, 2015-01-01 00:54:47.490,-0.017,0.021,0.996,0.305,0.183,-0.061, , , , , , ,0.829,0.72,-105.963
 13:10:15.977,eb:33:2e:f9:57:b5, 2015-01-01 00:54:47.490,-0.012,0.015,0.995,0.244,0.122,0, , , , , , ,0.829,0.72,-105.963
 13:10:15.977,eb:33:2e:f9:57:b5, 2015-01-01 00:54:47.490,-0.015,0.014,0.998,0.244,0.244,0, , , , , , ,0.829,0.72,-105.963
 13:10:15.978,eb:33:2e:f9:57:b5, 2015-01-01 00:54:47.490,-0.016,0.013,0.997,0.244,0.122,0.061, , , , , , ,0.829,0.72,-105.963
 13:10:15.980,eb:33:2e:f9:57:b5, 2015-01-01 00:54:47.490,-0.017,0.014,0.996,0.305,0.122,0, , , , , , ,0.829,0.72,-105.963
 13:10:15.980,eb:33:2e:f9:57:b5, 2015-01-01 00:54:47.490,-0.014,0.012,0.997,0.305,0,0.061, , , , , , ,0.829,0.72,-105.963
 13:10:15.980,eb:33:2e:f9:57:b5, 2015-01-01 00:54:47.490,-0.016,0.017,0.997,0.244,0.061,0, , , , , , ,0.829,0.72,-105.963
 13:10:15.980,eb:33:2e:f9:57:b5, 2015-01-01 00:54:47.490,-0.015,0.015,0.996,0.244,0.061,0, , , , , , ,0.829,0.72,-105.963
 13:10:15.980,eb:33:2e:f9:57:b5, 2015-01-01 00:54:47.490,-0.015,0.015,0.998,0.244,0.122,0.061, , , , , , ,0.829,0.72,-105.963
 13:10:15.980,eb:33:2e:f9:57:b5, 2015-01-01 00:54:47.490,-0.015,0.015,0.997,0.244,0.122,0, , , , , , ,0.829,0.72,-105.963
 13:10:15.980,eb:33:2e:f9:57:b5, 2015-01-01 00:54:47.490,-0.015,0.015,0.997,0.183,0.061,0, , , , , , ,0.829,0.72,-105.963
 13:10:15.980,eb:33:2e:f9:57:b5, 2015-01-01 00:54:47.490,-0.014,0.015,0.997,0.244,0.122,0, , , , , , ,0.829,0.72,-105.963
 13:10:16.000,eb:33:2e:f9:57:b5, 2015-01-01 00:54:47.490,-0.015,0.015,0.997,0.244,0.122,0, , , , , , ,0.829,0.72,-105.963
 13:10:16.000,eb:33:2e:f9:57:b5, 2015-01-01 00:54:47.490,-0.016,0.015,0.997,0.244,0.122,0, , , , , , ,0.829,0.72,-105.963
 13:10:16.000,eb:33:2e:f9:57:b5, 2015-01-01 00:54:47.490,-0.016,0.014,0.997,0.244,0.061,0, , , , , , ,0.829,0.72,-105.963
 13:10:16.000,eb:33:2e:f9:57:b5, 2015-01-01 00:54:47.490,-0.016,0.015,0.996,0.244,0.061,0, , , , , , ,0.829,0.72,-105.963
 13:10:16.000,eb:33:2e:f9:57:b5, 2015-01-01 00:54:47.490,-0.015,0.014,0.997,0.244,0.061,0.061, , , , , , ,0.829,0.72,-105.963
 13:10:16.000,eb:33:2e:f9:57:b5, 2015-01-01 00:54:47.490,-0.014,0.016,0.997,0.244,0.122,0, , , , , , ,0.829,0.725,-105.963
 13:10:16.000,eb:33:2e:f9:57:b5, 2015-01-01 00:54:47.490,-0.016,0.015,0.997,0.305,0.122,0.061, , , , , , ,0.829,0.725,-105.963
 13:10:16.001,eb:33:2e:f9:57:b5, 2015-01-01 00:54:47.490,-0.015,0.015,0.997,0.305,0.061,0.061, , , , , , ,0.829,0.725,-105.963
 13:10:16.044,eb:33:2e:f9:57:b5, 2015-01-01 00:54:47.915,-0.015,0.014,0.996,0.244,0.122,0, , , , , , ,0.829,0.725,-105.963
 13:10:16.044,eb:33:2e:f9:57:b5, 2015-01-01 00:54:47.915,-0.014,0.015,0.997,0.183,0.061,0, , , , , , ,0.829,0.725,-105.963
 13:10:16.044,eb:33:2e:f9:57:b5, 2015-01-01 00:54:47.915,-0.016,0.015,0.997,0.183,0.122,0.061, , , , , , ,0.829,0.725,-105.963
 13:10:16.044,eb:33:2e:f9:57:b5, 2015-01-01 00:54:47.915,-0.014,0.015,0.997,0.183,0.122,0.061, , , , , , ,0.829,0.725,-105.963
 13:10:16.044,eb:33:2e:f9:57:b5, 2015-01-01 00:54:47.915,-0.015,0.015,0.997,0.122,0.122,0, , , , , , ,0.829,0.725,-105.963
 13:10:16.044,eb:33:2e:f9:57:b5, 2015-01-01 00:54:47.915,-0.015,0.016,0.997,0.122,0.122,0.061, , , , , , ,0.829,0.725,-105.963
 13:10:16.044,eb:33:2e:f9:57:b5, 2015-01-01 00:54:47.915,-0.015,0.016,0.997,0.061,0.061,0, , , , , , ,0.829,0.725,-105.963
 13:10:16.044,eb:33:2e:f9:57:b5, 2015-01-01 00:54:47.915,-0.016,0.015,0.997,0.122,0.061,0, , , , , , ,0.829,0.725,-105.963
 13:10:16.089,eb:33:2e:f9:57:b5, 2015-01-01 00:54:47.915,-0.016,0.015,0.997,0.061,0.061,0, , , , , , ,0.829,0.725,-105.963
 13:10:16.089,eb:33:2e:f9:57:b5, 2015-01-01 00:54:47.915,-0.016,0.015,0.997,0,0.061,0, , , , , , ,0.829,0.725,-105.963
 13:10:16.089,eb:33:2e:f9:57:b5, 2015-01-01 00:54:47.915,-0.016,0.015,0.996,0,0.061,0, , , , , , ,0.829,0.725,-105.963
 13:10:16.089,eb:33:2e:f9:57:b5, 2015-01-01 00:54:47.915,-0.015,0.016,0.996,0.061,0,0, , , , , , ,0.829,0.725,-105.963
 13:10:16.089,eb:33:2e:f9:57:b5, 2015-01-01 00:54:47.915,-0.015,0.015,0.997,0,0,0, , , , , , ,0.829,0.725,-105.963
 13:10:16.089,eb:33:2e:f9:57:b5, 2015-01-01 00:54:47.915,-0.015,0.015,0.997,0,0,0, , , , , , ,0.829,0.725,-105.963
 13:10:16.090,eb:33:2e:f9:57:b5, 2015-01-01 00:54:47.915,-0.016,0.015,0.997,-0.061,0,0, , , , , , ,0.829,0.725,-105.963
 13:10:16.090,eb:33:2e:f9:57:b5, 2015-01-01 00:54:47.915,-0.016,0.015,0.997,-0.061,0,0, , , , , , ,0.829,0.725,-105.963
 13:10:16.112,eb:33:2e:f9:57:b5, 2015-01-01 00:54:47.915,-0.016,0.015,0.996,-0.061,0,0, , , , , , ,0.829,0.725,-105.963
 13:10:16.112,eb:33:2e:f9:57:b5, 2015-01-01 00:54:47.915,-0.015,0.016,0.996,-0.122,-0.061,0, , , , , , ,0.829,0.725,-105.963
 13:10:16.112,eb:33:2e:f9:57:b5, 2015-01-01 00:54:47.915,-0.015,0.015,0.996,-0.122,-0.122,0, , , , , , ,0.829,0.725,-105.963
 13:10:16.112,eb:33:2e:f9:57:b5, 2015-01-01 00:54:47.915,-0.015,0.015,0.997,-0.122,-0.122,0, , , , , , ,0.829,0.725,-105.963
 13:10:16.112,eb:33:2e:f9:57:b5, 2015-01-01 00:54:47.915,-0.015,0.015,0.998,-0.061,-0.122,0, , , , , , ,0.829,0.725,-105.963
 13:10:16.112,eb:33:2e:f9:57:b5, 2015-01-01 00:54:47.915,-0.015,0.015,0.998,-0.122,-0.122,0, , , , , , ,0.829,0.725,-105.963
 13:10:16.112,eb:33:2e:f9:57:b5, 2015-01-01 00:54:47.915,-0.015,0.015,0.997,-0.122,-0.122,0, , , , , , ,0.829,0.725,-105.963
 13:10:16.112,eb:33:2e:f9:57:b5, 2015-01-01 00:54:47.915,-0.015,0.015,0.997,-0.122,-0.061,0.061, , , , , , ,0.829,0.725,-105.963
 13:10:16.156,eb:33:2e:f9:57:b5, 2015-01-01 00:54:47.915,-0.015,0.015,0.997,-0.122,0,0, , , , , , ,0.829,0.725,-105.963
 13:10:16.156,eb:33:2e:f9:57:b5, 2015-01-01 00:54:47.915,-0.016,0.015,0.997,-0.122,-0.061,0, , , , , , ,0.829,0.731,-105.963
 13:10:16.156,eb:33:2e:f9:57:b5, 2015-01-01 00:54:47.915,-0.015,0.015,0.997,-0.183,-0.061,0, , , , , , ,0.829,0.731,-105.963
 13:10:16.156,eb:33:2e:f9:57:b5, 2015-01-01 00:54:47.915,-0.015,0.015,0.997,-0.122,-0.122,0, , , , , , ,0.829,0.731,-105.963
 13:10:16.156,eb:33:2e:f9:57:b5, 2015-01-01 00:54:47.915,-0.014,0.015,0.997,-0.122,-0.061,0, , , , , , ,0.829,0.731,-105.963
 13:10:16.157,eb:33:2e:f9:57:b5, 2015-01-01 00:54:47.915,-0.015,0.015,0.997,-0.122,0,0, , , , , , ,0.829,0.731,-105.963
 13:10:16.157,eb:33:2e:f9:57:b5, 2015-01-01 00:54:47.915,-0.015,0.015,0.997,-0.183,0,0, , , , , , ,0.829,0.731,-105.963
 13:10:16.157,eb:33:2e:f9:57:b5, 2015-01-01 00:54:47.915,-0.015,0.015,0.997,-0.183,0,0, , , , , , ,0.829,0.731,-105.963
 13:10:16.202,eb:33:2e:f9:57:b5, 2015-01-01 00:54:47.915,-0.014,0.014,0.997,-0.244,0,0.061, , , , , , ,0.829,0.731,-105.963
 13:10:16.202,eb:33:2e:f9:57:b5, 2015-01-01 00:54:47.915,-0.015,0.015,0.998,-0.183,0,0, , , , , , ,0.829,0.731,-105.963
 13:10:16.202,eb:33:2e:f9:57:b5, 2015-01-01 00:54:47.915,-0.015,0.015,0.997,-0.244,0,0, , , , , , ,0.829,0.731,-105.963
 13:10:16.202,eb:33:2e:f9:57:b5, 2015-01-01 00:54:47.915,-0.015,0.015,0.998,-0.183,0,0, , , , , , ,0.829,0.731,-105.963
 13:10:16.202,eb:33:2e:f9:57:b5, 2015-01-01 00:54:47.915,-0.015,0.015,0.998,-0.244,0,0, , , , , , ,0.829,0.731,-105.963
 13:10:16.202,eb:33:2e:f9:57:b5, 2015-01-01 00:54:47.915,-0.016,0.015,0.998,-0.183,0,0, , , , , , ,0.829,0.731,-105.963
 13:10:16.202,eb:33:2e:f9:57:b5, 2015-01-01 00:54:47.915,-0.017,0.014,0.997,-0.183,0,0, , , , , , ,0.829,0.731,-105.963
 13:10:16.202,eb:33:2e:f9:57:b5, 2015-01-01 00:54:47.915,-0.016,0.014,0.997,-0.183,-0.061,0.061, , , , , , ,0.829,0.731,-105.963
 13:10:16.247,eb:33:2e:f9:57:b5, 2015-01-01 00:54:47.915,-0.016,0.013,0.997,-0.183,-0.122,0.061, , , , , , ,0.829,0.731,-105.963
 13:10:16.247,eb:33:2e:f9:57:b5, 2015-01-01 00:54:47.915,-0.016,0.015,0.997,-0.244,-0.122,0.061, , , , , , ,0.829,0.731,-105.963
 13:10:16.247,eb:33:2e:f9:57:b5, 2015-01-01 00:54:47.915,-0.015,0.014,0.997,-0.244,-0.183,0, , , , , , ,0.829,0.731,-105.963
 13:10:16.247,eb:33:2e:f9:57:b5, 2015-01-01 00:54:47.915,-0.014,0.014,0.996,-0.183,-0.244,0, , , , , , ,0.829,0.731,-105.963
 13:10:16.247,eb:33:2e:f9:57:b5, 2015-01-01 00:54:47.915,-0.015,0.014,0.997,-0.183,-0.183,0, , , , , , ,0.829,0.731,-105.963
 13:10:16.247,eb:33:2e:f9:57:b5, 2015-01-01 00:54:47.915,-0.015,0.014,0.997,-0.183,-0.183,0.061, , , , , , ,0.829,0.731,-105.963
 13:10:16.247,eb:33:2e:f9:57:b5, 2015-01-01 00:54:47.915,-0.015,0.015,0.997,-0.244,-0.122,0.061, , , , , , ,0.829,0.731,-105.963
 13:10:16.247,eb:33:2e:f9:57:b5, 2015-01-01 00:54:47.915,-0.014,0.015,0.997,-0.305,-0.183,0, , , , , , ,0.829,0.731,-105.963
 13:10:16.293,eb:33:2e:f9:57:b5, 2015-01-01 00:54:47.915,-0.014,0.015,0.997,-0.366,-0.122,0, , , , , , ,0.829,0.731,-105.963
 13:10:16.293,eb:33:2e:f9:57:b5, 2015-01-01 00:54:47.915,-0.015,0.014,0.997,-0.366,-0.122,0, , , , , , ,0.829,0.736,-105.963
 13:10:16.293,eb:33:2e:f9:57:b5, 2015-01-01 00:54:47.915,-0.015,0.014,0.997,-0.366,-0.061,0, , , , , , ,0.829,0.736,-105.963
 13:10:16.293,eb:33:2e:f9:57:b5, 2015-01-01 00:54:47.915,-0.015,0.014,0.998,-0.366,-0.122,0, , , , , , ,0.829,0.736,-105.963
 13:10:16.293,eb:33:2e:f9:57:b5, 2015-01-01 00:54:47.915,-0.014,0.014,0.997,-0.305,-0.061,0, , , , , , ,0.829,0.736,-105.963
 13:10:16.293,eb:33:2e:f9:57:b5, 2015-01-01 00:54:47.915,-0.014,0.015,0.997,-0.366,0,0, , , , , , ,0.829,0.736,-105.963
 13:10:16.293,eb:33:2e:f9:57:b5, 2015-01-01 00:54:47.915,-0.015,0.014,0.996,-0.366,0,0, , , , , , ,0.829,0.736,-105.963
 13:10:16.293,eb:33:2e:f9:57:b5, 2015-01-01 00:54:47.915,-0.014,0.014,0.996,-0.305,0,0, , , , , , ,0.829,0.736,-105.963
 13:10:16.314,eb:33:2e:f9:57:b5, 2015-01-01 00:54:48.205,-0.015,0.013,0.997,-0.366,0,0, , , , , , ,0.829,0.736,-105.963
 13:10:16.314,eb:33:2e:f9:57:b5, 2015-01-01 00:54:48.205,-0.015,0.015,0.997,-0.366,0,0, , , , , , ,0.829,0.736,-105.963
 13:10:16.314,eb:33:2e:f9:57:b5, 2015-01-01 00:54:48.205,-0.015,0.014,0.996,-0.366,-0.061,0, , , , , , ,0.829,0.736,-105.963
 13:10:16.314,eb:33:2e:f9:57:b5, 2015-01-01 00:54:48.205,-0.016,0.013,0.997,-0.366,-0.183,0, , , , , , ,0.829,0.736,-105.963
 13:10:16.314,eb:33:2e:f9:57:b5, 2015-01-01 00:54:48.205,-0.015,0.014,0.997,-0.305,-0.244,0, , , , , , ,0.829,0.736,-105.963
 13:10:16.314,eb:33:2e:f9:57:b5, 2015-01-01 00:54:48.205,-0.014,0.013,0.997,-0.244,-0.305,0, , , , , , ,0.829,0.736,-105.963
 13:10:16.314,eb:33:2e:f9:57:b5, 2015-01-01 00:54:48.205,-0.015,0.013,0.997,-0.305,-0.305,0, , , , , , ,0.829,0.736,-105.963
 13:10:16.314,eb:33:2e:f9:57:b5, 2015-01-01 00:54:48.205,-0.014,0.013,0.997,-0.244,-0.244,0, , , , , , ,0.829,0.736,-105.963
 13:10:16.359,eb:33:2e:f9:57:b5, 2015-01-01 00:54:48.205,-0.014,0.013,0.997,-0.244,-0.244,0, , , , , , ,0.829,0.736,-105.963
 13:10:16.359,eb:33:2e:f9:57:b5, 2015-01-01 00:54:48.205,-0.013,0.014,0.998,-0.244,-0.244,-0.061, , , , , , ,0.829,0.736,-105.963
 13:10:16.359,eb:33:2e:f9:57:b5, 2015-01-01 00:54:48.205,-0.014,0.014,0.998,-0.244,-0.183,0, , , , , , ,0.829,0.736,-105.963
 13:10:16.359,eb:33:2e:f9:57:b5, 2015-01-01 00:54:48.205,-0.014,0.014,0.998,-0.244,-0.183,0, , , , , , ,0.829,0.736,-105.963
 13:10:16.359,eb:33:2e:f9:57:b5, 2015-01-01 00:54:48.205,-0.014,0.014,0.998,-0.244,-0.183,0, , , , , , ,0.829,0.736,-105.963
 13:10:16.359,eb:33:2e:f9:57:b5, 2015-01-01 00:54:48.205,-0.014,0.013,0.998,-0.183,-0.122,0, , , , , , ,0.829,0.736,-105.963
 13:10:16.359,eb:33:2e:f9:57:b5, 2015-01-01 00:54:48.205,-0.014,0.013,0.998,-0.122,-0.122,0, , , , , , ,0.829,0.736,-105.963
 13:10:16.360,eb:33:2e:f9:57:b5, 2015-01-01 00:54:48.205,-0.014,0.013,0.999,-0.122,-0.061,0, , , , , , ,0.829,0.736,-105.963
 13:10:16.426,eb:33:2e:f9:57:b5, 2015-01-01 00:54:48.205,-0.014,0.013,0.998,-0.122,-0.061,0, , , , , , ,0.829,0.736,-105.963
 13:10:16.426,eb:33:2e:f9:57:b5, 2015-01-01 00:54:48.205,-0.015,0.013,0.998,-0.122,-0.122,0, , , , , , ,0.829,0.736,-105.963
 13:10:16.426,eb:33:2e:f9:57:b5, 2015-01-01 00:54:48.205,-0.015,0.013,0.998,-0.061,-0.122,0, , , , , , ,0.829,0.736,-105.963
 13:10:16.426,eb:33:2e:f9:57:b5, 2015-01-01 00:54:48.205,-0.015,0.013,0.997,-0.061,-0.061,0, , , , , , ,0.829,0.736,-105.963
 13:10:16.426,eb:33:2e:f9:57:b5, 2015-01-01 00:54:48.205,-0.015,0.013,0.997,0,-0.061,0, , , , , , ,0.829,0.736,-105.963
 13:10:16.426,eb:33:2e:f9:57:b5, 2015-01-01 00:54:48.205,-0.014,0.013,0.997,0,-0.061,0, , , , , , ,0.829,0.736,-105.963
 13:10:16.426,eb:33:2e:f9:57:b5, 2015-01-01 00:54:48.205,-0.014,0.014,0.998,0,-0.061,-0.061, , , , , , ,0.829,0.736,-105.963
 13:10:16.426,eb:33:2e:f9:57:b5, 2015-01-01 00:54:48.205,-0.013,0.013,0.998,0,0,0, , , , , , ,0.829,0.736,-105.963
 13:10:16.450,eb:33:2e:f9:57:b5, 2015-01-01 00:54:48.205,-0.016,0.013,0.998,0,0,0, , , , , , ,0.829,0.736,-105.963
 13:10:16.450,eb:33:2e:f9:57:b5, 2015-01-01 00:54:48.205,-0.016,0.013,0.997,0,0,0, , , , , , ,0.829,0.736,-105.963
 13:10:16.450,eb:33:2e:f9:57:b5, 2015-01-01 00:54:48.205,-0.015,0.013,0.996,0,-0.061,0, , , , , , ,0.829,0.736,-105.963
 13:10:16.450,eb:33:2e:f9:57:b5, 2015-01-01 00:54:48.205,-0.014,0.014,0.997,0,-0.061,0, , , , , , ,0.829,0.736,-105.963
 13:10:16.450,eb:33:2e:f9:57:b5, 2015-01-01 00:54:48.205,-0.014,0.013,0.998,0.061,0,0, , , , , , ,0.829,0.736,-105.963
 13:10:16.450,eb:33:2e:f9:57:b5, 2015-01-01 00:54:48.205,-0.014,0.013,0.998,0.061,-0.061,0.061, , , , , , ,0.829,0.736,-105.963
 13:10:16.450,eb:33:2e:f9:57:b5, 2015-01-01 00:54:48.205,-0.015,0.014,0.998,0,0,0.061, , , , , , ,0.829,0.736,-105.963
 13:10:16.450,eb:33:2e:f9:57:b5, 2015-01-01 00:54:48.205,-0.014,0.014,0.997,0,-0.061,0, , , , , , ,0.829,0.736,-105.963
 13:10:16.494,eb:33:2e:f9:57:b5, 2015-01-01 00:54:48.205,-0.013,0.014,0.998,0,0,0, , , , , , ,0.829,0.736,-105.963
 13:10:16.494,eb:33:2e:f9:57:b5, 2015-01-01 00:54:48.205,-0.014,0.013,0.998,0,0,0, , , , , , ,0.829,0.742,-105.963
 13:10:16.494,eb:33:2e:f9:57:b5, 2015-01-01 00:54:48.205,-0.015,0.014,0.997,0,0,0, , , , , , ,0.829,0.742,-105.963
 13:10:16.494,eb:33:2e:f9:57:b5, 2015-01-01 00:54:48.205,-0.014,0.014,0.997,-0.061,0,0, , , , , , ,0.829,0.742,-105.963
 13:10:16.494,eb:33:2e:f9:57:b5, 2015-01-01 00:54:48.205,-0.014,0.014,0.997,0,0.061,0, , , , , , ,0.829,0.742,-105.963
 13:10:16.494,eb:33:2e:f9:57:b5, 2015-01-01 00:54:48.205,-0.014,0.014,0.997,0,0.122,0, , , , , , ,0.829,0.742,-105.963
 13:10:16.494,eb:33:2e:f9:57:b5, 2015-01-01 00:54:48.205,-0.015,0.014,0.998,0,0.122,0, , , , , , ,0.829,0.742,-105.963
 13:10:16.495,eb:33:2e:f9:57:b5, 2015-01-01 00:54:48.205,-0.015,0.013,0.997,-0.061,0.061,0, , , , , , ,0.829,0.742,-105.963
 13:10:16.517,eb:33:2e:f9:57:b5, 2015-01-01 00:54:48.205,-0.015,0.013,0.997,0,0.061,0, , , , , , ,0.829,0.742,-105.963
 13:10:16.517,eb:33:2e:f9:57:b5, 2015-01-01 00:54:48.205,-0.014,0.013,0.998,0,0.061,0.061, , , , , , ,0.829,0.742,-105.963
 13:10:16.517,eb:33:2e:f9:57:b5, 2015-01-01 00:54:48.205,-0.014,0.013,0.997,0,0.061,0.061, , , , , , ,0.829,0.742,-105.963
 13:10:16.517,eb:33:2e:f9:57:b5, 2015-01-01 00:54:48.205,-0.015,0.013,0.998,0,0,0.061, , , , , , ,0.829,0.742,-105.963
 13:10:16.517,eb:33:2e:f9:57:b5, 2015-01-01 00:54:48.205,-0.015,0.014,0.996,0,0,0, , , , , , ,0.829,0.742,-105.963
 13:10:16.517,eb:33:2e:f9:57:b5, 2015-01-01 00:54:48.205,-0.015,0.013,0.997,0,0,0, , , , , , ,0.829,0.742,-105.963
 13:10:16.517,eb:33:2e:f9:57:b5, 2015-01-01 00:54:48.205,-0.015,0.012,0.997,0,0,0, , , , , , ,0.829,0.742,-105.963
 13:10:16.517,eb:33:2e:f9:57:b5, 2015-01-01 00:54:48.205,-0.015,0.013,0.997,0,-0.061,0, , , , , , ,0.829,0.742,-105.963
 13:10:16.561,eb:33:2e:f9:57:b5, 2015-01-01 00:54:48.205,-0.015,0.013,0.998,0,-0.122,0, , , , , , ,0.829,0.742,-105.963
 13:10:16.561,eb:33:2e:f9:57:b5, 2015-01-01 00:54:48.205,-0.014,0.013,0.998,-0.061,0,0, , , , , , ,0.829,0.742,-105.969
 13:10:16.561,eb:33:2e:f9:57:b5, 2015-01-01 00:54:48.205,-0.014,0.012,0.997,-0.061,-0.061,0, , , , , , ,0.829,0.742,-105.969
 13:10:16.561,eb:33:2e:f9:57:b5, 2015-01-01 00:54:48.205,-0.014,0.013,0.998,0,-0.061,0.061, , , , , , ,0.829,0.742,-105.969
 13:10:16.561,eb:33:2e:f9:57:b5, 2015-01-01 00:54:48.205,-0.014,0.014,0.997,-0.061,-0.061,0, , , , , , ,0.829,0.742,-105.969
 13:10:16.561,eb:33:2e:f9:57:b5, 2015-01-01 00:54:48.205,-0.014,0.013,0.997,-0.061,0,0, , , , , , ,0.829,0.742,-105.969
 13:10:16.561,eb:33:2e:f9:57:b5, 2015-01-01 00:54:48.205,-0.014,0.013,0.998,0,0,0, , , , , , ,0.829,0.742,-105.969
 13:10:16.561,eb:33:2e:f9:57:b5, 2015-01-01 00:54:48.205,-0.014,0.013,0.998,-0.061,0,0, , , , , , ,0.829,0.742,-105.969
 13:10:16.606,eb:33:2e:f9:57:b5, 2015-01-01 00:54:48.205,-0.014,0.014,0.998,-0.122,0,0, , , , , , ,0.829,0.742,-105.969
 13:10:16.606,eb:33:2e:f9:57:b5, 2015-01-01 00:54:48.205,-0.015,0.014,0.998,-0.061,0.061,0, , , , , , ,0.829,0.742,-105.969
 13:10:16.606,eb:33:2e:f9:57:b5, 2015-01-01 00:54:48.205,-0.015,0.013,0.997,-0.061,0.061,0, , , , , , ,0.829,0.742,-105.969
 13:10:16.606,eb:33:2e:f9:57:b5, 2015-01-01 00:54:48.205,-0.014,0.014,0.996,-0.061,0,0, , , , , , ,0.829,0.742,-105.969
 13:10:16.606,eb:33:2e:f9:57:b5, 2015-01-01 00:54:48.205,-0.014,0.014,0.997,-0.061,0,0, , , , , , ,0.829,0.742,-105.969
 13:10:16.606,eb:33:2e:f9:57:b5, 2015-01-01 00:54:48.205,-0.015,0.013,0.997,-0.122,0,0, , , , , , ,0.829,0.742,-105.969
 13:10:16.606,eb:33:2e:f9:57:b5, 2015-01-01 00:54:48.205,-0.015,0.013,0.997,-0.061,0,0, , , , , , ,0.829,0.742,-105.969
 13:10:16.607,eb:33:2e:f9:57:b5, 2015-01-01 00:54:48.205,-0.014,0.013,0.997,0,0,0, , , , , , ,0.829,0.742,-105.969
 13:10:16.651,eb:33:2e:f9:57:b5, 2015-01-01 00:54:48.515,-0.014,0.013,0.998,0,0,0, , , , , , ,0.829,0.742,-105.969
 13:10:16.651,eb:33:2e:f9:57:b5, 2015-01-01 00:54:48.515,-0.014,0.013,0.997,0,0,0, , , , , , ,0.829,0.742,-105.969
 13:10:16.651,eb:33:2e:f9:57:b5, 2015-01-01 00:54:48.515,-0.014,0.013,0.998,0,0,-0.061, , , , , , ,0.829,0.742,-105.969
 13:10:16.651,eb:33:2e:f9:57:b5, 2015-01-01 00:54:48.515,-0.014,0.013,0.998,0,-0.061,0, , , , , , ,0.829,0.742,-105.969
 13:10:16.651,eb:33:2e:f9:57:b5, 2015-01-01 00:54:48.515,-0.014,0.012,0.998,0,-0.061,0, , , , , , ,0.829,0.742,-105.969
 13:10:16.651,eb:33:2e:f9:57:b5, 2015-01-01 00:54:48.515,-0.014,0.012,0.998,0,0,0, , , , , , ,0.829,0.742,-105.969
 13:10:16.651,eb:33:2e:f9:57:b5, 2015-01-01 00:54:48.515,-0.014,0.013,0.997,0,0,0, , , , , , ,0.829,0.742,-105.969
 13:10:16.651,eb:33:2e:f9:57:b5, 2015-01-01 00:54:48.515,-0.014,0.014,0.997,0,0,0, , , , , , ,0.829,0.742,-105.969
 13:10:16.697,eb:33:2e:f9:57:b5, 2015-01-01 00:54:48.515,-0.014,0.013,0.998,0,0,0, , , , , , ,0.829,0.742,-105.969
 13:10:16.697,eb:33:2e:f9:57:b5, 2015-01-01 00:54:48.515,-0.014,0.013,0.997,0,0,0, , , , , , ,0.829,0.742,-105.969
 13:10:16.697,eb:33:2e:f9:57:b5, 2015-01-01 00:54:48.515,-0.014,0.013,0.997,0,0,0, , , , , , ,0.829,0.742,-105.969
 13:10:16.697,eb:33:2e:f9:57:b5, 2015-01-01 00:54:48.515,-0.014,0.013,0.998,0,0,-0.061, , , , , , ,0.829,0.742,-105.969
 13:10:16.697,eb:33:2e:f9:57:b5, 2015-01-01 00:54:48.515,-0.015,0.013,0.997,0,0.061,0, , , , , , ,0.829,0.742,-105.969
 13:10:16.697,eb:33:2e:f9:57:b5, 2015-01-01 00:54:48.515,-0.015,0.013,0.997,0,0,0, , , , , , ,0.824,0.747,-105.969
 13:10:16.699,eb:33:2e:f9:57:b5, 2015-01-01 00:54:48.515,-0.014,0.014,0.997,0,0,0, , , , , , ,0.824,0.747,-105.969
 13:10:16.699,eb:33:2e:f9:57:b5, 2015-01-01 00:54:48.515,-0.014,0.013,0.998,0,0.061,0, , , , , , ,0.824,0.747,-105.969
 13:10:16.719,eb:33:2e:f9:57:b5, 2015-01-01 00:54:48.515,-0.014,0.013,0.998,0,0.061,0, , , , , , ,0.824,0.747,-105.969
 13:10:16.719,eb:33:2e:f9:57:b5, 2015-01-01 00:54:48.515,-0.015,0.013,0.997,0,0.061,0, , , , , , ,0.824,0.747,-105.969
 13:10:16.719,eb:33:2e:f9:57:b5, 2015-01-01 00:54:48.515,-0.014,0.013,0.998,0,0.061,0, , , , , , ,0.824,0.747,-105.969
 13:10:16.719,eb:33:2e:f9:57:b5, 2015-01-01 00:54:48.515,-0.015,0.013,0.998,0,0.061,0, , , , , , ,0.824,0.747,-105.969
 13:10:16.719,eb:33:2e:f9:57:b5, 2015-01-01 00:54:48.515,-0.014,0.013,0.997,0,0.061,0, , , , , , ,0.824,0.747,-105.969
 13:10:16.719,eb:33:2e:f9:57:b5, 2015-01-01 00:54:48.515,-0.014,0.013,0.997,0,0.061,0, , , , , , ,0.824,0.747,-105.969
 13:10:16.719,eb:33:2e:f9:57:b5, 2015-01-01 00:54:48.515,-0.014,0.013,0.997,0,0,0, , , , , , ,0.824,0.747,-105.969
 13:10:16.719,eb:33:2e:f9:57:b5, 2015-01-01 00:54:48.515,-0.014,0.014,0.998,0,0.061,0, , , , , , ,0.824,0.747,-105.969
 13:10:16.763,eb:33:2e:f9:57:b5, 2015-01-01 00:54:48.515,-0.013,0.013,0.997,0,0.061,0, , , , , , ,0.824,0.747,-105.969
 13:10:16.763,eb:33:2e:f9:57:b5, 2015-01-01 00:54:48.515,-0.014,0.014,0.998,0,0,0, , , , , , ,0.824,0.747,-105.969
 13:10:16.763,eb:33:2e:f9:57:b5, 2015-01-01 00:54:48.515,-0.014,0.013,0.998,0,0,0, , , , , , ,0.824,0.747,-105.969
 13:10:16.763,eb:33:2e:f9:57:b5, 2015-01-01 00:54:48.515,-0.014,0.014,0.998,0,0.061,0, , , , , , ,0.824,0.747,-105.969
 13:10:16.763,eb:33:2e:f9:57:b5, 2015-01-01 00:54:48.515,-0.015,0.013,0.997,0,0.122,0, , , , , , ,0.824,0.747,-105.969
 13:10:16.763,eb:33:2e:f9:57:b5, 2015-01-01 00:54:48.515,-0.014,0.013,0.996,0,0.061,0, , , , , , ,0.824,0.747,-105.969
 13:10:16.763,eb:33:2e:f9:57:b5, 2015-01-01 00:54:48.515,-0.014,0.013,0.997,0,0.061,0, , , , , , ,0.824,0.747,-105.969
 13:10:16.763,eb:33:2e:f9:57:b5, 2015-01-01 00:54:48.515,-0.014,0.014,0.997,-0.061,0,0, , , , , , ,0.824,0.747,-105.969
 13:10:16.810,eb:33:2e:f9:57:b5, 2015-01-01 00:54:48.515,-0.014,0.014,0.997,0,0,0, , , , , , ,0.824,0.747,-105.969
 13:10:16.810,eb:33:2e:f9:57:b5, 2015-01-01 00:54:48.515,-0.015,0.014,0.997,-0.061,0,0, , , , , , ,0.824,0.747,-105.969
 13:10:16.810,eb:33:2e:f9:57:b5, 2015-01-01 00:54:48.515,-0.014,0.013,0.997,-0.061,0,0, , , , , , ,0.824,0.747,-105.969
 13:10:16.810,eb:33:2e:f9:57:b5, 2015-01-01 00:54:48.515,-0.014,0.012,0.997,0,0,0, , , , , , ,0.824,0.747,-105.969
 13:10:16.810,eb:33:2e:f9:57:b5, 2015-01-01 00:54:48.515,-0.013,0.013,0.997,-0.061,-0.061,0, , , , , , ,0.824,0.747,-105.969
 13:10:16.810,eb:33:2e:f9:57:b5, 2015-01-01 00:54:48.515,-0.015,0.013,0.997,0,0,0, , , , , , ,0.824,0.747,-105.969
 13:10:16.810,eb:33:2e:f9:57:b5, 2015-01-01 00:54:48.515,-0.014,0.013,0.997,-0.061,-0.061,0, , , , , , ,0.824,0.747,-105.969
 13:10:16.810,eb:33:2e:f9:57:b5, 2015-01-01 00:54:48.515,-0.013,0.013,0.997,-0.061,-0.122,0, , , , , , ,0.824,0.747,-105.969
 13:10:16.854,eb:33:2e:f9:57:b5, 2015-01-01 00:54:48.515,-0.014,0.013,0.997,-0.061,-0.061,0, , , , , , ,0.824,0.747,-105.969
 13:10:16.854,eb:33:2e:f9:57:b5, 2015-01-01 00:54:48.515,-0.014,0.013,0.997,0,-0.122,0.061, , , , , , ,0.824,0.747,-105.969
 13:10:16.854,eb:33:2e:f9:57:b5, 2015-01-01 00:54:48.515,-0.015,0.014,0.997,-0.061,-0.122,0, , , , , , ,0.824,0.747,-105.969
 13:10:16.854,eb:33:2e:f9:57:b5, 2015-01-01 00:54:48.515,-0.015,0.014,0.997,-0.061,-0.122,0, , , , , , ,0.824,0.747,-105.969
 13:10:16.854,eb:33:2e:f9:57:b5, 2015-01-01 00:54:48.515,-0.014,0.014,0.997,-0.061,-0.061,0, , , , , , ,0.824,0.747,-105.969
 13:10:16.854,eb:33:2e:f9:57:b5, 2015-01-01 00:54:48.515,-0.014,0.013,0.997,-0.061,-0.122,0, , , , , , ,0.824,0.747,-105.969
 13:10:16.854,eb:33:2e:f9:57:b5, 2015-01-01 00:54:48.515,-0.014,0.013,0.997,-0.122,-0.122,0, , , , , , ,0.824,0.747,-105.969
 13:10:16.854,eb:33:2e:f9:57:b5, 2015-01-01 00:54:48.515,-0.014,0.013,0.998,-0.061,-0.061,0, , , , , , ,0.824,0.747,-105.969
 13:10:16.899,eb:33:2e:f9:57:b5, 2015-01-01 00:54:48.515,-0.013,0.014,0.997,-0.061,-0.061,0, , , , , , ,0.824,0.747,-105.969
 13:10:16.899,eb:33:2e:f9:57:b5, 2015-01-01 00:54:48.515,-0.013,0.014,0.997,-0.061,0,0, , , , , , ,0.824,0.747,-105.969
 13:10:16.899,eb:33:2e:f9:57:b5, 2015-01-01 00:54:48.515,-0.013,0.013,0.997,-0.061,0,0, , , , , , ,0.824,0.747,-105.969
 13:10:16.899,eb:33:2e:f9:57:b5, 2015-01-01 00:54:48.515,-0.013,0.013,0.997,-0.061,0,0, , , , , , ,0.824,0.747,-105.969
 13:10:16.899,eb:33:2e:f9:57:b5, 2015-01-01 00:54:48.515,-0.014,0.013,0.998,-0.122,0,0, , , , , , ,0.824,0.747,-105.969
 13:10:16.899,eb:33:2e:f9:57:b5, 2015-01-01 00:54:48.515,-0.015,0.013,0.998,-0.061,0,0, , , , , , ,0.824,0.747,-105.969
 13:10:16.899,eb:33:2e:f9:57:b5, 2015-01-01 00:54:48.515,-0.015,0.013,0.997,-0.061,0,0, , , , , , ,0.824,0.747,-105.969
 13:10:16.899,eb:33:2e:f9:57:b5, 2015-01-01 00:54:48.515,-0.014,0.013,0.997,-0.061,0,0, , , , , , ,0.824,0.747,-105.969
 13:10:16.921,eb:33:2e:f9:57:b5, 2015-01-01 00:54:48.515,-0.014,0.013,0.996,-0.061,0,0, , , , , , ,0.824,0.747,-105.969
 13:10:16.921,eb:33:2e:f9:57:b5, 2015-01-01 00:54:48.515,-0.014,0.013,0.997,-0.061,0,0, , , , , , ,0.824,0.747,-105.969
 13:10:16.921,eb:33:2e:f9:57:b5, 2015-01-01 00:54:48.515,-0.014,0.013,0.997,0,0,0, , , , , , ,0.824,0.747,-105.969
 13:10:16.921,eb:33:2e:f9:57:b5, 2015-01-01 00:54:48.515,-0.014,0.013,0.997,0,0,0, , , , , , ,0.824,0.747,-105.969
 13:10:16.921,eb:33:2e:f9:57:b5, 2015-01-01 00:54:48.515,-0.014,0.013,0.997,-0.061,0,-0.061, , , , , , ,0.824,0.747,-105.969
 13:10:16.921,eb:33:2e:f9:57:b5, 2015-01-01 00:54:48.515,-0.014,0.013,0.997,-0.122,0,0, , , , , , ,0.824,0.747,-105.969
 13:10:16.921,eb:33:2e:f9:57:b5, 2015-01-01 00:54:48.515,-0.014,0.012,0.997,0,0,0, , , , , , ,0.824,0.747,-105.969
 13:10:16.921,eb:33:2e:f9:57:b5, 2015-01-01 00:54:48.515,-0.014,0.013,0.997,-0.061,0,0, , , , , , ,0.824,0.747,-105.969
 13:10:16.966,eb:33:2e:f9:57:b5, 2015-01-01 00:54:48.810,-0.014,0.013,0.997,-0.061,0,0, , , , , , ,0.824,0.747,-105.969
 13:10:16.966,eb:33:2e:f9:57:b5, 2015-01-01 00:54:48.810,-0.014,0.013,0.997,-0.061,0,0, , , , , , ,0.824,0.753,-105.969
 13:10:16.966,eb:33:2e:f9:57:b5, 2015-01-01 00:54:48.810,-0.015,0.012,0.997,-0.122,0.061,-0.061, , , , , , ,0.824,0.753,-105.969
 13:10:16.966,eb:33:2e:f9:57:b5, 2015-01-01 00:54:48.810,-0.015,0.012,0.998,-0.061,0.061,-0.061, , , , , , ,0.824,0.753,-105.969
 13:10:16.966,eb:33:2e:f9:57:b5, 2015-01-01 00:54:48.810,-0.015,0.013,0.998,-0.061,0,0, , , , , , ,0.824,0.753,-105.969
 13:10:16.966,eb:33:2e:f9:57:b5, 2015-01-01 00:54:48.810,-0.014,0.013,0.998,-0.061,0.061,0, , , , , , ,0.824,0.753,-105.969
 13:10:16.966,eb:33:2e:f9:57:b5, 2015-01-01 00:54:48.810,-0.014,0.013,0.997,-0.061,0,0, , , , , , ,0.824,0.753,-105.969
 13:10:16.966,eb:33:2e:f9:57:b5, 2015-01-01 00:54:48.810,-0.013,0.013,0.998,0,0,0, , , , , , ,0.824,0.753,-105.969
 13:10:17.011,eb:33:2e:f9:57:b5, 2015-01-01 00:54:48.810,-0.014,0.012,0.998,0,0,0, , , , , , ,0.824,0.753,-105.969
 13:10:17.011,eb:33:2e:f9:57:b5, 2015-01-01 00:54:48.810,-0.014,0.012,0.998,0,0,0, , , , , , ,0.824,0.753,-105.969
 13:10:17.011,eb:33:2e:f9:57:b5, 2015-01-01 00:54:48.810,-0.015,0.012,0.997,0,-0.061,0, , , , , , ,0.824,0.753,-105.969
 13:10:17.011,eb:33:2e:f9:57:b5, 2015-01-01 00:54:48.810,-0.015,0.013,0.997,0,-0.061,0, , , , , , ,0.824,0.753,-105.969
 13:10:17.011,eb:33:2e:f9:57:b5, 2015-01-01 00:54:48.810,-0.014,0.012,0.997,-0.061,-0.061,0, , , , , , ,0.824,0.753,-105.969
 13:10:17.011,eb:33:2e:f9:57:b5, 2015-01-01 00:54:48.810,-0.014,0.013,0.998,0,-0.061,0, , , , , , ,0.818,0.753,-105.969
 13:10:17.011,eb:33:2e:f9:57:b5, 2015-01-01 00:54:48.810,-0.013,0.013,0.998,0,-0.061,0, , , , , , ,0.818,0.753,-105.969
 13:10:17.012,eb:33:2e:f9:57:b5, 2015-01-01 00:54:48.810,-0.014,0.013,0.997,0,0,0, , , , , , ,0.818,0.753,-105.969
 13:10:17.056,eb:33:2e:f9:57:b5, 2015-01-01 00:54:48.810,-0.014,0.013,0.997,0,0,0, , , , , , ,0.818,0.753,-105.969
 13:10:17.056,eb:33:2e:f9:57:b5, 2015-01-01 00:54:48.810,-0.014,0.013,0.997,0,0,0, , , , , , ,0.818,0.753,-105.969
 13:10:17.056,eb:33:2e:f9:57:b5, 2015-01-01 00:54:48.810,-0.013,0.013,0.997,-0.061,0,0, , , , , , ,0.818,0.753,-105.969
 13:10:17.056,eb:33:2e:f9:57:b5, 2015-01-01 00:54:48.810,-0.014,0.013,0.997,-0.061,0,-0.061, , , , , , ,0.818,0.753,-105.969
 13:10:17.056,eb:33:2e:f9:57:b5, 2015-01-01 00:54:48.810,-0.014,0.013,0.996,-0.061,0,-0.061, , , , , , ,0.818,0.753,-105.969
 13:10:17.056,eb:33:2e:f9:57:b5, 2015-01-01 00:54:48.810,-0.014,0.013,0.997,-0.061,0,0, , , , , , ,0.818,0.753,-105.969
 13:10:17.056,eb:33:2e:f9:57:b5, 2015-01-01 00:54:48.810,-0.014,0.013,0.996,-0.061,0,0, , , , , , ,0.818,0.753,-105.969
 13:10:17.056,eb:33:2e:f9:57:b5, 2015-01-01 00:54:48.810,-0.015,0.012,0.997,-0.122,0,0, , , , , , ,0.818,0.753,-105.969
 13:10:17.078,eb:33:2e:f9:57:b5, 2015-01-01 00:54:48.810,-0.014,0.013,0.997,-0.061,0,0, , , , , , ,0.818,0.753,-105.969
 13:10:17.078,eb:33:2e:f9:57:b5, 2015-01-01 00:54:48.810,-0.014,0.012,0.996,-0.122,-0.061,0, , , , , , ,0.818,0.753,-105.969
 13:10:17.078,eb:33:2e:f9:57:b5, 2015-01-01 00:54:48.810,-0.014,0.013,0.997,-0.122,-0.061,0, , , , , , ,0.818,0.753,-105.969
 13:10:17.078,eb:33:2e:f9:57:b5, 2015-01-01 00:54:48.810,-0.014,0.013,0.996,-0.183,-0.061,0, , , , , , ,0.818,0.753,-105.969
 13:10:17.078,eb:33:2e:f9:57:b5, 2015-01-01 00:54:48.810,-0.014,0.012,0.997,-0.122,-0.061,0, , , , , , ,0.818,0.753,-105.969
 13:10:17.078,eb:33:2e:f9:57:b5, 2015-01-01 00:54:48.810,-0.014,0.013,0.997,-0.122,-0.122,0, , , , , , ,0.818,0.753,-105.969
 13:10:17.078,eb:33:2e:f9:57:b5, 2015-01-01 00:54:48.810,-0.012,0.012,0.996,-0.122,-0.061,0, , , , , , ,0.818,0.753,-105.969
 13:10:17.078,eb:33:2e:f9:57:b5, 2015-01-01 00:54:48.810,-0.013,0.012,0.997,-0.122,-0.061,0, , , , , , ,0.818,0.753,-105.969
 13:10:17.124,eb:33:2e:f9:57:b5, 2015-01-01 00:54:48.810,-0.014,0.012,0.998,-0.122,0,0, , , , , , ,0.818,0.753,-105.969
 13:10:17.124,eb:33:2e:f9:57:b5, 2015-01-01 00:54:48.810,-0.014,0.012,0.997,-0.122,0,0, , , , , , ,0.818,0.753,-105.969
 13:10:17.124,eb:33:2e:f9:57:b5, 2015-01-01 00:54:48.810,-0.013,0.013,0.997,-0.183,0,0, , , , , , ,0.818,0.753,-105.969
 13:10:17.124,eb:33:2e:f9:57:b5, 2015-01-01 00:54:48.810,-0.013,0.012,0.998,-0.122,0,0, , , , , , ,0.818,0.753,-105.969
 13:10:17.124,eb:33:2e:f9:57:b5, 2015-01-01 00:54:48.810,-0.014,0.011,0.998,-0.122,0,0, , , , , , ,0.818,0.753,-105.969
 13:10:17.125,eb:33:2e:f9:57:b5, 2015-01-01 00:54:48.810,-0.014,0.012,0.998,-0.122,0,0, , , , , , ,0.818,0.753,-105.969
 13:10:17.125,eb:33:2e:f9:57:b5, 2015-01-01 00:54:48.810,-0.014,0.012,0.999,-0.061,-0.061,0.061, , , , , , ,0.818,0.753,-105.969
 13:10:17.125,eb:33:2e:f9:57:b5, 2015-01-01 00:54:48.810,-0.015,0.012,0.998,-0.061,-0.061,0.061, , , , , , ,0.818,0.753,-105.969
 13:10:17.169,eb:33:2e:f9:57:b5, 2015-01-01 00:54:48.810,-0.015,0.012,0.997,-0.122,0,0, , , , , , ,0.818,0.753,-105.969
 13:10:17.169,eb:33:2e:f9:57:b5, 2015-01-01 00:54:48.810,-0.014,0.012,0.997,-0.061,0,0, , , , , , ,0.818,0.753,-105.969
 13:10:17.169,eb:33:2e:f9:57:b5, 2015-01-01 00:54:48.810,-0.014,0.012,0.997,0,0,0, , , , , , ,0.818,0.753,-105.969
 13:10:17.169,eb:33:2e:f9:57:b5, 2015-01-01 00:54:48.810,-0.014,0.011,0.997,0,-0.061,0, , , , , , ,0.818,0.753,-105.969
 13:10:17.169,eb:33:2e:f9:57:b5, 2015-01-01 00:54:48.810,-0.014,0.011,0.997,0,-0.061,0, , , , , , ,0.818,0.753,-105.969
 13:10:17.169,eb:33:2e:f9:57:b5, 2015-01-01 00:54:48.810,-0.014,0.011,0.997,0,-0.061,0.061, , , , , , ,0.818,0.753,-105.969
 13:10:17.169,eb:33:2e:f9:57:b5, 2015-01-01 00:54:48.810,-0.014,0.011,0.998,0,-0.122,0.122, , , , , , ,0.818,0.753,-105.969
 13:10:17.169,eb:33:2e:f9:57:b5, 2015-01-01 00:54:48.810,-0.014,0.012,0.998,0,-0.061,0.061, , , , , , ,0.818,0.753,-105.969
 13:10:17.215,eb:33:2e:f9:57:b5, 2015-01-01 00:54:48.810,-0.014,0.012,0.997,-0.061,-0.122,0.122, , , , , , ,0.818,0.753,-105.969
 13:10:17.216,eb:33:2e:f9:57:b5, 2015-01-01 00:54:48.810,-0.014,0.012,0.997,0,-0.183,0.183, , , , , , ,0.818,0.753,-105.969
 13:10:17.216,eb:33:2e:f9:57:b5, 2015-01-01 00:54:48.810,-0.014,0.012,0.997,0,-0.183,0.183, , , , , , ,0.818,0.753,-105.969
 13:10:17.216,eb:33:2e:f9:57:b5, 2015-01-01 00:54:48.810,-0.014,0.012,0.997,0,-0.244,0.183, , , , , , ,0.818,0.753,-105.969
 13:10:17.216,eb:33:2e:f9:57:b5, 2015-01-01 00:54:48.810,-0.015,0.012,0.997,0,-0.183,0.183, , , , , , ,0.818,0.753,-105.969
 13:10:17.216,eb:33:2e:f9:57:b5, 2015-01-01 00:54:48.810,-0.015,0.012,0.997,0.061,-0.244,0.183, , , , , , ,0.818,0.753,-105.969
 13:10:17.216,eb:33:2e:f9:57:b5, 2015-01-01 00:54:48.810,-0.014,0.012,0.997,0.061,-0.305,0.122, , , , , , ,0.818,0.753,-105.969
 13:10:17.216,eb:33:2e:f9:57:b5, 2015-01-01 00:54:48.810,-0.014,0.012,0.997,0,-0.366,0.183, , , , , , ,0.818,0.753,-105.969
 13:10:17.259,eb:33:2e:f9:57:b5, 2015-01-01 00:54:49.120,-0.015,0.013,0.997,0,-0.366,0.183, , , , , , ,0.818,0.753,-105.969
 13:10:17.259,eb:33:2e:f9:57:b5, 2015-01-01 00:54:49.120,-0.015,0.012,0.998,0,-0.488,0.244, , , , , , ,0.813,0.753,-105.969
 13:10:17.259,eb:33:2e:f9:57:b5, 2015-01-01 00:54:49.120,-0.015,0.013,0.996,0,-0.488,0.183, , , , , , ,0.813,0.753,-105.969
 13:10:17.259,eb:33:2e:f9:57:b5, 2015-01-01 00:54:49.120,-0.014,0.012,0.997,0,-0.549,0.183, , , , , , ,0.813,0.753,-105.969
 13:10:17.259,eb:33:2e:f9:57:b5, 2015-01-01 00:54:49.120,-0.015,0.013,0.997,0,-0.61,0.244, , , , , , ,0.813,0.753,-105.969
 13:10:17.259,eb:33:2e:f9:57:b5, 2015-01-01 00:54:49.120,-0.014,0.012,0.997,0,-0.671,0.244, , , , , , ,0.813,0.753,-105.969
 13:10:17.259,eb:33:2e:f9:57:b5, 2015-01-01 00:54:49.120,-0.014,0.013,0.997,0,-0.61,0.183, , , , , , ,0.813,0.753,-105.969
 13:10:17.259,eb:33:2e:f9:57:b5, 2015-01-01 00:54:49.120,-0.013,0.012,0.997,0,-0.671,0.183, , , , , , ,0.813,0.753,-105.969
 13:10:17.282,eb:33:2e:f9:57:b5, 2015-01-01 00:54:49.120,-0.013,0.013,0.996,0,-0.732,0.183, , , , , , ,0.813,0.753,-105.969
 13:10:17.282,eb:33:2e:f9:57:b5, 2015-01-01 00:54:49.120,-0.012,0.013,0.997,-0.061,-0.732,0.122, , , , , , ,0.813,0.758,-105.969
 13:10:17.282,eb:33:2e:f9:57:b5, 2015-01-01 00:54:49.120,-0.011,0.012,0.997,-0.061,-0.671,0.183, , , , , , ,0.813,0.758,-105.969
 13:10:17.282,eb:33:2e:f9:57:b5, 2015-01-01 00:54:49.120,-0.011,0.014,0.997,-0.122,-0.549,0.183, , , , , , ,0.813,0.758,-105.969
 13:10:17.282,eb:33:2e:f9:57:b5, 2015-01-01 00:54:49.120,-0.012,0.014,0.996,-0.183,-0.488,0.183, , , , , , ,0.813,0.758,-105.969
 13:10:17.282,eb:33:2e:f9:57:b5, 2015-01-01 00:54:49.120,-0.013,0.013,0.996,-0.183,-0.488,0.183, , , , , , ,0.813,0.758,-105.974
 13:10:17.282,eb:33:2e:f9:57:b5, 2015-01-01 00:54:49.120,-0.013,0.014,0.996,-0.244,-0.427,0.183, , , , , , ,0.813,0.758,-105.974
 13:10:17.282,eb:33:2e:f9:57:b5, 2015-01-01 00:54:49.120,-0.013,0.013,0.996,-0.305,-0.366,0.183, , , , , , ,0.813,0.758,-105.974
 13:10:17.326,eb:33:2e:f9:57:b5, 2015-01-01 00:54:49.120,-0.013,0.013,0.996,-0.244,-0.366,0.122, , , , , , ,0.813,0.758,-105.974
 13:10:17.326,eb:33:2e:f9:57:b5, 2015-01-01 00:54:49.120,-0.013,0.013,0.997,-0.305,-0.366,0.061, , , , , , ,0.813,0.758,-105.974
 13:10:17.326,eb:33:2e:f9:57:b5, 2015-01-01 00:54:49.120,-0.012,0.013,0.997,-0.366,-0.366,0.061, , , , , , ,0.813,0.758,-105.974
 13:10:17.326,eb:33:2e:f9:57:b5, 2015-01-01 00:54:49.120,-0.012,0.013,0.996,-0.366,-0.305,0.061, , , , , , ,0.813,0.758,-105.974
 13:10:17.326,eb:33:2e:f9:57:b5, 2015-01-01 00:54:49.120,-0.013,0.012,0.997,-0.427,-0.305,0.061, , , , , , ,0.813,0.758,-105.974
 13:10:17.326,eb:33:2e:f9:57:b5, 2015-01-01 00:54:49.120,-0.011,0.012,0.997,-0.427,-0.366,0.122, , , , , , ,0.813,0.758,-105.974
 13:10:17.326,eb:33:2e:f9:57:b5, 2015-01-01 00:54:49.120,-0.013,0.012,0.997,-0.427,-0.366,0.122, , , , , , ,0.813,0.758,-105.974
 13:10:17.327,eb:33:2e:f9:57:b5, 2015-01-01 00:54:49.120,-0.012,0.012,0.996,-0.427,-0.366,0.061, , , , , , ,0.813,0.758,-105.974
 13:10:17.372,eb:33:2e:f9:57:b5, 2015-01-01 00:54:49.120,-0.012,0.012,0.996,-0.427,-0.366,0.061, , , , , , ,0.813,0.758,-105.974
 13:10:17.372,eb:33:2e:f9:57:b5, 2015-01-01 00:54:49.120,-0.012,0.012,0.997,-0.366,-0.366,0.061, , , , , , ,0.813,0.758,-105.974
 13:10:17.372,eb:33:2e:f9:57:b5, 2015-01-01 00:54:49.120,-0.011,0.012,0.998,-0.366,-0.427,0, , , , , , ,0.813,0.758,-105.974
 13:10:17.372,eb:33:2e:f9:57:b5, 2015-01-01 00:54:49.120,-0.011,0.012,0.997,-0.366,-0.305,0.061, , , , , , ,0.813,0.758,-105.974
 13:10:17.372,eb:33:2e:f9:57:b5, 2015-01-01 00:54:49.120,-0.01,0.011,0.997,-0.366,-0.305,0.122, , , , , , ,0.813,0.758,-105.974
 13:10:17.372,eb:33:2e:f9:57:b5, 2015-01-01 00:54:49.120,-0.012,0.011,0.999,-0.366,-0.122,0.061, , , , , , ,0.813,0.753,-105.974
 13:10:17.372,eb:33:2e:f9:57:b5, 2015-01-01 00:54:49.120,-0.007,0.013,0.997,-0.427,-0.122,0, , , , , , ,0.813,0.753,-105.974
 13:10:17.372,eb:33:2e:f9:57:b5, 2015-01-01 00:54:49.120,-0.006,0.015,1.002,-0.427,0.122,-0.122, , , , , , ,0.813,0.753,-105.974
 13:10:17.417,eb:33:2e:f9:57:b5, 2015-01-01 00:54:49.120,-0.016,0.012,1.002,-0.427,0.488,-0.122, , , , , , ,0.813,0.753,-105.974
 13:10:17.417,eb:33:2e:f9:57:b5, 2015-01-01 00:54:49.120,-0.021,0.008,0.996,-0.366,0.183,0.061, , , , , , ,0.813,0.753,-105.974
 13:10:17.417,eb:33:2e:f9:57:b5, 2015-01-01 00:54:49.120,-0.014,0.011,0.99,-0.305,-0.366,0.061, , , , , , ,0.813,0.753,-105.974
 13:10:17.417,eb:33:2e:f9:57:b5, 2015-01-01 00:54:49.120,-0.007,0.011,0.997,-0.244,-0.549,0, , , , , , ,0.813,0.753,-105.974
 13:10:17.417,eb:33:2e:f9:57:b5, 2015-01-01 00:54:49.120,-0.008,0.012,1.002,-0.305,-0.183,0, , , , , , ,0.813,0.753,-105.974
 13:10:17.417,eb:33:2e:f9:57:b5, 2015-01-01 00:54:49.120,-0.012,0.012,1.001,-0.305,0,0, , , , , , ,0.813,0.753,-105.974
 13:10:17.417,eb:33:2e:f9:57:b5, 2015-01-01 00:54:49.120,-0.012,0.011,0.999,-0.244,0.122,0, , , , , , ,0.813,0.753,-105.974
 13:10:17.417,eb:33:2e:f9:57:b5, 2015-01-01 00:54:49.120,-0.011,0.011,0.999,-0.183,0.122,-0.061, , , , , , ,0.813,0.753,-105.974
 13:10:17.462,eb:33:2e:f9:57:b5, 2015-01-01 00:54:49.120,-0.009,0.011,0.999,-0.244,0.305,-0.061, , , , , , ,0.813,0.753,-105.974
 13:10:17.462,eb:33:2e:f9:57:b5, 2015-01-01 00:54:49.120,-0.009,0.012,1,-0.244,0.427,-0.061, , , , , , ,0.807,0.753,-105.974
 13:10:17.462,eb:33:2e:f9:57:b5, 2015-01-01 00:54:49.120,-0.011,0.011,1,-0.183,0.61,-0.122, , , , , , ,0.807,0.753,-105.974
 13:10:17.462,eb:33:2e:f9:57:b5, 2015-01-01 00:54:49.120,-0.012,0.011,0.998,-0.061,0.671,-0.122, , , , , , ,0.807,0.753,-105.974
 13:10:17.462,eb:33:2e:f9:57:b5, 2015-01-01 00:54:49.120,-0.012,0.011,0.998,-0.061,0.61,-0.122, , , , , , ,0.807,0.753,-105.974
 13:10:17.462,eb:33:2e:f9:57:b5, 2015-01-01 00:54:49.120,-0.011,0.012,0.998,-0.061,0.732,-0.183, , , , , , ,0.807,0.753,-105.974
 13:10:17.462,eb:33:2e:f9:57:b5, 2015-01-01 00:54:49.120,-0.012,0.011,0.998,-0.122,0.793,-0.183, , , , , , ,0.807,0.753,-105.974
 13:10:17.462,eb:33:2e:f9:57:b5, 2015-01-01 00:54:49.120,-0.012,0.011,0.998,-0.122,0.854,-0.183, , , , , , ,0.807,0.753,-105.974
 13:10:17.484,eb:33:2e:f9:57:b5, 2015-01-01 00:54:49.120,-0.013,0.011,0.997,-0.122,0.854,-0.183, , , , , , ,0.807,0.753,-105.974
 13:10:17.484,eb:33:2e:f9:57:b5, 2015-01-01 00:54:49.120,-0.012,0.012,0.998,-0.061,0.854,-0.183, , , , , , ,0.807,0.753,-105.974
 13:10:17.484,eb:33:2e:f9:57:b5, 2015-01-01 00:54:49.120,-0.012,0.011,0.997,-0.061,0.854,-0.183, , , , , , ,0.807,0.753,-105.974
 13:10:17.484,eb:33:2e:f9:57:b5, 2015-01-01 00:54:49.120,-0.012,0.011,0.997,-0.122,0.854,-0.244, , , , , , ,0.807,0.753,-105.974
 13:10:17.484,eb:33:2e:f9:57:b5, 2015-01-01 00:54:49.120,-0.012,0.011,0.998,-0.122,0.916,-0.244, , , , , , ,0.807,0.753,-105.974
 13:10:17.484,eb:33:2e:f9:57:b5, 2015-01-01 00:54:49.120,-0.013,0.012,0.997,-0.061,0.916,-0.244, , , , , , ,0.807,0.753,-105.974
 13:10:17.484,eb:33:2e:f9:57:b5, 2015-01-01 00:54:49.120,-0.013,0.011,0.996,-0.122,0.916,-0.183, , , , , , ,0.807,0.753,-105.974
 13:10:17.486,eb:33:2e:f9:57:b5, 2015-01-01 00:54:49.120,-0.014,0.011,0.996,-0.122,0.854,-0.244, , , , , , ,0.807,0.753,-105.974
 13:10:17.529,eb:33:2e:f9:57:b5, 2015-01-01 00:54:49.120,-0.013,0.011,0.996,-0.061,0.793,-0.244, , , , , , ,0.807,0.753,-105.974
 13:10:17.529,eb:33:2e:f9:57:b5, 2015-01-01 00:54:49.120,-0.013,0.011,0.996,-0.122,0.671,-0.183, , , , , , ,0.807,0.753,-105.974
 13:10:17.529,eb:33:2e:f9:57:b5, 2015-01-01 00:54:49.120,-0.013,0.011,0.996,-0.061,0.732,-0.183, , , , , , ,0.807,0.753,-105.974
 13:10:17.529,eb:33:2e:f9:57:b5, 2015-01-01 00:54:49.120,-0.013,0.011,0.997,-0.061,0.793,-0.183, , , , , , ,0.807,0.753,-105.974
 13:10:17.529,eb:33:2e:f9:57:b5, 2015-01-01 00:54:49.120,-0.015,0.011,0.998,-0.122,0.732,-0.122, , , , , , ,0.807,0.753,-105.974
 13:10:17.529,eb:33:2e:f9:57:b5, 2015-01-01 00:54:49.120,-0.013,0.011,0.996,-0.122,0.671,-0.183, , , , , , ,0.807,0.753,-105.974
 13:10:17.529,eb:33:2e:f9:57:b5, 2015-01-01 00:54:49.120,-0.012,0.012,0.997,-0.122,0.671,-0.305, , , , , , ,0.807,0.753,-105.974
 13:10:17.529,eb:33:2e:f9:57:b5, 2015-01-01 00:54:49.120,-0.012,0.012,0.998,-0.061,0.732,-0.244, , , , , , ,0.807,0.753,-105.974
 13:10:17.575,eb:33:2e:f9:57:b5, 2015-01-01 00:54:49.410,-0.015,0.011,0.999,-0.061,0.854,-0.183, , , , , , ,0.807,0.753,-105.974
 13:10:17.575,eb:33:2e:f9:57:b5, 2015-01-01 00:54:49.410,-0.017,0.01,0.997,0,0.732,-0.122, , , , , , ,0.807,0.753,-105.974
 13:10:17.575,eb:33:2e:f9:57:b5, 2015-01-01 00:54:49.410,-0.013,0.011,0.996,0,0.61,-0.244, , , , , , ,0.807,0.753,-105.974
 13:10:17.575,eb:33:2e:f9:57:b5, 2015-01-01 00:54:49.410,-0.013,0.011,0.998,0,0.671,-0.183, , , , , , ,0.807,0.753,-105.974
 13:10:17.575,eb:33:2e:f9:57:b5, 2015-01-01 00:54:49.410,-0.015,0.01,0.998,0,0.671,-0.183, , , , , , ,0.807,0.753,-105.974
 13:10:17.575,eb:33:2e:f9:57:b5, 2015-01-01 00:54:49.410,-0.018,0.009,0.997,0.061,0.549,-0.183, , , , , , ,0.802,0.753,-105.974
 13:10:17.575,eb:33:2e:f9:57:b5, 2015-01-01 00:54:49.410,-0.017,0.01,0.995,0.122,0.244,-0.122, , , , , , ,0.802,0.753,-105.974
 13:10:17.575,eb:33:2e:f9:57:b5, 2015-01-01 00:54:49.410,-0.016,0.01,0.995,0.122,0.061,-0.122, , , , , , ,0.802,0.753,-105.974
 13:10:17.618,eb:33:2e:f9:57:b5, 2015-01-01 00:54:49.410,-0.016,0.009,0.995,0.183,0,-0.061, , , , , , ,0.802,0.753,-105.974
 13:10:17.618,eb:33:2e:f9:57:b5, 2015-01-01 00:54:49.410,-0.013,0.011,0.995,0.183,-0.244,-0.122, , , , , , ,0.802,0.753,-105.974
 13:10:17.618,eb:33:2e:f9:57:b5, 2015-01-01 00:54:49.410,-0.014,0.011,0.998,0.244,-0.122,-0.122, , , , , , ,0.802,0.753,-105.974
 13:10:17.618,eb:33:2e:f9:57:b5, 2015-01-01 00:54:49.410,-0.015,0.011,0.998,0.244,-0.122,-0.061, , , , , , ,0.802,0.753,-105.974
 13:10:17.618,eb:33:2e:f9:57:b5, 2015-01-01 00:54:49.410,-0.015,0.011,0.999,0.183,-0.061,-0.061, , , , , , ,0.802,0.753,-105.974
 13:10:17.618,eb:33:2e:f9:57:b5, 2015-01-01 00:54:49.410,-0.015,0.011,0.998,0.122,-0.122,-0.122, , , , , , ,0.802,0.753,-105.974
 13:10:17.618,eb:33:2e:f9:57:b5, 2015-01-01 00:54:49.410,-0.013,0.011,0.998,0.183,-0.061,-0.122, , , , , , ,0.802,0.753,-105.974
 13:10:17.618,eb:33:2e:f9:57:b5, 2015-01-01 00:54:49.410,-0.013,0.011,0.999,0.183,-0.061,-0.122, , , , , , ,0.802,0.753,-105.974
 13:10:17.664,eb:33:2e:f9:57:b5, 2015-01-01 00:54:49.410,-0.014,0.011,0.999,0.122,0,-0.122, , , , , , ,0.802,0.753,-105.974
 13:10:17.664,eb:33:2e:f9:57:b5, 2015-01-01 00:54:49.410,-0.014,0.011,0.997,0.061,0,-0.244, , , , , , ,0.802,0.753,-105.974
 13:10:17.664,eb:33:2e:f9:57:b5, 2015-01-01 00:54:49.410,-0.013,0.012,0.997,0.122,0,-0.183, , , , , , ,0.802,0.753,-105.974
 13:10:17.664,eb:33:2e:f9:57:b5, 2015-01-01 00:54:49.410,-0.013,0.012,0.998,0.122,0,-0.122, , , , , , ,0.802,0.753,-105.974
 13:10:17.664,eb:33:2e:f9:57:b5, 2015-01-01 00:54:49.410,-0.014,0.012,0.998,0.061,0.061,-0.183, , , , , , ,0.802,0.753,-105.974
 13:10:17.664,eb:33:2e:f9:57:b5, 2015-01-01 00:54:49.410,-0.015,0.011,0.998,0,0.122,-0.122, , , , , , ,0.802,0.753,-105.974
 13:10:17.664,eb:33:2e:f9:57:b5, 2015-01-01 00:54:49.410,-0.012,0.008,0.997,0.061,0.061,-0.061, , , , , , ,0.802,0.753,-105.974
 13:10:17.664,eb:33:2e:f9:57:b5, 2015-01-01 00:54:49.410,-0.015,0.014,0.999,0,0.122,-0.122, , , , , , ,0.802,0.753,-105.974
 13:10:17.687,eb:33:2e:f9:57:b5, 2015-01-01 00:54:49.410,-0.014,0.012,0.997,0,0.122,-0.122, , , , , , ,0.802,0.753,-105.974
 13:10:17.687,eb:33:2e:f9:57:b5, 2015-01-01 00:54:49.410,-0.015,0.011,0.997,-0.061,0.122,-0.122, , , , , , ,0.802,0.753,-105.974
 13:10:17.687,eb:33:2e:f9:57:b5, 2015-01-01 00:54:49.410,-0.015,0.011,0.998,-0.061,0.183,-0.122, , , , , , ,0.802,0.753,-105.974
 13:10:17.687,eb:33:2e:f9:57:b5, 2015-01-01 00:54:49.410,-0.015,0.01,0.997,0,0.061,-0.061, , , , , , ,0.802,0.753,-105.974
 13:10:17.687,eb:33:2e:f9:57:b5, 2015-01-01 00:54:49.410,-0.015,0.012,0.998,0,0.061,-0.061, , , , , , ,0.802,0.753,-105.974
 13:10:17.687,eb:33:2e:f9:57:b5, 2015-01-01 00:54:49.410,-0.015,0.011,0.996,0,0,-0.122, , , , , , ,0.797,0.753,-105.974
 13:10:17.687,eb:33:2e:f9:57:b5, 2015-01-01 00:54:49.410,-0.015,0.01,0.996,-0.061,0,-0.061, , , , , , ,0.797,0.753,-105.974
 13:10:17.687,eb:33:2e:f9:57:b5, 2015-01-01 00:54:49.410,-0.013,0.007,0.997,0.061,0,0, , , , , , ,0.797,0.753,-105.974
 13:10:17.732,eb:33:2e:f9:57:b5, 2015-01-01 00:54:49.410,-0.015,0.012,0.998,0,0,0, , , , , , ,0.797,0.753,-105.974
 13:10:17.732,eb:33:2e:f9:57:b5, 2015-01-01 00:54:49.410,-0.015,0.012,0.997,0,0.061,-0.061, , , , , , ,0.797,0.753,-105.98
 13:10:17.732,eb:33:2e:f9:57:b5, 2015-01-01 00:54:49.410,-0.016,0.011,0.997,0,0,0, , , , , , ,0.797,0.753,-105.98
 13:10:17.732,eb:33:2e:f9:57:b5, 2015-01-01 00:54:49.410,-0.012,0.005,0.997,0.122,-0.061,0, , , , , , ,0.797,0.753,-105.98
 13:10:17.732,eb:33:2e:f9:57:b5, 2015-01-01 00:54:49.410,-0.014,0.013,1,0.122,0,0, , , , , , ,0.797,0.753,-105.98
