Time,Device name,Chip Time(),Acceleration X(g),Acceleration Y(g),Acceleration Z(g),Angular velocity X(°/s),Angular velocity Y(°/s),Angular velocity Z(°/s),ShiftX(mm),ShiftY(mm),ShiftZ(mm),SpeedX(mm/s),SpeedY(mm/s),SpeedZ(mm/s),Angle X(°),Angle Y(°),Angle Z(°)
 13:25:32.810,eb:33:2e:f9:57:b5, 2015-01-01 01:09:57.670,0.043,0.27,1.533,-32.043,17.212,-7.019, , , , , , ,23.011,10.8,-159.082
 13:25:32.810,eb:33:2e:f9:57:b5, 2015-01-01 01:09:57.670,0.053,0.377,1.688,-26.611,34.18,-3.296, , , , , , ,22.879,10.937,-159.049
 13:25:32.810,eb:33:2e:f9:57:b5, 2015-01-01 01:09:57.670,0.082,0.323,1.774,-19.958,44.739,-1.709, , , , , , ,22.764,11.135,-158.928
 13:25:32.810,eb:33:2e:f9:57:b5, 2015-01-01 01:09:57.670,0.009,0.257,1.798,-11.902,53.711,-0.427, , , , , , ,22.703,11.371,-158.829
 13:25:32.810,eb:33:2e:f9:57:b5, 2015-01-01 01:09:57.670,-0.083,0.246,1.636,-2.197,53.711,-1.465, , , , , , ,22.698,11.624,-158.73
 13:25:32.810,eb:33:2e:f9:57:b5, 2015-01-01 01:09:57.670,-0.136,0.238,1.414,6.47,52.429,-2.197, , , , , , ,22.731,11.871,-158.632
 13:25:32.810,eb:33:2e:f9:57:b5, 2015-01-01 01:09:57.670,-0.235,0.236,1.126,14.404,52.551,-1.77, , , , , , ,22.797,12.112,-158.483
 13:25:32.811,eb:33:2e:f9:57:b5, 2015-01-01 01:09:57.670,-0.311,0.343,0.883,17.7,54.321,-2.502, , , , , , ,22.901,12.371,-158.39
 13:25:32.831,eb:33:2e:f9:57:b5, 2015-01-01 01:09:57.670,-0.358,0.435,0.707,18.066,53.955,-1.526, , , , , , ,23.016,12.623,-158.291
 13:25:32.831,eb:33:2e:f9:57:b5, 2015-01-01 01:09:57.670,-0.499,0.425,0.515,19.958,47.791,-1.648, , , , , , ,23.132,12.849,-158.203
 13:25:32.831,eb:33:2e:f9:57:b5, 2015-01-01 01:09:57.670,-0.534,0.371,0.526,23.193,44.617,-5.188, , , , , , ,23.242,13.085,-158.066
 13:25:32.831,eb:33:2e:f9:57:b5, 2015-01-01 01:09:57.670,-0.48,0.324,0.406,26.001,29.114,-4.944, , , , , , ,23.379,13.26,-158.016
 13:25:32.831,eb:33:2e:f9:57:b5, 2015-01-01 01:09:57.670,-0.356,0.353,0.455,26.672,15.869,-4.761, , , , , , ,23.522,13.365,-157.994
 13:25:32.831,eb:33:2e:f9:57:b5, 2015-01-01 01:09:57.670,-0.191,0.42,0.518,23.193,11.78,-4.211, , , , , , ,23.643,13.431,-157.989
 13:25:32.831,eb:33:2e:f9:57:b5, 2015-01-01 01:09:57.670,-0.09,0.489,0.616,17.517,18.677,-3.235, , , , , , ,23.736,13.513,-157.912
 13:25:32.831,eb:33:2e:f9:57:b5, 2015-01-01 01:09:57.670,-0.011,0.549,0.757,10.376,33.447,-2.869, , , , , , ,23.813,13.645,-157.874
 13:25:32.855,eb:33:2e:f9:57:b5, 2015-01-01 01:09:58.050,0.037,0.559,0.835,2.563,52.734,-1.831, , , , , , ,23.862,13.848,-157.786
 13:25:32.855,eb:33:2e:f9:57:b5, 2015-01-01 01:09:58.050,0.017,0.542,0.934,-5.127,74.89,-0.671, , , , , , ,23.884,14.156,-157.654
 13:25:32.855,eb:33:2e:f9:57:b5, 2015-01-01 01:09:58.050,-0.061,0.52,0.969,-11.902,95.215,-1.404, , , , , , ,23.868,14.562,-157.412
 13:25:32.855,eb:33:2e:f9:57:b5, 2015-01-01 01:09:58.050,-0.175,0.501,0.958,-16.174,108.826,-2.869, , , , , , ,23.846,15.046,-157.209
 13:25:32.855,eb:33:2e:f9:57:b5, 2015-01-01 01:09:58.050,-0.298,0.454,0.879,-17.273,112.305,-3.662, , , , , , ,23.824,15.562,-156.989
 13:25:32.855,eb:33:2e:f9:57:b5, 2015-01-01 01:09:58.050,-0.374,0.42,0.785,-16.785,108.337,-5.737, , , , , , ,23.791,16.078,-156.78
 13:25:32.855,eb:33:2e:f9:57:b5, 2015-01-01 01:09:58.050,-0.435,0.386,0.707,-16.174,100.159,-7.08, , , , , , ,23.752,16.567,-156.533
 13:25:32.856,eb:33:2e:f9:57:b5, 2015-01-01 01:09:58.050,-0.439,0.382,0.614,-17.029,89.783,-8.423, , , , , , ,23.714,17.018,-156.374
 13:25:32.856,eb:33:2e:f9:57:b5, 2015-01-01 01:09:58.050,-0.399,0.41,0.528,-19.592,83.008,-8.911, , , , , , ,23.665,17.424,-156.237
 13:25:32.856,eb:33:2e:f9:57:b5, 2015-01-01 01:09:58.050,-0.355,0.436,0.468,-23.621,80.811,-9.46, , , , , , ,23.593,17.82,-156.105
 13:25:32.856,eb:33:2e:f9:57:b5, 2015-01-01 01:09:58.050,-0.294,0.465,0.448,-28.625,78.674,-10.01, , , , , , ,23.489,18.21,-155.929
 13:25:32.856,eb:33:2e:f9:57:b5, 2015-01-01 01:09:58.050,-0.234,0.481,0.592,-34.729,83.496,-12.146, , , , , , ,23.362,18.6,-155.814
 13:25:32.856,eb:33:2e:f9:57:b5, 2015-01-01 01:09:58.050,-0.214,0.525,0.469,-41.199,82.703,-14.404, , , , , , ,23.209,19.012,-155.698
 13:25:32.856,eb:33:2e:f9:57:b5, 2015-01-01 01:09:58.050,-0.292,0.583,0.312,-47.913,74.646,-20.447, , , , , , ,23.005,19.413,-155.621
 13:25:32.856,eb:33:2e:f9:57:b5, 2015-01-01 01:09:58.050,-0.742,1.206,-1.293,-31.86,-45.532,-46.57, , , , , , ,22.72,19.622,-155.687
 13:25:32.856,eb:33:2e:f9:57:b5, 2015-01-01 01:09:58.050,-0.297,-0.407,3.538,-47.302,84.229,-24.963, , , , , , ,22.505,19.929,-155.709
 13:25:33.216,eb:33:2e:f9:57:b5, 2015-01-01 01:09:58.050,-0.547,0.062,1.146,-35.339,77.759,-14.832, , , , , , ,22.324,20.336,-155.649
 13:25:33.216,eb:33:2e:f9:57:b5, 2015-01-01 01:09:58.050,-0.441,0.332,1.164,-33.203,60.486,-19.958, , , , , , ,22.17,20.671,-155.61
 13:25:33.216,eb:33:2e:f9:57:b5, 2015-01-01 01:09:58.050,-0.534,0.271,1.031,-24.414,39.612,-20.142, , , , , , ,22.022,20.923,-155.572
 13:25:33.216,eb:33:2e:f9:57:b5, 2015-01-01 01:09:58.050,-0.581,0.215,1.2,-12.085,21.301,-18.738, , , , , , ,21.918,21.083,-155.616
 13:25:33.216,eb:33:2e:f9:57:b5, 2015-01-01 01:09:58.050,-0.578,0.193,1.31,-4.15,15.625,-16.174, , , , , , ,21.868,21.204,-155.66
 13:25:33.216,eb:33:2e:f9:57:b5, 2015-01-01 01:09:58.050,-0.526,0.178,1.333,4.395,7.08,-12.756, , , , , , ,21.857,21.275,-155.709
 13:25:33.216,eb:33:2e:f9:57:b5, 2015-01-01 01:09:58.050,-0.488,0.236,1.217,12.085,-3.967,-10.986, , , , , , ,21.874,21.302,-155.715
 13:25:33.216,eb:33:2e:f9:57:b5, 2015-01-01 01:09:58.050,-0.456,0.283,1.211,19.165,-14.709,-11.353, , , , , , ,21.929,21.275,-155.797
 13:25:33.218,eb:33:2e:f9:57:b5, 2015-01-01 01:09:58.050,-0.449,0.3,1.231,26.733,-24.231,-12.451, , , , , , ,22.011,21.198,-155.891
 13:25:33.218,eb:33:2e:f9:57:b5, 2015-01-01 01:09:58.050,-0.462,0.316,1.276,35.583,-32.959,-15.503, , , , , , ,22.126,21.088,-156.022
 13:25:33.218,eb:33:2e:f9:57:b5, 2015-01-01 01:09:58.050,-0.421,0.33,1.31,46.326,-42.786,-19.775, , , , , , ,22.264,20.951,-156.132
 13:25:33.218,eb:33:2e:f9:57:b5, 2015-01-01 01:09:58.050,-0.444,0.296,1.299,58.167,-61.218,-20.325, , , , , , ,22.462,20.726,-156.346
 13:25:33.218,eb:33:2e:f9:57:b5, 2015-01-01 01:09:58.050,-0.393,0.264,1.444,69.214,-73.975,-21.667, , , , , , ,22.698,20.462,-156.588
 13:25:33.218,eb:33:2e:f9:57:b5, 2015-01-01 01:09:58.050,-0.383,0.259,1.651,81.238,-85.266,-20.874, , , , , , ,22.983,20.138,-156.852
 13:25:33.218,eb:33:2e:f9:57:b5, 2015-01-01 01:09:58.050,-0.28,0.234,1.786,93.018,-89.966,-20.508, , , , , , ,23.318,19.786,-157.072
 13:25:33.218,eb:33:2e:f9:57:b5, 2015-01-01 01:09:58.050,-0.2,0.391,1.793,112.366,-103.76,-21.362, , , , , , ,23.73,19.374,-157.385
 13:25:33.305,eb:33:2e:f9:57:b5, 2015-01-01 01:09:58.050,0.292,0.351,1.964,126.099,-103.027,-22.4, , , , , , ,24.23,18.957,-157.703
 13:25:33.305,eb:33:2e:f9:57:b5, 2015-01-01 01:09:58.050,-0.032,1.071,3.359,178.162,-53.772,-48.523, , , , , , ,24.89,18.611,-158.071
 13:25:33.305,eb:33:2e:f9:57:b5, 2015-01-01 01:09:58.050,-0.499,-0.175,2.196,178.345,-4.15,-31.311, , , , , , ,25.692,18.732,-158.11
 13:25:33.305,eb:33:2e:f9:57:b5, 2015-01-01 01:09:58.050,0.419,-2.373,8.846,177.185,279.236,42.603, , , , , , ,26.796,19.336,-157.78
 13:25:33.305,eb:33:2e:f9:57:b5, 2015-01-01 01:09:58.050,0.775,0.684,1.273,225.342,182.922,17.09, , , , , , ,28.004,20.292,-157.088
 13:25:33.305,eb:33:2e:f9:57:b5, 2015-01-01 01:09:58.050,0.93,0.663,0.996,279.175,73.425,-5.859, , , , , , ,29.416,20.792,-156.764
 13:25:33.305,eb:33:2e:f9:57:b5, 2015-01-01 01:09:58.050,1.33,0.323,3.577,309.814,95.581,-17.822, , , , , , ,30.959,21.182,-156.522
 13:25:33.305,eb:33:2e:f9:57:b5, 2015-01-01 01:09:58.050,1.811,0.31,3.719,340.881,131.653,-23.926, , , , , , ,32.69,21.758,-156.27
 13:25:33.349,eb:33:2e:f9:57:b5, 2015-01-01 01:09:58.050,2.2,0.947,3.965,368.713,154.053,-43.213, , , , , , ,34.574,22.445,-156.017
 13:25:33.349,eb:33:2e:f9:57:b5, 2015-01-01 01:09:58.050,2.07,1.242,4.518,383.484,222.107,-59.204, , , , , , ,36.617,23.39,-155.643
 13:25:33.349,eb:33:2e:f9:57:b5, 2015-01-01 01:09:58.050,2.097,1.832,4.637,364.38,309.998,-76.538, , , , , , ,38.743,24.675,-154.935
 13:25:33.349,eb:33:2e:f9:57:b5, 2015-01-01 01:09:58.050,2.294,2.317,3.838,336.609,371.094,-80.566, , , , , , ,40.869,26.285,-154.017
 13:25:33.349,eb:33:2e:f9:57:b5, 2015-01-01 01:09:58.050,1.77,3.272,1.285,308.35,300.842,-104.919, , , , , , ,42.869,27.839,-153.149
 13:25:33.349,eb:33:2e:f9:57:b5, 2015-01-01 01:09:58.050,1.304,4.476,0.577,295.288,195.129,-164.551, , , , , , ,44.528,29.163,-152.814
 13:25:33.350,eb:33:2e:f9:57:b5, 2015-01-01 01:09:58.050,-0.221,4.88,0.667,281.738,128.357,-200.562, , , , , , ,45.906,30.355,-152.847
 13:25:33.350,eb:33:2e:f9:57:b5, 2015-01-01 01:09:58.050,-1.223,5.312,2.396,285.767,114.38,-238.342, , , , , , ,47.082,31.569,-153.325
 13:25:33.352,eb:33:2e:f9:57:b5, 2015-01-01 01:09:58.050,-1.149,3.415,4.815,303.528,291.687,-163.269, , , , , , ,48.647,33.008,-153.221
 13:25:33.352,eb:33:2e:f9:57:b5, 2015-01-01 01:09:58.050,-1.176,-1.076,4.863,305.237,550.598,53.955, , , , , , ,51.224,34.557,-151.342
 13:25:33.352,eb:33:2e:f9:57:b5, 2015-01-01 01:09:58.050,1.229,-2.375,4.629,324.768,757.446,320.618, , , , , , ,55.162,35.695,-147.167
 13:25:33.352,eb:33:2e:f9:57:b5, 2015-01-01 01:09:58.050,3.179,1.508,3.088,345.154,786.987,454.407, , , , , , ,60.123,36.09,-141.625
 13:25:33.352,eb:33:2e:f9:57:b5, 2015-01-01 01:09:58.050,3.939,3.069,2.728,368.591,722.473,470.337, , , , , , ,65.072,35.706,-136.241
 13:25:33.352,eb:33:2e:f9:57:b5, 2015-01-01 01:09:58.050,3.854,5.006,2.402,435.425,612.854,350.952, , , , , , ,69.857,35.085,-131.495
 13:25:33.352,eb:33:2e:f9:57:b5, 2015-01-01 01:09:58.050,3.094,6.615,1.914,465.271,457.886,190.369, , , , , , ,74.152,34.678,-127.908
 13:25:33.352,eb:33:2e:f9:57:b5, 2015-01-01 01:09:58.050,2.717,6.204,1.859,450.439,292.053,21.362, , , , , , ,77.723,34.689,-125.678
 13:25:33.353,eb:33:2e:f9:57:b5, 2015-01-01 01:09:58.050,2.379,4.872,3.049,395.081,184.326,-119.934, , , , , , ,80.513,35.2,-124.492
 13:25:33.353,eb:33:2e:f9:57:b5, 2015-01-01 01:09:58.050,2.218,0.158,1.103,-625.061,-324.402,130.249, , , , , , ,41.66,23.34,-114.285
 13:25:33.353,eb:33:2e:f9:57:b5, 2015-01-01 01:09:58.050,2.121,0.344,0.83,-614.38,-341.98,138.306, , , , , , ,38.326,21.627,-114.873
 13:25:33.353,eb:33:2e:f9:57:b5, 2015-01-01 01:09:58.050,1.95,0.747,0.6,-588.928,-364.563,151.306, , , , , , ,35.145,19.77,-115.378
 13:25:33.353,eb:33:2e:f9:57:b5, 2015-01-01 01:09:58.050,1.643,1.321,0.47,-552.002,-393.616,165.71, , , , , , ,32.13,17.699,-115.845
 13:25:33.353,eb:33:2e:f9:57:b5, 2015-01-01 01:09:58.050,1.053,2.033,0.445,-505.31,-419.189,177.49, , , , , , ,29.416,15.513,-116.158
 13:25:33.353,eb:33:2e:f9:57:b5, 2015-01-01 01:09:58.050,0.671,2.691,0.205,-453.308,-467.651,181.763, , , , , , ,26.982,13.101,-116.417
 13:25:33.354,eb:33:2e:f9:57:b5, 2015-01-01 01:09:58.050,0.102,3.338,0.617,-416.443,-484.436,184.631, , , , , , ,24.785,10.547,-116.636
 13:25:33.356,eb:33:2e:f9:57:b5, 2015-01-01 01:09:58.050,-0.462,4.072,1.06,-389.16,-474.487,179.626, , , , , , ,22.725,7.938,-116.818
 13:25:33.356,eb:33:2e:f9:57:b5, 2015-01-01 01:09:58.050,-0.977,4.889,1.406,-367.798,-442.139,164.368, , , , , , ,20.841,5.504,-116.867
 13:25:33.356,eb:33:2e:f9:57:b5, 2015-01-01 01:09:58.050,-1.568,5.743,1.471,-348.145,-401.062,138.367, , , , , , ,19.061,3.285,-116.867
 13:25:33.356,eb:33:2e:f9:57:b5, 2015-01-01 01:09:58.050,-2.265,6.529,1.339,-322.144,-369.385,102.234, , , , , , ,17.391,1.291,-116.906
 13:25:33.356,eb:33:2e:f9:57:b5, 2015-01-01 01:09:58.050,-2.997,7.122,1.123,-285.278,-355.774,62.439, , , , , , ,15.859,-0.571,-117.076
 13:25:33.356,eb:33:2e:f9:57:b5, 2015-01-01 01:09:58.050,-3.746,7.517,1.16,-237,-347.351,23.56, , , , , , ,14.579,-2.318,-117.35
 13:25:33.356,eb:33:2e:f9:57:b5, 2015-01-01 01:09:58.050,-4.394,7.761,1.517,-180.908,-332.214,-11.047, , , , , , ,13.585,-3.972,-117.746
 13:25:33.356,eb:33:2e:f9:57:b5, 2015-01-01 01:09:58.050,-4.948,7.856,2.027,-119.446,-299.438,-39.124, , , , , , ,12.903,-5.466,-118.246
 13:25:33.356,eb:33:2e:f9:57:b5, 2015-01-01 01:09:58.050,-5.095,7.883,2.261,-58.167,-259.399,-65.43, , , , , , ,12.541,-6.779,-118.828
 13:25:33.356,eb:33:2e:f9:57:b5, 2015-01-01 01:09:58.050,-5.07,7.824,2.305,-6.409,-208.435,-91.187, , , , , , ,12.491,-7.806,-119.476
 13:25:33.356,eb:33:2e:f9:57:b5, 2015-01-01 01:09:58.050,-4.864,7.645,2.082,39.185,-173.706,-119.385, , , , , , ,12.706,-8.602,-120.207
 13:25:33.356,eb:33:2e:f9:57:b5, 2015-01-01 01:09:58.050,-4.733,7.168,1.905,81.238,-134.033,-152.344, , , , , , ,13.162,-9.179,-121.064
 13:25:33.356,eb:33:2e:f9:57:b5, 2015-01-01 01:09:58.050,-4.383,6.3,1.489,121.521,-107.544,-181.152, , , , , , ,13.854,-9.58,-122.042
 13:25:33.357,eb:33:2e:f9:57:b5, 2015-01-01 01:09:58.050,-4.023,5.234,1.011,151.55,-72.388,-202.148, , , , , , ,14.733,-9.761,-123.102
 13:25:33.357,eb:33:2e:f9:57:b5, 2015-01-01 01:09:58.050,-3.616,3.982,0.24,183.777,-56.458,-215.637, , , , , , ,15.776,-9.778,-124.206
 13:25:33.357,eb:33:2e:f9:57:b5, 2015-01-01 01:09:58.050,-3.217,2.717,-0.565,216.614,-61.462,-219.482, , , , , , ,16.985,-9.745,-125.354
 13:25:33.373,eb:33:2e:f9:57:b5, 2015-01-01 01:09:58.050,-2.827,1.469,-1.051,248.413,-77.82,-213.562, , , , , , ,18.369,-9.772,-126.508
 13:25:33.373,eb:33:2e:f9:57:b5, 2015-01-01 01:09:58.050,-3.018,0.164,-1.319,280.151,-93.506,-176.025, , , , , , ,19.896,-9.844,-127.606
 13:25:33.373,eb:33:2e:f9:57:b5, 2015-01-01 01:09:58.050,-2.186,8.169,-0.885,155.151,-419.128,-216.675, , , , , , ,21.385,-10.893,-128.842
 13:25:33.373,eb:33:2e:f9:57:b5, 2015-01-01 01:09:58.050,-4.569,2.516,11.176,-358.154,266.785,-9.033, , , , , , ,20.803,-11.113,-129.869
 13:25:33.373,eb:33:2e:f9:57:b5, 2015-01-01 01:09:58.050,2.116,6.651,9.588,-653.625,922.302,-27.649, , , , , , ,17.721,-7.531,-128.551
 13:25:33.373,eb:33:2e:f9:57:b5, 2015-01-01 01:09:58.050,0.323,4.689,-6.605,-527.588,345.581,-140.137, , , , , , ,14.672,-4.417,-128.09
 13:25:33.373,eb:33:2e:f9:57:b5, 2015-01-01 01:09:58.050,-1.171,-0.42,6.275,-450.562,354.126,-220.154, , , , , , ,12.255,-2.593,-128.765
 13:25:33.373,eb:33:2e:f9:57:b5, 2015-01-01 01:09:58.050,-1.295,-6.119,8.653,-354.187,613.586,-109.863, , , , , , ,10.316,0.115,-129.139
 13:25:33.462,eb:33:2e:f9:57:b5, 2015-01-01 01:09:58.050,-0.75,-1.42,-0.675,-227.356,257.996,-183.228, , , , , , ,8.932,2.302,-129.413
 13:25:33.462,eb:33:2e:f9:57:b5, 2015-01-01 01:09:58.050,-3.559,-2.718,6.282,-150.391,291.87,-91.614, , , , , , ,8.009,3.636,-129.952
 13:25:33.462,eb:33:2e:f9:57:b5, 2015-01-01 01:09:58.050,-2.167,-2.102,3.551,-31.738,161.987,-17.151, , , , , , ,7.592,4.845,-129.974
 13:25:33.462,eb:33:2e:f9:57:b5, 2015-01-01 01:09:58.050,-1.585,-2.443,3.499,52.246,98.267,51.025, , , , , , ,7.712,5.422,-129.776
 13:25:33.462,eb:33:2e:f9:57:b5, 2015-01-01 01:09:58.050,-0.475,-1.583,2.303,122.131,22.766,75.867, , , , , , ,8.234,5.63,-129.391
 13:25:33.462,eb:33:2e:f9:57:b5, 2015-01-01 01:09:58.050,0.751,-0.425,2.669,164.368,7.507,68.054, , , , , , ,9.025,5.603,-129.023
 13:25:33.462,eb:33:2e:f9:57:b5, 2015-01-01 01:09:58.050,1.643,0.456,2.719,176.453,57.068,63.721, , , , , , ,9.926,5.729,-128.644
 13:25:33.463,eb:33:2e:f9:57:b5, 2015-01-01 01:09:58.050,1.322,1.198,1.408,175.049,89.294,32.715, , , , , , ,10.838,6.075,-128.342
 13:25:33.465,eb:33:2e:f9:57:b5, 2015-01-01 01:09:58.050,0.648,1.001,0.854,162.903,117.188,2.808, , , , , , ,11.706,6.581,-128.167
 13:25:33.465,eb:33:2e:f9:57:b5, 2015-01-01 01:09:58.050,0.665,0.801,0.915,147.583,155.64,-14.648, , , , , , ,12.486,7.273,-128.062
 13:25:33.465,eb:33:2e:f9:57:b5, 2015-01-01 01:09:58.050,0.481,0.865,0.839,135.681,191.772,-24.048, , , , , , ,13.2,8.168,-127.941
 13:25:33.465,eb:33:2e:f9:57:b5, 2015-01-01 01:09:58.050,-0.054,0.54,0.955,129.272,217.285,-32.41, , , , , , ,13.87,9.212,-127.848
 13:25:33.465,eb:33:2e:f9:57:b5, 2015-01-01 01:09:58.050,-0.422,0.09,0.98,130.859,219.604,-33.264, , , , , , ,14.546,10.327,-127.727
 13:25:33.465,eb:33:2e:f9:57:b5, 2015-01-01 01:09:58.050,-0.601,-0.02,0.85,139.465,193.97,-34.79, , , , , , ,15.244,11.36,-127.628
 13:25:33.465,eb:33:2e:f9:57:b5, 2015-01-01 01:09:58.050,-0.482,-0.095,1.059,147.827,170.776,-30.029, , , , , , ,15.985,12.272,-127.518
 13:25:33.465,eb:33:2e:f9:57:b5, 2015-01-01 01:09:58.050,-0.523,-0.004,1.034,154.846,149.597,-25.574, , , , , , ,16.765,13.068,-127.425
 13:25:33.485,eb:33:2e:f9:57:b5, 2015-01-01 01:09:58.050,-0.651,-0.008,0.925,161.377,122.681,-23.987, , , , , , ,17.584,13.744,-127.343
 13:25:33.485,eb:33:2e:f9:57:b5, 2015-01-01 01:09:58.050,-0.82,-0.108,1.012,166.992,100.159,-17.578, , , , , , ,18.424,14.293,-127.266
 13:25:33.485,eb:33:2e:f9:57:b5, 2015-01-01 01:09:58.050,-0.853,-0.119,0.975,174.622,71.411,-9.277, , , , , , ,19.303,14.711,-127.167
 13:25:33.485,eb:33:2e:f9:57:b5, 2015-01-01 01:09:58.050,-0.651,-0.199,1.202,180.359,54.993,0.549, , , , , , ,20.215,14.996,-127.079
 13:25:33.485,eb:33:2e:f9:57:b5, 2015-01-01 01:09:58.050,-0.343,-0.112,1.226,185.242,43.091,7.08, , , , , , ,21.165,15.216,-126.969
 13:25:33.486,eb:33:2e:f9:57:b5, 2015-01-01 01:09:58.050,-0.24,0.107,1.24,191.772,31.006,7.935, , , , , , ,22.143,15.37,-126.859
 13:25:33.486,eb:33:2e:f9:57:b5, 2015-01-01 01:09:58.050,-0.406,0.201,1.416,198.73,19.531,6.165, , , , , , ,23.143,15.469,-126.749
 13:25:33.486,eb:33:2e:f9:57:b5, 2015-01-01 01:09:58.050,-0.321,0.018,1.746,210.999,11.292,8.972, , , , , , ,24.186,15.518,-126.689
 13:25:33.620,eb:33:2e:f9:57:b5, 2015-01-01 01:09:58.050,-0.12,-0.027,1.904,226.257,2.991,8.423, , , , , , ,25.307,15.529,-126.634
 13:25:33.620,eb:33:2e:f9:57:b5, 2015-01-01 01:09:58.050,-0.133,-0.094,2.26,245.3,1.038,9.521, , , , , , ,26.505,15.518,-126.584
 13:25:33.620,eb:33:2e:f9:57:b5, 2015-01-01 01:09:58.050,-0.025,-0.102,2.673,269.531,1.892,8.911, , , , , , ,27.812,15.502,-126.513
 13:25:33.620,eb:33:2e:f9:57:b5, 2015-01-01 01:09:58.050,0.244,-0.151,2.901,295.349,11.658,6.348, , , , , , ,29.251,15.518,-126.464
 13:25:33.620,eb:33:2e:f9:57:b5, 2015-01-01 01:09:58.050,0.512,-0.158,2.841,326.111,19.714,1.526, , , , , , ,30.839,15.579,-126.403
 13:25:33.620,eb:33:2e:f9:57:b5, 2015-01-01 01:09:58.050,0.847,0.104,3.082,362.122,23.132,-10.559, , , , , , ,32.585,15.688,-126.37
 13:25:33.620,eb:33:2e:f9:57:b5, 2015-01-01 01:09:58.050,0.818,-0.031,3.226,401.184,27.283,-31.128, , , , , , ,34.497,15.853,-126.37
 13:25:33.620,eb:33:2e:f9:57:b5, 2015-01-01 01:09:58.050,0.565,-0.281,3.784,452.026,35.095,-46.326, , , , , , ,36.634,16.106,-126.442
 13:25:33.664,eb:33:2e:f9:57:b5, 2015-01-01 01:09:58.810,0.848,-0.491,5.134,514.404,62.256,-58.228, , , , , , ,39.051,16.458,-126.524
 13:25:33.664,eb:33:2e:f9:57:b5, 2015-01-01 01:09:58.810,2.177,-0.773,6.511,583.313,133.118,-61.401, , , , , , ,41.863,17.045,-126.414
 13:25:33.664,eb:33:2e:f9:57:b5, 2015-01-01 01:09:58.810,3.477,0.494,6.449,660.889,179.81,-98.755, , , , , , ,45.099,17.924,-126.074
 13:25:33.664,eb:33:2e:f9:57:b5, 2015-01-01 01:09:58.810,4.265,1.379,6.764,741.089,172.913,-151.733, , , , , , ,48.719,19.001,-125.876
 13:25:33.664,eb:33:2e:f9:57:b5, 2015-01-01 01:09:58.810,4.964,3.233,6.311,794.983,92.529,-239.99, , , , , , ,52.564,20.204,-126.024
 13:25:33.665,eb:33:2e:f9:57:b5, 2015-01-01 01:09:58.810,3.81,4.802,5.224,786.194,15.564,-311.89, , , , , , ,56.272,21.511,-126.716
 13:25:33.665,eb:33:2e:f9:57:b5, 2015-01-01 01:09:58.810,2.794,6.266,2.082,759.46,-194.092,-378.235, , , , , , ,59.601,22.725,-128.117
 13:25:33.665,eb:33:2e:f9:57:b5, 2015-01-01 01:09:58.810,1.371,7.019,-0.457,646.118,-437.195,-432.617, , , , , , ,61.996,23.725,-130.875
 13:25:33.667,eb:33:2e:f9:57:b5, 2015-01-01 01:09:58.810,-1.626,4.656,0.721,455.811,-426.514,-454.163, , , , , , ,63.254,24.675,-134.313
 13:25:33.667,eb:33:2e:f9:57:b5, 2015-01-01 01:09:58.810,-4.672,-3.353,4.54,353.882,16.113,-143.86, , , , , , ,64.462,25.494,-136.022
 13:25:33.667,eb:33:2e:f9:57:b5, 2015-01-01 01:09:58.810,-1.816,-0.559,1.929,276.184,322.815,137.817, , , , , , ,66.555,25.763,-134.703
 13:25:33.667,eb:33:2e:f9:57:b5, 2015-01-01 01:09:58.810,1.409,0.044,6.767,283.264,637.939,306.396, , , , , , ,69.263,25.549,-131.556
 13:25:33.667,eb:33:2e:f9:57:b5, 2015-01-01 01:09:58.810,2.933,3.65,7.103,379.7,766.357,343.872, , , , , , ,72.867,25.126,-127.112
 13:25:33.667,eb:33:2e:f9:57:b5, 2015-01-01 01:09:58.810,3.17,5.694,5.196,482.178,657.41,289.307, , , , , , ,76.844,24.532,-122.893
 13:25:33.667,eb:33:2e:f9:57:b5, 2015-01-01 01:09:58.810,2.786,4.907,3.585,569.153,520.508,198.059, , , , , , ,80.914,23.934,-119.471
 13:25:33.667,eb:33:2e:f9:57:b5, 2015-01-01 01:09:58.810,2.712,4.546,2.054,611.328,308.594,61.707, , , , , , ,84.803,23.593,-117.252
 13:25:33.669,eb:33:2e:f9:57:b5, 2015-01-01 01:09:58.810,2.491,5.327,2.822,587.097,131.409,-90.698, , , , , , ,88.215,23.78,-116.263
 13:25:33.669,eb:33:2e:f9:57:b5, 2015-01-01 01:09:58.810,2.198,5.767,4.757,521.301,34.546,-242.554, , , , , , ,91.11,24.697,-115.9
 13:25:33.669,eb:33:2e:f9:57:b5, 2015-01-01 01:09:58.810,2.062,5.038,6.874,452.148,16.479,-368.408, , , , , , ,93.582,26.296,-115.664
 13:25:33.669,eb:33:2e:f9:57:b5, 2015-01-01 01:09:58.810,2.087,3.771,8.201,395.447,53.284,-460.022, , , , , , ,95.85,28.405,-115.258
 13:25:33.669,eb:33:2e:f9:57:b5, 2015-01-01 01:09:58.810,1.966,2.585,8.516,355.347,93.872,-517.7, , , , , , ,98.047,30.795,-114.56
 13:25:33.670,eb:33:2e:f9:57:b5, 2015-01-01 01:09:58.810,1.871,1.455,8.256,330.872,104.492,-544.861, , , , , , ,100.333,33.36,-113.456
 13:25:33.670,eb:33:2e:f9:57:b5, 2015-01-01 01:09:58.810,1.791,0.138,8.066,303.833,118.408,-538.757, , , , , , ,102.667,35.909,-112.066
 13:25:33.670,eb:33:2e:f9:57:b5, 2015-01-01 01:09:58.810,1.903,-1.092,7.719,263.794,148.987,-504.395, , , , , , ,105.046,38.271,-110.457
 13:25:33.709,eb:33:2e:f9:57:b5, 2015-01-01 01:09:58.810,1.991,-2.018,7.317,207.642,202.454,-443.97, , , , , , ,107.375,40.254,-108.616
 13:25:33.710,eb:33:2e:f9:57:b5, 2015-01-01 01:09:58.810,1.984,-2.558,6.628,149.292,244.385,-369.873, , , , , , ,109.742,41.786,-106.32
 13:25:33.710,eb:33:2e:f9:57:b5, 2015-01-01 01:09:58.810,2.051,-2.812,6.041,93.384,274.597,-303.589, , , , , , ,111.989,42.858,-103.766
 13:25:33.710,eb:33:2e:f9:57:b5, 2015-01-01 01:09:58.810,2.232,-2.882,5.555,61.951,264.832,-249.634, , , , , , ,114.033,43.55,-101.31
 13:25:33.710,eb:33:2e:f9:57:b5, 2015-01-01 01:09:58.810,2.352,-2.382,5.012,39.612,239.746,-204.773, , , , , , ,115.714,44,-99.234
 13:25:33.710,eb:33:2e:f9:57:b5, 2015-01-01 01:09:58.810,2.058,-3.256,4.937,21.973,231.689,-148.499, , , , , , ,117.241,44.247,-97.24
 13:25:33.710,eb:33:2e:f9:57:b5, 2015-01-01 01:09:58.810,1.803,-3.717,4.073,-5.005,227.844,-99.304, , , , , , ,118.559,44.253,-95.339
 13:25:33.710,eb:33:2e:f9:57:b5, 2015-01-01 01:09:58.810,2.043,-3.972,3.169,-46.509,211.609,-41.504, , , , , , ,119.52,44.028,-93.741
 13:25:33.731,eb:33:2e:f9:57:b5, 2015-01-01 01:09:58.810,1.777,-4.232,2.586,-99.182,206.726,22.583, , , , , , ,119.894,43.5,-92.648
 13:25:33.731,eb:33:2e:f9:57:b5, 2015-01-01 01:09:58.810,1.707,-4.812,1.915,-152.771,179.993,70.19, , , , , , ,119.905,42.803,-91.67
 13:25:33.731,eb:33:2e:f9:57:b5, 2015-01-01 01:09:58.810,1.626,-5.217,0.909,-209.9,140.381,121.643, , , , , , ,119.372,41.968,-91.005
 13:25:33.731,eb:33:2e:f9:57:b5, 2015-01-01 01:09:58.810,1.683,-5.626,-0.293,-276.917,101.685,160.095, , , , , , ,118.268,41.045,-90.797
 13:25:33.731,eb:33:2e:f9:57:b5, 2015-01-01 01:09:58.810,2.225,-5.981,-1.59,-356.934,54.993,182.678, , , , , , ,116.488,40.111,-91.033
 13:25:33.731,eb:33:2e:f9:57:b5, 2015-01-01 01:09:58.810,2.614,-5.915,-2.368,-452.698,33.569,199.646, , , , , , ,114.23,39.144,-91.318
 13:25:33.731,eb:33:2e:f9:57:b5, 2015-01-01 01:09:58.810,2.771,-5.521,-2.765,-552.673,-24.963,206.299, , , , , , ,111.352,38.188,-91.769
 13:25:33.731,eb:33:2e:f9:57:b5, 2015-01-01 01:09:58.810,2.656,-4.828,-2.481,-622.681,-84.229,194.58, , , , , , ,107.897,37.348,-92.554
 13:25:33.776,eb:33:2e:f9:57:b5, 2015-01-01 01:09:58.810,2.559,-4.284,-2.003,-680.176,-159.058,180.481, , , , , , ,103.876,36.628,-93.735
 13:25:33.776,eb:33:2e:f9:57:b5, 2015-01-01 01:09:58.810,2.603,-3.849,-0.995,-727.173,-220.947,167.725, , , , , , ,99.487,35.98,-95.164
 13:25:33.776,eb:33:2e:f9:57:b5, 2015-01-01 01:09:58.810,2.662,-3.513,0.286,-769.653,-243.774,156.982, , , , , , ,94.807,35.332,-96.685
 13:25:33.776,eb:33:2e:f9:57:b5, 2015-01-01 01:09:58.810,2.657,-3.178,1.303,-810.669,-242.676,141.602, , , , , , ,89.956,34.64,-98.218
 13:25:33.776,eb:33:2e:f9:57:b5, 2015-01-01 01:09:58.810,2.517,-2.919,1.797,-848.694,-239.258,124.268, , , , , , ,84.919,33.926,-99.712
 13:25:33.776,eb:33:2e:f9:57:b5, 2015-01-01 01:09:58.810,2.526,-2.712,1.954,-887.695,-255.249,106.018, , , , , , ,79.794,33.201,-101.096
 13:25:33.776,eb:33:2e:f9:57:b5, 2015-01-01 01:09:58.810,2.635,-2.474,2.348,-926.88,-280.518,88.013, , , , , , ,74.46,32.437,-102.491
 13:25:33.776,eb:33:2e:f9:57:b5, 2015-01-01 01:09:58.810,2.791,-2.123,2.951,-961.609,-312.256,68.787, , , , , , ,68.906,31.602,-104.024
 13:25:33.866,eb:33:2e:f9:57:b5, 2015-01-01 01:09:58.810,2.98,-1.581,3.824,-985.657,-339.294,44.25, , , , , , ,63.105,30.668,-105.743
 13:25:33.866,eb:33:2e:f9:57:b5, 2015-01-01 01:09:58.810,2.952,-0.964,4.695,-991.699,-358.337,12.756, , , , , , ,57.305,29.68,-107.43
 13:25:33.866,eb:33:2e:f9:57:b5, 2015-01-01 01:09:58.810,3.245,-0.334,5.188,-974.426,-387.817,-20.081, , , , , , ,51.526,28.625,-109.166
 13:25:33.866,eb:33:2e:f9:57:b5, 2015-01-01 01:09:58.810,3.145,0.354,5.792,-947.144,-382.202,-65.125, , , , , , ,45.868,27.526,-111
 13:25:33.866,eb:33:2e:f9:57:b5, 2015-01-01 01:09:58.810,3.008,0.563,5.239,-916.199,-396.484,-92.896, , , , , , ,40.325,26.362,-112.939
 13:25:33.866,eb:33:2e:f9:57:b5, 2015-01-01 01:09:58.810,2.529,0.557,4.713,-890.747,-403.87,-105.286, , , , , , ,35.03,25.098,-114.747
 13:25:33.866,eb:33:2e:f9:57:b5, 2015-01-01 01:09:58.810,1.933,0.423,3.927,-852.356,-446.777,-92.346, , , , , , ,29.976,23.56,-116.444
 13:25:33.866,eb:33:2e:f9:57:b5, 2015-01-01 01:09:58.810,1.41,0.169,3.489,-801.147,-490.967,-57.312, , , , , , ,25.274,21.632,-117.982
 13:25:33.866,eb:33:2e:f9:57:b5, 2015-01-01 01:09:58.810,0.922,0.118,3.404,-742.981,-527.222,-3.906, , , , , , ,20.951,19.27,-119.295
 13:25:33.866,eb:33:2e:f9:57:b5, 2015-01-01 01:09:58.810,0.014,0.603,3.73,-685.974,-539.734,57.861, , , , , , ,17.166,16.699,-120.048
 13:25:33.866,eb:33:2e:f9:57:b5, 2015-01-01 01:09:58.810,-0.292,1.355,3.982,-625.488,-550.415,102.051, , , , , , ,13.837,13.925,-120.372
 13:25:33.867,eb:33:2e:f9:57:b5, 2015-01-01 01:09:58.810,-0.563,2.529,4.66,-592.346,-506.836,131.409, , , , , , ,10.827,11.228,-120.339
 13:25:33.867,eb:33:2e:f9:57:b5, 2015-01-01 01:09:58.810,-1.05,3.965,4.62,-579.895,-452.148,140.015, , , , , , ,7.894,8.729,-120.13
 13:25:33.867,eb:33:2e:f9:57:b5, 2015-01-01 01:09:58.810,-1.636,5.22,3.833,-570.984,-419.739,121.948, , , , , , ,5.076,6.515,-119.718
 13:25:33.867,eb:33:2e:f9:57:b5, 2015-01-01 01:09:58.810,-2.266,6.26,2.899,-550.049,-420.532,86.792, , , , , , ,2.313,4.4,-119.339
 13:25:33.867,eb:33:2e:f9:57:b5, 2015-01-01 01:09:58.810,-3.117,7.116,2.624,-507.019,-441.467,47.424, , , , , , ,-0.297,2.236,-119.059
 13:25:33.979,eb:33:2e:f9:57:b5, 2015-01-01 01:09:58.810,-4.07,7.683,2.968,-447.632,-460.205,13.367, , , , , , ,-2.708,-0.071,-118.932
 13:25:33.979,eb:33:2e:f9:57:b5, 2015-01-01 01:09:58.810,-5.07,8.092,3.747,-380.92,-453.125,-3.296, , , , , , ,-4.752,-2.362,-118.768
 13:25:33.979,eb:33:2e:f9:57:b5, 2015-01-01 01:09:58.810,-5.966,8.663,4.721,-315.979,-414.246,-5.981, , , , , , ,-6.471,-4.515,-118.586
 13:25:33.979,eb:33:2e:f9:57:b5, 2015-01-01 01:09:58.810,-6.584,9.471,5.529,-253.357,-345.215,-2.93, , , , , , ,-7.883,-6.378,-118.372
 13:25:33.979,eb:33:2e:f9:57:b5, 2015-01-01 01:09:58.810,-6.92,10.465,5.936,-188.293,-257.568,-3.784, , , , , , ,-9.02,-7.861,-118.196
 13:25:33.979,eb:33:2e:f9:57:b5, 2015-01-01 01:09:58.810,-6.767,11.368,5.906,-107.971,-171.448,-22.827, , , , , , ,-9.739,-8.882,-118.103
 13:25:33.979,eb:33:2e:f9:57:b5, 2015-01-01 01:09:58.810,-6.332,11.896,5.367,-14.465,-104.004,-56.335, , , , , , ,-9.987,-9.542,-118.213
 13:25:33.979,eb:33:2e:f9:57:b5, 2015-01-01 01:09:58.810,-5.733,11.742,4.671,82.886,-67.749,-107.422, , , , , , ,-9.701,-10.003,-118.564
 13:25:33.981,eb:33:2e:f9:57:b5, 2015-01-01 01:09:58.810,-5.709,10.686,4.421,156.311,-12.451,-160.583, , , , , , ,-8.943,-10.327,-119.246
 13:25:33.981,eb:33:2e:f9:57:b5, 2015-01-01 01:09:58.810,-5.423,9.292,3.503,215.027,19.653,-197.937, , , , , , ,-7.817,-10.393,-120.179
 13:25:33.981,eb:33:2e:f9:57:b5, 2015-01-01 01:09:58.810,-4.779,8.381,3.16,252.808,47.424,-216.431, , , , , , ,-6.432,-10.355,-121.267
 13:25:33.981,eb:33:2e:f9:57:b5, 2015-01-01 01:09:58.810,-4.129,7.007,3.045,300.781,95.825,-213.318, , , , , , ,-4.828,-10.08,-122.393
 13:25:33.981,eb:33:2e:f9:57:b5, 2015-01-01 01:09:58.810,-3.424,5.923,2.609,359.436,134.949,-200.989, , , , , , ,-2.961,-9.558,-123.475
 13:25:33.981,eb:33:2e:f9:57:b5, 2015-01-01 01:09:58.810,-2.529,4.716,1.786,423.889,146.301,-186.646, , , , , , ,-0.807,-8.866,-124.475
 13:25:33.981,eb:33:2e:f9:57:b5, 2015-01-01 01:09:58.810,-1.775,3.396,0.793,473.877,117.737,-166.87, , , , , , ,1.593,-8.196,-125.343
 13:25:33.981,eb:33:2e:f9:57:b5, 2015-01-01 01:09:58.810,-1.045,1.983,-0.067,496.521,71.472,-146.851, , , , , , ,4.153,-7.712,-126.107
 13:25:34.002,eb:33:2e:f9:57:b5, 2015-01-01 01:09:58.810,-0.582,0.622,-0.732,489.197,37.476,-123.108, , , , , , ,6.718,-7.399,-126.738
 13:25:34.002,eb:33:2e:f9:57:b5, 2015-01-01 01:09:58.810,-3.218,1.001,-1.72,419.006,-176.941,-28.381, , , , , , ,9.097,-7.548,-127.167
 13:25:34.002,eb:33:2e:f9:57:b5, 2015-01-01 01:09:58.810,-3.042,5.582,10.125,-227.661,176.086,26.611, , , , , , ,9.399,-8.212,-127.375
 13:25:34.002,eb:33:2e:f9:57:b5, 2015-01-01 01:09:58.810,2.338,3.113,4.964,-478.271,655.457,77.698, , , , , , ,7.037,-5.614,-126.667
 13:25:34.002,eb:33:2e:f9:57:b5, 2015-01-01 01:09:58.810,2.267,8.625,-1.735,-438.354,215.088,-178.406, , , , , , ,4.79,-3.527,-126.453
 13:25:34.002,eb:33:2e:f9:57:b5, 2015-01-01 01:09:58.810,-0.834,-0.879,8.458,-352.6,464.233,-192.139, , , , , , ,2.845,-1.89,-127.414
 13:25:34.002,eb:33:2e:f9:57:b5, 2015-01-01 01:09:58.810,1.321,-4.688,4.999,-85.266,205.261,-40.71, , , , , , ,1.934,-0.104,-127.65
 13:25:34.002,eb:33:2e:f9:57:b5, 2015-01-01 01:09:58.810,-0.145,-1.234,5.123,-42.908,355.53,-69.214, , , , , , ,1.593,1.329,-128.112
 13:25:34.093,eb:33:2e:f9:57:b5, 2015-01-01 01:09:58.810,-2.259,-1.249,4.5,38.635,363.403,-28.931, , , , , , ,1.686,3.142,-128.238
 13:25:34.093,eb:33:2e:f9:57:b5, 2015-01-01 01:09:58.810,-1.613,-1.478,1.687,97.229,242.737,-3.052, , , , , , ,2.038,4.719,-128.21
 13:25:34.093,eb:33:2e:f9:57:b5, 2015-01-01 01:09:58.810,-0.795,-1.01,0.684,137.695,100.952,-2.075, , , , , , ,2.653,5.455,-128.221
 13:25:34.093,eb:33:2e:f9:57:b5, 2015-01-01 01:09:58.810,-0.715,-0.28,0.608,164.124,33.875,3.601, , , , , , ,3.428,5.746,-128.188
 13:25:34.093,eb:33:2e:f9:57:b5, 2015-01-01 01:09:58.810,0.191,0.066,0.941,187.012,-15.808,0.427, , , , , , ,4.345,5.724,-128.156
 13:25:34.093,eb:33:2e:f9:57:b5, 2015-01-01 01:09:58.810,0.442,0.21,2.458,201.233,44.006,5.066, , , , , , ,5.328,5.773,-128.128
 13:25:34.093,eb:33:2e:f9:57:b5, 2015-01-01 01:09:58.810,0.234,0.085,1.958,206.482,107.91,6.531, , , , , , ,6.367,6.196,-128.018
 13:25:34.094,eb:33:2e:f9:57:b5, 2015-01-01 01:09:58.810,-0.048,0.156,1.473,212.891,122.681,-0.977, , , , , , ,7.427,6.773,-127.941
 13:25:34.117,eb:33:2e:f9:57:b5, 2015-01-01 01:09:59.325,0.372,-0.12,2.109,221.375,155.029,2.808, , , , , , ,8.547,7.476,-127.831
 13:25:34.117,eb:33:2e:f9:57:b5, 2015-01-01 01:09:59.325,0.534,0.467,2.249,230.347,179.443,-4.395, , , , , , ,9.695,8.333,-127.672
 13:25:34.117,eb:33:2e:f9:57:b5, 2015-01-01 01:09:59.325,-0.23,0.227,1.496,238.342,183.228,1.099, , , , , , ,10.898,9.229,-127.485
 13:25:34.117,eb:33:2e:f9:57:b5, 2015-01-01 01:09:59.325,-0.459,-0.494,2.272,243.164,203.247,12.451, , , , , , ,12.145,10.168,-127.277
 13:25:34.117,eb:33:2e:f9:57:b5, 2015-01-01 01:09:59.325,-0.677,-0.294,1.583,257.446,175.537,17.822, , , , , , ,13.464,11.096,-126.958
 13:25:34.117,eb:33:2e:f9:57:b5, 2015-01-01 01:09:59.325,-1.02,-0.288,1.403,273.56,117.92,12.207, , , , , , ,14.848,11.761,-126.722
 13:25:34.117,eb:33:2e:f9:57:b5, 2015-01-01 01:09:59.325,-0.955,-0.772,1.821,292.664,74.951,19.592, , , , , , ,16.315,12.173,-126.508
 13:25:34.117,eb:33:2e:f9:57:b5, 2015-01-01 01:09:59.325,-0.84,-0.75,1.789,316.711,29.236,24.902, , , , , , ,17.886,12.371,-126.321
 13:25:34.117,eb:33:2e:f9:57:b5, 2015-01-01 01:09:59.325,-0.619,-0.769,2.051,342.957,-10.498,28.625, , , , , , ,19.589,12.349,-126.178
 13:25:34.117,eb:33:2e:f9:57:b5, 2015-01-01 01:09:59.325,-0.225,-0.813,2.426,374.695,-36.072,31.189, , , , , , ,21.412,12.173,-126.079
 13:25:34.117,eb:33:2e:f9:57:b5, 2015-01-01 01:09:59.325,0.139,-0.667,2.72,415.527,-62.988,24.841, , , , , , ,23.412,11.871,-126.03
 13:25:34.117,eb:33:2e:f9:57:b5, 2015-01-01 01:09:59.325,0.389,-0.834,3.434,465.881,-60.669,15.503, , , , , , ,25.631,11.53,-126.079
 13:25:34.117,eb:33:2e:f9:57:b5, 2015-01-01 01:09:59.325,1.076,-0.89,4.384,511.658,-25.818,-0.427, , , , , , ,28.081,11.338,-126.151
 13:25:34.117,eb:33:2e:f9:57:b5, 2015-01-01 01:09:59.325,1.215,-0.908,4.061,577.576,-23.926,-22.949, , , , , , ,30.811,11.277,-126.249
 13:25:34.118,eb:33:2e:f9:57:b5, 2015-01-01 01:09:59.325,1.092,-0.986,5.004,655.029,-15.93,-57.373, , , , , , ,33.882,11.294,-126.475
 13:25:34.118,eb:33:2e:f9:57:b5, 2015-01-01 01:09:59.325,1.999,-1.699,7.071,732.422,54.565,-70.007, , , , , , ,37.348,11.574,-126.672
 13:25:34.137,eb:33:2e:f9:57:b5, 2015-01-01 01:09:59.325,3.334,-1.474,8.37,813.416,161.865,-88.501, , , , , , ,41.248,12.272,-126.623
 13:25:34.137,eb:33:2e:f9:57:b5, 2015-01-01 01:09:59.325,4.045,0.216,9.021,910.828,231.689,-140.137, , , , , , ,45.687,13.464,-126.304
 13:25:34.137,eb:33:2e:f9:57:b5, 2015-01-01 01:09:59.325,3.952,1.847,8.33,952.637,193.359,-204.529, , , , , , ,50.455,14.826,-126.046
 13:25:34.137,eb:33:2e:f9:57:b5, 2015-01-01 01:09:59.325,3.643,3.561,8.444,902.649,150.085,-270.691, , , , , , ,55.058,16.315,-126.183
 13:25:34.137,eb:33:2e:f9:57:b5, 2015-01-01 01:09:59.325,3.457,4.966,6.205,819.946,142.09,-283.081, , , , , , ,59.282,17.913,-126.304
 13:25:34.137,eb:33:2e:f9:57:b5, 2015-01-01 01:09:59.325,2.419,7.058,1.036,659.607,-32.166,-370.056, , , , , , ,62.748,19.473,-126.953
 13:25:34.137,eb:33:2e:f9:57:b5, 2015-01-01 01:09:59.325,1.652,5.367,0.07,435.486,-85.876,-471.497, , , , , , ,64.874,21.204,-128.353
 13:25:34.137,eb:33:2e:f9:57:b5, 2015-01-01 01:09:59.325,-2.081,2.574,2.997,289.673,184.387,-378.723, , , , , , ,66.385,23.275,-129.007
 13:25:34.182,eb:33:2e:f9:57:b5, 2015-01-01 01:09:59.325,-1.321,2.819,0.509,133.179,200.5,-254.15, , , , , , ,67.456,24.955,-128.716
 13:25:34.182,eb:33:2e:f9:57:b5, 2015-01-01 01:09:59.325,0.487,0.659,7.48,154.053,408.752,-124.512, , , , , , ,68.665,26.323,-127.469
 13:25:34.182,eb:33:2e:f9:57:b5, 2015-01-01 01:09:59.325,1.712,2.815,9.152,265.381,570.74,-50.72, , , , , , ,70.95,27.581,-124.788
 13:25:34.182,eb:33:2e:f9:57:b5, 2015-01-01 01:09:59.325,2.495,3.653,8.823,394.104,606.079,-18.433, , , , , , ,74.147,28.614,-121.635
 13:25:34.182,eb:33:2e:f9:57:b5, 2015-01-01 01:09:59.325,3.047,3.09,7.352,491.699,587.402,-3.723, , , , , , ,78.019,29.361,-118.361
 13:25:34.182,eb:33:2e:f9:57:b5, 2015-01-01 01:09:59.325,3.09,3.115,5.633,531.494,493.042,-9.46, , , , , , ,82.117,29.85,-115.334
 13:25:34.183,eb:33:2e:f9:57:b5, 2015-01-01 01:09:59.325,3.296,3.484,5.336,532.715,379.822,-49.927, , , , , , ,85.995,30.229,-112.863
 13:25:34.183,eb:33:2e:f9:57:b5, 2015-01-01 01:09:59.325,3.615,3.746,6.275,514.343,292.725,-110.718, , , , , , ,89.555,30.723,-110.995
 13:25:34.250,eb:33:2e:f9:57:b5, 2015-01-01 01:09:59.325,4.02,3.673,7.754,486.755,273.682,-191.284, , , , , , ,92.851,31.47,-109.418
 13:25:34.250,eb:33:2e:f9:57:b5, 2015-01-01 01:09:59.325,4.432,3.162,8.326,460.449,254.883,-273.193, , , , , , ,96.075,32.569,-107.787
 13:25:34.250,eb:33:2e:f9:57:b5, 2015-01-01 01:09:59.325,4.341,1.991,7.952,434.875,240.479,-341.919, , , , , , ,99.25,33.97,-106.002
 13:25:34.250,eb:33:2e:f9:57:b5, 2015-01-01 01:09:59.325,4.169,0.573,6.891,409.79,185.669,-387.024, , , , , , ,102.305,35.585,-104.343
 13:25:34.250,eb:33:2e:f9:57:b5, 2015-01-01 01:09:59.325,3.973,-0.319,5.891,369.995,127.625,-423.401, , , , , , ,105.051,37.381,-102.98
 13:25:34.250,eb:33:2e:f9:57:b5, 2015-01-01 01:09:59.325,3.382,-1.369,5.799,314.697,88.989,-431.213, , , , , , ,107.606,39.304,-101.591
 13:25:34.250,eb:33:2e:f9:57:b5, 2015-01-01 01:09:59.325,2.75,-2.119,5.692,246.521,78.369,-419.739, , , , , , ,109.88,41.188,-100.146
 13:25:34.250,eb:33:2e:f9:57:b5, 2015-01-01 01:09:59.325,2.27,-2.763,5.619,174.5,73.364,-378.113, , , , , , ,111.846,42.907,-98.734
 13:25:34.250,eb:33:2e:f9:57:b5, 2015-01-01 01:09:59.325,2.104,-3.276,5.659,106.201,89.05,-332.031, , , , , , ,113.412,44.335,-97.416
 13:25:34.250,eb:33:2e:f9:57:b5, 2015-01-01 01:09:59.325,2.023,-3.663,5.528,46.509,114.99,-270.386, , , , , , ,114.857,45.472,-95.856
 13:25:34.250,eb:33:2e:f9:57:b5, 2015-01-01 01:09:59.325,1.967,-3.923,5.113,-1.221,122.803,-204.041, , , , , , ,116.016,46.263,-94.296
 13:25:34.250,eb:33:2e:f9:57:b5, 2015-01-01 01:09:59.325,2.019,-4.105,4.561,-43.762,126.465,-144.592, , , , , , ,116.862,46.741,-92.944
 13:25:34.250,eb:33:2e:f9:57:b5, 2015-01-01 01:09:59.325,2.08,-4.454,3.752,-89.111,125.244,-81.665, , , , , , ,117.252,46.917,-91.917
 13:25:34.250,eb:33:2e:f9:57:b5, 2015-01-01 01:09:59.325,2.197,-4.818,2.589,-146.606,112.305,-9.644, , , , , , ,117.301,46.818,-91.016
 13:25:34.250,eb:33:2e:f9:57:b5, 2015-01-01 01:09:59.325,2.193,-5.056,1.634,-199.036,91.736,45.959, , , , , , ,116.834,46.478,-90.374
 13:25:34.251,eb:33:2e:f9:57:b5, 2015-01-01 01:09:59.325,2.234,-5.311,0.563,-245.117,44.25,97.534, , , , , , ,115.829,45.989,-90.192
 13:25:34.342,eb:33:2e:f9:57:b5, 2015-01-01 01:09:59.325,2.429,-5.778,-0.492,-288.147,-25.696,145.874, , , , , , ,114.148,45.406,-90.626
 13:25:34.342,eb:33:2e:f9:57:b5, 2015-01-01 01:09:59.325,2.766,-6.252,-1.726,-340.515,-90.21,182.678, , , , , , ,111.918,44.758,-91.527
 13:25:34.342,eb:33:2e:f9:57:b5, 2015-01-01 01:09:59.325,3.025,-6.647,-2.644,-411.255,-142.7,218.506, , , , , , ,109.105,44.017,-92.763
 13:25:34.342,eb:33:2e:f9:57:b5, 2015-01-01 01:09:59.325,3.106,-6.785,-3.085,-503.967,-194.397,246.582, , , , , , ,105.661,43.154,-94.389
 13:25:34.342,eb:33:2e:f9:57:b5, 2015-01-01 01:09:59.325,3.08,-6.265,-2.902,-607.422,-264.832,276.855, , , , , , ,101.387,42.127,-96.493
 13:25:34.342,eb:33:2e:f9:57:b5, 2015-01-01 01:09:59.325,2.885,-5.101,-1.565,-697.449,-325.378,287.17, , , , , , ,96.553,40.957,-98.773
 13:25:34.342,eb:33:2e:f9:57:b5, 2015-01-01 01:09:59.325,2.888,-4.143,0.01,-764.893,-377.808,286.011, , , , , , ,91.252,39.65,-101.195
 13:25:34.342,eb:33:2e:f9:57:b5, 2015-01-01 01:09:59.325,2.891,-3.565,1.547,-812.134,-392.517,282.227, , , , , , ,85.737,38.177,-103.651
 13:25:34.346,eb:33:2e:f9:57:b5, 2015-01-01 01:09:59.325,2.916,-3.152,2.565,-848.45,-386.414,274.292, , , , , , ,80.14,36.546,-105.958
 13:25:34.346,eb:33:2e:f9:57:b5, 2015-01-01 01:09:59.325,2.971,-2.718,3.151,-877.625,-386.047,259.338, , , , , , ,74.669,34.832,-107.913
 13:25:34.346,eb:33:2e:f9:57:b5, 2015-01-01 01:09:59.325,3.091,-2.263,3.406,-901.855,-409.119,238.464, , , , , , ,69.186,33.036,-109.688
 13:25:34.346,eb:33:2e:f9:57:b5, 2015-01-01 01:09:59.325,3.212,-1.852,3.684,-923.035,-448.792,212.402, , , , , , ,63.655,31.152,-111.5
 13:25:34.346,eb:33:2e:f9:57:b5, 2015-01-01 01:09:59.325,3.34,-1.53,4.154,-938.477,-495.361,183.411, , , , , , ,57.98,29.108,-113.456
 13:25:34.346,eb:33:2e:f9:57:b5, 2015-01-01 01:09:59.325,3.352,-1.15,5.052,-944.885,-529.968,151.611, , , , , , ,52.383,26.949,-115.329
 13:25:34.346,eb:33:2e:f9:57:b5, 2015-01-01 01:09:59.325,3.352,-0.661,6.049,-938.721,-546.631,113.159, , , , , , ,46.873,24.708,-117.12
 13:25:34.346,eb:33:2e:f9:57:b5, 2015-01-01 01:09:59.325,3.158,-0.142,7,-926.392,-534.973,70.984, , , , , , ,41.528,22.456,-118.839
 13:25:34.384,eb:33:2e:f9:57:b5, 2015-01-01 01:09:59.325,2.967,0.176,7.3,-918.335,-510.62,35.217, , , , , , ,36.288,20.226,-120.504
 13:25:34.384,eb:33:2e:f9:57:b5, 2015-01-01 01:09:59.325,2.566,0.356,7.088,-917.786,-480.774,8.911, , , , , , ,31.245,18.133,-121.871
 13:25:34.384,eb:33:2e:f9:57:b5, 2015-01-01 01:09:59.325,2.07,0.47,6.251,-911.072,-481.018,-3.052, , , , , , ,26.318,16.035,-123.052
 13:25:34.384,eb:33:2e:f9:57:b5, 2015-01-01 01:09:59.325,1.471,0.54,5.522,-883.85,-510.559,0.183, , , , , , ,21.561,13.777,-124.102
 13:25:34.384,eb:33:2e:f9:57:b5, 2015-01-01 01:09:59.325,0.999,0.603,5.119,-828.491,-558.167,15.564, , , , , , ,17.04,11.157,-125.079
 13:25:34.385,eb:33:2e:f9:57:b5, 2015-01-01 01:09:59.325,0.596,0.674,4.979,-765.076,-592.346,45.959, , , , , , ,12.986,8.311,-125.678
 13:25:34.385,eb:33:2e:f9:57:b5, 2015-01-01 01:09:59.325,0.305,0.99,4.8,-714.905,-606.812,82.886, , , , , , ,9.289,5.29,-125.914
 13:25:34.385,eb:33:2e:f9:57:b5, 2015-01-01 01:09:59.325,0.023,1.627,4.757,-685.73,-600.952,114.502, , , , , , ,5.812,2.225,-125.799
 13:25:34.431,eb:33:2e:f9:57:b5, 2015-01-01 01:09:59.325,-0.407,2.556,4.824,-670.105,-579.956,132.263, , , , , , ,2.368,-0.813,-125.469
 13:25:34.431,eb:33:2e:f9:57:b5, 2015-01-01 01:09:59.325,-1.056,3.717,4.829,-653.137,-561.34,131.531, , , , , , ,-0.956,-3.658,-124.838
 13:25:34.431,eb:33:2e:f9:57:b5, 2015-01-01 01:09:59.325,-1.797,4.955,4.879,-618.347,-557.8,108.398, , , , , , ,-4.191,-6.422,-124.107
 13:25:34.431,eb:33:2e:f9:57:b5, 2015-01-01 01:09:59.325,-2.604,5.941,5.006,-567.017,-559.57,69.092, , , , , , ,-7.224,-9.163,-123.398
 13:25:34.431,eb:33:2e:f9:57:b5, 2015-01-01 01:09:59.325,-3.425,6.513,5.179,-517.334,-553.345,25.818, , , , , , ,-10.085,-11.942,-122.816
 13:25:34.431,eb:33:2e:f9:57:b5, 2015-01-01 01:09:59.325,-4.328,6.654,5.45,-484.436,-532.349,-7.385, , , , , , ,-12.7,-14.595,-122.239
 13:25:34.431,eb:33:2e:f9:57:b5, 2015-01-01 01:09:59.325,-5.409,6.661,5.906,-465.881,-495.361,-25.879, , , , , , ,-15.211,-17.095,-121.707
 13:25:34.431,eb:33:2e:f9:57:b5, 2015-01-01 01:09:59.325,-6.213,6.85,6.559,-435.974,-437.866,-33.02, , , , , , ,-17.628,-19.363,-121.174
 13:25:34.541,eb:33:2e:f9:57:b5, 2015-01-01 01:09:59.725,-6.97,7.292,7.159,-392.639,-377.014,-29.114, , , , , , ,-19.918,-21.357,-120.657
 13:25:34.541,eb:33:2e:f9:57:b5, 2015-01-01 01:09:59.725,-7.605,8.003,7.632,-331.299,-308.044,-19.47, , , , , , ,-21.907,-22.956,-120.125
 13:25:34.541,eb:33:2e:f9:57:b5, 2015-01-01 01:09:59.725,-7.894,8.78,7.612,-254.578,-251.038,-12.756, , , , , , ,-23.538,-24.258,-119.625
 13:25:34.543,eb:33:2e:f9:57:b5, 2015-01-01 01:09:59.725,-7.742,9.142,7.387,-174.316,-190.979,-21.545, , , , , , ,-24.741,-25.269,-119.213
 13:25:34.543,eb:33:2e:f9:57:b5, 2015-01-01 01:09:59.725,-6.56,9.271,7.266,-101.257,-104.187,-27.954, , , , , , ,-25.527,-25.922,-119.02
 13:25:34.543,eb:33:2e:f9:57:b5, 2015-01-01 01:09:59.725,-7.813,8.611,8.524,-38.208,37.659,12.268, , , , , , ,-25.807,-25.972,-119.097
 13:25:34.543,eb:33:2e:f9:57:b5, 2015-01-01 01:09:59.725,-6.199,9.824,5.858,45.288,33.752,-66.406, , , , , , ,-25.637,-25.933,-119.361
 13:25:34.543,eb:33:2e:f9:57:b5, 2015-01-01 01:09:59.725,-5.648,9.257,5.717,108.459,81.97,-78.369, , , , , , ,-24.977,-25.79,-119.877
 13:25:34.543,eb:33:2e:f9:57:b5, 2015-01-01 01:09:59.725,-4.646,8.774,4.923,151.978,102.844,-118.835, , , , , , ,-23.989,-25.593,-120.597
 13:25:34.543,eb:33:2e:f9:57:b5, 2015-01-01 01:09:59.725,-4,7.577,5.249,185.974,162.903,-138.733, , , , , , ,-22.703,-25.219,-121.575
 13:25:34.543,eb:33:2e:f9:57:b5, 2015-01-01 01:09:59.725,-2.985,6.596,4.848,217.041,207.52,-152.71, , , , , , ,-21.198,-24.615,-122.723
 13:25:34.543,eb:33:2e:f9:57:b5, 2015-01-01 01:09:59.725,-2.212,5.514,4.45,248.108,248.657,-153.503, , , , , , ,-19.512,-23.78,-123.964
 13:25:34.544,eb:33:2e:f9:57:b5, 2015-01-01 01:09:59.725,-1.338,4.42,3.233,281.189,245.605,-145.447, , , , , , ,-17.677,-22.83,-125.162
 13:25:34.544,eb:33:2e:f9:57:b5, 2015-01-01 01:09:59.725,-0.487,3.117,2.353,310.852,229.98,-127.319, , , , , , ,-15.771,-21.89,-126.227
 13:25:34.544,eb:33:2e:f9:57:b5, 2015-01-01 01:09:59.725,0.402,1.67,1.333,338.501,205.139,-98.999, , , , , , ,-13.815,-20.995,-127.101
 13:25:34.544,eb:33:2e:f9:57:b5, 2015-01-01 01:09:59.725,4.47,0.443,0.339,360.962,190.43,-62.927, , , , , , ,-11.827,-20.127,-127.738
 13:25:34.545,eb:33:2e:f9:57:b5, 2015-01-01 01:09:59.725,1.001,4.904,8.49,501.038,455.444,-241.821, , , , , , ,-8.965,-19.863,-128.765
 13:25:34.545,eb:33:2e:f9:57:b5, 2015-01-01 01:09:59.725,1.404,2.175,-3.174,566.65,562.378,-333.618, , , , , , ,-5.636,-17.232,-130.6
 13:25:34.545,eb:33:2e:f9:57:b5, 2015-01-01 01:09:59.725,4.613,0.656,5.649,252.075,687.378,47.546, , , , , , ,-3.285,-13.771,-131.495
 13:25:34.545,eb:33:2e:f9:57:b5, 2015-01-01 01:09:59.725,-5.795,8.176,9.85,-113.525,977.844,170.532, , , , , , ,-3.241,-9.833,-131.017
 13:25:34.545,eb:33:2e:f9:57:b5, 2015-01-01 01:09:59.725,-3.98,1.413,2.95,-116.455,803.833,79.407, , , , , , ,-4.081,-4.894,-130.589
 13:25:34.545,eb:33:2e:f9:57:b5, 2015-01-01 01:09:59.725,-1.078,-3.462,-0.415,86.609,458.313,-24.536, , , , , , ,-4.016,-2.087,-130.875
 13:25:34.545,eb:33:2e:f9:57:b5, 2015-01-01 01:09:59.725,-1.151,-2.758,1.214,203.796,299.5,-31.25, , , , , , ,-3.192,-0.308,-131.138
 13:25:34.545,eb:33:2e:f9:57:b5, 2015-01-01 01:09:59.725,-2.503,-0.936,1.877,216.797,266.296,34.607, , , , , , ,-2.098,1.066,-131.127
 13:25:34.632,eb:33:2e:f9:57:b5, 2015-01-01 01:09:59.725,-1.459,0.437,-0.571,192.688,139.343,11.902, , , , , , ,-1.066,2.01,-131.028
 13:25:34.632,eb:33:2e:f9:57:b5, 2015-01-01 01:09:59.725,0.663,0.044,-0.588,177.429,49.866,1.587, , , , , , ,-0.143,2.379,-130.99
 13:25:34.632,eb:33:2e:f9:57:b5, 2015-01-01 01:09:59.725,2.033,0.767,1.029,162.964,68.115,-11.047, , , , , , ,0.703,2.637,-131.001
 13:25:34.632,eb:33:2e:f9:57:b5, 2015-01-01 01:09:59.725,1.194,1.254,2.402,147.827,173.95,-38.269, , , , , , ,1.456,3.268,-131.138
 13:25:34.632,eb:33:2e:f9:57:b5, 2015-01-01 01:09:59.725,0.652,0.347,2.553,167.786,254.639,-53.406, , , , , , ,2.252,4.471,-131.292
 13:25:34.632,eb:33:2e:f9:57:b5, 2015-01-01 01:09:59.725,1.06,1.219,0.892,186.34,205.322,-108.398, , , , , , ,3.115,5.641,-131.666
 13:25:34.632,eb:33:2e:f9:57:b5, 2015-01-01 01:09:59.725,0.123,-0.465,3.49,197.449,280.884,-90.271, , , , , , ,4.032,6.866,-132.116
 13:25:34.632,eb:33:2e:f9:57:b5, 2015-01-01 01:09:59.725,-2.62,-0.611,1.313,220.642,296.509,-31.494, , , , , , ,5.059,8.481,-132.215
 13:25:34.634,eb:33:2e:f9:57:b5, 2015-01-01 01:09:59.725,-1.127,-0.979,0.431,254.578,166.931,-42.48, , , , , , ,6.279,9.558,-132.308
 13:25:34.634,eb:33:2e:f9:57:b5, 2015-01-01 01:09:59.725,-1.349,-1.035,1.953,263.55,190.125,18.799, , , , , , ,7.586,10.443,-132.237
 13:25:34.634,eb:33:2e:f9:57:b5, 2015-01-01 01:09:59.725,-1.672,-0.536,1.401,286.865,129.211,47.729, , , , , , ,9.014,11.245,-131.896
 13:25:34.634,eb:33:2e:f9:57:b5, 2015-01-01 01:09:59.725,-1.825,-1.02,1.656,299.927,86.121,61.035, , , , , , ,10.541,11.7,-131.567
 13:25:34.634,eb:33:2e:f9:57:b5, 2015-01-01 01:09:59.725,-1.133,-1.293,2.662,311.89,79.163,88.135, , , , , , ,12.184,12.063,-131.083
 13:25:34.634,eb:33:2e:f9:57:b5, 2015-01-01 01:09:59.725,-0.886,-0.656,2.238,331.848,33.63,90.332, , , , , , ,13.903,12.228,-130.573
 13:25:34.634,eb:33:2e:f9:57:b5, 2015-01-01 01:09:59.725,-0.517,-0.945,2.627,358.276,-0.183,96.741, , , , , , ,15.743,12.156,-130.073
 13:25:34.634,eb:33:2e:f9:57:b5, 2015-01-01 01:09:59.725,-0.225,-0.913,2.745,385.925,-19.836,101.196, , , , , , ,17.715,11.964,-129.595
 13:25:34.724,eb:33:2e:f9:57:b5, 2015-01-01 01:09:59.725,0.353,-0.708,2.884,419.922,-42.664,91.919, , , , , , ,19.841,11.656,-129.172
 13:25:34.724,eb:33:2e:f9:57:b5, 2015-01-01 01:09:59.725,0.539,-0.615,3.193,460.327,-58.228,74.341, , , , , , ,22.121,11.272,-128.87
 13:25:34.724,eb:33:2e:f9:57:b5, 2015-01-01 01:09:59.725,0.707,-0.462,4.136,506.104,-53.345,53.772, , , , , , ,24.604,10.882,-128.672
 13:25:34.724,eb:33:2e:f9:57:b5, 2015-01-01 01:09:59.725,1.205,-0.776,4.736,554.688,-32.776,32.837, , , , , , ,27.296,10.596,-128.573
 13:25:34.724,eb:33:2e:f9:57:b5, 2015-01-01 01:09:59.725,1.376,-1,4.731,615.295,-25.879,14.282, , , , , , ,30.267,10.443,-128.529
 13:25:34.724,eb:33:2e:f9:57:b5, 2015-01-01 01:09:59.725,1.318,-1.025,5.263,686.462,-25.452,-19.409, , , , , , ,33.53,10.327,-128.639
 13:25:34.724,eb:33:2e:f9:57:b5, 2015-01-01 01:09:59.725,1.724,-1.412,6.826,764.648,11.719,-40.894, , , , , , ,37.167,10.415,-128.76
 13:25:34.724,eb:33:2e:f9:57:b5, 2015-01-01 01:09:59.725,2.959,-1.334,8.303,851.746,82.031,-65.918, , , , , , ,41.237,10.783,-128.804
 13:25:34.726,eb:33:2e:f9:57:b5, 2015-01-01 01:09:59.725,3.365,-0.29,8.705,939.636,115.601,-115.173, , , , , , ,45.769,11.503,-128.765
 13:25:34.726,eb:33:2e:f9:57:b5, 2015-01-01 01:09:59.725,2.848,1.378,9.371,996.277,132.263,-182.19, , , , , , ,50.647,12.475,-128.826
 13:25:34.726,eb:33:2e:f9:57:b5, 2015-01-01 01:09:59.725,3.345,4.915,9.923,1002.075,141.418,-263.123, , , , , , ,55.646,13.733,-128.859
 13:25:34.726,eb:33:2e:f9:57:b5, 2015-01-01 01:09:59.725,1.701,6.973,8.362,940.002,188.293,-351.624, , , , , , ,60.485,15.529,-129.04
 13:25:34.726,eb:33:2e:f9:57:b5, 2015-01-01 01:09:59.725,1.708,8.983,1.419,791.26,37.476,-395.569, , , , , , ,64.698,17.292,-129.287
 13:25:34.726,eb:33:2e:f9:57:b5, 2015-01-01 01:09:59.725,-0.79,3.147,0.035,642.578,-35.4,-387.756, , , , , , ,67.791,19.133,-130.402
 13:25:34.726,eb:33:2e:f9:57:b5, 2015-01-01 01:09:59.725,-2.939,4.94,-3.665,420.654,-113.77,-273.56, , , , , , ,70.159,20.561,-131.232
 13:25:34.726,eb:33:2e:f9:57:b5, 2015-01-01 01:09:59.725,-2.012,0.659,2.356,234.192,3.784,-137.085, , , , , , ,71.34,21.335,-132.012
 13:25:34.857,eb:33:2e:f9:57:b5, 2015-01-01 01:09:59.725,-0.418,0.348,10.527,242.859,424.622,-19.226, , , , , , ,72.9,22.011,-130.842
 13:25:34.857,eb:33:2e:f9:57:b5, 2015-01-01 01:09:59.725,1.1,3.999,11.776,360.352,691.528,4.639, , , , , , ,75.652,22.824,-127.667
 13:25:34.857,eb:33:2e:f9:57:b5, 2015-01-01 01:09:59.725,1.956,4.454,10.414,512.024,748.962,-2.869, , , , , , ,79.459,23.626,-123.695
 13:25:34.857,eb:33:2e:f9:57:b5, 2015-01-01 01:09:59.725,2.424,3.365,6.876,621.155,657.593,-15.259, , , , , , ,83.919,24.186,-119.883
 13:25:34.857,eb:33:2e:f9:57:b5, 2015-01-01 01:09:59.725,2.298,3.097,4.622,660.034,476.196,-48.096, , , , , , ,88.38,24.527,-116.922
 13:25:34.857,eb:33:2e:f9:57:b5, 2015-01-01 01:09:59.725,2.304,3.344,4.898,650.146,303.772,-107.056, , , , , , ,92.516,24.928,-114.884
 13:25:34.857,eb:33:2e:f9:57:b5, 2015-01-01 01:09:59.725,2.435,3.498,7.205,612.061,227.295,-164.856, , , , , , ,96.273,25.538,-113.39
 13:25:34.857,eb:33:2e:f9:57:b5, 2015-01-01 01:09:59.725,2.779,3.732,9.148,567.505,231.445,-232.422, , , , , , ,99.816,26.4,-111.989
 13:25:34.859,eb:33:2e:f9:57:b5, 2015-01-01 01:09:59.725,3.552,3.736,9.435,534.058,235.291,-311.951, , , , , , ,103.222,27.515,-110.468
 13:25:34.859,eb:33:2e:f9:57:b5, 2015-01-01 01:09:59.725,4.024,3.07,9.597,508.728,238.525,-387.695, , , , , , ,106.666,28.954,-108.666
 13:25:34.859,eb:33:2e:f9:57:b5, 2015-01-01 01:09:59.725,4.186,1.988,9.35,484.619,249.512,-450.073, , , , , , ,110.198,30.591,-106.474
 13:25:34.859,eb:33:2e:f9:57:b5, 2015-01-01 01:09:59.725,4.327,0.54,7.993,436.829,223.389,-491.638, , , , , , ,113.725,32.338,-104.101
 13:25:34.859,eb:33:2e:f9:57:b5, 2015-01-01 01:09:59.725,3.915,-0.477,6.801,382.141,185.242,-492.798, , , , , , ,116.96,34.124,-101.86
 13:25:34.859,eb:33:2e:f9:57:b5, 2015-01-01 01:09:59.725,3.663,-1.426,5.893,320.312,129.089,-465.515, , , , , , ,119.954,35.865,-99.657
 13:25:34.859,eb:33:2e:f9:57:b5, 2015-01-01 01:09:59.725,3.222,-1.908,5.793,251.404,99.792,-426.331, , , , , , ,122.563,37.48,-97.559
 13:25:34.859,eb:33:2e:f9:57:b5, 2015-01-01 01:09:59.725,3.011,-2.186,5.687,182.678,73.303,-388.184, , , , , , ,124.772,38.925,-95.685
 13:25:34.861,eb:33:2e:f9:57:b5, 2015-01-01 01:09:59.725,2.931,-2.201,6.133,115.417,90.393,-358.154, , , , , , ,126.541,40.182,-93.994
 13:25:34.861,eb:33:2e:f9:57:b5, 2015-01-01 01:09:59.725,2.964,-2.546,6.153,69.214,98.755,-303.833, , , , , , ,128.139,41.193,-92.214
 13:25:34.861,eb:33:2e:f9:57:b5, 2015-01-01 01:09:59.725,3.108,-2.792,5.961,30.884,119.995,-261.169, , , , , , ,129.518,41.924,-90.412
 13:25:34.861,eb:33:2e:f9:57:b5, 2015-01-01 01:09:59.725,3.192,-2.847,5.443,-2.747,143.616,-226.379, , , , , , ,130.743,42.402,-88.671
 13:25:34.861,eb:33:2e:f9:57:b5, 2015-01-01 01:09:59.725,3.221,-2.964,4.505,-31.128,139.771,-198.242, , , , , , ,131.66,42.726,-87.138
 13:25:34.862,eb:33:2e:f9:57:b5, 2015-01-01 01:09:59.725,3.118,-3.118,3.509,-57.739,106.628,-174.072, , , , , , ,132.413,43,-85.682
 13:25:34.862,eb:33:2e:f9:57:b5, 2015-01-01 01:09:59.725,2.895,-3.506,2.565,-83.801,52.002,-150.269, , , , , , ,132.819,43.33,-84.49
 13:25:34.862,eb:33:2e:f9:57:b5, 2015-01-01 01:09:59.725,2.515,-4.243,1.595,-114.807,-15.015,-121.277, , , , , , ,132.786,43.781,-83.798
 13:25:34.862,eb:33:2e:f9:57:b5, 2015-01-01 01:09:59.725,2.205,-5.215,0.369,-160.706,-89.233,-82.153, , , , , , ,132.078,44.363,-83.776
 13:25:34.862,eb:33:2e:f9:57:b5, 2015-01-01 01:09:59.725,2.363,-6.347,-0.901,-229.675,-155.029,-26.978, , , , , , ,130.765,44.984,-84.221
 13:25:34.862,eb:33:2e:f9:57:b5, 2015-01-01 01:09:59.725,2.989,-7.582,-1.874,-332.092,-179.077,46.143, , , , , , ,128.6,45.478,-85.177
 13:25:34.862,eb:33:2e:f9:57:b5, 2015-01-01 01:09:59.725,3.737,-8.569,-2.384,-459.229,-161.987,123.718, , , , , , ,125.579,45.626,-86.55
 13:25:34.862,eb:33:2e:f9:57:b5, 2015-01-01 01:09:59.725,3.52,-8.514,-2.243,-587.402,-129.395,190.43, , , , , , ,121.74,45.341,-88.143
 13:25:34.862,eb:33:2e:f9:57:b5, 2015-01-01 01:09:59.725,3.389,-7.129,-2.356,-682.617,-175.171,228.821, , , , , , ,117.323,44.764,-89.808
 13:25:34.863,eb:33:2e:f9:57:b5, 2015-01-01 01:09:59.725,3.853,-5.687,-2.17,-745.85,-289.001,242.188, , , , , , ,112.143,44.193,-91.989
 13:25:34.863,eb:33:2e:f9:57:b5, 2015-01-01 01:09:59.725,4.068,-4.698,-0.989,-795.898,-380.859,243.835, , , , , , ,106.287,43.61,-94.823
 13:25:34.903,eb:33:2e:f9:57:b5, 2015-01-01 01:09:59.725,4.052,-4.009,0.384,-833.74,-442.749,237.122, , , , , , ,99.932,42.918,-98.097
 13:25:34.903,eb:33:2e:f9:57:b5, 2015-01-01 01:09:59.725,4.03,-3.71,1.553,-859.009,-493.713,222.961, , , , , , ,93.406,42.056,-101.47
 13:25:34.903,eb:33:2e:f9:57:b5, 2015-01-01 01:09:59.725,4.098,-3.42,2.598,-885.376,-531.067,208.069, , , , , , ,86.743,40.99,-104.87
 13:25:34.903,eb:33:2e:f9:57:b5, 2015-01-01 01:09:59.725,4.054,-2.908,3.717,-915.527,-560.73,193.542, , , , , , ,80.002,39.683,-108.303
 13:25:34.903,eb:33:2e:f9:57:b5, 2015-01-01 01:09:59.725,3.797,-2.344,4.962,-939.697,-588.013,177.979, , , , , , ,73.174,38.106,-111.736
 13:25:34.903,eb:33:2e:f9:57:b5, 2015-01-01 01:09:59.725,3.682,-1.809,6.169,-949.463,-611.023,152.954, , , , , , ,66.506,36.299,-114.933
 13:25:34.903,eb:33:2e:f9:57:b5, 2015-01-01 01:09:59.725,3.825,-1.243,7.24,-950.989,-614.319,125.671, , , , , , ,60.024,34.305,-117.878
 13:25:34.903,eb:33:2e:f9:57:b5, 2015-01-01 01:09:59.725,3.761,-0.455,8.106,-955.566,-579.041,90.21, , , , , , ,53.806,32.234,-120.52
 13:25:34.947,eb:33:2e:f9:57:b5, 2015-01-01 01:10:00.195,3.798,0.408,8.223,-959.778,-533.02,37.964, , , , , , ,47.752,30.229,-122.921
 13:25:34.947,eb:33:2e:f9:57:b5, 2015-01-01 01:10:00.195,3.746,1.142,7.646,-956.299,-509.888,-31.921, , , , , , ,41.929,28.405,-125.024
 13:25:34.947,eb:33:2e:f9:57:b5, 2015-01-01 01:10:00.195,3.556,1.371,6.498,-944.641,-538.818,-100.525, , , , , , ,36.172,26.614,-127.167
 13:25:34.947,eb:33:2e:f9:57:b5, 2015-01-01 01:10:00.195,3.045,0.884,5.733,-932.373,-588.623,-150.635, , , , , , ,30.471,24.593,-129.523
 13:25:34.947,eb:33:2e:f9:57:b5, 2015-01-01 01:10:00.195,2.215,0.159,5.415,-914.551,-656.921,-159.119, , , , , , ,24.846,22.126,-132.001
 13:25:34.947,eb:33:2e:f9:57:b5, 2015-01-01 01:10:00.195,0.95,-0.704,5.522,-883.911,-719.849,-124.023, , , , , , ,19.611,19.155,-134.11
 13:25:34.947,eb:33:2e:f9:57:b5, 2015-01-01 01:10:00.195,0.21,-1.376,6.562,-807.068,-748.23,-34.79, , , , , , ,14.93,15.738,-135.61
 13:25:34.947,eb:33:2e:f9:57:b5, 2015-01-01 01:10:00.195,-0.284,-1.33,7.252,-734.863,-719.788,68.42, , , , , , ,10.942,12.134,-136.324
 13:25:34.992,eb:33:2e:f9:57:b5, 2015-01-01 01:10:00.195,-0.602,-0.451,7.171,-681.152,-681.641,173.035, , , , , , ,7.383,8.52,-136.329
 13:25:34.992,eb:33:2e:f9:57:b5, 2015-01-01 01:10:00.195,-0.933,0.938,6.72,-645.813,-661.011,259.399, , , , , , ,4.175,5.092,-135.527
 13:25:34.992,eb:33:2e:f9:57:b5, 2015-01-01 01:10:00.195,-1.271,2.549,6.267,-614.441,-659.18,313.171, , , , , , ,1.115,1.73,-134.193
 13:25:34.992,eb:33:2e:f9:57:b5, 2015-01-01 01:10:00.195,-1.929,4.303,6.19,-576.355,-655.518,332.153, , , , , , ,-1.84,-1.538,-132.534
 13:25:34.992,eb:33:2e:f9:57:b5, 2015-01-01 01:10:00.195,-2.698,5.928,6.166,-531.067,-646.484,319.092, , , , , , ,-4.757,-4.763,-130.798
 13:25:34.992,eb:33:2e:f9:57:b5, 2015-01-01 01:10:00.195,-3.476,7.208,6.41,-496.399,-620.239,286.194, , , , , , ,-7.504,-7.745,-128.958
 13:25:34.992,eb:33:2e:f9:57:b5, 2015-01-01 01:10:00.195,-4.325,8.272,6.948,-483.704,-573.242,245.117, , , , , , ,-10.217,-10.47,-127.189
 13:25:34.992,eb:33:2e:f9:57:b5, 2015-01-01 01:10:00.195,-5.282,9.29,7.65,-482.483,-513.733,204.712, , , , , , ,-12.969,-12.881,-125.53
 13:25:35.014,eb:33:2e:f9:57:b5, 2015-01-01 01:10:00.195,-6.2,10.271,8.136,-469.116,-451.355,164.49, , , , , , ,-15.776,-15.018,-124.052
 13:25:35.014,eb:33:2e:f9:57:b5, 2015-01-01 01:10:00.195,-7.09,11.15,8.429,-418.579,-381.897,124.756, , , , , , ,-18.347,-16.771,-122.728
 13:25:35.014,eb:33:2e:f9:57:b5, 2015-01-01 01:10:00.195,-7.437,11.744,8.455,-333.557,-307.373,86.975, , , , , , ,-20.522,-18.193,-121.641
 13:25:35.014,eb:33:2e:f9:57:b5, 2015-01-01 01:10:00.195,-7.863,11.942,8.469,-236.145,-211.243,57.556, , , , , , ,-22.165,-19.243,-120.839
 13:25:35.014,eb:33:2e:f9:57:b5, 2015-01-01 01:10:00.195,-7.214,11.699,7.781,-138.428,-128.662,18.86, , , , , , ,-23.253,-19.94,-120.322
 13:25:35.014,eb:33:2e:f9:57:b5, 2015-01-01 01:10:00.195,-8.103,10.611,7.519,-26.428,24.963,56.763, , , , , , ,-23.703,-20.116,-120.185
 13:25:35.014,eb:33:2e:f9:57:b5, 2015-01-01 01:10:00.195,-5.841,10.36,4.976,-4.089,22.827,-122.864, , , , , , ,-23.73,-19.984,-120.284
 13:25:35.014,eb:33:2e:f9:57:b5, 2015-01-01 01:10:00.195,-5.235,9.294,5.629,63.416,67.078,-38.086, , , , , , ,-23.395,-19.781,-120.707
 13:25:35.059,eb:33:2e:f9:57:b5, 2015-01-01 01:10:00.195,-4.005,9.8,3.856,116.211,64.697,-73.059, , , , , , ,-22.769,-19.677,-121.13
 13:25:35.059,eb:33:2e:f9:57:b5, 2015-01-01 01:10:00.195,-3.222,9.365,3.642,162.109,97.717,-103.577, , , , , , ,-21.846,-19.44,-121.74
 13:25:35.059,eb:33:2e:f9:57:b5, 2015-01-01 01:10:00.195,-2.744,8.491,2.961,206.604,106.689,-138, , , , , , ,-20.638,-19.166,-122.563
 13:25:35.059,eb:33:2e:f9:57:b5, 2015-01-01 01:10:00.195,-2.286,7.048,2.236,253.967,92.529,-166.077, , , , , , ,-19.155,-18.946,-123.514
 13:25:35.059,eb:33:2e:f9:57:b5, 2015-01-01 01:10:00.195,-1.814,5.184,2.041,293.152,85.51,-170.898, , , , , , ,-17.419,-18.792,-124.508
 13:25:35.061,eb:33:2e:f9:57:b5, 2015-01-01 01:10:00.195,-1.236,3.369,1.58,320.862,90.21,-154.236, , , , , , ,-15.562,-18.605,-125.464
 13:25:35.061,eb:33:2e:f9:57:b5, 2015-01-01 01:10:00.195,-0.542,1.92,0.947,339.966,110.596,-127.747, , , , , , ,-13.629,-18.287,-126.304
 13:25:35.061,eb:33:2e:f9:57:b5, 2015-01-01 01:10:00.195,-0.933,1.125,-0.091,478.027,2.747,-75.806, , , , , , ,-11.558,-17.941,-126.964
 13:25:35.106,eb:33:2e:f9:57:b5, 2015-01-01 01:10:00.195,-1.044,8.087,10.946,663.025,988.831,-421.509, , , , , , ,-7.449,-16.672,-128.754
 13:25:35.106,eb:33:2e:f9:57:b5, 2015-01-01 01:10:00.195,-0.156,1.107,-5.262,694.641,360.657,-357.361, , , , , , ,-3.274,-13.579,-131.023
 13:25:35.106,eb:33:2e:f9:57:b5, 2015-01-01 01:10:00.195,2.986,4.89,8.559,193.909,491.943,47.791, , , , , , ,-1.066,-11.206,-131.605
 13:25:35.106,eb:33:2e:f9:57:b5, 2015-01-01 01:10:00.195,-2.704,6.545,9.471,-85.876,670.288,-10.193, , , , , , ,-1.044,-8.427,-131.682
 13:25:35.106,eb:33:2e:f9:57:b5, 2015-01-01 01:10:00.195,-0.091,-2.681,0.951,29.419,584.167,21.912, , , , , , ,-1.28,-4.73,-131.71
 13:25:35.106,eb:33:2e:f9:57:b5, 2015-01-01 01:10:00.195,-1.394,-3.125,1.185,158.203,401.367,18.738, , , , , , ,-0.687,-2.521,-131.699
 13:25:35.106,eb:33:2e:f9:57:b5, 2015-01-01 01:10:00.195,-2.506,-1.094,1.724,212.341,246.338,-1.953, , , , , , ,0.335,-1.11,-131.781
 13:25:35.106,eb:33:2e:f9:57:b5, 2015-01-01 01:10:00.195,-1.721,-0.912,0.23,201.233,146.545,58.289, , , , , , ,1.318,-0.115,-131.534
 13:25:35.151,eb:33:2e:f9:57:b5, 2015-01-01 01:10:00.195,-0.506,0.867,-0.974,182.373,74.158,14.893, , , , , , ,2.357,0.324,-131.314
 13:25:35.151,eb:33:2e:f9:57:b5, 2015-01-01 01:10:00.195,0.873,0.473,-0.28,165.222,4.211,0, , , , , , ,3.208,0.511,-131.27
 13:25:35.151,eb:33:2e:f9:57:b5, 2015-01-01 01:10:00.195,0.65,0.321,2.821,150.146,116.943,-10.681, , , , , , ,3.983,0.764,-131.32
 13:25:35.151,eb:33:2e:f9:57:b5, 2015-01-01 01:10:00.195,0.505,0.419,1.709,183.35,111.755,-37.415, , , , , , ,4.834,1.417,-131.358
 13:25:35.151,eb:33:2e:f9:57:b5, 2015-01-01 01:10:00.195,1.724,0.414,2.455,185.486,134.155,-72.083, , , , , , ,5.79,2.021,-131.605
 13:25:35.151,eb:33:2e:f9:57:b5, 2015-01-01 01:10:00.195,-0.036,0.556,2.223,180.42,210.388,-65.796, , , , , , ,6.685,3.01,-131.847
 13:25:35.151,eb:33:2e:f9:57:b5, 2015-01-01 01:10:00.195,-1.88,0.359,0.632,204.712,157.715,-61.218, , , , , , ,7.63,3.955,-132.023
 13:25:35.151,eb:33:2e:f9:57:b5, 2015-01-01 01:10:00.195,-0.565,-1.657,3.643,265.747,161.621,-46.57, , , , , , ,8.817,4.746,-132.193
 13:25:35.219,eb:33:2e:f9:57:b5, 2015-01-01 01:10:00.195,-0.589,-0.685,3.273,304.688,211.731,-12.817, , , , , , ,10.311,5.718,-132.138
 13:25:35.219,eb:33:2e:f9:57:b5, 2015-01-01 01:10:00.195,-0.803,-1.037,3.386,328.491,242.249,43.457, , , , , , ,11.942,6.833,-131.819
 13:25:35.219,eb:33:2e:f9:57:b5, 2015-01-01 01:10:00.195,-1.409,-1.2,2.318,358.887,204.651,90.332, , , , , , ,13.76,7.855,-131.171
 13:25:35.219,eb:33:2e:f9:57:b5, 2015-01-01 01:10:00.195,-0.647,-1.08,2.752,395.142,122.986,85.999, , , , , , ,15.738,8.492,-130.562
 13:25:35.219,eb:33:2e:f9:57:b5, 2015-01-01 01:10:00.195,-0.562,-0.835,3.145,436.829,56.763,88.257, , , , , , ,17.952,8.795,-129.968
 13:25:35.219,eb:33:2e:f9:57:b5, 2015-01-01 01:10:00.195,-0.274,-1.161,3.566,485.718,-13.855,70.496, , , , , , ,20.336,8.701,-129.606
 13:25:35.219,eb:33:2e:f9:57:b5, 2015-01-01 01:10:00.195,0.624,-1.443,4.523,530.64,-20.691,63.66, , , , , , ,22.939,8.498,-129.287
 13:25:35.219,eb:33:2e:f9:57:b5, 2015-01-01 01:10:00.195,1.171,-1.609,4.633,594.543,-36.987,48.584, , , , , , ,25.801,8.251,-129.106
 13:25:35.222,eb:33:2e:f9:57:b5, 2015-01-01 01:10:00.485,0.876,-1.224,4.974,671.509,-60.12,15.32, , , , , , ,29.026,7.96,-129.084
 13:25:35.222,eb:33:2e:f9:57:b5, 2015-01-01 01:10:00.485,0.972,-1.43,6.701,756.287,-26.306,-23.865, , , , , , ,32.618,7.8,-129.232
 13:25:35.222,eb:33:2e:f9:57:b5, 2015-01-01 01:10:00.485,1.993,-2.612,8.264,862.854,43.457,-33.386, , , , , , ,36.683,7.927,-129.271
 13:25:35.222,eb:33:2e:f9:57:b5, 2015-01-01 01:10:00.485,3.463,-1.402,10.207,987.488,137.329,-77.942, , , , , , ,41.38,8.492,-129.188
 13:25:35.222,eb:33:2e:f9:57:b5, 2015-01-01 01:10:00.485,2.393,1.081,10.899,1083.801,206.909,-132.812, , , , , , ,46.67,9.547,-128.936
 13:25:35.222,eb:33:2e:f9:57:b5, 2015-01-01 01:10:00.485,4.775,5.191,11.602,1144.714,251.465,-231.934, , , , , , ,52.339,10.992,-128.622
 13:25:35.222,eb:33:2e:f9:57:b5, 2015-01-01 01:10:00.485,1.868,3.457,9.33,1099.06,294.128,-212.585, , , , , , ,58.063,12.832,-128.205
 13:25:35.222,eb:33:2e:f9:57:b5, 2015-01-01 01:10:00.485,3.321,8.579,4.006,981.995,135.254,-365.906, , , , , , ,63.303,14.744,-127.974
 13:25:35.306,eb:33:2e:f9:57:b5, 2015-01-01 01:10:00.485,0.445,2.871,0.794,781.433,76.294,-391.907, , , , , , ,67.478,16.666,-128.441
 13:25:35.306,eb:33:2e:f9:57:b5, 2015-01-01 01:10:00.485,-2.318,3.701,-1.336,599.487,118.164,-300.415, , , , , , ,70.856,18.6,-128.375
 13:25:35.306,eb:33:2e:f9:57:b5, 2015-01-01 01:10:00.485,-1.461,2.753,-0.457,318.481,80.078,-214.478, , , , , , ,72.916,19.951,-128.359
 13:25:35.306,eb:33:2e:f9:57:b5, 2015-01-01 01:10:00.485,0.453,0.513,6.868,208.313,288.025,-125, , , , , , ,74.383,20.995,-127.573
 13:25:35.306,eb:33:2e:f9:57:b5, 2015-01-01 01:10:00.485,1.558,3.429,9.681,265.198,463.867,-110.596, , , , , , ,76.24,22.028,-125.634
 13:25:35.306,eb:33:2e:f9:57:b5, 2015-01-01 01:10:00.485,2.336,6.6,10.965,416.748,520.203,-179.565, , , , , , ,78.964,23.302,-123.146
 13:25:35.306,eb:33:2e:f9:57:b5, 2015-01-01 01:10:00.485,2.81,5.552,10.115,564.819,528.442,-240.417, , , , , , ,82.595,24.807,-120.427
 13:25:35.306,eb:33:2e:f9:57:b5, 2015-01-01 01:10:00.485,2.869,3.861,7.437,648.743,455.261,-275.879, , , , , , ,86.819,26.345,-117.834
 13:25:35.309,eb:33:2e:f9:57:b5, 2015-01-01 01:10:00.485,2.799,3.546,5.909,660.767,317.505,-313.354, , , , , , ,91.027,27.856,-115.823
 13:25:35.309,eb:33:2e:f9:57:b5, 2015-01-01 01:10:00.485,2.776,3.625,6.631,620.85,210.205,-349.365, , , , , , ,94.949,29.471,-114.313
 13:25:35.309,eb:33:2e:f9:57:b5, 2015-01-01 01:10:00.485,3.078,3.312,8.509,559.082,179.81,-376.77, , , , , , ,98.542,31.179,-112.928
 13:25:35.309,eb:33:2e:f9:57:b5, 2015-01-01 01:10:00.485,3.909,2.704,10.125,484.314,221.008,-403.931, , , , , , ,101.953,32.932,-111.346
 13:25:35.309,eb:33:2e:f9:57:b5, 2015-01-01 01:10:00.485,4.548,1.996,10.152,432.129,271.179,-419.617, , , , , , ,105.287,34.629,-109.38
 13:25:35.309,eb:33:2e:f9:57:b5, 2015-01-01 01:10:00.485,4.534,0.981,9.436,393.494,301.208,-419.006, , , , , , ,108.759,36.216,-106.913
 13:25:35.309,eb:33:2e:f9:57:b5, 2015-01-01 01:10:00.485,4.567,-0.127,7.898,362.854,265.259,-413.94, , , , , , ,112.192,37.661,-104.255
 13:25:35.309,eb:33:2e:f9:57:b5, 2015-01-01 01:10:00.485,4.873,-0.411,6.495,314.697,220.398,-402.161, , , , , , ,115.389,39.078,-101.805
 13:25:35.351,eb:33:2e:f9:57:b5, 2015-01-01 01:10:00.485,4.31,-1.28,6.655,259.216,212.219,-377.808, , , , , , ,118.229,40.292,-99.498
 13:25:35.351,eb:33:2e:f9:57:b5, 2015-01-01 01:10:00.485,3.711,-1.685,5.601,214.233,146.118,-353.088, , , , , , ,120.828,41.429,-97.311
 13:25:35.351,eb:33:2e:f9:57:b5, 2015-01-01 01:10:00.485,3.619,-1.747,5.133,165.039,78.674,-338.501, , , , , , ,122.975,42.627,-95.405
 13:25:35.351,eb:33:2e:f9:57:b5, 2015-01-01 01:10:00.485,3.456,-2.055,5.429,112.488,58.167,-312.012, , , , , , ,124.739,43.786,-93.801
 13:25:35.351,eb:33:2e:f9:57:b5, 2015-01-01 01:10:00.485,3.35,-2.395,5.442,67.688,50.964,-285.461, , , , , , ,126.09,44.841,-92.439
 13:25:35.351,eb:33:2e:f9:57:b5, 2015-01-01 01:10:00.485,3.4,-2.711,5.227,32.898,49.561,-252.014, , , , , , ,127.326,45.758,-91.027
 13:25:35.351,eb:33:2e:f9:57:b5, 2015-01-01 01:10:00.485,3.247,-3.033,4.889,-0.916,61.096,-215.881, , , , , , ,128.353,46.478,-89.626
 13:25:35.351,eb:33:2e:f9:57:b5, 2015-01-01 01:10:00.485,3.118,-3.319,4.257,-34.729,57.8,-185.913, , , , , , ,129.155,47.065,-88.374
 13:25:35.397,eb:33:2e:f9:57:b5, 2015-01-01 01:10:00.485,3.09,-3.645,3.463,-67.932,34.241,-151.123, , , , , , ,129.507,47.576,-87.49
 13:25:35.397,eb:33:2e:f9:57:b5, 2015-01-01 01:10:00.485,2.917,-4,2.674,-107.849,8.362,-109.68, , , , , , ,129.578,47.999,-86.776
 13:25:35.397,eb:33:2e:f9:57:b5, 2015-01-01 01:10:00.485,2.659,-4.505,1.73,-151.306,-31.372,-62.317, , , , , , ,129.139,48.356,-86.396
 13:25:35.397,eb:33:2e:f9:57:b5, 2015-01-01 01:10:00.485,2.531,-5.184,0.586,-206.787,-70.496,-7.507, , , , , , ,128.09,48.647,-86.578
 13:25:35.397,eb:33:2e:f9:57:b5, 2015-01-01 01:10:00.485,2.681,-6.149,-0.81,-271.606,-121.46,52.49, , , , , , ,126.183,48.851,-87.451
 13:25:35.397,eb:33:2e:f9:57:b5, 2015-01-01 01:10:00.485,3,-7.254,-1.967,-353.027,-162.598,119.751, , , , , , ,123.591,48.895,-88.77
 13:25:35.398,eb:33:2e:f9:57:b5, 2015-01-01 01:10:00.485,3.372,-8.073,-2.703,-453.43,-186.829,192.993, , , , , , ,120.174,48.669,-90.505
 13:25:35.398,eb:33:2e:f9:57:b5, 2015-01-01 01:10:00.485,3.524,-8.202,-2.751,-561.523,-202.393,261.292, , , , , , ,115.988,48.098,-92.642
 13:25:35.421,eb:33:2e:f9:57:b5, 2015-01-01 01:10:00.485,3.596,-7.062,-2.184,-655.334,-244.202,308.167, , , , , , ,111.028,47.214,-95.125
 13:25:35.421,eb:33:2e:f9:57:b5, 2015-01-01 01:10:00.485,3.942,-5.633,-1.429,-723.206,-330.444,328.674, , , , , , ,105.518,46.137,-97.899
 13:25:35.421,eb:33:2e:f9:57:b5, 2015-01-01 01:10:00.485,4.181,-4.538,-0.321,-781.128,-407.593,330.75, , , , , , ,99.476,44.934,-100.992
 13:25:35.421,eb:33:2e:f9:57:b5, 2015-01-01 01:10:00.485,4.398,-3.836,0.91,-832.092,-463.928,324.341, , , , , , ,93.093,43.55,-104.315
 13:25:35.421,eb:33:2e:f9:57:b5, 2015-01-01 01:10:00.485,4.493,-3.531,2.374,-880.127,-483.826,313.66, , , , , , ,86.49,41.946,-107.677
 13:25:35.421,eb:33:2e:f9:57:b5, 2015-01-01 01:10:00.485,4.417,-3.026,3.701,-923.401,-486.816,297.424, , , , , , ,80.013,40.15,-110.638
 13:25:35.421,eb:33:2e:f9:57:b5, 2015-01-01 01:10:00.485,4.418,-2.264,4.796,-955.017,-498.84,273.438, , , , , , ,73.597,38.21,-113.264
 13:25:35.421,eb:33:2e:f9:57:b5, 2015-01-01 01:10:00.485,4.472,-1.518,5.75,-970.459,-520.264,241.638, , , , , , ,67.269,36.151,-115.746
 13:25:35.465,eb:33:2e:f9:57:b5, 2015-01-01 01:10:00.485,4.403,-0.89,6.479,-973.511,-547.974,202.82, , , , , , ,60.952,33.97,-118.235
 13:25:35.465,eb:33:2e:f9:57:b5, 2015-01-01 01:10:00.485,4.274,-0.447,7.096,-974.121,-563.171,162.354, , , , , , ,54.86,31.729,-120.487
 13:25:35.465,eb:33:2e:f9:57:b5, 2015-01-01 01:10:00.485,4.229,0.016,7.583,-975.037,-565.125,117.249, , , , , , ,48.917,29.454,-122.542
 13:25:35.465,eb:33:2e:f9:57:b5, 2015-01-01 01:10:00.485,4.235,0.497,7.917,-972.229,-556.335,72.083, , , , , , ,43.127,27.18,-124.481
 13:25:35.465,eb:33:2e:f9:57:b5, 2015-01-01 01:10:00.485,4.148,0.993,7.991,-958.557,-542.542,18.738, , , , , , ,37.425,24.906,-126.414
 13:25:35.465,eb:33:2e:f9:57:b5, 2015-01-01 01:10:00.485,3.928,1.352,7.21,-930.786,-555.969,-50.293, , , , , , ,31.981,22.725,-128.21
 13:25:35.465,eb:33:2e:f9:57:b5, 2015-01-01 01:10:00.485,3.537,1.034,6.373,-911.194,-595.093,-93.079, , , , , , ,26.697,20.38,-130.073
 13:25:35.465,eb:33:2e:f9:57:b5, 2015-01-01 01:10:00.485,2.535,0.541,6.073,-894.775,-632.141,-108.459, , , , , , ,21.588,17.798,-131.902
 13:25:35.511,eb:33:2e:f9:57:b5, 2015-01-01 01:10:00.485,1.192,-0.275,5.596,-869.019,-690.857,-83.74, , , , , , ,16.65,14.711,-133.643
 13:25:35.511,eb:33:2e:f9:57:b5, 2015-01-01 01:10:00.485,0.257,-1.042,5.717,-818.054,-740.051,-22.339, , , , , , ,12.178,11.288,-134.802
 13:25:35.511,eb:33:2e:f9:57:b5, 2015-01-01 01:10:00.485,-0.395,-1.326,6.337,-754.333,-751.465,70.312, , , , , , ,8.19,7.564,-135.297
 13:25:35.511,eb:33:2e:f9:57:b5, 2015-01-01 01:10:00.485,-0.685,-0.702,6.927,-699.158,-721.069,171.692, , , , , , ,4.609,3.84,-135.049
 13:25:35.511,eb:33:2e:f9:57:b5, 2015-01-01 01:10:00.485,-1.052,0.951,7.154,-659.546,-673.95,255.798, , , , , , ,1.187,0.242,-134.198
 13:25:35.511,eb:33:2e:f9:57:b5, 2015-01-01 01:10:00.485,-1.613,2.976,6.646,-623.901,-652.039,300.232, , , , , , ,-2.032,-3.032,-132.742
 13:25:35.511,eb:33:2e:f9:57:b5, 2015-01-01 01:10:00.485,-2.248,4.788,5.871,-582.031,-664.062,304.749, , , , , , ,-5.175,-6.213,-130.99
 13:25:35.511,eb:33:2e:f9:57:b5, 2015-01-01 01:10:00.485,-3.02,6.024,5.677,-539.429,-683.716,286.194, , , , , , ,-8.207,-9.404,-129.117
 13:25:35.577,eb:33:2e:f9:57:b5, 2015-01-01 01:10:00.800,-3.991,6.875,6.462,-509.338,-679.077,260.559, , , , , , ,-11.261,-12.618,-127.227
 13:25:35.577,eb:33:2e:f9:57:b5, 2015-01-01 01:10:00.800,-5.155,7.789,7.919,-495.85,-631.836,237.915, , , , , , ,-14.244,-15.535,-125.244
 13:25:35.577,eb:33:2e:f9:57:b5, 2015-01-01 01:10:00.800,-6.201,8.902,9.068,-486.267,-547.668,217.896, , , , , , ,-17.265,-18.045,-123.283
 13:25:35.577,eb:33:2e:f9:57:b5, 2015-01-01 01:10:00.800,-6.95,9.944,9.378,-460.571,-448.303,199.28, , , , , , ,-20.237,-20.028,-121.415
 13:25:35.577,eb:33:2e:f9:57:b5, 2015-01-01 01:10:00.800,-7.703,11.035,9.5,-396.484,-343.018,173.279, , , , , , ,-23.016,-21.522,-119.745
 13:25:35.577,eb:33:2e:f9:57:b5, 2015-01-01 01:10:00.800,-7.693,11.962,9.283,-296.753,-261.169,137.146, , , , , , ,-25.236,-22.544,-118.35
 13:25:35.578,eb:33:2e:f9:57:b5, 2015-01-01 01:10:00.800,-8.008,12.272,8.818,-194.702,-168.64,85.876, , , , , , ,-26.801,-23.264,-117.339
 13:25:35.578,eb:33:2e:f9:57:b5, 2015-01-01 01:10:00.800,-7.931,11.704,7.833,-81.604,-51.147,51.086, , , , , , ,-27.702,-23.582,-116.763
 13:25:35.599,eb:33:2e:f9:57:b5, 2015-01-01 01:10:00.800,-6.178,10.676,6.338,-23.376,-27.954,-18.494, , , , , , ,-28.098,-23.571,-116.45
 13:25:35.599,eb:33:2e:f9:57:b5, 2015-01-01 01:10:00.800,-6.333,10.792,7.333,15.686,75.684,-0.305, , , , , , ,-28.059,-23.324,-116.587
 13:25:35.599,eb:33:2e:f9:57:b5, 2015-01-01 01:10:00.800,-4.476,11.435,5.647,57.922,91.919,-47.852, , , , , , ,-27.719,-23.055,-116.944
 13:25:35.599,eb:33:2e:f9:57:b5, 2015-01-01 01:10:00.800,-3.62,11.403,4.396,99.06,129.944,-94.055, , , , , , ,-27.048,-22.698,-117.592
 13:25:35.599,eb:33:2e:f9:57:b5, 2015-01-01 01:10:00.800,-3.062,10.429,2.792,163.696,106.384,-158.875, , , , , , ,-25.999,-22.473,-118.515
 13:25:35.599,eb:33:2e:f9:57:b5, 2015-01-01 01:10:00.800,-2.825,8.687,2.353,230.103,75.378,-188.66, , , , , , ,-24.565,-22.451,-119.597
 13:25:35.599,eb:33:2e:f9:57:b5, 2015-01-01 01:10:00.800,-2.556,6.598,2.473,283.447,67.2,-192.688, , , , , , ,-22.824,-22.533,-120.712
 13:25:35.599,eb:33:2e:f9:57:b5, 2015-01-01 01:10:00.800,-1.748,4.486,2.334,320.801,83.801,-166.199, , , , , , ,-20.885,-22.516,-121.761
 13:25:35.645,eb:33:2e:f9:57:b5, 2015-01-01 01:10:00.800,0.125,2.928,2.075,348.694,120.117,-124.756, , , , , , ,-18.814,-22.247,-122.673
 13:25:35.645,eb:33:2e:f9:57:b5, 2015-01-01 01:10:00.800,0.97,6.625,10.119,832.458,560.73,-434.082, , , , , , ,-14.722,-22.264,-124.135
 13:25:35.645,eb:33:2e:f9:57:b5, 2015-01-01 01:10:00.800,-2.45,-0.432,-5.952,1002.319,-12.085,-294.495, , , , , , ,-8.86,-20.934,-126.953
 13:25:35.645,eb:33:2e:f9:57:b5, 2015-01-01 01:10:00.800,4.52,4.562,6.966,560.242,414.673,-280.334, , , , , , ,-4.609,-19.666,-128.892
 13:25:35.645,eb:33:2e:f9:57:b5, 2015-01-01 01:10:00.800,-2.016,8.812,12.892,155.823,630.31,64.819, , , , , , ,-2.84,-17.139,-129.199
 13:25:35.645,eb:33:2e:f9:57:b5, 2015-01-01 01:10:00.800,-1.717,4.554,7.924,-11.169,728.943,70.496, , , , , , ,-2.774,-13.425,-129.001
 13:25:35.645,eb:33:2e:f9:57:b5, 2015-01-01 01:10:00.800,-1.107,-2.954,1.148,148.193,491.15,65.186, , , , , , ,-2.395,-10.574,-128.864
 13:25:35.645,eb:33:2e:f9:57:b5, 2015-01-01 01:10:00.800,-0.548,-1.549,0.546,304.382,174.744,-39.368, , , , , , ,-1.143,-9.102,-128.798
 13:25:35.667,eb:33:2e:f9:57:b5, 2015-01-01 01:10:00.800,-0.769,-0.513,1.458,259.766,178.101,30.029, , , , , , ,0.346,-8.19,-128.903
 13:25:35.667,eb:33:2e:f9:57:b5, 2015-01-01 01:10:00.800,-1.566,0.352,1.04,247.009,137.512,7.263, , , , , , ,1.582,-7.531,-128.771
 13:25:35.667,eb:33:2e:f9:57:b5, 2015-01-01 01:10:00.800,-1.282,0.321,-0.237,208.679,171.692,4.211, , , , , , ,2.692,-6.669,-128.683
 13:25:35.667,eb:33:2e:f9:57:b5, 2015-01-01 01:10:00.800,1.785,1.047,-0.418,205.933,13.611,-38.574, , , , , , ,3.724,-6.328,-128.793
 13:25:35.667,eb:33:2e:f9:57:b5, 2015-01-01 01:10:00.800,0.785,1.027,2.325,196.899,99.182,-55.847, , , , , , ,4.796,-6.031,-129.001
 13:25:35.667,eb:33:2e:f9:57:b5, 2015-01-01 01:10:00.800,-0.538,-0.048,2.419,198.425,221.497,-46.936, , , , , , ,5.79,-5.065,-129.166
 13:25:35.667,eb:33:2e:f9:57:b5, 2015-01-01 01:10:00.800,0.517,-0.145,1.811,208.557,175.842,-70.068, , , , , , ,6.828,-4.07,-129.37
 13:25:35.667,eb:33:2e:f9:57:b5, 2015-01-01 01:10:00.800,-0.083,0.605,0.912,232.544,110.046,-73.853, , , , , , ,7.96,-3.389,-129.655
 13:25:35.758,eb:33:2e:f9:57:b5, 2015-01-01 01:10:00.800,-1.116,-0.396,3.316,276.917,143.005,-42.664, , , , , , ,9.311,-2.736,-129.809
 13:25:35.758,eb:33:2e:f9:57:b5, 2015-01-01 01:10:00.800,0.124,-1.538,4.49,325.134,243.042,-2.014, , , , , , ,10.844,-1.725,-129.716
 13:25:35.758,eb:33:2e:f9:57:b5, 2015-01-01 01:10:00.800,0.173,-0.508,3.059,367.004,256.104,32.043, , , , , , ,12.596,-0.489,-129.353
 13:25:35.758,eb:33:2e:f9:57:b5, 2015-01-01 01:10:00.800,-0.906,-0.109,2.775,383.362,237.366,48.401, , , , , , ,14.485,0.654,-128.848
 13:25:35.758,eb:33:2e:f9:57:b5, 2015-01-01 01:10:00.800,-0.903,-1.367,3.59,409.729,220.215,74.707, , , , , , ,16.529,1.703,-128.221
 13:25:35.758,eb:33:2e:f9:57:b5, 2015-01-01 01:10:00.800,-0.35,-1.132,2.821,452.271,129.272,70.251, , , , , , ,18.721,2.406,-127.601
 13:25:35.758,eb:33:2e:f9:57:b5, 2015-01-01 01:10:00.800,-0.637,-1.112,2.829,500.427,35.645,59.387, , , , , , ,21.149,2.62,-127.167
 13:25:35.758,eb:33:2e:f9:57:b5, 2015-01-01 01:10:00.800,0.232,-1.231,3.98,542.053,-17.395,40.771, , , , , , ,23.791,2.527,-126.947
 13:25:35.760,eb:33:2e:f9:57:b5, 2015-01-01 01:10:00.800,0.775,-1.743,4.641,585.571,-8.24,36.316, , , , , , ,26.664,2.422,-126.771
 13:25:35.760,eb:33:2e:f9:57:b5, 2015-01-01 01:10:00.800,0.916,-1.733,4.387,651.978,-20.203,17.395, , , , , , ,29.789,2.291,-126.7
 13:25:35.760,eb:33:2e:f9:57:b5, 2015-01-01 01:10:00.800,0.67,-1.564,4.828,728.027,-42.48,-10.62, , , , , , ,33.267,2.142,-126.749
 13:25:35.760,eb:33:2e:f9:57:b5, 2015-01-01 01:10:00.800,0.965,-1.749,6.231,811.218,-35.828,-43.823, , , , , , ,37.15,2.06,-127.002
 13:25:35.760,eb:33:2e:f9:57:b5, 2015-01-01 01:10:00.800,1.845,-2.255,8.819,898.376,68.115,-67.444, , , , , , ,41.49,2.329,-127.189
 13:25:35.760,eb:33:2e:f9:57:b5, 2015-01-01 01:10:00.800,2.738,-1.646,10.081,975.769,197.266,-83.374, , , , , , ,46.23,3.126,-126.909
 13:25:35.760,eb:33:2e:f9:57:b5, 2015-01-01 01:10:00.800,3.028,-0.07,10.462,1041.443,197.693,-122.009, , , , , , ,51.339,4.197,-126.464
 13:25:35.760,eb:33:2e:f9:57:b5, 2015-01-01 01:10:00.800,3.559,2.25,9.428,1052.368,54.443,-160.156, , , , , , ,56.602,5.246,-126.31
 13:25:35.780,eb:33:2e:f9:57:b5, 2015-01-01 01:10:00.800,3.224,5.544,8.069,978.882,33.203,-230.225, , , , , , ,61.617,6.279,-126.722
 13:25:35.780,eb:33:2e:f9:57:b5, 2015-01-01 01:10:00.800,2.136,8.051,6.085,817.505,45.166,-371.643, , , , , , ,66.05,7.674,-127.271
 13:25:35.780,eb:33:2e:f9:57:b5, 2015-01-01 01:10:00.800,-1.545,2.451,3.132,618.347,145.203,-310.791, , , , , , ,69.456,9.514,-127.452
 13:25:35.780,eb:33:2e:f9:57:b5, 2015-01-01 01:10:00.800,-2.697,3.822,-1.462,432.922,158.142,-177.551, , , , , , ,72.164,10.97,-126.953
 13:25:35.780,eb:33:2e:f9:57:b5, 2015-01-01 01:10:00.800,0.158,1.092,2.155,235.901,231.079,-36.926, , , , , , ,73.79,11.706,-126.238
 13:25:35.780,eb:33:2e:f9:57:b5, 2015-01-01 01:10:00.800,1.927,1.062,8.934,234.619,515.076,55.481, , , , , , ,75.3,12.129,-124.239
 13:25:35.780,eb:33:2e:f9:57:b5, 2015-01-01 01:10:00.800,2.676,5.602,10.212,391.724,624.084,22.705, , , , , , ,77.558,12.623,-121.124
 13:25:35.780,eb:33:2e:f9:57:b5, 2015-01-01 01:10:00.800,2.972,6.78,9.027,589.783,524.048,-55.542, , , , , , ,80.766,13.288,-118.251
 13:25:35.847,eb:33:2e:f9:57:b5, 2015-01-01 01:10:00.800,3.325,4.995,5.984,714.844,314.27,-126.953, , , , , , ,84.578,14.046,-116.296
 13:25:35.847,eb:33:2e:f9:57:b5, 2015-01-01 01:10:00.800,3.16,4.291,4.993,710.754,141.113,-226.746, , , , , , ,88.451,15.035,-115.241
 13:25:35.847,eb:33:2e:f9:57:b5, 2015-01-01 01:10:00.800,3.057,4.387,6.94,631.531,67.749,-327.515, , , , , , ,91.906,16.479,-114.714
 13:25:35.847,eb:33:2e:f9:57:b5, 2015-01-01 01:10:00.800,3.662,3.818,9.971,546.753,82.275,-414.307, , , , , , ,94.955,18.364,-114.247
 13:25:35.847,eb:33:2e:f9:57:b5, 2015-01-01 01:10:00.800,4.502,3.055,11.484,472.778,159.18,-482.849, , , , , , ,97.718,20.544,-113.395
 13:25:35.847,eb:33:2e:f9:57:b5, 2015-01-01 01:10:00.800,5.164,1.943,11.043,401.001,278.809,-562.073, , , , , , ,100.481,22.994,-111.764
 13:25:35.847,eb:33:2e:f9:57:b5, 2015-01-01 01:10:00.800,5.352,0.562,9.721,364.624,290.71,-597.961, , , , , , ,103.304,25.543,-109.435
 13:25:35.847,eb:33:2e:f9:57:b5, 2015-01-01 01:10:00.800,5.101,-0.649,7.782,325.684,242.31,-600.525, , , , , , ,106.051,28.12,-107.133
 13:25:35.870,eb:33:2e:f9:57:b5, 2015-01-01 01:10:00.800,4.67,-1.814,6.178,281.982,144.226,-584.961, , , , , , ,108.457,30.668,-105.211
 13:25:35.870,eb:33:2e:f9:57:b5, 2015-01-01 01:10:00.800,4.194,-2.672,5.504,216.98,73.12,-545.776, , , , , , ,110.555,33.157,-103.557
 13:25:35.870,eb:33:2e:f9:57:b5, 2015-01-01 01:10:00.800,3.808,-3.085,5.5,144.592,36.926,-495.239, , , , , , ,112.225,35.469,-102.063
 13:25:35.870,eb:33:2e:f9:57:b5, 2015-01-01 01:10:00.800,3.471,-3.232,5.884,77.515,38.757,-432.007, , , , , , ,113.527,37.513,-100.745
 13:25:35.870,eb:33:2e:f9:57:b5, 2015-01-01 01:10:00.800,3.174,-3.094,6.116,20.447,62.744,-384.399, , , , , , ,114.472,39.243,-99.476
 13:25:35.870,eb:33:2e:f9:57:b5, 2015-01-01 01:10:00.800,3.078,-3.37,5.761,-13.794,77.576,-327.698, , , , , , ,115.367,40.682,-98.075
 13:25:35.870,eb:33:2e:f9:57:b5, 2015-01-01 01:10:00.800,3.06,-3.685,5.05,-46.875,97.168,-267.944, , , , , , ,116.12,41.808,-96.608
 13:25:35.870,eb:33:2e:f9:57:b5, 2015-01-01 01:10:00.800,3.017,-3.829,4.155,-87.28,108.521,-210.632, , , , , , ,116.669,42.627,-95.257
 13:25:35.938,eb:33:2e:f9:57:b5, 2015-01-01 01:10:00.800,2.875,-3.965,3.252,-132.629,116.882,-159.79, , , , , , ,116.812,43.176,-94.158
 13:25:35.938,eb:33:2e:f9:57:b5, 2015-01-01 01:10:00.800,2.707,-4.278,2.346,-170.105,82.52,-96.191, , , , , , ,116.724,43.484,-93.148
 13:25:35.938,eb:33:2e:f9:57:b5, 2015-01-01 01:10:00.800,2.586,-4.455,1.685,-204.895,35.522,-48.828, , , , , , ,116.136,43.671,-92.543
 13:25:35.938,eb:33:2e:f9:57:b5, 2015-01-01 01:10:00.800,2.425,-4.741,0.95,-242.004,-16.296,-1.648, , , , , , ,115.054,43.748,-92.466
 13:25:35.938,eb:33:2e:f9:57:b5, 2015-01-01 01:10:00.800,2.407,-5.333,-0.292,-283.264,-94.238,46.814, , , , , , ,113.28,43.753,-93.06
 13:25:35.938,eb:33:2e:f9:57:b5, 2015-01-01 01:10:00.800,2.518,-6.015,-1.397,-340.576,-154.053,92.896, , , , , , ,110.978,43.66,-94.098
 13:25:35.938,eb:33:2e:f9:57:b5, 2015-01-01 01:10:00.800,2.828,-6.491,-2.252,-414.185,-208.679,136.047, , , , , , ,108.04,43.407,-95.521
 13:25:35.938,eb:33:2e:f9:57:b5, 2015-01-01 01:10:00.800,3.322,-6.599,-2.489,-502.075,-255.31,173.34, , , , , , ,104.425,42.979,-97.394
 13:25:35.982,eb:33:2e:f9:57:b5, 2015-01-01 01:10:01.180,3.529,-6.237,-2.015,-597.534,-282.349,205.566, , , , , , ,100.102,42.325,-99.602
 13:25:35.982,eb:33:2e:f9:57:b5, 2015-01-01 01:10:01.180,3.372,-5.242,-1.268,-682.922,-312.866,222.107, , , , , , ,95.394,41.451,-101.783
 13:25:35.982,eb:33:2e:f9:57:b5, 2015-01-01 01:10:01.180,3.461,-4.377,-0.73,-740.173,-393.25,221.68, , , , , , ,90.203,40.424,-104.161
 13:25:35.982,eb:33:2e:f9:57:b5, 2015-01-01 01:10:01.180,3.724,-3.656,0.415,-782.349,-475.83,213.501, , , , , , ,84.556,39.238,-106.996
 13:25:35.982,eb:33:2e:f9:57:b5, 2015-01-01 01:10:01.180,3.821,-3.188,1.879,-816.772,-527.039,203.674, , , , , , ,78.563,37.826,-110.116
 13:25:35.982,eb:33:2e:f9:57:b5, 2015-01-01 01:10:01.180,3.779,-2.919,3.124,-846.069,-563.599,194.824, , , , , , ,72.565,36.183,-113.148
 13:25:35.982,eb:33:2e:f9:57:b5, 2015-01-01 01:10:01.180,3.762,-2.644,4.287,-874.084,-577.271,187.256, , , , , , ,66.583,34.288,-115.977
 13:25:35.982,eb:33:2e:f9:57:b5, 2015-01-01 01:10:01.180,3.776,-2.195,5.306,-899.231,-574.219,175.903, , , , , , ,60.705,32.201,-118.586
 13:25:35.984,eb:33:2e:f9:57:b5, 2015-01-01 01:10:01.180,3.812,-1.581,6.028,-914.185,-573.547,155.334, , , , , , ,54.866,29.949,-121.025
 13:25:35.984,eb:33:2e:f9:57:b5, 2015-01-01 01:10:01.180,3.795,-0.926,6.518,-914.795,-581.482,125.244, , , , , , ,49.268,27.631,-123.14
 13:25:35.984,eb:33:2e:f9:57:b5, 2015-01-01 01:10:01.180,3.774,-0.301,6.823,-903.931,-593.262,87.708, , , , , , ,43.835,25.23,-125.085
 13:25:35.984,eb:33:2e:f9:57:b5, 2015-01-01 01:10:01.180,3.637,0.168,6.916,-887.268,-606.567,45.227, , , , , , ,38.589,22.758,-126.996
 13:25:35.984,eb:33:2e:f9:57:b5, 2015-01-01 01:10:01.180,3.378,0.437,6.711,-868.591,-620.789,-3.906, , , , , , ,33.426,20.165,-128.996
 13:25:35.984,eb:33:2e:f9:57:b5, 2015-01-01 01:10:01.180,3.065,0.359,6.482,-853.943,-632.385,-36.743, , , , , , ,28.537,17.54,-130.814
 13:25:35.984,eb:33:2e:f9:57:b5, 2015-01-01 01:10:01.180,2.734,-0.004,6.362,-837.769,-643.799,-55.664, , , , , , ,23.84,14.777,-132.484
 13:25:35.984,eb:33:2e:f9:57:b5, 2015-01-01 01:10:01.180,2.026,-0.404,6.325,-821.167,-646.423,-55.054, , , , , , ,19.358,11.887,-133.978
 13:25:36.027,eb:33:2e:f9:57:b5, 2015-01-01 01:10:01.180,1.29,-0.937,5.831,-799.133,-673.95,-25.513, , , , , , ,15.007,8.701,-135.269
 13:25:36.027,eb:33:2e:f9:57:b5, 2015-01-01 01:10:01.180,0.712,-1.486,5.752,-767.456,-706.787,29.358, , , , , , ,11.008,5.312,-136.027
 13:25:36.027,eb:33:2e:f9:57:b5, 2015-01-01 01:10:01.180,0.287,-1.734,6.064,-731.934,-726.013,106.018, , , , , , ,7.262,1.703,-136.208
 13:25:36.027,eb:33:2e:f9:57:b5, 2015-01-01 01:10:01.180,-0.024,-1.31,6.576,-704.102,-718.018,187.622, , , , , , ,3.686,-1.967,-135.78
 13:25:36.027,eb:33:2e:f9:57:b5, 2015-01-01 01:10:01.180,-0.575,-0.011,7.012,-685.425,-687.439,256.042, , , , , , ,0.055,-5.587,-134.819
 13:25:36.027,eb:33:2e:f9:57:b5, 2015-01-01 01:10:01.180,-1.397,1.877,6.939,-662.231,-674.5,297.485, , , , , , ,-3.494,-8.926,-133.286
 13:25:36.027,eb:33:2e:f9:57:b5, 2015-01-01 01:10:01.180,-2.451,3.734,6.747,-624.451,-690.063,311.707, , , , , , ,-7.048,-12.184,-131.402
 13:25:36.027,eb:33:2e:f9:57:b5, 2015-01-01 01:10:01.180,-3.626,5.113,6.956,-579.468,-705.627,313.232, , , , , , ,-10.547,-15.408,-129.254
 13:25:36.071,eb:33:2e:f9:57:b5, 2015-01-01 01:10:01.180,-4.699,6.22,7.745,-544.922,-694.153,315.186, , , , , , ,-14.128,-18.572,-126.909
 13:25:36.071,eb:33:2e:f9:57:b5, 2015-01-01 01:10:01.180,-5.735,7.401,9.037,-523.743,-636.597,324.829, , , , , , ,-17.677,-21.319,-124.299
 13:25:36.071,eb:33:2e:f9:57:b5, 2015-01-01 01:10:01.180,-6.645,8.928,10.353,-499.329,-544.983,332.031, , , , , , ,-21.275,-23.527,-121.575
 13:25:36.071,eb:33:2e:f9:57:b5, 2015-01-01 01:10:01.180,-7.024,10.693,11.147,-453.491,-431.03,323.242, , , , , , ,-24.747,-25.087,-118.894
 13:25:36.071,eb:33:2e:f9:57:b5, 2015-01-01 01:10:01.180,-7.3,12.289,11.113,-368.53,-293.884,304.81, , , , , , ,-27.894,-25.999,-116.483
 13:25:36.071,eb:33:2e:f9:57:b5, 2015-01-01 01:10:01.180,-6.312,12.474,9.823,-273.682,-207.947,264.343, , , , , , ,-30.377,-26.356,-114.368
 13:25:36.071,eb:33:2e:f9:57:b5, 2015-01-01 01:10:01.180,-5.811,12.434,8.88,-175.354,-105.53,178.894, , , , , , ,-32.124,-26.433,-112.863
 13:25:36.071,eb:33:2e:f9:57:b5, 2015-01-01 01:10:01.180,-6.503,11.9,8.315,-114.319,66.162,96.68, , , , , , ,-33.107,-26.027,-112.192
 13:25:36.116,eb:33:2e:f9:57:b5, 2015-01-01 01:10:01.180,-4.502,12.402,6.561,-57.617,34.424,44.8, , , , , , ,-33.64,-25.703,-111.896
 13:25:36.116,eb:33:2e:f9:57:b5, 2015-01-01 01:10:01.180,-4.375,12.572,5.822,-11.169,119.751,49.255, , , , , , ,-33.772,-25.164,-111.912
 13:25:36.116,eb:33:2e:f9:57:b5, 2015-01-01 01:10:01.180,-3.568,12.283,3.759,36.743,107.117,7.446, , , , , , ,-33.607,-24.587,-112.159
 13:25:36.116,eb:33:2e:f9:57:b5, 2015-01-01 01:10:01.180,-3.049,11.42,3.514,108.704,102.966,-40.466, , , , , , ,-33.041,-24.208,-112.577
 13:25:36.116,eb:33:2e:f9:57:b5, 2015-01-01 01:10:01.180,-2.491,9.777,2.937,189.087,95.032,-78.308, , , , , , ,-31.998,-23.961,-113.154
 13:25:36.116,eb:33:2e:f9:57:b5, 2015-01-01 01:10:01.180,-2.198,7.909,2.612,249.329,96.863,-87.83, , , , , , ,-30.591,-23.769,-113.835
 13:25:36.116,eb:33:2e:f9:57:b5, 2015-01-01 01:10:01.180,-1.484,6.119,2.021,288.757,85.51,-76.965, , , , , , ,-28.96,-23.577,-114.494
 13:25:36.116,eb:33:2e:f9:57:b5, 2015-01-01 01:10:01.180,-0.74,4.566,1.544,314.819,78.796,-62.256, , , , , , ,-27.224,-23.379,-115.027
 13:25:36.162,eb:33:2e:f9:57:b5, 2015-01-01 01:10:01.180,4.227,3.436,0.701,331.482,71.594,-53.711, , , , , , ,-25.378,-23.148,-115.488
 13:25:36.162,eb:33:2e:f9:57:b5, 2015-01-01 01:10:01.180,1.505,7.843,7.539,1021.057,113.525,-377.747, , , , , , ,-21.412,-23.73,-116.208
 13:25:36.162,eb:33:2e:f9:57:b5, 2015-01-01 01:10:01.180,-6.239,1.63,-4.559,1212.463,-29.968,-188.049, , , , , , ,-14.535,-22.593,-119.427
 13:25:36.162,eb:33:2e:f9:57:b5, 2015-01-01 01:10:01.180,5.094,6.38,7.387,848.022,-12.512,-488.647, , , , , , ,-8.723,-22.906,-121.855
 13:25:36.162,eb:33:2e:f9:57:b5, 2015-01-01 01:10:01.180,7.362,6.832,14.127,378.296,94.666,43.762, , , , , , ,-5.191,-23.401,-122.662
 13:25:36.162,eb:33:2e:f9:57:b5, 2015-01-01 01:10:01.180,1.085,11.146,12.04,43.884,627.197,-48.523, , , , , , ,-4.433,-21.149,-122.811
 13:25:36.162,eb:33:2e:f9:57:b5, 2015-01-01 01:10:01.180,-0.638,-2.504,2.577,131.348,668.213,26.611, , , , , , ,-3.933,-17.781,-123.376
 13:25:36.162,eb:33:2e:f9:57:b5, 2015-01-01 01:10:01.180,0.996,-3.088,-1.002,274.231,306.274,48.218, , , , , , ,-2.933,-15.326,-123.085
 13:25:36.185,eb:33:2e:f9:57:b5, 2015-01-01 01:10:01.180,-0.346,0.12,2.062,284.79,275.696,-35.217, , , , , , ,-1.291,-14.041,-123.278
 13:25:36.185,eb:33:2e:f9:57:b5, 2015-01-01 01:10:01.180,-1.854,0.174,0.648,215.271,385.132,22.034, , , , , , ,-0.165,-12.195,-123.245
 13:25:36.185,eb:33:2e:f9:57:b5, 2015-01-01 01:10:01.180,-1.974,0.686,-0.862,220.276,252.93,-35.828, , , , , , ,0.939,-10.695,-123.294
 13:25:36.185,eb:33:2e:f9:57:b5, 2015-01-01 01:10:01.180,0.973,1.178,-0.554,187.866,147.278,-72.327, , , , , , ,2,-9.745,-123.569
 13:25:36.185,eb:33:2e:f9:57:b5, 2015-01-01 01:10:01.180,0.837,0.734,0.971,164.307,188.232,-90.271, , , , , , ,2.977,-8.904,-123.981
 13:25:36.185,eb:33:2e:f9:57:b5, 2015-01-01 01:10:01.180,-1.79,0.242,1.283,154.358,305.847,-71.228, , , , , , ,3.801,-7.515,-124.294
 13:25:36.185,eb:33:2e:f9:57:b5, 2015-01-01 01:10:01.180,-0.386,-0.394,0.331,177.612,159.18,-82.031, , , , , , ,4.658,-6.317,-124.585
 13:25:36.185,eb:33:2e:f9:57:b5, 2015-01-01 01:10:01.180,0.628,0.153,1.232,232.178,23.071,-76.111, , , , , , ,5.746,-5.993,-124.942
 13:25:36.274,eb:33:2e:f9:57:b5, 2015-01-01 01:10:01.180,-0.054,-0.582,4.877,270.203,141.174,-44.678, , , , , , ,7.103,-5.521,-125.206
 13:25:36.274,eb:33:2e:f9:57:b5, 2015-01-01 01:10:01.180,0.079,-1.217,4.905,334.229,230.042,-9.521, , , , , , ,8.63,-4.482,-125.173
 13:25:36.274,eb:33:2e:f9:57:b5, 2015-01-01 01:10:01.180,0.818,-0.635,4.97,384.949,276.123,-2.441, , , , , , ,10.453,-3.246,-124.991
 13:25:36.274,eb:33:2e:f9:57:b5, 2015-01-01 01:10:01.180,-0.086,-1.149,4.747,417.236,372.192,63.538, , , , , , ,12.458,-1.62,-124.481
 13:25:36.274,eb:33:2e:f9:57:b5, 2015-01-01 01:10:01.180,-0.574,-1.026,2.814,457.153,305.115,78.003, , , , , , ,14.694,-0.005,-123.701
 13:25:36.274,eb:33:2e:f9:57:b5, 2015-01-01 01:10:01.180,-0.3,-1.091,2.898,496.826,190.43,61.829, , , , , , ,17.111,1.011,-123.041
 13:25:36.274,eb:33:2e:f9:57:b5, 2015-01-01 01:10:01.180,-0.244,-1.593,3.436,539.856,129.822,60.669, , , , , , ,19.731,1.642,-122.514
 13:25:36.274,eb:33:2e:f9:57:b5, 2015-01-01 01:10:01.180,0.795,-1.085,3.086,596.741,30.396,29.602, , , , , , ,22.604,1.895,-122.168
 13:25:36.277,eb:33:2e:f9:57:b5, 2015-01-01 01:10:01.180,0.491,-1.668,3.532,650.33,-23.56,-2.625, , , , , , ,25.79,1.884,-122.146
 13:25:36.277,eb:33:2e:f9:57:b5, 2015-01-01 01:10:01.180,0.521,-1.73,4.778,701.782,-41.504,-35.278, , , , , , ,29.196,1.796,-122.322
 13:25:36.277,eb:33:2e:f9:57:b5, 2015-01-01 01:10:01.180,0.619,-1.927,5.187,779.358,-30.457,-53.345, , , , , , ,32.91,1.78,-122.569
 13:25:36.277,eb:33:2e:f9:57:b5, 2015-01-01 01:10:01.180,1.437,-2.119,5.846,874.695,-47.241,-86.853, , , , , , ,37.073,1.813,-123.003
 13:25:36.277,eb:33:2e:f9:57:b5, 2015-01-01 01:10:01.180,2.445,-1.023,8.417,973.206,26.062,-139.893, , , , , , ,41.754,2.153,-123.475
 13:25:36.277,eb:33:2e:f9:57:b5, 2015-01-01 01:10:01.180,2.292,-1.048,11.482,1044.678,135.01,-153.931, , , , , , ,46.84,3.038,-123.701
 13:25:36.277,eb:33:2e:f9:57:b5, 2015-01-01 01:10:01.180,2.864,1.127,11.362,1068.481,102.417,-170.227, , , , , , ,52.158,4.07,-123.766
 13:25:36.277,eb:33:2e:f9:57:b5, 2015-01-01 01:10:01.180,3.6,3.891,10.615,1013.55,77.271,-196.533, , , , , , ,57.349,5.037,-123.887
 13:25:36.342,eb:33:2e:f9:57:b5, 2015-01-01 01:10:01.180,3.158,6.012,8.055,810.608,153.931,-262.268, , , , , , ,61.842,6.454,-124.047
 13:25:36.342,eb:33:2e:f9:57:b5, 2015-01-01 01:10:01.180,2.426,4.955,2.689,549.988,240.845,-384.705, , , , , , ,65.105,8.459,-123.827
 13:25:36.342,eb:33:2e:f9:57:b5, 2015-01-01 01:10:01.180,-2.22,5.729,-0.738,350.891,242.371,-332.642, , , , , , ,67.357,10.673,-123.316
 13:25:36.342,eb:33:2e:f9:57:b5, 2015-01-01 01:10:01.180,0.278,4.814,-3.24,195.618,18.066,-294.556, , , , , , ,68.533,12.272,-123.426
 13:25:36.342,eb:33:2e:f9:57:b5, 2015-01-01 01:10:01.180,1.817,3.822,6.18,218.506,105.225,-262.207, , , , , , ,69.472,13.64,-123.701
 13:25:36.342,eb:33:2e:f9:57:b5, 2015-01-01 01:10:01.180,1.588,6.294,9.824,360.168,219.116,-279.846, , , , , , ,71.071,15.205,-123.272
 13:25:36.342,eb:33:2e:f9:57:b5, 2015-01-01 01:10:01.180,1.996,5.603,10.469,519.043,300.781,-317.749, , , , , , ,73.592,17.056,-122.371
 13:25:36.342,eb:33:2e:f9:57:b5, 2015-01-01 01:10:01.180,2.132,3.366,9.258,618.896,338.684,-309.57, , , , , , ,76.921,19.001,-121.102
 13:25:36.364,eb:33:2e:f9:57:b5, 2015-01-01 01:10:01.600,2.375,2.896,7.384,601.074,331.787,-324.646, , , , , , ,80.475,20.858,-119.756
 13:25:36.364,eb:33:2e:f9:57:b5, 2015-01-01 01:10:01.600,2.73,2.857,7.179,548.218,246.277,-319.031, , , , , , ,83.793,22.615,-118.504
 13:25:36.364,eb:33:2e:f9:57:b5, 2015-01-01 01:10:01.600,3.537,2.831,8.884,489.868,248.474,-344.177, , , , , , ,86.819,24.368,-117.29
 13:25:36.364,eb:33:2e:f9:57:b5, 2015-01-01 01:10:01.600,4.147,2.53,10.286,460.632,268.677,-370.3, , , , , , ,89.758,26.191,-115.922
 13:25:36.365,eb:33:2e:f9:57:b5, 2015-01-01 01:10:01.600,4.9,1.967,10.403,453.613,285.583,-408.936, , , , , , ,92.725,28.103,-114.346
 13:25:36.365,eb:33:2e:f9:57:b5, 2015-01-01 01:10:01.600,5.124,1.074,9.475,448.425,283.569,-444.519, , , , , , ,95.861,30.152,-112.533
 13:25:36.365,eb:33:2e:f9:57:b5, 2015-01-01 01:10:01.600,4.899,-0.095,7.949,422.607,254.15,-459.473, , , , , , ,99.025,32.234,-110.561
 13:25:36.365,eb:33:2e:f9:57:b5, 2015-01-01 01:10:01.600,4.629,-1.211,6.5,368.53,199.585,-458.862, , , , , , ,101.981,34.31,-108.754
 13:25:36.386,eb:33:2e:f9:57:b5, 2015-01-01 01:10:01.600,4.447,-1.996,5.571,292.542,147.034,-440.613, , , , , , ,104.447,36.282,-107.21
 13:25:36.386,eb:33:2e:f9:57:b5, 2015-01-01 01:10:01.600,4.054,-2.357,5.188,210.022,109.253,-410.278, , , , , , ,106.545,38.15,-105.749
 13:25:36.386,eb:33:2e:f9:57:b5, 2015-01-01 01:10:01.600,3.746,-2.508,5.29,139.465,81.848,-372.62, , , , , , ,108.204,39.875,-104.365
 13:25:36.386,eb:33:2e:f9:57:b5, 2015-01-01 01:10:01.600,3.38,-2.615,5.687,85.083,80.933,-339.722, , , , , , ,109.567,41.396,-103.074
 13:25:36.386,eb:33:2e:f9:57:b5, 2015-01-01 01:10:01.600,3.104,-2.936,5.615,46.57,79.956,-299.377, , , , , , ,110.588,42.742,-101.92
 13:25:36.386,eb:33:2e:f9:57:b5, 2015-01-01 01:10:01.600,2.978,-3.307,5.375,11.963,96.619,-253.235, , , , , , ,111.583,43.852,-100.657
 13:25:36.386,eb:33:2e:f9:57:b5, 2015-01-01 01:10:01.600,2.884,-3.626,4.775,-23.438,114.563,-204.102, , , , , , ,112.44,44.687,-99.283
 13:25:36.386,eb:33:2e:f9:57:b5, 2015-01-01 01:10:01.600,2.84,-3.857,3.906,-58.838,106.262,-151.917, , , , , , ,113.066,45.264,-98.086
 13:25:36.432,eb:33:2e:f9:57:b5, 2015-01-01 01:10:01.600,2.795,-4.127,3.194,-97.168,82.642,-95.581, , , , , , ,113.187,45.632,-97.267
 13:25:36.432,eb:33:2e:f9:57:b5, 2015-01-01 01:10:01.600,2.528,-4.374,2.657,-143.494,76.355,-44.983, , , , , , ,113.066,45.775,-96.564
 13:25:36.432,eb:33:2e:f9:57:b5, 2015-01-01 01:10:01.600,2.556,-4.653,1.628,-183.777,20.142,7.019, , , , , , ,112.473,45.753,-96.147
 13:25:36.432,eb:33:2e:f9:57:b5, 2015-01-01 01:10:01.600,2.711,-4.914,0.907,-227.844,-30.212,63.721, , , , , , ,111.292,45.582,-96.328
 13:25:36.432,eb:33:2e:f9:57:b5, 2015-01-01 01:10:01.600,2.727,-5.127,0.226,-275.391,-65.43,115.662, , , , , , ,109.462,45.236,-97.037
 13:25:36.432,eb:33:2e:f9:57:b5, 2015-01-01 01:10:01.600,2.768,-5.385,-0.806,-319.214,-112,166.687, , , , , , ,107.287,44.681,-97.976
 13:25:36.432,eb:33:2e:f9:57:b5, 2015-01-01 01:10:01.600,3.038,-5.811,-1.985,-365.784,-170.654,208.862, , , , , , ,104.606,43.962,-99.267
 13:25:36.432,eb:33:2e:f9:57:b5, 2015-01-01 01:10:01.600,3.248,-6.296,-2.902,-426.27,-230.774,248.23, , , , , , ,101.398,43.055,-101.008
 13:25:36.477,eb:33:2e:f9:57:b5, 2015-01-01 01:10:01.600,3.584,-6.352,-3.292,-500.977,-301.88,281.738, , , , , , ,97.504,41.962,-103.222
 13:25:36.477,eb:33:2e:f9:57:b5, 2015-01-01 01:10:01.600,3.756,-5.896,-2.513,-582.52,-352.844,305.969, , , , , , ,93.164,40.638,-105.634
 13:25:36.477,eb:33:2e:f9:57:b5, 2015-01-01 01:10:01.600,3.746,-5.15,-1.504,-658.875,-407.776,319.214, , , , , , ,88.401,39.089,-108.094
 13:25:36.477,eb:33:2e:f9:57:b5, 2015-01-01 01:10:01.600,3.864,-4.352,-0.28,-727.295,-471.191,323.914, , , , , , ,83.243,37.315,-110.781
 13:25:36.477,eb:33:2e:f9:57:b5, 2015-01-01 01:10:01.600,4.058,-3.789,1.378,-792.542,-514.771,325.195, , , , , , ,77.706,35.294,-113.588
 13:25:36.477,eb:33:2e:f9:57:b5, 2015-01-01 01:10:01.600,4.08,-3.436,3.017,-847.839,-530.029,323.669, , , , , , ,72.131,33.041,-116.153
 13:25:36.477,eb:33:2e:f9:57:b5, 2015-01-01 01:10:01.600,4.183,-2.898,4.343,-891.663,-532.166,317.871, , , , , , ,66.561,30.608,-118.35
 13:25:36.479,eb:33:2e:f9:57:b5, 2015-01-01 01:10:01.600,4.16,-2.044,5.617,-918.213,-527.283,302.124, , , , , , ,61.062,28.054,-120.295
 13:25:36.522,eb:33:2e:f9:57:b5, 2015-01-01 01:10:01.600,3.989,-1.207,6.475,-925.11,-532.227,277.527, , , , , , ,55.596,25.406,-122.064
 13:25:36.522,eb:33:2e:f9:57:b5, 2015-01-01 01:10:01.600,3.905,-0.611,6.88,-919.8,-548.218,244.263, , , , , , ,50.361,22.742,-123.585
 13:25:36.522,eb:33:2e:f9:57:b5, 2015-01-01 01:10:01.600,3.749,-0.147,7.1,-915.466,-552.429,213.074, , , , , , ,45.269,20.061,-124.92
 13:25:36.522,eb:33:2e:f9:57:b5, 2015-01-01 01:10:01.600,3.739,0.259,7.311,-908.63,-550.781,180.42, , , , , , ,40.314,17.386,-126.14
 13:25:36.522,eb:33:2e:f9:57:b5, 2015-01-01 01:10:01.600,3.804,0.493,7.338,-894.592,-544.678,151.672, , , , , , ,35.414,14.672,-127.31
 13:25:36.522,eb:33:2e:f9:57:b5, 2015-01-01 01:10:01.600,3.664,0.651,7.014,-874.817,-539.429,117.249, , , , , , ,30.773,12.052,-128.271
 13:25:36.522,eb:33:2e:f9:57:b5, 2015-01-01 01:10:01.600,3.481,0.707,6.447,-850.098,-555.908,82.336, , , , , , ,26.307,9.404,-129.144
 13:25:36.522,eb:33:2e:f9:57:b5, 2015-01-01 01:10:01.600,3.219,0.596,6.161,-831.116,-575.989,52.49, , , , , , ,21.995,6.674,-130.034
 13:25:36.544,eb:33:2e:f9:57:b5, 2015-01-01 01:10:01.600,2.383,0.277,5.674,-824.524,-601.44,44.25, , , , , , ,17.688,3.752,-130.897
 13:25:36.544,eb:33:2e:f9:57:b5, 2015-01-01 01:10:01.600,1.711,-0.075,5.357,-809.204,-646.606,53.101, , , , , , ,13.579,0.659,-131.512
 13:25:36.544,eb:33:2e:f9:57:b5, 2015-01-01 01:10:01.600,1.238,-0.398,5.551,-780.09,-682.312,80.933, , , , , , ,9.624,-2.681,-131.83
 13:25:36.544,eb:33:2e:f9:57:b5, 2015-01-01 01:10:01.600,0.84,-0.676,5.86,-752.014,-682.556,129.761, , , , , , ,5.801,-6.147,-131.748
 13:25:36.544,eb:33:2e:f9:57:b5, 2015-01-01 01:10:01.600,0.528,-0.33,6.268,-732.849,-654.175,184.57, , , , , , ,1.912,-9.619,-131.204
 13:25:36.544,eb:33:2e:f9:57:b5, 2015-01-01 01:10:01.600,0.053,0.771,6.466,-719.971,-624.573,233.826, , , , , , ,-1.923,-12.794,-130.106
 13:25:36.544,eb:33:2e:f9:57:b5, 2015-01-01 01:10:01.600,-0.585,2.335,6.25,-696.411,-619.385,265.015, , , , , , ,-5.839,-15.793,-128.578
 13:25:36.544,eb:33:2e:f9:57:b5, 2015-01-01 01:10:01.600,-1.277,3.922,5.877,-653.809,-645.203,278.381, , , , , , ,-9.756,-18.737,-126.705
 13:25:36.590,eb:33:2e:f9:57:b5, 2015-01-01 01:10:01.600,-2.062,5.159,5.986,-599.792,-689.392,284.729, , , , , , ,-13.738,-21.813,-124.519
 13:25:36.590,eb:33:2e:f9:57:b5, 2015-01-01 01:10:01.600,-2.843,6.059,7.091,-549.133,-715.088,293.64, , , , , , ,-17.6,-24.829,-121.959
 13:25:36.590,eb:33:2e:f9:57:b5, 2015-01-01 01:10:01.600,-3.946,7.219,8.918,-512.146,-693.176,301.575, , , , , , ,-21.5,-27.658,-119.092
 13:25:36.590,eb:33:2e:f9:57:b5, 2015-01-01 01:10:01.600,-5.023,8.576,10.498,-477.112,-627.136,308.228, , , , , , ,-25.461,-30.059,-115.988
 13:25:36.590,eb:33:2e:f9:57:b5, 2015-01-01 01:10:01.600,-5.776,10.121,11.665,-433.716,-513.489,302.673, , , , , , ,-29.41,-31.888,-112.863
 13:25:36.590,eb:33:2e:f9:57:b5, 2015-01-01 01:10:01.600,-6.142,11.376,11.765,-370.239,-372.803,267.395, , , , , , ,-32.866,-32.997,-110.11
 13:25:36.590,eb:33:2e:f9:57:b5, 2015-01-01 01:10:01.600,-6.528,12.283,10.806,-303.833,-245.728,225.525, , , , , , ,-35.722,-33.497,-107.968
 13:25:36.590,eb:33:2e:f9:57:b5, 2015-01-01 01:10:01.600,-6.523,12.488,9.754,-222.656,-169.861,162.72, , , , , , ,-37.892,-33.745,-106.359
 13:25:36.635,eb:33:2e:f9:57:b5, 2015-01-01 01:10:01.600,-5.788,12.488,8.762,-144.836,-95.886,92.773, , , , , , ,-39.397,-33.876,-105.255
 13:25:36.635,eb:33:2e:f9:57:b5, 2015-01-01 01:10:01.600,-6.465,12.16,8.811,-91.797,58.533,59.204, , , , , , ,-40.111,-33.684,-104.947
 13:25:36.635,eb:33:2e:f9:57:b5, 2015-01-01 01:10:01.600,-5.103,12.861,7.291,-41.931,59.326,-10.925, , , , , , ,-40.386,-33.393,-105.051
 13:25:36.635,eb:33:2e:f9:57:b5, 2015-01-01 01:10:01.600,-3.818,12.727,6.155,16.663,126.648,-78.003, , , , , , ,-40.078,-33.151,-105.677
 13:25:36.635,eb:33:2e:f9:57:b5, 2015-01-01 01:10:01.600,-3.489,11.778,5.426,73.425,194.885,-136.353, , , , , , ,-39.155,-32.86,-106.859
 13:25:36.635,eb:33:2e:f9:57:b5, 2015-01-01 01:10:01.600,-2.981,10.83,3.735,140.869,152.954,-187.256, , , , , , ,-37.82,-32.706,-108.27
 13:25:36.635,eb:33:2e:f9:57:b5, 2015-01-01 01:10:01.600,-2.598,9.099,3.632,207.825,133.24,-216.309, , , , , , ,-36.118,-32.778,-109.775
 13:25:36.635,eb:33:2e:f9:57:b5, 2015-01-01 01:10:01.600,-2.245,7.145,3.908,269.104,147.888,-214.417, , , , , , ,-34.052,-32.827,-111.319
 13:25:36.679,eb:33:2e:f9:57:b5, 2015-01-01 01:10:01.915,-0.662,5.65,3.311,319.214,142.883,-193.176, , , , , , ,-31.696,-32.75,-112.819
 13:25:36.679,eb:33:2e:f9:57:b5, 2015-01-01 01:10:01.915,-1.163,4.811,3.5,607.727,-161.743,-280.518, , , , , , ,-28.922,-33.025,-114.06
 13:25:36.679,eb:33:2e:f9:57:b5, 2015-01-01 01:10:01.915,2.823,6.249,9.671,937.195,717.224,-555.481, , , , , , ,-22.906,-32.64,-117.372
 13:25:36.679,eb:33:2e:f9:57:b5, 2015-01-01 01:10:01.915,-1.47,2,-0.515,930.298,535.278,-474.121, , , , , , ,-15.98,-31.036,-121.168
 13:25:36.679,eb:33:2e:f9:57:b5, 2015-01-01 01:10:01.915,3.879,5.088,8.099,655.945,651.917,-481.934, , , , , , ,-10.355,-28.378,-124.662
 13:25:36.679,eb:33:2e:f9:57:b5, 2015-01-01 01:10:01.915,0.878,3.949,12.682,287.109,791.992,14.282, , , , , , ,-7.213,-24.851,-126.508
 13:25:36.679,eb:33:2e:f9:57:b5, 2015-01-01 01:10:01.915,-4.859,5.404,8.254,17.944,905.457,210.815, , , , , , ,-6.812,-20.446,-126.123
 13:25:36.680,eb:33:2e:f9:57:b5, 2015-01-01 01:10:01.915,-2.064,1.352,1.047,82.947,630.371,98.206, , , , , , ,-6.74,-16.589,-125.799
 13:25:36.724,eb:33:2e:f9:57:b5, 2015-01-01 01:10:01.915,-1.549,-3.924,0.057,287.231,374.817,-20.569, , , , , , ,-5.587,-14.282,-125.997
 13:25:36.724,eb:33:2e:f9:57:b5, 2015-01-01 01:10:01.915,0.286,-2.511,0.086,380.615,175.964,-71.472, , , , , , ,-3.686,-13.063,-126.458
 13:25:36.724,eb:33:2e:f9:57:b5, 2015-01-01 01:10:01.915,1.136,2.463,0.841,294.189,115.54,-49.683, , , , , , ,-1.923,-12.678,-126.788
 13:25:36.724,eb:33:2e:f9:57:b5, 2015-01-01 01:10:01.915,-2.643,-0.133,2.095,211.792,382.996,65.247, , , , , , ,-0.736,-11.206,-126.672
 13:25:36.724,eb:33:2e:f9:57:b5, 2015-01-01 01:10:01.915,0.217,1.771,-1.273,217.285,217.102,-41.748, , , , , , ,0.357,-9.558,-126.606
 13:25:36.724,eb:33:2e:f9:57:b5, 2015-01-01 01:10:01.915,1.642,0.985,0.435,228.271,61.768,-74.036, , , , , , ,1.544,-9.064,-126.964
 13:25:36.724,eb:33:2e:f9:57:b5, 2015-01-01 01:10:01.915,-0.62,0.424,1.956,208.801,172.058,-57.495, , , , , , ,2.653,-8.372,-127.222
 13:25:36.724,eb:33:2e:f9:57:b5, 2015-01-01 01:10:01.915,0.137,0.15,2.051,211.67,188.11,-86.67, , , , , , ,3.735,-7.41,-127.568
 13:25:36.746,eb:33:2e:f9:57:b5, 2015-01-01 01:10:01.915,0.101,-0.209,1.475,254.395,110.901,-73.73, , , , , , ,5.015,-6.575,-127.925
 13:25:36.746,eb:33:2e:f9:57:b5, 2015-01-01 01:10:01.915,-0.458,0.037,3.543,289.856,140.93,-83.069, , , , , , ,6.449,-5.993,-128.276
 13:25:36.746,eb:33:2e:f9:57:b5, 2015-01-01 01:10:01.915,-0.825,-1.447,4.623,327.026,265.869,-15.564, , , , , , ,8.009,-4.861,-128.315
 13:25:36.746,eb:33:2e:f9:57:b5, 2015-01-01 01:10:01.915,0.069,-1.168,3.09,368.225,278.992,0.488, , , , , , ,9.745,-3.466,-128.161
 13:25:36.746,eb:33:2e:f9:57:b5, 2015-01-01 01:10:01.915,0.152,-0.628,3.548,396.973,288.513,32.837, , , , , , ,11.722,-2.032,-127.831
 13:25:36.746,eb:33:2e:f9:57:b5, 2015-01-01 01:10:01.915,-0.834,-0.677,3.137,416.748,288.818,69.519, , , , , , ,13.755,-0.665,-127.205
 13:25:36.748,eb:33:2e:f9:57:b5, 2015-01-01 01:10:01.915,-0.605,-1.318,3.003,443.298,229.797,71.838, , , , , , ,15.914,0.467,-126.519
 13:25:36.748,eb:33:2e:f9:57:b5, 2015-01-01 01:10:01.915,-0.557,-1.293,2.719,479.431,161.377,68.909, , , , , , ,18.243,1.28,-125.892
 13:25:36.792,eb:33:2e:f9:57:b5, 2015-01-01 01:10:01.915,-0.089,-1.249,2.625,522.156,71.96,47.241, , , , , , ,20.83,1.741,-125.469
 13:25:36.792,eb:33:2e:f9:57:b5, 2015-01-01 01:10:01.915,0.333,-1.526,3.255,573.669,15.808,29.846, , , , , , ,23.604,1.84,-125.222
 13:25:36.792,eb:33:2e:f9:57:b5, 2015-01-01 01:10:01.915,0.368,-1.811,3.948,642.578,-33.264,11.475, , , , , , ,26.669,1.73,-125.162
 13:25:36.792,eb:33:2e:f9:57:b5, 2015-01-01 01:10:01.915,0.115,-1.744,4.38,715.21,-72.815,-12.451, , , , , , ,30.103,1.478,-125.299
 13:25:36.792,eb:33:2e:f9:57:b5, 2015-01-01 01:10:01.915,0.51,-2.382,6.193,803.284,-93.628,-31.677, , , , , , ,33.981,1.236,-125.662
 13:25:36.792,eb:33:2e:f9:57:b5, 2015-01-01 01:10:01.915,0.512,-2.241,8.009,912.842,-56.519,-50.659, , , , , , ,38.309,1.06,-126.057
 13:25:36.792,eb:33:2e:f9:57:b5, 2015-01-01 01:10:01.915,0.998,-2.056,11.693,1024.536,79.529,-52.795, , , , , , ,43.209,1.335,-126.167
 13:25:36.792,eb:33:2e:f9:57:b5, 2015-01-01 01:10:01.915,2.701,0.454,12.422,1126.465,129.333,-70.557, , , , , , ,48.642,1.934,-125.909
 13:25:36.838,eb:33:2e:f9:57:b5, 2015-01-01 01:10:01.915,3.736,3.501,11.275,1219.91,89.966,-82.153, , , , , , ,54.613,2.637,-125.804
 13:25:36.838,eb:33:2e:f9:57:b5, 2015-01-01 01:10:01.915,3.851,7.284,5.881,1161.011,-78.613,-190.063, , , , , , ,60.584,3.246,-126.238
 13:25:36.838,eb:33:2e:f9:57:b5, 2015-01-01 01:10:01.915,3.225,12.312,3.66,887.634,-164.795,-412.292, , , , , , ,65.566,4.323,-127.447
 13:25:36.838,eb:33:2e:f9:57:b5, 2015-01-01 01:10:01.915,-2.67,2.392,5.22,641.846,-16.785,-377.197, , , , , , ,69.082,6.092,-128.93
 13:25:36.838,eb:33:2e:f9:57:b5, 2015-01-01 01:10:01.915,-2.585,2.938,-1.098,393.86,211.975,-166.077, , , , , , ,71.664,7.575,-128.502
 13:25:36.838,eb:33:2e:f9:57:b5, 2015-01-01 01:10:01.915,0.813,-0.248,3.205,201.965,391.541,2.991, , , , , , ,73.163,8.372,-127.161
 13:25:36.838,eb:33:2e:f9:57:b5, 2015-01-01 01:10:01.915,2.482,1.355,8.846,237.61,653.32,110.84, , , , , , ,74.608,8.795,-124.228
 13:25:36.838,eb:33:2e:f9:57:b5, 2015-01-01 01:10:01.915,2.945,7.595,9.786,497.375,620.789,54.077, , , , , , ,77.031,9.179,-120.861
 13:25:36.883,eb:33:2e:f9:57:b5, 2015-01-01 01:10:01.915,3.128,6.938,8.419,710.205,488.037,-20.508, , , , , , ,80.618,9.701,-118.18
 13:25:36.883,eb:33:2e:f9:57:b5, 2015-01-01 01:10:01.915,3.182,5.08,5.767,807.739,325.806,-101.074, , , , , , ,84.853,10.294,-116.252
 13:25:36.883,eb:33:2e:f9:57:b5, 2015-01-01 01:10:01.915,2.936,4.646,5.292,781.738,175.537,-182.678, , , , , , ,89.055,11.118,-115.021
 13:25:36.883,eb:33:2e:f9:57:b5, 2015-01-01 01:10:01.915,3.046,5.359,7.771,703.369,100.83,-284.119, , , , , , ,92.867,12.332,-114.368
 13:25:36.883,eb:33:2e:f9:57:b5, 2015-01-01 01:10:01.915,3.672,5.332,10.485,630.31,98.999,-382.263, , , , , , ,96.268,14.019,-113.763
 13:25:36.883,eb:33:2e:f9:57:b5, 2015-01-01 01:10:01.915,4.412,4.312,11.283,565.552,140.442,-473.145, , , , , , ,99.47,16.111,-112.813
 13:25:36.883,eb:33:2e:f9:57:b5, 2015-01-01 01:10:01.915,4.74,2.981,10.436,517.09,157.043,-564.026, , , , , , ,102.541,18.561,-111.401
 13:25:36.883,eb:33:2e:f9:57:b5, 2015-01-01 01:10:01.915,4.87,1.785,9.347,476.624,131.226,-627.686, , , , , , ,105.524,21.324,-109.863
 13:25:36.928,eb:33:2e:f9:57:b5, 2015-01-01 01:10:01.915,4.582,0.302,8.6,427.124,101.746,-651.733, , , , , , ,108.325,24.241,-108.314
 13:25:36.928,eb:33:2e:f9:57:b5, 2015-01-01 01:10:01.915,4.236,-1.054,7.712,362.305,66.65,-638, , , , , , ,110.973,27.158,-106.694
 13:25:36.928,eb:33:2e:f9:57:b5, 2015-01-01 01:10:01.915,3.704,-2.033,7.322,284.668,60.791,-587.585, , , , , , ,113.34,29.861,-104.98
 13:25:36.928,eb:33:2e:f9:57:b5, 2015-01-01 01:10:01.915,3.366,-2.522,6.947,208.435,66.162,-518.25, , , , , , ,115.384,32.217,-103.326
 13:25:36.928,eb:33:2e:f9:57:b5, 2015-01-01 01:10:01.915,2.982,-2.744,6.858,139.648,89.478,-439.758, , , , , , ,117.026,34.162,-101.739
 13:25:36.928,eb:33:2e:f9:57:b5, 2015-01-01 01:10:01.915,2.956,-3.033,6.972,85.815,133.362,-365.112, , , , , , ,118.548,35.634,-100.009
 13:25:36.928,eb:33:2e:f9:57:b5, 2015-01-01 01:10:01.915,3.142,-3.07,6.854,42.725,187.866,-289.856, , , , , , ,119.949,36.623,-98.069
 13:25:36.928,eb:33:2e:f9:57:b5, 2015-01-01 01:10:01.915,3.376,-2.97,6.07,4.272,228.821,-226.074, , , , , , ,121.218,37.156,-96.114
 13:25:36.950,eb:33:2e:f9:57:b5, 2015-01-01 01:10:02.205,3.524,-3.004,5.024,-27.466,230.286,-172.18, , , , , , ,122.157,37.386,-94.334
 13:25:36.950,eb:33:2e:f9:57:b5, 2015-01-01 01:10:02.205,3.582,-3.056,4.004,-54.993,201.477,-133.24, , , , , , ,122.937,37.43,-92.692
 13:25:36.950,eb:33:2e:f9:57:b5, 2015-01-01 01:10:02.205,3.42,-3.296,3.027,-81.238,148.315,-98.877, , , , , , ,123.365,37.43,-91.324
 13:25:36.950,eb:33:2e:f9:57:b5, 2015-01-01 01:10:02.205,3.225,-3.621,1.959,-112.305,70.801,-65.918, , , , , , ,123.371,37.474,-90.505
 13:25:36.950,eb:33:2e:f9:57:b5, 2015-01-01 01:10:02.205,2.96,-4.133,1.098,-151.611,-10.986,-31.128, , , , , , ,122.739,37.634,-90.33
 13:25:36.950,eb:33:2e:f9:57:b5, 2015-01-01 01:10:02.205,2.827,-5.035,0.194,-196.106,-91.064,8.911, , , , , , ,121.668,37.82,-90.621
 13:25:36.950,eb:33:2e:f9:57:b5, 2015-01-01 01:10:02.205,2.734,-6.196,-0.74,-252.441,-159.119,57.8, , , , , , ,120.009,38.002,-91.384
 13:25:36.950,eb:33:2e:f9:57:b5, 2015-01-01 01:10:02.205,2.883,-7.305,-1.817,-330.322,-215.393,117.554, , , , , , ,117.68,38.062,-92.747
 13:25:36.995,eb:33:2e:f9:57:b5, 2015-01-01 01:10:02.205,3.448,-8.171,-2.642,-435.73,-252.38,184.875, , , , , , ,114.51,37.903,-94.625
 13:25:36.995,eb:33:2e:f9:57:b5, 2015-01-01 01:10:02.205,3.78,-8.383,-2.578,-559.143,-264.587,253.113, , , , , , ,110.693,37.365,-96.702
 13:25:36.995,eb:33:2e:f9:57:b5, 2015-01-01 01:10:02.205,3.604,-7.464,-1.67,-668.945,-279.175,304.077, , , , , , ,106.26,36.442,-98.789
 13:25:36.995,eb:33:2e:f9:57:b5, 2015-01-01 01:10:02.205,3.844,-6.304,-1.094,-746.338,-347.473,336.304, , , , , , ,101.283,35.244,-101.168
 13:25:36.995,eb:33:2e:f9:57:b5, 2015-01-01 01:10:02.205,4.182,-5.318,-0.038,-806.58,-415.894,352.173, , , , , , ,95.773,33.832,-103.892
 13:25:36.995,eb:33:2e:f9:57:b5, 2015-01-01 01:10:02.205,4.287,-4.335,1.204,-855.774,-468.323,352.6, , , , , , ,90.077,32.179,-106.666
 13:25:36.995,eb:33:2e:f9:57:b5, 2015-01-01 01:10:02.205,4.348,-3.594,2.377,-894.714,-520.813,341.919, , , , , , ,84.216,30.328,-109.407
 13:25:36.995,eb:33:2e:f9:57:b5, 2015-01-01 01:10:02.205,4.443,-3.118,3.572,-927.429,-566.772,323.364, , , , , , ,78.261,28.268,-112.236
 13:25:37.039,eb:33:2e:f9:57:b5, 2015-01-01 01:10:02.205,4.55,-2.621,4.896,-960.327,-589.722,303.04, , , , , , ,72.197,26.016,-115.043
 13:25:37.039,eb:33:2e:f9:57:b5, 2015-01-01 01:10:02.205,4.364,-1.762,6.645,-991.882,-585.449,265.625, , , , , , ,66.253,23.648,-117.515
 13:25:37.039,eb:33:2e:f9:57:b5, 2015-01-01 01:10:02.205,4.18,-1.01,7.611,-999.512,-593.262,223.999, , , , , , ,60.397,21.253,-119.724
 13:25:37.040,eb:33:2e:f9:57:b5, 2015-01-01 01:10:02.205,4.075,-0.356,8.289,-994.202,-599.915,175.598, , , , , , ,54.679,18.825,-121.849
 13:25:37.040,eb:33:2e:f9:57:b5, 2015-01-01 01:10:02.205,3.992,0.105,8.479,-985.474,-597.9,127.441, , , , , , ,49.032,16.353,-123.937
 13:25:37.040,eb:33:2e:f9:57:b5, 2015-01-01 01:10:02.205,3.894,0.375,8.309,-978.455,-594.727,81.299, , , , , , ,43.638,13.936,-125.815
 13:25:37.040,eb:33:2e:f9:57:b5, 2015-01-01 01:10:02.205,3.791,0.535,8.072,-970.581,-597.595,37.231, , , , , , ,38.364,11.514,-127.562
 13:25:37.040,eb:33:2e:f9:57:b5, 2015-01-01 01:10:02.205,3.607,0.568,7.859,-958.374,-606.873,-0.61, , , , , , ,33.239,9.031,-129.293
 13:25:37.084,eb:33:2e:f9:57:b5, 2015-01-01 01:10:02.205,3.493,0.334,7.442,-942.749,-628.113,-23.071, , , , , , ,28.163,6.328,-131.039
 13:25:37.084,eb:33:2e:f9:57:b5, 2015-01-01 01:10:02.205,2.94,0.086,7.321,-924.561,-641.968,-26.123, , , , , , ,23.368,3.527,-132.545
 13:25:37.084,eb:33:2e:f9:57:b5, 2015-01-01 01:10:02.205,2.056,-0.391,6.793,-898.376,-675.476,0.488, , , , , , ,18.776,0.461,-133.759
 13:25:37.084,eb:33:2e:f9:57:b5, 2015-01-01 01:10:02.205,1.108,-0.964,6.744,-857.91,-703.979,59.448, , , , , , ,14.409,-2.895,-134.583
 13:25:37.084,eb:33:2e:f9:57:b5, 2015-01-01 01:10:02.205,0.457,-1.136,6.972,-798.706,-727.661,140.564, , , , , , ,10.201,-6.619,-134.879
 13:25:37.084,eb:33:2e:f9:57:b5, 2015-01-01 01:10:02.205,0.054,-0.571,7.259,-742.554,-728.21,233.276, , , , , , ,6.306,-10.366,-134.423
 13:25:37.084,eb:33:2e:f9:57:b5, 2015-01-01 01:10:02.205,-0.553,0.871,7.434,-698.792,-713.318,314.392, , , , , , ,2.477,-14.057,-133.253
 13:25:37.084,eb:33:2e:f9:57:b5, 2015-01-01 01:10:02.205,-1.494,2.684,7.208,-657.593,-710.876,375.488, , , , , , ,-1.384,-17.622,-131.451
 13:25:37.152,eb:33:2e:f9:57:b5, 2015-01-01 01:10:02.205,-2.446,4.37,6.856,-609.741,-720.642,410.339, , , , , , ,-5.433,-21.165,-129.133
 13:25:37.152,eb:33:2e:f9:57:b5, 2015-01-01 01:10:02.205,-3.33,5.97,6.992,-563.843,-713.074,427.124, , , , , , ,-9.415,-24.45,-126.365
 13:25:37.152,eb:33:2e:f9:57:b5, 2015-01-01 01:10:02.205,-4.096,7.68,7.637,-531.494,-676.331,425.903, , , , , , ,-13.491,-27.427,-123.278
 13:25:37.152,eb:33:2e:f9:57:b5, 2015-01-01 01:10:02.205,-4.81,9.349,8.621,-512.573,-613.403,406.677, , , , , , ,-17.655,-29.954,-120.009
 13:25:37.152,eb:33:2e:f9:57:b5, 2015-01-01 01:10:02.205,-5.656,11.056,9.848,-492.249,-518.25,367.31, , , , , , ,-21.929,-31.97,-116.763
 13:25:37.152,eb:33:2e:f9:57:b5, 2015-01-01 01:10:02.205,-5.815,12.546,10.549,-452.148,-417.725,308.044, , , , , , ,-25.851,-33.382,-113.851
 13:25:37.152,eb:33:2e:f9:57:b5, 2015-01-01 01:10:02.205,-5.826,12.813,9.952,-334.29,-339.417,312.927, , , , , , ,-29.246,-34.316,-111.313
 13:25:37.152,eb:33:2e:f9:57:b5, 2015-01-01 01:10:02.205,-7.485,12.472,9.286,-305.176,-187.988,176.392, , , , , , ,-31.855,-34.717,-109.534
 13:25:37.152,eb:33:2e:f9:57:b5, 2015-01-01 01:10:02.205,-6.949,12.55,8.183,-220.154,-143.188,57.373, , , , , , ,-33.805,-35.305,-108.375
 13:25:37.152,eb:33:2e:f9:57:b5, 2015-01-01 01:10:02.205,-6.044,12.296,7.559,-166.87,-52.673,40.588, , , , , , ,-35.035,-35.403,-107.869
 13:25:37.153,eb:33:2e:f9:57:b5, 2015-01-01 01:10:02.205,-5.368,12.913,6.564,-127.319,27.954,-11.292, , , , , , ,-35.793,-35.381,-107.836
 13:25:37.153,eb:33:2e:f9:57:b5, 2015-01-01 01:10:02.205,-4.755,12.972,6.196,-72.266,103.516,-72.449, , , , , , ,-35.975,-35.195,-108.369
 13:25:37.153,eb:33:2e:f9:57:b5, 2015-01-01 01:10:02.205,-4.3,12.472,4.465,-5.432,119.629,-140.564, , , , , , ,-35.546,-35.041,-109.358
 13:25:37.153,eb:33:2e:f9:57:b5, 2015-01-01 01:10:02.205,-3.843,11.007,3.519,63.232,126.221,-182.068, , , , , , ,-34.634,-35.019,-110.627
 13:25:37.153,eb:33:2e:f9:57:b5, 2015-01-01 01:10:02.205,-3.356,9.258,3.076,134.338,123.108,-198.12, , , , , , ,-33.294,-35.041,-112.077
 13:25:37.153,eb:33:2e:f9:57:b5, 2015-01-01 01:10:02.205,-2.742,7.321,2.655,203.125,110.718,-186.646, , , , , , ,-31.624,-35.068,-113.45
 13:25:37.197,eb:33:2e:f9:57:b5, 2015-01-01 01:10:02.205,-2.017,5.596,2.116,263.306,99.304,-155.945, , , , , , ,-29.663,-35.013,-114.703
 13:25:37.197,eb:33:2e:f9:57:b5, 2015-01-01 01:10:02.205,-1.329,4.126,1.614,311.829,92.163,-120.361, , , , , , ,-27.625,-34.926,-115.703
 13:25:37.197,eb:33:2e:f9:57:b5, 2015-01-01 01:10:02.205,-0.207,3.058,0.999,490.479,-43.823,-104.736, , , , , , ,-25.373,-34.887,-116.472
 13:25:37.197,eb:33:2e:f9:57:b5, 2015-01-01 01:10:02.205,3.441,7.872,11.07,969.849,663.208,-641.174, , , , , , ,-19.567,-35.321,-119.136
 13:25:37.197,eb:33:2e:f9:57:b5, 2015-01-01 01:10:02.205,-1.274,6.409,0.311,942.139,287.659,-594.177, , , , , , ,-11.893,-34.387,-123.497
 13:25:37.197,eb:33:2e:f9:57:b5, 2015-01-01 01:10:02.205,9.077,6.518,11.989,503.784,715.21,-416.382, , , , , , ,-6.663,-31.514,-127.095
 13:25:37.197,eb:33:2e:f9:57:b5, 2015-01-01 01:10:02.205,-0.874,10.107,12.543,5.188,972.473,184.631, , , , , , ,-5.433,-27.62,-127.705
 13:25:37.197,eb:33:2e:f9:57:b5, 2015-01-01 01:10:02.205,-6.302,5.26,5.524,-115.54,1225.464,204.102, , , , , , ,-6.317,-21.171,-127.178
 13:25:37.241,eb:33:2e:f9:57:b5, 2015-01-01 01:10:02.205,-3.021,-2.921,-3.372,153.687,586.975,16.235, , , , , , ,-5.999,-16.93,-127.249
 13:25:37.241,eb:33:2e:f9:57:b5, 2015-01-01 01:10:02.205,-1.793,-2.869,1.012,314.209,354.004,-143.616, , , , , , ,-4.455,-15.101,-127.886
 13:25:37.241,eb:33:2e:f9:57:b5, 2015-01-01 01:10:02.205,0.086,-1.978,0.96,283.875,209.106,13.245, , , , , , ,-2.78,-13.892,-128.287
 13:25:37.241,eb:33:2e:f9:57:b5, 2015-01-01 01:10:02.205,-1.168,1.654,0.093,210.815,183.655,63.782, , , , , , ,-1.681,-12.953,-128.018
 13:25:37.241,eb:33:2e:f9:57:b5, 2015-01-01 01:10:02.205,-2.138,0.14,0.527,185.303,322.754,26.123, , , , , , ,-0.703,-11.343,-127.87
 13:25:37.241,eb:33:2e:f9:57:b5, 2015-01-01 01:10:02.205,1.559,0.823,-0.695,188.049,97.351,-44.434, , , , , , ,0.253,-10.388,-127.98
 13:25:37.241,eb:33:2e:f9:57:b5, 2015-01-01 01:10:02.205,0.588,0.868,0.863,170.715,104.187,-59.082, , , , , , ,1.219,-10.146,-128.287
 13:25:37.242,eb:33:2e:f9:57:b5, 2015-01-01 01:10:02.205,-0.962,-0.441,2.466,165.955,272.705,-40.1, , , , , , ,2.054,-8.91,-128.469
 13:25:37.287,eb:33:2e:f9:57:b5, 2015-01-01 01:10:02.205,0.695,1.162,-2.292,181.458,35.095,-91.37, , , , , , ,3.054,-8.108,-128.804
 13:25:37.287,eb:33:2e:f9:57:b5, 2015-01-01 01:10:02.205,0.732,0.238,3.59,226.501,13.062,-96.558, , , , , , ,4.153,-8.157,-129.32
 13:25:37.287,eb:33:2e:f9:57:b5, 2015-01-01 01:10:02.205,-1.747,-1.791,6.544,295.227,222.534,-13, , , , , , ,5.482,-7.306,-129.49
 13:25:37.287,eb:33:2e:f9:57:b5, 2015-01-01 01:10:02.205,0.052,-0.717,3.648,354.309,179.382,-54.565, , , , , , ,7.141,-6.29,-129.573
 13:25:37.287,eb:33:2e:f9:57:b5, 2015-01-01 01:10:02.205,0.846,-1.135,5.346,397.827,270.142,-10.132, , , , , , ,9.146,-5.103,-129.628
 13:25:37.287,eb:33:2e:f9:57:b5, 2015-01-01 01:10:02.205,-0.845,-0.979,3.926,417.786,339.417,76.721, , , , , , ,11.146,-3.532,-129.117
 13:25:37.287,eb:33:2e:f9:57:b5, 2015-01-01 01:10:02.205,-0.938,-1.022,2.401,449.951,233.704,72.998, , , , , , ,13.288,-2.241,-128.408
 13:25:37.287,eb:33:2e:f9:57:b5, 2015-01-01 01:10:02.205,-0.706,-2.049,3.017,496.887,156.189,81.177, , , , , , ,15.661,-1.461,-127.815
 13:25:37.354,eb:33:2e:f9:57:b5, 2015-01-01 01:10:02.565,-0.335,-1.548,2.709,546.875,59.448,64.88, , , , , , ,18.353,-1,-127.326
 13:25:37.354,eb:33:2e:f9:57:b5, 2015-01-01 01:10:02.565,-0.006,-1.745,3.429,607.971,-16.907,35.4, , , , , , ,21.264,-1.044,-127.106
 13:25:37.354,eb:33:2e:f9:57:b5, 2015-01-01 01:10:02.565,-0.037,-2.179,4.568,683.777,-53.589,14.526, , , , , , ,24.527,-1.274,-127.062
