Time,Device name,Chip Time(),Acceleration X(g),Acceleration Y(g),Acceleration Z(g),Angular velocity X(°/s),Angular velocity Y(°/s),Angular velocity Z(°/s),ShiftX(mm),ShiftY(mm),ShiftZ(mm),SpeedX(mm/s),SpeedY(mm/s),SpeedZ(mm/s),Angle X(°),Angle Y(°),Angle Z(°)
 13:20:26.598,eb:33:2e:f9:57:b5, 2015-01-01 01:04:53.925,-0.003,-0.06,1.134,-16.235,9.338,-23.254, , , , , , ,-0.566,2.983,-130.479
 13:20:26.598,eb:33:2e:f9:57:b5, 2015-01-01 01:04:53.925,-0.092,-0.042,1.134,-16.174,15.076,-20.935, , , , , , ,-0.654,3.054,-130.589
 13:20:26.598,eb:33:2e:f9:57:b5, 2015-01-01 01:04:53.925,-0.116,-0.048,1.052,-15.198,12.817,-20.325, , , , , , ,-0.736,3.12,-130.688
 13:20:26.598,eb:33:2e:f9:57:b5, 2015-01-01 01:04:53.925,-0.109,-0.063,1.038,-13.245,10.62,-19.592, , , , , , ,-0.813,3.175,-130.787
 13:20:26.598,eb:33:2e:f9:57:b5, 2015-01-01 01:04:53.925,-0.1,-0.083,1.016,-10.864,6.287,-17.822, , , , , , ,-0.879,3.219,-130.88
 13:20:26.599,eb:33:2e:f9:57:b5, 2015-01-01 01:04:53.925,-0.067,-0.077,1.017,-8.606,0.854,-16.235, , , , , , ,-0.934,3.23,-130.968
 13:20:26.599,eb:33:2e:f9:57:b5, 2015-01-01 01:04:53.925,-0.064,-0.067,1.056,-6.958,-0.61,-14.771, , , , , , ,-0.972,3.23,-131.039
 13:20:26.599,eb:33:2e:f9:57:b5, 2015-01-01 01:04:53.925,-0.042,-0.062,1.06,-5.127,-1.709,-13.855, , , , , , ,-1.011,3.219,-131.111
 13:20:26.644,eb:33:2e:f9:57:b5, 2015-01-01 01:04:53.925,-0.023,-0.065,1.068,-3.357,-1.404,-12.695, , , , , , ,-1.033,3.214,-131.177
 13:20:26.644,eb:33:2e:f9:57:b5, 2015-01-01 01:04:53.925,0.015,-0.046,1.083,-2.075,0.488,-12.512, , , , , , ,-1.049,3.208,-131.237
 13:20:26.644,eb:33:2e:f9:57:b5, 2015-01-01 01:04:53.925,0.01,-0.039,1.122,-0.732,5.798,-11.658, , , , , , ,-1.06,3.23,-131.298
 13:20:26.644,eb:33:2e:f9:57:b5, 2015-01-01 01:04:53.925,0.022,-0.03,1.138,0.977,10.376,-11.78, , , , , , ,-1.06,3.274,-131.358
 13:20:26.644,eb:33:2e:f9:57:b5, 2015-01-01 01:04:53.925,0.043,-0.046,1.117,2.258,14.771,-11.414, , , , , , ,-1.06,3.34,-131.418
 13:20:26.644,eb:33:2e:f9:57:b5, 2015-01-01 01:04:53.925,0.021,-0.04,1.17,3.174,21.851,-10.071, , , , , , ,-1.049,3.439,-131.479
 13:20:26.644,eb:33:2e:f9:57:b5, 2015-01-01 01:04:53.925,0.042,-0.041,1.146,4.272,27.588,-9.338, , , , , , ,-1.033,3.56,-131.528
 13:20:26.644,eb:33:2e:f9:57:b5, 2015-01-01 01:04:53.925,0.066,0,1.104,5.859,27.954,-7.996, , , , , , ,-1.011,3.702,-131.572
 13:20:26.666,eb:33:2e:f9:57:b5, 2015-01-01 01:04:53.925,0.021,0.009,1.217,5.371,41.443,-10.071, , , , , , ,-0.983,3.884,-131.627
 13:20:26.666,eb:33:2e:f9:57:b5, 2015-01-01 01:04:53.925,0.042,-0.022,1.11,6.165,43.152,-8.484, , , , , , ,-0.961,4.098,-131.677
 13:20:26.666,eb:33:2e:f9:57:b5, 2015-01-01 01:04:53.925,0.049,-0.021,1.148,5.798,51.025,-7.263, , , , , , ,-0.934,4.34,-131.715
 13:20:26.666,eb:33:2e:f9:57:b5, 2015-01-01 01:04:53.925,0.193,-0.047,1.232,14.038,46.448,-6.714, , , , , , ,-0.89,4.581,-131.754
 13:20:26.666,eb:33:2e:f9:57:b5, 2015-01-01 01:04:53.925,0.067,-0.096,1.511,25.024,62.927,-6.836, , , , , , ,-0.791,4.861,-131.797
 13:20:26.666,eb:33:2e:f9:57:b5, 2015-01-01 01:04:53.925,0.184,-0.126,1.379,34.241,64.941,-5.127, , , , , , ,-0.637,5.186,-131.83
 13:20:26.667,eb:33:2e:f9:57:b5, 2015-01-01 01:04:53.925,0.24,-0.098,1.494,44.312,77.515,-5.981, , , , , , ,-0.445,5.548,-131.863
 13:20:26.667,eb:33:2e:f9:57:b5, 2015-01-01 01:04:53.925,0.297,0.04,1.524,53.589,87.402,-8.85, , , , , , ,-0.198,5.96,-131.902
 13:20:26.735,eb:33:2e:f9:57:b5, 2015-01-01 01:04:53.925,0.351,0.052,1.594,61.707,99.304,-14.832, , , , , , ,0.082,6.432,-131.968
 13:20:26.735,eb:33:2e:f9:57:b5, 2015-01-01 01:04:53.925,0.552,-0.004,1.684,74.585,112.61,-16.907, , , , , , ,0.417,6.965,-132.05
 13:20:26.735,eb:33:2e:f9:57:b5, 2015-01-01 01:04:53.925,0.867,-0.012,2.117,101.746,132.935,-20.081, , , , , , ,0.857,7.603,-132.127
 13:20:26.735,eb:33:2e:f9:57:b5, 2015-01-01 01:04:53.925,0.827,0.053,2.583,118.164,176.27,-42.419, , , , , , ,1.401,8.405,-132.275
 13:20:26.735,eb:33:2e:f9:57:b5, 2015-01-01 01:04:53.925,0.689,0.314,2.023,131.409,200.134,-75.5, , , , , , ,1.994,9.338,-132.572
 13:20:26.735,eb:33:2e:f9:57:b5, 2015-01-01 01:04:53.925,0.958,-0.049,2.468,126.282,261.108,-81.787, , , , , , ,2.576,10.536,-132.929
 13:20:26.735,eb:33:2e:f9:57:b5, 2015-01-01 01:04:53.925,0.835,0.459,1.14,117.615,288.086,-99.304, , , , , , ,3.109,11.97,-133.319
 13:20:26.735,eb:33:2e:f9:57:b5, 2015-01-01 01:04:53.925,0.285,0.958,-0.419,102.905,253.052,-126.404, , , , , , ,3.527,13.37,-133.835
 13:20:26.756,eb:33:2e:f9:57:b5, 2015-01-01 01:04:53.925,-0.261,0.699,-0.422,86.304,223.572,-151.184, , , , , , ,3.84,14.584,-134.5
 13:20:26.756,eb:33:2e:f9:57:b5, 2015-01-01 01:04:53.925,-1.064,0.367,-0.863,66.711,188.782,-149.109, , , , , , ,4.01,15.705,-135.22
 13:20:26.756,eb:33:2e:f9:57:b5, 2015-01-01 01:04:53.925,-1.539,-0.189,-0.397,41.626,179.443,-144.165, , , , , , ,4.07,16.633,-135.934
 13:20:26.756,eb:33:2e:f9:57:b5, 2015-01-01 01:04:53.925,-1.625,-0.674,-0.151,13.733,194.397,-117.065, , , , , , ,4.021,17.633,-136.527
 13:20:26.756,eb:33:2e:f9:57:b5, 2015-01-01 01:04:53.925,-1.571,-0.58,-0.703,-10.071,191.589,-92.346, , , , , , ,3.873,18.638,-136.994
 13:20:26.756,eb:33:2e:f9:57:b5, 2015-01-01 01:04:53.925,-1.801,-0.493,-1.251,-29.968,165.588,-66.895, , , , , , ,3.647,19.561,-137.335
 13:20:26.756,eb:33:2e:f9:57:b5, 2015-01-01 01:04:53.925,-1.89,-0.352,-1.679,-50.781,110.413,-51.453, , , , , , ,3.345,20.237,-137.593
 13:20:26.756,eb:33:2e:f9:57:b5, 2015-01-01 01:04:53.925,-1.959,-0.49,-1.315,-71.045,54.565,-29.236, , , , , , ,2.961,20.66,-137.774
 13:20:26.803,eb:33:2e:f9:57:b5, 2015-01-01 01:04:53.925,-1.534,-0.471,-1.513,-78.552,-45.776,-7.751, , , , , , ,2.549,20.654,-137.867
 13:20:26.803,eb:33:2e:f9:57:b5, 2015-01-01 01:04:53.925,-1.133,-0.374,-1.41,-84.412,-157.959,16.357, , , , , , ,2.137,20.121,-137.856
 13:20:26.803,eb:33:2e:f9:57:b5, 2015-01-01 01:04:53.925,-0.844,-0.323,-0.219,-90.759,-226.685,35.706, , , , , , ,1.719,19.094,-137.758
 13:20:26.803,eb:33:2e:f9:57:b5, 2015-01-01 01:04:53.925,-0.414,-0.105,-0.162,-97.046,-317.444,39.246, , , , , , ,1.302,17.693,-137.582
 13:20:26.803,eb:33:2e:f9:57:b5, 2015-01-01 01:04:53.925,0.536,-0.211,1.085,-89.539,-365.051,47.729, , , , , , ,0.89,15.892,-137.368
 13:20:26.803,eb:33:2e:f9:57:b5, 2015-01-01 01:04:53.925,0.39,-0.211,3.911,-102.051,-236.023,49.866, , , , , , ,0.489,14.387,-137.137
 13:20:26.803,eb:33:2e:f9:57:b5, 2015-01-01 01:04:53.925,1.121,0.234,2.825,-80.933,-208.313,21.423, , , , , , ,0.099,13.228,-136.939
 13:20:26.803,eb:33:2e:f9:57:b5, 2015-01-01 01:04:53.925,1.049,0.249,2.969,-73.853,-108.154,16.479, , , , , , ,-0.264,12.535,-136.813
 13:20:26.846,eb:33:2e:f9:57:b5, 2015-01-01 01:04:54.260,0.716,0.206,2.809,-62.439,-32.593,3.357, , , , , , ,-0.593,12.217,-136.769
 13:20:26.846,eb:33:2e:f9:57:b5, 2015-01-01 01:04:54.260,0.492,0.015,2.383,-48.279,16.602,-1.648, , , , , , ,-0.862,12.217,-136.769
 13:20:26.846,eb:33:2e:f9:57:b5, 2015-01-01 01:04:54.260,0.194,-0.124,2.161,-31.433,46.997,-2.991, , , , , , ,-1.06,12.398,-136.78
 13:20:26.846,eb:33:2e:f9:57:b5, 2015-01-01 01:04:54.260,-0.113,-0.188,1.802,-13.245,58.838,-2.625, , , , , , ,-1.165,12.673,-136.802
 13:20:26.846,eb:33:2e:f9:57:b5, 2015-01-01 01:04:54.260,-0.294,-0.257,1.401,5.066,49.438,-1.892, , , , , , ,-1.181,12.947,-136.818
 13:20:26.846,eb:33:2e:f9:57:b5, 2015-01-01 01:04:54.260,-0.393,-0.277,1.167,21.973,30.762,0.183, , , , , , ,-1.104,13.14,-136.829
 13:20:26.846,eb:33:2e:f9:57:b5, 2015-01-01 01:04:54.260,-0.391,-0.245,1.085,37.964,10.376,2.014, , , , , , ,-0.945,13.233,-136.813
 13:20:26.846,eb:33:2e:f9:57:b5, 2015-01-01 01:04:54.260,-0.31,-0.235,1.128,53.528,-8.606,5.066, , , , , , ,-0.703,13.222,-136.796
 13:20:26.868,eb:33:2e:f9:57:b5, 2015-01-01 01:04:54.260,-0.244,-0.156,1.225,68.359,-24.658,8.85, , , , , , ,-0.385,13.129,-136.758
 13:20:26.868,eb:33:2e:f9:57:b5, 2015-01-01 01:04:54.260,-0.057,-0.124,1.39,79.285,-31.494,12.207, , , , , , ,0,12.986,-136.703
 13:20:26.868,eb:33:2e:f9:57:b5, 2015-01-01 01:04:54.260,0.054,-0.104,1.846,91.003,-18.25,11.169, , , , , , ,0.445,12.854,-136.642
 13:20:26.868,eb:33:2e:f9:57:b5, 2015-01-01 01:04:54.260,0.061,-0.201,2.348,103.577,17.944,18.005, , , , , , ,0.945,12.887,-136.571
 13:20:26.868,eb:33:2e:f9:57:b5, 2015-01-01 01:04:54.260,0.068,-0.119,2.166,111.206,44.678,19.226, , , , , , ,1.511,13.063,-136.472
 13:20:26.868,eb:33:2e:f9:57:b5, 2015-01-01 01:04:54.260,-0.016,-0.101,2.281,118.286,75.745,21.057, , , , , , ,2.115,13.359,-136.357
 13:20:26.868,eb:33:2e:f9:57:b5, 2015-01-01 01:04:54.260,-0.433,-0.242,2.46,132.019,106.628,31.738, , , , , , ,2.785,13.837,-136.181
 13:20:26.868,eb:33:2e:f9:57:b5, 2015-01-01 01:04:54.260,0.109,-0.731,3.358,133.728,178.589,49.927, , , , , , ,3.521,14.557,-135.934
 13:20:26.913,eb:33:2e:f9:57:b5, 2015-01-01 01:04:54.260,0.085,0.036,1.611,149.109,184.326,55.847, , , , , , ,4.318,15.502,-135.549
 13:20:26.913,eb:33:2e:f9:57:b5, 2015-01-01 01:04:54.260,0.07,0.105,1.265,173.462,136.475,43.091, , , , , , ,5.224,16.249,-135.231
 13:20:26.913,eb:33:2e:f9:57:b5, 2015-01-01 01:04:54.260,0.032,0.233,1.585,197.388,93.506,29.785, , , , , , ,6.235,16.787,-134.973
 13:20:26.913,eb:33:2e:f9:57:b5, 2015-01-01 01:04:54.260,0.082,-0.011,2.133,214.661,80.933,18.799, , , , , , ,7.322,17.194,-134.797
 13:20:26.913,eb:33:2e:f9:57:b5, 2015-01-01 01:04:54.260,0.209,-0.248,2.672,227.6,99.121,15.198, , , , , , ,8.481,17.622,-134.654
 13:20:26.913,eb:33:2e:f9:57:b5, 2015-01-01 01:04:54.260,0.488,-0.226,2.768,238.647,124.573,9.949, , , , , , ,9.701,18.182,-134.5
 13:20:26.913,eb:33:2e:f9:57:b5, 2015-01-01 01:04:54.260,0.694,0.028,2.444,254.822,148.621,-0.854, , , , , , ,10.986,18.864,-134.33
 13:20:26.913,eb:33:2e:f9:57:b5, 2015-01-01 01:04:54.260,0.874,0.002,2.461,264.526,169.922,-10.254, , , , , , ,12.338,19.666,-134.198
 13:20:26.959,eb:33:2e:f9:57:b5, 2015-01-01 01:04:54.260,1.219,0.219,2.591,274.963,187.012,-22.095, , , , , , ,13.733,20.555,-134.077
 13:20:26.959,eb:33:2e:f9:57:b5, 2015-01-01 01:04:54.260,1.271,0.467,2.612,284.973,211.243,-36.011, , , , , , ,15.172,21.572,-133.973
 13:20:26.959,eb:33:2e:f9:57:b5, 2015-01-01 01:04:54.260,1.242,0.717,2.378,294.128,234.924,-54.26, , , , , , ,16.661,22.725,-133.874
 13:20:26.959,eb:33:2e:f9:57:b5, 2015-01-01 01:04:54.260,0.926,0.569,2.137,296.265,237.61,-72.388, , , , , , ,18.16,23.961,-133.813
 13:20:26.959,eb:33:2e:f9:57:b5, 2015-01-01 01:04:54.260,0.51,-0.303,2.788,303.528,252.747,-75.745, , , , , , ,19.671,25.236,-133.792
 13:20:26.960,eb:33:2e:f9:57:b5, 2015-01-01 01:04:54.260,0.55,-0.307,3.253,303.711,268.982,-72.632, , , , , , ,21.248,26.598,-133.665
 13:20:26.960,eb:33:2e:f9:57:b5, 2015-01-01 01:04:54.260,0.564,0.049,3.755,293.579,291.809,-70.068, , , , , , ,22.835,28.026,-133.445
 13:20:26.960,eb:33:2e:f9:57:b5, 2015-01-01 01:04:54.260,0.805,0.706,4.204,277.1,330.444,-62.195, , , , , , ,24.434,29.614,-133.061
 13:20:27.004,eb:33:2e:f9:57:b5, 2015-01-01 01:04:54.260,0.985,0.84,4.433,271.057,361.267,-60.73, , , , , , ,26.06,31.322,-132.55
 13:20:27.004,eb:33:2e:f9:57:b5, 2015-01-01 01:04:54.260,1.182,1.051,4.567,258.972,413.818,-46.57, , , , , , ,27.812,33.201,-131.754
 13:20:27.004,eb:33:2e:f9:57:b5, 2015-01-01 01:04:54.260,1.328,0.516,4.737,236.267,446.411,-11.963, , , , , , ,29.685,35.156,-130.6
 13:20:27.004,eb:33:2e:f9:57:b5, 2015-01-01 01:04:54.260,-1.102,-0.235,4.579,176.453,481.323,24.353, , , , , , ,31.575,37.128,-129.122
 13:20:27.004,eb:33:2e:f9:57:b5, 2015-01-01 01:04:54.260,1.386,-0.05,6.458,175.232,629.883,147.705, , , , , , ,33.975,39.26,-126.656
 13:20:27.004,eb:33:2e:f9:57:b5, 2015-01-01 01:04:54.260,1.271,-4.204,8.899,196.472,827.271,390.991, , , , , , ,37.755,41.254,-122.272
 13:20:27.004,eb:33:2e:f9:57:b5, 2015-01-01 01:04:54.260,2.865,-4.729,4.331,220.093,793.457,612.122, , , , , , ,43,42.605,-116.038
 13:20:27.004,eb:33:2e:f9:57:b5, 2015-01-01 01:04:54.260,4.597,-2.439,2.64,232.239,675.842,733.032, , , , , , ,48.741,42.638,-109.254
 13:20:27.026,eb:33:2e:f9:57:b5, 2015-01-01 01:04:54.260,4.912,-1.363,3.462,242.493,631.042,792.786, , , , , , ,54.388,41.6,-102.607
 13:20:27.026,eb:33:2e:f9:57:b5, 2015-01-01 01:04:54.260,4.937,-0.498,3.057,258.301,573.425,774.17, , , , , , ,59.65,39.93,-96.476
 13:20:27.026,eb:33:2e:f9:57:b5, 2015-01-01 01:04:54.260,4.84,0.283,2.153,283.691,497.864,693.298, , , , , , ,64.297,37.952,-91.241
 13:20:27.026,eb:33:2e:f9:57:b5, 2015-01-01 01:04:54.260,4.361,1.716,1.074,298.889,386.169,527.222, , , , , , ,68.181,36.085,-87.248
 13:20:27.026,eb:33:2e:f9:57:b5, 2015-01-01 01:04:54.260,3.582,2.594,0.226,281.433,262.024,359.924, , , , , , ,71.169,34.596,-84.567
 13:20:27.026,eb:33:2e:f9:57:b5, 2015-01-01 01:04:54.260,2.791,2.48,0.035,234.314,138.611,193.604, , , , , , ,73.317,33.651,-83.024
 13:20:27.026,eb:33:2e:f9:57:b5, 2015-01-01 01:04:54.260,2.063,1.74,0.773,166.687,58.35,56.274, , , , , , ,74.663,33.25,-82.337
 13:20:27.026,eb:33:2e:f9:57:b5, 2015-01-01 01:04:54.260,1.332,0.826,1.704,89.478,33.386,-40.649, , , , , , ,75.388,33.327,-82.117
 13:20:27.071,eb:33:2e:f9:57:b5, 2015-01-01 01:04:54.260,0.827,-0.248,2.359,19.043,49.866,-95.886, , , , , , ,75.635,33.739,-82.04
 13:20:27.071,eb:33:2e:f9:57:b5, 2015-01-01 01:04:54.260,0.718,-0.971,2.744,-44.983,87.646,-126.587, , , , , , ,75.679,34.387,-81.782
 13:20:27.071,eb:33:2e:f9:57:b5, 2015-01-01 01:04:54.260,0.754,-1.661,2.234,-97.168,115.356,-129.944, , , , , , ,75.536,35.156,-81.343
 13:20:27.071,eb:33:2e:f9:57:b5, 2015-01-01 01:04:54.260,0.616,-1.699,1.402,-145.691,124.084,-130.859, , , , , , ,75.207,35.953,-80.821
 13:20:27.071,eb:33:2e:f9:57:b5, 2015-01-01 01:04:54.260,0.497,-1.88,0.541,-184.753,93.079,-121.277, , , , , , ,74.575,36.689,-80.409
 13:20:27.071,eb:33:2e:f9:57:b5, 2015-01-01 01:04:54.260,0.476,-1.896,0.24,-217.346,46.387,-110.84, , , , , , ,73.674,37.332,-80.211
 13:20:27.071,eb:33:2e:f9:57:b5, 2015-01-01 01:04:54.260,0.483,-1.79,0.14,-247.864,3.967,-96.985, , , , , , ,72.455,37.853,-80.266
 13:20:27.071,eb:33:2e:f9:57:b5, 2015-01-01 01:04:54.260,0.531,-1.691,0.322,-273.682,-20.508,-82.703, , , , , , ,70.977,38.254,-80.519
 13:20:27.117,eb:33:2e:f9:57:b5, 2015-01-01 01:04:54.260,0.63,-1.624,0.584,-292.419,-25.818,-69.763, , , , , , ,69.313,38.551,-80.865
 13:20:27.117,eb:33:2e:f9:57:b5, 2015-01-01 01:04:54.260,0.742,-1.59,0.704,-305.237,-17.456,-56.213, , , , , , ,67.643,38.804,-81.134
 13:20:27.117,eb:33:2e:f9:57:b5, 2015-01-01 01:04:54.260,0.827,-1.613,0.49,-315.552,-12.756,-41.443, , , , , , ,65.956,38.996,-81.326
 13:20:27.117,eb:33:2e:f9:57:b5, 2015-01-01 01:04:54.260,0.938,-1.645,0.06,-325.684,-26.367,-25.452, , , , , , ,64.226,39.1,-81.524
 13:20:27.117,eb:33:2e:f9:57:b5, 2015-01-01 01:04:54.260,1.152,-1.662,-0.568,-336.731,-70.435,-10.437, , , , , , ,62.303,39.045,-81.892
 13:20:27.117,eb:33:2e:f9:57:b5, 2015-01-01 01:04:54.260,1.245,-1.715,-0.827,-350.525,-128.235,5.493, , , , , , ,60.205,38.798,-82.491
 13:20:27.117,eb:33:2e:f9:57:b5, 2015-01-01 01:04:54.260,1.263,-1.758,-0.761,-364.441,-184.021,22.095, , , , , , ,57.887,38.315,-83.32
 13:20:27.118,eb:33:2e:f9:57:b5, 2015-01-01 01:04:54.260,1.214,-1.76,-0.379,-376.343,-228.577,39.49, , , , , , ,55.41,37.601,-84.331
 13:20:27.163,eb:33:2e:f9:57:b5, 2015-01-01 01:04:54.595,1.06,-1.716,0.098,-386.047,-257.08,59.57, , , , , , ,52.806,36.656,-85.424
 13:20:27.163,eb:33:2e:f9:57:b5, 2015-01-01 01:04:54.595,0.939,-1.669,0.491,-393.494,-276.306,84.839, , , , , , ,50.251,35.524,-86.446
 13:20:27.163,eb:33:2e:f9:57:b5, 2015-01-01 01:04:54.595,0.899,-1.667,0.853,-398.865,-287.17,115.112, , , , , , ,47.758,34.211,-87.33
 13:20:27.163,eb:33:2e:f9:57:b5, 2015-01-01 01:04:54.595,0.933,-1.629,1.107,-403.259,-290.588,147.522, , , , , , ,45.363,32.723,-88.039
 13:20:27.163,eb:33:2e:f9:57:b5, 2015-01-01 01:04:54.595,1.043,-1.513,1.189,-406.433,-293.152,178.223, , , , , , ,43.028,31.086,-88.561
 13:20:27.163,eb:33:2e:f9:57:b5, 2015-01-01 01:04:54.595,1.172,-1.247,1.17,-407.227,-301.086,202.087, , , , , , ,40.831,29.333,-88.879
 13:20:27.163,eb:33:2e:f9:57:b5, 2015-01-01 01:04:54.595,1.285,-0.888,1.182,-404.358,-315.247,217.651, , , , , , ,38.71,27.466,-89.072
 13:20:27.163,eb:33:2e:f9:57:b5, 2015-01-01 01:04:54.595,1.406,-0.513,1.248,-398.621,-330.872,223.999, , , , , , ,36.645,25.499,-89.198
 13:20:27.229,eb:33:2e:f9:57:b5, 2015-01-01 01:04:54.595,1.491,-0.169,1.307,-392.7,-343.567,222.534, , , , , , ,34.59,23.45,-89.302
 13:20:27.229,eb:33:2e:f9:57:b5, 2015-01-01 01:04:54.595,1.574,0.143,1.314,-388.55,-350.647,212.83, , , , , , ,32.618,21.401,-89.368
 13:20:27.229,eb:33:2e:f9:57:b5, 2015-01-01 01:04:54.595,1.667,0.546,1.201,-385.437,-357.971,192.932, , , , , , ,30.657,19.363,-89.445
 13:20:27.229,eb:33:2e:f9:57:b5, 2015-01-01 01:04:54.595,1.725,1.049,1.004,-383.545,-368.713,163.147, , , , , , ,28.691,17.342,-89.588
 13:20:27.229,eb:33:2e:f9:57:b5, 2015-01-01 01:04:54.595,1.643,1.552,0.856,-381.531,-381.897,126.099, , , , , , ,26.664,15.326,-89.863
 13:20:27.229,eb:33:2e:f9:57:b5, 2015-01-01 01:04:54.595,1.416,2.052,0.881,-375.977,-398.315,77.271, , , , , , ,24.67,13.348,-90.28
 13:20:27.229,eb:33:2e:f9:57:b5, 2015-01-01 01:04:54.595,1.045,2.324,1.139,-368.713,-401.489,39.612, , , , , , ,22.687,11.404,-90.857
 13:20:27.230,eb:33:2e:f9:57:b5, 2015-01-01 01:04:54.595,0.627,2.446,1.391,-360.474,-395.447,10.742, , , , , , ,20.753,9.509,-91.505
 13:20:27.230,eb:33:2e:f9:57:b5, 2015-01-01 01:04:54.595,0.217,2.499,1.515,-351.501,-386.169,-6.287, , , , , , ,18.842,7.652,-92.181
 13:20:27.230,eb:33:2e:f9:57:b5, 2015-01-01 01:04:54.595,-0.123,2.625,1.497,-338.806,-382.812,-13.489, , , , , , ,17.04,5.845,-92.829
 13:20:27.230,eb:33:2e:f9:57:b5, 2015-01-01 01:04:54.595,-0.474,2.921,1.515,-318.054,-388.55,-16.052, , , , , , ,15.353,4.016,-93.444
 13:20:27.230,eb:33:2e:f9:57:b5, 2015-01-01 01:04:54.595,-0.85,3.257,1.528,-287.903,-405.762,-14.771, , , , , , ,13.821,2.109,-94.021
 13:20:27.230,eb:33:2e:f9:57:b5, 2015-01-01 01:04:54.595,-0.865,3.542,1.69,-256.958,-400.024,-23.743, , , , , , ,12.437,0.104,-94.576
 13:20:27.230,eb:33:2e:f9:57:b5, 2015-01-01 01:04:54.595,-1.378,3.695,2.089,-232.91,-351.379,-9.888, , , , , , ,11.228,-1.604,-94.993
 13:20:27.230,eb:33:2e:f9:57:b5, 2015-01-01 01:04:54.595,-1.486,4.179,2.152,-200.134,-326.782,15.259, , , , , , ,10.184,-3.318,-95.295
 13:20:27.230,eb:33:2e:f9:57:b5, 2015-01-01 01:04:54.595,-2.435,4.749,2.686,-192.017,-232.056,4.456, , , , , , ,9.229,-4.609,-95.411
 13:20:27.319,eb:33:2e:f9:57:b5, 2015-01-01 01:04:54.595,-2.326,5.75,1.829,-155.334,-289.978,-62.378, , , , , , ,8.383,-5.933,-95.812
 13:20:27.319,eb:33:2e:f9:57:b5, 2015-01-01 01:04:54.595,-2.593,6.089,2.017,-109.192,-311.646,-72.083, , , , , , ,7.806,-7.41,-96.372
 13:20:27.319,eb:33:2e:f9:57:b5, 2015-01-01 01:04:54.595,-2.922,6.534,1.906,-66.772,-303.528,-97.168, , , , , , ,7.482,-8.877,-97.015
 13:20:27.320,eb:33:2e:f9:57:b5, 2015-01-01 01:04:54.595,-3.31,6.79,2.023,-28.137,-288.086,-132.751, , , , , , ,7.394,-10.25,-97.795
 13:20:27.320,eb:33:2e:f9:57:b5, 2015-01-01 01:04:54.595,-3.747,6.821,2.338,14.282,-268.616,-164.246, , , , , , ,7.548,-11.547,-98.745
 13:20:27.320,eb:33:2e:f9:57:b5, 2015-01-01 01:04:54.595,-3.993,6.576,2.813,57.739,-226.013,-188.477, , , , , , ,7.976,-12.645,-99.827
 13:20:27.320,eb:33:2e:f9:57:b5, 2015-01-01 01:04:54.595,-4.211,6.179,2.994,97.107,-170.41,-204.346, , , , , , ,8.646,-13.447,-100.97
 13:20:27.320,eb:33:2e:f9:57:b5, 2015-01-01 01:04:54.595,-4.212,5.74,2.651,133.179,-132.629,-222.534, , , , , , ,9.531,-14.002,-102.189
 13:20:27.320,eb:33:2e:f9:57:b5, 2015-01-01 01:04:54.595,-4.082,5.107,2.173,168.701,-102.844,-232.422, , , , , , ,10.613,-14.381,-103.458
 13:20:27.320,eb:33:2e:f9:57:b5, 2015-01-01 01:04:54.595,-3.865,4.415,1.673,205.444,-78.674,-238.892, , , , , , ,11.887,-14.584,-104.744
 13:20:27.321,eb:33:2e:f9:57:b5, 2015-01-01 01:04:54.595,-3.6,3.62,1.277,246.399,-53.955,-241.699, , , , , , ,13.365,-14.634,-106.029
 13:20:27.321,eb:33:2e:f9:57:b5, 2015-01-01 01:04:54.595,-3.264,2.745,0.84,291.199,-34.607,-239.929, , , , , , ,15.046,-14.54,-107.292
 13:20:27.321,eb:33:2e:f9:57:b5, 2015-01-01 01:04:54.595,-2.899,1.789,0.391,334.839,-18.738,-233.521, , , , , , ,16.946,-14.348,-108.501
 13:20:27.322,eb:33:2e:f9:57:b5, 2015-01-01 01:04:54.595,-3.022,1.525,-0.237,342.468,-81.543,-212.158, , , , , , ,18.984,-14.2,-109.644
 13:20:27.322,eb:33:2e:f9:57:b5, 2015-01-01 01:04:54.595,-3.782,2.379,4.95,50.415,83.496,-203.43, , , , , , ,20.16,-13.986,-110.693
 13:20:27.322,eb:33:2e:f9:57:b5, 2015-01-01 01:04:54.595,-2.537,-3.955,6.387,-198.608,536.316,20.691, , , , , , ,19.534,-12.085,-110.457
 13:20:27.386,eb:33:2e:f9:57:b5, 2015-01-01 01:04:54.595,1.735,3.342,3.3,-293.152,711.243,43.396, , , , , , ,17.979,-9.031,-109.072
 13:20:27.386,eb:33:2e:f9:57:b5, 2015-01-01 01:04:54.595,0.756,6.978,-4.089,-306.091,447.021,-143.921, , , , , , ,16.364,-6.163,-108.539
 13:20:27.386,eb:33:2e:f9:57:b5, 2015-01-01 01:04:54.595,-4.17,2.059,-2.694,-345.703,275.757,-203.979, , , , , , ,14.799,-4.406,-109.072
 13:20:27.386,eb:33:2e:f9:57:b5, 2015-01-01 01:04:54.595,-1.138,-3.884,4.871,-333.13,308.289,-120.667, , , , , , ,13.063,-2.78,-109.479
 13:20:27.386,eb:33:2e:f9:57:b5, 2015-01-01 01:04:54.595,-0.004,-2.88,5.091,-230.53,317.017,-56.702, , , , , , ,11.728,-1.165,-109.539
 13:20:27.386,eb:33:2e:f9:57:b5, 2015-01-01 01:04:54.595,-1.551,-0.408,0.634,-175.72,235.291,-46.509, , , , , , ,10.75,0.242,-109.484
 13:20:27.386,eb:33:2e:f9:57:b5, 2015-01-01 01:04:54.595,-1.773,-0.301,1.68,-148.376,166.565,-51.27, , , , , , ,9.965,1.192,-109.578
 13:20:27.386,eb:33:2e:f9:57:b5, 2015-01-01 01:04:54.595,-1.366,-1.017,2.396,-110.413,136.963,-18.25, , , , , , ,9.316,1.983,-109.611
 13:20:27.521,eb:33:2e:f9:57:b5, 2015-01-01 01:04:54.595,-0.912,-1.01,1.908,-62.927,68.359,8.789, , , , , , ,8.915,2.466,-109.545
 13:20:27.521,eb:33:2e:f9:57:b5, 2015-01-01 01:04:54.595,-0.17,-0.895,2.118,-17.883,13.855,30.945, , , , , , ,8.745,2.609,-109.402
 13:20:27.521,eb:33:2e:f9:57:b5, 2015-01-01 01:04:54.595,0.336,-0.41,2.165,20.752,-9.033,38.94, , , , , , ,8.784,2.576,-109.215
 13:20:27.521,eb:33:2e:f9:57:b5, 2015-01-01 01:04:54.595,0.725,0.127,2.283,46.143,-1.526,31.555, , , , , , ,8.976,2.505,-109.05
 13:20:27.521,eb:33:2e:f9:57:b5, 2015-01-01 01:04:54.595,0.687,0.413,2.267,54.321,47.058,21.606, , , , , , ,9.245,2.62,-108.902
 13:20:27.521,eb:33:2e:f9:57:b5, 2015-01-01 01:04:54.595,0.563,0.38,1.957,59.814,88.989,8.423, , , , , , ,9.542,2.972,-108.781
 13:20:27.521,eb:33:2e:f9:57:b5, 2015-01-01 01:04:54.595,0.15,0.365,1.513,64.148,116.028,-1.282, , , , , , ,9.86,3.494,-108.677
 13:20:27.521,eb:33:2e:f9:57:b5, 2015-01-01 01:04:54.595,-0.077,0.305,1.215,69.336,124.146,-10.559, , , , , , ,10.201,4.098,-108.605
 13:20:27.523,eb:33:2e:f9:57:b5, 2015-01-01 01:04:54.595,-0.208,0.156,1.187,77.393,131.47,-9.46, , , , , , ,10.58,4.746,-108.539
 13:20:27.523,eb:33:2e:f9:57:b5, 2015-01-01 01:04:54.595,-0.224,0.105,1.124,86.609,123.84,-10.376, , , , , , ,10.997,5.389,-108.474
 13:20:27.523,eb:33:2e:f9:57:b5, 2015-01-01 01:04:54.595,-0.419,-0.03,1.269,95.032,119.446,-5.249, , , , , , ,11.464,5.993,-108.391
 13:20:27.523,eb:33:2e:f9:57:b5, 2015-01-01 01:04:54.595,-0.536,-0.038,1.303,106.873,103.455,0, , , , , , ,11.981,6.537,-108.292
 13:20:27.523,eb:33:2e:f9:57:b5, 2015-01-01 01:04:54.595,-0.553,-0.156,1.484,121.033,89.722,7.385, , , , , , ,12.574,7.004,-108.171
 13:20:27.523,eb:33:2e:f9:57:b5, 2015-01-01 01:04:54.595,-0.418,-0.225,1.559,136.353,72.754,17.639, , , , , , ,13.244,7.383,-108.018
 13:20:27.523,eb:33:2e:f9:57:b5, 2015-01-01 01:04:54.595,-0.361,-0.172,1.581,149.719,55.298,20.691, , , , , , ,13.991,7.657,-107.847
 13:20:27.523,eb:33:2e:f9:57:b5, 2015-01-01 01:04:54.595,-0.224,-0.171,1.749,160.645,45.654,26.489, , , , , , ,14.799,7.861,-107.666
 13:20:27.525,eb:33:2e:f9:57:b5, 2015-01-01 01:04:54.595,-0.135,-0.127,1.737,169.434,41.809,31.86, , , , , , ,15.656,8.036,-107.457
 13:20:27.525,eb:33:2e:f9:57:b5, 2015-01-01 01:04:54.595,-0.048,-0.032,1.699,180.176,33.936,33.203, , , , , , ,16.567,8.168,-107.249
 13:20:27.525,eb:33:2e:f9:57:b5, 2015-01-01 01:04:54.595,0.079,0.077,1.812,191.589,30.396,30.579, , , , , , ,17.534,8.267,-107.045
 13:20:27.525,eb:33:2e:f9:57:b5, 2015-01-01 01:04:54.595,-0.052,0.069,1.772,204.468,24.475,27.588, , , , , , ,18.556,8.361,-106.859
 13:20:27.525,eb:33:2e:f9:57:b5, 2015-01-01 01:04:54.595,-0.184,-0.016,1.834,222.107,9.277,23.193, , , , , , ,19.649,8.394,-106.721
 13:20:27.525,eb:33:2e:f9:57:b5, 2015-01-01 01:04:54.595,-0.127,-0.273,2.197,240.295,7.202,25.208, , , , , , ,20.836,8.388,-106.589
 13:20:27.525,eb:33:2e:f9:57:b5, 2015-01-01 01:04:54.595,0.113,-0.26,2.42,261.902,8.545,26.367, , , , , , ,22.121,8.377,-106.447
 13:20:27.525,eb:33:2e:f9:57:b5, 2015-01-01 01:04:54.595,0.362,-0.257,2.547,287.354,10.925,24.109, , , , , , ,23.522,8.372,-106.304
 13:20:27.527,eb:33:2e:f9:57:b5, 2015-01-01 01:04:54.595,0.336,-0.22,2.674,318.665,10.803,16.174, , , , , , ,25.065,8.377,-106.199
 13:20:27.527,eb:33:2e:f9:57:b5, 2015-01-01 01:04:54.595,0.563,-0.299,3.173,349.487,26.733,6.348, , , , , , ,26.768,8.443,-106.117
 13:20:27.527,eb:33:2e:f9:57:b5, 2015-01-01 01:04:54.595,0.994,-0.235,3.202,385.254,44.25,-9.888, , , , , , ,28.63,8.613,-106.035
 13:20:27.527,eb:33:2e:f9:57:b5, 2015-01-01 01:04:54.595,1.088,-0.285,2.967,423.157,54.199,-24.902, , , , , , ,30.674,8.877,-105.985
 13:20:27.527,eb:33:2e:f9:57:b5, 2015-01-01 01:04:54.595,1.485,-0.14,3.297,463.562,70.19,-48.34, , , , , , ,32.91,9.24,-105.985
 13:20:27.527,eb:33:2e:f9:57:b5, 2015-01-01 01:04:54.595,1.709,-0.033,3.633,504.333,104.492,-77.332, , , , , , ,35.343,9.8,-106.002
 13:20:27.527,eb:33:2e:f9:57:b5, 2015-01-01 01:04:54.595,1.625,0.065,3.791,557.129,116.455,-107.849, , , , , , ,38.007,10.547,-106.04
 13:20:27.527,eb:33:2e:f9:57:b5, 2015-01-01 01:04:54.595,1.745,0.472,4.975,605.957,124.268,-147.827, , , , , , ,40.924,11.415,-106.172
 13:20:27.567,eb:33:2e:f9:57:b5, 2015-01-01 01:04:54.595,1.551,0.158,6.494,625.977,193.787,-148.682, , , , , , ,44.011,12.541,-106.205
 13:20:27.567,eb:33:2e:f9:57:b5, 2015-01-01 01:04:54.595,2.047,1.422,5.107,621.704,166.382,-159.302, , , , , , ,47.175,13.749,-106.04
 13:20:27.567,eb:33:2e:f9:57:b5, 2015-01-01 01:04:54.595,1.312,2.723,3.482,601.074,65.186,-187.561, , , , , , ,50.169,14.782,-106.199
 13:20:27.567,eb:33:2e:f9:57:b5, 2015-01-01 01:04:54.595,0.548,2.594,2.823,571.533,-56.03,-218.018, , , , , , ,52.927,15.562,-106.908
 13:20:27.567,eb:33:2e:f9:57:b5, 2015-01-01 01:04:54.595,-0.137,2.964,3.17,503.54,-76.355,-227.051, , , , , , ,55.289,16.243,-107.941
 13:20:27.567,eb:33:2e:f9:57:b5, 2015-01-01 01:04:54.595,-0.227,2.537,4.016,435.303,63.538,-223.694, , , , , , ,57.409,17.188,-108.611
 13:20:27.567,eb:33:2e:f9:57:b5, 2015-01-01 01:04:54.595,-1.119,-0.93,3.063,375,276.123,-97.839, , , , , , ,59.529,18.364,-108.182
 13:20:27.567,eb:33:2e:f9:57:b5, 2015-01-01 01:04:54.595,-0.841,0.702,-0.829,268.372,341.003,51.086, , , , , , ,61.617,19.215,-106.628
 13:20:27.611,eb:33:2e:f9:57:b5, 2015-01-01 01:04:54.595,0.927,0.785,0.695,196.35,362.549,125.122, , , , , , ,63.309,19.561,-104.777
 13:20:27.611,eb:33:2e:f9:57:b5, 2015-01-01 01:04:54.595,2.133,2.155,3.001,207.275,411.072,130.798, , , , , , ,65.045,19.825,-102.568
 13:20:27.611,eb:33:2e:f9:57:b5, 2015-01-01 01:04:54.595,2.472,3.514,4.04,255.554,410.583,92.163, , , , , , ,66.978,20.16,-100.316
 13:20:27.611,eb:33:2e:f9:57:b5, 2015-01-01 01:04:54.595,2.815,3.62,4.123,323.975,381.531,14.038, , , , , , ,69.181,20.682,-98.262
 13:20:27.611,eb:33:2e:f9:57:b5, 2015-01-01 01:04:54.595,2.69,3.215,3.201,367.31,311.951,-71.167, , , , , , ,71.526,21.429,-96.614
 13:20:27.611,eb:33:2e:f9:57:b5, 2015-01-01 01:04:54.595,2.4,2.669,2.385,377.197,211.487,-150.879, , , , , , ,73.817,22.379,-95.51
 13:20:27.611,eb:33:2e:f9:57:b5, 2015-01-01 01:04:54.595,2.178,2.054,2.657,360.352,128.967,-217.468, , , , , , ,75.877,23.511,-94.938
 13:20:27.611,eb:33:2e:f9:57:b5, 2015-01-01 01:04:54.595,2.123,1.58,3.752,330.078,95.154,-270.813, , , , , , ,77.69,24.857,-94.691
 13:20:27.634,eb:33:2e:f9:57:b5, 2015-01-01 01:04:55.065,2.236,1.414,4.786,300.232,99.06,-317.017, , , , , , ,79.31,26.4,-94.526
 13:20:27.634,eb:33:2e:f9:57:b5, 2015-01-01 01:04:55.065,2.423,1.366,5.388,277.954,114.38,-362, , , , , , ,80.859,28.185,-94.257
 13:20:27.634,eb:33:2e:f9:57:b5, 2015-01-01 01:04:55.065,2.56,1.124,5.604,261.78,131.104,-404.114, , , , , , ,82.386,30.196,-93.867
 13:20:27.634,eb:33:2e:f9:57:b5, 2015-01-01 01:04:55.065,2.746,0.55,5.369,244.934,145.081,-437.988, , , , , , ,83.914,32.393,-93.345
 13:20:27.634,eb:33:2e:f9:57:b5, 2015-01-01 01:04:55.065,2.816,0.095,5.378,232.361,154.724,-461.365, , , , , , ,85.424,34.7,-92.725
 13:20:27.634,eb:33:2e:f9:57:b5, 2015-01-01 01:04:55.065,2.782,-0.296,5.171,217.224,159.424,-475.403, , , , , , ,87.006,37.101,-91.939
 13:20:27.634,eb:33:2e:f9:57:b5, 2015-01-01 01:04:55.065,2.921,-0.715,4.52,196.472,140.747,-480.164, , , , , , ,88.555,39.523,-91.088
 13:20:27.634,eb:33:2e:f9:57:b5, 2015-01-01 01:04:55.065,2.676,-1.342,4.139,161.133,145.691,-463.501, , , , , , ,90.022,41.891,-90.181
 13:20:27.678,eb:33:2e:f9:57:b5, 2015-01-01 01:04:55.065,2.453,-1.894,3.671,123.779,144.958,-435.242, , , , , , ,91.368,44.099,-89.203
 13:20:27.678,eb:33:2e:f9:57:b5, 2015-01-01 01:04:55.065,2.2,-2.185,3.556,89.966,142.212,-395.569, , , , , , ,92.675,46.132,-88.083
 13:20:27.678,eb:33:2e:f9:57:b5, 2015-01-01 01:04:55.065,2.019,-2.279,3.736,65.125,142.334,-353.821, , , , , , ,93.922,47.939,-86.874
 13:20:27.678,eb:33:2e:f9:57:b5, 2015-01-01 01:04:55.065,1.904,-2.504,3.931,46.692,152.71,-298.767, , , , , , ,95.175,49.482,-85.567
 13:20:27.678,eb:33:2e:f9:57:b5, 2015-01-01 01:04:55.065,1.799,-2.491,4.035,16.418,197.51,-264.404, , , , , , ,96.476,50.724,-84.045
 13:20:27.678,eb:33:2e:f9:57:b5, 2015-01-01 01:04:55.065,1.648,-3.028,3.532,-0.427,205.017,-189.331, , , , , , ,97.899,51.68,-82.271
 13:20:27.678,eb:33:2e:f9:57:b5, 2015-01-01 01:04:55.065,1.579,-3.242,3.126,-23.071,211.121,-102.905, , , , , , ,99.3,52.213,-80.387
 13:20:27.678,eb:33:2e:f9:57:b5, 2015-01-01 01:04:55.065,1.594,-3.495,2.378,-55.237,218.872,-34.424, , , , , , ,100.547,52.333,-78.547
 13:20:27.723,eb:33:2e:f9:57:b5, 2015-01-01 01:04:55.065,1.628,-3.617,1.669,-87.891,202.148,29.236, , , , , , ,101.409,52.103,-76.954
 13:20:27.723,eb:33:2e:f9:57:b5, 2015-01-01 01:04:55.065,1.887,-3.713,1.153,-120.972,177.673,87.83, , , , , , ,101.953,51.597,-75.569
 13:20:27.723,eb:33:2e:f9:57:b5, 2015-01-01 01:04:55.065,1.973,-3.718,0.856,-157.41,154.663,139.343, , , , , , ,102.112,50.856,-74.438
 13:20:27.724,eb:33:2e:f9:57:b5, 2015-01-01 01:04:55.065,2.242,-3.655,0.311,-192.566,119.263,175.842, , , , , , ,101.821,49.927,-73.658
 13:20:27.724,eb:33:2e:f9:57:b5, 2015-01-01 01:04:55.065,2.287,-3.49,-0.186,-242.371,81.909,205.505, , , , , , ,100.964,48.884,-73.306
 13:20:27.724,eb:33:2e:f9:57:b5, 2015-01-01 01:04:55.065,2.32,-3.197,-1.046,-297.424,42.358,223.145, , , , , , ,99.706,47.763,-73.152
 13:20:27.724,eb:33:2e:f9:57:b5, 2015-01-01 01:04:55.065,2.318,-2.772,-1.569,-355.652,-14.404,231.018, , , , , , ,97.91,46.626,-73.323
 13:20:27.724,eb:33:2e:f9:57:b5, 2015-01-01 01:04:55.065,2.294,-2.262,-1.57,-406.006,-90.149,225.403, , , , , , ,95.537,45.527,-73.932
 13:20:27.791,eb:33:2e:f9:57:b5, 2015-01-01 01:04:55.065,2.295,-1.739,-1.177,-446.655,-151.978,203.186, , , , , , ,92.593,44.511,-75.009
 13:20:27.791,eb:33:2e:f9:57:b5, 2015-01-01 01:04:55.065,2.191,-1.335,-0.662,-480.652,-192.627,173.584, , , , , , ,89.379,43.599,-76.262
 13:20:27.791,eb:33:2e:f9:57:b5, 2015-01-01 01:04:55.065,2.105,-1.089,-0.389,-510.315,-228.638,138.489, , , , , , ,85.908,42.792,-77.684
 13:20:27.791,eb:33:2e:f9:57:b5, 2015-01-01 01:04:55.065,2.02,-1.07,-0.169,-539.551,-256.104,105.103, , , , , , ,82.205,42.078,-79.255
 13:20:27.791,eb:33:2e:f9:57:b5, 2015-01-01 01:04:55.065,1.883,-1.195,0.05,-567.81,-283.63,78.247, , , , , , ,78.234,41.407,-80.997
 13:20:27.791,eb:33:2e:f9:57:b5, 2015-01-01 01:04:55.065,1.805,-1.384,0.244,-594.604,-318.787,60.364, , , , , , ,74.092,40.715,-82.853
 13:20:27.791,eb:33:2e:f9:57:b5, 2015-01-01 01:04:55.065,1.739,-1.565,0.568,-621.155,-354.797,52.307, , , , , , ,69.736,39.93,-84.858
 13:20:27.791,eb:33:2e:f9:57:b5, 2015-01-01 01:04:55.065,1.685,-1.692,1.004,-646.667,-388.611,53.406, , , , , , ,65.209,38.969,-86.973
 13:20:27.794,eb:33:2e:f9:57:b5, 2015-01-01 01:04:55.065,1.649,-1.742,1.545,-669.8,-416.565,60.425, , , , , , ,60.518,37.776,-89.149
 13:20:27.794,eb:33:2e:f9:57:b5, 2015-01-01 01:04:55.065,1.67,-1.728,2.107,-688.293,-441.223,72.51, , , , , , ,55.86,36.348,-91.219
 13:20:27.794,eb:33:2e:f9:57:b5, 2015-01-01 01:04:55.065,1.743,-1.63,2.694,-700.684,-459.534,86.365, , , , , , ,51.251,34.684,-93.159
 13:20:27.794,eb:33:2e:f9:57:b5, 2015-01-01 01:04:55.065,1.819,-1.405,3.247,-707.947,-470.215,99.792, , , , , , ,46.752,32.794,-94.9
 13:20:27.794,eb:33:2e:f9:57:b5, 2015-01-01 01:04:55.065,1.943,-1.083,3.706,-709.717,-476.013,110.535, , , , , , ,42.352,30.712,-96.443
 13:20:27.794,eb:33:2e:f9:57:b5, 2015-01-01 01:04:55.065,2.046,-0.739,4.135,-704.834,-474.67,115.906, , , , , , ,38.188,28.526,-97.712
 13:20:27.794,eb:33:2e:f9:57:b5, 2015-01-01 01:04:55.065,1.956,-0.38,4.419,-695.862,-465.088,117.371, , , , , , ,34.217,26.29,-98.734
 13:20:27.794,eb:33:2e:f9:57:b5, 2015-01-01 01:04:55.065,1.997,-0.062,4.3,-684.937,-471.985,119.812, , , , , , ,30.416,23.994,-99.569
 13:20:27.836,eb:33:2e:f9:57:b5, 2015-01-01 01:04:55.065,1.588,0.131,4.403,-675.476,-466.736,122.681, , , , , , ,26.713,21.616,-100.245
 13:20:27.836,eb:33:2e:f9:57:b5, 2015-01-01 01:04:55.065,1.285,0.236,4.052,-664.368,-472.839,135.071, , , , , , ,23.214,19.21,-100.679
 13:20:27.836,eb:33:2e:f9:57:b5, 2015-01-01 01:04:55.065,1.007,0.288,4.029,-648.682,-470.764,153.87, , , , , , ,19.874,16.749,-100.876
 13:20:27.836,eb:33:2e:f9:57:b5, 2015-01-01 01:04:55.065,0.802,0.42,4.032,-624.268,-469.727,175.476, , , , , , ,16.716,14.255,-100.816
 13:20:27.836,eb:33:2e:f9:57:b5, 2015-01-01 01:04:55.065,0.613,0.701,4.022,-599.426,-466.98,195.984, , , , , , ,13.683,11.711,-100.536
 13:20:27.836,eb:33:2e:f9:57:b5, 2015-01-01 01:04:55.065,0.53,1.125,3.941,-580.933,-461.609,214.539, , , , , , ,10.838,9.229,-100.009
 13:20:27.836,eb:33:2e:f9:57:b5, 2015-01-01 01:04:55.065,0.564,1.663,3.851,-567.078,-455.688,227.539, , , , , , ,8.08,6.784,-99.278
 13:20:27.836,eb:33:2e:f9:57:b5, 2015-01-01 01:04:55.065,0.582,2.296,3.861,-552.429,-450.256,230.347, , , , , , ,5.372,4.406,-98.399
 13:20:27.905,eb:33:2e:f9:57:b5, 2015-01-01 01:04:55.065,0.451,3.002,3.864,-533.569,-448.547,219.849, , , , , , ,2.664,2.049,-97.443
 13:20:27.905,eb:33:2e:f9:57:b5, 2015-01-01 01:04:55.065,0.174,3.7,3.731,-510.01,-456.604,197.51, , , , , , ,0.082,-0.231,-96.46
 13:20:27.905,eb:33:2e:f9:57:b5, 2015-01-01 01:04:55.065,-0.199,4.274,3.552,-483.215,-473.877,168.701, , , , , , ,-2.406,-2.543,-95.515
 13:20:27.905,eb:33:2e:f9:57:b5, 2015-01-01 01:04:55.065,-0.57,4.712,3.544,-453.918,-498.718,138.123, , , , , , ,-4.79,-4.933,-94.609
 13:20:27.905,eb:33:2e:f9:57:b5, 2015-01-01 01:04:55.065,-1.065,4.99,3.91,-427.063,-514.587,112.793, , , , , , ,-7.119,-7.438,-93.73
 13:20:27.905,eb:33:2e:f9:57:b5, 2015-01-01 01:04:55.065,-1.735,5.217,4.516,-404.907,-507.751,92.102, , , , , , ,-9.322,-9.899,-92.856
 13:20:27.905,eb:33:2e:f9:57:b5, 2015-01-01 01:04:55.065,-2.646,5.527,5.247,-381.042,-487.671,79.651, , , , , , ,-11.448,-12.255,-91.983
 13:20:27.905,eb:33:2e:f9:57:b5, 2015-01-01 01:04:55.065,-3.439,6.247,6.203,-341.797,-444.397,66.589, , , , , , ,-13.447,-14.442,-91.11
 13:20:27.927,eb:33:2e:f9:57:b5, 2015-01-01 01:04:55.065,-4.023,6.839,6.487,-300.354,-398.804,53.284, , , , , , ,-15.293,-16.419,-90.269
 13:20:27.927,eb:33:2e:f9:57:b5, 2015-01-01 01:04:55.065,-4.219,7.251,6.381,-257.263,-342.957,40.039, , , , , , ,-16.891,-18.105,-89.522
 13:20:27.927,eb:33:2e:f9:57:b5, 2015-01-01 01:04:55.065,-4.752,7.479,6.535,-211.67,-246.521,21.484, , , , , , ,-18.237,-19.44,-88.918
 13:20:27.927,eb:33:2e:f9:57:b5, 2015-01-01 01:04:55.065,-5.07,7.778,6.341,-164.429,-177.795,3.967, , , , , , ,-19.281,-20.418,-88.495
 13:20:27.927,eb:33:2e:f9:57:b5, 2015-01-01 01:04:55.065,-4.292,7.785,5.803,-118.591,-131.531,-36.133, , , , , , ,-20.045,-21.198,-88.308
 13:20:27.927,eb:33:2e:f9:57:b5, 2015-01-01 01:04:55.065,-4.662,7.334,5.651,-85.083,-50.171,-40.771, , , , , , ,-20.528,-21.577,-88.352
 13:20:27.927,eb:33:2e:f9:57:b5, 2015-01-01 01:04:55.065,-4.083,7.554,4.522,-39.917,-15.991,-62.073, , , , , , ,-20.737,-21.83,-88.588
 13:20:27.927,eb:33:2e:f9:57:b5, 2015-01-01 01:04:55.065,-3.46,7.371,4.052,5.066,21.057,-70.374, , , , , , ,-20.671,-21.918,-88.923
 13:20:28.062,eb:33:2e:f9:57:b5, 2015-01-01 01:04:55.065,-2.844,7.116,3.644,46.692,53.894,-88.928, , , , , , ,-20.347,-21.868,-89.412
 13:20:28.062,eb:33:2e:f9:57:b5, 2015-01-01 01:04:55.065,-2.358,6.474,3.307,87.158,80.688,-104.919, , , , , , ,-19.753,-21.703,-90.044
 13:20:28.062,eb:33:2e:f9:57:b5, 2015-01-01 01:04:55.065,-1.905,5.686,2.877,122.314,95.276,-112.061, , , , , , ,-18.946,-21.462,-90.775
 13:20:28.062,eb:33:2e:f9:57:b5, 2015-01-01 01:04:55.065,-1.636,4.821,2.615,155.334,104.431,-111.755, , , , , , ,-17.963,-21.154,-91.522
 13:20:28.062,eb:33:2e:f9:57:b5, 2015-01-01 01:04:55.065,-1.419,3.867,2.213,188.782,102.844,-102.722, , , , , , ,-16.82,-20.819,-92.236
 13:20:28.062,eb:33:2e:f9:57:b5, 2015-01-01 01:04:55.065,-1.248,2.88,1.703,221.069,91.675,-83.801, , , , , , ,-15.562,-20.484,-92.851
 13:20:28.062,eb:33:2e:f9:57:b5, 2015-01-01 01:04:55.065,-1.079,1.84,1.23,251.282,76.05,-59.814, , , , , , ,-14.2,-20.176,-93.334
 13:20:28.062,eb:33:2e:f9:57:b5, 2015-01-01 01:04:55.065,-0.927,0.789,0.807,272.705,62.561,-28.564, , , , , , ,-12.772,-19.891,-93.631
 13:20:28.062,eb:33:2e:f9:57:b5, 2015-01-01 01:04:55.065,-0.655,-0.162,0.372,283.447,52.002,9.644, , , , , , ,-11.332,-19.627,-93.724
 13:20:28.063,eb:33:2e:f9:57:b5, 2015-01-01 01:04:55.065,-0.229,-0.764,0.08,286.072,56.519,47.607, , , , , , ,-9.943,-19.336,-93.609
 13:20:28.063,eb:33:2e:f9:57:b5, 2015-01-01 01:04:55.065,0.258,-0.867,-0.31,291.077,62.195,76.477, , , , , , ,-8.597,-18.979,-93.323
 13:20:28.063,eb:33:2e:f9:57:b5, 2015-01-01 01:04:55.065,5.333,-0.838,-0.949,363.647,-90.027,91.858, , , , , , ,-7.174,-18.809,-92.895
 13:20:28.063,eb:33:2e:f9:57:b5, 2015-01-01 01:04:55.065,-1.674,3.44,9.038,480.469,486.023,-195.618, , , , , , ,-4.532,-18.721,-93.713
 13:20:28.063,eb:33:2e:f9:57:b5, 2015-01-01 01:04:55.065,0.726,1.811,-6.209,460.815,353.149,-350.342, , , , , , ,-1.45,-16.853,-95.273
 13:20:28.063,eb:33:2e:f9:57:b5, 2015-01-01 01:04:55.065,2.292,-0.798,5.312,217.651,652.954,-186.157, , , , , , ,0.555,-13.87,-96.762
 13:20:28.063,eb:33:2e:f9:57:b5, 2015-01-01 01:04:55.065,0.329,4.473,7.265,-49.805,651.489,-23.621, , , , , , ,0.967,-10.926,-97.202
 13:20:28.066,eb:33:2e:f9:57:b5, 2015-01-01 01:04:55.420,-0.114,1.849,5.692,-168.335,688.11,69.824, , , , , , ,0.203,-7.366,-96.993
 13:20:28.066,eb:33:2e:f9:57:b5, 2015-01-01 01:04:55.420,-1.045,-0.772,2.028,-101.501,609.375,80.566, , , , , , ,-0.494,-4.186,-96.597
 13:20:28.066,eb:33:2e:f9:57:b5, 2015-01-01 01:04:55.420,-2.208,-1.364,0.847,2.014,490.112,55.908, , , , , , ,-0.687,-1.511,-96.339
 13:20:28.066,eb:33:2e:f9:57:b5, 2015-01-01 01:04:55.420,-1.983,-1.167,0.327,89.111,284.119,38.086, , , , , , ,-0.396,0.352,-96.075
 13:20:28.066,eb:33:2e:f9:57:b5, 2015-01-01 01:04:55.420,-1.736,-0.547,-0.102,83.435,177.063,70.068, , , , , , ,0.066,1.417,-95.779
 13:20:28.066,eb:33:2e:f9:57:b5, 2015-01-01 01:04:55.420,-1.07,-0.027,-0.957,90.393,62.073,46.692, , , , , , ,0.5,1.956,-95.493
 13:20:28.066,eb:33:2e:f9:57:b5, 2015-01-01 01:04:55.420,0.224,0.007,-0.301,96.68,-5.31,23.743, , , , , , ,0.983,2.043,-95.328
 13:20:28.066,eb:33:2e:f9:57:b5, 2015-01-01 01:04:55.420,0.551,0.609,1.056,82.52,13.794,4.761, , , , , , ,1.439,2.005,-95.273
 13:20:28.105,eb:33:2e:f9:57:b5, 2015-01-01 01:04:55.420,-0.417,0.459,1.5,65.186,89.539,7.568, , , , , , ,1.802,2.34,-95.224
 13:20:28.105,eb:33:2e:f9:57:b5, 2015-01-01 01:04:55.420,0.148,-0.051,0.787,79.529,57.556,-11.841, , , , , , ,2.159,2.714,-95.224
 13:20:28.105,eb:33:2e:f9:57:b5, 2015-01-01 01:04:55.420,0.673,0.294,1.355,89.783,58.411,-31.006, , , , , , ,2.593,2.977,-95.339
 13:20:28.105,eb:33:2e:f9:57:b5, 2015-01-01 01:04:55.420,0.529,0.532,1.849,83.191,109.375,-34.18, , , , , , ,3.016,3.433,-95.482
 13:20:28.105,eb:33:2e:f9:57:b5, 2015-01-01 01:04:55.420,-0.043,0.218,1.814,79.529,143.616,-26.55, , , , , , ,3.428,4.098,-95.598
 13:20:28.106,eb:33:2e:f9:57:b5, 2015-01-01 01:04:55.420,-0.608,-0.051,1.361,92.285,132.019,-21.606, , , , , , ,3.851,4.807,-95.663
 13:20:28.106,eb:33:2e:f9:57:b5, 2015-01-01 01:04:55.420,-0.687,-0.456,1.43,110.718,106.445,-9.888, , , , , , ,4.367,5.383,-95.707
 13:20:28.106,eb:33:2e:f9:57:b5, 2015-01-01 01:04:55.420,-0.608,-0.373,1.318,124.756,69.58,-5.737, , , , , , ,4.96,5.839,-95.691
 13:20:28.129,eb:33:2e:f9:57:b5, 2015-01-01 01:04:55.420,0.236,-0.276,1.897,140.503,24.78,-14.648, , , , , , ,5.652,5.96,-95.757
 13:20:28.129,eb:33:2e:f9:57:b5, 2015-01-01 01:04:55.420,-0.365,-0.262,2.511,164.062,56.641,11.841, , , , , , ,6.427,6.202,-95.707
 13:20:28.129,eb:33:2e:f9:57:b5, 2015-01-01 01:04:55.420,-0.863,-0.506,2.303,200.012,33.386,27.405, , , , , , ,7.366,6.389,-95.592
 13:20:28.129,eb:33:2e:f9:57:b5, 2015-01-01 01:04:55.420,-0.463,-0.623,2.733,239.38,18.066,34.302, , , , , , ,8.503,6.482,-95.411
 13:20:28.129,eb:33:2e:f9:57:b5, 2015-01-01 01:04:55.420,-0.111,-0.638,3.14,277.771,17.883,47.791, , , , , , ,9.86,6.531,-95.164
 13:20:28.129,eb:33:2e:f9:57:b5, 2015-01-01 01:04:55.420,-0.133,-0.456,3.133,326.782,-24.17,41.077, , , , , , ,11.42,6.46,-94.955
 13:20:28.130,eb:33:2e:f9:57:b5, 2015-01-01 01:04:55.420,0.333,-0.703,4.289,356.079,-16.907,34.607, , , , , , ,13.156,6.295,-94.818
 13:20:28.130,eb:33:2e:f9:57:b5, 2015-01-01 01:04:55.420,0.395,-0.83,4.136,398.132,7.69,39.49, , , , , , ,15.084,6.268,-94.603
 13:20:28.174,eb:33:2e:f9:57:b5, 2015-01-01 01:04:55.420,0.877,-0.595,3.592,445.129,-6.287,17.517, , , , , , ,17.227,6.235,-94.455
 13:20:28.174,eb:33:2e:f9:57:b5, 2015-01-01 01:04:55.420,1.21,-0.804,4.006,486.45,-2.991,1.648, , , , , , ,19.589,6.191,-94.427
 13:20:28.174,eb:33:2e:f9:57:b5, 2015-01-01 01:04:55.420,1.543,-0.965,4.379,540.039,17.029,-17.7, , , , , , ,22.17,6.24,-94.471
 13:20:28.174,eb:33:2e:f9:57:b5, 2015-01-01 01:04:55.420,1.968,-0.486,4.142,596.13,7.324,-54.382, , , , , , ,25.027,6.372,-94.609
 13:20:28.174,eb:33:2e:f9:57:b5, 2015-01-01 01:04:55.420,2.517,-0.793,5.018,660.217,49.805,-94.177, , , , , , ,28.169,6.674,-94.905
 13:20:28.174,eb:33:2e:f9:57:b5, 2015-01-01 01:04:55.420,2.931,-0.005,4.878,732.117,59.814,-142.334, , , , , , ,31.641,7.24,-95.262
 13:20:28.174,eb:33:2e:f9:57:b5, 2015-01-01 01:04:55.420,3.297,0.944,4.295,806.396,-1.709,-213.318, , , , , , ,35.431,7.861,-95.938
 13:20:28.174,eb:33:2e:f9:57:b5, 2015-01-01 01:04:55.420,2.79,1.163,4.588,858.704,-49.927,-271.301, , , , , , ,39.468,8.498,-97.048
 13:20:28.218,eb:33:2e:f9:57:b5, 2015-01-01 01:04:55.420,1.333,2.143,3.892,880.554,-159.363,-339.478, , , , , , ,43.599,9.102,-98.597
 13:20:28.218,eb:33:2e:f9:57:b5, 2015-01-01 01:04:55.420,0.183,3.64,4.004,859.924,-299.072,-407.104, , , , , , ,47.609,9.586,-100.811
 13:20:28.218,eb:33:2e:f9:57:b5, 2015-01-01 01:04:55.420,-1.602,2.631,6.347,771.057,-238.525,-422.729, , , , , , ,51.235,10.305,-103.315
 13:20:28.218,eb:33:2e:f9:57:b5, 2015-01-01 01:04:55.420,-1.071,1.795,6.765,677.734,-31.189,-361.023, , , , , , ,54.492,11.508,-104.958
 13:20:28.218,eb:33:2e:f9:57:b5, 2015-01-01 01:04:55.420,-0.485,0.483,3.011,601.746,83.069,-350.586, , , , , , ,57.486,13.134,-105.776
 13:20:28.218,eb:33:2e:f9:57:b5, 2015-01-01 01:04:55.420,-2.634,1.515,0.942,436.707,137.39,-278.137, , , , , , ,59.991,14.854,-106.095
 13:20:28.218,eb:33:2e:f9:57:b5, 2015-01-01 01:04:55.420,-1.263,0.102,0.847,259.216,184.265,-194.397, , , , , , ,61.617,16.227,-105.947
 13:20:28.218,eb:33:2e:f9:57:b5, 2015-01-01 01:04:55.420,0.417,0.241,4.913,194.214,340.82,-166.077, , , , , , ,62.941,17.633,-105.09
 13:20:28.241,eb:33:2e:f9:57:b5, 2015-01-01 01:04:55.420,1.356,2.402,6.431,200.745,438.538,-184.143, , , , , , ,64.374,19.308,-103.59
 13:20:28.241,eb:33:2e:f9:57:b5, 2015-01-01 01:04:55.420,2.112,3.531,7.946,269.043,491.455,-235.535, , , , , , ,66.193,21.264,-101.772
 13:20:28.241,eb:33:2e:f9:57:b5, 2015-01-01 01:04:55.420,2.573,3.462,7.542,353.699,477.844,-285.522, , , , , , ,68.511,23.434,-99.888
 13:20:28.241,eb:33:2e:f9:57:b5, 2015-01-01 01:04:55.420,2.571,2.556,5.529,406.86,393.86,-328.491, , , , , , ,71.136,25.653,-98.251
 13:20:28.241,eb:33:2e:f9:57:b5, 2015-01-01 01:04:55.420,2.587,1.839,4.612,405.579,320.557,-357.422, , , , , , ,73.735,27.817,-96.998
 13:20:28.241,eb:33:2e:f9:57:b5, 2015-01-01 01:04:55.420,2.707,1.635,5.262,383.179,264.587,-376.404, , , , , , ,76.185,29.954,-96.01
 13:20:28.241,eb:33:2e:f9:57:b5, 2015-01-01 01:04:55.420,3.021,1.711,6.9,358.887,256.714,-394.714, , , , , , ,78.536,32.13,-95.01
 13:20:28.241,eb:33:2e:f9:57:b5, 2015-01-01 01:04:55.420,3.562,1.424,8.359,339.722,282.654,-404.724, , , , , , ,80.903,34.349,-93.845
 13:20:28.286,eb:33:2e:f9:57:b5, 2015-01-01 01:04:55.420,3.954,0.707,8.684,322.937,334.473,-408.142, , , , , , ,83.43,36.568,-92.302
 13:20:28.286,eb:33:2e:f9:57:b5, 2015-01-01 01:04:55.420,4.209,-0.028,8.052,301.697,366.882,-403.32, , , , , , ,86.204,38.749,-90.313
 13:20:28.286,eb:33:2e:f9:57:b5, 2015-01-01 01:04:55.420,4.315,-0.779,7.01,275.513,375.427,-387.39, , , , , , ,89.127,40.798,-87.968
 13:20:28.287,eb:33:2e:f9:57:b5, 2015-01-01 01:04:55.420,4.17,-1.505,5.726,244.019,363.037,-367.676, , , , , , ,92.082,42.654,-85.457
 13:20:28.287,eb:33:2e:f9:57:b5, 2015-01-01 01:04:55.420,3.908,-2.025,4.609,212.769,329.224,-348.145, , , , , , ,94.878,44.313,-82.996
 13:20:28.287,eb:33:2e:f9:57:b5, 2015-01-01 01:04:55.420,3.54,-2.266,3.861,180.786,279.663,-324.768, , , , , , ,97.526,45.813,-80.623
 13:20:28.287,eb:33:2e:f9:57:b5, 2015-01-01 01:04:55.420,3.177,-2.296,3.683,150.635,222.778,-300.72, , , , , , ,99.86,47.159,-78.508
 13:20:28.287,eb:33:2e:f9:57:b5, 2015-01-01 01:04:55.420,2.901,-2.383,4.056,123.474,179.016,-272.949, , , , , , ,101.876,48.373,-76.69
 13:20:28.398,eb:33:2e:f9:57:b5, 2015-01-01 01:04:55.420,2.724,-2.642,4.546,95.276,166.199,-237.854, , , , , , ,103.585,49.411,-75.092
 13:20:28.398,eb:33:2e:f9:57:b5, 2015-01-01 01:04:55.420,2.631,-2.882,4.715,59.448,183.167,-194.58, , , , , , ,105.271,50.219,-73.378
 13:20:28.398,eb:33:2e:f9:57:b5, 2015-01-01 01:04:55.420,2.681,-3.121,4.304,18.372,209.167,-147.583, , , , , , ,106.891,50.746,-71.494
 13:20:28.398,eb:33:2e:f9:57:b5, 2015-01-01 01:04:55.420,2.783,-3.28,3.623,-25.94,227.783,-95.398, , , , , , ,108.358,50.96,-69.549
 13:20:28.398,eb:33:2e:f9:57:b5, 2015-01-01 01:04:55.420,2.919,-3.375,2.827,-68.665,229.309,-46.448, , , , , , ,109.468,50.9,-67.736
 13:20:28.398,eb:33:2e:f9:57:b5, 2015-01-01 01:04:55.420,2.999,-3.324,2.038,-105.408,210.754,-6.958, , , , , , ,110.33,50.63,-66.039
 13:20:28.398,eb:33:2e:f9:57:b5, 2015-01-01 01:04:55.420,3.008,-3.289,1.168,-133.362,164.124,25.94, , , , , , ,110.742,50.246,-64.693
 13:20:28.398,eb:33:2e:f9:57:b5, 2015-01-01 01:04:55.420,3.015,-3.358,0.17,-160.889,100.647,48.95, , , , , , ,110.621,49.834,-63.875
 13:20:28.401,eb:33:2e:f9:57:b5, 2015-01-01 01:04:55.420,3.155,-3.633,-0.897,-194.58,30.518,72.327, , , , , , ,109.825,49.438,-63.699
 13:20:28.401,eb:33:2e:f9:57:b5, 2015-01-01 01:04:55.420,3.297,-3.82,-1.653,-235.474,-35.583,92.041, , , , , , ,108.506,49.054,-63.99
 13:20:28.401,eb:33:2e:f9:57:b5, 2015-01-01 01:04:55.420,3.463,-3.751,-2.037,-282.837,-95.52,100.952, , , , , , ,106.633,48.697,-64.709
 13:20:28.402,eb:33:2e:f9:57:b5, 2015-01-01 01:04:55.420,3.546,-3.792,-2.605,-336.182,-164.734,103.333, , , , , , ,104.167,48.389,-65.907
 13:20:28.402,eb:33:2e:f9:57:b5, 2015-01-01 01:04:55.420,3.419,-3.879,-3.098,-401.855,-233.948,102.356, , , , , , ,100.953,48.109,-67.659
 13:20:28.404,eb:33:2e:f9:57:b5, 2015-01-01 01:04:55.420,3.088,-3.794,-2.887,-473.999,-297.607,96.497, , , , , , ,97.152,47.834,-69.78
 13:20:28.404,eb:33:2e:f9:57:b5, 2015-01-01 01:04:55.420,2.932,-3.627,-2.199,-539.795,-370.85,96.863, , , , , , ,92.664,47.505,-72.361
 13:20:28.404,eb:33:2e:f9:57:b5, 2015-01-01 01:04:55.420,2.847,-3.387,-1.045,-603.333,-419.678,105.591, , , , , , ,87.594,47,-75.328
 13:20:28.444,eb:33:2e:f9:57:b5, 2015-01-01 01:04:55.420,2.793,-3.149,0.284,-658.142,-444.946,118.469, , , , , , ,82.09,46.236,-78.475
 13:20:28.444,eb:33:2e:f9:57:b5, 2015-01-01 01:04:55.420,2.738,-2.942,1.457,-700.378,-450.989,131.897, , , , , , ,76.525,45.198,-81.469
 13:20:28.444,eb:33:2e:f9:57:b5, 2015-01-01 01:04:55.420,2.769,-2.69,2.183,-729.37,-454.163,142.7, , , , , , ,70.983,43.896,-84.232
 13:20:28.444,eb:33:2e:f9:57:b5, 2015-01-01 01:04:55.420,2.878,-2.306,2.6,-751.404,-463.928,148.56, , , , , , ,65.517,42.363,-86.786
 13:20:28.444,eb:33:2e:f9:57:b5, 2015-01-01 01:04:55.420,2.981,-1.891,2.982,-765.991,-481.934,148.987, , , , , , ,60.084,40.6,-89.193
 13:20:28.444,eb:33:2e:f9:57:b5, 2015-01-01 01:04:55.420,3.005,-1.495,3.414,-775.513,-505.432,142.395, , , , , , ,54.816,38.655,-91.395
 13:20:28.444,eb:33:2e:f9:57:b5, 2015-01-01 01:04:55.420,2.981,-1.097,3.985,-780.029,-537.72,127.686, , , , , , ,49.642,36.519,-93.483
 13:20:28.444,eb:33:2e:f9:57:b5, 2015-01-01 01:04:55.420,2.861,-0.903,4.537,-779.724,-557.922,116.15, , , , , , ,44.604,34.2,-95.455
 13:20:28.466,eb:33:2e:f9:57:b5, 2015-01-01 01:04:55.420,2.713,-0.772,5.034,-778.809,-567.627,106.995, , , , , , ,39.677,31.712,-97.267
 13:20:28.466,eb:33:2e:f9:57:b5, 2015-01-01 01:04:55.420,2.534,-0.653,5.489,-777.1,-563.721,101.99, , , , , , ,35.019,29.147,-98.784
 13:20:28.466,eb:33:2e:f9:57:b5, 2015-01-01 01:04:55.420,2.25,-0.555,5.783,-773.254,-552.002,106.445, , , , , , ,30.575,26.526,-99.992
 13:20:28.466,eb:33:2e:f9:57:b5, 2015-01-01 01:04:55.420,1.865,-0.698,5.904,-766.602,-534.912,125.061, , , , , , ,26.356,23.862,-100.86
 13:20:28.466,eb:33:2e:f9:57:b5, 2015-01-01 01:04:55.420,1.409,-0.776,6.036,-752.686,-513.306,159.729, , , , , , ,22.33,21.154,-101.338
 13:20:28.466,eb:33:2e:f9:57:b5, 2015-01-01 01:04:55.420,1.036,-0.758,5.881,-728.271,-501.221,207.214, , , , , , ,18.627,18.452,-101.349
 13:20:28.466,eb:33:2e:f9:57:b5, 2015-01-01 01:04:55.420,0.905,-0.553,5.664,-691.895,-490.54,258.057, , , , , , ,15.216,15.749,-100.904
 13:20:28.466,eb:33:2e:f9:57:b5, 2015-01-01 01:04:55.420,0.899,0.002,5.353,-647.705,-499.207,301.575, , , , , , ,12.096,13.008,-100.08
 13:20:28.556,eb:33:2e:f9:57:b5, 2015-01-01 01:04:55.420,0.857,0.6,5.147,-615.54,-500.244,333.557, , , , , , ,9.13,10.206,-98.959
 13:20:28.556,eb:33:2e:f9:57:b5, 2015-01-01 01:04:55.420,0.893,1.32,4.967,-600.403,-493.103,351.746, , , , , , ,6.317,7.509,-97.564
 13:20:28.556,eb:33:2e:f9:57:b5, 2015-01-01 01:04:55.420,0.841,2.161,4.995,-597.9,-471.313,351.562, , , , , , ,3.494,4.966,-96.004
 13:20:28.556,eb:33:2e:f9:57:b5, 2015-01-01 01:04:55.420,0.799,3.048,5.033,-595.52,-444.824,328.064, , , , , , ,0.615,2.626,-94.389
 13:20:28.556,eb:33:2e:f9:57:b5, 2015-01-01 01:04:55.420,0.733,3.927,4.895,-588.318,-418.823,280.334, , , , , , ,-2.357,0.461,-92.862
 13:20:28.556,eb:33:2e:f9:57:b5, 2015-01-01 01:04:55.420,0.588,4.742,4.444,-577.515,-406.86,211.243, , , , , , ,-5.279,-1.5,-91.527
 13:20:28.557,eb:33:2e:f9:57:b5, 2015-01-01 01:04:55.420,0.317,5.323,3.964,-567.139,-414.551,128.845, , , , , , ,-8.179,-3.439,-90.489
 13:20:28.557,eb:33:2e:f9:57:b5, 2015-01-01 01:04:55.420,-0.128,5.555,3.921,-558.533,-432.312,45.715, , , , , , ,-11.041,-5.471,-89.742
 13:20:28.557,eb:33:2e:f9:57:b5, 2015-01-01 01:04:55.420,-0.823,5.461,4.276,-554.077,-450.989,-21.423, , , , , , ,-13.936,-7.674,-89.242
 13:20:28.557,eb:33:2e:f9:57:b5, 2015-01-01 01:04:55.420,-1.625,5.224,4.848,-545.166,-463.928,-65.735, , , , , , ,-16.738,-9.959,-88.874
 13:20:28.557,eb:33:2e:f9:57:b5, 2015-01-01 01:04:55.420,-2.619,5.015,5.727,-521.179,-451.66,-83.923, , , , , , ,-19.473,-12.255,-88.544
 13:20:28.557,eb:33:2e:f9:57:b5, 2015-01-01 01:04:55.420,-3.169,5.312,6.619,-468.506,-429.016,-78.796, , , , , , ,-22.028,-14.469,-88.132
 13:20:28.557,eb:33:2e:f9:57:b5, 2015-01-01 01:04:55.420,-4.314,5.545,7.054,-397.4,-412.231,-28.076, , , , , , ,-24.373,-16.512,-87.539
 13:20:28.557,eb:33:2e:f9:57:b5, 2015-01-01 01:04:55.420,-4.243,6.132,6.99,-332.458,-347.717,-35.583, , , , , , ,-26.384,-18.303,-86.808
 13:20:28.557,eb:33:2e:f9:57:b5, 2015-01-01 01:04:55.420,-5.944,6.365,8.746,-282.471,-116.821,-48.584, , , , , , ,-27.944,-19.451,-86.528
 13:20:28.557,eb:33:2e:f9:57:b5, 2015-01-01 01:04:55.420,-5.674,6.824,5.269,-201.843,-271.729,-52.429, , , , , , ,-29.207,-20.484,-86.259
 13:20:28.560,eb:33:2e:f9:57:b5, 2015-01-01 01:04:55.420,-4.817,7.134,5.461,-130.981,-293.457,-54.504, , , , , , ,-30.212,-21.901,-85.71
 13:20:28.560,eb:33:2e:f9:57:b5, 2015-01-01 01:04:55.420,-5.259,7.34,6.4,-95.093,-164.368,-24.414, , , , , , ,-30.927,-22.863,-85.314
 13:20:28.560,eb:33:2e:f9:57:b5, 2015-01-01 01:04:55.420,-5,7.773,5.911,-45.898,-97.778,-30.762, , , , , , ,-31.344,-23.461,-85.111
 13:20:28.560,eb:33:2e:f9:57:b5, 2015-01-01 01:04:55.420,-4.421,7.773,5.17,5.188,-35.156,-36.133, , , , , , ,-31.426,-23.813,-85.095
 13:20:28.560,eb:33:2e:f9:57:b5, 2015-01-01 01:04:55.420,-3.794,7.415,4.681,62.683,26.917,-37.354, , , , , , ,-31.163,-23.895,-85.281
 13:20:28.560,eb:33:2e:f9:57:b5, 2015-01-01 01:04:55.420,-3.237,6.935,3.951,114.624,61.523,-32.41, , , , , , ,-30.564,-23.769,-85.589
 13:20:28.560,eb:33:2e:f9:57:b5, 2015-01-01 01:04:55.420,-2.837,6.374,3.497,164.734,75.928,-21.79, , , , , , ,-29.707,-23.527,-85.93
 13:20:28.560,eb:33:2e:f9:57:b5, 2015-01-01 01:04:55.420,-2.211,5.821,3.364,217.896,75.012,-9.277, , , , , , ,-28.619,-23.231,-86.199
 13:20:28.646,eb:33:2e:f9:57:b5, 2015-01-01 01:04:55.935,-1.565,5.081,3.491,279.663,85.083,-0.854, , , , , , ,-27.257,-22.896,-86.418
 13:20:28.646,eb:33:2e:f9:57:b5, 2015-01-01 01:04:55.935,-1,4.435,3.392,319.214,106.812,-2.014, , , , , , ,-25.637,-22.456,-86.66
 13:20:28.646,eb:33:2e:f9:57:b5, 2015-01-01 01:04:55.935,-0.595,3.802,2.812,343.323,117.31,-11.658, , , , , , ,-23.851,-21.951,-86.968
 13:20:28.646,eb:33:2e:f9:57:b5, 2015-01-01 01:04:55.935,-0.537,3.077,2.214,351.074,115.356,-25.513, , , , , , ,-21.978,-21.451,-87.314
 13:20:28.646,eb:33:2e:f9:57:b5, 2015-01-01 01:04:55.935,-0.583,2.08,1.71,350.281,102.844,-36.804, , , , , , ,-20.072,-21.006,-87.687
 13:20:28.646,eb:33:2e:f9:57:b5, 2015-01-01 01:04:55.935,4.756,0.912,1.505,344.971,103.638,-34.058, , , , , , ,-18.204,-20.588,-88.05
 13:20:28.646,eb:33:2e:f9:57:b5, 2015-01-01 01:04:55.935,3.298,2.656,6.541,672.729,-109.07,-361.45, , , , , , ,-15.271,-21.099,-88.846
 13:20:28.646,eb:33:2e:f9:57:b5, 2015-01-01 01:04:55.935,1.018,-2.01,-3.841,726.013,436.951,-252.319, , , , , , ,-11.431,-19.001,-90.725
 13:20:28.646,eb:33:2e:f9:57:b5, 2015-01-01 01:04:55.935,0.153,-1.149,3.873,629.639,567.688,-280.945, , , , , , ,-7.333,-16.65,-92.483
 13:20:28.646,eb:33:2e:f9:57:b5, 2015-01-01 01:04:55.935,2.078,-0.042,5.877,452.881,469.299,-163.94, , , , , , ,-4.285,-14.332,-94.12
 13:20:28.646,eb:33:2e:f9:57:b5, 2015-01-01 01:04:55.935,1.616,4.793,9.903,179.871,474.365,33.325, , , , , , ,-2.769,-12.008,-94.334
 13:20:28.646,eb:33:2e:f9:57:b5, 2015-01-01 01:04:55.935,-0.841,3.616,6.565,15.564,593.506,85.51, , , , , , ,-2.461,-9.333,-94.087
 13:20:28.646,eb:33:2e:f9:57:b5, 2015-01-01 01:04:55.935,-1.956,-0.725,1.87,47.729,535.034,125.916, , , , , , ,-2.39,-6.339,-93.669
 13:20:28.646,eb:33:2e:f9:57:b5, 2015-01-01 01:04:55.935,-0.607,-1.826,-0.614,164.124,270.081,98.816, , , , , , ,-1.851,-4.471,-93.148
 13:20:28.647,eb:33:2e:f9:57:b5, 2015-01-01 01:04:55.935,-0.641,-0.351,0.597,211.731,211.06,31.799, , , , , , ,-0.879,-3.362,-92.873
 13:20:28.647,eb:33:2e:f9:57:b5, 2015-01-01 01:04:55.935,-1.779,1.037,0.201,172.058,220.947,0.427, , , , , , ,0.088,-2.23,-92.829
 13:20:28.736,eb:33:2e:f9:57:b5, 2015-01-01 01:04:55.935,-0.959,0.193,-1.286,147.4,95.642,1.465, , , , , , ,0.884,-1.483,-92.829
 13:20:28.736,eb:33:2e:f9:57:b5, 2015-01-01 01:04:55.935,-0.401,0.148,-0.256,133.179,46.753,-8.179, , , , , , ,1.577,-1.192,-92.834
 13:20:28.736,eb:33:2e:f9:57:b5, 2015-01-01 01:04:55.935,0.674,0.616,0.669,125.122,26.55,-34.18, , , , , , ,2.214,-1.011,-92.961
 13:20:28.736,eb:33:2e:f9:57:b5, 2015-01-01 01:04:55.935,0.559,0.175,1.556,121.46,63.477,-32.288, , , , , , ,2.834,-0.786,-93.126
 13:20:28.736,eb:33:2e:f9:57:b5, 2015-01-01 01:04:55.935,-0.172,0.301,1.408,115.356,109.924,-34.668, , , , , , ,3.444,-0.302,-93.257
 13:20:28.736,eb:33:2e:f9:57:b5, 2015-01-01 01:04:55.935,-0.241,0.248,0.988,114.563,111.389,-44.006, , , , , , ,4.01,0.28,-93.422
 13:20:28.736,eb:33:2e:f9:57:b5, 2015-01-01 01:04:55.935,0.207,0.048,1.136,127.38,90.271,-46.387, , , , , , ,4.625,0.786,-93.62
 13:20:28.736,eb:33:2e:f9:57:b5, 2015-01-01 01:04:55.935,0.309,0.416,1.468,131.287,98.267,-50.842, , , , , , ,5.268,1.274,-93.829
 13:20:28.738,eb:33:2e:f9:57:b5, 2015-01-01 01:04:55.935,0.134,-0.14,2.396,126.526,123.23,-36.865, , , , , , ,5.927,1.835,-93.994
 13:20:28.738,eb:33:2e:f9:57:b5, 2015-01-01 01:04:55.935,0.235,-0.007,1.688,136.902,112.671,-26.611, , , , , , ,6.586,2.45,-94.059
 13:20:28.738,eb:33:2e:f9:57:b5, 2015-01-01 01:04:55.935,0.633,0.121,2.366,161.194,110.474,-33.203, , , , , , ,7.339,2.994,-94.153
 13:20:28.738,eb:33:2e:f9:57:b5, 2015-01-01 01:04:55.935,-0.604,0.055,2.013,191.04,120.483,-21.118, , , , , , ,8.229,3.615,-94.202
 13:20:28.738,eb:33:2e:f9:57:b5, 2015-01-01 01:04:55.935,-0.438,-0.642,3.208,219.482,149.353,-8.545, , , , , , ,9.3,4.241,-94.197
 13:20:28.738,eb:33:2e:f9:57:b5, 2015-01-01 01:04:55.935,-0.509,-0.884,3.141,234.497,194.397,46.387, , , , , , ,10.47,5.142,-93.884
 13:20:28.738,eb:33:2e:f9:57:b5, 2015-01-01 01:04:55.935,-0.661,0.079,1.086,273.376,84.717,36.682, , , , , , ,11.794,5.746,-93.538
 13:20:28.738,eb:33:2e:f9:57:b5, 2015-01-01 01:04:55.935,-0.418,-0.68,2.457,294.983,62.073,42.419, , , , , , ,13.25,6.021,-93.307
 13:20:28.760,eb:33:2e:f9:57:b5, 2015-01-01 01:04:55.935,-0.426,-0.842,3.172,316.895,66.467,57.007, , , , , , ,14.843,6.301,-92.955
 13:20:28.760,eb:33:2e:f9:57:b5, 2015-01-01 01:04:55.935,0.001,-0.729,3.362,345.093,45.349,52.063, , , , , , ,16.534,6.482,-92.631
 13:20:28.760,eb:33:2e:f9:57:b5, 2015-01-01 01:04:55.935,0.215,-0.5,3.348,392.578,25.391,49.255, , , , , , ,18.435,6.592,-92.318
 13:20:28.760,eb:33:2e:f9:57:b5, 2015-01-01 01:04:55.935,0.272,-0.482,3.036,437.683,-20.813,27.039, , , , , , ,20.555,6.52,-92.137
 13:20:28.760,eb:33:2e:f9:57:b5, 2015-01-01 01:04:55.935,0.426,-1.027,4.111,482.239,-8.85,13.794, , , , , , ,22.896,6.405,-92.087
 13:20:28.760,eb:33:2e:f9:57:b5, 2015-01-01 01:04:55.935,1.176,-0.873,4.396,521.912,1.343,0.244, , , , , , ,25.433,6.378,-92.038
 13:20:28.760,eb:33:2e:f9:57:b5, 2015-01-01 01:04:55.935,1.762,-0.996,4.558,577.759,19.775,-15.442, , , , , , ,28.207,6.454,-92.065
 13:20:28.761,eb:33:2e:f9:57:b5, 2015-01-01 01:04:55.935,2.18,-0.401,4.155,644.714,1.831,-56.335, , , , , , ,31.273,6.597,-92.203
 13:20:28.803,eb:33:2e:f9:57:b5, 2015-01-01 01:04:55.935,2.849,-0.028,5.054,726.257,10.315,-117.615, , , , , , ,34.695,6.855,-92.598
 13:20:28.803,eb:33:2e:f9:57:b5, 2015-01-01 01:04:55.935,3.504,0.364,5.722,829.59,20.691,-168.518, , , , , , ,38.557,7.394,-93.131
 13:20:28.803,eb:33:2e:f9:57:b5, 2015-01-01 01:04:55.935,3.153,1.619,4.66,911.438,-65.186,-236.084, , , , , , ,42.88,7.965,-93.999
 13:20:28.803,eb:33:2e:f9:57:b5, 2015-01-01 01:04:55.935,2.991,2.571,5.788,900.33,-169.8,-330.444, , , , , , ,47.192,8.531,-95.548
 13:20:28.803,eb:33:2e:f9:57:b5, 2015-01-01 01:04:55.935,2.088,2.291,7.415,893.372,-140.137,-369.873, , , , , , ,51.383,9.399,-97.317
 13:20:28.803,eb:33:2e:f9:57:b5, 2015-01-01 01:04:55.935,1.349,3.627,4.785,886.902,-218.323,-434.021, , , , , , ,55.53,10.475,-99.223
 13:20:28.803,eb:33:2e:f9:57:b5, 2015-01-01 01:04:55.935,1.302,6.408,3.651,774.17,-305.237,-566.528, , , , , , ,59.134,11.915,-101.876
 13:20:28.803,eb:33:2e:f9:57:b5, 2015-01-01 01:04:55.935,-2.423,1.741,3.464,626.404,-243.713,-546.082, , , , , , ,61.952,13.744,-104.54
 13:20:28.850,eb:33:2e:f9:57:b5, 2015-01-01 01:04:55.935,-4.222,0.537,-0.006,406.738,-136.047,-385.498, , , , , , ,64.028,15.491,-106.403
 13:20:28.850,eb:33:2e:f9:57:b5, 2015-01-01 01:04:55.935,-2.435,-2.435,0.685,207.275,17.151,-207.581, , , , , , ,65.149,16.6,-107.298
 13:20:28.850,eb:33:2e:f9:57:b5, 2015-01-01 01:04:55.935,-0.907,-1.281,5.225,147.4,308.716,-97.473, , , , , , ,66.149,17.617,-106.644
 13:20:28.850,eb:33:2e:f9:57:b5, 2015-01-01 01:04:55.935,0.674,2.22,7.558,195.19,504.456,-76.721, , , , , , ,67.593,18.825,-104.711
 13:20:28.850,eb:33:2e:f9:57:b5, 2015-01-01 01:04:55.935,1.505,4.042,8.852,324.402,584.412,-101.624, , , , , , ,69.807,20.253,-102.096
 13:20:28.851,eb:33:2e:f9:57:b5, 2015-01-01 01:04:55.935,1.864,3.625,6.599,444.153,533.691,-142.334, , , , , , ,72.751,21.753,-99.465
 13:20:28.851,eb:33:2e:f9:57:b5, 2015-01-01 01:04:55.935,2.149,2.438,3.578,502.991,394.531,-175.537, , , , , , ,75.981,23.154,-97.328
 13:20:28.851,eb:33:2e:f9:57:b5, 2015-01-01 01:04:55.935,1.925,1.767,2.712,503.235,284.973,-211.06, , , , , , ,79.118,24.467,-95.817
 13:20:28.916,eb:33:2e:f9:57:b5, 2015-01-01 01:04:56.315,1.903,1.616,4.09,477.112,213.562,-245.178, , , , , , ,82.002,25.801,-94.741
 13:20:28.916,eb:33:2e:f9:57:b5, 2015-01-01 01:04:56.315,1.876,1.799,5.961,439.575,202.637,-274.719, , , , , , ,84.71,27.23,-93.779
 13:20:28.916,eb:33:2e:f9:57:b5, 2015-01-01 01:04:56.315,2.115,1.873,7.16,398.56,227.356,-297.607, , , , , , ,87.297,28.735,-92.686
 13:20:28.916,eb:33:2e:f9:57:b5, 2015-01-01 01:04:56.315,2.324,1.754,7.287,368.53,255.554,-320.618, , , , , , ,89.857,30.322,-91.34
 13:20:28.916,eb:33:2e:f9:57:b5, 2015-01-01 01:04:56.315,2.842,1.462,7.63,346.924,300.354,-339.783, , , , , , ,92.472,31.937,-89.67
 13:20:28.916,eb:33:2e:f9:57:b5, 2015-01-01 01:04:56.315,3.384,1.152,7.332,329.163,333.374,-358.582, , , , , , ,95.262,33.58,-87.621
 13:20:28.916,eb:33:2e:f9:57:b5, 2015-01-01 01:04:56.315,3.863,0.743,7.008,314.026,355.225,-374.756, , , , , , ,98.196,35.206,-85.243
 13:20:28.916,eb:33:2e:f9:57:b5, 2015-01-01 01:04:56.315,4.103,0.254,6.377,295.471,358.643,-383.301, , , , , , ,101.234,36.782,-82.656
 13:20:28.938,eb:33:2e:f9:57:b5, 2015-01-01 01:04:56.315,4.062,-0.253,5.277,265.808,340.027,-378.845, , , , , , ,104.194,38.249,-80.035
 13:20:28.938,eb:33:2e:f9:57:b5, 2015-01-01 01:04:56.315,3.67,-0.714,4.073,229.858,290.894,-370.85, , , , , , ,107.023,39.622,-77.487
 13:20:28.938,eb:33:2e:f9:57:b5, 2015-01-01 01:04:56.315,3.328,-1.154,3.473,186.401,227.356,-357.178, , , , , , ,109.55,40.957,-75.141
 13:20:28.938,eb:33:2e:f9:57:b5, 2015-01-01 01:04:56.315,3.14,-1.492,3.462,134.583,173.279,-324.646, , , , , , ,111.66,42.204,-73.147
 13:20:28.938,eb:33:2e:f9:57:b5, 2015-01-01 01:04:56.315,2.957,-1.435,3.894,101.929,162.842,-303.406, , , , , , ,113.412,43.319,-71.34
 13:20:28.938,eb:33:2e:f9:57:b5, 2015-01-01 01:04:56.315,2.765,-1.36,4.725,70.923,172.058,-275.879, , , , , , ,115.126,44.28,-69.461
 13:20:28.938,eb:33:2e:f9:57:b5, 2015-01-01 01:04:56.315,2.788,-1.414,4.953,64.026,169.8,-251.465, , , , , , ,116.785,45.082,-67.549
 13:20:28.938,eb:33:2e:f9:57:b5, 2015-01-01 01:04:56.315,2.782,-1.632,4.625,56.641,177.063,-230.469, , , , , , ,118.433,45.736,-65.654
 13:20:28.961,eb:33:2e:f9:57:b5, 2015-01-01 01:04:56.315,2.717,-1.919,3.995,40.466,182.19,-200.623, , , , , , ,119.932,46.225,-63.847
 13:20:28.961,eb:33:2e:f9:57:b5, 2015-01-01 01:04:56.315,2.606,-2.189,3.146,13.489,177.795,-167.786, , , , , , ,121.36,46.544,-62.045
 13:20:28.961,eb:33:2e:f9:57:b5, 2015-01-01 01:04:56.315,2.456,-2.331,2.283,-19.165,150.146,-138.184, , , , , , ,122.481,46.747,-60.447
 13:20:28.961,eb:33:2e:f9:57:b5, 2015-01-01 01:04:56.315,2.249,-2.554,1.603,-52.246,101.624,-107.361, , , , , , ,123.179,46.917,-59.216
 13:20:28.961,eb:33:2e:f9:57:b5, 2015-01-01 01:04:56.315,2.064,-2.985,1.059,-83.862,37.781,-74.219, , , , , , ,123.278,47.115,-58.552
 13:20:28.961,eb:33:2e:f9:57:b5, 2015-01-01 01:04:56.315,2.042,-3.508,0.599,-122.803,-14.954,-41.016, , , , , , ,122.921,47.329,-58.304
 13:20:28.961,eb:33:2e:f9:57:b5, 2015-01-01 01:04:56.315,2.08,-3.934,0.291,-172.058,-43.396,-3.723, , , , , , ,122.069,47.499,-58.42
 13:20:28.961,eb:33:2e:f9:57:b5, 2015-01-01 01:04:56.315,2.338,-4.217,-0.228,-230.164,-66.345,32.349, , , , , , ,120.712,47.571,-58.854
 13:20:29.006,eb:33:2e:f9:57:b5, 2015-01-01 01:04:56.315,2.69,-4.467,-0.899,-297.791,-84.106,63.354, , , , , , ,118.757,47.554,-59.628
 13:20:29.006,eb:33:2e:f9:57:b5, 2015-01-01 01:04:56.315,2.687,-4.517,-1.586,-372.437,-113.342,98.511, , , , , , ,116.362,47.406,-60.557
 13:20:29.006,eb:33:2e:f9:57:b5, 2015-01-01 01:04:56.315,2.652,-4.28,-2.41,-446.411,-172.668,123.413, , , , , , ,113.291,47.197,-61.88
 13:20:29.006,eb:33:2e:f9:57:b5, 2015-01-01 01:04:56.315,2.525,-3.833,-2.409,-505.371,-250.488,138.733, , , , , , ,109.523,46.972,-63.726
 13:20:29.006,eb:33:2e:f9:57:b5, 2015-01-01 01:04:56.315,2.456,-3.39,-1.963,-547.363,-338.562,145.996, , , , , , ,105.018,46.741,-66.215
 13:20:29.006,eb:33:2e:f9:57:b5, 2015-01-01 01:04:56.315,2.506,-3.033,-1.188,-580.994,-409.363,153.503, , , , , , ,100.025,46.423,-69.17
 13:20:29.006,eb:33:2e:f9:57:b5, 2015-01-01 01:04:56.315,2.526,-2.776,-0.145,-610.291,-447.754,160.339, , , , , , ,94.68,45.917,-72.416
 13:20:29.006,eb:33:2e:f9:57:b5, 2015-01-01 01:04:56.315,2.477,-2.621,0.706,-639.771,-466.37,165.222, , , , , , ,89.171,45.176,-75.734
 13:20:29.075,eb:33:2e:f9:57:b5, 2015-01-01 01:04:56.315,2.413,-2.486,1.3,-671.021,-480.469,168.396, , , , , , ,83.513,44.182,-79.047
 13:20:29.075,eb:33:2e:f9:57:b5, 2015-01-01 01:04:56.315,2.377,-2.313,1.837,-701.721,-499.39,170.959, , , , , , ,77.893,42.946,-82.205
 13:20:29.075,eb:33:2e:f9:57:b5, 2015-01-01 01:04:56.315,2.427,-2.052,2.444,-729.187,-525.208,171.875, , , , , , ,72.246,41.457,-85.248
 13:20:29.075,eb:33:2e:f9:57:b5, 2015-01-01 01:04:56.315,2.461,-1.736,3.211,-750,-551.758,170.044, , , , , , ,66.621,39.705,-88.193
 13:20:29.075,eb:33:2e:f9:57:b5, 2015-01-01 01:04:56.315,2.443,-1.432,4.044,-761.78,-570.862,164.185, , , , , , ,61.029,37.689,-91.011
 13:20:29.075,eb:33:2e:f9:57:b5, 2015-01-01 01:04:56.315,2.408,-1.123,4.79,-769.592,-576.538,155.396, , , , , , ,55.684,35.502,-93.543
 13:20:29.075,eb:33:2e:f9:57:b5, 2015-01-01 01:04:56.315,2.283,-0.853,5.455,-774.902,-566.895,146.362, , , , , , ,50.559,33.184,-95.762
 13:20:29.075,eb:33:2e:f9:57:b5, 2015-01-01 01:04:56.315,2.113,-0.578,5.934,-778.32,-546.082,137.207, , , , , , ,45.676,30.811,-97.641
 13:20:29.140,eb:33:2e:f9:57:b5, 2015-01-01 01:04:56.315,1.992,-0.354,6.172,-780.029,-522.217,129.333, , , , , , ,40.952,28.389,-99.229
 13:20:29.140,eb:33:2e:f9:57:b5, 2015-01-01 01:04:56.315,1.856,-0.167,6.271,-779.663,-495.667,124.451, , , , , , ,36.486,26.016,-100.459
 13:20:29.140,eb:33:2e:f9:57:b5, 2015-01-01 01:04:56.315,1.696,-0.062,6.163,-774.292,-475.342,124.939, , , , , , ,32.206,23.676,-101.387
 13:20:29.140,eb:33:2e:f9:57:b5, 2015-01-01 01:04:56.315,1.578,-0.152,5.942,-764.771,-462.341,133.301, , , , , , ,28.109,21.33,-102.057
 13:20:29.140,eb:33:2e:f9:57:b5, 2015-01-01 01:04:56.315,1.431,-0.221,5.806,-753.662,-446.289,148.987, , , , , , ,24.12,18.94,-102.469
 13:20:29.140,eb:33:2e:f9:57:b5, 2015-01-01 01:04:56.315,1.287,-0.146,5.341,-739.502,-445.312,170.715, , , , , , ,20.363,16.578,-102.568
 13:20:29.140,eb:33:2e:f9:57:b5, 2015-01-01 01:04:56.315,1.129,0.04,4.844,-720.764,-457.947,194.336, , , , , , ,16.76,14.145,-102.404
 13:20:29.141,eb:33:2e:f9:57:b5, 2015-01-01 01:04:56.315,1.037,0.552,4.448,-690.552,-486.145,218.14, , , , , , ,13.332,11.58,-101.997
 13:20:29.208,eb:33:2e:f9:57:b5, 2015-01-01 01:04:56.315,0.869,1.182,4.54,-661.804,-499.329,230.103, , , , , , ,10.003,8.877,-101.404
 13:20:29.208,eb:33:2e:f9:57:b5, 2015-01-01 01:04:56.315,0.677,1.977,4.769,-630.31,-503.784,228.271, , , , , , ,6.894,6.218,-100.629
 13:20:29.208,eb:33:2e:f9:57:b5, 2015-01-01 01:04:56.315,0.397,2.858,4.884,-599.854,-500.671,210.571, , , , , , ,3.906,3.62,-99.778
 13:20:29.208,eb:33:2e:f9:57:b5, 2015-01-01 01:04:56.315,0,3.688,4.733,-572.51,-500.61,178.345, , , , , , ,1.027,1.077,-98.921
 13:20:29.208,eb:33:2e:f9:57:b5, 2015-01-01 01:04:56.315,-0.588,4.325,4.524,-550.232,-502.258,136.902, , , , , , ,-1.829,-1.472,-98.146
 13:20:29.208,eb:33:2e:f9:57:b5, 2015-01-01 01:04:56.315,-1.238,4.673,4.352,-533.447,-500.061,95.398, , , , , , ,-4.559,-3.944,-97.449
 13:20:29.208,eb:33:2e:f9:57:b5, 2015-01-01 01:04:56.315,-1.874,4.844,4.398,-521.362,-484.375,61.401, , , , , , ,-7.245,-6.356,-96.833
 13:20:29.208,eb:33:2e:f9:57:b5, 2015-01-01 01:04:56.315,-2.472,5.021,4.619,-508.789,-460.571,35.95, , , , , , ,-9.893,-8.646,-96.251
 13:20:29.231,eb:33:2e:f9:57:b5, 2015-01-01 01:04:56.315,-3.079,5.279,4.938,-493.347,-435.486,18.188, , , , , , ,-12.541,-10.849,-95.685
 13:20:29.231,eb:33:2e:f9:57:b5, 2015-01-01 01:04:56.315,-3.794,5.669,5.289,-471.375,-412.781,6.592, , , , , , ,-15.062,-12.881,-95.12
 13:20:29.231,eb:33:2e:f9:57:b5, 2015-01-01 01:04:56.315,-4.283,6.097,5.64,-434.509,-393.127,-2.991, , , , , , ,-17.457,-14.799,-94.548
 13:20:29.231,eb:33:2e:f9:57:b5, 2015-01-01 01:04:56.315,-5.096,6.224,5.854,-382.568,-392.517,6.226, , , , , , ,-19.655,-16.628,-93.9
 13:20:29.231,eb:33:2e:f9:57:b5, 2015-01-01 01:04:56.315,-5.865,7.13,6.815,-328.796,-313.843,47.302, , , , , , ,-21.698,-18.193,-92.988
 13:20:29.231,eb:33:2e:f9:57:b5, 2015-01-01 01:04:56.315,-5.432,7.622,6.577,-270.691,-248.84,6.653, , , , , , ,-23.368,-19.446,-92.318
 13:20:29.231,eb:33:2e:f9:57:b5, 2015-01-01 01:04:56.315,-5.968,7.871,8.103,-238.037,-20.325,-57.556, , , , , , ,-24.648,-20.067,-92.186
 13:20:29.231,eb:33:2e:f9:57:b5, 2015-01-01 01:04:56.315,-6.599,7.912,5.937,-171.448,-57.068,-69.641, , , , , , ,-25.554,-20.248,-92.549
 13:20:29.235,eb:33:2e:f9:57:b5, 2015-01-01 01:04:56.315,-5.51,8.296,4.42,-79.163,-196.106,-86.792, , , , , , ,-26.125,-21.215,-92.538
 13:20:29.235,eb:33:2e:f9:57:b5, 2015-01-01 01:04:56.315,-5.667,7.97,5.351,-43.884,-90.088,-88.806, , , , , , ,-26.367,-21.973,-92.67
 13:20:29.235,eb:33:2e:f9:57:b5, 2015-01-01 01:04:56.315,-5.34,7.715,4.579,-6.714,-39.124,-98.694, , , , , , ,-26.356,-22.456,-93.005
 13:20:29.235,eb:33:2e:f9:57:b5, 2015-01-01 01:04:56.315,-4.63,7.048,4.823,32.41,28.931,-98.206, , , , , , ,-26.087,-22.681,-93.483
 13:20:29.235,eb:33:2e:f9:57:b5, 2015-01-01 01:04:56.315,-3.922,6.433,4.715,75.684,106.995,-85.632, , , , , , ,-25.554,-22.538,-94.109
 13:20:29.235,eb:33:2e:f9:57:b5, 2015-01-01 01:04:56.315,-3.202,5.776,3.891,121.826,150.33,-67.505, , , , , , ,-24.78,-22.077,-94.79
 13:20:29.235,eb:33:2e:f9:57:b5, 2015-01-01 01:04:56.315,-2.549,5.027,2.602,167.969,147.644,-43.64, , , , , , ,-23.807,-21.506,-95.4
 13:20:29.235,eb:33:2e:f9:57:b5, 2015-01-01 01:04:56.315,-2.056,4.013,1.699,213.989,124.512,-16.113, , , , , , ,-22.676,-20.934,-95.817
 13:20:29.255,eb:33:2e:f9:57:b5, 2015-01-01 01:04:56.315,-1.648,2.988,1.186,253.784,90.515,19.897, , , , , , ,-21.407,-20.435,-96.004
 13:20:29.255,eb:33:2e:f9:57:b5, 2015-01-01 01:04:56.315,-1.208,2.067,1.042,284.912,72.632,58.35, , , , , , ,-20.067,-19.995,-95.938
 13:20:29.255,eb:33:2e:f9:57:b5, 2015-01-01 01:04:56.315,-0.674,1.401,0.729,310.608,69.336,89.905, , , , , , ,-18.649,-19.539,-95.68
 13:20:29.255,eb:33:2e:f9:57:b5, 2015-01-01 01:04:56.315,-0.145,1.006,0.115,329.834,69.946,111.694, , , , , , ,-17.172,-19.045,-95.273
 13:20:29.255,eb:33:2e:f9:57:b5, 2015-01-01 01:04:56.315,0.975,0.836,-0.601,345.52,54.871,116.394, , , , , , ,-15.617,-18.572,-94.779
 13:20:29.255,eb:33:2e:f9:57:b5, 2015-01-01 01:04:56.315,-0.869,1.206,-0.275,585.754,-247.681,23.56, , , , , , ,-13.689,-18.649,-94.268
 13:20:29.255,eb:33:2e:f9:57:b5, 2015-01-01 01:04:56.315,-1.638,2.82,7.964,822.998,752.014,-300.354, , , , , , ,-9.152,-17.342,-95.916
 13:20:29.255,eb:33:2e:f9:57:b5, 2015-01-01 01:04:56.315,-3.272,3.561,0.297,730.652,221.863,-352.783, , , , , , ,-4.438,-16.172,-97.751
 13:20:29.321,eb:33:2e:f9:57:b5, 2015-01-01 01:04:56.720,2.5,3.708,5.822,414.185,325.439,-138.55, , , , , , ,-1.461,-14.299,-99.102
 13:20:29.321,eb:33:2e:f9:57:b5, 2015-01-01 01:04:56.720,0.801,8.203,12.547,80.994,435.181,32.532, , , , , , ,-0.396,-12.59,-99.19
 13:20:29.321,eb:33:2e:f9:57:b5, 2015-01-01 01:04:56.720,-0.93,2.119,5.503,-20.081,624.512,78.491, , , , , , ,-0.538,-9.679,-98.811
 13:20:29.321,eb:33:2e:f9:57:b5, 2015-01-01 01:04:56.720,-1.16,-2.202,1.462,88.501,515.991,119.995, , , , , , ,-0.401,-6.751,-98.311
 13:20:29.321,eb:33:2e:f9:57:b5, 2015-01-01 01:04:56.720,-0.574,-0.441,0.967,187.5,292.175,-17.822, , , , , , ,0.363,-4.96,-98.113
 13:20:29.321,eb:33:2e:f9:57:b5, 2015-01-01 01:04:56.720,-1.186,-0.86,0.709,194.275,270.874,14.954, , , , , , ,1.357,-3.554,-98.124
 13:20:29.321,eb:33:2e:f9:57:b5, 2015-01-01 01:04:56.720,-1.381,0.353,-0.413,165.527,185.791,28.259, , , , , , ,2.236,-2.505,-97.938
 13:20:29.321,eb:33:2e:f9:57:b5, 2015-01-01 01:04:56.720,-1.565,0.159,-0.304,153.748,157.104,0.61, , , , , , ,2.999,-1.609,-97.817
 13:20:29.343,eb:33:2e:f9:57:b5, 2015-01-01 01:04:56.720,0.442,0.016,-0.673,168.396,3.113,-21.606, , , , , , ,3.851,-1.269,-97.866
 13:20:29.343,eb:33:2e:f9:57:b5, 2015-01-01 01:04:56.720,0.467,0.571,1.043,146.667,40.466,-19.409, , , , , , ,4.642,-1.214,-97.987
 13:20:29.343,eb:33:2e:f9:57:b5, 2015-01-01 01:04:56.720,-0.038,0.537,1.408,132.996,99.67,-25.391, , , , , , ,5.328,-0.797,-98.047
 13:20:29.343,eb:33:2e:f9:57:b5, 2015-01-01 01:04:56.720,0.071,0.482,1.042,127.136,94.604,-46.143, , , , , , ,5.971,-0.286,-98.185
 13:20:29.343,eb:33:2e:f9:57:b5, 2015-01-01 01:04:56.720,0.409,0.17,1.907,142.273,80.627,-44.617, , , , , , ,6.68,0.165,-98.361
 13:20:29.343,eb:33:2e:f9:57:b5, 2015-01-01 01:04:56.720,0.083,-0.18,2.416,158.081,112.122,-30.884, , , , , , ,7.438,0.676,-98.487
 13:20:29.343,eb:33:2e:f9:57:b5, 2015-01-01 01:04:56.720,0.384,-0.176,2.375,167.725,121.765,-32.715, , , , , , ,8.262,1.285,-98.558
 13:20:29.343,eb:33:2e:f9:57:b5, 2015-01-01 01:04:56.720,0.282,0.19,2.063,187.073,122.803,-32.715, , , , , , ,9.146,1.906,-98.635
 13:20:29.366,eb:33:2e:f9:57:b5, 2015-01-01 01:04:56.720,0.302,0.05,3.01,230.53,125.916,-42.542, , , , , , ,10.223,2.549,-98.707
 13:20:29.366,eb:33:2e:f9:57:b5, 2015-01-01 01:04:56.720,-0.542,-0.69,3.957,279.663,197.144,-8.545, , , , , , ,11.53,3.4,-98.685
 13:20:29.366,eb:33:2e:f9:57:b5, 2015-01-01 01:04:56.720,-0.729,-0.737,3.065,314.636,201.965,5.432, , , , , , ,13.052,4.433,-98.465
 13:20:29.366,eb:33:2e:f9:57:b5, 2015-01-01 01:04:56.720,-0.471,-1.187,3.367,341.125,196.411,30.579, , , , , , ,14.722,5.361,-98.146
 13:20:29.366,eb:33:2e:f9:57:b5, 2015-01-01 01:04:56.720,-0.227,-1.038,2.87,378.845,169.373,58.105, , , , , , ,16.611,6.213,-97.635
 13:20:29.366,eb:33:2e:f9:57:b5, 2015-01-01 01:04:56.720,-0.041,-0.438,2.582,419.434,85.388,34.18, , , , , , ,18.671,6.718,-97.234
 13:20:29.366,eb:33:2e:f9:57:b5, 2015-01-01 01:04:56.720,0.115,-1.019,3.794,458.801,42.236,22.583, , , , , , ,20.918,6.921,-97.031
 13:20:29.366,eb:33:2e:f9:57:b5, 2015-01-01 01:04:56.720,0.719,-1.292,4.674,502.93,52.246,21.79, , , , , , ,23.362,7.108,-96.844
 13:20:29.433,eb:33:2e:f9:57:b5, 2015-01-01 01:04:56.720,1.083,-0.878,3.744,554.199,24.353,0.183, , , , , , ,26.065,7.273,-96.702
 13:20:29.433,eb:33:2e:f9:57:b5, 2015-01-01 01:04:56.720,1.475,-1.118,4.053,611.633,8.301,-30.029, , , , , , ,28.998,7.366,-96.757
 13:20:29.433,eb:33:2e:f9:57:b5, 2015-01-01 01:04:56.720,2.294,-1.034,5.023,671.204,27.649,-64.026, , , , , , ,32.212,7.564,-96.927
 13:20:29.433,eb:33:2e:f9:57:b5, 2015-01-01 01:04:56.720,3.26,-0.729,5.803,743.103,73.303,-106.018, , , , , , ,35.755,8.042,-97.152
 13:20:29.433,eb:33:2e:f9:57:b5, 2015-01-01 01:04:56.720,3.069,0.11,6.257,815.308,89.661,-152.71, , , , , , ,39.644,8.8,-97.416
 13:20:29.433,eb:33:2e:f9:57:b5, 2015-01-01 01:04:56.720,3.619,1.113,6.957,874.695,78.613,-196.228, , , , , , ,43.868,9.739,-97.784
 13:20:29.433,eb:33:2e:f9:57:b5, 2015-01-01 01:04:56.720,3.951,2.732,6.741,870.911,7.935,-259.277, , , , , , ,48.12,10.706,-98.454
 13:20:29.433,eb:33:2e:f9:57:b5, 2015-01-01 01:04:56.720,2.194,3.448,5.417,822.876,-63.232,-308.105, , , , , , ,52.152,11.717,-99.531
 13:20:29.457,eb:33:2e:f9:57:b5, 2015-01-01 01:04:56.720,2.07,5.369,3.213,734.924,-212.952,-394.897, , , , , , ,55.646,12.695,-101.245
 13:20:29.457,eb:33:2e:f9:57:b5, 2015-01-01 01:04:56.720,0.586,3.657,3.494,619.69,-223.633,-466.736, , , , , , ,58.475,13.931,-103.475
 13:20:29.457,eb:33:2e:f9:57:b5, 2015-01-01 01:04:56.720,-2.744,0.832,1.781,460.876,-110.657,-397.156, , , , , , ,60.656,15.381,-105.282
 13:20:29.457,eb:33:2e:f9:57:b5, 2015-01-01 01:04:56.720,-2.023,0.422,-1.166,242.493,-82.581,-231.934, , , , , , ,61.985,16.419,-106.441
 13:20:29.457,eb:33:2e:f9:57:b5, 2015-01-01 01:04:56.720,-0.496,-0.951,5.989,159.607,209.9,-91.064, , , , , , ,62.858,17.188,-106.512
 13:20:29.457,eb:33:2e:f9:57:b5, 2015-01-01 01:04:56.720,0.736,1.813,7.557,202.087,423.401,-48.279, , , , , , ,64.221,18.248,-104.996
 13:20:29.457,eb:33:2e:f9:57:b5, 2015-01-01 01:04:56.720,1.436,3.396,7.954,302.246,518.005,-50.476, , , , , , ,66.242,19.484,-102.728
 13:20:29.457,eb:33:2e:f9:57:b5, 2015-01-01 01:04:56.720,1.99,3.216,5.836,401.794,474.915,-73.12, , , , , , ,68.868,20.742,-100.399
 13:20:29.546,eb:33:2e:f9:57:b5, 2015-01-01 01:04:56.720,2.123,2.532,3.589,452.576,365.723,-101.746, , , , , , ,71.73,21.852,-98.498
 13:20:29.547,eb:33:2e:f9:57:b5, 2015-01-01 01:04:56.720,1.969,1.93,3.052,458.008,269.958,-143.25, , , , , , ,74.553,22.89,-97.108
 13:20:29.547,eb:33:2e:f9:57:b5, 2015-01-01 01:04:56.720,2.008,1.782,4.386,444.214,222.229,-195.984, , , , , , ,77.212,24.022,-96.086
 13:20:29.547,eb:33:2e:f9:57:b5, 2015-01-01 01:04:56.720,2.024,1.881,6.066,422.424,205.627,-242.371, , , , , , ,79.739,25.329,-95.197
 13:20:29.547,eb:33:2e:f9:57:b5, 2015-01-01 01:04:56.720,2.147,1.888,7.043,400.635,212.28,-284.18, , , , , , ,82.156,26.79,-94.312
 13:20:29.547,eb:33:2e:f9:57:b5, 2015-01-01 01:04:56.720,2.468,1.598,7.428,384.766,233.337,-321.533, , , , , , ,84.6,28.444,-93.252
 13:20:29.547,eb:33:2e:f9:57:b5, 2015-01-01 01:04:56.720,3.038,1.13,7.166,371.155,240.112,-355.164, , , , , , ,87.094,30.24,-92
 13:20:29.547,eb:33:2e:f9:57:b5, 2015-01-01 01:04:56.720,3.339,0.561,7.144,347.778,269.043,-379.7, , , , , , ,89.626,32.13,-90.566
 13:20:29.547,eb:33:2e:f9:57:b5, 2015-01-01 01:04:56.720,3.779,-0.027,6.594,327.087,268.311,-398.193, , , , , , ,92.181,34.052,-88.901
 13:20:29.547,eb:33:2e:f9:57:b5, 2015-01-01 01:04:56.720,3.657,-0.692,6.111,294.067,262.817,-396.973, , , , , , ,94.713,35.958,-87.171
 13:20:29.547,eb:33:2e:f9:57:b5, 2015-01-01 01:04:56.720,3.508,-1.372,4.959,251.648,238.831,-386.536, , , , , , ,97.147,37.776,-85.342
 13:20:29.547,eb:33:2e:f9:57:b5, 2015-01-01 01:04:56.720,3.352,-1.691,4.136,199.524,212.28,-366.699, , , , , , ,99.349,39.474,-83.584
 13:20:29.547,eb:33:2e:f9:57:b5, 2015-01-01 01:04:56.720,3.174,-1.834,3.858,149.353,187.012,-342.59, , , , , , ,101.212,41.012,-81.953
 13:20:29.547,eb:33:2e:f9:57:b5, 2015-01-01 01:04:56.720,3.137,-1.8,4.04,107.483,168.274,-317.81, , , , , , ,102.898,42.429,-80.349
 13:20:29.547,eb:33:2e:f9:57:b5, 2015-01-01 01:04:56.720,2.833,-1.688,4.524,73.547,174.194,-292.053, , , , , , ,104.458,43.704,-78.673
 13:20:29.548,eb:33:2e:f9:57:b5, 2015-01-01 01:04:56.720,2.765,-1.857,4.631,54.565,168.274,-267.639, , , , , , ,105.914,44.819,-77.025
 13:20:29.568,eb:33:2e:f9:57:b5, 2015-01-01 01:04:56.720,2.711,-2.007,4.65,37.781,178.711,-239.929, , , , , , ,107.265,45.758,-75.377
 13:20:29.568,eb:33:2e:f9:57:b5, 2015-01-01 01:04:56.720,2.719,-2.135,4.167,17.761,190.063,-211.06, , , , , , ,108.655,46.533,-73.641
 13:20:29.568,eb:33:2e:f9:57:b5, 2015-01-01 01:04:56.720,2.391,-2.229,3.831,-13.733,218.689,-176.697, , , , , , ,110.05,47.093,-71.702
 13:20:29.568,eb:33:2e:f9:57:b5, 2015-01-01 01:04:56.720,2.527,-2.439,2.809,-34.79,165.527,-135.01, , , , , , ,111.143,47.461,-70.043
 13:20:29.568,eb:33:2e:f9:57:b5, 2015-01-01 01:04:56.720,2.462,-2.57,2.447,-63.477,142.944,-99.731, , , , , , ,111.78,47.708,-68.769
 13:20:29.568,eb:33:2e:f9:57:b5, 2015-01-01 01:04:56.720,2.284,-2.696,2.091,-89.6,109.619,-67.444, , , , , , ,112.181,47.845,-67.687
 13:20:29.568,eb:33:2e:f9:57:b5, 2015-01-01 01:04:56.720,2.017,-3.035,1.77,-114.136,68.848,-33.997, , , , , , ,112.203,47.906,-66.94
 13:20:29.568,eb:33:2e:f9:57:b5, 2015-01-01 01:04:56.720,1.938,-3.569,1.138,-141.663,18.494,-0.671, , , , , , ,111.78,47.895,-66.632
 13:20:29.613,eb:33:2e:f9:57:b5, 2015-01-01 01:04:56.720,1.995,-4.155,0.543,-181.458,-17.395,37.598, , , , , , ,110.786,47.807,-66.808
 13:20:29.613,eb:33:2e:f9:57:b5, 2015-01-01 01:04:56.720,2.237,-4.52,-0.087,-235.779,-36.987,78.491, , , , , , ,109.446,47.565,-67.176
 13:20:29.613,eb:33:2e:f9:57:b5, 2015-01-01 01:04:56.720,2.494,-4.695,-0.676,-302.124,-50.598,118.103, , , , , , ,107.661,47.148,-67.72
 13:20:29.613,eb:33:2e:f9:57:b5, 2015-01-01 01:04:56.720,2.67,-4.667,-1.325,-378.174,-69.763,153.32, , , , , , ,105.397,46.56,-68.445
 13:20:29.613,eb:33:2e:f9:57:b5, 2015-01-01 01:04:56.720,2.735,-4.199,-1.845,-455.872,-105.408,176.636, , , , , , ,102.524,45.857,-69.428
 13:20:29.613,eb:33:2e:f9:57:b5, 2015-01-01 01:04:56.720,2.775,-3.478,-1.986,-520.996,-177.002,186.829, , , , , , ,99.135,45.088,-70.697
 13:20:29.613,eb:33:2e:f9:57:b5, 2015-01-01 01:04:56.720,2.877,-2.787,-1.444,-573.853,-281.372,183.716, , , , , , ,95.081,44.313,-72.504
 13:20:29.613,eb:33:2e:f9:57:b5, 2015-01-01 01:04:56.720,2.965,-2.334,-0.691,-606.812,-351.318,174.255, , , , , , ,90.505,43.5,-74.822
 13:20:29.681,eb:33:2e:f9:57:b5, 2015-01-01 01:04:57.055,2.938,-1.968,0.135,-638.794,-397.034,160.339, , , , , , ,85.551,42.599,-77.443
 13:20:29.681,eb:33:2e:f9:57:b5, 2015-01-01 01:04:57.055,2.899,-1.798,0.913,-673.218,-430.664,146.423, , , , , , ,80.464,41.594,-80.118
 13:20:29.681,eb:33:2e:f9:57:b5, 2015-01-01 01:04:57.055,2.801,-1.687,1.624,-711.487,-456.177,133.606, , , , , , ,75.212,40.446,-82.804
 13:20:29.681,eb:33:2e:f9:57:b5, 2015-01-01 01:04:57.055,2.723,-1.546,2.255,-747.009,-485.352,122.253, , , , , , ,69.824,39.128,-85.49
 13:20:29.681,eb:33:2e:f9:57:b5, 2015-01-01 01:04:57.055,2.656,-1.384,2.994,-773.193,-515.686,111.633, , , , , , ,64.276,37.595,-88.22
 13:20:29.681,eb:33:2e:f9:57:b5, 2015-01-01 01:04:57.055,2.562,-1.204,3.781,-786.987,-542.419,101.074, , , , , , ,58.804,35.859,-90.824
 13:20:29.681,eb:33:2e:f9:57:b5, 2015-01-01 01:04:57.055,2.492,-1.026,4.508,-792.114,-562.195,91.553, , , , , , ,53.427,33.92,-93.301
 13:20:29.681,eb:33:2e:f9:57:b5, 2015-01-01 01:04:57.055,2.456,-0.83,5.123,-792.969,-572.754,83.13, , , , , , ,48.214,31.783,-95.603
 13:20:29.705,eb:33:2e:f9:57:b5, 2015-01-01 01:04:57.055,2.431,-0.592,5.642,-793.335,-568.237,75.317, , , , , , ,43.127,29.471,-97.707
 13:20:29.705,eb:33:2e:f9:57:b5, 2015-01-01 01:04:57.055,2.388,-0.294,5.964,-792.664,-555.664,66.284, , , , , , ,38.315,27.114,-99.487
 13:20:29.705,eb:33:2e:f9:57:b5, 2015-01-01 01:04:57.055,2.226,0.014,6.094,-788.574,-538.208,55.054, , , , , , ,33.701,24.736,-100.997
 13:20:29.705,eb:33:2e:f9:57:b5, 2015-01-01 01:04:57.055,1.925,0.242,5.941,-776.123,-531.494,46.814, , , , , , ,29.273,22.335,-102.283
 13:20:29.705,eb:33:2e:f9:57:b5, 2015-01-01 01:04:57.055,1.61,0.125,5.709,-755.371,-536.926,49.072, , , , , , ,24.994,19.792,-103.403
 13:20:29.705,eb:33:2e:f9:57:b5, 2015-01-01 01:04:57.055,1.31,-0.176,5.59,-730.103,-541.931,66.833, , , , , , ,21.028,17.199,-104.233
 13:20:29.705,eb:33:2e:f9:57:b5, 2015-01-01 01:04:57.055,1.07,-0.497,5.406,-705.322,-545.654,103.027, , , , , , ,17.314,14.48,-104.733
 13:20:29.705,eb:33:2e:f9:57:b5, 2015-01-01 01:04:57.055,0.917,-0.709,5.285,-681.58,-539.978,151.245, , , , , , ,13.832,11.695,-104.832
 13:20:29.725,eb:33:2e:f9:57:b5, 2015-01-01 01:04:57.055,0.941,-0.602,5.052,-656.982,-541.87,200.378, , , , , , ,10.486,8.8,-104.535
 13:20:29.725,eb:33:2e:f9:57:b5, 2015-01-01 01:04:57.055,0.992,-0.063,5.02,-633.728,-550.72,238.037, , , , , , ,7.361,5.927,-103.843
 13:20:29.725,eb:33:2e:f9:57:b5, 2015-01-01 01:04:57.055,0.95,0.763,5.08,-613.464,-563.416,255.676, , , , , , ,4.329,3.021,-102.881
 13:20:29.725,eb:33:2e:f9:57:b5, 2015-01-01 01:04:57.055,0.719,1.696,5.06,-599.121,-573.669,252.197, , , , , , ,1.335,0.115,-101.744
 13:20:29.725,eb:33:2e:f9:57:b5, 2015-01-01 01:04:57.055,0.406,2.629,5.018,-585.938,-585.144,226.562, , , , , , ,-1.714,-2.845,-100.558
 13:20:29.725,eb:33:2e:f9:57:b5, 2015-01-01 01:04:57.055,-0.125,3.41,5.168,-570.496,-590.149,184.265, , , , , , ,-4.691,-5.729,-99.377
 13:20:29.725,eb:33:2e:f9:57:b5, 2015-01-01 01:04:57.055,-0.921,3.939,5.195,-555.115,-589.233,136.169, , , , , , ,-7.63,-8.575,-98.289
 13:20:29.725,eb:33:2e:f9:57:b5, 2015-01-01 01:04:57.055,-1.803,4.163,5.145,-543.762,-586.67,95.276, , , , , , ,-10.547,-11.393,-97.262
 13:20:29.771,eb:33:2e:f9:57:b5, 2015-01-01 01:04:57.055,-2.698,4.239,5.507,-534.668,-579.407,68.42, , , , , , ,-13.53,-14.216,-96.24
 13:20:29.771,eb:33:2e:f9:57:b5, 2015-01-01 01:04:57.055,-3.677,4.397,6.235,-523.132,-561.035,57.922, , , , , , ,-16.458,-16.886,-95.175
 13:20:29.771,eb:33:2e:f9:57:b5, 2015-01-01 01:04:57.055,-4.746,4.759,7.112,-500.244,-527.832,60.425, , , , , , ,-19.374,-19.374,-94.016
 13:20:29.771,eb:33:2e:f9:57:b5, 2015-01-01 01:04:57.055,-4.963,5.327,7.837,-460.449,-487.183,71.777, , , , , , ,-22.22,-21.616,-92.725
 13:20:29.771,eb:33:2e:f9:57:b5, 2015-01-01 01:04:57.055,-6.254,5.634,8.036,-380.493,-478.455,168.396, , , , , , ,-24.961,-23.582,-91.159
 13:20:29.771,eb:33:2e:f9:57:b5, 2015-01-01 01:04:57.055,-6.555,5.883,8.525,-341.431,-331.787,143.86, , , , , , ,-27.405,-24.999,-89.643
 13:20:29.771,eb:33:2e:f9:57:b5, 2015-01-01 01:04:57.055,-6.188,6.886,8.188,-307.19,-221.069,97.534, , , , , , ,-29.559,-25.856,-88.456
 13:20:29.771,eb:33:2e:f9:57:b5, 2015-01-01 01:04:57.055,-6.398,7.242,8.164,-278.198,-127.686,114.99, , , , , , ,-31.432,-26.23,-87.528
 13:20:29.816,eb:33:2e:f9:57:b5, 2015-01-01 01:04:57.055,-5.2,8.443,6.979,-226.379,-84.534,68.665, , , , , , ,-33.03,-26.439,-86.776
 13:20:29.816,eb:33:2e:f9:57:b5, 2015-01-01 01:04:57.055,-5.027,8.688,6.885,-173.279,54.81,81.787, , , , , , ,-34.156,-26.208,-86.435
 13:20:29.816,eb:33:2e:f9:57:b5, 2015-01-01 01:04:57.055,-4.355,8.95,5.252,-114.563,84.473,65.43, , , , , , ,-34.887,-25.697,-86.364
 13:20:29.816,eb:33:2e:f9:57:b5, 2015-01-01 01:04:57.055,-3.704,8.658,4.102,-41.382,92.712,47.729, , , , , , ,-35.233,-25.181,-86.391
 13:20:29.816,eb:33:2e:f9:57:b5, 2015-01-01 01:04:57.055,-3.264,8.118,3.179,37.781,82.825,48.645, , , , , , ,-35.189,-24.664,-86.457
 13:20:29.816,eb:33:2e:f9:57:b5, 2015-01-01 01:04:57.055,-2.976,7.464,2.834,118.896,63.66,53.894, , , , , , ,-34.755,-24.23,-86.446
 13:20:29.816,eb:33:2e:f9:57:b5, 2015-01-01 01:04:57.055,-2.66,6.678,2.935,191.956,47.852,62.256, , , , , , ,-33.975,-23.84,-86.364
 13:20:29.816,eb:33:2e:f9:57:b5, 2015-01-01 01:04:57.055,-2.326,5.905,3.033,244.385,47.058,71.228, , , , , , ,-32.921,-23.467,-86.193
 13:20:29.888,eb:33:2e:f9:57:b5, 2015-01-01 01:04:57.055,-1.912,5.22,3.059,281.433,55.847,71.411, , , , , , ,-31.641,-23.044,-86.017
 13:20:29.888,eb:33:2e:f9:57:b5, 2015-01-01 01:04:57.055,-1.612,4.484,3.238,305.42,75.989,67.261, , , , , , ,-30.207,-22.577,-85.88
 13:20:29.888,eb:33:2e:f9:57:b5, 2015-01-01 01:04:57.055,-1.336,3.611,3,316.406,99.243,61.523, , , , , , ,-28.669,-22.033,-85.836
 13:20:29.888,eb:33:2e:f9:57:b5, 2015-01-01 01:04:57.055,-0.932,2.601,2.46,316.772,121.948,62.805, , , , , , ,-27.081,-21.385,-85.831
 13:20:29.888,eb:33:2e:f9:57:b5, 2015-01-01 01:04:57.055,-0.27,1.738,1.896,313.843,141.296,71.289, , , , , , ,-25.488,-20.627,-85.831
 13:20:29.888,eb:33:2e:f9:57:b5, 2015-01-01 01:04:57.055,0.684,0.874,1.295,323.181,146.851,78.857, , , , , , ,-23.912,-19.803,-85.781
 13:20:29.888,eb:33:2e:f9:57:b5, 2015-01-01 01:04:57.055,1.002,0.129,0.206,338.257,140.015,82.703, , , , , , ,-22.28,-18.962,-85.71
 13:20:29.889,eb:33:2e:f9:57:b5, 2015-01-01 01:04:57.055,7.105,0.146,-1.678,385.132,-84.534,64.209, , , , , , ,-20.583,-18.572,-85.446
 13:20:29.907,eb:33:2e:f9:57:b5, 2015-01-01 01:04:57.055,-1.279,7.34,10.468,826.111,273.438,-312.744, , , , , , ,-16.99,-20.336,-86.259
 13:20:29.907,eb:33:2e:f9:57:b5, 2015-01-01 01:04:57.055,-0.166,2.303,-2.655,907.104,-21.606,-349.976, , , , , , ,-12.156,-17.957,-88.44
 13:20:29.907,eb:33:2e:f9:57:b5, 2015-01-01 01:04:57.055,1.242,6.493,9.14,487.854,394.287,-310.364, , , , , , ,-8.322,-17.353,-90.165
 13:20:29.907,eb:33:2e:f9:57:b5, 2015-01-01 01:04:57.055,3.316,6.213,12.637,170.227,467.834,-43.03, , , , , , ,-6.509,-15.43,-91.137
 13:20:29.907,eb:33:2e:f9:57:b5, 2015-01-01 01:04:57.055,-0.952,2.339,9.42,-22.156,808.899,184.082, , , , , , ,-6.306,-11.981,-90.983
 13:20:29.907,eb:33:2e:f9:57:b5, 2015-01-01 01:04:57.055,-0.236,-0.014,2.273,48.096,642.517,193.848, , , , , , ,-6.411,-8.223,-90.275
 13:20:29.907,eb:33:2e:f9:57:b5, 2015-01-01 01:04:57.055,-0.556,-1.303,1.36,201.172,507.69,59.998, , , , , , ,-5.746,-5.4,-90.011
 13:20:29.907,eb:33:2e:f9:57:b5, 2015-01-01 01:04:57.055,-2.356,-2.269,1.027,306.396,451.721,-4.822, , , , , , ,-4.373,-3.043,-90.165
 13:20:29.929,eb:33:2e:f9:57:b5, 2015-01-01 01:04:57.055,-1.46,0.48,-1.318,272.949,252.441,2.747, , , , , , ,-2.862,-1.384,-90.258
 13:20:29.929,eb:33:2e:f9:57:b5, 2015-01-01 01:04:57.055,-1.574,0.767,-0.383,218.445,187.683,11.353, , , , , , ,-1.659,-0.346,-90.253
 13:20:29.929,eb:33:2e:f9:57:b5, 2015-01-01 01:04:57.055,0.084,0.396,-0.525,212.585,94.788,-32.349, , , , , , ,-0.599,0.324,-90.341
 13:20:29.929,eb:33:2e:f9:57:b5, 2015-01-01 01:04:57.055,0.093,0.891,1.043,183.655,107.788,-56.763, , , , , , ,0.39,0.736,-90.604
 13:20:29.929,eb:33:2e:f9:57:b5, 2015-01-01 01:04:57.055,-1.749,-0.094,1.282,146.484,182.861,-13.977, , , , , , ,1.219,1.577,-90.742
 13:20:29.929,eb:33:2e:f9:57:b5, 2015-01-01 01:04:57.055,-1.281,0.078,-0.769,135.254,82.153,-26.428, , , , , , ,1.901,2.252,-90.802
 13:20:29.929,eb:33:2e:f9:57:b5, 2015-01-01 01:04:57.055,0.186,-0.67,1.251,164.429,-5.005,-18.311, , , , , , ,2.659,2.335,-90.939
 13:20:29.930,eb:33:2e:f9:57:b5, 2015-01-01 01:04:57.055,0.328,-0.417,2.768,173.34,43.274,10.925, , , , , , ,3.516,2.472,-90.934
 13:20:29.974,eb:33:2e:f9:57:b5, 2015-01-01 01:04:57.390,-0.285,0.885,0.483,156.006,24.414,-11.169, , , , , , ,4.362,2.675,-90.928
 13:20:29.974,eb:33:2e:f9:57:b5, 2015-01-01 01:04:57.390,-0.486,-0.85,3.961,228.21,-11.963,-6.287, , , , , , ,5.312,2.587,-91.022
 13:20:29.974,eb:33:2e:f9:57:b5, 2015-01-01 01:04:57.390,-0.116,-1.562,4.993,286.438,57.739,29.297, , , , , , ,6.652,2.741,-90.912
 13:20:29.974,eb:33:2e:f9:57:b5, 2015-01-01 01:04:57.390,-0.644,-0.11,1.434,342.651,-17.151,18.921, , , , , , ,8.262,2.889,-90.775
 13:20:29.974,eb:33:2e:f9:57:b5, 2015-01-01 01:04:57.390,-0.506,-0.771,3.333,371.948,-27.527,17.517, , , , , , ,10.085,2.719,-90.753
 13:20:29.974,eb:33:2e:f9:57:b5, 2015-01-01 01:04:57.390,-0.472,-1.424,4.009,401.367,35.095,55.786, , , , , , ,12.036,2.769,-90.544
 13:20:29.974,eb:33:2e:f9:57:b5, 2015-01-01 01:04:57.390,-0.395,-0.648,2.738,444.702,-4.944,54.199, , , , , , ,14.189,2.785,-90.253
 13:20:29.975,eb:33:2e:f9:57:b5, 2015-01-01 01:04:57.390,-0.287,-1.142,3.275,483.704,-45.959,48.889, , , , , , ,16.534,2.549,-90.06
 13:20:30.063,eb:33:2e:f9:57:b5, 2015-01-01 01:04:57.390,0.543,-1.795,4.619,525.94,-44.495,52.429, , , , , , ,19.111,2.291,-89.846
 13:20:30.063,eb:33:2e:f9:57:b5, 2015-01-01 01:04:57.390,0.845,-1.612,4.463,577.393,-39.429,47.18, , , , , , ,21.901,2.021,-89.703
 13:20:30.063,eb:33:2e:f9:57:b5, 2015-01-01 01:04:57.390,1.323,-1.196,4.1,635.437,-59.204,10.742, , , , , , ,24.955,1.719,-89.703
 13:20:30.063,eb:33:2e:f9:57:b5, 2015-01-01 01:04:57.390,1.098,-1.519,4.467,697.388,-39.124,-9.644, , , , , , ,28.317,1.516,-89.819
 13:20:30.063,eb:33:2e:f9:57:b5, 2015-01-01 01:04:57.390,2.188,-1.295,5.541,761.475,-21.912,-50.415, , , , , , ,32.003,1.472,-90.049
 13:20:30.063,eb:33:2e:f9:57:b5, 2015-01-01 01:04:57.390,2.895,-1.215,6.65,821.106,63.721,-76.355, , , , , , ,35.986,1.763,-90.247
 13:20:30.063,eb:33:2e:f9:57:b5, 2015-01-01 01:04:57.390,2.925,-0.567,7.402,883.362,147.705,-112.488, , , , , , ,40.281,2.543,-90.286
 13:20:30.064,eb:33:2e:f9:57:b5, 2015-01-01 01:04:57.390,3.301,0.445,7.521,911.316,135.803,-154.419, , , , , , ,44.797,3.554,-90.286
 13:20:30.066,eb:33:2e:f9:57:b5, 2015-01-01 01:04:57.390,3.539,2.152,6.341,896.729,62.256,-220.764, , , , , , ,49.312,4.576,-90.566
 13:20:30.066,eb:33:2e:f9:57:b5, 2015-01-01 01:04:57.390,1.057,2.431,6.563,866.455,59.448,-250.732, , , , , , ,53.646,5.696,-91.148
 13:20:30.066,eb:33:2e:f9:57:b5, 2015-01-01 01:04:57.390,1.701,4.664,4.729,840.393,-8.362,-304.382, , , , , , ,57.849,6.916,-91.796
 13:20:30.066,eb:33:2e:f9:57:b5, 2015-01-01 01:04:57.390,1.372,3.701,2.373,726.99,-94.788,-353.577, , , , , , ,61.6,8.19,-92.939
 13:20:30.066,eb:33:2e:f9:57:b5, 2015-01-01 01:04:57.390,-0.445,2.61,-1.82,606.628,-176.27,-388.916, , , , , , ,64.633,9.564,-94.4
 13:20:30.066,eb:33:2e:f9:57:b5, 2015-01-01 01:04:57.390,-1.923,2.901,-3.437,323.059,-292.358,-326.233, , , , , , ,66.506,10.64,-96.312
 13:20:30.066,eb:33:2e:f9:57:b5, 2015-01-01 01:04:57.390,-1.063,-0.022,2.958,191.223,-130.432,-266.357, , , , , , ,67.335,11.536,-97.96
 13:20:30.067,eb:33:2e:f9:57:b5, 2015-01-01 01:04:57.390,-0.223,1.007,7.805,190.674,194.092,-220.215, , , , , , ,68.231,12.755,-98.042
 13:20:30.109,eb:33:2e:f9:57:b5, 2015-01-01 01:04:57.390,0.421,3.364,8.654,272.217,339.172,-224.792, , , , , , ,69.637,14.315,-97.042
 13:20:30.109,eb:33:2e:f9:57:b5, 2015-01-01 01:04:57.390,1.025,3.538,7.43,384.033,369.141,-247.925, , , , , , ,71.697,16.057,-95.658
 13:20:30.109,eb:33:2e:f9:57:b5, 2015-01-01 01:04:57.390,1.259,2.416,4.527,445.251,299.5,-260.925, , , , , , ,74.191,17.77,-94.395
 13:20:30.109,eb:33:2e:f9:57:b5, 2015-01-01 01:04:57.390,1.09,1.398,3.167,451.599,222.351,-265.137, , , , , , ,76.75,19.358,-93.461
 13:20:30.109,eb:33:2e:f9:57:b5, 2015-01-01 01:04:57.390,1.091,1.025,3.818,437.073,169.312,-270.935, , , , , , ,79.184,20.874,-92.791
 13:20:30.109,eb:33:2e:f9:57:b5, 2015-01-01 01:04:57.390,1.27,1.185,5.591,415.1,163.879,-284.485, , , , , , ,81.53,22.379,-92.175
 13:20:30.109,eb:33:2e:f9:57:b5, 2015-01-01 01:04:57.390,1.473,1.353,7.036,394.592,194.885,-296.57, , , , , , ,83.853,23.939,-91.373
 13:20:30.109,eb:33:2e:f9:57:b5, 2015-01-01 01:04:57.390,1.841,1.473,7.766,375.427,245.056,-310.486, , , , , , ,86.232,25.571,-90.247
 13:20:30.175,eb:33:2e:f9:57:b5, 2015-01-01 01:04:57.390,1.999,1.318,7.42,364.99,274.353,-316.223, , , , , , ,88.66,27.191,-88.896
 13:20:30.175,eb:33:2e:f9:57:b5, 2015-01-01 01:04:57.390,2.498,1.18,6.907,344.91,309.387,-340.576, , , , , , ,91.214,28.856,-87.198
 13:20:30.175,eb:33:2e:f9:57:b5, 2015-01-01 01:04:57.390,2.736,1.193,6.243,332.581,299.255,-357.3, , , , , , ,93.807,30.547,-85.364
 13:20:30.175,eb:33:2e:f9:57:b5, 2015-01-01 01:04:57.390,2.886,0.873,6.275,317.017,298.096,-380.371, , , , , , ,96.427,32.272,-83.441
 13:20:30.175,eb:33:2e:f9:57:b5, 2015-01-01 01:04:57.390,3.085,0.547,6.631,296.143,311.646,-392.578, , , , , , ,99.053,33.981,-81.359
 13:20:30.175,eb:33:2e:f9:57:b5, 2015-01-01 01:04:57.390,3.152,0.198,6.224,265.137,321.655,-395.874, , , , , , ,101.788,35.64,-79.019
 13:20:30.175,eb:33:2e:f9:57:b5, 2015-01-01 01:04:57.390,3.108,-0.213,5.536,229.736,323.608,-386.78, , , , , , ,104.502,37.172,-76.487
 13:20:30.175,eb:33:2e:f9:57:b5, 2015-01-01 01:04:57.390,2.999,-0.694,4.943,191.833,320.007,-368.958, , , , , , ,107.139,38.546,-73.878
 13:20:30.221,eb:33:2e:f9:57:b5, 2015-01-01 01:04:57.390,2.865,-0.95,4.497,159.485,311.157,-345.886, , , , , , ,109.589,39.732,-71.285
 13:20:30.221,eb:33:2e:f9:57:b5, 2015-01-01 01:04:57.390,2.744,-1.022,4.284,136.169,294.739,-322.754, , , , , , ,112.006,40.748,-68.665
 13:20:30.221,eb:33:2e:f9:57:b5, 2015-01-01 01:04:57.390,2.609,-1.056,4.338,119.934,276.978,-298.767, , , , , , ,114.313,41.605,-66.105
 13:20:30.221,eb:33:2e:f9:57:b5, 2015-01-01 01:04:57.390,2.489,-1.168,4.376,107.544,256.226,-271.606, , , , , , ,116.494,42.319,-63.682
 13:20:30.221,eb:33:2e:f9:57:b5, 2015-01-01 01:04:57.390,2.336,-1.43,4.308,93.872,238.831,-239.685, , , , , , ,118.433,42.88,-61.479
 13:20:30.221,eb:33:2e:f9:57:b5, 2015-01-01 01:04:57.390,2.261,-1.788,4.092,76.172,226.624,-202.82, , , , , , ,120.295,43.264,-59.37
 13:20:30.221,eb:33:2e:f9:57:b5, 2015-01-01 01:04:57.390,2.275,-2.145,3.838,54.26,219.482,-161.499, , , , , , ,121.943,43.451,-57.409
 13:20:30.221,eb:33:2e:f9:57:b5, 2015-01-01 01:04:57.390,2.279,-2.415,3.519,30.579,212.341,-117.493, , , , , , ,123.349,43.44,-55.657
 13:20:30.288,eb:33:2e:f9:57:b5, 2015-01-01 01:04:57.390,2.29,-2.626,3.06,7.629,195.74,-74.219, , , , , , ,124.371,43.27,-54.223
 13:20:30.288,eb:33:2e:f9:57:b5, 2015-01-01 01:04:57.390,2.225,-2.803,2.469,-15.503,162.842,-33.752, , , , , , ,125.156,42.968,-53.02
 13:20:30.288,eb:33:2e:f9:57:b5, 2015-01-01 01:04:57.390,2.143,-3.159,1.674,-43.152,117.798,0.244, , , , , , ,125.557,42.621,-52.18
 13:20:30.288,eb:33:2e:f9:57:b5, 2015-01-01 01:04:57.390,2.18,-3.724,0.699,-72.754,53.528,32.898, , , , , , ,125.497,42.314,-51.817
 13:20:30.288,eb:33:2e:f9:57:b5, 2015-01-01 01:04:57.390,2.366,-4.31,-0.148,-115.051,-0.183,65.979, , , , , , ,124.854,42.067,-51.982
 13:20:30.288,eb:33:2e:f9:57:b5, 2015-01-01 01:04:57.390,2.641,-4.574,-0.87,-171.631,-33.081,92.407, , , , , , ,123.838,41.781,-52.399
 13:20:30.288,eb:33:2e:f9:57:b5, 2015-01-01 01:04:57.390,2.875,-4.815,-1.812,-239.258,-79.346,122.803, , , , , , ,122.283,41.479,-53.13
 13:20:30.288,eb:33:2e:f9:57:b5, 2015-01-01 01:04:57.390,3.113,-5.013,-2.664,-316.772,-128.113,143.433, , , , , , ,120.141,41.182,-54.212
 13:20:30.291,eb:33:2e:f9:57:b5, 2015-01-01 01:04:57.390,3.172,-4.938,-3.007,-398.743,-181.702,156.738, , , , , , ,117.301,40.919,-55.679
 13:20:30.291,eb:33:2e:f9:57:b5, 2015-01-01 01:04:57.390,3.18,-4.539,-2.911,-472.351,-265.503,158.997, , , , , , ,113.895,40.699,-57.502
 13:20:30.291,eb:33:2e:f9:57:b5, 2015-01-01 01:04:57.390,3.128,-4.148,-2.288,-540.1,-338.013,159.302, , , , , , ,109.83,40.54,-59.782
 13:20:30.291,eb:33:2e:f9:57:b5, 2015-01-01 01:04:57.390,3.11,-3.661,-1.464,-599.792,-397.217,154.968, , , , , , ,105.222,40.358,-62.435
 13:20:30.291,eb:33:2e:f9:57:b5, 2015-01-01 01:04:57.390,3.099,-3.326,-0.485,-651.794,-436.34,148.315, , , , , , ,100.113,40.095,-65.413
 13:20:30.291,eb:33:2e:f9:57:b5, 2015-01-01 01:04:57.390,3.015,-3.09,0.372,-698.486,-460.693,138.672, , , , , , ,94.763,39.677,-68.45
 13:20:30.291,eb:33:2e:f9:57:b5, 2015-01-01 01:04:57.390,2.873,-2.879,1.06,-738.77,-486.145,125.977, , , , , , ,89.176,39.106,-71.537
 13:20:30.291,eb:33:2e:f9:57:b5, 2015-01-01 01:04:57.390,2.733,-2.693,1.757,-771.667,-519.592,114.38, , , , , , ,83.386,38.348,-74.718
 13:20:30.293,eb:33:2e:f9:57:b5, 2015-01-01 01:04:57.390,2.727,-2.542,2.61,-796.692,-557.495,104.919, , , , , , ,77.371,37.354,-78.047
 13:20:30.293,eb:33:2e:f9:57:b5, 2015-01-01 01:04:57.390,2.742,-2.346,3.745,-818.909,-577.698,96.13, , , , , , ,71.367,36.107,-81.31
 13:20:30.293,eb:33:2e:f9:57:b5, 2015-01-01 01:04:57.390,2.747,-2.019,4.752,-837.769,-583.679,85.449, , , , , , ,65.413,34.618,-84.413
 13:20:30.293,eb:33:2e:f9:57:b5, 2015-01-01 01:04:57.390,2.806,-1.612,5.434,-850.708,-588.318,69.702, , , , , , ,59.557,32.921,-87.325
 13:20:30.293,eb:33:2e:f9:57:b5, 2015-01-01 01:04:57.390,2.811,-1.186,5.859,-857.788,-593.567,49.316, , , , , , ,53.762,31.036,-90.11
 13:20:30.293,eb:33:2e:f9:57:b5, 2015-01-01 01:04:57.390,2.752,-0.849,6.181,-858.948,-595.093,25.818, , , , , , ,48.192,29.026,-92.653
 13:20:30.293,eb:33:2e:f9:57:b5, 2015-01-01 01:04:57.390,2.581,-0.594,6.531,-853.943,-585.205,2.319, , , , , , ,42.814,26.917,-94.977
 13:20:30.293,eb:33:2e:f9:57:b5, 2015-01-01 01:04:57.390,2.278,-0.369,6.722,-840.149,-574.646,-19.714, , , , , , ,37.656,24.741,-97.103
 13:20:30.334,eb:33:2e:f9:57:b5, 2015-01-01 01:04:57.390,1.982,-0.362,6.67,-817.444,-565.125,-37.415, , , , , , ,32.668,22.462,-99.075
 13:20:30.334,eb:33:2e:f9:57:b5, 2015-01-01 01:04:57.390,1.643,-0.577,6.502,-802.368,-555.481,-34.546, , , , , , ,28.015,20.143,-100.767
 13:20:30.334,eb:33:2e:f9:57:b5, 2015-01-01 01:04:57.390,1.296,-0.744,6.384,-788.025,-545.471,-15.442, , , , , , ,23.593,17.726,-102.14
 13:20:30.334,eb:33:2e:f9:57:b5, 2015-01-01 01:04:57.390,0.938,-0.942,6.157,-769.043,-542.114,20.447, , , , , , ,19.418,15.189,-103.156
 13:20:30.334,eb:33:2e:f9:57:b5, 2015-01-01 01:04:57.390,0.682,-1.088,5.854,-743.713,-541.443,72.51, , , , , , ,15.425,12.475,-103.771
 13:20:30.334,eb:33:2e:f9:57:b5, 2015-01-01 01:04:57.390,0.668,-1.012,5.497,-709.473,-552.368,131.653, , , , , , ,11.783,9.69,-103.892
 13:20:30.334,eb:33:2e:f9:57:b5, 2015-01-01 01:04:57.390,0.827,-0.641,5.267,-671.326,-571.411,186.34, , , , , , ,8.394,6.773,-103.568
 13:20:30.334,eb:33:2e:f9:57:b5, 2015-01-01 01:04:57.390,0.982,-0.021,5.185,-636.292,-591.797,224.487, , , , , , ,5.208,3.752,-102.865
 13:20:30.378,eb:33:2e:f9:57:b5, 2015-01-01 01:04:57.790,0.987,0.777,5.159,-610.657,-604.492,239.563, , , , , , ,2.065,0.621,-101.898
 13:20:30.378,eb:33:2e:f9:57:b5, 2015-01-01 01:04:57.790,0.812,1.764,5.045,-592.468,-618.896,227.966, , , , , , ,-0.945,-2.45,-100.756
 13:20:30.378,eb:33:2e:f9:57:b5, 2015-01-01 01:04:57.790,0.328,2.732,5.051,-576.294,-638.794,193.42, , , , , , ,-3.939,-5.554,-99.58
 13:20:30.378,eb:33:2e:f9:57:b5, 2015-01-01 01:04:57.790,-0.332,3.393,5.178,-564.026,-654.602,148.743, , , , , , ,-6.927,-8.707,-98.432
 13:20:30.378,eb:33:2e:f9:57:b5, 2015-01-01 01:04:57.790,-1.096,3.629,5.614,-561.646,-651.978,108.093, , , , , , ,-10.009,-11.909,-97.322
 13:20:30.378,eb:33:2e:f9:57:b5, 2015-01-01 01:04:57.790,-1.844,3.653,6.41,-567.688,-627.686,78.857, , , , , , ,-13.096,-14.952,-96.213
 13:20:30.378,eb:33:2e:f9:57:b5, 2015-01-01 01:04:57.790,-2.637,3.744,7.414,-573.486,-579.956,63.843, , , , , , ,-16.271,-17.77,-95.087
 13:20:30.378,eb:33:2e:f9:57:b5, 2015-01-01 01:04:57.790,-3.408,4.099,8.114,-565.369,-526.062,60.486, , , , , , ,-19.512,-20.281,-93.895
 13:20:30.424,eb:33:2e:f9:57:b5, 2015-01-01 01:04:57.790,-3.81,4.637,8.583,-534.851,-479.248,63.049, , , , , , ,-22.797,-22.527,-92.598
 13:20:30.424,eb:33:2e:f9:57:b5, 2015-01-01 01:04:57.790,-5.247,5.096,8.824,-480.042,-407.654,127.686, , , , , , ,-25.878,-24.379,-91.208
 13:20:30.424,eb:33:2e:f9:57:b5, 2015-01-01 01:04:57.790,-4.834,5.891,8.354,-421.753,-408.325,97.168, , , , , , ,-28.768,-25.939,-89.654
 13:20:30.424,eb:33:2e:f9:57:b5, 2015-01-01 01:04:57.790,-4.742,5.859,8.591,-360.413,-353.699,120.544, , , , , , ,-31.41,-27.285,-88.011
 13:20:30.424,eb:33:2e:f9:57:b5, 2015-01-01 01:04:57.790,-4.692,6.75,8.572,-316.772,-246.582,98.145, , , , , , ,-33.783,-28.235,-86.605
 13:20:30.424,eb:33:2e:f9:57:b5, 2015-01-01 01:04:57.790,-4.418,7.595,7.742,-264.954,-172.546,88.501, , , , , , ,-35.75,-28.779,-85.496
 13:20:30.424,eb:33:2e:f9:57:b5, 2015-01-01 01:04:57.790,-3.948,8.787,7.367,-211.853,-91.553,37.537, , , , , , ,-37.244,-29.081,-84.847
 13:20:30.424,eb:33:2e:f9:57:b5, 2015-01-01 01:04:57.790,-3.892,8.915,6.149,-149.78,-42.358,20.935, , , , , , ,-38.271,-29.257,-84.507
 13:20:30.469,eb:33:2e:f9:57:b5, 2015-01-01 01:04:57.790,-3.417,9.224,4.952,-75.867,-44.861,-11.963, , , , , , ,-38.914,-29.504,-84.287
 13:20:30.469,eb:33:2e:f9:57:b5, 2015-01-01 01:04:57.790,-3.545,8.789,4.531,-3.54,-11.23,-12.756, , , , , , ,-39.084,-29.619,-84.271
 13:20:30.469,eb:33:2e:f9:57:b5, 2015-01-01 01:04:57.790,-3.39,8.166,3.428,71.35,-49.194,-24.658, , , , , , ,-38.886,-29.822,-84.265
 13:20:30.469,eb:33:2e:f9:57:b5, 2015-01-01 01:04:57.790,-3.388,7.409,3.472,133.85,-50.537,-30.762, , , , , , ,-38.359,-30.135,-84.21
 13:20:30.469,eb:33:2e:f9:57:b5, 2015-01-01 01:04:57.790,-3.131,6.88,3.726,190.369,-50.11,-30.579, , , , , , ,-37.535,-30.421,-84.166
 13:20:30.469,eb:33:2e:f9:57:b5, 2015-01-01 01:04:57.790,-2.679,6.295,4.324,236.389,-13.489,-34.119, , , , , , ,-36.42,-30.635,-84.221
 13:20:30.470,eb:33:2e:f9:57:b5, 2015-01-01 01:04:57.790,-2.15,5.604,4.288,264.404,45.166,-39.001, , , , , , ,-35.019,-30.652,-84.49
 13:20:30.470,eb:33:2e:f9:57:b5, 2015-01-01 01:04:57.790,-1.692,4.801,3.871,278.442,97.656,-44.556, , , , , , ,-33.415,-30.443,-84.952
 13:20:30.491,eb:33:2e:f9:57:b5, 2015-01-01 01:04:57.790,-1.172,3.763,2.913,290.833,113.953,-49.5, , , , , , ,-31.663,-30.103,-85.545
 13:20:30.491,eb:33:2e:f9:57:b5, 2015-01-01 01:04:57.790,3.396,2.278,2.169,304.077,120.056,-42.297, , , , , , ,-29.883,-29.713,-86.122
 13:20:30.491,eb:33:2e:f9:57:b5, 2015-01-01 01:04:57.790,3.035,3.4,5.016,799.133,-172.363,-313.049, , , , , , ,-27.208,-30.015,-86.726
 13:20:30.491,eb:33:2e:f9:57:b5, 2015-01-01 01:04:57.790,1.937,0.885,0.099,1066.772,464.966,-314.331, , , , , , ,-20.978,-28.521,-89.753
 13:20:30.491,eb:33:2e:f9:57:b5, 2015-01-01 01:04:57.790,-3.497,0.408,5.18,938.66,523.621,-165.649, , , , , , ,-14.886,-27.471,-91.412
 13:20:30.491,eb:33:2e:f9:57:b5, 2015-01-01 01:04:57.790,-0.372,3.753,7.831,828.979,485.535,-291.504, , , , , , ,-9.651,-25.285,-93.499
 13:20:30.491,eb:33:2e:f9:57:b5, 2015-01-01 01:04:57.790,5.951,1.763,10.668,664.856,388.55,-149.78, , , , , , ,-5.284,-23.351,-95.032
 13:20:30.491,eb:33:2e:f9:57:b5, 2015-01-01 01:04:57.790,0.199,3.918,11.444,284.546,723.206,190.735, , , , , , ,-3.032,-20.808,-94.861
 13:20:30.559,eb:33:2e:f9:57:b5, 2015-01-01 01:04:57.790,-6.132,6.348,3.096,5.249,857.056,208.252, , , , , , ,-2.867,-16.304,-93.906
 13:20:30.559,eb:33:2e:f9:57:b5, 2015-01-01 01:04:57.790,-1.054,1.569,-1.739,76.721,362.122,90.515, , , , , , ,-2.884,-13.381,-93.318
 13:20:30.559,eb:33:2e:f9:57:b5, 2015-01-01 01:04:57.790,0.606,-3.359,-0.131,256.653,125.488,-20.203, , , , , , ,-1.934,-12.568,-93.29
 13:20:30.559,eb:33:2e:f9:57:b5, 2015-01-01 01:04:57.790,-2.255,-1.547,0.198,283.325,177.856,38.513, , , , , , ,-0.483,-11.651,-93.246
 13:20:30.559,eb:33:2e:f9:57:b5, 2015-01-01 01:04:57.790,-1.323,1.697,-1.029,198.975,64.819,60.486, , , , , , ,0.654,-11.113,-93.021
 13:20:30.559,eb:33:2e:f9:57:b5, 2015-01-01 01:04:57.790,-0.301,0.784,0.045,179.382,15.137,19.775, , , , , , ,1.511,-10.97,-92.752
 13:20:30.559,eb:33:2e:f9:57:b5, 2015-01-01 01:04:57.790,0.961,0.833,0.583,180.298,-11.78,-45.349, , , , , , ,2.455,-10.981,-92.895
 13:20:30.559,eb:33:2e:f9:57:b5, 2015-01-01 01:04:57.790,1.423,1.037,1.781,142.456,51.941,-57.373, , , , , , ,3.307,-10.904,-93.186
 13:20:30.581,eb:33:2e:f9:57:b5, 2015-01-01 01:04:57.790,-1.646,0.439,2.134,120.117,191.711,-39.001, , , , , , ,4.021,-10.157,-93.384
 13:20:30.581,eb:33:2e:f9:57:b5, 2015-01-01 01:04:57.790,-0.985,-0.292,0.103,119.69,118.042,-33.569, , , , , , ,4.631,-9.294,-93.488
 13:20:30.581,eb:33:2e:f9:57:b5, 2015-01-01 01:04:57.790,1.355,-0.295,0.798,142.944,-25.269,-54.26, , , , , , ,5.339,-9.218,-93.724
 13:20:30.581,eb:33:2e:f9:57:b5, 2015-01-01 01:04:57.790,0.686,0.059,3.565,162.476,66.956,-32.898, , , , , , ,6.152,-9.08,-93.917
 13:20:30.581,eb:33:2e:f9:57:b5, 2015-01-01 01:04:57.790,0.531,0.176,3.011,162.415,154.785,-34.18, , , , , , ,7.02,-8.35,-94.026
 13:20:30.581,eb:33:2e:f9:57:b5, 2015-01-01 01:04:57.790,0.438,0.311,1.198,172.791,105.042,-52.063, , , , , , ,7.877,-7.74,-94.175
 13:20:30.581,eb:33:2e:f9:57:b5, 2015-01-01 01:04:57.790,-1.055,-0.176,1.906,229.797,52.917,-31.006, , , , , , ,8.899,-7.311,-94.307
 13:20:30.581,eb:33:2e:f9:57:b5, 2015-01-01 01:04:57.790,-0.348,-1.077,4.804,312.195,47.729,-40.833, , , , , , ,10.322,-7.075,-94.488
 13:20:30.626,eb:33:2e:f9:57:b5, 2015-01-01 01:04:57.790,0.2,-1.049,4.754,357.422,132.69,-24.841, , , , , , ,12.074,-6.52,-94.559
 13:20:30.626,eb:33:2e:f9:57:b5, 2015-01-01 01:04:57.790,-0.533,-0.617,2.316,386.414,125.732,2.441, , , , , , ,13.942,-5.834,-94.417
 13:20:30.626,eb:33:2e:f9:57:b5, 2015-01-01 01:04:57.790,-0.358,-1.234,2.749,419.006,87.646,16.296, , , , , , ,15.958,-5.378,-94.268
 13:20:30.626,eb:33:2e:f9:57:b5, 2015-01-01 01:04:57.790,0.294,-1.353,3.197,447.876,101.196,40.771, , , , , , ,18.111,-4.96,-93.966
 13:20:30.626,eb:33:2e:f9:57:b5, 2015-01-01 01:04:57.790,0.253,-0.914,2.542,480.896,64.819,45.288, , , , , , ,20.457,-4.609,-93.62
 13:20:30.626,eb:33:2e:f9:57:b5, 2015-01-01 01:04:57.790,0.295,-0.787,2.78,511.719,20.874,29.48, , , , , , ,22.939,-4.51,-93.384
 13:20:30.626,eb:33:2e:f9:57:b5, 2015-01-01 01:04:57.790,0.894,-1.373,3.809,541.443,42.419,25.635, , , , , , ,25.571,-4.422,-93.219
 13:20:30.626,eb:33:2e:f9:57:b5, 2015-01-01 01:04:57.790,1.219,-1.007,3.151,581.787,44.189,8.423, , , , , , ,28.378,-4.252,-93.027
 13:20:30.672,eb:33:2e:f9:57:b5, 2015-01-01 01:04:57.790,1.045,-0.731,2.421,629.761,-6.287,-29.724, , , , , , ,31.465,-4.12,-93.054
 13:20:30.672,eb:33:2e:f9:57:b5, 2015-01-01 01:04:57.790,0.99,-0.85,4.074,677.429,-7.996,-65.552, , , , , , ,34.772,-4.037,-93.323
 13:20:30.672,eb:33:2e:f9:57:b5, 2015-01-01 01:04:57.790,1.599,-1.179,5.785,723.938,62.439,-81.543, , , , , , ,38.315,-3.691,-93.527
 13:20:30.672,eb:33:2e:f9:57:b5, 2015-01-01 01:04:57.790,2.269,-0.744,6.875,760.132,154.602,-99.304, , , , , , ,42.05,-2.939,-93.51
 13:20:30.672,eb:33:2e:f9:57:b5, 2015-01-01 01:04:57.790,2.615,-0.309,7.603,820.557,173.279,-125.916, , , , , , ,46.027,-1.906,-93.312
 13:20:30.672,eb:33:2e:f9:57:b5, 2015-01-01 01:04:57.790,2.376,0.489,8.276,836.243,183.167,-152.222, , , , , , ,50.197,-0.775,-93.131
 13:20:30.672,eb:33:2e:f9:57:b5, 2015-01-01 01:04:57.790,1.928,1.297,7.583,795.959,170.715,-143.555, , , , , , ,54.278,0.379,-92.895
 13:20:30.672,eb:33:2e:f9:57:b5, 2015-01-01 01:04:57.790,2.935,4.046,5.247,704.468,109.924,-185.486, , , , , , ,58.013,1.445,-92.769
 13:20:30.693,eb:33:2e:f9:57:b5, 2015-01-01 01:04:58.125,2.5,3.185,2.755,550.598,97.9,-220.52, , , , , , ,61.073,2.604,-92.878
 13:20:30.693,eb:33:2e:f9:57:b5, 2015-01-01 01:04:58.125,1.47,2.437,-0.701,459.717,60.852,-284.058, , , , , , ,63.495,3.955,-93.164
 13:20:30.693,eb:33:2e:f9:57:b5, 2015-01-01 01:04:58.125,-0.688,4.872,-3.915,298.523,-64.514,-279.114, , , , , , ,65.33,5.273,-93.752
 13:20:30.693,eb:33:2e:f9:57:b5, 2015-01-01 01:04:58.125,0.497,3.641,-2.217,168.091,-190.918,-296.509, , , , , , ,66.231,6.273,-95.125
 13:20:30.693,eb:33:2e:f9:57:b5, 2015-01-01 01:04:58.125,0.2,2.642,4.23,147.766,-42.908,-282.715, , , , , , ,66.863,7.394,-96.207
 13:20:30.693,eb:33:2e:f9:57:b5, 2015-01-01 01:04:58.125,0.57,3.702,5.799,207.825,75.073,-289.795, , , , , , ,67.698,8.773,-96.63
 13:20:30.693,eb:33:2e:f9:57:b5, 2015-01-01 01:04:58.125,1.034,3.438,6.735,302.673,183.777,-304.871, , , , , , ,69.038,10.426,-96.487
 13:20:30.693,eb:33:2e:f9:57:b5, 2015-01-01 01:04:58.125,1.188,2.661,5.243,375.366,214.05,-313.049, , , , , , ,70.878,12.244,-96.026
 13:20:30.738,eb:33:2e:f9:57:b5, 2015-01-01 01:04:58.125,1.359,2.058,3.351,409.973,162.415,-316.711, , , , , , ,72.966,14.035,-95.625
 13:20:30.738,eb:33:2e:f9:57:b5, 2015-01-01 01:04:58.125,1.479,1.704,2.958,408.875,101.379,-325.989, , , , , , ,75.064,15.76,-95.466
 13:20:30.738,eb:33:2e:f9:57:b5, 2015-01-01 01:04:58.125,1.572,1.529,3.855,393.494,67.81,-339.966, , , , , , ,77.058,17.468,-95.471
 13:20:30.738,eb:33:2e:f9:57:b5, 2015-01-01 01:04:58.125,1.783,1.548,5.195,375.977,75.562,-360.901, , , , , , ,78.964,19.265,-95.51
 13:20:30.738,eb:33:2e:f9:57:b5, 2015-01-01 01:04:58.125,1.869,1.54,6.302,362.732,130.859,-381.775, , , , , , ,80.859,21.198,-95.317
 13:20:30.739,eb:33:2e:f9:57:b5, 2015-01-01 01:04:58.125,1.823,1.398,6.595,358.765,160.828,-397.583, , , , , , ,82.853,23.242,-94.801
 13:20:30.739,eb:33:2e:f9:57:b5, 2015-01-01 01:04:58.125,1.841,1.226,6.229,348.389,175.903,-413.513, , , , , , ,84.908,25.362,-94.087
 13:20:30.739,eb:33:2e:f9:57:b5, 2015-01-01 01:04:58.125,1.898,0.95,5.761,325.989,189.209,-422.546, , , , , , ,86.968,27.521,-93.224
 13:20:30.784,eb:33:2e:f9:57:b5, 2015-01-01 01:04:58.125,2.091,0.577,5.529,296.387,207.092,-423.462, , , , , , ,88.984,29.669,-92.203
 13:20:30.784,eb:33:2e:f9:57:b5, 2015-01-01 01:04:58.125,2.39,0.28,5.647,268.188,232.239,-421.021, , , , , , ,91.044,31.778,-90.901
 13:20:30.784,eb:33:2e:f9:57:b5, 2015-01-01 01:04:58.125,2.574,0.009,5.738,245.178,264.404,-412.109, , , , , , ,93.164,33.81,-89.308
 13:20:30.784,eb:33:2e:f9:57:b5, 2015-01-01 01:04:58.125,2.618,-0.274,5.443,228.577,284.424,-396.973, , , , , , ,95.405,35.722,-87.446
 13:20:30.784,eb:33:2e:f9:57:b5, 2015-01-01 01:04:58.125,2.498,-0.516,4.993,216.309,289.246,-378.113, , , , , , ,97.685,37.469,-85.424
 13:20:30.784,eb:33:2e:f9:57:b5, 2015-01-01 01:04:58.125,2.44,-0.69,4.366,201.538,276.672,-355.774, , , , , , ,100.047,39.056,-83.287
 13:20:30.784,eb:33:2e:f9:57:b5, 2015-01-01 01:04:58.125,2.294,-0.823,3.932,184.631,263.428,-338.623, , , , , , ,102.382,40.479,-81.112
 13:20:30.784,eb:33:2e:f9:57:b5, 2015-01-01 01:04:58.125,2.19,-1.016,3.662,169.067,244.141,-312.622, , , , , , ,104.656,41.754,-78.981
 13:20:30.829,eb:33:2e:f9:57:b5, 2015-01-01 01:04:58.125,2.222,-1.042,3.756,157.532,225.769,-284.302, , , , , , ,106.771,42.863,-76.992
 13:20:30.829,eb:33:2e:f9:57:b5, 2015-01-01 01:04:58.125,2.072,-1.123,4.064,148.315,222.656,-254.456, , , , , , ,108.924,43.786,-74.96
 13:20:30.829,eb:33:2e:f9:57:b5, 2015-01-01 01:04:58.125,1.995,-1.2,4.299,141.174,225.464,-223.45, , , , , , ,111.061,44.522,-72.905
 13:20:30.829,eb:33:2e:f9:57:b5, 2015-01-01 01:04:58.125,1.93,-1.387,4.25,132.263,231.018,-188.843, , , , , , ,113.17,45.033,-70.873
 13:20:30.829,eb:33:2e:f9:57:b5, 2015-01-01 01:04:58.125,1.907,-1.576,4.049,117.859,236.023,-151.733, , , , , , ,115.126,45.324,-68.934
 13:20:30.829,eb:33:2e:f9:57:b5, 2015-01-01 01:04:58.125,1.861,-1.715,3.783,94.727,239.136,-110.046, , , , , , ,117.021,45.374,-67.006
 13:20:30.829,eb:33:2e:f9:57:b5, 2015-01-01 01:04:58.125,1.892,-1.833,3.568,65.918,235.535,-71.106, , , , , , ,118.68,45.203,-65.198
 13:20:30.829,eb:33:2e:f9:57:b5, 2015-01-01 01:04:58.125,2.027,-2.006,3.268,27.1,230.469,-23.743, , , , , , ,120.009,44.819,-63.616
 13:20:30.876,eb:33:2e:f9:57:b5, 2015-01-01 01:04:58.125,2.165,-2.118,3.125,-3.662,226.562,13.428, , , , , , ,120.921,44.258,-62.325
 13:20:30.876,eb:33:2e:f9:57:b5, 2015-01-01 01:04:58.125,2.32,-2.191,2.603,-31.616,210.51,43.762, , , , , , ,121.635,43.55,-61.155
 13:20:30.876,eb:33:2e:f9:57:b5, 2015-01-01 01:04:58.125,2.423,-2.172,2.052,-56.824,180.908,64.758, , , , , , ,122.025,42.797,-60.216
 13:20:30.876,eb:33:2e:f9:57:b5, 2015-01-01 01:04:58.125,2.346,-2.32,1.417,-81.726,138.611,77.515, , , , , , ,122.097,42.072,-59.579
 13:20:30.876,eb:33:2e:f9:57:b5, 2015-01-01 01:04:58.125,2.335,-2.795,0.388,-112.366,81.726,89.783, , , , , , ,121.712,41.462,-59.354
 13:20:30.877,eb:33:2e:f9:57:b5, 2015-01-01 01:04:58.125,2.44,-3.509,-0.68,-157.715,22.827,105.652, , , , , , ,120.965,40.919,-59.436
 13:20:30.877,eb:33:2e:f9:57:b5, 2015-01-01 01:04:58.125,2.561,-4.084,-1.668,-227.722,-28.015,131.226, , , , , , ,119.685,40.413,-59.865
 13:20:30.877,eb:33:2e:f9:57:b5, 2015-01-01 01:04:58.125,2.781,-4.448,-2.47,-319.458,-75.317,162.659, , , , , , ,117.762,39.897,-60.661
 13:20:30.919,eb:33:2e:f9:57:b5, 2015-01-01 01:04:58.125,2.983,-4.762,-2.64,-410.034,-121.338,190.857, , , , , , ,115.104,39.342,-61.837
 13:20:30.919,eb:33:2e:f9:57:b5, 2015-01-01 01:04:58.125,3.165,-4.496,-2.27,-484.253,-177.063,206.848, , , , , , ,111.929,38.721,-63.254
 13:20:30.919,eb:33:2e:f9:57:b5, 2015-01-01 01:04:58.125,3.397,-3.853,-1.826,-542.969,-244.263,210.205, , , , , , ,108.232,38.112,-64.995
 13:20:30.919,eb:33:2e:f9:57:b5, 2015-01-01 01:04:58.125,3.548,-3.261,-1.301,-594.055,-307.556,202.087, , , , , , ,104.084,37.513,-67.077
 13:20:30.919,eb:33:2e:f9:57:b5, 2015-01-01 01:04:58.125,3.598,-2.77,-0.719,-641.907,-362.915,184.509, , , , , , ,99.487,36.936,-69.478
 13:20:30.919,eb:33:2e:f9:57:b5, 2015-01-01 01:04:58.125,3.5,-2.476,-0.055,-685.852,-407.715,161.621, , , , , , ,94.62,36.326,-72.021
 13:20:30.919,eb:33:2e:f9:57:b5, 2015-01-01 01:04:58.125,3.312,-2.35,0.52,-723.206,-452.698,137.573, , , , , , ,89.484,35.673,-74.718
 13:20:30.919,eb:33:2e:f9:57:b5, 2015-01-01 01:04:58.125,3.095,-2.304,1.191,-757.629,-502.014,116.516, , , , , , ,84.078,34.915,-77.624
 13:20:30.964,eb:33:2e:f9:57:b5, 2015-01-01 01:04:58.125,2.946,-2.334,1.991,-786.194,-554.565,103.149, , , , , , ,78.387,33.97,-80.771
 13:20:30.964,eb:33:2e:f9:57:b5, 2015-01-01 01:04:58.125,2.866,-2.378,2.949,-811.584,-602.051,97.9, , , , , , ,72.598,32.756,-84.007
 13:20:30.964,eb:33:2e:f9:57:b5, 2015-01-01 01:04:58.125,2.761,-2.382,4.081,-833.13,-629.578,100.83, , , , , , ,66.764,31.218,-87.22
 13:20:30.964,eb:33:2e:f9:57:b5, 2015-01-01 01:04:58.125,2.591,-2.243,5.292,-847.534,-632.751,107.422, , , , , , ,61.024,29.355,-90.242
 13:20:30.964,eb:33:2e:f9:57:b5, 2015-01-01 01:04:58.125,2.469,-1.873,6.309,-851.44,-620.789,109.314, , , , , , ,55.421,27.224,-92.988
 13:20:30.964,eb:33:2e:f9:57:b5, 2015-01-01 01:04:58.125,2.361,-1.347,6.929,-846.436,-608.521,107.422, , , , , , ,50.136,24.939,-95.345
 13:20:30.964,eb:33:2e:f9:57:b5, 2015-01-01 01:04:58.125,2.215,-0.927,7.188,-837.036,-596.13,103.394, , , , , , ,45.11,22.522,-97.372
 13:20:30.964,eb:33:2e:f9:57:b5, 2015-01-01 01:04:58.125,2.125,-0.687,7.245,-827.698,-577.026,99.548, , , , , , ,40.325,20.034,-99.102
 13:20:31.009,eb:33:2e:f9:57:b5, 2015-01-01 01:04:58.125,1.986,-0.472,7.228,-818.909,-555.847,96.497, , , , , , ,35.673,17.468,-100.574
 13:20:31.009,eb:33:2e:f9:57:b5, 2015-01-01 01:04:58.125,1.761,-0.409,7.072,-809.509,-540.222,99.06, , , , , , ,31.284,14.925,-101.717
 13:20:31.009,eb:33:2e:f9:57:b5, 2015-01-01 01:04:58.125,1.712,-0.511,6.784,-797.424,-525.269,111.023, , , , , , ,27.07,12.349,-102.574
 13:20:31.009,eb:33:2e:f9:57:b5, 2015-01-01 01:04:58.125,1.674,-0.538,6.628,-788.452,-511.719,125.305, , , , , , ,23,9.75,-103.14
 13:20:31.009,eb:33:2e:f9:57:b5, 2015-01-01 01:04:58.125,1.638,-0.505,6.289,-776.917,-494.385,148.682, , , , , , ,18.973,7.114,-103.42
 13:20:31.009,eb:33:2e:f9:57:b5, 2015-01-01 01:04:58.125,1.645,-0.39,5.788,-762.207,-487.915,174.866, , , , , , ,15.134,4.532,-103.348
 13:20:31.009,eb:33:2e:f9:57:b5, 2015-01-01 01:04:58.125,1.612,-0.09,5.24,-742.31,-503.052,198.364, , , , , , ,11.398,1.906,-102.997
 13:20:31.009,eb:33:2e:f9:57:b5, 2015-01-01 01:04:58.125,1.563,0.379,4.933,-715.698,-533.63,213.44, , , , , , ,7.767,-0.824,-102.404
 13:20:31.031,eb:33:2e:f9:57:b5, 2015-01-01 01:04:58.125,1.35,1.04,5.029,-681.274,-566.772,212.341, , , , , , ,4.175,-3.752,-101.64
 13:20:31.031,eb:33:2e:f9:57:b5, 2015-01-01 01:04:58.125,0.951,1.987,5.325,-639.832,-595.764,190.613, , , , , , ,0.807,-6.713,-100.756
 13:20:31.031,eb:33:2e:f9:57:b5, 2015-01-01 01:04:58.125,0.431,2.718,5.469,-614.014,-610.107,157.837, , , , , , ,-2.433,-9.728,-99.855
 13:20:31.031,eb:33:2e:f9:57:b5, 2015-01-01 01:04:58.125,-0.173,3.215,5.641,-599.976,-609.314,120.911, , , , , , ,-5.63,-12.733,-98.943
 13:20:31.031,eb:33:2e:f9:57:b5, 2015-01-01 01:04:58.125,-0.812,3.451,5.813,-595.825,-587.463,87.585, , , , , , ,-8.921,-15.688,-98.036
 13:20:31.031,eb:33:2e:f9:57:b5, 2015-01-01 01:04:58.125,-1.466,3.558,5.991,-594.055,-554.81,63.599, , , , , , ,-12.167,-18.413,-97.119
 13:20:31.031,eb:33:2e:f9:57:b5, 2015-01-01 01:04:58.125,-2.09,3.766,6.187,-585.815,-526.001,49.133, , , , , , ,-15.436,-20.951,-96.18
 13:20:31.031,eb:33:2e:f9:57:b5, 2015-01-01 01:04:58.125,-2.82,4.189,6.495,-564.758,-513.428,42.297, , , , , , ,-18.704,-23.357,-95.131
 13:20:31.076,eb:33:2e:f9:57:b5, 2015-01-01 01:04:58.460,-3.615,4.761,6.887,-524.78,-519.287,44.983, , , , , , ,-22,-25.735,-93.9
 13:20:31.076,eb:33:2e:f9:57:b5, 2015-01-01 01:04:58.460,-4.526,5.298,7.586,-471.497,-518.555,55.481, , , , , , ,-25.109,-28.021,-92.466
