Time,Device name,Chip Time(),Acceleration X(g),Acceleration Y(g),Acceleration Z(g),Angular velocity X(°/s),Angular velocity Y(°/s),Angular velocity Z(°/s),ShiftX(mm),ShiftY(mm),ShiftZ(mm),SpeedX(mm/s),SpeedY(mm/s),SpeedZ(mm/s),Angle X(°),Angle Y(°),Angle Z(°)
 13:09:12.007,eb:33:2e:f9:57:b5, 2015-01-01 00:53:44.275,0.019,0.082,0.994,0.122,0.122,-0.427, , , , , , ,4.911,-1.813,-101.173
 13:09:12.007,eb:33:2e:f9:57:b5, 2015-01-01 00:53:44.275,0.02,0.083,0.994,0.183,0.122,-0.427, , , , , , ,4.911,-1.813,-101.173
 13:09:12.007,eb:33:2e:f9:57:b5, 2015-01-01 00:53:44.275,0.019,0.083,0.995,0.183,0.183,-0.488, , , , , , ,4.911,-1.813,-101.173
 13:09:12.007,eb:33:2e:f9:57:b5, 2015-01-01 00:53:44.275,0.019,0.082,0.995,0.183,0.183,-0.488, , , , , , ,4.911,-1.813,-101.173
 13:09:12.009,eb:33:2e:f9:57:b5, 2015-01-01 00:53:44.275,0.02,0.083,0.994,0.122,0.061,-0.427, , , , , , ,4.911,-1.807,-101.173
 13:09:12.009,eb:33:2e:f9:57:b5, 2015-01-01 00:53:44.275,0.018,0.083,0.995,0.183,0.183,-0.427, , , , , , ,4.911,-1.807,-101.173
 13:09:12.009,eb:33:2e:f9:57:b5, 2015-01-01 00:53:44.275,0.018,0.082,0.994,0.244,0.122,-0.366, , , , , , ,4.911,-1.807,-101.173
 13:09:12.009,eb:33:2e:f9:57:b5, 2015-01-01 00:53:44.275,0.019,0.082,0.994,0.244,0.061,-0.366, , , , , , ,4.911,-1.807,-101.173
 13:09:12.053,eb:33:2e:f9:57:b5, 2015-01-01 00:53:44.275,0.019,0.083,0.995,0.244,0.061,-0.366, , , , , , ,4.911,-1.802,-101.173
 13:09:12.053,eb:33:2e:f9:57:b5, 2015-01-01 00:53:44.275,0.019,0.083,0.995,0.183,0.122,-0.305, , , , , , ,4.911,-1.802,-101.173
 13:09:12.053,eb:33:2e:f9:57:b5, 2015-01-01 00:53:44.275,0.019,0.083,0.995,0.183,0.244,-0.305, , , , , , ,4.911,-1.802,-101.173
 13:09:12.053,eb:33:2e:f9:57:b5, 2015-01-01 00:53:44.275,0.02,0.083,0.995,0.183,0.183,-0.244, , , , , , ,4.911,-1.802,-101.173
 13:09:12.053,eb:33:2e:f9:57:b5, 2015-01-01 00:53:44.275,0.021,0.083,0.995,0.122,0.244,-0.305, , , , , , ,4.911,-1.802,-101.179
 13:09:12.053,eb:33:2e:f9:57:b5, 2015-01-01 00:53:44.275,0.021,0.083,0.996,0.061,0.366,-0.305, , , , , , ,4.911,-1.802,-101.179
 13:09:12.053,eb:33:2e:f9:57:b5, 2015-01-01 00:53:44.275,0.02,0.083,0.995,0.122,0.488,-0.244, , , , , , ,4.911,-1.802,-101.179
 13:09:12.053,eb:33:2e:f9:57:b5, 2015-01-01 00:53:44.275,0.02,0.084,0.994,0.122,0.61,-0.244, , , , , , ,4.911,-1.802,-101.179
 13:09:12.098,eb:33:2e:f9:57:b5, 2015-01-01 00:53:44.275,0.02,0.083,0.994,0,0.61,-0.244, , , , , , ,4.905,-1.796,-101.179
 13:09:12.098,eb:33:2e:f9:57:b5, 2015-01-01 00:53:44.275,0.02,0.083,0.994,0.061,0.671,-0.183, , , , , , ,4.905,-1.796,-101.179
 13:09:12.098,eb:33:2e:f9:57:b5, 2015-01-01 00:53:44.275,0.019,0.083,0.994,0,0.671,-0.244, , , , , , ,4.905,-1.796,-101.179
 13:09:12.098,eb:33:2e:f9:57:b5, 2015-01-01 00:53:44.275,0.018,0.083,0.995,0,0.671,-0.244, , , , , , ,4.905,-1.796,-101.179
 13:09:12.098,eb:33:2e:f9:57:b5, 2015-01-01 00:53:44.275,0.017,0.082,0.994,0,0.732,-0.183, , , , , , ,4.905,-1.791,-101.179
 13:09:12.098,eb:33:2e:f9:57:b5, 2015-01-01 00:53:44.275,0.017,0.082,0.994,0.061,0.671,-0.183, , , , , , ,4.905,-1.791,-101.179
 13:09:12.098,eb:33:2e:f9:57:b5, 2015-01-01 00:53:44.275,0.018,0.082,0.994,0.122,0.549,-0.122, , , , , , ,4.905,-1.791,-101.179
 13:09:12.098,eb:33:2e:f9:57:b5, 2015-01-01 00:53:44.275,0.017,0.081,0.993,0.122,0.549,-0.122, , , , , , ,4.905,-1.791,-101.179
 13:09:12.143,eb:33:2e:f9:57:b5, 2015-01-01 00:53:44.275,0.017,0.083,0.993,0.183,0.427,0, , , , , , ,4.905,-1.785,-101.179
 13:09:12.143,eb:33:2e:f9:57:b5, 2015-01-01 00:53:44.275,0.018,0.082,0.994,0.122,0.305,0, , , , , , ,4.905,-1.785,-101.179
 13:09:12.143,eb:33:2e:f9:57:b5, 2015-01-01 00:53:44.275,0.018,0.083,0.993,0.183,0.305,0, , , , , , ,4.905,-1.785,-101.179
 13:09:12.143,eb:33:2e:f9:57:b5, 2015-01-01 00:53:44.275,0.019,0.083,0.993,0.183,0.244,0, , , , , , ,4.905,-1.785,-101.179
 13:09:12.143,eb:33:2e:f9:57:b5, 2015-01-01 00:53:44.275,0.018,0.083,0.992,0.122,0.122,0, , , , , , ,4.905,-1.785,-101.179
 13:09:12.143,eb:33:2e:f9:57:b5, 2015-01-01 00:53:44.275,0.017,0.082,0.993,0.183,0.061,0.061, , , , , , ,4.905,-1.785,-101.179
 13:09:12.143,eb:33:2e:f9:57:b5, 2015-01-01 00:53:44.275,0.017,0.082,0.993,0.244,-0.122,0.061, , , , , , ,4.905,-1.785,-101.179
 13:09:12.143,eb:33:2e:f9:57:b5, 2015-01-01 00:53:44.275,0.017,0.082,0.993,0.244,-0.183,0.122, , , , , , ,4.905,-1.785,-101.179
 13:09:12.165,eb:33:2e:f9:57:b5, 2015-01-01 00:53:44.275,0.017,0.083,0.993,0.183,-0.183,0.122, , , , , , ,4.9,-1.78,-101.179
 13:09:12.165,eb:33:2e:f9:57:b5, 2015-01-01 00:53:44.275,0.019,0.083,0.993,0.244,-0.244,0.122, , , , , , ,4.9,-1.78,-101.179
 13:09:12.165,eb:33:2e:f9:57:b5, 2015-01-01 00:53:44.275,0.018,0.083,0.994,0.244,-0.305,0.183, , , , , , ,4.9,-1.78,-101.179
 13:09:12.165,eb:33:2e:f9:57:b5, 2015-01-01 00:53:44.275,0.018,0.083,0.994,0.244,-0.305,0.122, , , , , , ,4.9,-1.78,-101.179
 13:09:12.165,eb:33:2e:f9:57:b5, 2015-01-01 00:53:44.275,0.019,0.083,0.993,0.244,-0.366,0.122, , , , , , ,4.9,-1.774,-101.179
 13:09:12.165,eb:33:2e:f9:57:b5, 2015-01-01 00:53:44.275,0.019,0.083,0.994,0.183,-0.305,0.061, , , , , , ,4.9,-1.774,-101.179
 13:09:12.165,eb:33:2e:f9:57:b5, 2015-01-01 00:53:44.275,0.02,0.084,0.994,0.183,-0.305,0, , , , , , ,4.9,-1.774,-101.179
 13:09:12.165,eb:33:2e:f9:57:b5, 2015-01-01 00:53:44.275,0.02,0.083,0.994,0.183,-0.244,0.061, , , , , , ,4.9,-1.774,-101.179
 13:09:12.209,eb:33:2e:f9:57:b5, 2015-01-01 00:53:44.275,0.02,0.083,0.995,0.244,-0.122,0.061, , , , , , ,4.9,-1.774,-101.179
 13:09:12.209,eb:33:2e:f9:57:b5, 2015-01-01 00:53:44.275,0.02,0.083,0.993,0.183,-0.061,0, , , , , , ,4.9,-1.774,-101.179
 13:09:12.209,eb:33:2e:f9:57:b5, 2015-01-01 00:53:44.275,0.02,0.084,0.994,0.122,0,0.061, , , , , , ,4.9,-1.774,-101.179
 13:09:12.209,eb:33:2e:f9:57:b5, 2015-01-01 00:53:44.275,0.02,0.083,0.993,0.122,0,0, , , , , , ,4.9,-1.774,-101.179
 13:09:12.209,eb:33:2e:f9:57:b5, 2015-01-01 00:53:44.275,0.02,0.084,0.993,0.061,0,0, , , , , , ,4.9,-1.769,-101.179
 13:09:12.209,eb:33:2e:f9:57:b5, 2015-01-01 00:53:44.275,0.02,0.083,0.993,0.061,0.061,0, , , , , , ,4.9,-1.769,-101.179
 13:09:12.209,eb:33:2e:f9:57:b5, 2015-01-01 00:53:44.275,0.019,0.083,0.993,0.061,0.061,0, , , , , , ,4.9,-1.769,-101.179
 13:09:12.209,eb:33:2e:f9:57:b5, 2015-01-01 00:53:44.275,0.018,0.084,0.993,0.061,0,-0.061, , , , , , ,4.9,-1.769,-101.179
 13:09:12.254,eb:33:2e:f9:57:b5, 2015-01-01 00:53:44.610,0.019,0.083,0.992,0.061,0,0, , , , , , ,4.9,-1.763,-101.179
 13:09:12.254,eb:33:2e:f9:57:b5, 2015-01-01 00:53:44.610,0.019,0.083,0.992,0,0,0, , , , , , ,4.9,-1.763,-101.179
 13:09:12.254,eb:33:2e:f9:57:b5, 2015-01-01 00:53:44.610,0.018,0.084,0.993,0,0,0, , , , , , ,4.9,-1.763,-101.179
 13:09:12.254,eb:33:2e:f9:57:b5, 2015-01-01 00:53:44.610,0.019,0.084,0.993,0,0,0, , , , , , ,4.9,-1.763,-101.179
 13:09:12.254,eb:33:2e:f9:57:b5, 2015-01-01 00:53:44.610,0.02,0.084,0.993,0,0,0, , , , , , ,4.9,-1.763,-101.179
 13:09:12.254,eb:33:2e:f9:57:b5, 2015-01-01 00:53:44.610,0.02,0.084,0.994,0,0,0, , , , , , ,4.9,-1.763,-101.179
 13:09:12.254,eb:33:2e:f9:57:b5, 2015-01-01 00:53:44.610,0.019,0.084,0.993,0,0,0, , , , , , ,4.9,-1.763,-101.179
 13:09:12.254,eb:33:2e:f9:57:b5, 2015-01-01 00:53:44.610,0.02,0.084,0.993,-0.061,0,0, , , , , , ,4.9,-1.763,-101.179
 13:09:12.300,eb:33:2e:f9:57:b5, 2015-01-01 00:53:44.610,0.02,0.083,0.993,-0.061,0,-0.061, , , , , , ,4.894,-1.758,-101.179
 13:09:12.300,eb:33:2e:f9:57:b5, 2015-01-01 00:53:44.610,0.019,0.084,0.993,-0.061,0,0, , , , , , ,4.894,-1.758,-101.179
 13:09:12.300,eb:33:2e:f9:57:b5, 2015-01-01 00:53:44.610,0.02,0.084,0.992,-0.183,0,0, , , , , , ,4.894,-1.758,-101.179
 13:09:12.300,eb:33:2e:f9:57:b5, 2015-01-01 00:53:44.610,0.019,0.083,0.992,-0.183,0,0, , , , , , ,4.894,-1.758,-101.179
 13:09:12.300,eb:33:2e:f9:57:b5, 2015-01-01 00:53:44.610,0.02,0.084,0.992,-0.183,0.122,0, , , , , , ,4.894,-1.758,-101.179
 13:09:12.300,eb:33:2e:f9:57:b5, 2015-01-01 00:53:44.610,0.019,0.084,0.992,-0.183,0.122,0, , , , , , ,4.894,-1.758,-101.179
 13:09:12.300,eb:33:2e:f9:57:b5, 2015-01-01 00:53:44.610,0.019,0.084,0.992,-0.244,0.061,0, , , , , , ,4.894,-1.758,-101.179
 13:09:12.300,eb:33:2e:f9:57:b5, 2015-01-01 00:53:44.610,0.019,0.084,0.992,-0.305,0.061,0, , , , , , ,4.894,-1.758,-101.179
 13:09:12.344,eb:33:2e:f9:57:b5, 2015-01-01 00:53:44.610,0.018,0.083,0.993,-0.366,0,-0.061, , , , , , ,4.894,-1.752,-101.179
 13:09:12.344,eb:33:2e:f9:57:b5, 2015-01-01 00:53:44.610,0.018,0.083,0.993,-0.366,0,0, , , , , , ,4.894,-1.752,-101.179
 13:09:12.344,eb:33:2e:f9:57:b5, 2015-01-01 00:53:44.610,0.019,0.083,0.993,-0.366,0,0, , , , , , ,4.894,-1.752,-101.179
 13:09:12.344,eb:33:2e:f9:57:b5, 2015-01-01 00:53:44.610,0.019,0.083,0.993,-0.366,0,0, , , , , , ,4.894,-1.752,-101.179
 13:09:12.345,eb:33:2e:f9:57:b5, 2015-01-01 00:53:44.610,0.017,0.083,0.994,-0.366,-0.061,0, , , , , , ,4.894,-1.747,-101.179
 13:09:12.345,eb:33:2e:f9:57:b5, 2015-01-01 00:53:44.610,0.018,0.084,0.993,-0.366,-0.061,0, , , , , , ,4.894,-1.747,-101.179
 13:09:12.345,eb:33:2e:f9:57:b5, 2015-01-01 00:53:44.610,0.019,0.083,0.993,-0.427,-0.122,0, , , , , , ,4.894,-1.747,-101.179
 13:09:12.345,eb:33:2e:f9:57:b5, 2015-01-01 00:53:44.610,0.019,0.083,0.992,-0.427,-0.183,0, , , , , , ,4.894,-1.747,-101.179
 13:09:12.368,eb:33:2e:f9:57:b5, 2015-01-01 00:53:44.610,0.018,0.083,0.992,-0.427,-0.244,0, , , , , , ,4.894,-1.747,-101.179
 13:09:12.368,eb:33:2e:f9:57:b5, 2015-01-01 00:53:44.610,0.019,0.082,0.992,-0.488,-0.366,0, , , , , , ,4.894,-1.747,-101.179
 13:09:12.368,eb:33:2e:f9:57:b5, 2015-01-01 00:53:44.610,0.019,0.083,0.992,-0.488,-0.305,0, , , , , , ,4.894,-1.747,-101.179
 13:09:12.368,eb:33:2e:f9:57:b5, 2015-01-01 00:53:44.610,0.019,0.084,0.992,-0.549,-0.366,0.061, , , , , , ,4.894,-1.747,-101.179
 13:09:12.368,eb:33:2e:f9:57:b5, 2015-01-01 00:53:44.610,0.017,0.083,0.992,-0.488,-0.366,0, , , , , , ,4.894,-1.741,-101.179
 13:09:12.368,eb:33:2e:f9:57:b5, 2015-01-01 00:53:44.610,0.017,0.082,0.993,-0.549,-0.488,0, , , , , , ,4.894,-1.741,-101.179
 13:09:12.368,eb:33:2e:f9:57:b5, 2015-01-01 00:53:44.610,0.018,0.083,0.992,-0.61,-0.549,-0.061, , , , , , ,4.894,-1.741,-101.179
 13:09:12.368,eb:33:2e:f9:57:b5, 2015-01-01 00:53:44.610,0.019,0.083,0.991,-0.671,-0.61,0, , , , , , ,4.894,-1.741,-101.179
 13:09:12.435,eb:33:2e:f9:57:b5, 2015-01-01 00:53:44.610,0.019,0.083,0.991,-0.793,-0.61,-0.061, , , , , , ,4.894,-1.736,-101.179
 13:09:12.435,eb:33:2e:f9:57:b5, 2015-01-01 00:53:44.610,0.018,0.083,0.992,-0.854,-0.671,-0.061, , , , , , ,4.894,-1.736,-101.179
 13:09:12.435,eb:33:2e:f9:57:b5, 2015-01-01 00:53:44.610,0.019,0.084,0.992,-0.977,-0.793,-0.061, , , , , , ,4.894,-1.736,-101.179
 13:09:12.435,eb:33:2e:f9:57:b5, 2015-01-01 00:53:44.610,0.019,0.084,0.992,-0.977,-0.854,-0.061, , , , , , ,4.894,-1.736,-101.179
 13:09:12.435,eb:33:2e:f9:57:b5, 2015-01-01 00:53:44.610,0.019,0.083,0.992,-1.038,-0.916,-0.122, , , , , , ,4.894,-1.736,-101.179
 13:09:12.435,eb:33:2e:f9:57:b5, 2015-01-01 00:53:44.610,0.019,0.083,0.992,-1.16,-0.916,-0.183, , , , , , ,4.894,-1.736,-101.179
 13:09:12.435,eb:33:2e:f9:57:b5, 2015-01-01 00:53:44.610,0.019,0.083,0.992,-1.282,-0.977,-0.183, , , , , , ,4.894,-1.736,-101.179
 13:09:12.435,eb:33:2e:f9:57:b5, 2015-01-01 00:53:44.610,0.019,0.083,0.991,-1.343,-1.038,-0.244, , , , , , ,4.894,-1.736,-101.179
 13:09:12.480,eb:33:2e:f9:57:b5, 2015-01-01 00:53:44.610,0.02,0.083,0.991,-1.404,-1.099,-0.305, , , , , , ,4.889,-1.73,-101.179
 13:09:12.480,eb:33:2e:f9:57:b5, 2015-01-01 00:53:44.610,0.02,0.083,0.992,-1.526,-1.16,-0.244, , , , , , ,4.889,-1.73,-101.179
 13:09:12.480,eb:33:2e:f9:57:b5, 2015-01-01 00:53:44.610,0.021,0.083,0.992,-1.648,-1.099,-0.366, , , , , , ,4.889,-1.73,-101.179
 13:09:12.480,eb:33:2e:f9:57:b5, 2015-01-01 00:53:44.610,0.021,0.083,0.993,-1.709,-1.038,-0.427, , , , , , ,4.889,-1.73,-101.179
 13:09:12.480,eb:33:2e:f9:57:b5, 2015-01-01 00:53:44.610,0.022,0.083,0.992,-1.77,-1.038,-0.488, , , , , , ,4.889,-1.73,-101.179
 13:09:12.480,eb:33:2e:f9:57:b5, 2015-01-01 00:53:44.610,0.022,0.083,0.993,-1.77,-1.038,-0.488, , , , , , ,4.889,-1.73,-101.179
 13:09:12.480,eb:33:2e:f9:57:b5, 2015-01-01 00:53:44.610,0.023,0.082,0.994,-1.77,-0.916,-0.488, , , , , , ,4.889,-1.73,-101.179
 13:09:12.480,eb:33:2e:f9:57:b5, 2015-01-01 00:53:44.610,0.022,0.081,0.995,-1.77,-0.732,-0.488, , , , , , ,4.889,-1.73,-101.179
 13:09:12.524,eb:33:2e:f9:57:b5, 2015-01-01 00:53:44.610,0.021,0.079,0.996,-1.709,-0.671,-0.488, , , , , , ,4.889,-1.725,-101.179
 13:09:12.524,eb:33:2e:f9:57:b5, 2015-01-01 00:53:44.610,0.021,0.079,0.994,-1.587,-0.61,-0.427, , , , , , ,4.889,-1.725,-101.179
 13:09:12.524,eb:33:2e:f9:57:b5, 2015-01-01 00:53:44.610,0.021,0.08,0.996,-1.526,-0.549,-0.366, , , , , , ,4.889,-1.725,-101.179
 13:09:12.524,eb:33:2e:f9:57:b5, 2015-01-01 00:53:44.610,0.022,0.076,0.998,-1.282,-0.488,-0.305, , , , , , ,4.889,-1.725,-101.179
 13:09:12.524,eb:33:2e:f9:57:b5, 2015-01-01 00:53:44.610,0.022,0.075,1,-0.977,-0.427,-0.244, , , , , , ,4.889,-1.719,-101.179
 13:09:12.524,eb:33:2e:f9:57:b5, 2015-01-01 00:53:44.610,0.021,0.077,0.999,-0.732,-0.305,-0.244, , , , , , ,4.889,-1.719,-101.179
 13:09:12.524,eb:33:2e:f9:57:b5, 2015-01-01 00:53:44.610,0.02,0.079,0.997,-0.732,-0.244,-0.183, , , , , , ,4.889,-1.719,-101.179
 13:09:12.525,eb:33:2e:f9:57:b5, 2015-01-01 00:53:44.610,0.019,0.079,0.996,-0.61,-0.305,-0.122, , , , , , ,4.889,-1.719,-101.179
 13:09:12.614,eb:33:2e:f9:57:b5, 2015-01-01 00:53:44.610,0.021,0.078,0.995,-0.549,-0.305,-0.061, , , , , , ,4.889,-1.719,-101.179
 13:09:12.615,eb:33:2e:f9:57:b5, 2015-01-01 00:53:44.610,0.021,0.079,0.995,-0.488,-0.305,-0.061, , , , , , ,4.889,-1.719,-101.179
 13:09:12.615,eb:33:2e:f9:57:b5, 2015-01-01 00:53:44.610,0.021,0.079,0.995,-0.488,-0.366,-0.122, , , , , , ,4.889,-1.719,-101.179
 13:09:12.615,eb:33:2e:f9:57:b5, 2015-01-01 00:53:44.610,0.02,0.079,0.994,-0.488,-0.305,-0.122, , , , , , ,4.889,-1.719,-101.179
 13:09:12.615,eb:33:2e:f9:57:b5, 2015-01-01 00:53:44.610,0.022,0.079,0.993,-0.488,-0.427,-0.061, , , , , , ,4.889,-1.714,-101.179
 13:09:12.615,eb:33:2e:f9:57:b5, 2015-01-01 00:53:44.610,0.021,0.079,0.993,-0.427,-0.305,-0.061, , , , , , ,4.889,-1.714,-101.179
 13:09:12.616,eb:33:2e:f9:57:b5, 2015-01-01 00:53:44.610,0.021,0.08,0.993,-0.488,-0.305,0, , , , , , ,4.889,-1.714,-101.179
 13:09:12.616,eb:33:2e:f9:57:b5, 2015-01-01 00:53:44.610,0.022,0.081,0.993,-0.549,-0.244,-0.061, , , , , , ,4.889,-1.714,-101.179
 13:09:12.618,eb:33:2e:f9:57:b5, 2015-01-01 00:53:44.610,0.021,0.081,0.993,-0.549,-0.305,0, , , , , , ,4.889,-1.714,-101.179
 13:09:12.618,eb:33:2e:f9:57:b5, 2015-01-01 00:53:44.610,0.021,0.081,0.993,-0.61,-0.244,0, , , , , , ,4.889,-1.714,-101.179
 13:09:12.618,eb:33:2e:f9:57:b5, 2015-01-01 00:53:44.610,0.021,0.08,0.993,-0.671,-0.183,0, , , , , , ,4.889,-1.714,-101.179
 13:09:12.618,eb:33:2e:f9:57:b5, 2015-01-01 00:53:44.610,0.021,0.079,0.992,-0.671,-0.183,0, , , , , , ,4.889,-1.714,-101.179
 13:09:12.618,eb:33:2e:f9:57:b5, 2015-01-01 00:53:44.610,0.023,0.08,0.993,-0.671,-0.183,0, , , , , , ,4.883,-1.708,-101.179
 13:09:12.618,eb:33:2e:f9:57:b5, 2015-01-01 00:53:44.610,0.023,0.08,0.993,-0.732,-0.061,0, , , , , , ,4.883,-1.708,-101.179
 13:09:12.618,eb:33:2e:f9:57:b5, 2015-01-01 00:53:44.610,0.022,0.08,0.993,-0.732,-0.061,0, , , , , , ,4.883,-1.708,-101.179
 13:09:12.618,eb:33:2e:f9:57:b5, 2015-01-01 00:53:44.610,0.022,0.08,0.993,-0.732,0,0, , , , , , ,4.883,-1.708,-101.179
 13:09:12.618,eb:33:2e:f9:57:b5, 2015-01-01 00:53:44.610,0.024,0.079,0.992,-0.854,0,0, , , , , , ,4.883,-1.708,-101.179
 13:09:12.618,eb:33:2e:f9:57:b5, 2015-01-01 00:53:44.610,0.024,0.08,0.992,-0.916,0.122,0, , , , , , ,4.883,-1.708,-101.179
 13:09:12.618,eb:33:2e:f9:57:b5, 2015-01-01 00:53:44.610,0.023,0.08,0.992,-1.038,0.305,0.061, , , , , , ,4.883,-1.708,-101.179
 13:09:12.618,eb:33:2e:f9:57:b5, 2015-01-01 00:53:44.610,0.022,0.079,0.992,-1.038,0.427,0, , , , , , ,4.883,-1.708,-101.179
 13:09:12.618,eb:33:2e:f9:57:b5, 2015-01-01 00:53:44.610,0.022,0.079,0.991,-1.038,0.366,0.061, , , , , , ,4.883,-1.703,-101.179
 13:09:12.619,eb:33:2e:f9:57:b5, 2015-01-01 00:53:44.610,0.021,0.079,0.993,-1.099,0.427,0, , , , , , ,4.883,-1.703,-101.179
 13:09:12.619,eb:33:2e:f9:57:b5, 2015-01-01 00:53:44.610,0.021,0.078,0.993,-1.099,0.366,0, , , , , , ,4.883,-1.703,-101.179
 13:09:12.619,eb:33:2e:f9:57:b5, 2015-01-01 00:53:44.610,0.022,0.078,0.993,-1.16,0.366,0.061, , , , , , ,4.883,-1.703,-101.179
 13:09:12.659,eb:33:2e:f9:57:b5, 2015-01-01 00:53:44.990,0.021,0.079,0.993,-1.16,0.366,0.061, , , , , , ,4.883,-1.697,-101.179
 13:09:12.659,eb:33:2e:f9:57:b5, 2015-01-01 00:53:44.990,0.022,0.078,0.993,-1.16,0.427,0.061, , , , , , ,4.883,-1.697,-101.179
 13:09:12.659,eb:33:2e:f9:57:b5, 2015-01-01 00:53:44.990,0.021,0.079,0.996,-1.221,0.549,0, , , , , , ,4.883,-1.697,-101.179
 13:09:12.659,eb:33:2e:f9:57:b5, 2015-01-01 00:53:44.990,0.021,0.078,0.996,-1.221,0.549,0, , , , , , ,4.883,-1.697,-101.179
 13:09:12.660,eb:33:2e:f9:57:b5, 2015-01-01 00:53:44.990,0.018,0.076,0.996,-1.099,0.549,0, , , , , , ,4.883,-1.697,-101.179
 13:09:12.660,eb:33:2e:f9:57:b5, 2015-01-01 00:53:44.990,0.018,0.075,0.994,-1.038,0.427,0, , , , , , ,4.883,-1.697,-101.179
 13:09:12.660,eb:33:2e:f9:57:b5, 2015-01-01 00:53:44.990,0.018,0.075,0.995,-0.854,0.183,0, , , , , , ,4.883,-1.697,-101.179
 13:09:12.660,eb:33:2e:f9:57:b5, 2015-01-01 00:53:44.990,0.019,0.076,0.996,-0.732,0,0, , , , , , ,4.883,-1.697,-101.179
 13:09:12.705,eb:33:2e:f9:57:b5, 2015-01-01 00:53:44.990,0.02,0.076,0.999,-0.671,-0.061,0, , , , , , ,4.878,-1.692,-101.179
 13:09:12.705,eb:33:2e:f9:57:b5, 2015-01-01 00:53:44.990,0.019,0.075,0.999,-0.549,0,0.061, , , , , , ,4.878,-1.692,-101.179
 13:09:12.705,eb:33:2e:f9:57:b5, 2015-01-01 00:53:44.990,0.02,0.075,0.996,-0.427,-0.061,0.061, , , , , , ,4.878,-1.692,-101.179
 13:09:12.705,eb:33:2e:f9:57:b5, 2015-01-01 00:53:44.990,0.02,0.074,0.995,-0.305,-0.122,0, , , , , , ,4.878,-1.692,-101.179
 13:09:12.705,eb:33:2e:f9:57:b5, 2015-01-01 00:53:44.990,0.02,0.075,0.993,-0.244,-0.305,0, , , , , , ,4.878,-1.692,-101.179
 13:09:12.705,eb:33:2e:f9:57:b5, 2015-01-01 00:53:44.990,0.023,0.077,0.992,-0.183,-0.305,0, , , , , , ,4.878,-1.692,-101.179
 13:09:12.705,eb:33:2e:f9:57:b5, 2015-01-01 00:53:44.990,0.023,0.078,0.995,-0.244,-0.122,0, , , , , , ,4.878,-1.692,-101.179
 13:09:12.705,eb:33:2e:f9:57:b5, 2015-01-01 00:53:44.990,0.023,0.078,0.994,-0.244,-0.122,0.061, , , , , , ,4.878,-1.692,-101.179
 13:09:12.749,eb:33:2e:f9:57:b5, 2015-01-01 00:53:44.990,0.023,0.078,0.994,-0.244,0,0, , , , , , ,4.878,-1.686,-101.179
 13:09:12.749,eb:33:2e:f9:57:b5, 2015-01-01 00:53:44.990,0.021,0.078,0.994,-0.305,0,0, , , , , , ,4.878,-1.686,-101.179
 13:09:12.749,eb:33:2e:f9:57:b5, 2015-01-01 00:53:44.990,0.021,0.078,0.994,-0.244,0.122,0, , , , , , ,4.878,-1.686,-101.179
 13:09:12.749,eb:33:2e:f9:57:b5, 2015-01-01 00:53:44.990,0.021,0.077,0.994,-0.305,0.061,0, , , , , , ,4.878,-1.686,-101.179
 13:09:12.749,eb:33:2e:f9:57:b5, 2015-01-01 00:53:44.990,0.021,0.077,0.994,-0.366,0.061,0, , , , , , ,4.878,-1.686,-101.179
 13:09:12.749,eb:33:2e:f9:57:b5, 2015-01-01 00:53:44.990,0.021,0.077,0.995,-0.366,0.183,0, , , , , , ,4.878,-1.686,-101.179
 13:09:12.749,eb:33:2e:f9:57:b5, 2015-01-01 00:53:44.990,0.021,0.078,0.994,-0.366,0.183,0, , , , , , ,4.878,-1.686,-101.179
 13:09:12.749,eb:33:2e:f9:57:b5, 2015-01-01 00:53:44.990,0.021,0.078,0.993,-0.427,0.183,0, , , , , , ,4.878,-1.686,-101.179
 13:09:12.773,eb:33:2e:f9:57:b5, 2015-01-01 00:53:44.990,0.021,0.077,0.993,-0.366,0.183,0, , , , , , ,4.872,-1.681,-101.179
 13:09:12.773,eb:33:2e:f9:57:b5, 2015-01-01 00:53:44.990,0.021,0.077,0.993,-0.366,0.122,0, , , , , , ,4.872,-1.681,-101.179
 13:09:12.773,eb:33:2e:f9:57:b5, 2015-01-01 00:53:44.990,0.021,0.077,0.992,-0.427,0.122,0, , , , , , ,4.872,-1.681,-101.179
 13:09:12.773,eb:33:2e:f9:57:b5, 2015-01-01 00:53:44.990,0.021,0.078,0.993,-0.427,0.122,-0.061, , , , , , ,4.872,-1.681,-101.179
 13:09:12.773,eb:33:2e:f9:57:b5, 2015-01-01 00:53:44.990,0.021,0.078,0.993,-0.549,0.122,-0.061, , , , , , ,4.872,-1.681,-101.179
 13:09:12.773,eb:33:2e:f9:57:b5, 2015-01-01 00:53:44.990,0.022,0.077,0.992,-0.549,0.061,-0.061, , , , , , ,4.872,-1.681,-101.179
 13:09:12.773,eb:33:2e:f9:57:b5, 2015-01-01 00:53:44.990,0.022,0.078,0.994,-0.549,0.122,0, , , , , , ,4.872,-1.681,-101.179
 13:09:12.773,eb:33:2e:f9:57:b5, 2015-01-01 00:53:44.990,0.021,0.076,0.993,-0.549,0.061,0, , , , , , ,4.872,-1.681,-101.179
 13:09:12.863,eb:33:2e:f9:57:b5, 2015-01-01 00:53:44.990,0.021,0.077,0.993,-0.61,0,0, , , , , , ,4.872,-1.675,-101.179
 13:09:12.863,eb:33:2e:f9:57:b5, 2015-01-01 00:53:44.990,0.02,0.077,0.992,-0.61,0,0, , , , , , ,4.872,-1.675,-101.179
 13:09:12.863,eb:33:2e:f9:57:b5, 2015-01-01 00:53:44.990,0.02,0.076,0.992,-0.61,-0.183,0, , , , , , ,4.872,-1.675,-101.179
 13:09:12.863,eb:33:2e:f9:57:b5, 2015-01-01 00:53:44.990,0.021,0.076,0.991,-0.61,-0.305,0, , , , , , ,4.872,-1.675,-101.179
 13:09:12.863,eb:33:2e:f9:57:b5, 2015-01-01 00:53:44.990,0.021,0.076,0.994,-0.549,-0.305,0, , , , , , ,4.872,-1.675,-101.179
 13:09:12.863,eb:33:2e:f9:57:b5, 2015-01-01 00:53:44.990,0.02,0.075,0.995,-0.488,-0.305,0.061, , , , , , ,4.872,-1.675,-101.179
 13:09:12.863,eb:33:2e:f9:57:b5, 2015-01-01 00:53:44.990,0.02,0.075,0.994,-0.366,-0.427,0.061, , , , , , ,4.872,-1.675,-101.179
 13:09:12.863,eb:33:2e:f9:57:b5, 2015-01-01 00:53:44.990,0.019,0.074,0.993,-0.244,-0.549,0.122, , , , , , ,4.872,-1.675,-101.179
 13:09:12.885,eb:33:2e:f9:57:b5, 2015-01-01 00:53:44.990,0.019,0.075,0.994,-0.244,-0.549,0.183, , , , , , ,4.867,-1.67,-101.179
 13:09:12.885,eb:33:2e:f9:57:b5, 2015-01-01 00:53:44.990,0.02,0.075,0.994,-0.183,-0.732,0.183, , , , , , ,4.867,-1.67,-101.179
 13:09:12.885,eb:33:2e:f9:57:b5, 2015-01-01 00:53:44.990,0.02,0.076,0.994,-0.183,-0.793,0.183, , , , , , ,4.867,-1.67,-101.179
 13:09:12.885,eb:33:2e:f9:57:b5, 2015-01-01 00:53:44.990,0.021,0.076,0.992,-0.183,-0.854,0.183, , , , , , ,4.867,-1.67,-101.179
 13:09:12.885,eb:33:2e:f9:57:b5, 2015-01-01 00:53:44.990,0.021,0.076,0.992,-0.244,-0.854,0.183, , , , , , ,4.867,-1.67,-101.179
 13:09:12.885,eb:33:2e:f9:57:b5, 2015-01-01 00:53:44.990,0.021,0.076,0.994,-0.183,-0.854,0.183, , , , , , ,4.867,-1.67,-101.179
 13:09:12.885,eb:33:2e:f9:57:b5, 2015-01-01 00:53:44.990,0.021,0.075,0.994,-0.122,-0.977,0.244, , , , , , ,4.867,-1.67,-101.179
 13:09:12.885,eb:33:2e:f9:57:b5, 2015-01-01 00:53:44.990,0.022,0.075,0.994,-0.122,-1.038,0.244, , , , , , ,4.867,-1.67,-101.179
 13:09:12.930,eb:33:2e:f9:57:b5, 2015-01-01 00:53:44.990,0.022,0.076,0.993,-0.122,-1.038,0.183, , , , , , ,4.867,-1.664,-101.179
 13:09:12.930,eb:33:2e:f9:57:b5, 2015-01-01 00:53:44.990,0.022,0.076,0.993,-0.122,-0.977,0.244, , , , , , ,4.867,-1.664,-101.179
 13:09:12.930,eb:33:2e:f9:57:b5, 2015-01-01 00:53:44.990,0.022,0.075,0.993,-0.122,-0.977,0.244, , , , , , ,4.867,-1.664,-101.179
 13:09:12.930,eb:33:2e:f9:57:b5, 2015-01-01 00:53:44.990,0.023,0.076,0.992,-0.061,-0.977,0.244, , , , , , ,4.867,-1.664,-101.179
 13:09:12.930,eb:33:2e:f9:57:b5, 2015-01-01 00:53:44.990,0.023,0.077,0.995,-0.122,-0.977,0.244, , , , , , ,4.861,-1.664,-101.179
 13:09:12.930,eb:33:2e:f9:57:b5, 2015-01-01 00:53:44.990,0.021,0.076,0.996,-0.122,-0.854,0.244, , , , , , ,4.861,-1.664,-101.179
 13:09:12.930,eb:33:2e:f9:57:b5, 2015-01-01 00:53:44.990,0.021,0.075,0.995,-0.061,-0.977,0.244, , , , , , ,4.861,-1.664,-101.179
 13:09:12.930,eb:33:2e:f9:57:b5, 2015-01-01 00:53:44.990,0.023,0.076,0.994,-0.122,-0.977,0.244, , , , , , ,4.861,-1.664,-101.179
 13:09:12.952,eb:33:2e:f9:57:b5, 2015-01-01 00:53:44.990,0.024,0.077,0.993,-0.183,-0.916,0.244, , , , , , ,4.861,-1.659,-101.179
 13:09:12.952,eb:33:2e:f9:57:b5, 2015-01-01 00:53:44.990,0.023,0.077,0.994,-0.244,-0.854,0.183, , , , , , ,4.861,-1.659,-101.179
 13:09:12.952,eb:33:2e:f9:57:b5, 2015-01-01 00:53:44.990,0.024,0.076,0.994,-0.244,-0.793,0.244, , , , , , ,4.861,-1.659,-101.179
 13:09:12.952,eb:33:2e:f9:57:b5, 2015-01-01 00:53:44.990,0.023,0.076,0.994,-0.244,-0.793,0.244, , , , , , ,4.861,-1.659,-101.179
 13:09:12.952,eb:33:2e:f9:57:b5, 2015-01-01 00:53:44.990,0.022,0.076,0.993,-0.305,-0.793,0.244, , , , , , ,4.861,-1.659,-101.179
 13:09:12.952,eb:33:2e:f9:57:b5, 2015-01-01 00:53:44.990,0.023,0.076,0.993,-0.366,-0.732,0.305, , , , , , ,4.861,-1.659,-101.179
 13:09:12.952,eb:33:2e:f9:57:b5, 2015-01-01 00:53:44.990,0.022,0.077,0.993,-0.305,-0.793,0.305, , , , , , ,4.861,-1.659,-101.179
 13:09:12.952,eb:33:2e:f9:57:b5, 2015-01-01 00:53:44.990,0.021,0.075,0.995,-0.305,-0.793,0.305, , , , , , ,4.861,-1.659,-101.179
 13:09:12.975,eb:33:2e:f9:57:b5, 2015-01-01 00:53:44.990,0.021,0.075,0.993,-0.244,-0.854,0.305, , , , , , ,4.856,-1.653,-101.179
 13:09:12.975,eb:33:2e:f9:57:b5, 2015-01-01 00:53:44.990,0.023,0.075,0.993,-0.244,-0.977,0.366, , , , , , ,4.856,-1.653,-101.179
 13:09:12.975,eb:33:2e:f9:57:b5, 2015-01-01 00:53:44.990,0.023,0.074,0.994,-0.244,-1.038,0.366, , , , , , ,4.856,-1.653,-101.179
 13:09:12.975,eb:33:2e:f9:57:b5, 2015-01-01 00:53:44.990,0.023,0.076,0.994,-0.244,-1.038,0.366, , , , , , ,4.856,-1.653,-101.179
 13:09:12.975,eb:33:2e:f9:57:b5, 2015-01-01 00:53:44.990,0.023,0.075,0.994,-0.305,-1.038,0.488, , , , , , ,4.856,-1.653,-101.179
 13:09:12.975,eb:33:2e:f9:57:b5, 2015-01-01 00:53:44.990,0.024,0.075,0.994,-0.305,-1.099,0.488, , , , , , ,4.856,-1.653,-101.179
 13:09:12.975,eb:33:2e:f9:57:b5, 2015-01-01 00:53:44.990,0.023,0.075,0.994,-0.305,-1.099,0.61, , , , , , ,4.856,-1.653,-101.179
 13:09:12.975,eb:33:2e:f9:57:b5, 2015-01-01 00:53:44.990,0.023,0.075,0.993,-0.305,-1.099,0.671, , , , , , ,4.856,-1.653,-101.179
 13:09:13.019,eb:33:2e:f9:57:b5, 2015-01-01 00:53:44.990,0.024,0.075,0.992,-0.305,-1.221,0.61, , , , , , ,4.856,-1.648,-101.179
 13:09:13.019,eb:33:2e:f9:57:b5, 2015-01-01 00:53:44.990,0.024,0.075,0.993,-0.366,-1.282,0.61, , , , , , ,4.856,-1.648,-101.179
 13:09:13.019,eb:33:2e:f9:57:b5, 2015-01-01 00:53:44.990,0.023,0.075,0.994,-0.366,-1.221,0.61, , , , , , ,4.856,-1.648,-101.179
 13:09:13.020,eb:33:2e:f9:57:b5, 2015-01-01 00:53:44.990,0.023,0.075,0.994,-0.366,-1.282,0.61, , , , , , ,4.856,-1.648,-101.179
 13:09:13.020,eb:33:2e:f9:57:b5, 2015-01-01 00:53:44.990,0.023,0.076,0.995,-0.305,-1.282,0.61, , , , , , ,4.85,-1.648,-101.179
 13:09:13.020,eb:33:2e:f9:57:b5, 2015-01-01 00:53:44.990,0.024,0.075,0.995,-0.366,-1.343,0.671, , , , , , ,4.85,-1.648,-101.179
 13:09:13.020,eb:33:2e:f9:57:b5, 2015-01-01 00:53:44.990,0.025,0.075,0.994,-0.427,-1.343,0.671, , , , , , ,4.85,-1.648,-101.179
 13:09:13.020,eb:33:2e:f9:57:b5, 2015-01-01 00:53:44.990,0.025,0.075,0.994,-0.427,-1.343,0.732, , , , , , ,4.85,-1.648,-101.179
 13:09:13.065,eb:33:2e:f9:57:b5, 2015-01-01 00:53:45.415,0.024,0.076,0.993,-0.488,-1.282,0.671, , , , , , ,4.85,-1.648,-101.179
 13:09:13.065,eb:33:2e:f9:57:b5, 2015-01-01 00:53:45.415,0.024,0.076,0.992,-0.549,-1.343,0.671, , , , , , ,4.85,-1.648,-101.179
 13:09:13.065,eb:33:2e:f9:57:b5, 2015-01-01 00:53:45.415,0.024,0.076,0.991,-0.671,-1.343,0.671, , , , , , ,4.85,-1.648,-101.184
 13:09:13.065,eb:33:2e:f9:57:b5, 2015-01-01 00:53:45.415,0.024,0.078,0.992,-0.793,-1.343,0.732, , , , , , ,4.85,-1.648,-101.184
 13:09:13.065,eb:33:2e:f9:57:b5, 2015-01-01 00:53:45.415,0.026,0.076,0.992,-0.916,-1.404,0.793, , , , , , ,4.85,-1.642,-101.184
 13:09:13.065,eb:33:2e:f9:57:b5, 2015-01-01 00:53:45.415,0.026,0.076,0.993,-0.977,-1.343,0.854, , , , , , ,4.85,-1.642,-101.184
 13:09:13.065,eb:33:2e:f9:57:b5, 2015-01-01 00:53:45.415,0.026,0.075,0.992,-0.977,-1.343,0.854, , , , , , ,4.85,-1.642,-101.184
 13:09:13.065,eb:33:2e:f9:57:b5, 2015-01-01 00:53:45.415,0.026,0.076,0.992,-0.977,-1.282,0.793, , , , , , ,4.85,-1.642,-101.184
 13:09:13.109,eb:33:2e:f9:57:b5, 2015-01-01 00:53:45.415,0.027,0.076,0.991,-1.099,-1.282,0.793, , , , , , ,4.845,-1.642,-101.184
 13:09:13.109,eb:33:2e:f9:57:b5, 2015-01-01 00:53:45.415,0.027,0.075,0.993,-1.16,-1.343,0.793, , , , , , ,4.845,-1.642,-101.184
 13:09:13.109,eb:33:2e:f9:57:b5, 2015-01-01 00:53:45.415,0.027,0.075,0.993,-1.282,-1.282,0.793, , , , , , ,4.845,-1.642,-101.184
 13:09:13.109,eb:33:2e:f9:57:b5, 2015-01-01 00:53:45.415,0.027,0.074,0.992,-1.282,-1.343,0.732, , , , , , ,4.845,-1.642,-101.184
 13:09:13.109,eb:33:2e:f9:57:b5, 2015-01-01 00:53:45.415,0.027,0.075,0.992,-1.282,-1.343,0.732, , , , , , ,4.845,-1.637,-101.184
 13:09:13.109,eb:33:2e:f9:57:b5, 2015-01-01 00:53:45.415,0.027,0.074,0.993,-1.343,-1.282,0.671, , , , , , ,4.845,-1.637,-101.184
 13:09:13.109,eb:33:2e:f9:57:b5, 2015-01-01 00:53:45.415,0.026,0.074,0.992,-1.404,-1.282,0.549, , , , , , ,4.845,-1.637,-101.184
 13:09:13.109,eb:33:2e:f9:57:b5, 2015-01-01 00:53:45.415,0.027,0.074,0.992,-1.404,-1.404,0.549, , , , , , ,4.845,-1.637,-101.184
 13:09:13.132,eb:33:2e:f9:57:b5, 2015-01-01 00:53:45.415,0.028,0.076,0.993,-1.465,-1.343,0.427, , , , , , ,4.839,-1.637,-101.184
 13:09:13.132,eb:33:2e:f9:57:b5, 2015-01-01 00:53:45.415,0.028,0.075,0.994,-1.526,-1.343,0.366, , , , , , ,4.839,-1.637,-101.184
 13:09:13.132,eb:33:2e:f9:57:b5, 2015-01-01 00:53:45.415,0.028,0.075,0.995,-1.587,-1.221,0.244, , , , , , ,4.839,-1.637,-101.184
 13:09:13.132,eb:33:2e:f9:57:b5, 2015-01-01 00:53:45.415,0.029,0.074,0.994,-1.587,-1.16,0.244, , , , , , ,4.839,-1.637,-101.184
 13:09:13.132,eb:33:2e:f9:57:b5, 2015-01-01 00:53:45.415,0.029,0.074,0.995,-1.587,-1.038,0.244, , , , , , ,4.839,-1.637,-101.184
 13:09:13.132,eb:33:2e:f9:57:b5, 2015-01-01 00:53:45.415,0.029,0.073,0.996,-1.587,-0.916,0.183, , , , , , ,4.839,-1.637,-101.184
 13:09:13.132,eb:33:2e:f9:57:b5, 2015-01-01 00:53:45.415,0.029,0.072,0.995,-1.587,-0.854,0.183, , , , , , ,4.839,-1.637,-101.184
 13:09:13.132,eb:33:2e:f9:57:b5, 2015-01-01 00:53:45.415,0.029,0.072,0.995,-1.526,-0.793,0.122, , , , , , ,4.839,-1.637,-101.184
 13:09:13.176,eb:33:2e:f9:57:b5, 2015-01-01 00:53:45.415,0.027,0.073,0.994,-1.526,-0.61,0.061, , , , , , ,4.839,-1.631,-101.184
 13:09:13.176,eb:33:2e:f9:57:b5, 2015-01-01 00:53:45.415,0.027,0.071,0.994,-1.526,-0.61,0.061, , , , , , ,4.839,-1.631,-101.184
 13:09:13.176,eb:33:2e:f9:57:b5, 2015-01-01 00:53:45.415,0.027,0.071,0.994,-1.404,-0.671,0.061, , , , , , ,4.839,-1.631,-101.184
 13:09:13.176,eb:33:2e:f9:57:b5, 2015-01-01 00:53:45.415,0.027,0.07,0.995,-1.343,-0.732,0.061, , , , , , ,4.839,-1.631,-101.184
 13:09:13.176,eb:33:2e:f9:57:b5, 2015-01-01 00:53:45.415,0.027,0.07,0.996,-1.282,-0.732,0.061, , , , , , ,4.834,-1.631,-101.184
 13:09:13.176,eb:33:2e:f9:57:b5, 2015-01-01 00:53:45.415,0.027,0.07,0.995,-1.221,-0.793,0, , , , , , ,4.834,-1.631,-101.184
 13:09:13.178,eb:33:2e:f9:57:b5, 2015-01-01 00:53:45.415,0.027,0.07,0.997,-1.099,-0.793,0, , , , , , ,4.834,-1.631,-101.184
 13:09:13.178,eb:33:2e:f9:57:b5, 2015-01-01 00:53:45.415,0.026,0.07,0.995,-0.977,-0.854,0.122, , , , , , ,4.834,-1.631,-101.184
 13:09:13.223,eb:33:2e:f9:57:b5, 2015-01-01 00:53:45.415,0.025,0.07,0.995,-0.916,-0.916,0.183, , , , , , ,4.834,-1.631,-101.184
 13:09:13.223,eb:33:2e:f9:57:b5, 2015-01-01 00:53:45.415,0.027,0.07,0.994,-0.854,-1.038,0.183, , , , , , ,4.834,-1.631,-101.184
 13:09:13.223,eb:33:2e:f9:57:b5, 2015-01-01 00:53:45.415,0.027,0.07,0.994,-0.793,-1.099,0.244, , , , , , ,4.834,-1.631,-101.184
 13:09:13.223,eb:33:2e:f9:57:b5, 2015-01-01 00:53:45.415,0.027,0.07,0.995,-0.732,-1.16,0.183, , , , , , ,4.834,-1.631,-101.184
 13:09:13.223,eb:33:2e:f9:57:b5, 2015-01-01 00:53:45.415,0.028,0.07,0.995,-0.793,-1.16,0.183, , , , , , ,4.828,-1.626,-101.184
 13:09:13.223,eb:33:2e:f9:57:b5, 2015-01-01 00:53:45.415,0.029,0.07,0.994,-0.671,-1.16,0.244, , , , , , ,4.828,-1.626,-101.184
 13:09:13.223,eb:33:2e:f9:57:b5, 2015-01-01 00:53:45.415,0.029,0.07,0.995,-0.61,-1.221,0.183, , , , , , ,4.828,-1.626,-101.184
 13:09:13.223,eb:33:2e:f9:57:b5, 2015-01-01 00:53:45.415,0.031,0.07,0.996,-0.488,-1.16,0.244, , , , , , ,4.828,-1.626,-101.184
 13:09:13.268,eb:33:2e:f9:57:b5, 2015-01-01 00:53:45.415,0.03,0.07,0.998,-0.488,-1.038,0.183, , , , , , ,4.828,-1.626,-101.184
 13:09:13.268,eb:33:2e:f9:57:b5, 2015-01-01 00:53:45.415,0.03,0.07,0.997,-0.427,-0.854,0.183, , , , , , ,4.828,-1.626,-101.184
 13:09:13.268,eb:33:2e:f9:57:b5, 2015-01-01 00:53:45.415,0.029,0.07,0.995,-0.427,-0.793,0.122, , , , , , ,4.828,-1.626,-101.184
 13:09:13.268,eb:33:2e:f9:57:b5, 2015-01-01 00:53:45.415,0.029,0.071,0.995,-0.366,-0.732,0.061, , , , , , ,4.828,-1.626,-101.184
 13:09:13.268,eb:33:2e:f9:57:b5, 2015-01-01 00:53:45.415,0.03,0.07,0.995,-0.305,-0.671,0.061, , , , , , ,4.823,-1.626,-101.184
 13:09:13.269,eb:33:2e:f9:57:b5, 2015-01-01 00:53:45.415,0.031,0.07,0.996,-0.305,-0.549,0, , , , , , ,4.823,-1.626,-101.184
 13:09:13.269,eb:33:2e:f9:57:b5, 2015-01-01 00:53:45.415,0.031,0.07,0.996,-0.305,-0.366,0.061, , , , , , ,4.823,-1.626,-101.184
 13:09:13.269,eb:33:2e:f9:57:b5, 2015-01-01 00:53:45.415,0.031,0.071,0.996,-0.305,-0.305,0, , , , , , ,4.823,-1.626,-101.184
 13:09:13.313,eb:33:2e:f9:57:b5, 2015-01-01 00:53:45.415,0.03,0.071,0.995,-0.366,-0.183,0, , , , , , ,4.823,-1.626,-101.184
 13:09:13.313,eb:33:2e:f9:57:b5, 2015-01-01 00:53:45.415,0.03,0.07,0.994,-0.366,-0.061,0, , , , , , ,4.823,-1.626,-101.184
 13:09:13.313,eb:33:2e:f9:57:b5, 2015-01-01 00:53:45.415,0.029,0.071,0.994,-0.488,-0.061,0, , , , , , ,4.823,-1.626,-101.184
 13:09:13.313,eb:33:2e:f9:57:b5, 2015-01-01 00:53:45.415,0.029,0.071,0.994,-0.488,-0.061,0, , , , , , ,4.823,-1.626,-101.184
 13:09:13.313,eb:33:2e:f9:57:b5, 2015-01-01 00:53:45.415,0.03,0.071,0.993,-0.488,0,0, , , , , , ,4.818,-1.626,-101.184
 13:09:13.313,eb:33:2e:f9:57:b5, 2015-01-01 00:53:45.415,0.03,0.07,0.994,-0.488,0,0, , , , , , ,4.818,-1.626,-101.184
 13:09:13.313,eb:33:2e:f9:57:b5, 2015-01-01 00:53:45.415,0.03,0.07,0.994,-0.549,0.061,0, , , , , , ,4.818,-1.626,-101.184
 13:09:13.313,eb:33:2e:f9:57:b5, 2015-01-01 00:53:45.415,0.028,0.07,0.993,-0.549,0.061,-0.061, , , , , , ,4.818,-1.626,-101.184
 13:09:13.335,eb:33:2e:f9:57:b5, 2015-01-01 00:53:45.725,0.029,0.071,0.993,-0.549,0.122,-0.061, , , , , , ,4.818,-1.62,-101.184
 13:09:13.335,eb:33:2e:f9:57:b5, 2015-01-01 00:53:45.725,0.03,0.071,0.994,-0.549,0.061,-0.061, , , , , , ,4.818,-1.62,-101.184
 13:09:13.335,eb:33:2e:f9:57:b5, 2015-01-01 00:53:45.725,0.03,0.07,0.995,-0.488,0.061,-0.183, , , , , , ,4.818,-1.62,-101.184
 13:09:13.335,eb:33:2e:f9:57:b5, 2015-01-01 00:53:45.725,0.03,0.07,0.995,-0.488,0.122,-0.122, , , , , , ,4.818,-1.62,-101.184
 13:09:13.335,eb:33:2e:f9:57:b5, 2015-01-01 00:53:45.725,0.029,0.07,0.994,-0.488,0.183,-0.122, , , , , , ,4.812,-1.62,-101.184
 13:09:13.335,eb:33:2e:f9:57:b5, 2015-01-01 00:53:45.725,0.03,0.07,0.994,-0.488,0.122,-0.183, , , , , , ,4.812,-1.62,-101.184
 13:09:13.335,eb:33:2e:f9:57:b5, 2015-01-01 00:53:45.725,0.031,0.071,0.995,-0.488,0.183,-0.244, , , , , , ,4.812,-1.62,-101.184
 13:09:13.335,eb:33:2e:f9:57:b5, 2015-01-01 00:53:45.725,0.032,0.071,0.996,-0.488,0.244,-0.366, , , , , , ,4.812,-1.62,-101.184
 13:09:13.380,eb:33:2e:f9:57:b5, 2015-01-01 00:53:45.725,0.031,0.071,0.997,-0.366,0.427,-0.366, , , , , , ,4.812,-1.62,-101.184
 13:09:13.380,eb:33:2e:f9:57:b5, 2015-01-01 00:53:45.725,0.03,0.069,0.996,-0.366,0.488,-0.366, , , , , , ,4.812,-1.62,-101.184
 13:09:13.380,eb:33:2e:f9:57:b5, 2015-01-01 00:53:45.725,0.031,0.069,0.996,-0.244,0.549,-0.427, , , , , , ,4.812,-1.62,-101.184
 13:09:13.380,eb:33:2e:f9:57:b5, 2015-01-01 00:53:45.725,0.03,0.069,0.997,-0.244,0.61,-0.427, , , , , , ,4.812,-1.62,-101.184
 13:09:13.380,eb:33:2e:f9:57:b5, 2015-01-01 00:53:45.725,0.029,0.069,0.997,-0.244,0.732,-0.488, , , , , , ,4.807,-1.62,-101.184
 13:09:13.380,eb:33:2e:f9:57:b5, 2015-01-01 00:53:45.725,0.029,0.069,0.995,-0.244,0.732,-0.488, , , , , , ,4.807,-1.62,-101.184
 13:09:13.380,eb:33:2e:f9:57:b5, 2015-01-01 00:53:45.725,0.029,0.069,0.994,-0.122,0.732,-0.488, , , , , , ,4.807,-1.62,-101.184
 13:09:13.380,eb:33:2e:f9:57:b5, 2015-01-01 00:53:45.725,0.029,0.069,0.995,-0.183,0.732,-0.488, , , , , , ,4.807,-1.62,-101.184
 13:09:13.424,eb:33:2e:f9:57:b5, 2015-01-01 00:53:45.725,0.029,0.069,0.995,-0.122,0.732,-0.549, , , , , , ,4.807,-1.62,-101.184
 13:09:13.424,eb:33:2e:f9:57:b5, 2015-01-01 00:53:45.725,0.029,0.07,0.995,-0.122,0.732,-0.61, , , , , , ,4.807,-1.62,-101.184
 13:09:13.424,eb:33:2e:f9:57:b5, 2015-01-01 00:53:45.725,0.029,0.07,0.996,-0.122,0.732,-0.61, , , , , , ,4.807,-1.62,-101.184
 13:09:13.424,eb:33:2e:f9:57:b5, 2015-01-01 00:53:45.725,0.029,0.069,0.996,0,0.732,-0.61, , , , , , ,4.807,-1.62,-101.184
 13:09:13.424,eb:33:2e:f9:57:b5, 2015-01-01 00:53:45.725,0.028,0.068,0.996,0,0.793,-0.61, , , , , , ,4.801,-1.62,-101.184
 13:09:13.424,eb:33:2e:f9:57:b5, 2015-01-01 00:53:45.725,0.029,0.068,0.995,0,0.732,-0.61, , , , , , ,4.801,-1.62,-101.184
 13:09:13.424,eb:33:2e:f9:57:b5, 2015-01-01 00:53:45.725,0.029,0.069,0.996,0,0.793,-0.549, , , , , , ,4.801,-1.62,-101.184
 13:09:13.424,eb:33:2e:f9:57:b5, 2015-01-01 00:53:45.725,0.029,0.07,0.995,0,0.793,-0.61, , , , , , ,4.801,-1.62,-101.184
 13:09:13.469,eb:33:2e:f9:57:b5, 2015-01-01 00:53:45.725,0.029,0.07,0.996,0,0.854,-0.61, , , , , , ,4.801,-1.615,-101.184
 13:09:13.469,eb:33:2e:f9:57:b5, 2015-01-01 00:53:45.725,0.029,0.07,0.995,0.061,0.916,-0.61, , , , , , ,4.801,-1.615,-101.184
 13:09:13.469,eb:33:2e:f9:57:b5, 2015-01-01 00:53:45.725,0.028,0.07,0.995,0.061,0.977,-0.732, , , , , , ,4.801,-1.615,-101.184
 13:09:13.469,eb:33:2e:f9:57:b5, 2015-01-01 00:53:45.725,0.028,0.069,0.996,0.061,0.977,-0.61, , , , , , ,4.801,-1.615,-101.184
 13:09:13.469,eb:33:2e:f9:57:b5, 2015-01-01 00:53:45.725,0.028,0.069,0.996,0.122,1.16,-0.671, , , , , , ,4.746,-1.609,-101.184
 13:09:13.469,eb:33:2e:f9:57:b5, 2015-01-01 00:53:45.725,0.027,0.07,0.995,0.122,1.16,-0.671, , , , , , ,4.746,-1.609,-101.184
 13:09:13.470,eb:33:2e:f9:57:b5, 2015-01-01 00:53:45.725,0.028,0.069,0.995,0.183,1.16,-0.671, , , , , , ,4.746,-1.609,-101.184
 13:09:13.470,eb:33:2e:f9:57:b5, 2015-01-01 00:53:45.725,0.028,0.069,0.994,0.244,1.16,-0.732, , , , , , ,4.746,-1.609,-101.184
 13:09:13.515,eb:33:2e:f9:57:b5, 2015-01-01 00:53:45.725,0.027,0.069,0.994,0.305,1.16,-0.732, , , , , , ,4.741,-1.609,-101.184
 13:09:13.515,eb:33:2e:f9:57:b5, 2015-01-01 00:53:45.725,0.027,0.069,0.994,0.305,1.16,-0.732, , , , , , ,4.741,-1.609,-101.184
 13:09:13.515,eb:33:2e:f9:57:b5, 2015-01-01 00:53:45.725,0.027,0.069,0.995,0.305,1.099,-0.732, , , , , , ,4.741,-1.609,-101.184
 13:09:13.515,eb:33:2e:f9:57:b5, 2015-01-01 00:53:45.725,0.028,0.069,0.995,0.305,1.16,-0.732, , , , , , ,4.741,-1.609,-101.184
 13:09:13.515,eb:33:2e:f9:57:b5, 2015-01-01 00:53:45.725,0.027,0.069,0.995,0.427,1.221,-0.671, , , , , , ,4.735,-1.604,-101.184
 13:09:13.515,eb:33:2e:f9:57:b5, 2015-01-01 00:53:45.725,0.026,0.069,0.994,0.488,1.221,-0.732, , , , , , ,4.735,-1.604,-101.184
 13:09:13.515,eb:33:2e:f9:57:b5, 2015-01-01 00:53:45.725,0.028,0.069,0.995,0.427,1.221,-0.671, , , , , , ,4.735,-1.604,-101.184
 13:09:13.515,eb:33:2e:f9:57:b5, 2015-01-01 00:53:45.725,0.027,0.069,0.996,0.488,1.282,-0.671, , , , , , ,4.735,-1.604,-101.184
 13:09:13.538,eb:33:2e:f9:57:b5, 2015-01-01 00:53:45.725,0.026,0.069,0.995,0.488,1.282,-0.732, , , , , , ,4.73,-1.604,-101.184
 13:09:13.538,eb:33:2e:f9:57:b5, 2015-01-01 00:53:45.725,0.027,0.069,0.995,0.549,1.282,-0.671, , , , , , ,4.73,-1.604,-101.184
 13:09:13.538,eb:33:2e:f9:57:b5, 2015-01-01 00:53:45.725,0.027,0.07,0.994,0.549,1.282,-0.61, , , , , , ,4.73,-1.604,-101.179
 13:09:13.538,eb:33:2e:f9:57:b5, 2015-01-01 00:53:45.725,0.027,0.07,0.995,0.61,1.221,-0.61, , , , , , ,4.73,-1.604,-101.179
 13:09:13.538,eb:33:2e:f9:57:b5, 2015-01-01 00:53:45.725,0.026,0.07,0.995,0.61,1.343,-0.61, , , , , , ,4.724,-1.604,-101.184
 13:09:13.538,eb:33:2e:f9:57:b5, 2015-01-01 00:53:45.725,0.025,0.069,0.995,0.671,1.282,-0.61, , , , , , ,4.724,-1.604,-101.184
 13:09:13.538,eb:33:2e:f9:57:b5, 2015-01-01 00:53:45.725,0.025,0.069,0.994,0.671,1.099,-0.427, , , , , , ,4.724,-1.604,-101.179
 13:09:13.539,eb:33:2e:f9:57:b5, 2015-01-01 00:53:45.725,0.024,0.07,0.995,0.732,1.038,-0.366, , , , , , ,4.724,-1.604,-101.179
 13:09:13.583,eb:33:2e:f9:57:b5, 2015-01-01 00:53:45.725,0.025,0.069,0.994,0.854,0.977,-0.366, , , , , , ,4.724,-1.604,-101.179
 13:09:13.583,eb:33:2e:f9:57:b5, 2015-01-01 00:53:45.725,0.025,0.069,0.994,0.916,0.793,-0.305, , , , , , ,4.724,-1.604,-101.179
 13:09:13.583,eb:33:2e:f9:57:b5, 2015-01-01 00:53:45.725,0.024,0.069,0.994,0.916,0.671,-0.244, , , , , , ,4.724,-1.604,-101.179
 13:09:13.583,eb:33:2e:f9:57:b5, 2015-01-01 00:53:45.725,0.024,0.07,0.993,1.038,0.549,-0.244, , , , , , ,4.724,-1.604,-101.179
 13:09:13.583,eb:33:2e:f9:57:b5, 2015-01-01 00:53:45.725,0.025,0.068,0.994,1.16,0.488,-0.122, , , , , , ,4.724,-1.604,-101.179
 13:09:13.583,eb:33:2e:f9:57:b5, 2015-01-01 00:53:45.725,0.027,0.068,0.995,1.282,0.427,0, , , , , , ,4.724,-1.604,-101.179
 13:09:13.583,eb:33:2e:f9:57:b5, 2015-01-01 00:53:45.725,0.028,0.066,0.996,1.526,0.427,0.122, , , , , , ,4.724,-1.604,-101.179
 13:09:13.583,eb:33:2e:f9:57:b5, 2015-01-01 00:53:45.725,0.027,0.065,1,1.831,0.488,0.244, , , , , , ,4.724,-1.604,-101.179
 13:09:13.628,eb:33:2e:f9:57:b5, 2015-01-01 00:53:45.725,0.025,0.066,0.999,2.136,0.488,0.305, , , , , , ,4.724,-1.604,-101.179
 13:09:13.628,eb:33:2e:f9:57:b5, 2015-01-01 00:53:45.725,0.023,0.069,0.997,2.258,0.488,0.427, , , , , , ,4.724,-1.604,-101.179
 13:09:13.628,eb:33:2e:f9:57:b5, 2015-01-01 00:53:45.725,0.022,0.072,0.993,2.197,0.427,0.488, , , , , , ,4.724,-1.604,-101.179
 13:09:13.628,eb:33:2e:f9:57:b5, 2015-01-01 00:53:45.725,0.023,0.073,0.993,2.197,0.122,0.549, , , , , , ,4.724,-1.604,-101.179
 13:09:13.628,eb:33:2e:f9:57:b5, 2015-01-01 00:53:45.725,0.023,0.073,0.993,2.197,0.061,0.488, , , , , , ,4.724,-1.604,-101.179
 13:09:13.628,eb:33:2e:f9:57:b5, 2015-01-01 00:53:45.725,0.025,0.072,0.993,2.197,0,0.549, , , , , , ,4.724,-1.604,-101.179
 13:09:13.628,eb:33:2e:f9:57:b5, 2015-01-01 00:53:45.725,0.025,0.071,0.996,2.197,0,0.549, , , , , , ,4.724,-1.604,-101.179
 13:09:13.628,eb:33:2e:f9:57:b5, 2015-01-01 00:53:45.725,0.026,0.072,0.994,2.258,0,0.549, , , , , , ,4.724,-1.604,-101.179
 13:09:13.672,eb:33:2e:f9:57:b5, 2015-01-01 00:53:46.040,0.024,0.074,0.994,2.136,0,0.488, , , , , , ,4.724,-1.604,-101.179
 13:09:13.672,eb:33:2e:f9:57:b5, 2015-01-01 00:53:46.040,0.024,0.075,0.992,2.014,0,0.488, , , , , , ,4.724,-1.604,-101.179
 13:09:13.672,eb:33:2e:f9:57:b5, 2015-01-01 00:53:46.040,0.024,0.074,0.993,2.014,-0.061,0.427, , , , , , ,4.724,-1.604,-101.179
 13:09:13.672,eb:33:2e:f9:57:b5, 2015-01-01 00:53:46.040,0.026,0.073,0.992,2.014,-0.122,0.488, , , , , , ,4.724,-1.604,-101.179
 13:09:13.672,eb:33:2e:f9:57:b5, 2015-01-01 00:53:46.040,0.026,0.075,0.993,1.953,-0.061,0.427, , , , , , ,4.724,-1.604,-101.179
 13:09:13.672,eb:33:2e:f9:57:b5, 2015-01-01 00:53:46.040,0.024,0.075,0.993,1.892,0,0.427, , , , , , ,4.724,-1.604,-101.179
 13:09:13.672,eb:33:2e:f9:57:b5, 2015-01-01 00:53:46.040,0.025,0.075,0.991,1.709,0,0.366, , , , , , ,4.724,-1.604,-101.179
 13:09:13.672,eb:33:2e:f9:57:b5, 2015-01-01 00:53:46.040,0.025,0.075,0.994,1.648,0,0.305, , , , , , ,4.724,-1.604,-101.179
 13:09:13.718,eb:33:2e:f9:57:b5, 2015-01-01 00:53:46.040,0.027,0.073,0.994,1.709,0,0.305, , , , , , ,4.719,-1.604,-101.179
 13:09:13.718,eb:33:2e:f9:57:b5, 2015-01-01 00:53:46.040,0.028,0.072,0.996,1.831,0.061,0.305, , , , , , ,4.719,-1.604,-101.179
 13:09:13.718,eb:33:2e:f9:57:b5, 2015-01-01 00:53:46.040,0.028,0.072,0.998,2.014,0.183,0.427, , , , , , ,4.719,-1.604,-101.179
 13:09:13.718,eb:33:2e:f9:57:b5, 2015-01-01 00:53:46.040,0.026,0.073,0.996,2.014,0.366,0.366, , , , , , ,4.719,-1.604,-101.179
 13:09:13.718,eb:33:2e:f9:57:b5, 2015-01-01 00:53:46.040,0.026,0.074,0.994,1.953,0.427,0.366, , , , , , ,4.719,-1.604,-101.179
 13:09:13.718,eb:33:2e:f9:57:b5, 2015-01-01 00:53:46.040,0.024,0.074,0.993,2.014,0.366,0.366, , , , , , ,4.719,-1.604,-101.179
 13:09:13.718,eb:33:2e:f9:57:b5, 2015-01-01 00:53:46.040,0.024,0.076,0.99,2.014,0.305,0.366, , , , , , ,4.719,-1.604,-101.179
 13:09:13.718,eb:33:2e:f9:57:b5, 2015-01-01 00:53:46.040,0.025,0.076,0.99,1.953,0.183,0.366, , , , , , ,4.719,-1.604,-101.179
 13:09:13.740,eb:33:2e:f9:57:b5, 2015-01-01 00:53:46.040,0.025,0.077,0.991,1.831,0.122,0.305, , , , , , ,4.719,-1.604,-101.179
 13:09:13.740,eb:33:2e:f9:57:b5, 2015-01-01 00:53:46.040,0.026,0.077,0.991,1.709,0.183,0.305, , , , , , ,4.719,-1.604,-101.179
 13:09:13.740,eb:33:2e:f9:57:b5, 2015-01-01 00:53:46.040,0.026,0.077,0.992,1.587,0.183,0.183, , , , , , ,4.719,-1.604,-101.179
 13:09:13.740,eb:33:2e:f9:57:b5, 2015-01-01 00:53:46.040,0.025,0.077,0.991,1.526,0.122,0.183, , , , , , ,4.719,-1.604,-101.179
 13:09:13.740,eb:33:2e:f9:57:b5, 2015-01-01 00:53:46.040,0.025,0.076,0.992,1.465,0.122,0.244, , , , , , ,4.719,-1.604,-101.179
 13:09:13.740,eb:33:2e:f9:57:b5, 2015-01-01 00:53:46.040,0.025,0.077,0.992,1.343,0.122,0.183, , , , , , ,4.719,-1.604,-101.179
 13:09:13.740,eb:33:2e:f9:57:b5, 2015-01-01 00:53:46.040,0.025,0.078,0.991,1.282,0.122,0.183, , , , , , ,4.719,-1.604,-101.179
 13:09:13.740,eb:33:2e:f9:57:b5, 2015-01-01 00:53:46.040,0.025,0.078,0.991,1.099,0.061,0.244, , , , , , ,4.719,-1.604,-101.179
 13:09:13.784,eb:33:2e:f9:57:b5, 2015-01-01 00:53:46.040,0.025,0.078,0.991,0.977,0,0.183, , , , , , ,4.719,-1.604,-101.179
 13:09:13.784,eb:33:2e:f9:57:b5, 2015-01-01 00:53:46.040,0.025,0.078,0.991,0.916,0,0.183, , , , , , ,4.719,-1.604,-101.179
 13:09:13.784,eb:33:2e:f9:57:b5, 2015-01-01 00:53:46.040,0.025,0.078,0.992,0.854,-0.061,0.183, , , , , , ,4.719,-1.604,-101.179
 13:09:13.784,eb:33:2e:f9:57:b5, 2015-01-01 00:53:46.040,0.025,0.077,0.992,0.793,-0.061,0.122, , , , , , ,4.719,-1.604,-101.179
 13:09:13.784,eb:33:2e:f9:57:b5, 2015-01-01 00:53:46.040,0.024,0.077,0.993,0.732,0,0.122, , , , , , ,4.719,-1.604,-101.179
 13:09:13.784,eb:33:2e:f9:57:b5, 2015-01-01 00:53:46.040,0.024,0.078,0.993,0.671,-0.122,0.183, , , , , , ,4.719,-1.604,-101.179
 13:09:13.784,eb:33:2e:f9:57:b5, 2015-01-01 00:53:46.040,0.024,0.078,0.992,0.671,-0.244,0.183, , , , , , ,4.719,-1.604,-101.179
 13:09:13.786,eb:33:2e:f9:57:b5, 2015-01-01 00:53:46.040,0.025,0.078,0.992,0.549,-0.244,0.183, , , , , , ,4.719,-1.604,-101.179
 13:09:13.831,eb:33:2e:f9:57:b5, 2015-01-01 00:53:46.040,0.025,0.077,0.992,0.488,-0.244,0.183, , , , , , ,4.719,-1.604,-101.179
 13:09:13.831,eb:33:2e:f9:57:b5, 2015-01-01 00:53:46.040,0.024,0.078,0.992,0.427,-0.183,0.183, , , , , , ,4.719,-1.604,-101.179
 13:09:13.831,eb:33:2e:f9:57:b5, 2015-01-01 00:53:46.040,0.024,0.078,0.992,0.427,-0.244,0.122, , , , , , ,4.719,-1.604,-101.179
 13:09:13.831,eb:33:2e:f9:57:b5, 2015-01-01 00:53:46.040,0.025,0.078,0.992,0.305,-0.305,0.183, , , , , , ,4.719,-1.604,-101.179
 13:09:13.831,eb:33:2e:f9:57:b5, 2015-01-01 00:53:46.040,0.024,0.078,0.992,0.305,-0.244,0.122, , , , , , ,4.713,-1.604,-101.179
 13:09:13.831,eb:33:2e:f9:57:b5, 2015-01-01 00:53:46.040,0.025,0.078,0.993,0.305,-0.305,0.061, , , , , , ,4.713,-1.604,-101.179
 13:09:13.831,eb:33:2e:f9:57:b5, 2015-01-01 00:53:46.040,0.025,0.078,0.993,0.244,-0.305,0.061, , , , , , ,4.713,-1.604,-101.179
 13:09:13.831,eb:33:2e:f9:57:b5, 2015-01-01 00:53:46.040,0.025,0.077,0.993,0.183,-0.305,0.061, , , , , , ,4.713,-1.604,-101.179
 13:09:13.875,eb:33:2e:f9:57:b5, 2015-01-01 00:53:46.040,0.025,0.077,0.993,0.183,-0.305,0.122, , , , , , ,4.713,-1.604,-101.179
 13:09:13.875,eb:33:2e:f9:57:b5, 2015-01-01 00:53:46.040,0.025,0.077,0.993,0.183,-0.244,0.122, , , , , , ,4.713,-1.604,-101.179
 13:09:13.875,eb:33:2e:f9:57:b5, 2015-01-01 00:53:46.040,0.026,0.077,0.994,0.122,-0.305,0.122, , , , , , ,4.713,-1.604,-101.179
 13:09:13.875,eb:33:2e:f9:57:b5, 2015-01-01 00:53:46.040,0.026,0.078,0.994,0.122,-0.244,0.122, , , , , , ,4.713,-1.604,-101.179
 13:09:13.875,eb:33:2e:f9:57:b5, 2015-01-01 00:53:46.040,0.026,0.078,0.994,0.122,-0.183,0.061, , , , , , ,4.713,-1.604,-101.179
 13:09:13.875,eb:33:2e:f9:57:b5, 2015-01-01 00:53:46.040,0.026,0.078,0.994,0.061,-0.122,0.061, , , , , , ,4.713,-1.604,-101.179
 13:09:13.875,eb:33:2e:f9:57:b5, 2015-01-01 00:53:46.040,0.026,0.078,0.994,0.061,-0.061,0, , , , , , ,4.713,-1.604,-101.179
 13:09:13.875,eb:33:2e:f9:57:b5, 2015-01-01 00:53:46.040,0.026,0.078,0.994,0,0,0, , , , , , ,4.713,-1.604,-101.179
 13:09:13.899,eb:33:2e:f9:57:b5, 2015-01-01 00:53:46.040,0.026,0.077,0.995,0,0,0, , , , , , ,4.713,-1.604,-101.179
 13:09:13.899,eb:33:2e:f9:57:b5, 2015-01-01 00:53:46.040,0.025,0.078,0.994,0,0,0, , , , , , ,4.713,-1.604,-101.179
 13:09:13.899,eb:33:2e:f9:57:b5, 2015-01-01 00:53:46.040,0.025,0.077,0.994,0.061,0,0, , , , , , ,4.713,-1.604,-101.179
 13:09:13.899,eb:33:2e:f9:57:b5, 2015-01-01 00:53:46.040,0.025,0.077,0.994,0,0,0, , , , , , ,4.713,-1.604,-101.179
 13:09:13.899,eb:33:2e:f9:57:b5, 2015-01-01 00:53:46.040,0.025,0.077,0.993,0,0,0, , , , , , ,4.713,-1.604,-101.179
 13:09:13.899,eb:33:2e:f9:57:b5, 2015-01-01 00:53:46.040,0.025,0.077,0.993,0,0,0, , , , , , ,4.713,-1.604,-101.179
 13:09:13.899,eb:33:2e:f9:57:b5, 2015-01-01 00:53:46.040,0.025,0.077,0.994,0,0,0, , , , , , ,4.713,-1.604,-101.179
 13:09:13.899,eb:33:2e:f9:57:b5, 2015-01-01 00:53:46.040,0.025,0.076,0.994,0,0,0, , , , , , ,4.713,-1.604,-101.179
 13:09:13.942,eb:33:2e:f9:57:b5, 2015-01-01 00:53:46.040,0.025,0.077,0.993,0.061,0,0, , , , , , ,4.708,-1.604,-101.179
 13:09:13.942,eb:33:2e:f9:57:b5, 2015-01-01 00:53:46.040,0.025,0.077,0.993,0.061,0,0, , , , , , ,4.708,-1.604,-101.179
 13:09:13.942,eb:33:2e:f9:57:b5, 2015-01-01 00:53:46.040,0.025,0.078,0.992,0.061,-0.061,0.061, , , , , , ,4.708,-1.604,-101.179
 13:09:13.942,eb:33:2e:f9:57:b5, 2015-01-01 00:53:46.040,0.025,0.077,0.993,0.061,0,0.061, , , , , , ,4.708,-1.604,-101.179
 13:09:13.942,eb:33:2e:f9:57:b5, 2015-01-01 00:53:46.040,0.025,0.078,0.994,0.061,0,0, , , , , , ,4.708,-1.604,-101.179
 13:09:13.942,eb:33:2e:f9:57:b5, 2015-01-01 00:53:46.040,0.025,0.078,0.993,0,0,0, , , , , , ,4.708,-1.604,-101.179
 13:09:13.942,eb:33:2e:f9:57:b5, 2015-01-01 00:53:46.040,0.025,0.078,0.993,0,0,0, , , , , , ,4.708,-1.604,-101.179
 13:09:13.942,eb:33:2e:f9:57:b5, 2015-01-01 00:53:46.040,0.025,0.077,0.993,0,-0.061,0, , , , , , ,4.708,-1.604,-101.179
 13:09:13.987,eb:33:2e:f9:57:b5, 2015-01-01 00:53:46.330,0.026,0.077,0.994,0.061,-0.122,0.061, , , , , , ,4.708,-1.599,-101.179
 13:09:13.987,eb:33:2e:f9:57:b5, 2015-01-01 00:53:46.330,0.026,0.076,0.993,0.122,-0.122,0.061, , , , , , ,4.708,-1.599,-101.179
 13:09:13.987,eb:33:2e:f9:57:b5, 2015-01-01 00:53:46.330,0.026,0.077,0.994,0.122,-0.122,0.122, , , , , , ,4.708,-1.599,-101.179
 13:09:13.987,eb:33:2e:f9:57:b5, 2015-01-01 00:53:46.330,0.025,0.077,0.993,0.122,-0.122,0.061, , , , , , ,4.708,-1.599,-101.179
 13:09:13.987,eb:33:2e:f9:57:b5, 2015-01-01 00:53:46.330,0.025,0.078,0.994,0.122,-0.122,0.061, , , , , , ,4.708,-1.599,-101.179
 13:09:13.987,eb:33:2e:f9:57:b5, 2015-01-01 00:53:46.330,0.026,0.076,0.993,0.183,-0.122,0.122, , , , , , ,4.708,-1.599,-101.179
 13:09:13.987,eb:33:2e:f9:57:b5, 2015-01-01 00:53:46.330,0.026,0.076,0.994,0.244,-0.122,0.122, , , , , , ,4.708,-1.599,-101.179
 13:09:13.987,eb:33:2e:f9:57:b5, 2015-01-01 00:53:46.330,0.025,0.077,0.994,0.244,-0.122,0.122, , , , , , ,4.708,-1.599,-101.179
 13:09:14.054,eb:33:2e:f9:57:b5, 2015-01-01 00:53:46.330,0.025,0.077,0.994,0.183,-0.122,0.183, , , , , , ,4.702,-1.599,-101.179
 13:09:14.054,eb:33:2e:f9:57:b5, 2015-01-01 00:53:46.330,0.025,0.077,0.994,0.183,-0.122,0.122, , , , , , ,4.702,-1.599,-101.179
 13:09:14.054,eb:33:2e:f9:57:b5, 2015-01-01 00:53:46.330,0.025,0.077,0.993,0.183,-0.122,0.122, , , , , , ,4.702,-1.599,-101.179
 13:09:14.054,eb:33:2e:f9:57:b5, 2015-01-01 00:53:46.330,0.026,0.078,0.992,0.122,-0.183,0.122, , , , , , ,4.702,-1.599,-101.179
 13:09:14.054,eb:33:2e:f9:57:b5, 2015-01-01 00:53:46.330,0.025,0.077,0.992,0.183,-0.183,0.122, , , , , , ,4.702,-1.599,-101.179
 13:09:14.054,eb:33:2e:f9:57:b5, 2015-01-01 00:53:46.330,0.025,0.078,0.993,0.122,-0.183,0.061, , , , , , ,4.702,-1.599,-101.179
 13:09:14.054,eb:33:2e:f9:57:b5, 2015-01-01 00:53:46.330,0.025,0.078,0.993,0.122,-0.244,0.061, , , , , , ,4.702,-1.599,-101.179
 13:09:14.054,eb:33:2e:f9:57:b5, 2015-01-01 00:53:46.330,0.026,0.078,0.993,0.061,-0.183,0.061, , , , , , ,4.702,-1.599,-101.179
 13:09:14.077,eb:33:2e:f9:57:b5, 2015-01-01 00:53:46.330,0.026,0.078,0.993,0.061,-0.244,0.122, , , , , , ,4.702,-1.599,-101.179
 13:09:14.077,eb:33:2e:f9:57:b5, 2015-01-01 00:53:46.330,0.026,0.078,0.993,0.061,-0.244,0.061, , , , , , ,4.702,-1.599,-101.179
 13:09:14.077,eb:33:2e:f9:57:b5, 2015-01-01 00:53:46.330,0.026,0.077,0.993,0.061,-0.244,0.122, , , , , , ,4.702,-1.599,-101.179
 13:09:14.077,eb:33:2e:f9:57:b5, 2015-01-01 00:53:46.330,0.026,0.077,0.994,0.061,-0.183,0.061, , , , , , ,4.702,-1.599,-101.179
 13:09:14.077,eb:33:2e:f9:57:b5, 2015-01-01 00:53:46.330,0.027,0.077,0.993,0.061,-0.183,0.122, , , , , , ,4.702,-1.599,-101.179
 13:09:14.077,eb:33:2e:f9:57:b5, 2015-01-01 00:53:46.330,0.027,0.078,0.993,0.122,-0.183,0.122, , , , , , ,4.702,-1.599,-101.179
 13:09:14.077,eb:33:2e:f9:57:b5, 2015-01-01 00:53:46.330,0.026,0.078,0.994,0.061,-0.122,0.061, , , , , , ,4.702,-1.599,-101.179
 13:09:14.077,eb:33:2e:f9:57:b5, 2015-01-01 00:53:46.330,0.026,0.077,0.994,0.061,-0.061,0.122, , , , , , ,4.702,-1.599,-101.179
 13:09:14.100,eb:33:2e:f9:57:b5, 2015-01-01 00:53:46.330,0.026,0.078,0.993,0.061,-0.122,0.061, , , , , , ,4.697,-1.599,-101.179
 13:09:14.100,eb:33:2e:f9:57:b5, 2015-01-01 00:53:46.330,0.025,0.077,0.993,0.122,-0.122,0.122, , , , , , ,4.697,-1.599,-101.179
 13:09:14.100,eb:33:2e:f9:57:b5, 2015-01-01 00:53:46.330,0.026,0.078,0.993,0.061,-0.183,0.122, , , , , , ,4.697,-1.599,-101.179
 13:09:14.100,eb:33:2e:f9:57:b5, 2015-01-01 00:53:46.330,0.026,0.079,0.993,0.122,-0.183,0.122, , , , , , ,4.697,-1.599,-101.179
 13:09:14.100,eb:33:2e:f9:57:b5, 2015-01-01 00:53:46.330,0.026,0.078,0.993,0.122,-0.183,0.061, , , , , , ,4.697,-1.599,-101.179
 13:09:14.100,eb:33:2e:f9:57:b5, 2015-01-01 00:53:46.330,0.026,0.078,0.994,0.183,-0.244,0.122, , , , , , ,4.697,-1.599,-101.179
 13:09:14.100,eb:33:2e:f9:57:b5, 2015-01-01 00:53:46.330,0.025,0.078,0.993,0.122,-0.183,0.122, , , , , , ,4.697,-1.599,-101.179
 13:09:14.100,eb:33:2e:f9:57:b5, 2015-01-01 00:53:46.330,0.025,0.077,0.993,0.122,-0.244,0.061, , , , , , ,4.697,-1.599,-101.179
 13:09:14.168,eb:33:2e:f9:57:b5, 2015-01-01 00:53:46.330,0.026,0.076,0.994,0.122,-0.244,0.061, , , , , , ,4.697,-1.599,-101.179
 13:09:14.168,eb:33:2e:f9:57:b5, 2015-01-01 00:53:46.330,0.027,0.077,0.994,0.122,-0.183,0.061, , , , , , ,4.697,-1.599,-101.179
 13:09:14.168,eb:33:2e:f9:57:b5, 2015-01-01 00:53:46.330,0.027,0.078,0.995,0.122,-0.183,0.061, , , , , , ,4.697,-1.599,-101.179
 13:09:14.168,eb:33:2e:f9:57:b5, 2015-01-01 00:53:46.330,0.027,0.078,0.994,0.122,-0.183,0.061, , , , , , ,4.697,-1.599,-101.179
 13:09:14.168,eb:33:2e:f9:57:b5, 2015-01-01 00:53:46.330,0.026,0.078,0.994,0.122,-0.244,0.061, , , , , , ,4.691,-1.599,-101.179
 13:09:14.168,eb:33:2e:f9:57:b5, 2015-01-01 00:53:46.330,0.026,0.078,0.994,0.122,-0.183,0.122, , , , , , ,4.691,-1.599,-101.179
 13:09:14.168,eb:33:2e:f9:57:b5, 2015-01-01 00:53:46.330,0.026,0.077,0.995,0.183,-0.244,0.122, , , , , , ,4.691,-1.599,-101.179
 13:09:14.169,eb:33:2e:f9:57:b5, 2015-01-01 00:53:46.330,0.026,0.078,0.993,0.183,-0.244,0.122, , , , , , ,4.691,-1.599,-101.179
 13:09:14.189,eb:33:2e:f9:57:b5, 2015-01-01 00:53:46.330,0.027,0.078,0.993,0.183,-0.183,0.061, , , , , , ,4.691,-1.593,-101.179
 13:09:14.189,eb:33:2e:f9:57:b5, 2015-01-01 00:53:46.330,0.027,0.078,0.993,0.183,-0.183,0.061, , , , , , ,4.691,-1.593,-101.179
 13:09:14.189,eb:33:2e:f9:57:b5, 2015-01-01 00:53:46.330,0.026,0.077,0.993,0.122,-0.244,0.061, , , , , , ,4.691,-1.593,-101.179
 13:09:14.189,eb:33:2e:f9:57:b5, 2015-01-01 00:53:46.330,0.027,0.078,0.993,0.183,-0.244,0.122, , , , , , ,4.691,-1.593,-101.179
 13:09:14.189,eb:33:2e:f9:57:b5, 2015-01-01 00:53:46.330,0.027,0.078,0.994,0.183,-0.244,0.122, , , , , , ,4.691,-1.593,-101.179
 13:09:14.189,eb:33:2e:f9:57:b5, 2015-01-01 00:53:46.330,0.027,0.078,0.994,0.122,-0.244,0.122, , , , , , ,4.691,-1.593,-101.179
 13:09:14.189,eb:33:2e:f9:57:b5, 2015-01-01 00:53:46.330,0.028,0.078,0.993,0.122,-0.183,0.122, , , , , , ,4.691,-1.593,-101.179
 13:09:14.190,eb:33:2e:f9:57:b5, 2015-01-01 00:53:46.330,0.027,0.078,0.994,0.122,-0.122,0.061, , , , , , ,4.691,-1.593,-101.179
 13:09:14.236,eb:33:2e:f9:57:b5, 2015-01-01 00:53:46.330,0.028,0.078,0.994,0.122,-0.122,0.061, , , , , , ,4.691,-1.593,-101.179
 13:09:14.236,eb:33:2e:f9:57:b5, 2015-01-01 00:53:46.330,0.028,0.078,0.993,0.122,-0.061,0.061, , , , , , ,4.691,-1.593,-101.179
 13:09:14.236,eb:33:2e:f9:57:b5, 2015-01-01 00:53:46.330,0.027,0.078,0.994,0.122,-0.061,0.122, , , , , , ,4.691,-1.593,-101.179
 13:09:14.236,eb:33:2e:f9:57:b5, 2015-01-01 00:53:46.330,0.027,0.078,0.994,0.061,0,0.122, , , , , , ,4.691,-1.593,-101.179
 13:09:14.236,eb:33:2e:f9:57:b5, 2015-01-01 00:53:46.330,0.027,0.078,0.993,0.061,-0.061,0.061, , , , , , ,4.686,-1.593,-101.179
 13:09:14.236,eb:33:2e:f9:57:b5, 2015-01-01 00:53:46.330,0.027,0.078,0.993,0.061,0,0.061, , , , , , ,4.686,-1.593,-101.179
 13:09:14.236,eb:33:2e:f9:57:b5, 2015-01-01 00:53:46.330,0.027,0.078,0.994,0.061,-0.061,0.061, , , , , , ,4.686,-1.593,-101.179
 13:09:14.237,eb:33:2e:f9:57:b5, 2015-01-01 00:53:46.330,0.026,0.078,0.995,0.122,0,0.061, , , , , , ,4.686,-1.593,-101.179
 13:09:14.282,eb:33:2e:f9:57:b5, 2015-01-01 00:53:46.330,0.027,0.078,0.994,0.122,0,0.061, , , , , , ,4.686,-1.593,-101.179
 13:09:14.282,eb:33:2e:f9:57:b5, 2015-01-01 00:53:46.330,0.027,0.078,0.994,0.122,-0.061,0.061, , , , , , ,4.686,-1.593,-101.179
 13:09:14.282,eb:33:2e:f9:57:b5, 2015-01-01 00:53:46.330,0.026,0.078,0.995,0.061,-0.061,0.122, , , , , , ,4.686,-1.593,-101.179
 13:09:14.282,eb:33:2e:f9:57:b5, 2015-01-01 00:53:46.330,0.026,0.078,0.994,0.061,-0.061,0.061, , , , , , ,4.686,-1.593,-101.179
 13:09:14.282,eb:33:2e:f9:57:b5, 2015-01-01 00:53:46.330,0.026,0.078,0.993,0.061,-0.122,0.122, , , , , , ,4.686,-1.593,-101.179
 13:09:14.282,eb:33:2e:f9:57:b5, 2015-01-01 00:53:46.330,0.027,0.078,0.994,0.061,-0.183,0.122, , , , , , ,4.686,-1.593,-101.179
 13:09:14.282,eb:33:2e:f9:57:b5, 2015-01-01 00:53:46.330,0.027,0.079,0.993,0.061,-0.183,0.122, , , , , , ,4.686,-1.593,-101.179
 13:09:14.283,eb:33:2e:f9:57:b5, 2015-01-01 00:53:46.330,0.028,0.078,0.993,0.122,-0.122,0.061, , , , , , ,4.686,-1.593,-101.179
 13:09:14.302,eb:33:2e:f9:57:b5, 2015-01-01 00:53:46.685,0.027,0.078,0.994,0.122,-0.122,0.122, , , , , , ,4.686,-1.593,-101.179
 13:09:14.302,eb:33:2e:f9:57:b5, 2015-01-01 00:53:46.685,0.028,0.078,0.993,0.122,-0.061,0.122, , , , , , ,4.686,-1.593,-101.179
 13:09:14.302,eb:33:2e:f9:57:b5, 2015-01-01 00:53:46.685,0.027,0.077,0.993,0.122,-0.061,0.061, , , , , , ,4.686,-1.593,-101.179
 13:09:14.302,eb:33:2e:f9:57:b5, 2015-01-01 00:53:46.685,0.027,0.078,0.993,0.122,-0.061,0.122, , , , , , ,4.686,-1.593,-101.179
 13:09:14.302,eb:33:2e:f9:57:b5, 2015-01-01 00:53:46.685,0.027,0.078,0.993,0.061,-0.061,0.122, , , , , , ,4.68,-1.593,-101.179
 13:09:14.302,eb:33:2e:f9:57:b5, 2015-01-01 00:53:46.685,0.027,0.078,0.993,0.061,-0.061,0.122, , , , , , ,4.68,-1.593,-101.179
 13:09:14.302,eb:33:2e:f9:57:b5, 2015-01-01 00:53:46.685,0.027,0.078,0.993,0,-0.061,0.061, , , , , , ,4.68,-1.593,-101.179
 13:09:14.302,eb:33:2e:f9:57:b5, 2015-01-01 00:53:46.685,0.027,0.079,0.992,0.061,-0.061,0.122, , , , , , ,4.68,-1.593,-101.179
 13:09:14.349,eb:33:2e:f9:57:b5, 2015-01-01 00:53:46.685,0.027,0.078,0.992,0,-0.061,0.061, , , , , , ,4.68,-1.593,-101.179
 13:09:14.349,eb:33:2e:f9:57:b5, 2015-01-01 00:53:46.685,0.027,0.078,0.992,0,-0.122,0.061, , , , , , ,4.68,-1.593,-101.184
 13:09:14.349,eb:33:2e:f9:57:b5, 2015-01-01 00:53:46.685,0.027,0.078,0.992,0,-0.061,0.122, , , , , , ,4.68,-1.593,-101.184
 13:09:14.349,eb:33:2e:f9:57:b5, 2015-01-01 00:53:46.685,0.027,0.079,0.993,0,-0.061,0.122, , , , , , ,4.68,-1.593,-101.184
 13:09:14.349,eb:33:2e:f9:57:b5, 2015-01-01 00:53:46.685,0.027,0.079,0.993,0,-0.061,0.122, , , , , , ,4.68,-1.593,-101.184
 13:09:14.349,eb:33:2e:f9:57:b5, 2015-01-01 00:53:46.685,0.027,0.078,0.993,0,-0.061,0.122, , , , , , ,4.68,-1.593,-101.184
 13:09:14.349,eb:33:2e:f9:57:b5, 2015-01-01 00:53:46.685,0.026,0.078,0.993,-0.061,-0.061,0.122, , , , , , ,4.68,-1.593,-101.184
 13:09:14.349,eb:33:2e:f9:57:b5, 2015-01-01 00:53:46.685,0.026,0.078,0.994,-0.061,-0.061,0.183, , , , , , ,4.68,-1.593,-101.184
 13:09:14.394,eb:33:2e:f9:57:b5, 2015-01-01 00:53:46.685,0.027,0.078,0.993,0,-0.061,0.122, , , , , , ,4.68,-1.593,-101.184
 13:09:14.394,eb:33:2e:f9:57:b5, 2015-01-01 00:53:46.685,0.027,0.078,0.992,-0.061,-0.061,0.183, , , , , , ,4.68,-1.593,-101.184
 13:09:14.394,eb:33:2e:f9:57:b5, 2015-01-01 00:53:46.685,0.027,0.078,0.993,-0.061,-0.061,0.122, , , , , , ,4.68,-1.593,-101.184
 13:09:14.394,eb:33:2e:f9:57:b5, 2015-01-01 00:53:46.685,0.027,0.078,0.993,0,-0.122,0.122, , , , , , ,4.68,-1.593,-101.184
 13:09:14.394,eb:33:2e:f9:57:b5, 2015-01-01 00:53:46.685,0.027,0.078,0.993,-0.061,-0.122,0.183, , , , , , ,4.675,-1.593,-101.184
 13:09:14.394,eb:33:2e:f9:57:b5, 2015-01-01 00:53:46.685,0.027,0.078,0.994,-0.061,-0.122,0.183, , , , , , ,4.675,-1.593,-101.184
 13:09:14.394,eb:33:2e:f9:57:b5, 2015-01-01 00:53:46.685,0.027,0.078,0.993,-0.122,-0.183,0.244, , , , , , ,4.675,-1.593,-101.184
 13:09:14.394,eb:33:2e:f9:57:b5, 2015-01-01 00:53:46.685,0.027,0.078,0.993,-0.122,-0.244,0.183, , , , , , ,4.675,-1.593,-101.184
 13:09:14.439,eb:33:2e:f9:57:b5, 2015-01-01 00:53:46.685,0.026,0.078,0.992,-0.061,-0.244,0.183, , , , , , ,4.675,-1.588,-101.184
 13:09:14.439,eb:33:2e:f9:57:b5, 2015-01-01 00:53:46.685,0.026,0.077,0.993,-0.061,-0.305,0.244, , , , , , ,4.675,-1.588,-101.184
 13:09:14.439,eb:33:2e:f9:57:b5, 2015-01-01 00:53:46.685,0.027,0.077,0.992,-0.122,-0.427,0.305, , , , , , ,4.675,-1.588,-101.184
 13:09:14.439,eb:33:2e:f9:57:b5, 2015-01-01 00:53:46.685,0.027,0.078,0.992,-0.061,-0.488,0.305, , , , , , ,4.675,-1.588,-101.184
 13:09:14.439,eb:33:2e:f9:57:b5, 2015-01-01 00:53:46.685,0.026,0.077,0.992,-0.061,-0.61,0.366, , , , , , ,4.675,-1.588,-101.184
 13:09:14.439,eb:33:2e:f9:57:b5, 2015-01-01 00:53:46.685,0.027,0.076,0.992,-0.061,-0.732,0.427, , , , , , ,4.675,-1.588,-101.184
 13:09:14.441,eb:33:2e:f9:57:b5, 2015-01-01 00:53:46.685,0.028,0.078,0.992,-0.061,-0.732,0.488, , , , , , ,4.675,-1.588,-101.184
 13:09:14.441,eb:33:2e:f9:57:b5, 2015-01-01 00:53:46.685,0.027,0.079,0.994,-0.061,-0.732,0.488, , , , , , ,4.675,-1.588,-101.184
 13:09:14.483,eb:33:2e:f9:57:b5, 2015-01-01 00:53:46.685,0.027,0.078,0.993,-0.061,-0.854,0.427, , , , , , ,4.675,-1.588,-101.184
 13:09:14.483,eb:33:2e:f9:57:b5, 2015-01-01 00:53:46.685,0.026,0.077,0.992,-0.061,-0.854,0.488, , , , , , ,4.675,-1.588,-101.184
 13:09:14.483,eb:33:2e:f9:57:b5, 2015-01-01 00:53:46.685,0.028,0.077,0.992,-0.061,-0.854,0.488, , , , , , ,4.675,-1.588,-101.184
 13:09:14.483,eb:33:2e:f9:57:b5, 2015-01-01 00:53:46.685,0.028,0.077,0.993,-0.061,-0.977,0.549, , , , , , ,4.675,-1.588,-101.184
 13:09:14.483,eb:33:2e:f9:57:b5, 2015-01-01 00:53:46.685,0.028,0.077,0.994,-0.061,-1.038,0.549, , , , , , ,4.669,-1.588,-101.184
 13:09:14.483,eb:33:2e:f9:57:b5, 2015-01-01 00:53:46.685,0.028,0.078,0.993,-0.061,-1.038,0.488, , , , , , ,4.669,-1.588,-101.184
 13:09:14.483,eb:33:2e:f9:57:b5, 2015-01-01 00:53:46.685,0.03,0.078,0.994,-0.061,-1.099,0.488, , , , , , ,4.669,-1.588,-101.184
 13:09:14.483,eb:33:2e:f9:57:b5, 2015-01-01 00:53:46.685,0.029,0.079,0.994,-0.122,-0.977,0.488, , , , , , ,4.669,-1.588,-101.184
 13:09:14.505,eb:33:2e:f9:57:b5, 2015-01-01 00:53:46.685,0.028,0.078,0.994,-0.061,-0.977,0.488, , , , , , ,4.669,-1.588,-101.184
 13:09:14.505,eb:33:2e:f9:57:b5, 2015-01-01 00:53:46.685,0.029,0.078,0.993,-0.122,-0.977,0.427, , , , , , ,4.669,-1.588,-101.184
 13:09:14.505,eb:33:2e:f9:57:b5, 2015-01-01 00:53:46.685,0.03,0.079,0.994,-0.061,-0.916,0.366, , , , , , ,4.669,-1.588,-101.184
 13:09:14.505,eb:33:2e:f9:57:b5, 2015-01-01 00:53:46.685,0.03,0.079,0.994,-0.122,-0.854,0.305, , , , , , ,4.669,-1.588,-101.184
 13:09:14.505,eb:33:2e:f9:57:b5, 2015-01-01 00:53:46.685,0.03,0.079,0.993,-0.122,-0.793,0.366, , , , , , ,4.669,-1.588,-101.184
 13:09:14.505,eb:33:2e:f9:57:b5, 2015-01-01 00:53:46.685,0.03,0.078,0.994,-0.183,-0.793,0.244, , , , , , ,4.669,-1.588,-101.184
 13:09:14.505,eb:33:2e:f9:57:b5, 2015-01-01 00:53:46.685,0.031,0.079,0.994,-0.122,-0.671,0.183, , , , , , ,4.669,-1.588,-101.184
 13:09:14.505,eb:33:2e:f9:57:b5, 2015-01-01 00:53:46.685,0.031,0.079,0.994,-0.183,-0.549,0.183, , , , , , ,4.669,-1.588,-101.184
 13:09:14.549,eb:33:2e:f9:57:b5, 2015-01-01 00:53:46.685,0.03,0.078,0.994,-0.244,-0.427,0.122, , , , , , ,4.669,-1.588,-101.184
 13:09:14.549,eb:33:2e:f9:57:b5, 2015-01-01 00:53:46.685,0.03,0.078,0.994,-0.305,-0.305,0.122, , , , , , ,4.669,-1.588,-101.184
 13:09:14.549,eb:33:2e:f9:57:b5, 2015-01-01 00:53:46.685,0.031,0.079,0.993,-0.305,-0.244,0.061, , , , , , ,4.669,-1.588,-101.184
 13:09:14.549,eb:33:2e:f9:57:b5, 2015-01-01 00:53:46.685,0.03,0.078,0.993,-0.305,-0.122,0.061, , , , , , ,4.669,-1.588,-101.184
 13:09:14.549,eb:33:2e:f9:57:b5, 2015-01-01 00:53:46.685,0.029,0.078,0.992,-0.305,-0.061,0.061, , , , , , ,4.669,-1.588,-101.184
 13:09:14.549,eb:33:2e:f9:57:b5, 2015-01-01 00:53:46.685,0.029,0.077,0.992,-0.305,-0.061,0.061, , , , , , ,4.669,-1.588,-101.184
 13:09:14.549,eb:33:2e:f9:57:b5, 2015-01-01 00:53:46.685,0.028,0.077,0.992,-0.366,-0.122,0.061, , , , , , ,4.669,-1.588,-101.184
 13:09:14.549,eb:33:2e:f9:57:b5, 2015-01-01 00:53:46.685,0.028,0.077,0.992,-0.305,-0.244,0.061, , , , , , ,4.669,-1.588,-101.184
 13:09:14.595,eb:33:2e:f9:57:b5, 2015-01-01 00:53:46.685,0.028,0.076,0.992,-0.366,-0.366,0, , , , , , ,4.664,-1.588,-101.184
 13:09:14.595,eb:33:2e:f9:57:b5, 2015-01-01 00:53:46.685,0.028,0.076,0.993,-0.366,-0.366,0, , , , , , ,4.664,-1.588,-101.184
 13:09:14.595,eb:33:2e:f9:57:b5, 2015-01-01 00:53:46.685,0.029,0.077,0.993,-0.366,-0.488,0, , , , , , ,4.664,-1.588,-101.184
 13:09:14.595,eb:33:2e:f9:57:b5, 2015-01-01 00:53:46.685,0.028,0.076,0.993,-0.305,-0.549,0, , , , , , ,4.664,-1.588,-101.184
 13:09:14.595,eb:33:2e:f9:57:b5, 2015-01-01 00:53:46.685,0.029,0.076,0.994,-0.244,-0.61,0.061, , , , , , ,4.664,-1.588,-101.184
 13:09:14.595,eb:33:2e:f9:57:b5, 2015-01-01 00:53:46.685,0.03,0.076,0.993,-0.183,-0.671,0.061, , , , , , ,4.664,-1.588,-101.184
 13:09:14.595,eb:33:2e:f9:57:b5, 2015-01-01 00:53:46.685,0.03,0.076,0.994,-0.183,-0.671,0.122, , , , , , ,4.664,-1.588,-101.184
 13:09:14.595,eb:33:2e:f9:57:b5, 2015-01-01 00:53:46.685,0.03,0.077,0.995,-0.183,-0.61,0.061, , , , , , ,4.664,-1.588,-101.184
 13:09:14.640,eb:33:2e:f9:57:b5, 2015-01-01 00:53:47.000,0.03,0.077,0.995,-0.122,-0.549,0, , , , , , ,4.647,-1.588,-101.184
 13:09:14.640,eb:33:2e:f9:57:b5, 2015-01-01 00:53:47.000,0.03,0.077,0.994,-0.122,-0.549,0.061, , , , , , ,4.647,-1.588,-101.184
 13:09:14.640,eb:33:2e:f9:57:b5, 2015-01-01 00:53:47.000,0.03,0.077,0.994,-0.122,-0.549,0.061, , , , , , ,4.647,-1.588,-101.19
 13:09:14.640,eb:33:2e:f9:57:b5, 2015-01-01 00:53:47.000,0.03,0.076,0.994,-0.061,-0.549,0.061, , , , , , ,4.647,-1.588,-101.19
 13:09:14.641,eb:33:2e:f9:57:b5, 2015-01-01 00:53:47.000,0.029,0.077,0.995,0,-0.488,0, , , , , , ,4.642,-1.588,-101.19
 13:09:14.641,eb:33:2e:f9:57:b5, 2015-01-01 00:53:47.000,0.03,0.077,0.994,0,-0.427,0.061, , , , , , ,4.642,-1.588,-101.19
 13:09:14.641,eb:33:2e:f9:57:b5, 2015-01-01 00:53:47.000,0.031,0.077,0.994,0,-0.427,0.061, , , , , , ,4.642,-1.588,-101.19
 13:09:14.641,eb:33:2e:f9:57:b5, 2015-01-01 00:53:47.000,0.03,0.076,0.994,0.061,-0.427,0.061, , , , , , ,4.642,-1.588,-101.19
 13:09:14.666,eb:33:2e:f9:57:b5, 2015-01-01 00:53:47.000,0.029,0.077,0.993,0.122,-0.427,0.061, , , , , , ,4.642,-1.588,-101.19
 13:09:14.666,eb:33:2e:f9:57:b5, 2015-01-01 00:53:47.000,0.028,0.077,0.993,0.122,-0.488,0, , , , , , ,4.642,-1.588,-101.19
 13:09:14.666,eb:33:2e:f9:57:b5, 2015-01-01 00:53:47.000,0.03,0.076,0.992,0.061,-0.61,0, , , , , , ,4.642,-1.588,-101.195
 13:09:14.666,eb:33:2e:f9:57:b5, 2015-01-01 00:53:47.000,0.031,0.077,0.993,0.122,-0.61,0.061, , , , , , ,4.642,-1.588,-101.195
 13:09:14.666,eb:33:2e:f9:57:b5, 2015-01-01 00:53:47.000,0.03,0.076,0.994,0.122,-0.549,0.061, , , , , , ,4.642,-1.588,-101.195
 13:09:14.666,eb:33:2e:f9:57:b5, 2015-01-01 00:53:47.000,0.029,0.077,0.993,0.183,-0.671,0.183, , , , , , ,4.642,-1.588,-101.195
 13:09:14.666,eb:33:2e:f9:57:b5, 2015-01-01 00:53:47.000,0.03,0.077,0.993,0.183,-0.671,0.183, , , , , , ,4.642,-1.588,-101.195
 13:09:14.666,eb:33:2e:f9:57:b5, 2015-01-01 00:53:47.000,0.03,0.077,0.993,0.122,-0.732,0.244, , , , , , ,4.642,-1.588,-101.195
 13:09:14.708,eb:33:2e:f9:57:b5, 2015-01-01 00:53:47.000,0.031,0.076,0.993,0.122,-0.793,0.183, , , , , , ,4.642,-1.588,-101.195
 13:09:14.708,eb:33:2e:f9:57:b5, 2015-01-01 00:53:47.000,0.031,0.077,0.994,0.183,-0.793,0.183, , , , , , ,4.642,-1.588,-101.195
 13:09:14.708,eb:33:2e:f9:57:b5, 2015-01-01 00:53:47.000,0.031,0.077,0.993,0.122,-0.793,0.183, , , , , , ,4.642,-1.588,-101.201
 13:09:14.708,eb:33:2e:f9:57:b5, 2015-01-01 00:53:47.000,0.032,0.077,0.994,0.122,-0.793,0.244, , , , , , ,4.642,-1.588,-101.201
 13:09:14.708,eb:33:2e:f9:57:b5, 2015-01-01 00:53:47.000,0.031,0.077,0.995,0.122,-0.732,0.122, , , , , , ,4.642,-1.588,-101.201
 13:09:14.708,eb:33:2e:f9:57:b5, 2015-01-01 00:53:47.000,0.031,0.077,0.994,0.183,-0.671,0.183, , , , , , ,4.642,-1.588,-101.201
 13:09:14.708,eb:33:2e:f9:57:b5, 2015-01-01 00:53:47.000,0.032,0.077,0.995,0.183,-0.671,0.183, , , , , , ,4.642,-1.588,-101.206
 13:09:14.709,eb:33:2e:f9:57:b5, 2015-01-01 00:53:47.000,0.033,0.077,0.996,0.122,-0.61,0.183, , , , , , ,4.642,-1.588,-101.206
 13:09:14.752,eb:33:2e:f9:57:b5, 2015-01-01 00:53:47.000,0.033,0.077,0.995,0.183,-0.427,0.183, , , , , , ,4.642,-1.588,-101.206
 13:09:14.752,eb:33:2e:f9:57:b5, 2015-01-01 00:53:47.000,0.032,0.077,0.996,0.244,-0.305,0.183, , , , , , ,4.642,-1.588,-101.206
 13:09:14.752,eb:33:2e:f9:57:b5, 2015-01-01 00:53:47.000,0.032,0.076,0.995,0.305,-0.183,0.122, , , , , , ,4.642,-1.588,-101.206
 13:09:14.752,eb:33:2e:f9:57:b5, 2015-01-01 00:53:47.000,0.032,0.077,0.995,0.305,-0.244,0.122, , , , , , ,4.642,-1.588,-101.206
 13:09:14.752,eb:33:2e:f9:57:b5, 2015-01-01 00:53:47.000,0.033,0.078,0.995,0.305,-0.122,0.122, , , , , , ,4.636,-1.593,-101.206
 13:09:14.752,eb:33:2e:f9:57:b5, 2015-01-01 00:53:47.000,0.032,0.077,0.995,0.305,-0.061,0.122, , , , , , ,4.636,-1.593,-101.206
 13:09:14.752,eb:33:2e:f9:57:b5, 2015-01-01 00:53:47.000,0.032,0.076,0.993,0.244,0,0.122, , , , , , ,4.642,-1.593,-101.212
 13:09:14.752,eb:33:2e:f9:57:b5, 2015-01-01 00:53:47.000,0.032,0.077,0.993,0.305,0,0.122, , , , , , ,4.642,-1.593,-101.212
 13:09:14.799,eb:33:2e:f9:57:b5, 2015-01-01 00:53:47.000,0.031,0.077,0.993,0.305,0,0.061, , , , , , ,4.636,-1.593,-101.212
 13:09:14.799,eb:33:2e:f9:57:b5, 2015-01-01 00:53:47.000,0.033,0.077,0.994,0.305,0,0.122, , , , , , ,4.636,-1.593,-101.212
 13:09:14.799,eb:33:2e:f9:57:b5, 2015-01-01 00:53:47.000,0.033,0.077,0.995,0.305,0.061,0.122, , , , , , ,4.636,-1.593,-101.212
 13:09:14.799,eb:33:2e:f9:57:b5, 2015-01-01 00:53:47.000,0.032,0.077,0.994,0.366,0.122,0.061, , , , , , ,4.636,-1.593,-101.212
 13:09:14.799,eb:33:2e:f9:57:b5, 2015-01-01 00:53:47.000,0.032,0.076,0.994,0.427,0.122,0.183, , , , , , ,4.636,-1.593,-101.212
 13:09:14.799,eb:33:2e:f9:57:b5, 2015-01-01 00:53:47.000,0.032,0.076,0.994,0.488,0.122,0.122, , , , , , ,4.636,-1.593,-101.212
 13:09:14.799,eb:33:2e:f9:57:b5, 2015-01-01 00:53:47.000,0.032,0.076,0.994,0.61,0.183,0.122, , , , , , ,4.636,-1.593,-101.217
 13:09:14.799,eb:33:2e:f9:57:b5, 2015-01-01 00:53:47.000,0.032,0.077,0.994,0.61,0.244,0.183, , , , , , ,4.636,-1.593,-101.217
 13:09:14.842,eb:33:2e:f9:57:b5, 2015-01-01 00:53:47.000,0.032,0.077,0.994,0.671,0.305,0.183, , , , , , ,4.636,-1.593,-101.217
 13:09:14.842,eb:33:2e:f9:57:b5, 2015-01-01 00:53:47.000,0.033,0.077,0.995,0.732,0.366,0.122, , , , , , ,4.636,-1.593,-101.217
 13:09:14.842,eb:33:2e:f9:57:b5, 2015-01-01 00:53:47.000,0.031,0.078,0.995,0.793,0.366,0.122, , , , , , ,4.636,-1.593,-101.217
 13:09:14.842,eb:33:2e:f9:57:b5, 2015-01-01 00:53:47.000,0.03,0.079,0.994,0.732,0.366,0.122, , , , , , ,4.636,-1.593,-101.217
 13:09:14.842,eb:33:2e:f9:57:b5, 2015-01-01 00:53:47.000,0.03,0.079,0.993,0.732,0.366,0.122, , , , , , ,4.636,-1.599,-101.217
 13:09:14.843,eb:33:2e:f9:57:b5, 2015-01-01 00:53:47.000,0.03,0.078,0.993,0.671,0.305,0.122, , , , , , ,4.636,-1.599,-101.217
 13:09:14.843,eb:33:2e:f9:57:b5, 2015-01-01 00:53:47.000,0.031,0.078,0.994,0.671,0.244,0.122, , , , , , ,4.636,-1.599,-101.223
 13:09:14.843,eb:33:2e:f9:57:b5, 2015-01-01 00:53:47.000,0.032,0.078,0.994,0.671,0.366,0.122, , , , , , ,4.636,-1.599,-101.223
 13:09:14.865,eb:33:2e:f9:57:b5, 2015-01-01 00:53:47.000,0.03,0.078,0.994,0.61,0.305,0.061, , , , , , ,4.636,-1.599,-101.223
 13:09:14.865,eb:33:2e:f9:57:b5, 2015-01-01 00:53:47.000,0.03,0.08,0.992,0.549,0.305,0.061, , , , , , ,4.636,-1.599,-101.223
 13:09:14.865,eb:33:2e:f9:57:b5, 2015-01-01 00:53:47.000,0.03,0.079,0.992,0.488,0.244,0.061, , , , , , ,4.636,-1.599,-101.223
 13:09:14.865,eb:33:2e:f9:57:b5, 2015-01-01 00:53:47.000,0.032,0.078,0.993,0.549,0.183,0.122, , , , , , ,4.636,-1.599,-101.223
 13:09:14.865,eb:33:2e:f9:57:b5, 2015-01-01 00:53:47.000,0.032,0.078,0.993,0.488,0.183,0.061, , , , , , ,4.636,-1.599,-101.223
 13:09:14.865,eb:33:2e:f9:57:b5, 2015-01-01 00:53:47.000,0.031,0.079,0.993,0.488,0.183,0.061, , , , , , ,4.636,-1.599,-101.223
 13:09:14.865,eb:33:2e:f9:57:b5, 2015-01-01 00:53:47.000,0.031,0.079,0.992,0.488,0.183,0.061, , , , , , ,4.636,-1.599,-101.228
 13:09:14.865,eb:33:2e:f9:57:b5, 2015-01-01 00:53:47.000,0.031,0.078,0.993,0.427,0.122,0.061, , , , , , ,4.636,-1.599,-101.228
 13:09:14.910,eb:33:2e:f9:57:b5, 2015-01-01 00:53:47.000,0.031,0.078,0.993,0.366,0.183,0, , , , , , ,4.636,-1.599,-101.228
 13:09:14.911,eb:33:2e:f9:57:b5, 2015-01-01 00:53:47.000,0.031,0.079,0.992,0.305,0.183,0, , , , , , ,4.636,-1.599,-101.228
 13:09:14.911,eb:33:2e:f9:57:b5, 2015-01-01 00:53:47.000,0.031,0.08,0.992,0.244,0.244,0, , , , , , ,4.636,-1.599,-101.228
 13:09:14.911,eb:33:2e:f9:57:b5, 2015-01-01 00:53:47.000,0.031,0.08,0.992,0.183,0.244,0.061, , , , , , ,4.636,-1.599,-101.228
 13:09:14.911,eb:33:2e:f9:57:b5, 2015-01-01 00:53:47.000,0.031,0.079,0.992,0.122,0.183,0.061, , , , , , ,4.636,-1.599,-101.228
 13:09:14.911,eb:33:2e:f9:57:b5, 2015-01-01 00:53:47.000,0.031,0.078,0.992,0.122,0.122,0, , , , , , ,4.636,-1.599,-101.228
 13:09:14.913,eb:33:2e:f9:57:b5, 2015-01-01 00:53:47.000,0.032,0.079,0.992,0.061,0.183,0.061, , , , , , ,4.636,-1.599,-101.234
 13:09:14.913,eb:33:2e:f9:57:b5, 2015-01-01 00:53:47.000,0.031,0.078,0.993,0.061,0.122,0.061, , , , , , ,4.636,-1.599,-101.234
 13:09:14.955,eb:33:2e:f9:57:b5, 2015-01-01 00:53:47.290,0.03,0.079,0.992,0.061,0.122,0.061, , , , , , ,4.636,-1.604,-101.234
 13:09:14.955,eb:33:2e:f9:57:b5, 2015-01-01 00:53:47.290,0.03,0.078,0.992,0,0.183,0, , , , , , ,4.636,-1.604,-101.234
 13:09:14.955,eb:33:2e:f9:57:b5, 2015-01-01 00:53:47.290,0.03,0.078,0.993,0.061,0.122,0.061, , , , , , ,4.636,-1.604,-101.234
 13:09:14.955,eb:33:2e:f9:57:b5, 2015-01-01 00:53:47.290,0.03,0.078,0.992,0,0.061,0.122, , , , , , ,4.636,-1.604,-101.234
 13:09:14.955,eb:33:2e:f9:57:b5, 2015-01-01 00:53:47.290,0.03,0.078,0.992,0,0,0.061, , , , , , ,4.631,-1.604,-101.234
 13:09:14.955,eb:33:2e:f9:57:b5, 2015-01-01 00:53:47.290,0.031,0.078,0.993,0,0,0.122, , , , , , ,4.631,-1.604,-101.234
 13:09:14.955,eb:33:2e:f9:57:b5, 2015-01-01 00:53:47.290,0.031,0.079,0.993,0,0.061,0.122, , , , , , ,4.636,-1.604,-101.239
 13:09:14.956,eb:33:2e:f9:57:b5, 2015-01-01 00:53:47.290,0.031,0.078,0.992,0,0,0.061, , , , , , ,4.636,-1.604,-101.239
 13:09:15.001,eb:33:2e:f9:57:b5, 2015-01-01 00:53:47.290,0.031,0.078,0.993,0,0,0.061, , , , , , ,4.631,-1.604,-101.239
 13:09:15.001,eb:33:2e:f9:57:b5, 2015-01-01 00:53:47.290,0.031,0.079,0.993,0,0,0.061, , , , , , ,4.631,-1.604,-101.239
 13:09:15.001,eb:33:2e:f9:57:b5, 2015-01-01 00:53:47.290,0.031,0.079,0.993,0,0,0.061, , , , , , ,4.631,-1.604,-101.245
 13:09:15.001,eb:33:2e:f9:57:b5, 2015-01-01 00:53:47.290,0.031,0.079,0.993,0,0.061,0.061, , , , , , ,4.631,-1.604,-101.245
 13:09:15.001,eb:33:2e:f9:57:b5, 2015-01-01 00:53:47.290,0.031,0.079,0.992,0,0.061,0.061, , , , , , ,4.631,-1.604,-101.245
 13:09:15.001,eb:33:2e:f9:57:b5, 2015-01-01 00:53:47.290,0.031,0.079,0.992,0,0.061,0.061, , , , , , ,4.631,-1.604,-101.245
 13:09:15.001,eb:33:2e:f9:57:b5, 2015-01-01 00:53:47.290,0.031,0.078,0.993,0,0.061,0.061, , , , , , ,4.631,-1.604,-101.245
 13:09:15.001,eb:33:2e:f9:57:b5, 2015-01-01 00:53:47.290,0.031,0.078,0.993,-0.061,0,0.061, , , , , , ,4.631,-1.604,-101.245
 13:09:15.045,eb:33:2e:f9:57:b5, 2015-01-01 00:53:47.290,0.031,0.078,0.994,0,0,0.061, , , , , , ,4.631,-1.604,-101.245
 13:09:15.045,eb:33:2e:f9:57:b5, 2015-01-01 00:53:47.290,0.03,0.079,0.994,0,0,0, , , , , , ,4.631,-1.604,-101.245
 13:09:15.045,eb:33:2e:f9:57:b5, 2015-01-01 00:53:47.290,0.03,0.079,0.993,0,0,0, , , , , , ,4.631,-1.604,-101.25
 13:09:15.045,eb:33:2e:f9:57:b5, 2015-01-01 00:53:47.290,0.031,0.079,0.993,-0.061,0,0, , , , , , ,4.631,-1.604,-101.25
 13:09:15.045,eb:33:2e:f9:57:b5, 2015-01-01 00:53:47.290,0.031,0.079,0.994,-0.061,0,0, , , , , , ,4.631,-1.604,-101.25
 13:09:15.045,eb:33:2e:f9:57:b5, 2015-01-01 00:53:47.290,0.03,0.079,0.994,-0.061,0,0, , , , , , ,4.631,-1.604,-101.25
 13:09:15.046,eb:33:2e:f9:57:b5, 2015-01-01 00:53:47.290,0.031,0.079,0.992,-0.061,0,0, , , , , , ,4.631,-1.604,-101.25
 13:09:15.046,eb:33:2e:f9:57:b5, 2015-01-01 00:53:47.290,0.031,0.079,0.993,-0.061,0.061,-0.061, , , , , , ,4.631,-1.604,-101.25
 13:09:15.068,eb:33:2e:f9:57:b5, 2015-01-01 00:53:47.290,0.032,0.078,0.994,-0.122,0.122,0, , , , , , ,4.631,-1.609,-101.25
 13:09:15.068,eb:33:2e:f9:57:b5, 2015-01-01 00:53:47.290,0.031,0.079,0.995,-0.061,0.183,-0.061, , , , , , ,4.631,-1.609,-101.25
 13:09:15.068,eb:33:2e:f9:57:b5, 2015-01-01 00:53:47.290,0.031,0.078,0.993,-0.061,0.183,-0.061, , , , , , ,4.631,-1.609,-101.255
 13:09:15.068,eb:33:2e:f9:57:b5, 2015-01-01 00:53:47.290,0.031,0.079,0.993,0,0.183,-0.061, , , , , , ,4.631,-1.609,-101.255
 13:09:15.068,eb:33:2e:f9:57:b5, 2015-01-01 00:53:47.290,0.031,0.078,0.993,0,0.183,-0.122, , , , , , ,4.631,-1.609,-101.255
 13:09:15.068,eb:33:2e:f9:57:b5, 2015-01-01 00:53:47.290,0.031,0.078,0.995,0,0.244,-0.061, , , , , , ,4.631,-1.609,-101.255
 13:09:15.068,eb:33:2e:f9:57:b5, 2015-01-01 00:53:47.290,0.03,0.077,0.995,0.061,0.366,-0.183, , , , , , ,4.631,-1.609,-101.255
 13:09:15.068,eb:33:2e:f9:57:b5, 2015-01-01 00:53:47.290,0.03,0.078,0.995,0.061,0.305,-0.122, , , , , , ,4.631,-1.609,-101.255
 13:09:15.113,eb:33:2e:f9:57:b5, 2015-01-01 00:53:47.290,0.03,0.078,0.994,0.061,0.305,-0.122, , , , , , ,4.631,-1.609,-101.255
 13:09:15.113,eb:33:2e:f9:57:b5, 2015-01-01 00:53:47.290,0.03,0.077,0.994,0.122,0.244,-0.183, , , , , , ,4.631,-1.609,-101.255
 13:09:15.113,eb:33:2e:f9:57:b5, 2015-01-01 00:53:47.290,0.03,0.078,0.994,0.183,0.366,-0.122, , , , , , ,4.631,-1.609,-101.261
 13:09:15.113,eb:33:2e:f9:57:b5, 2015-01-01 00:53:47.290,0.03,0.078,0.994,0.244,0.305,-0.122, , , , , , ,4.631,-1.609,-101.261
 13:09:15.113,eb:33:2e:f9:57:b5, 2015-01-01 00:53:47.290,0.029,0.079,0.993,0.183,0.244,-0.122, , , , , , ,4.631,-1.609,-101.261
 13:09:15.113,eb:33:2e:f9:57:b5, 2015-01-01 00:53:47.290,0.029,0.079,0.993,0.183,0.183,-0.122, , , , , , ,4.631,-1.609,-101.261
 13:09:15.113,eb:33:2e:f9:57:b5, 2015-01-01 00:53:47.290,0.029,0.078,0.993,0.122,0.122,-0.122, , , , , , ,4.631,-1.609,-101.261
 13:09:15.113,eb:33:2e:f9:57:b5, 2015-01-01 00:53:47.290,0.031,0.079,0.993,0.122,0.061,-0.183, , , , , , ,4.631,-1.609,-101.261
 13:09:15.157,eb:33:2e:f9:57:b5, 2015-01-01 00:53:47.290,0.031,0.079,0.993,0.122,0.122,-0.183, , , , , , ,4.631,-1.609,-101.261
 13:09:15.157,eb:33:2e:f9:57:b5, 2015-01-01 00:53:47.290,0.031,0.079,0.994,0.122,0.122,-0.122, , , , , , ,4.631,-1.609,-101.261
 13:09:15.157,eb:33:2e:f9:57:b5, 2015-01-01 00:53:47.290,0.031,0.079,0.994,0.122,0.183,-0.122, , , , , , ,4.631,-1.609,-101.266
 13:09:15.157,eb:33:2e:f9:57:b5, 2015-01-01 00:53:47.290,0.031,0.079,0.993,0.061,0.244,-0.122, , , , , , ,4.631,-1.609,-101.266
 13:09:15.157,eb:33:2e:f9:57:b5, 2015-01-01 00:53:47.290,0.031,0.079,0.994,0,0.305,-0.183, , , , , , ,4.631,-1.609,-101.266
 13:09:15.157,eb:33:2e:f9:57:b5, 2015-01-01 00:53:47.290,0.031,0.078,0.995,0.061,0.305,-0.183, , , , , , ,4.631,-1.609,-101.266
 13:09:15.157,eb:33:2e:f9:57:b5, 2015-01-01 00:53:47.290,0.031,0.078,0.995,0.061,0.427,-0.183, , , , , , ,4.631,-1.609,-101.266
 13:09:15.157,eb:33:2e:f9:57:b5, 2015-01-01 00:53:47.290,0.03,0.078,0.994,0.122,0.549,-0.183, , , , , , ,4.631,-1.609,-101.266
 13:09:15.203,eb:33:2e:f9:57:b5, 2015-01-01 00:53:47.290,0.03,0.078,0.994,0.122,0.671,-0.244, , , , , , ,4.631,-1.609,-101.266
 13:09:15.203,eb:33:2e:f9:57:b5, 2015-01-01 00:53:47.290,0.031,0.077,0.994,0.183,0.671,-0.183, , , , , , ,4.631,-1.609,-101.266
 13:09:15.203,eb:33:2e:f9:57:b5, 2015-01-01 00:53:47.290,0.031,0.077,0.994,0.183,0.671,-0.122, , , , , , ,4.631,-1.609,-101.272
 13:09:15.203,eb:33:2e:f9:57:b5, 2015-01-01 00:53:47.290,0.03,0.078,0.994,0.183,0.671,-0.122, , , , , , ,4.631,-1.609,-101.272
 13:09:15.203,eb:33:2e:f9:57:b5, 2015-01-01 00:53:47.290,0.031,0.078,0.993,0.244,0.732,-0.183, , , , , , ,4.631,-1.615,-101.272
 13:09:15.203,eb:33:2e:f9:57:b5, 2015-01-01 00:53:47.290,0.031,0.079,0.994,0.305,0.793,-0.122, , , , , , ,4.631,-1.615,-101.272
 13:09:15.203,eb:33:2e:f9:57:b5, 2015-01-01 00:53:47.290,0.029,0.078,0.994,0.305,0.793,-0.061, , , , , , ,4.631,-1.615,-101.272
 13:09:15.203,eb:33:2e:f9:57:b5, 2015-01-01 00:53:47.290,0.028,0.078,0.993,0.366,0.793,-0.122, , , , , , ,4.631,-1.615,-101.272
 13:09:15.247,eb:33:2e:f9:57:b5, 2015-01-01 00:53:47.600,0.028,0.078,0.993,0.366,0.732,-0.061, , , , , , ,4.631,-1.615,-101.272
 13:09:15.247,eb:33:2e:f9:57:b5, 2015-01-01 00:53:47.600,0.028,0.078,0.992,0.366,0.671,-0.061, , , , , , ,4.631,-1.615,-101.272
 13:09:15.247,eb:33:2e:f9:57:b5, 2015-01-01 00:53:47.600,0.028,0.079,0.992,0.366,0.61,-0.061, , , , , , ,4.631,-1.615,-101.277
 13:09:15.247,eb:33:2e:f9:57:b5, 2015-01-01 00:53:47.600,0.03,0.079,0.992,0.427,0.488,0, , , , , , ,4.631,-1.615,-101.277
 13:09:15.247,eb:33:2e:f9:57:b5, 2015-01-01 00:53:47.600,0.031,0.078,0.994,0.427,0.488,0, , , , , , ,4.631,-1.615,-101.277
 13:09:15.247,eb:33:2e:f9:57:b5, 2015-01-01 00:53:47.600,0.029,0.079,0.994,0.488,0.488,0, , , , , , ,4.631,-1.615,-101.277
 13:09:15.247,eb:33:2e:f9:57:b5, 2015-01-01 00:53:47.600,0.029,0.08,0.993,0.488,0.427,0, , , , , , ,4.631,-1.615,-101.277
 13:09:15.247,eb:33:2e:f9:57:b5, 2015-01-01 00:53:47.600,0.029,0.079,0.993,0.488,0.427,0, , , , , , ,4.631,-1.615,-101.277
 13:09:15.270,eb:33:2e:f9:57:b5, 2015-01-01 00:53:47.600,0.029,0.079,0.993,0.427,0.366,0, , , , , , ,4.631,-1.615,-101.277
 13:09:15.270,eb:33:2e:f9:57:b5, 2015-01-01 00:53:47.600,0.029,0.078,0.993,0.488,0.366,0, , , , , , ,4.631,-1.615,-101.277
 13:09:15.270,eb:33:2e:f9:57:b5, 2015-01-01 00:53:47.600,0.028,0.079,0.993,0.549,0.305,0, , , , , , ,4.631,-1.615,-101.283
 13:09:15.270,eb:33:2e:f9:57:b5, 2015-01-01 00:53:47.600,0.029,0.079,0.992,0.549,0.244,0.061, , , , , , ,4.631,-1.615,-101.283
 13:09:15.270,eb:33:2e:f9:57:b5, 2015-01-01 00:53:47.600,0.029,0.079,0.992,0.549,0.305,0.061, , , , , , ,4.631,-1.615,-101.283
 13:09:15.270,eb:33:2e:f9:57:b5, 2015-01-01 00:53:47.600,0.029,0.079,0.993,0.549,0.183,0.122, , , , , , ,4.631,-1.615,-101.283
 13:09:15.270,eb:33:2e:f9:57:b5, 2015-01-01 00:53:47.600,0.028,0.079,0.992,0.549,0.122,0.122, , , , , , ,4.631,-1.615,-101.283
 13:09:15.271,eb:33:2e:f9:57:b5, 2015-01-01 00:53:47.600,0.029,0.08,0.993,0.549,0.061,0.122, , , , , , ,4.631,-1.615,-101.283
 13:09:15.315,eb:33:2e:f9:57:b5, 2015-01-01 00:53:47.600,0.029,0.078,0.994,0.671,0.061,0.183, , , , , , ,4.631,-1.615,-101.283
 13:09:15.315,eb:33:2e:f9:57:b5, 2015-01-01 00:53:47.600,0.029,0.079,0.994,0.671,0.122,0.183, , , , , , ,4.631,-1.615,-101.283
 13:09:15.315,eb:33:2e:f9:57:b5, 2015-01-01 00:53:47.600,0.029,0.08,0.993,0.671,0.061,0.244, , , , , , ,4.631,-1.615,-101.288
 13:09:15.315,eb:33:2e:f9:57:b5, 2015-01-01 00:53:47.600,0.028,0.08,0.994,0.732,0.061,0.183, , , , , , ,4.631,-1.615,-101.288
 13:09:15.315,eb:33:2e:f9:57:b5, 2015-01-01 00:53:47.600,0.029,0.08,0.993,0.732,0.061,0.244, , , , , , ,4.631,-1.615,-101.288
 13:09:15.315,eb:33:2e:f9:57:b5, 2015-01-01 00:53:47.600,0.029,0.08,0.994,0.732,0.061,0.244, , , , , , ,4.631,-1.615,-101.288
 13:09:15.315,eb:33:2e:f9:57:b5, 2015-01-01 00:53:47.600,0.03,0.079,0.995,0.793,0.061,0.244, , , , , , ,4.631,-1.615,-101.288
 13:09:15.315,eb:33:2e:f9:57:b5, 2015-01-01 00:53:47.600,0.029,0.08,0.995,0.793,0.122,0.244, , , , , , ,4.631,-1.615,-101.288
 13:09:15.359,eb:33:2e:f9:57:b5, 2015-01-01 00:53:47.600,0.03,0.081,0.994,0.793,0.122,0.244, , , , , , ,4.631,-1.615,-101.288
 13:09:15.359,eb:33:2e:f9:57:b5, 2015-01-01 00:53:47.600,0.029,0.081,0.994,0.793,0.122,0.244, , , , , , ,4.631,-1.615,-101.288
 13:09:15.359,eb:33:2e:f9:57:b5, 2015-01-01 00:53:47.600,0.03,0.08,0.993,0.854,0.122,0.244, , , , , , ,4.631,-1.615,-101.294
 13:09:15.359,eb:33:2e:f9:57:b5, 2015-01-01 00:53:47.600,0.03,0.081,0.993,0.854,0.183,0.244, , , , , , ,4.631,-1.615,-101.294
 13:09:15.359,eb:33:2e:f9:57:b5, 2015-01-01 00:53:47.600,0.031,0.081,0.994,0.854,0.183,0.305, , , , , , ,4.631,-1.615,-101.294
 13:09:15.359,eb:33:2e:f9:57:b5, 2015-01-01 00:53:47.600,0.029,0.081,0.995,0.916,0.366,0.305, , , , , , ,4.631,-1.615,-101.294
 13:09:15.359,eb:33:2e:f9:57:b5, 2015-01-01 00:53:47.600,0.029,0.079,0.994,0.916,0.427,0.305, , , , , , ,4.631,-1.615,-101.294
 13:09:15.359,eb:33:2e:f9:57:b5, 2015-01-01 00:53:47.600,0.03,0.079,0.993,0.977,0.366,0.244, , , , , , ,4.631,-1.615,-101.294
 13:09:15.404,eb:33:2e:f9:57:b5, 2015-01-01 00:53:47.600,0.029,0.081,0.994,1.038,0.366,0.244, , , , , , ,4.631,-1.615,-101.294
 13:09:15.404,eb:33:2e:f9:57:b5, 2015-01-01 00:53:47.600,0.029,0.081,0.994,1.038,0.366,0.305, , , , , , ,4.631,-1.615,-101.294
 13:09:15.404,eb:33:2e:f9:57:b5, 2015-01-01 00:53:47.600,0.028,0.081,0.994,1.038,0.366,0.305, , , , , , ,4.631,-1.615,-101.294
 13:09:15.404,eb:33:2e:f9:57:b5, 2015-01-01 00:53:47.600,0.027,0.082,0.993,1.099,0.366,0.305, , , , , , ,4.631,-1.615,-101.294
 13:09:15.404,eb:33:2e:f9:57:b5, 2015-01-01 00:53:47.600,0.027,0.081,0.992,1.099,0.244,0.305, , , , , , ,4.631,-1.615,-101.294
 13:09:15.404,eb:33:2e:f9:57:b5, 2015-01-01 00:53:47.600,0.028,0.081,0.992,1.038,0.183,0.244, , , , , , ,4.631,-1.615,-101.294
 13:09:15.404,eb:33:2e:f9:57:b5, 2015-01-01 00:53:47.600,0.029,0.082,0.992,0.977,0.122,0.244, , , , , , ,4.631,-1.615,-101.299
 13:09:15.404,eb:33:2e:f9:57:b5, 2015-01-01 00:53:47.600,0.028,0.082,0.991,0.977,0.122,0.183, , , , , , ,4.631,-1.615,-101.299
 13:09:15.427,eb:33:2e:f9:57:b5, 2015-01-01 00:53:47.600,0.029,0.082,0.992,0.916,0.061,0.183, , , , , , ,4.631,-1.615,-101.299
 13:09:15.427,eb:33:2e:f9:57:b5, 2015-01-01 00:53:47.600,0.03,0.081,0.993,0.977,0.122,0.183, , , , , , ,4.631,-1.615,-101.299
 13:09:15.427,eb:33:2e:f9:57:b5, 2015-01-01 00:53:47.600,0.029,0.082,0.993,0.854,0.122,0.183, , , , , , ,4.631,-1.615,-101.299
 13:09:15.427,eb:33:2e:f9:57:b5, 2015-01-01 00:53:47.600,0.029,0.082,0.992,0.916,0.061,0.305, , , , , , ,4.631,-1.615,-101.299
 13:09:15.427,eb:33:2e:f9:57:b5, 2015-01-01 00:53:47.600,0.028,0.083,0.992,0.854,0.061,0.244, , , , , , ,4.631,-1.615,-101.299
 13:09:15.427,eb:33:2e:f9:57:b5, 2015-01-01 00:53:47.600,0.029,0.083,0.993,0.793,0,0.244, , , , , , ,4.631,-1.615,-101.299
 13:09:15.427,eb:33:2e:f9:57:b5, 2015-01-01 00:53:47.600,0.028,0.083,0.992,0.732,0,0.183, , , , , , ,4.631,-1.615,-101.305
 13:09:15.427,eb:33:2e:f9:57:b5, 2015-01-01 00:53:47.600,0.027,0.083,0.991,0.671,0.061,0.183, , , , , , ,4.631,-1.615,-101.305
 13:09:15.473,eb:33:2e:f9:57:b5, 2015-01-01 00:53:47.600,0.028,0.083,0.991,0.61,0,0.183, , , , , , ,4.631,-1.615,-101.305
 13:09:15.473,eb:33:2e:f9:57:b5, 2015-01-01 00:53:47.600,0.029,0.083,0.992,0.61,0,0.183, , , , , , ,4.631,-1.615,-101.305
 13:09:15.473,eb:33:2e:f9:57:b5, 2015-01-01 00:53:47.600,0.03,0.083,0.993,0.61,0,0.122, , , , , , ,4.631,-1.615,-101.305
 13:09:15.474,eb:33:2e:f9:57:b5, 2015-01-01 00:53:47.600,0.029,0.083,0.993,0.61,0.061,0.122, , , , , , ,4.631,-1.615,-101.305
 13:09:15.474,eb:33:2e:f9:57:b5, 2015-01-01 00:53:47.600,0.03,0.082,0.993,0.61,0.061,0.122, , , , , , ,4.631,-1.615,-101.305
 13:09:15.474,eb:33:2e:f9:57:b5, 2015-01-01 00:53:47.600,0.029,0.082,0.993,0.549,0.061,0.122, , , , , , ,4.631,-1.615,-101.305
 13:09:15.474,eb:33:2e:f9:57:b5, 2015-01-01 00:53:47.600,0.029,0.082,0.993,0.61,0.061,0.122, , , , , , ,4.631,-1.615,-101.31
 13:09:15.474,eb:33:2e:f9:57:b5, 2015-01-01 00:53:47.600,0.029,0.083,0.993,0.61,0,0.061, , , , , , ,4.631,-1.615,-101.31
 13:09:15.518,eb:33:2e:f9:57:b5, 2015-01-01 00:53:47.600,0.029,0.083,0.992,0.549,0,0.122, , , , , , ,4.631,-1.62,-101.31
 13:09:15.518,eb:33:2e:f9:57:b5, 2015-01-01 00:53:47.600,0.029,0.083,0.992,0.427,0.061,0.122, , , , , , ,4.631,-1.62,-101.31
 13:09:15.518,eb:33:2e:f9:57:b5, 2015-01-01 00:53:47.600,0.029,0.083,0.992,0.427,0,0.122, , , , , , ,4.631,-1.62,-101.31
 13:09:15.518,eb:33:2e:f9:57:b5, 2015-01-01 00:53:47.600,0.029,0.083,0.992,0.427,0,0.122, , , , , , ,4.631,-1.62,-101.31
 13:09:15.518,eb:33:2e:f9:57:b5, 2015-01-01 00:53:47.600,0.03,0.083,0.993,0.366,0,0.061, , , , , , ,4.636,-1.62,-101.31
 13:09:15.518,eb:33:2e:f9:57:b5, 2015-01-01 00:53:47.600,0.03,0.083,0.992,0.305,0.061,0, , , , , , ,4.636,-1.62,-101.31
 13:09:15.518,eb:33:2e:f9:57:b5, 2015-01-01 00:53:47.600,0.03,0.083,0.993,0.305,0.122,0.061, , , , , , ,4.636,-1.62,-101.316
 13:09:15.518,eb:33:2e:f9:57:b5, 2015-01-01 00:53:47.600,0.029,0.083,0.993,0.244,0.183,0, , , , , , ,4.636,-1.62,-101.316
 13:09:15.563,eb:33:2e:f9:57:b5, 2015-01-01 00:53:47.915,0.027,0.084,0.992,0.244,0.183,0, , , , , , ,4.636,-1.62,-101.316
 13:09:15.563,eb:33:2e:f9:57:b5, 2015-01-01 00:53:47.915,0.028,0.083,0.991,0.183,0.122,0, , , , , , ,4.636,-1.62,-101.316
 13:09:15.563,eb:33:2e:f9:57:b5, 2015-01-01 00:53:47.915,0.029,0.083,0.991,0.122,0.122,0, , , , , , ,4.636,-1.62,-101.316
 13:09:15.563,eb:33:2e:f9:57:b5, 2015-01-01 00:53:47.915,0.028,0.083,0.992,0.122,0.061,0, , , , , , ,4.636,-1.62,-101.316
 13:09:15.563,eb:33:2e:f9:57:b5, 2015-01-01 00:53:47.915,0.029,0.083,0.992,0.122,0.061,0, , , , , , ,4.636,-1.62,-101.316
 13:09:15.563,eb:33:2e:f9:57:b5, 2015-01-01 00:53:47.915,0.03,0.083,0.992,0.061,0,0, , , , , , ,4.636,-1.62,-101.316
 13:09:15.563,eb:33:2e:f9:57:b5, 2015-01-01 00:53:47.915,0.03,0.083,0.992,0,0,0, , , , , , ,4.636,-1.62,-101.316
 13:09:15.563,eb:33:2e:f9:57:b5, 2015-01-01 00:53:47.915,0.029,0.083,0.993,0,0.061,0, , , , , , ,4.636,-1.62,-101.316
 13:09:15.607,eb:33:2e:f9:57:b5, 2015-01-01 00:53:47.915,0.028,0.083,0.992,0,0.061,0, , , , , , ,4.636,-1.62,-101.316
 13:09:15.607,eb:33:2e:f9:57:b5, 2015-01-01 00:53:47.915,0.028,0.083,0.992,0,0,0, , , , , , ,4.636,-1.62,-101.316
 13:09:15.607,eb:33:2e:f9:57:b5, 2015-01-01 00:53:47.915,0.028,0.083,0.992,0,0,0, , , , , , ,4.636,-1.62,-101.321
 13:09:15.607,eb:33:2e:f9:57:b5, 2015-01-01 00:53:47.915,0.028,0.083,0.992,0,0,0, , , , , , ,4.636,-1.62,-101.321
 13:09:15.607,eb:33:2e:f9:57:b5, 2015-01-01 00:53:47.915,0.028,0.083,0.992,-0.061,0,0, , , , , , ,4.636,-1.62,-101.321
 13:09:15.607,eb:33:2e:f9:57:b5, 2015-01-01 00:53:47.915,0.029,0.083,0.992,-0.061,-0.122,0, , , , , , ,4.636,-1.62,-101.321
 13:09:15.607,eb:33:2e:f9:57:b5, 2015-01-01 00:53:47.915,0.027,0.083,0.992,0,-0.183,0.061, , , , , , ,4.636,-1.62,-101.321
 13:09:15.607,eb:33:2e:f9:57:b5, 2015-01-01 00:53:47.915,0.027,0.083,0.992,-0.061,-0.183,0.061, , , , , , ,4.636,-1.62,-101.321
 13:09:15.630,eb:33:2e:f9:57:b5, 2015-01-01 00:53:47.915,0.028,0.083,0.991,-0.061,-0.244,0.061, , , , , , ,4.642,-1.62,-101.321
 13:09:15.630,eb:33:2e:f9:57:b5, 2015-01-01 00:53:47.915,0.028,0.083,0.992,-0.061,-0.305,0.061, , , , , , ,4.642,-1.62,-101.321
 13:09:15.630,eb:33:2e:f9:57:b5, 2015-01-01 00:53:47.915,0.028,0.083,0.992,-0.061,-0.366,0.122, , , , , , ,4.642,-1.62,-101.327
 13:09:15.630,eb:33:2e:f9:57:b5, 2015-01-01 00:53:47.915,0.028,0.082,0.993,-0.061,-0.427,0.122, , , , , , ,4.642,-1.62,-101.327
 13:09:15.630,eb:33:2e:f9:57:b5, 2015-01-01 00:53:47.915,0.028,0.083,0.993,-0.122,-0.488,0.061, , , , , , ,4.642,-1.62,-101.327
 13:09:15.630,eb:33:2e:f9:57:b5, 2015-01-01 00:53:47.915,0.029,0.083,0.992,-0.122,-0.488,0.061, , , , , , ,4.642,-1.62,-101.327
 13:09:15.630,eb:33:2e:f9:57:b5, 2015-01-01 00:53:47.915,0.029,0.083,0.992,-0.183,-0.488,0.061, , , , , , ,4.642,-1.62,-101.327
 13:09:15.630,eb:33:2e:f9:57:b5, 2015-01-01 00:53:47.915,0.028,0.083,0.993,-0.183,-0.488,0.122, , , , , , ,4.642,-1.62,-101.327
 13:09:15.675,eb:33:2e:f9:57:b5, 2015-01-01 00:53:47.915,0.028,0.082,0.992,-0.183,-0.549,0.122, , , , , , ,4.642,-1.62,-101.327
 13:09:15.675,eb:33:2e:f9:57:b5, 2015-01-01 00:53:47.915,0.028,0.083,0.993,-0.122,-0.61,0.122, , , , , , ,4.642,-1.62,-101.327
 13:09:15.675,eb:33:2e:f9:57:b5, 2015-01-01 00:53:47.915,0.029,0.083,0.994,-0.122,-0.61,0.122, , , , , , ,4.642,-1.62,-101.332
 13:09:15.675,eb:33:2e:f9:57:b5, 2015-01-01 00:53:47.915,0.03,0.083,0.994,-0.122,-0.61,0.122, , , , , , ,4.642,-1.62,-101.332
 13:09:15.675,eb:33:2e:f9:57:b5, 2015-01-01 00:53:47.915,0.03,0.082,0.994,-0.122,-0.549,0.122, , , , , , ,4.642,-1.62,-101.332
 13:09:15.675,eb:33:2e:f9:57:b5, 2015-01-01 00:53:47.915,0.03,0.083,0.994,-0.122,-0.427,0.122, , , , , , ,4.642,-1.62,-101.332
 13:09:15.675,eb:33:2e:f9:57:b5, 2015-01-01 00:53:47.915,0.03,0.083,0.994,-0.122,-0.427,0.061, , , , , , ,4.642,-1.62,-101.332
 13:09:15.675,eb:33:2e:f9:57:b5, 2015-01-01 00:53:47.915,0.03,0.083,0.994,-0.122,-0.366,0, , , , , , ,4.642,-1.62,-101.332
 13:09:15.742,eb:33:2e:f9:57:b5, 2015-01-01 00:53:47.915,0.03,0.082,0.994,-0.122,-0.305,0.061, , , , , , ,4.642,-1.62,-101.332
 13:09:15.742,eb:33:2e:f9:57:b5, 2015-01-01 00:53:47.915,0.03,0.083,0.993,-0.122,-0.183,0, , , , , , ,4.642,-1.62,-101.332
 13:09:15.742,eb:33:2e:f9:57:b5, 2015-01-01 00:53:47.915,0.03,0.082,0.993,-0.183,-0.183,0, , , , , , ,4.642,-1.62,-101.332
 13:09:15.742,eb:33:2e:f9:57:b5, 2015-01-01 00:53:47.915,0.03,0.083,0.993,-0.183,-0.122,0, , , , , , ,4.642,-1.62,-101.332
 13:09:15.742,eb:33:2e:f9:57:b5, 2015-01-01 00:53:47.915,0.031,0.083,0.993,-0.183,-0.061,0, , , , , , ,4.647,-1.62,-101.332
 13:09:15.742,eb:33:2e:f9:57:b5, 2015-01-01 00:53:47.915,0.03,0.082,0.993,-0.183,-0.061,0, , , , , , ,4.647,-1.62,-101.332
 13:09:15.742,eb:33:2e:f9:57:b5, 2015-01-01 00:53:47.915,0.029,0.083,0.993,-0.244,-0.061,0, , , , , , ,4.647,-1.62,-101.338
 13:09:15.742,eb:33:2e:f9:57:b5, 2015-01-01 00:53:47.915,0.03,0.082,0.992,-0.244,0,0, , , , , , ,4.647,-1.62,-101.338
 13:09:15.787,eb:33:2e:f9:57:b5, 2015-01-01 00:53:47.915,0.031,0.082,0.993,-0.244,0,0, , , , , , ,4.647,-1.62,-101.338
 13:09:15.787,eb:33:2e:f9:57:b5, 2015-01-01 00:53:47.915,0.031,0.082,0.993,-0.183,0,0, , , , , , ,4.647,-1.62,-101.338
 13:09:15.787,eb:33:2e:f9:57:b5, 2015-01-01 00:53:47.915,0.03,0.082,0.993,-0.244,0,0, , , , , , ,4.647,-1.62,-101.338
 13:09:15.787,eb:33:2e:f9:57:b5, 2015-01-01 00:53:47.915,0.029,0.082,0.993,-0.244,0,0, , , , , , ,4.647,-1.62,-101.338
 13:09:15.787,eb:33:2e:f9:57:b5, 2015-01-01 00:53:47.915,0.029,0.082,0.992,-0.305,0,0, , , , , , ,4.647,-1.62,-101.338
 13:09:15.787,eb:33:2e:f9:57:b5, 2015-01-01 00:53:47.915,0.029,0.083,0.992,-0.244,-0.061,0, , , , , , ,4.647,-1.62,-101.338
 13:09:15.787,eb:33:2e:f9:57:b5, 2015-01-01 00:53:47.915,0.03,0.083,0.992,-0.244,-0.061,0, , , , , , ,4.647,-1.62,-101.343
 13:09:15.787,eb:33:2e:f9:57:b5, 2015-01-01 00:53:47.915,0.03,0.082,0.993,-0.244,-0.061,0, , , , , , ,4.647,-1.62,-101.343
 13:09:15.833,eb:33:2e:f9:57:b5, 2015-01-01 00:53:47.915,0.03,0.082,0.992,-0.244,-0.122,0, , , , , , ,4.647,-1.62,-101.343
 13:09:15.833,eb:33:2e:f9:57:b5, 2015-01-01 00:53:47.915,0.031,0.082,0.992,-0.244,-0.183,0, , , , , , ,4.647,-1.62,-101.343
 13:09:15.833,eb:33:2e:f9:57:b5, 2015-01-01 00:53:47.915,0.029,0.082,0.992,-0.244,-0.183,0, , , , , , ,4.647,-1.62,-101.343
 13:09:15.833,eb:33:2e:f9:57:b5, 2015-01-01 00:53:47.915,0.029,0.082,0.992,-0.305,-0.183,0, , , , , , ,4.647,-1.62,-101.343
 13:09:15.833,eb:33:2e:f9:57:b5, 2015-01-01 00:53:47.915,0.03,0.083,0.992,-0.244,-0.183,0, , , , , , ,4.647,-1.62,-101.343
 13:09:15.833,eb:33:2e:f9:57:b5, 2015-01-01 00:53:47.915,0.03,0.082,0.993,-0.305,-0.183,-0.061, , , , , , ,4.647,-1.62,-101.343
 13:09:15.833,eb:33:2e:f9:57:b5, 2015-01-01 00:53:47.915,0.031,0.082,0.992,-0.366,-0.122,-0.061, , , , , , ,4.647,-1.62,-101.343
 13:09:15.833,eb:33:2e:f9:57:b5, 2015-01-01 00:53:47.915,0.031,0.081,0.993,-0.305,-0.122,-0.061, , , , , , ,4.647,-1.62,-101.343
 13:09:15.877,eb:33:2e:f9:57:b5, 2015-01-01 00:53:47.915,0.031,0.081,0.993,-0.305,-0.061,-0.061, , , , , , ,4.647,-1.62,-101.343
 13:09:15.877,eb:33:2e:f9:57:b5, 2015-01-01 00:53:47.915,0.03,0.081,0.993,-0.305,0,0, , , , , , ,4.647,-1.62,-101.343
 13:09:15.877,eb:33:2e:f9:57:b5, 2015-01-01 00:53:47.915,0.03,0.082,0.993,-0.305,-0.061,0, , , , , , ,4.647,-1.62,-101.349
 13:09:15.877,eb:33:2e:f9:57:b5, 2015-01-01 00:53:47.915,0.029,0.082,0.993,-0.305,0,-0.061, , , , , , ,4.647,-1.62,-101.349
 13:09:15.877,eb:33:2e:f9:57:b5, 2015-01-01 00:53:47.915,0.03,0.081,0.993,-0.244,0,-0.061, , , , , , ,4.647,-1.626,-101.349
 13:09:15.877,eb:33:2e:f9:57:b5, 2015-01-01 00:53:47.915,0.029,0.081,0.993,-0.244,-0.061,0, , , , , , ,4.647,-1.626,-101.349
 13:09:15.877,eb:33:2e:f9:57:b5, 2015-01-01 00:53:47.915,0.029,0.081,0.993,-0.183,0,0, , , , , , ,4.647,-1.62,-101.349
 13:09:15.877,eb:33:2e:f9:57:b5, 2015-01-01 00:53:47.915,0.03,0.081,0.994,-0.183,-0.061,0, , , , , , ,4.647,-1.62,-101.349
 13:09:15.899,eb:33:2e:f9:57:b5, 2015-01-01 00:53:47.915,0.03,0.081,0.995,-0.122,0,0, , , , , , ,4.653,-1.626,-101.349
 13:09:15.899,eb:33:2e:f9:57:b5, 2015-01-01 00:53:47.915,0.029,0.081,0.994,-0.061,-0.061,0, , , , , , ,4.653,-1.626,-101.349
 13:09:15.899,eb:33:2e:f9:57:b5, 2015-01-01 00:53:47.915,0.03,0.081,0.993,0,-0.061,0, , , , , , ,4.653,-1.626,-101.354
 13:09:15.899,eb:33:2e:f9:57:b5, 2015-01-01 00:53:47.915,0.03,0.082,0.993,0,0,0, , , , , , ,4.653,-1.626,-101.354
 13:09:15.899,eb:33:2e:f9:57:b5, 2015-01-01 00:53:47.915,0.03,0.081,0.994,0,0,0, , , , , , ,4.653,-1.626,-101.354
 13:09:15.899,eb:33:2e:f9:57:b5, 2015-01-01 00:53:47.915,0.029,0.081,0.994,0,-0.061,0, , , , , , ,4.653,-1.626,-101.354
 13:09:15.899,eb:33:2e:f9:57:b5, 2015-01-01 00:53:47.915,0.03,0.082,0.993,0,-0.122,0, , , , , , ,4.653,-1.626,-101.354
 13:09:15.899,eb:33:2e:f9:57:b5, 2015-01-01 00:53:47.915,0.029,0.081,0.993,0,-0.122,-0.122, , , , , , ,4.653,-1.626,-101.354
 13:09:15.922,eb:33:2e:f9:57:b5, 2015-01-01 00:53:47.915,0.03,0.081,0.993,0,-0.061,-0.061, , , , , , ,4.653,-1.626,-101.354
 13:09:15.922,eb:33:2e:f9:57:b5, 2015-01-01 00:53:47.915,0.031,0.082,0.994,0,-0.061,0, , , , , , ,4.653,-1.626,-101.354
 13:09:15.922,eb:33:2e:f9:57:b5, 2015-01-01 00:53:47.915,0.03,0.082,0.994,0,0,0, , , , , , ,4.653,-1.626,-101.354
 13:09:15.922,eb:33:2e:f9:57:b5, 2015-01-01 00:53:47.915,0.03,0.082,0.994,0,0,0, , , , , , ,4.653,-1.626,-101.354
 13:09:15.922,eb:33:2e:f9:57:b5, 2015-01-01 00:53:47.915,0.031,0.082,0.993,0.061,0,-0.061, , , , , , ,4.653,-1.626,-101.354
 13:09:15.922,eb:33:2e:f9:57:b5, 2015-01-01 00:53:47.915,0.031,0.082,0.993,0,0,-0.061, , , , , , ,4.653,-1.626,-101.354
 13:09:15.922,eb:33:2e:f9:57:b5, 2015-01-01 00:53:47.915,0.03,0.082,0.993,0,0.061,0, , , , , , ,4.653,-1.626,-101.36
 13:09:15.922,eb:33:2e:f9:57:b5, 2015-01-01 00:53:47.915,0.031,0.082,0.992,0,0,0, , , , , , ,4.653,-1.626,-101.36
 13:09:15.967,eb:33:2e:f9:57:b5, 2015-01-01 00:53:48.295,0.031,0.082,0.992,0,0,-0.061, , , , , , ,4.653,-1.626,-101.36
 13:09:15.967,eb:33:2e:f9:57:b5, 2015-01-01 00:53:48.295,0.03,0.081,0.992,-0.061,0,-0.061, , , , , , ,4.653,-1.626,-101.36
 13:09:15.967,eb:33:2e:f9:57:b5, 2015-01-01 00:53:48.295,0.03,0.081,0.992,-0.061,0,0, , , , , , ,4.653,-1.626,-101.36
 13:09:15.967,eb:33:2e:f9:57:b5, 2015-01-01 00:53:48.295,0.03,0.081,0.993,0,0,0, , , , , , ,4.653,-1.626,-101.36
 13:09:15.967,eb:33:2e:f9:57:b5, 2015-01-01 00:53:48.295,0.03,0.081,0.994,0,0,-0.061, , , , , , ,4.653,-1.626,-101.36
 13:09:15.967,eb:33:2e:f9:57:b5, 2015-01-01 00:53:48.295,0.03,0.081,0.993,0,0,0, , , , , , ,4.653,-1.626,-101.36
 13:09:15.967,eb:33:2e:f9:57:b5, 2015-01-01 00:53:48.295,0.03,0.082,0.993,0,0,0, , , , , , ,4.653,-1.626,-101.365
 13:09:15.967,eb:33:2e:f9:57:b5, 2015-01-01 00:53:48.295,0.029,0.082,0.993,0,0,0, , , , , , ,4.653,-1.626,-101.365
 13:09:16.034,eb:33:2e:f9:57:b5, 2015-01-01 00:53:48.295,0.029,0.082,0.993,0,0,0, , , , , , ,4.653,-1.626,-101.365
 13:09:16.034,eb:33:2e:f9:57:b5, 2015-01-01 00:53:48.295,0.029,0.081,0.992,0,-0.061,-0.061, , , , , , ,4.653,-1.626,-101.365
 13:09:16.034,eb:33:2e:f9:57:b5, 2015-01-01 00:53:48.295,0.03,0.082,0.992,0,-0.122,0, , , , , , ,4.653,-1.626,-101.365
 13:09:16.034,eb:33:2e:f9:57:b5, 2015-01-01 00:53:48.295,0.031,0.082,0.993,-0.061,-0.122,0, , , , , , ,4.653,-1.626,-101.365
 13:09:16.034,eb:33:2e:f9:57:b5, 2015-01-01 00:53:48.295,0.03,0.081,0.994,-0.061,-0.061,0, , , , , , ,4.653,-1.626,-101.365
 13:09:16.034,eb:33:2e:f9:57:b5, 2015-01-01 00:53:48.295,0.031,0.082,0.993,0,-0.061,0, , , , , , ,4.653,-1.626,-101.365
 13:09:16.034,eb:33:2e:f9:57:b5, 2015-01-01 00:53:48.295,0.03,0.082,0.992,-0.061,0,0, , , , , , ,4.653,-1.626,-101.365
 13:09:16.034,eb:33:2e:f9:57:b5, 2015-01-01 00:53:48.295,0.03,0.081,0.993,-0.061,-0.061,0, , , , , , ,4.653,-1.626,-101.365
 13:09:16.036,eb:33:2e:f9:57:b5, 2015-01-01 00:53:48.295,0.03,0.082,0.992,-0.061,-0.061,0, , , , , , ,4.653,-1.626,-101.365
 13:09:16.036,eb:33:2e:f9:57:b5, 2015-01-01 00:53:48.295,0.029,0.082,0.992,-0.061,-0.061,0, , , , , , ,4.653,-1.626,-101.365
 13:09:16.036,eb:33:2e:f9:57:b5, 2015-01-01 00:53:48.295,0.03,0.081,0.992,-0.061,-0.122,0, , , , , , ,4.653,-1.626,-101.371
 13:09:16.036,eb:33:2e:f9:57:b5, 2015-01-01 00:53:48.295,0.03,0.081,0.993,-0.061,-0.122,0.061, , , , , , ,4.653,-1.626,-101.371
 13:09:16.036,eb:33:2e:f9:57:b5, 2015-01-01 00:53:48.295,0.03,0.082,0.993,0,-0.122,0, , , , , , ,4.653,-1.631,-101.371
 13:09:16.036,eb:33:2e:f9:57:b5, 2015-01-01 00:53:48.295,0.031,0.081,0.994,0,-0.061,0, , , , , , ,4.653,-1.631,-101.371
 13:09:16.036,eb:33:2e:f9:57:b5, 2015-01-01 00:53:48.295,0.031,0.08,0.996,0.061,0,0.061, , , , , , ,4.653,-1.626,-101.371
 13:09:16.036,eb:33:2e:f9:57:b5, 2015-01-01 00:53:48.295,0.031,0.08,0.997,0.122,0.122,0, , , , , , ,4.653,-1.626,-101.371
 13:09:16.080,eb:33:2e:f9:57:b5, 2015-01-01 00:53:48.295,0.03,0.08,0.995,0.305,0.061,0.122, , , , , , ,4.653,-1.631,-101.371
 13:09:16.080,eb:33:2e:f9:57:b5, 2015-01-01 00:53:48.295,0.028,0.08,0.995,0.305,0,0.122, , , , , , ,4.653,-1.631,-101.371
 13:09:16.080,eb:33:2e:f9:57:b5, 2015-01-01 00:53:48.295,0.029,0.08,0.994,0.366,-0.061,0.183, , , , , , ,4.653,-1.631,-101.371
 13:09:16.080,eb:33:2e:f9:57:b5, 2015-01-01 00:53:48.295,0.03,0.081,0.994,0.366,-0.061,0.122, , , , , , ,4.653,-1.631,-101.371
 13:09:16.080,eb:33:2e:f9:57:b5, 2015-01-01 00:53:48.295,0.031,0.081,0.994,0.488,-0.061,0.122, , , , , , ,4.653,-1.631,-101.371
 13:09:16.080,eb:33:2e:f9:57:b5, 2015-01-01 00:53:48.295,0.03,0.08,0.994,0.427,-0.061,0.122, , , , , , ,4.653,-1.631,-101.371
 13:09:16.080,eb:33:2e:f9:57:b5, 2015-01-01 00:53:48.295,0.031,0.08,0.994,0.488,-0.061,0.122, , , , , , ,4.658,-1.631,-101.376
 13:09:16.080,eb:33:2e:f9:57:b5, 2015-01-01 00:53:48.295,0.03,0.081,0.995,0.549,-0.061,0.122, , , , , , ,4.658,-1.631,-101.376
 13:09:16.125,eb:33:2e:f9:57:b5, 2015-01-01 00:53:48.295,0.031,0.082,0.994,0.61,-0.061,0.122, , , , , , ,4.658,-1.631,-101.376
 13:09:16.125,eb:33:2e:f9:57:b5, 2015-01-01 00:53:48.295,0.03,0.082,0.993,0.61,-0.061,0.122, , , , , , ,4.658,-1.631,-101.376
 13:09:16.125,eb:33:2e:f9:57:b5, 2015-01-01 00:53:48.295,0.03,0.082,0.994,0.549,0,0.122, , , , , , ,4.658,-1.631,-101.376
 13:09:16.125,eb:33:2e:f9:57:b5, 2015-01-01 00:53:48.295,0.03,0.082,0.993,0.549,0,0.122, , , , , , ,4.658,-1.631,-101.376
 13:09:16.125,eb:33:2e:f9:57:b5, 2015-01-01 00:53:48.295,0.031,0.082,0.993,0.549,0,0.183, , , , , , ,4.658,-1.631,-101.376
 13:09:16.125,eb:33:2e:f9:57:b5, 2015-01-01 00:53:48.295,0.031,0.083,0.995,0.61,0.122,0.122, , , , , , ,4.658,-1.631,-101.376
 13:09:16.125,eb:33:2e:f9:57:b5, 2015-01-01 00:53:48.295,0.031,0.083,0.994,0.61,0.183,0.061, , , , , , ,4.658,-1.631,-101.382
 13:09:16.125,eb:33:2e:f9:57:b5, 2015-01-01 00:53:48.295,0.031,0.083,0.994,0.61,0.244,0.061, , , , , , ,4.658,-1.631,-101.382
 13:09:16.170,eb:33:2e:f9:57:b5, 2015-01-01 00:53:48.295,0.031,0.082,0.993,0.61,0.305,0.061, , , , , , ,4.658,-1.631,-101.382
 13:09:16.170,eb:33:2e:f9:57:b5, 2015-01-01 00:53:48.295,0.031,0.082,0.993,0.61,0.305,0.061, , , , , , ,4.658,-1.631,-101.382
 13:09:16.170,eb:33:2e:f9:57:b5, 2015-01-01 00:53:48.295,0.031,0.082,0.994,0.61,0.488,0.061, , , , , , ,4.658,-1.631,-101.382
 13:09:16.170,eb:33:2e:f9:57:b5, 2015-01-01 00:53:48.295,0.031,0.08,0.995,0.732,0.549,0.122, , , , , , ,4.658,-1.631,-101.382
 13:09:16.170,eb:33:2e:f9:57:b5, 2015-01-01 00:53:48.295,0.031,0.08,0.994,0.854,0.61,0.183, , , , , , ,4.658,-1.631,-101.382
 13:09:16.170,eb:33:2e:f9:57:b5, 2015-01-01 00:53:48.295,0.031,0.082,0.995,0.854,0.61,0.183, , , , , , ,4.658,-1.631,-101.382
 13:09:16.170,eb:33:2e:f9:57:b5, 2015-01-01 00:53:48.295,0.03,0.082,0.994,0.916,0.61,0.122, , , , , , ,4.658,-1.631,-101.382
 13:09:16.170,eb:33:2e:f9:57:b5, 2015-01-01 00:53:48.295,0.029,0.082,0.993,0.916,0.671,0.122, , , , , , ,4.658,-1.631,-101.382
 13:09:16.215,eb:33:2e:f9:57:b5, 2015-01-01 00:53:48.295,0.029,0.081,0.992,0.977,0.549,0.122, , , , , , ,4.658,-1.631,-101.382
 13:09:16.215,eb:33:2e:f9:57:b5, 2015-01-01 00:53:48.295,0.03,0.082,0.993,0.977,0.488,0.183, , , , , , ,4.658,-1.631,-101.382
 13:09:16.215,eb:33:2e:f9:57:b5, 2015-01-01 00:53:48.295,0.03,0.083,0.993,0.977,0.488,0.183, , , , , , ,4.658,-1.631,-101.387
 13:09:16.215,eb:33:2e:f9:57:b5, 2015-01-01 00:53:48.295,0.029,0.083,0.992,0.916,0.488,0.183, , , , , , ,4.658,-1.631,-101.387
 13:09:16.215,eb:33:2e:f9:57:b5, 2015-01-01 00:53:48.295,0.029,0.083,0.992,1.038,0.488,0.244, , , , , , ,4.658,-1.631,-101.387
 13:09:16.215,eb:33:2e:f9:57:b5, 2015-01-01 00:53:48.295,0.031,0.083,0.993,0.916,0.488,0.183, , , , , , ,4.658,-1.631,-101.387
 13:09:16.215,eb:33:2e:f9:57:b5, 2015-01-01 00:53:48.295,0.029,0.084,0.993,0.916,0.488,0.122, , , , , , ,4.658,-1.631,-101.387
 13:09:16.215,eb:33:2e:f9:57:b5, 2015-01-01 00:53:48.295,0.029,0.084,0.992,0.916,0.549,0.183, , , , , , ,4.658,-1.631,-101.387
 13:09:16.237,eb:33:2e:f9:57:b5, 2015-01-01 00:53:48.295,0.029,0.084,0.992,0.916,0.488,0.183, , , , , , ,4.658,-1.637,-101.387
 13:09:16.237,eb:33:2e:f9:57:b5, 2015-01-01 00:53:48.295,0.029,0.084,0.992,0.854,0.488,0.122, , , , , , ,4.658,-1.637,-101.387
 13:09:16.237,eb:33:2e:f9:57:b5, 2015-01-01 00:53:48.295,0.029,0.084,0.993,0.793,0.549,0.122, , , , , , ,4.658,-1.631,-101.387
 13:09:16.237,eb:33:2e:f9:57:b5, 2015-01-01 00:53:48.295,0.029,0.085,0.992,0.732,0.549,0.122, , , , , , ,4.658,-1.631,-101.387
 13:09:16.237,eb:33:2e:f9:57:b5, 2015-01-01 00:53:48.295,0.03,0.084,0.991,0.793,0.549,0.122, , , , , , ,4.658,-1.637,-101.387
 13:09:16.237,eb:33:2e:f9:57:b5, 2015-01-01 00:53:48.295,0.029,0.084,0.992,0.671,0.488,0.122, , , , , , ,4.658,-1.637,-101.387
 13:09:16.237,eb:33:2e:f9:57:b5, 2015-01-01 00:53:48.295,0.029,0.084,0.992,0.671,0.549,0.061, , , , , , ,4.658,-1.637,-101.393
 13:09:16.237,eb:33:2e:f9:57:b5, 2015-01-01 00:53:48.295,0.029,0.084,0.992,0.61,0.488,0, , , , , , ,4.658,-1.637,-101.393
 13:09:16.283,eb:33:2e:f9:57:b5, 2015-01-01 00:53:48.610,0.028,0.084,0.992,0.61,0.549,0, , , , , , ,4.664,-1.637,-101.393
 13:09:16.283,eb:33:2e:f9:57:b5, 2015-01-01 00:53:48.610,0.029,0.083,0.993,0.61,0.549,0.061, , , , , , ,4.664,-1.637,-101.393
 13:09:16.283,eb:33:2e:f9:57:b5, 2015-01-01 00:53:48.610,0.029,0.083,0.993,0.61,0.488,0.061, , , , , , ,4.664,-1.637,-101.393
 13:09:16.283,eb:33:2e:f9:57:b5, 2015-01-01 00:53:48.610,0.028,0.084,0.993,0.61,0.488,0.061, , , , , , ,4.664,-1.637,-101.393
 13:09:16.283,eb:33:2e:f9:57:b5, 2015-01-01 00:53:48.610,0.029,0.084,0.992,0.549,0.488,0.061, , , , , , ,4.664,-1.637,-101.393
 13:09:16.283,eb:33:2e:f9:57:b5, 2015-01-01 00:53:48.610,0.029,0.084,0.992,0.549,0.366,0, , , , , , ,4.664,-1.637,-101.393
 13:09:16.283,eb:33:2e:f9:57:b5, 2015-01-01 00:53:48.610,0.029,0.085,0.992,0.549,0.366,0, , , , , , ,4.664,-1.637,-101.393
 13:09:16.283,eb:33:2e:f9:57:b5, 2015-01-01 00:53:48.610,0.028,0.083,0.993,0.549,0.366,0, , , , , , ,4.664,-1.637,-101.393
 13:09:16.326,eb:33:2e:f9:57:b5, 2015-01-01 00:53:48.610,0.029,0.085,0.994,0.549,0.427,0, , , , , , ,4.664,-1.637,-101.393
 13:09:16.326,eb:33:2e:f9:57:b5, 2015-01-01 00:53:48.610,0.03,0.084,0.994,0.488,0.549,0, , , , , , ,4.664,-1.637,-101.393
 13:09:16.326,eb:33:2e:f9:57:b5, 2015-01-01 00:53:48.610,0.03,0.083,0.995,0.549,0.488,0.061, , , , , , ,4.664,-1.637,-101.398
 13:09:16.326,eb:33:2e:f9:57:b5, 2015-01-01 00:53:48.610,0.03,0.083,0.993,0.61,0.549,0.061, , , , , , ,4.664,-1.637,-101.398
 13:09:16.326,eb:33:2e:f9:57:b5, 2015-01-01 00:53:48.610,0.029,0.084,0.994,0.61,0.61,0, , , , , , ,4.664,-1.637,-101.398
 13:09:16.326,eb:33:2e:f9:57:b5, 2015-01-01 00:53:48.610,0.028,0.085,0.993,0.549,0.671,0, , , , , , ,4.664,-1.637,-101.398
 13:09:16.326,eb:33:2e:f9:57:b5, 2015-01-01 00:53:48.610,0.027,0.085,0.992,0.549,0.671,0, , , , , , ,4.664,-1.637,-101.398
 13:09:16.326,eb:33:2e:f9:57:b5, 2015-01-01 00:53:48.610,0.028,0.084,0.992,0.488,0.671,-0.061, , , , , , ,4.664,-1.637,-101.398
 13:09:16.372,eb:33:2e:f9:57:b5, 2015-01-01 00:53:48.610,0.028,0.085,0.992,0.488,0.61,0, , , , , , ,4.664,-1.637,-101.398
 13:09:16.372,eb:33:2e:f9:57:b5, 2015-01-01 00:53:48.610,0.029,0.085,0.992,0.427,0.549,0, , , , , , ,4.664,-1.637,-101.398
 13:09:16.372,eb:33:2e:f9:57:b5, 2015-01-01 00:53:48.610,0.028,0.084,0.993,0.427,0.549,-0.061, , , , , , ,4.664,-1.637,-101.398
 13:09:16.372,eb:33:2e:f9:57:b5, 2015-01-01 00:53:48.610,0.028,0.084,0.993,0.427,0.61,0, , , , , , ,4.664,-1.637,-101.398
 13:09:16.372,eb:33:2e:f9:57:b5, 2015-01-01 00:53:48.610,0.028,0.084,0.992,0.427,0.549,0, , , , , , ,4.669,-1.637,-101.398
 13:09:16.372,eb:33:2e:f9:57:b5, 2015-01-01 00:53:48.610,0.028,0.085,0.992,0.427,0.549,0, , , , , , ,4.669,-1.637,-101.398
 13:09:16.372,eb:33:2e:f9:57:b5, 2015-01-01 00:53:48.610,0.028,0.086,0.993,0.366,0.549,0, , , , , , ,4.669,-1.637,-101.404
 13:09:16.372,eb:33:2e:f9:57:b5, 2015-01-01 00:53:48.610,0.027,0.085,0.992,0.366,0.61,-0.061, , , , , , ,4.669,-1.637,-101.404
 13:09:16.394,eb:33:2e:f9:57:b5, 2015-01-01 00:53:48.610,0.028,0.085,0.992,0.366,0.488,0, , , , , , ,4.669,-1.637,-101.404
 13:09:16.394,eb:33:2e:f9:57:b5, 2015-01-01 00:53:48.610,0.027,0.085,0.991,0.305,0.488,-0.061, , , , , , ,4.669,-1.637,-101.404
 13:09:16.394,eb:33:2e:f9:57:b5, 2015-01-01 00:53:48.610,0.028,0.085,0.992,0.244,0.488,0, , , , , , ,4.669,-1.637,-101.404
 13:09:16.394,eb:33:2e:f9:57:b5, 2015-01-01 00:53:48.610,0.028,0.085,0.991,0.183,0.366,-0.061, , , , , , ,4.669,-1.637,-101.404
 13:09:16.394,eb:33:2e:f9:57:b5, 2015-01-01 00:53:48.610,0.027,0.085,0.991,0.122,0.305,-0.061, , , , , , ,4.669,-1.637,-101.404
 13:09:16.394,eb:33:2e:f9:57:b5, 2015-01-01 00:53:48.610,0.028,0.085,0.991,0.061,0.183,0, , , , , , ,4.669,-1.637,-101.404
 13:09:16.394,eb:33:2e:f9:57:b5, 2015-01-01 00:53:48.610,0.028,0.086,0.992,0.061,0.183,0, , , , , , ,4.669,-1.637,-101.404
 13:09:16.394,eb:33:2e:f9:57:b5, 2015-01-01 00:53:48.610,0.028,0.086,0.991,0,0.122,0, , , , , , ,4.669,-1.637,-101.404
 13:09:16.440,eb:33:2e:f9:57:b5, 2015-01-01 00:53:48.610,0.028,0.085,0.992,0,0.122,0, , , , , , ,4.669,-1.637,-101.404
 13:09:16.440,eb:33:2e:f9:57:b5, 2015-01-01 00:53:48.610,0.027,0.085,0.991,0,0.122,0, , , , , , ,4.669,-1.637,-101.404
 13:09:16.440,eb:33:2e:f9:57:b5, 2015-01-01 00:53:48.610,0.029,0.085,0.991,-0.061,0.061,0, , , , , , ,4.675,-1.637,-101.409
 13:09:16.440,eb:33:2e:f9:57:b5, 2015-01-01 00:53:48.610,0.029,0.084,0.992,-0.122,0.061,0, , , , , , ,4.675,-1.637,-101.409
 13:09:16.440,eb:33:2e:f9:57:b5, 2015-01-01 00:53:48.610,0.029,0.085,0.992,-0.061,0.061,0, , , , , , ,4.675,-1.637,-101.409
 13:09:16.440,eb:33:2e:f9:57:b5, 2015-01-01 00:53:48.610,0.029,0.085,0.993,-0.061,0.122,0, , , , , , ,4.675,-1.637,-101.409
 13:09:16.440,eb:33:2e:f9:57:b5, 2015-01-01 00:53:48.610,0.028,0.086,0.993,0,0.122,0, , , , , , ,4.675,-1.637,-101.409
 13:09:16.440,eb:33:2e:f9:57:b5, 2015-01-01 00:53:48.610,0.028,0.085,0.993,-0.061,0.122,0, , , , , , ,4.675,-1.637,-101.409
 13:09:16.489,eb:33:2e:f9:57:b5, 2015-01-01 00:53:48.610,0.027,0.084,0.994,0,0.244,0, , , , , , ,4.675,-1.637,-101.409
 13:09:16.489,eb:33:2e:f9:57:b5, 2015-01-01 00:53:48.610,0.028,0.085,0.994,0,0.183,0, , , , , , ,4.675,-1.637,-101.409
 13:09:16.489,eb:33:2e:f9:57:b5, 2015-01-01 00:53:48.610,0.028,0.084,0.995,0,0.183,0, , , , , , ,4.675,-1.637,-101.409
 13:09:16.489,eb:33:2e:f9:57:b5, 2015-01-01 00:53:48.610,0.028,0.085,0.994,0,0.305,0, , , , , , ,4.675,-1.637,-101.409
 13:09:16.489,eb:33:2e:f9:57:b5, 2015-01-01 00:53:48.610,0.027,0.084,0.994,0.061,0.305,0, , , , , , ,4.675,-1.637,-101.409
 13:09:16.489,eb:33:2e:f9:57:b5, 2015-01-01 00:53:48.610,0.028,0.084,0.993,0.061,0.305,-0.061, , , , , , ,4.675,-1.637,-101.409
 13:09:16.489,eb:33:2e:f9:57:b5, 2015-01-01 00:53:48.610,0.028,0.084,0.994,0.061,0.305,-0.061, , , , , , ,4.675,-1.637,-101.409
 13:09:16.489,eb:33:2e:f9:57:b5, 2015-01-01 00:53:48.610,0.027,0.083,0.994,0.061,0.305,0, , , , , , ,4.675,-1.637,-101.409
 13:09:16.531,eb:33:2e:f9:57:b5, 2015-01-01 00:53:48.610,0.027,0.083,0.994,0.183,0.366,0, , , , , , ,4.68,-1.637,-101.409
 13:09:16.531,eb:33:2e:f9:57:b5, 2015-01-01 00:53:48.610,0.027,0.084,0.993,0.183,0.366,0, , , , , , ,4.68,-1.637,-101.409
 13:09:16.531,eb:33:2e:f9:57:b5, 2015-01-01 00:53:48.610,0.027,0.084,0.994,0.244,0.427,0, , , , , , ,4.68,-1.637,-101.415
 13:09:16.531,eb:33:2e:f9:57:b5, 2015-01-01 00:53:48.610,0.027,0.084,0.993,0.305,0.427,0, , , , , , ,4.68,-1.637,-101.415
 13:09:16.531,eb:33:2e:f9:57:b5, 2015-01-01 00:53:48.610,0.027,0.084,0.994,0.366,0.427,0, , , , , , ,4.68,-1.637,-101.415
 13:09:16.531,eb:33:2e:f9:57:b5, 2015-01-01 00:53:48.610,0.028,0.083,0.995,0.366,0.488,0, , , , , , ,4.68,-1.637,-101.415
 13:09:16.531,eb:33:2e:f9:57:b5, 2015-01-01 00:53:48.610,0.027,0.084,0.995,0.427,0.488,0.061, , , , , , ,4.68,-1.637,-101.415
 13:09:16.531,eb:33:2e:f9:57:b5, 2015-01-01 00:53:48.610,0.027,0.085,0.995,0.549,0.488,0, , , , , , ,4.68,-1.637,-101.415
 13:09:16.575,eb:33:2e:f9:57:b5, 2015-01-01 00:53:48.920,0.027,0.084,0.995,0.61,0.549,0, , , , , , ,4.68,-1.637,-101.415
 13:09:16.575,eb:33:2e:f9:57:b5, 2015-01-01 00:53:48.920,0.028,0.083,0.994,0.61,0.61,0, , , , , , ,4.68,-1.637,-101.415
 13:09:16.575,eb:33:2e:f9:57:b5, 2015-01-01 00:53:48.920,0.028,0.084,0.994,0.61,0.671,0, , , , , , ,4.68,-1.637,-101.415
 13:09:16.575,eb:33:2e:f9:57:b5, 2015-01-01 00:53:48.920,0.027,0.086,0.994,0.671,0.671,0, , , , , , ,4.68,-1.637,-101.415
 13:09:16.575,eb:33:2e:f9:57:b5, 2015-01-01 00:53:48.920,0.027,0.086,0.993,0.61,0.671,0, , , , , , ,4.68,-1.637,-101.415
 13:09:16.575,eb:33:2e:f9:57:b5, 2015-01-01 00:53:48.920,0.027,0.086,0.993,0.671,0.671,0, , , , , , ,4.68,-1.637,-101.415
 13:09:16.575,eb:33:2e:f9:57:b5, 2015-01-01 00:53:48.920,0.027,0.085,0.993,0.671,0.61,0, , , , , , ,4.68,-1.637,-101.42
 13:09:16.575,eb:33:2e:f9:57:b5, 2015-01-01 00:53:48.920,0.027,0.085,0.992,0.671,0.61,0, , , , , , ,4.68,-1.637,-101.42
 13:09:16.597,eb:33:2e:f9:57:b5, 2015-01-01 00:53:48.920,0.027,0.085,0.992,0.61,0.61,0, , , , , , ,4.686,-1.637,-101.42
 13:09:16.597,eb:33:2e:f9:57:b5, 2015-01-01 00:53:48.920,0.027,0.086,0.992,0.61,0.488,0, , , , , , ,4.686,-1.637,-101.42
 13:09:16.597,eb:33:2e:f9:57:b5, 2015-01-01 00:53:48.920,0.027,0.086,0.993,0.61,0.488,0, , , , , , ,4.686,-1.631,-101.42
 13:09:16.597,eb:33:2e:f9:57:b5, 2015-01-01 00:53:48.920,0.026,0.086,0.992,0.61,0.488,0, , , , , , ,4.686,-1.631,-101.42
 13:09:16.597,eb:33:2e:f9:57:b5, 2015-01-01 00:53:48.920,0.026,0.087,0.992,0.549,0.488,0, , , , , , ,4.686,-1.631,-101.42
 13:09:16.597,eb:33:2e:f9:57:b5, 2015-01-01 00:53:48.920,0.026,0.087,0.992,0.427,0.488,0, , , , , , ,4.686,-1.631,-101.42
 13:09:16.597,eb:33:2e:f9:57:b5, 2015-01-01 00:53:48.920,0.026,0.086,0.99,0.488,0.366,-0.061, , , , , , ,4.686,-1.631,-101.42
 13:09:16.597,eb:33:2e:f9:57:b5, 2015-01-01 00:53:48.920,0.03,0.086,0.991,0.366,0.427,-0.061, , , , , , ,4.686,-1.631,-101.42
 13:09:16.642,eb:33:2e:f9:57:b5, 2015-01-01 00:53:48.920,0.028,0.086,0.993,0.305,0.549,-0.061, , , , , , ,4.686,-1.631,-101.42
 13:09:16.642,eb:33:2e:f9:57:b5, 2015-01-01 00:53:48.920,0.027,0.087,0.993,0.244,0.671,0, , , , , , ,4.686,-1.631,-101.42
 13:09:16.642,eb:33:2e:f9:57:b5, 2015-01-01 00:53:48.920,0.027,0.087,0.993,0.244,0.671,-0.061, , , , , , ,4.686,-1.631,-101.42
 13:09:16.642,eb:33:2e:f9:57:b5, 2015-01-01 00:53:48.920,0.027,0.086,0.993,0.305,0.671,-0.061, , , , , , ,4.686,-1.631,-101.42
 13:09:16.642,eb:33:2e:f9:57:b5, 2015-01-01 00:53:48.920,0.027,0.086,0.992,0.244,0.732,-0.061, , , , , , ,4.686,-1.631,-101.42
 13:09:16.642,eb:33:2e:f9:57:b5, 2015-01-01 00:53:48.920,0.025,0.086,0.993,0.244,0.732,-0.122, , , , , , ,4.686,-1.631,-101.42
 13:09:16.642,eb:33:2e:f9:57:b5, 2015-01-01 00:53:48.920,0.025,0.086,0.992,0.122,0.671,-0.122, , , , , , ,4.686,-1.631,-101.426
 13:09:16.643,eb:33:2e:f9:57:b5, 2015-01-01 00:53:48.920,0.026,0.086,0.991,0.122,0.61,-0.061, , , , , , ,4.686,-1.631,-101.426
 13:09:16.688,eb:33:2e:f9:57:b5, 2015-01-01 00:53:48.920,0.026,0.086,0.992,0.122,0.61,-0.061, , , , , , ,4.691,-1.631,-101.426
 13:09:16.688,eb:33:2e:f9:57:b5, 2015-01-01 00:53:48.920,0.025,0.086,0.992,0.122,0.549,-0.122, , , , , , ,4.691,-1.631,-101.426
 13:09:16.688,eb:33:2e:f9:57:b5, 2015-01-01 00:53:48.920,0.025,0.087,0.992,0.061,0.549,-0.122, , , , , , ,4.691,-1.631,-101.426
 13:09:16.688,eb:33:2e:f9:57:b5, 2015-01-01 00:53:48.920,0.025,0.086,0.991,0.061,0.366,-0.061, , , , , , ,4.691,-1.631,-101.426
 13:09:16.688,eb:33:2e:f9:57:b5, 2015-01-01 00:53:48.920,0.025,0.086,0.992,0.061,0.366,-0.122, , , , , , ,4.691,-1.631,-101.426
 13:09:16.688,eb:33:2e:f9:57:b5, 2015-01-01 00:53:48.920,0.025,0.086,0.992,0.061,0.305,0, , , , , , ,4.691,-1.631,-101.426
 13:09:16.688,eb:33:2e:f9:57:b5, 2015-01-01 00:53:48.920,0.026,0.086,0.993,0.061,0.244,-0.061, , , , , , ,4.691,-1.631,-101.426
 13:09:16.688,eb:33:2e:f9:57:b5, 2015-01-01 00:53:48.920,0.025,0.087,0.992,0,0.244,-0.061, , , , , , ,4.691,-1.631,-101.426
 13:09:16.732,eb:33:2e:f9:57:b5, 2015-01-01 00:53:48.920,0.026,0.087,0.991,0,0.244,0, , , , , , ,4.691,-1.631,-101.426
 13:09:16.732,eb:33:2e:f9:57:b5, 2015-01-01 00:53:48.920,0.026,0.087,0.992,0,0.183,-0.061, , , , , , ,4.691,-1.631,-101.426
 13:09:16.732,eb:33:2e:f9:57:b5, 2015-01-01 00:53:48.920,0.026,0.087,0.992,0,0.183,-0.061, , , , , , ,4.691,-1.631,-101.426
 13:09:16.732,eb:33:2e:f9:57:b5, 2015-01-01 00:53:48.920,0.026,0.086,0.992,-0.061,0.183,0, , , , , , ,4.691,-1.631,-101.426
 13:09:16.732,eb:33:2e:f9:57:b5, 2015-01-01 00:53:48.920,0.026,0.085,0.992,-0.061,0.183,0, , , , , , ,4.697,-1.631,-101.426
 13:09:16.732,eb:33:2e:f9:57:b5, 2015-01-01 00:53:48.920,0.026,0.086,0.992,-0.122,0.183,0, , , , , , ,4.697,-1.631,-101.426
 13:09:16.732,eb:33:2e:f9:57:b5, 2015-01-01 00:53:48.920,0.026,0.087,0.992,-0.183,0.183,0, , , , , , ,4.697,-1.631,-101.431
 13:09:16.732,eb:33:2e:f9:57:b5, 2015-01-01 00:53:48.920,0.026,0.087,0.993,-0.122,0.122,0, , , , , , ,4.697,-1.631,-101.431
 13:09:16.778,eb:33:2e:f9:57:b5, 2015-01-01 00:53:48.920,0.026,0.086,0.993,-0.122,0.122,-0.061, , , , , , ,4.697,-1.631,-101.431
 13:09:16.778,eb:33:2e:f9:57:b5, 2015-01-01 00:53:48.920,0.026,0.086,0.993,-0.122,0.122,-0.061, , , , , , ,4.697,-1.631,-101.431
 13:09:16.778,eb:33:2e:f9:57:b5, 2015-01-01 00:53:48.920,0.026,0.086,0.993,-0.061,0.122,-0.061, , , , , , ,4.697,-1.631,-101.431
 13:09:16.778,eb:33:2e:f9:57:b5, 2015-01-01 00:53:48.920,0.024,0.085,0.994,-0.122,0.122,-0.061, , , , , , ,4.697,-1.631,-101.431
