Time,Device name,Chip Time(),Acceleration X(g),Acceleration Y(g),Acceleration Z(g),Angular velocity X(°/s),Angular velocity Y(°/s),Angular velocity Z(°/s),ShiftX(mm),ShiftY(mm),ShiftZ(mm),SpeedX(mm/s),SpeedY(mm/s),SpeedZ(mm/s),Angle X(°),Angle Y(°),Angle Z(°)
 13:11:50.142,eb:33:2e:f9:57:b5, 2015-01-01 00:56:21.275,0.097,0.037,1.001,1.831,4.15,0.549, , , , , , ,2.247,-5.614,-111.028
 13:11:50.142,eb:33:2e:f9:57:b5, 2015-01-01 00:56:21.275,0.094,0.032,1.006,1.953,5.066,0.61, , , , , , ,2.258,-5.587,-111.022
 13:11:50.142,eb:33:2e:f9:57:b5, 2015-01-01 00:56:21.275,0.094,0.034,1.006,2.258,5.615,0.61, , , , , , ,2.269,-5.565,-111.022
 13:11:50.142,eb:33:2e:f9:57:b5, 2015-01-01 00:56:21.275,0.09,0.034,1.002,2.563,5.981,0.427, , , , , , ,2.28,-5.532,-111.017
 13:11:50.142,eb:33:2e:f9:57:b5, 2015-01-01 00:56:21.275,0.089,0.034,0.994,2.93,5.432,0.61, , , , , , ,2.296,-5.504,-111.011
 13:11:50.142,eb:33:2e:f9:57:b5, 2015-01-01 00:56:21.275,0.089,0.033,0.992,2.991,5.615,0.732, , , , , , ,2.307,-5.477,-111.006
 13:11:50.143,eb:33:2e:f9:57:b5, 2015-01-01 00:56:21.275,0.086,0.038,0.994,3.052,5.554,0.793, , , , , , ,2.324,-5.449,-111
 13:11:50.143,eb:33:2e:f9:57:b5, 2015-01-01 00:56:21.275,0.082,0.037,0.997,3.113,5.92,0.854, , , , , , ,2.34,-5.422,-110.995
 13:11:50.231,eb:33:2e:f9:57:b5, 2015-01-01 00:56:21.275,0.093,0.039,0.986,3.235,5.31,1.038, , , , , , ,2.357,-5.389,-110.989
 13:11:50.231,eb:33:2e:f9:57:b5, 2015-01-01 00:56:21.275,0.087,0.04,1.006,3.357,6.104,1.038, , , , , , ,2.373,-5.361,-110.984
 13:11:50.231,eb:33:2e:f9:57:b5, 2015-01-01 00:56:21.275,0.085,0.042,0.995,3.418,5.798,1.221, , , , , , ,2.39,-5.334,-110.978
 13:11:50.231,eb:33:2e:f9:57:b5, 2015-01-01 00:56:21.275,0.092,0.038,0.984,3.479,5.31,1.465, , , , , , ,2.406,-5.306,-110.967
 13:11:50.231,eb:33:2e:f9:57:b5, 2015-01-01 00:56:21.275,0.087,0.042,0.996,3.357,6.531,1.282, , , , , , ,2.422,-5.279,-110.962
 13:11:50.231,eb:33:2e:f9:57:b5, 2015-01-01 00:56:21.275,0.079,0.043,0.981,3.113,6.592,1.282, , , , , , ,2.439,-5.246,-110.951
 13:11:50.231,eb:33:2e:f9:57:b5, 2015-01-01 00:56:21.275,0.082,0.043,0.975,2.93,5.859,1.343, , , , , , ,2.45,-5.213,-110.945
 13:11:50.231,eb:33:2e:f9:57:b5, 2015-01-01 00:56:21.275,0.08,0.042,0.97,2.747,4.761,1.587, , , , , , ,2.466,-5.186,-110.934
 13:11:50.234,eb:33:2e:f9:57:b5, 2015-01-01 00:56:21.275,0.063,0.041,0.971,2.38,3.479,1.77, , , , , , ,2.477,-5.169,-110.923
 13:11:50.234,eb:33:2e:f9:57:b5, 2015-01-01 00:56:21.275,0.07,0.048,0.969,2.014,2.258,1.709, , , , , , ,2.488,-5.158,-110.912
 13:11:50.234,eb:33:2e:f9:57:b5, 2015-01-01 00:56:21.275,0.094,0.043,0.957,1.831,0.732,2.319, , , , , , ,2.494,-5.153,-110.907
 13:11:50.234,eb:33:2e:f9:57:b5, 2015-01-01 00:56:21.275,0.085,0.048,0.983,1.16,2.869,1.343, , , , , , ,2.505,-5.136,-110.896
 13:11:50.234,eb:33:2e:f9:57:b5, 2015-01-01 00:56:21.275,0.071,0.041,0.994,1.221,3.296,0.916, , , , , , ,2.51,-5.125,-110.891
 13:11:50.234,eb:33:2e:f9:57:b5, 2015-01-01 00:56:21.275,0.081,0.042,0.965,1.404,1.648,0.732, , , , , , ,2.516,-5.114,-110.885
 13:11:50.234,eb:33:2e:f9:57:b5, 2015-01-01 00:56:21.275,0.08,0.045,0.979,1.526,1.099,0.427, , , , , , ,2.521,-5.109,-110.885
 13:11:50.234,eb:33:2e:f9:57:b5, 2015-01-01 00:56:21.275,0.075,0.043,0.981,1.404,0.977,0.244, , , , , , ,2.532,-5.098,-110.88
 13:11:50.277,eb:33:2e:f9:57:b5, 2015-01-01 00:56:21.275,0.074,0.046,0.973,1.343,0.244,0, , , , , , ,2.538,-5.098,-110.88
 13:11:50.277,eb:33:2e:f9:57:b5, 2015-01-01 00:56:21.275,0.076,0.048,0.975,1.221,-0.427,-0.366, , , , , , ,2.543,-5.098,-110.88
 13:11:50.277,eb:33:2e:f9:57:b5, 2015-01-01 00:56:21.275,0.074,0.047,0.978,0.977,-1.221,-0.671, , , , , , ,2.549,-5.098,-110.885
 13:11:50.277,eb:33:2e:f9:57:b5, 2015-01-01 00:56:21.275,0.082,0.048,0.988,0.793,-1.221,-1.221, , , , , , ,2.554,-5.109,-110.891
 13:11:50.277,eb:33:2e:f9:57:b5, 2015-01-01 00:56:21.275,0.089,0.049,0.987,0.61,-0.977,-1.709, , , , , , ,2.56,-5.114,-110.901
 13:11:50.277,eb:33:2e:f9:57:b5, 2015-01-01 00:56:21.275,0.095,0.048,0.983,0.549,-1.709,-1.892, , , , , , ,2.565,-5.12,-110.907
 13:11:50.277,eb:33:2e:f9:57:b5, 2015-01-01 00:56:21.275,0.089,0.053,0.998,0.305,-1.099,-2.197, , , , , , ,2.565,-5.12,-110.918
 13:11:50.277,eb:33:2e:f9:57:b5, 2015-01-01 00:56:21.275,0.085,0.043,0.995,0.183,-0.244,-2.441, , , , , , ,2.571,-5.125,-110.934
 13:11:50.322,eb:33:2e:f9:57:b5, 2015-01-01 00:56:21.275,0.103,0.043,0.988,0.183,0.305,-2.93, , , , , , ,2.571,-5.125,-110.945
 13:11:50.322,eb:33:2e:f9:57:b5, 2015-01-01 00:56:21.275,0.1,0.043,1.011,0.732,1.038,-3.418, , , , , , ,2.576,-5.12,-110.962
 13:11:50.322,eb:33:2e:f9:57:b5, 2015-01-01 00:56:21.275,0.105,0.033,1.004,1.343,0.549,-2.808, , , , , , ,2.582,-5.114,-110.978
 13:11:50.322,eb:33:2e:f9:57:b5, 2015-01-01 00:56:21.275,0.107,0.035,1.03,2.441,0.854,-2.441, , , , , , ,2.593,-5.109,-110.989
 13:11:50.322,eb:33:2e:f9:57:b5, 2015-01-01 00:56:21.275,0.119,0.033,1.037,3.784,1.404,-2.136, , , , , , ,2.609,-5.103,-111
 13:11:50.322,eb:33:2e:f9:57:b5, 2015-01-01 00:56:21.275,0.126,0.029,1.059,5.493,2.441,-1.648, , , , , , ,2.637,-5.092,-111.011
 13:11:50.322,eb:33:2e:f9:57:b5, 2015-01-01 00:56:21.275,0.141,0.027,1.08,7.812,3.723,-1.282, , , , , , ,2.67,-5.076,-111.017
 13:11:50.322,eb:33:2e:f9:57:b5, 2015-01-01 00:56:21.275,0.154,0.014,1.118,10.925,5.127,-0.732, , , , , , ,2.719,-5.054,-111.022
 13:11:50.344,eb:33:2e:f9:57:b5, 2015-01-01 00:56:21.275,0.162,0.015,1.131,13.733,7.996,0.061, , , , , , ,2.785,-5.021,-111.017
 13:11:50.344,eb:33:2e:f9:57:b5, 2015-01-01 00:56:21.275,0.19,0.015,1.154,16.479,11.658,0.671, , , , , , ,2.862,-4.971,-111.017
 13:11:50.344,eb:33:2e:f9:57:b5, 2015-01-01 00:56:21.275,0.226,0.03,1.203,19.592,16.663,0.916, , , , , , ,2.95,-4.894,-111.006
 13:11:50.344,eb:33:2e:f9:57:b5, 2015-01-01 00:56:21.275,0.249,0.01,1.31,23.499,24.536,0.793, , , , , , ,3.06,-4.796,-110.995
 13:11:50.344,eb:33:2e:f9:57:b5, 2015-01-01 00:56:21.275,0.271,0.018,1.302,27.222,32.837,1.282, , , , , , ,3.186,-4.642,-110.984
 13:11:50.344,eb:33:2e:f9:57:b5, 2015-01-01 00:56:21.275,0.303,0.024,1.354,32.104,40.833,1.16, , , , , , ,3.334,-4.46,-110.967
 13:11:50.344,eb:33:2e:f9:57:b5, 2015-01-01 00:56:21.275,0.38,0.026,1.504,38.635,51.025,-0.793, , , , , , ,3.516,-4.213,-110.951
 13:11:50.344,eb:33:2e:f9:57:b5, 2015-01-01 00:56:21.275,0.386,0.072,1.571,44.983,65.308,-7.202, , , , , , ,3.73,-3.917,-110.956
 13:11:50.388,eb:33:2e:f9:57:b5, 2015-01-01 00:56:21.275,0.43,0.045,1.554,51.514,74.219,-12.451, , , , , , ,3.977,-3.565,-110.984
 13:11:50.388,eb:33:2e:f9:57:b5, 2015-01-01 00:56:21.275,0.462,0.119,1.367,59.692,74.402,-18.188, , , , , , ,4.257,-3.175,-111.033
 13:11:50.388,eb:33:2e:f9:57:b5, 2015-01-01 00:56:21.275,0.307,0.213,1.381,67.444,71.289,-28.931, , , , , , ,4.587,-2.807,-111.127
 13:11:50.388,eb:33:2e:f9:57:b5, 2015-01-01 00:56:21.275,0.268,-0.018,1.864,76.233,85.632,-35.034, , , , , , ,4.955,-2.401,-111.264
 13:11:50.388,eb:33:2e:f9:57:b5, 2015-01-01 00:56:21.275,0.242,-0.076,1.804,86.487,96.375,-35.706, , , , , , ,5.372,-1.923,-111.396
 13:11:50.388,eb:33:2e:f9:57:b5, 2015-01-01 00:56:21.275,0.207,0.044,1.444,97.229,89.966,-38.94, , , , , , ,5.839,-1.439,-111.533
 13:11:50.388,eb:33:2e:f9:57:b5, 2015-01-01 00:56:21.275,0.245,0.058,1.438,108.765,76.294,-44.922, , , , , , ,6.367,-1.011,-111.703
 13:11:50.388,eb:33:2e:f9:57:b5, 2015-01-01 00:56:21.275,0.32,0.033,1.463,124.878,63.904,-49.133, , , , , , ,6.96,-0.632,-111.901
 13:11:50.434,eb:33:2e:f9:57:b5, 2015-01-01 00:56:21.610,0.351,0.131,1.247,138.367,43.701,-56.946, , , , , , ,7.625,-0.341,-112.132
 13:11:50.434,eb:33:2e:f9:57:b5, 2015-01-01 00:56:21.610,0.351,0.161,1.374,146.362,30.334,-66.528, , , , , , ,8.344,-0.126,-112.418
 13:11:50.434,eb:33:2e:f9:57:b5, 2015-01-01 00:56:21.610,0.314,0.029,1.766,151.367,35.034,-73.059, , , , , , ,9.091,0.082,-112.742
 13:11:50.434,eb:33:2e:f9:57:b5, 2015-01-01 00:56:21.610,0.328,-0.065,1.668,160.156,37.109,-75.806, , , , , , ,9.871,0.324,-113.082
 13:11:50.434,eb:33:2e:f9:57:b5, 2015-01-01 00:56:21.610,0.327,-0.044,1.518,167.358,38.208,-76.538, , , , , , ,10.695,0.582,-113.423
 13:11:50.434,eb:33:2e:f9:57:b5, 2015-01-01 00:56:21.610,0.314,-0.053,1.61,170.715,44.922,-77.209, , , , , , ,11.541,0.857,-113.763
 13:11:50.434,eb:33:2e:f9:57:b5, 2015-01-01 00:56:21.610,0.361,-0.093,1.757,172.729,57.8,-77.148, , , , , , ,12.393,1.192,-114.082
 13:11:50.434,eb:33:2e:f9:57:b5, 2015-01-01 00:56:21.610,0.495,-0.144,1.602,173.767,64.087,-78.918, , , , , , ,13.255,1.582,-114.395
 13:11:50.480,eb:33:2e:f9:57:b5, 2015-01-01 00:56:21.610,0.556,-0.081,1.314,173.523,62.805,-83.191, , , , , , ,14.112,1.994,-114.714
 13:11:50.480,eb:33:2e:f9:57:b5, 2015-01-01 00:56:21.610,0.715,-0.065,1.036,175.903,51.514,-91.064, , , , , , ,14.974,2.373,-115.071
 13:11:50.480,eb:33:2e:f9:57:b5, 2015-01-01 00:56:21.610,0.833,-0.262,0.682,170.471,33.081,-97.9, , , , , , ,15.826,2.697,-115.472
 13:11:50.480,eb:33:2e:f9:57:b5, 2015-01-01 00:56:21.610,0.797,-0.468,0.646,152.039,28.931,-105.164, , , , , , ,16.6,2.977,-115.928
 13:11:50.480,eb:33:2e:f9:57:b5, 2015-01-01 00:56:21.610,0.689,-0.941,0.76,132.812,37.781,-103.149, , , , , , ,17.276,3.296,-116.378
 13:11:50.480,eb:33:2e:f9:57:b5, 2015-01-01 00:56:21.610,0.744,-0.948,0.874,114.075,45.044,-95.337, , , , , , ,17.869,3.642,-116.785
 13:11:50.480,eb:33:2e:f9:57:b5, 2015-01-01 00:56:21.610,0.738,-1.56,0.554,81.299,50.232,-75.928, , , , , , ,18.32,4.01,-117.109
 13:11:50.480,eb:33:2e:f9:57:b5, 2015-01-01 00:56:21.610,0.821,-1.51,0.398,46.448,44.556,-53.101, , , , , , ,18.605,4.329,-117.328
 13:11:50.524,eb:33:2e:f9:57:b5, 2015-01-01 00:56:21.610,0.883,-1.534,0.372,15.93,39.001,-33.752, , , , , , ,18.732,4.592,-117.46
 13:11:50.524,eb:33:2e:f9:57:b5, 2015-01-01 00:56:21.610,0.92,-1.55,0.339,-5.493,35.4,-16.907, , , , , , ,18.737,4.801,-117.51
 13:11:50.524,eb:33:2e:f9:57:b5, 2015-01-01 00:56:21.610,0.97,-1.44,0.249,-17.456,28.442,-3.967, , , , , , ,18.671,4.966,-117.499
 13:11:50.524,eb:33:2e:f9:57:b5, 2015-01-01 00:56:21.610,1.001,-1.327,0.151,-21.79,15.747,4.211, , , , , , ,18.572,5.065,-117.46
 13:11:50.524,eb:33:2e:f9:57:b5, 2015-01-01 00:56:21.610,0.981,-1.225,0.019,-22.705,-3.174,9.338, , , , , , ,18.468,5.076,-117.416
 13:11:50.524,eb:33:2e:f9:57:b5, 2015-01-01 00:56:21.610,0.946,-1.172,-0.074,-24.231,-26.978,13.489, , , , , , ,18.347,4.971,-117.389
 13:11:50.524,eb:33:2e:f9:57:b5, 2015-01-01 00:56:21.610,0.883,-1.172,-0.019,-28.198,-47.913,17.639, , , , , , ,18.215,4.757,-117.372
 13:11:50.524,eb:33:2e:f9:57:b5, 2015-01-01 00:56:21.610,0.814,-1.188,0.113,-34.546,-62.805,22.522, , , , , , ,18.062,4.455,-117.367
 13:11:50.547,eb:33:2e:f9:57:b5, 2015-01-01 00:56:21.610,0.747,-1.194,0.292,-42.969,-69.885,28.381, , , , , , ,17.864,4.092,-117.345
 13:11:50.547,eb:33:2e:f9:57:b5, 2015-01-01 00:56:21.610,0.612,-1.186,0.439,-51.575,-70.862,34.912, , , , , , ,17.622,3.702,-117.301
 13:11:50.547,eb:33:2e:f9:57:b5, 2015-01-01 00:56:21.610,0.577,-1.168,0.692,-59.57,-64.636,41.199, , , , , , ,17.347,3.323,-117.219
 13:11:50.547,eb:33:2e:f9:57:b5, 2015-01-01 00:56:21.610,0.552,-1.087,0.611,-64.819,-64.392,47.546, , , , , , ,17.04,2.944,-117.098
 13:11:50.547,eb:33:2e:f9:57:b5, 2015-01-01 00:56:21.610,0.493,-1.003,0.657,-67.871,-62.744,52.063, , , , , , ,16.71,2.571,-116.955
 13:11:50.547,eb:33:2e:f9:57:b5, 2015-01-01 00:56:21.610,0.423,-0.935,0.678,-68.359,-64.575,55.176, , , , , , ,16.375,2.186,-116.785
 13:11:50.547,eb:33:2e:f9:57:b5, 2015-01-01 00:56:21.610,0.387,-0.858,0.694,-66.956,-68.909,58.167, , , , , , ,16.04,1.78,-116.603
 13:11:50.547,eb:33:2e:f9:57:b5, 2015-01-01 00:56:21.610,0.321,-0.798,0.777,-65.369,-71.106,62.073, , , , , , ,15.716,1.362,-116.411
 13:11:50.591,eb:33:2e:f9:57:b5, 2015-01-01 00:56:21.610,0.232,-0.77,0.832,-65.43,-72.266,65.247, , , , , , ,15.392,0.934,-116.197
 13:11:50.591,eb:33:2e:f9:57:b5, 2015-01-01 00:56:21.610,0.241,-0.659,0.828,-69.458,-78.735,71.289, , , , , , ,15.057,0.472,-115.966
 13:11:50.591,eb:33:2e:f9:57:b5, 2015-01-01 00:56:21.610,0.267,-0.626,0.735,-75.928,-93.079,76.904, , , , , , ,14.694,-0.033,-115.719
 13:11:50.591,eb:33:2e:f9:57:b5, 2015-01-01 00:56:21.610,0.269,-0.532,0.698,-87.402,-109.863,80.444, , , , , , ,14.277,-0.632,-115.466
 13:11:50.591,eb:33:2e:f9:57:b5, 2015-01-01 00:56:21.610,0.265,-0.505,0.757,-102.417,-127.136,85.571, , , , , , ,13.793,-1.318,-115.208
 13:11:50.591,eb:33:2e:f9:57:b5, 2015-01-01 00:56:21.610,0.25,-0.487,0.95,-119.324,-136.963,91.309, , , , , , ,13.217,-2.076,-114.933
 13:11:50.591,eb:33:2e:f9:57:b5, 2015-01-01 00:56:21.610,0.238,-0.456,1.207,-135.803,-136.597,96.497, , , , , , ,12.557,-2.851,-114.626
 13:11:50.591,eb:33:2e:f9:57:b5, 2015-01-01 00:56:21.610,0.213,-0.422,1.411,-150.146,-127.991,101.257, , , , , , ,11.816,-3.604,-114.274
 13:11:50.637,eb:33:2e:f9:57:b5, 2015-01-01 00:56:21.610,0.202,-0.331,1.518,-161.011,-116.943,104.797, , , , , , ,11.003,-4.296,-113.89
 13:11:50.637,eb:33:2e:f9:57:b5, 2015-01-01 00:56:21.610,0.2,-0.23,1.54,-167.664,-108.154,106.506, , , , , , ,10.135,-4.944,-113.467
 13:11:50.637,eb:33:2e:f9:57:b5, 2015-01-01 00:56:21.610,0.206,-0.136,1.502,-170.654,-103.455,106.14, , , , , , ,9.25,-5.554,-113.033
 13:11:50.637,eb:33:2e:f9:57:b5, 2015-01-01 00:56:21.610,0.205,-0.055,1.444,-171.387,-102.417,104.614, , , , , , ,8.35,-6.141,-112.588
 13:11:50.637,eb:33:2e:f9:57:b5, 2015-01-01 00:56:21.610,0.209,0.015,1.406,-170.837,-104.919,102.173, , , , , , ,7.443,-6.724,-112.143
 13:11:50.637,eb:33:2e:f9:57:b5, 2015-01-01 00:56:21.610,0.213,0.068,1.383,-169.739,-109.924,99.182, , , , , , ,6.531,-7.322,-111.709
 13:11:50.637,eb:33:2e:f9:57:b5, 2015-01-01 00:56:21.610,0.204,0.11,1.432,-167.969,-112.488,96.008, , , , , , ,5.63,-7.932,-111.281
 13:11:50.637,eb:33:2e:f9:57:b5, 2015-01-01 00:56:21.610,0.188,0.159,1.484,-165.833,-113.464,92.834, , , , , , ,4.741,-8.536,-110.858
 13:11:50.683,eb:33:2e:f9:57:b5, 2015-01-01 00:56:21.610,0.169,0.201,1.556,-163.391,-111.145,89.844, , , , , , ,3.851,-9.135,-110.44
 13:11:50.683,eb:33:2e:f9:57:b5, 2015-01-01 00:56:21.610,0.149,0.237,1.623,-160.706,-105.286,87.158, , , , , , ,2.972,-9.701,-110.028
 13:11:50.683,eb:33:2e:f9:57:b5, 2015-01-01 00:56:21.610,0.119,0.28,1.673,-156.921,-97.778,84.778, , , , , , ,2.104,-10.223,-109.616
 13:11:50.683,eb:33:2e:f9:57:b5, 2015-01-01 00:56:21.610,0.083,0.331,1.709,-151.978,-89.661,82.581, , , , , , ,1.258,-10.701,-109.204
 13:11:50.683,eb:33:2e:f9:57:b5, 2015-01-01 00:56:21.610,0.043,0.381,1.705,-146.301,-82.458,80.994, , , , , , ,0.439,-11.135,-108.798
 13:11:50.683,eb:33:2e:f9:57:b5, 2015-01-01 00:56:21.610,0,0.428,1.667,-140.93,-77.332,80.2, , , , , , ,-0.357,-11.53,-108.386
 13:11:50.683,eb:33:2e:f9:57:b5, 2015-01-01 00:56:21.610,-0.037,0.478,1.586,-137.817,-75.928,80.444, , , , , , ,-1.132,-11.904,-107.974
 13:11:50.683,eb:33:2e:f9:57:b5, 2015-01-01 00:56:21.610,-0.06,0.514,1.438,-139.648,-81.848,82.275, , , , , , ,-1.917,-12.288,-107.545
 13:11:50.705,eb:33:2e:f9:57:b5, 2015-01-01 00:56:21.925,-0.096,0.54,1.341,-146.423,-92.773,85.083, , , , , , ,-2.73,-12.711,-107.095
 13:11:50.705,eb:33:2e:f9:57:b5, 2015-01-01 00:56:21.925,-0.168,0.581,1.498,-160.278,-89.478,86.121, , , , , , ,-3.609,-13.151,-106.633
 13:11:50.705,eb:33:2e:f9:57:b5, 2015-01-01 00:56:21.925,-0.243,0.581,1.466,-171.448,-91.675,88.562, , , , , , ,-4.554,-13.59,-106.144
 13:11:50.705,eb:33:2e:f9:57:b5, 2015-01-01 00:56:21.925,-0.356,0.693,1.854,-183.899,-70.251,87.83, , , , , , ,-5.57,-13.936,-105.661
 13:11:50.705,eb:33:2e:f9:57:b5, 2015-01-01 00:56:21.925,-0.382,0.745,1.583,-181.885,-82.703,95.093, , , , , , ,-6.603,-14.304,-105.123
 13:11:50.706,eb:33:2e:f9:57:b5, 2015-01-01 00:56:21.925,-0.325,0.948,1.741,-178.284,-79.407,95.581, , , , , , ,-7.646,-14.656,-104.579
 13:11:50.706,eb:33:2e:f9:57:b5, 2015-01-01 00:56:21.925,-0.403,1.112,1.707,-174.561,-56.641,85.571, , , , , , ,-8.657,-14.914,-104.073
 13:11:50.706,eb:33:2e:f9:57:b5, 2015-01-01 00:56:21.925,-0.41,1.305,1.76,-165.588,-33.936,72.937, , , , , , ,-9.619,-15.062,-103.64
 13:11:50.749,eb:33:2e:f9:57:b5, 2015-01-01 00:56:21.925,-0.539,1.406,1.584,-154.419,-18.86,62.073, , , , , , ,-10.503,-15.128,-103.282
 13:11:50.749,eb:33:2e:f9:57:b5, 2015-01-01 00:56:21.925,-0.417,1.471,1.118,-144.47,-38.452,51.27, , , , , , ,-11.332,-15.244,-102.958
 13:11:50.749,eb:33:2e:f9:57:b5, 2015-01-01 00:56:21.925,-0.41,1.612,1.238,-137.207,-25.391,42.664, , , , , , ,-12.107,-15.342,-102.695
 13:11:50.749,eb:33:2e:f9:57:b5, 2015-01-01 00:56:21.925,-0.424,1.719,1.159,-124.695,-19.958,28.931, , , , , , ,-12.81,-15.408,-102.491
 13:11:50.749,eb:33:2e:f9:57:b5, 2015-01-01 00:56:21.925,-0.454,1.793,1.14,-111.206,-17.273,17.334, , , , , , ,-13.431,-15.474,-102.36
 13:11:50.749,eb:33:2e:f9:57:b5, 2015-01-01 00:56:21.925,-0.506,1.799,1.128,-95.093,-12.268,6.409, , , , , , ,-13.958,-15.535,-102.288
 13:11:50.749,eb:33:2e:f9:57:b5, 2015-01-01 00:56:21.925,-0.583,1.789,1.103,-76.355,-7.385,-3.662, , , , , , ,-14.381,-15.579,-102.277
 13:11:50.749,eb:33:2e:f9:57:b5, 2015-01-01 00:56:21.925,-0.662,1.766,1.08,-55.908,-4.395,-13.428, , , , , , ,-14.694,-15.617,-102.321
 13:11:50.793,eb:33:2e:f9:57:b5, 2015-01-01 00:56:21.925,-0.732,1.724,1.089,-35.95,-0.916,-21.423, , , , , , ,-14.886,-15.65,-102.409
 13:11:50.793,eb:33:2e:f9:57:b5, 2015-01-01 00:56:21.925,-0.783,1.664,1.111,-18.372,3.906,-27.771, , , , , , ,-14.98,-15.677,-102.535
 13:11:50.793,eb:33:2e:f9:57:b5, 2015-01-01 00:56:21.925,-0.787,1.567,1.137,-2.197,8.606,-31.189, , , , , , ,-14.98,-15.677,-102.7
 13:11:50.793,eb:33:2e:f9:57:b5, 2015-01-01 00:56:21.925,-0.813,1.494,1.319,8.972,26.855,-35.767, , , , , , ,-14.903,-15.634,-102.898
 13:11:50.793,eb:33:2e:f9:57:b5, 2015-01-01 00:56:21.925,-0.771,1.465,1.254,16.541,44.373,-38.452, , , , , , ,-14.771,-15.502,-103.14
 13:11:50.793,eb:33:2e:f9:57:b5, 2015-01-01 00:56:21.925,-0.707,1.41,1.173,24.963,54.504,-37.659, , , , , , ,-14.595,-15.298,-103.387
 13:11:50.793,eb:33:2e:f9:57:b5, 2015-01-01 00:56:21.925,-0.635,1.431,1.152,32.288,60.852,-41.382, , , , , , ,-14.376,-15.062,-103.656
 13:11:50.795,eb:33:2e:f9:57:b5, 2015-01-01 00:56:21.925,1.476,1.455,1.091,47.974,41.321,-54.138, , , , , , ,-14.106,-14.843,-103.969
 13:11:50.840,eb:33:2e:f9:57:b5, 2015-01-01 00:56:21.925,0.687,2.207,3.422,87.891,36.56,-132.935, , , , , , ,-13.579,-14.81,-104.524
 13:11:50.840,eb:33:2e:f9:57:b5, 2015-01-01 00:56:21.925,1.322,0.494,1.26,96.13,40.344,-160.583, , , , , , ,-12.909,-14.799,-105.337
 13:11:50.840,eb:33:2e:f9:57:b5, 2015-01-01 00:56:21.925,1.126,-0.513,1.99,101.746,106.75,-150.818, , , , , , ,-12.178,-14.573,-106.243
 13:11:50.840,eb:33:2e:f9:57:b5, 2015-01-01 00:56:21.925,1.293,-0.595,1.622,97.29,129.333,-147.522, , , , , , ,-11.459,-14.139,-107.111
 13:11:50.840,eb:33:2e:f9:57:b5, 2015-01-01 00:56:21.925,0.754,-0.892,1.419,108.582,145.813,-125.183, , , , , , ,-10.75,-13.585,-107.93
 13:11:50.840,eb:33:2e:f9:57:b5, 2015-01-01 00:56:21.925,0.631,-0.948,1.219,130.432,151.917,-101.379, , , , , , ,-9.981,-12.947,-108.622
 13:11:50.840,eb:33:2e:f9:57:b5, 2015-01-01 00:56:21.925,0.331,-0.77,1.045,146.667,151.245,-69.885, , , , , , ,-9.163,-12.266,-109.166
 13:11:50.840,eb:33:2e:f9:57:b5, 2015-01-01 00:56:21.925,0.176,-0.51,0.971,153.076,151.245,-38.269, , , , , , ,-8.328,-11.552,-109.534
 13:11:50.886,eb:33:2e:f9:57:b5, 2015-01-01 00:56:21.925,-0.065,-0.308,1.164,143.86,163.147,-11.169, , , , , , ,-7.537,-10.794,-109.753
 13:11:50.886,eb:33:2e:f9:57:b5, 2015-01-01 00:56:21.925,-0.107,-0.081,1.074,134.277,143.982,2.991, , , , , , ,-6.823,-10.047,-109.874
 13:11:50.886,eb:33:2e:f9:57:b5, 2015-01-01 00:56:21.925,-0.105,0.081,1.123,117.676,143.494,14.343, , , , , , ,-6.196,-9.316,-109.907
 13:11:50.886,eb:33:2e:f9:57:b5, 2015-01-01 00:56:21.925,-0.258,0.167,1.064,99.304,134.094,15.686, , , , , , ,-5.663,-8.619,-109.902
 13:11:50.886,eb:33:2e:f9:57:b5, 2015-01-01 00:56:21.925,-0.165,0.288,1.141,77.82,115.54,7.08, , , , , , ,-5.235,-7.998,-109.907
 13:11:50.886,eb:33:2e:f9:57:b5, 2015-01-01 00:56:21.925,-0.133,0.305,1.118,61.035,99.487,-2.869, , , , , , ,-4.894,-7.476,-109.946
 13:11:50.886,eb:33:2e:f9:57:b5, 2015-01-01 00:56:21.925,-0.139,0.164,1.063,51.025,91.248,-14.526, , , , , , ,-4.609,-6.998,-110.039
 13:11:50.886,eb:33:2e:f9:57:b5, 2015-01-01 00:56:21.925,-0.11,0.015,0.997,49.011,71.899,-17.456, , , , , , ,-4.351,-6.614,-110.16
 13:11:50.907,eb:33:2e:f9:57:b5, 2015-01-01 00:56:21.925,0.047,-0.095,0.96,48.95,53.223,-14.16, , , , , , ,-4.092,-6.328,-110.259
 13:11:50.907,eb:33:2e:f9:57:b5, 2015-01-01 00:56:21.925,0.145,-0.172,0.906,49.866,49.622,-8.545, , , , , , ,-3.84,-6.081,-110.325
 13:11:50.907,eb:33:2e:f9:57:b5, 2015-01-01 00:56:21.925,0.147,-0.179,0.948,48.462,56.824,0.732, , , , , , ,-3.593,-5.806,-110.352
 13:11:50.907,eb:33:2e:f9:57:b5, 2015-01-01 00:56:21.925,0.165,-0.078,1.007,47.119,42.297,10.681, , , , , , ,-3.351,-5.559,-110.33
 13:11:50.907,eb:33:2e:f9:57:b5, 2015-01-01 00:56:21.925,0.092,-0.002,1.014,41.138,46.631,13.672, , , , , , ,-3.142,-5.323,-110.286
 13:11:50.907,eb:33:2e:f9:57:b5, 2015-01-01 00:56:21.925,0.106,0.03,0.908,36.987,43.518,11.414, , , , , , ,-2.95,-5.098,-110.237
 13:11:50.907,eb:33:2e:f9:57:b5, 2015-01-01 00:56:21.925,-0.011,-0.006,1.021,33.508,54.199,5.127, , , , , , ,-2.78,-4.839,-110.215
 13:11:50.907,eb:33:2e:f9:57:b5, 2015-01-01 00:56:21.925,0.104,-0.083,0.813,36.621,45.288,2.136, , , , , , ,-2.604,-4.603,-110.209
 13:11:50.951,eb:33:2e:f9:57:b5, 2015-01-01 00:56:21.925,0.082,-0.07,0.89,35.706,51.086,2.502, , , , , , ,-2.422,-4.351,-110.209
 13:11:50.951,eb:33:2e:f9:57:b5, 2015-01-01 00:56:21.925,0.041,-0.001,0.845,33.264,45.776,4.578, , , , , , ,-2.252,-4.109,-110.204
 13:11:50.951,eb:33:2e:f9:57:b5, 2015-01-01 00:56:21.925,-0.036,0.113,0.887,25.452,46.387,4.7, , , , , , ,-2.104,-3.884,-110.187
 13:11:50.951,eb:33:2e:f9:57:b5, 2015-01-01 00:56:21.925,-0.084,0.176,0.832,16.113,36.987,3.479, , , , , , ,-2.01,-3.675,-110.176
 13:11:50.951,eb:33:2e:f9:57:b5, 2015-01-01 00:56:21.925,-0.042,0.112,0.828,9.888,22.278,4.333, , , , , , ,-1.95,-3.532,-110.16
 13:11:50.951,eb:33:2e:f9:57:b5, 2015-01-01 00:56:21.925,0.07,0.031,0.928,5.066,17.029,4.028, , , , , , ,-1.917,-3.439,-110.143
 13:11:50.951,eb:33:2e:f9:57:b5, 2015-01-01 00:56:21.925,0.059,0.015,1.054,1.526,21.484,3.54, , , , , , ,-1.906,-3.329,-110.132
 13:11:50.951,eb:33:2e:f9:57:b5, 2015-01-01 00:56:21.925,0.079,0.012,0.997,0.427,16.235,4.028, , , , , , ,-1.901,-3.241,-110.116
 13:11:50.997,eb:33:2e:f9:57:b5, 2015-01-01 00:56:21.925,0.014,0.019,1.006,-1.343,16.235,3.052, , , , , , ,-1.906,-3.148,-110.105
 13:11:50.997,eb:33:2e:f9:57:b5, 2015-01-01 00:56:21.925,-0.017,-0.018,0.98,-2.747,15.32,1.831, , , , , , ,-1.917,-3.071,-110.094
 13:11:50.997,eb:33:2e:f9:57:b5, 2015-01-01 00:56:21.925,-0.012,-0.031,0.976,-2.502,10.986,1.16, , , , , , ,-1.928,-3.005,-110.089
 13:11:50.997,eb:33:2e:f9:57:b5, 2015-01-01 00:56:21.925,0,-0.027,1.025,-1.709,8.362,0.122, , , , , , ,-1.939,-2.961,-110.089
 13:11:50.997,eb:33:2e:f9:57:b5, 2015-01-01 00:56:21.925,0,-0.039,1.034,-0.977,6.287,-0.977, , , , , , ,-1.945,-2.928,-110.094
 13:11:50.997,eb:33:2e:f9:57:b5, 2015-01-01 00:56:21.925,0.018,-0.046,0.977,-0.305,3.479,-1.648, , , , , , ,-1.945,-2.911,-110.094
 13:11:50.997,eb:33:2e:f9:57:b5, 2015-01-01 00:56:21.925,0.024,-0.041,1.034,-0.549,3.662,-1.587, , , , , , ,-1.95,-2.895,-110.105
 13:11:50.997,eb:33:2e:f9:57:b5, 2015-01-01 00:56:21.925,0.025,-0.037,1.062,0.183,2.319,-0.732, , , , , , ,-1.95,-2.884,-110.105
 13:11:51.041,eb:33:2e:f9:57:b5, 2015-01-01 00:56:22.235,0.039,-0.051,1.034,1.16,0.305,-0.244, , , , , , ,-1.945,-2.878,-110.11
 13:11:51.041,eb:33:2e:f9:57:b5, 2015-01-01 00:56:22.235,0.019,-0.042,1.022,1.709,0.61,-0.366, , , , , , ,-1.939,-2.873,-110.11
 13:11:51.041,eb:33:2e:f9:57:b5, 2015-01-01 00:56:22.235,0.021,-0.046,0.992,2.625,-1.831,-0.244, , , , , , ,-1.923,-2.878,-110.11
 13:11:51.041,eb:33:2e:f9:57:b5, 2015-01-01 00:56:22.235,0.023,-0.036,0.986,2.869,-3.235,-0.61, , , , , , ,-1.912,-2.889,-110.116
 13:11:51.041,eb:33:2e:f9:57:b5, 2015-01-01 00:56:22.235,0.028,-0.033,0.98,3.235,-4.639,-1.282, , , , , , ,-1.895,-2.911,-110.121
 13:11:51.041,eb:33:2e:f9:57:b5, 2015-01-01 00:56:22.235,0.028,-0.034,0.988,3.723,-5.737,-1.831, , , , , , ,-1.879,-2.939,-110.127
 13:11:51.041,eb:33:2e:f9:57:b5, 2015-01-01 00:56:22.235,0.028,-0.039,0.993,4.7,-7.263,-2.441, , , , , , ,-1.857,-2.972,-110.138
 13:11:51.041,eb:33:2e:f9:57:b5, 2015-01-01 00:56:22.235,0.044,-0.046,0.999,5.798,-8.24,-3.052, , , , , , ,-1.829,-3.01,-110.149
 13:11:51.087,eb:33:2e:f9:57:b5, 2015-01-01 00:56:22.235,0.048,-0.048,1.014,6.958,-7.751,-3.479, , , , , , ,-1.791,-3.054,-110.165
 13:11:51.087,eb:33:2e:f9:57:b5, 2015-01-01 00:56:22.235,0.056,-0.045,1.018,7.874,-7.202,-3.845, , , , , , ,-1.752,-3.093,-110.182
 13:11:51.087,eb:33:2e:f9:57:b5, 2015-01-01 00:56:22.235,0.064,-0.036,1.023,8.606,-6.47,-4.395, , , , , , ,-1.714,-3.126,-110.204
 13:11:51.087,eb:33:2e:f9:57:b5, 2015-01-01 00:56:22.235,0.068,-0.03,1.026,9.094,-5.615,-4.7, , , , , , ,-1.664,-3.153,-110.226
 13:11:51.087,eb:33:2e:f9:57:b5, 2015-01-01 00:56:22.235,0.066,-0.029,1.027,9.399,-4.822,-4.883, , , , , , ,-1.615,-3.181,-110.248
 13:11:51.087,eb:33:2e:f9:57:b5, 2015-01-01 00:56:22.235,0.063,-0.027,1.028,9.583,-4.211,-4.944, , , , , , ,-1.566,-3.203,-110.275
 13:11:51.087,eb:33:2e:f9:57:b5, 2015-01-01 00:56:22.235,0.064,-0.027,1.031,9.644,-3.723,-4.761, , , , , , ,-1.516,-3.224,-110.297
 13:11:51.087,eb:33:2e:f9:57:b5, 2015-01-01 00:56:22.235,0.068,-0.032,1.035,9.888,-3.113,-4.395, , , , , , ,-1.467,-3.241,-110.319
 13:11:51.109,eb:33:2e:f9:57:b5, 2015-01-01 00:56:22.235,0.066,-0.028,1.039,9.949,-1.77,-3.967, , , , , , ,-1.417,-3.252,-110.341
 13:11:51.109,eb:33:2e:f9:57:b5, 2015-01-01 00:56:22.235,0.068,-0.025,1.035,9.888,-1.038,-3.601, , , , , , ,-1.368,-3.263,-110.358
 13:11:51.109,eb:33:2e:f9:57:b5, 2015-01-01 00:56:22.235,0.066,-0.024,1.032,9.705,0.061,-3.113, , , , , , ,-1.313,-3.263,-110.374
 13:11:51.109,eb:33:2e:f9:57:b5, 2015-01-01 00:56:22.235,0.068,-0.021,1.028,9.338,1.16,-2.747, , , , , , ,-1.269,-3.263,-110.391
 13:11:51.109,eb:33:2e:f9:57:b5, 2015-01-01 00:56:22.235,0.063,-0.018,1.028,8.911,2.747,-2.625, , , , , , ,-1.219,-3.252,-110.407
 13:11:51.109,eb:33:2e:f9:57:b5, 2015-01-01 00:56:22.235,0.057,-0.02,1.018,8.484,3.845,-2.563, , , , , , ,-1.176,-3.235,-110.418
 13:11:51.109,eb:33:2e:f9:57:b5, 2015-01-01 00:56:22.235,0.059,-0.021,1.009,8.118,4.761,-2.258, , , , , , ,-1.132,-3.208,-110.429
 13:11:51.109,eb:33:2e:f9:57:b5, 2015-01-01 00:56:22.235,0.048,-0.016,1.009,7.629,5.737,-1.831, , , , , , ,-1.093,-3.186,-110.44
 13:11:51.155,eb:33:2e:f9:57:b5, 2015-01-01 00:56:22.235,0.056,-0.017,1,7.202,5.737,-1.526, , , , , , ,-1.055,-3.153,-110.451
 13:11:51.155,eb:33:2e:f9:57:b5, 2015-01-01 00:56:22.235,0.05,-0.016,1.002,6.714,6.653,-1.404, , , , , , ,-1.022,-3.12,-110.462
 13:11:51.155,eb:33:2e:f9:57:b5, 2015-01-01 00:56:22.235,0.047,-0.015,0.994,6.47,6.714,-1.282, , , , , , ,-0.989,-3.087,-110.468
 13:11:51.155,eb:33:2e:f9:57:b5, 2015-01-01 00:56:22.235,0.042,-0.015,0.992,6.348,6.836,-1.282, , , , , , ,-0.956,-3.054,-110.473
 13:11:51.155,eb:33:2e:f9:57:b5, 2015-01-01 00:56:22.235,0.039,-0.021,0.996,6.47,7.324,-1.343, , , , , , ,-0.923,-3.021,-110.484
 13:11:51.155,eb:33:2e:f9:57:b5, 2015-01-01 00:56:22.235,0.04,-0.032,0.989,6.958,7.568,-0.977, , , , , , ,-0.884,-2.983,-110.49
 13:11:51.155,eb:33:2e:f9:57:b5, 2015-01-01 00:56:22.235,0.035,-0.023,0.995,7.141,7.507,-0.977, , , , , , ,-0.851,-2.944,-110.495
 13:11:51.155,eb:33:2e:f9:57:b5, 2015-01-01 00:56:22.235,0.022,-0.025,0.986,7.629,5.859,-0.488, , , , , , ,-0.813,-2.911,-110.495
 13:11:51.200,eb:33:2e:f9:57:b5, 2015-01-01 00:56:22.235,0.035,-0.031,0.98,8.118,4.272,-0.183, , , , , , ,-0.775,-2.889,-110.495
 13:11:51.200,eb:33:2e:f9:57:b5, 2015-01-01 00:56:22.235,0.035,-0.03,0.997,8.972,4.15,0, , , , , , ,-0.731,-2.867,-110.5
 13:11:51.200,eb:33:2e:f9:57:b5, 2015-01-01 00:56:22.235,0.036,-0.037,0.994,10.376,2.441,0.183, , , , , , ,-0.681,-2.851,-110.495
 13:11:51.200,eb:33:2e:f9:57:b5, 2015-01-01 00:56:22.235,0.045,-0.034,0.999,11.658,0.977,0.427, , , , , , ,-0.626,-2.845,-110.495
 13:11:51.200,eb:33:2e:f9:57:b5, 2015-01-01 00:56:22.235,0.057,-0.028,1.011,12.817,1.099,0.244, , , , , , ,-0.566,-2.84,-110.495
 13:11:51.200,eb:33:2e:f9:57:b5, 2015-01-01 00:56:22.235,0.065,-0.02,1.021,13.855,2.38,-0.305, , , , , , ,-0.494,-2.829,-110.495
 13:11:51.200,eb:33:2e:f9:57:b5, 2015-01-01 00:56:22.235,0.062,-0.016,1.022,14.648,4.089,-0.793, , , , , , ,-0.423,-2.812,-110.495
 13:11:51.200,eb:33:2e:f9:57:b5, 2015-01-01 00:56:22.235,0.052,-0.018,1.024,15.686,5.066,-1.16, , , , , , ,-0.346,-2.785,-110.5
 13:11:51.244,eb:33:2e:f9:57:b5, 2015-01-01 00:56:22.235,0.055,-0.016,1.009,16.663,5.188,-1.465, , , , , , ,-0.264,-2.763,-110.511
 13:11:51.244,eb:33:2e:f9:57:b5, 2015-01-01 00:56:22.235,0.063,-0.011,0.999,17.334,5.127,-1.831, , , , , , ,-0.181,-2.736,-110.517
 13:11:51.244,eb:33:2e:f9:57:b5, 2015-01-01 00:56:22.235,0.047,-0.004,1.006,17.456,6.409,-2.38, , , , , , ,-0.093,-2.703,-110.528
 13:11:51.244,eb:33:2e:f9:57:b5, 2015-01-01 00:56:22.235,0.04,-0.005,0.992,17.456,6.592,-2.197, , , , , , ,0,-2.67,-110.539
 13:11:51.244,eb:33:2e:f9:57:b5, 2015-01-01 00:56:22.235,0.059,-0.008,0.982,17.212,6.409,-1.648, , , , , , ,0.077,-2.637,-110.55
 13:11:51.244,eb:33:2e:f9:57:b5, 2015-01-01 00:56:22.235,0.062,0.003,1.006,16.968,8.118,-1.953, , , , , , ,0.165,-2.604,-110.555
 13:11:51.244,eb:33:2e:f9:57:b5, 2015-01-01 00:56:22.235,0.038,0.008,1.028,16.479,12.085,-2.075, , , , , , ,0.247,-2.549,-110.566
 13:11:51.244,eb:33:2e:f9:57:b5, 2015-01-01 00:56:22.235,0.058,0,0.99,16.785,10.315,-1.343, , , , , , ,0.335,-2.494,-110.577
 13:11:51.292,eb:33:2e:f9:57:b5, 2015-01-01 00:56:22.235,0.054,0.007,1.024,16.724,11.963,-1.16, , , , , , ,0.417,-2.439,-110.583
 13:11:51.292,eb:33:2e:f9:57:b5, 2015-01-01 00:56:22.235,0.041,0.013,1.013,16.785,13.245,-1.648, , , , , , ,0.5,-2.373,-110.594
 13:11:51.292,eb:33:2e:f9:57:b5, 2015-01-01 00:56:22.235,0.038,0.003,0.983,17.029,10.986,-0.732, , , , , , ,0.588,-2.313,-110.599
 13:11:51.292,eb:33:2e:f9:57:b5, 2015-01-01 00:56:22.235,0.008,0.026,1.031,16.602,12.329,-0.854, , , , , , ,0.67,-2.258,-110.599
 13:11:51.292,eb:33:2e:f9:57:b5, 2015-01-01 00:56:22.235,0.041,0.021,0.976,16.479,9.644,-0.488, , , , , , ,0.753,-2.203,-110.605
 13:11:51.292,eb:33:2e:f9:57:b5, 2015-01-01 00:56:22.235,0.055,0.016,1,16.602,10.864,-0.854, , , , , , ,0.835,-2.153,-110.605
 13:11:51.292,eb:33:2e:f9:57:b5, 2015-01-01 00:56:22.235,0.049,0.009,0.993,17.517,8.972,-1.282, , , , , , ,0.923,-2.104,-110.61
 13:11:51.293,eb:33:2e:f9:57:b5, 2015-01-01 00:56:22.235,0.043,0.019,1.025,17.7,11.108,-1.648, , , , , , ,1.011,-2.049,-110.616
 13:11:51.311,eb:33:2e:f9:57:b5, 2015-01-01 00:56:22.525,0.042,0.031,1.015,18.005,12.39,-2.197, , , , , , ,1.104,-1.994,-110.627
 13:11:51.311,eb:33:2e:f9:57:b5, 2015-01-01 00:56:22.525,0.037,0.028,1.028,18.555,13.794,-2.808, , , , , , ,1.192,-1.923,-110.638
 13:11:51.311,eb:33:2e:f9:57:b5, 2015-01-01 00:56:22.525,0.054,0.035,1.034,17.944,17.7,-4.822, , , , , , ,1.285,-1.846,-110.654
 13:11:51.311,eb:33:2e:f9:57:b5, 2015-01-01 00:56:22.525,0.04,0.035,1.042,18.066,22.583,-5.432, , , , , , ,1.379,-1.741,-110.676
 13:11:51.311,eb:33:2e:f9:57:b5, 2015-01-01 00:56:22.525,0.043,0.024,1.018,18.799,22.4,-5.249, , , , , , ,1.472,-1.626,-110.698
 13:11:51.311,eb:33:2e:f9:57:b5, 2015-01-01 00:56:22.525,0.032,0.018,1.011,19.653,22.156,-4.7, , , , , , ,1.566,-1.516,-110.726
 13:11:51.311,eb:33:2e:f9:57:b5, 2015-01-01 00:56:22.525,0.041,0.036,1.015,20.02,22.766,-6.042, , , , , , ,1.67,-1.401,-110.748
 13:11:51.311,eb:33:2e:f9:57:b5, 2015-01-01 00:56:22.525,0.031,0.037,1.008,20.508,22.888,-7.08, , , , , , ,1.769,-1.285,-110.775
 13:11:51.378,eb:33:2e:f9:57:b5, 2015-01-01 00:56:22.525,0.029,0.035,1.01,20.996,23.071,-7.507, , , , , , ,1.873,-1.17,-110.808
 13:11:51.378,eb:33:2e:f9:57:b5, 2015-01-01 00:56:22.525,0.026,0.032,1.011,21.729,22.461,-7.324, , , , , , ,1.983,-1.06,-110.841
 13:11:51.378,eb:33:2e:f9:57:b5, 2015-01-01 00:56:22.525,0.004,0.031,1.011,22.461,22.339,-7.019, , , , , , ,2.098,-0.945,-110.874
 13:11:51.378,eb:33:2e:f9:57:b5, 2015-01-01 00:56:22.525,0.009,0.037,1.031,23.071,22.705,-7.812, , , , , , ,2.208,-0.829,-110.912
 13:11:51.378,eb:33:2e:f9:57:b5, 2015-01-01 00:56:22.525,0.02,0.041,1.023,23.804,22.217,-8.24, , , , , , ,2.329,-0.714,-110.945
 13:11:51.378,eb:33:2e:f9:57:b5, 2015-01-01 00:56:22.525,0.024,0.044,1.032,24.597,22.644,-8.545, , , , , , ,2.45,-0.604,-110.984
 13:11:51.378,eb:33:2e:f9:57:b5, 2015-01-01 00:56:22.525,-0.061,0.037,1.04,25.391,23.682,-7.751, , , , , , ,2.576,-0.483,-111.017
 13:11:51.380,eb:33:2e:f9:57:b5, 2015-01-01 00:56:22.525,0.147,-0.024,1.045,24.719,25.269,-5.615, , , , , , ,2.703,-0.357,-111.039
 13:11:51.403,eb:33:2e:f9:57:b5, 2015-01-01 00:56:22.525,0.041,0.074,1.194,26.062,32.104,-7.263, , , , , , ,2.834,-0.209,-111.061
 13:11:51.403,eb:33:2e:f9:57:b5, 2015-01-01 00:56:22.525,0.002,0.082,1.049,27.344,31.494,-9.583, , , , , , ,2.966,-0.049,-111.099
 13:11:51.403,eb:33:2e:f9:57:b5, 2015-01-01 00:56:22.525,0.061,0.033,1.121,29.358,34.241,-10.681, , , , , , ,3.109,0.11,-111.138
 13:11:51.403,eb:33:2e:f9:57:b5, 2015-01-01 00:56:22.525,0.06,0.034,1.166,32.227,39.062,-11.169, , , , , , ,3.268,0.302,-111.182
 13:11:51.403,eb:33:2e:f9:57:b5, 2015-01-01 00:56:22.525,0,0.048,1.12,35.095,40.039,-9.888, , , , , , ,3.433,0.505,-111.226
 13:11:51.403,eb:33:2e:f9:57:b5, 2015-01-01 00:56:22.525,0.019,0.048,1.114,39.124,39.307,-10.803, , , , , , ,3.625,0.703,-111.264
 13:11:51.403,eb:33:2e:f9:57:b5, 2015-01-01 00:56:22.525,-0.016,0.036,1.066,42.969,37.415,-9.644, , , , , , ,3.829,0.901,-111.302
 13:11:51.403,eb:33:2e:f9:57:b5, 2015-01-01 00:56:22.525,-0.02,0.037,1.062,46.021,34.058,-9.094, , , , , , ,4.054,1.077,-111.335
 13:11:51.447,eb:33:2e:f9:57:b5, 2015-01-01 00:56:22.525,0.024,0.039,1.07,49.805,25.879,-8.057, , , , , , ,4.296,1.23,-111.363
 13:11:51.447,eb:33:2e:f9:57:b5, 2015-01-01 00:56:22.525,-0.085,0.014,1.154,52.979,26.855,-6.287, , , , , , ,4.548,1.373,-111.396
 13:11:51.447,eb:33:2e:f9:57:b5, 2015-01-01 00:56:22.525,-0.027,-0.021,1.276,56.763,27.893,-7.568, , , , , , ,4.823,1.522,-111.429
 13:11:51.447,eb:33:2e:f9:57:b5, 2015-01-01 00:56:22.525,0,-0.011,1.303,61.279,34.851,-6.897, , , , , , ,5.12,1.686,-111.451
 13:11:51.447,eb:33:2e:f9:57:b5, 2015-01-01 00:56:22.525,-0.006,0.01,1.18,66.528,29.724,-2.747, , , , , , ,5.444,1.857,-111.462
 13:11:51.447,eb:33:2e:f9:57:b5, 2015-01-01 00:56:22.525,0.071,0.09,1.161,72.754,21.24,-4.822, , , , , , ,5.795,1.983,-111.467
 13:11:51.447,eb:33:2e:f9:57:b5, 2015-01-01 00:56:22.525,0.078,0.093,1.334,76.355,37.659,-9.216, , , , , , ,6.163,2.148,-111.495
 13:11:51.447,eb:33:2e:f9:57:b5, 2015-01-01 00:56:22.525,0.151,0.119,1.254,82.581,38.696,-11.597, , , , , , ,6.564,2.335,-111.522
 13:11:51.469,eb:33:2e:f9:57:b5, 2015-01-01 00:56:22.525,0.127,0.11,1.299,88.44,47.241,-13.55, , , , , , ,6.993,2.571,-111.566
 13:11:51.469,eb:33:2e:f9:57:b5, 2015-01-01 00:56:22.525,0.104,0.102,1.281,93.75,46.021,-15.015, , , , , , ,7.443,2.823,-111.616
 13:11:51.469,eb:33:2e:f9:57:b5, 2015-01-01 00:56:22.525,0.149,0.191,1.213,98.145,39.673,-23.682, , , , , , ,7.921,3.038,-111.687
 13:11:51.469,eb:33:2e:f9:57:b5, 2015-01-01 00:56:22.525,0.053,0.055,1.46,103.088,51.819,-23.315, , , , , , ,8.427,3.296,-111.775
 13:11:51.469,eb:33:2e:f9:57:b5, 2015-01-01 00:56:22.525,0.119,0.058,1.375,110.291,56.091,-27.527, , , , , , ,8.954,3.576,-111.857
 13:11:51.469,eb:33:2e:f9:57:b5, 2015-01-01 00:56:22.525,0.022,0.059,1.41,115.234,65.918,-28.564, , , , , , ,9.514,3.922,-111.951
 13:11:51.469,eb:33:2e:f9:57:b5, 2015-01-01 00:56:22.525,0.008,0.088,1.426,121.399,71.899,-31.433, , , , , , ,10.102,4.285,-112.044
 13:11:51.469,eb:33:2e:f9:57:b5, 2015-01-01 00:56:22.525,-0.081,-0.023,1.421,128.906,69.885,-25.574, , , , , , ,10.728,4.664,-112.115
 13:11:51.515,eb:33:2e:f9:57:b5, 2015-01-01 00:56:22.525,-0.151,0.047,1.478,135.254,71.594,-26.917, , , , , , ,11.387,5.037,-112.181
 13:11:51.515,eb:33:2e:f9:57:b5, 2015-01-01 00:56:22.525,-0.053,0.04,1.512,144.287,70.19,-25.391, , , , , , ,12.085,5.394,-112.225
 13:11:51.515,eb:33:2e:f9:57:b5, 2015-01-01 00:56:22.525,-0.042,-0.002,1.395,154.175,61.096,-22.034, , , , , , ,12.838,5.718,-112.258
 13:11:51.515,eb:33:2e:f9:57:b5, 2015-01-01 00:56:22.525,-0.109,-0.033,1.455,165.955,49.377,-15.686, , , , , , ,13.64,6.015,-112.291
 13:11:51.515,eb:33:2e:f9:57:b5, 2015-01-01 00:56:22.525,-0.058,-0.039,1.481,177.612,39.368,-16.785, , , , , , ,14.496,6.257,-112.324
 13:11:51.515,eb:33:2e:f9:57:b5, 2015-01-01 00:56:22.525,-0.063,-0.043,1.714,189.148,45.959,-18.86, , , , , , ,15.414,6.487,-112.363
 13:11:51.515,eb:33:2e:f9:57:b5, 2015-01-01 00:56:22.525,-0.065,-0.068,1.751,203.308,48.828,-17.395, , , , , , ,16.397,6.74,-112.385
 13:11:51.515,eb:33:2e:f9:57:b5, 2015-01-01 00:56:22.525,0.013,-0.06,1.747,218.933,45.105,-19.165, , , , , , ,17.457,6.998,-112.401
 13:11:51.561,eb:33:2e:f9:57:b5, 2015-01-01 00:56:22.525,0.066,-0.035,1.768,236.938,38.33,-21.057, , , , , , ,18.605,7.224,-112.434
 13:11:51.561,eb:33:2e:f9:57:b5, 2015-01-01 00:56:22.525,0.084,-0.002,1.816,253.723,30.09,-24.78, , , , , , ,19.83,7.416,-112.489
 13:11:51.561,eb:33:2e:f9:57:b5, 2015-01-01 00:56:22.525,0.184,0.036,2.007,272.4,24.231,-28.564, , , , , , ,21.149,7.592,-112.566
 13:11:51.561,eb:33:2e:f9:57:b5, 2015-01-01 00:56:22.525,0.222,0.028,2.092,292.175,19.592,-35.645, , , , , , ,22.555,7.745,-112.681
 13:11:51.561,eb:33:2e:f9:57:b5, 2015-01-01 00:56:22.525,0.185,-0.067,2.165,311.096,21.79,-39.551, , , , , , ,24.055,7.916,-112.813
 13:11:51.561,eb:33:2e:f9:57:b5, 2015-01-01 00:56:22.525,0.308,-0.006,2.359,330.2,18.738,-45.532, , , , , , ,25.642,8.097,-112.967
 13:11:51.561,eb:33:2e:f9:57:b5, 2015-01-01 00:56:22.525,0.376,-0.004,2.441,351.318,21.484,-51.27, , , , , , ,27.328,8.295,-113.148
 13:11:51.561,eb:33:2e:f9:57:b5, 2015-01-01 00:56:22.525,0.312,-0.007,2.377,371.094,26.184,-57.251, , , , , , ,29.119,8.536,-113.324
 13:11:51.605,eb:33:2e:f9:57:b5, 2015-01-01 00:56:22.525,0.189,-0.009,2.473,386.23,29.297,-69.641, , , , , , ,30.992,8.811,-113.544
 13:11:51.605,eb:33:2e:f9:57:b5, 2015-01-01 00:56:22.525,0.187,-0.292,2.814,402.832,43.64,-71.777, , , , , , ,32.937,9.157,-113.752
 13:11:51.605,eb:33:2e:f9:57:b5, 2015-01-01 00:56:22.525,0.287,-0.195,2.888,419.556,65.552,-72.937, , , , , , ,34.98,9.602,-113.89
 13:11:51.605,eb:33:2e:f9:57:b5, 2015-01-01 00:56:22.525,0.507,0.032,2.82,427.124,77.576,-79.163, , , , , , ,37.084,10.129,-113.978
 13:11:51.605,eb:33:2e:f9:57:b5, 2015-01-01 00:56:22.525,0.654,0.18,2.713,436.096,82.275,-87.402, , , , , , ,39.232,10.69,-114.066
 13:11:51.605,eb:33:2e:f9:57:b5, 2015-01-01 00:56:22.525,0.704,0.212,2.691,439.209,86.06,-93.14, , , , , , ,41.407,11.31,-114.142
 13:11:51.605,eb:33:2e:f9:57:b5, 2015-01-01 00:56:22.525,0.574,0.22,2.731,437.195,79.041,-101.074, , , , , , ,43.577,11.942,-114.236
 13:11:51.605,eb:33:2e:f9:57:b5, 2015-01-01 00:56:22.525,0.836,0.475,2.853,451.416,79.712,-108.521, , , , , , ,45.78,12.601,-114.313
 13:11:51.649,eb:33:2e:f9:57:b5, 2015-01-01 00:56:22.840,0.932,0.429,2.625,449.219,78.003,-127.625, , , , , , ,48.01,13.332,-114.434
 13:11:51.649,eb:33:2e:f9:57:b5, 2015-01-01 00:56:22.840,1.158,0.088,2.324,453.308,58.838,-130.31, , , , , , ,50.213,14.035,-114.609
 13:11:51.649,eb:33:2e:f9:57:b5, 2015-01-01 00:56:22.840,1.477,-0.066,1.901,453.674,39.49,-151.855, , , , , , ,52.421,14.744,-114.868
 13:11:51.649,eb:33:2e:f9:57:b5, 2015-01-01 00:56:22.840,1.502,-0.392,1.326,430.237,14.587,-181.152, , , , , , ,54.52,15.496,-115.296
 13:11:51.649,eb:33:2e:f9:57:b5, 2015-01-01 00:56:22.840,1.61,-1.04,0.751,395.752,4.456,-209.9, , , , , , ,56.415,16.337,-115.84
 13:11:51.649,eb:33:2e:f9:57:b5, 2015-01-01 00:56:22.840,1.082,-1.394,-0.127,326.355,20.935,-230.53, , , , , , ,58.041,17.271,-116.461
 13:11:51.649,eb:33:2e:f9:57:b5, 2015-01-01 00:56:22.840,0.481,-0.872,-1.169,210.632,19.348,-195.312, , , , , , ,59.194,18.248,-116.911
 13:11:51.649,eb:33:2e:f9:57:b5, 2015-01-01 00:56:22.840,0.355,-0.854,-0.379,103.943,-21.79,-167.969, , , , , , ,59.755,19.001,-117.405
 13:11:51.674,eb:33:2e:f9:57:b5, 2015-01-01 00:56:22.840,0.464,-1.041,0.659,25.024,-52.429,-158.203, , , , , , ,59.826,19.589,-118.026
 13:11:51.674,eb:33:2e:f9:57:b5, 2015-01-01 00:56:22.840,0.531,-1.315,1.241,-37.231,-43.762,-140.747, , , , , , ,59.535,20.099,-118.663
 13:11:51.674,eb:33:2e:f9:57:b5, 2015-01-01 00:56:22.840,0.483,-1.442,1.445,-85.388,-2.808,-116.882, , , , , , ,59.046,20.588,-119.103
 13:11:51.674,eb:33:2e:f9:57:b5, 2015-01-01 00:56:22.840,0.42,-1.319,1.595,-112.915,46.57,-100.159, , , , , , ,58.464,21.116,-119.268
 13:11:51.674,eb:33:2e:f9:57:b5, 2015-01-01 00:56:22.840,0.369,-1.095,1.632,-120.667,87.219,-89.6, , , , , , ,57.892,21.703,-119.207
 13:11:51.674,eb:33:2e:f9:57:b5, 2015-01-01 00:56:22.840,0.333,-0.921,1.376,-117.249,110.291,-80.933, , , , , , ,57.371,22.33,-118.987
 13:11:51.674,eb:33:2e:f9:57:b5, 2015-01-01 00:56:22.840,0.289,-0.875,0.828,-112.793,112.549,-71.167, , , , , , ,56.915,22.95,-118.691
 13:11:51.674,eb:33:2e:f9:57:b5, 2015-01-01 00:56:22.840,0.258,-0.917,0.244,-112.427,97.656,-58.472, , , , , , ,56.464,23.505,-118.4
 13:11:51.717,eb:33:2e:f9:57:b5, 2015-01-01 00:56:22.840,0.249,-0.943,-0.152,-115.784,69.336,-43.762, , , , , , ,55.981,23.939,-118.18
 13:11:51.717,eb:33:2e:f9:57:b5, 2015-01-01 00:56:22.840,0.254,-0.948,-0.243,-119.995,35.889,-29.602, , , , , , ,55.426,24.219,-118.07
 13:11:51.717,eb:33:2e:f9:57:b5, 2015-01-01 00:56:22.840,0.25,-0.949,-0.145,-124.939,5.981,-16.113, , , , , , ,54.816,24.357,-118.059
 13:11:51.717,eb:33:2e:f9:57:b5, 2015-01-01 00:56:22.840,0.234,-0.956,-0.002,-131.409,-15.259,-2.319, , , , , , ,54.146,24.368,-118.114
 13:11:51.717,eb:33:2e:f9:57:b5, 2015-01-01 00:56:22.840,0.226,-0.962,0.149,-139.587,-26.55,11.841, , , , , , ,53.432,24.274,-118.196
 13:11:51.717,eb:33:2e:f9:57:b5, 2015-01-01 00:56:22.840,0.224,-0.948,0.305,-149.292,-28.503,25.696, , , , , , ,52.668,24.104,-118.262
 13:11:51.717,eb:33:2e:f9:57:b5, 2015-01-01 00:56:22.840,0.236,-0.902,0.401,-159.912,-25.269,38.574, , , , , , ,51.888,23.89,-118.262
 13:11:51.717,eb:33:2e:f9:57:b5, 2015-01-01 00:56:22.840,0.255,-0.839,0.406,-171.204,-22.339,49.805, , , , , , ,51.075,23.637,-118.207
 13:11:51.762,eb:33:2e:f9:57:b5, 2015-01-01 00:56:22.840,0.278,-0.772,0.336,-182.678,-23.682,59.143, , , , , , ,50.224,23.351,-118.109
 13:11:51.762,eb:33:2e:f9:57:b5, 2015-01-01 00:56:22.840,0.301,-0.71,0.264,-194.397,-29.724,66.956, , , , , , ,49.307,23.011,-118.004
 13:11:51.762,eb:33:2e:f9:57:b5, 2015-01-01 00:56:22.840,0.323,-0.656,0.221,-205.994,-39.856,73.364, , , , , , ,48.34,22.632,-117.894
 13:11:51.762,eb:33:2e:f9:57:b5, 2015-01-01 00:56:22.840,0.336,-0.61,0.249,-217.407,-51.086,78.857, , , , , , ,47.313,22.187,-117.795
 13:11:51.762,eb:33:2e:f9:57:b5, 2015-01-01 00:56:22.840,0.348,-0.571,0.324,-228.821,-61.218,83.862, , , , , , ,46.219,21.693,-117.719
 13:11:51.762,eb:33:2e:f9:57:b5, 2015-01-01 00:56:22.840,0.362,-0.521,0.428,-240.356,-68.298,88.501, , , , , , ,45.055,21.149,-117.653
 13:11:51.762,eb:33:2e:f9:57:b5, 2015-01-01 00:56:22.840,0.381,-0.451,0.541,-251.587,-71.777,92.651, , , , , , ,43.846,20.577,-117.57
 13:11:51.762,eb:33:2e:f9:57:b5, 2015-01-01 00:56:22.840,0.411,-0.368,0.644,-261.719,-72.632,95.581, , , , , , ,42.594,19.99,-117.466
 13:11:51.807,eb:33:2e:f9:57:b5, 2015-01-01 00:56:22.840,0.452,-0.277,0.723,-270.264,-72.51,97.107, , , , , , ,41.298,19.396,-117.339
 13:11:51.807,eb:33:2e:f9:57:b5, 2015-01-01 00:56:22.840,0.5,-0.179,0.757,-277.161,-73.364,96.985, , , , , , ,39.957,18.798,-117.208
 13:11:51.807,eb:33:2e:f9:57:b5, 2015-01-01 00:56:22.840,0.532,-0.067,0.757,-283.081,-78.125,94.727, , , , , , ,38.595,18.199,-117.07
 13:11:51.807,eb:33:2e:f9:57:b5, 2015-01-01 00:56:22.840,0.549,-0.006,0.75,-286.194,-85.693,92.407, , , , , , ,37.211,17.589,-116.944
 13:11:51.807,eb:33:2e:f9:57:b5, 2015-01-01 00:56:22.840,0.55,0.036,0.777,-288.208,-95.337,89.661, , , , , , ,35.799,16.952,-116.851
 13:11:51.807,eb:33:2e:f9:57:b5, 2015-01-01 00:56:22.840,0.51,0.078,0.85,-289.917,-103.882,86.792, , , , , , ,34.36,16.276,-116.779
 13:11:51.807,eb:33:2e:f9:57:b5, 2015-01-01 00:56:22.840,0.55,0.128,1.058,-291.748,-105.835,84.839, , , , , , ,32.926,15.595,-116.713
 13:11:51.807,eb:33:2e:f9:57:b5, 2015-01-01 00:56:22.840,0.538,0.08,0.987,-293.396,-111.389,84.29, , , , , , ,31.481,14.914,-116.631
 13:11:51.852,eb:33:2e:f9:57:b5, 2015-01-01 00:56:22.840,0.582,0.17,0.982,-295.532,-122.192,83.923, , , , , , ,30.02,14.189,-116.576
 13:11:51.852,eb:33:2e:f9:57:b5, 2015-01-01 00:56:22.840,0.577,0.144,1.083,-297.668,-129.517,83.984, , , , , , ,28.537,13.425,-116.521
 13:11:51.852,eb:33:2e:f9:57:b5, 2015-01-01 00:56:22.840,0.571,0.163,1.083,-298.462,-140.198,83.923, , , , , , ,27.059,12.629,-116.461
 13:11:51.852,eb:33:2e:f9:57:b5, 2015-01-01 00:56:22.840,0.545,0.195,1.198,-298.767,-149.048,85.327, , , , , , ,25.576,11.788,-116.406
 13:11:51.852,eb:33:2e:f9:57:b5, 2015-01-01 00:56:22.840,0.538,0.192,1.32,-299.133,-152.832,87.708, , , , , , ,24.099,10.915,-116.329
 13:11:51.852,eb:33:2e:f9:57:b5, 2015-01-01 00:56:22.840,0.542,0.196,1.445,-299.377,-153.198,90.881, , , , , , ,22.604,10.025,-116.224
 13:11:51.852,eb:33:2e:f9:57:b5, 2015-01-01 00:56:22.840,0.554,0.228,1.526,-298.889,-152.893,94.177, , , , , , ,21.132,9.141,-116.076
 13:11:51.852,eb:33:2e:f9:57:b5, 2015-01-01 00:56:22.840,0.584,0.261,1.587,-298.767,-151.489,97.717, , , , , , ,19.666,8.262,-115.884
 13:11:51.898,eb:33:2e:f9:57:b5, 2015-01-01 00:56:22.840,0.614,0.279,1.634,-298.584,-150.33,101.135, , , , , , ,18.204,7.383,-115.653
 13:11:51.898,eb:33:2e:f9:57:b5, 2015-01-01 00:56:22.840,0.708,0.339,1.651,-297.913,-151.123,103.149, , , , , , ,16.732,6.504,-115.395
 13:11:51.898,eb:33:2e:f9:57:b5, 2015-01-01 00:56:22.840,0.768,0.411,1.578,-297.668,-155.579,103.455, , , , , , ,15.271,5.625,-115.109
 13:11:51.898,eb:33:2e:f9:57:b5, 2015-01-01 00:56:22.840,0.832,0.435,1.549,-297.119,-163.818,102.661, , , , , , ,13.81,4.719,-114.807
 13:11:51.898,eb:33:2e:f9:57:b5, 2015-01-01 00:56:22.840,0.894,0.465,1.568,-296.082,-173.767,100.037, , , , , , ,12.349,3.779,-114.505
 13:11:51.898,eb:33:2e:f9:57:b5, 2015-01-01 00:56:22.840,0.938,0.505,1.648,-294.495,-183.105,96.313, , , , , , ,10.876,2.791,-114.208
 13:11:51.898,eb:33:2e:f9:57:b5, 2015-01-01 00:56:22.840,0.965,0.534,1.737,-293.335,-191.223,91.919, , , , , , ,9.421,1.78,-113.912
 13:11:51.898,eb:33:2e:f9:57:b5, 2015-01-01 00:56:22.840,0.979,0.552,1.812,-293.03,-198.181,87.219, , , , , , ,7.96,0.747,-113.621
 13:11:51.919,eb:33:2e:f9:57:b5, 2015-01-01 00:56:22.840,0.991,0.581,1.878,-293.274,-205.322,82.092, , , , , , ,6.493,-0.302,-113.329
 13:11:51.919,eb:33:2e:f9:57:b5, 2015-01-01 00:56:22.840,0.983,0.592,1.939,-293.945,-212.585,77.271, , , , , , ,5.004,-1.395,-113.038
 13:11:51.919,eb:33:2e:f9:57:b5, 2015-01-01 00:56:22.840,0.963,0.598,1.976,-294.189,-222.046,72.449, , , , , , ,3.527,-2.51,-112.753
 13:11:51.919,eb:33:2e:f9:57:b5, 2015-01-01 00:56:22.840,0.939,0.597,2.002,-293.762,-234.07,68.237, , , , , , ,2.038,-3.675,-112.456
 13:11:51.919,eb:33:2e:f9:57:b5, 2015-01-01 00:56:22.840,0.896,0.595,2.052,-292.48,-247.681,65.247, , , , , , ,0.549,-4.889,-112.148
 13:11:51.919,eb:33:2e:f9:57:b5, 2015-01-01 00:56:22.840,0.849,0.595,2.126,-290.649,-261.597,64.087, , , , , , ,-0.95,-6.18,-111.824
 13:11:51.919,eb:33:2e:f9:57:b5, 2015-01-01 00:56:22.840,0.789,0.598,2.232,-289.307,-271.912,65.674, , , , , , ,-2.439,-7.515,-111.456
 13:11:51.919,eb:33:2e:f9:57:b5, 2015-01-01 00:56:22.840,0.699,0.599,2.339,-288.757,-277.954,70.007, , , , , , ,-3.944,-8.871,-111.039
 13:11:51.964,eb:33:2e:f9:57:b5, 2015-01-01 00:56:23.130,0.528,0.641,2.443,-286.987,-278.564,74.402, , , , , , ,-5.466,-10.234,-110.55
 13:11:51.964,eb:33:2e:f9:57:b5, 2015-01-01 00:56:23.130,0.285,0.696,2.405,-278.442,-282.837,76.538, , , , , , ,-6.998,-11.591,-110.012
 13:11:51.964,eb:33:2e:f9:57:b5, 2015-01-01 00:56:23.130,0.157,0.761,2.218,-262.939,-301.697,77.148, , , , , , ,-8.47,-12.997,-109.418
 13:11:51.964,eb:33:2e:f9:57:b5, 2015-01-01 00:56:23.130,-0.029,0.855,2.386,-247.925,-312.683,77.332, , , , , , ,-9.893,-14.464,-108.77
 13:11:51.964,eb:33:2e:f9:57:b5, 2015-01-01 00:56:23.130,-0.321,0.94,2.724,-232.788,-308.289,78.247, , , , , , ,-11.266,-15.919,-108.078
 13:11:51.964,eb:33:2e:f9:57:b5, 2015-01-01 00:56:23.130,-0.558,1.025,2.837,-222.046,-300.171,79.529, , , , , , ,-12.623,-17.331,-107.347
 13:11:51.964,eb:33:2e:f9:57:b5, 2015-01-01 00:56:23.130,-0.737,1.148,2.943,-215.088,-285.034,82.214, , , , , , ,-13.947,-18.66,-106.578
 13:11:51.964,eb:33:2e:f9:57:b5, 2015-01-01 00:56:23.130,-0.869,1.315,3.013,-212.769,-259.277,85.632, , , , , , ,-15.276,-19.863,-105.787
 13:11:52.009,eb:33:2e:f9:57:b5, 2015-01-01 00:56:23.130,-0.899,1.566,2.991,-213.806,-223.877,88.135, , , , , , ,-16.622,-20.891,-104.991
 13:11:52.009,eb:33:2e:f9:57:b5, 2015-01-01 00:56:23.130,-0.872,1.95,2.907,-216.248,-178.528,88.135, , , , , , ,-17.99,-21.709,-104.216
 13:11:52.009,eb:33:2e:f9:57:b5, 2015-01-01 00:56:23.130,-0.876,2.456,2.701,-215.21,-131.409,82.825, , , , , , ,-19.33,-22.28,-103.524
 13:11:52.009,eb:33:2e:f9:57:b5, 2015-01-01 00:56:23.130,-0.994,3.004,2.327,-203.918,-95.825,69.946, , , , , , ,-20.605,-22.665,-102.936
 13:11:52.009,eb:33:2e:f9:57:b5, 2015-01-01 00:56:23.130,-1.211,3.513,1.766,-178.528,-83.74,50.049, , , , , , ,-21.731,-22.961,-102.475
 13:11:52.009,eb:33:2e:f9:57:b5, 2015-01-01 00:56:23.130,-1.487,3.915,1.199,-141.357,-94.116,26.794, , , , , , ,-22.67,-23.307,-102.107
 13:11:52.010,eb:33:2e:f9:57:b5, 2015-01-01 00:56:23.130,-1.751,4.163,0.919,-96.191,-114.563,4.822, , , , , , ,-23.362,-23.774,-101.81
 13:11:52.010,eb:33:2e:f9:57:b5, 2015-01-01 00:56:23.130,-1.945,4.208,1.067,-47.424,-127.319,-14.893, , , , , , ,-23.791,-24.357,-101.58
 13:11:52.055,eb:33:2e:f9:57:b5, 2015-01-01 00:56:23.130,-2.032,3.994,1.486,0.977,-119.69,-30.945, , , , , , ,-23.945,-24.977,-101.431
 13:11:52.055,eb:33:2e:f9:57:b5, 2015-01-01 00:56:23.130,-2.059,3.55,2.024,44.678,-90.21,-41.992, , , , , , ,-23.824,-25.538,-101.387
 13:11:52.055,eb:33:2e:f9:57:b5, 2015-01-01 00:56:23.130,-2.04,2.959,2.184,74.829,-47.729,-45.166, , , , , , ,-23.467,-25.922,-101.47
 13:11:52.055,eb:33:2e:f9:57:b5, 2015-01-01 00:56:23.130,-1.873,2.329,2.131,89.722,-2.869,-40.161, , , , , , ,-22.967,-26.104,-101.646
 13:11:52.055,eb:33:2e:f9:57:b5, 2015-01-01 00:56:23.130,-1.649,1.858,2,88.318,44.495,-27.283, , , , , , ,-22.418,-26.049,-101.871
 13:11:52.055,eb:33:2e:f9:57:b5, 2015-01-01 00:56:23.130,-1.433,1.573,1.844,79.529,81.482,-11.536, , , , , , ,-21.896,-25.768,-102.107
 13:11:52.055,eb:33:2e:f9:57:b5, 2015-01-01 00:56:23.130,-1.18,1.41,1.683,72.449,109.07,-1.526, , , , , , ,-21.423,-25.323,-102.338
 13:11:52.055,eb:33:2e:f9:57:b5, 2015-01-01 00:56:23.130,-0.973,1.346,1.548,70.679,125.916,5.554, , , , , , ,-20.973,-24.758,-102.563
 13:11:52.077,eb:33:2e:f9:57:b5, 2015-01-01 00:56:23.130,2.144,1.381,1.346,85.815,111.206,-2.686, , , , , , ,-20.506,-24.164,-102.783
 13:11:52.077,eb:33:2e:f9:57:b5, 2015-01-01 00:56:23.130,0.109,-0.345,8.572,131.836,327.637,-60.486, , , , , , ,-19.567,-23.566,-103.376
 13:11:52.077,eb:33:2e:f9:57:b5, 2015-01-01 00:56:23.130,2.191,-0.896,0.743,171.326,279.419,-63.171, , , , , , ,-18.495,-22.033,-104.271
 13:11:52.077,eb:33:2e:f9:57:b5, 2015-01-01 00:56:23.130,1.198,-2.336,2.104,193.298,400.33,-5.615, , , , , , ,-17.276,-20.418,-105.029
 13:11:52.077,eb:33:2e:f9:57:b5, 2015-01-01 00:56:23.130,1.083,-1.258,1.68,202.393,413.94,1.038, , , , , , ,-16.062,-18.495,-105.65
 13:11:52.077,eb:33:2e:f9:57:b5, 2015-01-01 00:56:23.130,0.711,-1.085,1.371,206.726,418.091,9.033, , , , , , ,-14.865,-16.469,-106.199
 13:11:52.077,eb:33:2e:f9:57:b5, 2015-01-01 00:56:23.130,-0.386,-0.68,1.239,216.614,399.78,27.405, , , , , , ,-13.694,-14.464,-106.633
 13:11:52.077,eb:33:2e:f9:57:b5, 2015-01-01 00:56:23.130,-0.771,-0.827,0.611,238.708,341.248,42.114, , , , , , ,-12.491,-12.623,-106.87
 13:11:52.123,eb:33:2e:f9:57:b5, 2015-01-01 00:56:23.130,-0.771,-0.666,0.45,254.517,279.358,45.959, , , , , , ,-11.223,-11.052,-106.957
 13:11:52.123,eb:33:2e:f9:57:b5, 2015-01-01 00:56:23.130,-0.857,-0.148,0.66,244.812,200.5,36.072, , , , , , ,-9.954,-9.893,-106.957
 13:11:52.123,eb:33:2e:f9:57:b5, 2015-01-01 00:56:23.130,-0.292,0.342,1.052,212.463,154.297,8.118, , , , , , ,-8.817,-9.047,-107.007
 13:11:52.123,eb:33:2e:f9:57:b5, 2015-01-01 00:56:23.130,-0.363,0.354,1.256,187.378,133.179,-3.113, , , , , , ,-7.817,-8.344,-107.111
 13:11:52.123,eb:33:2e:f9:57:b5, 2015-01-01 00:56:23.130,-0.122,0.308,1.39,163.818,122.07,-25.024, , , , , , ,-6.932,-7.718,-107.287
 13:11:52.123,eb:33:2e:f9:57:b5, 2015-01-01 00:56:23.130,-0.17,0.092,1.322,149.902,116.211,-27.222, , , , , , ,-6.13,-7.152,-107.496
 13:11:52.123,eb:33:2e:f9:57:b5, 2015-01-01 00:56:23.130,-0.023,0.111,1.24,128.479,108.154,-17.029, , , , , , ,-5.422,-6.619,-107.666
 13:11:52.123,eb:33:2e:f9:57:b5, 2015-01-01 00:56:23.130,-0.136,0.083,1.192,100.647,104.309,11.292, , , , , , ,-4.85,-6.097,-107.715
 13:11:52.168,eb:33:2e:f9:57:b5, 2015-01-01 00:56:23.130,-0.135,0.293,1.229,76.477,104.309,25.208, , , , , , ,-4.427,-5.565,-107.65
 13:11:52.168,eb:33:2e:f9:57:b5, 2015-01-01 00:56:23.130,-0.164,0.216,1.243,58.838,104.065,31.433, , , , , , ,-4.109,-5.032,-107.545
 13:11:52.168,eb:33:2e:f9:57:b5, 2015-01-01 00:56:23.130,-0.27,0.101,1.115,51.636,94.788,28.931, , , , , , ,-3.851,-4.526,-107.424
 13:11:52.168,eb:33:2e:f9:57:b5, 2015-01-01 00:56:23.130,-0.274,0.048,0.875,48.401,68.787,25.513, , , , , , ,-3.615,-4.114,-107.32
 13:11:52.168,eb:33:2e:f9:57:b5, 2015-01-01 00:56:23.130,-0.163,0.042,0.781,46.265,43.213,18.86, , , , , , ,-3.384,-3.845,-107.232
 13:11:52.168,eb:33:2e:f9:57:b5, 2015-01-01 00:56:23.130,0.021,0.014,0.792,44.8,24.414,14.282, , , , , , ,-3.159,-3.68,-107.161
 13:11:52.168,eb:33:2e:f9:57:b5, 2015-01-01 00:56:23.130,0.083,-0.004,0.896,41.626,20.691,14.282, , , , , , ,-2.944,-3.571,-107.095
 13:11:52.168,eb:33:2e:f9:57:b5, 2015-01-01 00:56:23.130,0.046,0.019,0.925,37.659,21.973,14.099, , , , , , ,-2.752,-3.461,-107.034
 13:11:52.212,eb:33:2e:f9:57:b5, 2015-01-01 00:56:23.130,-0.005,0.033,0.9,33.691,20.569,12.939, , , , , , ,-2.582,-3.351,-106.968
 13:11:52.212,eb:33:2e:f9:57:b5, 2015-01-01 00:56:23.130,0.003,0.114,0.855,29.175,13.489,8.057, , , , , , ,-2.428,-3.263,-106.919
 13:11:52.212,eb:33:2e:f9:57:b5, 2015-01-01 00:56:23.130,0.064,0.114,0.89,24.719,8.484,3.479, , , , , , ,-2.296,-3.214,-106.897
 13:11:52.212,eb:33:2e:f9:57:b5, 2015-01-01 00:56:23.130,0.085,0.071,0.964,20.142,8.423,3.235, , , , , , ,-2.186,-3.17,-106.886
 13:11:52.212,eb:33:2e:f9:57:b5, 2015-01-01 00:56:23.130,0.045,0.074,1.02,14.954,10.254,3.479, , , , , , ,-2.104,-3.126,-106.87
 13:11:52.212,eb:33:2e:f9:57:b5, 2015-01-01 00:56:23.130,0.016,0.037,1.003,12.207,9.338,3.723, , , , , , ,-2.032,-3.071,-106.853
 13:11:52.212,eb:33:2e:f9:57:b5, 2015-01-01 00:56:23.130,0.021,0.003,0.984,11.536,7.08,2.808, , , , , , ,-1.978,-3.032,-106.837
 13:11:52.212,eb:33:2e:f9:57:b5, 2015-01-01 00:56:23.130,0.05,-0.021,0.985,12.451,4.7,2.319, , , , , , ,-1.917,-3.005,-106.826
 13:11:52.256,eb:33:2e:f9:57:b5, 2015-01-01 00:56:23.445,0.066,-0.029,1.009,13.123,4.7,2.197, , , , , , ,-1.857,-2.977,-106.815
 13:11:52.256,eb:33:2e:f9:57:b5, 2015-01-01 00:56:23.445,0.055,-0.014,1.026,12.817,6.104,1.953, , , , , , ,-1.791,-2.95,-106.809
 13:11:52.256,eb:33:2e:f9:57:b5, 2015-01-01 00:56:23.445,0.029,-0.006,1.024,12.146,6.653,1.831, , , , , , ,-1.725,-2.917,-106.798
 13:11:52.256,eb:33:2e:f9:57:b5, 2015-01-01 00:56:23.445,0.012,-0.008,1.002,11.292,5.432,1.343, , , , , , ,-1.67,-2.884,-106.793
 13:11:52.256,eb:33:2e:f9:57:b5, 2015-01-01 00:56:23.445,0.004,-0.023,0.992,11.841,3.174,1.221, , , , , , ,-1.609,-2.862,-106.787
 13:11:52.256,eb:33:2e:f9:57:b5, 2015-01-01 00:56:23.445,-0.003,-0.025,0.996,11.902,0.732,0, , , , , , ,-1.549,-2.856,-106.787
 13:11:52.256,eb:33:2e:f9:57:b5, 2015-01-01 00:56:23.445,0.006,-0.039,1.01,12.817,-1.77,-0.549, , , , , , ,-1.489,-2.862,-106.787
 13:11:52.256,eb:33:2e:f9:57:b5, 2015-01-01 00:56:23.445,0.019,-0.044,1.03,13.977,-3.296,-0.244, , , , , , ,-1.417,-2.873,-106.787
 13:11:52.280,eb:33:2e:f9:57:b5, 2015-01-01 00:56:23.445,0.031,-0.04,1.046,14.587,-3.357,-0.305, , , , , , ,-1.346,-2.889,-106.787
 13:11:52.280,eb:33:2e:f9:57:b5, 2015-01-01 00:56:23.445,0.037,-0.037,1.046,15.198,-2.991,-0.488, , , , , , ,-1.269,-2.906,-106.793
 13:11:52.280,eb:33:2e:f9:57:b5, 2015-01-01 00:56:23.445,0.041,-0.041,1.042,16.113,-2.625,0.122, , , , , , ,-1.192,-2.917,-106.793
 13:11:52.280,eb:33:2e:f9:57:b5, 2015-01-01 00:56:23.445,0.047,-0.043,1.035,17.029,-2.258,0.671, , , , , , ,-1.11,-2.933,-106.787
 13:11:52.280,eb:33:2e:f9:57:b5, 2015-01-01 00:56:23.445,0.05,-0.037,1.034,17.456,-1.526,0.671, , , , , , ,-1.022,-2.939,-106.787
 13:11:52.280,eb:33:2e:f9:57:b5, 2015-01-01 00:56:23.445,0.053,-0.019,1.025,17.395,-0.488,0.366, , , , , , ,-0.934,-2.944,-106.782
 13:11:52.280,eb:33:2e:f9:57:b5, 2015-01-01 00:56:23.445,0.076,-0.01,1.02,17.456,-0.122,0.061, , , , , , ,-0.846,-2.944,-106.782
 13:11:52.280,eb:33:2e:f9:57:b5, 2015-01-01 00:56:23.445,0.098,-0.021,1.048,18.86,0.183,-0.549, , , , , , ,-0.753,-2.944,-106.782
 13:11:52.324,eb:33:2e:f9:57:b5, 2015-01-01 00:56:23.445,0.106,-0.019,1.055,20.447,1.77,-1.709, , , , , , ,-0.654,-2.939,-106.793
 13:11:52.324,eb:33:2e:f9:57:b5, 2015-01-01 00:56:23.445,0.08,-0.015,1.072,21.362,6.775,-2.93, , , , , , ,-0.544,-2.911,-106.804
 13:11:52.324,eb:33:2e:f9:57:b5, 2015-01-01 00:56:23.445,0.071,-0.023,1.053,22.095,8.667,-3.052, , , , , , ,-0.434,-2.873,-106.82
 13:11:52.324,eb:33:2e:f9:57:b5, 2015-01-01 00:56:23.445,0.081,-0.009,1.035,22.217,10.315,-2.563, , , , , , ,-0.324,-2.823,-106.837
 13:11:52.324,eb:33:2e:f9:57:b5, 2015-01-01 00:56:23.445,0.093,0.006,1.033,21.79,13.123,-2.38, , , , , , ,-0.214,-2.769,-106.848
 13:11:52.324,eb:33:2e:f9:57:b5, 2015-01-01 00:56:23.445,0.1,0.009,1.034,20.569,17.212,-2.075, , , , , , ,-0.104,-2.686,-106.859
 13:11:52.324,eb:33:2e:f9:57:b5, 2015-01-01 00:56:23.445,0.104,0.02,1.028,18.982,21.851,-1.77, , , , , , ,-0.005,-2.587,-106.87
 13:11:52.324,eb:33:2e:f9:57:b5, 2015-01-01 00:56:23.445,0.098,0.03,1.038,18.127,25.513,-1.77, , , , , , ,0.082,-2.466,-106.88
 13:11:52.369,eb:33:2e:f9:57:b5, 2015-01-01 00:56:23.445,0.06,0.037,1.023,16.907,29.297,-1.465, , , , , , ,0.17,-2.329,-106.886
 13:11:52.369,eb:33:2e:f9:57:b5, 2015-01-01 00:56:23.445,0.037,0.026,0.987,15.625,30.518,-1.221, , , , , , ,0.253,-2.175,-106.891
 13:11:52.369,eb:33:2e:f9:57:b5, 2015-01-01 00:56:23.445,0.023,0.019,0.972,15.015,29.907,-0.977, , , , , , ,0.33,-2.021,-106.897
 13:11:52.369,eb:33:2e:f9:57:b5, 2015-01-01 00:56:23.445,0.015,0.018,0.958,14.343,28.87,-1.099, , , , , , ,0.401,-1.873,-106.902
 13:11:52.369,eb:33:2e:f9:57:b5, 2015-01-01 00:56:23.445,0.004,0.011,0.96,13.794,27.039,-1.343, , , , , , ,0.472,-1.736,-106.908
 13:11:52.369,eb:33:2e:f9:57:b5, 2015-01-01 00:56:23.445,-0.016,0.007,0.961,13.977,24.597,-1.221, , , , , , ,0.544,-1.609,-106.913
 13:11:52.369,eb:33:2e:f9:57:b5, 2015-01-01 00:56:23.445,-0.007,-0.004,0.954,14.893,20.508,-0.732, , , , , , ,0.615,-1.494,-106.919
 13:11:52.369,eb:33:2e:f9:57:b5, 2015-01-01 00:56:23.445,0.004,0.014,0.955,15.259,17.334,-1.038, , , , , , ,0.692,-1.401,-106.919
 13:11:52.415,eb:33:2e:f9:57:b5, 2015-01-01 00:56:23.445,0.016,0.02,0.966,15.198,15.869,-1.404, , , , , , ,0.769,-1.324,-106.924
 13:11:52.415,eb:33:2e:f9:57:b5, 2015-01-01 00:56:23.445,0.046,0.022,0.98,15.076,14.648,-1.343, , , , , , ,0.846,-1.241,-106.93
 13:11:52.415,eb:33:2e:f9:57:b5, 2015-01-01 00:56:23.445,0.048,0.034,1.011,14.343,16.357,-2.625, , , , , , ,0.923,-1.165,-106.941
 13:11:52.415,eb:33:2e:f9:57:b5, 2015-01-01 00:56:23.445,0.057,0.028,1.01,14.16,17.761,-3.052, , , , , , ,0.994,-1.077,-106.957
 13:11:52.415,eb:33:2e:f9:57:b5, 2015-01-01 00:56:23.445,0.055,0.029,1.016,14.16,19.958,-3.357, , , , , , ,1.066,-0.983,-106.968
 13:11:52.415,eb:33:2e:f9:57:b5, 2015-01-01 00:56:23.445,0.052,0.032,1.012,14.343,21.484,-3.601, , , , , , ,1.137,-0.879,-106.985
 13:11:52.415,eb:33:2e:f9:57:b5, 2015-01-01 00:56:23.445,0.031,0.04,1.01,14.648,22.4,-4.028, , , , , , ,1.208,-0.764,-107.007
 13:11:52.415,eb:33:2e:f9:57:b5, 2015-01-01 00:56:23.445,0.009,0.045,0.991,13.977,23.315,-5.005, , , , , , ,1.28,-0.648,-107.029
 13:11:52.441,eb:33:2e:f9:57:b5, 2015-01-01 00:56:23.445,0.022,0.021,0.986,14.099,22.339,-3.845, , , , , , ,1.351,-0.533,-107.051
 13:11:52.441,eb:33:2e:f9:57:b5, 2015-01-01 00:56:23.445,0.015,0.075,1.015,12.878,26.245,-6.836, , , , , , ,1.423,-0.412,-107.078
 13:11:52.441,eb:33:2e:f9:57:b5, 2015-01-01 00:56:23.445,0.013,0.06,0.997,13.184,25.269,-8.667, , , , , , ,1.489,-0.286,-107.111
 13:11:52.441,eb:33:2e:f9:57:b5, 2015-01-01 00:56:23.445,0.063,0.047,0.991,14.832,21.912,-9.888, , , , , , ,1.56,-0.165,-107.155
 13:11:52.441,eb:33:2e:f9:57:b5, 2015-01-01 00:56:23.445,0.006,0.045,1.064,17.944,20.63,-11.536, , , , , , ,1.642,-0.06,-107.21
 13:11:52.441,eb:33:2e:f9:57:b5, 2015-01-01 00:56:23.445,-0.112,0.017,1.048,18.188,22.827,-10.62, , , , , , ,1.736,0.044,-107.265
 13:11:52.441,eb:33:2e:f9:57:b5, 2015-01-01 00:56:23.445,-0.033,-0.039,0.917,12.878,27.893,-3.54, , , , , , ,1.813,0.176,-107.292
 13:11:52.441,eb:33:2e:f9:57:b5, 2015-01-01 00:56:23.445,-0.018,0.092,1,15.076,20.386,-8.118, , , , , , ,1.884,0.28,-107.325
 13:11:52.481,eb:33:2e:f9:57:b5, 2015-01-01 00:56:23.445,0,0.025,1.058,17.029,20.142,-7.996, , , , , , ,1.967,0.385,-107.364
 13:11:52.482,eb:33:2e:f9:57:b5, 2015-01-01 00:56:23.445,0.004,0.002,1.05,19.409,19.287,-7.141, , , , , , ,2.06,0.483,-107.397
 13:11:52.482,eb:33:2e:f9:57:b5, 2015-01-01 00:56:23.445,-0.02,0.029,1.03,21.362,18.555,-7.507, , , , , , ,2.164,0.582,-107.43
 13:11:52.482,eb:33:2e:f9:57:b5, 2015-01-01 00:56:23.445,-0.017,0.023,1.014,22.4,17.334,-7.202, , , , , , ,2.274,0.67,-107.463
 13:11:52.482,eb:33:2e:f9:57:b5, 2015-01-01 00:56:23.445,-0.013,0.051,1,22.827,16.296,-7.507, , , , , , ,2.39,0.758,-107.496
 13:11:52.484,eb:33:2e:f9:57:b5, 2015-01-01 00:56:23.445,-0.008,0.058,0.995,22.827,15.869,-8.423, , , , , , ,2.505,0.84,-107.534
 13:11:52.484,eb:33:2e:f9:57:b5, 2015-01-01 00:56:23.445,-0.001,0.046,1.008,23.254,15.869,-8.667, , , , , , ,2.62,0.923,-107.573
 13:11:52.484,eb:33:2e:f9:57:b5, 2015-01-01 00:56:23.445,-0.022,0.041,1.027,24.048,16.541,-8.972, , , , , , ,2.736,1.005,-107.617
 13:11:52.549,eb:33:2e:f9:57:b5, 2015-01-01 00:56:23.445,-0.039,0.023,1.043,25.635,17.456,-8.301, , , , , , ,2.862,1.093,-107.655
 13:11:52.549,eb:33:2e:f9:57:b5, 2015-01-01 00:56:23.445,-0.041,0.02,1.028,27.1,17.212,-7.141, , , , , , ,2.994,1.181,-107.688
 13:11:52.549,eb:33:2e:f9:57:b5, 2015-01-01 00:56:23.445,-0.007,0.039,1,27.527,17.029,-6.836, , , , , , ,3.131,1.269,-107.715
 13:11:52.549,eb:33:2e:f9:57:b5, 2015-01-01 00:56:23.445,-0.033,0.059,1.012,28.381,17.639,-7.141, , , , , , ,3.268,1.357,-107.748
 13:11:52.549,eb:33:2e:f9:57:b5, 2015-01-01 00:56:23.445,-0.029,0.054,0.989,29.419,16.418,-7.263, , , , , , ,3.417,1.445,-107.781
 13:11:52.549,eb:33:2e:f9:57:b5, 2015-01-01 00:56:23.445,-0.032,0.055,1.004,30.212,16.296,-7.446, , , , , , ,3.565,1.533,-107.809
 13:11:52.549,eb:33:2e:f9:57:b5, 2015-01-01 00:56:23.445,-0.016,0.058,1.029,30.457,16.113,-7.69, , , , , , ,3.719,1.615,-107.842
 13:11:52.549,eb:33:2e:f9:57:b5, 2015-01-01 00:56:23.445,0,0.05,1.083,30.212,19.104,-7.385, , , , , , ,3.867,1.708,-107.875
 13:11:52.572,eb:33:2e:f9:57:b5, 2015-01-01 00:56:23.755,0.018,0.083,1.04,30.64,19.653,-8.24, , , , , , ,4.021,1.807,-107.908
 13:11:52.572,eb:33:2e:f9:57:b5, 2015-01-01 00:56:23.755,0.015,0.088,1.038,30.64,21.484,-8.972, , , , , , ,4.175,1.917,-107.946
 13:11:52.572,eb:33:2e:f9:57:b5, 2015-01-01 00:56:23.755,0.019,0.091,1.059,30.884,23.254,-9.888, , , , , , ,4.323,2.032,-107.985
 13:11:52.572,eb:33:2e:f9:57:b5, 2015-01-01 00:56:23.755,-0.015,0.084,1.097,32.41,24.902,-10.254, , , , , , ,4.482,2.159,-108.029
 13:11:52.572,eb:33:2e:f9:57:b5, 2015-01-01 00:56:23.755,-0.037,0.064,1.138,35.034,27.344,-9.888, , , , , , ,4.653,2.296,-108.067
 13:11:52.572,eb:33:2e:f9:57:b5, 2015-01-01 00:56:23.755,-0.033,0.048,1.16,38.574,28.442,-9.094, , , , , , ,4.839,2.439,-108.1
 13:11:52.572,eb:33:2e:f9:57:b5, 2015-01-01 00:56:23.755,-0.041,0.063,1.119,41.87,27.954,-8.728, , , , , , ,5.037,2.582,-108.133
 13:11:52.572,eb:33:2e:f9:57:b5, 2015-01-01 00:56:23.755,-0.032,0.062,1.123,45.471,26.794,-9.094, , , , , , ,5.257,2.725,-108.166
 13:11:52.617,eb:33:2e:f9:57:b5, 2015-01-01 00:56:23.755,-0.047,0.065,1.136,48.645,26.855,-9.033, , , , , , ,5.493,2.862,-108.199
 13:11:52.617,eb:33:2e:f9:57:b5, 2015-01-01 00:56:23.755,-0.06,0.051,1.144,52.185,25.94,-8.545, , , , , , ,5.746,2.999,-108.232
 13:11:52.617,eb:33:2e:f9:57:b5, 2015-01-01 00:56:23.755,-0.089,0.043,1.184,55.725,26.855,-7.874, , , , , , ,6.015,3.131,-108.259
 13:11:52.617,eb:33:2e:f9:57:b5, 2015-01-01 00:56:23.755,-0.068,0.034,1.215,60.364,26.062,-7.446, , , , , , ,6.306,3.268,-108.281
 13:11:52.617,eb:33:2e:f9:57:b5, 2015-01-01 00:56:23.755,-0.065,0.043,1.278,64.88,26.855,-7.446, , , , , , ,6.625,3.406,-108.303
 13:11:52.617,eb:33:2e:f9:57:b5, 2015-01-01 00:56:23.755,-0.032,-0.011,1.412,69.153,33.813,-5.798, , , , , , ,6.96,3.565,-108.32
 13:11:52.617,eb:33:2e:f9:57:b5, 2015-01-01 00:56:23.755,-0.022,0.055,1.281,75.195,34.058,-5.615, , , , , , ,7.322,3.741,-108.325
 13:11:52.617,eb:33:2e:f9:57:b5, 2015-01-01 00:56:23.755,-0.003,0.086,1.245,81.116,33.02,-7.385, , , , , , ,7.718,3.906,-108.336
 13:11:52.640,eb:33:2e:f9:57:b5, 2015-01-01 00:56:23.755,0.024,0.071,1.362,86.792,37.231,-8.423, , , , , , ,8.141,4.087,-108.353
 13:11:52.640,eb:33:2e:f9:57:b5, 2015-01-01 00:56:23.755,0.056,0.073,1.39,93.75,41.992,-9.155, , , , , , ,8.591,4.296,-108.364
 13:11:52.640,eb:33:2e:f9:57:b5, 2015-01-01 00:56:23.755,0.089,0.106,1.368,101.196,44.739,-10.864, , , , , , ,9.08,4.515,-108.38
 13:11:52.641,eb:33:2e:f9:57:b5, 2015-01-01 00:56:23.755,0.096,0.137,1.396,108.704,49.011,-13.733, , , , , , ,9.608,4.763,-108.402
 13:11:52.641,eb:33:2e:f9:57:b5, 2015-01-01 00:56:23.755,0.081,0.131,1.436,115.906,55.969,-16.968, , , , , , ,10.173,5.037,-108.435
 13:11:52.641,eb:33:2e:f9:57:b5, 2015-01-01 00:56:23.755,0.116,0.128,1.454,123.657,61.523,-20.264, , , , , , ,10.772,5.345,-108.474
 13:11:52.641,eb:33:2e:f9:57:b5, 2015-01-01 00:56:23.755,0.059,0.12,1.486,133.545,71.228,-22.156, , , , , , ,11.415,5.696,-108.517
 13:11:52.641,eb:33:2e:f9:57:b5, 2015-01-01 00:56:23.755,0.095,0.161,1.487,142.151,70.923,-24.902, , , , , , ,12.101,6.07,-108.561
 13:11:52.684,eb:33:2e:f9:57:b5, 2015-01-01 00:56:23.755,0.055,0.13,1.469,152.466,70.068,-25.513, , , , , , ,12.843,6.443,-108.605
 13:11:52.684,eb:33:2e:f9:57:b5, 2015-01-01 00:56:23.755,-0.024,0.087,1.554,161.743,70.129,-27.344, , , , , , ,13.629,6.812,-108.66
 13:11:52.684,eb:33:2e:f9:57:b5, 2015-01-01 00:56:23.755,-0.035,-0.043,1.77,171.021,78.857,-24.231, , , , , , ,14.458,7.207,-108.693
 13:11:52.684,eb:33:2e:f9:57:b5, 2015-01-01 00:56:23.755,0.023,0.014,1.693,183.899,80.933,-22.888, , , , , , ,15.348,7.635,-108.699
 13:11:52.684,eb:33:2e:f9:57:b5, 2015-01-01 00:56:23.755,0.005,0.075,1.544,198.303,72.876,-24.597, , , , , , ,16.309,8.031,-108.71
 13:11:52.685,eb:33:2e:f9:57:b5, 2015-01-01 00:56:23.755,0.015,0.033,1.657,210.938,66.528,-26.428, , , , , , ,17.336,8.399,-108.737
 13:11:52.685,eb:33:2e:f9:57:b5, 2015-01-01 00:56:23.755,0.056,-0.06,1.875,225.83,69.153,-25.024, , , , , , ,18.435,8.762,-108.754
 13:11:52.685,eb:33:2e:f9:57:b5, 2015-01-01 00:56:23.755,0.051,-0.002,1.775,243.042,65.308,-26.672, , , , , , ,19.611,9.124,-108.765
 13:11:52.751,eb:33:2e:f9:57:b5, 2015-01-01 00:56:23.755,0.048,0.032,1.758,262.756,54.932,-30.334, , , , , , ,20.88,9.448,-108.798
 13:11:52.751,eb:33:2e:f9:57:b5, 2015-01-01 00:56:23.755,0.082,0.086,1.875,283.02,39.673,-35.889, , , , , , ,22.242,9.723,-108.869
 13:11:52.751,eb:33:2e:f9:57:b5, 2015-01-01 00:56:23.755,0.079,-0.028,2.07,304.626,32.104,-40.527, , , , , , ,23.703,9.959,-108.984
 13:11:52.751,eb:33:2e:f9:57:b5, 2015-01-01 00:56:23.755,0.102,-0.071,2.188,326.294,27.344,-45.166, , , , , , ,25.269,10.179,-109.116
 13:11:52.751,eb:33:2e:f9:57:b5, 2015-01-01 00:56:23.755,0.201,-0.086,2.38,348.938,25.513,-51.392, , , , , , ,26.938,10.41,-109.281
 13:11:52.751,eb:33:2e:f9:57:b5, 2015-01-01 00:56:23.755,0.295,-0.139,2.494,372.986,25.818,-55.908, , , , , , ,28.718,10.646,-109.468
 13:11:52.751,eb:33:2e:f9:57:b5, 2015-01-01 00:56:23.755,0.4,0.143,2.528,395.996,16.846,-64.758, , , , , , ,30.613,10.887,-109.677
 13:11:52.751,eb:33:2e:f9:57:b5, 2015-01-01 00:56:23.755,0.263,0.196,2.73,417.664,19.958,-78.43, , , , , , ,32.613,11.146,-109.946
 13:11:52.774,eb:33:2e:f9:57:b5, 2015-01-01 00:56:23.755,0.41,-0.134,3.19,437.195,42.603,-86.426, , , , , , ,34.706,11.519,-110.204
 13:11:52.774,eb:33:2e:f9:57:b5, 2015-01-01 00:56:23.755,0.479,-0.336,3.051,457.153,53.772,-91.797, , , , , , ,36.903,11.981,-110.429
 13:11:52.774,eb:33:2e:f9:57:b5, 2015-01-01 00:56:23.755,0.401,-0.126,3.04,461.548,62.5,-101.929, , , , , , ,39.161,12.513,-110.638
 13:11:52.774,eb:33:2e:f9:57:b5, 2015-01-01 00:56:23.755,0.604,-0.144,3.656,470.337,92.651,-101.99, , , , , , ,41.462,13.145,-110.775
 13:11:52.774,eb:33:2e:f9:57:b5, 2015-01-01 00:56:23.755,0.741,0.088,3.329,472.473,106.75,-106.201, , , , , , ,43.819,13.881,-110.803
 13:11:52.774,eb:33:2e:f9:57:b5, 2015-01-01 00:56:23.755,0.794,0.668,2.992,476.44,89.6,-122.742, , , , , , ,46.17,14.628,-110.869
 13:11:52.774,eb:33:2e:f9:57:b5, 2015-01-01 00:56:23.755,1.013,0.486,3.676,469.177,105.652,-135.193, , , , , , ,48.505,15.43,-110.973
 13:11:52.774,eb:33:2e:f9:57:b5, 2015-01-01 00:56:23.755,0.938,-0.079,3.631,470.093,137.268,-133.24, , , , , , ,50.867,16.342,-110.923
 13:11:52.820,eb:33:2e:f9:57:b5, 2015-01-01 00:56:23.755,1.296,-0.115,3.119,482.056,135.071,-141.174, , , , , , ,53.289,17.32,-110.786
 13:11:52.820,eb:33:2e:f9:57:b5, 2015-01-01 00:56:23.755,1.719,-0.186,2.029,477.661,99.854,-161.011, , , , , , ,55.69,18.27,-110.764
 13:11:52.820,eb:33:2e:f9:57:b5, 2015-01-01 00:56:23.755,1.909,-0.883,1.432,455.566,64.026,-184.265, , , , , , ,57.969,19.21,-110.929
 13:11:52.820,eb:33:2e:f9:57:b5, 2015-01-01 00:56:23.755,1.895,-1.988,0.106,420.471,24.597,-208.374, , , , , , ,60.024,20.176,-111.259
 13:11:52.820,eb:33:2e:f9:57:b5, 2015-01-01 00:56:23.755,0.898,-1.603,-1.224,327.759,40.71,-217.651, , , , , , ,61.727,21.22,-111.703
 13:11:52.820,eb:33:2e:f9:57:b5, 2015-01-01 00:56:23.755,0.512,-1.039,-2.181,199.768,-7.385,-172.668, , , , , , ,62.825,22.099,-112.099
 13:11:52.820,eb:33:2e:f9:57:b5, 2015-01-01 00:56:23.755,0.442,-1.121,-0.611,91.37,-65.308,-145.752, , , , , , ,63.259,22.692,-112.692
 13:11:52.820,eb:33:2e:f9:57:b5, 2015-01-01 00:56:23.755,0.603,-1.432,0.587,15.747,-100.769,-130.066, , , , , , ,63.182,23.099,-113.456
 13:11:52.842,eb:33:2e:f9:57:b5, 2015-01-01 00:56:23.755,0.611,-1.711,1.271,-45.654,-84.839,-106.995, , , , , , ,62.776,23.406,-114.208
 13:11:52.842,eb:33:2e:f9:57:b5, 2015-01-01 00:56:23.755,0.549,-1.798,1.561,-97.656,-23.254,-72.754, , , , , , ,62.183,23.659,-114.675
 13:11:52.842,eb:33:2e:f9:57:b5, 2015-01-01 00:56:23.755,0.498,-1.586,1.71,-117.188,31.86,-52.856, , , , , , ,61.589,23.95,-114.78
 13:11:52.842,eb:33:2e:f9:57:b5, 2015-01-01 00:56:23.755,0.43,-1.312,1.658,-120.972,73.792,-38.391, , , , , , ,61.051,24.285,-114.609
 13:11:52.842,eb:33:2e:f9:57:b5, 2015-01-01 00:56:23.755,0.384,-1.143,1.163,-120.178,92.163,-26.245, , , , , , ,60.59,24.631,-114.274
 13:11:52.842,eb:33:2e:f9:57:b5, 2015-01-01 00:56:23.755,0.36,-1.112,0.427,-122.986,86.914,-13, , , , , , ,60.128,24.928,-113.901
 13:11:52.842,eb:33:2e:f9:57:b5, 2015-01-01 00:56:23.755,0.37,-1.122,-0.23,-131.287,62.073,1.16, , , , , , ,59.634,25.131,-113.56
 13:11:52.842,eb:33:2e:f9:57:b5, 2015-01-01 00:56:23.755,0.383,-1.1,-0.548,-141.052,21.667,13.916, , , , , , ,59.035,25.192,-113.346
 13:11:52.887,eb:33:2e:f9:57:b5, 2015-01-01 00:56:23.755,0.394,-1.062,-0.525,-149.475,-23.682,23.804, , , , , , ,58.315,25.093,-113.318
 13:11:52.887,eb:33:2e:f9:57:b5, 2015-01-01 00:56:23.755,0.386,-1.037,-0.333,-158.63,-61.401,32.043, , , , , , ,57.469,24.835,-113.461
 13:11:52.887,eb:33:2e:f9:57:b5, 2015-01-01 00:56:23.755,0.343,-1.05,-0.09,-169.861,-84.167,40.344, , , , , , ,56.541,24.472,-113.703
 13:11:52.887,eb:33:2e:f9:57:b5, 2015-01-01 00:56:23.755,0.315,-1.039,0.164,-183.716,-93.018,47.791, , , , , , ,55.541,24.033,-113.972
 13:11:52.887,eb:33:2e:f9:57:b5, 2015-01-01 00:56:23.755,0.295,-0.999,0.415,-198.975,-89.661,54.138, , , , , , ,54.476,23.56,-114.219
 13:11:52.887,eb:33:2e:f9:57:b5, 2015-01-01 00:56:23.755,0.292,-0.918,0.562,-215.027,-80.688,58.594, , , , , , ,53.339,23.071,-114.417
 13:11:52.887,eb:33:2e:f9:57:b5, 2015-01-01 00:56:23.755,0.308,-0.826,0.575,-231.323,-72.998,60.547, , , , , , ,52.163,22.604,-114.549
 13:11:52.887,eb:33:2e:f9:57:b5, 2015-01-01 00:56:23.755,0.343,-0.724,0.493,-247.07,-70.923,60.486, , , , , , ,50.922,22.143,-114.642
 13:11:52.932,eb:33:2e:f9:57:b5, 2015-01-01 00:56:24.090,0.378,-0.625,0.395,-261.963,-75.684,57.922, , , , , , ,49.603,21.682,-114.741
 13:11:52.932,eb:33:2e:f9:57:b5, 2015-01-01 00:56:24.090,0.395,-0.534,0.337,-275.818,-85.388,53.101, , , , , , ,48.186,21.198,-114.884
 13:11:52.932,eb:33:2e:f9:57:b5, 2015-01-01 00:56:24.090,0.425,-0.456,0.323,-287.781,-100.22,46.875, , , , , , ,46.703,20.698,-115.076
 13:11:52.932,eb:33:2e:f9:57:b5, 2015-01-01 00:56:24.090,0.434,-0.399,0.375,-298.035,-114.38,39.551, , , , , , ,45.143,20.165,-115.329
 13:11:52.932,eb:33:2e:f9:57:b5, 2015-01-01 00:56:24.090,0.437,-0.349,0.468,-306.641,-127.197,32.104, , , , , , ,43.517,19.605,-115.653
 13:11:52.932,eb:33:2e:f9:57:b5, 2015-01-01 00:56:24.090,0.436,-0.3,0.573,-313.66,-138.367,25.085, , , , , , ,41.819,19.006,-116.032
 13:11:52.932,eb:33:2e:f9:57:b5, 2015-01-01 00:56:24.090,0.428,-0.26,0.689,-319.397,-148.315,19.104, , , , , , ,40.1,18.391,-116.444
 13:11:52.932,eb:33:2e:f9:57:b5, 2015-01-01 00:56:24.090,0.425,-0.233,0.781,-324.463,-156.128,13.916, , , , , , ,38.348,17.754,-116.889
 13:11:52.976,eb:33:2e:f9:57:b5, 2015-01-01 00:56:24.090,0.424,-0.207,0.886,-328.613,-163.147,10.315, , , , , , ,36.573,17.084,-117.35
 13:11:52.976,eb:33:2e:f9:57:b5, 2015-01-01 00:56:24.090,0.419,-0.194,0.969,-332.336,-168.213,7.141, , , , , , ,34.766,16.375,-117.828
 13:11:52.976,eb:33:2e:f9:57:b5, 2015-01-01 00:56:24.090,0.415,-0.192,1.022,-334.9,-174.866,5.371, , , , , , ,32.964,15.639,-118.301
 13:11:52.976,eb:33:2e:f9:57:b5, 2015-01-01 00:56:24.090,0.418,-0.205,1.065,-335.938,-183.533,5.981, , , , , , ,31.163,14.865,-118.768
 13:11:52.976,eb:33:2e:f9:57:b5, 2015-01-01 00:56:24.090,0.403,-0.2,1.145,-337.036,-190.674,6.531, , , , , , ,29.366,14.035,-119.229
 13:11:52.976,eb:33:2e:f9:57:b5, 2015-01-01 00:56:24.090,0.376,-0.191,1.209,-336.731,-200.439,9.766, , , , , , ,27.554,13.14,-119.68
 13:11:52.976,eb:33:2e:f9:57:b5, 2015-01-01 00:56:24.090,0.351,-0.169,1.315,-336.67,-208.862,13.794, , , , , , ,25.779,12.195,-120.097
 13:11:52.976,eb:33:2e:f9:57:b5, 2015-01-01 00:56:24.090,0.318,-0.18,1.444,-336.243,-214.661,20.569, , , , , , ,24.022,11.195,-120.465
 13:11:53.021,eb:33:2e:f9:57:b5, 2015-01-01 00:56:24.090,0.281,-0.172,1.555,-336.121,-217.834,28.442, , , , , , ,22.28,10.151,-120.784
 13:11:53.021,eb:33:2e:f9:57:b5, 2015-01-01 00:56:24.090,0.266,-0.172,1.669,-335.876,-219.666,39.368, , , , , , ,20.544,9.053,-121.031
 13:11:53.021,eb:33:2e:f9:57:b5, 2015-01-01 00:56:24.090,0.276,-0.156,1.744,-336.609,-220.764,50.903, , , , , , ,18.836,7.938,-121.185
 13:11:53.021,eb:33:2e:f9:57:b5, 2015-01-01 00:56:24.090,0.291,-0.132,1.838,-337.952,-220.886,66.467, , , , , , ,17.144,6.79,-121.24
 13:11:53.021,eb:33:2e:f9:57:b5, 2015-01-01 00:56:24.090,0.349,-0.106,1.921,-338.196,-219.421,79.163, , , , , , ,15.458,5.63,-121.19
 13:11:53.021,eb:33:2e:f9:57:b5, 2015-01-01 00:56:24.090,0.431,-0.07,1.981,-336.914,-219.177,90.759, , , , , , ,13.76,4.449,-121.053
 13:11:53.021,eb:33:2e:f9:57:b5, 2015-01-01 00:56:24.090,0.514,0,2.036,-334.839,-220.703,101.196, , , , , , ,12.096,3.268,-120.828
 13:11:53.021,eb:33:2e:f9:57:b5, 2015-01-01 00:56:24.090,0.602,0.052,2.097,-332.947,-221.497,108.643, , , , , , ,10.443,2.076,-120.52
 13:11:53.044,eb:33:2e:f9:57:b5, 2015-01-01 00:56:24.090,0.698,0.124,2.149,-331.177,-223.45,114.502, , , , , , ,8.795,0.89,-120.152
 13:11:53.044,eb:33:2e:f9:57:b5, 2015-01-01 00:56:24.090,0.787,0.229,2.21,-330.383,-226.074,116.516, , , , , , ,7.119,-0.313,-119.734
 13:11:53.044,eb:33:2e:f9:57:b5, 2015-01-01 00:56:24.090,0.858,0.349,2.279,-330.261,-228.943,115.662, , , , , , ,5.46,-1.511,-119.284
 13:11:53.044,eb:33:2e:f9:57:b5, 2015-01-01 00:56:24.090,0.907,0.451,2.346,-330.75,-233.337,112.061, , , , , , ,3.79,-2.708,-118.806
 13:11:53.044,eb:33:2e:f9:57:b5, 2015-01-01 00:56:24.090,0.945,0.542,2.422,-332.092,-237.732,107.666, , , , , , ,2.109,-3.917,-118.317
 13:11:53.044,eb:33:2e:f9:57:b5, 2015-01-01 00:56:24.090,0.945,0.655,2.525,-333.862,-241.76,102.478, , , , , , ,0.379,-5.142,-117.823
 13:11:53.044,eb:33:2e:f9:57:b5, 2015-01-01 00:56:24.090,0.929,0.763,2.59,-334.656,-247.375,97.168, , , , , , ,-1.335,-6.361,-117.312
 13:11:53.044,eb:33:2e:f9:57:b5, 2015-01-01 00:56:24.090,0.895,0.863,2.635,-333.862,-253.723,91.736, , , , , , ,-3.071,-7.597,-116.79
 13:11:53.090,eb:33:2e:f9:57:b5, 2015-01-01 00:56:24.090,0.717,0.963,2.642,-330.688,-260.681,85.693, , , , , , ,-4.812,-8.855,-116.257
 13:11:53.090,eb:33:2e:f9:57:b5, 2015-01-01 00:56:24.090,0.453,0.983,2.521,-318.97,-278.992,79.895, , , , , , ,-6.542,-10.168,-115.703
 13:11:53.090,eb:33:2e:f9:57:b5, 2015-01-01 00:56:24.090,0.274,0.999,2.345,-302.856,-306.885,73.486, , , , , , ,-8.201,-11.585,-115.126
 13:11:53.090,eb:33:2e:f9:57:b5, 2015-01-01 00:56:24.090,0.103,1.063,2.425,-288.757,-329.773,69.153, , , , , , ,-9.8,-13.118,-114.516
 13:11:53.090,eb:33:2e:f9:57:b5, 2015-01-01 00:56:24.090,-0.13,1.151,2.767,-278.87,-334.839,67.932, , , , , , ,-11.376,-14.7,-113.851
 13:11:53.090,eb:33:2e:f9:57:b5, 2015-01-01 00:56:24.090,-0.362,1.221,3.082,-271.301,-324.89,69.214, , , , , , ,-12.953,-16.254,-113.137
 13:11:53.090,eb:33:2e:f9:57:b5, 2015-01-01 00:56:24.090,-0.557,1.297,3.316,-263.184,-303.711,72.632, , , , , , ,-14.507,-17.688,-112.39
 13:11:53.090,eb:33:2e:f9:57:b5, 2015-01-01 00:56:24.090,-0.803,1.399,3.437,-252.197,-275.269,76.233, , , , , , ,-16.035,-18.973,-111.61
 13:11:53.135,eb:33:2e:f9:57:b5, 2015-01-01 00:56:24.090,-0.956,1.612,3.31,-238.098,-247.131,78.125, , , , , , ,-17.518,-20.099,-110.825
 13:11:53.135,eb:33:2e:f9:57:b5, 2015-01-01 00:56:24.090,-0.975,1.984,3.048,-223.755,-221.497,76.599, , , , , , ,-18.957,-21.088,-110.039
 13:11:53.135,eb:33:2e:f9:57:b5, 2015-01-01 00:56:24.090,-1.048,2.475,2.835,-210.327,-190.918,70.679, , , , , , ,-20.308,-21.923,-109.297
 13:11:53.135,eb:33:2e:f9:57:b5, 2015-01-01 00:56:24.090,-1.296,3.055,2.542,-193.42,-161.621,58.411, , , , , , ,-21.561,-22.615,-108.644
 13:11:53.135,eb:33:2e:f9:57:b5, 2015-01-01 00:56:24.090,-1.809,3.691,2.015,-169.8,-144.226,42.297, , , , , , ,-22.676,-23.214,-108.094
 13:11:53.135,eb:33:2e:f9:57:b5, 2015-01-01 00:56:24.090,-2.327,4.305,1.4,-137.207,-145.447,27.344, , , , , , ,-23.632,-23.818,-107.617
 13:11:53.135,eb:33:2e:f9:57:b5, 2015-01-01 00:56:24.090,-2.675,4.797,1.271,-90.576,-157.471,13.855, , , , , , ,-24.362,-24.478,-107.183
 13:11:53.135,eb:33:2e:f9:57:b5, 2015-01-01 00:56:24.090,-2.806,4.981,1.683,-28.503,-157.776,-5.371, , , , , , ,-24.796,-25.197,-106.804
 13:11:53.224,eb:33:2e:f9:57:b5, 2015-01-01 00:56:24.090,-2.673,4.682,2.372,36.377,-135.315,-16.846, , , , , , ,-24.862,-25.873,-106.523
 13:11:53.224,eb:33:2e:f9:57:b5, 2015-01-01 00:56:24.090,-2.36,4.019,2.878,98.755,-95.154,-33.63, , , , , , ,-24.543,-26.455,-106.392
 13:11:53.224,eb:33:2e:f9:57:b5, 2015-01-01 00:56:24.090,-1.858,3.183,3.003,130.92,-28.809,-38.635, , , , , , ,-23.917,-26.768,-106.452
 13:11:53.224,eb:33:2e:f9:57:b5, 2015-01-01 00:56:24.090,-1.719,2.58,2.589,129.761,48.157,-36.377, , , , , , ,-23.148,-26.752,-106.694
 13:11:53.224,eb:33:2e:f9:57:b5, 2015-01-01 00:56:24.090,-1.288,1.964,1.797,115.112,94.604,-27.161, , , , , , ,-22.396,-26.455,-107.023
 13:11:53.224,eb:33:2e:f9:57:b5, 2015-01-01 00:56:24.090,-0.564,1.812,1.38,98.389,122.07,-24.475, , , , , , ,-21.703,-25.977,-107.391
 13:11:53.224,eb:33:2e:f9:57:b5, 2015-01-01 00:56:24.090,1.493,1.771,1.439,150.757,29.297,-60.608, , , , , , ,-21,-25.571,-107.781
 13:11:53.224,eb:33:2e:f9:57:b5, 2015-01-01 00:56:24.090,-0.419,-0.003,7.255,133.667,437.622,-41.321, , , , , , ,-19.913,-24.258,-108.66
 13:11:53.226,eb:33:2e:f9:57:b5, 2015-01-01 00:56:24.090,2.375,-0.506,-0.071,149.902,329.224,-42.786, , , , , , ,-18.825,-22.538,-109.605
 13:11:53.226,eb:33:2e:f9:57:b5, 2015-01-01 00:56:24.090,0.938,-1.928,3.07,164.062,419.861,9.094, , , , , , ,-17.743,-20.847,-110.336
 13:11:53.226,eb:33:2e:f9:57:b5, 2015-01-01 00:56:24.090,0.96,-1.042,1.134,181.641,437.866,24.17, , , , , , ,-16.666,-18.759,-110.901
 13:11:53.226,eb:33:2e:f9:57:b5, 2015-01-01 00:56:24.090,0.157,-0.933,1.311,187.927,448.181,38.757, , , , , , ,-15.601,-16.556,-111.385
 13:11:53.226,eb:33:2e:f9:57:b5, 2015-01-01 00:56:24.090,-0.12,-0.958,0.836,205.75,403.137,51.514, , , , , , ,-14.518,-14.414,-111.703
 13:11:53.226,eb:33:2e:f9:57:b5, 2015-01-01 00:56:24.090,-0.478,-0.865,0.537,231.689,335.632,71.899, , , , , , ,-13.381,-12.541,-111.841
 13:11:53.226,eb:33:2e:f9:57:b5, 2015-01-01 00:56:24.090,-1.001,-0.626,0.458,249.268,272.156,77.087, , , , , , ,-12.173,-11.014,-111.802
 13:11:53.226,eb:33:2e:f9:57:b5, 2015-01-01 00:56:24.090,-0.906,-0.238,0.772,246.399,221.558,54.321, , , , , , ,-10.942,-9.767,-111.742
 13:11:53.291,eb:33:2e:f9:57:b5, 2015-01-01 00:56:24.090,-0.656,0.061,1.003,233.704,186.768,32.41, , , , , , ,-9.75,-8.745,-111.72
 13:11:53.291,eb:33:2e:f9:57:b5, 2015-01-01 00:56:24.090,-0.634,0.348,1.32,210.449,151.55,5.31, , , , , , ,-8.635,-7.921,-111.758
 13:11:53.291,eb:33:2e:f9:57:b5, 2015-01-01 00:56:24.090,-0.344,0.51,1.394,180.664,112.671,-28.198, , , , , , ,-7.646,-7.295,-111.912
 13:11:53.291,eb:33:2e:f9:57:b5, 2015-01-01 00:56:24.090,-0.254,0.232,1.488,162.842,98.022,-43.762, , , , , , ,-6.762,-6.839,-112.154
 13:11:53.291,eb:33:2e:f9:57:b5, 2015-01-01 00:56:24.090,-0.167,0.079,1.271,155.029,81.238,-47.18, , , , , , ,-5.938,-6.443,-112.423
 13:11:53.291,eb:33:2e:f9:57:b5, 2015-01-01 00:56:24.090,-0.145,-0.094,1.042,151.123,68.42,-37.476, , , , , , ,-5.147,-6.097,-112.67
 13:11:53.293,eb:33:2e:f9:57:b5, 2015-01-01 00:56:24.090,0.048,-0.071,1.153,139.771,64.758,-21.667, , , , , , ,-4.4,-5.779,-112.841
 13:11:53.293,eb:33:2e:f9:57:b5, 2015-01-01 00:56:24.090,0.078,0.048,1.16,113.403,60.486,9.705, , , , , , ,-3.774,-5.477,-112.885
 13:11:53.293,eb:33:2e:f9:57:b5, 2015-01-01 00:56:24.090,0.016,0.303,1.179,85.022,64.209,25.024, , , , , , ,-3.301,-5.158,-112.797
 13:11:53.293,eb:33:2e:f9:57:b5, 2015-01-01 00:56:24.090,-0.096,0.28,1.169,63.904,75.562,29.358, , , , , , ,-2.95,-4.796,-112.676
 13:11:53.293,eb:33:2e:f9:57:b5, 2015-01-01 00:56:24.090,-0.14,0.086,1.03,57.8,75.439,26.062, , , , , , ,-2.664,-4.406,-112.555
 13:11:53.293,eb:33:2e:f9:57:b5, 2015-01-01 00:56:24.090,-0.086,-0.067,0.889,58.289,63.416,27.1, , , , , , ,-2.384,-4.054,-112.434
 13:11:53.293,eb:33:2e:f9:57:b5, 2015-01-01 00:56:24.090,-0.049,0.004,0.819,56.885,46.814,27.039, , , , , , ,-2.104,-3.785,-112.308
 13:11:53.293,eb:33:2e:f9:57:b5, 2015-01-01 00:56:24.090,-0.026,0.232,0.814,47.363,32.349,23.193, , , , , , ,-1.846,-3.587,-112.192
 13:11:53.293,eb:33:2e:f9:57:b5, 2015-01-01 00:56:24.090,0.037,0.299,0.845,34.485,26.489,15.869, , , , , , ,-1.653,-3.444,-112.099
 13:11:53.293,eb:33:2e:f9:57:b5, 2015-01-01 00:56:24.090,0.053,0.198,0.917,23.315,29.053,15.503, , , , , , ,-1.522,-3.301,-112.028
 13:11:53.336,eb:33:2e:f9:57:b5, 2015-01-01 00:56:24.495,0.054,0.102,0.932,17.761,29.114,16.235, , , , , , ,-1.428,-3.153,-111.951
 13:11:53.336,eb:33:2e:f9:57:b5, 2015-01-01 00:56:24.495,0.026,0.114,0.946,14.587,27.71,12.39, , , , , , ,-1.346,-3.005,-111.885
 13:11:53.336,eb:33:2e:f9:57:b5, 2015-01-01 00:56:24.495,0.007,0.137,0.942,10.681,24.902,7.507, , , , , , ,-1.285,-2.873,-111.841
 13:11:53.336,eb:33:2e:f9:57:b5, 2015-01-01 00:56:24.495,-0.011,0.107,0.96,6.226,22.827,5.249, , , , , , ,-1.247,-2.758,-111.813
 13:11:53.336,eb:33:2e:f9:57:b5, 2015-01-01 00:56:24.495,-0.034,0.053,0.973,3.357,19.836,4.456, , , , , , ,-1.23,-2.648,-111.791
 13:11:53.336,eb:33:2e:f9:57:b5, 2015-01-01 00:56:24.495,-0.033,0.016,0.971,3.418,15.442,2.38, , , , , , ,-1.208,-2.56,-111.775
 13:11:53.336,eb:33:2e:f9:57:b5, 2015-01-01 00:56:24.495,0.018,-0.015,0.979,5.127,10.742,0.427, , , , , , ,-1.187,-2.494,-111.769
 13:11:53.336,eb:33:2e:f9:57:b5, 2015-01-01 00:56:24.495,0.053,-0.024,1.014,6.409,9.644,0.061, , , , , , ,-1.159,-2.45,-111.769
 13:11:53.404,eb:33:2e:f9:57:b5, 2015-01-01 00:56:24.495,0.021,-0.002,1.039,6.714,11.169,0.122, , , , , , ,-1.121,-2.395,-111.769
 13:11:53.404,eb:33:2e:f9:57:b5, 2015-01-01 00:56:24.495,-0.006,0,1.018,6.775,10.681,0.061, , , , , , ,-1.088,-2.34,-111.769
 13:11:53.404,eb:33:2e:f9:57:b5, 2015-01-01 00:56:24.495,-0.024,-0.015,1.005,7.324,9.155,-0.427, , , , , , ,-1.049,-2.285,-111.775
 13:11:53.404,eb:33:2e:f9:57:b5, 2015-01-01 00:56:24.495,-0.02,-0.038,0.997,9.033,6.165,-0.916, , , , , , ,-1.011,-2.252,-111.78
 13:11:53.404,eb:33:2e:f9:57:b5, 2015-01-01 00:56:24.495,-0.016,-0.042,1.006,11.169,2.808,-1.221, , , , , , ,-0.956,-2.23,-111.786
 13:11:53.404,eb:33:2e:f9:57:b5, 2015-01-01 00:56:24.495,-0.017,-0.032,1.021,12.817,0.305,-1.709, , , , , , ,-0.89,-2.219,-111.791
 13:11:53.404,eb:33:2e:f9:57:b5, 2015-01-01 00:56:24.495,-0.021,-0.032,1.03,13.855,-1.343,-1.77, , , , , , ,-0.824,-2.225,-111.802
 13:11:53.404,eb:33:2e:f9:57:b5, 2015-01-01 00:56:24.495,-0.021,-0.038,1.03,15.076,-3.357,-1.221, , , , , , ,-0.747,-2.236,-111.808
 13:11:53.407,eb:33:2e:f9:57:b5, 2015-01-01 00:56:24.495,-0.009,-0.034,1.021,16.174,-5.493,-0.488, , , , , , ,-0.67,-2.263,-111.813
 13:11:53.407,eb:33:2e:f9:57:b5, 2015-01-01 00:56:24.495,0.007,-0.028,1.017,16.785,-6.836,0, , , , , , ,-0.582,-2.291,-111.813
 13:11:53.407,eb:33:2e:f9:57:b5, 2015-01-01 00:56:24.495,0.022,-0.019,1.021,16.846,-6.714,0.061, , , , , , ,-0.5,-2.324,-111.813
 13:11:53.407,eb:33:2e:f9:57:b5, 2015-01-01 00:56:24.495,0.034,-0.012,1.024,16.602,-5.798,0.122, , , , , , ,-0.412,-2.357,-111.808
 13:11:53.407,eb:33:2e:f9:57:b5, 2015-01-01 00:56:24.495,0.045,0.001,1.017,15.747,-4.578,0.183, , , , , , ,-0.335,-2.379,-111.808
 13:11:53.407,eb:33:2e:f9:57:b5, 2015-01-01 00:56:24.495,0.05,0.012,1.007,14.526,-3.418,0.305, , , , , , ,-0.253,-2.401,-111.808
 13:11:53.407,eb:33:2e:f9:57:b5, 2015-01-01 00:56:24.495,0.059,0.018,1.011,13,-1.648,0.488, , , , , , ,-0.187,-2.411,-111.802
 13:11:53.407,eb:33:2e:f9:57:b5, 2015-01-01 00:56:24.495,0.07,0.024,1.018,11.658,0.305,0, , , , , , ,-0.126,-2.411,-111.802
 13:11:53.451,eb:33:2e:f9:57:b5, 2015-01-01 00:56:24.495,0.077,0.022,1.033,10.376,3.54,-0.732, , , , , , ,-0.071,-2.401,-111.808
 13:11:53.451,eb:33:2e:f9:57:b5, 2015-01-01 00:56:24.495,0.077,0.017,1.043,9.888,6.47,-1.221, , , , , , ,-0.016,-2.373,-111.813
 13:11:53.451,eb:33:2e:f9:57:b5, 2015-01-01 00:56:24.495,0.061,0.007,1.049,9.216,10.254,-0.793, , , , , , ,0.027,-2.329,-111.819
 13:11:53.451,eb:33:2e:f9:57:b5, 2015-01-01 00:56:24.495,0.057,0.007,1.028,8.85,12.39,-0.244, , , , , , ,0.071,-2.269,-111.819
 13:11:53.451,eb:33:2e:f9:57:b5, 2015-01-01 00:56:24.495,0.055,0.014,1.025,8.667,14.099,-0.061, , , , , , ,0.115,-2.203,-111.819
 13:11:53.451,eb:33:2e:f9:57:b5, 2015-01-01 00:56:24.495,0.068,0.02,1.017,8.85,15.137,-0.427, , , , , , ,0.165,-2.126,-111.819
 13:11:53.451,eb:33:2e:f9:57:b5, 2015-01-01 00:56:24.495,0.053,0.024,1.028,8.728,17.456,-1.038, , , , , , ,0.209,-2.043,-111.824
 13:11:53.451,eb:33:2e:f9:57:b5, 2015-01-01 00:56:24.495,0.043,0.008,1.02,9.155,18.677,-0.732, , , , , , ,0.253,-1.95,-111.83
 13:11:53.539,eb:33:2e:f9:57:b5, 2015-01-01 00:56:24.495,0.024,0.009,1.014,9.277,19.836,-0.916, , , , , , ,0.297,-1.851,-111.835
 13:11:53.539,eb:33:2e:f9:57:b5, 2015-01-01 00:56:24.495,0.018,0.006,0.999,9.521,19.836,-0.977, , , , , , ,0.352,-1.752,-111.841
 13:11:53.539,eb:33:2e:f9:57:b5, 2015-01-01 00:56:24.495,0.012,0.01,0.998,10.071,19.714,-1.709, , , , , , ,0.401,-1.653,-111.846
 13:11:53.539,eb:33:2e:f9:57:b5, 2015-01-01 00:56:24.495,0.031,0.004,0.997,11.108,18.799,-2.075, , , , , , ,0.45,-1.555,-111.852
 13:11:53.539,eb:33:2e:f9:57:b5, 2015-01-01 00:56:24.495,0.008,0.012,1.032,12.268,18.86,-3.479, , , , , , ,0.511,-1.461,-111.868
 13:11:53.539,eb:33:2e:f9:57:b5, 2015-01-01 00:56:24.495,0.002,0.007,1.006,13.489,18.127,-4.15, , , , , , ,0.582,-1.368,-111.89
 13:11:53.539,eb:33:2e:f9:57:b5, 2015-01-01 00:56:24.495,-0.008,-0.003,1.007,14.221,17.517,-4.272, , , , , , ,0.654,-1.274,-111.907
 13:11:53.539,eb:33:2e:f9:57:b5, 2015-01-01 00:56:24.495,0.001,-0.008,1,15.198,16.235,-3.784, , , , , , ,0.725,-1.192,-111.929
 13:11:53.606,eb:33:2e:f9:57:b5, 2015-01-01 00:56:24.495,0.001,-0.013,1.019,16.846,14.771,-3.54, , , , , , ,0.807,-1.115,-111.945
 13:11:53.606,eb:33:2e:f9:57:b5, 2015-01-01 00:56:24.495,0.006,-0.008,1.007,18.005,13.916,-3.174, , , , , , ,0.901,-1.038,-111.962
 13:11:53.606,eb:33:2e:f9:57:b5, 2015-01-01 00:56:24.495,0.005,0.006,1,18.799,13.489,-2.991, , , , , , ,0.994,-0.972,-111.978
 13:11:53.606,eb:33:2e:f9:57:b5, 2015-01-01 00:56:24.495,0,0.009,0.995,19.043,13.489,-2.93, , , , , , ,1.088,-0.906,-111.989
 13:11:53.606,eb:33:2e:f9:57:b5, 2015-01-01 00:56:24.495,0.025,0.012,0.988,19.409,13.123,-2.686, , , , , , ,1.187,-0.835,-112
 13:11:53.606,eb:33:2e:f9:57:b5, 2015-01-01 00:56:24.495,0.018,0.033,1.008,19.043,15.076,-3.174, , , , , , ,1.285,-0.764,-112.017
 13:11:53.606,eb:33:2e:f9:57:b5, 2015-01-01 00:56:24.495,0.025,0.044,0.992,18.25,16.357,-3.723, , , , , , ,1.379,-0.681,-112.033
 13:11:53.607,eb:33:2e:f9:57:b5, 2015-01-01 00:56:24.495,0.037,0.047,0.995,17.944,17.151,-4.15, , , , , , ,1.472,-0.599,-112.05
 13:11:53.630,eb:33:2e:f9:57:b5, 2015-01-01 00:56:24.495,0.041,0.055,1.004,17.639,18.921,-5.127, , , , , , ,1.56,-0.505,-112.072
 13:11:53.630,eb:33:2e:f9:57:b5, 2015-01-01 00:56:24.495,0.025,0.057,1.014,17.395,21.362,-5.92, , , , , , ,1.653,-0.401,-112.094
 13:11:53.630,eb:33:2e:f9:57:b5, 2015-01-01 00:56:24.495,0.019,0.041,1.034,18.311,21.667,-6.47, , , , , , ,1.741,-0.291,-112.126
 13:11:53.630,eb:33:2e:f9:57:b5, 2015-01-01 00:56:24.495,0.006,0.04,1.014,19.104,22.217,-6.714, , , , , , ,1.835,-0.181,-112.154
 13:11:53.630,eb:33:2e:f9:57:b5, 2015-01-01 00:56:24.495,0.015,0.043,0.996,19.592,22.156,-7.568, , , , , , ,1.934,-0.071,-112.187
 13:11:53.630,eb:33:2e:f9:57:b5, 2015-01-01 00:56:24.495,0.008,0.053,1.004,20.264,22.095,-8.179, , , , , , ,2.038,0.038,-112.22
 13:11:53.630,eb:33:2e:f9:57:b5, 2015-01-01 00:56:24.495,-0.002,0.06,1,20.325,22.644,-9.277, , , , , , ,2.137,0.154,-112.258
 13:11:53.630,eb:33:2e:f9:57:b5, 2015-01-01 00:56:24.495,-0.006,0.055,1.017,20.569,23.376,-9.583, , , , , , ,2.241,0.269,-112.302
 13:11:53.652,eb:33:2e:f9:57:b5, 2015-01-01 00:56:24.495,-0.015,0.043,1.02,21.118,23.865,-10.132, , , , , , ,2.346,0.39,-112.346
 13:11:53.652,eb:33:2e:f9:57:b5, 2015-01-01 00:56:24.495,-0.021,0.026,1.026,22.644,23.438,-9.705, , , , , , ,2.461,0.516,-112.39
 13:11:53.653,eb:33:2e:f9:57:b5, 2015-01-01 00:56:24.495,-0.008,0.027,1.019,23.987,22.766,-9.521, , , , , , ,2.576,0.632,-112.434
 13:11:53.653,eb:33:2e:f9:57:b5, 2015-01-01 00:56:24.495,-0.005,0.05,1.021,24.78,23.132,-9.766, , , , , , ,2.697,0.747,-112.478
 13:11:53.653,eb:33:2e:f9:57:b5, 2015-01-01 00:56:24.495,-0.007,0.055,1.029,25.33,24.109,-10.132, , , , , , ,2.823,0.873,-112.522
 13:11:53.653,eb:33:2e:f9:57:b5, 2015-01-01 00:56:24.495,0.008,0.053,1.024,25.94,24.414,-10.376, , , , , , ,2.955,1,-112.566
 13:11:53.653,eb:33:2e:f9:57:b5, 2015-01-01 00:56:24.495,-0.005,0.067,1.035,25.818,26.733,-10.986, , , , , , ,3.087,1.132,-112.615
 13:11:53.653,eb:33:2e:f9:57:b5, 2015-01-01 00:56:24.495,-0.011,0.069,1.018,26.123,27.466,-11.841, , , , , , ,3.214,1.269,-112.665
 13:11:53.655,eb:33:2e:f9:57:b5, 2015-01-01 00:56:24.495,-0.03,0.045,1.076,25.879,30.823,-12.146, , , , , , ,3.34,1.417,-112.714
 13:11:53.655,eb:33:2e:f9:57:b5, 2015-01-01 00:56:24.495,-0.045,0.06,0.992,25.879,30.945,-12.085, , , , , , ,3.472,1.582,-112.769
 13:11:53.655,eb:33:2e:f9:57:b5, 2015-01-01 00:56:24.495,-0.053,0.064,0.985,25.696,30.396,-11.902, , , , , , ,3.604,1.736,-112.819
 13:11:53.657,eb:33:2e:f9:57:b5, 2015-01-01 00:56:24.495,-0.045,0.062,0.998,25.513,30.273,-11.414, , , , , , ,3.73,1.89,-112.863
 13:11:53.657,eb:33:2e:f9:57:b5, 2015-01-01 00:56:24.495,-0.039,0.078,0.995,25.513,29.724,-11.719, , , , , , ,3.856,2.043,-112.912
 13:11:53.657,eb:33:2e:f9:57:b5, 2015-01-01 00:56:24.495,-0.014,0.063,1.056,25.452,31.25,-11.841, , , , , , ,3.983,2.203,-112.961
 13:11:53.657,eb:33:2e:f9:57:b5, 2015-01-01 00:56:24.495,-0.02,0.049,1.105,26.794,34.119,-11.047, , , , , , ,4.114,2.373,-113.005
 13:11:53.657,eb:33:2e:f9:57:b5, 2015-01-01 00:56:24.495,-0.039,0.068,1.066,27.649,35.828,-10.986, , , , , , ,4.246,2.554,-113.049
 13:11:53.697,eb:33:2e:f9:57:b5, 2015-01-01 00:56:24.495,-0.043,0.048,1.086,29.175,36.987,-10.193, , , , , , ,4.389,2.741,-113.088
 13:11:53.697,eb:33:2e:f9:57:b5, 2015-01-01 00:56:24.495,-0.078,0.064,1.043,30.701,36.316,-9.644, , , , , , ,4.543,2.928,-113.121
 13:11:53.697,eb:33:2e:f9:57:b5, 2015-01-01 00:56:24.495,-0.137,0.048,1.035,32.715,35.034,-8.728, , , , , , ,4.697,3.115,-113.154
 13:11:53.697,eb:33:2e:f9:57:b5, 2015-01-01 00:56:24.495,-0.144,-0.004,1.114,36.438,33.569,-6.592, , , , , , ,4.872,3.285,-113.176
 13:11:53.697,eb:33:2e:f9:57:b5, 2015-01-01 00:56:24.495,-0.157,-0.002,1.091,40.1,30.64,-4.028, , , , , , ,5.065,3.444,-113.187
 13:11:53.697,eb:33:2e:f9:57:b5, 2015-01-01 00:56:24.495,-0.15,0.021,1.101,43.396,25.94,-2.258, , , , , , ,5.279,3.587,-113.187
 13:11:53.697,eb:33:2e:f9:57:b5, 2015-01-01 00:56:24.495,-0.146,0.004,1.181,48.096,24.048,0.488, , , , , , ,5.51,3.713,-113.181
 13:11:53.698,eb:33:2e:f9:57:b5, 2015-01-01 00:56:24.495,-0.133,0.002,1.253,54.26,22.217,1.526, , , , , , ,5.773,3.829,-113.165
 13:11:53.741,eb:33:2e:f9:57:b5, 2015-01-01 00:56:24.920,-0.046,0.041,1.261,61.829,18.494,1.404, , , , , , ,6.064,3.928,-113.143
 13:11:53.741,eb:33:2e:f9:57:b5, 2015-01-01 00:56:24.920,0.044,0.038,1.492,67.81,23.499,0.183, , , , , , ,6.4,4.026,-113.126
 13:11:53.741,eb:33:2e:f9:57:b5, 2015-01-01 00:56:24.920,0.134,0.069,1.565,77.087,29.114,-2.625, , , , , , ,6.768,4.164,-113.121
 13:11:53.741,eb:33:2e:f9:57:b5, 2015-01-01 00:56:24.920,0.176,0.122,1.573,86.426,36.072,-7.263, , , , , , ,7.18,4.334,-113.126
 13:11:53.741,eb:33:2e:f9:57:b5, 2015-01-01 00:56:24.920,0.267,0.158,1.648,95.032,45.898,-12.695, , , , , , ,7.635,4.548,-113.148
 13:11:53.741,eb:33:2e:f9:57:b5, 2015-01-01 00:56:24.920,0.231,0.143,1.735,102.966,62.317,-18.005, , , , , , ,8.135,4.834,-113.192
 13:11:53.742,eb:33:2e:f9:57:b5, 2015-01-01 00:56:24.920,0.182,0.116,1.693,110.352,79.956,-21.362, , , , , , ,8.668,5.213,-113.236
 13:11:53.742,eb:33:2e:f9:57:b5, 2015-01-01 00:56:24.920,0.141,0.068,1.686,119.324,92.529,-23.132, , , , , , ,9.245,5.663,-113.28
 13:11:53.787,eb:33:2e:f9:57:b5, 2015-01-01 00:56:24.920,0.148,0.09,1.648,129.15,98.877,-25.33, , , , , , ,9.866,6.158,-113.318
 13:11:53.787,eb:33:2e:f9:57:b5, 2015-01-01 00:56:24.920,0.195,0.085,1.731,140.32,106.567,-26.55, , , , , , ,10.541,6.696,-113.357
 13:11:53.787,eb:33:2e:f9:57:b5, 2015-01-01 00:56:24.920,0.125,0.109,1.684,152.283,113.464,-27.588, , , , , , ,11.277,7.267,-113.384
 13:11:53.787,eb:33:2e:f9:57:b5, 2015-01-01 00:56:24.920,-0.012,0.044,1.633,164.124,114.746,-28.748, , , , , , ,12.068,7.855,-113.406
 13:11:53.787,eb:33:2e:f9:57:b5, 2015-01-01 00:56:24.920,0.115,-0.015,1.921,175.72,114.746,-30.396, , , , , , ,12.92,8.443,-113.434
 13:11:53.787,eb:33:2e:f9:57:b5, 2015-01-01 00:56:24.920,0.08,-0.037,1.958,191.223,119.385,-26.123, , , , , , ,13.848,9.058,-113.428
 13:11:53.787,eb:33:2e:f9:57:b5, 2015-01-01 00:56:24.920,0.053,0.059,1.764,209.595,106.995,-29.48, , , , , , ,14.859,9.635,-113.428
 13:11:53.787,eb:33:2e:f9:57:b5, 2015-01-01 00:56:24.920,-0.021,-0.005,1.948,228.149,99.304,-31.433, , , , , , ,15.963,10.168,-113.439
 13:11:53.809,eb:33:2e:f9:57:b5, 2015-01-01 00:56:24.920,0.044,-0.11,2.322,245.85,96.863,-33.264, , , , , , ,17.15,10.673,-113.456
 13:11:53.809,eb:33:2e:f9:57:b5, 2015-01-01 00:56:24.920,0.145,-0.249,2.517,267.578,103.638,-30.151, , , , , , ,18.446,11.206,-113.45
 13:11:53.809,eb:33:2e:f9:57:b5, 2015-01-01 00:56:24.920,0.265,-0.086,2.325,293.762,95.764,-33.325, , , , , , ,19.863,11.733,-113.434
 13:11:53.809,eb:33:2e:f9:57:b5, 2015-01-01 00:56:24.920,0.425,0.08,2.266,322.937,76.66,-43.945, , , , , , ,21.412,12.195,-113.467
 13:11:53.809,eb:33:2e:f9:57:b5, 2015-01-01 00:56:24.920,0.221,-0.012,2.247,351.868,62.927,-55.908, , , , , , ,23.093,12.607,-113.577
 13:11:53.809,eb:33:2e:f9:57:b5, 2015-01-01 00:56:24.920,0.28,-0.227,2.546,383.179,51.453,-67.566, , , , , , ,24.906,12.986,-113.758
 13:11:53.809,eb:33:2e:f9:57:b5, 2015-01-01 00:56:24.920,0.478,-0.303,2.958,410.767,50.781,-76.05, , , , , , ,26.856,13.37,-113.983
 13:11:53.809,eb:33:2e:f9:57:b5, 2015-01-01 00:56:24.920,0.51,-0.348,3.291,430.054,67.81,-84.29, , , , , , ,28.916,13.826,-114.203
 13:11:53.853,eb:33:2e:f9:57:b5, 2015-01-01 00:56:24.920,0.848,-0.25,3.628,447.083,87.036,-92.896, , , , , , ,31.069,14.403,-114.39
 13:11:53.853,eb:33:2e:f9:57:b5, 2015-01-01 00:56:24.920,1.186,0.026,3.744,452.271,115.784,-103.76, , , , , , ,33.283,15.101,-114.549
 13:11:53.854,eb:33:2e:f9:57:b5, 2015-01-01 00:56:24.920,1.408,-0.05,3.831,455.627,158.569,-104.553, , , , , , ,35.546,15.98,-114.582
 13:11:53.854,eb:33:2e:f9:57:b5, 2015-01-01 00:56:24.920,1.355,0.255,3.236,447.815,158.081,-116.943, , , , , , ,37.809,16.968,-114.538
 13:11:53.854,eb:33:2e:f9:57:b5, 2015-01-01 00:56:24.920,1.433,0.623,3.204,447.021,144.653,-145.874, , , , , , ,40.034,17.974,-114.587
 13:11:53.854,eb:33:2e:f9:57:b5, 2015-01-01 00:56:24.920,1.434,0.343,4.011,446.228,173.157,-159.973, , , , , , ,42.237,19.072,-114.664
 13:11:53.854,eb:33:2e:f9:57:b5, 2015-01-01 00:56:24.920,1.392,-0.178,4.312,441.101,230.408,-162.17, , , , , , ,44.5,20.374,-114.527
 13:11:53.854,eb:33:2e:f9:57:b5, 2015-01-01 00:56:24.920,1.657,-0.329,3.24,430.115,251.953,-173.706, , , , , , ,46.785,21.835,-114.208
 13:11:53.901,eb:33:2e:f9:57:b5, 2015-01-01 00:56:24.920,2.002,-0.876,3.082,418.762,271.24,-179.688, , , , , , ,49.065,23.379,-113.802
 13:11:53.901,eb:33:2e:f9:57:b5, 2015-01-01 00:56:24.920,2.031,-1.786,1.779,388.794,297.119,-188.232, , , , , , ,51.301,24.999,-113.236
 13:11:53.901,eb:33:2e:f9:57:b5, 2015-01-01 00:56:24.920,0.859,-2.9,-0.51,317.81,299.438,-178.772, , , , , , ,53.35,26.642,-112.599
 13:11:53.901,eb:33:2e:f9:57:b5, 2015-01-01 00:56:24.920,0.551,-2.091,-3.171,180.481,261.169,-89.355, , , , , , ,54.943,27.993,-111.693
 13:11:53.901,eb:33:2e:f9:57:b5, 2015-01-01 00:56:24.920,0.708,-1.269,-1.901,76.904,158.02,-46.021, , , , , , ,55.865,28.806,-110.951
 13:11:53.901,eb:33:2e:f9:57:b5, 2015-01-01 00:56:24.920,1.006,-1.041,-0.637,19.287,42.358,-34.668, , , , , , ,56.195,29.202,-110.665
 13:11:53.901,eb:33:2e:f9:57:b5, 2015-01-01 00:56:24.920,1.08,-1.212,0.034,-16.235,-28.992,-22.644, , , , , , ,56.118,29.306,-110.781
 13:11:53.901,eb:33:2e:f9:57:b5, 2015-01-01 00:56:24.920,0.998,-1.351,0.408,-40.71,-40.955,-6.47, , , , , , ,55.849,29.246,-111.006
 13:11:53.945,eb:33:2e:f9:57:b5, 2015-01-01 00:56:24.920,0.876,-1.292,0.888,-51.147,-18.921,7.141, , , , , , ,55.541,29.152,-111.138
 13:11:53.945,eb:33:2e:f9:57:b5, 2015-01-01 00:56:24.920,0.749,-1.022,1.251,-48.889,11.841,15.381, , , , , , ,55.294,29.092,-111.11
 13:11:53.945,eb:33:2e:f9:57:b5, 2015-01-01 00:56:24.920,0.638,-0.783,1.18,-42.664,35.645,19.592, , , , , , ,55.157,29.097,-110.923
 13:11:53.945,eb:33:2e:f9:57:b5, 2015-01-01 00:56:24.920,0.563,-0.712,0.638,-42.48,44.006,24.78, , , , , , ,55.08,29.125,-110.643
 13:11:53.945,eb:33:2e:f9:57:b5, 2015-01-01 00:56:24.920,0.531,-0.738,-0.024,-51.086,34.119,32.471, , , , , , ,54.981,29.119,-110.363
 13:11:53.945,eb:33:2e:f9:57:b5, 2015-01-01 00:56:24.920,0.539,-0.712,-0.447,-64.88,7.141,39.429, , , , , , ,54.772,29.015,-110.16
 13:11:53.945,eb:33:2e:f9:57:b5, 2015-01-01 00:56:24.920,0.534,-0.667,-0.525,-78.43,-28.015,44.189, , , , , , ,54.443,28.801,-110.083
 13:11:53.945,eb:33:2e:f9:57:b5, 2015-01-01 00:56:24.920,0.51,-0.667,-0.413,-90.82,-61.157,46.936, , , , , , ,53.981,28.471,-110.154
 13:11:53.966,eb:33:2e:f9:57:b5, 2015-01-01 00:56:24.920,0.463,-0.687,-0.263,-103.76,-85.022,49.377, , , , , , ,53.399,28.048,-110.336
 13:11:53.966,eb:33:2e:f9:57:b5, 2015-01-01 00:56:24.920,0.407,-0.715,-0.089,-117.249,-97.961,52.429, , , , , , ,52.707,27.554,-110.594
 13:11:53.966,eb:33:2e:f9:57:b5, 2015-01-01 00:56:24.920,0.36,-0.73,0.091,-130.798,-101.99,56.03, , , , , , ,51.96,27.026,-110.858
 13:11:53.966,eb:33:2e:f9:57:b5, 2015-01-01 00:56:24.920,0.332,-0.738,0.2,-144.409,-100.891,59.082, , , , , , ,51.158,26.488,-111.094
 13:11:53.966,eb:33:2e:f9:57:b5, 2015-01-01 00:56:24.920,0.325,-0.729,0.236,-158.752,-98.45,61.89, , , , , , ,50.295,25.939,-111.308
 13:11:53.966,eb:33:2e:f9:57:b5, 2015-01-01 00:56:24.920,0.338,-0.713,0.212,-173.523,-98.633,64.087, , , , , , ,49.362,25.367,-111.506
 13:11:53.966,eb:33:2e:f9:57:b5, 2015-01-01 00:56:24.920,0.348,-0.687,0.168,-188.293,-102.722,65.43, , , , , , ,48.373,24.791,-111.693
 13:11:53.966,eb:33:2e:f9:57:b5, 2015-01-01 00:56:24.920,0.36,-0.654,0.121,-202.82,-111.877,65.125, , , , , , ,47.302,24.186,-111.885
 13:11:54.011,eb:33:2e:f9:57:b5, 2015-01-01 00:56:24.920,0.367,-0.623,0.128,-216.492,-123.718,64.514, , , , , , ,46.154,23.544,-112.115
 13:11:54.011,eb:33:2e:f9:57:b5, 2015-01-01 00:56:24.920,0.373,-0.592,0.175,-229.248,-135.864,62.866, , , , , , ,44.912,22.852,-112.39
 13:11:54.011,eb:33:2e:f9:57:b5, 2015-01-01 00:56:24.920,0.376,-0.555,0.265,-240.662,-146.79,60.547, , , , , , ,43.616,22.126,-112.687
 13:11:54.011,eb:33:2e:f9:57:b5, 2015-01-01 00:56:24.920,0.375,-0.519,0.353,-250.916,-156.006,57.678, , , , , , ,42.259,21.363,-113.011
 13:11:54.011,eb:33:2e:f9:57:b5, 2015-01-01 00:56:24.920,0.388,-0.475,0.45,-260.193,-163.574,54.81, , , , , , ,40.853,20.577,-113.357
 13:11:54.011,eb:33:2e:f9:57:b5, 2015-01-01 00:56:24.920,0.406,-0.424,0.534,-268.005,-169.006,51.88, , , , , , ,39.386,19.759,-113.725
 13:11:54.012,eb:33:2e:f9:57:b5, 2015-01-01 00:56:24.920,0.42,-0.36,0.574,-273.926,-174.438,48.096, , , , , , ,37.903,18.929,-114.088
 13:11:54.012,eb:33:2e:f9:57:b5, 2015-01-01 00:56:24.920,0.432,-0.301,0.617,-278.87,-181.641,42.297, , , , , , ,36.398,18.083,-114.467
 13:11:54.057,eb:33:2e:f9:57:b5, 2015-01-01 00:56:25.210,0.451,-0.254,0.663,-283.447,-190.308,35.583, , , , , , ,34.865,17.21,-114.873
 13:11:54.057,eb:33:2e:f9:57:b5, 2015-01-01 00:56:25.210,0.461,-0.224,0.734,-288.391,-201.721,27.405, , , , , , ,33.289,16.298,-115.323
 13:11:54.057,eb:33:2e:f9:57:b5, 2015-01-01 00:56:25.210,0.463,-0.214,0.822,-292.175,-210.205,21.362, , , , , , ,31.707,15.359,-115.796
 13:11:54.057,eb:33:2e:f9:57:b5, 2015-01-01 00:56:25.210,0.456,-0.206,0.925,-295.349,-218.201,16.052, , , , , , ,30.108,14.392,-116.285
 13:11:54.057,eb:33:2e:f9:57:b5, 2015-01-01 00:56:25.210,0.434,-0.202,1.036,-298.401,-225.525,11.23, , , , , , ,28.504,13.387,-116.785
 13:11:54.057,eb:33:2e:f9:57:b5, 2015-01-01 00:56:25.210,0.399,-0.211,1.126,-301.941,-232.666,7.996, , , , , , ,26.873,12.332,-117.301
 13:11:54.057,eb:33:2e:f9:57:b5, 2015-01-01 00:56:25.210,0.348,-0.242,1.215,-305.847,-238.892,7.08, , , , , , ,25.247,11.255,-117.795
 13:11:54.057,eb:33:2e:f9:57:b5, 2015-01-01 00:56:25.210,0.281,-0.278,1.322,-309.448,-243.774,9.094, , , , , , ,23.621,10.14,-118.268
 13:11:54.102,eb:33:2e:f9:57:b5, 2015-01-01 00:56:25.210,0.228,-0.311,1.433,-312.012,-247.742,13.55, , , , , , ,21.989,8.981,-118.696
 13:11:54.102,eb:33:2e:f9:57:b5, 2015-01-01 00:56:25.210,0.188,-0.335,1.557,-313.354,-249.878,20.935, , , , , , ,20.352,7.773,-119.07
 13:11:54.102,eb:33:2e:f9:57:b5, 2015-01-01 00:56:25.210,0.17,-0.349,1.673,-314.209,-249.878,30.334, , , , , , ,18.748,6.548,-119.366
 13:11:54.102,eb:33:2e:f9:57:b5, 2015-01-01 00:56:25.210,0.139,-0.354,1.777,-313.721,-247.986,42.725, , , , , , ,17.155,5.306,-119.575
 13:11:54.102,eb:33:2e:f9:57:b5, 2015-01-01 00:56:25.210,0.164,-0.341,1.92,-314.209,-242.554,54.443, , , , , , ,15.573,4.065,-119.68
 13:11:54.102,eb:33:2e:f9:57:b5, 2015-01-01 00:56:25.210,0.259,-0.278,2.002,-313.232,-239.319,66.589, , , , , , ,13.986,2.807,-119.685
 13:11:54.102,eb:33:2e:f9:57:b5, 2015-01-01 00:56:25.210,0.321,-0.193,1.979,-309.753,-242.31,77.209, , , , , , ,12.431,1.549,-119.608
 13:11:54.105,eb:33:2e:f9:57:b5, 2015-01-01 00:56:25.210,0.407,-0.092,2.07,-305.176,-244.202,84.717, , , , , , ,10.898,0.275,-119.449
 13:11:54.148,eb:33:2e:f9:57:b5, 2015-01-01 00:56:25.210,0.479,0.009,2.158,-301.147,-248.23,89.111, , , , , , ,9.382,-1.011,-119.235
 13:11:54.148,eb:33:2e:f9:57:b5, 2015-01-01 00:56:25.210,0.54,0.105,2.239,-298.523,-253.296,92.834, , , , , , ,7.861,-2.335,-118.971
 13:11:54.148,eb:33:2e:f9:57:b5, 2015-01-01 00:56:25.210,0.627,0.184,2.333,-299.744,-255.31,95.154, , , , , , ,6.35,-3.658,-118.663
 13:11:54.148,eb:33:2e:f9:57:b5, 2015-01-01 00:56:25.210,0.746,0.25,2.454,-303.04,-258.972,99.731, , , , , , ,4.812,-4.988,-118.301
 13:11:54.148,eb:33:2e:f9:57:b5, 2015-01-01 00:56:25.210,0.771,0.355,2.641,-311.096,-253.296,100.22, , , , , , ,3.235,-6.295,-117.889
 13:11:54.148,eb:33:2e:f9:57:b5, 2015-01-01 00:56:25.210,0.724,0.434,2.689,-318.604,-252.625,103.394, , , , , , ,1.582,-7.597,-117.427
 13:11:54.148,eb:33:2e:f9:57:b5, 2015-01-01 00:56:25.210,0.717,0.521,2.605,-325.012,-258.179,105.957, , , , , , ,-0.099,-8.888,-116.911
 13:11:54.148,eb:33:2e:f9:57:b5, 2015-01-01 00:56:25.210,0.72,0.617,2.611,-327.942,-267.944,111.206, , , , , , ,-1.829,-10.201,-116.334
 13:11:54.170,eb:33:2e:f9:57:b5, 2015-01-01 00:56:25.210,0.664,0.734,2.697,-327.576,-273.743,115.662, , , , , , ,-3.593,-11.53,-115.686
 13:11:54.170,eb:33:2e:f9:57:b5, 2015-01-01 00:56:25.210,0.485,0.854,2.774,-321.655,-279.724,119.69, , , , , , ,-5.389,-12.881,-114.972
 13:11:54.170,eb:33:2e:f9:57:b5, 2015-01-01 00:56:25.210,0.139,0.951,2.711,-308.899,-285.461,121.887, , , , , , ,-7.141,-14.222,-114.192
 13:11:54.170,eb:33:2e:f9:57:b5, 2015-01-01 00:56:25.210,-0.111,1.047,2.481,-288.208,-304.321,122.864, , , , , , ,-8.844,-15.601,-113.351
 13:11:54.170,eb:33:2e:f9:57:b5, 2015-01-01 00:56:25.210,-0.264,1.169,2.627,-269.958,-320.068,123.047, , , , , , ,-10.481,-17.051,-112.445
 13:11:54.170,eb:33:2e:f9:57:b5, 2015-01-01 00:56:25.210,-0.488,1.211,3.156,-258.179,-311.279,125.977, , , , , , ,-12.112,-18.495,-111.478
 13:11:54.170,eb:33:2e:f9:57:b5, 2015-01-01 00:56:25.210,-0.856,1.231,3.563,-250.61,-281.494,130.615, , , , , , ,-13.711,-19.786,-110.468
 13:11:54.171,eb:33:2e:f9:57:b5, 2015-01-01 00:56:25.210,-1.12,1.337,3.535,-244.202,-249.756,133.301, , , , , , ,-15.304,-20.885,-109.435
 13:11:54.214,eb:33:2e:f9:57:b5, 2015-01-01 00:56:25.210,-1.15,1.553,3.346,-238.77,-223.45,134.521, , , , , , ,-16.886,-21.824,-108.391
 13:11:54.214,eb:33:2e:f9:57:b5, 2015-01-01 00:56:25.210,-1.149,1.953,3.234,-235.168,-181.519,132.446, , , , , , ,-18.468,-22.577,-107.375
 13:11:54.214,eb:33:2e:f9:57:b5, 2015-01-01 00:56:25.210,-1.241,2.511,3.008,-226.013,-140.808,124.817, , , , , , ,-19.984,-23.104,-106.436
 13:11:54.214,eb:33:2e:f9:57:b5, 2015-01-01 00:56:25.210,-1.682,3.194,2.584,-208.496,-111.145,110.168, , , , , , ,-21.396,-23.472,-105.612
 13:11:54.214,eb:33:2e:f9:57:b5, 2015-01-01 00:56:25.210,-2.279,4.019,1.751,-174.438,-100.647,91.003, , , , , , ,-22.626,-23.763,-104.903
 13:11:54.214,eb:33:2e:f9:57:b5, 2015-01-01 00:56:25.210,-2.714,4.612,1.314,-131.775,-107.483,78.125, , , , , , ,-23.648,-24.082,-104.26
 13:11:54.214,eb:33:2e:f9:57:b5, 2015-01-01 00:56:25.210,-3.025,5.009,1.733,-67.627,-108.337,61.035, , , , , , ,-24.362,-24.445,-103.672
 13:11:54.214,eb:33:2e:f9:57:b5, 2015-01-01 00:56:25.210,-3.047,4.983,2.405,7.507,-88.135,47.607, , , , , , ,-24.681,-24.78,-103.189
 13:11:54.304,eb:33:2e:f9:57:b5, 2015-01-01 00:56:25.210,-2.63,4.53,2.863,73.12,-46.57,32.349, , , , , , ,-24.576,-24.999,-102.843
 13:11:54.304,eb:33:2e:f9:57:b5, 2015-01-01 00:56:25.210,-2.464,3.839,2.819,104.248,19.409,27.771, , , , , , ,-24.17,-24.977,-102.684
 13:11:54.304,eb:33:2e:f9:57:b5, 2015-01-01 00:56:25.210,-1.992,3.065,2.221,111.206,72.51,22.705, , , , , , ,-23.626,-24.697,-102.667
 13:11:54.304,eb:33:2e:f9:57:b5, 2015-01-01 00:56:25.210,-1.354,2.375,1.78,102.783,113.525,22.034, , , , , , ,-23.049,-24.192,-102.772
 13:11:54.304,eb:33:2e:f9:57:b5, 2015-01-01 00:56:25.210,2.005,2.174,1.83,144.043,80.017,-13.184, , , , , , ,-22.412,-23.681,-102.953
 13:11:54.304,eb:33:2e:f9:57:b5, 2015-01-01 00:56:25.210,-0.194,1.627,9.397,162.354,352.356,-80.811, , , , , , ,-21.259,-22.709,-103.755
 13:11:54.304,eb:33:2e:f9:57:b5, 2015-01-01 00:56:25.210,2.18,-0.06,0.234,186.096,277.283,-100.647, , , , , , ,-20.012,-21.374,-104.804
 13:11:54.304,eb:33:2e:f9:57:b5, 2015-01-01 00:56:25.210,0.515,-1.432,2.727,199.951,426.208,-43.518, , , , , , ,-18.688,-19.709,-105.82
 13:11:54.371,eb:33:2e:f9:57:b5, 2015-01-01 00:56:25.210,0.855,-1.027,1.411,221.68,429.504,-34.79, , , , , , ,-17.325,-17.721,-106.705
 13:11:54.371,eb:33:2e:f9:57:b5, 2015-01-01 00:56:25.210,0.517,-1.576,1.459,243.652,397.583,-8.484, , , , , , ,-15.93,-15.765,-107.435
 13:11:54.371,eb:33:2e:f9:57:b5, 2015-01-01 00:56:25.210,0.011,-1.044,0.936,260.254,351.746,19.348, , , , , , ,-14.54,-13.98,-107.891
 13:11:54.371,eb:33:2e:f9:57:b5, 2015-01-01 00:56:25.210,-0.325,-0.613,0.875,266.296,308.655,36.011, , , , , , ,-13.156,-12.382,-108.144
 13:11:54.371,eb:33:2e:f9:57:b5, 2015-01-01 00:56:25.210,-0.597,-0.227,0.612,262.39,262.451,42.664, , , , , , ,-11.81,-10.981,-108.254
 13:11:54.371,eb:33:2e:f9:57:b5, 2015-01-01 00:56:25.210,-0.615,0.008,0.72,252.808,219.543,41.504, , , , , , ,-10.514,-9.761,-108.276
 13:11:54.371,eb:33:2e:f9:57:b5, 2015-01-01 00:56:25.210,-0.566,0.169,1.196,227.478,187.012,26.978, , , , , , ,-9.322,-8.762,-108.281
 13:11:54.372,eb:33:2e:f9:57:b5, 2015-01-01 00:56:25.210,-0.241,0.283,1.42,198.486,161.377,3.906, , , , , , ,-8.256,-7.905,-108.347
 13:11:54.395,eb:33:2e:f9:57:b5, 2015-01-01 00:56:25.210,-0.388,0.259,1.454,174.561,147.827,-9.399, , , , , , ,-7.322,-7.158,-108.474
 13:11:54.395,eb:33:2e:f9:57:b5, 2015-01-01 00:56:25.210,-0.415,0.216,1.253,160.095,127.686,-22.339, , , , , , ,-6.471,-6.482,-108.638
 13:11:54.395,eb:33:2e:f9:57:b5, 2015-01-01 00:56:25.210,-0.33,0.102,1.065,152.527,106.384,-27.649, , , , , , ,-5.674,-5.922,-108.836
 13:11:54.395,eb:33:2e:f9:57:b5, 2015-01-01 00:56:25.210,-0.119,0.091,1.05,138.489,87.585,-21.851, , , , , , ,-4.938,-5.466,-109.012
 13:11:54.395,eb:33:2e:f9:57:b5, 2015-01-01 00:56:25.210,-0.033,0.079,1.12,122.742,81.909,-9.583, , , , , , ,-4.279,-5.054,-109.116
 13:11:54.395,eb:33:2e:f9:57:b5, 2015-01-01 00:56:25.210,0.057,0.106,1.159,106.812,82.153,4.395, , , , , , ,-3.708,-4.636,-109.155
 13:11:54.395,eb:33:2e:f9:57:b5, 2015-01-01 00:56:25.210,0.063,0.13,1.173,89.722,85.388,16.357, , , , , , ,-3.224,-4.219,-109.116
 13:11:54.396,eb:33:2e:f9:57:b5, 2015-01-01 00:56:25.210,-0.094,0.161,1.178,75.867,94.299,19.592, , , , , , ,-2.823,-3.757,-109.045
 13:11:54.396,eb:33:2e:f9:57:b5, 2015-01-01 00:56:25.210,-0.233,0.224,0.893,61.646,81.909,21.362, , , , , , ,-2.494,-3.307,-108.957
 13:11:54.396,eb:33:2e:f9:57:b5, 2015-01-01 00:56:25.210,-0.146,0.24,0.72,50.964,56.03,14.648, , , , , , ,-2.219,-2.972,-108.885
 13:11:54.396,eb:33:2e:f9:57:b5, 2015-01-01 00:56:25.210,-0.002,0.135,0.795,43.823,43.64,12.024, , , , , , ,-1.983,-2.736,-108.831
 13:11:54.396,eb:33:2e:f9:57:b5, 2015-01-01 00:56:25.210,0.056,0.066,0.876,36.377,40.283,17.09, , , , , , ,-1.791,-2.521,-108.765
 13:11:54.396,eb:33:2e:f9:57:b5, 2015-01-01 00:56:25.210,-0.004,0.109,0.934,28.442,39.551,20.63, , , , , , ,-1.637,-2.324,-108.671
 13:11:54.396,eb:33:2e:f9:57:b5, 2015-01-01 00:56:25.210,-0.088,0.102,0.931,22.888,39.795,18.494, , , , , , ,-1.511,-2.115,-108.578
 13:11:54.396,eb:33:2e:f9:57:b5, 2015-01-01 00:56:25.210,-0.069,0.097,0.858,19.409,29.663,14.771, , , , , , ,-1.406,-1.939,-108.501
 13:11:54.396,eb:33:2e:f9:57:b5, 2015-01-01 00:56:25.210,-0.039,0.107,0.887,14.709,20.264,10.071, , , , , , ,-1.329,-1.824,-108.446
 13:11:54.417,eb:33:2e:f9:57:b5, 2015-01-01 00:56:25.210,-0.033,0.062,0.952,11.597,16.907,9.033, , , , , , ,-1.263,-1.73,-108.402
 13:11:54.417,eb:33:2e:f9:57:b5, 2015-01-01 00:56:25.210,-0.045,0.032,1.003,10.132,14.954,7.935, , , , , , ,-1.208,-1.648,-108.364
 13:11:54.417,eb:33:2e:f9:57:b5, 2015-01-01 00:56:25.210,-0.034,0.011,1.016,10.803,11.841,5.981, , , , , , ,-1.154,-1.582,-108.331
 13:11:54.417,eb:33:2e:f9:57:b5, 2015-01-01 00:56:25.210,-0.009,0.004,1.004,11.475,8.972,3.906, , , , , , ,-1.099,-1.527,-108.309
 13:11:54.417,eb:33:2e:f9:57:b5, 2015-01-01 00:56:25.210,0,0.012,1,10.986,7.507,3.418, , , , , , ,-1.044,-1.489,-108.287
 13:11:54.417,eb:33:2e:f9:57:b5, 2015-01-01 00:56:25.210,-0.009,0.027,1,10.071,6.104,2.38, , , , , , ,-0.983,-1.45,-108.276
 13:11:54.417,eb:33:2e:f9:57:b5, 2015-01-01 00:56:25.210,-0.017,0.022,1,9.644,4.333,1.465, , , , , , ,-0.934,-1.423,-108.265
 13:11:54.417,eb:33:2e:f9:57:b5, 2015-01-01 00:56:25.210,-0.022,0.011,1.013,9.644,2.625,0.549, , , , , , ,-0.89,-1.406,-108.265
 13:11:54.462,eb:33:2e:f9:57:b5, 2015-01-01 00:56:25.210,-0.024,-0.003,1.016,10.559,0.305,-0.366, , , , , , ,-0.835,-1.401,-108.265
 13:11:54.462,eb:33:2e:f9:57:b5, 2015-01-01 00:56:25.210,-0.018,-0.011,1.026,11.719,-1.648,-1.465, , , , , , ,-0.775,-1.401,-108.27
 13:11:54.462,eb:33:2e:f9:57:b5, 2015-01-01 00:56:25.210,-0.031,-0.024,1.035,13.245,-3.296,-2.197, , , , , , ,-0.709,-1.412,-108.276
 13:11:54.462,eb:33:2e:f9:57:b5, 2015-01-01 00:56:25.210,-0.041,-0.029,1.03,14.771,-5.066,-2.991, , , , , , ,-0.637,-1.434,-108.292
 13:11:54.462,eb:33:2e:f9:57:b5, 2015-01-01 00:56:25.210,-0.039,-0.03,1.023,16.235,-7.263,-2.991, , , , , , ,-0.56,-1.467,-108.309
 13:11:54.462,eb:33:2e:f9:57:b5, 2015-01-01 00:56:25.210,-0.023,-0.025,1.017,17.395,-9.705,-2.869, , , , , , ,-0.467,-1.505,-108.32
 13:11:54.462,eb:33:2e:f9:57:b5, 2015-01-01 00:56:25.210,-0.005,-0.015,1.021,17.822,-10.864,-2.808, , , , , , ,-0.379,-1.56,-108.336
 13:11:54.462,eb:33:2e:f9:57:b5, 2015-01-01 00:56:25.210,0.006,-0.012,1.029,18.005,-10.925,-2.625, , , , , , ,-0.286,-1.615,-108.347
 13:11:54.508,eb:33:2e:f9:57:b5, 2015-01-01 00:56:25.655,0.016,-0.009,1.036,17.761,-10.071,-2.502, , , , , , ,-0.198,-1.664,-108.358
 13:11:54.508,eb:33:2e:f9:57:b5, 2015-01-01 00:56:25.655,0.024,0.005,1.033,17.212,-8.911,-2.502, , , , , , ,-0.104,-1.708,-108.375
 13:11:54.508,eb:33:2e:f9:57:b5, 2015-01-01 00:56:25.655,0.04,0.011,1.035,16.296,-7.141,-2.38, , , , , , ,-0.016,-1.747,-108.386
 13:11:54.508,eb:33:2e:f9:57:b5, 2015-01-01 00:56:25.655,0.051,0.017,1.043,15.442,-4.578,-2.747, , , , , , ,0.055,-1.78,-108.397
 13:11:54.508,eb:33:2e:f9:57:b5, 2015-01-01 00:56:25.655,0.06,0.017,1.047,14.893,-1.953,-3.357, , , , , , ,0.132,-1.791,-108.413
 13:11:54.509,eb:33:2e:f9:57:b5, 2015-01-01 00:56:25.655,0.063,0.025,1.038,14.343,0.671,-3.479, , , , , , ,0.214,-1.785,-108.43
 13:11:54.509,eb:33:2e:f9:57:b5, 2015-01-01 00:56:25.655,0.05,0.025,1.041,13.611,3.723,-3.723, , , , , , ,0.28,-1.774,-108.452
 13:11:54.510,eb:33:2e:f9:57:b5, 2015-01-01 00:56:25.655,0.047,0.021,1.033,13.306,5.737,-4.15, , , , , , ,0.352,-1.752,-108.474
 13:11:54.551,eb:33:2e:f9:57:b5, 2015-01-01 00:56:25.655,0.045,0.008,1.041,13.184,7.812,-4.089, , , , , , ,0.417,-1.714,-108.49
 13:11:54.551,eb:33:2e:f9:57:b5, 2015-01-01 00:56:25.655,0.048,0.011,1.028,12.573,10.254,-4.15, , , , , , ,0.489,-1.664,-108.512
 13:11:54.551,eb:33:2e:f9:57:b5, 2015-01-01 00:56:25.655,0.038,0.017,1.022,12.085,12.268,-3.662, , , , , , ,0.549,-1.604,-108.528
 13:11:54.551,eb:33:2e:f9:57:b5, 2015-01-01 00:56:25.655,0.03,0.024,1.009,11.23,13.977,-2.93, , , , , , ,0.61,-1.538,-108.545
 13:11:54.551,eb:33:2e:f9:57:b5, 2015-01-01 00:56:25.655,0.026,0.024,1.001,10.437,15.381,-2.014, , , , , , ,0.665,-1.467,-108.556
 13:11:54.551,eb:33:2e:f9:57:b5, 2015-01-01 00:56:25.655,0.027,0.031,0.989,9.094,16.479,-2.441, , , , , , ,0.72,-1.379,-108.567
 13:11:54.551,eb:33:2e:f9:57:b5, 2015-01-01 00:56:25.655,0.015,0.032,0.988,8.606,17.09,-2.014, , , , , , ,0.764,-1.296,-108.578
 13:11:54.551,eb:33:2e:f9:57:b5, 2015-01-01 00:56:25.655,0.014,0.027,0.982,8.301,17.395,-2.625, , , , , , ,0.807,-1.208,-108.589
 13:11:54.574,eb:33:2e:f9:57:b5, 2015-01-01 00:56:25.655,0.003,0.021,0.988,8.362,17.456,-3.052, , , , , , ,0.846,-1.121,-108.605
 13:11:54.574,eb:33:2e:f9:57:b5, 2015-01-01 00:56:25.655,-0.021,0.011,0.999,9.766,16.296,-3.601, , , , , , ,0.901,-1.027,-108.622
 13:11:54.574,eb:33:2e:f9:57:b5, 2015-01-01 00:56:25.655,-0.039,0.007,0.975,10.315,14.648,-3.601, , , , , , ,0.95,-0.95,-108.638
 13:11:54.574,eb:33:2e:f9:57:b5, 2015-01-01 00:56:25.655,-0.032,-0.004,0.973,11.292,11.414,-2.808, , , , , , ,1.005,-0.89,-108.649
 13:11:54.574,eb:33:2e:f9:57:b5, 2015-01-01 00:56:25.655,-0.019,0.015,0.965,11.841,9.094,-3.357, , , , , , ,1.066,-0.835,-108.666
 13:11:54.574,eb:33:2e:f9:57:b5, 2015-01-01 00:56:25.655,-0.017,0,0.991,12.329,7.812,-3.052, , , , , , ,1.132,-0.791,-108.682
 13:11:54.575,eb:33:2e:f9:57:b5, 2015-01-01 00:56:25.655,0.012,0,0.983,12.939,6.348,-1.709, , , , , , ,1.198,-0.758,-108.688
 13:11:54.575,eb:33:2e:f9:57:b5, 2015-01-01 00:56:25.655,-0.006,0.024,1.001,12.756,7.324,-1.953, , , , , , ,1.263,-0.72,-108.699
 13:11:54.619,eb:33:2e:f9:57:b5, 2015-01-01 00:56:25.655,0.011,0.013,0.984,12.939,7.202,-1.526, , , , , , ,1.329,-0.687,-108.704
 13:11:54.619,eb:33:2e:f9:57:b5, 2015-01-01 00:56:25.655,0.01,0.029,0.997,12.756,8.484,-2.441, , , , , , ,1.401,-0.643,-108.715
 13:11:54.619,eb:33:2e:f9:57:b5, 2015-01-01 00:56:25.655,0.023,0.045,0.983,12.146,10.437,-3.174, , , , , , ,1.461,-0.593,-108.732
 13:11:54.619,eb:33:2e:f9:57:b5, 2015-01-01 00:56:25.655,0.01,0.042,0.987,11.78,13,-3.052, , , , , , ,1.522,-0.533,-108.743
 13:11:54.619,eb:33:2e:f9:57:b5, 2015-01-01 00:56:25.655,0.022,0.025,1.005,13.367,12.146,-2.686, , , , , , ,1.582,-0.467,-108.759
 13:11:54.619,eb:33:2e:f9:57:b5, 2015-01-01 00:56:25.655,0.065,0.029,1.022,15.93,9.644,-3.906, , , , , , ,1.664,-0.406,-108.77
 13:11:54.619,eb:33:2e:f9:57:b5, 2015-01-01 00:56:25.655,-0.011,0.056,1.015,15.076,13.916,-4.7, , , , , , ,1.741,-0.341,-108.792
 13:11:54.619,eb:33:2e:f9:57:b5, 2015-01-01 00:56:25.655,0.01,0.042,0.962,15.32,10.498,-5.371, , , , , , ,1.818,-0.286,-108.82
 13:11:54.731,eb:33:2e:f9:57:b5, 2015-01-01 00:56:25.655,0.019,0.052,0.996,15.137,10.742,-6.287, , , , , , ,1.895,-0.225,-108.847
 13:11:54.731,eb:33:2e:f9:57:b5, 2015-01-01 00:56:25.655,0.013,0.064,1.021,14.526,14.526,-7.69, , , , , , ,1.978,-0.159,-108.88
 13:11:54.731,eb:33:2e:f9:57:b5, 2015-01-01 00:56:25.655,-0.024,0.052,1.022,14.099,18.066,-7.385, , , , , , ,2.049,-0.077,-108.913
 13:11:54.731,eb:33:2e:f9:57:b5, 2015-01-01 00:56:25.655,0,0.036,0.984,13.733,17.761,-5.981, , , , , , ,2.12,0.011,-108.94
 13:11:54.731,eb:33:2e:f9:57:b5, 2015-01-01 00:56:25.655,0.009,0.051,0.989,13.611,17.029,-5.859, , , , , , ,2.186,0.099,-108.968
 13:11:54.731,eb:33:2e:f9:57:b5, 2015-01-01 00:56:25.655,0.017,0.057,1.013,13.306,18.616,-6.653, , , , , , ,2.258,0.192,-108.995
 13:11:54.731,eb:33:2e:f9:57:b5, 2015-01-01 00:56:25.655,0.031,0.048,1.028,13.489,20.996,-7.141, , , , , , ,2.324,0.297,-109.028
