Time,Device name,Chip Time(),Acceleration X(g),Acceleration Y(g),Acceleration Z(g),Angular velocity X(°/s),Angular velocity Y(°/s),Angular velocity Z(°/s),ShiftX(mm),ShiftY(mm),ShiftZ(mm),SpeedX(mm/s),SpeedY(mm/s),SpeedZ(mm/s),Angle X(°),Angle Y(°),Angle Z(°)
 13:13:10.108,eb:33:2e:f9:57:b5, 2015-01-01 00:57:40.610,0.62,0.181,1.339,256.287,21.79,-49.744, , , , , , ,19.495,2.384,-117.35
 13:13:10.108,eb:33:2e:f9:57:b5, 2015-01-01 00:57:40.610,0.781,0.513,1.006,256.042,3.784,-65.063, , , , , , ,20.77,2.538,-117.603
 13:13:10.109,eb:33:2e:f9:57:b5, 2015-01-01 00:57:40.610,0.833,0.508,0.566,247.131,-18.127,-84.351, , , , , , ,22.011,2.631,-117.977
 13:13:10.109,eb:33:2e:f9:57:b5, 2015-01-01 00:57:40.610,0.888,0.162,0.299,221.13,-29.907,-100.281, , , , , , ,23.148,2.692,-118.466
 13:13:10.109,eb:33:2e:f9:57:b5, 2015-01-01 00:57:40.610,1.044,-0.141,0.322,193.42,-35.583,-110.352, , , , , , ,24.142,2.752,-119.02
 13:13:10.109,eb:33:2e:f9:57:b5, 2015-01-01 00:57:40.610,1.105,-0.513,0.535,162.598,-31.555,-120.178, , , , , , ,24.994,2.834,-119.625
 13:13:10.109,eb:33:2e:f9:57:b5, 2015-01-01 00:57:40.610,1.019,-1.019,0.693,113.22,2.991,-125.977, , , , , , ,25.637,3.049,-120.207
 13:13:10.109,eb:33:2e:f9:57:b5, 2015-01-01 00:57:40.610,0.79,-2.12,0.493,50.171,51.88,-114.258, , , , , , ,25.988,3.455,-120.679
 13:13:10.154,eb:33:2e:f9:57:b5, 2015-01-01 00:57:40.610,0.862,-1.9,0.255,9.766,44.8,-87.952, , , , , , ,26.087,3.9,-121.003
 13:13:10.154,eb:33:2e:f9:57:b5, 2015-01-01 00:57:40.610,0.982,-1.469,0.389,-25.452,30.273,-74.707, , , , , , ,26.01,4.241,-121.278
 13:13:10.154,eb:33:2e:f9:57:b5, 2015-01-01 00:57:40.610,1.06,-1.786,0.114,-55.603,14.404,-66.284, , , , , , ,25.768,4.482,-121.547
 13:13:10.154,eb:33:2e:f9:57:b5, 2015-01-01 00:57:40.610,1.069,-1.698,-0.065,-76.538,2.625,-61.035, , , , , , ,25.4,4.653,-121.811
 13:13:10.154,eb:33:2e:f9:57:b5, 2015-01-01 00:57:40.610,1.031,-1.435,-0.008,-87.219,-15.259,-62.012, , , , , , ,24.955,4.746,-122.102
 13:13:10.154,eb:33:2e:f9:57:b5, 2015-01-01 00:57:40.610,0.971,-1.36,0.106,-90.027,-35.278,-67.2, , , , , , ,24.478,4.757,-122.459
 13:13:10.154,eb:33:2e:f9:57:b5, 2015-01-01 00:57:40.610,0.896,-1.373,0.086,-93.445,-54.138,-70.374, , , , , , ,23.983,4.686,-122.871
 13:13:10.154,eb:33:2e:f9:57:b5, 2015-01-01 00:57:40.610,0.808,-1.418,0.055,-101.379,-71.594,-69.946, , , , , , ,23.456,4.526,-123.322
 13:13:10.199,eb:33:2e:f9:57:b5, 2015-01-01 00:57:40.610,0.71,-1.466,0.143,-112.488,-86.731,-67.017, , , , , , ,22.879,4.29,-123.794
 13:13:10.199,eb:33:2e:f9:57:b5, 2015-01-01 00:57:40.610,0.61,-1.508,0.316,-125.061,-97.046,-60.913, , , , , , ,22.242,3.977,-124.272
 13:13:10.199,eb:33:2e:f9:57:b5, 2015-01-01 00:57:40.610,0.524,-1.538,0.482,-137.817,-101.929,-52.002, , , , , , ,21.55,3.615,-124.717
 13:13:10.199,eb:33:2e:f9:57:b5, 2015-01-01 00:57:40.610,0.44,-1.54,0.621,-149.597,-102.234,-41.382, , , , , , ,20.797,3.219,-125.112
 13:13:10.199,eb:33:2e:f9:57:b5, 2015-01-01 00:57:40.610,0.371,-1.491,0.715,-159.546,-101.135,-29.968, , , , , , ,20.001,2.807,-125.453
 13:13:10.199,eb:33:2e:f9:57:b5, 2015-01-01 00:57:40.610,0.317,-1.4,0.754,-167.297,-101.868,-18.738, , , , , , ,19.16,2.362,-125.733
 13:13:10.199,eb:33:2e:f9:57:b5, 2015-01-01 00:57:40.610,0.266,-1.299,0.797,-174.072,-103.699,-5.676, , , , , , ,18.298,1.89,-125.953
 13:13:10.199,eb:33:2e:f9:57:b5, 2015-01-01 00:57:40.610,0.217,-1.215,0.837,-178.04,-106.445,5.127, , , , , , ,17.408,1.39,-126.107
 13:13:10.245,eb:33:2e:f9:57:b5, 2015-01-01 00:57:40.610,0.195,-1.134,0.893,-181.885,-109.009,16.113, , , , , , ,16.507,0.857,-126.205
 13:13:10.245,eb:33:2e:f9:57:b5, 2015-01-01 00:57:40.610,0.153,-1.045,0.92,-185.791,-113.464,26.489, , , , , , ,15.573,0.286,-126.255
 13:13:10.245,eb:33:2e:f9:57:b5, 2015-01-01 00:57:40.610,0.132,-0.987,0.961,-191.223,-119.202,37.598, , , , , , ,14.628,-0.319,-126.244
 13:13:10.245,eb:33:2e:f9:57:b5, 2015-01-01 00:57:40.610,0.107,-0.917,1.037,-197.693,-123.352,49.133, , , , , , ,13.651,-0.967,-126.172
 13:13:10.245,eb:33:2e:f9:57:b5, 2015-01-01 00:57:40.610,0.115,-0.837,1.127,-204.163,-127.808,60.669, , , , , , ,12.64,-1.642,-126.041
 13:13:10.245,eb:33:2e:f9:57:b5, 2015-01-01 00:57:40.610,0.096,-0.781,1.259,-210.571,-127.075,71.96, , , , , , ,11.585,-2.346,-125.848
 13:13:10.245,eb:33:2e:f9:57:b5, 2015-01-01 00:57:40.610,0.113,-0.677,1.354,-215.393,-125.671,82.581, , , , , , ,10.508,-3.043,-125.59
 13:13:10.245,eb:33:2e:f9:57:b5, 2015-01-01 00:57:40.610,0.131,-0.592,1.471,-219.177,-121.887,92.407, , , , , , ,9.399,-3.73,-125.255
 13:13:10.289,eb:33:2e:f9:57:b5, 2015-01-01 00:57:40.920,0.148,-0.5,1.532,-222.351,-114.99,98.938, , , , , , ,8.267,-4.389,-124.865
 13:13:10.289,eb:33:2e:f9:57:b5, 2015-01-01 00:57:40.920,0.186,-0.398,1.591,-224.609,-108.093,105.225, , , , , , ,7.103,-5.015,-124.426
 13:13:10.289,eb:33:2e:f9:57:b5, 2015-01-01 00:57:40.920,0.254,-0.271,1.593,-225.464,-105.347,108.337, , , , , , ,5.933,-5.609,-123.953
 13:13:10.289,eb:33:2e:f9:57:b5, 2015-01-01 00:57:40.920,0.279,-0.189,1.565,-225.464,-105.347,113.098, , , , , , ,4.752,-6.185,-123.442
 13:13:10.289,eb:33:2e:f9:57:b5, 2015-01-01 00:57:40.920,0.283,-0.086,1.598,-227.051,-104.553,113.342, , , , , , ,3.56,-6.74,-122.915
 13:13:10.289,eb:33:2e:f9:57:b5, 2015-01-01 00:57:40.920,0.309,0.022,1.613,-227.844,-107.727,114.746, , , , , , ,2.34,-7.306,-122.366
 13:13:10.290,eb:33:2e:f9:57:b5, 2015-01-01 00:57:40.920,0.356,0.117,1.579,-230.225,-111.694,114.075, , , , , , ,1.121,-7.872,-121.805
 13:13:10.290,eb:33:2e:f9:57:b5, 2015-01-01 00:57:40.920,0.348,0.183,1.59,-231.75,-115.54,111.816, , , , , , ,-0.11,-8.448,-121.24
 13:13:10.311,eb:33:2e:f9:57:b5, 2015-01-01 00:57:40.920,0.325,0.279,1.674,-231.689,-119.324,108.337, , , , , , ,-1.357,-9.031,-120.674
 13:13:10.311,eb:33:2e:f9:57:b5, 2015-01-01 00:57:40.920,0.306,0.347,1.725,-230.652,-121.399,103.699, , , , , , ,-2.615,-9.619,-120.119
 13:13:10.311,eb:33:2e:f9:57:b5, 2015-01-01 00:57:40.920,0.272,0.407,1.761,-228.943,-120.789,98.206, , , , , , ,-3.856,-10.201,-119.575
 13:13:10.311,eb:33:2e:f9:57:b5, 2015-01-01 00:57:40.920,0.224,0.471,1.784,-226.318,-119.141,91.675, , , , , , ,-5.087,-10.761,-119.048
 13:13:10.311,eb:33:2e:f9:57:b5, 2015-01-01 00:57:40.920,0.162,0.527,1.782,-222.656,-117.859,84.778, , , , , , ,-6.306,-11.305,-118.542
 13:13:10.311,eb:33:2e:f9:57:b5, 2015-01-01 00:57:40.920,0.102,0.575,1.758,-218.567,-117.371,78.247, , , , , , ,-7.515,-11.843,-118.059
 13:13:10.311,eb:33:2e:f9:57:b5, 2015-01-01 00:57:40.920,0.011,0.61,1.762,-214.417,-115.417,72.632, , , , , , ,-8.69,-12.365,-117.598
 13:13:10.311,eb:33:2e:f9:57:b5, 2015-01-01 00:57:40.920,-0.04,0.645,1.752,-209.595,-116.516,68.115, , , , , , ,-9.849,-12.881,-117.147
 13:13:10.357,eb:33:2e:f9:57:b5, 2015-01-01 00:57:40.920,-0.086,0.692,1.806,-205.078,-111.816,63.599, , , , , , ,-10.981,-13.387,-116.713
 13:13:10.357,eb:33:2e:f9:57:b5, 2015-01-01 00:57:40.920,-0.062,0.744,1.864,-199.829,-104.126,59.265, , , , , , ,-12.096,-13.859,-116.29
 13:13:10.357,eb:33:2e:f9:57:b5, 2015-01-01 00:57:40.920,-0.128,0.827,1.94,-195.312,-83.862,51.453, , , , , , ,-13.178,-14.244,-115.911
 13:13:10.357,eb:33:2e:f9:57:b5, 2015-01-01 00:57:40.920,-0.188,0.94,1.918,-191.589,-66.162,41.443, , , , , , ,-14.222,-14.546,-115.598
 13:13:10.357,eb:33:2e:f9:57:b5, 2015-01-01 00:57:40.920,-0.299,1.073,1.691,-183.35,-70.374,36.804, , , , , , ,-15.233,-14.81,-115.323
 13:13:10.357,eb:33:2e:f9:57:b5, 2015-01-01 00:57:40.920,-0.319,1.235,1.482,-175.11,-81.97,26.306, , , , , , ,-16.199,-15.145,-115.065
 13:13:10.357,eb:33:2e:f9:57:b5, 2015-01-01 00:57:40.920,-0.291,1.393,1.323,-166.809,-87.585,10.498, , , , , , ,-17.106,-15.546,-114.846
 13:13:10.358,eb:33:2e:f9:57:b5, 2015-01-01 00:57:40.920,-0.423,1.536,1.651,-165.466,-62.073,-6.775, , , , , , ,-17.968,-15.875,-114.73
 13:13:10.401,eb:33:2e:f9:57:b5, 2015-01-01 00:57:40.920,-0.407,1.717,1.27,-153.198,-79.651,-21.484, , , , , , ,-18.765,-16.293,-114.664
 13:13:10.401,eb:33:2e:f9:57:b5, 2015-01-01 00:57:40.920,-0.471,1.755,1.41,-144.043,-62.256,-34.18, , , , , , ,-19.506,-16.666,-114.686
 13:13:10.401,eb:33:2e:f9:57:b5, 2015-01-01 00:57:40.920,-0.534,1.861,1.399,-130.554,-47.852,-45.288, , , , , , ,-20.154,-16.99,-114.791
 13:13:10.401,eb:33:2e:f9:57:b5, 2015-01-01 00:57:40.920,-0.59,1.948,1.312,-112.732,-37.72,-55.603, , , , , , ,-20.704,-17.271,-114.972
 13:13:10.401,eb:33:2e:f9:57:b5, 2015-01-01 00:57:40.920,-0.673,1.983,1.205,-91.797,-31.555,-63.721, , , , , , ,-21.138,-17.54,-115.208
 13:13:10.401,eb:33:2e:f9:57:b5, 2015-01-01 00:57:40.920,-0.755,1.98,1.104,-69.092,-29.846,-70.007, , , , , , ,-21.451,-17.803,-115.477
 13:13:10.401,eb:33:2e:f9:57:b5, 2015-01-01 00:57:40.920,-0.842,1.947,1.082,-46.265,-29.175,-74.28, , , , , , ,-21.632,-18.078,-115.779
 13:13:10.401,eb:33:2e:f9:57:b5, 2015-01-01 00:57:40.920,-0.932,1.888,1.145,-25.208,-25.146,-76.233, , , , , , ,-21.703,-18.342,-116.098
 13:13:10.446,eb:33:2e:f9:57:b5, 2015-01-01 00:57:40.920,-1.009,1.825,1.253,-6.836,-15.564,-75.867, , , , , , ,-21.665,-18.572,-116.433
 13:13:10.446,eb:33:2e:f9:57:b5, 2015-01-01 00:57:40.920,-1.055,1.766,1.369,9.033,-0.671,-73.608, , , , , , ,-21.539,-18.743,-116.785
 13:13:10.446,eb:33:2e:f9:57:b5, 2015-01-01 00:57:40.920,-1.027,1.717,1.466,23.315,17.883,-70.129, , , , , , ,-21.33,-18.831,-117.153
 13:13:10.446,eb:33:2e:f9:57:b5, 2015-01-01 00:57:40.920,-1.038,1.663,1.522,36.926,38.635,-65.979, , , , , , ,-21.044,-18.809,-117.548
 13:13:10.446,eb:33:2e:f9:57:b5, 2015-01-01 00:57:40.920,-0.981,1.647,1.494,50.964,54.993,-61.768, , , , , , ,-20.687,-18.699,-117.949
 13:13:10.446,eb:33:2e:f9:57:b5, 2015-01-01 00:57:40.920,-0.752,1.543,1.341,68.909,60.059,-57.434, , , , , , ,-20.253,-18.528,-118.35
 13:13:10.446,eb:33:2e:f9:57:b5, 2015-01-01 00:57:40.920,-0.689,1.501,1.648,84.412,95.886,-48.523, , , , , , ,-19.731,-18.254,-118.757
 13:13:10.446,eb:33:2e:f9:57:b5, 2015-01-01 00:57:40.920,0.045,1.487,1.42,96.436,117.859,-48.279, , , , , , ,-19.138,-17.809,-119.191
 13:13:10.491,eb:33:2e:f9:57:b5, 2015-01-01 00:57:40.920,2.32,1.01,2.177,118.713,95.093,-93.14, , , , , , ,-18.43,-17.446,-119.702
 13:13:10.491,eb:33:2e:f9:57:b5, 2015-01-01 00:57:40.920,1.018,-2.263,4.86,111.572,263.245,-139.099, , , , , , ,-17.551,-16.727,-120.701
 13:13:10.491,eb:33:2e:f9:57:b5, 2015-01-01 00:57:40.920,1.589,-1.854,0.092,128.845,177.673,-105.774, , , , , , ,-16.694,-15.881,-121.613
 13:13:10.491,eb:33:2e:f9:57:b5, 2015-01-01 00:57:40.920,1.182,-2.312,1.257,151.611,186.523,-55.542, , , , , , ,-15.826,-15.084,-122.25
 13:13:10.491,eb:33:2e:f9:57:b5, 2015-01-01 00:57:40.920,0.873,-2.207,1.237,189.758,181.702,-40.222, , , , , , ,-14.821,-14.282,-122.734
 13:13:10.491,eb:33:2e:f9:57:b5, 2015-01-01 00:57:40.920,0.633,-1.125,1.174,212.952,183.655,-27.954, , , , , , ,-13.7,-13.436,-123.124
 13:13:10.491,eb:33:2e:f9:57:b5, 2015-01-01 00:57:40.920,0.326,-0.448,1.185,221.863,196.289,-17.883, , , , , , ,-12.53,-12.513,-123.464
 13:13:10.491,eb:33:2e:f9:57:b5, 2015-01-01 00:57:40.920,-0.103,-0.168,1.029,223.267,185.669,-5.31, , , , , , ,-11.36,-11.596,-123.717
 13:13:10.538,eb:33:2e:f9:57:b5, 2015-01-01 00:57:40.920,-0.488,-0.215,0.825,221.924,180.42,6.287, , , , , , ,-10.217,-10.679,-123.876
 13:13:10.538,eb:33:2e:f9:57:b5, 2015-01-01 00:57:40.920,-0.425,0.065,0.94,206.421,148.315,7.507, , , , , , ,-9.124,-9.882,-123.97
 13:13:10.538,eb:33:2e:f9:57:b5, 2015-01-01 00:57:40.920,-0.136,0.231,1.247,178.894,128.113,9.949, , , , , , ,-8.163,-9.201,-124.025
 13:13:10.538,eb:33:2e:f9:57:b5, 2015-01-01 00:57:40.920,-0.15,0.341,1.291,151.611,112.793,5.92, , , , , , ,-7.344,-8.613,-124.058
 13:13:10.538,eb:33:2e:f9:57:b5, 2015-01-01 00:57:40.920,-0.064,0.367,1.427,125.732,119.446,-11.902, , , , , , ,-6.658,-8.026,-124.156
 13:13:10.538,eb:33:2e:f9:57:b5, 2015-01-01 00:57:40.920,-0.152,0.204,1.299,109.436,116.638,-23.682, , , , , , ,-6.059,-7.427,-124.327
 13:13:10.538,eb:33:2e:f9:57:b5, 2015-01-01 00:57:40.920,-0.243,0.072,1.181,102.539,110.291,-33.691, , , , , , ,-5.51,-6.894,-124.53
 13:13:10.538,eb:33:2e:f9:57:b5, 2015-01-01 00:57:40.920,-0.211,-0.021,1.019,98.083,81.482,-35.461, , , , , , ,-4.982,-6.438,-124.75
 13:13:10.559,eb:33:2e:f9:57:b5, 2015-01-01 00:57:40.920,-0.086,-0.064,1.094,92.468,57.8,-30.151, , , , , , ,-4.488,-6.114,-124.948
 13:13:10.559,eb:33:2e:f9:57:b5, 2015-01-01 00:57:40.920,0.08,-0.088,0.984,88.928,44.006,-21.24, , , , , , ,-4.021,-5.872,-125.09
 13:13:10.559,eb:33:2e:f9:57:b5, 2015-01-01 00:57:40.920,0.227,-0.078,0.879,85.693,28.625,-13.916, , , , , , ,-3.576,-5.707,-125.184
 13:13:10.559,eb:33:2e:f9:57:b5, 2015-01-01 00:57:40.920,0.151,-0.088,1.013,81.482,42.236,-3.967, , , , , , ,-3.159,-5.51,-125.239
 13:13:10.559,eb:33:2e:f9:57:b5, 2015-01-01 00:57:40.920,0.226,-0.04,1.034,78.796,40.283,1.953, , , , , , ,-2.758,-5.312,-125.25
 13:13:10.559,eb:33:2e:f9:57:b5, 2015-01-01 00:57:40.920,0.262,-0.001,1.023,74.097,51.147,5.737, , , , , , ,-2.373,-5.07,-125.239
 13:13:10.559,eb:33:2e:f9:57:b5, 2015-01-01 00:57:40.920,0.193,0.078,1.02,65.613,56.824,11.353, , , , , , ,-2.027,-4.807,-125.2
 13:13:10.559,eb:33:2e:f9:57:b5, 2015-01-01 00:57:40.920,0.043,0.132,0.98,54.016,71.472,12.634, , , , , , ,-1.736,-4.493,-125.134
 13:13:10.604,eb:33:2e:f9:57:b5, 2015-01-01 00:57:40.920,-0.053,0.261,0.9,43.03,76.965,8.789, , , , , , ,-1.5,-4.131,-125.09
 13:13:10.604,eb:33:2e:f9:57:b5, 2015-01-01 00:57:40.920,-0.106,0.268,0.896,31.128,73.975,9.033, , , , , , ,-1.318,-3.746,-125.052
 13:13:10.604,eb:33:2e:f9:57:b5, 2015-01-01 00:57:40.920,-0.083,0.196,0.976,20.508,72.693,7.812, , , , , , ,-1.198,-3.373,-125.03
 13:13:10.604,eb:33:2e:f9:57:b5, 2015-01-01 00:57:40.920,0.001,0.131,0.891,14.465,61.951,5.676, , , , , , ,-1.115,-3.043,-124.997
 13:13:10.604,eb:33:2e:f9:57:b5, 2015-01-01 00:57:40.920,-0.018,0.099,1.023,11.169,60.852,3.174, , , , , , ,-1.055,-2.736,-124.986
 13:13:10.604,eb:33:2e:f9:57:b5, 2015-01-01 00:57:40.920,-0.029,0.004,0.978,11.536,55.298,3.174, , , , , , ,-0.994,-2.45,-124.969
 13:13:10.605,eb:33:2e:f9:57:b5, 2015-01-01 00:57:40.920,-0.149,0.03,0.992,9.644,53.345,3.418, , , , , , ,-0.945,-2.175,-124.958
 13:13:10.605,eb:33:2e:f9:57:b5, 2015-01-01 00:57:40.920,-0.144,0.051,0.927,8.545,41.931,1.892, , , , , , ,-0.895,-1.945,-124.948
 13:13:10.649,eb:33:2e:f9:57:b5, 2015-01-01 00:57:40.920,-0.098,0.031,0.909,8.301,32.104,0, , , , , , ,-0.857,-1.758,-124.948
 13:13:10.649,eb:33:2e:f9:57:b5, 2015-01-01 00:57:40.920,-0.026,-0.02,0.936,9.766,23.682,-0.244, , , , , , ,-0.807,-1.62,-124.953
 13:13:10.650,eb:33:2e:f9:57:b5, 2015-01-01 00:57:40.920,0,-0.011,0.995,10.071,21.973,-1.282, , , , , , ,-0.758,-1.511,-124.958
 13:13:10.650,eb:33:2e:f9:57:b5, 2015-01-01 00:57:40.920,-0.006,0.013,1.013,9.521,20.447,-0.122, , , , , , ,-0.709,-1.406,-124.958
 13:13:10.650,eb:33:2e:f9:57:b5, 2015-01-01 00:57:40.920,-0.045,0.04,1.044,7.629,20.996,0.305, , , , , , ,-0.665,-1.302,-124.958
 13:13:10.650,eb:33:2e:f9:57:b5, 2015-01-01 00:57:40.920,-0.043,0.024,1.021,6.531,18.921,0.793, , , , , , ,-0.626,-1.203,-124.953
 13:13:10.650,eb:33:2e:f9:57:b5, 2015-01-01 00:57:40.920,-0.041,0.012,1.011,5.798,16.785,1.282, , , , , , ,-0.599,-1.115,-124.948
 13:13:10.650,eb:33:2e:f9:57:b5, 2015-01-01 00:57:40.920,-0.055,0.017,1.01,5.066,15.381,1.77, , , , , , ,-0.571,-1.033,-124.937
 13:13:10.694,eb:33:2e:f9:57:b5, 2015-01-01 00:57:41.325,-0.043,0.021,0.994,4.272,12.268,2.075, , , , , , ,-0.549,-0.967,-124.931
 13:13:10.694,eb:33:2e:f9:57:b5, 2015-01-01 00:57:41.325,-0.042,0.024,0.992,3.601,10.071,1.953, , , , , , ,-0.527,-0.906,-124.92
 13:13:10.694,eb:33:2e:f9:57:b5, 2015-01-01 00:57:41.325,-0.041,0.018,0.989,3.418,7.69,2.014, , , , , , ,-0.511,-0.862,-124.909
 13:13:10.694,eb:33:2e:f9:57:b5, 2015-01-01 00:57:41.325,-0.026,0.003,0.99,4.272,5.127,2.136, , , , , , ,-0.489,-0.835,-124.898
 13:13:10.694,eb:33:2e:f9:57:b5, 2015-01-01 00:57:41.325,-0.028,-0.014,1.009,5.493,4.028,2.869, , , , , , ,-0.467,-0.813,-124.882
 13:13:10.694,eb:33:2e:f9:57:b5, 2015-01-01 00:57:41.325,-0.022,-0.006,1.008,7.019,2.441,3.052, , , , , , ,-0.428,-0.797,-124.865
 13:13:10.694,eb:33:2e:f9:57:b5, 2015-01-01 00:57:41.325,-0.038,0.006,1.018,7.69,2.136,2.625, , , , , , ,-0.39,-0.786,-124.854
 13:13:10.694,eb:33:2e:f9:57:b5, 2015-01-01 00:57:41.325,-0.025,0.002,0.998,8.484,0.488,2.502, , , , , , ,-0.352,-0.78,-124.838
 13:13:10.715,eb:33:2e:f9:57:b5, 2015-01-01 00:57:41.325,-0.013,0,1.002,9.521,-0.549,2.075, , , , , , ,-0.308,-0.78,-124.827
 13:13:10.715,eb:33:2e:f9:57:b5, 2015-01-01 00:57:41.325,0,0,1.01,10.559,-1.099,1.465, , , , , , ,-0.253,-0.78,-124.816
 13:13:10.715,eb:33:2e:f9:57:b5, 2015-01-01 00:57:41.325,-0.001,0.01,1.023,11.414,-0.916,0.916, , , , , , ,-0.198,-0.786,-124.81
 13:13:10.715,eb:33:2e:f9:57:b5, 2015-01-01 00:57:41.325,-0.004,0.02,1.025,11.841,-0.916,0.305, , , , , , ,-0.137,-0.791,-124.805
 13:13:10.715,eb:33:2e:f9:57:b5, 2015-01-01 00:57:41.325,-0.008,0.021,1.026,12.085,-0.793,-0.183, , , , , , ,-0.077,-0.797,-124.805
 13:13:10.715,eb:33:2e:f9:57:b5, 2015-01-01 00:57:41.325,-0.014,0.023,1.02,12.329,-1.099,-0.854, , , , , , ,-0.016,-0.797,-124.805
 13:13:10.715,eb:33:2e:f9:57:b5, 2015-01-01 00:57:41.325,-0.019,0.027,1.017,12.268,-1.587,-1.282, , , , , , ,0.044,-0.807,-124.81
 13:13:10.715,eb:33:2e:f9:57:b5, 2015-01-01 00:57:41.325,-0.021,0.029,1.017,12.085,-2.136,-1.648, , , , , , ,0.104,-0.818,-124.816
 13:13:10.763,eb:33:2e:f9:57:b5, 2015-01-01 00:57:41.325,-0.02,0.024,1.018,12.207,-2.808,-2.075, , , , , , ,0.165,-0.829,-124.827
 13:13:10.763,eb:33:2e:f9:57:b5, 2015-01-01 00:57:41.325,-0.019,0.021,1.018,12.39,-3.357,-2.319, , , , , , ,0.231,-0.84,-124.838
 13:13:10.763,eb:33:2e:f9:57:b5, 2015-01-01 00:57:41.325,-0.019,0.023,1.017,12.39,-3.967,-2.38, , , , , , ,0.291,-0.862,-124.849
 13:13:10.763,eb:33:2e:f9:57:b5, 2015-01-01 00:57:41.325,-0.013,0.025,1.014,12.329,-4.578,-2.38, , , , , , ,0.352,-0.884,-124.86
 13:13:10.763,eb:33:2e:f9:57:b5, 2015-01-01 00:57:41.325,-0.014,0.025,1.013,12.268,-4.883,-2.197, , , , , , ,0.412,-0.906,-124.871
 13:13:10.764,eb:33:2e:f9:57:b5, 2015-01-01 00:57:41.325,-0.018,0.026,1.004,12.024,-5.188,-2.136, , , , , , ,0.478,-0.928,-124.882
 13:13:10.764,eb:33:2e:f9:57:b5, 2015-01-01 00:57:41.325,-0.021,0.027,1,11.719,-5.676,-1.831, , , , , , ,0.538,-0.956,-124.893
 13:13:10.764,eb:33:2e:f9:57:b5, 2015-01-01 00:57:41.325,-0.021,0.03,0.991,11.23,-6.47,-1.343, , , , , , ,0.593,-0.989,-124.893
 13:13:10.806,eb:33:2e:f9:57:b5, 2015-01-01 00:57:41.325,-0.013,0.034,0.985,10.559,-7.141,-0.977, , , , , , ,0.648,-1.022,-124.898
 13:13:10.806,eb:33:2e:f9:57:b5, 2015-01-01 00:57:41.325,-0.012,0.034,0.989,9.766,-7.385,-0.549, , , , , , ,0.703,-1.055,-124.904
 13:13:10.806,eb:33:2e:f9:57:b5, 2015-01-01 00:57:41.325,0.004,0.034,0.987,9.155,-7.69,-0.305, , , , , , ,0.747,-1.093,-124.904
 13:13:10.806,eb:33:2e:f9:57:b5, 2015-01-01 00:57:41.325,0.005,0.036,0.997,8.545,-6.775,0.061, , , , , , ,0.791,-1.132,-124.904
 13:13:10.806,eb:33:2e:f9:57:b5, 2015-01-01 00:57:41.325,0.005,0.034,0.999,8.057,-6.409,0.427, , , , , , ,0.835,-1.165,-124.898
 13:13:10.806,eb:33:2e:f9:57:b5, 2015-01-01 00:57:41.325,0.006,0.034,0.993,7.507,-5.798,0.793, , , , , , ,0.873,-1.192,-124.898
 13:13:10.806,eb:33:2e:f9:57:b5, 2015-01-01 00:57:41.325,0.005,0.033,0.993,7.08,-5.188,1.404, , , , , , ,0.912,-1.219,-124.893
 13:13:10.806,eb:33:2e:f9:57:b5, 2015-01-01 00:57:41.325,0.019,0.032,0.987,6.714,-4.822,2.075, , , , , , ,0.945,-1.247,-124.882
 13:13:10.852,eb:33:2e:f9:57:b5, 2015-01-01 00:57:41.325,0.015,0.041,0.995,6.287,-3.723,2.197, , , , , , ,0.978,-1.269,-124.871
 13:13:10.852,eb:33:2e:f9:57:b5, 2015-01-01 00:57:41.325,0.016,0.042,0.985,6.104,-3.235,1.953, , , , , , ,1.011,-1.28,-124.86
 13:13:10.852,eb:33:2e:f9:57:b5, 2015-01-01 00:57:41.325,0.01,0.039,0.987,6.104,-2.563,1.648, , , , , , ,1.044,-1.296,-124.849
 13:13:10.852,eb:33:2e:f9:57:b5, 2015-01-01 00:57:41.325,0.014,0.032,0.985,6.47,-2.502,1.343, , , , , , ,1.071,-1.307,-124.838
 13:13:10.852,eb:33:2e:f9:57:b5, 2015-01-01 00:57:41.325,0.011,0.031,0.988,6.958,-2.258,1.099, , , , , , ,1.11,-1.318,-124.832
 13:13:10.852,eb:33:2e:f9:57:b5, 2015-01-01 00:57:41.325,0.011,0.027,0.989,7.874,-2.38,0.732, , , , , , ,1.148,-1.329,-124.827
 13:13:10.852,eb:33:2e:f9:57:b5, 2015-01-01 00:57:41.325,0.008,0.022,0.991,8.728,-2.441,0.671, , , , , , ,1.192,-1.34,-124.827
 13:13:10.852,eb:33:2e:f9:57:b5, 2015-01-01 00:57:41.325,0.016,0.026,0.992,9.583,-2.686,0.549, , , , , , ,1.236,-1.357,-124.821
 13:13:10.873,eb:33:2e:f9:57:b5, 2015-01-01 00:57:41.325,0.021,0.028,1.002,10.315,-2.441,0.427, , , , , , ,1.285,-1.368,-124.816
 13:13:10.873,eb:33:2e:f9:57:b5, 2015-01-01 00:57:41.325,0.029,0.03,1.012,10.986,-1.587,0.305, , , , , , ,1.34,-1.379,-124.816
 13:13:10.873,eb:33:2e:f9:57:b5, 2015-01-01 00:57:41.325,0.026,0.035,1.02,11.597,-0.061,0.305, , , , , , ,1.401,-1.379,-124.816
 13:13:10.873,eb:33:2e:f9:57:b5, 2015-01-01 00:57:41.325,0.062,0.03,1.015,12.329,0.366,0.549, , , , , , ,1.461,-1.379,-124.805
 13:13:10.873,eb:33:2e:f9:57:b5, 2015-01-01 00:57:41.325,0.052,0.047,1.048,12.512,4.211,0.122, , , , , , ,1.522,-1.368,-124.805
 13:13:10.873,eb:33:2e:f9:57:b5, 2015-01-01 00:57:41.325,0.049,0.047,1.039,12.878,7.141,0, , , , , , ,1.588,-1.335,-124.805
 13:13:10.873,eb:33:2e:f9:57:b5, 2015-01-01 00:57:41.325,0.035,0.041,1.04,13.306,10.315,0.122, , , , , , ,1.653,-1.291,-124.799
 13:13:10.873,eb:33:2e:f9:57:b5, 2015-01-01 00:57:41.325,0.009,0.045,1.027,13.733,12.39,0, , , , , , ,1.719,-1.23,-124.794
 13:13:10.919,eb:33:2e:f9:57:b5, 2015-01-01 00:57:41.325,0.003,0.06,1.003,13.977,12.756,-0.732, , , , , , ,1.791,-1.17,-124.794
 13:13:10.919,eb:33:2e:f9:57:b5, 2015-01-01 00:57:41.325,0.023,0.043,1.006,14.526,13,-1.16, , , , , , ,1.868,-1.099,-124.799
 13:13:10.919,eb:33:2e:f9:57:b5, 2015-01-01 00:57:41.325,0.034,0.047,1.02,14.954,14.221,-1.221, , , , , , ,1.939,-1.033,-124.805
 13:13:10.919,eb:33:2e:f9:57:b5, 2015-01-01 00:57:41.325,0.034,0.061,1.028,15.442,15.747,-1.953, , , , , , ,2.016,-0.956,-124.805
 13:13:10.919,eb:33:2e:f9:57:b5, 2015-01-01 00:57:41.325,0.04,0.06,1.026,15.869,17.456,-2.747, , , , , , ,2.093,-0.873,-124.816
 13:13:10.919,eb:33:2e:f9:57:b5, 2015-01-01 00:57:41.325,0.044,0.055,1.034,16.724,19.165,-3.601, , , , , , ,2.181,-0.775,-124.827
 13:13:10.919,eb:33:2e:f9:57:b5, 2015-01-01 00:57:41.325,0.033,0.06,1.04,17.456,21.729,-4.395, , , , , , ,2.269,-0.67,-124.843
 13:13:10.919,eb:33:2e:f9:57:b5, 2015-01-01 00:57:41.325,0.016,0.061,1.026,18.25,23.315,-5.188, , , , , , ,2.357,-0.56,-124.86
 13:13:10.986,eb:33:2e:f9:57:b5, 2015-01-01 00:57:41.325,-0.003,0.062,1.018,18.799,24.231,-5.676, , , , , , ,2.45,-0.434,-124.882
 13:13:10.986,eb:33:2e:f9:57:b5, 2015-01-01 00:57:41.325,-0.015,0.063,1.009,19.226,24.17,-6.287, , , , , , ,2.549,-0.313,-124.909
 13:13:10.986,eb:33:2e:f9:57:b5, 2015-01-01 00:57:41.325,-0.02,0.068,0.999,19.47,23.987,-6.775, , , , , , ,2.642,-0.187,-124.937
 13:13:10.986,eb:33:2e:f9:57:b5, 2015-01-01 00:57:41.325,-0.021,0.063,1.001,20.142,23.682,-7.08, , , , , , ,2.747,-0.071,-124.958
 13:13:10.986,eb:33:2e:f9:57:b5, 2015-01-01 00:57:41.325,-0.028,0.054,1.008,21.423,23.132,-7.385, , , , , , ,2.851,0.044,-124.991
 13:13:10.986,eb:33:2e:f9:57:b5, 2015-01-01 00:57:41.325,-0.023,0.039,1.022,23.132,22.583,-7.263, , , , , , ,2.966,0.165,-125.019
 13:13:10.986,eb:33:2e:f9:57:b5, 2015-01-01 00:57:41.325,-0.027,0.043,1.032,24.841,22.156,-7.141, , , , , , ,3.087,0.275,-125.052
 13:13:10.986,eb:33:2e:f9:57:b5, 2015-01-01 00:57:41.325,-0.016,0.056,1.022,26.123,21.667,-7.202, , , , , , ,3.214,0.385,-125.079
 13:13:11.009,eb:33:2e:f9:57:b5, 2015-01-01 00:57:41.635,0,0.084,1.022,27.161,21.545,-8.24, , , , , , ,3.345,0.494,-125.112
 13:13:11.009,eb:33:2e:f9:57:b5, 2015-01-01 00:57:41.635,-0.008,0.102,1.018,28.992,21.301,-10.071, , , , , , ,3.488,0.61,-125.151
 13:13:11.009,eb:33:2e:f9:57:b5, 2015-01-01 00:57:41.635,-0.012,0.086,1.026,29.968,21.667,-10.925, , , , , , ,3.636,0.72,-125.195
 13:13:11.009,eb:33:2e:f9:57:b5, 2015-01-01 00:57:41.635,0.005,0.085,1.038,31.006,21.423,-12.451, , , , , , ,3.79,0.829,-125.244
 13:13:11.009,eb:33:2e:f9:57:b5, 2015-01-01 00:57:41.635,0.006,0.073,1.073,32.043,22.522,-12.512, , , , , , ,3.95,0.945,-125.299
 13:13:11.009,eb:33:2e:f9:57:b5, 2015-01-01 00:57:41.635,-0.006,0.071,1.137,33.569,25.024,-12.451, , , , , , ,4.114,1.071,-125.354
 13:13:11.009,eb:33:2e:f9:57:b5, 2015-01-01 00:57:41.635,-0.006,0.054,1.168,35.522,28.32,-11.719, , , , , , ,4.29,1.208,-125.403
 13:13:11.009,eb:33:2e:f9:57:b5, 2015-01-01 00:57:41.635,0.012,0.066,1.16,38.086,30.64,-11.719, , , , , , ,4.471,1.357,-125.447
 13:13:11.055,eb:33:2e:f9:57:b5, 2015-01-01 00:57:41.635,0.024,0.053,1.131,40.71,30.029,-10.376, , , , , , ,4.669,1.516,-125.486
 13:13:11.055,eb:33:2e:f9:57:b5, 2015-01-01 00:57:41.635,0.045,0.131,1.118,40.955,34.119,-13.123, , , , , , ,4.878,1.686,-125.535
 13:13:11.055,eb:33:2e:f9:57:b5, 2015-01-01 00:57:41.635,-0.007,0.158,1.026,42.419,31.433,-13.916, , , , , , ,5.081,1.862,-125.59
 13:13:11.055,eb:33:2e:f9:57:b5, 2015-01-01 00:57:41.635,-0.075,0.117,1.124,43.945,33.203,-16.174, , , , , , ,5.295,2.032,-125.651
 13:13:11.055,eb:33:2e:f9:57:b5, 2015-01-01 00:57:41.635,-0.127,0.037,1.166,46.509,39.673,-14.648, , , , , , ,5.521,2.225,-125.711
 13:13:11.055,eb:33:2e:f9:57:b5, 2015-01-01 00:57:41.635,-0.155,-0.021,1.138,54.565,25.879,-8.667, , , , , , ,5.773,2.395,-125.75
 13:13:11.055,eb:33:2e:f9:57:b5, 2015-01-01 00:57:41.635,-0.103,0.047,1.242,57.434,31.738,-9.216, , , , , , ,6.053,2.549,-125.782
 13:13:11.055,eb:33:2e:f9:57:b5, 2015-01-01 00:57:41.635,-0.137,0.129,0.919,62.988,18.25,-8.789, , , , , , ,6.356,2.67,-125.804
 13:13:11.076,eb:33:2e:f9:57:b5, 2015-01-01 00:57:41.635,-0.074,-0.039,1.167,67.81,15.747,-7.996, , , , , , ,6.685,2.752,-125.837
 13:13:11.076,eb:33:2e:f9:57:b5, 2015-01-01 00:57:41.635,-0.04,0.01,1.204,75.989,13.123,-5.92, , , , , , ,7.048,2.823,-125.859
 13:13:11.076,eb:33:2e:f9:57:b5, 2015-01-01 00:57:41.635,-0.068,0.116,1.248,85.693,10.864,-6.653, , , , , , ,7.46,2.878,-125.881
 13:13:11.076,eb:33:2e:f9:57:b5, 2015-01-01 00:57:41.635,0,0.025,1.436,92.407,13.306,-9.155, , , , , , ,7.905,2.944,-125.914
 13:13:11.076,eb:33:2e:f9:57:b5, 2015-01-01 00:57:41.635,0.057,0.046,1.389,102.051,12.451,-6.042, , , , , , ,8.394,3.016,-125.936
 13:13:11.076,eb:33:2e:f9:57:b5, 2015-01-01 00:57:41.635,0.048,0.178,1.359,106.75,22.888,-11.597, , , , , , ,8.915,3.137,-125.986
 13:13:11.076,eb:33:2e:f9:57:b5, 2015-01-01 00:57:41.635,0.123,0.159,1.534,112.244,27.588,-14.893, , , , , , ,9.465,3.274,-126.03
 13:13:11.078,eb:33:2e:f9:57:b5, 2015-01-01 00:57:41.635,0.165,0.165,1.442,120.056,34.424,-16.602, , , , , , ,10.047,3.439,-126.074
 13:13:11.122,eb:33:2e:f9:57:b5, 2015-01-01 00:57:41.635,0.035,0.188,1.401,127.258,40.833,-23.193, , , , , , ,10.662,3.658,-126.151
 13:13:11.122,eb:33:2e:f9:57:b5, 2015-01-01 00:57:41.635,0.01,0.108,1.411,133.728,46.692,-27.527, , , , , , ,11.316,3.895,-126.233
 13:13:11.122,eb:33:2e:f9:57:b5, 2015-01-01 00:57:41.635,-0.076,0.031,1.483,140.869,46.021,-22.522, , , , , , ,11.997,4.158,-126.31
 13:13:11.122,eb:33:2e:f9:57:b5, 2015-01-01 00:57:41.635,-0.016,0.072,1.607,149.17,58.899,-26.123, , , , , , ,12.722,4.449,-126.37
 13:13:11.122,eb:33:2e:f9:57:b5, 2015-01-01 00:57:41.635,0.023,-0.011,1.392,158.63,56.335,-20.142, , , , , , ,13.491,4.763,-126.414
 13:13:11.122,eb:33:2e:f9:57:b5, 2015-01-01 00:57:41.635,-0.116,0.137,1.389,169.678,54.26,-24.048, , , , , , ,14.315,5.076,-126.469
 13:13:11.122,eb:33:2e:f9:57:b5, 2015-01-01 00:57:41.635,-0.04,0.22,1.58,178.955,57.007,-31.799, , , , , , ,15.189,5.356,-126.524
 13:13:11.122,eb:33:2e:f9:57:b5, 2015-01-01 00:57:41.635,-0.042,-0.119,1.666,189.27,56.396,-21.79, , , , , , ,16.111,5.652,-126.557
 13:13:11.167,eb:33:2e:f9:57:b5, 2015-01-01 00:57:41.635,-0.101,-0.114,1.75,200.256,67.078,-18.066, , , , , , ,17.084,5.999,-126.579
 13:13:11.167,eb:33:2e:f9:57:b5, 2015-01-01 00:57:41.635,-0.093,-0.055,1.631,212.646,66.956,-16.174, , , , , , ,18.127,6.35,-126.552
 13:13:11.167,eb:33:2e:f9:57:b5, 2015-01-01 00:57:41.635,-0.095,-0.096,1.667,228.027,63.965,-14.221, , , , , , ,19.237,6.685,-126.524
 13:13:11.167,eb:33:2e:f9:57:b5, 2015-01-01 00:57:41.635,-0.026,-0.062,1.735,244.019,58.472,-11.719, , , , , , ,20.435,6.987,-126.469
 13:13:11.167,eb:33:2e:f9:57:b5, 2015-01-01 00:57:41.635,-0.08,-0.04,1.789,261.475,52.856,-14.465, , , , , , ,21.709,7.262,-126.431
 13:13:11.167,eb:33:2e:f9:57:b5, 2015-01-01 00:57:41.635,0.026,-0.123,1.858,281.494,44.617,-14.16, , , , , , ,23.082,7.515,-126.403
 13:13:11.167,eb:33:2e:f9:57:b5, 2015-01-01 00:57:41.635,-0.032,-0.147,2.026,301.147,47.119,-22.156, , , , , , ,24.543,7.767,-126.403
 13:13:11.168,eb:33:2e:f9:57:b5, 2015-01-01 00:57:41.635,0.13,-0.083,2.171,321.472,40.1,-24.658, , , , , , ,26.109,8.026,-126.409
 13:13:11.211,eb:33:2e:f9:57:b5, 2015-01-01 00:57:41.635,0.347,0.071,2.335,343.872,31.372,-27.405, , , , , , ,27.773,8.234,-126.453
 13:13:11.211,eb:33:2e:f9:57:b5, 2015-01-01 00:57:41.635,0.271,0.039,2.113,366.699,19.836,-33.386, , , , , , ,29.553,8.416,-126.53
 13:13:11.211,eb:33:2e:f9:57:b5, 2015-01-01 00:57:41.635,0.069,-0.089,2.425,384.277,23.071,-39.978, , , , , , ,31.426,8.597,-126.645
 13:13:11.211,eb:33:2e:f9:57:b5, 2015-01-01 00:57:41.635,0.236,-0.217,3.025,400.696,48.035,-38.513, , , , , , ,33.382,8.844,-126.7
 13:13:11.211,eb:33:2e:f9:57:b5, 2015-01-01 00:57:41.635,0.398,0.002,2.812,422.974,67.139,-39.429, , , , , , ,35.458,9.212,-126.683
 13:13:11.211,eb:33:2e:f9:57:b5, 2015-01-01 00:57:41.635,0.568,0.315,2.262,441.895,52.124,-52.551, , , , , , ,37.623,9.591,-126.694
 13:13:11.211,eb:33:2e:f9:57:b5, 2015-01-01 00:57:41.635,0.434,0.412,2.165,464.05,26.245,-68.726, , , , , , ,39.88,9.932,-126.826
 13:13:11.211,eb:33:2e:f9:57:b5, 2015-01-01 00:57:41.635,0.181,0.576,2.523,465.21,22.644,-86.853, , , , , , ,42.166,10.272,-127.057
 13:13:11.257,eb:33:2e:f9:57:b5, 2015-01-01 00:57:41.635,0.18,0.186,3.488,462.219,63.782,-87.341, , , , , , ,44.456,10.745,-127.216
 13:13:11.257,eb:33:2e:f9:57:b5, 2015-01-01 00:57:41.635,0.342,0.187,3.497,460.999,85.693,-83.679, , , , , , ,46.752,11.327,-127.244
 13:13:11.257,eb:33:2e:f9:57:b5, 2015-01-01 00:57:41.635,0.659,0.298,3.521,461.426,128.113,-86.121, , , , , , ,49.081,12.014,-127.106
 13:13:11.257,eb:33:2e:f9:57:b5, 2015-01-01 00:57:41.635,0.762,0.405,2.735,475.769,110.291,-90.21, , , , , , ,51.471,12.744,-126.914
 13:13:11.257,eb:33:2e:f9:57:b5, 2015-01-01 00:57:41.635,1.048,0.776,2.113,498.718,59.753,-100.952, , , , , , ,53.926,13.381,-126.865
 13:13:11.257,eb:33:2e:f9:57:b5, 2015-01-01 00:57:41.635,1.511,0.627,2.085,501.221,10.254,-133.362, , , , , , ,56.382,13.947,-127.106
 13:13:11.257,eb:33:2e:f9:57:b5, 2015-01-01 00:57:41.635,1.577,-0.178,2.025,472.29,2.991,-160.095, , , , , , ,58.711,14.584,-127.507
 13:13:11.257,eb:33:2e:f9:57:b5, 2015-01-01 00:57:41.635,1.304,-0.69,0.724,420.349,-7.812,-187.622, , , , , , ,60.804,15.342,-127.958
 13:13:11.279,eb:33:2e:f9:57:b5, 2015-01-01 00:57:41.635,1.757,-1.509,0.062,373.291,-46.204,-206.665, , , , , , ,62.595,16.144,-128.584
 13:13:11.279,eb:33:2e:f9:57:b5, 2015-01-01 00:57:41.635,0.884,-0.646,-0.31,272.949,-1.587,-217.834, , , , , , ,63.995,17.062,-129.194
 13:13:11.279,eb:33:2e:f9:57:b5, 2015-01-01 00:57:41.635,0.665,-0.487,-0.729,157.959,-29.175,-194.763, , , , , , ,64.858,17.946,-129.732
 13:13:11.279,eb:33:2e:f9:57:b5, 2015-01-01 00:57:41.635,0.481,-0.659,0.363,51.147,-49.927,-177.673, , , , , , ,65.127,18.688,-130.331
 13:13:11.279,eb:33:2e:f9:57:b5, 2015-01-01 00:57:41.635,0.565,-0.974,0.989,-28.748,-60.974,-166.199, , , , , , ,64.918,19.341,-130.99
 13:13:11.279,eb:33:2e:f9:57:b5, 2015-01-01 00:57:41.635,0.677,-1.192,1.291,-93.323,-41.077,-147.339, , , , , , ,64.363,19.929,-131.594
 13:13:11.280,eb:33:2e:f9:57:b5, 2015-01-01 00:57:41.635,0.709,-1.193,1.417,-141.724,-2.563,-129.089, , , , , , ,63.6,20.5,-132.001
 13:13:11.280,eb:33:2e:f9:57:b5, 2015-01-01 00:57:41.635,0.623,-1.042,1.482,-170.105,39.795,-118.042, , , , , , ,62.732,21.094,-132.171
 13:13:11.324,eb:33:2e:f9:57:b5, 2015-01-01 00:57:41.635,0.543,-0.911,1.427,-179.932,73.853,-110.229, , , , , , ,61.848,21.742,-132.166
 13:13:11.324,eb:33:2e:f9:57:b5, 2015-01-01 00:57:41.635,0.492,-0.794,1.183,-178.955,91.98,-101.44, , , , , , ,60.991,22.401,-132.034
 13:13:11.324,eb:33:2e:f9:57:b5, 2015-01-01 00:57:41.635,0.427,-0.743,0.794,-174.255,91.98,-90.942, , , , , , ,60.178,23.044,-131.847
 13:13:11.324,eb:33:2e:f9:57:b5, 2015-01-01 00:57:41.635,0.337,-0.785,0.348,-170.288,76.05,-77.087, , , , , , ,59.387,23.615,-131.666
 13:13:11.324,eb:33:2e:f9:57:b5, 2015-01-01 00:57:41.635,0.311,-0.872,0,-168.64,49.011,-60.181, , , , , , ,58.579,24.055,-131.572
 13:13:11.324,eb:33:2e:f9:57:b5, 2015-01-01 00:57:41.635,0.294,-0.955,-0.068,-169.8,23.071,-40.771, , , , , , ,57.722,24.346,-131.567
 13:13:11.324,eb:33:2e:f9:57:b5, 2015-01-01 00:57:41.635,0.278,-1,0.028,-172.791,1.831,-19.897, , , , , , ,56.849,24.494,-131.605
 13:13:11.324,eb:33:2e:f9:57:b5, 2015-01-01 00:57:41.635,0.292,-1.004,0.159,-175.903,-13.428,0.671, , , , , , ,55.953,24.5,-131.649
 13:13:11.368,eb:33:2e:f9:57:b5, 2015-01-01 00:57:41.970,0.312,-0.99,0.295,-179.138,-21.301,20.447, , , , , , ,55.042,24.395,-131.699
 13:13:11.368,eb:33:2e:f9:57:b5, 2015-01-01 00:57:41.970,0.355,-0.95,0.362,-182.312,-25.146,38.513, , , , , , ,54.119,24.192,-131.71
 13:13:11.368,eb:33:2e:f9:57:b5, 2015-01-01 00:57:41.970,0.375,-0.876,0.387,-185.364,-28.687,54.382, , , , , , ,53.212,23.923,-131.671
 13:13:11.368,eb:33:2e:f9:57:b5, 2015-01-01 00:57:41.970,0.402,-0.795,0.306,-189.209,-36.621,66.223, , , , , , ,52.3,23.577,-131.6
 13:13:11.368,eb:33:2e:f9:57:b5, 2015-01-01 00:57:41.970,0.43,-0.688,0.2,-194.336,-47.485,74.524, , , , , , ,51.361,23.165,-131.545
 13:13:11.368,eb:33:2e:f9:57:b5, 2015-01-01 00:57:41.970,0.444,-0.599,0.121,-200.623,-63.293,80.322, , , , , , ,50.367,22.676,-131.523
 13:13:11.368,eb:33:2e:f9:57:b5, 2015-01-01 00:57:41.970,0.452,-0.529,0.094,-207.886,-79.712,83.069, , , , , , ,49.334,22.126,-131.539
 13:13:11.368,eb:33:2e:f9:57:b5, 2015-01-01 00:57:41.970,0.459,-0.479,0.121,-215.698,-96.68,83.801, , , , , , ,48.246,21.511,-131.594
 13:13:11.414,eb:33:2e:f9:57:b5, 2015-01-01 00:57:41.970,0.45,-0.446,0.201,-224.304,-110.84,82.947, , , , , , ,47.098,20.852,-131.71
 13:13:11.414,eb:33:2e:f9:57:b5, 2015-01-01 00:57:41.970,0.432,-0.421,0.342,-234.009,-119.934,81.482, , , , , , ,45.879,20.143,-131.869
 13:13:11.414,eb:33:2e:f9:57:b5, 2015-01-01 00:57:41.970,0.413,-0.401,0.491,-244.507,-123.779,79.59, , , , , , ,44.621,19.429,-132.034
 13:13:11.414,eb:33:2e:f9:57:b5, 2015-01-01 00:57:41.970,0.402,-0.377,0.627,-255.554,-123.23,77.515, , , , , , ,43.314,18.71,-132.177
 13:13:11.414,eb:33:2e:f9:57:b5, 2015-01-01 00:57:41.970,0.392,-0.346,0.729,-266.785,-120.239,75.134, , , , , , ,41.957,18.007,-132.314
 13:13:11.414,eb:33:2e:f9:57:b5, 2015-01-01 00:57:41.970,0.399,-0.298,0.77,-277.527,-118.225,72.021, , , , , , ,40.54,17.309,-132.446
 13:13:11.414,eb:33:2e:f9:57:b5, 2015-01-01 00:57:41.970,0.411,-0.262,0.792,-287.537,-117.249,68.665, , , , , , ,39.084,16.633,-132.556
 13:13:11.415,eb:33:2e:f9:57:b5, 2015-01-01 00:57:41.970,0.422,-0.217,0.795,-297.729,-119.385,64.27, , , , , , ,37.584,15.963,-132.66
 13:13:11.459,eb:33:2e:f9:57:b5, 2015-01-01 00:57:41.970,0.433,-0.181,0.809,-304.138,-124.146,60.242, , , , , , ,36.046,15.287,-132.781
 13:13:11.459,eb:33:2e:f9:57:b5, 2015-01-01 00:57:41.970,0.441,-0.153,0.831,-308.716,-131.165,56.213, , , , , , ,34.453,14.59,-132.924
 13:13:11.459,eb:33:2e:f9:57:b5, 2015-01-01 00:57:41.970,0.439,-0.136,0.867,-311.768,-139.221,52.49, , , , , , ,32.866,13.876,-133.083
 13:13:11.459,eb:33:2e:f9:57:b5, 2015-01-01 00:57:41.970,0.432,-0.125,0.914,-314.148,-148.01,49.438, , , , , , ,31.256,13.129,-133.248
 13:13:11.459,eb:33:2e:f9:57:b5, 2015-01-01 00:57:41.970,0.421,-0.116,0.981,-315.918,-156.311,47.546, , , , , , ,29.641,12.343,-133.434
 13:13:11.459,eb:33:2e:f9:57:b5, 2015-01-01 00:57:41.970,0.406,-0.114,1.075,-317.932,-163.025,46.814, , , , , , ,27.999,11.519,-133.621
 13:13:11.459,eb:33:2e:f9:57:b5, 2015-01-01 00:57:41.970,0.378,-0.124,1.188,-320.374,-166.626,47.668, , , , , , ,26.367,10.673,-133.792
 13:13:11.459,eb:33:2e:f9:57:b5, 2015-01-01 00:57:41.970,0.344,-0.137,1.298,-322.449,-167.114,51.27, , , , , , ,24.73,9.811,-133.923
 13:13:11.480,eb:33:2e:f9:57:b5, 2015-01-01 00:57:41.970,0.382,-0.15,1.418,-324.707,-164.673,54.443, , , , , , ,23.099,8.948,-134.022
 13:13:11.480,eb:33:2e:f9:57:b5, 2015-01-01 00:57:41.970,0.39,-0.103,1.4,-325.806,-167.114,58.044, , , , , , ,21.445,8.064,-134.077
 13:13:11.480,eb:33:2e:f9:57:b5, 2015-01-01 00:57:41.970,0.41,-0.092,1.441,-326.416,-169.8,62.256, , , , , , ,19.808,7.169,-134.094
 13:13:11.480,eb:33:2e:f9:57:b5, 2015-01-01 00:57:41.970,0.433,-0.087,1.495,-326.721,-173.157,66.589, , , , , , ,18.177,6.246,-134.055
 13:13:11.480,eb:33:2e:f9:57:b5, 2015-01-01 00:57:41.970,0.46,-0.072,1.587,-326.965,-174.866,70.74, , , , , , ,16.551,5.312,-133.989
 13:13:11.480,eb:33:2e:f9:57:b5, 2015-01-01 00:57:41.970,0.494,-0.053,1.675,-327.087,-175.659,74.829, , , , , , ,14.908,4.356,-133.874
 13:13:11.480,eb:33:2e:f9:57:b5, 2015-01-01 00:57:41.970,0.537,-0.021,1.735,-326.904,-177.49,78.064, , , , , , ,13.282,3.406,-133.72
 13:13:11.480,eb:33:2e:f9:57:b5, 2015-01-01 00:57:41.970,0.585,0.012,1.763,-326.66,-181.702,80.444, , , , , , ,11.656,2.444,-133.517
 13:13:11.527,eb:33:2e:f9:57:b5, 2015-01-01 00:57:41.970,0.629,0.042,1.781,-326.599,-188.538,81.848, , , , , , ,10.031,1.456,-133.292
 13:13:11.527,eb:33:2e:f9:57:b5, 2015-01-01 00:57:41.970,0.674,0.066,1.827,-326.782,-197.327,82.642, , , , , , ,8.383,0.423,-133.044
 13:13:11.527,eb:33:2e:f9:57:b5, 2015-01-01 00:57:41.970,0.714,0.09,1.938,-326.965,-205.811,82.764, , , , , , ,6.746,-0.632,-132.764
 13:13:11.527,eb:33:2e:f9:57:b5, 2015-01-01 00:57:41.970,0.751,0.116,2.083,-327.332,-212.891,82.764, , , , , , ,5.103,-1.719,-132.457
 13:13:11.527,eb:33:2e:f9:57:b5, 2015-01-01 00:57:41.970,0.772,0.142,2.248,-328.613,-217.407,83.374, , , , , , ,3.45,-2.829,-132.122
 13:13:11.527,eb:33:2e:f9:57:b5, 2015-01-01 00:57:41.970,0.794,0.172,2.41,-331.116,-219.971,85.632, , , , , , ,1.758,-3.955,-131.748
 13:13:11.527,eb:33:2e:f9:57:b5, 2015-01-01 00:57:41.970,0.803,0.204,2.578,-334.412,-219.36,89.844, , , , , , ,0.06,-5.059,-131.325
 13:13:11.527,eb:33:2e:f9:57:b5, 2015-01-01 00:57:41.970,0.815,0.282,2.69,-337.341,-219.482,95.703, , , , , , ,-1.664,-6.152,-130.836
 13:13:11.572,eb:33:2e:f9:57:b5, 2015-01-01 00:57:41.970,0.795,0.392,2.784,-337.402,-218.811,102.966, , , , , , ,-3.417,-7.224,-130.287
 13:13:11.572,eb:33:2e:f9:57:b5, 2015-01-01 00:57:41.970,0.676,0.582,2.796,-333.923,-219.91,108.459, , , , , , ,-5.202,-8.289,-129.666
 13:13:11.572,eb:33:2e:f9:57:b5, 2015-01-01 00:57:41.970,0.434,0.758,2.634,-322.388,-230.652,109.802, , , , , , ,-6.943,-9.344,-128.996
 13:13:11.572,eb:33:2e:f9:57:b5, 2015-01-01 00:57:41.970,0.27,0.939,2.327,-303.65,-264.038,107.727, , , , , , ,-8.624,-10.508,-128.271
 13:13:11.572,eb:33:2e:f9:57:b5, 2015-01-01 00:57:41.970,0.098,1.162,2.467,-287.903,-293.762,106.079, , , , , , ,-10.245,-11.816,-127.496
 13:13:11.572,eb:33:2e:f9:57:b5, 2015-01-01 00:57:41.970,-0.169,1.298,2.841,-277.71,-302.551,107.239, , , , , , ,-11.849,-13.206,-126.667
 13:13:11.572,eb:33:2e:f9:57:b5, 2015-01-01 00:57:41.970,-0.403,1.366,3.167,-270.813,-295.715,110.291, , , , , , ,-13.431,-14.546,-125.782
 13:13:11.572,eb:33:2e:f9:57:b5, 2015-01-01 00:57:41.970,-0.613,1.391,3.427,-266.113,-272.949,116.211, , , , , , ,-15.013,-15.782,-124.849
 13:13:11.617,eb:33:2e:f9:57:b5, 2015-01-01 00:57:41.970,-0.988,1.467,3.503,-262.268,-239.319,123.169, , , , , , ,-16.6,-16.831,-123.887
 13:13:11.617,eb:33:2e:f9:57:b5, 2015-01-01 00:57:41.970,-1.176,1.646,3.185,-255.371,-217.224,130.798, , , , , , ,-18.204,-17.726,-122.893
 13:13:11.617,eb:33:2e:f9:57:b5, 2015-01-01 00:57:41.970,-1.165,1.957,2.961,-245.911,-186.646,139.221, , , , , , ,-19.77,-18.452,-121.871
 13:13:11.617,eb:33:2e:f9:57:b5, 2015-01-01 00:57:41.970,-1.084,2.393,2.871,-237.793,-149.109,143.311, , , , , , ,-21.302,-18.973,-120.866
 13:13:11.617,eb:33:2e:f9:57:b5, 2015-01-01 00:57:41.970,-1.078,3.007,2.731,-226.013,-107.056,141.052, , , , , , ,-22.769,-19.281,-119.921
 13:13:11.617,eb:33:2e:f9:57:b5, 2015-01-01 00:57:41.970,-1.284,3.681,2.369,-205.566,-73.853,131.775, , , , , , ,-24.131,-19.407,-119.075
 13:13:11.617,eb:33:2e:f9:57:b5, 2015-01-01 00:57:41.970,-1.705,4.306,1.756,-172.607,-61.951,117.737, , , , , , ,-25.312,-19.446,-118.334
 13:13:11.617,eb:33:2e:f9:57:b5, 2015-01-01 00:57:41.970,-2.126,4.818,1.135,-126.465,-73.914,102.783, , , , , , ,-26.268,-19.512,-117.664
 13:13:11.639,eb:33:2e:f9:57:b5, 2015-01-01 00:57:42.285,-2.428,5.15,0.97,-68.97,-93.872,87.769, , , , , , ,-26.949,-19.688,-117.01
 13:13:11.639,eb:33:2e:f9:57:b5, 2015-01-01 00:57:42.285,-2.576,5.195,1.32,-3.113,-104.675,72.266, , , , , , ,-27.312,-19.962,-116.389
 13:13:11.639,eb:33:2e:f9:57:b5, 2015-01-01 00:57:42.285,-2.501,4.841,1.891,65.918,-104.614,54.138, , , , , , ,-27.312,-20.292,-115.834
 13:13:11.639,eb:33:2e:f9:57:b5, 2015-01-01 00:57:42.285,-2.391,4.229,2.291,114.868,-59.021,41.443, , , , , , ,-26.971,-20.522,-115.428
 13:13:11.639,eb:33:2e:f9:57:b5, 2015-01-01 00:57:42.285,-0.239,3.533,2.466,147.461,-6.348,29.541, , , , , , ,-26.384,-20.561,-115.192
 13:13:11.639,eb:33:2e:f9:57:b5, 2015-01-01 00:57:42.285,-3.241,3.544,9.537,276.306,288.391,-32.104, , , , , , ,-25.01,-20.314,-115.455
 13:13:11.640,eb:33:2e:f9:57:b5, 2015-01-01 00:57:42.285,1.731,2.641,0.048,292.114,196.472,-96.13, , , , , , ,-23.302,-19.039,-116.378
 13:13:11.640,eb:33:2e:f9:57:b5, 2015-01-01 00:57:42.285,0.524,-0.71,2.497,291.809,360.352,-40.771, , , , , , ,-21.522,-17.946,-117.268
 13:13:11.683,eb:33:2e:f9:57:b5, 2015-01-01 00:57:42.285,0.532,-0.507,1.136,303.955,360.229,-33.386, , , , , , ,-19.775,-16.287,-118.147
 13:13:11.683,eb:33:2e:f9:57:b5, 2015-01-01 00:57:42.285,0.289,-1.107,1.101,323.425,333.496,-30.273, , , , , , ,-17.996,-14.738,-118.894
 13:13:11.683,eb:33:2e:f9:57:b5, 2015-01-01 00:57:42.285,0.461,-1.317,1.205,337.219,288.086,-11.108, , , , , , ,-16.188,-13.271,-119.432
 13:13:11.683,eb:33:2e:f9:57:b5, 2015-01-01 00:57:42.285,0.287,-0.746,1.649,321.533,268.433,-2.258, , , , , , ,-14.464,-11.931,-119.833
 13:13:11.683,eb:33:2e:f9:57:b5, 2015-01-01 00:57:42.285,-0.224,-0.064,1.438,299.744,250.671,0.427, , , , , , ,-12.854,-10.668,-120.146
 13:13:11.683,eb:33:2e:f9:57:b5, 2015-01-01 00:57:42.285,-0.875,0.239,1.349,270.935,227.6,1.16, , , , , , ,-11.398,-9.52,-120.399
 13:13:11.683,eb:33:2e:f9:57:b5, 2015-01-01 00:57:42.285,-0.711,0.283,1.043,241.943,191.589,-4.761, , , , , , ,-10.091,-8.498,-120.602
 13:13:11.683,eb:33:2e:f9:57:b5, 2015-01-01 00:57:42.285,-0.368,0.252,1.075,214.539,145.996,-2.808, , , , , , ,-8.943,-7.685,-120.756
 13:13:11.729,eb:33:2e:f9:57:b5, 2015-01-01 00:57:42.285,-0.165,0.428,1.344,177.185,125.61,-11.292, , , , , , ,-7.971,-7.031,-120.91
 13:13:11.729,eb:33:2e:f9:57:b5, 2015-01-01 00:57:42.285,0.151,0.431,1.732,139.343,129.395,-14.282, , , , , , ,-7.174,-6.4,-121.064
 13:13:11.729,eb:33:2e:f9:57:b5, 2015-01-01 00:57:42.285,-0.178,0.187,1.544,120.422,132.324,-8.301, , , , , , ,-6.526,-5.768,-121.201
 13:13:11.729,eb:33:2e:f9:57:b5, 2015-01-01 00:57:42.285,-0.426,0.108,1.192,112,127.197,-10.437, , , , , , ,-5.944,-5.109,-121.322
 13:13:11.729,eb:33:2e:f9:57:b5, 2015-01-01 00:57:42.285,-0.283,0.087,0.881,103.333,102.295,-8.911, , , , , , ,-5.4,-4.554,-121.426
 13:13:11.729,eb:33:2e:f9:57:b5, 2015-01-01 00:57:42.285,-0.113,-0.051,0.85,97.473,75.317,-0.183, , , , , , ,-4.889,-4.125,-121.487
 13:13:11.729,eb:33:2e:f9:57:b5, 2015-01-01 00:57:42.285,-0.07,-0.062,0.886,91.98,53.65,4.7, , , , , , ,-4.417,-3.818,-121.498
 13:13:11.729,eb:33:2e:f9:57:b5, 2015-01-01 00:57:42.285,0,-0.02,0.889,87.708,38.574,5.432, , , , , , ,-3.972,-3.598,-121.481
 13:13:11.774,eb:33:2e:f9:57:b5, 2015-01-01 00:57:42.285,0.05,-0.052,0.866,84.106,33.813,7.568, , , , , , ,-3.543,-3.422,-121.465
 13:13:11.774,eb:33:2e:f9:57:b5, 2015-01-01 00:57:42.285,0.112,0.063,0.84,72.998,32.776,14.465, , , , , , ,-3.153,-3.246,-121.415
 13:13:11.774,eb:33:2e:f9:57:b5, 2015-01-01 00:57:42.285,0.072,0.27,0.908,53.162,38.818,17.578, , , , , , ,-2.845,-3.06,-121.339
 13:13:11.774,eb:33:2e:f9:57:b5, 2015-01-01 00:57:42.285,-0.057,0.327,0.907,39.917,43.64,17.029, , , , , , ,-2.626,-2.851,-121.262
 13:13:11.774,eb:33:2e:f9:57:b5, 2015-01-01 00:57:42.285,-0.076,0.222,0.871,26.184,44.006,14.832, , , , , , ,-2.477,-2.615,-121.19
 13:13:11.774,eb:33:2e:f9:57:b5, 2015-01-01 00:57:42.285,-0.03,0.129,0.899,20.63,36.255,13.672, , , , , , ,-2.357,-2.417,-121.13
 13:13:11.774,eb:33:2e:f9:57:b5, 2015-01-01 00:57:42.285,-0.049,0.097,0.934,17.395,32.043,11.536, , , , , , ,-2.263,-2.252,-121.069
 13:13:11.774,eb:33:2e:f9:57:b5, 2015-01-01 00:57:42.285,-0.098,0.072,0.993,14.832,28.32,9.705, , , , , , ,-2.186,-2.098,-121.02
 13:13:11.819,eb:33:2e:f9:57:b5, 2015-01-01 00:57:42.285,-0.106,0.023,0.968,14.038,22.095,9.155, , , , , , ,-2.115,-1.972,-120.976
 13:13:11.819,eb:33:2e:f9:57:b5, 2015-01-01 00:57:42.285,-0.074,0.009,0.953,14.282,13.55,8.179, , , , , , ,-2.043,-1.884,-120.932
 13:13:11.819,eb:33:2e:f9:57:b5, 2015-01-01 00:57:42.285,-0.005,0.024,0.973,14.343,6.958,5.676, , , , , , ,-1.972,-1.835,-120.899
 13:13:11.819,eb:33:2e:f9:57:b5, 2015-01-01 00:57:42.285,0.029,0.031,1.004,13.245,5.737,4.578, , , , , , ,-1.901,-1.802,-120.877
 13:13:11.819,eb:33:2e:f9:57:b5, 2015-01-01 00:57:42.285,0.016,0.034,1.025,11.841,6.775,3.784, , , , , , ,-1.84,-1.774,-120.855
 13:13:11.819,eb:33:2e:f9:57:b5, 2015-01-01 00:57:42.285,-0.028,0.019,1.023,10.437,8.057,4.028, , , , , , ,-1.78,-1.725,-120.839
 13:13:11.819,eb:33:2e:f9:57:b5, 2015-01-01 00:57:42.285,-0.063,0.008,1.023,10.376,6.409,2.747, , , , , , ,-1.73,-1.692,-120.822
 13:13:11.819,eb:33:2e:f9:57:b5, 2015-01-01 00:57:42.285,-0.038,-0.01,1.002,11.047,2.38,1.587, , , , , , ,-1.675,-1.67,-120.811
 13:13:11.841,eb:33:2e:f9:57:b5, 2015-01-01 00:57:42.285,-0.026,-0.012,1.036,12.512,-0.488,1.038, , , , , , ,-1.615,-1.67,-120.806
 13:13:11.841,eb:33:2e:f9:57:b5, 2015-01-01 00:57:42.285,-0.009,-0.003,1.048,12.695,-1.648,-0.061, , , , , , ,-1.544,-1.675,-120.8
 13:13:11.841,eb:33:2e:f9:57:b5, 2015-01-01 00:57:42.285,-0.008,-0.011,1.04,13.428,-2.502,0.427, , , , , , ,-1.478,-1.681,-120.8
 13:13:11.841,eb:33:2e:f9:57:b5, 2015-01-01 00:57:42.285,-0.022,-0.01,1.021,13.977,-3.113,0.732, , , , , , ,-1.412,-1.697,-120.795
 13:13:11.841,eb:33:2e:f9:57:b5, 2015-01-01 00:57:42.285,-0.019,0.01,0.994,13.428,-4.517,0.122, , , , , , ,-1.346,-1.719,-120.795
 13:13:11.841,eb:33:2e:f9:57:b5, 2015-01-01 00:57:42.285,-0.006,0.005,0.978,12.817,-5.981,-0.244, , , , , , ,-1.269,-1.741,-120.795
 13:13:11.841,eb:33:2e:f9:57:b5, 2015-01-01 00:57:42.285,0.015,0.004,0.978,12.207,-6.775,-0.549, , , , , , ,-1.208,-1.774,-120.795
 13:13:11.841,eb:33:2e:f9:57:b5, 2015-01-01 00:57:42.285,0.028,0.001,0.988,11.658,-6.348,-0.366, , , , , , ,-1.148,-1.807,-120.795
 13:13:11.886,eb:33:2e:f9:57:b5, 2015-01-01 00:57:42.285,0.018,0.018,1.013,10.254,-4.578,-0.671, , , , , , ,-1.093,-1.835,-120.795
 13:13:11.886,eb:33:2e:f9:57:b5, 2015-01-01 00:57:42.285,0.014,0.013,1.014,9.521,-4.028,-0.854, , , , , , ,-1.038,-1.851,-120.8
 13:13:11.886,eb:33:2e:f9:57:b5, 2015-01-01 00:57:42.285,0.021,0.005,1.013,9.521,-4.395,-0.366, , , , , , ,-0.989,-1.873,-120.806
 13:13:11.886,eb:33:2e:f9:57:b5, 2015-01-01 00:57:42.285,0.018,0.007,1.022,9.46,-3.723,-0.366, , , , , , ,-0.945,-1.89,-120.806
 13:13:11.886,eb:33:2e:f9:57:b5, 2015-01-01 00:57:42.285,0.031,0.008,1.018,9.338,-3.418,-0.793, , , , , , ,-0.895,-1.912,-120.806
 13:13:11.886,eb:33:2e:f9:57:b5, 2015-01-01 00:57:42.285,0.033,0.006,1.03,9.155,-1.709,-1.221, , , , , , ,-0.846,-1.917,-120.811
 13:13:11.886,eb:33:2e:f9:57:b5, 2015-01-01 00:57:42.285,0.04,0.007,1.027,8.972,-0.183,-1.77, , , , , , ,-0.797,-1.923,-120.817
 13:13:11.886,eb:33:2e:f9:57:b5, 2015-01-01 00:57:42.285,0.034,0.011,1.034,8.789,2.014,-2.502, , , , , , ,-0.753,-1.917,-120.828
 13:13:11.933,eb:33:2e:f9:57:b5, 2015-01-01 00:57:42.285,0.021,0.007,1.031,8.545,3.906,-2.808, , , , , , ,-0.709,-1.901,-120.844
 13:13:11.933,eb:33:2e:f9:57:b5, 2015-01-01 00:57:42.285,0.035,0.004,1.02,8.362,4.761,-3.235, , , , , , ,-0.659,-1.873,-120.861
 13:13:11.933,eb:33:2e:f9:57:b5, 2015-01-01 00:57:42.285,0.033,0.007,1.035,8.179,6.653,-3.54, , , , , , ,-0.615,-1.846,-120.877
 13:13:11.933,eb:33:2e:f9:57:b5, 2015-01-01 00:57:42.285,0.034,0.006,1.036,8.728,7.935,-3.601, , , , , , ,-0.577,-1.807,-120.894
 13:13:11.933,eb:33:2e:f9:57:b5, 2015-01-01 00:57:42.285,0.035,0.013,1.023,8.301,10.193,-3.418, , , , , , ,-0.533,-1.763,-120.91
 13:13:11.933,eb:33:2e:f9:57:b5, 2015-01-01 00:57:42.285,0.021,0.019,1.014,7.629,12.512,-3.418, , , , , , ,-0.483,-1.703,-120.927
 13:13:11.933,eb:33:2e:f9:57:b5, 2015-01-01 00:57:42.285,0.017,0.016,0.997,6.897,13.977,-3.845, , , , , , ,-0.445,-1.631,-120.948
 13:13:11.933,eb:33:2e:f9:57:b5, 2015-01-01 00:57:42.285,0.026,0.019,0.988,6.165,15.564,-3.967, , , , , , ,-0.412,-1.56,-120.965
 13:13:11.977,eb:33:2e:f9:57:b5, 2015-01-01 00:57:42.595,0.02,0.019,1.003,5.676,18.127,-4.211, , , , , , ,-0.385,-1.478,-120.987
 13:13:11.977,eb:33:2e:f9:57:b5, 2015-01-01 00:57:42.595,-0.007,0.007,1.003,5.798,19.592,-3.723, , , , , , ,-0.352,-1.373,-121.009
 13:13:11.977,eb:33:2e:f9:57:b5, 2015-01-01 00:57:42.595,-0.004,-0.01,0.974,7.263,16.479,-2.38, , , , , , ,-0.313,-1.285,-121.02
 13:13:11.977,eb:33:2e:f9:57:b5, 2015-01-01 00:57:42.595,-0.01,-0.001,0.971,8.667,13.489,-1.526, , , , , , ,-0.275,-1.214,-121.031
 13:13:11.977,eb:33:2e:f9:57:b5, 2015-01-01 00:57:42.595,-0.006,0.009,0.959,10.01,9.521,-1.587, , , , , , ,-0.225,-1.159,-121.036
 13:13:11.977,eb:33:2e:f9:57:b5, 2015-01-01 00:57:42.595,-0.004,0.011,0.971,10.681,7.141,-2.075, , , , , , ,-0.165,-1.115,-121.047
 13:13:11.977,eb:33:2e:f9:57:b5, 2015-01-01 00:57:42.595,-0.001,0.016,0.975,10.62,6.226,-2.441, , , , , , ,-0.115,-1.082,-121.058
 13:13:11.977,eb:33:2e:f9:57:b5, 2015-01-01 00:57:42.595,0,0.018,0.982,10.498,5.92,-2.869, , , , , , ,-0.06,-1.049,-121.069
 13:13:12.021,eb:33:2e:f9:57:b5, 2015-01-01 00:57:42.595,0.001,0.017,0.988,10.437,5.798,-3.113, , , , , , ,-0.005,-1.022,-121.086
 13:13:12.021,eb:33:2e:f9:57:b5, 2015-01-01 00:57:42.595,0.005,0.019,0.99,10.681,5.554,-3.235, , , , , , ,0.044,-0.989,-121.102
 13:13:12.021,eb:33:2e:f9:57:b5, 2015-01-01 00:57:42.595,0.007,0.02,0.994,10.925,5.92,-2.991, , , , , , ,0.099,-0.961,-121.113
 13:13:12.021,eb:33:2e:f9:57:b5, 2015-01-01 00:57:42.595,0.003,0.021,0.997,10.803,6.836,-2.93, , , , , , ,0.154,-0.928,-121.13
 13:13:12.021,eb:33:2e:f9:57:b5, 2015-01-01 00:57:42.595,-0.016,0.025,0.991,10.437,7.568,-2.869, , , , , , ,0.209,-0.89,-121.141
 13:13:12.021,eb:33:2e:f9:57:b5, 2015-01-01 00:57:42.595,-0.004,0.012,0.967,11.047,5.249,-1.648, , , , , , ,0.269,-0.851,-121.152
 13:13:12.021,eb:33:2e:f9:57:b5, 2015-01-01 00:57:42.595,-0.003,0.028,0.986,11.719,3.967,-2.136, , , , , , ,0.33,-0.835,-121.163
 13:13:12.021,eb:33:2e:f9:57:b5, 2015-01-01 00:57:42.595,-0.014,0.038,0.978,10.742,5.493,-2.991, , , , , , ,0.385,-0.807,-121.174
 13:13:12.043,eb:33:2e:f9:57:b5, 2015-01-01 00:57:42.595,0.003,0.031,0.97,10.315,5.188,-3.113, , , , , , ,0.434,-0.786,-121.19
 13:13:12.043,eb:33:2e:f9:57:b5, 2015-01-01 00:57:42.595,-0.001,0.039,0.982,9.888,6.714,-3.601, , , , , , ,0.494,-0.747,-121.207
 13:13:12.043,eb:33:2e:f9:57:b5, 2015-01-01 00:57:42.595,0.007,0.036,0.984,9.705,7.385,-4.456, , , , , , ,0.544,-0.714,-121.223
 13:13:12.043,eb:33:2e:f9:57:b5, 2015-01-01 00:57:42.595,-0.002,0.044,1,8.789,9.216,-5.432, , , , , , ,0.588,-0.67,-121.245
 13:13:12.043,eb:33:2e:f9:57:b5, 2015-01-01 00:57:42.595,0.008,0.031,1.004,9.277,8.667,-5.432, , , , , , ,0.632,-0.626,-121.273
 13:13:12.043,eb:33:2e:f9:57:b5, 2015-01-01 00:57:42.595,0.024,0.016,1.013,10.864,8.667,-4.028, , , , , , ,0.692,-0.577,-121.295
 13:13:12.043,eb:33:2e:f9:57:b5, 2015-01-01 00:57:42.595,0.027,0.029,1.029,11.719,10.254,-3.54, , , , , , ,0.753,-0.527,-121.311
 13:13:12.043,eb:33:2e:f9:57:b5, 2015-01-01 00:57:42.595,0.032,0.042,1.036,12.268,12.085,-4.272, , , , , , ,0.807,-0.472,-121.333
 13:13:12.089,eb:33:2e:f9:57:b5, 2015-01-01 00:57:42.595,0.029,0.032,1.051,13.184,14.587,-4.639, , , , , , ,0.873,-0.406,-121.349
 13:13:12.089,eb:33:2e:f9:57:b5, 2015-01-01 00:57:42.595,0.013,0.029,1.045,13.794,17.395,-4.7, , , , , , ,0.95,-0.319,-121.371
 13:13:12.089,eb:33:2e:f9:57:b5, 2015-01-01 00:57:42.595,0.004,0.03,1.029,14.526,18.921,-4.761, , , , , , ,1.022,-0.225,-121.399
 13:13:12.089,eb:33:2e:f9:57:b5, 2015-01-01 00:57:42.595,0.003,0.034,1.02,15.259,20.264,-4.883, , , , , , ,1.093,-0.126,-121.415
 13:13:12.089,eb:33:2e:f9:57:b5, 2015-01-01 00:57:42.595,-0.01,0.034,1.025,15.747,22.034,-5.005, , , , , , ,1.176,-0.022,-121.437
 13:13:12.089,eb:33:2e:f9:57:b5, 2015-01-01 00:57:42.595,-0.014,0.042,1.011,15.869,23.56,-5.554, , , , , , ,1.258,0.093,-121.465
 13:13:12.089,eb:33:2e:f9:57:b5, 2015-01-01 00:57:42.595,-0.02,0.042,1.012,16.174,25.024,-6.165, , , , , , ,1.34,0.214,-121.492
 13:13:12.089,eb:33:2e:f9:57:b5, 2015-01-01 00:57:42.595,-0.021,0.033,1.01,17.212,25.269,-6.592, , , , , , ,1.423,0.341,-121.514
 13:13:12.156,eb:33:2e:f9:57:b5, 2015-01-01 00:57:42.595,-0.031,0.031,1.014,18.372,25.391,-6.531, , , , , , ,1.511,0.472,-121.547
 13:13:12.156,eb:33:2e:f9:57:b5, 2015-01-01 00:57:42.595,-0.021,0.039,1.012,19.47,24.963,-6.775, , , , , , ,1.615,0.599,-121.575
 13:13:12.156,eb:33:2e:f9:57:b5, 2015-01-01 00:57:42.595,-0.024,0.042,1.032,20.447,25.33,-7.141, , , , , , ,1.714,0.725,-121.608
 13:13:12.156,eb:33:2e:f9:57:b5, 2015-01-01 00:57:42.595,-0.035,0.045,1.035,21.301,25.879,-7.69, , , , , , ,1.818,0.857,-121.641
 13:13:12.156,eb:33:2e:f9:57:b5, 2015-01-01 00:57:42.595,-0.017,0.048,1.05,23.01,24.536,-8.301, , , , , , ,1.928,0.983,-121.674
 13:13:12.156,eb:33:2e:f9:57:b5, 2015-01-01 00:57:42.595,-0.033,0.02,1.157,25.452,26.611,-8.606, , , , , , ,2.054,1.121,-121.712
 13:13:12.156,eb:33:2e:f9:57:b5, 2015-01-01 00:57:42.595,-0.01,0.032,1.105,28.015,25.757,-8.728, , , , , , ,2.192,1.252,-121.75
 13:13:12.156,eb:33:2e:f9:57:b5, 2015-01-01 00:57:42.595,-0.009,0.043,1.148,30.518,26.367,-8.972, , , , , , ,2.34,1.379,-121.789
 13:13:12.179,eb:33:2e:f9:57:b5, 2015-01-01 00:57:42.595,0.025,0.035,1.164,32.898,27.832,-8.789, , , , , , ,2.499,1.522,-121.827
 13:13:12.179,eb:33:2e:f9:57:b5, 2015-01-01 00:57:42.595,0.062,0.066,1.147,34.546,30.579,-9.705, , , , , , ,2.67,1.67,-121.866
 13:13:12.179,eb:33:2e:f9:57:b5, 2015-01-01 00:57:42.595,0.039,0.057,1.263,36.133,37.17,-11.536, , , , , , ,2.845,1.846,-121.91
 13:13:12.179,eb:33:2e:f9:57:b5, 2015-01-01 00:57:42.595,-0.042,0.039,1.185,38.269,41.687,-11.047, , , , , , ,3.032,2.049,-121.954
 13:13:12.179,eb:33:2e:f9:57:b5, 2015-01-01 00:57:42.595,-0.061,0.023,1.167,41.687,40.833,-10.681, , , , , , ,3.235,2.258,-121.998
 13:13:12.179,eb:33:2e:f9:57:b5, 2015-01-01 00:57:42.595,-0.105,-0.016,1.202,46.448,40.771,-7.69, , , , , , ,3.461,2.472,-122.031
 13:13:12.179,eb:33:2e:f9:57:b5, 2015-01-01 00:57:42.595,-0.042,-0.023,1.184,51.27,37.781,-5.859, , , , , , ,3.708,2.664,-122.053
 13:13:12.179,eb:33:2e:f9:57:b5, 2015-01-01 00:57:42.595,-0.086,0.07,1.084,54.443,32.288,-6.714, , , , , , ,3.972,2.84,-122.069
 13:13:12.224,eb:33:2e:f9:57:b5, 2015-01-01 00:57:42.595,-0.123,0.047,1.284,60.12,30.823,-6.653, , , , , , ,4.257,2.994,-122.091
 13:13:12.224,eb:33:2e:f9:57:b5, 2015-01-01 00:57:42.595,-0.011,-0.113,1.616,71.167,34.79,-2.808, , , , , , ,4.598,3.164,-122.102
 13:13:12.224,eb:33:2e:f9:57:b5, 2015-01-01 00:57:42.595,-0.008,0.028,1.361,80.505,37.109,-3.723, , , , , , ,4.982,3.351,-122.102
 13:13:12.224,eb:33:2e:f9:57:b5, 2015-01-01 00:57:42.595,0.096,0.078,1.354,88.745,37.17,-7.996, , , , , , ,5.411,3.532,-122.108
 13:13:12.224,eb:33:2e:f9:57:b5, 2015-01-01 00:57:42.595,0.094,0.091,1.579,97.168,48.462,-10.559, , , , , , ,5.878,3.752,-122.135
 13:13:12.224,eb:33:2e:f9:57:b5, 2015-01-01 00:57:42.595,0.138,0.11,1.579,107.361,56.702,-15.442, , , , , , ,6.394,4.032,-122.173
 13:13:12.224,eb:33:2e:f9:57:b5, 2015-01-01 00:57:42.595,0.214,0.125,1.645,116.333,61.218,-21.423, , , , , , ,6.954,4.334,-122.239
 13:13:12.224,eb:33:2e:f9:57:b5, 2015-01-01 00:57:42.595,0.248,0.109,1.837,125.366,75.256,-26.917, , , , , , ,7.559,4.691,-122.316
 13:13:12.247,eb:33:2e:f9:57:b5, 2015-01-01 00:57:42.595,0.217,0.063,1.826,134.216,90.881,-29.48, , , , , , ,8.201,5.131,-122.399
 13:13:12.247,eb:33:2e:f9:57:b5, 2015-01-01 00:57:42.595,0.189,0.021,1.846,142.883,106.628,-31.067, , , , , , ,8.899,5.652,-122.476
 13:13:12.247,eb:33:2e:f9:57:b5, 2015-01-01 00:57:42.595,0.165,0.045,1.823,152.1,118.774,-32.288, , , , , , ,9.635,6.246,-122.542
 13:13:12.247,eb:33:2e:f9:57:b5, 2015-01-01 00:57:42.595,0.135,0.04,1.734,164.978,124.939,-32.532, , , , , , ,10.426,6.877,-122.585
 13:13:12.248,eb:33:2e:f9:57:b5, 2015-01-01 00:57:42.595,0.091,0.069,1.68,178.833,125.916,-34.607, , , , , , ,11.283,7.526,-122.635
 13:13:12.248,eb:33:2e:f9:57:b5, 2015-01-01 00:57:42.595,-0.014,-0.019,1.673,193.604,125.671,-34.424, , , , , , ,12.222,8.179,-122.679
 13:13:12.248,eb:33:2e:f9:57:b5, 2015-01-01 00:57:42.595,-0.064,-0.087,1.751,206.116,120.3,-34.18, , , , , , ,13.228,8.817,-122.706
 13:13:12.248,eb:33:2e:f9:57:b5, 2015-01-01 00:57:42.595,-0.007,-0.267,2.025,221.497,123.474,-29.419, , , , , , ,14.299,9.448,-122.717
 13:13:12.314,eb:33:2e:f9:57:b5, 2015-01-01 00:57:42.595,0.021,-0.197,1.963,239.624,120.667,-24.536, , , , , , ,15.463,10.074,-122.684
 13:13:12.314,eb:33:2e:f9:57:b5, 2015-01-01 00:57:42.595,0.122,-0.028,1.894,259.277,102.051,-26.733, , , , , , ,16.732,10.64,-122.651
 13:13:12.314,eb:33:2e:f9:57:b5, 2015-01-01 00:57:42.595,-0.028,-0.092,1.986,280.701,91.675,-28.381, , , , , , ,18.094,11.135,-122.64
 13:13:12.314,eb:33:2e:f9:57:b5, 2015-01-01 00:57:42.595,0.035,-0.118,2.172,306.274,80.017,-38.269, , , , , , ,19.567,11.596,-122.651
 13:13:12.314,eb:33:2e:f9:57:b5, 2015-01-01 00:57:42.595,-0.014,-0.32,2.414,331.299,83.74,-40.71, , , , , , ,21.16,12.047,-122.706
 13:13:12.314,eb:33:2e:f9:57:b5, 2015-01-01 00:57:42.595,0.09,-0.217,2.185,359.009,69.031,-46.387, , , , , , ,22.896,12.486,-122.761
 13:13:12.314,eb:33:2e:f9:57:b5, 2015-01-01 00:57:42.595,0.246,-0.157,2.479,383.85,56.824,-56.213, , , , , , ,24.736,12.87,-122.882
 13:13:12.314,eb:33:2e:f9:57:b5, 2015-01-01 00:57:42.595,0.34,-0.272,2.809,408.752,65.796,-59.875, , , , , , ,26.697,13.271,-123.008
 13:13:12.336,eb:33:2e:f9:57:b5, 2015-01-01 00:57:42.930,0.312,-0.126,2.849,426.636,77.576,-67.2, , , , , , ,28.779,13.738,-123.124
 13:13:12.336,eb:33:2e:f9:57:b5, 2015-01-01 00:57:42.930,0.612,-0.215,3.381,436.34,97.9,-77.026, , , , , , ,30.91,14.304,-123.234
 13:13:12.336,eb:33:2e:f9:57:b5, 2015-01-01 00:57:42.930,0.893,-0.248,3.482,445.496,130.676,-78.064, , , , , , ,33.124,15.007,-123.245
 13:13:12.336,eb:33:2e:f9:57:b5, 2015-01-01 00:57:42.930,0.628,-0.135,3.148,445.557,151.978,-78.491, , , , , , ,35.376,15.82,-123.151
 13:13:12.337,eb:33:2e:f9:57:b5, 2015-01-01 00:57:42.930,1.159,0.195,3.412,450.195,164.795,-87.891, , , , , , ,37.656,16.721,-122.997
 13:13:12.337,eb:33:2e:f9:57:b5, 2015-01-01 00:57:42.930,1.034,0.18,2.955,459.839,155.701,-97.595, , , , , , ,39.974,17.639,-122.849
 13:13:12.337,eb:33:2e:f9:57:b5, 2015-01-01 00:57:42.930,1.112,0.865,2.531,473.572,121.277,-117.737, , , , , , ,42.33,18.506,-122.811
 13:13:12.337,eb:33:2e:f9:57:b5, 2015-01-01 00:57:42.930,1.162,0.792,3.289,466.797,119.934,-137.451, , , , , , ,44.659,19.374,-122.888
 13:13:12.381,eb:33:2e:f9:57:b5, 2015-01-01 00:57:42.930,1.09,0.077,3.882,449.646,167.725,-141.907, , , , , , ,46.956,20.391,-122.844
 13:13:12.381,eb:33:2e:f9:57:b5, 2015-01-01 00:57:42.930,1.53,-0.359,3.434,442.749,199.341,-149.231, , , , , , ,49.257,21.561,-122.607
 13:13:12.381,eb:33:2e:f9:57:b5, 2015-01-01 00:57:42.930,1.795,-0.753,3.006,427.063,225.83,-161.438, , , , , , ,51.564,22.841,-122.267
 13:13:12.381,eb:33:2e:f9:57:b5, 2015-01-01 00:57:42.930,1.896,-1.453,1.773,378.845,279.297,-170.593, , , , , , ,53.8,24.291,-121.679
 13:13:12.381,eb:33:2e:f9:57:b5, 2015-01-01 00:57:42.930,1.006,-2.455,-0.444,300.476,287.354,-171.875, , , , , , ,55.778,25.829,-120.948
 13:13:12.381,eb:33:2e:f9:57:b5, 2015-01-01 00:57:42.930,0.534,-1.609,-2.438,187.561,243.958,-119.568, , , , , , ,57.31,27.164,-120.114
 13:13:12.382,eb:33:2e:f9:57:b5, 2015-01-01 00:57:42.930,0.675,-0.861,-1.529,96.558,142.456,-90.332, , , , , , ,58.222,28.07,-119.548
 13:13:12.382,eb:33:2e:f9:57:b5, 2015-01-01 00:57:42.930,0.961,-0.767,-0.428,42.603,42.419,-84.473, , , , , , ,58.601,28.652,-119.388
 13:13:12.405,eb:33:2e:f9:57:b5, 2015-01-01 00:57:42.930,1.012,-0.973,0.115,4.944,-26.917,-81.604, , , , , , ,58.568,28.998,-119.658
 13:13:12.405,eb:33:2e:f9:57:b5, 2015-01-01 00:57:42.930,0.885,-1.149,0.362,-21.912,-51.392,-70.618, , , , , , ,58.282,29.191,-120.108
 13:13:12.405,eb:33:2e:f9:57:b5, 2015-01-01 00:57:42.930,0.757,-1.103,0.79,-37.292,-40.894,-61.401, , , , , , ,57.914,29.344,-120.531
 13:13:12.405,eb:33:2e:f9:57:b5, 2015-01-01 00:57:42.930,0.618,-0.988,1.23,-39.734,-14.343,-52.307, , , , , , ,57.568,29.515,-120.817
 13:13:12.405,eb:33:2e:f9:57:b5, 2015-01-01 00:57:42.930,0.472,-0.878,1.316,-39.062,13.428,-43.335, , , , , , ,57.31,29.718,-120.948
 13:13:12.405,eb:33:2e:f9:57:b5, 2015-01-01 00:57:42.930,0.385,-0.851,0.968,-43.152,30.823,-32.104, , , , , , ,57.09,29.932,-120.948
 13:13:12.405,eb:33:2e:f9:57:b5, 2015-01-01 00:57:42.930,0.349,-0.881,0.467,-54.626,35.278,-18.127, , , , , , ,56.893,30.13,-120.855
 13:13:12.405,eb:33:2e:f9:57:b5, 2015-01-01 00:57:42.930,0.353,-0.907,0.067,-70.251,26.123,-3.052, , , , , , ,56.635,30.251,-120.723
 13:13:12.449,eb:33:2e:f9:57:b5, 2015-01-01 00:57:42.930,0.368,-0.893,-0.109,-85.388,6.165,10.925, , , , , , ,56.277,30.267,-120.635
 13:13:12.449,eb:33:2e:f9:57:b5, 2015-01-01 00:57:42.930,0.395,-0.864,-0.132,-98.022,-17.944,22.583, , , , , , ,55.811,30.163,-120.624
 13:13:12.449,eb:33:2e:f9:57:b5, 2015-01-01 00:57:42.930,0.415,-0.858,-0.094,-108.887,-41.565,34.363, , , , , , ,55.256,29.949,-120.679
 13:13:12.449,eb:33:2e:f9:57:b5, 2015-01-01 00:57:42.930,0.402,-0.83,0.012,-119.873,-57.922,44.495, , , , , , ,54.624,29.636,-120.784
 13:13:12.449,eb:33:2e:f9:57:b5, 2015-01-01 00:57:42.930,0.414,-0.795,0.125,-130.676,-69.702,53.406, , , , , , ,53.926,29.24,-120.921
 13:13:12.449,eb:33:2e:f9:57:b5, 2015-01-01 00:57:42.930,0.405,-0.75,0.243,-142.151,-75.439,60.791, , , , , , ,53.152,28.779,-121.069
 13:13:12.449,eb:33:2e:f9:57:b5, 2015-01-01 00:57:42.930,0.414,-0.706,0.279,-157.227,-79.773,67.81, , , , , , ,52.339,28.284,-121.201
 13:13:12.449,eb:33:2e:f9:57:b5, 2015-01-01 00:57:42.930,0.428,-0.669,0.24,-171.021,-84.839,72.571, , , , , , ,51.454,27.751,-121.311
 13:13:12.493,eb:33:2e:f9:57:b5, 2015-01-01 00:57:42.930,0.456,-0.628,0.191,-186.279,-91.431,75.317, , , , , , ,50.493,27.186,-121.437
 13:13:12.493,eb:33:2e:f9:57:b5, 2015-01-01 00:57:42.930,0.478,-0.61,0.137,-201.538,-101.013,77.637, , , , , , ,49.438,26.57,-121.586
 13:13:12.493,eb:33:2e:f9:57:b5, 2015-01-01 00:57:42.930,0.496,-0.575,0.133,-216.125,-113.22,76.965, , , , , , ,48.307,25.922,-121.756
 13:13:12.493,eb:33:2e:f9:57:b5, 2015-01-01 00:57:42.930,0.498,-0.531,0.18,-229.614,-124.451,74.829, , , , , , ,47.098,25.236,-121.959
 13:13:12.493,eb:33:2e:f9:57:b5, 2015-01-01 00:57:42.930,0.528,-0.481,0.279,-241.516,-135.559,72.693, , , , , , ,45.807,24.516,-122.201
 13:13:12.493,eb:33:2e:f9:57:b5, 2015-01-01 00:57:42.930,0.515,-0.434,0.319,-253.296,-143.372,68.42, , , , , , ,44.44,23.769,-122.481
 13:13:12.493,eb:33:2e:f9:57:b5, 2015-01-01 00:57:42.930,0.521,-0.393,0.377,-263.306,-152.771,63.354, , , , , , ,43.022,23,-122.789
 13:13:12.493,eb:33:2e:f9:57:b5, 2015-01-01 00:57:42.930,0.526,-0.341,0.486,-272.522,-159.302,57.983, , , , , , ,41.55,22.22,-123.107
 13:13:12.539,eb:33:2e:f9:57:b5, 2015-01-01 00:57:42.930,0.509,-0.31,0.563,-280.701,-164.124,52.307, , , , , , ,40.029,21.423,-123.453
 13:13:12.539,eb:33:2e:f9:57:b5, 2015-01-01 00:57:42.930,0.509,-0.287,0.622,-287.17,-171.387,46.143, , , , , , ,38.458,20.61,-123.827
 13:13:12.539,eb:33:2e:f9:57:b5, 2015-01-01 00:57:42.930,0.511,-0.261,0.675,-292.542,-178.833,39.49, , , , , , ,36.87,19.786,-124.222
 13:13:12.539,eb:33:2e:f9:57:b5, 2015-01-01 00:57:42.930,0.511,-0.234,0.711,-297.302,-187.439,32.471, , , , , , ,35.255,18.935,-124.64
 13:13:12.539,eb:33:2e:f9:57:b5, 2015-01-01 00:57:42.930,0.506,-0.208,0.764,-301.208,-196.96,25.269, , , , , , ,33.613,18.062,-125.09
 13:13:12.539,eb:33:2e:f9:57:b5, 2015-01-01 00:57:42.930,0.498,-0.188,0.84,-304.504,-206.421,18.066, , , , , , ,31.932,17.139,-125.579
 13:13:12.539,eb:33:2e:f9:57:b5, 2015-01-01 00:57:42.930,0.477,-0.178,0.929,-307.373,-215.149,11.353, , , , , , ,30.256,16.199,-126.09
 13:13:12.539,eb:33:2e:f9:57:b5, 2015-01-01 00:57:42.930,0.443,-0.18,1.018,-309.57,-223.572,5.92, , , , , , ,28.57,15.216,-126.606
 13:13:12.584,eb:33:2e:f9:57:b5, 2015-01-01 00:57:42.930,0.411,-0.195,1.115,-311.584,-231.14,2.136, , , , , , ,26.878,14.2,-127.139
 13:13:12.584,eb:33:2e:f9:57:b5, 2015-01-01 00:57:42.930,0.367,-0.218,1.224,-313.477,-237.244,0.488, , , , , , ,25.175,13.129,-127.672
 13:13:12.584,eb:33:2e:f9:57:b5, 2015-01-01 00:57:42.930,0.314,-0.25,1.329,-315.247,-242.188,1.282, , , , , , ,23.494,12.03,-128.177
 13:13:12.584,eb:33:2e:f9:57:b5, 2015-01-01 00:57:42.930,0.274,-0.297,1.439,-316.895,-245.789,5.066, , , , , , ,21.819,10.898,-128.633
 13:13:12.584,eb:33:2e:f9:57:b5, 2015-01-01 00:57:42.930,0.241,-0.334,1.561,-317.932,-247.681,11.292, , , , , , ,20.154,9.728,-129.04
 13:13:12.585,eb:33:2e:f9:57:b5, 2015-01-01 00:57:42.930,0.229,-0.361,1.651,-318.359,-249.451,19.47, , , , , , ,18.495,8.514,-129.386
 13:13:12.585,eb:33:2e:f9:57:b5, 2015-01-01 00:57:42.930,0.235,-0.381,1.702,-318.909,-252.319,29.358, , , , , , ,16.864,7.278,-129.65
 13:13:12.585,eb:33:2e:f9:57:b5, 2015-01-01 00:57:42.930,0.252,-0.391,1.761,-319.885,-255.798,39.856, , , , , , ,15.244,6.004,-129.825
 13:13:12.607,eb:33:2e:f9:57:b5, 2015-01-01 00:57:42.930,0.274,-0.394,1.832,-321.655,-259.827,50.903, , , , , , ,13.634,4.697,-129.919
 13:13:12.607,eb:33:2e:f9:57:b5, 2015-01-01 00:57:42.930,0.307,-0.381,1.929,-324.097,-264.099,61.768, , , , , , ,11.997,3.34,-129.935
 13:13:12.607,eb:33:2e:f9:57:b5, 2015-01-01 00:57:42.930,0.349,-0.36,2.06,-327.087,-267.456,72.083, , , , , , ,10.371,1.967,-129.858
 13:13:12.607,eb:33:2e:f9:57:b5, 2015-01-01 00:57:42.930,0.401,-0.317,2.218,-330.078,-269.104,81.421, , , , , , ,8.729,0.577,-129.694
 13:13:12.607,eb:33:2e:f9:57:b5, 2015-01-01 00:57:42.930,0.472,-0.263,2.381,-333.008,-269.409,89.539, , , , , , ,7.07,-0.813,-129.452
 13:13:12.607,eb:33:2e:f9:57:b5, 2015-01-01 00:57:42.930,0.532,-0.207,2.567,-335.876,-269.165,96.985, , , , , , ,5.367,-2.214,-129.128
 13:13:12.607,eb:33:2e:f9:57:b5, 2015-01-01 00:57:42.930,0.53,-0.162,2.76,-339.05,-268.555,104.431, , , , , , ,3.658,-3.593,-128.727
 13:13:12.607,eb:33:2e:f9:57:b5, 2015-01-01 00:57:42.930,0.503,-0.127,2.871,-342.102,-270.508,112.793, , , , , , ,1.917,-4.966,-128.243
 13:13:12.651,eb:33:2e:f9:57:b5, 2015-01-01 00:57:42.930,0.521,-0.076,2.958,-345.276,-276.245,124.817, , , , , , ,0.143,-6.345,-127.667
 13:13:12.651,eb:33:2e:f9:57:b5, 2015-01-01 00:57:42.930,0.587,0.012,3.08,-347.29,-279.663,135.315, , , , , , ,-1.692,-7.745,-126.985
 13:13:12.651,eb:33:2e:f9:57:b5, 2015-01-01 00:57:42.930,0.433,0.149,3.164,-346.008,-281.86,147.095, , , , , , ,-3.538,-9.119,-126.2
 13:13:12.651,eb:33:2e:f9:57:b5, 2015-01-01 00:57:42.930,0.229,0.391,3.162,-340.515,-287.17,149.963, , , , , , ,-5.405,-10.481,-125.327
 13:13:12.651,eb:33:2e:f9:57:b5, 2015-01-01 00:57:42.930,0.083,0.656,3.102,-329.773,-295.471,147.034, , , , , , ,-7.251,-11.849,-124.415
 13:13:12.651,eb:33:2e:f9:57:b5, 2015-01-01 00:57:42.930,-0.106,0.889,3.384,-317.444,-292.786,148.071, , , , , , ,-9.091,-13.217,-123.448
 13:13:12.651,eb:33:2e:f9:57:b5, 2015-01-01 00:57:42.930,-0.349,1.094,3.771,-304.382,-274.292,150.879, , , , , , ,-10.882,-14.48,-122.437
 13:13:12.651,eb:33:2e:f9:57:b5, 2015-01-01 00:57:42.930,-0.646,1.225,4.038,-289.246,-249.695,156.433, , , , , , ,-12.64,-15.595,-121.382
 13:13:12.697,eb:33:2e:f9:57:b5, 2015-01-01 00:57:43.290,-1.064,1.264,3.916,-272.644,-226.379,163.208, , , , , , ,-14.337,-16.545,-120.295
 13:13:12.697,eb:33:2e:f9:57:b5, 2015-01-01 00:57:43.290,-1.388,1.377,3.586,-256.042,-202.271,169.128, , , , , , ,-15.996,-17.358,-119.163
 13:13:12.697,eb:33:2e:f9:57:b5, 2015-01-01 00:57:43.290,-1.599,1.543,3.346,-243.591,-178.04,177.673, , , , , , ,-17.589,-17.996,-118.004
 13:13:12.697,eb:33:2e:f9:57:b5, 2015-01-01 00:57:43.290,-1.696,1.855,3.077,-239.746,-153.381,186.646, , , , , , ,-19.166,-18.49,-116.818
 13:13:12.697,eb:33:2e:f9:57:b5, 2015-01-01 00:57:43.290,-1.745,2.363,2.828,-245.239,-115.112,192.993, , , , , , ,-20.753,-18.781,-115.637
 13:13:12.697,eb:33:2e:f9:57:b5, 2015-01-01 00:57:43.290,-1.881,3.072,2.535,-249.878,-72.021,195.557, , , , , , ,-22.374,-18.847,-114.505
 13:13:12.697,eb:33:2e:f9:57:b5, 2015-01-01 00:57:43.290,-2.294,3.92,2.18,-239.624,-38.635,190.491, , , , , , ,-23.939,-18.699,-113.461
 13:13:12.697,eb:33:2e:f9:57:b5, 2015-01-01 00:57:43.290,-2.746,4.741,1.581,-200.989,-38.025,178.284, , , , , , ,-25.34,-18.474,-112.505
 13:13:12.741,eb:33:2e:f9:57:b5, 2015-01-01 00:57:43.290,-3.02,5.287,1.278,-136.536,-54.016,156.555, , , , , , ,-26.439,-18.325,-111.61
 13:13:12.741,eb:33:2e:f9:57:b5, 2015-01-01 00:57:43.290,-2.958,5.406,1.433,-56.213,-61.218,132.69, , , , , , ,-27.147,-18.292,-110.797
 13:13:12.741,eb:33:2e:f9:57:b5, 2015-01-01 00:57:43.290,-2.652,5.236,1.922,17.273,-45.959,99.487, , , , , , ,-27.405,-18.265,-110.143
 13:13:12.741,eb:33:2e:f9:57:b5, 2015-01-01 00:57:43.290,-2.134,4.689,2.671,75.5,11.78,63.477, , , , , , ,-27.263,-18.144,-109.742
 13:13:12.741,eb:33:2e:f9:57:b5, 2015-01-01 00:57:43.290,-2.117,4.138,2.886,102.112,90.088,26.917, , , , , , ,-26.812,-17.781,-109.682
 13:13:12.741,eb:33:2e:f9:57:b5, 2015-01-01 00:57:43.290,-1.81,3.538,2.05,98.328,141.418,5.798, , , , , , ,-26.235,-17.172,-109.907
 13:13:12.741,eb:33:2e:f9:57:b5, 2015-01-01 00:57:43.290,-1.502,2.959,1.438,88.257,165.71,-14.404, , , , , , ,-25.664,-16.469,-110.297
 13:13:12.741,eb:33:2e:f9:57:b5, 2015-01-01 00:57:43.290,0.851,2.659,1.166,86.975,166.077,-39.185, , , , , , ,-25.087,-15.782,-110.814
 13:13:12.787,eb:33:2e:f9:57:b5, 2015-01-01 00:57:43.290,0.779,2.965,4.782,227.722,90.454,-180.481, , , , , , ,-24.044,-15.623,-111.511
 13:13:12.787,eb:33:2e:f9:57:b5, 2015-01-01 00:57:43.290,3.019,0.734,2.519,262.695,108.337,-260.986, , , , , , ,-22.478,-15.298,-112.813
 13:13:12.787,eb:33:2e:f9:57:b5, 2015-01-01 00:57:43.290,1.23,-1.847,2.143,292.358,238.525,-191.345, , , , , , ,-20.704,-14.87,-114.214
 13:13:12.787,eb:33:2e:f9:57:b5, 2015-01-01 00:57:43.290,1.243,-0.932,1.424,306.763,242.371,-179.871, , , , , , ,-18.869,-14.035,-115.543
 13:13:12.787,eb:33:2e:f9:57:b5, 2015-01-01 00:57:43.290,0.952,-1.404,1.418,325.928,260.62,-145.874, , , , , , ,-16.996,-13.063,-116.73
 13:13:12.787,eb:33:2e:f9:57:b5, 2015-01-01 00:57:43.290,0.754,-0.868,1.479,324.219,234.558,-113.892, , , , , , ,-15.128,-12.041,-117.697
 13:13:12.787,eb:33:2e:f9:57:b5, 2015-01-01 00:57:43.290,0.092,-0.589,1.401,307.617,223.755,-75.5, , , , , , ,-13.414,-11.052,-118.422
 13:13:12.787,eb:33:2e:f9:57:b5, 2015-01-01 00:57:43.290,-0.43,-0.144,1.188,285.645,200.745,-46.753, , , , , , ,-11.838,-10.107,-118.943
 13:13:12.808,eb:33:2e:f9:57:b5, 2015-01-01 00:57:43.290,-0.359,0.018,1.212,252.38,178.406,-28.503, , , , , , ,-10.443,-9.212,-119.295
 13:13:12.808,eb:33:2e:f9:57:b5, 2015-01-01 00:57:43.290,-0.068,0.103,1.249,216.125,153.259,-10.559, , , , , , ,-9.24,-8.432,-119.52
 13:13:12.808,eb:33:2e:f9:57:b5, 2015-01-01 00:57:43.290,0.128,0.243,1.514,181.58,147.583,4.517, , , , , , ,-8.251,-7.701,-119.641
 13:13:12.808,eb:33:2e:f9:57:b5, 2015-01-01 00:57:43.290,-0.048,0.294,1.643,141.724,165.039,13.367, , , , , , ,-7.454,-6.91,-119.707
 13:13:12.808,eb:33:2e:f9:57:b5, 2015-01-01 00:57:43.290,-0.31,0.294,1.439,113.647,176.514,17.578, , , , , , ,-6.828,-6.037,-119.734
 13:13:12.808,eb:33:2e:f9:57:b5, 2015-01-01 00:57:43.290,-0.247,0.104,0.968,99.06,154.175,22.766, , , , , , ,-6.301,-5.202,-119.729
 13:13:12.808,eb:33:2e:f9:57:b5, 2015-01-01 00:57:43.290,-0.264,-0.041,0.926,96.008,127.686,23.865, , , , , , ,-5.823,-4.504,-119.685
 13:13:12.808,eb:33:2e:f9:57:b5, 2015-01-01 00:57:43.290,-0.33,-0.009,0.871,95.215,110.107,21.851, , , , , , ,-5.35,-3.9,-119.625
 13:13:12.855,eb:33:2e:f9:57:b5, 2015-01-01 00:57:43.290,-0.174,0.151,0.679,93.506,74.585,7.324, , , , , , ,-4.878,-3.45,-119.597
 13:13:12.855,eb:33:2e:f9:57:b5, 2015-01-01 00:57:43.290,-0.093,0.089,0.774,91.431,52.795,-7.568, , , , , , ,-4.406,-3.148,-119.636
 13:13:12.855,eb:33:2e:f9:57:b5, 2015-01-01 00:57:43.290,-0.088,-0.006,0.819,86.853,43.579,-10.193, , , , , , ,-3.961,-2.917,-119.696
 13:13:12.855,eb:33:2e:f9:57:b5, 2015-01-01 00:57:43.290,-0.029,0.023,0.775,72.998,32.532,1.709, , , , , , ,-3.56,-2.736,-119.729
 13:13:12.855,eb:33:2e:f9:57:b5, 2015-01-01 00:57:43.290,0.077,0.235,0.831,56.152,25.024,9.155, , , , , , ,-3.246,-2.598,-119.702
 13:13:12.855,eb:33:2e:f9:57:b5, 2015-01-01 00:57:43.290,0.017,0.259,0.955,41.077,33.875,10.559, , , , , , ,-3.005,-2.444,-119.658
 13:13:12.855,eb:33:2e:f9:57:b5, 2015-01-01 00:57:43.290,-0.034,0.163,0.886,31.25,33.569,9.338, , , , , , ,-2.834,-2.269,-119.619
 13:13:12.855,eb:33:2e:f9:57:b5, 2015-01-01 00:57:43.290,-0.105,0.092,0.866,25.452,31.006,7.751, , , , , , ,-2.697,-2.104,-119.581
 13:13:12.900,eb:33:2e:f9:57:b5, 2015-01-01 00:57:43.290,-0.175,0.023,0.831,22.522,26.123,8.667, , , , , , ,-2.582,-1.961,-119.548
 13:13:12.900,eb:33:2e:f9:57:b5, 2015-01-01 00:57:43.290,-0.139,0.13,0.803,14.771,12.451,4.883, , , , , , ,-2.477,-1.862,-119.515
 13:13:12.900,eb:33:2e:f9:57:b5, 2015-01-01 00:57:43.290,-0.062,0.125,0.887,8.057,3.052,2.136, , , , , , ,-2.428,-1.829,-119.504
 13:13:12.900,eb:33:2e:f9:57:b5, 2015-01-01 00:57:43.290,-0.021,0.013,0.967,5.737,-0.916,2.625, , , , , , ,-2.395,-1.829,-119.487
 13:13:12.900,eb:33:2e:f9:57:b5, 2015-01-01 00:57:43.290,0.013,-0.04,1.017,7.507,-2.869,2.93, , , , , , ,-2.362,-1.84,-119.476
 13:13:12.900,eb:33:2e:f9:57:b5, 2015-01-01 00:57:43.290,0.022,-0.04,1.055,9.827,-1.953,3.296, , , , , , ,-2.313,-1.846,-119.46
 13:13:12.900,eb:33:2e:f9:57:b5, 2015-01-01 00:57:43.290,0.007,-0.011,1.06,10.498,0.488,3.235, , , , , , ,-2.258,-1.846,-119.438
 13:13:12.900,eb:33:2e:f9:57:b5, 2015-01-01 00:57:43.290,0,0.003,1.031,10.132,0.977,3.052, , , , , , ,-2.208,-1.84,-119.421
 13:13:12.944,eb:33:2e:f9:57:b5, 2015-01-01 00:57:43.290,-0.004,0.011,1.024,9.705,0.671,2.014, , , , , , ,-2.159,-1.835,-119.41
 13:13:12.944,eb:33:2e:f9:57:b5, 2015-01-01 00:57:43.290,0.014,0.002,1.043,9.949,0.061,0.671, , , , , , ,-2.098,-1.829,-119.405
 13:13:12.944,eb:33:2e:f9:57:b5, 2015-01-01 00:57:43.290,-0.007,-0.011,1.085,10.742,1.709,-0.061, , , , , , ,-2.049,-1.824,-119.405
 13:13:12.944,eb:33:2e:f9:57:b5, 2015-01-01 00:57:43.290,-0.015,-0.018,1.073,11.78,1.404,-0.427, , , , , , ,-1.989,-1.813,-119.405
 13:13:12.944,eb:33:2e:f9:57:b5, 2015-01-01 00:57:43.290,-0.01,-0.012,1.065,12.451,0.671,-1.465, , , , , , ,-1.928,-1.813,-119.41
 13:13:12.944,eb:33:2e:f9:57:b5, 2015-01-01 00:57:43.290,0.003,-0.013,1.056,13.245,-0.061,-2.502, , , , , , ,-1.857,-1.802,-119.416
 13:13:12.944,eb:33:2e:f9:57:b5, 2015-01-01 00:57:43.290,0.002,-0.009,1.047,13.489,0.122,-3.784, , , , , , ,-1.785,-1.807,-119.432
 13:13:12.944,eb:33:2e:f9:57:b5, 2015-01-01 00:57:43.290,-0.009,-0.005,1.029,13.489,0.061,-4.211, , , , , , ,-1.719,-1.802,-119.454
 13:13:12.989,eb:33:2e:f9:57:b5, 2015-01-01 00:57:43.600,-0.02,0,1.007,13.123,-0.549,-4.395, , , , , , ,-1.653,-1.807,-119.476
 13:13:12.989,eb:33:2e:f9:57:b5, 2015-01-01 00:57:43.600,-0.014,0,0.991,12.695,-2.197,-4.578, , , , , , ,-1.577,-1.807,-119.498
 13:13:12.989,eb:33:2e:f9:57:b5, 2015-01-01 00:57:43.600,-0.003,0,0.992,12.085,-3.54,-4.456, , , , , , ,-1.516,-1.824,-119.52
 13:13:12.989,eb:33:2e:f9:57:b5, 2015-01-01 00:57:43.600,0.001,0,1,11.414,-4.15,-4.028, , , , , , ,-1.456,-1.846,-119.537
 13:13:12.989,eb:33:2e:f9:57:b5, 2015-01-01 00:57:43.600,0.001,-0.002,1.012,10.864,-4.272,-3.54, , , , , , ,-1.401,-1.868,-119.559
 13:13:12.989,eb:33:2e:f9:57:b5, 2015-01-01 00:57:43.600,0.002,-0.005,1.022,10.437,-4.15,-2.93, , , , , , ,-1.335,-1.884,-119.57
 13:13:12.989,eb:33:2e:f9:57:b5, 2015-01-01 00:57:43.600,0.012,-0.001,1.02,10.437,-4.272,-2.808, , , , , , ,-1.285,-1.906,-119.586
 13:13:12.990,eb:33:2e:f9:57:b5, 2015-01-01 00:57:43.600,0.015,-0.003,1.03,10.559,-3.784,-3.052, , , , , , ,-1.23,-1.928,-119.597
 13:13:13.011,eb:33:2e:f9:57:b5, 2015-01-01 00:57:43.600,0.017,-0.006,1.039,10.864,-2.808,-3.418, , , , , , ,-1.176,-1.945,-119.614
 13:13:13.011,eb:33:2e:f9:57:b5, 2015-01-01 00:57:43.600,0.016,-0.008,1.046,11.169,-1.709,-3.662, , , , , , ,-1.11,-1.945,-119.63
 13:13:13.011,eb:33:2e:f9:57:b5, 2015-01-01 00:57:43.600,0.015,-0.009,1.044,11.78,-0.916,-3.357, , , , , , ,-1.055,-1.956,-119.647
 13:13:13.011,eb:33:2e:f9:57:b5, 2015-01-01 00:57:43.600,0.018,-0.015,1.045,12.817,-0.671,-2.991, , , , , , ,-0.989,-1.961,-119.663
 13:13:13.011,eb:33:2e:f9:57:b5, 2015-01-01 00:57:43.600,0.008,-0.013,1.051,13.367,0.427,-2.686, , , , , , ,-0.923,-1.961,-119.674
 13:13:13.011,eb:33:2e:f9:57:b5, 2015-01-01 00:57:43.600,0.005,-0.016,1.045,13.855,1.038,-2.441, , , , , , ,-0.846,-1.95,-119.691
 13:13:13.011,eb:33:2e:f9:57:b5, 2015-01-01 00:57:43.600,0.008,-0.021,1.05,14.526,1.831,-2.258, , , , , , ,-0.775,-1.939,-119.702
 13:13:13.011,eb:33:2e:f9:57:b5, 2015-01-01 00:57:43.600,0.014,-0.015,1.046,14.832,2.808,-1.892, , , , , , ,-0.698,-1.928,-119.707
 13:13:13.057,eb:33:2e:f9:57:b5, 2015-01-01 00:57:43.600,0.022,0.001,1.038,14.648,4.028,-1.892, , , , , , ,-0.626,-1.912,-119.718
 13:13:13.057,eb:33:2e:f9:57:b5, 2015-01-01 00:57:43.600,0.029,0.013,1.023,14.099,5.859,-2.014, , , , , , ,-0.544,-1.884,-119.729
 13:13:13.057,eb:33:2e:f9:57:b5, 2015-01-01 00:57:43.600,0.032,0.01,1.014,13.245,7.996,-1.831, , , , , , ,-0.472,-1.846,-119.74
 13:13:13.057,eb:33:2e:f9:57:b5, 2015-01-01 00:57:43.600,0.042,0.021,1.01,12.329,9.888,-2.075, , , , , , ,-0.412,-1.802,-119.745
 13:13:13.057,eb:33:2e:f9:57:b5, 2015-01-01 00:57:43.600,0.037,0.024,1.015,11.475,12.39,-2.258, , , , , , ,-0.352,-1.747,-119.762
 13:13:13.057,eb:33:2e:f9:57:b5, 2015-01-01 00:57:43.600,0.031,0.026,1,10.376,14.587,-2.075, , , , , , ,-0.286,-1.67,-119.773
 13:13:13.057,eb:33:2e:f9:57:b5, 2015-01-01 00:57:43.600,0.026,0.016,0.988,9.888,15.259,-1.648, , , , , , ,-0.236,-1.593,-119.778
 13:13:13.057,eb:33:2e:f9:57:b5, 2015-01-01 00:57:43.600,0.014,0.019,0.982,9.094,15.625,-2.258, , , , , , ,-0.187,-1.516,-119.789
 13:13:13.101,eb:33:2e:f9:57:b5, 2015-01-01 00:57:43.600,0.018,0,0.98,8.545,16.174,-1.526, , , , , , ,-0.143,-1.439,-119.8
 13:13:13.101,eb:33:2e:f9:57:b5, 2015-01-01 00:57:43.600,0.013,0.003,0.974,7.935,16.479,-1.099, , , , , , ,-0.093,-1.351,-119.806
 13:13:13.101,eb:33:2e:f9:57:b5, 2015-01-01 00:57:43.600,0.022,0.012,0.966,7.446,16.174,-0.916, , , , , , ,-0.055,-1.269,-119.811
 13:13:13.101,eb:33:2e:f9:57:b5, 2015-01-01 00:57:43.600,0.035,0.021,0.986,7.446,15.93,-1.465, , , , , , ,-0.016,-1.187,-119.817
 13:13:13.101,eb:33:2e:f9:57:b5, 2015-01-01 00:57:43.600,0.03,0.019,1.012,7.812,16.785,-1.526, , , , , , ,0.016,-1.104,-119.822
 13:13:13.101,eb:33:2e:f9:57:b5, 2015-01-01 00:57:43.600,0.038,0.028,0.998,8.24,17.029,-1.465, , , , , , ,0.066,-1.016,-119.828
 13:13:13.101,eb:33:2e:f9:57:b5, 2015-01-01 00:57:43.600,0.046,0.027,1.027,8.85,19.165,-1.831, , , , , , ,0.11,-0.923,-119.839
 13:13:13.101,eb:33:2e:f9:57:b5, 2015-01-01 00:57:43.600,0.031,0.025,1.029,10.559,20.935,-1.587, , , , , , ,0.154,-0.824,-119.844
 13:13:13.147,eb:33:2e:f9:57:b5, 2015-01-01 00:57:43.600,-0.008,0.015,1.028,13.672,19.531,-1.221, , , , , , ,0.22,-0.72,-119.85
 13:13:13.147,eb:33:2e:f9:57:b5, 2015-01-01 00:57:43.600,-0.038,0.001,1,14.282,19.226,-0.61, , , , , , ,0.297,-0.621,-119.855
 13:13:13.147,eb:33:2e:f9:57:b5, 2015-01-01 00:57:43.600,-0.019,0.018,0.989,15.747,15.32,-0.793, , , , , , ,0.379,-0.544,-119.855
 13:13:13.147,eb:33:2e:f9:57:b5, 2015-01-01 00:57:43.600,0.051,0.044,0.945,17.029,11.475,-3.723, , , , , , ,0.461,-0.483,-119.861
 13:13:13.147,eb:33:2e:f9:57:b5, 2015-01-01 00:57:43.600,-0.024,0.046,0.994,15.503,15.686,-3.296, , , , , , ,0.538,-0.401,-119.877
 13:13:13.147,eb:33:2e:f9:57:b5, 2015-01-01 00:57:43.600,0.068,0.04,0.957,17.09,9.399,-5.798, , , , , , ,0.632,-0.341,-119.899
 13:13:13.147,eb:33:2e:f9:57:b5, 2015-01-01 00:57:43.600,-0.05,0.033,1.094,17.822,16.113,-5.31, , , , , , ,0.72,-0.275,-119.927
 13:13:13.147,eb:33:2e:f9:57:b5, 2015-01-01 00:57:43.600,0.006,0.019,0.93,20.325,9.399,-5.493, , , , , , ,0.818,-0.214,-119.949
 13:13:13.192,eb:33:2e:f9:57:b5, 2015-01-01 00:57:43.600,-0.025,0.066,0.986,18.372,16.296,-6.836, , , , , , ,0.912,-0.148,-119.971
 13:13:13.192,eb:33:2e:f9:57:b5, 2015-01-01 00:57:43.600,-0.029,0.052,0.932,15.32,20.081,-4.578, , , , , , ,1.005,-0.038,-119.993
 13:13:13.192,eb:33:2e:f9:57:b5, 2015-01-01 00:57:43.600,0.004,0.027,0.97,18.066,15.015,-3.662, , , , , , ,1.088,0.038,-120.015
 13:13:13.192,eb:33:2e:f9:57:b5, 2015-01-01 00:57:43.600,0.012,0.02,1.031,20.386,14.404,-3.052, , , , , , ,1.187,0.11,-120.026
 13:13:13.192,eb:33:2e:f9:57:b5, 2015-01-01 00:57:43.600,0.039,0.045,1.008,20.508,15.686,-3.479, , , , , , ,1.291,0.187,-120.042
 13:13:13.192,eb:33:2e:f9:57:b5, 2015-01-01 00:57:43.600,0.062,0.07,1.026,20.264,18.799,-4.883, , , , , , ,1.401,0.28,-120.059
 13:13:13.192,eb:33:2e:f9:57:b5, 2015-01-01 00:57:43.600,0.047,0.077,1.044,20.508,22.705,-7.019, , , , , , ,1.505,0.385,-120.086
 13:13:13.192,eb:33:2e:f9:57:b5, 2015-01-01 00:57:43.600,0.031,0.073,1.034,20.874,25.879,-8.545, , , , , , ,1.604,0.511,-120.125
 13:13:13.215,eb:33:2e:f9:57:b5, 2015-01-01 00:57:43.600,0.018,0.066,1.03,21.423,28.564,-9.949, , , , , , ,1.714,0.648,-120.168
 13:13:13.215,eb:33:2e:f9:57:b5, 2015-01-01 00:57:43.600,0.006,0.065,1.021,21.912,30.457,-11.597, , , , , , ,1.829,0.807,-120.212
 13:13:13.215,eb:33:2e:f9:57:b5, 2015-01-01 00:57:43.600,-0.021,0.063,1.018,22.522,31.372,-13.184, , , , , , ,1.939,0.961,-120.273
 13:13:13.215,eb:33:2e:f9:57:b5, 2015-01-01 00:57:43.600,-0.046,0.063,1.01,22.766,31.982,-14.099, , , , , , ,2.054,1.126,-120.333
 13:13:13.215,eb:33:2e:f9:57:b5, 2015-01-01 00:57:43.600,-0.037,0.047,1.003,22.888,32.959,-13.855, , , , , , ,2.164,1.291,-120.399
 13:13:13.215,eb:33:2e:f9:57:b5, 2015-01-01 00:57:43.600,-0.043,0.077,0.987,23.621,31.738,-14.404, , , , , , ,2.291,1.456,-120.46
 13:13:13.215,eb:33:2e:f9:57:b5, 2015-01-01 00:57:43.600,-0.092,0.058,1.006,24.231,32.166,-14.954, , , , , , ,2.406,1.62,-120.531
 13:13:13.215,eb:33:2e:f9:57:b5, 2015-01-01 00:57:43.600,-0.118,0.043,0.972,25.452,28.992,-15.564, , , , , , ,2.527,1.774,-120.597
 13:13:13.259,eb:33:2e:f9:57:b5, 2015-01-01 00:57:43.600,-0.124,0.022,0.991,26.917,26.062,-14.954, , , , , , ,2.659,1.917,-120.668
 13:13:13.259,eb:33:2e:f9:57:b5, 2015-01-01 00:57:43.600,-0.112,0.007,1.038,28.564,23.682,-13.672, , , , , , ,2.807,2.049,-120.729
 13:13:13.259,eb:33:2e:f9:57:b5, 2015-01-01 00:57:43.600,-0.101,0.008,1.052,30.823,21.912,-12.146, , , , , , ,2.95,2.164,-120.789
 13:13:13.259,eb:33:2e:f9:57:b5, 2015-01-01 00:57:43.600,-0.099,0.027,1.057,32.959,20.203,-11.353, , , , , , ,3.109,2.269,-120.839
 13:13:13.259,eb:33:2e:f9:57:b5, 2015-01-01 00:57:43.600,-0.109,0.016,1.092,35.645,19.348,-9.949, , , , , , ,3.279,2.373,-120.888
 13:13:13.259,eb:33:2e:f9:57:b5, 2015-01-01 00:57:43.600,-0.094,0,1.139,39.734,18.799,-8.057, , , , , , ,3.477,2.477,-120.921
 13:13:13.260,eb:33:2e:f9:57:b5, 2015-01-01 00:57:43.600,-0.081,0.003,1.145,44.983,16.479,-6.409, , , , , , ,3.691,2.565,-120.954
 13:13:13.260,eb:33:2e:f9:57:b5, 2015-01-01 00:57:43.600,-0.065,0.018,1.126,49.683,13.672,-5.005, , , , , , ,3.928,2.642,-120.97
 13:13:13.304,eb:33:2e:f9:57:b5, 2015-01-01 00:57:43.915,-0.049,0.063,1.121,52.551,13.062,-5.493, , , , , , ,4.186,2.708,-120.992
 13:13:13.304,eb:33:2e:f9:57:b5, 2015-01-01 00:57:43.915,-0.052,0.08,1.097,55.542,10.803,-5.066, , , , , , ,4.466,2.78,-121.014
 13:13:13.304,eb:33:2e:f9:57:b5, 2015-01-01 00:57:43.915,-0.101,0.079,1.1,59.265,7.568,-5.493, , , , , , ,4.752,2.818,-121.036
 13:13:13.304,eb:33:2e:f9:57:b5, 2015-01-01 00:57:43.915,-0.122,0.011,1.242,63.904,9.338,-3.662, , , , , , ,5.065,2.867,-121.053
 13:13:13.304,eb:33:2e:f9:57:b5, 2015-01-01 00:57:43.915,-0.054,0,1.402,69.214,10.193,-3.296, , , , , , ,5.4,2.911,-121.069
 13:13:13.304,eb:33:2e:f9:57:b5, 2015-01-01 00:57:43.915,-0.056,0.002,1.378,75.623,13.672,-0.916, , , , , , ,5.773,2.983,-121.069
 13:13:13.304,eb:33:2e:f9:57:b5, 2015-01-01 00:57:43.915,-0.015,0.038,1.326,82.153,13.489,-1.77, , , , , , ,6.169,3.049,-121.069
 13:13:13.304,eb:33:2e:f9:57:b5, 2015-01-01 00:57:43.915,0.026,0.04,1.401,90.149,15.442,-2.319, , , , , , ,6.603,3.12,-121.069
 13:13:13.349,eb:33:2e:f9:57:b5, 2015-01-01 00:57:43.915,0.047,0.068,1.434,98.938,17.944,-4.211, , , , , , ,7.081,3.208,-121.075
 13:13:13.349,eb:33:2e:f9:57:b5, 2015-01-01 00:57:43.915,0.09,0.097,1.466,107.849,21.79,-6.897, , , , , , ,7.608,3.318,-121.091
 13:13:13.349,eb:33:2e:f9:57:b5, 2015-01-01 00:57:43.915,0.102,0.106,1.482,119.324,25.574,-10.498, , , , , , ,8.179,3.439,-121.119
 13:13:13.349,eb:33:2e:f9:57:b5, 2015-01-01 00:57:43.915,0.113,0.113,1.542,127.747,31.189,-13.794, , , , , , ,8.8,3.593,-121.152
 13:13:13.349,eb:33:2e:f9:57:b5, 2015-01-01 00:57:43.915,0.108,0.083,1.668,135.071,43.152,-16.357, , , , , , ,9.459,3.79,-121.201
 13:13:13.349,eb:33:2e:f9:57:b5, 2015-01-01 00:57:43.915,0.072,0.061,1.621,143.494,54.688,-17.09, , , , , , ,10.162,4.059,-121.24
 13:13:13.349,eb:33:2e:f9:57:b5, 2015-01-01 00:57:43.915,0.055,0.132,1.521,151.55,58.228,-20.02, , , , , , ,10.904,4.356,-121.278
 13:13:13.349,eb:33:2e:f9:57:b5, 2015-01-01 00:57:43.915,0.009,0.049,1.572,160.889,64.697,-19.531, , , , , , ,11.684,4.68,-121.311
 13:13:13.371,eb:33:2e:f9:57:b5, 2015-01-01 00:57:43.915,-0.099,0.015,1.481,169.128,67.688,-20.264, , , , , , ,12.513,5.032,-121.344
 13:13:13.371,eb:33:2e:f9:57:b5, 2015-01-01 00:57:43.915,-0.019,-0.067,1.669,178.284,69.214,-18.738, , , , , , ,13.392,5.383,-121.36
 13:13:13.371,eb:33:2e:f9:57:b5, 2015-01-01 00:57:43.915,0.012,-0.05,1.65,189.27,74.463,-14.282, , , , , , ,14.315,5.762,-121.349
 13:13:13.371,eb:33:2e:f9:57:b5, 2015-01-01 00:57:43.915,0.06,0.059,1.528,202.82,68.115,-14.648, , , , , , ,15.304,6.125,-121.322
 13:13:13.371,eb:33:2e:f9:57:b5, 2015-01-01 00:57:43.915,0.092,0.077,1.574,217.163,63.354,-16.418, , , , , , ,16.359,6.454,-121.311
 13:13:13.371,eb:33:2e:f9:57:b5, 2015-01-01 00:57:43.915,0.115,0.052,1.636,232.727,59.937,-19.104, , , , , , ,17.501,6.779,-121.306
 13:13:13.371,eb:33:2e:f9:57:b5, 2015-01-01 00:57:43.915,0.108,0.048,1.698,250.366,53.833,-23.315, , , , , , ,18.715,7.081,-121.322
 13:13:13.371,eb:33:2e:f9:57:b5, 2015-01-01 00:57:43.915,0.129,0.047,1.818,268.005,48.523,-29.175, , , , , , ,20.012,7.366,-121.36
 13:13:13.416,eb:33:2e:f9:57:b5, 2015-01-01 00:57:43.915,0.13,0.03,2.008,285.461,45.776,-33.875, , , , , , ,21.396,7.641,-121.426
 13:13:13.416,eb:33:2e:f9:57:b5, 2015-01-01 00:57:43.915,0.309,-0.007,2.203,303.528,43.335,-40.222, , , , , , ,22.868,7.921,-121.52
 13:13:13.416,eb:33:2e:f9:57:b5, 2015-01-01 00:57:43.915,0.321,-0.066,2.118,325.073,41.626,-43.457, , , , , , ,24.434,8.207,-121.624
 13:13:13.416,eb:33:2e:f9:57:b5, 2015-01-01 00:57:43.915,0.282,0.005,2.124,346.863,32.837,-54.26, , , , , , ,26.104,8.47,-121.772
 13:13:13.416,eb:33:2e:f9:57:b5, 2015-01-01 00:57:43.915,0.241,-0.094,2.4,367.737,33.813,-63.049, , , , , , ,27.872,8.756,-121.965
 13:13:13.416,eb:33:2e:f9:57:b5, 2015-01-01 00:57:43.915,0.304,-0.135,2.653,387.573,42.725,-68.726, , , , , , ,29.745,9.086,-122.168
 13:13:13.416,eb:33:2e:f9:57:b5, 2015-01-01 00:57:43.915,0.224,-0.177,2.686,407.349,53.894,-76.172, , , , , , ,31.718,9.476,-122.349
 13:13:13.416,eb:33:2e:f9:57:b5, 2015-01-01 00:57:43.915,0.351,-0.035,2.76,428.162,54.382,-80.627, , , , , , ,33.783,9.91,-122.525
 13:13:13.461,eb:33:2e:f9:57:b5, 2015-01-01 00:57:43.915,0.519,0.056,2.895,450.745,62.012,-82.703, , , , , , ,35.964,10.382,-122.695
 13:13:13.461,eb:33:2e:f9:57:b5, 2015-01-01 00:57:43.915,0.493,0.447,2.459,470.703,47.424,-97.961, , , , , , ,38.249,10.882,-122.893
 13:13:13.461,eb:33:2e:f9:57:b5, 2015-01-01 00:57:43.915,0.389,0.438,2.552,484.314,32.898,-117.981, , , , , , ,40.578,11.376,-123.212
 13:13:13.461,eb:33:2e:f9:57:b5, 2015-01-01 00:57:43.915,0.429,0.304,3.066,499.329,32.959,-130.554, , , , , , ,42.973,11.92,-123.574
 13:13:13.461,eb:33:2e:f9:57:b5, 2015-01-01 00:57:43.915,0.541,0.344,3.092,499.756,37.109,-132.019, , , , , , ,45.406,12.513,-123.92
 13:13:13.461,eb:33:2e:f9:57:b5, 2015-01-01 00:57:43.915,0.87,0.297,3.245,499.207,32.104,-136.169, , , , , , ,47.823,13.118,-124.261
 13:13:13.461,eb:33:2e:f9:57:b5, 2015-01-01 00:57:43.915,0.896,0.255,3.034,493.225,13.184,-152.161, , , , , , ,50.202,13.733,-124.673
 13:13:13.461,eb:33:2e:f9:57:b5, 2015-01-01 00:57:43.915,0.835,0.168,3.176,495.483,4.395,-157.898, , , , , , ,52.559,14.37,-125.129
 13:13:13.507,eb:33:2e:f9:57:b5, 2015-01-01 00:57:43.915,0.923,0.003,3.273,500.732,-1.709,-166.077, , , , , , ,54.926,15.029,-125.64
 13:13:13.507,eb:33:2e:f9:57:b5, 2015-01-01 00:57:43.915,1.573,-0.081,3.09,501.465,11.719,-184.631, , , , , , ,57.299,15.771,-126.123
 13:13:13.507,eb:33:2e:f9:57:b5, 2015-01-01 00:57:43.915,1.764,-0.679,2.296,476.196,42.786,-212.952, , , , , , ,59.628,16.705,-126.552
 13:13:13.507,eb:33:2e:f9:57:b5, 2015-01-01 00:57:43.915,1.576,-1.571,0.962,419.434,66.895,-230.957, , , , , , ,61.76,17.842,-126.815
 13:13:13.507,eb:33:2e:f9:57:b5, 2015-01-01 00:57:43.915,0.441,-1.347,-0.252,314.941,121.704,-241.028, , , , , , ,63.523,19.16,-126.958
 13:13:13.507,eb:33:2e:f9:57:b5, 2015-01-01 00:57:43.915,0.241,-0.964,-1.035,168.457,83.496,-179.016, , , , , , ,64.666,20.303,-126.931
 13:13:13.507,eb:33:2e:f9:57:b5, 2015-01-01 00:57:43.915,0.281,-0.895,0.215,68.481,40.527,-150.818, , , , , , ,65.171,21.149,-127.013
 13:13:13.507,eb:33:2e:f9:57:b5, 2015-01-01 00:57:43.915,0.551,-1.052,0.874,-5.615,2.258,-139.038, , , , , , ,65.187,21.83,-127.249
 13:13:13.553,eb:33:2e:f9:57:b5, 2015-01-01 00:57:43.915,0.709,-1.264,1.17,-63.049,-2.014,-120.85, , , , , , ,64.869,22.407,-127.557
 13:13:13.553,eb:33:2e:f9:57:b5, 2015-01-01 00:57:43.915,0.731,-1.254,1.207,-103.821,19.165,-100.83, , , , , , ,64.33,22.917,-127.766
 13:13:13.553,eb:33:2e:f9:57:b5, 2015-01-01 00:57:43.915,0.652,-1.091,1.283,-124.084,51.27,-87.28, , , , , , ,63.732,23.412,-127.798
 13:13:13.553,eb:33:2e:f9:57:b5, 2015-01-01 00:57:43.915,0.542,-0.868,1.387,-129.639,84.778,-81.787, , , , , , ,63.149,23.945,-127.639
 13:13:13.553,eb:33:2e:f9:57:b5, 2015-01-01 00:57:43.915,0.442,-0.724,1.263,-126.648,105.652,-75.073, , , , , , ,62.622,24.521,-127.354
 13:13:13.553,eb:33:2e:f9:57:b5, 2015-01-01 00:57:43.915,0.375,-0.685,0.888,-122.559,110.84,-65.369, , , , , , ,62.139,25.076,-127.002
 13:13:13.553,eb:33:2e:f9:57:b5, 2015-01-01 00:57:43.915,0.312,-0.755,0.45,-123.047,107.056,-51.575, , , , , , ,61.694,25.587,-126.617
 13:13:13.553,eb:33:2e:f9:57:b5, 2015-01-01 00:57:43.915,0.28,-0.862,0.067,-128.723,94.36,-33.203, , , , , , ,61.227,26.005,-126.227
 13:13:13.573,eb:33:2e:f9:57:b5, 2015-01-01 00:57:44.205,0.289,-0.932,-0.133,-137.085,73.547,-12.39, , , , , , ,60.71,26.296,-125.881
 13:13:13.573,eb:33:2e:f9:57:b5, 2015-01-01 00:57:44.205,0.312,-0.952,-0.149,-146.057,49.377,7.69, , , , , , ,60.112,26.439,-125.601
 13:13:13.573,eb:33:2e:f9:57:b5, 2015-01-01 00:57:44.205,0.344,-0.949,-0.099,-155.09,25.391,26.917, , , , , , ,59.453,26.444,-125.376
 13:13:13.573,eb:33:2e:f9:57:b5, 2015-01-01 00:57:44.205,0.388,-0.955,-0.037,-164.307,5.066,45.288, , , , , , ,58.722,26.312,-125.195
 13:13:13.573,eb:33:2e:f9:57:b5, 2015-01-01 00:57:44.205,0.429,-0.941,0.039,-173.645,-9.888,63.11, , , , , , ,57.936,26.065,-125.052
 13:13:13.573,eb:33:2e:f9:57:b5, 2015-01-01 00:57:44.205,0.464,-0.877,0.127,-183.838,-20.325,77.698, , , , , , ,57.079,25.714,-124.92
 13:13:13.573,eb:33:2e:f9:57:b5, 2015-01-01 00:57:44.205,0.509,-0.791,0.162,-193.909,-29.846,89.478, , , , , , ,56.19,25.285,-124.783
 13:13:13.573,eb:33:2e:f9:57:b5, 2015-01-01 00:57:44.205,0.537,-0.712,0.183,-203.552,-38.147,99.121, , , , , , ,55.25,24.791,-124.629
 13:13:13.619,eb:33:2e:f9:57:b5, 2015-01-01 00:57:44.205,0.557,-0.63,0.163,-213.562,-47.241,105.469, , , , , , ,54.256,24.247,-124.503
 13:13:13.619,eb:33:2e:f9:57:b5, 2015-01-01 00:57:44.205,0.587,-0.545,0.144,-224.182,-58.105,108.887, , , , , , ,53.185,23.648,-124.398
 13:13:13.619,eb:33:2e:f9:57:b5, 2015-01-01 00:57:44.205,0.602,-0.467,0.152,-235.413,-68.542,109.619, , , , , , ,52.064,23.016,-124.31
 13:13:13.619,eb:33:2e:f9:57:b5, 2015-01-01 00:57:44.205,0.615,-0.405,0.183,-246.399,-79.956,108.521, , , , , , ,50.872,22.352,-124.25
 13:13:13.619,eb:33:2e:f9:57:b5, 2015-01-01 00:57:44.205,0.616,-0.343,0.238,-257.568,-89.722,105.225, , , , , , ,49.609,21.671,-124.239
 13:13:13.619,eb:33:2e:f9:57:b5, 2015-01-01 00:57:44.205,0.625,-0.295,0.3,-268.494,-98.328,101.196, , , , , , ,48.263,20.962,-124.272
 13:13:13.619,eb:33:2e:f9:57:b5, 2015-01-01 00:57:44.205,0.637,-0.245,0.372,-279.236,-105.53,96.008, , , , , , ,46.873,20.253,-124.321
 13:13:13.619,eb:33:2e:f9:57:b5, 2015-01-01 00:57:44.205,0.644,-0.178,0.434,-290.283,-111.328,89.417, , , , , , ,45.417,19.545,-124.393
 13:13:13.665,eb:33:2e:f9:57:b5, 2015-01-01 00:57:44.205,0.648,-0.12,0.496,-301.025,-117.798,82.886, , , , , , ,43.896,18.836,-124.497
 13:13:13.665,eb:33:2e:f9:57:b5, 2015-01-01 00:57:44.205,0.652,-0.083,0.543,-311.584,-123.901,75.256, , , , , , ,42.297,18.116,-124.64
 13:13:13.665,eb:33:2e:f9:57:b5, 2015-01-01 00:57:44.205,0.642,-0.067,0.588,-321.96,-128.906,67.627, , , , , , ,40.66,17.408,-124.805
 13:13:13.665,eb:33:2e:f9:57:b5, 2015-01-01 00:57:44.205,0.661,-0.05,0.656,-330.872,-136.414,60.913, , , , , , ,38.963,16.688,-124.986
 13:13:13.665,eb:33:2e:f9:57:b5, 2015-01-01 00:57:44.205,0.658,-0.041,0.729,-338.928,-141.174,54.749, , , , , , ,37.227,15.963,-125.2
 13:13:13.665,eb:33:2e:f9:57:b5, 2015-01-01 00:57:44.205,0.657,-0.033,0.8,-345.52,-145.508,48.706, , , , , , ,35.431,15.227,-125.436
 13:13:13.665,eb:33:2e:f9:57:b5, 2015-01-01 00:57:44.205,0.653,-0.026,0.85,-350.037,-152.222,43.884, , , , , , ,33.629,14.48,-125.678
 13:13:13.665,eb:33:2e:f9:57:b5, 2015-01-01 00:57:44.205,0.634,-0.021,0.908,-353.455,-162.048,39.246, , , , , , ,31.8,13.705,-125.931
 13:13:13.709,eb:33:2e:f9:57:b5, 2015-01-01 00:57:44.205,0.622,-0.026,0.957,-354.736,-172.363,37.231, , , , , , ,29.965,12.887,-126.205
 13:13:13.709,eb:33:2e:f9:57:b5, 2015-01-01 00:57:44.205,0.605,-0.045,1.01,-355.774,-181.58,36.682, , , , , , ,28.114,12.008,-126.491
 13:13:13.709,eb:33:2e:f9:57:b5, 2015-01-01 00:57:44.205,0.569,-0.063,1.094,-357.056,-190.552,39.062, , , , , , ,26.274,11.091,-126.755
 13:13:13.709,eb:33:2e:f9:57:b5, 2015-01-01 00:57:44.205,0.517,-0.092,1.218,-358.337,-197.021,43.884, , , , , , ,24.445,10.118,-126.98
 13:13:13.709,eb:33:2e:f9:57:b5, 2015-01-01 00:57:44.205,0.478,-0.127,1.337,-359.07,-202.759,52.307, , , , , , ,22.621,9.108,-127.156
 13:13:13.709,eb:33:2e:f9:57:b5, 2015-01-01 00:57:44.205,0.483,-0.151,1.472,-358.704,-206.543,62.195, , , , , , ,20.786,8.031,-127.277
 13:13:13.709,eb:33:2e:f9:57:b5, 2015-01-01 00:57:44.205,0.481,-0.172,1.615,-358.032,-206.116,74.097, , , , , , ,18.995,6.943,-127.304
 13:13:13.709,eb:33:2e:f9:57:b5, 2015-01-01 00:57:44.205,0.531,-0.163,1.71,-356.628,-205.444,86.304, , , , , , ,17.216,5.839,-127.227
 13:13:13.754,eb:33:2e:f9:57:b5, 2015-01-01 00:57:44.205,0.601,-0.098,1.832,-353.394,-205.383,97.9, , , , , , ,15.452,4.724,-127.068
 13:13:13.754,eb:33:2e:f9:57:b5, 2015-01-01 00:57:44.205,0.686,-0.011,1.931,-348.511,-206.909,107.178, , , , , , ,13.7,3.582,-126.826
 13:13:13.754,eb:33:2e:f9:57:b5, 2015-01-01 00:57:44.205,0.777,0.102,2.001,-342.651,-210.022,113.586, , , , , , ,11.992,2.444,-126.513
 13:13:13.754,eb:33:2e:f9:57:b5, 2015-01-01 00:57:44.205,0.867,0.213,2.083,-336.67,-214.6,117.554, , , , , , ,10.305,1.285,-126.145
 13:13:13.754,eb:33:2e:f9:57:b5, 2015-01-01 00:57:44.205,0.954,0.327,2.17,-330.322,-221.252,118.347, , , , , , ,8.646,0.11,-125.744
 13:13:13.754,eb:33:2e:f9:57:b5, 2015-01-01 00:57:44.205,1.021,0.451,2.283,-323.914,-229.004,116.577, , , , , , ,6.993,-1.093,-125.316
 13:13:13.754,eb:33:2e:f9:57:b5, 2015-01-01 00:57:44.205,1.046,0.57,2.396,-318.909,-237.61,113.464, , , , , , ,5.372,-2.324,-124.871
 13:13:13.754,eb:33:2e:f9:57:b5, 2015-01-01 00:57:44.205,1.042,0.685,2.473,-317.078,-248.108,110.413, , , , , , ,3.763,-3.582,-124.409
 13:13:13.777,eb:33:2e:f9:57:b5, 2015-01-01 00:57:44.205,1.036,0.78,2.509,-319.946,-259.888,108.459, , , , , , ,2.131,-4.883,-123.926
 13:13:13.777,eb:33:2e:f9:57:b5, 2015-01-01 00:57:44.205,1.015,0.851,2.585,-326.233,-269.958,108.154, , , , , , ,0.445,-6.24,-123.415
 13:13:13.777,eb:33:2e:f9:57:b5, 2015-01-01 00:57:44.205,0.977,0.94,2.729,-333.069,-275.208,109.253, , , , , , ,-1.269,-7.603,-122.855
 13:13:13.777,eb:33:2e:f9:57:b5, 2015-01-01 00:57:44.205,0.949,1.058,2.867,-336.853,-278.076,110.291, , , , , , ,-3.032,-8.97,-122.245
 13:13:13.777,eb:33:2e:f9:57:b5, 2015-01-01 00:57:44.205,0.91,1.212,2.987,-335.571,-278.503,110.535, , , , , , ,-4.828,-10.322,-121.591
 13:13:13.777,eb:33:2e:f9:57:b5, 2015-01-01 00:57:44.205,0.858,1.418,3.001,-328.247,-279.114,108.337, , , , , , ,-6.636,-11.667,-120.894
 13:13:13.777,eb:33:2e:f9:57:b5, 2015-01-01 00:57:44.205,0.634,1.623,2.948,-316.284,-280.09,104.004, , , , , , ,-8.394,-12.986,-120.168
 13:13:13.777,eb:33:2e:f9:57:b5, 2015-01-01 00:57:44.205,0.025,1.722,2.736,-297.18,-285.95,98.145, , , , , , ,-10.102,-14.299,-119.421
 13:13:13.822,eb:33:2e:f9:57:b5, 2015-01-01 00:57:44.205,-0.333,1.507,2.23,-263.611,-321.472,92.163, , , , , , ,-11.689,-15.705,-118.641
 13:13:13.822,eb:33:2e:f9:57:b5, 2015-01-01 00:57:44.205,-0.445,1.545,2.433,-231.018,-351.501,89.233, , , , , , ,-13.162,-17.298,-117.795
 13:13:13.822,eb:33:2e:f9:57:b5, 2015-01-01 00:57:44.205,-0.681,1.614,3.002,-220.886,-338.684,91.431, , , , , , ,-14.562,-18.869,-116.9
 13:13:13.822,eb:33:2e:f9:57:b5, 2015-01-01 00:57:44.205,-0.948,1.698,3.527,-216.614,-294.861,95.276, , , , , , ,-15.958,-20.264,-115.983
 13:13:13.822,eb:33:2e:f9:57:b5, 2015-01-01 00:57:44.205,-1.315,1.786,3.645,-214.844,-236.511,99.854, , , , , , ,-17.358,-21.368,-115.082
 13:13:13.822,eb:33:2e:f9:57:b5, 2015-01-01 00:57:44.205,-1.512,1.979,3.183,-209.656,-191.284,103.943, , , , , , ,-18.748,-22.203,-114.208
 13:13:13.822,eb:33:2e:f9:57:b5, 2015-01-01 00:57:44.205,-1.688,2.32,2.701,-200.928,-156.555,106.384, , , , , , ,-20.099,-22.83,-113.362
 13:13:13.822,eb:33:2e:f9:57:b5, 2015-01-01 00:57:44.205,-2.083,2.804,2.281,-186.34,-129.211,106.445, , , , , , ,-21.379,-23.297,-112.555
 13:13:13.868,eb:33:2e:f9:57:b5, 2015-01-01 00:57:44.205,-2.708,3.448,1.764,-164.062,-115.784,107.422, , , , , , ,-22.56,-23.654,-111.769
 13:13:13.868,eb:33:2e:f9:57:b5, 2015-01-01 00:57:44.205,-3.041,4.203,1.568,-115.601,-117.859,109.375, , , , , , ,-23.582,-23.972,-110.973
 13:13:13.868,eb:33:2e:f9:57:b5, 2015-01-01 00:57:44.205,-2.949,4.527,2.238,-47.424,-108.643,99.915, , , , , , ,-24.28,-24.296,-110.193
 13:13:13.868,eb:33:2e:f9:57:b5, 2015-01-01 00:57:44.205,-2.748,4.724,2.962,22.217,-58.35,84.351, , , , , , ,-24.565,-24.472,-109.556
 13:13:13.868,eb:33:2e:f9:57:b5, 2015-01-01 00:57:44.205,-2.698,4.452,2.866,63.477,12.878,78.918, , , , , , ,-24.5,-24.351,-109.138
 13:13:13.868,eb:33:2e:f9:57:b5, 2015-01-01 00:57:44.205,-2.102,3.952,2.115,91.675,49.255,64.453, , , , , , ,-24.203,-24.055,-108.864
 13:13:13.868,eb:33:2e:f9:57:b5, 2015-01-01 00:57:44.205,-1.753,3.317,2.11,103.638,93.201,48.218, , , , , , ,-23.741,-23.593,-108.759
 13:13:13.868,eb:33:2e:f9:57:b5, 2015-01-01 00:57:44.205,-1.419,2.798,1.855,105.774,119.934,32.471, , , , , , ,-23.198,-23.005,-108.809
 13:13:13.911,eb:33:2e:f9:57:b5, 2015-01-01 00:57:44.520,1.489,2.399,1.636,103.821,135.559,16.846, , , , , , ,-22.61,-22.363,-108.968
 13:13:13.911,eb:33:2e:f9:57:b5, 2015-01-01 00:57:44.520,0.021,2.583,6.172,200.073,178.894,-104.187, , , , , , ,-21.605,-22.017,-109.385
 13:13:13.911,eb:33:2e:f9:57:b5, 2015-01-01 00:57:44.520,2.34,0.955,1.817,193.848,320.74,-110.901, , , , , , ,-20.259,-20.55,-110.511
 13:13:13.911,eb:33:2e:f9:57:b5, 2015-01-01 00:57:44.520,0.805,-0.759,1.396,211.67,373.962,-83.618, , , , , , ,-18.831,-19.297,-111.599
 13:13:13.911,eb:33:2e:f9:57:b5, 2015-01-01 00:57:44.520,0.796,-0.43,1.227,208.191,441.406,-62.866, , , , , , ,-17.468,-17.336,-112.621
 13:13:13.911,eb:33:2e:f9:57:b5, 2015-01-01 00:57:44.520,0.467,-0.84,1.549,212.83,457.275,-46.57, , , , , , ,-16.139,-15.216,-113.582
 13:13:13.911,eb:33:2e:f9:57:b5, 2015-01-01 00:57:44.520,-0.011,-1.16,1.018,238.098,418.274,-23.682, , , , , , ,-14.815,-13.173,-114.351
 13:13:13.911,eb:33:2e:f9:57:b5, 2015-01-01 00:57:44.520,-0.338,-0.838,0.828,249.695,333.862,-7.019, , , , , , ,-13.458,-11.371,-114.857
 13:13:13.957,eb:33:2e:f9:57:b5, 2015-01-01 00:57:44.520,-0.787,-0.6,1,247.925,281.86,6.775, , , , , , ,-12.156,-9.904,-115.17
 13:13:13.957,eb:33:2e:f9:57:b5, 2015-01-01 00:57:44.520,-0.553,-0.025,1.135,231.995,230.347,1.831, , , , , , ,-10.909,-8.674,-115.417
 13:13:13.957,eb:33:2e:f9:57:b5, 2015-01-01 00:57:44.520,-0.383,0.296,1.075,203.674,200.562,-1.221, , , , , , ,-9.811,-7.608,-115.615
 13:13:13.957,eb:33:2e:f9:57:b5, 2015-01-01 00:57:44.520,-0.349,0.252,1.246,174.744,177.673,-5.92, , , , , , ,-8.855,-6.68,-115.779
 13:13:13.957,eb:33:2e:f9:57:b5, 2015-01-01 00:57:44.520,-0.181,0.25,1.475,145.02,162.231,-12.817, , , , , , ,-8.053,-5.872,-115.966
 13:13:13.957,eb:33:2e:f9:57:b5, 2015-01-01 00:57:44.520,-0.418,0.101,1.334,127.808,159.424,-6.47, , , , , , ,-7.355,-5.081,-116.12
 13:13:13.957,eb:33:2e:f9:57:b5, 2015-01-01 00:57:44.520,-0.311,0.043,1.138,116.455,135.132,-1.465, , , , , , ,-6.74,-4.356,-116.224
 13:13:13.957,eb:33:2e:f9:57:b5, 2015-01-01 00:57:44.520,-0.274,-0.033,1.093,105.469,113.892,14.465, , , , , , ,-6.191,-3.752,-116.246
 13:13:13.979,eb:33:2e:f9:57:b5, 2015-01-01 00:57:44.520,-0.315,0.154,1.042,94.727,105.713,15.015, , , , , , ,-5.696,-3.208,-116.224
 13:13:13.979,eb:33:2e:f9:57:b5, 2015-01-01 00:57:44.520,-0.238,0.217,0.944,81.421,91.431,11.169, , , , , , ,-5.251,-2.697,-116.213
 13:13:13.979,eb:33:2e:f9:57:b5, 2015-01-01 00:57:44.520,-0.205,0.168,0.938,69.458,70.496,9.277, , , , , , ,-4.883,-2.302,-116.197
 13:13:13.979,eb:33:2e:f9:57:b5, 2015-01-01 00:57:44.520,-0.142,-0.034,0.918,67.139,53.284,7.874, , , , , , ,-4.548,-2.005,-116.18
 13:13:13.979,eb:33:2e:f9:57:b5, 2015-01-01 00:57:44.520,-0.04,-0.173,0.886,67.078,45.532,13.733, , , , , , ,-4.213,-1.758,-116.142
 13:13:13.979,eb:33:2e:f9:57:b5, 2015-01-01 00:57:44.520,0.08,-0.137,0.878,65.308,39.795,20.996, , , , , , ,-3.873,-1.538,-116.065
 13:13:13.979,eb:33:2e:f9:57:b5, 2015-01-01 00:57:44.520,0.013,0.089,0.917,57.922,39.062,23.315, , , , , , ,-3.565,-1.335,-115.966
 13:13:13.979,eb:33:2e:f9:57:b5, 2015-01-01 00:57:44.520,-0.132,0.242,0.905,46.509,41.199,18.921, , , , , , ,-3.312,-1.126,-115.873
 13:13:14.024,eb:33:2e:f9:57:b5, 2015-01-01 00:57:44.520,-0.159,0.183,0.822,36.255,35.095,16.357, , , , , , ,-3.115,-0.934,-115.796
 13:13:14.024,eb:33:2e:f9:57:b5, 2015-01-01 00:57:44.520,-0.069,0.073,0.84,30.701,26.855,16.418, , , , , , ,-2.939,-0.769,-115.724
 13:13:14.024,eb:33:2e:f9:57:b5, 2015-01-01 00:57:44.520,0.012,0.047,0.924,28.87,20.935,15.381, , , , , , ,-2.791,-0.654,-115.648
 13:13:14.024,eb:33:2e:f9:57:b5, 2015-01-01 00:57:44.520,-0.007,0.023,1.014,28.259,20.935,13.367, , , , , , ,-2.648,-0.544,-115.582
 13:13:14.024,eb:33:2e:f9:57:b5, 2015-01-01 00:57:44.520,-0.041,0.023,1.044,27.161,21.606,11.963, , , , , , ,-2.51,-0.434,-115.527
 13:13:14.024,eb:33:2e:f9:57:b5, 2015-01-01 00:57:44.520,-0.104,0.013,1.053,26.184,20.691,11.108, , , , , , ,-2.368,-0.319,-115.472
 13:13:14.024,eb:33:2e:f9:57:b5, 2015-01-01 00:57:44.520,-0.088,0.041,1.006,24.414,14.893,9.277, , , , , , ,-2.241,-0.231,-115.422
 13:13:14.024,eb:33:2e:f9:57:b5, 2015-01-01 00:57:44.520,-0.073,0.026,0.998,22.522,12.39,7.874, , , , , , ,-2.126,-0.165,-115.384
 13:13:14.069,eb:33:2e:f9:57:b5, 2015-01-01 00:57:44.520,-0.056,0.016,0.97,20.63,10.376,6.47, , , , , , ,-2.021,-0.11,-115.351
 13:13:14.069,eb:33:2e:f9:57:b5, 2015-01-01 00:57:44.520,-0.069,0.032,0.964,18.799,8.24,5.066, , , , , , ,-1.912,-0.055,-115.323
 13:13:14.069,eb:33:2e:f9:57:b5, 2015-01-01 00:57:44.520,-0.054,0.033,0.961,17.212,4.761,3.54, , , , , , ,-1.818,-0.022,-115.307
 13:13:14.069,eb:33:2e:f9:57:b5, 2015-01-01 00:57:44.520,-0.061,0.024,1.007,15.991,3.418,2.136, , , , , , ,-1.736,-0.005,-115.291
 13:13:14.069,eb:33:2e:f9:57:b5, 2015-01-01 00:57:44.520,-0.07,0.008,1.025,15.686,1.953,0.549, , , , , , ,-1.659,0,-115.285
 13:13:14.069,eb:33:2e:f9:57:b5, 2015-01-01 00:57:44.520,-0.069,-0.012,1.025,16.235,-0.305,-0.122, , , , , , ,-1.566,0.011,-115.285
 13:13:14.069,eb:33:2e:f9:57:b5, 2015-01-01 00:57:44.520,-0.06,-0.019,1.019,17.151,-3.296,-0.793, , , , , , ,-1.483,0,-115.285
 13:13:14.069,eb:33:2e:f9:57:b5, 2015-01-01 00:57:44.520,-0.064,-0.011,1.02,17.639,-4.883,-1.77, , , , , , ,-1.395,-0.016,-115.291
 13:13:14.114,eb:33:2e:f9:57:b5, 2015-01-01 00:57:44.520,-0.071,-0.012,1.009,17.883,-6.47,-2.441, , , , , , ,-1.307,-0.044,-115.302
 13:13:14.114,eb:33:2e:f9:57:b5, 2015-01-01 00:57:44.520,-0.066,-0.016,1,17.822,-8.606,-2.93, , , , , , ,-1.203,-0.077,-115.312
 13:13:14.114,eb:33:2e:f9:57:b5, 2015-01-01 00:57:44.520,-0.068,-0.011,0.997,17.456,-10.254,-3.235, , , , , , ,-1.115,-0.126,-115.329
 13:13:14.114,eb:33:2e:f9:57:b5, 2015-01-01 00:57:44.520,-0.063,-0.015,0.995,17.029,-12.39,-3.113, , , , , , ,-1.033,-0.181,-115.345
 13:13:14.114,eb:33:2e:f9:57:b5, 2015-01-01 00:57:44.520,-0.04,-0.016,0.998,16.663,-14.526,-2.563, , , , , , ,-0.945,-0.253,-115.356
 13:13:14.114,eb:33:2e:f9:57:b5, 2015-01-01 00:57:44.520,-0.021,0.002,1.016,15.869,-14.893,-3.052, , , , , , ,-0.857,-0.319,-115.367
 13:13:14.115,eb:33:2e:f9:57:b5, 2015-01-01 00:57:44.520,-0.014,0.013,1.022,14.587,-14.16,-3.479, , , , , , ,-0.78,-0.396,-115.384
 13:13:14.115,eb:33:2e:f9:57:b5, 2015-01-01 00:57:44.520,-0.011,0.014,1.028,13.245,-12.756,-3.662, , , , , , ,-0.709,-0.461,-115.4
 13:13:14.137,eb:33:2e:f9:57:b5, 2015-01-01 00:57:44.520,-0.009,0.009,1.031,12.451,-11.23,-4.028, , , , , , ,-0.643,-0.522,-115.422
 13:13:14.137,eb:33:2e:f9:57:b5, 2015-01-01 00:57:44.520,-0.002,0,1.033,12.512,-10.376,-4.15, , , , , , ,-0.571,-0.566,-115.439
 13:13:14.137,eb:33:2e:f9:57:b5, 2015-01-01 00:57:44.520,-0.021,0,1.033,13.123,-9.583,-4.517, , , , , , ,-0.505,-0.615,-115.461
 13:13:14.137,eb:33:2e:f9:57:b5, 2015-01-01 00:57:44.520,-0.007,-0.024,1.05,14.526,-9.521,-4.272, , , , , , ,-0.439,-0.665,-115.483
 13:13:14.137,eb:33:2e:f9:57:b5, 2015-01-01 00:57:44.520,0.017,-0.031,1.078,17.517,-10.254,-4.089, , , , , , ,-0.357,-0.72,-115.505
 13:13:14.137,eb:33:2e:f9:57:b5, 2015-01-01 00:57:44.520,0.03,-0.023,1.091,19.348,-7.568,-3.54, , , , , , ,-0.253,-0.753,-115.521
 13:13:14.138,eb:33:2e:f9:57:b5, 2015-01-01 00:57:44.520,0.042,0,1.073,19.47,-4.7,-3.357, , , , , , ,-0.154,-0.786,-115.543
 13:13:14.138,eb:33:2e:f9:57:b5, 2015-01-01 00:57:44.520,0.041,0.022,1.05,17.7,-0.183,-2.625, , , , , , ,-0.06,-0.797,-115.554
 13:13:14.183,eb:33:2e:f9:57:b5, 2015-01-01 00:57:44.520,0.031,0.041,1.029,15.625,3.418,-1.953, , , , , , ,0.016,-0.786,-115.565
 13:13:14.183,eb:33:2e:f9:57:b5, 2015-01-01 00:57:44.520,0.029,0.044,0.998,14.465,4.944,-1.099, , , , , , ,0.104,-0.758,-115.576
 13:13:14.183,eb:33:2e:f9:57:b5, 2015-01-01 00:57:44.520,0.04,0.058,0.967,12.573,5.737,-1.343, , , , , , ,0.17,-0.731,-115.582
 13:13:14.183,eb:33:2e:f9:57:b5, 2015-01-01 00:57:44.520,0.034,0.052,0.971,11.658,7.08,-1.526, , , , , , ,0.231,-0.698,-115.587
 13:13:14.183,eb:33:2e:f9:57:b5, 2015-01-01 00:57:44.520,0.008,0.052,0.966,10.742,7.935,-2.563, , , , , , ,0.286,-0.659,-115.598
 13:13:14.183,eb:33:2e:f9:57:b5, 2015-01-01 00:57:44.520,-0.016,0.023,0.976,11.902,6.165,-2.808, , , , , , ,0.352,-0.615,-115.615
 13:13:14.183,eb:33:2e:f9:57:b5, 2015-01-01 00:57:44.520,-0.054,0,0.972,14.526,2.808,-2.441, , , , , , ,0.423,-0.593,-115.626
 13:13:14.183,eb:33:2e:f9:57:b5, 2015-01-01 00:57:44.520,-0.064,-0.026,0.998,16.113,0.305,-1.221, , , , , , ,0.5,-0.588,-115.631
 13:13:14.226,eb:33:2e:f9:57:b5, 2015-01-01 00:57:44.810,-0.055,-0.003,0.95,17.029,-3.479,-0.366, , , , , , ,0.582,-0.599,-115.637
 13:13:14.226,eb:33:2e:f9:57:b5, 2015-01-01 00:57:44.810,-0.031,0.002,0.962,17.639,-6.165,0, , , , , , ,0.681,-0.615,-115.637
 13:13:14.226,eb:33:2e:f9:57:b5, 2015-01-01 00:57:44.810,-0.012,0.006,0.978,18.433,-7.324,0.244, , , , , , ,0.775,-0.654,-115.637
 13:13:14.226,eb:33:2e:f9:57:b5, 2015-01-01 00:57:44.810,0.013,0.014,0.986,18.25,-6.348,0.244, , , , , , ,0.862,-0.687,-115.637
 13:13:14.227,eb:33:2e:f9:57:b5, 2015-01-01 00:57:44.810,0.011,0.019,1.006,18.555,-4.7,1.038, , , , , , ,0.956,-0.709,-115.631
 13:13:14.227,eb:33:2e:f9:57:b5, 2015-01-01 00:57:44.810,0.032,0.021,1.019,19.958,-5.737,0, , , , , , ,1.066,-0.731,-115.631
 13:13:14.227,eb:33:2e:f9:57:b5, 2015-01-01 00:57:44.810,0.049,0.036,0.986,19.775,-3.296,-0.061, , , , , , ,1.165,-0.753,-115.631
 13:13:14.227,eb:33:2e:f9:57:b5, 2015-01-01 00:57:44.810,0.062,0.079,1.016,18.616,0.61,-2.258, , , , , , ,1.258,-0.764,-115.637
 13:13:14.271,eb:33:2e:f9:57:b5, 2015-01-01 00:57:44.810,0.081,0.089,0.965,17.456,3.113,-5.005, , , , , , ,1.351,-0.747,-115.659
 13:13:14.271,eb:33:2e:f9:57:b5, 2015-01-01 00:57:44.810,0.038,0.054,1,16.663,7.446,-6.104, , , , , , ,1.445,-0.709,-115.686
 13:13:14.271,eb:33:2e:f9:57:b5, 2015-01-01 00:57:44.810,0.026,0.045,1.002,17.395,8.179,-7.202, , , , , , ,1.533,-0.665,-115.719
 13:13:14.271,eb:33:2e:f9:57:b5, 2015-01-01 00:57:44.810,0.007,0.057,0.99,18.494,7.385,-7.568, , , , , , ,1.62,-0.632,-115.757
 13:13:14.271,eb:33:2e:f9:57:b5, 2015-01-01 00:57:44.810,0.065,0.061,0.986,17.883,9.094,-7.812, , , , , , ,1.714,-0.588,-115.79
 13:13:14.271,eb:33:2e:f9:57:b5, 2015-01-01 00:57:44.810,0.064,0.085,1.01,16.968,13.611,-9.033, , , , , , ,1.813,-0.522,-115.834
 13:13:14.271,eb:33:2e:f9:57:b5, 2015-01-01 00:57:44.810,0.065,0.077,1.033,17.639,16.602,-9.644, , , , , , ,1.895,-0.439,-115.878
 13:13:14.271,eb:33:2e:f9:57:b5, 2015-01-01 00:57:44.810,0.042,0.079,1.037,17.212,21.24,-10.437, , , , , , ,1.983,-0.341,-115.928
 13:13:14.317,eb:33:2e:f9:57:b5, 2015-01-01 00:57:44.810,0.034,0.083,1.051,15.564,25.757,-11.353, , , , , , ,2.065,-0.22,-115.977
 13:13:14.317,eb:33:2e:f9:57:b5, 2015-01-01 00:57:44.810,0.052,0.064,1.049,14.221,30.212,-11.108, , , , , , ,2.153,-0.066,-116.027
 13:13:14.317,eb:33:2e:f9:57:b5, 2015-01-01 00:57:44.810,0.037,0.081,1.042,14.221,32.166,-12.695, , , , , , ,2.225,0.082,-116.082
 13:13:14.317,eb:33:2e:f9:57:b5, 2015-01-01 00:57:44.810,0.037,0.077,1.04,14.465,34.18,-13.977, , , , , , ,2.296,0.253,-116.142
 13:13:14.317,eb:33:2e:f9:57:b5, 2015-01-01 00:57:44.810,0.033,0.07,1.058,15.259,36.133,-15.137, , , , , , ,2.368,0.434,-116.208
 13:13:14.317,eb:33:2e:f9:57:b5, 2015-01-01 00:57:44.810,0.009,0.054,1.065,16.602,38.757,-15.381, , , , , , ,2.461,0.632,-116.274
 13:13:14.317,eb:33:2e:f9:57:b5, 2015-01-01 00:57:44.810,-0.017,0.05,1.046,17.944,40.283,-15.625, , , , , , ,2.543,0.835,-116.345
 13:13:14.317,eb:33:2e:f9:57:b5, 2015-01-01 00:57:44.810,-0.039,0.048,1.038,19.165,41.138,-16.479, , , , , , ,2.637,1.038,-116.417
 13:13:14.339,eb:33:2e:f9:57:b5, 2015-01-01 00:57:44.810,-0.06,0.045,1.028,20.203,41.443,-17.09, , , , , , ,2.736,1.252,-116.488
 13:13:14.339,eb:33:2e:f9:57:b5, 2015-01-01 00:57:44.810,-0.072,0.045,1.023,21.545,41.504,-17.212, , , , , , ,2.851,1.467,-116.565
 13:13:14.339,eb:33:2e:f9:57:b5, 2015-01-01 00:57:44.810,-0.072,0.042,1,22.888,40.039,-16.479, , , , , , ,2.961,1.675,-116.636
 13:13:14.339,eb:33:2e:f9:57:b5, 2015-01-01 00:57:44.810,-0.103,0.045,1.017,24.231,39.246,-15.808, , , , , , ,3.076,1.879,-116.708
 13:13:14.339,eb:33:2e:f9:57:b5, 2015-01-01 00:57:44.810,-0.115,0.037,1.023,26.001,37.903,-15.564, , , , , , ,3.197,2.071,-116.774
 13:13:14.339,eb:33:2e:f9:57:b5, 2015-01-01 00:57:44.810,-0.103,0.037,0.991,27.771,35.645,-15.503, , , , , , ,3.345,2.269,-116.84
 13:13:14.339,eb:33:2e:f9:57:b5, 2015-01-01 00:57:44.810,-0.106,0.031,1.009,29.541,34.119,-14.526, , , , , , ,3.483,2.444,-116.906
 13:13:14.339,eb:33:2e:f9:57:b5, 2015-01-01 00:57:44.810,-0.118,0.035,1.002,31.433,31.921,-13.611, , , , , , ,3.636,2.615,-116.96
 13:13:14.384,eb:33:2e:f9:57:b5, 2015-01-01 00:57:44.810,-0.129,0.018,1.037,33.386,30.518,-12.146, , , , , , ,3.796,2.774,-117.015
 13:13:14.384,eb:33:2e:f9:57:b5, 2015-01-01 00:57:44.810,-0.134,0.031,1.053,36.804,26.978,-10.559, , , , , , ,3.977,2.922,-117.059
 13:13:14.384,eb:33:2e:f9:57:b5, 2015-01-01 00:57:44.810,-0.124,0.016,1.096,39.551,26.245,-8.911, , , , , , ,4.169,3.06,-117.098
 13:13:14.385,eb:33:2e:f9:57:b5, 2015-01-01 00:57:44.810,-0.111,0.034,1.096,42.419,24.231,-7.751, , , , , , ,4.373,3.186,-117.131
 13:13:14.385,eb:33:2e:f9:57:b5, 2015-01-01 00:57:44.810,-0.099,0.045,1.113,46.204,21.79,-7.507, , , , , , ,4.598,3.301,-117.158
 13:13:14.385,eb:33:2e:f9:57:b5, 2015-01-01 00:57:44.810,-0.079,0.024,1.18,50.415,21.118,-6.348, , , , , , ,4.85,3.417,-117.18
 13:13:14.385,eb:33:2e:f9:57:b5, 2015-01-01 00:57:44.810,-0.078,0.032,1.183,55.542,19.897,-5.371, , , , , , ,5.114,3.521,-117.202
 13:13:14.385,eb:33:2e:f9:57:b5, 2015-01-01 00:57:44.810,-0.112,0.05,1.179,60.547,19.287,-5.493, , , , , , ,5.405,3.62,-117.219
 13:13:14.429,eb:33:2e:f9:57:b5, 2015-01-01 00:57:44.810,-0.146,0.025,1.24,65.918,20.813,-5.066, , , , , , ,5.724,3.724,-117.235
 13:13:14.429,eb:33:2e:f9:57:b5, 2015-01-01 00:57:44.810,-0.101,-0.02,1.305,72.876,20.447,-4.272, , , , , , ,6.081,3.834,-117.246
 13:13:14.429,eb:33:2e:f9:57:b5, 2015-01-01 00:57:44.810,-0.058,0.011,1.291,81.238,17.578,-3.052, , , , , , ,6.471,3.933,-117.252
 13:13:14.429,eb:33:2e:f9:57:b5, 2015-01-01 00:57:44.810,-0.076,0.084,1.27,89.172,13,-4.883, , , , , , ,6.899,4.005,-117.263
 13:13:14.429,eb:33:2e:f9:57:b5, 2015-01-01 00:57:44.810,-0.061,0,1.481,96.375,17.578,-3.479, , , , , , ,7.366,4.087,-117.274
 13:13:14.429,eb:33:2e:f9:57:b5, 2015-01-01 00:57:44.810,-0.033,-0.014,1.543,103.882,24.231,-1.831, , , , , , ,7.877,4.202,-117.274
 13:13:14.429,eb:33:2e:f9:57:b5, 2015-01-01 00:57:44.810,-0.038,0.082,1.353,114.014,20.752,-4.7, , , , , , ,8.432,4.312,-117.268
 13:13:14.429,eb:33:2e:f9:57:b5, 2015-01-01 00:57:44.810,0.005,0.048,1.41,123.23,19.775,-5.798, , , , , , ,9.025,4.417,-117.279
 13:13:14.475,eb:33:2e:f9:57:b5, 2015-01-01 00:57:44.810,0.034,0.056,1.502,132.751,24.231,-6.531, , , , , , ,9.668,4.532,-117.29
 13:13:14.475,eb:33:2e:f9:57:b5, 2015-01-01 00:57:44.810,0.071,0.109,1.496,142.151,27.71,-9.521, , , , , , ,10.371,4.675,-117.307
 13:13:14.475,eb:33:2e:f9:57:b5, 2015-01-01 00:57:44.810,0.042,0.095,1.502,151.184,34.058,-11.292, , , , , , ,11.107,4.839,-117.334
 13:13:14.475,eb:33:2e:f9:57:b5, 2015-01-01 00:57:44.810,0.007,0.062,1.551,158.752,41.748,-11.963, , , , , , ,11.882,5.037,-117.35
 13:13:14.475,eb:33:2e:f9:57:b5, 2015-01-01 00:57:44.810,0.021,0.051,1.568,167.908,48.828,-12.878, , , , , , ,12.706,5.279,-117.361
 13:13:14.475,eb:33:2e:f9:57:b5, 2015-01-01 00:57:44.810,-0.044,0.054,1.517,177.49,53.65,-12.146, , , , , , ,13.579,5.554,-117.361
 13:13:14.476,eb:33:2e:f9:57:b5, 2015-01-01 00:57:44.810,-0.043,0.023,1.513,187.988,54.016,-11.719, , , , , , ,14.496,5.828,-117.356
 13:13:14.476,eb:33:2e:f9:57:b5, 2015-01-01 00:57:44.810,-0.07,0.006,1.542,199.402,55.786,-9.46, , , , , , ,15.474,6.108,-117.328
 13:13:14.542,eb:33:2e:f9:57:b5, 2015-01-01 00:57:45.120,-0.078,0.026,1.484,212.891,50.781,-10.132, , , , , , ,16.512,6.378,-117.301
 13:13:14.542,eb:33:2e:f9:57:b5, 2015-01-01 00:57:45.120,-0.064,0,1.521,227.112,44.556,-10.01, , , , , , ,17.633,6.619,-117.279
 13:13:14.542,eb:33:2e:f9:57:b5, 2015-01-01 00:57:45.120,-0.079,0.002,1.603,242.432,40.039,-10.925, , , , , , ,18.814,6.839,-117.263
 13:13:14.542,eb:33:2e:f9:57:b5, 2015-01-01 00:57:45.120,-0.054,0.007,1.703,258.667,32.288,-13.794, , , , , , ,20.078,7.02,-117.263
 13:13:14.542,eb:33:2e:f9:57:b5, 2015-01-01 00:57:45.120,-0.09,-0.075,1.853,275.391,30.09,-14.893, , , , , , ,21.418,7.191,-117.279
 13:13:14.542,eb:33:2e:f9:57:b5, 2015-01-01 00:57:45.120,0.052,0.044,1.958,292.542,20.02,-20.386, , , , , , ,22.846,7.344,-117.307
 13:13:14.542,eb:33:2e:f9:57:b5, 2015-01-01 00:57:45.120,0.079,-0.051,2.086,312.439,14.832,-24.902, , , , , , ,24.357,7.465,-117.383
 13:13:14.542,eb:33:2e:f9:57:b5, 2015-01-01 00:57:45.120,0.049,-0.063,2.077,331.604,10.559,-30.701, , , , , , ,25.966,7.586,-117.477
 13:13:14.587,eb:33:2e:f9:57:b5, 2015-01-01 00:57:45.120,0.113,-0.198,2.357,359.07,12.695,-36.743, , , , , , ,27.686,7.712,-117.609
 13:13:14.587,eb:33:2e:f9:57:b5, 2015-01-01 00:57:45.120,0.189,-0.105,2.348,379.395,10.01,-39.917, , , , , , ,29.531,7.861,-117.751
 13:13:14.587,eb:33:2e:f9:57:b5, 2015-01-01 00:57:45.120,0.259,0.144,2.284,407.715,-6.104,-50.781, , , , , , ,31.481,7.982,-117.944
 13:13:14.587,eb:33:2e:f9:57:b5, 2015-01-01 00:57:45.120,0.236,0.191,2.641,433.35,-14.893,-66.101, , , , , , ,33.558,8.086,-118.235
 13:13:14.587,eb:33:2e:f9:57:b5, 2015-01-01 00:57:45.120,0.351,-0.025,3.101,449.89,7.629,-70.801, , , , , , ,35.733,8.273,-118.531
 13:13:14.587,eb:33:2e:f9:57:b5, 2015-01-01 00:57:45.120,0.431,-0.091,3.014,471.497,20.874,-72.876, , , , , , ,38.013,8.564,-118.768
 13:13:14.587,eb:33:2e:f9:57:b5, 2015-01-01 00:57:45.120,0.532,0.442,2.72,490.54,14.16,-87.341, , , , , , ,40.391,8.882,-119.026
 13:13:14.587,eb:33:2e:f9:57:b5, 2015-01-01 00:57:45.120,0.521,0.496,2.777,502.625,8.484,-101.807, , , , , , ,42.83,9.245,-119.339
 13:13:14.608,eb:33:2e:f9:57:b5, 2015-01-01 00:57:45.120,0.38,0.496,2.982,508.179,1.526,-117.065, , , , , , ,45.297,9.641,-119.74
 13:13:14.608,eb:33:2e:f9:57:b5, 2015-01-01 00:57:45.120,0.41,0.491,3.699,503.296,26.123,-122.375, , , , , , ,47.763,10.124,-120.103
 13:13:14.608,eb:33:2e:f9:57:b5, 2015-01-01 00:57:45.120,0.551,0.209,4.128,498.657,68.726,-120.85, , , , , , ,50.224,10.745,-120.311
 13:13:14.608,eb:33:2e:f9:57:b5, 2015-01-01 00:57:45.120,0.99,0.115,3.899,500,96.619,-119.995, , , , , , ,52.718,11.492,-120.333
 13:13:14.608,eb:33:2e:f9:57:b5, 2015-01-01 00:57:45.120,1.26,-0.123,2.829,497.498,87.463,-128.235, , , , , , ,55.212,12.277,-120.311
 13:13:14.608,eb:33:2e:f9:57:b5, 2015-01-01 00:57:45.120,1.327,-0.005,2.128,499.146,46.936,-144.348, , , , , , ,57.673,13.024,-120.432
 13:13:14.608,eb:33:2e:f9:57:b5, 2015-01-01 00:57:45.120,1.495,-0.318,1.886,492.493,10.01,-162.415, , , , , , ,60.084,13.766,-120.729
 13:13:14.608,eb:33:2e:f9:57:b5, 2015-01-01 00:57:45.120,1.305,-0.571,1.066,469.36,-29.236,-187.866, , , , , , ,62.364,14.507,-121.218
 13:13:14.631,eb:33:2e:f9:57:b5, 2015-01-01 00:57:45.120,1.969,-1.173,0.364,421.631,-75.623,-218.994, , , , , , ,64.402,15.276,-121.97
 13:13:14.631,eb:33:2e:f9:57:b5, 2015-01-01 00:57:45.120,0.948,-0.148,-0.352,304.932,-27.832,-252.136, , , , , , ,65.962,16.282,-122.717
 13:13:14.631,eb:33:2e:f9:57:b5, 2015-01-01 00:57:45.120,0.74,-0.502,-0.312,176.208,-31.433,-233.887, , , , , , ,66.912,17.331,-123.376
 13:13:14.631,eb:33:2e:f9:57:b5, 2015-01-01 00:57:45.120,0.486,-0.791,0.804,61.462,-23.254,-214.478, , , , , , ,67.258,18.303,-123.937
