Time,Device name,Chip Time(),Acceleration X(g),Acceleration Y(g),Acceleration Z(g),Angular velocity X(°/s),Angular velocity Y(°/s),Angular velocity Z(°/s),Angle X(°),Angle Y(°),Angle Z(°)
 14:54:45.552,eb:33:2e:f9:57:b5, 2085-97-246 00:168:246:2356,-0.105,-1.295,1.092,406.25,132.019,41.26,-22.956,-2.043,-136.456
 14:54:45.552,eb:33:2e:f9:57:b5, 2085-97-229 252:46:254:3513,-0.552,-0.672,1.55,446.655,70.312,28.687,-18.605,-1.093,-136.467
 14:54:45.552,eb:33:2e:f9:57:b5, 2085-97-17 252:117:04:3578,-0.347,0.173,1.707,390.625,63.416,24.17,-14.381,-0.379,-136.434
 14:54:45.552,eb:33:2e:f9:57:b5, 2085-97-00 254:172:04:3091,-0.176,0.625,1.69,294.189,47.974,13,-10.997,0.203,-136.368
 14:54:45.582,eb:33:2e:f9:57:b5, 2085-97-243 254:153:03:2639,-0.078,0.514,1.398,205.566,13.794,-15.808,-8.569,0.478,-136.456
 14:54:45.582,eb:33:2e:f9:57:b5, 2085-97-241 255:107:00:2336,0.062,0.286,1.197,161.194,-1.831,-36.011,-6.795,0.478,-136.747
 14:54:45.582,eb:33:2e:f9:57:b5, 2085-97-133 00:182:254:2220,0.061,-0.097,1.099,147.522,-7.507,-38.696,-5.279,0.401,-137.131
 14:54:45.582,eb:33:2e:f9:57:b5, 2085-97-153 00:37:00:2286,0.072,-0.068,1.075,139.16,-19.226,-38.33,-3.84,0.225,-137.499
 14:54:45.672,eb:33:2e:f9:57:b5, 2085-97-114 00:204:02:2118,0.062,0.193,1.092,112.366,-8.057,-37.048,-2.571,0.066,-137.867
 14:54:45.672,eb:33:2e:f9:57:b5, 2085-97-109 00:116:02:1991,-0.004,0.373,1,62.073,6.958,-30.09,-1.725,0.06,-138.192
 14:54:45.672,eb:33:2e:f9:57:b5, 2085-97-101 255:06:01:1850,-0.105,0.236,0.944,25.085,17.334,-19.775,-1.329,0.192,-138.433
 14:54:45.672,eb:33:2e:f9:57:b5, 2085-97-97 255:252:255:1925,-0.025,0.033,0.908,9.888,9.888,-11.597,-1.181,0.33,-138.593
 14:54:45.672,eb:33:2e:f9:57:b5, 2085-97-224 255:43:00:2025,-0.022,0.013,0.979,4.456,5.066,-6.531,-1.11,0.39,-138.675
 14:54:45.672,eb:33:2e:f9:57:b5, 2085-97-224 255:14:00:2031,0.005,0.017,0.983,1.404,5.188,-6.104,-1.088,0.445,-138.741
 14:54:45.672,eb:33:2e:f9:57:b5, 2085-97-37 00:231:255:2110,0.012,-0.001,1.018,-0.488,6.714,-3.662,-1.082,0.494,-138.79
 14:54:45.672,eb:33:2e:f9:57:b5, 2085-97-239 255:225:255:2051,-0.028,-0.015,1.023,-0.244,10.254,-1.648,-1.088,0.588,-138.818
 14:54:45.700,eb:33:2e:f9:57:b5, 2085-97-167 255:226:255:1982,-0.055,-0.014,0.981,0.488,7.812,-0.671,-1.088,0.681,-138.829
 14:54:45.700,eb:33:2e:f9:57:b5, 2085-97-164 255:220:255:1993,-0.033,-0.022,0.96,1.099,1.16,0,-1.077,0.725,-138.834
 14:54:45.700,eb:33:2e:f9:57:b5, 2085-97-200 255:228:255:2018,-0.02,-0.016,0.985,1.282,-2.38,0.61,-1.066,0.714,-138.829
 14:54:45.700,eb:33:2e:f9:57:b5, 2085-97-237 255:01:00:2046,0,-0.007,0.992,1.038,-3.479,1.099,-1.055,0.681,-138.818
 14:54:45.730,eb:33:2e:f9:57:b5, 2085-97-27 00:11:00:2088,0.018,0.005,1.01,0,-0.244,0.549,-1.049,0.659,-138.812
 14:54:45.730,eb:33:2e:f9:57:b5, 2085-97-31 00:02:00:2098,0.012,0.003,1.025,-0.366,5.676,-0.122,-1.055,0.692,-138.807
 14:54:45.730,eb:33:2e:f9:57:b5, 2085-97-12 00:247:255:2077,0.001,-0.002,1.022,0,10.132,-1.038,-1.055,0.775,-138.818
 14:54:45.730,eb:33:2e:f9:57:b5, 2085-97-238 255:254:255:2046,-0.015,-0.002,1.01,0.488,12.878,-2.075,-1.049,0.89,-138.834
 14:54:45.791,eb:33:2e:f9:57:b5, 2085-97-226 255:233:255:2038,-0.022,-0.014,0.998,0.732,13.977,-2.441,-1.044,1.027,-138.862
 14:54:45.791,eb:33:2e:f9:57:b5, 2085-97-207 255:223:255:2035,-0.021,-0.014,0.994,0.916,13.977,-2.197,-1.038,1.17,-138.889
 14:54:45.791,eb:33:2e:f9:57:b5, 2085-97-205 255:208:255:2032,-0.033,-0.021,1,1.709,13.794,-1.831,-1.027,1.307,-138.911
 14:54:45.791,eb:33:2e:f9:57:b5, 2085-97-169 255:213:255:2013,-0.045,-0.022,0.987,3.296,10.803,-1.282,-1,1.428,-138.928
 14:54:45.852,eb:33:2e:f9:57:b5, 2085-97-171 255:212:255:2019,-0.034,-0.024,0.985,4.578,7.385,-0.916,-0.961,1.522,-138.944
 14:54:45.852,eb:33:2e:f9:57:b5, 2085-97-199 255:214:255:2043,-0.017,-0.021,0.993,5.981,4.395,-0.488,-0.906,1.577,-138.95
 14:54:45.852,eb:33:2e:f9:57:b5, 2085-97-234 255:236:255:2063,-0.011,-0.018,1.007,7.385,3.418,0,-0.84,1.615,-138.95
 14:54:45.852,eb:33:2e:f9:57:b5, 2085-97-247 255:06:00:2083,-0.014,-0.001,1.004,6.836,5.432,0.854,-0.764,1.659,-138.95
 14:54:45.853,eb:33:2e:f9:57:b5, 2085-97-245 255:03:00:2105,0.006,0.011,1,6.531,9.155,-0.549,-0.698,1.73,-138.95
 14:54:45.853,eb:33:2e:f9:57:b5, 2085-97-16 00:228:255:2130,0,-0.008,1.04,8.118,12.878,-1.343,-0.626,1.846,-138.961
 14:54:45.853,eb:33:2e:f9:57:b5, 2085-97-227 255:238:255:2100,-0.021,-0.003,1.031,9.949,15.076,-0.244,-0.533,1.989,-138.972
 14:54:45.853,eb:33:2e:f9:57:b5, 2085-97-219 255:235:255:2105,-0.025,-0.014,1.021,11.841,14.893,0.977,-0.423,2.142,-138.966
 14:54:45.911,eb:33:2e:f9:57:b5, 2085-97-197 255:24:00:2078,-0.017,-0.001,1.015,12.695,16.602,2.502,-0.302,2.302,-138.95
 14:54:45.911,eb:33:2e:f9:57:b5, 2085-97-192 255:25:00:2102,-0.031,0.014,1.032,13.733,20.386,1.282,-0.165,2.483,-138.933
 14:54:45.911,eb:33:2e:f9:57:b5, 2085-97-195 255:21:00:2115,-0.042,0.013,1.021,14.954,23.987,0.732,-0.022,2.708,-138.922
 14:54:45.911,eb:33:2e:f9:57:b5, 2085-97-136 255:62:00:2054,-0.042,0.02,1.017,15.686,29.297,0,0.126,2.983,-138.917
 14:54:45.942,eb:33:2e:f9:57:b5, 2085-97-151 255:65:00:2107,-0.061,0.037,1.02,16.113,32.349,-1.831,0.286,3.285,-138.922
 14:54:45.942,eb:33:2e:f9:57:b5, 2085-97-97 255:37:00:2085,-0.051,0.017,1.018,16.113,36.133,-1.587,0.45,3.636,-138.944
 14:54:45.942,eb:33:2e:f9:57:b5, 2085-97-162 255:30:00:2156,-0.069,0.02,1.045,16.602,37.598,-0.549,0.61,3.999,-138.95
 14:54:45.942,eb:33:2e:f9:57:b5, 2085-97-175 255:48:00:2196,-0.057,0.03,1.019,16.663,41.382,0.549,0.78,4.406,-138.944
 14:54:46.000,eb:33:2e:f9:57:b5, 2085-97-97 255:74:00:2094,-0.08,0.028,1.043,17.578,48.157,1.038,0.956,4.856,-138.928
 14:54:46.000,eb:33:2e:f9:57:b5, 2085-97-171 255:92:00:2344,-0.062,0.039,1.074,18.188,50.659,-0.122,1.132,5.35,-138.917
 14:54:46.000,eb:33:2e:f9:57:b5, 2085-113-81 00:200:44:1716,-0.041,0.044,1.105,19.775,60.12,-0.732,1.324,5.911,-138.906
 14:54:46.000,eb:33:2e:f9:57:b5, 2085-97-45 00:27:01:1965,0.168,0.069,1.064,18.799,62.5,-0.305,1.423,6.224,-138.9
 14:54:46.001,eb:33:2e:f9:57:b5, 2085-97-183 254:08:00:2510,-0.419,0.252,0.92,21.423,41.504,-7.324,1.615,6.74,-138.922
 14:54:46.030,eb:33:2e:f9:57:b5, 2085-97-115 253:55:254:4038,-0.248,-0.186,1.486,35.522,47.18,-5.676,1.862,7.218,-138.977
 14:54:46.030,eb:33:2e:f9:57:b5, 2085-97-67 254:236:254:3176,-0.204,-0.222,1.94,67.749,75.195,5.554,2.406,7.822,-138.961
 14:54:46.030,eb:33:2e:f9:57:b5, 2085-97-21 254:100:255:2858,-0.275,-0.047,1.357,84.473,72.998,12.268,3.214,8.586,-138.823
 14:54:46.030,eb:33:2e:f9:57:b5, 2085-97-199 253:206:254:3312,-0.237,-0.129,1.515,99.365,68.115,19.836,4.164,9.267,-138.62
 14:54:46.061,eb:33:2e:f9:57:b5, 2085-97-247 253:242:254:3190,-0.251,-0.137,1.635,120.85,68.848,29.846,5.328,9.926,-138.301
 14:54:46.061,eb:33:2e:f9:57:b5, 2085-97-76 254:122:255:3009,-0.199,-0.109,1.504,138,63.904,37.231,6.707,10.547,-137.889
 14:54:46.061,eb:33:2e:f9:57:b5, 2085-97-90 254:43:255:3368,-0.141,-0.103,1.565,158.447,54.749,40.894,8.284,11.069,-137.417
 14:54:46.061,eb:33:2e:f9:57:b5, 2085-97-120 255:231:255:3515,0.019,-0.062,1.664,176.331,57.739,44.861,10.074,11.552,-136.884
 14:54:46.121,eb:33:2e:f9:57:b5, 2085-97-143 00:00:00:3820,0.136,0.003,1.769,197.205,66.284,37.964,12.063,12.068,-136.351
 14:54:46.121,eb:33:2e:f9:57:b5, 2085-97-127 01:58:00:3992,0.271,0.01,1.909,218.628,91.125,30.396,14.26,12.761,-135.829
 14:54:46.121,eb:33:2e:f9:57:b5, 2085-97-128 02:73:00:4169,0.384,0.038,1.97,244.202,113.464,18.677,16.71,13.694,-135.297
 14:54:46.121,eb:33:2e:f9:57:b5, 2085-97-214 03:216:255:4655,0.58,0.008,2.191,273.804,145.325,3.906,19.435,14.886,-134.78
 14:54:46.151,eb:33:2e:f9:57:b5, 2085-97-55 05:233:255:4589,0.634,-0.008,2.262,307.434,188.538,-12.268,22.516,16.49,-134.193
 14:54:46.151,eb:33:2e:f9:57:b5, 2085-97-143 04:203:254:4732,0.446,-0.073,2.231,345.703,222.351,-31.616,25.994,18.479,-133.517
 14:54:46.151,eb:33:2e:f9:57:b5, 2085-97-127 02:166:254:4786,0.228,-0.214,2.346,382.751,263.062,-41.626,29.954,20.814,-132.665
 14:54:46.151,eb:33:2e:f9:57:b5, 2085-97-74 255:166:03:5491,-0.234,0.072,2.431,415.222,279.236,-51.331,34.398,23.39,-131.495
 14:54:46.181,eb:33:2e:f9:57:b5, 2085-97-118 254:168:06:7082,0.159,0.712,3.019,457.886,235.596,-68.909,39.26,25.84,-130.325
 14:54:46.181,eb:33:2e:f9:57:b5, 2085-97-180 03:198:02:6097,0.505,0.625,3.491,514.465,178.284,-86.548,44.517,27.856,-129.49
 14:54:46.181,eb:33:2e:f9:57:b5, 2085-97-58 03:42:254:4162,0.278,0.086,2.315,567.993,130.432,-101.746,50.224,29.63,-128.908
 14:54:46.181,eb:33:2e:f9:57:b5, 2085-97-30 00:206:01:6470,-0.073,0.134,2.443,601.379,49.438,-124.39,56.135,30.998,-128.936
 14:54:46.241,eb:33:2e:f9:57:b5, 2085-97-51 255:107:255:7297,0.256,-0.124,3.681,541.87,92.59,-135.864,61.754,32.465,-129.161
 14:54:46.241,eb:33:2e:f9:57:b5, 2085-97-78 06:253:255:4854,1.148,0.01,2.908,456.055,150.513,-128.662,67.126,34.184,-128.419
 14:54:46.241,eb:33:2e:f9:57:b5, 2085-97-90 09:179:249:3152,0.802,-0.199,1.764,326.355,166.199,-140.808,71.752,36.03,-127.134
 14:54:46.241,eb:33:2e:f9:57:b5, 2085-97-151 04:13:244:1711,0.435,-1.378,1.659,213.44,199.951,-110.046,75.311,37.771,-125.436
 14:54:46.271,eb:33:2e:f9:57:b5, 2085-97-182 03:252:246:-4021,0.4,-1.333,-1.045,115.417,146.729,-64.575,78.305,39.007,-123.393
 14:54:46.271,eb:33:2e:f9:57:b5, 2085-97-37 04:67:244:-1557,0.433,-1.294,-1.542,-63.538,22.766,-31.067,78.975,39.611,-122.563
 14:54:46.271,eb:33:2e:f9:57:b5, 2085-97-47 02:160:244:326,0.237,-1.506,-0.233,-198.242,-15.137,18.25,77.52,39.644,-122.602
 14:54:46.271,eb:33:2e:f9:57:b5, 2085-97-51 02:05:247:1555,0.337,-1.262,0.492,-268.555,-39.429,56.396,74.938,39.177,-122.844
 14:54:46.303,eb:33:2e:f9:57:b5, 2085-97-21 03:93:248:1867,0.454,-1.026,0.912,-291.321,-57.251,83.191,71.873,38.342,-123.195
 14:54:46.303,eb:33:2e:f9:57:b5, 2085-97-32 04:52:249:1373,0.582,-0.904,0.833,-284.363,-69.641,98.755,68.741,37.249,-123.58
 14:54:46.303,eb:33:2e:f9:57:b5, 2085-97-28 05:116:250:801,0.661,-0.78,0.529,-272.949,-83.679,104.98,65.731,36.002,-123.964
 14:54:46.303,eb:33:2e:f9:57:b5, 2085-97-108 05:157:251:448,0.677,-0.607,0.273,-270.813,-104.187,102.6,62.726,34.645,-124.459
 14:54:46.360,eb:33:2e:f9:57:b5, 2085-97-80 05:236:251:517,0.639,-0.518,0.218,-279.968,-127.869,95.032,59.601,33.212,-125.123
 14:54:46.360,eb:33:2e:f9:57:b5, 2085-97-20 05:249:251:869,0.599,-0.51,0.318,-295.166,-150.208,85.693,56.255,31.701,-125.969
 14:54:46.360,eb:33:2e:f9:57:b5, 2085-97-135 04:165:251:1165,0.531,-0.516,0.497,-310.181,-158.997,78.247,52.74,30.13,-126.903
 14:54:46.360,eb:33:2e:f9:57:b5, 2085-97-248 03:148:251:1431,0.463,-0.557,0.644,-324.158,-159.668,75.562,49.114,28.521,-127.782
 14:54:46.391,eb:33:2e:f9:57:b5, 2085-97-109 03:20:252:1611,0.413,-0.528,0.756,-337.036,-155.579,76.965,45.461,26.895,-128.507
 14:54:46.391,eb:33:2e:f9:57:b5, 2085-97-37 03:180:252:1752,0.399,-0.454,0.836,-346.375,-153.87,80.994,41.776,25.225,-129.062
 14:54:46.391,eb:33:2e:f9:57:b5, 2085-97-237 02:64:253:1920,0.369,-0.379,0.909,-350.342,-156.128,84.9,38.123,23.5,-129.457
 14:54:46.391,eb:33:2e:f9:57:b5, 2085-97-160 02:232:253:2267,0.272,-0.309,1.044,-349.976,-159.119,90.332,34.503,21.698,-129.716
 14:54:46.421,eb:33:2e:f9:57:b5, 2085-97-06 02:190:254:2490,0.273,-0.223,1.162,-346.619,-160.583,97.717,30.992,19.841,-129.792
 14:54:46.421,eb:33:2e:f9:57:b5, 2085-97-18 02:243:255:2563,0.29,-0.075,1.256,-341.431,-157.959,103.027,27.57,17.952,-129.688
 14:54:46.421,eb:33:2e:f9:57:b5, 2085-97-63 02:180:00:2970,0.267,0.05,1.36,-333.557,-166.016,102.722,24.263,16.035,-129.457
 14:54:46.421,eb:33:2e:f9:57:b5, 2085-97-17 02:17:01:3343,0.239,0.113,1.548,-323.181,-171.875,99.548,21.039,14.073,-129.172
 14:54:46.480,eb:33:2e:f9:57:b5, 2085-97-174 01:39:01:3643,0.188,0.146,1.701,-313.293,-173.34,95.398,17.941,12.118,-128.82
 14:54:46.480,eb:33:2e:f9:57:b5, 2085-97-72 01:19:01:4098,0.127,0.136,1.888,-303.223,-169.983,90.698,14.919,10.19,-128.414
 14:54:46.480,eb:33:2e:f9:57:b5, 2085-97-194 00:75:01:4543,0.065,0.141,2.109,-292.786,-159.485,85.693,12.019,8.388,-127.936
 14:54:46.480,eb:33:2e:f9:57:b5, 2085-97-72 00:203:01:4878,0.003,0.19,2.312,-284.302,-146.851,78.796,9.19,6.724,-127.403
 14:54:46.540,eb:33:2e:f9:57:b5, 2085-97-188 255:109:02:5033,-0.062,0.264,2.43,-282.227,-135.925,70.129,6.422,5.229,-126.859
 14:54:46.540,eb:33:2e:f9:57:b5, 2085-97-68 255:88:03:5008,-0.111,0.352,2.473,-287.964,-130.188,59.57,3.598,3.845,-126.332
 14:54:46.540,eb:33:2e:f9:57:b5, 2085-97-01 255:237:04:4863,-0.144,0.512,2.41,-307.129,-138.245,45.105,0.654,2.499,-125.854
 14:54:46.540,eb:33:2e:f9:57:b5, 2085-97-151 254:139:06:4995,-0.203,0.721,2.389,-340.271,-160.095,28.015,-2.587,0.994,-125.469
 14:54:46.570,eb:33:2e:f9:57:b5, 2085-97-243 253:30:08:5561,-0.309,0.915,2.566,-383.606,-180.237,8.85,-6.229,-0.709,-125.156
 14:54:46.570,eb:33:2e:f9:57:b5, 2085-97-250 252:104:10:6290,-0.483,1.144,2.918,-411.804,-180.603,-8.911,-10.272,-2.521,-124.909
 14:54:46.570,eb:33:2e:f9:57:b5, 2085-97-61 251:113:13:6440,-0.664,1.479,3.146,-400.635,-178.101,-23.865,-14.376,-4.301,-124.695
 14:54:46.570,eb:33:2e:f9:57:b5, 2085-97-200 250:20:17:5946,-0.627,1.897,2.993,-357.178,-179.077,-33.142,-18.193,-6.114,-124.475
 14:54:46.630,eb:33:2e:f9:57:b5, 2085-97-140 251:159:22:5634,-0.549,2.427,3.006,-312.134,-143.127,-34.851,-21.533,-7.778,-124.244
 14:54:46.630,eb:33:2e:f9:57:b5, 2085-97-130 251:149:29:4353,-0.705,3.246,2.562,-281.677,-79.529,-46.326,-24.5,-8.937,-124.206
 14:54:46.630,eb:33:2e:f9:57:b5, 2085-97-250 247:23:33:1945,-1.401,4.014,1.567,-238.708,-72.021,-61.035,-27.076,-9.772,-124.404
 14:54:46.630,eb:33:2e:f9:57:b5, 2085-97-216 240:109:29:1415,-2.331,3.995,0.622,-144.531,-168.945,-63.171,-28.998,-11.146,-124.404
 14:54:46.633,eb:33:2e:f9:57:b5, 2085-97-143 234:202:24:3665,-2.851,3.359,1.12,-24.841,-235.596,-26.123,-29.927,-13.244,-123.728
 14:54:46.633,eb:33:2e:f9:57:b5, 2085-97-41 221:32:16:20469,-3.737,2.827,2.529,109.924,-220.52,26.794,-29.866,-15.084,-122.569
 14:54:46.633,eb:33:2e:f9:57:b5, 2085-97-135 244:218:21:4009,0.635,3.483,3.397,301.697,214.539,90.21,-27.554,-13.623,-122.113
 14:54:46.633,eb:33:2e:f9:57:b5, 2085-97-64 06:206:251:1553,0.146,-0.271,0.328,293.762,342.224,181.213,-24.516,-10.558,-122.179
 14:54:46.661,eb:33:2e:f9:57:b5, 2085-97-143 02:154:245:1644,-0.185,-0.194,1.125,323.486,328.735,179.016,-21.533,-6.471,-121.657
 14:54:46.661,eb:33:2e:f9:57:b5, 2085-97-199 250:253:251:2007,-1.018,-1.067,0.751,377.441,222.29,129.639,-18.067,-3.417,-121.174
 14:54:46.661,eb:33:2e:f9:57:b5, 2085-97-127 249:179:01:2547,-0.778,-0.21,1.203,390.076,145.203,68.604,-14.161,-1.445,-120.734
 14:54:46.661,eb:33:2e:f9:57:b5, 2085-97-241 250:252:04:2793,-0.358,0.417,1.372,345.947,118.652,32.166,-10.503,-0.126,-120.542
 14:54:46.751,eb:33:2e:f9:57:b5, 2085-97-130 254:121:03:2806,-0.16,0.468,1.432,267.639,73.181,-27.588,-7.471,0.797,-120.74
 14:54:46.751,eb:33:2e:f9:57:b5, 2085-97-241 254:135:02:2466,-0.061,0.374,1.246,207.642,29.175,-38.269,-5.153,1.241,-121.157
 14:54:46.751,eb:33:2e:f9:57:b5, 2085-97-02 00:160:00:2264,-0.006,0.176,1.137,161.011,1.343,-32.41,-3.351,1.335,-121.542
 14:54:46.751,eb:33:2e:f9:57:b5, 2085-97-249 255:29:02:2174,0.03,0.109,1.073,123.718,-19.409,-20.264,-1.95,1.236,-121.794
 14:54:46.753,eb:33:2e:f9:57:b5, 2085-97-45 00:196:02:2068,0.01,0.299,1.083,84.717,-9.644,-12.39,-0.934,1.049,-121.959
 14:54:46.753,eb:33:2e:f9:57:b5, 2085-97-225 255:160:01:1935,-0.059,0.252,0.972,47.485,4.395,-2.014,-0.302,1.044,-122.036
 14:54:46.753,eb:33:2e:f9:57:b5, 2085-97-28 255:174:00:1863,-0.073,0.15,0.936,24.292,6.409,9.949,0.033,1.104,-121.987
 14:54:46.753,eb:33:2e:f9:57:b5, 2085-97-168 255:112:00:2042,-0.083,0.034,0.971,14.343,5.127,18.494,0.214,1.148,-121.838
 14:54:46.780,eb:33:2e:f9:57:b5, 2085-97-234 254:208:00:1797,-0.043,0.102,0.903,11.475,5.432,10.376,0.346,1.23,-121.679
 14:54:46.781,eb:33:2e:f9:57:b5, 2085-97-35 00:95:00:2107,-0.027,0.039,0.998,7.263,2.441,5.432,0.439,1.236,-121.619
 14:54:46.781,eb:33:2e:f9:57:b5, 2085-97-141 255:64:00:1981,-0.046,0.045,0.982,5.798,6.104,5.31,0.505,1.302,-121.558
 14:54:46.781,eb:33:2e:f9:57:b5, 2085-97-140 255:76:00:1969,-0.049,0.024,0.976,5.127,4.15,4.211,0.566,1.346,-121.514
 14:54:46.872,eb:33:2e:f9:57:b5, 2085-97-166 255:23:00:2037,-0.046,0.022,0.983,4.333,2.136,3.235,0.61,1.373,-121.481
 14:54:46.872,eb:33:2e:f9:57:b5, 2085-97-166 255:25:00:2029,-0.038,0.016,0.985,4.822,1.465,3.662,0.659,1.395,-121.443
 14:54:46.872,eb:33:2e:f9:57:b5, 2085-97-157 255:56:00:1994,-0.035,0.025,0.995,5.005,0.977,4.15,0.709,1.406,-121.399
 14:54:46.872,eb:33:2e:f9:57:b5, 2085-97-185 255:61:00:2024,-0.021,0.025,0.995,4.639,0.427,4.089,0.764,1.406,-121.36
 14:54:46.872,eb:33:2e:f9:57:b5, 2085-113-58 00:115:231:-5355,-0.022,0.026,1.013,5.127,1.221,3.54,0.813,1.412,-121.322
 14:54:46.872,eb:33:2e:f9:57:b5, 2085-97-220 255:59:00:2056,-0.002,0.023,1.01,5.188,1.831,3.601,0.835,1.417,-121.306
 14:54:46.872,eb:33:2e:f9:57:b5, 2085-97-240 255:55:00:2070,0.013,0.029,1.023,4.822,3.601,4.15,0.89,1.445,-121.262
 14:54:46.872,eb:33:2e:f9:57:b5, 2085-97-253 255:75:00:2077,0.007,0.044,1.034,5.188,5.737,3.235,0.939,1.489,-121.223
 14:54:46.902,eb:33:2e:f9:57:b5, 2085-97-10 00:80:00:2094,0.015,0.042,1.024,5.432,8.85,1.892,0.994,1.56,-121.196
 14:54:46.902,eb:33:2e:f9:57:b5, 2085-97-247 255:79:00:2071,-0.001,0.043,1.037,6.226,13.367,0,1.055,1.675,-121.179
 14:54:46.902,eb:33:2e:f9:57:b5, 2085-97-198 255:49:00:2058,-0.028,0.041,1.021,7.385,16.296,-1.587,1.126,1.824,-121.185
 14:54:46.902,eb:33:2e:f9:57:b5, 2085-97-200 255:41:00:2066,-0.049,0.021,1.013,7.751,17.334,-1.038,1.203,1.994,-121.196
 14:54:46.961,eb:33:2e:f9:57:b5, 2085-97-179 255:50:00:2059,-0.044,0.017,0.978,7.629,17.151,0.61,1.285,2.17,-121.196
 14:54:46.961,eb:33:2e:f9:57:b5, 2085-97-168 255:70:00:2031,-0.028,0.03,1,7.263,18.433,1.953,1.357,2.351,-121.179
 14:54:46.961,eb:33:2e:f9:57:b5, 2085-97-191 255:86:00:2074,-0.031,0.043,1.004,6.531,19.653,2.075,1.428,2.538,-121.152
 14:54:46.961,eb:33:2e:f9:57:b5, 2085-97-236 255:93:00:2127,-0.003,0.044,1.023,6.836,21.79,1.404,1.5,2.747,-121.13
 14:54:46.991,eb:33:2e:f9:57:b5, 2085-97-220 255:81:00:2168,0,0.058,1.059,7.568,28.503,-2.808,1.571,2.999,-121.13
 14:54:46.991,eb:33:2e:f9:57:b5, 2085-97-216 255:124:00:2190,-0.026,0.073,1.053,8.85,34.302,-4.944,1.659,3.307,-121.163
 14:54:46.991,eb:33:2e:f9:57:b5, 2085-97-133 255:87:00:2122,-0.05,0.045,1.07,10.01,42.175,-7.019,1.752,3.697,-121.212
 14:54:46.991,eb:33:2e:f9:57:b5, 2085-97-140 255:97:00:2092,-0.065,0.046,1.031,10.742,44.006,-7.629,1.857,4.125,-121.273
 14:54:47.020,eb:33:2e:f9:57:b5, 2085-97-167 255:128:00:2152,-0.039,0.057,0.998,9.399,46.692,-8.118,1.956,4.598,-121.339
 14:54:47.020,eb:33:2e:f9:57:b5, 2085-97-222 255:199:00:1968,0.039,0.062,1.051,8.85,52.124,-9.521,2.038,5.092,-121.41
 14:54:47.020,eb:33:2e:f9:57:b5, 2085-97-148 00:161:01:1830,-0.068,0.155,0.936,7.385,48.34,-14.465,2.115,5.603,-121.514
 14:54:47.020,eb:33:2e:f9:57:b5, 2085-97-49 255:109:00:2116,-0.125,0.088,1.007,6.165,43.884,-20.081,2.159,6.053,-121.679
 14:54:47.141,eb:33:2e:f9:57:b5, 2085-97-54 254:251:255:2177,-0.29,0.032,1.024,8.606,43.03,-18.799,2.219,6.493,-121.855
 14:54:47.141,eb:33:2e:f9:57:b5, 2085-97-04 254:74:255:2742,-0.232,-0.083,1.189,15.503,40.955,-15.686,2.318,6.916,-122.014
 14:54:47.141,eb:33:2e:f9:57:b5, 2085-97-66 254:189:255:2300,-0.195,-0.085,1.313,29.053,46.631,-9.277,2.543,7.355,-122.124
 14:54:47.141,eb:33:2e:f9:57:b5, 2085-97-72 254:234:255:2173,-0.229,0.01,1.024,35.217,41.87,-5.737,2.867,7.806,-122.173
 14:54:47.143,eb:33:2e:f9:57:b5, 2085-97-57 254:203:255:2357,-0.229,-0.026,1.123,40.405,38.086,-1.465,3.246,8.201,-122.19
 14:54:47.143,eb:33:2e:f9:57:b5, 2085-97-19 254:229:255:2221,-0.234,-0.017,1.113,46.57,37.292,3.723,3.691,8.586,-122.151
 14:54:47.143,eb:33:2e:f9:57:b5, 2085-97-48 254:05:00:2188,-0.242,-0.005,1.085,52.673,31.799,8.484,4.208,8.921,-122.064
 14:54:47.143,eb:33:2e:f9:57:b5, 2085-97-237 253:04:00:2163,-0.256,0.008,1.038,58.472,24.719,13.062,4.785,9.196,-121.932
 14:54:47.145,eb:33:2e:f9:57:b5, 2085-97-59 254:41:00:2515,-0.169,0.003,1.125,64.819,15.442,17.883,5.433,9.377,-121.75
 14:54:47.145,eb:33:2e:f9:57:b5, 2085-97-23 255:98:00:3052,-0.069,0.036,1.344,75.012,15.442,21.118,6.169,9.503,-121.536
 14:54:47.145,eb:33:2e:f9:57:b5, 2085-97-129 255:118:00:3317,-0.044,0.05,1.593,90.21,28.748,22.766,7.042,9.69,-121.289
 14:54:47.145,eb:33:2e:f9:57:b5, 2085-97-77 255:116:00:3194,-0.126,0.064,1.606,106.934,45.532,23.804,8.091,10.036,-121.003
 14:54:47.232,eb:33:2e:f9:57:b5, 2085-97-151 254:20:00:3075,-0.216,0.033,1.533,123.169,54.199,25.024,9.311,10.503,-120.679
 14:54:47.232,eb:33:2e:f9:57:b5, 2085-97-46 254:213:255:3022,-0.22,-0.008,1.48,140.442,52.246,27.771,10.701,10.992,-120.317
 14:54:47.232,eb:33:2e:f9:57:b5, 2085-97-211 254:30:00:3212,-0.057,-0.018,1.479,158.142,46.814,32.043,12.283,11.415,-119.916
 14:54:47.232,eb:33:2e:f9:57:b5, 2085-97-80 00:152:00:3833,0.141,0.048,1.714,179.382,50.11,30.151,14.062,11.805,-119.487
 14:54:47.232,eb:33:2e:f9:57:b5, 2085-97-107 01:129:00:4213,0.177,0.089,1.978,207.703,73.242,22.522,16.089,12.327,-119.064
 14:54:47.232,eb:33:2e:f9:57:b5, 2085-97-143 01:232:255:4740,0.293,0.022,2.166,239.319,96.68,13.489,18.435,13.096,-118.63
 14:54:47.232,eb:33:2e:f9:57:b5, 2085-97-184 03:243:255:5286,0.605,-0.008,2.45,272.949,130.554,6.897,21.127,14.134,-118.13
 14:54:47.232,eb:33:2e:f9:57:b5, 2085-97-209 05:67:00:5421,0.755,0.021,2.624,312.561,177.124,-7.935,24.23,15.579,-117.515
 14:54:47.294,eb:33:2e:f9:57:b5, 2085-97-130 05:230:255:5892,0.655,0.038,2.705,359.68,222.412,-31.067,27.812,17.479,-116.774
 14:54:47.294,eb:33:2e:f9:57:b5, 2085-97-246 03:44:00:6040,0.216,-0.049,2.969,406.982,270.996,-49.927,31.97,19.852,-115.845
 14:54:47.294,eb:33:2e:f9:57:b5, 2085-97-04 01:196:02:6011,0.059,0.164,2.944,456.97,281.921,-62.256,36.738,22.5,-114.642
 14:54:47.294,eb:33:2e:f9:57:b5, 2085-97-145 00:250:02:6339,0.119,0.414,3.067,523.499,216.614,-78.43,42.122,24.89,-113.505
 14:54:47.294,eb:33:2e:f9:57:b5, 2085-97-14 02:05:02:5103,0.354,0.24,2.787,588.318,137.878,-88.379,48.01,26.724,-112.813
 14:54:47.322,eb:33:2e:f9:57:b5, 2085-113-81 00:109:49:13913,0.237,-0.188,2.466,646.667,48.34,-100.159,54.267,28.043,-112.736
 14:54:47.322,eb:33:2e:f9:57:b5, 2085-97-174 254:102:254:6021,-0.433,-0.296,2.38,659.058,14.038,-110.535,57.437,28.553,-112.95
 14:54:47.322,eb:33:2e:f9:57:b5, 2085-97-108 252:155:252:7779,-0.171,-0.306,3.742,621.582,47.974,-136.902,63.611,29.767,-113.483
 14:54:47.322,eb:33:2e:f9:57:b5, 2085-97-133 01:226:251:5851,0.537,-0.515,3.41,541.016,128.601,-138.184,69.604,31.388,-113.126
 14:54:47.350,eb:33:2e:f9:57:b5, 2085-97-248 04:51:247:3621,0.772,-0.661,2.351,404.541,173.218,-135.254,74.982,33.168,-111.841
 14:54:47.350,eb:33:2e:f9:57:b5, 2085-97-215 06:197:242:2149,0.801,-1.382,1.531,264.587,164.978,-120.911,79.113,34.772,-110.242
 14:54:47.350,eb:33:2e:f9:57:b5, 2085-97-27 06:181:243:-5447,0.521,-1.799,-0.85,143.127,165.71,-88.867,82.266,36.063,-108.325
 14:54:47.350,eb:33:2e:f9:57:b5, 2085-97-115 06:168:244:-3135,0.777,-1.506,-2.789,-53.406,26.001,-81.177,83.221,37.024,-107.265
 14:54:47.411,eb:33:2e:f9:57:b5, 2085-97-63 04:11:245:311,0.378,-1.367,-0.46,-187.317,-60.913,-51.392,81.595,37.639,-107.721
 14:54:47.411,eb:33:2e:f9:57:b5, 2085-97-34 03:207:245:1489,0.416,-1.34,0.528,-244.202,-119.141,-15.625,78.602,37.798,-108.962
 14:54:47.411,eb:33:2e:f9:57:b5, 2085-97-102 03:101:246:1822,0.404,-1.232,0.879,-259.033,-141.968,14.587,75.048,37.474,-110.61
 14:54:47.411,eb:33:2e:f9:57:b5, 2085-97-47 03:86:247:1245,0.426,-1.152,0.754,-262.268,-146.729,37.842,71.433,36.782,-112.253
 14:54:47.440,eb:33:2e:f9:57:b5, 2085-97-133 03:195:248:863,0.446,-0.992,0.505,-273.56,-158.325,52.246,67.83,35.815,-113.829
 14:54:47.440,eb:33:2e:f9:57:b5, 2085-97-147 03:122:249:833,0.449,-0.845,0.389,-294.861,-175.293,58.411,64.039,34.612,-115.433
 14:54:47.440,eb:33:2e:f9:57:b5, 2085-97-141 03:201:249:1194,0.42,-0.799,0.483,-313.538,-193.665,59.509,60.062,33.217,-117.076
 14:54:47.440,eb:33:2e:f9:57:b5, 2085-97-232 02:69:250:1591,0.301,-0.747,0.688,-324.219,-205.383,60.12,55.959,31.641,-118.724
 14:54:47.470,eb:33:2e:f9:57:b5, 2085-97-253 01:131:250:1874,0.19,-0.699,0.851,-329.407,-209.839,61.768,51.894,29.921,-120.273
 14:54:47.470,eb:33:2e:f9:57:b5, 2085-97-14 01:183:250:2077,0.104,-0.67,0.978,-335.388,-206.238,66.223,47.889,28.076,-121.63
 14:54:47.470,eb:33:2e:f9:57:b5, 2085-97-155 00:37:251:2219,0.076,-0.646,1.063,-342.224,-195.129,71.838,44.006,26.186,-122.712
 14:54:47.470,eb:33:2e:f9:57:b5, 2085-97-132 00:232:251:2285,0.068,-0.565,1.125,-346.863,-183.899,75.867,40.193,24.274,-123.514
 14:54:47.530,eb:33:2e:f9:57:b5, 2085-97-154 00:202:252:2251,0.087,-0.454,1.102,-347.168,-183.716,75.134,36.486,22.374,-124.102
 14:54:47.530,eb:33:2e:f9:57:b5, 2085-97-149 00:109:253:2336,0.064,-0.357,1.126,-340.881,-195.862,68.787,32.827,20.385,-124.634
 14:54:47.530,eb:33:2e:f9:57:b5, 2085-97-84 00:220:253:2565,-0.006,-0.29,1.189,-333.191,-209.961,58.899,29.284,18.309,-125.173
 14:54:47.530,eb:33:2e:f9:57:b5, 2085-97-189 255:02:254:2968,-0.076,-0.259,1.328,-329.834,-215.637,48.523,25.79,16.155,-125.717
 14:54:47.562,eb:33:2e:f9:57:b5, 2085-97-252 254:251:253:3427,-0.167,-0.246,1.544,-329.285,-211.731,37.659,22.368,14.03,-126.222
 14:54:47.562,eb:33:2e:f9:57:b5, 2085-97-82 254:204:253:3730,-0.245,-0.257,1.739,-332.397,-202.393,27.1,18.935,11.975,-126.672
 14:54:47.562,eb:33:2e:f9:57:b5, 2085-97-223 253:115:253:4079,-0.288,-0.299,1.896,-340.027,-188.477,19.104,15.496,10.042,-127.04
 14:54:47.562,eb:33:2e:f9:57:b5, 2085-97-180 253:92:253:4393,-0.29,-0.328,2.057,-350.647,-171.753,13.123,11.97,8.256,-127.321
 14:54:47.591,eb:33:2e:f9:57:b5, 2085-97-139 253:164:253:4650,-0.304,-0.318,2.217,-361.023,-162.354,10.498,8.383,6.603,-127.507
 14:54:47.591,eb:33:2e:f9:57:b5, 2085-97-149 253:58:254:5003,-0.312,-0.265,2.363,-376.404,-162.598,8.545,4.658,4.966,-127.595
 14:54:47.591,eb:33:2e:f9:57:b5, 2085-97-127 253:167:255:5285,-0.327,-0.149,2.5,-397.583,-168.152,5.798,0.78,3.318,-127.601
 14:54:47.591,eb:33:2e:f9:57:b5, 2085-97-11 253:216:01:5701,-0.45,0.084,2.683,-419.312,-183.472,-0.549,-3.34,1.549,-127.535
 14:54:47.680,eb:33:2e:f9:57:b5, 2085-97-114 251:59:04:6221,-0.741,0.381,2.894,-436.89,-208.008,-9.216,-7.635,-0.406,-127.403
 14:54:47.680,eb:33:2e:f9:57:b5, 2085-97-116 248:41:06:6997,-1.181,0.652,3.217,-440.735,-232.3,-13.184,-12.074,-2.626,-127.139
 14:54:47.680,eb:33:2e:f9:57:b5, 2085-97-115 244:120:08:7856,-1.815,0.91,3.618,-423.523,-242.371,-4.883,-16.441,-4.971,-126.639
 14:54:47.680,eb:33:2e:f9:57:b5, 2085-97-65 240:245:11:8197,-2.103,1.23,4.529,-379.333,-217.407,17.7,-20.55,-7.174,-125.826
 14:54:47.682,eb:33:2e:f9:57:b5, 2085-97-246 240:206:17:8117,-1.183,1.709,4.006,-333.252,-158.264,44.556,-24.225,-8.839,-124.794
 14:54:47.682,eb:33:2e:f9:57:b5, 2085-97-168 251:72:33:8320,-0.079,3.086,4.203,-323.364,36.438,50.232,-27.581,-9.212,-124.058
 14:54:47.682,eb:33:2e:f9:57:b5, 2085-97-68 00:98:48:4258,-0.077,5.249,3.395,-298.096,211.67,4.456,-30.69,-7.767,-124.536
 14:54:47.682,eb:33:2e:f9:57:b5, 2085-97-190 250:138:48:-2486,-1.591,6.435,0.336,-148.376,62.683,-75.806,-32.8,-6.619,-125.717
 14:54:47.741,eb:33:2e:f9:57:b5, 2085-97-119 237:94:32:157,-2.862,4.994,-1.266,21.423,-241.211,-112.793,-33.272,-8.152,-125.953
 14:54:47.741,eb:33:2e:f9:57:b5, 2085-97-08 230:115:22:6845,-4.721,3.386,1.778,118.591,-283.386,-67.688,-32.602,-11.074,-125.14
 14:54:47.741,eb:33:2e:f9:57:b5, 2085-97-133 236:90:19:2962,0.026,1.749,10.623,333.069,135.376,33.936,-30.493,-12.634,-124.206
 14:54:47.741,eb:33:2e:f9:57:b5, 2085-97-224 13:126:247:3635,0.987,-0.232,-0.272,286.255,194.58,40.771,-27.224,-11.124,-124.904
 14:54:47.771,eb:33:2e:f9:57:b5, 2085-97-163 07:221:241:1863,0.337,-0.732,1.487,311.768,321.228,49.255,-24.192,-8.157,-125.546
 14:54:47.771,eb:33:2e:f9:57:b5, 2085-97-202 253:167:251:1806,-0.535,-1.229,0.768,387.939,233.276,39.551,-20.572,-5.444,-126.266
 14:54:47.771,eb:33:2e:f9:57:b5, 2085-97-153 250:153:254:2436,-0.584,-0.295,0.89,396.606,146.179,39.612,-16.551,-3.565,-126.469
 14:54:47.771,eb:33:2e:f9:57:b5, 2085-97-177 251:35:02:2511,-0.409,0.144,1.256,333.557,113.403,41.992,-12.903,-2.258,-126.398
 14:54:47.802,eb:33:2e:f9:57:b5, 2085-97-36 254:02:03:2902,-0.086,0.462,1.501,262.573,79.712,16.296,-9.954,-1.263,-126.26
 14:54:47.802,eb:33:2e:f9:57:b5, 2085-97-66 255:132:01:2439,-0.119,0.243,1.283,209.29,51.819,-3.052,-7.657,-0.643,-126.326
 14:54:47.802,eb:33:2e:f9:57:b5, 2085-97-146 255:209:01:2074,-0.071,0.146,1.132,184.204,30.518,-17.212,-5.696,-0.242,-126.475
 14:54:47.802,eb:33:2e:f9:57:b5, 2085-97-124 255:33:02:2083,-0.042,0.208,1.061,150.269,3.418,-14.893,-4.032,-0.077,-126.606
 14:54:47.831,eb:33:2e:f9:57:b5, 2085-97-119 255:177:02:2100,-0.037,0.229,1.06,110.474,-13.916,-14.038,-2.758,-0.192,-126.755
 14:54:47.831,eb:33:2e:f9:57:b5, 2085-97-00 00:117:02:2004,0.007,0.359,0.963,65.308,-16.663,-8.118,-1.884,-0.357,-126.854
 14:54:47.831,eb:33:2e:f9:57:b5, 2085-97-188 255:36:01:1985,-0.101,0.224,0.997,34.18,-2.991,-0.671,-1.423,-0.445,-126.881
 14:54:47.831,eb:33:2e:f9:57:b5, 2085-97-46 255:124:00:1860,-0.068,0.083,0.908,18.677,0.305,1.526,-1.17,-0.434,-126.876
 14:54:47.922,eb:33:2e:f9:57:b5, 2085-97-196 255:127:00:1993,-0.014,0.064,0.929,11.047,-4.761,0.427,-1.027,-0.456,-126.865
 14:54:47.922,eb:33:2e:f9:57:b5, 2085-97-213 255:72:00:2021,-0.013,0.051,0.995,5.859,-0.122,-1.648,-0.945,-0.478,-126.876
 14:54:47.922,eb:33:2e:f9:57:b5, 2085-97-245 255:33:00:2070,-0.02,0.026,0.998,2.869,0.305,-1.709,-0.901,-0.478,-126.892
 14:54:47.922,eb:33:2e:f9:57:b5, 2085-97-214 255:22:00:2026,-0.02,0.01,0.989,1.77,1.892,-1.709,-0.873,-0.461,-126.909
 14:54:47.922,eb:33:2e:f9:57:b5, 2085-97-233 255:22:00:2043,-0.017,0.011,0.987,0.854,1.526,-1.526,-0.862,-0.439,-126.925
 14:54:47.922,eb:33:2e:f9:57:b5, 2085-97-225 255:09:00:2046,-0.024,0.005,0.995,0.427,2.075,-1.953,-0.851,-0.417,-126.947
 14:54:47.922,eb:33:2e:f9:57:b5, 2085-97-215 255:247:255:2049,-0.025,0,0.994,0.671,2.075,-1.587,-0.846,-0.396,-126.964
 14:54:47.922,eb:33:2e:f9:57:b5, 2085-97-214 255:234:255:2047,-0.023,-0.012,0.995,1.953,1.526,-0.427,-0.824,-0.374,-126.974
 14:54:48.041,eb:33:2e:f9:57:b5, 2085-97-218 255:235:255:2057,-0.02,-0.01,0.997,3.906,0.366,0.183,-0.797,-0.363,-126.974
 14:54:48.041,eb:33:2e:f9:57:b5, 2085-97-238 255:253:255:2054,-0.002,-0.011,1,5.188,0.427,0.793,-0.742,-0.357,-126.969
 14:54:48.041,eb:33:2e:f9:57:b5, 2085-97-240 255:13:00:2043,-0.018,0.004,1.005,5.493,2.502,0.366,-0.687,-0.346,-126.964
 14:54:48.041,eb:33:2e:f9:57:b5, 2085-97-250 255:17:00:2047,-0.002,0.001,0.986,4.578,2.93,0.671,-0.632,-0.313,-126.964
 14:54:48.043,eb:33:2e:f9:57:b5, 2085-97-17 00:14:00:2063,0.012,0.005,0.997,3.662,4.15,0.977,-0.593,-0.275,-126.953
 14:54:48.043,eb:33:2e:f9:57:b5, 2085-97-34 00:24:00:2078,0.008,0.008,1.01,3.235,6.531,1.038,-0.555,-0.22,-126.947
 14:54:48.043,eb:33:2e:f9:57:b5, 2085-97-17 00:22:00:2071,0,0.011,1.004,3.479,8.484,0.671,-0.522,-0.137,-126.936
 14:54:48.043,eb:33:2e:f9:57:b5, 2085-97-251 255:11:00:2066,-0.013,0.007,1.005,3.662,10.742,0.366,-0.478,-0.038,-126.936
 14:54:48.043,eb:33:2e:f9:57:b5, 2085-97-223 255:09:00:2038,-0.026,-0.001,0.997,4.089,11.23,0.793,-0.439,0.071,-126.931
 14:54:48.043,eb:33:2e:f9:57:b5, 2085-97-212 255:14:00:2030,-0.034,0.003,0.982,4.333,10.071,1.221,-0.39,0.181,-126.92
 14:54:48.043,eb:33:2e:f9:57:b5, 2085-97-216 255:00:00:2045,-0.018,-0.003,0.984,4.456,9.033,2.197,-0.346,0.28,-126.903
 14:54:48.043,eb:33:2e:f9:57:b5, 2085-97-236 255:12:00:2078,-0.018,-0.001,1.01,5.432,9.155,3.235,-0.291,0.374,-126.876
 14:54:48.101,eb:33:2e:f9:57:b5, 2085-97-02 00:20:00:2111,-0.008,0.005,1.008,7.019,10.01,3.357,-0.225,0.467,-126.848
 14:54:48.101,eb:33:2e:f9:57:b5, 2085-97-232 255:27:00:2092,0.009,0.01,1.02,8.24,12.329,2.808,-0.143,0.588,-126.815
 14:54:48.101,eb:33:2e:f9:57:b5, 2085-97-06 00:60:00:2120,0.004,0.024,1.038,9.399,14.16,1.343,-0.055,0.714,-126.793
 14:54:48.101,eb:33:2e:f9:57:b5, 2085-97-04 00:48:00:2133,-0.001,0.031,1.038,10.193,19.043,-0.916,0.044,0.884,-126.793
 14:54:48.131,eb:33:2e:f9:57:b5, 2085-97-240 255:57:00:2098,-0.023,0.029,1.032,11.414,23.132,-2.991,0.154,1.093,-126.815
 14:54:48.131,eb:33:2e:f9:57:b5, 2085-97-176 255:54:00:2043,-0.052,0.029,1.011,12.085,25.879,-4.089,0.275,1.351,-126.848
 14:54:48.131,eb:33:2e:f9:57:b5, 2085-97-168 255:47:00:2090,-0.05,0.019,0.999,12.817,25.391,-4.578,0.401,1.609,-126.892
 14:54:48.131,eb:33:2e:f9:57:b5, 2085-97-116 255:37:00:2045,-0.064,0.023,1.005,12.878,28.015,-4.578,0.533,1.884,-126.936
 14:54:48.191,eb:33:2e:f9:57:b5, 2085-97-110 255:36:00:2075,-0.077,0.021,1.012,12.817,27.527,-3.357,0.665,2.153,-126.974
 14:54:48.191,eb:33:2e:f9:57:b5, 2085-97-101 255:41:00:2077,-0.055,0.021,0.994,12.146,29.236,-0.977,0.791,2.444,-126.996
 14:54:48.191,eb:33:2e:f9:57:b5, 2085-97-138 255:59:00:2126,-0.032,0.021,1.048,11.841,32.959,0.977,0.912,2.747,-126.991
 14:54:48.191,eb:33:2e:f9:57:b5, 2085-97-208 255:101:00:2167,-0.039,0.035,1.077,12.756,38.574,1.221,1.044,3.104,-126.969
 14:54:48.193,eb:33:2e:f9:57:b5, 2085-97-192 255:89:00:2217,-0.03,0.042,1.055,13.855,44.373,0.305,1.176,3.532,-126.958
 14:54:48.193,eb:33:2e:f9:57:b5, 2085-97-23 00:180:00:2150,0.156,0.069,1,14.038,47.302,-0.732,1.324,4.005,-126.947
 14:54:48.193,eb:33:2e:f9:57:b5, 2085-97-30 02:101:02:1726,-0.053,0.181,1.043,14.099,45.044,-3.845,1.467,4.466,-126.958
 14:54:48.193,eb:33:2e:f9:57:b5, 2085-97-165 252:235:253:3038,-0.307,0.049,1.243,14.526,47.729,-15.137,1.609,4.867,-127.062
 14:54:48.341,eb:33:2e:f9:57:b5, 2085-97-253 253:146:253:4628,-0.263,-0.237,2.054,60.059,36.621,-13.184,1.961,5.273,-127.189
 14:54:48.341,eb:33:2e:f9:57:b5, 2085-113-81 00:168:56:1861,-0.185,-0.213,1.734,94.055,71.045,-0.183,2.774,5.894,-127.216
 14:54:48.341,eb:33:2e:f9:57:b5, 2085-97-192 254:102:255:2851,-0.299,-0.062,1.393,102.661,66.345,1.77,3.274,6.235,-127.194
 14:54:48.341,eb:33:2e:f9:57:b5, 2085-97-56 253:82:254:3223,-0.293,-0.178,1.5,117.004,62.744,11.78,4.389,6.866,-127.09
 14:54:48.341,eb:33:2e:f9:57:b5, 2085-97-232 253:201:254:3223,-0.206,-0.168,1.556,138.611,55.908,28.259,5.702,7.454,-126.826
 14:54:48.341,eb:33:2e:f9:57:b5, 2085-97-09 255:96:255:3347,-0.076,-0.135,1.609,160.706,49.805,38.513,7.267,7.921,-126.425
 14:54:48.341,eb:33:2e:f9:57:b5, 2085-97-89 255:171:255:3677,-0.014,-0.06,1.683,179.932,49.927,42.236,9.053,8.355,-125.942
 14:54:48.341,eb:33:2e:f9:57:b5, 2085-97-87 00:196:255:3963,0.081,-0.035,1.899,204.651,54.382,37.781,11.052,8.795,-125.453
 14:54:48.345,eb:33:2e:f9:57:b5, 2085-97-252 00:188:255:4096,0.183,-0.032,1.92,231.689,66.04,31.494,13.332,9.316,-124.98
 14:54:48.345,eb:33:2e:f9:57:b5, 2085-97-81 02:176:255:4653,0.444,-0.052,2.107,260.315,83.923,23.499,15.881,9.976,-124.519
 14:54:48.345,eb:33:2e:f9:57:b5, 2085-97-116 04:166:255:5018,0.627,-0.033,2.386,295.532,116.394,10.071,18.759,10.887,-124.052
 14:54:48.345,eb:33:2e:f9:57:b5, 2085-97-100 05:54:255:5063,0.708,-0.084,2.464,334.534,164.795,-5.859,22.028,12.217,-123.53
 14:54:48.371,eb:33:2e:f9:57:b5, 2085-97-121 05:173:254:5245,0.591,-0.123,2.504,376.282,209.473,-24.17,25.746,14.019,-122.888
 14:54:48.371,eb:33:2e:f9:57:b5, 2085-97-137 03:22:255:5410,0.167,-0.198,2.529,420.41,249.268,-40.222,29.971,16.232,-122.064
 14:54:48.371,eb:33:2e:f9:57:b5, 2085-97-45 255:118:02:6714,-0.149,0.063,2.932,460.205,264.587,-50.903,34.7,18.682,-121.014
 14:54:48.371,eb:33:2e:f9:57:b5, 2085-97-22 00:04:04:7898,0.315,0.551,3.632,522.278,213.379,-63.904,39.985,20.956,-119.943
 14:54:48.401,eb:33:2e:f9:57:b5, 2085-97-145 02:184:01:6347,0.257,0.265,3.49,588.684,155.64,-76.599,45.868,22.758,-119.196
 14:54:48.401,eb:33:2e:f9:57:b5, 2085-97-82 01:83:250:5730,-0.167,-0.208,3.021,644.165,96.436,-93.323,52.218,24.192,-118.812
 14:54:48.401,eb:33:2e:f9:57:b5, 2085-97-45 253:57:255:7408,-0.28,-0.446,2.954,647.339,59.326,-97.534,58.755,25.378,-118.74
 14:54:48.401,eb:33:2e:f9:57:b5, 2085-97-139 00:168:251:7136,0.358,-0.431,3.944,597.046,128.906,-108.459,65.132,26.752,-118.405
 14:54:48.430,eb:33:2e:f9:57:b5, 2085-97-127 05:140:252:4391,1.031,-0.49,2.745,495.239,182.373,-103.577,71.175,28.328,-117.109
 14:54:48.430,eb:33:2e:f9:57:b5, 2085-97-218 06:79:245:4094,0.679,-0.836,2.056,364.685,177.49,-112.61,76.201,29.872,-115.494
 14:54:48.430,eb:33:2e:f9:57:b5, 2085-97-43 06:56:245:-400,0.691,-1.386,1.583,277.771,190.247,-101.196,80.233,31.3,-113.621
 14:54:48.430,eb:33:2e:f9:57:b5, 2085-97-203 04:129:242:-4728,0.607,-1.388,-2.014,87.28,125.793,-87.158,83.002,32.426,-111.89
 14:54:48.520,eb:33:2e:f9:57:b5, 2085-97-227 05:73:241:-1923,0.606,-1.885,-1.786,-118.469,19.165,-66.345,83.024,33.278,-111.242
 14:54:48.520,eb:33:2e:f9:57:b5, 2085-97-134 03:224:243:389,0.416,-1.688,-0.308,-246.948,-31.555,-33.569,80.958,33.739,-111.423
 14:54:48.520,eb:33:2e:f9:57:b5, 2085-97-98 03:201:245:1766,0.441,-1.37,0.599,-299.744,-79.529,-5.92,77.712,33.799,-112.187
 14:54:48.520,eb:33:2e:f9:57:b5, 2085-97-204 03:143:246:1804,0.495,-1.225,0.951,-310.364,-94.543,16.846,74.064,33.508,-113.214
 14:54:48.550,eb:33:2e:f9:57:b5, 2085-97-55 04:194:247:1183,0.551,-1.12,0.722,-303.284,-102.905,30.701,70.406,32.964,-114.247
 14:54:48.550,eb:33:2e:f9:57:b5, 2085-97-124 04:169:249:703,0.568,-0.904,0.451,-294.922,-120.972,36.438,66.835,32.234,-115.34
 14:54:48.550,eb:33:2e:f9:57:b5, 2085-97-152 04:148:250:639,0.566,-0.72,0.297,-296.387,-146.973,34.241,63.199,31.333,-116.609
 14:54:48.550,eb:33:2e:f9:57:b5, 2085-97-82 04:214:250:851,0.481,-0.655,0.348,-305.237,-172.607,26.306,59.436,30.295,-118.092
 14:54:48.552,eb:33:2e:f9:57:b5, 2085-97-71 03:163:250:1278,0.332,-0.654,0.504,-318.359,-191.589,19.714,55.47,29.108,-119.745
 14:54:48.552,eb:33:2e:f9:57:b5, 2085-97-53 02:91:250:1792,0.199,-0.688,0.739,-331.604,-195.679,17.944,51.422,27.801,-121.41
 14:54:48.552,eb:33:2e:f9:57:b5, 2085-97-30 01:72:250:2029,0.105,-0.715,0.95,-343.079,-184.326,22.766,47.346,26.4,-122.893
 14:54:48.552,eb:33:2e:f9:57:b5, 2085-97-193 00:200:250:2063,0.112,-0.697,1.022,-349.915,-171.326,31.677,43.358,24.966,-124.074
 14:54:48.616,eb:33:2e:f9:57:b5, 2085-97-09 01:170:251:1930,0.134,-0.604,0.984,-354.736,-166.809,38.818,39.43,23.456,-125.002
 14:54:48.616,eb:33:2e:f9:57:b5, 2085-97-55 01:111:252:1961,0.149,-0.492,0.919,-357.91,-177.002,41.077,35.557,21.852,-125.788
 14:54:48.616,eb:33:2e:f9:57:b5, 2085-97-253 00:23:253:2307,0.091,-0.403,1.042,-355.53,-195.251,41.26,31.696,20.056,-126.53
 14:54:48.616,eb:33:2e:f9:57:b5, 2085-97-115 00:166:253:2743,0.025,-0.311,1.248,-349.426,-213.501,39.001,27.938,18.067,-127.244
 14:54:48.731,eb:33:2e:f9:57:b5, 2085-97-20 00:239:253:3084,-0.018,-0.278,1.414,-346.436,-220.825,37.354,24.247,15.93,-127.892
 14:54:48.731,eb:33:2e:f9:57:b5, 2085-97-131 255:19:254:3435,-0.099,-0.243,1.593,-343.628,-221.802,36.133,20.66,13.744,-128.419
 14:54:48.731,eb:33:2e:f9:57:b5, 2085-97-237 254:14:254:3853,-0.176,-0.242,1.779,-339.539,-220.642,37.109,17.133,11.519,-128.809
 14:54:48.731,eb:33:2e:f9:57:b5, 2085-97-84 254:234:253:4266,-0.244,-0.252,1.972,-337.585,-215.881,40.71,13.716,9.311,-129.018
 14:54:48.733,eb:33:2e:f9:57:b5, 2085-97-189 253:248:253:4817,-0.322,-0.262,2.21,-339.966,-203.857,48.035,10.3,7.152,-129.023
 14:54:48.733,eb:33:2e:f9:57:b5, 2085-97-63 253:187:254:5364,-0.348,-0.225,2.495,-347.717,-185.059,57.556,6.888,5.153,-128.787
 14:54:48.733,eb:33:2e:f9:57:b5, 2085-97-101 253:01:01:5572,-0.297,-0.041,2.692,-362.488,-165.344,63.66,3.34,3.356,-128.331
 14:54:48.733,eb:33:2e:f9:57:b5, 2085-97-219 253:98:04:5577,-0.238,0.327,2.729,-385.01,-159.241,60.425,-0.374,1.736,-127.744
 14:54:48.735,eb:33:2e:f9:57:b5, 2085-97-252 253:104:08:5649,-0.317,0.798,2.731,-409.363,-174.988,45.227,-4.378,0.082,-127.139
 14:54:48.735,eb:33:2e:f9:57:b5, 2085-97-194 252:231:11:6095,-0.525,1.286,2.824,-426.453,-208.313,21.606,-8.591,-1.785,-126.595
 14:54:48.735,eb:33:2e:f9:57:b5, 2085-97-117 250:170:14:7037,-0.906,1.669,3.197,-422.546,-235.718,-1.831,-12.903,-3.988,-126.09
 14:54:48.735,eb:33:2e:f9:57:b5, 2085-97-153 246:216:16:7699,-1.398,1.983,3.637,-389.832,-241.882,-15.564,-17.023,-6.345,-125.568
 14:54:48.791,eb:33:2e:f9:57:b5, 2085-97-246 243:91:19:7911,-1.405,2.223,3.836,-333.069,-215.515,-12.451,-20.72,-8.597,-124.953
 14:54:48.791,eb:33:2e:f9:57:b5, 2085-97-231 246:121:25:7531,-0.84,2.692,3.862,-287.109,-105.164,-1.77,-23.868,-10.146,-124.382
 14:54:48.791,eb:33:2e:f9:57:b5, 2085-97-218 250:85:37:5196,-0.635,3.93,3.206,-275.391,62.988,-4.395,-26.68,-10.239,-124.349
 14:54:48.791,eb:33:2e:f9:57:b5, 2085-97-148 248:143:44:805,-1.291,5.273,1.62,-230.164,98.816,-36.438,-29.141,-9.443,-125.013
 14:54:48.821,eb:33:2e:f9:57:b5, 2085-97-125 240:162:37:-758,-2.357,5.41,-0.271,-98.572,-75.134,-62.988,-30.63,-9.679,-125.519
 14:54:48.821,eb:33:2e:f9:57:b5, 2085-97-24 235:155:30:3189,-2.591,4.176,0.374,57.8,-221.13,-34.973,-30.778,-11.437,-125.063
 14:54:48.822,eb:33:2e:f9:57:b5, 2085-97-182 234:193:18:18700,-2.216,2.985,3.399,254.211,-244.873,44.006,-29.724,-13.337,-124.014
 14:54:48.822,eb:33:2e:f9:57:b5, 2085-97-163 06:209:250:-459,1.776,1.881,0.393,344.849,183.716,40.466,-26.318,-11.574,-124.019
 14:54:48.851,eb:33:2e:f9:57:b5, 2085-97-205 07:175:246:2905,0.606,-1.317,1.496,308.228,341.064,156.494,-23.209,-8.69,-123.992
 14:54:48.851,eb:33:2e:f9:57:b5, 2085-97-25 255:25:248:2220,-0.688,-2.046,0.77,401.978,263.184,93.994,-19.611,-5.422,-124.069
 14:54:48.851,eb:33:2e:f9:57:b5, 2085-97-112 249:195:255:2630,-0.921,-0.45,1.061,442.017,179.749,66.101,-15.276,-3.115,-123.937
 14:54:48.851,eb:33:2e:f9:57:b5, 2085-97-205 250:23:06:3409,-0.538,0.516,1.226,390.137,99.121,39.734,-11.091,-1.719,-123.745
 14:54:48.911,eb:33:2e:f9:57:b5, 2085-97-107 253:206:05:3079,-0.188,0.746,1.34,299.866,92.102,-0.977,-7.69,-0.681,-123.755
 14:54:48.911,eb:33:2e:f9:57:b5, 2085-97-172 254:186:02:2507,-0.192,0.468,1.259,225.342,48.584,-29.907,-5.147,-0.005,-124.03
 14:54:48.911,eb:33:2e:f9:57:b5, 2085-97-102 255:53:01:2194,-0.04,0.28,1.116,186.951,-4.639,-43.213,-3.104,0.181,-124.426
 14:54:48.911,eb:33:2e:f9:57:b5, 2085-97-70 00:178:01:2267,-0.058,0.128,1.064,147.888,-29.846,-30.884,-1.445,-0.066,-124.794
 14:54:48.941,eb:33:2e:f9:57:b5, 2085-97-194 00:104:03:1995,-0.038,0.478,0.799,80.627,-31.677,-6.287,-0.286,-0.352,-124.98
 14:54:48.941,eb:33:2e:f9:57:b5, 2085-97-110 254:146:01:1588,-0.009,0.449,0.881,33.691,-11.963,-5.737,0.214,-0.533,-124.975
 14:54:48.941,eb:33:2e:f9:57:b5, 2085-97-57 01:99:00:2311,0.051,0.01,0.994,18.799,-16.174,-0.244,0.472,-0.736,-125.052
 14:54:48.941,eb:33:2e:f9:57:b5, 2085-97-39 255:226:00:1776,-0.116,0.115,1.019,12.268,8.972,3.357,0.615,-0.72,-125.008
 14:54:48.941,eb:33:2e:f9:57:b5, 2085-97-149 255:133:00:1960,-0.011,0.086,0.887,7.385,-1.038,-3.296,0.725,-0.692,-125.019
 14:54:48.970,eb:33:2e:f9:57:b5, 2085-113-81 00:12:59:-074,-0.001,0.051,1.004,4.028,0.61,-2.625,0.775,-0.692,-125.052
 14:54:48.970,eb:33:2e:f9:57:b5, 2085-97-240 255:90:00:2061,-0.001,0.045,1.02,3.845,1.953,-2.258,0.802,-0.681,-125.063
 14:54:48.970,eb:33:2e:f9:57:b5, 2085-97-00 00:79:00:2076,-0.008,0.048,1.007,3.662,2.502,-1.404,0.84,-0.659,-125.085
 14:54:48.970,eb:33:2e:f9:57:b5, 2085-97-226 255:38:00:2056,-0.017,0.027,1.011,4.456,3.052,-0.061,0.89,-0.621,-125.09
 14:54:49.033,eb:33:2e:f9:57:b5, 2085-97-176 255:25:00:2016,-0.03,0.015,1.011,5.92,0.916,1.892,0.939,-0.604,-125.079
 14:54:49.033,eb:33:2e:f9:57:b5, 2085-97-207 255:73:00:2015,-0.009,0.027,0.988,5.554,-2.075,4.578,1.011,-0.61,-125.046
 14:54:49.033,eb:33:2e:f9:57:b5, 2085-97-251 255:82:00:2043,0.006,0.041,0.99,5.066,-3.723,4.944,1.06,-0.643,-124.997
 14:54:49.033,eb:33:2e:f9:57:b5, 2085-97-02 00:89:00:2068,0.004,0.045,1.007,4.7,-2.197,5.432,1.115,-0.67,-124.948
 14:54:49.092,eb:33:2e:f9:57:b5, 2085-97-27 00:100:00:2066,0.021,0.039,1.01,4.456,0.61,4.883,1.165,-0.681,-124.893
 14:54:49.092,eb:33:2e:f9:57:b5, 2085-97-25 00:85:00:2087,0.009,0.048,1.021,4.639,4.333,3.784,1.219,-0.654,-124.854
 14:54:49.092,eb:33:2e:f9:57:b5, 2085-97-29 00:89:00:2076,0,0.04,1.004,4.944,6.104,3.052,1.263,-0.599,-124.821
 14:54:49.092,eb:33:2e:f9:57:b5, 2085-97-13 00:111:00:2059,0.014,0.04,1.001,4.883,7.263,2.502,1.324,-0.527,-124.794
 14:54:49.092,eb:33:2e:f9:57:b5, 2085-97-241 255:87:00:2048,0.013,0.053,1.017,5.493,10.01,0.61,1.373,-0.445,-124.777
 14:54:49.092,eb:33:2e:f9:57:b5, 2085-97-202 255:75:00:2029,-0.022,0.044,1.031,6.836,12.085,-0.061,1.445,-0.335,-124.772
 14:54:49.092,eb:33:2e:f9:57:b5, 2085-97-217 255:85:00:2037,-0.027,0.037,0.996,7.324,10.986,0.977,1.516,-0.22,-124.761
 14:54:49.092,eb:33:2e:f9:57:b5, 2085-97-231 255:113:00:2009,-0.007,0.045,0.976,7.263,10.193,1.16,1.599,-0.104,-124.75
 14:54:49.121,eb:33:2e:f9:57:b5, 2085-97-219 255:122:00:2017,-0.004,0.057,0.995,6.531,11.597,0.671,1.67,0,-124.739
 14:54:49.121,eb:33:2e:f9:57:b5, 2085-97-243 255:121:00:2070,-0.004,0.06,0.998,6.226,13,-0.488,1.741,0.121,-124.733
 14:54:49.121,eb:33:2e:f9:57:b5, 2085-97-244 255:105:00:2105,-0.018,0.059,1.013,6.531,16.235,-2.136,1.807,0.269,-124.744
 14:54:49.121,eb:33:2e:f9:57:b5, 2085-97-245 255:107:00:2103,-0.024,0.049,1.019,7.507,18.799,-2.869,1.884,0.456,-124.766
 14:54:49.272,eb:33:2e:f9:57:b5, 2085-97-229 255:117:00:2075,-0.022,0.05,1.013,7.996,20.935,-2.991,1.961,0.659,-124.788
 14:54:49.272,eb:33:2e:f9:57:b5, 2085-97-231 255:125:00:2073,-0.019,0.051,1.01,7.568,23.01,-3.296,2.049,0.884,-124.816
 14:54:49.272,eb:33:2e:f9:57:b5, 2085-97-223 255:123:00:2135,-0.006,0.059,1.033,7.812,25.94,-4.211,2.12,1.137,-124.849
 14:54:49.272,eb:33:2e:f9:57:b5, 2085-97-194 255:130:00:2096,-0.037,0.064,1.05,8.972,30.762,-5.066,2.214,1.423,-124.882
 14:54:49.272,eb:33:2e:f9:57:b5, 2085-97-173 255:115:00:2102,-0.048,0.065,1.01,9.888,30.64,-5.798,2.307,1.736,-124.926
 14:54:49.272,eb:33:2e:f9:57:b5, 2085-97-132 255:105:00:2127,-0.057,0.067,0.999,11.23,29.236,-5.493,2.422,2.049,-124.969
 14:54:49.272,eb:33:2e:f9:57:b5, 2085-97-139 255:169:00:1892,-0.026,0.052,1.015,12.451,28.748,-3.906,2.543,2.335,-125.008
 14:54:49.272,eb:33:2e:f9:57:b5, 2085-97-174 255:180:00:1999,-0.003,0.094,0.958,11.902,21.362,-4.333,2.675,2.582,-125.041
 14:54:49.301,eb:33:2e:f9:57:b5, 2085-97-08 00:193:00:2236,-0.016,0.095,1.051,14.282,16.724,-6.042,2.802,2.763,-125.085
 14:54:49.301,eb:33:2e:f9:57:b5, 2085-97-79 255:61:00:2657,-0.132,0.103,1.102,18.433,18.921,-7.996,2.966,2.955,-125.145
 14:54:49.301,eb:33:2e:f9:57:b5, 2085-97-99 254:69:255:3149,-0.182,-0.036,1.517,33.508,32.349,-8.85,3.224,3.203,-125.222
 14:54:49.301,eb:33:2e:f9:57:b5, 2085-97-215 254:243:255:2576,-0.147,-0.072,1.434,51.208,47.363,-4.517,3.664,3.631,-125.266
 14:54:49.303,eb:33:2e:f9:57:b5, 2085-97-151 254:13:00:2267,-0.212,0.022,1.12,59.998,45.898,-0.61,4.235,4.109,-125.255
 14:54:49.303,eb:33:2e:f9:57:b5, 2085-97-12 254:181:255:2381,-0.235,-0.019,1.134,65.186,39.856,5.371,4.872,4.537,-125.2
 14:54:49.303,eb:33:2e:f9:57:b5, 2085-97-131 254:223:255:2722,-0.119,-0.042,1.234,74.28,31.738,13.794,5.581,4.878,-125.068
 14:54:49.303,eb:33:2e:f9:57:b5, 2085-97-105 255:78:00:3009,-0.025,0.018,1.412,86.67,33.63,20.02,6.416,5.18,-124.86
 14:54:49.332,eb:33:2e:f9:57:b5, 2085-97-250 255:156:00:3107,-0.022,0.074,1.487,101.501,45.227,22.888,7.383,5.548,-124.59
 14:54:49.332,eb:33:2e:f9:57:b5, 2085-97-170 255:135:00:3277,-0.056,0.083,1.521,115.051,57.861,24.048,8.509,6.042,-124.283
 14:54:49.332,eb:33:2e:f9:57:b5, 2085-97-74 255:32:00:3389,-0.143,0.044,1.671,131.775,70.862,24.78,9.789,6.641,-123.937
 14:54:49.332,eb:33:2e:f9:57:b5, 2085-97-181 254:234:255:3290,-0.15,0.003,1.605,149.78,78.369,28.137,11.261,7.35,-123.536
 14:54:49.361,eb:33:2e:f9:57:b5, 2085-97-28 255:00:00:3592,-0.006,-0.021,1.646,169.006,75.806,31.433,12.925,8.036,-123.08
 14:54:49.361,eb:33:2e:f9:57:b5, 2085-97-216 00:122:00:3902,0.181,0.025,1.819,190.186,84.351,32.532,14.81,8.734,-122.563
 14:54:49.361,eb:33:2e:f9:57:b5, 2085-97-251 01:213:00:4181,0.293,0.074,1.971,214.661,104.248,27.71,16.93,9.569,-122.009
 14:54:49.361,eb:33:2e:f9:57:b5, 2085-97-181 02:90:00:4691,0.428,0.097,2.14,243.53,120.056,17.517,19.336,10.58,-121.432
 14:54:49.451,eb:33:2e:f9:57:b5, 2085-97-181 04:238:255:5403,0.832,-0.005,2.472,277.832,151.672,5.981,22.072,11.799,-120.833
 14:54:49.451,eb:33:2e:f9:57:b5, 2085-97-142 07:93:00:5357,0.959,0.035,2.643,321.411,203.857,-12.695,25.247,13.469,-120.119
 14:54:49.451,eb:33:2e:f9:57:b5, 2085-97-227 07:250:254:5921,0.887,-0.01,2.761,372.559,250.549,-40.955,28.943,15.634,-119.301
 14:54:49.451,eb:33:2e:f9:57:b5, 2085-97-64 07:240:00:6051,0.658,-0.062,2.927,425.354,307.8,-57.8,33.267,18.32,-118.218
 14:54:49.452,eb:33:2e:f9:57:b5, 2085-97-213 02:49:06:7192,0.366,0.56,3.01,490.112,293.274,-86.67,38.304,21.248,-116.906
 14:54:49.452,eb:33:2e:f9:57:b5, 2085-97-107 03:46:07:7376,0.472,0.839,3.701,565.369,226.807,-119.69,43.989,23.906,-115.917
 14:54:49.452,eb:33:2e:f9:57:b5, 2085-97-35 04:212:03:5794,0.32,0.871,3.18,636.597,131.775,-141.296,50.229,26.054,-115.466
 14:54:49.452,eb:33:2e:f9:57:b5, 2085-97-168 00:91:255:5504,-0.092,0.119,2.437,700.745,28.748,-160.339,56.827,27.735,-115.752
 14:54:49.481,eb:33:2e:f9:57:b5, 2085-97-138 255:248:254:7437,0.327,-0.175,3.639,679.993,0.244,-170.41,63.331,29.169,-116.746
 14:54:49.481,eb:33:2e:f9:57:b5, 2085-97-135 04:167:253:6727,0.719,-0.271,3.465,563.904,41.992,-197.693,69.258,30.91,-117.433
 14:54:49.481,eb:33:2e:f9:57:b5, 2085-97-182 04:137:243:5850,0.397,-0.671,3.02,395.813,137.329,-221.008,74.119,33.206,-117.208
 14:54:49.481,eb:33:2e:f9:57:b5, 2085-97-184 00:177:238:3172,0.145,-2.177,3.016,264.648,272.705,-158.081,78.311,35.568,-115.334
 14:54:49.542,eb:33:2e:f9:57:b5, 2085-97-13 03:87:240:-5379,0.542,-1.951,-1.082,147.034,226.929,-78.186,82.271,37.123,-112.291
 14:54:49.542,eb:33:2e:f9:57:b5, 2085-97-127 05:236:238:-2941,0.631,-2.065,-2.347,-76.111,80.017,-26.55,83.491,37.793,-110.599
 14:54:49.542,eb:33:2e:f9:57:b5, 2085-97-191 03:116:242:-398,0.439,-1.958,-0.838,-225.525,7.141,35.583,82.145,37.744,-110.089
 14:54:49.542,eb:33:2e:f9:57:b5, 2085-97-233 03:187:245:1630,0.549,-1.443,0.376,-285.339,-65.491,77.271,79.288,37.09,-110.413
 14:54:49.571,eb:33:2e:f9:57:b5, 2085-113-58 00:167:239:-9495,0.596,-1.192,1.036,-290.1,-102.234,105.347,75.888,35.975,-111.242
 14:54:49.571,eb:33:2e:f9:57:b5, 2085-97-235 04:120:247:1742,0.63,-1.133,1.041,-285.217,-106.934,114.746,74.185,35.305,-111.687
 14:54:49.571,eb:33:2e:f9:57:b5, 2085-97-44 05:231:248:976,0.651,-0.996,0.648,-278.259,-115.723,122.62,70.873,33.816,-112.555
 14:54:49.571,eb:33:2e:f9:57:b5, 2085-97-29 05:138:250:541,0.621,-0.771,0.341,-283.081,-130.737,119.141,67.604,32.239,-113.412
 14:54:49.661,eb:33:2e:f9:57:b5, 2085-97-192 04:58:251:592,0.553,-0.627,0.256,-296.631,-157.471,105.774,64.155,30.613,-114.434
 14:54:49.661,eb:33:2e:f9:57:b5, 2085-97-23 04:89:251:862,0.458,-0.582,0.342,-313.904,-184.509,89.05,60.474,28.954,-115.681
 14:54:49.661,eb:33:2e:f9:57:b5, 2085-97-54 03:31:251:1284,0.334,-0.594,0.516,-328.247,-203.43,73.547,56.563,27.241,-117.109
 14:54:49.661,eb:33:2e:f9:57:b5, 2085-97-34 02:13:251:1726,0.221,-0.621,0.738,-336.67,-208.008,62.805,52.581,25.488,-118.564
 14:54:49.663,eb:33:2e:f9:57:b5, 2085-97-92 01:123:251:2070,0.124,-0.597,0.942,-338.257,-199.341,55.847,48.625,23.73,-119.894
 14:54:49.663,eb:33:2e:f9:57:b5, 2085-97-196 00:19:252:2184,0.06,-0.534,1.039,-335.327,-187.927,49.011,44.813,22.033,-121.036
 14:54:49.663,eb:33:2e:f9:57:b5, 2085-97-112 00:131:252:2157,0.035,-0.465,1.047,-333.984,-179.932,40.649,41.089,20.385,-122.031
 14:54:49.663,eb:33:2e:f9:57:b5, 2085-97-48 00:247:252:2177,0.03,-0.398,1.045,-337.402,-177.917,29.053,37.43,18.781,-122.943
 14:54:49.690,eb:33:2e:f9:57:b5, 2085-97-19 00:72:253:2434,0.005,-0.354,1.127,-341.98,-181.519,16.785,33.723,17.177,-123.86
 14:54:49.690,eb:33:2e:f9:57:b5, 2085-97-208 255:122:253:2746,-0.058,-0.322,1.278,-344.727,-188.049,3.601,30.026,15.551,-124.794
 14:54:49.690,eb:33:2e:f9:57:b5, 2085-97-79 255:100:253:2993,-0.117,-0.316,1.399,-348.633,-192.505,-7.446,26.29,13.87,-125.76
 14:54:49.690,eb:33:2e:f9:57:b5, 2085-97-223 254:65:253:3268,-0.171,-0.334,1.519,-353.76,-192.078,-14.221,22.566,12.167,-126.683
 14:54:49.721,eb:33:2e:f9:57:b5, 2085-97-67 254:33:253:3611,-0.274,-0.348,1.681,-356.689,-191.467,-15.625,18.82,10.421,-127.529
 14:54:49.721,eb:33:2e:f9:57:b5, 2085-97-121 253:192:252:3944,-0.367,-0.376,1.83,-357.178,-196.472,-10.559,15.128,8.602,-128.232
 14:54:49.721,eb:33:2e:f9:57:b5, 2085-97-153 252:36:252:4402,-0.47,-0.442,2.024,-361.694,-200.684,3.723,11.442,6.663,-128.732
 14:54:49.721,eb:33:2e:f9:57:b5, 2085-97-247 251:53:252:5120,-0.521,-0.5,2.314,-373.108,-195.496,26.245,7.751,4.675,-128.914
 14:54:49.780,eb:33:2e:f9:57:b5, 2085-97-205 251:195:253:5850,-0.511,-0.402,2.691,-388.123,-179.199,50.476,3.922,2.763,-128.705
 14:54:49.780,eb:33:2e:f9:57:b5, 2085-97-61 252:241:00:6330,-0.44,-0.105,2.986,-403.076,-163.574,66.956,-0.022,1.044,-128.161
 14:54:49.780,eb:33:2e:f9:57:b5, 2085-97-166 252:47:05:6502,-0.424,0.376,3.138,-417.542,-159.241,69.214,-4.158,-0.533,-127.408
 14:54:49.780,eb:33:2e:f9:57:b5, 2085-97-108 252:131:09:6790,-0.496,0.919,3.223,-428.833,-170.959,58.838,-8.421,-2.098,-126.59
 14:54:49.810,eb:33:2e:f9:57:b5, 2085-97-84 251:185:13:7441,-0.729,1.457,3.461,-429.016,-190.735,41.626,-12.794,-3.807,-125.76
 14:54:49.810,eb:33:2e:f9:57:b5, 2085-97-225 248:228:16:8032,-0.9,1.935,3.793,-412.903,-201.66,27.893,-17.078,-5.636,-124.926
 14:54:49.810,eb:33:2e:f9:57:b5, 2085-97-96 251:61:21:8421,-0.256,2.275,4.021,-376.587,-165.344,18.005,-21.143,-7.361,-124.08
 14:54:49.810,eb:33:2e:f9:57:b5, 2085-97-243 00:161:34:7378,0.359,3.447,3.834,-350.098,-31.311,-2.93,-24.813,-8.163,-123.629
 14:54:49.871,eb:33:2e:f9:57:b5, 2085-97-114 02:157:47:3417,-0.09,5.177,3.038,-307.373,60.547,-67.993,-28.07,-8.086,-124.08
 14:54:49.871,eb:33:2e:f9:57:b5, 2085-97-47 250:122:46:-2068,-1.648,6.206,0.072,-170.715,-82.52,-153.015,-30.306,-8.597,-125.129
 14:54:49.871,eb:33:2e:f9:57:b5, 2085-97-243 237:110:35:726,-2.823,5.05,-0.862,-10.315,-317.444,-180.176,-31.058,-11.398,-125.508
 14:54:49.871,eb:33:2e:f9:57:b5, 2085-97-250 203:107:253:20359,-6.564,3.922,1.79,122.131,-365.784,-145.386,-30.547,-15.249,-125.035
 14:54:49.933,eb:33:2e:f9:57:b5, 2085-97-176 234:78:21:5593,0.299,1.862,6.24,333.069,313.538,89.417,-27.817,-15.271,-124.7
 14:54:49.933,eb:33:2e:f9:57:b5, 2085-97-156 10:190:249:1461,0.479,-0.456,-0.647,293.945,397.034,215.576,-24.587,-11.25,-125.173
 14:54:49.933,eb:33:2e:f9:57:b5, 2085-97-239 00:68:240:572,-0.697,-0.625,0.976,369.812,375.488,244.568,-21.423,-6.394,-124.376
 14:54:49.933,eb:33:2e:f9:57:b5, 2085-97-101 248:29:249:2513,-1.215,-1.145,1.116,432.617,219.971,203.979,-17.419,-3.016,-123.168
 14:54:49.933,eb:33:2e:f9:57:b5, 2085-97-213 247:24:05:2694,-1.074,-0.462,1.188,412.903,128.296,141.663,-13.167,-0.895,-122.031
 14:54:49.933,eb:33:2e:f9:57:b5, 2085-97-40 249:244:11:2463,-0.515,1.269,1.121,346.497,82.886,56.702,-9.393,0.275,-121.295
 14:54:49.933,eb:33:2e:f9:57:b5, 2085-97-11 253:177:06:2472,-0.413,1.382,1.443,243.469,46.631,-14.709,-6.471,0.95,-121.229
 14:54:49.933,eb:33:2e:f9:57:b5, 2085-97-30 253:01:02:1766,-0.148,0.514,0.923,184.326,1.221,-51.758,-4.427,1.148,-121.619
 14:54:49.962,eb:33:2e:f9:57:b5, 2085-97-120 01:189:255:2677,0.28,0.029,1.026,166.87,-31.372,-58.594,-2.686,0.912,-122.195
 14:54:49.962,eb:33:2e:f9:57:b5, 2085-97-160 01:119:00:2639,0.122,-0.041,1.396,139.648,-18.494,-33.813,-1.165,0.615,-122.646
 14:54:49.962,eb:33:2e:f9:57:b5, 2085-97-174 00:91:04:1902,-0.093,0.428,1.068,81.726,4.7,-2.38,-0.027,0.56,-122.805
 14:54:49.962,eb:33:2e:f9:57:b5, 2085-97-205 254:125:01:1629,0.214,0.492,0.836,33.386,5.676,-11.047,0.461,0.681,-122.811
 14:54:50.081,eb:33:2e:f9:57:b5, 2085-97-04 00:112:00:1967,-0.15,0.012,1.369,19.47,36.621,-4.761,0.72,0.736,-122.915
 14:54:50.081,eb:33:2e:f9:57:b5, 2085-97-233 254:244:00:1827,-0.188,0.177,0.797,12.695,19.348,-7.385,0.879,1.066,-122.953
 14:54:50.081,eb:33:2e:f9:57:b5, 2085-97-213 254:79:00:1848,-0.072,0.02,0.848,5.005,14.282,-6.165,0.967,1.263,-123.03
 14:54:50.081,eb:33:2e:f9:57:b5, 2085-97-129 255:142:00:2005,-0.032,0.066,0.986,2.747,6.897,-4.761,1.005,1.34,-123.08
 14:54:50.083,eb:33:2e:f9:57:b5, 2085-97-183 255:116:00:2080,-0.051,0.07,1.015,0.61,7.812,-5.737,1.027,1.417,-123.129
 14:54:50.083,eb:33:2e:f9:57:b5, 2085-97-128 255:61:00:2060,-0.096,0.042,1.005,1.038,9.338,-6.592,1.033,1.511,-123.195
 14:54:50.083,eb:33:2e:f9:57:b5, 2085-97-47 255:32:00:1978,-0.105,0.017,0.969,2.625,6.958,-5.31,1.06,1.604,-123.256
 14:54:50.084,eb:33:2e:f9:57:b5, 2085-97-46 255:21:00:1972,-0.113,0.013,0.962,4.272,0,-2.93,1.099,1.637,-123.294
 14:54:50.084,eb:33:2e:f9:57:b5, 2085-97-26 255:21:00:1949,-0.1,0.008,0.949,4.944,-7.385,0.732,1.154,1.604,-123.305
 14:54:50.084,eb:33:2e:f9:57:b5, 2085-97-103 255:81:00:2015,-0.038,0.024,0.961,4.944,-13.306,3.906,1.203,1.494,-123.283
 14:54:50.084,eb:33:2e:f9:57:b5, 2085-97-220 255:120:00:2118,-0.002,0.051,1.018,4.761,-12.512,3.784,1.263,1.362,-123.245
 14:54:50.084,eb:33:2e:f9:57:b5, 2085-97-245 255:134:00:2133,-0.006,0.062,1.048,4.761,-5.554,1.587,1.313,1.269,-123.217
 14:54:50.140,eb:33:2e:f9:57:b5, 2085-97-226 255:119:00:2110,-0.003,0.062,1.042,5.249,1.16,-0.854,1.373,1.258,-123.217
 14:54:50.140,eb:33:2e:f9:57:b5, 2085-97-216 255:122:00:2117,-0.011,0.058,1.049,6.042,6.958,-2.563,1.428,1.302,-123.234
 14:54:50.140,eb:33:2e:f9:57:b5, 2085-97-212 255:107:00:2118,-0.044,0.054,1.049,7.141,11.841,-4.7,1.511,1.401,-123.272
 14:54:50.140,eb:33:2e:f9:57:b5, 2085-97-153 255:76:00:2076,-0.063,0.046,1.012,7.751,13.733,-5.188,1.582,1.538,-123.322
 14:54:50.203,eb:33:2e:f9:57:b5, 2085-97-111 255:90:00:2007,-0.058,0.042,0.99,6.897,13.733,-3.601,1.664,1.686,-123.36
 14:54:50.203,eb:33:2e:f9:57:b5, 2085-97-84 255:100:00:1976,-0.087,0.052,1.003,6.287,13.428,-1.831,1.73,1.818,-123.382
 14:54:50.203,eb:33:2e:f9:57:b5, 2085-97-64 255:70:00:1972,-0.089,0.038,0.963,6.653,10.742,-0.732,1.807,1.945,-123.393
 14:54:50.203,eb:33:2e:f9:57:b5, 2085-97-85 255:91:00:2019,-0.064,0.035,0.95,8.606,6.531,0,1.879,2.032,-123.393
 14:54:50.231,eb:33:2e:f9:57:b5, 2085-97-186 255:149:00:2136,-0.017,0.061,0.997,9.155,4.578,0.61,1.983,2.093,-123.387
 14:54:50.231,eb:33:2e:f9:57:b5, 2085-97-196 255:144:00:2156,-0.01,0.089,1.029,9.216,9.949,-0.977,2.076,2.164,-123.387
 14:54:50.231,eb:33:2e:f9:57:b5, 2085-97-228 255:179:00:2126,-0.037,0.086,1.071,10.071,15.808,-2.808,2.181,2.296,-123.398
 14:54:50.231,eb:33:2e:f9:57:b5, 2085-97-180 255:139:00:2125,-0.053,0.064,1.087,11.475,21.118,-4.517,2.285,2.488,-123.437
 14:54:50.261,eb:33:2e:f9:57:b5, 2085-97-138 255:146:00:2046,-0.025,0.082,0.98,12.024,23.132,-5.737,2.411,2.725,-123.475
 14:54:50.261,eb:33:2e:f9:57:b5, 2085-97-149 255:200:00:1971,-0.008,0.099,1.002,11.658,24.048,-6.226,2.532,2.944,-123.519
 14:54:50.261,eb:33:2e:f9:57:b5, 2085-97-209 255:03:01:1909,-0.006,0.113,1.005,12.695,20.874,-8.972,2.664,3.164,-123.591
 14:54:50.261,eb:33:2e:f9:57:b5, 2085-97-164 255:252:00:1982,-0.036,0.156,0.947,15.259,10.254,-11.353,2.796,3.323,-123.684
 14:54:50.291,eb:33:2e:f9:57:b5, 2085-97-251 254:96:00:2209,-0.206,0.122,1.012,19.043,3.357,-12.39,2.977,3.389,-123.799
 14:54:50.291,eb:33:2e:f9:57:b5, 2085-97-50 254:216:255:2284,-0.188,-0.022,1.15,24.658,7.996,-9.705,3.192,3.45,-123.915
 14:54:50.291,eb:33:2e:f9:57:b5, 2085-97-27 255:113:00:2296,-0.078,0.004,1.096,30.396,9.766,-6.897,3.472,3.56,-123.986
 14:54:50.291,eb:33:2e:f9:57:b5, 2085-113-58 00:101:230:-6225,-0.073,0.074,1.157,35.95,13.794,-6.531,3.801,3.675,-124.047
 14:54:50.291,eb:33:2e:f9:57:b5, 2085-97-58 255:144:00:2571,-0.119,0.075,1.192,39.001,17.883,-6.958,3.999,3.768,-124.074
 14:54:50.382,eb:33:2e:f9:57:b5, 2085-97-21 255:63:00:2690,-0.131,0.025,1.333,46.265,30.701,-7.324,4.422,4.016,-124.135
 14:54:50.382,eb:33:2e:f9:57:b5, 2085-97-157 254:57:00:2381,-0.202,0.03,1.242,54.321,41.382,-4.517,4.938,4.4,-124.167
 14:54:50.382,eb:33:2e:f9:57:b5, 2085-97-33 254:00:00:2385,-0.243,0.014,1.153,60.425,41.443,-0.977,5.515,4.818,-124.156
 14:54:50.382,eb:33:2e:f9:57:b5, 2085-97-37 254:253:255:2654,-0.184,-0.007,1.195,67.017,38.513,5.615,6.174,5.219,-124.091
 14:54:50.382,eb:33:2e:f9:57:b5, 2085-97-225 254:66:00:3067,-0.103,0.006,1.458,78.674,43.579,12.634,6.916,5.598,-123.953
 14:54:50.382,eb:33:2e:f9:57:b5, 2085-97-116 255:162:00:3189,-0.09,0.068,1.499,90.393,56.58,16.724,7.795,6.092,-123.734
 14:54:50.382,eb:33:2e:f9:57:b5, 2085-97-70 255:88:00:3217,-0.133,0.078,1.561,105.408,68.97,19.958,8.811,6.696,-123.459
 14:54:50.382,eb:33:2e:f9:57:b5, 2085-97-06 255:57:00:3335,-0.121,0.032,1.571,121.643,79.346,24.475,10.009,7.41,-123.107
 14:54:50.440,eb:33:2e:f9:57:b5, 2085-97-237 254:47:00:3346,-0.136,0.026,1.658,139.16,90.088,30.884,11.382,8.196,-122.673
 14:54:50.440,eb:33:2e:f9:57:b5, 2085-97-25 255:104:00:3589,-0.04,0.021,1.659,158.508,93.567,35.522,12.964,9.036,-122.146
 14:54:50.440,eb:33:2e:f9:57:b5, 2085-97-10 00:197:00:3855,0.055,0.08,1.799,182.8,95.764,34.546,14.777,9.871,-121.564
 14:54:50.440,eb:33:2e:f9:57:b5, 2085-97-192 00:182:00:4092,0.161,0.07,1.971,209.106,107.971,29.236,16.859,10.767,-120.976
 14:54:50.472,eb:33:2e:f9:57:b5, 2085-97-65 01:58:00:4165,0.106,0.057,2.042,240.173,122.864,23.01,19.237,11.788,-120.355
 14:54:50.472,eb:33:2e:f9:57:b5, 2085-97-161 00:180:254:4701,0.189,-0.063,2.132,276.611,127.502,15.503,21.978,12.898,-119.729
 14:54:50.472,eb:33:2e:f9:57:b5, 2085-97-149 02:43:254:5390,0.487,-0.201,2.517,321.228,148.621,11.963,25.148,14.09,-119.042
 14:54:50.472,eb:33:2e:f9:57:b5, 2085-97-32 05:39:254:5334,0.651,-0.221,2.641,369.507,191.284,3.967,28.85,15.584,-118.158
 14:54:50.500,eb:33:2e:f9:57:b5, 2085-97-128 04:85:255:5735,0.267,-0.124,2.623,429.932,224.426,-13,33.179,17.419,-117.059
 14:54:50.500,eb:33:2e:f9:57:b5, 2085-97-106 255:126:03:6614,-0.028,0.056,2.945,497.986,230.957,-29.236,38.232,19.429,-115.829
 14:54:50.500,eb:33:2e:f9:57:b5, 2085-97-09 00:44:06:7516,0.09,0.604,3.561,582.642,164.734,-48.34,44.05,21.22,-114.763
 14:54:50.500,eb:33:2e:f9:57:b5, 2085-97-177 00:22:03:7581,0.104,0.734,3.903,655.64,83.862,-71.716,50.46,22.451,-114.307
 14:54:50.531,eb:33:2e:f9:57:b5, 2085-97-92 254:32:252:6190,-0.412,-0.163,3.315,693.298,44.678,-89.478,57.261,23.522,-114.302
 14:54:50.531,eb:33:2e:f9:57:b5, 2085-97-109 253:233:01:6886,-0.118,-0.424,2.909,702.454,-1.709,-82.458,64.16,24.357,-114.582
 14:54:50.531,eb:33:2e:f9:57:b5, 2085-97-228 00:228:253:6672,0.283,0.036,3.493,647.583,7.08,-119.202,70.757,25.307,-115.038
 14:54:50.531,eb:33:2e:f9:57:b5, 2085-97-87 04:249:247:4275,0.616,-0.462,2.644,520.386,47.913,-143.982,76.564,26.669,-115.098
 14:54:50.592,eb:33:2e:f9:57:b5, 2085-97-99 05:58:244:2559,0.618,-1.518,1.443,326.355,45.044,-142.273,80.848,28.196,-114.824
 14:54:50.592,eb:33:2e:f9:57:b5, 2085-97-80 03:192:235:-1880,0.18,-2.179,1.089,164.062,88.44,-137.146,83.342,29.724,-114.467
 14:54:50.592,eb:33:2e:f9:57:b5, 2085-97-243 02:232:241:-4323,0.648,-2.194,-2.537,-56.702,69.275,-110.84,84.331,31.031,-113.456
 14:54:50.592,eb:33:2e:f9:57:b5, 2085-97-105 03:152:243:-016,0.214,-1.517,-0.895,-242.126,-15.381,-86.243,82.667,32.031,-113.406
 14:54:50.622,eb:33:2e:f9:57:b5, 2085-97-172 01:241:243:1882,0.292,-1.596,0.625,-309.631,-73.853,-54.016,79.415,32.635,-114.12
 14:54:50.622,eb:33:2e:f9:57:b5, 2085-97-148 02:40:245:2060,0.317,-1.409,1.038,-319.458,-104.919,-22.4,75.586,32.783,-115.302
 14:54:50.622,eb:33:2e:f9:57:b5, 2085-97-78 02:197:245:1316,0.278,-1.32,0.864,-311.89,-112.732,6.348,71.735,32.531,-116.581
 14:54:50.622,eb:33:2e:f9:57:b5, 2085-97-91 02:55:247:863,0.283,-1.215,0.492,-305.42,-124.512,28.748,67.978,31.943,-117.828
 14:54:50.651,eb:33:2e:f9:57:b5, 2085-97-24 02:179:248:732,0.246,-0.989,0.375,-310.974,-136.902,43.945,64.259,31.064,-119.053
 14:54:50.651,eb:33:2e:f9:57:b5, 2085-97-226 01:74:249:834,0.226,-0.865,0.372,-321.228,-156.433,51.147,60.436,29.954,-120.317
 14:54:50.651,eb:33:2e:f9:57:b5, 2085-97-203 01:162:249:1139,0.216,-0.817,0.465,-332.825,-176.086,54.871,56.514,28.619,-121.635
 14:54:50.651,eb:33:2e:f9:57:b5, 2085-97-180 01:219:249:1550,0.2,-0.784,0.659,-344.971,-184.265,55.054,52.482,27.114,-122.953
 14:54:50.710,eb:33:2e:f9:57:b5, 2085-97-65 01:89:250:1867,0.118,-0.739,0.848,-352.783,-188.171,52.124,48.439,25.51,-124.178
 14:54:50.710,eb:33:2e:f9:57:b5, 2085-97-153 00:215:250:2126,0.019,-0.678,0.986,-355.957,-191.223,47.974,44.39,23.835,-125.327
 14:54:50.710,eb:33:2e:f9:57:b5, 2085-97-182 255:120:251:2260,-0.072,-0.61,1.066,-357.544,-192.871,43.823,40.419,22.11,-126.365
 14:54:50.710,eb:33:2e:f9:57:b5, 2085-97-101 255:253:251:2563,-0.092,-0.532,1.152,-361.023,-195.19,37.964,36.453,20.33,-127.326
 14:54:50.770,eb:33:2e:f9:57:b5, 2085-97-255 254:135:252:2898,-0.157,-0.468,1.343,-366.333,-192.688,28.503,32.52,18.539,-128.21
 14:54:50.770,eb:33:2e:f9:57:b5, 2085-97-151 254:64:253:3148,-0.208,-0.393,1.479,-371.399,-188.599,15.625,28.553,16.782,-129.034
 14:54:50.770,eb:33:2e:f9:57:b5, 2085-97-23 254:225:253:3287,-0.246,-0.3,1.58,-375.305,-182.8,1.16,24.598,15.09,-129.825
 14:54:50.770,eb:33:2e:f9:57:b5, 2085-97-237 253:67:254:3499,-0.298,-0.238,1.656,-374.329,-181.519,-13.062,20.621,13.431,-130.616
 14:54:50.772,eb:33:2e:f9:57:b5, 2085-97-96 253:44:254:3681,-0.363,-0.213,1.739,-370.239,-185.547,-25.146,16.727,11.755,-131.413
 14:54:50.772,eb:33:2e:f9:57:b5, 2085-97-188 252:178:253:3790,-0.463,-0.253,1.827,-369.934,-191.101,-31.921,12.854,10.003,-132.198
 14:54:50.772,eb:33:2e:f9:57:b5, 2085-97-219 251:19:253:4072,-0.563,-0.33,1.907,-378.174,-196.045,-31.921,9.009,8.157,-132.896
 14:54:50.772,eb:33:2e:f9:57:b5, 2085-97-36 251:12:253:4681,-0.655,-0.384,2.118,-392.029,-194.336,-25.33,5.054,6.24,-133.429
 14:54:50.832,eb:33:2e:f9:57:b5, 2085-97-120 250:117:254:5312,-0.723,-0.306,2.441,-404.907,-181.396,-15.137,1.027,4.373,-133.731
 14:54:50.832,eb:33:2e:f9:57:b5, 2085-97-12 250:70:01:5740,-0.762,-0.033,2.71,-410.095,-169.983,-7.202,-3.087,2.626,-133.802
 14:54:50.832,eb:33:2e:f9:57:b5, 2085-97-175 249:185:04:5931,-0.826,0.374,2.852,-410.767,-169.861,-5.493,-7.191,0.939,-133.709
 14:54:50.832,eb:33:2e:f9:57:b5, 2085-97-250 248:216:07:6189,-0.95,0.793,2.944,-409.302,-177.002,-8.179,-11.321,-0.791,-133.495
 14:54:50.862,eb:33:2e:f9:57:b5, 2085-97-184 247:157:10:6588,-1.135,1.16,3.103,-401.611,-179.688,-9.399,-15.386,-2.554,-133.171
 14:54:50.863,eb:33:2e:f9:57:b5, 2085-97-03 246:252:12:7048,-1.357,1.487,3.339,-383.423,-165.771,-2.991,-19.363,-4.235,-132.709
 14:54:50.863,eb:33:2e:f9:57:b5, 2085-97-134 244:206:14:7046,-1.44,1.741,3.477,-351.44,-129.028,15.869,-23.088,-5.587,-132.122
 14:54:50.863,eb:33:2e:f9:57:b5, 2085-113-58 00:147:229:-5025,-1.385,1.977,3.329,-309.387,-69.885,46.143,-26.466,-6.345,-131.418
 14:54:50.892,eb:33:2e:f9:57:b5, 2085-97-106 248:250:19:5828,-0.634,2.187,3.052,-287.598,-38.696,59.753,-27.988,-6.449,-131.056
 14:54:50.892,eb:33:2e:f9:57:b5, 2085-97-121 252:218:29:3984,-0.358,3.06,2.35,-245.789,39.062,74.768,-30.685,-5.999,-130.49
 14:54:50.892,eb:33:2e:f9:57:b5, 2085-97-210 252:234:35:2175,-0.557,4.24,1.556,-186.462,12.268,51.697,-32.899,-5.389,-130.111
 14:54:50.892,eb:33:2e:f9:57:b5, 2085-97-36 249:209:33:1315,-1.189,4.442,0.688,-94.604,-86.609,22.339,-34.321,-5.526,-129.589
 14:54:50.951,eb:33:2e:f9:57:b5, 2085-97-07 244:153:29:2898,-1.741,3.973,0.913,-9.094,-151.733,10.925,-34.876,-6.498,-128.738
 14:54:50.951,eb:33:2e:f9:57:b5, 2085-97-199 240:118:24:4961,-1.945,3.391,1.984,54.138,-126.526,20.63,-34.717,-7.614,-127.771
 14:54:50.951,eb:33:2e:f9:57:b5, 2085-97-176 241:57:20:5181,-1.483,2.763,2.58,91.309,-17.456,47.119,-34.036,-7.998,-127.079
 14:54:50.951,eb:33:2e:f9:57:b5, 2085-97-230 247:154:17:5027,1.533,2.406,2.31,111.755,86.243,73.608,-33.047,-7.278,-126.799
 14:54:50.981,eb:33:2e:f9:57:b5, 2085-97-108 04:143:246:2558,1.25,-2.618,9.833,296.143,200.317,69.214,-30.773,-6.52,-126.7
 14:54:50.981,eb:33:2e:f9:57:b5, 2085-97-49 09:186:236:1003,0.467,-1.859,-1.127,250.183,151.245,142.151,-28.246,-4.356,-126.661
 14:54:50.981,eb:33:2e:f9:57:b5, 2085-97-08 255:182:243:469,-0.511,-2.337,0.109,390.137,67.627,101.379,-25.093,-2.752,-126.079
 14:54:50.981,eb:33:2e:f9:57:b5, 2085-97-210 250:37:254:2759,-0.553,-0.854,0.708,497.986,0.427,98.145,-20.528,-2.214,-125.255
 14:54:51.010,eb:33:2e:f9:57:b5, 2085-97-255 252:173:06:3836,-0.349,0.35,1.751,466.919,40.649,73.547,-15.628,-1.785,-124.519
 14:54:51.010,eb:33:2e:f9:57:b5, 2085-97-37 253:240:06:3597,-0.24,0.937,2.071,367.92,68.848,41.199,-11.47,-1.082,-124.069
 14:54:51.010,eb:33:2e:f9:57:b5, 2085-97-47 254:97:06:2982,-0.157,0.82,1.582,268.921,43.701,-10.925,-8.35,-0.472,-124.074
 14:54:51.010,eb:33:2e:f9:57:b5, 2085-97-03 255:28:03:2383,-0.044,0.623,1.303,190.43,-0.793,-34.119,-6.092,-0.319,-124.382
 14:54:51.072,eb:33:2e:f9:57:b5, 2085-97-109 255:121:01:2008,-0.092,0.238,1.095,133.972,-30.212,-33.386,-4.504,-0.538,-124.695
 14:54:51.072,eb:33:2e:f9:57:b5, 2085-97-224 255:234:01:2093,0.077,0.128,0.99,101.868,-49.072,-30.945,-3.351,-0.983,-124.986
 14:54:51.072,eb:33:2e:f9:57:b5, 2085-97-15 01:255:01:2158,0.103,0.224,1.07,66.711,-35.217,-28.503,-2.51,-1.423,-125.272
 14:54:51.072,eb:33:2e:f9:57:b5, 2085-97-35 00:255:00:2040,-0.029,0.185,1.041,39.307,-12.268,-19.775,-2,-1.659,-125.508
 14:54:51.162,eb:33:2e:f9:57:b5, 2085-97-221 255:106:00:1990,0.01,0.085,0.966,23.071,-1.221,-10.01,-1.681,-1.703,-125.651
 14:54:51.162,eb:33:2e:f9:57:b5, 2085-97-15 00:85:00:2044,0.002,0.042,1,14.771,2.075,-3.479,-1.5,-1.703,-125.711
 14:54:51.162,eb:33:2e:f9:57:b5, 2085-97-02 00:57:00:2052,0.007,0.032,0.996,9.827,4.395,-0.244,-1.368,-1.659,-125.728
 14:54:51.162,eb:33:2e:f9:57:b5, 2085-97-33 00:06:00:2111,0.008,0.012,1.021,6.287,8.606,4.089,-1.291,-1.593,-125.711
 14:54:51.164,eb:33:2e:f9:57:b5, 2085-97-19 00:248:255:2092,0.009,-0.004,1.025,5.737,12.207,7.69,-1.219,-1.472,-125.651
 14:54:51.164,eb:33:2e:f9:57:b5, 2085-97-243 255:229:255:2067,-0.023,-0.008,1.022,5.92,13.672,10.559,-1.165,-1.34,-125.563
 14:54:51.164,eb:33:2e:f9:57:b5, 2085-97-194 255:07:00:2008,-0.03,-0.005,0.99,5.31,12.817,13.245,-1.099,-1.198,-125.442
 14:54:51.164,eb:33:2e:f9:57:b5, 2085-97-199 255:62:00:1986,-0.028,0.024,0.968,4.7,9.521,12.634,-1.049,-1.082,-125.316
 14:54:51.221,eb:33:2e:f9:57:b5, 2085-97-193 255:43:00:1986,-0.024,0.028,0.97,4.089,6.958,9.399,-0.994,-0.989,-125.206
 14:54:51.221,eb:33:2e:f9:57:b5, 2085-97-227 255:45:00:2021,-0.015,0.021,0.978,4.028,4.822,6.592,-0.956,-0.934,-125.129
 14:54:51.221,eb:33:2e:f9:57:b5, 2085-97-222 255:22:00:2023,-0.018,0.016,0.992,4.7,4.639,4.333,-0.901,-0.879,-125.079
 14:54:51.221,eb:33:2e:f9:57:b5, 2085-97-212 255:21:00:2020,-0.027,0.012,0.987,5.249,3.601,3.174,-0.851,-0.835,-125.041
 14:54:51.221,eb:33:2e:f9:57:b5, 2085-97-205 255:11:00:2015,-0.019,0.007,0.983,5.493,1.953,2.38,-0.78,-0.797,-125.019
 14:54:51.223,eb:33:2e:f9:57:b5, 2085-113-58 00:147:229:-5745,-0.017,0.009,0.985,5.127,0.732,2.197,-0.731,-0.786,-124.991
 14:54:51.223,eb:33:2e:f9:57:b5, 2085-97-216 255:34:00:2005,-0.015,0.014,0.987,5.005,0.183,1.892,-0.687,-0.769,-124.986
 14:54:51.223,eb:33:2e:f9:57:b5, 2085-97-243 255:26:00:2046,0.013,0.014,0.988,4.456,-0.732,1.526,-0.643,-0.775,-124.969
 14:54:51.223,eb:33:2e:f9:57:b5, 2085-97-24 00:31:00:2088,0.021,0.02,1.013,4.333,1.648,1.404,-0.588,-0.769,-124.953
 14:54:51.312,eb:33:2e:f9:57:b5, 2085-97-49 00:40:00:2105,0.023,0.018,1.027,4.272,6.226,1.465,-0.544,-0.725,-124.942
 14:54:51.312,eb:33:2e:f9:57:b5, 2085-97-41 00:43:00:2100,0.007,0.023,1.025,4.333,11.475,1.465,-0.489,-0.626,-124.931
 14:54:51.312,eb:33:2e:f9:57:b5, 2085-97-01 00:40:00:2073,-0.002,0.021,1.012,4.395,15.137,1.648,-0.445,-0.489,-124.915
 14:54:51.312,eb:33:2e:f9:57:b5, 2085-97-235 255:36:00:2075,-0.019,0.018,1.018,4.883,17.578,1.221,-0.385,-0.313,-124.898
 14:54:51.314,eb:33:2e:f9:57:b5, 2085-97-248 255:40:00:2090,-0.016,0.015,1.004,5.615,18.25,0.183,-0.33,-0.126,-124.898
 14:54:51.314,eb:33:2e:f9:57:b5, 2085-113-81 00:50:59:-014,-0.023,0.019,1.008,6.409,20.691,-1.16,-0.258,0.077,-124.904
 14:54:51.314,eb:33:2e:f9:57:b5, 2085-97-225 255:56:00:2069,-0.023,0.022,1.005,6.836,21.179,-2.014,-0.225,0.181,-124.909
 14:54:51.314,eb:33:2e:f9:57:b5, 2085-97-220 255:61:00:2070,-0.019,0.022,1.008,8.057,22.766,-4.211,-0.148,0.401,-124.948
 14:54:51.369,eb:33:2e:f9:57:b5, 2085-97-188 255:44:00:2075,-0.03,0.025,1.021,9.399,24.475,-6.165,-0.049,0.648,-125.002
 14:54:51.369,eb:33:2e:f9:57:b5, 2085-97-192 255:50:00:2082,-0.035,0.023,1.023,11.047,25.024,-7.202,0.049,0.89,-125.068
 14:54:51.369,eb:33:2e:f9:57:b5, 2085-97-192 255:53:00:2114,-0.038,0.031,1.015,12.512,25.513,-8.301,0.181,1.154,-125.151
 14:54:51.369,eb:33:2e:f9:57:b5, 2085-97-134 255:42:00:2116,-0.052,0.035,1.008,14.099,28.015,-9.399,0.313,1.428,-125.239
 14:54:51.372,eb:33:2e:f9:57:b5, 2085-97-108 255:77:00:2001,-0.083,0.029,1.022,15.991,30.396,-9.521,0.478,1.73,-125.332
 14:54:51.372,eb:33:2e:f9:57:b5, 2085-97-101 255:60:00:2055,-0.067,0.017,1,16.479,28.442,-7.812,0.637,2.021,-125.42
 14:54:51.372,eb:33:2e:f9:57:b5, 2085-97-111 255:89:00:2023,-0.078,0.037,1.013,16.418,29.419,-6.226,0.813,2.318,-125.486
 14:54:51.372,eb:33:2e:f9:57:b5, 2085-97-92 255:67:00:2110,-0.059,0.037,1.007,16.418,28.015,-4.333,0.972,2.604,-125.535
 14:54:51.430,eb:33:2e:f9:57:b5, 2085-97-174 255:109:00:2146,-0.004,0.04,1.039,17.517,27.954,-2.869,1.154,2.889,-125.563
 14:54:51.430,eb:33:2e:f9:57:b5, 2085-97-30 00:206:00:2075,0.03,0.083,1.027,18.433,30.396,-5.066,1.335,3.186,-125.596
 14:54:51.430,eb:33:2e:f9:57:b5, 2085-97-07 00:159:00:2187,-0.102,0.104,1.048,20.691,27.161,-8.911,1.538,3.488,-125.662
 14:54:51.430,eb:33:2e:f9:57:b5, 2085-97-252 253:101:255:2707,-0.288,0.045,1.066,25.574,23.926,-8.85,1.758,3.763,-125.744
 14:54:51.550,eb:33:2e:f9:57:b5, 2085-97-75 254:142:255:2772,-0.29,-0.163,1.557,52.368,23.865,-4.761,2.159,3.983,-125.821
 14:54:51.550,eb:33:2e:f9:57:b5, 2085-97-24 254:137:255:2984,-0.128,-0.026,1.255,66.956,20.386,-2.625,2.774,4.213,-125.832
 14:54:51.550,eb:33:2e:f9:57:b5, 2085-97-196 254:148:255:3169,-0.178,-0.037,1.558,86.67,28.137,1.16,3.56,4.455,-125.821
 14:54:51.550,eb:33:2e:f9:57:b5, 2085-97-201 254:158:255:3146,-0.133,-0.065,1.523,102.966,40.222,6.653,4.521,4.812,-125.76
 14:54:51.553,eb:33:2e:f9:57:b5, 2085-97-129 254:92:255:3103,-0.21,-0.044,1.54,121.216,47.607,14.832,5.68,5.251,-125.612
 14:54:51.553,eb:33:2e:f9:57:b5, 2085-97-85 254:18:255:3389,-0.129,-0.092,1.518,137.512,46.448,23.376,7.004,5.702,-125.37
 14:54:51.553,eb:33:2e:f9:57:b5, 2085-97-146 255:165:255:3506,0.008,-0.072,1.733,159.912,50.964,31.982,8.542,6.147,-125.019
 14:54:51.553,eb:33:2e:f9:57:b5, 2085-97-19 00:199:255:3805,0.039,-0.025,1.765,187.195,59.326,32.043,10.338,6.63,-124.601
 14:54:51.555,eb:33:2e:f9:57:b5, 2085-97-30 00:129:255:3869,0.019,-0.057,1.908,212.585,80.017,31.372,12.415,7.262,-124.156
 14:54:51.555,eb:33:2e:f9:57:b5, 2085-97-178 00:196:255:3849,0.065,-0.007,1.869,242.004,89.111,28.503,14.777,8.042,-123.651
 14:54:51.555,eb:33:2e:f9:57:b5, 2085-97-105 00:194:254:4265,0.084,-0.074,1.932,276.794,89.661,23.193,17.468,8.833,-123.146
 14:54:51.555,eb:33:2e:f9:57:b5, 2085-97-132 01:38:254:4969,0.33,-0.167,2.286,315.796,102.295,20.386,20.528,9.662,-122.624
 14:54:51.612,eb:33:2e:f9:57:b5, 2085-97-122 03:15:254:5004,0.433,-0.231,2.456,362.061,134.949,14.526,24.055,10.706,-121.992
 14:54:51.612,eb:33:2e:f9:57:b5, 2085-97-34 03:213:252:5192,0.188,-0.296,2.516,412.109,170.349,1.404,28.103,12.057,-121.24
 14:54:51.612,eb:33:2e:f9:57:b5, 2085-97-12 255:127:253:5961,-0.509,-0.411,2.659,465.454,202.82,-6.836,32.717,13.716,-120.278
 14:54:51.612,eb:33:2e:f9:57:b5, 2085-97-65 250:98:03:7917,-0.646,-0.092,3.286,516.418,194.702,-1.282,37.936,15.403,-119.097
 14:54:51.642,eb:33:2e:f9:57:b5, 2085-97-216 253:59:04:8347,-0.009,0.57,4.333,572.998,162.231,-17.456,43.731,16.787,-117.988
 14:54:51.642,eb:33:2e:f9:57:b5, 2085-97-192 00:73:01:5339,-0.07,0.305,3.23,588.684,157.898,-22.766,49.911,18.083,-116.895
 14:54:51.642,eb:33:2e:f9:57:b5, 2085-97-163 255:17:253:7272,0.076,-0.159,2.864,585.266,123.779,-30.701,56.08,19.144,-115.928
 14:54:51.642,eb:33:2e:f9:57:b5, 2085-97-213 02:79:255:6844,0.739,-0.154,3.599,581.482,160.156,-29.297,62.32,20.121,-114.774
 14:54:51.701,eb:33:2e:f9:57:b5, 2085-97-15 08:109:255:4228,1.321,-0.002,2.87,553.345,140.747,-23.438,68.472,20.978,-113.401
 14:54:51.701,eb:33:2e:f9:57:b5, 2085-97-162 12:183:250:2859,1.787,-0.355,1.682,473.938,92.041,-50.964,73.993,21.703,-112.379
 14:54:51.701,eb:33:2e:f9:57:b5, 2085-97-07 13:235:250:2420,1.173,-0.638,1.13,355.347,40.1,-105.347,78.25,22.604,-111.934
 14:54:51.701,eb:33:2e:f9:57:b5, 2085-97-86 07:227:247:884,0.917,-0.913,1.27,266.357,10.315,-167.297,81.299,24.088,-111.967
 14:54:51.701,eb:33:2e:f9:57:b5, 2085-113-81 00:73:36:16340,0.814,-1.292,-0.318,86.182,-15.991,-193.054,82.897,25.895,-112.33
 14:54:51.703,eb:33:2e:f9:57:b5, 2085-97-208 04:168:241:-1021,0.41,-1.583,-0.519,-17.639,-10.62,-195.312,82.919,26.856,-112.538
 14:54:51.703,eb:33:2e:f9:57:b5, 2085-97-201 02:146:241:-267,0.274,-1.885,-0.447,-174.377,-6.042,-179.626,81.65,28.713,-112.896
 14:54:51.703,eb:33:2e:f9:57:b5, 2085-97-83 01:177:243:1022,0.112,-1.647,0.244,-266.785,-17.822,-150.879,79.124,30.317,-113.335
 14:54:51.703,eb:33:2e:f9:57:b5, 2085-97-148 00:124:244:1384,0.03,-1.476,0.676,-301.941,-42.175,-119.324,75.855,31.558,-114.038
 14:54:51.761,eb:33:2e:f9:57:b5, 2085-97-99 00:169:244:966,0.126,-1.428,0.562,-316.833,-65.552,-82.031,72.252,32.36,-114.972
 14:54:51.761,eb:33:2e:f9:57:b5, 2085-97-148 01:186:245:978,0.235,-1.368,0.454,-330.75,-83.862,-48.95,68.39,32.69,-116.098
 14:54:51.761,eb:33:2e:f9:57:b5, 2085-97-49 02:81:247:1198,0.331,-1.187,0.515,-343.994,-89.111,-22.888,64.407,32.657,-117.202
 14:54:51.761,eb:33:2e:f9:57:b5, 2085-97-252 02:56:249:1506,0.401,-0.952,0.682,-348.694,-97.229,-4.456,60.348,32.333,-118.262
 14:54:51.791,eb:33:2e:f9:57:b5, 2085-97-79 03:92:250:1456,0.403,-0.76,0.742,-347.412,-109.497,5.005,56.321,31.778,-119.295
 14:54:51.791,eb:33:2e:f9:57:b5, 2085-97-241 02:160:250:1355,0.327,-0.681,0.677,-351.685,-127.319,12.085,52.251,31.003,-120.377
 14:54:51.791,eb:33:2e:f9:57:b5, 2085-97-103 02:198:250:1551,0.267,-0.663,0.681,-365.051,-141.479,21.362,48.115,30.009,-121.459
 14:54:51.791,eb:33:2e:f9:57:b5, 2085-97-251 01:129:251:1922,0.219,-0.613,0.841,-378.906,-148.926,32.104,43.874,28.795,-122.459
 14:54:51.850,eb:33:2e:f9:57:b5, 2085-97-151 01:62:252:2275,0.203,-0.513,1.029,-387.024,-154.053,42.603,39.644,27.405,-123.278
 14:54:51.850,eb:33:2e:f9:57:b5, 2085-97-237 00:234:252:2371,0.141,-0.406,1.207,-389.771,-156.738,52.368,35.447,25.873,-123.926
 14:54:51.850,eb:33:2e:f9:57:b5, 2085-97-97 01:229:253:2953,0.185,-0.276,1.347,-388.428,-165.039,61.096,31.36,24.192,-124.382
 14:54:51.850,eb:33:2e:f9:57:b5, 2085-97-70 01:148:254:2990,0.166,-0.231,1.469,-384.155,-167.542,69.458,27.367,22.418,-124.64
 14:54:51.969,eb:33:2e:f9:57:b5, 2085-97-20 01:56:255:3070,0.146,-0.12,1.482,-379.7,-172.913,74.219,23.522,20.566,-124.733
 14:54:51.969,eb:33:2e:f9:57:b5, 2085-97-244 00:128:255:3521,0.09,-0.073,1.611,-374.878,-182.983,76.66,19.737,18.616,-124.695
 14:54:51.969,eb:33:2e:f9:57:b5, 2085-97-132 00:95:255:4002,0.052,-0.068,1.842,-369.568,-190.125,79.102,16.068,16.595,-124.519
 14:54:51.969,eb:33:2e:f9:57:b5, 2085-97-96 00:39:255:4419,0.027,-0.091,2.055,-367.859,-192.993,80.566,12.448,14.524,-124.211
 14:54:51.971,eb:33:2e:f9:57:b5, 2085-97-251 255:29:255:4732,-0.021,-0.117,2.243,-377.197,-190.063,79.224,8.828,12.491,-123.766
 14:54:51.971,eb:33:2e:f9:57:b5, 2085-97-197 255:223:255:5045,-0.036,-0.077,2.38,-396.484,-187.439,72.449,5.037,10.519,-123.234
 14:54:51.971,eb:33:2e:f9:57:b5, 2085-97-187 255:158:01:5405,-0.025,0.073,2.549,-422.058,-186.523,58.533,1.027,8.619,-122.673
 14:54:51.971,eb:33:2e:f9:57:b5, 2085-97-209 255:144:04:5885,-0.045,0.371,2.748,-445.923,-187.439,34.363,-3.285,6.751,-122.173
 14:54:51.975,eb:33:2e:f9:57:b5, 2085-97-62 255:103:08:6523,-0.168,0.831,3.04,-457.52,-193.97,-4.089,-7.789,4.867,-121.833
 14:54:51.975,eb:33:2e:f9:57:b5, 2085-97-48 254:154:11:7169,-2.958,1.261,3.317,-449.524,-205.322,-45.898,-12.354,2.84,-121.75
 14:54:51.975,eb:33:2e:f9:57:b5, 2085-97-12 00:144:13:5291,-0.183,2.385,7.876,-319.885,-245.789,-121.948,-16.095,0.121,-121.63
 14:54:51.975,eb:33:2e:f9:57:b5, 2085-97-80 252:219:14:2414,-0.753,2.052,1.839,-358.643,-177.551,-94.421,-19.6,-1.928,-121.926
 14:54:52.151,eb:33:2e:f9:57:b5, 2085-97-205 250:187:20:5144,-0.807,2.158,3.261,-379.517,-132.446,-115.967,-23.362,-3.812,-122.366
 14:54:52.151,eb:33:2e:f9:57:b5, 2085-97-32 250:147:26:7108,-0.805,2.805,3.415,-343.628,-136.719,-152.771,-26.993,-5.614,-123.047
 14:54:52.151,eb:33:2e:f9:57:b5, 2085-97-04 248:02:32:4705,-1.301,3.739,3.035,-271.301,-105.225,-172.668,-29.938,-7.449,-123.942
 14:54:52.151,eb:33:2e:f9:57:b5, 2085-97-73 242:30:34:2314,-2.167,4.197,1.594,-183.228,-117.432,-171.57,-32.047,-9.256,-124.898
 14:54:52.213,eb:33:2e:f9:57:b5, 2085-97-124 234:157:30:2611,-3.168,4.101,1.067,-76.843,-187.439,-140.442,-33.212,-11.42,-125.387
 14:54:52.213,eb:33:2e:f9:57:b5, 2085-97-16 228:215:25:4667,-5.708,3.531,1.726,17.639,-198.975,-70.435,-33.497,-13.7,-125.134
 14:54:52.213,eb:33:2e:f9:57:b5, 2085-97-216 217:137:22:9241,-1.91,0.278,9.765,248.169,145.63,113.953,-32.536,-14.628,-124.409
 14:54:52.213,eb:33:2e:f9:57:b5, 2085-97-33 05:208:250:-1643,0.935,2.255,1.688,303.406,315.979,163.818,-29.509,-11.404,-124.75
 14:54:52.215,eb:33:2e:f9:57:b5, 2085-97-165 01:135:250:1831,-0.113,-0.769,0.514,324.463,343.872,298.218,-26.587,-7.18,-124.047
 14:54:52.215,eb:33:2e:f9:57:b5, 2085-97-00 250:220:246:1911,-0.782,-2.034,0.308,418.152,195.312,204.956,-22.879,-3.746,-123.052
 14:54:52.215,eb:33:2e:f9:57:b5, 2085-97-83 247:23:255:2587,-0.876,-0.747,1.407,430.603,121.826,154.663,-18.578,-1.785,-121.932
 14:54:52.215,eb:33:2e:f9:57:b5, 2085-97-85 249:211:09:3187,-0.509,0.755,1.489,376.77,79.041,104.065,-14.54,-0.544,-120.97
 14:54:52.216,eb:33:2e:f9:57:b5, 2085-97-15 253:200:06:2771,-0.35,1.184,1.693,281.86,81.055,29.968,-11.261,0.357,-120.547
 14:54:52.216,eb:33:2e:f9:57:b5, 2085-97-109 253:225:01:2133,-0.146,0.511,1.158,215.759,44.128,-15.625,-8.844,0.983,-120.63
 14:54:52.216,eb:33:2e:f9:57:b5, 2085-97-254 255:158:00:2432,0.091,0.138,1.118,195.557,9.399,-38.33,-6.828,1.159,-120.959
 14:54:52.216,eb:33:2e:f9:57:b5, 2085-97-216 00:238:255:2350,0.104,-0.018,1.19,173.34,-2.38,-38.818,-4.982,1.143,-121.366
 14:54:52.219,eb:33:2e:f9:57:b5, 2085-97-160 00:59:02:2280,-0.161,0.109,1.157,146.851,-3.235,-28.442,-3.384,1.077,-121.701
 14:54:52.219,eb:33:2e:f9:57:b5, 2085-97-88 255:104:00:1965,-0.058,0.025,0.878,9.766,3.235,-0.122,-0.714,1.917,-121.954
 14:54:52.219,eb:33:2e:f9:57:b5, 2085-97-107 255:68:00:1999,-0.09,0.048,0.988,4.944,5.371,-0.427,-0.643,1.956,-121.954
 14:54:52.219,eb:33:2e:f9:57:b5, 2085-97-76 255:54:00:1953,-0.09,0.02,0.968,3.479,4.639,-1.953,-0.588,2.021,-121.965
 14:54:52.242,eb:33:2e:f9:57:b5, 2085-97-87 255:40:00:2001,-0.088,0.022,0.967,1.892,1.587,-1.892,-0.566,2.054,-121.987
 14:54:52.242,eb:33:2e:f9:57:b5, 2085-97-62 255:18:00:1987,-0.087,0.013,0.973,1.038,0.183,-1.77,-0.538,2.071,-122.003
 14:54:52.242,eb:33:2e:f9:57:b5, 2085-97-98 255:00:00:2046,-0.082,0.005,0.984,1.16,-2.808,-0.427,-0.527,2.054,-122.02
 14:54:52.242,eb:33:2e:f9:57:b5, 2085-97-82 255:03:00:2021,-0.081,-0.005,0.992,2.441,-4.944,1.587,-0.494,2.027,-122.009
 14:54:52.390,eb:33:2e:f9:57:b5, 2085-97-98 255:10:00:2032,-0.06,0.003,0.99,3.113,-7.08,2.869,-0.461,1.961,-121.987
 14:54:52.390,eb:33:2e:f9:57:b5, 2085-97-153 255:34:00:2076,-0.043,0.011,1.009,3.906,-7.812,3.784,-0.412,1.895,-121.954
 14:54:52.390,eb:33:2e:f9:57:b5, 2085-97-178 255:39:00:2093,-0.038,0.02,1.019,4.7,-5.615,3.418,-0.368,1.824,-121.915
 14:54:52.390,eb:33:2e:f9:57:b5, 2085-97-209 255:62:00:2101,-0.024,0.025,1.01,4.944,-1.831,1.648,-0.302,1.802,-121.888
 14:54:52.392,eb:33:2e:f9:57:b5, 2085-97-219 255:72:00:2101,-0.024,0.031,1.021,5.371,2.625,-0.977,-0.247,1.807,-121.888
 14:54:52.392,eb:33:2e:f9:57:b5, 2085-97-219 255:69:00:2112,-0.052,0.031,1.021,5.676,6.897,-3.418,-0.176,1.868,-121.915
 14:54:52.392,eb:33:2e:f9:57:b5, 2085-97-163 255:35:00:2093,-0.057,0.021,0.998,6.042,9.521,-5.31,-0.121,1.961,-121.965
 14:54:52.392,eb:33:2e:f9:57:b5, 2085-97-140 255:27:00:2081,-0.059,0.014,1.005,6.958,11.047,-5.615,-0.044,2.076,-122.02
 14:54:52.394,eb:33:2e:f9:57:b5, 2085-97-122 255:18:00:2070,-0.079,0.008,1.009,8.057,12.085,-5.188,0.027,2.192,-122.08
 14:54:52.394,eb:33:2e:f9:57:b5, 2085-97-77 255:14:00:2021,-0.081,0.002,1,9.155,11.658,-3.357,0.126,2.324,-122.119
 14:54:52.394,eb:33:2e:f9:57:b5, 2085-97-109 255:47:00:2038,-0.068,0.011,0.996,9.399,10.01,-1.892,0.22,2.428,-122.146
 14:54:52.394,eb:33:2e:f9:57:b5, 2085-97-143 255:77:00:2048,-0.044,0.032,0.992,9.338,10.071,-1.831,0.324,2.538,-122.162
 14:54:52.396,eb:33:2e:f9:57:b5, 2085-97-173 255:91:00:2093,-0.051,0.04,1.018,9.46,13.428,-3.052,0.417,2.653,-122.184
 14:54:52.396,eb:33:2e:f9:57:b5, 2085-97-144 255:94:00:2052,-0.054,0.042,1.008,9.399,18.311,-4.761,0.527,2.823,-122.223
 14:54:52.396,eb:33:2e:f9:57:b5, 2085-97-135 255:61:00:2133,-0.052,0.034,1.034,9.888,22.339,-6.348,0.615,3.027,-122.283
 14:54:52.396,eb:33:2e:f9:57:b5, 2085-97-106 255:36:00:2158,-0.055,0.033,1.035,10.986,25.94,-6.531,0.736,3.279,-122.344
 14:54:52.450,eb:33:2e:f9:57:b5, 2085-97-99 255:54:00:2133,-0.068,0.038,1.041,11.963,30.029,-6.165,0.846,3.565,-122.404
 14:54:52.450,eb:33:2e:f9:57:b5, 2085-97-84 255:94:00:2058,-0.091,0.036,1.03,12.573,34.668,-6.042,0.983,3.9,-122.459
 14:54:52.450,eb:33:2e:f9:57:b5, 2085-113-58 00:253:228:-5835,-0.102,0.044,1.017,12.512,36.743,-6.409,1.104,4.257,-122.52
 14:54:52.450,eb:33:2e:f9:57:b5, 2085-97-47 255:103:00:2027,-0.115,0.05,0.995,12.268,36.743,-6.592,1.165,4.444,-122.547
 14:54:52.483,eb:33:2e:f9:57:b5, 2085-97-15 255:70:00:2053,-0.122,0.049,0.972,11.597,36.56,-6.897,1.291,4.818,-122.607
 14:54:52.483,eb:33:2e:f9:57:b5, 2085-97-192 254:43:00:2030,-0.131,0.031,1.017,12.146,36.316,-5.005,1.406,5.18,-122.662
 14:54:52.483,eb:33:2e:f9:57:b5, 2085-97-238 254:107:00:2006,-0.143,0.036,1.009,12.817,34.18,-2.38,1.544,5.537,-122.69
 14:54:52.483,eb:33:2e:f9:57:b5, 2085-97-51 255:120:00:2111,-0.084,0.051,0.976,12.146,32.104,-1.892,1.67,5.872,-122.701
 14:54:52.602,eb:33:2e:f9:57:b5, 2085-97-193 255:09:01:1949,0.002,0.078,1.023,11.78,34.485,-2.319,1.802,6.218,-122.712
 14:54:52.602,eb:33:2e:f9:57:b5, 2085-97-53 00:41:01:1981,-0.116,0.158,0.905,11.23,26.001,-6.836,1.906,6.537,-122.739
 14:54:52.602,eb:33:2e:f9:57:b5, 2085-97-61 254:250:255:2500,-0.321,0.08,1.065,11.475,27.405,-9.644,2.021,6.806,-122.822
 14:54:52.602,eb:33:2e:f9:57:b5, 2085-97-66 253:192:254:3363,-0.315,-0.106,1.462,27.1,31.25,-5.981,2.197,7.097,-122.893
 14:54:52.606,eb:33:2e:f9:57:b5, 2085-97-172 253:37:255:3023,-0.258,-0.156,1.635,51.392,45.532,2.869,2.62,7.493,-122.888
 14:54:52.606,eb:33:2e:f9:57:b5, 2085-97-14 254:122:255:2936,-0.273,-0.066,1.393,67.932,48.279,8.667,3.241,7.971,-122.8
 14:54:52.606,eb:33:2e:f9:57:b5, 2085-97-178 253:06:255:3152,-0.292,-0.102,1.514,84.29,49.683,15.564,4.043,8.454,-122.646
 14:54:52.606,eb:33:2e:f9:57:b5, 2085-97-220 253:40:255:3207,-0.235,-0.096,1.54,102.722,49.072,25.94,5.026,8.943,-122.393
 14:54:52.630,eb:33:2e:f9:57:b5, 2085-97-85 254:93:255:3407,-0.202,-0.077,1.606,124.939,44.922,34.119,6.24,9.388,-122.031
 14:54:52.630,eb:33:2e:f9:57:b5, 2085-97-171 254:77:255:3545,-0.148,-0.095,1.702,149.292,45.044,40.833,7.701,9.783,-121.597
 14:54:52.630,eb:33:2e:f9:57:b5, 2085-97-16 255:230:255:3733,-0.051,-0.04,1.728,173.401,45.654,44.922,9.426,10.184,-121.08
 14:54:52.630,eb:33:2e:f9:57:b5, 2085-97-42 00:211:255:4211,0.096,-0.027,1.993,199.646,52.856,40.161,11.393,10.58,-120.569
 14:54:52.632,eb:33:2e:f9:57:b5, 2085-97-108 01:233:255:4398,0.237,0.013,2.081,226.807,72.266,33.386,13.645,11.124,-120.059
 14:54:52.632,eb:33:2e:f9:57:b5, 2085-97-114 02:134:255:4860,0.436,-0.02,2.241,256.226,98.267,23.071,16.172,11.882,-119.559
 14:54:52.632,eb:33:2e:f9:57:b5, 2085-97-186 04:180:255:5476,0.733,-0.072,2.49,297.302,139.221,10.01,19.061,12.98,-119.02
 14:54:52.632,eb:33:2e:f9:57:b5, 2085-97-120 06:245:254:5730,0.887,-0.108,2.777,342.346,187.012,-10.559,22.418,14.513,-118.438
 14:54:52.661,eb:33:2e:f9:57:b5, 2085-97-179 07:113:254:5947,0.897,-0.148,2.872,392.334,244.08,-35.034,26.312,16.606,-117.719
 14:54:52.661,eb:33:2e:f9:57:b5, 2085-97-91 05:164:255:5950,0.345,-0.207,2.849,440.43,298.706,-54.26,30.795,19.243,-116.768
 14:54:52.661,eb:33:2e:f9:57:b5, 2085-97-44 00:199:01:6982,-0.177,0.143,3.034,496.46,300.232,-74.768,35.942,22.154,-115.543
 14:54:52.661,eb:33:2e:f9:57:b5, 2085-97-137 00:231:02:7281,0.231,0.396,3.597,558.716,247.498,-87.891,41.71,24.829,-114.351
 14:54:52.721,eb:33:2e:f9:57:b5, 2085-97-211 02:189:00:5253,0.201,0.344,3.051,621.094,162.048,-92.407,48.032,26.922,-113.472
 14:54:52.721,eb:33:2e:f9:57:b5, 2085-97-15 02:39:253:4900,-0.113,-0.406,2.252,681.824,52.368,-103.027,54.69,28.367,-113.264
 14:54:52.721,eb:33:2e:f9:57:b5, 2085-97-192 253:165:252:8220,-0.182,-0.117,3.224,657.898,12.695,-134.583,61.199,29.471,-113.802
 14:54:52.721,eb:33:2e:f9:57:b5, 2085-97-236 00:19:251:7223,0.425,-0.527,4.002,567.932,99.304,-140.076,67.28,30.965,-113.884
 14:54:52.751,eb:33:2e:f9:57:b5, 2085-97-237 04:17:246:4642,0.551,-1.001,2.691,419.739,174.133,-138.367,72.724,32.778,-112.857
 14:54:52.751,eb:33:2e:f9:57:b5, 2085-97-83 02:55:240:4224,0.369,-1.709,2.353,275.146,228.149,-112.061,77.151,34.541,-110.912
 14:54:52.751,eb:33:2e:f9:57:b5, 2085-97-108 04:169:239:-4406,0.642,-2.185,0.029,177.917,233.643,-55.298,81.013,35.799,-108.193
 14:54:52.752,eb:33:2e:f9:57:b5, 2085-97-152 05:71:241:-4667,0.833,-1.822,-2.858,-43.152,128.601,-18.372,82.842,36.37,-106.029
 14:54:52.783,eb:33:2e:f9:57:b5, 2085-97-223 04:211:242:-764,0.439,-1.796,-1.21,-189.819,9.033,21.24,81.942,36.42,-105.32
 14:54:52.783,eb:33:2e:f9:57:b5, 2085-97-77 03:126:245:1305,0.488,-1.454,0.243,-251.099,-65.857,55.603,79.442,35.964,-105.672
 14:54:52.783,eb:33:2e:f9:57:b5, 2085-97-77 04:137:246:1800,0.557,-1.237,0.872,-265.747,-102.112,83.13,76.295,35.068,-106.578
 14:54:52.783,eb:33:2e:f9:57:b5, 2085-97-148 04:00:248:1243,0.585,-1.125,0.774,-270.813,-105.469,97.412,73.081,33.904,-107.518
 14:54:52.841,eb:33:2e:f9:57:b5, 2085-97-186 04:38:250:1007,0.599,-0.862,0.525,-284.058,-106.018,98.145,69.84,32.629,-108.342
 14:54:52.841,eb:33:2e:f9:57:b5, 2085-97-237 04:153:251:991,0.642,-0.627,0.481,-300.293,-115.906,86.182,66.484,31.36,-109.144
 14:54:52.842,eb:33:2e:f9:57:b5, 2085-97-68 05:114:252:1025,0.654,-0.492,0.495,-316.65,-132.751,66.162,62.891,30.135,-110.094
 14:54:52.842,eb:33:2e:f9:57:b5, 2085-97-03 05:193:252:1086,0.568,-0.414,0.512,-331.421,-154.175,42.175,59.073,28.971,-111.248
 14:54:52.871,eb:33:2e:f9:57:b5, 2085-97-70 04:94:252:1344,0.466,-0.421,0.564,-344.849,-179.077,20.081,54.992,27.806,-112.676
 14:54:52.871,eb:33:2e:f9:57:b5, 2085-97-232 02:176:251:1686,0.265,-0.499,0.741,-359.619,-193.359,5.92,50.729,26.576,-114.28
 14:54:52.871,eb:33:2e:f9:57:b5, 2085-97-120 01:110:251:1981,0.131,-0.564,0.895,-372.925,-195.984,2.625,46.329,25.252,-115.9
 14:54:52.871,eb:33:2e:f9:57:b5, 2085-97-194 00:49:252:2357,0.071,-0.535,1.075,-378.418,-192.871,3.723,41.951,23.835,-117.378
 14:54:52.961,eb:33:2e:f9:57:b5, 2085-97-93 00:09:253:2658,0.003,-0.43,1.227,-373.596,-190.308,6.531,37.661,22.324,-118.669
 14:54:52.961,eb:33:2e:f9:57:b5, 2085-97-220 255:199:253:2896,-0.051,-0.323,1.356,-357.178,-191.101,7.812,33.591,20.737,-119.8
 14:54:52.961,eb:33:2e:f9:57:b5, 2085-97-109 255:68:254:2962,-0.098,-0.241,1.433,-339.661,-191.65,9.46,29.762,19.05,-120.795
 14:54:52.961,eb:33:2e:f9:57:b5, 2085-97-46 255:141:254:3014,-0.112,-0.198,1.449,-330.75,-190.125,9.094,26.153,17.32,-121.652
 14:54:52.992,eb:33:2e:f9:57:b5, 2085-97-28 255:192:254:3164,-0.132,-0.163,1.492,-329.773,-190.491,7.019,22.621,15.546,-122.399
 14:54:52.992,eb:33:2e:f9:57:b5, 2085-97-215 254:166:254:3365,-0.151,-0.157,1.582,-333.618,-195.435,4.089,19.138,13.727,-123.058
 14:54:52.992,eb:33:2e:f9:57:b5, 2085-97-180 254:66:254:3779,-0.191,-0.187,1.734,-342.773,-203.43,0.427,15.606,11.799,-123.651
 14:54:52.992,eb:33:2e:f9:57:b5, 2085-97-69 254:225:253:4254,-0.25,-0.247,1.948,-359.131,-206.482,-2.563,11.997,9.811,-124.162
 14:54:53.021,eb:33:2e:f9:57:b5, 2085-97-189 253:26:254:4760,-0.317,-0.266,2.207,-376.892,-204.529,-4.15,8.218,7.784,-124.568
 14:54:53.021,eb:33:2e:f9:57:b5, 2085-97-77 253:164:255:5223,-0.349,-0.154,2.452,-391.724,-202.026,-5.615,4.334,5.768,-124.843
 14:54:53.021,eb:33:2e:f9:57:b5, 2085-97-35 253:26:02:5593,-0.379,0.096,2.644,-399.719,-204.285,-10.01,0.33,3.735,-125.002
 14:54:53.021,eb:33:2e:f9:57:b5, 2085-97-134 252:194:04:5931,-0.518,0.437,2.814,-403.198,-215.637,-19.165,-3.691,1.637,-125.09
 14:54:53.051,eb:33:2e:f9:57:b5, 2085-97-46 251:221:06:6359,-0.716,0.732,2.983,-402.222,-234.192,-30.457,-7.745,-0.643,-125.112
 14:54:53.051,eb:33:2e:f9:57:b5, 2085-97-96 249:181:08:6842,-0.938,0.973,3.209,-397.278,-246.338,-38.574,-11.75,-3.082,-125.052
 14:54:53.051,eb:33:2e:f9:57:b5, 2085-97-100 247:162:10:7404,-1.201,1.206,3.486,-385.986,-242.371,-39.307,-15.705,-5.576,-124.854
 14:54:53.051,eb:33:2e:f9:57:b5, 2085-97-159 245:75:13:7695,-1.292,1.463,3.739,-361.328,-215.088,-26.245,-19.484,-7.872,-124.475
 14:54:53.080,eb:33:2e:f9:57:b5, 2085-97-134 247:108:18:7230,-0.792,1.923,3.691,-321.472,-147.156,-6.897,-22.983,-9.624,-123.953
 14:54:53.080,eb:33:2e:f9:57:b5, 2085-97-184 251:57:29:5383,-0.46,2.892,3.114,-284.607,-39.795,0.732,-26.049,-10.41,-123.602
 14:54:53.080,eb:33:2e:f9:57:b5, 2085-97-11 251:252:38:2638,-0.979,4.362,2.073,-236.816,-20.081,-26.855,-28.669,-10.635,-123.624
 14:54:53.080,eb:33:2e:f9:57:b5, 2085-97-05 244:252:37:293,-2.011,5.014,0.496,-135.559,-142.761,-65.125,-30.515,-11.558,-123.657
 14:54:53.200,eb:33:2e:f9:57:b5, 2085-97-76 236:49:32:2748,-2.846,4.346,0.5,-12.329,-271.545,-67.078,-31.311,-13.826,-123.102
 14:54:53.200,eb:33:2e:f9:57:b5, 2085-97-139 230:176:26:6289,-3.313,3.724,2.345,87.097,-247.253,-29.419,-31.13,-16.414,-122.053
 14:54:53.200,eb:33:2e:f9:57:b5, 2085-97-69 231:10:19:6266,-1.737,2.837,3.293,137.939,-60.73,31.006,-30.174,-17.726,-121.218
 14:54:53.200,eb:33:2e:f9:57:b5, 2085-97-45 241:145:05:-248,0.723,-0.75,10.521,276.917,381.226,151.978,-28.262,-16.567,-120.91
 14:54:53.203,eb:33:2e:f9:57:b5, 2085-97-165 14:233:240:1968,1.42,-0.747,0.382,239.136,371.948,174.133,-25.488,-12.843,-121.322
 14:54:53.203,eb:33:2e:f9:57:b5, 2085-97-65 05:134:242:1372,-0.12,-1.296,1.17,287.964,397.705,206.36,-23.005,-8.328,-121.042
 14:54:53.203,eb:33:2e:f9:57:b5, 2085-97-42 249:181:253:938,-1.291,-1.05,0.384,383.484,258.179,185.73,-19.622,-4.565,-120.454
 14:54:53.203,eb:33:2e:f9:57:b5, 2085-97-104 247:216:01:2814,-0.805,0.12,0.864,387.756,145.996,118.286,-15.738,-2.258,-119.581
 14:54:53.205,eb:33:2e:f9:57:b5, 2085-97-04 251:173:04:3139,-0.625,0.513,1.455,332.825,136.414,74.341,-12.145,-0.648,-118.982
 14:54:53.205,eb:33:2e:f9:57:b5, 2085-97-57 252:240:04:2532,-0.275,0.536,1.365,264.832,93.262,2.441,-9.196,0.577,-118.878
 14:54:53.205,eb:33:2e:f9:57:b5, 2085-97-68 254:33:03:2442,-0.056,0.438,1.194,212.158,40.405,-37.109,-6.85,1.154,-119.224
 14:54:53.205,eb:33:2e:f9:57:b5, 2085-97-55 00:10:01:2397,0.009,0.282,1.224,167.48,11.841,-42.053,-4.977,1.318,-119.663
 14:54:53.291,eb:33:2e:f9:57:b5, 2085-97-190 255:28:01:2180,-0.039,0.073,1.138,128.113,12.024,-20.752,-3.521,1.417,-119.982
 14:54:53.291,eb:33:2e:f9:57:b5, 2085-97-222 255:10:02:2169,-0.093,0.27,1.023,85.144,9.338,2.197,-2.477,1.511,-120.064
 14:54:53.291,eb:33:2e:f9:57:b5, 2085-97-170 254:188:01:1620,-0.182,0.254,0.906,49.744,17.883,12.146,-1.802,1.681,-119.982
 14:54:53.291,eb:33:2e:f9:57:b5, 2085-113-58 00:87:229:-5490,-0.084,0.211,0.762,29.846,-12.146,-4.7,-1.423,1.703,-119.96
 14:54:53.291,eb:33:2e:f9:57:b5, 2085-97-175 255:86:00:2219,-0.248,0.042,1.003,23.926,-1.77,-0.61,-1.274,1.659,-119.971
 14:54:53.293,eb:33:2e:f9:57:b5, 2085-97-165 254:171:00:1802,-0.117,0.038,0.763,14.832,10.62,-0.488,-1.093,1.84,-119.982
 14:54:53.293,eb:33:2e:f9:57:b5, 2085-97-37 255:43:00:1965,-0.1,0.05,0.955,7.141,10.132,-2.93,-0.972,1.928,-120.009
 14:54:53.293,eb:33:2e:f9:57:b5, 2085-97-48 255:35:00:1981,-0.094,0.024,0.973,4.7,9.399,-3.235,-0.917,2.032,-120.042
 14:54:53.293,eb:33:2e:f9:57:b5, 2085-97-89 255:20:00:2003,-0.085,0.011,0.968,3.662,6.592,-2.93,-0.862,2.12,-120.075
 14:54:53.412,eb:33:2e:f9:57:b5, 2085-97-73 255:00:00:2008,-0.101,0.005,0.979,2.747,4.333,-2.136,-0.835,2.175,-120.103
 14:54:53.412,eb:33:2e:f9:57:b5, 2085-97-32 255:208:255:1994,-0.112,-0.01,0.977,2.991,1.648,-0.732,-0.791,2.219,-120.119
 14:54:53.412,eb:33:2e:f9:57:b5, 2085-97-50 255:224:255:2012,-0.099,-0.024,0.974,4.272,-5.371,2.808,-0.753,2.197,-120.108
 14:54:53.412,eb:33:2e:f9:57:b5, 2085-97-87 255:247:255:2046,-0.077,-0.014,0.986,4.883,-9.155,6.409,-0.687,2.131,-120.059
 14:54:53.412,eb:33:2e:f9:57:b5, 2085-97-157 255:23:00:2087,-0.03,-0.003,1,5.554,-9.46,7.996,-0.632,2.038,-119.982
 14:54:53.412,eb:33:2e:f9:57:b5, 2085-97-208 255:60:00:2113,-0.013,0.02,1.036,5.249,-4.211,8.301,-0.56,1.978,-119.899
 14:54:53.412,eb:33:2e:f9:57:b5, 2085-97-216 255:65:00:2096,-0.026,0.038,1.034,4.883,2.686,5.92,-0.505,1.967,-119.828
 14:54:53.412,eb:33:2e:f9:57:b5, 2085-97-204 255:62:00:2100,-0.038,0.034,1.021,4.822,7.019,3.296,-0.445,2.032,-119.784
 14:54:53.415,eb:33:2e:f9:57:b5, 2085-97-206 255:58:00:2113,-0.045,0.027,1.011,5.127,10.254,0.671,-0.39,2.126,-119.767
 14:54:53.415,eb:33:2e:f9:57:b5, 2085-97-160 255:36:00:2069,-0.065,0.016,1.011,5.737,13.367,-1.282,-0.324,2.263,-119.773
 14:54:53.415,eb:33:2e:f9:57:b5, 2085-97-111 255:30:00:2023,-0.093,0.02,0.996,5.92,13.367,-2.075,-0.264,2.401,-119.789
 14:54:53.415,eb:33:2e:f9:57:b5, 2085-97-70 255:27:00:1983,-0.092,0.013,0.959,5.188,11.78,-1.099,-0.192,2.538,-119.811
 14:54:53.471,eb:33:2e:f9:57:b5, 2085-97-51 255:21:00:1967,-0.081,0.01,0.97,4.089,9.888,0,-0.148,2.642,-119.817
 14:54:53.471,eb:33:2e:f9:57:b5, 2085-97-129 255:54:00:2049,-0.052,0.015,0.99,3.906,7.935,0.732,-0.093,2.736,-119.811
 14:54:53.471,eb:33:2e:f9:57:b5, 2085-97-158 255:45:00:2114,-0.049,0.028,1.026,4.639,10.925,-0.732,-0.049,2.829,-119.811
 14:54:53.471,eb:33:2e:f9:57:b5, 2085-97-165 255:56:00:2128,-0.056,0.027,1.035,5.737,14.771,-2.747,0.011,2.972,-119.833
 14:54:53.500,eb:33:2e:f9:57:b5, 2085-97-165 255:70:00:2112,-0.044,0.027,1.026,6.714,18.555,-4.517,0.071,3.142,-119.872
 14:54:53.500,eb:33:2e:f9:57:b5, 2085-97-172 255:77:00:2150,-0.051,0.037,1.053,7.751,23.499,-7.141,0.154,3.356,-119.927
 14:54:53.500,eb:33:2e:f9:57:b5, 2085-97-164 255:54:00:2222,-0.04,0.028,1.047,9.033,28.32,-8.789,0.236,3.625,-120.009
 14:54:53.500,eb:33:2e:f9:57:b5, 2085-97-107 255:50:00:2176,-0.048,0.038,1.069,10.498,35.217,-9.521,0.341,3.955,-120.097
 14:54:53.561,eb:33:2e:f9:57:b5, 2085-97-153 255:88:00:2149,-0.074,0.047,1.045,12.207,40.039,-11.536,0.45,4.329,-120.201
 14:54:53.561,eb:33:2e:f9:57:b5, 2085-97-82 255:88:00:2053,-0.083,0.046,0.994,12.939,44.739,-13.245,0.582,4.779,-120.322
 14:54:53.561,eb:33:2e:f9:57:b5, 2085-97-57 255:123:00:1903,-0.113,0.053,0.97,12.695,45.715,-14.343,0.698,5.24,-120.46
 14:54:53.561,eb:33:2e:f9:57:b5, 2085-97-122 255:138:00:2070,-0.059,0.046,0.981,12.451,39.978,-14.343,0.818,5.68,-120.602
 14:54:53.563,eb:33:2e:f9:57:b5, 2085-97-177 255:221:00:2005,-0.002,0.09,0.953,11.719,36.255,-14.465,0.934,6.064,-120.74
 14:54:53.563,eb:33:2e:f9:57:b5, 2085-97-134 255:164:00:2228,-0.116,0.131,1.033,12.512,33.203,-18.433,1.049,6.405,-120.899
 14:54:53.563,eb:33:2e:f9:57:b5, 2085-97-140 254:45:00:2310,-0.316,0.052,1.086,13.977,38.635,-19.836,1.165,6.768,-121.086
 14:54:53.563,eb:33:2e:f9:57:b5, 2085-97-43 253:158:254:3107,-0.317,-0.093,1.331,25.33,45.349,-20.081,1.335,7.202,-121.284
 14:54:53.682,eb:33:2e:f9:57:b5, 2085-97-39 253:103:255:1948,-0.403,-0.123,1.336,46.753,52.795,-9.644,1.708,7.69,-121.421
 14:54:53.682,eb:33:2e:f9:57:b5, 2085-97-159 252:43:255:2031,-0.433,-0.081,0.886,48.401,34.546,-1.892,2.203,8.135,-121.459
 14:54:53.682,eb:33:2e:f9:57:b5, 2085-97-247 252:76:255:2310,-0.287,-0.117,1.049,53.04,19.104,10.01,2.714,8.399,-121.399
 14:54:53.682,eb:33:2e:f9:57:b5, 2085-97-66 254:00:00:2619,-0.172,-0.044,1.236,62.378,11.719,17.883,3.329,8.531,-121.24
 14:54:53.712,eb:33:2e:f9:57:b5, 2085-97-13 255:04:00:3217,-0.135,0.017,1.393,75.073,14.832,19.226,4.048,8.652,-121.042
 14:54:53.712,eb:33:2e:f9:57:b5, 2085-97-205 254:227:255:3269,-0.157,-0.006,1.595,93.201,34.546,21.24,4.944,8.899,-120.817
 14:54:53.712,eb:33:2e:f9:57:b5, 2085-97-125 254:180:255:3340,-0.248,-0.022,1.618,111.572,48.95,24.414,6.015,9.305,-120.547
 14:54:53.712,eb:33:2e:f9:57:b5, 2085-97-228 253:79:255:3237,-0.251,-0.055,1.63,129.822,56.763,31.738,7.306,9.822,-120.196
 14:54:53.712,eb:33:2e:f9:57:b5, 2085-97-56 254:125:255:3262,-0.158,-0.073,1.541,149.414,54.626,39.673,8.789,10.333,-119.751
 14:54:53.712,eb:33:2e:f9:57:b5, 2085-97-231 254:213:255:3562,-0.077,-0.051,1.693,171.936,55.176,45.41,10.514,10.8,-119.229
 14:54:53.712,eb:33:2e:f9:57:b5, 2085-97-195 255:22:00:4010,0.029,-0.006,1.862,200.623,60.059,43.213,12.486,11.266,-118.663
 14:54:53.712,eb:33:2e:f9:57:b5, 2085-97-91 00:251:255:4169,0.052,0.016,2.009,231.812,69.092,36.804,14.788,11.81,-118.109
 14:54:53.716,eb:33:2e:f9:57:b5, 2085-97-187 00:39:255:4729,0.226,-0.055,2.125,265.625,77.148,29.846,17.397,12.426,-117.581
 14:54:53.716,eb:33:2e:f9:57:b5, 2085-97-212 02:240:254:5371,0.494,-0.119,2.507,305.115,102.417,21.79,20.396,13.189,-117.032
 14:54:53.716,eb:33:2e:f9:57:b5, 2085-97-200 04:82:254:5515,0.621,-0.165,2.66,353.882,142.456,9.521,23.862,14.277,-116.4
 14:54:53.716,eb:33:2e:f9:57:b5, 2085-97-135 04:40:253:5830,0.457,-0.257,2.744,410.889,183.411,-9.277,27.911,15.765,-115.659
 14:54:53.771,eb:33:2e:f9:57:b5, 2085-97-00 02:245:253:6253,-0.189,-0.335,2.968,472.656,232.91,-21.484,32.635,17.677,-114.697
 14:54:53.771,eb:33:2e:f9:57:b5, 2085-97-48 252:11:00:7904,-0.528,-0.109,3.379,533.936,235.107,-36.133,38.095,19.786,-113.489
 14:54:53.771,eb:33:2e:f9:57:b5, 2085-97-93 254:108:01:7726,-0.065,0.148,4.051,587.891,206.482,-37.537,44.171,21.731,-112.22
 14:54:53.771,eb:33:2e:f9:57:b5, 2085-97-239 01:12:00:5813,-0.029,0.245,3.138,648.865,133.789,-42.786,50.806,23.192,-111.127
 14:54:53.801,eb:33:2e:f9:57:b5, 2085-113-81 00:189:51:13732,-0.412,-0.336,2.46,693.481,52.734,-48.401,57.772,24.093,-110.649
 14:54:53.801,eb:33:2e:f9:57:b5, 2085-97-19 252:77:00:6367,-0.399,-0.472,2.575,690.796,27.71,-46.143,61.254,24.395,-110.605
 14:54:53.801,eb:33:2e:f9:57:b5, 2085-97-253 255:83:254:7009,0.378,0.033,3.426,641.479,48.889,-62.134,67.967,25.049,-110.5
 14:54:53.801,eb:33:2e:f9:57:b5, 2085-97-186 05:235:251:3923,0.956,-0.429,2.722,550.476,78.552,-71.228,74.141,25.895,-109.995
 14:54:53.831,eb:33:2e:f9:57:b5, 2085-97-242 06:210:246:2830,0.646,-0.743,1.447,394.714,56.396,-101.624,79.036,26.911,-109.501
 14:54:53.831,eb:33:2e:f9:57:b5, 2085-97-94 03:190:243:2573,0.452,-1.306,1.813,285.95,55.237,-127.258,82.463,28.152,-109.166
 14:54:53.831,eb:33:2e:f9:57:b5, 2085-97-192 03:238:241:-3549,0.386,-1.625,-0.621,124.756,72.449,-116.882,84.875,29.421,-108.567
 14:54:53.831,eb:33:2e:f9:57:b5, 2085-97-247 03:09:241:-2071,0.479,-1.851,-1.703,-104.492,31.799,-104.736,85.067,30.575,-108.034
 14:54:53.920,eb:33:2e:f9:57:b5, 2085-97-160 02:130:243:135,0.267,-1.754,-0.372,-262.939,-7.507,-71.96,83.013,31.443,-108.067
 14:54:53.920,eb:33:2e:f9:57:b5, 2085-97-101 02:196:245:1270,0.321,-1.382,0.388,-322.388,-54.138,-48.401,79.75,31.976,-108.539
 14:54:53.920,eb:33:2e:f9:57:b5, 2085-97-140 02:58:246:1259,0.331,-1.235,0.699,-335.632,-88.379,-27.832,75.905,32.179,-109.506
 14:54:53.920,eb:33:2e:f9:57:b5, 2085-97-227 02:218:246:950,0.366,-1.204,0.513,-332.703,-114.624,-11.047,71.906,32.064,-110.731
 14:54:53.922,eb:33:2e:f9:57:b5, 2085-97-195 02:164:248:855,0.33,-1.034,0.429,-326.599,-134.583,0.732,67.852,31.668,-112.143
 14:54:53.922,eb:33:2e:f9:57:b5, 2085-97-140 02:239:249:1077,0.308,-0.827,0.465,-323.669,-153.625,7.751,63.809,31.031,-113.676
 14:54:53.922,eb:33:2e:f9:57:b5, 2085-97-53 02:169:250:1214,0.234,-0.705,0.573,-322.876,-168.884,9.888,59.738,30.179,-115.296
 14:54:53.922,eb:33:2e:f9:57:b5, 2085-97-141 01:154:250:1379,0.156,-0.66,0.621,-325.928,-182.678,11.047,55.679,29.147,-116.949
 14:54:53.982,eb:33:2e:f9:57:b5, 2085-97-33 01:81:250:1783,0.107,-0.696,0.749,-333.13,-185.486,13.733,51.586,27.949,-118.575
 14:54:53.982,eb:33:2e:f9:57:b5, 2085-97-114 00:176:250:2057,0.034,-0.698,0.963,-341.675,-172.058,18.555,47.56,26.664,-119.993
 14:54:53.982,eb:33:2e:f9:57:b5, 2085-97-68 00:95:251:2103,0.043,-0.625,1.028,-345.764,-161.316,21.851,43.588,25.356,-121.157
 14:54:53.982,eb:33:2e:f9:57:b5, 2085-97-89 00:232:251:2016,0.033,-0.54,1.009,-348.022,-159.973,20.752,39.705,24.016,-122.151
 14:54:54.072,eb:33:2e:f9:57:b5, 2085-97-67 00:85:252:2094,0.021,-0.483,0.975,-351.746,-167.847,16.357,35.81,22.604,-123.085
 14:54:54.072,eb:33:2e:f9:57:b5, 2085-97-10 00:188:252:2442,-0.022,-0.434,1.099,-355.042,-178.65,9.644,31.926,21.094,-124.019
 14:54:54.072,eb:33:2e:f9:57:b5, 2085-97-189 255:34:253:2867,-0.071,-0.384,1.289,-355.53,-186.829,1.77,28.026,19.468,-124.953
 14:54:54.072,eb:33:2e:f9:57:b5, 2085-97-66 255:96:253:3164,-0.122,-0.338,1.464,-354.614,-189.819,-5.859,24.186,17.787,-125.854
 14:54:54.102,eb:33:2e:f9:57:b5, 2085-97-218 254:122:253:3389,-0.163,-0.314,1.592,-353.027,-190.491,-12.329,20.374,16.057,-126.705
 14:54:54.102,eb:33:2e:f9:57:b5, 2085-97-124 254:93:253:3695,-0.199,-0.323,1.735,-349.731,-192.139,-15.869,16.661,14.293,-127.48
 14:54:54.102,eb:33:2e:f9:57:b5, 2085-97-06 254:51:253:4083,-0.302,-0.343,1.921,-347.9,-194.946,-17.395,12.991,12.448,-128.167
 14:54:54.102,eb:33:2e:f9:57:b5, 2085-97-50 253:58:253:4428,-0.375,-0.354,2.077,-353.088,-195.129,-16.602,9.377,10.569,-128.727
 14:54:54.102,eb:33:2e:f9:57:b5, 2085-97-209 252:159:253:4773,-0.414,-0.331,2.256,-365.479,-193.115,-14.526,5.685,8.657,-129.144
 14:54:54.102,eb:33:2e:f9:57:b5, 2085-97-156 252:154:254:5041,-0.421,-0.246,2.395,-388.367,-194.885,-14.282,1.879,6.729,-129.419
 14:54:54.102,eb:33:2e:f9:57:b5, 2085-97-190 252:101:00:5410,-0.41,-0.079,2.541,-418.762,-200.745,-20.142,-2.208,4.746,-129.584
 14:54:54.102,eb:33:2e:f9:57:b5, 2085-97-102 252:78:03:5989,-0.526,0.216,2.771,-443.604,-215.088,-33.02,-6.553,2.653,-129.688
 14:54:54.132,eb:33:2e:f9:57:b5, 2085-97-212 250:173:06:6801,-0.797,0.625,3.107,-452.148,-237.732,-50.354,-11.08,0.335,-129.76
 14:54:54.133,eb:33:2e:f9:57:b5, 2085-97-58 248:233:09:7760,-1.191,1.047,3.546,-440.613,-255.249,-63.782,-15.551,-2.214,-129.754
 14:54:54.133,eb:33:2e:f9:57:b5, 2085-97-149 244:124:12:8337,-1.614,1.407,3.954,-413.879,-254.272,-63.66,-19.858,-4.85,-129.595
 14:54:54.133,eb:33:2e:f9:57:b5, 2085-97-114 242:148:15:8947,-1.42,1.717,4.229,-377.441,-218.018,-40.649,-23.846,-7.273,-129.194
 14:54:54.161,eb:33:2e:f9:57:b5, 2085-97-165 247:93:24:8428,-0.625,2.325,4.514,-338.745,-78.613,-12.756,-27.482,-8.767,-128.743
 14:54:54.161,eb:33:2e:f9:57:b5, 2085-97-46 253:96:41:5298,-0.38,4.147,3.407,-311.89,82.886,-8.301,-30.718,-8.597,-128.903
 14:54:54.161,eb:33:2e:f9:57:b5, 2085-97-209 249:23:49:-493,-1.446,5.968,1.262,-210.266,20.813,-46.265,-33.289,-8.119,-129.523
 14:54:54.161,eb:33:2e:f9:57:b5, 2085-97-11 239:136:38:-560,-2.613,5.52,-0.887,-43.213,-235.596,-69.092,-34.492,-9.481,-129.364
 14:54:54.191,eb:33:2e:f9:57:b5, 2085-97-212 231:135:31:5298,-3.306,4.352,1.094,90.576,-336.975,-28.32,-34.409,-12.327,-127.991
 14:54:54.191,eb:33:2e:f9:57:b5, 2085-97-149 229:74:03:13483,-1.102,3.361,3.683,161.499,-202.759,33.264,-33.442,-14.645,-126.326
 14:54:54.191,eb:33:2e:f9:57:b5, 2085-97-225 254:58:254:-676,1.983,0.798,5.363,309.143,353.149,163.33,-30.938,-13.524,-125.53
 14:54:54.191,eb:33:2e:f9:57:b5, 2085-97-129 11:214:245:1442,0.831,-1.729,-0.164,275.879,318.787,243.713,-28.114,-10.151,-125.343
 14:54:54.282,eb:33:2e:f9:57:b5, 2085-97-137 00:61:244:454,-0.641,-1.936,0.556,393.799,268.494,195.435,-24.818,-6.35,-124.766
 14:54:54.282,eb:33:2e:f9:57:b5, 2085-97-163 246:176:253:1225,-1.116,-0.649,0.23,460.876,131.714,186.035,-20.517,-3.851,-123.734
 14:54:54.282,eb:33:2e:f9:57:b5, 2085-97-06 248:98:05:2999,-0.795,0.419,1.151,428.406,78.308,135.986,-16.068,-2.461,-122.487
 14:54:54.282,eb:33:2e:f9:57:b5, 2085-97-184 250:165:06:3387,-0.445,0.843,1.632,358.459,77.759,78.857,-12.195,-1.439,-121.608
 14:54:54.371,eb:33:2e:f9:57:b5, 2085-97-178 253:82:06:3093,-0.238,0.776,1.679,280.762,47.729,-7.751,-9.047,-0.742,-121.432
 14:54:54.371,eb:33:2e:f9:57:b5, 2085-97-234 254:11:03:2588,-0.035,0.6,1.357,221.069,-1.892,-52.063,-6.564,-0.577,-121.827
 14:54:54.371,eb:33:2e:f9:57:b5, 2085-97-151 00:144:01:2318,0.055,0.334,1.125,159.18,-53.65,-60.608,-4.675,-0.923,-122.399
 14:54:54.371,eb:33:2e:f9:57:b5, 2085-97-89 00:05:02:2205,0.061,0.193,1.124,105.896,-43.945,-36.133,-3.367,-1.5,-122.855
 14:54:54.374,eb:33:2e:f9:57:b5, 2085-97-00 00:229:01:1981,-0.01,0.257,1.054,59.814,-9.277,-12.024,-2.554,-1.747,-123.063
 14:54:54.375,eb:33:2e:f9:57:b5, 2085-97-232 255:251:00:1941,-0.052,0.176,0.961,33.325,1.343,-6.165,-2.115,-1.774,-123.14
 14:54:54.375,eb:33:2e:f9:57:b5, 2085-97-182 255:85:00:1964,-0.012,0.069,0.91,19.897,-2.136,-2.869,-1.846,-1.758,-123.195
 14:54:54.375,eb:33:2e:f9:57:b5, 2085-97-242 255:50:00:2049,-0.008,0.037,0.996,10.803,3.418,2.991,-1.697,-1.763,-123.184
 14:54:54.375,eb:33:2e:f9:57:b5, 2085-97-202 255:59:00:2003,-0.039,0.034,0.995,6.226,9.338,3.479,-1.604,-1.681,-123.151
 14:54:54.376,eb:33:2e:f9:57:b5, 2085-97-216 255:00:00:2047,-0.014,0.014,0.977,3.479,7.202,2.93,-1.56,-1.599,-123.124
 14:54:54.376,eb:33:2e:f9:57:b5, 2085-97-234 255:249:255:2049,-0.018,-0.007,0.998,2.747,6.836,3.784,-1.516,-1.516,-123.096
 14:54:54.376,eb:33:2e:f9:57:b5, 2085-97-213 255:215:255:2050,-0.013,-0.01,0.993,2.869,6.042,3.967,-1.489,-1.45,-123.058
 14:54:54.401,eb:33:2e:f9:57:b5, 2085-97-220 255:202:255:2055,-0.036,-0.026,1.007,4.211,5.005,5.493,-1.439,-1.379,-123.014
 14:54:54.401,eb:33:2e:f9:57:b5, 2085-97-175 255:03:00:2002,-0.055,-0.012,0.98,5.493,2.075,6.531,-1.39,-1.34,-122.953
 14:54:54.401,eb:33:2e:f9:57:b5, 2085-97-168 255:05:00:1983,-0.033,-0.006,0.964,4.822,0.244,6.042,-1.324,-1.313,-122.888
 14:54:54.401,eb:33:2e:f9:57:b5, 2085-97-235 255:08:00:2039,0.001,-0.003,0.977,4.456,-1.953,5.371,-1.28,-1.324,-122.833
 14:54:54.462,eb:33:2e:f9:57:b5, 2085-97-241 255:10:00:2033,-0.002,0.008,1.008,4.272,0.244,4.333,-1.225,-1.324,-122.783
 14:54:54.462,eb:33:2e:f9:57:b5, 2085-97-242 255:12:00:2031,0.005,0.007,1.001,3.967,2.075,3.052,-1.181,-1.313,-122.75
 14:54:54.462,eb:33:2e:f9:57:b5, 2085-97-29 00:06:00:2081,0.02,0.004,1.008,3.845,3.601,2.38,-1.132,-1.274,-122.723
 14:54:54.462,eb:33:2e:f9:57:b5, 2085-97-49 00:01:00:2116,-0.001,0.004,1.02,4.456,6.836,2.014,-1.088,-1.219,-122.701
 14:54:54.462,eb:33:2e:f9:57:b5, 2085-97-252 255:251:255:2068,-0.011,-0.002,1.005,5.066,9.644,1.892,-1.027,-1.121,-122.684
 14:54:54.550,eb:33:2e:f9:57:b5, 2085-113-81 00:98:61:-389,-0.014,-0.007,1.005,5.493,10.498,2.258,-0.972,-1.016,-122.668
 14:54:54.550,eb:33:2e:f9:57:b5, 2085-97-250 255:03:00:2079,-0.018,-0.009,0.997,5.554,10.376,2.747,-0.934,-0.95,-122.657
 14:54:54.550,eb:33:2e:f9:57:b5, 2085-97-210 255:00:00:2036,-0.018,-0.001,0.994,6.104,10.01,3.723,-0.873,-0.846,-122.624
 14:54:54.550,eb:33:2e:f9:57:b5, 2085-97-240 255:33:00:2044,-0.019,0.007,0.992,6.104,9.949,3.54,-0.797,-0.736,-122.591
 14:54:54.552,eb:33:2e:f9:57:b5, 2085-97-247 255:21:00:2098,-0.015,0.006,1.002,6.348,10.986,2.869,-0.736,-0.632,-122.558
 14:54:54.552,eb:33:2e:f9:57:b5, 2085-97-231 255:24:00:2060,-0.033,0.006,1.008,7.08,14.038,1.831,-0.654,-0.489,-122.536
 14:54:54.552,eb:33:2e:f9:57:b5, 2085-97-225 255:30:00:2073,-0.008,0.015,0.983,7.019,14.709,1.038,-0.588,-0.341,-122.525
 14:54:54.552,eb:33:2e:f9:57:b5, 2085-97-233 255:35:00:2066,-0.026,0.019,1.01,7.568,17.212,0.061,-0.5,-0.17,-122.52
 14:54:54.610,eb:33:2e:f9:57:b5, 2085-97-214 255:21:00:2083,-0.02,0.008,1.007,7.812,19.653,-0.854,-0.423,0.016,-122.531
 14:54:54.610,eb:33:2e:f9:57:b5, 2085-97-212 255:43:00:2091,-0.042,0.008,1.05,9.094,23.682,-1.77,-0.324,0.242,-122.547
 14:54:54.610,eb:33:2e:f9:57:b5, 2085-97-208 255:46:00:2109,-0.051,0.009,1.018,9.888,26.428,-2.258,-0.231,0.494,-122.569
 14:54:54.610,eb:33:2e:f9:57:b5, 2085-97-152 255:25:00:2052,-0.048,0.008,1.001,10.071,29.114,-3.418,-0.115,0.786,-122.607
 14:54:54.760,eb:33:2e:f9:57:b5, 2085-97-116 255:40:00:2004,-0.06,0.013,1.008,10.01,30.151,-2.869,-0.011,1.077,-122.646
 14:54:54.760,eb:33:2e:f9:57:b5, 2085-97-94 255:28:00:2011,-0.059,0.02,1.001,9.399,29.846,-2.808,0.093,1.379,-122.673
 14:54:54.760,eb:33:2e:f9:57:b5, 2085-97-144 255:73:00:2007,-0.057,0.017,1.005,10.071,26.855,-2.502,0.192,1.659,-122.701
 14:54:54.760,eb:33:2e:f9:57:b5, 2085-97-156 255:81:00:2001,-0.013,0.025,1.004,9.033,27.222,-3.418,0.297,1.934,-122.734
 14:54:54.853,eb:33:2e:f9:57:b5, 2085-97-228 255:103:00:2080,0.01,0.072,0.951,8.362,22.461,-5.981,0.385,2.181,-122.778
 14:54:54.853,eb:33:2e:f9:57:b5, 2085-97-97 255:03:00:2390,-0.18,0.07,1.024,10.864,19.226,-7.812,0.489,2.401,-122.844
 14:54:54.853,eb:33:2e:f9:57:b5, 2085-97-27 255:105:255:2984,-0.074,-0.085,1.361,27.832,19.165,-7.874,0.665,2.609,-122.921
 14:54:54.853,eb:33:2e:f9:57:b5, 2085-97-21 255:237:255:2400,-0.132,-0.02,1.27,48.34,26.55,-8.423,1.077,2.856,-122.997
 14:54:54.882,eb:33:2e:f9:57:b5, 2085-97-217 254:188:255:2674,-0.185,-0.023,1.224,56.702,27.466,-9.277,1.604,3.126,-123.085
 14:54:54.882,eb:33:2e:f9:57:b5, 2085-97-86 254:135:255:2606,-0.239,-0.049,1.314,67.383,31.006,-4.883,2.236,3.439,-123.146
 14:54:54.882,eb:33:2e:f9:57:b5, 2085-97-43 254:63:255:2823,-0.221,-0.074,1.305,80.261,26.733,0.916,2.983,3.719,-123.157
 14:54:54.882,eb:33:2e:f9:57:b5, 2085-97-115 254:100:255:2952,-0.154,-0.084,1.392,93.201,28.015,9.583,3.867,4.01,-123.08
 14:54:54.884,eb:33:2e:f9:57:b5, 2085-97-66 255:183:255:3132,-0.074,-0.063,1.492,107.544,32.898,17.029,4.894,4.296,-122.926
 14:54:54.884,eb:33:2e:f9:57:b5, 2085-97-247 254:172:255:3092,-0.187,-0.013,1.538,121.643,42.664,22.461,6.075,4.664,-122.684
 14:54:54.884,eb:33:2e:f9:57:b5, 2085-97-129 254:60:255:3035,-0.193,-0.074,1.491,140.137,43.274,29.602,7.41,5.076,-122.377
 14:54:54.884,eb:33:2e:f9:57:b5, 2085-97-25 255:170:255:3335,-0.017,-0.062,1.481,159.119,34.973,35.828,8.965,5.433,-121.987
 14:54:54.912,eb:33:2e:f9:57:b5, 2085-97-224 00:44:00:4037,0.203,-0.015,1.821,181.58,42.603,35.583,10.717,5.735,-121.564
 14:54:54.912,eb:33:2e:f9:57:b5, 2085-97-67 02:166:00:4220,0.272,0.067,2.042,209.473,69.275,28.076,12.744,6.229,-121.13
 14:54:54.912,eb:33:2e:f9:57:b5, 2085-97-28 02:06:00:4419,0.281,0.052,2.089,239.136,97.961,17.273,15.051,7.004,-120.707
 14:54:54.912,eb:33:2e:f9:57:b5, 2085-97-71 02:171:255:4565,0.299,-0.009,2.189,271.545,120.605,9.338,17.677,8.047,-120.262
 14:54:54.914,eb:33:2e:f9:57:b5, 2085-97-160 02:254:253:5088,0.429,-0.146,2.328,312.439,136.536,0.61,20.682,9.25,-119.8
 14:54:54.915,eb:33:2e:f9:57:b5, 2085-97-36 04:178:253:5337,0.585,-0.316,2.643,358.521,175.659,-4.761,24.164,10.706,-119.218
 14:54:54.915,eb:33:2e:f9:57:b5, 2085-97-116 04:235:252:5347,0.465,-0.352,2.588,414.062,213.745,-17.822,28.207,12.524,-118.438
 14:54:54.915,eb:33:2e:f9:57:b5, 2085-97-228 01:216:253:6074,-0.091,-0.395,2.762,466.431,251.404,-25.696,32.888,14.661,-117.411
 14:54:54.941,eb:33:2e:f9:57:b5, 2085-97-144 252:12:02:7652,0.766,0.002,3.374,522.583,252.319,-35.95,38.21,16.919,-116.131
 14:54:54.941,eb:33:2e:f9:57:b5, 2085-97-204 04:201:244:-2166,0.443,-1.127,-0.9,64.636,-7.324,-187.805,84.831,29.713,-108.325
 14:54:54.941,eb:33:2e:f9:57:b5, 2085-97-82 02:07:242:-907,0.225,-1.607,-0.767,-116.028,-33.081,-179.382,84.194,31.553,-108.792
 14:54:54.941,eb:33:2e:f9:57:b5, 2085-97-32 01:95:243:469,0.093,-1.718,-0.079,-236.816,-30.579,-143.25,81.98,33.102,-109.407
 14:54:54.971,eb:33:2e:f9:57:b5, 2085-97-116 00:130:245:1119,0.022,-1.421,0.438,-295.41,-45.532,-106.201,78.865,34.25,-110.094
 14:54:54.971,eb:33:2e:f9:57:b5, 2085-97-66 00:30:246:1128,0.095,-1.258,0.569,-319.824,-64.941,-67.322,75.229,34.953,-111
 14:54:54.972,eb:33:2e:f9:57:b5, 2085-97-147 01:200:246:1095,0.244,-1.211,0.528,-332.764,-77.759,-30.762,71.373,35.189,-112.017
 14:54:54.972,eb:33:2e:f9:57:b5, 2085-97-78 02:72:248:1029,0.328,-1.074,0.5,-340.454,-83.191,-3.54,67.412,35.046,-113.005
 14:54:55.723,eb:33:2e:f9:57:b5, 2085-97-230 02:249:249:1192,0.393,-0.85,0.533,-344.238,-94.177,15.076,63.446,34.612,-113.956
 14:54:55.730,eb:33:2e:f9:57:b5, 2085-97-81 03:06:251:1280,0.415,-0.679,0.618,-347.534,-110.352,25.635,59.42,33.931,-114.928
 14:54:55.730,eb:33:2e:f9:57:b5, 2085-97-09 03:76:251:1256,0.341,-0.589,0.618,-355.774,-130.798,33.02,55.338,33.025,-115.966
 14:54:55.730,eb:33:2e:f9:57:b5, 2085-97-100 02:37:251:1329,0.294,-0.599,0.623,-370.361,-145.935,42.053,51.108,31.888,-117.037
 14:54:55.731,eb:33:2e:f9:57:b5, 2085-97-37 02:114:251:1749,0.255,-0.596,0.756,-382.996,-154.785,53.589,46.829,30.526,-118.004
 14:54:55.731,eb:33:2e:f9:57:b5, 2085-97-195 01:14:252:2198,0.199,-0.536,0.985,-386.169,-157.532,65.43,42.561,28.987,-118.795
 14:54:55.731,eb:33:2e:f9:57:b5, 2085-97-82 01:253:252:2331,0.173,-0.434,1.138,-379.089,-160.156,77.271,38.474,27.312,-119.344
 14:54:55.731,eb:33:2e:f9:57:b5, 2085-97-98 01:234:253:2385,0.182,-0.323,1.154,-367.676,-167.053,86.914,34.563,25.499,-119.702
 14:54:55.732,eb:33:2e:f9:57:b5, 2085-97-110 01:06:255:2573,0.158,-0.194,1.208,-357.483,-175.293,92.59,30.872,23.566,-119.888
 14:54:55.732,eb:33:2e:f9:57:b5, 2085-97-61 01:176:255:2884,0.139,-0.074,1.315,-349.182,-183.899,92.346,27.29,21.533,-119.965
 14:54:55.732,eb:33:2e:f9:57:b5, 2085-97-224 00:00:00:3157,0.078,-0.012,1.48,-343.445,-185.669,88.074,23.835,19.468,-119.954
 14:54:55.732,eb:33:2e:f9:57:b5, 2085-97-100 00:253:255:3387,0.027,0.002,1.597,-340.576,-184.753,81.97,20.424,17.43,-119.866
 14:54:55.750,eb:33:2e:f9:57:b5, 2085-97-14 00:214:255:3673,-0.016,-0.012,1.725,-340.454,-180.298,75.378,17.067,15.441,-119.707
 14:54:55.750,eb:33:2e:f9:57:b5, 2085-97-185 255:209:255:3994,-0.048,-0.027,1.868,-343.872,-170.654,68.237,13.672,13.557,-119.482
 14:54:55.750,eb:33:2e:f9:57:b5, 2085-97-146 255:57:00:4278,-0.054,-0.005,2.027,-350.464,-158.447,58.533,10.267,11.821,-119.202
 14:54:55.750,eb:33:2e:f9:57:b5, 2085-97-145 255:242:00:4478,-0.058,0.073,2.141,-361.084,-149.658,44.495,6.735,10.223,-118.922
 14:54:55.813,eb:33:2e:f9:57:b5, 2085-97-119 255:210:01:4655,-0.071,0.165,2.232,-376.77,-145.874,26.306,3.076,8.723,-118.696
 14:54:55.813,eb:33:2e:f9:57:b5, 2085-97-121 255:127:03:4881,-0.063,0.316,2.327,-394.897,-148.01,3.967,-0.797,7.245,-118.586
 14:54:55.813,eb:33:2e:f9:57:b5, 2085-97-93 255:232:05:5126,-0.124,0.582,2.439,-411.194,-160.339,-23.743,-4.839,5.707,-118.619
 14:54:55.813,eb:33:2e:f9:57:b5, 2085-97-113 254:109:08:5481,-0.298,0.894,2.578,-421.021,-184.998,-55.115,-9.058,3.928,-118.817
 14:54:55.813,eb:33:2e:f9:57:b5, 2085-97-160 252:159:10:6101,-0.24,1.195,2.811,-415.894,-216.064,-85.144,-13.271,1.807,-119.13
 14:54:55.813,eb:33:2e:f9:57:b5, 2085-113-58 00:14:227:-5640,-0.205,-0.077,1.449,70.984,40.955,4.944,3.417,6.339,-116.115
 14:54:55.813,eb:33:2e:f9:57:b5, 2085-97-110 254:139:255:3067,-0.176,-0.054,1.447,79.468,43.762,7.385,3.801,6.553,-116.065
 14:54:55.813,eb:33:2e:f9:57:b5, 2085-97-167 254:125:255:3288,-0.191,-0.06,1.573,99.304,54.26,11.719,4.724,7.031,-115.933
 14:54:55.815,eb:33:2e:f9:57:b5, 2085-97-14 254:102:255:3167,-0.286,-0.065,1.57,118.103,66.223,18.677,5.861,7.646,-115.724
 14:54:55.815,eb:33:2e:f9:57:b5, 2085-97-96 253:240:254:3008,-0.327,-0.108,1.527,138.367,62.744,29.358,7.196,8.262,-115.406
 14:54:55.815,eb:33:2e:f9:57:b5, 2085-97-25 254:94:255:3026,-0.155,-0.118,1.444,158.386,49.438,40.466,8.767,8.773,-114.966
 14:54:55.815,eb:33:2e:f9:57:b5, 2085-97-82 255:253:255:3561,-0.032,-0.02,1.554,179.504,39.185,44.678,10.541,9.13,-114.461
