Time,Device name,Chip Time(),Acceleration X(g),Acceleration Y(g),Acceleration Z(g),Angular velocity X(°/s),Angular velocity Y(°/s),Angular velocity Z(°/s),Angle X(°),Angle Y(°),Angle Z(°)
 14:53:44.468,eb:33:2e:f9:57:b5, 2085-97-210 255:26:00:2034,-0.022,0.013,0.991,-0.061,0,-0.061,0.873,0.917,-133.248
 14:53:44.468,eb:33:2e:f9:57:b5, 2085-97-211 255:28:00:2036,-0.023,0.013,0.993,-0.122,0,-0.122,0.873,0.917,-133.248
 14:53:44.468,eb:33:2e:f9:57:b5, 2085-97-210 255:27:00:2034,-0.021,0.012,0.993,-0.122,-0.061,-0.061,0.873,0.917,-133.242
 14:53:44.468,eb:33:2e:f9:57:b5, 2085-97-214 255:27:00:2036,-0.021,0.014,0.995,-0.061,-0.122,-0.061,0.873,0.923,-133.242
 14:53:44.527,eb:33:2e:f9:57:b5, 2085-97-211 255:27:00:2037,-0.021,0.013,0.995,-0.061,-0.061,0,0.873,0.923,-133.237
 14:53:44.527,eb:33:2e:f9:57:b5, 2085-97-210 255:26:00:2036,-0.021,0.013,0.995,-0.061,-0.061,0,0.873,0.923,-133.237
 14:53:44.527,eb:33:2e:f9:57:b5, 2085-97-210 255:27:00:2035,-0.022,0.013,0.994,-0.061,0,0,0.873,0.923,-133.231
 14:53:44.527,eb:33:2e:f9:57:b5, 2085-97-210 255:27:00:2032,-0.022,0.013,0.993,0,-0.061,0.061,0.873,0.923,-133.231
 14:53:44.529,eb:33:2e:f9:57:b5, 2085-97-211 255:26:00:2034,-0.021,0.014,0.993,0,-0.122,0.061,0.873,0.923,-133.226
 14:53:44.529,eb:33:2e:f9:57:b5, 2085-97-209 255:27:00:2031,-0.023,0.013,0.993,0,-0.183,0.061,0.868,0.928,-133.226
 14:53:44.529,eb:33:2e:f9:57:b5, 2085-97-209 255:28:00:2032,-0.023,0.014,0.992,0,-0.305,0,0.868,0.928,-133.22
 14:53:44.529,eb:33:2e:f9:57:b5, 2085-97-209 255:27:00:2031,-0.023,0.014,0.992,-0.061,-0.366,0,0.868,0.928,-133.22
 14:53:44.559,eb:33:2e:f9:57:b5, 2085-97-208 255:28:00:2034,-0.022,0.013,0.993,-0.122,-0.427,-0.061,0.868,0.928,-133.215
 14:53:44.559,eb:33:2e:f9:57:b5, 2085-97-211 255:27:00:2034,-0.021,0.014,0.993,-0.183,-0.427,-0.183,0.868,0.934,-133.215
 14:53:44.559,eb:33:2e:f9:57:b5, 2085-97-213 255:26:00:2037,-0.021,0.013,0.994,-0.183,-0.488,-0.183,0.868,0.934,-133.209
 14:53:44.559,eb:33:2e:f9:57:b5, 2085-97-214 255:23:00:2040,-0.021,0.012,0.996,-0.061,-0.366,-0.061,0.868,0.934,-133.209
 14:53:44.589,eb:33:2e:f9:57:b5, 2085-97-212 255:26:00:2034,-0.022,0.013,0.995,0,-0.427,0.061,0.868,0.934,-133.204
 14:53:44.589,eb:33:2e:f9:57:b5, 2085-97-211 255:26:00:2033,-0.021,0.013,0.993,0,-0.305,0.061,0.868,0.934,-133.204
 14:53:44.589,eb:33:2e:f9:57:b5, 2085-97-214 255:28:00:2034,-0.021,0.014,0.994,0,-0.305,0.061,0.868,0.934,-133.198
 14:53:44.589,eb:33:2e:f9:57:b5, 2085-97-213 255:28:00:2035,-0.021,0.014,0.993,0,-0.244,0,0.868,0.939,-133.198
 14:53:44.618,eb:33:2e:f9:57:b5, 2085-97-213 255:28:00:2033,-0.021,0.014,0.992,0,-0.183,0,0.868,0.939,-133.193
 14:53:44.618,eb:33:2e:f9:57:b5, 2085-97-211 255:28:00:2033,-0.021,0.014,0.994,-0.061,-0.244,0,0.868,0.939,-133.193
 14:53:44.618,eb:33:2e:f9:57:b5, 2085-113-81 00:213:50:346,-0.021,0.014,0.993,0,-0.244,-0.061,0.868,0.939,-133.187
 14:53:44.618,eb:33:2e:f9:57:b5, 2085-97-214 255:27:00:2035,-0.021,0.013,0.994,0,-0.305,-0.061,0.868,0.939,-133.187
 14:53:44.678,eb:33:2e:f9:57:b5, 2085-97-215 255:26:00:2037,-0.02,0.014,0.994,-0.061,-0.183,-0.122,0.868,0.939,-133.187
 14:53:44.678,eb:33:2e:f9:57:b5, 2085-97-214 255:28:00:2036,-0.021,0.013,0.995,0,-0.061,-0.061,0.868,0.939,-133.182
 14:53:44.680,eb:33:2e:f9:57:b5, 2085-97-214 255:28:00:2036,-0.021,0.014,0.995,0,-0.061,0,0.868,0.945,-133.182
 14:53:44.680,eb:33:2e:f9:57:b5, 2085-97-213 255:27:00:2034,-0.02,0.013,0.993,0,0,0,0.868,0.945,-133.176
 14:53:44.708,eb:33:2e:f9:57:b5, 2085-97-214 255:27:00:2035,-0.021,0.013,0.994,0,0,0,0.868,0.945,-133.176
 14:53:44.708,eb:33:2e:f9:57:b5, 2085-97-212 255:29:00:2032,-0.022,0.013,0.994,0,0.122,-0.061,0.868,0.945,-133.171
 14:53:44.708,eb:33:2e:f9:57:b5, 2085-97-212 255:29:00:2033,-0.021,0.013,0.993,0,0.061,0,0.868,0.945,-133.171
 14:53:44.708,eb:33:2e:f9:57:b5, 2085-97-212 255:28:00:2032,-0.022,0.014,0.993,0,0.122,-0.061,0.868,0.945,-133.165
 14:53:44.767,eb:33:2e:f9:57:b5, 2085-97-211 255:26:00:2034,-0.021,0.014,0.993,-0.061,0.061,-0.122,0.868,0.945,-133.165
 14:53:44.767,eb:33:2e:f9:57:b5, 2085-97-214 255:26:00:2036,-0.021,0.013,0.995,-0.061,0.061,-0.061,0.868,0.95,-133.16
 14:53:44.767,eb:33:2e:f9:57:b5, 2085-97-212 255:26:00:2035,-0.021,0.013,0.994,0,0.061,0,0.868,0.95,-133.16
 14:53:44.767,eb:33:2e:f9:57:b5, 2085-97-212 255:27:00:2033,-0.021,0.012,0.993,0,0,0,0.868,0.95,-133.154
 14:53:44.799,eb:33:2e:f9:57:b5, 2085-97-214 255:28:00:2033,-0.021,0.013,0.993,0,0,0,0.868,0.95,-133.154
 14:53:44.799,eb:33:2e:f9:57:b5, 2085-97-212 255:28:00:2034,-0.022,0.013,0.993,0,0,0,0.868,0.95,-133.149
 14:53:44.799,eb:33:2e:f9:57:b5, 2085-97-213 255:26:00:2032,-0.022,0.013,0.993,-0.061,0,0,0.862,0.95,-133.149
 14:53:44.799,eb:33:2e:f9:57:b5, 2085-97-212 255:28:00:2034,-0.021,0.013,0.993,0,0,-0.061,0.862,0.95,-133.143
 14:53:44.858,eb:33:2e:f9:57:b5, 2085-97-211 255:28:00:2035,-0.021,0.013,0.993,-0.122,0,-0.061,0.862,0.956,-133.143
 14:53:44.858,eb:33:2e:f9:57:b5, 2085-97-211 255:27:00:2035,-0.022,0.014,0.994,-0.122,0,-0.061,0.862,0.956,-133.138
 14:53:44.858,eb:33:2e:f9:57:b5, 2085-97-213 255:28:00:2036,-0.021,0.014,0.993,-0.183,0,-0.061,0.862,0.956,-133.138
 14:53:44.858,eb:33:2e:f9:57:b5, 2085-97-213 255:26:00:2035,-0.021,0.014,0.994,-0.122,0.061,-0.061,0.862,0.956,-133.132
 14:53:44.860,eb:33:2e:f9:57:b5, 2085-97-214 255:27:00:2036,-0.021,0.014,0.994,-0.122,0.061,-0.122,0.862,0.956,-133.132
 14:53:44.860,eb:33:2e:f9:57:b5, 2085-97-216 255:24:00:2039,-0.021,0.013,0.994,-0.061,0.061,-0.061,0.862,0.956,-133.127
 14:53:44.860,eb:33:2e:f9:57:b5, 2085-97-213 255:24:00:2038,-0.021,0.011,0.995,0,0,0.061,0.862,0.961,-133.127
 14:53:44.860,eb:33:2e:f9:57:b5, 2085-97-212 255:26:00:2032,-0.022,0.013,0.993,0,0,0.122,0.862,0.961,-133.121
 14:53:44.948,eb:33:2e:f9:57:b5, 2085-97-209 255:26:00:2032,-0.022,0.013,0.992,0.061,0,0.122,0.862,0.961,-133.121
 14:53:44.948,eb:33:2e:f9:57:b5, 2085-97-210 255:27:00:2032,-0.022,0.013,0.993,0,-0.061,0.061,0.862,0.961,-133.116
 14:53:44.948,eb:33:2e:f9:57:b5, 2085-97-212 255:26:00:2032,-0.021,0.014,0.992,0,-0.061,0,0.862,0.961,-133.116
 14:53:44.948,eb:33:2e:f9:57:b5, 2085-97-213 255:28:00:2034,-0.021,0.014,0.992,-0.061,-0.061,0,0.862,0.961,-133.11
 14:53:45.040,eb:33:2e:f9:57:b5, 2085-97-212 255:26:00:2034,-0.021,0.013,0.993,-0.061,0,-0.061,0.862,0.967,-133.11
 14:53:45.040,eb:33:2e:f9:57:b5, 2085-97-212 255:27:00:2032,-0.021,0.013,0.993,-0.122,-0.061,-0.061,0.862,0.967,-133.105
 14:53:45.040,eb:33:2e:f9:57:b5, 2085-97-212 255:25:00:2033,-0.021,0.012,0.993,-0.183,-0.122,-0.122,0.862,0.967,-133.105
 14:53:45.040,eb:33:2e:f9:57:b5, 2085-97-212 255:26:00:2034,-0.021,0.013,0.993,-0.122,-0.061,-0.122,0.862,0.967,-133.099
 14:53:45.040,eb:33:2e:f9:57:b5, 2085-97-211 255:25:00:2033,-0.022,0.012,0.993,-0.122,-0.122,-0.183,0.862,0.967,-133.099
 14:53:45.040,eb:33:2e:f9:57:b5, 2085-97-210 255:27:00:2034,-0.022,0.013,0.993,-0.122,-0.244,-0.183,0.862,0.967,-133.099
 14:53:45.040,eb:33:2e:f9:57:b5, 2085-97-212 255:25:00:2034,-0.021,0.012,0.993,-0.122,-0.244,-0.122,0.862,0.972,-133.099
 14:53:45.041,eb:33:2e:f9:57:b5, 2085-97-213 255:29:00:2036,-0.02,0.012,0.994,-0.122,-0.244,-0.122,0.862,0.972,-133.094
 14:53:45.043,eb:33:2e:f9:57:b5, 2085-97-215 255:26:00:2035,-0.022,0.014,0.994,-0.122,-0.183,-0.244,0.862,0.972,-133.094
 14:53:45.043,eb:33:2e:f9:57:b5, 2085-97-210 255:28:00:2030,-0.021,0.013,0.992,-0.183,-0.244,-0.183,0.862,0.972,-133.088
 14:53:45.043,eb:33:2e:f9:57:b5, 2085-97-213 255:25:00:2034,-0.021,0.013,0.994,-0.244,-0.183,-0.244,0.857,0.972,-133.088
 14:53:45.043,eb:33:2e:f9:57:b5, 2085-97-211 255:27:00:2033,-0.022,0.013,0.992,-0.366,-0.183,-0.305,0.857,0.972,-133.083
 14:53:45.097,eb:33:2e:f9:57:b5, 2085-97-215 255:23:00:2039,-0.018,0.013,0.993,-0.366,-0.244,-0.366,0.857,0.978,-133.083
 14:53:45.097,eb:33:2e:f9:57:b5, 2085-97-216 255:20:00:2041,-0.022,0.011,0.998,-0.122,-0.183,-0.122,0.857,0.978,-133.077
 14:53:45.097,eb:33:2e:f9:57:b5, 2085-97-209 255:28:00:2032,-0.02,0.012,0.994,0,-0.366,0.061,0.857,0.978,-133.077
 14:53:45.097,eb:33:2e:f9:57:b5, 2085-97-212 255:24:00:2034,-0.021,0.013,0.996,0.061,-0.427,0.122,0.857,0.978,-133.072
 14:53:45.100,eb:33:2e:f9:57:b5, 2085-97-211 255:28:00:2033,-0.021,0.012,0.995,0.061,-0.305,0.122,0.857,0.978,-133.072
 14:53:45.100,eb:33:2e:f9:57:b5, 2085-97-213 255:25:00:2031,-0.02,0.014,0.992,0,-0.305,0.122,0.857,0.978,-133.066
 14:53:45.100,eb:33:2e:f9:57:b5, 2085-97-215 255:27:00:2033,-0.021,0.013,0.992,0,-0.366,0.122,0.857,0.978,-133.066
 14:53:45.101,eb:33:2e:f9:57:b5, 2085-97-212 255:28:00:2032,-0.021,0.014,0.992,-0.061,-0.183,0,0.857,0.978,-133.061
 14:53:45.158,eb:33:2e:f9:57:b5, 2085-97-213 255:25:00:2035,-0.02,0.013,0.993,-0.122,-0.183,-0.061,0.857,0.983,-133.061
 14:53:45.158,eb:33:2e:f9:57:b5, 2085-97-214 255:26:00:2034,-0.02,0.012,0.994,-0.122,-0.122,-0.122,0.857,0.983,-133.055
 14:53:45.158,eb:33:2e:f9:57:b5, 2085-97-214 255:26:00:2035,-0.021,0.013,0.994,-0.061,-0.244,-0.061,0.857,0.983,-133.055
 14:53:45.158,eb:33:2e:f9:57:b5, 2085-97-214 255:24:00:2035,-0.021,0.012,0.993,0,-0.183,-0.061,0.857,0.983,-133.05
 14:53:45.158,eb:33:2e:f9:57:b5, 2085-113-58 00:239:227:-6465,-0.02,0.012,0.994,0,-0.244,0,0.857,0.983,-133.05
 14:53:45.278,eb:33:2e:f9:57:b5, 2085-97-216 255:25:00:2038,-0.02,0.012,0.994,0,-0.244,0,0.857,0.983,-133.05
 14:53:45.278,eb:33:2e:f9:57:b5, 2085-97-216 255:24:00:2038,-0.02,0.012,0.995,0,-0.183,0.061,0.857,0.983,-133.05
 14:53:45.278,eb:33:2e:f9:57:b5, 2085-97-214 255:25:00:2034,-0.02,0.012,0.995,0.122,-0.122,0.122,0.857,0.983,-133.044
 14:53:45.278,eb:33:2e:f9:57:b5, 2085-97-212 255:25:00:2034,-0.02,0.012,0.994,0.122,-0.122,0.122,0.851,0.989,-133.044
 14:53:45.280,eb:33:2e:f9:57:b5, 2085-97-213 255:27:00:2032,-0.021,0.014,0.994,0.061,-0.183,0.061,0.851,0.989,-133.039
 14:53:45.280,eb:33:2e:f9:57:b5, 2085-97-213 255:26:00:2032,-0.021,0.012,0.992,0,-0.183,0.061,0.851,0.989,-133.039
 14:53:45.280,eb:33:2e:f9:57:b5, 2085-97-214 255:25:00:2034,-0.021,0.013,0.994,0,-0.305,0,0.851,0.989,-133.033
 14:53:45.280,eb:33:2e:f9:57:b5, 2085-97-215 255:28:00:2036,-0.02,0.014,0.994,0,-0.244,0.061,0.851,0.989,-133.033
 14:53:45.282,eb:33:2e:f9:57:b5, 2085-97-216 255:26:00:2036,-0.02,0.013,0.995,0,-0.183,0.122,0.851,0.989,-133.028
 14:53:45.282,eb:33:2e:f9:57:b5, 2085-97-214 255:25:00:2035,-0.02,0.013,0.993,0,-0.122,0,0.851,0.989,-133.028
 14:53:45.282,eb:33:2e:f9:57:b5, 2085-97-214 255:26:00:2035,-0.021,0.012,0.994,0,-0.122,0.061,0.851,0.989,-133.022
 14:53:45.282,eb:33:2e:f9:57:b5, 2085-97-214 255:26:00:2033,-0.021,0.012,0.993,0,-0.183,0.061,0.851,0.989,-133.022
 14:53:45.308,eb:33:2e:f9:57:b5, 2085-97-214 255:26:00:2034,-0.02,0.013,0.993,0,-0.183,0.061,0.851,0.989,-133.017
 14:53:45.308,eb:33:2e:f9:57:b5, 2085-97-215 255:26:00:2034,-0.021,0.013,0.993,0,-0.305,0.122,0.851,0.994,-133.017
 14:53:45.308,eb:33:2e:f9:57:b5, 2085-97-214 255:26:00:2035,-0.02,0.013,0.993,0.061,-0.244,0.061,0.851,0.994,-133.017
 14:53:45.308,eb:33:2e:f9:57:b5, 2085-97-216 255:26:00:2034,-0.02,0.013,0.994,0,-0.183,0,0.851,0.994,-133.017
 14:53:45.399,eb:33:2e:f9:57:b5, 2085-97-216 255:24:00:2038,-0.019,0.012,0.995,0.122,-0.183,0.061,0.851,0.994,-133.011
 14:53:45.399,eb:33:2e:f9:57:b5, 2085-97-216 255:27:00:2033,-0.02,0.013,0.994,0.061,-0.183,0.122,0.851,0.994,-133.011
 14:53:45.399,eb:33:2e:f9:57:b5, 2085-97-216 255:25:00:2035,-0.02,0.014,0.992,0.061,-0.122,0.122,0.851,0.994,-133.006
 14:53:45.400,eb:33:2e:f9:57:b5, 2085-97-216 255:27:00:2034,-0.02,0.013,0.993,0,-0.122,0.061,0.851,0.994,-133.006
 14:53:45.401,eb:33:2e:f9:57:b5, 2085-97-214 255:28:00:2033,-0.02,0.014,0.992,0,-0.122,0,0.851,0.994,-133
 14:53:45.401,eb:33:2e:f9:57:b5, 2085-97-216 255:26:00:2034,-0.019,0.013,0.993,0,-0.122,-0.061,0.851,0.994,-133
 14:53:45.401,eb:33:2e:f9:57:b5, 2085-97-216 255:26:00:2034,-0.02,0.013,0.994,0,-0.061,-0.061,0.851,0.994,-132.995
 14:53:45.401,eb:33:2e:f9:57:b5, 2085-97-215 255:26:00:2034,-0.019,0.013,0.993,0,-0.061,-0.122,0.851,1,-132.995
 14:53:45.458,eb:33:2e:f9:57:b5, 2085-97-216 255:25:00:2036,-0.019,0.012,0.994,-0.061,0,-0.122,0.851,1,-132.99
 14:53:45.458,eb:33:2e:f9:57:b5, 2085-97-218 255:26:00:2036,-0.02,0.012,0.994,-0.061,0.061,-0.061,0.846,1,-132.99
 14:53:45.458,eb:33:2e:f9:57:b5, 2085-97-216 255:26:00:2033,-0.02,0.012,0.993,0,0.061,0,0.846,1,-132.99
 14:53:45.458,eb:33:2e:f9:57:b5, 2085-97-215 255:25:00:2034,-0.02,0.013,0.993,0.061,0.061,0,0.846,1,-132.99
 14:53:45.547,eb:33:2e:f9:57:b5, 2085-97-214 255:26:00:2032,-0.021,0.013,0.992,0,0,-0.061,0.846,1,-132.984
 14:53:45.547,eb:33:2e:f9:57:b5, 2085-97-215 255:26:00:2033,-0.02,0.012,0.992,0,-0.061,-0.122,0.846,1,-132.984
 14:53:45.547,eb:33:2e:f9:57:b5, 2085-97-214 255:27:00:2035,-0.02,0.013,0.993,-0.122,-0.061,-0.183,0.846,1,-132.979
 14:53:45.547,eb:33:2e:f9:57:b5, 2085-97-217 255:26:00:2036,-0.02,0.013,0.994,-0.061,-0.061,-0.183,0.846,1,-132.979
 14:53:45.549,eb:33:2e:f9:57:b5, 2085-97-215 255:25:00:2034,-0.02,0.012,0.994,-0.122,0,-0.183,0.846,1,-132.973
 14:53:45.549,eb:33:2e:f9:57:b5, 2085-97-216 255:27:00:2035,-0.02,0.013,0.994,-0.122,0,-0.183,0.846,1,-132.973
 14:53:45.549,eb:33:2e:f9:57:b5, 2085-97-217 255:25:00:2034,-0.018,0.013,0.993,-0.122,0.122,-0.183,0.846,1,-132.968
 14:53:45.550,eb:33:2e:f9:57:b5, 2085-97-217 255:24:00:2036,-0.019,0.012,0.994,-0.122,0.183,-0.122,0.846,1.005,-132.968
 14:53:45.577,eb:33:2e:f9:57:b5, 2085-97-215 255:25:00:2035,-0.021,0.012,0.994,0,0.244,-0.061,0.846,1.005,-132.968
 14:53:45.577,eb:33:2e:f9:57:b5, 2085-97-214 255:24:00:2033,-0.021,0.012,0.993,0,0.122,0,0.846,1.005,-132.968
 14:53:45.577,eb:33:2e:f9:57:b5, 2085-97-215 255:26:00:2033,-0.02,0.013,0.992,0,0,0,0.846,1.005,-132.962
 14:53:45.577,eb:33:2e:f9:57:b5, 2085-97-217 255:26:00:2035,-0.02,0.013,0.992,0,0,-0.061,0.846,1.005,-132.962
 14:53:45.608,eb:33:2e:f9:57:b5, 2085-97-215 255:25:00:2034,-0.02,0.012,0.994,0,0,-0.061,0.846,1.005,-132.957
 14:53:45.608,eb:33:2e:f9:57:b5, 2085-97-215 255:25:00:2033,-0.019,0.012,0.993,0,0.122,-0.061,0.846,1.005,-132.957
 14:53:45.608,eb:33:2e:f9:57:b5, 2085-97-217 255:27:00:2032,-0.021,0.014,0.993,0,0.061,-0.061,0.846,1.005,-132.951
 14:53:45.608,eb:33:2e:f9:57:b5, 2085-97-217 255:26:00:2035,-0.02,0.013,0.993,-0.061,0.122,-0.122,0.846,1.005,-132.951
 14:53:45.637,eb:33:2e:f9:57:b5, 2085-97-215 255:24:00:2033,-0.021,0.011,0.993,0,0.305,-0.061,0.846,1.005,-132.946
 14:53:45.638,eb:33:2e:f9:57:b5, 2085-97-212 255:27:00:2031,-0.021,0.013,0.992,0,0.244,-0.183,0.84,1.005,-132.946
 14:53:45.638,eb:33:2e:f9:57:b5, 2085-97-213 255:26:00:2033,-0.021,0.014,0.992,-0.061,0.183,-0.122,0.84,1.005,-132.946
 14:53:45.638,eb:33:2e:f9:57:b5, 2085-97-214 255:26:00:2031,-0.021,0.012,0.993,-0.061,0.061,-0.183,0.84,1.011,-132.946
 14:53:45.668,eb:33:2e:f9:57:b5, 2085-97-213 255:27:00:2035,-0.021,0.013,0.992,-0.061,0,-0.183,0.84,1.011,-132.94
 14:53:45.668,eb:33:2e:f9:57:b5, 2085-97-223 255:28:00:2040,-0.023,0.012,0.994,-0.122,0.061,-0.183,0.84,1.011,-132.94
 14:53:45.668,eb:33:2e:f9:57:b5, 2085-97-212 255:27:00:2031,-0.021,0.012,0.989,-0.122,0.061,-0.183,0.84,1.011,-132.935
 14:53:45.668,eb:33:2e:f9:57:b5, 2085-97-217 255:27:00:2036,-0.019,0.013,0.992,-0.122,0,-0.183,0.84,1.011,-132.935
 14:53:45.728,eb:33:2e:f9:57:b5, 2085-97-216 255:26:00:2035,-0.021,0.013,0.994,-0.122,0.061,-0.183,0.84,1.011,-132.929
 14:53:45.728,eb:33:2e:f9:57:b5, 2085-97-213 255:26:00:2033,-0.021,0.013,0.993,-0.122,0.183,-0.183,0.84,1.011,-132.929
 14:53:45.728,eb:33:2e:f9:57:b5, 2085-97-216 255:25:00:2035,-0.019,0.012,0.993,-0.061,0.122,-0.183,0.84,1.011,-132.929
 14:53:45.728,eb:33:2e:f9:57:b5, 2085-97-215 255:24:00:2035,-0.02,0.011,0.995,-0.061,0.183,-0.061,0.84,1.011,-132.929
 14:53:45.758,eb:33:2e:f9:57:b5, 2085-97-216 255:24:00:2038,-0.021,0.012,0.996,0,0.244,0,0.84,1.011,-132.924
 14:53:45.758,eb:33:2e:f9:57:b5, 2085-97-214 255:25:00:2034,-0.021,0.011,0.994,0,0.183,0.061,0.84,1.016,-132.924
 14:53:45.758,eb:33:2e:f9:57:b5, 2085-97-212 255:24:00:2031,-0.021,0.012,0.992,0,0.183,0,0.84,1.016,-132.918
 14:53:45.758,eb:33:2e:f9:57:b5, 2085-97-214 255:25:00:2033,-0.021,0.012,0.993,0,0,0,0.84,1.016,-132.918
 14:53:45.787,eb:33:2e:f9:57:b5, 2085-97-214 255:27:00:2033,-0.021,0.013,0.993,0,0,0,0.84,1.016,-132.913
 14:53:45.787,eb:33:2e:f9:57:b5, 2085-97-214 255:25:00:2034,-0.021,0.013,0.993,0,0,0,0.84,1.016,-132.913
 14:53:45.787,eb:33:2e:f9:57:b5, 2085-97-213 255:26:00:2034,-0.021,0.012,0.992,-0.061,0,-0.061,0.84,1.016,-132.913
 14:53:45.787,eb:33:2e:f9:57:b5, 2085-97-214 255:25:00:2035,-0.02,0.012,0.993,-0.061,0,-0.061,0.84,1.016,-132.913
 14:53:45.908,eb:33:2e:f9:57:b5, 2085-97-214 255:25:00:2034,-0.021,0.012,0.993,0,0,-0.061,0.84,1.016,-132.907
 14:53:45.908,eb:33:2e:f9:57:b5, 2085-113-58 00:162:229:-6465,-0.02,0.012,0.994,0,0,-0.061,0.835,1.016,-132.907
 14:53:45.908,eb:33:2e:f9:57:b5, 2085-97-214 255:24:00:2034,-0.021,0.012,0.993,0,0.061,-0.061,0.835,1.016,-132.907
 14:53:45.908,eb:33:2e:f9:57:b5, 2085-97-213 255:23:00:2034,-0.021,0.012,0.994,0,0,0,0.835,1.016,-132.902
 14:53:45.910,eb:33:2e:f9:57:b5, 2085-97-212 255:24:00:2035,-0.021,0.012,0.994,0,0,0,0.835,1.022,-132.902
 14:53:45.910,eb:33:2e:f9:57:b5, 2085-97-213 255:24:00:2034,-0.021,0.012,0.993,0,-0.061,0,0.835,1.022,-132.896
 14:53:45.910,eb:33:2e:f9:57:b5, 2085-97-213 255:26:00:2033,-0.021,0.013,0.993,0,-0.061,0,0.835,1.022,-132.896
 14:53:45.910,eb:33:2e:f9:57:b5, 2085-97-216 255:26:00:2033,-0.019,0.013,0.992,0,-0.061,0,0.835,1.022,-132.896
 14:53:45.912,eb:33:2e:f9:57:b5, 2085-97-216 255:25:00:2033,-0.02,0.013,0.993,0,0,-0.122,0.835,1.022,-132.896
 14:53:45.912,eb:33:2e:f9:57:b5, 2085-97-214 255:26:00:2035,-0.021,0.012,0.993,0,0,-0.122,0.835,1.022,-132.891
 14:53:45.912,eb:33:2e:f9:57:b5, 2085-97-216 255:25:00:2037,-0.02,0.013,0.994,0,0,-0.061,0.835,1.022,-132.891
 14:53:45.912,eb:33:2e:f9:57:b5, 2085-97-216 255:23:00:2035,-0.021,0.012,0.995,0,0.061,0,0.835,1.022,-132.885
 14:53:45.998,eb:33:2e:f9:57:b5, 2085-97-213 255:24:00:2033,-0.022,0.012,0.993,0,0.122,0,0.835,1.022,-132.885
 14:53:45.998,eb:33:2e:f9:57:b5, 2085-97-212 255:24:00:2035,-0.021,0.012,0.993,0,0,0,0.835,1.022,-132.88
 14:53:45.998,eb:33:2e:f9:57:b5, 2085-97-213 255:26:00:2033,-0.021,0.013,0.993,0,0,0,0.835,1.027,-132.88
 14:53:45.998,eb:33:2e:f9:57:b5, 2085-97-212 255:26:00:2034,-0.021,0.012,0.992,0,-0.122,0,0.835,1.027,-132.88
 14:53:46.000,eb:33:2e:f9:57:b5, 2085-97-213 255:25:00:2035,-0.021,0.012,0.994,-0.122,-0.061,-0.061,0.835,1.027,-132.88
 14:53:46.000,eb:33:2e:f9:57:b5, 2085-97-214 255:24:00:2034,-0.021,0.012,0.994,-0.061,-0.061,-0.061,0.835,1.027,-132.874
 14:53:46.000,eb:33:2e:f9:57:b5, 2085-97-215 255:25:00:2035,-0.02,0.012,0.993,-0.061,0,-0.122,0.835,1.027,-132.874
 14:53:46.000,eb:33:2e:f9:57:b5, 2085-97-215 255:25:00:2035,-0.021,0.012,0.994,-0.061,0,-0.122,0.835,1.027,-132.869
 14:53:46.028,eb:33:2e:f9:57:b5, 2085-97-214 255:25:00:2034,-0.02,0.013,0.993,-0.061,0,-0.122,0.829,1.027,-132.869
 14:53:46.028,eb:33:2e:f9:57:b5, 2085-97-213 255:24:00:2035,-0.019,0.013,0.994,-0.061,0,-0.122,0.829,1.027,-132.869
 14:53:46.028,eb:33:2e:f9:57:b5, 2085-97-213 255:24:00:2036,-0.024,0.013,0.995,-0.061,0.061,-0.061,0.829,1.027,-132.869
 14:53:46.028,eb:33:2e:f9:57:b5, 2085-97-210 255:24:00:2033,-0.02,0.012,0.991,-0.061,0,-0.061,0.829,1.027,-132.863
 14:53:46.119,eb:33:2e:f9:57:b5, 2085-97-218 255:25:00:2040,-0.019,0.012,0.995,0,-0.183,0,0.829,1.033,-132.863
 14:53:46.119,eb:33:2e:f9:57:b5, 2085-97-212 255:26:00:2032,-0.022,0.013,0.995,0,0,0.061,0.829,1.033,-132.858
 14:53:46.119,eb:33:2e:f9:57:b5, 2085-97-212 255:25:00:2032,-0.02,0.012,0.993,0,-0.122,0.061,0.829,1.033,-132.858
 14:53:46.119,eb:33:2e:f9:57:b5, 2085-97-214 255:27:00:2032,-0.02,0.012,0.992,0,-0.183,0,0.829,1.033,-132.852
 14:53:46.119,eb:33:2e:f9:57:b5, 2085-97-214 255:25:00:2034,-0.021,0.012,0.992,-0.061,-0.183,-0.061,0.829,1.033,-132.852
 14:53:46.119,eb:33:2e:f9:57:b5, 2085-97-215 255:26:00:2033,-0.021,0.012,0.993,-0.061,-0.122,-0.061,0.829,1.033,-132.852
 14:53:46.119,eb:33:2e:f9:57:b5, 2085-97-214 255:26:00:2033,-0.02,0.012,0.993,-0.061,-0.061,-0.122,0.829,1.033,-132.852
 14:53:46.119,eb:33:2e:f9:57:b5, 2085-97-215 255:25:00:2034,-0.02,0.012,0.994,-0.061,-0.061,-0.244,0.829,1.033,-132.847
 14:53:46.177,eb:33:2e:f9:57:b5, 2085-97-215 255:26:00:2035,-0.02,0.012,0.994,-0.122,-0.061,-0.122,0.829,1.033,-132.847
 14:53:46.177,eb:33:2e:f9:57:b5, 2085-97-215 255:26:00:2034,-0.021,0.012,0.994,-0.061,0,-0.122,0.829,1.033,-132.841
 14:53:46.177,eb:33:2e:f9:57:b5, 2085-97-214 255:24:00:2034,-0.021,0.012,0.993,-0.061,0,-0.183,0.829,1.038,-132.841
 14:53:46.177,eb:33:2e:f9:57:b5, 2085-97-213 255:26:00:2034,-0.021,0.012,0.993,-0.061,0,-0.183,0.829,1.038,-132.841
 14:53:46.208,eb:33:2e:f9:57:b5, 2085-97-215 255:25:00:2035,-0.02,0.011,0.994,-0.061,0,-0.122,0.829,1.038,-132.841
 14:53:46.208,eb:33:2e:f9:57:b5, 2085-97-215 255:25:00:2036,-0.02,0.012,0.994,-0.122,0,-0.061,0.829,1.038,-132.836
 14:53:46.208,eb:33:2e:f9:57:b5, 2085-97-214 255:25:00:2035,-0.021,0.012,0.995,0,0,-0.122,0.829,1.038,-132.836
 14:53:46.208,eb:33:2e:f9:57:b5, 2085-97-213 255:25:00:2034,-0.02,0.012,0.994,-0.061,0.122,-0.122,0.829,1.038,-132.83
 14:53:46.239,eb:33:2e:f9:57:b5, 2085-97-215 255:26:00:2035,-0.021,0.013,0.994,-0.061,0.183,-0.122,0.824,1.038,-132.83
 14:53:46.239,eb:33:2e:f9:57:b5, 2085-97-214 255:25:00:2033,-0.021,0.012,0.993,-0.061,0.183,-0.183,0.829,1.038,-132.83
 14:53:46.239,eb:33:2e:f9:57:b5, 2085-97-212 255:25:00:2034,-0.021,0.012,0.993,-0.122,0.183,-0.183,0.824,1.038,-132.83
 14:53:46.239,eb:33:2e:f9:57:b5, 2085-97-213 255:24:00:2034,-0.022,0.012,0.993,-0.183,0.122,-0.183,0.824,1.038,-132.825
 14:53:46.298,eb:33:2e:f9:57:b5, 2085-97-207 255:24:00:2029,-0.016,0.012,0.992,-0.183,0,-0.183,0.824,1.038,-132.825
 14:53:46.298,eb:33:2e:f9:57:b5, 2085-97-209 255:16:00:2027,-0.02,0.011,0.999,-0.183,0.122,-0.122,0.824,1.038,-132.819
 14:53:46.298,eb:33:2e:f9:57:b5, 2085-97-211 255:23:00:2033,-0.021,0.011,0.996,0,0,0,0.824,1.044,-132.819
 14:53:46.298,eb:33:2e:f9:57:b5, 2085-97-212 255:25:00:2034,-0.021,0.012,0.994,0,-0.061,0,0.824,1.044,-132.819
 14:53:46.328,eb:33:2e:f9:57:b5, 2085-97-212 255:24:00:2032,-0.021,0.012,0.993,0,-0.122,0,0.824,1.044,-132.819
 14:53:46.328,eb:33:2e:f9:57:b5, 2085-97-216 255:26:00:2034,-0.02,0.012,0.993,0,-0.183,0,0.824,1.044,-132.814
 14:53:46.328,eb:33:2e:f9:57:b5, 2085-97-215 255:25:00:2034,-0.021,0.012,0.993,-0.061,-0.122,0,0.824,1.044,-132.814
 14:53:46.328,eb:33:2e:f9:57:b5, 2085-97-215 255:25:00:2034,-0.019,0.013,0.993,-0.061,-0.061,-0.061,0.824,1.044,-132.808
 14:53:46.357,eb:33:2e:f9:57:b5, 2085-97-211 255:23:00:2032,-0.021,0.013,0.995,-0.061,0,-0.061,0.824,1.044,-132.808
 14:53:46.357,eb:33:2e:f9:57:b5, 2085-97-215 255:23:00:2034,-0.019,0.011,0.993,-0.061,-0.122,-0.122,0.824,1.044,-132.808
 14:53:46.357,eb:33:2e:f9:57:b5, 2085-97-215 255:23:00:2038,-0.021,0.011,0.994,-0.061,-0.061,0,0.824,1.044,-132.808
 14:53:46.357,eb:33:2e:f9:57:b5, 2085-97-212 255:23:00:2034,-0.02,0.012,0.994,-0.061,-0.061,-0.061,0.824,1.044,-132.803
 14:53:46.419,eb:33:2e:f9:57:b5, 2085-97-215 255:25:00:2036,-0.021,0.012,0.995,0,-0.122,0,0.824,1.044,-132.803
 14:53:46.419,eb:33:2e:f9:57:b5, 2085-97-214 255:24:00:2034,-0.021,0.012,0.994,0,-0.183,0,0.824,1.044,-132.797
 14:53:46.419,eb:33:2e:f9:57:b5, 2085-97-213 255:25:00:2034,-0.021,0.012,0.993,0.061,-0.244,0.061,0.818,1.049,-132.797
 14:53:46.419,eb:33:2e:f9:57:b5, 2085-97-213 255:23:00:2033,-0.02,0.012,0.994,0,-0.183,0,0.818,1.049,-132.797
 14:53:46.449,eb:33:2e:f9:57:b5, 2085-97-214 255:23:00:2032,-0.02,0.013,0.996,0,-0.122,0,0.818,1.049,-132.797
 14:53:46.449,eb:33:2e:f9:57:b5, 2085-97-215 255:24:00:2034,-0.02,0.012,0.994,0,-0.183,0,0.818,1.049,-132.792
 14:53:46.449,eb:33:2e:f9:57:b5, 2085-97-218 255:28:00:2038,-0.021,0.012,0.993,0,-0.122,0.061,0.818,1.049,-132.792
 14:53:46.449,eb:33:2e:f9:57:b5, 2085-97-214 255:25:00:2034,-0.021,0.011,0.993,0,-0.061,0,0.818,1.049,-132.786
 14:53:46.478,eb:33:2e:f9:57:b5, 2085-97-212 255:24:00:2033,-0.021,0.013,0.993,-0.061,-0.061,0,0.818,1.049,-132.786
 14:53:46.478,eb:33:2e:f9:57:b5, 2085-97-214 255:23:00:2033,-0.021,0.011,0.993,-0.061,-0.122,-0.061,0.818,1.049,-132.786
 14:53:46.478,eb:33:2e:f9:57:b5, 2085-97-214 255:24:00:2035,-0.021,0.012,0.993,-0.061,-0.122,-0.061,0.818,1.049,-132.786
 14:53:46.478,eb:33:2e:f9:57:b5, 2085-97-213 255:24:00:2035,-0.021,0.012,0.994,-0.061,-0.122,-0.122,0.818,1.049,-132.781
 14:53:46.538,eb:33:2e:f9:57:b5, 2085-97-216 255:24:00:2036,-0.019,0.012,0.994,-0.061,-0.244,0,0.818,1.049,-132.781
 14:53:46.538,eb:33:2e:f9:57:b5, 2085-97-217 255:22:00:2037,-0.02,0.011,0.995,0,-0.183,0,0.818,1.049,-132.781
 14:53:46.538,eb:33:2e:f9:57:b5, 2085-113-58 00:43:228:-6360,-0.02,0.012,0.994,0,0,0.061,0.818,1.055,-132.781
 14:53:46.538,eb:33:2e:f9:57:b5, 2085-97-214 255:26:00:2036,-0.021,0.011,0.994,0,-0.061,0.122,0.818,1.055,-132.775
 14:53:46.538,eb:33:2e:f9:57:b5, 2085-97-215 255:25:00:2033,-0.02,0.012,0.992,0,-0.183,0,0.818,1.055,-132.775
 14:53:46.571,eb:33:2e:f9:57:b5, 2085-97-217 255:24:00:2036,-0.019,0.012,0.994,0,-0.122,0,0.818,1.055,-132.77
 14:53:46.571,eb:33:2e:f9:57:b5, 2085-97-218 255:24:00:2036,-0.02,0.012,0.994,0.061,0,0,0.818,1.055,-132.77
 14:53:46.571,eb:33:2e:f9:57:b5, 2085-97-213 255:23:00:2034,-0.021,0.011,0.994,0.061,0,0,0.818,1.055,-132.77
 14:53:46.571,eb:33:2e:f9:57:b5, 2085-97-213 255:24:00:2034,-0.021,0.011,0.993,0.122,0,0.244,0.813,1.055,-132.77
 14:53:46.600,eb:33:2e:f9:57:b5, 2085-97-213 255:24:00:2035,-0.021,0.012,0.994,0.122,-0.061,0.183,0.813,1.055,-132.764
 14:53:46.601,eb:33:2e:f9:57:b5, 2085-97-213 255:24:00:2032,-0.021,0.012,0.993,0.061,-0.122,0.183,0.813,1.055,-132.764
 14:53:46.601,eb:33:2e:f9:57:b5, 2085-97-215 255:25:00:2032,-0.02,0.012,0.993,0.061,-0.244,0.061,0.813,1.055,-132.759
 14:53:46.601,eb:33:2e:f9:57:b5, 2085-97-216 255:25:00:2032,-0.02,0.012,0.992,0.061,-0.305,0,0.813,1.055,-132.759
 14:53:46.659,eb:33:2e:f9:57:b5, 2085-97-216 255:26:00:2035,-0.02,0.012,0.994,0,-0.183,0,0.813,1.055,-132.759
 14:53:46.659,eb:33:2e:f9:57:b5, 2085-97-216 255:24:00:2034,-0.02,0.012,0.993,0,-0.183,-0.061,0.813,1.055,-132.759
 14:53:46.659,eb:33:2e:f9:57:b5, 2085-97-215 255:25:00:2033,-0.02,0.012,0.994,0,-0.183,-0.061,0.813,1.055,-132.753
 14:53:46.659,eb:33:2e:f9:57:b5, 2085-97-218 255:23:00:2035,-0.019,0.012,0.993,-0.061,-0.122,-0.061,0.813,1.06,-132.753
 14:53:46.718,eb:33:2e:f9:57:b5, 2085-97-216 255:24:00:2036,-0.02,0.011,0.995,0,-0.122,0,0.813,1.06,-132.753
 14:53:46.718,eb:33:2e:f9:57:b5, 2085-97-216 255:23:00:2035,-0.02,0.012,0.994,0.061,-0.122,0,0.813,1.06,-132.753
 14:53:46.718,eb:33:2e:f9:57:b5, 2085-97-217 255:26:00:2036,-0.021,0.012,0.993,0.061,-0.122,0.061,0.813,1.06,-132.748
 14:53:46.718,eb:33:2e:f9:57:b5, 2085-97-212 255:24:00:2032,-0.02,0.011,0.994,0,-0.061,0,0.813,1.06,-132.748
 14:53:46.720,eb:33:2e:f9:57:b5, 2085-97-216 255:26:00:2033,-0.02,0.013,0.993,0,-0.122,0,0.813,1.06,-132.742
 14:53:46.720,eb:33:2e:f9:57:b5, 2085-97-215 255:26:00:2033,-0.02,0.012,0.992,0,-0.183,0,0.813,1.06,-132.742
 14:53:46.720,eb:33:2e:f9:57:b5, 2085-97-216 255:26:00:2034,-0.02,0.013,0.994,0,-0.183,0,0.813,1.06,-132.742
 14:53:46.720,eb:33:2e:f9:57:b5, 2085-97-214 255:23:00:2033,-0.02,0.012,0.993,0,-0.061,0,0.813,1.06,-132.742
 14:53:46.778,eb:33:2e:f9:57:b5, 2085-97-215 255:24:00:2033,-0.02,0.012,0.994,0,-0.061,0,0.813,1.06,-132.737
 14:53:46.778,eb:33:2e:f9:57:b5, 2085-97-215 255:26:00:2034,-0.02,0.012,0.993,0.061,-0.244,0,0.813,1.06,-132.737
 14:53:46.778,eb:33:2e:f9:57:b5, 2085-97-214 255:25:00:2034,-0.021,0.013,0.992,0,-0.244,0,0.813,1.06,-132.731
 14:53:46.778,eb:33:2e:f9:57:b5, 2085-97-215 255:24:00:2034,-0.02,0.012,0.993,0.061,-0.305,0,0.807,1.06,-132.731
 14:53:46.809,eb:33:2e:f9:57:b5, 2085-97-216 255:25:00:2034,-0.019,0.012,0.994,0,-0.305,0,0.807,1.06,-132.731
 14:53:46.809,eb:33:2e:f9:57:b5, 2085-97-218 255:25:00:2035,-0.019,0.012,0.993,0,-0.244,0,0.807,1.06,-132.731
 14:53:46.809,eb:33:2e:f9:57:b5, 2085-97-218 255:26:00:2035,-0.019,0.013,0.994,0,-0.122,-0.061,0.807,1.06,-132.726
 14:53:46.809,eb:33:2e:f9:57:b5, 2085-97-219 255:26:00:2035,-0.019,0.012,0.994,-0.061,-0.061,-0.122,0.807,1.06,-132.726
 14:53:46.838,eb:33:2e:f9:57:b5, 2085-97-215 255:24:00:2035,-0.02,0.012,0.994,0,0,-0.061,0.807,1.06,-132.726
 14:53:46.838,eb:33:2e:f9:57:b5, 2085-97-216 255:24:00:2036,-0.019,0.012,0.994,0,0,0,0.807,1.06,-132.726
 14:53:46.838,eb:33:2e:f9:57:b5, 2085-97-217 255:22:00:2035,-0.02,0.011,0.994,0,0,0,0.807,1.06,-132.72
 14:53:46.838,eb:33:2e:f9:57:b5, 2085-97-215 255:23:00:2035,-0.02,0.012,0.994,0.061,0,0,0.807,1.066,-132.72
 14:53:46.898,eb:33:2e:f9:57:b5, 2085-97-216 255:24:00:2035,-0.02,0.012,0.993,0.061,-0.061,0.061,0.807,1.066,-132.715
 14:53:46.898,eb:33:2e:f9:57:b5, 2085-97-216 255:24:00:2033,-0.019,0.011,0.993,0.122,-0.061,0.122,0.807,1.066,-132.715
 14:53:46.898,eb:33:2e:f9:57:b5, 2085-97-216 255:25:00:2032,-0.02,0.012,0.993,0.122,-0.061,0.061,0.807,1.066,-132.715
 14:53:46.898,eb:33:2e:f9:57:b5, 2085-97-216 255:24:00:2032,-0.02,0.013,0.993,0.122,-0.061,0.061,0.807,1.066,-132.715
 14:53:46.928,eb:33:2e:f9:57:b5, 2085-97-215 255:26:00:2031,-0.02,0.012,0.992,0.061,-0.183,0.122,0.807,1.066,-132.709
 14:53:46.928,eb:33:2e:f9:57:b5, 2085-97-217 255:26:00:2033,-0.02,0.012,0.992,0,-0.183,0,0.807,1.066,-132.709
 14:53:46.928,eb:33:2e:f9:57:b5, 2085-97-216 255:24:00:2032,-0.019,0.012,0.993,0,-0.183,0,0.807,1.066,-132.709
 14:53:46.928,eb:33:2e:f9:57:b5, 2085-97-216 255:24:00:2034,-0.019,0.012,0.993,0,-0.122,-0.061,0.807,1.066,-132.709
 14:53:46.957,eb:33:2e:f9:57:b5, 2085-97-217 255:25:00:2035,-0.019,0.012,0.993,0,-0.122,-0.061,0.807,1.066,-132.704
 14:53:46.957,eb:33:2e:f9:57:b5, 2085-97-217 255:24:00:2034,-0.02,0.012,0.993,0,0,-0.061,0.807,1.066,-132.704
 14:53:46.957,eb:33:2e:f9:57:b5, 2085-97-217 255:25:00:2035,-0.02,0.012,0.993,0,-0.061,-0.122,0.807,1.066,-132.704
 14:53:46.957,eb:33:2e:f9:57:b5, 2085-97-217 255:23:00:2037,-0.019,0.012,0.994,0,-0.122,-0.122,0.807,1.066,-132.704
 14:53:47.018,eb:33:2e:f9:57:b5, 2085-97-217 255:24:00:2036,-0.02,0.012,0.995,0,-0.061,0,0.807,1.066,-132.698
 14:53:47.018,eb:33:2e:f9:57:b5, 2085-97-216 255:24:00:2034,-0.02,0.012,0.994,0,-0.061,0,0.802,1.066,-132.698
 14:53:47.018,eb:33:2e:f9:57:b5, 2085-97-217 255:25:00:2035,-0.02,0.012,0.993,0.061,-0.061,0.061,0.802,1.066,-132.693
 14:53:47.018,eb:33:2e:f9:57:b5, 2085-97-218 255:24:00:2037,-0.019,0.012,0.994,0.061,-0.061,0.061,0.802,1.066,-132.693
 14:53:47.048,eb:33:2e:f9:57:b5, 2085-97-218 255:24:00:2035,-0.02,0.012,0.994,0.061,-0.061,0.061,0.802,1.066,-132.693
 14:53:47.048,eb:33:2e:f9:57:b5, 2085-97-215 255:24:00:2032,-0.018,0.011,0.993,0.061,-0.061,0,0.802,1.066,-132.693
 14:53:47.048,eb:33:2e:f9:57:b5, 2085-97-221 255:26:00:2036,-0.019,0.013,0.994,0.122,-0.183,0,0.802,1.066,-132.687
 14:53:47.048,eb:33:2e:f9:57:b5, 2085-97-216 255:26:00:2033,-0.02,0.013,0.993,0,0,0,0.802,1.066,-132.687
 14:53:47.079,eb:33:2e:f9:57:b5, 2085-97-215 255:25:00:2033,-0.02,0.012,0.993,0.061,-0.122,0,0.802,1.066,-132.687
 14:53:47.079,eb:33:2e:f9:57:b5, 2085-97-217 255:24:00:2034,-0.019,0.012,0.993,0,-0.061,-0.061,0.802,1.066,-132.687
 14:53:47.079,eb:33:2e:f9:57:b5, 2085-97-216 255:25:00:2035,-0.02,0.012,0.994,0,-0.061,-0.061,0.802,1.066,-132.682
 14:53:47.079,eb:33:2e:f9:57:b5, 2085-97-217 255:24:00:2033,-0.02,0.013,0.994,0,-0.122,0,0.802,1.066,-132.682
 14:53:47.138,eb:33:2e:f9:57:b5, 2085-97-219 255:26:00:2035,-0.019,0.013,0.993,0.061,-0.183,0,0.802,1.071,-132.682
 14:53:47.138,eb:33:2e:f9:57:b5, 2085-97-220 255:26:00:2035,-0.018,0.013,0.994,0.122,-0.061,0,0.802,1.071,-132.682
 14:53:47.138,eb:33:2e:f9:57:b5, 2085-97-219 255:25:00:2034,-0.019,0.012,0.994,0.061,-0.122,0,0.802,1.071,-132.676
 14:53:47.138,eb:33:2e:f9:57:b5, 2085-97-217 255:24:00:2033,-0.019,0.012,0.993,0.122,-0.061,0,0.802,1.071,-132.676
 14:53:47.168,eb:33:2e:f9:57:b5, 2085-97-218 255:26:00:2035,-0.019,0.012,0.993,0.061,-0.122,0,0.802,1.071,-132.671
 14:53:47.168,eb:33:2e:f9:57:b5, 2085-97-218 255:24:00:2037,-0.019,0.012,0.994,0.122,-0.061,0.061,0.802,1.071,-132.671
 14:53:47.168,eb:33:2e:f9:57:b5, 2085-97-218 255:26:00:2036,-0.018,0.013,0.995,0.183,-0.061,0.122,0.802,1.071,-132.671
 14:53:47.168,eb:33:2e:f9:57:b5, 2085-97-218 255:26:00:2034,-0.018,0.013,0.994,0.122,0,0.122,0.802,1.071,-132.671
 14:53:47.198,eb:33:2e:f9:57:b5, 2085-97-217 255:25:00:2034,-0.02,0.012,0.993,0.122,0,0.061,0.802,1.071,-132.665
 14:53:47.198,eb:33:2e:f9:57:b5, 2085-97-217 255:27:00:2033,-0.018,0.014,0.993,0.122,0.061,0.061,0.802,1.071,-132.665
 14:53:47.198,eb:33:2e:f9:57:b5, 2085-97-218 255:26:00:2033,-0.019,0.013,0.993,0,0.061,0,0.802,1.071,-132.665
 14:53:47.198,eb:33:2e:f9:57:b5, 2085-97-218 255:25:00:2034,-0.02,0.012,0.993,0,0.061,0,0.802,1.071,-132.665
 14:53:47.258,eb:33:2e:f9:57:b5, 2085-97-215 255:26:00:2032,-0.02,0.012,0.993,0.061,0,0,0.802,1.071,-132.66
 14:53:47.258,eb:33:2e:f9:57:b5, 2085-97-216 255:24:00:2034,-0.02,0.011,0.993,0,-0.061,0,0.802,1.071,-132.66
 14:53:47.258,eb:33:2e:f9:57:b5, 2085-97-217 255:25:00:2035,-0.019,0.013,0.993,0,-0.061,0,0.802,1.071,-132.66
 14:53:47.258,eb:33:2e:f9:57:b5, 2085-97-218 255:26:00:2035,-0.019,0.013,0.995,0.061,0,0.061,0.802,1.071,-132.66
 14:53:47.287,eb:33:2e:f9:57:b5, 2085-97-218 255:25:00:2035,-0.019,0.012,0.994,0.122,0,0.061,0.802,1.071,-132.654
 14:53:47.287,eb:33:2e:f9:57:b5, 2085-97-216 255:26:00:2034,-0.02,0.012,0.994,0.122,0,0.122,0.797,1.071,-132.654
 14:53:47.287,eb:33:2e:f9:57:b5, 2085-97-217 255:26:00:2034,-0.021,0.013,0.993,0.061,0,0.061,0.797,1.071,-132.654
 14:53:47.287,eb:33:2e:f9:57:b5, 2085-97-222 255:26:00:2040,-0.018,0.012,0.993,0.122,-0.061,0,0.797,1.071,-132.654
 14:53:47.317,eb:33:2e:f9:57:b5, 2085-97-216 255:25:00:2034,-0.019,0.012,0.995,0.122,0.122,0.061,0.797,1.071,-132.649
 14:53:47.317,eb:33:2e:f9:57:b5, 2085-97-217 255:26:00:2033,-0.02,0.013,0.993,0.122,0.061,0,0.797,1.071,-132.649
 14:53:47.317,eb:33:2e:f9:57:b5, 2085-97-218 255:25:00:2035,-0.019,0.012,0.993,0.122,0,0,0.797,1.071,-132.643
 14:53:47.317,eb:33:2e:f9:57:b5, 2085-97-216 255:25:00:2032,-0.021,0.012,0.994,0.183,0.061,0.061,0.797,1.071,-132.643
 14:53:47.378,eb:33:2e:f9:57:b5, 2085-97-216 255:27:00:2033,-0.02,0.013,0.992,0.122,0,0.061,0.797,1.071,-132.643
 14:53:47.378,eb:33:2e:f9:57:b5, 2085-97-218 255:27:00:2033,-0.019,0.014,0.992,0.122,0,0.061,0.797,1.071,-132.643
 14:53:47.378,eb:33:2e:f9:57:b5, 2085-97-216 255:26:00:2035,-0.018,0.014,0.994,0.061,0.061,0.061,0.797,1.071,-132.638
 14:53:47.378,eb:33:2e:f9:57:b5, 2085-97-217 255:26:00:2035,-0.019,0.013,0.995,0.122,0.061,0.061,0.797,1.071,-132.638
 14:53:47.408,eb:33:2e:f9:57:b5, 2085-97-216 255:26:00:2033,-0.019,0.013,0.993,0.061,0.061,0,0.797,1.071,-132.638
 14:53:47.408,eb:33:2e:f9:57:b5, 2085-97-217 255:27:00:2035,-0.02,0.013,0.993,0.122,0,0,0.797,1.071,-132.638
 14:53:47.408,eb:33:2e:f9:57:b5, 2085-97-214 255:27:00:2034,-0.02,0.013,0.993,0.183,0.061,0.061,0.797,1.071,-132.632
 14:53:47.408,eb:33:2e:f9:57:b5, 2085-113-58 00:43:228:-6150,-0.019,0.013,0.994,0.122,0,0,0.797,1.071,-132.632
 14:53:47.438,eb:33:2e:f9:57:b5, 2085-97-218 255:27:00:2036,-0.018,0.013,0.994,0.061,0,0.061,0.797,1.071,-132.632
 14:53:47.438,eb:33:2e:f9:57:b5, 2085-97-219 255:28:00:2035,-0.018,0.013,0.994,0.061,0,0.061,0.797,1.071,-132.632
 14:53:47.438,eb:33:2e:f9:57:b5, 2085-97-212 255:27:00:2027,-0.019,0.013,0.996,0.122,0.183,0,0.797,1.071,-132.632
 14:53:47.438,eb:33:2e:f9:57:b5, 2085-97-215 255:26:00:2033,-0.019,0.015,0.994,0.061,0.122,0,0.797,1.071,-132.627
 14:53:47.500,eb:33:2e:f9:57:b5, 2085-97-218 255:28:00:2035,-0.02,0.013,0.994,0,0.061,0,0.797,1.071,-132.627
 14:53:47.500,eb:33:2e:f9:57:b5, 2085-97-218 255:26:00:2035,-0.019,0.013,0.993,0.061,0.122,0,0.797,1.071,-132.627
 14:53:47.500,eb:33:2e:f9:57:b5, 2085-97-216 255:27:00:2036,-0.02,0.013,0.994,0.122,0.122,0,0.797,1.071,-132.627
 14:53:47.500,eb:33:2e:f9:57:b5, 2085-97-217 255:26:00:2034,-0.02,0.013,0.993,0.183,0.122,0.122,0.797,1.071,-132.621
 14:53:47.527,eb:33:2e:f9:57:b5, 2085-97-215 255:27:00:2035,-0.02,0.013,0.993,0.122,0.122,0,0.797,1.071,-132.621
 14:53:47.527,eb:33:2e:f9:57:b5, 2085-97-216 255:27:00:2033,-0.019,0.014,0.993,0.061,0.061,0.061,0.797,1.077,-132.621
 14:53:47.527,eb:33:2e:f9:57:b5, 2085-97-215 255:26:00:2033,-0.02,0.014,0.993,0.061,0,0,0.797,1.077,-132.621
 14:53:47.527,eb:33:2e:f9:57:b5, 2085-97-216 255:27:00:2035,-0.02,0.013,0.994,0,0.061,-0.061,0.797,1.077,-132.616
 14:53:47.587,eb:33:2e:f9:57:b5, 2085-97-215 255:25:00:2035,-0.019,0.013,0.994,0.061,0,0,0.797,1.077,-132.616
 14:53:47.587,eb:33:2e:f9:57:b5, 2085-97-216 255:28:00:2035,-0.02,0.014,0.994,0.122,0,0.061,0.797,1.077,-132.616
 14:53:47.587,eb:33:2e:f9:57:b5, 2085-97-213 255:27:00:2032,-0.017,0.014,0.994,0.183,0,0.061,0.797,1.077,-132.616
 14:53:47.587,eb:33:2e:f9:57:b5, 2085-97-215 255:28:00:2030,-0.02,0.014,0.996,0.183,0.122,0,0.797,1.077,-132.61
 14:53:47.617,eb:33:2e:f9:57:b5, 2085-97-215 255:30:00:2030,-0.02,0.015,0.992,0.061,0,0,0.797,1.077,-132.61
 14:53:47.617,eb:33:2e:f9:57:b5, 2085-97-216 255:28:00:2033,-0.02,0.014,0.992,0,0,0,0.797,1.077,-132.61
 14:53:47.617,eb:33:2e:f9:57:b5, 2085-97-217 255:28:00:2034,-0.019,0.014,0.994,0,0.061,-0.122,0.797,1.077,-132.61
 14:53:47.617,eb:33:2e:f9:57:b5, 2085-97-216 255:27:00:2034,-0.02,0.014,0.994,0,0.061,-0.122,0.797,1.077,-132.605
 14:53:47.647,eb:33:2e:f9:57:b5, 2085-97-216 255:27:00:2033,-0.02,0.014,0.993,0.061,0,-0.122,0.797,1.077,-132.605
 14:53:47.647,eb:33:2e:f9:57:b5, 2085-97-216 255:27:00:2035,-0.019,0.014,0.994,0,0,-0.061,0.797,1.077,-132.605
 14:53:47.647,eb:33:2e:f9:57:b5, 2085-97-215 255:27:00:2035,-0.02,0.013,0.994,0.122,0,0,0.797,1.077,-132.605
 14:53:47.647,eb:33:2e:f9:57:b5, 2085-97-217 255:25:00:2035,-0.019,0.013,0.994,0.122,0,0,0.797,1.077,-132.599
 14:53:47.678,eb:33:2e:f9:57:b5, 2085-97-217 255:28:00:2034,-0.02,0.013,0.993,0.183,0,0,0.797,1.077,-132.599
 14:53:47.678,eb:33:2e:f9:57:b5, 2085-97-216 255:27:00:2035,-0.02,0.014,0.993,0.183,0.122,0.061,0.797,1.077,-132.599
 14:53:47.678,eb:33:2e:f9:57:b5, 2085-97-216 255:28:00:2033,-0.02,0.014,0.993,0.122,0.122,0.122,0.797,1.077,-132.599
 14:53:47.678,eb:33:2e:f9:57:b5, 2085-97-215 255:29:00:2032,-0.021,0.014,0.993,0.122,0.122,0.061,0.797,1.077,-132.594
 14:53:47.770,eb:33:2e:f9:57:b5, 2085-97-213 255:28:00:2033,-0.021,0.014,0.992,0.061,0,0,0.797,1.077,-132.594
 14:53:47.770,eb:33:2e:f9:57:b5, 2085-97-215 255:28:00:2033,-0.02,0.014,0.992,0,0,0,0.797,1.077,-132.594
 14:53:47.771,eb:33:2e:f9:57:b5, 2085-97-214 255:30:00:2032,-0.02,0.014,0.993,0,-0.061,0,0.797,1.077,-132.594
 14:53:47.771,eb:33:2e:f9:57:b5, 2085-97-218 255:26:00:2036,-0.019,0.014,0.993,0,-0.122,0,0.797,1.077,-132.589
 14:53:47.771,eb:33:2e:f9:57:b5, 2085-97-216 255:29:00:2033,-0.02,0.013,0.994,0,-0.122,0,0.797,1.077,-132.589
 14:53:47.771,eb:33:2e:f9:57:b5, 2085-97-215 255:26:00:2033,-0.021,0.014,0.992,0,-0.122,0.061,0.797,1.077,-132.589
 14:53:47.771,eb:33:2e:f9:57:b5, 2085-97-214 255:28:00:2033,-0.02,0.013,0.993,0.061,-0.122,0,0.797,1.082,-132.589
 14:53:47.771,eb:33:2e:f9:57:b5, 2085-97-216 255:30:00:2032,-0.02,0.014,0.993,0,-0.122,0,0.797,1.082,-132.583
 14:53:47.799,eb:33:2e:f9:57:b5, 2085-97-215 255:29:00:2031,-0.02,0.014,0.992,0,-0.183,0,0.797,1.082,-132.583
 14:53:47.799,eb:33:2e:f9:57:b5, 2085-97-216 255:28:00:2033,-0.02,0.014,0.993,0,-0.122,-0.061,0.797,1.082,-132.583
 14:53:47.799,eb:33:2e:f9:57:b5, 2085-97-218 255:28:00:2037,-0.018,0.014,0.994,0,-0.122,0,0.797,1.082,-132.583
 14:53:47.799,eb:33:2e:f9:57:b5, 2085-97-219 255:26:00:2039,-0.019,0.013,0.996,0.061,0,0,0.797,1.082,-132.578
 14:53:47.858,eb:33:2e:f9:57:b5, 2085-97-217 255:27:00:2035,-0.02,0.013,0.995,0.122,0,0.122,0.797,1.082,-132.578
 14:53:47.858,eb:33:2e:f9:57:b5, 2085-97-214 255:28:00:2032,-0.021,0.014,0.993,0.183,-0.122,0.183,0.797,1.082,-132.578
 14:53:47.858,eb:33:2e:f9:57:b5, 2085-97-216 255:29:00:2034,-0.02,0.014,0.993,0.122,-0.183,0.183,0.797,1.082,-132.578
 14:53:47.858,eb:33:2e:f9:57:b5, 2085-97-219 255:26:00:2038,-0.022,0.013,0.994,0.122,-0.122,0.183,0.797,1.082,-132.572
 14:53:47.888,eb:33:2e:f9:57:b5, 2085-97-216 255:30:00:2033,-0.019,0.013,0.994,0.061,-0.061,0.061,0.797,1.082,-132.572
 14:53:47.888,eb:33:2e:f9:57:b5, 2085-97-215 255:29:00:2033,-0.02,0.015,0.993,0.061,-0.122,0.061,0.797,1.082,-132.572
 14:53:47.888,eb:33:2e:f9:57:b5, 2085-97-217 255:30:00:2036,-0.018,0.014,0.993,0.061,-0.122,0,0.797,1.082,-132.572
 14:53:47.888,eb:33:2e:f9:57:b5, 2085-97-217 255:28:00:2035,-0.019,0.014,0.993,0.061,-0.061,0,0.797,1.082,-132.567
 14:53:47.949,eb:33:2e:f9:57:b5, 2085-97-216 255:28:00:2033,-0.02,0.014,0.993,0.061,0.061,0,0.797,1.082,-132.567
 14:53:47.949,eb:33:2e:f9:57:b5, 2085-97-216 255:29:00:2033,-0.02,0.014,0.992,0,0,0,0.797,1.082,-132.567
 14:53:47.949,eb:33:2e:f9:57:b5, 2085-97-215 255:28:00:2035,-0.02,0.014,0.993,0,-0.061,0,0.797,1.082,-132.567
 14:53:47.949,eb:33:2e:f9:57:b5, 2085-97-216 255:29:00:2034,-0.02,0.014,0.994,0,-0.122,0,0.797,1.082,-132.561
 14:53:47.979,eb:33:2e:f9:57:b5, 2085-97-218 255:29:00:2038,-0.018,0.014,0.994,0.061,-0.061,0.061,0.797,1.082,-132.567
 14:53:47.979,eb:33:2e:f9:57:b5, 2085-97-215 255:28:00:2034,-0.019,0.015,0.996,0.122,0,0,0.797,1.082,-132.561
 14:53:47.979,eb:33:2e:f9:57:b5, 2085-97-216 255:29:00:2033,-0.019,0.014,0.994,0.122,0,0.061,0.797,1.082,-132.561
 14:53:47.979,eb:33:2e:f9:57:b5, 2085-97-214 255:29:00:2033,-0.02,0.014,0.993,0.122,-0.061,0.061,0.797,1.082,-132.561
 14:53:48.039,eb:33:2e:f9:57:b5, 2085-97-215 255:29:00:2035,-0.021,0.014,0.993,0.061,-0.122,0,0.797,1.082,-132.561
 14:53:48.039,eb:33:2e:f9:57:b5, 2085-97-217 255:29:00:2034,-0.019,0.014,0.992,0.061,-0.183,0,0.797,1.082,-132.556
 14:53:48.039,eb:33:2e:f9:57:b5, 2085-97-217 255:27:00:2035,-0.019,0.014,0.994,0.061,-0.061,0,0.797,1.082,-132.556
 14:53:48.039,eb:33:2e:f9:57:b5, 2085-97-218 255:29:00:2037,-0.019,0.013,0.994,0,0,0,0.797,1.082,-132.556
 14:53:48.068,eb:33:2e:f9:57:b5, 2085-97-217 255:29:00:2037,-0.02,0.014,0.994,0.061,0,0.061,0.802,1.082,-132.556
 14:53:48.068,eb:33:2e:f9:57:b5, 2085-97-216 255:30:00:2033,-0.02,0.015,0.993,0.122,-0.061,0,0.802,1.082,-132.55
 14:53:48.068,eb:33:2e:f9:57:b5, 2085-97-215 255:30:00:2032,-0.02,0.014,0.992,0.061,-0.061,0,0.802,1.082,-132.55
 14:53:48.068,eb:33:2e:f9:57:b5, 2085-97-215 255:29:00:2035,-0.019,0.015,0.993,0,-0.061,-0.061,0.802,1.088,-132.55
 14:53:48.068,eb:33:2e:f9:57:b5, 2085-97-217 255:29:00:2036,-0.018,0.015,0.994,0,-0.122,-0.061,0.802,1.088,-132.55
 14:53:48.101,eb:33:2e:f9:57:b5, 2085-113-58 00:103:228:-6555,-0.019,0.014,0.995,0.061,-0.061,0,0.802,1.088,-132.545
 14:53:48.101,eb:33:2e:f9:57:b5, 2085-97-218 255:28:00:2035,-0.019,0.014,0.995,0.061,0,-0.061,0.802,1.088,-132.545
 14:53:48.101,eb:33:2e:f9:57:b5, 2085-97-217 255:29:00:2033,-0.02,0.014,0.994,0.122,0,0,0.802,1.088,-132.545
 14:53:48.101,eb:33:2e:f9:57:b5, 2085-97-216 255:29:00:2035,-0.02,0.014,0.994,0.122,0,0,0.802,1.088,-132.545
 14:53:48.129,eb:33:2e:f9:57:b5, 2085-97-216 255:29:00:2033,-0.019,0.014,0.993,0.061,-0.061,0,0.802,1.088,-132.539
 14:53:48.129,eb:33:2e:f9:57:b5, 2085-97-217 255:30:00:2034,-0.02,0.015,0.993,0.061,-0.061,0,0.802,1.088,-132.539
 14:53:48.129,eb:33:2e:f9:57:b5, 2085-97-216 255:30:00:2034,-0.019,0.014,0.994,0.061,0,0,0.802,1.088,-132.539
 14:53:48.129,eb:33:2e:f9:57:b5, 2085-97-217 255:29:00:2035,-0.02,0.015,0.993,0.061,-0.061,0,0.802,1.088,-132.539
 14:53:48.188,eb:33:2e:f9:57:b5, 2085-97-220 255:29:00:2038,-0.02,0.014,0.993,0,0,0,0.802,1.088,-132.534
 14:53:48.188,eb:33:2e:f9:57:b5, 2085-97-216 255:31:00:2034,-0.02,0.014,0.992,0,0,0,0.802,1.088,-132.534
 14:53:48.188,eb:33:2e:f9:57:b5, 2085-97-218 255:29:00:2034,-0.02,0.014,0.992,0,0,0,0.802,1.088,-132.534
 14:53:48.188,eb:33:2e:f9:57:b5, 2085-97-216 255:29:00:2036,-0.02,0.014,0.994,0,0,0,0.802,1.088,-132.534
 14:53:48.219,eb:33:2e:f9:57:b5, 2085-97-214 255:29:00:2033,-0.019,0.014,0.994,0.061,0,0,0.802,1.088,-132.534
 14:53:48.219,eb:33:2e:f9:57:b5, 2085-97-218 255:28:00:2034,-0.02,0.014,0.994,0.061,-0.061,0.061,0.802,1.088,-132.534
 14:53:48.219,eb:33:2e:f9:57:b5, 2085-97-216 255:30:00:2034,-0.02,0.015,0.993,0.061,-0.061,0.061,0.802,1.088,-132.528
 14:53:48.219,eb:33:2e:f9:57:b5, 2085-97-216 255:30:00:2033,-0.02,0.015,0.993,0.061,-0.061,0.061,0.802,1.088,-132.528
 14:53:48.249,eb:33:2e:f9:57:b5, 2085-97-215 255:28:00:2034,-0.02,0.015,0.993,0.061,-0.061,0.061,0.802,1.088,-132.528
 14:53:48.249,eb:33:2e:f9:57:b5, 2085-97-216 255:33:00:2033,-0.019,0.015,0.992,0,-0.061,0,0.802,1.088,-132.528
 14:53:48.249,eb:33:2e:f9:57:b5, 2085-97-216 255:29:00:2034,-0.019,0.015,0.993,0,-0.061,0,0.802,1.088,-132.523
 14:53:48.249,eb:33:2e:f9:57:b5, 2085-97-216 255:29:00:2034,-0.019,0.014,0.993,0,-0.122,-0.061,0.802,1.088,-132.523
 14:53:48.309,eb:33:2e:f9:57:b5, 2085-97-216 255:29:00:2036,-0.019,0.015,0.994,0,-0.122,0,0.802,1.088,-132.523
 14:53:48.309,eb:33:2e:f9:57:b5, 2085-97-218 255:29:00:2036,-0.02,0.015,0.994,0,0,0,0.802,1.088,-132.523
 14:53:48.309,eb:33:2e:f9:57:b5, 2085-97-213 255:28:00:2035,-0.021,0.014,0.994,0.061,0,0.061,0.802,1.088,-132.517
 14:53:48.309,eb:33:2e:f9:57:b5, 2085-97-216 255:29:00:2034,-0.02,0.015,0.993,0.061,-0.061,0.061,0.802,1.088,-132.517
 14:53:48.338,eb:33:2e:f9:57:b5, 2085-97-214 255:31:00:2032,-0.02,0.015,0.992,0,-0.122,0,0.802,1.088,-132.517
 14:53:48.338,eb:33:2e:f9:57:b5, 2085-97-216 255:29:00:2033,-0.019,0.014,0.993,0,-0.183,0,0.802,1.088,-132.517
 14:53:48.338,eb:33:2e:f9:57:b5, 2085-97-217 255:30:00:2035,-0.019,0.015,0.992,0,-0.061,-0.122,0.802,1.088,-132.517
 14:53:48.338,eb:33:2e:f9:57:b5, 2085-97-219 255:30:00:2039,-0.018,0.015,0.994,0,0,-0.122,0.802,1.088,-132.517
 14:53:48.369,eb:33:2e:f9:57:b5, 2085-97-218 255:29:00:2039,-0.019,0.014,0.995,0,0.061,0,0.802,1.088,-132.512
 14:53:48.369,eb:33:2e:f9:57:b5, 2085-97-215 255:28:00:2036,-0.021,0.015,0.995,0,0.183,-0.061,0.802,1.088,-132.512
 14:53:48.369,eb:33:2e:f9:57:b5, 2085-97-215 255:28:00:2033,-0.02,0.014,0.993,0,0,0,0.802,1.088,-132.512
 14:53:48.369,eb:33:2e:f9:57:b5, 2085-97-216 255:31:00:2036,-0.02,0.015,0.994,0,0,0.061,0.802,1.088,-132.512
 14:53:48.428,eb:33:2e:f9:57:b5, 2085-97-215 255:32:00:2035,-0.019,0.016,0.992,0,0,0,0.802,1.088,-132.506
 14:53:48.428,eb:33:2e:f9:57:b5, 2085-97-218 255:30:00:2033,-0.019,0.015,0.992,0,0,-0.061,0.807,1.088,-132.506
 14:53:48.428,eb:33:2e:f9:57:b5, 2085-97-218 255:32:00:2034,-0.019,0.014,0.993,0,0,-0.061,0.807,1.093,-132.506
 14:53:48.428,eb:33:2e:f9:57:b5, 2085-97-217 255:29:00:2035,-0.02,0.015,0.993,0,0.061,-0.061,0.807,1.093,-132.506
 14:53:48.458,eb:33:2e:f9:57:b5, 2085-97-216 255:28:00:2032,-0.02,0.015,0.994,0,0.183,-0.061,0.807,1.093,-132.501
 14:53:48.458,eb:33:2e:f9:57:b5, 2085-97-215 255:30:00:2033,-0.021,0.015,0.992,0,0.061,0,0.807,1.093,-132.501
 14:53:48.458,eb:33:2e:f9:57:b5, 2085-97-215 255:30:00:2033,-0.021,0.015,0.992,0,0.061,0,0.807,1.093,-132.501
 14:53:48.458,eb:33:2e:f9:57:b5, 2085-97-215 255:30:00:2034,-0.02,0.015,0.993,0,-0.061,0.061,0.807,1.093,-132.501
 14:53:48.487,eb:33:2e:f9:57:b5, 2085-97-215 255:30:00:2033,-0.021,0.015,0.993,0,-0.122,0,0.807,1.093,-132.501
 14:53:48.487,eb:33:2e:f9:57:b5, 2085-97-216 255:32:00:2035,-0.019,0.016,0.993,0,-0.183,0,0.807,1.093,-132.501
 14:53:48.487,eb:33:2e:f9:57:b5, 2085-97-217 255:30:00:2036,-0.019,0.015,0.994,0,0,-0.061,0.807,1.093,-132.495
 14:53:48.487,eb:33:2e:f9:57:b5, 2085-97-215 255:28:00:2034,-0.02,0.014,0.995,0,0,0,0.807,1.093,-132.495
 14:53:48.548,eb:33:2e:f9:57:b5, 2085-97-217 255:30:00:2033,-0.019,0.014,0.994,0,-0.061,0,0.807,1.093,-132.495
 14:53:48.548,eb:33:2e:f9:57:b5, 2085-97-217 255:30:00:2034,-0.019,0.015,0.993,0.061,-0.061,0,0.807,1.093,-132.495
 14:53:48.548,eb:33:2e:f9:57:b5, 2085-97-216 255:30:00:2033,-0.019,0.015,0.993,0,-0.122,0,0.807,1.093,-132.49
 14:53:48.548,eb:33:2e:f9:57:b5, 2085-97-217 255:29:00:2033,-0.019,0.014,0.993,0,-0.183,0,0.807,1.093,-132.49
 14:53:48.582,eb:33:2e:f9:57:b5, 2085-97-216 255:30:00:2034,-0.019,0.015,0.994,0,-0.183,0,0.807,1.093,-132.49
 14:53:48.582,eb:33:2e:f9:57:b5, 2085-97-216 255:31:00:2035,-0.019,0.015,0.993,0,-0.244,0,0.807,1.093,-132.49
 14:53:48.582,eb:33:2e:f9:57:b5, 2085-97-220 255:31:00:2035,-0.019,0.015,0.993,0,-0.183,0,0.807,1.093,-132.484
 14:53:48.582,eb:33:2e:f9:57:b5, 2085-97-212 255:29:00:2026,-0.021,0.015,0.994,0,0,0,0.807,1.093,-132.484
 14:53:48.607,eb:33:2e:f9:57:b5, 2085-97-214 255:32:00:2032,-0.019,0.015,0.99,0,-0.366,-0.122,0.807,1.093,-132.484
 14:53:48.607,eb:33:2e:f9:57:b5, 2085-97-221 255:32:00:2036,-0.019,0.016,0.994,-0.061,-0.366,-0.122,0.807,1.093,-132.484
 14:53:48.607,eb:33:2e:f9:57:b5, 2085-97-217 255:30:00:2037,-0.018,0.016,0.993,-0.061,-0.244,-0.122,0.807,1.093,-132.484
 14:53:48.607,eb:33:2e:f9:57:b5, 2085-97-219 255:29:00:2038,-0.018,0.015,0.995,0,-0.122,-0.183,0.807,1.093,-132.484
 14:53:48.698,eb:33:2e:f9:57:b5, 2085-97-220 255:30:00:2039,-0.019,0.015,0.995,0,0,-0.061,0.807,1.093,-132.479
 14:53:48.698,eb:33:2e:f9:57:b5, 2085-113-58 00:28:228:-6495,-0.019,0.014,0.994,0.061,-0.122,0,0.807,1.093,-132.479
 14:53:48.698,eb:33:2e:f9:57:b5, 2085-97-219 255:29:00:2037,-0.019,0.015,0.994,0.061,-0.122,0,0.807,1.093,-132.479
 14:53:48.698,eb:33:2e:f9:57:b5, 2085-97-218 255:30:00:2034,-0.019,0.015,0.994,0,0,0.061,0.807,1.093,-132.479
 14:53:48.700,eb:33:2e:f9:57:b5, 2085-97-219 255:31:00:2035,-0.019,0.014,0.993,0.061,0.061,0.061,0.807,1.093,-132.479
 14:53:48.700,eb:33:2e:f9:57:b5, 2085-97-218 255:28:00:2032,-0.019,0.015,0.993,0,0.122,0,0.807,1.093,-132.473
 14:53:48.700,eb:33:2e:f9:57:b5, 2085-97-217 255:31:00:2033,-0.02,0.015,0.992,0,0.183,0,0.807,1.093,-132.473
 14:53:48.700,eb:33:2e:f9:57:b5, 2085-97-215 255:31:00:2032,-0.019,0.015,0.993,-0.061,0.122,-0.061,0.807,1.093,-132.473
 14:53:48.728,eb:33:2e:f9:57:b5, 2085-97-216 255:30:00:2034,-0.019,0.015,0.992,-0.122,0.122,-0.122,0.813,1.093,-132.473
 14:53:48.728,eb:33:2e:f9:57:b5, 2085-97-217 255:31:00:2034,-0.02,0.015,0.993,-0.183,0.183,-0.183,0.813,1.093,-132.473
 14:53:48.728,eb:33:2e:f9:57:b5, 2085-97-217 255:30:00:2033,-0.019,0.015,0.993,-0.122,0.183,-0.244,0.813,1.093,-132.473
 14:53:48.728,eb:33:2e:f9:57:b5, 2085-97-216 255:29:00:2033,-0.018,0.014,0.993,-0.183,0.183,-0.183,0.813,1.093,-132.468
 14:53:48.788,eb:33:2e:f9:57:b5, 2085-97-218 255:31:00:2035,-0.019,0.014,0.994,-0.183,0.122,-0.183,0.813,1.093,-132.468
 14:53:48.788,eb:33:2e:f9:57:b5, 2085-97-216 255:30:00:2035,-0.02,0.015,0.993,-0.122,0.122,-0.183,0.813,1.093,-132.468
 14:53:48.788,eb:33:2e:f9:57:b5, 2085-97-215 255:30:00:2034,-0.02,0.015,0.993,-0.122,0.122,-0.244,0.813,1.093,-132.468
 14:53:48.788,eb:33:2e:f9:57:b5, 2085-97-216 255:28:00:2034,-0.02,0.014,0.993,-0.122,0.061,-0.244,0.813,1.093,-132.462
 14:53:48.818,eb:33:2e:f9:57:b5, 2085-97-217 255:30:00:2036,-0.019,0.014,0.994,-0.122,0.122,-0.244,0.813,1.093,-132.462
 14:53:48.818,eb:33:2e:f9:57:b5, 2085-97-216 255:29:00:2036,-0.021,0.014,0.994,-0.122,0.122,-0.183,0.813,1.093,-132.462
 14:53:48.818,eb:33:2e:f9:57:b5, 2085-97-216 255:29:00:2034,-0.019,0.014,0.993,-0.061,0,-0.122,0.813,1.093,-132.462
 14:53:48.818,eb:33:2e:f9:57:b5, 2085-97-217 255:29:00:2035,-0.02,0.014,0.994,-0.122,0,-0.061,0.813,1.093,-132.462
 14:53:48.847,eb:33:2e:f9:57:b5, 2085-97-216 255:29:00:2034,-0.019,0.015,0.993,-0.122,0.122,-0.122,0.813,1.093,-132.462
 14:53:48.847,eb:33:2e:f9:57:b5, 2085-97-216 255:30:00:2034,-0.019,0.014,0.993,-0.061,0.122,-0.061,0.813,1.093,-132.457
 14:53:48.847,eb:33:2e:f9:57:b5, 2085-97-217 255:28:00:2034,-0.019,0.014,0.993,-0.122,0,-0.061,0.813,1.093,-132.457
 14:53:48.847,eb:33:2e:f9:57:b5, 2085-97-219 255:29:00:2036,-0.017,0.014,0.993,-0.061,0.061,-0.122,0.813,1.093,-132.457
 14:53:48.907,eb:33:2e:f9:57:b5, 2085-97-214 255:28:00:2033,-0.022,0.015,0.995,-0.122,0.183,-0.122,0.813,1.093,-132.457
 14:53:48.907,eb:33:2e:f9:57:b5, 2085-97-213 255:29:00:2032,-0.02,0.014,0.99,-0.061,-0.061,-0.183,0.813,1.093,-132.451
 14:53:48.907,eb:33:2e:f9:57:b5, 2085-97-216 255:29:00:2032,-0.019,0.015,0.994,-0.183,-0.061,-0.183,0.813,1.093,-132.451
 14:53:48.907,eb:33:2e:f9:57:b5, 2085-97-219 255:28:00:2038,-0.018,0.014,0.995,-0.061,-0.061,-0.183,0.813,1.093,-132.451
 14:53:48.937,eb:33:2e:f9:57:b5, 2085-97-219 255:29:00:2038,-0.019,0.014,0.995,-0.061,0,0,0.813,1.093,-132.451
 14:53:48.937,eb:33:2e:f9:57:b5, 2085-97-215 255:29:00:2034,-0.021,0.014,0.994,0,0.122,0,0.813,1.093,-132.451
 14:53:48.937,eb:33:2e:f9:57:b5, 2085-97-215 255:28:00:2033,-0.02,0.014,0.993,-0.061,0,0,0.813,1.093,-132.451
 14:53:48.937,eb:33:2e:f9:57:b5, 2085-97-215 255:29:00:2034,-0.02,0.014,0.993,0,-0.061,0,0.813,1.093,-132.446
 14:53:48.968,eb:33:2e:f9:57:b5, 2085-97-214 255:29:00:2032,-0.021,0.015,0.993,-0.061,-0.061,0,0.813,1.099,-132.446
 14:53:48.969,eb:33:2e:f9:57:b5, 2085-97-217 255:29:00:2035,-0.018,0.015,0.993,0,-0.183,0,0.813,1.099,-132.446
 14:53:48.969,eb:33:2e:f9:57:b5, 2085-97-218 255:29:00:2036,-0.019,0.014,0.993,0,-0.244,0,0.813,1.099,-132.446
 14:53:48.969,eb:33:2e:f9:57:b5, 2085-97-217 255:28:00:2036,-0.019,0.013,0.994,0,-0.061,0,0.813,1.099,-132.44
 14:53:49.029,eb:33:2e:f9:57:b5, 2085-97-216 255:30:00:2035,-0.019,0.014,0.994,0,0,0,0.813,1.099,-132.44
 14:53:49.029,eb:33:2e:f9:57:b5, 2085-97-216 255:29:00:2034,-0.019,0.015,0.993,0,0,0,0.813,1.099,-132.44
 14:53:49.029,eb:33:2e:f9:57:b5, 2085-97-216 255:30:00:2032,-0.02,0.015,0.993,0,0.061,0,0.813,1.099,-132.44
 14:53:49.029,eb:33:2e:f9:57:b5, 2085-97-217 255:29:00:2032,-0.02,0.015,0.992,0,0,0,0.813,1.099,-132.44
 14:53:49.118,eb:33:2e:f9:57:b5, 2085-97-217 255:28:00:2035,-0.019,0.014,0.993,0,0,-0.122,0.813,1.099,-132.44
 14:53:49.118,eb:33:2e:f9:57:b5, 2085-97-217 255:28:00:2036,-0.019,0.014,0.994,0,0,-0.061,0.813,1.099,-132.435
 14:53:49.118,eb:33:2e:f9:57:b5, 2085-97-218 255:29:00:2033,-0.02,0.015,0.993,0,0,-0.061,0.813,1.099,-132.435
 14:53:49.118,eb:33:2e:f9:57:b5, 2085-97-215 255:28:00:2034,-0.02,0.014,0.993,0,0,-0.061,0.813,1.099,-132.435
 14:53:49.120,eb:33:2e:f9:57:b5, 2085-97-216 255:27:00:2036,-0.02,0.014,0.994,0,0,0,0.813,1.099,-132.435
 14:53:49.120,eb:33:2e:f9:57:b5, 2085-97-216 255:30:00:2036,-0.02,0.014,0.994,0,0,0,0.813,1.099,-132.429
 14:53:49.120,eb:33:2e:f9:57:b5, 2085-97-217 255:31:00:2035,-0.019,0.014,0.993,0,0,0,0.813,1.099,-132.435
 14:53:49.120,eb:33:2e:f9:57:b5, 2085-97-219 255:30:00:2037,-0.019,0.014,0.994,0,0,0,0.813,1.099,-132.429
 14:53:49.149,eb:33:2e:f9:57:b5, 2085-97-215 255:29:00:2032,-0.019,0.015,0.995,0,0.183,0,0.813,1.099,-132.429
 14:53:49.149,eb:33:2e:f9:57:b5, 2085-97-218 255:30:00:2032,-0.02,0.014,0.993,0,0.122,0,0.813,1.099,-132.429
 14:53:49.149,eb:33:2e:f9:57:b5, 2085-97-215 255:27:00:2033,-0.02,0.014,0.993,0,0.122,0,0.813,1.099,-132.429
 14:53:49.149,eb:33:2e:f9:57:b5, 2085-97-215 255:29:00:2033,-0.02,0.014,0.992,0,0.061,0,0.813,1.099,-132.424
 14:53:49.179,eb:33:2e:f9:57:b5, 2085-97-216 255:30:00:2034,-0.02,0.014,0.993,0,0,0,0.813,1.099,-132.424
 14:53:49.179,eb:33:2e:f9:57:b5, 2085-97-216 255:30:00:2035,-0.02,0.014,0.994,0,0,0,0.813,1.099,-132.424
 14:53:49.179,eb:33:2e:f9:57:b5, 2085-97-215 255:29:00:2036,-0.02,0.014,0.994,0.061,0,0,0.813,1.099,-132.424
 14:53:49.179,eb:33:2e:f9:57:b5, 2085-97-217 255:28:00:2035,-0.019,0.015,0.994,0.061,0,0,0.813,1.099,-132.424
 14:53:49.208,eb:33:2e:f9:57:b5, 2085-97-215 255:30:00:2035,-0.02,0.015,0.993,0.061,0,0.061,0.813,1.099,-132.424
 14:53:49.208,eb:33:2e:f9:57:b5, 2085-97-215 255:32:00:2033,-0.02,0.015,0.993,0.122,0,0.061,0.813,1.099,-132.418
 14:53:49.208,eb:33:2e:f9:57:b5, 2085-97-215 255:30:00:2033,-0.02,0.014,0.993,0,0,0.061,0.813,1.099,-132.418
 14:53:49.208,eb:33:2e:f9:57:b5, 2085-97-217 255:30:00:2032,-0.019,0.015,0.993,0,0,0,0.813,1.099,-132.418
 14:53:49.267,eb:33:2e:f9:57:b5, 2085-97-216 255:29:00:2033,-0.02,0.014,0.993,0,0,-0.122,0.813,1.099,-132.418
 14:53:49.267,eb:33:2e:f9:57:b5, 2085-97-215 255:29:00:2036,-0.02,0.014,0.993,0,0,-0.061,0.813,1.099,-132.413
 14:53:49.267,eb:33:2e:f9:57:b5, 2085-97-217 255:28:00:2037,-0.02,0.014,0.995,0,0,-0.061,0.818,1.099,-132.418
 14:53:49.267,eb:33:2e:f9:57:b5, 2085-97-216 255:28:00:2035,-0.02,0.013,0.994,0,0,0,0.818,1.099,-132.413
 14:53:49.299,eb:33:2e:f9:57:b5, 2085-97-216 255:29:00:2034,-0.02,0.013,0.994,0,0,0,0.818,1.099,-132.413
 14:53:49.299,eb:33:2e:f9:57:b5, 2085-97-215 255:30:00:2035,-0.02,0.016,0.993,0.061,0,0.061,0.818,1.099,-132.413
 14:53:49.299,eb:33:2e:f9:57:b5, 2085-97-217 255:30:00:2033,-0.019,0.015,0.993,0.061,-0.122,0.061,0.818,1.099,-132.413
 14:53:49.299,eb:33:2e:f9:57:b5, 2085-97-217 255:30:00:2037,-0.019,0.015,0.993,0.061,-0.122,0,0.818,1.099,-132.407
 14:53:49.358,eb:33:2e:f9:57:b5, 2085-97-215 255:31:00:2035,-0.02,0.015,0.994,0,-0.122,0,0.818,1.099,-132.407
 14:53:49.358,eb:33:2e:f9:57:b5, 2085-97-216 255:31:00:2034,-0.019,0.015,0.993,0,0,-0.061,0.818,1.099,-132.407
 14:53:49.358,eb:33:2e:f9:57:b5, 2085-113-58 00:28:228:-6210,-0.019,0.015,0.994,0,0.061,-0.061,0.818,1.099,-132.407
 14:53:49.358,eb:33:2e:f9:57:b5, 2085-97-217 255:29:00:2036,-0.02,0.015,0.994,-0.061,0.061,-0.061,0.818,1.099,-132.407
 14:53:49.358,eb:33:2e:f9:57:b5, 2085-97-216 255:29:00:2035,-0.019,0.014,0.994,0,0.122,-0.061,0.818,1.099,-132.407
 14:53:49.389,eb:33:2e:f9:57:b5, 2085-97-215 255:29:00:2034,-0.02,0.014,0.993,0,0.183,0,0.818,1.099,-132.402
 14:53:49.389,eb:33:2e:f9:57:b5, 2085-97-213 255:29:00:2033,-0.021,0.014,0.993,0.061,0.061,0,0.818,1.104,-132.402
 14:53:49.389,eb:33:2e:f9:57:b5, 2085-97-214 255:29:00:2033,-0.02,0.014,0.992,0,0.061,0,0.818,1.104,-132.402
 14:53:49.389,eb:33:2e:f9:57:b5, 2085-97-216 255:30:00:2035,-0.019,0.015,0.994,0,0,0.061,0.818,1.104,-132.402
 14:53:49.419,eb:33:2e:f9:57:b5, 2085-97-216 255:30:00:2033,-0.02,0.015,0.993,0,0,0,0.818,1.104,-132.402
 14:53:49.419,eb:33:2e:f9:57:b5, 2085-97-215 255:30:00:2034,-0.019,0.014,0.993,0,-0.061,0,0.818,1.104,-132.402
 14:53:49.419,eb:33:2e:f9:57:b5, 2085-97-216 255:30:00:2035,-0.02,0.015,0.993,0,0,0,0.818,1.104,-132.396
 14:53:49.419,eb:33:2e:f9:57:b5, 2085-97-215 255:29:00:2032,-0.02,0.014,0.993,0.061,0,0,0.818,1.104,-132.396
 14:53:49.508,eb:33:2e:f9:57:b5, 2085-97-215 255:28:00:2032,-0.02,0.014,0.993,0,0,0,0.818,1.104,-132.396
 14:53:49.508,eb:33:2e:f9:57:b5, 2085-97-218 255:30:00:2037,-0.019,0.014,0.993,0,-0.061,0,0.818,1.104,-132.396
 14:53:49.508,eb:33:2e:f9:57:b5, 2085-97-216 255:28:00:2034,-0.019,0.014,0.994,0.061,0,0,0.818,1.104,-132.396
 14:53:49.508,eb:33:2e:f9:57:b5, 2085-97-217 255:30:00:2032,-0.02,0.014,0.993,0,0,0.061,0.818,1.104,-132.396
 14:53:49.510,eb:33:2e:f9:57:b5, 2085-97-217 255:31:00:2034,-0.02,0.015,0.994,0,-0.061,0,0.818,1.104,-132.391
 14:53:49.510,eb:33:2e:f9:57:b5, 2085-97-215 255:30:00:2033,-0.02,0.016,0.993,0,0,0,0.818,1.104,-132.391
 14:53:49.510,eb:33:2e:f9:57:b5, 2085-97-216 255:29:00:2032,-0.02,0.015,0.992,0,0,0,0.818,1.104,-132.391
 14:53:49.510,eb:33:2e:f9:57:b5, 2085-97-216 255:30:00:2035,-0.019,0.015,0.994,0,0,-0.122,0.818,1.104,-132.391
 14:53:49.538,eb:33:2e:f9:57:b5, 2085-97-217 255:30:00:2036,-0.019,0.014,0.994,0,0,0,0.818,1.104,-132.385
 14:53:49.538,eb:33:2e:f9:57:b5, 2085-97-216 255:29:00:2035,-0.02,0.014,0.994,0,0,-0.061,0.818,1.104,-132.385
 14:53:49.538,eb:33:2e:f9:57:b5, 2085-97-215 255:30:00:2034,-0.02,0.014,0.994,0.061,0.061,0,0.818,1.104,-132.385
 14:53:49.538,eb:33:2e:f9:57:b5, 2085-97-215 255:31:00:2034,-0.02,0.015,0.992,0.061,0,0.061,0.818,1.104,-132.385
 14:53:49.599,eb:33:2e:f9:57:b5, 2085-97-215 255:29:00:2034,-0.02,0.014,0.994,0.061,0,0,0.818,1.104,-132.385
 14:53:49.599,eb:33:2e:f9:57:b5, 2085-97-213 255:30:00:2034,-0.021,0.015,0.993,0,0,0.061,0.818,1.104,-132.385
 14:53:49.599,eb:33:2e:f9:57:b5, 2085-97-215 255:31:00:2033,-0.02,0.015,0.993,0,-0.061,0,0.818,1.104,-132.38
 14:53:49.600,eb:33:2e:f9:57:b5, 2085-97-216 255:31:00:2031,-0.02,0.015,0.992,0,-0.061,0,0.818,1.104,-132.38
 14:53:49.629,eb:33:2e:f9:57:b5, 2085-97-215 255:31:00:2032,-0.02,0.016,0.992,0,0,-0.061,0.818,1.104,-132.38
 14:53:49.629,eb:33:2e:f9:57:b5, 2085-97-218 255:31:00:2033,-0.019,0.015,0.993,-0.122,0,-0.122,0.818,1.104,-132.38
 14:53:49.629,eb:33:2e:f9:57:b5, 2085-97-216 255:30:00:2035,-0.02,0.015,0.993,-0.122,0,-0.122,0.818,1.104,-132.38
 14:53:49.629,eb:33:2e:f9:57:b5, 2085-97-217 255:27:00:2036,-0.02,0.014,0.993,-0.122,0.061,-0.061,0.818,1.104,-132.38
 14:53:49.659,eb:33:2e:f9:57:b5, 2085-97-214 255:30:00:2034,-0.021,0.014,0.994,0,0.061,-0.061,0.818,1.104,-132.374
 14:53:49.659,eb:33:2e:f9:57:b5, 2085-97-215 255:27:00:2033,-0.02,0.014,0.993,0,0,0,0.818,1.104,-132.374
 14:53:49.659,eb:33:2e:f9:57:b5, 2085-97-214 255:30:00:2032,-0.021,0.014,0.993,0,-0.122,0,0.818,1.104,-132.374
 14:53:49.659,eb:33:2e:f9:57:b5, 2085-97-214 255:28:00:2034,-0.021,0.014,0.992,0,-0.244,0.061,0.818,1.104,-132.374
 14:53:49.719,eb:33:2e:f9:57:b5, 2085-97-216 255:30:00:2034,-0.02,0.014,0.993,0,-0.244,0,0.818,1.104,-132.374
 14:53:49.719,eb:33:2e:f9:57:b5, 2085-97-217 255:31:00:2035,-0.019,0.015,0.994,0,-0.183,0.061,0.818,1.104,-132.374
 14:53:49.719,eb:33:2e:f9:57:b5, 2085-97-218 255:30:00:2037,-0.019,0.015,0.995,0,-0.122,0,0.818,1.104,-132.369
 14:53:49.719,eb:33:2e:f9:57:b5, 2085-97-219 255:30:00:2036,-0.019,0.015,0.994,0,-0.061,0,0.818,1.104,-132.369
 14:53:49.748,eb:33:2e:f9:57:b5, 2085-97-217 255:30:00:2035,-0.019,0.015,0.994,0,0,0,0.818,1.104,-132.369
 14:53:49.748,eb:33:2e:f9:57:b5, 2085-97-216 255:30:00:2034,-0.02,0.015,0.994,0,0.061,0,0.818,1.104,-132.369
 14:53:49.748,eb:33:2e:f9:57:b5, 2085-97-216 255:28:00:2033,-0.02,0.014,0.993,0.061,0,0.061,0.818,1.11,-132.369
 14:53:49.748,eb:33:2e:f9:57:b5, 2085-97-215 255:29:00:2035,-0.019,0.014,0.993,0.061,0,0.122,0.824,1.11,-132.369
 14:53:49.778,eb:33:2e:f9:57:b5, 2085-97-212 255:30:00:2027,-0.017,0.014,0.995,0.122,0,0.183,0.824,1.11,-132.363
 14:53:49.778,eb:33:2e:f9:57:b5, 2085-97-215 255:29:00:2032,-0.021,0.016,0.995,0,0.061,0.061,0.824,1.11,-132.363
 14:53:49.778,eb:33:2e:f9:57:b5, 2085-97-213 255:31:00:2031,-0.021,0.015,0.992,0,0,0.061,0.824,1.11,-132.363
 14:53:49.778,eb:33:2e:f9:57:b5, 2085-97-215 255:31:00:2033,-0.019,0.015,0.992,0,-0.183,0,0.824,1.11,-132.363
 14:53:49.837,eb:33:2e:f9:57:b5, 2085-97-215 255:31:00:2035,-0.02,0.015,0.993,-0.061,-0.122,-0.061,0.824,1.11,-132.363
 14:53:49.837,eb:33:2e:f9:57:b5, 2085-97-217 255:29:00:2035,-0.019,0.015,0.994,0,-0.061,-0.061,0.824,1.11,-132.363
 14:53:49.837,eb:33:2e:f9:57:b5, 2085-97-216 255:28:00:2035,-0.02,0.014,0.995,0,0,0,0.824,1.11,-132.358
 14:53:49.837,eb:33:2e:f9:57:b5, 2085-97-217 255:28:00:2033,-0.019,0.014,0.994,0.061,0,0,0.824,1.11,-132.358
 14:53:49.868,eb:33:2e:f9:57:b5, 2085-97-216 255:30:00:2034,-0.02,0.014,0.993,0.061,-0.061,0,0.824,1.11,-132.358
 14:53:49.868,eb:33:2e:f9:57:b5, 2085-97-217 255:29:00:2036,-0.018,0.015,0.994,0.122,-0.122,0.061,0.824,1.11,-132.358
 14:53:49.868,eb:33:2e:f9:57:b5, 2085-97-211 255:30:00:2026,-0.019,0.015,0.996,0.122,0.122,0.122,0.824,1.11,-132.358
 14:53:49.868,eb:33:2e:f9:57:b5, 2085-97-217 255:30:00:2033,-0.02,0.016,0.994,0.061,0.061,0.061,0.824,1.11,-132.358
 14:53:49.899,eb:33:2e:f9:57:b5, 2085-97-216 255:29:00:2034,-0.019,0.014,0.994,0,0,0.061,0.824,1.11,-132.352
 14:53:49.899,eb:33:2e:f9:57:b5, 2085-97-217 255:30:00:2034,-0.021,0.015,0.993,0.061,0,0.122,0.824,1.11,-132.352
 14:53:49.899,eb:33:2e:f9:57:b5, 2085-97-214 255:30:00:2033,-0.02,0.016,0.993,0,0.061,0.061,0.824,1.11,-132.352
 14:53:49.899,eb:33:2e:f9:57:b5, 2085-97-219 255:30:00:2038,-0.021,0.014,0.994,0.122,-0.061,0.122,0.824,1.11,-132.352
 14:53:49.959,eb:33:2e:f9:57:b5, 2085-97-216 255:30:00:2035,-0.02,0.015,0.992,0.122,-0.061,0.183,0.824,1.11,-132.352
 14:53:49.959,eb:33:2e:f9:57:b5, 2085-97-214 255:30:00:2034,-0.02,0.014,0.994,0.244,0,0.183,0.824,1.11,-132.352
 14:53:49.959,eb:33:2e:f9:57:b5, 2085-97-215 255:32:00:2031,-0.021,0.015,0.993,0.122,-0.061,0.183,0.824,1.11,-132.347
 14:53:49.959,eb:33:2e:f9:57:b5, 2085-97-216 255:32:00:2031,-0.02,0.016,0.992,0.061,-0.183,0.183,0.824,1.11,-132.347
 14:53:49.989,eb:33:2e:f9:57:b5, 2085-97-216 255:31:00:2032,-0.019,0.016,0.992,0.061,-0.122,0,0.824,1.11,-132.347
 14:53:49.989,eb:33:2e:f9:57:b5, 2085-97-217 255:31:00:2034,-0.019,0.015,0.993,0,-0.061,-0.122,0.824,1.11,-132.347
 14:53:49.989,eb:33:2e:f9:57:b5, 2085-97-218 255:30:00:2037,-0.019,0.015,0.994,0,0,-0.122,0.824,1.11,-132.347
 14:53:49.989,eb:33:2e:f9:57:b5, 2085-97-217 255:28:00:2038,-0.02,0.015,0.995,0,0.061,-0.061,0.824,1.11,-132.347
 14:53:50.020,eb:33:2e:f9:57:b5, 2085-97-216 255:28:00:2035,-0.021,0.015,0.995,0,0.183,0,0.824,1.11,-132.341
 14:53:50.020,eb:33:2e:f9:57:b5, 2085-97-214 255:30:00:2033,-0.021,0.014,0.992,0,0.061,-0.061,0.824,1.11,-132.341
 14:53:50.020,eb:33:2e:f9:57:b5, 2085-97-213 255:30:00:2031,-0.021,0.015,0.992,0,0,0,0.824,1.11,-132.341
 14:53:50.020,eb:33:2e:f9:57:b5, 2085-97-215 255:33:00:2032,-0.021,0.016,0.992,0,-0.061,0,0.824,1.11,-132.341
 14:53:50.078,eb:33:2e:f9:57:b5, 2085-97-216 255:31:00:2032,-0.02,0.015,0.993,0,-0.122,-0.061,0.824,1.11,-132.341
 14:53:50.078,eb:33:2e:f9:57:b5, 2085-97-217 255:32:00:2035,-0.02,0.015,0.993,-0.061,-0.061,0,0.824,1.11,-132.341
 14:53:50.078,eb:33:2e:f9:57:b5, 2085-97-216 255:30:00:2035,-0.02,0.015,0.994,0,0,-0.061,0.824,1.11,-132.336
 14:53:50.078,eb:33:2e:f9:57:b5, 2085-97-217 255:32:00:2035,-0.019,0.016,0.994,-0.061,0,-0.061,0.824,1.11,-132.336
 14:53:50.109,eb:33:2e:f9:57:b5, 2085-97-219 255:29:00:2036,-0.019,0.014,0.994,-0.061,0,0,0.824,1.11,-132.336
 14:53:50.109,eb:33:2e:f9:57:b5, 2085-97-215 255:29:00:2033,-0.02,0.015,0.994,0,-0.061,0,0.824,1.11,-132.336
 14:53:50.109,eb:33:2e:f9:57:b5, 2085-97-216 255:29:00:2033,-0.021,0.014,0.993,0.122,-0.183,0,0.824,1.11,-132.336
 14:53:50.109,eb:33:2e:f9:57:b5, 2085-97-215 255:30:00:2032,-0.019,0.015,0.993,0,-0.183,0.061,0.824,1.11,-132.336
 14:53:50.137,eb:33:2e:f9:57:b5, 2085-97-217 255:32:00:2034,-0.019,0.015,0.992,0,-0.244,0,0.824,1.11,-132.33
 14:53:50.137,eb:33:2e:f9:57:b5, 2085-97-216 255:31:00:2033,-0.02,0.015,0.992,0,-0.183,0.061,0.824,1.11,-132.33
 14:53:50.137,eb:33:2e:f9:57:b5, 2085-97-215 255:32:00:2034,-0.02,0.016,0.993,-0.061,-0.183,0,0.824,1.11,-132.33
 14:53:50.137,eb:33:2e:f9:57:b5, 2085-97-216 255:31:00:2034,-0.02,0.016,0.993,-0.061,-0.122,-0.061,0.824,1.11,-132.33
 14:53:50.230,eb:33:2e:f9:57:b5, 2085-97-216 255:29:00:2035,-0.02,0.015,0.993,-0.061,-0.061,-0.061,0.824,1.11,-132.33
 14:53:50.230,eb:33:2e:f9:57:b5, 2085-97-216 255:30:00:2037,-0.02,0.015,0.994,-0.061,-0.061,-0.061,0.829,1.11,-132.33
 14:53:50.230,eb:33:2e:f9:57:b5, 2085-97-215 255:30:00:2035,-0.02,0.015,0.994,-0.061,-0.061,0,0.829,1.11,-132.325
 14:53:50.230,eb:33:2e:f9:57:b5, 2085-97-216 255:31:00:2034,-0.02,0.016,0.994,0,-0.061,0,0.829,1.115,-132.325
 14:53:50.230,eb:33:2e:f9:57:b5, 2085-97-216 255:32:00:2036,-0.02,0.015,0.993,0,-0.122,0.061,0.829,1.115,-132.325
 14:53:50.230,eb:33:2e:f9:57:b5, 2085-97-215 255:31:00:2035,-0.02,0.015,0.994,0,-0.122,0,0.829,1.115,-132.325
 14:53:50.230,eb:33:2e:f9:57:b5, 2085-97-218 255:31:00:2035,-0.018,0.015,0.994,0,-0.183,0,0.829,1.115,-132.325
 14:53:50.230,eb:33:2e:f9:57:b5, 2085-113-58 00:13:228:-6390,-0.019,0.016,0.993,0,-0.122,0,0.829,1.115,-132.325
 14:53:50.258,eb:33:2e:f9:57:b5, 2085-97-217 255:30:00:2033,-0.02,0.015,0.993,0,-0.061,0,0.829,1.115,-132.325
 14:53:50.258,eb:33:2e:f9:57:b5, 2085-97-218 255:31:00:2034,-0.019,0.015,0.993,0,-0.122,-0.061,0.829,1.115,-132.325
 14:53:50.258,eb:33:2e:f9:57:b5, 2085-97-218 255:32:00:2036,-0.019,0.015,0.994,-0.061,0,-0.122,0.829,1.115,-132.325
 14:53:50.258,eb:33:2e:f9:57:b5, 2085-97-217 255:30:00:2034,-0.02,0.015,0.993,0,0,-0.061,0.829,1.115,-132.319
 14:53:50.319,eb:33:2e:f9:57:b5, 2085-97-217 255:30:00:2034,-0.02,0.014,0.994,-0.061,-0.061,0,0.829,1.115,-132.319
 14:53:50.319,eb:33:2e:f9:57:b5, 2085-97-217 255:29:00:2035,-0.02,0.014,0.994,0,-0.122,-0.061,0.829,1.115,-132.319
 14:53:50.319,eb:33:2e:f9:57:b5, 2085-97-216 255:31:00:2034,-0.019,0.014,0.993,0,-0.122,-0.061,0.829,1.115,-132.319
 14:53:50.319,eb:33:2e:f9:57:b5, 2085-97-218 255:31:00:2033,-0.019,0.015,0.993,0,-0.183,-0.061,0.829,1.115,-132.319
 14:53:50.349,eb:33:2e:f9:57:b5, 2085-97-218 255:32:00:2033,-0.019,0.015,0.993,-0.061,-0.122,-0.061,0.829,1.115,-132.319
 14:53:50.349,eb:33:2e:f9:57:b5, 2085-97-217 255:29:00:2035,-0.019,0.015,0.993,-0.122,-0.122,-0.122,0.829,1.115,-132.314
 14:53:50.349,eb:33:2e:f9:57:b5, 2085-97-220 255:30:00:2036,-0.019,0.014,0.994,-0.122,-0.061,-0.061,0.829,1.115,-132.314
 14:53:50.349,eb:33:2e:f9:57:b5, 2085-97-218 255:29:00:2035,-0.019,0.015,0.994,-0.061,0,-0.061,0.829,1.115,-132.314
 14:53:50.379,eb:33:2e:f9:57:b5, 2085-97-217 255:29:00:2035,-0.019,0.014,0.993,-0.061,0,0,0.829,1.115,-132.314
 14:53:50.379,eb:33:2e:f9:57:b5, 2085-97-216 255:30:00:2035,-0.019,0.014,0.993,-0.061,0,0,0.829,1.115,-132.314
 14:53:50.379,eb:33:2e:f9:57:b5, 2085-97-217 255:29:00:2032,-0.019,0.014,0.993,0,-0.061,0,0.829,1.115,-132.314
 14:53:50.379,eb:33:2e:f9:57:b5, 2085-97-217 255:31:00:2034,-0.019,0.015,0.993,0,-0.061,0,0.829,1.115,-132.308
 14:53:50.437,eb:33:2e:f9:57:b5, 2085-97-218 255:31:00:2034,-0.019,0.014,0.994,0,0,0,0.829,1.115,-132.308
 14:53:50.437,eb:33:2e:f9:57:b5, 2085-97-217 255:31:00:2034,-0.019,0.015,0.993,0,0,-0.061,0.829,1.115,-132.308
 14:53:50.437,eb:33:2e:f9:57:b5, 2085-97-218 255:30:00:2034,-0.018,0.015,0.993,-0.061,0,-0.061,0.829,1.115,-132.308
 14:53:50.437,eb:33:2e:f9:57:b5, 2085-97-218 255:30:00:2032,-0.019,0.016,0.993,-0.122,0,-0.183,0.829,1.115,-132.308
 14:53:50.467,eb:33:2e:f9:57:b5, 2085-97-215 255:30:00:2032,-0.02,0.016,0.992,-0.183,0,-0.183,0.829,1.115,-132.308
 14:53:50.467,eb:33:2e:f9:57:b5, 2085-97-220 255:30:00:2037,-0.018,0.015,0.993,-0.122,-0.122,-0.244,0.829,1.115,-132.303
 14:53:50.467,eb:33:2e:f9:57:b5, 2085-97-218 255:28:00:2035,-0.019,0.014,0.994,-0.122,0.061,-0.183,0.829,1.115,-132.303
 14:53:50.467,eb:33:2e:f9:57:b5, 2085-97-216 255:28:00:2035,-0.02,0.015,0.993,-0.061,0,-0.183,0.829,1.115,-132.303
 14:53:50.499,eb:33:2e:f9:57:b5, 2085-97-219 255:28:00:2035,-0.019,0.014,0.994,-0.061,0,-0.122,0.829,1.115,-132.303
 14:53:50.499,eb:33:2e:f9:57:b5, 2085-97-217 255:30:00:2035,-0.019,0.015,0.993,-0.061,0,-0.061,0.829,1.115,-132.303
 14:53:50.499,eb:33:2e:f9:57:b5, 2085-97-216 255:29:00:2033,-0.02,0.015,0.993,-0.061,0,-0.122,0.829,1.115,-132.303
 14:53:50.499,eb:33:2e:f9:57:b5, 2085-97-216 255:30:00:2034,-0.02,0.014,0.993,-0.061,-0.061,-0.061,0.829,1.115,-132.303
 14:53:50.559,eb:33:2e:f9:57:b5, 2085-97-217 255:29:00:2033,-0.019,0.014,0.994,-0.122,0,-0.122,0.829,1.115,-132.303
 14:53:50.559,eb:33:2e:f9:57:b5, 2085-97-219 255:31:00:2032,-0.019,0.015,0.992,-0.122,0,-0.122,0.829,1.115,-132.297
 14:53:50.559,eb:33:2e:f9:57:b5, 2085-97-218 255:30:00:2034,-0.019,0.015,0.993,-0.183,0,-0.183,0.829,1.115,-132.297
 14:53:50.559,eb:33:2e:f9:57:b5, 2085-97-219 255:30:00:2036,-0.018,0.015,0.993,-0.061,0,-0.122,0.829,1.115,-132.297
 14:53:50.587,eb:33:2e:f9:57:b5, 2085-97-217 255:28:00:2035,-0.02,0.014,0.994,-0.061,0.122,-0.061,0.829,1.115,-132.297
 14:53:50.587,eb:33:2e:f9:57:b5, 2085-97-215 255:29:00:2034,-0.019,0.014,0.993,-0.122,0,-0.061,0.829,1.115,-132.297
 14:53:50.587,eb:33:2e:f9:57:b5, 2085-97-217 255:31:00:2032,-0.019,0.015,0.994,-0.061,-0.061,0,0.829,1.115,-132.297
 14:53:50.587,eb:33:2e:f9:57:b5, 2085-97-215 255:30:00:2032,-0.02,0.015,0.993,-0.061,0,-0.061,0.829,1.115,-132.292
 14:53:50.618,eb:33:2e:f9:57:b5, 2085-97-215 255:30:00:2033,-0.02,0.015,0.994,-0.122,-0.122,-0.061,0.829,1.115,-132.292
 14:53:50.618,eb:33:2e:f9:57:b5, 2085-97-218 255:31:00:2034,-0.019,0.015,0.992,-0.183,-0.122,-0.122,0.829,1.115,-132.292
 14:53:50.618,eb:33:2e:f9:57:b5, 2085-97-219 255:31:00:2035,-0.019,0.015,0.994,-0.244,-0.122,-0.244,0.829,1.115,-132.292
 14:53:50.619,eb:33:2e:f9:57:b5, 2085-97-217 255:30:00:2033,-0.019,0.014,0.993,-0.244,0,-0.244,0.829,1.115,-132.292
 14:53:50.679,eb:33:2e:f9:57:b5, 2085-97-219 255:29:00:2037,-0.019,0.014,0.994,-0.183,0,-0.305,0.829,1.115,-132.292
 14:53:50.679,eb:33:2e:f9:57:b5, 2085-97-216 255:27:00:2035,-0.018,0.014,0.993,-0.183,0,-0.244,0.835,1.115,-132.286
 14:53:50.679,eb:33:2e:f9:57:b5, 2085-97-220 255:29:00:2038,-0.019,0.013,0.995,-0.061,-0.183,-0.122,0.835,1.115,-132.286
 14:53:50.679,eb:33:2e:f9:57:b5, 2085-97-215 255:26:00:2033,-0.02,0.014,0.994,-0.061,0,0,0.835,1.115,-132.286
 14:53:50.708,eb:33:2e:f9:57:b5, 2085-97-216 255:28:00:2034,-0.02,0.014,0.994,-0.061,-0.183,0,0.835,1.115,-132.286
 14:53:50.708,eb:33:2e:f9:57:b5, 2085-97-215 255:29:00:2033,-0.018,0.014,0.993,-0.061,-0.122,-0.122,0.835,1.115,-132.286
 14:53:50.708,eb:33:2e:f9:57:b5, 2085-97-216 255:29:00:2032,-0.019,0.014,0.992,-0.122,-0.183,-0.061,0.835,1.115,-132.286
 14:53:50.708,eb:33:2e:f9:57:b5, 2085-97-217 255:29:00:2033,-0.018,0.014,0.993,-0.122,-0.183,-0.183,0.835,1.115,-132.286
 14:53:50.768,eb:33:2e:f9:57:b5, 2085-97-219 255:27:00:2036,-0.017,0.014,0.994,-0.061,-0.122,-0.122,0.835,1.115,-132.286
 14:53:50.768,eb:33:2e:f9:57:b5, 2085-97-220 255:31:00:2036,-0.02,0.013,0.995,-0.061,0,-0.061,0.835,1.115,-132.281
 14:53:50.768,eb:33:2e:f9:57:b5, 2085-97-216 255:28:00:2033,-0.019,0.014,0.994,-0.122,0,0,0.829,1.115,-132.281
 14:53:50.768,eb:33:2e:f9:57:b5, 2085-97-219 255:29:00:2036,-0.018,0.014,0.993,0,0,0,0.829,1.115,-132.281
 14:53:50.801,eb:33:2e:f9:57:b5, 2085-97-217 255:28:00:2034,-0.02,0.014,0.994,-0.061,0,0,0.829,1.115,-132.281
 14:53:50.801,eb:33:2e:f9:57:b5, 2085-97-217 255:29:00:2033,-0.019,0.013,0.992,-0.061,-0.061,0,0.829,1.115,-132.281
 14:53:50.801,eb:33:2e:f9:57:b5, 2085-97-217 255:30:00:2032,-0.019,0.014,0.993,-0.061,0,0,0.829,1.115,-132.281
 14:53:50.801,eb:33:2e:f9:57:b5, 2085-97-218 255:29:00:2033,-0.018,0.015,0.992,-0.061,-0.061,-0.122,0.829,1.115,-132.275
 14:53:50.830,eb:33:2e:f9:57:b5, 2085-97-218 255:28:00:2036,-0.019,0.014,0.994,-0.061,0,-0.122,0.829,1.115,-132.275
 14:53:50.830,eb:33:2e:f9:57:b5, 2085-97-219 255:27:00:2037,-0.018,0.013,0.995,-0.061,0,-0.061,0.829,1.115,-132.275
 14:53:50.830,eb:33:2e:f9:57:b5, 2085-97-218 255:28:00:2037,-0.02,0.014,0.995,-0.061,0.061,0,0.829,1.115,-132.275
 14:53:50.830,eb:33:2e:f9:57:b5, 2085-113-58 00:148:228:-6570,-0.02,0.013,0.994,0,0.061,-0.061,0.829,1.115,-132.275
 14:53:50.830,eb:33:2e:f9:57:b5, 2085-97-216 255:26:00:2033,-0.019,0.012,0.993,0,0.061,0,0.829,1.115,-132.275
 14:53:50.888,eb:33:2e:f9:57:b5, 2085-97-218 255:27:00:2033,-0.019,0.013,0.993,0,0,0,0.829,1.115,-132.27
 14:53:50.888,eb:33:2e:f9:57:b5, 2085-97-216 255:28:00:2031,-0.02,0.014,0.993,-0.061,0,0,0.829,1.115,-132.27
 14:53:50.889,eb:33:2e:f9:57:b5, 2085-97-216 255:28:00:2033,-0.018,0.013,0.991,0,-0.122,0,0.829,1.115,-132.27
 14:53:50.889,eb:33:2e:f9:57:b5, 2085-97-219 255:30:00:2033,-0.019,0.014,0.993,0,-0.122,0,0.829,1.115,-132.27
 14:53:50.918,eb:33:2e:f9:57:b5, 2085-97-218 255:29:00:2030,-0.019,0.014,0.992,-0.061,-0.061,-0.122,0.829,1.115,-132.27
 14:53:50.918,eb:33:2e:f9:57:b5, 2085-97-218 255:28:00:2034,-0.018,0.014,0.992,-0.122,-0.061,-0.183,0.829,1.115,-132.27
 14:53:50.918,eb:33:2e:f9:57:b5, 2085-97-218 255:29:00:2034,-0.018,0.014,0.993,-0.183,0,-0.244,0.829,1.115,-132.27
 14:53:50.918,eb:33:2e:f9:57:b5, 2085-97-218 255:28:00:2034,-0.019,0.014,0.993,-0.183,0,-0.244,0.829,1.115,-132.27
 14:53:50.978,eb:33:2e:f9:57:b5, 2085-97-218 255:27:00:2037,-0.019,0.014,0.994,-0.122,0,-0.183,0.829,1.115,-132.264
 14:53:50.978,eb:33:2e:f9:57:b5, 2085-97-219 255:27:00:2035,-0.02,0.013,0.995,0,0,-0.122,0.829,1.115,-132.264
 14:53:50.978,eb:33:2e:f9:57:b5, 2085-97-216 255:29:00:2035,-0.019,0.013,0.994,0,-0.061,0,0.829,1.115,-132.264
 14:53:50.978,eb:33:2e:f9:57:b5, 2085-97-218 255:28:00:2034,-0.019,0.014,0.994,0,0,0,0.829,1.115,-132.264
 14:53:51.008,eb:33:2e:f9:57:b5, 2085-97-218 255:28:00:2034,-0.018,0.014,0.992,0,0,0,0.829,1.115,-132.264
 14:53:51.008,eb:33:2e:f9:57:b5, 2085-97-219 255:30:00:2034,-0.018,0.013,0.993,0,-0.061,-0.061,0.829,1.115,-132.264
 14:53:51.008,eb:33:2e:f9:57:b5, 2085-97-220 255:28:00:2036,-0.018,0.014,0.993,-0.061,0,-0.061,0.829,1.115,-132.259
 14:53:51.008,eb:33:2e:f9:57:b5, 2085-97-218 255:29:00:2034,-0.019,0.014,0.993,-0.061,0.122,-0.061,0.829,1.11,-132.259
 14:53:51.039,eb:33:2e:f9:57:b5, 2085-97-216 255:28:00:2036,-0.019,0.013,0.993,-0.122,0.122,-0.122,0.829,1.115,-132.259
 14:53:51.039,eb:33:2e:f9:57:b5, 2085-97-217 255:28:00:2035,-0.02,0.014,0.993,-0.122,0.122,-0.183,0.829,1.11,-132.259
 14:53:51.039,eb:33:2e:f9:57:b5, 2085-97-217 255:27:00:2034,-0.02,0.013,0.993,-0.061,0.061,-0.122,0.829,1.11,-132.259
 14:53:51.039,eb:33:2e:f9:57:b5, 2085-97-215 255:27:00:2033,-0.02,0.014,0.993,-0.061,0,-0.061,0.829,1.11,-132.259
 14:53:51.069,eb:33:2e:f9:57:b5, 2085-97-217 255:27:00:2032,-0.019,0.013,0.992,0,-0.061,-0.061,0.829,1.11,-132.259
 14:53:51.069,eb:33:2e:f9:57:b5, 2085-97-217 255:28:00:2032,-0.019,0.014,0.993,-0.122,-0.061,-0.061,0.829,1.11,-132.259
 14:53:51.069,eb:33:2e:f9:57:b5, 2085-97-219 255:27:00:2035,-0.018,0.013,0.992,-0.122,0,-0.183,0.829,1.11,-132.253
 14:53:51.069,eb:33:2e:f9:57:b5, 2085-97-217 255:27:00:2035,-0.02,0.013,0.994,-0.122,0,-0.122,0.829,1.11,-132.253
 14:53:51.129,eb:33:2e:f9:57:b5, 2085-97-217 255:26:00:2037,-0.019,0.013,0.994,-0.122,0.061,-0.183,0.829,1.11,-132.253
 14:53:51.129,eb:33:2e:f9:57:b5, 2085-97-219 255:27:00:2035,-0.02,0.013,0.994,-0.122,0.183,-0.122,0.829,1.11,-132.253
 14:53:51.129,eb:33:2e:f9:57:b5, 2085-97-214 255:26:00:2033,-0.017,0.013,0.994,-0.061,0.122,-0.122,0.829,1.11,-132.253
 14:53:51.129,eb:33:2e:f9:57:b5, 2085-97-216 255:28:00:2033,-0.02,0.013,0.997,-0.061,0.244,-0.061,0.829,1.11,-132.253
 14:53:51.188,eb:33:2e:f9:57:b5, 2085-97-216 255:27:00:2032,-0.02,0.013,0.991,-0.122,0.244,-0.061,0.829,1.11,-132.248
 14:53:51.188,eb:33:2e:f9:57:b5, 2085-97-215 255:28:00:2033,-0.02,0.013,0.993,-0.183,0.183,-0.122,0.829,1.11,-132.248
 14:53:51.188,eb:33:2e:f9:57:b5, 2085-97-217 255:28:00:2032,-0.019,0.013,0.993,-0.183,0.183,-0.183,0.829,1.11,-132.248
 14:53:51.188,eb:33:2e:f9:57:b5, 2085-97-214 255:27:00:2032,-0.02,0.014,0.992,-0.183,0.244,-0.244,0.829,1.11,-132.248
 14:53:51.190,eb:33:2e:f9:57:b5, 2085-97-217 255:27:00:2031,-0.02,0.013,0.992,-0.244,0.183,-0.305,0.829,1.11,-132.248
 14:53:51.190,eb:33:2e:f9:57:b5, 2085-97-217 255:29:00:2033,-0.019,0.014,0.993,-0.305,0.183,-0.305,0.829,1.115,-132.248
 14:53:51.190,eb:33:2e:f9:57:b5, 2085-97-216 255:27:00:2034,-0.021,0.014,0.993,-0.366,0.244,-0.427,0.829,1.115,-132.248
 14:53:51.190,eb:33:2e:f9:57:b5, 2085-97-204 255:22:00:2023,-0.016,0.012,0.991,-0.427,0.183,-0.427,0.829,1.115,-132.248
 14:53:51.248,eb:33:2e:f9:57:b5, 2085-97-219 255:21:00:2039,-0.016,0.013,1.001,-0.366,0.244,-0.549,0.829,1.115,-132.242
 14:53:51.248,eb:33:2e:f9:57:b5, 2085-97-214 255:26:00:2035,-0.02,0.013,0.997,-0.183,0.244,-0.244,0.829,1.115,-132.242
 14:53:51.248,eb:33:2e:f9:57:b5, 2085-97-216 255:25:00:2035,-0.02,0.012,0.994,-0.183,0.122,-0.122,0.829,1.115,-132.242
 14:53:51.248,eb:33:2e:f9:57:b5, 2085-97-215 255:25:00:2034,-0.02,0.011,0.993,-0.122,0.122,-0.061,0.829,1.115,-132.242
 14:53:51.278,eb:33:2e:f9:57:b5, 2085-97-216 255:26:00:2035,-0.02,0.012,0.993,0,0.061,0,0.829,1.115,-132.242
 14:53:51.278,eb:33:2e:f9:57:b5, 2085-97-214 255:25:00:2033,-0.02,0.013,0.992,-0.061,0.061,-0.061,0.829,1.115,-132.242
 14:53:51.278,eb:33:2e:f9:57:b5, 2085-97-216 255:27:00:2031,-0.019,0.013,0.992,-0.061,0,-0.061,0.829,1.115,-132.237
 14:53:51.278,eb:33:2e:f9:57:b5, 2085-97-216 255:28:00:2033,-0.021,0.013,0.992,-0.183,0.122,-0.061,0.829,1.115,-132.237
 14:53:51.309,eb:33:2e:f9:57:b5, 2085-97-214 255:28:00:2034,-0.02,0.013,0.993,-0.183,0.061,-0.061,0.829,1.115,-132.237
 14:53:51.309,eb:33:2e:f9:57:b5, 2085-97-216 255:26:00:2036,-0.022,0.013,0.993,-0.122,0,-0.183,0.829,1.115,-132.237
 14:53:51.309,eb:33:2e:f9:57:b5, 2085-97-217 255:27:00:2036,-0.019,0.012,0.991,-0.244,0,-0.122,0.829,1.115,-132.237
 14:53:51.309,eb:33:2e:f9:57:b5, 2085-97-218 255:26:00:2034,-0.02,0.013,0.993,-0.122,-0.061,-0.061,0.824,1.115,-132.237
 14:53:51.369,eb:33:2e:f9:57:b5, 2085-97-218 255:25:00:2037,-0.02,0.013,0.994,-0.061,0,0,0.824,1.115,-132.237
 14:53:51.369,eb:33:2e:f9:57:b5, 2085-97-217 255:27:00:2035,-0.019,0.012,0.994,0,-0.183,0,0.824,1.115,-132.237
 14:53:51.369,eb:33:2e:f9:57:b5, 2085-97-215 255:26:00:2031,-0.021,0.013,0.994,0,-0.061,0.061,0.824,1.115,-132.231
 14:53:51.369,eb:33:2e:f9:57:b5, 2085-97-214 255:26:00:2032,-0.02,0.012,0.992,0,-0.183,0.061,0.824,1.115,-132.231
 14:53:51.398,eb:33:2e:f9:57:b5, 2085-97-215 255:27:00:2033,-0.02,0.013,0.992,0,-0.122,0,0.824,1.115,-132.231
 14:53:51.398,eb:33:2e:f9:57:b5, 2085-97-217 255:26:00:2032,-0.019,0.013,0.993,0,-0.122,0,0.824,1.115,-132.231
 14:53:51.398,eb:33:2e:f9:57:b5, 2085-97-216 255:25:00:2033,-0.019,0.013,0.993,-0.061,-0.061,-0.122,0.824,1.115,-132.231
 14:53:51.398,eb:33:2e:f9:57:b5, 2085-97-216 255:26:00:2034,-0.019,0.013,0.994,-0.061,0,-0.183,0.824,1.115,-132.231
 14:53:51.430,eb:33:2e:f9:57:b5, 2085-97-218 255:24:00:2037,-0.019,0.012,0.995,-0.061,0.061,-0.122,0.824,1.115,-132.231
 14:53:51.430,eb:33:2e:f9:57:b5, 2085-97-216 255:26:00:2034,-0.02,0.012,0.994,0,0,-0.061,0.824,1.115,-132.231
 14:53:51.430,eb:33:2e:f9:57:b5, 2085-97-216 255:24:00:2036,-0.02,0.012,0.994,0,0.061,-0.061,0.824,1.115,-132.226
 14:53:51.430,eb:33:2e:f9:57:b5, 2085-97-215 255:25:00:2033,-0.02,0.012,0.993,0,0,0,0.824,1.115,-132.226
 14:53:51.488,eb:33:2e:f9:57:b5, 2085-97-214 255:28:00:2034,-0.019,0.013,0.993,0,0,0,0.824,1.115,-132.226
 14:53:51.488,eb:33:2e:f9:57:b5, 2085-113-81 00:208:51:387,-0.02,0.013,0.993,0,-0.061,-0.061,0.824,1.115,-132.226
 14:53:51.488,eb:33:2e:f9:57:b5, 2085-97-217 255:26:00:2033,-0.019,0.013,0.993,0,0,-0.122,0.824,1.115,-132.226
 14:53:51.488,eb:33:2e:f9:57:b5, 2085-97-216 255:27:00:2034,-0.02,0.014,0.993,-0.122,0,-0.122,0.824,1.115,-132.226
 14:53:51.518,eb:33:2e:f9:57:b5, 2085-97-217 255:26:00:2034,-0.02,0.014,0.994,-0.122,0.061,-0.183,0.824,1.115,-132.226
 14:53:51.518,eb:33:2e:f9:57:b5, 2085-97-212 255:27:00:2029,-0.019,0.013,0.992,-0.183,0.183,-0.244,0.824,1.115,-132.22
 14:53:51.518,eb:33:2e:f9:57:b5, 2085-97-215 255:20:00:2036,-0.018,0.015,0.989,-0.366,0,-0.366,0.824,1.115,-132.22
 14:53:51.518,eb:33:2e:f9:57:b5, 2085-97-218 255:25:00:2037,-0.017,0.011,0.996,-0.183,0.122,-0.366,0.824,1.115,-132.22
 14:53:51.548,eb:33:2e:f9:57:b5, 2085-97-217 255:25:00:2037,-0.021,0.013,0.997,-0.183,0.427,-0.305,0.824,1.115,-132.22
 14:53:51.549,eb:33:2e:f9:57:b5, 2085-97-212 255:24:00:2033,-0.021,0.012,0.994,-0.183,0.244,-0.183,0.824,1.115,-132.22
 14:53:51.549,eb:33:2e:f9:57:b5, 2085-97-216 255:25:00:2036,-0.02,0.012,0.993,-0.061,0.183,-0.122,0.824,1.115,-132.22
 14:53:51.549,eb:33:2e:f9:57:b5, 2085-97-215 255:24:00:2034,-0.021,0.012,0.994,-0.061,0.122,-0.122,0.824,1.115,-132.22
 14:53:51.607,eb:33:2e:f9:57:b5, 2085-97-214 255:26:00:2032,-0.021,0.013,0.992,-0.061,0,-0.122,0.824,1.115,-132.22
 14:53:51.607,eb:33:2e:f9:57:b5, 2085-97-218 255:26:00:2035,-0.021,0.012,0.992,-0.061,0,-0.122,0.824,1.115,-132.215
 14:53:51.607,eb:33:2e:f9:57:b5, 2085-97-219 255:25:00:2038,-0.019,0.012,0.991,-0.122,-0.061,-0.183,0.818,1.115,-132.215
 14:53:51.607,eb:33:2e:f9:57:b5, 2085-97-217 255:26:00:2037,-0.02,0.012,0.994,-0.183,0.122,-0.122,0.818,1.115,-132.215
 14:53:51.638,eb:33:2e:f9:57:b5, 2085-97-215 255:25:00:2036,-0.02,0.012,0.994,-0.061,0.305,-0.183,0.818,1.115,-132.215
 14:53:51.638,eb:33:2e:f9:57:b5, 2085-97-214 255:24:00:2038,-0.02,0.011,0.995,0,0.244,-0.122,0.818,1.115,-132.215
 14:53:51.638,eb:33:2e:f9:57:b5, 2085-97-215 255:25:00:2036,-0.02,0.012,0.995,0,0.244,0,0.818,1.115,-132.215
 14:53:51.638,eb:33:2e:f9:57:b5, 2085-97-214 255:24:00:2032,-0.022,0.013,0.993,0,0.061,0.122,0.818,1.115,-132.215
 14:53:51.698,eb:33:2e:f9:57:b5, 2085-97-212 255:26:00:2032,-0.021,0.012,0.992,0.061,0,0.061,0.818,1.115,-132.215
 14:53:51.698,eb:33:2e:f9:57:b5, 2085-97-215 255:25:00:2036,-0.021,0.013,0.993,0.061,-0.061,0,0.818,1.115,-132.209
 14:53:51.698,eb:33:2e:f9:57:b5, 2085-97-214 255:25:00:2033,-0.021,0.012,0.993,0.061,-0.122,0.061,0.818,1.115,-132.209
 14:53:51.698,eb:33:2e:f9:57:b5, 2085-97-215 255:26:00:2035,-0.019,0.012,0.993,0,-0.122,0.061,0.818,1.121,-132.209
 14:53:51.728,eb:33:2e:f9:57:b5, 2085-97-217 255:26:00:2034,-0.02,0.013,0.993,0,0,0,0.818,1.121,-132.209
 14:53:51.728,eb:33:2e:f9:57:b5, 2085-97-216 255:27:00:2033,-0.021,0.013,0.994,0,0,0,0.818,1.121,-132.209
 14:53:51.728,eb:33:2e:f9:57:b5, 2085-97-213 255:25:00:2034,-0.021,0.013,0.993,-0.061,0.061,-0.061,0.818,1.121,-132.209
 14:53:51.728,eb:33:2e:f9:57:b5, 2085-97-215 255:26:00:2034,-0.021,0.012,0.993,0,0.122,-0.122,0.818,1.121,-132.209
 14:53:51.758,eb:33:2e:f9:57:b5, 2085-97-213 255:26:00:2032,-0.02,0.012,0.993,-0.061,0.061,-0.061,0.818,1.121,-132.209
 14:53:51.758,eb:33:2e:f9:57:b5, 2085-97-215 255:25:00:2032,-0.021,0.013,0.992,0,0,-0.061,0.818,1.121,-132.204
 14:53:51.758,eb:33:2e:f9:57:b5, 2085-97-214 255:25:00:2033,-0.019,0.012,0.992,-0.061,-0.061,-0.061,0.818,1.121,-132.204
 14:53:51.758,eb:33:2e:f9:57:b5, 2085-97-218 255:24:00:2036,-0.019,0.012,0.994,0,0,-0.061,0.818,1.121,-132.204
 14:53:51.789,eb:33:2e:f9:57:b5, 2085-97-217 255:25:00:2036,-0.02,0.013,0.995,0.061,0,0,0.818,1.121,-132.204
 14:53:51.789,eb:33:2e:f9:57:b5, 2085-97-214 255:25:00:2034,-0.021,0.012,0.994,0,0,0.061,0.818,1.121,-132.204
 14:53:51.789,eb:33:2e:f9:57:b5, 2085-97-214 255:25:00:2033,-0.02,0.012,0.993,0.061,0,0.061,0.818,1.121,-132.204
 14:53:51.789,eb:33:2e:f9:57:b5, 2085-97-213 255:25:00:2033,-0.021,0.013,0.992,0.122,-0.061,0.061,0.818,1.121,-132.198
 14:53:51.848,eb:33:2e:f9:57:b5, 2085-97-215 255:27:00:2032,-0.02,0.012,0.992,0,-0.061,0,0.813,1.121,-132.198
 14:53:51.848,eb:33:2e:f9:57:b5, 2085-97-216 255:27:00:2033,-0.019,0.013,0.993,0,-0.061,0,0.818,1.121,-132.198
 14:53:51.848,eb:33:2e:f9:57:b5, 2085-97-216 255:26:00:2033,-0.021,0.013,0.993,0,-0.061,-0.061,0.813,1.121,-132.198
 14:53:51.848,eb:33:2e:f9:57:b5, 2085-97-214 255:24:00:2035,-0.02,0.012,0.993,-0.061,0,0,0.813,1.121,-132.198
 14:53:51.878,eb:33:2e:f9:57:b5, 2085-97-214 255:26:00:2036,-0.021,0.012,0.994,0,0,-0.061,0.813,1.121,-132.198
 14:53:51.878,eb:33:2e:f9:57:b5, 2085-97-213 255:24:00:2035,-0.021,0.012,0.994,0,-0.061,0,0.813,1.121,-132.198
 14:53:51.878,eb:33:2e:f9:57:b5, 2085-97-212 255:25:00:2033,-0.021,0.012,0.992,0.061,-0.061,0,0.813,1.121,-132.198
 14:53:51.878,eb:33:2e:f9:57:b5, 2085-97-213 255:24:00:2033,-0.02,0.012,0.992,0,-0.183,0,0.813,1.121,-132.193
 14:53:51.907,eb:33:2e:f9:57:b5, 2085-97-215 255:27:00:2034,-0.021,0.013,0.994,0.061,-0.183,0,0.813,1.121,-132.193
 14:53:51.907,eb:33:2e:f9:57:b5, 2085-97-215 255:27:00:2033,-0.02,0.013,0.993,0,-0.122,-0.061,0.813,1.121,-132.193
 14:53:51.907,eb:33:2e:f9:57:b5, 2085-97-215 255:26:00:2034,-0.02,0.013,0.993,-0.061,-0.122,-0.061,0.813,1.121,-132.193
 14:53:51.907,eb:33:2e:f9:57:b5, 2085-97-215 255:26:00:2033,-0.019,0.012,0.993,-0.061,0,-0.183,0.813,1.121,-132.193
 14:53:51.969,eb:33:2e:f9:57:b5, 2085-97-217 255:25:00:2034,-0.02,0.013,0.993,-0.061,0,-0.183,0.813,1.121,-132.193
 14:53:51.969,eb:33:2e:f9:57:b5, 2085-97-216 255:26:00:2037,-0.02,0.013,0.994,-0.122,0.061,-0.183,0.813,1.121,-132.193
 14:53:51.969,eb:33:2e:f9:57:b5, 2085-97-214 255:23:00:2035,-0.02,0.011,0.994,-0.061,0.061,-0.183,0.813,1.121,-132.193
 14:53:51.969,eb:33:2e:f9:57:b5, 2085-97-215 255:25:00:2035,-0.021,0.012,0.994,0,0.122,-0.122,0.813,1.121,-132.188
 14:53:51.999,eb:33:2e:f9:57:b5, 2085-97-214 255:24:00:2036,-0.02,0.012,0.995,0,0,-0.061,0.813,1.121,-132.188
 14:53:51.999,eb:33:2e:f9:57:b5, 2085-97-214 255:25:00:2034,-0.02,0.012,0.994,0,0,0,0.813,1.121,-132.188
 14:53:51.999,eb:33:2e:f9:57:b5, 2085-97-214 255:27:00:2030,-0.021,0.012,0.992,0,-0.061,0.061,0.813,1.121,-132.188
 14:53:51.999,eb:33:2e:f9:57:b5, 2085-97-215 255:26:00:2034,-0.02,0.013,0.992,0,-0.122,0,0.813,1.121,-132.188
 14:53:52.028,eb:33:2e:f9:57:b5, 2085-97-215 255:26:00:2034,-0.019,0.012,0.994,0,-0.122,0,0.813,1.121,-132.188
 14:53:52.028,eb:33:2e:f9:57:b5, 2085-97-216 255:26:00:2034,-0.02,0.013,0.994,0,0,-0.061,0.813,1.126,-132.188
 14:53:52.028,eb:33:2e:f9:57:b5, 2085-97-215 255:25:00:2032,-0.02,0.013,0.993,-0.061,0,-0.061,0.813,1.126,-132.188
 14:53:52.028,eb:33:2e:f9:57:b5, 2085-97-215 255:24:00:2033,-0.021,0.012,0.993,-0.061,-0.061,-0.122,0.813,1.126,-132.182
 14:53:52.089,eb:33:2e:f9:57:b5, 2085-97-216 255:24:00:2035,-0.02,0.011,0.994,-0.122,0,-0.122,0.813,1.126,-132.182
 14:53:52.089,eb:33:2e:f9:57:b5, 2085-97-216 255:24:00:2035,-0.018,0.012,0.994,-0.061,-0.061,0,0.813,1.126,-132.182
 14:53:52.089,eb:33:2e:f9:57:b5, 2085-97-207 255:22:00:2028,-0.021,0.012,0.996,0,0.061,0,0.807,1.126,-132.182
 14:53:52.089,eb:33:2e:f9:57:b5, 2085-97-214 255:24:00:2032,-0.019,0.012,0.993,0,-0.244,0,0.807,1.126,-132.182
 14:53:52.119,eb:33:2e:f9:57:b5, 2085-97-217 255:26:00:2037,-0.019,0.013,0.995,0.061,-0.244,0,0.807,1.126,-132.182
 14:53:52.119,eb:33:2e:f9:57:b5, 2085-97-211 255:24:00:2032,-0.021,0.012,0.994,0.061,-0.061,0,0.807,1.126,-132.182
 14:53:52.119,eb:33:2e:f9:57:b5, 2085-97-214 255:24:00:2036,-0.019,0.012,0.993,0.061,-0.183,0,0.807,1.126,-132.182
 14:53:52.119,eb:33:2e:f9:57:b5, 2085-97-219 255:26:00:2036,-0.021,0.013,0.995,0.061,-0.122,0.061,0.807,1.126,-132.177
 14:53:52.180,eb:33:2e:f9:57:b5, 2085-97-215 255:25:00:2035,-0.019,0.013,0.994,0.061,-0.061,0,0.807,1.126,-132.177
 14:53:52.180,eb:33:2e:f9:57:b5, 2085-97-215 255:25:00:2036,-0.02,0.012,0.993,0.061,-0.122,0.061,0.807,1.126,-132.177
 14:53:52.180,eb:33:2e:f9:57:b5, 2085-97-217 255:25:00:2036,-0.02,0.013,0.994,0,-0.061,0,0.807,1.126,-132.177
 14:53:52.180,eb:33:2e:f9:57:b5, 2085-97-216 255:23:00:2037,-0.02,0.012,0.995,0,0,0.061,0.807,1.126,-132.177
 14:53:52.209,eb:33:2e:f9:57:b5, 2085-97-214 255:25:00:2035,-0.021,0.012,0.994,0.061,-0.061,0.122,0.807,1.126,-132.177
 14:53:52.209,eb:33:2e:f9:57:b5, 2085-97-213 255:25:00:2032,-0.021,0.013,0.993,0.061,0,0.061,0.807,1.126,-132.177
 14:53:52.209,eb:33:2e:f9:57:b5, 2085-97-216 255:25:00:2033,-0.021,0.012,0.993,0,-0.122,0.061,0.807,1.126,-132.177
 14:53:52.209,eb:33:2e:f9:57:b5, 2085-97-214 255:26:00:2035,-0.019,0.012,0.994,0,0,0,0.807,1.126,-132.171
 14:53:52.238,eb:33:2e:f9:57:b5, 2085-97-217 255:25:00:2036,-0.019,0.012,0.994,0,0,0,0.807,1.126,-132.171
 14:53:52.238,eb:33:2e:f9:57:b5, 2085-97-218 255:25:00:2037,-0.021,0.013,0.995,0,0,0,0.807,1.126,-132.171
 14:53:52.238,eb:33:2e:f9:57:b5, 2085-97-215 255:24:00:2033,-0.02,0.013,0.992,0,0.061,0,0.807,1.126,-132.171
 14:53:52.238,eb:33:2e:f9:57:b5, 2085-97-215 255:24:00:2035,-0.021,0.012,0.994,0,0,0,0.807,1.126,-132.171
 14:53:52.299,eb:33:2e:f9:57:b5, 2085-97-214 255:23:00:2034,-0.019,0.011,0.994,0,0.061,0,0.807,1.126,-132.171
 14:53:52.299,eb:33:2e:f9:57:b5, 2085-97-216 255:25:00:2033,-0.02,0.012,0.993,0,0,0,0.807,1.126,-132.171
 14:53:52.299,eb:33:2e:f9:57:b5, 2085-97-215 255:26:00:2033,-0.019,0.013,0.992,0,0,0,0.807,1.126,-132.171
 14:53:52.299,eb:33:2e:f9:57:b5, 2085-97-216 255:26:00:2035,-0.02,0.013,0.993,0,0,0,0.807,1.126,-132.166
 14:53:52.299,eb:33:2e:f9:57:b5, 2085-97-216 255:26:00:2033,-0.02,0.012,0.992,0,0,0,0.802,1.126,-132.166
 14:53:52.330,eb:33:2e:f9:57:b5, 2085-113-58 00:134:227:-6285,-0.019,0.013,0.993,0,0,-0.061,0.802,1.126,-132.166
 14:53:52.330,eb:33:2e:f9:57:b5, 2085-97-216 255:24:00:2036,-0.02,0.011,0.994,0,0,0,0.802,1.126,-132.166
 14:53:52.330,eb:33:2e:f9:57:b5, 2085-97-217 255:23:00:2036,-0.02,0.011,0.994,0.061,0,0,0.802,1.126,-132.166
 14:53:52.330,eb:33:2e:f9:57:b5, 2085-97-215 255:25:00:2033,-0.021,0.012,0.994,0.061,0,0,0.802,1.126,-132.166
 14:53:52.358,eb:33:2e:f9:57:b5, 2085-97-216 255:25:00:2033,-0.018,0.012,0.994,0.061,-0.061,0.061,0.802,1.126,-132.166
 14:53:52.358,eb:33:2e:f9:57:b5, 2085-97-216 255:23:00:2035,-0.012,0.013,0.995,0.061,0,0,0.802,1.126,-132.166
 14:53:52.358,eb:33:2e:f9:57:b5, 2085-97-195 255:22:00:2012,-0.017,0.012,1,0.183,0.183,0,0.802,1.126,-132.166
 14:53:52.358,eb:33:2e:f9:57:b5, 2085-97-208 255:22:00:2026,-0.021,0.017,0.995,0,0,0.061,0.802,1.126,-132.166
 14:53:52.479,eb:33:2e:f9:57:b5, 2085-97-215 255:26:00:2034,-0.02,0.012,0.993,0,-0.244,0.061,0.802,1.126,-132.16
 14:53:52.479,eb:33:2e:f9:57:b5, 2085-97-218 255:25:00:2036,-0.02,0.013,0.994,0,-0.244,0.122,0.802,1.126,-132.16
 14:53:52.479,eb:33:2e:f9:57:b5, 2085-97-219 255:27:00:2035,-0.019,0.013,0.993,0,-0.244,0.061,0.802,1.126,-132.16
 14:53:52.479,eb:33:2e:f9:57:b5, 2085-97-218 255:27:00:2031,-0.019,0.013,0.992,0,-0.122,0,0.802,1.126,-132.16
 14:53:52.479,eb:33:2e:f9:57:b5, 2085-97-218 255:27:00:2034,-0.019,0.013,0.993,0,0,-0.122,0.802,1.126,-132.16
 14:53:52.479,eb:33:2e:f9:57:b5, 2085-97-216 255:24:00:2032,-0.02,0.013,0.993,-0.061,0.061,-0.183,0.802,1.126,-132.16
 14:53:52.479,eb:33:2e:f9:57:b5, 2085-97-214 255:25:00:2035,-0.021,0.012,0.994,-0.061,0.061,-0.122,0.802,1.126,-132.16
 14:53:52.479,eb:33:2e:f9:57:b5, 2085-97-215 255:25:00:2036,-0.02,0.012,0.994,0,0,-0.061,0.802,1.126,-132.16
 14:53:52.482,eb:33:2e:f9:57:b5, 2085-97-217 255:24:00:2039,-0.022,0.012,0.994,0,0,0,0.802,1.126,-132.155
 14:53:52.482,eb:33:2e:f9:57:b5, 2085-97-215 255:26:00:2036,-0.021,0.011,0.995,0,-0.061,0.061,0.802,1.126,-132.155
 14:53:52.482,eb:33:2e:f9:57:b5, 2085-97-215 255:25:00:2034,-0.019,0.013,0.993,0,-0.122,0.122,0.802,1.126,-132.155
 14:53:52.483,eb:33:2e:f9:57:b5, 2085-97-217 255:25:00:2036,-0.018,0.012,0.993,0,-0.122,0.061,0.802,1.126,-132.155
 14:53:52.538,eb:33:2e:f9:57:b5, 2085-97-220 255:25:00:2039,-0.018,0.013,0.996,0.061,0,0,0.802,1.126,-132.155
 14:53:52.538,eb:33:2e:f9:57:b5, 2085-97-216 255:26:00:2034,-0.02,0.013,0.995,0.061,0.122,0.061,0.802,1.126,-132.155
 14:53:52.538,eb:33:2e:f9:57:b5, 2085-97-217 255:27:00:2034,-0.02,0.013,0.993,0.061,0.061,0.061,0.802,1.126,-132.155
 14:53:52.538,eb:33:2e:f9:57:b5, 2085-97-212 255:26:00:2031,-0.02,0.013,0.993,0,0.183,0,0.802,1.126,-132.155
 14:53:52.568,eb:33:2e:f9:57:b5, 2085-97-217 255:26:00:2036,-0.021,0.013,0.994,0.061,0,0,0.802,1.126,-132.149
 14:53:52.568,eb:33:2e:f9:57:b5, 2085-97-215 255:27:00:2032,-0.019,0.013,0.993,0,0.061,0,0.802,1.126,-132.149
 14:53:52.568,eb:33:2e:f9:57:b5, 2085-97-215 255:25:00:2036,-0.021,0.012,0.994,0,0,0,0.802,1.126,-132.149
 14:53:52.568,eb:33:2e:f9:57:b5, 2085-97-215 255:26:00:2034,-0.02,0.012,0.993,0,0,0,0.802,1.126,-132.149
 14:53:52.598,eb:33:2e:f9:57:b5, 2085-97-216 255:25:00:2036,-0.02,0.013,0.995,0.061,0,0,0.802,1.126,-132.149
 14:53:52.598,eb:33:2e:f9:57:b5, 2085-97-214 255:26:00:2033,-0.021,0.013,0.994,0,-0.061,0,0.797,1.126,-132.149
 14:53:52.598,eb:33:2e:f9:57:b5, 2085-97-215 255:26:00:2032,-0.02,0.013,0.992,0,-0.122,0,0.797,1.126,-132.149
 14:53:52.598,eb:33:2e:f9:57:b5, 2085-97-217 255:26:00:2034,-0.018,0.013,0.992,0,-0.122,-0.061,0.797,1.132,-132.149
 14:53:52.658,eb:33:2e:f9:57:b5, 2085-97-216 255:28:00:2034,-0.02,0.013,0.994,0,-0.122,-0.061,0.797,1.132,-132.144
 14:53:52.658,eb:33:2e:f9:57:b5, 2085-97-216 255:25:00:2036,-0.02,0.013,0.994,0,0,0,0.797,1.132,-132.144
 14:53:52.658,eb:33:2e:f9:57:b5, 2085-97-216 255:28:00:2035,-0.02,0.013,0.994,0,0,-0.061,0.797,1.132,-132.144
 14:53:52.658,eb:33:2e:f9:57:b5, 2085-97-215 255:25:00:2033,-0.02,0.013,0.993,0,0,0,0.797,1.132,-132.144
 14:53:52.688,eb:33:2e:f9:57:b5, 2085-97-217 255:25:00:2037,-0.02,0.013,0.993,0,0,0,0.797,1.132,-132.144
 14:53:52.688,eb:33:2e:f9:57:b5, 2085-97-215 255:24:00:2036,-0.021,0.013,0.993,0,0,0,0.797,1.132,-132.144
 14:53:52.688,eb:33:2e:f9:57:b5, 2085-97-215 255:25:00:2034,-0.02,0.012,0.994,-0.061,0,0,0.797,1.132,-132.144
 14:53:52.688,eb:33:2e:f9:57:b5, 2085-97-214 255:27:00:2032,-0.019,0.013,0.992,0,0.061,-0.061,0.797,1.132,-132.144
 14:53:52.719,eb:33:2e:f9:57:b5, 2085-97-217 255:27:00:2038,-0.02,0.013,0.994,-0.061,0,-0.122,0.797,1.132,-132.144
 14:53:52.719,eb:33:2e:f9:57:b5, 2085-97-215 255:23:00:2034,-0.021,0.012,0.994,0,0.061,-0.122,0.797,1.132,-132.144
 14:53:52.719,eb:33:2e:f9:57:b5, 2085-97-214 255:24:00:2034,-0.02,0.012,0.993,-0.061,0,-0.061,0.797,1.132,-132.138
 14:53:52.719,eb:33:2e:f9:57:b5, 2085-97-216 255:24:00:2036,-0.019,0.012,0.993,0,0,0,0.797,1.132,-132.138
 14:53:52.779,eb:33:2e:f9:57:b5, 2085-97-217 255:27:00:2035,-0.02,0.012,0.994,0,0.122,0,0.797,1.132,-132.138
 14:53:52.779,eb:33:2e:f9:57:b5, 2085-97-215 255:27:00:2032,-0.02,0.013,0.994,0,0.122,-0.061,0.797,1.132,-132.138
 14:53:52.779,eb:33:2e:f9:57:b5, 2085-97-217 255:26:00:2036,-0.019,0.014,0.993,-0.061,0.122,-0.122,0.797,1.132,-132.138
 14:53:52.779,eb:33:2e:f9:57:b5, 2085-97-214 255:25:00:2033,-0.021,0.012,0.994,-0.061,0.244,-0.061,0.797,1.132,-132.138
 14:53:52.808,eb:33:2e:f9:57:b5, 2085-97-215 255:24:00:2034,-0.021,0.012,0.992,-0.122,0.183,-0.061,0.797,1.132,-132.138
 14:53:52.808,eb:33:2e:f9:57:b5, 2085-97-214 255:25:00:2033,-0.021,0.012,0.994,-0.061,0.183,-0.061,0.797,1.132,-132.138
 14:53:52.808,eb:33:2e:f9:57:b5, 2085-97-215 255:25:00:2035,-0.02,0.012,0.993,0,0.061,-0.122,0.797,1.132,-132.133
 14:53:52.808,eb:33:2e:f9:57:b5, 2085-97-212 255:25:00:2033,-0.021,0.012,0.993,0,0.122,-0.122,0.797,1.132,-132.133
 14:53:52.838,eb:33:2e:f9:57:b5, 2085-97-213 255:26:00:2032,-0.021,0.012,0.993,0,0,-0.061,0.797,1.132,-132.133
 14:53:52.838,eb:33:2e:f9:57:b5, 2085-97-215 255:24:00:2031,-0.02,0.012,0.992,-0.061,-0.061,-0.122,0.797,1.132,-132.133
 14:53:52.838,eb:33:2e:f9:57:b5, 2085-97-215 255:25:00:2032,-0.021,0.013,0.993,-0.122,-0.122,-0.122,0.797,1.132,-132.133
 14:53:52.839,eb:33:2e:f9:57:b5, 2085-97-214 255:25:00:2034,-0.02,0.013,0.994,-0.183,-0.061,-0.183,0.797,1.132,-132.133
 14:53:52.899,eb:33:2e:f9:57:b5, 2085-97-215 255:26:00:2035,-0.021,0.013,0.993,-0.244,0,-0.366,0.797,1.132,-132.133
 14:53:52.899,eb:33:2e:f9:57:b5, 2085-113-58 00:194:227:-6435,-0.021,0.012,0.992,-0.244,0,-0.366,0.797,1.132,-132.133
 14:53:52.899,eb:33:2e:f9:57:b5, 2085-97-214 255:23:00:2033,-0.021,0.012,0.993,-0.305,0,-0.366,0.797,1.132,-132.133
 14:53:52.899,eb:33:2e:f9:57:b5, 2085-97-218 255:22:00:2039,-0.02,0.012,0.992,-0.305,-0.061,-0.366,0.797,1.132,-132.127
 14:53:52.929,eb:33:2e:f9:57:b5, 2085-97-219 255:25:00:2040,-0.019,0.01,0.995,-0.061,-0.122,-0.122,0.797,1.132,-132.127
 14:53:52.929,eb:33:2e:f9:57:b5, 2085-97-213 255:24:00:2033,-0.021,0.012,0.995,0,0,-0.061,0.797,1.132,-132.127
 14:53:52.929,eb:33:2e:f9:57:b5, 2085-97-212 255:24:00:2034,-0.02,0.012,0.994,0,-0.061,0,0.791,1.132,-132.127
 14:53:52.929,eb:33:2e:f9:57:b5, 2085-97-214 255:25:00:2032,-0.021,0.013,0.993,0.061,-0.122,0.061,0.791,1.132,-132.127
 14:53:52.959,eb:33:2e:f9:57:b5, 2085-97-213 255:26:00:2033,-0.021,0.013,0.993,0,-0.183,0,0.791,1.132,-132.127
 14:53:52.959,eb:33:2e:f9:57:b5, 2085-97-215 255:26:00:2031,-0.021,0.013,0.992,0,-0.244,0,0.791,1.132,-132.127
 14:53:52.959,eb:33:2e:f9:57:b5, 2085-97-215 255:27:00:2033,-0.02,0.013,0.993,-0.061,-0.305,0,0.791,1.132,-132.127
 14:53:52.959,eb:33:2e:f9:57:b5, 2085-97-217 255:25:00:2034,-0.021,0.012,0.994,-0.122,-0.183,-0.061,0.791,1.132,-132.127
 14:53:53.018,eb:33:2e:f9:57:b5, 2085-97-217 255:25:00:2035,-0.019,0.012,0.993,-0.061,-0.122,-0.122,0.791,1.132,-132.127
 14:53:53.018,eb:33:2e:f9:57:b5, 2085-97-215 255:27:00:2034,-0.02,0.013,0.994,-0.122,-0.061,-0.122,0.791,1.132,-132.122
 14:53:53.018,eb:33:2e:f9:57:b5, 2085-97-215 255:26:00:2033,-0.02,0.013,0.993,-0.122,0,-0.244,0.791,1.132,-132.122
 14:53:53.018,eb:33:2e:f9:57:b5, 2085-97-215 255:25:00:2035,-0.02,0.012,0.994,-0.183,0,-0.061,0.791,1.132,-132.122
 14:53:53.049,eb:33:2e:f9:57:b5, 2085-97-214 255:24:00:2035,-0.02,0.012,0.994,-0.122,0,-0.122,0.791,1.132,-132.122
 14:53:53.049,eb:33:2e:f9:57:b5, 2085-97-216 255:24:00:2032,-0.021,0.011,0.993,-0.122,-0.061,-0.122,0.791,1.132,-132.122
 14:53:53.049,eb:33:2e:f9:57:b5, 2085-97-215 255:24:00:2035,-0.02,0.011,0.993,-0.122,-0.061,-0.122,0.791,1.132,-132.122
 14:53:53.049,eb:33:2e:f9:57:b5, 2085-97-214 255:26:00:2032,-0.02,0.012,0.993,-0.122,-0.122,-0.183,0.791,1.132,-132.122
 14:53:53.079,eb:33:2e:f9:57:b5, 2085-97-217 255:24:00:2034,-0.02,0.013,0.993,-0.183,-0.183,-0.244,0.791,1.132,-132.122
 14:53:53.079,eb:33:2e:f9:57:b5, 2085-97-214 255:25:00:2033,-0.019,0.013,0.993,-0.244,-0.122,-0.244,0.791,1.132,-132.116
 14:53:53.079,eb:33:2e:f9:57:b5, 2085-97-217 255:23:00:2034,-0.019,0.012,0.993,-0.244,-0.061,-0.305,0.791,1.132,-132.116
 14:53:53.079,eb:33:2e:f9:57:b5, 2085-97-217 255:23:00:2037,-0.019,0.011,0.994,-0.183,0,-0.183,0.791,1.132,-132.116
 14:53:53.139,eb:33:2e:f9:57:b5, 2085-97-217 255:24:00:2036,-0.02,0.012,0.995,-0.122,0.122,-0.122,0.791,1.132,-132.116
 14:53:53.139,eb:33:2e:f9:57:b5, 2085-97-215 255:24:00:2034,-0.02,0.011,0.994,-0.122,0.122,-0.122,0.791,1.132,-132.116
 14:53:53.139,eb:33:2e:f9:57:b5, 2085-97-213 255:24:00:2032,-0.021,0.013,0.993,-0.122,0,-0.061,0.791,1.132,-132.116
 14:53:53.139,eb:33:2e:f9:57:b5, 2085-97-215 255:26:00:2033,-0.021,0.012,0.992,-0.061,0,-0.061,0.791,1.132,-132.116
 14:53:53.168,eb:33:2e:f9:57:b5, 2085-97-214 255:23:00:2032,-0.02,0.011,0.993,-0.061,-0.122,-0.061,0.791,1.137,-132.116
 14:53:53.168,eb:33:2e:f9:57:b5, 2085-97-217 255:23:00:2034,-0.02,0.011,0.993,-0.122,-0.122,-0.061,0.791,1.137,-132.116
 14:53:53.168,eb:33:2e:f9:57:b5, 2085-97-216 255:23:00:2034,-0.02,0.012,0.993,-0.183,-0.122,-0.122,0.791,1.137,-132.116
 14:53:53.168,eb:33:2e:f9:57:b5, 2085-97-217 255:25:00:2035,-0.019,0.012,0.993,-0.122,-0.061,-0.122,0.791,1.137,-132.111
 14:53:53.200,eb:33:2e:f9:57:b5, 2085-97-216 255:22:00:2036,-0.02,0.012,0.994,-0.122,0,-0.122,0.786,1.137,-132.111
 14:53:53.200,eb:33:2e:f9:57:b5, 2085-97-217 255:23:00:2038,-0.02,0.011,0.995,-0.061,-0.061,0,0.786,1.137,-132.111
 14:53:53.200,eb:33:2e:f9:57:b5, 2085-97-214 255:22:00:2033,-0.021,0.011,0.994,0,0,0,0.786,1.137,-132.111
 14:53:53.200,eb:33:2e:f9:57:b5, 2085-97-214 255:25:00:2032,-0.02,0.011,0.993,0,-0.183,0,0.786,1.137,-132.111
 14:53:53.258,eb:33:2e:f9:57:b5, 2085-97-216 255:24:00:2033,-0.021,0.012,0.993,0,-0.244,0.122,0.786,1.137,-132.111
 14:53:53.258,eb:33:2e:f9:57:b5, 2085-97-216 255:25:00:2033,-0.019,0.012,0.992,0,-0.244,0.061,0.786,1.137,-132.111
 14:53:53.258,eb:33:2e:f9:57:b5, 2085-97-216 255:24:00:2033,-0.02,0.012,0.993,-0.061,-0.244,0.061,0.786,1.137,-132.111
 14:53:53.258,eb:33:2e:f9:57:b5, 2085-97-216 255:25:00:2033,-0.02,0.012,0.992,0,-0.244,0,0.786,1.137,-132.105
 14:53:53.288,eb:33:2e:f9:57:b5, 2085-97-217 255:25:00:2034,-0.019,0.012,0.993,0,-0.183,0,0.786,1.137,-132.105
 14:53:53.288,eb:33:2e:f9:57:b5, 2085-97-216 255:24:00:2036,-0.019,0.013,0.993,-0.061,0,-0.122,0.786,1.137,-132.105
 14:53:53.288,eb:33:2e:f9:57:b5, 2085-97-218 255:23:00:2035,-0.02,0.011,0.994,0,0,-0.061,0.786,1.137,-132.105
 14:53:53.288,eb:33:2e:f9:57:b5, 2085-97-214 255:23:00:2036,-0.02,0.011,0.994,0,0,0,0.786,1.137,-132.105
 14:53:53.318,eb:33:2e:f9:57:b5, 2085-97-215 255:21:00:2036,-0.019,0.01,0.995,0.061,0,0.061,0.786,1.137,-132.105
 14:53:53.318,eb:33:2e:f9:57:b5, 2085-97-216 255:23:00:2037,-0.019,0.011,0.995,0.183,-0.122,0.244,0.786,1.137,-132.105
 14:53:53.318,eb:33:2e:f9:57:b5, 2085-97-215 255:24:00:2032,-0.021,0.012,0.993,0.244,-0.244,0.366,0.786,1.137,-132.105
 14:53:53.318,eb:33:2e:f9:57:b5, 2085-97-217 255:27:00:2036,-0.018,0.011,0.992,0.122,-0.366,0.305,0.786,1.137,-132.105
 14:53:53.379,eb:33:2e:f9:57:b5, 2085-97-214 255:26:00:2030,-0.019,0.012,0.995,0.183,-0.183,0.183,0.786,1.137,-132.105
 14:53:53.379,eb:33:2e:f9:57:b5, 2085-97-216 255:26:00:2032,-0.02,0.014,0.993,0.061,-0.183,0.122,0.786,1.137,-132.1
 14:53:53.379,eb:33:2e:f9:57:b5, 2085-97-217 255:25:00:2033,-0.018,0.013,0.992,0.061,-0.183,0,0.786,1.137,-132.1
 14:53:53.379,eb:33:2e:f9:57:b5, 2085-97-219 255:26:00:2036,-0.018,0.012,0.994,0,-0.122,-0.061,0.786,1.137,-132.1
 14:53:53.409,eb:33:2e:f9:57:b5, 2085-97-217 255:23:00:2036,-0.018,0.012,0.994,-0.061,0.061,-0.122,0.786,1.137,-132.1
 14:53:53.409,eb:33:2e:f9:57:b5, 2085-97-218 255:23:00:2036,-0.019,0.012,0.994,0,0,-0.122,0.786,1.137,-132.1
 14:53:53.409,eb:33:2e:f9:57:b5, 2085-97-216 255:25:00:2036,-0.02,0.011,0.995,0,0.061,-0.061,0.78,1.137,-132.1
 14:53:53.409,eb:33:2e:f9:57:b5, 2085-97-214 255:24:00:2033,-0.02,0.012,0.994,0.061,0,0,0.78,1.137,-132.1
 14:53:53.439,eb:33:2e:f9:57:b5, 2085-97-215 255:24:00:2032,-0.021,0.012,0.993,0.061,0,0.061,0.78,1.137,-132.1
 14:53:53.439,eb:33:2e:f9:57:b5, 2085-97-214 255:23:00:2033,-0.02,0.011,0.992,0.061,-0.122,0,0.78,1.137,-132.1
 14:53:53.439,eb:33:2e:f9:57:b5, 2085-97-216 255:26:00:2033,-0.019,0.012,0.993,0,-0.122,0,0.78,1.137,-132.1
 14:53:53.440,eb:33:2e:f9:57:b5, 2085-97-217 255:26:00:2034,-0.019,0.013,0.993,0,-0.061,-0.061,0.78,1.137,-132.094
 14:53:53.498,eb:33:2e:f9:57:b5, 2085-97-218 255:24:00:2035,-0.019,0.013,0.993,-0.061,0,-0.061,0.78,1.137,-132.094
 14:53:53.498,eb:33:2e:f9:57:b5, 2085-97-218 255:25:00:2035,-0.019,0.012,0.994,-0.122,0,-0.122,0.78,1.137,-132.094
 14:53:53.498,eb:33:2e:f9:57:b5, 2085-97-218 255:23:00:2037,-0.018,0.012,0.994,-0.061,0.061,-0.122,0.78,1.137,-132.094
 14:53:53.498,eb:33:2e:f9:57:b5, 2085-97-217 255:23:00:2034,-0.021,0.011,0.995,0,0.061,0.061,0.78,1.137,-132.094
 14:53:53.529,eb:33:2e:f9:57:b5, 2085-97-214 255:23:00:2032,-0.02,0.011,0.992,0.061,0,0.061,0.78,1.137,-132.094
 14:53:53.529,eb:33:2e:f9:57:b5, 2085-97-216 255:23:00:2034,-0.02,0.011,0.993,0.061,-0.122,0.061,0.78,1.137,-132.094
 14:53:53.529,eb:33:2e:f9:57:b5, 2085-97-215 255:24:00:2031,-0.02,0.012,0.992,0.061,-0.183,0.122,0.78,1.137,-132.094
 14:53:53.529,eb:33:2e:f9:57:b5, 2085-97-217 255:25:00:2034,-0.019,0.012,0.992,0,-0.183,0,0.78,1.137,-132.089
 14:53:53.618,eb:33:2e:f9:57:b5, 2085-97-219 255:24:00:2034,-0.019,0.012,0.994,0,-0.183,0,0.78,1.137,-132.089
 14:53:53.618,eb:33:2e:f9:57:b5, 2085-97-217 255:24:00:2034,-0.019,0.012,0.993,0,-0.122,-0.061,0.78,1.137,-132.089
 14:53:53.618,eb:33:2e:f9:57:b5, 2085-113-81 00:244:51:388,-0.018,0.013,0.994,0,-0.061,-0.061,0.78,1.137,-132.089
 14:53:53.618,eb:33:2e:f9:57:b5, 2085-97-217 255:24:00:2036,-0.019,0.012,0.995,0,0,-0.061,0.78,1.137,-132.089
 14:53:53.618,eb:33:2e:f9:57:b5, 2085-97-218 255:24:00:2035,-0.019,0.012,0.994,0,0,-0.061,0.78,1.137,-132.089
 14:53:53.620,eb:33:2e:f9:57:b5, 2085-97-217 255:23:00:2036,-0.02,0.01,0.995,0,-0.061,0,0.78,1.137,-132.089
 14:53:53.620,eb:33:2e:f9:57:b5, 2085-97-215 255:23:00:2034,-0.02,0.011,0.993,0.061,0,0,0.78,1.137,-132.089
 14:53:53.620,eb:33:2e:f9:57:b5, 2085-97-215 255:23:00:2036,-0.02,0.011,0.993,0.061,-0.061,0.061,0.78,1.137,-132.089
 14:53:53.620,eb:33:2e:f9:57:b5, 2085-97-216 255:24:00:2033,-0.02,0.012,0.993,0.122,-0.122,0.183,0.78,1.137,-132.089
 14:53:53.649,eb:33:2e:f9:57:b5, 2085-97-217 255:26:00:2032,-0.02,0.013,0.993,0.061,-0.122,0.183,0.78,1.137,-132.083
 14:53:53.649,eb:33:2e:f9:57:b5, 2085-97-217 255:25:00:2035,-0.019,0.012,0.993,0.061,-0.183,0.122,0.775,1.137,-132.083
 14:53:53.649,eb:33:2e:f9:57:b5, 2085-97-218 255:25:00:2033,-0.019,0.012,0.993,0.061,-0.183,0.061,0.78,1.137,-132.083
 14:53:53.649,eb:33:2e:f9:57:b5, 2085-97-217 255:28:00:2033,-0.018,0.012,0.992,0,-0.122,0,0.775,1.137,-132.083
 14:53:53.709,eb:33:2e:f9:57:b5, 2085-97-219 255:25:00:2035,-0.018,0.012,0.994,-0.061,-0.061,-0.061,0.775,1.137,-132.083
 14:53:53.709,eb:33:2e:f9:57:b5, 2085-97-218 255:23:00:2036,-0.019,0.013,0.994,0,0,0,0.775,1.137,-132.083
 14:53:53.709,eb:33:2e:f9:57:b5, 2085-97-215 255:23:00:2034,-0.02,0.012,0.993,0,0,0.061,0.775,1.137,-132.083
 14:53:53.709,eb:33:2e:f9:57:b5, 2085-97-216 255:24:00:2035,-0.02,0.012,0.993,0,-0.061,0.061,0.775,1.137,-132.083
 14:53:53.738,eb:33:2e:f9:57:b5, 2085-97-215 255:27:00:2029,-0.019,0.012,0.993,0,-0.061,0,0.775,1.137,-132.083
 14:53:53.738,eb:33:2e:f9:57:b5, 2085-97-218 255:25:00:2034,-0.02,0.012,0.992,0,-0.244,0,0.775,1.137,-132.083
 14:53:53.738,eb:33:2e:f9:57:b5, 2085-97-214 255:23:00:2032,-0.018,0.011,0.994,0,-0.122,0,0.775,1.137,-132.078
 14:53:53.738,eb:33:2e:f9:57:b5, 2085-97-219 255:25:00:2036,-0.018,0.012,0.993,0,-0.183,0,0.775,1.137,-132.078
 14:53:53.769,eb:33:2e:f9:57:b5, 2085-97-218 255:25:00:2036,-0.018,0.012,0.994,0,-0.061,0,0.775,1.137,-132.078
 14:53:53.769,eb:33:2e:f9:57:b5, 2085-97-220 255:26:00:2037,-0.018,0.013,0.995,0,0,0,0.775,1.137,-132.078
 14:53:53.769,eb:33:2e:f9:57:b5, 2085-97-219 255:25:00:2039,-0.018,0.013,0.995,0,0.061,-0.061,0.775,1.137,-132.078
 14:53:53.769,eb:33:2e:f9:57:b5, 2085-97-218 255:23:00:2035,-0.019,0.012,0.995,0,0.122,0,0.775,1.137,-132.078
 14:53:53.830,eb:33:2e:f9:57:b5, 2085-97-215 255:24:00:2033,-0.02,0.011,0.993,0.061,0.122,0.061,0.775,1.137,-132.078
 14:53:53.830,eb:33:2e:f9:57:b5, 2085-97-215 255:24:00:2033,-0.019,0.011,0.993,0.122,0,0.061,0.775,1.132,-132.078
 14:53:53.830,eb:33:2e:f9:57:b5, 2085-97-216 255:25:00:2032,-0.02,0.012,0.994,0.061,-0.061,0.122,0.775,1.132,-132.078
 14:53:53.830,eb:33:2e:f9:57:b5, 2085-97-217 255:26:00:2034,-0.019,0.012,0.992,0.061,-0.061,0.061,0.775,1.132,-132.078
 14:53:53.859,eb:33:2e:f9:57:b5, 2085-97-220 255:26:00:2033,-0.018,0.013,0.992,0,0,0,0.775,1.132,-132.072
 14:53:53.859,eb:33:2e:f9:57:b5, 2085-97-220 255:26:00:2035,-0.019,0.013,0.993,0,0.061,-0.061,0.775,1.132,-132.072
 14:53:53.859,eb:33:2e:f9:57:b5, 2085-97-218 255:26:00:2034,-0.02,0.013,0.994,0,0.122,-0.183,0.775,1.132,-132.072
 14:53:53.859,eb:33:2e:f9:57:b5, 2085-97-218 255:24:00:2035,-0.019,0.012,0.994,-0.061,0.122,-0.122,0.775,1.132,-132.072
 14:53:53.888,eb:33:2e:f9:57:b5, 2085-97-217 255:24:00:2034,-0.02,0.012,0.994,0,0.122,-0.122,0.775,1.132,-132.072
 14:53:53.888,eb:33:2e:f9:57:b5, 2085-97-216 255:25:00:2036,-0.02,0.012,0.994,0,0.183,-0.061,0.775,1.132,-132.072
 14:53:53.888,eb:33:2e:f9:57:b5, 2085-97-216 255:25:00:2036,-0.02,0.012,0.994,0,0.122,0,0.775,1.132,-132.072
 14:53:53.888,eb:33:2e:f9:57:b5, 2085-97-216 255:24:00:2034,-0.019,0.011,0.994,0.061,0.061,0,0.775,1.132,-132.072
 14:53:53.948,eb:33:2e:f9:57:b5, 2085-97-216 255:25:00:2034,-0.019,0.012,0.993,0.061,0,0,0.775,1.132,-132.072
 14:53:53.948,eb:33:2e:f9:57:b5, 2085-97-216 255:26:00:2034,-0.019,0.013,0.992,0,0,0,0.775,1.132,-132.072
 14:53:53.948,eb:33:2e:f9:57:b5, 2085-97-217 255:25:00:2035,-0.02,0.013,0.994,0,0,0,0.775,1.132,-132.067
 14:53:53.948,eb:33:2e:f9:57:b5, 2085-97-216 255:25:00:2035,-0.02,0.012,0.994,0,0.061,-0.061,0.775,1.132,-132.067
 14:53:53.978,eb:33:2e:f9:57:b5, 2085-97-218 255:24:00:2034,-0.019,0.012,0.994,-0.061,0.061,-0.061,0.775,1.132,-132.067
 14:53:53.978,eb:33:2e:f9:57:b5, 2085-97-217 255:24:00:2033,-0.019,0.012,0.993,-0.122,0.122,-0.122,0.775,1.132,-132.067
 14:53:53.978,eb:33:2e:f9:57:b5, 2085-97-217 255:25:00:2035,-0.019,0.012,0.993,-0.061,0.244,-0.183,0.775,1.132,-132.067
 14:53:53.978,eb:33:2e:f9:57:b5, 2085-97-215 255:27:00:2034,-0.02,0.013,0.993,-0.122,0.183,-0.061,0.775,1.132,-132.067
 14:53:54.008,eb:33:2e:f9:57:b5, 2085-97-215 255:25:00:2033,-0.019,0.013,0.993,-0.061,0.122,-0.122,0.775,1.132,-132.067
 14:53:54.008,eb:33:2e:f9:57:b5, 2085-97-217 255:25:00:2033,-0.019,0.013,0.993,-0.122,0.061,-0.122,0.769,1.132,-132.067
 14:53:54.008,eb:33:2e:f9:57:b5, 2085-97-216 255:26:00:2032,-0.02,0.012,0.993,-0.061,0.061,-0.122,0.769,1.132,-132.067
 14:53:54.008,eb:33:2e:f9:57:b5, 2085-97-215 255:25:00:2033,-0.02,0.012,0.993,-0.061,0.061,-0.183,0.769,1.132,-132.067
 14:53:54.069,eb:33:2e:f9:57:b5, 2085-97-216 255:24:00:2033,-0.02,0.012,0.993,-0.122,0.061,-0.183,0.769,1.132,-132.061
 14:53:54.069,eb:33:2e:f9:57:b5, 2085-97-216 255:25:00:2034,-0.02,0.012,0.994,-0.183,0.061,-0.244,0.769,1.132,-132.061
 14:53:54.069,eb:33:2e:f9:57:b5, 2085-97-217 255:25:00:2033,-0.02,0.013,0.994,-0.122,0.183,-0.244,0.769,1.132,-132.061
 14:53:54.070,eb:33:2e:f9:57:b5, 2085-97-216 255:24:00:2034,-0.02,0.013,0.992,-0.244,0.244,-0.244,0.769,1.132,-132.061
 14:53:54.098,eb:33:2e:f9:57:b5, 2085-97-219 255:24:00:2036,-0.018,0.012,0.993,-0.183,0.244,-0.183,0.769,1.132,-132.061
 14:53:54.098,eb:33:2e:f9:57:b5, 2085-97-215 255:24:00:2034,-0.021,0.012,0.994,-0.183,0.305,-0.244,0.769,1.132,-132.061
 14:53:54.098,eb:33:2e:f9:57:b5, 2085-97-216 255:21:00:2036,-0.019,0.011,0.993,-0.122,0.244,-0.183,0.769,1.132,-132.061
 14:53:54.098,eb:33:2e:f9:57:b5, 2085-97-211 255:24:00:2033,-0.021,0.011,0.995,-0.061,0.244,-0.061,0.769,1.132,-132.061
 14:53:54.129,eb:33:2e:f9:57:b5, 2085-97-211 255:23:00:2033,-0.02,0.011,0.993,-0.061,0.122,0,0.769,1.132,-132.061
 14:53:54.129,eb:33:2e:f9:57:b5, 2085-97-215 255:25:00:2035,-0.021,0.012,0.994,0,0,0,0.769,1.132,-132.061
 14:53:54.129,eb:33:2e:f9:57:b5, 2085-97-209 255:23:00:2030,-0.021,0.012,0.992,0,0,-0.061,0.769,1.132,-132.056
 14:53:54.129,eb:33:2e:f9:57:b5, 2085-97-219 255:26:00:2035,-0.02,0.012,0.993,-0.061,-0.122,0,0.769,1.132,-132.056
 14:53:54.188,eb:33:2e:f9:57:b5, 2085-97-213 255:23:00:2032,-0.02,0.011,0.992,-0.061,-0.061,-0.061,0.769,1.132,-132.056
 14:53:54.188,eb:33:2e:f9:57:b5, 2085-97-218 255:25:00:2037,-0.019,0.012,0.993,-0.122,-0.122,-0.122,0.769,1.137,-132.056
 14:53:54.188,eb:33:2e:f9:57:b5, 2085-97-217 255:24:00:2037,-0.02,0.012,0.994,-0.122,0,-0.122,0.769,1.137,-132.056
 14:53:54.188,eb:33:2e:f9:57:b5, 2085-97-216 255:22:00:2035,-0.02,0.011,0.994,-0.061,0.061,-0.061,0.769,1.137,-132.056
 14:53:54.218,eb:33:2e:f9:57:b5, 2085-97-214 255:22:00:2033,-0.02,0.011,0.994,0,0.061,-0.061,0.769,1.137,-132.056
 14:53:54.218,eb:33:2e:f9:57:b5, 2085-97-215 255:25:00:2037,-0.02,0.012,0.994,0,0,0,0.769,1.137,-132.056
 14:53:54.218,eb:33:2e:f9:57:b5, 2085-97-214 255:24:00:2034,-0.02,0.012,0.993,0,0,0,0.769,1.137,-132.056
 14:53:54.218,eb:33:2e:f9:57:b5, 2085-97-214 255:24:00:2033,-0.021,0.011,0.993,0,-0.061,0,0.769,1.137,-132.056
 14:53:54.249,eb:33:2e:f9:57:b5, 2085-97-216 255:26:00:2033,-0.02,0.012,0.992,0,-0.122,0,0.769,1.137,-132.05
 14:53:54.249,eb:33:2e:f9:57:b5, 2085-97-215 255:25:00:2032,-0.021,0.012,0.993,-0.061,-0.122,0,0.769,1.137,-132.05
 14:53:54.249,eb:33:2e:f9:57:b5, 2085-97-215 255:25:00:2033,-0.02,0.011,0.993,-0.061,-0.122,-0.061,0.769,1.137,-132.05
 14:53:54.249,eb:33:2e:f9:57:b5, 2085-97-216 255:24:00:2037,-0.02,0.012,0.993,-0.061,-0.061,-0.183,0.769,1.137,-132.05
 14:53:54.309,eb:33:2e:f9:57:b5, 2085-97-216 255:25:00:2037,-0.019,0.012,0.995,-0.122,0,-0.122,0.769,1.137,-132.05
 14:53:54.309,eb:33:2e:f9:57:b5, 2085-97-215 255:22:00:2036,-0.02,0.011,0.995,-0.061,0.183,-0.061,0.769,1.137,-132.05
 14:53:54.309,eb:33:2e:f9:57:b5, 2085-97-215 255:25:00:2034,-0.02,0.012,0.995,0,0.061,0,0.769,1.137,-132.05
 14:53:54.309,eb:33:2e:f9:57:b5, 2085-97-216 255:23:00:2035,-0.02,0.011,0.993,0,0,0,0.764,1.137,-132.05
 14:53:54.338,eb:33:2e:f9:57:b5, 2085-97-215 255:24:00:2033,-0.021,0.011,0.993,0,0,0.061,0.764,1.137,-132.05
 14:53:54.338,eb:33:2e:f9:57:b5, 2085-97-214 255:26:00:2033,-0.02,0.013,0.993,0,-0.061,0.061,0.764,1.137,-132.05
 14:53:54.338,eb:33:2e:f9:57:b5, 2085-97-215 255:24:00:2033,-0.021,0.013,0.993,0,-0.061,0,0.764,1.137,-132.045
 14:53:54.338,eb:33:2e:f9:57:b5, 2085-97-214 255:25:00:2034,-0.02,0.012,0.993,0,-0.183,0,0.764,1.137,-132.045
 14:53:54.370,eb:33:2e:f9:57:b5, 2085-97-216 255:26:00:2033,-0.019,0.012,0.993,-0.061,-0.122,-0.061,0.764,1.137,-132.045
 14:53:54.370,eb:33:2e:f9:57:b5, 2085-97-217 255:24:00:2036,-0.02,0.012,0.994,0,0,-0.122,0.764,1.137,-132.045
 14:53:54.370,eb:33:2e:f9:57:b5, 2085-97-215 255:24:00:2035,-0.02,0.012,0.993,0,0,-0.122,0.764,1.137,-132.045
 14:53:54.370,eb:33:2e:f9:57:b5, 2085-97-215 255:27:00:2031,-0.021,0.012,0.993,-0.061,0,-0.061,0.764,1.137,-132.045
 14:53:54.457,eb:33:2e:f9:57:b5, 2085-97-214 255:23:00:2031,-0.02,0.012,0.99,-0.061,-0.061,-0.122,0.764,1.137,-132.045
 14:53:54.457,eb:33:2e:f9:57:b5, 2085-113-58 00:43:228:-6405,-0.02,0.012,0.994,-0.061,0,-0.122,0.764,1.137,-132.045
 14:53:54.457,eb:33:2e:f9:57:b5, 2085-97-215 255:22:00:2033,-0.02,0.012,0.993,-0.061,0,-0.061,0.764,1.137,-132.045
 14:53:54.465,eb:33:2e:f9:57:b5, 2085-97-215 255:24:00:2034,-0.021,0.011,0.994,-0.061,-0.061,-0.122,0.764,1.137,-132.045
 14:53:54.465,eb:33:2e:f9:57:b5, 2085-97-216 255:24:00:2035,-0.02,0.011,0.993,0,-0.061,-0.061,0.764,1.137,-132.045
 14:53:54.465,eb:33:2e:f9:57:b5, 2085-97-216 255:24:00:2036,-0.02,0.013,0.994,0,0,-0.061,0.764,1.137,-132.039
 14:53:54.466,eb:33:2e:f9:57:b5, 2085-97-215 255:23:00:2036,-0.02,0.012,0.994,0,0,-0.061,0.764,1.137,-132.039
 14:53:54.466,eb:33:2e:f9:57:b5, 2085-97-215 255:22:00:2036,-0.019,0.011,0.994,-0.061,0,-0.061,0.764,1.137,-132.039
 14:53:54.489,eb:33:2e:f9:57:b5, 2085-97-215 255:23:00:2035,-0.02,0.011,0.994,-0.061,0.061,-0.061,0.764,1.137,-132.039
 14:53:54.489,eb:33:2e:f9:57:b5, 2085-97-215 255:23:00:2035,-0.021,0.011,0.994,0,0,0,0.764,1.137,-132.039
 14:53:54.489,eb:33:2e:f9:57:b5, 2085-97-215 255:23:00:2034,-0.02,0.011,0.993,0,0,0,0.764,1.137,-132.039
 14:53:54.489,eb:33:2e:f9:57:b5, 2085-97-215 255:24:00:2036,-0.02,0.011,0.994,0.061,0,0.061,0.764,1.137,-132.039
 14:53:54.548,eb:33:2e:f9:57:b5, 2085-97-214 255:23:00:2032,-0.021,0.011,0.993,0.061,-0.061,0.061,0.764,1.137,-132.039
 14:53:54.549,eb:33:2e:f9:57:b5, 2085-97-214 255:25:00:2033,-0.021,0.012,0.993,0.061,-0.122,0.061,0.764,1.137,-132.039
 14:53:54.549,eb:33:2e:f9:57:b5, 2085-97-215 255:25:00:2034,-0.02,0.012,0.993,0.061,-0.183,0,0.764,1.137,-132.039
 14:53:54.549,eb:33:2e:f9:57:b5, 2085-97-216 255:24:00:2034,-0.019,0.012,0.993,0,-0.061,0,0.764,1.137,-132.034
 14:53:54.609,eb:33:2e:f9:57:b5, 2085-97-217 255:25:00:2034,-0.02,0.012,0.993,0,-0.061,0,0.764,1.137,-132.034
 14:53:54.609,eb:33:2e:f9:57:b5, 2085-97-215 255:25:00:2035,-0.02,0.012,0.994,-0.061,0,-0.061,0.764,1.137,-132.034
 14:53:54.609,eb:33:2e:f9:57:b5, 2085-97-215 255:25:00:2033,-0.021,0.012,0.993,0,0,-0.061,0.764,1.137,-132.034
 14:53:54.609,eb:33:2e:f9:57:b5, 2085-97-215 255:23:00:2035,-0.02,0.012,0.994,-0.061,0,-0.061,0.764,1.137,-132.034
 14:53:54.611,eb:33:2e:f9:57:b5, 2085-97-215 255:24:00:2034,-0.019,0.011,0.993,-0.061,0,-0.061,0.758,1.137,-132.034
 14:53:54.611,eb:33:2e:f9:57:b5, 2085-97-216 255:24:00:2036,-0.02,0.011,0.995,-0.061,0,-0.061,0.758,1.137,-132.034
 14:53:54.611,eb:33:2e:f9:57:b5, 2085-97-215 255:25:00:2034,-0.02,0.011,0.994,-0.061,0,-0.061,0.758,1.137,-132.034
 14:53:54.611,eb:33:2e:f9:57:b5, 2085-97-216 255:22:00:2035,-0.017,0.012,0.993,-0.061,0,-0.061,0.758,1.137,-132.034
 14:53:54.668,eb:33:2e:f9:57:b5, 2085-97-211 255:23:00:2030,-0.022,0.012,0.996,0,0.183,-0.061,0.758,1.137,-132.034
 14:53:54.668,eb:33:2e:f9:57:b5, 2085-97-214 255:23:00:2031,-0.02,0.011,0.991,-0.061,-0.061,-0.061,0.758,1.137,-132.034
 14:53:54.668,eb:33:2e:f9:57:b5, 2085-97-217 255:24:00:2035,-0.02,0.011,0.993,-0.122,-0.061,-0.122,0.758,1.137,-132.034
 14:53:54.668,eb:33:2e:f9:57:b5, 2085-97-215 255:23:00:2035,-0.021,0.012,0.994,-0.244,0,-0.183,0.758,1.137,-132.028
 14:53:54.698,eb:33:2e:f9:57:b5, 2085-97-217 255:25:00:2034,-0.019,0.011,0.992,-0.183,0,-0.183,0.758,1.137,-132.028
 14:53:54.698,eb:33:2e:f9:57:b5, 2085-97-216 255:24:00:2035,-0.02,0.012,0.994,-0.122,0,-0.244,0.758,1.137,-132.028
 14:53:54.698,eb:33:2e:f9:57:b5, 2085-97-218 255:24:00:2034,-0.02,0.011,0.995,-0.183,0.122,-0.244,0.758,1.137,-132.028
 14:53:54.698,eb:33:2e:f9:57:b5, 2085-97-215 255:22:00:2033,-0.024,0.011,0.993,-0.183,0.244,-0.183,0.758,1.137,-132.028
 14:53:54.727,eb:33:2e:f9:57:b5, 2085-97-225 255:22:00:2053,-0.02,0.01,0.991,-0.305,-0.061,-0.122,0.758,1.137,-132.028
 14:53:54.728,eb:33:2e:f9:57:b5, 2085-97-218 255:25:00:2037,-0.02,0.009,0.994,-0.061,0,-0.183,0.758,1.137,-132.028
 14:53:54.728,eb:33:2e:f9:57:b5, 2085-97-214 255:23:00:2033,-0.02,0.011,0.993,0,0.061,-0.122,0.758,1.137,-132.028
 14:53:54.728,eb:33:2e:f9:57:b5, 2085-97-219 255:25:00:2033,-0.02,0.012,0.992,-0.183,0,-0.183,0.758,1.137,-132.028
 14:53:54.788,eb:33:2e:f9:57:b5, 2085-97-216 255:22:00:2035,-0.02,0.01,0.993,-0.183,0.061,-0.305,0.758,1.137,-132.028
 14:53:54.788,eb:33:2e:f9:57:b5, 2085-97-214 255:23:00:2036,-0.019,0.011,0.994,-0.183,0,-0.244,0.758,1.137,-132.023
 14:53:54.788,eb:33:2e:f9:57:b5, 2085-97-217 255:20:00:2035,-0.02,0.011,0.996,-0.183,0.122,-0.244,0.758,1.137,-132.023
 14:53:54.788,eb:33:2e:f9:57:b5, 2085-97-213 255:23:00:2035,-0.021,0.011,0.994,-0.122,0.183,-0.122,0.758,1.137,-132.023
 14:53:54.818,eb:33:2e:f9:57:b5, 2085-97-214 255:21:00:2034,-0.02,0.01,0.993,0,0,0,0.758,1.137,-132.023
 14:53:54.818,eb:33:2e:f9:57:b5, 2085-97-214 255:24:00:2035,-0.021,0.01,0.994,0,0,0.061,0.758,1.137,-132.023
 14:53:54.818,eb:33:2e:f9:57:b5, 2085-97-213 255:22:00:2035,-0.019,0.01,0.993,0,-0.122,0.061,0.758,1.137,-132.023
 14:53:54.818,eb:33:2e:f9:57:b5, 2085-97-217 255:23:00:2034,-0.02,0.011,0.994,0,-0.122,0,0.758,1.137,-132.023
