Time,Device name,Chip Time(),Acceleration X(g),Acceleration Y(g),Acceleration Z(g),Angular velocity X(°/s),Angular velocity Y(°/s),Angular velocity Z(°/s),Angle X(°),Angle Y(°),Angle Z(°)
 14:49:53.788,eb:33:2e:f9:57:b5, 2085-97-04 00:06:00:2030,0.003,0.004,0.992,-0.122,0,-0.061,0.203,-0.308,-127.919
 14:49:53.788,eb:33:2e:f9:57:b5, 2085-97-10 00:03:00:2034,0.004,0.002,0.993,-0.122,-0.244,-0.122,0.203,-0.308,-127.919
 14:49:53.788,eb:33:2e:f9:57:b5, 2085-97-07 00:06:00:2033,0.004,0.003,0.993,-0.061,-0.122,-0.061,0.203,-0.308,-127.925
 14:49:53.788,eb:33:2e:f9:57:b5, 2085-97-09 00:07:00:2034,0.005,0.003,0.992,-0.122,-0.122,-0.122,0.203,-0.308,-127.925
 14:49:53.817,eb:33:2e:f9:57:b5, 2085-97-09 00:06:00:2031,0.007,0.003,0.993,-0.122,0.061,-0.183,0.203,-0.308,-127.925
 14:49:53.817,eb:33:2e:f9:57:b5, 2085-97-09 00:06:00:2033,0.004,0.003,0.995,-0.244,0.122,-0.183,0.203,-0.308,-127.925
 14:49:53.817,eb:33:2e:f9:57:b5, 2085-97-09 00:08:00:2034,0.005,0.004,0.993,-0.305,0.305,-0.122,0.203,-0.308,-127.925
 14:49:53.817,eb:33:2e:f9:57:b5, 2085-97-08 00:08:00:2032,0.005,0.002,0.994,-0.244,0.427,-0.122,0.203,-0.308,-127.925
 14:49:53.878,eb:33:2e:f9:57:b5, 2085-97-08 00:04:00:2032,0.004,0.003,0.994,-0.244,0.488,0,0.203,-0.308,-127.93
 14:49:53.878,eb:33:2e:f9:57:b5, 2085-97-06 00:06:00:2033,0.002,0.002,0.994,-0.244,0.305,0,0.203,-0.308,-127.93
 14:49:53.878,eb:33:2e:f9:57:b5, 2085-97-06 00:06:00:2031,0.003,0.003,0.992,-0.244,0.122,-0.061,0.203,-0.308,-127.93
 14:49:53.878,eb:33:2e:f9:57:b5, 2085-97-03 00:02:00:2026,0.004,0.003,0.992,-0.305,0,-0.183,0.203,-0.308,-127.93
 14:49:53.907,eb:33:2e:f9:57:b5, 2085-97-05 00:06:00:2030,0.003,0.004,0.992,-0.305,-0.061,-0.244,0.203,-0.308,-127.93
 14:49:53.907,eb:33:2e:f9:57:b5, 2085-97-04 00:03:00:2030,0.004,0.002,0.992,-0.305,-0.122,-0.305,0.203,-0.308,-127.93
 14:49:53.907,eb:33:2e:f9:57:b5, 2085-97-07 00:04:00:2035,0.003,0.002,0.994,-0.305,-0.183,-0.244,0.203,-0.308,-127.936
 14:49:53.907,eb:33:2e:f9:57:b5, 2085-97-07 00:03:00:2034,0.004,0.002,0.994,-0.244,-0.244,-0.183,0.203,-0.308,-127.936
 14:49:53.937,eb:33:2e:f9:57:b5, 2085-97-11 00:06:00:2037,0.004,0.002,0.995,-0.122,-0.244,-0.183,0.203,-0.308,-127.936
 14:49:53.937,eb:33:2e:f9:57:b5, 2085-97-07 00:05:00:2034,0.005,0.002,0.993,-0.122,-0.244,-0.061,0.198,-0.308,-127.936
 14:49:53.937,eb:33:2e:f9:57:b5, 2085-113-58 00:180:226:-5865,0.003,0.003,0.995,-0.122,-0.183,-0.122,0.198,-0.308,-127.941
 14:49:53.937,eb:33:2e:f9:57:b5, 2085-97-10 00:05:00:2036,0.004,0.002,0.993,0,-0.305,-0.122,0.198,-0.308,-127.941
 14:49:53.996,eb:33:2e:f9:57:b5, 2085-97-10 00:05:00:2036,0.004,0.002,0.994,0,-0.244,0,0.198,-0.302,-127.941
 14:49:53.996,eb:33:2e:f9:57:b5, 2085-97-09 00:05:00:2033,0.003,0.003,0.993,0,-0.305,-0.061,0.198,-0.302,-127.941
 14:49:53.996,eb:33:2e:f9:57:b5, 2085-97-12 00:04:00:2035,0.004,0.002,0.993,0,-0.305,-0.061,0.198,-0.302,-127.941
 14:49:53.996,eb:33:2e:f9:57:b5, 2085-97-06 00:04:00:2032,0.005,0.002,0.993,0,-0.244,0,0.198,-0.302,-127.941
 14:49:54.026,eb:33:2e:f9:57:b5, 2085-97-11 00:03:00:2036,0.006,0.002,0.994,0,-0.244,0.061,0.198,-0.302,-127.941
 14:49:54.026,eb:33:2e:f9:57:b5, 2085-97-05 00:03:00:2031,0.004,0.002,0.995,0,0,0.183,0.198,-0.302,-127.947
 14:49:54.026,eb:33:2e:f9:57:b5, 2085-97-11 00:04:00:2036,0.005,0.002,0.992,0.061,-0.183,0.122,0.198,-0.302,-127.947
 14:49:54.026,eb:33:2e:f9:57:b5, 2085-97-09 00:06:00:2035,0.005,0.001,0.994,0,-0.061,0.183,0.198,-0.302,-127.947
 14:49:54.056,eb:33:2e:f9:57:b5, 2085-97-04 00:03:00:2029,0.005,0.003,0.995,0.061,0,0.305,0.198,-0.302,-127.947
 14:49:54.056,eb:33:2e:f9:57:b5, 2085-97-09 00:02:00:2034,0.004,0.003,0.993,0.183,-0.305,0.244,0.198,-0.302,-127.947
 14:49:54.056,eb:33:2e:f9:57:b5, 2085-97-11 00:06:00:2035,0.005,0.001,0.993,0.244,-0.366,0.366,0.198,-0.302,-127.947
 14:49:54.056,eb:33:2e:f9:57:b5, 2085-97-09 00:05:00:2033,0.005,0.002,0.994,0.244,-0.244,0.427,0.198,-0.302,-127.952
 14:49:54.117,eb:33:2e:f9:57:b5, 2085-97-09 00:07:00:2031,0.005,0.003,0.992,0.244,-0.305,0.366,0.198,-0.302,-127.952
 14:49:54.117,eb:33:2e:f9:57:b5, 2085-97-09 00:06:00:2030,0.003,0.003,0.993,0.244,-0.244,0.366,0.198,-0.302,-127.952
 14:49:54.117,eb:33:2e:f9:57:b5, 2085-97-07 00:09:00:2030,0.004,0.004,0.993,0.122,-0.244,0.244,0.198,-0.302,-127.952
 14:49:54.117,eb:33:2e:f9:57:b5, 2085-97-11 00:06:00:2033,0.005,0.003,0.991,0.061,-0.244,0.122,0.198,-0.302,-127.952
 14:49:54.147,eb:33:2e:f9:57:b5, 2085-97-09 00:05:00:2030,0.004,0.003,0.994,0,-0.183,0,0.198,-0.302,-127.952
 14:49:54.147,eb:33:2e:f9:57:b5, 2085-97-08 00:05:00:2032,0.004,0.003,0.992,0,-0.244,0,0.198,-0.302,-127.958
 14:49:54.147,eb:33:2e:f9:57:b5, 2085-97-11 00:06:00:2036,0.004,0.002,0.992,-0.061,-0.244,-0.122,0.198,-0.302,-127.958
 14:49:54.147,eb:33:2e:f9:57:b5, 2085-97-12 00:08:00:2032,0.004,0.003,0.992,0,-0.183,0,0.198,-0.302,-127.958
 14:49:54.207,eb:33:2e:f9:57:b5, 2085-97-11 00:05:00:2032,0.006,0.003,0.992,-0.061,-0.244,-0.122,0.198,-0.302,-127.958
 14:49:54.207,eb:33:2e:f9:57:b5, 2085-97-09 00:04:00:2032,0.004,0.003,0.993,-0.061,-0.183,-0.122,0.198,-0.302,-127.958
 14:49:54.207,eb:33:2e:f9:57:b5, 2085-97-10 00:06:00:2034,0.005,0.003,0.992,0,-0.244,-0.122,0.198,-0.302,-127.958
 14:49:54.207,eb:33:2e:f9:57:b5, 2085-97-11 00:06:00:2033,0.004,0.003,0.993,0,-0.183,-0.061,0.198,-0.302,-127.963
 14:49:54.237,eb:33:2e:f9:57:b5, 2085-97-11 00:06:00:2034,0.005,0.003,0.992,-0.061,-0.122,-0.061,0.198,-0.302,-127.963
 14:49:54.237,eb:33:2e:f9:57:b5, 2085-97-13 00:06:00:2032,0.005,0.003,0.993,-0.061,-0.061,-0.122,0.198,-0.302,-127.963
 14:49:54.237,eb:33:2e:f9:57:b5, 2085-97-13 00:07:00:2034,0.006,0.003,0.992,-0.122,-0.061,-0.183,0.198,-0.302,-127.963
 14:49:54.237,eb:33:2e:f9:57:b5, 2085-97-11 00:05:00:2034,0.005,0.003,0.994,-0.183,0,-0.061,0.198,-0.302,-127.963
 14:49:54.298,eb:33:2e:f9:57:b5, 2085-97-11 00:05:00:2036,0.005,0.002,0.994,-0.122,0,-0.061,0.198,-0.302,-127.963
 14:49:54.298,eb:33:2e:f9:57:b5, 2085-97-11 00:06:00:2034,0.004,0.002,0.994,-0.122,0,0,0.198,-0.302,-127.969
 14:49:54.298,eb:33:2e:f9:57:b5, 2085-97-09 00:05:00:2032,0.004,0.002,0.993,-0.122,0.061,0,0.198,-0.302,-127.969
 14:49:54.298,eb:33:2e:f9:57:b5, 2085-97-10 00:03:00:2031,0.004,0.002,0.992,-0.061,0.061,0,0.198,-0.302,-127.969
 14:49:54.298,eb:33:2e:f9:57:b5, 2085-97-09 00:05:00:2031,0.004,0.002,0.991,-0.122,0.061,0,0.192,-0.302,-127.969
 14:49:54.298,eb:33:2e:f9:57:b5, 2085-97-10 00:05:00:2031,0.005,0.002,0.991,-0.122,0,-0.122,0.192,-0.302,-127.969
 14:49:54.298,eb:33:2e:f9:57:b5, 2085-97-11 00:05:00:2032,0.005,0.003,0.993,-0.122,0,-0.122,0.192,-0.302,-127.969
 14:49:54.298,eb:33:2e:f9:57:b5, 2085-97-12 00:06:00:2033,0.005,0.003,0.993,-0.122,0,-0.061,0.192,-0.302,-127.974
 14:49:54.357,eb:33:2e:f9:57:b5, 2085-97-10 00:05:00:2032,0.005,0.003,0.992,-0.122,-0.061,-0.183,0.192,-0.302,-127.974
 14:49:54.357,eb:33:2e:f9:57:b5, 2085-97-11 00:06:00:2033,0.005,0.002,0.993,-0.122,-0.061,-0.122,0.192,-0.302,-127.974
 14:49:54.357,eb:33:2e:f9:57:b5, 2085-97-11 00:06:00:2030,0.004,0.003,0.992,-0.183,0,-0.122,0.192,-0.302,-127.974
 14:49:54.357,eb:33:2e:f9:57:b5, 2085-97-09 00:05:00:2032,0.005,0.002,0.991,-0.244,0,-0.183,0.192,-0.302,-127.974
 14:49:54.388,eb:33:2e:f9:57:b5, 2085-97-13 00:04:00:2035,0.006,0.002,0.993,-0.183,-0.061,-0.244,0.192,-0.302,-127.974
 14:49:54.388,eb:33:2e:f9:57:b5, 2085-97-11 00:04:00:2034,0.005,0.002,0.994,-0.244,0.061,-0.183,0.192,-0.302,-127.98
 14:49:54.388,eb:33:2e:f9:57:b5, 2085-97-09 00:04:00:2037,0.005,0.001,0.993,-0.183,0.061,-0.122,0.192,-0.302,-127.98
 14:49:54.388,eb:33:2e:f9:57:b5, 2085-97-10 00:03:00:2035,0.006,0.002,0.994,-0.122,0,-0.122,0.192,-0.302,-127.98
 14:49:54.446,eb:33:2e:f9:57:b5, 2085-97-09 00:05:00:2033,0.004,0.002,0.993,-0.061,0,-0.061,0.192,-0.302,-127.98
 14:49:54.446,eb:33:2e:f9:57:b5, 2085-97-09 00:04:00:2033,0.006,0.002,0.993,-0.122,0,-0.061,0.192,-0.302,-127.98
 14:49:54.446,eb:33:2e:f9:57:b5, 2085-97-09 00:04:00:2034,0.005,0.002,0.993,0,0,0,0.192,-0.302,-127.98
 14:49:54.446,eb:33:2e:f9:57:b5, 2085-97-12 00:04:00:2035,0.005,0.002,0.993,-0.061,0,0,0.192,-0.302,-127.985
 14:49:54.477,eb:33:2e:f9:57:b5, 2085-97-11 00:05:00:2033,0.005,0.002,0.992,-0.061,0.061,-0.061,0.192,-0.302,-127.985
 14:49:54.477,eb:33:2e:f9:57:b5, 2085-97-10 00:06:00:2033,0.005,0.002,0.993,-0.061,0,0,0.192,-0.302,-127.985
 14:49:54.477,eb:33:2e:f9:57:b5, 2085-97-10 00:03:00:2033,0.005,0.001,0.993,0,0,-0.061,0.192,-0.302,-127.985
 14:49:54.477,eb:33:2e:f9:57:b5, 2085-97-10 00:05:00:2035,0.005,0.002,0.993,-0.122,0,-0.061,0.192,-0.302,-127.985
 14:49:54.536,eb:33:2e:f9:57:b5, 2085-97-10 00:05:00:2034,0.005,0.002,0.994,-0.061,0,-0.061,0.192,-0.302,-127.985
 14:49:54.536,eb:33:2e:f9:57:b5, 2085-97-10 00:04:00:2033,0.005,0.002,0.993,0,0,0,0.192,-0.302,-127.991
 14:49:54.536,eb:33:2e:f9:57:b5, 2085-97-11 00:06:00:2033,0.004,0.002,0.993,-0.061,0,-0.061,0.192,-0.302,-127.991
 14:49:54.536,eb:33:2e:f9:57:b5, 2085-97-09 00:05:00:2032,0.005,0.002,0.993,-0.122,0.061,-0.061,0.192,-0.302,-127.991
 14:49:54.538,eb:33:2e:f9:57:b5, 2085-97-10 00:05:00:2032,0.005,0.003,0.992,-0.122,0.061,-0.122,0.192,-0.302,-127.991
 14:49:54.538,eb:33:2e:f9:57:b5, 2085-97-11 00:04:00:2033,0.005,0.002,0.992,-0.122,0.061,-0.183,0.192,-0.302,-127.991
 14:49:54.538,eb:33:2e:f9:57:b5, 2085-97-10 00:02:00:2032,0.005,0.001,0.992,-0.122,0,-0.183,0.192,-0.302,-127.991
 14:49:54.538,eb:33:2e:f9:57:b5, 2085-97-10 00:04:00:2033,0.004,0.001,0.992,-0.122,0,-0.244,0.192,-0.302,-127.996
 14:49:54.598,eb:33:2e:f9:57:b5, 2085-97-09 00:04:00:2035,0.005,0.002,0.993,-0.122,0,-0.183,0.192,-0.302,-127.996
 14:49:54.598,eb:33:2e:f9:57:b5, 2085-97-12 00:02:00:2037,0.005,0.001,0.994,-0.122,0.122,-0.122,0.192,-0.308,-127.996
 14:49:54.598,eb:33:2e:f9:57:b5, 2085-97-11 00:02:00:2035,0.004,0.001,0.995,-0.061,0.183,-0.061,0.187,-0.302,-127.996
 14:49:54.598,eb:33:2e:f9:57:b5, 2085-97-09 00:01:00:2034,0.004,0.002,0.994,-0.122,0.183,0,0.187,-0.308,-127.996
 14:49:54.627,eb:33:2e:f9:57:b5, 2085-97-09 00:03:00:2033,0.004,0,0.994,0,0,0,0.187,-0.308,-127.996
 14:49:54.627,eb:33:2e:f9:57:b5, 2085-97-09 00:03:00:2033,0.004,0.001,0.993,0.061,0,0,0.187,-0.308,-127.996
 14:49:54.627,eb:33:2e:f9:57:b5, 2085-97-09 00:04:00:2032,0.005,0.002,0.993,0,-0.061,0,0.187,-0.302,-127.996
 14:49:54.627,eb:33:2e:f9:57:b5, 2085-97-10 00:05:00:2032,0.005,0.002,0.992,0,0,0,0.187,-0.308,-128.002
 14:49:54.686,eb:33:2e:f9:57:b5, 2085-97-11 00:03:00:2034,0.005,0.002,0.993,0,0,0,0.187,-0.302,-128.002
 14:49:54.686,eb:33:2e:f9:57:b5, 2085-97-10 00:03:00:2036,0.005,0.001,0.994,0,0,0,0.187,-0.302,-128.002
 14:49:54.686,eb:33:2e:f9:57:b5, 2085-113-81 00:26:56:-055,0.004,0.002,0.993,0,0,0,0.187,-0.302,-128.002
 14:49:54.686,eb:33:2e:f9:57:b5, 2085-97-10 00:04:00:2034,0.004,0.002,0.994,0.061,0,0.061,0.187,-0.302,-128.002
 14:49:54.686,eb:33:2e:f9:57:b5, 2085-97-09 00:03:00:2034,0.003,0.002,0.993,0,0,0,0.187,-0.302,-128.002
 14:49:54.716,eb:33:2e:f9:57:b5, 2085-97-07 00:03:00:2033,0.004,0.001,0.992,0,-0.061,0,0.187,-0.302,-128.007
 14:49:54.716,eb:33:2e:f9:57:b5, 2085-97-09 00:05:00:2034,0.005,0.002,0.992,0.061,-0.122,0,0.187,-0.302,-128.007
 14:49:54.716,eb:33:2e:f9:57:b5, 2085-97-10 00:04:00:2034,0.005,0.002,0.993,0.061,-0.183,0,0.187,-0.302,-128.007
 14:49:54.716,eb:33:2e:f9:57:b5, 2085-97-11 00:04:00:2034,0.005,0.002,0.993,0,-0.122,0,0.187,-0.302,-128.007
 14:49:54.747,eb:33:2e:f9:57:b5, 2085-97-09 00:04:00:2033,0.005,0.001,0.993,0,-0.183,0,0.187,-0.302,-128.007
 14:49:54.747,eb:33:2e:f9:57:b5, 2085-97-12 00:04:00:2034,0.006,0.001,0.993,0,-0.061,0,0.187,-0.302,-128.007
 14:49:54.747,eb:33:2e:f9:57:b5, 2085-97-18 00:04:00:2039,0.002,0.002,0.994,0,0,0.122,0.187,-0.302,-128.013
 14:49:54.747,eb:33:2e:f9:57:b5, 2085-97-03 00:06:00:2023,0.003,0,0.989,0,0.183,0.122,0.187,-0.302,-128.013
 14:49:54.807,eb:33:2e:f9:57:b5, 2085-97-18 00:06:00:2039,0.007,0.002,0.991,0.061,-0.244,-0.061,0.187,-0.302,-128.013
 14:49:54.807,eb:33:2e:f9:57:b5, 2085-97-11 00:05:00:2033,0.005,0.002,0.994,0.061,0,0,0.181,-0.302,-128.013
 14:49:54.807,eb:33:2e:f9:57:b5, 2085-97-10 00:05:00:2033,0.005,0.002,0.993,0,0,0.061,0.181,-0.302,-128.013
 14:49:54.807,eb:33:2e:f9:57:b5, 2085-97-10 00:03:00:2032,0.004,0.002,0.993,0,0,0,0.181,-0.302,-128.013
 14:49:54.837,eb:33:2e:f9:57:b5, 2085-97-08 00:04:00:2033,0.004,0.001,0.993,0,0,0,0.181,-0.302,-128.018
 14:49:54.837,eb:33:2e:f9:57:b5, 2085-97-11 00:06:00:2038,0.005,0.002,0.993,0,0,0,0.181,-0.302,-128.018
 14:49:54.837,eb:33:2e:f9:57:b5, 2085-97-11 00:04:00:2035,0.005,0.002,0.994,0,0.061,0.061,0.181,-0.302,-128.018
 14:49:54.837,eb:33:2e:f9:57:b5, 2085-97-10 00:04:00:2033,0.002,0.001,0.994,0.061,0.122,0.122,0.181,-0.302,-128.018
 14:49:54.868,eb:33:2e:f9:57:b5, 2085-97-08 00:06:00:2031,0.005,0.002,0.989,0.061,0,0.061,0.181,-0.302,-128.018
 14:49:54.868,eb:33:2e:f9:57:b5, 2085-97-10 00:04:00:2033,0.005,0.002,0.993,0.061,0,0,0.181,-0.302,-128.018
 14:49:54.868,eb:33:2e:f9:57:b5, 2085-97-09 00:04:00:2031,0.005,0.002,0.993,0.061,0,0,0.181,-0.302,-128.024
 14:49:54.868,eb:33:2e:f9:57:b5, 2085-97-10 00:04:00:2035,0.005,0.002,0.992,0,0,0,0.181,-0.302,-128.024
 14:49:54.928,eb:33:2e:f9:57:b5, 2085-97-10 00:04:00:2033,0.004,0.002,0.994,0,0.061,0,0.181,-0.302,-128.024
 14:49:54.928,eb:33:2e:f9:57:b5, 2085-97-09 00:05:00:2033,0.004,0.002,0.993,0.061,0,0,0.181,-0.302,-128.024
 14:49:54.928,eb:33:2e:f9:57:b5, 2085-97-13 00:04:00:2033,0.005,0.001,0.993,0.061,0.061,0.061,0.181,-0.302,-128.024
 14:49:54.928,eb:33:2e:f9:57:b5, 2085-97-08 00:05:00:2032,0.004,0.002,0.992,0,0,0.061,0.181,-0.302,-128.024
 14:49:55.016,eb:33:2e:f9:57:b5, 2085-97-09 00:04:00:2031,0.004,0.002,0.992,0,0,0,0.181,-0.302,-128.024
 14:49:55.016,eb:33:2e:f9:57:b5, 2085-97-09 00:06:00:2033,0.004,0.002,0.993,0,-0.061,0,0.181,-0.302,-128.024
 14:49:55.016,eb:33:2e:f9:57:b5, 2085-97-10 00:04:00:2034,0.005,0.002,0.994,0,0,0,0.181,-0.302,-128.029
 14:49:55.016,eb:33:2e:f9:57:b5, 2085-97-09 00:03:00:2034,0.004,0.002,0.994,0,0,0,0.181,-0.302,-128.029
 14:49:55.019,eb:33:2e:f9:57:b5, 2085-97-10 00:03:00:2033,0.004,0.002,0.993,0,0,0,0.181,-0.302,-128.029
 14:49:55.019,eb:33:2e:f9:57:b5, 2085-97-09 00:04:00:2033,0.005,0.002,0.993,0,0,-0.061,0.181,-0.302,-128.029
 14:49:55.019,eb:33:2e:f9:57:b5, 2085-97-10 00:05:00:2031,0.005,0.002,0.992,0,0,-0.061,0.181,-0.302,-128.029
 14:49:55.019,eb:33:2e:f9:57:b5, 2085-97-10 00:06:00:2031,0.004,0.002,0.992,0,0,-0.061,0.181,-0.302,-128.029
 14:49:55.048,eb:33:2e:f9:57:b5, 2085-97-11 00:05:00:2033,0.004,0.002,0.993,-0.061,0,-0.122,0.181,-0.302,-128.035
 14:49:55.048,eb:33:2e:f9:57:b5, 2085-97-10 00:03:00:2034,0.005,0.002,0.993,-0.061,0,-0.061,0.181,-0.302,-128.035
 14:49:55.048,eb:33:2e:f9:57:b5, 2085-97-11 00:05:00:2035,0.006,0.002,0.994,-0.061,0,-0.122,0.181,-0.302,-128.035
 14:49:55.048,eb:33:2e:f9:57:b5, 2085-97-10 00:05:00:2033,0.004,0.001,0.993,-0.061,0.061,-0.061,0.181,-0.302,-128.035
 14:49:55.076,eb:33:2e:f9:57:b5, 2085-97-09 00:05:00:2034,0.005,0.002,0.992,-0.061,0.061,0,0.181,-0.302,-128.035
 14:49:55.076,eb:33:2e:f9:57:b5, 2085-97-08 00:04:00:2032,0.003,0.002,0.993,0,0.061,-0.122,0.181,-0.302,-128.035
 14:49:55.076,eb:33:2e:f9:57:b5, 2085-97-08 00:06:00:2033,0.004,0.002,0.992,0,0,-0.061,0.181,-0.302,-128.04
 14:49:55.076,eb:33:2e:f9:57:b5, 2085-97-10 00:05:00:2033,0.005,0.002,0.993,0,0,-0.061,0.176,-0.302,-128.04
 14:49:55.107,eb:33:2e:f9:57:b5, 2085-97-10 00:05:00:2035,0.005,0.002,0.993,0,0.061,0,0.176,-0.302,-128.04
 14:49:55.107,eb:33:2e:f9:57:b5, 2085-97-10 00:05:00:2033,0.006,0.002,0.994,0,0.061,0,0.176,-0.302,-128.04
 14:49:55.107,eb:33:2e:f9:57:b5, 2085-97-09 00:04:00:2032,0.005,0.003,0.993,0,0.061,-0.061,0.176,-0.302,-128.04
 14:49:55.107,eb:33:2e:f9:57:b5, 2085-97-11 00:06:00:2033,0.004,0.002,0.993,0,0.122,-0.061,0.176,-0.302,-128.04
 14:49:55.166,eb:33:2e:f9:57:b5, 2085-97-09 00:03:00:2032,0.005,0.003,0.992,0,0.183,-0.122,0.176,-0.302,-128.046
 14:49:55.166,eb:33:2e:f9:57:b5, 2085-97-09 00:02:00:2034,0.004,0.001,0.994,0,0.183,0,0.176,-0.302,-128.046
 14:49:55.166,eb:33:2e:f9:57:b5, 2085-97-07 00:05:00:2031,0.003,0.002,0.993,0,0.183,0,0.176,-0.302,-128.046
 14:49:55.166,eb:33:2e:f9:57:b5, 2085-97-07 00:04:00:2033,0.004,0.003,0.992,0,0.061,-0.061,0.176,-0.302,-128.046
 14:49:55.197,eb:33:2e:f9:57:b5, 2085-97-07 00:04:00:2030,0.004,0.001,0.992,0,0.061,-0.061,0.176,-0.302,-128.046
 14:49:55.197,eb:33:2e:f9:57:b5, 2085-97-09 00:04:00:2033,0.004,0.002,0.991,0,0.061,-0.183,0.176,-0.302,-128.046
 14:49:55.197,eb:33:2e:f9:57:b5, 2085-97-10 00:05:00:2034,0.005,0.001,0.992,0,0,-0.183,0.176,-0.302,-128.046
 14:49:55.197,eb:33:2e:f9:57:b5, 2085-97-09 00:05:00:2033,0.005,0.003,0.993,0,0.061,-0.183,0.176,-0.302,-128.046
 14:49:55.226,eb:33:2e:f9:57:b5, 2085-97-08 00:05:00:2034,0.005,0.002,0.992,0,0.122,-0.183,0.176,-0.302,-128.051
 14:49:55.226,eb:33:2e:f9:57:b5, 2085-97-09 00:04:00:2032,0.004,0.002,0.992,-0.061,0.183,-0.122,0.176,-0.302,-128.051
 14:49:55.226,eb:33:2e:f9:57:b5, 2085-113-58 00:120:226:-5955,0.004,0.002,0.992,-0.122,0.122,-0.183,0.176,-0.302,-128.051
 14:49:55.226,eb:33:2e:f9:57:b5, 2085-97-10 00:04:00:2035,0.004,0.001,0.993,-0.122,0.183,-0.183,0.176,-0.302,-128.051
 14:49:55.287,eb:33:2e:f9:57:b5, 2085-97-07 00:03:00:2034,0.003,0.001,0.993,-0.061,0.183,-0.183,0.176,-0.302,-128.051
 14:49:55.287,eb:33:2e:f9:57:b5, 2085-97-04 00:03:00:2031,0.003,0.001,0.993,-0.122,0.183,-0.122,0.176,-0.302,-128.051
 14:49:55.287,eb:33:2e:f9:57:b5, 2085-97-07 00:04:00:2031,0.004,0.001,0.992,-0.122,0,-0.183,0.176,-0.302,-128.051
 14:49:55.287,eb:33:2e:f9:57:b5, 2085-97-09 00:04:00:2032,0.004,0.002,0.993,-0.061,0.061,-0.244,0.176,-0.302,-128.057
 14:49:55.316,eb:33:2e:f9:57:b5, 2085-97-09 00:04:00:2033,0.004,0.002,0.993,-0.061,0.122,-0.244,0.176,-0.302,-128.057
 14:49:55.316,eb:33:2e:f9:57:b5, 2085-97-07 00:05:00:2032,0.005,0.002,0.994,-0.061,0.061,-0.183,0.176,-0.302,-128.057
 14:49:55.316,eb:33:2e:f9:57:b5, 2085-97-07 00:04:00:2034,0.003,0.002,0.993,-0.061,0.122,-0.183,0.176,-0.302,-128.057
 14:49:55.316,eb:33:2e:f9:57:b5, 2085-97-11 00:03:00:2037,0.004,0.002,0.993,-0.122,0.122,-0.183,0.176,-0.302,-128.057
 14:49:55.348,eb:33:2e:f9:57:b5, 2085-97-07 00:02:00:2033,0.002,0.001,0.993,-0.061,0.244,-0.061,0.176,-0.302,-128.057
 14:49:55.348,eb:33:2e:f9:57:b5, 2085-97-07 00:05:00:2033,0.004,0.001,0.992,0,0.122,-0.061,0.176,-0.302,-128.062
 14:49:55.348,eb:33:2e:f9:57:b5, 2085-97-09 00:03:00:2036,0.003,0.002,0.994,-0.061,0.122,-0.061,0.176,-0.302,-128.062
 14:49:55.348,eb:33:2e:f9:57:b5, 2085-97-06 00:03:00:2033,0.003,0.001,0.993,-0.061,0.183,0,0.176,-0.302,-128.062
 14:49:55.407,eb:33:2e:f9:57:b5, 2085-97-05 00:02:00:2033,0.004,0.001,0.993,0,0.122,0.061,0.176,-0.302,-128.062
 14:49:55.407,eb:33:2e:f9:57:b5, 2085-97-04 00:02:00:2032,0.003,0.001,0.995,0,0.122,0.061,0.176,-0.302,-128.062
 14:49:55.407,eb:33:2e:f9:57:b5, 2085-97-07 00:04:00:2031,0.003,0.002,0.992,0,0,0,0.17,-0.302,-128.062
 14:49:55.407,eb:33:2e:f9:57:b5, 2085-97-07 00:05:00:2032,0.005,0.002,0.992,0,0,0,0.17,-0.302,-128.062
 14:49:55.438,eb:33:2e:f9:57:b5, 2085-97-10 00:04:00:2033,0.004,0.002,0.993,0,0,0,0.17,-0.302,-128.062
 14:49:55.438,eb:33:2e:f9:57:b5, 2085-97-08 00:05:00:2036,0.003,0.001,0.994,0,0.122,0,0.17,-0.302,-128.068
 14:49:55.438,eb:33:2e:f9:57:b5, 2085-97-08 00:03:00:2034,0.003,0.002,0.994,0,0.183,0,0.17,-0.302,-128.068
 14:49:55.438,eb:33:2e:f9:57:b5, 2085-97-05 00:03:00:2034,0.002,0.001,0.993,0,0.244,0.061,0.17,-0.302,-128.068
 14:49:55.468,eb:33:2e:f9:57:b5, 2085-97-05 00:04:00:2031,0.002,0.001,0.992,0,0.122,0,0.17,-0.302,-128.068
 14:49:55.468,eb:33:2e:f9:57:b5, 2085-97-06 00:03:00:2032,0.003,0.002,0.992,0,0.061,0,0.17,-0.302,-128.068
 14:49:55.468,eb:33:2e:f9:57:b5, 2085-97-06 00:04:00:2032,0.003,0.001,0.992,0,0,-0.061,0.17,-0.302,-128.068
 14:49:55.468,eb:33:2e:f9:57:b5, 2085-97-08 00:04:00:2031,0.004,0.002,0.992,-0.061,0,-0.061,0.17,-0.302,-128.073
 14:49:55.526,eb:33:2e:f9:57:b5, 2085-97-06 00:04:00:2034,0.003,0.002,0.992,0,0,-0.122,0.17,-0.297,-128.073
 14:49:55.526,eb:33:2e:f9:57:b5, 2085-97-07 00:04:00:2033,0.002,0.002,0.994,-0.061,0,-0.061,0.17,-0.297,-128.073
 14:49:55.526,eb:33:2e:f9:57:b5, 2085-97-14 00:05:00:2038,0.002,0.001,0.993,0,0,-0.122,0.17,-0.297,-128.073
 14:49:55.526,eb:33:2e:f9:57:b5, 2085-97-09 00:06:00:2037,0.003,0,0.991,0,0,0,0.17,-0.297,-128.073
 14:49:55.558,eb:33:2e:f9:57:b5, 2085-97-07 00:04:00:2036,0.004,0.001,0.993,0,0,0,0.17,-0.297,-128.073
 14:49:55.558,eb:33:2e:f9:57:b5, 2085-97-08 00:03:00:2036,0.004,0.001,0.994,0,0,0,0.17,-0.297,-128.079
 14:49:55.558,eb:33:2e:f9:57:b5, 2085-97-06 00:04:00:2034,0.003,0.001,0.994,0.061,0.061,0,0.17,-0.297,-128.079
 14:49:55.558,eb:33:2e:f9:57:b5, 2085-97-07 00:02:00:2033,0.003,0.002,0.994,0,0,0,0.17,-0.297,-128.079
 14:49:55.587,eb:33:2e:f9:57:b5, 2085-97-06 00:06:00:2033,0.003,0.002,0.993,0,0,0,0.17,-0.297,-128.079
 14:49:55.587,eb:33:2e:f9:57:b5, 2085-97-05 00:03:00:2032,0.003,0.001,0.994,0,0.061,0,0.17,-0.297,-128.079
 14:49:55.587,eb:33:2e:f9:57:b5, 2085-97-06 00:03:00:2035,0.003,0.002,0.993,0.061,0.061,0.061,0.17,-0.297,-128.079
 14:49:55.587,eb:33:2e:f9:57:b5, 2085-97-05 00:03:00:2033,0.002,0.002,0.993,0.061,0,0.061,0.17,-0.297,-128.079
 14:49:55.647,eb:33:2e:f9:57:b5, 2085-97-06 00:02:00:2031,0.003,0,0.992,0.061,0,0.061,0.17,-0.297,-128.079
 14:49:55.647,eb:33:2e:f9:57:b5, 2085-97-07 00:03:00:2033,0.002,0.001,0.993,0.061,-0.061,0.061,0.17,-0.297,-128.084
 14:49:55.647,eb:33:2e:f9:57:b5, 2085-97-07 00:04:00:2035,0.004,0.002,0.993,0.061,-0.122,0,0.17,-0.297,-128.084
 14:49:55.647,eb:33:2e:f9:57:b5, 2085-97-08 00:04:00:2033,0.004,0.001,0.994,0.122,-0.122,0,0.17,-0.297,-128.084
 14:49:55.676,eb:33:2e:f9:57:b5, 2085-97-07 00:01:00:2034,0.003,0.001,0.993,0.061,-0.061,0.061,0.165,-0.297,-128.084
 14:49:55.676,eb:33:2e:f9:57:b5, 2085-97-07 00:04:00:2034,0.003,0.002,0.993,0.122,-0.122,0.122,0.165,-0.297,-128.084
 14:49:55.676,eb:33:2e:f9:57:b5, 2085-97-05 00:05:00:2034,0.003,0.001,0.994,0.122,-0.122,0.122,0.165,-0.297,-128.084
 14:49:55.676,eb:33:2e:f9:57:b5, 2085-97-08 00:03:00:2035,0.005,0.001,0.993,0.122,-0.183,0.061,0.165,-0.297,-128.09
 14:49:55.707,eb:33:2e:f9:57:b5, 2085-97-08 00:05:00:2032,0.004,0.002,0.993,0.122,-0.061,0.122,0.165,-0.297,-128.09
 14:49:55.707,eb:33:2e:f9:57:b5, 2085-97-09 00:04:00:2034,0.004,0.002,0.994,0.122,0,0.183,0.165,-0.297,-128.09
 14:49:55.707,eb:33:2e:f9:57:b5, 2085-97-08 00:06:00:2033,0.004,0.002,0.994,0.183,0.061,0.183,0.165,-0.291,-128.09
 14:49:55.707,eb:33:2e:f9:57:b5, 2085-97-06 00:03:00:2034,0.003,0.002,0.993,0.122,0,0.183,0.165,-0.297,-128.09
 14:49:55.767,eb:33:2e:f9:57:b5, 2085-97-07 00:03:00:2031,0.003,0.002,0.992,0.122,0,0.183,0.165,-0.291,-128.09
 14:49:55.767,eb:33:2e:f9:57:b5, 2085-97-06 00:06:00:2031,0.003,0.001,0.991,0.122,-0.061,0.061,0.165,-0.291,-128.09
 14:49:55.767,eb:33:2e:f9:57:b5, 2085-97-06 00:04:00:2031,0.002,0.002,0.992,0.122,-0.122,0.122,0.165,-0.291,-128.09
 14:49:55.767,eb:33:2e:f9:57:b5, 2085-97-07 00:05:00:2032,0.004,0.002,0.992,0.061,-0.122,0,0.165,-0.291,-128.095
 14:49:55.797,eb:33:2e:f9:57:b5, 2085-97-07 00:04:00:2034,0.004,0.002,0.994,0.061,-0.122,0.122,0.165,-0.291,-128.095
 14:49:55.797,eb:33:2e:f9:57:b5, 2085-97-08 00:04:00:2035,0.005,0.002,0.994,0.061,-0.061,0.061,0.165,-0.291,-128.095
 14:49:55.797,eb:33:2e:f9:57:b5, 2085-97-08 00:05:00:2033,0.003,0.003,0.993,0.122,-0.061,0.061,0.165,-0.291,-128.095
 14:49:55.797,eb:33:2e:f9:57:b5, 2085-97-08 00:05:00:2034,0.004,0.002,0.993,0.061,0,0,0.165,-0.291,-128.095
 14:49:55.827,eb:33:2e:f9:57:b5, 2085-97-08 00:05:00:2034,0.003,0.002,0.993,0,0,0,0.165,-0.291,-128.095
 14:49:55.827,eb:33:2e:f9:57:b5, 2085-97-07 00:05:00:2031,0.003,0.002,0.992,0,0,0,0.165,-0.291,-128.101
 14:49:55.827,eb:33:2e:f9:57:b5, 2085-97-07 00:04:00:2033,0.003,0.003,0.993,0,0,0,0.165,-0.291,-128.101
 14:49:55.827,eb:33:2e:f9:57:b5, 2085-97-05 00:03:00:2032,0.003,0.002,0.993,0,-0.122,-0.061,0.165,-0.291,-128.101
 14:49:55.886,eb:33:2e:f9:57:b5, 2085-97-09 00:04:00:2036,0.004,0.002,0.993,0,-0.061,0,0.165,-0.291,-128.101
 14:49:55.886,eb:33:2e:f9:57:b5, 2085-97-08 00:05:00:2036,0.005,0.002,0.993,0,0,0,0.165,-0.291,-128.101
 14:49:55.886,eb:33:2e:f9:57:b5, 2085-97-07 00:05:00:2033,0.004,0.003,0.994,0,0,0.061,0.165,-0.291,-128.101
 14:49:55.886,eb:33:2e:f9:57:b5, 2085-97-07 00:05:00:2033,0.004,0.002,0.993,0.061,-0.061,0,0.165,-0.291,-128.106
 14:49:55.917,eb:33:2e:f9:57:b5, 2085-97-08 00:06:00:2033,0.003,0.001,0.993,0.061,-0.061,0,0.165,-0.291,-128.106
 14:49:55.917,eb:33:2e:f9:57:b5, 2085-97-06 00:05:00:2033,0.002,0.003,0.993,0,-0.061,0.061,0.165,-0.291,-128.106
 14:49:55.917,eb:33:2e:f9:57:b5, 2085-97-07 00:05:00:2033,0.004,0.001,0.992,0,-0.122,0.061,0.165,-0.291,-128.106
 14:49:55.917,eb:33:2e:f9:57:b5, 2085-97-07 00:05:00:2032,0.003,0.002,0.993,0,-0.061,0,0.165,-0.291,-128.106
 14:49:55.977,eb:33:2e:f9:57:b5, 2085-97-05 00:05:00:2033,0.004,0.002,0.993,0,-0.183,0,0.165,-0.291,-128.106
 14:49:55.977,eb:33:2e:f9:57:b5, 2085-97-08 00:06:00:2033,0.004,0.003,0.992,0,-0.122,0,0.165,-0.291,-128.106
 14:49:55.977,eb:33:2e:f9:57:b5, 2085-97-07 00:04:00:2035,0.004,0.002,0.993,0,-0.061,0,0.165,-0.291,-128.106
 14:49:55.977,eb:33:2e:f9:57:b5, 2085-97-08 00:04:00:2034,0.004,0.001,0.993,0,-0.122,0,0.165,-0.291,-128.112
 14:49:56.008,eb:33:2e:f9:57:b5, 2085-97-08 00:05:00:2033,0.004,0.002,0.993,0,-0.061,0,0.165,-0.291,-128.112
 14:49:56.008,eb:33:2e:f9:57:b5, 2085-97-08 00:05:00:2033,0.004,0.002,0.993,0,-0.061,0,0.165,-0.291,-128.112
 14:49:56.008,eb:33:2e:f9:57:b5, 2085-97-09 00:05:00:2035,0.004,0.002,0.992,0.061,-0.122,0,0.165,-0.291,-128.112
 14:49:56.008,eb:33:2e:f9:57:b5, 2085-97-09 00:05:00:2034,0.004,0.002,0.993,0.061,-0.122,0.061,0.165,-0.291,-128.112
 14:49:56.037,eb:33:2e:f9:57:b5, 2085-97-09 00:06:00:2034,0.003,0.002,0.993,0.061,-0.061,0.061,0.165,-0.291,-128.112
 14:49:56.037,eb:33:2e:f9:57:b5, 2085-97-07 00:05:00:2031,0.003,0.003,0.993,0.061,0,0.122,0.165,-0.291,-128.117
 14:49:56.037,eb:33:2e:f9:57:b5, 2085-97-08 00:05:00:2033,0.003,0.002,0.993,0.061,-0.061,0,0.165,-0.286,-128.117
 14:49:56.037,eb:33:2e:f9:57:b5, 2085-97-08 00:04:00:2033,0.004,0.002,0.993,0,-0.122,0.061,0.165,-0.291,-128.117
 14:49:56.099,eb:33:2e:f9:57:b5, 2085-97-08 00:04:00:2034,0.004,0.001,0.993,0.061,-0.183,0,0.165,-0.286,-128.117
 14:49:56.099,eb:33:2e:f9:57:b5, 2085-97-09 00:06:00:2034,0.004,0.002,0.993,0,-0.122,0.061,0.165,-0.286,-128.117
 14:49:56.099,eb:33:2e:f9:57:b5, 2085-97-08 00:04:00:2032,0.004,0.003,0.993,0,-0.122,0,0.165,-0.286,-128.117
 14:49:56.099,eb:33:2e:f9:57:b5, 2085-97-08 00:05:00:2034,0.003,0.002,0.994,0,-0.061,0.061,0.165,-0.286,-128.117
 14:49:56.099,eb:33:2e:f9:57:b5, 2085-97-06 00:05:00:2032,0.003,0.003,0.993,0,0,0,0.165,-0.286,-128.117
 14:49:56.126,eb:33:2e:f9:57:b5, 2085-113-58 00:135:226:-6165,0.003,0.003,0.993,0,-0.122,0,0.159,-0.286,-128.123
 14:49:56.126,eb:33:2e:f9:57:b5, 2085-97-07 00:06:00:2035,0.003,0.002,0.992,0,-0.122,0,0.159,-0.286,-128.123
 14:49:56.126,eb:33:2e:f9:57:b5, 2085-97-08 00:06:00:2033,0.003,0.002,0.994,0,-0.061,0,0.159,-0.286,-128.123
 14:49:56.126,eb:33:2e:f9:57:b5, 2085-97-07 00:07:00:2034,0.004,0.003,0.993,-0.061,-0.061,0,0.159,-0.286,-128.123
 14:49:56.158,eb:33:2e:f9:57:b5, 2085-97-07 00:06:00:2033,0.003,0.002,0.994,0,0,0,0.159,-0.286,-128.123
 14:49:56.158,eb:33:2e:f9:57:b5, 2085-97-08 00:06:00:2032,0.004,0.003,0.992,-0.061,0,0,0.159,-0.286,-128.123
 14:49:56.158,eb:33:2e:f9:57:b5, 2085-97-09 00:05:00:2035,0.004,0.002,0.993,0,0,0,0.159,-0.286,-128.123
 14:49:56.158,eb:33:2e:f9:57:b5, 2085-97-09 00:05:00:2035,0.004,0.001,0.994,0,0,0.061,0.159,-0.286,-128.123
 14:49:56.247,eb:33:2e:f9:57:b5, 2085-97-08 00:04:00:2034,0.004,0.002,0.993,0,0.061,0,0.159,-0.286,-128.128
 14:49:56.247,eb:33:2e:f9:57:b5, 2085-97-07 00:05:00:2034,0.003,0.002,0.993,0,0.061,0,0.159,-0.286,-128.128
 14:49:56.247,eb:33:2e:f9:57:b5, 2085-97-08 00:06:00:2033,0.003,0.003,0.993,0,0.061,0,0.159,-0.286,-128.128
 14:49:56.247,eb:33:2e:f9:57:b5, 2085-97-08 00:05:00:2033,0.004,0.002,0.993,0,0.061,0,0.159,-0.286,-128.128
 14:49:56.249,eb:33:2e:f9:57:b5, 2085-97-07 00:04:00:2032,0.004,0.003,0.993,0,0.061,0.061,0.159,-0.286,-128.128
 14:49:56.249,eb:33:2e:f9:57:b5, 2085-97-06 00:06:00:2032,0.004,0.003,0.992,0,0,0,0.159,-0.286,-128.128
 14:49:56.249,eb:33:2e:f9:57:b5, 2085-97-08 00:04:00:2033,0.004,0.003,0.992,0,0,-0.061,0.159,-0.286,-128.134
 14:49:56.249,eb:33:2e:f9:57:b5, 2085-97-07 00:05:00:2034,0.003,0.002,0.993,0,0,-0.061,0.159,-0.286,-128.134
 14:49:56.279,eb:33:2e:f9:57:b5, 2085-97-07 00:04:00:2031,0.003,0.002,0.992,0,0,-0.061,0.159,-0.286,-128.134
 14:49:56.279,eb:33:2e:f9:57:b5, 2085-97-09 00:05:00:2034,0.004,0.002,0.992,-0.061,0,-0.122,0.159,-0.286,-128.134
 14:49:56.279,eb:33:2e:f9:57:b5, 2085-97-07 00:05:00:2034,0.003,0.002,0.993,-0.061,0,-0.061,0.159,-0.286,-128.134
 14:49:56.279,eb:33:2e:f9:57:b5, 2085-97-09 00:06:00:2033,0.003,0.003,0.993,-0.061,0,-0.061,0.159,-0.286,-128.134
 14:49:56.337,eb:33:2e:f9:57:b5, 2085-97-08 00:04:00:2034,0.004,0.002,0.993,0,0,-0.061,0.159,-0.286,-128.134
 14:49:56.337,eb:33:2e:f9:57:b5, 2085-97-07 00:06:00:2034,0.003,0.002,0.994,0,0,0,0.159,-0.286,-128.134
 14:49:56.337,eb:33:2e:f9:57:b5, 2085-97-07 00:05:00:2033,0.004,0.002,0.992,-0.061,0,-0.061,0.159,-0.286,-128.139
 14:49:56.337,eb:33:2e:f9:57:b5, 2085-97-08 00:06:00:2034,0.003,0.002,0.993,-0.061,0,-0.061,0.159,-0.286,-128.139
 14:49:56.367,eb:33:2e:f9:57:b5, 2085-97-07 00:05:00:2033,0.003,0.002,0.993,-0.061,0,0,0.159,-0.286,-128.139
 14:49:56.367,eb:33:2e:f9:57:b5, 2085-97-09 00:04:00:2033,0.004,0.002,0.992,0,0,0,0.159,-0.286,-128.139
 14:49:56.367,eb:33:2e:f9:57:b5, 2085-97-08 00:05:00:2033,0.004,0.003,0.993,0,0,0,0.159,-0.286,-128.139
 14:49:56.367,eb:33:2e:f9:57:b5, 2085-97-09 00:06:00:2033,0.004,0.003,0.993,0,-0.061,0,0.159,-0.286,-128.139
 14:49:56.398,eb:33:2e:f9:57:b5, 2085-97-09 00:05:00:2033,0.004,0.002,0.992,0,-0.061,0,0.159,-0.286,-128.145
 14:49:56.398,eb:33:2e:f9:57:b5, 2085-97-09 00:05:00:2031,0.004,0.002,0.992,0,0,0,0.159,-0.286,-128.145
 14:49:56.398,eb:33:2e:f9:57:b5, 2085-97-07 00:03:00:2032,0.003,0.002,0.993,0,-0.122,0,0.159,-0.286,-128.145
 14:49:56.398,eb:33:2e:f9:57:b5, 2085-97-09 00:05:00:2033,0.004,0.003,0.992,0,-0.061,0,0.159,-0.286,-128.145
 14:49:56.457,eb:33:2e:f9:57:b5, 2085-97-07 00:05:00:2033,0.003,0.003,0.993,-0.061,-0.061,0,0.159,-0.286,-128.145
 14:49:56.457,eb:33:2e:f9:57:b5, 2085-97-09 00:05:00:2034,0.004,0.002,0.993,0,-0.061,0,0.159,-0.286,-128.145
 14:49:56.457,eb:33:2e:f9:57:b5, 2085-97-09 00:04:00:2034,0.003,0.002,0.993,-0.061,-0.061,0,0.159,-0.286,-128.145
 14:49:56.457,eb:33:2e:f9:57:b5, 2085-97-08 00:05:00:2032,0.003,0.002,0.993,0,0,0.061,0.159,-0.286,-128.145
 14:49:56.487,eb:33:2e:f9:57:b5, 2085-97-06 00:05:00:2033,0.003,0.002,0.993,0,0,0.061,0.159,-0.286,-128.15
 14:49:56.487,eb:33:2e:f9:57:b5, 2085-97-07 00:05:00:2031,0.004,0.003,0.993,0,0,0.122,0.159,-0.286,-128.15
 14:49:56.487,eb:33:2e:f9:57:b5, 2085-97-08 00:06:00:2032,0.004,0.003,0.993,0,-0.061,0,0.159,-0.286,-128.15
 14:49:56.487,eb:33:2e:f9:57:b5, 2085-97-09 00:06:00:2034,0.004,0.003,0.993,0,-0.061,0,0.159,-0.28,-128.15
 14:49:56.517,eb:33:2e:f9:57:b5, 2085-97-09 00:04:00:2035,0.004,0.003,0.993,0,0,0,0.159,-0.28,-128.15
 14:49:56.517,eb:33:2e:f9:57:b5, 2085-97-10 00:05:00:2033,0.003,0.002,0.994,0,0,0.061,0.159,-0.28,-128.15
 14:49:56.518,eb:33:2e:f9:57:b5, 2085-97-08 00:05:00:2031,0.004,0.002,0.992,0,0,0.061,0.159,-0.28,-128.15
 14:49:56.518,eb:33:2e:f9:57:b5, 2085-97-08 00:04:00:2033,0.004,0.002,0.992,0,0,0.122,0.159,-0.28,-128.15
 14:49:56.576,eb:33:2e:f9:57:b5, 2085-97-09 00:06:00:2032,0.004,0.002,0.993,0,0,0.061,0.159,-0.28,-128.156
 14:49:56.576,eb:33:2e:f9:57:b5, 2085-97-07 00:05:00:2031,0.003,0.002,0.992,0,0,0,0.159,-0.28,-128.156
 14:49:56.576,eb:33:2e:f9:57:b5, 2085-97-08 00:04:00:2034,0.004,0.002,0.993,0,0,0,0.159,-0.28,-128.156
 14:49:56.576,eb:33:2e:f9:57:b5, 2085-97-07 00:07:00:2034,0.004,0.002,0.994,0,0,0,0.159,-0.28,-128.156
 14:49:56.606,eb:33:2e:f9:57:b5, 2085-97-08 00:06:00:2034,0.003,0.003,0.993,0,-0.061,0,0.159,-0.28,-128.156
 14:49:56.606,eb:33:2e:f9:57:b5, 2085-97-08 00:06:00:2032,0.003,0.002,0.992,0,-0.122,0,0.159,-0.28,-128.156
 14:49:56.606,eb:33:2e:f9:57:b5, 2085-97-08 00:04:00:2033,0.004,0.002,0.993,0,-0.122,0,0.159,-0.28,-128.161
 14:49:56.606,eb:33:2e:f9:57:b5, 2085-97-09 00:05:00:2035,0.004,0.002,0.993,0,-0.061,0,0.159,-0.28,-128.161
 14:49:56.667,eb:33:2e:f9:57:b5, 2085-97-09 00:04:00:2033,0.004,0.001,0.993,0,0,0.061,0.159,-0.28,-128.161
 14:49:56.667,eb:33:2e:f9:57:b5, 2085-97-08 00:06:00:2032,0.003,0.003,0.992,0,-0.061,0,0.159,-0.28,-128.161
 14:49:56.667,eb:33:2e:f9:57:b5, 2085-97-07 00:06:00:2033,0.003,0.003,0.993,0.061,-0.061,0.061,0.159,-0.28,-128.161
 14:49:56.667,eb:33:2e:f9:57:b5, 2085-97-09 00:05:00:2035,0.004,0.003,0.993,0.061,0,0.122,0.159,-0.28,-128.161
 14:49:56.698,eb:33:2e:f9:57:b5, 2085-97-08 00:05:00:2032,0.003,0.003,0.993,0,0,0,0.159,-0.28,-128.161
 14:49:56.698,eb:33:2e:f9:57:b5, 2085-97-09 00:05:00:2032,0.004,0.002,0.992,0,0,0,0.159,-0.28,-128.161
 14:49:56.699,eb:33:2e:f9:57:b5, 2085-97-09 00:05:00:2034,0.004,0.002,0.993,0,0,0,0.159,-0.28,-128.167
 14:49:56.699,eb:33:2e:f9:57:b5, 2085-97-08 00:05:00:2034,0.004,0.003,0.994,0,-0.061,0,0.159,-0.28,-128.167
 14:49:56.727,eb:33:2e:f9:57:b5, 2085-113-58 00:240:226:-6045,0.005,0.002,0.993,0,0,0,0.159,-0.28,-128.167
 14:49:56.727,eb:33:2e:f9:57:b5, 2085-97-08 00:05:00:2033,0.004,0.002,0.993,0,0,0,0.159,-0.28,-128.167
 14:49:56.727,eb:33:2e:f9:57:b5, 2085-97-09 00:06:00:2035,0.003,0.003,0.993,0,0,0,0.159,-0.28,-128.167
 14:49:56.727,eb:33:2e:f9:57:b5, 2085-97-06 00:04:00:2033,0.003,0.003,0.993,0,0,-0.061,0.159,-0.28,-128.167
 14:49:56.758,eb:33:2e:f9:57:b5, 2085-97-08 00:05:00:2032,0.003,0.002,0.993,0,0,-0.061,0.159,-0.28,-128.167
 14:49:56.758,eb:33:2e:f9:57:b5, 2085-97-08 00:05:00:2034,0.004,0.002,0.993,0,0,-0.061,0.159,-0.28,-128.167
 14:49:56.758,eb:33:2e:f9:57:b5, 2085-97-08 00:06:00:2033,0.004,0.003,0.993,0,-0.061,-0.183,0.159,-0.28,-128.167
 14:49:56.758,eb:33:2e:f9:57:b5, 2085-97-08 00:04:00:2033,0.004,0.003,0.993,0,0,-0.183,0.159,-0.28,-128.172
 14:49:56.816,eb:33:2e:f9:57:b5, 2085-97-07 00:06:00:2035,0.004,0.003,0.993,0,0,-0.183,0.159,-0.28,-128.172
 14:49:56.816,eb:33:2e:f9:57:b5, 2085-97-08 00:06:00:2034,0.004,0.003,0.993,-0.061,0,-0.244,0.159,-0.28,-128.172
 14:49:56.816,eb:33:2e:f9:57:b5, 2085-97-07 00:06:00:2033,0.005,0.003,0.993,-0.061,0,-0.183,0.159,-0.28,-128.172
 14:49:56.816,eb:33:2e:f9:57:b5, 2085-97-09 00:05:00:2033,0.004,0.003,0.993,0,0,-0.061,0.159,-0.28,-128.172
 14:49:56.847,eb:33:2e:f9:57:b5, 2085-97-07 00:04:00:2036,0.005,0.002,0.992,0,0,-0.122,0.159,-0.28,-128.172
 14:49:56.847,eb:33:2e:f9:57:b5, 2085-97-07 00:04:00:2033,0.003,0.002,0.995,0,0.061,-0.061,0.159,-0.28,-128.172
 14:49:56.847,eb:33:2e:f9:57:b5, 2085-97-08 00:04:00:2033,0.004,0.002,0.992,0,0.061,-0.061,0.159,-0.28,-128.172
 14:49:56.847,eb:33:2e:f9:57:b5, 2085-97-08 00:05:00:2035,0.003,0.002,0.994,0,0,-0.061,0.159,-0.28,-128.177
 14:49:56.877,eb:33:2e:f9:57:b5, 2085-97-07 00:07:00:2035,0.004,0.003,0.994,0,0.061,0,0.159,-0.28,-128.177
 14:49:56.877,eb:33:2e:f9:57:b5, 2085-97-08 00:05:00:2032,0.003,0.003,0.993,0,0.061,0,0.159,-0.28,-128.177
 14:49:56.877,eb:33:2e:f9:57:b5, 2085-97-07 00:04:00:2034,0.003,0.002,0.993,0.061,0,0,0.159,-0.28,-128.177
 14:49:56.877,eb:33:2e:f9:57:b5, 2085-97-07 00:04:00:2033,0.003,0.002,0.993,0,0,0,0.159,-0.28,-128.177
 14:49:56.937,eb:33:2e:f9:57:b5, 2085-97-07 00:05:00:2033,0.003,0.002,0.994,0,0,0,0.159,-0.28,-128.177
 14:49:56.937,eb:33:2e:f9:57:b5, 2085-97-07 00:05:00:2032,0.003,0.002,0.992,0,0,0,0.159,-0.28,-128.177
 14:49:56.937,eb:33:2e:f9:57:b5, 2085-97-07 00:05:00:2033,0.004,0.002,0.993,0,0,0,0.159,-0.28,-128.177
 14:49:56.937,eb:33:2e:f9:57:b5, 2085-97-07 00:04:00:2033,0.003,0.002,0.994,0,0,0,0.159,-0.28,-128.183
 14:49:56.967,eb:33:2e:f9:57:b5, 2085-97-07 00:04:00:2032,0.003,0.002,0.992,0,-0.061,0.061,0.159,-0.28,-128.183
 14:49:56.967,eb:33:2e:f9:57:b5, 2085-97-06 00:05:00:2032,0.003,0.002,0.992,0,0,0,0.159,-0.28,-128.183
 14:49:56.967,eb:33:2e:f9:57:b5, 2085-97-09 00:04:00:2034,0.004,0.002,0.993,0,-0.122,0,0.159,-0.28,-128.183
 14:49:56.967,eb:33:2e:f9:57:b5, 2085-97-07 00:04:00:2034,0.003,0.002,0.993,0,-0.061,0,0.159,-0.28,-128.183
 14:49:56.998,eb:33:2e:f9:57:b5, 2085-97-08 00:05:00:2033,0.004,0.002,0.993,0,-0.061,0,0.159,-0.28,-128.183
 14:49:56.998,eb:33:2e:f9:57:b5, 2085-97-07 00:05:00:2031,0.003,0.002,0.992,0,-0.061,0.061,0.159,-0.28,-128.188
 14:49:56.998,eb:33:2e:f9:57:b5, 2085-97-07 00:04:00:2033,0.004,0.002,0.993,0,-0.122,0.061,0.159,-0.28,-128.188
 14:49:56.998,eb:33:2e:f9:57:b5, 2085-97-08 00:05:00:2034,0.003,0.001,0.993,0,-0.061,0.061,0.159,-0.28,-128.188
 14:49:57.057,eb:33:2e:f9:57:b5, 2085-97-08 00:06:00:2032,0.003,0.002,0.993,0,0,0.122,0.159,-0.28,-128.188
 14:49:57.057,eb:33:2e:f9:57:b5, 2085-97-09 00:06:00:2034,0.003,0.002,0.993,0,-0.061,0.122,0.159,-0.28,-128.188
 14:49:57.057,eb:33:2e:f9:57:b5, 2085-97-08 00:05:00:2033,0.004,0.003,0.994,0,0,0.122,0.159,-0.275,-128.188
 14:49:57.057,eb:33:2e:f9:57:b5, 2085-97-08 00:05:00:2033,0.004,0.002,0.992,0,0,0.061,0.159,-0.275,-128.188
 14:49:57.087,eb:33:2e:f9:57:b5, 2085-97-07 00:05:00:2032,0.004,0.003,0.992,0,0,0.061,0.154,-0.275,-128.188
 14:49:57.087,eb:33:2e:f9:57:b5, 2085-97-08 00:04:00:2033,0.003,0.002,0.993,0,0,0.122,0.154,-0.275,-128.194
 14:49:57.087,eb:33:2e:f9:57:b5, 2085-97-08 00:04:00:2034,0.003,0.002,0.993,0,0,0.061,0.154,-0.275,-128.194
 14:49:57.087,eb:33:2e:f9:57:b5, 2085-97-07 00:05:00:2032,0.004,0.001,0.993,0,-0.061,0.061,0.154,-0.275,-128.194
 14:49:57.118,eb:33:2e:f9:57:b5, 2085-97-08 00:05:00:2033,0.004,0.002,0.992,0,0,0.061,0.154,-0.275,-128.194
 14:49:57.118,eb:33:2e:f9:57:b5, 2085-97-07 00:05:00:2034,0.003,0.002,0.993,0,-0.061,0,0.154,-0.275,-128.194
 14:49:57.118,eb:33:2e:f9:57:b5, 2085-97-07 00:06:00:2034,0.003,0.002,0.993,0,-0.122,0,0.154,-0.275,-128.194
 14:49:57.118,eb:33:2e:f9:57:b5, 2085-97-10 00:05:00:2036,0.003,0.003,0.994,0,-0.061,0.061,0.154,-0.275,-128.194
 14:49:57.177,eb:33:2e:f9:57:b5, 2085-97-07 00:05:00:2033,0.003,0.002,0.993,0,0,0.061,0.154,-0.275,-128.194
 14:49:57.177,eb:33:2e:f9:57:b5, 2085-97-07 00:06:00:2031,0.004,0.003,0.992,0,0,0.061,0.154,-0.275,-128.199
 14:49:57.177,eb:33:2e:f9:57:b5, 2085-97-07 00:07:00:2033,0.004,0.003,0.993,0,0.061,0.061,0.154,-0.275,-128.199
 14:49:57.177,eb:33:2e:f9:57:b5, 2085-97-08 00:07:00:2033,0.004,0.003,0.992,0,0,0.061,0.154,-0.275,-128.199
 14:49:57.237,eb:33:2e:f9:57:b5, 2085-97-08 00:06:00:2033,0.004,0.002,0.992,0,0,0,0.154,-0.275,-128.199
 14:49:57.237,eb:33:2e:f9:57:b5, 2085-97-07 00:05:00:2034,0.003,0.002,0.992,-0.061,0,0,0.154,-0.275,-128.199
 14:49:57.237,eb:33:2e:f9:57:b5, 2085-97-08 00:06:00:2032,0.005,0.003,0.992,0,0,0,0.154,-0.275,-128.199
 14:49:57.237,eb:33:2e:f9:57:b5, 2085-97-07 00:05:00:2031,0.004,0.003,0.992,0,0,0,0.154,-0.275,-128.199
 14:49:57.239,eb:33:2e:f9:57:b5, 2085-97-08 00:05:00:2033,0.003,0.002,0.992,0,-0.061,0,0.154,-0.275,-128.199
 14:49:57.239,eb:33:2e:f9:57:b5, 2085-97-07 00:04:00:2033,0.002,0.002,0.992,-0.061,-0.061,0,0.154,-0.275,-128.205
 14:49:57.239,eb:33:2e:f9:57:b5, 2085-97-09 00:05:00:2035,0.004,0.001,0.992,0,-0.122,-0.061,0.154,-0.275,-128.205
 14:49:57.239,eb:33:2e:f9:57:b5, 2085-97-08 00:04:00:2033,0.005,0.002,0.993,0,-0.061,0,0.154,-0.275,-128.205
 14:49:57.296,eb:33:2e:f9:57:b5, 2085-97-09 00:06:00:2032,0.004,0.002,0.994,0,-0.061,0,0.154,-0.275,-128.205
 14:49:57.296,eb:33:2e:f9:57:b5, 2085-97-07 00:06:00:2033,0.004,0.002,0.992,0,0,0,0.154,-0.275,-128.205
 14:49:57.296,eb:33:2e:f9:57:b5, 2085-97-09 00:05:00:2033,0.004,0.002,0.993,0,0,0,0.154,-0.275,-128.205
 14:49:57.296,eb:33:2e:f9:57:b5, 2085-97-09 00:05:00:2033,0.004,0.002,0.993,0,0,0,0.154,-0.275,-128.205
 14:49:57.328,eb:33:2e:f9:57:b5, 2085-97-08 00:04:00:2031,0.003,0.002,0.993,0,0,-0.061,0.154,-0.275,-128.205
 14:49:57.328,eb:33:2e:f9:57:b5, 2085-97-08 00:06:00:2033,0.004,0.002,0.993,0,-0.122,0,0.154,-0.275,-128.21
 14:49:57.328,eb:33:2e:f9:57:b5, 2085-97-08 00:05:00:2033,0.004,0.002,0.992,-0.061,-0.061,-0.061,0.154,-0.275,-128.21
 14:49:57.328,eb:33:2e:f9:57:b5, 2085-97-06 00:04:00:2032,0.004,0.002,0.993,-0.061,-0.061,-0.061,0.154,-0.275,-128.21
 14:49:57.386,eb:33:2e:f9:57:b5, 2085-97-07 00:05:00:2033,0.003,0.002,0.992,0,0,0,0.154,-0.275,-128.21
 14:49:57.386,eb:33:2e:f9:57:b5, 2085-97-08 00:05:00:2033,0.003,0.002,0.993,-0.061,0,-0.061,0.154,-0.275,-128.21
 14:49:57.386,eb:33:2e:f9:57:b5, 2085-113-81 00:229:55:-051,0.004,0.002,0.992,-0.061,-0.061,-0.061,0.154,-0.275,-128.21
 14:49:57.386,eb:33:2e:f9:57:b5, 2085-97-10 00:05:00:2035,0.004,0.002,0.992,-0.061,-0.061,-0.061,0.154,-0.275,-128.21
 14:49:57.386,eb:33:2e:f9:57:b5, 2085-97-09 00:04:00:2034,0.004,0.002,0.993,-0.061,0,-0.061,0.154,-0.275,-128.21
 14:49:57.417,eb:33:2e:f9:57:b5, 2085-97-09 00:03:00:2033,0.004,0.002,0.993,0,0,0,0.154,-0.275,-128.216
 14:49:57.417,eb:33:2e:f9:57:b5, 2085-97-07 00:04:00:2033,0.003,0.002,0.993,0,0,-0.122,0.154,-0.275,-128.216
 14:49:57.417,eb:33:2e:f9:57:b5, 2085-97-09 00:06:00:2033,0.004,0.002,0.992,0,-0.061,-0.061,0.154,-0.275,-128.216
 14:49:57.417,eb:33:2e:f9:57:b5, 2085-97-08 00:06:00:2033,0.004,0.003,0.993,0,-0.061,-0.061,0.154,-0.275,-128.216
 14:49:57.446,eb:33:2e:f9:57:b5, 2085-97-08 00:05:00:2032,0.004,0.002,0.993,-0.061,-0.061,-0.061,0.154,-0.275,-128.216
 14:49:57.446,eb:33:2e:f9:57:b5, 2085-97-07 00:04:00:2031,0.004,0.002,0.992,-0.061,-0.183,-0.061,0.154,-0.275,-128.216
 14:49:57.446,eb:33:2e:f9:57:b5, 2085-97-09 00:05:00:2033,0.004,0.002,0.992,-0.061,-0.122,-0.061,0.154,-0.275,-128.216
 14:49:57.446,eb:33:2e:f9:57:b5, 2085-97-11 00:04:00:2033,0.004,0.001,0.992,-0.122,-0.183,-0.122,0.154,-0.275,-128.216
 14:49:57.507,eb:33:2e:f9:57:b5, 2085-97-08 00:04:00:2034,0.004,0.002,0.993,-0.061,-0.122,-0.122,0.154,-0.275,-128.221
 14:49:57.507,eb:33:2e:f9:57:b5, 2085-97-08 00:05:00:2034,0.005,0.002,0.993,-0.061,-0.183,-0.122,0.154,-0.275,-128.221
 14:49:57.507,eb:33:2e:f9:57:b5, 2085-97-10 00:03:00:2035,0.004,0.002,0.994,-0.061,-0.122,-0.061,0.154,-0.275,-128.221
 14:49:57.507,eb:33:2e:f9:57:b5, 2085-97-09 00:05:00:2036,0.004,0.002,0.994,0,0,0,0.154,-0.275,-128.221
 14:49:57.536,eb:33:2e:f9:57:b5, 2085-97-08 00:05:00:2034,0.004,0.002,0.993,0,-0.061,0,0.154,-0.275,-128.221
 14:49:57.536,eb:33:2e:f9:57:b5, 2085-97-09 00:04:00:2032,0.004,0.002,0.993,0,-0.122,0,0.154,-0.275,-128.221
 14:49:57.536,eb:33:2e:f9:57:b5, 2085-97-09 00:04:00:2033,0.004,0.002,0.993,-0.061,-0.122,-0.061,0.154,-0.275,-128.221
 14:49:57.536,eb:33:2e:f9:57:b5, 2085-97-09 00:05:00:2033,0.005,0.002,0.993,-0.061,-0.061,-0.061,0.154,-0.275,-128.221
 14:49:57.570,eb:33:2e:f9:57:b5, 2085-97-07 00:04:00:2033,0.003,0.001,0.992,0,-0.061,-0.061,0.154,-0.275,-128.227
 14:49:57.570,eb:33:2e:f9:57:b5, 2085-97-08 00:05:00:2034,0.005,0.002,0.993,-0.061,-0.061,-0.061,0.154,-0.275,-128.227
 14:49:57.570,eb:33:2e:f9:57:b5, 2085-97-08 00:05:00:2035,0.004,0.002,0.994,-0.061,-0.061,0,0.154,-0.275,-128.227
 14:49:57.570,eb:33:2e:f9:57:b5, 2085-97-09 00:04:00:2035,0.004,0.003,0.994,-0.061,0,0,0.154,-0.275,-128.227
 14:49:57.628,eb:33:2e:f9:57:b5, 2085-97-07 00:04:00:2034,0.004,0.002,0.994,0,0,0,0.154,-0.275,-128.227
 14:49:57.628,eb:33:2e:f9:57:b5, 2085-97-10 00:06:00:2033,0.004,0.002,0.992,0,-0.122,0,0.154,-0.275,-128.227
 14:49:57.628,eb:33:2e:f9:57:b5, 2085-97-09 00:04:00:2033,0.004,0.003,0.993,0,-0.061,0,0.154,-0.275,-128.227
 14:49:57.628,eb:33:2e:f9:57:b5, 2085-97-08 00:04:00:2035,0.004,0.002,0.993,-0.061,-0.061,0,0.154,-0.275,-128.227
 14:49:57.657,eb:33:2e:f9:57:b5, 2085-97-08 00:04:00:2034,0.004,0.002,0.993,0,-0.061,0,0.154,-0.275,-128.232
 14:49:57.657,eb:33:2e:f9:57:b5, 2085-97-09 00:06:00:2032,0.004,0.002,0.993,-0.061,0,-0.061,0.154,-0.275,-128.232
 14:49:57.657,eb:33:2e:f9:57:b5, 2085-97-09 00:05:00:2032,0.004,0.002,0.993,-0.061,0,0,0.154,-0.275,-128.232
 14:49:57.657,eb:33:2e:f9:57:b5, 2085-97-07 00:03:00:2030,0.004,0.002,0.993,-0.122,-0.061,-0.061,0.154,-0.275,-128.232
 14:49:57.687,eb:33:2e:f9:57:b5, 2085-97-09 00:04:00:2035,0.004,0.002,0.993,-0.061,-0.061,-0.061,0.154,-0.275,-128.232
 14:49:57.687,eb:33:2e:f9:57:b5, 2085-97-09 00:04:00:2035,0.005,0.001,0.994,-0.061,0,-0.061,0.154,-0.275,-128.232
 14:49:57.687,eb:33:2e:f9:57:b5, 2085-97-09 00:05:00:2033,0.003,0.002,0.993,-0.061,0,0,0.154,-0.275,-128.232
 14:49:57.687,eb:33:2e:f9:57:b5, 2085-97-08 00:04:00:2034,0.004,0.002,0.993,0,-0.061,0,0.154,-0.275,-128.232
 14:49:57.746,eb:33:2e:f9:57:b5, 2085-97-07 00:06:00:2032,0.004,0.002,0.993,-0.061,-0.122,0,0.154,-0.275,-128.238
 14:49:57.746,eb:33:2e:f9:57:b5, 2085-97-09 00:06:00:2033,0.004,0.002,0.994,0,0,0,0.154,-0.275,-128.238
 14:49:57.746,eb:33:2e:f9:57:b5, 2085-97-10 00:04:00:2034,0.004,0.002,0.993,0,0,0.061,0.154,-0.275,-128.238
 14:49:57.747,eb:33:2e:f9:57:b5, 2085-97-10 00:06:00:2034,0.003,0.003,0.994,0,0,0,0.154,-0.275,-128.238
 14:49:57.777,eb:33:2e:f9:57:b5, 2085-97-09 00:05:00:2035,0.003,0.001,0.992,-0.061,0,0,0.154,-0.275,-128.238
 14:49:57.777,eb:33:2e:f9:57:b5, 2085-97-09 00:04:00:2034,0.004,0.001,0.991,-0.061,-0.061,0,0.154,-0.275,-128.238
 14:49:57.777,eb:33:2e:f9:57:b5, 2085-97-06 00:02:00:2033,0.005,0.001,0.993,-0.061,0,0,0.154,-0.275,-128.238
 14:49:57.777,eb:33:2e:f9:57:b5, 2085-97-07 00:01:00:2035,0.005,0.001,0.994,0,0,0.122,0.154,-0.275,-128.238
 14:49:57.808,eb:33:2e:f9:57:b5, 2085-97-10 00:03:00:2036,0.004,0.002,0.995,0,0,0.122,0.154,-0.275,-128.238
 14:49:57.808,eb:33:2e:f9:57:b5, 2085-97-08 00:04:00:2033,0.005,0.001,0.994,0.061,0.122,0.244,0.154,-0.275,-128.238
 14:49:57.808,eb:33:2e:f9:57:b5, 2085-97-10 00:03:00:2034,0.002,0.001,0.995,0.122,0.183,0.244,0.154,-0.275,-128.243
 14:49:57.808,eb:33:2e:f9:57:b5, 2085-97-06 00:06:00:2029,0.006,0.002,0.991,0.122,0.061,0.305,0.154,-0.275,-128.243
 14:49:57.868,eb:33:2e:f9:57:b5, 2085-97-10 00:04:00:2035,0.002,0.002,0.995,0.122,0,0.305,0.148,-0.275,-128.243
 14:49:57.868,eb:33:2e:f9:57:b5, 2085-97-08 00:05:00:2030,0.007,0.002,0.991,0.122,0,0.305,0.148,-0.275,-128.243
 14:49:57.868,eb:33:2e:f9:57:b5, 2085-97-12 00:07:00:2035,0.001,0.002,0.996,0.061,0,0.244,0.148,-0.275,-128.243
 14:49:57.868,eb:33:2e:f9:57:b5, 2085-97-07 00:04:00:2031,0.006,0.001,0.99,0.061,0,0.183,0.148,-0.275,-128.243
 14:49:57.897,eb:33:2e:f9:57:b5, 2085-97-09 00:06:00:2036,0.005,0.002,0.995,0.061,0,0.122,0.148,-0.275,-128.243
 14:49:57.897,eb:33:2e:f9:57:b5, 2085-97-07 00:04:00:2031,0.003,0.003,0.994,0.061,0.061,0.183,0.148,-0.275,-128.243
 14:49:57.897,eb:33:2e:f9:57:b5, 2085-97-08 00:06:00:2032,0.004,0.002,0.992,0,-0.061,0.122,0.148,-0.275,-128.249
 14:49:57.897,eb:33:2e:f9:57:b5, 2085-97-10 00:05:00:2032,0.004,0.002,0.993,0,-0.122,0,0.148,-0.275,-128.249
 14:49:57.926,eb:33:2e:f9:57:b5, 2085-97-10 00:06:00:2033,0.004,0.002,0.992,0,-0.061,0,0.148,-0.275,-128.249
 14:49:57.926,eb:33:2e:f9:57:b5, 2085-97-08 00:06:00:2032,0.004,0.002,0.992,-0.122,0,0,0.148,-0.275,-128.249
 14:49:57.926,eb:33:2e:f9:57:b5, 2085-97-09 00:05:00:2034,0.004,0.002,0.992,-0.122,0,-0.061,0.148,-0.275,-128.249
 14:49:57.926,eb:33:2e:f9:57:b5, 2085-97-08 00:05:00:2032,0.004,0.002,0.993,-0.122,0.061,-0.061,0.148,-0.275,-128.249
 14:49:57.988,eb:33:2e:f9:57:b5, 2085-97-08 00:04:00:2034,0.004,0.002,0.993,-0.122,0,-0.122,0.148,-0.275,-128.249
 14:49:57.988,eb:33:2e:f9:57:b5, 2085-97-07 00:02:00:2033,0.004,0.002,0.994,-0.122,0,-0.122,0.148,-0.275,-128.249
 14:49:57.988,eb:33:2e:f9:57:b5, 2085-97-08 00:05:00:2036,0.004,0.002,0.993,-0.061,0,-0.122,0.148,-0.275,-128.254
 14:49:57.988,eb:33:2e:f9:57:b5, 2085-97-08 00:05:00:2034,0.004,0.002,0.994,-0.122,-0.061,-0.122,0.148,-0.275,-128.254
 14:49:58.017,eb:33:2e:f9:57:b5, 2085-97-07 00:01:00:2033,0.004,0.002,0.994,-0.122,-0.061,-0.122,0.148,-0.275,-128.254
 14:49:58.017,eb:33:2e:f9:57:b5, 2085-97-08 00:03:00:2034,0.004,0.001,0.993,-0.122,0,-0.122,0.148,-0.275,-128.254
 14:49:58.017,eb:33:2e:f9:57:b5, 2085-97-09 00:05:00:2033,0.004,0.002,0.993,-0.122,0.061,-0.183,0.148,-0.275,-128.254
 14:49:58.017,eb:33:2e:f9:57:b5, 2085-97-09 00:04:00:2034,0.004,0.002,0.992,-0.122,0,-0.183,0.148,-0.269,-128.254
 14:49:58.047,eb:33:2e:f9:57:b5, 2085-97-08 00:04:00:2034,0.004,0.002,0.993,-0.122,0.122,-0.244,0.148,-0.275,-128.254
 14:49:58.047,eb:33:2e:f9:57:b5, 2085-97-08 00:05:00:2034,0.004,0.002,0.994,-0.122,0.183,-0.122,0.148,-0.269,-128.254
 14:49:58.047,eb:33:2e:f9:57:b5, 2085-97-09 00:02:00:2032,0.004,0.001,0.993,-0.122,0.244,-0.122,0.148,-0.275,-128.26
 14:49:58.047,eb:33:2e:f9:57:b5, 2085-97-09 00:03:00:2032,0.003,0.001,0.993,-0.122,0.122,-0.122,0.148,-0.269,-128.26
 14:49:58.108,eb:33:2e:f9:57:b5, 2085-97-09 00:03:00:2032,0.004,0.002,0.993,-0.122,0.122,-0.122,0.148,-0.269,-128.26
 14:49:58.108,eb:33:2e:f9:57:b5, 2085-97-07 00:03:00:2033,0.003,0.002,0.994,-0.122,0.122,-0.122,0.148,-0.269,-128.26
 14:49:58.108,eb:33:2e:f9:57:b5, 2085-97-08 00:04:00:2035,0.004,0.001,0.993,-0.061,0.061,-0.061,0.148,-0.269,-128.26
 14:49:58.108,eb:33:2e:f9:57:b5, 2085-97-09 00:03:00:2034,0.004,0.001,0.993,-0.061,0.122,-0.061,0.148,-0.269,-128.26
 14:49:58.138,eb:33:2e:f9:57:b5, 2085-97-09 00:02:00:2037,0.004,0.001,0.994,0,0.122,0,0.148,-0.269,-128.26
 14:49:58.138,eb:33:2e:f9:57:b5, 2085-97-07 00:01:00:2033,0.003,0,0.993,0,0.183,0.122,0.148,-0.269,-128.26
 14:49:58.138,eb:33:2e:f9:57:b5, 2085-97-05 00:04:00:2031,0.002,0.001,0.992,0,0.122,0.122,0.148,-0.269,-128.26
 14:49:58.138,eb:33:2e:f9:57:b5, 2085-97-06 00:04:00:2033,0.004,0.002,0.992,0,0,0,0.148,-0.269,-128.26
 14:49:58.167,eb:33:2e:f9:57:b5, 2085-97-06 00:02:00:2032,0.003,0.001,0.993,0,0,0,0.148,-0.269,-128.265
 14:49:58.167,eb:33:2e:f9:57:b5, 2085-97-06 00:04:00:2033,0.004,0.001,0.992,0,0,0,0.148,-0.269,-128.265
 14:49:58.167,eb:33:2e:f9:57:b5, 2085-97-07 00:04:00:2031,0.003,0.001,0.992,0,-0.061,0,0.148,-0.269,-128.265
 14:49:58.167,eb:33:2e:f9:57:b5, 2085-97-07 00:05:00:2032,0.004,0.002,0.992,0,-0.061,0,0.148,-0.269,-128.265
 14:49:58.227,eb:33:2e:f9:57:b5, 2085-97-07 00:04:00:2032,0.004,0.002,0.992,-0.061,-0.122,0,0.148,-0.269,-128.265
 14:49:58.227,eb:33:2e:f9:57:b5, 2085-113-58 00:44:227:-6030,0.004,0.002,0.992,-0.061,-0.061,-0.061,0.148,-0.269,-128.265
 14:49:58.227,eb:33:2e:f9:57:b5, 2085-97-07 00:04:00:2033,0.003,0.002,0.992,-0.061,-0.061,-0.061,0.148,-0.269,-128.265
 14:49:58.227,eb:33:2e:f9:57:b5, 2085-97-08 00:03:00:2035,0.003,0.001,0.993,-0.122,-0.061,-0.061,0.148,-0.269,-128.265
 14:49:58.257,eb:33:2e:f9:57:b5, 2085-97-08 00:02:00:2035,0.004,0.002,0.993,0,-0.122,0,0.148,-0.269,-128.265
 14:49:58.257,eb:33:2e:f9:57:b5, 2085-97-09 00:02:00:2035,0.005,0,0.995,0,-0.061,0.061,0.148,-0.269,-128.271
 14:49:58.257,eb:33:2e:f9:57:b5, 2085-97-07 00:03:00:2033,0.003,0.001,0.994,0.061,-0.122,0.061,0.148,-0.269,-128.271
 14:49:58.257,eb:33:2e:f9:57:b5, 2085-97-09 00:03:00:2034,0.004,0.002,0.992,0.061,-0.122,0.122,0.148,-0.269,-128.271
 14:49:58.288,eb:33:2e:f9:57:b5, 2085-97-09 00:05:00:2036,0.003,0.001,0.994,0,-0.122,0.122,0.148,-0.269,-128.271
 14:49:58.288,eb:33:2e:f9:57:b5, 2085-97-08 00:05:00:2035,0.003,0.001,0.993,0,-0.122,0.122,0.148,-0.269,-128.271
 14:49:58.288,eb:33:2e:f9:57:b5, 2085-97-07 00:04:00:2033,0.003,0.001,0.992,0.061,-0.061,0.122,0.148,-0.269,-128.271
 14:49:58.288,eb:33:2e:f9:57:b5, 2085-97-06 00:04:00:2032,0.003,0.001,0.992,0,-0.061,0.122,0.143,-0.269,-128.271
 14:49:58.346,eb:33:2e:f9:57:b5, 2085-97-07 00:03:00:2032,0.003,0.001,0.992,0,-0.122,0.061,0.143,-0.269,-128.271
 14:49:58.346,eb:33:2e:f9:57:b5, 2085-97-08 00:04:00:2034,0.002,0.001,0.993,0,-0.183,0,0.143,-0.269,-128.276
 14:49:58.346,eb:33:2e:f9:57:b5, 2085-97-09 00:02:00:2035,0.004,0.001,0.993,0,-0.244,0,0.143,-0.269,-128.276
 14:49:58.346,eb:33:2e:f9:57:b5, 2085-97-10 00:06:00:2034,0.003,0.001,0.992,0,-0.244,0,0.143,-0.269,-128.276
 14:49:58.376,eb:33:2e:f9:57:b5, 2085-97-07 00:06:00:2033,0.004,0.002,0.993,0.061,-0.244,0,0.143,-0.269,-128.276
 14:49:58.376,eb:33:2e:f9:57:b5, 2085-97-11 00:03:00:2034,0.005,0.001,0.993,0.061,-0.244,0.061,0.143,-0.269,-128.276
 14:49:58.376,eb:33:2e:f9:57:b5, 2085-97-10 00:05:00:2034,0.004,0.002,0.993,0,0,0,0.143,-0.269,-128.276
 14:49:58.376,eb:33:2e:f9:57:b5, 2085-97-08 00:05:00:2033,0.004,0.002,0.993,0,0,0,0.143,-0.269,-128.276
 14:49:58.407,eb:33:2e:f9:57:b5, 2085-97-08 00:05:00:2034,0.004,0.002,0.992,0,0,0,0.143,-0.269,-128.276
 14:49:58.407,eb:33:2e:f9:57:b5, 2085-97-08 00:06:00:2033,0.004,0.002,0.993,-0.061,0,-0.061,0.143,-0.269,-128.276
 14:49:58.407,eb:33:2e:f9:57:b5, 2085-97-08 00:03:00:2032,0.004,0.002,0.992,-0.061,0,-0.061,0.143,-0.269,-128.276
 14:49:58.407,eb:33:2e:f9:57:b5, 2085-97-07 00:03:00:2033,0.004,0.001,0.993,0,0,-0.061,0.143,-0.269,-128.282
 14:49:58.467,eb:33:2e:f9:57:b5, 2085-97-08 00:02:00:2035,0.004,0.001,0.993,-0.061,0,0,0.143,-0.269,-128.282
 14:49:58.467,eb:33:2e:f9:57:b5, 2085-97-07 00:04:00:2033,0.004,0.001,0.993,0,0,0,0.143,-0.269,-128.282
 14:49:58.467,eb:33:2e:f9:57:b5, 2085-97-08 00:04:00:2034,0.004,0.002,0.993,0,0,0,0.143,-0.269,-128.282
 14:49:58.467,eb:33:2e:f9:57:b5, 2085-97-09 00:04:00:2034,0.005,0.001,0.993,0,0.061,0,0.143,-0.269,-128.282
 14:49:58.497,eb:33:2e:f9:57:b5, 2085-97-09 00:04:00:2034,0.004,0.002,0.994,0,0.061,0,0.143,-0.269,-128.282
 14:49:58.497,eb:33:2e:f9:57:b5, 2085-97-10 00:03:00:2034,0.005,0.001,0.993,0,0,0,0.143,-0.269,-128.282
 14:49:58.497,eb:33:2e:f9:57:b5, 2085-97-06 00:04:00:2033,0.003,0.003,0.993,0,0.061,0,0.143,-0.269,-128.282
 14:49:58.497,eb:33:2e:f9:57:b5, 2085-97-08 00:03:00:2033,0.003,0.001,0.993,0,0,0,0.143,-0.269,-128.287
 14:49:58.527,eb:33:2e:f9:57:b5, 2085-97-09 00:04:00:2031,0.003,0.001,0.993,0,-0.061,0,0.143,-0.269,-128.287
 14:49:58.527,eb:33:2e:f9:57:b5, 2085-97-08 00:04:00:2032,0.003,0.001,0.992,0,-0.061,0,0.143,-0.269,-128.287
 14:49:58.527,eb:33:2e:f9:57:b5, 2085-97-09 00:03:00:2034,0.004,0.002,0.993,0,-0.061,0,0.143,-0.269,-128.287
 14:49:58.527,eb:33:2e:f9:57:b5, 2085-97-08 00:01:00:2035,0.004,0.002,0.994,0.061,0,0,0.143,-0.269,-128.287
 14:49:58.588,eb:33:2e:f9:57:b5, 2085-97-09 00:03:00:2033,0.003,0,0.994,0,0.061,0,0.143,-0.269,-128.287
 14:49:58.588,eb:33:2e:f9:57:b5, 2085-97-06 00:03:00:2032,0.004,0,0.992,0,0,0,0.143,-0.269,-128.287
 14:49:58.588,eb:33:2e:f9:57:b5, 2085-97-08 00:04:00:2033,0.004,0.002,0.993,0,0,0,0.143,-0.269,-128.287
 14:49:58.588,eb:33:2e:f9:57:b5, 2085-97-09 00:04:00:2032,0.004,0.001,0.992,0.061,0,0,0.143,-0.269,-128.287
 14:49:58.617,eb:33:2e:f9:57:b5, 2085-97-07 00:04:00:2033,0.004,0.001,0.992,0,-0.061,0,0.143,-0.269,-128.287
 14:49:58.617,eb:33:2e:f9:57:b5, 2085-97-07 00:04:00:2032,0.003,0.001,0.992,-0.061,-0.061,0,0.143,-0.269,-128.293
 14:49:58.617,eb:33:2e:f9:57:b5, 2085-97-07 00:03:00:2031,0.003,0.002,0.992,-0.061,-0.061,0,0.143,-0.269,-128.293
 14:49:58.617,eb:33:2e:f9:57:b5, 2085-97-08 00:04:00:2032,0.003,0.002,0.991,-0.061,-0.122,-0.061,0.143,-0.269,-128.293
 14:49:58.706,eb:33:2e:f9:57:b5, 2085-97-09 00:03:00:2035,0.005,0.001,0.993,-0.061,-0.183,-0.122,0.143,-0.269,-128.293
 14:49:58.706,eb:33:2e:f9:57:b5, 2085-97-09 00:03:00:2036,0.004,0,0.993,-0.061,-0.122,-0.061,0.143,-0.269,-128.293
 14:49:58.706,eb:33:2e:f9:57:b5, 2085-97-10 00:04:00:2037,0.004,0.001,0.995,-0.061,0,0,0.143,-0.269,-128.293
 14:49:58.706,eb:33:2e:f9:57:b5, 2085-97-10 00:03:00:2035,0.004,0.001,0.994,-0.061,0,0.061,0.143,-0.269,-128.293
 14:49:58.708,eb:33:2e:f9:57:b5, 2085-97-10 00:03:00:2038,0.004,0.002,0.995,0,0,0.122,0.143,-0.269,-128.293
 14:49:58.708,eb:33:2e:f9:57:b5, 2085-97-11 00:05:00:2039,0.003,0.001,0.996,0.061,0.061,0.244,0.143,-0.269,-128.298
 14:49:58.708,eb:33:2e:f9:57:b5, 2085-97-07 00:03:00:2033,0.004,0.001,0.993,0,0.122,0.244,0.143,-0.269,-128.298
 14:49:58.708,eb:33:2e:f9:57:b5, 2085-97-08 00:02:00:2032,0.004,0.001,0.993,0.061,0.061,0.244,0.143,-0.269,-128.298
 14:49:58.736,eb:33:2e:f9:57:b5, 2085-97-05 00:04:00:2031,0.002,0.002,0.993,0.061,0.122,0.244,0.137,-0.269,-128.298
 14:49:58.736,eb:33:2e:f9:57:b5, 2085-97-254 255:05:00:2023,0.006,0.001,0.991,0.061,-0.061,0.122,0.137,-0.269,-128.298
 14:49:58.736,eb:33:2e:f9:57:b5, 2085-97-19 00:03:00:2045,0.006,0.003,0.994,0.061,-0.366,0,0.137,-0.269,-128.298
 14:49:58.736,eb:33:2e:f9:57:b5, 2085-97-08 00:02:00:2032,0.001,0,0.995,0,0.183,0.183,0.137,-0.269,-128.298
 14:49:58.826,eb:33:2e:f9:57:b5, 2085-97-06 00:05:00:2033,0.003,0.002,0.99,0.061,0,0.183,0.137,-0.269,-128.298
 14:49:58.826,eb:33:2e:f9:57:b5, 2085-97-07 00:03:00:2033,0.004,0.002,0.994,0.061,-0.061,0.183,0.137,-0.269,-128.298
 14:49:58.826,eb:33:2e:f9:57:b5, 2085-97-08 00:04:00:2035,0.004,0.001,0.993,0.122,-0.061,0.122,0.137,-0.269,-128.298
 14:49:58.826,eb:33:2e:f9:57:b5, 2085-97-09 00:03:00:2036,0.004,0.002,0.994,0.122,-0.061,0.183,0.137,-0.269,-128.304
 14:49:58.826,eb:33:2e:f9:57:b5, 2085-97-10 00:05:00:2031,0.006,0.002,0.991,0.061,-0.061,0.183,0.137,-0.269,-128.304
 14:49:58.828,eb:33:2e:f9:57:b5, 2085-113-58 00:14:227:-5850,0.002,0.002,0.996,0.061,0,0.122,0.137,-0.269,-128.304
 14:49:58.828,eb:33:2e:f9:57:b5, 2085-97-11 00:05:00:2035,0.003,0.002,0.991,0.061,-0.061,0.122,0.137,-0.269,-128.304
 14:49:58.829,eb:33:2e:f9:57:b5, 2085-97-08 00:05:00:2032,0.003,0.003,0.992,0.061,0,0.122,0.137,-0.269,-128.304
 14:49:58.829,eb:33:2e:f9:57:b5, 2085-97-07 00:05:00:2033,0.003,0.002,0.993,0.061,0,0,0.137,-0.269,-128.304
 14:49:58.887,eb:33:2e:f9:57:b5, 2085-97-07 00:04:00:2035,0.004,0.002,0.993,0,0,0,0.137,-0.269,-128.304
 14:49:58.887,eb:33:2e:f9:57:b5, 2085-97-10 00:04:00:2035,0.004,0.001,0.993,0,0,0.061,0.137,-0.269,-128.304
 14:49:58.887,eb:33:2e:f9:57:b5, 2085-97-09 00:03:00:2033,0.004,0.001,0.993,0.061,0,0.061,0.137,-0.269,-128.309
 14:49:58.887,eb:33:2e:f9:57:b5, 2085-97-06 00:05:00:2030,0.004,0.002,0.992,0.061,-0.061,0,0.137,-0.269,-128.309
 14:49:58.889,eb:33:2e:f9:57:b5, 2085-97-09 00:05:00:2034,0.003,0.002,0.993,0.061,-0.122,0.122,0.137,-0.269,-128.309
 14:49:58.889,eb:33:2e:f9:57:b5, 2085-97-07 00:04:00:2033,0.004,0.003,0.993,0.122,-0.061,0.122,0.137,-0.269,-128.309
 14:49:58.889,eb:33:2e:f9:57:b5, 2085-97-08 00:05:00:2033,0.005,0.002,0.994,0.061,0,0.061,0.137,-0.269,-128.309
 14:49:58.889,eb:33:2e:f9:57:b5, 2085-97-10 00:04:00:2033,0.004,0.001,0.994,0,0,0.061,0.137,-0.269,-128.309
 14:49:59.007,eb:33:2e:f9:57:b5, 2085-97-08 00:04:00:2034,0.004,0.001,0.993,0.061,0,0.061,0.137,-0.269,-128.309
 14:49:59.007,eb:33:2e:f9:57:b5, 2085-97-09 00:05:00:2034,0.004,0.002,0.992,0.061,-0.061,0.061,0.137,-0.269,-128.309
 14:49:59.007,eb:33:2e:f9:57:b5, 2085-97-10 00:04:00:2033,0.004,0.002,0.993,0.061,-0.061,0.061,0.137,-0.269,-128.309
 14:49:59.007,eb:33:2e:f9:57:b5, 2085-97-09 00:03:00:2033,0.004,0.002,0.993,0.061,0,0.122,0.137,-0.269,-128.309
 14:49:59.009,eb:33:2e:f9:57:b5, 2085-97-07 00:05:00:2031,0.003,0.002,0.994,0.061,0,0.122,0.137,-0.269,-128.315
 14:49:59.009,eb:33:2e:f9:57:b5, 2085-97-11 00:05:00:2036,0.001,0.002,0.992,0.061,0,0.122,0.137,-0.269,-128.315
 14:49:59.009,eb:33:2e:f9:57:b5, 2085-97-09 00:05:00:2032,0.004,0,0.991,0.061,-0.061,0.061,0.137,-0.269,-128.315
 14:49:59.009,eb:33:2e:f9:57:b5, 2085-97-06 00:03:00:2032,0.003,0.002,0.994,0,0,0,0.137,-0.269,-128.315
 14:49:59.011,eb:33:2e:f9:57:b5, 2085-97-07 00:06:00:2031,0.005,0.002,0.992,0.061,0,0,0.137,-0.269,-128.315
 14:49:59.011,eb:33:2e:f9:57:b5, 2085-97-11 00:04:00:2036,0.004,0.002,0.994,0.061,-0.061,0.061,0.137,-0.269,-128.315
 14:49:59.011,eb:33:2e:f9:57:b5, 2085-97-09 00:03:00:2033,0.004,0.002,0.993,0.061,0.061,0.122,0.137,-0.269,-128.315
 14:49:59.011,eb:33:2e:f9:57:b5, 2085-97-08 00:06:00:2034,0.004,0.002,0.993,0.061,0,0.122,0.137,-0.264,-128.315
 14:49:59.098,eb:33:2e:f9:57:b5, 2085-97-08 00:04:00:2034,0.004,0.003,0.993,0.061,0,0.183,0.137,-0.269,-128.315
 14:49:59.098,eb:33:2e:f9:57:b5, 2085-97-08 00:05:00:2033,0.004,0.001,0.993,0.122,-0.061,0.061,0.137,-0.264,-128.315
 14:49:59.098,eb:33:2e:f9:57:b5, 2085-97-11 00:07:00:2033,0.004,0.003,0.992,0.061,-0.061,0.061,0.137,-0.264,-128.32
 14:49:59.098,eb:33:2e:f9:57:b5, 2085-97-09 00:06:00:2033,0.003,0.003,0.993,0,0,0,0.137,-0.264,-128.32
 14:49:59.100,eb:33:2e:f9:57:b5, 2085-97-08 00:04:00:2035,0.003,0.002,0.993,0,0,0,0.137,-0.264,-128.32
 14:49:59.100,eb:33:2e:f9:57:b5, 2085-97-06 00:05:00:2034,0.003,0.002,0.994,0,0,0,0.137,-0.264,-128.32
 14:49:59.100,eb:33:2e:f9:57:b5, 2085-97-08 00:05:00:2033,0.005,0.002,0.993,0,-0.122,0,0.137,-0.264,-128.32
 14:49:59.100,eb:33:2e:f9:57:b5, 2085-97-10 00:06:00:2034,0.004,0.003,0.993,0,-0.122,0,0.137,-0.264,-128.32
 14:49:59.188,eb:33:2e:f9:57:b5, 2085-97-08 00:04:00:2035,0.004,0.001,0.993,0,-0.122,0.061,0.137,-0.264,-128.32
 14:49:59.188,eb:33:2e:f9:57:b5, 2085-97-10 00:05:00:2033,0.005,0.002,0.993,0.061,-0.122,0.061,0.137,-0.264,-128.32
 14:49:59.188,eb:33:2e:f9:57:b5, 2085-97-09 00:05:00:2031,0.004,0.003,0.992,0,0,0,0.137,-0.264,-128.326
 14:49:59.188,eb:33:2e:f9:57:b5, 2085-97-09 00:07:00:2035,0.005,0.002,0.993,0,-0.061,0,0.137,-0.264,-128.326
 14:49:59.190,eb:33:2e:f9:57:b5, 2085-97-10 00:04:00:2035,0.004,0.003,0.993,0,-0.061,0,0.137,-0.264,-128.326
 14:49:59.190,eb:33:2e:f9:57:b5, 2085-97-08 00:05:00:2034,0.003,0.003,0.993,0.061,0,0,0.137,-0.264,-128.326
 14:49:59.190,eb:33:2e:f9:57:b5, 2085-97-07 00:04:00:2033,0.003,0.002,0.993,0,-0.061,0,0.137,-0.264,-128.326
 14:49:59.190,eb:33:2e:f9:57:b5, 2085-97-08 00:04:00:2033,0.004,0.003,0.992,0,-0.122,0,0.137,-0.264,-128.326
 14:49:59.216,eb:33:2e:f9:57:b5, 2085-97-09 00:06:00:2033,0.005,0.003,0.992,0.061,-0.183,0,0.137,-0.264,-128.326
 14:49:59.216,eb:33:2e:f9:57:b5, 2085-97-09 00:04:00:2032,0.005,0.002,0.993,0,-0.244,0,0.137,-0.264,-128.326
 14:49:59.216,eb:33:2e:f9:57:b5, 2085-97-05 00:03:00:2030,0.006,0.002,0.992,0,-0.183,-0.061,0.137,-0.264,-128.326
 14:49:59.216,eb:33:2e:f9:57:b5, 2085-97-10 00:05:00:2037,0.004,0.002,0.995,0,-0.122,-0.061,0.137,-0.264,-128.326
 14:49:59.307,eb:33:2e:f9:57:b5, 2085-97-09 00:07:00:2034,0.004,0.003,0.993,0,-0.061,-0.122,0.137,-0.264,-128.331
 14:49:59.307,eb:33:2e:f9:57:b5, 2085-97-08 00:05:00:2032,0.004,0.003,0.993,0,-0.061,-0.122,0.137,-0.264,-128.331
 14:49:59.307,eb:33:2e:f9:57:b5, 2085-97-09 00:04:00:2035,0.004,0.002,0.994,0,-0.061,-0.061,0.137,-0.264,-128.331
 14:49:59.307,eb:33:2e:f9:57:b5, 2085-97-09 00:05:00:2035,0.005,0.002,0.994,0,-0.122,-0.061,0.137,-0.264,-128.331
 14:49:59.309,eb:33:2e:f9:57:b5, 2085-97-09 00:06:00:2034,0.004,0.002,0.993,0,-0.122,0,0.137,-0.264,-128.331
 14:49:59.309,eb:33:2e:f9:57:b5, 2085-97-11 00:04:00:2035,0.005,0.002,0.994,0,-0.122,0,0.137,-0.264,-128.331
 14:49:59.309,eb:33:2e:f9:57:b5, 2085-97-10 00:03:00:2034,0.005,0.002,0.994,0.061,-0.061,0,0.137,-0.264,-128.331
 14:49:59.309,eb:33:2e:f9:57:b5, 2085-97-11 00:06:00:2033,0.005,0.002,0.993,0,0,0,0.137,-0.264,-128.331
 14:49:59.337,eb:33:2e:f9:57:b5, 2085-97-10 00:07:00:2034,0.005,0.002,0.992,0,0,0,0.137,-0.264,-128.331
 14:49:59.337,eb:33:2e:f9:57:b5, 2085-97-08 00:06:00:2033,0.003,0.003,0.993,0,0.061,0,0.137,-0.264,-128.331
 14:49:59.337,eb:33:2e:f9:57:b5, 2085-97-08 00:05:00:2032,0.004,0.002,0.992,0,0,0,0.137,-0.264,-128.337
 14:49:59.337,eb:33:2e:f9:57:b5, 2085-97-08 00:06:00:2031,0.004,0.002,0.993,0.061,-0.061,0,0.137,-0.264,-128.337
 14:49:59.398,eb:33:2e:f9:57:b5, 2085-97-11 00:05:00:2033,0.006,0.002,0.992,0.061,-0.122,0,0.137,-0.269,-128.337
 14:49:59.398,eb:33:2e:f9:57:b5, 2085-97-11 00:04:00:2035,0.005,0.002,0.994,0.061,-0.061,0.061,0.137,-0.269,-128.337
 14:49:59.398,eb:33:2e:f9:57:b5, 2085-97-08 00:06:00:2035,0.004,0.002,0.994,0.183,0,0.183,0.137,-0.269,-128.337
 14:49:59.398,eb:33:2e:f9:57:b5, 2085-97-08 00:06:00:2032,0.004,0.002,0.992,0.244,0,0.122,0.137,-0.269,-128.337
 14:49:59.427,eb:33:2e:f9:57:b5, 2085-97-09 00:06:00:2032,0.004,0.003,0.992,0.183,-0.122,0.061,0.137,-0.269,-128.337
 14:49:59.427,eb:33:2e:f9:57:b5, 2085-97-11 00:04:00:2031,0.006,0.003,0.992,0.183,-0.183,0,0.137,-0.269,-128.337
 14:49:59.427,eb:33:2e:f9:57:b5, 2085-97-10 00:06:00:2032,0.004,0.002,0.993,0.122,-0.122,0.061,0.137,-0.269,-128.337
 14:49:59.427,eb:33:2e:f9:57:b5, 2085-97-09 00:06:00:2032,0.004,0.002,0.992,0.061,-0.122,0,0.137,-0.269,-128.337
 14:49:59.457,eb:33:2e:f9:57:b5, 2085-97-11 00:05:00:2034,0.005,0.003,0.993,0,-0.061,0,0.137,-0.269,-128.342
 14:49:59.457,eb:33:2e:f9:57:b5, 2085-97-10 00:06:00:2034,0.003,0.003,0.994,0,0.061,0,0.137,-0.269,-128.342
 14:49:59.457,eb:33:2e:f9:57:b5, 2085-97-06 00:06:00:2032,0.004,0.001,0.991,0,0,0.061,0.137,-0.269,-128.342
 14:49:59.457,eb:33:2e:f9:57:b5, 2085-97-09 00:05:00:2033,0.004,0.003,0.992,0.122,-0.183,0,0.137,-0.269,-128.342
 14:49:59.517,eb:33:2e:f9:57:b5, 2085-97-10 00:06:00:2033,0.005,0.003,0.993,0.122,-0.183,-0.061,0.137,-0.269,-128.342
 14:49:59.517,eb:33:2e:f9:57:b5, 2085-97-11 00:06:00:2032,0.005,0.002,0.992,0.122,-0.183,0,0.137,-0.269,-128.342
 14:49:59.517,eb:33:2e:f9:57:b5, 2085-97-11 00:05:00:2033,0.005,0.003,0.992,0,-0.122,0,0.137,-0.269,-128.342
 14:49:59.517,eb:33:2e:f9:57:b5, 2085-97-12 00:07:00:2034,0.005,0.003,0.993,0.061,-0.122,0,0.137,-0.269,-128.342
 14:49:59.548,eb:33:2e:f9:57:b5, 2085-97-10 00:06:00:2034,0.004,0.003,0.994,0,-0.061,0,0.137,-0.269,-128.342
 14:49:59.548,eb:33:2e:f9:57:b5, 2085-97-10 00:06:00:2033,0.005,0.003,0.993,0.061,-0.061,0,0.137,-0.269,-128.348
 14:49:59.548,eb:33:2e:f9:57:b5, 2085-97-09 00:07:00:2032,0.004,0.003,0.994,0.061,-0.061,0,0.137,-0.269,-128.348
 14:49:59.548,eb:33:2e:f9:57:b5, 2085-97-10 00:07:00:2032,0.005,0.003,0.992,0.061,-0.183,0,0.137,-0.269,-128.348
 14:49:59.580,eb:33:2e:f9:57:b5, 2085-97-12 00:07:00:2034,0.006,0.003,0.992,0,-0.244,-0.061,0.137,-0.269,-128.348
 14:49:59.580,eb:33:2e:f9:57:b5, 2085-97-12 00:06:00:2033,0.005,0.003,0.993,0,-0.305,-0.122,0.137,-0.269,-128.348
 14:49:59.580,eb:33:2e:f9:57:b5, 2085-97-11 00:08:00:2035,0.005,0.003,0.993,0,-0.183,-0.122,0.137,-0.269,-128.348
 14:49:59.580,eb:33:2e:f9:57:b5, 2085-97-10 00:07:00:2032,0.005,0.003,0.992,-0.061,-0.183,-0.122,0.137,-0.269,-128.348
 14:49:59.637,eb:33:2e:f9:57:b5, 2085-97-09 00:06:00:2031,0.004,0.003,0.992,0,-0.183,-0.122,0.137,-0.269,-128.348
 14:49:59.637,eb:33:2e:f9:57:b5, 2085-97-10 00:06:00:2034,0.005,0.004,0.993,0,-0.122,-0.122,0.137,-0.269,-128.348
 14:49:59.637,eb:33:2e:f9:57:b5, 2085-97-10 00:05:00:2033,0.004,0.002,0.992,-0.061,-0.122,-0.183,0.137,-0.269,-128.353
 14:49:59.637,eb:33:2e:f9:57:b5, 2085-97-11 00:06:00:2033,0.005,0.003,0.993,-0.061,-0.244,-0.122,0.137,-0.269,-128.353
 14:49:59.668,eb:33:2e:f9:57:b5, 2085-97-11 00:07:00:2033,0.005,0.003,0.993,0,-0.183,-0.122,0.137,-0.269,-128.353
 14:49:59.668,eb:33:2e:f9:57:b5, 2085-97-10 00:06:00:2033,0.005,0.003,0.994,0,-0.122,-0.122,0.137,-0.269,-128.353
 14:49:59.668,eb:33:2e:f9:57:b5, 2085-97-10 00:05:00:2034,0.005,0.003,0.993,0,-0.122,-0.122,0.137,-0.269,-128.353
 14:49:59.668,eb:33:2e:f9:57:b5, 2085-113-58 00:195:226:-6045,0.007,0.003,0.993,0,-0.061,-0.061,0.137,-0.269,-128.353
 14:49:59.697,eb:33:2e:f9:57:b5, 2085-97-14 00:04:00:2034,0.001,0.003,0.994,0,0,-0.061,0.137,-0.269,-128.353
 14:49:59.697,eb:33:2e:f9:57:b5, 2085-97-06 00:08:00:2026,0.003,0.002,0.986,0,-0.061,-0.122,0.137,-0.269,-128.353
 14:49:59.697,eb:33:2e:f9:57:b5, 2085-97-14 00:07:00:2036,0.006,0.003,0.993,0,-0.244,-0.183,0.137,-0.269,-128.353
 14:49:59.698,eb:33:2e:f9:57:b5, 2085-97-14 00:05:00:2034,0.008,0.002,0.994,-0.061,0,-0.061,0.137,-0.269,-128.353
 14:49:59.756,eb:33:2e:f9:57:b5, 2085-97-07 00:03:00:2030,0.003,0.003,0.996,0,0.183,-0.122,0.137,-0.269,-128.353
 14:49:59.756,eb:33:2e:f9:57:b5, 2085-97-09 00:06:00:2033,0.005,0.003,0.991,0,-0.061,-0.122,0.137,-0.269,-128.359
 14:49:59.756,eb:33:2e:f9:57:b5, 2085-97-12 00:06:00:2035,0.005,0.002,0.994,0,0,-0.061,0.143,-0.269,-128.359
 14:49:59.756,eb:33:2e:f9:57:b5, 2085-97-10 00:06:00:2035,0.005,0.003,0.993,-0.061,0,-0.061,0.137,-0.269,-128.359
 14:49:59.787,eb:33:2e:f9:57:b5, 2085-97-11 00:05:00:2033,0.005,0.003,0.995,-0.061,-0.061,0,0.143,-0.269,-128.359
 14:49:59.787,eb:33:2e:f9:57:b5, 2085-97-11 00:05:00:2033,0.005,0.002,0.993,-0.061,0,-0.061,0.143,-0.269,-128.359
 14:49:59.787,eb:33:2e:f9:57:b5, 2085-97-11 00:06:00:2033,0.005,0.002,0.992,-0.061,0,0,0.143,-0.269,-128.359
 14:49:59.787,eb:33:2e:f9:57:b5, 2085-97-09 00:07:00:2035,0.005,0.002,0.993,-0.061,-0.061,-0.061,0.143,-0.269,-128.359
 14:49:59.817,eb:33:2e:f9:57:b5, 2085-97-10 00:06:00:2034,0.005,0.003,0.994,0,-0.061,0,0.143,-0.269,-128.359
 14:49:59.817,eb:33:2e:f9:57:b5, 2085-97-09 00:05:00:2034,0.004,0.003,0.994,0,-0.061,0,0.143,-0.269,-128.359
 14:49:59.817,eb:33:2e:f9:57:b5, 2085-97-09 00:05:00:2034,0.005,0.002,0.993,0,-0.122,0,0.143,-0.269,-128.359
 14:49:59.817,eb:33:2e:f9:57:b5, 2085-97-10 00:05:00:2034,0.005,0.002,0.992,0,-0.122,0,0.143,-0.269,-128.364
 14:49:59.877,eb:33:2e:f9:57:b5, 2085-97-11 00:06:00:2035,0.006,0.003,0.993,0,-0.122,0,0.143,-0.269,-128.364
 14:49:59.878,eb:33:2e:f9:57:b5, 2085-97-10 00:08:00:2034,0.005,0.003,0.994,0,-0.122,0,0.143,-0.269,-128.364
 14:49:59.878,eb:33:2e:f9:57:b5, 2085-97-13 00:05:00:2034,0.005,0.003,0.994,0,0,0,0.143,-0.269,-128.364
 14:49:59.879,eb:33:2e:f9:57:b5, 2085-97-11 00:06:00:2033,0.005,0.003,0.993,0,0,0,0.143,-0.269,-128.364
 14:49:59.906,eb:33:2e:f9:57:b5, 2085-97-10 00:06:00:2032,0.005,0.002,0.992,0,0,0,0.143,-0.269,-128.364
 14:49:59.906,eb:33:2e:f9:57:b5, 2085-97-11 00:08:00:2032,0.005,0.003,0.993,-0.061,0,-0.061,0.143,-0.269,-128.364
 14:49:59.906,eb:33:2e:f9:57:b5, 2085-97-09 00:05:00:2032,0.005,0.003,0.992,0,-0.061,-0.061,0.143,-0.269,-128.364
 14:49:59.906,eb:33:2e:f9:57:b5, 2085-97-11 00:07:00:2034,0.005,0.003,0.993,0,-0.061,-0.122,0.143,-0.269,-128.364
 14:49:59.937,eb:33:2e:f9:57:b5, 2085-97-11 00:05:00:2033,0.005,0.002,0.993,0,0,-0.061,0.143,-0.269,-128.364
 14:49:59.937,eb:33:2e:f9:57:b5, 2085-97-10 00:05:00:2033,0.005,0.003,0.993,0,0,-0.061,0.143,-0.269,-128.37
 14:49:59.937,eb:33:2e:f9:57:b5, 2085-97-11 00:06:00:2032,0.004,0.002,0.993,0,0,-0.061,0.143,-0.269,-128.37
 14:49:59.937,eb:33:2e:f9:57:b5, 2085-97-10 00:06:00:2033,0.005,0.002,0.993,0,-0.061,-0.061,0.143,-0.275,-128.37
 14:49:59.998,eb:33:2e:f9:57:b5, 2085-97-12 00:05:00:2033,0.005,0.003,0.994,-0.061,0,-0.183,0.143,-0.275,-128.37
 14:49:59.999,eb:33:2e:f9:57:b5, 2085-97-10 00:06:00:2033,0.005,0.003,0.992,-0.061,0,-0.061,0.143,-0.275,-128.37
 14:49:59.999,eb:33:2e:f9:57:b5, 2085-97-10 00:04:00:2034,0.005,0.002,0.993,-0.122,0,-0.122,0.143,-0.275,-128.37
 14:49:59.999,eb:33:2e:f9:57:b5, 2085-97-10 00:05:00:2035,0.005,0.003,0.993,-0.122,0.061,-0.122,0.143,-0.275,-128.37
 14:50:00.026,eb:33:2e:f9:57:b5, 2085-97-10 00:06:00:2032,0.005,0.002,0.993,-0.061,0.061,-0.122,0.143,-0.275,-128.37
 14:50:00.026,eb:33:2e:f9:57:b5, 2085-97-11 00:06:00:2032,0.006,0.003,0.993,-0.122,0,-0.183,0.143,-0.275,-128.37
 14:50:00.026,eb:33:2e:f9:57:b5, 2085-97-11 00:06:00:2032,0.006,0.002,0.992,-0.122,0.122,-0.244,0.143,-0.275,-128.37
 14:50:00.026,eb:33:2e:f9:57:b5, 2085-97-12 00:06:00:2033,0.005,0.003,0.993,-0.122,0.061,-0.183,0.143,-0.275,-128.375
 14:50:00.057,eb:33:2e:f9:57:b5, 2085-97-10 00:06:00:2033,0.005,0.002,0.993,-0.122,0.183,-0.183,0.143,-0.275,-128.375
 14:50:00.057,eb:33:2e:f9:57:b5, 2085-97-10 00:05:00:2035,0.004,0.002,0.993,-0.122,0.244,-0.122,0.143,-0.275,-128.375
 14:50:00.057,eb:33:2e:f9:57:b5, 2085-97-10 00:05:00:2034,0.005,0.003,0.993,-0.122,0.183,-0.122,0.143,-0.275,-128.375
 14:50:00.057,eb:33:2e:f9:57:b5, 2085-97-10 00:04:00:2034,0.004,0.002,0.993,-0.061,0.305,-0.122,0.143,-0.275,-128.375
 14:50:00.116,eb:33:2e:f9:57:b5, 2085-97-08 00:05:00:2034,0.004,0.002,0.993,-0.061,0.183,0,0.143,-0.275,-128.375
 14:50:00.116,eb:33:2e:f9:57:b5, 2085-97-09 00:02:00:2033,0.005,0.002,0.994,0,0.183,0,0.143,-0.275,-128.375
 14:50:00.116,eb:33:2e:f9:57:b5, 2085-97-10 00:05:00:2035,0.005,0.003,0.993,0,0.061,0,0.143,-0.275,-128.375
 14:50:00.116,eb:33:2e:f9:57:b5, 2085-97-09 00:05:00:2035,0.004,0.002,0.993,0,0.061,0,0.143,-0.275,-128.375
 14:50:00.178,eb:33:2e:f9:57:b5, 2085-97-08 00:04:00:2032,0.004,0.002,0.993,0,0.061,0,0.143,-0.275,-128.375
 14:50:00.178,eb:33:2e:f9:57:b5, 2085-97-09 00:04:00:2033,0.004,0.001,0.992,0.061,0,0,0.143,-0.275,-128.381
 14:50:00.178,eb:33:2e:f9:57:b5, 2085-97-07 00:05:00:2030,0.004,0.002,0.993,0.061,0,0,0.143,-0.275,-128.381
 14:50:00.178,eb:33:2e:f9:57:b5, 2085-97-09 00:07:00:2032,0.005,0.002,0.993,0.122,-0.061,0,0.143,-0.275,-128.381
 14:50:00.206,eb:33:2e:f9:57:b5, 2085-97-12 00:06:00:2034,0.005,0.002,0.992,0.122,-0.183,0,0.143,-0.275,-128.381
 14:50:00.206,eb:33:2e:f9:57:b5, 2085-97-09 00:06:00:2032,0.004,0.003,0.993,0.061,-0.183,0,0.143,-0.275,-128.381
 14:50:00.206,eb:33:2e:f9:57:b5, 2085-97-10 00:06:00:2033,0.005,0.002,0.992,0.061,-0.183,-0.122,0.143,-0.275,-128.381
 14:50:00.206,eb:33:2e:f9:57:b5, 2085-97-10 00:06:00:2034,0.005,0.003,0.992,0.061,-0.122,-0.122,0.143,-0.275,-128.381
 14:50:00.238,eb:33:2e:f9:57:b5, 2085-97-11 00:06:00:2034,0.006,0.003,0.993,0,-0.122,-0.122,0.143,-0.275,-128.381
 14:50:00.238,eb:33:2e:f9:57:b5, 2085-97-11 00:04:00:2034,0.005,0.003,0.994,0.061,0,0,0.143,-0.275,-128.381
 14:50:00.238,eb:33:2e:f9:57:b5, 2085-97-11 00:04:00:2033,0.006,0.002,0.993,0,-0.061,0,0.143,-0.275,-128.381
 14:50:00.238,eb:33:2e:f9:57:b5, 2085-97-13 00:06:00:2034,0.005,0.002,0.993,0,0,0,0.143,-0.275,-128.381
 14:50:00.267,eb:33:2e:f9:57:b5, 2085-97-14 00:07:00:2038,0.007,0.003,0.993,0,0.061,0,0.143,-0.275,-128.381
 14:50:00.267,eb:33:2e:f9:57:b5, 2085-97-00 00:03:00:2017,0.004,0.003,0.994,0,0.427,0,0.143,-0.275,-128.386
 14:50:00.267,eb:33:2e:f9:57:b5, 2085-97-13 00:08:00:2032,0.006,0.004,0.99,-0.061,0,-0.122,0.143,-0.275,-128.386
 14:50:00.267,eb:33:2e:f9:57:b5, 2085-113-58 00:74:227:-5775,0.005,0.003,0.994,-0.061,0.122,0,0.143,-0.275,-128.386
 14:50:00.267,eb:33:2e:f9:57:b5, 2085-97-08 00:03:00:2034,0.003,0.002,0.994,-0.061,0.183,-0.061,0.143,-0.275,-128.386
 14:50:00.328,eb:33:2e:f9:57:b5, 2085-97-16 00:08:00:2039,0.002,0.001,0.994,-0.061,0.061,0,0.143,-0.275,-128.386
 14:50:00.328,eb:33:2e:f9:57:b5, 2085-97-09 00:04:00:2033,0.004,0.002,0.991,0,0.061,0.061,0.143,-0.275,-128.386
 14:50:00.328,eb:33:2e:f9:57:b5, 2085-97-10 00:04:00:2036,0.004,0.003,0.993,0,0,0,0.143,-0.275,-128.386
 14:50:00.328,eb:33:2e:f9:57:b5, 2085-97-08 00:06:00:2031,0.003,0.002,0.993,0,0.183,0.061,0.143,-0.275,-128.386
 14:50:00.357,eb:33:2e:f9:57:b5, 2085-97-10 00:06:00:2035,0.004,0.002,0.992,0,0,0,0.143,-0.275,-128.386
 14:50:00.357,eb:33:2e:f9:57:b5, 2085-97-10 00:06:00:2034,0.004,0.002,0.993,0,0,0,0.143,-0.275,-128.386
 14:50:00.357,eb:33:2e:f9:57:b5, 2085-97-09 00:05:00:2032,0.005,0.002,0.993,0,0,0.061,0.143,-0.275,-128.392
 14:50:00.357,eb:33:2e:f9:57:b5, 2085-97-11 00:05:00:2036,0.004,0.002,0.993,0.061,0,0.061,0.143,-0.275,-128.392
 14:50:00.388,eb:33:2e:f9:57:b5, 2085-97-07 00:05:00:2032,0.004,0.002,0.993,0.061,-0.061,0.061,0.143,-0.275,-128.392
 14:50:00.388,eb:33:2e:f9:57:b5, 2085-97-11 00:05:00:2034,0.005,0.002,0.993,0.061,-0.122,0.061,0.143,-0.275,-128.392
 14:50:00.388,eb:33:2e:f9:57:b5, 2085-97-09 00:06:00:2034,0.005,0.003,0.993,0.061,-0.061,0.122,0.143,-0.275,-128.392
 14:50:00.388,eb:33:2e:f9:57:b5, 2085-97-12 00:05:00:2033,0.006,0.003,0.994,0.061,0,0.061,0.143,-0.275,-128.392
 14:50:00.448,eb:33:2e:f9:57:b5, 2085-97-11 00:04:00:2035,0.003,0.003,0.993,0.061,0,0.122,0.143,-0.275,-128.392
 14:50:00.448,eb:33:2e:f9:57:b5, 2085-97-09 00:05:00:2034,0.004,0.002,0.992,0.061,0.061,0.183,0.143,-0.275,-128.392
 14:50:00.448,eb:33:2e:f9:57:b5, 2085-97-09 00:05:00:2033,0.004,0.002,0.993,0.122,0.061,0.122,0.143,-0.275,-128.392
 14:50:00.448,eb:33:2e:f9:57:b5, 2085-97-09 00:07:00:2032,0.004,0.002,0.993,0.122,0,0.122,0.143,-0.275,-128.392
 14:50:00.477,eb:33:2e:f9:57:b5, 2085-97-10 00:05:00:2032,0.004,0.003,0.993,0.183,0,0.122,0.143,-0.275,-128.397
 14:50:00.477,eb:33:2e:f9:57:b5, 2085-97-07 00:06:00:2031,0.004,0.002,0.992,0.122,0,0.122,0.143,-0.275,-128.397
 14:50:00.477,eb:33:2e:f9:57:b5, 2085-97-10 00:06:00:2032,0.004,0.003,0.992,0.122,-0.122,0.061,0.143,-0.275,-128.397
 14:50:00.477,eb:33:2e:f9:57:b5, 2085-97-10 00:07:00:2033,0.005,0.003,0.992,0.061,-0.122,0,0.143,-0.275,-128.397
 14:50:00.507,eb:33:2e:f9:57:b5, 2085-97-11 00:07:00:2034,0.005,0.003,0.994,0.061,0,0.061,0.143,-0.275,-128.397
 14:50:00.507,eb:33:2e:f9:57:b5, 2085-97-09 00:06:00:2034,0.004,0.002,0.993,0,0,0.061,0.143,-0.275,-128.397
 14:50:00.507,eb:33:2e:f9:57:b5, 2085-97-08 00:05:00:2033,0.003,0.003,0.992,0,0,0.061,0.143,-0.275,-128.397
 14:50:00.507,eb:33:2e:f9:57:b5, 2085-97-08 00:07:00:2035,0.004,0.003,0.993,0.122,0,0.061,0.143,-0.275,-128.397
 14:50:00.567,eb:33:2e:f9:57:b5, 2085-97-10 00:07:00:2034,0.004,0.003,0.993,0.061,-0.061,0.122,0.143,-0.275,-128.397
 14:50:00.567,eb:33:2e:f9:57:b5, 2085-97-11 00:05:00:2032,0.005,0.003,0.993,0.122,-0.122,0.122,0.143,-0.275,-128.397
 14:50:00.567,eb:33:2e:f9:57:b5, 2085-97-08 00:07:00:2032,0.004,0.003,0.992,0.061,-0.061,0.061,0.143,-0.275,-128.403
 14:50:00.567,eb:33:2e:f9:57:b5, 2085-97-09 00:07:00:2035,0.005,0.004,0.993,0,0,0,0.143,-0.275,-128.403
 14:50:00.596,eb:33:2e:f9:57:b5, 2085-97-10 00:08:00:2031,0.005,0.003,0.993,0,0,0,0.143,-0.275,-128.403
 14:50:00.596,eb:33:2e:f9:57:b5, 2085-97-10 00:06:00:2034,0.004,0.003,0.993,0,0,0,0.143,-0.275,-128.403
 14:50:00.596,eb:33:2e:f9:57:b5, 2085-97-09 00:07:00:2034,0.003,0.003,0.994,0,0,0,0.143,-0.275,-128.403
 14:50:00.596,eb:33:2e:f9:57:b5, 2085-97-07 00:06:00:2034,0.006,0.003,0.993,0,-0.061,0,0.143,-0.275,-128.403
 14:50:00.627,eb:33:2e:f9:57:b5, 2085-97-07 00:03:00:2032,0.004,0.002,0.994,0,0,0,0.143,-0.275,-128.403
 14:50:00.627,eb:33:2e:f9:57:b5, 2085-97-10 00:07:00:2033,0.005,0.003,0.993,0,0,0,0.143,-0.275,-128.403
 14:50:00.627,eb:33:2e:f9:57:b5, 2085-97-09 00:07:00:2032,0.004,0.003,0.993,0.061,-0.061,0,0.143,-0.275,-128.403
 14:50:00.627,eb:33:2e:f9:57:b5, 2085-97-10 00:05:00:2035,0.005,0.003,0.993,0,0,0,0.143,-0.275,-128.403
 14:50:00.687,eb:33:2e:f9:57:b5, 2085-97-10 00:08:00:2031,0.005,0.003,0.994,0,0,0,0.143,-0.275,-128.403
 14:50:00.687,eb:33:2e:f9:57:b5, 2085-97-08 00:07:00:2033,0.004,0.004,0.993,0,0,0,0.143,-0.275,-128.408
 14:50:00.687,eb:33:2e:f9:57:b5, 2085-97-09 00:06:00:2035,0.004,0.004,0.993,0,0,0,0.143,-0.275,-128.408
 14:50:00.687,eb:33:2e:f9:57:b5, 2085-97-08 00:05:00:2035,0.004,0.003,0.994,0,0,0,0.143,-0.275,-128.408
 14:50:00.716,eb:33:2e:f9:57:b5, 2085-97-08 00:05:00:2035,0.005,0.003,0.993,0,0,0,0.143,-0.275,-128.408
 14:50:00.716,eb:33:2e:f9:57:b5, 2085-97-09 00:04:00:2033,0.004,0.003,0.993,-0.061,0,0,0.143,-0.275,-128.408
 14:50:00.716,eb:33:2e:f9:57:b5, 2085-97-09 00:07:00:2033,0.005,0.003,0.993,0,0,0,0.143,-0.275,-128.408
 14:50:00.716,eb:33:2e:f9:57:b5, 2085-97-09 00:08:00:2032,0.004,0.003,0.992,0,0,0,0.143,-0.275,-128.408
 14:50:00.746,eb:33:2e:f9:57:b5, 2085-97-09 00:08:00:2033,0.005,0.003,0.992,-0.061,0,0,0.143,-0.275,-128.408
 14:50:00.746,eb:33:2e:f9:57:b5, 2085-97-09 00:05:00:2034,0.003,0.003,0.994,-0.061,0,0,0.143,-0.275,-128.408
 14:50:00.746,eb:33:2e:f9:57:b5, 2085-97-08 00:04:00:2032,0.004,0.002,0.992,-0.061,0,0,0.143,-0.275,-128.408
 14:50:00.746,eb:33:2e:f9:57:b5, 2085-97-08 00:05:00:2033,0.005,0.003,0.993,0,0,0,0.143,-0.275,-128.408
 14:50:00.806,eb:33:2e:f9:57:b5, 2085-97-11 00:06:00:2032,0.004,0.002,0.992,-0.061,-0.061,0,0.143,-0.275,-128.414
 14:50:00.806,eb:33:2e:f9:57:b5, 2085-97-08 00:07:00:2033,0.005,0.003,0.992,-0.061,-0.122,0,0.143,-0.275,-128.414
 14:50:00.806,eb:33:2e:f9:57:b5, 2085-97-11 00:06:00:2034,0.005,0.003,0.993,-0.061,0,-0.061,0.143,-0.275,-128.414
 14:50:00.806,eb:33:2e:f9:57:b5, 2085-97-09 00:07:00:2033,0.004,0.002,0.993,-0.122,0,-0.061,0.143,-0.275,-128.414
 14:50:00.837,eb:33:2e:f9:57:b5, 2085-97-08 00:07:00:2033,0.004,0.003,0.993,-0.061,0,-0.061,0.143,-0.275,-128.414
 14:50:00.837,eb:33:2e:f9:57:b5, 2085-97-10 00:06:00:2032,0.004,0.003,0.992,-0.122,-0.061,-0.122,0.143,-0.275,-128.414
 14:50:00.837,eb:33:2e:f9:57:b5, 2085-97-09 00:05:00:2033,0.004,0.004,0.992,-0.122,-0.061,-0.122,0.143,-0.275,-128.414
 14:50:00.837,eb:33:2e:f9:57:b5, 2085-97-10 00:07:00:2034,0.005,0.003,0.992,-0.122,-0.183,-0.244,0.143,-0.275,-128.414
 14:50:00.866,eb:33:2e:f9:57:b5, 2085-97-10 00:06:00:2033,0.004,0.003,0.993,-0.122,-0.061,-0.122,0.143,-0.275,-128.414
 14:50:00.866,eb:33:2e:f9:57:b5, 2085-97-09 00:06:00:2033,0.005,0.003,0.992,-0.183,0,-0.183,0.143,-0.275,-128.414
 14:50:00.866,eb:33:2e:f9:57:b5, 2085-97-11 00:05:00:2035,0.006,0.003,0.993,-0.183,-0.061,-0.183,0.143,-0.275,-128.419
 14:50:00.866,eb:33:2e:f9:57:b5, 2085-97-10 00:04:00:2034,0.003,0.002,0.994,-0.183,0,-0.183,0.143,-0.275,-128.419
 14:50:00.928,eb:33:2e:f9:57:b5, 2085-97-08 00:06:00:2032,0.004,0.002,0.993,-0.122,0,-0.122,0.143,-0.275,-128.419
 14:50:00.928,eb:33:2e:f9:57:b5, 2085-113-81 00:175:55:-053,0.005,0.002,0.993,-0.061,-0.061,-0.122,0.148,-0.275,-128.419
 14:50:00.928,eb:33:2e:f9:57:b5, 2085-97-09 00:05:00:2033,0.004,0.002,0.993,-0.122,-0.061,-0.061,0.148,-0.275,-128.419
 14:50:00.928,eb:33:2e:f9:57:b5, 2085-97-10 00:07:00:2034,0.005,0.003,0.993,-0.122,0,-0.061,0.143,-0.275,-128.419
 14:50:00.956,eb:33:2e:f9:57:b5, 2085-97-10 00:07:00:2033,0.005,0.002,0.993,-0.183,0,-0.061,0.148,-0.275,-128.419
 14:50:00.956,eb:33:2e:f9:57:b5, 2085-97-11 00:06:00:2033,0.004,0.003,0.993,-0.122,0,-0.061,0.148,-0.275,-128.419
 14:50:00.956,eb:33:2e:f9:57:b5, 2085-97-08 00:05:00:2032,0.005,0.003,0.993,-0.122,-0.061,-0.122,0.148,-0.275,-128.419
 14:50:00.956,eb:33:2e:f9:57:b5, 2085-97-11 00:04:00:2034,0.005,0.002,0.993,-0.183,-0.061,-0.183,0.148,-0.275,-128.419
 14:50:00.987,eb:33:2e:f9:57:b5, 2085-97-10 00:06:00:2034,0.005,0.002,0.992,-0.183,0,-0.183,0.148,-0.275,-128.419
 14:50:00.987,eb:33:2e:f9:57:b5, 2085-97-10 00:05:00:2035,0.004,0.003,0.993,-0.183,0,-0.183,0.148,-0.275,-128.419
 14:50:00.987,eb:33:2e:f9:57:b5, 2085-97-08 00:06:00:2032,0.004,0.002,0.992,-0.122,0,-0.122,0.148,-0.275,-128.419
 14:50:00.987,eb:33:2e:f9:57:b5, 2085-97-08 00:05:00:2032,0.005,0.003,0.991,-0.183,-0.061,-0.183,0.148,-0.275,-128.425
 14:50:01.046,eb:33:2e:f9:57:b5, 2085-97-08 00:03:00:2035,0.005,0.002,0.993,-0.183,0,-0.183,0.148,-0.275,-128.425
 14:50:01.046,eb:33:2e:f9:57:b5, 2085-97-11 00:04:00:2036,0.005,0.001,0.993,-0.244,0,-0.122,0.148,-0.275,-128.425
 14:50:01.046,eb:33:2e:f9:57:b5, 2085-97-09 00:03:00:2033,0.005,0.001,0.994,-0.244,0.061,-0.061,0.148,-0.275,-128.425
 14:50:01.046,eb:33:2e:f9:57:b5, 2085-97-08 00:03:00:2036,0.004,0,0.994,-0.183,0.061,0,0.148,-0.275,-128.425
 14:50:01.078,eb:33:2e:f9:57:b5, 2085-97-07 00:05:00:2032,0.003,0.002,0.994,-0.183,0.122,0,0.148,-0.275,-128.425
 14:50:01.078,eb:33:2e:f9:57:b5, 2085-97-07 00:04:00:2034,0.004,0.002,0.992,-0.122,0,0,0.143,-0.275,-128.425
 14:50:01.078,eb:33:2e:f9:57:b5, 2085-97-07 00:03:00:2034,0.004,0.002,0.993,-0.122,-0.061,0,0.143,-0.275,-128.425
 14:50:01.078,eb:33:2e:f9:57:b5, 2085-97-10 00:03:00:2035,0.005,0.002,0.994,-0.122,-0.061,0,0.143,-0.275,-128.425
 14:50:01.107,eb:33:2e:f9:57:b5, 2085-97-10 00:03:00:2034,0.005,0.001,0.994,0,-0.122,0.061,0.143,-0.275,-128.425
 14:50:01.107,eb:33:2e:f9:57:b5, 2085-97-12 00:06:00:2034,0.006,0.002,0.994,0,-0.061,0.061,0.143,-0.275,-128.43
 14:50:01.107,eb:33:2e:f9:57:b5, 2085-97-10 00:05:00:2034,0.005,0.003,0.994,-0.061,0,0.122,0.143,-0.275,-128.43
 14:50:01.107,eb:33:2e:f9:57:b5, 2085-97-09 00:06:00:2032,0.004,0.002,0.993,-0.061,0.122,0.244,0.143,-0.275,-128.43
 14:50:01.167,eb:33:2e:f9:57:b5, 2085-97-09 00:05:00:2034,0.005,0.002,0.992,-0.061,0,0.061,0.143,-0.275,-128.43
 14:50:01.167,eb:33:2e:f9:57:b5, 2085-97-11 00:04:00:2035,0.004,0.002,0.992,-0.061,0,0.061,0.143,-0.275,-128.43
 14:50:01.167,eb:33:2e:f9:57:b5, 2085-97-08 00:04:00:2033,0.005,0.001,0.993,0,0,0.122,0.143,-0.275,-128.43
 14:50:01.167,eb:33:2e:f9:57:b5, 2085-97-10 00:03:00:2034,0.004,0.001,0.993,0,-0.122,0.061,0.143,-0.275,-128.43
 14:50:01.197,eb:33:2e:f9:57:b5, 2085-97-10 00:04:00:2036,0.004,0.002,0.994,0,-0.122,0.061,0.143,-0.275,-128.43
 14:50:01.197,eb:33:2e:f9:57:b5, 2085-97-10 00:07:00:2034,0.004,0.003,0.993,-0.061,0,0.122,0.143,-0.275,-128.43
 14:50:01.197,eb:33:2e:f9:57:b5, 2085-97-09 00:05:00:2032,0.006,0.003,0.992,-0.061,0,0.061,0.143,-0.275,-128.43
 14:50:01.197,eb:33:2e:f9:57:b5, 2085-97-11 00:02:00:2032,0.002,0.002,0.994,-0.061,-0.061,0.061,0.143,-0.275,-128.43
 14:50:01.228,eb:33:2e:f9:57:b5, 2085-97-17 00:07:00:2040,0.007,0.001,0.991,0,-0.183,0.061,0.143,-0.275,-128.43
 14:50:01.228,eb:33:2e:f9:57:b5, 2085-97-08 00:02:00:2033,0.003,0.002,0.996,-0.061,0.244,0.061,0.143,-0.275,-128.436
 14:50:01.228,eb:33:2e:f9:57:b5, 2085-97-06 00:05:00:2033,0.004,0.001,0.992,-0.061,0.122,0.061,0.143,-0.275,-128.436
 14:50:01.228,eb:33:2e:f9:57:b5, 2085-97-11 00:04:00:2032,0.004,0.002,0.993,0,0.122,0,0.143,-0.275,-128.436
 14:50:01.286,eb:33:2e:f9:57:b5, 2085-97-09 00:03:00:2033,0.004,0.001,0.992,-0.061,0.061,0,0.143,-0.275,-128.436
 14:50:01.286,eb:33:2e:f9:57:b5, 2085-97-11 00:04:00:2031,0.004,0.002,0.993,-0.122,0,-0.061,0.143,-0.275,-128.436
 14:50:01.286,eb:33:2e:f9:57:b5, 2085-97-09 00:04:00:2033,0.005,0.002,0.991,-0.122,0.061,-0.061,0.143,-0.275,-128.436
 14:50:01.286,eb:33:2e:f9:57:b5, 2085-97-11 00:04:00:2036,0.005,0.002,0.993,-0.122,0.122,-0.061,0.143,-0.275,-128.436
 14:50:01.347,eb:33:2e:f9:57:b5, 2085-97-09 00:04:00:2035,0.004,0.002,0.994,-0.122,0.183,-0.061,0.143,-0.275,-128.436
 14:50:01.347,eb:33:2e:f9:57:b5, 2085-97-08 00:02:00:2035,0.004,0.002,0.993,-0.122,0.244,0,0.143,-0.275,-128.436
 14:50:01.347,eb:33:2e:f9:57:b5, 2085-97-07 00:02:00:2035,0.003,0.001,0.994,-0.061,0.183,-0.061,0.143,-0.275,-128.436
 14:50:01.347,eb:33:2e:f9:57:b5, 2085-97-03 00:03:00:2028,0.005,0.002,0.993,-0.122,0.061,0,0.143,-0.275,-128.441
 14:50:01.349,eb:33:2e:f9:57:b5, 2085-97-18 00:02:00:2042,0.006,0.002,0.993,-0.061,-0.122,0,0.143,-0.275,-128.436
 14:50:01.349,eb:33:2e:f9:57:b5, 2085-97-08 00:02:00:2033,0,0.001,0.994,0,0.244,0.122,0.143,-0.275,-128.441
 14:50:01.349,eb:33:2e:f9:57:b5, 2085-97-07 00:04:00:2032,0.008,0,0.99,0,0,0.061,0.143,-0.275,-128.441
 14:50:01.349,eb:33:2e:f9:57:b5, 2085-97-09 00:02:00:2035,0.003,0.002,0.996,0,0.244,0.122,0.143,-0.275,-128.441
 14:50:01.407,eb:33:2e:f9:57:b5, 2085-97-02 00:04:00:2026,0.007,0.001,0.992,-0.061,0.183,0.061,0.143,-0.275,-128.441
 14:50:01.407,eb:33:2e:f9:57:b5, 2085-97-10 00:02:00:2035,0.001,0.002,0.996,-0.061,0.122,0,0.143,-0.275,-128.441
 14:50:01.407,eb:33:2e:f9:57:b5, 2085-97-11 00:06:00:2034,0.004,0.001,0.99,0,0,0.122,0.143,-0.275,-128.441
 14:50:01.407,eb:33:2e:f9:57:b5, 2085-97-08 00:04:00:2032,0.006,0.001,0.991,0,0.061,0.122,0.143,-0.275,-128.441
 14:50:01.437,eb:33:2e:f9:57:b5, 2085-97-07 00:03:00:2031,0.004,0.002,0.995,0,0.122,0.122,0.143,-0.275,-128.441
 14:50:01.437,eb:33:2e:f9:57:b5, 2085-97-10 00:03:00:2037,0.006,0.002,0.992,0,0,0.061,0.143,-0.275,-128.441
 14:50:01.437,eb:33:2e:f9:57:b5, 2085-97-10 00:05:00:2038,0.003,0.001,0.995,0,0.244,0.183,0.143,-0.275,-128.441
 14:50:01.437,eb:33:2e:f9:57:b5, 2085-97-08 00:02:00:2034,0.003,0.001,0.994,0.061,0.366,0.305,0.143,-0.275,-128.447
 14:50:01.466,eb:33:2e:f9:57:b5, 2085-97-08 00:03:00:2032,0.004,0.001,0.993,0.122,0.366,0.305,0.143,-0.275,-128.447
 14:50:01.466,eb:33:2e:f9:57:b5, 2085-97-07 00:07:00:2030,0.001,0.002,0.993,0.122,0.305,0.305,0.143,-0.275,-128.447
 14:50:01.466,eb:33:2e:f9:57:b5, 2085-97-09 00:05:00:2034,0.004,0.003,0.99,0.122,0.061,0.183,0.143,-0.275,-128.447
 14:50:01.466,eb:33:2e:f9:57:b5, 2085-97-06 00:05:00:2032,0.003,0.002,0.993,0,0.122,0.061,0.143,-0.275,-128.447
 14:50:01.528,eb:33:2e:f9:57:b5, 2085-97-06 00:04:00:2031,0.003,0.002,0.991,0,0,0,0.143,-0.275,-128.447
 14:50:01.528,eb:33:2e:f9:57:b5, 2085-97-07 00:03:00:2032,0.004,0.002,0.992,0,0,-0.061,0.143,-0.275,-128.447
 14:50:01.528,eb:33:2e:f9:57:b5, 2085-97-07 00:04:00:2032,0.003,0.002,0.992,0,-0.061,-0.061,0.143,-0.275,-128.447
 14:50:01.528,eb:33:2e:f9:57:b5, 2085-97-08 00:03:00:2033,0.004,0.002,0.993,0,-0.061,-0.061,0.143,-0.275,-128.447
 14:50:01.556,eb:33:2e:f9:57:b5, 2085-97-09 00:05:00:2033,0.004,0.002,0.992,-0.061,-0.061,-0.122,0.143,-0.275,-128.447
 14:50:01.556,eb:33:2e:f9:57:b5, 2085-97-08 00:05:00:2033,0.004,0.002,0.992,-0.122,0,-0.122,0.143,-0.275,-128.447
 14:50:01.556,eb:33:2e:f9:57:b5, 2085-97-10 00:04:00:2033,0.005,0.001,0.992,-0.122,0,-0.183,0.143,-0.275,-128.447
 14:50:01.556,eb:33:2e:f9:57:b5, 2085-97-09 00:02:00:2035,0.004,0.001,0.993,-0.122,-0.061,-0.122,0.143,-0.275,-128.452
 14:50:01.623,eb:33:2e:f9:57:b5, 2085-97-08 00:04:00:2036,0.003,0.001,0.994,-0.061,0,-0.122,0.143,-0.275,-128.452
 14:50:01.623,eb:33:2e:f9:57:b5, 2085-97-07 00:01:00:2037,0.004,0,0.994,-0.061,0,0,0.143,-0.275,-128.452
 14:50:01.623,eb:33:2e:f9:57:b5, 2085-97-06 00:02:00:2036,0.003,0.001,0.994,0,0,0,0.143,-0.275,-128.452
 14:50:01.623,eb:33:2e:f9:57:b5, 2085-97-07 00:04:00:2034,0.003,0.002,0.994,0,-0.061,0.061,0.143,-0.275,-128.452
 14:50:01.646,eb:33:2e:f9:57:b5, 2085-97-06 00:04:00:2032,0.003,0.003,0.993,0.061,-0.061,0.122,0.143,-0.275,-128.452
 14:50:01.646,eb:33:2e:f9:57:b5, 2085-97-08 00:04:00:2032,0.003,0.002,0.992,0,-0.061,0.122,0.143,-0.275,-128.452
 14:50:01.646,eb:33:2e:f9:57:b5, 2085-97-10 00:05:00:2034,0.004,0.002,0.992,0,-0.061,0,0.143,-0.275,-128.452
 14:50:01.646,eb:33:2e:f9:57:b5, 2085-97-10 00:03:00:2034,0.004,0.001,0.993,0,0,0,0.143,-0.275,-128.452
 14:50:01.678,eb:33:2e:f9:57:b5, 2085-97-08 00:03:00:2033,0.004,0.002,0.993,0,0,0,0.137,-0.275,-128.452
 14:50:01.678,eb:33:2e:f9:57:b5, 2085-97-08 00:04:00:2033,0.003,0.002,0.993,0,-0.061,-0.061,0.137,-0.275,-128.452
 14:50:01.678,eb:33:2e:f9:57:b5, 2085-97-06 00:04:00:2029,0.002,0.002,0.992,0,-0.183,-0.061,0.137,-0.275,-128.452
 14:50:01.678,eb:33:2e:f9:57:b5, 2085-97-12 00:03:00:2038,0.006,0.002,0.992,0,-0.366,-0.061,0.137,-0.275,-128.458
 14:50:01.738,eb:33:2e:f9:57:b5, 2085-97-08 00:04:00:2035,0.003,0.001,0.996,0,0,0,0.137,-0.275,-128.458
 14:50:01.738,eb:33:2e:f9:57:b5, 2085-97-05 00:03:00:2031,0.003,0.002,0.993,0,0,0,0.137,-0.275,-128.458
 14:50:01.738,eb:33:2e:f9:57:b5, 2085-97-10 00:03:00:2035,0.005,0.002,0.993,0,-0.061,-0.061,0.137,-0.275,-128.458
 14:50:01.738,eb:33:2e:f9:57:b5, 2085-97-08 00:04:00:2034,0.003,0.002,0.994,0,0,0,0.137,-0.275,-128.458
 14:50:01.738,eb:33:2e:f9:57:b5, 2085-97-06 00:03:00:2032,0.003,0.002,0.993,0,0.061,0,0.137,-0.275,-128.458
 14:50:01.768,eb:33:2e:f9:57:b5, 2085-113-58 00:29:227:-5925,0.004,0.001,0.993,-0.061,0.061,0,0.137,-0.275,-128.458
 14:50:01.768,eb:33:2e:f9:57:b5, 2085-97-07 00:03:00:2034,0.004,0.001,0.993,-0.061,0.061,0,0.137,-0.275,-128.458
 14:50:01.768,eb:33:2e:f9:57:b5, 2085-97-09 00:02:00:2036,0.003,0.001,0.993,0,0.122,0,0.137,-0.275,-128.458
 14:50:01.768,eb:33:2e:f9:57:b5, 2085-97-08 00:02:00:2033,0.003,0.001,0.995,0,0.183,0.061,0.137,-0.275,-128.458
 14:50:01.797,eb:33:2e:f9:57:b5, 2085-97-05 00:03:00:2032,0.003,0.002,0.993,0,0.122,0.061,0.137,-0.275,-128.458
 14:50:01.797,eb:33:2e:f9:57:b5, 2085-97-06 00:01:00:2032,0.003,0.001,0.992,0,0,0,0.137,-0.275,-128.458
 14:50:01.797,eb:33:2e:f9:57:b5, 2085-97-09 00:04:00:2034,0.004,0.001,0.993,0,0,0,0.137,-0.275,-128.463
 14:50:01.797,eb:33:2e:f9:57:b5, 2085-97-08 00:03:00:2035,0.004,0.002,0.993,0,0,0.061,0.137,-0.275,-128.463
 14:50:01.857,eb:33:2e:f9:57:b5, 2085-97-08 00:03:00:2033,0.003,0.002,0.993,0,0.183,0,0.137,-0.275,-128.463
 14:50:01.857,eb:33:2e:f9:57:b5, 2085-97-00 00:04:00:2029,0.005,0.001,0.993,0,0.061,0,0.137,-0.275,-128.463
 14:50:01.857,eb:33:2e:f9:57:b5, 2085-97-10 00:02:00:2037,0.004,0.002,0.995,-0.061,0,0,0.137,-0.275,-128.463
 14:50:01.857,eb:33:2e:f9:57:b5, 2085-97-05 00:02:00:2032,0.003,0.001,0.993,0,0.183,0.061,0.137,-0.275,-128.463
 14:50:01.886,eb:33:2e:f9:57:b5, 2085-97-07 00:03:00:2032,0.003,0.002,0.993,-0.061,0,0,0.137,-0.275,-128.463
 14:50:01.886,eb:33:2e:f9:57:b5, 2085-97-09 00:05:00:2034,0.003,0.002,0.992,-0.061,0,0,0.137,-0.275,-128.463
 14:50:01.886,eb:33:2e:f9:57:b5, 2085-97-13 00:03:00:2038,0.004,0.001,0.992,0,-0.122,-0.061,0.137,-0.275,-128.463
 14:50:01.886,eb:33:2e:f9:57:b5, 2085-97-09 00:04:00:2034,0.001,0.001,0.994,0,0,0.061,0.137,-0.275,-128.463
 14:50:01.917,eb:33:2e:f9:57:b5, 2085-97-10 00:05:00:2034,0.003,0.001,0.991,0,-0.061,0,0.137,-0.275,-128.463
 14:50:01.917,eb:33:2e:f9:57:b5, 2085-97-05 00:04:00:2032,0.003,0.001,0.992,0,0,0,0.137,-0.269,-128.463
 14:50:01.917,eb:33:2e:f9:57:b5, 2085-97-07 00:03:00:2032,0.004,0.002,0.992,-0.061,0,0,0.137,-0.269,-128.469
 14:50:01.917,eb:33:2e:f9:57:b5, 2085-97-08 00:02:00:2032,0.004,0.002,0.993,-0.061,-0.122,-0.061,0.137,-0.269,-128.469
 14:50:01.978,eb:33:2e:f9:57:b5, 2085-97-07 00:03:00:2033,0.003,0.001,0.993,-0.061,-0.122,-0.061,0.137,-0.269,-128.469
 14:50:01.978,eb:33:2e:f9:57:b5, 2085-97-08 00:03:00:2034,0.004,0.001,0.993,-0.061,-0.183,-0.122,0.137,-0.269,-128.469
 14:50:01.978,eb:33:2e:f9:57:b5, 2085-97-09 00:03:00:2035,0.004,0.001,0.993,-0.122,-0.061,-0.122,0.137,-0.269,-128.469
 14:50:01.978,eb:33:2e:f9:57:b5, 2085-97-10 00:03:00:2036,0.005,0.001,0.994,-0.122,0,-0.061,0.137,-0.269,-128.469
 14:50:02.037,eb:33:2e:f9:57:b5, 2085-97-09 00:03:00:2036,0.004,0.001,0.994,-0.061,0,-0.061,0.137,-0.269,-128.469
 14:50:02.037,eb:33:2e:f9:57:b5, 2085-97-06 00:02:00:2034,0.003,0.001,0.993,-0.061,0,0,0.137,-0.269,-128.469
 14:50:02.037,eb:33:2e:f9:57:b5, 2085-97-06 00:03:00:2035,0.004,0.001,0.993,0,0,0.061,0.137,-0.269,-128.469
 14:50:02.037,eb:33:2e:f9:57:b5, 2085-97-07 00:04:00:2032,0.003,0.002,0.993,0,0.061,0.122,0.137,-0.269,-128.469
 14:50:02.040,eb:33:2e:f9:57:b5, 2085-97-07 00:04:00:2032,0.003,0.001,0.993,0,0,0.122,0.137,-0.269,-128.469
 14:50:02.040,eb:33:2e:f9:57:b5, 2085-97-07 00:05:00:2032,0.004,0.002,0.992,0,0.061,0.061,0.137,-0.269,-128.469
 14:50:02.040,eb:33:2e:f9:57:b5, 2085-97-08 00:03:00:2031,0.003,0.002,0.992,0,0,0,0.137,-0.269,-128.474
 14:50:02.040,eb:33:2e:f9:57:b5, 2085-97-08 00:04:00:2033,0.003,0.002,0.992,0,0,0,0.137,-0.269,-128.474
 14:50:02.097,eb:33:2e:f9:57:b5, 2085-97-06 00:04:00:2031,0.003,0.002,0.992,-0.061,0,0,0.137,-0.269,-128.474
 14:50:02.097,eb:33:2e:f9:57:b5, 2085-97-06 00:02:00:2035,0.003,0.001,0.993,-0.061,0,-0.061,0.137,-0.269,-128.474
 14:50:02.098,eb:33:2e:f9:57:b5, 2085-97-06 00:02:00:2033,0.003,0,0.994,0,0,0,0.137,-0.269,-128.474
 14:50:02.098,eb:33:2e:f9:57:b5, 2085-97-08 00:03:00:2033,0.004,0.001,0.993,0,-0.061,0,0.137,-0.269,-128.474
 14:50:02.128,eb:33:2e:f9:57:b5, 2085-97-08 00:04:00:2034,0.003,0.001,0.994,0,-0.061,0,0.137,-0.269,-128.474
 14:50:02.128,eb:33:2e:f9:57:b5, 2085-97-09 00:04:00:2034,0.004,0.002,0.993,0,0,0,0.137,-0.269,-128.474
 14:50:02.128,eb:33:2e:f9:57:b5, 2085-97-07 00:04:00:2033,0.003,0.001,0.993,0,0,0,0.137,-0.269,-128.474
 14:50:02.128,eb:33:2e:f9:57:b5, 2085-97-06 00:03:00:2034,0.004,0.001,0.993,0,0,0,0.137,-0.269,-128.474
 14:50:02.156,eb:33:2e:f9:57:b5, 2085-97-08 00:02:00:2035,0.003,0.001,0.993,-0.061,-0.061,-0.061,0.132,-0.269,-128.474
 14:50:02.156,eb:33:2e:f9:57:b5, 2085-97-08 00:03:00:2033,0.003,0.001,0.994,0,0,-0.061,0.132,-0.269,-128.474
 14:50:02.156,eb:33:2e:f9:57:b5, 2085-97-06 00:04:00:2031,0.002,0.001,0.992,0,0,-0.061,0.132,-0.269,-128.48
 14:50:02.156,eb:33:2e:f9:57:b5, 2085-97-03 00:03:00:2029,0.001,0.001,0.992,0,-0.122,0,0.132,-0.269,-128.48
 14:50:02.248,eb:33:2e:f9:57:b5, 2085-97-10 00:02:00:2037,0.005,0.002,0.991,0,-0.305,-0.122,0.132,-0.269,-128.48
 14:50:02.248,eb:33:2e:f9:57:b5, 2085-97-09 00:01:00:2037,0.003,0.001,0.995,0,0,0.061,0.132,-0.269,-128.48
 14:50:02.248,eb:33:2e:f9:57:b5, 2085-97-04 00:03:00:2032,0.003,0.001,0.993,0,0.061,0.061,0.132,-0.269,-128.48
 14:50:02.248,eb:33:2e:f9:57:b5, 2085-97-07 00:04:00:2033,0.003,0.001,0.993,0.061,0,0,0.132,-0.269,-128.48
 14:50:02.248,eb:33:2e:f9:57:b5, 2085-97-08 00:04:00:2032,0.003,0.002,0.993,0.061,0,0,0.132,-0.269,-128.48
 14:50:02.248,eb:33:2e:f9:57:b5, 2085-97-06 00:05:00:2032,0.003,0.002,0.992,0.061,0,0,0.132,-0.269,-128.48
 14:50:02.248,eb:33:2e:f9:57:b5, 2085-97-06 00:03:00:2032,0.003,0.002,0.992,0,0,0,0.132,-0.269,-128.48
 14:50:02.248,eb:33:2e:f9:57:b5, 2085-97-08 00:03:00:2033,0.004,0.003,0.993,0,0,-0.061,0.132,-0.269,-128.48
 14:50:02.307,eb:33:2e:f9:57:b5, 2085-97-07 00:02:00:2034,0.003,0.001,0.993,0,0,0,0.132,-0.269,-128.48
 14:50:02.307,eb:33:2e:f9:57:b5, 2085-97-06 00:02:00:2035,0.003,0.001,0.993,0,0,0,0.132,-0.269,-128.48
 14:50:02.307,eb:33:2e:f9:57:b5, 2085-97-06 00:02:00:2034,0.003,0.001,0.993,0,0,0,0.132,-0.269,-128.485
 14:50:02.307,eb:33:2e:f9:57:b5, 2085-97-06 00:00:00:2035,0.003,0,0.993,0,-0.061,0,0.132,-0.269,-128.485
 14:50:02.337,eb:33:2e:f9:57:b5, 2085-97-06 00:02:00:2035,0.003,0.001,0.994,0.061,-0.061,0,0.132,-0.269,-128.485
 14:50:02.337,eb:33:2e:f9:57:b5, 2085-97-08 00:04:00:2035,0.003,0.001,0.994,0.061,0,0,0.132,-0.269,-128.485
 14:50:02.337,eb:33:2e:f9:57:b5, 2085-97-06 00:02:00:2033,0.003,0.001,0.993,0,0,0,0.132,-0.269,-128.485
 14:50:02.337,eb:33:2e:f9:57:b5, 2085-97-07 00:01:00:2035,0.004,0.001,0.993,0,-0.061,0,0.132,-0.264,-128.485
 14:50:02.367,eb:33:2e:f9:57:b5, 2085-113-58 00:59:227:-5820,0.004,0.001,0.993,0.061,-0.122,-0.061,0.132,-0.264,-128.485
 14:50:02.367,eb:33:2e:f9:57:b5, 2085-97-09 00:04:00:2033,0.003,0.001,0.993,0,-0.061,0.061,0.132,-0.264,-128.485
 14:50:02.367,eb:33:2e:f9:57:b5, 2085-97-08 00:05:00:2033,0.004,0.003,0.993,0,0,0,0.132,-0.264,-128.485
 14:50:02.367,eb:33:2e:f9:57:b5, 2085-97-07 00:05:00:2033,0.004,0.001,0.993,0,-0.061,0,0.132,-0.264,-128.485
 14:50:02.398,eb:33:2e:f9:57:b5, 2085-97-07 00:04:00:2034,0.004,0.002,0.993,0,0,-0.061,0.132,-0.264,-128.485
 14:50:02.398,eb:33:2e:f9:57:b5, 2085-97-08 00:04:00:2033,0.003,0.001,0.993,0,-0.061,0,0.132,-0.264,-128.485
 14:50:02.398,eb:33:2e:f9:57:b5, 2085-97-07 00:03:00:2034,0.004,0.002,0.993,0,-0.061,0,0.132,-0.264,-128.485
 14:50:02.398,eb:33:2e:f9:57:b5, 2085-97-08 00:02:00:2034,0.004,0.001,0.993,0.061,0,-0.061,0.132,-0.264,-128.491
 14:50:02.457,eb:33:2e:f9:57:b5, 2085-97-08 00:03:00:2034,0.004,0.001,0.994,0,0,0,0.132,-0.264,-128.491
 14:50:02.457,eb:33:2e:f9:57:b5, 2085-97-09 00:03:00:2035,0.003,0.001,0.994,0,0,0,0.132,-0.264,-128.491
 14:50:02.457,eb:33:2e:f9:57:b5, 2085-97-07 00:03:00:2035,0.004,0.001,0.993,0,0,0,0.132,-0.264,-128.491
 14:50:02.457,eb:33:2e:f9:57:b5, 2085-97-06 00:03:00:2034,0.003,0.001,0.993,0.061,0,0.061,0.132,-0.264,-128.491
 14:50:02.487,eb:33:2e:f9:57:b5, 2085-97-07 00:03:00:2033,0.003,0.001,0.993,0.061,-0.061,0,0.132,-0.264,-128.491
 14:50:02.487,eb:33:2e:f9:57:b5, 2085-97-07 00:04:00:2033,0.003,0.001,0.992,0.122,0,0.061,0.132,-0.264,-128.491
 14:50:02.487,eb:33:2e:f9:57:b5, 2085-97-06 00:03:00:2034,0.004,0.001,0.993,0.061,-0.122,0,0.132,-0.264,-128.491
 14:50:02.487,eb:33:2e:f9:57:b5, 2085-97-08 00:03:00:2034,0.004,0.002,0.993,0.122,-0.061,-0.061,0.132,-0.264,-128.491
 14:50:02.518,eb:33:2e:f9:57:b5, 2085-97-07 00:05:00:2033,0.004,0.002,0.994,0.061,-0.122,0,0.132,-0.264,-128.491
 14:50:02.518,eb:33:2e:f9:57:b5, 2085-97-09 00:05:00:2035,0.004,0.002,0.993,0.061,-0.183,-0.061,0.132,-0.264,-128.491
 14:50:02.518,eb:33:2e:f9:57:b5, 2085-97-08 00:06:00:2033,0.004,0.002,0.993,0.061,-0.122,-0.061,0.132,-0.264,-128.491
 14:50:02.518,eb:33:2e:f9:57:b5, 2085-97-08 00:04:00:2032,0.003,0.002,0.993,0.122,-0.122,-0.061,0.132,-0.264,-128.496
 14:50:02.578,eb:33:2e:f9:57:b5, 2085-97-06 00:04:00:2034,0.004,0.001,0.992,0.061,-0.122,-0.061,0.132,-0.264,-128.496
 14:50:02.578,eb:33:2e:f9:57:b5, 2085-97-06 00:04:00:2033,0.004,0.002,0.993,0,-0.183,-0.183,0.132,-0.264,-128.496
 14:50:02.578,eb:33:2e:f9:57:b5, 2085-97-09 00:03:00:2034,0.003,0.001,0.993,0,-0.183,-0.122,0.132,-0.264,-128.496
 14:50:02.578,eb:33:2e:f9:57:b5, 2085-97-09 00:04:00:2036,0.004,0.001,0.992,0,-0.183,-0.122,0.132,-0.264,-128.496
 14:50:02.607,eb:33:2e:f9:57:b5, 2085-97-09 00:06:00:2032,0.002,0.001,0.993,0,-0.183,-0.122,0.132,-0.264,-128.496
 14:50:02.607,eb:33:2e:f9:57:b5, 2085-97-06 00:05:00:2031,0.006,0.001,0.991,0,-0.305,-0.183,0.132,-0.264,-128.496
 14:50:02.607,eb:33:2e:f9:57:b5, 2085-97-09 00:03:00:2035,0.002,0.001,0.995,0.061,-0.366,-0.122,0.132,-0.264,-128.496
 14:50:02.608,eb:33:2e:f9:57:b5, 2085-97-09 00:04:00:2034,0.007,0.002,0.99,0,-0.427,-0.183,0.132,-0.264,-128.496
 14:50:02.667,eb:33:2e:f9:57:b5, 2085-97-06 00:05:00:2027,0.004,0.001,0.995,0,-0.061,-0.122,0.132,-0.264,-128.496
 14:50:02.667,eb:33:2e:f9:57:b5, 2085-97-17 00:05:00:2040,0.002,0.003,0.993,0,-0.244,-0.244,0.132,-0.264,-128.496
 14:50:02.667,eb:33:2e:f9:57:b5, 2085-97-07 00:05:00:2032,0.003,0,0.991,-0.061,0,-0.122,0.132,-0.264,-128.496
 14:50:02.667,eb:33:2e:f9:57:b5, 2085-97-11 00:02:00:2038,0.006,0.001,0.992,0,-0.183,-0.183,0.132,-0.264,-128.496
 14:50:02.699,eb:33:2e:f9:57:b5, 2085-97-08 00:02:00:2034,0.005,0.001,0.995,0,0,-0.061,0.132,-0.264,-128.496
 14:50:02.699,eb:33:2e:f9:57:b5, 2085-97-07 00:02:00:2033,0.002,0.001,0.994,0.061,0,0,0.126,-0.264,-128.502
 14:50:02.699,eb:33:2e:f9:57:b5, 2085-97-07 00:04:00:2031,0.004,0.002,0.992,0,-0.183,0,0.126,-0.264,-128.502
 14:50:02.699,eb:33:2e:f9:57:b5, 2085-97-09 00:05:00:2033,0.005,0.002,0.992,0.061,-0.183,0,0.126,-0.264,-128.502
 14:50:02.726,eb:33:2e:f9:57:b5, 2085-97-08 00:04:00:2034,0.004,0.002,0.993,0.061,-0.122,0,0.126,-0.264,-128.502
 14:50:02.726,eb:33:2e:f9:57:b5, 2085-97-09 00:05:00:2033,0.005,0.002,0.993,0.061,-0.122,0,0.126,-0.264,-128.502
 14:50:02.726,eb:33:2e:f9:57:b5, 2085-97-10 00:03:00:2035,0.004,0.002,0.993,0,-0.061,0,0.126,-0.264,-128.502
 14:50:02.726,eb:33:2e:f9:57:b5, 2085-97-08 00:03:00:2034,0.004,0.001,0.994,0,0,0,0.126,-0.264,-128.502
 14:50:02.757,eb:33:2e:f9:57:b5, 2085-97-08 00:03:00:2033,0.004,0.001,0.993,0.061,0,0.061,0.126,-0.264,-128.502
 14:50:02.757,eb:33:2e:f9:57:b5, 2085-97-08 00:03:00:2034,0.004,0.002,0.993,0.061,0,0.061,0.126,-0.264,-128.502
 14:50:02.757,eb:33:2e:f9:57:b5, 2085-97-07 00:03:00:2035,0.004,0.002,0.993,0.122,-0.061,0.061,0.126,-0.264,-128.502
 14:50:02.757,eb:33:2e:f9:57:b5, 2085-97-09 00:05:00:2032,0.004,0.002,0.993,0.061,-0.061,0.061,0.126,-0.264,-128.502
 14:50:02.816,eb:33:2e:f9:57:b5, 2085-97-09 00:04:00:2032,0.005,0.002,0.993,0.061,-0.061,0.061,0.126,-0.264,-128.502
 14:50:02.816,eb:33:2e:f9:57:b5, 2085-97-09 00:04:00:2034,0.005,0.002,0.993,0.061,-0.183,0.061,0.126,-0.264,-128.507
 14:50:02.816,eb:33:2e:f9:57:b5, 2085-97-09 00:04:00:2034,0.004,0.001,0.993,0,-0.183,0,0.126,-0.264,-128.507
 14:50:02.816,eb:33:2e:f9:57:b5, 2085-97-09 00:05:00:2034,0.004,0.002,0.994,0.061,-0.122,0.061,0.126,-0.264,-128.507
 14:50:02.877,eb:33:2e:f9:57:b5, 2085-97-09 00:04:00:2034,0.004,0.001,0.993,0,0,0.061,0.126,-0.264,-128.507
 14:50:02.877,eb:33:2e:f9:57:b5, 2085-97-08 00:04:00:2034,0.004,0.002,0.994,0,0,0.061,0.126,-0.264,-128.507
 14:50:02.877,eb:33:2e:f9:57:b5, 2085-97-08 00:04:00:2035,0.004,0.002,0.993,0,0,0.061,0.126,-0.264,-128.507
 14:50:02.877,eb:33:2e:f9:57:b5, 2085-97-09 00:04:00:2035,0.004,0.002,0.993,0,0,0.061,0.126,-0.264,-128.507
 14:50:02.879,eb:33:2e:f9:57:b5, 2085-97-09 00:05:00:2034,0.004,0.002,0.993,0,0,0.061,0.126,-0.264,-128.507
 14:50:02.879,eb:33:2e:f9:57:b5, 2085-97-10 00:05:00:2032,0.004,0.001,0.993,0.061,0,0.061,0.126,-0.264,-128.507
 14:50:02.879,eb:33:2e:f9:57:b5, 2085-97-09 00:05:00:2033,0.004,0.003,0.993,0.061,0,0,0.126,-0.264,-128.507
 14:50:02.879,eb:33:2e:f9:57:b5, 2085-97-10 00:05:00:2035,0.004,0.002,0.993,0,0,0,0.126,-0.264,-128.507
 14:50:02.938,eb:33:2e:f9:57:b5, 2085-97-09 00:06:00:2033,0.004,0.003,0.992,0,0,0,0.126,-0.264,-128.507
 14:50:02.938,eb:33:2e:f9:57:b5, 2085-97-09 00:03:00:2033,0.005,0.002,0.993,0,0,0,0.126,-0.264,-128.513
 14:50:02.939,eb:33:2e:f9:57:b5, 2085-97-09 00:06:00:2033,0.004,0.001,0.993,0,0,0,0.126,-0.264,-128.513
 14:50:02.939,eb:33:2e:f9:57:b5, 2085-97-08 00:04:00:2033,0.004,0.002,0.993,0,0,0,0.126,-0.264,-128.513
 14:50:02.967,eb:33:2e:f9:57:b5, 2085-97-08 00:03:00:2035,0.004,0.002,0.993,0,0,0,0.126,-0.264,-128.513
 14:50:02.967,eb:33:2e:f9:57:b5, 2085-97-09 00:03:00:2034,0.005,0.001,0.993,0,0,0,0.126,-0.264,-128.513
 14:50:02.967,eb:33:2e:f9:57:b5, 2085-97-08 00:04:00:2034,0.004,0.002,0.994,0.061,0,0,0.126,-0.264,-128.513
 14:50:02.967,eb:33:2e:f9:57:b5, 2085-97-07 00:05:00:2034,0.004,0.002,0.993,0,0,0.061,0.126,-0.264,-128.513
 14:50:03.028,eb:33:2e:f9:57:b5, 2085-97-08 00:05:00:2032,0.004,0.002,0.993,0.061,0,0,0.126,-0.264,-128.513
 14:50:03.028,eb:33:2e:f9:57:b5, 2085-97-06 00:05:00:2033,0.004,0.002,0.993,0,-0.122,0.061,0.126,-0.264,-128.513
 14:50:03.029,eb:33:2e:f9:57:b5, 2085-113-81 00:151:55:-052,0.004,0.002,0.992,0,-0.061,0,0.126,-0.264,-128.513
 14:50:03.029,eb:33:2e:f9:57:b5, 2085-97-08 00:03:00:2033,0.004,0.002,0.992,0,-0.061,0.061,0.126,-0.264,-128.513
 14:50:03.029,eb:33:2e:f9:57:b5, 2085-97-08 00:04:00:2034,0.004,0.002,0.993,0.061,0,0,0.126,-0.264,-128.513
 14:50:03.115,eb:33:2e:f9:57:b5, 2085-97-09 00:05:00:2034,0.004,0.002,0.993,0,-0.061,0,0.126,-0.264,-128.513
 14:50:03.115,eb:33:2e:f9:57:b5, 2085-97-08 00:04:00:2034,0.004,0.002,0.993,0.061,-0.061,0,0.126,-0.264,-128.513
 14:50:03.115,eb:33:2e:f9:57:b5, 2085-97-08 00:07:00:2033,0.004,0.003,0.993,0,0,0,0.126,-0.264,-128.518
 14:50:03.115,eb:33:2e:f9:57:b5, 2085-97-09 00:05:00:2033,0.004,0.003,0.992,0,-0.061,0,0.126,-0.264,-128.518
 14:50:03.117,eb:33:2e:f9:57:b5, 2085-97-10 00:06:00:2033,0.005,0.002,0.993,0,-0.061,0,0.126,-0.264,-128.518
 14:50:03.117,eb:33:2e:f9:57:b5, 2085-97-09 00:06:00:2034,0.004,0.002,0.992,0,-0.061,0,0.126,-0.264,-128.518
 14:50:03.117,eb:33:2e:f9:57:b5, 2085-97-09 00:05:00:2034,0.004,0.002,0.993,0,-0.061,0,0.126,-0.264,-128.518
 14:50:03.117,eb:33:2e:f9:57:b5, 2085-97-08 00:05:00:2036,0.004,0.002,0.994,0,-0.061,0,0.126,-0.264,-128.518
 14:50:03.147,eb:33:2e:f9:57:b5, 2085-97-08 00:06:00:2032,0.004,0.003,0.993,0,0,0,0.126,-0.264,-128.518
 14:50:03.147,eb:33:2e:f9:57:b5, 2085-97-09 00:05:00:2034,0.004,0.002,0.993,0,-0.122,0.061,0.126,-0.264,-128.518
 14:50:03.147,eb:33:2e:f9:57:b5, 2085-97-09 00:05:00:2032,0.004,0.003,0.993,0,-0.061,0,0.126,-0.264,-128.518
 14:50:03.147,eb:33:2e:f9:57:b5, 2085-97-09 00:04:00:2033,0.004,0.002,0.993,0,-0.122,0,0.126,-0.264,-128.518
 14:50:03.178,eb:33:2e:f9:57:b5, 2085-97-08 00:04:00:2033,0.005,0.002,0.993,0,-0.122,0,0.126,-0.264,-128.518
 14:50:03.178,eb:33:2e:f9:57:b5, 2085-97-09 00:04:00:2034,0.005,0.002,0.993,0,-0.183,0,0.126,-0.264,-128.518
 14:50:03.178,eb:33:2e:f9:57:b5, 2085-97-11 00:03:00:2035,0.004,0.002,0.994,0,-0.061,0,0.126,-0.264,-128.524
 14:50:03.178,eb:33:2e:f9:57:b5, 2085-97-08 00:03:00:2034,0.004,0.001,0.993,0,-0.122,0,0.126,-0.264,-128.524
 14:50:03.207,eb:33:2e:f9:57:b5, 2085-97-09 00:06:00:2033,0.004,0.002,0.993,0.061,-0.183,0.061,0.126,-0.264,-128.524
 14:50:03.207,eb:33:2e:f9:57:b5, 2085-97-10 00:05:00:2034,0.005,0.003,0.993,0,-0.061,0.061,0.126,-0.264,-128.524
 14:50:03.207,eb:33:2e:f9:57:b5, 2085-97-11 00:04:00:2035,0.005,0.003,0.993,0,-0.061,0.061,0.126,-0.264,-128.524
 14:50:03.207,eb:33:2e:f9:57:b5, 2085-97-10 00:05:00:2036,0.005,0.002,0.993,0.061,0,0.061,0.126,-0.264,-128.524
 14:50:03.267,eb:33:2e:f9:57:b5, 2085-97-10 00:07:00:2033,0.004,0.003,0.994,0,0,0.122,0.126,-0.264,-128.524
 14:50:03.267,eb:33:2e:f9:57:b5, 2085-97-09 00:05:00:2032,0.005,0.002,0.992,0,0,0.122,0.126,-0.264,-128.524
 14:50:03.267,eb:33:2e:f9:57:b5, 2085-97-08 00:06:00:2033,0.005,0.002,0.993,0,0,0.061,0.126,-0.264,-128.524
 14:50:03.267,eb:33:2e:f9:57:b5, 2085-97-09 00:05:00:2033,0.004,0.003,0.992,0,0,0.061,0.126,-0.264,-128.524
 14:50:03.296,eb:33:2e:f9:57:b5, 2085-97-09 00:04:00:2035,0.005,0.002,0.994,0.061,0,0.061,0.126,-0.264,-128.524
 14:50:03.296,eb:33:2e:f9:57:b5, 2085-97-06 00:04:00:2033,0.004,0.002,0.994,0,0,0.061,0.126,-0.264,-128.524
 14:50:03.296,eb:33:2e:f9:57:b5, 2085-97-09 00:03:00:2033,0.005,0.001,0.994,0,0,0.122,0.126,-0.264,-128.524
 14:50:03.296,eb:33:2e:f9:57:b5, 2085-97-10 00:05:00:2034,0.005,0.001,0.993,0.061,0,0.183,0.126,-0.264,-128.524
 14:50:03.329,eb:33:2e:f9:57:b5, 2085-97-08 00:05:00:2034,0.004,0.003,0.993,0,0.061,0.183,0.126,-0.264,-128.529
 14:50:03.329,eb:33:2e:f9:57:b5, 2085-97-11 00:04:00:2033,0.004,0.002,0.993,0.061,0,0.122,0.126,-0.264,-128.529
 14:50:03.329,eb:33:2e:f9:57:b5, 2085-97-08 00:05:00:2031,0.004,0.001,0.993,0,0.061,0.183,0.126,-0.264,-128.529
 14:50:03.329,eb:33:2e:f9:57:b5, 2085-97-10 00:05:00:2032,0.004,0.003,0.992,0.061,0,0.183,0.126,-0.264,-128.529
 14:50:03.387,eb:33:2e:f9:57:b5, 2085-97-09 00:05:00:2034,0.004,0.002,0.992,0.061,0,0.183,0.126,-0.264,-128.529
 14:50:03.387,eb:33:2e:f9:57:b5, 2085-97-08 00:04:00:2033,0.004,0.002,0.993,0.061,0,0.183,0.126,-0.264,-128.529
 14:50:03.387,eb:33:2e:f9:57:b5, 2085-97-10 00:05:00:2034,0.005,0.002,0.993,0.122,-0.122,0.183,0.126,-0.264,-128.529
 14:50:03.387,eb:33:2e:f9:57:b5, 2085-97-09 00:05:00:2033,0.004,0.002,0.993,0.122,-0.061,0.122,0.126,-0.264,-128.529
 14:50:03.417,eb:33:2e:f9:57:b5, 2085-97-07 00:05:00:2031,0.004,0.002,0.993,0.061,0,0.122,0.126,-0.264,-128.529
 14:50:03.417,eb:33:2e:f9:57:b5, 2085-97-09 00:06:00:2032,0.004,0.002,0.992,0.061,-0.061,0.122,0.126,-0.264,-128.529
 14:50:03.417,eb:33:2e:f9:57:b5, 2085-97-09 00:05:00:2032,0.004,0.003,0.992,0.122,-0.061,0.061,0.126,-0.264,-128.529
 14:50:03.417,eb:33:2e:f9:57:b5, 2085-97-09 00:05:00:2033,0.005,0.002,0.993,0,0,0.061,0.126,-0.264,-128.529
 14:50:03.446,eb:33:2e:f9:57:b5, 2085-97-09 00:05:00:2033,0.004,0.003,0.993,0,0,0,0.126,-0.264,-128.529
 14:50:03.446,eb:33:2e:f9:57:b5, 2085-97-10 00:06:00:2033,0.004,0.003,0.992,0,0,0,0.126,-0.264,-128.529
 14:50:03.446,eb:33:2e:f9:57:b5, 2085-97-10 00:05:00:2034,0.005,0.003,0.993,0.061,-0.122,0.061,0.126,-0.264,-128.535
 14:50:03.446,eb:33:2e:f9:57:b5, 2085-97-10 00:05:00:2036,0.005,0.002,0.994,0,-0.061,0,0.132,-0.264,-128.535
 14:50:03.507,eb:33:2e:f9:57:b5, 2085-97-11 00:04:00:2033,0.005,0.002,0.994,0,0,0,0.132,-0.264,-128.535
 14:50:03.507,eb:33:2e:f9:57:b5, 2085-97-10 00:07:00:2033,0.005,0.003,0.993,0.061,0,0.061,0.132,-0.264,-128.535
 14:50:03.507,eb:33:2e:f9:57:b5, 2085-97-09 00:06:00:2033,0.005,0.002,0.993,0.122,0,0.061,0.132,-0.264,-128.535
 14:50:03.507,eb:33:2e:f9:57:b5, 2085-97-10 00:05:00:2033,0.005,0.002,0.993,0,0,0.061,0.132,-0.264,-128.535
 14:50:03.537,eb:33:2e:f9:57:b5, 2085-97-10 00:09:00:2034,0.004,0.002,0.993,0,0,0.061,0.132,-0.264,-128.535
 14:50:03.537,eb:33:2e:f9:57:b5, 2085-97-10 00:05:00:2036,0.005,0.003,0.993,0,0,0.061,0.132,-0.264,-128.535
 14:50:03.537,eb:33:2e:f9:57:b5, 2085-97-11 00:07:00:2033,0.005,0.003,0.993,0.061,0.061,0.061,0.132,-0.264,-128.535
 14:50:03.537,eb:33:2e:f9:57:b5, 2085-97-09 00:05:00:2034,0.005,0.003,0.993,0.061,0.122,0.122,0.132,-0.264,-128.535
 14:50:03.568,eb:33:2e:f9:57:b5, 2085-97-10 00:06:00:2033,0.004,0.002,0.993,0,0.061,0,0.132,-0.264,-128.535
 14:50:03.568,eb:33:2e:f9:57:b5, 2085-97-09 00:05:00:2033,0.004,0.003,0.992,0,0.061,0,0.132,-0.264,-128.535
 14:50:03.568,eb:33:2e:f9:57:b5, 2085-97-09 00:06:00:2033,0.004,0.001,0.993,0.061,-0.061,0,0.132,-0.264,-128.54
 14:50:03.568,eb:33:2e:f9:57:b5, 2085-97-08 00:03:00:2032,0.004,0.002,0.994,0,0,0.061,0.132,-0.264,-128.54
 14:50:03.628,eb:33:2e:f9:57:b5, 2085-97-10 00:06:00:2034,0.005,0.003,0.992,0.122,-0.061,0,0.132,-0.264,-128.54
 14:50:03.628,eb:33:2e:f9:57:b5, 2085-97-09 00:05:00:2033,0.004,0.002,0.993,0.061,-0.061,0.061,0.132,-0.264,-128.54
 14:50:03.628,eb:33:2e:f9:57:b5, 2085-97-09 00:05:00:2032,0.005,0.002,0.993,0,0,0.061,0.132,-0.264,-128.54
 14:50:03.628,eb:33:2e:f9:57:b5, 2085-97-10 00:07:00:2033,0.004,0.003,0.992,0,0,0,0.132,-0.264,-128.54
 14:50:03.657,eb:33:2e:f9:57:b5, 2085-97-10 00:08:00:2034,0.005,0.003,0.993,0,0,0,0.132,-0.264,-128.54
 14:50:03.657,eb:33:2e:f9:57:b5, 2085-97-10 00:07:00:2032,0.005,0.004,0.992,-0.061,-0.061,0,0.132,-0.264,-128.54
 14:50:03.657,eb:33:2e:f9:57:b5, 2085-97-09 00:06:00:2034,0.005,0.003,0.992,0,-0.061,0,0.132,-0.264,-128.54
 14:50:03.657,eb:33:2e:f9:57:b5, 2085-97-11 00:05:00:2035,0.005,0.003,0.993,0,-0.061,-0.061,0.132,-0.264,-128.54
 14:50:03.687,eb:33:2e:f9:57:b5, 2085-97-11 00:05:00:2033,0.005,0.003,0.993,0,0,0,0.132,-0.264,-128.54
 14:50:03.687,eb:33:2e:f9:57:b5, 2085-97-10 00:06:00:2036,0.005,0.002,0.994,0,0,0,0.132,-0.269,-128.54
 14:50:03.687,eb:33:2e:f9:57:b5, 2085-97-10 00:05:00:2034,0.005,0.002,0.993,0,0.061,0,0.132,-0.269,-128.54
 14:50:03.687,eb:33:2e:f9:57:b5, 2085-97-07 00:05:00:2032,0.005,0.003,0.993,0,0,0,0.132,-0.269,-128.54
 14:50:03.748,eb:33:2e:f9:57:b5, 2085-97-09 00:04:00:2034,0.005,0.003,0.994,0,0,0,0.132,-0.269,-128.546
 14:50:03.748,eb:33:2e:f9:57:b5, 2085-97-09 00:07:00:2036,0.004,0.002,0.994,0,0,0,0.132,-0.269,-128.546
 14:50:03.748,eb:33:2e:f9:57:b5, 2085-97-11 00:06:00:2035,0.005,0.003,0.993,0,0,0,0.132,-0.269,-128.546
 14:50:03.748,eb:33:2e:f9:57:b5, 2085-97-10 00:06:00:2036,0.005,0.002,0.994,0,0,0.061,0.132,-0.269,-128.546
 14:50:03.776,eb:33:2e:f9:57:b5, 2085-97-11 00:07:00:2035,0.005,0.002,0.994,0,0,0.061,0.132,-0.269,-128.546
 14:50:03.776,eb:33:2e:f9:57:b5, 2085-97-10 00:05:00:2033,0.005,0.003,0.992,0.061,0,0,0.132,-0.269,-128.546
 14:50:03.776,eb:33:2e:f9:57:b5, 2085-97-10 00:08:00:2033,0.004,0.003,0.993,0,0,0.061,0.132,-0.269,-128.546
 14:50:03.785,eb:33:2e:f9:57:b5, 2085-97-10 00:07:00:2033,0.005,0.003,0.993,0,0,0.061,0.132,-0.269,-128.546
 14:50:03.838,eb:33:2e:f9:57:b5, 2085-97-09 00:06:00:2032,0.003,0.003,0.993,0,0.061,0,0.132,-0.269,-128.546
 14:50:03.838,eb:33:2e:f9:57:b5, 2085-97-10 00:06:00:2033,0.004,0.003,0.992,0,0,0,0.132,-0.269,-128.546
 14:50:03.838,eb:33:2e:f9:57:b5, 2085-97-07 00:05:00:2030,0.003,0.002,0.993,0,0.061,0,0.132,-0.269,-128.546
 14:50:03.838,eb:33:2e:f9:57:b5, 2085-97-10 00:04:00:2039,0.005,0.003,0.992,0,-0.122,-0.061,0.132,-0.269,-128.546
 14:50:03.867,eb:33:2e:f9:57:b5, 2085-97-07 00:06:00:2030,0.004,0.003,0.994,0,0,0,0.132,-0.269,-128.546
 14:50:03.867,eb:33:2e:f9:57:b5, 2085-97-10 00:06:00:2034,0.005,0.004,0.993,0,-0.061,0,0.132,-0.269,-128.546
 14:50:03.867,eb:33:2e:f9:57:b5, 2085-97-09 00:07:00:2032,0.007,0.003,0.992,-0.061,0,0,0.132,-0.269,-128.551
 14:50:03.868,eb:33:2e:f9:57:b5, 2085-97-07 00:07:00:2034,0.004,0.003,0.993,-0.122,0,0,0.132,-0.269,-128.551
 14:50:03.927,eb:33:2e:f9:57:b5, 2085-113-58 00:89:227:-6135,0.005,0.003,0.992,-0.061,-0.061,-0.122,0.132,-0.269,-128.551
 14:50:03.927,eb:33:2e:f9:57:b5, 2085-97-09 00:06:00:2031,0.005,0.003,0.993,-0.061,0,-0.061,0.132,-0.269,-128.551
 14:50:03.927,eb:33:2e:f9:57:b5, 2085-97-11 00:04:00:2035,0.005,0.003,0.993,-0.122,-0.061,-0.122,0.132,-0.269,-128.551
 14:50:03.927,eb:33:2e:f9:57:b5, 2085-97-09 00:05:00:2034,0.004,0.002,0.993,-0.061,-0.061,-0.061,0.132,-0.269,-128.551
 14:50:03.929,eb:33:2e:f9:57:b5, 2085-97-10 00:04:00:2034,0.004,0.002,0.994,-0.061,-0.061,-0.061,0.132,-0.269,-128.551
 14:50:03.929,eb:33:2e:f9:57:b5, 2085-97-09 00:05:00:2034,0.004,0.002,0.992,0,-0.122,0,0.132,-0.269,-128.551
 14:50:03.929,eb:33:2e:f9:57:b5, 2085-97-08 00:06:00:2035,0.005,0.002,0.993,0,-0.122,-0.061,0.132,-0.269,-128.551
 14:50:03.929,eb:33:2e:f9:57:b5, 2085-97-10 00:04:00:2033,0.005,0.002,0.993,0,-0.183,0,0.132,-0.269,-128.551
 14:50:03.988,eb:33:2e:f9:57:b5, 2085-97-10 00:06:00:2033,0.005,0.003,0.993,0,-0.122,0,0.132,-0.269,-128.551
 14:50:03.988,eb:33:2e:f9:57:b5, 2085-97-10 00:06:00:2034,0.005,0.003,0.993,0,-0.061,-0.061,0.132,-0.269,-128.551
 14:50:03.988,eb:33:2e:f9:57:b5, 2085-97-11 00:05:00:2033,0.004,0.003,0.993,-0.061,-0.122,-0.061,0.132,-0.269,-128.551
 14:50:03.988,eb:33:2e:f9:57:b5, 2085-97-08 00:06:00:2033,0.004,0.003,0.993,0,-0.061,-0.061,0.132,-0.269,-128.551
 14:50:04.017,eb:33:2e:f9:57:b5, 2085-97-10 00:05:00:2031,0.004,0.003,0.993,-0.061,-0.122,-0.122,0.132,-0.269,-128.551
 14:50:04.017,eb:33:2e:f9:57:b5, 2085-97-08 00:06:00:2033,0.004,0.003,0.993,-0.122,-0.183,-0.122,0.132,-0.269,-128.557
 14:50:04.017,eb:33:2e:f9:57:b5, 2085-97-10 00:05:00:2033,0.005,0.003,0.993,-0.061,-0.244,-0.183,0.132,-0.269,-128.557
 14:50:04.017,eb:33:2e:f9:57:b5, 2085-97-11 00:05:00:2035,0.006,0.003,0.993,0,-0.244,-0.183,0.132,-0.269,-128.557
 14:50:04.048,eb:33:2e:f9:57:b5, 2085-97-12 00:06:00:2034,0.005,0.003,0.993,0,-0.183,-0.244,0.132,-0.269,-128.557
 14:50:04.049,eb:33:2e:f9:57:b5, 2085-97-10 00:06:00:2033,0.005,0.003,0.993,-0.061,-0.122,-0.183,0.132,-0.269,-128.557
 14:50:04.049,eb:33:2e:f9:57:b5, 2085-97-11 00:05:00:2034,0.005,0.003,0.993,0,-0.122,-0.122,0.132,-0.269,-128.557
 14:50:04.049,eb:33:2e:f9:57:b5, 2085-97-11 00:05:00:2034,0.005,0.002,0.993,-0.061,-0.061,-0.122,0.132,-0.269,-128.557
 14:50:04.108,eb:33:2e:f9:57:b5, 2085-97-10 00:05:00:2032,0.004,0.003,0.993,-0.061,0,-0.122,0.132,-0.269,-128.557
 14:50:04.108,eb:33:2e:f9:57:b5, 2085-97-08 00:07:00:2033,0.004,0.003,0.993,-0.061,-0.061,-0.122,0.132,-0.269,-128.557
 14:50:04.108,eb:33:2e:f9:57:b5, 2085-97-08 00:05:00:2032,0.004,0.003,0.992,-0.122,-0.061,-0.183,0.132,-0.269,-128.557
 14:50:04.108,eb:33:2e:f9:57:b5, 2085-97-10 00:05:00:2032,0.004,0.002,0.992,-0.061,-0.061,-0.244,0.132,-0.269,-128.557
 14:50:04.138,eb:33:2e:f9:57:b5, 2085-97-10 00:06:00:2033,0.004,0.003,0.993,-0.122,-0.061,-0.244,0.137,-0.269,-128.557
 14:50:04.138,eb:33:2e:f9:57:b5, 2085-97-11 00:05:00:2033,0.005,0.003,0.993,0,-0.183,-0.244,0.137,-0.269,-128.557
 14:50:04.138,eb:33:2e:f9:57:b5, 2085-97-10 00:05:00:2032,0.005,0.003,0.992,-0.061,-0.122,-0.183,0.137,-0.269,-128.557
 14:50:04.138,eb:33:2e:f9:57:b5, 2085-97-11 00:05:00:2034,0.005,0.002,0.992,-0.122,0,-0.183,0.137,-0.269,-128.562
 14:50:04.167,eb:33:2e:f9:57:b5, 2085-97-10 00:06:00:2033,0.005,0.002,0.993,-0.061,0,-0.061,0.137,-0.269,-128.562
 14:50:04.167,eb:33:2e:f9:57:b5, 2085-97-10 00:07:00:2035,0.005,0.003,0.993,0,0,-0.061,0.137,-0.269,-128.562
 14:50:04.167,eb:33:2e:f9:57:b5, 2085-97-10 00:04:00:2034,0.005,0.002,0.993,0,0,0,0.137,-0.269,-128.562
 14:50:04.167,eb:33:2e:f9:57:b5, 2085-97-11 00:06:00:2034,0.004,0.001,0.993,0,0,0,0.137,-0.269,-128.562
 14:50:04.228,eb:33:2e:f9:57:b5, 2085-97-09 00:06:00:2033,0.004,0.002,0.992,0,0,0.061,0.137,-0.269,-128.562
 14:50:04.228,eb:33:2e:f9:57:b5, 2085-97-09 00:05:00:2033,0.005,0.003,0.993,0,0,0.061,0.137,-0.269,-128.562
 14:50:04.228,eb:33:2e:f9:57:b5, 2085-97-11 00:05:00:2032,0.005,0.002,0.993,0,0,0,0.137,-0.269,-128.562
 14:50:04.228,eb:33:2e:f9:57:b5, 2085-97-09 00:04:00:2030,0.005,0.002,0.992,0,0,0,0.137,-0.269,-128.562
 14:50:04.258,eb:33:2e:f9:57:b5, 2085-97-11 00:05:00:2032,0.006,0.002,0.992,0,-0.061,0,0.137,-0.269,-128.562
 14:50:04.258,eb:33:2e:f9:57:b5, 2085-97-10 00:06:00:2033,0.005,0.002,0.993,0,0,0,0.137,-0.269,-128.562
 14:50:04.258,eb:33:2e:f9:57:b5, 2085-97-09 00:05:00:2032,0.005,0.002,0.993,0,0,0,0.137,-0.269,-128.562
 14:50:04.258,eb:33:2e:f9:57:b5, 2085-97-10 00:06:00:2033,0.005,0.002,0.993,-0.061,0,0,0.137,-0.269,-128.562
 14:50:04.288,eb:33:2e:f9:57:b5, 2085-97-10 00:06:00:2033,0.006,0.003,0.993,0,0,-0.061,0.137,-0.269,-128.562
 14:50:04.288,eb:33:2e:f9:57:b5, 2085-97-13 00:06:00:2032,0.004,0.002,0.993,-0.061,0,-0.122,0.137,-0.269,-128.568
 14:50:04.288,eb:33:2e:f9:57:b5, 2085-97-11 00:05:00:2034,0.004,0.002,0.993,-0.061,0,-0.061,0.137,-0.269,-128.568
 14:50:04.288,eb:33:2e:f9:57:b5, 2085-97-08 00:06:00:2033,0.005,0.002,0.993,-0.061,-0.061,-0.061,0.137,-0.269,-128.568
 14:50:04.377,eb:33:2e:f9:57:b5, 2085-97-11 00:05:00:2032,0.006,0.003,0.993,-0.061,0,-0.122,0.137,-0.269,-128.568
 14:50:04.377,eb:33:2e:f9:57:b5, 2085-97-11 00:05:00:2034,0.005,0.002,0.993,-0.061,-0.061,-0.061,0.137,-0.269,-128.568
 14:50:04.377,eb:33:2e:f9:57:b5, 2085-97-12 00:04:00:2034,0.005,0.002,0.994,0,-0.061,-0.061,0.137,-0.269,-128.568
 14:50:04.377,eb:33:2e:f9:57:b5, 2085-97-10 00:04:00:2034,0.005,0.002,0.993,0,0,0,0.137,-0.269,-128.568
 14:50:04.379,eb:33:2e:f9:57:b5, 2085-97-09 00:05:00:2034,0.005,0.002,0.993,0,-0.061,0,0.137,-0.269,-128.568
 14:50:04.379,eb:33:2e:f9:57:b5, 2085-97-09 00:04:00:2033,0.004,0.002,0.992,0,0,0,0.137,-0.269,-128.568
 14:50:04.379,eb:33:2e:f9:57:b5, 2085-97-11 00:05:00:2034,0.006,0.002,0.993,-0.061,-0.061,-0.061,0.137,-0.269,-128.568
 14:50:04.379,eb:33:2e:f9:57:b5, 2085-97-10 00:04:00:2034,0.005,0.002,0.994,-0.061,0,0,0.137,-0.269,-128.568
 14:50:04.468,eb:33:2e:f9:57:b5, 2085-97-12 00:05:00:2034,0.006,0.002,0.993,-0.061,0,-0.122,0.137,-0.275,-128.568
 14:50:04.468,eb:33:2e:f9:57:b5, 2085-97-11 00:05:00:2033,0.005,0.003,0.993,-0.061,0,-0.061,0.137,-0.275,-128.568
 14:50:04.468,eb:33:2e:f9:57:b5, 2085-97-10 00:04:00:2034,0.005,0.002,0.993,-0.061,0,-0.122,0.137,-0.275,-128.568
 14:50:04.468,eb:33:2e:f9:57:b5, 2085-97-12 00:03:00:2032,0.006,0.003,0.993,-0.061,-0.061,-0.061,0.137,-0.275,-128.573
