Time,Device name,Chip Time(),Acceleration X(g),Acceleration Y(g),Acceleration Z(g),Angular velocity X(°/s),Angular velocity Y(°/s),Angular velocity Z(°/s),Angle X(°),Angle Y(°),Angle Z(°)
 14:55:47.444,eb:33:2e:f9:57:b5, 2085-97-216 13:107:241:2976,2.149,-2.267,1.949,-490.479,256.348,-265.076,71.906,24.527,-84.194
 14:55:47.444,eb:33:2e:f9:57:b5, 2085-97-157 19:35:247:723,2.792,-1.435,0.893,-599.426,343.628,-346.741,67.275,28.526,-82.123
 14:55:47.444,eb:33:2e:f9:57:b5, 2085-97-196 24:96:251:-301,3.254,-0.816,0.015,-667.358,300.659,-431.519,61.617,33.492,-80.651
 14:55:47.444,eb:33:2e:f9:57:b5, 2085-97-72 26:62:253:-479,3.114,-0.444,-0.209,-681.335,185.242,-492.371,54.443,38.727,-81.205
 14:55:47.475,eb:33:2e:f9:57:b5, 2085-97-13 25:122:252:-381,2.75,-0.352,-0.369,-613.647,10.681,-505.249,45.758,43.193,-84.49
 14:55:47.475,eb:33:2e:f9:57:b5, 2085-97-51 19:64:248:-581,1.924,-0.716,-0.339,-516.907,-165.833,-445.923,36.019,45.681,-90.357
 14:55:47.475,eb:33:2e:f9:57:b5, 2085-97-15 13:194:246:-028,1.61,-1.146,-0.292,-438.293,-340.515,-304.749,26.647,45.412,-96.839
 14:55:47.475,eb:33:2e:f9:57:b5, 2085-97-176 11:73:252:1504,1.068,-0.942,0.518,-378.357,-498.962,-123.291,19.138,42.215,-101.794
 14:55:47.475,eb:33:2e:f9:57:b5, 2085-97-255 06:114:08:2683,0.518,0.284,0.69,-312.195,-648.865,30.457,14.057,36.821,-104.299
 14:55:47.475,eb:33:2e:f9:57:b5, 2085-97-157 255:125:23:5525,-0.713,1.937,1.998,-230.103,-773.926,123.352,10.893,29.553,-105.172
 14:55:47.475,eb:33:2e:f9:57:b5, 2085-97-76 245:217:40:9054,-1.864,4.069,3.499,-174.194,-801.758,150.269,8.948,21.412,-105.112
 14:55:47.476,eb:33:2e:f9:57:b5, 2085-97-110 238:248:54:9747,-2.282,6.014,4.936,-145.813,-622.498,96.191,7.427,14.073,-104.897
 14:55:47.480,eb:33:2e:f9:57:b5, 2085-97-09 237:127:67:6880,-2.562,7.687,4.168,-149.536,-333.008,-9.155,5.949,9.421,-105.029
 14:55:47.480,eb:33:2e:f9:57:b5, 2085-97-225 233:173:77:3359,-3.109,9.23,2.355,-112.732,-156.921,-158.447,4.389,7.262,-106.122
 14:55:47.480,eb:33:2e:f9:57:b5, 2085-97-137 226:186:72:2975,-4.394,9.699,1.359,-0.488,-170.959,-263.062,3.576,5.856,-108.452
 14:55:47.480,eb:33:2e:f9:57:b5, 2085-97-32 216:173:57:3501,-5.23,8.181,1.629,120.3,-176.697,-266.418,3.994,4.208,-111.324
 14:55:47.480,eb:33:2e:f9:57:b5, 2085-97-101 215:40:46:2986,-4.545,6.358,1.658,223.938,-89.172,-172.241,5.63,3.038,-113.632
 14:55:47.480,eb:33:2e:f9:57:b5, 2085-97-250 224:18:40:1534,-3.214,5.381,1.166,332.336,11.719,-66.65,8.394,2.862,-114.769
 14:55:47.480,eb:33:2e:f9:57:b5, 2085-97-155 234:126:29:-1113,-2.3,4.467,0.143,446.472,54.504,-17.761,12.354,3.329,-115.038
 14:55:47.481,eb:33:2e:f9:57:b5, 2085-97-227 239:149:14:-4103,-1.123,2.757,-1.284,499.939,31.86,-15.32,17.172,3.801,-115.06
 14:55:47.483,eb:33:2e:f9:57:b5, 2085-97-232 20:58:217:-13791,0.062,2.597,-4.252,401.428,-39.429,-183.533,21.907,3.928,-115.488
 14:55:47.483,eb:33:2e:f9:57:b5, 2085-97-85 254:58:209:12057,-1.125,-1.084,6.237,439.758,271.362,-183.594,73.499,26.779,-108.671
 14:55:47.483,eb:33:2e:f9:57:b5, 2085-97-132 04:71:207:14891,3.354,-8.621,6.586,-6.165,843.933,331.421,78.157,27.543,-102.338
 14:55:47.483,eb:33:2e:f9:57:b5, 2085-97-17 38:222:242:7621,4.663,-2.434,3.271,-56.641,891.357,501.404,83.128,24.346,-90.758
 14:55:47.564,eb:33:2e:f9:57:b5, 2085-97-96 34:115:255:2672,4.414,-0.988,2.65,-100.098,513.428,501.831,85.078,19.863,-82.623
 14:55:47.564,eb:33:2e:f9:57:b5, 2085-97-142 28:96:05:1718,2.506,0.814,1.143,35.767,-12.268,294.067,85.616,16.013,-80.074
 14:55:47.564,eb:33:2e:f9:57:b5, 2085-97-67 12:179:244:4437,0.603,-0.245,1.103,77.209,-354.065,18.677,85.765,14.464,-82.227
 14:55:47.564,eb:33:2e:f9:57:b5, 2085-97-243 252:169:231:8305,-0.854,-2.324,3.165,-0.977,-453.735,-139.648,85.018,14.914,-86.671
 14:55:47.804,eb:33:2e:f9:57:b5, 2085-97-91 247:208:225:10038,-1.068,-3.401,4.566,-150.696,-388.184,-196.655,82.941,16.243,-91.307
 14:55:47.804,eb:33:2e:f9:57:b5, 2085-97-89 248:233:220:9904,-0.698,-4.16,5.044,-293.518,-196.472,-178.101,79.618,17.693,-94.614
 14:55:47.804,eb:33:2e:f9:57:b5, 2085-97-40 254:164:225:6832,0.27,-4.26,4.161,-418.091,54.077,-126.953,75.701,19.05,-95.543
 14:55:47.804,eb:33:2e:f9:57:b5, 2085-97-218 05:213:235:3475,1.206,-3.173,2.396,-528.442,228.516,-103.76,71.274,20.566,-94.241
 14:55:48.045,eb:33:2e:f9:57:b5, 2085-97-68 12:144:243:1611,1.695,-2.005,1.227,-600.159,262.878,-134.277,66.335,22.588,-92.137
 14:55:48.045,eb:33:2e:f9:57:b5, 2085-97-95 14:150:248:560,1.861,-1.176,0.406,-636.169,205.139,-183.105,60.656,25.065,-90.615
 14:55:48.045,eb:33:2e:f9:57:b5, 2085-97-241 14:247:249:938,1.82,-0.812,0.321,-638.306,100.22,-228.21,54.316,27.62,-90.461
 14:55:48.045,eb:33:2e:f9:57:b5, 2085-97-242 13:240:249:1777,1.569,-0.732,0.673,-615.417,-24.658,-256.042,47.258,29.696,-91.978
 14:55:48.074,eb:33:2e:f9:57:b5, 2085-113-81 00:248:69:13292,1.292,-0.848,0.923,-595.276,-151.672,-256.042,39.76,30.795,-94.883
 14:55:48.074,eb:33:2e:f9:57:b5, 2085-97-52 07:177:245:2033,0.48,-1.037,0.938,-595.581,-216.37,-238.77,35.854,30.8,-96.696
 14:55:48.074,eb:33:2e:f9:57:b5, 2085-97-215 00:86:242:3265,-0.092,-1.542,1.203,-617.737,-314.819,-155.396,27.894,29.493,-100.349
 14:55:48.074,eb:33:2e:f9:57:b5, 2085-97-145 255:168:244:5984,0.108,-1.698,2.229,-622.742,-365.051,-19.47,20.479,26.669,-102.816
 14:55:48.077,eb:33:2e:f9:57:b5, 2085-97-27 02:32:01:6000,0.432,-0.719,3.189,-580.688,-346.313,108.154,14.123,23.077,-103.431
 14:55:48.077,eb:33:2e:f9:57:b5, 2085-97-235 03:32:15:4913,0.419,1.027,2.622,-515.991,-356.75,166.626,8.943,19.374,-102.634
 14:55:48.077,eb:33:2e:f9:57:b5, 2085-97-229 01:48:28:5424,-0.052,2.763,2.408,-423.401,-431.702,165.527,4.587,15.244,-101.365
 14:55:48.078,eb:33:2e:f9:57:b5, 2085-97-217 251:103:37:7736,-1.071,4.095,3.311,-337.952,-484.68,130.127,1.137,10.464,-100.096
 14:55:48.106,eb:33:2e:f9:57:b5, 2085-97-39 243:211:46:7159,-1.956,5.279,3.745,-313.293,-434.509,97.656,-1.956,5.828,-98.948
 14:55:48.106,eb:33:2e:f9:57:b5, 2085-97-158 02:203:00:3090,0.377,6.492,3.376,-326.965,-346.13,72.205,-5.076,1.978,-97.872
 14:55:48.106,eb:33:2e:f9:57:b5, 2085-97-148 04:63:01:4462,-0.197,0.165,1.575,44.312,34.058,21.24,2.719,4.592,-111.028
 14:55:48.106,eb:33:2e:f9:57:b5, 2085-97-11 251:180:250:7183,-0.75,-0.371,3.033,136.597,72.388,21.423,3.582,5.142,-110.797
 14:55:48.106,eb:33:2e:f9:57:b5, 2085-97-61 249:35:249:7324,-0.714,-0.934,3.783,240.54,82.458,40.039,5.57,5.883,-110.484
 14:55:48.106,eb:33:2e:f9:57:b5, 2085-97-204 00:06:225:9416,0.314,-1.061,3.913,338.318,25.452,74.28,8.569,6.306,-109.863
 14:55:48.106,eb:33:2e:f9:57:b5, 2085-97-20 03:190:226:6745,0.452,-3.814,4.027,-244.507,-5.92,-162.72,82.842,29.625,-82.441
 14:55:48.107,eb:33:2e:f9:57:b5, 2085-97-153 04:66:229:4047,0.818,-3.486,2.581,-324.585,49.5,-139.16,80.008,31.141,-82.354
 14:55:48.134,eb:33:2e:f9:57:b5, 2085-97-22 09:105:233:2381,1.456,-3.078,1.501,-412.109,55.054,-130.127,76.344,32.536,-82.079
 14:55:48.134,eb:33:2e:f9:57:b5, 2085-97-24 13:119:237:1134,1.671,-2.57,0.882,-498.535,40.344,-141.052,71.807,33.964,-81.958
 14:55:48.134,eb:33:2e:f9:57:b5, 2085-97-213 12:241:241:248,1.596,-2.044,0.265,-581.36,-9.094,-158.875,65.967,35.414,-82.491
 14:55:48.134,eb:33:2e:f9:57:b5, 2085-97-100 12:06:246:1509,1.464,-1.472,0.381,-638.489,-99.67,-177.551,58.865,36.634,-84.095
 14:55:48.163,eb:33:2e:f9:57:b5, 2085-97-217 10:94:247:2843,1.229,-1.121,1.062,-646.729,-195.19,-187.256,50.532,37.233,-87.045
 14:55:48.163,eb:33:2e:f9:57:b5, 2085-97-62 08:145:247:3819,0.811,-1.031,1.648,-618.713,-280.823,-177.246,41.918,36.87,-90.829
 14:55:48.163,eb:33:2e:f9:57:b5, 2085-97-76 04:189:244:4878,0.23,-1.198,2.146,-592.59,-350.037,-140.869,33.409,35.25,-94.9
 14:55:48.163,eb:33:2e:f9:57:b5, 2085-97-233 255:152:243:5538,-0.088,-1.566,2.53,-593.506,-367.554,-68.359,25.675,32.607,-98.146
 14:55:48.435,eb:33:2e:f9:57:b5, 2085-97-76 00:222:249:6267,0.2,-1.273,2.923,-594.788,-353.943,22.095,18.671,29.29,-99.987
 14:55:48.435,eb:33:2e:f9:57:b5, 2085-97-107 02:168:04:5212,0.351,-0.088,2.883,-565.308,-357.178,85.876,12.667,25.741,-100.393
 14:55:48.435,eb:33:2e:f9:57:b5, 2085-97-104 02:61:12:4590,0.176,1.133,2.314,-516.418,-420.227,105.103,7.295,21.703,-100.102
 14:55:48.435,eb:33:2e:f9:57:b5, 2085-97-11 00:80:16:5365,-0.242,1.813,2.349,-468.018,-516.785,102.112,2.637,16.886,-99.421
 14:55:48.435,eb:33:2e:f9:57:b5, 2085-113-81 00:83:83:2117,-0.632,2.274,2.998,-459.717,-554.993,103.577,-1.813,11.354,-98.448
 14:55:48.673,eb:33:2e:f9:57:b5, 2085-97-245 246:156:25:7823,-1.77,2.646,3.343,-470.764,-540.039,111.328,-4.026,8.652,-97.756
 14:55:48.673,eb:33:2e:f9:57:b5, 2085-97-108 238:211:42:9077,-2.441,4.196,4.354,-475.586,-446.96,131.836,-8.718,3.774,-95.988
 14:55:48.673,eb:33:2e:f9:57:b5, 2085-97-248 236:49:64:8429,-2.352,6.707,4.244,-405.457,-325.012,127.747,-13.101,0.319,-93.972
 14:55:48.673,eb:33:2e:f9:57:b5, 2085-97-32 235:114:77:8298,-2.921,9.067,4.058,-267.151,-267.456,73.975,-16.54,-2.214,-92.252
 14:55:48.675,eb:33:2e:f9:57:b5, 2085-97-109 231:64:80:8416,-3.101,9.906,4.109,-114.319,-263.916,7.141,-18.419,-4.658,-91.104
 14:55:48.675,eb:33:2e:f9:57:b5, 2085-97-184 231:171:82:8532,-2.89,10.136,4.207,-38.574,-219.238,-43.762,-19.188,-7.075,-90.505
 14:55:48.675,eb:33:2e:f9:57:b5, 2085-97-66 234:113:84:7741,-2.614,10.528,3.997,4.15,-128.54,-94.421,-19.352,-8.915,-90.621
 14:55:48.675,eb:33:2e:f9:57:b5, 2085-97-150 234:69:77:7055,-2.854,10.284,3.644,118.713,-67.078,-134.033,-18.644,-10.179,-91.45
 14:55:48.675,eb:33:2e:f9:57:b5, 2085-97-26 232:146:59:6291,-2.987,8.663,3.254,270.386,-44.922,-139.404,-16.386,-11.14,-92.648
 14:55:48.675,eb:33:2e:f9:57:b5, 2085-97-239 233:120:40:4980,2.265,6.208,2.782,372.986,32.837,-102.112,-12.854,-11.536,-93.818
 14:55:48.676,eb:33:2e:f9:57:b5, 2085-97-174 00:245:44:-2200,0.555,6.574,7.849,713.44,-103.333,-227.234,-7.921,-11.678,-95.032
 14:55:48.676,eb:33:2e:f9:57:b5, 2085-97-237 16:173:28:8965,5.679,6.99,-0.534,335.571,527.222,-558.289,-0.467,-7.8,-98.569
 14:55:48.678,eb:33:2e:f9:57:b5, 2085-97-255 225:251:231:-9460,2.56,2.31,6.102,-71.106,750.366,-143.127,0.077,-2.098,-101.025
 14:55:48.678,eb:33:2e:f9:57:b5, 2085-97-87 14:76:235:12841,1.095,-2.46,5.602,961.914,369.995,-10.071,35.343,11.426,-92.642
 14:55:48.678,eb:33:2e:f9:57:b5, 2085-97-188 07:07:254:16745,1.021,-1.377,6.833,1037.231,440.125,-7.507,46.055,14.733,-89.813
 14:55:48.678,eb:33:2e:f9:57:b5, 2085-97-186 11:199:244:18339,0.145,0.376,9.2,1156.006,172.607,-136.475,57.59,17.166,-87.665
 14:55:48.681,eb:33:2e:f9:57:b5, 2085-97-05 254:179:15:3756,0.637,-1.186,4.851,1000.793,134.094,-75.623,68.802,18.935,-86.819
 14:55:48.681,eb:33:2e:f9:57:b5, 2085-97-193 16:69:245:1389,1.03,2.982,1.571,662.781,-39.673,-184.021,76.97,20.094,-87.006
 14:55:48.681,eb:33:2e:f9:57:b5, 2085-97-61 253:53:231:4149,-0.048,-3.512,0.043,159.241,204.163,-170.654,80.832,22.231,-86.638
 14:55:48.681,eb:33:2e:f9:57:b5, 2085-97-176 04:31:01:6278,0.724,-0.74,0.017,-21.729,322.876,-110.657,82.749,23.774,-83.265
 14:55:48.855,eb:33:2e:f9:57:b5, 2085-97-81 05:47:09:16610,1.107,0.821,5.905,-119.751,264.282,-93.689,82.892,25.197,-80.211
 14:55:48.855,eb:33:2e:f9:57:b5, 2085-97-212 06:19:237:5986,0.633,-2.336,2.346,-606.995,-505.188,-54.016,36.59,32.668,-92.214
 14:55:48.855,eb:33:2e:f9:57:b5, 2085-97-172 03:128:238:7877,0.358,-2.326,3.447,-627.441,-495.056,-8.301,28.625,28.581,-95.685
 14:55:48.855,eb:33:2e:f9:57:b5, 2085-97-157 02:241:244:8005,0.389,-1.862,4.011,-628.845,-434.753,39.062,21.286,24.236,-97.74
 14:55:48.857,eb:33:2e:f9:57:b5, 2085-97-71 03:14:253:7267,0.375,-0.853,3.702,-601.501,-414.734,61.768,14.804,20.089,-98.602
 14:55:48.857,eb:33:2e:f9:57:b5, 2085-97-225 01:115:02:7687,0.026,0.07,3.612,-550.537,-435.974,56.335,8.822,15.727,-98.926
 14:55:48.857,eb:33:2e:f9:57:b5, 2085-97-85 254:148:05:8078,-0.417,0.484,3.877,-511.597,-455.322,44.189,3.549,11.223,-98.937
 14:55:48.857,eb:33:2e:f9:57:b5, 2085-97-214 250:11:13:8887,-0.88,1.063,4.066,-501.709,-459.595,50.781,-1.566,6.548,-98.569
 14:55:48.883,eb:33:2e:f9:57:b5, 2085-97-67 247:250:27:10732,-1.335,2.428,4.847,-486.267,-464.966,78.186,-6.465,1.978,-97.608
 14:55:48.883,eb:33:2e:f9:57:b5, 2085-97-203 243:08:45:10283,-1.707,4.634,5.217,-413.025,-478.271,102.6,-11.102,-2.593,-95.966
 14:55:48.883,eb:33:2e:f9:57:b5, 2085-97-44 239:110:61:11687,-2.661,6.613,5.179,-348.999,-501.038,122.009,-15.018,-7.141,-93.746
 14:55:48.883,eb:33:2e:f9:57:b5, 2085-97-104 229:219:77:14014,-3.765,8.727,6.396,-330.078,-460.632,134.644,-18.962,-11.486,-91.016
 14:55:48.886,eb:33:2e:f9:57:b5, 2085-97-224 224:166:94:12515,-3.762,10.825,6.729,-241.821,-319.641,112.244,-22.462,-14.661,-88.412
 14:55:48.886,eb:33:2e:f9:57:b5, 2085-97-03 227:130:100:9215,-3.48,12.47,5.277,-81.482,-184.937,39.551,-24.549,-16.628,-86.649
 14:55:48.886,eb:33:2e:f9:57:b5, 2085-97-139 228:83:87:6186,-3.435,11.998,3.811,50.781,-58.594,-63.843,-24.692,-17.748,-86.32
 14:55:48.886,eb:33:2e:f9:57:b5, 2085-97-44 228:226:70:4512,-3.507,9.745,2.452,122.314,41.382,-128.296,-23.478,-18.21,-87.314
 14:55:48.913,eb:33:2e:f9:57:b5, 2085-97-121 05:125:69:16974,-1.249,7.889,2.088,179.199,92.834,-149.292,-21.434,-18.073,-89
 14:55:48.913,eb:33:2e:f9:57:b5, 2085-97-44 18:56:21:3790,-2.819,9.923,-0.92,952.881,582.092,-382.019,-14.189,-15.496,-91.868
 14:55:48.913,eb:33:2e:f9:57:b5, 2085-97-156 249:181:23:9132,2.28,4.95,1.792,731.873,743.713,-396.24,-4.235,-7.009,-96.24
 14:55:48.913,eb:33:2e:f9:57:b5, 2085-97-201 241:152:251:3211,-1.318,4.9,4.291,130.981,118.408,-10.742,0.165,-5.213,-98.536
 14:55:49.003,eb:33:2e:f9:57:b5, 2085-97-70 03:95:250:2615,-2.549,-2.819,0.018,140.32,-199.097,109.07,1.577,-6.07,-98.619
 14:55:49.003,eb:33:2e:f9:57:b5, 2085-97-238 09:102:10:2197,-0.982,0.555,-1.803,75.989,-197.998,108.948,2.285,-6.916,-97.218
 14:55:49.003,eb:33:2e:f9:57:b5, 2085-97-25 08:176:04:3831,0.524,0.328,-0.652,24.048,-66.223,4.578,2.626,-7.328,-96.91
 14:55:49.003,eb:33:2e:f9:57:b5, 2085-97-02 01:11:254:3270,-0.523,0.315,1.223,17.212,42.664,-54.626,2.818,-7.284,-97.229
 14:55:49.005,eb:33:2e:f9:57:b5, 2085-97-112 02:157:00:2719,0.277,-0.17,0.667,36.621,8.606,-20.752,3.186,-6.839,-97.625
 14:55:49.005,eb:33:2e:f9:57:b5, 2085-97-179 252:249:254:1202,0.316,0.149,1.243,21.301,76.355,-13.916,3.516,-6.438,-97.762
 14:55:49.005,eb:33:2e:f9:57:b5, 2085-97-57 07:178:01:4411,0.884,0.117,1.403,29.114,39.551,-11.353,3.752,-5.999,-97.833
 14:55:49.006,eb:33:2e:f9:57:b5, 2085-97-38 07:134:03:4510,-0.474,0.32,1.988,28.015,169.373,-19.531,4.07,-4.823,-97.905
 14:55:49.008,eb:33:2e:f9:57:b5, 2085-97-229 250:76:246:13974,-0.063,-0.351,4.341,123.84,186.707,-53.345,4.702,-2.928,-98.185
 14:55:49.008,eb:33:2e:f9:57:b5, 2085-97-244 253:181:246:9317,-0.158,-1.293,6.353,304.077,328.003,21.973,7.015,-0.319,-98.152
 14:55:49.008,eb:33:2e:f9:57:b5, 2085-97-81 255:73:240:12478,0.564,-1.498,4.878,428.833,267.639,67.688,10.778,2.488,-97.234
 14:55:49.008,eb:33:2e:f9:57:b5, 2085-97-226 04:97:241:9209,1.629,-2.042,5.401,557.8,317.505,134.766,15.875,5.12,-95.438
 14:55:49.064,eb:33:2e:f9:57:b5, 2085-97-62 14:58:233:11723,1.94,-2.208,5.326,740.845,234.375,65.125,22.665,7.245,-93.741
 14:55:49.064,eb:33:2e:f9:57:b5, 2085-97-184 12:23:230:12018,1.303,-3.663,6.36,937.927,377.869,45.776,31.415,9.613,-91.961
 14:55:49.064,eb:33:2e:f9:57:b5, 2085-97-186 05:196:00:15981,0.27,-2.284,6.358,1068.542,455.75,63.782,42.193,12.81,-88.808
 14:55:49.064,eb:33:2e:f9:57:b5, 2085-97-79 02:96:249:20624,-0.433,0.972,9.702,1186.768,127.747,-93.384,53.998,14.804,-86.66
 14:55:49.066,eb:33:2e:f9:57:b5, 2085-97-23 249:77:07:7987,0.135,-0.992,7.022,1012.817,173.767,-90.088,65.369,16.359,-86.177
 14:55:49.066,eb:33:2e:f9:57:b5, 2085-97-76 16:92:248:2371,2.982,1.589,2.642,645.569,183.044,-118.469,73.949,17.858,-84.727
 14:55:49.066,eb:33:2e:f9:57:b5, 2085-97-132 18:75:243:3886,2.291,-1.546,-0.424,177.612,324.585,-212.341,78.42,20.012,-82.573
 14:55:49.066,eb:33:2e:f9:57:b5, 2085-97-253 19:116:11:3436,2.161,-0.38,1.612,20.508,487.854,-251.77,80.788,23.038,-78.278
 14:55:49.123,eb:33:2e:f9:57:b5, 2085-97-201 13:27:16:9515,1.29,1.922,3.47,-82.336,213.44,-323.12,81.568,26.592,-74.861
 14:55:49.123,eb:33:2e:f9:57:b5, 2085-97-107 07:245:252:14332,0.896,1.048,6.079,-0.366,2.075,-359.314,81.189,30.108,-74.652
 14:55:49.123,eb:33:2e:f9:57:b5, 2085-97-82 08:202:233:15683,1.114,-1.811,7.694,58.594,80.139,-334.9,81.365,33.618,-75.059
 14:55:49.123,eb:33:2e:f9:57:b5, 2085-97-129 10:224:228:11057,1.455,-3.207,6.696,51.086,271.057,-251.892,82.925,36.733,-73.224
 14:55:49.184,eb:33:2e:f9:57:b5, 2085-97-29 12:148:228:5198,1.603,-3.562,3.959,-3.54,296.265,-155.884,85.309,39.018,-69.736
 14:55:49.184,eb:33:2e:f9:57:b5, 2085-97-238 13:202:232:3578,1.834,-3.163,1.764,-57.739,156.311,-86.182,86.627,40.287,-66.962
 14:55:49.184,eb:33:2e:f9:57:b5, 2085-97-12 14:175:234:6025,1.544,-2.743,2.249,-96.741,5.859,-62.927,86.364,41.028,-66.138
 14:55:49.184,eb:33:2e:f9:57:b5, 2085-97-194 10:201:234:7434,1.24,-2.674,3.462,-116.028,-62.744,-60.486,84.727,41.589,-66.808
 14:55:49.186,eb:33:2e:f9:57:b5, 2085-97-49 08:247:233:6510,0.883,-2.637,3.563,-140.259,-77.087,-59.814,82.733,42.111,-67.896
 14:55:49.186,eb:33:2e:f9:57:b5, 2085-97-238 06:158:231:5114,0.779,-2.92,2.8,-183.167,-104.98,-49.5,80.035,42.506,-69.329
 14:55:49.186,eb:33:2e:f9:57:b5, 2085-97-75 08:141:230:3838,1.037,-3.215,1.846,-255.432,-128.906,-24.109,76.712,42.616,-70.994
 14:55:49.186,eb:33:2e:f9:57:b5, 2085-97-169 09:27:234:2492,1.371,-2.993,1.461,-360.229,-119.507,12.207,72.361,42.319,-72.653
 14:55:49.244,eb:33:2e:f9:57:b5, 2085-97-231 12:27:239:1967,1.803,-2.422,0.975,-484.375,-115.906,36.072,67.192,41.671,-73.998
 14:55:49.244,eb:33:2e:f9:57:b5, 2085-113-58 00:09:232:-9330,2.013,-1.715,1.073,-583.679,-148.865,34.973,60.683,40.732,-75.46
 14:55:49.244,eb:33:2e:f9:57:b5, 2085-97-107 16:185:248:3158,2.007,-1.299,1.375,-616.76,-174.988,26.306,57.129,40.177,-76.284
 14:55:49.244,eb:33:2e:f9:57:b5, 2085-97-244 15:138:252:3938,1.982,-0.62,1.667,-649.109,-251.221,-1.343,49.395,38.804,-78.42
 14:55:49.305,eb:33:2e:f9:57:b5, 2085-97-145 15:125:253:5663,1.834,-0.331,2.298,-647.827,-339.478,-30.273,40.957,36.749,-81.392
 14:55:49.305,eb:33:2e:f9:57:b5, 2085-97-111 13:187:252:7465,1.487,-0.349,3.211,-645.508,-396.79,-48.035,32.673,33.992,-84.567
 14:55:49.305,eb:33:2e:f9:57:b5, 2085-97-70 11:36:254:8164,1.426,-0.373,3.954,-658.997,-397.095,-50.842,24.478,30.635,-87.468
 14:55:49.305,eb:33:2e:f9:57:b5, 2085-97-58 10:177:02:6978,0.965,0.031,3.87,-667.542,-392.944,-47.974,16.809,27.142,-89.588
 14:55:49.424,eb:33:2e:f9:57:b5, 2085-97-49 07:186:08:6178,0.764,0.787,2.837,-644.226,-469.421,-41.382,9.399,23.027,-91.159
 14:55:49.424,eb:33:2e:f9:57:b5, 2085-97-227 03:63:12:8365,0.137,1.369,3.485,-581.421,-584.167,-26.611,2.944,17.743,-92.131
 14:55:49.424,eb:33:2e:f9:57:b5, 2085-97-71 254:102:14:9440,-0.534,1.636,4.485,-519.531,-614.624,-6.531,-2.708,11.541,-92.335
 14:55:49.424,eb:33:2e:f9:57:b5, 2085-97-64 249:141:19:9271,-1.163,2.079,4.574,-490.295,-579.102,12.634,-7.63,5.598,-91.758
 14:55:49.426,eb:33:2e:f9:57:b5, 2085-97-70 244:69:28:9231,-1.8,2.903,4.48,-483.459,-544.25,24.475,-12.579,0.038,-90.588
 14:55:49.426,eb:33:2e:f9:57:b5, 2085-97-44 238:05:45:10106,-2.741,4.447,4.669,-471.375,-546.814,38.94,-17.441,-5.12,-88.879
 14:55:49.426,eb:33:2e:f9:57:b5, 2085-97-235 229:232:69:11155,-3.633,7.051,5.177,-413.391,-545.41,46.997,-22.357,-10.217,-86.539
 14:55:49.426,eb:33:2e:f9:57:b5, 2085-97-138 224:111:90:13413,-4.409,10.417,5.979,-235.901,-530.518,19.775,-26.164,-14.958,-83.93
 14:55:49.428,eb:33:2e:f9:57:b5, 2085-97-96 216:63:89:14665,-5.313,11.265,7.028,-74.768,-454.407,-43.274,-28.323,-19.539,-81.639
 14:55:49.428,eb:33:2e:f9:57:b5, 2085-97-45 214:136:89:12262,-4.83,11.182,6.653,-22.644,-217.712,-88.013,-29.086,-22.753,-80.585
 14:55:49.428,eb:33:2e:f9:57:b5, 2085-97-94 221:106:85:9848,-3.821,11.112,5.329,-10.803,3.113,-149.109,-29.064,-24.153,-81.238
 14:55:49.428,eb:33:2e:f9:57:b5, 2085-97-40 228:105:70:7663,-3.364,9.88,4.436,89.661,111.023,-223.267,-27.784,-24.445,-83.463
 14:55:49.430,eb:33:2e:f9:57:b5, 2085-97-48 229:241:46:6131,-3.272,7.435,3.384,230.591,130.066,-244.812,-24.895,-24.434,-86.457
 14:55:49.430,eb:33:2e:f9:57:b5, 2085-97-243 231:234:18:4594,1.174,4.126,2.574,356.995,114.685,-183.594,-20.726,-24.142,-89.193
 14:55:49.430,eb:33:2e:f9:57:b5, 2085-97-25 04:45:09:1719,2.9,0.276,5.572,665.039,-174.438,-305.847,-15.491,-24.329,-91.252
 14:55:49.430,eb:33:2e:f9:57:b5, 2085-97-143 53:129:37:15173,6.734,-0.31,5.759,685.059,984.985,-120.056,-6.257,-20.127,-93.054
 14:55:49.484,eb:33:2e:f9:57:b5, 2085-97-99 215:84:250:-11750,-5.393,3.559,5.047,22.095,1117.798,-33.264,-3.257,-10.844,-96.053
 14:55:49.484,eb:33:2e:f9:57:b5, 2085-97-242 235:188:243:-1153,-3.462,-1.365,-2.475,202.393,53.223,-53.589,-2.291,-5.57,-96.119
 14:55:49.484,eb:33:2e:f9:57:b5, 2085-97-214 233:137:252:-4653,1.558,0.581,-2.64,40.71,-72.083,112.305,-0.983,-5.999,-95.565
 14:55:49.484,eb:33:2e:f9:57:b5, 2085-97-31 22:165:06:7430,-0.018,0.837,2.145,22.644,-223.816,54.688,-0.813,-8.663,-94.68
 14:55:49.544,eb:33:2e:f9:57:b5, 2085-97-217 09:109:02:5588,0.75,0.226,0.644,27.283,-8.179,-19.165,-0.626,-8.652,-94.675
 14:55:49.544,eb:33:2e:f9:57:b5, 2085-97-212 254:88:253:2611,-1.464,0.341,1.676,41.26,189.697,-55.115,-0.154,-7.603,-95.136
 14:55:49.544,eb:33:2e:f9:57:b5, 2085-97-122 246:210:254:-279,0.005,-0.55,-0.084,28.687,121.46,24.597,0.28,-5.801,-95.334
 14:55:49.544,eb:33:2e:f9:57:b5, 2085-97-205 06:203:02:4750,-1.008,-0.131,1.744,17.09,45.105,59.57,0.434,-5.378,-94.938
 14:55:49.633,eb:33:2e:f9:57:b5, 2085-97-81 248:49:241:16289,-0.462,-0.818,5.174,161.926,4.089,24.109,1.126,-5.032,-94.493
 14:55:49.633,eb:33:2e:f9:57:b5, 2085-97-107 255:171:246:9593,-0.167,-1.468,6.197,345.337,162.903,115.295,3.785,-3.939,-93.708
 14:55:49.633,eb:33:2e:f9:57:b5, 2085-97-97 254:193:239:11582,0.316,-1.538,5.011,485.168,108.276,101.99,7.927,-2.73,-92.488
 14:55:49.633,eb:33:2e:f9:57:b5, 2085-97-212 08:101:237:11334,1.684,-2.269,5.762,636.23,138.55,108.398,13.552,-1.725,-91.214
 14:55:49.637,eb:33:2e:f9:57:b5, 2085-97-176 16:98:230:13135,2.267,-2.572,5.453,808.594,153.748,62.256,20.797,-0.56,-89.94
 14:55:49.637,eb:33:2e:f9:57:b5, 2085-97-115 15:21:233:14782,1.916,-3.437,7.087,1028.87,299.622,12.695,30.108,1.28,-88.726
 14:55:49.637,eb:33:2e:f9:57:b5, 2085-97-110 15:23:02:16025,1.49,-1.647,7.1,1159.241,372.681,2.625,41.303,4.197,-86.501
 14:55:49.637,eb:33:2e:f9:57:b5, 2085-97-122 12:200:252:21420,-0.583,0.363,9.858,1244.751,174.622,-158.081,53.438,6.526,-85.117
 14:55:49.637,eb:33:2e:f9:57:b5, 2085-97-77 252:246:08:7864,1.25,0.417,6.636,1047.913,101.318,-206.055,65.099,8.893,-84.891
 14:55:49.637,eb:33:2e:f9:57:b5, 2085-97-60 18:160:239:1688,1.742,-0.929,2.09,508.911,206.421,-212.158,72.883,11.36,-84.298
 14:55:49.637,eb:33:2e:f9:57:b5, 2085-97-57 12:95:243:6090,1.834,-2.051,3.196,139.099,501.77,-190.674,76.042,14.299,-81.453
 14:55:49.638,eb:33:2e:f9:57:b5, 2085-97-160 19:181:02:10656,2.391,0.144,2.462,-22.705,503.479,-191.223,78.069,17.265,-76.267
 14:55:49.844,eb:33:2e:f9:57:b5, 2085-97-225 21:99:03:12724,2.252,0.933,5.863,28.381,256.775,-171.997,78.975,19.731,-72.642
 14:55:49.844,eb:33:2e:f9:57:b5, 2085-97-180 14:49:243:9613,1.552,-0.589,5.312,127.93,77.332,-177.734,80.31,21.72,-71.417
 14:55:49.844,eb:33:2e:f9:57:b5, 2085-97-28 10:173:236:7996,0.95,-2.218,4.271,117.004,20.569,-155.029,81.579,23.423,-71.318
 14:55:49.844,eb:33:2e:f9:57:b5, 2085-97-166 04:237:231:7697,0.386,-2.578,3.744,13.55,-15.198,-104.37,82.15,24.697,-71.521
 14:55:49.844,eb:33:2e:f9:57:b5, 2085-97-35 04:25:230:7746,0.747,-3.205,3.497,-82.458,-9.644,-39.001,81.469,25.323,-71.829
 14:55:49.844,eb:33:2e:f9:57:b5, 2085-97-174 06:220:234:8236,0.855,-2.963,4.044,-104.187,-26.184,11.292,80.387,25.367,-72.032
 14:55:49.844,eb:33:2e:f9:57:b5, 2085-97-166 06:46:237:7412,0.788,-2.402,3.8,-87.585,-71.045,17.944,79.091,25.076,-72.581
 14:55:49.844,eb:33:2e:f9:57:b5, 2085-97-176 04:128:234:6494,0.401,-2.466,3.477,-88.989,-94.36,8.179,77.838,24.78,-73.526
 14:55:49.849,eb:33:2e:f9:57:b5, 2085-97-152 02:165:230:5497,0.325,-2.923,2.882,-110.229,-109.07,2.502,76.251,24.472,-74.663
 14:55:49.849,eb:33:2e:f9:57:b5, 2085-97-65 03:92:228:4468,0.532,-3.375,2.45,-161.072,-105.225,8.85,74.421,24.148,-75.828
 14:55:49.849,eb:33:2e:f9:57:b5, 2085-97-40 06:78:230:2986,1.034,-3.365,1.75,-256.836,-77.271,23.254,71.807,23.687,-76.783
 14:55:49.849,eb:33:2e:f9:57:b5, 2085-97-10 10:149:236:1381,1.448,-2.875,1.086,-387.085,-38.086,34.912,68.362,23.203,-77.256
 14:55:49.849,eb:33:2e:f9:57:b5, 2085-97-211 12:129:243:184,1.769,-1.954,0.271,-522.4,-34.607,16.235,63.495,22.791,-77.509
 14:55:49.849,eb:33:2e:f9:57:b5, 2085-97-139 14:152:247:1321,1.695,-1.267,0.303,-608.887,-109.924,-27.588,57.469,22.5,-78.25
 14:55:49.849,eb:33:2e:f9:57:b5, 2085-97-111 12:09:250:3123,1.392,-0.859,1.078,-631.653,-228.821,-76.294,50.35,21.874,-80.14
 14:55:49.849,eb:33:2e:f9:57:b5, 2085-97-201 09:49:249:5079,1.012,-0.74,2.006,-617.188,-332.52,-107.605,43.039,20.583,-83.106
 14:55:49.853,eb:33:2e:f9:57:b5, 2085-97-252 05:32:246:6495,0.458,-1.034,2.873,-614.441,-390.198,-113.953,35.601,18.386,-86.572
 14:55:49.853,eb:33:2e:f9:57:b5, 2085-97-35 01:00:244:7138,-0.052,-1.416,3.386,-644.714,-398.743,-89.6,28.4,15.557,-89.72
 14:55:49.853,eb:33:2e:f9:57:b5, 2085-97-57 255:235:246:7899,-0.075,-1.393,3.644,-692.932,-383.85,-38.391,20.978,12.184,-92.032
 14:55:49.853,eb:33:2e:f9:57:b5, 2085-97-57 00:94:253:8550,0.214,-0.783,4.037,-720.459,-364.929,16.724,13.645,8.646,-93.257
 14:55:49.935,eb:33:2e:f9:57:b5, 2085-97-238 02:28:07:8146,0.378,0.225,4.202,-705.627,-337.83,49.133,6.295,5.048,-93.521
 14:55:49.935,eb:33:2e:f9:57:b5, 2085-97-229 01:63:18:6615,-0.037,1.614,3.579,-657.898,-368.53,46.875,-0.5,1.571,-93.197
 14:55:49.935,eb:33:2e:f9:57:b5, 2085-97-211 252:126:25:7253,-0.856,2.808,3.167,-590.881,-480.53,28.381,-6.877,-2.769,-92.549
 14:55:49.935,eb:33:2e:f9:57:b5, 2085-97-48 245:159:31:9002,-1.7,3.528,4.065,-540.894,-532.471,36.255,-12.596,-7.828,-91.384
 14:55:49.937,eb:33:2e:f9:57:b5, 2085-97-125 240:195:42:9567,-2.085,4.55,4.615,-519.287,-476.318,69.031,-18.364,-12.678,-89.456
 14:55:49.937,eb:33:2e:f9:57:b5, 2085-97-45 238:221:60:9902,-2.456,6.353,4.652,-496.948,-382.935,96.619,-24.066,-16.304,-87.072
 14:55:49.937,eb:33:2e:f9:57:b5, 2085-113-81 00:184:86:-9652,-2.729,8.964,5.17,-410.95,-360.229,82.581,-29.564,-19.171,-84.43
 14:55:49.937,eb:33:2e:f9:57:b5, 2085-97-49 232:71:83:11343,-3.127,9.999,5.536,-329.956,-375,55.542,-31.833,-20.588,-83.128
 14:55:49.937,eb:33:2e:f9:57:b5, 2085-97-26 229:46:86:11978,-3.561,10.592,5.602,-158.02,-381.348,0.122,-35.195,-23.698,-80.574
 14:55:49.993,eb:33:2e:f9:57:b5, 2085-97-103 227:35:86:11404,-3.479,10.917,5.913,-35.828,-275.574,-65.186,-36.848,-26.587,-78.717
 14:55:49.993,eb:33:2e:f9:57:b5, 2085-97-197 228:69:77:8926,-3.332,10.337,4.956,45.898,-120.544,-139.404,-36.925,-28.762,-78.393
 14:55:49.993,eb:33:2e:f9:57:b5, 2085-97-113 230:68:60:6490,0.582,8.751,3.859,138.794,-21.362,-194.824,-35.392,-30.273,-79.59
 14:55:49.993,eb:33:2e:f9:57:b5, 2085-97-208 255:193:75:-954,3.326,5.986,8.115,740.601,91.858,-190.125,-31.223,-31.86,-81.595
 14:55:49.995,eb:33:2e:f9:57:b5, 2085-97-228 237:49:44:12649,-1.769,2.262,0.616,1016.174,892.151,-101.868,-18.847,-26.774,-86.545
 14:55:49.995,eb:33:2e:f9:57:b5, 2085-97-251 00:224:02:15085,-3.332,5.56,10.208,531.982,587.28,-347.961,-9.41,-18.699,-91.741
 14:55:49.995,eb:33:2e:f9:57:b5, 2085-97-123 227:107:253:-3813,-1.601,3.219,-4.5,194.031,473.816,36.865,-6.07,-11.195,-92.637
 14:55:49.995,eb:33:2e:f9:57:b5, 2085-97-132 237:230:07:-3905,-2.689,-1.21,-1.427,179.077,-41.992,58.655,-3.862,-10.453,-92.9
 14:55:50.084,eb:33:2e:f9:57:b5, 2085-97-192 12:50:06:4425,3.058,0.037,-3.56,23.376,-284.607,160.095,-3.235,-11.008,-91.851
 14:55:50.084,eb:33:2e:f9:57:b5, 2085-97-231 06:180:04:2828,-0.015,1.47,3.632,32.166,74.402,-17.822,-2.933,-12.7,-91.23
 14:55:50.084,eb:33:2e:f9:57:b5, 2085-97-33 250:136:251:1591,-1.434,0.332,0.659,39.612,105.896,-95.459,-2.417,-11.613,-91.961
 14:55:50.084,eb:33:2e:f9:57:b5, 2085-97-187 02:13:00:3906,0.955,-0.364,-0.109,27.588,-1.343,-22.034,-1.972,-10.827,-92.549
 14:55:50.113,eb:33:2e:f9:57:b5, 2085-97-94 04:78:04:1972,0.432,0.39,2.03,26.489,136.841,-25.33,-1.582,-10.393,-92.812
 14:55:50.113,eb:33:2e:f9:57:b5, 2085-97-254 250:122:254:2434,-1.538,0.215,0.972,11.78,132.629,-30.945,-1.302,-8.937,-93.241
 14:55:50.113,eb:33:2e:f9:57:b5, 2085-97-196 251:122:251:11171,-0.725,-0.947,3.107,110.168,31.128,-7.263,-0.791,-8.168,-93.483
 14:55:50.113,eb:33:2e:f9:57:b5, 2085-97-239 243:120:243:8080,-0.911,-1.53,5.924,241.394,187.378,73.792,1.137,-7.158,-93.312
 14:55:50.115,eb:33:2e:f9:57:b5, 2085-97-60 253:25:245:9931,-0.189,-1.24,3.989,362.549,85.449,121.582,4.059,-5.828,-92.175
 14:55:50.115,eb:33:2e:f9:57:b5, 2085-97-01 01:24:242:10682,0.51,-1.61,5.117,499.39,76.843,135.742,8.328,-5.169,-90.824
 14:55:50.115,eb:33:2e:f9:57:b5, 2085-97-121 08:161:236:13065,1.34,-2.015,5.826,667.236,79.712,115.784,14.101,-4.702,-89.445
 14:55:50.115,eb:33:2e:f9:57:b5, 2085-97-162 12:143:230:14658,1.732,-2.879,6.664,856.018,173.218,81.848,21.676,-3.79,-88.121
 14:55:50.174,eb:33:2e:f9:57:b5, 2085-97-185 10:187:243:13703,1.661,-2.879,7.116,1047.668,373.779,49.438,31.262,-1.555,-86.385
 14:55:50.174,eb:33:2e:f9:57:b5, 2085-97-87 10:65:04:18092,1.981,-0.665,7.97,1146.24,307.251,8.728,42.27,1.176,-84.051
 14:55:50.174,eb:33:2e:f9:57:b5, 2085-97-141 01:11:248:13131,-0.492,-0.769,9.977,1210.632,144.714,-125.244,54.388,3.054,-83.397
 14:55:50.174,eb:33:2e:f9:57:b5, 2085-97-61 04:122:08:3331,2.104,0.722,3.176,940.918,75.256,-135.315,65.292,4.735,-82.991
 14:55:50.204,eb:33:2e:f9:57:b5, 2085-97-68 17:202:245:3517,1.465,-0.002,1.027,423.096,115.601,-228.699,71.917,6.636,-83.084
 14:55:50.204,eb:33:2e:f9:57:b5, 2085-97-59 12:214:01:2997,1.89,-1.448,3.948,158.142,505.737,-225.586,74.636,9.838,-80.733
 14:55:50.204,eb:33:2e:f9:57:b5, 2085-97-165 17:92:11:10710,2.332,1.088,3.153,-16.663,439.27,-273.926,76.075,13.535,-76.426
 14:55:50.204,eb:33:2e:f9:57:b5, 2085-97-202 17:197:02:12603,1.897,1.66,5.909,77.576,199.28,-268.921,76.882,16.837,-73.949
 14:55:50.234,eb:33:2e:f9:57:b5, 2085-97-142 12:10:244:9256,1.243,-0.761,5.24,173.706,78.43,-249.268,78.481,19.644,-73.279
 14:55:50.234,eb:33:2e:f9:57:b5, 2085-97-14 07:131:242:7009,0.619,-1.683,3.882,151.855,31.555,-199.097,80.134,21.907,-73.213
 14:55:50.234,eb:33:2e:f9:57:b5, 2085-97-99 03:253:239:8015,0.277,-1.739,3.374,46.326,-23.682,-138.062,81.008,23.549,-73.51
 14:55:50.234,eb:33:2e:f9:57:b5, 2085-97-181 01:170:236:9441,0.248,-2.26,4.486,-49.255,-16.846,-70.129,80.601,24.489,-74.037
 14:55:50.294,eb:33:2e:f9:57:b5, 2085-97-170 04:208:235:8158,1.045,-2.605,4.372,-88.318,29.053,4.15,79.865,24.802,-74.009
 14:55:50.294,eb:33:2e:f9:57:b5, 2085-97-87 10:66:240:7242,1.167,-2.251,3.822,-86.243,38.452,47.424,79.058,24.543,-73.586
 14:55:50.294,eb:33:2e:f9:57:b5, 2085-97-34 08:114:239:5563,0.99,-1.958,3.065,-58.899,-39.062,39.734,78.398,24.104,-73.438
 14:55:50.294,eb:33:2e:f9:57:b5, 2085-97-134 07:17:234:5362,0.77,-2.338,2.67,-54.932,-150.574,12.695,77.311,23.621,-74.592
 14:55:50.325,eb:33:2e:f9:57:b5, 2085-97-136 05:136:229:4379,0.864,-3.114,2.355,-112.122,-169.678,4.456,75.789,23.181,-76.333
 14:55:50.325,eb:33:2e:f9:57:b5, 2085-97-73 08:248:229:3280,1.211,-3.217,1.955,-194.58,-151.489,7.385,73.438,22.676,-78.074
 14:55:50.325,eb:33:2e:f9:57:b5, 2085-97-130 10:232:233:1193,1.517,-3.057,1.228,-301.453,-97.29,27.039,70.433,22.132,-79.272
 14:55:50.325,eb:33:2e:f9:57:b5, 2085-97-26 14:83:239:-744,2.076,-2.43,0.123,-388.123,-103.821,28.748,66.467,21.467,-80.195
 14:55:50.353,eb:33:2e:f9:57:b5, 2085-97-155 17:248:243:-2485,2.095,-1.738,-0.859,-472.656,-165.222,4.822,61.694,20.72,-81.414
 14:55:50.353,eb:33:2e:f9:57:b5, 2085-97-124 16:184:243:363,1.915,-1.519,-0.871,-535.4,-311.157,-43.64,55.651,19.611,-83.776
 14:55:50.353,eb:33:2e:f9:57:b5, 2085-97-80 13:74:244:3587,1.383,-1.506,1.079,-562.988,-431.274,-81.726,48.961,17.798,-87.407
 14:55:50.353,eb:33:2e:f9:57:b5, 2085-97-31 09:63:243:5979,0.867,-1.5,2.323,-571.411,-509.277,-101.685,41.935,15.051,-91.697
 14:55:50.445,eb:33:2e:f9:57:b5, 2085-97-239 04:189:241:8169,0.314,-1.7,3.439,-575.5,-536.987,-97.229,35.222,11.563,-95.911
 14:55:50.445,eb:33:2e:f9:57:b5, 2085-97-00 00:92:242:9505,-0.146,-1.793,4.432,-591.431,-512.024,-67.627,28.669,7.438,-99.492
 14:55:50.445,eb:33:2e:f9:57:b5, 2085-97-136 254:08:246:9436,-0.138,-1.52,4.754,-620.3,-449.036,-24.536,22.357,3.301,-101.997
 14:55:50.445,eb:33:2e:f9:57:b5, 2085-97-186 255:95:250:8842,0.044,-0.979,4.407,-638,-414.001,13.123,15.859,-0.786,-103.425
 14:55:50.447,eb:33:2e:f9:57:b5, 2085-97-204 255:196:01:8004,-0.303,-0.307,4.17,-626.831,-427.368,34.729,9.547,-4.905,-104.106
 14:55:50.447,eb:33:2e:f9:57:b5, 2085-97-108 250:162:10:7691,-1.093,0.765,3.669,-604.797,-514.282,46.509,3.268,-9.723,-104.211
 14:55:50.447,eb:33:2e:f9:57:b5, 2085-97-134 243:210:21:10445,-1.996,1.95,4.343,-587.769,-593.14,79.102,-2.818,-15.397,-103.618
 14:55:50.447,eb:33:2e:f9:57:b5, 2085-113-58 00:81:235:-6210,-2.313,3.81,5.734,-547.18,-546.814,132.446,-9.223,-21.094,-101.81
 14:55:50.475,eb:33:2e:f9:57:b5, 2085-97-179 235:223:51:10855,-2.558,5.163,5.813,-502.686,-507.202,150.024,-12.327,-23.522,-100.519
 14:55:50.475,eb:33:2e:f9:57:b5, 2085-97-97 234:235:63:11025,-3.151,7.46,5.016,-389.709,-495.789,144.775,-18.056,-27.894,-97.46
 14:55:50.475,eb:33:2e:f9:57:b5, 2085-97-112 225:241:67:11840,-4.19,8.296,5.748,-320.068,-468.628,102.783,-23.329,-32.064,-94.098
 14:55:50.475,eb:33:2e:f9:57:b5, 2085-97-12 219:61:70:11716,-4.718,8.537,5.704,-272.949,-389.771,62.317,-27.938,-35.568,-91.055
 14:55:50.564,eb:33:2e:f9:57:b5, 2085-97-75 219:35:78:11230,-4.295,9.223,5.746,-215.332,-229.858,18.799,-31.849,-38.051,-88.687
 14:55:50.564,eb:33:2e:f9:57:b5, 2085-97-43 225:37:82:9384,-3.464,10.174,5.121,-107.849,-60.486,-43.396,-33.975,-39.254,-87.907
 14:55:50.564,eb:33:2e:f9:57:b5, 2085-97-210 229:177:70:6870,-3.289,9.791,3.944,53.589,27.588,-115.54,-33.629,-39.776,-88.786
 14:55:50.564,eb:33:2e:f9:57:b5, 2085-97-177 229:128:51:4884,-3.096,7.683,2.877,184.021,55.908,-127.686,-31.234,-40.078,-90.538
 14:55:50.566,eb:33:2e:f9:57:b5, 2085-97-51 233:122:30:3407,-0.575,5.115,2.047,288.086,35.095,-73.486,-27.834,-40.177,-92.038
 14:55:50.566,eb:33:2e:f9:57:b5, 2085-97-28 241:201:33:583,-1.811,2.351,10.229,819.092,593.384,111.45,-22.126,-40.292,-93.279
 14:55:50.566,eb:33:2e:f9:57:b5, 2085-97-198 255:106:49:10318,3.396,0.847,6.631,660.706,667.725,-166.26,-11.36,-35.019,-96.487
 14:55:50.566,eb:33:2e:f9:57:b5, 2085-97-110 231:23:20:-9648,-5.723,0.127,8.807,229.797,1210.388,177.979,-6.46,-25.345,-99.113
 14:55:50.594,eb:33:2e:f9:57:b5, 2085-97-130 221:189:246:-7495,-3.796,-0.89,-1.056,211.609,506.348,-109.68,-4.757,-17.249,-98.948
 14:55:50.594,eb:33:2e:f9:57:b5, 2085-97-126 219:246:253:-12391,1.247,-0.689,-2.317,79.956,105.713,111.816,-3.12,-15.59,-98.981
 14:55:50.594,eb:33:2e:f9:57:b5, 2085-97-31 29:78:10:10042,1.841,-0.278,1.816,49.316,-420.776,130.432,-3.087,-18.715,-97.421
 14:55:50.594,eb:33:2e:f9:57:b5, 2085-97-170 03:107:04:1570,-0.227,1.097,2.267,35.706,86.548,-7.69,-2.906,-19.33,-96.823
 14:55:50.776,eb:33:2e:f9:57:b5, 2085-97-242 247:142:255:221,0.497,-0.381,1.094,32.166,90.698,-29.114,-2.346,-18.468,-97.339
 14:55:50.776,eb:33:2e:f9:57:b5, 2085-97-110 04:00:00:4953,-0.42,0.082,2.268,45.776,68.359,-33.63,-1.89,-18.083,-97.635
 14:55:50.776,eb:33:2e:f9:57:b5, 2085-97-67 248:124:255:-933,1.126,-0.085,0.524,17.334,177.612,12.207,-1.445,-16.364,-97.844
 14:55:50.776,eb:33:2e:f9:57:b5, 2085-97-138 254:74:251:8917,-1.935,1.01,0.375,24.963,-39.429,-7.69,-1.362,-15.881,-97.685
 14:55:50.780,eb:33:2e:f9:57:b5, 2085-97-230 246:40:244:12359,-0.36,-1.572,6.325,174.988,51.392,43.396,-0.461,-15.474,-97.592
 14:55:50.780,eb:33:2e:f9:57:b5, 2085-97-189 255:62:245:10711,0.175,-1.288,5.182,364.868,89.966,84.473,2.225,-14.634,-96.872
 14:55:50.780,eb:33:2e:f9:57:b5, 2085-97-157 00:00:241:10754,0.499,-1.601,5.344,497.742,103.027,105.164,6.35,-13.683,-95.839
 14:55:50.780,eb:33:2e:f9:57:b5, 2085-97-91 08:67:235:11733,1.602,-2.21,5.609,658.936,88.379,96.313,11.948,-12.986,-94.686
 14:55:50.894,eb:33:2e:f9:57:b5, 2085-97-233 13:53:231:11816,2.003,-3.064,5.643,822.327,165.283,69.763,19.193,-11.92,-93.543
 14:55:50.894,eb:33:2e:f9:57:b5, 2085-97-182 10:118:238:12276,1.01,-3.093,6.386,1005.127,325.806,20.508,28.185,-9.888,-92.192
 14:55:50.894,eb:33:2e:f9:57:b5, 2085-97-145 05:204:254:16678,1.021,-1.298,6.519,1110.168,357.91,-2.441,38.562,-6.828,-90.11
 14:55:50.894,eb:33:2e:f9:57:b5, 2085-97-82 05:219:245:16662,-1.042,0.01,9.711,1214.539,125.061,-134.46,50.235,-4.724,-89.017
 14:55:50.896,eb:33:2e:f9:57:b5, 2085-97-242 249:51:13:3598,0.643,0.348,3.889,1009.033,82.825,-115.356,61.43,-3.016,-88.671
 14:55:50.896,eb:33:2e:f9:57:b5, 2085-97-11 12:173:244:996,1.03,0.177,0.921,531.372,28.931,-176.453,69.06,-1.604,-89.083
 14:55:50.896,eb:33:2e:f9:57:b5, 2085-97-65 06:57:246:5417,0.801,-1.745,3.027,137.817,366.333,-177.673,71.774,0.802,-87.891
 14:55:50.896,eb:33:2e:f9:57:b5, 2085-97-156 10:122:06:8802,1.415,0.424,1.566,-38.452,494.995,-196.716,72.422,3.928,-83.76
 14:55:50.898,eb:33:2e:f9:57:b5, 2085-97-179 15:148:08:15221,2.122,1.342,6.129,-11.597,349.915,-196.533,72.224,7.136,-80.255
 14:55:50.898,eb:33:2e:f9:57:b5, 2085-97-103 16:34:245:11031,2.074,-0.173,6.851,130.432,239.868,-199.341,73.24,9.871,-78.195
 14:55:50.898,eb:33:2e:f9:57:b5, 2085-97-04 15:105:239:5784,1.557,-1.984,4.163,168.701,179.199,-182.8,75.092,12.305,-76.756
 14:55:50.898,eb:33:2e:f9:57:b5, 2085-97-138 09:61:239:3474,0.881,-2.02,1.882,92.468,60.73,-161.682,76.613,14.271,-75.992
 14:55:50.900,eb:33:2e:f9:57:b5, 2085-97-00 04:30:234:6153,0.282,-2.376,2.298,-33.203,-50.354,-134.705,76.657,15.721,-76.481
 14:55:50.900,eb:33:2e:f9:57:b5, 2085-97-18 03:124:233:7698,0.663,-2.837,3.378,-107.3,-44.128,-84.595,75.624,16.65,-77.305
 14:55:50.900,eb:33:2e:f9:57:b5, 2085-97-85 06:105:237:7681,0.781,-2.593,3.973,-103.882,-14.648,-39.856,74.306,17.144,-77.789
 14:55:50.900,eb:33:2e:f9:57:b5, 2085-97-71 04:182:238:5848,0.395,-2.156,3.39,-82.214,-20.813,-37.659,73.323,17.463,-78.063
 14:55:50.925,eb:33:2e:f9:57:b5, 2085-97-158 02:168:235:5676,0.317,-2.278,2.718,-86.731,-79.224,-46.021,72.202,17.715,-78.799
 14:55:50.925,eb:33:2e:f9:57:b5, 2085-97-109 17:235:243:-2273,2.306,-2.872,2.778,-127.93,-79.712,-46.509,70.823,17.902,-79.81
 14:55:50.925,eb:33:2e:f9:57:b5, 2085-97-248 18:86:243:-1121,2.345,-1.439,-1.161,-525.024,-162.537,-73.914,52.866,18.474,-82.183
 14:55:50.925,eb:33:2e:f9:57:b5, 2085-97-186 17:115:241:1586,1.985,-1.731,0.172,-550.415,-331.055,-118.958,46.615,17.556,-84.946
 14:55:51.014,eb:33:2e:f9:57:b5, 2085-97-245 13:116:239:4236,1.47,-1.924,1.339,-576.904,-452.576,-147.583,39.727,15.529,-88.918
 14:55:51.014,eb:33:2e:f9:57:b5, 2085-97-95 09:173:238:7182,0.9,-2.165,2.837,-601.562,-493.835,-155.396,32.778,12.546,-93.153
 14:55:51.014,eb:33:2e:f9:57:b5, 2085-113-81 00:179:80:6729,0.684,-2.082,4.016,-598.755,-479.37,-151.978,25.9,9.003,-97.009
 14:55:51.014,eb:33:2e:f9:57:b5, 2085-97-55 04:70:241:8851,0.377,-1.961,4.317,-587.097,-462.769,-148.926,22.703,7.174,-98.701
 14:55:51.014,eb:33:2e:f9:57:b5, 2085-97-05 01:213:242:7820,-0.004,-1.744,4.184,-558.228,-436.279,-139.709,16.578,3.395,-101.607
 14:55:51.046,eb:33:2e:f9:57:b5, 2085-97-232 254:144:242:7390,-0.335,-1.594,3.607,-522.156,-465.332,-126.221,11.14,-0.621,-103.975
 14:55:51.046,eb:33:2e:f9:57:b5, 2085-97-140 251:88:239:7192,-0.811,-1.859,3.597,-505.188,-507.996,-102.844,5.977,-5.35,-105.848
 14:55:51.046,eb:33:2e:f9:57:b5, 2085-97-66 247:76:235:6514,-1.521,-2.349,3.354,-519.409,-574.707,-64.453,1.027,-10.695,-107.04
 14:55:51.046,eb:33:2e:f9:57:b5, 2085-97-30 241:199:234:8429,-2.172,-2.776,3.275,-554.321,-700.989,22.949,-4.515,-17.122,-107.067
 14:55:51.048,eb:33:2e:f9:57:b5, 2085-97-93 234:225:246:18228,-3.354,-2.155,6.167,-584.167,-781.006,158.63,-10.975,-24.5,-104.985
 14:55:51.048,eb:33:2e:f9:57:b5, 2085-97-177 226:217:21:22564,-3.466,0.479,10.697,-639.587,-574.158,304.993,-19.473,-30.575,-100.289
 14:55:51.048,eb:33:2e:f9:57:b5, 2085-97-145 232:130:64:20937,-2.591,5.407,10.704,-624.146,-231.079,359.619,-28.801,-32.574,-94.801
 14:55:51.048,eb:33:2e:f9:57:b5, 2085-97-16 236:160:91:16703,-2.253,10.113,9.313,-488.22,-67.139,246.582,-36.59,-31.965,-90.873
 14:55:51.107,eb:33:2e:f9:57:b5, 2085-97-239 240:45:101:13196,-1.842,12.297,6.89,-306.946,4.7,60.242,-41.259,-31.229,-89.363
 14:55:51.107,eb:33:2e:f9:57:b5, 2085-97-93 238:178:89:6398,-3.104,12.404,4.731,-175.781,80.139,-123.535,-43.204,-31.08,-90.181
 14:55:51.107,eb:33:2e:f9:57:b5, 2085-97-160 223:225:59:5487,-4.343,9.438,2.358,-46.936,12.939,-203.064,-43.27,-31.937,-92.142
 14:55:51.107,eb:33:2e:f9:57:b5, 2085-97-127 223:104:55:24152,-7.388,5.966,3.383,145.508,-0.183,-105.957,-42.1,-33.008,-93.658
 14:55:51.133,eb:33:2e:f9:57:b5, 2085-97-176 244:217:65:4200,-5.312,8.38,2.874,750.793,452.148,-46.204,-35.689,-30.504,-96.026
 14:55:51.133,eb:33:2e:f9:57:b5, 2085-97-139 195:204:74:17498,-4.153,11.96,4.768,1426.147,931.213,222.534,-23.005,-23.802,-98.35
 14:55:51.133,eb:33:2e:f9:57:b5, 2085-97-168 250:161:14:17194,-0.775,8.795,8.739,1050.171,5.554,-137.634,-10.212,-18.441,-99.915
 14:55:51.133,eb:33:2e:f9:57:b5, 2085-97-233 255:215:58:-1550,-0.481,7.733,-3.341,364.807,-504.883,-84.229,-4.153,-20.649,-98.569
 14:55:51.194,eb:33:2e:f9:57:b5, 2085-97-23 244:231:243:-347,-3.01,-0.209,1.517,37.048,218.384,48.34,-2.565,-19.336,-99.734
 14:55:51.194,eb:33:2e:f9:57:b5, 2085-97-36 252:149:04:821,0.473,-0.297,-3.021,67.81,-229.126,151.306,-1.967,-19.341,-98.8
 14:55:51.194,eb:33:2e:f9:57:b5, 2085-97-64 11:118:06:4165,1.251,0.886,0.849,38.147,-168.457,55.359,-1.752,-21.489,-97.817
 14:55:51.194,eb:33:2e:f9:57:b5, 2085-97-18 04:204:255:3707,-0.858,0.755,1.826,33.691,5.737,-8.85,-1.357,-21.973,-97.712
 14:55:51.225,eb:33:2e:f9:57:b5, 2085-97-89 254:207:254:1568,0.528,-0.39,0.169,20.264,5.005,16.968,-1.06,-21.588,-97.767
 14:55:51.225,eb:33:2e:f9:57:b5, 2085-97-157 01:206:03:1682,0.174,0.212,1.587,22.156,23.071,9.644,-0.84,-21.561,-97.625
 14:55:51.225,eb:33:2e:f9:57:b5, 2085-97-175 00:162:00:2497,-0.151,0.282,1.09,18.982,45.166,-18.677,-0.604,-21.215,-97.74
 14:55:51.225,eb:33:2e:f9:57:b5, 2085-97-191 255:86:00:3044,0.195,-0.111,1.167,18.738,60.608,-15.503,-0.275,-20.539,-98.004
 14:55:51.253,eb:33:2e:f9:57:b5, 2085-97-21 02:114:00:4866,0.207,0.116,1.846,5.615,110.657,-8.057,-0.082,-19.737,-98.163
 14:55:51.253,eb:33:2e:f9:57:b5, 2085-97-46 255:31:00:6653,-1.106,0.144,2.591,-0.244,172.302,14.709,-0.033,-18.16,-98.168
 14:55:51.253,eb:33:2e:f9:57:b5, 2085-97-49 252:180:246:12176,0.311,-1.036,4.867,157.654,73.914,-3.357,0.692,-16.908,-98.185
 14:55:51.253,eb:33:2e:f9:57:b5, 2085-97-101 05:171:248:9858,0.607,-0.942,5.277,290.222,135.437,29.602,3.054,-15.727,-98.031
 14:55:51.286,eb:33:2e:f9:57:b5, 2085-97-28 08:241:243:11430,1.902,-1.222,5.122,412.292,154.114,27.1,6.526,-14.354,-97.619
 14:55:51.286,eb:33:2e:f9:57:b5, 2085-97-106 22:199:243:9533,3.385,-1.526,5.426,516.357,281.006,26.367,11.118,-12.162,-97.004
 14:55:51.286,eb:33:2e:f9:57:b5, 2085-97-169 27:04:244:8243,2.75,-1.421,3.984,624.146,400.452,-37.903,16.721,-8.756,-96.196
 14:55:51.286,eb:33:2e:f9:57:b5, 2085-97-73 18:152:241:10998,1.998,-1.641,4.279,712.524,547.424,-105.957,23.428,-3.917,-95.301
 14:55:51.344,eb:33:2e:f9:57:b5, 2085-97-80 14:15:251:14710,1.992,-1.438,6.33,798.462,621.399,-117.676,30.959,2,-93.582
 14:55:51.344,eb:33:2e:f9:57:b5, 2085-97-44 17:109:251:10700,1.486,-0.349,6.688,913.818,463.867,-110.046,39.787,7.229,-91.379
 14:55:51.344,eb:33:2e:f9:57:b5, 2085-97-249 07:129:07:-435,1.293,-0.027,1.684,914.307,240.845,-118.958,49.449,10.695,-89.637
 14:55:51.344,eb:33:2e:f9:57:b5, 2085-97-160 09:48:252:2053,-0.082,1.333,0.446,651.001,-23.926,-224.06,57.206,12.475,-90.132
 14:55:51.374,eb:33:2e:f9:57:b5, 2085-97-22 247:19:227:5830,-0.885,-2.928,0.834,262.939,112.854,-219.604,61.364,14.782,-91.176
 14:55:51.374,eb:33:2e:f9:57:b5, 2085-97-02 02:195:246:4168,1.267,-2.34,1.222,58.838,356.445,-59.692,63.402,17.199,-89.132
 14:55:51.374,eb:33:2e:f9:57:b5, 2085-97-223 12:248:251:8620,1.907,-0.683,4.025,-106.14,363.098,24.231,63.809,18.809,-85.913
 14:55:51.374,eb:33:2e:f9:57:b5, 2085-97-55 16:227:251:6630,2.031,-0.452,3.835,-80.811,265.137,49.805,63.918,19.863,-82.727
 14:55:51.404,eb:33:2e:f9:57:b5, 2085-97-250 14:93:250:4754,1.716,-0.756,2.615,-65.491,124.512,57.617,63.935,20.204,-80.7
 14:55:51.404,eb:33:2e:f9:57:b5, 2085-97-119 11:189:246:4807,1.438,-0.962,2.271,-97.656,15.686,38.33,63.419,20.105,-79.92
 14:55:51.404,eb:33:2e:f9:57:b5, 2085-97-109 10:115:239:7508,1.078,-1.554,3.085,-146.484,-39.307,30.884,62.144,19.715,-80.03
 14:55:51.404,eb:33:2e:f9:57:b5, 2085-97-101 09:166:239:6816,1.519,-2.24,3.539,-158.63,-8.301,34.607,60.546,19.336,-80.052
 14:55:51.465,eb:33:2e:f9:57:b5, 2085-97-19 14:101:246:7062,1.782,-1.617,3.412,-158.508,-27.161,6.165,58.958,19.034,-80.151
 14:55:51.465,eb:33:2e:f9:57:b5, 2085-97-112 13:141:248:6645,1.625,-0.941,3.289,-182.617,-7.751,-55.115,57.118,19.188,-80.464
 14:55:51.465,eb:33:2e:f9:57:b5, 2085-97-94 12:224:245:7234,1.435,-1.102,3.451,-203.613,8.667,-111.511,54.987,19.907,-81.03
 14:55:51.465,eb:33:2e:f9:57:b5, 2085-97-25 11:189:243:6925,1.363,-1.383,3.466,-207.153,37.842,-146.057,52.652,21.127,-81.667
 14:55:51.524,eb:33:2e:f9:57:b5, 2085-97-23 10:214:239:6197,1.274,-1.773,3.331,-211.487,60.059,-161.621,50.334,22.659,-82.332
 14:55:51.524,eb:33:2e:f9:57:b5, 2085-97-186 09:44:238:4417,1.118,-2.188,2.729,-248.657,82.642,-157.349,47.763,24.34,-82.936
 14:55:51.524,eb:33:2e:f9:57:b5, 2085-97-113 08:07:239:1734,1.166,-2.181,1.464,-344.91,87.646,-129.7,44.626,25.994,-83.348
 14:55:51.524,eb:33:2e:f9:57:b5, 2085-97-198 10:57:241:1236,1.511,-1.986,0.619,-465.637,58.655,-87.83,40.27,27.252,-83.716
 14:55:51.526,eb:33:2e:f9:57:b5, 2085-97-102 12:75:244:1184,1.627,-1.672,0.683,-535.4,-13.855,-46.631,34.98,27.839,-84.144
 14:55:51.526,eb:33:2e:f9:57:b5, 2085-97-142 13:47:247:1271,1.675,-1.254,0.55,-539.49,-156.067,-5.798,29.125,27.191,-84.941
 14:55:51.526,eb:33:2e:f9:57:b5, 2085-97-81 12:110:248:2542,1.539,-0.984,0.831,-524.658,-299.316,36.987,23.379,24.988,-85.946
 14:55:51.526,eb:33:2e:f9:57:b5, 2085-97-204 07:122:246:2762,2.2,-0.825,1.975,-534.729,-384.033,82.642,17.732,21.357,-86.699
 14:55:51.586,eb:33:2e:f9:57:b5, 2085-97-61 10:228:252:6664,1.167,-1.089,4.345,-558.105,-366.028,145.508,12.288,17.122,-86.644
 14:55:51.586,eb:33:2e:f9:57:b5, 2085-97-169 09:46:01:7865,1.425,-0.151,3.664,-563.721,-361.084,167.053,6.823,13.107,-85.754
 14:55:51.586,eb:33:2e:f9:57:b5, 2085-97-56 13:223:04:7570,1.877,0.349,4.017,-548.462,-345.703,185.486,1.549,9.454,-84.21
 14:55:51.586,eb:33:2e:f9:57:b5, 2085-97-213 16:170:12:6084,2.082,1.032,3.229,-510.742,-366.577,156.86,-3.582,5.944,-82.386
 14:55:51.704,eb:33:2e:f9:57:b5, 2085-97-114 14:27:21:5349,1.483,2.183,2.743,-479.614,-438.293,79.102,-8.394,2.082,-80.815
 14:55:51.704,eb:33:2e:f9:57:b5, 2085-97-179 08:228:21:7200,0.498,2.811,2.938,-453.369,-565.125,-20.508,-13.129,-2.911,-79.618
 14:55:51.704,eb:33:2e:f9:57:b5, 2085-97-252 253:30:20:8847,-1.087,2.574,3.966,-437.012,-640.076,-69.885,-17.677,-8.943,-78.525
 14:55:51.704,eb:33:2e:f9:57:b5, 2085-97-142 241:05:23:11310,-2.523,2.579,4.896,-411.133,-674.194,-58.96,-22.352,-15.447,-76.816
 14:55:51.706,eb:33:2e:f9:57:b5, 2085-97-32 230:111:31:11251,-3.814,3.337,5.792,-388,-611.572,-20.691,-27.114,-21.489,-74.355
 14:55:51.706,eb:33:2e:f9:57:b5, 2085-97-196 222:04:44:9007,-4.375,4.69,4.912,-367.554,-497.437,21.545,-32.168,-26.263,-71.345
 14:55:51.706,eb:33:2e:f9:57:b5, 2085-97-125 217:115:54:8989,-5.526,6.193,4.262,-297.18,-413.147,51.636,-37.035,-29.707,-68.115
 14:55:51.706,eb:33:2e:f9:57:b5, 2085-97-102 206:238:58:10326,-6.65,7.289,4.684,-157.349,-373.23,68.359,-41.083,-32.338,-64.688
 14:55:51.885,eb:33:2e:f9:57:b5, 2085-97-61 202:45:52:10853,-6.26,7.043,5.238,-16.663,-260.986,97.595,-43.649,-34.178,-61.364
 14:55:51.885,eb:33:2e:f9:57:b5, 2085-97-78 214:227:46:8228,-3.959,6.045,4.917,-1.526,21.79,144.043,-44.753,-34.113,-59.354
 14:55:51.885,eb:33:2e:f9:57:b5, 2085-97-46 233:242:49:3315,-2.164,6.048,2.796,-24.841,237.732,127.625,-44.879,-31.965,-59.491
 14:55:51.885,eb:33:2e:f9:57:b5, 2085-97-42 240:09:42:610,-1.847,6.03,0.71,23.376,209.473,21.118,-44.154,-29.713,-60.903
 14:55:51.915,eb:33:2e:f9:57:b5, 2085-97-34 232:129:77:-676,3.054,4.421,2.727,438.721,-49.805,-132.202,-42.369,-29.13,-62.172
 14:55:51.915,eb:33:2e:f9:57:b5, 2085-97-164 03:78:61:13823,-0.394,3.022,7.69,1114.807,1157.959,-415.71,-28.735,-26.45,-70.856
 14:55:51.915,eb:33:2e:f9:57:b5, 2085-97-35 21:150:245:12617,2.058,5.064,5.945,912.231,-52.551,-667.419,-15.161,-23.39,-79.882
 14:55:51.915,eb:33:2e:f9:57:b5, 2085-97-139 240:200:14:7332,-3.55,7.279,-3.752,97.778,-244.385,38.757,-10.031,-24.379,-81.601
 14:55:51.946,eb:33:2e:f9:57:b5, 2085-97-20 251:246:250:785,1.032,-2.511,-2.964,20.63,40.466,100.403,-9.294,-22.648,-82.375
 14:55:51.946,eb:33:2e:f9:57:b5, 2085-97-209 252:20:02:799,0.056,1.232,1.249,32.166,-1.892,67.627,-8.987,-23.665,-81.293
 14:55:51.946,eb:33:2e:f9:57:b5, 2085-97-44 255:150:00:1623,0.271,0.344,0.903,32.349,3.174,-6.958,-8.751,-23.884,-80.942
 14:55:51.946,eb:33:2e:f9:57:b5, 2085-97-62 252:89:254:1619,-0.387,0.338,1.221,26.55,23.376,-20.203,-8.273,-23.791,-81.2
 14:55:51.946,eb:33:2e:f9:57:b5, 2085-97-24 07:125:02:3433,0.735,-0.249,0.842,32.41,-33.386,7.019,-7.938,-23.785,-81.332
 14:55:51.946,eb:33:2e:f9:57:b5, 2085-97-65 06:102:02:3353,0.563,0.256,1.57,30.273,62.317,-7.385,-7.526,-23.461,-81.458
 14:55:51.947,eb:33:2e:f9:57:b5, 2085-97-123 02:115:00:2950,0.165,0.248,1.665,30.762,143.188,-32.532,-7.053,-22.407,-81.87
 14:55:51.947,eb:33:2e:f9:57:b5, 2085-97-91 00:99:00:3224,0.052,0.122,1.458,25.757,174.377,-40.039,-6.427,-20.775,-82.562
 14:55:51.947,eb:33:2e:f9:57:b5, 2085-97-179 02:223:02:5223,-0.558,0.057,1.737,20.447,178.833,-22.827,-6.048,-18.973,-83.095
 14:55:51.947,eb:33:2e:f9:57:b5, 2085-97-215 249:248:247:10458,0.3,-0.611,4.173,96.802,194.763,-37.537,-5.273,-17.073,-83.732
 14:55:51.947,eb:33:2e:f9:57:b5, 2085-97-87 06:157:251:9068,0.254,-0.758,5.04,230.835,243.591,-13.428,-3.395,-14.969,-84.194
 14:55:51.947,eb:33:2e:f9:57:b5, 2085-97-56 01:58:245:10968,0.484,-0.822,4.203,314.148,268.616,9.827,-0.505,-12.189,-84.342
 14:55:51.951,eb:33:2e:f9:57:b5, 2085-97-34 10:116:242:11163,0.785,-1.774,5.708,422.974,326.66,55.908,3.115,-9.218,-83.958
 14:55:51.951,eb:33:2e:f9:57:b5, 2085-97-112 00:224:05:6874,-0.283,-0.542,4.425,872.925,179.199,-67.383,39.496,11.157,-78.788
 14:55:51.951,eb:33:2e:f9:57:b5, 2085-97-128 254:151:245:5754,-1.234,0.388,2.783,566.528,174.438,-141.296,46.807,13.079,-78.536
 14:55:51.952,eb:33:2e:f9:57:b5, 2085-97-80 247:208:229:10428,-0.491,-3.988,4.083,182.007,515.93,-1.465,50.691,16.128,-76.575
 14:55:51.974,eb:33:2e:f9:57:b5, 2085-113-58 00:39:232:-9225,1.117,-1.267,0.621,106.628,629.761,132.446,54.075,19.473,-70.444
 14:55:51.974,eb:33:2e:f9:57:b5, 2085-97-90 20:162:02:7939,2.708,-0.121,1.827,47.363,514.709,163.574,55.371,20.435,-67.593
 14:55:51.974,eb:33:2e:f9:57:b5, 2085-97-56 22:220:05:4951,2.74,0.696,3.167,100.464,355.835,154.175,57.881,21.55,-62.628
 14:55:51.974,eb:33:2e:f9:57:b5, 2085-97-78 21:55:254:4214,2.659,0.299,2.104,147.583,152.222,78.796,60.249,21.808,-59.843
 14:55:52.005,eb:33:2e:f9:57:b5, 2085-97-83 20:56:249:3319,2.185,-0.598,1.972,119.995,41.016,-13.184,62.029,21.978,-58.903
 14:55:52.005,eb:33:2e:f9:57:b5, 2085-97-232 13:23:242:2439,1.446,-1.248,1.321,32.593,-39.917,-101.562,62.639,22.544,-59.277
 14:55:52.005,eb:33:2e:f9:57:b5, 2085-97-19 10:170:239:3231,1.316,-2.023,1.291,-47.058,-130.615,-147.827,61.93,23.28,-60.826
 14:55:52.005,eb:33:2e:f9:57:b5, 2085-97-233 09:109:240:5012,1.109,-2.013,2.085,-101.013,-166.626,-181.152,60.194,23.983,-63.265
 14:55:52.064,eb:33:2e:f9:57:b5, 2085-97-192 07:43:241:5824,0.861,-1.897,2.705,-149.902,-144.531,-204.773,57.859,24.84,-65.863
 14:55:52.064,eb:33:2e:f9:57:b5, 2085-97-195 06:184:241:6211,0.898,-1.814,2.921,-203.247,-84.534,-213.318,55.069,25.977,-68.236
 14:55:52.064,eb:33:2e:f9:57:b5, 2085-97-15 08:136:242:6424,1.042,-1.733,3.084,-243.652,6.165,-210.754,52.009,27.477,-69.977
 14:55:52.064,eb:33:2e:f9:57:b5, 2085-97-155 08:227:240:6241,1.247,-1.739,3.084,-254.456,72.205,-204.224,48.977,29.383,-71.082
 14:55:52.094,eb:33:2e:f9:57:b5, 2085-97-00 11:139:238:5798,1.39,-2.076,3.057,-253.296,104.675,-192.749,46.038,31.437,-71.895
 14:55:52.094,eb:33:2e:f9:57:b5, 2085-97-245 10:73:239:3468,1.396,-2.196,2.34,-299.622,153.564,-167.908,43.066,33.657,-72.345
 14:55:52.094,eb:33:2e:f9:57:b5, 2085-97-101 12:68:241:1900,1.815,-1.977,1.158,-385.62,147.156,-133.85,39.518,35.793,-72.488
 14:55:52.094,eb:33:2e:f9:57:b5, 2085-97-173 16:99:243:1327,2.275,-1.712,0.852,-492.615,126.709,-98.572,35.013,37.568,-72.625
 14:55:52.457,eb:33:2e:f9:57:b5, 2085-97-113 19:177:245:-073,2.564,-1.432,0.3,-584.839,59.57,-67.81,29.377,38.809,-72.85
 14:55:52.457,eb:33:2e:f9:57:b5, 2085-97-107 21:108:247:020,2.725,-1.179,-0.173,-619.507,-105.286,-48.096,22.791,38.837,-73.652
 14:55:52.457,eb:33:2e:f9:57:b5, 2085-97-161 21:59:249:2644,2.586,-0.961,0.528,-595.52,-302.673,-33.081,15.809,36.909,-75.037
 14:55:52.457,eb:33:2e:f9:57:b5, 2085-97-77 19:122:250:5579,2.265,-0.765,2.051,-562.134,-442.932,-20.142,9.289,33.19,-76.388
 14:55:52.484,eb:33:2e:f9:57:b5, 2085-97-49 17:43:252:7902,1.907,-0.607,3.348,-552.429,-498.657,-13.611,3.279,28.389,-77.201
 14:55:52.484,eb:33:2e:f9:57:b5, 2085-97-189 13:61:254:9057,1.493,-0.37,4.047,-558.35,-494.08,-13.428,-2.357,23.423,-77.426
 14:55:52.484,eb:33:2e:f9:57:b5, 2085-97-146 09:51:01:9047,0.975,-0.033,4.557,-556.458,-456.848,-16.357,-7.888,18.622,-77.162
 14:55:52.484,eb:33:2e:f9:57:b5, 2085-97-73 06:211:03:8671,0.688,0.261,4.339,-541.382,-440.247,-12.39,-13.189,14.194,-76.498
 14:55:52.486,eb:33:2e:f9:57:b5, 2085-97-183 04:20:07:8932,0.391,0.666,4.31,-510.742,-434.753,-0.488,-18.259,9.915,-75.355
 14:55:52.486,eb:33:2e:f9:57:b5, 2085-97-227 00:187:09:8151,-0.198,1.062,4.217,-462.646,-464.417,16.296,-22.896,5.784,-73.724
 14:55:52.486,eb:33:2e:f9:57:b5, 2085-97-36 252:213:10:8495,-0.771,1.301,3.884,-397.949,-578.918,49.377,-27.065,1.154,-71.213
 14:55:52.486,eb:33:2e:f9:57:b5, 2085-97-122 246:170:11:11394,-1.794,1.41,4.734,-350.342,-722.839,118.652,-30.855,-4.213,-67.28
 14:55:52.488,eb:33:2e:f9:57:b5, 2085-97-113 236:185:21:14506,-3.168,1.807,6.353,-365.601,-730.164,227.234,-35.118,-9.536,-61.716
 14:55:52.488,eb:33:2e:f9:57:b5, 2085-97-121 226:146:50:16768,-4.155,4.52,7.918,-352.112,-613.892,332.886,-40.106,-13.123,-55.223
 14:55:52.488,eb:33:2e:f9:57:b5, 2085-97-173 220:05:71:15326,-4.527,7.966,7.913,-216.858,-484.131,341.064,-44.522,-14.832,-48.818
 14:55:52.488,eb:33:2e:f9:57:b5, 2085-97-79 220:150:77:11539,-4.233,9.337,6.718,-102.905,-245.3,289.185,-47.296,-15.112,-43.841
 14:55:52.488,eb:33:2e:f9:57:b5, 2085-97-164 224:27:80:7319,-3.512,9.971,4.625,-70.251,27.588,187.439,-48.653,-13.964,-41.528
 14:55:52.488,eb:33:2e:f9:57:b5, 2085-97-56 230:185:74:3337,-3.135,9.751,2.518,-65.918,180.786,41.382,-49.285,-12.316,-41.797
 14:55:52.488,eb:33:2e:f9:57:b5, 2085-97-75 231:220:63:2964,-3.012,8.779,1.208,-30.457,169.128,-102.722,-49.373,-11.431,-43.517
 14:55:52.489,eb:33:2e:f9:57:b5, 2085-97-61 233:95:51:3956,-2.595,7.188,1.786,42.114,196.228,-207.214,-48.801,-11.536,-45.983
 14:55:52.543,eb:33:2e:f9:57:b5, 2085-97-215 237:185:33:3871,-2.106,5.449,1.933,124.512,270.935,-273.682,-47.131,-11.761,-49.532
 14:55:52.543,eb:33:2e:f9:57:b5, 2085-97-97 08:196:248:10134,1.128,2.882,1.672,186.768,310.242,-291.931,-44.637,-11.755,-53.784
 14:55:52.543,eb:33:2e:f9:57:b5, 2085-97-89 11:206:244:10159,1.781,-1.187,5.208,385.254,348.389,-1.77,-1.582,-2.274,-66.187
 14:55:52.543,eb:33:2e:f9:57:b5, 2085-97-124 14:130:247:8146,1.258,-1.224,4.296,457.458,446.655,-2.136,2.675,1.758,-66.16
 14:55:52.545,eb:33:2e:f9:57:b5, 2085-97-66 07:24:251:9265,0.912,-0.98,4.105,497.009,509.094,-13.733,7.657,6.658,-65.841
 14:55:52.545,eb:33:2e:f9:57:b5, 2085-97-159 11:89:249:11198,2.195,-0.579,5.182,500.549,519.409,-19.226,12.766,11.75,-65.121
 14:55:52.545,eb:33:2e:f9:57:b5, 2085-97-75 15:28:253:7550,1.281,-0.613,4.93,507.263,543.823,-27.283,18.292,17.012,-63.842
 14:55:52.545,eb:33:2e:f9:57:b5, 2085-97-149 12:228:245:3762,2.56,-0.394,2.675,386.597,492.737,-56.458,23.318,21.995,-62.397
 14:55:52.606,eb:33:2e:f9:57:b5, 2085-97-220 27:180:236:241,2.683,-2.649,0.997,172.485,436.89,-41.809,26.818,26.373,-60.628
 14:55:52.606,eb:33:2e:f9:57:b5, 2085-97-218 16:208:03:192,2.728,-0.543,0.478,102.173,270.935,-135.742,28.504,30.015,-59.584
 14:55:52.606,eb:33:2e:f9:57:b5, 2085-97-231 22:121:246:7756,2.242,-0.274,3.033,36.804,-5.127,-238.098,28.389,31.586,-61.084
 14:55:52.606,eb:33:2e:f9:57:b5, 2085-97-126 14:24:238:6615,1.436,-2.068,3.338,-5.188,43.396,-308.96,27.032,33.025,-64.056
 14:55:52.608,eb:33:2e:f9:57:b5, 2085-97-190 08:70:238:7067,0.781,-2.166,3.186,-72.266,100.83,-297.241,25.115,35.134,-66.863
 14:55:52.608,eb:33:2e:f9:57:b5, 2085-97-81 04:16:233:7764,0.457,-2.493,3.754,-144.958,89.722,-250.366,22.44,37.106,-69.543
 14:55:52.608,eb:33:2e:f9:57:b5, 2085-113-81 00:118:92:10498,0.538,-3.136,3.787,-237.305,131.897,-147.583,19.44,38.815,-71.362
 14:55:52.608,eb:33:2e:f9:57:b5, 2085-97-106 06:34:231:8199,1.176,-3.223,3.875,-282.715,181.702,-85.388,17.897,39.754,-71.735
 14:55:52.608,eb:33:2e:f9:57:b5, 2085-97-136 12:31:236:7310,2.025,-2.837,3.956,-347.534,293.762,21.057,15.15,42.171,-71.082
 14:55:52.664,eb:33:2e:f9:57:b5, 2085-97-87 20:197:242:4436,3.07,-2.073,2.965,-381.531,327.332,94.727,12.81,45.132,-69.181
 14:55:52.664,eb:33:2e:f9:57:b5, 2085-97-130 27:84:248:403,3.556,-1.26,1.194,-414.368,269.287,132.751,10.761,47.829,-66.55
 14:55:52.664,eb:33:2e:f9:57:b5, 2085-97-240 27:57:249:-935,3.363,-0.833,-0.434,-443.542,114.136,131.226,8.317,49.499,-64.083
 14:55:52.664,eb:33:2e:f9:57:b5, 2085-97-191 25:189:248:1695,3.015,-0.892,0.086,-446.594,-78.064,127.625,5.4,49.356,-62.073
 14:55:52.694,eb:33:2e:f9:57:b5, 2085-97-135 22:197:248:3682,2.746,-0.917,1.413,-462.708,-158.386,145.447,2.307,47.939,-60.194
 14:55:52.694,eb:33:2e:f9:57:b5, 2085-97-123 22:120:251:4412,2.937,-0.799,2.034,-494.995,-160.706,172.668,-0.747,46.247,-57.838
 14:55:52.694,eb:33:2e:f9:57:b5, 2085-97-36 24:207:255:4174,3.051,-0.283,2.151,-519.836,-166.931,172.302,-3.999,44.703,-55.278
 14:55:52.694,eb:33:2e:f9:57:b5, 2085-97-64 24:122:02:3969,2.969,0.172,1.942,-525.513,-215.881,139.282,-7.542,42.896,-52.833
 14:55:52.786,eb:33:2e:f9:57:b5, 2085-97-26 23:15:04:4793,2.853,0.411,2.096,-518.616,-285.217,87.891,-11.393,40.562,-50.823
 14:55:52.786,eb:33:2e:f9:57:b5, 2085-97-72 22:234:05:5822,2.658,0.63,2.615,-516.602,-320.618,29.48,-15.513,37.612,-49.175
 14:55:52.786,eb:33:2e:f9:57:b5, 2085-97-204 19:155:07:5976,2.246,0.867,2.929,-515.32,-322.51,-31.494,-19.99,34.525,-48.043
 14:55:52.786,eb:33:2e:f9:57:b5, 2085-97-117 15:182:07:6146,1.668,1.001,2.985,-506.409,-335.632,-83.191,-24.631,31.146,-47.214
 14:55:52.906,eb:33:2e:f9:57:b5, 2085-97-26 11:173:06:6782,1.248,0.896,3.115,-488.708,-365.173,-98.633,-29.185,27.576,-46.39
 14:55:52.906,eb:33:2e:f9:57:b5, 2085-97-204 09:26:08:8000,1.086,0.849,3.572,-456.97,-405.151,-70.007,-33.267,23.719,-44.962
 14:55:52.906,eb:33:2e:f9:57:b5, 2085-97-147 05:246:10:7849,0.391,1.234,3.993,-426.453,-432.922,-14.343,-36.837,20.045,-42.764
 14:55:52.906,eb:33:2e:f9:57:b5, 2085-97-96 01:25:16:8819,-0.401,1.573,3.933,-368.774,-505.249,61.157,-39.776,16.43,-39.485
 14:55:52.911,eb:33:2e:f9:57:b5, 2085-97-222 246:08:28:9892,-1.913,2.636,4.521,-253.906,-609.497,142.883,-41.732,12.887,-34.904
 14:55:52.911,eb:33:2e:f9:57:b5, 2085-97-248 232:252:46:11404,-4.073,4.662,5.22,-48.096,-705.505,212.708,-42.045,9.064,-28.987
 14:55:52.911,eb:33:2e:f9:57:b5, 2085-97-187 215:56:55:15539,-5.676,6.696,6.519,133.179,-751.465,223.083,-40.583,4.944,-22.324
 14:55:52.911,eb:33:2e:f9:57:b5, 2085-113-58 00:23:233:1845,-5.574,7.05,7.238,82.031,-393.921,195.923,-38.963,1.686,-17.007
 14:55:52.915,eb:33:2e:f9:57:b5, 2085-97-153 218:230:68:9395,-3.493,7.487,6.034,-17.7,-145.569,169.128,-38.809,1.307,-15.535
 14:55:52.915,eb:33:2e:f9:57:b5, 2085-97-141 236:13:89:4127,-1.657,10.025,3.186,-196.411,218.506,11.719,-40.089,2.488,-15.304
 14:55:52.915,eb:33:2e:f9:57:b5, 2085-97-211 244:67:88:439,-1.646,11.569,1.094,-144.653,275.879,-261.963,-42.05,3.598,-18.199
 14:55:52.915,eb:33:2e:f9:57:b5, 2085-97-131 238:71:61:-081,-2.819,9.471,-0.245,40.466,104.004,-472.107,-42.709,2.335,-22.363
 14:55:53.054,eb:33:2e:f9:57:b5, 2085-97-17 237:188:07:9613,-1.458,6.107,0.562,139.16,13,-499.451,-41.594,-0.775,-26.395
 14:55:53.054,eb:33:2e:f9:57:b5, 2085-97-58 250:56:228:-21353,-7.731,3.392,6.446,635.803,1251.709,-178.711,-36.53,0.093,-30.657
 14:55:53.054,eb:33:2e:f9:57:b5, 2085-97-31 211:188:223:-1289,-3.024,-7.317,-3.008,772.827,165.283,23.193,-29.674,4.521,-34.86
 14:55:53.054,eb:33:2e:f9:57:b5, 2085-97-240 07:64:54:1887,3.138,4.024,8.949,736.084,-346.008,95.459,-21.127,3.17,-32.805
 14:55:53.056,eb:33:2e:f9:57:b5, 2085-97-66 28:64:15:8072,2.125,4.741,2.864,209.412,-401.306,-44.067,-17.001,-1.681,-31.08
 14:55:53.056,eb:33:2e:f9:57:b5, 2085-97-214 03:219:01:2350,-0.389,0.992,2.133,66.162,-82.703,44.312,-16.062,-2.988,-30.591
 14:55:53.056,eb:33:2e:f9:57:b5, 2085-97-82 246:115:255:376,-1.038,-0.104,0.704,78.43,-45.776,0,-15.062,-3.422,-30.564
 14:55:53.056,eb:33:2e:f9:57:b5, 2085-97-175 02:187:04:1847,0.608,0.165,-0.136,55.481,-109.497,-14.771,-14.403,-4.213,-30.465
 14:55:53.058,eb:33:2e:f9:57:b5, 2085-97-52 03:233:01:2890,0.046,0.385,1.5,24.048,-44.189,-12.939,-13.947,-4.988,-30.476
 14:55:53.058,eb:33:2e:f9:57:b5, 2085-97-173 253:80:255:1824,-0.393,-0.007,1.205,33.447,-21.912,-6.836,-13.656,-5.284,-30.547
 14:55:53.059,eb:33:2e:f9:57:b5, 2085-97-101 254:211:00:1663,0.131,-0.066,0.79,29.846,-34.79,-2.747,-13.184,-5.587,-30.564
 14:55:53.059,eb:33:2e:f9:57:b5, 2085-97-41 02:28:01:2767,0.414,0.197,1.129,20.752,-24.536,-5.127,-12.942,-5.927,-30.558
 14:55:53.059,eb:33:2e:f9:57:b5, 2085-97-21 03:139:00:3054,0.197,0.127,1.573,21.912,21.729,-1.343,-12.579,-5.971,-30.63
 14:55:53.059,eb:33:2e:f9:57:b5, 2085-97-184 255:122:254:3991,-0.417,0.029,1.471,13.184,72.327,9.766,-12.415,-5.422,-30.729
 14:55:53.059,eb:33:2e:f9:57:b5, 2085-97-223 254:219:00:4695,-0.207,-0.501,2.657,-16.113,143.372,50.781,-12.283,-4.318,-30.756
 14:55:53.059,eb:33:2e:f9:57:b5, 2085-97-180 04:230:05:6499,1.295,-0.062,3.064,2.075,179.077,77.026,-12.415,-2.604,-30.498
 14:55:53.061,eb:33:2e:f9:57:b5, 2085-97-86 08:213:00:8649,1.021,0.7,3.865,124.023,160.889,11.78,-11.602,-0.928,-30.449
 14:55:53.061,eb:33:2e:f9:57:b5, 2085-97-20 10:91:254:9884,1.454,-0.148,4.562,212.708,222.656,0.488,-9.866,0.95,-30.795
 14:55:53.061,eb:33:2e:f9:57:b5, 2085-97-36 12:41:250:8915,1.489,-0.435,4.615,292.908,311.829,-7.202,-7.147,3.609,-31.262
 14:55:53.061,eb:33:2e:f9:57:b5, 2085-97-227 11:217:244:8428,1.522,-1.067,4.245,363.037,401.123,-3.784,-3.884,7.191,-31.69
 14:55:53.144,eb:33:2e:f9:57:b5, 2085-97-115 11:155:243:7006,0.913,-1.481,3.796,449.097,494.751,-9.46,0.335,11.706,-31.882
 14:55:53.144,eb:33:2e:f9:57:b5, 2085-97-41 02:77:244:8527,0.265,-1.41,3.338,508.484,534.058,-21.362,5.213,16.924,-31.805
 14:55:53.144,eb:33:2e:f9:57:b5, 2085-113-81 00:217:119:4620,0.69,-1.175,5.013,555.054,515.198,-1.038,10.898,22.115,-31.097
 14:55:53.144,eb:33:2e:f9:57:b5, 2085-97-252 07:204:248:9981,1.044,-0.893,5.28,582.275,504.089,-1.709,13.997,24.604,-30.542
 14:55:53.144,eb:33:2e:f9:57:b5, 2085-97-156 10:07:252:8906,1.136,-0.871,4.371,613.281,410.706,9.094,20.874,28.883,-28.911
 14:55:53.146,eb:33:2e:f9:57:b5, 2085-97-44 08:26:03:5619,1.308,0.288,3.655,496.399,476.379,-19.836,27.609,32.948,-26.845
 14:55:53.146,eb:33:2e:f9:57:b5, 2085-97-78 14:126:227:639,1.154,-1.004,1.789,231.079,515.93,-22.949,32.932,37.304,-23.967
 14:55:53.146,eb:33:2e:f9:57:b5, 2085-97-246 12:233:246:-3082,2.338,-4.173,1.032,32.654,560.913,110.046,36.661,41.517,-19.709
 14:55:53.146,eb:33:2e:f9:57:b5, 2085-97-24 24:83:08:5663,3.152,0.683,-0.634,-87.341,214.966,68.665,39.457,43.896,-15.276
 14:55:53.234,eb:33:2e:f9:57:b5, 2085-97-154 22:40:13:6226,2.117,1.493,3.166,-47.668,86.426,-41.992,39.688,44.863,-13.953
 14:55:53.234,eb:33:2e:f9:57:b5, 2085-97-123 14:146:08:6581,1.636,1.376,3.014,-4.639,22.644,-163.757,39.007,45.829,-14.672
 14:55:53.234,eb:33:2e:f9:57:b5, 2085-97-63 10:86:03:7214,0.98,0.792,3.398,-6.714,8.789,-240.356,37.343,47.247,-16.985
 14:55:53.234,eb:33:2e:f9:57:b5, 2085-97-100 05:254:252:7645,0.535,0.049,3.758,-57.678,3.906,-270.569,34.821,48.675,-20.045
 14:55:53.236,eb:33:2e:f9:57:b5, 2085-97-24 04:196:250:7588,0.603,-0.583,3.711,-156.982,48.462,-244.385,31.333,50.29,-23.242
 14:55:53.236,eb:33:2e:f9:57:b5, 2085-97-16 07:96:252:7575,1.272,-0.607,3.674,-273.315,137.146,-189.087,27.51,52.07,-25.356
 14:55:53.236,eb:33:2e:f9:57:b5, 2085-97-57 13:39:00:6964,1.977,-0.209,3.631,-354.98,223.45,-148.56,23.373,54.47,-26.548
 14:55:53.236,eb:33:2e:f9:57:b5, 2085-97-83 18:110:02:4745,2.575,0.201,2.955,-397.583,268.616,-131.653,19.16,57.2,-27.092
 14:55:53.264,eb:33:2e:f9:57:b5, 2085-97-185 22:135:02:1805,2.983,0.348,1.571,-429.565,268.738,-123.474,14.31,60.183,-27.944
 14:55:53.264,eb:33:2e:f9:57:b5, 2085-97-108 24:175:00:-365,3.036,0.212,0.236,-461.487,212.097,-125.122,8.674,62.693,-29.317
 14:55:53.264,eb:33:2e:f9:57:b5, 2085-97-198 23:232:253:-661,2.863,-0.071,-0.364,-487.366,100.586,-117.554,1.741,64.336,-31.772
 14:55:53.264,eb:33:2e:f9:57:b5, 2085-97-167 21:134:250:-428,2.529,-0.48,-0.26,-501.404,-18.311,-78.003,-5.087,64.539,-33.893
 14:55:53.384,eb:33:2e:f9:57:b5, 2085-97-254 18:02:249:136,2.362,-0.832,-0.159,-499.451,-142.456,-3.967,-10.662,63.633,-34.557
 14:55:53.384,eb:33:2e:f9:57:b5, 2085-97-23 19:182:251:1680,2.393,-0.754,0.433,-491.15,-262.39,94.116,-13.557,61.523,-32.305
 14:55:53.384,eb:33:2e:f9:57:b5, 2085-97-12 19:62:255:2815,2.349,-0.296,1.126,-489.624,-319.214,167.908,-14.87,58.991,-28.213
 14:55:53.384,eb:33:2e:f9:57:b5, 2085-97-103 18:88:01:3728,2.231,0.049,1.608,-489.746,-350.464,219.482,-15.255,56.096,-22.917
 14:55:53.386,eb:33:2e:f9:57:b5, 2085-97-61 17:93:03:4470,2.118,0.288,1.996,-488.77,-362.244,254.822,-15.54,53.284,-17.32
 14:55:53.386,eb:33:2e:f9:57:b5, 2085-97-151 17:125:06:5206,2.383,0.575,2.38,-487.671,-356.628,276.733,-15.826,50.361,-11.519
 14:55:53.386,eb:33:2e:f9:57:b5, 2085-97-158 20:228:12:5027,2.753,1.17,2.576,-484.131,-330.322,272.095,-16.518,47.84,-6.053
 14:55:53.386,eb:33:2e:f9:57:b5, 2085-97-64 22:85:20:3911,2.376,2.084,2.241,-474.67,-317.688,224.792,-17.765,45.324,-1.208
 14:55:53.388,eb:33:2e:f9:57:b5, 2085-97-255 14:128:21:2494,1.503,2.737,1.427,-445.618,-371.033,153.687,-19.627,42.726,2.714
 14:55:53.389,eb:33:2e:f9:57:b5, 2085-97-227 08:37:20:4860,0.502,2.675,1.66,-368.469,-510.498,99.609,-21.313,38.754,6.29
 14:55:53.389,eb:33:2e:f9:57:b5, 2085-97-152 255:48:17:6807,-0.529,2.296,2.795,-293.457,-568.848,99.182,-22.429,34.019,9.866
 14:55:53.389,eb:33:2e:f9:57:b5, 2085-97-195 248:123:19:8925,-1.122,2.192,3.893,-218.933,-535.889,143.25,-22.95,29.136,13.683
 14:55:53.533,eb:33:2e:f9:57:b5, 2085-97-31 246:88:29:8665,-1.323,2.945,4.544,-146.973,-420.349,200.928,-22.95,25.417,17.529
 14:55:53.533,eb:33:2e:f9:57:b5, 2085-97-19 244:33:45:6038,-1.617,4.571,3.644,-94.543,-327.759,240.723,-22.577,22.775,21.297
 14:55:53.533,eb:33:2e:f9:57:b5, 2085-113-58 00:208:228:-1200,-1.761,6.694,2.449,-46.265,-356.201,235.84,-21.863,20.594,25.005
 14:55:53.533,eb:33:2e:f9:57:b5, 2085-97-47 240:82:67:4069,-2.313,7.665,2.104,-23.56,-402.71,216.064,-21.39,19.226,26.867
 14:55:53.535,eb:33:2e:f9:57:b5, 2085-97-44 233:191:72:5652,-3.481,8.837,2.204,13.367,-482.727,152.283,-20.38,15.474,30.3
 14:55:53.535,eb:33:2e:f9:57:b5, 2085-97-126 224:150:73:7342,-4.154,9.203,3.379,41.748,-410.706,61.096,-19.473,11.492,32.86
 14:55:53.535,eb:33:2e:f9:57:b5, 2085-97-106 223:55:71:5917,-3.89,9.14,3.198,72.937,-181.458,-55.969,-18.704,8.63,33.761
 14:55:53.535,eb:33:2e:f9:57:b5, 2085-97-214 227:49:60:4481,-3.053,8.44,2.609,123.047,61.279,-208.923,-17.886,7.811,32.459
 14:55:53.537,eb:33:2e:f9:57:b5, 2085-97-202 232:227:39:1880,-2.989,6.288,1.697,173.523,197.083,-320.129,-16.732,8.234,29.328
 14:55:53.537,eb:33:2e:f9:57:b5, 2085-97-250 230:160:18:750,-3.305,3.675,0.409,201.599,180.969,-351.807,-15.419,9.19,25.362
 14:55:53.537,eb:33:2e:f9:57:b5, 2085-97-116 229:172:253:1390,-3.198,0.942,0.492,205.566,157.166,-316.162,-13.887,9.772,21.627
 14:55:53.537,eb:33:2e:f9:57:b5, 2085-97-169 231:34:238:1154,-4.431,-1.313,0.746,187.378,245.483,-231.689,-12.48,11.074,18.413
 14:55:53.539,eb:33:2e:f9:57:b5, 2085-97-149 209:64:217:6665,1.929,3.771,-4.718,-307.739,-296.631,-89.05,-12.233,11.909,17.15
 14:55:53.539,eb:33:2e:f9:57:b5, 2085-97-222 28:170:22:6940,3.739,3.744,7.296,10.925,253.235,-409.119,-12.744,7.053,14.908
 14:55:53.539,eb:33:2e:f9:57:b5, 2085-97-50 18:244:06:4507,1.095,0.587,3.122,39.551,-84.961,41.138,-12.277,6.026,14.469
 14:55:53.539,eb:33:2e:f9:57:b5, 2085-97-249 245:08:00:-189,-1.047,0.905,1.867,33.691,5.493,36.865,-11.92,5.801,14.963
 14:55:53.655,eb:33:2e:f9:57:b5, 2085-97-122 241:250:250:-646,-1.202,-0.133,0.305,29.297,-10.803,2.319,-11.459,5.609,15.2
 14:55:53.655,eb:33:2e:f9:57:b5, 2085-97-169 05:16:05:2838,1.283,-0.458,0.409,40.1,-112.671,7.507,-11.118,4.905,15.309
 14:55:53.655,eb:33:2e:f9:57:b5, 2085-97-87 04:61:01:2788,-0.022,0.746,1.582,3.906,7.751,-19.653,-10.794,4.29,15.326
 14:55:53.655,eb:33:2e:f9:57:b5, 2085-97-41 255:132:00:1902,-0.127,-0.009,0.978,20.264,-11.414,-9.46,-10.69,4.318,15.106
 14:55:53.655,eb:33:2e:f9:57:b5, 2085-97-164 255:213:00:1917,0.191,0.107,0.878,17.883,-15.076,-13.55,-10.388,4.081,15.029
 14:55:53.655,eb:33:2e:f9:57:b5, 2085-97-138 01:69:00:2880,-0.023,0.098,1.226,20.325,-13.489,-11.047,-10.223,3.9,14.865
 14:55:53.655,eb:33:2e:f9:57:b5, 2085-97-103 250:104:247:4791,-0.573,-0.204,1.929,35.339,13.245,13.611,-9.811,3.713,14.865
 14:55:53.656,eb:33:2e:f9:57:b5, 2085-97-174 252:250:254:5955,0.526,-1.423,2.656,34.729,91.064,136.902,-9.426,4.493,15.463
 14:55:53.685,eb:33:2e:f9:57:b5, 2085-97-165 12:136:03:9630,2.314,0.226,4.241,115.479,76.721,111.45,-8.646,5.427,16.677
 14:55:53.685,eb:33:2e:f9:57:b5, 2085-97-99 25:23:08:8371,3.515,0.558,4.363,198.242,179.077,53.101,-6.833,6.735,17.21
 14:55:53.685,eb:33:2e:f9:57:b5, 2085-97-175 27:230:05:8041,3.284,1.094,3.857,239.136,318.848,-22.156,-4.532,9.207,17.095
 14:55:53.685,eb:33:2e:f9:57:b5, 2085-97-253 24:90:254:7883,2.794,0.283,3.887,275.513,486.45,-74.829,-2.109,13.277,16.26
 14:55:53.715,eb:33:2e:f9:57:b5, 2085-97-158 18:90:244:7788,2.345,-0.932,3.895,343.384,674.988,-100.769,0.813,18.995,15.271
 14:55:53.715,eb:33:2e:f9:57:b5, 2085-97-67 21:236:251:7838,2.685,-1.384,3.405,458.801,786.682,-108.582,4.532,26.686,14.474
 14:55:53.715,eb:33:2e:f9:57:b5, 2085-97-209 19:14:03:8010,1.594,0.081,4.475,652.344,581.543,-178.833,9.91,33.602,13.837
 14:55:53.715,eb:33:2e:f9:57:b5, 2085-97-92 03:215:07:8665,-0.645,0.99,2.957,820.923,120.056,-263.672,16.386,37.529,12.074
 14:55:53.895,eb:33:2e:f9:57:b5, 2085-97-239 244:217:248:10613,-1.75,0.152,5.993,812.683,-109.192,-321.045,22.434,37.848,8.168
 14:55:53.895,eb:33:2e:f9:57:b5, 2085-97-03 236:87:240:8928,-2.491,-0.743,3.871,509.338,193.604,-296.082,27.076,39.348,4.812
 14:55:53.895,eb:33:2e:f9:57:b5, 2085-97-80 238:156:213:13716,-0.313,-4.058,5.346,144.47,737.976,-88.074,30.679,44.522,5.62
 14:55:53.895,eb:33:2e:f9:57:b5, 2085-97-61 10:17:01:7635,3.316,-2.079,5.456,66.528,1096.924,268.127,39.106,51.801,15.688
 14:55:53.895,eb:33:2e:f9:57:b5, 2085-97-144 33:110:08:9264,4.171,0.538,5.807,11.23,928.528,372.253,52.487,56.261,31.86
 14:55:53.895,eb:33:2e:f9:57:b5, 2085-97-160 33:153:13:4243,3.96,1.644,2.6,59.631,638.489,324.219,66.077,57.244,47.527
 14:55:53.895,eb:33:2e:f9:57:b5, 2085-97-208 28:113:13:3853,3.265,1.7,1.869,74.646,363.586,199.951,74.949,56.234,57.316
 14:55:53.895,eb:33:2e:f9:57:b5, 2085-97-101 23:73:08:4935,2.802,1.397,2.168,56.763,166.626,47.546,79.563,55.668,62.04
 14:55:53.923,eb:33:2e:f9:57:b5, 2085-97-22 20:132:04:5864,2.061,0.82,2.64,42.358,-5.005,-96.741,80.87,55.964,63.045
 14:55:53.923,eb:33:2e:f9:57:b5, 2085-97-217 13:120:253:6467,1.291,0.125,3.063,-38.33,-89.355,-221.436,79.585,57.508,61.397
 14:55:53.923,eb:33:2e:f9:57:b5, 2085-97-102 10:60:247:7486,1.268,-0.856,3.142,-124.023,-106.506,-268.188,76.124,59.595,58.436
 14:55:53.923,eb:33:2e:f9:57:b5, 2085-97-81 08:68:244:7862,1.196,-1.35,3.924,-194.336,-24.719,-260.803,71.977,61.996,55.503
 14:55:53.927,eb:33:2e:f9:57:b5, 2085-97-226 08:215:243:6660,1.342,-1.507,3.805,-239.258,76.111,-231.995,68.439,64.232,54.053
 14:55:53.927,eb:33:2e:f9:57:b5, 2085-97-75 12:23:243:4317,1.635,-1.56,2.833,-275.146,139.221,-190.369,66.33,66.594,54.52
 14:55:53.927,eb:33:2e:f9:57:b5, 2085-97-191 12:81:242:1051,1.608,-1.705,1.362,-321.228,152.71,-151.917,64.742,68.588,56.08
 14:55:53.927,eb:33:2e:f9:57:b5, 2085-97-167 12:114:242:-1951,1.629,-1.738,-0.22,-396.118,108.582,-111.206,62.77,70.34,57.772
 14:55:53.954,eb:33:2e:f9:57:b5, 2085-97-184 12:87:243:-1207,1.732,-1.582,-0.896,-485.718,14.832,-61.218,58.107,71.142,57.612
 14:55:53.954,eb:33:2e:f9:57:b5, 2085-97-104 14:243:244:101,1.957,-1.51,-0.107,-545.288,-52.002,-3.723,51.74,71.23,56.332
 14:55:53.954,eb:33:2e:f9:57:b5, 2085-97-122 16:53:249:098,2.132,-1.114,0.052,-581.116,-97.046,57.8,44.714,70.318,54.921
 14:55:53.954,eb:33:2e:f9:57:b5, 2085-97-204 17:110:254:1090,2.275,-0.55,0.175,-588.44,-168.945,102.661,38.172,68.758,54.152
 14:55:53.955,eb:33:2e:f9:57:b5, 2085-97-45 18:194:03:2884,2.251,0.162,0.969,-580.139,-239.502,129.272,31.536,66.187,53.322
 14:55:53.956,eb:33:2e:f9:57:b5, 2085-113-58 00:167:239:-3735,2.218,0.706,1.741,-569.153,-278.076,145.508,25.703,63.215,53.168
 14:55:53.956,eb:33:2e:f9:57:b5, 2085-97-251 16:188:07:4191,1.987,0.845,1.991,-562.195,-285.217,150.757,22.857,61.447,53.179
 14:55:53.956,eb:33:2e:f9:57:b5, 2085-97-222 14:164:09:3865,1.787,1.083,1.988,-543.274,-301.392,156.799,18.056,58.162,53.954
 14:55:53.956,eb:33:2e:f9:57:b5, 2085-97-238 13:62:11:3752,1.751,1.324,1.839,-516.235,-332.397,152.954,13.546,54.503,54.932
 14:55:54.075,eb:33:2e:f9:57:b5, 2085-97-199 11:06:13:3441,1.248,1.524,1.899,-495.728,-349.609,143.494,9.503,50.812,56.179
 14:55:54.075,eb:33:2e:f9:57:b5, 2085-97-243 08:167:14:3268,0.929,1.7,1.576,-468.628,-384.644,132.874,5.554,46.824,57.426
 14:55:54.075,eb:33:2e:f9:57:b5, 2085-97-130 05:146:17:3911,0.43,2.014,1.75,-430.847,-429.626,116.76,2.043,42.649,58.799
 14:55:54.075,eb:33:2e:f9:57:b5, 2085-97-22 01:186:21:4702,-0.149,2.439,2.094,-407.837,-445.068,103.516,-1.346,38.057,60.112
 14:55:54.075,eb:33:2e:f9:57:b5, 2085-97-143 252:209:25:5216,-0.658,2.971,2.46,-388.306,-432.617,93.811,-4.455,33.701,61.589
 14:55:54.075,eb:33:2e:f9:57:b5, 2085-97-28 249:16:33:5318,-1.087,3.586,2.589,-368.652,-381.531,90.82,-7.515,29.559,63.089
 14:55:54.075,eb:33:2e:f9:57:b5, 2085-97-76 245:221:46:5105,-1.61,4.896,2.561,-341.553,-325.073,88.928,-10.316,26.268,64.709
 14:55:54.075,eb:33:2e:f9:57:b5, 2085-97-133 241:250:61:4651,-1.94,6.881,2.383,-248.718,-329.529,69.641,-12.733,23.11,66.231
 14:55:54.078,eb:33:2e:f9:57:b5, 2085-97-88 239:174:67:5065,-2.363,8.255,2.293,-81.97,-383.911,31.25,-13.81,19.726,67.643
 14:55:54.078,eb:33:2e:f9:57:b5, 2085-97-75 234:235:64:6160,-3.071,8.421,2.695,69.824,-405.945,-5.92,-13.48,15.705,68.708
 14:55:54.078,eb:33:2e:f9:57:b5, 2085-97-174 229:124:58:6676,-3.296,7.668,3.28,152.283,-338.928,-35.461,-12.09,11.948,69.346
 14:55:54.078,eb:33:2e:f9:57:b5, 2085-97-24 231:171:56:4517,-2.898,7.123,2.783,138.367,-185.364,-61.401,-10.602,9.218,69.346
 14:55:54.105,eb:33:2e:f9:57:b5, 2085-97-247 233:174:53:2884,-2.745,7.031,1.756,125.549,-102.478,-127.38,-9.448,7.745,68.648
 14:55:54.105,eb:33:2e:f9:57:b5, 2085-97-81 232:47:39:2400,-3.245,5.95,1.296,183.044,-81.848,-221.191,-8.097,6.449,66.995
 14:55:54.105,eb:33:2e:f9:57:b5, 2085-97-203 226:93:16:1558,-4.085,3.558,1.018,242.554,-52.063,-295.41,-6.185,5.455,64.424
 14:55:54.105,eb:33:2e:f9:57:b5, 2085-97-26 231:204:37:17210,-6.463,0.455,0.628,270.203,-3.54,-305.603,-3.807,4.79,61.37
 14:55:54.165,eb:33:2e:f9:57:b5, 2085-97-248 26:140:30:4495,1.291,-3.138,-3.71,7.996,588.135,-347.412,-3.175,6.932,57.557
 14:55:54.166,eb:33:2e:f9:57:b5, 2085-97-21 247:115:238:-2358,-0.405,0.911,1.584,-143.738,496.338,-65.857,-4.697,11.733,55.541
 14:55:54.166,eb:33:2e:f9:57:b5, 2085-97-52 00:105:08:2300,-1.779,-0.449,0.688,61.279,-146.973,59.509,-4.62,11.986,55.789
 14:55:54.166,eb:33:2e:f9:57:b5, 2085-97-138 00:41:05:1567,0.756,-0.396,-0.389,41.077,-98.145,39.978,-4.12,11.459,56.393
 14:55:54.195,eb:33:2e:f9:57:b5, 2085-97-159 03:195:02:2818,0.673,0.727,1.313,1.099,11.23,-21.301,-3.84,10.679,56.563
 14:55:54.195,eb:33:2e:f9:57:b5, 2085-97-255 00:106:00:2495,-0.332,0.158,1.608,3.662,56.274,-29.602,-3.856,10.926,56.261
 14:55:54.195,eb:33:2e:f9:57:b5, 2085-97-29 253:223:254:1524,-0.356,-0.091,0.749,18.616,19.836,-24.475,-3.779,11.321,55.937
 14:55:54.195,eb:33:2e:f9:57:b5, 2085-97-100 254:25:00:1777,0.445,-0.078,0.756,23.987,-26.672,-4.7,-3.532,11.135,55.822
 14:55:54.285,eb:33:2e:f9:57:b5, 2085-97-159 05:106:02:3162,0.354,0.315,1.303,32.227,-32.471,-13.489,-3.235,10.712,55.789
 14:55:54.285,eb:33:2e:f9:57:b5, 2085-97-131 00:42:255:2881,0.29,0.125,1.375,37.781,1.16,-14.404,-2.878,10.547,55.613
 14:55:54.285,eb:33:2e:f9:57:b5, 2085-97-36 01:13:254:4870,-0.395,0.067,1.444,65.918,-30.518,19.531,-2.346,10.41,55.679
 14:55:54.285,eb:33:2e:f9:57:b5, 2085-97-176 252:132:250:9439,0.184,-0.531,3.759,148.804,-6.47,80.688,-1.132,10.003,56.234
 14:55:54.289,eb:33:2e:f9:57:b5, 2085-97-204 04:113:251:12315,0.769,-0.085,5.06,259.521,46.814,57.556,1.022,10.426,57.074
 14:55:54.289,eb:33:2e:f9:57:b5, 2085-97-65 10:139:246:12192,1.828,-0.869,6.06,378.113,170.044,40.039,4.471,11.382,57.629
 14:55:54.289,eb:33:2e:f9:57:b5, 2085-97-191 19:85:247:12028,3.089,-1.097,5.752,487.122,326.05,19.104,8.987,13.887,58.271
 14:55:54.289,eb:33:2e:f9:57:b5, 2085-97-211 28:36:246:10645,4.139,-1.155,5.536,619.263,464.539,-26.306,14.854,17.776,59.15
 14:55:54.344,eb:33:2e:f9:57:b5, 2085-97-169 36:79:250:9311,5.066,-1.288,4.987,738.037,584.473,-86.426,22.126,22.923,60.304
 14:55:54.344,eb:33:2e:f9:57:b5, 2085-97-111 36:203:10:7432,4.022,-0.042,4.324,859.314,582.214,-154.907,30.954,28.735,62.078
 14:55:54.344,eb:33:2e:f9:57:b5, 2085-97-109 17:169:19:7090,0.806,2.248,3.322,1003.296,179.443,-312.317,40.573,33.349,62.446
 14:55:54.344,eb:33:2e:f9:57:b5, 2085-97-228 01:189:245:15678,-0.348,0.848,6.166,1064.575,-287.231,-454.407,48.554,35.217,57.997
 14:55:54.346,eb:33:2e:f9:57:b5, 2085-97-10 249:12:240:11754,-1.495,-1.095,6.674,814.758,-80.994,-453.003,54.904,37.414,52.509
 14:55:54.346,eb:33:2e:f9:57:b5, 2085-97-54 241:190:194:13452,-0.794,-4.707,5.887,316.467,511.536,-257.69,60.342,41.644,52.657
 14:55:54.346,eb:33:2e:f9:57:b5, 2085-97-176 03:247:223:6169,2.827,-6.747,7.363,129.272,1153.442,245.056,69.846,45.093,63.776
 14:55:54.346,eb:33:2e:f9:57:b5, 2085-97-155 35:13:243:9434,4.617,-2.492,4.04,-24.963,952.759,473.938,81.293,43.808,79.387
 14:55:54.406,eb:33:2e:f9:57:b5, 2085-97-52 36:31:03:2456,4.237,-0.495,2.748,-50.11,683.594,522.705,88.66,39.364,91.044
 14:55:54.406,eb:33:2e:f9:57:b5, 2085-97-223 27:45:08:-075,2.929,0.721,0.408,-60.852,312.866,401.489,91.533,34.601,96.866
 14:55:54.406,eb:33:2e:f9:57:b5, 2085-97-208 20:165:15:3136,2.268,1.594,0.271,-38.818,-36.194,203.308,91.769,31.597,98.157
 14:55:54.406,eb:33:2e:f9:57:b5, 2085-97-233 13:86:08:8746,1.211,1.67,3.256,-9.155,-250.366,-17.334,90.313,30.701,96.01
 14:55:54.434,eb:33:2e:f9:57:b5, 2085-97-73 06:76:252:10024,0.466,0.254,4.749,9.399,-281.799,-188.11,88.671,31.86,92.692
 14:55:54.434,eb:33:2e:f9:57:b5, 2085-97-40 02:121:245:8835,0.117,-0.951,4.713,-21.79,-211.304,-277.466,86.797,34.058,89.544
 14:55:54.434,eb:33:2e:f9:57:b5, 2085-97-116 00:197:239:7833,-0.033,-1.688,3.898,-91.125,-115.356,-298.584,84.957,36.892,87.314
 14:55:54.434,eb:33:2e:f9:57:b5, 2085-97-25 255:133:235:7300,-0.174,-2.358,3.746,-159.424,-7.385,-274.719,82.798,39.578,86.111
 14:55:54.525,eb:33:2e:f9:57:b5, 2085-97-119 255:114:235:5701,0.178,-2.617,3.181,-221.619,72.266,-223.206,80.92,42.089,86.133
 14:55:54.525,eb:33:2e:f9:57:b5, 2085-97-87 04:51:237:3763,0.912,-2.476,2.311,-300.598,125.366,-169.922,78.717,44.044,86.924
 14:55:54.525,eb:33:2e:f9:57:b5, 2085-97-205 09:35:242:1284,1.429,-2.098,1.292,-400.635,171.692,-128.479,76.344,45.797,88.533
 14:55:54.525,eb:33:2e:f9:57:b5, 2085-97-130 12:131:247:-1007,1.647,-1.355,-0.019,-488.647,147.278,-120.667,72.955,47.28,90.236
 14:55:54.527,eb:33:2e:f9:57:b5, 2085-97-82 13:94:249:-1637,1.637,-0.873,-0.746,-535.095,37.903,-138.489,68.253,48.796,90.818
 14:55:54.527,eb:33:2e:f9:57:b5, 2085-97-28 12:98:248:-842,1.29,-0.871,-0.669,-539.795,-96.619,-148.682,61.49,49.828,89.176
 14:55:54.527,eb:33:2e:f9:57:b5, 2085-97-107 08:130:246:826,0.794,-1.057,0.037,-521.057,-227.417,-127.747,53.608,50.114,85.803
 14:55:54.527,eb:33:2e:f9:57:b5, 2085-97-79 04:207:243:2110,0.354,-1.365,0.739,-516.846,-304.932,-71.045,45.011,48.944,81.431
 14:55:54.615,eb:33:2e:f9:57:b5, 2085-97-193 01:101:243:3671,0.146,-1.603,1.392,-531.616,-334.595,18.188,37.205,46.653,77.975
 14:55:54.615,eb:33:2e:f9:57:b5, 2085-97-63 01:210:245:5110,0.18,-1.456,2.175,-551.025,-320.129,121.46,30.372,43.358,76.13
 14:55:54.615,eb:33:2e:f9:57:b5, 2085-97-192 02:35:250:5453,0.7,-1.057,2.635,-556.58,-293.762,215.454,24.928,39.853,76.306
 14:55:54.615,eb:33:2e:f9:57:b5, 2085-97-211 08:00:02:5192,1.355,-0.298,2.638,-548.706,-275.024,267.395,20.16,36.14,77.717
 14:55:54.615,eb:33:2e:f9:57:b5, 2085-97-164 11:131:12:4021,1.365,0.881,2.271,-543.945,-271.057,263.184,15.881,32.745,79.816
 14:55:54.616,eb:33:2e:f9:57:b5, 2085-97-02 09:122:22:3663,0.831,2.241,1.739,-529.602,-325.195,208.618,11.299,29.163,81.59
 14:55:54.616,eb:33:2e:f9:57:b5, 2085-113-64 00:120:12:000,0.534,3.168,2.282,-501.587,-417.053,131.042,6.702,25.153,82.831
 14:55:54.616,eb:33:2e:f9:57:b5, 2085-97-198 01:213:27:7139,-0.08,3.334,2.977,-490.967,-428.589,99.67,4.384,22.972,83.216
 14:55:54.644,eb:33:2e:f9:57:b5, 2085-97-142 253:129:32:7490,-0.408,3.717,3.673,-483.459,-371.155,51.208,-0.406,18.759,83.765
 14:55:54.644,eb:33:2e:f9:57:b5, 2085-97-57 252:83:39:6526,-0.584,4.471,3.524,-480.53,-265.076,-3.479,-5.114,15.628,84.21
 14:55:54.644,eb:33:2e:f9:57:b5, 2085-97-187 249:211:48:5209,-1.086,5.468,2.771,-457.031,-203.43,-67.383,-9.97,13.206,84.078
 14:55:54.644,eb:33:2e:f9:57:b5, 2085-97-38 244:27:58:5813,-1.896,6.73,2.607,-392.151,-226.379,-134.766,-14.348,10.909,83.551
 14:55:54.673,eb:33:2e:f9:57:b5, 2085-97-123 237:131:63:6878,-2.736,7.667,3.147,-279.602,-267.029,-183.838,-17.93,7.888,82.645
 14:55:54.673,eb:33:2e:f9:57:b5, 2085-97-202 231:242:65:7196,-3.239,8.19,3.457,-136.963,-259.46,-203.003,-20.072,4.719,81.716
 14:55:54.673,eb:33:2e:f9:57:b5, 2085-97-242 228:191:62:6690,-3.458,8.144,3.44,20.142,-211.792,-206.116,-20.698,1.642,80.601
 14:55:54.673,eb:33:2e:f9:57:b5, 2085-97-200 227:111:54:5314,-3.706,7.363,3.013,164.307,-134.094,-199.951,-19.688,-0.665,79.288
 14:55:54.704,eb:33:2e:f9:57:b5, 2085-97-85 225:48:42:3470,-3.834,6.027,2.049,273.682,-44.006,-180.42,-17.402,-2.225,77.75
 14:55:54.704,eb:33:2e:f9:57:b5, 2085-97-29 03:40:51:15218,-4.327,4.409,1.192,323.73,56.641,-156.494,-14.293,-2.571,76.108
 14:55:54.704,eb:33:2e:f9:57:b5, 2085-97-138 18:91:47:-3028,-3.049,8.207,-1.635,713.44,419.25,-317.017,-8.152,-0.286,73.883
 14:55:54.704,eb:33:2e:f9:57:b5, 2085-97-31 09:26:252:13542,-4.7,0.651,1.278,-43.762,240.845,104.004,-4.477,5.312,68.681
 14:55:54.794,eb:33:2e:f9:57:b5, 2085-97-255 240:143:248:-4289,-1.42,-4.343,-6.52,-36.255,261.353,98.999,-4.993,9.382,67.522
 14:55:54.794,eb:33:2e:f9:57:b5, 2085-97-82 242:177:254:-4271,-1.562,-0.89,0.688,80.139,-43.396,45.959,-4.208,8.602,68.011
 14:55:54.794,eb:33:2e:f9:57:b5, 2085-97-160 12:186:07:4070,3.287,-0.12,-1.185,40.833,-284.302,78.552,-3.73,7.13,69.126
 14:55:54.794,eb:33:2e:f9:57:b5, 2085-97-65 252:131:255:610,0.254,1.534,4.36,5.493,120.728,-32.715,-3.444,5.674,69.56
 14:55:54.796,eb:33:2e:f9:57:b5, 2085-97-23 08:217:02:5119,-0.711,0.066,1.375,29.236,-16.602,-25.757,-3.307,5.944,69.285
 14:55:54.796,eb:33:2e:f9:57:b5, 2085-97-04 248:209:252:118,-0.871,-0.296,0.216,27.649,67.2,-30.884,-3.071,6.828,68.829
 14:55:54.796,eb:33:2e:f9:57:b5, 2085-97-22 253:143:255:1874,0.64,-0.286,0.23,25.452,-59.814,17.7,-2.802,6.663,68.84
 14:55:54.796,eb:33:2e:f9:57:b5, 2085-97-43 05:45:01:3890,0.406,0.223,1.94,45.898,-61.157,17.029,-2.379,5.773,69.109
 14:55:54.824,eb:33:2e:f9:57:b5, 2085-97-73 02:103:254:5621,0.342,0.15,1.669,63.232,-20.02,15.137,-1.818,5.438,69.307
 14:55:54.824,eb:33:2e:f9:57:b5, 2085-97-23 02:138:254:7800,0.053,-0.091,3.452,159.607,15.747,28.687,-0.654,5.361,69.554
 14:55:54.824,eb:33:2e:f9:57:b5, 2085-97-106 255:169:250:11120,-0.192,-0.036,4.131,283.386,15.564,2.441,1.648,5.537,69.807
 14:55:54.824,eb:33:2e:f9:57:b5, 2085-97-161 00:203:242:13157,0.805,-2.043,7.234,393.677,136.841,49.011,5.048,6.026,69.879
 14:55:54.916,eb:33:2e:f9:57:b5, 2085-97-238 11:114:244:10420,1.347,-1.198,5.243,533.264,198.914,45.959,9.882,7.839,70.785
 14:55:54.916,eb:33:2e:f9:57:b5, 2085-97-175 13:128:232:12110,2.265,-1.98,5.38,674.683,221.863,4.761,16.078,9.811,71.488
 14:55:54.916,eb:33:2e:f9:57:b5, 2085-97-10 18:117:234:9434,1.919,-3.241,5.297,833.618,402.161,1.77,23.961,12.728,72.658
 14:55:54.916,eb:33:2e:f9:57:b5, 2085-97-106 16:184:245:13533,1.628,-1.952,5.338,961.853,443.604,-40.71,33.541,16.6,74.636
 14:55:54.916,eb:33:2e:f9:57:b5, 2085-97-253 06:30:00:17815,0.771,0.278,7.79,1068.909,276.733,-110.413,44.313,19.885,76.624
 14:55:54.916,eb:33:2e:f9:57:b5, 2085-97-46 254:144:243:7211,-0.924,-2.301,7.274,1077.637,225.403,-94.482,55.613,22.275,77.558
 14:55:54.916,eb:33:2e:f9:57:b5, 2085-97-241 255:223:04:5160,1.003,0.702,1.881,812.256,120.3,-96.436,65.522,23.752,78.832
 14:55:54.917,eb:33:2e:f9:57:b5, 2085-97-252 02:53:230:4542,0.095,-1.582,2.079,382.874,297.791,-147.705,71.977,25.664,80.118
 14:55:54.943,eb:33:2e:f9:57:b5, 2085-97-146 03:254:244:5042,1.646,-2.703,3.831,120.789,636.047,-25.513,76.185,27.653,85.095
 14:55:54.943,eb:33:2e:f9:57:b5, 2085-97-228 23:147:00:10622,2.915,-0.42,3.306,-18.86,569.58,-7.446,79.926,29.053,91.906
 14:55:54.943,eb:33:2e:f9:57:b5, 2085-97-37 24:77:01:8396,2.809,0.4,4.522,2.319,385.803,3.784,82.37,29.663,97.487
 14:55:54.943,eb:33:2e:f9:57:b5, 2085-97-171 18:208:250:5224,1.809,-0.318,3.388,41.992,163.269,-39.246,84.117,30.157,100.305
 14:55:55.003,eb:33:2e:f9:57:b5, 2085-97-243 11:32:249:4297,1.4,-0.84,2.051,12.39,-2.991,-85.876,84.633,30.773,100.986
 14:55:55.003,eb:33:2e:f9:57:b5, 2085-97-241 09:111:247:9083,0.847,-0.828,3.112,-31.677,-162.781,-133.667,83.853,31.789,99.651
 14:55:55.003,eb:33:2e:f9:57:b5, 2085-97-205 03:116:243:10545,0.263,-1.346,5.026,-46.082,-171.936,-174.316,82.057,33.047,97.289
 14:55:55.003,eb:33:2e:f9:57:b5, 2085-97-253 00:77:241:9744,0.103,-1.736,5.086,-51.514,-132.751,-181.396,80.365,34.596,95.059
 14:55:55.064,eb:33:2e:f9:57:b5, 2085-97-01 01:209:238:8123,0.209,-1.962,4.33,-77.332,-64.697,-171.692,78.668,36.052,93.417
 14:55:55.064,eb:33:2e:f9:57:b5, 2085-97-249 02:239:235:7535,0.413,-2.375,3.76,-116.15,8.362,-148.865,77.245,37.568,92.637
 14:55:55.064,eb:33:2e:f9:57:b5, 2085-97-191 03:233:234:5442,0.544,-2.593,3.316,-145.691,72.266,-124.817,75.844,38.886,92.719
 14:55:55.064,eb:33:2e:f9:57:b5, 2085-97-88 06:135:235:3430,1.027,-2.621,2.016,-176.758,64.758,-102.905,74.597,40.161,93.257
 14:55:55.064,eb:33:2e:f9:57:b5, 2085-97-30 09:26:236:2145,1.248,-2.506,1.416,-238.098,33.569,-90.149,72.471,41.1,93.356
 14:55:55.064,eb:33:2e:f9:57:b5, 2085-97-166 10:131:238:149,1.522,-2.397,0.681,-329.224,9.399,-80.872,69.521,41.968,93.17
 14:55:55.066,eb:33:2e:f9:57:b5, 2085-97-154 12:171:243:-2196,1.486,-1.823,-0.49,-443.42,-26.611,-80.872,65.05,42.567,92.494
 14:55:55.066,eb:33:2e:f9:57:b5, 2085-97-77 11:197:244:-1229,1.442,-1.421,-1.176,-545.105,-132.019,-95.093,59.002,42.979,91.011
 14:55:55.124,eb:33:2e:f9:57:b5, 2085-97-183 10:223:245:2009,0.917,-1.315,0.248,-580.2,-263.367,-101.257,50.993,42.484,87.753
 14:55:55.124,eb:33:2e:f9:57:b5, 2085-97-170 08:220:246:4568,0.592,-1.294,1.041,-592.346,-356.14,-66.895,42.567,41.001,83.941
 14:55:55.124,eb:33:2e:f9:57:b5, 2085-97-205 03:204:247:5655,0.215,-1.09,2.503,-577.942,-399.231,-32.654,34.162,38.018,79.991
 14:55:55.124,eb:33:2e:f9:57:b5, 2085-97-175 01:25:249:6023,0.239,-1.103,2.859,-574.097,-400.085,21.79,26.884,34.574,77.426
 14:55:55.155,eb:33:2e:f9:57:b5, 2085-97-00 02:69:254:6235,0.248,-0.566,3.06,-583.74,-373.23,68.97,20.22,30.696,76.009
 14:55:55.155,eb:33:2e:f9:57:b5, 2085-97-43 02:110:04:5869,0.279,0.145,2.954,-585.754,-350.952,94.421,14.211,27.021,75.723
 14:55:55.155,eb:33:2e:f9:57:b5, 2085-97-197 01:71:11:5595,0.098,0.98,2.798,-576.355,-348.083,98.755,8.377,23.264,75.948
 14:55:55.155,eb:33:2e:f9:57:b5, 2085-97-42 255:190:17:5562,-0.365,1.829,2.702,-565.735,-363.281,85.938,2.9,19.644,76.564
 14:55:55.244,eb:33:2e:f9:57:b5, 2085-97-30 251:111:22:5923,-0.842,2.537,2.788,-551.208,-391.785,64.758,-2.587,15.694,77.272
 14:55:55.244,eb:33:2e:f9:57:b5, 2085-97-222 247:200:27:5976,-1.187,3.089,2.929,-532.41,-400.696,50.049,-7.773,11.772,78.217
 14:55:55.244,eb:33:2e:f9:57:b5, 2085-113-81 00:08:97:-4263,-1.427,3.951,2.906,-518.066,-380.615,39.551,-12.953,7.861,79.338
 14:55:55.244,eb:33:2e:f9:57:b5, 2085-97-66 242:188:40:5864,-2.019,4.491,2.848,-506.409,-374.023,33.813,-15.436,6.081,79.975
 14:55:55.244,eb:33:2e:f9:57:b5, 2085-97-169 236:173:54:7422,-2.804,5.825,3.075,-461.06,-369.934,26.367,-20.281,2.494,81.381
 14:55:55.274,eb:33:2e:f9:57:b5, 2085-97-141 230:108:66:9167,-3.528,7.678,4.135,-361.572,-355.774,16.296,-24.362,-0.775,82.963
 14:55:55.274,eb:33:2e:f9:57:b5, 2085-97-03 226:124:68:9295,-3.857,8.586,4.562,-212.83,-327.698,3.845,-27.339,-3.933,84.534
 14:55:55.274,eb:33:2e:f9:57:b5, 2085-97-71 225:227:68:8761,-3.659,8.517,4.414,-68.298,-254.211,-0.793,-28.773,-6.493,85.924
 14:55:55.274,eb:33:2e:f9:57:b5, 2085-97-03 229:183:70:7538,-3.058,8.778,4.036,42.847,-145.752,-25.696,-28.976,-8.372,86.77
 14:55:55.276,eb:33:2e:f9:57:b5, 2085-97-145 233:167:64:6131,-2.68,8.634,3.296,122.253,-41.504,-77.271,-28.076,-9.377,86.721
 14:55:55.276,eb:33:2e:f9:57:b5, 2085-97-12 235:240:50:4607,-2.555,7.292,2.681,170.593,39.307,-124.695,-26.417,-9.91,85.748
 14:55:55.276,eb:33:2e:f9:57:b5, 2085-97-26 236:178:33:3079,-2.397,5.339,1.861,213.074,80.688,-136.597,-24.225,-9.888,84.221
 14:55:55.276,eb:33:2e:f9:57:b5, 2085-97-176 09:182:23:10117,-3.601,3.044,1.19,269.348,98.083,-108.215,-21.522,-9.619,82.705
 14:55:55.335,eb:33:2e:f9:57:b5, 2085-97-104 16:208:04:14620,2.698,4.075,-1.229,963.257,-219.055,-491.76,-14.843,-9.437,79.953
 14:55:55.335,eb:33:2e:f9:57:b5, 2085-97-235 49:192:29:11299,-6.739,3.777,1.918,341.248,404.419,-454.285,-7.317,-6.037,73.021
 14:55:55.335,eb:33:2e:f9:57:b5, 2085-97-245 231:199:241:-1521,1.396,-0.735,-4.068,85.388,57.312,40.894,-6.29,-2.681,72.46
 14:55:55.335,eb:33:2e:f9:57:b5, 2085-97-69 237:133:04:-3493,-1.071,-0.324,3.016,84.961,125.61,130.798,-5.164,-3.598,73.317
 14:55:55.365,eb:33:2e:f9:57:b5, 2085-97-224 06:02:06:2617,1.487,0.331,-0.894,48.523,-137.451,70.496,-4.565,-3.906,74.421
 14:55:55.365,eb:33:2e:f9:57:b5, 2085-97-88 254:184:02:673,-0.146,0.969,1.84,19.226,52.551,-25.696,-4.224,-4.362,74.68
 14:55:55.365,eb:33:2e:f9:57:b5, 2085-97-62 00:82:01:2614,0.595,-0.486,1.358,28.259,7.568,-26.855,-4.059,-4.026,74.279
 14:55:55.365,eb:33:2e:f9:57:b5, 2085-97-92 01:147:254:2872,-1.012,0.067,1.699,35.4,64.88,-22.278,-3.653,-3.807,74.053
 14:55:55.393,eb:33:2e:f9:57:b5, 2085-97-164 254:160:00:1899,1.013,-0.283,0.294,33.63,33.203,19.592,-3.307,-3.049,74.009
 14:55:55.393,eb:33:2e:f9:57:b5, 2085-97-97 04:172:255:4147,0.454,0.24,2.338,44.861,97.595,5.92,-2.84,-2.895,74.13
 14:55:55.393,eb:33:2e:f9:57:b5, 2085-97-110 253:231:253:10284,-0.499,0.266,2.158,97.351,74.28,-12.085,-2.208,-1.84,74.114
 14:55:55.393,eb:33:2e:f9:57:b5, 2085-97-178 254:222:241:13035,0.274,-1.37,7.453,258.728,166.016,-22.827,-0.319,-1.027,73.724
 14:55:55.485,eb:33:2e:f9:57:b5, 2085-97-211 02:152:245:9377,0.655,-1.35,4.507,402.466,223.572,58.105,3.142,1.11,74.136
 14:55:55.485,eb:33:2e:f9:57:b5, 2085-97-71 06:247:239:11370,1.447,-1.693,5.709,538.696,229.553,49.744,7.976,3.038,74.855
 14:55:55.485,eb:33:2e:f9:57:b5, 2085-97-37 17:155:235:10590,2.517,-2.225,5.37,690.796,270.63,34.729,14.26,5.389,75.795
 14:55:55.485,eb:33:2e:f9:57:b5, 2085-97-36 18:252:235:9931,1.727,-2.632,4.555,841.919,380.31,0.549,22.159,8.421,77.042
 14:55:55.513,eb:33:2e:f9:57:b5, 2085-97-237 10:43:245:16130,0.949,-2.208,6.11,968.018,433.96,-33.752,31.624,12.162,78.723
 14:55:55.513,eb:33:2e:f9:57:b5, 2085-97-195 09:67:254:17841,0.976,-0.145,8.613,1109.558,248.23,-97.717,42.457,15.436,80.552
 14:55:55.513,eb:33:2e:f9:57:b5, 2085-97-108 249:134:251:6075,-0.595,-1.645,6.674,1093.201,202.087,-121.338,53.888,17.754,81.063
 14:55:55.513,eb:33:2e:f9:57:b5, 2085-97-203 05:250:04:2610,1.611,1.217,1.4,816.223,54.077,-116.211,63.627,19.171,81.579
 14:55:55.517,eb:33:2e:f9:57:b5, 2085-97-160 08:119:239:2407,0.825,-0.788,0.945,359.863,189.88,-170.41,69.434,20.891,81.771
 14:55:55.517,eb:33:2e:f9:57:b5, 2085-97-206 07:137:247:3470,1.383,-2.097,2.84,134.766,521.179,-112.427,72.653,23.324,85.001
 14:55:55.517,eb:33:2e:f9:57:b5, 2085-97-140 16:174:03:8580,2.509,-0.102,2.536,5.859,538.879,-88.928,75.597,25.757,90.544
 14:55:55.517,eb:33:2e:f9:57:b5, 2085-97-211 20:137:08:8014,2.258,1.121,4.372,53.711,346.985,-56.03,77.838,27.328,95.24
 14:55:55.574,eb:33:2e:f9:57:b5, 2085-97-07 15:119:254:5545,1.543,0.467,3.149,126.404,130.31,-86.548,79.915,28.466,97.52
 14:55:55.574,eb:33:2e:f9:57:b5, 2085-97-96 09:186:248:5970,0.702,-0.637,2.643,114.685,0.61,-113.281,81.277,29.471,97.866
 14:55:55.574,eb:33:2e:f9:57:b5, 2085-97-234 03:84:243:8667,0.23,-1.265,3.596,29.48,-18.311,-118.347,81.804,30.619,97.405
 14:55:55.574,eb:33:2e:f9:57:b5, 2085-97-156 255:107:238:8148,0.111,-1.934,4.459,-45.959,51.27,-84.534,81.546,31.564,97.394
 14:55:55.604,eb:33:2e:f9:57:b5, 2085-97-206 03:68:241:6690,0.689,-2.142,3.438,-53.345,61.646,-49.622,81.365,32.3,98.02
 14:55:55.604,eb:33:2e:f9:57:b5, 2085-97-68 07:210:244:6776,0.847,-1.598,3.132,-44.067,11.414,-46.631,80.925,32.695,98.278
 14:55:55.604,eb:33:2e:f9:57:b5, 2085-97-244 06:56:245:6704,0.933,-1.317,3.201,-44.312,-9.155,-65.308,80.447,33.25,98.146
 14:55:55.604,eb:33:2e:f9:57:b5, 2085-97-228 07:111:243:7030,0.858,-1.436,3.421,-50.781,-15.442,-90.271,79.629,33.92,97.712
 14:55:55.635,eb:33:2e:f9:57:b5, 2085-97-159 05:159:240:5738,0.63,-1.761,3.146,-63.782,1.709,-106.384,78.909,34.915,97.405
 14:55:55.635,eb:33:2e:f9:57:b5, 2085-97-215 04:122:237:4657,0.589,-2.127,2.54,-93.079,-16.785,-108.032,77.761,35.876,96.938
 14:55:55.635,eb:33:2e:f9:57:b5, 2085-97-43 05:196:236:3512,0.751,-2.409,1.971,-149.902,-33.264,-92.407,76.185,36.799,96.284
 14:55:55.635,eb:33:2e:f9:57:b5, 2085-97-227 06:174:238:2468,1.023,-2.314,1.498,-232.361,-29.48,-69.519,73.669,37.397,95.504
 14:55:55.695,eb:33:2e:f9:57:b5, 2085-97-83 09:32:242:1179,1.317,-1.974,0.919,-328.369,-10.01,-46.143,70.549,37.875,94.999
 14:55:55.695,eb:33:2e:f9:57:b5, 2085-97-01 12:138:246:-365,1.636,-1.455,0.185,-421.448,-13.489,-32.349,66.407,38.106,94.609
 14:55:55.695,eb:33:2e:f9:57:b5, 2085-97-145 13:235:249:-841,1.669,-0.933,-0.44,-494.751,-89.417,-37.109,61.304,38.194,93.812
 14:55:55.695,eb:33:2e:f9:57:b5, 2085-97-37 13:13:251:787,1.602,-0.667,-0.106,-530.273,-218.323,-46.143,54.739,37.617,91.703
 14:55:55.723,eb:33:2e:f9:57:b5, 2085-97-232 11:68:251:2751,1.315,-0.581,0.911,-535.461,-339.844,-45.41,47.488,36.167,88.539
 14:55:55.723,eb:33:2e:f9:57:b5, 2085-97-18 09:213:249:4342,0.926,-0.672,1.714,-535.4,-424.072,-28.564,39.919,33.497,84.831
 14:55:55.723,eb:33:2e:f9:57:b5, 2085-97-146 05:76:249:5660,0.456,-0.829,2.466,-543.213,-459.961,4.333,32.822,29.965,81.601
 14:55:55.723,eb:33:2e:f9:57:b5, 2085-97-147 01:119:249:6771,0.083,-0.826,3.031,-553.101,-462.952,52.063,26.125,25.664,79.233
 14:55:55.755,eb:33:2e:f9:57:b5, 2085-97-07 01:155:251:7588,0.239,-0.718,3.522,-550.659,-432.373,115.173,20.171,21.198,78.195
 14:55:55.755,eb:33:2e:f9:57:b5, 2085-97-239 02:42:00:6885,0.443,-0.296,3.639,-542.664,-384.644,154.48,14.617,16.782,78.256
 14:55:55.755,eb:33:2e:f9:57:b5, 2085-97-186 03:13:06:5722,0.413,0.373,3.023,-545.044,-368.286,159.363,9.393,12.821,79.074
 14:55:55.755,eb:33:2e:f9:57:b5, 2085-97-53 02:06:12:5935,0.052,1.144,2.756,-552.612,-405.457,133.118,3.966,8.685,80.068
 14:55:55.815,eb:33:2e:f9:57:b5, 2085-97-109 254:30:17:7223,-0.442,1.828,3.146,-552.795,-459.961,96.436,-1.45,4.296,81.167
 14:55:55.815,eb:33:2e:f9:57:b5, 2085-97-147 250:228:23:8715,-0.935,2.507,3.939,-537.231,-476.624,68.42,-6.987,-0.511,82.299
 14:55:55.815,eb:33:2e:f9:57:b5, 2085-97-139 246:92:33:8900,-1.425,3.559,4.372,-515.503,-436.279,48.584,-12.31,-4.927,83.688
 14:55:55.815,eb:33:2e:f9:57:b5, 2085-97-165 242:54:46:8835,-1.965,4.918,4.264,-490.295,-390.869,27.771,-17.611,-8.91,85.128
 14:55:55.845,eb:33:2e:f9:57:b5, 2085-97-92 237:111:60:10121,-2.717,6.683,4.547,-453.003,-365.234,-3.418,-22.593,-12.398,86.6
 14:55:55.845,eb:33:2e:f9:57:b5, 2085-97-195 230:178:72:10736,-3.555,8.406,5.301,-370.85,-349.915,-51.392,-27.12,-15.87,87.902
 14:55:55.845,eb:33:2e:f9:57:b5, 2085-97-231 224:157:73:9368,-4.125,9.321,4.913,-223.816,-328.064,-104.065,-30.35,-19.254,88.918
 14:55:55.845,eb:33:2e:f9:57:b5, 2085-97-99 222:225:68:8884,-4.101,8.964,4.38,-74.341,-245.544,-134.644,-31.959,-22.456,89.418
 14:55:55.874,eb:33:2e:f9:57:b5, 2085-97-83 224:184:60:7492,-3.783,8.179,4.136,24.719,-82.397,-151.367,-31.932,-24.593,89.061
 14:55:55.874,eb:33:2e:f9:57:b5, 2085-97-31 228:116:47:5040,-3.58,6.835,3.019,71.045,77.332,-145.874,-30.784,-25.373,87.578
 14:55:55.874,eb:33:2e:f9:57:b5, 2085-97-195 222:127:52:6654,-0.587,4.052,9.976,600.525,684.57,-44.678,-26.735,-24.445,85.193
 14:55:55.874,eb:33:2e:f9:57:b5, 2085-97-122 250:245:19:8119,-3.919,5.455,7.656,702.393,1402.893,-181.702,-16.908,-17.353,79.382
 14:55:55.934,eb:33:2e:f9:57:b5, 2085-97-146 09:66:06:6636,-3.262,4.216,8.235,578.003,706.909,-228.271,-9.174,-8.058,74.778
 14:55:55.934,eb:33:2e:f9:57:b5, 2085-97-16 209:07:255:-6969,-0.863,6.216,-5.177,171.692,250.671,-99.67,-6.048,-1.406,74.724
 14:55:55.934,eb:33:2e:f9:57:b5, 2085-97-40 228:15:245:-3058,-2.913,-1.179,-0.149,105.408,-20.264,74.768,-4.823,-0.764,74.784
 14:55:55.934,eb:33:2e:f9:57:b5, 2085-97-187 23:79:05:6340,3.518,0.988,-2.855,20.752,-346.497,160.828,-4.169,-1.873,76.119
 14:55:55.965,eb:33:2e:f9:57:b5, 2085-97-67 02:90:03:1253,-0.132,1.458,4.163,36.682,95.459,-2.991,-3.862,-3.724,77.124
 14:55:55.965,eb:33:2e:f9:57:b5, 2085-97-51 255:210:253:2309,-1.729,0.462,0.378,26.489,34.668,-42.053,-3.477,-3.06,76.855
 14:55:55.965,eb:33:2e:f9:57:b5, 2085-97-231 02:67:00:3797,1.217,-0.434,-0.313,22.095,-48.828,3.967,-3.263,-2.648,76.641
 14:55:55.965,eb:33:2e:f9:57:b5, 2085-97-135 255:201:00:1941,-0.637,0.309,2.63,32.654,118.469,-12.573,-2.867,-2.736,76.646
 14:55:55.995,eb:33:2e:f9:57:b5, 2085-97-157 249:253:254:605,0.396,-0.13,0.483,20.691,90.088,3.784,-2.576,-1.609,76.553
 14:55:55.995,eb:33:2e:f9:57:b5, 2085-97-129 11:00:05:4770,0.438,0.296,1.489,29.602,12.268,-0.916,-2.285,-1.406,76.668
 14:55:55.995,eb:33:2e:f9:57:b5, 2085-97-196 245:23:249:6921,-1.473,0.226,2.446,55.908,136.841,-55.542,-1.917,-0.401,76.355
 14:55:55.995,eb:33:2e:f9:57:b5, 2085-97-39 252:90:245:12800,-0.246,-1.346,6.005,232.605,52.612,-18.066,-0.302,-0.033,76.014
 14:55:56.054,eb:33:2e:f9:57:b5, 2085-97-77 254:215:245:8360,-0.044,-1.204,4.693,347.778,155.273,55.847,2.626,1.395,76.393
 14:55:56.054,eb:33:2e:f9:57:b5, 2085-97-180 02:144:242:11468,0.815,-1.423,4.928,472.473,129.822,70.679,6.872,2.582,77.151
 14:55:56.054,eb:33:2e:f9:57:b5, 2085-97-255 08:109:237:11144,1.652,-1.852,5.579,614.258,174.133,74.89,12.437,3.961,78.228
 14:55:56.054,eb:33:2e:f9:57:b5, 2085-97-160 16:42:234:11776,1.655,-2.768,5.635,777.832,252.502,55.786,19.6,5.735,79.475
 14:55:56.085,eb:33:2e:f9:57:b5, 2085-97-191 06:37:239:13234,0.659,-2.813,5.496,951.05,374.695,31.433,28.559,8.602,81.249
 14:55:56.085,eb:33:2e:f9:57:b5, 2085-97-28 04:193:01:19207,1.319,-0.579,8.477,1114.014,278.381,-18.433,39.331,11.448,83.331
 14:55:56.085,eb:33:2e:f9:57:b5, 2085-97-36 255:194:249:8067,-0.643,-0.987,8.521,1182.434,111.877,-94.543,51.235,13.074,83.842
 14:55:56.085,eb:33:2e:f9:57:b5, 2085-113-58 00:101:245:-6210,0.229,1.232,1.391,866.638,5.554,-107.239,61.573,14.183,84.018
 14:55:56.116,eb:33:2e:f9:57:b5, 2085-97-83 10:83:252:2335,0.707,1.434,1.057,648.987,-10.437,-158.813,65.143,14.733,83.622
 14:55:56.116,eb:33:2e:f9:57:b5, 2085-97-68 04:133:241:4555,0.605,-1.964,0.867,204.651,342.834,-131.287,69.28,16.848,84.628
 14:55:56.116,eb:33:2e:f9:57:b5, 2085-97-97 06:49:01:3769,1.474,-0.845,1.206,65.918,576.233,-49.011,72.004,19.215,89.396
 14:55:56.116,eb:33:2e:f9:57:b5, 2085-97-68 17:79:10:10144,2.389,0.596,4.026,19.836,473.022,-7.812,74.02,21.099,94.664
 14:55:56.174,eb:33:2e:f9:57:b5, 2085-97-03 16:30:04:7770,1.826,1.101,4.819,112.488,296.021,15.625,76.108,21.89,98.553
 14:55:56.174,eb:33:2e:f9:57:b5, 2085-97-62 14:177:251:6401,1.516,-0.081,3.208,165.1,130.554,-4.578,78.409,22.291,100.635
 14:55:56.174,eb:33:2e:f9:57:b5, 2085-97-79 09:105:247:6916,0.85,-0.809,3.127,127.808,47.058,-27.222,80.151,22.538,101.426
 14:55:56.174,eb:33:2e:f9:57:b5, 2085-97-84 05:179:241:8350,0.293,-1.426,3.772,51.147,14.343,-38.94,81.112,22.934,101.596
 14:55:56.204,eb:33:2e:f9:57:b5, 2085-97-171 02:93:238:6318,0.584,-2.212,3.709,-14.16,31.067,-25.024,81.222,23.22,101.799
 14:55:56.204,eb:33:2e:f9:57:b5, 2085-97-119 06:31:243:5662,0.771,-1.953,2.767,-37.354,-35.156,-26.001,80.931,23.45,101.722
 14:55:56.204,eb:33:2e:f9:57:b5, 2085-97-102 05:189:244:6557,0.685,-1.42,2.849,-56.641,-105.896,-60.303,79.986,23.687,100.778
 14:55:56.204,eb:33:2e:f9:57:b5, 2085-97-78 05:185:242:8743,0.62,-1.529,3.827,-59.021,-116.394,-101.379,78.799,24.291,99.261
 14:55:56.264,eb:33:2e:f9:57:b5, 2085-97-158 04:232:242:7820,0.625,-1.693,4.293,-40.344,-55.542,-134.338,77.701,25.219,98.015
 14:55:56.264,eb:33:2e:f9:57:b5, 2085-97-05 05:68:243:5614,0.423,-1.567,3.246,-37.048,-3.845,-158.203,77.064,26.614,97.322
 14:55:56.264,eb:33:2e:f9:57:b5, 2085-97-158 02:180:239:4197,0.267,-1.755,2.244,-56.213,-2.991,-167.053,76.295,28.152,96.877
 14:55:56.264,eb:33:2e:f9:57:b5, 2085-97-51 02:202:234:3549,0.355,-2.393,1.915,-88.501,-46.387,-159.18,75.207,29.685,96.075
 14:55:56.293,eb:33:2e:f9:57:b5, 2085-97-198 03:05:236:2641,0.619,-2.693,1.481,-163.574,-76.477,-127.93,73.246,30.828,94.812
 14:55:56.293,eb:33:2e:f9:57:b5, 2085-97-222 05:03:238:1428,0.853,-2.405,1.034,-268.372,-71.045,-91.553,70.417,31.635,93.532
 14:55:56.293,eb:33:2e:f9:57:b5, 2085-97-70 08:117:240:-002,1.193,-2.097,0.353,-383.301,-72.205,-53.528,66.396,31.97,92.357
 14:55:56.293,eb:33:2e:f9:57:b5, 2085-97-42 10:210:243:-1334,1.319,-1.727,-0.369,-496.887,-103.577,-23.743,61.353,31.915,91.208
 14:55:56.325,eb:33:2e:f9:57:b5, 2085-97-93 11:255:244:205,1.475,-1.468,-0.442,-568.726,-212.83,-12.329,54.915,31.146,89.44
 14:55:56.325,eb:33:2e:f9:57:b5, 2085-97-126 11:224:246:2751,1.158,-1.253,0.805,-580.627,-343.445,1.465,47.802,29.399,86.83
 14:55:56.325,eb:33:2e:f9:57:b5, 2085-97-14 251:14:239:-2604,2.474,-1.271,1.711,-590.515,-401.672,35.522,40.496,26.351,83.738
 14:55:56.325,eb:33:2e:f9:57:b5, 2085-97-16 12:05:253:7634,0.457,-2.21,5.789,-572.266,-479.126,88.013,33.492,22.104,81.041
 14:55:56.354,eb:33:2e:f9:57:b5, 2085-97-233 01:174:249:8321,0.216,-0.669,3.409,-557.068,-520.752,92.041,27.054,17.309,79.118
 14:55:56.354,eb:33:2e:f9:57:b5, 2085-97-170 02:23:250:8879,0.327,-0.813,4.237,-538.452,-474.121,126.831,21.352,12.294,78.036
 14:55:56.354,eb:33:2e:f9:57:b5, 2085-97-75 03:58:253:8545,0.486,-0.587,4.225,-553.528,-390.381,154.114,15.765,7.674,77.981
 14:55:56.354,eb:33:2e:f9:57:b5, 2085-97-08 04:15:04:7639,0.423,0.032,3.974,-576.172,-319.824,150.269,10.179,3.944,78.772
 14:55:56.444,eb:33:2e:f9:57:b5, 2085-97-72 02:187:11:6615,0.062,1.012,3.435,-594.116,-331.177,114.014,4.219,0.511,79.651
 14:55:56.444,eb:33:2e:f9:57:b5, 2085-97-86 254:80:17:7227,-0.517,1.831,3.236,-594.116,-418.457,72.449,-1.752,-3.268,80.535
 14:55:56.444,eb:33:2e:f9:57:b5, 2085-97-51 249:88:24:9015,-1.141,2.552,3.986,-580.444,-472.473,59.814,-7.85,-7.861,81.535
 14:55:56.444,eb:33:2e:f9:57:b5, 2085-97-66 244:167:34:9423,-1.649,3.648,4.624,-564.819,-436.218,65.857,-13.832,-12.255,83.095
 14:55:56.446,eb:33:2e:f9:57:b5, 2085-97-119 241:156:47:9662,-1.993,5.082,4.578,-549.744,-375.977,67.993,-19.973,-16.007,84.968
 14:55:56.446,eb:33:2e:f9:57:b5, 2085-97-205 236:228:64:11433,-2.923,6.918,5.146,-517.578,-320.618,52.612,-25.928,-18.946,87.023
 14:55:56.446,eb:33:2e:f9:57:b5, 2085-97-07 229:165:76:10412,-3.594,8.988,5.55,-392.7,-297.485,11.536,-31.229,-21.533,88.868
 14:55:56.446,eb:33:2e:f9:57:b5, 2085-97-245 226:44:78:8600,-3.582,9.78,4.508,-181.946,-312.195,-23.56,-34.7,-24.164,90.659
 14:55:56.565,eb:33:2e:f9:57:b5, 2085-97-24 228:200:75:8699,-3.407,9.65,4.287,-6.409,-256.775,-47.668,-36.194,-26.818,92.225
 14:55:56.565,eb:33:2e:f9:57:b5, 2085-97-245 228:181:65:6449,-3.274,8.982,3.831,72.632,-93.018,-69.519,-36.024,-28.592,92.884
 14:55:56.565,eb:33:2e:f9:57:b5, 2085-97-227 230:169:51:4108,-2.963,7.376,2.479,112.915,52.673,-51.453,-34.832,-29.059,92.335
 14:55:56.565,eb:33:2e:f9:57:b5, 2085-97-190 234:98:35:2346,3.99,5.543,1.61,207.947,68.115,-1.892,-32.91,-28.603,91.697
 14:55:56.565,eb:33:2e:f9:57:b5, 2085-97-125 234:180:55:-3729,2.481,6.748,8.64,871.521,239.502,-186.218,-28.477,-28.823,91.252
 14:55:56.565,eb:33:2e:f9:57:b5, 2085-97-179 39:221:71:14360,-0.302,-1.167,9.607,877.258,750.183,-319.946,-15.524,-25.071,85.798
 14:55:56.566,eb:33:2e:f9:57:b5, 2085-97-55 19:06:37:-2645,-8.919,-1.554,9.092,302.124,875.61,32.41,-7.641,-16.815,79.656
 14:55:56.566,eb:33:2e:f9:57:b5, 2085-97-176 201:125:228:-9762,-3.547,-1.52,-1.347,139.221,546.387,-126.77,-6.542,-9.487,80.607
 14:55:56.568,eb:33:2e:f9:57:b5, 2085-97-29 243:196:255:-2117,-1.909,-1.522,-1.62,97.717,-106.567,83.008,-5.295,-8.41,80.524
 14:55:56.568,eb:33:2e:f9:57:b5, 2085-97-02 19:186:05:5901,4.016,-0.51,-1.267,39.124,-309.875,168.152,-5.164,-9.772,82.332
 14:55:56.568,eb:33:2e:f9:57:b5, 2085-97-173 06:12:07:1425,-0.471,1.798,4.208,34.668,140.198,1.404,-4.845,-11.036,83.386
 14:55:56.569,eb:33:2e:f9:57:b5, 2085-97-61 242:123:250:-648,-1.175,0.035,0.192,24.841,110.168,-66.467,-4.438,-9.613,82.798
 14:55:56.713,eb:33:2e:f9:57:b5, 2085-97-65 02:95:255:4128,-0.159,-0.45,0.47,21.423,-58.899,18.86,-4.202,-9.41,82.672
 14:55:56.713,eb:33:2e:f9:57:b5, 2085-97-60 07:172:02:4632,1.28,0.08,1.086,7.446,38.635,37.598,-4.125,-9.157,83.057
 14:55:56.713,eb:33:2e:f9:57:b5, 2085-97-75 08:11:07:381,-0.953,0.593,1.925,15.93,146.362,-4.333,-3.845,-8.405,83.123
 14:55:56.713,eb:33:2e:f9:57:b5, 2085-97-136 236:142:244:9184,-1.221,-0.521,2.67,43.64,101.013,-45.288,-3.658,-7.339,82.755
 14:55:56.715,eb:33:2e:f9:57:b5, 2085-97-160 03:150:248:13611,0.288,-1.095,6.088,273.254,-17.639,-34.668,-1.868,-7.306,82.452
 14:55:56.715,eb:33:2e:f9:57:b5, 2085-97-14 255:248:247:6361,0,-1.279,4.605,346.985,213.013,36.682,1.346,-5.949,82.419
 14:55:56.715,eb:33:2e:f9:57:b5, 2085-97-233 01:130:245:10977,0.574,-1.025,3.848,428.589,132.935,69.824,5.213,-4.312,83.161
 14:55:56.715,eb:33:2e:f9:57:b5, 2085-97-108 04:216:237:10512,1.003,-1.729,5.678,548.34,168.701,71.655,10.129,-3.01,84.089
 14:55:56.717,eb:33:2e:f9:57:b5, 2085-97-64 11:110:234:10320,1.684,-2.588,5.012,685.181,221.558,75.439,16.364,-1.395,85.303
 14:55:56.717,eb:33:2e:f9:57:b5, 2085-97-161 10:198:238:11207,0.506,-2.381,5.08,827.148,317.444,46.143,23.972,0.956,86.929
 14:55:56.717,eb:33:2e:f9:57:b5, 2085-97-82 06:247:247:13825,1.093,-1.75,6.007,959.351,362.671,0.793,33.085,3.994,88.846
 14:55:56.717,eb:33:2e:f9:57:b5, 2085-97-188 05:212:249:11467,-0.448,-0.145,6.246,1037.537,210.754,-50.171,43.347,6.449,90.445
 14:55:56.720,eb:33:2e:f9:57:b5, 2085-97-10 249:66:07:4099,-0.24,-0.056,3.594,952.82,133.789,-66.223,53.58,7.96,91.357
 14:55:56.720,eb:33:2e:f9:57:b5, 2085-97-129 06:33:05:3508,1.037,0.795,1.624,608.765,76.233,-105.042,61.381,9.19,91.631
 14:55:56.720,eb:33:2e:f9:57:b5, 2085-97-28 06:241:255:6935,0.89,0.326,2.155,258.484,258.301,-175.781,65.451,11.14,92.488
 14:55:56.720,eb:33:2e:f9:57:b5, 2085-97-192 08:148:04:5067,1.443,0.513,1.76,138.123,401.489,-201.66,67.989,14.277,95.147
 14:55:56.777,eb:33:2e:f9:57:b5, 2085-97-93 11:197:01:9416,1.397,0.452,4.009,89.783,324.463,-180.542,69.648,17.38,97.91
 14:55:56.777,eb:33:2e:f9:57:b5, 2085-97-29 10:194:250:8678,1.103,-0.182,4.692,168.03,200.256,-133.667,71.587,19.693,99.816
 14:55:56.777,eb:33:2e:f9:57:b5, 2085-97-76 07:231:246:6318,0.748,-0.997,3.59,213.318,103.76,-77.82,73.943,21.077,100.97
 14:55:56.777,eb:33:2e:f9:57:b5, 2085-97-137 04:223:245:6914,0.412,-1.18,3.037,191.956,14.526,-26.428,76.152,21.693,101.316
 14:55:56.835,eb:33:2e:f9:57:b5, 2085-97-228 01:237:242:9183,0.098,-1.411,3.958,141.968,-16.235,20.081,77.712,21.638,101.195
 14:55:56.835,eb:33:2e:f9:57:b5, 2085-97-65 255:224:239:7493,0.26,-1.803,4.445,100.22,18.005,68.726,78.926,21.176,101.261
 14:55:56.835,eb:33:2e:f9:57:b5, 2085-97-153 04:01:242:6257,0.721,-1.94,3.319,76.843,17.822,102.295,79.86,20.281,101.596
 14:55:56.836,eb:33:2e:f9:57:b5, 2085-97-93 06:181:244:5908,0.746,-1.527,2.859,51.147,-10.071,97.473,80.563,19.27,101.777
 14:55:56.866,eb:33:2e:f9:57:b5, 2085-97-156 04:99:242:6289,0.36,-1.488,3.003,38.208,-58.838,62.805,80.826,18.391,101.503
 14:55:56.866,eb:33:2e:f9:57:b5, 2085-97-106 01:182:237:6557,0.083,-1.96,3.123,31.738,-131.592,28.259,80.892,17.814,100.508
 14:55:56.866,eb:33:2e:f9:57:b5, 2085-97-87 00:145:232:6196,0.039,-2.645,3.198,-3.113,-161.316,11.902,80.48,17.358,98.888
 14:55:56.866,eb:33:2e:f9:57:b5, 2085-97-218 00:188:230:4343,0.173,-3.117,2.603,-78.613,-129.517,24.109,79.634,16.946,97.361
 14:55:56.894,eb:33:2e:f9:57:b5, 2085-97-92 02:02:232:1745,0.557,-3.115,1.568,-182.007,-80.872,54.993,77.91,16.326,96.334
 14:55:56.894,eb:33:2e:f9:57:b5, 2085-97-78 08:157:237:-1068,1.417,-2.744,0.105,-303.223,-49.927,86.792,75.306,15.458,95.845
 14:55:56.894,eb:33:2e:f9:57:b5, 2085-97-46 12:170:241:-2845,1.632,-1.912,-1.132,-418.274,-70.496,71.472,71.444,14.474,95.482
 14:55:56.894,eb:33:2e:f9:57:b5, 2085-97-214 13:183:242:-566,1.782,-1.788,-0.928,-483.398,-194.031,27.954,66.577,13.53,94.301
 14:55:56.895,eb:33:2e:f9:57:b5, 2085-113-81 00:76:81:9335,1.704,-1.424,0.423,-501.038,-319.031,-17.09,60.985,12.277,91.802
 14:55:56.925,eb:33:2e:f9:57:b5, 2085-97-218 11:99:247:3062,1.228,-1.192,1.024,-510.193,-360.901,-36.438,58.123,11.53,90.203
 14:55:56.925,eb:33:2e:f9:57:b5, 2085-97-43 08:57:247:4925,0.867,-1.075,1.944,-533.691,-413.269,-65.979,52.13,9.662,86.561
 14:55:56.925,eb:33:2e:f9:57:b5, 2085-97-231 05:77:247:6681,0.588,-1.093,2.845,-554.016,-433.838,-81.604,46.115,7.443,82.798
 14:55:56.925,eb:33:2e:f9:57:b5, 2085-97-110 03:249:246:7924,0.235,-1.097,3.605,-570.007,-436.707,-87.402,39.99,4.763,79.124
 14:55:57.224,eb:33:2e:f9:57:b5, 2085-97-50 00:32:246:8478,-0.135,-1.193,4.04,-584.473,-428.711,-77.332,34.019,1.807,75.85
 14:55:57.224,eb:33:2e:f9:57:b5, 2085-97-186 254:136:247:8774,-0.119,-1.189,4.219,-594.482,-412.292,-45.593,27.999,-1.549,73.114
 14:55:57.224,eb:33:2e:f9:57:b5, 2085-97-36 255:46:252:8438,-0.124,-0.815,4.282,-593.018,-397.949,-18.921,22.159,-5.076,71.131
 14:55:57.224,eb:33:2e:f9:57:b5, 2085-97-48 254:136:02:7555,-0.477,-0.081,3.913,-582.336,-415.894,-6.592,16.348,-8.943,69.648
 14:55:57.228,eb:33:2e:f9:57:b5, 2085-97-44 249:151:06:7172,-1.206,0.625,3.527,-569.519,-479.919,3.479,10.8,-13.288,68.566
 14:55:57.228,eb:33:2e:f9:57:b5, 2085-97-85 243:10:12:8767,-2.002,1.068,3.778,-562.805,-543.884,33.691,5.186,-18.539,67.989
 14:55:57.228,eb:33:2e:f9:57:b5, 2085-97-192 236:183:24:11015,-2.761,2.19,4.839,-554.26,-544.495,78.43,-0.555,-24.038,68.379
 14:55:57.228,eb:33:2e:f9:57:b5, 2085-97-119 231:167:39:11553,-3.272,4.05,5.651,-526.611,-490.967,105.835,-6.713,-29.235,69.813
 14:55:57.254,eb:33:2e:f9:57:b5, 2085-97-146 228:99:53:11007,-3.749,5.784,5.518,-502.808,-401.062,102.783,-12.942,-33.415,71.993
 14:55:57.254,eb:33:2e:f9:57:b5, 2085-97-43 222:177:65:10666,-4.85,7.542,5.292,-457.947,-360.413,66.65,-19.16,-36.799,74.268
 14:55:57.254,eb:33:2e:f9:57:b5, 2085-97-03 213:51:69:10114,-5.659,8.573,5.05,-336.914,-365.295,26.489,-24.532,-40.018,76.503
 14:55:57.254,eb:33:2e:f9:57:b5, 2085-97-18 212:100:68:9977,-4.927,8.628,4.903,-182.983,-274.841,21.606,-28.559,-42.88,78.723
 14:55:57.315,eb:33:2e:f9:57:b5, 2085-97-128 223:00:68:8185,-3.219,8.516,4.597,-71.655,-44.922,19.531,-30.641,-44.121,80.057
 14:55:57.315,eb:33:2e:f9:57:b5, 2085-97-96 235:105:63:4564,-2.271,8.362,3.114,-2.991,151.245,-20.264,-30.613,-43.478,79.525
 14:55:57.315,eb:33:2e:f9:57:b5, 2085-97-133 239:212:50:1405,-2.054,7.284,1.354,111.328,169.312,-76.599,-28.845,-42.177,77.695
 14:55:57.315,eb:33:2e:f9:57:b5, 2085-97-171 252:31:29:4477,-4.187,5.063,0.251,271.912,21.362,-114.99,-25.593,-41.825,75.877
 14:55:57.344,eb:33:2e:f9:57:b5, 2085-97-47 38:28:22:7192,6.411,-0.046,4.578,936.951,441.223,-173.584,-17.781,-41.852,73.087
 14:55:57.344,eb:33:2e:f9:57:b5, 2085-97-167 09:157:13:19954,3.69,6.856,7.368,277.283,1274.841,-407.654,-6.866,-34.777,66.643
 14:55:57.344,eb:33:2e:f9:57:b5, 2085-97-235 218:57:43:-9415,-5.905,1.603,4.198,97.229,1377.441,171.021,-4.191,-21.857,64.166
 14:55:57.344,eb:33:2e:f9:57:b5, 2085-97-93 219:149:237:-5671,-6.689,-3.284,-2.301,100.22,526.062,-41.382,-3.499,-14.222,63.578
 14:55:57.347,eb:33:2e:f9:57:b5, 2085-97-49 253:83:04:1549,0.207,-1.278,-5.597,93.811,-176.025,109.68,-2.411,-12.393,63.798
 14:55:57.347,eb:33:2e:f9:57:b5, 2085-97-36 04:36:246:10944,0.419,-0.9,4.804,413.086,-22.827,39.429,6.68,-13.041,66.885
 14:55:57.347,eb:33:2e:f9:57:b5, 2085-97-16 04:85:242:9246,0.817,-1.543,4.977,532.41,57.312,53.345,11.338,-12.865,67.418
 14:55:57.347,eb:33:2e:f9:57:b5, 2085-97-98 07:75:238:9116,0.839,-2.043,4.729,663.452,100.403,46.936,17.281,-12.222,68.099
 14:55:57.349,eb:33:2e:f9:57:b5, 2085-97-87 04:17:237:9455,0.355,-2.51,4.383,777.222,178.284,36.194,24.384,-11.069,68.978
 14:55:57.349,eb:33:2e:f9:57:b5, 2085-97-95 00:79:245:11841,0.229,-1.962,5.404,875.488,320.129,24.658,32.481,-8.965,70.466
 14:55:57.349,eb:33:2e:f9:57:b5, 2085-97-254 01:83:246:16507,-0.168,-1.12,7.35,1006.226,245.544,-30.518,41.66,-6.619,72.219
 14:55:57.349,eb:33:2e:f9:57:b5, 2085-97-234 249:101:244:8623,-0.847,-1.667,6.802,1012.939,254.456,-34.973,51.844,-4.592,73.614
 14:55:57.349,eb:33:2e:f9:57:b5, 2085-97-236 251:231:08:2914,0.342,0.526,1.22,815.308,125.854,21.667,60.919,-3.4,75.377
 14:55:57.349,eb:33:2e:f9:57:b5, 2085-97-67 14:27:251:2344,2.438,0.245,2.265,577.637,70.251,-3.418,67.769,-3.301,75.948
 14:55:57.349,eb:33:2e:f9:57:b5, 2085-97-58 15:189:254:4680,1.555,0.27,1.323,229.187,261.353,-141.357,71.422,-2.098,77.239
 14:55:57.349,eb:33:2e:f9:57:b5, 2085-97-149 10:229:03:3295,1.269,0.272,1.284,38.879,406.738,-241.15,72.603,0.923,80.096
 14:55:57.375,eb:33:2e:f9:57:b5, 2085-97-208 08:132:05:7697,0.93,0.687,2.638,-69.275,327.942,-276.001,72.394,4.587,82.787
 14:55:57.375,eb:33:2e:f9:57:b5, 2085-97-123 06:174:02:10657,0.802,0.503,4.701,-36.743,247.864,-278.259,71.977,8.108,84.534
 14:55:57.375,eb:33:2e:f9:57:b5, 2085-97-196 07:211:252:10166,1.069,0.024,5.308,36.743,240.173,-264.893,72.268,11.437,85.946
 14:55:57.375,eb:33:2e:f9:57:b5, 2085-97-138 08:99:250:7442,1.256,-0.575,4.35,74.89,240.356,-238.464,73.224,14.562,87.517
 14:55:57.435,eb:33:2e:f9:57:b5, 2085-97-149 10:186:248:6535,1.352,-0.823,3.413,75.745,186.218,-220.642,74.405,17.347,88.912
 14:55:57.435,eb:33:2e:f9:57:b5, 2085-97-173 10:248:244:6514,1.333,-1.102,3.137,47.607,126.831,-209.656,75.262,19.836,89.802
 14:55:57.435,eb:33:2e:f9:57:b5, 2085-113-81 00:139:80:10425,1.32,-1.608,3.265,28.381,98.755,-193.237,75.828,22.055,90.341
 14:55:57.435,eb:33:2e:f9:57:b5, 2085-97-98 10:57:240:6464,1.202,-1.832,3.235,27.71,87.219,-178.955,76.058,23.066,90.588
 14:55:57.494,eb:33:2e:f9:57:b5, 2085-97-181 06:31:237:5249,0.518,-2.162,2.987,39.551,54.749,-145.264,76.459,24.824,90.857
 14:55:57.496,eb:33:2e:f9:57:b5, 2085-97-238 04:201:234:5455,0.453,-2.45,2.195,44.617,-49.866,-108.337,76.767,26.016,90.461
 14:55:57.496,eb:33:2e:f9:57:b5, 2085-97-216 02:50:232:4600,0.328,-2.843,2.524,-5.493,-97.9,-57.373,76.426,26.625,89.341
 14:55:57.496,eb:33:2e:f9:57:b5, 2085-97-107 03:07:232:3130,0.61,-3.021,1.901,-96.68,-123.108,-4.333,75.306,26.636,87.962
 14:55:57.496,eb:33:2e:f9:57:b5, 2085-97-38 06:11:234:1487,1.098,-2.888,1.143,-214.661,-112.732,57.983,73.065,26.027,86.633
 14:55:57.496,eb:33:2e:f9:57:b5, 2085-97-161 12:130:239:093,1.814,-2.465,0.363,-346.191,-67.383,111.389,69.922,24.901,85.957
 14:55:57.497,eb:33:2e:f9:57:b5, 2085-97-114 16:238:242:-705,2.356,-1.821,-0.281,-465.759,-61.401,128.906,65.616,23.549,85.814
 14:55:57.497,eb:33:2e:f9:57:b5, 2085-97-219 20:200:247:-438,2.757,-1.365,-0.289,-506.592,-149.231,104.187,60.518,22.011,85.32
 14:55:57.585,eb:33:2e:f9:57:b5, 2085-97-130 21:100:252:1025,2.49,-0.688,0.057,-515.137,-283.752,47.668,54.734,20.176,83.622
 14:55:57.585,eb:33:2e:f9:57:b5, 2085-97-91 18:94:253:3546,2.115,-0.356,1.083,-533.142,-384.827,-18.982,48.582,17.946,80.837
 14:55:57.585,eb:33:2e:f9:57:b5, 2085-97-169 15:225:253:6000,1.809,-0.31,2.366,-549.255,-425.171,-78.491,42.061,15.403,77.294
 14:55:57.585,eb:33:2e:f9:57:b5, 2085-97-245 12:24:255:7156,1.458,-0.188,3.294,-547.18,-427.917,-130.859,35.678,12.755,73.663
 14:55:57.585,eb:33:2e:f9:57:b5, 2085-97-199 09:134:255:7120,1.093,-0.036,3.591,-528.32,-434.814,-180.542,29.465,9.932,69.846
 14:55:57.585,eb:33:2e:f9:57:b5, 2085-97-224 07:36:254:7599,0.737,-0.124,3.462,-514.221,-463.806,-219.971,23.708,6.795,65.973
 14:55:57.585,eb:33:2e:f9:57:b5, 2085-97-201 02:82:251:7401,0.036,-0.343,3.684,-511.292,-476.929,-235.718,18.155,3.17,62.051
 14:55:57.585,eb:33:2e:f9:57:b5, 2085-97-31 254:102:250:7799,-0.581,-0.7,3.666,-511.841,-492.065,-218.811,12.958,-0.895,58.541
 14:55:57.885,eb:33:2e:f9:57:b5, 2085-97-180 247:233:251:7823,-1.475,-0.602,3.814,-514.893,-501.77,-169.861,7.877,-5.482,55.679
 14:55:57.885,eb:33:2e:f9:57:b5, 2085-97-220 240:77:253:8165,-2.19,-0.416,3.869,-511.963,-538.757,-89.722,2.972,-10.547,53.893
 14:55:57.885,eb:33:2e:f9:57:b5, 2085-97-05 237:232:01:9204,-2.468,-0.167,4.236,-486.389,-560.974,20.752,-2.054,-16.15,53.492
 14:55:57.885,eb:33:2e:f9:57:b5, 2085-97-237 235:94:13:9897,-2.54,0.884,4.686,-436.279,-560.425,135.864,-7.114,-21.649,54.871
 14:55:57.915,eb:33:2e:f9:57:b5, 2085-97-47 235:135:25:10655,-2.761,2.494,4.99,-393.188,-575.684,223.938,-12.607,-26.971,57.942
 14:55:57.915,eb:33:2e:f9:57:b5, 2085-97-208 231:184:32:11817,-3.294,3.718,5.451,-390.747,-560.547,282.288,-18.77,-31.783,62.567
 14:55:57.915,eb:33:2e:f9:57:b5, 2085-97-230 227:73:39:13186,-3.801,4.366,6.176,-404.297,-449.28,330.505,-26.054,-35.349,68.302
 14:55:57.915,eb:33:2e:f9:57:b5, 2085-97-210 225:229:56:12913,-3.288,5.972,6.513,-358.398,-238.647,367.615,-33.426,-36.562,74.18
 14:55:57.944,eb:33:2e:f9:57:b5, 2085-97-152 236:250:72:9945,-1.512,8.155,5.805,-224.548,-27.344,343.079,-39.012,-35.425,78.64
 14:55:57.944,eb:33:2e:f9:57:b5, 2085-97-177 248:17:78:4536,-0.854,9.723,3.564,-94.788,105.652,247.986,-41.781,-33.052,80.969
 14:55:57.944,eb:33:2e:f9:57:b5, 2085-97-85 247:84:65:1034,-1.345,9.065,1.094,-3.54,45.166,123.962,-42.687,-31.207,81.832
