Time,Device name,Chip Time(),Acceleration X(g),Acceleration Y(g),Acceleration Z(g),Angular velocity X(°/s),Angular velocity Y(°/s),Angular velocity Z(°/s),Angle X(°),Angle Y(°),Angle Z(°)
 14:52:01.592,eb:33:2e:f9:57:b5, 2085-97-77 16:150:247:6033,1.209,0.478,1.102,262.939,-425.415,-39.001,90.291,12.041,65.132
 14:52:01.592,eb:33:2e:f9:57:b5, 2085-97-210 05:215:230:9972,0.317,-2.27,4.218,46.814,-458.984,-248.657,90.637,13.782,60.447
 14:52:01.592,eb:33:2e:f9:57:b5, 2085-97-35 00:04:221:10098,-0.102,-3.883,5.104,-116.272,-357.605,-313.416,89.022,16.71,56.179
 14:52:01.592,eb:33:2e:f9:57:b5, 2085-97-119 255:42:218:7944,0.038,-4.652,4.528,-218.445,-194.824,-290.649,86.298,19.66,53.218
 14:52:02.012,eb:33:2e:f9:57:b5, 2085-97-52 01:03:222:4288,0.396,-4.57,2.989,-328.064,-47.18,-220.764,83.046,22.094,51.828
 14:52:02.012,eb:33:2e:f9:57:b5, 2085-97-128 05:86:227:2008,1.007,-3.896,1.449,-456.848,26.062,-156.555,78.865,23.895,51.476
 14:52:02.012,eb:33:2e:f9:57:b5, 2085-97-114 10:210:230:930,1.552,-3.347,0.683,-572.205,64.758,-108.643,73.718,25.269,51.685
 14:52:02.012,eb:33:2e:f9:57:b5, 2085-97-58 14:71:234:527,1.94,-2.944,0.298,-635.376,55.847,-76.172,67.687,26.318,52.009
 14:52:02.015,eb:33:2e:f9:57:b5, 2085-97-130 16:244:237:202,2.076,-2.463,0.189,-651.917,-5.188,-49.438,61.21,26.982,52.004
 14:52:02.015,eb:33:2e:f9:57:b5, 2085-97-164 15:230:238:-390,1.772,-2.144,-0.027,-641.235,-135.498,-18.86,54.272,26.867,51.092
 14:52:02.015,eb:33:2e:f9:57:b5, 2085-97-231 12:55:235:723,1.539,-2.327,-0.115,-628.906,-315.613,39.124,47.087,25.302,49.153
 14:52:02.015,eb:33:2e:f9:57:b5, 2085-97-187 12:255:235:3166,1.703,-2.707,0.973,-636.108,-429.688,139.282,39.831,21.835,46.95
 14:52:02.017,eb:33:2e:f9:57:b5, 2085-97-161 14:134:246:4806,1.858,-1.986,2.007,-637.512,-455.933,238.037,33.047,17.062,45.813
 14:52:02.017,eb:33:2e:f9:57:b5, 2085-97-145 13:150:06:4720,1.284,-0.212,2.44,-603.943,-468.872,264.221,26.752,11.761,45.742
 14:52:02.017,eb:33:2e:f9:57:b5, 2085-97-24 06:173:18:4622,0.31,1.71,2.157,-551.636,-536.438,211.792,21.022,6.185,45.917
 14:52:02.017,eb:33:2e:f9:57:b5, 2085-97-221 254:72:22:6171,-0.669,2.606,2.694,-507.751,-566.895,119.995,15.699,0.28,45.654
 14:52:02.194,eb:33:2e:f9:57:b5, 2085-97-154 244:193:28:6614,-1.471,3.043,3.252,-506.531,-460.876,48.096,10.679,-4.944,45.22
 14:52:02.194,eb:33:2e:f9:57:b5, 2085-97-227 244:106:222:8147,-1.116,-4.093,4.571,-111.938,14.221,-148.865,80.596,6.141,55.992
 14:52:02.194,eb:33:2e:f9:57:b5, 2085-97-01 250:161:223:6118,-0.269,-4.161,3.491,-191.711,115.417,-113.403,79.107,7.542,56.464
 14:52:02.194,eb:33:2e:f9:57:b5, 2085-97-102 02:19:228:4215,0.734,-3.82,2.508,-288.635,204.956,-89.294,76.789,8.849,57.903
 14:52:02.311,eb:33:2e:f9:57:b5, 2085-97-241 08:128:235:890,1.478,-3.059,1.345,-398.865,265.686,-94.482,73.663,10.327,60.073
 14:52:02.312,eb:33:2e:f9:57:b5, 2085-97-156 14:206:242:-1845,2.05,-2.072,-0.378,-511.78,236.389,-145.02,69.368,12.266,62.15
 14:52:02.312,eb:33:2e:f9:57:b5, 2085-97-96 17:232:244:-1929,2.159,-1.411,-1.162,-616.028,153.992,-227.356,63.902,14.76,63.232
 14:52:02.312,eb:33:2e:f9:57:b5, 2085-97-105 16:124:243:-282,1.916,-1.48,-0.515,-657.227,2.869,-309.753,57.151,17.507,62.479
 14:52:02.522,eb:33:2e:f9:57:b5, 2085-97-170 13:246:241:1187,0.86,-1.619,0.177,-652.954,-170.166,-362.122,49.653,19.682,59.546
 14:52:02.522,eb:33:2e:f9:57:b5, 2085-97-14 04:110:217:-249,-0.775,0.198,1.24,486.511,86.243,-115.845,77.305,9.937,40.435
 14:52:02.522,eb:33:2e:f9:57:b5, 2085-113-81 00:63:162:-18588,-0.107,-5.005,3.315,41.87,488.403,134.521,79.684,10.508,43.193
 14:52:02.522,eb:33:2e:f9:57:b5, 2085-97-06 04:176:247:7146,1.826,-2.494,2.266,-29.48,595.764,181.213,80.244,10.129,46.198
 14:52:02.525,eb:33:2e:f9:57:b5, 2085-97-168 18:114:05:17137,3.072,-0.434,7.164,-119.263,542.297,209.351,80.079,9.25,52.278
 14:52:02.525,eb:33:2e:f9:57:b5, 2085-97-37 24:79:251:10635,2.894,0.316,7.775,59.692,313.477,195.618,80.497,7.96,56.755
 14:52:02.525,eb:33:2e:f9:57:b5, 2085-97-27 23:143:251:2927,2.471,-0.948,2.796,212.097,57.312,99.915,82.277,6.801,58.766
 14:52:02.525,eb:33:2e:f9:57:b5, 2085-97-08 14:178:249:4018,0.874,-0.46,1.162,170.776,-207.703,-78.247,84.188,6.636,57.849
 14:52:02.734,eb:33:2e:f9:57:b5, 2085-97-225 02:79:237:10094,-0.119,-1.605,3.652,40.771,-343.628,-254.15,84.765,8.141,54.684
 14:52:02.734,eb:33:2e:f9:57:b5, 2085-97-23 11:221:242:1681,1.207,-2.977,5.735,-38.818,-291.138,-302.551,84.1,10.701,51.108
 14:52:02.734,eb:33:2e:f9:57:b5, 2085-97-00 08:08:243:2910,0.814,-1.604,1.166,-655.029,-257.812,-148.499,47.214,26.279,45.439
 14:52:02.734,eb:33:2e:f9:57:b5, 2085-97-116 05:154:241:4534,0.476,-1.704,1.781,-646.362,-350.708,-113.159,39.238,24.895,42.028
 14:52:02.762,eb:33:2e:f9:57:b5, 2085-97-55 02:195:240:6281,0.188,-1.882,2.634,-656.433,-393.433,-59.692,31.371,22.28,38.826
 14:52:02.762,eb:33:2e:f9:57:b5, 2085-97-67 224:185:71:12564,-4.285,-1.762,3.526,-678.772,-373.84,-0.916,23.912,18.968,36.639
 14:52:02.762,eb:33:2e:f9:57:b5, 2085-97-223 220:247:79:12892,-4.304,9.518,6.419,-110.718,-326.05,89.905,-22.165,-17.721,41.495
 14:52:02.762,eb:33:2e:f9:57:b5, 2085-97-150 224:103:89:11565,-3.305,10.577,6.046,-44.922,-159.058,67.505,-23.423,-19.589,43.198
 14:52:02.764,eb:33:2e:f9:57:b5, 2085-97-120 234:72:93:7909,-2.329,11.623,4.786,-2.014,12.817,-16.724,-23.879,-20.023,43.693
 14:52:02.764,eb:33:2e:f9:57:b5, 2085-97-87 238:249:81:5537,-2.4,11.244,3.133,103.333,78.918,-142.334,-23.027,-19.819,42.55
 14:52:02.764,eb:33:2e:f9:57:b5, 2085-97-09 235:117:59:4407,3.383,8.879,2.385,245.3,93.506,-223.45,-20.457,-19.72,40.248
 14:52:02.764,eb:33:2e:f9:57:b5, 2085-97-27 244:117:71:1678,1.624,9.362,10.097,745.056,461.67,-297.058,-15.161,-19.709,37.238
 14:52:02.768,eb:33:2e:f9:57:b5, 2085-97-79 37:145:52:7574,5.919,1.273,7.177,782.593,1017.334,-602.051,-3.735,-15.661,30.976
 14:52:02.768,eb:33:2e:f9:57:b5, 2085-97-112 17:148:234:9608,2.061,5.249,2.306,31.372,334.9,-88.135,0.807,-7.998,26.06
 14:52:02.768,eb:33:2e:f9:57:b5, 2085-97-90 10:152:231:10809,0.257,-2.971,5.027,875.305,427.246,-18.799,31.377,4.57,33.651
 14:52:02.768,eb:33:2e:f9:57:b5, 2085-97-100 00:191:248:14332,0.164,-2.744,5.641,963.867,517.883,18.127,41.034,8.641,36.573
 14:52:02.769,eb:33:2e:f9:57:b5, 2085-97-19 00:43:247:20782,-0.104,-0.199,9.566,1062.073,323.12,-49.744,51.713,11.618,39.452
 14:52:02.769,eb:33:2e:f9:57:b5, 2085-113-58 00:212:239:-8880,-0.394,-1.398,7.251,952.271,366.516,-19.409,62.606,13.854,42.056
 14:52:02.769,eb:33:2e:f9:57:b5, 2085-97-03 03:179:10:4404,1.71,0.185,4.641,820.19,388.428,5.371,67.385,14.667,43.824
 14:52:02.769,eb:33:2e:f9:57:b5, 2085-97-213 16:145:242:-2258,1.423,-0.033,-0.02,423.218,371.033,-24.536,74.553,15.963,47.554
 14:52:02.769,eb:33:2e:f9:57:b5, 2085-97-91 11:151:03:1977,2.008,-1.662,1.077,128.235,480.042,-0.427,77.849,17.133,51.696
 14:52:02.793,eb:33:2e:f9:57:b5, 2085-97-235 20:142:16:7361,2.44,2.134,0.79,43.518,320.679,-93.445,80.14,18.364,55.997
 14:52:02.793,eb:33:2e:f9:57:b5, 2085-97-108 16:218:251:4910,1.598,-0.403,1.685,-615.356,-496.643,-82.703,44.39,30.8,46.615
 14:52:02.793,eb:33:2e:f9:57:b5, 2085-97-77 09:32:248:8395,0.735,-0.727,3.207,-608.337,-614.258,-111.267,35.815,27.103,41.55
 14:52:02.793,eb:33:2e:f9:57:b5, 2085-97-184 01:02:247:11103,-0.227,-1.121,4.992,-599.792,-616.882,-91.187,27.74,22.269,36.876
 14:52:02.823,eb:33:2e:f9:57:b5, 2085-97-168 251:89:249:10559,-0.665,-1.013,5.441,-594.788,-525.269,-31.616,20.726,17.331,33.799
 14:52:02.823,eb:33:2e:f9:57:b5, 2085-97-217 250:223:254:9328,-0.56,-0.478,4.737,-602.295,-427.002,47.791,14.282,12.766,32.404
 14:52:02.823,eb:33:2e:f9:57:b5, 2085-97-177 252:106:04:9079,-0.279,0.208,4.487,-591.492,-401.489,96.863,8.273,8.63,32.371
 14:52:02.823,eb:33:2e:f9:57:b5, 2085-113-81 00:99:133:-337,-0.296,0.997,4.295,-560.242,-437.927,115.845,2.516,4.323,33.074
 14:52:02.883,eb:33:2e:f9:57:b5, 2085-97-84 252:240:19:8828,-0.761,1.663,4.177,-548.767,-475.647,115.662,-0.214,2.016,33.613
 14:52:02.883,eb:33:2e:f9:57:b5, 2085-97-120 246:04:34:10318,-1.741,3.389,4.646,-515.32,-561.829,101.074,-5.559,-3.148,34.969
 14:52:02.883,eb:33:2e:f9:57:b5, 2085-97-158 237:138:46:10406,-2.759,5.06,5.221,-448.792,-611.084,89.844,-10.662,-8.948,36.777
 14:52:02.883,eb:33:2e:f9:57:b5, 2085-97-238 230:61:56:9572,-3.663,6.525,4.67,-333.069,-605.896,87.952,-15.013,-14.678,38.974
 14:52:02.944,eb:33:2e:f9:57:b5, 2085-97-51 221:80:60:11926,-4.989,7.327,5.166,-223.633,-580.872,97.107,-18.622,-20.154,41.743
 14:52:02.944,eb:33:2e:f9:57:b5, 2085-97-194 212:184:63:12763,-5.436,7.779,6.255,-169.678,-466.187,107.605,-21.654,-24.758,44.698
 14:52:02.944,eb:33:2e:f9:57:b5, 2085-97-33 216:175:71:10589,-4.205,8.283,5.76,-197.632,-193.542,114.014,-24.659,-27.312,47.274
 14:52:02.944,eb:33:2e:f9:57:b5, 2085-97-191 228:38:83:8254,-2.854,9.792,4.64,-194.153,73.914,56.763,-27.224,-27.252,48.307
 14:52:02.944,eb:33:2e:f9:57:b5, 2085-97-52 235:183:79:5587,-2.625,10.462,3.396,-67.505,182.007,-69.153,-28.202,-25.999,47.411
 14:52:02.944,eb:33:2e:f9:57:b5, 2085-97-173 233:253:58:3892,-2.908,8.868,2.181,96.13,164.368,-152.771,-27.037,-24.988,45.214
 14:52:02.944,eb:33:2e:f9:57:b5, 2085-97-193 233:96:34:3197,-2.565,5.717,1.776,193.726,123.23,-137.329,-24.582,-24.384,42.99
 14:52:02.944,eb:33:2e:f9:57:b5, 2085-97-89 237:108:21:1462,2.788,3.323,1.095,246.216,109.253,-60.852,-21.747,-23.725,41.44
 14:52:02.974,eb:33:2e:f9:57:b5, 2085-97-217 253:82:32:6432,2.835,5.907,9.691,821.899,594.666,-169.128,-16.683,-22.972,40.172
 14:52:02.974,eb:33:2e:f9:57:b5, 2085-97-55 02:191:57:7972,2.787,2.159,7.95,785.034,1336.487,-424.072,-5.147,-15.87,35.162
 14:52:02.974,eb:33:2e:f9:57:b5, 2085-97-176 211:117:255:124,-3.404,4.631,0.774,71.045,58.777,189.087,-0.319,-10.129,32.097
 14:52:02.974,eb:33:2e:f9:57:b5, 2085-97-109 245:69:253:1281,-0.459,-2.832,-1.269,108.459,-86.853,118.164,0.566,-8.784,32.454
 14:52:03.063,eb:33:2e:f9:57:b5, 2085-97-210 246:174:250:881,0.319,0.437,-0.373,45.41,-60.669,109.436,1.219,-9.624,33.558
 14:52:03.063,eb:33:2e:f9:57:b5, 2085-97-241 06:124:07:2578,0.592,0.351,0.972,38.086,-102.539,105.042,1.538,-10.783,34.651
 14:52:03.063,eb:33:2e:f9:57:b5, 2085-97-56 00:182:255:2644,0.223,0.596,0.982,13.611,19.104,11.536,1.648,-10.948,35.123
 14:52:03.063,eb:33:2e:f9:57:b5, 2085-97-191 09:244:03:3883,1.189,0.303,1.039,21.423,18.921,2.441,1.835,-10.756,35.239
 14:52:03.065,eb:33:2e:f9:57:b5, 2085-97-05 02:234:02:2003,-1.814,0.299,1.675,14.893,133.057,-25.696,2.054,-9.805,34.98
 14:52:03.065,eb:33:2e:f9:57:b5, 2085-97-167 248:190:247:11278,0.513,-0.993,3.093,91.003,41.443,-45.715,2.51,-8.882,34.612
 14:52:03.065,eb:33:2e:f9:57:b5, 2085-97-91 255:141:248:7962,-0.262,-0.745,5.939,229.492,173.218,-25.085,4.378,-8.02,34.178
 14:52:03.065,eb:33:2e:f9:57:b5, 2085-97-155 03:113:247:7956,0.275,-0.968,3.306,315.125,171.936,22.583,7.114,-6.169,34.393
 14:52:03.274,eb:33:2e:f9:57:b5, 2085-97-248 00:191:244:10195,0.739,-0.979,4.14,396.729,198.181,70.923,10.673,-4.455,35.255
 14:52:03.274,eb:33:2e:f9:57:b5, 2085-97-03 11:58:239:11740,1.722,-1.729,5.861,557.373,199.829,52.856,15.436,-2.823,36.266
 14:52:03.274,eb:33:2e:f9:57:b5, 2085-97-53 18:202:235:10102,2.192,-2.296,5.139,708.313,299.072,31.738,21.791,-0.533,37.474
 14:52:03.274,eb:33:2e:f9:57:b5, 2085-97-204 07:119:239:10393,-0.185,-2.752,4.485,853.027,426.086,5.859,29.696,2.796,39.249
 14:52:03.306,eb:33:2e:f9:57:b5, 2085-97-242 251:117:247:20614,0.142,-1.409,7.756,975.83,392.334,-32.043,39.078,6.323,41.413
 14:52:03.306,eb:33:2e:f9:57:b5, 2085-97-77 02:05:246:13797,-0.142,-1.153,9.732,1071.289,300.781,-50.232,49.785,8.937,43.412
 14:52:03.306,eb:33:2e:f9:57:b5, 2085-97-77 253:32:05:5026,0.752,-0.905,4.036,833.496,325.012,-12.146,59.782,11.025,45.818
 14:52:03.306,eb:33:2e:f9:57:b5, 2085-97-204 12:39:239:1401,2.628,0.418,2.523,525.208,362.854,-31.555,67.088,12.7,48.741
 14:52:03.306,eb:33:2e:f9:57:b5, 2085-97-98 16:219:253:3949,2.461,-0.502,0.335,157.654,450.439,-95.154,70.966,14.562,52.438
 14:52:03.306,eb:33:2e:f9:57:b5, 2085-97-180 20:163:11:6568,2.159,1.013,1.663,55.176,395.996,-175.476,73.12,17.254,56.475
 14:52:03.306,eb:33:2e:f9:57:b5, 2085-97-28 18:136:04:11925,2.254,1.346,4.415,63.477,191.223,-211.792,74.235,19.979,58.793
 14:52:03.306,eb:33:2e:f9:57:b5, 2085-97-139 17:153:243:12757,2.182,-0.52,6.419,145.691,122.864,-230.286,75.624,22.5,59.551
 14:52:03.308,eb:33:2e:f9:57:b5, 2085-97-143 17:27:233:9920,1.896,-2.387,5.687,171.875,161.926,-216.675,77.624,25.027,60.48
 14:52:03.308,eb:33:2e:f9:57:b5, 2085-97-212 12:58:230:4646,1.434,-3.083,3.458,119.324,132.324,-171.204,79.689,27.23,61.787
 14:52:03.308,eb:33:2e:f9:57:b5, 2085-97-51 11:05:232:2120,1.367,-3.185,1.417,21.79,-0.671,-128.662,80.502,28.784,62.166
 14:52:03.308,eb:33:2e:f9:57:b5, 2085-97-255 10:234:234:3779,1.507,-2.755,1.185,-75.5,-117.859,-116.76,79.656,29.85,61.133
 14:52:03.310,eb:33:2e:f9:57:b5, 2085-97-196 11:142:235:7634,1.285,-2.598,2.961,-129.517,-146.973,-114.929,77.52,30.701,59.167
 14:52:03.310,eb:33:2e:f9:57:b5, 2085-97-94 03:44:236:4083,0.681,-2.436,4,-123.84,-115.295,-115.906,75.306,31.52,57.393
 14:52:03.310,eb:33:2e:f9:57:b5, 2085-97-45 08:141:242:2738,1.215,-2.146,1.615,-387.817,-45.715,10.803,61.051,33.245,49.636
 14:52:03.310,eb:33:2e:f9:57:b5, 2085-97-25 11:23:249:1884,1.583,-1.246,1.042,-475.952,-50.842,28.137,56.519,32.844,49.384
 14:52:03.362,eb:33:2e:f9:57:b5, 2085-97-188 13:115:254:1631,1.756,-0.491,0.868,-528.503,-138.184,17.822,50.938,32.058,48.549
 14:52:03.362,eb:33:2e:f9:57:b5, 2085-97-95 13:145:255:2367,1.598,-0.025,0.817,-550.354,-266.724,-4.822,44.604,30.619,46.807
 14:52:03.362,eb:33:2e:f9:57:b5, 2085-97-34 11:245:252:4641,1.127,-0.199,1.753,-547.424,-398.376,-18.372,37.656,28.065,43.984
 14:52:03.362,eb:33:2e:f9:57:b5, 2085-97-152 06:41:250:6293,0.507,-0.562,2.688,-546.631,-465.393,-2.625,30.927,24.51,41.122
 14:52:03.393,eb:33:2e:f9:57:b5, 2085-97-52 02:149:249:7477,0.198,-0.842,3.385,-563.477,-473.694,44.8,24.445,20.171,38.881
 14:52:03.393,eb:33:2e:f9:57:b5, 2085-97-46 02:89:254:7657,0.413,-0.572,3.803,-575.989,-438.049,103.394,18.408,15.661,37.897
 14:52:03.393,eb:33:2e:f9:57:b5, 2085-97-24 04:126:05:6803,0.554,0.231,3.545,-559.509,-427.734,134.399,12.629,11.157,37.914
 14:52:03.393,eb:33:2e:f9:57:b5, 2085-97-199 03:128:11:6473,0.283,1.11,3.182,-524.597,-460.388,130.005,7.3,6.575,38.485
 14:52:03.423,eb:33:2e:f9:57:b5, 2085-97-228 00:218:13:7827,-0.113,1.621,3.367,-479.675,-529.663,103.271,2.258,1.467,39.232
 14:52:03.423,eb:33:2e:f9:57:b5, 2085-97-123 252:49:18:8772,-0.806,1.918,4.177,-454.285,-539.978,70.496,-2.379,-3.955,40.095
 14:52:03.423,eb:33:2e:f9:57:b5, 2085-97-253 246:121:27:8753,-1.47,2.789,4.283,-463.318,-503.784,35.828,-7.158,-9.146,41.061
 14:52:03.423,eb:33:2e:f9:57:b5, 2085-97-25 241:27:38:8503,-2.284,4.083,4.236,-477.783,-472.107,3.052,-12.074,-13.909,42.056
 14:52:03.483,eb:33:2e:f9:57:b5, 2085-97-149 233:44:56:8993,-3.254,5.708,4.209,-466.553,-440.735,-18.066,-17.232,-18.364,43.193
 14:52:03.483,eb:33:2e:f9:57:b5, 2085-97-217 226:01:74:10444,-4.228,8.403,4.69,-348.572,-429.626,-63.049,-21.753,-22.577,44.275
 14:52:03.483,eb:33:2e:f9:57:b5, 2085-97-27 216:250:75:11107,-5.635,9.517,5.378,-183.96,-390.564,-117.249,-24.736,-26.779,45.143
 14:52:03.483,eb:33:2e:f9:57:b5, 2085-97-253 207:115:71:10258,-5.943,9.282,5.32,-58.96,-277.222,-142.029,-25.966,-30.383,45.335
 14:52:03.603,eb:33:2e:f9:57:b5, 2085-97-141 211:246:64:8229,-5.035,8.524,4.534,-13.855,-86.426,-135.315,-25.972,-32.58,44.742
 14:52:03.603,eb:33:2e:f9:57:b5, 2085-97-230 219:227:57:6680,-4.007,7.685,3.597,-7.507,80.383,-123.657,-25.307,-33.025,43.237
 14:52:03.603,eb:33:2e:f9:57:b5, 2085-97-85 227:254:49:4999,-3.25,6.762,2.898,46.509,153.076,-117.554,-24.104,-32.355,41.237
 14:52:03.603,eb:33:2e:f9:57:b5, 2085-97-47 231:224:36:4621,-2.98,5.489,2.198,169.861,130.249,-92.712,-22.061,-31.421,39.326
 14:52:03.603,eb:33:2e:f9:57:b5, 2085-113-58 00:126:235:-5310,-2.794,3.555,2.304,287.781,114.563,-33.203,-19.078,-30.542,38.073
 14:52:03.605,eb:33:2e:f9:57:b5, 2085-97-206 235:196:12:3352,-2.22,2.518,2.066,334.351,121.46,13.184,-17.369,-29.987,37.755
 14:52:03.605,eb:33:2e:f9:57:b5, 2085-97-143 17:99:21:19260,-3.027,0.759,1.246,398.438,105.103,109.375,-13.826,-28.636,38.062
 14:52:03.605,eb:33:2e:f9:57:b5, 2085-97-163 07:26:50:12123,4.681,0.525,1.929,867.249,473.328,-119.324,-5.949,-27.142,37.386
 14:52:03.605,eb:33:2e:f9:57:b5, 2085-97-119 08:07:25:1875,-4.821,2.24,4.97,87.28,589.905,-51.086,-0.89,-18.869,34.525
 14:52:03.607,eb:33:2e:f9:57:b5, 2085-97-171 252:164:244:2300,-0.232,-1.301,-3.529,92.529,-104.736,-1.953,-0.615,-15.326,34.481
 14:52:03.607,eb:33:2e:f9:57:b5, 2085-97-58 248:116:04:-313,-1.321,0.579,0.924,60.974,10.559,128.784,0.115,-16.04,35.294
 14:52:03.607,eb:33:2e:f9:57:b5, 2085-97-132 03:203:05:1454,0.455,-0.329,-0.29,38.818,-104.553,51.27,0.313,-16.485,36.068
 14:52:03.607,eb:33:2e:f9:57:b5, 2085-97-104 05:118:02:2687,1.231,0.485,1.163,6.653,-15.076,-17.395,0.516,-17.111,36.085
 14:52:03.662,eb:33:2e:f9:57:b5, 2085-97-15 255:112:255:1738,0.066,0.427,2.177,11.353,95.032,-44.434,0.687,-16.963,35.81
 14:52:03.662,eb:33:2e:f9:57:b5, 2085-97-116 253:16:254:1825,-0.496,-0.129,1.19,25.513,52.612,-22.034,0.994,-16.254,35.387
 14:52:03.662,eb:33:2e:f9:57:b5, 2085-97-188 00:240:254:3095,0.222,-0.169,0.689,32.898,-18.433,20.508,1.263,-15.991,35.425
 14:52:03.662,eb:33:2e:f9:57:b5, 2085-97-54 01:17:254:4111,0.011,-0.017,1.609,43.945,11.353,53.345,1.56,-15.996,35.744
 14:52:03.665,eb:33:2e:f9:57:b5, 2085-97-222 02:171:255:9164,0.386,-0.137,2.536,108.459,21.973,71.777,2.049,-15.754,36.524
 14:52:03.665,eb:33:2e:f9:57:b5, 2085-97-234 255:251:247:10799,0.3,-0.84,5.8,263.733,78.735,28.137,3.873,-15.353,36.799
 14:52:03.666,eb:33:2e:f9:57:b5, 2085-97-97 05:112:245:11679,0.761,-1.037,5.309,402.954,121.216,28.992,7.169,-14.31,37.255
 14:52:03.666,eb:33:2e:f9:57:b5, 2085-97-16 09:140:238:13203,1.748,-1.743,5.942,554.688,185.791,30.457,11.904,-12.805,37.76
 14:52:03.722,eb:33:2e:f9:57:b5, 2085-97-48 20:62:232:14375,3.453,-2.492,6.655,745.911,268.921,19.104,18.347,-10.591,38.672
 14:52:03.722,eb:33:2e:f9:57:b5, 2085-97-168 29:162:232:13532,3.432,-3.212,6.727,957.336,419.373,-31.006,26.785,-7.311,39.913
 14:52:03.722,eb:33:2e:f9:57:b5, 2085-97-120 26:160:00:14526,2.896,-2.204,6.822,1088.928,558.533,-50.659,36.958,-2.791,42.138
 14:52:03.723,eb:33:2e:f9:57:b5, 2085-97-75 19:237:05:19827,1.634,1.663,8.747,1211.731,300.781,-199.28,48.444,1.395,44.418
 14:52:03.812,eb:33:2e:f9:57:b5, 2085-97-141 255:62:249:12190,0.593,-1.069,7.564,1176.331,36.072,-270.142,60.683,4.279,43.868
 14:52:03.812,eb:33:2e:f9:57:b5, 2085-97-228 16:156:244:7785,1.919,0.21,4.068,779.297,88.318,-285.4,70.367,6.828,43.264
 14:52:03.812,eb:33:2e:f9:57:b5, 2085-97-203 13:128:218:12513,1.193,-4.41,4.234,299.194,449.951,-215.942,75.778,10.25,45.033
 14:52:03.812,eb:33:2e:f9:57:b5, 2085-97-92 16:76:250:3991,3.708,-2.924,3.538,189.148,762.024,-40.283,79.371,12.761,51.877
 14:52:03.844,eb:33:2e:f9:57:b5, 2085-97-11 32:120:254:9627,3.94,-0.485,4.58,42.908,470.154,-3.723,81.694,14.019,57.816
 14:52:03.844,eb:33:2e:f9:57:b5, 2085-97-225 28:114:243:8889,3.15,-0.636,4.483,71.35,173.706,-24.719,82.93,14.485,60.831
 14:52:03.844,eb:33:2e:f9:57:b5, 2085-97-222 20:150:231:7863,2.17,-2.346,4.059,77.393,16.357,-70.435,83.941,15.101,61.573
 14:52:03.844,eb:33:2e:f9:57:b5, 2085-97-16 15:62:233:5150,1.859,-3.184,3.29,24.475,-46.265,-96.741,84.304,15.925,61.243
 14:52:03.844,eb:33:2e:f9:57:b5, 2085-97-189 12:208:239:5419,1.229,-2.347,2.467,-79.956,-143.555,-141.785,83.666,16.99,60.007
 14:52:03.844,eb:33:2e:f9:57:b5, 2085-97-96 07:111:240:6911,0.713,-1.904,2.972,-176.392,-180.42,-196.045,81.634,18.49,57.986
 14:52:03.844,eb:33:2e:f9:57:b5, 2085-97-244 02:224:236:8334,-0.05,-2.093,3.844,-224.915,-177.612,-216.248,78.799,20.253,55.701
 14:52:03.844,eb:33:2e:f9:57:b5, 2085-97-17 254:246:230:8348,-0.272,-2.751,4.047,-229.614,-187.5,-200.562,75.58,21.901,53.295
 14:52:03.872,eb:33:2e:f9:57:b5, 2085-97-216 253:248:226:7227,-0.25,-3.471,3.904,-255.127,-184.021,-156.921,72.224,23.093,50.773
 14:52:03.872,eb:33:2e:f9:57:b5, 2085-97-120 254:204:227:4993,0.081,-3.624,2.94,-366.943,-124.39,-74.463,68.264,23.654,48.68
 14:52:03.872,eb:33:2e:f9:57:b5, 2085-97-225 03:240:233:3703,0.845,-3.25,2.07,-513.672,-42.908,2.625,63.424,23.61,47.741
 14:52:03.872,eb:33:2e:f9:57:b5, 2085-97-115 09:160:242:3523,1.455,-2.232,1.695,-634.705,-2.808,40.405,57.475,23.302,47.708
 14:52:03.903,eb:33:2e:f9:57:b5, 2085-97-84 13:191:251:3449,1.8,-1.073,1.713,-673.035,-63.11,33.02,50.85,22.808,47.703
 14:52:03.903,eb:33:2e:f9:57:b5, 2085-97-33 15:107:00:3556,1.848,-0.163,1.658,-651.672,-183.472,1.709,43.77,21.808,46.774
 14:52:03.903,eb:33:2e:f9:57:b5, 2085-97-78 13:92:00:4758,1.363,0.118,1.94,-609.924,-326.904,-39.551,36.782,19.935,44.797
 14:52:03.903,eb:33:2e:f9:57:b5, 2085-97-204 07:202:252:6487,0.565,-0.132,2.745,-593.567,-427.673,-60.913,29.839,16.952,42.017
 14:52:03.994,eb:33:2e:f9:57:b5, 2085-97-103 01:80:248:8118,-0.099,-0.712,3.603,-608.337,-447.754,-34.119,23.176,13.189,39.49
 14:52:03.994,eb:33:2e:f9:57:b5, 2085-113-58 00:255:226:-7875,-0.26,-1.094,4.293,-629.944,-399.78,39.673,16.584,9.141,38.018
 14:52:03.994,eb:33:2e:f9:57:b5, 2085-97-200 253:46:248:8959,-0.013,-1.109,4.473,-636.292,-361.694,86.853,13.387,7.234,37.853
 14:52:03.994,eb:33:2e:f9:57:b5, 2085-97-141 03:21:254:8069,0.848,-0.709,4.202,-629.333,-314.88,171.57,7.108,3.735,38.606
 14:52:03.994,eb:33:2e:f9:57:b5, 2085-97-126 08:182:09:6309,1.061,0.448,3.541,-604.614,-324.036,201.416,0.89,0.439,40.32
 14:52:03.994,eb:33:2e:f9:57:b5, 2085-97-19 07:44:20:5747,0.66,1.928,2.748,-558.411,-439.148,167.48,-4.966,-3.268,42.336
 14:52:03.994,eb:33:2e:f9:57:b5, 2085-97-167 02:50:24:8805,-0.198,2.897,3.41,-498.413,-590.393,100.83,-10.519,-8.35,44.39
 14:52:03.994,eb:33:2e:f9:57:b5, 2085-97-195 249:169:26:10202,-1.271,3.088,4.866,-474.976,-590.759,44.189,-15.732,-14.09,46.467
 14:52:04.024,eb:33:2e:f9:57:b5, 2085-97-159 242:00:37:9864,-2.067,3.887,4.885,-488.098,-487.427,1.282,-21.204,-19.133,48.466
 14:52:04.024,eb:33:2e:f9:57:b5, 2085-97-28 236:233:49:10165,-2.975,5.382,4.805,-485.352,-402.832,-46.631,-26.713,-23.231,50.048
 14:52:04.024,eb:33:2e:f9:57:b5, 2085-97-208 227:62:66:11422,-4.247,7.281,5.186,-412.231,-366.089,-94.604,-31.882,-26.889,51.422
 14:52:04.024,eb:33:2e:f9:57:b5, 2085-97-07 218:92:75:12551,-5.064,9.187,5.899,-269.104,-343.75,-156.006,-35.815,-30.569,52.438
 14:52:04.083,eb:33:2e:f9:57:b5, 2085-97-18 214:34:70:12546,-5.306,9.212,6.27,-151.245,-224.365,-181.335,-38.079,-33.937,52.85
 14:52:04.083,eb:33:2e:f9:57:b5, 2085-97-83 214:100:64:10338,-4.943,8.33,5.702,-109.009,-1.099,-150.94,-38.842,-35.821,51.971
 14:52:04.083,eb:33:2e:f9:57:b5, 2085-97-226 219:205:59:7539,-4.049,7.844,4.362,-51.514,171.265,-82.214,-38.573,-35.695,49.988
 14:52:04.083,eb:33:2e:f9:57:b5, 2085-97-157 226:198:45:4723,-3.314,6.706,2.974,92.285,174.744,6.165,-37.343,-34.459,48.175
 14:52:04.143,eb:33:2e:f9:57:b5, 2085-97-86 233:112:31:3181,-1.067,4.742,1.913,245.361,101.501,118.713,-35.37,-32.959,47.774
 14:52:04.143,eb:33:2e:f9:57:b5, 2085-97-130 225:122:21:7107,5.6,2.761,3.141,602.844,-141.174,59.753,-32.536,-31.844,48.994
 14:52:04.143,eb:33:2e:f9:57:b5, 2085-97-38 65:147:60:20545,1.212,-1.492,5.024,1103.699,867.493,-111.938,-19.385,-29.158,45.115
 14:52:04.143,eb:33:2e:f9:57:b5, 2085-97-87 234:155:03:2544,-3.703,5.32,7.499,490.784,1071.472,-342.163,-9.998,-16.381,38.804
 14:52:04.145,eb:33:2e:f9:57:b5, 2085-97-212 230:152:00:-2603,-0.826,0.645,-2.723,183.533,249.634,85.327,-6.405,-10.618,37.244
 14:52:04.145,eb:33:2e:f9:57:b5, 2085-97-06 234:23:253:-3109,-1.338,-0.59,0.975,130.493,121.399,51.331,-4.708,-10.975,37.271
 14:52:04.145,eb:33:2e:f9:57:b5, 2085-97-55 12:41:03:4982,0.506,0.411,-1.203,64.087,-166.565,103.455,-4.059,-10.816,38.337
 14:52:04.145,eb:33:2e:f9:57:b5, 2085-97-166 00:200:03:1735,-0.189,0.829,1.036,41.626,44.678,12.207,-3.642,-10.909,38.727
 14:52:04.203,eb:33:2e:f9:57:b5, 2085-97-105 246:29:251:1065,0.027,0.053,0.379,23.438,46.204,-31.189,-3.224,-10.41,38.408
 14:52:04.203,eb:33:2e:f9:57:b5, 2085-97-219 11:205:03:5661,0.692,0.141,1.21,31.067,-21.729,4.089,-2.966,-10.47,38.419
 14:52:04.203,eb:33:2e:f9:57:b5, 2085-97-121 00:144:00:940,0.085,0.149,1.992,29.907,182.251,-19.226,-2.582,-9.349,38.123
 14:52:04.203,eb:33:2e:f9:57:b5, 2085-97-32 252:172:254:5298,-1.598,0.203,0.456,33.752,51.819,-12.329,-2.263,-8.196,37.952
 14:52:04.232,eb:33:2e:f9:57:b5, 2085-97-45 253:251:245:12582,-0.449,-1.218,4.797,159.546,50.537,-18.982,-1.368,-7.504,37.601
 14:52:04.232,eb:33:2e:f9:57:b5, 2085-97-211 252:163:245:9160,-0.074,-1.173,4.75,307.129,159.302,51.758,1.176,-6.295,37.798
 14:52:04.232,eb:33:2e:f9:57:b5, 2085-97-168 00:01:242:10615,0.308,-1.389,5.07,431.03,141.296,89.417,4.861,-4.85,38.557
 14:52:04.232,eb:33:2e:f9:57:b5, 2085-97-239 06:07:240:9896,1.232,-1.898,5.16,568.115,144.287,100.952,9.849,-3.56,39.699
 14:52:04.293,eb:33:2e:f9:57:b5, 2085-97-11 12:76:235:10283,1.647,-2.341,5.033,716.797,163.208,78.857,16.287,-2.241,40.858
 14:52:04.293,eb:33:2e:f9:57:b5, 2085-97-54 12:66:234:10726,0.586,-2.805,5.083,877.319,241.028,30.884,24.302,-0.566,42.05
 14:52:04.293,eb:33:2e:f9:57:b5, 2085-97-202 04:55:250:10519,0.813,-1.808,4.56,1014.404,329.346,11.902,33.882,2.098,43.698
 14:52:04.293,eb:33:2e:f9:57:b5, 2085-97-137 08:233:04:18587,0.382,0.676,6.855,1181.274,43.335,-65.918,44.929,3.79,44.879
 14:52:04.322,eb:33:2e:f9:57:b5, 2085-97-120 250:41:248:11488,-0.634,-0.145,8.35,1172.241,-79.468,-148.56,56.948,4.378,43.445
 14:52:04.322,eb:33:2e:f9:57:b5, 2085-97-128 01:126:11:520,0.529,1.143,1.765,870.728,-104.248,-125.916,67.132,5.12,42.358
 14:52:04.322,eb:33:2e:f9:57:b5, 2085-97-218 00:134:239:1658,-0.738,-0.894,0.14,407.776,-95.032,-220.398,73.125,6.476,40.331
 14:52:04.322,eb:33:2e:f9:57:b5, 2085-97-250 249:216:248:996,-0.648,-1.892,1.315,167.114,249.634,-127.075,75.718,8.487,40.875
 14:52:04.354,eb:33:2e:f9:57:b5, 2085-97-37 253:221:00:10585,0.442,-0.517,3.12,-39.001,387.939,-36.804,76.553,10.031,43.841
 14:52:04.354,eb:33:2e:f9:57:b5, 2085-97-112 08:32:09:10995,1.409,0.888,5.769,22.4,414.856,62.866,77.135,10.761,48.071
 14:52:04.354,eb:33:2e:f9:57:b5, 2085-97-11 13:90:04:6217,1.751,0.916,4.206,136.719,286.987,119.446,78.679,10.585,51.696
 14:52:04.354,eb:33:2e:f9:57:b5, 2085-97-105 13:08:03:4415,1.512,0.422,2.334,174.927,138.977,131.104,80.733,9.673,53.981
 14:52:04.414,eb:33:2e:f9:57:b5, 2085-97-225 10:216:254:6820,1.192,0.201,2.553,146.667,4.883,101.074,82.463,8.641,54.723
 14:52:04.414,eb:33:2e:f9:57:b5, 2085-97-30 09:29:249:8965,1.175,-0.501,4.015,103.394,-38.269,65.796,83.655,7.8,54.564
 14:52:04.414,eb:33:2e:f9:57:b5, 2085-97-99 09:92:244:7421,1.315,-1.145,4.206,66.528,-45.166,31.616,84.386,7.322,54.152
 14:52:04.414,eb:33:2e:f9:57:b5, 2085-97-200 12:46:242:6259,1.749,-1.633,3.099,45.227,-80.444,-8.179,84.842,7.147,53.547
 14:52:04.444,eb:33:2e:f9:57:b5, 2085-97-114 13:105:242:6532,1.548,-1.676,3.099,32.837,-114.868,-74.097,85.034,7.493,52.443
 14:52:04.444,eb:33:2e:f9:57:b5, 2085-97-89 11:228:238:7210,1.237,-1.905,3.384,24.048,-138.123,-150.879,85.117,8.547,51.026
 14:52:04.444,eb:33:2e:f9:57:b5, 2085-97-00 07:152:234:6641,0.465,-2.41,3.511,3.601,-118.286,-207.52,84.957,10.289,49.51
 14:52:04.444,eb:33:2e:f9:57:b5, 2085-97-169 01:102:230:6396,0.049,-2.921,3.036,-34.363,-140.442,-227.844,84.512,12.382,48.032
 14:52:04.473,eb:33:2e:f9:57:b5, 2085-97-226 254:228:225:6121,-0.108,-3.521,3.222,-99.67,-132.568,-206.299,83.359,14.425,46.263
 14:52:04.473,eb:33:2e:f9:57:b5, 2085-97-113 255:83:225:5150,0.096,-3.867,2.863,-200.439,-66.162,-149.292,81.502,16.046,44.973
 14:52:04.473,eb:33:2e:f9:57:b5, 2085-97-128 03:155:230:3607,0.834,-3.601,2.078,-327.454,41.321,-78.064,78.651,17.122,44.626
 14:52:04.473,eb:33:2e:f9:57:b5, 2085-97-190 09:19:238:1874,1.517,-2.708,1.351,-456.177,140.747,-41.87,74.927,17.88,45.511
 14:52:04.534,eb:33:2e:f9:57:b5, 2085-97-236 14:58:245:-306,2.229,-1.819,0.354,-563.599,171.509,-51.27,70.131,18.798,46.956
 14:52:04.534,eb:33:2e:f9:57:b5, 2085-97-24 19:173:251:-521,2.368,-0.915,-0.27,-635.986,111.755,-109.497,64.429,20.099,48.043
 14:52:04.534,eb:33:2e:f9:57:b5, 2085-97-47 18:27:253:890,2.116,-0.353,0.007,-662.354,-36.926,-178.955,57.623,21.555,47.521
 14:52:04.534,eb:33:2e:f9:57:b5, 2085-97-148 15:172:250:2574,1.746,-0.479,0.838,-634.521,-234.314,-231.934,50.147,22.396,44.945
 14:52:04.562,eb:33:2e:f9:57:b5, 2085-97-244 11:172:245:4548,1.171,-0.94,1.72,-592.102,-418.884,-243.347,42.264,21.764,40.397
 14:52:04.562,eb:33:2e:f9:57:b5, 2085-97-24 06:173:240:6862,0.429,-1.645,2.804,-572.266,-532.349,-208.069,34.656,19.358,35.272
 14:52:04.562,eb:33:2e:f9:57:b5, 2085-97-233 00:205:238:9820,-0.277,-2.087,4.097,-568.42,-583.008,-135.742,27.482,15.359,30.591
 14:52:04.562,eb:33:2e:f9:57:b5, 2085-97-14 252:79:238:11306,-0.556,-2.214,5.321,-584.595,-536.072,-14.709,21.022,10.519,27.499
 14:52:04.624,eb:33:2e:f9:57:b5, 2085-97-209 252:230:242:11143,-0.111,-2.055,5.511,-618.042,-426.514,113.708,14.755,5.762,26.488
 14:52:04.624,eb:33:2e:f9:57:b5, 2085-97-213 00:207:253:10509,0.153,-1.038,5.338,-651.001,-339.172,209.656,8.427,1.791,27.416
 14:52:04.624,eb:33:2e:f9:57:b5, 2085-97-124 00:173:10:9875,-0.076,0.539,4.939,-658.447,-371.765,246.399,1.741,-1.895,29.421
 14:52:04.624,eb:33:2e:f9:57:b5, 2085-97-50 254:104:20:10907,-0.371,1.998,4.949,-649.841,-461.67,250.854,-4.977,-6.064,32.053
 14:52:04.864,eb:33:2e:f9:57:b5, 2085-97-158 251:236:30:12081,-0.707,3.119,5.752,-643.555,-446.35,251.343,-12.014,-10.311,35.261
 14:52:04.864,eb:33:2e:f9:57:b5, 2085-97-212 249:243:44:11807,-0.905,4.746,5.822,-608.948,-389.282,224.304,-19.034,-13.634,38.749
 14:52:04.864,eb:33:2e:f9:57:b5, 2085-113-58 00:68:233:-5175,-1.24,6.378,5.868,-523.804,-383.85,161.499,-25.653,-16.452,42.105
 14:52:04.864,eb:33:2e:f9:57:b5, 2085-97-35 242:40:59:12854,-2.236,6.952,6.136,-474.182,-388,125.366,-28.592,-17.858,43.599
 14:52:04.864,eb:33:2e:f9:57:b5, 2085-97-226 234:160:64:12534,-2.979,7.771,6.24,-377.197,-362.549,57.861,-33.81,-20.638,46.467
 14:52:04.864,eb:33:2e:f9:57:b5, 2085-97-241 229:19:73:11515,-3.35,8.557,5.921,-286.926,-272.217,-4.333,-37.914,-23.077,48.604
 14:52:04.864,eb:33:2e:f9:57:b5, 2085-97-207 229:129:78:10466,-3.19,9.585,5.385,-173.706,-135.437,-82.214,-40.627,-24.911,49.57
 14:52:04.864,eb:33:2e:f9:57:b5, 2085-97-09 231:139:74:8153,-3.079,9.762,4.602,-63.904,34.79,-168.457,-41.396,-26.071,48.697
 14:52:04.864,eb:33:2e:f9:57:b5, 2085-97-43 231:28:62:5133,-3.212,8.587,3.264,18.982,124.939,-222.717,-40.485,-26.664,46.208
 14:52:04.892,eb:33:2e:f9:57:b5, 2085-97-186 220:180:47:22311,-7.505,6.864,2.009,108.765,23.438,-250.183,-38.727,-27.307,43.396
 14:52:04.892,eb:33:2e:f9:57:b5, 2085-97-122 03:136:43:8844,-2.969,8.933,-1.586,905.762,567.505,-194.031,-31.124,-24.472,40.007
 14:52:04.892,eb:33:2e:f9:57:b5, 2085-97-56 240:26:30:20705,-2.212,4.103,4.604,1075.562,866.76,-23.132,-18.682,-16.721,36.442
 14:52:04.892,eb:33:2e:f9:57:b5, 2085-97-242 246:60:09:6109,-4.479,2.796,6.551,767.334,367.432,-108.887,-8.915,-11.404,33.508
 14:52:04.894,eb:33:2e:f9:57:b5, 2085-97-61 255:147:16:7394,-3.589,4.721,-4.122,235.046,-263.611,-155.151,-4.653,-9.08,33.415
 14:52:04.894,eb:33:2e:f9:57:b5, 2085-97-250 244:148:247:-013,-1.048,-0.241,-4.04,124.878,16.846,-55.237,-3.389,-7.564,32.899
 14:52:04.894,eb:33:2e:f9:57:b5, 2085-97-83 09:140:04:4700,1.105,0.748,-0.936,32.776,-137.939,70.251,-2.719,-8.784,33.547
 14:52:04.894,eb:33:2e:f9:57:b5, 2085-97-244 04:159:03:3855,-0.281,0.344,2.014,45.105,44.373,-22.461,-2.269,-9.19,33.547
 14:52:04.923,eb:33:2e:f9:57:b5, 2085-97-74 248:63:252:768,-1.204,-0.044,0.858,48.523,104.858,-53.04,-1.692,-8.256,33.003
 14:52:04.923,eb:33:2e:f9:57:b5, 2085-97-72 02:149:01:2532,1.068,-0.264,0.025,35.645,-1.77,4.089,-1.187,-7.668,32.668
 14:52:04.923,eb:33:2e:f9:57:b5, 2085-97-96 04:123:02:3782,0.161,0.437,2.212,22.461,98.022,-20.325,-0.901,-7.377,32.624
 14:52:04.923,eb:33:2e:f9:57:b5, 2085-97-207 03:178:03:1934,0.889,0.051,1.494,15.381,167.542,-35.95,-0.621,-5.817,32.135
 14:52:04.925,eb:33:2e:f9:57:b5, 2085-97-220 02:220:02:3887,-0.514,0.884,1.258,3.418,163.208,-69.153,-0.467,-4.285,31.624
 14:52:04.925,eb:33:2e:f9:57:b5, 2085-97-90 253:230:244:8089,0.486,-1.226,3.22,453.43,92.896,171.509,11.75,4.499,33.64
 14:52:04.925,eb:33:2e:f9:57:b5, 2085-97-208 06:82:239:11432,1.09,-1.809,5.289,604.37,59.387,133.362,17.216,4.603,35.178
 14:52:04.925,eb:33:2e:f9:57:b5, 2085-97-175 10:23:241:11083,1.001,-2.262,5.489,756.958,196.716,104.675,24.28,5.455,36.711
 14:52:04.928,eb:33:2e:f9:57:b5, 2085-97-139 00:52:248:9353,-0.241,-1.583,5.033,852.173,344.91,70.435,32.695,7.559,38.804
 14:52:04.929,eb:33:2e:f9:57:b5, 2085-97-150 00:199:244:14168,0.069,-1.138,6.194,932.8,239.502,40.344,41.935,9.723,41.012
 14:52:04.929,eb:33:2e:f9:57:b5, 2085-97-237 254:160:246:10001,-0.441,-1.519,6.02,1011.719,139.587,43.091,52.075,10.706,42.671
 14:52:04.929,eb:33:2e:f9:57:b5, 2085-97-106 255:58:15:2616,0.51,0.417,2.99,875.488,15.808,53.589,61.804,10.767,43.599
 14:52:04.954,eb:33:2e:f9:57:b5, 2085-97-25 11:17:250:-1672,-0.411,1.818,0.396,554.565,-117.554,-56.763,68.769,10.432,42.902
 14:52:04.954,eb:33:2e:f9:57:b5, 2085-97-205 243:218:227:3726,-0.797,-3.537,-0.23,127.747,84.656,-53.589,71.735,11.261,42.27
 14:52:04.954,eb:33:2e:f9:57:b5, 2085-97-187 254:154:254:2373,0.264,-1.445,-0.429,-83.679,317.932,69.702,72.521,11.711,44.879
 14:52:04.954,eb:33:2e:f9:57:b5, 2085-97-82 06:21:15:9962,1.253,0.957,3.332,-207.092,344.666,65.369,71.411,12.134,48.329
 14:52:05.013,eb:33:2e:f9:57:b5, 2085-97-137 13:136:19:10483,1.885,2.371,5.508,-87.769,270.569,18.799,70.565,12.733,51.46
 14:52:05.013,eb:33:2e:f9:57:b5, 2085-97-231 17:42:09:6145,2.545,1.849,3.888,63.66,177.063,-50.415,71.021,13.7,53.525
 14:52:05.013,eb:33:2e:f9:57:b5, 2085-97-196 21:207:02:3967,2.676,0.746,2.333,147.644,57.19,-128.296,72.4,14.919,54.305
 14:52:05.013,eb:33:2e:f9:57:b5, 2085-97-176 21:60:253:2906,2.659,0.03,1.527,144.897,-49.255,-220.276,73.751,16.65,53.723
 14:52:05.043,eb:33:2e:f9:57:b5, 2085-97-03 20:25:247:3014,2.34,-0.729,1.408,86.914,-147.827,-308.044,74.344,18.951,51.872
 14:52:05.043,eb:33:2e:f9:57:b5, 2085-97-242 17:206:241:4821,2.076,-1.473,1.8,11.108,-208.618,-367.371,73.751,21.764,48.889
 14:52:05.043,eb:33:2e:f9:57:b5, 2085-97-194 14:12:239:5895,1.608,-1.986,2.721,-53.467,-172.974,-393.677,72.208,24.873,45.632
 14:52:05.043,eb:33:2e:f9:57:b5, 2085-97-127 11:104:238:5838,1.375,-2.167,2.911,-100.952,-101.685,-389.16,70.087,28.169,42.715
 14:52:05.074,eb:33:2e:f9:57:b5, 2085-97-212 10:38:240:5107,1.331,-2.118,2.717,-130.615,-27.71,-368.164,67.802,31.487,40.49
 14:52:05.074,eb:33:2e:f9:57:b5, 2085-97-17 10:47:241:4177,0.994,-1.867,2.231,-145.02,32.654,-335.999,65.49,34.75,38.826
 14:52:05.075,eb:33:2e:f9:57:b5, 2085-97-122 04:209:235:3948,0.485,-2.103,1.927,-129.456,23.926,-285.095,63.353,37.711,37.573
 14:52:05.075,eb:33:2e:f9:57:b5, 2085-97-01 03:80:232:4297,0.154,-2.766,2.18,-96.985,-47.302,-204.59,61.139,39.743,35.76
 14:52:05.133,eb:33:2e:f9:57:b5, 2085-97-67 00:66:229:2610,0.052,-3.134,1.61,-135.742,-73.486,-105.591,58.942,40.759,34.025
 14:52:05.133,eb:33:2e:f9:57:b5, 2085-97-54 01:215:228:1216,0.436,-3.447,1.001,-242.126,-76.904,13.245,56.184,40.682,32.69
 14:52:05.133,eb:33:2e:f9:57:b5, 2085-97-204 06:246:234:091,1.374,-3.102,0.249,-400.024,-38.452,136.902,52.938,39.688,32.64
 14:52:05.133,eb:33:2e:f9:57:b5, 2085-97-179 15:141:243:1428,2.449,-2.139,0.297,-525.696,-47.363,202.698,48.763,38.062,33.58
 14:52:05.193,eb:33:2e:f9:57:b5, 2085-97-31 22:155:254:1893,2.839,-0.865,0.913,-561.218,-119.08,198.303,43.879,36.019,34.634
 14:52:05.193,eb:33:2e:f9:57:b5, 2085-97-190 21:200:02:1794,2.523,0.256,0.794,-541.992,-274.231,140.808,38.254,33.404,34.486
 14:52:05.193,eb:33:2e:f9:57:b5, 2085-97-51 18:158:255:4787,1.984,0.178,1.465,-527.344,-439.453,76.843,32.157,29.751,32.975
 14:52:05.193,eb:33:2e:f9:57:b5, 2085-97-53 13:232:252:8093,1.279,-0.221,3.221,-547.607,-493.164,44.006,25.763,25.285,30.8
 14:52:05.222,eb:33:2e:f9:57:b5, 2085-97-60 07:171:250:8969,0.627,-0.568,4.368,-575.134,-478.882,39.185,19.479,20.632,29.158
 14:52:05.222,eb:33:2e:f9:57:b5, 2085-97-43 04:04:252:8903,0.341,-0.655,4.28,-580.933,-479.614,47.302,13.282,15.919,28.087
 14:52:05.222,eb:33:2e:f9:57:b5, 2085-97-28 01:100:254:8708,-0.141,-0.333,4.251,-573.364,-493.652,57.983,7.421,11.063,27.724
 14:52:05.222,eb:33:2e:f9:57:b5, 2085-97-37 253:216:254:8864,-0.537,-0.178,4.229,-552.429,-515.137,73.059,1.741,5.949,27.916
 14:52:05.253,eb:33:2e:f9:57:b5, 2085-97-164 250:152:255:10121,-0.781,-0.103,4.593,-526.978,-513.123,93.079,-3.593,0.797,28.839
 14:52:05.253,eb:33:2e:f9:57:b5, 2085-97-101 249:41:01:10770,-0.881,0,5.191,-494.141,-471.13,104.187,-8.822,-4.01,30.339
 14:52:05.253,eb:33:2e:f9:57:b5, 2085-97-217 247:78:08:10641,-1.298,0.488,5.16,-451.599,-442.566,93.689,-13.733,-8.229,32.13
 14:52:05.253,eb:33:2e:f9:57:b5, 2085-97-119 242:141:18:12034,-2.289,1.691,5.487,-408.447,-460.693,68.542,-18.463,-12.354,34.162
 14:52:05.343,eb:33:2e:f9:57:b5, 2085-97-159 233:73:26:12376,-3.275,2.914,6.137,-362.427,-481.018,61.401,-22.885,-16.556,36.409
 14:52:05.343,eb:33:2e:f9:57:b5, 2085-97-237 226:108:32:11567,-3.879,3.628,5.794,-336.243,-473.877,88.196,-27.328,-20.577,39.249
 14:52:05.343,eb:33:2e:f9:57:b5, 2085-97-02 224:196:42:12185,-3.994,4.641,5.754,-311.951,-416.504,127.686,-31.866,-23.934,42.594
 14:52:05.343,eb:33:2e:f9:57:b5, 2085-97-145 225:18:51:12159,-3.456,5.915,6.153,-303.101,-246.033,144.897,-36.365,-25.911,45.912
 14:52:05.553,eb:33:2e:f9:57:b5, 2085-97-162 231:26:60:8775,-2.747,6.979,5.199,-316.65,35.95,130.554,-40.292,-25.746,47.67
 14:52:05.553,eb:33:2e:f9:57:b5, 2085-97-131 235:139:60:5271,-2.569,7.719,3.471,-262.268,193.115,69.946,-43.171,-24.044,47.417
 14:52:05.553,eb:33:2e:f9:57:b5, 2085-97-86 234:164:49:2019,-2.84,7.035,1.643,-141.968,196.594,16.724,-44.659,-22.291,46.071
 14:52:05.553,eb:33:2e:f9:57:b5, 2085-97-229 232:48:36:1907,-2.816,5.317,0.764,-35.034,132.629,14.832,-45.016,-21.033,44.835
 14:52:05.556,eb:33:2e:f9:57:b5, 2085-97-225 234:127:30:3444,-2.353,3.987,1.31,12.939,121.643,51.819,-44.83,-19.94,44.11
 14:52:05.556,eb:33:2e:f9:57:b5, 2085-97-123 240:114:34:4342,-1.533,3.978,1.964,33.081,169.983,77.698,-44.379,-18.369,43.434
 14:52:05.556,eb:33:2e:f9:57:b5, 2085-97-116 246:101:37:4248,-0.896,4.556,2.167,99.06,201.904,61.951,-43.495,-16.479,42.512
 14:52:05.556,eb:33:2e:f9:57:b5, 2085-97-166 250:119:35:4362,-0.416,4.623,2.105,190.857,193.298,9.949,-41.633,-14.744,41.281
 14:52:05.556,eb:33:2e:f9:57:b5, 2085-97-114 254:254:26:4503,-0.064,4.106,2.147,257.935,193.054,-50.049,-39.007,-13.403,39.721
 14:52:05.556,eb:33:2e:f9:57:b5, 2085-97-241 239:73:223:14272,0.096,2.305,2.086,341.675,167.603,-93.811,-35.519,-12.393,37.859
 14:52:05.556,eb:33:2e:f9:57:b5, 2085-97-214 255:135:219:-15686,-4.786,-0.957,2.696,807.922,536.011,-174.316,-28.449,-10.992,36.222
 14:52:05.556,eb:33:2e:f9:57:b5, 2085-97-88 241:60:10:21222,0.81,-3.584,4.455,1142.273,228.394,-41.87,-17.847,-8.795,34.382
 14:52:05.558,eb:33:2e:f9:57:b5, 2085-97-18 251:180:46:-5456,2.368,4.854,7.725,753.479,-362.549,60.913,-7.839,-10.283,34.42
 14:52:05.558,eb:33:2e:f9:57:b5, 2085-97-235 12:210:255:7564,-1.236,5.066,5.164,29.053,184.204,-140.625,-5.301,-12.552,34.744
 14:52:05.558,eb:33:2e:f9:57:b5, 2085-97-253 245:120:255:-574,-0.536,-0.944,-0.508,83.008,27.344,45.227,-4.719,-10.893,34.404
 14:52:05.558,eb:33:2e:f9:57:b5, 2085-97-179 253:156:02:275,-0.448,-0.244,0.773,83.008,-99.67,40.588,-3.988,-11.492,34.937
 14:52:05.560,eb:33:2e:f9:57:b5, 2085-97-44 08:65:07:2815,0.163,0.41,0.267,38.269,-97.473,20.935,-3.576,-12.332,35.392
 14:52:05.560,eb:33:2e:f9:57:b5, 2085-97-03 252:225:253:2059,-0.14,0.024,1.21,18.677,3.845,-20.752,-3.301,-12.502,35.195
 14:52:05.560,eb:33:2e:f9:57:b5, 2085-97-174 02:147:01:2683,0.582,-0.136,1.151,32.104,-26.855,3.174,-2.977,-12.777,35.151
 14:52:05.560,eb:33:2e:f9:57:b5, 2085-97-84 01:54:02:2100,0.036,0.355,1.431,26.978,40.466,-16.907,-2.587,-12.706,34.98
 14:52:05.612,eb:33:2e:f9:57:b5, 2085-97-46 252:214:254:1626,2.893,0.075,1.027,20.813,64.392,-27.283,-2.274,-12.189,34.678
 14:52:05.612,eb:33:2e:f9:57:b5, 2085-113-58 00:99:232:-7065,2.46,-1.243,4.816,644.897,638.916,-68.176,18.528,10.657,37.634
 14:52:05.612,eb:33:2e:f9:57:b5, 2085-97-98 18:30:00:9466,2.433,-0.792,5.126,706.482,629.456,-81.116,22.104,13.788,38.397
 14:52:05.612,eb:33:2e:f9:57:b5, 2085-97-228 19:28:15:5813,1.563,1.342,3.28,845.154,277.344,-131.531,30.234,18.534,39.633
 14:52:05.673,eb:33:2e:f9:57:b5, 2085-97-46 07:63:12:2514,-0.151,1.013,2.65,909.546,-89.111,-227.295,38.666,20.078,38.106
 14:52:05.673,eb:33:2e:f9:57:b5, 2085-97-205 245:83:255:6016,-2.434,1.701,0.987,715.576,-268.738,-353.577,45.659,20.539,34.338
 14:52:05.673,eb:33:2e:f9:57:b5, 2085-97-71 229:126:224:11463,-2.796,-2.655,4.108,377.258,64.819,-305.176,49.708,22.308,30.74
 14:52:05.673,eb:33:2e:f9:57:b5, 2085-97-246 243:159:250:6589,-0.147,-1.594,2.125,182.678,474.243,-70.129,53.185,25.626,32.607
 14:52:05.822,eb:33:2e:f9:57:b5, 2085-97-101 04:117:02:7452,1.311,-0.344,4.865,46.021,604.004,47.729,56.349,28.79,37.573
 14:52:05.822,eb:33:2e:f9:57:b5, 2085-97-15 15:146:03:6162,2.155,0.53,3.166,43.701,508.301,71.655,59.722,31.201,43.445
 14:52:05.822,eb:33:2e:f9:57:b5, 2085-97-112 17:27:00:4267,2.243,0.259,2.631,54.443,379.333,55.176,62.864,32.772,48.34
 14:52:05.822,eb:33:2e:f9:57:b5, 2085-97-149 16:253:250:3996,1.988,-0.232,2.038,28.809,239.99,20.752,65.182,33.766,51.746
 14:52:06.332,eb:33:2e:f9:57:b5, 2085-97-96 14:227:242:4937,1.651,-1.083,2.166,-28.687,135.681,-2.869,66.281,34.442,53.679
 14:52:06.332,eb:33:2e:f9:57:b5, 2085-97-56 12:254:237:5255,1.537,-2.076,2.626,-78.003,84.961,-2.197,66.357,34.898,54.811
 14:52:06.332,eb:33:2e:f9:57:b5, 2085-97-195 13:19:239:4774,1.91,-2.228,2.397,-127.93,55.42,0.061,65.759,35.178,55.536
 14:52:06.332,eb:33:2e:f9:57:b5, 2085-97-08 15:00:240:4219,2.014,-2.039,2.318,-178.162,36.438,-22.644,64.446,35.458,55.953
 14:52:06.334,eb:33:2e:f9:57:b5, 2085-97-94 16:114:242:4028,2.146,-1.788,2.124,-226.624,25.208,-61.829,62.419,35.964,55.937
 14:52:06.334,eb:33:2e:f9:57:b5, 2085-97-208 16:114:244:3859,2.126,-1.556,1.976,-283.081,39.978,-104.614,59.738,36.848,55.767
 14:52:06.334,eb:33:2e:f9:57:b5, 2085-97-123 17:90:246:4090,2.087,-1.277,1.917,-319.763,47.302,-152.588,56.431,38.194,55.294
 14:52:06.335,eb:33:2e:f9:57:b5, 2085-97-226 15:43:247:3630,1.931,-1.15,1.885,-348.999,52.429,-187.805,52.597,39.913,54.553
 14:52:06.336,eb:33:2e:f9:57:b5, 2085-97-251 13:93:246:3151,1.559,-1.101,1.678,-377.625,52.795,-208.496,48.164,41.792,53.284
 14:52:06.336,eb:33:2e:f9:57:b5, 2085-97-84 11:179:243:3358,1.316,-1.372,1.543,-416.87,47.668,-199.646,43.165,43.621,51.812
 14:52:06.336,eb:33:2e:f9:57:b5, 2085-97-242 09:250:242:3388,1.235,-1.638,1.703,-470.825,66.04,-151.184,37.727,45.187,50.339
 14:52:06.336,eb:33:2e:f9:57:b5, 2085-97-130 10:35:245:2435,1.436,-1.5,1.452,-541.626,72.937,-70.129,32.162,46.423,49.691
 14:52:06.424,eb:33:2e:f9:57:b5, 2085-97-227 12:79:247:1653,1.831,-1.229,0.964,-596.436,3.479,17.456,26.395,46.884,49.609
 14:52:06.424,eb:33:2e:f9:57:b5, 2085-97-09 16:25:251:2327,2.198,-0.868,0.836,-616.15,-132.996,102.905,20.649,46,50.098
 14:52:06.424,eb:33:2e:f9:57:b5, 2085-97-69 18:189:254:4736,2.224,-0.372,1.732,-602.966,-262.268,172.363,15.205,43.561,51.004
 14:52:06.424,eb:33:2e:f9:57:b5, 2085-97-131 19:217:252:6681,2.615,-0.047,2.2,-583.069,-348.328,234.68,10.481,40.182,52.839
 14:52:06.664,eb:33:2e:f9:57:b5, 2085-97-154 17:66:01:6932,2.31,-0.126,3.897,-555.603,-336.426,267.944,6.323,36.282,55.289
 14:52:06.664,eb:33:2e:f9:57:b5, 2085-97-116 19:14:01:6436,2.479,0.171,3.242,-528.687,-374.939,270.081,2.593,32.47,58.233
 14:52:06.664,eb:33:2e:f9:57:b5, 2085-97-114 20:154:03:6802,2.54,0.197,3.212,-516.113,-377.197,239.136,-1.187,28.614,61.057
 14:52:06.664,eb:33:2e:f9:57:b5, 2085-97-199 19:173:07:6588,2.426,0.739,3.303,-509.338,-371.765,173.157,-5.164,24.999,63.589
 14:52:06.816,eb:33:2e:f9:57:b5, 2085-97-133 17:167:09:6271,1.671,1.113,3.19,-507.385,-382.019,80.2,-9.553,21.357,65.363
 14:52:06.816,eb:33:2e:f9:57:b5, 2085-97-198 12:152:236:5320,1.789,1.306,2.668,-501.526,-429.077,9.644,-14.2,17.562,66.638
 14:52:06.816,eb:33:2e:f9:57:b5, 2085-97-206 16:85:241:4675,2.422,-2.225,2.405,-471.497,162.354,-66.101,40.776,53.657,80.343
 14:52:06.816,eb:33:2e:f9:57:b5, 2085-113-58 00:245:221:-6495,2.761,-1.413,2.031,-565.491,210.815,-33.875,36.705,55.459,81.81
 14:52:06.816,eb:33:2e:f9:57:b5, 2085-97-46 24:111:251:2217,3.55,-0.977,1.656,-596.436,212.28,-27.039,34.514,56.349,82.656
 14:52:06.816,eb:33:2e:f9:57:b5, 2085-97-89 28:76:00:-480,3.524,-0.215,0.607,-630.066,164.001,-40.71,29.471,58.107,83.99
 14:52:06.816,eb:33:2e:f9:57:b5, 2085-97-27 27:15:00:-866,3.32,0.117,-0.516,-632.69,-7.751,-70.618,22.846,58.975,83.622
 14:52:06.818,eb:33:2e:f9:57:b5, 2085-97-179 25:225:254:1909,3.006,-0.083,0.18,-617.371,-207.642,-82.947,14.744,58.052,81.519
 14:52:06.818,eb:33:2e:f9:57:b5, 2085-97-157 22:154:254:3656,2.681,-0.19,1.485,-623.047,-301.758,-59.692,6.707,55.492,79.266
 14:52:06.818,eb:33:2e:f9:57:b5, 2085-97-15 20:111:255:3882,-1.139,-0.121,1.877,-621.338,-353.394,-24.658,-0.324,52.224,78.283
 14:52:06.818,eb:33:2e:f9:57:b5, 2085-97-35 246:66:29:11311,-1.32,2.861,5.447,-297.913,-472.046,340.576,-28.202,14.854,107.913
 14:52:06.818,eb:33:2e:f9:57:b5, 2085-97-65 244:207:44:11619,-1.545,4.532,5.469,-301.086,-392.822,364.746,-29.894,12.849,113.346
 14:52:06.818,eb:33:2e:f9:57:b5, 2085-97-248 242:239:69:12497,-1.689,7.01,6.116,-293.884,-279.785,327.698,-31.91,11.651,118.152
 14:52:06.820,eb:33:2e:f9:57:b5, 2085-97-106 243:102:87:9941,1.266,10.188,5.563,-203.491,-145.569,176.697,-33.75,11.327,121.525
 14:52:06.820,eb:33:2e:f9:57:b5, 2085-97-65 06:108:02:3476,0.381,0.756,1.801,11.475,-48.401,-24.719,-7.053,-0.956,107.507
 14:52:06.820,eb:33:2e:f9:57:b5, 2085-97-147 255:212:00:1928,-0.33,0.032,1.387,26.123,-21.24,-11.414,-6.899,-1.219,107.468
 14:52:06.820,eb:33:2e:f9:57:b5, 2085-97-143 255:202:00:1877,0.22,0.014,0.709,21.545,-26.794,-14.832,-6.52,-1.5,107.276
 14:52:06.822,eb:33:2e:f9:57:b5, 2085-97-47 03:163:01:2759,1.665,0.164,1.198,16.602,-11.108,-15.137,-6.35,-1.708,107.227
 14:52:06.822,eb:33:2e:f9:57:b5, 2085-97-229 13:05:05:9964,1.573,1.292,3.611,82.275,235.229,27.527,-5.081,3.955,107.831
 14:52:06.822,eb:33:2e:f9:57:b5, 2085-97-59 15:97:254:11668,2.176,-0.141,5.647,186.096,339.661,-8.972,-3.631,6.669,107.672
 14:52:06.822,eb:33:2e:f9:57:b5, 2085-97-43 17:106:250:9536,2.365,-0.481,5.231,278.076,495.117,-15.991,-1.214,10.904,107.347
 14:52:06.844,eb:33:2e:f9:57:b5, 2085-97-151 19:201:246:8090,-0.405,-0.979,4.281,377.136,591.614,-31.006,2.071,16.425,107.221
 14:52:06.844,eb:33:2e:f9:57:b5, 2085-97-161 248:136:00:6037,-1.642,-0.33,4.362,722.412,44.922,-315.002,31.679,36.14,101.541
 14:52:06.844,eb:33:2e:f9:57:b5, 2085-97-198 234:38:225:10641,-2.571,-1.229,3.732,352.844,217.896,-286.194,35.431,38.859,99.108
 14:52:06.844,eb:33:2e:f9:57:b5, 2085-97-66 243:127:252:3606,0.341,-3.146,6.261,147.156,662.048,20.142,39.293,43.226,101.596
 14:52:06.936,eb:33:2e:f9:57:b5, 2085-97-50 15:18:04:11878,2.411,-0.073,5.061,22.766,604.675,141.357,44.885,47.291,108.644
 14:52:06.936,eb:33:2e:f9:57:b5, 2085-113-81 00:72:181:3824,2.974,0.918,4.611,62.744,505.066,164.856,51.438,49.779,116.801
 14:52:06.936,eb:33:2e:f9:57:b5, 2085-97-12 27:03:03:7989,3.436,0.703,4.483,97.351,443.726,144.47,54.641,50.57,120.427
 14:52:06.936,eb:33:2e:f9:57:b5, 2085-97-129 26:169:00:2888,2.989,0.214,2.604,118.286,295.41,82.825,60.452,51.608,126.464
 14:52:07.323,eb:33:2e:f9:57:b5, 2085-97-55 21:163:253:2781,2.413,-0.017,0.698,55.481,63.904,-29.053,63.474,52.081,129.166
 14:52:07.323,eb:33:2e:f9:57:b5, 2085-97-209 16:154:247:7145,1.836,-0.667,2.635,-42.725,-80.139,-128.784,62.584,52.718,128.101
 14:52:07.323,eb:33:2e:f9:57:b5, 2085-97-171 12:89:242:8604,1.549,-1.416,3.962,-111.267,-89.478,-173.767,59.678,53.531,125.508
 14:52:07.323,eb:33:2e:f9:57:b5, 2085-97-161 11:198:240:8234,1.47,-1.849,4.266,-167.786,-4.517,-177.002,56.376,54.783,123.25
 14:52:08.073,eb:33:2e:f9:57:b5, 2085-97-246 12:10:241:6803,1.819,-1.914,3.707,-243.774,90.454,-137.207,53.569,56.206,122.388
 14:52:08.073,eb:33:2e:f9:57:b5, 2085-97-126 15:148:240:4965,2.026,-1.838,2.916,-326.599,132.141,-102.661,51.021,57.854,122.86
 14:52:08.073,eb:33:2e:f9:57:b5, 2085-97-225 17:78:239:3219,2.462,-2.009,1.924,-413.025,127.808,-73.12,48.021,59.233,123.734
 14:52:08.073,eb:33:2e:f9:57:b5, 2085-97-39 21:07:241:2415,2.735,-2.107,1.309,-500.549,112.854,-51.941,44.182,60.496,124.689
 14:52:08.102,eb:33:2e:f9:57:b5, 2085-97-29 22:212:245:2174,2.865,-1.557,1.086,-600.647,99.365,-38.452,39.276,61.452,125.414
 14:52:08.102,eb:33:2e:f9:57:b5, 2085-97-253 24:132:250:2387,3.582,-1,1.124,-689.697,74.158,-28.015,33.239,62.331,126.024
 14:52:08.102,eb:33:2e:f9:57:b5, 2085-97-228 30:82:02:2119,3.999,-0.238,1.276,-752.563,58.838,-32.166,26.054,62.875,126.09
 14:52:08.102,eb:33:2e:f9:57:b5, 2085-97-100 32:64:06:1886,3.925,0.615,0.908,-769.409,-57.434,-60.913,17.589,63.089,125.283
 14:52:08.162,eb:33:2e:f9:57:b5, 2085-97-38 29:110:03:3077,3.318,0.731,1.104,-731.934,-262.512,-80.566,7.982,61.469,122.882
 14:52:08.162,eb:33:2e:f9:57:b5, 2085-97-84 23:159:254:5809,2.413,0.077,2.126,-691.711,-427.429,-58.167,-0.681,57.909,121.113
 14:52:08.162,eb:33:2e:f9:57:b5, 2085-97-199 15:180:00:7874,1.732,-0.104,3.442,-675.415,-489.014,15.93,-7.344,53.075,121.278
 14:52:08.162,eb:33:2e:f9:57:b5, 2085-97-198 13:114:06:8840,1.803,0.355,4.15,-652.649,-489.807,108.887,-12.162,48.329,123.712
 14:52:08.167,eb:33:2e:f9:57:b5, 2085-97-144 12:65:17:7581,1.463,1.493,4.309,-613.953,-444.763,188.477,-15.804,44.011,127.414
 14:52:08.167,eb:33:2e:f9:57:b5, 2085-97-58 09:179:25:5683,0.682,2.69,3.188,-513.489,-495.239,217.59,-18.402,40.193,132.001
 14:52:08.167,eb:33:2e:f9:57:b5, 2085-97-110 01:207:28:6032,-0.304,3.459,2.705,-400.879,-597.595,219.177,-19.929,35.535,136.851
 14:52:08.167,eb:33:2e:f9:57:b5, 2085-97-135 249:180:35:7662,-1.383,3.886,3.336,-315.186,-613.708,240.784,-20.66,30.553,142.026
 14:52:08.283,eb:33:2e:f9:57:b5, 2085-97-75 241:150:47:8209,-2.007,5.214,3.975,-215.332,-553.65,270.264,-20.956,25.856,147.047
 14:52:08.283,eb:33:2e:f9:57:b5, 2085-97-245 29:122:242:8899,3.652,6.537,3.888,-82.153,-477.051,281.128,-20.418,22.055,151.919
 14:52:08.283,eb:33:2e:f9:57:b5, 2085-97-255 29:187:252:8388,3.715,-1.608,3.743,467.346,935.181,-61.157,12.964,26.34,146.761
 14:52:08.283,eb:33:2e:f9:57:b5, 2085-97-46 19:179:03:6305,1.423,0.208,4.073,686.096,683.228,-162.109,19.413,34.689,148.189
 14:52:08.285,eb:33:2e:f9:57:b5, 2085-97-200 02:181:08:12393,-0.829,1.676,4.241,925.171,37.72,-272.217,27.246,38.469,147.288
 14:52:08.285,eb:33:2e:f9:57:b5, 2085-97-181 08:46:242:7338,1.123,-0.083,6.112,839.478,-63.171,-258.606,34.041,39.122,143.679
 14:52:08.285,eb:33:2e:f9:57:b5, 2085-97-65 08:191:245:7832,0.887,-1.486,3.812,-150.757,-106.628,-101.013,86.699,36.799,-140.246
 14:52:08.285,eb:33:2e:f9:57:b5, 2085-97-16 07:20:248:8220,0.838,-1.137,3.803,-176.941,-100.891,-134.216,84.177,37.914,-141.592
 14:52:08.288,eb:33:2e:f9:57:b5, 2085-97-204 04:146:246:8444,0.387,-0.989,4.189,-169.373,-84.595,-160.034,81.381,39.166,-143.102
 14:52:08.288,eb:33:2e:f9:57:b5, 2085-97-110 02:101:242:8229,0.315,-1.444,4.081,-143.616,-91.064,-168.274,78.865,40.655,-144.575
 14:52:08.288,eb:33:2e:f9:57:b5, 2085-97-143 02:158:239:6847,0.365,-1.906,3.806,-156.372,-47.546,-153.32,76.306,41.957,-146.085
 14:52:08.288,eb:33:2e:f9:57:b5, 2085-97-181 03:123:239:4164,0.694,-2.104,2.702,-232.117,26.428,-114.014,74.004,43.231,-146.596
 14:52:08.291,eb:33:2e:f9:57:b5, 2085-97-149 07:115:243:1821,1.198,-1.882,1.472,-347.229,92.407,-68.359,71.202,44.143,-146.245
 14:52:08.291,eb:33:2e:f9:57:b5, 2085-97-137 11:97:249:-577,1.63,-1.164,0.225,-467.224,104.98,-41.748,67.874,44.984,-145.036
 14:52:08.291,eb:33:2e:f9:57:b5, 2085-97-150 13:248:251:-1191,1.787,-0.572,-0.578,-540.039,9.46,-46.692,62.913,45.494,-144.668
 14:52:08.292,eb:33:2e:f9:57:b5, 2085-97-74 14:11:253:-056,1.762,-0.444,-0.318,-554.443,-127.075,-54.81,56.552,45.593,-145.827
 14:52:08.294,eb:33:2e:f9:57:b5, 2085-97-14 13:32:254:1271,1.404,-0.256,0.291,-536.56,-261.658,-55.725,48.944,44.681,-148.738
 14:52:08.294,eb:33:2e:f9:57:b5, 2085-97-242 08:78:251:2875,0.806,-0.369,1.019,-522.095,-369.446,-40.161,41.138,42.731,-152.364
 14:52:08.294,eb:33:2e:f9:57:b5, 2085-97-64 04:149:248:4294,0.346,-0.791,1.741,-526.611,-421.936,8.118,33.497,39.479,-155.901
 14:52:08.294,eb:33:2e:f9:57:b5, 2085-97-23 02:112:250:5355,0.258,-0.903,2.42,-544.373,-412.598,77.881,26.812,35.612,-158.038
 14:52:08.296,eb:33:2e:f9:57:b5, 2085-97-47 02:113:00:5295,0.28,-0.299,2.653,-549.927,-390.564,140.503,20.786,31.349,-158.818
 14:52:08.296,eb:33:2e:f9:57:b5, 2085-97-86 249:44:24:6526,-1.041,0.372,2.497,-533.203,-395.264,174.072,15.529,27.136,-158.439
 14:52:08.296,eb:33:2e:f9:57:b5, 2085-97-222 245:206:32:5941,-1.472,3.515,3.102,-423.34,-348.694,62.073,-5.872,5.35,-152.891
 14:52:08.296,eb:33:2e:f9:57:b5, 2085-97-157 242:33:42:5844,-1.89,4.697,2.772,-433.899,-317.627,24.658,-10.107,2.148,-152.012
 14:52:08.523,eb:33:2e:f9:57:b5, 2085-97-140 238:113:53:6744,-2.558,5.922,3.06,-427.246,-285.767,-10.62,-14.535,-0.923,-151.326
 14:52:08.523,eb:33:2e:f9:57:b5, 2085-97-125 232:188:62:7494,-3.281,7.398,3.5,-363.708,-271.973,-49.255,-18.539,-3.653,-150.826
 14:52:08.523,eb:33:2e:f9:57:b5, 2085-97-138 227:193:61:7503,-3.752,7.903,3.706,-243.774,-260.376,-80.566,-21.643,-6.542,-150.557
 14:52:08.523,eb:33:2e:f9:57:b5, 2085-97-30 225:88:57:7240,-3.892,7.467,3.625,-125,-189.758,-82.703,-23.428,-8.959,-150.441
 14:52:08.525,eb:33:2e:f9:57:b5, 2085-97-165 225:106:52:6334,-3.525,6.826,3.345,-28.503,-70.984,-69.824,-24.148,-10.547,-150.661
 14:52:08.525,eb:33:2e:f9:57:b5, 2085-97-225 230:64:47:4468,-2.712,6.321,2.741,71.777,50.842,-54.077,-23.802,-10.8,-151.205
 14:52:08.525,eb:33:2e:f9:57:b5, 2085-97-176 236:230:34:2054,-2.228,5.23,1.592,186.462,98.816,-41.138,-22.308,-10.316,-152.029
 14:52:08.525,eb:33:2e:f9:57:b5, 2085-97-187 215:124:12:17547,-3.597,3.381,0.469,324.219,-39.429,-10.315,-19.869,-9.69,-152.562
 14:52:08.529,eb:33:2e:f9:57:b5, 2085-97-113 209:153:75:20544,-6.441,5.967,4.904,750,564.331,-70.374,-13.733,-6.328,-153.397
 14:52:08.529,eb:33:2e:f9:57:b5, 2085-97-240 22:162:38:11545,-3.958,10.787,-1.713,477.539,139.709,-340.149,-6.658,-0.055,-156.313
 14:52:08.529,eb:33:2e:f9:57:b5, 2085-97-244 224:07:246:-6467,1.842,0.662,-1.419,62.317,294.25,-65.674,-5.466,3.23,-156.802
 14:52:08.529,eb:33:2e:f9:57:b5, 2085-97-112 235:153:05:-3648,-1.038,-1.21,3.217,76.721,43.213,142.334,-4.488,2.351,-156.313
 14:52:08.529,eb:33:2e:f9:57:b5, 2085-97-202 11:129:03:4481,1.199,0.456,-0.713,10.559,-186.768,125.244,-4.098,1.857,-154.935
 14:52:08.529,eb:33:2e:f9:57:b5, 2085-97-91 03:230:03:2355,0.05,1.158,1.412,11.353,6.714,-6.653,-3.917,1.269,-154.462
 14:52:08.529,eb:33:2e:f9:57:b5, 2085-97-11 02:61:255:3661,-0.273,0.09,0.989,11.169,20.081,-39.795,-3.812,1.456,-154.808
 14:52:08.529,eb:33:2e:f9:57:b5, 2085-97-127 251:219:253:1302,-0.838,-0.136,1.138,28.076,58.044,-29.48,-3.576,1.923,-155.204
 14:52:08.531,eb:33:2e:f9:57:b5, 2085-97-195 253:131:255:2036,0.221,-0.295,0.336,11.108,-5.798,19.592,-3.351,2.148,-155.297
 14:52:08.531,eb:33:2e:f9:57:b5, 2085-97-139 03:120:00:3527,0.269,0.145,1.392,11.536,12.756,19.043,-3.241,2.104,-155.05
 14:52:08.531,eb:33:2e:f9:57:b5, 2085-97-88 02:239:00:2922,0.414,0.002,1.444,13.428,63.782,25.208,-3.071,2.538,-154.918
 14:52:08.531,eb:33:2e:f9:57:b5, 2085-97-182 251:102:250:10198,-0.798,0.185,2.487,64.636,18.555,-7.507,-2.747,2.966,-154.77
 14:52:08.553,eb:33:2e:f9:57:b5, 2085-97-148 254:192:245:12177,0.276,-1.388,6.128,255.249,9.583,4.883,-1.099,3.027,-154.924
 14:52:08.553,eb:33:2e:f9:57:b5, 2085-97-01 07:48:247:11018,1.037,-1.004,4.958,387.756,83.862,22.4,2.208,3.691,-154.677
 14:52:08.553,eb:33:2e:f9:57:b5, 2085-97-154 08:175:241:12185,1.75,-1.429,5.757,526.062,164.368,5.737,6.894,4.861,-154.479
 14:52:08.553,eb:33:2e:f9:57:b5, 2085-97-18 18:108:238:10357,2.792,-1.934,5.753,656.616,281.616,2.563,12.942,7.092,-154.023
 14:52:08.583,eb:33:2e:f9:57:b5, 2085-97-63 19:233:243:8407,2.633,-2.159,4.794,807.19,373.108,-26.978,20.457,10.25,-153.182
 14:52:08.583,eb:33:2e:f9:57:b5, 2085-97-45 22:136:03:11427,2.731,-0.858,4.162,1019.653,307.861,-96.375,29.861,13.722,-152.232
 14:52:08.583,eb:33:2e:f9:57:b5, 2085-97-183 14:155:00:20083,1.553,1.198,8.531,1211.121,32.898,-259.766,40.995,16.057,-152.759
 14:52:08.583,eb:33:2e:f9:57:b5, 2085-97-202 251:70:240:6250,-1.096,-2.384,7.566,1168.884,0,-299.255,52.608,18.094,-155.127
 14:52:08.613,eb:33:2e:f9:57:b5, 2085-97-237 251:51:01:4025,0.087,0.085,1.289,850.281,-168.03,-293.457,61.897,20.028,-157.495
 14:52:08.613,eb:33:2e:f9:57:b5, 2085-97-94 252:15:234:6272,-1.071,-1.279,2.67,445.007,-5.737,-313.232,67.236,22.308,-160.175
 14:52:08.613,eb:33:2e:f9:57:b5, 2085-97-39 249:185:240:4291,-0.326,-3.049,3.968,212.585,481.934,-166.199,70.889,25.378,-158.439
 14:52:08.613,eb:33:2e:f9:57:b5, 2085-97-136 04:22:246:11288,1.819,-1.711,3.731,-14.221,681.763,-16.296,74.482,27.977,-152.128
 14:52:08.673,eb:33:2e:f9:57:b5, 2085-97-176 20:138:05:10073,2.657,-0.123,5.754,5.859,612.854,87.341,77.877,28.993,-144.673
 14:52:08.673,eb:33:2e:f9:57:b5, 2085-97-155 20:23:255:7267,2.539,0.692,3.789,71.533,365.601,99.304,81.046,28.9,-138.966
 14:52:08.673,eb:33:2e:f9:57:b5, 2085-97-255 17:106:244:7786,1.816,-0.955,3.886,100.159,195.557,75.806,83.326,28.317,-136
 14:52:08.673,eb:33:2e:f9:57:b5, 2085-97-10 11:125:238:6202,1.206,-1.82,3.454,52.124,113.464,63.354,84.952,27.795,-134.198
 14:52:08.704,eb:33:2e:f9:57:b5, 2085-97-220 10:176:241:4702,1.462,-2.198,2.456,-13.55,16.968,43.945,85.391,27.23,-133.412
 14:52:08.704,eb:33:2e:f9:57:b5, 2085-97-212 09:164:247:5830,0.972,-1.26,2.577,-86.304,-93.933,-14.893,84.6,27.037,-133.929
 14:52:08.704,eb:33:2e:f9:57:b5, 2085-97-03 06:161:243:8918,0.617,-1.207,3.537,-133.606,-155.273,-78.674,82.612,27.323,-135.544
 14:52:08.704,eb:33:2e:f9:57:b5, 2085-97-193 03:32:240:10229,0.393,-1.827,4.942,-125.244,-130.676,-114.197,80.425,28.092,-137.351
 14:52:08.734,eb:33:2e:f9:57:b5, 2085-97-211 03:201:238:8712,0.582,-2.106,4.705,-106.506,-63.843,-134.216,78.536,29.075,-138.752
 14:52:08.734,eb:33:2e:f9:57:b5, 2085-97-216 04:107:238:6042,0.594,-2.166,3.651,-138.916,28.809,-139.709,77.097,30.405,-139.213
 14:52:08.734,eb:33:2e:f9:57:b5, 2085-97-81 04:141:238:3638,0.553,-2.17,2.319,-200.073,59.875,-137.756,75.35,31.794,-139.065
 14:52:08.734,eb:33:2e:f9:57:b5, 2085-97-94 05:161:236:2710,0.873,-2.292,1.45,-267.7,8.667,-130.371,72.96,33.179,-139.065
 14:52:08.795,eb:33:2e:f9:57:b5, 2085-97-202 07:25:237:2047,1.025,-2.455,1.212,-355.835,-44.678,-112.061,69.28,34.167,-139.9
 14:52:08.795,eb:33:2e:f9:57:b5, 2085-97-43 08:141:241:824,1.006,-2.13,0.718,-462.158,-69.763,-90.698,64.512,34.86,-141.01
 14:52:08.795,eb:33:2e:f9:57:b5, 2085-97-69 08:244:244:1270,1.009,-1.537,0.307,-576.782,-112.61,-71.96,58.26,35.041,-142.553
 14:52:08.795,eb:33:2e:f9:57:b5, 2085-97-185 07:71:247:3139,0.942,-1.258,1.073,-645.935,-173.035,-52.612,50.988,34.7,-144.393
 14:52:08.823,eb:33:2e:f9:57:b5, 2085-97-14 07:153:250:4622,0.759,-0.866,1.936,-652.283,-250.061,-31.006,43.044,33.437,-146.744
 14:52:08.823,eb:33:2e:f9:57:b5, 2085-97-53 05:144:250:5946,0.506,-0.628,2.553,-634.277,-323.975,0.61,35.37,31.256,-149.035
 14:52:08.823,eb:33:2e:f9:57:b5, 2085-97-245 02:128:250:6697,0.307,-0.713,3.101,-623.718,-352.661,43.945,28.043,28.103,-150.969
 14:52:08.823,eb:33:2e:f9:57:b5, 2085-97-150 02:10:254:7283,0.368,-0.547,3.475,-632.69,-334.229,89.6,21.352,24.664,-151.864
 14:52:08.884,eb:33:2e:f9:57:b5, 2085-97-111 03:155:04:6676,0.449,0.15,3.441,-633.667,-312.439,117.432,14.865,21.187,-151.908
 14:52:08.884,eb:33:2e:f9:57:b5, 2085-97-242 02:149:10:6109,0.213,0.992,3.081,-610.291,-333.74,118.958,8.822,17.803,-151.342
 14:52:08.884,eb:33:2e:f9:57:b5, 2085-97-106 00:227:12:6844,-0.157,1.511,3.07,-571.472,-383.667,110.168,3.005,13.964,-150.59
 14:52:08.884,eb:33:2e:f9:57:b5, 2085-97-103 252:229:17:7369,-0.793,1.816,3.535,-539.429,-393.005,105.713,-2.285,10.031,-149.507
 14:52:08.912,eb:33:2e:f9:57:b5, 2085-97-70 247:157:28:7360,-1.304,2.869,3.589,-538.208,-374.023,98.755,-7.586,6.174,-148.156
 14:52:08.912,eb:33:2e:f9:57:b5, 2085-97-24 245:40:39:6466,-1.38,4.263,3.458,-556.03,-327.087,72.571,-12.947,2.873,-146.673
 14:52:08.912,eb:33:2e:f9:57:b5, 2085-97-43 244:65:49:5332,-1.648,5.518,2.835,-557.617,-273.193,30.64,-18.638,0.055,-145.393
 14:52:08.912,eb:33:2e:f9:57:b5, 2085-97-144 240:200:57:6726,-2.321,6.788,2.735,-497.864,-287.659,-24.719,-23.961,-2.494,-144.371
 14:52:08.943,eb:33:2e:f9:57:b5, 2085-97-192 233:136:60:9275,-3.125,7.431,4.013,-382.568,-318.542,-71.716,-28.493,-5.609,-143.481
 14:52:08.943,eb:33:2e:f9:57:b5, 2085-97-239 229:239:64:9898,-3.094,7.72,4.817,-258.972,-259.094,-82.458,-31.729,-8.564,-142.674
 14:52:08.943,eb:33:2e:f9:57:b5, 2085-97-199 233:44:72:8222,-2.488,8.628,4.501,-133.911,-132.141,-94.299,-33.723,-10.668,-142.416
 14:52:08.943,eb:33:2e:f9:57:b5, 2085-97-71 237:74:70:6653,-2.294,9.088,3.554,-26.917,-73.303,-141.113,-34.371,-12.123,-142.855
 14:52:09.003,eb:33:2e:f9:57:b5, 2085-97-14 238:199:61:6203,-2.124,8.322,3.11,67.2,-33.752,-188.721,-33.893,-13.574,-144.025
 14:52:09.003,eb:33:2e:f9:57:b5, 2085-97-148 240:118:47:4821,-1.777,6.904,2.795,155.457,11.597,-218.201,-32.294,-14.782,-145.745
 14:52:09.003,eb:33:2e:f9:57:b5, 2085-97-77 225:99:06:19004,-4.479,4.954,1.693,254.456,-51.27,-276.855,-29.773,-15.837,-147.942
 14:52:09.003,eb:33:2e:f9:57:b5, 2085-97-156 230:229:250:14707,-4.172,4.249,1.444,957.764,691.04,-111.755,-21.66,-12.535,-150.584
 14:52:09.003,eb:33:2e:f9:57:b5, 2085-97-120 252:222:30:19682,-1.625,6.042,5.417,733.215,413.33,-272.705,-12.156,-4.417,-154.265
 14:52:09.034,eb:33:2e:f9:57:b5, 2085-113-58 00:213:223:-2085,-4.646,3.561,-1.206,168.396,561.89,49.683,-8.015,0.846,-155.583
 14:52:09.034,eb:33:2e:f9:57:b5, 2085-97-173 02:109:242:3269,-3.708,-0.691,-1.875,221.069,-42.847,-106.873,-6.921,1.307,-156.088
 14:52:09.034,eb:33:2e:f9:57:b5, 2085-97-76 226:04:05:-9386,1.922,0.254,-2.864,95.886,60.12,26.062,-5.504,2.109,-156.149
 14:52:09.034,eb:33:2e:f9:57:b5, 2085-97-00 20:16:09:6195,0.158,0.72,2.321,48.706,-234.558,36.804,-4.96,-0.39,-155.089
 14:52:09.063,eb:33:2e:f9:57:b5, 2085-97-140 00:156:02:1776,0.514,0.404,0.999,31.616,35.889,-36.499,-4.653,-0.396,-155.061
 14:52:09.063,eb:33:2e:f9:57:b5, 2085-97-204 249:115:254:1226,-0.427,-0.068,2.095,38.635,99.609,-59.692,-4.285,0.022,-155.693
 14:52:09.063,eb:33:2e:f9:57:b5, 2085-97-240 06:233:01:4652,-0.388,-0.039,0.926,41.809,28.687,-36.438,-3.9,0.648,-156.116
 14:52:09.063,eb:33:2e:f9:57:b5, 2085-97-62 248:180:254:048,0.72,-0.127,0.842,20.386,152.344,-12.939,-3.521,1.802,-156.561
 14:52:09.123,eb:33:2e:f9:57:b5, 2085-97-157 06:43:04:3448,0.601,0.573,0.777,8.179,36.804,-9.216,-3.345,2.39,-156.621
 14:52:09.123,eb:33:2e:f9:57:b5, 2085-97-202 245:188:247:9873,-1.455,0.357,2.381,28.748,93.384,-40.894,-3.263,3.159,-156.929
 14:52:09.123,eb:33:2e:f9:57:b5, 2085-97-117 248:244:242:11338,-0.88,-1.392,6.177,211.975,149.658,-20.508,-1.934,4.334,-157.396
 14:52:09.123,eb:33:2e:f9:57:b5, 2085-97-129 250:98:245:5965,-0.958,-1.441,3.534,324.524,229.431,112.915,0.983,6.663,-156.863
 14:52:09.152,eb:33:2e:f9:57:b5, 2085-97-212 250:183:242:8966,-0.181,-1.355,3.539,426.514,102.6,141.541,4.922,8.207,-155.407
 14:52:09.152,eb:33:2e:f9:57:b5, 2085-97-147 02:67:239:9893,0.875,-1.881,4.685,574.463,61.157,143.555,10.267,8.696,-153.896
 14:52:09.152,eb:33:2e:f9:57:b5, 2085-97-152 09:150:235:11528,1.533,-2.358,5.414,735.962,102.356,125.183,17.095,9.124,-152.347
 14:52:09.153,eb:33:2e:f9:57:b5, 2085-97-228 06:231:237:11639,0.476,-2.744,5.938,919.434,245.483,83.191,25.763,10.311,-150.787
 14:52:09.183,eb:33:2e:f9:57:b5, 2085-97-229 00:50:253:16304,-0.013,-1.808,6.442,1031.067,316.711,75.562,36.068,12.519,-148.541
 14:52:09.183,eb:33:2e:f9:57:b5, 2085-97-59 03:54:247:20832,-1.118,0.58,9.721,1198.73,50.537,-53.162,47.538,13.771,-147.118
 14:52:09.183,eb:33:2e:f9:57:b5, 2085-97-135 243:107:09:6308,-0.618,-1.36,6.312,1033.569,99.121,-15.32,59.073,14.579,-146.717
 14:52:09.183,eb:33:2e:f9:57:b5, 2085-97-251 09:94:249:3696,1.556,1.646,2.609,666.016,85.266,-59.998,67.637,15.117,-146.124
 14:52:09.244,eb:33:2e:f9:57:b5, 2085-97-11 08:74:238:4748,1.063,-2.193,0.577,212.341,387.573,-100.83,72.323,16.815,-143.998
 14:52:09.244,eb:33:2e:f9:57:b5, 2085-97-159 10:107:00:5028,1.956,-1.45,2.219,73.303,594.421,-56.519,75.108,18.979,-138.856
 14:52:09.244,eb:33:2e:f9:57:b5, 2085-97-46 18:245:09:10185,2.342,0.555,4.7,26.245,455.994,-45.41,77.173,20.858,-133.539
 14:52:09.244,eb:33:2e:f9:57:b5, 2085-97-164 15:88:00:8191,1.567,0.898,4.647,135.986,174.5,-38.147,79.063,21.78,-130.594
 14:52:09.273,eb:33:2e:f9:57:b5, 2085-97-230 10:69:247:8259,1.17,-0.642,3.738,169.373,37.292,-62.988,81.019,22.451,-129.732
 14:52:09.273,eb:33:2e:f9:57:b5, 2085-97-32 08:102:243:9633,0.896,-1.352,4.397,109.314,32.593,-76.965,82.419,23.126,-129.595
 14:52:09.273,eb:33:2e:f9:57:b5, 2085-97-76 06:11:241:8419,0.884,-1.71,4.599,13.611,80.933,-83.069,83.21,24.005,-129.029
 14:52:09.273,eb:33:2e:f9:57:b5, 2085-97-244 09:174:243:6088,1.519,-1.834,3.353,-67.322,87.402,-85.571,83.134,24.879,-128.172
 14:52:09.304,eb:33:2e:f9:57:b5, 2085-97-130 12:91:248:6373,1.498,-1.149,3.019,-101.501,1.648,-127.441,82.348,25.972,-127.864
 14:52:09.304,eb:33:2e:f9:57:b5, 2085-97-41 11:82:246:7537,1.288,-1.029,3.382,-93.506,-66.65,-183.167,80.931,27.427,-128.606
 14:52:09.304,eb:33:2e:f9:57:b5, 2085-97-172 08:55:242:7653,0.786,-1.418,3.841,-73.792,-86.609,-225.281,79.481,29.333,-129.902
 14:52:09.304,eb:33:2e:f9:57:b5, 2085-97-07 05:222:236:6260,0.521,-2.063,3.364,-81.97,-89.783,-241.699,77.833,31.421,-131.49
 14:52:09.364,eb:33:2e:f9:57:b5, 2085-97-119 03:65:233:4983,0.422,-2.71,2.776,-140.076,-88.623,-229.675,75.817,33.525,-133.165
 14:52:09.364,eb:33:2e:f9:57:b5, 2085-97-206 03:179:233:3446,0.593,-2.843,2.059,-238.281,-62.256,-195.19,72.867,35.294,-134.841
 14:52:09.364,eb:33:2e:f9:57:b5, 2085-97-128 06:204:236:1702,0.974,-2.661,1.225,-352.173,-34.79,-151.123,69.142,36.766,-136.027
 14:52:09.364,eb:33:2e:f9:57:b5, 2085-97-63 09:246:241:048,1.329,-2.085,0.388,-468.201,-27.771,-117.004,64.248,37.798,-137.104
 14:52:09.393,eb:33:2e:f9:57:b5, 2085-97-167 11:224:245:-471,1.464,-1.491,-0.246,-568.97,-80.2,-104.004,58.228,38.502,-138.301
 14:52:09.393,eb:33:2e:f9:57:b5, 2085-97-149 11:30:248:1170,1.446,-1.13,0.1,-621.887,-189.209,-98.511,50.68,38.441,-140.614
 14:52:09.393,eb:33:2e:f9:57:b5, 2085-97-109 11:03:250:3509,1.313,-0.845,1.125,-620.422,-305.115,-87.463,42.501,37.37,-143.74
 14:52:09.393,eb:33:2e:f9:57:b5, 2085-97-250 08:199:249:5210,0.923,-0.743,2.196,-597.168,-385.864,-64.087,34.239,34.969,-147.305
 14:52:09.423,eb:33:2e:f9:57:b5, 2085-97-219 05:101:249:6328,0.558,-0.811,2.83,-582.52,-425.11,-30.762,26.73,31.668,-150.26
 14:52:09.423,eb:33:2e:f9:57:b5, 2085-97-208 03:123:250:7098,0.389,-0.805,3.308,-591.98,-413.208,11.841,19.737,27.713,-152.358
 14:52:09.423,eb:33:2e:f9:57:b5, 2085-97-59 02:236:253:6435,0.348,-0.538,3.413,-609.131,-388.977,56.519,13.337,23.796,-153.221
 14:52:09.423,eb:33:2e:f9:57:b5, 2085-97-12 04:82:03:6509,0.55,0.064,3.059,-615.906,-403.259,87.097,7.092,19.682,-153.248
 14:52:09.484,eb:33:2e:f9:57:b5, 2085-97-128 03:10:09:7144,0.151,0.753,3.355,-610.596,-423.279,97.534,1.148,15.48,-152.562
 14:52:09.484,eb:33:2e:f9:57:b5, 2085-97-246 254:24:16:7614,-0.409,1.609,3.6,-586.609,-453.43,91.187,-4.697,11.019,-151.485
 14:52:09.484,eb:33:2e:f9:57:b5, 2085-97-164 250:95:22:8277,-0.922,2.398,3.88,-561.401,-474.731,83.435,-10.195,6.487,-149.996
 14:52:09.484,eb:33:2e:f9:57:b5, 2085-97-220 246:21:30:8685,-1.358,3.229,4.16,-540.161,-442.993,85.571,-15.667,2.065,-148.162
 14:52:09.573,eb:33:2e:f9:57:b5, 2085-97-251 243:123:40:8780,-1.617,4.389,4.241,-506.653,-378.723,90.82,-20.896,-1.511,-146.036
 14:52:09.573,eb:33:2e:f9:57:b5, 2085-97-80 242:127:51:9463,-1.92,5.72,4.365,-446.594,-333.252,86.609,-25.856,-4.482,-143.833
 14:52:09.573,eb:33:2e:f9:57:b5, 2085-97-202 237:97:65:10927,-2.666,7.233,4.994,-376.282,-308.777,76.477,-30.163,-6.916,-141.597
 14:52:09.573,eb:33:2e:f9:57:b5, 2085-97-78 232:103:79:10029,-3.135,9.193,5.293,-256.836,-302.795,56.213,-33.717,-9.207,-139.422
 14:52:09.634,eb:33:2e:f9:57:b5, 2085-97-193 229:55:80:8532,-3.372,10.119,4.509,-81.543,-305.908,25.94,-35.7,-11.519,-137.291
 14:52:09.634,eb:33:2e:f9:57:b5, 2085-97-172 229:226:74:7560,-3.08,9.773,3.899,54.138,-235.046,0.916,-36.134,-13.722,-135.582
 14:52:09.634,eb:33:2e:f9:57:b5, 2085-97-13 233:174:66:6118,-2.697,8.866,3.425,126.648,-102.905,-30.273,-35.354,-15.156,-134.709
 14:52:09.634,eb:33:2e:f9:57:b5, 2085-97-24 236:150:56:3978,-2.213,7.719,2.473,159.79,6.531,-61.951,-33.854,-15.782,-134.956
 14:52:09.636,eb:33:2e:f9:57:b5, 2085-97-148 240:230:41:2441,-1.723,6.321,1.516,248.474,11.23,-96.13,-31.619,-16.057,-135.758
 14:52:09.636,eb:33:2e:f9:57:b5, 2085-97-184 242:220:20:1389,-1.624,3.924,0.893,385.254,-44.006,-120.667,-28.092,-16.826,-136.741
 14:52:09.636,eb:33:2e:f9:57:b5, 2085-97-163 244:216:254:2504,-3.516,1.307,0.745,490.54,-79.59,-121.277,-23.362,-17.985,-137.587
 14:52:09.636,eb:33:2e:f9:57:b5, 2085-97-15 241:104:28:12695,2.124,-2.065,5.984,1014.771,523.682,-256.104,-15.568,-18.188,-139.713
 14:52:09.636,eb:33:2e:f9:57:b5, 2085-97-247 50:192:77:13080,-7.036,0.532,4.342,204.773,736.755,-359.436,-7.191,-12.123,-147.156
 14:52:09.636,eb:33:2e:f9:57:b5, 2085-97-172 198:18:226:-10917,-1.542,-1.284,-4.133,54.688,672.913,-47.424,-7.07,-5.087,-147.881
 14:52:09.636,eb:33:2e:f9:57:b5, 2085-97-16 231:77:247:-3936,-2.076,-0.448,1.273,112.915,19.47,97.839,-5.839,-4.856,-147.211
 14:52:09.636,eb:33:2e:f9:57:b5, 2085-97-99 27:134:09:8405,2.54,0.08,-2.581,32.654,-368.042,163.391,-5.51,-5.713,-145.756
 14:52:09.664,eb:33:2e:f9:57:b5, 2085-97-17 249:137:00:-1747,-0.691,1.414,2.661,13.794,170.227,-8.484,-5.317,-6.389,-145.02
 14:52:09.664,eb:33:2e:f9:57:b5, 2085-97-225 10:166:04:5397,0.935,-0.185,0.731,22.766,-48.889,-2.075,-5.142,-5.999,-145.217
 14:52:09.664,eb:33:2e:f9:57:b5, 2085-97-184 254:129:253:2791,-1.104,0.058,2.637,36.194,177.49,-39.856,-4.774,-5.279,-145.629
 14:52:09.664,eb:33:2e:f9:57:b5, 2085-97-152 03:101:05:-546,0.565,-0.441,-0.196,28.625,77.576,30.334,-4.389,-3.675,-145.833
 14:52:09.725,eb:33:2e:f9:57:b5, 2085-97-21 247:64:248:11195,-1.799,0.115,3.807,80.933,46.021,-40.283,-3.917,-3.73,-145.898
 14:52:09.725,eb:33:2e:f9:57:b5, 2085-113-81 00:253:36:-1045,-0.473,-1.728,6.143,263.977,54.626,-7.507,-2.021,-3.203,-146.327
 14:52:09.725,eb:33:2e:f9:57:b5, 2085-97-219 02:159:247:10232,0.378,-1.708,6.19,335.632,119.812,48.523,-0.478,-2.769,-146.201
 14:52:09.725,eb:33:2e:f9:57:b5, 2085-97-213 01:41:243:10250,0.436,-1.089,4.592,453.491,130.981,64.514,3.428,-1.291,-145.508
 14:52:09.754,eb:33:2e:f9:57:b5, 2085-97-245 07:120:237:11902,1.469,-2.032,5.314,604.309,139.587,64.453,8.849,-0.093,-144.8
 14:52:09.754,eb:33:2e:f9:57:b5, 2085-97-241 15:47:233:9629,1.828,-2.685,5.38,757.996,237.366,50.659,15.754,1.642,-143.778
 14:52:09.754,eb:33:2e:f9:57:b5, 2085-97-173 04:174:237:10283,-0.157,-2.832,4.056,916.504,332.275,14.16,24.351,4.312,-142.498
 14:52:09.754,eb:33:2e:f9:57:b5, 2085-97-24 249:255:246:22723,-0.042,-2.143,8.05,1062.622,302.002,1.221,34.415,7.158,-140.878
 14:52:09.783,eb:33:2e:f9:57:b5, 2085-97-49 02:89:242:12665,-0.487,-1.214,10.444,1229.858,157.41,-40.833,46.395,8.844,-139.916
 14:52:09.783,eb:33:2e:f9:57:b5, 2085-97-73 253:203:11:1081,0.776,-0.597,2.014,979.065,155.945,-6.958,57.711,10.02,-138.549
 14:52:09.783,eb:33:2e:f9:57:b5, 2085-97-157 12:200:00:1202,2.192,0.931,1.415,642.822,75.195,-68.848,65.797,10.69,-138.049
 14:52:09.783,eb:33:2e:f9:57:b5, 2085-97-236 13:43:252:4297,1.497,-0.342,0.484,313.416,254.028,-186.768,70.477,12.448,-136.945
 14:52:09.873,eb:33:2e:f9:57:b5, 2085-97-250 10:185:10:3880,1.585,0.419,1.344,213.135,388.245,-226.624,73.718,15.507,-134.094
 14:52:09.873,eb:33:2e:f9:57:b5, 2085-97-161 11:135:09:9159,1.297,1.448,3.632,146.973,209.595,-220.642,75.965,18.539,-131.803
 14:52:09.873,eb:33:2e:f9:57:b5, 2085-97-47 09:45:254:12158,1.106,0.534,5.311,190.857,113.098,-191.223,77.964,20.819,-130.853
 14:52:09.873,eb:33:2e:f9:57:b5, 2085-97-133 09:186:243:12005,1.277,-0.96,6.171,226.685,154.968,-142.761,80.475,22.692,-129.781
 14:52:09.874,eb:33:2e:f9:57:b5, 2085-97-155 10:229:239:7990,1.356,-1.867,4.982,213.745,193.542,-85.083,83.397,23.989,-128.024
 14:52:09.874,eb:33:2e:f9:57:b5, 2085-97-187 10:116:238:5148,1.309,-2.139,3.077,125.427,143.311,-41.565,85.847,24.747,-126.178
 14:52:09.874,eb:33:2e:f9:57:b5, 2085-97-234 09:76:236:4757,1.182,-2.299,2.327,11.292,60.12,-18.982,86.841,25.043,-125.189
 14:52:09.874,eb:33:2e:f9:57:b5, 2085-97-209 09:72:239:4691,1.371,-2.349,2.213,-66.956,2.075,-10.742,86.605,25.181,-124.832
 14:52:09.903,eb:33:2e:f9:57:b5, 2085-97-25 11:198:244:5779,1.18,-1.7,2.61,-85.205,-81.299,-38.879,85.496,25.334,-125.425
 14:52:09.903,eb:33:2e:f9:57:b5, 2085-97-210 07:22:246:5595,0.834,-1.269,2.762,-87.219,-138.916,-83.679,84.067,25.862,-126.7
 14:52:09.903,eb:33:2e:f9:57:b5, 2085-97-204 04:244:244:5905,0.175,-1.271,2.828,-98.999,-176.575,-121.521,82.189,26.669,-128.727
 14:52:09.903,eb:33:2e:f9:57:b5, 2085-97-243 254:123:241:6040,-0.381,-1.553,2.736,-122.742,-216.125,-136.597,79.986,27.664,-131.067
 14:52:09.993,eb:33:2e:f9:57:b5, 2085-97-72 252:102:235:7051,-0.479,-2.197,3.239,-162.781,-246.033,-120.789,77.064,28.416,-134.099
 14:52:09.993,eb:33:2e:f9:57:b5, 2085-97-118 252:60:233:5815,-0.301,-2.82,3.304,-235.291,-196.716,-73.914,73.762,28.801,-136.813
 14:52:09.993,eb:33:2e:f9:57:b5, 2085-97-162 255:19:236:3647,0.26,-2.782,2.323,-350.22,-122.314,-8.972,69.807,28.625,-138.757
 14:52:09.993,eb:33:2e:f9:57:b5, 2085-97-17 05:227:242:1990,0.967,-2.083,1.324,-484.009,-36.194,43.213,65.242,28.147,-139.4
 14:52:09.995,eb:33:2e:f9:57:b5, 2085-97-232 10:42:248:2030,1.636,-1.306,0.863,-571.106,-22.583,47.852,59.766,27.559,-139.449
 14:52:09.995,eb:33:2e:f9:57:b5, 2085-97-249 13:38:253:1951,1.731,-0.653,1.024,-582.947,-82.214,19.348,53.811,26.988,-139.686
 14:52:09.995,eb:33:2e:f9:57:b5, 2085-97-148 13:77:254:2380,1.603,-0.233,0.947,-553.406,-217.712,-23.743,47.406,25.966,-141.185
 14:52:09.995,eb:33:2e:f9:57:b5, 2085-97-119 11:50:253:3863,1.24,-0.254,1.513,-542.419,-333.984,-54.871,40.886,24.203,-143.685
 14:52:10.174,eb:33:2e:f9:57:b5, 2085-97-03 08:214:250:5552,0.744,-0.489,2.312,-556.458,-405.273,-69.275,34.102,21.517,-146.838
 14:52:10.174,eb:33:2e:f9:57:b5, 2085-97-137 03:85:249:6937,0.167,-0.768,3.094,-581.116,-432.739,-55.786,27.416,18.204,-149.711
 14:52:10.174,eb:33:2e:f9:57:b5, 2085-97-65 00:82:249:7928,0.034,-0.863,3.612,-601.807,-432.983,-9.338,20.764,14.288,-151.952
 14:52:10.174,eb:33:2e:f9:57:b5, 2085-97-239 00:07:252:8289,0.239,-0.722,4.057,-609.68,-409.119,53.589,14.458,10.195,-153.001
 14:52:10.176,eb:33:2e:f9:57:b5, 2085-97-18 03:01:01:7795,0.476,-0.202,3.914,-605.469,-390.564,103.088,8.267,6.053,-153.023
 14:52:10.176,eb:33:2e:f9:57:b5, 2085-97-181 03:195:06:7262,0.321,0.484,3.686,-589.111,-412.781,119.263,2.346,1.978,-152.232
 14:52:10.176,eb:33:2e:f9:57:b5, 2085-97-209 00:229:12:7484,-0.179,1.223,3.47,-563.904,-487.488,112,-3.521,-2.609,-151.051
 14:52:10.176,eb:33:2e:f9:57:b5, 2085-97-84 251:158:19:9058,-1.017,2.018,4.076,-549.255,-540.1,97.473,-9.212,-7.69,-149.42
 14:52:10.176,eb:33:2e:f9:57:b5, 2085-97-81 245:64:29:9562,-1.594,2.996,4.586,-539.368,-512.878,81.726,-15.128,-12.777,-147.415
 14:52:10.177,eb:33:2e:f9:57:b5, 2085-97-110 241:91:40:9746,-2.055,4.374,4.731,-511.536,-436.829,55.847,-20.956,-17.073,-145.212
 14:52:10.177,eb:33:2e:f9:57:b5, 2085-97-51 237:90:48:9980,-2.757,5.613,4.747,-456.482,-366.516,14.099,-26.532,-20.627,-143.207
 14:52:10.179,eb:33:2e:f9:57:b5, 2085-97-249 229:53:52:10739,-3.763,6.344,5.098,-388.916,-333.496,-36.682,-31.366,-23.736,-141.515
 14:52:10.179,eb:33:2e:f9:57:b5, 2085-97-108 222:49:54:10585,-4.413,6.66,5.265,-308.899,-291.809,-67.444,-35.497,-26.724,-140.136
 14:52:10.179,eb:33:2e:f9:57:b5, 2085-97-108 221:21:54:9781,-3.995,6.828,5.027,-217.407,-193.726,-64.636,-38.568,-29.081,-139.092
 14:52:10.179,eb:33:2e:f9:57:b5, 2085-97-05 228:58:52:7442,-2.95,6.65,4.304,-140.93,-44.495,-43.091,-40.512,-30.333,-138.779
 14:52:10.179,eb:33:2e:f9:57:b5, 2085-97-47 235:70:49:4269,-2.278,6.342,2.772,-75.928,66.528,-9.155,-41.38,-30.339,-139.18
 14:52:10.203,eb:33:2e:f9:57:b5, 2085-97-131 240:23:45:1563,-1.766,5.914,1.379,18.738,43.762,34.607,-41.479,-29.784,-139.631
 14:52:10.203,eb:33:2e:f9:57:b5, 2085-97-66 241:195:37:920,-1.971,5.273,0.348,152.771,-94.666,79.041,-40.93,-29.586,-138.906
 14:52:10.203,eb:33:2e:f9:57:b5, 2085-97-241 09:174:29:20162,0.431,3.819,1.091,405.701,-288.94,72.998,-39.534,-30.41,-136.862
 14:52:10.203,eb:33:2e:f9:57:b5, 2085-97-237 10:233:25:16835,1.721,4.565,-0.178,1216.492,686.829,-128.967,-28.768,-28.202,-138.713
 14:52:10.263,eb:33:2e:f9:57:b5, 2085-97-103 203:181:26:20365,3.386,6.8,10.5,903.564,851.44,-357.544,-16.37,-18.979,-144.591
 14:52:10.263,eb:33:2e:f9:57:b5, 2085-97-169 08:113:67:-2721,-3.074,-1.792,6.203,338.745,801.636,429.199,-8.69,-13.381,-147.025
 14:52:10.263,eb:33:2e:f9:57:b5, 2085-97-59 183:132:228:-15893,-0.442,0.104,-3.188,27.954,672.668,-78.186,-6.954,-8.201,-147.777
 14:52:10.263,eb:33:2e:f9:57:b5, 2085-97-135 13:118:07:5369,0.252,-0.519,-0.351,118.469,-423.401,87.769,-6.163,-8.08,-147.228
 14:52:10.294,eb:33:2e:f9:57:b5, 2085-97-208 01:130:03:1317,1.618,0.583,0.624,34.424,-39.551,53.589,-5.812,-8.948,-146.239
 14:52:10.294,eb:33:2e:f9:57:b5, 2085-97-25 07:205:03:3336,-0.771,0.768,2.581,43.335,35.95,-20.142,-5.493,-9.289,-145.992
 14:52:10.294,eb:33:2e:f9:57:b5, 2085-97-167 243:222:249:-128,-1.201,-0.262,0.488,41.016,80.75,-28.564,-4.982,-8.251,-146.508
 14:52:10.294,eb:33:2e:f9:57:b5, 2085-97-44 12:163:04:4007,1.718,-0.239,-0.026,17.761,-78.003,69.275,-4.774,-8.157,-146.146
 14:52:10.354,eb:33:2e:f9:57:b5, 2085-97-145 01:24:03:1922,1.193,0.795,1.839,-26.55,159.729,17.395,-4.79,-7.844,-145.827
 14:52:10.354,eb:33:2e:f9:57:b5, 2085-97-240 12:14:06:5254,-0.122,0.597,1.834,26.245,57.373,-53.406,-4.779,-6.883,-146.113
 14:52:10.354,eb:33:2e:f9:57:b5, 2085-97-229 235:46:244:6279,-2.37,0.085,2.806,51.27,218.201,-111.572,-4.274,-5.455,-147.14
 14:52:10.354,eb:33:2e:f9:57:b5, 2085-97-126 251:148:249:8762,0.06,-1.525,3.575,226.868,9.277,-42.725,-2.807,-4.417,-147.909
 14:52:10.356,eb:33:2e:f9:57:b5, 2085-97-31 250:242:245:5963,-0.843,-0.605,3.985,305.237,136.902,-24.902,0.126,-3.84,-148.354
 14:52:10.356,eb:33:2e:f9:57:b5, 2085-97-199 00:92:247:7273,0.255,-1.259,2.969,365.051,118.835,56.702,3.444,-2.428,-148.079
 14:52:10.356,eb:33:2e:f9:57:b5, 2085-97-102 04:167:248:9197,0.618,-0.824,3.628,435.913,127.136,96.924,7.482,-1.165,-147.14
 14:52:10.356,eb:33:2e:f9:57:b5, 2085-97-17 04:51:239:11236,0.68,-1.508,5.191,571.045,108.887,84.595,12.557,-0.319,-146.08
 14:52:10.414,eb:33:2e:f9:57:b5, 2085-97-128 07:145:237:12311,0.795,-2.402,5.666,710.449,200.439,89.905,19.078,0.939,-144.838
 14:52:10.414,eb:33:2e:f9:57:b5, 2085-97-125 04:195:244:12345,0.365,-1.857,5.959,857.727,304.993,55.359,27.043,3.087,-143.102
 14:52:10.414,eb:33:2e:f9:57:b5, 2085-97-221 03:149:246:14269,0.44,-0.957,6.67,986.389,224.182,0.732,36.502,5.251,-141.476
 14:52:10.414,eb:33:2e:f9:57:b5, 2085-97-213 253:97:245:8080,-1.104,-1.355,5.739,1014.648,174.5,-17.883,46.824,6.801,-140.251
 14:52:10.443,eb:33:2e:f9:57:b5, 2085-97-39 250:174:255:4338,0.273,-0.515,2.444,871.887,99.609,-4.761,56.376,7.789,-139.197
 14:52:10.443,eb:33:2e:f9:57:b5, 2085-97-184 10:188:04:2781,1.433,0.133,1.899,618.835,32.715,-10.559,63.853,8.047,-138.757
 14:52:10.443,eb:33:2e:f9:57:b5, 2085-97-204 06:74:255:6345,0.589,0.177,2.33,353.394,148.926,-125.671,68.494,9.064,-138.384
 14:52:10.443,eb:33:2e:f9:57:b5, 2085-97-134 05:145:255:4630,1.024,0.242,1.519,199.219,264.648,-167.542,71.554,11.223,-136.599
 14:52:10.473,eb:33:2e:f9:57:b5, 2085-97-67 08:16:254:8540,1.075,-0.225,3.666,82.275,255.981,-149.353,73.163,13.546,-134.615
 14:52:10.473,eb:33:2e:f9:57:b5, 2085-97-189 08:150:253:8555,1.021,-0.271,4.389,99.182,182.861,-117.004,74.471,15.419,-132.786
 14:52:10.473,eb:33:2e:f9:57:b5, 2085-97-223 08:56:251:7674,1.17,-0.376,3.708,136.719,93.811,-98.511,75.97,16.787,-131.721
 14:52:10.473,eb:33:2e:f9:57:b5, 2085-113-81 00:85:29:11953,1.242,-0.855,3.928,141.174,41.687,-86.426,77.498,17.809,-131.331
 14:52:10.473,eb:33:2e:f9:57:b5, 2085-97-196 09:156:244:8365,1.259,-1.138,4.208,135.559,50.354,-85.083,78.184,18.254,-131.248
 14:52:10.594,eb:33:2e:f9:57:b5, 2085-97-85 10:145:242:6483,1.298,-1.569,3.682,117.798,43.945,-78.552,79.568,19.144,-130.858
 14:52:10.594,eb:33:2e:f9:57:b5, 2085-97-41 11:101:242:4526,1.531,-1.774,2.589,78.857,12.329,-78.491,80.541,19.94,-130.776
 14:52:10.594,eb:33:2e:f9:57:b5, 2085-97-249 11:56:244:3449,1.473,-1.612,1.958,25.94,-59.021,-102.661,80.881,20.786,-131.254
 14:52:10.594,eb:33:2e:f9:57:b5, 2085-97-165 10:166:243:4112,1.206,-1.431,1.792,-34.668,-121.704,-134.583,80.288,21.786,-132.556
 14:52:10.624,eb:33:2e:f9:57:b5, 2085-97-76 08:243:239:5639,0.706,-1.764,2.42,-77.881,-154.297,-152.222,78.981,22.961,-134.335
 14:52:10.624,eb:33:2e:f9:57:b5, 2085-97-128 03:153:236:5681,0.304,-2.233,2.81,-87.585,-174.622,-147.888,77.223,24.077,-136.483
 14:52:10.624,eb:33:2e:f9:57:b5, 2085-97-252 00:146:232:5396,0.115,-2.678,2.873,-105.347,-218.872,-121.643,75.234,24.911,-138.977
 14:52:10.624,eb:33:2e:f9:57:b5, 2085-97-214 00:241:229:3938,-0.003,-3.138,2.379,-169.983,-231.262,-73.669,72.62,25.175,-141.817
 14:52:10.626,eb:33:2e:f9:57:b5, 2085-97-220 00:213:229:1195,0.542,-3.339,1.202,-292.542,-206.238,-0.183,69.274,24.802,-144.168
 14:52:10.626,eb:33:2e:f9:57:b5, 2085-97-124 06:68:237:916,0.996,-2.788,0.376,-440.613,-179.626,62.5,64.688,23.654,-146.08
 14:52:10.626,eb:33:2e:f9:57:b5, 2085-97-142 09:51:242:2353,1.377,-2.055,0.814,-532.776,-192.932,87.891,59.178,22.099,-147.382
 14:52:10.626,eb:33:2e:f9:57:b5, 2085-97-69 12:16:249:2837,1.571,-1.301,1.3,-542.114,-254.272,78.43,53.119,20.105,-148.964
 14:52:10.684,eb:33:2e:f9:57:b5, 2085-97-03 12:139:252:3442,1.355,-0.557,1.458,-520.447,-355.896,43.091,47.137,17.661,-151.018
 14:52:10.684,eb:33:2e:f9:57:b5, 2085-97-40 09:156:251:4951,0.934,-0.447,2.033,-508.545,-454.407,-0.671,41.127,14.496,-153.973
 14:52:10.684,eb:33:2e:f9:57:b5, 2085-97-221 05:68:249:6604,0.513,-0.689,2.82,-519.226,-518.433,-37.415,35.277,10.756,-157.247
 14:52:10.684,eb:33:2e:f9:57:b5, 2085-97-158 01:142:246:8042,-0.137,-0.994,3.616,-545.959,-542.053,-56.274,29.35,6.427,-160.659
 14:52:10.984,eb:33:2e:f9:57:b5, 2085-97-39 252:93:243:9405,-0.759,-1.394,4.269,-576.416,-533.508,-43.274,23.505,1.818,-163.515
 14:52:10.984,eb:33:2e:f9:57:b5, 2085-97-164 248:239:241:10491,-0.985,-1.719,4.883,-591.309,-488.525,5.432,17.556,-2.972,-165.553
 14:52:10.984,eb:33:2e:f9:57:b5, 2085-97-233 248:241:245:9803,-0.749,-1.632,5.138,-594.238,-411.377,66.223,11.684,-7.383,-166.284
 14:52:10.984,eb:33:2e:f9:57:b5, 2085-97-01 250:60:251:8841,-0.669,-0.914,4.541,-599.426,-384.949,108.521,5.543,-11.437,-165.992
 14:52:11.012,eb:33:2e:f9:57:b5, 2085-97-141 249:73:01:9590,-1,-0.231,4.539,-594.299,-430.542,126.526,-0.681,-15.568,-164.921
 14:52:11.012,eb:33:2e:f9:57:b5, 2085-97-83 246:82:09:11075,-1.509,0.579,4.976,-573.914,-495.117,143.25,-7.18,-20.193,-163.191
 14:52:11.012,eb:33:2e:f9:57:b5, 2085-97-211 241:130:23:13361,-2.046,1.975,5.912,-547.974,-532.837,170.898,-13.821,-24.999,-160.466
 14:52:11.012,eb:33:2e:f9:57:b5, 2085-97-171 236:94:41:14440,-2.651,4.018,7.026,-534.119,-479.126,186.951,-21.011,-29.399,-156.808
 14:52:11.014,eb:33:2e:f9:57:b5, 2085-97-143 233:235:57:13617,-2.893,6.302,6.911,-499.268,-354.614,164.856,-28.196,-32.426,-152.919
 14:52:11.015,eb:33:2e:f9:57:b5, 2085-97-171 231:192:67:12054,-3.148,7.923,6.289,-411.072,-241.272,112.793,-34.596,-34.184,-149.727
 14:52:11.015,eb:33:2e:f9:57:b5, 2085-97-69 230:26:74:10271,-3.148,8.915,5.547,-280.64,-145.935,49.988,-39.227,-35.239,-147.568
 14:52:11.015,eb:33:2e:f9:57:b5, 2085-97-214 231:107:73:7330,-2.928,9.416,4.339,-159.607,-35.95,-8.972,-41.863,-35.782,-146.783
 14:52:11.015,eb:33:2e:f9:57:b5, 2085-97-217 232:134:63:4600,-2.884,8.609,2.864,-67.81,61.707,-36.072,-42.687,-35.821,-147.206
 14:52:11.015,eb:33:2e:f9:57:b5, 2085-97-26 233:196:53:3301,-2.686,7.265,1.847,16.785,89.294,-11.292,-42.352,-35.387,-148.211
 14:52:11.015,eb:33:2e:f9:57:b5, 2085-97-63 237:226:48:2773,-1.984,6.37,1.438,113.22,58.899,46.692,-41.407,-34.684,-148.645
 14:52:11.015,eb:33:2e:f9:57:b5, 2085-97-83 242:253:44:3392,-1.586,5.887,1.42,205.994,-1.343,84.839,-39.974,-34.025,-148.288
 14:52:11.019,eb:33:2e:f9:57:b5, 2085-97-152 243:09:35:4671,1.442,5.184,1.955,292.175,-39.124,79.468,-37.98,-33.673,-147.305
 14:52:11.019,eb:33:2e:f9:57:b5, 2085-97-24 225:187:02:803,5.43,1.349,4.987,687.927,-190.369,-223.083,-34.31,-34.283,-146.805
 14:52:11.019,eb:33:2e:f9:57:b5, 2085-97-206 49:119:09:20195,-0.857,-3.484,4.654,949.585,811.401,-76.294,-22.863,-31.003,-150.342
 14:52:11.019,eb:33:2e:f9:57:b5, 2085-97-96 242:95:05:12694,1.575,2.309,8.764,765.32,747.192,-394.409,-11.992,-21.16,-156.489
 14:52:11.019,eb:33:2e:f9:57:b5, 2085-97-158 199:89:249:6606,-0.542,7.274,-2.459,173.584,489.868,133.057,-6.844,-15.227,-157.5
 14:52:11.019,eb:33:2e:f9:57:b5, 2085-97-29 255:255:246:8183,0.246,-1.016,3.178,348.694,175.781,72.693,5.015,-3.609,-159.214
 14:52:11.019,eb:33:2e:f9:57:b5, 2085-97-01 01:173:247:9392,0.789,-0.977,4.31,433.044,173.706,129.028,8.888,-2.01,-157.879
 14:52:11.019,eb:33:2e:f9:57:b5, 2085-97-11 10:19:239:11967,1.533,-1.538,5.62,571.594,143.494,93.445,13.953,-0.824,-156.588
 14:52:11.043,eb:33:2e:f9:57:b5, 2085-97-209 12:31:238:11054,1.294,-2.291,5.632,713.623,278.931,81.665,20.473,0.978,-155.094
 14:52:11.043,eb:33:2e:f9:57:b5, 2085-97-15 04:183:242:11509,-0.154,-2.014,5.197,835.266,385.315,43.03,28.4,3.873,-153.133
 14:52:11.043,eb:33:2e:f9:57:b5, 2085-97-241 254:110:244:14424,0.111,-1.458,6.496,975.586,315.918,12.39,37.694,6.888,-150.908
 14:52:11.043,eb:33:2e:f9:57:b5, 2085-97-100 00:107:249:9919,-0.36,-1.532,5.866,1074.28,126.648,10.315,48.389,8.454,-149.442
 14:52:11.073,eb:33:2e:f9:57:b5, 2085-97-29 255:229:18:6124,0.037,1.376,2.973,870.85,-27.161,0.793,58.26,8.63,-148.903
 14:52:11.073,eb:33:2e:f9:57:b5, 2085-97-27 12:119:238:4058,1.022,1.348,3.113,551.208,-55.603,-94.421,65.165,8.773,-149.744
 14:52:11.073,eb:33:2e:f9:57:b5, 2085-97-155 03:242:243:-2477,0.331,-2.035,2.172,213.501,187.439,-178.589,68.599,10.443,-149.788
 14:52:11.073,eb:33:2e:f9:57:b5, 2085-97-85 04:166:254:3602,0.414,0.051,-1.864,-17.334,115.662,-254.028,69.653,13.068,-148.837
 14:52:11.134,eb:33:2e:f9:57:b5, 2085-97-26 255:62:254:11881,-0.152,-0.229,4.426,-60.242,108.276,-249.573,69.066,15.82,-148.766
 14:52:11.134,eb:33:2e:f9:57:b5, 2085-97-02 00:84:252:13510,0.129,-0.15,6.682,32.959,114.075,-211.609,68.994,18.358,-148.645
 14:52:11.134,eb:33:2e:f9:57:b5, 2085-97-168 03:161:239:10319,0.674,-1.348,5.773,60.059,182.739,-159.363,69.835,20.621,-147.799
 14:52:11.134,eb:33:2e:f9:57:b5, 2085-97-109 09:119:236:5908,1.695,-2.438,3.876,-11.597,279.053,-112.244,70.801,22.736,-145.915
 14:52:11.162,eb:33:2e:f9:57:b5, 2085-97-72 15:228:239:2909,1.95,-2.244,1.996,-131.653,309.753,-97.534,71.153,24.664,-143.119
 14:52:11.162,eb:33:2e:f9:57:b5, 2085-97-22 17:148:241:3375,2.149,-1.887,1.286,-218.689,237.244,-120.911,70.34,26.62,-140.691
 14:52:11.162,eb:33:2e:f9:57:b5, 2085-97-09 17:178:242:3717,2.031,-1.721,1.782,-242.371,142.212,-155.334,68.626,28.586,-139.246
 14:52:11.162,eb:33:2e:f9:57:b5, 2085-97-53 14:202:239:3255,1.558,-1.767,1.75,-235.779,64.697,-181.763,66.302,30.558,-139.076
 14:52:11.195,eb:33:2e:f9:57:b5, 2085-97-40 11:170:232:3339,1.155,-2.438,1.569,-227.478,-20.325,-185.425,63.616,32.316,-139.779
 14:52:11.195,eb:33:2e:f9:57:b5, 2085-97-54 07:177:227:2159,0.773,-3.307,1.448,-262.268,-56.519,-157.654,60.342,33.64,-141.35
 14:52:11.195,eb:33:2e:f9:57:b5, 2085-97-216 06:98:227:1774,1.02,-3.607,0.79,-361.938,-73.242,-93.384,56.398,34.354,-142.767
 14:52:11.195,eb:33:2e:f9:57:b5, 2085-97-133 09:31:229:2568,1.435,-3.51,1.122,-495.178,-77.271,-17.151,51.35,34.343,-144.031
 14:52:11.286,eb:33:2e:f9:57:b5, 2085-97-48 14:194:234:2131,2.171,-3.082,1.179,-586.914,-97.473,39.612,45.505,33.673,-144.63
 14:52:11.286,eb:33:2e:f9:57:b5, 2085-97-79 20:241:243:2698,2.765,-2.104,1.043,-628.784,-177.429,53.101,38.914,32.3,-145.432
 14:52:11.286,eb:33:2e:f9:57:b5, 2085-97-228 22:69:252:4646,2.793,-0.941,1.748,-624.39,-271.118,18.188,31.998,30.212,-146.602
 14:52:11.286,eb:33:2e:f9:57:b5, 2085-97-187 20:125:00:6082,2.319,-0.127,2.702,-585.449,-351.196,-46.753,24.944,27.482,-148.634
 14:52:11.585,eb:33:2e:f9:57:b5, 2085-113-58 00:199:237:-4500,1.997,0.088,3.126,-549.133,-409.058,-120.178,18.226,24.214,-151.084
 14:52:11.585,eb:33:2e:f9:57:b5, 2085-97-147 14:163:254:7333,1.522,-0.052,3.221,-541.748,-428.955,-148.438,14.963,22.401,-152.463
 14:52:11.585,eb:33:2e:f9:57:b5, 2085-97-114 10:157:252:8273,1.074,-0.343,3.79,-531.189,-430.359,-200.684,8.531,18.479,-155.429
 14:52:11.585,eb:33:2e:f9:57:b5, 2085-97-182 07:97:252:8995,0.896,-0.478,4.258,-526.855,-399.536,-232.849,2.477,14.546,-158.104
 14:52:11.613,eb:33:2e:f9:57:b5, 2085-97-212 06:224:252:7589,0.572,-0.371,4.187,-519.47,-362.061,-261.78,-3.389,10.728,-160.719
 14:52:11.621,eb:33:2e:f9:57:b5, 2085-97-89 02:241:252:5076,-0.107,-0.336,2.856,-510.193,-408.936,-278.381,-8.91,6.718,-163.026
 14:52:11.621,eb:33:2e:f9:57:b5, 2085-97-80 250:120:249:6432,-1.404,-0.554,2.639,-494.385,-565.43,-255.676,-14.128,1.28,-164.767
 14:52:11.622,eb:33:2e:f9:57:b5, 2085-97-75 239:137:253:10490,-2.723,-0.788,3.948,-473.206,-690.186,-151.794,-18.99,-5.416,-164.894
 14:52:11.622,eb:33:2e:f9:57:b5, 2085-97-40 228:176:17:14951,-4.08,0.703,6.496,-412.903,-680.786,7.996,-23.846,-12.239,-162.982
 14:52:11.622,eb:33:2e:f9:57:b5, 2085-97-227 221:250:38:14420,-4.116,3.74,7.494,-256.897,-548.035,167.48,-28.147,-17.287,-159.302
 14:52:11.622,eb:33:2e:f9:57:b5, 2085-97-145 222:252:52:12017,-4.578,5.761,6.272,-125.427,-466.614,281.433,-31.509,-20.418,-154.589
 14:52:11.622,eb:33:2e:f9:57:b5, 2085-97-111 217:62:63:11866,-4.724,7.467,5.636,-76.965,-462.097,343.567,-34.536,-22.538,-148.986
 14:52:11.622,eb:33:2e:f9:57:b5, 2085-97-198 221:182:71:10372,-3.693,8.14,5.696,-56.702,-334.9,350.342,-37.452,-23.813,-143.328
 14:52:11.622,eb:33:2e:f9:57:b5, 2085-97-127 233:126:82:6277,-2.252,9.787,4.08,-24.841,-26.855,268.799,-39.402,-23.115,-139.559
 14:52:11.622,eb:33:2e:f9:57:b5, 2085-97-29 239:05:78:3017,-2.21,10.341,2.033,56.641,114.136,104.187,-39.628,-21.396,-138.604
 14:52:11.622,eb:33:2e:f9:57:b5, 2085-97-144 237:01:63:2274,-2.309,8.796,1.23,143.677,112.915,-48.706,-38.309,-20.396,-139.274
 14:52:11.643,eb:33:2e:f9:57:b5, 2085-97-70 238:96:48:3234,-1.96,6.997,1.226,177.856,102.356,-138.672,-36.085,-20.16,-140.916
 14:52:11.643,eb:33:2e:f9:57:b5, 2085-97-60 02:131:243:8157,0.709,4.834,2.022,401.55,-7.507,-177.368,-33.096,-20.286,-143.02
 14:52:11.643,eb:33:2e:f9:57:b5, 2085-97-103 09:45:243:6543,1.562,-1.674,3.652,495.239,290.833,50.598,10.602,-1.17,-152.485
 14:52:11.643,eb:33:2e:f9:57:b5, 2085-97-246 11:146:244:5362,0.761,-1.583,2.847,599.67,325.439,15.015,16.133,1.708,-151.452
 14:52:11.673,eb:33:2e:f9:57:b5, 2085-97-85 252:117:247:7741,-1.314,-1.307,2.797,669.434,350.83,-15.076,22.703,5.037,-150.414
 14:52:11.673,eb:33:2e:f9:57:b5, 2085-97-184 245:211:244:10595,-0.589,-1.149,4.864,669.8,353.394,26.428,29.57,8.201,-148.832
 14:52:11.673,eb:33:2e:f9:57:b5, 2085-97-15 255:176:242:6992,-0.219,-1.676,4.786,720.398,366.699,74.036,37.013,10.871,-146.431
 14:52:11.673,eb:33:2e:f9:57:b5, 2085-97-191 254:176:02:2644,0.151,-0.747,1.68,688.416,280.09,103.76,44.753,12.838,-143.383
 14:52:11.704,eb:33:2e:f9:57:b5, 2085-97-150 04:18:14:6855,0.953,1.794,2.284,564.087,128.479,75.989,51.487,13.348,-141.432
 14:52:11.704,eb:33:2e:f9:57:b5, 2085-97-108 12:64:243:1532,1.499,0.787,3.225,347.717,267.639,-0.305,56.492,14.167,-139.625
 14:52:11.704,eb:33:2e:f9:57:b5, 2085-97-84 10:28:244:-1510,1.762,-2.467,-1.465,10.315,404.419,-37.964,58.848,16.326,-136.593
 14:52:11.704,eb:33:2e:f9:57:b5, 2085-97-145 18:105:05:1639,2.337,-0.23,-1.17,-133.423,264.282,-84.167,59.046,18.666,-133.61
 14:52:11.764,eb:33:2e:f9:57:b5, 2085-97-74 17:13:10:6625,2.073,1.067,2.654,-156.189,59.204,-152.039,57.585,20.451,-133.088
 14:52:11.764,eb:33:2e:f9:57:b5, 2085-97-165 14:150:04:7591,1.539,1.038,3.695,-68.97,-55.603,-225.22,56.041,21.973,-134.357
 14:52:11.764,eb:33:2e:f9:57:b5, 2085-97-37 11:189:253:6361,1.2,0.069,3.432,-24.78,-61.462,-273.743,54.844,23.703,-136.533
 14:52:11.764,eb:33:2e:f9:57:b5, 2085-97-52 08:78:251:5367,0.925,-0.457,2.773,-45.959,-42.053,-300.171,53.564,25.768,-138.807
 14:52:11.764,eb:33:2e:f9:57:b5, 2085-97-177 07:237:249:6051,1.113,-0.701,2.713,-114.746,-11.414,-310.547,51.68,28.043,-141.196
 14:52:11.764,eb:33:2e:f9:57:b5, 2085-97-139 09:82:249:7246,1.079,-0.792,3.294,-172.974,64.209,-310.73,49.197,30.613,-143.201
 14:52:11.764,eb:33:2e:f9:57:b5, 2085-97-60 07:192:247:7377,0.758,-0.914,3.602,-202.881,123.047,-304.993,46.467,33.585,-144.794
 14:52:11.764,eb:33:2e:f9:57:b5, 2085-97-55 05:14:247:6589,0.646,-1.098,3.525,-223.145,135.925,-283.508,43.511,36.59,-146.195
 14:52:11.825,eb:33:2e:f9:57:b5, 2085-97-73 05:187:245:5678,0.68,-1.191,2.988,-261.353,154.907,-237.183,40.314,39.402,-147.491
 14:52:11.825,eb:33:2e:f9:57:b5, 2085-97-08 06:240:243:5414,0.892,-1.394,2.626,-306.091,181.396,-169.922,37.013,41.984,-148.14
 14:52:11.825,eb:33:2e:f9:57:b5, 2085-97-00 09:158:243:4937,1.553,-1.556,2.634,-347.656,247.314,-86.792,33.898,44.445,-147.925
 14:52:11.825,eb:33:2e:f9:57:b5, 2085-97-91 16:151:246:2244,2.468,-1.404,1.946,-396.301,316.467,3.967,31.459,47.065,-146.102
 14:52:11.976,eb:33:2e:f9:57:b5, 2085-97-42 22:247:250:-3006,3.038,-0.867,-0.157,-453.613,286.377,74.28,29.366,49.521,-143.218
 14:52:11.976,eb:33:2e:f9:57:b5, 2085-97-138 26:128:252:-4175,3.548,-0.477,-2.22,-481.201,48.035,101.135,26.587,50.598,-140.652
 14:52:11.976,eb:33:2e:f9:57:b5, 2085-97-222 27:12:252:-183,3.235,-0.463,-1.09,-468.506,-229.309,113.464,22.396,49.081,-139.977
 14:52:11.976,eb:33:2e:f9:57:b5, 2085-97-198 23:149:251:3081,2.763,-0.53,0.759,-459.9,-369.69,136.536,17.875,45.67,-139.818
 14:52:11.976,eb:33:2e:f9:57:b5, 2085-113-58 00:131:245:-7950,2.605,-0.529,2.104,-465.942,-397.949,155.029,13.546,41.457,-139.433
 14:52:12.304,eb:33:2e:f9:57:b5, 2085-97-34 20:220:253:5321,2.459,-0.418,2.446,-473.022,-390.442,155.884,11.481,39.364,-138.988
 14:52:12.304,eb:33:2e:f9:57:b5, 2085-97-124 19:79:00:5361,2.418,-0.112,2.609,-488.647,-374.329,132.507,7.24,35.332,-138.065
 14:52:12.304,eb:33:2e:f9:57:b5, 2085-97-09 19:166:02:5599,2.106,0.193,2.656,-501.221,-377.93,78.369,2.752,31.503,-137.208
 14:52:12.304,eb:33:2e:f9:57:b5, 2085-97-50 17:151:02:6394,1.896,0.34,2.534,-506.042,-416.26,6.653,-2.115,27.515,-136.835
 14:52:12.304,eb:33:2e:f9:57:b5, 2085-97-248 12:186:01:6964,1.382,0.356,3.171,-510.071,-435.608,-53.345,-7.163,23.275,-136.752
 14:52:12.304,eb:33:2e:f9:57:b5, 2085-97-254 08:241:255:7987,0.653,0.106,3.6,-514.099,-451.721,-96.008,-12.338,18.671,-136.857
 14:52:12.304,eb:33:2e:f9:57:b5, 2085-97-61 00:76:254:7790,-0.225,-0.173,3.979,-521.301,-439.819,-88.806,-17.463,14.101,-136.648
 14:52:12.304,eb:33:2e:f9:57:b5, 2085-97-101 253:140:00:10093,-0.527,-0.146,4.205,-496.948,-464.172,-42.725,-22.407,9.547,-135.758
 14:52:12.306,eb:33:2e:f9:57:b5, 2085-97-202 249:88:06:12273,-1,0.351,5.576,-450.012,-455.688,29.236,-26.9,5.328,-133.852
 14:52:12.306,eb:33:2e:f9:57:b5, 2085-97-160 246:127:18:12672,-1.365,1.458,6.177,-386.902,-435.425,111.755,-30.916,1.747,-131.089
 14:52:12.306,eb:33:2e:f9:57:b5, 2085-97-190 242:45:34:11808,-1.996,3.259,6.047,-324.89,-435.242,184.326,-34.426,-1.066,-127.463
 14:52:12.307,eb:33:2e:f9:57:b5, 2085-97-232 236:46:51:10457,-2.907,5.32,5.449,-239.807,-450.684,235.413,-37.43,-3.444,-123.151
 14:52:12.333,eb:33:2e:f9:57:b5, 2085-97-16 228:175:58:10436,-4.118,7.097,4.966,-138.489,-478.455,246.033,-39.633,-5.57,-118.301
 14:52:12.333,eb:33:2e:f9:57:b5, 2085-97-212 219:91:64:10593,-4.651,7.597,5.169,-80.017,-359.192,222.29,-41.166,-7.361,-113.73
 14:52:12.333,eb:33:2e:f9:57:b5, 2085-97-34 222:91:70:7642,-3.729,8.494,4.699,-58.838,-67.688,145.752,-42.188,-7.674,-110.962
 14:52:12.333,eb:33:2e:f9:57:b5, 2085-97-07 230:63:68:3176,-2.801,8.83,2.488,-48.584,162.048,21.057,-42.709,-6.625,-110.945
 14:52:12.335,eb:33:2e:f9:57:b5, 2085-97-229 236:30:60:1726,-2.146,8.109,0.996,2.808,219.666,-101.257,-42.764,-5.438,-112.714
 14:52:12.335,eb:33:2e:f9:57:b5, 2085-97-110 240:186:51:564,-1.81,7.006,0.536,90.271,189.941,-177.49,-41.984,-4.9,-115.307
 14:52:12.335,eb:33:2e:f9:57:b5, 2085-97-76 241:89:40:840,-1.828,5.81,0.211,216.37,112.793,-215.82,-40.193,-5.109,-117.823
 14:52:12.335,eb:33:2e:f9:57:b5, 2085-97-122 241:106:19:2483,-2.009,3.938,0.961,357.788,41.565,-235.291,-36.936,-6.004,-120.119
 14:52:12.338,eb:33:2e:f9:57:b5, 2085-97-137 237:201:254:1110,0.003,1.063,0.863,432.678,33.325,-211.365,-32.624,-6.998,-122.195
 14:52:12.338,eb:33:2e:f9:57:b5, 2085-97-147 04:08:03:5023,0.154,0.868,1.414,191.101,191.65,-203.796,4.658,33.805,-139.741
 14:52:12.338,eb:33:2e:f9:57:b5, 2085-97-181 252:204:254:6499,-0.541,0.042,2.769,252.197,66.345,-82.581,6.092,34.98,-141.218
 14:52:12.338,eb:33:2e:f9:57:b5, 2085-97-86 252:173:253:8940,-0.336,-0.297,3.904,252.197,92.285,26.184,8.701,35.711,-141.334
 14:52:12.364,eb:33:2e:f9:57:b5, 2085-97-25 00:62:255:9133,0.473,-0.199,4.463,214.6,171.265,126.404,11.81,36.903,-139.999
 14:52:12.364,eb:33:2e:f9:57:b5, 2085-97-219 07:23:00:8569,1.412,-0.028,4.327,200.684,222.778,193.176,15.601,38.491,-137.263
 14:52:12.364,eb:33:2e:f9:57:b5, 2085-97-38 14:36:00:7349,2.014,0.033,3.917,224.426,218.079,217.468,19.918,39.996,-133.786
 14:52:12.364,eb:33:2e:f9:57:b5, 2085-97-47 16:217:253:5591,1.833,-0.042,3.183,256.653,164.978,204.468,24.785,40.941,-130.15
 14:52:12.423,eb:33:2e:f9:57:b5, 2085-97-192 12:95:246:4558,1.258,-0.672,2.326,263.123,70.862,176.941,29.333,41.105,-127.211
 14:52:12.423,eb:33:2e:f9:57:b5, 2085-97-68 09:125:238:4747,0.979,-1.766,2.13,232.544,-1.221,168.64,33.316,40.419,-125.035
 14:52:12.423,eb:33:2e:f9:57:b5, 2085-97-217 07:80:236:3958,1.125,-2.474,2.159,167.542,27.222,194.641,36.573,39.468,-123.047
 14:52:12.423,eb:33:2e:f9:57:b5, 2085-97-199 10:19:240:2811,1.66,-2.245,1.657,107.117,47.791,232.666,39.584,38.403,-120.46
 14:52:12.484,eb:33:2e:f9:57:b5, 2085-97-167 16:49:245:751,2.384,-1.74,0.989,58.411,19.958,245.117,41.979,37.079,-117.856
 14:52:12.484,eb:33:2e:f9:57:b5, 2085-97-31 20:253:250:-1486,2.469,-0.964,-0.207,3.601,-52.49,221.436,43.5,35.288,-115.823
 14:52:12.484,eb:33:2e:f9:57:b5, 2085-97-198 18:227:251:-1770,2.207,-0.456,-0.997,-25.391,-175.476,162.354,43.748,33.129,-115.126
 14:52:12.484,eb:33:2e:f9:57:b5, 2085-97-97 15:169:247:-250,1.515,-0.736,-0.425,-36.56,-276.062,104.675,43.066,30.438,-115.933
 14:52:12.484,eb:33:2e:f9:57:b5, 2085-97-192 08:222:241:-039,0.742,-1.389,-0.043,-60.181,-324.402,76.538,41.803,27.614,-117.543
 14:52:12.484,eb:33:2e:f9:57:b5, 2085-97-26 04:208:235:641,0.412,-2.167,0.08,-105.835,-368.286,83.252,40.188,24.395,-119.449
 14:52:12.484,eb:33:2e:f9:57:b5, 2085-97-62 03:61:233:1998,0.425,-2.76,0.661,-170.044,-381.897,117.188,38.117,20.819,-121.201
 14:52:12.484,eb:33:2e:f9:57:b5, 2085-97-191 03:93:233:2378,0.526,-2.854,1.105,-238.464,-387.024,155.701,35.673,16.864,-122.465
 14:52:12.873,eb:33:2e:f9:57:b5, 2085-97-221 04:40:235:2969,0.676,-2.75,1.248,-298.828,-427.551,189.697,32.723,12.519,-123.338
 14:52:12.873,eb:33:2e:f9:57:b5, 2085-97-196 05:246:237:4368,0.744,-2.425,1.755,-343.018,-483.276,215.759,29.399,7.465,-123.981
 14:52:12.873,eb:33:2e:f9:57:b5, 2085-97-01 06:64:241:5912,0.724,-2.08,2.523,-365.784,-526.489,230.103,25.796,1.917,-124.354
 14:52:12.873,eb:33:2e:f9:57:b5, 2085-97-08 05:176:246:7496,0.357,-1.541,3.257,-386.23,-548.401,230.286,22.061,-4.037,-124.47
 14:52:13.024,eb:33:2e:f9:57:b5, 2085-113-58 00:22:234:-9000,0.093,-0.682,3.983,-414.124,-519.958,207.214,18.012,-9.827,-124.25
 14:52:13.024,eb:33:2e:f9:57:b5, 2085-97-231 253:184:00:9269,-0.542,-0.294,4.332,-426.331,-482.483,182.983,15.864,-12.497,-124.047
 14:52:13.024,eb:33:2e:f9:57:b5, 2085-97-74 250:211:06:9244,-0.831,0.455,4.594,-440.186,-380.371,108.582,11.431,-17.078,-123.684
 14:52:13.024,eb:33:2e:f9:57:b5, 2085-97-152 248:178:10:8003,-1.069,1.178,4.285,-443.848,-272.095,9.216,6.987,-20.314,-123.668
 14:52:13.024,eb:33:2e:f9:57:b5, 2085-97-128 245:232:10:5658,-1.689,1.362,3.366,-429.382,-225.037,-97.29,2.917,-22.72,-124.47
 14:52:13.026,eb:33:2e:f9:57:b5, 2085-97-04 239:29:10:4701,-2.571,1.324,2.354,-413.147,-249.207,-176.758,-0.621,-25.043,-126.112
 14:52:13.027,eb:33:2e:f9:57:b5, 2085-97-205 231:146:10:5884,-3.293,1.23,2.535,-394.592,-265.808,-202.393,-3.713,-27.79,-128.227
 14:52:13.027,eb:33:2e:f9:57:b5, 2085-97-53 228:97:14:6852,-3.618,1.515,3.141,-353.088,-219.543,-170.715,-6.526,-30.394,-130.128
 14:52:13.027,eb:33:2e:f9:57:b5, 2085-97-222 225:53:21:6407,-3.947,2.202,3.331,-289.795,-143.677,-121.582,-8.965,-32.371,-131.583
 14:52:13.027,eb:33:2e:f9:57:b5, 2085-97-51 222:25:28:5229,-4.597,3.117,2.89,-222.412,-112.671,-83.313,-10.986,-33.745,-132.501
 14:52:13.027,eb:33:2e:f9:57:b5, 2085-97-190 215:62:32:4417,-5.541,3.796,2.277,-167.114,-137.39,-57.129,-12.563,-35.096,-133.088
 14:52:13.027,eb:33:2e:f9:57:b5, 2085-97-189 207:183:35:4995,-6.4,4.251,2.168,-112.732,-162.17,-33.264,-13.892,-36.7,-133.182
 14:52:13.029,eb:33:2e:f9:57:b5, 2085-97-180 203:226:38:7225,-6.344,4.675,2.976,-33.752,-106.934,-11.23,-14.65,-38.106,-133.088
 14:52:13.029,eb:33:2e:f9:57:b5, 2085-97-115 00:235:00:3315,0.159,4.977,3.868,59.814,58.044,-11.658,-14.442,-38.359,-133.132
 14:52:13.029,eb:33:2e:f9:57:b5, 2085-97-140 255:176:00:2536,-0.419,0.107,1.726,-1.648,101.196,18.311,-10.547,-4.351,-133.506
 14:52:13.029,eb:33:2e:f9:57:b5, 2085-97-28 251:73:00:585,-0.645,0.085,0.583,13.977,105.835,3.54,-10.448,-3.241,-133.61
 14:52:13.031,eb:33:2e:f9:57:b5, 2085-97-228 249:58:254:864,-0.893,-0.141,0.466,13.977,56.824,1.099,-10.201,-2.395,-133.797
 14:52:13.031,eb:33:2e:f9:57:b5, 2085-97-183 09:171:08:744,1.252,-0.214,0.181,17.212,-16.663,13.977,-10.042,-2.186,-133.753
 14:52:13.031,eb:33:2e:f9:57:b5, 2085-97-72 249:213:248:6765,-1.508,0.574,1.749,34.912,-203.125,31.372,-8.707,-7.756,-130.715
 14:52:13.031,eb:33:2e:f9:57:b5, 2085-97-179 251:175:250:9107,-0.136,-1.049,4.044,155.579,-194.153,66.345,-7.949,-9.503,-129.836
 14:52:13.053,eb:33:2e:f9:57:b5, 2085-97-38 255:07:249:8555,0.13,-0.763,4.554,286.072,-165.527,46.326,-5.652,-11.245,-129.155
 14:52:13.053,eb:33:2e:f9:57:b5, 2085-97-145 01:28:228:9088,-0.116,-0.915,4.165,397.4,-148.621,43.152,-2.296,-12.772,-128.573
 14:52:13.053,eb:33:2e:f9:57:b5, 2085-97-203 254:18:219:6986,-0.32,-4.178,3.979,210.876,-30.945,-432.007,65.72,-1.615,-137.159
 14:52:13.053,eb:33:2e:f9:57:b5, 2085-97-162 253:173:212:3406,0,-5.127,2.549,92.346,-7.141,-330.75,67.253,1.791,-138.889
 14:52:13.114,eb:33:2e:f9:57:b5, 2085-97-51 04:140:220:-521,0.96,-5.308,0.449,-114.624,100.952,-161.316,67.066,4.323,-139.411
 14:52:13.114,eb:33:2e:f9:57:b5, 2085-97-188 09:178:231:090,1.558,-3.598,-0.185,-305.298,151.245,-47.363,64.847,5.707,-138.483
 14:52:13.114,eb:33:2e:f9:57:b5, 2085-97-241 15:65:237:-883,2.453,-2.667,-0.017,-357.849,75.867,-20.203,61.49,6.564,-137.604
 14:52:13.114,eb:33:2e:f9:57:b5, 2085-97-33 22:173:241:-2963,2.901,-2.043,-0.976,-351.685,-67.017,-39.001,57.92,6.784,-137.736
 14:52:13.144,eb:33:2e:f9:57:b5, 2085-97-214 22:38:242:-2166,2.637,-1.67,-1.523,-361.145,-218.262,-92.285,54.157,6.575,-139.433
 14:52:13.144,eb:33:2e:f9:57:b5, 2085-97-166 18:30:239:161,2.001,-1.905,-0.418,-390.442,-341.614,-140.991,50.07,5.735,-142.471
 14:52:13.144,eb:33:2e:f9:57:b5, 2085-97-122 13:181:236:2294,1.563,-2.308,0.52,-450.562,-402.222,-160.095,45.483,4.378,-146.426
 14:52:13.144,eb:33:2e:f9:57:b5, 2085-97-235 11:173:240:4361,1.45,-2.258,1.666,-532.349,-389.465,-159.607,40.265,2.532,-150.315
 14:52:13.202,eb:33:2e:f9:57:b5, 2085-97-172 10:154:248:5918,1.159,-1.447,2.593,-573.181,-351.746,-175.964,34.53,0.659,-153.973
 14:52:13.202,eb:33:2e:f9:57:b5, 2085-97-110 07:190:254:6408,0.658,-0.453,3.052,-562.683,-355.53,-215.698,28.834,-1.269,-157.451
 14:52:13.202,eb:33:2e:f9:57:b5, 2085-97-183 02:133:255:6160,-0.025,-0.038,3.125,-520.508,-404.358,-253.174,23.527,-3.615,-161.356
 14:52:13.202,eb:33:2e:f9:57:b5, 2085-97-68 252:240:253:6079,-0.969,-0.179,2.905,-475.647,-457.214,-256.714,18.924,-6.724,-165.328
 14:52:13.355,eb:33:2e:f9:57:b5, 2085-97-111 243:150:255:6664,-2.145,-0.228,3.178,-440.369,-485.84,-218.262,14.854,-10.574,-169.107
 14:52:13.355,eb:33:2e:f9:57:b5, 2085-97-183 234:55:05:6266,-3.113,0.252,3.186,-415.039,-471.497,-153.015,11.245,-14.843,-172.035
 14:52:13.355,eb:33:2e:f9:57:b5, 2085-97-43 228:41:15:5743,-3.721,1.208,2.915,-406.128,-409.18,-74.341,7.619,-18.99,-173.979
 14:52:13.355,eb:33:2e:f9:57:b5, 2085-97-235 224:33:29:4864,-4.021,2.701,2.669,-384.827,-308.167,-8.728,3.917,-22.484,-174.727
 14:52:13.533,eb:33:2e:f9:57:b5, 2085-97-148 222:164:45:3603,-4.343,4.706,2,-337.83,-232.788,7.08,0.253,-25.06,-174.809
 14:52:13.533,eb:33:2e:f9:57:b5, 2085-97-48 220:99:54:3804,-4.595,6.44,1.726,-270.203,-190.369,-33.508,-2.73,-27.158,-174.869
 14:52:13.533,eb:33:2e:f9:57:b5, 2085-97-37 218:13:54:4453,-4.858,6.869,2.04,-192.627,-129.089,-86.67,-4.774,-28.735,-175.507
 14:52:13.533,eb:33:2e:f9:57:b5, 2085-97-196 216:93:50:4103,-4.828,6.549,2.169,-124.329,-44.312,-116.028,-5.768,-29.663,-176.6
 14:52:13.533,eb:33:2e:f9:57:b5, 2085-113-58 00:197:224:-2865,-4.69,5.996,1.798,-67.81,28.015,-108.704,-6.064,-29.729,-177.968
 14:52:13.536,eb:33:2e:f9:57:b5, 2085-97-37 220:90:41:2598,-4.213,5.614,1.546,-37.17,51.147,-91.797,-6.026,-29.57,-178.533
 14:52:13.536,eb:33:2e:f9:57:b5, 2085-97-21 225:63:35:2100,-3.41,4.747,1.09,36.987,73.914,-26.917,-5.63,-28.883,-179.346
 14:52:13.536,eb:33:2e:f9:57:b5, 2085-97-227 232:70:30:1698,-2.375,4.095,0.994,130.981,75.928,59.753,-4.823,-28.109,-179.171
 14:52:13.536,eb:33:2e:f9:57:b5, 2085-97-40 241:129:22:104,-1.529,3.433,0.513,215.088,56.396,140.442,-3.538,-27.257,-178.099
 14:52:13.536,eb:33:2e:f9:57:b5, 2085-97-211 245:167:13:-1842,-1.053,2.223,-0.411,262.695,14.648,213.44,-1.994,-26.829,-176.045
 14:52:13.536,eb:33:2e:f9:57:b5, 2085-97-135 227:227:55:19800,5.315,1.306,-1.327,217.529,-163.269,297.729,-0.582,-27.004,-173.37
 14:52:13.536,eb:33:2e:f9:57:b5, 2085-97-216 61:212:52:18452,-5.702,4.026,2.013,-54.749,26.855,-27.283,0.45,-30.756,-173.71
 14:52:13.536,eb:33:2e:f9:57:b5, 2085-97-247 248:93:224:4637,-0.55,-3.303,-4.58,-109.863,598.328,60.425,-1.23,-21.901,-174.007
 14:52:13.563,eb:33:2e:f9:57:b5, 2085-97-155 227:215:247:-5167,-3.724,-1.573,0.444,124.939,287.354,-42.908,-0.802,-17.864,-174.32
 14:52:13.563,eb:33:2e:f9:57:b5, 2085-97-148 254:98:03:508,1.266,-0.425,-2.517,67.139,-176.392,82.092,0.33,-17.468,-174.315
 14:52:13.563,eb:33:2e:f9:57:b5, 2085-97-23 09:235:06:3308,0.283,0.434,1.754,31.067,-125.244,59.937,0.472,-19.341,-173.513
 14:52:13.563,eb:33:2e:f9:57:b5, 2085-97-254 05:22:01:3863,0.881,0.58,0.891,-8.179,-8.24,10.62,0.483,-19.655,-173.238
 14:52:13.567,eb:33:2e:f9:57:b5, 2085-97-215 02:116:00:3184,-0.595,0.218,2.429,23.132,121.582,-24.597,0.621,-19.149,-173.331
 14:52:13.567,eb:33:2e:f9:57:b5, 2085-97-76 246:06:253:-483,-1.266,-0.125,0.316,30.273,108.948,-19.836,1.016,-17.622,-173.622
 14:52:13.567,eb:33:2e:f9:57:b5, 2085-97-215 253:253:254:2660,0.435,-0.289,-0.244,23.499,-56.274,20.142,1.247,-17.424,-173.54
 14:52:13.567,eb:33:2e:f9:57:b5, 2085-97-206 03:60:01:3764,0.273,0.065,2.058,38.208,-0.732,31.677,1.505,-17.743,-173.304
 14:52:13.623,eb:33:2e:f9:57:b5, 2085-97-165 02:73:02:2279,-1.066,0.212,1.326,49.805,59.387,19.958,1.857,-17.309,-172.974
 14:52:13.623,eb:33:2e:f9:57:b5, 2085-97-126 251:229:247:8839,-1.186,1.523,4.973,689.392,-394.531,-178.65,78.382,-22.533,-179.423
 14:52:13.623,eb:33:2e:f9:57:b5, 2085-97-139 246:07:243:6825,-1.414,-2.428,2.982,316.711,12.39,-157.471,84.029,-20.967,178.594
 14:52:13.624,eb:33:2e:f9:57:b5, 2085-97-231 243:175:250:6752,-1.211,-1.269,3.588,116.577,316.101,-119.385,85.276,-19.27,-179.489
 14:52:13.626,eb:33:2e:f9:57:b5, 2085-97-247 249:123:249:12158,-0.302,-0.723,4.659,-21.973,378.54,-55.054,84.326,-18.029,-175.655
 14:52:13.626,eb:33:2e:f9:57:b5, 2085-97-113 01:28:253:10175,0.426,-0.605,5.867,63.965,291.87,-2.38,83.326,-17.314,-172.095
 14:52:13.626,eb:33:2e:f9:57:b5, 2085-97-184 05:25:250:7603,0.865,-0.45,4.08,157.166,133.484,-25.269,83.903,-16.974,-169.931
 14:52:13.627,eb:33:2e:f9:57:b5, 2085-97-164 06:253:244:7200,0.691,-1.067,3.577,169.556,24.597,-82.947,85.347,-16.221,-169.277
 14:52:13.653,eb:33:2e:f9:57:b5, 2085-97-153 04:06:241:6611,0.477,-1.642,3.384,112.305,-33.264,-147.461,86.825,-15.029,-169.415
 14:52:13.653,eb:33:2e:f9:57:b5, 2085-97-141 03:68:238:5940,0.451,-2.093,3.05,13.733,-45.349,-193.359,87.473,-13.173,-169.969
 14:52:13.653,eb:33:2e:f9:57:b5, 2085-97-76 03:32:237:5586,0.223,-2.278,2.787,-94.788,-29.968,-216.736,87.122,-11.113,-170.403
 14:52:13.653,eb:33:2e:f9:57:b5, 2085-97-146 00:45:233:5008,0.088,-2.567,2.592,-168.701,-27.405,-222.107,85.732,-8.795,-170.832
 14:52:13.714,eb:33:2e:f9:57:b5, 2085-97-130 02:105:229:4153,0.548,-3.164,2.269,-232.666,-23.865,-206.909,83.754,-6.663,-171.271
 14:52:13.714,eb:33:2e:f9:57:b5, 2085-97-240 05:191:232:2406,0.946,-3.225,1.621,-321.045,33.508,-172.607,80.892,-4.669,-171.513
 14:52:13.714,eb:33:2e:f9:57:b5, 2085-97-00 09:144:238:1294,1.33,-2.535,0.852,-416.504,74.036,-153.076,77.124,-2.983,-171.183
 14:52:13.714,eb:33:2e:f9:57:b5, 2085-97-56 12:230:242:787,1.677,-1.878,0.512,-499.084,76.66,-156.555,72.372,-1.187,-170.881
 14:52:13.834,eb:33:2e:f9:57:b5, 2085-97-16 14:154:245:167,1.804,-1.443,0.226,-549.927,23.682,-177.612,67.061,0.56,-170.914
 14:52:13.834,eb:33:2e:f9:57:b5, 2085-97-188 14:149:246:401,1.826,-1.204,0.033,-566.04,-93.14,-206.116,61.315,2.236,-172.145
 14:52:13.834,eb:33:2e:f9:57:b5, 2085-97-207 13:87:245:1774,1.531,-1.235,0.526,-563.293,-221.558,-223.816,55.53,3.208,-174.666
 14:52:13.834,eb:33:2e:f9:57:b5, 2085-97-133 10:87:244:2928,1.116,-1.411,1.141,-562.561,-305.481,-216.797,49.587,3.411,-178.237
 14:52:13.953,eb:33:2e:f9:57:b5, 2085-97-88 07:21:245:3949,0.723,-1.449,1.711,-567.444,-353.699,-189.758,43.726,2.587,177.957
 14:52:13.953,eb:33:2e:f9:57:b5, 2085-97-85 04:116:247:5004,0.198,-1.227,2.147,-572.083,-379.456,-153.259,37.776,0.972,174.194
 14:52:13.953,eb:33:2e:f9:57:b5, 2085-97-63 255:72:250:5800,-0.124,-0.978,2.607,-568.542,-385.193,-113.037,32.064,-1.412,170.953
 14:52:13.953,eb:33:2e:f9:57:b5, 2085-97-74 254:161:00:7153,-0.438,-0.386,3.346,-544.006,-368.713,-86.121,26.488,-4.202,168.19
 14:52:13.956,eb:33:2e:f9:57:b5, 2085-97-157 250:103:09:5869,-0.966,0.619,3.214,-514.526,-347.168,-90.393,21.429,-7.081,166.003
 14:52:13.956,eb:33:2e:f9:57:b5, 2085-97-38 245:08:17:5231,-1.792,1.7,2.643,-503.052,-346.863,-119.568,16.534,-9.981,163.823
 14:52:13.957,eb:33:2e:f9:57:b5, 2085-97-25 238:57:22:5185,-2.633,2.464,2.562,-500.61,-333.313,-136.902,11.937,-12.98,161.702
 14:52:13.957,eb:33:2e:f9:57:b5, 2085-97-199 232:28:29:4571,-3.023,3.139,2.366,-492.249,-277.039,-118.286,7.278,-15.727,159.846
 14:52:14.133,eb:33:2e:f9:57:b5, 2085-97-83 231:90:38:4066,-3.14,4.192,2.088,-452.026,-197.083,-77.393,2.889,-17.924,158.681
 14:52:14.133,eb:33:2e:f9:57:b5, 2085-97-182 229:135:48:4823,-3.55,5.42,2.078,-378.906,-189.88,-52.063,-1.159,-19.737,158
 14:52:14.133,eb:33:2e:f9:57:b5, 2085-97-77 225:225:55:5912,-4.093,6.645,2.644,-293.457,-222.778,-44.006,-4.351,-21.835,157.654
 14:52:14.133,eb:33:2e:f9:57:b5, 2085-97-202 221:28:57:6833,-4.356,7.082,3.112,-215.149,-205.688,-29.053,-6.888,-24.005,157.484
 14:52:14.135,eb:33:2e:f9:57:b5, 2085-97-00 222:96:60:7470,-3.904,7.298,3.542,-119.385,-117.676,9.46,-8.619,-25.609,157.659
 14:52:14.135,eb:33:2e:f9:57:b5, 2085-97-54 229:139:62:6522,-2.782,7.768,3.503,37.781,-19.348,47.241,-9.267,-26.087,158.104
 14:52:14.135,eb:33:2e:f9:57:b5, 2085-97-30 238:168:58:4119,-1.739,7.669,2.663,201.172,34.241,64.758,-8.234,-25.851,158.763
 14:52:14.135,eb:33:2e:f9:57:b5, 2085-97-158 01:163:44:13978,0.683,6.83,1.255,300.903,23.254,60.425,-5.927,-25.334,159.39
 14:52:14.137,eb:33:2e:f9:57:b5, 2085-97-152 228:191:63:6856,1.517,9.345,-1.583,812.378,83.74,309.998,-0.769,-23.225,161.999
 14:52:14.137,eb:33:2e:f9:57:b5, 2085-97-38 11:133:06:6239,0.653,0.79,3.154,49.683,-116.394,28.259,7.663,-8.026,162.79
 14:52:14.137,eb:33:2e:f9:57:b5, 2085-97-113 253:145:01:360,-0.382,0.774,1.15,21.484,94.604,-11.108,7.982,-7.729,162.96
 14:52:14.137,eb:33:2e:f9:57:b5, 2085-97-33 255:83:00:3531,-0.599,-0.12,0.976,22.583,53.711,-16.846,8.185,-6.927,162.817
 14:52:14.139,eb:33:2e:f9:57:b5, 2085-97-05 249:175:253:799,-1.299,-0.118,0.851,29.602,81.726,-6.653,8.438,-6.053,162.867
 14:52:14.139,eb:33:2e:f9:57:b5, 2085-97-34 247:52:253:777,-0.377,-0.309,-0.184,32.166,-57.556,28.625,8.762,-5.79,162.927
 14:52:14.139,eb:33:2e:f9:57:b5, 2085-97-140 01:20:01:4342,0.474,0.03,1.266,40.955,-101.318,45.898,9.102,-6.801,163.257
 14:52:14.139,eb:33:2e:f9:57:b5, 2085-97-59 03:152:255:4232,-0.294,0.6,1.321,44.983,-27.71,10.01,9.47,-7.114,163.564
 14:52:14.143,eb:33:2e:f9:57:b5, 2085-97-38 12:220:09:948,-2.714,0.032,1.941,81.177,42.419,15.564,9.992,-6.823,163.757
 14:52:14.143,eb:33:2e:f9:57:b5, 2085-97-222 248:07:255:4829,-0.936,-1.503,3.229,116.943,82.397,24.17,10.997,-6.526,163.63
 14:52:14.143,eb:33:2e:f9:57:b5, 2085-97-105 242:253:250:3624,-0.039,-1.103,2.625,222.412,-41.626,67.566,12.958,-7.015,164.004
 14:52:14.143,eb:33:2e:f9:57:b5, 2085-97-150 248:137:252:7054,-1.831,0.247,1.795,277.161,-171.57,41.443,15.381,-8.201,164.301
 14:52:14.194,eb:33:2e:f9:57:b5, 2085-97-67 247:46:239:12189,-1.877,-2.293,6.221,364.258,-131.165,95.215,18.534,-10.102,164.268
 14:52:14.194,eb:33:2e:f9:57:b5, 2085-97-208 239:69:254:18268,-1.911,0.664,6.066,252.197,3.235,-385.62,85.276,-10.173,162.296
 14:52:14.194,eb:33:2e:f9:57:b5, 2085-97-50 246:221:233:19955,-0.562,-1.658,10.531,308.838,204.468,-258.606,87.891,-6.883,163.076
 14:52:14.194,eb:33:2e:f9:57:b5, 2085-97-31 00:166:228:12225,0.39,-3.395,7.931,327.881,395.508,-107.3,90.758,-4.944,166.284
 14:52:14.252,eb:33:2e:f9:57:b5, 2085-113-81 00:120:252:-2937,0.624,-3.084,4.053,229.553,360.779,20.508,93.224,-4.774,170.338
 14:52:14.252,eb:33:2e:f9:57:b5, 2085-97-50 07:95:238:3630,1.068,-2.644,2.435,169.983,269.897,47.607,94.059,-5.07,171.881
 14:52:14.252,eb:33:2e:f9:57:b5, 2085-97-36 08:134:241:6259,0.762,-1.952,2.222,82.764,54.321,27.588,94.999,-5.455,173.337
 14:52:14.252,eb:33:2e:f9:57:b5, 2085-97-33 04:82:241:8294,0.327,-1.765,3.671,53.833,-84.717,-25.574,95.652,-5.416,173.101
 14:52:14.256,eb:33:2e:f9:57:b5, 2085-97-142 01:83:239:8218,0.099,-1.965,4.146,38.208,-127.991,-73.669,96.097,-4.625,171.991
 14:52:14.256,eb:33:2e:f9:57:b5, 2085-97-174 254:158:235:7517,-0.508,-2.231,3.865,12.512,-112.549,-101.44,96.416,-3.582,170.931
 14:52:14.256,eb:33:2e:f9:57:b5, 2085-97-27 251:251:227:6668,-0.546,-3.01,3.42,-0.732,-120.972,-105.164,96.378,-2.28,169.909
 14:52:14.256,eb:33:2e:f9:57:b5, 2085-97-168 253:20:224:4870,0.091,-3.866,2.881,-36.255,-108.032,-80.872,96.246,-1.208,168.882
 14:52:14.314,eb:33:2e:f9:57:b5, 2085-97-171 03:207:225:2755,0.743,-3.934,1.958,-130.432,-44.25,-48.157,95.273,-0.39,168.173
 14:52:14.314,eb:33:2e:f9:57:b5, 2085-97-144 10:148:231:-2126,2.108,-3.569,0.163,-266.296,4.822,-26.245,93.252,-0.038,168.129
 14:52:14.314,eb:33:2e:f9:57:b5, 2085-97-152 16:121:241:-5481,2.141,-2.26,-1.963,-451.782,33.264,-61.34,89.467,0.489,168.3
 14:52:14.314,eb:33:2e:f9:57:b5, 2085-97-253 17:143:240:-983,2.172,-1.923,-1.695,-574.036,-83.618,-140.747,84.128,1.511,168.047
 14:52:14.644,eb:33:2e:f9:57:b5, 2085-97-188 16:247:242:1139,1.884,-1.787,0.199,-562.988,-206.97,-209.717,78.179,3.17,166.24
 14:52:14.645,eb:33:2e:f9:57:b5, 2085-97-241 12:19:241:2261,1.334,-1.681,0.768,-548.828,-295.044,-252.991,72.433,4.779,163.158
 14:52:14.645,eb:33:2e:f9:57:b5, 2085-97-84 08:139:239:4052,0.729,-2.015,1.564,-574.768,-316.467,-269.653,66.302,6.24,159.236
 14:52:14.645,eb:33:2e:f9:57:b5, 2085-97-176 03:188:239:5049,0.206,-2.039,2.241,-608.154,-322.205,-262.207,59.881,7.191,155.209
 14:52:14.674,eb:33:2e:f9:57:b5, 2085-97-63 00:90:242:5396,-0.083,-1.937,2.647,-636.414,-323.669,-221.924,52.943,7.498,151.073
 14:52:14.674,eb:33:2e:f9:57:b5, 2085-97-102 254:76:247:5661,-0.379,-1.382,2.638,-638.977,-361.633,-171.143,46.049,6.762,147.25
 14:52:14.674,eb:33:2e:f9:57:b5, 2085-97-85 251:210:248:6728,-0.75,-0.925,2.981,-618.713,-425.842,-115.906,39.188,4.834,143.459
 14:52:14.674,eb:33:2e:f9:57:b5, 2085-97-212 248:202:249:7643,-1.002,-0.888,3.596,-589.478,-451.172,-47.119,32.964,1.708,140.246
 14:52:14.676,eb:33:2e:f9:57:b5, 2085-97-218 247:202:01:6724,-1.127,-0.415,3.556,-568.726,-433.35,15.808,27.004,-2.043,137.928
 14:52:14.676,eb:33:2e:f9:57:b5, 2085-97-100 245:196:15:6494,-1.533,1.051,3.145,-576.111,-425.842,51.941,21.379,-6.097,136.577
 14:52:14.676,eb:33:2e:f9:57:b5, 2085-97-88 242:90:29:6563,-1.86,2.864,3.201,-568.665,-428.772,53.894,15.546,-10.327,135.753
 14:52:14.676,eb:33:2e:f9:57:b5, 2085-97-144 239:251:38:6327,-2.28,4.35,3.178,-526.062,-394.531,31.311,10.162,-14.464,135.291
 14:52:14.676,eb:33:2e:f9:57:b5, 2085-97-212 234:38:45:7447,-3.125,5.277,3.201,-463.928,-343.811,-6.287,5.158,-18.1,134.94
 14:52:14.676,eb:33:2e:f9:57:b5, 2085-97-210 226:101:50:9783,-4.022,5.95,4.319,-406.189,-268.982,-39.612,0.989,-21.16,134.533
 14:52:14.676,eb:33:2e:f9:57:b5, 2085-97-160 222:106:59:9288,-4.099,6.768,4.822,-345.886,-150.208,-44.922,-2.752,-23.187,134.138
 14:52:14.676,eb:33:2e:f9:57:b5, 2085-97-177 224:192:70:7891,-3.793,8.208,4.177,-244.629,-74.036,-45.227,-5.57,-24.219,133.792
 14:52:14.680,eb:33:2e:f9:57:b5, 2085-97-30 226:215:71:6618,-3.69,9.133,3.541,-67.322,-79.468,-66.101,-7.009,-24.961,133.308
 14:52:14.680,eb:33:2e:f9:57:b5, 2085-97-152 226:164:60:5588,-3.588,8.414,3.026,94.116,-86.06,-79.224,-6.438,-25.911,132.654
 14:52:14.680,eb:33:2e:f9:57:b5, 2085-97-19 229:63:45:3075,-2.413,6.652,2.148,170.166,-58.777,-72.205,-4.774,-26.636,131.885
 14:52:14.680,eb:33:2e:f9:57:b5, 2085-97-49 221:101:253:8738,2.624,4.359,1.794,418.152,-231.384,-204.163,-2.252,-27.455,131.067
 14:52:14.705,eb:33:2e:f9:57:b5, 2085-97-181 17:207:55:4635,2.827,8.252,7.436,790.161,767.944,-294.8,6.097,-24.153,129.386
 14:52:14.706,eb:33:2e:f9:57:b5, 2085-97-209 247:100:249:5171,-0.791,0.997,9.019,312.134,1223.145,-84.167,12.096,-15.787,128.04
 14:52:14.706,eb:33:2e:f9:57:b5, 2085-97-168 248:181:248:6347,-0.781,-0.921,2.829,295.166,126.526,116.394,22.159,-2.34,131.825
 14:52:14.706,eb:33:2e:f9:57:b5, 2085-97-130 251:111:247:6967,-0.214,-1.032,3.078,375.366,49.377,138,25.455,-2.082,133.434
 14:52:14.708,eb:33:2e:f9:57:b5, 2085-97-149 00:20:244:10020,0.438,-1.285,4.319,486.755,5.981,131.47,29.707,-2.461,134.621
 14:52:14.708,eb:33:2e:f9:57:b5, 2085-97-122 06:104:241:11582,0.898,-1.758,5.441,620.422,62.744,124.634,35.228,-2.906,135.923
 14:52:14.708,eb:33:2e:f9:57:b5, 2085-97-80 07:217:245:13362,0.717,-1.636,5.805,757.324,172.119,94.788,42.05,-2.532,137.554
 14:52:14.708,eb:33:2e:f9:57:b5, 2085-97-145 06:24:01:13127,1.305,-0.223,6.824,814.514,315.186,20.752,49.966,-1.241,139.807
 14:52:14.764,eb:33:2e:f9:57:b5, 2085-97-198 10:42:01:12625,0.8,0.253,6.425,807.251,315.735,-38.818,58.008,0.879,142.333
