Time,Device name,Chip Time(),Acceleration X(g),Acceleration Y(g),Acceleration Z(g),Angular velocity X(°/s),Angular velocity Y(°/s),Angular velocity Z(°/s),Angle X(°),Angle Y(°),Angle Z(°)
 14:50:54.750,eb:33:2e:f9:57:b5, 2085-97-29 00:07:00:2063,0.013,0.004,1.011,5.676,2.197,0.61,-0.505,0.088,-144.02
 14:50:54.750,eb:33:2e:f9:57:b5, 2085-97-09 00:11:00:2036,0.002,0.007,1.003,5.554,2.808,0.61,-0.445,0.115,-144.014
 14:50:54.750,eb:33:2e:f9:57:b5, 2085-97-12 00:07:00:2045,0.004,0.005,0.99,5.066,2.075,0.61,-0.39,0.143,-144.009
 14:50:54.750,eb:33:2e:f9:57:b5, 2085-97-254 255:07:00:2026,0.005,0.004,0.994,4.517,2.38,0.61,-0.346,0.165,-143.998
 14:50:54.779,eb:33:2e:f9:57:b5, 2085-97-21 00:13:00:2060,0.019,0.005,1,4.272,2.258,0.671,-0.302,0.187,-143.992
 14:50:54.781,eb:33:2e:f9:57:b5, 2085-97-28 00:03:00:2087,0.012,0.005,1.02,4.639,4.211,0.488,-0.258,0.22,-143.987
 14:50:54.781,eb:33:2e:f9:57:b5, 2085-97-252 255:253:255:2063,-0.008,0.003,1.022,5.798,6.287,0.732,-0.203,0.269,-143.981
 14:50:54.781,eb:33:2e:f9:57:b5, 2085-97-229 255:254:255:2030,-0.017,-0.001,0.995,6.226,6.592,1.587,-0.143,0.335,-143.97
 14:50:54.810,eb:33:2e:f9:57:b5, 2085-97-228 255:09:00:2015,-0.01,0,0.983,6.226,5.615,2.502,-0.077,0.401,-143.948
 14:50:54.810,eb:33:2e:f9:57:b5, 2085-97-228 255:10:00:2013,-0.009,0.004,0.988,5.737,5.066,3.235,-0.016,0.456,-143.915
 14:50:54.810,eb:33:2e:f9:57:b5, 2085-97-234 255:24:00:2006,-0.006,0.007,0.989,5.188,4.639,3.54,0.033,0.505,-143.882
 14:50:54.810,eb:33:2e:f9:57:b5, 2085-97-250 255:31:00:2028,-0.005,0.015,0.986,4.517,4.395,3.296,0.082,0.549,-143.844
 14:50:54.869,eb:33:2e:f9:57:b5, 2085-97-251 255:25:00:2052,-0.002,0.015,0.991,4.395,5.127,2.625,0.126,0.599,-143.817
 14:50:54.869,eb:33:2e:f9:57:b5, 2085-113-58 00:23:233:-7695,-0.004,0.011,1.005,4.761,5.981,2.441,0.176,0.654,-143.789
 14:50:54.869,eb:33:2e:f9:57:b5, 2085-97-01 00:24:00:2067,-0.004,0.009,1.009,5.005,6.226,2.563,0.198,0.687,-143.778
 14:50:54.869,eb:33:2e:f9:57:b5, 2085-97-252 255:25:00:2072,-0.006,0.01,1.007,5.371,7.385,2.93,0.253,0.753,-143.745
 14:50:54.900,eb:33:2e:f9:57:b5, 2085-97-238 255:25:00:2063,-0.004,0.009,1.009,5.737,8.118,3.235,0.308,0.829,-143.718
 14:50:54.900,eb:33:2e:f9:57:b5, 2085-97-246 255:28:00:2081,-0.007,0.013,1.013,5.737,9.338,3.601,0.368,0.917,-143.679
 14:50:54.900,eb:33:2e:f9:57:b5, 2085-97-240 255:40:00:2054,-0.013,0.017,1.008,6.165,10.742,3.418,0.428,1.016,-143.646
 14:50:54.900,eb:33:2e:f9:57:b5, 2085-97-232 255:45:00:2046,-0.023,0.016,1.004,5.92,12.329,2.869,0.489,1.137,-143.613
 14:50:54.930,eb:33:2e:f9:57:b5, 2085-97-198 255:33:00:2019,-0.026,0.017,0.994,5.737,12.817,2.441,0.549,1.263,-143.58
 14:50:54.930,eb:33:2e:f9:57:b5, 2085-97-205 255:39:00:2037,-0.027,0.014,0.995,5.554,11.658,2.625,0.604,1.384,-143.553
 14:50:54.930,eb:33:2e:f9:57:b5, 2085-97-198 255:31:00:2069,-0.024,0.02,0.994,5.066,12.024,2.441,0.659,1.505,-143.531
 14:50:54.930,eb:33:2e:f9:57:b5, 2085-97-191 255:41:00:2043,-0.04,0.017,1.017,5.432,13.123,2.686,0.714,1.631,-143.503
 14:50:54.989,eb:33:2e:f9:57:b5, 2085-97-148 255:04:00:2104,-0.054,0.013,1.01,5.981,12.695,2.625,0.775,1.758,-143.47
 14:50:54.989,eb:33:2e:f9:57:b5, 2085-97-167 255:48:00:2004,-0.045,0.008,1.013,8.24,10.437,3.601,0.846,1.879,-143.438
 14:50:54.989,eb:33:2e:f9:57:b5, 2085-97-184 255:48:00:2059,-0.017,0.025,0.977,9.46,6.104,2.747,0.939,1.961,-143.405
 14:50:54.989,eb:33:2e:f9:57:b5, 2085-97-227 255:78:00:2060,-0.02,0.035,1.004,10.315,5.859,1.77,1.038,2.016,-143.377
 14:50:55.020,eb:33:2e:f9:57:b5, 2085-97-208 255:55:00:2123,-0.019,0.03,1.026,11.292,7.08,0.244,1.148,2.082,-143.366
 14:50:55.020,eb:33:2e:f9:57:b5, 2085-97-221 255:51:00:2212,-0.027,0.03,1.05,14.282,6.47,-0.916,1.274,2.153,-143.366
 14:50:55.020,eb:33:2e:f9:57:b5, 2085-97-191 255:54:00:2176,-0.034,0.022,1.085,17.517,9.155,-2.258,1.439,2.23,-143.383
 14:50:55.020,eb:33:2e:f9:57:b5, 2085-97-176 255:62:00:2136,-0.044,0.026,1.054,19.897,10.681,-2.869,1.626,2.329,-143.405
 14:50:55.049,eb:33:2e:f9:57:b5, 2085-97-137 255:42:00:2124,-0.059,0.029,1.037,21.362,11.108,-2.686,1.835,2.444,-143.432
 14:50:55.049,eb:33:2e:f9:57:b5, 2085-97-159 255:60:00:2167,-0.042,0.022,1.046,23.621,10.071,-2.258,2.06,2.549,-143.454
 14:50:55.049,eb:33:2e:f9:57:b5, 2085-97-168 255:70:00:2197,-0.038,0.035,1.053,26.184,10.803,-2.319,2.307,2.659,-143.47
 14:50:55.049,eb:33:2e:f9:57:b5, 2085-97-168 255:69:00:2230,-0.051,0.037,1.076,29.175,11.841,-2.38,2.587,2.774,-143.492
 14:50:55.110,eb:33:2e:f9:57:b5, 2085-97-182 255:77:00:2285,-0.038,0.035,1.066,31.738,13.672,-2.136,2.889,2.911,-143.509
 14:50:55.110,eb:33:2e:f9:57:b5, 2085-97-153 255:58:00:2373,-0.06,0.039,1.152,36.621,15.747,-2.197,3.23,3.06,-143.52
 14:50:55.110,eb:33:2e:f9:57:b5, 2085-97-156 255:87:00:2298,-0.051,0.039,1.098,40.405,18.677,-0.854,3.62,3.246,-143.525
 14:50:55.110,eb:33:2e:f9:57:b5, 2085-97-142 255:92:00:2304,-0.078,0.042,1.132,44.922,21.179,0.183,4.054,3.444,-143.514
 14:50:55.140,eb:33:2e:f9:57:b5, 2085-97-67 255:60:00:2304,-0.098,0.035,1.109,49.194,21.057,2.014,4.526,3.653,-143.487
 14:50:55.140,eb:33:2e:f9:57:b5, 2085-97-73 255:75:00:2380,-0.07,0.028,1.141,54.504,18.616,5.066,5.054,3.851,-143.432
 14:50:55.140,eb:33:2e:f9:57:b5, 2085-97-167 255:120:00:2586,-0.001,0.047,1.202,61.035,17.273,7.019,5.641,4.021,-143.355
 14:50:55.140,eb:33:2e:f9:57:b5, 2085-97-74 00:170:00:2852,0.055,0.067,1.345,70.007,23.804,6.287,6.306,4.213,-143.262
 14:50:55.170,eb:33:2e:f9:57:b5, 2085-97-153 00:203:00:3000,0.071,0.094,1.423,80.444,38.635,3.662,7.064,4.521,-143.174
 14:50:55.170,eb:33:2e:f9:57:b5, 2085-97-92 00:173:00:3071,0.004,0.096,1.486,92.346,55.115,0.671,7.943,4.993,-143.091
 14:50:55.170,eb:33:2e:f9:57:b5, 2085-97-172 255:24:00:3246,-0.04,0.053,1.515,106.201,64.514,0.549,8.948,5.598,-142.998
 14:50:55.170,eb:33:2e:f9:57:b5, 2085-97-109 00:53:00:3744,0.141,0.002,1.722,124.512,70.496,3.235,10.124,6.257,-142.866
 14:50:55.229,eb:33:2e:f9:57:b5, 2085-97-173 01:201:00:3984,0.241,0.068,1.896,146.423,87.769,1.221,11.508,7.031,-142.69
 14:50:55.229,eb:33:2e:f9:57:b5, 2085-97-222 01:83:00:4141,0.242,0.09,1.97,169.983,109.497,-4.883,13.123,8.009,-142.493
 14:50:55.229,eb:33:2e:f9:57:b5, 2085-97-21 02:163:255:4618,0.282,0.012,2.129,200.806,127.93,-9.888,15.018,9.19,-142.273
 14:50:55.229,eb:33:2e:f9:57:b5, 2085-97-162 02:210:254:4926,0.357,-0.113,2.377,240.356,150.757,-15.503,17.287,10.563,-142.004
 14:50:55.260,eb:33:2e:f9:57:b5, 2085-97-244 02:89:254:4787,0.339,-0.183,2.378,284.851,180.176,-21.973,20.001,12.211,-141.636
 14:50:55.260,eb:33:2e:f9:57:b5, 2085-97-46 02:88:253:5023,0.149,-0.281,2.382,336.121,198.608,-31.677,23.231,14.079,-141.18
 14:50:55.260,eb:33:2e:f9:57:b5, 2085-97-147 00:51:254:5160,-0.075,-0.313,2.45,393.311,213.928,-37.231,27.048,16.128,-140.581
 14:50:55.260,eb:33:2e:f9:57:b5, 2085-97-27 253:191:255:5359,-0.531,-0.123,2.519,454.224,197.021,-47.546,31.525,18.144,-139.911
 14:50:55.319,eb:33:2e:f9:57:b5, 2085-97-47 252:64:00:5380,-0.412,0.036,2.74,493.469,154.297,-49.683,36.497,19.863,-139.312
 14:50:55.319,eb:33:2e:f9:57:b5, 2085-97-216 252:40:255:4564,-0.402,-0.11,2.42,496.521,121.521,-42.969,41.655,21.209,-138.796
 14:50:55.319,eb:33:2e:f9:57:b5, 2085-97-22 255:29:254:4117,0.06,-0.131,2.214,486.145,113.831,-37.72,46.763,22.308,-138.241
 14:50:55.319,eb:33:2e:f9:57:b5, 2085-97-161 01:152:03:2811,0.301,0.239,1.486,469.238,98.694,-41.626,51.795,23.313,-137.587
 14:50:55.351,eb:33:2e:f9:57:b5, 2085-97-221 02:81:03:3481,0.221,0.515,1.467,439.941,40.161,-61.218,56.437,24.12,-137.346
 14:50:55.351,eb:33:2e:f9:57:b5, 2085-97-197 01:08:00:4027,0.669,0.267,1.861,396.057,17.456,-64.148,60.551,24.813,-137.455
 14:50:55.351,eb:33:2e:f9:57:b5, 2085-97-195 10:90:247:1542,1.927,-0.397,1.93,319.031,29.236,-68.848,64.072,25.483,-137.648
 14:50:55.351,eb:33:2e:f9:57:b5, 2085-97-210 10:226:239:-6909,1.199,-2.128,-1.614,138.306,80.994,-115.723,66.456,26.543,-137.395
 14:50:55.410,eb:33:2e:f9:57:b5, 2085-97-96 09:32:246:-2491,1.091,-1.407,-2.856,-49.927,-56.519,-154.785,66.561,27.861,-137.834
 14:50:55.410,eb:33:2e:f9:57:b5, 2085-97-111 07:29:244:1510,0.684,-1.296,0.111,-142.639,-164.612,-173.279,64.473,28.878,-139.894
 14:50:55.410,eb:33:2e:f9:57:b5, 2085-97-247 03:01:242:1688,0.385,-1.656,0.864,-158.936,-205.383,-161.621,61.534,29.52,-142.718
 14:50:55.410,eb:33:2e:f9:57:b5, 2085-97-91 02:218:241:1293,0.202,-1.769,0.738,-157.043,-210.938,-129.639,58.513,29.718,-145.646
 14:50:55.412,eb:33:2e:f9:57:b5, 2085-97-245 00:85:242:1076,0.073,-1.752,0.556,-170.349,-203.369,-92.041,55.552,29.504,-148.332
 14:50:55.412,eb:33:2e:f9:57:b5, 2085-97-131 00:162:243:986,0.084,-1.634,0.517,-204.895,-186.707,-53.955,52.553,28.938,-150.617
 14:50:55.412,eb:33:2e:f9:57:b5, 2085-97-234 00:132:244:910,0.173,-1.477,0.448,-249.512,-169.25,-20.935,49.389,28.098,-152.435
 14:50:55.412,eb:33:2e:f9:57:b5, 2085-97-177 01:142:245:1040,0.249,-1.378,0.465,-286.926,-160.95,4.028,46.022,27.043,-153.847
 14:50:55.469,eb:33:2e:f9:57:b5, 2085-97-40 02:00:247:1327,0.271,-1.219,0.591,-306.396,-168.762,20.386,42.501,25.768,-155.023
 14:50:55.469,eb:33:2e:f9:57:b5, 2085-97-58 02:107:248:1521,0.266,-1.041,0.685,-311.584,-186.157,30.334,38.952,24.252,-156.077
 14:50:55.469,eb:33:2e:f9:57:b5, 2085-97-249 01:85:249:1744,0.223,-0.888,0.785,-310.059,-208.496,35.583,35.425,22.456,-157.099
 14:50:55.469,eb:33:2e:f9:57:b5, 2085-97-139 01:25:250:2139,0.152,-0.787,0.946,-306.03,-225.403,38.086,31.992,20.429,-158.066
 14:50:55.499,eb:33:2e:f9:57:b5, 2085-97-244 00:205:250:2584,0.068,-0.693,1.145,-300.781,-234.985,39.185,28.658,18.232,-158.95
 14:50:55.499,eb:33:2e:f9:57:b5, 2085-97-53 00:141:251:2924,-0.005,-0.604,1.35,-298.096,-233.704,39.49,25.45,15.963,-159.697
 14:50:55.499,eb:33:2e:f9:57:b5, 2085-97-174 255:92:252:3255,-0.074,-0.505,1.511,-298.34,-226.074,38.208,22.308,13.694,-160.296
 14:50:55.499,eb:33:2e:f9:57:b5, 2085-97-28 255:252:252:3557,-0.141,-0.41,1.665,-299.805,-216.431,35.461,19.215,11.503,-160.746
 14:50:55.560,eb:33:2e:f9:57:b5, 2085-97-175 254:88:253:3853,-0.175,-0.351,1.816,-300.415,-207.825,33.02,16.144,9.377,-161.071
 14:50:55.560,eb:33:2e:f9:57:b5, 2085-97-136 254:171:253:4118,-0.19,-0.314,1.952,-301.27,-197.815,32.349,13.107,7.333,-161.268
 14:50:55.560,eb:33:2e:f9:57:b5, 2085-113-81 00:33:20:1977,-0.193,-0.277,2.071,-301.575,-187.622,33.752,10.069,5.378,-161.334
 14:50:55.560,eb:33:2e:f9:57:b5, 2085-97-133 254:30:254:4537,-0.181,-0.262,2.137,-300.598,-182.19,35.217,8.569,4.438,-161.312
 14:50:55.560,eb:33:2e:f9:57:b5, 2085-97-142 254:00:255:4838,-0.166,-0.19,2.295,-294.434,-169.128,39.612,5.587,2.648,-161.153
 14:50:55.589,eb:33:2e:f9:57:b5, 2085-97-186 254:123:00:5068,-0.153,-0.041,2.428,-281.128,-157.166,44.128,2.719,1,-160.851
 14:50:55.589,eb:33:2e:f9:57:b5, 2085-97-221 254:120:02:5158,-0.138,0.179,2.506,-263.611,-152.283,46.57,0,-0.549,-160.428
 14:50:55.589,eb:33:2e:f9:57:b5, 2085-97-208 254:200:04:5084,-0.174,0.454,2.503,-253.052,-158.447,45.898,-2.576,-2.082,-159.928
 14:50:55.589,eb:33:2e:f9:57:b5, 2085-97-93 254:27:07:5096,-0.244,0.743,2.478,-259.399,-171.936,42.175,-5.169,-3.713,-159.373
 14:50:55.620,eb:33:2e:f9:57:b5, 2085-97-159 253:86:09:5270,-0.373,1.031,2.521,-276.611,-180.542,36.804,-7.905,-5.433,-158.78
 14:50:55.620,eb:33:2e:f9:57:b5, 2085-97-40 252:127:11:5445,-0.626,1.301,2.626,-291.748,-179.871,31.555,-10.838,-7.174,-158.143
 14:50:55.620,eb:33:2e:f9:57:b5, 2085-97-251 249:203:13:5532,-0.875,1.589,2.69,-289.978,-167.053,28.564,-13.865,-8.811,-157.473
 14:50:55.620,eb:33:2e:f9:57:b5, 2085-97-27 248:58:16:5420,-1.069,1.875,2.688,-265.93,-144.653,30.701,-16.771,-10.239,-156.769
 14:50:55.680,eb:33:2e:f9:57:b5, 2085-97-59 247:129:18:4917,-1.002,2.174,2.566,-229.431,-104.98,36.011,-19.374,-11.321,-156.05
 14:50:55.680,eb:33:2e:f9:57:b5, 2085-97-187 248:173:22:3762,-0.861,2.51,2.2,-190.002,-35.034,38.696,-21.577,-11.838,-155.44
 14:50:55.680,eb:33:2e:f9:57:b5, 2085-97-195 248:75:27:2611,-1.062,3.184,1.479,-149.841,4.761,28.992,-23.34,-11.772,-155.083
 14:50:55.680,eb:33:2e:f9:57:b5, 2085-97-189 246:219:25:3684,-1.558,3.454,0.95,-83.008,-22.278,9.46,-24.538,-11.744,-154.891
 14:50:55.709,eb:33:2e:f9:57:b5, 2085-97-94 239:04:21:5870,-2.299,3.304,2.966,34.363,-3.418,9.766,-24.747,-11.898,-154.753
 14:50:55.709,eb:33:2e:f9:57:b5, 2085-97-243 239:20:20:5610,-1.616,2.244,3.114,138.489,99.365,33.02,-23.78,-11.448,-154.737
 14:50:55.709,eb:33:2e:f9:57:b5, 2085-97-249 251:82:17:2615,0.053,2.457,1.898,194.153,205.139,48.767,-22,-9.728,-154.962
 14:50:55.709,eb:33:2e:f9:57:b5, 2085-97-206 01:161:250:1057,0.086,-0.089,1.158,223.145,216.614,57.617,-19.852,-7.564,-155.303
 14:50:55.740,eb:33:2e:f9:57:b5, 2085-97-28 01:83:248:2120,0.031,-0.164,1.386,227.478,228.149,68.665,-17.584,-5.224,-155.314
 14:50:55.740,eb:33:2e:f9:57:b5, 2085-97-106 254:131:251:2129,-0.408,-0.797,1.054,261.353,165.649,39.49,-15.134,-3.203,-155.341
 14:50:55.740,eb:33:2e:f9:57:b5, 2085-97-186 251:174:255:2128,-0.538,-0.231,0.994,276.306,110.901,12.695,-12.404,-1.824,-155.435
 14:50:55.740,eb:33:2e:f9:57:b5, 2085-97-199 252:22:02:2587,-0.246,0.161,1.131,252.563,71.167,-2.747,-9.734,-0.961,-155.572
 14:50:55.800,eb:33:2e:f9:57:b5, 2085-97-161 254:255:01:2471,-0.107,0.249,1.239,203.186,49.744,-18.921,-7.471,-0.385,-155.77
 14:50:55.800,eb:33:2e:f9:57:b5, 2085-97-202 255:28:01:2382,0.034,0.225,1.165,158.936,17.273,-40.466,-5.691,-0.099,-156.121
 14:50:55.800,eb:33:2e:f9:57:b5, 2085-97-177 00:26:00:2365,0.134,0.039,1.14,137.39,2.869,-48.584,-4.235,-0.055,-156.588
 14:50:55.800,eb:33:2e:f9:57:b5, 2085-97-177 00:254:255:2237,0.017,-0.003,1.159,123.596,-2.93,-52.551,-2.939,-0.115,-157.104
 14:50:55.830,eb:33:2e:f9:57:b5, 2085-97-174 255:198:01:2089,-0.01,0.083,1.063,108.154,15.564,-46.57,-1.774,-0.077,-157.593
 14:50:55.830,eb:33:2e:f9:57:b5, 2085-97-147 00:141:01:2133,-0.033,0.326,0.983,49.438,20.325,-26.672,-0.978,0.088,-157.972
 14:50:55.830,eb:33:2e:f9:57:b5, 2085-97-224 254:128:00:1716,-0.082,0.169,0.942,17.395,37.354,-7.935,-0.676,0.396,-158.115
 14:50:55.830,eb:33:2e:f9:57:b5, 2085-97-28 00:00:00:2091,-0.001,0.002,0.938,6.531,24.292,1.892,-0.577,0.681,-158.143
 14:50:55.861,eb:33:2e:f9:57:b5, 2085-97-103 255:96:00:1872,-0.118,0.03,0.998,4.395,28.992,4.272,-0.522,0.961,-158.104
 14:50:55.861,eb:33:2e:f9:57:b5, 2085-97-50 255:51:00:1894,-0.061,0.043,0.888,-0.793,16.968,4.089,-0.5,1.187,-158.066
 14:50:55.861,eb:33:2e:f9:57:b5, 2085-97-184 255:07:00:2057,-0.041,0.006,0.975,-2.686,10.742,3.723,-0.522,1.318,-158.027
 14:50:55.861,eb:33:2e:f9:57:b5, 2085-97-150 255:241:255:2047,-0.046,0.003,1.002,-1.526,9.583,4.15,-0.538,1.417,-157.989
 14:50:55.920,eb:33:2e:f9:57:b5, 2085-97-158 255:07:00:2025,-0.059,-0.008,0.998,0.122,7.751,3.723,-0.544,1.505,-157.95
 14:50:55.920,eb:33:2e:f9:57:b5, 2085-97-115 255:253:255:1987,-0.065,0.008,0.975,1.038,5.859,2.808,-0.538,1.577,-157.917
 14:50:55.920,eb:33:2e:f9:57:b5, 2085-97-129 255:251:255:1991,-0.06,-0.004,0.975,2.075,2.38,1.831,-0.516,1.615,-157.89
 14:50:55.920,eb:33:2e:f9:57:b5, 2085-97-134 255:13:00:1987,-0.049,0.003,0.973,2.808,-0.549,0.854,-0.489,1.626,-157.879
 14:50:55.949,eb:33:2e:f9:57:b5, 2085-97-171 255:19:00:2028,-0.034,0.01,0.979,2.502,-2.747,0.305,-0.461,1.604,-157.868
 14:50:55.949,eb:33:2e:f9:57:b5, 2085-97-207 255:09:00:2074,-0.023,0.006,0.999,2.38,-2.991,0.366,-0.439,1.577,-157.868
 14:50:55.949,eb:33:2e:f9:57:b5, 2085-97-229 255:242:255:2121,-0.004,-0.001,1.018,3.235,-1.282,1.587,-0.406,1.555,-157.857
 14:50:55.949,eb:33:2e:f9:57:b5, 2085-97-08 00:246:255:2158,-0.002,-0.008,1.044,5.249,1.709,4.15,-0.363,1.56,-157.824
 14:50:55.980,eb:33:2e:f9:57:b5, 2085-97-249 255:13:00:2114,-0.012,-0.002,1.039,7.019,5.31,6.653,-0.297,1.599,-157.769
 14:50:55.980,eb:33:2e:f9:57:b5, 2085-97-228 255:37:00:2069,-0.021,0.01,1.019,7.568,7.751,8.057,-0.22,1.67,-157.692
 14:50:55.980,eb:33:2e:f9:57:b5, 2085-97-192 255:40:00:2032,-0.054,0.02,0.999,7.141,9.033,7.751,-0.143,1.758,-157.615
 14:50:55.980,eb:33:2e:f9:57:b5, 2085-97-114 255:20:00:1972,-0.068,0.015,0.97,6.714,7.629,6.836,-0.066,1.846,-157.538
 14:50:56.040,eb:33:2e:f9:57:b5, 2085-97-128 255:21:00:1986,-0.059,0.008,0.965,6.531,3.601,6.104,0,1.901,-157.473
 14:50:56.040,eb:33:2e:f9:57:b5, 2085-97-143 255:40:00:1989,-0.045,0.016,0.966,5.798,1.282,5.554,0.06,1.923,-157.418
 14:50:56.040,eb:33:2e:f9:57:b5, 2085-97-170 255:42:00:2011,-0.029,0.021,0.982,4.883,0.916,4.7,0.115,1.934,-157.363
 14:50:56.040,eb:33:2e:f9:57:b5, 2085-97-208 255:51:00:2055,-0.024,0.025,0.996,4.395,1.526,3.662,0.165,1.945,-157.319
 14:50:56.070,eb:33:2e:f9:57:b5, 2085-97-214 255:52:00:2064,-0.024,0.026,1.001,4.089,3.418,3.235,0.209,1.972,-157.28
 14:50:56.070,eb:33:2e:f9:57:b5, 2085-97-209 255:56:00:2049,-0.032,0.027,1,3.784,4.944,2.625,0.253,2.016,-157.253
 14:50:56.070,eb:33:2e:f9:57:b5, 2085-97-179 255:54:00:2024,-0.045,0.024,0.993,3.54,6.165,1.648,0.291,2.076,-157.231
 14:50:56.070,eb:33:2e:f9:57:b5, 2085-113-58 00:58:228:-8700,-0.052,0.023,0.984,3.113,6.165,0.488,0.324,2.142,-157.22
 14:50:56.099,eb:33:2e:f9:57:b5, 2085-97-146 255:45:00:2007,-0.055,0.022,0.98,2.93,5.615,0.122,0.341,2.17,-157.22
 14:50:56.099,eb:33:2e:f9:57:b5, 2085-97-144 255:34:00:2022,-0.042,0.018,0.982,2.808,4.395,0.122,0.368,2.219,-157.214
 14:50:56.099,eb:33:2e:f9:57:b5, 2085-97-171 255:34:00:2062,-0.04,0.018,1,3.235,4.028,0.183,0.401,2.263,-157.214
 14:50:56.099,eb:33:2e:f9:57:b5, 2085-97-178 255:30:00:2075,-0.038,0.014,1.013,4.211,4.578,0.732,0.439,2.307,-157.203
 14:50:56.159,eb:33:2e:f9:57:b5, 2085-97-167 255:38:00:2058,-0.038,0.019,1.014,5.005,5.92,1.343,0.489,2.362,-157.192
 14:50:56.160,eb:33:2e:f9:57:b5, 2085-97-179 255:51:00:2058,-0.043,0.017,1.017,5.737,6.714,1.831,0.544,2.422,-157.176
 14:50:56.160,eb:33:2e:f9:57:b5, 2085-97-150 255:33:00:2048,-0.055,0.018,1.011,6.592,7.812,1.892,0.61,2.499,-157.154
 14:50:56.160,eb:33:2e:f9:57:b5, 2085-97-107 255:36:00:1999,-0.086,0.022,0.985,7.385,6.714,2.258,0.681,2.571,-157.132
 14:50:56.190,eb:33:2e:f9:57:b5, 2085-97-65 255:18:00:1972,-0.083,0.018,0.961,7.08,3.662,3.052,0.758,2.631,-157.104
 14:50:56.190,eb:33:2e:f9:57:b5, 2085-97-107 255:43:00:2006,-0.062,0.02,0.958,6.775,-0.793,4.822,0.829,2.642,-157.061
 14:50:56.190,eb:33:2e:f9:57:b5, 2085-97-134 255:52:00:2033,-0.043,0.038,0.968,6.104,-2.441,4.822,0.901,2.62,-157.006
 14:50:56.190,eb:33:2e:f9:57:b5, 2085-97-216 255:86:00:2092,-0.004,0.036,0.999,6.348,-3.479,4.395,0.967,2.587,-156.962
 14:50:56.249,eb:33:2e:f9:57:b5, 2085-97-254 255:76:00:2161,-0.025,0.047,1.032,7.324,-0.671,1.831,1.033,2.571,-156.929
 14:50:56.249,eb:33:2e:f9:57:b5, 2085-97-204 255:64:00:2138,0.002,0.027,1.052,11.536,0.488,0,1.132,2.576,-156.918
 14:50:56.249,eb:33:2e:f9:57:b5, 2085-97-137 00:192:00:2180,-0.014,0.057,1.046,16.602,-0.305,-2.747,1.274,2.571,-156.929
 14:50:56.249,eb:33:2e:f9:57:b5, 2085-97-137 255:78:00:2066,-0.061,0.042,1.053,21.545,2.563,-6.897,1.467,2.593,-156.984
 14:50:56.280,eb:33:2e:f9:57:b5, 2085-97-90 255:04:00:2229,-0.108,0.027,1.046,25.513,-2.136,-7.751,1.703,2.593,-157.061
 14:50:56.280,eb:33:2e:f9:57:b5, 2085-97-159 255:17:00:2443,-0.022,-0.002,1.101,31.738,-4.7,-7.385,1.983,2.576,-157.137
 14:50:56.280,eb:33:2e:f9:57:b5, 2085-97-109 255:03:00:2594,-0.14,0.024,1.209,40.222,-2.075,-6.836,2.351,2.538,-157.209
 14:50:56.280,eb:33:2e:f9:57:b5, 2085-97-10 255:144:255:3012,-0.097,-0.044,1.388,51.514,2.991,-5.737,2.802,2.549,-157.269
 14:50:56.310,eb:33:2e:f9:57:b5, 2085-97-30 255:118:255:3057,-0.136,-0.041,1.481,71.106,4.944,-3.784,3.428,2.598,-157.313
 14:50:56.310,eb:33:2e:f9:57:b5, 2085-97-60 255:135:255:3151,-0.042,-0.083,1.515,89.172,7.751,0.793,4.241,2.664,-157.324
 14:50:56.310,eb:33:2e:f9:57:b5, 2085-97-242 255:12:00:3013,0.013,-0.027,1.482,108.521,12.207,3.54,5.24,2.769,-157.286
 14:50:56.310,eb:33:2e:f9:57:b5, 2085-97-00 00:213:255:3103,-0.012,0.005,1.509,126.343,18.616,2.747,6.432,2.911,-157.242
 14:50:56.340,eb:33:2e:f9:57:b5, 2085-97-219 255:143:255:3293,-0.013,-0.035,1.563,146.973,29.541,3.784,7.806,3.148,-157.176
 14:50:56.340,eb:33:2e:f9:57:b5, 2085-97-03 00:101:255:3539,0,-0.049,1.68,169.495,38.513,5.676,9.404,3.477,-157.083
 14:50:56.340,eb:33:2e:f9:57:b5, 2085-97-201 00:181:255:3919,0.204,-0.083,1.813,195.007,51.27,9.277,11.25,3.911,-156.918
 14:50:56.340,eb:33:2e:f9:57:b5, 2085-97-116 01:110:255:4309,0.216,-0.025,2.007,225.525,67.749,5.737,13.381,4.477,-156.709
 14:50:56.399,eb:33:2e:f9:57:b5, 2085-97-238 01:65:255:4411,0.28,-0.084,2.148,258.24,96.619,3.723,15.837,5.273,-156.451
 14:50:56.399,eb:33:2e:f9:57:b5, 2085-97-200 02:200:254:4823,0.435,-0.108,2.223,294.373,121.704,-0.977,18.649,6.323,-156.105
 14:50:56.399,eb:33:2e:f9:57:b5, 2085-97-54 04:192:254:5029,0.555,-0.15,2.453,338.013,155.396,-10.376,21.879,7.652,-155.676
 14:50:56.399,eb:33:2e:f9:57:b5, 2085-97-76 03:15:254:5187,0.031,-0.166,2.498,387.329,188.049,-24.048,25.604,9.322,-155.127
 14:50:56.461,eb:33:2e:f9:57:b5, 2085-97-176 253:52:253:6155,-0.468,-0.304,2.641,442.383,187.927,-33.325,29.888,11.162,-154.49
 14:50:56.461,eb:33:2e:f9:57:b5, 2085-97-196 251:42:255:6750,-0.523,-0.177,3.309,499.084,173.828,-27.405,34.788,12.843,-153.765
 14:50:56.461,eb:33:2e:f9:57:b5, 2085-97-172 251:246:00:5460,-0.532,0.008,2.941,518.127,159.729,-11.841,40.122,14.271,-152.891
 14:50:56.461,eb:33:2e:f9:57:b5, 2085-97-235 252:55:01:4649,-0.259,0.203,2.457,506.897,137.207,0,45.505,15.392,-151.897
 14:50:56.461,eb:33:2e:f9:57:b5, 2085-97-227 254:148:00:3819,-0.221,0.021,2.01,494.263,115.845,8.789,50.768,16.188,-150.886
 14:50:56.461,eb:33:2e:f9:57:b5, 2085-97-99 00:100:01:4150,0.316,0.223,1.906,487,98.267,7.751,55.926,16.776,-149.93
 14:50:56.461,eb:33:2e:f9:57:b5, 2085-97-57 04:127:254:3937,0.733,-0.024,1.969,470.093,77.026,2.502,60.958,17.183,-149.145
 14:50:56.462,eb:33:2e:f9:57:b5, 2085-97-232 06:34:252:3908,0.962,-0.323,1.877,440.125,56.58,-9.094,65.665,17.501,-148.541
 14:50:56.520,eb:33:2e:f9:57:b5, 2085-97-227 07:213:249:3639,0.925,-0.74,1.923,418.579,29.785,-36.621,70.038,17.88,-148.217
 14:50:56.520,eb:33:2e:f9:57:b5, 2085-97-52 07:255:248:3059,0.881,-0.757,1.58,391.113,-5.432,-78.43,74.048,18.468,-148.31
 14:50:56.520,eb:33:2e:f9:57:b5, 2085-97-95 06:28:247:-385,0.737,-0.938,0.833,306.03,18.005,-105.164,77.509,19.396,-148.535
 14:50:56.520,eb:33:2e:f9:57:b5, 2085-97-135 05:09:243:-4328,0.552,-1.433,-1.394,113.525,27.283,-113.342,79.601,20.539,-148.48
 14:50:56.550,eb:33:2e:f9:57:b5, 2085-97-198 03:45:242:-2793,0.509,-1.776,-1.98,-87.891,-11.841,-105.957,79.514,21.638,-148.612
 14:50:56.550,eb:33:2e:f9:57:b5, 2085-97-222 03:177:245:-216,0.404,-1.505,-0.632,-218.445,-43.884,-93.994,77.662,22.549,-149.172
 14:50:56.550,eb:33:2e:f9:57:b5, 2085-97-190 02:114:247:644,0.286,-1.141,0.18,-307.007,-41.382,-82.092,74.68,23.286,-149.865
 14:50:56.550,eb:33:2e:f9:57:b5, 2085-97-165 02:184:247:724,0.339,-1.047,0.335,-365.356,-41.809,-70.435,70.999,23.895,-150.513
 14:50:56.580,eb:33:2e:f9:57:b5, 2085-97-36 03:255:247:566,0.381,-1.033,0.266,-400.33,-52.856,-61.584,66.824,24.335,-151.254
 14:50:56.580,eb:33:2e:f9:57:b5, 2085-97-244 02:135:248:861,0.371,-0.973,0.322,-409.546,-72.021,-55.969,62.375,24.593,-152.139
 14:50:56.580,eb:33:2e:f9:57:b5, 2085-97-71 03:70:250:1262,0.388,-0.843,0.52,-388,-99.792,-50.415,57.898,24.615,-153.265
 14:50:56.580,eb:33:2e:f9:57:b5, 2085-97-230 02:90:251:1173,0.322,-0.615,0.585,-361.206,-125.366,-44.373,53.63,24.368,-154.583
 14:50:56.671,eb:33:2e:f9:57:b5, 2085-97-96 02:245:250:1255,0.241,-0.6,0.575,-350.22,-150.146,-36.865,49.477,23.807,-156.066
 14:50:56.671,eb:33:2e:f9:57:b5, 2085-97-109 01:168:250:1453,0.144,-0.651,0.647,-362.61,-152.344,-24.475,45.346,23,-157.511
 14:50:56.671,eb:33:2e:f9:57:b5, 2085-97-193 00:222:250:2057,0.06,-0.66,0.853,-381.47,-143.555,-9.094,41.127,22.022,-158.747
 14:50:56.671,eb:33:2e:f9:57:b5, 2085-97-111 00:227:251:2583,0.047,-0.594,1.149,-387.939,-134.583,7.935,36.92,20.951,-159.675
 14:50:56.698,eb:33:2e:f9:57:b5, 2085-97-158 00:147:253:2699,0.104,-0.412,1.297,-378.54,-129.822,24.048,32.838,19.77,-160.329
 14:50:56.698,eb:33:2e:f9:57:b5, 2085-97-40 01:241:254:2640,0.176,-0.215,1.303,-358.765,-134.766,35.828,29.015,18.484,-160.757
 14:50:56.698,eb:33:2e:f9:57:b5, 2085-97-146 01:33:00:2642,0.202,-0.057,1.28,-337.769,-149.658,41.931,25.428,17.029,-161.076
 14:50:56.698,eb:33:2e:f9:57:b5, 2085-97-112 01:206:00:2990,0.14,0.08,1.357,-319.824,-171.448,43.701,22.077,15.381,-161.34
 14:50:56.703,eb:33:2e:f9:57:b5, 2085-97-187 00:151:00:3511,0.041,0.095,1.588,-309.326,-187.073,46.204,18.869,13.524,-161.559
 14:50:56.703,eb:33:2e:f9:57:b5, 2085-97-16 00:48:00:3965,-0.013,0.045,1.828,-303.528,-191.406,54.199,15.793,11.558,-161.647
 14:50:56.703,eb:33:2e:f9:57:b5, 2085-97-216 255:47:00:4438,-0.018,0.016,2.045,-300.415,-185.852,66.772,12.777,9.564,-161.526
 14:50:56.703,eb:33:2e:f9:57:b5, 2085-97-229 255:172:00:4913,0.007,0.044,2.289,-297.546,-168.396,81.177,9.849,7.679,-161.136
 14:50:56.760,eb:33:2e:f9:57:b5, 2085-97-88 00:206:01:5267,0.082,0.144,2.5,-293.579,-143.066,93.506,6.954,6.01,-160.483
 14:50:56.760,eb:33:2e:f9:57:b5, 2085-97-10 01:109:03:5220,0.193,0.32,2.591,-291.992,-115.356,99.792,4.109,4.647,-159.631
 14:50:56.760,eb:33:2e:f9:57:b5, 2085-97-14 02:116:05:4886,0.3,0.551,2.475,-294.312,-98.633,97.168,1.225,3.549,-158.687
 14:50:56.760,eb:33:2e:f9:57:b5, 2085-97-172 02:116:07:4618,0.333,0.808,2.305,-300.293,-105.347,84.595,-1.692,2.549,-157.769
 14:50:56.790,eb:33:2e:f9:57:b5, 2085-97-125 02:78:09:4513,0.271,1.051,2.218,-309.509,-130.676,64.941,-4.735,1.401,-156.962
 14:50:56.790,eb:33:2e:f9:57:b5, 2085-97-198 01:32:11:4723,0.148,1.276,2.231,-317.566,-165.955,42.053,-7.866,-0.022,-156.275
 14:50:56.790,eb:33:2e:f9:57:b5, 2085-97-78 00:238:12:5046,-0.087,1.494,2.38,-315.613,-199.402,19.592,-11.069,-1.807,-155.676
 14:50:56.790,eb:33:2e:f9:57:b5, 2085-97-62 254:225:14:5325,-0.344,1.734,2.547,-296.326,-225.037,0,-14.161,-3.873,-155.127
 14:50:56.850,eb:33:2e:f9:57:b5, 2085-97-159 252:91:17:5215,-0.386,2,2.58,-259.644,-234.253,-13.855,-16.996,-6.141,-154.578
 14:50:56.850,eb:33:2e:f9:57:b5, 2085-97-43 253:250:21:4801,-0.355,2.416,2.505,-217.651,-201.233,-31.555,-19.418,-8.317,-154.094
 14:50:56.850,eb:33:2e:f9:57:b5, 2085-113-81 00:55:26:-4122,-0.387,3.133,2.113,-184.204,-144.226,-60.059,-21.44,-10.069,-153.929
 14:50:56.850,eb:33:2e:f9:57:b5, 2085-97-246 251:164:28:3049,-0.748,3.435,1.851,-164.978,-125.122,-79.468,-22.291,-10.811,-154.017
 14:50:56.850,eb:33:2e:f9:57:b5, 2085-97-23 247:172:26:1783,-1.459,3.556,1.084,-109.985,-134.033,-113.464,-23.571,-12.349,-154.457
 14:50:56.879,eb:33:2e:f9:57:b5, 2085-97-186 241:77:22:2618,-2.058,3.068,0.977,-33.508,-180.176,-121.155,-24.137,-14.321,-154.913
 14:50:56.879,eb:33:2e:f9:57:b5, 2085-97-35 238:153:17:4104,-2.288,2.5,1.652,28.076,-160.461,-94.971,-24.044,-16.386,-155.198
 14:50:56.879,eb:33:2e:f9:57:b5, 2085-97-16 240:191:11:5372,-4.376,1.91,2.229,64.697,-49.316,-44.006,-23.478,-17.628,-155.402
 14:50:56.879,eb:33:2e:f9:57:b5, 2085-97-112 243:160:08:1951,0.286,-0.743,8.459,159.485,378.113,106.506,-22.22,-16.551,-155.555
 14:50:56.910,eb:33:2e:f9:57:b5, 2085-97-93 06:186:246:082,0.76,-0.225,0.555,146.057,308.533,120.117,-20.544,-13.041,-155.995
 14:50:56.910,eb:33:2e:f9:57:b5, 2085-97-97 02:163:248:936,0.108,-1.046,0.345,161.194,286.316,193.298,-19.16,-9.619,-155.44
 14:50:56.910,eb:33:2e:f9:57:b5, 2085-97-151 254:196:250:1158,-0.353,-1.106,0.333,215.576,170.959,172.546,-17.402,-6.943,-154.363
 14:50:56.910,eb:33:2e:f9:57:b5, 2085-97-231 251:187:254:1841,-0.677,-0.365,0.844,259.155,109.253,128.357,-15.09,-5.268,-153.309
 14:50:56.970,eb:33:2e:f9:57:b5, 2085-97-66 251:210:00:2318,-0.474,0.078,1.062,272.4,87.097,87.341,-12.458,-4.103,-152.474
 14:50:56.970,eb:33:2e:f9:57:b5, 2085-97-178 252:254:01:2969,-0.379,0.188,1.216,261.902,83.374,41.382,-9.811,-3.142,-152.04
 14:50:56.970,eb:33:2e:f9:57:b5, 2085-97-236 253:33:02:2487,-0.19,0.301,1.272,231.018,61.89,-16.113,-7.35,-2.379,-152.034
 14:50:56.970,eb:33:2e:f9:57:b5, 2085-97-133 255:48:02:2385,0.003,0.246,1.192,193.909,20.752,-49.561,-5.224,-2.016,-152.446
 14:50:56.999,eb:33:2e:f9:57:b5, 2085-97-175 00:178:01:2376,0.162,0.27,1.16,150.391,-17.151,-57.251,-3.494,-2.06,-152.99
 14:50:56.999,eb:33:2e:f9:57:b5, 2085-97-02 01:134:02:2148,0.059,0.229,1.138,102.295,-14.16,-43.823,-2.219,-2.274,-153.501
 14:50:56.999,eb:33:2e:f9:57:b5, 2085-97-150 00:171:01:2030,-0.034,0.2,0.971,45.715,0.854,-12.756,-1.522,-2.329,-153.765
 14:50:56.999,eb:33:2e:f9:57:b5, 2085-97-98 255:96:01:1692,-0.022,0.145,0.891,21.423,10.01,-3.174,-1.214,-2.241,-153.82
 14:50:57.029,eb:33:2e:f9:57:b5, 2085-97-44 00:50:00:2016,0.018,0.027,0.94,12.695,2.258,-9.888,-1.055,-2.192,-153.896
 14:50:57.029,eb:33:2e:f9:57:b5, 2085-97-80 00:63:00:1990,0.047,0.023,0.974,10.01,3.845,-8.423,-0.934,-2.164,-153.99
 14:50:57.029,eb:33:2e:f9:57:b5, 2085-97-34 00:65:00:1988,0,0.051,0.989,3.723,6.775,-4.944,-0.868,-2.115,-154.045
 14:50:57.029,eb:33:2e:f9:57:b5, 2085-97-09 00:25:00:2005,0.007,0.014,0.964,1.404,4.211,-4.15,-0.84,-2.054,-154.094
 14:50:57.123,eb:33:2e:f9:57:b5, 2085-97-21 00:22:00:2010,0.019,0.012,0.981,0.427,1.892,-3.662,-0.829,-2.027,-154.133
 14:50:57.123,eb:33:2e:f9:57:b5, 2085-97-39 00:17:00:2024,0.018,0.016,0.989,-0.549,0.732,-2.502,-0.824,-2.01,-154.16
 14:50:57.123,eb:33:2e:f9:57:b5, 2085-97-49 00:255:255:2043,0.021,0,0.991,-0.671,0.732,-1.831,-0.829,-2.005,-154.182
 14:50:57.123,eb:33:2e:f9:57:b5, 2085-97-27 00:254:255:2025,0.014,-0.002,0.992,0,0,-1.404,-0.829,-2,-154.199
 14:50:57.123,eb:33:2e:f9:57:b5, 2085-97-41 00:251:255:2036,0.021,-0.002,0.99,0.793,-1.343,-1.099,-0.824,-2.005,-154.21
 14:50:57.123,eb:33:2e:f9:57:b5, 2085-97-54 00:04:00:2042,0.031,-0.001,0.995,1.526,-1.953,-0.793,-0.807,-2.021,-154.221
 14:50:57.123,eb:33:2e:f9:57:b5, 2085-97-87 00:20:00:2061,0.048,0.006,0.998,2.014,-1.465,-0.61,-0.786,-2.038,-154.226
 14:50:57.123,eb:33:2e:f9:57:b5, 2085-97-105 00:31:00:2070,0.051,0.013,1.01,2.014,1.221,-0.671,-0.764,-2.038,-154.232
 14:50:57.151,eb:33:2e:f9:57:b5, 2085-97-92 00:30:00:2064,0.035,0.018,1.01,2.075,4.761,-1.404,-0.742,-2.005,-154.243
 14:50:57.151,eb:33:2e:f9:57:b5, 2085-97-68 00:02:00:2080,0.042,0.009,1.01,2.625,7.446,-1.77,-0.709,-1.939,-154.259
 14:50:57.151,eb:33:2e:f9:57:b5, 2085-97-101 00:235:255:2127,0.049,-0.004,1.027,4.761,9.583,-1.099,-0.67,-1.857,-154.27
 14:50:57.151,eb:33:2e:f9:57:b5, 2085-97-99 00:248:255:2114,0.026,-0.013,1.035,7.874,10.925,0.122,-0.604,-1.747,-154.281
 14:50:57.240,eb:33:2e:f9:57:b5, 2085-97-26 00:248:255:2033,-0.002,-0.002,1.001,8.24,11.108,2.808,-0.516,-1.631,-154.265
 14:50:57.240,eb:33:2e:f9:57:b5, 2085-97-14 00:08:00:2005,0.013,-0.006,0.972,6.775,7.812,6.165,-0.439,-1.533,-154.215
 14:50:57.240,eb:33:2e:f9:57:b5, 2085-97-52 00:33:00:2023,0.024,0.01,0.979,5.493,5.31,7.629,-0.385,-1.467,-154.144
 14:50:57.240,eb:33:2e:f9:57:b5, 2085-97-36 00:33:00:2010,0.022,0.016,0.986,4.15,5.615,8.057,-0.33,-1.412,-154.067
 14:50:57.242,eb:33:2e:f9:57:b5, 2085-97-31 00:30:00:2013,0.013,0.015,0.992,3.174,5.676,7.874,-0.297,-1.351,-153.984
 14:50:57.242,eb:33:2e:f9:57:b5, 2085-97-42 00:43:00:2021,0.015,0.019,0.985,2.502,4.089,7.019,-0.264,-1.307,-153.907
 14:50:57.242,eb:33:2e:f9:57:b5, 2085-97-29 00:36:00:2036,0.015,0.019,0.983,2.441,4.211,5.493,-0.242,-1.263,-153.847
 14:50:57.242,eb:33:2e:f9:57:b5, 2085-97-23 00:34:00:2033,0.016,0.018,0.995,2.686,5.676,3.54,-0.214,-1.208,-153.803
 14:50:57.299,eb:33:2e:f9:57:b5, 2085-97-35 00:35:00:2043,0.021,0.016,0.997,3.052,6.836,2.136,-0.181,-1.148,-153.77
 14:50:57.299,eb:33:2e:f9:57:b5, 2085-97-47 00:31:00:2071,0.015,0.016,1.003,3.601,8.24,0.916,-0.143,-1.066,-153.759
 14:50:57.299,eb:33:2e:f9:57:b5, 2085-97-15 00:22:00:2049,-0.003,0.015,1.002,4.456,10.315,0.061,-0.104,-0.972,-153.754
 14:50:57.299,eb:33:2e:f9:57:b5, 2085-97-246 255:13:00:2037,-0.008,0.006,0.993,5.31,10.01,0.061,-0.049,-0.862,-153.754
 14:50:57.390,eb:33:2e:f9:57:b5, 2085-97-215 255:14:00:2008,-0.02,0.01,0.987,5.676,9.094,0.671,0,-0.769,-153.748
 14:50:57.390,eb:33:2e:f9:57:b5, 2085-97-224 255:24:00:2008,0.004,0.009,0.979,5.249,6.653,1.892,0.06,-0.687,-153.732
 14:50:57.390,eb:33:2e:f9:57:b5, 2085-97-30 00:38:00:2076,0.014,0.02,0.994,4.944,5.737,2.625,0.11,-0.626,-153.704
 14:50:57.390,eb:33:2e:f9:57:b5, 2085-97-32 00:52:00:2058,0.01,0.025,0.999,4.578,8.362,2.563,0.165,-0.555,-153.677
 14:50:57.392,eb:33:2e:f9:57:b5, 2085-97-250 255:33:00:2040,0.011,0.022,1.002,4.456,10.986,1.953,0.209,-0.456,-153.655
 14:50:57.392,eb:33:2e:f9:57:b5, 2085-97-239 255:33:00:2056,-0.012,0.023,1.007,4.517,12.268,1.892,0.258,-0.341,-153.633
 14:50:57.392,eb:33:2e:f9:57:b5, 2085-97-230 255:31:00:2049,-0.025,0.02,0.988,4.395,12.512,2.441,0.308,-0.214,-153.611
 14:50:57.392,eb:33:2e:f9:57:b5, 2085-97-216 255:35:00:2010,-0.01,0.021,0.979,3.845,12.634,3.662,0.352,-0.088,-153.578
 14:50:57.450,eb:33:2e:f9:57:b5, 2085-97-239 255:57:00:2015,-0.02,0.027,1,3.418,11.536,4.395,0.39,0.027,-153.534
 14:50:57.450,eb:33:2e:f9:57:b5, 2085-97-19 00:42:00:2140,0.002,0.029,0.975,1.892,11.841,4.822,0.417,0.159,-153.484
 14:50:57.450,eb:33:2e:f9:57:b5, 2085-97-200 255:59:00:2014,0.017,0.033,1,2.014,15.869,5.005,0.445,0.297,-153.43
 14:50:57.451,eb:33:2e:f9:57:b5, 2085-97-240 255:69:00:2042,0.002,0.028,1.031,3.296,13.123,4.639,0.478,0.428,-153.386
 14:50:57.455,eb:33:2e:f9:57:b5, 2085-97-244 255:16:00:2329,-0.107,0.028,1.037,5.798,8.789,4.333,0.522,0.538,-153.342
 14:50:57.455,eb:33:2e:f9:57:b5, 2085-97-72 255:31:255:2906,-0.062,-0.104,1.367,20.508,7.141,6.165,0.648,0.615,-153.298
 14:50:57.455,eb:33:2e:f9:57:b5, 2085-97-72 255:129:255:2872,-0.034,-0.061,1.365,45.105,1.16,9.827,0.994,0.659,-153.204
 14:50:57.455,eb:33:2e:f9:57:b5, 2085-97-47 255:38:255:3019,-0.097,-0.067,1.427,63.965,-1.648,10.376,1.56,0.643,-153.105
 14:50:57.479,eb:33:2e:f9:57:b5, 2085-97-131 255:76:255:3067,-0.037,-0.121,1.55,84.045,0.366,13.306,2.307,0.626,-152.99
 14:50:57.479,eb:33:2e:f9:57:b5, 2085-97-129 255:127:255:2886,-0.073,-0.06,1.412,105.347,-2.93,15.991,3.274,0.621,-152.836
 14:50:57.479,eb:33:2e:f9:57:b5, 2085-97-144 255:64:255:3102,-0.018,-0.083,1.449,124.023,-7.202,17.883,4.433,0.549,-152.672
 14:50:57.479,eb:33:2e:f9:57:b5, 2085-97-29 00:117:255:3309,0.078,-0.073,1.567,143.738,-2.563,20.386,5.784,0.483,-152.479
 14:50:57.511,eb:33:2e:f9:57:b5, 2085-97-177 00:146:255:3339,0.113,-0.051,1.649,166.809,8.545,19.104,7.35,0.489,-152.276
 14:50:57.511,eb:33:2e:f9:57:b5, 2085-97-230 00:162:255:3331,0.1,-0.038,1.609,187.988,23.926,16.846,9.146,0.637,-152.073
 14:50:57.511,eb:33:2e:f9:57:b5, 2085-97-172 00:93:255:3509,0.145,-0.075,1.642,208.557,40.283,16.235,11.14,0.934,-151.859
 14:50:57.511,eb:33:2e:f9:57:b5, 2085-97-124 01:50:255:3891,0.247,-0.08,1.812,233.643,55.298,15.259,13.37,1.368,-151.6
 14:50:57.570,eb:33:2e:f9:57:b5, 2085-97-184 02:166:255:4024,0.427,-0.096,1.956,261.902,85.51,11.902,15.87,2.021,-151.287
 14:50:57.570,eb:33:2e:f9:57:b5, 2085-113-81 00:45:31:2150,0.39,-0.016,1.989,295.776,117.615,0.732,18.682,2.983,-150.914
 14:50:57.570,eb:33:2e:f9:57:b5, 2085-97-31 03:253:254:4461,0.431,-0.106,2.092,312.561,136.292,-3.174,20.22,3.587,-150.705
 14:50:57.570,eb:33:2e:f9:57:b5, 2085-97-173 02:143:254:4857,0.229,-0.095,2.209,349.548,168.03,-12.817,23.588,5.054,-150.194
 14:50:57.599,eb:33:2e:f9:57:b5, 2085-97-54 01:160:255:5460,0.122,-0.102,2.572,391.113,205.688,-17.212,27.372,6.833,-149.524
 14:50:57.599,eb:33:2e:f9:57:b5, 2085-97-17 00:126:01:6038,-0.205,-0.078,2.735,447.388,191.101,-19.592,31.696,8.712,-148.672
 14:50:57.599,eb:33:2e:f9:57:b5, 2085-97-04 253:06:04:7713,-0.458,0.338,3.5,497.864,154.114,-35.583,36.595,10.223,-147.964
 14:50:57.599,eb:33:2e:f9:57:b5, 2085-97-137 255:22:08:6145,-0.125,0.526,3.378,508.911,193.054,-37.537,41.814,11.876,-147.112
 14:50:57.629,eb:33:2e:f9:57:b5, 2085-97-123 255:77:03:6097,0.046,0.504,2.971,482.788,197.876,-48.34,47,13.59,-146.052
 14:50:57.629,eb:33:2e:f9:57:b5, 2085-97-26 01:208:254:5462,0.333,0.159,2.961,473.633,220.886,-44.983,52.103,15.298,-144.717
 14:50:57.629,eb:33:2e:f9:57:b5, 2085-97-41 04:188:251:3913,0.872,-0.496,2.38,480.896,220.398,-32.776,57.321,16.913,-143.053
 14:50:57.629,eb:33:2e:f9:57:b5, 2085-97-176 07:38:251:1780,0.951,-0.585,1.342,487.915,145.325,-17.09,62.666,18.034,-141.498
 14:50:57.689,eb:33:2e:f9:57:b5, 2085-97-234 07:25:250:2405,1.114,-0.69,0.916,476.746,22.156,-17.029,67.676,18.512,-140.834
 14:50:57.689,eb:33:2e:f9:57:b5, 2085-97-139 09:178:250:2573,1.16,-0.708,1.316,464.417,-78.552,-42.175,72.252,18.649,-141.295
 14:50:57.689,eb:33:2e:f9:57:b5, 2085-97-158 07:149:248:2547,0.836,-0.739,1.169,410.889,-144.226,-95.581,76.168,19.006,-142.701
 14:50:57.689,eb:33:2e:f9:57:b5, 2085-97-76 05:02:245:312,0.418,-1.195,1.068,325.439,-147.949,-134.216,79.261,19.88,-144.553
 14:50:57.720,eb:33:2e:f9:57:b5, 2085-97-10 02:00:239:-1830,0.091,-1.747,-0.553,136.963,-115.417,-143.494,80.953,21.055,-146.201
 14:50:57.720,eb:33:2e:f9:57:b5, 2085-97-94 00:71:239:-1454,0.068,-2.254,-0.981,-62.012,-76.721,-110.535,80.76,22.165,-147.387
 14:50:57.720,eb:33:2e:f9:57:b5, 2085-97-53 01:254:242:275,0.228,-1.855,-0.28,-210.754,-49.988,-77.271,78.937,22.95,-148.239
 14:50:57.720,eb:33:2e:f9:57:b5, 2085-97-217 01:28:246:1063,0.272,-1.398,0.453,-321.411,-8.972,-48.279,76.036,23.494,-148.683
 14:50:57.751,eb:33:2e:f9:57:b5, 2085-97-130 02:117:248:961,0.335,-1.079,0.512,-391.968,19.531,-29.907,72.389,23.868,-148.722
 14:50:57.751,eb:33:2e:f9:57:b5, 2085-97-60 03:220:249:889,0.491,-0.847,0.431,-438.538,16.113,-22.705,68.247,24.175,-148.585
 14:50:57.751,eb:33:2e:f9:57:b5, 2085-97-44 04:186:250:703,0.588,-0.704,0.414,-460.938,-14.404,-23.56,63.666,24.379,-148.694
 14:50:57.751,eb:33:2e:f9:57:b5, 2085-97-30 05:48:251:987,0.674,-0.629,0.375,-461.853,-63.171,-31.067,58.81,24.417,-149.222
 14:50:57.811,eb:33:2e:f9:57:b5, 2085-97-48 05:126:252:1553,0.602,-0.523,0.625,-438.66,-110.718,-40.1,53.86,24.208,-150.271
 14:50:57.811,eb:33:2e:f9:57:b5, 2085-97-78 04:05:253:2006,0.474,-0.375,0.893,-406.799,-148.01,-43.762,49.065,23.708,-151.694
 14:50:57.811,eb:33:2e:f9:57:b5, 2085-97-61 03:237:252:2016,0.349,-0.382,1.008,-382.263,-165.039,-41.016,44.5,22.923,-153.281
 14:50:57.811,eb:33:2e:f9:57:b5, 2085-97-80 02:181:252:1997,0.223,-0.389,0.958,-372.925,-167.603,-32.532,40.166,21.94,-154.792
 14:50:57.840,eb:33:2e:f9:57:b5, 2085-97-56 01:125:252:2281,0.133,-0.43,1.044,-372.253,-166.687,-18.005,35.942,20.764,-156.116
 14:50:57.840,eb:33:2e:f9:57:b5, 2085-97-205 00:16:253:2645,0.095,-0.416,1.225,-375,-163.879,0.977,31.844,19.435,-157.17
 14:50:57.840,eb:33:2e:f9:57:b5, 2085-97-240 00:218:253:2984,0.118,-0.323,1.382,-377.686,-161.499,20.02,27.817,17.957,-157.917
 14:50:57.841,eb:33:2e:f9:57:b5, 2085-97-245 00:198:254:3076,0.133,-0.212,1.486,-376.526,-162.354,37.109,23.906,16.381,-158.373
 14:50:57.871,eb:33:2e:f9:57:b5, 2085-97-54 01:27:00:3267,0.178,-0.08,1.54,-366.882,-168.213,52.795,20.11,14.661,-158.582
 14:50:57.871,eb:33:2e:f9:57:b5, 2085-97-136 01:157:01:3759,0.186,0.115,1.713,-341.675,-182.861,66.589,16.573,12.805,-158.555
 14:50:57.871,eb:33:2e:f9:57:b5, 2085-97-125 01:66:02:4093,0.186,0.255,1.921,-309.082,-198.975,77.454,13.354,10.756,-158.346
 14:50:57.871,eb:33:2e:f9:57:b5, 2085-97-91 01:91:02:4414,0.125,0.284,2.079,-281.006,-210.815,87.524,10.492,8.564,-157.95
 14:50:57.930,eb:33:2e:f9:57:b5, 2085-97-81 00:27:03:4770,-0.029,0.317,2.226,-265.137,-211.365,99.365,7.839,6.306,-157.357
 14:50:57.930,eb:33:2e:f9:57:b5, 2085-97-100 255:110:04:5097,-0.118,0.466,2.418,-261.841,-196.594,112.427,5.29,4.158,-156.528
 14:50:57.930,eb:33:2e:f9:57:b5, 2085-97-215 254:22:06:5042,-0.184,0.652,2.499,-270.569,-179.688,119.202,2.67,2.203,-155.49
 14:50:57.930,eb:33:2e:f9:57:b5, 2085-97-47 254:130:07:4804,-0.288,0.861,2.395,-288.33,-175.781,118.347,-0.099,0.412,-154.336
 14:50:57.961,eb:33:2e:f9:57:b5, 2085-97-19 253:129:08:4832,-0.452,1.004,2.328,-305.298,-184.021,112.366,-3.115,-1.357,-153.127
 14:50:57.961,eb:33:2e:f9:57:b5, 2085-97-141 251:141:09:5270,-0.667,1.125,2.452,-311.035,-190.308,105.591,-6.257,-3.148,-151.891
 14:50:57.961,eb:33:2e:f9:57:b5, 2085-97-214 249:12:11:5747,-0.866,1.275,2.699,-303.65,-175.598,100.342,-9.443,-4.845,-150.617
 14:50:57.961,eb:33:2e:f9:57:b5, 2085-97-160 248:22:13:5774,-0.942,1.503,2.843,-289.429,-136.597,95.154,-12.524,-6.18,-149.359
 14:50:57.990,eb:33:2e:f9:57:b5, 2085-97-167 248:80:15:5354,-0.868,1.771,2.727,-276.062,-88.562,88.196,-15.491,-7.042,-148.189
 14:50:57.990,eb:33:2e:f9:57:b5, 2085-97-231 249:40:18:4843,-0.597,2.075,2.486,-263.306,-35.461,79.224,-18.309,-7.372,-147.211
 14:50:57.990,eb:33:2e:f9:57:b5, 2085-97-202 252:163:22:3981,-0.246,2.525,2.203,-240.295,21.79,63.293,-20.929,-7.169,-146.519
 14:50:57.990,eb:33:2e:f9:57:b5, 2085-97-141 254:185:26:2561,-0.224,3.128,1.622,-199.463,43.457,35.583,-23.165,-6.625,-146.206
 14:50:58.139,eb:33:2e:f9:57:b5, 2085-97-28 253:232:26:1064,-0.588,3.429,0.847,-134.827,-1.831,1.587,-24.835,-6.339,-146.146
 14:50:58.139,eb:33:2e:f9:57:b5, 2085-97-12 249:208:22:1261,-1.144,3.147,0.434,-57.068,-88.135,-20.874,-25.768,-6.839,-146.047
 14:50:58.139,eb:33:2e:f9:57:b5, 2085-97-215 244:118:18:2765,-1.576,2.575,0.952,12.451,-134.094,-18.127,-25.983,-8.009,-145.712
 14:50:58.139,eb:33:2e:f9:57:b5, 2085-97-134 242:227:14:4129,-1.682,2.068,1.749,58.96,-97.595,5.432,-25.653,-9.13,-145.234
 14:50:58.169,eb:33:2e:f9:57:b5, 2085-97-119 241:237:07:18888,-1.055,1.708,2.132,90.21,-5.127,30.212,-24.977,-9.437,-144.833
 14:50:58.169,eb:33:2e:f9:57:b5, 2085-97-242 00:232:254:2560,0.67,1.278,1.815,219.116,135.864,35.828,-22.945,-8.344,-144.772
 14:50:58.169,eb:33:2e:f9:57:b5, 2085-97-105 03:190:250:1250,0.178,-0.815,0.228,206.787,164.307,82.458,-20.83,-6.691,-144.772
 14:50:58.169,eb:33:2e:f9:57:b5, 2085-97-196 01:01:247:1383,0.008,-0.786,0.675,226.074,120.3,80.078,-18.732,-5.015,-144.426
 14:50:58.172,eb:33:2e:f9:57:b5, 2085-97-131 254:206:251:1706,-0.339,-0.768,0.802,278.259,75.439,66.04,-16.21,-3.9,-144.025
 14:50:58.172,eb:33:2e:f9:57:b5, 2085-97-254 252:190:255:2807,-0.248,-0.252,0.976,304.932,43.884,56.641,-13.266,-3.203,-143.575
 14:50:58.172,eb:33:2e:f9:57:b5, 2085-97-76 253:15:02:2970,-0.193,0.129,1.479,283.691,65.979,43.396,-10.327,-2.565,-143.212
 14:50:58.172,eb:33:2e:f9:57:b5, 2085-97-81 254:58:03:2812,-0.167,0.347,1.48,234.802,75.134,23.682,-7.74,-1.791,-142.987
 14:50:58.174,eb:33:2e:f9:57:b5, 2085-97-00 255:27:03:2425,-0.146,0.419,1.295,178.04,47.791,-9.155,-5.696,-1.176,-143.009
 14:50:58.174,eb:33:2e:f9:57:b5, 2085-97-251 254:64:02:2150,-0.005,0.321,1.095,138.123,19.714,-30.396,-4.147,-0.868,-143.251
 14:50:58.174,eb:33:2e:f9:57:b5, 2085-97-140 00:103:00:2232,0.079,0.141,1.083,110.291,-3.296,-42.358,-2.917,-0.846,-143.641
 14:50:58.174,eb:33:2e:f9:57:b5, 2085-97-108 00:83:01:2029,0.047,-0.035,1.074,95.398,-0.488,-37.354,-1.895,-0.89,-144.053
 14:50:58.201,eb:33:2e:f9:57:b5, 2085-97-139 00:198:00:2056,0.057,0.191,0.933,53.528,-17.761,-18.372,-1.148,-1.022,-144.327
 14:50:58.201,eb:33:2e:f9:57:b5, 2085-97-200 255:29:01:1876,-0.045,0.125,0.991,32.043,-7.08,-1.16,-0.736,-1.154,-144.393
 14:50:58.201,eb:33:2e:f9:57:b5, 2085-97-26 00:77:00:2042,0.04,0.106,0.909,17.822,-9.216,0.732,-0.494,-1.225,-144.388
 14:50:58.201,eb:33:2e:f9:57:b5, 2085-97-55 00:37:00:2089,0.057,0.017,1.035,13.855,-0.671,3.845,-0.346,-1.274,-144.371
 14:50:58.261,eb:33:2e:f9:57:b5, 2085-97-224 255:174:00:1923,-0.045,0.052,1.016,7.08,10.986,8.118,-0.236,-1.208,-144.294
 14:50:58.261,eb:33:2e:f9:57:b5, 2085-97-177 255:41:00:1979,-0.011,0.061,0.941,3.296,7.568,1.099,-0.187,-1.11,-144.25
 14:50:58.261,eb:33:2e:f9:57:b5, 2085-113-81 00:71:39:-295,0.006,0.008,0.988,2.38,7.263,0.244,-0.154,-1.033,-144.25
 14:50:58.262,eb:33:2e:f9:57:b5, 2085-97-08 00:42:00:2050,-0.01,0.011,1.01,2.258,7.507,0.61,-0.143,-0.994,-144.245
 14:50:58.262,eb:33:2e:f9:57:b5, 2085-97-216 255:25:00:2004,-0.004,0.02,0.984,2.136,6.897,0.549,-0.11,-0.917,-144.24
 14:50:58.291,eb:33:2e:f9:57:b5, 2085-97-251 255:14:00:2038,-0.019,0.013,0.992,2.136,5.31,0.244,-0.088,-0.862,-144.24
 14:50:58.291,eb:33:2e:f9:57:b5, 2085-97-200 255:17:00:1981,-0.036,0.005,0.974,2.747,2.563,1.038,-0.055,-0.813,-144.229
 14:50:58.291,eb:33:2e:f9:57:b5, 2085-97-189 255:17:00:1971,-0.022,0.005,0.958,2.38,-2.075,2.014,-0.027,-0.813,-144.212
 14:50:58.291,eb:33:2e:f9:57:b5, 2085-97-226 255:36:00:1996,-0.003,0.013,0.97,1.77,-5.371,2.563,0,-0.851,-144.19
 14:50:58.350,eb:33:2e:f9:57:b5, 2085-97-253 255:42:00:2016,0.005,0.021,0.982,1.038,-6.042,2.075,0.005,-0.912,-144.163
 14:50:58.350,eb:33:2e:f9:57:b5, 2085-97-13 00:40:00:2030,0.016,0.021,0.992,0.488,-5.615,1.465,0.022,-0.967,-144.146
 14:50:58.350,eb:33:2e:f9:57:b5, 2085-97-44 00:42:00:2068,0.024,0.022,1.005,0.305,-4.272,1.038,0.027,-1.022,-144.135
 14:50:58.350,eb:33:2e:f9:57:b5, 2085-97-58 00:46:00:2075,0.021,0.02,1.01,0.488,-1.953,0.549,0.038,-1.049,-144.124
 14:50:58.380,eb:33:2e:f9:57:b5, 2085-97-43 00:45:00:2061,0.019,0.02,1.005,0.488,0.488,0,0.044,-1.049,-144.119
 14:50:58.380,eb:33:2e:f9:57:b5, 2085-97-30 00:38:00:2056,0.009,0.02,1.005,0.366,2.625,-0.488,0.06,-1.033,-144.124
 14:50:58.380,eb:33:2e:f9:57:b5, 2085-97-09 00:29:00:2035,0.001,0.015,1,0.488,3.601,-0.732,0.066,-1,-144.13
 14:50:58.380,eb:33:2e:f9:57:b5, 2085-97-244 255:25:00:2021,-0.008,0.013,0.992,0.549,3.54,-0.61,0.077,-0.956,-144.135
 14:50:58.409,eb:33:2e:f9:57:b5, 2085-97-243 255:17:00:2024,-0.008,0.011,0.983,0.488,2.38,-0.122,0.082,-0.928,-144.141
 14:50:58.409,eb:33:2e:f9:57:b5, 2085-97-246 255:10:00:2039,-0.001,0.004,0.99,1.221,0.854,0.793,0.104,-0.906,-144.135
 14:50:58.409,eb:33:2e:f9:57:b5, 2085-97-00 00:19:00:2036,-0.001,0.007,0.995,1.831,0.061,1.648,0.115,-0.906,-144.124
 14:50:58.409,eb:33:2e:f9:57:b5, 2085-97-250 255:23:00:2029,0.002,0.009,0.993,2.136,-0.366,2.319,0.148,-0.901,-144.102
 14:50:58.500,eb:33:2e:f9:57:b5, 2085-97-36 00:37:00:2067,0.026,0.016,0.996,2.319,-0.61,2.625,0.17,-0.912,-144.075
 14:50:58.500,eb:33:2e:f9:57:b5, 2085-97-63 00:41:00:2090,0.017,0.021,1.015,3.235,1.465,2.014,0.203,-0.901,-144.047
 14:50:58.500,eb:33:2e:f9:57:b5, 2085-97-36 00:35:00:2063,0.009,0.017,1.007,4.272,3.418,1.709,0.242,-0.873,-144.031
 14:50:58.500,eb:33:2e:f9:57:b5, 2085-97-14 00:34:00:2050,0.007,0.017,1.001,4.944,4.211,1.526,0.297,-0.829,-144.014
 14:50:58.502,eb:33:2e:f9:57:b5, 2085-97-14 00:35:00:2048,0.004,0.019,1,5.432,3.967,1.648,0.352,-0.791,-143.998
 14:50:58.502,eb:33:2e:f9:57:b5, 2085-97-11 00:41:00:2051,0.004,0.018,0.999,5.798,3.967,1.892,0.412,-0.747,-143.976
 14:50:58.502,eb:33:2e:f9:57:b5, 2085-97-13 00:44:00:2058,0.001,0.022,1.002,6.531,4.089,1.465,0.478,-0.709,-143.959
 14:50:58.502,eb:33:2e:f9:57:b5, 2085-97-04 00:46:00:2045,0.003,0.023,0.997,6.897,4.883,1.343,0.555,-0.654,-143.943
 14:50:58.590,eb:33:2e:f9:57:b5, 2085-97-20 00:55:00:2069,0.003,0.024,1,7.202,5.615,1.648,0.626,-0.599,-143.926
 14:50:58.590,eb:33:2e:f9:57:b5, 2085-97-13 00:55:00:2066,0.004,0.024,1.002,7.446,7.141,1.587,0.703,-0.533,-143.91
 14:50:58.590,eb:33:2e:f9:57:b5, 2085-97-28 00:53:00:2092,0.023,0.024,1.006,8.179,7.812,1.343,0.786,-0.456,-143.893
 14:50:58.590,eb:33:2e:f9:57:b5, 2085-97-47 00:63:00:2122,0.018,0.033,1.024,8.789,10.681,1.099,0.879,-0.363,-143.882
 14:50:58.590,eb:33:2e:f9:57:b5, 2085-97-30 00:57:00:2121,0.007,0.025,1.05,10.559,14.709,0.549,0.978,-0.236,-143.871
 14:50:58.590,eb:33:2e:f9:57:b5, 2085-97-233 255:54:00:2109,0.004,0.025,1.032,12.329,17.395,0.793,1.099,-0.071,-143.866
 14:50:58.590,eb:33:2e:f9:57:b5, 2085-97-215 255:69:00:2070,0.019,0.036,1.026,12.512,20.447,1.587,1.23,0.104,-143.849
 14:50:58.590,eb:33:2e:f9:57:b5, 2085-97-255 255:90:00:2087,-0.007,0.043,1.046,12.207,24.231,0.793,1.362,0.319,-143.833
 14:50:58.619,eb:33:2e:f9:57:b5, 2085-97-59 00:116:00:2110,0.005,0.04,1.035,11.475,28.076,-0.244,1.478,0.588,-143.822
 14:50:58.619,eb:33:2e:f9:57:b5, 2085-97-21 00:94:00:2147,-0.047,0.047,1.042,10.62,33.508,-1.099,1.599,0.906,-143.822
 14:50:58.619,eb:33:2e:f9:57:b5, 2085-97-28 254:52:255:2470,-0.276,0.018,1.059,13.977,29.358,0.549,1.714,1.241,-143.817
 14:50:58.619,eb:33:2e:f9:57:b5, 2085-97-98 254:164:254:3256,-0.171,-0.166,1.492,41.992,-0.183,6.958,2,1.362,-143.767
 14:50:58.678,eb:33:2e:f9:57:b5, 2085-97-181 254:123:255:2626,-0.155,-0.105,1.417,68.42,-8.606,14.038,2.582,1.313,-143.652
 14:50:58.678,eb:33:2e:f9:57:b5, 2085-97-15 255:108:255:2937,-0.083,-0.053,1.298,84.656,-26.978,16.296,3.367,1.126,-143.503
 14:50:58.678,eb:33:2e:f9:57:b5, 2085-97-222 255:116:255:3335,0.099,-0.098,1.603,106.323,-32.959,18.677,4.329,0.786,-143.35
 14:50:58.678,eb:33:2e:f9:57:b5, 2085-97-105 01:53:00:3399,0.203,-0.009,1.646,130.798,-25.146,15.869,5.543,0.478,-143.201
 14:50:58.709,eb:33:2e:f9:57:b5, 2085-97-209 01:53:00:3513,0.247,0.019,1.671,150.574,-2.502,8.728,6.965,0.33,-143.097
 14:50:58.709,eb:33:2e:f9:57:b5, 2085-97-190 01:229:255:3612,0.209,0.017,1.759,168.701,29.358,1.953,8.575,0.472,-143.026
 14:50:58.709,eb:33:2e:f9:57:b5, 2085-97-213 01:10:00:3540,0.252,-0.026,1.768,188.965,60.486,-1.77,10.377,0.934,-142.949
 14:50:58.710,eb:33:2e:f9:57:b5, 2085-97-214 01:170:255:3692,0.252,0.009,1.738,209.412,81.36,-6.897,12.387,1.653,-142.85
 14:50:58.739,eb:33:2e:f9:57:b5, 2085-97-57 02:132:255:4026,0.294,-0.055,1.879,233.948,102.661,-10.132,14.617,2.582,-142.718
 14:50:58.739,eb:33:2e:f9:57:b5, 2085-97-227 02:51:255:4408,0.45,-0.085,2.035,263.123,123.657,-14.526,17.128,3.719,-142.526
 14:50:58.739,eb:33:2e:f9:57:b5, 2085-97-95 04:96:255:4586,0.645,-0.082,2.153,297.607,147.583,-20.508,19.973,5.07,-142.251
 14:50:58.739,eb:33:2e:f9:57:b5, 2085-97-195 05:189:254:5111,0.807,-0.121,2.402,336.121,185.486,-33.875,23.198,6.713,-141.894
 14:50:58.769,eb:33:2e:f9:57:b5, 2085-97-75 06:198:254:5427,0.564,-0.142,2.553,379.333,238.22,-47.485,26.867,8.839,-141.35
 14:50:58.769,eb:33:2e:f9:57:b5, 2085-97-124 02:134:254:6500,0.065,-0.204,2.897,427.979,267.639,-62.683,31.058,11.354,-140.587
 14:50:58.769,eb:33:2e:f9:57:b5, 2085-97-236 255:134:01:7366,-0.115,0.088,3.442,477.295,279.053,-69.641,35.832,14.024,-139.592
 14:50:58.769,eb:33:2e:f9:57:b5, 2085-97-250 254:242:01:6662,0.049,0.245,3.601,514.587,251.343,-73.12,41.111,16.556,-138.483
 14:50:58.803,eb:33:2e:f9:57:b5, 2085-97-145 00:233:255:5596,0.028,0.165,2.916,530.151,218.872,-67.566,46.708,18.737,-137.302
 14:50:58.803,eb:33:2e:f9:57:b5, 2085-97-53 00:203:252:5166,0.122,-0.249,2.74,537.048,192.444,-63.904,52.421,20.528,-136.154
 14:50:58.803,eb:33:2e:f9:57:b5, 2085-97-155 02:127:254:5052,0.558,-0.172,2.455,541.748,193.298,-62.317,58.321,22.121,-134.824
 14:50:58.803,eb:33:2e:f9:57:b5, 2085-97-14 06:221:252:4771,0.939,-0.241,2.498,527.649,171.387,-60.669,64.21,23.533,-133.391
 14:50:58.860,eb:33:2e:f9:57:b5, 2085-97-61 09:64:250:3814,1.094,-0.552,2.043,490.112,122.192,-65.674,69.807,24.692,-132.182
 14:50:58.860,eb:33:2e:f9:57:b5, 2085-97-139 08:207:244:2366,0.884,-0.925,1.471,411.255,57.983,-75.989,74.586,25.642,-131.479
 14:50:58.860,eb:33:2e:f9:57:b5, 2085-97-240 06:242:240:1756,0.693,-1.64,1.253,312.622,17.273,-77.087,78.179,26.461,-131.402
 14:50:58.860,eb:33:2e:f9:57:b5, 2085-97-85 03:229:238:-4881,0.287,-2.061,-1.063,152.344,51.88,-54.138,80.678,27.142,-131.155
 14:50:58.891,eb:33:2e:f9:57:b5, 2085-97-243 02:60:240:-2797,0.439,-2.12,-2.229,-75.073,10.498,-26.672,81.03,27.598,-130.82
 14:50:58.891,eb:33:2e:f9:57:b5, 2085-97-40 03:118:244:541,0.308,-1.715,-0.391,-208.984,-31.494,5.127,79.365,27.647,-131.039
 14:50:58.891,eb:33:2e:f9:57:b5, 2085-97-38 02:56:247:1369,0.282,-1.223,0.569,-284.485,-33.081,25.452,76.679,27.411,-131.364
 14:50:58.891,eb:33:2e:f9:57:b5, 2085-97-178 02:167:247:1278,0.398,-1.062,0.69,-326.66,-42.969,39.673,73.422,26.977,-131.688
 14:50:58.919,eb:33:2e:f9:57:b5, 2085-97-169 03:147:248:761,0.509,-0.999,0.479,-357.605,-50.964,44.434,69.829,26.422,-132.034
 14:50:58.919,eb:33:2e:f9:57:b5, 2085-97-62 04:221:249:791,0.571,-0.849,0.35,-382.629,-67.749,40.161,65.891,25.796,-132.473
 14:50:58.919,eb:33:2e:f9:57:b5, 2085-113-81 00:137:29:12138,0.605,-0.666,0.46,-386.963,-96.558,27.771,61.743,25.12,-133.132
 14:50:58.919,eb:33:2e:f9:57:b5, 2085-97-183 04:25:252:1190,0.566,-0.565,0.53,-383.667,-112.671,20.142,59.628,24.758,-133.583
 14:50:58.980,eb:33:2e:f9:57:b5, 2085-97-51 04:164:252:1497,0.479,-0.441,0.655,-372.559,-145.203,4.822,55.36,23.95,-134.731
 14:50:58.980,eb:33:2e:f9:57:b5, 2085-97-79 03:100:252:1673,0.344,-0.422,0.782,-365.967,-167.847,-7.874,51.119,23.011,-136.143
 14:50:58.980,eb:33:2e:f9:57:b5, 2085-97-80 02:184:251:1948,0.226,-0.491,0.864,-370.605,-174.194,-12.573,46.851,21.956,-137.637
 14:50:58.980,eb:33:2e:f9:57:b5, 2085-97-74 01:62:251:2220,0.131,-0.572,1.021,-382.324,-166.138,-10.01,42.583,20.83,-139.016
 14:50:59.010,eb:33:2e:f9:57:b5, 2085-97-227 00:91:251:2615,0.088,-0.601,1.187,-392.517,-155.457,-2.38,38.276,19.638,-140.18
 14:50:59.010,eb:33:2e:f9:57:b5, 2085-97-142 00:16:252:2854,0.081,-0.545,1.348,-395.569,-144.897,8.179,34.03,18.419,-141.086
 14:50:59.010,eb:33:2e:f9:57:b5, 2085-97-195 00:27:253:3005,0.108,-0.424,1.441,-388.855,-141.174,19.409,29.883,17.122,-141.751
 14:50:59.011,eb:33:2e:f9:57:b5, 2085-97-00 01:198:253:3027,0.136,-0.318,1.469,-375.793,-146.24,29.968,25.933,15.738,-142.218
 14:50:59.099,eb:33:2e:f9:57:b5, 2085-97-37 01:62:254:3113,0.151,-0.247,1.486,-363.77,-154.175,40.466,22.143,14.211,-142.52
 14:50:59.099,eb:33:2e:f9:57:b5, 2085-97-45 01:123:254:3476,0.132,-0.2,1.599,-354.004,-164.551,51.025,18.528,12.552,-142.641
 14:50:59.099,eb:33:2e:f9:57:b5, 2085-97-223 00:75:254:3871,0.09,-0.196,1.798,-348.022,-174.988,63.11,15.013,10.739,-142.586
 14:50:59.099,eb:33:2e:f9:57:b5, 2085-97-175 00:215:253:4317,0.085,-0.244,1.985,-346.619,-184.387,78.125,11.591,8.822,-142.3
 14:50:59.101,eb:33:2e:f9:57:b5, 2085-97-166 00:156:253:4958,0.074,-0.289,2.251,-348.755,-188.965,96.741,8.168,6.817,-141.751
 14:50:59.101,eb:33:2e:f9:57:b5, 2085-97-140 00:69:254:5579,0.057,-0.28,2.595,-353.943,-183.777,117.249,4.741,4.834,-140.883
 14:50:59.101,eb:33:2e:f9:57:b5, 2085-97-147 00:123:00:5747,0.118,-0.1,2.776,-362.183,-172.852,133.85,1.208,2.988,-139.708
 14:50:59.101,eb:33:2e:f9:57:b5, 2085-97-70 01:225:03:6088,0.167,0.256,2.877,-374.939,-170.349,137.756,-2.417,1.291,-138.312
 14:50:59.342,eb:33:2e:f9:57:b5, 2085-97-49 01:240:07:6513,0.091,0.731,3.072,-393.066,-168.274,127.563,-6.279,-0.302,-136.857
 14:50:59.342,eb:33:2e:f9:57:b5, 2085-97-35 00:23:12:6954,-0.12,1.256,3.287,-405.396,-169.189,104.919,-10.316,-1.802,-135.461
 14:50:59.342,eb:33:2e:f9:57:b5, 2085-97-04 254:140:15:7252,-0.364,1.775,3.484,-399.963,-167.358,74.707,-14.442,-3.274,-134.231
 14:50:59.342,eb:33:2e:f9:57:b5, 2085-97-185 252:251:18:7271,-0.271,2.124,3.564,-369.385,-147.278,52.856,-18.364,-4.614,-133.182
 14:50:59.461,eb:33:2e:f9:57:b5, 2085-97-149 255:33:25:6689,0.144,2.684,3.533,-321.167,-85.205,26.245,-21.885,-5.614,-132.396
 14:50:59.461,eb:33:2e:f9:57:b5, 2085-97-173 01:146:35:4636,0.027,3.823,2.801,-282.471,-2.258,-19.47,-24.895,-5.916,-132.22
 14:50:59.461,eb:33:2e:f9:57:b5, 2085-97-148 252:06:41:1191,-1.055,4.92,1.487,-223.572,-21.79,-85.327,-27.394,-6.174,-132.72
 14:50:59.461,eb:33:2e:f9:57:b5, 2085-97-88 242:63:35:682,-2.292,4.924,0.059,-113.708,-188.049,-133.301,-28.998,-7.663,-133.22
 14:50:59.489,eb:33:2e:f9:57:b5, 2085-97-135 233:207:28:4441,-3.215,3.945,1.12,-1.404,-282.288,-116.699,-29.52,-10.514,-133.105
 14:50:59.489,eb:33:2e:f9:57:b5, 2085-97-195 228:245:21:7110,-3.226,3.204,3.085,81.116,-176.697,-59.692,-29.136,-13.052,-132.671
 14:50:59.489,eb:33:2e:f9:57:b5, 2085-97-54 241:220:11:13462,-0.702,2.328,3.235,109.436,64.087,21.301,-28.136,-13.524,-132.589
 14:50:59.489,eb:33:2e:f9:57:b5, 2085-97-120 252:34:255:2645,0.84,1.346,3.566,247.07,262.024,25.452,-25.977,-11.635,-133.187
 14:50:59.492,eb:33:2e:f9:57:b5, 2085-97-214 10:100:245:1703,0.756,-0.796,0.244,224.426,273.438,57.922,-23.428,-9.3,-133.967
 14:50:59.492,eb:33:2e:f9:57:b5, 2085-97-174 03:84:245:1343,0.033,-1.088,1.024,254.089,280.396,85.449,-21.05,-6.301,-134.253
 14:50:59.492,eb:33:2e:f9:57:b5, 2085-97-246 253:206:252:1557,-0.636,-0.785,0.681,319.702,197.144,76.965,-18.116,-3.818,-134.302
 14:50:59.492,eb:33:2e:f9:57:b5, 2085-97-224 249:210:00:2476,-0.631,-0.135,0.875,334.229,130.005,69.031,-14.793,-2.076,-134.05
 14:50:59.495,eb:33:2e:f9:57:b5, 2085-97-221 251:130:02:3028,-0.435,0.244,1.384,286.743,106.567,44.922,-11.684,-0.851,-133.781
 14:50:59.495,eb:33:2e:f9:57:b5, 2085-97-110 255:51:00:1967,-0.059,0.279,1.231,226.807,82.397,8.789,-9.157,0.165,-133.698
 14:50:59.495,eb:33:2e:f9:57:b5, 2085-97-168 255:07:00:2032,-0.023,0.016,0.975,1.099,1.587,-4.822,-1.247,0.945,-136.066
 14:50:59.496,eb:33:2e:f9:57:b5, 2085-97-234 255:248:255:2076,-0.013,-0.002,1.005,-0.549,2.319,-2.563,-1.241,0.961,-136.104
 14:50:59.580,eb:33:2e:f9:57:b5, 2085-97-187 255:250:255:2034,-0.052,-0.002,1.01,-1.953,4.7,-0.305,-1.247,1,-136.121
 14:50:59.580,eb:33:2e:f9:57:b5, 2085-97-170 255:200:255:2057,-0.02,-0.003,0.977,-2.258,2.441,0,-1.269,1.044,-136.121
 14:50:59.580,eb:33:2e:f9:57:b5, 2085-97-200 255:212:255:2060,-0.042,-0.034,1.021,9.644,13.977,2.075,-0.818,1.39,-135.868
 14:50:59.580,eb:33:2e:f9:57:b5, 2085-97-165 255:233:255:2046,-0.015,-0.01,0.996,10.254,12.512,4.028,-0.714,1.522,-135.835
 14:50:59.608,eb:33:2e:f9:57:b5, 2085-97-221 255:231:255:2074,-0.006,-0.007,1.021,10.803,11.78,5.798,-0.593,1.642,-135.786
 14:50:59.608,eb:33:2e:f9:57:b5, 2085-97-229 255:20:00:2049,0.023,0.001,1.017,10.132,11.658,9.827,-0.489,1.769,-135.703
 14:50:59.608,eb:33:2e:f9:57:b5, 2085-97-201 255:27:00:2046,-0.023,0.021,1.052,9.094,14.526,11.353,-0.379,1.89,-135.593
 14:50:59.608,eb:33:2e:f9:57:b5, 2085-97-160 255:31:00:2019,-0.054,0.022,1.012,9.705,13.245,9.644,-0.28,2.021,-135.483
 14:50:59.669,eb:33:2e:f9:57:b5, 2085-97-195 255:47:00:2081,-0.044,0.01,0.993,10.376,10.925,6.958,-0.165,2.142,-135.406
 14:50:59.669,eb:33:2e:f9:57:b5, 2085-97-144 255:14:00:2062,-0.083,0.02,1.004,10.925,13.794,4.944,-0.055,2.274,-135.346
 14:50:59.669,eb:33:2e:f9:57:b5, 2085-97-87 255:01:00:2007,-0.077,-0.001,0.986,11.292,14.709,5.005,0.066,2.422,-135.297
 14:50:59.669,eb:33:2e:f9:57:b5, 2085-97-94 255:10:00:2023,-0.084,0.003,0.98,10.62,13.672,6.592,0.176,2.565,-135.242
 14:50:59.671,eb:33:2e:f9:57:b5, 2085-97-65 255:05:00:1989,-0.098,0.006,0.977,9.46,13.794,7.751,0.291,2.703,-135.165
 14:50:59.671,eb:33:2e:f9:57:b5, 2085-97-71 255:254:255:2012,-0.096,-0.006,0.987,9.46,10.742,9.399,0.39,2.823,-135.082
 14:50:59.671,eb:33:2e:f9:57:b5, 2085-97-101 255:07:00:2060,-0.075,0,0.981,9.46,7.202,12.451,0.5,2.922,-134.967
 14:50:59.671,eb:33:2e:f9:57:b5, 2085-97-127 255:45:00:2045,-0.04,0.016,0.985,8.545,7.568,14.648,0.599,2.994,-134.83
 14:50:59.731,eb:33:2e:f9:57:b5, 2085-97-163 255:27:00:2186,-0.036,0.021,1.029,9.094,8.362,14.587,0.703,3.071,-134.681
 14:50:59.731,eb:33:2e:f9:57:b5, 2085-97-188 255:47:00:2308,-0.052,0.004,1.131,16.357,6.775,14.648,0.84,3.142,-134.533
 14:50:59.731,eb:33:2e:f9:57:b5, 2085-97-179 255:77:00:2509,-0.113,0.012,1.146,26.794,1.465,14.038,1.071,3.197,-134.39
 14:50:59.731,eb:33:2e:f9:57:b5, 2085-97-141 254:01:255:3161,-0.179,-0.062,1.468,46.326,-2.258,11.047,1.445,3.164,-134.275
 14:50:59.789,eb:33:2e:f9:57:b5, 2085-97-195 254:64:255:2989,-0.142,-0.113,1.486,69.458,-1.831,13.306,2.054,3.153,-134.143
 14:50:59.789,eb:33:2e:f9:57:b5, 2085-97-26 255:115:255:2991,-0.105,-0.098,1.461,87.952,-4.517,15.747,2.867,3.109,-134
 14:50:59.789,eb:33:2e:f9:57:b5, 2085-97-81 255:54:255:3274,-0.08,-0.073,1.506,106.628,-8.789,16.174,3.862,3.038,-133.841
 14:50:59.789,eb:33:2e:f9:57:b5, 2085-97-110 255:67:255:3221,-0.077,-0.106,1.599,128.906,-3.967,18.921,5.059,2.961,-133.671
 14:50:59.791,eb:33:2e:f9:57:b5, 2085-97-172 255:93:255:3241,-0.03,-0.094,1.541,147.705,-0.427,22.095,6.476,2.922,-133.467
 14:50:59.791,eb:33:2e:f9:57:b5, 2085-97-34 00:160:255:3295,0.061,-0.076,1.581,167.114,4.333,24.048,8.064,2.922,-133.226
 14:50:59.791,eb:33:2e:f9:57:b5, 2085-97-224 00:156:255:3591,0.174,-0.043,1.678,186.462,13.672,22.461,9.866,2.972,-132.979
 14:50:59.791,eb:33:2e:f9:57:b5, 2085-97-63 02:25:00:3818,0.343,-0.035,1.85,206.543,37.842,18.311,11.854,3.181,-132.731
 14:50:59.820,eb:33:2e:f9:57:b5, 2085-97-60 03:84:00:4060,0.455,0.028,1.911,228.333,68.237,9.46,14.057,3.68,-132.473
 14:50:59.820,eb:33:2e:f9:57:b5, 2085-97-179 03:244:255:4325,0.502,0.025,2.032,253.967,101.624,-3.235,16.496,4.51,-132.215
 14:50:59.820,eb:33:2e:f9:57:b5, 2085-97-74 04:53:255:4557,0.589,-0.071,2.156,286.438,135.376,-15.808,19.237,5.685,-131.94
 14:50:59.820,eb:33:2e:f9:57:b5, 2085-97-225 05:109:254:4999,0.816,-0.145,2.354,327.393,171.997,-30.884,22.357,7.213,-131.616
 14:50:59.820,eb:33:2e:f9:57:b5, 2085-113-58 00:96:235:-7950,0.847,-0.229,2.438,378.784,231.14,-47.363,25.999,9.245,-131.138
 14:50:59.850,eb:33:2e:f9:57:b5, 2085-97-27 06:180:253:5358,0.53,-0.257,2.449,403.015,256.165,-54.993,28.021,10.459,-130.803
 14:50:59.850,eb:33:2e:f9:57:b5, 2085-97-128 01:66:253:7039,-0.21,-0.311,3.002,454.712,296.57,-64.27,32.52,13.184,-129.897
 14:50:59.850,eb:33:2e:f9:57:b5, 2085-97-79 252:155:00:8622,-0.353,-0.092,3.816,509.521,302.124,-66.406,37.694,16.035,-128.65
 14:50:59.850,eb:33:2e:f9:57:b5, 2085-97-171 255:36:03:7236,0.233,0.282,4.105,554.321,283.63,-67.261,43.473,18.704,-127.172
 14:50:59.909,eb:33:2e:f9:57:b5, 2085-97-87 01:44:02:5503,0.001,0.556,2.824,584.473,211.426,-75.012,49.702,20.934,-125.76
 14:50:59.909,eb:33:2e:f9:57:b5, 2085-97-143 254:227:252:5728,-0.02,-0.169,2.784,579.895,171.326,-72.205,55.915,22.643,-124.711
 14:50:59.909,eb:33:2e:f9:57:b5, 2085-97-108 02:51:254:5748,0.624,-0.171,2.812,569.031,181.519,-65.979,62.188,24.093,-123.437
 14:50:59.909,eb:33:2e:f9:57:b5, 2085-97-227 06:161:251:4641,0.988,-0.396,2.621,521.301,186.829,-66.956,68.28,25.477,-121.877
 14:50:59.941,eb:33:2e:f9:57:b5, 2085-97-07 10:10:252:3683,1.362,-0.398,1.96,451.05,148.987,-71.533,73.79,26.669,-120.333
 14:50:59.941,eb:33:2e:f9:57:b5, 2085-97-05 09:03:247:3080,0.875,-0.852,1.473,374.512,102.478,-99.121,78.371,27.79,-119.229
 14:50:59.941,eb:33:2e:f9:57:b5, 2085-97-147 05:168:247:-051,0.521,-1.102,0.972,314.575,78.369,-103.027,82.222,28.96,-118.394
 14:50:59.941,eb:33:2e:f9:57:b5, 2085-97-112 03:90:242:-1930,0.328,-1.284,-0.766,136.536,35.034,-91.064,84.705,29.987,-117.911
 14:51:00.001,eb:33:2e:f9:57:b5, 2085-97-211 01:166:239:-1097,0.204,-1.991,-0.797,-53.467,7.08,-49.744,85.045,30.707,-117.768
 14:51:00.001,eb:33:2e:f9:57:b5, 2085-97-131 02:61:243:309,0.397,-1.884,-0.218,-188.721,9.155,-5.615,83.732,30.948,-117.74
 14:51:00.001,eb:33:2e:f9:57:b5, 2085-97-161 03:87:247:1047,0.452,-1.312,0.403,-281.067,30.09,23.132,81.436,30.861,-117.477
 14:51:00.001,eb:33:2e:f9:57:b5, 2085-97-198 03:48:249:761,0.541,-0.934,0.434,-334.106,26.489,36.438,78.508,30.602,-117.054
 14:51:00.029,eb:33:2e:f9:57:b5, 2085-97-228 04:19:250:744,0.637,-0.802,0.388,-361.45,-4.517,39.673,75.108,30.245,-116.845
 14:51:00.029,eb:33:2e:f9:57:b5, 2085-97-71 05:225:250:585,0.68,-0.688,0.31,-379.761,-34.668,34.851,71.307,29.817,-116.966
 14:51:00.029,eb:33:2e:f9:57:b5, 2085-97-129 05:123:251:763,0.725,-0.6,0.31,-387.146,-68.237,24.353,67.242,29.35,-117.411
 14:51:00.029,eb:33:2e:f9:57:b5, 2085-97-188 05:101:252:996,0.708,-0.507,0.452,-383.606,-103.638,11.536,62.957,28.812,-118.251
 14:51:00.060,eb:33:2e:f9:57:b5, 2085-97-87 05:153:252:1169,0.605,-0.421,0.534,-376.221,-141.113,-1.221,58.585,28.163,-119.465
 14:51:00.060,eb:33:2e:f9:57:b5, 2085-97-63 04:20:252:1492,0.445,-0.461,0.639,-375.427,-170.776,-9.216,54.102,27.328,-121.003
 14:51:00.060,eb:33:2e:f9:57:b5, 2085-97-09 03:242:251:1877,0.307,-0.5,0.816,-385.193,-178.162,-7.141,49.57,26.307,-122.624
 14:51:00.060,eb:33:2e:f9:57:b5, 2085-97-05 02:226:251:2215,0.226,-0.52,0.989,-397.949,-170.776,2.136,45,25.131,-124.074
 14:51:00.091,eb:33:2e:f9:57:b5, 2085-97-170 01:91:252:2426,0.221,-0.491,1.147,-406.982,-156.921,13.855,40.485,23.873,-125.228
 14:51:00.091,eb:33:2e:f9:57:b5, 2085-97-169 01:99:253:2652,0.213,-0.396,1.251,-411.682,-143.494,27.71,36.041,22.56,-126.057
 14:51:00.091,eb:33:2e:f9:57:b5, 2085-97-225 01:132:254:2857,0.242,-0.252,1.365,-409.058,-140.503,38.574,31.729,21.204,-126.601
 14:51:00.091,eb:33:2e:f9:57:b5, 2085-97-12 02:42:255:2844,0.264,-0.133,1.396,-404.724,-148.438,48.035,27.515,19.72,-126.958
 14:51:00.210,eb:33:2e:f9:57:b5, 2085-97-247 01:91:255:2880,0.247,-0.086,1.386,-403.259,-159.912,57.007,23.417,18.094,-127.156
 14:51:00.210,eb:33:2e:f9:57:b5, 2085-97-199 01:149:255:3232,0.214,-0.064,1.494,-399.536,-173.584,67.566,19.363,16.293,-127.189
 14:51:00.210,eb:33:2e:f9:57:b5, 2085-97-179 01:178:255:3776,0.211,-0.043,1.708,-389.099,-190.796,77.209,15.463,14.326,-127.029
 14:51:00.210,eb:33:2e:f9:57:b5, 2085-97-173 01:148:255:4213,0.196,-0.044,1.963,-380.249,-202.393,84.595,11.678,12.2,-126.7
 14:51:00.389,eb:33:2e:f9:57:b5, 2085-97-121 01:109:255:4555,0.178,-0.065,2.136,-381.958,-206.421,89.661,7.976,10.031,-126.178
 14:51:00.389,eb:33:2e:f9:57:b5, 2085-97-99 01:218:255:5029,0.178,-0.065,2.327,-394.775,-203.735,92.529,4.18,7.872,-125.48
 14:51:00.389,eb:33:2e:f9:57:b5, 2085-97-164 01:177:01:5589,0.24,0.07,2.58,-416.382,-193.237,90.881,0.214,5.856,-124.629
 14:51:00.389,eb:33:2e:f9:57:b5, 2085-97-35 02:246:04:6193,0.281,0.402,2.883,-433.35,-178.833,79.346,-3.994,4.016,-123.712
 14:51:00.540,eb:33:2e:f9:57:b5, 2085-97-52 02:183:08:6580,0.27,0.855,3.139,-437.073,-168.762,55.847,-8.311,2.373,-122.855
 14:51:00.540,eb:33:2e:f9:57:b5, 2085-97-145 01:34:12:6708,0.114,1.308,3.255,-423.828,-173.767,22.583,-12.629,0.747,-122.162
 14:51:00.540,eb:33:2e:f9:57:b5, 2085-97-251 255:100:14:6933,-0.183,1.681,3.315,-398.254,-195.801,-11.841,-16.738,-1.033,-121.657
 14:51:00.540,eb:33:2e:f9:57:b5, 2085-97-174 252:73:15:7334,-0.373,1.871,3.455,-362,-215.515,-37.415,-20.566,-3.098,-121.245
 14:51:00.630,eb:33:2e:f9:57:b5, 2085-97-117 252:80:20:6629,-0.487,2.028,3.5,-308.472,-187.683,-51.331,-23.912,-5.197,-120.877
 14:51:00.630,eb:33:2e:f9:57:b5, 2085-97-247 251:249:28:6346,-0.574,3.15,3.08,-267.578,-147.888,-73.914,-26.796,-6.96,-120.723
 14:51:00.630,eb:33:2e:f9:57:b5, 2085-97-24 250:223:34:4516,-1.029,4.036,2.776,-215.881,-103.76,-107.666,-29.174,-8.459,-120.976
 14:51:00.630,eb:33:2e:f9:57:b5, 2085-97-63 244:187:35:2290,-1.96,4.505,1.571,-131.775,-134.094,-137.024,-30.817,-10.069,-121.498
 14:51:00.809,eb:33:2e:f9:57:b5, 2085-97-119 236:42:31:3233,-2.888,4.219,1.149,-26.794,-215.393,-138.916,-31.503,-12.349,-121.778
 14:51:00.809,eb:33:2e:f9:57:b5, 2085-97-114 230:29:25:5517,-3.278,3.544,2.137,65.247,-206.238,-97.229,-31.278,-14.87,-121.63
 14:51:00.809,eb:33:2e:f9:57:b5, 2085-97-204 232:29:16:6713,-3.3,2.735,2.947,120.605,-57.739,-25.33,-30.328,-16.32,-121.448
 14:51:00.809,eb:33:2e:f9:57:b5, 2085-97-158 240:44:04:-2005,0.686,-1.434,9.124,259.155,478.821,165.405,-28.262,-14.881,-121.465
 14:51:00.812,eb:33:2e:f9:57:b5, 2085-97-100 11:98:238:-185,0.631,-1.058,-0.797,240.295,338.928,212.708,-25.626,-10.712,-121.86
 14:51:00.812,eb:33:2e:f9:57:b5, 2085-97-136 02:205:241:-061,-0.246,-1.439,0.106,330.872,264.404,229.065,-22.978,-6.795,-120.921
 14:51:00.812,eb:33:2e:f9:57:b5, 2085-97-18 250:66:254:1607,-1.221,-0.938,0.302,430.115,130.31,192.078,-19.182,-4.329,-119.652
 14:51:00.812,eb:33:2e:f9:57:b5, 2085-97-194 247:170:04:3029,-0.705,0.256,1.171,426.697,79.529,137.146,-14.881,-2.889,-118.334
 14:51:00.815,eb:33:2e:f9:57:b5, 2085-97-49 251:64:07:3725,0.247,0.923,1.861,357.117,102.844,69.946,-11.008,-1.763,-117.559
 14:51:00.816,eb:33:2e:f9:57:b5, 2085-97-128 01:54:02:2249,-0.058,0.277,1.116,79.468,9.644,-10.254,-0.417,-0.412,-119.833
 14:51:00.816,eb:33:2e:f9:57:b5, 2085-97-43 255:86:02:1440,-0.219,0.374,0.786,33.813,18.616,21.851,0.121,-0.209,-119.718
 14:51:00.816,eb:33:2e:f9:57:b5, 2085-97-42 00:136:00:2399,-0.036,0.053,0.871,16.296,-9.644,11.536,0.346,-0.242,-119.575
 14:51:00.871,eb:33:2e:f9:57:b5, 2085-97-197 255:246:00:1973,-0.042,0.05,0.912,9.888,18.982,9.888,0.467,-0.082,-119.476
 14:51:00.871,eb:33:2e:f9:57:b5, 2085-97-189 255:59:00:2020,-0.024,0.024,0.982,3.113,4.211,1.709,1.461,0.5,-118.987
 14:51:00.871,eb:33:2e:f9:57:b5, 2085-97-232 255:75:00:2068,-0.005,0.035,0.992,2.869,3.906,1.831,1.494,0.538,-118.971
 14:51:00.871,eb:33:2e:f9:57:b5, 2085-97-251 255:82:00:2091,-0.005,0.041,1.011,3.357,6.348,0.732,1.538,0.593,-118.954
 14:51:00.989,eb:33:2e:f9:57:b5, 2085-97-233 255:74:00:2081,-0.007,0.042,1.017,3.906,10.01,-0.61,1.577,0.681,-118.954
 14:51:00.989,eb:33:2e:f9:57:b5, 2085-97-224 255:85:00:2060,-0.014,0.042,1.013,4.517,12.634,-1.282,1.626,0.797,-118.96
 14:51:00.989,eb:33:2e:f9:57:b5, 2085-97-193 255:73:00:2069,-0.029,0.042,1.011,4.761,15.137,-1.953,1.675,0.939,-118.971
 14:51:00.989,eb:33:2e:f9:57:b5, 2085-97-156 255:63:00:2033,-0.041,0.035,1.008,5.615,16.357,-2.686,1.741,1.099,-118.993
 14:51:00.991,eb:33:2e:f9:57:b5, 2085-97-164 255:66:00:2061,-0.15,0.036,1.005,5.554,16.541,-2.441,1.796,1.263,-119.015
 14:51:00.991,eb:33:2e:f9:57:b5, 2085-97-165 254:95:255:3292,-0.103,-0.071,1.55,146.24,52.734,26.245,8.888,6.735,-118.147
 14:51:00.991,eb:33:2e:f9:57:b5, 2085-97-228 255:25:00:3436,0.044,-0.039,1.646,165.1,52.124,31.372,10.497,7.202,-117.768
 14:51:00.991,eb:33:2e:f9:57:b5, 2085-97-140 00:03:00:3716,0.114,0.013,1.758,189.941,58.472,25.269,12.338,7.668,-117.378
 14:51:00.991,eb:33:2e:f9:57:b5, 2085-97-22 01:10:00:3778,0.169,0.015,1.854,211.853,76.477,20.325,14.414,8.278,-116.999
 14:51:00.991,eb:33:2e:f9:57:b5, 2085-97-225 01:203:255:3992,0.226,0.013,1.898,236.633,91.797,13.489,16.732,9.058,-116.598
 14:51:00.991,eb:33:2e:f9:57:b5, 2085-97-70 02:78:255:4473,0.384,-0.053,2.042,265.686,110.291,5.432,19.319,9.992,-116.191
 14:51:00.991,eb:33:2e:f9:57:b5, 2085-97-59 04:24:255:4758,0.637,-0.089,2.277,301.514,141.663,-4.028,22.264,11.168,-115.724
 14:51:00.993,eb:33:2e:f9:57:b5, 2085-97-169 05:60:255:4881,0.787,-0.064,2.323,337.585,185.669,-18.066,25.593,12.728,-115.148
 14:51:00.993,eb:33:2e:f9:57:b5, 2085-97-53 06:30:255:5147,0.583,-0.109,2.462,381.042,236.572,-38.757,29.388,14.749,-114.395
 14:51:00.993,eb:33:2e:f9:57:b5, 2085-97-146 02:253:255:5876,0.023,-0.085,2.652,427.307,281.006,-55.725,33.728,17.249,-113.39
 14:51:00.993,eb:33:2e:f9:57:b5, 2085-97-178 253:29:02:7567,-0.277,0.191,3.192,476.074,279.663,-75.378,38.661,19.913,-112.192
 14:51:00.995,eb:33:2e:f9:57:b5, 2085-97-72 01:69:03:6879,0.419,0.348,3.838,523.438,261.292,-77.637,44.138,22.456,-110.891
 14:51:00.995,eb:33:2e:f9:57:b5, 2085-97-229 02:233:03:5101,0.241,0.601,2.673,583.923,177.185,-84.534,50.186,24.538,-109.688
 14:51:00.995,eb:33:2e:f9:57:b5, 2085-97-188 255:96:255:4535,-0.128,-0.085,2.405,620.972,94.604,-91.553,56.475,26.043,-109.182
 14:51:00.995,eb:33:2e:f9:57:b5, 2085-97-154 255:82:255:5512,0.089,-0.047,2.424,610.474,54.932,-101.99,62.715,27.197,-109.067
 14:51:01.021,eb:33:2e:f9:57:b5, 2085-97-189 02:239:251:5394,0.494,-0.178,2.818,555.847,67.566,-120.544,68.593,28.455,-108.979
 14:51:01.021,eb:33:2e:f9:57:b5, 2085-97-97 05:239:250:4179,0.891,-0.504,2.346,462.585,90.698,-124.573,73.861,29.872,-108.528
 14:51:01.021,eb:33:2e:f9:57:b5, 2085-97-90 05:192:246:3836,0.368,-0.831,1.751,357.117,72.815,-136.658,78.201,31.328,-107.968
 14:51:01.021,eb:33:2e:f9:57:b5, 2085-113-58 00:149:242:-9600,0.283,-1.347,1.512,283.936,70.679,-125.305,81.645,32.75,-107.386
 14:51:01.081,eb:33:2e:f9:57:b5, 2085-97-176 02:37:243:-2911,0.31,-1.464,0.175,215.21,58.899,-107.605,83.029,33.371,-107.106
 14:51:01.081,eb:33:2e:f9:57:b5, 2085-97-68 02:226:240:-2558,0.315,-1.75,-1.878,-31.433,21.545,-66.223,84.133,34.266,-106.661
 14:51:01.081,eb:33:2e:f9:57:b5, 2085-97-45 02:33:243:004,0.22,-1.833,-0.576,-182.8,-6.47,-17.212,82.892,34.662,-106.688
 14:51:01.081,eb:33:2e:f9:57:b5, 2085-97-128 01:189:246:1374,0.228,-1.359,0.429,-261.841,-21.912,23.438,80.486,34.574,-106.853
 14:51:01.082,eb:33:2e:f9:57:b5, 2085-97-148 02:98:248:1722,0.429,-1.035,0.815,-286.316,-47.668,52.612,77.492,34.102,-107.199
 14:51:01.110,eb:33:2e:f9:57:b5, 2085-113-81 00:188:39:17240,0.521,-0.882,0.725,-290.222,-61.707,70.312,74.344,33.349,-107.666
 14:51:01.110,eb:33:2e:f9:57:b5, 2085-97-117 04:246:249:763,0.56,-0.822,0.548,-292.908,-67.871,74.402,72.729,32.899,-107.924
 14:51:01.110,eb:33:2e:f9:57:b5, 2085-97-148 04:79:251:504,0.582,-0.675,0.261,-298.279,-92.224,72.998,69.445,31.932,-108.539
 14:51:01.110,eb:33:2e:f9:57:b5, 2085-97-145 04:72:252:653,0.553,-0.513,0.27,-303.711,-121.948,64.514,65.956,30.877,-109.418
 14:51:01.141,eb:33:2e:f9:57:b5, 2085-97-62 04:146:252:954,0.491,-0.441,0.385,-309.631,-150.818,52.734,62.309,29.751,-110.566
 14:51:01.141,eb:33:2e:f9:57:b5, 2085-97-130 03:133:252:1268,0.372,-0.427,0.545,-316.345,-173.401,41.26,58.491,28.526,-111.945
 14:51:01.141,eb:33:2e:f9:57:b5, 2085-97-116 02:04:252:1537,0.252,-0.462,0.692,-326.904,-186.89,33.508,54.58,27.219,-113.434
 14:51:01.141,eb:33:2e:f9:57:b5, 2085-97-162 01:121:251:1821,0.162,-0.539,0.823,-340.942,-188.416,31.799,50.565,25.807,-114.895
 14:51:02.010,eb:33:2e:f9:57:b5, 2085-97-05 01:98:251:2061,0.091,-0.578,0.955,-354.858,-182.8,34.851,46.527,24.329,-116.191
 14:51:02.010,eb:33:2e:f9:57:b5, 2085-97-184 00:188:251:2277,0.079,-0.56,1.04,-366.15,-177.307,40.527,42.462,22.775,-117.279
 14:51:02.010,eb:33:2e:f9:57:b5, 2085-97-176 00:166:252:2406,0.114,-0.487,1.138,-371.948,-171.387,46.387,38.441,21.171,-118.136
 14:51:02.010,eb:33:2e:f9:57:b5, 2085-97-192 00:210:253:2526,0.115,-0.343,1.214,-368.591,-172.791,48.767,34.475,19.49,-118.817
 14:51:02.010,eb:33:2e:f9:57:b5, 2085-97-219 00:246:254:2768,0.084,-0.204,1.313,-354.736,-184.021,47.058,30.674,17.726,-119.41
 14:51:02.010,eb:33:2e:f9:57:b5, 2085-97-106 00:73:255:2817,0.023,-0.101,1.356,-341.736,-195.251,43.579,27.026,15.82,-119.965
 14:51:02.010,eb:33:2e:f9:57:b5, 2085-97-244 255:63:255:3175,-0.04,-0.087,1.455,-333.313,-202.82,40.039,23.533,13.837,-120.46
 14:51:02.010,eb:33:2e:f9:57:b5, 2085-97-100 255:33:255:3615,-0.118,-0.102,1.662,-329.834,-202.637,38.147,20.105,11.788,-120.866
 14:51:02.012,eb:33:2e:f9:57:b5, 2085-97-252 254:14:255:4000,-0.15,-0.103,1.865,-329.529,-196.594,36.804,16.76,9.772,-121.146
 14:51:02.012,eb:33:2e:f9:57:b5, 2085-97-192 254:220:254:4354,-0.172,-0.14,2.04,-334.351,-186.218,38.391,13.398,7.811,-121.284
 14:51:02.012,eb:33:2e:f9:57:b5, 2085-97-140 254:24:255:4757,-0.185,-0.135,2.229,-345.093,-171.265,38.269,10.003,5.993,-121.267
 14:51:02.012,eb:33:2e:f9:57:b5, 2085-97-129 254:00:00:4967,-0.184,-0.069,2.385,-361.023,-158.813,35.034,6.449,4.301,-121.141
 14:51:02.014,eb:33:2e:f9:57:b5, 2085-97-140 254:186:01:5138,-0.195,0.093,2.464,-379.761,-156.006,26.489,2.752,2.719,-120.959
 14:51:02.015,eb:33:2e:f9:57:b5, 2085-97-48 254:86:04:5377,-0.285,0.371,2.556,-395.325,-166.138,11.414,-1.154,1.099,-120.789
 14:51:02.015,eb:33:2e:f9:57:b5, 2085-97-251 252:76:07:5790,-0.5,0.723,2.717,-401.367,-188.354,-7.812,-5.147,-0.67,-120.685
 14:51:02.015,eb:33:2e:f9:57:b5, 2085-97-204 250:253:09:6352,-1.946,1.094,2.948,-396.851,-215.759,-26.978,-9.168,-2.725,-120.613
 14:51:02.017,eb:33:2e:f9:57:b5, 2085-97-27 243:143:21:2070,-1.332,1.524,9.492,-269.836,-189.209,-13.672,-12.618,-5.197,-120.416
 14:51:02.017,eb:33:2e:f9:57:b5, 2085-97-191 245:152:15:1763,-1.504,1.6,2.825,-300.171,-154.785,-22.034,-15.634,-7.048,-120.311
 14:51:02.017,eb:33:2e:f9:57:b5, 2085-97-66 245:209:18:4649,-0.924,1.911,1.846,-343.75,-103.088,-0.732,-18.968,-8.185,-120.086
 14:51:02.018,eb:33:2e:f9:57:b5, 2085-97-44 251:32:26:7310,-0.483,2.548,2.929,-337.463,-39.734,-2.869,-22.495,-8.811,-119.872
 14:51:02.018,eb:33:2e:f9:57:b5, 2085-97-228 251:242:37:4571,0.549,4.171,3.233,-266.846,16.479,-27.893,-25.488,-8.899,-119.998
 14:51:02.018,eb:33:2e:f9:57:b5, 2085-97-33 05:201:255:4809,0.653,-0.02,2.345,320.251,158.997,-18.616,25.214,10.355,-115.692
 14:51:02.018,eb:33:2e:f9:57:b5, 2085-97-222 04:04:255:5161,0.534,-0.082,2.379,362.976,205.75,-36.194,28.768,12.14,-115.087
 14:51:02.019,eb:33:2e:f9:57:b5, 2085-97-241 02:117:00:6266,0.083,-0.084,2.724,409.058,248.108,-50.903,32.838,14.343,-114.274
 14:51:02.069,eb:33:2e:f9:57:b5, 2085-113-58 00:159:232:-7845,-0.268,0.142,3.358,459.167,262.268,-61.89,37.491,16.798,-113.214
 14:51:02.069,eb:33:2e:f9:57:b5, 2085-97-72 252:30:02:8259,-0.183,0.36,3.725,483.643,253.357,-68.848,40.034,18.012,-112.643
 14:51:02.069,eb:33:2e:f9:57:b5, 2085-97-117 02:59:04:6250,0.393,0.434,3.748,534.18,231.873,-59.204,45.555,20.22,-111.379
 14:51:02.069,eb:33:2e:f9:57:b5, 2085-97-193 01:104:01:5490,-0.171,0.552,2.755,571.899,166.565,-74.158,51.531,22.033,-110.248
 14:51:02.160,eb:33:2e:f9:57:b5, 2085-97-119 253:112:252:6013,-0.023,-0.271,2.753,577.454,133.667,-82.458,57.579,23.522,-109.495
 14:51:02.160,eb:33:2e:f9:57:b5, 2085-97-220 01:39:253:5809,0.525,-0.421,3.022,554.016,161.011,-75.928,63.677,24.895,-108.534
 14:51:02.160,eb:33:2e:f9:57:b5, 2085-97-57 06:34:252:4900,0.987,-0.374,2.705,500.793,163.635,-78.674,69.51,26.268,-107.199
 14:51:02.160,eb:33:2e:f9:57:b5, 2085-97-83 09:122:250:2995,1.158,-0.639,1.912,426.636,130.798,-83.984,74.729,27.493,-105.87
 14:51:02.160,eb:33:2e:f9:57:b5, 2085-97-204 06:162:248:2881,0.789,-0.736,1.42,350.952,67.2,-110.291,78.893,28.63,-105.112
 14:51:02.160,eb:33:2e:f9:57:b5, 2085-97-133 05:47:246:-2213,0.549,-0.988,0.272,261.292,36.499,-120.117,82.189,29.883,-104.782
 14:51:02.160,eb:33:2e:f9:57:b5, 2085-97-45 03:52:242:-3132,0.45,-1.492,-1.637,46.448,8.85,-115.417,83.683,31.097,-104.683
 14:51:02.160,eb:33:2e:f9:57:b5, 2085-97-14 03:17:242:-330,0.194,-1.827,-0.847,-130.981,-32.41,-85.144,82.93,32.08,-105.029
 14:51:02.191,eb:33:2e:f9:57:b5, 2085-97-240 00:201:244:1133,0.145,-1.576,0.252,-236.267,-41.321,-46.57,80.684,32.651,-105.562
 14:51:02.191,eb:33:2e:f9:57:b5, 2085-97-185 01:121:246:1838,0.285,-1.272,0.784,-281.555,-58.838,-13.245,77.673,32.827,-106.227
 14:51:02.191,eb:33:2e:f9:57:b5, 2085-97-196 02:150:247:1407,0.424,-1.117,0.844,-290.955,-66.833,12.207,74.377,32.651,-106.957
 14:51:02.191,eb:33:2e:f9:57:b5, 2085-97-202 03:252:248:838,0.504,-0.976,0.537,-289.001,-82.703,27.283,71.065,32.228,-107.732
 14:51:02.219,eb:33:2e:f9:57:b5, 2085-97-19 04:105:250:493,0.539,-0.784,0.305,-286.316,-108.887,31.738,67.676,31.597,-108.677
 14:51:02.219,eb:33:2e:f9:57:b5, 2085-97-83 04:48:251:569,0.517,-0.64,0.254,-288.269,-141.235,29.968,64.182,30.789,-109.885
 14:51:02.219,eb:33:2e:f9:57:b5, 2085-97-212 03:93:251:821,0.422,-0.583,0.326,-294.922,-169.739,24.902,60.507,29.811,-111.357
 14:51:02.219,eb:33:2e:f9:57:b5, 2085-97-226 02:34:251:1265,0.304,-0.584,0.494,-303.101,-191.04,20.996,56.706,28.669,-113.011
 14:51:02.280,eb:33:2e:f9:57:b5, 2085-97-07 02:180:250:1769,0.188,-0.638,0.749,-312.866,-198.364,21.423,52.817,27.361,-114.697
 14:51:02.280,eb:33:2e:f9:57:b5, 2085-97-06 01:149:250:2015,0.091,-0.677,0.935,-325.195,-191.65,27.161,48.939,25.939,-116.224
 14:51:02.280,eb:33:2e:f9:57:b5, 2085-97-139 00:223:250:2093,0.082,-0.668,1.015,-339.783,-180.237,36.377,45.049,24.434,-117.488
 14:51:02.280,eb:33:2e:f9:57:b5, 2085-97-173 00:55:251:2189,0.057,-0.626,1.05,-356.323,-172.119,46.326,41.166,22.868,-118.46
 14:51:02.913,eb:33:2e:f9:57:b5, 2085-97-170 00:214:251:2377,0.081,-0.575,1.08,-367.981,-173.279,54.016,37.233,21.209,-119.218
 14:51:02.913,eb:33:2e:f9:57:b5, 2085-97-169 00:07:253:2602,0.113,-0.448,1.202,-373.413,-178.955,58.899,33.311,19.446,-119.8
 14:51:02.913,eb:33:2e:f9:57:b5, 2085-97-220 00:36:254:2947,0.094,-0.293,1.373,-371.521,-189.941,58.472,29.405,17.545,-120.295
 14:51:02.913,eb:33:2e:f9:57:b5, 2085-97-166 00:224:254:3153,0.062,-0.181,1.491,-369.08,-200.256,53.955,25.587,15.551,-120.718
 14:51:02.968,eb:33:2e:f9:57:b5, 2085-97-86 00:41:255:3390,0.02,-0.117,1.586,-369.69,-208.496,47.607,21.775,13.458,-121.097
 14:51:02.968,eb:33:2e:f9:57:b5, 2085-97-234 255:15:255:3847,-0.05,-0.106,1.76,-371.643,-216.492,41.26,18.001,11.305,-121.415
 14:51:02.968,eb:33:2e:f9:57:b5, 2085-97-100 255:193:254:4374,-0.093,-0.136,2.007,-377.38,-219.788,36.316,14.189,9.086,-121.657
 14:51:02.968,eb:33:2e:f9:57:b5, 2085-97-35 255:161:254:4838,-0.121,-0.169,2.256,-389.099,-213.684,31.921,10.338,6.888,-121.789
 14:51:02.970,eb:33:2e:f9:57:b5, 2085-97-251 254:21:255:5240,-0.134,-0.153,2.46,-404.602,-203.308,26.55,6.334,4.779,-121.805
 14:51:02.970,eb:33:2e:f9:57:b5, 2085-97-244 254:108:00:5619,-0.125,-0.048,2.654,-419.434,-197.021,18.799,2.214,2.774,-121.729
 14:51:02.970,eb:33:2e:f9:57:b5, 2085-97-240 254:219:02:6014,-0.155,0.187,2.841,-432.251,-197.571,6.409,-2.071,0.791,-121.608
 14:51:02.970,eb:33:2e:f9:57:b5, 2085-97-82 254:25:06:6476,-0.302,0.545,3.052,-440.186,-204.59,-10.376,-6.443,-1.208,-121.487
 14:51:02.974,eb:33:2e:f9:57:b5, 2085-97-207 252:154:09:6983,-0.531,0.984,3.27,-438.538,-218.567,-31.006,-10.876,-3.345,-121.377
 14:51:02.974,eb:33:2e:f9:57:b5, 2085-97-96 250:139:12:7571,-0.933,1.396,3.552,-422.668,-230.896,-47.607,-15.2,-5.641,-121.262
 14:51:02.974,eb:33:2e:f9:57:b5, 2085-97-165 246:203:14:8043,-1.378,1.707,3.808,-387.512,-229.614,-48.584,-19.297,-8.015,-121.047
 14:51:02.974,eb:33:2e:f9:57:b5, 2085-97-109 244:175:18:8137,-1.216,2.068,4.018,-333.496,-186.523,-29.175,-22.945,-10.113,-120.646
 14:51:02.976,eb:33:2e:f9:57:b5, 2085-97-186 247:65:29:6138,-0.921,2.878,3.606,-278.564,-58.35,-7.019,-26.054,-11.332,-120.289
 14:51:02.976,eb:33:2e:f9:57:b5, 2085-97-170 255:100:00:2288,-0.098,4.408,2.428,-232.727,-0.244,-13.916,-28.614,-11.519,-120.284
 14:51:02.976,eb:33:2e:f9:57:b5, 2085-97-104 255:249:255:2601,-0.064,-0.002,1.227,21.729,27.161,-10.559,2.197,4.274,-117.125
 14:51:02.976,eb:33:2e:f9:57:b5, 2085-97-48 255:48:00:2325,-0.148,0.021,1.207,33.936,33.447,-10.681,2.483,4.576,-117.219
 14:51:03.090,eb:33:2e:f9:57:b5, 2085-97-126 254:222:255:2291,-0.234,0.006,1.123,40.1,34.912,-9.705,2.862,4.938,-117.307
 14:51:03.090,eb:33:2e:f9:57:b5, 2085-97-242 253:152:255:2267,-0.253,-0.03,1.091,45.105,30.884,-4.395,3.285,5.279,-117.361
 14:51:03.090,eb:33:2e:f9:57:b5, 2085-97-72 254:202:255:2456,-0.156,-0.045,1.144,53.345,20.02,1.892,3.79,5.532,-117.356
 14:51:03.090,eb:33:2e:f9:57:b5, 2085-97-242 254:25:00:2594,-0.137,0,1.24,62.195,18.738,7.019,4.378,5.713,-117.29
 14:51:03.119,eb:33:2e:f9:57:b5, 2085-97-07 255:24:00:2835,-0.114,0.01,1.306,73.792,19.287,8.972,5.081,5.9,-117.191
 14:51:03.119,eb:33:2e:f9:57:b5, 2085-97-46 255:239:255:3049,-0.107,0.001,1.453,88.928,25.391,10.62,5.916,6.108,-117.076
 14:51:03.119,eb:33:2e:f9:57:b5, 2085-97-02 255:00:00:2992,-0.167,0,1.466,104.248,36.316,13.855,6.916,6.422,-116.911
 14:51:03.119,eb:33:2e:f9:57:b5, 2085-97-84 254:145:255:3022,-0.206,-0.03,1.499,118.713,39.246,18.005,8.064,6.779,-116.708
 14:51:03.122,eb:33:2e:f9:57:b5, 2085-97-174 254:190:255:3200,-0.101,-0.044,1.509,134.705,37.537,23.438,9.382,7.13,-116.433
 14:51:03.122,eb:33:2e:f9:57:b5, 2085-97-150 255:37:00:3382,0,-0.008,1.594,155.762,38.452,25.024,10.882,7.46,-116.12
 14:51:03.122,eb:33:2e:f9:57:b5, 2085-97-45 00:58:00:3541,0.037,0.029,1.646,177.307,47.058,23.071,12.612,7.839,-115.79
 14:51:03.122,eb:33:2e:f9:57:b5, 2085-97-87 00:32:00:3763,0.084,0.01,1.769,201.05,59.998,18.738,14.562,8.311,-115.472
 14:51:03.124,eb:33:2e:f9:57:b5, 2085-97-138 00:175:255:3942,0.086,-0.002,1.86,229.004,72.144,13.977,16.782,8.915,-115.131
 14:51:03.124,eb:33:2e:f9:57:b5, 2085-97-121 01:121:255:4375,0.293,-0.093,2.044,261.963,87.341,8.789,19.308,9.63,-114.78
 14:51:03.124,eb:33:2e:f9:57:b5, 2085-97-55 03:155:255:4443,0.428,-0.024,2.153,299.072,112.549,0.183,22.203,10.569,-114.368
 14:51:03.124,eb:33:2e:f9:57:b5, 2085-97-116 03:180:254:4871,0.413,-0.096,2.262,340.637,146.24,-14.221,25.505,11.788,-113.901
 14:51:03.270,eb:33:2e:f9:57:b5, 2085-97-254 02:136:254:5064,0.27,-0.199,2.388,387.207,189.697,-26.123,29.312,13.403,-113.286
 14:51:03.270,eb:33:2e:f9:57:b5, 2085-97-181 255:28:01:6109,-0.394,-0.094,2.623,433.411,221.497,-35.522,33.646,15.353,-112.44
 14:51:03.270,eb:33:2e:f9:57:b5, 2085-97-21 250:08:03:7316,-0.724,0.201,3.321,482.239,213.867,-41.87,38.557,17.38,-111.44
 14:51:03.270,eb:33:2e:f9:57:b5, 2085-97-53 252:203:02:7270,0.032,0.406,3.851,521.362,183.533,-41.199,43.918,19.133,-110.424
 14:51:03.539,eb:33:2e:f9:57:b5, 2085-97-190 01:205:02:5096,-0.217,0.17,3.032,556.396,152.71,-32.654,49.669,20.566,-109.385
 14:51:03.539,eb:33:2e:f9:57:b5, 2085-97-223 251:77:253:6605,-0.43,0.084,2.58,564.941,107.422,-54.26,55.591,21.698,-108.605
 14:51:03.539,eb:33:2e:f9:57:b5, 2085-97-16 255:62:254:6391,0.319,-0.453,3.427,560.181,147.461,-36.682,61.556,22.736,-107.737
 14:51:03.539,eb:33:2e:f9:57:b5, 2085-97-07 05:254:252:4988,0.81,-0.283,2.784,518.616,162.292,-39.001,67.527,23.774,-106.326
 14:51:03.542,eb:33:2e:f9:57:b5, 2085-97-135 08:10:252:3728,1.379,-0.448,2.106,455.994,136.353,-45.105,72.933,24.67,-104.925
 14:51:03.542,eb:33:2e:f9:57:b5, 2085-97-117 10:06:250:2739,0.948,-0.657,1.44,392.517,88.257,-73.73,77.585,25.527,-103.903
 14:51:03.542,eb:33:2e:f9:57:b5, 2085-97-156 05:28:250:1248,0.597,-0.805,1.257,357.605,35.889,-111.267,81.497,26.598,-103.425
 14:51:03.542,eb:33:2e:f9:57:b5, 2085-97-237 04:241:245:-1024,0.482,-0.757,-0.317,223.511,-15.503,-125.122,84.43,27.795,-103.519
 14:51:03.901,eb:33:2e:f9:57:b5, 2085-97-138 02:245:240:-1213,0.208,-1.688,-0.594,24.597,-19.348,-112.671,85.375,28.982,-103.859
 14:51:03.901,eb:33:2e:f9:57:b5, 2085-97-192 01:22:242:-505,0.245,-1.907,-0.485,-132.141,-13.428,-74.89,84.584,29.894,-104.139
 14:51:03.901,eb:33:2e:f9:57:b5, 2085-97-223 01:175:245:798,0.202,-1.501,0.125,-238.464,-6.287,-40.405,82.524,30.427,-104.326
 14:51:03.901,eb:33:2e:f9:57:b5, 2085-97-221 01:197:247:1140,0.307,-1.136,0.507,-291.992,-13.977,-15.564,79.739,30.674,-104.464
 14:51:03.905,eb:33:2e:f9:57:b5, 2085-97-40 03:10:249:944,0.466,-0.949,0.538,-314.819,-37.109,2.075,76.498,30.668,-104.788
 14:51:03.905,eb:33:2e:f9:57:b5, 2085-97-28 04:240:249:613,0.556,-0.815,0.374,-329.59,-59.265,11.23,72.999,30.46,-105.315
 14:51:03.905,eb:33:2e:f9:57:b5, 2085-97-207 04:199:250:688,0.615,-0.711,0.298,-337.036,-89.172,11.353,69.241,30.103,-106.106
 14:51:03.905,eb:33:2e:f9:57:b5, 2085-97-216 04:203:251:857,0.593,-0.574,0.375,-337.036,-122.864,6.409,65.325,29.608,-107.199
 14:51:03.908,eb:33:2e:f9:57:b5, 2085-97-115 04:40:252:1047,0.51,-0.491,0.459,-334.534,-152.161,1.343,61.26,28.943,-108.616
 14:51:03.908,eb:33:2e:f9:57:b5, 2085-97-146 03:36:252:1356,0.363,-0.483,0.589,-336.365,-175.537,-0.793,57.134,28.092,-110.242
 14:51:03.908,eb:33:2e:f9:57:b5, 2085-97-76 02:233:251:1632,0.222,-0.491,0.726,-347.29,-184.631,3.418,52.921,27.043,-111.923
 14:51:03.908,eb:33:2e:f9:57:b5, 2085-97-146 01:169:251:2002,0.174,-0.534,0.876,-361.633,-182.617,13.672,48.691,25.812,-113.456
 14:51:03.913,eb:33:2e:f9:57:b5, 2085-97-46 01:25:252:2271,0.141,-0.52,1.044,-375.671,-170.654,27.466,44.44,24.439,-114.719
 14:51:03.913,eb:33:2e:f9:57:b5, 2085-97-165 247:175:17:6700,-1.043,-0.432,1.158,-384.766,-158.875,41.992,40.254,22.994,-115.642
 14:51:03.913,eb:33:2e:f9:57:b5, 2085-97-32 247:34:27:9457,-1.153,2.721,4.712,-312.073,-167.542,-85.144,-23.659,-9.921,-115.659
 14:51:03.913,eb:33:2e:f9:57:b5, 2085-97-79 246:110:32:4641,-1.408,3.82,3.537,-223.145,-67.017,-87.646,-26.208,-11.321,-115.994
 14:51:03.991,eb:33:2e:f9:57:b5, 2085-97-243 241:206:33:1505,-2.175,4.231,1.224,-135.071,-51.514,-77.454,-27.872,-12.107,-116.526
 14:51:03.991,eb:33:2e:f9:57:b5, 2085-97-168 235:76:29:2096,-2.838,3.973,0.735,-20.935,-143.372,-52.979,-28.575,-13.299,-116.636
 14:51:03.991,eb:33:2e:f9:57:b5, 2085-97-120 219:81:05:18531,-5.006,3.357,1.481,71.655,-182.495,-4.639,-28.4,-14.947,-116.027
 14:51:03.992,eb:33:2e:f9:57:b5, 2085-97-136 237:238:19:5238,0.036,2.529,4.538,268.677,220.825,137.451,-26.51,-14.062,-115.296
 14:51:04.110,eb:33:2e:f9:57:b5, 2085-97-64 09:57:247:1536,0.263,-0.184,-0.438,264.221,265.076,214.844,-23.868,-10.992,-114.906
 14:51:04.110,eb:33:2e:f9:57:b5, 2085-97-106 255:241:255:2023,-0.063,-0.344,0.954,297.729,279.968,227.905,-21.292,-7.262,-113.708
 14:51:04.110,eb:33:2e:f9:57:b5, 2085-97-142 255:10:00:2037,-0.049,0,0.993,7.324,-0.854,4.883,-0.143,1.906,-112.78
 14:51:04.110,eb:33:2e:f9:57:b5, 2085-97-160 255:17:00:2055,-0.044,0.01,1,7.263,-0.183,4.333,-0.066,1.901,-112.736
 14:51:04.114,eb:33:2e:f9:57:b5, 2085-97-194 255:20:00:2115,-0.062,0.008,1.011,8.118,0.549,3.418,0.016,1.912,-112.698
 14:51:04.115,eb:33:2e:f9:57:b5, 2085-97-180 255:03:00:2112,-0.041,0.008,1,9.399,1.709,2.747,0.104,1.934,-112.67
 14:51:04.115,eb:33:2e:f9:57:b5, 2085-97-150 255:13:00:2074,-0.044,0.006,1.024,10.742,5.432,2.869,0.22,1.978,-112.637
 14:51:04.115,eb:33:2e:f9:57:b5, 2085-97-145 255:10:00:2080,-0.064,0.008,1.017,12.329,6.104,2.197,0.341,2.032,-112.61
 14:51:04.115,eb:33:2e:f9:57:b5, 2085-97-122 255:13:00:2048,-0.062,0.004,1.007,13.916,6.653,2.075,0.483,2.109,-112.588
 14:51:04.115,eb:33:2e:f9:57:b5, 2085-97-132 255:30:00:2071,-0.054,0.008,1.007,15.015,6.531,1.404,0.632,2.17,-112.577
 14:51:04.115,eb:33:2e:f9:57:b5, 2085-97-127 255:39:00:2054,-0.062,0.019,1.002,15.625,7.751,0.488,0.802,2.252,-112.566
 14:51:04.115,eb:33:2e:f9:57:b5, 2085-97-143 255:61:00:2052,-0.052,0.027,0.988,15.564,8.484,-0.732,0.956,2.34,-112.566
 14:51:04.117,eb:33:2e:f9:57:b5, 2085-97-141 255:68:00:2055,-0.05,0.031,1.006,15.137,11.108,-2.502,1.121,2.444,-112.577
 14:51:04.117,eb:33:2e:f9:57:b5, 2085-97-145 255:72:00:2083,-0.063,0.037,1.006,15.137,13.611,-4.639,1.269,2.571,-112.615
 14:51:04.117,eb:33:2e:f9:57:b5, 2085-97-136 255:53:00:2144,-0.072,0.023,1.041,15.808,17.09,-6.165,1.434,2.736,-112.665
 14:51:04.117,eb:33:2e:f9:57:b5, 2085-97-107 255:57:00:2122,-0.054,0.028,1.028,16.968,19.836,-6.714,1.599,2.928,-112.725
 14:51:04.140,eb:33:2e:f9:57:b5, 2085-97-124 255:46:00:2190,-0.074,0.038,1.039,16.907,23.254,-6.836,1.774,3.159,-112.786
 14:51:04.140,eb:33:2e:f9:57:b5, 2085-97-117 255:96:00:2040,-0.029,0.039,1.01,16.846,26.55,-6.165,1.945,3.411,-112.846
 14:51:04.140,eb:33:2e:f9:57:b5, 2085-97-126 255:108:00:2066,-0.194,0.064,1.013,19.348,19.775,-6.531,2.131,3.653,-112.901
 14:51:04.140,eb:33:2e:f9:57:b5, 2085-97-184 254:157:255:2659,-0.101,-0.034,1.119,24.841,14.282,-5.005,2.34,3.834,-112.956
 14:51:04.230,eb:33:2e:f9:57:b5, 2085-97-79 255:249:255:2808,-0.107,-0.049,1.432,44.434,13.367,-2.441,2.714,3.944,-112.989
 14:51:04.230,eb:33:2e:f9:57:b5, 2085-97-62 255:172:255:3279,-0.078,-0.012,1.486,57.861,24.353,-5.127,3.224,4.136,-113.022
 14:51:04.230,eb:33:2e:f9:57:b5, 2085-97-60 255:157:255:3088,-0.128,-0.036,1.553,76.843,39.49,-3.296,3.922,4.477,-113.044
 14:51:04.230,eb:33:2e:f9:57:b5, 2085-97-204 254:66:255:3201,-0.16,-0.068,1.519,91.858,49.316,-0.671,4.774,4.933,-113.033
 14:51:04.230,eb:33:2e:f9:57:b5, 2085-97-125 254:59:255:2996,-0.208,-0.097,1.541,110.962,55.542,6.348,5.812,5.466,-112.95
 14:51:04.230,eb:33:2e:f9:57:b5, 2085-97-88 254:90:255:2867,-0.146,-0.09,1.41,129.7,50.415,13.855,7.048,5.982,-112.791
 14:51:04.230,eb:33:2e:f9:57:b5, 2085-97-147 255:230:255:3174,-0.021,-0.046,1.47,147.583,45.105,20.508,8.476,6.432,-112.549
 14:51:04.231,eb:33:2e:f9:57:b5, 2085-97-09 00:227:255:3560,0.021,-0.01,1.616,170.654,48.279,19.714,10.113,6.855,-112.269
 14:51:04.234,eb:33:2e:f9:57:b5, 2085-97-148 00:212:255:3852,0.041,0.012,1.822,192.566,64.636,17.334,11.986,7.383,-111.973
 14:51:04.234,eb:33:2e:f9:57:b5, 2085-97-197 00:115:255:4154,0.113,0.019,1.971,213.074,81.543,13.794,14.079,8.08,-111.649
 14:51:04.234,eb:33:2e:f9:57:b5, 2085-97-81 01:110:255:4158,0.207,-0.05,1.987,246.887,98.206,10.498,16.458,8.954,-111.27
 14:51:04.234,eb:33:2e:f9:57:b5, 2085-97-48 02:07:255:4676,0.376,-0.098,2.145,282.715,112.061,4.272,19.182,9.932,-110.88
 14:51:04.261,eb:33:2e:f9:57:b5, 2085-97-69 03:137:254:4668,0.455,-0.143,2.319,322.754,141.357,-3.479,22.324,11.129,-110.418
 14:51:04.261,eb:33:2e:f9:57:b5, 2085-97-123 03:131:253:4912,0.376,-0.246,2.368,367.004,173.523,-16.113,25.906,12.612,-109.858
 14:51:04.261,eb:33:2e:f9:57:b5, 2085-97-93 02:112:253:5280,0.07,-0.36,2.477,413.269,210.815,-25.391,30.009,14.431,-109.116
 14:51:04.261,eb:33:2e:f9:57:b5, 2085-97-165 254:104:00:6157,-0.504,-0.168,2.751,465.82,225.891,-30.273,34.684,16.469,-108.127
 14:51:04.290,eb:33:2e:f9:57:b5, 2085-97-209 250:103:03:7392,-0.328,0.354,3.353,515.076,188.049,-37.109,39.946,18.336,-107.089
 14:51:04.290,eb:33:2e:f9:57:b5, 2085-97-08 00:100:03:6123,0.091,0.428,3.481,552.917,148.193,-36.072,45.61,19.786,-106.205
 14:51:04.290,eb:33:2e:f9:57:b5, 2085-97-22 00:06:254:5384,-0.184,0.106,2.871,584.473,106.934,-46.204,51.542,20.929,-105.507
 14:51:04.290,eb:33:2e:f9:57:b5, 2085-97-209 254:232:252:5902,0.024,-0.634,2.72,598.999,78.491,-42.725,57.678,21.841,-105.04
 14:51:04.320,eb:33:2e:f9:57:b5, 2085-97-114 02:105:255:6703,0.604,-0.03,3.178,579.224,102.844,-54.138,63.792,22.665,-104.447
 14:51:04.320,eb:33:2e:f9:57:b5, 2085-97-35 07:198:251:4795,1.149,-0.253,2.913,539.246,139.526,-70.74,69.774,23.73,-103.469
 14:51:04.320,eb:33:2e:f9:57:b5, 2085-97-191 09:69:248:3369,1.086,-0.7,1.98,461.792,130.554,-92.468,75.245,24.928,-102.31
 14:51:04.320,eb:33:2e:f9:57:b5, 2085-113-58 00:136:240:-9225,0.853,-1.211,1.43,366.76,79.712,-108.521,79.706,26.147,-101.415
 14:51:04.320,eb:33:2e:f9:57:b5, 2085-97-32 05:115:245:1846,0.812,-1.362,1.577,335.571,60.852,-109.131,81.546,26.746,-101.151
 14:51:04.382,eb:33:2e:f9:57:b5, 2085-97-143 05:217:241:-3540,0.602,-1.458,-0.486,191.956,45.776,-102.844,84.452,27.872,-100.8
 14:51:04.382,eb:33:2e:f9:57:b5, 2085-97-08 04:94:240:-2902,0.513,-1.917,-1.849,-44.922,27.588,-90.271,85.172,28.878,-100.448
 14:51:04.382,eb:33:2e:f9:57:b5, 2085-97-107 03:134:243:076,0.338,-1.836,-0.715,-191.956,-14.893,-61.584,83.826,29.63,-100.508
 14:51:04.382,eb:33:2e:f9:57:b5, 2085-97-112 02:229:246:1198,0.304,-1.333,0.421,-278.748,-37.048,-32.959,81.151,30.031,-100.898
 14:51:04.439,eb:33:2e:f9:57:b5, 2085-97-177 02:198:247:1184,0.387,-1.041,0.623,-320.496,-59.021,-15.381,77.816,30.163,-101.497
 14:51:04.439,eb:33:2e:f9:57:b5, 2085-97-152 03:29:248:753,0.502,-1.019,0.469,-354.736,-78.796,-4.211,73.998,30.075,-102.316
 14:51:04.439,eb:33:2e:f9:57:b5, 2085-97-62 04:239:248:886,0.574,-0.937,0.345,-384.46,-103.455,-3.601,69.774,29.822,-103.326
 14:51:04.439,eb:33:2e:f9:57:b5, 2085-97-131 04:83:250:1460,0.537,-0.8,0.589,-394.409,-132.568,-10.071,65.193,29.421,-104.645
 14:51:04.442,eb:33:2e:f9:57:b5, 2085-97-15 04:90:251:1876,0.449,-0.633,0.813,-388.977,-157.715,-17.273,60.507,28.878,-106.216
 14:51:04.442,eb:33:2e:f9:57:b5, 2085-97-20 03:06:252:1976,0.306,-0.542,0.97,-380.188,-171.448,-20.935,55.822,28.163,-107.952
 14:51:04.442,eb:33:2e:f9:57:b5, 2085-97-05 02:72:252:1802,0.207,-0.466,0.908,-378.967,-175.842,-19.348,51.235,27.296,-109.671
 14:51:04.442,eb:33:2e:f9:57:b5, 2085-97-84 01:239:251:1981,0.141,-0.486,0.898,-382.141,-179.749,-13.672,46.67,26.246,-111.308
 14:51:04.650,eb:33:2e:f9:57:b5, 2085-97-227 00:61:252:2320,0.098,-0.505,1.063,-383.301,-180.054,-3.784,42.204,25.016,-112.78
 14:51:04.650,eb:33:2e:f9:57:b5, 2085-97-144 00:68:253:2543,0.073,-0.413,1.204,-378.357,-178.955,7.263,37.853,23.621,-114.033
 14:51:04.650,eb:33:2e:f9:57:b5, 2085-97-150 00:95:254:2668,0.069,-0.267,1.293,-363.22,-186.279,15.564,33.739,22.072,-115.087
 14:51:04.650,eb:33:2e:f9:57:b5, 2085-97-108 00:10:255:2685,0.034,-0.153,1.303,-346.008,-199.951,20.02,29.844,20.319,-116.021
 14:51:04.652,eb:33:2e:f9:57:b5, 2085-97-10 00:98:255:3001,-0.041,-0.096,1.369,-332.825,-211.365,22.583,26.186,18.397,-116.845
 14:51:04.652,eb:33:2e:f9:57:b5, 2085-97-92 255:100:255:3420,-0.099,-0.071,1.57,-322.51,-216.492,24.963,22.681,16.331,-117.559
 14:51:04.652,eb:33:2e:f9:57:b5, 2085-97-37 255:64:255:3725,-0.117,-0.084,1.754,-315.491,-213.318,27.832,19.358,14.227,-118.103
 14:51:04.652,eb:33:2e:f9:57:b5, 2085-97-249 254:64:255:3939,-0.131,-0.1,1.868,-314.697,-204.224,30.579,16.106,12.14,-118.471
 14:51:04.656,eb:33:2e:f9:57:b5, 2085-97-254 254:181:255:4222,-0.111,-0.068,1.994,-321.655,-190.674,31.067,12.887,10.151,-118.674
 14:51:04.656,eb:33:2e:f9:57:b5, 2085-97-63 255:84:00:4513,-0.073,-0.001,2.141,-331.97,-177.246,27.832,9.58,8.284,-118.746
 14:51:04.656,eb:33:2e:f9:57:b5, 2085-97-133 255:27:01:4638,-0.06,0.09,2.247,-343.384,-169.312,19.592,6.196,6.542,-118.746
 14:51:04.656,eb:33:2e:f9:57:b5, 2085-97-100 255:242:01:4694,-0.107,0.189,2.274,-356.262,-172.424,7.507,2.67,4.828,-118.751
 14:51:04.656,eb:33:2e:f9:57:b5, 2085-97-211 254:12:03:4802,-0.211,0.306,2.313,-367.92,-186.401,-5.554,-0.956,3.038,-118.773
 14:51:04.656,eb:33:2e:f9:57:b5, 2085-97-182 253:101:04:5087,-0.384,0.46,2.397,-374.756,-210.266,-17.212,-4.702,1.033,-118.795
 14:51:04.656,eb:33:2e:f9:57:b5, 2085-97-229 251:56:06:5708,-0.662,0.655,2.622,-374.512,-236.267,-25.391,-8.459,-1.219,-118.757
 14:51:04.656,eb:33:2e:f9:57:b5, 2085-97-108 249:64:08:6552,-1.024,0.905,2.988,-366.455,-255.066,-28.442,-12.195,-3.719,-118.581
 14:51:04.660,eb:33:2e:f9:57:b5, 2085-97-107 246:43:10:7218,-1.313,1.149,3.368,-351.013,-254.211,-22.705,-15.815,-6.268,-118.213
 14:51:04.660,eb:33:2e:f9:57:b5, 2085-97-86 245:21:14:7612,-1.168,1.462,3.644,-324.524,-214.478,-6.714,-19.281,-8.569,-117.631
 14:51:04.660,eb:33:2e:f9:57:b5, 2085-97-124 248:124:22:6994,-0.698,2.18,3.721,-294.922,-113.831,4.211,-22.456,-10.118,-117.032
 14:51:04.660,eb:33:2e:f9:57:b5, 2085-97-33 252:217:32:5164,-0.465,3.501,2.997,-268.25,-7.812,-8.789,-25.318,-10.585,-116.823
 14:51:04.711,eb:33:2e:f9:57:b5, 2085-97-102 250:149:38:1606,-1.14,4.59,1.743,-200.684,-5.798,-43.823,-27.625,-10.646,-117.103
 14:51:04.711,eb:33:2e:f9:57:b5, 2085-97-149 242:186:33:201,-2.157,4.667,0.056,-83.74,-154.053,-71.35,-28.987,-11.646,-117.257
 14:51:04.711,eb:33:2e:f9:57:b5, 2085-97-89 235:137:27:3373,-2.914,3.784,0.749,30.518,-263.55,-51.208,-29.301,-13.931,-116.702
 14:51:04.711,eb:33:2e:f9:57:b5, 2085-97-195 231:96:20:6663,-5.446,3.098,2.535,106.018,-205.444,2.808,-28.806,-16.199,-115.67
 14:51:05.041,eb:33:2e:f9:57:b5, 2085-97-226 234:192:19:2146,0.265,-0.084,10.419,279.663,321.411,191.406,-27.103,-16.084,-114.714
 14:51:05.049,eb:33:2e:f9:57:b5, 2085-97-56 13:182:242:1166,0.658,-0.25,-0.206,256.897,299.5,198.914,-24.318,-12.563,-114.73
 14:51:05.049,eb:33:2e:f9:57:b5, 2085-97-247 03:175:243:1246,-0.108,-0.653,0.607,295.959,321.106,263.855,-21.841,-8.394,-113.621
 14:51:05.049,eb:33:2e:f9:57:b5, 2085-97-152 250:62:250:1822,-1.12,-1.193,0.549,365.051,203.796,215.271,-18.627,-5.142,-112.313
 14:51:05.049,eb:33:2e:f9:57:b5, 2085-97-192 247:19:255:1920,-0.927,-0.484,0.899,388.184,119.507,166.26,-14.875,-3.082,-110.945
 14:51:05.049,eb:33:2e:f9:57:b5, 2085-97-244 249:29:08:3052,-0.589,0.642,1.271,353.088,88.562,113.037,-11.19,-1.835,-109.808
 14:51:05.049,eb:33:2e:f9:57:b5, 2085-97-135 252:162:06:3106,-0.329,1.045,1.613,277.893,77.637,31.128,-8.069,-0.868,-109.254
 14:51:05.049,eb:33:2e:f9:57:b5, 2085-97-85 253:158:03:2205,-0.271,0.659,1.276,212.219,41.504,-28.87,-5.663,-0.275,-109.352
 14:51:05.050,eb:33:2e:f9:57:b5, 2085-97-188 255:172:01:2334,0.122,0.372,1.043,172.852,-20.813,-66.345,-3.757,-0.22,-109.874
 14:51:05.050,eb:33:2e:f9:57:b5, 2085-97-60 01:74:00:2390,0.167,-0.013,1.212,143.433,-27.039,-62.744,-2.192,-0.549,-110.55
 14:51:05.050,eb:33:2e:f9:57:b5, 2085-113-81 00:118:72:-337,0.15,0.129,1.153,99.854,-10.803,-30.09,-0.961,-0.769,-111.022
 14:51:05.050,eb:33:2e:f9:57:b5, 2085-97-198 00:228:01:2110,-0.03,0.328,1.009,67.932,-0.244,-9.094,-0.56,-0.802,-111.116
 14:51:05.129,eb:33:2e:f9:57:b5, 2085-97-181 254:06:01:1688,-0.078,0.31,0.893,31.372,18.311,7.751,-0.088,-0.67,-111.055
 14:51:05.129,eb:33:2e:f9:57:b5, 2085-97-84 00:129:00:2124,-0.096,0.059,0.969,14.832,15.442,14.404,0.115,-0.533,-110.945
 14:51:05.129,eb:33:2e:f9:57:b5, 2085-97-83 255:195:00:1931,-0.078,0.109,0.882,9.583,12.878,10.01,0.247,-0.341,-110.808
 14:51:05.129,eb:33:2e:f9:57:b5, 2085-97-36 255:59:00:1905,-0.111,0.06,0.963,4.089,18.616,1.892,0.313,-0.192,-110.759
 14:51:05.310,eb:33:2e:f9:57:b5, 2085-97-87 255:23:00:1991,-0.064,0.015,0.937,3.235,10.803,-0.427,0.357,-0.033,-110.753
 14:51:05.310,eb:33:2e:f9:57:b5, 2085-97-126 255:52:00:2063,-0.057,0.011,0.979,3.235,7.507,-0.488,0.39,0.049,-110.764
 14:51:05.310,eb:33:2e:f9:57:b5, 2085-97-154 255:60:00:2095,-0.054,0.034,1,5.981,19.531,-2.991,1.719,1.593,-110.561
 14:51:05.310,eb:33:2e:f9:57:b5, 2085-97-145 255:55:00:2103,-0.046,0.031,1.017,5.981,22.705,-2.563,1.78,1.813,-110.583
 14:51:05.312,eb:33:2e:f9:57:b5, 2085-97-119 255:57:00:2072,-0.046,0.039,1.025,6.226,25.574,-2.563,1.851,2.06,-110.599
 14:51:05.312,eb:33:2e:f9:57:b5, 2085-97-88 255:65:00:2021,-0.083,0.051,1.002,6.042,27.649,-2.93,1.912,2.324,-110.621
 14:51:05.312,eb:33:2e:f9:57:b5, 2085-97-87 255:84:00:1991,-0.078,0.037,0.979,5.432,27.649,-2.563,1.983,2.615,-110.632
 14:51:05.312,eb:33:2e:f9:57:b5, 2085-97-94 255:105:00:1935,-0.079,0.045,0.963,4.456,26.611,-2.93,2.032,2.889,-110.654
 14:51:05.314,eb:33:2e:f9:57:b5, 2085-97-131 255:139:00:1946,-0.067,0.052,0.953,3.418,22.644,-3.662,2.082,3.137,-110.682
 14:51:05.314,eb:33:2e:f9:57:b5, 2085-97-64 255:45:00:2248,-0.075,0.042,1.033,3.967,21.24,-5.249,2.115,3.345,-110.726
 14:51:05.314,eb:33:2e:f9:57:b5, 2085-97-202 254:202:255:2513,-0.155,0.041,1.109,9.155,22.217,-6.531,2.192,3.565,-110.77
 14:51:05.314,eb:33:2e:f9:57:b5, 2085-97-95 255:222:255:2852,-0.151,-0.057,1.372,26.306,21.24,-5.676,2.362,3.79,-110.83
 14:51:05.314,eb:33:2e:f9:57:b5, 2085-97-138 254:213:255:2361,-0.2,-0.019,1.238,39.185,31.433,-5.005,2.714,4.087,-110.869
 14:51:05.314,eb:33:2e:f9:57:b5, 2085-97-67 254:164:255:2460,-0.211,-0.034,1.173,47.18,27.832,-2.38,3.148,4.384,-110.896
 14:51:05.314,eb:33:2e:f9:57:b5, 2085-97-151 254:186:255:2686,-0.139,-0.05,1.24,57.129,23.376,2.808,3.686,4.647,-110.874
 14:51:05.314,eb:33:2e:f9:57:b5, 2085-97-236 254:193:255:2963,-0.138,-0.027,1.393,69.885,24.78,6.897,4.329,4.878,-110.808
 14:51:05.317,eb:33:2e:f9:57:b5, 2085-97-197 254:167:255:3004,-0.147,-0.054,1.468,85.327,32.043,11.78,5.136,5.164,-110.687
 14:51:05.317,eb:33:2e:f9:57:b5, 2085-97-162 254:148:255:2994,-0.183,-0.051,1.478,101.746,36.194,16.846,6.092,5.488,-110.511
 14:51:05.317,eb:33:2e:f9:57:b5, 2085-97-133 254:136:255:3020,-0.187,-0.039,1.432,119.141,34.363,23.926,7.234,5.839,-110.264
 14:51:05.317,eb:33:2e:f9:57:b5, 2085-97-194 254:146:255:3234,-0.113,-0.056,1.532,136.841,31.921,29.724,8.558,6.125,-109.951
 14:51:05.341,eb:33:2e:f9:57:b5, 2085-97-151 255:252:255:3500,0.01,-0.031,1.639,156.494,33.813,32.104,10.08,6.405,-109.583
 14:51:05.341,eb:33:2e:f9:57:b5, 2085-97-136 04:254:255:4651,0.611,0.023,1.761,178.101,44.678,30.029,11.81,6.729,-109.199
 14:51:05.341,eb:33:2e:f9:57:b5, 2085-97-249 04:197:254:4832,0.617,-0.078,2.271,324.646,178.406,-19.104,24.384,11.464,-106.985
 14:51:05.341,eb:33:2e:f9:57:b5, 2085-97-14 05:01:254:5186,0.581,-0.22,2.444,369.629,223.389,-34.546,28.021,13.398,-106.326
 14:51:05.371,eb:33:2e:f9:57:b5, 2085-97-31 03:198:255:5504,0.139,-0.17,2.556,417.664,270.752,-47.363,32.223,15.782,-105.397
 14:51:05.371,eb:33:2e:f9:57:b5, 2085-97-130 254:173:04:7571,-0.132,0.261,3.025,468.323,271.851,-62.744,37.018,18.364,-104.227
 14:51:05.371,eb:33:2e:f9:57:b5, 2085-97-253 00:117:03:7609,0.142,0.59,4.021,530.457,232.361,-82.458,42.407,20.792,-103.112
 14:51:05.371,eb:33:2e:f9:57:b5, 2085-97-231 00:124:02:5257,0.114,0.447,2.983,570.251,179.321,-82.275,48.307,22.841,-102.151
 14:51:05.461,eb:33:2e:f9:57:b5, 2085-97-223 254:80:255:4824,-0.191,-0.206,2.252,604.492,103.516,-85.083,54.448,24.362,-101.574
 14:51:05.461,eb:33:2e:f9:57:b5, 2085-97-20 255:148:00:6356,0.046,0.05,2.71,598.999,65.857,-94.666,60.59,25.516,-101.387
 14:51:05.461,eb:33:2e:f9:57:b5, 2085-113-81 00:168:53:15993,0.354,-0.021,3.168,545.227,88.745,-102.661,66.429,26.757,-101.107
 14:51:05.461,eb:33:2e:f9:57:b5, 2085-97-117 05:233:251:4748,0.875,-0.265,2.925,506.042,101.501,-105.896,69.17,27.427,-100.827
 14:51:05.461,eb:33:2e:f9:57:b5, 2085-97-221 06:158:247:4318,0.531,-0.69,2.036,400.085,110.718,-121.216,73.982,28.85,-100.08
 14:51:05.463,eb:33:2e:f9:57:b5, 2085-97-195 02:127:245:3191,0.29,-1.322,2.181,336.853,130.432,-110.535,78.08,30.3,-99.047
 14:51:05.463,eb:33:2e:f9:57:b5, 2085-97-184 03:57:244:-1698,0.458,-1.227,0.329,245.911,96.13,-86.426,81.628,31.459,-97.954
 14:51:05.463,eb:33:2e:f9:57:b5, 2085-97-29 03:203:239:-2910,0.462,-1.817,-1.49,35.583,74.89,-50.171,83.43,32.223,-97.015
 14:51:05.463,eb:33:2e:f9:57:b5, 2085-97-15 04:182:241:-975,0.441,-2.025,-0.984,-124.939,28.87,-5.859,83.112,32.536,-96.509
 14:51:05.489,eb:33:2e:f9:57:b5, 2085-97-235 02:184:245:672,0.366,-1.502,-0.01,-220.886,-2.319,28.625,81.37,32.41,-96.339
 14:51:05.489,eb:33:2e:f9:57:b5, 2085-97-114 03:86:247:1184,0.525,-1.158,0.523,-261.902,-39.185,51.697,78.788,31.954,-96.526
 14:51:05.489,eb:33:2e:f9:57:b5, 2085-97-208 04:78:248:814,0.62,-1.022,0.51,-279.541,-66.345,63.782,75.817,31.251,-97.009
 14:51:05.489,eb:33:2e:f9:57:b5, 2085-97-191 04:107:249:529,0.579,-0.893,0.309,-296.204,-87.646,64.453,72.57,30.416,-97.679
 14:51:05.549,eb:33:2e:f9:57:b5, 2085-97-132 04:171:250:674,0.563,-0.75,0.289,-307.312,-116.943,57.19,69.093,29.498,-98.586
 14:51:05.549,eb:33:2e:f9:57:b5, 2085-97-78 04:120:251:834,0.516,-0.605,0.376,-314.758,-145.691,45.471,65.391,28.51,-99.767
 14:51:05.549,eb:33:2e:f9:57:b5, 2085-97-199 03:154:251:1074,0.414,-0.549,0.463,-321.472,-172.241,32.166,61.529,27.449,-101.206
 14:51:05.551,eb:33:2e:f9:57:b5, 2085-97-191 02:92:251:1421,0.263,-0.563,0.604,-329.102,-191.589,21.301,57.519,26.29,-102.843
 14:51:05.580,eb:33:2e:f9:57:b5, 2085-97-155 01:251:250:1736,0.149,-0.601,0.765,-340.393,-198.547,16.113,53.443,25.027,-104.529
 14:51:05.580,eb:33:2e:f9:57:b5, 2085-97-184 00:193:250:2019,0.047,-0.645,0.919,-354.553,-193.909,16.602,49.29,23.67,-106.117
 14:51:05.580,eb:33:2e:f9:57:b5, 2085-97-58 00:42:251:2308,0.025,-0.643,1.063,-367.676,-183.716,20.325,45.137,22.253,-107.485
 14:51:05.580,eb:33:2e:f9:57:b5, 2085-97-32 00:04:252:2429,0.022,-0.551,1.174,-374.39,-174.011,22.766,40.974,20.797,-108.627
 14:51:06.421,eb:33:2e:f9:57:b5, 2085-97-60 00:38:253:2636,0.029,-0.421,1.242,-371.765,-174.683,23.254,36.903,19.297,-109.6
 14:51:06.421,eb:33:2e:f9:57:b5, 2085-97-38 00:07:254:2862,-0.001,-0.297,1.346,-361.084,-180.847,19.775,32.937,17.71,-110.49
 14:51:06.421,eb:33:2e:f9:57:b5, 2085-97-180 255:127:254:2965,-0.067,-0.206,1.434,-348.267,-189.636,14.587,29.152,16.029,-111.341
 14:51:06.421,eb:33:2e:f9:57:b5, 2085-97-65 255:117:254:3146,-0.126,-0.189,1.479,-339.722,-195.862,9.705,25.483,14.249,-112.159
 14:51:06.421,eb:33:2e:f9:57:b5, 2085-97-150 254:69:254:3467,-0.231,-0.204,1.612,-335.205,-197.021,7.019,21.94,12.415,-112.901
 14:51:06.421,eb:33:2e:f9:57:b5, 2085-97-200 253:239:253:3876,-0.322,-0.235,1.788,-331.665,-196.777,8.24,18.463,10.53,-113.527
 14:51:06.421,eb:33:2e:f9:57:b5, 2085-97-17 253:160:253:4339,-0.414,-0.281,2.004,-329.956,-189.087,15.198,15.079,8.646,-113.983
 14:51:06.421,eb:33:2e:f9:57:b5, 2085-97-69 252:180:253:4765,-0.503,-0.3,2.224,-331.421,-175.781,26.733,11.717,6.823,-114.203
 14:51:06.423,eb:33:2e:f9:57:b5, 2085-97-176 251:99:254:5302,-0.563,-0.258,2.461,-339.417,-159.668,40.161,8.372,5.114,-114.164
 14:51:06.423,eb:33:2e:f9:57:b5, 2085-97-77 251:16:00:5711,-0.595,-0.116,2.71,-354.37,-136.902,52.307,4.894,3.587,-113.868
 14:51:06.423,eb:33:2e:f9:57:b5, 2085-97-55 251:10:03:5946,-0.605,0.169,2.858,-374.878,-122.986,58.533,1.263,2.28,-113.373
 14:51:06.423,eb:33:2e:f9:57:b5, 2085-97-221 250:214:06:5989,-0.703,0.621,2.923,-399.597,-129.944,54.626,-2.62,1.033,-112.786
 14:51:06.426,eb:33:2e:f9:57:b5, 2085-97-165 249:56:10:6034,-0.896,1.083,2.92,-423.035,-157.654,42.236,-6.746,-0.363,-112.187
 14:51:06.426,eb:33:2e:f9:57:b5, 2085-97-11 248:216:12:6636,-1.108,1.435,3.044,-434.509,-185.12,31.86,-11.091,-2.032,-111.561
 14:51:06.426,eb:33:2e:f9:57:b5, 2085-97-239 245:74:16:7694,-1.351,1.806,3.519,-420.166,-182.373,33.569,-15.425,-3.774,-110.819
 14:51:06.426,eb:33:2e:f9:57:b5, 2085-97-123 244:70:21:9486,-0.728,2.313,3.925,-373.901,-138.733,46.448,-19.479,-5.202,-109.946
 14:51:06.430,eb:33:2e:f9:57:b5, 2085-97-136 255:00:32:7056,0.324,3.13,3.897,-319.397,3.174,45.166,-22.928,-5.696,-109.248
 14:51:06.430,eb:33:2e:f9:57:b5, 2085-97-21 04:99:46:3385,0.334,4.885,2.823,-284.485,119.08,1.587,-25.961,-4.867,-109.341
 14:51:06.430,eb:33:2e:f9:57:b5, 2085-97-212 254:132:47:-2664,-0.925,6.176,0.146,-173.218,-8.057,-84.045,-28.196,-4.417,-110.083
 14:51:06.430,eb:33:2e:f9:57:b5, 2085-97-64 244:165:36:-946,-1.896,5.207,-1.559,-20.691,-280.884,-140.442,-29.064,-6.416,-110.358
 14:51:06.449,eb:33:2e:f9:57:b5, 2085-97-150 237:41:30:5105,0.289,4.138,1.093,99.976,-354.614,-129.395,-28.641,-10.074,-109.907
 14:51:06.449,eb:33:2e:f9:57:b5, 2085-97-250 255:118:03:5828,-0.189,0.332,2.745,461.182,252.38,-68.848,37.029,22.352,-100.909
 14:51:06.449,eb:33:2e:f9:57:b5, 2085-113-58 00:147:229:-8130,-0.159,0.326,2.965,513.306,210.205,-78.491,42.297,24.62,-99.943
 14:51:06.449,eb:33:2e:f9:57:b5, 2085-97-51 01:212:01:4963,0.185,0.433,2.721,534.485,179.871,-85.022,45.099,25.604,-99.547
 14:51:06.511,eb:33:2e:f9:57:b5, 2085-97-254 00:03:255:4103,-0.079,0.098,2.073,575.623,100.769,-88.989,50.927,27.158,-99.064
 14:51:06.511,eb:33:2e:f9:57:b5, 2085-97-148 253:29:00:5820,-0.388,0.171,2.357,562.256,43.701,-108.948,56.602,28.306,-99.146
 14:51:06.511,eb:33:2e:f9:57:b5, 2085-97-197 253:223:254:6059,-0.042,-0.056,3.12,516.785,87.83,-124.084,61.952,29.636,-99.223
 14:51:06.511,eb:33:2e:f9:57:b5, 2085-97-204 01:97:253:4508,0.453,-0.075,2.648,441.04,133.301,-129.272,67.022,31.278,-98.674
 14:51:06.540,eb:33:2e:f9:57:b5, 2085-97-04 06:236:245:1183,0.899,-0.969,1.368,321.167,145.874,-115.173,71.395,32.959,-97.57
 14:51:06.540,eb:33:2e:f9:57:b5, 2085-97-178 05:101:245:-916,0.694,-1.031,0.185,192.993,122.07,-123.718,74.449,34.437,-96.471
 14:51:06.540,eb:33:2e:f9:57:b5, 2085-97-250 05:112:246:-3839,0.823,-1.377,-1.503,83.435,46.021,-118.408,76.207,35.843,-95.812
 14:51:06.540,eb:33:2e:f9:57:b5, 2085-97-139 04:148:246:-1121,0.298,-1.105,-1.246,-52.246,-58.411,-103.333,75.938,36.887,-96.35
 14:51:06.601,eb:33:2e:f9:57:b5, 2085-97-73 01:199:245:1062,0.096,-1.273,0.103,-114.99,-128.113,-70.068,74.097,37.463,-97.85
 14:51:06.601,eb:33:2e:f9:57:b5, 2085-97-118 00:131:246:1549,0.031,-1.229,0.702,-135.193,-150.696,-23.315,71.664,37.469,-99.745
 14:51:06.602,eb:33:2e:f9:57:b5, 2085-97-98 00:236:246:1308,0.083,-1.172,0.727,-142.883,-142.09,21.851,69.197,36.953,-101.492
 14:51:06.602,eb:33:2e:f9:57:b5, 2085-97-08 01:162:248:799,0.174,-1.039,0.512,-158.264,-123.962,58.411,66.912,36.063,-102.816
 14:51:06.630,eb:33:2e:f9:57:b5, 2085-97-155 01:245:249:456,0.236,-0.82,0.288,-185.486,-115.234,80.383,64.611,34.92,-103.782
 14:51:06.630,eb:33:2e:f9:57:b5, 2085-97-65 02:214:250:389,0.319,-0.702,0.191,-214.233,-121.887,88.989,62.144,33.624,-104.595
 14:51:06.630,eb:33:2e:f9:57:b5, 2085-97-196 02:124:251:482,0.35,-0.6,0.207,-237.427,-138.733,88.257,59.392,32.206,-105.436
 14:51:06.630,eb:33:2e:f9:57:b5, 2085-97-179 02:186:251:612,0.312,-0.543,0.263,-250.061,-162.048,81.604,56.437,30.685,-106.414
 14:51:06.661,eb:33:2e:f9:57:b5, 2085-97-78 02:208:251:838,0.252,-0.531,0.343,-256.042,-185.913,73.608,53.311,29.042,-107.562
 14:51:06.661,eb:33:2e:f9:57:b5, 2085-97-145 01:55:252:1197,0.123,-0.5,0.519,-261.292,-206.848,65.308,50.125,27.274,-108.836
 14:51:06.661,eb:33:2e:f9:57:b5, 2085-97-145 00:171:252:1289,0.039,-0.442,0.596,-266.113,-223.267,57.8,46.873,25.378,-110.193
 14:51:06.661,eb:33:2e:f9:57:b5, 2085-97-254 255:211:252:1692,-0.044,-0.405,0.717,-272.766,-238.159,48.706,43.599,23.368,-111.594
 14:51:06.720,eb:33:2e:f9:57:b5, 2085-97-60 255:59:253:2118,-0.143,-0.377,0.941,-280.151,-242.31,38.452,40.281,21.281,-113
 14:51:06.720,eb:33:2e:f9:57:b5, 2085-97-102 254:202:253:2465,-0.238,-0.308,1.124,-284.18,-241.76,27.039,36.985,19.188,-114.346
 14:51:06.720,eb:33:2e:f9:57:b5, 2085-97-195 253:107:254:2741,-0.34,-0.234,1.279,-283.508,-238.342,14.893,33.728,17.1,-115.637
 14:51:06.720,eb:33:2e:f9:57:b5, 2085-97-238 252:203:254:2847,-0.427,-0.173,1.358,-280.212,-230.713,3.662,30.569,15.073,-116.862
 14:51:06.720,eb:33:2e:f9:57:b5, 2085-97-81 252:246:254:3035,-0.5,-0.139,1.426,-275.269,-220.093,-5.676,27.493,13.107,-118.01
 14:51:06.750,eb:33:2e:f9:57:b5, 2085-113-58 00:103:228:-8100,-0.541,-0.135,1.541,-270.02,-204.773,-12.268,24.554,11.245,-119.053
 14:51:06.750,eb:33:2e:f9:57:b5, 2085-97-82 251:153:254:3282,-0.601,-0.15,1.586,-268.616,-195.435,-14.221,23.099,10.355,-119.526
 14:51:06.750,eb:33:2e:f9:57:b5, 2085-97-37 251:65:254:3337,-0.612,-0.198,1.623,-269.165,-175.659,-14.893,20.275,8.696,-120.361
 14:51:06.750,eb:33:2e:f9:57:b5, 2085-97-33 251:42:254:3465,-0.602,-0.231,1.645,-270.569,-159.363,-12.695,17.457,7.163,-121.042
 14:51:06.900,eb:33:2e:f9:57:b5, 2085-97-68 251:118:254:3699,-0.581,-0.217,1.753,-269.958,-147.827,-10.071,14.694,5.724,-121.575
 14:51:06.900,eb:33:2e:f9:57:b5, 2085-97-115 251:247:254:3835,-0.57,-0.159,1.844,-267.517,-142.09,-9.521,11.948,4.34,-122.003
 14:51:06.900,eb:33:2e:f9:57:b5, 2085-97-78 251:96:255:3945,-0.601,-0.104,1.893,-266.724,-143.494,-10.437,9.256,2.961,-122.366
 14:51:06.900,eb:33:2e:f9:57:b5, 2085-97-37 251:248:255:4194,-0.615,-0.044,1.979,-272.705,-145.691,-11.047,6.526,1.533,-122.673
 14:51:06.902,eb:33:2e:f9:57:b5, 2085-97-05 251:200:00:4399,-0.637,0.042,2.102,-289.001,-145.081,-13.611,3.713,0.093,-122.926
 14:51:06.902,eb:33:2e:f9:57:b5, 2085-97-173 250:233:01:4763,-0.685,0.159,2.219,-309.387,-143.555,-18.372,0.687,-1.34,-123.146
 14:51:06.902,eb:33:2e:f9:57:b5, 2085-97-65 250:50:03:5108,-0.76,0.314,2.418,-324.28,-140.015,-25.635,-2.483,-2.758,-123.349
 14:51:06.902,eb:33:2e:f9:57:b5, 2085-97-100 249:208:04:5285,-0.903,0.491,2.55,-327.942,-138.855,-33.203,-5.768,-4.169,-123.541
 14:51:07.051,eb:33:2e:f9:57:b5, 2085-97-12 248:113:06:5363,-1.097,0.707,2.603,-321.838,-143.127,-40.405,-9.003,-5.614,-123.734
 14:51:07.051,eb:33:2e:f9:57:b5, 2085-97-84 246:96:08:5402,-1.298,0.917,2.638,-309.326,-146.057,-43.152,-12.162,-7.119,-123.876
 14:51:07.051,eb:33:2e:f9:57:b5, 2085-97-49 245:128:11:5270,-1.268,1.208,2.63,-290.955,-135.925,-45.105,-15.145,-8.602,-123.97
 14:51:07.051,eb:33:2e:f9:57:b5, 2085-97-66 248:64:18:5337,-0.636,1.803,2.498,-271.729,-94.36,-54.993,-17.935,-9.871,-124.107
 14:51:07.051,eb:33:2e:f9:57:b5, 2085-97-57 253:130:27:5231,-0.19,2.837,2.726,-258.972,15.198,-81.116,-20.5,-10.453,-124.629
 14:51:07.051,eb:33:2e:f9:57:b5, 2085-97-130 254:184:34:2178,-0.416,3.992,1.955,-206.421,70.19,-134.277,-22.632,-10.311,-125.87
 14:51:07.051,eb:33:2e:f9:57:b5, 2085-97-174 248:184:31:-1044,-1.479,4.353,0.093,-107.361,-41.809,-192.322,-23.873,-10.783,-127.507
 14:51:07.051,eb:33:2e:f9:57:b5, 2085-97-202 240:157:22:1342,-2.3,3.353,-0.194,-9.644,-190.491,-210.449,-24.109,-12.827,-128.897
 14:51:07.053,eb:33:2e:f9:57:b5, 2085-97-203 234:160:15:4878,-2.923,2.375,1.557,49.5,-191.711,-172.791,-23.61,-15.469,-129.864
 14:51:07.053,eb:33:2e:f9:57:b5, 2085-97-127 223:255:244:19503,-2.411,1.549,2.917,70.007,-49.744,-102.539,-22.747,-17.133,-130.655
 14:51:07.053,eb:33:2e:f9:57:b5, 2085-97-139 254:103:00:2459,1.016,1.84,1.1,167.297,313.599,-13.672,-20.94,-15.392,-131.534
 14:51:07.053,eb:33:2e:f9:57:b5, 2085-97-108 08:198:247:1188,0.588,-1.057,-0.311,149.658,300.232,76.172,-19.182,-12.524,-132.286
 14:51:07.055,eb:33:2e:f9:57:b5, 2085-97-230 04:253:244:1239,0.231,-0.923,0.745,197.876,281.433,110.962,-17.496,-9.245,-132.209
 14:51:07.055,eb:33:2e:f9:57:b5, 2085-97-11 254:237:250:1434,-0.472,-0.864,0.783,266.479,206.299,101.257,-15.178,-6.625,-131.858
 14:51:07.055,eb:33:2e:f9:57:b5, 2085-97-02 251:141:254:1888,-0.597,-0.315,0.928,296.082,144.775,70.068,-12.332,-4.768,-131.418
 14:51:07.055,eb:33:2e:f9:57:b5, 2085-97-121 251:63:02:2718,-0.447,0.177,1.211,278.076,115.234,30.762,-9.448,-3.411,-131.177
 14:51:07.261,eb:33:2e:f9:57:b5, 2085-97-61 254:134:03:2742,-0.159,0.305,1.261,238.831,91.125,-12.146,-6.877,-2.362,-131.254
 14:51:07.261,eb:33:2e:f9:57:b5, 2085-97-53 255:71:02:2444,-0.095,0.382,1.273,187.744,60.12,-39.368,-4.752,-1.631,-131.622
 14:51:07.261,eb:33:2e:f9:57:b5, 2085-97-158 255:206:00:2202,-0.025,0.161,1.096,145.02,36.011,-39.978,-3.104,-1.208,-132.072
 14:51:07.261,eb:33:2e:f9:57:b5, 2085-97-10 00:86:00:2201,-0.029,0.028,1.07,109.497,25.208,-18.433,-1.846,-0.928,-132.374
 14:51:07.265,eb:33:2e:f9:57:b5, 2085-97-129 255:92:01:1997,-0.107,0.129,1.011,77.881,22.217,-2.747,-0.928,-0.687,-132.468
 14:51:07.265,eb:33:2e:f9:57:b5, 2085-97-28 255:205:01:1838,-0.079,0.257,0.946,54.199,18.311,-2.197,-0.275,-0.472,-132.479
 14:51:07.265,eb:33:2e:f9:57:b5, 2085-97-44 255:216:00:1877,-0.102,0.152,0.939,36.499,12.695,-6.165,0.154,-0.335,-132.523
 14:51:07.265,eb:33:2e:f9:57:b5, 2085-97-54 255:137:00:1904,-0.109,0.091,0.913,20.203,10.132,-1.77,0.434,-0.203,-132.567
 14:51:07.267,eb:33:2e:f9:57:b5, 2085-97-76 255:82:00:1957,-0.091,0.056,0.922,8.789,9.705,1.404,0.566,-0.093,-132.561
 14:51:07.267,eb:33:2e:f9:57:b5, 2085-97-31 255:54:00:1897,-0.089,0.029,0.952,6.653,8.301,-1.404,0.643,0.005,-132.556
 14:51:07.267,eb:33:2e:f9:57:b5, 2085-97-142 255:21:00:2066,-0.065,0.026,0.962,3.662,2.625,-2.014,0.698,0.049,-132.578
 14:51:07.267,eb:33:2e:f9:57:b5, 2085-97-101 255:54:00:1996,-0.088,0.024,0.975,1.221,5.005,-0.732,0.725,0.115,-132.589
 14:51:07.269,eb:33:2e:f9:57:b5, 2085-97-78 255:04:00:1979,-0.083,0.01,0.965,0.732,1.831,-2.136,0.736,0.143,-132.605
 14:51:07.269,eb:33:2e:f9:57:b5, 2085-97-89 255:245:255:1987,-0.071,-0.003,0.973,0.732,-0.793,-1.282,0.747,0.165,-132.627
 14:51:07.269,eb:33:2e:f9:57:b5, 2085-97-109 255:251:255:2020,-0.064,-0.003,0.983,1.221,-4.15,0.244,0.758,0.137,-132.627
 14:51:07.269,eb:33:2e:f9:57:b5, 2085-97-130 255:233:255:2050,-0.06,-0.009,0.995,2.625,-6.592,1.892,0.78,0.093,-132.616
 14:51:07.271,eb:33:2e:f9:57:b5, 2085-97-151 255:237:255:2067,-0.038,-0.015,1.007,4.517,-8.423,3.479,0.818,0.022,-132.594
 14:51:07.271,eb:33:2e:f9:57:b5, 2085-97-188 255:23:00:2075,-0.032,0,1.016,6.165,-8.606,5.005,0.879,-0.049,-132.55
 14:51:07.271,eb:33:2e:f9:57:b5, 2085-97-195 255:34:00:2048,-0.03,0.017,1.007,6.531,-5.981,4.517,0.945,-0.121,-132.501
 14:51:07.271,eb:33:2e:f9:57:b5, 2085-97-202 255:40:00:2055,-0.025,0.017,1.002,6.104,-3.357,4.211,1.016,-0.154,-132.457
 14:51:07.320,eb:33:2e:f9:57:b5, 2085-97-203 255:51:00:2052,-0.009,0.023,1,5.493,-0.427,3.54,1.077,-0.17,-132.418
 14:51:07.320,eb:33:2e:f9:57:b5, 2085-97-201 255:80:00:2064,-0.035,0.047,1.016,8.545,14.404,-0.977,1.675,0.401,-132.116
 14:51:07.320,eb:33:2e:f9:57:b5, 2085-97-186 255:76:00:2071,-0.027,0.029,1.014,9.827,15.93,-3.174,1.769,0.555,-132.133
 14:51:07.320,eb:33:2e:f9:57:b5, 2085-97-227 255:86:00:2141,-0.018,0.034,1.026,11.292,18.066,-5.31,1.879,0.742,-132.171
 14:51:07.380,eb:33:2e:f9:57:b5, 2085-97-214 255:68:00:2153,-0.044,0.038,1.048,12.634,23.743,-7.874,2,0.956,-132.231
 14:51:07.380,eb:33:2e:f9:57:b5, 2085-97-158 255:65:00:2122,-0.067,0.034,1.031,14.099,28.564,-9.155,2.137,1.241,-132.308
 14:51:07.380,eb:33:2e:f9:57:b5, 2085-97-60 255:51:00:2007,-0.094,0.027,1.017,14.893,32.043,-9.277,2.285,1.555,-132.391
 14:51:07.380,eb:33:2e:f9:57:b5, 2085-97-45 255:42:00:2059,-0.099,0.027,0.983,14.282,29.358,-7.263,2.433,1.873,-132.457
 14:51:07.560,eb:33:2e:f9:57:b5, 2085-97-64 255:78:00:1992,-0.068,0.032,0.979,13.428,28.137,-4.395,2.576,2.164,-132.501
 14:51:07.560,eb:33:2e:f9:57:b5, 2085-97-148 255:132:00:2042,0.042,0.053,1,12.329,27.405,-3.357,2.708,2.45,-132.523
 14:51:07.560,eb:33:2e:f9:57:b5, 2085-113-81 00:100:51:1036,0.072,0.125,0.965,11.597,25.146,-6.775,2.829,2.714,-132.556
 14:51:07.560,eb:33:2e:f9:57:b5, 2085-97-159 255:116:00:2093,-0.026,0.149,0.946,9.033,25.818,-9.583,2.878,2.845,-132.594
 14:51:07.562,eb:33:2e:f9:57:b5, 2085-97-247 254:05:00:2440,-0.305,0.064,1.119,12.878,27.039,-11.963,2.983,3.12,-132.687
 14:51:07.562,eb:33:2e:f9:57:b5, 2085-97-137 253:228:254:2859,-0.291,-0.135,1.367,32.349,21.301,-8.301,3.192,3.389,-132.786
 14:51:07.562,eb:33:2e:f9:57:b5, 2085-97-171 253:149:255:2185,-0.302,-0.084,1.183,53.162,9.46,0.977,3.653,3.56,-132.808
 14:51:07.562,eb:33:2e:f9:57:b5, 2085-97-92 254:179:255:2671,-0.142,-0.064,1.159,59.326,-2.991,9.46,4.219,3.571,-132.748
