Time,Device name,Chip Time(),Acceleration X(g),Acceleration Y(g),Acceleration Z(g),Angular velocity X(°/s),Angular velocity Y(°/s),Angular velocity Z(°/s),ShiftX(mm),ShiftY(mm),ShiftZ(mm),SpeedX(mm/s),SpeedY(mm/s),SpeedZ(mm/s),Angle X(°),Angle Y(°),Angle Z(°)
 09:16:30.537,eb:33:2e:f9:57:b5, 2015-01-01 00:09:01.315,-0.005,0,0.993,0.061,-0.061,0, , , , , , ,0.016,0.439,-115.955
 09:16:30.537,eb:33:2e:f9:57:b5, 2015-01-01 00:09:01.315,-0.006,-0.001,0.992,0,-0.061,0, , , , , , ,0.016,0.439,-115.955
 09:16:30.537,eb:33:2e:f9:57:b5, 2015-01-01 00:09:01.315,-0.005,-0.002,0.993,0,-0.183,0, , , , , , ,0.016,0.439,-115.955
 09:16:30.537,eb:33:2e:f9:57:b5, 2015-01-01 00:09:01.315,-0.004,-0.002,0.994,-0.061,-0.183,0, , , , , , ,0.016,0.439,-115.955
 09:16:30.537,eb:33:2e:f9:57:b5, 2015-01-01 00:09:01.315,-0.004,-0.003,0.996,-0.061,-0.122,0, , , , , , ,0.016,0.439,-115.955
 09:16:30.537,eb:33:2e:f9:57:b5, 2015-01-01 00:09:01.315,-0.007,-0.003,0.995,0,-0.122,0, , , , , , ,0.016,0.439,-115.955
 09:16:30.537,eb:33:2e:f9:57:b5, 2015-01-01 00:09:01.315,-0.006,-0.002,0.993,0,-0.122,-0.061, , , , , , ,0.016,0.439,-115.955
 09:16:30.537,eb:33:2e:f9:57:b5, 2015-01-01 00:09:01.315,-0.004,-0.003,0.993,0,-0.244,0, , , , , , ,0.016,0.439,-115.955
 09:16:30.582,eb:33:2e:f9:57:b5, 2015-01-01 00:09:01.315,-0.002,-0.003,0.996,0,-0.305,0, , , , , , ,0.016,0.439,-115.955
 09:16:30.582,eb:33:2e:f9:57:b5, 2015-01-01 00:09:01.315,-0.001,-0.004,0.998,0.061,-0.122,0, , , , , , ,0.016,0.439,-115.955
 09:16:30.582,eb:33:2e:f9:57:b5, 2015-01-01 00:09:01.315,-0.002,-0.004,0.998,0.061,0,0, , , , , , ,0.016,0.439,-115.955
 09:16:30.582,eb:33:2e:f9:57:b5, 2015-01-01 00:09:01.315,-0.003,-0.003,0.997,0.122,0.061,0, , , , , , ,0.016,0.439,-115.955
 09:16:30.582,eb:33:2e:f9:57:b5, 2015-01-01 00:09:01.315,-0.003,-0.002,0.996,0.183,0.061,0.061, , , , , , ,0.016,0.439,-115.955
 09:16:30.582,eb:33:2e:f9:57:b5, 2015-01-01 00:09:01.315,-0.002,-0.003,0.996,0.244,0.061,0, , , , , , ,0.016,0.439,-115.955
 09:16:30.582,eb:33:2e:f9:57:b5, 2015-01-01 00:09:01.315,-0.004,-0.003,0.996,0.183,0.183,0, , , , , , ,0.016,0.439,-115.955
 09:16:30.582,eb:33:2e:f9:57:b5, 2015-01-01 00:09:01.315,-0.005,-0.002,0.994,0.183,0.183,0, , , , , , ,0.016,0.439,-115.955
 09:16:30.628,eb:33:2e:f9:57:b5, 2015-01-01 00:09:01.315,-0.006,-0.001,0.993,0.122,0.122,0, , , , , , ,0.016,0.439,-115.955
 09:16:30.628,eb:33:2e:f9:57:b5, 2015-01-01 00:09:01.315,-0.005,-0.001,0.993,0.122,0.061,0, , , , , , ,0.016,0.439,-115.955
 09:16:30.628,eb:33:2e:f9:57:b5, 2015-01-01 00:09:01.315,-0.004,-0.002,0.994,0.061,0,0, , , , , , ,0.011,0.434,-115.955
 09:16:30.628,eb:33:2e:f9:57:b5, 2015-01-01 00:09:01.315,-0.004,-0.002,0.994,0.061,0,0, , , , , , ,0.011,0.434,-115.955
 09:16:30.628,eb:33:2e:f9:57:b5, 2015-01-01 00:09:01.315,-0.005,0,0.993,0,0,0, , , , , , ,0.016,0.434,-115.955
 09:16:30.628,eb:33:2e:f9:57:b5, 2015-01-01 00:09:01.315,-0.005,-0.001,0.993,0,0,0, , , , , , ,0.016,0.434,-115.955
 09:16:30.628,eb:33:2e:f9:57:b5, 2015-01-01 00:09:01.315,-0.004,-0.003,0.994,-0.122,0,0, , , , , , ,0.011,0.434,-115.955
 09:16:30.628,eb:33:2e:f9:57:b5, 2015-01-01 00:09:01.315,-0.003,-0.003,0.994,-0.061,0,0, , , , , , ,0.011,0.434,-115.955
 09:16:30.673,eb:33:2e:f9:57:b5, 2015-01-01 00:09:01.315,-0.005,-0.002,0.995,-0.061,0,0, , , , , , ,0.011,0.434,-115.955
 09:16:30.673,eb:33:2e:f9:57:b5, 2015-01-01 00:09:01.315,-0.005,-0.001,0.995,-0.122,0,0, , , , , , ,0.011,0.434,-115.955
 09:16:30.673,eb:33:2e:f9:57:b5, 2015-01-01 00:09:01.315,-0.006,-0.002,0.995,-0.122,0,0, , , , , , ,0.011,0.434,-115.961
 09:16:30.673,eb:33:2e:f9:57:b5, 2015-01-01 00:09:01.315,-0.006,-0.003,0.995,-0.061,0,0, , , , , , ,0.011,0.434,-115.961
 09:16:30.673,eb:33:2e:f9:57:b5, 2015-01-01 00:09:01.315,-0.004,-0.002,0.995,-0.061,-0.061,0, , , , , , ,0.011,0.434,-115.961
 09:16:30.673,eb:33:2e:f9:57:b5, 2015-01-01 00:09:01.315,-0.003,-0.003,0.997,-0.061,0,0, , , , , , ,0.011,0.434,-115.961
 09:16:30.673,eb:33:2e:f9:57:b5, 2015-01-01 00:09:01.315,0.002,-0.004,0.999,0,0,-0.061, , , , , , ,0.011,0.434,-115.961
 09:16:30.673,eb:33:2e:f9:57:b5, 2015-01-01 00:09:01.315,0.005,-0.003,1.003,0.122,0.305,-0.061, , , , , , ,0.011,0.434,-115.961
 09:16:30.717,eb:33:2e:f9:57:b5, 2015-01-01 00:09:01.605,-0.005,-0.005,1.004,0.427,0.732,-0.061, , , , , , ,0.011,0.434,-115.961
 09:16:30.717,eb:33:2e:f9:57:b5, 2015-01-01 00:09:01.605,-0.012,-0.004,0.996,0.427,0.793,0, , , , , , ,0.011,0.434,-115.961
 09:16:30.717,eb:33:2e:f9:57:b5, 2015-01-01 00:09:01.605,-0.012,-0.002,0.991,0.366,0.427,-0.061, , , , , , ,0.011,0.434,-115.961
 09:16:30.717,eb:33:2e:f9:57:b5, 2015-01-01 00:09:01.605,-0.006,-0.002,0.991,0.305,0.122,-0.061, , , , , , ,0.011,0.434,-115.961
 09:16:30.717,eb:33:2e:f9:57:b5, 2015-01-01 00:09:01.605,-0.002,-0.004,0.996,0.427,0,0, , , , , , ,0.011,0.434,-115.961
 09:16:30.717,eb:33:2e:f9:57:b5, 2015-01-01 00:09:01.605,-0.003,-0.005,0.999,0.488,0.122,0, , , , , , ,0.011,0.434,-115.961
 09:16:30.717,eb:33:2e:f9:57:b5, 2015-01-01 00:09:01.605,-0.007,-0.004,0.997,0.61,0.183,0, , , , , , ,0.011,0.434,-115.961
 09:16:30.718,eb:33:2e:f9:57:b5, 2015-01-01 00:09:01.605,-0.008,-0.003,0.994,0.61,0.061,0, , , , , , ,0.011,0.434,-115.961
 09:16:30.740,eb:33:2e:f9:57:b5, 2015-01-01 00:09:01.605,-0.005,-0.002,0.993,0.549,0,0, , , , , , ,0.011,0.434,-115.961
 09:16:30.740,eb:33:2e:f9:57:b5, 2015-01-01 00:09:01.605,-0.003,-0.002,0.994,0.549,-0.061,0, , , , , , ,0.011,0.434,-115.961
 09:16:30.740,eb:33:2e:f9:57:b5, 2015-01-01 00:09:01.605,-0.002,-0.002,0.996,0.488,0,0, , , , , , ,0.005,0.428,-115.961
 09:16:30.740,eb:33:2e:f9:57:b5, 2015-01-01 00:09:01.605,-0.002,-0.002,0.996,0.488,0,0, , , , , , ,0.005,0.428,-115.961
 09:16:30.740,eb:33:2e:f9:57:b5, 2015-01-01 00:09:01.605,-0.004,-0.002,0.995,0.488,0.122,0, , , , , , ,0.005,0.428,-115.961
 09:16:30.740,eb:33:2e:f9:57:b5, 2015-01-01 00:09:01.605,-0.006,-0.001,0.993,0.427,0.122,0, , , , , , ,0.005,0.428,-115.961
 09:16:30.740,eb:33:2e:f9:57:b5, 2015-01-01 00:09:01.605,-0.006,-0.001,0.993,0.366,0.061,0.061, , , , , , ,0.005,0.428,-115.961
 09:16:30.740,eb:33:2e:f9:57:b5, 2015-01-01 00:09:01.605,-0.003,-0.002,0.995,0.366,0,0, , , , , , ,0.005,0.428,-115.961
 09:16:30.785,eb:33:2e:f9:57:b5, 2015-01-01 00:09:01.605,-0.002,-0.001,0.996,0.427,0.061,0, , , , , , ,0.005,0.428,-115.961
 09:16:30.785,eb:33:2e:f9:57:b5, 2015-01-01 00:09:01.605,-0.004,-0.001,0.995,0.427,0.122,0, , , , , , ,0.005,0.428,-115.961
 09:16:30.785,eb:33:2e:f9:57:b5, 2015-01-01 00:09:01.605,-0.005,-0.001,0.995,0.427,0.183,0, , , , , , ,0.005,0.428,-115.961
 09:16:30.785,eb:33:2e:f9:57:b5, 2015-01-01 00:09:01.605,-0.005,-0.001,0.994,0.305,0.122,0, , , , , , ,0.005,0.428,-115.961
 09:16:30.785,eb:33:2e:f9:57:b5, 2015-01-01 00:09:01.605,-0.004,-0.001,0.993,0.366,0.061,0, , , , , , ,0.005,0.428,-115.961
 09:16:30.785,eb:33:2e:f9:57:b5, 2015-01-01 00:09:01.605,-0.004,-0.002,0.994,0.366,0,0, , , , , , ,0.005,0.428,-115.961
 09:16:30.785,eb:33:2e:f9:57:b5, 2015-01-01 00:09:01.605,-0.004,-0.001,0.995,0.366,0,0, , , , , , ,0.005,0.428,-115.961
 09:16:30.785,eb:33:2e:f9:57:b5, 2015-01-01 00:09:01.605,-0.006,-0.001,0.994,0.305,0.061,0, , , , , , ,0.005,0.428,-115.961
 09:16:30.830,eb:33:2e:f9:57:b5, 2015-01-01 00:09:01.605,-0.005,0,0.993,0.305,0.061,-0.061, , , , , , ,0.005,0.428,-115.961
 09:16:30.830,eb:33:2e:f9:57:b5, 2015-01-01 00:09:01.605,-0.004,-0.002,0.994,0.305,0,0, , , , , , ,0.005,0.428,-115.961
 09:16:30.830,eb:33:2e:f9:57:b5, 2015-01-01 00:09:01.605,-0.003,-0.001,0.996,0.244,0.061,0, , , , , , ,0.005,0.428,-115.961
 09:16:30.830,eb:33:2e:f9:57:b5, 2015-01-01 00:09:01.605,-0.004,-0.001,0.996,0.305,0.061,0, , , , , , ,0.005,0.428,-115.961
 09:16:30.830,eb:33:2e:f9:57:b5, 2015-01-01 00:09:01.605,-0.004,-0.001,0.996,0.305,0.122,0, , , , , , ,0.005,0.428,-115.961
 09:16:30.830,eb:33:2e:f9:57:b5, 2015-01-01 00:09:01.605,-0.004,-0.002,0.996,0.305,0.122,0, , , , , , ,0.005,0.428,-115.961
 09:16:30.830,eb:33:2e:f9:57:b5, 2015-01-01 00:09:01.605,-0.005,-0.002,0.998,0.427,0.183,0, , , , , , ,0.005,0.428,-115.966
 09:16:30.830,eb:33:2e:f9:57:b5, 2015-01-01 00:09:01.605,-0.003,-0.003,0.996,0.427,0.183,0, , , , , , ,0.005,0.428,-115.966
 09:16:30.876,eb:33:2e:f9:57:b5, 2015-01-01 00:09:01.605,-0.005,0,0.995,0.427,0.244,0, , , , , , ,0.005,0.428,-115.966
 09:16:30.876,eb:33:2e:f9:57:b5, 2015-01-01 00:09:01.605,-0.005,0,0.994,0.366,0.183,0, , , , , , ,0.005,0.428,-115.966
 09:16:30.876,eb:33:2e:f9:57:b5, 2015-01-01 00:09:01.605,-0.006,-0.002,0.995,0.427,0.183,0, , , , , , ,0.005,0.423,-115.966
 09:16:30.876,eb:33:2e:f9:57:b5, 2015-01-01 00:09:01.605,-0.004,-0.002,0.995,0.427,0.061,0.061, , , , , , ,0.005,0.423,-115.966
 09:16:30.876,eb:33:2e:f9:57:b5, 2015-01-01 00:09:01.605,-0.004,-0.001,0.994,0.366,0.061,0.061, , , , , , ,0.005,0.423,-115.966
 09:16:30.876,eb:33:2e:f9:57:b5, 2015-01-01 00:09:01.605,-0.006,0,0.994,0.305,0.122,0, , , , , , ,0.005,0.423,-115.966
 09:16:30.876,eb:33:2e:f9:57:b5, 2015-01-01 00:09:01.605,-0.004,-0.001,0.992,0.366,0.061,0, , , , , , ,0,0.423,-115.966
 09:16:30.876,eb:33:2e:f9:57:b5, 2015-01-01 00:09:01.605,-0.005,-0.002,0.993,0.305,0.122,0, , , , , , ,0,0.423,-115.966
 09:16:30.897,eb:33:2e:f9:57:b5, 2015-01-01 00:09:01.605,-0.005,-0.002,0.994,0.305,0.061,0.061, , , , , , ,0,0.423,-115.966
 09:16:30.897,eb:33:2e:f9:57:b5, 2015-01-01 00:09:01.605,-0.004,-0.002,0.995,0.366,0.061,0, , , , , , ,0,0.423,-115.966
 09:16:30.897,eb:33:2e:f9:57:b5, 2015-01-01 00:09:01.605,-0.006,-0.002,0.997,0.305,0.061,0, , , , , , ,0,0.423,-115.966
 09:16:30.897,eb:33:2e:f9:57:b5, 2015-01-01 00:09:01.605,-0.006,0,0.995,0.305,0.061,0, , , , , , ,0,0.423,-115.966
 09:16:30.897,eb:33:2e:f9:57:b5, 2015-01-01 00:09:01.605,-0.006,0,0.994,0.305,0.061,0, , , , , , ,0,0.423,-115.966
 09:16:30.897,eb:33:2e:f9:57:b5, 2015-01-01 00:09:01.605,-0.005,0,0.993,0.244,0.061,0, , , , , , ,0,0.423,-115.966
 09:16:30.897,eb:33:2e:f9:57:b5, 2015-01-01 00:09:01.605,-0.004,0,0.993,0.244,0.061,0, , , , , , ,0,0.423,-115.966
 09:16:30.897,eb:33:2e:f9:57:b5, 2015-01-01 00:09:01.605,-0.004,0,0.994,0.244,0,0, , , , , , ,0,0.423,-115.966
 09:16:30.941,eb:33:2e:f9:57:b5, 2015-01-01 00:09:01.605,-0.004,0,0.994,0.183,0,0, , , , , , ,0,0.423,-115.966
 09:16:30.943,eb:33:2e:f9:57:b5, 2015-01-01 00:09:01.605,-0.004,0,0.994,0.122,0,0, , , , , , ,0,0.423,-115.966
 09:16:30.943,eb:33:2e:f9:57:b5, 2015-01-01 00:09:01.605,-0.004,0,0.995,0.122,0.122,-0.061, , , , , , ,0,0.423,-115.966
 09:16:30.943,eb:33:2e:f9:57:b5, 2015-01-01 00:09:01.605,-0.005,0,0.995,0.122,0.122,0, , , , , , ,0,0.423,-115.966
 09:16:30.943,eb:33:2e:f9:57:b5, 2015-01-01 00:09:01.605,-0.003,-0.001,0.995,0.122,0.061,0, , , , , , ,0,0.423,-115.966
 09:16:30.943,eb:33:2e:f9:57:b5, 2015-01-01 00:09:01.605,-0.003,-0.001,0.996,0.183,0.122,0, , , , , , ,0,0.423,-115.966
 09:16:30.943,eb:33:2e:f9:57:b5, 2015-01-01 00:09:01.605,-0.003,-0.002,0.998,0.305,0.122,0, , , , , , ,0,0.423,-115.966
 09:16:30.943,eb:33:2e:f9:57:b5, 2015-01-01 00:09:01.605,-0.005,-0.002,0.998,0.305,0.244,0.061, , , , , , ,0,0.423,-115.966
 09:16:30.988,eb:33:2e:f9:57:b5, 2015-01-01 00:09:01.605,-0.004,-0.002,0.997,0.366,0.244,0, , , , , , ,0,0.423,-115.966
 09:16:30.988,eb:33:2e:f9:57:b5, 2015-01-01 00:09:01.605,-0.002,-0.001,0.996,0.427,0.244,0.061, , , , , , ,0,0.423,-115.966
 09:16:30.988,eb:33:2e:f9:57:b5, 2015-01-01 00:09:01.605,-0.003,-0.001,0.997,0.488,0.305,0, , , , , , ,0,0.423,-115.966
 09:16:30.988,eb:33:2e:f9:57:b5, 2015-01-01 00:09:01.605,-0.001,-0.001,0.996,0.488,0.427,0, , , , , , ,0,0.423,-115.966
 09:16:30.988,eb:33:2e:f9:57:b5, 2015-01-01 00:09:01.605,-0.011,-0.001,0.998,0.61,0.61,-0.061, , , , , , ,0,0.423,-115.966
 09:16:30.988,eb:33:2e:f9:57:b5, 2015-01-01 00:09:01.605,-0.003,-0.002,0.992,0.549,0.305,0, , , , , , ,0,0.423,-115.966
 09:16:30.988,eb:33:2e:f9:57:b5, 2015-01-01 00:09:01.605,-0.004,-0.002,0.997,0.488,0.488,0, , , , , , ,0,0.417,-115.966
 09:16:30.988,eb:33:2e:f9:57:b5, 2015-01-01 00:09:01.605,-0.005,-0.002,0.998,0.61,0.549,0, , , , , , ,0,0.417,-115.966
 09:16:31.032,eb:33:2e:f9:57:b5, 2015-01-01 00:09:01.920,-0.005,-0.002,0.998,0.671,0.61,0, , , , , , ,0,0.417,-115.966
 09:16:31.032,eb:33:2e:f9:57:b5, 2015-01-01 00:09:01.920,-0.006,-0.001,0.998,0.732,0.671,0, , , , , , ,0,0.417,-115.966
 09:16:31.032,eb:33:2e:f9:57:b5, 2015-01-01 00:09:01.920,-0.006,0,0.995,0.732,0.61,0, , , , , , ,0,0.417,-115.966
 09:16:31.032,eb:33:2e:f9:57:b5, 2015-01-01 00:09:01.920,-0.005,-0.001,0.995,0.793,0.549,0, , , , , , ,0,0.417,-115.966
 09:16:31.032,eb:33:2e:f9:57:b5, 2015-01-01 00:09:01.920,-0.005,-0.002,0.996,0.854,0.549,0.061, , , , , , ,0,0.417,-115.966
 09:16:31.032,eb:33:2e:f9:57:b5, 2015-01-01 00:09:01.920,-0.004,-0.001,0.996,0.916,0.61,0, , , , , , ,0,0.417,-115.966
 09:16:31.032,eb:33:2e:f9:57:b5, 2015-01-01 00:09:01.920,-0.007,0,0.995,0.977,0.549,-0.061, , , , , , ,0,0.417,-115.966
 09:16:31.032,eb:33:2e:f9:57:b5, 2015-01-01 00:09:01.920,-0.008,0.002,0.992,0.854,0.549,-0.061, , , , , , ,0,0.417,-115.966
 09:16:31.055,eb:33:2e:f9:57:b5, 2015-01-01 00:09:01.920,-0.005,0,0.992,0.793,0.488,0, , , , , , ,0,0.417,-115.966
 09:16:31.055,eb:33:2e:f9:57:b5, 2015-01-01 00:09:01.920,-0.007,0,0.992,0.793,0.427,0, , , , , , ,0,0.417,-115.966
 09:16:31.055,eb:33:2e:f9:57:b5, 2015-01-01 00:09:01.920,-0.006,0.001,0.992,0.732,0.366,-0.061, , , , , , ,0,0.417,-115.966
 09:16:31.055,eb:33:2e:f9:57:b5, 2015-01-01 00:09:01.920,-0.004,0,0.993,0.671,0.305,-0.061, , , , , , ,0,0.417,-115.966
 09:16:31.055,eb:33:2e:f9:57:b5, 2015-01-01 00:09:01.920,-0.004,0,0.995,0.732,0.366,-0.061, , , , , , ,0,0.417,-115.966
 09:16:31.055,eb:33:2e:f9:57:b5, 2015-01-01 00:09:01.920,-0.005,0,0.995,0.732,0.427,0, , , , , , ,0,0.417,-115.966
 09:16:31.055,eb:33:2e:f9:57:b5, 2015-01-01 00:09:01.920,-0.005,0,0.997,0.793,0.488,0, , , , , , ,0,0.417,-115.966
 09:16:31.055,eb:33:2e:f9:57:b5, 2015-01-01 00:09:01.920,-0.003,-0.001,0.997,0.854,0.549,-0.061, , , , , , ,0,0.417,-115.966
 09:16:31.100,eb:33:2e:f9:57:b5, 2015-01-01 00:09:01.920,-0.003,-0.001,0.999,0.977,0.671,0, , , , , , ,0,0.417,-115.966
 09:16:31.101,eb:33:2e:f9:57:b5, 2015-01-01 00:09:01.920,-0.006,0,0.998,1.038,0.793,-0.061, , , , , , ,0,0.417,-115.966
 09:16:31.101,eb:33:2e:f9:57:b5, 2015-01-01 00:09:01.920,-0.008,0.002,0.995,1.099,0.793,-0.122, , , , , , ,0,0.417,-115.972
 09:16:31.101,eb:33:2e:f9:57:b5, 2015-01-01 00:09:01.920,-0.005,0,0.993,1.038,0.732,-0.061, , , , , , ,0,0.417,-115.972
 09:16:31.101,eb:33:2e:f9:57:b5, 2015-01-01 00:09:01.920,-0.003,-0.001,0.996,1.099,0.732,-0.061, , , , , , ,0,0.417,-115.972
 09:16:31.101,eb:33:2e:f9:57:b5, 2015-01-01 00:09:01.920,-0.005,0.001,0.997,1.099,0.854,-0.061, , , , , , ,0,0.417,-115.972
 09:16:31.101,eb:33:2e:f9:57:b5, 2015-01-01 00:09:01.920,-0.007,0.001,0.995,1.038,0.854,-0.061, , , , , , ,0,0.417,-115.972
 09:16:31.101,eb:33:2e:f9:57:b5, 2015-01-01 00:09:01.920,-0.005,0,0.997,1.099,0.916,-0.061, , , , , , ,0,0.417,-115.972
 09:16:31.145,eb:33:2e:f9:57:b5, 2015-01-01 00:09:01.920,-0.009,0.003,0.995,1.038,0.916,-0.122, , , , , , ,0,0.417,-115.972
 09:16:31.145,eb:33:2e:f9:57:b5, 2015-01-01 00:09:01.920,-0.007,0.003,0.993,1.038,0.793,-0.122, , , , , , ,0,0.417,-115.972
 09:16:31.145,eb:33:2e:f9:57:b5, 2015-01-01 00:09:01.920,-0.004,0.001,0.995,1.038,0.732,0, , , , , , ,0,0.417,-115.972
 09:16:31.145,eb:33:2e:f9:57:b5, 2015-01-01 00:09:01.920,-0.007,0.002,0.998,1.038,0.854,-0.122, , , , , , ,0,0.417,-115.972
 09:16:31.145,eb:33:2e:f9:57:b5, 2015-01-01 00:09:01.920,-0.009,0.001,0.994,1.038,0.854,-0.122, , , , , , ,0,0.417,-115.972
 09:16:31.145,eb:33:2e:f9:57:b5, 2015-01-01 00:09:01.920,-0.006,0.001,0.993,1.038,0.732,-0.122, , , , , , ,0,0.417,-115.972
 09:16:31.145,eb:33:2e:f9:57:b5, 2015-01-01 00:09:01.920,-0.006,0.001,0.994,0.977,0.732,-0.122, , , , , , ,0,0.417,-115.972
 09:16:31.145,eb:33:2e:f9:57:b5, 2015-01-01 00:09:01.920,-0.008,0.005,0.993,0.916,0.732,-0.183, , , , , , ,0,0.417,-115.972
 09:16:31.191,eb:33:2e:f9:57:b5, 2015-01-01 00:09:01.920,-0.007,0.003,0.991,0.854,0.671,-0.183, , , , , , ,0,0.417,-115.972
 09:16:31.192,eb:33:2e:f9:57:b5, 2015-01-01 00:09:01.920,-0.006,0.001,0.994,0.854,0.61,-0.061, , , , , , ,0,0.417,-115.972
 09:16:31.192,eb:33:2e:f9:57:b5, 2015-01-01 00:09:01.920,-0.008,0.003,0.993,0.732,0.61,-0.122, , , , , , ,0,0.417,-115.972
 09:16:31.192,eb:33:2e:f9:57:b5, 2015-01-01 00:09:01.920,-0.007,0.003,0.993,0.732,0.549,-0.183, , , , , , ,0,0.417,-115.972
 09:16:31.192,eb:33:2e:f9:57:b5, 2015-01-01 00:09:01.920,-0.007,0.003,0.994,0.671,0.549,-0.061, , , , , , ,0,0.417,-115.972
 09:16:31.192,eb:33:2e:f9:57:b5, 2015-01-01 00:09:01.920,-0.007,0.002,0.994,0.61,0.61,-0.122, , , , , , ,0,0.417,-115.972
 09:16:31.192,eb:33:2e:f9:57:b5, 2015-01-01 00:09:01.920,-0.006,0.002,0.994,0.549,0.61,-0.061, , , , , , ,0,0.412,-115.972
 09:16:31.192,eb:33:2e:f9:57:b5, 2015-01-01 00:09:01.920,-0.007,0.003,0.995,0.488,0.61,-0.061, , , , , , ,0,0.412,-115.972
 09:16:31.236,eb:33:2e:f9:57:b5, 2015-01-01 00:09:01.920,-0.007,0.003,0.994,0.488,0.671,-0.122, , , , , , ,0,0.412,-115.972
 09:16:31.236,eb:33:2e:f9:57:b5, 2015-01-01 00:09:01.920,-0.009,0.002,0.994,0.488,0.61,-0.061, , , , , , ,0,0.412,-115.972
 09:16:31.236,eb:33:2e:f9:57:b5, 2015-01-01 00:09:01.920,-0.009,0.001,0.995,0.488,0.61,-0.061, , , , , , ,0,0.412,-115.972
 09:16:31.236,eb:33:2e:f9:57:b5, 2015-01-01 00:09:01.920,-0.009,0.001,0.996,0.488,0.549,-0.061, , , , , , ,0,0.412,-115.972
 09:16:31.236,eb:33:2e:f9:57:b5, 2015-01-01 00:09:01.920,-0.008,0.002,0.996,0.549,0.549,0, , , , , , ,0,0.412,-115.972
 09:16:31.236,eb:33:2e:f9:57:b5, 2015-01-01 00:09:01.920,-0.009,0.002,0.996,0.488,0.549,0, , , , , , ,0,0.412,-115.972
 09:16:31.236,eb:33:2e:f9:57:b5, 2015-01-01 00:09:01.920,-0.008,0.002,0.995,0.488,0.427,-0.061, , , , , , ,0,0.417,-115.966
 09:16:31.236,eb:33:2e:f9:57:b5, 2015-01-01 00:09:01.920,-0.007,0.003,0.994,0.427,0.427,-0.061, , , , , , ,0,0.417,-115.966
 09:16:31.259,eb:33:2e:f9:57:b5, 2015-01-01 00:09:01.920,-0.007,0.003,0.994,0.427,0.366,-0.061, , , , , , ,0,0.417,-115.966
 09:16:31.259,eb:33:2e:f9:57:b5, 2015-01-01 00:09:01.920,-0.008,0.003,0.995,0.366,0.366,-0.061, , , , , , ,0,0.417,-115.966
 09:16:31.259,eb:33:2e:f9:57:b5, 2015-01-01 00:09:01.920,-0.007,0.003,0.995,0.427,0.366,-0.061, , , , , , ,0,0.417,-115.966
 09:16:31.259,eb:33:2e:f9:57:b5, 2015-01-01 00:09:01.920,-0.008,0.003,0.995,0.366,0.427,-0.061, , , , , , ,0,0.417,-115.966
 09:16:31.259,eb:33:2e:f9:57:b5, 2015-01-01 00:09:01.920,-0.01,0.003,0.995,0.366,0.366,-0.061, , , , , , ,0,0.417,-115.966
 09:16:31.259,eb:33:2e:f9:57:b5, 2015-01-01 00:09:01.920,-0.01,0.003,0.994,0.305,0.305,-0.061, , , , , , ,0,0.417,-115.966
 09:16:31.259,eb:33:2e:f9:57:b5, 2015-01-01 00:09:01.920,-0.008,0.002,0.994,0.244,0.305,0, , , , , , ,0.005,0.417,-115.966
 09:16:31.259,eb:33:2e:f9:57:b5, 2015-01-01 00:09:01.920,-0.008,0.004,0.993,0.183,0.305,0, , , , , , ,0.005,0.417,-115.966
 09:16:31.304,eb:33:2e:f9:57:b5, 2015-01-01 00:09:01.920,-0.007,0.004,0.992,0.122,0.244,0, , , , , , ,0.005,0.417,-115.966
 09:16:31.304,eb:33:2e:f9:57:b5, 2015-01-01 00:09:01.920,-0.008,0.004,0.993,0.061,0.183,0, , , , , , ,0.005,0.417,-115.966
 09:16:31.304,eb:33:2e:f9:57:b5, 2015-01-01 00:09:01.920,-0.008,0.003,0.993,0.061,0.122,-0.061, , , , , , ,0.005,0.417,-115.966
 09:16:31.304,eb:33:2e:f9:57:b5, 2015-01-01 00:09:01.920,-0.007,0.002,0.994,0,0.122,-0.061, , , , , , ,0.005,0.417,-115.966
 09:16:31.304,eb:33:2e:f9:57:b5, 2015-01-01 00:09:01.920,-0.008,0.002,0.994,0,0.122,0, , , , , , ,0.005,0.417,-115.966
 09:16:31.304,eb:33:2e:f9:57:b5, 2015-01-01 00:09:01.920,-0.007,0.002,0.994,0,0.122,0, , , , , , ,0.005,0.417,-115.966
 09:16:31.304,eb:33:2e:f9:57:b5, 2015-01-01 00:09:01.920,-0.009,0.003,0.995,0,0.122,0, , , , , , ,0.005,0.417,-115.966
 09:16:31.304,eb:33:2e:f9:57:b5, 2015-01-01 00:09:01.920,-0.009,0.003,0.995,0,0.122,-0.061, , , , , , ,0.005,0.417,-115.966
 09:16:31.347,eb:33:2e:f9:57:b5, 2015-01-01 00:09:02.210,-0.007,0.002,0.995,0,0.122,0, , , , , , ,0.005,0.417,-115.966
 09:16:31.347,eb:33:2e:f9:57:b5, 2015-01-01 00:09:02.210,-0.006,0.001,0.997,0,0.183,0, , , , , , ,0.005,0.417,-115.966
 09:16:31.347,eb:33:2e:f9:57:b5, 2015-01-01 00:09:02.210,-0.008,0.001,0.998,0.061,0.183,0.061, , , , , , ,0.005,0.417,-115.966
 09:16:31.347,eb:33:2e:f9:57:b5, 2015-01-01 00:09:02.210,-0.009,0.003,0.996,0.061,0.183,0.061, , , , , , ,0.005,0.417,-115.966
 09:16:31.347,eb:33:2e:f9:57:b5, 2015-01-01 00:09:02.210,-0.008,0.003,0.994,0.061,0.183,0.061, , , , , , ,0.005,0.417,-115.966
 09:16:31.347,eb:33:2e:f9:57:b5, 2015-01-01 00:09:02.210,-0.008,0.003,0.994,0,0.183,0.061, , , , , , ,0.005,0.417,-115.966
 09:16:31.348,eb:33:2e:f9:57:b5, 2015-01-01 00:09:02.210,-0.008,0.003,0.994,0.061,0.122,0.061, , , , , , ,0.005,0.417,-115.966
 09:16:31.348,eb:33:2e:f9:57:b5, 2015-01-01 00:09:02.210,-0.007,0.003,0.995,0,0.061,0.061, , , , , , ,0.005,0.417,-115.966
 09:16:31.393,eb:33:2e:f9:57:b5, 2015-01-01 00:09:02.210,-0.008,0.003,0.996,0.061,0.061,0, , , , , , ,0.005,0.417,-115.966
 09:16:31.393,eb:33:2e:f9:57:b5, 2015-01-01 00:09:02.210,-0.008,0.003,0.995,0,0.122,0, , , , , , ,0.005,0.417,-115.966
 09:16:31.393,eb:33:2e:f9:57:b5, 2015-01-01 00:09:02.210,-0.009,0.004,0.995,0,0.122,0, , , , , , ,0.005,0.417,-115.966
 09:16:31.393,eb:33:2e:f9:57:b5, 2015-01-01 00:09:02.210,-0.008,0.004,0.994,0,0.122,0.061, , , , , , ,0.005,0.417,-115.966
 09:16:31.393,eb:33:2e:f9:57:b5, 2015-01-01 00:09:02.210,-0.008,0.003,0.994,0,0.061,0.061, , , , , , ,0.005,0.417,-115.966
 09:16:31.393,eb:33:2e:f9:57:b5, 2015-01-01 00:09:02.210,-0.008,0.002,0.995,-0.061,0.061,0.061, , , , , , ,0.005,0.417,-115.966
 09:16:31.393,eb:33:2e:f9:57:b5, 2015-01-01 00:09:02.210,-0.007,0.003,0.996,-0.061,0.122,0.061, , , , , , ,0.011,0.417,-115.966
 09:16:31.393,eb:33:2e:f9:57:b5, 2015-01-01 00:09:02.210,-0.007,0.002,0.996,-0.061,0.183,0, , , , , , ,0.011,0.417,-115.966
 09:16:31.438,eb:33:2e:f9:57:b5, 2015-01-01 00:09:02.210,-0.008,0.003,0.997,0,0.244,0, , , , , , ,0.011,0.417,-115.966
 09:16:31.438,eb:33:2e:f9:57:b5, 2015-01-01 00:09:02.210,-0.009,0.002,0.996,0,0.244,0, , , , , , ,0.011,0.417,-115.966
 09:16:31.438,eb:33:2e:f9:57:b5, 2015-01-01 00:09:02.210,-0.01,0.003,0.995,0,0.122,0, , , , , , ,0.011,0.417,-115.966
 09:16:31.438,eb:33:2e:f9:57:b5, 2015-01-01 00:09:02.210,-0.008,0.002,0.995,0,0.061,0, , , , , , ,0.011,0.417,-115.966
 09:16:31.438,eb:33:2e:f9:57:b5, 2015-01-01 00:09:02.210,-0.007,0,0.996,0.061,0.061,0, , , , , , ,0.011,0.417,-115.966
 09:16:31.439,eb:33:2e:f9:57:b5, 2015-01-01 00:09:02.210,-0.004,0,0.998,0.122,0.183,0, , , , , , ,0.011,0.417,-115.966
 09:16:31.439,eb:33:2e:f9:57:b5, 2015-01-01 00:09:02.210,-0.006,0,1,0.305,0.366,0.061, , , , , , ,0.011,0.417,-115.966
 09:16:31.439,eb:33:2e:f9:57:b5, 2015-01-01 00:09:02.210,-0.009,0.001,0.999,0.366,0.549,0.061, , , , , , ,0.011,0.417,-115.966
 09:16:31.461,eb:33:2e:f9:57:b5, 2015-01-01 00:09:02.210,-0.011,0.002,0.997,0.366,0.549,0.061, , , , , , ,0.011,0.417,-115.966
 09:16:31.461,eb:33:2e:f9:57:b5, 2015-01-01 00:09:02.210,-0.01,0.003,0.994,0.366,0.427,0, , , , , , ,0.011,0.417,-115.966
 09:16:31.461,eb:33:2e:f9:57:b5, 2015-01-01 00:09:02.210,-0.007,0.003,0.994,0.366,0.366,0, , , , , , ,0.011,0.417,-115.966
 09:16:31.461,eb:33:2e:f9:57:b5, 2015-01-01 00:09:02.210,-0.008,0.003,0.995,0.427,0.427,0.061, , , , , , ,0.011,0.417,-115.966
 09:16:31.461,eb:33:2e:f9:57:b5, 2015-01-01 00:09:02.210,-0.008,0.003,0.995,0.366,0.366,0.061, , , , , , ,0.011,0.417,-115.966
 09:16:31.461,eb:33:2e:f9:57:b5, 2015-01-01 00:09:02.210,-0.008,0.003,0.995,0.366,0.366,0, , , , , , ,0.011,0.417,-115.966
 09:16:31.461,eb:33:2e:f9:57:b5, 2015-01-01 00:09:02.210,-0.008,0.003,0.995,0.366,0.427,0, , , , , , ,0.011,0.417,-115.966
 09:16:31.461,eb:33:2e:f9:57:b5, 2015-01-01 00:09:02.210,-0.009,0.003,0.994,0.366,0.427,0, , , , , , ,0.011,0.417,-115.966
 09:16:31.527,eb:33:2e:f9:57:b5, 2015-01-01 00:09:02.210,-0.009,0.004,0.993,0.305,0.366,0.061, , , , , , ,0.011,0.417,-115.966
 09:16:31.527,eb:33:2e:f9:57:b5, 2015-01-01 00:09:02.210,-0.009,0.003,0.993,0.305,0.366,0.061, , , , , , ,0.011,0.417,-115.966
 09:16:31.527,eb:33:2e:f9:57:b5, 2015-01-01 00:09:02.210,-0.01,0.004,0.993,0.305,0.244,0, , , , , , ,0.011,0.417,-115.966
 09:16:31.527,eb:33:2e:f9:57:b5, 2015-01-01 00:09:02.210,-0.008,0.004,0.993,0.305,0.244,0, , , , , , ,0.011,0.417,-115.966
 09:16:31.527,eb:33:2e:f9:57:b5, 2015-01-01 00:09:02.210,-0.008,0.004,0.994,0.244,0.183,0, , , , , , ,0.011,0.417,-115.966
 09:16:31.527,eb:33:2e:f9:57:b5, 2015-01-01 00:09:02.210,-0.008,0.003,0.995,0.305,0.183,0.061, , , , , , ,0.011,0.417,-115.966
 09:16:31.527,eb:33:2e:f9:57:b5, 2015-01-01 00:09:02.210,-0.009,0.003,0.995,0.305,0.244,0, , , , , , ,0.016,0.417,-115.966
 09:16:31.527,eb:33:2e:f9:57:b5, 2015-01-01 00:09:02.210,-0.01,0.003,0.994,0.183,0.122,0, , , , , , ,0.016,0.417,-115.966
 09:16:31.572,eb:33:2e:f9:57:b5, 2015-01-01 00:09:02.210,-0.008,0.003,0.993,0.183,0.122,0, , , , , , ,0.016,0.417,-115.966
 09:16:31.572,eb:33:2e:f9:57:b5, 2015-01-01 00:09:02.210,-0.007,0.003,0.994,0.183,0.122,0, , , , , , ,0.016,0.417,-115.966
 09:16:31.572,eb:33:2e:f9:57:b5, 2015-01-01 00:09:02.210,-0.008,0.003,0.995,0.244,0.183,0, , , , , , ,0.016,0.417,-115.966
 09:16:31.572,eb:33:2e:f9:57:b5, 2015-01-01 00:09:02.210,-0.008,0.003,0.996,0.183,0.244,0, , , , , , ,0.016,0.417,-115.966
 09:16:31.572,eb:33:2e:f9:57:b5, 2015-01-01 00:09:02.210,-0.008,0.003,0.996,0.183,0.183,0, , , , , , ,0.016,0.417,-115.966
 09:16:31.572,eb:33:2e:f9:57:b5, 2015-01-01 00:09:02.210,-0.008,0.004,0.995,0.183,0.244,0, , , , , , ,0.016,0.417,-115.966
 09:16:31.572,eb:33:2e:f9:57:b5, 2015-01-01 00:09:02.210,-0.009,0.004,0.995,0.183,0.244,0.061, , , , , , ,0.016,0.417,-115.966
 09:16:31.572,eb:33:2e:f9:57:b5, 2015-01-01 00:09:02.210,-0.009,0.003,0.994,0.183,0.244,0.061, , , , , , ,0.016,0.417,-115.966
 09:16:31.617,eb:33:2e:f9:57:b5, 2015-01-01 00:09:02.210,-0.009,0.003,0.994,0.244,0.183,0, , , , , , ,0.016,0.417,-115.966
 09:16:31.617,eb:33:2e:f9:57:b5, 2015-01-01 00:09:02.210,-0.009,0.003,0.995,0.244,0.122,0.061, , , , , , ,0.016,0.417,-115.966
 09:16:31.617,eb:33:2e:f9:57:b5, 2015-01-01 00:09:02.210,-0.008,0.004,0.995,0.183,0.183,0.061, , , , , , ,0.016,0.423,-115.966
 09:16:31.617,eb:33:2e:f9:57:b5, 2015-01-01 00:09:02.210,-0.009,0.004,0.995,0.183,0.122,0.061, , , , , , ,0.016,0.423,-115.966
 09:16:31.617,eb:33:2e:f9:57:b5, 2015-01-01 00:09:02.210,-0.009,0.003,0.994,0.183,0.122,0.061, , , , , , ,0.016,0.423,-115.966
 09:16:31.617,eb:33:2e:f9:57:b5, 2015-01-01 00:09:02.210,-0.008,0.002,0.995,0.244,0.183,0.061, , , , , , ,0.016,0.423,-115.966
 09:16:31.617,eb:33:2e:f9:57:b5, 2015-01-01 00:09:02.210,-0.009,0.003,0.995,0.244,0.183,0.061, , , , , , ,0.016,0.423,-115.961
 09:16:31.617,eb:33:2e:f9:57:b5, 2015-01-01 00:09:02.210,-0.009,0.003,0.994,0.244,0.183,0, , , , , , ,0.016,0.423,-115.961
 09:16:31.662,eb:33:2e:f9:57:b5, 2015-01-01 00:09:02.210,-0.009,0.003,0.994,0.244,0.122,0, , , , , , ,0.016,0.423,-115.961
 09:16:31.662,eb:33:2e:f9:57:b5, 2015-01-01 00:09:02.210,-0.009,0.003,0.995,0.244,0.244,0.061, , , , , , ,0.016,0.423,-115.961
 09:16:31.662,eb:33:2e:f9:57:b5, 2015-01-01 00:09:02.210,-0.009,0.004,0.995,0.244,0.244,0, , , , , , ,0.022,0.423,-115.961
 09:16:31.662,eb:33:2e:f9:57:b5, 2015-01-01 00:09:02.210,-0.009,0.004,0.994,0.244,0.183,0, , , , , , ,0.022,0.423,-115.961
 09:16:31.662,eb:33:2e:f9:57:b5, 2015-01-01 00:09:02.210,-0.01,0.003,0.993,0.244,0.122,0, , , , , , ,0.022,0.423,-115.961
 09:16:31.662,eb:33:2e:f9:57:b5, 2015-01-01 00:09:02.210,-0.009,0.004,0.994,0.244,0.061,0, , , , , , ,0.022,0.423,-115.961
 09:16:31.662,eb:33:2e:f9:57:b5, 2015-01-01 00:09:02.210,-0.009,0.004,0.994,0.183,0.061,0, , , , , , ,0.022,0.423,-115.961
 09:16:31.662,eb:33:2e:f9:57:b5, 2015-01-01 00:09:02.210,-0.01,0.004,0.994,0.122,0.061,0, , , , , , ,0.022,0.423,-115.961
 09:16:31.684,eb:33:2e:f9:57:b5, 2015-01-01 00:09:02.210,-0.01,0.005,0.994,0.122,0.061,0, , , , , , ,0.022,0.423,-115.961
 09:16:31.684,eb:33:2e:f9:57:b5, 2015-01-01 00:09:02.210,-0.01,0.004,0.994,0.122,0,0.061, , , , , , ,0.022,0.423,-115.961
 09:16:31.684,eb:33:2e:f9:57:b5, 2015-01-01 00:09:02.210,-0.008,0.004,0.994,0.061,0,0.061, , , , , , ,0.022,0.423,-115.961
 09:16:31.684,eb:33:2e:f9:57:b5, 2015-01-01 00:09:02.210,-0.009,0.002,0.997,0.122,0,0, , , , , , ,0.022,0.423,-115.961
 09:16:31.684,eb:33:2e:f9:57:b5, 2015-01-01 00:09:02.210,-0.009,0.003,0.996,0.122,0.061,0, , , , , , ,0.022,0.423,-115.961
 09:16:31.684,eb:33:2e:f9:57:b5, 2015-01-01 00:09:02.210,-0.009,0.004,0.995,0.244,0.061,0.061, , , , , , ,0.022,0.423,-115.961
 09:16:31.684,eb:33:2e:f9:57:b5, 2015-01-01 00:09:02.210,-0.008,0.004,0.995,0.183,0.061,0, , , , , , ,0.022,0.423,-115.961
 09:16:31.685,eb:33:2e:f9:57:b5, 2015-01-01 00:09:02.210,-0.009,0.004,0.995,0.183,0.061,0, , , , , , ,0.022,0.423,-115.961
 09:16:31.707,eb:33:2e:f9:57:b5, 2015-01-01 00:09:02.590,-0.009,0.004,0.995,0.122,0.061,0.061, , , , , , ,0.022,0.423,-115.961
 09:16:31.707,eb:33:2e:f9:57:b5, 2015-01-01 00:09:02.590,-0.009,0.004,0.994,0.183,0.061,0.061, , , , , , ,0.022,0.423,-115.961
 09:16:31.707,eb:33:2e:f9:57:b5, 2015-01-01 00:09:02.590,-0.007,0.004,0.995,0.244,0,0.061, , , , , , ,0.022,0.423,-115.961
 09:16:31.707,eb:33:2e:f9:57:b5, 2015-01-01 00:09:02.590,-0.007,0.004,0.996,0.244,0.061,0.061, , , , , , ,0.022,0.423,-115.961
 09:16:31.707,eb:33:2e:f9:57:b5, 2015-01-01 00:09:02.590,-0.008,0.004,0.997,0.244,0.183,0.061, , , , , , ,0.022,0.423,-115.961
 09:16:31.707,eb:33:2e:f9:57:b5, 2015-01-01 00:09:02.590,-0.009,0.003,0.996,0.244,0.244,0.061, , , , , , ,0.022,0.423,-115.961
 09:16:31.707,eb:33:2e:f9:57:b5, 2015-01-01 00:09:02.590,-0.009,0.004,0.995,0.244,0.244,0.061, , , , , , ,0.027,0.423,-115.961
 09:16:31.707,eb:33:2e:f9:57:b5, 2015-01-01 00:09:02.590,-0.009,0.004,0.995,0.305,0.183,0.061, , , , , , ,0.027,0.423,-115.961
 09:16:31.753,eb:33:2e:f9:57:b5, 2015-01-01 00:09:02.590,-0.009,0.004,0.994,0.305,0.122,0, , , , , , ,0.027,0.423,-115.961
 09:16:31.753,eb:33:2e:f9:57:b5, 2015-01-01 00:09:02.590,-0.01,0.003,0.994,0.244,0.122,0, , , , , , ,0.027,0.423,-115.961
 09:16:31.753,eb:33:2e:f9:57:b5, 2015-01-01 00:09:02.590,-0.009,0.005,0.993,0.244,0.061,0.122, , , , , , ,0.027,0.423,-115.961
 09:16:31.753,eb:33:2e:f9:57:b5, 2015-01-01 00:09:02.590,-0.009,0.005,0.994,0.244,0,0.061, , , , , , ,0.027,0.423,-115.961
 09:16:31.753,eb:33:2e:f9:57:b5, 2015-01-01 00:09:02.590,-0.009,0.005,0.994,0.122,0,0.061, , , , , , ,0.027,0.423,-115.961
 09:16:31.753,eb:33:2e:f9:57:b5, 2015-01-01 00:09:02.590,-0.01,0.005,0.993,0.061,0,0, , , , , , ,0.027,0.423,-115.961
 09:16:31.753,eb:33:2e:f9:57:b5, 2015-01-01 00:09:02.590,-0.01,0.005,0.992,0,0,0, , , , , , ,0.027,0.423,-115.961
 09:16:31.753,eb:33:2e:f9:57:b5, 2015-01-01 00:09:02.590,-0.01,0.005,0.993,0,-0.061,0, , , , , , ,0.027,0.423,-115.961
 09:16:31.796,eb:33:2e:f9:57:b5, 2015-01-01 00:09:02.590,-0.01,0.005,0.993,-0.061,-0.061,0, , , , , , ,0.027,0.423,-115.961
 09:16:31.796,eb:33:2e:f9:57:b5, 2015-01-01 00:09:02.590,-0.008,0.004,0.994,-0.061,-0.122,0, , , , , , ,0.027,0.423,-115.961
 09:16:31.796,eb:33:2e:f9:57:b5, 2015-01-01 00:09:02.590,-0.008,0.004,0.996,-0.061,-0.122,0, , , , , , ,0.027,0.428,-115.961
 09:16:31.797,eb:33:2e:f9:57:b5, 2015-01-01 00:09:02.590,-0.008,0.004,0.996,-0.061,-0.061,0, , , , , , ,0.027,0.428,-115.961
 09:16:31.797,eb:33:2e:f9:57:b5, 2015-01-01 00:09:02.590,-0.008,0.004,0.996,0,0,0, , , , , , ,0.027,0.428,-115.961
 09:16:31.797,eb:33:2e:f9:57:b5, 2015-01-01 00:09:02.590,-0.008,0.004,0.996,-0.061,0.061,0, , , , , , ,0.027,0.428,-115.961
 09:16:31.797,eb:33:2e:f9:57:b5, 2015-01-01 00:09:02.590,-0.007,0.003,0.996,-0.061,0,0, , , , , , ,0.033,0.428,-115.961
 09:16:31.797,eb:33:2e:f9:57:b5, 2015-01-01 00:09:02.590,-0.007,0.003,0.996,0,0.061,0, , , , , , ,0.033,0.428,-115.961
 09:16:31.820,eb:33:2e:f9:57:b5, 2015-01-01 00:09:02.590,-0.009,0.003,0.997,0,0.122,0, , , , , , ,0.033,0.428,-115.961
 09:16:31.820,eb:33:2e:f9:57:b5, 2015-01-01 00:09:02.590,-0.01,0.003,0.996,0,0.122,0, , , , , , ,0.033,0.428,-115.961
 09:16:31.820,eb:33:2e:f9:57:b5, 2015-01-01 00:09:02.590,-0.009,0.004,0.995,0,0.061,0, , , , , , ,0.033,0.428,-115.961
 09:16:31.820,eb:33:2e:f9:57:b5, 2015-01-01 00:09:02.590,-0.009,0.004,0.995,0,0,0, , , , , , ,0.033,0.428,-115.961
 09:16:31.820,eb:33:2e:f9:57:b5, 2015-01-01 00:09:02.590,-0.008,0.003,0.994,0,0,0, , , , , , ,0.033,0.428,-115.961
 09:16:31.820,eb:33:2e:f9:57:b5, 2015-01-01 00:09:02.590,-0.008,0.004,0.995,0,0,0, , , , , , ,0.033,0.428,-115.961
 09:16:31.820,eb:33:2e:f9:57:b5, 2015-01-01 00:09:02.590,-0.008,0.004,0.996,0,0,0, , , , , , ,0.033,0.428,-115.955
 09:16:31.821,eb:33:2e:f9:57:b5, 2015-01-01 00:09:02.590,-0.009,0.004,0.996,0,0,0, , , , , , ,0.033,0.428,-115.955
 09:16:31.864,eb:33:2e:f9:57:b5, 2015-01-01 00:09:02.590,-0.008,0.004,0.996,0,-0.061,0, , , , , , ,0.033,0.428,-115.955
 09:16:31.864,eb:33:2e:f9:57:b5, 2015-01-01 00:09:02.590,-0.008,0.004,0.995,0,-0.061,0, , , , , , ,0.033,0.428,-115.955
 09:16:31.864,eb:33:2e:f9:57:b5, 2015-01-01 00:09:02.590,-0.009,0.004,0.995,0,-0.061,-0.061, , , , , , ,0.033,0.428,-115.955
 09:16:31.864,eb:33:2e:f9:57:b5, 2015-01-01 00:09:02.590,-0.009,0.003,0.996,0,0,0, , , , , , ,0.033,0.428,-115.955
 09:16:31.864,eb:33:2e:f9:57:b5, 2015-01-01 00:09:02.590,-0.009,0.004,0.995,0,0,0, , , , , , ,0.033,0.428,-115.955
 09:16:31.864,eb:33:2e:f9:57:b5, 2015-01-01 00:09:02.590,-0.009,0.005,0.994,0,0.061,-0.061, , , , , , ,0.033,0.428,-115.955
 09:16:31.864,eb:33:2e:f9:57:b5, 2015-01-01 00:09:02.590,-0.01,0.005,0.994,-0.122,0.061,0, , , , , , ,0.033,0.428,-115.955
 09:16:31.865,eb:33:2e:f9:57:b5, 2015-01-01 00:09:02.590,-0.009,0.003,0.995,-0.061,0.061,-0.061, , , , , , ,0.033,0.428,-115.955
 09:16:31.909,eb:33:2e:f9:57:b5, 2015-01-01 00:09:02.590,-0.007,0.003,0.995,0,0,-0.061, , , , , , ,0.033,0.428,-115.955
 09:16:31.909,eb:33:2e:f9:57:b5, 2015-01-01 00:09:02.590,-0.007,0.003,0.997,0,0.061,-0.061, , , , , , ,0.033,0.428,-115.955
 09:16:31.909,eb:33:2e:f9:57:b5, 2015-01-01 00:09:02.590,-0.01,0.004,0.997,0,0.183,-0.061, , , , , , ,0.038,0.428,-115.955
 09:16:31.909,eb:33:2e:f9:57:b5, 2015-01-01 00:09:02.590,-0.011,0.004,0.994,0,0.122,-0.061, , , , , , ,0.038,0.428,-115.955
 09:16:31.909,eb:33:2e:f9:57:b5, 2015-01-01 00:09:02.590,-0.01,0.004,0.993,0,0,0, , , , , , ,0.038,0.428,-115.955
 09:16:31.909,eb:33:2e:f9:57:b5, 2015-01-01 00:09:02.590,-0.009,0.004,0.994,0,0,-0.061, , , , , , ,0.038,0.428,-115.955
 09:16:31.909,eb:33:2e:f9:57:b5, 2015-01-01 00:09:02.590,-0.01,0.004,0.995,0,0,-0.061, , , , , , ,0.038,0.428,-115.955
 09:16:31.909,eb:33:2e:f9:57:b5, 2015-01-01 00:09:02.590,-0.01,0.004,0.995,0.061,0,0, , , , , , ,0.038,0.428,-115.955
 09:16:31.955,eb:33:2e:f9:57:b5, 2015-01-01 00:09:02.590,-0.009,0.004,0.995,0,0.061,0, , , , , , ,0.038,0.428,-115.955
 09:16:31.955,eb:33:2e:f9:57:b5, 2015-01-01 00:09:02.590,-0.009,0.005,0.994,0,0,0, , , , , , ,0.038,0.428,-115.955
 09:16:31.955,eb:33:2e:f9:57:b5, 2015-01-01 00:09:02.590,-0.008,0.005,0.994,0,0,0, , , , , , ,0.038,0.428,-115.955
 09:16:31.955,eb:33:2e:f9:57:b5, 2015-01-01 00:09:02.590,-0.009,0.004,0.994,0,0,0, , , , , , ,0.038,0.428,-115.955
 09:16:31.955,eb:33:2e:f9:57:b5, 2015-01-01 00:09:02.590,-0.009,0.004,0.994,0,0,0, , , , , , ,0.038,0.428,-115.955
 09:16:31.955,eb:33:2e:f9:57:b5, 2015-01-01 00:09:02.590,-0.009,0.004,0.995,0,0,-0.061, , , , , , ,0.038,0.428,-115.955
 09:16:31.955,eb:33:2e:f9:57:b5, 2015-01-01 00:09:02.590,-0.008,0.005,0.995,0,-0.061,0, , , , , , ,0.038,0.428,-115.955
 09:16:31.955,eb:33:2e:f9:57:b5, 2015-01-01 00:09:02.590,-0.008,0.004,0.995,0,-0.061,0, , , , , , ,0.038,0.428,-115.955
 09:16:31.999,eb:33:2e:f9:57:b5, 2015-01-01 00:09:02.590,-0.008,0.004,0.995,0,-0.061,0, , , , , , ,0.038,0.428,-115.955
 09:16:31.999,eb:33:2e:f9:57:b5, 2015-01-01 00:09:02.590,-0.007,0.003,0.995,0,-0.061,0, , , , , , ,0.038,0.428,-115.955
 09:16:31.999,eb:33:2e:f9:57:b5, 2015-01-01 00:09:02.590,-0.008,0.003,0.995,0,0,0, , , , , , ,0.044,0.434,-115.955
 09:16:31.999,eb:33:2e:f9:57:b5, 2015-01-01 00:09:02.590,-0.009,0.003,0.995,0,0.061,0, , , , , , ,0.044,0.434,-115.955
 09:16:31.999,eb:33:2e:f9:57:b5, 2015-01-01 00:09:02.590,-0.009,0.003,0.995,0,0.122,0, , , , , , ,0.044,0.434,-115.955
 09:16:31.999,eb:33:2e:f9:57:b5, 2015-01-01 00:09:02.590,-0.008,0.004,0.994,0,0.122,0, , , , , , ,0.044,0.434,-115.955
 09:16:31.999,eb:33:2e:f9:57:b5, 2015-01-01 00:09:02.590,-0.009,0.005,0.994,0,0,0, , , , , , ,0.044,0.434,-115.955
 09:16:31.999,eb:33:2e:f9:57:b5, 2015-01-01 00:09:02.590,-0.009,0.004,0.994,-0.061,0,0, , , , , , ,0.044,0.434,-115.955
 09:16:32.022,eb:33:2e:f9:57:b5, 2015-01-01 00:09:02.925,-0.008,0.003,0.994,0,0,0, , , , , , ,0.044,0.434,-115.955
 09:16:32.022,eb:33:2e:f9:57:b5, 2015-01-01 00:09:02.925,-0.008,0.004,0.996,-0.061,0,0, , , , , , ,0.044,0.434,-115.955
 09:16:32.022,eb:33:2e:f9:57:b5, 2015-01-01 00:09:02.925,-0.008,0.003,0.996,0,0,0, , , , , , ,0.044,0.434,-115.955
 09:16:32.022,eb:33:2e:f9:57:b5, 2015-01-01 00:09:02.925,-0.008,0.003,0.996,0,0,0, , , , , , ,0.044,0.434,-115.955
 09:16:32.022,eb:33:2e:f9:57:b5, 2015-01-01 00:09:02.925,-0.01,0.004,0.996,0,0.061,0, , , , , , ,0.044,0.434,-115.955
 09:16:32.022,eb:33:2e:f9:57:b5, 2015-01-01 00:09:02.925,-0.01,0.005,0.994,0,0,0, , , , , , ,0.044,0.434,-115.955
 09:16:32.022,eb:33:2e:f9:57:b5, 2015-01-01 00:09:02.925,-0.009,0.005,0.994,0,-0.061,0, , , , , , ,0.044,0.434,-115.955
 09:16:32.022,eb:33:2e:f9:57:b5, 2015-01-01 00:09:02.925,-0.008,0.005,0.994,0,0,0, , , , , , ,0.044,0.434,-115.955
 09:16:32.067,eb:33:2e:f9:57:b5, 2015-01-01 00:09:02.925,-0.008,0.005,0.994,0,-0.061,0, , , , , , ,0.044,0.434,-115.955
 09:16:32.067,eb:33:2e:f9:57:b5, 2015-01-01 00:09:02.925,-0.009,0.005,0.995,-0.122,-0.061,0, , , , , , ,0.044,0.434,-115.955
 09:16:32.067,eb:33:2e:f9:57:b5, 2015-01-01 00:09:02.925,-0.009,0.005,0.994,-0.183,-0.061,0, , , , , , ,0.044,0.434,-115.955
 09:16:32.067,eb:33:2e:f9:57:b5, 2015-01-01 00:09:02.925,-0.008,0.004,0.995,-0.122,-0.061,0, , , , , , ,0.044,0.434,-115.955
 09:16:32.067,eb:33:2e:f9:57:b5, 2015-01-01 00:09:02.925,-0.007,0.003,0.995,-0.183,-0.061,0, , , , , , ,0.044,0.434,-115.955
 09:16:32.067,eb:33:2e:f9:57:b5, 2015-01-01 00:09:02.925,-0.008,0.003,0.997,-0.122,0,0, , , , , , ,0.044,0.434,-115.955
 09:16:32.067,eb:33:2e:f9:57:b5, 2015-01-01 00:09:02.925,-0.008,0.003,0.997,-0.061,0,0, , , , , , ,0.049,0.434,-115.95
 09:16:32.068,eb:33:2e:f9:57:b5, 2015-01-01 00:09:02.925,-0.01,0.004,0.995,-0.122,0,0, , , , , , ,0.049,0.434,-115.95
 09:16:32.112,eb:33:2e:f9:57:b5, 2015-01-01 00:09:02.925,-0.011,0.005,0.994,-0.122,0,0, , , , , , ,0.049,0.434,-115.95
 09:16:32.112,eb:33:2e:f9:57:b5, 2015-01-01 00:09:02.925,-0.01,0.005,0.994,-0.183,-0.061,0, , , , , , ,0.049,0.434,-115.95
 09:16:32.112,eb:33:2e:f9:57:b5, 2015-01-01 00:09:02.925,-0.01,0.005,0.994,-0.183,-0.122,0, , , , , , ,0.049,0.434,-115.95
 09:16:32.112,eb:33:2e:f9:57:b5, 2015-01-01 00:09:02.925,-0.009,0.005,0.993,-0.244,-0.122,0, , , , , , ,0.049,0.434,-115.95
 09:16:32.112,eb:33:2e:f9:57:b5, 2015-01-01 00:09:02.925,-0.008,0.004,0.994,-0.183,-0.122,0, , , , , , ,0.049,0.434,-115.95
 09:16:32.112,eb:33:2e:f9:57:b5, 2015-01-01 00:09:02.925,-0.008,0.003,0.996,-0.183,-0.122,0, , , , , , ,0.049,0.434,-115.95
 09:16:32.112,eb:33:2e:f9:57:b5, 2015-01-01 00:09:02.925,-0.008,0.003,0.996,-0.122,-0.061,0, , , , , , ,0.049,0.434,-115.95
 09:16:32.112,eb:33:2e:f9:57:b5, 2015-01-01 00:09:02.925,-0.007,0.003,0.996,-0.122,0,0.061, , , , , , ,0.049,0.434,-115.95
 09:16:32.157,eb:33:2e:f9:57:b5, 2015-01-01 00:09:02.925,-0.01,0.003,0.996,-0.061,0,0, , , , , , ,0.049,0.434,-115.95
 09:16:32.157,eb:33:2e:f9:57:b5, 2015-01-01 00:09:02.925,-0.008,0.004,0.994,-0.061,-0.122,0, , , , , , ,0.049,0.434,-115.95
 09:16:32.157,eb:33:2e:f9:57:b5, 2015-01-01 00:09:02.925,-0.006,0.003,0.995,-0.061,-0.122,0, , , , , , ,0.049,0.434,-115.95
 09:16:32.157,eb:33:2e:f9:57:b5, 2015-01-01 00:09:02.925,-0.007,0.003,0.997,0,-0.061,0.061, , , , , , ,0.049,0.434,-115.95
 09:16:32.157,eb:33:2e:f9:57:b5, 2015-01-01 00:09:02.925,-0.008,0.004,0.997,0,-0.061,0, , , , , , ,0.049,0.434,-115.95
 09:16:32.157,eb:33:2e:f9:57:b5, 2015-01-01 00:09:02.925,-0.009,0.003,0.996,0,0,0, , , , , , ,0.049,0.434,-115.95
 09:16:32.157,eb:33:2e:f9:57:b5, 2015-01-01 00:09:02.925,-0.007,0.003,0.996,0,-0.061,0, , , , , , ,0.049,0.434,-115.95
 09:16:32.157,eb:33:2e:f9:57:b5, 2015-01-01 00:09:02.925,-0.007,0.003,0.997,0.061,0,0, , , , , , ,0.049,0.434,-115.95
 09:16:32.203,eb:33:2e:f9:57:b5, 2015-01-01 00:09:02.925,-0.009,0.003,0.997,0.122,0.061,0, , , , , , ,0.049,0.434,-115.95
 09:16:32.203,eb:33:2e:f9:57:b5, 2015-01-01 00:09:02.925,-0.009,0.004,0.995,0.061,0,0, , , , , , ,0.049,0.434,-115.95
 09:16:32.203,eb:33:2e:f9:57:b5, 2015-01-01 00:09:02.925,-0.009,0.004,0.994,0.122,0,0, , , , , , ,0.055,0.434,-115.95
 09:16:32.203,eb:33:2e:f9:57:b5, 2015-01-01 00:09:02.925,-0.007,0.004,0.995,0.061,-0.061,0, , , , , , ,0.055,0.434,-115.95
 09:16:32.203,eb:33:2e:f9:57:b5, 2015-01-01 00:09:02.925,-0.007,0.003,0.995,0.061,0,0, , , , , , ,0.055,0.434,-115.95
 09:16:32.203,eb:33:2e:f9:57:b5, 2015-01-01 00:09:02.925,-0.007,0.004,0.995,0.061,0,0, , , , , , ,0.055,0.434,-115.95
 09:16:32.203,eb:33:2e:f9:57:b5, 2015-01-01 00:09:02.925,-0.008,0.004,0.995,0.061,0,0, , , , , , ,0.055,0.434,-115.95
 09:16:32.203,eb:33:2e:f9:57:b5, 2015-01-01 00:09:02.925,-0.008,0.005,0.994,0.061,0,0, , , , , , ,0.055,0.434,-115.95
 09:16:32.225,eb:33:2e:f9:57:b5, 2015-01-01 00:09:02.925,-0.009,0.004,0.994,0,0.061,0, , , , , , ,0.055,0.434,-115.95
 09:16:32.225,eb:33:2e:f9:57:b5, 2015-01-01 00:09:02.925,-0.009,0.005,0.994,0,0,-0.061, , , , , , ,0.055,0.434,-115.95
 09:16:32.225,eb:33:2e:f9:57:b5, 2015-01-01 00:09:02.925,-0.009,0.005,0.994,0,0,0, , , , , , ,0.055,0.434,-115.95
 09:16:32.225,eb:33:2e:f9:57:b5, 2015-01-01 00:09:02.925,-0.008,0.005,0.994,-0.061,0,0, , , , , , ,0.055,0.434,-115.95
 09:16:32.225,eb:33:2e:f9:57:b5, 2015-01-01 00:09:02.925,-0.008,0.004,0.994,-0.122,0,0, , , , , , ,0.055,0.434,-115.95
 09:16:32.225,eb:33:2e:f9:57:b5, 2015-01-01 00:09:02.925,-0.009,0.004,0.995,0,0,0, , , , , , ,0.055,0.434,-115.95
 09:16:32.225,eb:33:2e:f9:57:b5, 2015-01-01 00:09:02.925,-0.008,0.004,0.994,-0.061,0,0, , , , , , ,0.055,0.434,-115.95
 09:16:32.225,eb:33:2e:f9:57:b5, 2015-01-01 00:09:02.925,-0.008,0.003,0.996,-0.061,0,0, , , , , , ,0.055,0.434,-115.95
 09:16:32.270,eb:33:2e:f9:57:b5, 2015-01-01 00:09:02.925,-0.007,0.002,0.997,0,0.122,0, , , , , , ,0.055,0.434,-115.95
 09:16:32.270,eb:33:2e:f9:57:b5, 2015-01-01 00:09:02.925,-0.008,0.003,0.996,0,0.183,0, , , , , , ,0.055,0.434,-115.95
 09:16:32.270,eb:33:2e:f9:57:b5, 2015-01-01 00:09:02.925,-0.011,0.003,0.996,0,0.183,0, , , , , , ,0.055,0.434,-115.95
 09:16:32.270,eb:33:2e:f9:57:b5, 2015-01-01 00:09:02.925,-0.011,0.003,0.995,0,0.122,0, , , , , , ,0.055,0.434,-115.95
 09:16:32.270,eb:33:2e:f9:57:b5, 2015-01-01 00:09:02.925,-0.01,0.004,0.994,0,0.061,0, , , , , , ,0.055,0.434,-115.95
 09:16:32.270,eb:33:2e:f9:57:b5, 2015-01-01 00:09:02.925,-0.009,0.003,0.995,0,0,0, , , , , , ,0.055,0.434,-115.95
 09:16:32.270,eb:33:2e:f9:57:b5, 2015-01-01 00:09:02.925,-0.008,0.004,0.995,0,0,0, , , , , , ,0.055,0.439,-115.95
 09:16:32.270,eb:33:2e:f9:57:b5, 2015-01-01 00:09:02.925,-0.008,0.004,0.995,0,0,0, , , , , , ,0.055,0.439,-115.95
 09:16:32.314,eb:33:2e:f9:57:b5, 2015-01-01 00:09:02.925,-0.009,0.004,0.995,0,0,0, , , , , , ,0.055,0.439,-115.95
 09:16:32.314,eb:33:2e:f9:57:b5, 2015-01-01 00:09:02.925,-0.008,0.004,0.994,0,-0.061,0, , , , , , ,0.055,0.439,-115.95
 09:16:32.314,eb:33:2e:f9:57:b5, 2015-01-01 00:09:02.925,-0.007,0.004,0.995,0,-0.061,0, , , , , , ,0.06,0.439,-115.95
 09:16:32.314,eb:33:2e:f9:57:b5, 2015-01-01 00:09:02.925,-0.007,0.003,0.996,0.061,0,0, , , , , , ,0.06,0.439,-115.95
 09:16:32.314,eb:33:2e:f9:57:b5, 2015-01-01 00:09:02.925,-0.008,0.003,0.996,0.061,0,0, , , , , , ,0.06,0.439,-115.95
 09:16:32.314,eb:33:2e:f9:57:b5, 2015-01-01 00:09:02.925,-0.009,0.004,0.995,0,0,0, , , , , , ,0.06,0.439,-115.95
 09:16:32.314,eb:33:2e:f9:57:b5, 2015-01-01 00:09:02.925,-0.008,0.004,0.995,0,0,0, , , , , , ,0.06,0.439,-115.95
 09:16:32.314,eb:33:2e:f9:57:b5, 2015-01-01 00:09:02.925,-0.009,0.004,0.994,0,0,0, , , , , , ,0.06,0.439,-115.95
 09:16:32.359,eb:33:2e:f9:57:b5, 2015-01-01 00:09:03.235,-0.008,0.004,0.995,0,0,0, , , , , , ,0.06,0.439,-115.95
 09:16:32.359,eb:33:2e:f9:57:b5, 2015-01-01 00:09:03.235,-0.008,0.004,0.994,0,0,-0.061, , , , , , ,0.06,0.439,-115.95
 09:16:32.359,eb:33:2e:f9:57:b5, 2015-01-01 00:09:03.235,-0.008,0.003,0.994,-0.061,-0.061,-0.061, , , , , , ,0.06,0.439,-115.95
 09:16:32.359,eb:33:2e:f9:57:b5, 2015-01-01 00:09:03.235,-0.008,0.003,0.995,0,-0.061,-0.061, , , , , , ,0.06,0.439,-115.95
 09:16:32.359,eb:33:2e:f9:57:b5, 2015-01-01 00:09:03.235,-0.008,0.003,0.996,0,0,0, , , , , , ,0.06,0.439,-115.95
 09:16:32.359,eb:33:2e:f9:57:b5, 2015-01-01 00:09:03.235,-0.009,0.002,0.996,0,0,0, , , , , , ,0.06,0.439,-115.95
 09:16:32.359,eb:33:2e:f9:57:b5, 2015-01-01 00:09:03.235,-0.009,0.004,0.995,0,0,-0.061, , , , , , ,0.06,0.439,-115.944
 09:16:32.359,eb:33:2e:f9:57:b5, 2015-01-01 00:09:03.235,-0.009,0.004,0.994,-0.061,0,-0.061, , , , , , ,0.06,0.439,-115.944
 09:16:32.404,eb:33:2e:f9:57:b5, 2015-01-01 00:09:03.235,-0.008,0.004,0.995,0,0,-0.061, , , , , , ,0.06,0.439,-115.944
 09:16:32.404,eb:33:2e:f9:57:b5, 2015-01-01 00:09:03.235,-0.009,0.004,0.994,0,0,-0.122, , , , , , ,0.06,0.439,-115.944
 09:16:32.404,eb:33:2e:f9:57:b5, 2015-01-01 00:09:03.235,-0.008,0.004,0.993,0,-0.122,-0.061, , , , , , ,0.06,0.439,-115.944
 09:16:32.404,eb:33:2e:f9:57:b5, 2015-01-01 00:09:03.235,-0.008,0.004,0.993,0,-0.122,-0.122, , , , , , ,0.06,0.439,-115.944
 09:16:32.404,eb:33:2e:f9:57:b5, 2015-01-01 00:09:03.235,-0.01,0.004,0.993,0,-0.244,-0.122, , , , , , ,0.06,0.439,-115.944
 09:16:32.404,eb:33:2e:f9:57:b5, 2015-01-01 00:09:03.235,-0.009,0.003,0.993,0,-0.305,0, , , , , , ,0.06,0.439,-115.944
 09:16:32.404,eb:33:2e:f9:57:b5, 2015-01-01 00:09:03.235,-0.009,0.003,0.993,-0.061,-0.305,-0.061, , , , , , ,0.066,0.439,-115.944
 09:16:32.405,eb:33:2e:f9:57:b5, 2015-01-01 00:09:03.235,-0.008,0.004,0.994,-0.061,-0.366,-0.061, , , , , , ,0.066,0.439,-115.944
 09:16:32.427,eb:33:2e:f9:57:b5, 2015-01-01 00:09:03.235,-0.006,0.004,0.994,-0.061,-0.366,-0.061, , , , , , ,0.066,0.439,-115.944
 09:16:32.427,eb:33:2e:f9:57:b5, 2015-01-01 00:09:03.235,-0.007,0.005,0.995,-0.122,-0.366,-0.061, , , , , , ,0.066,0.439,-115.944
 09:16:32.427,eb:33:2e:f9:57:b5, 2015-01-01 00:09:03.235,-0.008,0.004,0.994,-0.183,-0.305,-0.061, , , , , , ,0.066,0.439,-115.944
 09:16:32.427,eb:33:2e:f9:57:b5, 2015-01-01 00:09:03.235,-0.008,0.004,0.995,-0.122,-0.305,-0.061, , , , , , ,0.066,0.439,-115.944
 09:16:32.427,eb:33:2e:f9:57:b5, 2015-01-01 00:09:03.235,-0.007,0.003,0.995,-0.183,-0.305,-0.061, , , , , , ,0.066,0.439,-115.944
 09:16:32.427,eb:33:2e:f9:57:b5, 2015-01-01 00:09:03.235,-0.007,0.004,0.995,-0.122,-0.305,0, , , , , , ,0.066,0.439,-115.944
 09:16:32.427,eb:33:2e:f9:57:b5, 2015-01-01 00:09:03.235,-0.007,0.004,0.995,-0.122,-0.244,0, , , , , , ,0.066,0.439,-115.944
 09:16:32.427,eb:33:2e:f9:57:b5, 2015-01-01 00:09:03.235,-0.007,0.004,0.996,-0.122,-0.122,0, , , , , , ,0.066,0.439,-115.944
 09:16:32.471,eb:33:2e:f9:57:b5, 2015-01-01 00:09:03.235,-0.007,0.003,0.996,-0.061,-0.061,0, , , , , , ,0.066,0.439,-115.944
 09:16:32.471,eb:33:2e:f9:57:b5, 2015-01-01 00:09:03.235,-0.008,0.004,0.996,-0.122,-0.061,0, , , , , , ,0.066,0.439,-115.944
 09:16:32.471,eb:33:2e:f9:57:b5, 2015-01-01 00:09:03.235,-0.008,0.003,0.995,-0.061,-0.061,0, , , , , , ,0.066,0.439,-115.944
 09:16:32.471,eb:33:2e:f9:57:b5, 2015-01-01 00:09:03.235,-0.008,0.004,0.995,-0.122,-0.061,-0.061, , , , , , ,0.066,0.439,-115.944
 09:16:32.471,eb:33:2e:f9:57:b5, 2015-01-01 00:09:03.235,-0.009,0.003,0.995,-0.122,-0.122,-0.061, , , , , , ,0.066,0.439,-115.944
 09:16:32.471,eb:33:2e:f9:57:b5, 2015-01-01 00:09:03.235,-0.008,0.003,0.994,-0.122,-0.183,-0.061, , , , , , ,0.066,0.439,-115.944
 09:16:32.472,eb:33:2e:f9:57:b5, 2015-01-01 00:09:03.235,-0.007,0.003,0.994,-0.122,-0.183,0, , , , , , ,0.066,0.439,-115.944
 09:16:32.472,eb:33:2e:f9:57:b5, 2015-01-01 00:09:03.235,-0.007,0.003,0.995,-0.061,-0.183,0, , , , , , ,0.066,0.439,-115.944
 09:16:32.517,eb:33:2e:f9:57:b5, 2015-01-01 00:09:03.235,-0.006,0.003,0.996,-0.061,-0.244,0, , , , , , ,0.066,0.439,-115.944
 09:16:32.517,eb:33:2e:f9:57:b5, 2015-01-01 00:09:03.235,-0.008,0.005,0.995,-0.122,-0.122,0, , , , , , ,0.066,0.439,-115.944
 09:16:32.517,eb:33:2e:f9:57:b5, 2015-01-01 00:09:03.235,-0.009,0.004,0.994,-0.183,-0.122,0, , , , , , ,0.066,0.439,-115.944
 09:16:32.517,eb:33:2e:f9:57:b5, 2015-01-01 00:09:03.235,-0.008,0.003,0.994,-0.183,-0.183,0, , , , , , ,0.066,0.439,-115.944
 09:16:32.517,eb:33:2e:f9:57:b5, 2015-01-01 00:09:03.235,-0.006,0.003,0.994,-0.183,-0.244,-0.061, , , , , , ,0.066,0.439,-115.944
 09:16:32.517,eb:33:2e:f9:57:b5, 2015-01-01 00:09:03.235,-0.007,0.003,0.996,-0.122,-0.183,-0.061, , , , , , ,0.066,0.439,-115.944
 09:16:32.517,eb:33:2e:f9:57:b5, 2015-01-01 00:09:03.235,-0.007,0.003,0.996,-0.122,-0.183,0, , , , , , ,0.071,0.439,-115.944
 09:16:32.517,eb:33:2e:f9:57:b5, 2015-01-01 00:09:03.235,-0.008,0.003,0.995,-0.122,-0.183,0, , , , , , ,0.071,0.439,-115.944
 09:16:32.563,eb:33:2e:f9:57:b5, 2015-01-01 00:09:03.235,-0.008,0.002,0.995,-0.183,-0.244,-0.061, , , , , , ,0.071,0.439,-115.944
 09:16:32.563,eb:33:2e:f9:57:b5, 2015-01-01 00:09:03.235,-0.007,0.003,0.996,-0.122,-0.244,-0.061, , , , , , ,0.071,0.439,-115.944
 09:16:32.563,eb:33:2e:f9:57:b5, 2015-01-01 00:09:03.235,-0.007,0.003,0.996,-0.122,-0.183,-0.061, , , , , , ,0.071,0.439,-115.944
 09:16:32.563,eb:33:2e:f9:57:b5, 2015-01-01 00:09:03.235,-0.006,0.003,0.996,-0.061,-0.183,-0.061, , , , , , ,0.071,0.439,-115.944
 09:16:32.563,eb:33:2e:f9:57:b5, 2015-01-01 00:09:03.235,-0.007,0.003,0.996,-0.061,-0.061,-0.061, , , , , , ,0.071,0.439,-115.944
 09:16:32.563,eb:33:2e:f9:57:b5, 2015-01-01 00:09:03.235,-0.008,0.004,0.996,-0.061,-0.061,-0.061, , , , , , ,0.071,0.439,-115.944
 09:16:32.563,eb:33:2e:f9:57:b5, 2015-01-01 00:09:03.235,-0.008,0.003,0.995,-0.061,-0.061,0, , , , , , ,0.071,0.439,-115.944
 09:16:32.563,eb:33:2e:f9:57:b5, 2015-01-01 00:09:03.235,-0.008,0.002,0.995,-0.122,-0.061,-0.061, , , , , , ,0.071,0.439,-115.944
 09:16:32.607,eb:33:2e:f9:57:b5, 2015-01-01 00:09:03.235,-0.008,0.003,0.995,-0.122,-0.061,-0.061, , , , , , ,0.071,0.439,-115.944
 09:16:32.607,eb:33:2e:f9:57:b5, 2015-01-01 00:09:03.235,-0.007,0.004,0.994,-0.122,-0.183,0, , , , , , ,0.071,0.439,-115.944
 09:16:32.607,eb:33:2e:f9:57:b5, 2015-01-01 00:09:03.235,-0.007,0.003,0.995,-0.122,-0.122,0, , , , , , ,0.071,0.439,-115.944
 09:16:32.607,eb:33:2e:f9:57:b5, 2015-01-01 00:09:03.235,-0.007,0.003,0.995,0,-0.183,0, , , , , , ,0.071,0.439,-115.944
 09:16:32.607,eb:33:2e:f9:57:b5, 2015-01-01 00:09:03.235,-0.008,0.003,0.995,-0.061,-0.183,-0.061, , , , , , ,0.071,0.439,-115.944
 09:16:32.607,eb:33:2e:f9:57:b5, 2015-01-01 00:09:03.235,-0.008,0.003,0.994,-0.122,-0.183,-0.061, , , , , , ,0.071,0.439,-115.944
 09:16:32.607,eb:33:2e:f9:57:b5, 2015-01-01 00:09:03.235,-0.006,0.004,0.993,-0.122,-0.183,-0.122, , , , , , ,0.071,0.439,-115.944
 09:16:32.607,eb:33:2e:f9:57:b5, 2015-01-01 00:09:03.235,-0.006,0.003,0.995,-0.122,-0.183,-0.061, , , , , , ,0.071,0.439,-115.944
 09:16:32.630,eb:33:2e:f9:57:b5, 2015-01-01 00:09:03.235,-0.006,0.003,0.996,-0.122,-0.183,0, , , , , , ,0.071,0.439,-115.944
 09:16:32.630,eb:33:2e:f9:57:b5, 2015-01-01 00:09:03.235,-0.007,0.003,0.996,-0.061,-0.061,-0.061, , , , , , ,0.071,0.439,-115.944
 09:16:32.630,eb:33:2e:f9:57:b5, 2015-01-01 00:09:03.235,-0.009,0.003,0.996,-0.061,-0.122,0, , , , , , ,0.071,0.439,-115.944
 09:16:32.630,eb:33:2e:f9:57:b5, 2015-01-01 00:09:03.235,-0.007,0.002,0.995,-0.061,-0.122,0, , , , , , ,0.071,0.439,-115.944
 09:16:32.630,eb:33:2e:f9:57:b5, 2015-01-01 00:09:03.235,-0.006,0.002,0.995,-0.061,-0.183,0, , , , , , ,0.071,0.439,-115.944
 09:16:32.630,eb:33:2e:f9:57:b5, 2015-01-01 00:09:03.235,-0.005,0.003,0.996,-0.061,-0.122,0, , , , , , ,0.071,0.439,-115.944
 09:16:32.630,eb:33:2e:f9:57:b5, 2015-01-01 00:09:03.235,-0.007,0.002,0.996,0,-0.061,0, , , , , , ,0.071,0.439,-115.944
 09:16:32.630,eb:33:2e:f9:57:b5, 2015-01-01 00:09:03.235,-0.007,0.002,0.996,0,-0.061,0, , , , , , ,0.071,0.439,-115.944
 09:16:32.676,eb:33:2e:f9:57:b5, 2015-01-01 00:09:03.235,-0.005,0.003,0.994,0,-0.122,-0.061, , , , , , ,0.071,0.439,-115.944
 09:16:32.676,eb:33:2e:f9:57:b5, 2015-01-01 00:09:03.235,-0.006,0.003,0.996,0,-0.061,0, , , , , , ,0.071,0.439,-115.944
 09:16:32.676,eb:33:2e:f9:57:b5, 2015-01-01 00:09:03.235,-0.006,0.002,0.996,0,-0.061,0.061, , , , , , ,0.071,0.439,-115.944
 09:16:32.676,eb:33:2e:f9:57:b5, 2015-01-01 00:09:03.235,-0.007,0.002,0.995,0,0,0, , , , , , ,0.071,0.439,-115.944
 09:16:32.676,eb:33:2e:f9:57:b5, 2015-01-01 00:09:03.235,-0.006,0.002,0.994,0,0,0, , , , , , ,0.071,0.439,-115.944
 09:16:32.676,eb:33:2e:f9:57:b5, 2015-01-01 00:09:03.235,-0.006,0.003,0.995,0,0,0, , , , , , ,0.071,0.439,-115.944
 09:16:32.676,eb:33:2e:f9:57:b5, 2015-01-01 00:09:03.235,-0.006,0.004,0.995,0,0.061,0, , , , , , ,0.077,0.439,-115.944
 09:16:32.676,eb:33:2e:f9:57:b5, 2015-01-01 00:09:03.235,-0.006,0.003,0.994,0,0.061,0, , , , , , ,0.077,0.439,-115.944
 09:16:32.742,eb:33:2e:f9:57:b5, 2015-01-01 00:09:03.235,-0.008,0.003,0.994,0,0,0, , , , , , ,0.077,0.439,-115.944
 09:16:32.743,eb:33:2e:f9:57:b5, 2015-01-01 00:09:03.235,-0.007,0.003,0.994,0,0,0, , , , , , ,0.077,0.439,-115.944
 09:16:32.743,eb:33:2e:f9:57:b5, 2015-01-01 00:09:03.235,-0.005,0.004,0.994,-0.061,0.061,0, , , , , , ,0.077,0.439,-115.944
 09:16:32.743,eb:33:2e:f9:57:b5, 2015-01-01 00:09:03.235,-0.007,0.003,0.995,-0.061,0.061,0, , , , , , ,0.077,0.439,-115.944
 09:16:32.743,eb:33:2e:f9:57:b5, 2015-01-01 00:09:03.235,-0.007,0.002,0.995,-0.061,0.061,0, , , , , , ,0.077,0.439,-115.944
 09:16:32.743,eb:33:2e:f9:57:b5, 2015-01-01 00:09:03.235,-0.006,0.002,0.995,-0.061,0,0, , , , , , ,0.077,0.439,-115.944
 09:16:32.743,eb:33:2e:f9:57:b5, 2015-01-01 00:09:03.235,-0.007,0.003,0.995,0,0.061,0, , , , , , ,0.077,0.439,-115.944
 09:16:32.743,eb:33:2e:f9:57:b5, 2015-01-01 00:09:03.235,-0.007,0.003,0.995,-0.061,0,0, , , , , , ,0.077,0.439,-115.944
 09:16:32.765,eb:33:2e:f9:57:b5, 2015-01-01 00:09:03.640,-0.007,0.003,0.994,-0.061,0.061,0, , , , , , ,0.077,0.439,-115.944
 09:16:32.765,eb:33:2e:f9:57:b5, 2015-01-01 00:09:03.640,-0.007,0.003,0.994,-0.061,0,0, , , , , , ,0.077,0.439,-115.944
 09:16:32.765,eb:33:2e:f9:57:b5, 2015-01-01 00:09:03.640,-0.005,0.004,0.994,-0.061,0,0, , , , , , ,0.077,0.439,-115.944
 09:16:32.765,eb:33:2e:f9:57:b5, 2015-01-01 00:09:03.640,-0.005,0.004,0.996,-0.122,0,0, , , , , , ,0.077,0.439,-115.944
 09:16:32.765,eb:33:2e:f9:57:b5, 2015-01-01 00:09:03.640,-0.006,0.003,0.995,-0.122,0,0.061, , , , , , ,0.077,0.439,-115.944
 09:16:32.765,eb:33:2e:f9:57:b5, 2015-01-01 00:09:03.640,-0.007,0.003,0.995,0,0,0, , , , , , ,0.077,0.439,-115.944
 09:16:32.765,eb:33:2e:f9:57:b5, 2015-01-01 00:09:03.640,-0.006,0.003,0.996,0,0,0, , , , , , ,0.077,0.439,-115.944
 09:16:32.766,eb:33:2e:f9:57:b5, 2015-01-01 00:09:03.640,-0.006,0.002,0.996,0,0,0, , , , , , ,0.077,0.439,-115.944
 09:16:32.788,eb:33:2e:f9:57:b5, 2015-01-01 00:09:03.640,-0.007,0.002,0.996,0,0.061,0, , , , , , ,0.077,0.439,-115.939
 09:16:32.788,eb:33:2e:f9:57:b5, 2015-01-01 00:09:03.640,-0.007,0.002,0.995,0,0.061,0.061, , , , , , ,0.077,0.439,-115.939
 09:16:32.788,eb:33:2e:f9:57:b5, 2015-01-01 00:09:03.640,-0.006,0.002,0.995,0.061,0.061,0, , , , , , ,0.077,0.439,-115.939
 09:16:32.788,eb:33:2e:f9:57:b5, 2015-01-01 00:09:03.640,-0.006,0.004,0.995,0,0.122,0, , , , , , ,0.077,0.439,-115.939
 09:16:32.788,eb:33:2e:f9:57:b5, 2015-01-01 00:09:03.640,-0.007,0.004,0.995,0,0.061,0, , , , , , ,0.077,0.439,-115.939
 09:16:32.788,eb:33:2e:f9:57:b5, 2015-01-01 00:09:03.640,-0.008,0.003,0.995,0,0.122,0, , , , , , ,0.077,0.439,-115.939
 09:16:32.788,eb:33:2e:f9:57:b5, 2015-01-01 00:09:03.640,-0.008,0.003,0.995,0.061,0.122,0, , , , , , ,0.077,0.439,-115.939
 09:16:32.788,eb:33:2e:f9:57:b5, 2015-01-01 00:09:03.640,-0.007,0.003,0.995,0,0.061,0, , , , , , ,0.077,0.439,-115.939
 09:16:32.833,eb:33:2e:f9:57:b5, 2015-01-01 00:09:03.640,-0.007,0.003,0.996,0.061,0.061,0, , , , , , ,0.077,0.439,-115.939
 09:16:32.833,eb:33:2e:f9:57:b5, 2015-01-01 00:09:03.640,-0.007,0.002,0.996,0.061,0.061,0, , , , , , ,0.077,0.439,-115.939
 09:16:32.833,eb:33:2e:f9:57:b5, 2015-01-01 00:09:03.640,-0.006,0.004,0.995,0.061,0.061,0.061, , , , , , ,0.077,0.439,-115.939
 09:16:32.833,eb:33:2e:f9:57:b5, 2015-01-01 00:09:03.640,-0.007,0.003,0.994,0.061,0.061,0, , , , , , ,0.077,0.439,-115.939
 09:16:32.833,eb:33:2e:f9:57:b5, 2015-01-01 00:09:03.640,-0.007,0.003,0.994,0.061,0.061,0.061, , , , , , ,0.077,0.439,-115.939
 09:16:32.833,eb:33:2e:f9:57:b5, 2015-01-01 00:09:03.640,-0.008,0.004,0.993,0,0.061,0, , , , , , ,0.077,0.439,-115.939
 09:16:32.833,eb:33:2e:f9:57:b5, 2015-01-01 00:09:03.640,-0.008,0.003,0.993,0,0.061,0, , , , , , ,0.077,0.439,-115.939
 09:16:32.833,eb:33:2e:f9:57:b5, 2015-01-01 00:09:03.640,-0.008,0.003,0.994,0,-0.061,0, , , , , , ,0.077,0.439,-115.939
 09:16:32.876,eb:33:2e:f9:57:b5, 2015-01-01 00:09:03.640,-0.007,0.004,0.994,0,-0.061,0, , , , , , ,0.077,0.439,-115.939
 09:16:32.876,eb:33:2e:f9:57:b5, 2015-01-01 00:09:03.640,-0.007,0.003,0.994,0,-0.122,0, , , , , , ,0.077,0.439,-115.939
 09:16:32.876,eb:33:2e:f9:57:b5, 2015-01-01 00:09:03.640,-0.007,0.003,0.994,0,-0.061,0, , , , , , ,0.082,0.439,-115.939
 09:16:32.876,eb:33:2e:f9:57:b5, 2015-01-01 00:09:03.640,-0.006,0.004,0.994,0,-0.061,0, , , , , , ,0.082,0.439,-115.939
 09:16:32.876,eb:33:2e:f9:57:b5, 2015-01-01 00:09:03.640,-0.006,0.003,0.995,-0.061,-0.061,0, , , , , , ,0.082,0.439,-115.939
 09:16:32.876,eb:33:2e:f9:57:b5, 2015-01-01 00:09:03.640,-0.006,0.002,0.996,0,-0.061,0, , , , , , ,0.082,0.439,-115.939
 09:16:32.876,eb:33:2e:f9:57:b5, 2015-01-01 00:09:03.640,-0.005,0.002,0.995,0,0,0, , , , , , ,0.082,0.439,-115.939
 09:16:32.876,eb:33:2e:f9:57:b5, 2015-01-01 00:09:03.640,-0.006,0.003,0.996,0,0,0, , , , , , ,0.082,0.439,-115.939
 09:16:32.923,eb:33:2e:f9:57:b5, 2015-01-01 00:09:03.640,-0.005,0.003,0.995,0,0.061,0, , , , , , ,0.082,0.439,-115.939
 09:16:32.923,eb:33:2e:f9:57:b5, 2015-01-01 00:09:03.640,-0.006,0.003,0.995,0,0.061,0, , , , , , ,0.082,0.439,-115.939
 09:16:32.923,eb:33:2e:f9:57:b5, 2015-01-01 00:09:03.640,-0.007,0.003,0.994,-0.061,0.061,0.061, , , , , , ,0.082,0.434,-115.939
 09:16:32.923,eb:33:2e:f9:57:b5, 2015-01-01 00:09:03.640,-0.007,0.003,0.995,0,0.061,0, , , , , , ,0.082,0.434,-115.939
 09:16:32.923,eb:33:2e:f9:57:b5, 2015-01-01 00:09:03.640,-0.007,0.003,0.996,0,0.061,0.061, , , , , , ,0.082,0.434,-115.939
 09:16:32.923,eb:33:2e:f9:57:b5, 2015-01-01 00:09:03.640,-0.007,0.003,0.996,0,0.061,0.061, , , , , , ,0.082,0.434,-115.939
 09:16:32.923,eb:33:2e:f9:57:b5, 2015-01-01 00:09:03.640,-0.007,0.002,0.996,0,0.061,0.061, , , , , , ,0.082,0.434,-115.939
 09:16:32.923,eb:33:2e:f9:57:b5, 2015-01-01 00:09:03.640,-0.008,0.002,0.995,0,0.061,0.061, , , , , , ,0.082,0.434,-115.939
 09:16:32.967,eb:33:2e:f9:57:b5, 2015-01-01 00:09:03.640,-0.007,0.003,0.994,0,0,0.061, , , , , , ,0.082,0.434,-115.939
 09:16:32.967,eb:33:2e:f9:57:b5, 2015-01-01 00:09:03.640,-0.006,0.002,0.994,0,0,0, , , , , , ,0.082,0.434,-115.939
 09:16:32.967,eb:33:2e:f9:57:b5, 2015-01-01 00:09:03.640,-0.006,0.003,0.995,0,0,0.061, , , , , , ,0.082,0.434,-115.939
 09:16:32.967,eb:33:2e:f9:57:b5, 2015-01-01 00:09:03.640,-0.007,0.003,0.995,0,0,0.122, , , , , , ,0.082,0.434,-115.939
 09:16:32.967,eb:33:2e:f9:57:b5, 2015-01-01 00:09:03.640,-0.007,0.003,0.995,0,0,0.061, , , , , , ,0.082,0.434,-115.939
 09:16:32.967,eb:33:2e:f9:57:b5, 2015-01-01 00:09:03.640,-0.006,0.003,0.995,0,0,0.061, , , , , , ,0.082,0.434,-115.939
 09:16:32.968,eb:33:2e:f9:57:b5, 2015-01-01 00:09:03.640,-0.006,0.003,0.995,0,0,0.061, , , , , , ,0.082,0.434,-115.939
 09:16:32.968,eb:33:2e:f9:57:b5, 2015-01-01 00:09:03.640,-0.007,0.003,0.994,0,0,0, , , , , , ,0.082,0.434,-115.939
 09:16:33.013,eb:33:2e:f9:57:b5, 2015-01-01 00:09:03.640,-0.007,0.003,0.995,0,0,0.061, , , , , , ,0.082,0.434,-115.939
 09:16:33.013,eb:33:2e:f9:57:b5, 2015-01-01 00:09:03.640,-0.005,0.003,0.995,0.061,0,0.061, , , , , , ,0.082,0.434,-115.939
 09:16:33.013,eb:33:2e:f9:57:b5, 2015-01-01 00:09:03.640,-0.006,0.003,0.995,0,0,0.061, , , , , , ,0.082,0.434,-115.939
 09:16:33.013,eb:33:2e:f9:57:b5, 2015-01-01 00:09:03.640,-0.006,0.003,0.995,0,0,0, , , , , , ,0.082,0.434,-115.939
 09:16:33.013,eb:33:2e:f9:57:b5, 2015-01-01 00:09:03.640,-0.007,0.003,0.994,0,0,0, , , , , , ,0.082,0.434,-115.939
 09:16:33.013,eb:33:2e:f9:57:b5, 2015-01-01 00:09:03.640,-0.006,0.003,0.994,0,0,0, , , , , , ,0.082,0.434,-115.939
 09:16:33.013,eb:33:2e:f9:57:b5, 2015-01-01 00:09:03.640,-0.006,0.002,0.995,0,0,0, , , , , , ,0.082,0.434,-115.939
 09:16:33.013,eb:33:2e:f9:57:b5, 2015-01-01 00:09:03.640,-0.006,0.004,0.995,0,0.061,0, , , , , , ,0.082,0.434,-115.939
 09:16:33.034,eb:33:2e:f9:57:b5, 2015-01-01 00:09:03.640,-0.006,0.004,0.994,-0.061,0.061,0, , , , , , ,0.082,0.434,-115.939
 09:16:33.034,eb:33:2e:f9:57:b5, 2015-01-01 00:09:03.640,-0.006,0.004,0.994,0,0.061,0, , , , , , ,0.082,0.434,-115.939
 09:16:33.034,eb:33:2e:f9:57:b5, 2015-01-01 00:09:03.640,-0.005,0.003,0.994,0,0.122,0, , , , , , ,0.082,0.434,-115.939
 09:16:33.034,eb:33:2e:f9:57:b5, 2015-01-01 00:09:03.640,-0.007,0.003,0.996,0,0.122,0, , , , , , ,0.082,0.434,-115.939
 09:16:33.034,eb:33:2e:f9:57:b5, 2015-01-01 00:09:03.640,-0.009,0.003,0.994,0,0.061,0, , , , , , ,0.082,0.434,-115.939
 09:16:33.034,eb:33:2e:f9:57:b5, 2015-01-01 00:09:03.640,-0.009,0.003,0.994,0,0,0.061, , , , , , ,0.082,0.434,-115.939
 09:16:33.034,eb:33:2e:f9:57:b5, 2015-01-01 00:09:03.640,-0.008,0.002,0.995,0,0,0, , , , , , ,0.088,0.434,-115.939
 09:16:33.034,eb:33:2e:f9:57:b5, 2015-01-01 00:09:03.640,-0.007,0.002,0.995,0,0,0, , , , , , ,0.088,0.434,-115.939
 09:16:33.080,eb:33:2e:f9:57:b5, 2015-01-01 00:09:03.640,-0.007,0.003,0.995,0,-0.061,0.061, , , , , , ,0.088,0.434,-115.939
 09:16:33.080,eb:33:2e:f9:57:b5, 2015-01-01 00:09:03.640,-0.006,0.002,0.994,0,-0.122,0, , , , , , ,0.088,0.434,-115.939
 09:16:33.080,eb:33:2e:f9:57:b5, 2015-01-01 00:09:03.640,-0.004,0.003,0.996,0,-0.122,0, , , , , , ,0.088,0.434,-115.939
 09:16:33.080,eb:33:2e:f9:57:b5, 2015-01-01 00:09:03.640,-0.004,0.002,0.997,0,0,0, , , , , , ,0.088,0.434,-115.939
 09:16:33.080,eb:33:2e:f9:57:b5, 2015-01-01 00:09:03.640,-0.005,0.003,0.996,0.061,0,0, , , , , , ,0.088,0.434,-115.939
 09:16:33.080,eb:33:2e:f9:57:b5, 2015-01-01 00:09:03.640,-0.007,0.003,0.996,0.061,0.061,0.061, , , , , , ,0.088,0.434,-115.939
 09:16:33.080,eb:33:2e:f9:57:b5, 2015-01-01 00:09:03.640,-0.006,0.002,0.996,0,0.061,0, , , , , , ,0.088,0.434,-115.939
 09:16:33.080,eb:33:2e:f9:57:b5, 2015-01-01 00:09:03.640,-0.006,0.003,0.995,0.061,0.061,0, , , , , , ,0.088,0.434,-115.939
 09:16:33.126,eb:33:2e:f9:57:b5, 2015-01-01 00:09:03.995,-0.007,0.003,0.995,0.061,0.061,0.061, , , , , , ,0.088,0.434,-115.939
 09:16:33.126,eb:33:2e:f9:57:b5, 2015-01-01 00:09:03.995,-0.007,0.003,0.995,0,0.061,0, , , , , , ,0.088,0.434,-115.939
 09:16:33.126,eb:33:2e:f9:57:b5, 2015-01-01 00:09:03.995,-0.006,0.003,0.995,0.061,0,0, , , , , , ,0.088,0.434,-115.939
 09:16:33.126,eb:33:2e:f9:57:b5, 2015-01-01 00:09:03.995,-0.006,0.003,0.994,0,0,0, , , , , , ,0.088,0.434,-115.939
 09:16:33.126,eb:33:2e:f9:57:b5, 2015-01-01 00:09:03.995,-0.006,0.003,0.993,0,0,0, , , , , , ,0.088,0.434,-115.939
 09:16:33.126,eb:33:2e:f9:57:b5, 2015-01-01 00:09:03.995,-0.006,0.003,0.994,0,0,0.061, , , , , , ,0.088,0.434,-115.939
 09:16:33.126,eb:33:2e:f9:57:b5, 2015-01-01 00:09:03.995,-0.007,0.003,0.994,0,0,0.061, , , , , , ,0.088,0.434,-115.939
 09:16:33.127,eb:33:2e:f9:57:b5, 2015-01-01 00:09:03.995,-0.006,0.003,0.994,-0.061,0,0, , , , , , ,0.088,0.434,-115.939
 09:16:33.169,eb:33:2e:f9:57:b5, 2015-01-01 00:09:03.995,-0.007,0.004,0.994,-0.122,0.061,0.061, , , , , , ,0.088,0.434,-115.939
 09:16:33.169,eb:33:2e:f9:57:b5, 2015-01-01 00:09:03.995,-0.007,0.003,0.994,-0.061,0,0.061, , , , , , ,0.088,0.434,-115.939
 09:16:33.169,eb:33:2e:f9:57:b5, 2015-01-01 00:09:03.995,-0.007,0.003,0.994,-0.061,0,0, , , , , , ,0.088,0.434,-115.939
 09:16:33.169,eb:33:2e:f9:57:b5, 2015-01-01 00:09:03.995,-0.006,0.003,0.994,-0.061,0,0, , , , , , ,0.088,0.434,-115.939
 09:16:33.169,eb:33:2e:f9:57:b5, 2015-01-01 00:09:03.995,-0.007,0.003,0.995,-0.122,0,0, , , , , , ,0.088,0.434,-115.939
 09:16:33.169,eb:33:2e:f9:57:b5, 2015-01-01 00:09:03.995,-0.007,0.003,0.995,-0.122,0,0, , , , , , ,0.088,0.434,-115.939
 09:16:33.169,eb:33:2e:f9:57:b5, 2015-01-01 00:09:03.995,-0.007,0.002,0.994,-0.122,0,0, , , , , , ,0.088,0.434,-115.939
 09:16:33.171,eb:33:2e:f9:57:b5, 2015-01-01 00:09:03.995,-0.006,0.003,0.996,-0.061,-0.061,0, , , , , , ,0.088,0.434,-115.939
 09:16:33.193,eb:33:2e:f9:57:b5, 2015-01-01 00:09:03.995,-0.006,0.002,0.997,-0.061,0,0, , , , , , ,0.088,0.434,-115.939
 09:16:33.193,eb:33:2e:f9:57:b5, 2015-01-01 00:09:03.995,-0.007,0.002,0.996,0,0,0, , , , , , ,0.088,0.434,-115.939
 09:16:33.193,eb:33:2e:f9:57:b5, 2015-01-01 00:09:03.995,-0.006,0.003,0.995,0,0,0, , , , , , ,0.088,0.434,-115.939
 09:16:33.193,eb:33:2e:f9:57:b5, 2015-01-01 00:09:03.995,-0.007,0.003,0.996,0,0,0, , , , , , ,0.088,0.434,-115.939
 09:16:33.193,eb:33:2e:f9:57:b5, 2015-01-01 00:09:03.995,-0.005,0.003,0.995,0,0,0, , , , , , ,0.088,0.434,-115.939
 09:16:33.193,eb:33:2e:f9:57:b5, 2015-01-01 00:09:03.995,-0.007,0.002,0.996,0,0,0, , , , , , ,0.088,0.434,-115.939
 09:16:33.193,eb:33:2e:f9:57:b5, 2015-01-01 00:09:03.995,-0.007,0.001,0.995,0,0.061,0.061, , , , , , ,0.088,0.434,-115.939
 09:16:33.193,eb:33:2e:f9:57:b5, 2015-01-01 00:09:03.995,-0.007,0.002,0.994,0.061,0,0, , , , , , ,0.088,0.434,-115.939
 09:16:33.238,eb:33:2e:f9:57:b5, 2015-01-01 00:09:03.995,-0.006,0.003,0.996,0,0,0, , , , , , ,0.088,0.434,-115.939
 09:16:33.238,eb:33:2e:f9:57:b5, 2015-01-01 00:09:03.995,-0.006,0.003,0.995,0.061,0,0, , , , , , ,0.088,0.434,-115.939
 09:16:33.238,eb:33:2e:f9:57:b5, 2015-01-01 00:09:03.995,-0.007,0.002,0.996,0.061,0,0, , , , , , ,0.088,0.434,-115.939
 09:16:33.238,eb:33:2e:f9:57:b5, 2015-01-01 00:09:03.995,-0.007,0.002,0.997,0.061,0.061,0, , , , , , ,0.088,0.434,-115.939
 09:16:33.238,eb:33:2e:f9:57:b5, 2015-01-01 00:09:03.995,-0.007,0.003,0.995,0.061,0,0, , , , , , ,0.088,0.434,-115.939
 09:16:33.238,eb:33:2e:f9:57:b5, 2015-01-01 00:09:03.995,-0.007,0.003,0.995,0.061,0,0, , , , , , ,0.088,0.434,-115.939
 09:16:33.238,eb:33:2e:f9:57:b5, 2015-01-01 00:09:03.995,-0.005,0.003,0.994,0.061,0.061,0.061, , , , , , ,0.093,0.434,-115.939
 09:16:33.238,eb:33:2e:f9:57:b5, 2015-01-01 00:09:03.995,-0.006,0.003,0.996,0.061,0,0, , , , , , ,0.093,0.434,-115.939
 09:16:33.282,eb:33:2e:f9:57:b5, 2015-01-01 00:09:03.995,-0.007,0.003,0.995,0.061,0.061,0, , , , , , ,0.093,0.434,-115.939
 09:16:33.282,eb:33:2e:f9:57:b5, 2015-01-01 00:09:03.995,-0.007,0.004,0.994,0,0.061,0, , , , , , ,0.093,0.434,-115.939
 09:16:33.282,eb:33:2e:f9:57:b5, 2015-01-01 00:09:03.995,-0.007,0.003,0.994,0,0.061,0, , , , , , ,0.093,0.434,-115.939
 09:16:33.282,eb:33:2e:f9:57:b5, 2015-01-01 00:09:03.995,-0.007,0.004,0.994,0,0.061,0, , , , , , ,0.093,0.434,-115.939
 09:16:33.282,eb:33:2e:f9:57:b5, 2015-01-01 00:09:03.995,-0.006,0.003,0.994,0,0.061,0, , , , , , ,0.093,0.434,-115.939
 09:16:33.282,eb:33:2e:f9:57:b5, 2015-01-01 00:09:03.995,-0.006,0.003,0.994,0,0,0, , , , , , ,0.093,0.434,-115.939
 09:16:33.282,eb:33:2e:f9:57:b5, 2015-01-01 00:09:03.995,-0.007,0.003,0.994,-0.061,0,0, , , , , , ,0.093,0.434,-115.939
 09:16:33.282,eb:33:2e:f9:57:b5, 2015-01-01 00:09:03.995,-0.007,0.003,0.994,-0.122,0,0, , , , , , ,0.093,0.434,-115.939
 09:16:33.327,eb:33:2e:f9:57:b5, 2015-01-01 00:09:03.995,-0.008,0.003,0.995,-0.061,-0.061,0, , , , , , ,0.093,0.434,-115.939
 09:16:33.327,eb:33:2e:f9:57:b5, 2015-01-01 00:09:03.995,-0.007,0.002,0.995,-0.122,-0.061,0, , , , , , ,0.093,0.434,-115.939
 09:16:33.327,eb:33:2e:f9:57:b5, 2015-01-01 00:09:03.995,-0.006,0.002,0.995,-0.061,-0.122,0, , , , , , ,0.093,0.434,-115.939
 09:16:33.327,eb:33:2e:f9:57:b5, 2015-01-01 00:09:03.995,-0.006,0.002,0.996,-0.061,-0.122,0, , , , , , ,0.093,0.434,-115.939
 09:16:33.327,eb:33:2e:f9:57:b5, 2015-01-01 00:09:03.995,-0.004,0.002,0.996,-0.061,-0.061,0, , , , , , ,0.093,0.434,-115.939
 09:16:33.327,eb:33:2e:f9:57:b5, 2015-01-01 00:09:03.995,-0.005,0.002,0.998,0,-0.061,0, , , , , , ,0.093,0.434,-115.939
 09:16:33.327,eb:33:2e:f9:57:b5, 2015-01-01 00:09:03.995,-0.007,0.001,0.996,0,0,0, , , , , , ,0.093,0.434,-115.939
 09:16:33.327,eb:33:2e:f9:57:b5, 2015-01-01 00:09:03.995,-0.005,0.002,0.996,0.061,0,0, , , , , , ,0.093,0.434,-115.939
 09:16:33.373,eb:33:2e:f9:57:b5, 2015-01-01 00:09:03.995,-0.005,0.002,0.997,0.122,0,-0.061, , , , , , ,0.093,0.434,-115.939
 09:16:33.373,eb:33:2e:f9:57:b5, 2015-01-01 00:09:03.995,-0.006,0.003,0.996,0.122,0,0, , , , , , ,0.093,0.434,-115.939
 09:16:33.373,eb:33:2e:f9:57:b5, 2015-01-01 00:09:03.995,-0.006,0.003,0.996,0.122,0,0, , , , , , ,0.093,0.434,-115.939
 09:16:33.373,eb:33:2e:f9:57:b5, 2015-01-01 00:09:03.995,-0.006,0.003,0.995,0.122,0,0, , , , , , ,0.093,0.434,-115.939
 09:16:33.373,eb:33:2e:f9:57:b5, 2015-01-01 00:09:03.995,-0.007,0.003,0.994,0.122,0,0, , , , , , ,0.093,0.434,-115.939
 09:16:33.373,eb:33:2e:f9:57:b5, 2015-01-01 00:09:03.995,-0.007,0.003,0.994,0.122,0,0, , , , , , ,0.093,0.434,-115.939
 09:16:33.373,eb:33:2e:f9:57:b5, 2015-01-01 00:09:03.995,-0.008,0.004,0.993,0.061,0,0, , , , , , ,0.093,0.428,-115.939
 09:16:33.373,eb:33:2e:f9:57:b5, 2015-01-01 00:09:03.995,-0.008,0.004,0.993,0.061,0,0, , , , , , ,0.093,0.428,-115.939
 09:16:33.396,eb:33:2e:f9:57:b5, 2015-01-01 00:09:04.285,-0.006,0.004,0.994,0.061,-0.061,0, , , , , , ,0.093,0.428,-115.939
 09:16:33.396,eb:33:2e:f9:57:b5, 2015-01-01 00:09:04.285,-0.006,0.003,0.995,0.122,0,0, , , , , , ,0.093,0.428,-115.939
 09:16:33.396,eb:33:2e:f9:57:b5, 2015-01-01 00:09:04.285,-0.006,0.003,0.995,0.061,-0.061,0, , , , , , ,0.093,0.428,-115.939
 09:16:33.396,eb:33:2e:f9:57:b5, 2015-01-01 00:09:04.285,-0.006,0.003,0.995,0.061,-0.061,0, , , , , , ,0.093,0.428,-115.939
 09:16:33.396,eb:33:2e:f9:57:b5, 2015-01-01 00:09:04.285,-0.007,0.003,0.994,0.061,0,0, , , , , , ,0.093,0.428,-115.939
 09:16:33.396,eb:33:2e:f9:57:b5, 2015-01-01 00:09:04.285,-0.007,0.004,0.993,0.061,0,0, , , , , , ,0.093,0.428,-115.939
 09:16:33.396,eb:33:2e:f9:57:b5, 2015-01-01 00:09:04.285,-0.007,0.004,0.993,0,-0.061,0, , , , , , ,0.093,0.428,-115.939
 09:16:33.396,eb:33:2e:f9:57:b5, 2015-01-01 00:09:04.285,-0.007,0.004,0.994,0,-0.122,0, , , , , , ,0.093,0.428,-115.939
 09:16:33.439,eb:33:2e:f9:57:b5, 2015-01-01 00:09:04.285,-0.005,0.003,0.994,-0.061,-0.122,-0.061, , , , , , ,0.093,0.428,-115.939
 09:16:33.439,eb:33:2e:f9:57:b5, 2015-01-01 00:09:04.285,-0.004,0.002,0.995,0,-0.061,-0.061, , , , , , ,0.093,0.428,-115.939
 09:16:33.439,eb:33:2e:f9:57:b5, 2015-01-01 00:09:04.285,-0.005,0.003,0.997,0,0,-0.061, , , , , , ,0.093,0.428,-115.939
 09:16:33.439,eb:33:2e:f9:57:b5, 2015-01-01 00:09:04.285,-0.006,0.003,0.996,0,0,-0.061, , , , , , ,0.093,0.428,-115.939
 09:16:33.439,eb:33:2e:f9:57:b5, 2015-01-01 00:09:04.285,-0.006,0.002,0.995,0,0,-0.061, , , , , , ,0.093,0.428,-115.939
 09:16:33.439,eb:33:2e:f9:57:b5, 2015-01-01 00:09:04.285,-0.007,0.002,0.995,0,0,-0.061, , , , , , ,0.093,0.428,-115.939
 09:16:33.439,eb:33:2e:f9:57:b5, 2015-01-01 00:09:04.285,-0.007,0.002,0.995,0.061,-0.061,-0.061, , , , , , ,0.093,0.428,-115.933
 09:16:33.439,eb:33:2e:f9:57:b5, 2015-01-01 00:09:04.285,-0.007,0.001,0.995,0.122,-0.122,-0.061, , , , , , ,0.093,0.428,-115.933
 09:16:33.485,eb:33:2e:f9:57:b5, 2015-01-01 00:09:04.285,-0.005,0.001,0.996,0.183,-0.122,-0.061, , , , , , ,0.093,0.428,-115.933
 09:16:33.485,eb:33:2e:f9:57:b5, 2015-01-01 00:09:04.285,-0.006,0.001,0.997,0.183,-0.122,-0.061, , , , , , ,0.093,0.428,-115.933
 09:16:33.485,eb:33:2e:f9:57:b5, 2015-01-01 00:09:04.285,-0.006,0.003,0.996,0.244,-0.061,-0.061, , , , , , ,0.093,0.428,-115.933
 09:16:33.485,eb:33:2e:f9:57:b5, 2015-01-01 00:09:04.285,-0.007,0.003,0.995,0.244,-0.122,0, , , , , , ,0.093,0.428,-115.933
 09:16:33.485,eb:33:2e:f9:57:b5, 2015-01-01 00:09:04.285,-0.006,0.002,0.995,0.244,-0.183,-0.061, , , , , , ,0.093,0.428,-115.933
 09:16:33.486,eb:33:2e:f9:57:b5, 2015-01-01 00:09:04.285,-0.005,0.002,0.994,0.244,-0.183,-0.061, , , , , , ,0.093,0.428,-115.933
 09:16:33.486,eb:33:2e:f9:57:b5, 2015-01-01 00:09:04.285,-0.006,0.003,0.995,0.305,-0.183,-0.061, , , , , , ,0.099,0.428,-115.933
 09:16:33.486,eb:33:2e:f9:57:b5, 2015-01-01 00:09:04.285,-0.007,0.003,0.995,0.244,-0.122,-0.122, , , , , , ,0.099,0.428,-115.933
 09:16:33.528,eb:33:2e:f9:57:b5, 2015-01-01 00:09:04.285,-0.006,0.003,0.995,0.244,-0.244,-0.122, , , , , , ,0.099,0.428,-115.933
 09:16:33.528,eb:33:2e:f9:57:b5, 2015-01-01 00:09:04.285,-0.006,0.004,0.995,0.244,-0.244,-0.122, , , , , , ,0.099,0.428,-115.933
 09:16:33.528,eb:33:2e:f9:57:b5, 2015-01-01 00:09:04.285,-0.006,0.002,0.994,0.244,-0.244,-0.122, , , , , , ,0.099,0.428,-115.933
 09:16:33.528,eb:33:2e:f9:57:b5, 2015-01-01 00:09:04.285,-0.006,0.003,0.995,0.244,-0.305,-0.122, , , , , , ,0.099,0.428,-115.933
 09:16:33.528,eb:33:2e:f9:57:b5, 2015-01-01 00:09:04.285,-0.006,0.003,0.994,0.305,-0.305,-0.183, , , , , , ,0.099,0.428,-115.933
 09:16:33.528,eb:33:2e:f9:57:b5, 2015-01-01 00:09:04.285,-0.006,0.004,0.994,0.305,-0.305,-0.183, , , , , , ,0.099,0.428,-115.933
 09:16:33.528,eb:33:2e:f9:57:b5, 2015-01-01 00:09:04.285,-0.005,0.004,0.994,0.244,-0.366,-0.183, , , , , , ,0.099,0.428,-115.933
 09:16:33.528,eb:33:2e:f9:57:b5, 2015-01-01 00:09:04.285,-0.004,0.003,0.995,0.244,-0.366,-0.244, , , , , , ,0.099,0.428,-115.933
 09:16:33.553,eb:33:2e:f9:57:b5, 2015-01-01 00:09:04.285,-0.005,0.003,0.996,0.183,-0.305,-0.244, , , , , , ,0.099,0.428,-115.933
 09:16:33.553,eb:33:2e:f9:57:b5, 2015-01-01 00:09:04.285,-0.005,0.004,0.996,0.244,-0.183,-0.244, , , , , , ,0.099,0.428,-115.933
 09:16:33.553,eb:33:2e:f9:57:b5, 2015-01-01 00:09:04.285,-0.007,0.004,0.995,0.305,-0.183,-0.183, , , , , , ,0.099,0.428,-115.933
 09:16:33.553,eb:33:2e:f9:57:b5, 2015-01-01 00:09:04.285,-0.005,0.003,0.995,0.244,-0.244,-0.183, , , , , , ,0.099,0.428,-115.933
 09:16:33.553,eb:33:2e:f9:57:b5, 2015-01-01 00:09:04.285,-0.005,0.003,0.995,0.244,-0.305,-0.183, , , , , , ,0.099,0.428,-115.933
 09:16:33.553,eb:33:2e:f9:57:b5, 2015-01-01 00:09:04.285,-0.005,0.003,0.995,0.244,-0.305,-0.122, , , , , , ,0.099,0.428,-115.933
 09:16:33.553,eb:33:2e:f9:57:b5, 2015-01-01 00:09:04.285,-0.005,0.004,0.995,0.244,-0.305,-0.183, , , , , , ,0.099,0.428,-115.933
 09:16:33.553,eb:33:2e:f9:57:b5, 2015-01-01 00:09:04.285,-0.005,0.004,0.995,0.244,-0.244,-0.244, , , , , , ,0.099,0.428,-115.933
 09:16:33.598,eb:33:2e:f9:57:b5, 2015-01-01 00:09:04.285,-0.005,0.003,0.994,0.183,-0.305,-0.183, , , , , , ,0.099,0.428,-115.933
 09:16:33.598,eb:33:2e:f9:57:b5, 2015-01-01 00:09:04.285,-0.006,0.003,0.994,0.183,-0.244,-0.183, , , , , , ,0.099,0.428,-115.933
 09:16:33.598,eb:33:2e:f9:57:b5, 2015-01-01 00:09:04.285,-0.006,0.004,0.993,0.122,-0.244,-0.122, , , , , , ,0.099,0.428,-115.933
 09:16:33.598,eb:33:2e:f9:57:b5, 2015-01-01 00:09:04.285,-0.006,0.004,0.993,0.122,-0.366,-0.122, , , , , , ,0.099,0.428,-115.933
 09:16:33.598,eb:33:2e:f9:57:b5, 2015-01-01 00:09:04.285,-0.006,0.004,0.994,0.122,-0.427,-0.122, , , , , , ,0.099,0.428,-115.933
 09:16:33.598,eb:33:2e:f9:57:b5, 2015-01-01 00:09:04.285,-0.005,0.004,0.995,0.122,-0.488,-0.122, , , , , , ,0.099,0.428,-115.933
 09:16:33.599,eb:33:2e:f9:57:b5, 2015-01-01 00:09:04.285,-0.006,0.005,0.994,0.122,-0.488,-0.122, , , , , , ,0.099,0.428,-115.933
 09:16:33.599,eb:33:2e:f9:57:b5, 2015-01-01 00:09:04.285,-0.007,0.004,0.993,0.061,-0.488,0, , , , , , ,0.099,0.428,-115.933
 09:16:33.643,eb:33:2e:f9:57:b5, 2015-01-01 00:09:04.285,-0.006,0.004,0.994,0.061,-0.549,-0.061, , , , , , ,0.099,0.428,-115.933
 09:16:33.643,eb:33:2e:f9:57:b5, 2015-01-01 00:09:04.285,-0.004,0.004,0.994,0.122,-0.671,-0.122, , , , , , ,0.099,0.428,-115.933
 09:16:33.643,eb:33:2e:f9:57:b5, 2015-01-01 00:09:04.285,-0.003,0.004,0.995,0.061,-0.549,-0.122, , , , , , ,0.099,0.428,-115.933
 09:16:33.643,eb:33:2e:f9:57:b5, 2015-01-01 00:09:04.285,-0.004,0.003,0.996,0,-0.427,-0.061, , , , , , ,0.099,0.428,-115.933
 09:16:33.643,eb:33:2e:f9:57:b5, 2015-01-01 00:09:04.285,-0.004,0.004,0.995,0,-0.427,-0.061, , , , , , ,0.099,0.428,-115.933
 09:16:33.643,eb:33:2e:f9:57:b5, 2015-01-01 00:09:04.285,-0.004,0.004,0.994,0,-0.427,-0.122, , , , , , ,0.099,0.428,-115.933
 09:16:33.643,eb:33:2e:f9:57:b5, 2015-01-01 00:09:04.285,-0.004,0.005,0.994,0,-0.366,-0.122, , , , , , ,0.099,0.423,-115.933
 09:16:33.643,eb:33:2e:f9:57:b5, 2015-01-01 00:09:04.285,-0.003,0.004,0.994,0,-0.366,-0.061, , , , , , ,0.099,0.423,-115.933
 09:16:33.688,eb:33:2e:f9:57:b5, 2015-01-01 00:09:04.285,-0.004,0.005,0.995,-0.061,-0.305,-0.122, , , , , , ,0.099,0.423,-115.933
 09:16:33.688,eb:33:2e:f9:57:b5, 2015-01-01 00:09:04.285,-0.004,0.004,0.994,-0.122,-0.305,-0.183, , , , , , ,0.099,0.423,-115.933
 09:16:33.688,eb:33:2e:f9:57:b5, 2015-01-01 00:09:04.285,-0.004,0.004,0.994,-0.061,-0.305,-0.122, , , , , , ,0.104,0.423,-115.933
 09:16:33.688,eb:33:2e:f9:57:b5, 2015-01-01 00:09:04.285,-0.005,0.003,0.995,-0.061,-0.305,-0.122, , , , , , ,0.104,0.423,-115.933
 09:16:33.688,eb:33:2e:f9:57:b5, 2015-01-01 00:09:04.285,-0.004,0.003,0.995,-0.122,-0.244,-0.122, , , , , , ,0.104,0.423,-115.933
 09:16:33.688,eb:33:2e:f9:57:b5, 2015-01-01 00:09:04.285,-0.004,0.004,0.994,-0.122,-0.366,-0.122, , , , , , ,0.104,0.423,-115.933
 09:16:33.688,eb:33:2e:f9:57:b5, 2015-01-01 00:09:04.285,-0.004,0.003,0.996,-0.061,-0.305,-0.122, , , , , , ,0.104,0.423,-115.933
 09:16:33.688,eb:33:2e:f9:57:b5, 2015-01-01 00:09:04.285,-0.005,0.002,0.995,-0.061,-0.244,-0.122, , , , , , ,0.104,0.423,-115.933
 09:16:33.732,eb:33:2e:f9:57:b5, 2015-01-01 00:09:04.600,-0.005,0.002,0.995,-0.061,-0.244,-0.122, , , , , , ,0.104,0.423,-115.933
 09:16:33.732,eb:33:2e:f9:57:b5, 2015-01-01 00:09:04.600,-0.005,0.003,0.994,-0.061,-0.305,-0.122, , , , , , ,0.104,0.423,-115.933
 09:16:33.732,eb:33:2e:f9:57:b5, 2015-01-01 00:09:04.600,-0.004,0.004,0.995,-0.122,-0.366,-0.122, , , , , , ,0.104,0.423,-115.933
 09:16:33.732,eb:33:2e:f9:57:b5, 2015-01-01 00:09:04.600,-0.005,0.004,0.995,-0.122,-0.366,-0.122, , , , , , ,0.104,0.423,-115.933
 09:16:33.732,eb:33:2e:f9:57:b5, 2015-01-01 00:09:04.600,-0.005,0.002,0.994,-0.183,-0.305,-0.183, , , , , , ,0.104,0.423,-115.933
 09:16:33.732,eb:33:2e:f9:57:b5, 2015-01-01 00:09:04.600,-0.005,0.002,0.994,-0.122,-0.366,-0.122, , , , , , ,0.104,0.423,-115.933
 09:16:33.732,eb:33:2e:f9:57:b5, 2015-01-01 00:09:04.600,-0.004,0.003,0.994,-0.122,-0.488,-0.061, , , , , , ,0.104,0.423,-115.933
 09:16:33.733,eb:33:2e:f9:57:b5, 2015-01-01 00:09:04.600,-0.004,0.003,0.994,-0.183,-0.427,-0.061, , , , , , ,0.104,0.423,-115.933
 09:16:33.755,eb:33:2e:f9:57:b5, 2015-01-01 00:09:04.600,-0.005,0.004,0.994,-0.183,-0.427,-0.061, , , , , , ,0.104,0.423,-115.933
 09:16:33.755,eb:33:2e:f9:57:b5, 2015-01-01 00:09:04.600,-0.005,0.004,0.993,-0.244,-0.488,-0.061, , , , , , ,0.104,0.423,-115.933
 09:16:33.755,eb:33:2e:f9:57:b5, 2015-01-01 00:09:04.600,-0.004,0.004,0.993,-0.244,-0.488,-0.122, , , , , , ,0.104,0.423,-115.933
 09:16:33.755,eb:33:2e:f9:57:b5, 2015-01-01 00:09:04.600,-0.003,0.005,0.993,-0.305,-0.549,-0.122, , , , , , ,0.104,0.423,-115.933
 09:16:33.755,eb:33:2e:f9:57:b5, 2015-01-01 00:09:04.600,-0.003,0.005,0.993,-0.427,-0.61,-0.122, , , , , , ,0.104,0.423,-115.933
 09:16:33.755,eb:33:2e:f9:57:b5, 2015-01-01 00:09:04.600,-0.004,0.004,0.993,-0.427,-0.549,-0.061, , , , , , ,0.104,0.423,-115.933
 09:16:33.755,eb:33:2e:f9:57:b5, 2015-01-01 00:09:04.600,-0.005,0.005,0.993,-0.488,-0.549,-0.122, , , , , , ,0.104,0.423,-115.933
 09:16:33.755,eb:33:2e:f9:57:b5, 2015-01-01 00:09:04.600,-0.004,0.005,0.993,-0.549,-0.61,-0.122, , , , , , ,0.104,0.423,-115.933
 09:16:33.800,eb:33:2e:f9:57:b5, 2015-01-01 00:09:04.600,-0.003,0.004,0.993,-0.549,-0.671,-0.122, , , , , , ,0.104,0.423,-115.933
 09:16:33.800,eb:33:2e:f9:57:b5, 2015-01-01 00:09:04.600,-0.003,0.004,0.994,-0.61,-0.61,-0.183, , , , , , ,0.104,0.423,-115.933
 09:16:33.800,eb:33:2e:f9:57:b5, 2015-01-01 00:09:04.600,-0.003,0.004,0.995,-0.671,-0.671,-0.122, , , , , , ,0.104,0.417,-115.933
 09:16:33.800,eb:33:2e:f9:57:b5, 2015-01-01 00:09:04.600,-0.003,0.002,0.996,-0.671,-0.671,-0.061, , , , , , ,0.104,0.417,-115.933
 09:16:33.800,eb:33:2e:f9:57:b5, 2015-01-01 00:09:04.600,-0.003,0.002,0.995,-0.671,-0.61,-0.061, , , , , , ,0.104,0.417,-115.933
 09:16:33.800,eb:33:2e:f9:57:b5, 2015-01-01 00:09:04.600,-0.004,0.002,0.996,-0.671,-0.61,-0.061, , , , , , ,0.104,0.417,-115.933
 09:16:33.800,eb:33:2e:f9:57:b5, 2015-01-01 00:09:04.600,-0.005,0.003,0.995,-0.732,-0.671,-0.061, , , , , , ,0.104,0.417,-115.933
 09:16:33.800,eb:33:2e:f9:57:b5, 2015-01-01 00:09:04.600,-0.005,0.003,0.994,-0.671,-0.732,-0.061, , , , , , ,0.104,0.417,-115.933
 09:16:33.844,eb:33:2e:f9:57:b5, 2015-01-01 00:09:04.600,-0.005,0.003,0.993,-0.671,-0.854,-0.061, , , , , , ,0.104,0.417,-115.933
 09:16:33.844,eb:33:2e:f9:57:b5, 2015-01-01 00:09:04.600,-0.003,0.002,0.994,-0.671,-0.916,-0.122, , , , , , ,0.104,0.417,-115.933
 09:16:33.844,eb:33:2e:f9:57:b5, 2015-01-01 00:09:04.600,-0.004,0.002,0.995,-0.671,-0.916,-0.122, , , , , , ,0.11,0.417,-115.933
 09:16:33.844,eb:33:2e:f9:57:b5, 2015-01-01 00:09:04.600,-0.003,0.003,0.995,-0.671,-0.977,-0.061, , , , , , ,0.11,0.417,-115.933
 09:16:33.844,eb:33:2e:f9:57:b5, 2015-01-01 00:09:04.600,-0.002,0.002,0.995,-0.671,-0.916,-0.061, , , , , , ,0.11,0.417,-115.933
 09:16:33.844,eb:33:2e:f9:57:b5, 2015-01-01 00:09:04.600,-0.003,0.002,0.995,-0.732,-0.916,-0.122, , , , , , ,0.11,0.417,-115.933
 09:16:33.844,eb:33:2e:f9:57:b5, 2015-01-01 00:09:04.600,-0.003,0.003,0.993,-0.732,-0.854,-0.061, , , , , , ,0.11,0.417,-115.933
 09:16:33.844,eb:33:2e:f9:57:b5, 2015-01-01 00:09:04.600,-0.004,0.004,0.992,-0.854,-0.977,-0.122, , , , , , ,0.11,0.417,-115.933
 09:16:33.912,eb:33:2e:f9:57:b5, 2015-01-01 00:09:04.600,-0.002,0.003,0.992,-0.854,-1.099,-0.122, , , , , , ,0.11,0.417,-115.933
 09:16:33.912,eb:33:2e:f9:57:b5, 2015-01-01 00:09:04.600,-0.001,0.002,0.993,-0.916,-1.038,-0.122, , , , , , ,0.11,0.417,-115.933
 09:16:33.912,eb:33:2e:f9:57:b5, 2015-01-01 00:09:04.600,-0.002,0.003,0.994,-0.916,-1.038,-0.122, , , , , , ,0.11,0.417,-115.933
 09:16:33.912,eb:33:2e:f9:57:b5, 2015-01-01 00:09:04.600,-0.003,0.002,0.995,-0.916,-0.977,-0.061, , , , , , ,0.11,0.417,-115.933
 09:16:33.912,eb:33:2e:f9:57:b5, 2015-01-01 00:09:04.600,-0.001,0.001,0.995,-0.916,-0.977,-0.061, , , , , , ,0.11,0.417,-115.933
 09:16:33.913,eb:33:2e:f9:57:b5, 2015-01-01 00:09:04.600,-0.002,0.002,0.995,-0.977,-0.977,-0.061, , , , , , ,0.11,0.417,-115.933
 09:16:33.913,eb:33:2e:f9:57:b5, 2015-01-01 00:09:04.600,0,0.002,0.994,-0.977,-0.916,-0.061, , , , , , ,0.11,0.412,-115.933
 09:16:33.913,eb:33:2e:f9:57:b5, 2015-01-01 00:09:04.600,-0.001,0.003,0.997,-0.854,-0.854,-0.244, , , , , , ,0.11,0.412,-115.933
 09:16:33.934,eb:33:2e:f9:57:b5, 2015-01-01 00:09:04.600,0.005,0,0.997,-0.854,-0.793,-0.183, , , , , , ,0.11,0.412,-115.933
 09:16:33.934,eb:33:2e:f9:57:b5, 2015-01-01 00:09:04.600,0.009,0.001,1.003,-0.671,-0.549,-0.366, , , , , , ,0.11,0.412,-115.933
 09:16:33.934,eb:33:2e:f9:57:b5, 2015-01-01 00:09:04.600,-0.02,-0.001,1.001,-0.61,0.061,-0.305, , , , , , ,0.11,0.412,-115.933
 09:16:33.934,eb:33:2e:f9:57:b5, 2015-01-01 00:09:04.600,-0.023,0.002,0.979,-0.793,-0.671,-0.061, , , , , , ,0.11,0.412,-115.933
 09:16:33.935,eb:33:2e:f9:57:b5, 2015-01-01 00:09:04.600,-0.005,0.004,0.978,-1.038,-1.77,-0.122, , , , , , ,0.11,0.412,-115.933
 09:16:33.935,eb:33:2e:f9:57:b5, 2015-01-01 00:09:04.600,0.011,0,0.994,-1.099,-2.136,-0.122, , , , , , ,0.11,0.412,-115.933
 09:16:33.935,eb:33:2e:f9:57:b5, 2015-01-01 00:09:04.600,0.013,-0.001,1.006,-0.977,-1.587,-0.061, , , , , , ,0.11,0.412,-115.933
 09:16:33.935,eb:33:2e:f9:57:b5, 2015-01-01 00:09:04.600,0.005,-0.002,1.008,-0.793,-0.916,-0.061, , , , , , ,0.11,0.412,-115.933
 09:16:33.957,eb:33:2e:f9:57:b5, 2015-01-01 00:09:04.600,-0.001,0,1.001,-0.671,-0.549,-0.061, , , , , , ,0.11,0.412,-115.933
 09:16:33.957,eb:33:2e:f9:57:b5, 2015-01-01 00:09:04.600,0,0,0.996,-0.61,-0.549,0, , , , , , ,0.11,0.412,-115.933
 09:16:33.957,eb:33:2e:f9:57:b5, 2015-01-01 00:09:04.600,0.001,0,0.996,-0.549,-0.549,0, , , , , , ,0.11,0.412,-115.933
 09:16:33.957,eb:33:2e:f9:57:b5, 2015-01-01 00:09:04.600,0.002,0,0.998,-0.427,-0.427,0, , , , , , ,0.11,0.412,-115.933
 09:16:33.957,eb:33:2e:f9:57:b5, 2015-01-01 00:09:04.600,0.001,-0.001,1,-0.305,-0.183,0, , , , , , ,0.11,0.412,-115.933
 09:16:33.957,eb:33:2e:f9:57:b5, 2015-01-01 00:09:04.600,-0.001,0,0.999,-0.183,0,0, , , , , , ,0.11,0.412,-115.933
 09:16:33.957,eb:33:2e:f9:57:b5, 2015-01-01 00:09:04.600,-0.003,0,0.995,-0.122,-0.061,0, , , , , , ,0.11,0.412,-115.933
 09:16:33.957,eb:33:2e:f9:57:b5, 2015-01-01 00:09:04.600,-0.002,0,0.993,-0.183,-0.183,0, , , , , , ,0.11,0.412,-115.933
 09:16:34.003,eb:33:2e:f9:57:b5, 2015-01-01 00:09:04.600,0,0.001,0.993,-0.183,-0.305,0, , , , , , ,0.11,0.412,-115.933
 09:16:34.003,eb:33:2e:f9:57:b5, 2015-01-01 00:09:04.600,0,0,0.995,-0.122,-0.305,0, , , , , , ,0.11,0.412,-115.933
 09:16:34.003,eb:33:2e:f9:57:b5, 2015-01-01 00:09:04.600,0,0.001,0.995,-0.183,-0.305,0, , , , , , ,0.11,0.412,-115.933
 09:16:34.003,eb:33:2e:f9:57:b5, 2015-01-01 00:09:04.600,0,0,0.994,-0.061,-0.366,0, , , , , , ,0.11,0.412,-115.933
 09:16:34.003,eb:33:2e:f9:57:b5, 2015-01-01 00:09:04.600,0,0,0.995,-0.122,-0.366,0, , , , , , ,0.11,0.412,-115.933
 09:16:34.003,eb:33:2e:f9:57:b5, 2015-01-01 00:09:04.600,0,0.001,0.996,-0.061,-0.305,-0.061, , , , , , ,0.11,0.412,-115.933
 09:16:34.003,eb:33:2e:f9:57:b5, 2015-01-01 00:09:04.600,0,0.001,0.996,-0.061,-0.305,0, , , , , , ,0.11,0.412,-115.933
 09:16:34.004,eb:33:2e:f9:57:b5, 2015-01-01 00:09:04.600,-0.001,0,0.994,-0.122,-0.305,0, , , , , , ,0.11,0.412,-115.933
 09:16:34.046,eb:33:2e:f9:57:b5, 2015-01-01 00:09:04.910,-0.002,0.001,0.993,-0.122,-0.427,0, , , , , , ,0.11,0.412,-115.933
 09:16:34.046,eb:33:2e:f9:57:b5, 2015-01-01 00:09:04.910,0.001,0,0.995,-0.122,-0.427,0, , , , , , ,0.11,0.412,-115.933
 09:16:34.046,eb:33:2e:f9:57:b5, 2015-01-01 00:09:04.910,0.001,0,0.997,-0.061,-0.305,0, , , , , , ,0.11,0.412,-115.933
 09:16:34.046,eb:33:2e:f9:57:b5, 2015-01-01 00:09:04.910,0.001,0,0.997,-0.122,-0.183,0, , , , , , ,0.11,0.412,-115.933
 09:16:34.046,eb:33:2e:f9:57:b5, 2015-01-01 00:09:04.910,0.001,0,0.997,-0.061,-0.183,0, , , , , , ,0.11,0.412,-115.933
 09:16:34.046,eb:33:2e:f9:57:b5, 2015-01-01 00:09:04.910,0,0,0.996,0,-0.061,0, , , , , , ,0.11,0.412,-115.933
 09:16:34.046,eb:33:2e:f9:57:b5, 2015-01-01 00:09:04.910,0,0,0.995,-0.061,-0.061,0, , , , , , ,0.11,0.412,-115.933
 09:16:34.046,eb:33:2e:f9:57:b5, 2015-01-01 00:09:04.910,0,0,0.995,-0.061,-0.061,0.061, , , , , , ,0.11,0.412,-115.933
 09:16:34.091,eb:33:2e:f9:57:b5, 2015-01-01 00:09:04.910,0.001,0,0.996,0,-0.061,0.122, , , , , , ,0.11,0.412,-115.933
 09:16:34.091,eb:33:2e:f9:57:b5, 2015-01-01 00:09:04.910,0,0,0.995,0,0,0.061, , , , , , ,0.11,0.412,-115.933
 09:16:34.091,eb:33:2e:f9:57:b5, 2015-01-01 00:09:04.910,0,0,0.996,0,0,0.061, , , , , , ,0.11,0.412,-115.933
 09:16:34.091,eb:33:2e:f9:57:b5, 2015-01-01 00:09:04.910,0,0,0.996,0,0,0.061, , , , , , ,0.11,0.412,-115.933
 09:16:34.091,eb:33:2e:f9:57:b5, 2015-01-01 00:09:04.910,0,0,0.995,0.061,0,0.061, , , , , , ,0.11,0.412,-115.933
 09:16:34.091,eb:33:2e:f9:57:b5, 2015-01-01 00:09:04.910,0,0.001,0.994,0,0,0.061, , , , , , ,0.11,0.412,-115.933
 09:16:34.091,eb:33:2e:f9:57:b5, 2015-01-01 00:09:04.910,0,0.001,0.994,0,0,0.061, , , , , , ,0.11,0.412,-115.933
 09:16:34.091,eb:33:2e:f9:57:b5, 2015-01-01 00:09:04.910,0,0,0.994,0,0,0.061, , , , , , ,0.11,0.412,-115.933
 09:16:34.138,eb:33:2e:f9:57:b5, 2015-01-01 00:09:04.910,0,0.001,0.995,0,0.061,0.061, , , , , , ,0.11,0.412,-115.933
 09:16:34.138,eb:33:2e:f9:57:b5, 2015-01-01 00:09:04.910,-0.001,0.001,0.994,0,0.061,0.061, , , , , , ,0.11,0.412,-115.933
 09:16:34.138,eb:33:2e:f9:57:b5, 2015-01-01 00:09:04.910,-0.001,0.001,0.995,-0.061,0,0, , , , , , ,0.11,0.406,-115.933
 09:16:34.138,eb:33:2e:f9:57:b5, 2015-01-01 00:09:04.910,0,0,0.994,-0.061,0.061,0, , , , , , ,0.11,0.406,-115.933
 09:16:34.138,eb:33:2e:f9:57:b5, 2015-01-01 00:09:04.910,0,0.001,0.995,-0.122,0.061,0, , , , , , ,0.11,0.406,-115.933
 09:16:34.138,eb:33:2e:f9:57:b5, 2015-01-01 00:09:04.910,0,0.001,0.993,-0.183,0,0, , , , , , ,0.11,0.406,-115.933
 09:16:34.138,eb:33:2e:f9:57:b5, 2015-01-01 00:09:04.910,0,0.001,0.994,-0.183,0.061,0, , , , , , ,0.11,0.406,-115.933
 09:16:34.138,eb:33:2e:f9:57:b5, 2015-01-01 00:09:04.910,0,0,0.995,-0.122,0.061,0.061, , , , , , ,0.11,0.406,-115.933
 09:16:34.159,eb:33:2e:f9:57:b5, 2015-01-01 00:09:04.910,0,0,0.996,-0.122,0.061,0.061, , , , , , ,0.11,0.406,-115.933
 09:16:34.159,eb:33:2e:f9:57:b5, 2015-01-01 00:09:04.910,0,0,0.996,-0.122,0.122,0.061, , , , , , ,0.11,0.406,-115.933
 09:16:34.159,eb:33:2e:f9:57:b5, 2015-01-01 00:09:04.910,0,0,0.997,-0.122,0.183,0.061, , , , , , ,0.11,0.406,-115.933
 09:16:34.159,eb:33:2e:f9:57:b5, 2015-01-01 00:09:04.910,0,0.001,0.996,-0.122,0.122,0.061, , , , , , ,0.11,0.406,-115.933
 09:16:34.159,eb:33:2e:f9:57:b5, 2015-01-01 00:09:04.910,0,0,0.995,-0.122,0.122,0.061, , , , , , ,0.11,0.406,-115.933
 09:16:34.159,eb:33:2e:f9:57:b5, 2015-01-01 00:09:04.910,0,0,0.996,-0.061,0.183,0.122, , , , , , ,0.11,0.406,-115.933
 09:16:34.159,eb:33:2e:f9:57:b5, 2015-01-01 00:09:04.910,0,0,0.996,-0.061,0.244,0.122, , , , , , ,0.11,0.406,-115.933
 09:16:34.159,eb:33:2e:f9:57:b5, 2015-01-01 00:09:04.910,-0.002,0,0.996,0,0.305,0.122, , , , , , ,0.11,0.406,-115.933
 09:16:34.205,eb:33:2e:f9:57:b5, 2015-01-01 00:09:04.910,-0.002,0,0.994,0,0.244,0.183, , , , , , ,0.11,0.406,-115.933
 09:16:34.205,eb:33:2e:f9:57:b5, 2015-01-01 00:09:04.910,0,0,0.994,0,0.183,0.122, , , , , , ,0.11,0.406,-115.933
 09:16:34.205,eb:33:2e:f9:57:b5, 2015-01-01 00:09:04.910,0,0.001,0.994,-0.122,0.122,0.061, , , , , , ,0.11,0.406,-115.933
 09:16:34.205,eb:33:2e:f9:57:b5, 2015-01-01 00:09:04.910,0,0.001,0.992,-0.122,0.122,0.061, , , , , , ,0.11,0.406,-115.933
 09:16:34.205,eb:33:2e:f9:57:b5, 2015-01-01 00:09:04.910,0,0.001,0.992,-0.183,0.061,0.061, , , , , , ,0.11,0.406,-115.933
 09:16:34.205,eb:33:2e:f9:57:b5, 2015-01-01 00:09:04.910,-0.002,0.001,0.993,-0.183,0.061,0, , , , , , ,0.11,0.406,-115.933
 09:16:34.205,eb:33:2e:f9:57:b5, 2015-01-01 00:09:04.910,-0.003,0.001,0.991,-0.244,0,0, , , , , , ,0.11,0.406,-115.933
 09:16:34.205,eb:33:2e:f9:57:b5, 2015-01-01 00:09:04.910,-0.002,0.001,0.992,-0.305,-0.061,0, , , , , , ,0.11,0.406,-115.933
 09:16:34.249,eb:33:2e:f9:57:b5, 2015-01-01 00:09:04.910,0,0.001,0.993,-0.366,-0.183,0, , , , , , ,0.11,0.406,-115.933
 09:16:34.249,eb:33:2e:f9:57:b5, 2015-01-01 00:09:04.910,0,0.001,0.993,-0.427,-0.183,0.061, , , , , , ,0.11,0.406,-115.933
 09:16:34.249,eb:33:2e:f9:57:b5, 2015-01-01 00:09:04.910,0,0,0.995,-0.427,-0.061,0, , , , , , ,0.11,0.406,-115.933
 09:16:34.249,eb:33:2e:f9:57:b5, 2015-01-01 00:09:04.910,0,0,0.995,-0.427,-0.061,0, , , , , , ,0.11,0.406,-115.933
 09:16:34.249,eb:33:2e:f9:57:b5, 2015-01-01 00:09:04.910,-0.001,0,0.994,-0.488,0,0, , , , , , ,0.11,0.406,-115.933
 09:16:34.249,eb:33:2e:f9:57:b5, 2015-01-01 00:09:04.910,0,0,0.994,-0.488,-0.061,0, , , , , , ,0.11,0.406,-115.933
 09:16:34.249,eb:33:2e:f9:57:b5, 2015-01-01 00:09:04.910,0,0,0.994,-0.488,-0.183,0, , , , , , ,0.11,0.401,-115.933
 09:16:34.249,eb:33:2e:f9:57:b5, 2015-01-01 00:09:04.910,-0.001,0,0.995,-0.427,-0.122,0, , , , , , ,0.11,0.401,-115.933
 09:16:34.294,eb:33:2e:f9:57:b5, 2015-01-01 00:09:04.910,0.001,-0.002,0.996,-0.366,-0.122,0, , , , , , ,0.11,0.401,-115.933
 09:16:34.294,eb:33:2e:f9:57:b5, 2015-01-01 00:09:04.910,0.001,-0.003,1,-0.244,-0.061,0, , , , , , ,0.11,0.401,-115.933
 09:16:34.294,eb:33:2e:f9:57:b5, 2015-01-01 00:09:04.910,0,-0.004,1,-0.061,0,0, , , , , , ,0.104,0.401,-115.933
 09:16:34.294,eb:33:2e:f9:57:b5, 2015-01-01 00:09:04.910,-0.002,-0.001,0.997,0,0,0.061, , , , , , ,0.104,0.401,-115.933
 09:16:34.294,eb:33:2e:f9:57:b5, 2015-01-01 00:09:04.910,-0.001,0,0.995,-0.061,-0.061,0.061, , , , , , ,0.104,0.401,-115.933
 09:16:34.294,eb:33:2e:f9:57:b5, 2015-01-01 00:09:04.910,-0.001,0,0.994,-0.061,-0.122,0.061, , , , , , ,0.104,0.401,-115.933
 09:16:34.294,eb:33:2e:f9:57:b5, 2015-01-01 00:09:04.910,0,0,0.995,-0.122,-0.122,0.061, , , , , , ,0.104,0.401,-115.933
 09:16:34.294,eb:33:2e:f9:57:b5, 2015-01-01 00:09:04.910,0,0,0.994,-0.122,-0.122,0.061, , , , , , ,0.104,0.401,-115.933
 09:16:34.340,eb:33:2e:f9:57:b5, 2015-01-01 00:09:05.205,0,0.001,0.994,-0.183,-0.122,0.061, , , , , , ,0.104,0.401,-115.933
 09:16:34.340,eb:33:2e:f9:57:b5, 2015-01-01 00:09:05.205,-0.002,0.001,0.993,-0.183,-0.183,0.061, , , , , , ,0.104,0.401,-115.933
 09:16:34.340,eb:33:2e:f9:57:b5, 2015-01-01 00:09:05.205,0,0,0.993,-0.244,-0.244,0, , , , , , ,0.104,0.401,-115.939
 09:16:34.340,eb:33:2e:f9:57:b5, 2015-01-01 00:09:05.205,-0.001,0,0.993,-0.244,-0.305,0, , , , , , ,0.104,0.401,-115.939
 09:16:34.340,eb:33:2e:f9:57:b5, 2015-01-01 00:09:05.205,0,0,0.992,-0.305,-0.366,0, , , , , , ,0.104,0.401,-115.939
 09:16:34.340,eb:33:2e:f9:57:b5, 2015-01-01 00:09:05.205,-0.001,0,0.993,-0.305,-0.427,0, , , , , , ,0.104,0.401,-115.939
 09:16:34.340,eb:33:2e:f9:57:b5, 2015-01-01 00:09:05.205,0,0,0.993,-0.305,-0.427,-0.061, , , , , , ,0.104,0.396,-115.939
 09:16:34.340,eb:33:2e:f9:57:b5, 2015-01-01 00:09:05.205,0,0,0.994,-0.244,-0.427,-0.122, , , , , , ,0.104,0.396,-115.939
 09:16:34.361,eb:33:2e:f9:57:b5, 2015-01-01 00:09:05.205,0,0,0.993,-0.244,-0.488,-0.061, , , , , , ,0.104,0.396,-115.939
 09:16:34.361,eb:33:2e:f9:57:b5, 2015-01-01 00:09:05.205,0,0,0.994,-0.305,-0.549,-0.061, , , , , , ,0.104,0.396,-115.939
 09:16:34.361,eb:33:2e:f9:57:b5, 2015-01-01 00:09:05.205,0.001,-0.001,0.995,-0.305,-0.549,-0.061, , , , , , ,0.104,0.396,-115.939
 09:16:34.362,eb:33:2e:f9:57:b5, 2015-01-01 00:09:05.205,0.001,-0.002,0.996,-0.183,-0.427,-0.061, , , , , , ,0.104,0.396,-115.939
 09:16:34.362,eb:33:2e:f9:57:b5, 2015-01-01 00:09:05.205,0.002,-0.001,0.996,-0.122,-0.366,0, , , , , , ,0.104,0.396,-115.939
 09:16:34.363,eb:33:2e:f9:57:b5, 2015-01-01 00:09:05.205,0.001,-0.001,0.997,-0.061,-0.305,0, , , , , , ,0.104,0.396,-115.939
 09:16:34.363,eb:33:2e:f9:57:b5, 2015-01-01 00:09:05.205,0,-0.001,0.997,-0.061,-0.366,0, , , , , , ,0.104,0.396,-115.939
 09:16:34.363,eb:33:2e:f9:57:b5, 2015-01-01 00:09:05.205,0,-0.001,0.997,0,-0.366,0, , , , , , ,0.104,0.396,-115.939
 09:16:34.407,eb:33:2e:f9:57:b5, 2015-01-01 00:09:05.205,0.001,-0.003,0.997,0.061,-0.305,0, , , , , , ,0.104,0.396,-115.939
 09:16:34.407,eb:33:2e:f9:57:b5, 2015-01-01 00:09:05.205,0,-0.003,0.997,0.122,-0.244,0, , , , , , ,0.104,0.396,-115.939
 09:16:34.407,eb:33:2e:f9:57:b5, 2015-01-01 00:09:05.205,0,-0.001,0.997,0.183,-0.305,0, , , , , , ,0.104,0.396,-115.939
 09:16:34.407,eb:33:2e:f9:57:b5, 2015-01-01 00:09:05.205,0,0,0.996,0.244,-0.305,0, , , , , , ,0.104,0.396,-115.939
 09:16:34.407,eb:33:2e:f9:57:b5, 2015-01-01 00:09:05.205,0,0,0.994,0.183,-0.244,0, , , , , , ,0.104,0.396,-115.939
 09:16:34.407,eb:33:2e:f9:57:b5, 2015-01-01 00:09:05.205,0,0,0.994,0.061,-0.305,0, , , , , , ,0.104,0.396,-115.939
 09:16:34.407,eb:33:2e:f9:57:b5, 2015-01-01 00:09:05.205,0,0,0.995,0.122,-0.366,0, , , , , , ,0.104,0.39,-115.939
 09:16:34.407,eb:33:2e:f9:57:b5, 2015-01-01 00:09:05.205,0,0,0.995,0.122,-0.305,0, , , , , , ,0.104,0.39,-115.939
 09:16:34.452,eb:33:2e:f9:57:b5, 2015-01-01 00:09:05.205,0,0,0.995,0.122,-0.366,0, , , , , , ,0.104,0.39,-115.939
 09:16:34.452,eb:33:2e:f9:57:b5, 2015-01-01 00:09:05.205,0.001,-0.001,0.995,0.183,-0.366,0, , , , , , ,0.104,0.39,-115.939
 09:16:34.452,eb:33:2e:f9:57:b5, 2015-01-01 00:09:05.205,0.001,0,0.995,0.183,-0.305,0, , , , , , ,0.104,0.39,-115.939
 09:16:34.452,eb:33:2e:f9:57:b5, 2015-01-01 00:09:05.205,0.002,0,0.994,0.183,-0.305,0, , , , , , ,0.104,0.39,-115.939
 09:16:34.452,eb:33:2e:f9:57:b5, 2015-01-01 00:09:05.205,0.001,0,0.994,0.183,-0.305,-0.061, , , , , , ,0.104,0.39,-115.939
 09:16:34.452,eb:33:2e:f9:57:b5, 2015-01-01 00:09:05.205,0,0,0.993,0.122,-0.305,0, , , , , , ,0.104,0.39,-115.939
 09:16:34.452,eb:33:2e:f9:57:b5, 2015-01-01 00:09:05.205,0,0,0.993,0.122,-0.244,-0.061, , , , , , ,0.104,0.39,-115.939
 09:16:34.452,eb:33:2e:f9:57:b5, 2015-01-01 00:09:05.205,0,0.001,0.993,0.122,-0.305,-0.122, , , , , , ,0.104,0.39,-115.939
 09:16:34.518,eb:33:2e:f9:57:b5, 2015-01-01 00:09:05.205,0,0.001,0.993,0.122,-0.366,-0.061, , , , , , ,0.104,0.39,-115.939
 09:16:34.518,eb:33:2e:f9:57:b5, 2015-01-01 00:09:05.205,0,0,0.993,0.122,-0.427,-0.061, , , , , , ,0.104,0.39,-115.939
 09:16:34.518,eb:33:2e:f9:57:b5, 2015-01-01 00:09:05.205,-0.001,0,0.993,0.122,-0.549,-0.122, , , , , , ,0.104,0.385,-115.939
 09:16:34.518,eb:33:2e:f9:57:b5, 2015-01-01 00:09:05.205,-0.001,0,0.992,0.061,-0.671,-0.183, , , , , , ,0.104,0.385,-115.939
 09:16:34.518,eb:33:2e:f9:57:b5, 2015-01-01 00:09:05.205,0,0,0.993,0.122,-0.854,-0.183, , , , , , ,0.104,0.385,-115.939
 09:16:34.518,eb:33:2e:f9:57:b5, 2015-01-01 00:09:05.205,0,0,0.993,0.061,-0.854,-0.183, , , , , , ,0.104,0.385,-115.939
 09:16:34.518,eb:33:2e:f9:57:b5, 2015-01-01 00:09:05.205,0,0.001,0.993,0,-1.038,-0.183, , , , , , ,0.104,0.385,-115.939
 09:16:34.518,eb:33:2e:f9:57:b5, 2015-01-01 00:09:05.205,-0.001,0,0.992,0,-1.099,-0.122, , , , , , ,0.104,0.385,-115.939
 09:16:34.543,eb:33:2e:f9:57:b5, 2015-01-01 00:09:05.205,0.003,0.002,0.995,-0.122,-1.343,-0.183, , , , , , ,0.104,0.385,-115.939
 09:16:34.543,eb:33:2e:f9:57:b5, 2015-01-01 00:09:05.205,0.01,-0.004,1,0,-1.16,-0.061, , , , , , ,0.104,0.385,-115.939
 09:16:34.543,eb:33:2e:f9:57:b5, 2015-01-01 00:09:05.205,0.005,-0.001,1.003,0.183,-0.793,-0.061, , , , , , ,0.104,0.385,-115.939
 09:16:34.543,eb:33:2e:f9:57:b5, 2015-01-01 00:09:05.205,0,0,0.998,0.183,-0.61,-0.122, , , , , , ,0.104,0.385,-115.939
 09:16:34.543,eb:33:2e:f9:57:b5, 2015-01-01 00:09:05.205,0.003,0.001,0.993,0.122,-0.61,-0.061, , , , , , ,0.104,0.385,-115.939
 09:16:34.543,eb:33:2e:f9:57:b5, 2015-01-01 00:09:05.205,0.002,0.001,0.994,0.061,-0.61,-0.061, , , , , , ,0.104,0.385,-115.939
 09:16:34.543,eb:33:2e:f9:57:b5, 2015-01-01 00:09:05.205,0.003,0.001,0.995,0.061,-0.549,-0.061, , , , , , ,0.104,0.379,-115.939
 09:16:34.543,eb:33:2e:f9:57:b5, 2015-01-01 00:09:05.205,0.007,0.001,0.994,0,-0.488,-0.122, , , , , , ,0.104,0.379,-115.939
 09:16:34.566,eb:33:2e:f9:57:b5, 2015-01-01 00:09:05.205,0.003,0.001,0.997,0,-0.244,-0.122, , , , , , ,0.104,0.379,-115.939
 09:16:34.566,eb:33:2e:f9:57:b5, 2015-01-01 00:09:05.205,0.014,0,0.995,0,-0.183,-0.122, , , , , , ,0.104,0.379,-115.939
 09:16:34.566,eb:33:2e:f9:57:b5, 2015-01-01 00:09:05.205,-0.009,0.001,1.003,0.061,0.244,-0.305, , , , , , ,0.104,0.379,-115.939
 09:16:34.566,eb:33:2e:f9:57:b5, 2015-01-01 00:09:05.205,-0.013,-0.002,0.986,0,0,-0.122, , , , , , ,0.104,0.379,-115.939
 09:16:34.566,eb:33:2e:f9:57:b5, 2015-01-01 00:09:05.205,-0.006,0.002,0.981,-0.183,-0.732,-0.061, , , , , , ,0.104,0.379,-115.939
 09:16:34.566,eb:33:2e:f9:57:b5, 2015-01-01 00:09:05.205,0.003,0.003,0.986,-0.366,-1.282,-0.183, , , , , , ,0.104,0.379,-115.939
 09:16:34.566,eb:33:2e:f9:57:b5, 2015-01-01 00:09:05.205,0.011,0,0.995,-0.366,-1.343,-0.061, , , , , , ,0.099,0.379,-115.939
 09:16:34.566,eb:33:2e:f9:57:b5, 2015-01-01 00:09:05.205,0.006,0,1,-0.366,-0.854,-0.122, , , , , , ,0.099,0.379,-115.939
 09:16:34.610,eb:33:2e:f9:57:b5, 2015-01-01 00:09:05.205,0,0,0.995,-0.366,-0.732,-0.122, , , , , , ,0.099,0.379,-115.939
 09:16:34.610,eb:33:2e:f9:57:b5, 2015-01-01 00:09:05.205,-0.001,0.001,0.99,-0.488,-0.854,-0.183, , , , , , ,0.099,0.379,-115.939
 09:16:34.610,eb:33:2e:f9:57:b5, 2015-01-01 00:09:05.205,0,0.002,0.989,-0.61,-1.16,-0.183, , , , , , ,0.099,0.374,-115.939
 09:16:34.610,eb:33:2e:f9:57:b5, 2015-01-01 00:09:05.205,0.001,0,0.992,-0.671,-1.282,-0.183, , , , , , ,0.099,0.374,-115.939
 09:16:34.610,eb:33:2e:f9:57:b5, 2015-01-01 00:09:05.205,0.005,-0.001,0.998,-0.61,-1.404,-0.183, , , , , , ,0.099,0.374,-115.939
 09:16:34.610,eb:33:2e:f9:57:b5, 2015-01-01 00:09:05.205,0.01,-0.005,1.001,-0.427,-1.282,-0.183, , , , , , ,0.099,0.374,-115.939
 09:16:34.610,eb:33:2e:f9:57:b5, 2015-01-01 00:09:05.205,0.005,-0.002,1.003,-0.366,-0.916,-0.183, , , , , , ,0.099,0.374,-115.939
 09:16:34.610,eb:33:2e:f9:57:b5, 2015-01-01 00:09:05.205,0.001,0,0.998,-0.366,-0.793,-0.122, , , , , , ,0.099,0.374,-115.939
 09:16:34.655,eb:33:2e:f9:57:b5, 2015-01-01 00:09:05.515,0.006,-0.002,0.997,-0.305,-0.854,-0.122, , , , , , ,0.099,0.374,-115.939
 09:16:34.655,eb:33:2e:f9:57:b5, 2015-01-01 00:09:05.515,0.007,-0.001,0.999,-0.244,-0.732,-0.122, , , , , , ,0.099,0.374,-115.939
 09:16:34.655,eb:33:2e:f9:57:b5, 2015-01-01 00:09:05.515,0.007,-0.002,0.999,-0.122,-0.549,-0.061, , , , , , ,0.099,0.368,-115.944
 09:16:34.655,eb:33:2e:f9:57:b5, 2015-01-01 00:09:05.515,0.005,-0.001,0.999,-0.122,-0.366,0, , , , , , ,0.099,0.368,-115.944
 09:16:34.655,eb:33:2e:f9:57:b5, 2015-01-01 00:09:05.515,0.003,-0.001,0.997,-0.122,-0.244,0, , , , , , ,0.099,0.368,-115.944
 09:16:34.655,eb:33:2e:f9:57:b5, 2015-01-01 00:09:05.515,0.003,0,0.995,-0.061,-0.244,0, , , , , , ,0.099,0.368,-115.944
 09:16:34.655,eb:33:2e:f9:57:b5, 2015-01-01 00:09:05.515,0.003,0,0.994,-0.061,-0.366,0, , , , , , ,0.099,0.368,-115.944
 09:16:34.655,eb:33:2e:f9:57:b5, 2015-01-01 00:09:05.515,0.002,0,0.993,-0.061,-0.305,0, , , , , , ,0.099,0.368,-115.944
 09:16:34.700,eb:33:2e:f9:57:b5, 2015-01-01 00:09:05.515,0.002,0,0.992,-0.244,-0.427,0, , , , , , ,0.099,0.368,-115.944
 09:16:34.700,eb:33:2e:f9:57:b5, 2015-01-01 00:09:05.515,0.003,0,0.992,-0.305,-0.549,0, , , , , , ,0.099,0.368,-115.944
 09:16:34.700,eb:33:2e:f9:57:b5, 2015-01-01 00:09:05.515,0.004,0,0.993,-0.305,-0.61,0, , , , , , ,0.099,0.368,-115.944
 09:16:34.700,eb:33:2e:f9:57:b5, 2015-01-01 00:09:05.515,0.004,0,0.993,-0.366,-0.61,0, , , , , , ,0.099,0.368,-115.944
 09:16:34.700,eb:33:2e:f9:57:b5, 2015-01-01 00:09:05.515,0.003,0,0.992,-0.427,-0.61,-0.061, , , , , , ,0.099,0.368,-115.944
 09:16:34.700,eb:33:2e:f9:57:b5, 2015-01-01 00:09:05.515,0,0.001,0.992,-0.549,-0.671,-0.061, , , , , , ,0.099,0.368,-115.944
 09:16:34.700,eb:33:2e:f9:57:b5, 2015-01-01 00:09:05.515,-0.001,0.003,0.988,-0.732,-0.854,-0.061, , , , , , ,0.099,0.363,-115.944
 09:16:34.700,eb:33:2e:f9:57:b5, 2015-01-01 00:09:05.515,0.003,0,0.989,-0.793,-1.099,-0.061, , , , , , ,0.099,0.363,-115.944
 09:16:34.722,eb:33:2e:f9:57:b5, 2015-01-01 00:09:05.515,0.007,-0.002,0.995,-0.793,-1.099,-0.122, , , , , , ,0.099,0.363,-115.944
 09:16:34.722,eb:33:2e:f9:57:b5, 2015-01-01 00:09:05.515,0.008,-0.002,0.998,-0.732,-0.977,-0.183, , , , , , ,0.099,0.363,-115.944
 09:16:34.722,eb:33:2e:f9:57:b5, 2015-01-01 00:09:05.515,0.005,-0.002,0.998,-0.61,-0.793,-0.122, , , , , , ,0.099,0.363,-115.944
 09:16:34.722,eb:33:2e:f9:57:b5, 2015-01-01 00:09:05.515,0,0,0.995,-0.671,-0.793,-0.122, , , , , , ,0.099,0.363,-115.944
 09:16:34.722,eb:33:2e:f9:57:b5, 2015-01-01 00:09:05.515,0.005,-0.004,0.995,-0.61,-0.916,-0.061, , , , , , ,0.099,0.363,-115.944
 09:16:34.722,eb:33:2e:f9:57:b5, 2015-01-01 00:09:05.515,0.009,-0.005,1,-0.366,-0.854,0, , , , , , ,0.099,0.363,-115.944
 09:16:34.722,eb:33:2e:f9:57:b5, 2015-01-01 00:09:05.515,0.007,-0.005,1.002,-0.183,-0.671,0, , , , , , ,0.099,0.357,-115.944
 09:16:34.722,eb:33:2e:f9:57:b5, 2015-01-01 00:09:05.515,0.005,-0.003,1.001,-0.061,-0.427,0, , , , , , ,0.099,0.357,-115.944
 09:16:34.789,eb:33:2e:f9:57:b5, 2015-01-01 00:09:05.515,0.002,-0.002,0.997,0,-0.427,0.061, , , , , , ,0.099,0.357,-115.944
 09:16:34.789,eb:33:2e:f9:57:b5, 2015-01-01 00:09:05.515,0.004,-0.001,0.995,0,-0.549,0, , , , , , ,0.099,0.357,-115.944
 09:16:34.789,eb:33:2e:f9:57:b5, 2015-01-01 00:09:05.515,0.006,-0.001,0.994,-0.061,-0.671,0, , , , , , ,0.099,0.357,-115.944
 09:16:34.789,eb:33:2e:f9:57:b5, 2015-01-01 00:09:05.515,0.005,0,0.996,-0.061,-0.61,0, , , , , , ,0.099,0.357,-115.944
 09:16:34.789,eb:33:2e:f9:57:b5, 2015-01-01 00:09:05.515,0.005,0,0.995,-0.061,-0.549,0, , , , , , ,0.099,0.357,-115.944
 09:16:34.789,eb:33:2e:f9:57:b5, 2015-01-01 00:09:05.515,0.006,0,0.994,-0.061,-0.61,0, , , , , , ,0.099,0.357,-115.944
 09:16:34.789,eb:33:2e:f9:57:b5, 2015-01-01 00:09:05.515,0.007,0,0.995,-0.061,-0.549,0, , , , , , ,0.093,0.357,-115.944
 09:16:34.789,eb:33:2e:f9:57:b5, 2015-01-01 00:09:05.515,0.007,-0.001,0.995,-0.122,-0.427,0, , , , , , ,0.093,0.357,-115.944
 09:16:34.813,eb:33:2e:f9:57:b5, 2015-01-01 00:09:05.515,0.005,-0.001,0.996,-0.122,-0.366,0, , , , , , ,0.093,0.357,-115.944
 09:16:34.813,eb:33:2e:f9:57:b5, 2015-01-01 00:09:05.515,0.008,-0.001,0.994,-0.061,-0.427,0, , , , , , ,0.093,0.357,-115.944
 09:16:34.813,eb:33:2e:f9:57:b5, 2015-01-01 00:09:05.515,0.008,-0.001,0.996,-0.061,-0.244,-0.061, , , , , , ,0.093,0.352,-115.944
 09:16:34.813,eb:33:2e:f9:57:b5, 2015-01-01 00:09:05.515,0.007,0,0.997,-0.122,-0.122,-0.061, , , , , , ,0.093,0.352,-115.944
 09:16:34.813,eb:33:2e:f9:57:b5, 2015-01-01 00:09:05.515,0.007,-0.001,0.996,-0.122,-0.061,-0.061, , , , , , ,0.093,0.352,-115.944
 09:16:34.813,eb:33:2e:f9:57:b5, 2015-01-01 00:09:05.515,0.007,-0.001,0.996,-0.061,0,0, , , , , , ,0.093,0.352,-115.944
 09:16:34.813,eb:33:2e:f9:57:b5, 2015-01-01 00:09:05.515,0.005,-0.001,0.995,-0.122,0,0, , , , , , ,0.093,0.352,-115.944
 09:16:34.813,eb:33:2e:f9:57:b5, 2015-01-01 00:09:05.515,0.006,0,0.995,-0.122,0,-0.061, , , , , , ,0.093,0.352,-115.944
 09:16:34.903,eb:33:2e:f9:57:b5, 2015-01-01 00:09:05.515,0.004,-0.001,0.994,-0.061,0,0, , , , , , ,0.093,0.352,-115.944
 09:16:34.903,eb:33:2e:f9:57:b5, 2015-01-01 00:09:05.515,0.005,-0.002,0.993,-0.061,0,0, , , , , , ,0.093,0.352,-115.944
 09:16:34.903,eb:33:2e:f9:57:b5, 2015-01-01 00:09:05.515,0.006,-0.002,0.996,0,-0.061,0, , , , , , ,0.093,0.346,-115.944
 09:16:34.903,eb:33:2e:f9:57:b5, 2015-01-01 00:09:05.515,0.007,-0.002,0.997,0,-0.061,0, , , , , , ,0.093,0.346,-115.944
 09:16:34.903,eb:33:2e:f9:57:b5, 2015-01-01 00:09:05.515,0.006,-0.002,0.997,0.061,-0.061,0, , , , , , ,0.093,0.346,-115.944
 09:16:34.903,eb:33:2e:f9:57:b5, 2015-01-01 00:09:05.515,0.006,-0.001,0.996,0.061,0,0, , , , , , ,0.093,0.346,-115.944
 09:16:34.903,eb:33:2e:f9:57:b5, 2015-01-01 00:09:05.515,0.006,-0.002,0.995,0.061,0,0.061, , , , , , ,0.093,0.346,-115.944
 09:16:34.903,eb:33:2e:f9:57:b5, 2015-01-01 00:09:05.515,0.005,-0.001,0.994,0.122,0,0, , , , , , ,0.093,0.346,-115.944
 09:16:34.903,eb:33:2e:f9:57:b5, 2015-01-01 00:09:05.515,0.005,-0.002,0.995,0.122,0,0.061, , , , , , ,0.093,0.346,-115.944
 09:16:34.903,eb:33:2e:f9:57:b5, 2015-01-01 00:09:05.515,0.005,-0.001,0.995,0.122,0,0, , , , , , ,0.093,0.346,-115.944
 09:16:34.903,eb:33:2e:f9:57:b5, 2015-01-01 00:09:05.515,0.006,-0.001,0.994,0.122,-0.061,0, , , , , , ,0.093,0.341,-115.95
 09:16:34.903,eb:33:2e:f9:57:b5, 2015-01-01 00:09:05.515,0.005,-0.001,0.995,0.061,0,0, , , , , , ,0.093,0.341,-115.95
 09:16:34.903,eb:33:2e:f9:57:b5, 2015-01-01 00:09:05.515,0.006,-0.001,0.995,0.061,0,0, , , , , , ,0.093,0.341,-115.95
 09:16:34.903,eb:33:2e:f9:57:b5, 2015-01-01 00:09:05.515,0.005,-0.001,0.995,0.122,0,0, , , , , , ,0.093,0.341,-115.95
 09:16:34.903,eb:33:2e:f9:57:b5, 2015-01-01 00:09:05.515,0.006,-0.001,0.995,0.122,0,0, , , , , , ,0.093,0.341,-115.95
 09:16:34.903,eb:33:2e:f9:57:b5, 2015-01-01 00:09:05.515,0.007,-0.001,0.994,0.122,0,0, , , , , , ,0.093,0.341,-115.95
 09:16:34.926,eb:33:2e:f9:57:b5, 2015-01-01 00:09:05.515,0.006,0,0.995,0.061,0,0.061, , , , , , ,0.093,0.341,-115.95
 09:16:34.926,eb:33:2e:f9:57:b5, 2015-01-01 00:09:05.515,0.007,-0.002,0.995,0.061,0.061,0.061, , , , , , ,0.093,0.341,-115.95
 09:16:34.926,eb:33:2e:f9:57:b5, 2015-01-01 00:09:05.515,0.007,-0.001,0.995,0.122,0.061,0.061, , , , , , ,0.093,0.335,-115.95
 09:16:34.926,eb:33:2e:f9:57:b5, 2015-01-01 00:09:05.515,0.007,-0.002,0.995,0.122,0.122,0, , , , , , ,0.093,0.335,-115.95
 09:16:34.926,eb:33:2e:f9:57:b5, 2015-01-01 00:09:05.515,0.007,-0.002,0.997,0.122,0.183,0, , , , , , ,0.093,0.335,-115.95
 09:16:34.926,eb:33:2e:f9:57:b5, 2015-01-01 00:09:05.515,0.007,-0.002,0.997,0.183,0.366,0, , , , , , ,0.093,0.335,-115.95
 09:16:34.926,eb:33:2e:f9:57:b5, 2015-01-01 00:09:05.515,0.004,-0.001,0.997,0.305,0.427,0.061, , , , , , ,0.077,0.286,-115.955
 09:16:34.926,eb:33:2e:f9:57:b5, 2015-01-01 00:09:05.515,0.005,-0.001,0.995,0.244,0.366,0.061, , , , , , ,0.077,0.286,-115.955
 09:16:34.970,eb:33:2e:f9:57:b5, 2015-01-01 00:09:05.515,0.007,0,0.994,0.244,0.366,0.061, , , , , , ,0.082,0.291,-115.961
 09:16:34.970,eb:33:2e:f9:57:b5, 2015-01-01 00:09:05.515,0.006,0,0.995,0.183,0.427,0.061, , , , , , ,0.082,0.291,-115.961
 09:16:34.970,eb:33:2e:f9:57:b5, 2015-01-01 00:09:05.515,0.005,-0.001,0.995,0.183,0.488,0.061, , , , , , ,0.077,0.28,-115.961
 09:16:34.970,eb:33:2e:f9:57:b5, 2015-01-01 00:09:05.515,0.005,0,0.994,0.244,0.488,0.061, , , , , , ,0.077,0.28,-115.961
 09:16:34.970,eb:33:2e:f9:57:b5, 2015-01-01 00:09:05.515,0.007,0,0.994,0.244,0.366,0.061, , , , , , ,0.077,0.28,-115.966
 09:16:34.970,eb:33:2e:f9:57:b5, 2015-01-01 00:09:05.515,0.008,-0.001,0.995,0.244,0.427,0.061, , , , , , ,0.077,0.28,-115.966
 09:16:34.970,eb:33:2e:f9:57:b5, 2015-01-01 00:09:05.515,0.007,-0.001,0.997,0.244,0.549,0.061, , , , , , ,0.077,0.28,-115.972
 09:16:34.970,eb:33:2e:f9:57:b5, 2015-01-01 00:09:05.515,0.004,-0.001,0.996,0.244,0.671,0.061, , , , , , ,0.077,0.28,-115.972
 09:16:35.015,eb:33:2e:f9:57:b5, 2015-01-01 00:09:05.515,0.004,0,0.995,0.305,0.61,0.061, , , , , , ,0.077,0.28,-115.977
 09:16:35.015,eb:33:2e:f9:57:b5, 2015-01-01 00:09:05.515,0.006,0,0.994,0.183,0.549,0.061, , , , , , ,0.077,0.28,-115.977
 09:16:35.015,eb:33:2e:f9:57:b5, 2015-01-01 00:09:05.515,0.005,-0.001,0.995,0.244,0.61,0.061, , , , , , ,0.077,0.275,-115.977
 09:16:35.015,eb:33:2e:f9:57:b5, 2015-01-01 00:09:05.515,0.005,0,0.994,0.183,0.61,0.061, , , , , , ,0.077,0.275,-115.977
 09:16:35.015,eb:33:2e:f9:57:b5, 2015-01-01 00:09:05.515,0.004,0,0.995,0.244,0.61,0.061, , , , , , ,0.077,0.275,-115.983
 09:16:35.015,eb:33:2e:f9:57:b5, 2015-01-01 00:09:05.515,0.006,-0.002,0.995,0.244,0.61,0.061, , , , , , ,0.077,0.275,-115.983
 09:16:35.015,eb:33:2e:f9:57:b5, 2015-01-01 00:09:05.515,0.007,-0.002,0.997,0.366,0.671,0.061, , , , , , ,0.077,0.275,-115.983
 09:16:35.015,eb:33:2e:f9:57:b5, 2015-01-01 00:09:05.515,0.006,-0.003,0.997,0.366,0.793,0.061, , , , , , ,0.077,0.275,-115.983
 09:16:35.059,eb:33:2e:f9:57:b5, 2015-01-01 00:09:05.920,0.004,0,0.995,0.305,0.854,0.061, , , , , , ,0.077,0.275,-115.983
 09:16:35.059,eb:33:2e:f9:57:b5, 2015-01-01 00:09:05.920,0.004,0,0.994,0.244,0.854,0.061, , , , , , ,0.077,0.275,-115.983
 09:16:35.059,eb:33:2e:f9:57:b5, 2015-01-01 00:09:05.920,0.006,0,0.994,0.244,0.793,0.122, , , , , , ,0.077,0.275,-115.983
 09:16:35.059,eb:33:2e:f9:57:b5, 2015-01-01 00:09:05.920,0.004,0,0.995,0.244,0.854,0.061, , , , , , ,0.077,0.275,-115.983
 09:16:35.059,eb:33:2e:f9:57:b5, 2015-01-01 00:09:05.920,0.004,0,0.993,0.183,0.854,0.122, , , , , , ,0.077,0.275,-115.983
 09:16:35.059,eb:33:2e:f9:57:b5, 2015-01-01 00:09:05.920,0.003,0,0.993,0.122,0.793,0.122, , , , , , ,0.077,0.275,-115.983
 09:16:35.059,eb:33:2e:f9:57:b5, 2015-01-01 00:09:05.920,0.002,0,0.993,0.122,0.732,0.122, , , , , , ,0.077,0.275,-115.983
 09:16:35.059,eb:33:2e:f9:57:b5, 2015-01-01 00:09:05.920,0.002,0,0.992,0.061,0.61,0.061, , , , , , ,0.077,0.275,-115.983
 09:16:35.105,eb:33:2e:f9:57:b5, 2015-01-01 00:09:05.920,0.002,0,0.993,0.061,0.61,0.122, , , , , , ,0.077,0.275,-115.983
 09:16:35.105,eb:33:2e:f9:57:b5, 2015-01-01 00:09:05.920,0.004,0,0.993,0.061,0.549,0.122, , , , , , ,0.077,0.275,-115.983
 09:16:35.105,eb:33:2e:f9:57:b5, 2015-01-01 00:09:05.920,0.004,0,0.994,0,0.549,0.122, , , , , , ,0.077,0.275,-115.983
 09:16:35.105,eb:33:2e:f9:57:b5, 2015-01-01 00:09:05.920,0.005,0,0.994,0,0.61,0.061, , , , , , ,0.077,0.275,-115.983
 09:16:35.105,eb:33:2e:f9:57:b5, 2015-01-01 00:09:05.920,0.006,0,0.995,0,0.61,0.122, , , , , , ,0.077,0.275,-115.983
 09:16:35.105,eb:33:2e:f9:57:b5, 2015-01-01 00:09:05.920,0.006,0,0.996,-0.061,0.671,0.061, , , , , , ,0.077,0.275,-115.983
 09:16:35.105,eb:33:2e:f9:57:b5, 2015-01-01 00:09:05.920,0.005,0,0.996,-0.061,0.732,0.122, , , , , , ,0.077,0.269,-115.983
 09:16:35.106,eb:33:2e:f9:57:b5, 2015-01-01 00:09:05.920,0.004,0,0.994,-0.122,0.793,0.183, , , , , , ,0.077,0.269,-115.983
 09:16:35.126,eb:33:2e:f9:57:b5, 2015-01-01 00:09:05.920,0.004,0,0.994,-0.122,0.854,0.244, , , , , , ,0.077,0.269,-115.983
 09:16:35.126,eb:33:2e:f9:57:b5, 2015-01-01 00:09:05.920,0.004,0,0.994,-0.122,0.854,0.183, , , , , , ,0.077,0.269,-115.983
 09:16:35.126,eb:33:2e:f9:57:b5, 2015-01-01 00:09:05.920,0.003,-0.001,0.994,-0.122,0.854,0.122, , , , , , ,0.077,0.269,-115.983
 09:16:35.126,eb:33:2e:f9:57:b5, 2015-01-01 00:09:05.920,0.003,-0.001,0.994,-0.061,0.793,0.122, , , , , , ,0.077,0.269,-115.983
 09:16:35.126,eb:33:2e:f9:57:b5, 2015-01-01 00:09:05.920,0.002,-0.002,0.994,-0.061,0.793,0.122, , , , , , ,0.077,0.269,-115.983
 09:16:35.126,eb:33:2e:f9:57:b5, 2015-01-01 00:09:05.920,0.003,-0.001,0.994,-0.061,0.732,0.122, , , , , , ,0.077,0.269,-115.983
 09:16:35.126,eb:33:2e:f9:57:b5, 2015-01-01 00:09:05.920,0.004,-0.001,0.995,0,0.671,0.183, , , , , , ,0.077,0.269,-115.983
 09:16:35.126,eb:33:2e:f9:57:b5, 2015-01-01 00:09:05.920,0.005,-0.002,0.997,0,0.732,0.244, , , , , , ,0.077,0.269,-115.983
 09:16:35.172,eb:33:2e:f9:57:b5, 2015-01-01 00:09:05.920,0.002,-0.002,0.997,0,0.793,0.305, , , , , , ,0.077,0.269,-115.983
 09:16:35.172,eb:33:2e:f9:57:b5, 2015-01-01 00:09:05.920,0.003,-0.002,0.993,0,0.732,0.305, , , , , , ,0.077,0.269,-115.983
 09:16:35.174,eb:33:2e:f9:57:b5, 2015-01-01 00:09:05.920,0.003,0,0.994,0,0.793,0.305, , , , , , ,0.077,0.269,-115.983
 09:16:35.174,eb:33:2e:f9:57:b5, 2015-01-01 00:09:05.920,0.002,0,0.995,0.061,0.854,0.305, , , , , , ,0.077,0.269,-115.983
 09:16:35.174,eb:33:2e:f9:57:b5, 2015-01-01 00:09:05.920,0,0,0.993,0,0.793,0.305, , , , , , ,0.077,0.269,-115.983
 09:16:35.174,eb:33:2e:f9:57:b5, 2015-01-01 00:09:05.920,0.002,0,0.991,0,0.732,0.305, , , , , , ,0.077,0.269,-115.983
 09:16:35.174,eb:33:2e:f9:57:b5, 2015-01-01 00:09:05.920,0.001,0,0.992,0,0.671,0.244, , , , , , ,0.077,0.269,-115.983
 09:16:35.174,eb:33:2e:f9:57:b5, 2015-01-01 00:09:05.920,0.001,0,0.993,0,0.61,0.183, , , , , , ,0.077,0.269,-115.983
 09:16:35.217,eb:33:2e:f9:57:b5, 2015-01-01 00:09:05.920,0.001,0,0.993,-0.061,0.488,0.183, , , , , , ,0.077,0.269,-115.983
 09:16:35.217,eb:33:2e:f9:57:b5, 2015-01-01 00:09:05.920,0.001,0,0.994,-0.061,0.366,0.122, , , , , , ,0.077,0.269,-115.983
 09:16:35.217,eb:33:2e:f9:57:b5, 2015-01-01 00:09:05.920,0.001,0,0.992,-0.122,0.366,0.183, , , , , , ,0.077,0.269,-115.983
 09:16:35.217,eb:33:2e:f9:57:b5, 2015-01-01 00:09:05.920,0.002,0,0.992,-0.183,0.366,0.122, , , , , , ,0.077,0.269,-115.983
 09:16:35.217,eb:33:2e:f9:57:b5, 2015-01-01 00:09:05.920,0.002,0,0.993,-0.244,0.305,0.183, , , , , , ,0.077,0.269,-115.983
 09:16:35.217,eb:33:2e:f9:57:b5, 2015-01-01 00:09:05.920,0.001,0.001,0.993,-0.244,0.244,0.122, , , , , , ,0.077,0.269,-115.983
 09:16:35.217,eb:33:2e:f9:57:b5, 2015-01-01 00:09:05.920,0.002,0,0.994,-0.366,0.183,0.122, , , , , , ,0.077,0.269,-115.983
 09:16:35.217,eb:33:2e:f9:57:b5, 2015-01-01 00:09:05.920,0.003,0,0.994,-0.366,0.183,0.061, , , , , , ,0.077,0.269,-115.983
 09:16:35.262,eb:33:2e:f9:57:b5, 2015-01-01 00:09:05.920,0.004,0,0.995,-0.366,0.244,0.061, , , , , , ,0.077,0.269,-115.983
 09:16:35.262,eb:33:2e:f9:57:b5, 2015-01-01 00:09:05.920,0.003,0,0.995,-0.366,0.366,0.061, , , , , , ,0.077,0.269,-115.983
 09:16:35.262,eb:33:2e:f9:57:b5, 2015-01-01 00:09:05.920,0.002,0,0.995,-0.427,0.366,0.122, , , , , , ,0.077,0.269,-115.983
 09:16:35.262,eb:33:2e:f9:57:b5, 2015-01-01 00:09:05.920,0.003,-0.001,0.994,-0.427,0.366,0.122, , , , , , ,0.077,0.269,-115.983
 09:16:35.262,eb:33:2e:f9:57:b5, 2015-01-01 00:09:05.920,0.003,-0.002,0.996,-0.488,0.427,0.122, , , , , , ,0.077,0.269,-115.983
 09:16:35.262,eb:33:2e:f9:57:b5, 2015-01-01 00:09:05.920,0.003,-0.002,0.997,-0.427,0.488,0.183, , , , , , ,0.077,0.269,-115.983
 09:16:35.262,eb:33:2e:f9:57:b5, 2015-01-01 00:09:05.920,0.001,-0.002,0.997,-0.366,0.488,0.244, , , , , , ,0.077,0.269,-115.983
 09:16:35.262,eb:33:2e:f9:57:b5, 2015-01-01 00:09:05.920,0.001,-0.002,0.996,-0.305,0.488,0.244, , , , , , ,0.077,0.269,-115.983
 09:16:35.285,eb:33:2e:f9:57:b5, 2015-01-01 00:09:05.920,0.001,-0.002,0.995,-0.305,0.427,0.244, , , , , , ,0.077,0.269,-115.983
 09:16:35.285,eb:33:2e:f9:57:b5, 2015-01-01 00:09:05.920,0.004,-0.003,0.997,-0.183,0.366,0.244, , , , , , ,0.077,0.269,-115.983
 09:16:35.285,eb:33:2e:f9:57:b5, 2015-01-01 00:09:05.920,0.003,-0.003,0.997,-0.183,0.488,0.244, , , , , , ,0.077,0.264,-115.983
 09:16:35.285,eb:33:2e:f9:57:b5, 2015-01-01 00:09:05.920,0.002,-0.001,0.996,-0.122,0.549,0.305, , , , , , ,0.077,0.264,-115.983
 09:16:35.285,eb:33:2e:f9:57:b5, 2015-01-01 00:09:05.920,0.001,-0.001,0.994,-0.122,0.61,0.244, , , , , , ,0.077,0.264,-115.983
 09:16:35.285,eb:33:2e:f9:57:b5, 2015-01-01 00:09:05.920,0.002,-0.001,0.995,-0.122,0.549,0.244, , , , , , ,0.077,0.264,-115.983
 09:16:35.285,eb:33:2e:f9:57:b5, 2015-01-01 00:09:05.920,0.002,-0.001,0.995,-0.122,0.549,0.183, , , , , , ,0.077,0.264,-115.983
 09:16:35.285,eb:33:2e:f9:57:b5, 2015-01-01 00:09:05.920,0,0,0.993,-0.122,0.671,0.305, , , , , , ,0.077,0.264,-115.983
 09:16:35.330,eb:33:2e:f9:57:b5, 2015-01-01 00:09:05.920,0,0,0.993,-0.183,0.61,0.305, , , , , , ,0.077,0.264,-115.983
 09:16:35.330,eb:33:2e:f9:57:b5, 2015-01-01 00:09:05.920,0,-0.001,0.993,-0.183,0.488,0.244, , , , , , ,0.077,0.264,-115.983
 09:16:35.330,eb:33:2e:f9:57:b5, 2015-01-01 00:09:05.920,0.002,-0.001,0.993,-0.183,0.488,0.183, , , , , , ,0.077,0.264,-115.983
 09:16:35.330,eb:33:2e:f9:57:b5, 2015-01-01 00:09:05.920,0.002,-0.001,0.994,-0.183,0.488,0.122, , , , , , ,0.077,0.264,-115.983
 09:16:35.330,eb:33:2e:f9:57:b5, 2015-01-01 00:09:05.920,0.001,0,0.994,-0.244,0.427,0.122, , , , , , ,0.077,0.264,-115.983
 09:16:35.330,eb:33:2e:f9:57:b5, 2015-01-01 00:09:05.920,0,-0.001,0.995,-0.183,0.488,0.183, , , , , , ,0.077,0.264,-115.983
 09:16:35.330,eb:33:2e:f9:57:b5, 2015-01-01 00:09:05.920,0,-0.001,0.994,-0.244,0.427,0.183, , , , , , ,0.077,0.264,-115.983
 09:16:35.330,eb:33:2e:f9:57:b5, 2015-01-01 00:09:05.920,0,-0.002,0.994,-0.305,0.366,0.122, , , , , , ,0.077,0.264,-115.983
 09:16:35.397,eb:33:2e:f9:57:b5, 2015-01-01 00:09:06.210,0.001,-0.002,0.993,-0.305,0.305,0.061, , , , , , ,0.077,0.264,-115.983
 09:16:35.397,eb:33:2e:f9:57:b5, 2015-01-01 00:09:06.210,0.001,-0.002,0.994,-0.305,0.183,0.122, , , , , , ,0.077,0.264,-115.983
 09:16:35.397,eb:33:2e:f9:57:b5, 2015-01-01 00:09:06.210,0,-0.002,0.994,-0.244,0.122,0.122, , , , , , ,0.077,0.258,-115.983
 09:16:35.397,eb:33:2e:f9:57:b5, 2015-01-01 00:09:06.210,0.002,-0.003,0.994,-0.244,0,0.122, , , , , , ,0.077,0.258,-115.983
 09:16:35.397,eb:33:2e:f9:57:b5, 2015-01-01 00:09:06.210,0.004,-0.004,0.996,-0.122,0,0.183, , , , , , ,0.077,0.258,-115.983
 09:16:35.397,eb:33:2e:f9:57:b5, 2015-01-01 00:09:06.210,0.005,-0.004,0.999,0,0.122,0.183, , , , , , ,0.077,0.258,-115.983
 09:16:35.397,eb:33:2e:f9:57:b5, 2015-01-01 00:09:06.210,0,-0.004,1,0.061,0.244,0.061, , , , , , ,0.077,0.258,-115.983
 09:16:35.397,eb:33:2e:f9:57:b5, 2015-01-01 00:09:06.210,0.001,-0.002,0.995,0.183,0.183,0.183, , , , , , ,0.077,0.258,-115.983
 09:16:35.419,eb:33:2e:f9:57:b5, 2015-01-01 00:09:06.210,0,0,0.995,0.183,0.183,0.183, , , , , , ,0.077,0.258,-115.983
 09:16:35.419,eb:33:2e:f9:57:b5, 2015-01-01 00:09:06.210,0,0,0.994,0.122,0.183,0.183, , , , , , ,0.077,0.258,-115.983
 09:16:35.419,eb:33:2e:f9:57:b5, 2015-01-01 00:09:06.210,0.001,-0.002,0.993,0.122,0.061,0.122, , , , , , ,0.071,0.258,-115.983
