Time,Device name,Chip Time(),Acceleration X(g),Acceleration Y(g),Acceleration Z(g),Angular velocity X(°/s),Angular velocity Y(°/s),Angular velocity Z(°/s),ShiftX(mm),ShiftY(mm),ShiftZ(mm),SpeedX(mm/s),SpeedY(mm/s),SpeedZ(mm/s),Angle X(°),Angle Y(°),Angle Z(°)
 09:14:31.824,eb:33:2e:f9:57:b5, 2015-01-01 00:07:03.485,0.032,-0.031,0.993,0.061,0.488,0.183, , , , , , ,-1.758,-1.664,-119.52
 09:14:41.904,eb:33:2e:f9:57:b5, 2015-01-01 00:07:03.485,0.033,-0.031,0.993,0.061,0.427,0.122, , , , , , ,-1.758,-1.664,-119.52
 09:14:41.905,eb:33:2e:f9:57:b5, 2015-01-01 00:07:03.485,0.033,-0.031,0.994,0,0.366,0.183, , , , , , ,-1.758,-1.664,-119.52
 09:14:41.905,eb:33:2e:f9:57:b5, 2015-01-01 00:07:03.485,0.032,-0.03,0.993,0.061,0.366,0.122, , , , , , ,-1.758,-1.664,-119.52
 09:14:41.905,eb:33:2e:f9:57:b5, 2015-01-01 00:07:03.485,0.032,-0.031,0.993,0,0.305,0.122, , , , , , ,-1.758,-1.664,-119.52
 09:14:41.905,eb:33:2e:f9:57:b5, 2015-01-01 00:07:03.485,0.033,-0.031,0.991,0,0.244,0.122, , , , , , ,-1.758,-1.664,-119.52
 09:14:41.905,eb:33:2e:f9:57:b5, 2015-01-01 00:07:03.485,0.032,-0.031,0.992,0,0.305,0.061, , , , , , ,-1.758,-1.67,-119.52
 09:14:41.905,eb:33:2e:f9:57:b5, 2015-01-01 00:07:03.485,0.033,-0.031,0.992,-0.061,0.244,0.122, , , , , , ,-1.758,-1.67,-119.52
 09:14:41.906,eb:33:2e:f9:57:b5, 2015-01-01 00:07:03.485,0.034,-0.03,0.993,-0.122,0.183,0.061, , , , , , ,-1.758,-1.67,-119.52
 09:14:41.906,eb:33:2e:f9:57:b5, 2015-01-01 00:07:03.485,0.034,-0.031,0.993,-0.061,0.183,0.122, , , , , , ,-1.758,-1.67,-119.52
 09:14:41.906,eb:33:2e:f9:57:b5, 2015-01-01 00:07:03.485,0.035,-0.03,0.994,-0.061,0.244,0.122, , , , , , ,-1.758,-1.67,-119.52
 09:14:41.906,eb:33:2e:f9:57:b5, 2015-01-01 00:07:03.485,0.034,-0.031,0.993,-0.061,0.244,0.061, , , , , , ,-1.758,-1.67,-119.52
 09:14:41.906,eb:33:2e:f9:57:b5, 2015-01-01 00:07:03.485,0.035,-0.03,0.994,-0.183,0.305,0.122, , , , , , ,-1.758,-1.67,-119.52
 09:14:41.907,eb:33:2e:f9:57:b5, 2015-01-01 00:07:03.485,0.034,-0.031,0.994,-0.122,0.244,0.122, , , , , , ,-1.758,-1.67,-119.52
 09:14:41.907,eb:33:2e:f9:57:b5, 2015-01-01 00:07:03.485,0.035,-0.031,0.995,-0.183,0.244,0.061, , , , , , ,-1.758,-1.67,-119.526
 09:14:41.907,eb:33:2e:f9:57:b5, 2015-01-01 00:07:03.485,0.035,-0.032,0.996,-0.122,0.305,0.122, , , , , , ,-1.758,-1.67,-119.526
 09:14:41.907,eb:33:2e:f9:57:b5, 2015-01-01 00:07:03.485,0.035,-0.031,0.995,-0.122,0.366,0.061, , , , , , ,-1.758,-1.67,-119.526
 09:14:41.907,eb:33:2e:f9:57:b5, 2015-01-01 00:07:03.485,0.034,-0.031,0.995,-0.061,0.488,0.122, , , , , , ,-1.758,-1.67,-119.526
 09:14:41.907,eb:33:2e:f9:57:b5, 2015-01-01 00:07:03.485,0.034,-0.033,0.996,0,0.549,0.183, , , , , , ,-1.758,-1.67,-119.526
 09:14:41.907,eb:33:2e:f9:57:b5, 2015-01-01 00:07:03.485,0.033,-0.032,0.996,0,0.549,0.183, , , , , , ,-1.758,-1.67,-119.526
 09:14:41.907,eb:33:2e:f9:57:b5, 2015-01-01 00:07:03.485,0.031,-0.032,0.995,0,0.488,0.183, , , , , , ,-1.758,-1.67,-119.526
 09:14:41.907,eb:33:2e:f9:57:b5, 2015-01-01 00:07:03.485,0.032,-0.033,0.994,0.061,0.488,0.183, , , , , , ,-1.758,-1.67,-119.526
 09:14:41.907,eb:33:2e:f9:57:b5, 2015-01-01 00:07:03.485,0.032,-0.033,0.995,0.122,0.427,0.183, , , , , , ,-1.758,-1.675,-119.526
 09:14:41.907,eb:33:2e:f9:57:b5, 2015-01-01 00:07:03.485,0.032,-0.032,0.994,0.122,0.427,0.183, , , , , , ,-1.758,-1.675,-119.526
 09:14:41.907,eb:33:2e:f9:57:b5, 2015-01-01 00:07:03.485,0.033,-0.031,0.994,0.183,0.366,0.183, , , , , , ,-1.758,-1.675,-119.526
 09:14:41.907,eb:33:2e:f9:57:b5, 2015-01-01 00:07:03.485,0.034,-0.031,0.994,0.183,0.366,0.122, , , , , , ,-1.758,-1.675,-119.526
 09:14:41.907,eb:33:2e:f9:57:b5, 2015-01-01 00:07:03.485,0.034,-0.03,0.994,0.183,0.427,0.122, , , , , , ,-1.758,-1.675,-119.526
 09:14:41.907,eb:33:2e:f9:57:b5, 2015-01-01 00:07:03.485,0.033,-0.029,0.993,0.122,0.488,0.183, , , , , , ,-1.758,-1.675,-119.526
 09:14:41.908,eb:33:2e:f9:57:b5, 2015-01-01 00:07:03.485,0.03,-0.029,0.992,0.061,0.427,0.183, , , , , , ,-1.758,-1.675,-119.526
 09:14:41.908,eb:33:2e:f9:57:b5, 2015-01-01 00:07:03.485,0.031,-0.031,0.99,0,0.366,0.183, , , , , , ,-1.758,-1.675,-119.526
 09:14:41.908,eb:33:2e:f9:57:b5, 2015-01-01 00:07:03.485,0.033,-0.031,0.992,0,0.305,0.183, , , , , , ,-1.758,-1.675,-119.526
 09:14:41.908,eb:33:2e:f9:57:b5, 2015-01-01 00:07:03.485,0.032,-0.031,0.992,0,0.366,0.122, , , , , , ,-1.758,-1.675,-119.526
 09:14:41.908,eb:33:2e:f9:57:b5, 2015-01-01 00:07:03.485,0.031,-0.031,0.993,-0.061,0.305,0.183, , , , , , ,-1.758,-1.675,-119.526
 09:14:41.908,eb:33:2e:f9:57:b5, 2015-01-01 00:07:03.485,0.031,-0.031,0.993,-0.061,0.305,0.183, , , , , , ,-1.758,-1.675,-119.526
 09:14:41.908,eb:33:2e:f9:57:b5, 2015-01-01 00:07:03.485,0.032,-0.032,0.993,0,0.244,0.061, , , , , , ,-1.758,-1.675,-119.526
 09:14:41.908,eb:33:2e:f9:57:b5, 2015-01-01 00:07:03.485,0.033,-0.032,0.995,-0.061,0.244,0.122, , , , , , ,-1.758,-1.675,-119.526
 09:14:41.908,eb:33:2e:f9:57:b5, 2015-01-01 00:07:03.485,0.033,-0.032,0.995,-0.061,0.305,0.061, , , , , , ,-1.758,-1.675,-119.526
 09:14:41.908,eb:33:2e:f9:57:b5, 2015-01-01 00:07:03.485,0.032,-0.032,0.994,-0.061,0.305,0.122, , , , , , ,-1.758,-1.675,-119.526
 09:14:41.909,eb:33:2e:f9:57:b5, 2015-01-01 00:07:03.485,0.032,-0.031,0.994,-0.061,0.244,0.122, , , , , , ,-1.758,-1.681,-119.526
 09:14:41.909,eb:33:2e:f9:57:b5, 2015-01-01 00:07:03.485,0.032,-0.031,0.994,-0.061,0.244,0.061, , , , , , ,-1.758,-1.681,-119.526
 09:14:41.909,eb:33:2e:f9:57:b5, 2015-01-01 00:07:03.485,0.033,-0.033,0.995,0,0.244,0, , , , , , ,-1.758,-1.681,-119.526
 09:14:41.909,eb:33:2e:f9:57:b5, 2015-01-01 00:07:03.485,0.033,-0.033,0.995,0,0.244,0.061, , , , , , ,-1.758,-1.681,-119.526
 09:14:41.909,eb:33:2e:f9:57:b5, 2015-01-01 00:07:03.485,0.032,-0.034,0.996,0.061,0.305,0.061, , , , , , ,-1.758,-1.681,-119.526
 09:14:41.909,eb:33:2e:f9:57:b5, 2015-01-01 00:07:03.485,0.031,-0.034,0.995,0.061,0.305,0.061, , , , , , ,-1.758,-1.681,-119.526
 09:14:41.909,eb:33:2e:f9:57:b5, 2015-01-01 00:07:03.485,0.032,-0.033,0.994,0.061,0.244,0.122, , , , , , ,-1.758,-1.681,-119.526
 09:14:41.909,eb:33:2e:f9:57:b5, 2015-01-01 00:07:03.485,0.033,-0.032,0.995,0.122,0.244,0.061, , , , , , ,-1.758,-1.681,-119.526
 09:14:41.909,eb:33:2e:f9:57:b5, 2015-01-01 00:07:03.485,0.033,-0.032,0.997,0.183,0.244,0.061, , , , , , ,-1.763,-1.681,-119.531
 09:14:41.909,eb:33:2e:f9:57:b5, 2015-01-01 00:07:03.485,0.032,-0.032,0.996,0.244,0.366,0.122, , , , , , ,-1.763,-1.681,-119.531
 09:14:41.909,eb:33:2e:f9:57:b5, 2015-01-01 00:07:03.485,0.033,-0.032,0.994,0.244,0.366,0.061, , , , , , ,-1.763,-1.681,-119.531
 09:14:41.909,eb:33:2e:f9:57:b5, 2015-01-01 00:07:03.485,0.032,-0.031,0.993,0.244,0.366,0, , , , , , ,-1.763,-1.681,-119.531
 09:14:41.909,eb:33:2e:f9:57:b5, 2015-01-01 00:07:03.485,0.031,-0.031,0.992,0.183,0.427,0.061, , , , , , ,-1.763,-1.681,-119.531
 09:14:41.911,eb:33:2e:f9:57:b5, 2015-01-01 00:07:03.485,0.031,-0.03,0.992,0.122,0.305,0.122, , , , , , ,-1.763,-1.681,-119.531
 09:14:41.911,eb:33:2e:f9:57:b5, 2015-01-01 00:07:03.485,0.033,-0.031,0.993,0.122,0.305,0.122, , , , , , ,-1.763,-1.681,-119.531
 09:14:41.911,eb:33:2e:f9:57:b5, 2015-01-01 00:07:03.485,0.033,-0.031,0.994,0.122,0.305,0.122, , , , , , ,-1.763,-1.681,-119.531
 09:14:41.911,eb:33:2e:f9:57:b5, 2015-01-01 00:07:03.485,0.031,-0.032,0.995,0.122,0.366,0.122, , , , , , ,-1.763,-1.681,-119.531
 09:14:41.912,eb:33:2e:f9:57:b5, 2015-01-01 00:07:03.485,0.03,-0.03,0.993,0.061,0.366,0.122, , , , , , ,-1.763,-1.681,-119.531
 09:14:41.912,eb:33:2e:f9:57:b5, 2015-01-01 00:07:03.485,0.031,-0.03,0.991,0,0.305,0.122, , , , , , ,-1.763,-1.681,-119.531
 09:14:41.912,eb:33:2e:f9:57:b5, 2015-01-01 00:07:03.485,0.033,-0.031,0.992,0,0.305,0.061, , , , , , ,-1.763,-1.681,-119.531
 09:14:41.912,eb:33:2e:f9:57:b5, 2015-01-01 00:07:03.485,0.033,-0.031,0.995,0,0.305,0.122, , , , , , ,-1.763,-1.681,-119.531
 09:14:41.912,eb:33:2e:f9:57:b5, 2015-01-01 00:07:03.485,0.034,-0.032,0.996,0,0.366,0.122, , , , , , ,-1.763,-1.681,-119.531
 09:14:41.912,eb:33:2e:f9:57:b5, 2015-01-01 00:07:03.485,0.033,-0.032,0.996,0.061,0.488,0.122, , , , , , ,-1.763,-1.681,-119.531
 09:14:41.912,eb:33:2e:f9:57:b5, 2015-01-01 00:07:03.485,0.032,-0.031,0.995,0.061,0.427,0.061, , , , , , ,-1.763,-1.681,-119.531
 09:14:41.913,eb:33:2e:f9:57:b5, 2015-01-01 00:07:03.485,0.031,-0.031,0.994,0.061,0.488,0.061, , , , , , ,-1.763,-1.686,-119.531
 09:14:41.913,eb:33:2e:f9:57:b5, 2015-01-01 00:07:03.485,0.031,-0.031,0.994,0.061,0.427,0.061, , , , , , ,-1.763,-1.686,-119.531
 09:14:41.913,eb:33:2e:f9:57:b5, 2015-01-01 00:07:03.485,0.031,-0.032,0.994,0.122,0.427,0.061, , , , , , ,-1.763,-1.686,-119.531
 09:14:41.913,eb:33:2e:f9:57:b5, 2015-01-01 00:07:03.485,0.032,-0.032,0.995,0.183,0.488,0.061, , , , , , ,-1.763,-1.686,-119.531
 09:14:41.913,eb:33:2e:f9:57:b5, 2015-01-01 00:07:03.485,0.032,-0.032,0.995,0.183,0.549,0.122, , , , , , ,-1.763,-1.686,-119.531
 09:14:41.913,eb:33:2e:f9:57:b5, 2015-01-01 00:07:03.485,0.03,-0.031,0.995,0.183,0.549,0.061, , , , , , ,-1.763,-1.686,-119.531
 09:14:41.913,eb:33:2e:f9:57:b5, 2015-01-01 00:07:03.485,0.031,-0.031,0.994,0.183,0.549,0.122, , , , , , ,-1.763,-1.686,-119.531
 09:14:41.913,eb:33:2e:f9:57:b5, 2015-01-01 00:07:03.485,0.031,-0.031,0.994,0.183,0.549,0.061, , , , , , ,-1.763,-1.686,-119.531
 09:14:41.913,eb:33:2e:f9:57:b5, 2015-01-01 00:07:03.485,0.031,-0.031,0.995,0.183,0.61,0.122, , , , , , ,-1.763,-1.686,-119.531
 09:14:41.914,eb:33:2e:f9:57:b5, 2015-01-01 00:07:03.485,0.031,-0.031,0.995,0.244,0.61,0.061, , , , , , ,-1.763,-1.686,-119.531
 09:14:41.914,eb:33:2e:f9:57:b5, 2015-01-01 00:07:03.485,0.03,-0.031,0.994,0.244,0.549,0.122, , , , , , ,-1.763,-1.686,-119.531
 09:14:41.914,eb:33:2e:f9:57:b5, 2015-01-01 00:07:03.485,0.029,-0.031,0.994,0.305,0.549,0.122, , , , , , ,-1.763,-1.686,-119.531
 09:14:41.914,eb:33:2e:f9:57:b5, 2015-01-01 00:07:03.485,0.03,-0.03,0.993,0.244,0.488,0.061, , , , , , ,-1.763,-1.686,-119.531
 09:14:41.914,eb:33:2e:f9:57:b5, 2015-01-01 00:07:03.485,0.031,-0.032,0.994,0.244,0.427,0.061, , , , , , ,-1.763,-1.686,-119.531
 09:14:41.914,eb:33:2e:f9:57:b5, 2015-01-01 00:07:03.485,0.03,-0.031,0.995,0.305,0.427,0, , , , , , ,-1.763,-1.686,-119.531
 09:14:41.914,eb:33:2e:f9:57:b5, 2015-01-01 00:07:03.485,0.031,-0.032,0.994,0.366,0.488,0, , , , , , ,-1.763,-1.686,-119.531
 09:14:41.914,eb:33:2e:f9:57:b5, 2015-01-01 00:07:03.485,0.03,-0.031,0.994,0.427,0.427,0.061, , , , , , ,-1.763,-1.686,-119.531
 09:14:41.914,eb:33:2e:f9:57:b5, 2015-01-01 00:07:03.485,0.03,-0.031,0.994,0.366,0.427,0.061, , , , , , ,-1.763,-1.686,-119.531
 09:14:41.915,eb:33:2e:f9:57:b5, 2015-01-01 00:07:03.485,0.03,-0.031,0.995,0.427,0.488,0.122, , , , , , ,-1.763,-1.686,-119.531
 09:14:41.915,eb:33:2e:f9:57:b5, 2015-01-01 00:07:03.485,0.03,-0.03,0.994,0.366,0.427,0.061, , , , , , ,-1.763,-1.686,-119.531
 09:14:41.915,eb:33:2e:f9:57:b5, 2015-01-01 00:07:03.485,0.031,-0.03,0.994,0.366,0.366,0, , , , , , ,-1.763,-1.686,-119.531
 09:14:41.915,eb:33:2e:f9:57:b5, 2015-01-01 00:07:03.485,0.031,-0.031,0.994,0.427,0.427,0.061, , , , , , ,-1.763,-1.686,-119.531
 09:14:41.915,eb:33:2e:f9:57:b5, 2015-01-01 00:07:03.485,0.03,-0.03,0.994,0.366,0.488,0.061, , , , , , ,-1.763,-1.686,-119.537
 09:14:41.915,eb:33:2e:f9:57:b5, 2015-01-01 00:07:03.485,0.031,-0.03,0.993,0.366,0.427,0, , , , , , ,-1.763,-1.686,-119.537
 09:14:41.915,eb:33:2e:f9:57:b5, 2015-01-01 00:07:03.485,0.03,-0.03,0.993,0.305,0.488,0.061, , , , , , ,-1.763,-1.686,-119.537
 09:14:41.915,eb:33:2e:f9:57:b5, 2015-01-01 00:07:03.485,0.03,-0.031,0.993,0.305,0.488,0, , , , , , ,-1.763,-1.686,-119.537
 09:14:41.915,eb:33:2e:f9:57:b5, 2015-01-01 00:07:03.485,0.029,-0.03,0.992,0.244,0.488,0, , , , , , ,-1.763,-1.686,-119.537
 09:14:41.916,eb:33:2e:f9:57:b5, 2015-01-01 00:07:03.485,0.029,-0.029,0.992,0.183,0.427,0, , , , , , ,-1.763,-1.686,-119.537
 09:14:41.916,eb:33:2e:f9:57:b5, 2015-01-01 00:07:03.485,0.03,-0.03,0.993,0.183,0.366,0, , , , , , ,-1.763,-1.686,-119.537
 09:14:41.916,eb:33:2e:f9:57:b5, 2015-01-01 00:07:03.485,0.03,-0.03,0.994,0.183,0.427,0, , , , , , ,-1.763,-1.686,-119.537
 09:14:41.916,eb:33:2e:f9:57:b5, 2015-01-01 00:07:03.485,0.03,-0.031,0.994,0.183,0.427,0, , , , , , ,-1.763,-1.686,-119.537
 09:14:41.916,eb:33:2e:f9:57:b5, 2015-01-01 00:07:03.485,0.029,-0.03,0.994,0.183,0.427,0, , , , , , ,-1.763,-1.686,-119.537
 09:14:41.916,eb:33:2e:f9:57:b5, 2015-01-01 00:07:03.485,0.029,-0.031,0.994,0.183,0.366,0.061, , , , , , ,-1.763,-1.686,-119.537
 09:14:41.916,eb:33:2e:f9:57:b5, 2015-01-01 00:07:03.485,0.031,-0.031,0.994,0.244,0.305,0, , , , , , ,-1.763,-1.686,-119.537
 09:14:41.916,eb:33:2e:f9:57:b5, 2015-01-01 00:07:03.485,0.03,-0.031,0.995,0.183,0.366,0.061, , , , , , ,-1.763,-1.686,-119.537
 09:14:41.916,eb:33:2e:f9:57:b5, 2015-01-01 00:07:03.485,0.03,-0.03,0.994,0.244,0.427,0.061, , , , , , ,-1.763,-1.686,-119.537
 09:14:41.917,eb:33:2e:f9:57:b5, 2015-01-01 00:07:03.485,0.03,-0.03,0.994,0.183,0.366,0.061, , , , , , ,-1.763,-1.686,-119.537
 09:14:41.917,eb:33:2e:f9:57:b5, 2015-01-01 00:07:03.485,0.03,-0.031,0.995,0.244,0.366,0.061, , , , , , ,-1.763,-1.686,-119.537
 09:14:41.917,eb:33:2e:f9:57:b5, 2015-01-01 00:07:03.485,0.03,-0.032,0.996,0.305,0.427,0.061, , , , , , ,-1.763,-1.686,-119.537
 09:14:41.917,eb:33:2e:f9:57:b5, 2015-01-01 00:07:03.485,0.028,-0.031,0.996,0.305,0.549,0.061, , , , , , ,-1.763,-1.686,-119.537
 09:14:41.917,eb:33:2e:f9:57:b5, 2015-01-01 00:07:03.485,0.028,-0.03,0.994,0.305,0.549,0.061, , , , , , ,-1.763,-1.686,-119.537
 09:14:41.917,eb:33:2e:f9:57:b5, 2015-01-01 00:07:03.485,0.029,-0.03,0.993,0.305,0.488,0, , , , , , ,-1.763,-1.686,-119.537
 09:14:41.917,eb:33:2e:f9:57:b5, 2015-01-01 00:07:03.485,0.03,-0.03,0.994,0.305,0.427,0, , , , , , ,-1.763,-1.686,-119.537
 09:14:41.917,eb:33:2e:f9:57:b5, 2015-01-01 00:07:03.485,0.03,-0.03,0.995,0.305,0.427,0, , , , , , ,-1.763,-1.686,-119.537
 09:14:41.917,eb:33:2e:f9:57:b5, 2015-01-01 00:07:03.485,0.029,-0.03,0.994,0.366,0.427,0, , , , , , ,-1.763,-1.692,-119.537
 09:14:41.918,eb:33:2e:f9:57:b5, 2015-01-01 00:07:03.485,0.029,-0.031,0.994,0.305,0.549,0, , , , , , ,-1.763,-1.692,-119.537
 09:14:41.918,eb:33:2e:f9:57:b5, 2015-01-01 00:07:03.485,0.029,-0.03,0.994,0.305,0.488,0, , , , , , ,-1.763,-1.692,-119.537
 09:14:41.918,eb:33:2e:f9:57:b5, 2015-01-01 00:07:03.485,0.028,-0.03,0.994,0.244,0.488,0.061, , , , , , ,-1.763,-1.692,-119.537
 09:14:41.918,eb:33:2e:f9:57:b5, 2015-01-01 00:07:03.485,0.028,-0.029,0.993,0.244,0.488,0, , , , , , ,-1.763,-1.692,-119.537
 09:14:41.918,eb:33:2e:f9:57:b5, 2015-01-01 00:07:03.485,0.028,-0.029,0.993,0.183,0.427,0.061, , , , , , ,-1.763,-1.692,-119.537
 09:14:41.918,eb:33:2e:f9:57:b5, 2015-01-01 00:07:03.485,0.028,-0.029,0.993,0.122,0.427,0.061, , , , , , ,-1.763,-1.692,-119.537
 09:14:41.918,eb:33:2e:f9:57:b5, 2015-01-01 00:07:03.485,0.028,-0.029,0.993,0.122,0.366,0, , , , , , ,-1.763,-1.692,-119.537
 09:14:41.918,eb:33:2e:f9:57:b5, 2015-01-01 00:07:03.485,0.028,-0.03,0.993,0.122,0.366,0, , , , , , ,-1.763,-1.692,-119.537
 09:14:41.918,eb:33:2e:f9:57:b5, 2015-01-01 00:07:03.485,0.028,-0.03,0.994,0.122,0.366,0.061, , , , , , ,-1.763,-1.692,-119.537
 09:14:41.918,eb:33:2e:f9:57:b5, 2015-01-01 00:07:03.485,0.029,-0.029,0.995,0.122,0.305,0, , , , , , ,-1.763,-1.692,-119.537
 09:14:41.919,eb:33:2e:f9:57:b5, 2015-01-01 00:07:03.485,0.029,-0.029,0.995,0.122,0.366,0.061, , , , , , ,-1.763,-1.692,-119.537
 09:14:41.919,eb:33:2e:f9:57:b5, 2015-01-01 00:07:03.485,0.029,-0.03,0.994,0.122,0.366,0.061, , , , , , ,-1.763,-1.686,-119.537
 09:14:41.919,eb:33:2e:f9:57:b5, 2015-01-01 00:07:03.485,0.029,-0.031,0.995,0.183,0.366,0.061, , , , , , ,-1.763,-1.686,-119.537
 09:14:41.919,eb:33:2e:f9:57:b5, 2015-01-01 00:07:03.485,0.03,-0.031,0.997,0.244,0.427,0.061, , , , , , ,-1.763,-1.686,-119.537
 09:14:41.919,eb:33:2e:f9:57:b5, 2015-01-01 00:07:03.485,0.029,-0.031,0.997,0.305,0.549,0.061, , , , , , ,-1.763,-1.686,-119.537
 09:14:41.919,eb:33:2e:f9:57:b5, 2015-01-01 00:07:03.485,0.029,-0.031,0.997,0.305,0.61,0.061, , , , , , ,-1.763,-1.686,-119.537
 09:14:41.919,eb:33:2e:f9:57:b5, 2015-01-01 00:07:03.485,0.027,-0.03,0.996,0.305,0.671,0.183, , , , , , ,-1.763,-1.686,-119.537
 09:14:41.919,eb:33:2e:f9:57:b5, 2015-01-01 00:07:03.485,0.027,-0.029,0.994,0.305,0.549,0.061, , , , , , ,-1.763,-1.686,-119.537
 09:14:41.919,eb:33:2e:f9:57:b5, 2015-01-01 00:07:03.485,0.028,-0.029,0.993,0.244,0.549,0.061, , , , , , ,-1.763,-1.686,-119.537
 09:14:41.920,eb:33:2e:f9:57:b5, 2015-01-01 00:07:03.485,0.028,-0.028,0.993,0.244,0.549,0.061, , , , , , ,-1.763,-1.686,-119.537
 09:14:41.920,eb:33:2e:f9:57:b5, 2015-01-01 00:07:03.485,0.028,-0.028,0.994,0.183,0.488,0.122, , , , , , ,-1.763,-1.686,-119.537
 09:14:41.920,eb:33:2e:f9:57:b5, 2015-01-01 00:07:03.485,0.03,-0.028,0.995,0.183,0.488,0.061, , , , , , ,-1.763,-1.686,-119.537
 09:14:41.920,eb:33:2e:f9:57:b5, 2015-01-01 00:07:03.485,0.028,-0.029,0.995,0.122,0.549,0, , , , , , ,-1.763,-1.686,-119.537
 09:14:41.920,eb:33:2e:f9:57:b5, 2015-01-01 00:07:03.485,0.028,-0.029,0.995,0.122,0.549,0.061, , , , , , ,-1.763,-1.686,-119.537
 09:14:41.920,eb:33:2e:f9:57:b5, 2015-01-01 00:07:03.485,0.027,-0.031,0.994,0.183,0.488,0.061, , , , , , ,-1.763,-1.686,-119.537
 09:14:41.920,eb:33:2e:f9:57:b5, 2015-01-01 00:07:03.485,0.026,-0.03,0.993,0.122,0.549,0, , , , , , ,-1.763,-1.686,-119.537
 09:14:41.920,eb:33:2e:f9:57:b5, 2015-01-01 00:07:03.485,0.027,-0.028,0.992,0.122,0.488,0.061, , , , , , ,-1.763,-1.686,-119.537
 09:14:41.920,eb:33:2e:f9:57:b5, 2015-01-01 00:07:03.485,0.028,-0.029,0.992,0.122,0.427,0.061, , , , , , ,-1.763,-1.686,-119.537
 09:14:41.921,eb:33:2e:f9:57:b5, 2015-01-01 00:07:03.485,0.028,-0.03,0.993,0.061,0.366,0, , , , , , ,-1.763,-1.686,-119.537
 09:14:41.921,eb:33:2e:f9:57:b5, 2015-01-01 00:07:03.485,0.029,-0.03,0.994,0.061,0.366,0.061, , , , , , ,-1.763,-1.686,-119.537
 09:14:41.921,eb:33:2e:f9:57:b5, 2015-01-01 00:07:03.485,0.029,-0.029,0.994,0.061,0.427,0.061, , , , , , ,-1.763,-1.686,-119.537
 09:14:41.921,eb:33:2e:f9:57:b5, 2015-01-01 00:07:03.485,0.028,-0.03,0.996,0.061,0.488,0.122, , , , , , ,-1.763,-1.686,-119.537
 09:14:41.921,eb:33:2e:f9:57:b5, 2015-01-01 00:07:03.485,0.027,-0.03,0.995,0.061,0.488,0.061, , , , , , ,-1.763,-1.686,-119.537
 09:14:41.921,eb:33:2e:f9:57:b5, 2015-01-01 00:07:03.485,0.027,-0.031,0.995,0.122,0.427,0.122, , , , , , ,-1.763,-1.686,-119.537
 09:14:41.921,eb:33:2e:f9:57:b5, 2015-01-01 00:07:03.485,0.028,-0.031,0.995,0.122,0.427,0.183, , , , , , ,-1.763,-1.686,-119.537
 09:14:41.921,eb:33:2e:f9:57:b5, 2015-01-01 00:07:03.485,0.03,-0.029,0.995,0.183,0.488,0.183, , , , , , ,-1.763,-1.686,-119.537
 09:14:41.921,eb:33:2e:f9:57:b5, 2015-01-01 00:07:03.485,0.029,-0.029,0.997,0.183,0.488,0.183, , , , , , ,-1.763,-1.686,-119.537
 09:14:41.922,eb:33:2e:f9:57:b5, 2015-01-01 00:07:03.485,0.029,-0.03,0.997,0.244,0.671,0.122, , , , , , ,-1.763,-1.686,-119.537
 09:14:41.922,eb:33:2e:f9:57:b5, 2015-01-01 00:07:03.485,0.028,-0.03,0.996,0.183,0.732,0.122, , , , , , ,-1.763,-1.686,-119.537
 09:14:41.922,eb:33:2e:f9:57:b5, 2015-01-01 00:07:03.485,0.027,-0.03,0.994,0.244,0.732,0.122, , , , , , ,-1.763,-1.686,-119.537
 09:14:41.922,eb:33:2e:f9:57:b5, 2015-01-01 00:07:03.485,0.026,-0.029,0.993,0.244,0.671,0.183, , , , , , ,-1.763,-1.686,-119.537
 09:14:41.922,eb:33:2e:f9:57:b5, 2015-01-01 00:07:03.485,0.026,-0.028,0.993,0.244,0.61,0.122, , , , , , ,-1.763,-1.686,-119.537
 09:14:41.922,eb:33:2e:f9:57:b5, 2015-01-01 00:07:03.485,0.027,-0.029,0.993,0.122,0.61,0.122, , , , , , ,-1.763,-1.686,-119.537
 09:14:41.922,eb:33:2e:f9:57:b5, 2015-01-01 00:07:03.485,0.026,-0.029,0.993,0.122,0.61,0.122, , , , , , ,-1.763,-1.686,-119.537
 09:14:41.922,eb:33:2e:f9:57:b5, 2015-01-01 00:07:03.485,0.025,-0.029,0.993,0.061,0.488,0.122, , , , , , ,-1.763,-1.686,-119.537
 09:14:41.922,eb:33:2e:f9:57:b5, 2015-01-01 00:07:03.485,0.026,-0.028,0.993,0,0.488,0.122, , , , , , ,-1.763,-1.686,-119.537
 09:14:41.922,eb:33:2e:f9:57:b5, 2015-01-01 00:07:03.485,0.027,-0.028,0.993,0,0.427,0.183, , , , , , ,-1.763,-1.686,-119.537
 09:14:41.922,eb:33:2e:f9:57:b5, 2015-01-01 00:07:03.485,0.028,-0.028,0.993,0,0.427,0.183, , , , , , ,-1.758,-1.686,-119.537
 09:14:41.922,eb:33:2e:f9:57:b5, 2015-01-01 00:07:03.485,0.028,-0.028,0.994,0,0.488,0.183, , , , , , ,-1.758,-1.686,-119.537
 09:14:41.923,eb:33:2e:f9:57:b5, 2015-01-01 00:07:03.485,0.027,-0.029,0.993,-0.061,0.61,0.183, , , , , , ,-1.758,-1.686,-119.537
 09:14:41.923,eb:33:2e:f9:57:b5, 2015-01-01 00:07:03.485,0.026,-0.03,0.993,0,0.549,0.183, , , , , , ,-1.758,-1.686,-119.537
 09:14:41.923,eb:33:2e:f9:57:b5, 2015-01-01 00:07:03.485,0.026,-0.03,0.993,0,0.488,0.122, , , , , , ,-1.758,-1.686,-119.537
 09:14:41.923,eb:33:2e:f9:57:b5, 2015-01-01 00:07:03.485,0.026,-0.029,0.994,0,0.427,0.122, , , , , , ,-1.758,-1.686,-119.537
 09:14:41.923,eb:33:2e:f9:57:b5, 2015-01-01 00:07:03.485,0.027,-0.028,0.994,0,0.488,0.122, , , , , , ,-1.758,-1.686,-119.537
 09:14:41.923,eb:33:2e:f9:57:b5, 2015-01-01 00:07:03.485,0.026,-0.028,0.993,0,0.427,0.183, , , , , , ,-1.758,-1.686,-119.537
 09:14:41.923,eb:33:2e:f9:57:b5, 2015-01-01 00:07:03.485,0.026,-0.029,0.993,-0.061,0.366,0.183, , , , , , ,-1.758,-1.686,-119.537
 09:14:41.923,eb:33:2e:f9:57:b5, 2015-01-01 00:07:03.485,0.026,-0.029,0.992,-0.061,0.366,0.183, , , , , , ,-1.758,-1.686,-119.537
 09:14:41.923,eb:33:2e:f9:57:b5, 2015-01-01 00:07:03.485,0.027,-0.029,0.994,-0.061,0.305,0.122, , , , , , ,-1.758,-1.686,-119.537
 09:14:41.923,eb:33:2e:f9:57:b5, 2015-01-01 00:07:03.485,0.028,-0.029,0.996,-0.061,0.305,0.061, , , , , , ,-1.758,-1.686,-119.537
 09:14:41.923,eb:33:2e:f9:57:b5, 2015-01-01 00:07:03.485,0.028,-0.03,0.997,0,0.488,0.061, , , , , , ,-1.758,-1.686,-119.537
 09:14:41.924,eb:33:2e:f9:57:b5, 2015-01-01 00:07:03.485,0.027,-0.03,0.996,0,0.488,0.122, , , , , , ,-1.758,-1.686,-119.537
 09:14:41.924,eb:33:2e:f9:57:b5, 2015-01-01 00:07:03.485,0.027,-0.03,0.995,0,0.549,0.122, , , , , , ,-1.758,-1.686,-119.537
 09:14:41.924,eb:33:2e:f9:57:b5, 2015-01-01 00:07:03.485,0.025,-0.029,0.994,0,0.61,0.122, , , , , , ,-1.758,-1.686,-119.537
 09:14:41.924,eb:33:2e:f9:57:b5, 2015-01-01 00:07:03.485,0.025,-0.03,0.993,0,0.61,0.122, , , , , , ,-1.758,-1.681,-119.537
 09:14:41.924,eb:33:2e:f9:57:b5, 2015-01-01 00:07:03.485,0.025,-0.029,0.993,0,0.61,0.183, , , , , , ,-1.758,-1.681,-119.537
 09:14:41.924,eb:33:2e:f9:57:b5, 2015-01-01 00:07:03.485,0.025,-0.029,0.994,0,0.549,0.122, , , , , , ,-1.758,-1.681,-119.537
 09:14:41.924,eb:33:2e:f9:57:b5, 2015-01-01 00:07:03.485,0.025,-0.029,0.993,0,0.549,0.122, , , , , , ,-1.758,-1.681,-119.537
 09:14:41.924,eb:33:2e:f9:57:b5, 2015-01-01 00:07:03.485,0.025,-0.03,0.994,0,0.488,0.183, , , , , , ,-1.758,-1.681,-119.537
 09:14:41.924,eb:33:2e:f9:57:b5, 2015-01-01 00:07:03.485,0.026,-0.03,0.995,0,0.488,0.122, , , , , , ,-1.758,-1.681,-119.537
 09:14:41.924,eb:33:2e:f9:57:b5, 2015-01-01 00:07:03.485,0.026,-0.03,0.994,0.061,0.488,0.122, , , , , , ,-1.758,-1.681,-119.542
 09:14:41.924,eb:33:2e:f9:57:b5, 2015-01-01 00:07:03.485,0.025,-0.029,0.994,0,0.427,0.183, , , , , , ,-1.758,-1.681,-119.542
 09:14:41.924,eb:33:2e:f9:57:b5, 2015-01-01 00:07:03.485,0.025,-0.029,0.994,0,0.488,0.122, , , , , , ,-1.758,-1.681,-119.537
 09:14:41.924,eb:33:2e:f9:57:b5, 2015-01-01 00:07:03.485,0.025,-0.03,0.994,0.061,0.427,0.122, , , , , , ,-1.758,-1.681,-119.537
 09:14:41.924,eb:33:2e:f9:57:b5, 2015-01-01 00:07:03.485,0.025,-0.029,0.993,0,0.366,0.183, , , , , , ,-1.758,-1.681,-119.542
 09:14:41.924,eb:33:2e:f9:57:b5, 2015-01-01 00:07:03.485,0.026,-0.029,0.995,0.061,0.427,0.122, , , , , , ,-1.758,-1.681,-119.542
 09:14:41.925,eb:33:2e:f9:57:b5, 2015-01-01 00:07:03.485,0.025,-0.029,0.995,0,0.427,0.183, , , , , , ,-1.758,-1.681,-119.537
 09:14:41.925,eb:33:2e:f9:57:b5, 2015-01-01 00:07:03.485,0.027,-0.03,0.994,0,0.427,0.122, , , , , , ,-1.758,-1.681,-119.537
 09:14:41.925,eb:33:2e:f9:57:b5, 2015-01-01 00:07:03.485,0.024,-0.029,0.994,0,0.488,0.183, , , , , , ,-1.758,-1.681,-119.542
 09:14:41.925,eb:33:2e:f9:57:b5, 2015-01-01 00:07:03.485,0.023,-0.029,0.992,0,0.427,0.183, , , , , , ,-1.758,-1.681,-119.542
 09:14:41.925,eb:33:2e:f9:57:b5, 2015-01-01 00:07:03.485,0.023,-0.028,0.991,0,0.305,0.183, , , , , , ,-1.758,-1.681,-119.537
 09:14:41.925,eb:33:2e:f9:57:b5, 2015-01-01 00:07:03.485,0.024,-0.028,0.992,-0.061,0.244,0.244, , , , , , ,-1.758,-1.681,-119.537
 09:14:41.925,eb:33:2e:f9:57:b5, 2015-01-01 00:07:03.485,0.026,-0.028,0.993,-0.061,0.244,0.183, , , , , , ,-1.758,-1.681,-119.542
 09:14:41.925,eb:33:2e:f9:57:b5, 2015-01-01 00:07:03.485,0.027,-0.029,0.995,-0.061,0.244,0.183, , , , , , ,-1.758,-1.681,-119.542
 09:14:41.925,eb:33:2e:f9:57:b5, 2015-01-01 00:07:03.485,0.024,-0.029,0.995,0,0.305,0.183, , , , , , ,-1.758,-1.675,-119.537
 09:14:41.925,eb:33:2e:f9:57:b5, 2015-01-01 00:07:03.485,0.023,-0.03,0.994,-0.061,0.305,0.122, , , , , , ,-1.758,-1.675,-119.537
 09:14:41.925,eb:33:2e:f9:57:b5, 2015-01-01 00:07:03.485,0.023,-0.029,0.993,-0.061,0.305,0.061, , , , , , ,-1.758,-1.675,-119.542
 09:14:41.925,eb:33:2e:f9:57:b5, 2015-01-01 00:07:03.485,0.024,-0.029,0.992,-0.061,0.183,0.122, , , , , , ,-1.758,-1.675,-119.542
 09:14:41.925,eb:33:2e:f9:57:b5, 2015-01-01 00:07:03.485,0.025,-0.029,0.994,-0.061,0.061,0.122, , , , , , ,-1.758,-1.675,-119.537
 09:14:41.925,eb:33:2e:f9:57:b5, 2015-01-01 00:07:03.485,0.025,-0.029,0.994,-0.122,0.061,0.122, , , , , , ,-1.758,-1.675,-119.537
 09:14:41.925,eb:33:2e:f9:57:b5, 2015-01-01 00:07:03.485,0.024,-0.029,0.995,-0.122,0.122,0.061, , , , , , ,-1.758,-1.675,-119.537
 09:14:41.925,eb:33:2e:f9:57:b5, 2015-01-01 00:07:03.485,0.024,-0.029,0.994,-0.061,0.061,0.061, , , , , , ,-1.758,-1.675,-119.537
 09:14:41.926,eb:33:2e:f9:57:b5, 2015-01-01 00:07:03.485,0.024,-0.029,0.993,-0.122,0.061,0.061, , , , , , ,-1.758,-1.675,-119.537
 09:14:41.926,eb:33:2e:f9:57:b5, 2015-01-01 00:07:03.485,0.025,-0.029,0.994,-0.061,0.061,0.061, , , , , , ,-1.758,-1.675,-119.537
 09:14:41.926,eb:33:2e:f9:57:b5, 2015-01-01 00:07:03.485,0.025,-0.03,0.995,-0.122,0.061,0.061, , , , , , ,-1.758,-1.675,-119.537
 09:14:41.926,eb:33:2e:f9:57:b5, 2015-01-01 00:07:03.485,0.025,-0.029,0.995,-0.183,0.061,0.061, , , , , , ,-1.758,-1.675,-119.537
 09:14:41.926,eb:33:2e:f9:57:b5, 2015-01-01 00:07:03.485,0.025,-0.029,0.995,-0.122,0.061,0.061, , , , , , ,-1.758,-1.675,-119.537
 09:14:41.926,eb:33:2e:f9:57:b5, 2015-01-01 00:07:03.485,0.024,-0.029,0.995,-0.122,0.122,0.061, , , , , , ,-1.758,-1.675,-119.537
 09:14:41.926,eb:33:2e:f9:57:b5, 2015-01-01 00:07:03.485,0.026,-0.029,0.994,-0.183,0.122,0.122, , , , , , ,-1.758,-1.675,-119.537
 09:14:41.926,eb:33:2e:f9:57:b5, 2015-01-01 00:07:03.485,0.025,-0.029,0.994,-0.183,0.183,0.122, , , , , , ,-1.758,-1.675,-119.537
 09:14:41.926,eb:33:2e:f9:57:b5, 2015-01-01 00:07:03.485,0.025,-0.029,0.995,-0.183,0.183,0.122, , , , , , ,-1.752,-1.675,-119.537
 09:14:41.926,eb:33:2e:f9:57:b5, 2015-01-01 00:07:03.485,0.022,-0.03,0.994,-0.183,0.183,0.061, , , , , , ,-1.752,-1.675,-119.537
 09:14:41.926,eb:33:2e:f9:57:b5, 2015-01-01 00:07:03.485,0.026,-0.03,0.993,-0.244,0.061,0.122, , , , , , ,-1.752,-1.675,-119.537
 09:14:41.926,eb:33:2e:f9:57:b5, 2015-01-01 00:07:03.485,0.026,-0.03,0.995,-0.244,0.122,0.061, , , , , , ,-1.752,-1.675,-119.537
 09:14:41.926,eb:33:2e:f9:57:b5, 2015-01-01 00:07:03.485,0.026,-0.03,0.996,-0.183,0.183,0.061, , , , , , ,-1.752,-1.67,-119.537
 09:14:41.926,eb:33:2e:f9:57:b5, 2015-01-01 00:07:03.485,0.025,-0.029,0.994,-0.183,0.244,0.061, , , , , , ,-1.752,-1.67,-119.537
 09:14:41.926,eb:33:2e:f9:57:b5, 2015-01-01 00:07:03.485,0.023,-0.03,0.995,-0.244,0.244,0.061, , , , , , ,-1.752,-1.67,-119.537
 09:14:41.928,eb:33:2e:f9:57:b5, 2015-01-01 00:07:03.485,0.023,-0.029,0.993,-0.183,0.183,0, , , , , , ,-1.752,-1.67,-119.537
 09:14:41.928,eb:33:2e:f9:57:b5, 2015-01-01 00:07:03.485,0.024,-0.03,0.993,-0.244,0.061,0, , , , , , ,-1.752,-1.67,-119.537
 09:14:41.928,eb:33:2e:f9:57:b5, 2015-01-01 00:07:03.485,0.025,-0.029,0.994,-0.244,0.061,0, , , , , , ,-1.752,-1.67,-119.537
 09:14:41.928,eb:33:2e:f9:57:b5, 2015-01-01 00:07:03.485,0.024,-0.031,0.995,-0.183,0.061,0.061, , , , , , ,-1.752,-1.67,-119.537
 09:14:41.928,eb:33:2e:f9:57:b5, 2015-01-01 00:07:03.485,0.023,-0.029,0.994,-0.183,0.061,0.061, , , , , , ,-1.752,-1.67,-119.537
 09:14:41.928,eb:33:2e:f9:57:b5, 2015-01-01 00:07:03.485,0.022,-0.03,0.993,-0.244,0,0, , , , , , ,-1.752,-1.67,-119.537
 09:14:41.928,eb:33:2e:f9:57:b5, 2015-01-01 00:07:03.485,0.023,-0.03,0.993,-0.244,0,0, , , , , , ,-1.752,-1.67,-119.537
 09:14:41.928,eb:33:2e:f9:57:b5, 2015-01-01 00:07:03.485,0.024,-0.029,0.992,-0.305,-0.061,0, , , , , , ,-1.752,-1.67,-119.537
 09:14:41.928,eb:33:2e:f9:57:b5, 2015-01-01 00:07:03.485,0.024,-0.029,0.992,-0.366,-0.122,0.122, , , , , , ,-1.752,-1.67,-119.537
 09:14:41.928,eb:33:2e:f9:57:b5, 2015-01-01 00:07:03.485,0.024,-0.03,0.993,-0.366,-0.122,0.122, , , , , , ,-1.752,-1.67,-119.537
 09:14:41.928,eb:33:2e:f9:57:b5, 2015-01-01 00:07:03.485,0.024,-0.03,0.993,-0.427,-0.122,0.122, , , , , , ,-1.752,-1.67,-119.537
 09:14:41.928,eb:33:2e:f9:57:b5, 2015-01-01 00:07:03.485,0.024,-0.03,0.995,-0.427,-0.122,0.122, , , , , , ,-1.752,-1.67,-119.537
 09:14:41.928,eb:33:2e:f9:57:b5, 2015-01-01 00:07:03.485,0.023,-0.03,0.994,-0.549,-0.122,0.061, , , , , , ,-1.752,-1.67,-119.537
 09:14:41.928,eb:33:2e:f9:57:b5, 2015-01-01 00:07:03.485,0.023,-0.03,0.994,-0.488,-0.183,0.061, , , , , , ,-1.752,-1.664,-119.537
 09:14:41.929,eb:33:2e:f9:57:b5, 2015-01-01 00:07:03.485,0.022,-0.03,0.994,-0.549,-0.244,0, , , , , , ,-1.752,-1.664,-119.537
 09:14:41.929,eb:33:2e:f9:57:b5, 2015-01-01 00:07:03.485,0.024,-0.03,0.992,-0.549,-0.366,0.061, , , , , , ,-1.752,-1.664,-119.537
 09:14:41.929,eb:33:2e:f9:57:b5, 2015-01-01 00:07:03.485,0.03,-0.031,0.995,-0.488,-0.366,0.061, , , , , , ,-1.752,-1.664,-119.537
 09:14:41.929,eb:33:2e:f9:57:b5, 2015-01-01 00:07:03.485,0.031,-0.031,1,-0.366,-0.122,0.061, , , , , , ,-1.752,-1.664,-119.537
 09:14:41.929,eb:33:2e:f9:57:b5, 2015-01-01 00:07:03.485,0.027,-0.032,1,-0.305,0.122,0.122, , , , , , ,-1.752,-1.664,-119.537
 09:14:41.929,eb:33:2e:f9:57:b5, 2015-01-01 00:07:03.485,0.023,-0.031,0.997,-0.244,0.244,0.122, , , , , , ,-1.752,-1.664,-119.537
 09:14:41.929,eb:33:2e:f9:57:b5, 2015-01-01 00:07:03.485,0.021,-0.031,0.995,-0.244,0.183,0.122, , , , , , ,-1.752,-1.664,-119.537
 09:14:41.929,eb:33:2e:f9:57:b5, 2015-01-01 00:07:03.485,0.022,-0.032,0.993,-0.244,0,0.183, , , , , , ,-1.752,-1.664,-119.537
 09:14:41.929,eb:33:2e:f9:57:b5, 2015-01-01 00:07:03.485,0.024,-0.031,0.994,-0.183,0,0.122, , , , , , ,-1.752,-1.664,-119.537
 09:14:41.929,eb:33:2e:f9:57:b5, 2015-01-01 00:07:03.485,0.021,-0.031,0.995,-0.183,0,0.183, , , , , , ,-1.752,-1.664,-119.537
 09:14:41.929,eb:33:2e:f9:57:b5, 2015-01-01 00:07:03.485,0.022,-0.031,0.992,-0.244,-0.122,0.244, , , , , , ,-1.752,-1.664,-119.537
 09:14:41.929,eb:33:2e:f9:57:b5, 2015-01-01 00:07:03.485,0.025,-0.03,0.992,-0.244,-0.183,0.183, , , , , , ,-1.752,-1.659,-119.537
 09:14:41.929,eb:33:2e:f9:57:b5, 2015-01-01 00:07:03.485,0.028,-0.03,0.994,-0.244,-0.244,0.183, , , , , , ,-1.752,-1.659,-119.537
 09:14:41.929,eb:33:2e:f9:57:b5, 2015-01-01 00:07:03.485,0.027,-0.031,0.996,-0.183,-0.061,0.183, , , , , , ,-1.752,-1.659,-119.537
 09:14:41.930,eb:33:2e:f9:57:b5, 2015-01-01 00:07:03.485,0.026,-0.031,0.996,-0.183,0,0.183, , , , , , ,-1.752,-1.659,-119.537
 09:14:41.930,eb:33:2e:f9:57:b5, 2015-01-01 00:07:03.485,0.022,-0.03,0.994,-0.183,0.061,0.122, , , , , , ,-1.752,-1.659,-119.537
 09:14:41.930,eb:33:2e:f9:57:b5, 2015-01-01 00:07:03.485,0.023,-0.029,0.992,-0.244,-0.122,0.122, , , , , , ,-1.752,-1.659,-119.537
 09:14:41.930,eb:33:2e:f9:57:b5, 2015-01-01 00:07:03.485,0.024,-0.031,0.992,-0.305,-0.183,0.061, , , , , , ,-1.752,-1.659,-119.537
 09:14:41.930,eb:33:2e:f9:57:b5, 2015-01-01 00:07:03.485,0.025,-0.031,0.994,-0.305,-0.183,0.061, , , , , , ,-1.752,-1.659,-119.537
 09:14:41.930,eb:33:2e:f9:57:b5, 2015-01-01 00:07:03.485,0.025,-0.03,0.995,-0.305,-0.183,0.061, , , , , , ,-1.752,-1.659,-119.537
 09:14:41.930,eb:33:2e:f9:57:b5, 2015-01-01 00:07:03.485,0.025,-0.03,0.994,-0.305,-0.183,0, , , , , , ,-1.752,-1.659,-119.537
 09:14:41.930,eb:33:2e:f9:57:b5, 2015-01-01 00:07:03.485,0.025,-0.032,0.994,-0.305,-0.244,0.061, , , , , , ,-1.752,-1.659,-119.537
 09:14:41.930,eb:33:2e:f9:57:b5, 2015-01-01 00:07:03.485,0.026,-0.031,0.994,-0.305,-0.244,0.061, , , , , , ,-1.752,-1.659,-119.537
 09:14:41.930,eb:33:2e:f9:57:b5, 2015-01-01 00:07:03.485,0.026,-0.032,0.995,-0.244,-0.183,0.122, , , , , , ,-1.752,-1.659,-119.537
 09:14:41.930,eb:33:2e:f9:57:b5, 2015-01-01 00:07:03.485,0.026,-0.033,0.996,-0.244,-0.183,0.122, , , , , , ,-1.752,-1.659,-119.537
 09:14:41.930,eb:33:2e:f9:57:b5, 2015-01-01 00:07:03.485,0.026,-0.032,0.996,-0.122,-0.122,0.122, , , , , , ,-1.752,-1.659,-119.537
 09:14:41.930,eb:33:2e:f9:57:b5, 2015-01-01 00:07:03.485,0.024,-0.031,0.995,-0.122,-0.061,0.122, , , , , , ,-1.752,-1.659,-119.537
 09:14:41.931,eb:33:2e:f9:57:b5, 2015-01-01 00:07:03.485,0.026,-0.031,0.994,-0.122,-0.122,0.122, , , , , , ,-1.752,-1.659,-119.537
 09:14:41.931,eb:33:2e:f9:57:b5, 2015-01-01 00:07:03.485,0.026,-0.032,0.996,-0.061,-0.061,0.183, , , , , , ,-1.752,-1.659,-119.537
 09:14:41.931,eb:33:2e:f9:57:b5, 2015-01-01 00:07:03.485,0.026,-0.032,0.997,0,0,0.183, , , , , , ,-1.752,-1.659,-119.542
 09:14:41.931,eb:33:2e:f9:57:b5, 2015-01-01 00:07:03.485,0.025,-0.031,0.996,0,0,0.061, , , , , , ,-1.752,-1.659,-119.542
 09:14:41.931,eb:33:2e:f9:57:b5, 2015-01-01 00:07:03.485,0.024,-0.031,0.994,0,0,0.061, , , , , , ,-1.752,-1.653,-119.542
 09:14:41.931,eb:33:2e:f9:57:b5, 2015-01-01 00:07:03.485,0.023,-0.032,0.994,0,0.061,0.122, , , , , , ,-1.752,-1.653,-119.542
 09:14:41.931,eb:33:2e:f9:57:b5, 2015-01-01 00:07:03.485,0.025,-0.032,0.993,0,0,0.061, , , , , , ,-1.752,-1.653,-119.542
 09:14:41.931,eb:33:2e:f9:57:b5, 2015-01-01 00:07:03.485,0.024,-0.031,0.994,0,0,0.061, , , , , , ,-1.752,-1.653,-119.542
 09:14:41.931,eb:33:2e:f9:57:b5, 2015-01-01 00:07:03.485,0.025,-0.031,0.994,0.122,0,0.061, , , , , , ,-1.752,-1.653,-119.542
 09:14:41.931,eb:33:2e:f9:57:b5, 2015-01-01 00:07:03.485,0.024,-0.031,0.994,0.061,0,0.122, , , , , , ,-1.752,-1.653,-119.542
 09:14:41.931,eb:33:2e:f9:57:b5, 2015-01-01 00:07:03.485,0.025,-0.031,0.993,0.061,0,0.061, , , , , , ,-1.752,-1.653,-119.542
 09:14:41.931,eb:33:2e:f9:57:b5, 2015-01-01 00:07:03.485,0.025,-0.031,0.994,0.061,-0.061,0.122, , , , , , ,-1.752,-1.653,-119.542
 09:14:41.931,eb:33:2e:f9:57:b5, 2015-01-01 00:07:03.485,0.024,-0.031,0.994,0.061,-0.061,0, , , , , , ,-1.752,-1.653,-119.542
 09:14:41.931,eb:33:2e:f9:57:b5, 2015-01-01 00:07:03.485,0.024,-0.031,0.993,0.061,-0.061,0, , , , , , ,-1.752,-1.653,-119.542
 09:14:41.932,eb:33:2e:f9:57:b5, 2015-01-01 00:07:03.485,0.024,-0.03,0.992,0.061,-0.122,0, , , , , , ,-1.752,-1.653,-119.542
 09:14:41.932,eb:33:2e:f9:57:b5, 2015-01-01 00:07:03.485,0.025,-0.03,0.992,0,-0.183,0, , , , , , ,-1.752,-1.653,-119.542
 09:14:41.932,eb:33:2e:f9:57:b5, 2015-01-01 00:07:03.485,0.026,-0.03,0.993,0,-0.183,0, , , , , , ,-1.758,-1.653,-119.542
 09:14:41.932,eb:33:2e:f9:57:b5, 2015-01-01 00:07:03.485,0.027,-0.031,0.994,0,-0.183,0, , , , , , ,-1.758,-1.653,-119.542
 09:14:41.932,eb:33:2e:f9:57:b5, 2015-01-01 00:07:03.485,0.026,-0.031,0.995,0,-0.061,0, , , , , , ,-1.758,-1.653,-119.542
 09:14:41.932,eb:33:2e:f9:57:b5, 2015-01-01 00:07:03.485,0.025,-0.032,0.995,0,0,0, , , , , , ,-1.758,-1.653,-119.542
 09:14:41.932,eb:33:2e:f9:57:b5, 2015-01-01 00:07:03.485,0.024,-0.032,0.994,0.061,0,0.061, , , , , , ,-1.758,-1.653,-119.542
 09:14:41.932,eb:33:2e:f9:57:b5, 2015-01-01 00:07:03.485,0.024,-0.031,0.994,0.061,-0.061,0, , , , , , ,-1.758,-1.653,-119.542
 09:14:41.932,eb:33:2e:f9:57:b5, 2015-01-01 00:07:03.485,0.026,-0.032,0.995,0.061,-0.122,0, , , , , , ,-1.758,-1.653,-119.542
 09:14:41.932,eb:33:2e:f9:57:b5, 2015-01-01 00:07:03.485,0.025,-0.032,0.995,0.122,-0.061,0, , , , , , ,-1.758,-1.653,-119.542
 09:14:41.932,eb:33:2e:f9:57:b5, 2015-01-01 00:07:03.485,0.023,-0.032,0.995,0.183,0,0, , , , , , ,-1.758,-1.648,-119.542
 09:14:41.932,eb:33:2e:f9:57:b5, 2015-01-01 00:07:03.485,0.023,-0.031,0.992,0.122,-0.061,0.061, , , , , , ,-1.758,-1.648,-119.542
 09:14:41.932,eb:33:2e:f9:57:b5, 2015-01-01 00:07:03.485,0.025,-0.031,0.992,0.122,-0.122,0, , , , , , ,-1.758,-1.648,-119.542
 09:14:41.932,eb:33:2e:f9:57:b5, 2015-01-01 00:07:03.485,0.026,-0.03,0.994,0.122,-0.183,0, , , , , , ,-1.758,-1.648,-119.542
 09:14:41.933,eb:33:2e:f9:57:b5, 2015-01-01 00:07:03.485,0.026,-0.03,0.993,0.122,-0.183,0, , , , , , ,-1.758,-1.648,-119.542
 09:14:41.933,eb:33:2e:f9:57:b5, 2015-01-01 00:07:03.485,0.025,-0.03,0.994,0.122,-0.122,0, , , , , , ,-1.758,-1.648,-119.542
 09:14:41.933,eb:33:2e:f9:57:b5, 2015-01-01 00:07:03.485,0.023,-0.03,0.993,0.122,-0.122,0, , , , , , ,-1.758,-1.648,-119.542
 09:14:41.933,eb:33:2e:f9:57:b5, 2015-01-01 00:07:03.485,0.024,-0.03,0.993,0.122,-0.183,0, , , , , , ,-1.758,-1.648,-119.542
 09:14:41.933,eb:33:2e:f9:57:b5, 2015-01-01 00:07:03.485,0.025,-0.03,0.993,0.061,-0.244,0, , , , , , ,-1.758,-1.648,-119.542
 09:14:41.933,eb:33:2e:f9:57:b5, 2015-01-01 00:07:03.485,0.024,-0.03,0.993,0.061,-0.305,0, , , , , , ,-1.758,-1.648,-119.542
 09:14:41.933,eb:33:2e:f9:57:b5, 2015-01-01 00:07:03.485,0.023,-0.03,0.992,0,-0.305,-0.061, , , , , , ,-1.758,-1.648,-119.542
 09:14:41.933,eb:33:2e:f9:57:b5, 2015-01-01 00:07:03.485,0.025,-0.03,0.992,0,-0.366,0, , , , , , ,-1.758,-1.648,-119.542
 09:14:41.933,eb:33:2e:f9:57:b5, 2015-01-01 00:07:03.485,0.024,-0.03,0.993,0,-0.427,0, , , , , , ,-1.758,-1.648,-119.542
 09:14:41.933,eb:33:2e:f9:57:b5, 2015-01-01 00:07:03.485,0.025,-0.03,0.993,0,-0.488,0, , , , , , ,-1.758,-1.648,-119.542
 09:14:41.933,eb:33:2e:f9:57:b5, 2015-01-01 00:07:03.485,0.026,-0.03,0.993,0,-0.427,-0.061, , , , , , ,-1.758,-1.648,-119.542
 09:14:41.933,eb:33:2e:f9:57:b5, 2015-01-01 00:07:03.485,0.025,-0.03,0.995,0,-0.427,-0.061, , , , , , ,-1.758,-1.648,-119.542
 09:14:41.933,eb:33:2e:f9:57:b5, 2015-01-01 00:07:03.485,0.023,-0.031,0.995,0,-0.427,-0.122, , , , , , ,-1.758,-1.642,-119.542
 09:14:41.933,eb:33:2e:f9:57:b5, 2015-01-01 00:07:03.485,0.025,-0.03,0.993,0,-0.488,-0.122, , , , , , ,-1.758,-1.642,-119.542
 09:14:41.934,eb:33:2e:f9:57:b5, 2015-01-01 00:07:03.485,0.026,-0.031,0.994,0,-0.549,-0.061, , , , , , ,-1.758,-1.642,-119.542
 09:14:41.934,eb:33:2e:f9:57:b5, 2015-01-01 00:07:03.485,0.026,-0.032,0.995,0,-0.488,-0.061, , , , , , ,-1.758,-1.642,-119.542
 09:14:41.934,eb:33:2e:f9:57:b5, 2015-01-01 00:07:03.485,0.025,-0.031,0.995,0,-0.427,-0.061, , , , , , ,-1.758,-1.642,-119.542
 09:14:41.934,eb:33:2e:f9:57:b5, 2015-01-01 00:07:03.485,0.024,-0.031,0.995,0,-0.427,-0.061, , , , , , ,-1.758,-1.642,-119.542
 09:14:41.934,eb:33:2e:f9:57:b5, 2015-01-01 00:07:03.485,0.024,-0.031,0.995,0.061,-0.427,-0.061, , , , , , ,-1.758,-1.642,-119.542
 09:14:41.934,eb:33:2e:f9:57:b5, 2015-01-01 00:07:03.485,0.025,-0.031,0.995,0.061,-0.488,-0.061, , , , , , ,-1.758,-1.642,-119.542
 09:14:41.934,eb:33:2e:f9:57:b5, 2015-01-01 00:07:03.485,0.026,-0.031,0.996,0.061,-0.427,-0.061, , , , , , ,-1.758,-1.642,-119.542
 09:14:41.934,eb:33:2e:f9:57:b5, 2015-01-01 00:07:03.485,0.027,-0.031,0.996,0.061,-0.366,-0.122, , , , , , ,-1.758,-1.642,-119.542
 09:14:41.934,eb:33:2e:f9:57:b5, 2015-01-01 00:07:03.485,0.027,-0.03,0.996,0.122,-0.366,-0.122, , , , , , ,-1.758,-1.642,-119.542
 09:14:41.934,eb:33:2e:f9:57:b5, 2015-01-01 00:07:03.485,0.026,-0.03,0.996,0.122,-0.244,-0.061, , , , , , ,-1.758,-1.642,-119.542
 09:14:41.934,eb:33:2e:f9:57:b5, 2015-01-01 00:07:03.485,0.025,-0.03,0.994,0.122,-0.244,-0.061, , , , , , ,-1.758,-1.642,-119.542
 09:14:41.934,eb:33:2e:f9:57:b5, 2015-01-01 00:07:03.485,0.026,-0.03,0.994,0.122,-0.244,-0.061, , , , , , ,-1.758,-1.642,-119.542
 09:14:41.934,eb:33:2e:f9:57:b5, 2015-01-01 00:07:03.485,0.027,-0.03,0.994,0.061,-0.244,0, , , , , , ,-1.758,-1.642,-119.542
 09:14:41.934,eb:33:2e:f9:57:b5, 2015-01-01 00:07:03.485,0.027,-0.03,0.995,0.061,-0.183,-0.061, , , , , , ,-1.758,-1.642,-119.542
 09:14:41.935,eb:33:2e:f9:57:b5, 2015-01-01 00:07:03.485,0.027,-0.03,0.996,0.122,-0.061,-0.061, , , , , , ,-1.758,-1.642,-119.542
 09:14:41.935,eb:33:2e:f9:57:b5, 2015-01-01 00:07:03.485,0.026,-0.031,0.996,0.122,0,-0.061, , , , , , ,-1.758,-1.642,-119.542
 09:14:41.935,eb:33:2e:f9:57:b5, 2015-01-01 00:07:03.485,0.026,-0.03,0.994,0.061,0,-0.061, , , , , , ,-1.758,-1.642,-119.542
 09:14:41.935,eb:33:2e:f9:57:b5, 2015-01-01 00:07:03.485,0.025,-0.03,0.993,0.061,0,0, , , , , , ,-1.758,-1.642,-119.542
 09:14:41.935,eb:33:2e:f9:57:b5, 2015-01-01 00:07:03.485,0.026,-0.03,0.994,0,0,-0.061, , , , , , ,-1.758,-1.642,-119.542
 09:14:41.935,eb:33:2e:f9:57:b5, 2015-01-01 00:07:03.485,0.025,-0.031,0.994,0,0,-0.061, , , , , , ,-1.758,-1.642,-119.542
 09:14:41.935,eb:33:2e:f9:57:b5, 2015-01-01 00:07:03.485,0.026,-0.03,0.993,0,0,-0.061, , , , , , ,-1.758,-1.642,-119.542
 09:14:41.935,eb:33:2e:f9:57:b5, 2015-01-01 00:07:03.485,0.026,-0.03,0.994,0,0,-0.061, , , , , , ,-1.758,-1.642,-119.542
 09:14:41.935,eb:33:2e:f9:57:b5, 2015-01-01 00:07:03.485,0.026,-0.03,0.995,0,0,-0.061, , , , , , ,-1.758,-1.637,-119.542
 09:14:41.935,eb:33:2e:f9:57:b5, 2015-01-01 00:07:03.485,0.025,-0.031,0.996,0,0,-0.061, , , , , , ,-1.758,-1.637,-119.542
 09:14:41.935,eb:33:2e:f9:57:b5, 2015-01-01 00:07:03.485,0.025,-0.03,0.994,0,0,-0.061, , , , , , ,-1.758,-1.637,-119.542
 09:14:41.935,eb:33:2e:f9:57:b5, 2015-01-01 00:07:03.485,0.025,-0.031,0.994,0,0,-0.061, , , , , , ,-1.758,-1.637,-119.542
 09:14:41.935,eb:33:2e:f9:57:b5, 2015-01-01 00:07:03.485,0.026,-0.032,0.996,0.061,-0.061,0, , , , , , ,-1.758,-1.637,-119.542
 09:14:41.936,eb:33:2e:f9:57:b5, 2015-01-01 00:07:03.485,0.027,-0.031,0.996,0.061,0,0, , , , , , ,-1.758,-1.637,-119.542
 09:14:41.936,eb:33:2e:f9:57:b5, 2015-01-01 00:07:03.485,0.024,-0.031,0.995,0.061,0,0, , , , , , ,-1.758,-1.637,-119.542
 09:14:41.936,eb:33:2e:f9:57:b5, 2015-01-01 00:07:03.485,0.024,-0.03,0.994,0.061,0,0, , , , , , ,-1.758,-1.637,-119.542
 09:14:41.936,eb:33:2e:f9:57:b5, 2015-01-01 00:07:03.485,0.024,-0.03,0.994,0.122,-0.061,-0.061, , , , , , ,-1.758,-1.637,-119.542
 09:14:41.936,eb:33:2e:f9:57:b5, 2015-01-01 00:07:03.485,0.026,-0.031,0.995,0.122,-0.061,0, , , , , , ,-1.758,-1.637,-119.542
 09:14:41.937,eb:33:2e:f9:57:b5, 2015-01-01 00:07:03.485,0.025,-0.03,0.996,0.183,0,0, , , , , , ,-1.758,-1.637,-119.542
 09:14:41.937,eb:33:2e:f9:57:b5, 2015-01-01 00:07:03.485,0.026,-0.03,0.996,0.183,0,0, , , , , , ,-1.758,-1.637,-119.542
 09:14:41.937,eb:33:2e:f9:57:b5, 2015-01-01 00:07:03.485,0.026,-0.031,0.996,0.183,0,0, , , , , , ,-1.758,-1.637,-119.542
 09:14:41.937,eb:33:2e:f9:57:b5, 2015-01-01 00:07:03.485,0.026,-0.031,0.996,0.183,0.061,0, , , , , , ,-1.758,-1.637,-119.542
 09:14:41.937,eb:33:2e:f9:57:b5, 2015-01-01 00:07:03.485,0.025,-0.031,0.995,0.244,0,0, , , , , , ,-1.758,-1.637,-119.542
 09:14:41.937,eb:33:2e:f9:57:b5, 2015-01-01 00:07:03.485,0.025,-0.031,0.996,0.183,0.122,0.061, , , , , , ,-1.758,-1.637,-119.542
 09:14:41.937,eb:33:2e:f9:57:b5, 2015-01-01 00:07:03.485,0.026,-0.031,0.994,0.244,0.061,0, , , , , , ,-1.758,-1.637,-119.542
 09:14:41.937,eb:33:2e:f9:57:b5, 2015-01-01 00:07:03.485,0.027,-0.031,0.994,0.244,0.122,0, , , , , , ,-1.758,-1.637,-119.542
 09:14:41.937,eb:33:2e:f9:57:b5, 2015-01-01 00:07:03.485,0.026,-0.031,0.994,0.244,0.183,0, , , , , , ,-1.758,-1.637,-119.542
 09:14:41.937,eb:33:2e:f9:57:b5, 2015-01-01 00:07:03.485,0.024,-0.03,0.995,0.244,0.244,0, , , , , , ,-1.758,-1.637,-119.542
 09:14:41.938,eb:33:2e:f9:57:b5, 2015-01-01 00:07:03.485,0.025,-0.03,0.993,0.183,0.183,0, , , , , , ,-1.758,-1.637,-119.542
 09:14:41.938,eb:33:2e:f9:57:b5, 2015-01-01 00:07:03.485,0.025,-0.03,0.993,0.122,0.122,0, , , , , , ,-1.758,-1.637,-119.542
 09:14:41.938,eb:33:2e:f9:57:b5, 2015-01-01 00:07:03.485,0.026,-0.029,0.993,0.122,0,0, , , , , , ,-1.758,-1.637,-119.542
 09:14:41.938,eb:33:2e:f9:57:b5, 2015-01-01 00:07:03.485,0.025,-0.029,0.994,0,0.061,0, , , , , , ,-1.758,-1.637,-119.542
 09:14:41.938,eb:33:2e:f9:57:b5, 2015-01-01 00:07:03.485,0.025,-0.03,0.994,0,0.122,0, , , , , , ,-1.758,-1.637,-119.542
 09:14:41.938,eb:33:2e:f9:57:b5, 2015-01-01 00:07:03.485,0.025,-0.03,0.993,0,0.061,0, , , , , , ,-1.758,-1.637,-119.542
 09:14:41.938,eb:33:2e:f9:57:b5, 2015-01-01 00:07:03.485,0.026,-0.029,0.994,0,0,0, , , , , , ,-1.758,-1.637,-119.542
 09:14:41.938,eb:33:2e:f9:57:b5, 2015-01-01 00:07:03.485,0.025,-0.03,0.994,0,0,0, , , , , , ,-1.758,-1.637,-119.542
 09:14:41.938,eb:33:2e:f9:57:b5, 2015-01-01 00:07:03.485,0.023,-0.03,0.994,0,0,0, , , , , , ,-1.758,-1.631,-119.542
 09:14:41.939,eb:33:2e:f9:57:b5, 2015-01-01 00:07:03.485,0.023,-0.031,0.994,0.061,0,0, , , , , , ,-1.758,-1.631,-119.542
 09:14:41.939,eb:33:2e:f9:57:b5, 2015-01-01 00:07:03.485,0.024,-0.03,0.993,0,-0.122,0, , , , , , ,-1.758,-1.631,-119.542
 09:14:41.939,eb:33:2e:f9:57:b5, 2015-01-01 00:07:03.485,0.025,-0.03,0.994,0.122,-0.122,0, , , , , , ,-1.758,-1.631,-119.542
 09:14:41.939,eb:33:2e:f9:57:b5, 2015-01-01 00:07:03.485,0.026,-0.032,0.995,0.061,-0.122,0, , , , , , ,-1.758,-1.631,-119.542
 09:14:41.939,eb:33:2e:f9:57:b5, 2015-01-01 00:07:03.485,0.026,-0.031,0.996,0.061,-0.122,0, , , , , , ,-1.758,-1.631,-119.542
 09:14:41.939,eb:33:2e:f9:57:b5, 2015-01-01 00:07:03.485,0.026,-0.031,0.995,0.122,-0.122,0, , , , , , ,-1.758,-1.631,-119.542
 09:14:41.939,eb:33:2e:f9:57:b5, 2015-01-01 00:07:03.485,0.026,-0.031,0.996,0.183,0,0, , , , , , ,-1.758,-1.631,-119.542
 09:14:41.939,eb:33:2e:f9:57:b5, 2015-01-01 00:07:03.485,0.026,-0.031,0.996,0.183,0,0, , , , , , ,-1.758,-1.631,-119.542
 09:14:41.939,eb:33:2e:f9:57:b5, 2015-01-01 00:07:03.485,0.025,-0.031,0.995,0.122,0,0, , , , , , ,-1.758,-1.631,-119.542
 09:14:41.939,eb:33:2e:f9:57:b5, 2015-01-01 00:07:03.485,0.025,-0.031,0.995,0.183,0,0, , , , , , ,-1.758,-1.631,-119.542
 09:14:41.939,eb:33:2e:f9:57:b5, 2015-01-01 00:07:03.485,0.025,-0.03,0.995,0.183,0,0, , , , , , ,-1.758,-1.631,-119.542
 09:14:41.939,eb:33:2e:f9:57:b5, 2015-01-01 00:07:03.485,0.026,-0.031,0.995,0.122,0,0, , , , , , ,-1.758,-1.631,-119.542
 09:14:41.940,eb:33:2e:f9:57:b5, 2015-01-01 00:07:03.485,0.025,-0.03,0.996,0.183,0.061,0, , , , , , ,-1.758,-1.631,-119.542
 09:14:41.940,eb:33:2e:f9:57:b5, 2015-01-01 00:07:03.485,0.025,-0.03,0.995,0.183,0.061,0, , , , , , ,-1.758,-1.631,-119.542
 09:14:41.940,eb:33:2e:f9:57:b5, 2015-01-01 00:07:03.485,0.025,-0.03,0.994,0.183,0.061,0, , , , , , ,-1.758,-1.631,-119.542
 09:14:41.940,eb:33:2e:f9:57:b5, 2015-01-01 00:07:03.485,0.025,-0.03,0.994,0.183,0,-0.061, , , , , , ,-1.758,-1.631,-119.542
 09:14:41.940,eb:33:2e:f9:57:b5, 2015-01-01 00:07:03.485,0.024,-0.03,0.994,0.183,0,-0.061, , , , , , ,-1.758,-1.631,-119.542
 09:14:41.940,eb:33:2e:f9:57:b5, 2015-01-01 00:07:03.485,0.024,-0.03,0.993,0.183,0,0, , , , , , ,-1.758,-1.631,-119.542
 09:14:41.940,eb:33:2e:f9:57:b5, 2015-01-01 00:07:03.485,0.025,-0.03,0.993,0.122,0,0, , , , , , ,-1.758,-1.631,-119.542
 09:14:41.940,eb:33:2e:f9:57:b5, 2015-01-01 00:07:03.485,0.025,-0.03,0.993,0.183,0,0, , , , , , ,-1.758,-1.631,-119.542
 09:14:41.940,eb:33:2e:f9:57:b5, 2015-01-01 00:07:03.485,0.026,-0.03,0.995,0.122,0,-0.061, , , , , , ,-1.758,-1.631,-119.542
 09:14:41.940,eb:33:2e:f9:57:b5, 2015-01-01 00:07:03.485,0.026,-0.03,0.994,0.122,-0.061,-0.061, , , , , , ,-1.758,-1.631,-119.542
 09:14:41.941,eb:33:2e:f9:57:b5, 2015-01-01 00:07:03.485,0.025,-0.03,0.994,0.122,0,0, , , , , , ,-1.758,-1.631,-119.542
 09:14:41.941,eb:33:2e:f9:57:b5, 2015-01-01 00:07:03.485,0.025,-0.03,0.995,0.122,-0.061,-0.061, , , , , , ,-1.758,-1.626,-119.542
 09:14:41.941,eb:33:2e:f9:57:b5, 2015-01-01 00:07:03.485,0.026,-0.029,0.994,0.183,0,0, , , , , , ,-1.758,-1.626,-119.542
 09:14:41.941,eb:33:2e:f9:57:b5, 2015-01-01 00:07:03.485,0.026,-0.03,0.995,0.061,0,-0.061, , , , , , ,-1.758,-1.626,-119.542
 09:14:41.941,eb:33:2e:f9:57:b5, 2015-01-01 00:07:03.485,0.026,-0.03,0.995,0.061,0,0, , , , , , ,-1.758,-1.626,-119.542
 09:14:41.941,eb:33:2e:f9:57:b5, 2015-01-01 00:07:03.485,0.025,-0.031,0.995,0.061,0,0, , , , , , ,-1.758,-1.626,-119.542
 09:14:41.941,eb:33:2e:f9:57:b5, 2015-01-01 00:07:03.485,0.026,-0.03,0.996,0.122,0,0, , , , , , ,-1.758,-1.626,-119.542
 09:14:41.941,eb:33:2e:f9:57:b5, 2015-01-01 00:07:03.485,0.025,-0.031,0.996,0.122,0.061,0, , , , , , ,-1.758,-1.626,-119.542
 09:14:41.941,eb:33:2e:f9:57:b5, 2015-01-01 00:07:03.485,0.024,-0.03,0.995,0.183,0.061,0, , , , , , ,-1.758,-1.626,-119.542
 09:14:41.942,eb:33:2e:f9:57:b5, 2015-01-01 00:07:03.485,0.024,-0.029,0.994,0.183,0,0, , , , , , ,-1.758,-1.626,-119.542
 09:14:41.942,eb:33:2e:f9:57:b5, 2015-01-01 00:07:03.485,0.025,-0.029,0.994,0.122,0.061,0, , , , , , ,-1.758,-1.626,-119.542
 09:14:41.942,eb:33:2e:f9:57:b5, 2015-01-01 00:07:03.485,0.025,-0.03,0.995,0.183,0.061,0, , , , , , ,-1.758,-1.626,-119.542
 09:14:41.942,eb:33:2e:f9:57:b5, 2015-01-01 00:07:03.485,0.024,-0.03,0.995,0.183,0.122,0, , , , , , ,-1.758,-1.626,-119.542
 09:14:41.942,eb:33:2e:f9:57:b5, 2015-01-01 00:07:03.485,0.024,-0.029,0.994,0.122,0.122,0, , , , , , ,-1.758,-1.626,-119.542
 09:14:41.942,eb:33:2e:f9:57:b5, 2015-01-01 00:07:03.485,0.026,-0.029,0.994,0.061,0,0, , , , , , ,-1.758,-1.626,-119.542
 09:14:41.942,eb:33:2e:f9:57:b5, 2015-01-01 00:07:03.485,0.026,-0.03,0.995,0.061,0.061,0, , , , , , ,-1.758,-1.626,-119.542
 09:14:41.943,eb:33:2e:f9:57:b5, 2015-01-01 00:07:03.485,0.025,-0.03,0.995,0.122,0.061,0, , , , , , ,-1.758,-1.626,-119.542
 09:14:41.943,eb:33:2e:f9:57:b5, 2015-01-01 00:07:03.485,0.024,-0.03,0.995,0.061,0.122,0, , , , , , ,-1.758,-1.626,-119.542
 09:14:41.943,eb:33:2e:f9:57:b5, 2015-01-01 00:07:03.485,0.024,-0.029,0.994,0,0.061,0, , , , , , ,-1.758,-1.626,-119.542
 09:14:41.943,eb:33:2e:f9:57:b5, 2015-01-01 00:07:03.485,0.025,-0.029,0.994,0.061,0.061,0, , , , , , ,-1.758,-1.626,-119.542
 09:14:41.943,eb:33:2e:f9:57:b5, 2015-01-01 00:07:03.485,0.026,-0.03,0.994,0.061,0.061,0, , , , , , ,-1.758,-1.626,-119.542
 09:14:41.943,eb:33:2e:f9:57:b5, 2015-01-01 00:07:03.485,0.026,-0.029,0.995,0.061,0.061,0, , , , , , ,-1.758,-1.626,-119.542
 09:14:41.943,eb:33:2e:f9:57:b5, 2015-01-01 00:07:03.485,0.025,-0.029,0.995,0.061,0.061,0, , , , , , ,-1.758,-1.626,-119.542
 09:14:41.943,eb:33:2e:f9:57:b5, 2015-01-01 00:07:03.485,0.025,-0.029,0.995,0.061,0.122,0, , , , , , ,-1.758,-1.626,-119.542
 09:14:41.943,eb:33:2e:f9:57:b5, 2015-01-01 00:07:03.485,0.026,-0.03,0.995,0.061,0.122,0, , , , , , ,-1.758,-1.626,-119.542
 09:14:41.943,eb:33:2e:f9:57:b5, 2015-01-01 00:07:03.485,0.026,-0.031,0.995,0.122,0.122,0, , , , , , ,-1.758,-1.62,-119.542
 09:14:41.944,eb:33:2e:f9:57:b5, 2015-01-01 00:07:03.485,0.025,-0.03,0.996,0.122,0.122,0, , , , , , ,-1.758,-1.62,-119.542
 09:14:41.944,eb:33:2e:f9:57:b5, 2015-01-01 00:07:03.485,0.023,-0.029,0.995,0.122,0.183,0, , , , , , ,-1.758,-1.62,-119.542
 09:14:41.944,eb:33:2e:f9:57:b5, 2015-01-01 00:07:03.485,0.025,-0.029,0.995,0.122,0.183,0, , , , , , ,-1.758,-1.62,-119.542
 09:14:41.944,eb:33:2e:f9:57:b5, 2015-01-01 00:07:03.485,0.025,-0.03,0.996,0.183,0.183,0.061, , , , , , ,-1.758,-1.62,-119.542
 09:14:41.944,eb:33:2e:f9:57:b5, 2015-01-01 00:07:03.485,0.024,-0.03,0.995,0.183,0.244,0, , , , , , ,-1.758,-1.62,-119.542
 09:14:41.944,eb:33:2e:f9:57:b5, 2015-01-01 00:07:03.485,0.024,-0.029,0.994,0.183,0.244,0, , , , , , ,-1.758,-1.62,-119.542
 09:14:41.944,eb:33:2e:f9:57:b5, 2015-01-01 00:07:03.485,0.023,-0.03,0.994,0.183,0.305,0, , , , , , ,-1.758,-1.62,-119.542
 09:14:41.944,eb:33:2e:f9:57:b5, 2015-01-01 00:07:03.485,0.024,-0.029,0.994,0.244,0.183,0, , , , , , ,-1.758,-1.62,-119.542
 09:14:41.944,eb:33:2e:f9:57:b5, 2015-01-01 00:07:03.485,0.025,-0.03,0.995,0.183,0.122,0, , , , , , ,-1.758,-1.62,-119.542
 09:14:41.944,eb:33:2e:f9:57:b5, 2015-01-01 00:07:03.485,0.026,-0.031,0.995,0.183,0.183,0, , , , , , ,-1.758,-1.62,-119.542
 09:14:41.944,eb:33:2e:f9:57:b5, 2015-01-01 00:07:03.485,0.025,-0.03,0.996,0.183,0.244,0.061, , , , , , ,-1.758,-1.62,-119.542
 09:14:41.944,eb:33:2e:f9:57:b5, 2015-01-01 00:07:03.485,0.025,-0.03,0.996,0.244,0.366,0.061, , , , , , ,-1.758,-1.62,-119.542
 09:14:41.944,eb:33:2e:f9:57:b5, 2015-01-01 00:07:03.485,0.024,-0.03,0.996,0.305,0.366,0.061, , , , , , ,-1.758,-1.62,-119.542
 09:14:41.944,eb:33:2e:f9:57:b5, 2015-01-01 00:07:03.485,0.024,-0.03,0.994,0.366,0.366,0.061, , , , , , ,-1.758,-1.62,-119.542
 09:14:41.945,eb:33:2e:f9:57:b5, 2015-01-01 00:07:03.485,0.024,-0.029,0.994,0.305,0.366,0, , , , , , ,-1.758,-1.62,-119.542
 09:14:41.945,eb:33:2e:f9:57:b5, 2015-01-01 00:07:03.485,0.024,-0.029,0.993,0.305,0.244,0, , , , , , ,-1.758,-1.62,-119.542
 09:14:41.945,eb:33:2e:f9:57:b5, 2015-01-01 00:07:03.485,0.025,-0.029,0.994,0.305,0.305,0, , , , , , ,-1.758,-1.62,-119.542
 09:14:41.945,eb:33:2e:f9:57:b5, 2015-01-01 00:07:03.485,0.024,-0.028,0.993,0.305,0.305,0.061, , , , , , ,-1.758,-1.62,-119.542
 09:14:41.948,eb:33:2e:f9:57:b5, 2015-01-01 00:07:03.485,0.024,-0.028,0.993,0.244,0.305,0.061, , , , , , ,-1.758,-1.62,-119.542
 09:14:41.948,eb:33:2e:f9:57:b5, 2015-01-01 00:07:03.485,0.024,-0.028,0.993,0.183,0.305,0.061, , , , , , ,-1.752,-1.615,-119.542
 09:14:41.948,eb:33:2e:f9:57:b5, 2015-01-01 00:07:03.485,0.024,-0.028,0.992,0.122,0.244,0.061, , , , , , ,-1.752,-1.615,-119.542
 09:14:41.948,eb:33:2e:f9:57:b5, 2015-01-01 00:07:03.485,0.024,-0.028,0.993,0.122,0.244,0.061, , , , , , ,-1.752,-1.615,-119.542
 09:14:41.948,eb:33:2e:f9:57:b5, 2015-01-01 00:07:03.485,0.023,-0.028,0.993,0.061,0.183,0.061, , , , , , ,-1.752,-1.615,-119.542
 09:14:41.948,eb:33:2e:f9:57:b5, 2015-01-01 00:07:03.485,0.022,-0.03,0.993,0.061,0.183,0, , , , , , ,-1.752,-1.615,-119.542
 09:14:41.949,eb:33:2e:f9:57:b5, 2015-01-01 00:07:03.485,0.022,-0.028,0.993,0.061,0.061,0.061, , , , , , ,-1.752,-1.615,-119.542
 09:14:41.949,eb:33:2e:f9:57:b5, 2015-01-01 00:07:03.485,0.024,-0.029,0.992,0,0,0, , , , , , ,-1.752,-1.615,-119.542
 09:14:41.949,eb:33:2e:f9:57:b5, 2015-01-01 00:07:03.485,0.024,-0.029,0.994,0,-0.061,0.061, , , , , , ,-1.752,-1.615,-119.542
 09:14:41.949,eb:33:2e:f9:57:b5, 2015-01-01 00:07:03.485,0.024,-0.029,0.995,0,0,0, , , , , , ,-1.752,-1.615,-119.542
 09:14:41.949,eb:33:2e:f9:57:b5, 2015-01-01 00:07:03.485,0.024,-0.03,0.994,0,0,0, , , , , , ,-1.752,-1.615,-119.542
 09:14:41.949,eb:33:2e:f9:57:b5, 2015-01-01 00:07:03.485,0.025,-0.03,0.995,0,0.061,0.061, , , , , , ,-1.752,-1.615,-119.542
 09:14:41.949,eb:33:2e:f9:57:b5, 2015-01-01 00:07:03.485,0.024,-0.029,0.995,0.061,0.061,0.061, , , , , , ,-1.752,-1.615,-119.542
 09:14:41.949,eb:33:2e:f9:57:b5, 2015-01-01 00:07:03.485,0.024,-0.029,0.995,0.061,0.122,0, , , , , , ,-1.752,-1.615,-119.542
 09:14:41.949,eb:33:2e:f9:57:b5, 2015-01-01 00:07:03.485,0.024,-0.029,0.995,0.061,0.122,0.061, , , , , , ,-1.752,-1.615,-119.542
 09:14:41.949,eb:33:2e:f9:57:b5, 2015-01-01 00:07:03.485,0.024,-0.03,0.996,0.061,0.122,0, , , , , , ,-1.752,-1.615,-119.542
 09:14:41.949,eb:33:2e:f9:57:b5, 2015-01-01 00:07:03.485,0.025,-0.03,0.995,0.122,0.122,0, , , , , , ,-1.752,-1.615,-119.542
 09:14:41.950,eb:33:2e:f9:57:b5, 2015-01-01 00:07:03.485,0.025,-0.029,0.995,0.122,0.122,0.061, , , , , , ,-1.752,-1.615,-119.542
 09:14:41.950,eb:33:2e:f9:57:b5, 2015-01-01 00:07:03.485,0.023,-0.028,0.995,0.122,0.122,0.061, , , , , , ,-1.752,-1.615,-119.542
 09:14:41.950,eb:33:2e:f9:57:b5, 2015-01-01 00:07:03.485,0.023,-0.029,0.993,0.122,0.122,0.061, , , , , , ,-1.752,-1.615,-119.542
 09:14:41.950,eb:33:2e:f9:57:b5, 2015-01-01 00:07:03.485,0.024,-0.029,0.993,0.061,0.061,0.061, , , , , , ,-1.752,-1.615,-119.542
 09:14:41.950,eb:33:2e:f9:57:b5, 2015-01-01 00:07:03.485,0.023,-0.028,0.994,0.061,0.061,0, , , , , , ,-1.752,-1.609,-119.542
 09:14:41.950,eb:33:2e:f9:57:b5, 2015-01-01 00:07:03.485,0.024,-0.028,0.992,0,0,0, , , , , , ,-1.752,-1.609,-119.542
 09:14:41.950,eb:33:2e:f9:57:b5, 2015-01-01 00:07:03.485,0.024,-0.029,0.993,0,0,0.061, , , , , , ,-1.752,-1.609,-119.542
 09:14:41.950,eb:33:2e:f9:57:b5, 2015-01-01 00:07:03.485,0.024,-0.028,0.993,0,0,0, , , , , , ,-1.752,-1.609,-119.542
 09:14:41.950,eb:33:2e:f9:57:b5, 2015-01-01 00:07:03.485,0.024,-0.029,0.994,0,-0.061,0, , , , , , ,-1.752,-1.609,-119.542
 09:14:41.950,eb:33:2e:f9:57:b5, 2015-01-01 00:07:03.485,0.023,-0.028,0.993,0,-0.061,0.061, , , , , , ,-1.752,-1.609,-119.542
 09:14:41.950,eb:33:2e:f9:57:b5, 2015-01-01 00:07:03.485,0.024,-0.028,0.993,0,-0.061,0.122, , , , , , ,-1.752,-1.609,-119.542
 09:14:41.951,eb:33:2e:f9:57:b5, 2015-01-01 00:07:03.485,0.024,-0.028,0.994,0,-0.061,0.061, , , , , , ,-1.752,-1.609,-119.542
 09:14:41.951,eb:33:2e:f9:57:b5, 2015-01-01 00:07:03.485,0.023,-0.03,0.994,-0.061,-0.122,0.061, , , , , , ,-1.752,-1.609,-119.542
 09:14:41.951,eb:33:2e:f9:57:b5, 2015-01-01 00:07:03.485,0.023,-0.029,0.994,0,-0.061,0.061, , , , , , ,-1.752,-1.609,-119.542
 09:14:41.951,eb:33:2e:f9:57:b5, 2015-01-01 00:07:03.485,0.023,-0.028,0.993,-0.061,-0.061,0.061, , , , , , ,-1.752,-1.609,-119.542
 09:14:41.951,eb:33:2e:f9:57:b5, 2015-01-01 00:07:03.485,0.023,-0.029,0.993,-0.122,-0.061,0, , , , , , ,-1.752,-1.609,-119.542
 09:14:41.951,eb:33:2e:f9:57:b5, 2015-01-01 00:07:03.485,0.024,-0.029,0.994,-0.061,-0.122,0, , , , , , ,-1.752,-1.609,-119.542
 09:14:41.951,eb:33:2e:f9:57:b5, 2015-01-01 00:07:03.485,0.024,-0.029,0.994,-0.122,-0.061,0, , , , , , ,-1.752,-1.609,-119.542
 09:14:41.951,eb:33:2e:f9:57:b5, 2015-01-01 00:07:03.485,0.024,-0.029,0.995,-0.061,-0.061,0, , , , , , ,-1.752,-1.609,-119.542
 09:14:41.951,eb:33:2e:f9:57:b5, 2015-01-01 00:07:03.485,0.024,-0.029,0.995,-0.061,0,0, , , , , , ,-1.752,-1.609,-119.542
 09:14:41.951,eb:33:2e:f9:57:b5, 2015-01-01 00:07:03.485,0.022,-0.029,0.995,-0.061,0,0, , , , , , ,-1.752,-1.609,-119.542
 09:14:41.951,eb:33:2e:f9:57:b5, 2015-01-01 00:07:03.485,0.023,-0.028,0.994,-0.061,0,0, , , , , , ,-1.752,-1.609,-119.542
 09:14:41.951,eb:33:2e:f9:57:b5, 2015-01-01 00:07:03.485,0.023,-0.029,0.993,-0.061,-0.122,0, , , , , , ,-1.752,-1.609,-119.542
 09:14:41.951,eb:33:2e:f9:57:b5, 2015-01-01 00:07:03.485,0.024,-0.029,0.995,0,-0.061,0, , , , , , ,-1.752,-1.609,-119.542
 09:14:41.951,eb:33:2e:f9:57:b5, 2015-01-01 00:07:03.485,0.024,-0.029,0.995,0,-0.061,0, , , , , , ,-1.752,-1.604,-119.542
 09:14:41.951,eb:33:2e:f9:57:b5, 2015-01-01 00:07:03.485,0.025,-0.029,0.996,0,-0.061,0, , , , , , ,-1.752,-1.604,-119.542
 09:14:41.951,eb:33:2e:f9:57:b5, 2015-01-01 00:07:03.485,0.023,-0.031,0.996,0,-0.061,0, , , , , , ,-1.752,-1.604,-119.542
 09:14:41.951,eb:33:2e:f9:57:b5, 2015-01-01 00:07:03.485,0.023,-0.03,0.994,0,-0.061,0, , , , , , ,-1.752,-1.604,-119.542
 09:14:41.952,eb:33:2e:f9:57:b5, 2015-01-01 00:07:03.485,0.023,-0.03,0.994,0.061,-0.122,0, , , , , , ,-1.752,-1.604,-119.542
 09:14:41.952,eb:33:2e:f9:57:b5, 2015-01-01 00:07:03.485,0.024,-0.028,0.993,0,-0.061,0, , , , , , ,-1.752,-1.604,-119.542
 09:14:41.952,eb:33:2e:f9:57:b5, 2015-01-01 00:07:03.485,0.024,-0.029,0.994,0.061,-0.061,0, , , , , , ,-1.752,-1.604,-119.542
 09:14:41.952,eb:33:2e:f9:57:b5, 2015-01-01 00:07:03.485,0.023,-0.029,0.993,0,-0.061,0, , , , , , ,-1.752,-1.604,-119.542
 09:14:41.952,eb:33:2e:f9:57:b5, 2015-01-01 00:07:03.485,0.024,-0.028,0.993,0,-0.061,0, , , , , , ,-1.752,-1.604,-119.542
 09:14:41.952,eb:33:2e:f9:57:b5, 2015-01-01 00:07:03.485,0.024,-0.028,0.993,0,-0.122,0, , , , , , ,-1.752,-1.604,-119.542
 09:14:41.952,eb:33:2e:f9:57:b5, 2015-01-01 00:07:03.485,0.024,-0.028,0.994,0,-0.183,0.061, , , , , , ,-1.752,-1.604,-119.542
 09:14:41.952,eb:33:2e:f9:57:b5, 2015-01-01 00:07:03.485,0.023,-0.029,0.994,-0.061,-0.122,0, , , , , , ,-1.752,-1.604,-119.542
 09:14:41.952,eb:33:2e:f9:57:b5, 2015-01-01 00:07:03.485,0.023,-0.029,0.993,-0.061,-0.183,0, , , , , , ,-1.747,-1.604,-119.542
 09:14:41.952,eb:33:2e:f9:57:b5, 2015-01-01 00:07:03.485,0.024,-0.029,0.993,-0.061,-0.122,0, , , , , , ,-1.747,-1.604,-119.542
 09:14:41.952,eb:33:2e:f9:57:b5, 2015-01-01 00:07:03.485,0.024,-0.029,0.993,-0.061,-0.183,0.061, , , , , , ,-1.747,-1.604,-119.542
 09:14:41.952,eb:33:2e:f9:57:b5, 2015-01-01 00:07:03.485,0.024,-0.029,0.993,-0.122,-0.122,0, , , , , , ,-1.747,-1.604,-119.542
 09:14:41.952,eb:33:2e:f9:57:b5, 2015-01-01 00:07:03.485,0.024,-0.029,0.994,-0.122,-0.122,0, , , , , , ,-1.747,-1.599,-119.542
 09:14:41.952,eb:33:2e:f9:57:b5, 2015-01-01 00:07:03.485,0.024,-0.029,0.993,-0.122,-0.122,0, , , , , , ,-1.747,-1.599,-119.542
 09:14:41.952,eb:33:2e:f9:57:b5, 2015-01-01 00:07:03.485,0.025,-0.029,0.994,-0.122,-0.122,0, , , , , , ,-1.747,-1.599,-119.542
 09:14:41.953,eb:33:2e:f9:57:b5, 2015-01-01 00:07:03.485,0.024,-0.028,0.994,-0.122,-0.061,0, , , , , , ,-1.747,-1.599,-119.542
 09:14:41.953,eb:33:2e:f9:57:b5, 2015-01-01 00:07:03.485,0.024,-0.029,0.994,-0.122,-0.122,0, , , , , , ,-1.747,-1.599,-119.542
 09:14:41.953,eb:33:2e:f9:57:b5, 2015-01-01 00:07:03.485,0.023,-0.029,0.993,-0.183,-0.122,0, , , , , , ,-1.747,-1.599,-119.542
 09:14:41.953,eb:33:2e:f9:57:b5, 2015-01-01 00:07:03.485,0.023,-0.028,0.994,-0.122,-0.122,0, , , , , , ,-1.747,-1.599,-119.542
 09:14:41.953,eb:33:2e:f9:57:b5, 2015-01-01 00:07:03.485,0.025,-0.029,0.993,-0.061,-0.122,0, , , , , , ,-1.747,-1.599,-119.542
 09:14:41.953,eb:33:2e:f9:57:b5, 2015-01-01 00:07:03.485,0.024,-0.028,0.995,-0.122,-0.122,0, , , , , , ,-1.747,-1.599,-119.542
 09:14:41.953,eb:33:2e:f9:57:b5, 2015-01-01 00:07:03.485,0.024,-0.028,0.994,-0.122,-0.122,0, , , , , , ,-1.747,-1.599,-119.542
 09:14:41.953,eb:33:2e:f9:57:b5, 2015-01-01 00:07:03.485,0.024,-0.028,0.994,-0.122,-0.122,0, , , , , , ,-1.747,-1.599,-119.542
 09:14:41.953,eb:33:2e:f9:57:b5, 2015-01-01 00:07:03.485,0.025,-0.029,0.993,-0.061,-0.122,0, , , , , , ,-1.747,-1.599,-119.542
 09:14:41.953,eb:33:2e:f9:57:b5, 2015-01-01 00:07:03.485,0.025,-0.029,0.994,-0.122,-0.183,0, , , , , , ,-1.747,-1.599,-119.542
 09:14:41.953,eb:33:2e:f9:57:b5, 2015-01-01 00:07:03.485,0.025,-0.029,0.994,-0.122,-0.183,0, , , , , , ,-1.747,-1.599,-119.542
 09:14:41.953,eb:33:2e:f9:57:b5, 2015-01-01 00:07:03.485,0.025,-0.029,0.995,-0.183,-0.122,0, , , , , , ,-1.747,-1.599,-119.542
 09:14:41.953,eb:33:2e:f9:57:b5, 2015-01-01 00:07:03.485,0.025,-0.028,0.995,-0.183,-0.122,0, , , , , , ,-1.747,-1.599,-119.542
 09:14:41.954,eb:33:2e:f9:57:b5, 2015-01-01 00:07:03.485,0.024,-0.028,0.995,-0.183,-0.061,0, , , , , , ,-1.747,-1.599,-119.542
 09:14:41.954,eb:33:2e:f9:57:b5, 2015-01-01 00:07:03.485,0.024,-0.029,0.995,-0.183,-0.061,0, , , , , , ,-1.747,-1.599,-119.542
 09:14:41.954,eb:33:2e:f9:57:b5, 2015-01-01 00:07:03.485,0.024,-0.029,0.995,-0.183,0,0, , , , , , ,-1.747,-1.599,-119.542
 09:14:41.954,eb:33:2e:f9:57:b5, 2015-01-01 00:07:03.485,0.025,-0.03,0.995,-0.183,-0.061,0, , , , , , ,-1.747,-1.599,-119.542
 09:14:41.954,eb:33:2e:f9:57:b5, 2015-01-01 00:07:03.485,0.024,-0.029,0.994,-0.183,0,0, , , , , , ,-1.747,-1.593,-119.542
 09:14:41.954,eb:33:2e:f9:57:b5, 2015-01-01 00:07:03.485,0.024,-0.029,0.994,-0.183,0,0, , , , , , ,-1.747,-1.593,-119.542
 09:14:41.954,eb:33:2e:f9:57:b5, 2015-01-01 00:07:03.485,0.024,-0.029,0.994,-0.183,-0.061,0, , , , , , ,-1.747,-1.593,-119.542
 09:14:41.954,eb:33:2e:f9:57:b5, 2015-01-01 00:07:03.485,0.024,-0.028,0.994,-0.183,-0.122,0, , , , , , ,-1.747,-1.593,-119.542
 09:14:41.954,eb:33:2e:f9:57:b5, 2015-01-01 00:07:03.485,0.024,-0.029,0.995,-0.183,-0.061,0, , , , , , ,-1.747,-1.593,-119.542
 09:14:41.954,eb:33:2e:f9:57:b5, 2015-01-01 00:07:03.485,0.026,-0.031,0.996,-0.122,-0.061,0, , , , , , ,-1.747,-1.593,-119.542
 09:14:41.955,eb:33:2e:f9:57:b5, 2015-01-01 00:07:03.485,0.025,-0.029,0.996,-0.122,0,0, , , , , , ,-1.747,-1.593,-119.542
 09:14:41.955,eb:33:2e:f9:57:b5, 2015-01-01 00:07:03.485,0.024,-0.029,0.996,-0.061,0,0, , , , , , ,-1.747,-1.593,-119.542
 09:14:41.955,eb:33:2e:f9:57:b5, 2015-01-01 00:07:03.485,0.023,-0.029,0.994,-0.122,0,0, , , , , , ,-1.747,-1.593,-119.542
 09:14:41.955,eb:33:2e:f9:57:b5, 2015-01-01 00:07:03.485,0.024,-0.029,0.993,-0.122,-0.122,0, , , , , , ,-1.747,-1.593,-119.542
 09:14:41.955,eb:33:2e:f9:57:b5, 2015-01-01 00:07:03.485,0.025,-0.029,0.994,-0.183,-0.122,0, , , , , , ,-1.747,-1.593,-119.542
 09:14:41.955,eb:33:2e:f9:57:b5, 2015-01-01 00:07:03.485,0.025,-0.029,0.995,-0.122,-0.122,0, , , , , , ,-1.747,-1.593,-119.542
 09:14:41.956,eb:33:2e:f9:57:b5, 2015-01-01 00:07:03.485,0.024,-0.029,0.995,-0.122,0,0, , , , , , ,-1.747,-1.593,-119.542
 09:14:41.956,eb:33:2e:f9:57:b5, 2015-01-01 00:07:03.485,0.023,-0.029,0.995,-0.122,0,0, , , , , , ,-1.747,-1.593,-119.542
 09:14:41.956,eb:33:2e:f9:57:b5, 2015-01-01 00:07:03.485,0.023,-0.029,0.994,-0.122,0,0, , , , , , ,-1.747,-1.593,-119.542
 09:14:41.956,eb:33:2e:f9:57:b5, 2015-01-01 00:07:03.485,0.024,-0.029,0.994,-0.183,0,0, , , , , , ,-1.747,-1.593,-119.542
 09:14:41.956,eb:33:2e:f9:57:b5, 2015-01-01 00:07:03.485,0.023,-0.029,0.994,-0.122,-0.061,0, , , , , , ,-1.747,-1.593,-119.542
 09:14:41.956,eb:33:2e:f9:57:b5, 2015-01-01 00:07:03.485,0.023,-0.029,0.994,-0.183,-0.061,0, , , , , , ,-1.747,-1.593,-119.542
 09:14:41.956,eb:33:2e:f9:57:b5, 2015-01-01 00:07:03.485,0.023,-0.029,0.993,-0.244,-0.061,0, , , , , , ,-1.747,-1.593,-119.542
 09:14:41.956,eb:33:2e:f9:57:b5, 2015-01-01 00:07:03.485,0.023,-0.029,0.993,-0.244,-0.122,-0.061, , , , , , ,-1.747,-1.593,-119.542
 09:14:41.956,eb:33:2e:f9:57:b5, 2015-01-01 00:07:03.485,0.023,-0.03,0.993,-0.244,-0.183,0, , , , , , ,-1.747,-1.588,-119.542
 09:14:41.956,eb:33:2e:f9:57:b5, 2015-01-01 00:07:03.485,0.024,-0.03,0.994,-0.183,-0.183,0, , , , , , ,-1.747,-1.588,-119.542
 09:14:41.956,eb:33:2e:f9:57:b5, 2015-01-01 00:07:03.485,0.024,-0.03,0.994,-0.183,-0.244,0, , , , , , ,-1.747,-1.588,-119.542
 09:14:41.957,eb:33:2e:f9:57:b5, 2015-01-01 00:07:03.485,0.023,-0.03,0.995,-0.183,-0.183,0, , , , , , ,-1.747,-1.588,-119.542
 09:14:41.957,eb:33:2e:f9:57:b5, 2015-01-01 00:07:03.485,0.024,-0.03,0.995,-0.183,-0.183,0, , , , , , ,-1.747,-1.588,-119.542
 09:14:41.957,eb:33:2e:f9:57:b5, 2015-01-01 00:07:03.485,0.024,-0.031,0.997,-0.183,-0.183,0, , , , , , ,-1.747,-1.588,-119.542
 09:14:41.957,eb:33:2e:f9:57:b5, 2015-01-01 00:07:03.485,0.023,-0.03,0.995,-0.122,-0.183,0.061, , , , , , ,-1.747,-1.588,-119.542
 09:14:41.957,eb:33:2e:f9:57:b5, 2015-01-01 00:07:03.485,0.024,-0.031,0.995,-0.122,-0.183,0, , , , , , ,-1.747,-1.588,-119.542
 09:14:41.957,eb:33:2e:f9:57:b5, 2015-01-01 00:07:03.485,0.024,-0.03,0.994,-0.122,-0.122,0, , , , , , ,-1.747,-1.588,-119.542
 09:14:41.957,eb:33:2e:f9:57:b5, 2015-01-01 00:07:03.485,0.024,-0.03,0.994,-0.122,-0.122,0, , , , , , ,-1.747,-1.588,-119.542
 09:14:41.957,eb:33:2e:f9:57:b5, 2015-01-01 00:07:03.485,0.024,-0.029,0.993,-0.122,-0.183,0.061, , , , , , ,-1.747,-1.588,-119.542
 09:14:41.959,eb:33:2e:f9:57:b5, 2015-01-01 00:07:03.485,0.024,-0.03,0.994,-0.122,-0.183,0, , , , , , ,-1.747,-1.588,-119.542
 09:14:41.959,eb:33:2e:f9:57:b5, 2015-01-01 00:07:03.485,0.024,-0.03,0.994,-0.061,-0.183,0, , , , , , ,-1.747,-1.588,-119.537
 09:14:41.959,eb:33:2e:f9:57:b5, 2015-01-01 00:07:03.485,0.024,-0.03,0.994,-0.061,-0.183,0, , , , , , ,-1.747,-1.588,-119.537
 09:14:41.959,eb:33:2e:f9:57:b5, 2015-01-01 00:07:03.485,0.024,-0.029,0.994,-0.122,-0.183,0, , , , , , ,-1.747,-1.588,-119.542
 09:14:41.959,eb:33:2e:f9:57:b5, 2015-01-01 00:07:03.485,0.025,-0.029,0.993,-0.061,-0.122,0.061, , , , , , ,-1.747,-1.588,-119.542
 09:14:41.959,eb:33:2e:f9:57:b5, 2015-01-01 00:07:03.485,0.025,-0.029,0.994,-0.061,-0.122,0, , , , , , ,-1.747,-1.588,-119.537
 09:14:41.959,eb:33:2e:f9:57:b5, 2015-01-01 00:07:03.485,0.025,-0.03,0.994,-0.061,-0.122,0.061, , , , , , ,-1.747,-1.588,-119.537
 09:14:41.959,eb:33:2e:f9:57:b5, 2015-01-01 00:07:03.485,0.025,-0.03,0.994,-0.061,-0.122,0, , , , , , ,-1.747,-1.588,-119.542
 09:14:41.959,eb:33:2e:f9:57:b5, 2015-01-01 00:07:03.485,0.025,-0.03,0.994,0,-0.122,0, , , , , , ,-1.747,-1.588,-119.542
 09:14:41.959,eb:33:2e:f9:57:b5, 2015-01-01 00:07:03.485,0.024,-0.029,0.995,-0.061,-0.061,0, , , , , , ,-1.747,-1.582,-119.537
 09:14:41.959,eb:33:2e:f9:57:b5, 2015-01-01 00:07:03.485,0.024,-0.029,0.994,-0.122,-0.061,0, , , , , , ,-1.747,-1.582,-119.537
 09:14:41.959,eb:33:2e:f9:57:b5, 2015-01-01 00:07:03.485,0.024,-0.028,0.994,-0.061,-0.122,0, , , , , , ,-1.747,-1.582,-119.542
 09:14:41.960,eb:33:2e:f9:57:b5, 2015-01-01 00:07:03.485,0.024,-0.029,0.993,0,-0.183,0.061, , , , , , ,-1.747,-1.582,-119.542
 09:14:41.960,eb:33:2e:f9:57:b5, 2015-01-01 00:07:03.485,0.024,-0.03,0.994,-0.122,-0.183,0, , , , , , ,-1.747,-1.582,-119.537
 09:14:41.960,eb:33:2e:f9:57:b5, 2015-01-01 00:07:03.485,0.023,-0.03,0.994,-0.122,-0.183,0, , , , , , ,-1.747,-1.582,-119.537
 09:14:41.960,eb:33:2e:f9:57:b5, 2015-01-01 00:07:03.485,0.025,-0.03,0.994,-0.122,-0.183,0, , , , , , ,-1.747,-1.582,-119.537
 09:14:41.960,eb:33:2e:f9:57:b5, 2015-01-01 00:07:03.485,0.025,-0.031,0.995,-0.122,-0.122,0, , , , , , ,-1.747,-1.582,-119.537
 09:14:41.960,eb:33:2e:f9:57:b5, 2015-01-01 00:07:03.485,0.024,-0.031,0.995,-0.061,-0.061,0, , , , , , ,-1.747,-1.582,-119.537
 09:14:41.960,eb:33:2e:f9:57:b5, 2015-01-01 00:07:03.485,0.024,-0.03,0.994,-0.061,-0.061,0, , , , , , ,-1.747,-1.582,-119.537
 09:14:41.960,eb:33:2e:f9:57:b5, 2015-01-01 00:07:03.485,0.024,-0.03,0.995,-0.122,-0.061,0, , , , , , ,-1.747,-1.582,-119.537
 09:14:41.960,eb:33:2e:f9:57:b5, 2015-01-01 00:07:03.485,0.024,-0.03,0.994,-0.061,-0.061,0, , , , , , ,-1.747,-1.582,-119.537
 09:14:41.960,eb:33:2e:f9:57:b5, 2015-01-01 00:07:03.485,0.024,-0.03,0.994,-0.122,-0.183,0, , , , , , ,-1.747,-1.582,-119.537
 09:14:41.961,eb:33:2e:f9:57:b5, 2015-01-01 00:07:03.485,0.025,-0.03,0.994,-0.061,-0.183,0, , , , , , ,-1.747,-1.582,-119.537
 09:14:41.961,eb:33:2e:f9:57:b5, 2015-01-01 00:07:03.485,0.025,-0.03,0.995,0,-0.183,0, , , , , , ,-1.747,-1.582,-119.537
 09:14:41.961,eb:33:2e:f9:57:b5, 2015-01-01 00:07:03.485,0.025,-0.03,0.995,-0.061,-0.122,0, , , , , , ,-1.747,-1.582,-119.537
 09:14:41.961,eb:33:2e:f9:57:b5, 2015-01-01 00:07:03.485,0.023,-0.03,0.994,-0.061,-0.122,0, , , , , , ,-1.747,-1.582,-119.537
 09:14:41.961,eb:33:2e:f9:57:b5, 2015-01-01 00:07:03.485,0.024,-0.03,0.993,-0.061,-0.183,0.061, , , , , , ,-1.747,-1.582,-119.537
 09:14:41.961,eb:33:2e:f9:57:b5, 2015-01-01 00:07:03.485,0.025,-0.03,0.994,-0.061,-0.183,0, , , , , , ,-1.747,-1.582,-119.537
 09:14:41.961,eb:33:2e:f9:57:b5, 2015-01-01 00:07:03.485,0.025,-0.03,0.994,-0.061,-0.122,0, , , , , , ,-1.747,-1.582,-119.537
 09:14:41.961,eb:33:2e:f9:57:b5, 2015-01-01 00:07:03.485,0.025,-0.031,0.995,-0.061,-0.122,0, , , , , , ,-1.747,-1.582,-119.537
 09:14:41.961,eb:33:2e:f9:57:b5, 2015-01-01 00:07:03.485,0.025,-0.031,0.995,0,-0.061,0, , , , , , ,-1.747,-1.582,-119.537
 09:14:41.961,eb:33:2e:f9:57:b5, 2015-01-01 00:07:03.485,0.025,-0.031,0.995,0,-0.122,0, , , , , , ,-1.747,-1.582,-119.537
 09:14:41.961,eb:33:2e:f9:57:b5, 2015-01-01 00:07:03.485,0.024,-0.031,0.995,0,-0.122,0, , , , , , ,-1.747,-1.582,-119.537
 09:14:41.962,eb:33:2e:f9:57:b5, 2015-01-01 00:07:03.485,0.024,-0.031,0.994,0,-0.061,0, , , , , , ,-1.747,-1.577,-119.537
 09:14:41.962,eb:33:2e:f9:57:b5, 2015-01-01 00:07:03.485,0.025,-0.03,0.995,0,-0.061,0, , , , , , ,-1.747,-1.577,-119.537
 09:14:41.962,eb:33:2e:f9:57:b5, 2015-01-01 00:07:03.485,0.024,-0.03,0.994,0,-0.122,0, , , , , , ,-1.747,-1.577,-119.537
 09:14:41.962,eb:33:2e:f9:57:b5, 2015-01-01 00:07:03.485,0.024,-0.03,0.994,0,-0.122,0, , , , , , ,-1.747,-1.577,-119.537
 09:14:41.962,eb:33:2e:f9:57:b5, 2015-01-01 00:07:03.485,0.023,-0.03,0.993,0,-0.122,0, , , , , , ,-1.747,-1.577,-119.537
 09:14:41.962,eb:33:2e:f9:57:b5, 2015-01-01 00:07:03.485,0.024,-0.03,0.993,0,-0.122,0, , , , , , ,-1.747,-1.577,-119.537
 09:14:41.962,eb:33:2e:f9:57:b5, 2015-01-01 00:07:03.485,0.025,-0.03,0.994,0,-0.122,0, , , , , , ,-1.747,-1.577,-119.537
 09:14:41.962,eb:33:2e:f9:57:b5, 2015-01-01 00:07:03.485,0.024,-0.031,0.994,0,-0.122,0, , , , , , ,-1.747,-1.577,-119.537
 09:14:41.962,eb:33:2e:f9:57:b5, 2015-01-01 00:07:03.485,0.025,-0.03,0.994,0,-0.061,0, , , , , , ,-1.747,-1.577,-119.537
 09:14:41.962,eb:33:2e:f9:57:b5, 2015-01-01 00:07:03.485,0.025,-0.031,0.995,0,-0.061,0, , , , , , ,-1.747,-1.577,-119.537
 09:14:41.962,eb:33:2e:f9:57:b5, 2015-01-01 00:07:03.485,0.024,-0.03,0.994,0,-0.061,0, , , , , , ,-1.747,-1.577,-119.537
 09:14:41.963,eb:33:2e:f9:57:b5, 2015-01-01 00:07:03.485,0.025,-0.031,0.994,0,-0.061,0, , , , , , ,-1.747,-1.577,-119.537
 09:14:41.963,eb:33:2e:f9:57:b5, 2015-01-01 00:07:03.485,0.025,-0.03,0.994,0,-0.122,0, , , , , , ,-1.747,-1.577,-119.537
 09:14:41.963,eb:33:2e:f9:57:b5, 2015-01-01 00:07:03.485,0.024,-0.03,0.996,0,-0.061,0, , , , , , ,-1.747,-1.577,-119.537
 09:14:41.963,eb:33:2e:f9:57:b5, 2015-01-01 00:07:03.485,0.023,-0.03,0.994,0,-0.122,0, , , , , , ,-1.747,-1.577,-119.542
 09:14:41.963,eb:33:2e:f9:57:b5, 2015-01-01 00:07:03.485,0.024,-0.03,0.993,0,-0.183,0, , , , , , ,-1.747,-1.577,-119.542
 09:14:41.963,eb:33:2e:f9:57:b5, 2015-01-01 00:07:03.485,0.025,-0.03,0.994,0,-0.122,0, , , , , , ,-1.747,-1.577,-119.537
 09:14:41.963,eb:33:2e:f9:57:b5, 2015-01-01 00:07:03.485,0.025,-0.03,0.994,0,-0.183,0, , , , , , ,-1.747,-1.577,-119.537
 09:14:41.963,eb:33:2e:f9:57:b5, 2015-01-01 00:07:03.485,0.025,-0.03,0.994,0,-0.183,0, , , , , , ,-1.747,-1.577,-119.542
 09:14:41.963,eb:33:2e:f9:57:b5, 2015-01-01 00:07:03.485,0.024,-0.03,0.994,0,-0.183,0.061, , , , , , ,-1.747,-1.577,-119.542
 09:14:41.963,eb:33:2e:f9:57:b5, 2015-01-01 00:07:03.485,0.025,-0.029,0.993,0,-0.183,0.061, , , , , , ,-1.747,-1.577,-119.537
 09:14:41.963,eb:33:2e:f9:57:b5, 2015-01-01 00:07:03.485,0.025,-0.029,0.994,0,-0.183,0, , , , , , ,-1.747,-1.577,-119.537
 09:14:41.963,eb:33:2e:f9:57:b5, 2015-01-01 00:07:03.485,0.025,-0.03,0.994,-0.061,-0.122,0, , , , , , ,-1.747,-1.577,-119.542
 09:14:41.963,eb:33:2e:f9:57:b5, 2015-01-01 00:07:03.485,0.025,-0.03,0.994,-0.061,-0.183,0, , , , , , ,-1.747,-1.577,-119.542
 09:14:41.963,eb:33:2e:f9:57:b5, 2015-01-01 00:07:03.485,0.025,-0.03,0.994,-0.122,-0.183,0, , , , , , ,-1.747,-1.577,-119.537
 09:14:41.964,eb:33:2e:f9:57:b5, 2015-01-01 00:07:03.485,0.025,-0.031,0.994,-0.061,-0.122,0, , , , , , ,-1.747,-1.577,-119.537
 09:14:41.964,eb:33:2e:f9:57:b5, 2015-01-01 00:07:03.485,0.026,-0.03,0.994,-0.122,-0.122,0, , , , , , ,-1.747,-1.577,-119.542
 09:14:41.964,eb:33:2e:f9:57:b5, 2015-01-01 00:07:03.485,0.025,-0.031,0.995,-0.061,-0.122,0, , , , , , ,-1.747,-1.577,-119.542
 09:14:41.964,eb:33:2e:f9:57:b5, 2015-01-01 00:07:03.485,0.024,-0.031,0.996,-0.061,-0.061,0.061, , , , , , ,-1.747,-1.571,-119.537
 09:14:41.964,eb:33:2e:f9:57:b5, 2015-01-01 00:07:03.485,0.025,-0.031,0.995,-0.061,-0.061,0.061, , , , , , ,-1.747,-1.571,-119.537
 09:14:41.964,eb:33:2e:f9:57:b5, 2015-01-01 00:07:03.485,0.026,-0.031,0.994,0,-0.122,0.061, , , , , , ,-1.747,-1.571,-119.542
 09:14:41.964,eb:33:2e:f9:57:b5, 2015-01-01 00:07:03.485,0.026,-0.031,0.995,0,-0.122,0.061, , , , , , ,-1.747,-1.571,-119.542
 09:14:41.964,eb:33:2e:f9:57:b5, 2015-01-01 00:07:03.485,0.026,-0.031,0.996,0,0,0.122, , , , , , ,-1.747,-1.571,-119.537
 09:14:41.964,eb:33:2e:f9:57:b5, 2015-01-01 00:07:03.485,0.025,-0.03,0.996,0,0,0.061, , , , , , ,-1.747,-1.571,-119.537
 09:14:41.964,eb:33:2e:f9:57:b5, 2015-01-01 00:07:03.485,0.024,-0.029,0.994,0.061,0,0.061, , , , , , ,-1.747,-1.571,-119.542
 09:14:41.964,eb:33:2e:f9:57:b5, 2015-01-01 00:07:03.485,0.024,-0.029,0.994,0,0,0.061, , , , , , ,-1.747,-1.571,-119.542
 09:14:41.964,eb:33:2e:f9:57:b5, 2015-01-01 00:07:03.485,0.025,-0.03,0.995,0,0,0.061, , , , , , ,-1.747,-1.571,-119.542
 09:14:41.964,eb:33:2e:f9:57:b5, 2015-01-01 00:07:03.485,0.025,-0.029,0.995,0,0,0.061, , , , , , ,-1.747,-1.571,-119.542
 09:14:41.964,eb:33:2e:f9:57:b5, 2015-01-01 00:07:03.485,0.025,-0.03,0.994,0,0,0, , , , , , ,-1.747,-1.571,-119.542
 09:14:41.964,eb:33:2e:f9:57:b5, 2015-01-01 00:07:03.485,0.024,-0.029,0.994,0,0,0, , , , , , ,-1.747,-1.571,-119.542
 09:14:41.965,eb:33:2e:f9:57:b5, 2015-01-01 00:07:03.485,0.025,-0.03,0.993,0,0,0, , , , , , ,-1.747,-1.571,-119.542
 09:14:41.965,eb:33:2e:f9:57:b5, 2015-01-01 00:07:03.485,0.025,-0.03,0.994,0,0,0, , , , , , ,-1.747,-1.571,-119.542
 09:14:41.965,eb:33:2e:f9:57:b5, 2015-01-01 00:07:03.485,0.024,-0.03,0.995,0,-0.061,0, , , , , , ,-1.747,-1.571,-119.542
 09:14:41.965,eb:33:2e:f9:57:b5, 2015-01-01 00:07:03.485,0.025,-0.03,0.995,-0.061,-0.061,0, , , , , , ,-1.747,-1.571,-119.542
 09:14:41.965,eb:33:2e:f9:57:b5, 2015-01-01 00:07:03.485,0.024,-0.029,0.994,0,-0.061,0, , , , , , ,-1.747,-1.571,-119.542
 09:14:41.965,eb:33:2e:f9:57:b5, 2015-01-01 00:07:03.485,0.024,-0.03,0.994,-0.061,-0.061,0, , , , , , ,-1.747,-1.571,-119.542
 09:14:41.965,eb:33:2e:f9:57:b5, 2015-01-01 00:07:03.485,0.024,-0.03,0.994,-0.061,-0.122,0, , , , , , ,-1.747,-1.571,-119.542
 09:14:41.965,eb:33:2e:f9:57:b5, 2015-01-01 00:07:03.485,0.024,-0.031,0.995,-0.061,-0.122,0, , , , , , ,-1.747,-1.571,-119.542
 09:14:41.965,eb:33:2e:f9:57:b5, 2015-01-01 00:07:03.485,0.026,-0.031,0.995,0,-0.061,0, , , , , , ,-1.747,-1.571,-119.542
 09:14:41.965,eb:33:2e:f9:57:b5, 2015-01-01 00:07:03.485,0.026,-0.032,0.996,0,0,0, , , , , , ,-1.747,-1.571,-119.542
 09:14:41.965,eb:33:2e:f9:57:b5, 2015-01-01 00:07:03.485,0.025,-0.031,0.996,0,0,0.061, , , , , , ,-1.747,-1.571,-119.542
 09:14:41.965,eb:33:2e:f9:57:b5, 2015-01-01 00:07:03.485,0.025,-0.03,0.995,0,0,0, , , , , , ,-1.747,-1.571,-119.542
 09:14:41.965,eb:33:2e:f9:57:b5, 2015-01-01 00:07:03.485,0.027,-0.031,0.995,0,0.061,0, , , , , , ,-1.747,-1.571,-119.542
 09:14:41.965,eb:33:2e:f9:57:b5, 2015-01-01 00:07:03.485,0.025,-0.03,0.996,0,0.061,0, , , , , , ,-1.747,-1.571,-119.542
 09:14:41.965,eb:33:2e:f9:57:b5, 2015-01-01 00:07:03.485,0.024,-0.031,0.995,0,0.122,0, , , , , , ,-1.747,-1.571,-119.542
 09:14:41.966,eb:33:2e:f9:57:b5, 2015-01-01 00:07:03.485,0.023,-0.03,0.995,0,0.122,0.061, , , , , , ,-1.747,-1.571,-119.542
 09:14:41.966,eb:33:2e:f9:57:b5, 2015-01-01 00:07:03.485,0.023,-0.03,0.994,0,0.061,0, , , , , , ,-1.747,-1.571,-119.542
 09:14:41.966,eb:33:2e:f9:57:b5, 2015-01-01 00:07:03.485,0.025,-0.031,0.994,0.122,0,0, , , , , , ,-1.747,-1.571,-119.542
 09:14:41.966,eb:33:2e:f9:57:b5, 2015-01-01 00:07:03.485,0.025,-0.031,0.995,0.061,0,0.061, , , , , , ,-1.747,-1.571,-119.542
 09:14:41.966,eb:33:2e:f9:57:b5, 2015-01-01 00:07:03.485,0.024,-0.03,0.995,0.122,0,0.061, , , , , , ,-1.747,-1.571,-119.542
 09:14:41.966,eb:33:2e:f9:57:b5, 2015-01-01 00:07:03.485,0.025,-0.03,0.995,0.122,0,0.061, , , , , , ,-1.747,-1.566,-119.542
 09:14:41.966,eb:33:2e:f9:57:b5, 2015-01-01 00:07:03.485,0.025,-0.03,0.994,0.061,0,0, , , , , , ,-1.747,-1.566,-119.542
 09:14:41.966,eb:33:2e:f9:57:b5, 2015-01-01 00:07:03.485,0.025,-0.03,0.995,0.061,0,0, , , , , , ,-1.747,-1.566,-119.542
 09:14:41.966,eb:33:2e:f9:57:b5, 2015-01-01 00:07:03.485,0.025,-0.03,0.995,0.122,0,0.061, , , , , , ,-1.747,-1.566,-119.542
 09:14:41.967,eb:33:2e:f9:57:b5, 2015-01-01 00:07:03.485,0.025,-0.03,0.994,0.061,0.061,0.061, , , , , , ,-1.747,-1.566,-119.542
 09:14:41.967,eb:33:2e:f9:57:b5, 2015-01-01 00:07:03.485,0.025,-0.029,0.995,0.122,0.061,0, , , , , , ,-1.747,-1.566,-119.542
 09:14:41.967,eb:33:2e:f9:57:b5, 2015-01-01 00:07:03.485,0.026,-0.03,0.994,0.122,0.061,0.061, , , , , , ,-1.747,-1.566,-119.542
 09:14:41.967,eb:33:2e:f9:57:b5, 2015-01-01 00:07:03.485,0.025,-0.029,0.995,0.061,0.061,0.061, , , , , , ,-1.747,-1.566,-119.542
 09:14:41.967,eb:33:2e:f9:57:b5, 2015-01-01 00:07:03.485,0.025,-0.029,0.995,0.061,0.122,0, , , , , , ,-1.747,-1.566,-119.542
 09:14:41.967,eb:33:2e:f9:57:b5, 2015-01-01 00:07:03.485,0.025,-0.03,0.994,0.061,0.122,0, , , , , , ,-1.747,-1.566,-119.542
 09:14:41.967,eb:33:2e:f9:57:b5, 2015-01-01 00:07:03.485,0.025,-0.03,0.995,0.061,0.122,0, , , , , , ,-1.747,-1.566,-119.542
 09:14:41.967,eb:33:2e:f9:57:b5, 2015-01-01 00:07:03.485,0.026,-0.03,0.995,0.122,0.122,0, , , , , , ,-1.747,-1.566,-119.542
 09:14:41.968,eb:33:2e:f9:57:b5, 2015-01-01 00:07:03.485,0.025,-0.03,0.995,0.122,0.061,0.061, , , , , , ,-1.747,-1.566,-119.542
 09:14:41.968,eb:33:2e:f9:57:b5, 2015-01-01 00:07:03.485,0.024,-0.03,0.994,0.061,0.122,0, , , , , , ,-1.747,-1.566,-119.542
 09:14:41.968,eb:33:2e:f9:57:b5, 2015-01-01 00:07:03.485,0.023,-0.029,0.994,0.122,0.061,0, , , , , , ,-1.747,-1.566,-119.542
 09:14:41.968,eb:33:2e:f9:57:b5, 2015-01-01 00:07:03.485,0.024,-0.031,0.993,0.122,0,0.061, , , , , , ,-1.747,-1.566,-119.542
 09:14:41.968,eb:33:2e:f9:57:b5, 2015-01-01 00:07:03.485,0.025,-0.031,0.994,0.122,0.061,0, , , , , , ,-1.747,-1.566,-119.542
 09:14:41.968,eb:33:2e:f9:57:b5, 2015-01-01 00:07:03.485,0.024,-0.03,0.994,0.061,0.061,0.061, , , , , , ,-1.747,-1.566,-119.542
 09:14:41.968,eb:33:2e:f9:57:b5, 2015-01-01 00:07:03.485,0.024,-0.03,0.994,0.061,0,0.061, , , , , , ,-1.747,-1.566,-119.542
 09:14:41.968,eb:33:2e:f9:57:b5, 2015-01-01 00:07:03.485,0.024,-0.029,0.994,0.122,0.061,0.061, , , , , , ,-1.747,-1.566,-119.542
 09:14:41.968,eb:33:2e:f9:57:b5, 2015-01-01 00:07:03.485,0.025,-0.03,0.994,0.183,0.061,0.061, , , , , , ,-1.747,-1.566,-119.542
 09:14:41.968,eb:33:2e:f9:57:b5, 2015-01-01 00:07:03.485,0.024,-0.03,0.995,0.183,0.061,0.061, , , , , , ,-1.747,-1.566,-119.542
 09:14:41.969,eb:33:2e:f9:57:b5, 2015-01-01 00:07:03.485,0.025,-0.03,0.994,0.122,0.122,0.061, , , , , , ,-1.747,-1.566,-119.542
 09:14:41.969,eb:33:2e:f9:57:b5, 2015-01-01 00:07:03.485,0.025,-0.03,0.995,0.183,0.061,0.061, , , , , , ,-1.747,-1.566,-119.542
 09:14:41.969,eb:33:2e:f9:57:b5, 2015-01-01 00:07:03.485,0.024,-0.03,0.995,0.183,0.122,0.061, , , , , , ,-1.747,-1.566,-119.542
 09:14:41.969,eb:33:2e:f9:57:b5, 2015-01-01 00:07:03.485,0.024,-0.03,0.995,0.183,0.122,0.061, , , , , , ,-1.747,-1.566,-119.542
 09:14:41.969,eb:33:2e:f9:57:b5, 2015-01-01 00:07:03.485,0.024,-0.03,0.995,0.183,0.183,0.061, , , , , , ,-1.747,-1.566,-119.542
 09:14:41.969,eb:33:2e:f9:57:b5, 2015-01-01 00:07:03.485,0.023,-0.03,0.994,0.122,0.183,0.061, , , , , , ,-1.747,-1.566,-119.542
 09:14:41.969,eb:33:2e:f9:57:b5, 2015-01-01 00:07:03.485,0.024,-0.029,0.994,0.122,0.122,0.061, , , , , , ,-1.747,-1.566,-119.542
 09:14:41.969,eb:33:2e:f9:57:b5, 2015-01-01 00:07:03.485,0.024,-0.03,0.993,0.183,0.122,0.061, , , , , , ,-1.747,-1.566,-119.542
 09:14:41.969,eb:33:2e:f9:57:b5, 2015-01-01 00:07:03.485,0.025,-0.029,0.993,0.122,0.061,0, , , , , , ,-1.747,-1.566,-119.542
 09:14:41.969,eb:33:2e:f9:57:b5, 2015-01-01 00:07:03.485,0.024,-0.029,0.992,0.061,0.061,0, , , , , , ,-1.747,-1.566,-119.542
 09:14:41.969,eb:33:2e:f9:57:b5, 2015-01-01 00:07:03.485,0.024,-0.029,0.994,0.061,0.061,0, , , , , , ,-1.747,-1.56,-119.542
 09:14:41.969,eb:33:2e:f9:57:b5, 2015-01-01 00:07:03.485,0.024,-0.031,0.995,0.061,0.061,0, , , , , , ,-1.747,-1.56,-119.542
 09:14:41.969,eb:33:2e:f9:57:b5, 2015-01-01 00:07:03.485,0.025,-0.031,0.995,0.122,0.061,0, , , , , , ,-1.747,-1.56,-119.542
 09:14:41.970,eb:33:2e:f9:57:b5, 2015-01-01 00:07:03.485,0.024,-0.031,0.995,0.122,0.061,0, , , , , , ,-1.747,-1.56,-119.542
 09:14:41.970,eb:33:2e:f9:57:b5, 2015-01-01 00:07:03.485,0.025,-0.031,0.995,0.183,0.061,0, , , , , , ,-1.747,-1.56,-119.542
 09:14:41.970,eb:33:2e:f9:57:b5, 2015-01-01 00:07:03.485,0.024,-0.03,0.995,0.183,0.122,0, , , , , , ,-1.747,-1.56,-119.542
 09:14:41.970,eb:33:2e:f9:57:b5, 2015-01-01 00:07:03.485,0.024,-0.03,0.995,0.244,0.122,0, , , , , , ,-1.747,-1.56,-119.542
 09:14:41.970,eb:33:2e:f9:57:b5, 2015-01-01 00:07:03.485,0.024,-0.029,0.995,0.183,0.183,0, , , , , , ,-1.747,-1.56,-119.542
 09:14:41.970,eb:33:2e:f9:57:b5, 2015-01-01 00:07:03.485,0.023,-0.029,0.994,0.244,0.183,0, , , , , , ,-1.747,-1.56,-119.542
 09:14:41.970,eb:33:2e:f9:57:b5, 2015-01-01 00:07:03.485,0.024,-0.03,0.994,0.183,0.183,0, , , , , , ,-1.747,-1.56,-119.542
 09:14:41.970,eb:33:2e:f9:57:b5, 2015-01-01 00:07:03.485,0.024,-0.029,0.995,0.183,0.122,0, , , , , , ,-1.747,-1.56,-119.542
 09:14:41.970,eb:33:2e:f9:57:b5, 2015-01-01 00:07:03.485,0.024,-0.029,0.995,0.244,0.183,0.061, , , , , , ,-1.747,-1.56,-119.542
 09:14:41.970,eb:33:2e:f9:57:b5, 2015-01-01 00:07:03.485,0.023,-0.03,0.994,0.122,0.183,0, , , , , , ,-1.747,-1.56,-119.542
 09:14:41.970,eb:33:2e:f9:57:b5, 2015-01-01 00:07:03.485,0.025,-0.03,0.994,0.122,0.122,0, , , , , , ,-1.747,-1.56,-119.542
 09:14:41.970,eb:33:2e:f9:57:b5, 2015-01-01 00:07:03.485,0.024,-0.029,0.994,0.183,0.122,0.061, , , , , , ,-1.747,-1.56,-119.542
 09:14:41.970,eb:33:2e:f9:57:b5, 2015-01-01 00:07:03.485,0.023,-0.029,0.996,0.183,0.183,0, , , , , , ,-1.747,-1.56,-119.542
 09:14:41.970,eb:33:2e:f9:57:b5, 2015-01-01 00:07:03.485,0.023,-0.029,0.994,0.122,0.244,0.061, , , , , , ,-1.741,-1.56,-119.542
 09:14:41.971,eb:33:2e:f9:57:b5, 2015-01-01 00:07:03.485,0.023,-0.028,0.993,0.122,0.122,0, , , , , , ,-1.741,-1.56,-119.542
 09:14:41.971,eb:33:2e:f9:57:b5, 2015-01-01 00:07:03.485,0.024,-0.028,0.992,0.122,0.061,0.061, , , , , , ,-1.741,-1.56,-119.542
 09:14:41.971,eb:33:2e:f9:57:b5, 2015-01-01 00:07:03.485,0.025,-0.03,0.995,0.122,0.122,0, , , , , , ,-1.741,-1.56,-119.542
 09:14:41.971,eb:33:2e:f9:57:b5, 2015-01-01 00:07:03.485,0.024,-0.029,0.995,0.183,0.183,0, , , , , , ,-1.741,-1.56,-119.542
 09:14:41.971,eb:33:2e:f9:57:b5, 2015-01-01 00:07:03.485,0.022,-0.029,0.995,0.122,0.122,0, , , , , , ,-1.741,-1.56,-119.542
 09:14:41.971,eb:33:2e:f9:57:b5, 2015-01-01 00:07:03.485,0.023,-0.029,0.994,0.061,0.183,0, , , , , , ,-1.741,-1.56,-119.542
 09:14:41.971,eb:33:2e:f9:57:b5, 2015-01-01 00:07:03.485,0.023,-0.029,0.993,0.061,0.061,0, , , , , , ,-1.741,-1.56,-119.542
 09:14:41.971,eb:33:2e:f9:57:b5, 2015-01-01 00:07:03.485,0.023,-0.029,0.994,0.061,0,0, , , , , , ,-1.741,-1.555,-119.537
 09:14:41.971,eb:33:2e:f9:57:b5, 2015-01-01 00:07:03.485,0.024,-0.029,0.994,0.061,0.061,0, , , , , , ,-1.741,-1.555,-119.537
 09:14:41.971,eb:33:2e:f9:57:b5, 2015-01-01 00:07:03.485,0.023,-0.029,0.994,0.061,0.061,0, , , , , , ,-1.741,-1.555,-119.542
 09:14:41.971,eb:33:2e:f9:57:b5, 2015-01-01 00:07:03.485,0.024,-0.029,0.994,0.061,0,0, , , , , , ,-1.741,-1.555,-119.542
 09:14:41.971,eb:33:2e:f9:57:b5, 2015-01-01 00:07:03.485,0.024,-0.029,0.994,0,0,0, , , , , , ,-1.741,-1.555,-119.537
 09:14:41.972,eb:33:2e:f9:57:b5, 2015-01-01 00:07:03.485,0.024,-0.029,0.994,0,0,0, , , , , , ,-1.741,-1.555,-119.537
 09:14:41.972,eb:33:2e:f9:57:b5, 2015-01-01 00:07:03.485,0.024,-0.029,0.994,0,0.061,0, , , , , , ,-1.741,-1.555,-119.537
 09:14:41.972,eb:33:2e:f9:57:b5, 2015-01-01 00:07:03.485,0.025,-0.03,0.996,0,0.061,0, , , , , , ,-1.741,-1.555,-119.537
 09:14:41.972,eb:33:2e:f9:57:b5, 2015-01-01 00:07:03.485,0.024,-0.03,0.996,0.061,0.122,0, , , , , , ,-1.741,-1.555,-119.537
 09:14:41.972,eb:33:2e:f9:57:b5, 2015-01-01 00:07:03.485,0.024,-0.029,0.995,0.061,0.122,0.061, , , , , , ,-1.741,-1.555,-119.537
 09:14:41.972,eb:33:2e:f9:57:b5, 2015-01-01 00:07:03.485,0.023,-0.029,0.996,0.061,0.183,0, , , , , , ,-1.741,-1.555,-119.537
 09:14:41.972,eb:33:2e:f9:57:b5, 2015-01-01 00:07:03.485,0.022,-0.03,0.995,0.122,0.122,0, , , , , , ,-1.741,-1.555,-119.537
 09:14:41.972,eb:33:2e:f9:57:b5, 2015-01-01 00:07:03.485,0.022,-0.029,0.994,0.122,0.122,0, , , , , , ,-1.741,-1.555,-119.537
 09:14:41.972,eb:33:2e:f9:57:b5, 2015-01-01 00:07:03.485,0.023,-0.029,0.995,0.122,0.183,0, , , , , , ,-1.741,-1.555,-119.537
 09:14:41.972,eb:33:2e:f9:57:b5, 2015-01-01 00:07:03.485,0.022,-0.03,0.995,0.122,0.061,0, , , , , , ,-1.741,-1.555,-119.537
 09:14:41.972,eb:33:2e:f9:57:b5, 2015-01-01 00:07:03.485,0.023,-0.03,0.994,0.122,0,0, , , , , , ,-1.741,-1.555,-119.537
 09:14:41.973,eb:33:2e:f9:57:b5, 2015-01-01 00:07:03.485,0.024,-0.029,0.994,0.061,0.061,0, , , , , , ,-1.741,-1.555,-119.537
 09:14:41.973,eb:33:2e:f9:57:b5, 2015-01-01 00:07:03.485,0.024,-0.029,0.995,0.122,0,0, , , , , , ,-1.741,-1.555,-119.537
 09:14:41.973,eb:33:2e:f9:57:b5, 2015-01-01 00:07:03.485,0.024,-0.029,0.995,0.122,0.061,0, , , , , , ,-1.741,-1.555,-119.537
 09:14:41.973,eb:33:2e:f9:57:b5, 2015-01-01 00:07:03.485,0.024,-0.029,0.995,0.122,0.061,0.061, , , , , , ,-1.741,-1.555,-119.537
 09:14:41.973,eb:33:2e:f9:57:b5, 2015-01-01 00:07:03.485,0.024,-0.029,0.994,0.122,0.061,0.061, , , , , , ,-1.741,-1.555,-119.537
 09:14:41.973,eb:33:2e:f9:57:b5, 2015-01-01 00:07:03.485,0.024,-0.029,0.995,0.122,0.061,0.061, , , , , , ,-1.741,-1.555,-119.537
 09:14:41.973,eb:33:2e:f9:57:b5, 2015-01-01 00:07:03.485,0.023,-0.029,0.994,0.122,0.122,0, , , , , , ,-1.741,-1.555,-119.537
 09:14:41.973,eb:33:2e:f9:57:b5, 2015-01-01 00:07:03.485,0.023,-0.028,0.993,0.061,0.122,0, , , , , , ,-1.741,-1.555,-119.537
 09:14:41.973,eb:33:2e:f9:57:b5, 2015-01-01 00:07:03.485,0.023,-0.028,0.993,0.061,0.061,0, , , , , , ,-1.741,-1.549,-119.537
 09:14:41.973,eb:33:2e:f9:57:b5, 2015-01-01 00:07:03.485,0.024,-0.029,0.994,0,0.061,0, , , , , , ,-1.741,-1.549,-119.537
 09:14:41.973,eb:33:2e:f9:57:b5, 2015-01-01 00:07:03.485,0.024,-0.03,0.994,0,0.061,0, , , , , , ,-1.741,-1.549,-119.537
 09:14:41.973,eb:33:2e:f9:57:b5, 2015-01-01 00:07:03.485,0.024,-0.029,0.994,0,0.122,0, , , , , , ,-1.741,-1.549,-119.537
 09:14:41.974,eb:33:2e:f9:57:b5, 2015-01-01 00:07:03.485,0.024,-0.029,0.995,0,0.183,0.061, , , , , , ,-1.741,-1.549,-119.537
 09:14:41.974,eb:33:2e:f9:57:b5, 2015-01-01 00:07:03.485,0.024,-0.029,0.995,0.061,0.122,0, , , , , , ,-1.741,-1.549,-119.537
 09:14:41.974,eb:33:2e:f9:57:b5, 2015-01-01 00:07:03.485,0.024,-0.029,0.995,0.061,0.183,0, , , , , , ,-1.741,-1.549,-119.537
 09:14:41.974,eb:33:2e:f9:57:b5, 2015-01-01 00:07:03.485,0.023,-0.03,0.994,0.061,0.183,0.061, , , , , , ,-1.741,-1.549,-119.537
 09:14:41.974,eb:33:2e:f9:57:b5, 2015-01-01 00:07:03.485,0.023,-0.029,0.994,0,0.122,0.061, , , , , , ,-1.741,-1.549,-119.537
 09:14:41.974,eb:33:2e:f9:57:b5, 2015-01-01 00:07:03.485,0.025,-0.029,0.994,0.061,0.122,0.061, , , , , , ,-1.741,-1.549,-119.537
 09:14:41.974,eb:33:2e:f9:57:b5, 2015-01-01 00:07:03.485,0.023,-0.03,0.995,0.061,0.122,0.061, , , , , , ,-1.741,-1.549,-119.537
 09:14:41.974,eb:33:2e:f9:57:b5, 2015-01-01 00:07:03.485,0.022,-0.03,0.994,0.061,0.122,0.061, , , , , , ,-1.741,-1.549,-119.537
 09:14:41.974,eb:33:2e:f9:57:b5, 2015-01-01 00:07:03.485,0.022,-0.029,0.994,0.122,0.122,0.061, , , , , , ,-1.741,-1.549,-119.537
 09:14:41.974,eb:33:2e:f9:57:b5, 2015-01-01 00:07:03.485,0.022,-0.029,0.993,0.061,0.061,0.061, , , , , , ,-1.741,-1.549,-119.537
 09:14:41.974,eb:33:2e:f9:57:b5, 2015-01-01 00:07:03.485,0.023,-0.03,0.995,0.061,0,0.061, , , , , , ,-1.741,-1.549,-119.537
 09:14:41.974,eb:33:2e:f9:57:b5, 2015-01-01 00:07:03.485,0.023,-0.03,0.995,0.061,0,0.061, , , , , , ,-1.741,-1.549,-119.537
 09:14:41.974,eb:33:2e:f9:57:b5, 2015-01-01 00:07:03.485,0.023,-0.029,0.995,0.122,0,0.061, , , , , , ,-1.741,-1.549,-119.537
 09:14:41.974,eb:33:2e:f9:57:b5, 2015-01-01 00:07:03.485,0.023,-0.029,0.995,0.122,0,0.061, , , , , , ,-1.741,-1.549,-119.537
 09:14:41.974,eb:33:2e:f9:57:b5, 2015-01-01 00:07:03.485,0.024,-0.029,0.995,0.061,0,0.061, , , , , , ,-1.741,-1.549,-119.537
 09:14:41.975,eb:33:2e:f9:57:b5, 2015-01-01 00:07:03.485,0.024,-0.029,0.994,0.061,0,0, , , , , , ,-1.741,-1.549,-119.537
 09:14:41.975,eb:33:2e:f9:57:b5, 2015-01-01 00:07:03.485,0.024,-0.029,0.995,0.061,0.061,0, , , , , , ,-1.741,-1.544,-119.537
 09:14:41.975,eb:33:2e:f9:57:b5, 2015-01-01 00:07:03.485,0.024,-0.029,0.995,0.061,0.183,0.061, , , , , , ,-1.741,-1.544,-119.537
 09:14:41.975,eb:33:2e:f9:57:b5, 2015-01-01 00:07:03.485,0.024,-0.029,0.995,0.122,0.183,0.061, , , , , , ,-1.741,-1.544,-119.537
 09:14:41.975,eb:33:2e:f9:57:b5, 2015-01-01 00:07:03.485,0.024,-0.029,0.996,0.122,0.244,0.061, , , , , , ,-1.741,-1.544,-119.537
 09:14:41.975,eb:33:2e:f9:57:b5, 2015-01-01 00:07:03.485,0.023,-0.029,0.995,0.122,0.305,0, , , , , , ,-1.741,-1.544,-119.537
 09:14:41.975,eb:33:2e:f9:57:b5, 2015-01-01 00:07:03.485,0.023,-0.03,0.994,0.183,0.244,0.061, , , , , , ,-1.741,-1.544,-119.537
 09:14:41.975,eb:33:2e:f9:57:b5, 2015-01-01 00:07:03.485,0.022,-0.029,0.995,0.183,0.122,0.061, , , , , , ,-1.741,-1.544,-119.537
 09:14:41.975,eb:33:2e:f9:57:b5, 2015-01-01 00:07:03.485,0.024,-0.029,0.994,0.183,0.183,0.061, , , , , , ,-1.741,-1.544,-119.537
 09:14:41.975,eb:33:2e:f9:57:b5, 2015-01-01 00:07:03.485,0.022,-0.029,0.995,0.244,0.183,0.061, , , , , , ,-1.741,-1.544,-119.537
 09:14:41.975,eb:33:2e:f9:57:b5, 2015-01-01 00:07:03.485,0.022,-0.029,0.995,0.183,0.244,0.061, , , , , , ,-1.741,-1.544,-119.537
 09:14:41.975,eb:33:2e:f9:57:b5, 2015-01-01 00:07:03.485,0.023,-0.028,0.995,0.183,0.183,0.061, , , , , , ,-1.741,-1.544,-119.537
 09:14:41.975,eb:33:2e:f9:57:b5, 2015-01-01 00:07:03.485,0.022,-0.028,0.994,0.183,0.183,0.061, , , , , , ,-1.741,-1.544,-119.537
 09:14:41.975,eb:33:2e:f9:57:b5, 2015-01-01 00:07:03.485,0.022,-0.028,0.994,0.122,0.183,0, , , , , , ,-1.741,-1.544,-119.537
 09:14:41.976,eb:33:2e:f9:57:b5, 2015-01-01 00:07:03.485,0.022,-0.028,0.993,0.122,0.183,0.061, , , , , , ,-1.741,-1.544,-119.537
 09:14:41.976,eb:33:2e:f9:57:b5, 2015-01-01 00:07:03.485,0.022,-0.028,0.993,0.122,0.122,0.061, , , , , , ,-1.741,-1.544,-119.537
 09:14:41.976,eb:33:2e:f9:57:b5, 2015-01-01 00:07:03.485,0.023,-0.028,0.993,0.122,0.061,0, , , , , , ,-1.741,-1.544,-119.537
 09:14:41.976,eb:33:2e:f9:57:b5, 2015-01-01 00:07:03.485,0.022,-0.028,0.993,0.061,0.122,0.061, , , , , , ,-1.741,-1.544,-119.537
 09:14:41.976,eb:33:2e:f9:57:b5, 2015-01-01 00:07:03.485,0.022,-0.028,0.993,0,0.122,0.122, , , , , , ,-1.741,-1.544,-119.537
 09:14:41.976,eb:33:2e:f9:57:b5, 2015-01-01 00:07:03.485,0.022,-0.028,0.994,0,0,0.061, , , , , , ,-1.741,-1.544,-119.537
 09:14:41.976,eb:33:2e:f9:57:b5, 2015-01-01 00:07:03.485,0.023,-0.029,0.993,0,0.061,0.061, , , , , , ,-1.741,-1.544,-119.537
 09:14:41.976,eb:33:2e:f9:57:b5, 2015-01-01 00:07:03.485,0.024,-0.028,0.994,0,0.061,0.061, , , , , , ,-1.741,-1.538,-119.537
 09:14:41.976,eb:33:2e:f9:57:b5, 2015-01-01 00:07:03.485,0.023,-0.028,0.995,-0.061,0.122,0.122, , , , , , ,-1.741,-1.538,-119.537
 09:14:41.976,eb:33:2e:f9:57:b5, 2015-01-01 00:07:03.485,0.023,-0.029,0.994,-0.061,0.061,0.122, , , , , , ,-1.741,-1.538,-119.537
 09:14:41.976,eb:33:2e:f9:57:b5, 2015-01-01 00:07:03.485,0.022,-0.028,0.994,0,0.061,0.061, , , , , , ,-1.741,-1.538,-119.537
 09:14:41.976,eb:33:2e:f9:57:b5, 2015-01-01 00:07:03.485,0.023,-0.029,0.995,0,0.061,0.061, , , , , , ,-1.736,-1.538,-119.537
 09:14:41.976,eb:33:2e:f9:57:b5, 2015-01-01 00:07:03.485,0.023,-0.029,0.996,0,0.061,0.061, , , , , , ,-1.736,-1.538,-119.537
 09:14:41.976,eb:33:2e:f9:57:b5, 2015-01-01 00:07:03.485,0.023,-0.029,0.996,0,0.061,0.122, , , , , , ,-1.736,-1.538,-119.537
 09:14:41.977,eb:33:2e:f9:57:b5, 2015-01-01 00:07:03.485,0.022,-0.029,0.996,0,0.122,0.061, , , , , , ,-1.736,-1.538,-119.537
 09:14:41.977,eb:33:2e:f9:57:b5, 2015-01-01 00:07:03.485,0.022,-0.028,0.995,0.061,0.122,0, , , , , , ,-1.736,-1.538,-119.537
 09:14:41.977,eb:33:2e:f9:57:b5, 2015-01-01 00:07:03.485,0.022,-0.028,0.995,0.061,0.122,0.061, , , , , , ,-1.736,-1.538,-119.537
 09:14:41.977,eb:33:2e:f9:57:b5, 2015-01-01 00:07:03.485,0.023,-0.029,0.995,0.122,0.122,0.061, , , , , , ,-1.736,-1.538,-119.537
 09:14:41.977,eb:33:2e:f9:57:b5, 2015-01-01 00:07:03.485,0.023,-0.029,0.995,0.122,0.122,0.061, , , , , , ,-1.736,-1.538,-119.537
 09:14:41.977,eb:33:2e:f9:57:b5, 2015-01-01 00:07:03.485,0.022,-0.029,0.996,0.122,0.183,0.061, , , , , , ,-1.736,-1.538,-119.537
 09:14:41.977,eb:33:2e:f9:57:b5, 2015-01-01 00:07:03.485,0.022,-0.028,0.995,0.183,0.122,0, , , , , , ,-1.736,-1.538,-119.537
 09:14:41.977,eb:33:2e:f9:57:b5, 2015-01-01 00:07:03.485,0.023,-0.028,0.995,0.122,0.183,0.061, , , , , , ,-1.736,-1.538,-119.537
 09:14:41.977,eb:33:2e:f9:57:b5, 2015-01-01 00:07:03.485,0.021,-0.028,0.993,0.183,0.183,0.061, , , , , , ,-1.736,-1.538,-119.537
 09:14:41.977,eb:33:2e:f9:57:b5, 2015-01-01 00:07:03.485,0.022,-0.028,0.993,0.183,0.122,0.061, , , , , , ,-1.736,-1.538,-119.537
 09:14:41.977,eb:33:2e:f9:57:b5, 2015-01-01 00:07:03.485,0.023,-0.028,0.993,0.122,0.061,0, , , , , , ,-1.736,-1.538,-119.537
 09:14:41.977,eb:33:2e:f9:57:b5, 2015-01-01 00:07:03.485,0.023,-0.028,0.994,0.122,0.122,0, , , , , , ,-1.736,-1.538,-119.537
 09:14:41.977,eb:33:2e:f9:57:b5, 2015-01-01 00:07:03.485,0.022,-0.028,0.994,0.061,0.122,0, , , , , , ,-1.736,-1.538,-119.537
 09:14:41.977,eb:33:2e:f9:57:b5, 2015-01-01 00:07:03.485,0.022,-0.028,0.994,0.122,0.122,0, , , , , , ,-1.736,-1.533,-119.537
 09:14:41.978,eb:33:2e:f9:57:b5, 2015-01-01 00:07:03.485,0.022,-0.028,0.994,0,0.061,0, , , , , , ,-1.736,-1.533,-119.537
 09:14:41.978,eb:33:2e:f9:57:b5, 2015-01-01 00:07:03.485,0.022,-0.028,0.994,0,0,0, , , , , , ,-1.736,-1.533,-119.537
 09:14:41.978,eb:33:2e:f9:57:b5, 2015-01-01 00:07:03.485,0.022,-0.028,0.994,0,0.061,0, , , , , , ,-1.736,-1.533,-119.537
 09:14:41.978,eb:33:2e:f9:57:b5, 2015-01-01 00:07:03.485,0.022,-0.028,0.993,0,0,0, , , , , , ,-1.736,-1.533,-119.537
 09:14:41.978,eb:33:2e:f9:57:b5, 2015-01-01 00:07:03.485,0.023,-0.027,0.993,0,0,0, , , , , , ,-1.736,-1.533,-119.537
 09:14:41.978,eb:33:2e:f9:57:b5, 2015-01-01 00:07:03.485,0.023,-0.028,0.995,0,0.061,0, , , , , , ,-1.736,-1.533,-119.537
 09:14:41.978,eb:33:2e:f9:57:b5, 2015-01-01 00:07:03.485,0.023,-0.029,0.995,0,0.061,0.061, , , , , , ,-1.736,-1.533,-119.537
 09:14:41.978,eb:33:2e:f9:57:b5, 2015-01-01 00:07:03.485,0.021,-0.028,0.994,0,0.061,0, , , , , , ,-1.736,-1.533,-119.537
 09:14:41.978,eb:33:2e:f9:57:b5, 2015-01-01 00:07:03.485,0.022,-0.028,0.994,0,0.061,0.061, , , , , , ,-1.736,-1.533,-119.537
 09:14:41.978,eb:33:2e:f9:57:b5, 2015-01-01 00:07:03.485,0.023,-0.028,0.996,0,0.061,0.061, , , , , , ,-1.736,-1.533,-119.537
 09:14:41.978,eb:33:2e:f9:57:b5, 2015-01-01 00:07:03.485,0.021,-0.029,0.996,0.061,0.061,0.061, , , , , , ,-1.736,-1.533,-119.537
 09:14:41.978,eb:33:2e:f9:57:b5, 2015-01-01 00:07:03.485,0.021,-0.029,0.995,0.061,0.061,0.061, , , , , , ,-1.736,-1.533,-119.537
 09:14:41.978,eb:33:2e:f9:57:b5, 2015-01-01 00:07:03.485,0.021,-0.028,0.994,0,0.061,0, , , , , , ,-1.736,-1.533,-119.537
 09:14:41.978,eb:33:2e:f9:57:b5, 2015-01-01 00:07:03.485,0.022,-0.029,0.994,0,0.061,0.061, , , , , , ,-1.736,-1.533,-119.537
 09:14:41.978,eb:33:2e:f9:57:b5, 2015-01-01 00:07:03.485,0.022,-0.028,0.995,0,0,0.061, , , , , , ,-1.736,-1.533,-119.537
 09:14:41.980,eb:33:2e:f9:57:b5, 2015-01-01 00:07:03.485,0.021,-0.028,0.994,0,0.061,0, , , , , , ,-1.736,-1.527,-119.537
 09:14:41.980,eb:33:2e:f9:57:b5, 2015-01-01 00:07:03.485,0.021,-0.028,0.993,0,0,0.061, , , , , , ,-1.736,-1.527,-119.537
 09:14:41.980,eb:33:2e:f9:57:b5, 2015-01-01 00:07:03.485,0.021,-0.028,0.994,0,0,0.061, , , , , , ,-1.736,-1.527,-119.537
 09:14:41.980,eb:33:2e:f9:57:b5, 2015-01-01 00:07:03.485,0.023,-0.028,0.994,0,0,0.122, , , , , , ,-1.736,-1.527,-119.537
 09:14:41.980,eb:33:2e:f9:57:b5, 2015-01-01 00:07:03.485,0.022,-0.028,0.994,0,0,0.061, , , , , , ,-1.736,-1.527,-119.537
 09:14:41.980,eb:33:2e:f9:57:b5, 2015-01-01 00:07:03.485,0.022,-0.028,0.994,0,0,0, , , , , , ,-1.736,-1.527,-119.537
 09:14:41.980,eb:33:2e:f9:57:b5, 2015-01-01 00:07:03.485,0.022,-0.028,0.993,-0.061,0,0.061, , , , , , ,-1.736,-1.527,-119.537
 09:14:41.980,eb:33:2e:f9:57:b5, 2015-01-01 00:07:03.485,0.022,-0.028,0.993,-0.061,0,0.061, , , , , , ,-1.736,-1.527,-119.537
 09:14:41.980,eb:33:2e:f9:57:b5, 2015-01-01 00:07:03.485,0.023,-0.028,0.994,-0.061,0,0, , , , , , ,-1.736,-1.527,-119.537
 09:14:41.980,eb:33:2e:f9:57:b5, 2015-01-01 00:07:03.485,0.022,-0.028,0.994,-0.061,0,0, , , , , , ,-1.736,-1.527,-119.537
 09:14:41.980,eb:33:2e:f9:57:b5, 2015-01-01 00:07:03.485,0.022,-0.028,0.995,-0.061,0,0, , , , , , ,-1.736,-1.527,-119.537
 09:14:41.980,eb:33:2e:f9:57:b5, 2015-01-01 00:07:03.485,0.022,-0.028,0.995,-0.061,0,0, , , , , , ,-1.736,-1.527,-119.537
 09:14:41.980,eb:33:2e:f9:57:b5, 2015-01-01 00:07:03.485,0.022,-0.028,0.995,0,0.061,0, , , , , , ,-1.73,-1.527,-119.537
 09:14:41.980,eb:33:2e:f9:57:b5, 2015-01-01 00:07:03.485,0.022,-0.028,0.994,-0.061,0,0, , , , , , ,-1.73,-1.527,-119.537
 09:14:41.980,eb:33:2e:f9:57:b5, 2015-01-01 00:07:03.485,0.022,-0.028,0.994,-0.061,0,0, , , , , , ,-1.73,-1.527,-119.537
 09:14:41.981,eb:33:2e:f9:57:b5, 2015-01-01 00:07:03.485,0.023,-0.029,0.994,-0.061,0,0.061, , , , , , ,-1.73,-1.527,-119.537
 09:14:41.981,eb:33:2e:f9:57:b5, 2015-01-01 00:07:03.485,0.022,-0.029,0.995,-0.122,0,0.061, , , , , , ,-1.73,-1.522,-119.537
 09:14:41.981,eb:33:2e:f9:57:b5, 2015-01-01 00:07:03.485,0.021,-0.03,0.994,0,0,0.061, , , , , , ,-1.73,-1.522,-119.537
 09:14:41.981,eb:33:2e:f9:57:b5, 2015-01-01 00:07:03.485,0.022,-0.029,0.995,0,0,0.061, , , , , , ,-1.73,-1.522,-119.537
 09:14:41.981,eb:33:2e:f9:57:b5, 2015-01-01 00:07:03.485,0.023,-0.03,0.995,0,0,0.061, , , , , , ,-1.73,-1.522,-119.537
 09:14:41.981,eb:33:2e:f9:57:b5, 2015-01-01 00:07:03.485,0.023,-0.029,0.996,0,0,0, , , , , , ,-1.73,-1.522,-119.537
 09:14:41.981,eb:33:2e:f9:57:b5, 2015-01-01 00:07:03.485,0.022,-0.028,0.995,0,0,0, , , , , , ,-1.73,-1.522,-119.537
 09:14:41.981,eb:33:2e:f9:57:b5, 2015-01-01 00:07:03.485,0.021,-0.028,0.994,0,0,0.061, , , , , , ,-1.73,-1.522,-119.537
 09:14:41.981,eb:33:2e:f9:57:b5, 2015-01-01 00:07:03.485,0.021,-0.028,0.994,0,0,0, , , , , , ,-1.73,-1.522,-119.537
 09:14:41.981,eb:33:2e:f9:57:b5, 2015-01-01 00:07:03.485,0.022,-0.029,0.994,0.061,0,0, , , , , , ,-1.73,-1.522,-119.531
 09:14:41.981,eb:33:2e:f9:57:b5, 2015-01-01 00:07:03.485,0.022,-0.027,0.995,0,0,0, , , , , , ,-1.73,-1.522,-119.531
 09:14:41.981,eb:33:2e:f9:57:b5, 2015-01-01 00:07:03.485,0.022,-0.028,0.994,0,0,0, , , , , , ,-1.73,-1.522,-119.531
 09:14:41.981,eb:33:2e:f9:57:b5, 2015-01-01 00:07:03.485,0.022,-0.028,0.994,0,0,0.061, , , , , , ,-1.73,-1.522,-119.531
 09:14:41.981,eb:33:2e:f9:57:b5, 2015-01-01 00:07:03.485,0.022,-0.028,0.994,0,0,0, , , , , , ,-1.73,-1.522,-119.531
 09:14:41.981,eb:33:2e:f9:57:b5, 2015-01-01 00:07:03.485,0.022,-0.027,0.993,0,0,0.061, , , , , , ,-1.73,-1.522,-119.531
 09:14:41.982,eb:33:2e:f9:57:b5, 2015-01-01 00:07:03.485,0.022,-0.027,0.993,-0.061,-0.061,0, , , , , , ,-1.73,-1.522,-119.531
 09:14:41.982,eb:33:2e:f9:57:b5, 2015-01-01 00:07:03.485,0.021,-0.027,0.993,-0.122,-0.061,0, , , , , , ,-1.73,-1.522,-119.531
 09:14:41.982,eb:33:2e:f9:57:b5, 2015-01-01 00:07:03.485,0.021,-0.028,0.993,-0.122,0,0, , , , , , ,-1.73,-1.522,-119.531
 09:14:41.982,eb:33:2e:f9:57:b5, 2015-01-01 00:07:03.485,0.022,-0.028,0.993,-0.122,-0.061,0.061, , , , , , ,-1.73,-1.522,-119.531
 09:14:41.982,eb:33:2e:f9:57:b5, 2015-01-01 00:07:03.485,0.021,-0.027,0.994,-0.183,-0.122,0, , , , , , ,-1.73,-1.516,-119.531
 09:14:41.982,eb:33:2e:f9:57:b5, 2015-01-01 00:07:03.485,0.022,-0.027,0.995,-0.122,-0.122,0, , , , , , ,-1.73,-1.516,-119.531
 09:14:41.982,eb:33:2e:f9:57:b5, 2015-01-01 00:07:03.485,0.023,-0.029,0.996,-0.122,-0.122,0, , , , , , ,-1.73,-1.516,-119.531
 09:14:41.982,eb:33:2e:f9:57:b5, 2015-01-01 00:07:03.485,0.022,-0.029,0.995,-0.122,-0.122,0, , , , , , ,-1.73,-1.516,-119.531
 09:14:41.982,eb:33:2e:f9:57:b5, 2015-01-01 00:07:03.485,0.021,-0.029,0.995,-0.061,-0.061,0, , , , , , ,-1.73,-1.516,-119.531
 09:14:41.982,eb:33:2e:f9:57:b5, 2015-01-01 00:07:03.485,0.022,-0.028,0.994,-0.122,-0.061,0, , , , , , ,-1.73,-1.516,-119.531
 09:14:41.982,eb:33:2e:f9:57:b5, 2015-01-01 00:07:03.485,0.022,-0.029,0.994,-0.061,-0.122,0, , , , , , ,-1.73,-1.516,-119.531
 09:14:41.982,eb:33:2e:f9:57:b5, 2015-01-01 00:07:03.485,0.022,-0.029,0.994,-0.061,-0.183,0, , , , , , ,-1.73,-1.516,-119.531
 09:14:41.982,eb:33:2e:f9:57:b5, 2015-01-01 00:07:03.485,0.023,-0.029,0.995,0,-0.061,0, , , , , , ,-1.73,-1.516,-119.531
 09:14:41.982,eb:33:2e:f9:57:b5, 2015-01-01 00:07:03.485,0.022,-0.03,0.997,-0.061,-0.061,0, , , , , , ,-1.73,-1.516,-119.531
 09:14:41.982,eb:33:2e:f9:57:b5, 2015-01-01 00:07:03.485,0.022,-0.03,0.996,0,0,0, , , , , , ,-1.73,-1.516,-119.531
 09:14:41.983,eb:33:2e:f9:57:b5, 2015-01-01 00:07:03.485,0.021,-0.029,0.995,0.061,-0.061,0.061, , , , , , ,-1.73,-1.516,-119.531
 09:14:41.983,eb:33:2e:f9:57:b5, 2015-01-01 00:07:03.485,0.021,-0.029,0.995,0,-0.061,0, , , , , , ,-1.73,-1.516,-119.531
 09:14:41.983,eb:33:2e:f9:57:b5, 2015-01-01 00:07:03.485,0.021,-0.029,0.994,0,-0.061,0.061, , , , , , ,-1.73,-1.516,-119.531
 09:14:41.983,eb:33:2e:f9:57:b5, 2015-01-01 00:07:03.485,0.022,-0.028,0.994,0.061,-0.061,0, , , , , , ,-1.73,-1.516,-119.531
 09:14:41.983,eb:33:2e:f9:57:b5, 2015-01-01 00:07:03.485,0.023,-0.028,0.994,0,-0.061,0, , , , , , ,-1.73,-1.516,-119.531
 09:14:41.983,eb:33:2e:f9:57:b5, 2015-01-01 00:07:03.485,0.022,-0.028,0.994,0,0,0, , , , , , ,-1.73,-1.516,-119.531
 09:14:41.983,eb:33:2e:f9:57:b5, 2015-01-01 00:07:03.485,0.022,-0.028,0.993,0,-0.061,0, , , , , , ,-1.73,-1.516,-119.531
 09:14:41.983,eb:33:2e:f9:57:b5, 2015-01-01 00:07:03.485,0.021,-0.028,0.993,-0.061,-0.061,0, , , , , , ,-1.73,-1.511,-119.531
 09:14:41.983,eb:33:2e:f9:57:b5, 2015-01-01 00:07:03.485,0.022,-0.029,0.994,-0.061,-0.061,0, , , , , , ,-1.73,-1.511,-119.531
 09:14:41.983,eb:33:2e:f9:57:b5, 2015-01-01 00:07:03.485,0.021,-0.028,0.992,-0.061,-0.122,0, , , , , , ,-1.73,-1.511,-119.531
 09:14:41.983,eb:33:2e:f9:57:b5, 2015-01-01 00:07:03.485,0.023,-0.028,0.994,-0.061,-0.122,0, , , , , , ,-1.73,-1.511,-119.531
 09:14:41.983,eb:33:2e:f9:57:b5, 2015-01-01 00:07:03.485,0.022,-0.029,0.994,-0.122,-0.122,0, , , , , , ,-1.73,-1.511,-119.531
 09:14:41.983,eb:33:2e:f9:57:b5, 2015-01-01 00:07:03.485,0.022,-0.029,0.994,-0.122,-0.122,0, , , , , , ,-1.73,-1.511,-119.531
 09:14:41.984,eb:33:2e:f9:57:b5, 2015-01-01 00:07:03.485,0.022,-0.028,0.994,-0.061,-0.122,0, , , , , , ,-1.73,-1.511,-119.531
 09:14:41.984,eb:33:2e:f9:57:b5, 2015-01-01 00:07:03.485,0.022,-0.029,0.995,-0.122,-0.122,0.061, , , , , , ,-1.73,-1.511,-119.531
 09:14:41.984,eb:33:2e:f9:57:b5, 2015-01-01 00:07:03.485,0.023,-0.029,0.995,-0.183,-0.061,0, , , , , , ,-1.725,-1.511,-119.531
 09:14:41.984,eb:33:2e:f9:57:b5, 2015-01-01 00:07:03.485,0.023,-0.029,0.994,-0.061,-0.122,0, , , , , , ,-1.725,-1.511,-119.531
 09:14:41.984,eb:33:2e:f9:57:b5, 2015-01-01 00:07:03.485,0.022,-0.029,0.995,-0.061,-0.183,0, , , , , , ,-1.725,-1.511,-119.531
 09:14:41.984,eb:33:2e:f9:57:b5, 2015-01-01 00:07:03.485,0.021,-0.029,0.995,-0.061,-0.122,0, , , , , , ,-1.725,-1.511,-119.531
 09:14:41.984,eb:33:2e:f9:57:b5, 2015-01-01 00:07:03.485,0.022,-0.029,0.995,-0.061,-0.122,0, , , , , , ,-1.725,-1.511,-119.531
 09:14:41.984,eb:33:2e:f9:57:b5, 2015-01-01 00:07:03.485,0.022,-0.029,0.995,-0.061,-0.122,0, , , , , , ,-1.725,-1.511,-119.531
 09:14:41.984,eb:33:2e:f9:57:b5, 2015-01-01 00:07:03.485,0.023,-0.028,0.995,0,-0.122,0, , , , , , ,-1.725,-1.511,-119.531
 09:14:41.984,eb:33:2e:f9:57:b5, 2015-01-01 00:07:03.485,0.021,-0.028,0.994,0,-0.122,0, , , , , , ,-1.725,-1.511,-119.531
 09:14:41.984,eb:33:2e:f9:57:b5, 2015-01-01 00:07:03.485,0.021,-0.029,0.994,-0.061,-0.122,0.061, , , , , , ,-1.725,-1.505,-119.531
 09:14:41.984,eb:33:2e:f9:57:b5, 2015-01-01 00:07:03.485,0.021,-0.028,0.994,-0.061,-0.122,0, , , , , , ,-1.725,-1.505,-119.531
 09:14:41.984,eb:33:2e:f9:57:b5, 2015-01-01 00:07:03.485,0.021,-0.029,0.994,-0.061,-0.122,0.061, , , , , , ,-1.725,-1.505,-119.531
 09:14:41.984,eb:33:2e:f9:57:b5, 2015-01-01 00:07:03.485,0.022,-0.029,0.994,-0.061,-0.244,0.061, , , , , , ,-1.725,-1.505,-119.531
 09:14:41.984,eb:33:2e:f9:57:b5, 2015-01-01 00:07:03.485,0.021,-0.029,0.993,-0.061,-0.183,0, , , , , , ,-1.725,-1.505,-119.531
 09:14:41.984,eb:33:2e:f9:57:b5, 2015-01-01 00:07:03.485,0.021,-0.028,0.994,-0.061,-0.183,0, , , , , , ,-1.725,-1.505,-119.531
 09:14:41.985,eb:33:2e:f9:57:b5, 2015-01-01 00:07:03.485,0.021,-0.028,0.995,-0.061,-0.244,0, , , , , , ,-1.725,-1.505,-119.531
 09:14:41.985,eb:33:2e:f9:57:b5, 2015-01-01 00:07:03.485,0.023,-0.028,0.994,0,-0.244,0, , , , , , ,-1.725,-1.505,-119.531
 09:14:41.985,eb:33:2e:f9:57:b5, 2015-01-01 00:07:03.485,0.022,-0.028,0.994,-0.061,-0.305,0, , , , , , ,-1.725,-1.505,-119.531
 09:14:41.985,eb:33:2e:f9:57:b5, 2015-01-01 00:07:03.485,0.023,-0.029,0.994,-0.061,-0.244,0, , , , , , ,-1.725,-1.505,-119.531
 09:14:41.985,eb:33:2e:f9:57:b5, 2015-01-01 00:07:03.485,0.023,-0.029,0.995,0,-0.183,0, , , , , , ,-1.725,-1.505,-119.531
 09:14:41.985,eb:33:2e:f9:57:b5, 2015-01-01 00:07:03.485,0.023,-0.029,0.995,0,-0.183,0, , , , , , ,-1.725,-1.505,-119.531
 09:14:41.985,eb:33:2e:f9:57:b5, 2015-01-01 00:07:03.485,0.022,-0.029,0.995,-0.061,-0.122,0, , , , , , ,-1.725,-1.505,-119.531
 09:14:41.985,eb:33:2e:f9:57:b5, 2015-01-01 00:07:03.485,0.022,-0.03,0.995,0,-0.183,0, , , , , , ,-1.725,-1.505,-119.531
 09:14:41.985,eb:33:2e:f9:57:b5, 2015-01-01 00:07:03.485,0.021,-0.029,0.995,0,-0.183,0, , , , , , ,-1.725,-1.505,-119.531
 09:14:41.985,eb:33:2e:f9:57:b5, 2015-01-01 00:07:03.485,0.022,-0.029,0.994,0,-0.122,0, , , , , , ,-1.725,-1.505,-119.531
 09:14:41.985,eb:33:2e:f9:57:b5, 2015-01-01 00:07:03.485,0.022,-0.029,0.994,0,-0.122,0, , , , , , ,-1.725,-1.505,-119.531
 09:14:41.985,eb:33:2e:f9:57:b5, 2015-01-01 00:07:03.485,0.023,-0.029,0.995,0,-0.122,0, , , , , , ,-1.725,-1.505,-119.531
 09:14:41.985,eb:33:2e:f9:57:b5, 2015-01-01 00:07:03.485,0.023,-0.029,0.995,0,-0.122,-0.061, , , , , , ,-1.725,-1.505,-119.531
 09:14:41.985,eb:33:2e:f9:57:b5, 2015-01-01 00:07:03.485,0.023,-0.028,0.995,0,-0.061,-0.061, , , , , , ,-1.725,-1.505,-119.531
 09:14:41.985,eb:33:2e:f9:57:b5, 2015-01-01 00:07:03.485,0.023,-0.028,0.994,0.061,-0.122,0, , , , , , ,-1.725,-1.5,-119.531
 09:14:41.986,eb:33:2e:f9:57:b5, 2015-01-01 00:07:03.485,0.022,-0.03,0.994,0,-0.061,0, , , , , , ,-1.725,-1.5,-119.531
 09:14:41.986,eb:33:2e:f9:57:b5, 2015-01-01 00:07:03.485,0.022,-0.029,0.994,0,-0.122,0, , , , , , ,-1.725,-1.5,-119.531
 09:14:41.986,eb:33:2e:f9:57:b5, 2015-01-01 00:07:03.485,0.022,-0.028,0.993,0,-0.122,0, , , , , , ,-1.725,-1.5,-119.531
 09:14:41.986,eb:33:2e:f9:57:b5, 2015-01-01 00:07:03.485,0.022,-0.028,0.993,-0.061,-0.122,0, , , , , , ,-1.725,-1.5,-119.531
 09:14:41.986,eb:33:2e:f9:57:b5, 2015-01-01 00:07:03.485,0.021,-0.028,0.993,-0.061,-0.183,0, , , , , , ,-1.725,-1.5,-119.531
 09:14:41.986,eb:33:2e:f9:57:b5, 2015-01-01 00:07:03.485,0.022,-0.028,0.993,-0.061,-0.244,-0.061, , , , , , ,-1.725,-1.5,-119.531
 09:14:41.986,eb:33:2e:f9:57:b5, 2015-01-01 00:07:03.485,0.023,-0.028,0.993,-0.061,-0.305,0, , , , , , ,-1.725,-1.5,-119.531
 09:14:41.986,eb:33:2e:f9:57:b5, 2015-01-01 00:07:03.485,0.024,-0.028,0.994,-0.061,-0.305,-0.061, , , , , , ,-1.725,-1.5,-119.531
 09:14:41.986,eb:33:2e:f9:57:b5, 2015-01-01 00:07:03.485,0.024,-0.029,0.995,-0.122,-0.244,-0.061, , , , , , ,-1.725,-1.5,-119.531
 09:14:41.986,eb:33:2e:f9:57:b5, 2015-01-01 00:07:03.485,0.023,-0.029,0.995,-0.061,-0.305,0, , , , , , ,-1.725,-1.5,-119.531
 09:14:41.986,eb:33:2e:f9:57:b5, 2015-01-01 00:07:03.485,0.023,-0.029,0.994,-0.061,-0.244,0, , , , , , ,-1.725,-1.5,-119.531
 09:14:41.988,eb:33:2e:f9:57:b5, 2015-01-01 00:07:03.485,0.023,-0.029,0.995,-0.122,-0.183,0, , , , , , ,-1.725,-1.5,-119.531
 09:14:41.988,eb:33:2e:f9:57:b5, 2015-01-01 00:07:03.485,0.022,-0.029,0.995,-0.122,-0.183,0, , , , , , ,-1.725,-1.5,-119.531
 09:14:41.988,eb:33:2e:f9:57:b5, 2015-01-01 00:07:03.485,0.022,-0.029,0.994,-0.061,-0.183,0, , , , , , ,-1.725,-1.5,-119.531
 09:14:41.988,eb:33:2e:f9:57:b5, 2015-01-01 00:07:03.485,0.022,-0.03,0.994,-0.061,-0.183,0, , , , , , ,-1.725,-1.5,-119.531
 09:14:41.988,eb:33:2e:f9:57:b5, 2015-01-01 00:07:03.485,0.022,-0.029,0.994,-0.061,-0.244,-0.061, , , , , , ,-1.725,-1.5,-119.531
 09:14:41.988,eb:33:2e:f9:57:b5, 2015-01-01 00:07:03.485,0.022,-0.03,0.994,-0.061,-0.244,-0.061, , , , , , ,-1.725,-1.5,-119.531
 09:14:41.989,eb:33:2e:f9:57:b5, 2015-01-01 00:07:03.485,0.022,-0.028,0.994,-0.061,-0.244,0, , , , , , ,-1.725,-1.5,-119.531
 09:14:41.989,eb:33:2e:f9:57:b5, 2015-01-01 00:07:03.485,0.022,-0.028,0.993,-0.061,-0.305,-0.061, , , , , , ,-1.725,-1.5,-119.531
 09:14:41.989,eb:33:2e:f9:57:b5, 2015-01-01 00:07:03.485,0.022,-0.028,0.994,-0.061,-0.305,-0.061, , , , , , ,-1.725,-1.494,-119.531
 09:14:41.989,eb:33:2e:f9:57:b5, 2015-01-01 00:07:03.485,0.023,-0.029,0.995,-0.061,-0.305,0, , , , , , ,-1.725,-1.494,-119.531
 09:14:41.989,eb:33:2e:f9:57:b5, 2015-01-01 00:07:03.485,0.024,-0.028,0.995,-0.061,-0.305,-0.061, , , , , , ,-1.725,-1.494,-119.531
 09:14:41.989,eb:33:2e:f9:57:b5, 2015-01-01 00:07:03.485,0.023,-0.029,0.996,0,-0.244,0, , , , , , ,-1.725,-1.494,-119.531
 09:14:41.989,eb:33:2e:f9:57:b5, 2015-01-01 00:07:03.485,0.022,-0.029,0.995,-0.061,-0.183,0, , , , , , ,-1.725,-1.494,-119.531
 09:14:41.990,eb:33:2e:f9:57:b5, 2015-01-01 00:07:03.485,0.022,-0.028,0.994,-0.061,-0.244,0, , , , , , ,-1.725,-1.494,-119.531
 09:14:41.990,eb:33:2e:f9:57:b5, 2015-01-01 00:07:03.485,0.023,-0.029,0.994,0,-0.305,0, , , , , , ,-1.725,-1.494,-119.531
 09:14:41.990,eb:33:2e:f9:57:b5, 2015-01-01 00:07:03.485,0.024,-0.029,0.996,0,-0.244,0, , , , , , ,-1.725,-1.494,-119.531
 09:14:41.990,eb:33:2e:f9:57:b5, 2015-01-01 00:07:03.485,0.023,-0.029,0.995,0,-0.244,0, , , , , , ,-1.725,-1.494,-119.531
 09:14:41.990,eb:33:2e:f9:57:b5, 2015-01-01 00:07:03.485,0.023,-0.028,0.994,-0.061,-0.305,-0.061, , , , , , ,-1.725,-1.494,-119.531
 09:14:41.990,eb:33:2e:f9:57:b5, 2015-01-01 00:07:03.485,0.023,-0.028,0.993,-0.061,-0.305,-0.061, , , , , , ,-1.725,-1.494,-119.531
 09:14:41.990,eb:33:2e:f9:57:b5, 2015-01-01 00:07:03.485,0.023,-0.029,0.994,-0.061,-0.305,-0.061, , , , , , ,-1.725,-1.494,-119.531
 09:14:41.990,eb:33:2e:f9:57:b5, 2015-01-01 00:07:03.485,0.024,-0.03,0.995,-0.061,-0.244,0, , , , , , ,-1.725,-1.494,-119.531
 09:14:41.990,eb:33:2e:f9:57:b5, 2015-01-01 00:07:03.485,0.023,-0.03,0.996,-0.061,-0.244,0, , , , , , ,-1.725,-1.494,-119.531
 09:14:41.990,eb:33:2e:f9:57:b5, 2015-01-01 00:07:03.485,0.022,-0.028,0.994,-0.061,-0.244,-0.061, , , , , , ,-1.725,-1.494,-119.531
 09:14:41.991,eb:33:2e:f9:57:b5, 2015-01-01 00:07:03.485,0.023,-0.028,0.992,-0.061,-0.244,0, , , , , , ,-1.725,-1.494,-119.531
 09:14:41.991,eb:33:2e:f9:57:b5, 2015-01-01 00:07:03.485,0.023,-0.029,0.994,-0.061,-0.244,0, , , , , , ,-1.725,-1.494,-119.531
 09:14:41.991,eb:33:2e:f9:57:b5, 2015-01-01 00:07:03.485,0.023,-0.029,0.994,-0.061,-0.244,0, , , , , , ,-1.725,-1.494,-119.531
 09:14:41.991,eb:33:2e:f9:57:b5, 2015-01-01 00:07:03.485,0.023,-0.03,0.995,-0.061,-0.305,0, , , , , , ,-1.725,-1.494,-119.531
 09:14:41.991,eb:33:2e:f9:57:b5, 2015-01-01 00:07:03.485,0.023,-0.029,0.994,-0.061,-0.305,0, , , , , , ,-1.725,-1.494,-119.531
 09:14:41.991,eb:33:2e:f9:57:b5, 2015-01-01 00:07:03.485,0.022,-0.03,0.995,-0.061,-0.305,0, , , , , , ,-1.725,-1.494,-119.526
 09:14:41.991,eb:33:2e:f9:57:b5, 2015-01-01 00:07:03.485,0.023,-0.029,0.995,0,-0.305,0, , , , , , ,-1.725,-1.494,-119.526
 09:14:41.991,eb:33:2e:f9:57:b5, 2015-01-01 00:07:03.485,0.023,-0.03,0.995,0,-0.366,0, , , , , , ,-1.725,-1.494,-119.526
 09:14:41.991,eb:33:2e:f9:57:b5, 2015-01-01 00:07:03.485,0.024,-0.03,0.996,0,-0.366,0, , , , , , ,-1.725,-1.494,-119.526
 09:14:41.991,eb:33:2e:f9:57:b5, 2015-01-01 00:07:03.485,0.025,-0.03,0.997,0.122,-0.305,0, , , , , , ,-1.725,-1.489,-119.526
 09:14:41.991,eb:33:2e:f9:57:b5, 2015-01-01 00:07:03.485,0.024,-0.029,0.995,0.061,-0.305,0, , , , , , ,-1.725,-1.489,-119.526
 09:14:41.991,eb:33:2e:f9:57:b5, 2015-01-01 00:07:03.485,0.023,-0.029,0.995,0.061,-0.244,0, , , , , , ,-1.725,-1.489,-119.526
 09:14:41.991,eb:33:2e:f9:57:b5, 2015-01-01 00:07:03.485,0.024,-0.028,0.995,0,-0.244,-0.061, , , , , , ,-1.725,-1.489,-119.526
 09:14:41.992,eb:33:2e:f9:57:b5, 2015-01-01 00:07:03.485,0.024,-0.029,0.994,0.061,-0.122,0, , , , , , ,-1.725,-1.489,-119.526
 09:14:41.992,eb:33:2e:f9:57:b5, 2015-01-01 00:07:03.485,0.025,-0.03,0.996,0.122,-0.183,0, , , , , , ,-1.725,-1.489,-119.526
 09:14:41.992,eb:33:2e:f9:57:b5, 2015-01-01 00:07:03.485,0.023,-0.03,0.996,0.122,-0.061,0, , , , , , ,-1.725,-1.489,-119.526
 09:14:41.992,eb:33:2e:f9:57:b5, 2015-01-01 00:07:03.485,0.022,-0.03,0.995,0.122,-0.061,0, , , , , , ,-1.725,-1.489,-119.526
 09:14:41.992,eb:33:2e:f9:57:b5, 2015-01-01 00:07:03.485,0.023,-0.029,0.994,0.122,-0.183,0, , , , , , ,-1.725,-1.489,-119.526
 09:14:41.992,eb:33:2e:f9:57:b5, 2015-01-01 00:07:03.485,0.023,-0.029,0.993,0.183,-0.244,0, , , , , , ,-1.725,-1.489,-119.526
 09:14:41.992,eb:33:2e:f9:57:b5, 2015-01-01 00:07:03.485,0.024,-0.029,0.993,0.122,-0.244,0, , , , , , ,-1.725,-1.489,-119.526
 09:14:41.992,eb:33:2e:f9:57:b5, 2015-01-01 00:07:03.485,0.024,-0.028,0.994,0.122,-0.244,0, , , , , , ,-1.725,-1.489,-119.526
 09:14:41.992,eb:33:2e:f9:57:b5, 2015-01-01 00:07:03.485,0.023,-0.027,0.993,0.122,-0.244,0.061, , , , , , ,-1.719,-1.489,-119.526
 09:14:41.993,eb:33:2e:f9:57:b5, 2015-01-01 00:07:03.485,0.022,-0.029,0.993,0.061,-0.244,0, , , , , , ,-1.719,-1.489,-119.526
 09:14:41.993,eb:33:2e:f9:57:b5, 2015-01-01 00:07:03.485,0.023,-0.03,0.993,0.061,-0.305,0, , , , , , ,-1.719,-1.489,-119.526
 09:14:41.993,eb:33:2e:f9:57:b5, 2015-01-01 00:07:03.485,0.024,-0.029,0.993,0,-0.366,0, , , , , , ,-1.719,-1.489,-119.526
 09:14:41.993,eb:33:2e:f9:57:b5, 2015-01-01 00:07:03.485,0.024,-0.029,0.994,0,-0.366,0.061, , , , , , ,-1.719,-1.489,-119.526
 09:14:41.993,eb:33:2e:f9:57:b5, 2015-01-01 00:07:03.485,0.024,-0.029,0.994,0,-0.366,0.061, , , , , , ,-1.719,-1.489,-119.526
 09:14:41.993,eb:33:2e:f9:57:b5, 2015-01-01 00:07:03.485,0.023,-0.028,0.995,0,-0.305,0.061, , , , , , ,-1.719,-1.489,-119.526
 09:14:41.993,eb:33:2e:f9:57:b5, 2015-01-01 00:07:03.485,0.024,-0.029,0.995,0,-0.244,0, , , , , , ,-1.719,-1.489,-119.526
 09:14:41.993,eb:33:2e:f9:57:b5, 2015-01-01 00:07:03.485,0.024,-0.028,0.994,0,-0.244,0, , , , , , ,-1.719,-1.489,-119.526
 09:14:41.993,eb:33:2e:f9:57:b5, 2015-01-01 00:07:03.485,0.024,-0.029,0.994,0,-0.244,0, , , , , , ,-1.719,-1.489,-119.526
 09:14:41.993,eb:33:2e:f9:57:b5, 2015-01-01 00:07:03.485,0.023,-0.029,0.994,0,-0.244,0.061, , , , , , ,-1.719,-1.489,-119.526
 09:14:41.994,eb:33:2e:f9:57:b5, 2015-01-01 00:07:03.485,0.023,-0.03,0.994,0,-0.183,0.061, , , , , , ,-1.719,-1.489,-119.526
 09:14:41.994,eb:33:2e:f9:57:b5, 2015-01-01 00:07:03.485,0.024,-0.029,0.994,0,-0.244,0.061, , , , , , ,-1.719,-1.489,-119.526
 09:14:41.994,eb:33:2e:f9:57:b5, 2015-01-01 00:07:03.485,0.024,-0.029,0.995,0,-0.183,0.122, , , , , , ,-1.719,-1.489,-119.526
 09:14:41.994,eb:33:2e:f9:57:b5, 2015-01-01 00:07:03.485,0.023,-0.029,0.995,0,-0.244,0.061, , , , , , ,-1.719,-1.489,-119.526
 09:14:41.994,eb:33:2e:f9:57:b5, 2015-01-01 00:07:03.485,0.023,-0.029,0.995,0,-0.244,0, , , , , , ,-1.719,-1.489,-119.526
 09:14:41.994,eb:33:2e:f9:57:b5, 2015-01-01 00:07:03.485,0.024,-0.029,0.995,0,-0.244,0, , , , , , ,-1.719,-1.489,-119.526
 09:14:41.994,eb:33:2e:f9:57:b5, 2015-01-01 00:07:03.485,0.024,-0.029,0.994,0,-0.244,0, , , , , , ,-1.719,-1.489,-119.526
 09:14:41.994,eb:33:2e:f9:57:b5, 2015-01-01 00:07:03.485,0.024,-0.028,0.994,0,-0.183,0.061, , , , , , ,-1.719,-1.489,-119.526
 09:14:41.994,eb:33:2e:f9:57:b5, 2015-01-01 00:07:03.485,0.023,-0.029,0.994,0,-0.183,0, , , , , , ,-1.719,-1.489,-119.526
 09:14:41.994,eb:33:2e:f9:57:b5, 2015-01-01 00:07:03.485,0.024,-0.028,0.994,0,-0.244,0, , , , , , ,-1.719,-1.483,-119.526
 09:14:41.994,eb:33:2e:f9:57:b5, 2015-01-01 00:07:03.485,0.024,-0.028,0.994,0,-0.244,0, , , , , , ,-1.719,-1.483,-119.526
 09:14:41.994,eb:33:2e:f9:57:b5, 2015-01-01 00:07:03.485,0.024,-0.028,0.994,0,-0.183,0, , , , , , ,-1.719,-1.483,-119.526
 09:14:41.994,eb:33:2e:f9:57:b5, 2015-01-01 00:07:03.485,0.023,-0.028,0.995,0,-0.183,0, , , , , , ,-1.719,-1.483,-119.526
 09:14:41.994,eb:33:2e:f9:57:b5, 2015-01-01 00:07:03.485,0.022,-0.029,0.993,0,-0.183,0, , , , , , ,-1.719,-1.483,-119.526
 09:14:41.995,eb:33:2e:f9:57:b5, 2015-01-01 00:07:03.485,0.022,-0.028,0.992,0,-0.183,0, , , , , , ,-1.719,-1.483,-119.526
 09:14:41.995,eb:33:2e:f9:57:b5, 2015-01-01 00:07:03.485,0.026,-0.029,0.992,0,-0.305,0, , , , , , ,-1.719,-1.483,-119.526
 09:14:41.995,eb:33:2e:f9:57:b5, 2015-01-01 00:07:03.485,0.032,-0.029,0.996,0,-0.244,0, , , , , , ,-1.719,-1.483,-119.526
 09:14:41.995,eb:33:2e:f9:57:b5, 2015-01-01 00:07:03.485,0.022,-0.03,0.999,0,0.061,-0.061, , , , , , ,-1.719,-1.483,-119.526
 09:14:41.995,eb:33:2e:f9:57:b5, 2015-01-01 00:07:03.485,0.019,-0.03,0.992,0,-0.061,0, , , , , , ,-1.719,-1.483,-119.526
 09:14:41.995,eb:33:2e:f9:57:b5, 2015-01-01 00:07:03.485,0.019,-0.029,0.99,0,-0.305,0, , , , , , ,-1.719,-1.483,-119.526
 09:14:41.995,eb:33:2e:f9:57:b5, 2015-01-01 00:07:03.485,0.024,-0.029,0.989,0,-0.61,0, , , , , , ,-1.719,-1.483,-119.526
 09:14:41.995,eb:33:2e:f9:57:b5, 2015-01-01 00:07:03.485,0.027,-0.029,0.995,0,-0.549,0, , , , , , ,-1.719,-1.483,-119.526
