Time,Device name,Chip Time(),Acceleration X(g),Acceleration Y(g),Acceleration Z(g),Angular velocity X(°/s),Angular velocity Y(°/s),Angular velocity Z(°/s),ShiftX(mm),ShiftY(mm),ShiftZ(mm),SpeedX(mm/s),SpeedY(mm/s),SpeedZ(mm/s),Angle X(°),Angle Y(°),Angle Z(°)
 09:21:05.090,eb:33:2e:f9:57:b5, 2015-01-01 00:12:58.885,-0.287,-0.612,2.344,-468.384,-398.01,1.343, , , , , , ,23.566,17.221,-111.237
 09:21:05.091,eb:33:2e:f9:57:b5, 2015-01-01 00:12:58.885,-0.241,-0.892,4.486,256.165,-34.973,49.316, , , , , , ,8.41,-0.703,-104.81
 09:21:05.091,eb:33:2e:f9:57:b5, 2015-01-01 00:12:58.885,0.187,-1.278,4.42,328.491,-54.443,41.87, , , , , , ,9.915,-0.961,-104.623
 09:21:05.092,eb:33:2e:f9:57:b5, 2015-01-01 00:12:58.885,1.459,-1.37,4.491,397.766,-54.138,30.945, , , , , , ,11.761,-1.285,-104.502
 09:21:05.092,eb:33:2e:f9:57:b5, 2015-01-01 00:12:58.885,2.128,-0.995,4.937,453.979,-3.174,19.043, , , , , , ,13.92,-1.472,-104.409
 09:21:05.092,eb:33:2e:f9:57:b5, 2015-01-01 00:12:58.885,1.513,-1.076,4.572,498.169,57.8,-1.526, , , , , , ,16.315,-1.302,-104.326
 09:21:05.092,eb:33:2e:f9:57:b5, 2015-01-01 00:12:58.885,1.04,-1.221,4.192,544.8,73.364,-28.32, , , , , , ,18.951,-0.945,-104.304
 09:21:05.092,eb:33:2e:f9:57:b5, 2015-01-01 00:12:58.885,0.894,-1.282,4.237,586.304,81.482,-54.138, , , , , , ,21.813,-0.494,-104.376
 09:21:05.092,eb:33:2e:f9:57:b5, 2015-01-01 00:12:58.885,1.357,-1.187,4.084,608.215,97.29,-65.369, , , , , , ,24.818,0.038,-104.48
 09:21:05.092,eb:33:2e:f9:57:b5, 2015-01-01 00:12:58.885,1.309,-1.992,1.292,44.983,167.48,-192.81, , , , , , ,71.801,28.043,-102.469
 09:21:05.092,eb:33:2e:f9:57:b5, 2015-01-01 00:12:58.885,1.231,-1.969,0.917,25.208,146.545,-201.965, , , , , , ,72.169,29.218,-102.003
 09:21:05.092,eb:33:2e:f9:57:b5, 2015-01-01 00:12:58.885,1.138,-1.975,0.734,4.395,119.69,-208.557, , , , , , ,72.411,30.399,-101.646
 09:21:05.092,eb:33:2e:f9:57:b5, 2015-01-01 00:12:58.885,1.062,-2.021,0.769,-15.686,94.299,-210.632, , , , , , ,72.477,31.558,-101.415
 09:21:05.092,eb:33:2e:f9:57:b5, 2015-01-01 00:12:58.885,0.935,-2.095,0.987,-33.813,78.308,-207.275, , , , , , ,72.394,32.684,-101.321
 09:21:05.092,eb:33:2e:f9:57:b5, 2015-01-01 00:12:58.885,0.813,-2.175,1.184,-50.659,72.937,-196.96, , , , , , ,72.169,33.75,-101.294
 09:21:05.092,eb:33:2e:f9:57:b5, 2015-01-01 00:12:58.885,0.714,-2.237,1.332,-66.956,75.378,-180.908, , , , , , ,71.906,34.761,-101.223
 09:21:05.204,eb:33:2e:f9:57:b5, 2015-01-01 00:12:58.885,1.444,-2.232,1.357,-83.801,80.994,-160.4, , , , , , ,71.598,35.684,-101.063
 09:21:05.204,eb:33:2e:f9:57:b5, 2015-01-01 00:12:58.885,1.536,0.292,1.003,-474.915,-217.102,18.066, , , , , , ,38.716,26.164,-101.371
 09:21:05.204,eb:33:2e:f9:57:b5, 2015-01-01 00:12:58.885,1.619,0.195,1.093,-475.525,-259.277,15.808, , , , , , ,35.964,25.126,-102.156
 09:21:05.204,eb:33:2e:f9:57:b5, 2015-01-01 00:12:58.885,1.619,0.051,1.283,-468.018,-299.927,13.245, , , , , , ,33.267,23.917,-102.98
 09:21:05.204,eb:33:2e:f9:57:b5, 2015-01-01 00:12:58.885,1.587,-0.046,1.478,-456.36,-336.975,9.46, , , , , , ,30.613,22.516,-103.843
 09:21:05.204,eb:33:2e:f9:57:b5, 2015-01-01 00:12:58.885,1.535,-0.04,1.705,-443.726,-367.798,1.526, , , , , , ,28.026,20.951,-104.76
 09:21:05.205,eb:33:2e:f9:57:b5, 2015-01-01 00:12:58.885,1.423,0.006,2.001,-430.481,-390.503,-10.254, , , , , , ,25.477,19.232,-105.738
 09:21:05.205,eb:33:2e:f9:57:b5, 2015-01-01 00:12:58.885,1.347,0.047,2.276,-417.542,-406.799,-25.024, , , , , , ,23.06,17.441,-106.699
 09:21:05.205,eb:33:2e:f9:57:b5, 2015-01-01 00:12:58.885,1.176,0.072,2.513,-406.799,-416.565,-39.551, , , , , , ,20.726,15.584,-107.655
 09:21:05.205,eb:33:2e:f9:57:b5, 2015-01-01 00:12:58.885,0.915,0.099,2.663,-399.841,-424.927,-53.162, , , , , , ,18.474,13.678,-108.622
 09:21:05.205,eb:33:2e:f9:57:b5, 2015-01-01 00:12:58.885,0.562,0.12,2.759,-397.888,-432.8,-62.805, , , , , , ,16.227,11.684,-109.6
 09:21:05.205,eb:33:2e:f9:57:b5, 2015-01-01 00:12:58.885,0.156,0.123,2.876,-400.879,-438.965,-64.392, , , , , , ,14.062,9.657,-110.495
 09:21:05.205,eb:33:2e:f9:57:b5, 2015-01-01 00:12:58.885,-0.258,0.113,3.088,-405.884,-440.308,-55.908, , , , , , ,11.92,7.581,-111.286
 09:21:05.205,eb:33:2e:f9:57:b5, 2015-01-01 00:12:58.885,-0.668,0.106,3.336,-409.912,-438.782,-34.79, , , , , , ,9.805,5.46,-111.923
 09:21:05.205,eb:33:2e:f9:57:b5, 2015-01-01 00:12:58.885,-0.992,0.12,3.554,-413.147,-436.462,-1.038, , , , , , ,7.668,3.274,-112.357
 09:21:05.205,eb:33:2e:f9:57:b5, 2015-01-01 00:12:58.885,-1.149,0.12,3.785,-414.856,-430.481,43.213, , , , , , ,5.587,1.104,-112.484
 09:21:05.205,eb:33:2e:f9:57:b5, 2015-01-01 00:12:58.885,-0.393,0.138,4.035,-414.307,-417.358,93.75, , , , , , ,3.516,-1.027,-112.28
 09:21:05.206,eb:33:2e:f9:57:b5, 2015-01-01 00:12:58.885,-0.423,-0.13,1.424,64.27,31.067,-11.292, , , , , , ,2.455,1.214,-99.371
 09:21:05.206,eb:33:2e:f9:57:b5, 2015-01-01 00:12:58.885,-0.174,0.079,1.011,62.561,10.62,0.061, , , , , , ,2.796,1.324,-99.382
 09:21:05.206,eb:33:2e:f9:57:b5, 2015-01-01 00:12:58.885,-0.429,-0.11,1.601,74.097,-5.371,9.521, , , , , , ,3.137,1.318,-99.355
 09:21:05.206,eb:33:2e:f9:57:b5, 2015-01-01 00:12:58.885,-0.619,-0.337,1.762,109.619,-55.786,43.457, , , , , , ,3.604,1.159,-99.229
 09:21:05.206,eb:33:2e:f9:57:b5, 2015-01-01 00:12:58.885,-0.797,-0.323,2.089,133.118,-79.773,68.848, , , , , , ,4.23,0.764,-98.959
 09:21:05.206,eb:33:2e:f9:57:b5, 2015-01-01 00:12:58.885,-0.648,-0.595,2.664,162.903,-100.952,91.919, , , , , , ,5.004,0.291,-98.575
 09:21:05.206,eb:33:2e:f9:57:b5, 2015-01-01 00:12:58.885,-0.121,-0.604,3.328,206.482,-132.874,97.839, , , , , , ,5.955,-0.346,-98.152
 09:21:05.208,eb:33:2e:f9:57:b5, 2015-01-01 00:12:58.885,-0.134,-0.695,4.574,252.319,-153.137,88.623, , , , , , ,7.108,-1.132,-97.778
 09:21:05.208,eb:33:2e:f9:57:b5, 2015-01-01 00:12:58.885,0.417,-1.151,4.725,315.979,-160.339,84.595, , , , , , ,8.553,-1.967,-97.46
 09:21:05.208,eb:33:2e:f9:57:b5, 2015-01-01 00:12:58.885,1.132,-1.318,4.951,376.282,-144.592,77.881, , , , , , ,10.327,-2.78,-97.185
 09:21:05.208,eb:33:2e:f9:57:b5, 2015-01-01 00:12:58.885,1.009,-1.441,4.75,446.167,-93.994,67.932, , , , , , ,12.404,-3.411,-96.938
 09:21:05.208,eb:33:2e:f9:57:b5, 2015-01-01 00:12:58.885,1.405,-1.18,4.192,505.005,-64.758,39.734, , , , , , ,14.815,-3.834,-96.773
 09:21:05.208,eb:33:2e:f9:57:b5, 2015-01-01 00:12:58.885,1.282,-1.174,4.498,556.03,-38.33,4.822, , , , , , ,17.485,-4.103,-96.751
 09:21:05.208,eb:33:2e:f9:57:b5, 2015-01-01 00:12:58.885,1.072,-1.202,4.017,596.924,-22.095,-35.034, , , , , , ,20.424,-4.191,-96.883
 09:21:05.208,eb:33:2e:f9:57:b5, 2015-01-01 00:12:58.885,0.761,-1.027,4.201,616.15,-14.709,-67.078, , , , , , ,23.489,-4.164,-97.169
 09:21:05.428,eb:33:2e:f9:57:b5, 2015-01-01 00:13:34.105,1.048,-1.203,4.099,640.869,-4.578,-92.834, , , , , , ,26.675,-4.026,-97.57
 09:21:05.428,eb:33:2e:f9:57:b5, 2015-01-01 00:13:34.105,1.793,-0.321,-0.375,377.747,183.594,-49.561, , , , , , ,54.157,3.763,-96.641
 09:21:05.428,eb:33:2e:f9:57:b5, 2015-01-01 00:13:34.105,1.6,0.243,-1.814,282.898,174.377,-87.769, , , , , , ,55.772,4.592,-96.103
 09:21:05.428,eb:33:2e:f9:57:b5, 2015-01-01 00:13:34.105,1.07,1.265,-2.39,234.009,80.75,-124.023, , , , , , ,57.074,5.372,-95.894
 09:21:05.428,eb:33:2e:f9:57:b5, 2015-01-01 00:13:34.105,1.087,1.325,-0.513,164.795,-3.784,-170.044, , , , , , ,57.997,6.092,-96.163
 09:21:05.429,eb:33:2e:f9:57:b5, 2015-01-01 00:13:34.105,1.055,0.087,1.883,126.343,-36.377,-205.017, , , , , , ,58.618,6.828,-96.817
 09:21:05.429,eb:33:2e:f9:57:b5, 2015-01-01 00:13:34.105,0.81,-0.938,3.201,118.835,3.723,-223.755, , , , , , ,59.134,7.718,-97.443
 09:21:05.429,eb:33:2e:f9:57:b5, 2015-01-01 00:13:34.105,0.696,-1.478,3.4,141.113,41.016,-233.154, , , , , , ,59.722,8.778,-97.921
 09:21:05.429,eb:33:2e:f9:57:b5, 2015-01-01 00:13:34.105,0.401,-1.536,3.103,158.508,66.162,-235.962, , , , , , ,60.43,9.943,-98.24
 09:21:05.429,eb:33:2e:f9:57:b5, 2015-01-01 00:13:34.105,0.308,-1.516,2.332,155.64,67.2,-231.445, , , , , , ,61.172,11.129,-98.52
 09:21:05.429,eb:33:2e:f9:57:b5, 2015-01-01 00:13:34.105,0.324,-1.72,1.9,142.944,54.626,-223.145, , , , , , ,61.848,12.272,-98.806
 09:21:05.429,eb:33:2e:f9:57:b5, 2015-01-01 00:13:34.105,0.307,-1.996,1.921,128.052,43.701,-211.426, , , , , , ,62.452,13.343,-99.113
 09:21:05.429,eb:33:2e:f9:57:b5, 2015-01-01 00:13:34.105,0.3,-2.236,2.104,106.934,45.532,-193.97, , , , , , ,62.963,14.337,-99.371
 09:21:05.430,eb:33:2e:f9:57:b5, 2015-01-01 00:13:34.105,0.355,-2.484,2.306,83.374,61.401,-171.875, , , , , , ,63.386,15.266,-99.542
 09:21:05.430,eb:33:2e:f9:57:b5, 2015-01-01 00:13:34.105,0.433,-2.625,2.381,61.646,80.444,-148.926, , , , , , ,63.715,16.133,-99.58
 09:21:05.430,eb:33:2e:f9:57:b5, 2015-01-01 00:13:34.105,0.481,-2.571,2.254,40.71,93.506,-128.723, , , , , , ,63.99,16.946,-99.481
 09:21:05.432,eb:33:2e:f9:57:b5, 2015-01-01 00:13:34.105,0.53,-2.403,2.011,19.836,98.022,-112.244, , , , , , ,64.182,17.688,-99.272
 09:21:05.432,eb:33:2e:f9:57:b5, 2015-01-01 00:13:34.105,0.609,-2.186,1.809,0.61,95.093,-100.281, , , , , , ,64.292,18.369,-99.058
 09:21:05.432,eb:33:2e:f9:57:b5, 2015-01-01 00:13:34.105,0.79,-1.974,1.764,-14.282,87.646,-94.421, , , , , , ,64.292,19.001,-98.86
 09:21:05.432,eb:33:2e:f9:57:b5, 2015-01-01 00:13:34.105,1.031,-1.854,1.959,-23.438,84.29,-95.886, , , , , , ,64.254,19.616,-98.674
 09:21:05.432,eb:33:2e:f9:57:b5, 2015-01-01 00:13:34.105,1.238,-1.853,2.223,-27.527,88.318,-103.882, , , , , , ,64.182,20.253,-98.47
 09:21:05.432,eb:33:2e:f9:57:b5, 2015-01-01 00:13:34.105,1.412,-1.916,2.341,-29.785,96.436,-116.455, , , , , , ,64.105,20.956,-98.284
 09:21:05.432,eb:33:2e:f9:57:b5, 2015-01-01 00:13:34.105,1.511,-2.002,2.33,-33.447,105.896,-130.737, , , , , , ,63.99,21.742,-98.108
 09:21:05.432,eb:33:2e:f9:57:b5, 2015-01-01 00:13:34.105,1.493,-2.087,2.215,-40.1,112.732,-145.02, , , , , , ,63.88,22.61,-97.905
 09:21:05.609,eb:33:2e:f9:57:b5, 2015-01-01 00:13:34.105,1.424,-2.148,1.987,-50.72,111.145,-156.677, , , , , , ,63.721,23.538,-97.701
 09:21:05.610,eb:33:2e:f9:57:b5, 2015-01-01 00:13:34.105,1.272,-2.186,1.772,-66.101,102.905,-163.33, , , , , , ,63.474,24.5,-97.575
 09:21:05.610,eb:33:2e:f9:57:b5, 2015-01-01 00:13:34.105,1.073,-2.233,1.642,-84.961,90.088,-163.757, , , , , , ,63.078,25.444,-97.537
 09:21:05.610,eb:33:2e:f9:57:b5, 2015-01-01 00:13:34.105,0.874,-2.284,1.631,-105.652,76.416,-155.945, , , , , , ,62.589,26.345,-97.537
 09:21:05.610,eb:33:2e:f9:57:b5, 2015-01-01 00:13:34.105,0.7,-2.325,1.718,-126.038,66.101,-139.893, , , , , , ,61.985,27.153,-97.553
 09:21:05.610,eb:33:2e:f9:57:b5, 2015-01-01 00:13:34.105,0.54,-2.331,1.842,-144.653,60.608,-117.249, , , , , , ,61.282,27.861,-97.586
 09:21:05.610,eb:33:2e:f9:57:b5, 2015-01-01 00:13:34.105,0.451,-2.307,1.936,-159.241,57.434,-88.745, , , , , , ,60.48,28.444,-97.608
 09:21:05.610,eb:33:2e:f9:57:b5, 2015-01-01 00:13:34.105,0.415,-2.236,2.006,-169.067,53.162,-57.19, , , , , , ,59.683,28.883,-97.537
 09:21:05.612,eb:33:2e:f9:57:b5, 2015-01-01 00:13:34.105,0.484,-2.152,2.025,-173.584,44.373,-24.658, , , , , , ,58.881,29.169,-97.388
 09:21:05.612,eb:33:2e:f9:57:b5, 2015-01-01 00:13:34.105,0.616,0.091,1.721,-315.43,-154.785,141.296, , , , , , ,48.84,23.533,-97.427
 09:21:05.612,eb:33:2e:f9:57:b5, 2015-01-01 00:13:34.105,0.738,0.452,1.643,-338.623,-165.161,120.483, , , , , , ,47.071,22.511,-97.652
 09:21:05.612,eb:33:2e:f9:57:b5, 2015-01-01 00:13:34.105,0.858,0.728,1.633,-358.459,-176.208,92.651, , , , , , ,45.209,21.539,-97.932
 09:21:05.612,eb:33:2e:f9:57:b5, 2015-01-01 00:13:34.105,0.956,0.92,1.697,-375.977,-181.641,59.143, , , , , , ,43.22,20.638,-98.311
 09:21:05.612,eb:33:2e:f9:57:b5, 2015-01-01 00:13:34.105,0.997,1.061,1.793,-394.348,-177.185,22.705, , , , , , ,41.116,19.847,-98.811
 09:21:05.612,eb:33:2e:f9:57:b5, 2015-01-01 00:13:34.105,1.007,1.18,1.912,-412.842,-164.612,-15.564, , , , , , ,38.842,19.188,-99.432
 09:21:05.612,eb:33:2e:f9:57:b5, 2015-01-01 00:13:34.105,1.001,1.256,2.038,-428.589,-146.912,-55.176, , , , , , ,36.513,18.693,-100.096
 09:21:05.612,eb:33:2e:f9:57:b5, 2015-01-01 00:13:34.105,0.873,1.235,2.047,-441.589,-129.028,-93.994, , , , , , ,34.085,18.364,-100.844
 09:21:05.612,eb:33:2e:f9:57:b5, 2015-01-01 00:13:34.105,0.812,1.143,1.847,-453.247,-119.873,-127.869, , , , , , ,31.575,18.16,-101.7
 09:21:05.613,eb:33:2e:f9:57:b5, 2015-01-01 00:13:34.105,0.866,0.995,1.791,-460.815,-118.286,-156.128, , , , , , ,28.927,18.001,-102.711
 09:21:05.613,eb:33:2e:f9:57:b5, 2015-01-01 00:13:34.105,0.892,0.859,1.817,-462.341,-121.643,-179.199, , , , , , ,26.285,17.864,-103.799
 09:21:05.613,eb:33:2e:f9:57:b5, 2015-01-01 00:13:34.105,0.775,0.757,1.724,-458.557,-132.507,-196.594, , , , , , ,23.615,17.682,-104.98
 09:21:05.613,eb:33:2e:f9:57:b5, 2015-01-01 00:13:34.105,0.605,0.675,1.471,-450.928,-157.166,-206.299, , , , , , ,20.956,17.391,-106.254
 09:21:05.613,eb:33:2e:f9:57:b5, 2015-01-01 00:13:34.105,0.509,0.583,1.376,-438.843,-188.782,-207.52, , , , , , ,18.292,16.886,-107.622
 09:21:05.613,eb:33:2e:f9:57:b5, 2015-01-01 00:13:34.105,0.406,0.444,1.529,-420.227,-217.59,-200.256, , , , , , ,15.771,16.199,-108.951
 09:21:05.613,eb:33:2e:f9:57:b5, 2015-01-01 00:13:34.105,0.207,0.297,1.665,-396.667,-242.981,-184.082, , , , , , ,13.398,15.309,-110.215
 09:21:05.613,eb:33:2e:f9:57:b5, 2015-01-01 00:13:34.105,0.028,0.119,1.736,-372.131,-263.672,-157.898, , , , , , ,11.195,14.238,-111.346
 09:21:05.613,eb:33:2e:f9:57:b5, 2015-01-01 00:13:34.105,-0.099,-0.058,1.784,-348.511,-279.48,-123.962, , , , , , ,9.135,12.986,-112.324
 09:21:05.613,eb:33:2e:f9:57:b5, 2015-01-01 00:13:34.105,-0.203,-0.207,1.769,-324.829,-293.396,-84.412, , , , , , ,7.311,11.635,-113.044
 09:21:05.614,eb:33:2e:f9:57:b5, 2015-01-01 00:13:34.105,-0.291,-0.283,1.683,-300.903,-309.937,-40.955, , , , , , ,5.663,10.162,-113.505
 09:21:05.614,eb:33:2e:f9:57:b5, 2015-01-01 00:13:34.105,-0.358,-0.286,1.631,-278.198,-330.75,4.028, , , , , , ,4.197,8.558,-113.719
 09:21:05.614,eb:33:2e:f9:57:b5, 2015-01-01 00:13:34.105,-0.392,-0.229,1.645,-258.911,-354.309,49.438, , , , , , ,2.823,6.801,-113.687
 09:21:05.614,eb:33:2e:f9:57:b5, 2015-01-01 00:13:34.105,-0.43,-0.095,1.692,-248.047,-378.723,92.712, , , , , , ,1.599,4.944,-113.379
 09:21:05.616,eb:33:2e:f9:57:b5, 2015-01-01 00:13:34.105,-0.428,0.073,1.734,-248.779,-403.931,133.118, , , , , , ,0.396,2.961,-112.819
 09:21:05.616,eb:33:2e:f9:57:b5, 2015-01-01 00:13:34.105,-0.382,0.219,1.862,-261.047,-422.607,169.922, , , , , , ,-0.851,0.884,-112.033
 09:21:05.616,eb:33:2e:f9:57:b5, 2015-01-01 00:13:34.105,-0.381,0.358,2.085,-278.87,-431.885,200.195, , , , , , ,-2.258,-1.252,-111.05
 09:21:05.616,eb:33:2e:f9:57:b5, 2015-01-01 00:13:34.105,-0.447,0.585,2.173,-296.814,-440.491,223.267, , , , , , ,-3.757,-3.378,-109.863
 09:21:05.616,eb:33:2e:f9:57:b5, 2015-01-01 00:13:34.105,-0.469,0.975,2.024,-314.697,-459.045,238.464, , , , , , ,-5.4,-5.537,-108.517
 09:21:05.616,eb:33:2e:f9:57:b5, 2015-01-01 00:13:34.105,-0.469,1.415,1.911,-330.078,-489.624,245.728, , , , , , ,-7.196,-7.773,-107.034
 09:21:05.616,eb:33:2e:f9:57:b5, 2015-01-01 00:13:34.105,-0.5,1.769,2.05,-336.365,-517.029,245.85, , , , , , ,-9.163,-10.129,-105.447
 09:21:05.616,eb:33:2e:f9:57:b5, 2015-01-01 00:13:34.105,-0.569,2.076,2.404,-333.74,-532.288,241.577, , , , , , ,-11.173,-12.513,-103.749
 09:21:05.810,eb:33:2e:f9:57:b5, 2015-01-01 00:13:34.105,-0.326,2.338,2.893,-325.134,-529.114,235.596, , , , , , ,-13.239,-14.859,-101.981
 09:21:05.810,eb:33:2e:f9:57:b5, 2015-01-01 00:13:34.105,-0.431,5.237,3.153,-195.618,-25.879,19.775, , , , , , ,-28.817,-22.797,-90.742
 09:21:05.810,eb:33:2e:f9:57:b5, 2015-01-01 00:13:34.105,-0.629,5.147,2.918,-176.941,-8.423,-18.921, , , , , , ,-29.762,-22.879,-90.714
 09:21:05.810,eb:33:2e:f9:57:b5, 2015-01-01 00:13:34.105,-0.856,4.93,2.71,-154.297,9.888,-48.218, , , , , , ,-30.509,-22.961,-90.895
 09:21:05.810,eb:33:2e:f9:57:b5, 2015-01-01 00:13:34.105,-1.073,4.646,2.438,-127.319,25.879,-67.444, , , , , , ,-31.069,-23.033,-91.258
 09:21:05.810,eb:33:2e:f9:57:b5, 2015-01-01 00:13:34.105,-1.241,4.352,2.06,-96.863,31.433,-77.454, , , , , , ,-31.448,-23.099,-91.686
 09:21:05.810,eb:33:2e:f9:57:b5, 2015-01-01 00:13:34.105,-1.35,4.068,1.673,-64.27,23.56,-79.224, , , , , , ,-31.663,-23.187,-92.131
 09:21:05.810,eb:33:2e:f9:57:b5, 2015-01-01 00:13:34.105,-1.422,3.812,1.413,-29.724,6.104,-73.914, , , , , , ,-31.729,-23.329,-92.521
 09:21:05.833,eb:33:2e:f9:57:b5, 2015-01-01 00:13:34.105,-1.487,3.594,1.339,6.348,-13.977,-63.416, , , , , , ,-31.652,-23.533,-92.84
 09:21:05.833,eb:33:2e:f9:57:b5, 2015-01-01 00:13:34.105,-1.561,3.397,1.405,42.236,-29.541,-50.11, , , , , , ,-31.437,-23.785,-93.027
 09:21:05.833,eb:33:2e:f9:57:b5, 2015-01-01 00:13:34.105,-1.615,3.185,1.511,75.684,-37.17,-35.156, , , , , , ,-31.08,-24.038,-93.126
 09:21:05.833,eb:33:2e:f9:57:b5, 2015-01-01 00:13:34.105,-1.639,2.941,1.601,104.126,-36.133,-19.653, , , , , , ,-30.608,-24.269,-93.142
 09:21:05.833,eb:33:2e:f9:57:b5, 2015-01-01 00:13:34.105,-1.663,2.667,1.672,128.906,-27.71,-3.723, , , , , , ,-30.026,-24.428,-93.12
 09:21:05.833,eb:33:2e:f9:57:b5, 2015-01-01 00:13:34.105,-1.666,2.399,1.683,151.855,-16.785,11.536, , , , , , ,-29.35,-24.51,-93.032
 09:21:05.833,eb:33:2e:f9:57:b5, 2015-01-01 00:13:34.105,-1.637,2.156,1.623,173.828,-6.47,24.719, , , , , , ,-28.559,-24.5,-92.917
 09:21:05.833,eb:33:2e:f9:57:b5, 2015-01-01 00:13:34.105,-1.623,1.913,1.483,194.763,1.404,34.79, , , , , , ,-27.691,-24.439,-92.758
 09:21:05.835,eb:33:2e:f9:57:b5, 2015-01-01 00:13:34.105,-1.638,1.615,1.294,213.562,6.531,42.419, , , , , , ,-26.735,-24.324,-92.593
 09:21:05.835,eb:33:2e:f9:57:b5, 2015-01-01 00:13:34.105,3.178,1.217,1.074,227.295,12.512,49.561, , , , , , ,-25.708,-24.181,-92.39
 09:21:05.835,eb:33:2e:f9:57:b5, 2015-01-01 00:13:34.105,-0.745,3.553,5.147,546.814,-239.258,-258.85, , , , , , ,-23.752,-24.884,-92.571
 09:21:05.835,eb:33:2e:f9:57:b5, 2015-01-01 00:13:34.105,6.809,8.93,-1.691,719.788,270.63,-369.141, , , , , , ,-19.303,-24.252,-94.702
 09:21:05.835,eb:33:2e:f9:57:b5, 2015-01-01 00:13:34.105,1.908,4.432,2.842,616.028,353.21,-589.844, , , , , , ,-14.683,-23.719,-97.949
 09:21:05.835,eb:33:2e:f9:57:b5, 2015-01-01 00:13:34.655,0.221,2.98,5.091,594.971,488.77,-387.329, , , , , , ,-10.459,-22.115,-101.124
 09:21:05.835,eb:33:2e:f9:57:b5, 2015-01-01 00:13:34.655,-1.257,3.338,5.111,421.082,562.317,-232.788, , , , , , ,-7.224,-19.709,-103.167
 09:21:05.835,eb:33:2e:f9:57:b5, 2015-01-01 00:13:34.655,0.812,0.915,4.801,264.526,643.311,-23.56, , , , , , ,-5.35,-16.738,-104.134
 09:21:05.837,eb:33:2e:f9:57:b5, 2015-01-01 00:13:34.655,-1.004,0.042,3.919,210.754,669.434,61.951, , , , , , ,-4.18,-13.337,-104.139
 09:21:05.837,eb:33:2e:f9:57:b5, 2015-01-01 00:13:34.655,-2.643,1.357,-0.336,120.422,456.909,31.067, , , , , , ,-3.433,-10.613,-104.134
 09:21:05.837,eb:33:2e:f9:57:b5, 2015-01-01 00:13:34.655,-1.306,-0.19,0.108,128.479,373.352,8.972, , , , , , ,-2.774,-8.668,-104.145
 09:21:05.837,eb:33:2e:f9:57:b5, 2015-01-01 00:13:34.655,1.14,-0.811,-0.482,172.974,215.454,-10.986, , , , , , ,-1.994,-7.218,-104.222
 09:21:05.837,eb:33:2e:f9:57:b5, 2015-01-01 00:13:34.655,-0.099,0.87,1.243,147.522,244.08,-41.382, , , , , , ,-1.159,-6.103,-104.414
 09:21:05.837,eb:33:2e:f9:57:b5, 2015-01-01 00:13:34.655,-0.38,0.571,0.684,120.483,239.197,-22.156, , , , , , ,-0.494,-4.856,-104.584
 09:21:05.837,eb:33:2e:f9:57:b5, 2015-01-01 00:13:34.655,0.276,0.658,-0.034,93.201,173.401,-31.677, , , , , , ,0.06,-3.845,-104.727
 09:21:05.837,eb:33:2e:f9:57:b5, 2015-01-01 00:13:34.655,-0.253,0.654,0.636,76.66,158.264,-39.795, , , , , , ,0.489,-3.082,-104.903
 09:21:05.878,eb:33:2e:f9:57:b5, 2015-01-01 00:13:34.655,-0.189,0.346,0.814,59.753,176.514,-38.33, , , , , , ,0.824,-2.186,-105.101
 09:21:05.878,eb:33:2e:f9:57:b5, 2015-01-01 00:13:34.655,-0.127,0.057,1.189,63.171,58.289,-12.146, , , , , , ,3.939,2.384,-105.727
 09:21:05.878,eb:33:2e:f9:57:b5, 2015-01-01 00:13:34.655,-0.271,0.24,0.807,77.209,1.099,-8.057, , , , , , ,4.318,2.532,-105.76
 09:21:05.878,eb:33:2e:f9:57:b5, 2015-01-01 00:13:34.655,-0.497,-0.193,2.229,88.44,-24.353,7.263, , , , , , ,4.741,2.45,-105.765
 09:21:05.878,eb:33:2e:f9:57:b5, 2015-01-01 00:13:34.655,-1.087,-0.373,3.174,115.173,-25.94,27.1, , , , , , ,5.257,2.324,-105.683
 09:21:05.878,eb:33:2e:f9:57:b5, 2015-01-01 00:13:34.655,-0.929,-1.252,4.933,175.049,-35.095,54.626, , , , , , ,6.01,2.131,-105.48
 09:21:05.878,eb:33:2e:f9:57:b5, 2015-01-01 00:13:34.655,-0.334,-1.413,5.396,253.845,-47.363,67.993, , , , , , ,7.152,1.901,-105.178
 09:21:05.878,eb:33:2e:f9:57:b5, 2015-01-01 00:13:34.655,0.558,-1.335,5.282,329.773,-56.03,69.397, , , , , , ,8.668,1.588,-104.87
 09:21:05.968,eb:33:2e:f9:57:b5, 2015-01-01 00:13:34.655,1.022,-1.486,5.172,402.039,-44.922,65.796, , , , , , ,10.53,1.274,-104.584
 09:21:05.968,eb:33:2e:f9:57:b5, 2015-01-01 00:13:34.655,1.377,-1.578,4.896,477.478,-18.188,59.753, , , , , , ,12.777,1.06,-104.304
 09:21:05.968,eb:33:2e:f9:57:b5, 2015-01-01 00:13:34.655,1.293,-1.682,5.335,537.903,12.939,39.49, , , , , , ,15.37,1.022,-104.068
 09:21:05.968,eb:33:2e:f9:57:b5, 2015-01-01 00:13:34.655,1.188,-1.938,5.209,606.75,47.668,13.977, , , , , , ,18.276,1.154,-103.892
 09:21:05.968,eb:33:2e:f9:57:b5, 2015-01-01 00:13:34.655,1.049,-1.376,5.049,642.273,68.604,-17.151, , , , , , ,21.44,1.456,-103.804
 09:21:05.968,eb:33:2e:f9:57:b5, 2015-01-01 00:13:34.655,0.682,-1.419,4.916,680.786,92.773,-46.326, , , , , , ,24.752,1.879,-103.81
 09:21:05.968,eb:33:2e:f9:57:b5, 2015-01-01 00:13:34.655,0.97,-1.624,4.445,708.74,70.496,-80.261, , , , , , ,28.257,2.384,-103.925
 09:21:05.968,eb:33:2e:f9:57:b5, 2015-01-01 00:13:34.655,1.179,-1.727,4.623,740.845,64.636,-99.487, , , , , , ,31.888,2.895,-104.178
 09:21:05.971,eb:33:2e:f9:57:b5, 2015-01-01 00:13:34.655,1.032,-2.278,4.065,762.878,83.679,-116.699, , , , , , ,35.651,3.549,-104.387
 09:21:05.971,eb:33:2e:f9:57:b5, 2015-01-01 00:13:34.655,1.006,-1.112,4.106,776.978,63.66,-141.357, , , , , , ,39.49,4.235,-104.678
 09:21:05.971,eb:33:2e:f9:57:b5, 2015-01-01 00:13:34.655,-0.038,-0.362,4.448,757.141,26.855,-162.842, , , , , , ,43.308,4.867,-105.145
 09:21:05.971,eb:33:2e:f9:57:b5, 2015-01-01 00:13:34.655,-0.521,0.915,5.825,704.407,63.904,-158.447, , , , , , ,46.901,5.647,-105.562
 09:21:05.971,eb:33:2e:f9:57:b5, 2015-01-01 00:13:34.655,-1.28,-0.231,4.747,632.935,151.123,-114.563, , , , , , ,50.213,6.526,-105.535
 09:21:05.971,eb:33:2e:f9:57:b5, 2015-01-01 00:13:34.655,-0.257,0.38,0.324,483.398,167.419,-57.312, , , , , , ,53.058,7.333,-105.172
 09:21:05.971,eb:33:2e:f9:57:b5, 2015-01-01 00:13:34.655,0.2,-0.886,-1.225,290.71,247.62,15.503, , , , , , ,54.987,8.031,-104.343
 09:21:05.971,eb:33:2e:f9:57:b5, 2015-01-01 00:13:34.655,0.146,-0.741,-1.503,247.62,302.979,71.106, , , , , , ,56.464,8.646,-102.986
 09:21:05.974,eb:33:2e:f9:57:b5, 2015-01-01 00:13:34.655,0.542,1.327,-0.668,188.904,253.357,95.886, , , , , , ,57.761,9.02,-101.547
 09:21:05.974,eb:33:2e:f9:57:b5, 2015-01-01 00:13:34.655,1.013,1.645,0.686,152.405,174.377,99.487, , , , , , ,58.749,9.146,-100.404
 09:21:05.974,eb:33:2e:f9:57:b5, 2015-01-01 00:13:34.655,1.115,0.953,2.22,164.917,127.075,94.299, , , , , , ,59.678,9.102,-99.525
 09:21:05.974,eb:33:2e:f9:57:b5, 2015-01-01 00:13:34.655,1.282,0.322,2.767,210.999,104.187,70.74, , , , , , ,60.738,9.025,-98.828
 09:21:05.974,eb:33:2e:f9:57:b5, 2015-01-01 00:13:34.655,1.415,0.394,2.978,273.621,78.064,37.231, , , , , , ,62.062,9.014,-98.295
 09:21:05.974,eb:33:2e:f9:57:b5, 2015-01-01 00:13:34.655,1.131,0.491,3.205,314.27,62.317,0.549, , , , , , ,63.616,9.102,-97.949
 09:21:05.974,eb:33:2e:f9:57:b5, 2015-01-01 00:13:34.655,1.043,0.265,3.037,322.632,45.044,-32.898, , , , , , ,65.259,9.311,-97.762
 09:21:05.974,eb:33:2e:f9:57:b5, 2015-01-01 00:13:34.655,1.097,-0.304,3.034,311.584,37.048,-64.514, , , , , , ,66.852,9.63,-97.69
 09:21:06.035,eb:33:2e:f9:57:b5, 2015-01-01 00:13:34.655,1.146,-0.988,3.181,294.128,39.246,-93.994, , , , , , ,68.362,10.08,-97.652
 09:21:06.035,eb:33:2e:f9:57:b5, 2015-01-01 00:13:34.655,1.208,-1.633,3.311,270.874,54.626,-119.08, , , , , , ,69.769,10.673,-97.625
 09:21:06.035,eb:33:2e:f9:57:b5, 2015-01-01 00:13:34.655,1.287,-2.134,3.343,242.615,77.881,-141.113, , , , , , ,71.049,11.42,-97.531
 09:21:06.035,eb:33:2e:f9:57:b5, 2015-01-01 00:13:34.655,1.401,-2.468,3.222,213.989,97.595,-163.025, , , , , , ,72.213,12.294,-97.344
 09:21:06.035,eb:33:2e:f9:57:b5, 2015-01-01 00:13:34.655,1.398,-2.616,2.971,183.96,110.168,-185.059, , , , , , ,73.251,13.293,-97.07
 09:21:06.035,eb:33:2e:f9:57:b5, 2015-01-01 00:13:34.655,1.265,-2.619,2.553,149.963,109.985,-206.665, , , , , , ,74.13,14.398,-96.806
 09:21:06.035,eb:33:2e:f9:57:b5, 2015-01-01 00:13:34.655,1.197,-2.535,2.081,112.122,97.961,-226.013, , , , , , ,74.806,15.59,-96.603
 09:21:06.035,eb:33:2e:f9:57:b5, 2015-01-01 00:13:34.655,1.325,-2.51,1.904,73.914,85.754,-242.249, , , , , , ,75.289,16.848,-96.471
 09:21:06.081,eb:33:2e:f9:57:b5, 2015-01-01 00:13:34.655,1.523,-2.642,2.141,41.138,85.754,-256.714, , , , , , ,75.586,18.171,-96.345
 09:21:06.081,eb:33:2e:f9:57:b5, 2015-01-01 00:13:34.655,1.602,-2.904,2.482,17.09,99.365,-269.165, , , , , , ,75.756,19.567,-96.218
 09:21:06.081,eb:33:2e:f9:57:b5, 2015-01-01 00:13:34.655,1.575,-3.172,2.538,-1.221,115.845,-278.748, , , , , , ,75.833,21.033,-96.031
 09:21:06.082,eb:33:2e:f9:57:b5, 2015-01-01 00:13:34.655,1.482,-3.329,2.29,-19.104,126.892,-283.752, , , , , , ,75.877,22.555,-95.757
 09:21:06.082,eb:33:2e:f9:57:b5, 2015-01-01 00:13:34.655,1.342,-3.336,1.909,-38.574,125.549,-283.997, , , , , , ,75.839,24.088,-95.438
 09:21:06.082,eb:33:2e:f9:57:b5, 2015-01-01 00:13:34.655,1.185,-3.217,1.616,-60.242,113.586,-278.32, , , , , , ,75.685,25.593,-95.186
 09:21:06.082,eb:33:2e:f9:57:b5, 2015-01-01 00:13:34.655,0.964,-3.029,1.529,-85.571,98.389,-265.564, , , , , , ,75.361,27.037,-95.026
 09:21:06.082,eb:33:2e:f9:57:b5, 2015-01-01 00:13:34.655,0.749,-2.858,1.589,-113.098,81.726,-244.263, , , , , , ,74.899,28.378,-94.911
 09:21:06.193,eb:33:2e:f9:57:b5, 2015-01-01 00:13:34.655,0.555,-2.715,1.764,-142.273,69.702,-215.149, , , , , , ,74.279,29.57,-94.828
 09:21:06.193,eb:33:2e:f9:57:b5, 2015-01-01 00:13:34.655,0.462,-2.619,1.996,-170.044,65.796,-179.382, , , , , , ,73.51,30.597,-94.768
 09:21:06.193,eb:33:2e:f9:57:b5, 2015-01-01 00:13:34.655,0.428,-2.537,2.23,-193.542,71.045,-138.367, , , , , , ,72.609,31.437,-94.686
 09:21:06.193,eb:33:2e:f9:57:b5, 2015-01-01 00:13:34.655,0.456,-2.426,2.345,-211.487,78.369,-95.093, , , , , , ,71.697,32.091,-94.466
 09:21:06.193,eb:33:2e:f9:57:b5, 2015-01-01 00:13:34.655,0.512,-2.257,2.299,-224.365,80.322,-51.758, , , , , , ,70.768,32.547,-94.125
 09:21:06.193,eb:33:2e:f9:57:b5, 2015-01-01 00:13:34.655,0.552,-2.056,2.165,-232.483,69.702,-10.925, , , , , , ,69.818,32.8,-93.757
 09:21:06.193,eb:33:2e:f9:57:b5, 2015-01-01 00:13:34.655,0.513,-1.831,1.941,-235.413,37.292,33.63, , , , , , ,68.769,32.822,-93.477
 09:21:06.193,eb:33:2e:f9:57:b5, 2015-01-01 00:13:34.655,0.471,-1.688,1.781,-231.812,-1.831,67.871, , , , , , ,67.709,32.596,-93.279
 09:21:06.237,eb:33:2e:f9:57:b5, 2015-01-01 00:13:34.655,0.509,-1.552,1.694,-226.685,-46.509,98.206, , , , , , ,66.588,32.141,-93.214
 09:21:06.237,eb:33:2e:f9:57:b5, 2015-01-01 00:13:34.655,0.649,-1.386,1.705,-227.417,-86.121,123.901, , , , , , ,65.396,31.476,-93.323
 09:21:06.237,eb:33:2e:f9:57:b5, 2015-01-01 00:13:34.655,0.831,-1.174,1.761,-237.976,-114.136,143.738, , , , , , ,64.072,30.641,-93.576
 09:21:06.237,eb:33:2e:f9:57:b5, 2015-01-01 00:13:34.655,0.963,-0.875,1.8,-258.423,-133.484,156.738, , , , , , ,62.693,29.68,-93.84
 09:21:06.237,eb:33:2e:f9:57:b5, 2015-01-01 00:13:34.655,1.125,-0.502,1.781,-284.363,-148.682,161.011, , , , , , ,61.177,28.636,-94.109
 09:21:06.237,eb:33:2e:f9:57:b5, 2015-01-01 00:13:34.655,1.274,-0.112,1.78,-310.974,-159.973,154.663, , , , , , ,59.524,27.559,-94.438
 09:21:06.237,eb:33:2e:f9:57:b5, 2015-01-01 00:13:34.655,1.403,0.299,1.7,-335.693,-171.143,137.695, , , , , , ,57.667,26.505,-94.856
 09:21:06.237,eb:33:2e:f9:57:b5, 2015-01-01 00:13:34.655,1.55,0.687,1.541,-355.957,-186.768,110.229, , , , , , ,55.723,25.499,-95.323
 09:21:06.240,eb:33:2e:f9:57:b5, 2015-01-01 00:13:34.655,1.675,0.957,1.428,-372.498,-205.322,74.219, , , , , , ,53.635,24.565,-95.911
 09:21:06.240,eb:33:2e:f9:57:b5, 2015-01-01 00:13:34.655,1.761,1.042,1.381,-388.062,-222.656,34.058, , , , , , ,51.405,23.703,-96.685
 09:21:06.240,eb:33:2e:f9:57:b5, 2015-01-01 00:13:34.655,1.757,0.981,1.447,-404.724,-232.91,-5.432, , , , , , ,48.999,22.923,-97.657
 09:21:06.240,eb:33:2e:f9:57:b5, 2015-01-01 00:13:34.655,1.692,0.881,1.62,-422.546,-233.337,-41.626, , , , , , ,46.522,22.236,-98.696
 09:21:06.240,eb:33:2e:f9:57:b5, 2015-01-01 00:13:34.655,1.592,0.748,1.887,-438.416,-223.083,-72.144, , , , , , ,43.945,21.649,-99.783
 09:21:06.240,eb:33:2e:f9:57:b5, 2015-01-01 00:13:34.655,1.411,0.559,2.045,-451.416,-207.092,-96.619, , , , , , ,41.303,21.16,-100.909
 09:21:06.240,eb:33:2e:f9:57:b5, 2015-01-01 00:13:34.655,1.332,0.39,1.856,-463.745,-199.219,-115.417, , , , , , ,38.551,20.715,-102.085
 09:21:06.240,eb:33:2e:f9:57:b5, 2015-01-01 00:13:34.655,1.474,0.287,1.618,-474.487,-205.505,-130.737, , , , , , ,35.782,20.286,-103.266
 09:21:06.260,eb:33:2e:f9:57:b5, 2015-01-01 00:13:34.655,1.555,0.298,1.519,-481.262,-224.182,-146.301, , , , , , ,32.953,19.792,-104.518
 09:21:06.260,eb:33:2e:f9:57:b5, 2015-01-01 00:13:34.655,1.711,0.349,1.409,-476.379,-257.263,-154.297, , , , , , ,30.086,19.155,-105.892
 09:21:06.260,eb:33:2e:f9:57:b5, 2015-01-01 00:13:34.655,1.507,0.483,1.472,-473.267,-268.066,-170.349, , , , , , ,27.202,18.408,-107.325
 09:21:06.260,eb:33:2e:f9:57:b5, 2015-01-01 00:13:34.655,1.175,0.431,1.242,-462.341,-336.182,-178.589, , , , , , ,24.39,17.347,-108.875
 09:21:06.260,eb:33:2e:f9:57:b5, 2015-01-01 00:13:34.655,0.867,0.11,1.572,-444.946,-376.465,-179.504, , , , , , ,21.665,16.051,-110.462
 09:21:06.260,eb:33:2e:f9:57:b5, 2015-01-01 00:13:34.655,0.529,-0.094,1.999,-418.945,-411.804,-170.41, , , , , , ,19.105,14.485,-112.033
 09:21:06.260,eb:33:2e:f9:57:b5, 2015-01-01 00:13:34.655,0.138,-0.3,2.463,-394.348,-424.622,-147.461, , , , , , ,16.694,12.689,-113.5
 09:21:06.261,eb:33:2e:f9:57:b5, 2015-01-01 00:13:34.655,-0.15,-0.547,2.841,-369.202,-419.25,-112.427, , , , , , ,14.551,10.827,-114.703
 09:21:06.262,eb:33:2e:f9:57:b5, 2015-01-01 00:13:34.655,-0.429,-0.698,3.072,-344.482,-408.203,-70.19, , , , , , ,12.618,8.921,-115.62
 09:21:06.262,eb:33:2e:f9:57:b5, 2015-01-01 00:13:34.655,-0.612,-0.68,3.016,-327.637,-403.564,-23.315, , , , , , ,10.865,6.982,-116.241
 09:21:06.262,eb:33:2e:f9:57:b5, 2015-01-01 00:13:34.655,-0.707,-0.566,2.85,-322.021,-408.752,24.902, , , , , , ,9.168,4.944,-116.587
 09:21:06.262,eb:33:2e:f9:57:b5, 2015-01-01 00:13:34.655,-0.739,-0.42,2.743,-325.684,-420.532,72.449, , , , , , ,7.542,2.845,-116.625
 09:21:06.262,eb:33:2e:f9:57:b5, 2015-01-01 00:13:34.655,-0.752,-0.312,2.74,-337.402,-435.303,119.08, , , , , , ,5.889,0.654,-116.373
 09:21:06.262,eb:33:2e:f9:57:b5, 2015-01-01 00:13:34.655,-0.641,-0.184,2.706,-358.459,-454.712,162.537, , , , , , ,4.136,-1.631,-115.84
 09:21:06.262,eb:33:2e:f9:57:b5, 2015-01-01 00:13:34.655,-0.537,0.043,2.702,-391.174,-489.685,206.909, , , , , , ,2.159,-4.087,-115.038
 09:21:06.262,eb:33:2e:f9:57:b5, 2015-01-01 00:13:34.655,-0.476,0.215,2.79,-407.471,-512.939,229.98, , , , , , ,0.049,-6.63,-113.978
 09:21:06.306,eb:33:2e:f9:57:b5, 2015-01-01 00:13:34.655,-0.471,0.557,3.073,-414.001,-547.668,255.554, , , , , , ,-2.192,-9.272,-112.681
 09:21:06.306,eb:33:2e:f9:57:b5, 2015-01-01 00:13:34.655,-0.51,0.965,3.38,-402.1,-577.087,268.982, , , , , , ,-4.515,-12.019,-111.171
 09:21:06.306,eb:33:2e:f9:57:b5, 2015-01-01 00:13:34.655,-0.639,1.458,3.734,-377.441,-604.553,278.687, , , , , , ,-6.899,-14.865,-109.462
 09:21:06.306,eb:33:2e:f9:57:b5, 2015-01-01 00:13:34.655,-0.734,1.985,4.199,-346.68,-623.84,287.537, , , , , , ,-9.24,-17.721,-107.551
 09:21:06.306,eb:33:2e:f9:57:b5, 2015-01-01 00:13:34.655,-0.811,2.556,4.911,-319.153,-616.882,299.011, , , , , , ,-11.585,-20.522,-105.425
 09:21:06.307,eb:33:2e:f9:57:b5, 2015-01-01 00:13:34.655,-0.873,3.123,5.748,-300.72,-569.702,312.622, , , , , , ,-13.98,-23.066,-103.107
 09:21:06.307,eb:33:2e:f9:57:b5, 2015-01-01 00:13:34.655,-0.922,3.624,6.391,-291.687,-482.666,325.745, , , , , , ,-16.501,-25.175,-100.657
 09:21:06.307,eb:33:2e:f9:57:b5, 2015-01-01 00:13:34.655,-0.864,4.083,6.516,-288.208,-369.385,331.604, , , , , , ,-19.028,-26.664,-98.201
 09:21:06.373,eb:33:2e:f9:57:b5, 2015-01-01 00:13:34.655,-0.689,4.568,6.093,-282.532,-257.751,322.205, , , , , , ,-21.506,-27.504,-95.905
 09:21:06.373,eb:33:2e:f9:57:b5, 2015-01-01 00:13:34.655,-0.392,5.142,5.416,-267.822,-172.119,293.091, , , , , , ,-23.829,-27.861,-93.867
 09:21:06.373,eb:33:2e:f9:57:b5, 2015-01-01 00:13:34.655,-0.06,5.745,4.769,-246.277,-111.877,245.667, , , , , , ,-25.928,-27.916,-92.175
 09:21:06.373,eb:33:2e:f9:57:b5, 2015-01-01 00:13:34.655,0.183,6.236,4.218,-223.694,-67.139,185.974, , , , , , ,-27.691,-27.817,-90.895
 09:21:06.373,eb:33:2e:f9:57:b5, 2015-01-01 00:13:34.655,0.196,6.522,3.744,-202.393,-29.175,120.422, , , , , , ,-29.136,-27.664,-90.071
 09:21:06.373,eb:33:2e:f9:57:b5, 2015-01-01 00:13:34.655,-0.062,6.55,3.288,-183.533,6.042,57.129, , , , , , ,-30.289,-27.493,-89.648
 09:21:06.373,eb:33:2e:f9:57:b5, 2015-01-01 00:13:34.655,-0.484,6.296,2.774,-166.321,33.447,2.991, , , , , , ,-31.19,-27.334,-89.594
 09:21:06.373,eb:33:2e:f9:57:b5, 2015-01-01 00:13:34.655,-0.935,5.824,2.213,-147.156,45.837,-37.231, , , , , , ,-31.86,-27.213,-89.83
 09:21:06.552,eb:33:2e:f9:57:b5, 2015-01-01 00:13:34.655,-1.296,5.244,1.71,-124.023,40.588,-62.5, , , , , , ,-32.355,-27.175,-90.236
 09:21:06.552,eb:33:2e:f9:57:b5, 2015-01-01 00:13:34.655,-1.58,4.652,1.378,-97.778,23.315,-73.975, , , , , , ,-32.701,-27.235,-90.659
 09:21:06.552,eb:33:2e:f9:57:b5, 2015-01-01 00:13:34.655,-1.73,4.156,1.261,-68.787,0.549,-73.608, , , , , , ,-32.926,-27.394,-91.044
 09:21:06.552,eb:33:2e:f9:57:b5, 2015-01-01 00:13:34.655,-1.738,3.773,1.396,-36.865,-15.747,-65.308, , , , , , ,-33.041,-27.631,-91.34
 09:21:06.552,eb:33:2e:f9:57:b5, 2015-01-01 00:13:34.655,-1.646,3.455,1.657,-3.296,-16.968,-52.979, , , , , , ,-33.025,-27.861,-91.577
 09:21:06.552,eb:33:2e:f9:57:b5, 2015-01-01 00:13:34.655,-1.575,3.158,1.866,29.236,-3.418,-39.856, , , , , , ,-32.855,-28.026,-91.763
 09:21:06.552,eb:33:2e:f9:57:b5, 2015-01-01 00:13:34.655,-1.538,2.828,1.893,58.655,15.381,-26.917, , , , , , ,-32.531,-28.081,-91.939
 09:21:06.552,eb:33:2e:f9:57:b5, 2015-01-01 00:13:34.655,-0.798,2.398,1.799,85.999,33.02,-14.343, , , , , , ,-32.075,-28.021,-92.115
 09:21:06.554,eb:33:2e:f9:57:b5, 2015-01-01 00:13:34.655,3.522,2.211,2.698,256.653,-164.185,-135.193, , , , , , ,-31.273,-28.235,-92.28
 09:21:06.554,eb:33:2e:f9:57:b5, 2015-01-01 00:13:34.655,-1.687,4.156,8.17,602.234,539.551,-231.812, , , , , , ,-27.922,-27.762,-94.059
 09:21:06.556,eb:33:2e:f9:57:b5, 2015-01-01 00:13:34.655,-1.921,6.905,-4.922,500.854,462.036,-356.323, , , , , , ,-23.972,-26.175,-96.713
 09:21:06.556,eb:33:2e:f9:57:b5, 2015-01-01 00:13:34.655,-5.573,2.325,1.565,597.595,478.271,-349.426, , , , , , ,-20.001,-24.478,-99.684
 09:21:06.556,eb:33:2e:f9:57:b5, 2015-01-01 00:13:34.655,-3.318,7.078,6.025,829.102,399.231,-166.382, , , , , , ,-15.425,-22.917,-101.525
 09:21:06.556,eb:33:2e:f9:57:b5, 2015-01-01 00:13:34.655,-3.266,8.045,6.139,686.829,519.958,-153.381, , , , , , ,-11.08,-20.77,-103.046
 09:21:06.556,eb:33:2e:f9:57:b5, 2015-01-01 00:13:34.655,0.108,5.978,4.938,380.31,548.706,-56.641, , , , , , ,-8.179,-18.16,-104.084
 09:21:06.556,eb:33:2e:f9:57:b5, 2015-01-01 00:13:34.655,1.469,1.688,3.873,225.769,574.097,62.012, , , , , , ,-6.74,-15.452,-104.348
 09:21:06.620,eb:33:2e:f9:57:b5, 2015-01-01 00:13:34.655,-0.648,1.352,2.33,153.992,503.418,17.456, , , , , , ,-5.79,-12.645,-104.458
 09:21:06.620,eb:33:2e:f9:57:b5, 2015-01-01 00:13:34.655,-0.03,-0.542,0.647,132.629,404.236,22.217, , , , , , ,-5.114,-10.503,-104.606
 09:21:06.620,eb:33:2e:f9:57:b5, 2015-01-01 00:13:34.655,0.881,-0.637,1.375,194.763,383.423,-17.029, , , , , , ,-4.197,-8.514,-104.716
 09:21:06.620,eb:33:2e:f9:57:b5, 2015-01-01 00:13:34.655,-0.163,0.292,0.074,202.82,312.134,-57.556, , , , , , ,-3.12,-6.85,-105.04
 09:21:06.620,eb:33:2e:f9:57:b5, 2015-01-01 00:13:34.655,-1.055,1.277,0.33,153.625,272.4,-69.275, , , , , , ,-2.214,-5.433,-105.474
 09:21:06.620,eb:33:2e:f9:57:b5, 2015-01-01 00:13:34.655,-0.016,0.853,-0.155,109.619,207.825,-33.936, , , , , , ,-1.549,-4.268,-105.721
 09:21:06.620,eb:33:2e:f9:57:b5, 2015-01-01 00:13:34.655,-0.316,0.581,0.336,85.632,174.255,-58.899, , , , , , ,-1.038,-3.301,-105.996
 09:21:06.621,eb:33:2e:f9:57:b5, 2015-01-01 00:13:34.655,-0.545,0.224,0.499,72.876,153.076,-54.749, , , , , , ,-0.632,-2.521,-106.304
 09:21:06.621,eb:33:2e:f9:57:b5, 2015-01-01 00:13:34.655,-1.17,0.032,0.684,66.833,139.404,-45.593, , , , , , ,-0.28,-1.796,-106.556
 09:21:06.621,eb:33:2e:f9:57:b5, 2015-01-01 00:13:34.655,-0.605,-0.127,0.347,64.331,95.703,-29.48, , , , , , ,0.044,-1.219,-106.743
 09:21:06.621,eb:33:2e:f9:57:b5, 2015-01-01 00:13:34.655,0.492,-0.008,0.852,63.232,73.853,-17.639, , , , , , ,0.401,-0.802,-106.842
 09:21:06.621,eb:33:2e:f9:57:b5, 2015-01-01 00:13:34.655,0.466,0.149,1.672,70.435,86.243,-24.048, , , , , , ,0.736,-0.406,-106.941
 09:21:06.621,eb:33:2e:f9:57:b5, 2015-01-01 00:13:34.655,-0.21,0.284,1.512,69.763,104.065,-29.846, , , , , , ,1.093,0.082,-107.078
 09:21:06.621,eb:33:2e:f9:57:b5, 2015-01-01 00:13:34.655,-0.373,0.044,1.038,68.481,93.689,-21.179, , , , , , ,1.428,0.588,-107.188
 09:21:06.621,eb:33:2e:f9:57:b5, 2015-01-01 00:13:34.655,-0.585,0.002,1.013,70.74,74.402,-15.93, , , , , , ,1.818,1.022,-107.265
 09:21:06.623,eb:33:2e:f9:57:b5, 2015-01-01 00:13:34.655,-0.448,0.012,1.035,71.777,44.922,-1.404, , , , , , ,2.175,1.302,-107.287
 09:21:06.623,eb:33:2e:f9:57:b5, 2015-01-01 00:13:34.655,-0.576,0.026,1.15,71.167,26.794,7.568, , , , , , ,2.532,1.467,-107.265
 09:21:06.623,eb:33:2e:f9:57:b5, 2015-01-01 00:13:34.655,-0.355,-0.226,1.296,78.552,1.77,23.315, , , , , , ,2.906,1.522,-107.177
 09:21:06.623,eb:33:2e:f9:57:b5, 2015-01-01 00:13:34.655,-0.721,-0.133,1.495,96.252,-32.837,42.48, , , , , , ,3.389,1.445,-107.001
 09:21:06.623,eb:33:2e:f9:57:b5, 2015-01-01 00:13:34.655,-1.206,-0.26,2.238,120.85,-57.8,62.805, , , , , , ,3.944,1.17,-106.743
 09:21:06.623,eb:33:2e:f9:57:b5, 2015-01-01 00:13:34.655,-0.779,-0.708,3.345,151.917,-73.975,87.341, , , , , , ,4.647,0.818,-106.381
 09:21:06.624,eb:33:2e:f9:57:b5, 2015-01-01 00:13:34.655,-0.807,-0.91,4.152,200.867,-89.539,94.666, , , , , , ,5.559,0.346,-105.952
 09:21:06.624,eb:33:2e:f9:57:b5, 2015-01-01 00:13:34.655,-0.32,-1.126,4.757,257.996,-106.018,101.99, , , , , , ,6.757,-0.17,-105.507
 09:21:06.624,eb:33:2e:f9:57:b5, 2015-01-01 00:13:34.655,0.486,-1.444,4.964,325.867,-129.7,101.318, , , , , , ,8.245,-0.846,-105.079
 09:21:06.626,eb:33:2e:f9:57:b5, 2015-01-01 00:13:34.655,1.134,-1.603,5.052,405.396,-134.216,94.788, , , , , , ,10.096,-1.593,-104.7
 09:21:06.626,eb:33:2e:f9:57:b5, 2015-01-01 00:13:34.655,1.458,-1.578,5.027,482.239,-109.619,80.383, , , , , , ,12.354,-2.274,-104.392
 09:21:06.626,eb:33:2e:f9:57:b5, 2015-01-01 00:13:34.655,1.425,-1.895,5.422,558.655,-72.815,57.556, , , , , , ,15.002,-2.758,-104.167
 09:21:06.626,eb:33:2e:f9:57:b5, 2015-01-01 00:13:34.655,1.751,-1.798,5.447,631.409,-33.081,21.118, , , , , , ,18.018,-3.032,-104.057
 09:21:06.626,eb:33:2e:f9:57:b5, 2015-01-01 00:13:34.655,1.197,-1.648,5.371,686.218,10.132,-23.987, , , , , , ,21.346,-3.076,-104.101
 09:21:06.626,eb:33:2e:f9:57:b5, 2015-01-01 00:13:34.655,1.379,-1.604,5.049,730.957,9.949,-71.167, , , , , , ,24.917,-2.911,-104.31
 09:21:06.626,eb:33:2e:f9:57:b5, 2015-01-01 00:13:34.655,1.314,-1.387,4.726,765.32,-7.629,-117.676, , , , , , ,28.729,-2.664,-104.749
 09:21:06.626,eb:33:2e:f9:57:b5, 2015-01-01 00:13:34.655,0.994,-1.606,4.576,784.912,-17.273,-150.94, , , , , , ,32.646,-2.368,-105.392
 09:21:06.629,eb:33:2e:f9:57:b5, 2015-01-01 00:13:34.655,0.355,-1.454,4.997,809.937,11.963,-172.607, , , , , , ,36.672,-1.895,-106.051
 09:21:06.629,eb:33:2e:f9:57:b5, 2015-01-01 00:13:34.655,-0.02,-0.387,6.381,811.951,48.279,-181.702, , , , , , ,40.748,-1.208,-106.661
 09:21:06.629,eb:33:2e:f9:57:b5, 2015-01-01 00:13:34.655,-0.905,-0.16,6.758,821.533,125.977,-157.654, , , , , , ,44.852,-0.291,-106.968
 09:21:06.629,eb:33:2e:f9:57:b5, 2015-01-01 00:13:34.655,-0.896,0.752,5.021,805.664,140.381,-138.428, , , , , , ,48.944,0.714,-106.952
 09:21:06.629,eb:33:2e:f9:57:b5, 2015-01-01 00:13:34.655,-0.998,1.04,1.641,630.249,124.329,-96.375, , , , , , ,52.526,1.588,-106.782
 09:21:06.629,eb:33:2e:f9:57:b5, 2015-01-01 00:13:34.655,0.184,0.715,-1.747,429.504,169.128,-40.466, , , , , , ,55.052,2.291,-106.37
 09:21:06.629,eb:33:2e:f9:57:b5, 2015-01-01 00:13:34.655,0.42,0.644,-1.63,293.579,263.977,-24.658, , , , , , ,56.766,3.06,-105.529
 09:21:06.629,eb:33:2e:f9:57:b5, 2015-01-01 00:13:34.655,0.137,1.348,-1.223,237.488,229.431,-8.606, , , , , , ,58.156,3.79,-104.507
 09:21:06.688,eb:33:2e:f9:57:b5, 2015-01-01 00:13:34.655,0.753,2.676,-0.295,157.227,188.66,-22.339, , , , , , ,59.139,4.4,-103.64
 09:21:06.689,eb:33:2e:f9:57:b5, 2015-01-01 00:13:34.655,1.132,2.071,2.06,153.015,173.157,-30.212, , , , , , ,59.947,4.96,-102.953
 09:21:06.689,eb:33:2e:f9:57:b5, 2015-01-01 00:13:34.655,1.167,1.285,3.655,192.444,168.701,-43.823, , , , , , ,60.881,5.559,-102.305
 09:21:06.689,eb:33:2e:f9:57:b5, 2015-01-01 00:13:34.655,1.405,1.125,3.644,273.071,139.16,-64.392, , , , , , ,62.133,6.169,-101.766
 09:21:06.689,eb:33:2e:f9:57:b5, 2015-01-01 00:13:34.655,1.125,0.962,3.712,342.896,117.31,-80.994, , , , , , ,63.759,6.79,-101.354
 09:21:06.689,eb:33:2e:f9:57:b5, 2015-01-01 00:13:34.655,0.963,0.579,3.251,373.413,94.116,-88.562, , , , , , ,65.616,7.399,-101.074
 09:21:06.689,eb:33:2e:f9:57:b5, 2015-01-01 00:13:34.655,0.915,-0.033,2.985,369.019,80.566,-86.609, , , , , , ,67.511,7.987,-100.86
 09:21:06.689,eb:33:2e:f9:57:b5, 2015-01-01 00:13:34.655,0.871,-0.668,3.021,350.159,74.646,-81.36, , , , , , ,69.335,8.514,-100.662
 09:21:06.733,eb:33:2e:f9:57:b5, 2015-01-01 00:13:34.655,0.78,-1.28,3.258,328.552,78.125,-76.111, , , , , , ,71.054,9.014,-100.404
 09:21:06.733,eb:33:2e:f9:57:b5, 2015-01-01 00:13:34.655,0.989,-1.761,3.431,305.786,82.642,-71.594, , , , , , ,72.669,9.487,-100.135
 09:21:06.733,eb:33:2e:f9:57:b5, 2015-01-01 00:13:34.655,1.307,-2.073,3.713,285.95,97.29,-74.89, , , , , , ,74.191,9.976,-99.805
 09:21:06.734,eb:33:2e:f9:57:b5, 2015-01-01 00:13:34.655,1.541,-2.29,3.874,270.996,117.065,-89.783, , , , , , ,75.646,10.514,-99.382
 09:21:06.734,eb:33:2e:f9:57:b5, 2015-01-01 00:13:34.655,1.628,-2.343,3.628,253.967,129.7,-113.464, , , , , , ,77.047,11.168,-98.86
 09:21:06.734,eb:33:2e:f9:57:b5, 2015-01-01 00:13:34.655,1.524,-2.22,3.046,227.112,127.563,-141.968, , , , , , ,78.344,11.942,-98.355
 09:21:06.734,eb:33:2e:f9:57:b5, 2015-01-01 00:13:34.655,1.358,-1.998,2.341,190.674,106.873,-172.302, , , , , , ,79.448,12.849,-97.943
 09:21:06.734,eb:33:2e:f9:57:b5, 2015-01-01 00:13:34.655,1.257,-1.787,1.91,150.024,76.05,-203.857, , , , , , ,80.343,13.87,-97.663
 09:21:06.755,eb:33:2e:f9:57:b5, 2015-01-01 00:13:34.655,1.202,-1.657,2.011,111.938,46.204,-234.68, , , , , , ,81.002,15.013,-97.526
 09:21:06.755,eb:33:2e:f9:57:b5, 2015-01-01 00:13:34.655,1.28,-1.658,2.489,81.116,28.259,-265.137, , , , , , ,81.458,16.293,-97.553
 09:21:06.755,eb:33:2e:f9:57:b5, 2015-01-01 00:13:34.655,1.454,-1.808,3.064,57.007,33.386,-292.236, , , , , , ,81.749,17.71,-97.635
 09:21:06.755,eb:33:2e:f9:57:b5, 2015-01-01 00:13:34.655,1.526,-2.11,3.518,37.048,60.791,-313.477, , , , , , ,81.98,19.259,-97.614
 09:21:06.755,eb:33:2e:f9:57:b5, 2015-01-01 00:13:34.655,1.417,-2.459,3.668,18.799,100.708,-325.439, , , , , , ,82.183,20.907,-97.372
 09:21:06.755,eb:33:2e:f9:57:b5, 2015-01-01 00:13:34.655,1.268,-2.71,3.497,2.197,140.015,-327.271, , , , , , ,82.386,22.615,-96.949
 09:21:06.755,eb:33:2e:f9:57:b5, 2015-01-01 00:13:34.655,1.131,-2.795,3.207,-13.55,171.387,-321.533, , , , , , ,82.568,24.335,-96.339
 09:21:06.755,eb:33:2e:f9:57:b5, 2015-01-01 00:13:34.655,1.015,-2.75,2.899,-30.151,190.063,-309.204, , , , , , ,82.787,26.01,-95.554
 09:21:06.801,eb:33:2e:f9:57:b5, 2015-01-01 00:13:34.655,0.891,-2.691,2.675,-47.607,199.707,-290.833, , , , , , ,82.98,27.614,-94.642
 09:21:06.801,eb:33:2e:f9:57:b5, 2015-01-01 00:13:34.655,0.739,-2.658,2.503,-65.796,202.881,-265.93, , , , , , ,83.139,29.108,-93.691
 09:21:06.802,eb:33:2e:f9:57:b5, 2015-01-01 00:13:34.655,0.687,-2.634,2.329,-85.693,200.317,-234.314, , , , , , ,83.199,30.465,-92.741
 09:21:06.802,eb:33:2e:f9:57:b5, 2015-01-01 00:13:34.655,0.763,-2.576,2.191,-108.337,195.19,-197.815, , , , , , ,83.216,31.635,-91.747
 09:21:06.802,eb:33:2e:f9:57:b5, 2015-01-01 00:13:34.655,0.817,-2.491,2.085,-133.484,188.416,-158.386, , , , , , ,83.134,32.613,-90.72
 09:21:06.802,eb:33:2e:f9:57:b5, 2015-01-01 00:13:34.655,0.913,-2.411,1.936,-158.264,174.744,-117.065, , , , , , ,82.919,33.387,-89.747
 09:21:06.802,eb:33:2e:f9:57:b5, 2015-01-01 00:13:34.655,0.927,-2.292,1.725,-183.472,147.339,-67.444, , , , , , ,82.496,33.937,-88.901
 09:21:06.802,eb:33:2e:f9:57:b5, 2015-01-01 00:13:34.655,0.895,-2.159,1.517,-198.486,107.849,-28.137, , , , , , ,81.925,34.239,-88.193
 09:21:06.823,eb:33:2e:f9:57:b5, 2015-01-01 00:13:34.655,0.944,-2.083,1.332,-206.848,56.885,10.437, , , , , , ,81.167,34.316,-87.704
 09:21:06.823,eb:33:2e:f9:57:b5, 2015-01-01 00:13:34.655,1.04,-2.053,1.267,-212.463,6.348,45.41, , , , , , ,80.217,34.184,-87.517
 09:21:06.823,eb:33:2e:f9:57:b5, 2015-01-01 00:13:34.655,1.271,-2.002,1.172,-221.985,-36.499,76.416, , , , , , ,79.052,33.86,-87.616
 09:21:06.823,eb:33:2e:f9:57:b5, 2015-01-01 00:13:34.655,1.481,-1.824,1.036,-239.807,-67.261,101.807, , , , , , ,77.772,33.349,-87.836
 09:21:06.823,eb:33:2e:f9:57:b5, 2015-01-01 00:13:34.655,1.684,-1.491,0.861,-264.709,-92.957,118.347, , , , , , ,76.317,32.706,-88.143
 09:21:06.823,eb:33:2e:f9:57:b5, 2015-01-01 00:13:34.655,1.803,-1.047,0.798,-292.664,-118.591,123.962, , , , , , ,74.669,31.981,-88.583
 09:21:06.824,eb:33:2e:f9:57:b5, 2015-01-01 00:13:34.655,1.874,-0.595,0.708,-320.007,-148.499,118.835, , , , , , ,72.773,31.212,-89.198
 09:21:06.824,eb:33:2e:f9:57:b5, 2015-01-01 00:13:34.655,1.958,-0.181,0.606,-344.91,-183.044,105.896, , , , , , ,70.724,30.421,-89.929
 09:21:07.024,eb:33:2e:f9:57:b5, 2015-01-01 00:13:34.655,1.989,0.121,0.583,-365.723,-219.971,85.632, , , , , , ,68.472,29.619,-90.829
 09:21:07.024,eb:33:2e:f9:57:b5, 2015-01-01 00:13:34.655,1.976,0.296,0.589,-382.69,-257.019,60.608, , , , , , ,66.039,28.823,-91.956
 09:21:07.024,eb:33:2e:f9:57:b5, 2015-01-01 00:13:34.655,1.908,0.363,0.646,-398.254,-291.687,34.18, , , , , , ,63.402,28.026,-93.323
 09:21:07.024,eb:33:2e:f9:57:b5, 2015-01-01 00:13:34.655,1.827,0.362,0.81,-416.626,-317.932,10.01, , , , , , ,60.667,27.219,-94.812
 09:21:07.024,eb:33:2e:f9:57:b5, 2015-01-01 00:13:34.655,1.778,0.284,1.147,-438.843,-328.003,-10.193, , , , , , ,57.805,26.395,-96.367
 09:21:07.024,eb:33:2e:f9:57:b5, 2015-01-01 00:13:34.655,1.673,0.135,1.576,-462.463,-318.848,-26.001, , , , , , ,54.855,25.582,-97.927
 09:21:07.024,eb:33:2e:f9:57:b5, 2015-01-01 00:13:34.655,1.54,-0.014,1.838,-484.314,-303.162,-37.598, , , , , , ,51.79,24.785,-99.448
 09:21:07.024,eb:33:2e:f9:57:b5, 2015-01-01 00:13:34.655,1.446,-0.083,1.837,-503.296,-296.265,-46.509, , , , , , ,48.73,24,-100.86
 09:21:07.048,eb:33:2e:f9:57:b5, 2015-01-01 00:13:34.655,1.453,-0.107,1.726,-517.822,-304.382,-54.626, , , , , , ,45.61,23.165,-102.233
 09:21:07.048,eb:33:2e:f9:57:b5, 2015-01-01 00:13:34.655,1.554,-0.099,1.653,-525.024,-329.651,-64.087, , , , , , ,42.44,22.231,-103.667
 09:21:07.048,eb:33:2e:f9:57:b5, 2015-01-01 00:13:34.655,1.584,-0.067,1.708,-524.536,-364.075,-76.416, , , , , , ,39.199,21.121,-105.227
 09:21:07.048,eb:33:2e:f9:57:b5, 2015-01-01 00:13:34.655,1.44,-0.061,1.814,-518.311,-405.64,-89.661, , , , , , ,36.024,19.836,-106.848
 09:21:07.048,eb:33:2e:f9:57:b5, 2015-01-01 00:13:34.655,1.295,-0.153,2.017,-508.057,-444.153,-100.464, , , , , , ,32.899,18.336,-108.539
 09:21:07.048,eb:33:2e:f9:57:b5, 2015-01-01 00:13:34.655,1.111,-0.272,2.434,-495.239,-471.436,-108.948, , , , , , ,29.877,16.639,-110.275
 09:21:07.048,eb:33:2e:f9:57:b5, 2015-01-01 00:13:34.655,0.805,-0.405,2.817,-479.553,-488.098,-109.741, , , , , , ,26.933,14.755,-112
 09:21:07.048,eb:33:2e:f9:57:b5, 2015-01-01 00:13:34.655,0.366,-0.53,3.1,-464.6,-495.178,-101.196, , , , , , ,24.203,12.755,-113.588
 09:21:07.070,eb:33:2e:f9:57:b5, 2015-01-01 00:13:34.655,-0.074,-0.643,3.304,-453.247,-495.422,-82.275, , , , , , ,21.627,10.651,-114.988
 09:21:07.070,eb:33:2e:f9:57:b5, 2015-01-01 00:13:34.655,-0.463,-0.709,3.496,-445.74,-490.601,-51.575, , , , , , ,19.188,8.454,-116.169
 09:21:07.070,eb:33:2e:f9:57:b5, 2015-01-01 00:13:34.655,-0.741,-0.702,3.732,-442.566,-479.98,-11.414, , , , , , ,16.809,6.158,-117.081
 09:21:07.070,eb:33:2e:f9:57:b5, 2015-01-01 00:13:34.655,-0.957,-0.596,3.942,-443.42,-465.82,35.034, , , , , , ,14.54,3.867,-117.642
 09:21:07.070,eb:33:2e:f9:57:b5, 2015-01-01 00:13:34.655,-1.119,-0.402,3.964,-448.425,-455.872,86.548, , , , , , ,12.299,1.555,-117.845
 09:21:07.070,eb:33:2e:f9:57:b5, 2015-01-01 00:13:34.655,-1.151,-0.203,3.891,-456.97,-453.369,141.296, , , , , , ,10.031,-0.78,-117.702
 09:21:07.071,eb:33:2e:f9:57:b5, 2015-01-01 00:13:34.655,-0.943,-0.023,3.912,-467.651,-453.735,196.96, , , , , , ,7.646,-3.192,-117.202
 09:21:07.071,eb:33:2e:f9:57:b5, 2015-01-01 00:13:34.655,-0.708,0.246,4.136,-477.478,-448.73,259.277, , , , , , ,5.202,-5.565,-116.29
 09:21:07.073,eb:33:2e:f9:57:b5, 2015-01-01 00:13:34.655,-0.527,0.594,4.27,-476.501,-445.862,301.575, , , , , , ,2.659,-7.888,-114.999
 09:21:07.073,eb:33:2e:f9:57:b5, 2015-01-01 00:13:34.655,-0.38,1.1,4.225,-465.515,-453.552,333.252, , , , , , ,0.06,-10.179,-113.428
 09:21:07.073,eb:33:2e:f9:57:b5, 2015-01-01 00:13:34.655,-0.221,1.73,4.141,-447.815,-473.145,354.248, , , , , , ,-2.626,-12.486,-111.61
 09:21:07.073,eb:33:2e:f9:57:b5, 2015-01-01 00:13:34.655,-0.08,2.396,4.229,-428.101,-494.324,366.028, , , , , , ,-5.284,-14.788,-109.583
 09:21:07.073,eb:33:2e:f9:57:b5, 2015-01-01 00:13:34.655,0.012,3.003,4.575,-409.546,-504.761,370.605, , , , , , ,-7.976,-17.067,-107.375
 09:21:07.073,eb:33:2e:f9:57:b5, 2015-01-01 00:13:34.655,0.028,3.532,5.118,-392.944,-493.042,368.835, , , , , , ,-10.706,-19.237,-105.029
 09:21:07.073,eb:33:2e:f9:57:b5, 2015-01-01 00:13:34.655,-0.038,3.985,5.65,-377.136,-453.796,361.572, , , , , , ,-13.513,-21.176,-102.596
 09:21:07.073,eb:33:2e:f9:57:b5, 2015-01-01 00:13:34.655,-0.099,4.353,5.974,-359.741,-390.076,348.694, , , , , , ,-16.254,-22.742,-100.173
 09:21:07.094,eb:33:2e:f9:57:b5, 2015-01-01 00:13:34.655,-1.041,4.615,5.985,-338.867,-311.462,328.552, , , , , , ,-18.913,-23.868,-97.872
 09:21:07.094,eb:33:2e:f9:57:b5, 2015-01-01 00:13:34.655,-1.762,4.845,1.31,-130.31,-79.102,-116.76, , , , , , ,-32.426,-26.098,-91.115
 09:21:07.094,eb:33:2e:f9:57:b5, 2015-01-01 00:13:34.655,-2.299,4.045,1.4,-98.083,-92.163,-116.211, , , , , , ,-32.855,-26.79,-91.406
 09:21:07.094,eb:33:2e:f9:57:b5, 2015-01-01 00:13:34.655,-2.53,3.403,1.671,-65.613,-89.355,-96.375, , , , , , ,-33.151,-27.466,-91.62
 09:21:07.094,eb:33:2e:f9:57:b5, 2015-01-01 00:13:34.655,-2.483,2.987,2.034,-33.142,-65.796,-65.063, , , , , , ,-33.322,-27.999,-91.774
 09:21:07.094,eb:33:2e:f9:57:b5, 2015-01-01 00:13:34.655,-2.277,2.791,2.216,-1.953,-29.785,-31.372, , , , , , ,-33.354,-28.312,-91.846
 09:21:07.094,eb:33:2e:f9:57:b5, 2015-01-01 00:13:34.655,-2.027,2.753,2.044,27.039,0.61,-3.357, , , , , , ,-33.256,-28.389,-91.884
 09:21:07.094,eb:33:2e:f9:57:b5, 2015-01-01 00:13:34.655,-1.82,2.747,1.674,54.565,14.221,14.465, , , , , , ,-33.041,-28.328,-91.873
 09:21:07.184,eb:33:2e:f9:57:b5, 2015-01-01 00:13:34.655,-1.717,2.654,1.29,80.75,10.376,23.56, , , , , , ,-32.717,-28.213,-91.835
 09:21:07.184,eb:33:2e:f9:57:b5, 2015-01-01 00:13:34.655,-1.701,2.441,1,104.675,-4.639,26.978, , , , , , ,-32.294,-28.141,-91.719
 09:21:07.184,eb:33:2e:f9:57:b5, 2015-01-01 00:13:34.655,-1.719,2.118,0.905,126.404,-20.325,28.32, , , , , , ,-31.778,-28.12,-91.549
 09:21:07.184,eb:33:2e:f9:57:b5, 2015-01-01 00:13:34.655,-1.698,1.757,0.991,150.391,-27.649,28.992, , , , , , ,-31.174,-28.152,-91.335
 09:21:07.184,eb:33:2e:f9:57:b5, 2015-01-01 00:13:34.655,7.01,1.375,1.205,232.788,-135.01,-23.804, , , , , , ,-30.394,-28.328,-91.121
 09:21:07.184,eb:33:2e:f9:57:b5, 2015-01-01 00:13:34.655,-2.541,3.52,10.081,669.312,325.134,-308.228, , , , , , ,-27.296,-29.075,-92.225
 09:21:07.184,eb:33:2e:f9:57:b5, 2015-01-01 00:13:34.655,5.228,9.812,-3.764,705.2,359.985,-487.61, , , , , , ,-22.489,-28.092,-95.015
 09:21:07.184,eb:33:2e:f9:57:b5, 2015-01-01 00:13:34.655,-1.889,12.186,4.331,699.097,448.669,-703.735, , , , , , ,-17.012,-27.092,-99.294
 09:21:07.184,eb:33:2e:f9:57:b5, 2015-01-01 00:13:34.655,-2.879,8.476,8.241,742.493,497.62,-471.619, , , , , , ,-11.53,-25.56,-102.98
 09:21:07.184,eb:33:2e:f9:57:b5, 2015-01-01 00:13:34.655,-0.671,5.642,6.507,373.291,670.41,-256.409, , , , , , ,-7.839,-22.928,-105.513
 09:21:07.184,eb:33:2e:f9:57:b5, 2015-01-01 00:13:34.655,1.898,0.379,5.377,270.386,726.318,81.604, , , , , , ,-6.081,-19.501,-106.172
 09:21:07.184,eb:33:2e:f9:57:b5, 2015-01-01 00:13:34.655,-2.464,2.42,2.3,135.742,635.193,96.436, , , , , , ,-5.153,-15.958,-106.046
 09:21:07.184,eb:33:2e:f9:57:b5, 2015-01-01 00:13:34.655,-2.066,-0.396,-0.312,113.953,484.07,70.312, , , , , , ,-4.664,-13.277,-105.875
 09:21:07.184,eb:33:2e:f9:57:b5, 2015-01-01 00:13:34.655,0.927,-1.465,1.022,201.111,461.548,22.156, , , , , , ,-3.856,-10.882,-105.826
 09:21:07.184,eb:33:2e:f9:57:b5, 2015-01-01 00:13:34.655,-0.377,0.102,-0.082,233.765,318.42,-89.844, , , , , , ,-2.598,-9.031,-106.15
 09:21:07.184,eb:33:2e:f9:57:b5, 2015-01-01 00:13:34.655,-0.881,1.454,0.268,174.194,298.401,-82.092, , , , , , ,-1.516,-7.509,-106.716
 09:21:07.205,eb:33:2e:f9:57:b5, 2015-01-01 00:13:34.655,0.455,1.004,-0.001,127.747,250.427,-34.363, , , , , , ,-0.764,-6.147,-106.941
 09:21:07.205,eb:33:2e:f9:57:b5, 2015-01-01 00:13:34.655,0.252,0.609,0.053,112.793,194.824,-65.308, , , , , , ,-0.159,-5.07,-107.238
 09:21:07.205,eb:33:2e:f9:57:b5, 2015-01-01 00:13:34.655,-1.495,0.576,0.75,91.492,207.336,-61.401, , , , , , ,0.423,-4.076,-107.551
 09:21:07.205,eb:33:2e:f9:57:b5, 2015-01-01 00:13:34.655,-2.402,0.178,-0.153,71.167,160.645,-50.476, , , , , , ,0.824,-3.126,-107.831
 09:21:07.205,eb:33:2e:f9:57:b5, 2015-01-01 00:13:34.655,-0.29,-0.379,-0.472,61.584,68.726,-5.371, , , , , , ,1.154,-2.615,-107.941
 09:21:07.205,eb:33:2e:f9:57:b5, 2015-01-01 00:13:34.655,1.616,0.081,1.319,63.782,51.758,-0.916, , , , , , ,1.461,-2.362,-107.924
 09:21:07.205,eb:33:2e:f9:57:b5, 2015-01-01 00:13:34.655,0.825,0.309,2.581,79.834,99.731,-33.142, , , , , , ,1.873,-1.945,-108.001
 09:21:07.205,eb:33:2e:f9:57:b5, 2015-01-01 00:13:34.655,-0.082,0.323,1.901,79.285,140.747,-45.288, , , , , , ,2.28,-1.291,-108.199
 09:21:07.272,eb:33:2e:f9:57:b5, 2015-01-01 00:13:34.655,0.159,0.082,0.965,84.595,113.953,-35.95, , , , , , ,2.692,-0.654,-108.358
 09:21:07.272,eb:33:2e:f9:57:b5, 2015-01-01 00:13:34.655,-0.462,0.556,0.573,78.857,87.402,-48.584, , , , , , ,3.104,-0.148,-108.556
 09:21:07.272,eb:33:2e:f9:57:b5, 2015-01-01 00:13:34.655,-1.027,0.204,0.792,69.763,60.913,-31.738, , , , , , ,3.51,0.242,-108.732
 09:21:07.272,eb:33:2e:f9:57:b5, 2015-01-01 00:13:34.655,-1.523,-0.321,1.48,83.252,26.123,0.854, , , , , , ,3.889,0.439,-108.787
 09:21:07.272,eb:33:2e:f9:57:b5, 2015-01-01 00:13:34.655,-1.614,-0.979,2.533,117.981,-7.202,39.734, , , , , , ,4.406,0.456,-108.66
 09:21:07.272,eb:33:2e:f9:57:b5, 2015-01-01 00:13:34.655,-1.264,-0.597,2.748,154.236,-51.331,71.167, , , , , , ,5.103,0.269,-108.375
 09:21:07.273,eb:33:2e:f9:57:b5, 2015-01-01 00:13:34.655,-1.21,-0.777,3.614,195.374,-86.365,85.938, , , , , , ,6.037,-0.115,-108.007
 09:21:07.273,eb:33:2e:f9:57:b5, 2015-01-01 00:13:34.655,-0.828,-1.232,4.65,252.502,-107.361,93.14, , , , , , ,7.169,-0.648,-107.617
 09:21:07.273,eb:33:2e:f9:57:b5, 2015-01-01 00:13:34.655,0.211,-1.817,4.639,334.106,-137.146,96.375, , , , , , ,8.663,-1.335,-107.227
 09:21:07.273,eb:33:2e:f9:57:b5, 2015-01-01 00:13:34.655,2.019,-1.383,4.336,410.889,-161.377,91.553, , , , , , ,10.558,-2.175,-106.891
 09:21:07.273,eb:33:2e:f9:57:b5, 2015-01-01 00:13:34.655,1.708,-0.749,5.018,456.97,-127.258,69.58, , , , , , ,12.777,-2.966,-106.65
 09:21:07.273,eb:33:2e:f9:57:b5, 2015-01-01 00:13:34.655,1.335,-1.523,5.397,528.503,-79.163,44.678, , , , , , ,15.255,-3.494,-106.501
 09:21:07.273,eb:33:2e:f9:57:b5, 2015-01-01 00:13:34.655,1.634,-1.883,6.071,603.943,-18.677,8.667, , , , , , ,18.122,-3.735,-106.441
 09:21:07.273,eb:33:2e:f9:57:b5, 2015-01-01 00:13:34.655,1.657,-1.653,6.078,655.762,29.846,-26.978, , , , , , ,21.308,-3.653,-106.485
 09:21:07.273,eb:33:2e:f9:57:b5, 2015-01-01 00:13:34.655,1.348,-1.145,5.011,683.35,54.382,-60.547, , , , , , ,24.719,-3.323,-106.611
 09:21:07.273,eb:33:2e:f9:57:b5, 2015-01-01 00:13:34.655,1.596,-1.105,4.774,700.684,69.214,-91.919, , , , , , ,28.196,-2.856,-106.831
 09:21:07.340,eb:33:2e:f9:57:b5, 2015-01-01 00:13:34.655,1.673,-1.828,4.939,736.511,92.896,-109.497, , , , , , ,31.811,-2.252,-107.062
 09:21:07.340,eb:33:2e:f9:57:b5, 2015-01-01 00:13:34.655,1.32,-2.113,4.797,772.644,124.329,-131.165, , , , , , ,35.612,-1.445,-107.265
 09:21:07.340,eb:33:2e:f9:57:b5, 2015-01-01 00:13:34.655,1.028,-1.74,5.234,769.226,139.038,-144.409, , , , , , ,39.507,-0.483,-107.419
 09:21:07.341,eb:33:2e:f9:57:b5, 2015-01-01 00:13:34.655,0.313,-0.887,5.674,738.77,173.828,-146.179, , , , , , ,43.242,0.588,-107.457
 09:21:07.341,eb:33:2e:f9:57:b5, 2015-01-01 00:13:34.655,0.185,0.819,6.176,725.708,221.13,-150.635, , , , , , ,46.917,1.851,-107.254
 09:21:07.341,eb:33:2e:f9:57:b5, 2015-01-01 00:13:34.655,-1.029,-0.116,5.118,678.711,308.289,-112.915, , , , , , ,50.444,3.257,-106.639
 09:21:07.341,eb:33:2e:f9:57:b5, 2015-01-01 00:13:34.655,-0.054,-0.187,0.564,545.41,323.547,-51.025, , , , , , ,53.569,4.554,-105.617
 09:21:07.341,eb:33:2e:f9:57:b5, 2015-01-01 00:13:34.655,1.244,0.329,-2.491,363.281,332.153,-0.183, , , , , , ,55.849,5.581,-104.315
 09:21:07.345,eb:33:2e:f9:57:b5, 2015-01-01 00:13:34.655,1.118,1.558,-3.498,276.489,296.814,-1.648, , , , , , ,57.502,6.465,-102.925
 09:21:07.345,eb:33:2e:f9:57:b5, 2015-01-01 00:13:34.655,0.519,3.087,-2.548,183.411,197.998,-10.803, , , , , , ,58.738,7.097,-101.948
 09:21:07.345,eb:33:2e:f9:57:b5, 2015-01-01 00:13:34.655,1.511,3.144,-0.901,115.906,107.666,-36.377, , , , , , ,59.507,7.603,-101.393
 09:21:07.345,eb:33:2e:f9:57:b5, 2015-01-01 00:13:34.655,1.319,2.056,2.297,117.065,82.214,-57.373, , , , , , ,60.106,8.031,-101.14
 09:21:07.345,eb:33:2e:f9:57:b5, 2015-01-01 00:13:34.655,1.394,1.298,3.315,171.509,78.003,-87.341, , , , , , ,60.853,8.558,-100.942
 09:21:07.345,eb:33:2e:f9:57:b5, 2015-01-01 00:13:34.655,1.284,1.137,3.956,249.146,78.064,-110.107, , , , , , ,61.963,9.185,-100.86
 09:21:07.345,eb:33:2e:f9:57:b5, 2015-01-01 00:13:34.655,1.104,0.984,3.916,302.368,79.163,-128.113, , , , , , ,63.408,9.921,-100.778
 09:21:07.345,eb:33:2e:f9:57:b5, 2015-01-01 00:13:34.655,1.079,0.534,3.467,320.618,74.097,-136.719, , , , , , ,64.995,10.684,-100.728
 09:21:07.407,eb:33:2e:f9:57:b5, 2015-01-01 00:13:34.655,1.118,-0.016,3.16,319.702,67.444,-141.174, , , , , , ,66.605,11.47,-100.668
 09:21:07.407,eb:33:2e:f9:57:b5, 2015-01-01 00:13:34.655,0.982,-0.425,3.088,304.016,65.735,-142.517, , , , , , ,68.165,12.25,-100.64
 09:21:07.407,eb:33:2e:f9:57:b5, 2015-01-01 00:13:34.655,0.719,-0.752,3.113,279.663,65.674,-141.296, , , , , , ,69.631,13.041,-100.591
 09:21:07.407,eb:33:2e:f9:57:b5, 2015-01-01 00:13:34.655,0.739,-1.121,3.122,261.658,59.021,-139.771, , , , , , ,70.983,13.804,-100.53
 09:21:07.407,eb:33:2e:f9:57:b5, 2015-01-01 00:13:34.655,1.08,-1.369,3.387,255.188,46.875,-142.761, , , , , , ,72.274,14.551,-100.481
 09:21:07.407,eb:33:2e:f9:57:b5, 2015-01-01 00:13:34.655,1.315,-1.506,3.808,251.465,53.772,-154.541, , , , , , ,73.542,15.342,-100.464
 09:21:07.407,eb:33:2e:f9:57:b5, 2015-01-01 00:13:34.655,1.567,-1.806,3.984,248.84,74.585,-169.189, , , , , , ,74.811,16.221,-100.377
 09:21:07.407,eb:33:2e:f9:57:b5, 2015-01-01 00:13:34.655,1.69,-2.176,3.982,244.751,100.037,-185.12, , , , , , ,76.108,17.199,-100.157
 09:21:07.430,eb:33:2e:f9:57:b5, 2015-01-01 00:13:36.355,1.699,-2.484,3.653,235.901,118.286,-201.843, , , , , , ,77.41,18.276,-99.794
 09:21:07.430,eb:33:2e:f9:57:b5, 2015-01-01 00:13:36.355,1.668,-2.67,3.038,218.14,124.39,-217.407, , , , , , ,78.668,19.435,-99.388
 09:21:07.430,eb:33:2e:f9:57:b5, 2015-01-01 00:13:36.355,1.562,-2.741,2.373,189.27,118.164,-231.079, , , , , , ,79.805,20.665,-98.992
 09:21:07.430,eb:33:2e:f9:57:b5, 2015-01-01 00:13:36.355,1.423,-2.731,1.847,150.879,101.257,-241.821, , , , , , ,80.766,21.929,-98.63
 09:21:07.430,eb:33:2e:f9:57:b5, 2015-01-01 00:13:36.355,1.298,-2.665,1.589,108.093,79.895,-248.901, , , , , , ,81.497,23.214,-98.333
 09:21:07.430,eb:33:2e:f9:57:b5, 2015-01-01 00:13:36.355,1.21,-2.615,1.691,68.298,61.34,-253.052, , , , , , ,81.98,24.505,-98.163
 09:21:07.430,eb:33:2e:f9:57:b5, 2015-01-01 00:13:36.355,1.116,-2.632,2.003,35.095,50.903,-253.113, , , , , , ,82.244,25.801,-98.069
 09:21:07.430,eb:33:2e:f9:57:b5, 2015-01-01 00:13:36.355,0.976,-2.719,2.269,7.019,52.49,-247.131, , , , , , ,82.375,27.076,-97.976
 09:21:07.475,eb:33:2e:f9:57:b5, 2015-01-01 00:13:36.355,0.866,-2.834,2.362,-18.555,62.866,-233.704, , , , , , ,82.397,28.301,-97.8
 09:21:07.475,eb:33:2e:f9:57:b5, 2015-01-01 00:13:36.355,0.783,-2.903,2.333,-42.969,80.017,-213.684, , , , , , ,82.348,29.449,-97.559
 09:21:07.475,eb:33:2e:f9:57:b5, 2015-01-01 00:13:36.355,0.648,-2.858,2.208,-66.223,97.29,-190.002, , , , , , ,82.216,30.504,-97.218
 09:21:07.475,eb:33:2e:f9:57:b5, 2015-01-01 00:13:36.355,0.529,-2.722,2.025,-87.769,105.286,-163.757, , , , , , ,82.051,31.437,-96.762
 09:21:07.475,eb:33:2e:f9:57:b5, 2015-01-01 00:13:36.355,0.417,-2.529,1.91,-107.422,105.469,-135.986, , , , , , ,81.815,32.245,-96.24
 09:21:07.475,eb:33:2e:f9:57:b5, 2015-01-01 00:13:36.355,0.38,-2.257,1.831,-129.456,98.999,-101.685, , , , , , ,81.48,32.888,-95.74
 09:21:07.475,eb:33:2e:f9:57:b5, 2015-01-01 00:13:36.355,0.379,-2.072,1.848,-145.325,90.942,-72.754, , , , , , ,81.008,33.382,-95.29
 09:21:07.475,eb:33:2e:f9:57:b5, 2015-01-01 00:13:36.355,0.351,-1.942,1.921,-157.837,82.764,-43.64, , , , , , ,80.491,33.728,-94.834
 09:21:07.520,eb:33:2e:f9:57:b5, 2015-01-01 00:13:36.355,0.3,-1.874,1.997,-166.687,71.899,-13.611, , , , , , ,79.915,33.92,-94.378
 09:21:07.520,eb:33:2e:f9:57:b5, 2015-01-01 00:13:36.355,0.244,-1.845,2.004,-174.194,57.19,17.395, , , , , , ,79.266,33.953,-93.999
 09:21:07.520,eb:33:2e:f9:57:b5, 2015-01-01 00:13:36.355,0.235,-1.855,1.939,-183.716,39.551,49.805, , , , , , ,78.503,33.827,-93.719
 09:21:07.520,eb:33:2e:f9:57:b5, 2015-01-01 00:13:36.355,0.272,-1.881,1.832,-199.097,25.818,82.764, , , , , , ,77.69,33.519,-93.45
 09:21:07.520,eb:33:2e:f9:57:b5, 2015-01-01 00:13:36.355,0.485,-1.894,1.703,-220.703,19.836,115.295, , , , , , ,76.772,33.041,-93.164
 09:21:07.520,eb:33:2e:f9:57:b5, 2015-01-01 00:13:36.355,0.778,-1.759,1.582,-249.512,22.339,142.578, , , , , , ,75.751,32.421,-92.856
 09:21:07.520,eb:33:2e:f9:57:b5, 2015-01-01 00:13:36.355,1.035,-1.411,1.348,-283.813,22.461,161.194, , , , , , ,74.548,31.718,-92.532
 09:21:07.520,eb:33:2e:f9:57:b5, 2015-01-01 00:13:36.355,1.362,-0.962,1.034,-318.359,11.353,169.617, , , , , , ,73.213,30.938,-92.17
 09:21:07.542,eb:33:2e:f9:57:b5, 2015-01-01 00:13:36.355,1.679,-0.504,0.834,-349.792,-8.728,165.222, , , , , , ,71.669,30.135,-91.851
 09:21:07.542,eb:33:2e:f9:57:b5, 2015-01-01 00:13:36.355,1.824,-0.058,0.671,-375.366,-38.696,147.4, , , , , , ,69.917,29.355,-91.697
 09:21:07.542,eb:33:2e:f9:57:b5, 2015-01-01 00:13:36.355,1.936,0.336,0.45,-393.86,-82.336,121.765, , , , , , ,67.901,28.63,-91.807
 09:21:07.542,eb:33:2e:f9:57:b5, 2015-01-01 00:13:36.355,1.916,0.602,0.378,-405.212,-130.31,89.844, , , , , , ,65.726,27.938,-92.159
 09:21:07.542,eb:33:2e:f9:57:b5, 2015-01-01 00:13:36.355,1.801,0.668,0.429,-412.598,-176.819,57.373, , , , , , ,63.38,27.279,-92.78
 09:21:07.542,eb:33:2e:f9:57:b5, 2015-01-01 00:13:36.355,1.732,0.538,0.625,-421.936,-211.609,29.358, , , , , , ,60.892,26.636,-93.664
 09:21:07.544,eb:33:2e:f9:57:b5, 2015-01-01 00:13:36.355,1.644,0.333,1,-436.768,-223.206,8.606, , , , , , ,58.239,26.005,-94.713
 09:21:07.544,eb:33:2e:f9:57:b5, 2015-01-01 00:13:36.355,1.489,0.127,1.393,-456.238,-215.637,-3.845, , , , , , ,55.558,25.406,-95.735
 09:21:07.587,eb:33:2e:f9:57:b5, 2015-01-01 00:13:36.355,1.375,0,1.59,-478.027,-203.552,-9.949, , , , , , ,52.8,24.829,-96.68
 09:21:07.587,eb:33:2e:f9:57:b5, 2015-01-01 00:13:36.355,1.338,-0.042,1.611,-500.427,-198.303,-12.817, , , , , , ,49.966,24.247,-97.575
 09:21:07.587,eb:33:2e:f9:57:b5, 2015-01-01 00:13:36.355,1.264,-0.056,1.54,-520.63,-206.238,-15.32, , , , , , ,47,23.626,-98.487
 09:21:07.587,eb:33:2e:f9:57:b5, 2015-01-01 00:13:36.355,1.265,-0.053,1.367,-536.255,-230.591,-16.602, , , , , , ,43.984,22.912,-99.404
 09:21:07.587,eb:33:2e:f9:57:b5, 2015-01-01 00:13:36.355,1.369,-0.098,1.397,-545.471,-265.198,-16.235, , , , , , ,40.897,22.044,-100.371
 09:21:07.587,eb:33:2e:f9:57:b5, 2015-01-01 00:13:36.355,1.465,-0.164,1.643,-549.377,-299.438,-14.587, , , , , , ,37.771,20.984,-101.415
 09:21:07.588,eb:33:2e:f9:57:b5, 2015-01-01 00:13:36.355,1.546,-0.23,1.985,-548.645,-327.637,-12.573, , , , , , ,34.607,19.726,-102.497
 09:21:07.588,eb:33:2e:f9:57:b5, 2015-01-01 00:13:36.355,1.459,-0.281,2.314,-543.579,-348.328,-12.573, , , , , , ,31.542,18.336,-103.535
 09:21:07.634,eb:33:2e:f9:57:b5, 2015-01-01 00:13:36.355,1.343,-0.28,2.44,-536.804,-370.422,-12.756, , , , , , ,28.537,16.804,-104.535
 09:21:07.634,eb:33:2e:f9:57:b5, 2015-01-01 00:13:36.355,1.319,-0.302,2.644,-530.273,-389.893,-13.062, , , , , , ,25.604,15.128,-105.502
 09:21:07.634,eb:33:2e:f9:57:b5, 2015-01-01 00:13:36.355,1.306,-0.335,2.945,-524.475,-401.855,-14.343, , , , , , ,22.698,13.321,-106.43
 09:21:07.634,eb:33:2e:f9:57:b5, 2015-01-01 00:13:36.355,1.336,-0.356,3.17,-518.799,-408.325,-16.174, , , , , , ,19.918,11.453,-107.26
 09:21:07.634,eb:33:2e:f9:57:b5, 2015-01-01 00:13:36.355,1.312,-0.324,3.381,-512.817,-410.095,-20.874, , , , , , ,17.199,9.542,-108.007
 09:21:07.634,eb:33:2e:f9:57:b5, 2015-01-01 00:13:36.355,1.229,-0.181,3.459,-504.883,-416.504,-30.151, , , , , , ,14.551,7.586,-108.704
 09:21:07.634,eb:33:2e:f9:57:b5, 2015-01-01 00:13:36.355,1.009,0.041,3.438,-494.751,-433.411,-40.771, , , , , , ,11.931,5.526,-109.396
 09:21:07.634,eb:33:2e:f9:57:b5, 2015-01-01 00:13:36.355,0.721,0.292,3.536,-481.201,-463.013,-47.729, , , , , , ,9.448,3.356,-110.039
 09:21:07.746,eb:33:2e:f9:57:b5, 2015-01-01 00:13:36.355,0.344,0.455,3.832,-471.558,-485.413,-43.945, , , , , , ,7.048,1.027,-110.605
 09:21:07.746,eb:33:2e:f9:57:b5, 2015-01-01 00:13:36.355,-0.088,0.542,4.258,-463.44,-495.911,-27.466, , , , , , ,4.713,-1.401,-111.033
 09:21:07.746,eb:33:2e:f9:57:b5, 2015-01-01 00:13:36.355,-0.475,0.584,4.672,-456.665,-494.629,1.831, , , , , , ,2.379,-3.906,-111.248
 09:21:07.746,eb:33:2e:f9:57:b5, 2015-01-01 00:13:36.355,-0.811,0.614,4.979,-453.125,-481.567,42.786, , , , , , ,0.099,-6.35,-111.176
 09:21:07.746,eb:33:2e:f9:57:b5, 2015-01-01 00:13:36.355,-1.037,0.671,5.079,-452.332,-460.449,92.407, , , , , , ,-2.214,-8.69,-110.764
 09:21:07.746,eb:33:2e:f9:57:b5, 2015-01-01 00:13:36.355,-1.105,0.793,5.032,-450.928,-440.369,143.066, , , , , , ,-4.603,-10.887,-110.006
 09:21:07.746,eb:33:2e:f9:57:b5, 2015-01-01 00:13:36.355,-1.033,1.013,4.885,-443.848,-430.847,187.622, , , , , , ,-7.114,-12.986,-108.913
 09:21:07.746,eb:33:2e:f9:57:b5, 2015-01-01 00:13:36.355,-0.897,1.344,4.719,-427.917,-435.12,221.558, , , , , , ,-9.624,-14.969,-107.523
 09:21:07.768,eb:33:2e:f9:57:b5, 2015-01-01 00:13:36.645,-0.768,1.814,4.595,-404.602,-450.806,244.629, , , , , , ,-12.151,-16.93,-105.886
 09:21:07.768,eb:33:2e:f9:57:b5, 2015-01-01 00:13:36.645,-0.676,2.383,4.612,-377.502,-471.375,258.24, , , , , , ,-14.667,-18.885,-104.024
 09:21:07.768,eb:33:2e:f9:57:b5, 2015-01-01 00:13:36.645,-0.667,2.947,4.819,-349.731,-484.802,265.686, , , , , , ,-17.21,-20.852,-101.97
 09:21:07.768,eb:33:2e:f9:57:b5, 2015-01-01 00:13:36.645,-0.736,3.419,5.139,-322.754,-479.553,268.555, , , , , , ,-19.693,-22.725,-99.778
 09:21:07.768,eb:33:2e:f9:57:b5, 2015-01-01 00:13:36.645,-0.79,3.817,5.42,-297.18,-450.134,267.822, , , , , , ,-22.137,-24.417,-97.526
 09:21:07.768,eb:33:2e:f9:57:b5, 2015-01-01 00:13:36.645,-0.817,4.182,5.578,-274.109,-395.325,263.611, , , , , , ,-24.516,-25.818,-95.257
 09:21:07.768,eb:33:2e:f9:57:b5, 2015-01-01 00:13:36.645,-0.683,4.584,5.531,-255.249,-319.702,253.235, , , , , , ,-26.812,-26.851,-93.104
 09:21:07.769,eb:33:2e:f9:57:b5, 2015-01-01 00:13:36.645,-0.49,5.097,5.314,-240.662,-233.337,231.384, , , , , , ,-28.916,-27.477,-91.198
 09:21:07.769,eb:33:2e:f9:57:b5, 2015-01-01 00:13:36.645,-0.342,5.717,4.815,-227.661,-152.283,195.435, , , , , , ,-30.795,-27.746,-89.676
 09:21:07.769,eb:33:2e:f9:57:b5, 2015-01-01 00:13:36.645,-0.288,6.265,4.113,-211.426,-90.393,146.179, , , , , , ,-32.421,-27.795,-88.533
 09:21:07.769,eb:33:2e:f9:57:b5, 2015-01-01 00:13:36.645,-0.346,6.613,3.363,-189.636,-51.697,87.83, , , , , , ,-33.766,-27.762,-87.803
 09:21:07.769,eb:33:2e:f9:57:b5, 2015-01-01 00:13:36.645,-0.577,6.698,2.704,-163.818,-31.677,27.832, , , , , , ,-34.81,-27.779,-87.435
 09:21:07.769,eb:33:2e:f9:57:b5, 2015-01-01 00:13:36.645,-0.929,6.478,2.204,-138.062,-21.729,-25.085, , , , , , ,-35.579,-27.9,-87.402
 09:21:07.769,eb:33:2e:f9:57:b5, 2015-01-01 00:13:36.645,-1.363,6.046,1.92,-114.746,-13.489,-64.392, , , , , , ,-36.118,-28.114,-87.578
 09:21:07.770,eb:33:2e:f9:57:b5, 2015-01-01 00:13:36.645,-1.732,5.538,1.801,-92.651,-3.845,-87.463, , , , , , ,-36.458,-28.383,-87.913
 09:21:07.770,eb:33:2e:f9:57:b5, 2015-01-01 00:13:36.645,-1.953,4.997,1.825,-67.81,9.399,-95.154, , , , , , ,-36.639,-28.647,-88.352
 09:21:07.835,eb:33:2e:f9:57:b5, 2015-01-01 00:13:36.645,-2.008,4.476,1.871,-40.466,24.78,-91.37, , , , , , ,-36.661,-28.85,-88.874
 09:21:07.835,eb:33:2e:f9:57:b5, 2015-01-01 00:13:36.645,-1.916,3.978,1.854,-13.794,39.062,-80.383, , , , , , ,-36.541,-28.971,-89.379
 09:21:07.835,eb:33:2e:f9:57:b5, 2015-01-01 00:13:36.645,-1.767,3.509,1.802,11.108,51.575,-65.186, , , , , , ,-36.277,-28.993,-89.874
 09:21:07.835,eb:33:2e:f9:57:b5, 2015-01-01 00:13:36.645,-1.624,3.091,1.763,36.926,62.134,-48.157, , , , , , ,-35.931,-28.922,-90.324
 09:21:07.835,eb:33:2e:f9:57:b5, 2015-01-01 00:13:36.645,-1.522,2.715,1.704,65.613,68.298,-31.006, , , , , , ,-35.469,-28.762,-90.742
 09:21:07.835,eb:33:2e:f9:57:b5, 2015-01-01 00:13:36.645,-1.444,2.306,1.569,95.459,68.542,-13.489, , , , , , ,-34.898,-28.542,-91.066
 09:21:07.835,eb:33:2e:f9:57:b5, 2015-01-01 00:13:36.645,-1.427,1.811,1.392,123.901,64.392,6.409, , , , , , ,-34.2,-28.273,-91.302
 09:21:07.835,eb:33:2e:f9:57:b5, 2015-01-01 00:13:36.645,-1.434,1.174,1.15,150.696,56.274,30.457, , , , , , ,-33.459,-27.966,-91.39
 09:21:07.838,eb:33:2e:f9:57:b5, 2015-01-01 00:13:36.645,-1.714,0.348,0.584,181.396,46.692,64.758, , , , , , ,-32.651,-27.614,-91.34
 09:21:07.838,eb:33:2e:f9:57:b5, 2015-01-01 00:13:36.645,5.637,-0.278,-0.179,218.811,1.77,91.248, , , , , , ,-31.8,-27.274,-91.027
 09:21:07.838,eb:33:2e:f9:57:b5, 2015-01-01 00:13:36.645,-0.708,0.527,8.401,565.491,66.772,-125.244, , , , , , ,-29.718,-27.883,-90.956
 09:21:07.838,eb:33:2e:f9:57:b5, 2015-01-01 00:13:36.645,5.904,7.782,5.822,923.95,331.543,-354.248, , , , , , ,-24.84,-27.092,-93.021
 09:21:07.838,eb:33:2e:f9:57:b5, 2015-01-01 00:13:36.645,-0.282,10.276,2.911,859.192,372.314,-512.39, , , , , , ,-18.973,-26.439,-96.136
 09:21:07.838,eb:33:2e:f9:57:b5, 2015-01-01 00:13:36.645,-0.397,8.222,8.667,853.76,611.755,-414.612, , , , , , ,-13.074,-24.791,-99.196
 09:21:07.838,eb:33:2e:f9:57:b5, 2015-01-01 00:13:36.645,0.033,4.818,9.27,455.75,1025.696,-281.677, , , , , , ,-8.91,-20.847,-102.112
 09:21:07.838,eb:33:2e:f9:57:b5, 2015-01-01 00:13:36.645,3.844,-2.39,4.735,393.86,1136.719,132.69, , , , , , ,-6.658,-15.441,-102.975
 09:21:07.906,eb:33:2e:f9:57:b5, 2015-01-01 00:13:36.645,-6.316,5.857,-3.276,159.973,826.233,33.02, , , , , , ,-5.158,-10.102,-102.942
 09:21:07.906,eb:33:2e:f9:57:b5, 2015-01-01 00:13:36.645,-8.979,1.516,-1.708,0.977,595.337,10.071, , , , , , ,-4.988,-6.872,-103.453
 09:21:07.906,eb:33:2e:f9:57:b5, 2015-01-01 00:13:36.645,-0.125,-1.599,-5.459,55.115,68.97,59.998, , , , , , ,-4.812,-5.367,-103.25
 09:21:07.906,eb:33:2e:f9:57:b5, 2015-01-01 00:13:36.645,1.03,-1.898,1.414,133.301,45.471,-10.071, , , , , , ,-4.329,-5.158,-103.26
 09:21:07.906,eb:33:2e:f9:57:b5, 2015-01-01 00:13:36.645,-0.583,-0.333,2.008,159.058,114.441,-9.644, , , , , , ,-3.521,-4.779,-103.315
 09:21:07.906,eb:33:2e:f9:57:b5, 2015-01-01 00:13:36.645,1.012,0.933,0.392,118.53,119.141,-6.287, , , , , , ,-2.851,-4.125,-103.403
 09:21:07.906,eb:33:2e:f9:57:b5, 2015-01-01 00:13:36.645,1.751,0.824,0.927,106.201,99.731,-40.344, , , , , , ,-2.241,-3.609,-103.535
 09:21:07.907,eb:33:2e:f9:57:b5, 2015-01-01 00:13:36.645,-1.1,0.625,1.725,100.525,152.466,-68.176, , , , , , ,-1.703,-2.966,-103.859
 09:21:07.971,eb:33:2e:f9:57:b5, 2015-01-01 00:13:36.645,-2.096,0.434,0.29,78.857,129.822,-53.406, , , , , , ,-1.252,-2.219,-104.205
 09:21:07.971,eb:33:2e:f9:57:b5, 2015-01-01 00:13:36.645,-0.736,-0.372,-0.27,80.505,39.001,-19.348, , , , , , ,-0.857,-1.868,-104.365
 09:21:07.971,eb:33:2e:f9:57:b5, 2015-01-01 00:13:36.645,0.437,-0.478,0.894,96.008,0,-9.277, , , , , , ,-0.357,-1.774,-104.425
 09:21:07.971,eb:33:2e:f9:57:b5, 2015-01-01 00:13:36.645,0.702,0.47,1.652,97.107,5.188,-18.738, , , , , , ,0.132,-1.78,-104.496
 09:21:07.971,eb:33:2e:f9:57:b5, 2015-01-01 00:13:36.645,0.517,0.346,2.29,99.609,28.32,-19.409, , , , , , ,0.621,-1.692,-104.601
 09:21:07.972,eb:33:2e:f9:57:b5, 2015-01-01 00:13:36.645,-0.527,-0.179,1.924,116.882,34.79,-20.325, , , , , , ,1.17,-1.516,-104.694
 09:21:07.972,eb:33:2e:f9:57:b5, 2015-01-01 00:13:36.645,-0.572,-0.222,1.384,126.709,8.85,-6.531, , , , , , ,1.846,-1.384,-104.76
 09:21:07.972,eb:33:2e:f9:57:b5, 2015-01-01 00:13:36.645,-0.443,0.145,0.963,120.605,-20.325,10.925, , , , , , ,2.461,-1.428,-104.738
 09:21:07.991,eb:33:2e:f9:57:b5, 2015-01-01 00:13:36.645,-0.44,0.021,1.101,122.498,-46.814,29.968, , , , , , ,3.06,-1.615,-104.639
 09:21:07.991,eb:33:2e:f9:57:b5, 2015-01-01 00:13:36.645,-0.789,-0.377,1.599,139.038,-65.063,48.95, , , , , , ,3.713,-1.923,-104.453
 09:21:07.991,eb:33:2e:f9:57:b5, 2015-01-01 00:13:36.645,-1.058,-0.517,2.099,163.574,-84.229,78.796, , , , , , ,4.515,-2.291,-104.156
 09:21:07.991,eb:33:2e:f9:57:b5, 2015-01-01 00:13:36.645,-0.597,-0.528,2.621,200.195,-118.713,114.685, , , , , , ,5.416,-2.862,-103.689
 09:21:07.991,eb:33:2e:f9:57:b5, 2015-01-01 00:13:36.645,-0.197,-0.673,4.079,245.544,-123.718,112.854, , , , , , ,6.52,-3.532,-103.184
 09:21:07.991,eb:33:2e:f9:57:b5, 2015-01-01 00:13:36.645,0.404,-1.106,4.528,310.059,-136.719,95.947, , , , , , ,7.916,-4.235,-102.75
 09:21:07.991,eb:33:2e:f9:57:b5, 2015-01-01 00:13:36.645,0.795,-1.185,4.701,377.197,-141.724,76.05, , , , , , ,9.679,-4.977,-102.448
 09:21:07.991,eb:33:2e:f9:57:b5, 2015-01-01 00:13:36.645,1.06,-1.067,4.576,446.899,-135.376,58.533, , , , , , ,11.75,-5.729,-102.255
 09:21:08.016,eb:33:2e:f9:57:b5, 2015-01-01 00:13:36.645,1.593,-0.996,4.793,526.123,-124.268,28.625, , , , , , ,14.227,-6.394,-102.195
 09:21:08.016,eb:33:2e:f9:57:b5, 2015-01-01 00:13:36.645,1.201,-1.066,5.991,584.534,-93.018,-7.141, , , , , , ,17.045,-6.927,-102.31
 09:21:08.016,eb:33:2e:f9:57:b5, 2015-01-01 00:13:36.645,0.995,-1.468,6.722,623.779,-24.658,-34.485, , , , , , ,20.149,-7.114,-102.519
 09:21:08.016,eb:33:2e:f9:57:b5, 2015-01-01 00:13:36.645,1.048,-1.876,5.39,668.335,26.123,-46.875, , , , , , ,23.428,-6.987,-102.7
 09:21:08.016,eb:33:2e:f9:57:b5, 2015-01-01 00:13:36.645,1.417,-1.398,4.244,693.115,33.691,-71.96, , , , , , ,26.878,-6.702,-102.892
 09:21:08.016,eb:33:2e:f9:57:b5, 2015-01-01 00:13:36.645,1.743,-1.333,4.012,717.468,11.658,-107.727, , , , , , ,30.454,-6.4,-103.266
 09:21:08.016,eb:33:2e:f9:57:b5, 2015-01-01 00:13:36.645,1.374,-1.766,4.383,743.774,26.062,-135.864, , , , , , ,34.2,-5.988,-103.76
 09:21:08.016,eb:33:2e:f9:57:b5, 2015-01-01 00:13:36.645,0.968,-1.848,5.268,763.184,65.735,-139.709, , , , , , ,38.035,-5.4,-104.189
 09:21:08.060,eb:33:2e:f9:57:b5, 2015-01-01 00:13:36.645,0.817,-0.867,5.943,767.395,107.178,-143.555, , , , , , ,41.88,-4.598,-104.425
 09:21:08.060,eb:33:2e:f9:57:b5, 2015-01-01 00:13:36.645,0.467,0.174,5.765,736.389,141.113,-154.297, , , , , , ,45.654,-3.647,-104.546
 09:21:08.060,eb:33:2e:f9:57:b5, 2015-01-01 00:13:36.645,-0.006,0.915,4.934,642.578,207.336,-137.207, , , , , , ,49.092,-2.477,-104.387
 09:21:08.060,eb:33:2e:f9:57:b5, 2015-01-01 00:13:36.645,1.063,0.465,2.528,513,271.79,-111.511, , , , , , ,51.905,-1.225,-103.815
 09:21:08.060,eb:33:2e:f9:57:b5, 2015-01-01 00:13:36.645,2.576,0.875,-0.27,358.276,341.675,-110.229, , , , , , ,54.003,0.143,-102.87
 09:21:08.060,eb:33:2e:f9:57:b5, 2015-01-01 00:13:36.645,1.457,1.291,-0.536,271.606,402.527,-117.432, , , , , , ,55.492,1.73,-101.618
 09:21:08.060,eb:33:2e:f9:57:b5, 2015-01-01 00:13:36.645,1.119,3.082,-3.139,184.204,296.936,-133.728, , , , , , ,56.706,3.224,-100.525
 09:21:08.060,eb:33:2e:f9:57:b5, 2015-01-01 00:13:36.645,2.641,3.143,-2.9,74.707,122.986,-168.335, , , , , , ,57.288,4.411,-100.129
 09:21:08.105,eb:33:2e:f9:57:b5, 2015-01-01 00:13:36.645,2.424,1.9,-0.145,56.396,16.052,-193.909, , , , , , ,57.557,5.323,-100.382
 09:21:08.105,eb:33:2e:f9:57:b5, 2015-01-01 00:13:36.645,1.591,0.847,2.126,82.397,-21.606,-223.816, , , , , , ,57.838,6.185,-101.003
 09:21:08.105,eb:33:2e:f9:57:b5, 2015-01-01 00:13:36.645,1.493,0.528,3.229,147.827,-38.269,-248.352, , , , , , ,58.37,7.13,-101.777
 09:21:08.105,eb:33:2e:f9:57:b5, 2015-01-01 00:13:36.645,1.038,0.299,4.276,210.388,-22.522,-261.963, , , , , , ,59.2,8.152,-102.585
 09:21:08.105,eb:33:2e:f9:57:b5, 2015-01-01 00:13:36.645,0.76,-0.18,3.997,246.399,-6.714,-264.954, , , , , , ,60.26,9.261,-103.293
 09:21:08.105,eb:33:2e:f9:57:b5, 2015-01-01 00:13:36.645,0.47,-0.901,3.274,255.798,8.789,-256.836, , , , , , ,61.419,10.404,-103.925
 09:21:08.105,eb:33:2e:f9:57:b5, 2015-01-01 00:13:36.645,0.298,-1.555,2.791,256.104,11.047,-242.126, , , , , , ,62.611,11.541,-104.469
 09:21:08.105,eb:33:2e:f9:57:b5, 2015-01-01 00:13:36.645,0.237,-1.827,2.703,246.033,11.658,-224.609, , , , , , ,63.765,12.601,-104.958
 09:21:08.108,eb:33:2e:f9:57:b5, 2015-01-01 00:13:36.645,0.307,-1.862,2.763,223.877,21.057,-204.529, , , , , , ,64.841,13.596,-105.326
 09:21:08.108,eb:33:2e:f9:57:b5, 2015-01-01 00:13:36.645,0.511,-1.989,3.096,199.585,44.861,-185.181, , , , , , ,65.819,14.54,-105.579
 09:21:08.108,eb:33:2e:f9:57:b5, 2015-01-01 00:13:36.645,0.751,-2.233,3.492,180.359,81.97,-168.823, , , , , , ,66.753,15.485,-105.634
 09:21:08.108,eb:33:2e:f9:57:b5, 2015-01-01 00:13:36.645,0.954,-2.478,3.618,164.429,124.207,-155.701, , , , , , ,67.654,16.436,-105.447
 09:21:08.108,eb:33:2e:f9:57:b5, 2015-01-01 00:13:36.645,1.076,-2.678,3.382,148.682,157.715,-144.836, , , , , , ,68.549,17.397,-105.002
 09:21:08.108,eb:33:2e:f9:57:b5, 2015-01-01 00:13:36.645,1.156,-2.768,2.852,130.981,172.058,-136.23, , , , , , ,69.412,18.353,-104.442
 09:21:08.108,eb:33:2e:f9:57:b5, 2015-01-01 00:13:36.645,1.208,-2.723,2.209,110.229,166.748,-130.31, , , , , , ,70.197,19.276,-103.843
 09:21:08.108,eb:33:2e:f9:57:b5, 2015-01-01 00:13:36.645,1.236,-2.555,1.622,85.632,145.508,-127.686, , , , , , ,70.862,20.138,-103.299
 09:21:08.219,eb:33:2e:f9:57:b5, 2015-01-01 00:13:36.645,1.277,-2.326,1.27,59.143,114.99,-129.7, , , , , , ,71.356,20.956,-102.843
 09:21:08.219,eb:33:2e:f9:57:b5, 2015-01-01 00:13:36.645,1.271,-2.095,1.249,33.569,83.13,-137.512, , , , , , ,71.664,21.742,-102.585
 09:21:08.219,eb:33:2e:f9:57:b5, 2015-01-01 00:13:36.645,1.248,-1.922,1.441,11.597,55.359,-149.231, , , , , , ,71.79,22.538,-102.502
 09:21:08.220,eb:33:2e:f9:57:b5, 2015-01-01 00:13:36.645,1.252,-1.887,1.76,-4.944,39.49,-161.682, , , , , , ,71.779,23.351,-102.541
 09:21:08.220,eb:33:2e:f9:57:b5, 2015-01-01 00:13:36.645,1.24,-2.001,2.16,-19.714,42.969,-174.133, , , , , , ,71.675,24.219,-102.596
 09:21:08.220,eb:33:2e:f9:57:b5, 2015-01-01 00:13:36.645,1.166,-2.116,2.321,-32.349,60.059,-180.603, , , , , , ,71.526,25.148,-102.634
 09:21:08.220,eb:33:2e:f9:57:b5, 2015-01-01 00:13:36.645,1.014,-2.177,2.27,-48.889,80.566,-182.617, , , , , , ,71.323,26.136,-102.59
 09:21:08.220,eb:33:2e:f9:57:b5, 2015-01-01 00:13:36.645,0.854,-2.194,2.073,-67.261,95.337,-178.955, , , , , , ,71.087,27.136,-102.442
 09:21:08.220,eb:33:2e:f9:57:b5, 2015-01-01 00:13:36.645,0.683,-2.175,1.896,-85.876,103.577,-169.8, , , , , , ,70.796,28.125,-102.189
 09:21:08.220,eb:33:2e:f9:57:b5, 2015-01-01 00:13:36.645,0.537,-2.133,1.779,-105.164,104.797,-156.128, , , , , , ,70.428,29.059,-101.937
 09:21:08.220,eb:33:2e:f9:57:b5, 2015-01-01 00:13:36.645,0.428,-2.049,1.707,-125.244,102.051,-138.367, , , , , , ,69.95,29.927,-101.684
 09:21:08.220,eb:33:2e:f9:57:b5, 2015-01-01 00:13:36.645,0.359,-1.96,1.719,-144.653,98.999,-116.333, , , , , , ,69.412,30.69,-101.393
 09:21:08.220,eb:33:2e:f9:57:b5, 2015-01-01 00:13:36.645,0.345,-1.931,1.843,-160.4,98.877,-90.515, , , , , , ,68.807,31.339,-101.036
 09:21:08.221,eb:33:2e:f9:57:b5, 2015-01-01 00:13:36.645,0.376,-1.91,1.966,-170.837,103.333,-62.927, , , , , , ,68.176,31.866,-100.646
 09:21:08.221,eb:33:2e:f9:57:b5, 2015-01-01 00:13:36.645,0.433,-1.845,1.991,-176.392,107.727,-34.424, , , , , , ,67.522,32.289,-100.19
 09:21:08.221,eb:33:2e:f9:57:b5, 2015-01-01 00:13:36.645,0.477,-1.735,1.91,-177.612,105.347,-6.348, , , , , , ,66.923,32.574,-99.651
 09:21:08.241,eb:33:2e:f9:57:b5, 2015-01-01 00:13:36.645,0.409,-1.596,1.781,-176.88,90.82,20.203, , , , , , ,66.335,32.728,-99.069
 09:21:08.241,eb:33:2e:f9:57:b5, 2015-01-01 00:13:36.645,0.359,-1.521,1.606,-175.72,62.317,48.462, , , , , , ,65.72,32.712,-98.575
 09:21:08.241,eb:33:2e:f9:57:b5, 2015-01-01 00:13:36.645,0.357,-1.566,1.522,-176.819,32.043,78.735, , , , , , ,65.017,32.509,-98.207
 09:21:08.241,eb:33:2e:f9:57:b5, 2015-01-01 00:13:36.645,0.405,-1.624,1.458,-184.265,6.653,109.558, , , , , , ,64.292,32.102,-97.872
 09:21:08.241,eb:33:2e:f9:57:b5, 2015-01-01 00:13:36.645,0.569,-1.566,1.35,-201.599,-12.268,139.954, , , , , , ,63.479,31.514,-97.542
 09:21:08.241,eb:33:2e:f9:57:b5, 2015-01-01 00:13:36.645,0.82,-1.354,1.275,-228.76,-24.414,165.894, , , , , , ,62.551,30.773,-97.234
 09:21:08.241,eb:33:2e:f9:57:b5, 2015-01-01 00:13:36.645,1.083,-1.03,1.177,-261.78,-35.278,183.228, , , , , , ,61.43,29.927,-96.949
 09:21:08.241,eb:33:2e:f9:57:b5, 2015-01-01 00:13:36.645,1.371,-0.672,1.035,-295.532,-50.903,190.186, , , , , , ,60.167,28.998,-96.641
 09:21:08.352,eb:33:2e:f9:57:b5, 2015-01-01 00:13:36.645,1.665,-0.27,0.871,-327.393,-71.106,184.57, , , , , , ,58.705,28.032,-96.383
 09:21:08.352,eb:33:2e:f9:57:b5, 2015-01-01 00:13:36.645,1.903,0.143,0.742,-354.919,-97.473,167.419, , , , , , ,57.036,27.059,-96.273
 09:21:08.352,eb:33:2e:f9:57:b5, 2015-01-01 00:13:36.645,2.038,0.484,0.699,-375.244,-129.7,140.503, , , , , , ,55.118,26.109,-96.372
 09:21:08.352,eb:33:2e:f9:57:b5, 2015-01-01 00:13:36.645,2.045,0.692,0.749,-390.076,-162.964,108.093, , , , , , ,53.075,25.175,-96.652
 09:21:08.352,eb:33:2e:f9:57:b5, 2015-01-01 00:13:36.645,1.953,0.726,0.831,-404.053,-192.383,75.439, , , , , , ,50.878,24.269,-97.125
 09:21:08.352,eb:33:2e:f9:57:b5, 2015-01-01 00:13:36.645,1.809,0.596,1.008,-421.692,-210.022,47.424, , , , , , ,48.543,23.384,-97.773
 09:21:08.352,eb:33:2e:f9:57:b5, 2015-01-01 00:13:36.645,1.648,0.349,1.305,-441.956,-211.609,26.489, , , , , , ,46.055,22.538,-98.52
 09:21:08.352,eb:33:2e:f9:57:b5, 2015-01-01 00:13:36.645,1.536,0.146,1.521,-463.562,-203.43,12.573, , , , , , ,43.506,21.742,-99.24
 09:21:08.375,eb:33:2e:f9:57:b5, 2015-01-01 00:13:36.645,1.501,0.089,1.562,-484.253,-199.341,2.808, , , , , , ,40.869,20.978,-99.921
 09:21:08.375,eb:33:2e:f9:57:b5, 2015-01-01 00:13:36.645,1.58,0.179,1.494,-501.648,-207.214,-5.554, , , , , , ,38.145,20.198,-100.624
 09:21:08.375,eb:33:2e:f9:57:b5, 2015-01-01 00:13:36.645,1.682,0.31,1.497,-513.367,-226.196,-15.259, , , , , , ,35.305,19.352,-101.393
 09:21:08.375,eb:33:2e:f9:57:b5, 2015-01-01 00:13:36.645,1.69,0.384,1.571,-517.639,-251.343,-25.94, , , , , , ,32.459,18.408,-102.195
 09:21:08.375,eb:33:2e:f9:57:b5, 2015-01-01 00:13:36.645,1.623,0.367,1.658,-514.832,-278.625,-35.645, , , , , , ,29.608,17.342,-103.057
 09:21:08.375,eb:33:2e:f9:57:b5, 2015-01-01 00:13:36.645,1.428,0.298,1.778,-506.104,-306.458,-42.664, , , , , , ,26.796,16.139,-103.969
 09:21:08.375,eb:33:2e:f9:57:b5, 2015-01-01 00:13:36.645,1.333,0.137,2.004,-489.624,-335.938,-43.762, , , , , , ,24.022,14.749,-104.919
 09:21:08.375,eb:33:2e:f9:57:b5, 2015-01-01 00:13:36.645,1.19,0.012,2.306,-473.083,-349.182,-40.405, , , , , , ,21.407,13.239,-105.804
 09:21:08.377,eb:33:2e:f9:57:b5, 2015-01-01 00:13:36.645,1.02,-0.047,2.436,-454.529,-359.741,-33.63, , , , , , ,18.918,11.635,-106.6
 09:21:08.377,eb:33:2e:f9:57:b5, 2015-01-01 00:13:36.645,0.897,-0.082,2.48,-435.73,-369.385,-23.56, , , , , , ,16.573,9.932,-107.303
 09:21:08.377,eb:33:2e:f9:57:b5, 2015-01-01 00:13:36.645,0.839,-0.133,2.579,-417.542,-374.878,-12.451, , , , , , ,14.315,8.135,-107.902
 09:21:08.377,eb:33:2e:f9:57:b5, 2015-01-01 00:13:36.645,0.81,-0.126,2.646,-399.658,-380.005,-1.831, , , , , , ,12.217,6.301,-108.369
 09:21:08.377,eb:33:2e:f9:57:b5, 2015-01-01 00:13:36.645,0.752,-0.013,2.632,-384.033,-390.564,6.592, , , , , , ,10.234,4.406,-108.726
 09:21:08.377,eb:33:2e:f9:57:b5, 2015-01-01 00:13:36.645,0.641,0.122,2.568,-372.375,-410.767,12.451, , , , , , ,8.333,2.411,-109.001
 09:21:08.377,eb:33:2e:f9:57:b5, 2015-01-01 00:13:36.645,0.472,0.24,2.532,-367.371,-439.453,17.883, , , , , , ,6.443,0.258,-109.21
 09:21:08.377,eb:33:2e:f9:57:b5, 2015-01-01 00:13:36.645,0.31,0.373,2.637,-373.413,-469.238,26.428, , , , , , ,4.592,-2.027,-109.314
 09:21:08.466,eb:33:2e:f9:57:b5, 2015-01-01 00:13:36.645,0.105,0.471,2.941,-388.123,-492.31,38.269, , , , , , ,2.681,-4.449,-109.303
 09:21:08.466,eb:33:2e:f9:57:b5, 2015-01-01 00:13:36.645,-0.095,0.572,3.24,-406.982,-509.766,53.223, , , , , , ,0.67,-6.976,-109.138
 09:21:08.466,eb:33:2e:f9:57:b5, 2015-01-01 00:13:36.645,-0.199,0.715,3.42,-428.528,-523.865,70.557, , , , , , ,-1.516,-9.591,-108.803
 09:21:08.466,eb:33:2e:f9:57:b5, 2015-01-01 00:13:36.645,-0.301,0.816,3.625,-446.533,-527.527,89.294, , , , , , ,-3.823,-12.206,-108.259
 09:21:08.466,eb:33:2e:f9:57:b5, 2015-01-01 00:13:36.645,-0.461,0.898,3.912,-452.698,-521.851,106.567, , , , , , ,-6.251,-14.777,-107.518
 09:21:08.466,eb:33:2e:f9:57:b5, 2015-01-01 00:13:36.645,-0.675,1.104,4.155,-446.35,-515.076,121.948, , , , , , ,-8.767,-17.265,-106.567
 09:21:08.466,eb:33:2e:f9:57:b5, 2015-01-01 00:13:36.645,-0.873,1.353,4.379,-430.298,-509.827,136.902, , , , , , ,-11.36,-19.693,-105.408
 09:21:08.466,eb:33:2e:f9:57:b5, 2015-01-01 00:13:36.645,-1.042,1.618,4.69,-409.119,-500.549,152.039, , , , , , ,-13.931,-21.995,-104.057
 09:21:08.466,eb:33:2e:f9:57:b5, 2015-01-01 00:13:36.645,-1.2,1.965,5.079,-390.137,-478.943,167.908, , , , , , ,-16.523,-24.142,-102.524
 09:21:08.467,eb:33:2e:f9:57:b5, 2015-01-01 00:13:36.645,-1.32,2.382,5.463,-375.671,-442.444,183.289, , , , , , ,-19.155,-26.049,-100.816
 09:21:08.467,eb:33:2e:f9:57:b5, 2015-01-01 00:13:36.645,-1.348,2.82,5.75,-362.854,-385.193,194.885, , , , , , ,-21.846,-27.642,-99.003
 09:21:08.467,eb:33:2e:f9:57:b5, 2015-01-01 00:13:36.645,-1.234,3.29,5.833,-347.778,-318.237,199.158, , , , , , ,-24.472,-28.845,-97.196
 09:21:08.467,eb:33:2e:f9:57:b5, 2015-01-01 00:13:36.645,-0.978,3.815,5.723,-329.102,-245.972,193.848, , , , , , ,-26.988,-29.658,-95.521
 09:21:08.468,eb:33:2e:f9:57:b5, 2015-01-01 00:13:36.645,-0.676,4.394,5.496,-307.19,-173.706,178.528, , , , , , ,-29.312,-30.114,-94.026
 09:21:08.468,eb:33:2e:f9:57:b5, 2015-01-01 00:13:36.645,-0.414,5.023,5.191,-283.875,-103.638,153.015, , , , , , ,-31.404,-30.267,-92.812
 09:21:08.468,eb:33:2e:f9:57:b5, 2015-01-01 00:13:36.645,-0.33,5.604,4.696,-256.47,-43.152,118.896, , , , , , ,-33.173,-30.19,-91.961
 09:21:08.470,eb:33:2e:f9:57:b5, 2015-01-01 00:13:36.645,-0.439,6.014,3.877,-221.191,-7.812,79.773, , , , , , ,-34.618,-30.004,-91.461
 09:21:08.470,eb:33:2e:f9:57:b5, 2015-01-01 00:13:36.645,-0.794,6.095,2.943,-180.298,-3.601,42.908, , , , , , ,-35.744,-29.855,-91.181
 09:21:08.470,eb:33:2e:f9:57:b5, 2015-01-01 00:13:36.645,-1.257,5.863,2.047,-140.198,-28.625,14.709, , , , , , ,-36.606,-29.844,-91.011
 09:21:08.470,eb:33:2e:f9:57:b5, 2015-01-01 00:13:36.645,-1.738,5.393,1.434,-103.088,-67.2,1.709, , , , , , ,-37.299,-30.037,-90.802
 09:21:08.470,eb:33:2e:f9:57:b5, 2015-01-01 00:13:36.645,-2.133,4.835,1.243,-66.406,-102.539,4.395, , , , , , ,-37.87,-30.383,-90.505
 09:21:08.470,eb:33:2e:f9:57:b5, 2015-01-01 00:13:36.645,-2.345,4.41,1.478,-29.724,-122.375,18.127, , , , , , ,-38.331,-30.806,-90.033
 09:21:08.470,eb:33:2e:f9:57:b5, 2015-01-01 00:13:36.645,-2.372,4.13,1.938,5.371,-119.934,37.476, , , , , , ,-38.655,-31.19,-89.462
 09:21:08.470,eb:33:2e:f9:57:b5, 2015-01-01 00:13:36.645,-2.194,3.917,2.295,35.95,-97.412,57.373, , , , , , ,-38.859,-31.454,-88.835
 09:21:08.577,eb:33:2e:f9:57:b5, 2015-01-01 00:13:36.645,-2.004,3.631,2.499,67.688,-51.392,77.454, , , , , , ,-38.892,-31.514,-88.281
 09:21:08.577,eb:33:2e:f9:57:b5, 2015-01-01 00:13:36.645,-1.807,3.402,2.438,93.872,-15.564,86.67, , , , , , ,-38.727,-31.366,-87.792
 09:21:08.577,eb:33:2e:f9:57:b5, 2015-01-01 00:13:36.645,-1.586,3.162,2.186,118.164,4.7,88.013, , , , , , ,-38.37,-31.091,-87.396
 09:21:08.577,eb:33:2e:f9:57:b5, 2015-01-01 00:13:36.645,-1.376,2.873,1.893,136.902,14.282,83.191, , , , , , ,-37.903,-30.789,-87.045
 09:21:08.577,eb:33:2e:f9:57:b5, 2015-01-01 00:13:36.645,-1.208,2.587,1.677,150.574,19.47,73.975, , , , , , ,-37.326,-30.476,-86.776
 09:21:08.577,eb:33:2e:f9:57:b5, 2015-01-01 00:13:36.645,-1.009,2.334,1.587,159.607,24.231,59.753, , , , , , ,-36.661,-30.196,-86.55
 09:21:08.577,eb:33:2e:f9:57:b5, 2015-01-01 00:13:36.645,-0.804,2.054,1.605,164.246,35.522,42.114, , , , , , ,-35.87,-29.916,-86.44
 09:21:08.577,eb:33:2e:f9:57:b5, 2015-01-01 00:13:36.645,-0.735,1.682,1.588,166.016,56.091,21.912, , , , , , ,-35.035,-29.641,-86.457
 09:21:08.579,eb:33:2e:f9:57:b5, 2015-01-01 00:13:36.645,6.316,1.286,1.244,168.03,72.266,-0.732, , , , , , ,-34.118,-29.328,-86.666
 09:21:08.579,eb:33:2e:f9:57:b5, 2015-01-01 00:13:36.645,1.161,1.825,8.119,510.193,-68.481,-325.745, , , , , , ,-32.108,-30.223,-87.264
 09:21:08.579,eb:33:2e:f9:57:b5, 2015-01-01 00:13:36.645,4.659,7.777,-1.653,607.3,313.416,-504.578, , , , , , ,-27.554,-29.685,-90.225
 09:21:08.579,eb:33:2e:f9:57:b5, 2015-01-01 00:13:36.645,4.566,6.944,6.262,683.167,295.776,-505.371, , , , , , ,-22.522,-29.707,-94.257
 09:21:08.579,eb:33:2e:f9:57:b5, 2015-01-01 00:13:36.645,-1.394,8.266,6.97,623.23,414.978,-339.478, , , , , , ,-17.825,-28.801,-97.009
 09:21:08.579,eb:33:2e:f9:57:b5, 2015-01-01 00:13:36.645,-1.315,5.333,9.458,382.324,708.069,-209.534, , , , , , ,-14.189,-26.301,-99.388
 09:21:08.579,eb:33:2e:f9:57:b5, 2015-01-01 00:13:36.645,1.27,-0.144,6.619,298.462,797.302,82.458, , , , , , ,-12.14,-22.665,-100.404
 09:21:08.579,eb:33:2e:f9:57:b5, 2015-01-01 00:13:36.645,-2.223,1.31,2.407,220.703,683.655,44.434, , , , , , ,-10.706,-18.836,-100.887
 09:21:08.599,eb:33:2e:f9:57:b5, 2015-01-01 00:13:36.645,-1.857,-1.164,-0.491,205.322,472.656,20.02, , , , , , ,-9.608,-16.177,-101.25
 09:21:08.599,eb:33:2e:f9:57:b5, 2015-01-01 00:13:36.645,0.883,-0.563,0.237,250.61,461.487,-17.639, , , , , , ,-8.328,-13.92,-101.602
 09:21:08.599,eb:33:2e:f9:57:b5, 2015-01-01 00:13:36.645,1.732,-0.675,0.076,275.33,376.648,-69.763, , , , , , ,-6.828,-11.849,-102.162
 09:21:08.599,eb:33:2e:f9:57:b5, 2015-01-01 00:13:36.645,-1.013,1.575,1.188,233.459,396.545,-108.398, , , , , , ,-5.411,-9.97,-102.865
 09:21:08.599,eb:33:2e:f9:57:b5, 2015-01-01 00:13:36.645,-0.223,1.872,-0.252,143.982,331.726,-70.496, , , , , , ,-4.427,-8.234,-103.48
 09:21:08.599,eb:33:2e:f9:57:b5, 2015-01-01 00:13:36.645,-0.31,0.855,-0.769,116.211,234.558,-80.75, , , , , , ,-3.741,-6.954,-103.92
 09:21:08.599,eb:33:2e:f9:57:b5, 2015-01-01 00:13:36.645,-2.099,0.377,-0.125,93.018,207.825,-76.172, , , , , , ,-3.115,-5.828,-104.403
 09:21:08.599,eb:33:2e:f9:57:b5, 2015-01-01 00:13:36.645,-2.117,0.192,-0.466,59.021,148.071,-44.312, , , , , , ,-2.725,-4.971,-104.744
 09:21:08.645,eb:33:2e:f9:57:b5, 2015-01-01 00:13:36.645,-0.613,-0.36,-0.053,53.284,70.74,-18.127, , , , , , ,-2.444,-4.504,-104.903
 09:21:08.645,eb:33:2e:f9:57:b5, 2015-01-01 00:13:36.645,0.679,-0.11,1.197,56.091,58.838,-13.062, , , , , , ,-2.164,-4.208,-104.98
 09:21:08.645,eb:33:2e:f9:57:b5, 2015-01-01 00:13:36.645,1.061,-0.022,2.182,70.312,86.304,-29.724, , , , , , ,-1.78,-3.818,-105.112
 09:21:08.645,eb:33:2e:f9:57:b5, 2015-01-01 00:13:36.645,0.19,0.166,2.226,79.956,125.977,-46.814, , , , , , ,-1.384,-3.274,-105.326
 09:21:08.645,eb:33:2e:f9:57:b5, 2015-01-01 00:13:36.645,-0.495,0.15,1.29,76.66,135.376,-46.875, , , , , , ,-0.978,-2.598,-105.59
 09:21:08.645,eb:33:2e:f9:57:b5, 2015-01-01 00:13:36.645,-0.819,0.082,0.458,72.51,108.154,-42.236, , , , , , ,-0.593,-2,-105.815
 09:21:08.645,eb:33:2e:f9:57:b5, 2015-01-01 00:13:36.645,-0.594,0.1,0.337,64.819,68.97,-31.067, , , , , , ,-0.198,-1.544,-106.002
 09:21:08.645,eb:33:2e:f9:57:b5, 2015-01-01 00:13:36.645,-0.345,0.095,1.059,59.021,45.593,-17.09, , , , , , ,0.099,-1.269,-106.111
 09:21:08.690,eb:33:2e:f9:57:b5, 2015-01-01 00:13:36.645,-0.355,-0.39,1.98,69.092,35.889,-2.197, , , , , , ,0.423,-1.06,-106.161
 09:21:08.690,eb:33:2e:f9:57:b5, 2015-01-01 00:13:36.645,-0.534,-0.426,2.329,106.201,12.268,28.931, , , , , , ,0.857,-0.95,-106.1
 09:21:08.690,eb:33:2e:f9:57:b5, 2015-01-01 00:13:36.645,-0.148,-0.442,2.807,157.471,-69.885,65.674, , , , , , ,1.588,-1.082,-105.831
 09:21:08.690,eb:33:2e:f9:57:b5, 2015-01-01 00:13:36.645,-1.63,0.037,3.172,186.89,-87.219,46.936, , , , , , ,2.461,-1.56,-105.573
 09:21:08.690,eb:33:2e:f9:57:b5, 2015-01-01 00:13:36.645,-1.125,-1.835,5.873,246.582,-67.2,75.806, , , , , , ,3.543,-1.928,-105.287
 09:21:08.690,eb:33:2e:f9:57:b5, 2015-01-01 00:13:36.645,-0.092,-2.209,6.142,339.172,-76.111,94.727, , , , , , ,5.037,-2.324,-104.865
 09:21:08.691,eb:33:2e:f9:57:b5, 2015-01-01 00:13:36.645,0.547,-1.801,4.787,423.157,-95.764,96.069, , , , , , ,7.009,-2.763,-104.436
 09:21:08.691,eb:33:2e:f9:57:b5, 2015-01-01 00:13:36.645,1.091,-1.569,3.449,507.874,-125.366,80.811, , , , , , ,9.366,-3.4,-104.084
 09:21:08.712,eb:33:2e:f9:57:b5, 2015-01-01 00:13:36.645,1.212,-0.792,4.594,551.636,-132.996,63.782, , , , , , ,12.03,-4.125,-103.859
 09:21:08.712,eb:33:2e:f9:57:b5, 2015-01-01 00:13:36.645,0.853,-2.066,5.461,617.92,-96.375,34.485, , , , , , ,14.969,-4.719,-103.76
 09:21:08.712,eb:33:2e:f9:57:b5, 2015-01-01 00:13:36.645,1.292,-2.174,5.584,677.368,-56.458,-4.089, , , , , , ,18.287,-5.059,-103.815
 09:21:08.712,eb:33:2e:f9:57:b5, 2015-01-01 00:13:36.645,1.764,-1.586,5.581,717.834,-38.147,-39.795, , , , , , ,21.819,-5.219,-104.008
 09:21:08.712,eb:33:2e:f9:57:b5, 2015-01-01 00:13:36.645,1.432,-1.55,5.008,757.202,-29.785,-77.637, , , , , , ,25.554,-5.235,-104.354
 09:21:08.712,eb:33:2e:f9:57:b5, 2015-01-01 00:13:36.645,1.01,-1.555,4.564,800.354,-9.216,-117.249, , , , , , ,29.515,-5.087,-104.854
 09:21:08.712,eb:33:2e:f9:57:b5, 2015-01-01 00:13:36.645,0.655,-0.953,5.125,801.575,5.737,-150.208, , , , , , ,33.64,-4.691,-105.452
 09:21:08.712,eb:33:2e:f9:57:b5, 2015-01-01 00:13:36.645,0.361,-0.94,6.203,741.15,50.903,-152.588, , , , , , ,37.507,-4.125,-105.98
 09:21:08.780,eb:33:2e:f9:57:b5, 2015-01-01 00:13:37.650,0.212,-0.691,7.913,743.347,167.358,-139.587, , , , , , ,41.193,-3.219,-106.183
 09:21:08.780,eb:33:2e:f9:57:b5, 2015-01-01 00:13:37.650,-0.434,-1.531,6.669,791.687,287.17,-106.934, , , , , , ,45.038,-1.917,-105.776
 09:21:08.780,eb:33:2e:f9:57:b5, 2015-01-01 00:13:37.650,-0.677,-0.381,2.029,716.614,267.09,-72.021, , , , , , ,48.867,-0.626,-105.046
 09:21:08.780,eb:33:2e:f9:57:b5, 2015-01-01 00:13:37.650,0.718,1.21,-0.738,515.686,193.97,-31.067, , , , , , ,51.872,0.269,-104.326
 09:21:08.780,eb:33:2e:f9:57:b5, 2015-01-01 00:13:37.650,1.932,1.083,-1.403,366.699,218.75,-18.799, , , , , , ,53.943,0.956,-103.568
 09:21:08.780,eb:33:2e:f9:57:b5, 2015-01-01 00:13:37.650,1.172,1.561,-0.812,344.299,187.988,-37.476, , , , , , ,55.723,1.697,-102.783
 09:21:08.780,eb:33:2e:f9:57:b5, 2015-01-01 00:13:37.650,0.91,2.854,-1.468,254.272,124.268,-60.486, , , , , , ,57.244,2.335,-102.294
 09:21:08.780,eb:33:2e:f9:57:b5, 2015-01-01 00:13:37.650,1.958,2.201,-0.027,179.81,39.49,-87.219, , , , , , ,58.255,2.845,-102.222
 09:21:08.804,eb:33:2e:f9:57:b5, 2015-01-01 00:13:37.650,1.314,1.083,2.834,173.279,42.786,-106.445, , , , , , ,59.117,3.367,-102.288
 09:21:08.804,eb:33:2e:f9:57:b5, 2015-01-01 00:13:37.650,1.279,0.4,3.44,211.243,44.556,-132.629, , , , , , ,60.062,4.01,-102.398
 09:21:08.804,eb:33:2e:f9:57:b5, 2015-01-01 00:13:37.650,1.065,0.187,4.001,277.283,36.926,-149.17, , , , , , ,61.326,4.752,-102.59
 09:21:08.804,eb:33:2e:f9:57:b5, 2015-01-01 00:13:37.650,0.705,-0.113,4.183,326.172,36.438,-159.729, , , , , , ,62.853,5.526,-102.788
 09:21:08.804,eb:33:2e:f9:57:b5, 2015-01-01 00:13:37.650,0.563,-0.5,3.807,341.492,37.537,-162.415, , , , , , ,64.517,6.334,-102.958
 09:21:08.804,eb:33:2e:f9:57:b5, 2015-01-01 00:13:37.650,0.476,-0.875,3.506,334.961,39.062,-162.537, , , , , , ,66.193,7.152,-103.123
 09:21:08.804,eb:33:2e:f9:57:b5, 2015-01-01 00:13:37.650,0.414,-1.166,3.427,317.749,43.701,-159.363, , , , , , ,67.813,7.993,-103.255
 09:21:08.804,eb:33:2e:f9:57:b5, 2015-01-01 00:13:37.650,0.518,-1.418,3.685,292.603,60.242,-153.564, , , , , , ,69.324,8.817,-103.304
 09:21:08.847,eb:33:2e:f9:57:b5, 2015-01-01 00:13:37.650,0.549,-1.59,4.028,262.634,97.107,-146.729, , , , , , ,70.714,9.657,-103.145
 09:21:08.847,eb:33:2e:f9:57:b5, 2015-01-01 00:13:37.650,0.686,-1.715,4.042,238.342,132.202,-142.151, , , , , , ,72.01,10.53,-102.805
 09:21:08.847,eb:33:2e:f9:57:b5, 2015-01-01 00:13:37.650,1.033,-1.798,3.904,220.459,156.311,-142.151, , , , , , ,73.24,11.442,-102.31
 09:21:08.847,eb:33:2e:f9:57:b5, 2015-01-01 00:13:37.650,1.305,-1.926,3.761,203.735,178.04,-149.475, , , , , , ,74.421,12.376,-101.689
 09:21:08.847,eb:33:2e:f9:57:b5, 2015-01-01 00:13:37.650,1.447,-2.058,3.56,193.665,187.439,-161.56, , , , , , ,75.564,13.37,-100.948
 09:21:08.847,eb:33:2e:f9:57:b5, 2015-01-01 00:13:37.650,1.47,-2.132,3.159,184.692,183.533,-178.406, , , , , , ,76.679,14.425,-100.234
 09:21:08.847,eb:33:2e:f9:57:b5, 2015-01-01 00:13:37.650,1.459,-2.153,2.637,173.096,167.175,-196.655, , , , , , ,77.728,15.562,-99.58
 09:21:08.848,eb:33:2e:f9:57:b5, 2015-01-01 00:13:37.650,1.388,-2.184,2.271,156.677,145.02,-213.928, , , , , , ,78.706,16.732,-99.014
 09:21:08.939,eb:33:2e:f9:57:b5, 2015-01-01 00:13:37.650,1.269,-2.251,2.12,136.047,122.986,-228.333, , , , , , ,79.563,17.952,-98.525
 09:21:08.939,eb:33:2e:f9:57:b5, 2015-01-01 00:13:37.650,1.182,-2.374,2.196,113.586,106.628,-238.281, , , , , , ,80.288,19.204,-98.157
 09:21:08.939,eb:33:2e:f9:57:b5, 2015-01-01 00:13:37.650,1.07,-2.537,2.443,91.736,101.318,-242.493, , , , , , ,80.887,20.495,-97.844
 09:21:08.939,eb:33:2e:f9:57:b5, 2015-01-01 00:13:37.650,0.946,-2.713,2.655,70.984,107.3,-239.075, , , , , , ,81.409,21.764,-97.493
 09:21:08.939,eb:33:2e:f9:57:b5, 2015-01-01 00:13:37.650,0.839,-2.848,2.744,49.622,122.437,-227.173, , , , , , ,81.865,23,-97.026
 09:21:08.939,eb:33:2e:f9:57:b5, 2015-01-01 00:13:37.650,0.717,-2.889,2.688,25.513,141.418,-209.351, , , , , , ,82.266,24.164,-96.465
 09:21:08.939,eb:33:2e:f9:57:b5, 2015-01-01 00:13:37.650,0.581,-2.83,2.468,-1.404,156.006,-186.279, , , , , , ,82.573,25.252,-95.801
 09:21:08.939,eb:33:2e:f9:57:b5, 2015-01-01 00:13:37.650,0.448,-2.721,2.25,-29.358,163.879,-158.386, , , , , , ,82.815,26.197,-95.037
 09:21:08.940,eb:33:2e:f9:57:b5, 2015-01-01 00:13:37.650,0.346,-2.584,2.144,-56.763,165.588,-126.77, , , , , , ,82.947,26.993,-94.186
 09:21:08.940,eb:33:2e:f9:57:b5, 2015-01-01 00:13:37.650,0.337,-2.43,2.13,-82.153,162.72,-93.933, , , , , , ,82.974,27.625,-93.345
 09:21:08.941,eb:33:2e:f9:57:b5, 2015-01-01 00:13:37.650,0.385,-2.242,2.099,-105.591,159.79,-60.486, , , , , , ,82.859,28.103,-92.516
 09:21:08.941,eb:33:2e:f9:57:b5, 2015-01-01 00:13:37.650,0.503,-2.088,2.035,-126.404,154.114,-27.771, , , , , , ,82.667,28.405,-91.664
 09:21:08.941,eb:33:2e:f9:57:b5, 2015-01-01 00:13:37.650,0.631,-1.983,1.946,-144.775,144.165,2.441, , , , , , ,82.375,28.548,-90.802
 09:21:08.941,eb:33:2e:f9:57:b5, 2015-01-01 00:13:37.650,0.688,-1.903,1.764,-160.522,128.479,29.663, , , , , , ,81.974,28.548,-90.022
 09:21:08.941,eb:33:2e:f9:57:b5, 2015-01-01 00:13:37.650,0.751,-1.84,1.531,-174.866,104.553,54.26, , , , , , ,81.414,28.427,-89.368
 09:21:08.941,eb:33:2e:f9:57:b5, 2015-01-01 00:13:37.650,0.841,-1.789,1.292,-189.88,75.745,75.867, , , , , , ,80.755,28.163,-88.819
 09:21:08.962,eb:33:2e:f9:57:b5, 2015-01-01 00:13:37.650,1.006,-1.751,1.097,-206.238,47.852,94.116, , , , , , ,79.948,27.784,-88.385
 09:21:08.962,eb:33:2e:f9:57:b5, 2015-01-01 00:13:37.650,1.219,-1.618,0.96,-225.891,25.208,106.689, , , , , , ,78.992,27.312,-88.094
 09:21:08.962,eb:33:2e:f9:57:b5, 2015-01-01 00:13:37.650,1.429,-1.291,0.734,-253.54,4.883,112.183, , , , , , ,77.833,26.801,-87.924
 09:21:08.962,eb:33:2e:f9:57:b5, 2015-01-01 00:13:37.650,1.636,-0.851,0.47,-287.842,-15.686,109.436, , , , , , ,76.509,26.252,-87.83
 09:21:08.962,eb:33:2e:f9:57:b5, 2015-01-01 00:13:37.650,1.807,-0.433,0.318,-323.486,-36.987,98.145, , , , , , ,74.954,25.714,-87.814
 09:21:08.962,eb:33:2e:f9:57:b5, 2015-01-01 00:13:37.650,1.889,-0.074,0.229,-356.75,-61.829,78.491, , , , , , ,73.174,25.225,-87.957
 09:21:08.962,eb:33:2e:f9:57:b5, 2015-01-01 00:13:37.650,1.976,0.229,0.111,-385.132,-95.093,52.307, , , , , , ,71.125,24.818,-88.308
 09:21:08.963,eb:33:2e:f9:57:b5, 2015-01-01 00:13:37.650,1.994,0.438,0.063,-407.471,-133.179,21.423, , , , , , ,68.901,24.456,-88.852
 09:21:09.006,eb:33:2e:f9:57:b5, 2015-01-01 00:13:37.650,1.926,0.487,0.087,-424.5,-172.668,-10.559, , , , , , ,66.484,24.148,-89.626
 09:21:09.006,eb:33:2e:f9:57:b5, 2015-01-01 00:13:37.650,1.851,0.377,0.202,-438.721,-210.144,-39.856, , , , , , ,63.891,23.862,-90.665
 09:21:09.006,eb:33:2e:f9:57:b5, 2015-01-01 00:13:37.650,1.74,0.221,0.439,-455.017,-237.183,-63.293, , , , , , ,61.111,23.588,-91.928
 09:21:09.006,eb:33:2e:f9:57:b5, 2015-01-01 00:13:37.650,1.583,0.048,0.772,-473.267,-252.747,-79.712, , , , , , ,58.239,23.28,-93.301
 09:21:09.006,eb:33:2e:f9:57:b5, 2015-01-01 00:13:37.650,1.379,-0.128,1.088,-491.76,-258.484,-88.806, , , , , , ,55.256,22.939,-94.708
 09:21:09.006,eb:33:2e:f9:57:b5, 2015-01-01 00:13:37.650,1.272,-0.285,1.314,-513.55,-262.573,-92.224, , , , , , ,52.18,22.533,-96.141
 09:21:09.006,eb:33:2e:f9:57:b5, 2015-01-01 00:13:37.650,1.276,-0.334,1.407,-529.846,-273.193,-91.736, , , , , , ,48.972,22.039,-97.603
 09:21:09.006,eb:33:2e:f9:57:b5, 2015-01-01 00:13:37.650,1.299,-0.314,1.497,-542.175,-291.077,-91.37, , , , , , ,45.747,21.412,-99.058
 09:21:09.049,eb:33:2e:f9:57:b5, 2015-01-01 00:13:37.650,1.37,-0.276,1.588,-549.438,-317.627,-91.431, , , , , , ,42.473,20.632,-100.536
 09:21:09.049,eb:33:2e:f9:57:b5, 2015-01-01 00:13:37.650,1.279,-0.246,1.761,-551.025,-349.243,-93.811, , , , , , ,39.183,19.66,-102.079
 09:21:09.049,eb:33:2e:f9:57:b5, 2015-01-01 00:13:37.650,1.089,-0.265,1.889,-549.011,-386.719,-92.896, , , , , , ,35.87,18.468,-103.694
 09:21:09.049,eb:33:2e:f9:57:b5, 2015-01-01 00:13:37.650,0.843,-0.336,2.154,-544.922,-418.457,-88.257, , , , , , ,32.651,17.04,-105.293
 09:21:09.049,eb:33:2e:f9:57:b5, 2015-01-01 00:13:37.650,0.565,-0.47,2.488,-538.147,-444.031,-76.66, , , , , , ,29.515,15.392,-106.809
 09:21:09.049,eb:33:2e:f9:57:b5, 2015-01-01 00:13:37.650,0.348,-0.623,2.79,-530.029,-460.449,-57.251, , , , , , ,26.494,13.535,-108.215
 09:21:09.049,eb:33:2e:f9:57:b5, 2015-01-01 00:13:37.650,0.17,-0.781,3.112,-522.339,-464.722,-31.25, , , , , , ,23.56,11.508,-109.435
 09:21:09.049,eb:33:2e:f9:57:b5, 2015-01-01 00:13:37.650,0.062,-0.875,3.358,-514.465,-460.754,-1.831, , , , , , ,20.797,9.388,-110.385
 09:21:09.073,eb:33:2e:f9:57:b5, 2015-01-01 00:13:37.650,-0.017,-0.866,3.54,-505.615,-453.308,28.381, , , , , , ,18.149,7.213,-111.072
 09:21:09.073,eb:33:2e:f9:57:b5, 2015-01-01 00:13:37.650,-0.08,-0.742,3.623,-495.911,-447.144,57.739, , , , , , ,15.601,4.993,-111.506
 09:21:09.073,eb:33:2e:f9:57:b5, 2015-01-01 00:13:37.650,-0.117,-0.534,3.684,-485.596,-444.397,84.167, , , , , , ,13.09,2.725,-111.709
 09:21:09.073,eb:33:2e:f9:57:b5, 2015-01-01 00:13:37.650,-0.167,-0.271,3.773,-473.877,-445.496,107.056, , , , , , ,10.701,0.445,-111.687
 09:21:09.073,eb:33:2e:f9:57:b5, 2015-01-01 00:13:37.650,-0.233,0.037,3.884,-461.914,-449.829,128.845, , , , , , ,8.361,-1.857,-111.462
 09:21:09.073,eb:33:2e:f9:57:b5, 2015-01-01 00:13:37.650,-0.303,0.383,4.038,-452.576,-455.627,149.597, , , , , , ,6.059,-4.197,-111.044
 09:21:09.073,eb:33:2e:f9:57:b5, 2015-01-01 00:13:37.650,-0.382,0.728,4.227,-450.317,-456.848,171.997, , , , , , ,3.697,-6.559,-110.429
 09:21:09.073,eb:33:2e:f9:57:b5, 2015-01-01 00:13:37.650,-0.467,1.012,4.46,-455.75,-446.716,196.899, , , , , , ,1.318,-8.86,-109.589
 09:21:09.141,eb:33:2e:f9:57:b5, 2015-01-01 00:13:37.650,-0.541,1.254,4.681,-464.478,-425.964,221.863, , , , , , ,-1.17,-11.036,-108.517
 09:21:09.141,eb:33:2e:f9:57:b5, 2015-01-01 00:13:37.650,-0.574,1.551,4.729,-473.45,-402.222,244.019, , , , , , ,-3.79,-13.041,-107.221
 09:21:09.141,eb:33:2e:f9:57:b5, 2015-01-01 00:13:37.650,-0.568,1.925,4.62,-479.736,-387.756,260.498, , , , , , ,-6.586,-14.892,-105.727
 09:21:09.141,eb:33:2e:f9:57:b5, 2015-01-01 00:13:37.650,-0.575,2.322,4.521,-476.99,-382.874,270.203, , , , , , ,-9.432,-16.611,-104.079
 09:21:09.141,eb:33:2e:f9:57:b5, 2015-01-01 00:13:37.650,-0.544,2.786,4.519,-461.121,-386.963,273.56, , , , , , ,-12.31,-18.243,-102.305
 09:21:09.141,eb:33:2e:f9:57:b5, 2015-01-01 00:13:37.650,-0.521,3.297,4.728,-434.753,-390.137,271.545, , , , , , ,-15.156,-19.814,-100.415
 09:21:09.141,eb:33:2e:f9:57:b5, 2015-01-01 00:13:37.650,-0.532,3.786,5.089,-402.527,-380.554,266.235, , , , , , ,-17.963,-21.281,-98.443
 09:21:09.141,eb:33:2e:f9:57:b5, 2015-01-01 00:13:37.650,-0.496,4.208,5.449,-369.568,-348.816,258.545, , , , , , ,-20.616,-22.566,-96.465
 09:21:09.207,eb:33:2e:f9:57:b5, 2015-01-01 00:13:37.650,-0.412,4.533,5.699,-338.562,-291.687,248.169, , , , , , ,-23.121,-23.566,-94.565
 09:21:09.207,eb:33:2e:f9:57:b5, 2015-01-01 00:13:37.650,-0.271,4.865,5.663,-310.791,-219.177,231.201, , , , , , ,-25.439,-24.208,-92.818
 09:21:09.207,eb:33:2e:f9:57:b5, 2015-01-01 00:13:37.650,-0.06,5.267,5.288,-284.79,-146.912,204.224, , , , , , ,-27.554,-24.505,-91.318
 09:21:09.207,eb:33:2e:f9:57:b5, 2015-01-01 00:13:37.650,0.144,5.758,4.638,-259.155,-89.294,164.734, , , , , , ,-29.383,-24.56,-90.154
 09:21:09.207,eb:33:2e:f9:57:b5, 2015-01-01 00:13:37.650,0.248,6.255,3.804,-233.765,-56.641,113.953, , , , , , ,-30.948,-24.51,-89.352
 09:21:09.207,eb:33:2e:f9:57:b5, 2015-01-01 00:13:37.650,0.129,6.572,2.987,-207.52,-48.401,55.054, , , , , , ,-32.25,-24.521,-88.835
 09:21:09.207,eb:33:2e:f9:57:b5, 2015-01-01 00:13:37.650,-0.309,6.585,2.258,-179.443,-59.814,-4.578, , , , , , ,-33.311,-24.686,-88.588
 09:21:09.207,eb:33:2e:f9:57:b5, 2015-01-01 00:13:37.650,-0.776,6.165,1.71,-143.921,-85.144,-65.125, , , , , , ,-34.124,-25.115,-88.55
 09:21:09.230,eb:33:2e:f9:57:b5, 2015-01-01 00:13:37.650,-1.301,5.549,1.686,-114.868,-98.633,-98.389, , , , , , ,-34.711,-25.746,-88.676
 09:21:09.230,eb:33:2e:f9:57:b5, 2015-01-01 00:13:37.650,-1.771,4.877,1.86,-88.623,-97.717,-113.403, , , , , , ,-35.129,-26.466,-88.852
 09:21:09.230,eb:33:2e:f9:57:b5, 2015-01-01 00:13:37.650,-2.079,4.296,2.042,-66.223,-82.214,-112.122, , , , , , ,-35.381,-27.153,-89.094
 09:21:09.230,eb:33:2e:f9:57:b5, 2015-01-01 00:13:37.650,-2.178,3.85,2.145,-46.265,-54.016,-98.45, , , , , , ,-35.53,-27.729,-89.357
 09:21:09.230,eb:33:2e:f9:57:b5, 2015-01-01 00:13:37.650,-2.101,3.544,2.153,-24.597,-19.592,-79.041, , , , , , ,-35.563,-28.12,-89.67
 09:21:09.230,eb:33:2e:f9:57:b5, 2015-01-01 00:13:37.650,-1.927,3.356,2.082,2.563,10.925,-60.181, , , , , , ,-35.458,-28.317,-89.984
 09:21:09.230,eb:33:2e:f9:57:b5, 2015-01-01 00:13:37.650,-1.752,3.198,1.936,35.095,31.311,-45.105, , , , , , ,-35.173,-28.356,-90.313
 09:21:09.230,eb:33:2e:f9:57:b5, 2015-01-01 00:13:37.650,-1.611,2.965,1.715,67.383,40.161,-33.508, , , , , , ,-34.761,-28.312,-90.61
 09:21:09.254,eb:33:2e:f9:57:b5, 2015-01-01 00:13:37.650,-1.542,2.624,1.523,95.703,42.786,-22.705, , , , , , ,-34.211,-28.213,-90.895
 09:21:09.254,eb:33:2e:f9:57:b5, 2015-01-01 00:13:37.650,-1.567,2.214,1.399,120.483,43.335,-11.047, , , , , , ,-33.558,-28.081,-91.11
 09:21:09.254,eb:33:2e:f9:57:b5, 2015-01-01 00:13:37.650,-1.574,1.755,1.267,140.564,43.64,2.502, , , , , , ,-32.789,-27.889,-91.274
 09:21:09.254,eb:33:2e:f9:57:b5, 2015-01-01 00:13:37.650,-1.684,1.262,1.046,156.555,49.866,17.761, , , , , , ,-31.992,-27.664,-91.362
 09:21:09.254,eb:33:2e:f9:57:b5, 2015-01-01 00:13:37.650,-1.822,0.788,0.59,170.776,51.331,36.438, , , , , , ,-31.163,-27.367,-91.401
 09:21:09.254,eb:33:2e:f9:57:b5, 2015-01-01 00:13:37.650,-1.721,0.351,0.228,184.998,46.021,58.472, , , , , , ,-30.311,-27.032,-91.296
 09:21:09.255,eb:33:2e:f9:57:b5, 2015-01-01 00:13:37.650,-1.467,-0.051,0.188,198.12,47.913,82.703, , , , , , ,-29.41,-26.631,-91.093
 09:21:09.255,eb:33:2e:f9:57:b5, 2015-01-01 00:13:37.650,-1.231,-0.381,0.036,206.299,56.213,107.056, , , , , , ,-28.542,-26.164,-90.764
 09:21:09.365,eb:33:2e:f9:57:b5, 2015-01-01 00:13:37.650,7.117,-0.635,-0.423,208.069,56.824,128.052, , , , , , ,-27.691,-25.626,-90.346
 09:21:09.365,eb:33:2e:f9:57:b5, 2015-01-01 00:13:37.650,-0.45,4.613,7.151,827.576,21.301,-345.032, , , , , , ,-24.89,-26.592,-90.78
 09:21:09.365,eb:33:2e:f9:57:b5, 2015-01-01 00:13:37.650,6.647,10.654,-3.686,957.336,49.561,-565.918, , , , , , ,-19.017,-26.131,-93.609
 09:21:09.365,eb:33:2e:f9:57:b5, 2015-01-01 00:13:37.650,1.104,7.552,8.091,869.385,271.118,-539.978, , , , , , ,-12.975,-26.257,-97.042
 09:21:09.365,eb:33:2e:f9:57:b5, 2015-01-01 00:13:37.650,-1.409,10.324,9.586,583.801,651.062,-459.595, , , , , , ,-8.053,-24.137,-100.091
 09:21:09.365,eb:33:2e:f9:57:b5, 2015-01-01 00:13:37.650,7.212,0.371,7.501,376.343,701.904,-19.165, , , , , , ,-5.125,-20.726,-101.794
 09:21:09.365,eb:33:2e:f9:57:b5, 2015-01-01 00:13:37.650,-2.208,2.515,5.615,203.613,789.001,172.546, , , , , , ,-3.812,-16.935,-101.217
 09:21:09.365,eb:33:2e:f9:57:b5, 2015-01-01 00:13:37.650,-8.668,3.85,0.092,32.227,556.885,15.259, , , , , , ,-3.455,-13.661,-101.162
 09:21:09.368,eb:33:2e:f9:57:b5, 2015-01-01 00:13:37.650,-1.767,-1.611,-3.093,106.445,244.69,3.296, , , , , , ,-3.104,-11.772,-101.179
 09:21:09.368,eb:33:2e:f9:57:b5, 2015-01-01 00:13:37.650,0.028,-1.667,-1.159,178.101,33.325,-66.772, , , , , , ,-2.252,-11.36,-101.393
 09:21:09.368,eb:33:2e:f9:57:b5, 2015-01-01 00:13:37.650,-0.543,0.986,1.779,134.399,99.731,-29.419, , , , , , ,-1.357,-11.063,-101.706
 09:21:09.368,eb:33:2e:f9:57:b5, 2015-01-01 00:13:37.650,1.04,1.232,0.044,88.989,93.567,1.282, , , , , , ,-0.835,-10.503,-101.722
 09:21:09.368,eb:33:2e:f9:57:b5, 2015-01-01 00:13:37.650,1.714,0.664,0.667,77.759,67.993,-38.025, , , , , , ,-0.406,-10.146,-101.854
 09:21:09.368,eb:33:2e:f9:57:b5, 2015-01-01 00:13:37.650,-1.343,0.456,2.128,75.256,161.865,-55.42, , , , , , ,0.011,-9.558,-102.096
 09:21:09.369,eb:33:2e:f9:57:b5, 2015-01-01 00:13:37.650,-2.263,0.113,0.092,63.11,129.822,-52.307, , , , , , ,0.456,-8.701,-102.409
 09:21:09.369,eb:33:2e:f9:57:b5, 2015-01-01 00:13:37.650,1.272,-0.254,-0.387,62.073,-9.949,-11.963, , , , , , ,0.78,-8.531,-102.53
 09:21:09.432,eb:33:2e:f9:57:b5, 2015-01-01 00:13:38.250,1.129,0.096,2.349,75.439,36.072,-27.1, , , , , , ,1.148,-8.492,-102.634
 09:21:09.432,eb:33:2e:f9:57:b5, 2015-01-01 00:13:38.250,0.12,0.422,1.728,63.293,116.028,-34.851, , , , , , ,1.505,-8.042,-102.788
 09:21:09.432,eb:33:2e:f9:57:b5, 2015-01-01 00:13:38.250,-0.526,-0.507,1.57,87.524,106.079,-25.574, , , , , , ,1.967,-7.432,-102.942
 09:21:09.432,eb:33:2e:f9:57:b5, 2015-01-01 00:13:38.250,0.421,0.092,0.964,90.82,69.58,3.357, , , , , , ,2.428,-7.009,-102.964
 09:21:09.432,eb:33:2e:f9:57:b5, 2015-01-01 00:13:38.250,1.127,0.605,1.07,74.402,55.603,-8.606, , , , , , ,2.834,-6.724,-102.947
 09:21:09.432,eb:33:2e:f9:57:b5, 2015-01-01 00:13:38.250,-0.58,0.544,1.422,83.13,57.922,-29.907, , , , , , ,3.23,-6.427,-103.057
 09:21:09.432,eb:33:2e:f9:57:b5, 2015-01-01 00:13:38.250,-1.014,-0.475,2.216,122.009,13.733,5.615, , , , , , ,3.818,-6.207,-103.112
 09:21:09.433,eb:33:2e:f9:57:b5, 2015-01-01 00:13:38.250,-0.253,-0.781,4.296,174.194,-47.974,33.691, , , , , , ,4.548,-6.367,-102.991
 09:21:09.434,eb:33:2e:f9:57:b5, 2015-01-01 00:13:38.250,-0.54,-0.971,5.887,244.629,-30.518,11.536, , , , , , ,5.625,-6.586,-102.903
 09:21:09.434,eb:33:2e:f9:57:b5, 2015-01-01 00:13:38.250,-0.258,-2.043,5.864,344.055,-30.945,8.667, , , , , , ,7.125,-6.724,-102.876
 09:21:09.434,eb:33:2e:f9:57:b5, 2015-01-01 00:13:38.250,1.94,-1.897,5.33,450.012,-69.092,-5.432, , , , , , ,9.218,-6.976,-102.925
 09:21:09.434,eb:33:2e:f9:57:b5, 2015-01-01 00:13:38.250,3.167,-1.078,5.456,522.705,-31.494,-29.297, , , , , , ,11.728,-7.213,-103.074
 09:21:09.434,eb:33:2e:f9:57:b5, 2015-01-01 00:13:38.250,1.967,-0.84,5.256,563.293,38.025,-50.903, , , , , , ,14.485,-7.108,-103.271
 09:21:09.434,eb:33:2e:f9:57:b5, 2015-01-01 00:13:38.250,1.467,-1.167,5.487,589.844,80.811,-63.416, , , , , , ,17.402,-6.718,-103.469
 09:21:09.434,eb:33:2e:f9:57:b5, 2015-01-01 00:13:38.250,0.953,-2.119,5.521,648.987,124.329,-77.393, , , , , , ,20.583,-6.053,-103.634
 09:21:09.434,eb:33:2e:f9:57:b5, 2015-01-01 00:13:38.250,0.888,-1.37,4.336,700.256,81.116,-103.455, , , , , , ,24.016,-5.405,-103.87
 09:21:09.436,eb:33:2e:f9:57:b5, 2015-01-01 00:13:38.250,1.829,-0.302,3.687,716.919,3.601,-137.451, , , , , , ,27.603,-4.966,-104.343
 09:21:09.436,eb:33:2e:f9:57:b5, 2015-01-01 00:13:38.250,1.513,-1.416,3.409,751.831,-43.701,-168.457, , , , , , ,31.36,-4.719,-105.101
 09:21:09.436,eb:33:2e:f9:57:b5, 2015-01-01 00:13:38.250,1.696,-0.521,5.059,749.756,-40.588,-202.332, , , , , , ,35.233,-4.34,-106.024
 09:21:09.436,eb:33:2e:f9:57:b5, 2015-01-01 00:13:38.250,1.351,-1.082,7.376,734.131,38.086,-221.985, , , , , , ,38.996,-3.686,-106.88
 09:21:09.436,eb:33:2e:f9:57:b5, 2015-01-01 00:13:38.250,1.049,-1.206,6.509,717.224,123.352,-223.999, , , , , , ,42.649,-2.615,-107.413
 09:21:09.436,eb:33:2e:f9:57:b5, 2015-01-01 00:13:38.250,0.982,1.235,4.785,670.532,213.806,-241.577, , , , , , ,46.126,-1.17,-107.628
 09:21:09.436,eb:33:2e:f9:57:b5, 2015-01-01 00:13:38.250,0.939,1.365,4.594,580.444,298.096,-234.619, , , , , , ,49.235,0.566,-107.496
 09:21:09.436,eb:33:2e:f9:57:b5, 2015-01-01 00:13:38.250,1.638,0.326,1.292,479.492,387.207,-218.384, , , , , , ,51.866,2.604,-106.787
 09:21:09.500,eb:33:2e:f9:57:b5, 2015-01-01 00:13:38.250,3.028,2.673,-2.926,329.895,325.928,-266.968, , , , , , ,53.866,4.647,-106.068
 09:21:09.500,eb:33:2e:f9:57:b5, 2015-01-01 00:13:38.250,2.022,3.041,-2.714,254.028,191.833,-314.758, , , , , , ,55.261,6.586,-105.919
 09:21:09.500,eb:33:2e:f9:57:b5, 2015-01-01 00:13:38.250,1.281,2.816,-1.876,187.134,85.266,-346.985, , , , , , ,56.31,8.339,-106.342
 09:21:09.500,eb:33:2e:f9:57:b5, 2015-01-01 00:13:38.250,2.414,1.841,-0.218,126.465,-37.964,-358.521, , , , , , ,56.893,9.855,-107.298
 09:21:09.500,eb:33:2e:f9:57:b5, 2015-01-01 00:13:38.250,1.573,0.566,3.085,116.15,-51.575,-346.252, , , , , , ,57.255,11.179,-108.479
 09:21:09.501,eb:33:2e:f9:57:b5, 2015-01-01 00:13:38.250,1.233,-0.923,4.803,160.217,14.709,-336.243, , , , , , ,57.728,12.579,-109.473
 09:21:09.501,eb:33:2e:f9:57:b5, 2015-01-01 00:13:38.250,1.212,-1.293,5.267,210.571,58.35,-317.627, , , , , , ,58.546,14.09,-110.182
 09:21:09.501,eb:33:2e:f9:57:b5, 2015-01-01 00:13:38.250,0.854,-1.502,5.142,255.859,111.328,-288.635, , , , , , ,59.645,15.617,-110.572
 09:21:09.567,eb:33:2e:f9:57:b5, 2015-01-01 00:13:38.250,0.573,-1.887,4.109,270.203,136.414,-246.765, , , , , , ,60.947,17.084,-110.649
 09:21:09.567,eb:33:2e:f9:57:b5, 2015-01-01 00:13:38.250,0.129,-2.348,3.198,268.921,140.442,-198.12, , , , , , ,62.325,18.375,-110.539
 09:21:09.567,eb:33:2e:f9:57:b5, 2015-01-01 00:13:38.250,0.149,-2.769,2.338,260.254,113.525,-135.742, , , , , , ,63.726,19.402,-110.336
 09:21:09.567,eb:33:2e:f9:57:b5, 2015-01-01 00:13:38.250,0.475,-2.986,2.389,241.028,103.394,-83.313, , , , , , ,65.061,20.099,-110.078
 09:21:09.567,eb:33:2e:f9:57:b5, 2015-01-01 00:13:38.250,0.695,-3.043,2.998,215.942,118.469,-42.603, , , , , , ,66.33,20.588,-109.627
 09:21:09.567,eb:33:2e:f9:57:b5, 2015-01-01 00:13:38.250,0.914,-3.062,3.351,196.228,140.808,-11.841, , , , , , ,67.56,20.956,-109.034
 09:21:09.567,eb:33:2e:f9:57:b5, 2015-01-01 00:13:38.250,1.025,-2.973,3.345,177.551,158.63,9.094, , , , , , ,68.758,21.248,-108.281
 09:21:09.567,eb:33:2e:f9:57:b5, 2015-01-01 00:13:38.250,1.057,-2.784,2.957,153.748,163.818,21.912, , , , , , ,69.884,21.456,-107.43
 09:21:09.569,eb:33:2e:f9:57:b5, 2015-01-01 00:13:38.250,1.061,-2.528,2.438,124.939,154.48,28.137, , , , , , ,70.878,21.599,-106.545
 09:21:09.569,eb:33:2e:f9:57:b5, 2015-01-01 00:13:38.250,1.082,-2.274,2.083,96.985,133.789,27.222, , , , , , ,71.702,21.698,-105.771
 09:21:09.569,eb:33:2e:f9:57:b5, 2015-01-01 00:13:38.250,1.227,-2.064,2.048,76.111,107.788,17.517, , , , , , ,72.35,21.791,-105.139
 09:21:09.569,eb:33:2e:f9:57:b5, 2015-01-01 00:13:38.250,1.41,-1.885,2.312,63.293,87.036,-2.319, , , , , , ,72.872,21.901,-104.639
 09:21:09.569,eb:33:2e:f9:57:b5, 2015-01-01 00:13:38.250,1.606,-1.734,2.587,55.725,76.355,-31.311, , , , , , ,73.306,22.11,-104.227
 09:21:09.569,eb:33:2e:f9:57:b5, 2015-01-01 00:13:38.250,1.76,-1.677,2.792,49.255,79.163,-64.758, , , , , , ,73.685,22.462,-103.909
 09:21:09.569,eb:33:2e:f9:57:b5, 2015-01-01 00:13:38.250,1.809,-1.75,2.892,41.016,93.018,-99.426, , , , , , ,74.009,23.011,-103.601
 09:21:09.569,eb:33:2e:f9:57:b5, 2015-01-01 00:13:38.250,1.691,-1.892,2.805,28.442,112.427,-131.226, , , , , , ,74.328,23.725,-103.233
 09:21:09.614,eb:33:2e:f9:57:b5, 2015-01-01 00:13:38.250,1.493,-2.001,2.52,10.681,126.282,-158.02, , , , , , ,74.592,24.598,-102.772
 09:21:09.614,eb:33:2e:f9:57:b5, 2015-01-01 00:13:38.250,1.271,-2.034,2.161,-11.78,129.944,-177.307, , , , , , ,74.762,25.593,-102.338
 09:21:09.614,eb:33:2e:f9:57:b5, 2015-01-01 00:13:38.250,1.023,-2.046,1.87,-37.537,125,-188.599, , , , , , ,74.784,26.664,-101.937
 09:21:09.614,eb:33:2e:f9:57:b5, 2015-01-01 00:13:38.250,0.782,-2.062,1.684,-64.575,113.708,-190.674, , , , , , ,74.674,27.74,-101.58
 09:21:09.614,eb:33:2e:f9:57:b5, 2015-01-01 00:13:38.250,0.563,-2.077,1.632,-91.858,101.44,-182.8, , , , , , ,74.41,28.784,-101.245
 09:21:09.614,eb:33:2e:f9:57:b5, 2015-01-01 00:13:38.250,0.408,-2.106,1.691,-117.981,93.262,-164.612, , , , , , ,73.998,29.74,-100.986
 09:21:09.614,eb:33:2e:f9:57:b5, 2015-01-01 00:13:38.250,0.317,-2.142,1.834,-141.235,92.59,-138.123, , , , , , ,73.438,30.602,-100.739
 09:21:09.614,eb:33:2e:f9:57:b5, 2015-01-01 00:13:38.250,0.26,-2.131,1.953,-160.767,98.083,-105.774, , , , , , ,72.839,31.311,-100.41
