Time,Device name,Chip Time(),Acceleration X(g),Acceleration Y(g),Acceleration Z(g),Angular velocity X(°/s),Angular velocity Y(°/s),Angular velocity Z(°/s),ShiftX(mm),ShiftY(mm),ShiftZ(mm),SpeedX(mm/s),SpeedY(mm/s),SpeedZ(mm/s),Angle X(°),Angle Y(°),Angle Z(°)
 09:24:11.125,eb:33:2e:f9:57:b5, 2015-01-01 00:16:38.675,0.629,-0.21,2.506,304.688,125.916,-53.284, , , , , , ,16.952,9.333,-102.931
 09:24:11.125,eb:33:2e:f9:57:b5, 2015-01-01 00:16:38.675,0.604,-0.111,2.823,321.228,130.493,-65.552, , , , , , ,18.512,10.042,-103.024
 09:24:11.125,eb:33:2e:f9:57:b5, 2015-01-01 00:16:38.675,0.538,-0.353,3.167,338.684,141.785,-71.228, , , , , , ,20.149,10.8,-103.129
 09:24:11.125,eb:33:2e:f9:57:b5, 2015-01-01 00:16:38.675,0.489,-0.571,3.035,362.793,149.658,-73.242, , , , , , ,21.896,11.618,-103.206
 09:24:11.125,eb:33:2e:f9:57:b5, 2015-01-01 00:16:38.675,0.358,-0.585,2.72,386.658,144.226,-80.078, , , , , , ,23.769,12.448,-103.277
 09:24:11.125,eb:33:2e:f9:57:b5, 2015-01-01 00:16:38.675,0.37,-0.445,2.676,406.982,127.747,-90.82, , , , , , ,25.735,13.239,-103.387
 09:24:11.125,eb:33:2e:f9:57:b5, 2015-01-01 00:16:38.675,0.371,-0.618,2.854,431.885,116.394,-98.389, , , , , , ,27.806,13.986,-103.552
 09:24:11.125,eb:33:2e:f9:57:b5, 2015-01-01 00:16:38.675,0.327,-0.792,2.758,455.933,107.117,-105.652, , , , , , ,29.993,14.722,-103.738
 09:24:11.172,eb:33:2e:f9:57:b5, 2015-01-01 00:16:38.675,0.338,-0.714,2.804,461.609,104.187,-112.793, , , , , , ,32.239,15.458,-103.947
 09:24:11.172,eb:33:2e:f9:57:b5, 2015-01-01 00:16:38.675,0.506,-0.881,3.119,459.656,113.953,-120.361, , , , , , ,34.492,16.243,-104.145
 09:24:11.172,eb:33:2e:f9:57:b5, 2015-01-01 00:16:38.675,0.654,-1.269,3.226,451.721,138.611,-122.009, , , , , , ,36.727,17.1,-104.282
 09:24:11.172,eb:33:2e:f9:57:b5, 2015-01-01 00:16:38.675,0.495,-1.582,3.316,436.584,196.289,-113.892, , , , , , ,38.952,18.138,-104.222
 09:24:11.172,eb:33:2e:f9:57:b5, 2015-01-01 00:16:38.675,0.857,-0.963,3.476,437.744,251.648,-114.38, , , , , , ,41.248,19.396,-103.881
 09:24:11.172,eb:33:2e:f9:57:b5, 2015-01-01 00:16:38.675,0.813,-1.225,3.007,424.927,286.926,-116.028, , , , , , ,43.583,20.781,-103.359
 09:24:11.173,eb:33:2e:f9:57:b5, 2015-01-01 00:16:38.675,0.549,-0.904,2.09,412.598,319.397,-122.498, , , , , , ,45.912,22.308,-102.656
 09:24:11.173,eb:33:2e:f9:57:b5, 2015-01-01 00:16:38.675,0.571,-0.725,1.008,386.536,303.223,-109.314, , , , , , ,48.235,23.802,-101.827
 09:24:11.215,eb:33:2e:f9:57:b5, 2015-01-01 00:16:38.675,0.507,-1.342,-0.565,331.482,228.882,-95.398, , , , , , ,50.317,25.049,-101.096
 09:24:11.215,eb:33:2e:f9:57:b5, 2015-01-01 00:16:38.675,0.442,-2.416,-2.621,237.61,114.136,-71.045, , , , , , ,51.888,25.873,-100.684
 09:24:11.215,eb:33:2e:f9:57:b5, 2015-01-01 00:16:38.675,0.523,-1.507,-2.162,131.226,22.278,-50.354, , , , , , ,52.745,26.257,-100.646
 09:24:11.215,eb:33:2e:f9:57:b5, 2015-01-01 00:16:38.675,0.359,-0.844,-0.12,103.76,-38.757,-35.522, , , , , , ,53.223,26.378,-100.849
 09:24:11.215,eb:33:2e:f9:57:b5, 2015-01-01 00:16:38.675,0.248,-0.782,1.094,45.959,-41.382,-19.47, , , , , , ,53.448,26.351,-101.14
 09:24:11.215,eb:33:2e:f9:57:b5, 2015-01-01 00:16:38.675,0.498,-1.729,0.839,-12.878,-17.883,5.432, , , , , , ,53.432,26.285,-101.283
 09:24:11.215,eb:33:2e:f9:57:b5, 2015-01-01 00:16:38.675,0.566,-2.155,0.753,-46.326,9.216,29.053, , , , , , ,53.273,26.197,-101.228
 09:24:11.215,eb:33:2e:f9:57:b5, 2015-01-01 00:16:38.675,0.521,-1.819,0.754,-60.425,24.841,44.739, , , , , , ,53.091,26.098,-101.008
 09:24:11.261,eb:33:2e:f9:57:b5, 2015-01-01 00:16:38.675,0.547,-1.426,0.576,-65.674,24.719,54.443, , , , , , ,52.894,25.977,-100.717
 09:24:11.261,eb:33:2e:f9:57:b5, 2015-01-01 00:16:38.675,0.594,-1.312,0.199,-65.186,6.287,60.669, , , , , , ,52.679,25.79,-100.459
 09:24:11.261,eb:33:2e:f9:57:b5, 2015-01-01 00:16:38.675,0.595,-1.3,-0.156,-62.683,-22.949,64.697, , , , , , ,52.421,25.505,-100.3
 09:24:11.261,eb:33:2e:f9:57:b5, 2015-01-01 00:16:38.675,0.56,-1.235,-0.247,-61.768,-53.223,66.101, , , , , , ,52.13,25.115,-100.256
 09:24:11.261,eb:33:2e:f9:57:b5, 2015-01-01 00:16:38.675,0.527,-1.151,-0.12,-64.819,-76.416,65.674, , , , , , ,51.784,24.648,-100.327
 09:24:11.261,eb:33:2e:f9:57:b5, 2015-01-01 00:16:38.675,0.487,-1.123,0.062,-74.036,-88.257,65.43, , , , , , ,51.378,24.126,-100.464
 09:24:11.261,eb:33:2e:f9:57:b5, 2015-01-01 00:16:38.675,0.434,-1.145,0.202,-89.844,-89.111,66.467, , , , , , ,50.883,23.588,-100.629
 09:24:11.261,eb:33:2e:f9:57:b5, 2015-01-01 00:16:38.675,0.408,-1.143,0.296,-115.479,-80.872,68.848, , , , , , ,50.317,23.055,-100.75
 09:24:11.305,eb:33:2e:f9:57:b5, 2015-01-01 00:16:38.675,0.399,-1.097,0.313,-139.587,-71.899,70.374, , , , , , ,49.636,22.544,-100.816
 09:24:11.305,eb:33:2e:f9:57:b5, 2015-01-01 00:16:38.675,0.413,-1.035,0.273,-164.001,-65.979,70.74, , , , , , ,48.856,22.055,-100.849
 09:24:11.305,eb:33:2e:f9:57:b5, 2015-01-01 00:16:38.675,0.433,-0.975,0.204,-187.134,-65.613,69.397, , , , , , ,47.95,21.572,-100.865
 09:24:11.305,eb:33:2e:f9:57:b5, 2015-01-01 00:16:38.675,0.449,-0.914,0.142,-207.642,-71.655,66.345, , , , , , ,46.939,21.088,-100.893
 09:24:11.305,eb:33:2e:f9:57:b5, 2015-01-01 00:16:38.675,0.457,-0.848,0.122,-224.915,-82.581,61.768, , , , , , ,45.824,20.588,-100.959
 09:24:11.305,eb:33:2e:f9:57:b5, 2015-01-01 00:16:38.675,0.453,-0.792,0.152,-239.502,-95.459,56.58, , , , , , ,44.61,20.067,-101.08
 09:24:11.305,eb:33:2e:f9:57:b5, 2015-01-01 00:16:38.675,0.44,-0.75,0.233,-252.258,-107.483,51.575, , , , , , ,43.303,19.501,-101.261
 09:24:11.305,eb:33:2e:f9:57:b5, 2015-01-01 00:16:38.675,0.424,-0.719,0.36,-263.55,-116.455,47.119, , , , , , ,41.935,18.924,-101.475
 09:24:11.350,eb:33:2e:f9:57:b5, 2015-01-01 00:16:38.965,0.407,-0.688,0.504,-273.621,-121.338,43.64, , , , , , ,40.512,18.325,-101.711
 09:24:11.350,eb:33:2e:f9:57:b5, 2015-01-01 00:16:38.965,0.378,-0.648,0.644,-282.166,-122.437,40.955, , , , , , ,39.04,17.721,-101.953
 09:24:11.350,eb:33:2e:f9:57:b5, 2015-01-01 00:16:38.965,0.346,-0.6,0.754,-289.185,-121.826,38.757, , , , , , ,37.524,17.111,-102.195
 09:24:11.350,eb:33:2e:f9:57:b5, 2015-01-01 00:16:38.965,0.319,-0.546,0.835,-294.678,-121.094,37.17, , , , , , ,35.997,16.512,-102.415
 09:24:11.350,eb:33:2e:f9:57:b5, 2015-01-01 00:16:38.965,0.295,-0.49,0.91,-298.645,-121.216,36.133, , , , , , ,34.453,15.914,-102.623
 09:24:11.350,eb:33:2e:f9:57:b5, 2015-01-01 00:16:38.965,0.273,-0.439,0.979,-301.208,-122.009,35.889, , , , , , ,32.899,15.304,-102.821
 09:24:11.350,eb:33:2e:f9:57:b5, 2015-01-01 00:16:38.965,0.254,-0.394,1.04,-302.49,-123.657,36.56, , , , , , ,31.328,14.683,-103.002
 09:24:11.350,eb:33:2e:f9:57:b5, 2015-01-01 00:16:38.965,0.242,-0.354,1.096,-302.856,-126.221,37.964, , , , , , ,29.773,14.052,-103.167
 09:24:11.372,eb:33:2e:f9:57:b5, 2015-01-01 00:16:38.965,0.231,-0.317,1.152,-302.856,-129.333,40.039, , , , , , ,28.224,13.392,-103.31
 09:24:11.372,eb:33:2e:f9:57:b5, 2015-01-01 00:16:38.965,0.223,-0.278,1.203,-302.917,-132.69,42.725, , , , , , ,26.68,12.717,-103.431
 09:24:11.372,eb:33:2e:f9:57:b5, 2015-01-01 00:16:38.965,0.228,-0.238,1.247,-303.406,-136.169,45.654, , , , , , ,25.131,12.003,-103.535
 09:24:11.372,eb:33:2e:f9:57:b5, 2015-01-01 00:16:38.965,0.232,-0.2,1.299,-304.565,-139.526,48.462, , , , , , ,23.593,11.277,-103.607
 09:24:11.372,eb:33:2e:f9:57:b5, 2015-01-01 00:16:38.965,0.216,-0.16,1.34,-306.335,-143.066,51.147, , , , , , ,22.055,10.53,-103.651
 09:24:11.372,eb:33:2e:f9:57:b5, 2015-01-01 00:16:38.965,0.224,-0.129,1.371,-308.044,-146.729,54.077, , , , , , ,20.517,9.756,-103.667
 09:24:11.372,eb:33:2e:f9:57:b5, 2015-01-01 00:16:38.965,0.241,-0.115,1.445,-309.265,-148.926,57.19, , , , , , ,18.957,8.954,-103.656
 09:24:11.372,eb:33:2e:f9:57:b5, 2015-01-01 00:16:38.965,0.252,-0.101,1.529,-309.509,-149.902,60.486, , , , , , ,17.419,8.152,-103.612
 09:24:11.417,eb:33:2e:f9:57:b5, 2015-01-01 00:16:38.965,0.269,-0.081,1.595,-308.228,-150.696,63.599, , , , , , ,15.886,7.344,-103.524
 09:24:11.417,eb:33:2e:f9:57:b5, 2015-01-01 00:16:38.965,0.291,-0.057,1.655,-305.054,-151.794,66.467, , , , , , ,14.37,6.526,-103.409
 09:24:11.417,eb:33:2e:f9:57:b5, 2015-01-01 00:16:38.965,0.316,-0.026,1.708,-300.049,-153.687,68.298, , , , , , ,12.854,5.696,-103.26
 09:24:11.417,eb:33:2e:f9:57:b5, 2015-01-01 00:16:38.965,0.331,0.013,1.749,-293.152,-156.616,68.848, , , , , , ,11.393,4.867,-103.09
 09:24:11.417,eb:33:2e:f9:57:b5, 2015-01-01 00:16:38.965,0.347,0.061,1.784,-284.546,-160.767,67.81, , , , , , ,9.965,4.021,-102.898
 09:24:11.417,eb:33:2e:f9:57:b5, 2015-01-01 00:16:38.965,0.362,0.124,1.825,-274.597,-165.527,65.002, , , , , , ,8.586,3.159,-102.706
 09:24:11.417,eb:33:2e:f9:57:b5, 2015-01-01 00:16:38.965,0.371,0.19,1.881,-263.611,-169.861,60.73, , , , , , ,7.234,2.274,-102.513
 09:24:11.417,eb:33:2e:f9:57:b5, 2015-01-01 00:16:38.965,0.358,0.247,1.952,-252.136,-173.218,55.176, , , , , , ,5.96,1.384,-102.327
 09:24:11.465,eb:33:2e:f9:57:b5, 2015-01-01 00:16:38.965,0.322,0.3,2.025,-242.004,-174.988,48.767, , , , , , ,4.73,0.494,-102.151
 09:24:11.465,eb:33:2e:f9:57:b5, 2015-01-01 00:16:38.965,0.285,0.347,2.101,-234.558,-172.974,40.955, , , , , , ,3.549,-0.385,-101.997
 09:24:11.465,eb:33:2e:f9:57:b5, 2015-01-01 00:16:38.965,0.246,0.369,2.156,-233.093,-167.175,34.851, , , , , , ,2.362,-1.252,-101.854
 09:24:11.465,eb:33:2e:f9:57:b5, 2015-01-01 00:16:38.965,0.208,0.395,2.192,-235.229,-160.278,28.687, , , , , , ,1.187,-2.071,-101.728
 09:24:11.465,eb:33:2e:f9:57:b5, 2015-01-01 00:16:38.965,0.168,0.413,2.191,-239.38,-154.48,22.034, , , , , , ,0,-2.856,-101.613
 09:24:11.465,eb:33:2e:f9:57:b5, 2015-01-01 00:16:38.965,0.128,0.418,2.156,-243.774,-152.466,14.16, , , , , , ,-1.219,-3.62,-101.514
 09:24:11.465,eb:33:2e:f9:57:b5, 2015-01-01 00:16:38.965,0.067,0.432,2.11,-247.62,-155.823,4.822, , , , , , ,-2.472,-4.4,-101.448
 09:24:11.465,eb:33:2e:f9:57:b5, 2015-01-01 00:16:38.965,-0.032,0.469,2.085,-250.61,-163.696,-5.31, , , , , , ,-3.719,-5.197,-101.409
 09:24:11.552,eb:33:2e:f9:57:b5, 2015-01-01 00:16:38.965,-0.143,0.501,2.099,-252.563,-174.133,-14.526, , , , , , ,-4.982,-6.053,-101.404
 09:24:11.552,eb:33:2e:f9:57:b5, 2015-01-01 00:16:38.965,-0.212,0.54,2.211,-254.089,-181.824,-23.376, , , , , , ,-6.246,-6.954,-101.415
 09:24:11.552,eb:33:2e:f9:57:b5, 2015-01-01 00:16:38.965,-0.313,0.619,2.38,-255.554,-182.922,-28.87, , , , , , ,-7.537,-7.888,-101.437
 09:24:11.552,eb:33:2e:f9:57:b5, 2015-01-01 00:16:38.965,-0.424,0.75,2.532,-258.728,-177.246,-31.006, , , , , , ,-8.817,-8.8,-101.464
 09:24:11.552,eb:33:2e:f9:57:b5, 2015-01-01 00:16:38.965,-0.516,0.839,2.683,-263.306,-162.781,-29.968, , , , , , ,-10.124,-9.662,-101.475
 09:24:11.553,eb:33:2e:f9:57:b5, 2015-01-01 00:16:38.965,-0.605,0.889,2.779,-267.517,-141.602,-25.024, , , , , , ,-11.453,-10.426,-101.47
 09:24:11.553,eb:33:2e:f9:57:b5, 2015-01-01 00:16:38.965,-0.711,0.959,2.779,-269.775,-119.873,-16.907, , , , , , ,-12.821,-11.08,-101.431
 09:24:11.553,eb:33:2e:f9:57:b5, 2015-01-01 00:16:38.965,-0.837,1.057,2.674,-268.433,-103.21,-6.836, , , , , , ,-14.183,-11.629,-101.36
 09:24:11.556,eb:33:2e:f9:57:b5, 2015-01-01 00:16:38.965,-0.968,1.171,2.479,-262.817,-94.604,5.005, , , , , , ,-15.535,-12.096,-101.234
 09:24:11.556,eb:33:2e:f9:57:b5, 2015-01-01 00:16:38.965,-1.074,1.304,2.259,-254.211,-94.116,19.104, , , , , , ,-16.864,-12.53,-101.036
 09:24:11.556,eb:33:2e:f9:57:b5, 2015-01-01 00:16:38.965,-1.145,1.454,2.074,-244.446,-98.572,34.912, , , , , , ,-18.188,-12.953,-100.745
 09:24:11.556,eb:33:2e:f9:57:b5, 2015-01-01 00:16:38.965,-1.207,1.62,1.948,-235.046,-103.76,52.429, , , , , , ,-19.468,-13.359,-100.355
 09:24:11.556,eb:33:2e:f9:57:b5, 2015-01-01 00:16:38.965,-1.241,1.788,1.873,-225.22,-106.628,70.801, , , , , , ,-20.731,-13.749,-99.866
 09:24:11.556,eb:33:2e:f9:57:b5, 2015-01-01 00:16:38.965,-1.27,1.957,1.867,-212.769,-104.797,89.478, , , , , , ,-21.962,-14.095,-99.272
 09:24:11.556,eb:33:2e:f9:57:b5, 2015-01-01 00:16:38.965,-1.28,2.158,1.883,-196.228,-98.633,106.384, , , , , , ,-23.154,-14.376,-98.591
 09:24:11.556,eb:33:2e:f9:57:b5, 2015-01-01 00:16:38.965,-1.269,2.386,1.884,-174.805,-89.478,119.385, , , , , , ,-24.258,-14.573,-97.861
 09:24:11.576,eb:33:2e:f9:57:b5, 2015-01-01 00:16:38.965,-1.272,2.63,1.825,-148.01,-79.712,127.197, , , , , , ,-25.247,-14.689,-97.097
 09:24:11.576,eb:33:2e:f9:57:b5, 2015-01-01 00:16:38.965,-1.25,2.907,1.694,-115.723,-74.219,128.235, , , , , , ,-26.087,-14.755,-96.328
 09:24:11.576,eb:33:2e:f9:57:b5, 2015-01-01 00:16:38.965,-1.234,3.175,1.589,-79.773,-71.594,121.46, , , , , , ,-26.757,-14.804,-95.581
 09:24:11.576,eb:33:2e:f9:57:b5, 2015-01-01 00:16:38.965,-1.208,3.352,1.544,-42.725,-70.312,108.826, , , , , , ,-27.224,-14.859,-94.889
 09:24:11.576,eb:33:2e:f9:57:b5, 2015-01-01 00:16:38.965,-1.168,3.391,1.609,-7.996,-65.613,92.346, , , , , , ,-27.488,-14.936,-94.274
 09:24:11.576,eb:33:2e:f9:57:b5, 2015-01-01 00:16:38.965,-1.113,3.305,1.752,20.874,-53.162,74.707, , , , , , ,-27.576,-15.007,-93.757
 09:24:11.577,eb:33:2e:f9:57:b5, 2015-01-01 00:16:38.965,-1.049,3.112,1.917,42.908,-30.64,58.228, , , , , , ,-27.504,-15.04,-93.367
 09:24:11.577,eb:33:2e:f9:57:b5, 2015-01-01 00:16:38.965,-0.966,2.848,2.029,58.105,0.366,44.373, , , , , , ,-27.312,-14.98,-93.109
 09:24:11.665,eb:33:2e:f9:57:b5, 2015-01-01 00:16:38.965,-0.855,2.568,2.034,68.176,33.875,33.142, , , , , , ,-27.021,-14.804,-92.988
 09:24:11.665,eb:33:2e:f9:57:b5, 2015-01-01 00:16:38.965,-0.726,2.301,1.927,75.5,62.5,23.499, , , , , , ,-26.658,-14.513,-92.983
 09:24:11.665,eb:33:2e:f9:57:b5, 2015-01-01 00:16:38.965,1.932,2.053,1.76,82.703,81.482,14.832, , , , , , ,-26.235,-14.134,-93.071
 09:24:11.665,eb:33:2e:f9:57:b5, 2015-01-01 00:16:38.965,0.958,0.852,7.273,230.042,31.311,-100.159, , , , , , ,-25.384,-14.145,-93.307
 09:24:11.665,eb:33:2e:f9:57:b5, 2015-01-01 00:16:38.965,1.721,-0.258,1.889,253.54,44.373,-123.108, , , , , , ,-24.005,-13.92,-93.961
 09:24:11.665,eb:33:2e:f9:57:b5, 2015-01-01 00:16:38.965,1.377,-1.46,0.994,288.879,69.824,-133.362, , , , , , ,-22.445,-14.013,-94.686
 09:24:11.665,eb:33:2e:f9:57:b5, 2015-01-01 00:16:38.965,0.917,-0.292,1.995,279.907,124.756,-126.953, , , , , , ,-20.825,-13.76,-95.499
 09:24:11.665,eb:33:2e:f9:57:b5, 2015-01-01 00:16:38.965,0.336,-1.405,1.387,300.049,168.274,-97.717, , , , , , ,-19.188,-13.244,-96.295
 09:24:11.665,eb:33:2e:f9:57:b5, 2015-01-01 00:16:38.965,-0.07,-1.215,1.358,319.153,201.843,-62.927, , , , , , ,-17.479,-12.464,-96.982
 09:24:11.665,eb:33:2e:f9:57:b5, 2015-01-01 00:16:38.965,-0.338,-1.285,0.895,346.497,198.242,-29.297, , , , , , ,-15.694,-11.558,-97.482
 09:24:11.665,eb:33:2e:f9:57:b5, 2015-01-01 00:16:38.965,-0.642,-0.562,1.187,349.365,173.035,-9.094, , , , , , ,-13.881,-10.695,-97.8
 09:24:11.665,eb:33:2e:f9:57:b5, 2015-01-01 00:16:38.965,-0.558,0.355,1.153,321.35,160.889,4.089, , , , , , ,-12.167,-9.904,-97.987
 09:24:11.665,eb:33:2e:f9:57:b5, 2015-01-01 00:16:38.965,-0.312,1.186,1.206,261.292,147.522,10.681, , , , , , ,-10.717,-9.13,-98.108
 09:24:11.666,eb:33:2e:f9:57:b5, 2015-01-01 00:16:38.965,-0.278,0.986,1.221,209.167,130.615,7.996, , , , , , ,-9.558,-8.448,-98.179
 09:24:11.666,eb:33:2e:f9:57:b5, 2015-01-01 00:16:38.965,-0.244,0.8,1.159,165.71,105.164,-2.625, , , , , , ,-8.635,-7.872,-98.262
 09:24:11.666,eb:33:2e:f9:57:b5, 2015-01-01 00:16:38.965,-0.237,0.481,1.126,135.193,79.346,-14.771, , , , , , ,-7.888,-7.432,-98.377
 09:24:11.689,eb:33:2e:f9:57:b5, 2015-01-01 00:16:38.965,-0.072,0.291,1.073,113.586,55.542,-24.963, , , , , , ,-7.256,-7.13,-98.525
 09:24:11.689,eb:33:2e:f9:57:b5, 2015-01-01 00:16:38.965,0.124,0.183,1.094,97.839,42.175,-30.273, , , , , , ,-6.724,-6.916,-98.701
 09:24:11.689,eb:33:2e:f9:57:b5, 2015-01-01 00:16:38.965,0.105,-0.029,1.113,93.933,48.279,-32.898, , , , , , ,-6.224,-6.713,-98.888
 09:24:11.689,eb:33:2e:f9:57:b5, 2015-01-01 00:16:38.965,0.147,-0.117,1.008,93.079,50.537,-31.799, , , , , , ,-5.735,-6.476,-99.075
 09:24:11.689,eb:33:2e:f9:57:b5, 2015-01-01 00:16:38.965,0.151,-0.135,0.995,92.102,55.054,-27.1, , , , , , ,-5.251,-6.229,-99.25
 09:24:11.689,eb:33:2e:f9:57:b5, 2015-01-01 00:16:38.965,0.147,0.098,0.982,80.322,52.551,-20.325, , , , , , ,-4.807,-5.971,-99.388
 09:24:11.690,eb:33:2e:f9:57:b5, 2015-01-01 00:16:38.965,0.064,0.143,0.973,67.444,48.523,-13.611, , , , , , ,-4.433,-5.729,-99.492
 09:24:11.690,eb:33:2e:f9:57:b5, 2015-01-01 00:16:38.965,-0.039,0.198,0.959,55.481,43.213,-10.803, , , , , , ,-4.125,-5.504,-99.569
 09:24:11.777,eb:33:2e:f9:57:b5, 2015-01-01 00:16:38.965,-0.007,0.166,0.93,45.837,35.034,-9.888, , , , , , ,-3.873,-5.317,-99.63
 09:24:11.777,eb:33:2e:f9:57:b5, 2015-01-01 00:16:38.965,0.031,0.093,0.958,40.588,28.992,-11.353, , , , , , ,-3.653,-5.164,-99.695
 09:24:11.777,eb:33:2e:f9:57:b5, 2015-01-01 00:16:38.965,0.05,0.076,1,35.583,26.306,-12.024, , , , , , ,-3.455,-5.032,-99.767
 09:24:11.777,eb:33:2e:f9:57:b5, 2015-01-01 00:16:38.965,-0.03,0.103,0.966,27.832,19.897,-11.536, , , , , , ,-3.296,-4.922,-99.833
 09:24:11.777,eb:33:2e:f9:57:b5, 2015-01-01 00:16:38.965,-0.106,0.118,0.941,18.799,8.85,-9.766, , , , , , ,-3.175,-4.856,-99.888
 09:24:11.777,eb:33:2e:f9:57:b5, 2015-01-01 00:16:38.965,-0.052,0.05,0.919,12.756,-2.441,-7.08, , , , , , ,-3.098,-4.85,-99.932
 09:24:11.777,eb:33:2e:f9:57:b5, 2015-01-01 00:16:38.965,0.056,-0.029,0.964,11.353,-7.996,-5.92, , , , , , ,-3.038,-4.883,-99.965
 09:24:11.778,eb:33:2e:f9:57:b5, 2015-01-01 00:16:38.965,0.101,-0.072,1.036,12.817,-9.521,-6.531, , , , , , ,-2.972,-4.933,-99.992
 09:24:11.780,eb:33:2e:f9:57:b5, 2015-01-01 00:16:38.965,0.093,-0.069,1.05,14.648,-9.399,-8.179, , , , , , ,-2.9,-4.982,-100.031
 09:24:11.780,eb:33:2e:f9:57:b5, 2015-01-01 00:16:38.965,0.068,-0.064,1.042,15.991,-9.46,-8.728, , , , , , ,-2.818,-5.032,-100.069
 09:24:11.780,eb:33:2e:f9:57:b5, 2015-01-01 00:16:38.965,0.066,-0.056,1.021,16.602,-10.01,-7.874, , , , , , ,-2.73,-5.081,-100.107
 09:24:11.780,eb:33:2e:f9:57:b5, 2015-01-01 00:16:38.965,0.079,-0.05,1.016,16.785,-10.376,-6.775, , , , , , ,-2.642,-5.131,-100.146
 09:24:11.780,eb:33:2e:f9:57:b5, 2015-01-01 00:16:38.965,0.103,-0.048,1.025,17.151,-10.742,-6.287, , , , , , ,-2.554,-5.191,-100.173
 09:24:11.780,eb:33:2e:f9:57:b5, 2015-01-01 00:16:38.965,0.112,-0.059,1.039,18.188,-9.277,-6.531, , , , , , ,-2.466,-5.24,-100.206
 09:24:11.780,eb:33:2e:f9:57:b5, 2015-01-01 00:16:38.965,0.092,-0.057,1.037,18.921,-7.324,-6.836, , , , , , ,-2.368,-5.279,-100.239
 09:24:11.780,eb:33:2e:f9:57:b5, 2015-01-01 00:16:38.965,0.083,-0.043,1.02,19.104,-6.531,-6.653, , , , , , ,-2.269,-5.317,-100.272
 09:24:11.823,eb:33:2e:f9:57:b5, 2015-01-01 00:16:39.370,0.091,-0.03,1.008,18.982,-6.653,-6.531, , , , , , ,-2.17,-5.35,-100.305
 09:24:11.823,eb:33:2e:f9:57:b5, 2015-01-01 00:16:39.370,0.106,-0.028,1.011,19.043,-6.836,-6.958, , , , , , ,-2.071,-5.389,-100.338
 09:24:11.823,eb:33:2e:f9:57:b5, 2015-01-01 00:16:39.370,0.122,-0.043,1.021,19.775,-6.042,-7.446, , , , , , ,-1.967,-5.422,-100.371
 09:24:11.823,eb:33:2e:f9:57:b5, 2015-01-01 00:16:39.370,0.132,-0.048,1.03,20.569,-4.456,-7.629, , , , , , ,-1.862,-5.449,-100.41
 09:24:11.823,eb:33:2e:f9:57:b5, 2015-01-01 00:16:39.370,0.132,-0.027,1.026,20.691,-2.686,-7.996, , , , , , ,-1.752,-5.466,-100.453
 09:24:11.823,eb:33:2e:f9:57:b5, 2015-01-01 00:16:39.370,0.125,-0.008,1.012,20.081,-0.793,-8.362, , , , , , ,-1.648,-5.477,-100.492
 09:24:11.824,eb:33:2e:f9:57:b5, 2015-01-01 00:16:39.370,0.125,-0.006,1,19.226,1.099,-8.118, , , , , , ,-1.544,-5.471,-100.536
 09:24:11.824,eb:33:2e:f9:57:b5, 2015-01-01 00:16:39.370,0.126,-0.007,0.996,18.25,3.662,-7.69, , , , , , ,-1.45,-5.46,-100.574
 09:24:11.890,eb:33:2e:f9:57:b5, 2015-01-01 00:16:39.370,0.126,-0.009,1.001,17.456,6.287,-7.141, , , , , , ,-1.357,-5.438,-100.613
 09:24:11.890,eb:33:2e:f9:57:b5, 2015-01-01 00:16:39.370,0.146,-0.013,1.012,16.663,8.606,-6.47, , , , , , ,-1.269,-5.4,-100.651
 09:24:11.890,eb:33:2e:f9:57:b5, 2015-01-01 00:16:39.370,0.161,-0.018,1.032,16.357,11.902,-5.981, , , , , , ,-1.181,-5.345,-100.684
 09:24:11.890,eb:33:2e:f9:57:b5, 2015-01-01 00:16:39.370,0.151,-0.021,1.042,16.479,16.174,-5.554, , , , , , ,-1.093,-5.273,-100.712
 09:24:11.890,eb:33:2e:f9:57:b5, 2015-01-01 00:16:39.370,0.103,-0.015,1.03,16.296,20.447,-5.249, , , , , , ,-1.011,-5.18,-100.745
 09:24:11.890,eb:33:2e:f9:57:b5, 2015-01-01 00:16:39.370,0.077,-0.011,0.998,15.808,22.644,-4.639, , , , , , ,-0.928,-5.07,-100.772
 09:24:11.890,eb:33:2e:f9:57:b5, 2015-01-01 00:16:39.370,0.053,-0.008,0.984,15.259,23.499,-4.272, , , , , , ,-0.846,-4.955,-100.794
 09:24:11.890,eb:33:2e:f9:57:b5, 2015-01-01 00:16:39.370,0.065,-0.008,0.974,14.465,23.254,-4.089, , , , , , ,-0.769,-4.839,-100.816
 09:24:11.912,eb:33:2e:f9:57:b5, 2015-01-01 00:16:39.370,0.083,0,0.968,13.489,23.132,-4.028, , , , , , ,-0.698,-4.724,-100.844
 09:24:11.912,eb:33:2e:f9:57:b5, 2015-01-01 00:16:39.370,0.113,0.002,0.978,12.817,23.682,-4.089, , , , , , ,-0.632,-4.603,-100.865
 09:24:11.912,eb:33:2e:f9:57:b5, 2015-01-01 00:16:39.370,0.151,0.009,1.004,12.268,25.513,-4.15, , , , , , ,-0.566,-4.482,-100.887
 09:24:11.912,eb:33:2e:f9:57:b5, 2015-01-01 00:16:39.370,0.154,0.017,1.03,11.902,28.503,-4.395, , , , , , ,-0.5,-4.345,-100.909
 09:24:11.912,eb:33:2e:f9:57:b5, 2015-01-01 00:16:39.370,0.131,0.016,1.031,11.414,32.532,-4.395, , , , , , ,-0.439,-4.191,-100.937
 09:24:11.912,eb:33:2e:f9:57:b5, 2015-01-01 00:16:39.370,0.115,0,1.014,11.169,36.377,-3.357, , , , , , ,-0.385,-4.016,-100.953
 09:24:11.912,eb:33:2e:f9:57:b5, 2015-01-01 00:16:39.370,0.098,0.012,0.99,10.742,38.757,-2.441, , , , , , ,-0.324,-3.829,-100.97
 09:24:11.912,eb:33:2e:f9:57:b5, 2015-01-01 00:16:39.370,0.079,0.011,0.986,10.376,40.283,-1.404, , , , , , ,-0.275,-3.625,-100.981
 09:24:11.935,eb:33:2e:f9:57:b5, 2015-01-01 00:16:39.370,0.076,0.023,0.964,9.583,41.077,-0.549, , , , , , ,-0.22,-3.422,-100.986
 09:24:11.935,eb:33:2e:f9:57:b5, 2015-01-01 00:16:39.370,0.076,0.014,0.979,9.46,40.833,-0.427, , , , , , ,-0.176,-3.219,-100.992
 09:24:11.935,eb:33:2e:f9:57:b5, 2015-01-01 00:16:39.370,0.094,0,1.003,10.254,40.588,-0.793, , , , , , ,-0.121,-3.016,-100.997
 09:24:11.935,eb:33:2e:f9:57:b5, 2015-01-01 00:16:39.370,0.068,-0.003,1.034,11.414,41.199,-1.587, , , , , , ,-0.066,-2.812,-101.003
 09:24:11.935,eb:33:2e:f9:57:b5, 2015-01-01 00:16:39.370,0.034,0,1.015,12.329,41.504,-2.197, , , , , , ,-0.005,-2.604,-101.014
 09:24:11.935,eb:33:2e:f9:57:b5, 2015-01-01 00:16:39.370,0.008,-0.015,1.011,13.733,40.833,-2.563, , , , , , ,0.055,-2.395,-101.025
 09:24:11.935,eb:33:2e:f9:57:b5, 2015-01-01 00:16:39.370,0.012,-0.021,1.009,15.564,38.94,-3.113, , , , , , ,0.132,-2.197,-101.041
 09:24:11.935,eb:33:2e:f9:57:b5, 2015-01-01 00:16:39.370,0.016,-0.022,1.026,17.7,36.621,-3.906, , , , , , ,0.214,-2.01,-101.058
 09:24:11.981,eb:33:2e:f9:57:b5, 2015-01-01 00:16:39.370,-0.013,-0.015,1.021,19.287,34.851,-4.944, , , , , , ,0.308,-1.835,-101.08
 09:24:11.981,eb:33:2e:f9:57:b5, 2015-01-01 00:16:39.370,-0.036,-0.011,0.99,20.569,32.593,-5.31, , , , , , ,0.412,-1.664,-101.107
 09:24:11.981,eb:33:2e:f9:57:b5, 2015-01-01 00:16:39.370,-0.039,-0.001,0.965,21.545,28.992,-5.554, , , , , , ,0.522,-1.511,-101.135
 09:24:11.981,eb:33:2e:f9:57:b5, 2015-01-01 00:16:39.370,-0.058,-0.004,0.976,22.4,25.94,-5.798, , , , , , ,0.632,-1.373,-101.162
 09:24:11.981,eb:33:2e:f9:57:b5, 2015-01-01 00:16:39.370,-0.042,0,0.962,23.193,21.912,-5.432, , , , , , ,0.747,-1.258,-101.19
 09:24:11.981,eb:33:2e:f9:57:b5, 2015-01-01 00:16:39.370,-0.034,-0.003,0.996,24.353,18.433,-4.883, , , , , , ,0.868,-1.159,-101.217
 09:24:11.981,eb:33:2e:f9:57:b5, 2015-01-01 00:16:39.370,0,-0.015,1.021,26.123,15.381,-2.991, , , , , , ,0.994,-1.071,-101.234
 09:24:11.982,eb:33:2e:f9:57:b5, 2015-01-01 00:16:39.370,0.056,-0.004,1.049,27.954,14.404,-1.831, , , , , , ,1.132,-1,-101.245
 09:24:12.024,eb:33:2e:f9:57:b5, 2015-01-01 00:16:39.370,0.108,0.023,1.047,29.114,15.259,-2.93, , , , , , ,1.274,-0.928,-101.255
 09:24:12.024,eb:33:2e:f9:57:b5, 2015-01-01 00:16:39.370,0.14,0.013,1.16,30.518,17.944,-4.944, , , , , , ,1.428,-0.846,-101.272
 09:24:12.024,eb:33:2e:f9:57:b5, 2015-01-01 00:16:39.370,0.081,0.024,1.168,34.241,19.47,-7.019, , , , , , ,1.593,-0.747,-101.305
 09:24:12.024,eb:33:2e:f9:57:b5, 2015-01-01 00:16:39.370,-0.049,0.002,1.171,38.452,19.47,-7.08, , , , , , ,1.774,-0.648,-101.338
 09:24:12.024,eb:33:2e:f9:57:b5, 2015-01-01 00:16:39.370,-0.024,-0.15,1.37,45.776,19.165,-2.991, , , , , , ,1.989,-0.549,-101.36
 09:24:12.024,eb:33:2e:f9:57:b5, 2015-01-01 00:16:39.370,-0.011,-0.1,1.255,53.955,17.456,-0.305, , , , , , ,2.247,-0.456,-101.36
 09:24:12.024,eb:33:2e:f9:57:b5, 2015-01-01 00:16:39.370,-0.084,0.019,1.089,58.838,12.268,-0.732, , , , , , ,2.532,-0.385,-101.36
 09:24:12.024,eb:33:2e:f9:57:b5, 2015-01-01 00:16:39.370,-0.123,-0.009,1.114,64.087,5.371,0.122, , , , , , ,2.84,-0.341,-101.36
 09:24:12.070,eb:33:2e:f9:57:b5, 2015-01-01 00:16:39.370,-0.129,-0.049,1.184,69.519,0.854,1.77, , , , , , ,3.181,-0.335,-101.354
 09:24:12.070,eb:33:2e:f9:57:b5, 2015-01-01 00:16:39.370,-0.142,-0.048,1.26,72.815,-0.977,2.991, , , , , , ,3.538,-0.335,-101.343
 09:24:12.070,eb:33:2e:f9:57:b5, 2015-01-01 00:16:39.370,-0.123,-0.056,1.2,77.148,-5.188,4.944, , , , , , ,3.917,-0.352,-101.327
 09:24:12.070,eb:33:2e:f9:57:b5, 2015-01-01 00:16:39.370,-0.108,-0.029,1.207,80.627,-9.583,5.981, , , , , , ,4.312,-0.39,-101.299
 09:24:12.070,eb:33:2e:f9:57:b5, 2015-01-01 00:16:39.370,-0.1,-0.031,1.227,85.571,-12.756,6.775, , , , , , ,4.73,-0.456,-101.272
 09:24:12.070,eb:33:2e:f9:57:b5, 2015-01-01 00:16:39.370,-0.084,-0.051,1.261,90.881,-15.32,7.69, , , , , , ,5.169,-0.527,-101.245
 09:24:12.070,eb:33:2e:f9:57:b5, 2015-01-01 00:16:39.370,-0.033,-0.048,1.244,97.29,-19.958,8.484, , , , , , ,5.647,-0.621,-101.212
 09:24:12.070,eb:33:2e:f9:57:b5, 2015-01-01 00:16:39.370,0.022,-0.021,1.274,103.699,-23.56,8.057, , , , , , ,6.152,-0.736,-101.184
 09:24:12.093,eb:33:2e:f9:57:b5, 2015-01-01 00:16:39.725,0.057,-0.034,1.338,110.596,-24.231,7.568, , , , , , ,6.691,-0.862,-101.157
 09:24:12.093,eb:33:2e:f9:57:b5, 2015-01-01 00:16:39.725,0.078,-0.023,1.344,117.737,-23.865,7.019, , , , , , ,7.262,-0.983,-101.135
 09:24:12.093,eb:33:2e:f9:57:b5, 2015-01-01 00:16:39.725,0.095,-0.001,1.346,124.573,-23.071,6.104, , , , , , ,7.872,-1.104,-101.118
 09:24:12.093,eb:33:2e:f9:57:b5, 2015-01-01 00:16:39.725,0.122,0.012,1.352,131.47,-21.79,4.944, , , , , , ,8.52,-1.219,-101.107
 09:24:12.094,eb:33:2e:f9:57:b5, 2015-01-01 00:16:39.725,0.139,0.023,1.364,138,-20.142,3.113, , , , , , ,9.196,-1.324,-101.107
 09:24:12.094,eb:33:2e:f9:57:b5, 2015-01-01 00:16:39.725,0.159,0.028,1.36,144.836,-17.517,1.648, , , , , , ,9.904,-1.417,-101.113
 09:24:12.094,eb:33:2e:f9:57:b5, 2015-01-01 00:16:39.725,0.202,0.049,1.373,150.757,-14.893,-0.61, , , , , , ,10.651,-1.494,-101.124
 09:24:12.094,eb:33:2e:f9:57:b5, 2015-01-01 00:16:39.725,0.239,0.083,1.434,155.884,-9.949,-3.418, , , , , , ,11.42,-1.555,-101.146
 09:24:12.161,eb:33:2e:f9:57:b5, 2015-01-01 00:16:39.725,0.241,0.077,1.533,161.377,-2.38,-6.531, , , , , , ,12.217,-1.577,-101.179
 09:24:12.161,eb:33:2e:f9:57:b5, 2015-01-01 00:16:39.725,0.271,0.047,1.507,169.922,7.202,-9.216, , , , , , ,13.052,-1.549,-101.217
 09:24:12.161,eb:33:2e:f9:57:b5, 2015-01-01 00:16:39.725,0.284,0.082,1.49,175.354,13.611,-12.39, , , , , , ,13.914,-1.483,-101.261
 09:24:12.161,eb:33:2e:f9:57:b5, 2015-01-01 00:16:39.725,0.283,0.067,1.481,182.434,20.264,-15.442, , , , , , ,14.815,-1.379,-101.305
 09:24:12.161,eb:33:2e:f9:57:b5, 2015-01-01 00:16:39.725,0.285,0.086,1.507,189.514,26.855,-18.982, , , , , , ,15.749,-1.241,-101.36
 09:24:12.162,eb:33:2e:f9:57:b5, 2015-01-01 00:16:39.725,0.298,0.088,1.526,197.021,33.325,-22.583, , , , , , ,16.721,-1.06,-101.42
 09:24:12.162,eb:33:2e:f9:57:b5, 2015-01-01 00:16:39.725,0.319,0.093,1.537,204.773,38.94,-26.001, , , , , , ,17.732,-0.846,-101.481
 09:24:12.162,eb:33:2e:f9:57:b5, 2015-01-01 00:16:39.725,0.333,0.096,1.523,213.318,44.495,-30.273, , , , , , ,18.781,-0.604,-101.552
 09:24:12.183,eb:33:2e:f9:57:b5, 2015-01-01 00:16:39.725,0.35,0.107,1.532,221.924,48.035,-34.973, , , , , , ,19.874,-0.33,-101.629
 09:24:12.183,eb:33:2e:f9:57:b5, 2015-01-01 00:16:39.725,0.34,0.123,1.537,231.445,52.429,-40.283, , , , , , ,21.017,-0.022,-101.722
 09:24:12.183,eb:33:2e:f9:57:b5, 2015-01-01 00:16:39.725,0.394,0.143,1.604,241.028,56.274,-45.959, , , , , , ,22.198,0.308,-101.827
 09:24:12.183,eb:33:2e:f9:57:b5, 2015-01-01 00:16:39.725,0.425,0.122,1.664,251.648,61.035,-51.208, , , , , , ,23.434,0.676,-101.937
 09:24:12.183,eb:33:2e:f9:57:b5, 2015-01-01 00:16:39.725,0.395,0.102,1.652,264.343,62.744,-56.702, , , , , , ,24.73,1.071,-102.057
 09:24:12.183,eb:33:2e:f9:57:b5, 2015-01-01 00:16:39.725,0.445,0.199,1.687,277.283,57.556,-64.087, , , , , , ,26.087,1.478,-102.206
 09:24:12.183,eb:33:2e:f9:57:b5, 2015-01-01 00:16:39.725,0.409,0.216,1.828,290.1,51.819,-71.594, , , , , , ,27.504,1.868,-102.393
 09:24:12.183,eb:33:2e:f9:57:b5, 2015-01-01 00:16:39.725,0.457,0.23,2.046,303.894,46.57,-77.759, , , , , , ,28.987,2.263,-102.607
 09:24:12.274,eb:33:2e:f9:57:b5, 2015-01-01 00:16:39.725,0.496,0.233,2.25,317.322,41.138,-82.153, , , , , , ,30.536,2.653,-102.849
 09:24:12.274,eb:33:2e:f9:57:b5, 2015-01-01 00:16:39.725,0.53,0.271,2.293,331.238,32.715,-90.637, , , , , , ,32.157,3.032,-103.129
 09:24:12.274,eb:33:2e:f9:57:b5, 2015-01-01 00:16:39.725,0.555,0.161,2.53,343.506,37.231,-97.107, , , , , , ,33.827,3.439,-103.431
 09:24:12.274,eb:33:2e:f9:57:b5, 2015-01-01 00:16:39.725,0.583,-0.019,2.759,356.628,49.927,-98.145, , , , , , ,35.568,3.9,-103.711
 09:24:12.274,eb:33:2e:f9:57:b5, 2015-01-01 00:16:39.725,0.569,-0.058,2.686,372.314,59.448,-101.379, , , , , , ,37.381,4.422,-103.942
 09:24:12.274,eb:33:2e:f9:57:b5, 2015-01-01 00:16:39.725,0.491,-0.057,2.574,383.057,60.73,-107.178, , , , , , ,39.26,4.988,-104.167
 09:24:12.274,eb:33:2e:f9:57:b5, 2015-01-01 00:16:39.725,0.444,-0.046,2.783,388.733,66.589,-112.976, , , , , , ,41.166,5.581,-104.387
 09:24:12.274,eb:33:2e:f9:57:b5, 2015-01-01 00:16:39.725,0.454,-0.229,3.102,394.897,87.463,-112.244, , , , , , ,43.11,6.251,-104.546
 09:24:12.275,eb:33:2e:f9:57:b5, 2015-01-01 00:16:39.725,0.396,-0.248,3.216,402.222,115.479,-113.037, , , , , , ,45.104,7.015,-104.584
 09:24:12.275,eb:33:2e:f9:57:b5, 2015-01-01 00:16:39.725,0.381,-0.146,3.402,407.166,141.174,-111.084, , , , , , ,47.142,7.877,-104.496
 09:24:12.275,eb:33:2e:f9:57:b5, 2015-01-01 00:16:39.725,0.483,-0.231,3.188,413.94,152.527,-112.854, , , , , , ,49.213,8.789,-104.315
 09:24:12.275,eb:33:2e:f9:57:b5, 2015-01-01 00:16:39.725,0.387,-0.2,3.083,421.753,165.405,-121.704, , , , , , ,51.345,9.75,-104.079
 09:24:12.275,eb:33:2e:f9:57:b5, 2015-01-01 00:16:39.725,0.342,-0.06,3.311,435.425,192.688,-124.451, , , , , , ,53.564,10.794,-103.727
 09:24:12.275,eb:33:2e:f9:57:b5, 2015-01-01 00:16:39.725,0.122,-0.587,3.052,429.138,224.182,-115.112, , , , , , ,55.827,11.893,-103.206
 09:24:12.275,eb:33:2e:f9:57:b5, 2015-01-01 00:16:39.725,0.504,-0.435,2.259,410.034,239.624,-97.9, , , , , , ,58.068,12.969,-102.491
 09:24:12.275,eb:33:2e:f9:57:b5, 2015-01-01 00:16:39.725,0.435,-0.496,1.655,371.033,258.057,-83.435, , , , , , ,60.211,13.991,-101.624
 09:24:12.296,eb:33:2e:f9:57:b5, 2015-01-01 00:16:39.725,0.441,-0.087,1.21,331.543,272.522,-70.679, , , , , , ,62.199,14.98,-100.585
 09:24:12.296,eb:33:2e:f9:57:b5, 2015-01-01 00:16:39.725,0.496,-0.61,0.771,304.443,249.512,-54.749, , , , , , ,64.061,15.831,-99.525
 09:24:12.296,eb:33:2e:f9:57:b5, 2015-01-01 00:16:39.725,0.976,-1.32,-0.357,251.099,209.595,-41.443, , , , , , ,65.693,16.523,-98.569
 09:24:12.296,eb:33:2e:f9:57:b5, 2015-01-01 00:16:39.725,0.257,-2.291,-1.05,175.659,155.334,-38.086, , , , , , ,66.94,17.045,-97.789
 09:24:12.296,eb:33:2e:f9:57:b5, 2015-01-01 00:16:39.725,0.586,-0.059,-2.347,90.942,52.063,-75.623, , , , , , ,67.714,17.562,-97.416
 09:24:12.296,eb:33:2e:f9:57:b5, 2015-01-01 00:16:39.725,0.387,1.036,-0.722,-38.94,-18.066,-82.336, , , , , , ,67.72,17.93,-97.57
 09:24:12.296,eb:33:2e:f9:57:b5, 2015-01-01 00:16:39.725,0.656,-0.183,0.647,-116.211,-53.833,-71.411, , , , , , ,67.137,18.21,-97.932
 09:24:12.296,eb:33:2e:f9:57:b5, 2015-01-01 00:16:39.725,0.386,-1.774,1.629,-130.249,-22.4,-59.448, , , , , , ,66.401,18.424,-98.251
 09:24:12.340,eb:33:2e:f9:57:b5, 2015-01-01 00:16:39.725,0.542,-1.998,1.339,-135.62,-4.883,-45.105, , , , , , ,65.682,18.633,-98.41
 09:24:12.340,eb:33:2e:f9:57:b5, 2015-01-01 00:16:39.725,0.358,-1.692,1.46,-144.287,31.799,-33.142, , , , , , ,64.979,18.842,-98.41
 09:24:12.340,eb:33:2e:f9:57:b5, 2015-01-01 00:16:39.725,0.373,-1.391,1.376,-143.311,59.814,-22.888, , , , , , ,64.292,19.067,-98.245
 09:24:12.340,eb:33:2e:f9:57:b5, 2015-01-01 00:16:39.725,0.409,-1.227,1.281,-135.376,79.407,-14.16, , , , , , ,63.699,19.303,-97.943
 09:24:12.340,eb:33:2e:f9:57:b5, 2015-01-01 00:16:39.725,0.38,-1.177,0.934,-131.592,89.417,-5.249, , , , , , ,63.166,19.539,-97.548
 09:24:12.340,eb:33:2e:f9:57:b5, 2015-01-01 00:16:39.725,0.39,-1.175,0.444,-136.292,85.571,4.822, , , , , , ,62.639,19.737,-97.13
 09:24:12.340,eb:33:2e:f9:57:b5, 2015-01-01 00:16:39.725,0.422,-1.133,0.062,-148.132,69.153,13.733, , , , , , ,62.04,19.863,-96.751
 09:24:12.340,eb:33:2e:f9:57:b5, 2015-01-01 00:16:39.725,0.437,-1.034,-0.18,-166.016,44.617,20.386, , , , , , ,61.348,19.913,-96.449
 09:24:12.406,eb:33:2e:f9:57:b5, 2015-01-01 00:16:39.725,0.445,-0.958,-0.292,-187.073,15.625,25.513, , , , , , ,60.518,19.88,-96.257
 09:24:12.406,eb:33:2e:f9:57:b5, 2015-01-01 00:16:39.725,0.445,-0.948,-0.262,-207.825,-12.756,30.334, , , , , , ,59.54,19.753,-96.191
 09:24:12.406,eb:33:2e:f9:57:b5, 2015-01-01 00:16:39.725,0.45,-0.966,-0.134,-226.501,-36.438,35.217, , , , , , ,58.42,19.534,-96.235
 09:24:12.406,eb:33:2e:f9:57:b5, 2015-01-01 00:16:39.725,0.456,-0.966,0.028,-242.981,-53.589,39.856, , , , , , ,57.2,19.248,-96.339
 09:24:12.406,eb:33:2e:f9:57:b5, 2015-01-01 00:16:39.725,0.465,-0.928,0.177,-257.69,-64.941,43.64, , , , , , ,55.893,18.902,-96.482
 09:24:12.406,eb:33:2e:f9:57:b5, 2015-01-01 00:16:39.725,0.475,-0.867,0.312,-271.24,-71.045,46.753, , , , , , ,54.509,18.523,-96.641
 09:24:12.406,eb:33:2e:f9:57:b5, 2015-01-01 00:16:39.725,0.481,-0.795,0.423,-283.325,-73.914,48.828, , , , , , ,53.047,18.105,-96.812
 09:24:12.406,eb:33:2e:f9:57:b5, 2015-01-01 00:16:39.725,0.477,-0.705,0.492,-294.312,-75.5,49.744, , , , , , ,51.553,17.682,-96.965
 09:24:12.430,eb:33:2e:f9:57:b5, 2015-01-01 00:16:40.040,0.479,-0.61,0.533,-303.955,-77.637,49.622, , , , , , ,50.004,17.249,-97.108
 09:24:12.430,eb:33:2e:f9:57:b5, 2015-01-01 00:16:40.040,0.479,-0.526,0.582,-311.829,-80.505,48.34, , , , , , ,48.417,16.804,-97.256
 09:24:12.430,eb:33:2e:f9:57:b5, 2015-01-01 00:16:40.040,0.474,-0.466,0.626,-317.871,-83.679,46.814, , , , , , ,46.78,16.348,-97.416
 09:24:12.430,eb:33:2e:f9:57:b5, 2015-01-01 00:16:40.040,0.461,-0.431,0.672,-321.838,-86.975,45.288, , , , , , ,45.132,15.886,-97.57
 09:24:12.430,eb:33:2e:f9:57:b5, 2015-01-01 00:16:40.040,0.437,-0.415,0.72,-323.364,-90.759,43.945, , , , , , ,43.473,15.408,-97.729
 09:24:12.430,eb:33:2e:f9:57:b5, 2015-01-01 00:16:40.040,0.404,-0.397,0.758,-322.876,-95.581,42.908, , , , , , ,41.814,14.919,-97.888
 09:24:12.430,eb:33:2e:f9:57:b5, 2015-01-01 00:16:40.040,0.373,-0.364,0.786,-321.594,-101.746,42.236, , , , , , ,40.144,14.398,-98.069
 09:24:12.430,eb:33:2e:f9:57:b5, 2015-01-01 00:16:40.040,0.352,-0.322,0.826,-320.801,-108.337,42.236, , , , , , ,38.491,13.859,-98.245
 09:24:12.453,eb:33:2e:f9:57:b5, 2015-01-01 00:16:40.040,0.331,-0.286,0.891,-320.801,-114.075,42.725, , , , , , ,36.848,13.282,-98.421
 09:24:12.453,eb:33:2e:f9:57:b5, 2015-01-01 00:16:40.040,0.311,-0.252,0.955,-321.838,-118.835,43.579, , , , , , ,35.2,12.684,-98.597
 09:24:12.453,eb:33:2e:f9:57:b5, 2015-01-01 00:16:40.040,0.294,-0.221,1.006,-324.158,-123.169,44.739, , , , , , ,33.53,12.052,-98.767
 09:24:12.453,eb:33:2e:f9:57:b5, 2015-01-01 00:16:40.040,0.28,-0.199,1.053,-327.271,-127.319,45.715, , , , , , ,31.866,11.398,-98.921
 09:24:12.453,eb:33:2e:f9:57:b5, 2015-01-01 00:16:40.040,0.267,-0.168,1.102,-331.421,-132.385,46.631, , , , , , ,30.19,10.723,-99.058
 09:24:12.453,eb:33:2e:f9:57:b5, 2015-01-01 00:16:40.040,0.258,-0.14,1.144,-334.045,-137.146,46.875, , , , , , ,28.504,10.02,-99.19
 09:24:12.453,eb:33:2e:f9:57:b5, 2015-01-01 00:16:40.040,0.271,-0.119,1.208,-335.022,-141.541,46.814, , , , , , ,26.785,9.283,-99.316
 09:24:12.453,eb:33:2e:f9:57:b5, 2015-01-01 00:16:40.040,0.255,-0.105,1.301,-333.862,-144.348,46.143, , , , , , ,25.098,8.536,-99.421
 09:24:12.497,eb:33:2e:f9:57:b5, 2015-01-01 00:16:40.040,0.227,-0.084,1.354,-331.299,-146.973,45.41, , , , , , ,23.423,7.778,-99.514
 09:24:12.497,eb:33:2e:f9:57:b5, 2015-01-01 00:16:40.040,0.197,-0.069,1.403,-328.064,-148.621,44.983, , , , , , ,21.764,7.004,-99.591
 09:24:12.497,eb:33:2e:f9:57:b5, 2015-01-01 00:16:40.040,0.175,-0.079,1.525,-324.707,-146.545,45.288, , , , , , ,20.105,6.229,-99.651
 09:24:12.497,eb:33:2e:f9:57:b5, 2015-01-01 00:16:40.040,0.19,-0.081,1.584,-321.777,-142.578,46.387, , , , , , ,18.49,5.471,-99.673
 09:24:12.497,eb:33:2e:f9:57:b5, 2015-01-01 00:16:40.040,0.171,-0.071,1.555,-319.824,-140.686,46.631, , , , , , ,16.886,4.73,-99.662
 09:24:12.497,eb:33:2e:f9:57:b5, 2015-01-01 00:16:40.040,0.167,-0.066,1.581,-318.054,-140.198,46.753, , , , , , ,15.298,3.988,-99.635
 09:24:12.497,eb:33:2e:f9:57:b5, 2015-01-01 00:16:40.040,0.192,-0.058,1.623,-315.857,-140.808,46.204, , , , , , ,13.694,3.241,-99.591
 09:24:12.497,eb:33:2e:f9:57:b5, 2015-01-01 00:16:40.040,0.205,-0.033,1.679,-313.354,-141.602,44.8, , , , , , ,12.123,2.499,-99.525
 09:24:12.542,eb:33:2e:f9:57:b5, 2015-01-01 00:16:40.040,0.223,-0.005,1.739,-309.631,-142.09,42.664, , , , , , ,10.569,1.763,-99.454
 09:24:12.542,eb:33:2e:f9:57:b5, 2015-01-01 00:16:40.040,0.24,0.022,1.818,-304.504,-141.235,40.1, , , , , , ,9.042,1.027,-99.371
 09:24:12.542,eb:33:2e:f9:57:b5, 2015-01-01 00:16:40.040,0.253,0.053,1.899,-298.157,-138.916,37.17, , , , , , ,7.515,0.302,-99.283
 09:24:12.542,eb:33:2e:f9:57:b5, 2015-01-01 00:16:40.040,0.263,0.079,1.978,-291.748,-135.193,34.241, , , , , , ,6.042,-0.396,-99.19
 09:24:12.542,eb:33:2e:f9:57:b5, 2015-01-01 00:16:40.040,0.269,0.098,2.046,-285.95,-130.31,31.738, , , , , , ,4.598,-1.071,-99.091
 09:24:12.542,eb:33:2e:f9:57:b5, 2015-01-01 00:16:40.040,0.285,0.114,2.108,-280.945,-124.695,29.602, , , , , , ,3.181,-1.714,-98.981
 09:24:12.542,eb:33:2e:f9:57:b5, 2015-01-01 00:16:40.040,0.303,0.14,2.164,-277.222,-119.08,27.283, , , , , , ,1.763,-2.335,-98.871
 09:24:12.542,eb:33:2e:f9:57:b5, 2015-01-01 00:16:40.040,0.308,0.185,2.19,-275.085,-114.929,24.536, , , , , , ,0.379,-2.917,-98.751
 09:24:12.589,eb:33:2e:f9:57:b5, 2015-01-01 00:16:40.040,0.294,0.244,2.183,-274.658,-113.831,21.179, , , , , , ,-1,-3.488,-98.635
 09:24:12.589,eb:33:2e:f9:57:b5, 2015-01-01 00:16:40.040,0.255,0.312,2.153,-275.696,-116.821,17.456, , , , , , ,-2.379,-4.065,-98.525
 09:24:12.589,eb:33:2e:f9:57:b5, 2015-01-01 00:16:40.040,0.198,0.375,2.114,-277.588,-124.268,13.672, , , , , , ,-3.796,-4.669,-98.416
 09:24:12.589,eb:33:2e:f9:57:b5, 2015-01-01 00:16:40.040,0.109,0.433,2.082,-279.968,-135.498,10.254, , , , , , ,-5.202,-5.317,-98.311
 09:24:12.589,eb:33:2e:f9:57:b5, 2015-01-01 00:16:40.040,0.006,0.486,2.045,-282.898,-149.719,7.996, , , , , , ,-6.619,-6.031,-98.19
 09:24:12.589,eb:33:2e:f9:57:b5, 2015-01-01 00:16:40.040,-0.088,0.507,2.056,-285.95,-164.368,7.202, , , , , , ,-8.058,-6.812,-98.053
 09:24:12.589,eb:33:2e:f9:57:b5, 2015-01-01 00:16:40.040,-0.193,0.551,2.138,-289.612,-175.72,7.507, , , , , , ,-9.542,-7.663,-97.883
 09:24:12.589,eb:33:2e:f9:57:b5, 2015-01-01 00:16:40.040,-0.296,0.657,2.233,-295.044,-183.838,10.01, , , , , , ,-11.036,-8.547,-97.679
 09:24:12.678,eb:33:2e:f9:57:b5, 2015-01-01 00:16:40.040,-0.396,0.764,2.377,-301.88,-185.669,13.977, , , , , , ,-12.574,-9.443,-97.427
 09:24:12.678,eb:33:2e:f9:57:b5, 2015-01-01 00:16:40.040,-0.502,0.851,2.551,-308.35,-179.321,19.165, , , , , , ,-14.15,-10.311,-97.13
 09:24:12.678,eb:33:2e:f9:57:b5, 2015-01-01 00:16:40.040,-0.604,0.963,2.681,-314.209,-166.87,25.208, , , , , , ,-15.793,-11.118,-96.79
 09:24:12.678,eb:33:2e:f9:57:b5, 2015-01-01 00:16:40.040,-0.657,1.098,2.754,-318.542,-150.818,31.86, , , , , , ,-17.452,-11.832,-96.416
 09:24:12.678,eb:33:2e:f9:57:b5, 2015-01-01 00:16:40.040,-0.682,1.229,2.843,-319.214,-130.676,39.124, , , , , , ,-19.133,-12.437,-96.021
 09:24:12.678,eb:33:2e:f9:57:b5, 2015-01-01 00:16:40.040,-0.695,1.387,2.917,-314.392,-107.239,47.18, , , , , , ,-20.808,-12.909,-95.603
 09:24:12.678,eb:33:2e:f9:57:b5, 2015-01-01 00:16:40.040,-0.664,1.676,2.917,-300.598,-79.163,55.786, , , , , , ,-22.456,-13.244,-95.18
 09:24:12.679,eb:33:2e:f9:57:b5, 2015-01-01 00:16:40.040,-0.605,2.007,2.83,-282.837,-58.533,60.852, , , , , , ,-24.005,-13.431,-94.768
 09:24:12.699,eb:33:2e:f9:57:b5, 2015-01-01 00:16:40.040,-0.577,2.375,2.667,-259.399,-42.725,62.012, , , , , , ,-25.444,-13.524,-94.378
 09:24:12.699,eb:33:2e:f9:57:b5, 2015-01-01 00:16:40.040,-0.614,2.75,2.396,-229.797,-36.133,58.228, , , , , , ,-26.741,-13.563,-94.016
 09:24:12.699,eb:33:2e:f9:57:b5, 2015-01-01 00:16:40.040,-0.72,3.115,2.042,-194.153,-42.114,49.683, , , , , , ,-27.878,-13.612,-93.675
 09:24:12.699,eb:33:2e:f9:57:b5, 2015-01-01 00:16:40.040,-0.904,3.448,1.687,-154.968,-60.608,37.048, , , , , , ,-28.806,-13.744,-93.356
 09:24:12.699,eb:33:2e:f9:57:b5, 2015-01-01 00:16:40.040,-1.132,3.684,1.443,-115.662,-85.754,21.912, , , , , , ,-29.537,-14.002,-93.043
 09:24:12.699,eb:33:2e:f9:57:b5, 2015-01-01 00:16:40.040,-1.347,3.752,1.412,-79.102,-106.14,7.629, , , , , , ,-30.081,-14.403,-92.736
 09:24:12.701,eb:33:2e:f9:57:b5, 2015-01-01 00:16:40.040,-1.503,3.666,1.624,-46.326,-110.229,-3.052, , , , , , ,-30.46,-14.875,-92.439
 09:24:12.701,eb:33:2e:f9:57:b5, 2015-01-01 00:16:40.040,-1.55,3.468,2.008,-16.602,-91.248,-8.911, , , , , , ,-30.657,-15.331,-92.208
 09:24:12.703,eb:33:2e:f9:57:b5, 2015-01-01 00:16:40.040,-1.453,3.23,2.392,10.498,-51.086,-11.414, , , , , , ,-30.696,-15.65,-92.076
 09:24:12.703,eb:33:2e:f9:57:b5, 2015-01-01 00:16:40.040,-1.229,3.004,2.602,33.752,2.014,-12.756, , , , , , ,-30.569,-15.765,-92.082
 09:24:12.703,eb:33:2e:f9:57:b5, 2015-01-01 00:16:40.040,-0.946,2.811,2.571,52.368,55.908,-15.686, , , , , , ,-30.306,-15.656,-92.236
 09:24:12.703,eb:33:2e:f9:57:b5, 2015-01-01 00:16:40.040,-0.679,2.646,2.336,67.017,98.938,-21.973, , , , , , ,-29.916,-15.342,-92.538
 09:24:12.703,eb:33:2e:f9:57:b5, 2015-01-01 00:16:40.040,-0.443,2.468,1.983,79.102,123.352,-31.616, , , , , , ,-29.432,-14.908,-92.961
 09:24:12.703,eb:33:2e:f9:57:b5, 2015-01-01 00:16:40.040,3.086,2.255,1.627,90.942,126.221,-44.861, , , , , , ,-28.878,-14.447,-93.461
 09:24:12.703,eb:33:2e:f9:57:b5, 2015-01-01 00:16:40.040,-0.196,0.177,8.262,214.172,147.644,-147.339, , , , , , ,-27.828,-14.464,-94.131
 09:24:12.703,eb:33:2e:f9:57:b5, 2015-01-01 00:16:40.040,2.27,-0.478,0.077,231.262,42.48,-165.771, , , , , , ,-26.461,-14.189,-95.098
 09:24:12.745,eb:33:2e:f9:57:b5, 2015-01-01 00:16:40.040,1.081,-0.974,1.084,230.591,91.614,-178.345, , , , , , ,-25.049,-14.299,-96.097
 09:24:12.745,eb:33:2e:f9:57:b5, 2015-01-01 00:16:40.040,0.797,-1.01,1.733,245.239,117.493,-154.175, , , , , , ,-23.637,-14.15,-97.125
 09:24:12.745,eb:33:2e:f9:57:b5, 2015-01-01 00:16:40.040,0.146,-1.596,0.928,284.912,157.227,-122.864, , , , , , ,-22.061,-13.76,-98.047
 09:24:12.745,eb:33:2e:f9:57:b5, 2015-01-01 00:16:40.040,-0.266,-1.568,1.01,324.463,185.547,-80.017, , , , , , ,-20.336,-13.112,-98.839
 09:24:12.745,eb:33:2e:f9:57:b5, 2015-01-01 00:16:40.040,-0.521,-1.277,0.83,357.117,192.505,-52.124, , , , , , ,-18.463,-12.31,-99.465
 09:24:12.745,eb:33:2e:f9:57:b5, 2015-01-01 00:16:40.040,-0.798,-0.299,1.055,356.689,184.387,-32.104, , , , , , ,-16.567,-11.47,-99.954
 09:24:12.745,eb:33:2e:f9:57:b5, 2015-01-01 00:16:40.040,-0.789,0.363,1.125,334.839,161.865,-14.221, , , , , , ,-14.777,-10.668,-100.289
 09:24:12.745,eb:33:2e:f9:57:b5, 2015-01-01 00:16:40.040,-0.64,0.521,0.918,307.434,133.362,-7.629, , , , , , ,-13.14,-9.976,-100.514
 09:24:12.792,eb:33:2e:f9:57:b5, 2015-01-01 00:16:40.040,-0.177,0.692,1.147,264.709,101.318,-11.78, , , , , , ,-11.689,-9.426,-100.69
 09:24:12.792,eb:33:2e:f9:57:b5, 2015-01-01 00:16:40.040,0.078,0.822,1.428,213.318,80.566,-17.944, , , , , , ,-10.503,-9.009,-100.849
 09:24:12.792,eb:33:2e:f9:57:b5, 2015-01-01 00:16:40.040,-0.002,0.586,1.618,174.866,73.792,-22.888, , , , , , ,-9.525,-8.657,-101.019
 09:24:12.792,eb:33:2e:f9:57:b5, 2015-01-01 00:16:40.040,-0.102,0.361,1.376,150.33,71.899,-31.006, , , , , , ,-8.701,-8.317,-101.217
 09:24:12.792,eb:33:2e:f9:57:b5, 2015-01-01 00:16:40.040,-0.043,0.104,1.12,136.658,67.81,-33.264, , , , , , ,-7.96,-7.993,-101.437
 09:24:12.792,eb:33:2e:f9:57:b5, 2015-01-01 00:16:40.040,0.044,-0.05,0.963,128.845,60.913,-30.029, , , , , , ,-7.278,-7.701,-101.635
 09:24:12.792,eb:33:2e:f9:57:b5, 2015-01-01 00:16:40.040,0.183,-0.017,0.936,119.324,57.8,-23.682, , , , , , ,-6.63,-7.421,-101.805
 09:24:12.792,eb:33:2e:f9:57:b5, 2015-01-01 00:16:40.040,0.226,0.103,0.994,103.516,58.716,-16.541, , , , , , ,-6.064,-7.147,-101.937
 09:24:12.859,eb:33:2e:f9:57:b5, 2015-01-01 00:16:40.440,0.181,0.121,1.03,93.14,66.406,-12.329, , , , , , ,-5.565,-6.839,-102.036
 09:24:12.859,eb:33:2e:f9:57:b5, 2015-01-01 00:16:40.440,0.095,0.211,1.028,79.529,71.96,-9.766, , , , , , ,-5.131,-6.498,-102.123
 09:24:12.859,eb:33:2e:f9:57:b5, 2015-01-01 00:16:40.440,0.11,0.21,1.019,66.406,72.571,-6.287, , , , , , ,-4.763,-6.13,-102.195
 09:24:12.859,eb:33:2e:f9:57:b5, 2015-01-01 00:16:40.440,0.097,0.19,1.023,55.725,72.754,-5.31, , , , , , ,-4.455,-5.773,-102.255
 09:24:12.859,eb:33:2e:f9:57:b5, 2015-01-01 00:16:40.440,0.087,0.149,1.012,46.753,71.35,-4.456, , , , , , ,-4.197,-5.416,-102.305
 09:24:12.859,eb:33:2e:f9:57:b5, 2015-01-01 00:16:40.440,0.078,0.121,1.019,38.33,68.726,-2.808, , , , , , ,-3.988,-5.07,-102.349
 09:24:12.859,eb:33:2e:f9:57:b5, 2015-01-01 00:16:40.440,0.055,0.048,1.025,31.86,65.002,0.061, , , , , , ,-3.807,-4.735,-102.376
 09:24:12.859,eb:33:2e:f9:57:b5, 2015-01-01 00:16:40.440,-0.005,0.008,1.021,27.405,61.279,2.686, , , , , , ,-3.658,-4.422,-102.387
 09:24:12.860,eb:33:2e:f9:57:b5, 2015-01-01 00:16:40.440,-0.031,0.016,0.996,23.01,55.054,4.944, , , , , , ,-3.538,-4.131,-102.387
 09:24:12.860,eb:33:2e:f9:57:b5, 2015-01-01 00:16:40.440,-0.045,0.033,0.973,18.677,47.607,5.493, , , , , , ,-3.433,-3.878,-102.376
 09:24:12.860,eb:33:2e:f9:57:b5, 2015-01-01 00:16:40.440,-0.043,0.036,0.939,14.832,38.269,4.211, , , , , , ,-3.351,-3.664,-102.365
 09:24:12.860,eb:33:2e:f9:57:b5, 2015-01-01 00:16:40.440,-0.013,0.01,0.945,12.39,30.945,2.136, , , , , , ,-3.285,-3.494,-102.36
 09:24:12.860,eb:33:2e:f9:57:b5, 2015-01-01 00:16:40.440,0.034,-0.019,0.966,11.292,26.55,0.671, , , , , , ,-3.224,-3.356,-102.365
 09:24:12.860,eb:33:2e:f9:57:b5, 2015-01-01 00:16:40.440,0.047,-0.031,0.996,10.315,25.208,0.427, , , , , , ,-3.17,-3.23,-102.371
 09:24:12.860,eb:33:2e:f9:57:b5, 2015-01-01 00:16:40.440,0.033,-0.022,1.002,8.789,24.475,1.221, , , , , , ,-3.12,-3.104,-102.371
 09:24:12.860,eb:33:2e:f9:57:b5, 2015-01-01 00:16:40.440,0,-0.007,0.987,6.531,22.583,1.953, , , , , , ,-3.082,-2.983,-102.371
 09:24:12.903,eb:33:2e:f9:57:b5, 2015-01-01 00:16:40.440,-0.006,-0.005,0.974,4.578,19.165,2.014, , , , , , ,-3.054,-2.878,-102.365
 09:24:12.903,eb:33:2e:f9:57:b5, 2015-01-01 00:16:40.440,-0.01,-0.011,0.976,3.235,15.564,1.465, , , , , , ,-3.038,-2.796,-102.365
 09:24:12.903,eb:33:2e:f9:57:b5, 2015-01-01 00:16:40.440,-0.014,-0.025,0.978,2.441,12.329,0.732, , , , , , ,-3.016,-2.725,-102.36
 09:24:12.903,eb:33:2e:f9:57:b5, 2015-01-01 00:16:40.440,0,-0.032,0.978,1.648,9.277,0.488, , , , , , ,-3.005,-2.67,-102.36
 09:24:12.903,eb:33:2e:f9:57:b5, 2015-01-01 00:16:40.440,0.009,-0.032,0.985,0.916,7.385,0.549, , , , , , ,-2.999,-2.631,-102.365
 09:24:12.903,eb:33:2e:f9:57:b5, 2015-01-01 00:16:40.440,0.021,-0.037,0.99,0.427,6.104,0.732, , , , , , ,-2.999,-2.598,-102.36
 09:24:12.904,eb:33:2e:f9:57:b5, 2015-01-01 00:16:40.440,0.019,-0.04,0.996,0.183,5.432,0.61, , , , , , ,-2.994,-2.565,-102.36
 09:24:12.904,eb:33:2e:f9:57:b5, 2015-01-01 00:16:40.440,0.015,-0.041,0.993,0.183,4.456,0.244, , , , , , ,-2.994,-2.543,-102.36
 09:24:12.950,eb:33:2e:f9:57:b5, 2015-01-01 00:16:40.440,0.019,-0.04,0.988,0.122,3.235,-0.122, , , , , , ,-2.988,-2.527,-102.36
 09:24:12.950,eb:33:2e:f9:57:b5, 2015-01-01 00:16:40.440,0.025,-0.034,0.986,0,1.953,-0.549, , , , , , ,-2.988,-2.51,-102.365
 09:24:12.950,eb:33:2e:f9:57:b5, 2015-01-01 00:16:40.440,0.025,-0.033,0.986,-0.122,1.038,-1.038, , , , , , ,-2.983,-2.505,-102.371
 09:24:12.950,eb:33:2e:f9:57:b5, 2015-01-01 00:16:40.440,0.038,-0.038,0.984,-0.244,0.305,-1.526, , , , , , ,-2.988,-2.499,-102.376
 09:24:12.950,eb:33:2e:f9:57:b5, 2015-01-01 00:16:40.440,0.053,-0.039,0.992,-0.183,0.061,-1.953, , , , , , ,-2.988,-2.499,-102.387
 09:24:12.950,eb:33:2e:f9:57:b5, 2015-01-01 00:16:40.440,0.062,-0.042,1.001,0,0.671,-2.319, , , , , , ,-2.988,-2.499,-102.398
 09:24:12.950,eb:33:2e:f9:57:b5, 2015-01-01 00:16:40.440,0.069,-0.045,1.007,0.427,1.77,-2.563, , , , , , ,-2.983,-2.494,-102.409
 09:24:12.950,eb:33:2e:f9:57:b5, 2015-01-01 00:16:40.440,0.065,-0.046,1.009,0.854,3.357,-2.686, , , , , , ,-2.977,-2.477,-102.426
 09:24:13.014,eb:33:2e:f9:57:b5, 2015-01-01 00:16:40.440,0.062,-0.047,1.008,1.221,4.883,-2.441, , , , , , ,-2.972,-2.461,-102.442
 09:24:13.014,eb:33:2e:f9:57:b5, 2015-01-01 00:16:40.440,0.063,-0.049,1.008,1.526,6.226,-2.075, , , , , , ,-2.961,-2.433,-102.453
 09:24:13.014,eb:33:2e:f9:57:b5, 2015-01-01 00:16:40.440,0.061,-0.058,1.014,2.258,8.24,-1.526, , , , , , ,-2.95,-2.39,-102.464
 09:24:13.014,eb:33:2e:f9:57:b5, 2015-01-01 00:16:40.440,0.057,-0.074,1.022,3.662,9.827,-0.977, , , , , , ,-2.933,-2.346,-102.475
 09:24:13.014,eb:33:2e:f9:57:b5, 2015-01-01 00:16:40.440,0.058,-0.099,1.033,6.104,11.841,-0.305, , , , , , ,-2.906,-2.291,-102.48
 09:24:13.014,eb:33:2e:f9:57:b5, 2015-01-01 00:16:40.440,0.054,-0.114,1.039,9.094,14.343,0.366, , , , , , ,-2.867,-2.225,-102.486
 09:24:13.014,eb:33:2e:f9:57:b5, 2015-01-01 00:16:40.440,0.043,-0.106,1.036,11.597,16.846,0.916, , , , , , ,-2.807,-2.142,-102.486
 09:24:13.014,eb:33:2e:f9:57:b5, 2015-01-01 00:16:40.440,0.009,-0.082,1.023,13.367,18.494,0.916, , , , , , ,-2.747,-2.054,-102.486
 09:24:13.037,eb:33:2e:f9:57:b5, 2015-01-01 00:16:40.440,-0.01,-0.069,0.999,14.343,18.372,1.221, , , , , , ,-2.675,-1.961,-102.486
 09:24:13.037,eb:33:2e:f9:57:b5, 2015-01-01 00:16:40.440,-0.005,-0.056,0.983,15.137,16.663,1.343, , , , , , ,-2.598,-1.873,-102.48
 09:24:13.037,eb:33:2e:f9:57:b5, 2015-01-01 00:16:40.440,0,-0.044,0.979,15.625,14.771,1.16, , , , , , ,-2.521,-1.791,-102.48
 09:24:13.037,eb:33:2e:f9:57:b5, 2015-01-01 00:16:40.440,0.006,-0.022,0.969,15.32,12.085,0.732, , , , , , ,-2.439,-1.725,-102.48
 09:24:13.038,eb:33:2e:f9:57:b5, 2015-01-01 00:16:40.440,0.01,-0.014,0.969,14.709,10.376,0.244, , , , , , ,-2.368,-1.67,-102.48
 09:24:13.038,eb:33:2e:f9:57:b5, 2015-01-01 00:16:40.440,0.013,-0.015,0.969,14.221,8.85,0, , , , , , ,-2.291,-1.626,-102.48
 09:24:13.038,eb:33:2e:f9:57:b5, 2015-01-01 00:16:40.440,0.029,-0.024,0.974,14.16,7.874,-0.244, , , , , , ,-2.219,-1.582,-102.486
 09:24:13.038,eb:33:2e:f9:57:b5, 2015-01-01 00:16:40.440,0.026,-0.03,0.984,14.465,7.874,-0.732, , , , , , ,-2.148,-1.544,-102.486
 09:24:13.062,eb:33:2e:f9:57:b5, 2015-01-01 00:16:40.440,0.016,-0.033,0.992,14.954,7.996,-1.282, , , , , , ,-2.071,-1.505,-102.497
 09:24:13.062,eb:33:2e:f9:57:b5, 2015-01-01 00:16:40.440,0.012,-0.021,0.989,14.954,7.507,-1.587, , , , , , ,-1.994,-1.467,-102.508
 09:24:13.062,eb:33:2e:f9:57:b5, 2015-01-01 00:16:40.440,0.011,-0.015,0.991,14.709,7.08,-2.014, , , , , , ,-1.917,-1.428,-102.519
 09:24:13.062,eb:33:2e:f9:57:b5, 2015-01-01 00:16:40.440,0.006,-0.022,0.997,15.015,6.897,-2.319, , , , , , ,-1.84,-1.39,-102.53
 09:24:13.062,eb:33:2e:f9:57:b5, 2015-01-01 00:16:40.440,0.011,-0.029,1.002,15.625,6.653,-2.625, , , , , , ,-1.763,-1.357,-102.546
 09:24:13.062,eb:33:2e:f9:57:b5, 2015-01-01 00:16:40.440,0.024,-0.027,1.005,16.113,6.653,-2.625, , , , , , ,-1.686,-1.324,-102.557
 09:24:13.062,eb:33:2e:f9:57:b5, 2015-01-01 00:16:40.440,0.025,-0.03,1.018,17.029,7.69,-2.808, , , , , , ,-1.599,-1.285,-102.574
 09:24:13.062,eb:33:2e:f9:57:b5, 2015-01-01 00:16:40.440,0.032,-0.026,1.02,17.822,8.606,-3.052, , , , , , ,-1.511,-1.247,-102.59
 09:24:13.195,eb:33:2e:f9:57:b5, 2015-01-01 00:16:40.440,0.024,-0.02,1.019,18.494,9.521,-3.723, , , , , , ,-1.417,-1.203,-102.607
 09:24:13.195,eb:33:2e:f9:57:b5, 2015-01-01 00:16:40.440,0.044,-0.02,1.01,19.043,10.498,-4.15, , , , , , ,-1.324,-1.154,-102.629
 09:24:13.195,eb:33:2e:f9:57:b5, 2015-01-01 00:16:40.440,0.057,-0.019,1.023,19.836,12.146,-4.822, , , , , , ,-1.219,-1.093,-102.656
 09:24:13.195,eb:33:2e:f9:57:b5, 2015-01-01 00:16:40.440,0.088,-0.023,1.042,20.996,14.648,-5.31, , , , , , ,-1.115,-1.027,-102.684
 09:24:13.195,eb:33:2e:f9:57:b5, 2015-01-01 00:16:40.440,0.104,-0.039,1.086,23.132,17.883,-6.287, , , , , , ,-1.005,-0.945,-102.717
 09:24:13.195,eb:33:2e:f9:57:b5, 2015-01-01 00:16:40.440,0.105,-0.041,1.106,25.696,21.973,-7.141, , , , , , ,-0.879,-0.84,-102.75
 09:24:13.195,eb:33:2e:f9:57:b5, 2015-01-01 00:16:40.440,0.088,-0.031,1.126,28.076,25.024,-7.935, , , , , , ,-0.742,-0.72,-102.794
 09:24:13.195,eb:33:2e:f9:57:b5, 2015-01-01 00:16:40.440,0.078,-0.031,1.132,30.273,27.588,-8.24, , , , , , ,-0.593,-0.588,-102.832
 09:24:13.197,eb:33:2e:f9:57:b5, 2015-01-01 00:16:40.755,0.083,-0.044,1.125,33.386,31.006,-8.301, , , , , , ,-0.434,-0.445,-102.876
 09:24:13.197,eb:33:2e:f9:57:b5, 2015-01-01 00:16:40.755,0.061,-0.032,1.108,36.011,34.424,-9.277, , , , , , ,-0.253,-0.275,-102.925
 09:24:13.197,eb:33:2e:f9:57:b5, 2015-01-01 00:16:40.755,0.06,-0.011,1.073,37.72,38.025,-10.071, , , , , , ,-0.066,-0.093,-102.975
 09:24:13.197,eb:33:2e:f9:57:b5, 2015-01-01 00:16:40.755,0.069,0.002,1.056,38.269,41.077,-10.132, , , , , , ,0.121,0.104,-103.024
 09:24:13.197,eb:33:2e:f9:57:b5, 2015-01-01 00:16:40.755,0.065,0.021,1.049,40.344,41.443,-10.071, , , , , , ,0.319,0.313,-103.079
 09:24:13.197,eb:33:2e:f9:57:b5, 2015-01-01 00:16:40.755,0.054,0.044,1.028,41.87,43.457,-11.597, , , , , , ,0.522,0.527,-103.129
 09:24:13.197,eb:33:2e:f9:57:b5, 2015-01-01 00:16:40.755,0.124,0.054,1.007,42.786,44.006,-13.123, , , , , , ,0.736,0.753,-103.195
 09:24:13.197,eb:33:2e:f9:57:b5, 2015-01-01 00:16:40.755,0.175,0.099,1.065,42.908,44.189,-17.395, , , , , , ,0.95,0.972,-103.266
 09:24:13.197,eb:33:2e:f9:57:b5, 2015-01-01 00:16:40.755,0.091,0,1.351,43.64,51.453,-20.386, , , , , , ,1.165,1.214,-103.359
 09:24:13.199,eb:33:2e:f9:57:b5, 2015-01-01 00:16:40.755,0.015,-0.064,1.334,49.072,54.504,-18.494, , , , , , ,1.395,1.483,-103.453
 09:24:13.199,eb:33:2e:f9:57:b5, 2015-01-01 00:16:40.755,0.028,-0.12,1.391,56.152,56.763,-14.709, , , , , , ,1.664,1.769,-103.53
 09:24:13.199,eb:33:2e:f9:57:b5, 2015-01-01 00:16:40.755,0.025,-0.054,1.296,62.439,56.824,-12.878, , , , , , ,1.967,2.054,-103.585
 09:24:13.199,eb:33:2e:f9:57:b5, 2015-01-01 00:16:40.755,-0.015,0.012,1.24,67.444,53.711,-13.367, , , , , , ,2.291,2.329,-103.64
 09:24:13.199,eb:33:2e:f9:57:b5, 2015-01-01 00:16:40.755,-0.135,0.009,1.287,75.989,47.363,-12.207, , , , , , ,2.648,2.582,-103.694
 09:24:13.199,eb:33:2e:f9:57:b5, 2015-01-01 00:16:40.755,-0.052,-0.11,1.521,86.731,41.565,-9.155, , , , , , ,3.065,2.802,-103.733
 09:24:13.199,eb:33:2e:f9:57:b5, 2015-01-01 00:16:40.755,-0.142,-0.138,1.519,95.337,43.03,-8.789, , , , , , ,3.521,3.016,-103.771
 09:24:13.241,eb:33:2e:f9:57:b5, 2015-01-01 00:16:40.755,-0.112,-0.092,1.364,101.624,39.917,-7.446, , , , , , ,4.016,3.224,-103.793
 09:24:13.241,eb:33:2e:f9:57:b5, 2015-01-01 00:16:40.755,-0.112,-0.09,1.403,109.863,35.828,-6.775, , , , , , ,4.548,3.417,-103.815
 09:24:13.241,eb:33:2e:f9:57:b5, 2015-01-01 00:16:40.755,-0.135,-0.086,1.368,117.981,31.86,-6.653, , , , , , ,5.125,3.587,-103.837
 09:24:13.241,eb:33:2e:f9:57:b5, 2015-01-01 00:16:40.755,-0.172,-0.082,1.301,126.343,26.245,-6.409, , , , , , ,5.74,3.735,-103.854
 09:24:13.241,eb:33:2e:f9:57:b5, 2015-01-01 00:16:40.755,-0.216,-0.082,1.32,134.155,20.752,-6.531, , , , , , ,6.394,3.851,-103.876
 09:24:13.241,eb:33:2e:f9:57:b5, 2015-01-01 00:16:40.755,-0.224,-0.123,1.36,142.7,16.663,-5.798, , , , , , ,7.086,3.944,-103.898
 09:24:13.241,eb:33:2e:f9:57:b5, 2015-01-01 00:16:40.755,-0.17,-0.106,1.375,150.879,12.512,-5.066, , , , , , ,7.828,4.021,-103.914
 09:24:13.241,eb:33:2e:f9:57:b5, 2015-01-01 00:16:40.755,-0.183,-0.094,1.323,160.278,7.324,-6.897, , , , , , ,8.608,4.07,-103.936
 09:24:13.307,eb:33:2e:f9:57:b5, 2015-01-01 00:16:40.755,-0.153,-0.085,1.301,169.922,0.244,-9.583, , , , , , ,9.432,4.092,-103.98
 09:24:13.307,eb:33:2e:f9:57:b5, 2015-01-01 00:16:40.755,-0.048,-0.079,1.439,179.871,-3.723,-11.597, , , , , , ,10.311,4.087,-104.035
 09:24:13.307,eb:33:2e:f9:57:b5, 2015-01-01 00:16:40.755,0.06,-0.076,1.637,190.186,-3.479,-11.841, , , , , , ,11.239,4.081,-104.095
 09:24:13.307,eb:33:2e:f9:57:b5, 2015-01-01 00:16:40.755,0.153,-0.034,1.744,200.806,1.526,-12.329, , , , , , ,12.217,4.092,-104.156
 09:24:13.307,eb:33:2e:f9:57:b5, 2015-01-01 00:16:40.755,0.211,-0.022,1.84,211.243,7.507,-13.55, , , , , , ,13.25,4.131,-104.216
 09:24:13.307,eb:33:2e:f9:57:b5, 2015-01-01 00:16:40.755,0.2,-0.06,1.855,224.182,13.855,-15.93, , , , , , ,14.337,4.202,-104.277
 09:24:13.307,eb:33:2e:f9:57:b5, 2015-01-01 00:16:40.755,0.275,-0.058,1.941,236.145,19.104,-17.273, , , , , , ,15.491,4.307,-104.332
 09:24:13.307,eb:33:2e:f9:57:b5, 2015-01-01 00:16:40.755,0.325,-0.11,2.195,248.413,31.25,-17.151, , , , , , ,16.705,4.455,-104.381
 09:24:13.307,eb:33:2e:f9:57:b5, 2015-01-01 00:16:40.755,0.4,-0.166,2.341,264.038,47.058,-16.968, , , , , , ,17.996,4.675,-104.403
 09:24:13.307,eb:33:2e:f9:57:b5, 2015-01-01 00:16:40.755,0.447,-0.144,2.43,278.687,61.768,-18.494, , , , , , ,19.358,4.966,-104.398
 09:24:13.307,eb:33:2e:f9:57:b5, 2015-01-01 00:16:40.755,0.488,-0.086,2.474,293.335,69.031,-22.583, , , , , , ,20.797,5.312,-104.381
 09:24:13.309,eb:33:2e:f9:57:b5, 2015-01-01 00:16:40.755,0.583,-0.082,2.474,311.157,74.28,-28.87, , , , , , ,22.319,5.696,-104.37
 09:24:13.309,eb:33:2e:f9:57:b5, 2015-01-01 00:16:40.755,0.755,-0.003,2.544,327.148,76.233,-37.109, , , , , , ,23.923,6.114,-104.376
 09:24:13.309,eb:33:2e:f9:57:b5, 2015-01-01 00:16:40.755,0.799,-0.038,2.567,347.229,77.759,-48.462, , , , , , ,25.609,6.559,-104.409
 09:24:13.309,eb:33:2e:f9:57:b5, 2015-01-01 00:16:40.755,0.789,-0.068,2.642,370.605,82.947,-61.89, , , , , , ,27.405,7.048,-104.485
 09:24:13.309,eb:33:2e:f9:57:b5, 2015-01-01 00:16:40.755,0.684,-0.202,2.816,388.489,89.417,-69.336, , , , , , ,29.301,7.581,-104.573
 09:24:13.352,eb:33:2e:f9:57:b5, 2015-01-01 00:16:40.755,0.8,-0.121,2.984,400.696,94.421,-79.59, , , , , , ,31.273,8.179,-104.661
 09:24:13.352,eb:33:2e:f9:57:b5, 2015-01-01 00:16:40.755,0.805,-0.43,3.167,415.405,106.506,-88.379, , , , , , ,33.3,8.828,-104.755
 09:24:13.352,eb:33:2e:f9:57:b5, 2015-01-01 00:16:40.755,0.779,-0.582,3.157,429.993,122.131,-94.177, , , , , , ,35.414,9.564,-104.81
 09:24:13.352,eb:33:2e:f9:57:b5, 2015-01-01 00:16:40.755,0.785,-0.551,3.225,440.796,136.292,-103.882, , , , , , ,37.595,10.388,-104.826
 09:24:13.352,eb:33:2e:f9:57:b5, 2015-01-01 00:16:40.755,0.606,-0.716,3.443,456.177,163.879,-110.352, , , , , , ,39.853,11.316,-104.771
 09:24:13.352,eb:33:2e:f9:57:b5, 2015-01-01 00:16:40.755,0.616,-0.776,3.499,467.163,183.533,-114.746, , , , , , ,42.198,12.354,-104.612
 09:24:13.353,eb:33:2e:f9:57:b5, 2015-01-01 00:16:40.755,0.497,-0.851,3.378,477.234,208.618,-115.417, , , , , , ,44.615,13.469,-104.348
 09:24:13.353,eb:33:2e:f9:57:b5, 2015-01-01 00:16:40.755,0.527,-0.808,3.205,489.807,225.769,-119.019, , , , , , ,47.137,14.656,-103.953
 09:24:13.399,eb:33:2e:f9:57:b5, 2015-01-01 00:16:40.755,0.558,-0.93,3.021,491.15,237.976,-120.789, , , , , , ,49.724,15.881,-103.464
 09:24:13.399,eb:33:2e:f9:57:b5, 2015-01-01 00:16:40.755,0.679,-0.886,3.159,484.985,259.521,-111.938, , , , , , ,52.344,17.128,-102.827
 09:24:13.401,eb:33:2e:f9:57:b5, 2015-01-01 00:16:40.755,0.683,-0.849,2.569,469.849,273.682,-106.262, , , , , , ,54.959,18.347,-102.03
 09:24:13.401,eb:33:2e:f9:57:b5, 2015-01-01 00:16:40.755,0.388,-0.552,1.625,432.19,270.996,-103.088, , , , , , ,57.502,19.55,-101.135
 09:24:13.401,eb:33:2e:f9:57:b5, 2015-01-01 00:16:40.755,0.263,-1.049,0.143,362.061,254.333,-84.106, , , , , , ,59.782,20.632,-100.195
 09:24:13.401,eb:33:2e:f9:57:b5, 2015-01-01 00:16:40.755,0.666,-1.345,-0.88,288.33,221.13,-58.838, , , , , , ,61.694,21.506,-99.272
 09:24:13.401,eb:33:2e:f9:57:b5, 2015-01-01 00:16:40.755,0.411,-1.82,-0.667,231.445,173.218,-43.152, , , , , , ,63.243,22.181,-98.481
 09:24:13.401,eb:33:2e:f9:57:b5, 2015-01-01 00:16:40.755,0.045,-2.136,-1.59,126.282,113.831,-33.447, , , , , , ,64.336,22.659,-97.883
 09:24:13.422,eb:33:2e:f9:57:b5, 2015-01-01 00:16:40.755,0.527,-0.27,-1.864,10.132,11.047,-20.142, , , , , , ,64.698,22.89,-97.685
 09:24:13.422,eb:33:2e:f9:57:b5, 2015-01-01 00:16:40.755,0.524,-0.025,0.065,-88.318,-28.809,-5.371, , , , , , ,64.391,22.901,-97.795
 09:24:13.422,eb:33:2e:f9:57:b5, 2015-01-01 00:16:40.755,0.458,-1.446,1.435,-118.53,-30.212,24.292, , , , , , ,63.765,22.769,-97.949
 09:24:13.422,eb:33:2e:f9:57:b5, 2015-01-01 00:16:40.755,0.332,-2.186,1.582,-127.197,11.414,43.457, , , , , , ,63.166,22.604,-97.872
 09:24:13.423,eb:33:2e:f9:57:b5, 2015-01-01 00:16:40.755,0.625,-2.053,0.915,-126.526,14.404,59.509, , , , , , ,62.606,22.396,-97.674
 09:24:13.423,eb:33:2e:f9:57:b5, 2015-01-01 00:16:40.755,0.561,-1.662,0.922,-121.277,25.391,67.932, , , , , , ,62.089,22.154,-97.41
 09:24:13.423,eb:33:2e:f9:57:b5, 2015-01-01 00:16:40.755,0.481,-1.359,0.883,-111.572,30.457,74.585, , , , , , ,61.611,21.907,-97.097
 09:24:13.423,eb:33:2e:f9:57:b5, 2015-01-01 00:16:40.755,0.489,-1.194,0.645,-99.365,21.912,79.59, , , , , , ,61.21,21.627,-96.768
 09:24:13.488,eb:33:2e:f9:57:b5, 2015-01-01 00:16:40.755,0.523,-1.089,0.262,-89.233,2.441,81.299, , , , , , ,60.842,21.297,-96.504
 09:24:13.488,eb:33:2e:f9:57:b5, 2015-01-01 00:16:40.755,0.523,-1.026,0.003,-86.975,-19.775,80.139, , , , , , ,60.463,20.918,-96.345
 09:24:13.488,eb:33:2e:f9:57:b5, 2015-01-01 00:16:40.755,0.495,-0.992,-0.029,-91.614,-38.757,77.82, , , , , , ,60.018,20.495,-96.29
 09:24:13.488,eb:33:2e:f9:57:b5, 2015-01-01 00:16:40.755,0.456,-0.945,0.052,-100.281,-53.528,75.378, , , , , , ,59.529,20.045,-96.306
 09:24:13.488,eb:33:2e:f9:57:b5, 2015-01-01 00:16:40.755,0.407,-0.898,0.138,-112.732,-63.11,73.12, , , , , , ,58.969,19.578,-96.378
 09:24:13.488,eb:33:2e:f9:57:b5, 2015-01-01 00:16:40.755,0.365,-0.871,0.2,-129.456,-67.261,71.594, , , , , , ,58.321,19.094,-96.476
 09:24:13.488,eb:33:2e:f9:57:b5, 2015-01-01 00:16:40.755,0.339,-0.847,0.243,-150.33,-67.383,70.496, , , , , , ,57.557,18.611,-96.586
 09:24:13.488,eb:33:2e:f9:57:b5, 2015-01-01 00:16:40.755,0.319,-0.81,0.271,-174.683,-65.308,69.702, , , , , , ,56.706,18.138,-96.685
 09:24:13.510,eb:33:2e:f9:57:b5, 2015-01-01 00:16:40.755,0.31,-0.757,0.28,-206.116,-63.416,68.481, , , , , , ,55.717,17.677,-96.757
 09:24:13.510,eb:33:2e:f9:57:b5, 2015-01-01 00:16:40.755,0.309,-0.722,0.28,-231.689,-64.697,66.833, , , , , , ,54.586,17.216,-96.828
 09:24:13.510,eb:33:2e:f9:57:b5, 2015-01-01 00:16:40.755,0.309,-0.694,0.288,-255.066,-69.153,64.941, , , , , , ,53.311,16.749,-96.921
 09:24:13.510,eb:33:2e:f9:57:b5, 2015-01-01 00:16:40.755,0.312,-0.671,0.333,-275.391,-75.623,62.744, , , , , , ,51.943,16.271,-97.02
 09:24:13.510,eb:33:2e:f9:57:b5, 2015-01-01 00:16:40.755,0.313,-0.65,0.41,-292.358,-82.947,60.547, , , , , , ,50.482,15.782,-97.141
 09:24:13.510,eb:33:2e:f9:57:b5, 2015-01-01 00:16:40.755,0.308,-0.626,0.489,-306.274,-89.966,58.777, , , , , , ,48.939,15.276,-97.289
 09:24:13.510,eb:33:2e:f9:57:b5, 2015-01-01 00:16:40.755,0.3,-0.607,0.576,-317.749,-95.581,57.983, , , , , , ,47.307,14.744,-97.46
 09:24:13.511,eb:33:2e:f9:57:b5, 2015-01-01 00:16:40.755,0.299,-0.585,0.665,-327.515,-99.67,57.8, , , , , , ,45.648,14.194,-97.619
 09:24:13.554,eb:33:2e:f9:57:b5, 2015-01-01 00:16:40.755,0.302,-0.557,0.754,-336.426,-101.501,58.167, , , , , , ,43.945,13.629,-97.773
 09:24:13.554,eb:33:2e:f9:57:b5, 2015-01-01 00:16:40.755,0.304,-0.518,0.84,-344.482,-101.501,58.96, , , , , , ,42.209,13.057,-97.91
 09:24:13.554,eb:33:2e:f9:57:b5, 2015-01-01 00:16:40.755,0.306,-0.466,0.907,-351.807,-100.891,59.57, , , , , , ,40.413,12.48,-98.031
 09:24:13.554,eb:33:2e:f9:57:b5, 2015-01-01 00:16:40.755,0.322,-0.404,0.956,-358.337,-101.257,59.692, , , , , , ,38.617,11.898,-98.124
 09:24:13.554,eb:33:2e:f9:57:b5, 2015-01-01 00:16:40.755,0.35,-0.341,1.009,-363.586,-102.661,59.082, , , , , , ,36.793,11.316,-98.201
 09:24:13.554,eb:33:2e:f9:57:b5, 2015-01-01 00:16:40.755,0.383,-0.284,1.075,-366.821,-104.919,57.556, , , , , , ,34.948,10.723,-98.273
 09:24:13.554,eb:33:2e:f9:57:b5, 2015-01-01 00:16:40.755,0.414,-0.229,1.15,-367.676,-108.154,54.81, , , , , , ,33.074,10.118,-98.35
 09:24:13.554,eb:33:2e:f9:57:b5, 2015-01-01 00:16:40.755,0.444,-0.166,1.215,-366.272,-112.366,50.598, , , , , , ,31.229,9.509,-98.421
 09:24:13.600,eb:33:2e:f9:57:b5, 2015-01-01 00:16:41.180,0.472,-0.095,1.266,-363.525,-117.737,44.8, , , , , , ,29.388,8.888,-98.509
 09:24:13.600,eb:33:2e:f9:57:b5, 2015-01-01 00:16:41.180,0.489,-0.023,1.309,-360.291,-123.962,37.598, , , , , , ,27.565,8.262,-98.624
 09:24:13.600,eb:33:2e:f9:57:b5, 2015-01-01 00:16:41.180,0.476,0.046,1.348,-357.239,-130.676,29.48, , , , , , ,25.73,7.608,-98.773
 09:24:13.600,eb:33:2e:f9:57:b5, 2015-01-01 00:16:41.180,0.46,0.096,1.387,-355.042,-137.512,21.24, , , , , , ,23.928,6.943,-98.943
 09:24:13.600,eb:33:2e:f9:57:b5, 2015-01-01 00:16:41.180,0.442,0.113,1.467,-353.76,-141.968,13.672, , , , , , ,22.132,6.262,-99.146
 09:24:13.600,eb:33:2e:f9:57:b5, 2015-01-01 00:16:41.180,0.41,0.104,1.576,-353.271,-142.883,7.324, , , , , , ,20.341,5.581,-99.36
 09:24:13.600,eb:33:2e:f9:57:b5, 2015-01-01 00:16:41.180,0.375,0.078,1.687,-353.027,-140.503,2.686, , , , , , ,18.534,4.894,-99.58
 09:24:13.600,eb:33:2e:f9:57:b5, 2015-01-01 00:16:41.180,0.352,0.043,1.784,-352.539,-135.925,-0.366, , , , , , ,16.754,4.235,-99.789
 09:24:13.624,eb:33:2e:f9:57:b5, 2015-01-01 00:16:41.180,0.339,0.02,1.856,-351.196,-131.104,-2.075, , , , , , ,14.98,3.598,-99.976
 09:24:13.624,eb:33:2e:f9:57:b5, 2015-01-01 00:16:41.180,0.326,0.011,1.896,-348.511,-127.808,-3.174, , , , , , ,13.222,2.977,-100.146
 09:24:13.624,eb:33:2e:f9:57:b5, 2015-01-01 00:16:41.180,0.313,0.015,1.907,-343.933,-128.418,-4.028, , , , , , ,11.459,2.346,-100.305
 09:24:13.624,eb:33:2e:f9:57:b5, 2015-01-01 00:16:41.180,0.307,0.026,1.901,-337.219,-133.423,-4.822, , , , , , ,9.756,1.708,-100.448
 09:24:13.624,eb:33:2e:f9:57:b5, 2015-01-01 00:16:41.180,0.306,0.045,1.908,-328.674,-141.907,-5.859, , , , , , ,8.091,1.027,-100.585
 09:24:13.624,eb:33:2e:f9:57:b5, 2015-01-01 00:16:41.180,0.302,0.064,1.952,-318.848,-151.855,-7.08, , , , , , ,6.476,0.297,-100.712
 09:24:13.624,eb:33:2e:f9:57:b5, 2015-01-01 00:16:41.180,0.299,0.089,2.031,-308.96,-161.377,-8.118, , , , , , ,4.883,-0.489,-100.833
 09:24:13.624,eb:33:2e:f9:57:b5, 2015-01-01 00:16:41.180,0.29,0.117,2.142,-300.354,-168.335,-8.545, , , , , , ,3.367,-1.313,-100.931
 09:24:13.667,eb:33:2e:f9:57:b5, 2015-01-01 00:16:41.180,0.274,0.137,2.263,-293.762,-172.18,-8.362, , , , , , ,1.89,-2.164,-101.019
 09:24:13.667,eb:33:2e:f9:57:b5, 2015-01-01 00:16:41.180,0.249,0.154,2.373,-289.185,-173.401,-7.629, , , , , , ,0.439,-3.027,-101.074
 09:24:13.667,eb:33:2e:f9:57:b5, 2015-01-01 00:16:41.180,0.218,0.188,2.459,-286.56,-174.133,-6.531, , , , , , ,-1.016,-3.911,-101.107
 09:24:13.667,eb:33:2e:f9:57:b5, 2015-01-01 00:16:41.180,0.147,0.238,2.489,-286.438,-176.453,-5.554, , , , , , ,-2.45,-4.785,-101.113
 09:24:13.667,eb:33:2e:f9:57:b5, 2015-01-01 00:16:41.180,0.077,0.299,2.476,-287.659,-182.068,-4.639, , , , , , ,-3.889,-5.685,-101.085
 09:24:13.668,eb:33:2e:f9:57:b5, 2015-01-01 00:16:41.180,-0.013,0.367,2.489,-290.222,-189.575,-3.296, , , , , , ,-5.339,-6.614,-101.03
 09:24:13.669,eb:33:2e:f9:57:b5, 2015-01-01 00:16:41.180,-0.089,0.483,2.5,-294.617,-199.219,-1.648, , , , , , ,-6.839,-7.597,-100.937
 09:24:13.669,eb:33:2e:f9:57:b5, 2015-01-01 00:16:41.180,-0.175,0.654,2.518,-302.49,-208.679,1.526, , , , , , ,-8.355,-8.613,-100.8
 09:24:13.712,eb:33:2e:f9:57:b5, 2015-01-01 00:16:41.180,-0.254,0.814,2.567,-313.232,-214.844,6.042, , , , , , ,-9.926,-9.662,-100.613
 09:24:13.712,eb:33:2e:f9:57:b5, 2015-01-01 00:16:41.180,-0.33,0.934,2.658,-325.073,-215.515,12.024, , , , , , ,-11.574,-10.712,-100.36
 09:24:13.712,eb:33:2e:f9:57:b5, 2015-01-01 00:16:41.180,-0.419,1.041,2.751,-337.585,-210.449,19.714, , , , , , ,-13.321,-11.744,-100.042
 09:24:13.712,eb:33:2e:f9:57:b5, 2015-01-01 00:16:41.180,-0.534,1.138,2.83,-349.426,-200.562,28.748, , , , , , ,-15.128,-12.706,-99.662
 09:24:13.712,eb:33:2e:f9:57:b5, 2015-01-01 00:16:41.180,-0.618,1.231,2.876,-357.605,-188.171,38.94, , , , , , ,-17.001,-13.59,-99.218
 09:24:13.712,eb:33:2e:f9:57:b5, 2015-01-01 00:16:41.180,-0.653,1.372,2.92,-359.619,-173.34,49.316, , , , , , ,-18.918,-14.37,-98.712
 09:24:13.712,eb:33:2e:f9:57:b5, 2015-01-01 00:16:41.180,-0.657,1.594,2.986,-352.722,-155.518,58.472, , , , , , ,-20.863,-15.051,-98.152
 09:24:13.712,eb:33:2e:f9:57:b5, 2015-01-01 00:16:41.180,-0.662,1.928,3.023,-335.205,-136.475,64.575, , , , , , ,-22.731,-15.606,-97.575
 09:24:13.757,eb:33:2e:f9:57:b5, 2015-01-01 00:16:41.180,-0.663,2.361,2.968,-306.03,-118.286,66.04, , , , , , ,-24.483,-16.051,-97.004
 09:24:13.757,eb:33:2e:f9:57:b5, 2015-01-01 00:16:41.180,-0.733,2.86,2.786,-266.663,-103.882,61.096, , , , , , ,-26.049,-16.408,-96.46
 09:24:13.757,eb:33:2e:f9:57:b5, 2015-01-01 00:16:41.180,-0.935,3.421,2.384,-220.581,-100.342,49.927, , , , , , ,-27.4,-16.738,-95.966
 09:24:13.757,eb:33:2e:f9:57:b5, 2015-01-01 00:16:41.180,-1.24,4.014,1.828,-172.485,-114.38,33.691, , , , , , ,-28.488,-17.117,-95.521
 09:24:13.757,eb:33:2e:f9:57:b5, 2015-01-01 00:16:41.180,-1.586,4.556,1.34,-126.587,-144.104,14.709, , , , , , ,-29.339,-17.639,-95.087
 09:24:13.757,eb:33:2e:f9:57:b5, 2015-01-01 00:16:41.180,-1.812,4.872,1.202,-83.252,-177.979,-2.869, , , , , , ,-29.982,-18.347,-94.642
 09:24:13.757,eb:33:2e:f9:57:b5, 2015-01-01 00:16:41.180,-1.873,4.81,1.601,-39.368,-193.481,-14.648, , , , , , ,-30.421,-19.193,-94.18
 09:24:13.757,eb:33:2e:f9:57:b5, 2015-01-01 00:16:41.180,-1.807,4.402,2.344,5.737,-172.974,-17.883, , , , , , ,-30.624,-20.034,-93.763
 09:24:13.803,eb:33:2e:f9:57:b5, 2015-01-01 00:16:41.180,-1.611,3.794,3.035,49.438,-113.892,-13.489, , , , , , ,-30.569,-20.676,-93.461
 09:24:13.803,eb:33:2e:f9:57:b5, 2015-01-01 00:16:41.180,-1.32,3.165,3.346,86.853,-29.541,-4.028, , , , , , ,-30.251,-20.973,-93.323
 09:24:13.803,eb:33:2e:f9:57:b5, 2015-01-01 00:16:41.180,-1.004,2.663,3.151,114.075,53.955,7.263, , , , , , ,-29.713,-20.874,-93.367
 09:24:13.803,eb:33:2e:f9:57:b5, 2015-01-01 00:16:41.180,-0.71,2.339,2.631,130.31,114.746,16.541, , , , , , ,-29.026,-20.435,-93.549
 09:24:13.803,eb:33:2e:f9:57:b5, 2015-01-01 00:16:41.180,-0.278,2.131,2.001,136.719,143.25,21.301, , , , , , ,-28.262,-19.797,-93.807
 09:24:13.803,eb:33:2e:f9:57:b5, 2015-01-01 00:16:41.180,3.792,1.831,1.656,182.373,47.424,-13.55, , , , , , ,-27.438,-19.259,-94.043
 09:24:13.803,eb:33:2e:f9:57:b5, 2015-01-01 00:16:41.180,0.092,-0.017,7.403,251.526,207.153,-46.509, , , , , , ,-26.087,-18.765,-94.603
 09:24:13.803,eb:33:2e:f9:57:b5, 2015-01-01 00:16:41.180,1.956,-1.179,0.185,263.855,77.515,-96.741, , , , , , ,-24.582,-18.281,-95.268
 09:24:13.825,eb:33:2e:f9:57:b5, 2015-01-01 00:16:41.180,1.255,-0.771,1.12,254.883,86.548,-114.014, , , , , , ,-23.06,-18.138,-95.977
 09:24:13.825,eb:33:2e:f9:57:b5, 2015-01-01 00:16:41.180,1.104,-0.568,1.155,241.089,135.62,-122.009, , , , , , ,-21.588,-17.836,-96.779
 09:24:13.825,eb:33:2e:f9:57:b5, 2015-01-01 00:16:41.180,0.003,-1.383,1.635,266.846,194.702,-110.229, , , , , , ,-20.039,-17.227,-97.679
 09:24:13.825,eb:33:2e:f9:57:b5, 2015-01-01 00:16:41.180,-0.541,-1.771,1.828,320.923,223.328,-65.796, , , , , , ,-18.325,-16.364,-98.481
 09:24:13.825,eb:33:2e:f9:57:b5, 2015-01-01 00:16:41.180,-0.935,-0.846,1.191,354.492,218.079,-38.33, , , , , , ,-16.447,-15.381,-99.064
 09:24:13.825,eb:33:2e:f9:57:b5, 2015-01-01 00:16:41.180,-0.842,-0.125,1.003,350.83,192.383,-29.48, , , , , , ,-14.557,-14.436,-99.514
 09:24:13.825,eb:33:2e:f9:57:b5, 2015-01-01 00:16:41.180,-0.719,0.443,1.071,322.632,165.649,-21.484, , , , , , ,-12.794,-13.601,-99.849
 09:24:13.825,eb:33:2e:f9:57:b5, 2015-01-01 00:16:41.180,-0.482,0.939,1.118,275.269,143.738,-21.667, , , , , , ,-11.25,-12.876,-100.118
 09:24:13.870,eb:33:2e:f9:57:b5, 2015-01-01 00:16:41.180,-0.248,0.985,1.338,218.323,116.394,-19.775, , , , , , ,-10.003,-12.283,-100.344
 09:24:13.870,eb:33:2e:f9:57:b5, 2015-01-01 00:16:41.180,-0.037,0.646,1.442,175.72,103.821,-18.982, , , , , , ,-9.003,-11.761,-100.53
 09:24:13.870,eb:33:2e:f9:57:b5, 2015-01-01 00:16:41.180,0.035,0.347,1.36,148.132,98.145,-18.677, , , , , , ,-8.174,-11.277,-100.706
 09:24:13.870,eb:33:2e:f9:57:b5, 2015-01-01 00:16:41.180,0.033,0.17,1.278,133.423,93.994,-18.921, , , , , , ,-7.449,-10.816,-100.865
 09:24:13.870,eb:33:2e:f9:57:b5, 2015-01-01 00:16:41.180,0.039,0.055,1.083,121.216,92.041,-15.32, , , , , , ,-6.79,-10.366,-101.014
 09:24:13.870,eb:33:2e:f9:57:b5, 2015-01-01 00:16:41.180,0.062,0.018,0.979,110.962,85.754,-9.583, , , , , , ,-6.196,-9.932,-101.124
 09:24:13.870,eb:33:2e:f9:57:b5, 2015-01-01 00:16:41.180,0.058,0.024,0.949,103.394,80.505,-6.287, , , , , , ,-5.641,-9.52,-101.206
 09:24:13.870,eb:33:2e:f9:57:b5, 2015-01-01 00:16:41.180,0.166,0.319,0.935,83.374,74.768,-4.028, , , , , , ,-5.175,-9.141,-101.272
 09:24:13.916,eb:33:2e:f9:57:b5, 2015-01-01 00:16:41.515,0.07,0.223,0.948,70.984,72.754,-4.333, , , , , , ,-4.79,-8.773,-101.321
 09:24:13.917,eb:33:2e:f9:57:b5, 2015-01-01 00:16:41.515,0.057,0.266,0.908,55.664,64.209,-4.211, , , , , , ,-4.471,-8.438,-101.376
 09:24:13.917,eb:33:2e:f9:57:b5, 2015-01-01 00:16:41.515,0.076,0.212,0.907,43.518,55.725,-2.136, , , , , , ,-4.219,-8.141,-101.415
 09:24:13.917,eb:33:2e:f9:57:b5, 2015-01-01 00:16:41.515,0.087,0.163,0.908,34.424,46.631,0.488, , , , , , ,-4.026,-7.894,-101.437
 09:24:13.917,eb:33:2e:f9:57:b5, 2015-01-01 00:16:41.515,0.088,0.076,0.918,28.137,40.039,3.418, , , , , , ,-3.873,-7.679,-101.442
 09:24:13.917,eb:33:2e:f9:57:b5, 2015-01-01 00:16:41.515,-0.026,0.024,0.965,25.757,35.278,3.418, , , , , , ,-3.741,-7.493,-101.437
 09:24:13.917,eb:33:2e:f9:57:b5, 2015-01-01 00:16:41.515,-0.075,-0.024,0.942,25.513,24.902,1.77, , , , , , ,-3.609,-7.339,-101.431
 09:24:13.917,eb:33:2e:f9:57:b5, 2015-01-01 00:16:41.515,-0.038,-0.062,0.939,26.306,12.451,-1.221, , , , , , ,-3.477,-7.251,-101.437
 09:24:13.962,eb:33:2e:f9:57:b5, 2015-01-01 00:16:41.515,0.021,-0.03,0.95,25.635,1.038,-3.784, , , , , , ,-3.345,-7.224,-101.453
 09:24:13.962,eb:33:2e:f9:57:b5, 2015-01-01 00:16:41.515,0.072,-0.008,0.985,24.353,-6.897,-4.15, , , , , , ,-3.214,-7.245,-101.475
 09:24:13.962,eb:33:2e:f9:57:b5, 2015-01-01 00:16:41.515,0.11,-0.019,1.026,23.621,-10.742,-2.869, , , , , , ,-3.087,-7.289,-101.492
 09:24:13.962,eb:33:2e:f9:57:b5, 2015-01-01 00:16:41.515,0.135,-0.048,1.045,24.353,-11.047,-2.441, , , , , , ,-2.966,-7.344,-101.503
 09:24:13.962,eb:33:2e:f9:57:b5, 2015-01-01 00:16:41.515,0.136,-0.046,1.038,25.269,-10.071,-3.113, , , , , , ,-2.84,-7.399,-101.514
 09:24:13.962,eb:33:2e:f9:57:b5, 2015-01-01 00:16:41.515,0.133,-0.018,1.012,25.024,-9.46,-4.15, , , , , , ,-2.708,-7.449,-101.53
 09:24:13.962,eb:33:2e:f9:57:b5, 2015-01-01 00:16:41.515,0.143,0.001,1.003,23.926,-9.216,-4.456, , , , , , ,-2.576,-7.493,-101.552
 09:24:13.962,eb:33:2e:f9:57:b5, 2015-01-01 00:16:41.515,0.155,0,1.018,22.949,-8.789,-4.028, , , , , , ,-2.455,-7.542,-101.574
 09:24:14.006,eb:33:2e:f9:57:b5, 2015-01-01 00:16:41.515,0.145,-0.013,1.033,22.583,-7.202,-3.723, , , , , , ,-2.34,-7.581,-101.591
 09:24:14.006,eb:33:2e:f9:57:b5, 2015-01-01 00:16:41.515,0.122,-0.028,1.032,22.827,-5.554,-3.601, , , , , , ,-2.225,-7.614,-101.607
 09:24:14.006,eb:33:2e:f9:57:b5, 2015-01-01 00:16:41.515,0.105,-0.042,1.019,23.438,-4.517,-3.845, , , , , , ,-2.098,-7.635,-101.629
 09:24:14.006,eb:33:2e:f9:57:b5, 2015-01-01 00:16:41.515,0.109,-0.038,1.004,24.414,-4.944,-4.944, , , , , , ,-1.978,-7.657,-101.651
 09:24:14.006,eb:33:2e:f9:57:b5, 2015-01-01 00:16:41.515,0.16,-0.021,1.004,25.146,-5.92,-6.47, , , , , , ,-1.846,-7.685,-101.678
 09:24:14.006,eb:33:2e:f9:57:b5, 2015-01-01 00:16:41.515,0.181,0.007,1.021,24.78,-5.188,-8.911, , , , , , ,-1.714,-7.718,-101.722
 09:24:14.007,eb:33:2e:f9:57:b5, 2015-01-01 00:16:41.515,0.183,0.008,1.02,23.682,-2.563,-9.644, , , , , , ,-1.582,-7.734,-101.766
 09:24:14.007,eb:33:2e:f9:57:b5, 2015-01-01 00:16:41.515,0.165,0.003,1.006,22.705,1.038,-9.644, , , , , , ,-1.456,-7.734,-101.816
 09:24:14.027,eb:33:2e:f9:57:b5, 2015-01-01 00:16:41.515,0.148,-0.001,0.993,21.851,4.456,-8.789, , , , , , ,-1.34,-7.723,-101.865
 09:24:14.027,eb:33:2e:f9:57:b5, 2015-01-01 00:16:41.515,0.126,0.015,0.97,20.752,6.836,-8.057, , , , , , ,-1.23,-7.69,-101.909
 09:24:14.027,eb:33:2e:f9:57:b5, 2015-01-01 00:16:41.515,0.133,0.013,0.969,19.836,8.057,-7.141, , , , , , ,-1.115,-7.652,-101.948
 09:24:14.027,eb:33:2e:f9:57:b5, 2015-01-01 00:16:41.515,0.114,-0.005,1.001,20.63,7.874,-6.714, , , , , , ,-1.011,-7.614,-101.986
 09:24:14.027,eb:33:2e:f9:57:b5, 2015-01-01 00:16:41.515,0.115,-0.002,0.985,21.24,7.507,-5.859, , , , , , ,-0.901,-7.575,-102.019
 09:24:14.027,eb:33:2e:f9:57:b5, 2015-01-01 00:16:41.515,0.127,-0.021,1.001,22.278,7.263,-4.883, , , , , , ,-0.786,-7.537,-102.047
 09:24:14.028,eb:33:2e:f9:57:b5, 2015-01-01 00:16:41.515,0.126,-0.009,0.991,22.827,7.629,-4.333, , , , , , ,-0.659,-7.498,-102.068
 09:24:14.028,eb:33:2e:f9:57:b5, 2015-01-01 00:16:41.515,0.129,-0.014,1.004,23.682,8.24,-3.662, , , , , , ,-0.538,-7.46,-102.09
 09:24:14.095,eb:33:2e:f9:57:b5, 2015-01-01 00:16:41.515,0.126,0.009,0.981,23.499,8.972,-2.991, , , , , , ,-0.417,-7.416,-102.107
 09:24:14.095,eb:33:2e:f9:57:b5, 2015-01-01 00:16:41.515,0.131,0.025,0.972,23.01,9.399,-2.197, , , , , , ,-0.302,-7.366,-102.123
 09:24:14.095,eb:33:2e:f9:57:b5, 2015-01-01 00:16:41.515,0.113,0.028,0.97,22.339,10.071,-1.221, , , , , , ,-0.181,-7.317,-102.134
 09:24:14.095,eb:33:2e:f9:57:b5, 2015-01-01 00:16:41.515,0.132,0.022,0.966,21.301,11.169,0.366, , , , , , ,-0.071,-7.262,-102.134
 09:24:14.095,eb:33:2e:f9:57:b5, 2015-01-01 00:16:41.515,0.14,0.041,0.954,19.958,12.268,1.282, , , , , , ,0.027,-7.202,-102.129
 09:24:14.095,eb:33:2e:f9:57:b5, 2015-01-01 00:16:41.515,0.14,0.04,0.964,18.86,13.855,1.77, , , , , , ,0.121,-7.136,-102.123
 09:24:14.095,eb:33:2e:f9:57:b5, 2015-01-01 00:16:41.515,0.149,0.037,0.969,17.822,15.869,2.197, , , , , , ,0.22,-7.059,-102.112
 09:24:14.095,eb:33:2e:f9:57:b5, 2015-01-01 00:16:41.515,0.149,0.043,0.969,16.724,18.005,2.319, , , , , , ,0.308,-6.971,-102.101
 09:24:14.117,eb:33:2e:f9:57:b5, 2015-01-01 00:16:41.515,0.157,0.045,0.976,15.564,21.118,2.563, , , , , , ,0.385,-6.872,-102.09
 09:24:14.117,eb:33:2e:f9:57:b5, 2015-01-01 00:16:41.515,0.162,0.043,0.983,14.709,24.475,2.625, , , , , , ,0.456,-6.757,-102.074
 09:24:14.117,eb:33:2e:f9:57:b5, 2015-01-01 00:16:41.515,0.178,0.031,1.001,14.465,28.137,2.686, , , , , , ,0.538,-6.619,-102.063
 09:24:14.117,eb:33:2e:f9:57:b5, 2015-01-01 00:16:41.515,0.186,0.029,1.019,14.343,32.715,2.502, , , , , , ,0.61,-6.465,-102.047
 09:24:14.117,eb:33:2e:f9:57:b5, 2015-01-01 00:16:41.515,0.191,0.033,1.017,13.977,38.147,2.075, , , , , , ,0.676,-6.29,-102.036
 09:24:14.117,eb:33:2e:f9:57:b5, 2015-01-01 00:16:41.515,0.192,0.037,1.02,13.733,43.884,1.648, , , , , , ,0.747,-6.081,-102.025
 09:24:14.117,eb:33:2e:f9:57:b5, 2015-01-01 00:16:41.515,0.182,0.039,1.016,13.55,49.255,1.16, , , , , , ,0.824,-5.839,-102.014
 09:24:14.118,eb:33:2e:f9:57:b5, 2015-01-01 00:16:41.515,0.168,0.052,1.003,13.062,53.528,0.366, , , , , , ,0.89,-5.581,-102.008
 09:24:14.164,eb:33:2e:f9:57:b5, 2015-01-01 00:16:41.515,0.161,0.057,1.004,12.695,56.396,-0.549, , , , , , ,0.95,-5.306,-102.003
 09:24:14.164,eb:33:2e:f9:57:b5, 2015-01-01 00:16:41.515,0.154,0.057,0.999,12.573,58.35,-1.709, , , , , , ,1.016,-5.015,-102.008
 09:24:14.164,eb:33:2e:f9:57:b5, 2015-01-01 00:16:41.515,0.14,0.053,1.007,12.817,59.387,-3.052, , , , , , ,1.088,-4.719,-102.014
 09:24:14.164,eb:33:2e:f9:57:b5, 2015-01-01 00:16:41.515,0.115,0.032,1.045,14.099,59.509,-4.028, , , , , , ,1.159,-4.417,-102.025
 09:24:14.164,eb:33:2e:f9:57:b5, 2015-01-01 00:16:41.515,0.086,0.026,1.031,15.564,60.181,-4.517, , , , , , ,1.23,-4.12,-102.041
 09:24:14.164,eb:33:2e:f9:57:b5, 2015-01-01 00:16:41.515,0.037,0.047,1.001,16.296,58.228,-5.493, , , , , , ,1.313,-3.823,-102.063
 09:24:14.165,eb:33:2e:f9:57:b5, 2015-01-01 00:16:41.515,0.018,0.039,0.995,17.151,54.749,-5.31, , , , , , ,1.406,-3.538,-102.085
 09:24:14.165,eb:33:2e:f9:57:b5, 2015-01-01 00:16:41.515,0.007,0.031,1.036,18.127,49.744,-5.554, , , , , , ,1.5,-3.274,-102.107
 09:24:14.186,eb:33:2e:f9:57:b5, 2015-01-01 00:16:41.515,0.001,0.012,1.034,19.897,45.837,-5.615, , , , , , ,1.593,-3.038,-102.129
 09:24:14.186,eb:33:2e:f9:57:b5, 2015-01-01 00:16:41.515,0.001,0.004,1.056,21.912,42.664,-5.615, , , , , , ,1.703,-2.818,-102.151
 09:24:14.186,eb:33:2e:f9:57:b5, 2015-01-01 00:16:41.515,0.001,-0.001,1.055,24.109,41.016,-5.005, , , , , , ,1.829,-2.604,-102.173
 09:24:14.186,eb:33:2e:f9:57:b5, 2015-01-01 00:16:41.515,0.035,0.024,1.01,25.391,39.307,-4.395, , , , , , ,1.956,-2.406,-102.189
 09:24:14.186,eb:33:2e:f9:57:b5, 2015-01-01 00:16:41.515,0.042,0.05,0.982,26.611,36.865,-4.395, , , , , , ,2.087,-2.214,-102.206
 09:24:14.186,eb:33:2e:f9:57:b5, 2015-01-01 00:16:41.515,-0.061,0.061,0.962,27.771,34.302,-5.371, , , , , , ,2.225,-2.038,-102.222
 09:24:14.186,eb:33:2e:f9:57:b5, 2015-01-01 00:16:41.515,-0.08,0.042,0.974,28.748,31.25,-4.028, , , , , , ,2.373,-1.868,-102.239
 09:24:14.186,eb:33:2e:f9:57:b5, 2015-01-01 00:16:41.515,-0.032,0.028,1.023,30.273,26.794,-1.953, , , , , , ,2.521,-1.725,-102.25
 09:24:14.230,eb:33:2e:f9:57:b5, 2015-01-01 00:16:41.515,0.017,0.013,1.093,32.654,23.987,-0.977, , , , , , ,2.681,-1.599,-102.25
 09:24:14.230,eb:33:2e:f9:57:b5, 2015-01-01 00:16:41.515,0.039,-0.01,1.181,37.598,21.545,-0.977, , , , , , ,2.856,-1.489,-102.25
 09:24:14.231,eb:33:2e:f9:57:b5, 2015-01-01 00:16:41.515,0.036,0.006,1.166,43.152,19.104,-1.099, , , , , , ,3.071,-1.384,-102.25
 09:24:14.231,eb:33:2e:f9:57:b5, 2015-01-01 00:16:41.515,-0.01,0.041,1.126,48.096,15.076,-1.587, , , , , , ,3.301,-1.296,-102.255
 09:24:14.231,eb:33:2e:f9:57:b5, 2015-01-01 00:16:41.515,-0.054,0.021,1.144,53.284,9.949,-1.953, , , , , , ,3.56,-1.236,-102.261
 09:24:14.231,eb:33:2e:f9:57:b5, 2015-01-01 00:16:41.515,-0.073,-0.004,1.156,59.753,3.174,-0.793, , , , , , ,3.845,-1.208,-102.266
 09:24:14.231,eb:33:2e:f9:57:b5, 2015-01-01 00:16:41.515,-0.068,-0.039,1.255,65.857,-0.549,0.61, , , , , , ,4.169,-1.203,-102.266
 09:24:14.231,eb:33:2e:f9:57:b5, 2015-01-01 00:16:41.515,-0.096,-0.099,1.445,71.899,3.113,2.563, , , , , , ,4.515,-1.198,-102.255
 09:24:14.274,eb:33:2e:f9:57:b5, 2015-01-01 00:16:41.850,-0.085,-0.105,1.443,80.078,5.249,4.883, , , , , , ,4.9,-1.176,-102.233
 09:24:14.274,eb:33:2e:f9:57:b5, 2015-01-01 00:16:41.850,-0.08,-0.049,1.294,88.013,1.648,6.531, , , , , , ,5.323,-1.159,-102.206
 09:24:14.274,eb:33:2e:f9:57:b5, 2015-01-01 00:16:41.850,-0.08,0.015,1.189,94.421,-5.92,6.348, , , , , , ,5.79,-1.176,-102.173
 09:24:14.274,eb:33:2e:f9:57:b5, 2015-01-01 00:16:41.850,-0.047,0.009,1.234,100.769,-13.062,6.287, , , , , , ,6.279,-1.23,-102.145
 09:24:14.274,eb:33:2e:f9:57:b5, 2015-01-01 00:16:41.850,-0.028,-0.005,1.351,106.873,-15.381,6.531, , , , , , ,6.801,-1.307,-102.123
 09:24:14.274,eb:33:2e:f9:57:b5, 2015-01-01 00:16:41.850,0.036,-0.026,1.446,112.427,-14.282,7.385, , , , , , ,7.355,-1.384,-102.101
 09:24:14.274,eb:33:2e:f9:57:b5, 2015-01-01 00:16:41.850,0.103,-0.039,1.455,120.667,-13.794,7.568, , , , , , ,7.943,-1.456,-102.068
 09:24:14.274,eb:33:2e:f9:57:b5, 2015-01-01 00:16:41.850,0.14,-0.001,1.386,129.211,-14.16,5.981, , , , , , ,8.575,-1.527,-102.047
 09:24:14.342,eb:33:2e:f9:57:b5, 2015-01-01 00:16:41.850,0.151,0.034,1.351,137.268,-14.771,3.601, , , , , , ,9.245,-1.604,-102.036
 09:24:14.342,eb:33:2e:f9:57:b5, 2015-01-01 00:16:41.850,0.152,0.054,1.351,145.081,-15.625,0.977, , , , , , ,9.954,-1.681,-102.041
 09:24:14.342,eb:33:2e:f9:57:b5, 2015-01-01 00:16:41.850,0.156,0.047,1.354,153.198,-15.686,-1.465, , , , , , ,10.712,-1.758,-102.057
 09:24:14.342,eb:33:2e:f9:57:b5, 2015-01-01 00:16:41.850,0.195,0.042,1.377,160.95,-14.099,-3.662, , , , , , ,11.503,-1.824,-102.085
 09:24:14.342,eb:33:2e:f9:57:b5, 2015-01-01 00:16:41.850,0.224,0.063,1.431,168.152,-11.108,-6.592, , , , , , ,12.332,-1.884,-102.123
 09:24:14.343,eb:33:2e:f9:57:b5, 2015-01-01 00:16:41.850,0.247,0.08,1.452,174.438,-7.202,-9.949, , , , , , ,13.195,-1.917,-102.178
 09:24:14.343,eb:33:2e:f9:57:b5, 2015-01-01 00:16:41.850,0.256,0.062,1.496,181.763,-2.136,-13.55, , , , , , ,14.095,-1.917,-102.239
 09:24:14.343,eb:33:2e:f9:57:b5, 2015-01-01 00:16:41.850,0.304,0.085,1.51,189.636,2.014,-17.7, , , , , , ,15.029,-1.895,-102.321
 09:24:14.364,eb:33:2e:f9:57:b5, 2015-01-01 00:16:41.850,0.325,0.084,1.538,198.242,6.653,-22.4, , , , , , ,16.007,-1.846,-102.409
 09:24:14.364,eb:33:2e:f9:57:b5, 2015-01-01 00:16:41.850,0.346,0.094,1.573,208.984,12.451,-27.466, , , , , , ,17.034,-1.763,-102.519
 09:24:14.364,eb:33:2e:f9:57:b5, 2015-01-01 00:16:41.850,0.357,0.067,1.637,218.689,18.86,-31.799, , , , , , ,18.116,-1.637,-102.64
 09:24:14.364,eb:33:2e:f9:57:b5, 2015-01-01 00:16:41.850,0.356,0.04,1.667,230.103,26.001,-35.767, , , , , , ,19.248,-1.472,-102.766
 09:24:14.364,eb:33:2e:f9:57:b5, 2015-01-01 00:16:41.850,0.409,0.101,1.699,241.15,30.457,-40.039, , , , , , ,20.435,-1.269,-102.892
 09:24:14.364,eb:33:2e:f9:57:b5, 2015-01-01 00:16:41.850,0.373,0.042,1.675,253.174,37.598,-44.312, , , , , , ,21.682,-1.027,-103.03
 09:24:14.364,eb:33:2e:f9:57:b5, 2015-01-01 00:16:41.850,0.364,0.069,1.784,264.587,41.504,-49.255, , , , , , ,22.983,-0.753,-103.178
 09:24:14.364,eb:33:2e:f9:57:b5, 2015-01-01 00:16:41.850,0.392,0.052,1.882,278.564,44.678,-53.589, , , , , , ,24.351,-0.45,-103.326
 09:24:14.389,eb:33:2e:f9:57:b5, 2015-01-01 00:16:41.850,0.38,0.011,1.936,294.556,45.227,-59.814, , , , , , ,25.79,-0.126,-103.491
 09:24:14.389,eb:33:2e:f9:57:b5, 2015-01-01 00:16:41.850,0.403,-0.016,2.055,311.768,46.448,-64.758, , , , , , ,27.318,0.214,-103.667
 09:24:14.389,eb:33:2e:f9:57:b5, 2015-01-01 00:16:41.850,0.5,0.037,2.278,327.759,47.241,-70.007, , , , , , ,28.927,0.582,-103.859
 09:24:14.389,eb:33:2e:f9:57:b5, 2015-01-01 00:16:41.850,0.5,0.022,2.414,346.13,48.95,-75.378, , , , , , ,30.613,0.972,-104.057
 09:24:14.389,eb:33:2e:f9:57:b5, 2015-01-01 00:16:41.850,0.61,0.154,2.558,363.953,51.758,-82.947, , , , , , ,32.399,1.395,-104.266
 09:24:14.389,eb:33:2e:f9:57:b5, 2015-01-01 00:16:41.850,0.625,0.059,2.631,382.629,57.617,-87.585, , , , , , ,34.266,1.862,-104.474
 09:24:14.389,eb:33:2e:f9:57:b5, 2015-01-01 00:16:41.850,0.677,0.243,2.647,396.545,56.03,-94.543, , , , , , ,36.216,2.362,-104.683
 09:24:14.389,eb:33:2e:f9:57:b5, 2015-01-01 00:16:41.850,0.659,0.183,2.752,410.095,53.589,-102.234, , , , , , ,38.227,2.878,-104.914
 09:24:14.479,eb:33:2e:f9:57:b5, 2015-01-01 00:16:41.850,0.69,0.099,2.816,421.326,53.772,-108.765, , , , , , ,40.303,3.422,-105.15
 09:24:14.479,eb:33:2e:f9:57:b5, 2015-01-01 00:16:41.850,0.605,0.047,3.125,429.077,63.171,-114.99, , , , , , ,42.418,4.01,-105.386
 09:24:14.479,eb:33:2e:f9:57:b5, 2015-01-01 00:16:41.850,0.537,-0.294,3.31,441.04,84.412,-116.089, , , , , , ,44.583,4.686,-105.546
 09:24:14.479,eb:33:2e:f9:57:b5, 2015-01-01 00:16:41.850,0.618,-0.45,3.231,460.632,97.473,-117.065, , , , , , ,46.835,5.427,-105.617
 09:24:14.479,eb:33:2e:f9:57:b5, 2015-01-01 00:16:41.850,0.588,-0.513,2.945,474.792,99.06,-125.244, , , , , , ,49.18,6.207,-105.65
 09:24:14.479,eb:33:2e:f9:57:b5, 2015-01-01 00:16:41.850,0.51,-0.316,2.953,483.643,102.722,-141.602, , , , , , ,51.581,7.048,-105.699
 09:24:14.479,eb:33:2e:f9:57:b5, 2015-01-01 00:16:41.850,0.418,-0.637,3.481,488.831,121.033,-145.752, , , , , , ,54.003,7.965,-105.694
 09:24:14.479,eb:33:2e:f9:57:b5, 2015-01-01 00:16:41.850,0.549,-0.621,3.869,506.836,158.508,-142.151, , , , , , ,56.53,8.959,-105.507
 09:24:14.482,eb:33:2e:f9:57:b5, 2015-01-01 00:16:41.850,0.491,-0.617,4.125,520.996,193.054,-128.662, , , , , , ,59.178,10.009,-105.106
 09:24:14.482,eb:33:2e:f9:57:b5, 2015-01-01 00:16:41.850,0.554,-0.649,3.314,522.4,223.877,-109.802, , , , , , ,61.913,11.041,-104.453
 09:24:14.482,eb:33:2e:f9:57:b5, 2015-01-01 00:16:41.850,0.75,-0.85,2.336,503.052,242.859,-95.215, , , , , , ,64.633,12.019,-103.618
 09:24:14.482,eb:33:2e:f9:57:b5, 2015-01-01 00:16:41.850,0.607,-0.728,1.718,458.496,270.447,-75.256, , , , , , ,67.247,12.92,-102.585
 09:24:14.482,eb:33:2e:f9:57:b5, 2015-01-01 00:16:41.850,0.567,-0.479,0.688,398.132,283.875,-57.739, , , , , , ,69.648,13.738,-101.354
 09:24:14.482,eb:33:2e:f9:57:b5, 2015-01-01 00:16:41.850,0.562,-0.943,0.161,320.007,282.288,-41.992, , , , , , ,71.724,14.442,-100.052
 09:24:14.482,eb:33:2e:f9:57:b5, 2015-01-01 00:16:41.850,0.559,-2.457,-0.421,243.713,257.568,-12.085, , , , , , ,73.411,14.958,-98.773
 09:24:14.482,eb:33:2e:f9:57:b5, 2015-01-01 00:16:41.850,0.235,-2.779,-0.888,186.707,215.82,26.917, , , , , , ,74.751,15.233,-97.581
 09:24:14.524,eb:33:2e:f9:57:b5, 2015-01-01 00:16:41.850,0.288,-0.646,-1.003,95.703,143.127,46.936, , , , , , ,75.69,15.249,-96.68
 09:24:14.524,eb:33:2e:f9:57:b5, 2015-01-01 00:16:41.850,0.317,0.435,-0.444,-24.841,106.75,61.462, , , , , , ,75.97,15.123,-95.993
 09:24:14.524,eb:33:2e:f9:57:b5, 2015-01-01 00:16:41.850,0.635,0.094,0.137,-104.065,77.332,65.491, , , , , , ,75.712,14.919,-95.477
 09:24:14.524,eb:33:2e:f9:57:b5, 2015-01-01 00:16:41.850,0.808,-0.742,0.496,-158.875,64.087,64.819, , , , , , ,75.13,14.683,-95.054
 09:24:14.524,eb:33:2e:f9:57:b5, 2015-01-01 00:16:41.850,0.866,-1.145,0.526,-194.153,65.186,60.791, , , , , , ,74.328,14.469,-94.642
 09:24:14.524,eb:33:2e:f9:57:b5, 2015-01-01 00:16:41.850,0.857,-1.284,0.606,-214.661,65.979,55.847, , , , , , ,73.389,14.282,-94.23
 09:24:14.524,eb:33:2e:f9:57:b5, 2015-01-01 00:16:41.850,0.841,-1.154,0.784,-218.567,62.805,48.95, , , , , , ,72.383,14.128,-93.84
 09:24:14.524,eb:33:2e:f9:57:b5, 2015-01-01 00:16:41.850,0.798,-0.916,0.898,-214.966,58.044,39.368, , , , , , ,71.389,14.019,-93.477
 09:24:14.568,eb:33:2e:f9:57:b5, 2015-01-01 00:16:41.850,0.741,-0.749,0.8,-211.792,51.941,28.931, , , , , , ,70.4,13.947,-93.153
 09:24:14.568,eb:33:2e:f9:57:b5, 2015-01-01 00:16:41.850,0.71,-0.697,0.538,-211.609,42.786,18.86, , , , , , ,69.406,13.925,-92.884
 09:24:14.568,eb:33:2e:f9:57:b5, 2015-01-01 00:16:41.850,0.714,-0.702,0.289,-214.539,30.273,8.911, , , , , , ,68.368,13.925,-92.697
 09:24:14.568,eb:33:2e:f9:57:b5, 2015-01-01 00:16:41.850,0.707,-0.692,0.153,-221.191,17.151,-0.549, , , , , , ,67.308,13.953,-92.582
 09:24:14.569,eb:33:2e:f9:57:b5, 2015-01-01 00:16:41.850,0.674,-0.652,0.098,-231.384,3.235,-9.521, , , , , , ,66.176,13.997,-92.549
 09:24:14.569,eb:33:2e:f9:57:b5, 2015-01-01 00:16:41.850,0.625,-0.617,0.074,-244.507,-11.414,-17.456, , , , , , ,64.968,14.052,-92.609
 09:24:14.569,eb:33:2e:f9:57:b5, 2015-01-01 00:16:41.850,0.583,-0.604,0.063,-260.803,-24.78,-23.499, , , , , , ,63.644,14.101,-92.752
 09:24:14.569,eb:33:2e:f9:57:b5, 2015-01-01 00:16:41.850,0.549,-0.618,0.071,-279.968,-36.072,-27.466, , , , , , ,62.232,14.145,-92.961
 09:24:14.613,eb:33:2e:f9:57:b5, 2015-01-01 00:16:42.205,0.523,-0.64,0.099,-301.27,-45.593,-29.602, , , , , , ,60.705,14.172,-93.219
 09:24:14.613,eb:33:2e:f9:57:b5, 2015-01-01 00:16:42.205,0.498,-0.661,0.158,-323.608,-53.345,-30.273, , , , , , ,59.057,14.178,-93.521
 09:24:14.613,eb:33:2e:f9:57:b5, 2015-01-01 00:16:42.205,0.486,-0.681,0.249,-344.971,-58.96,-29.724, , , , , , ,57.277,14.15,-93.856
 09:24:14.613,eb:33:2e:f9:57:b5, 2015-01-01 00:16:42.205,0.481,-0.697,0.372,-363.342,-62.378,-28.381, , , , , , ,55.41,14.101,-94.202
 09:24:14.613,eb:33:2e:f9:57:b5, 2015-01-01 00:16:42.205,0.468,-0.692,0.479,-377.747,-64.941,-26.855, , , , , , ,53.465,14.03,-94.554
 09:24:14.613,eb:33:2e:f9:57:b5, 2015-01-01 00:16:42.205,0.467,-0.656,0.547,-388.55,-68.665,-25.391, , , , , , ,51.454,13.925,-94.905
 09:24:14.613,eb:33:2e:f9:57:b5, 2015-01-01 00:16:42.205,0.48,-0.6,0.618,-395.752,-73.669,-24.658, , , , , , ,49.384,13.788,-95.279
 09:24:14.613,eb:33:2e:f9:57:b5, 2015-01-01 00:16:42.205,0.48,-0.526,0.676,-400.208,-79.529,-24.597, , , , , , ,47.296,13.623,-95.663
 09:24:14.635,eb:33:2e:f9:57:b5, 2015-01-01 00:16:42.205,0.475,-0.45,0.705,-402.588,-86.243,-24.292, , , , , , ,45.198,13.425,-96.059
 09:24:14.635,eb:33:2e:f9:57:b5, 2015-01-01 00:16:42.205,0.465,-0.386,0.74,-402.71,-93.567,-23.987, , , , , , ,43.088,13.184,-96.471
 09:24:14.635,eb:33:2e:f9:57:b5, 2015-01-01 00:16:42.205,0.461,-0.348,0.808,-400.208,-100.769,-23.621, , , , , , ,40.963,12.892,-96.905
 09:24:14.635,eb:33:2e:f9:57:b5, 2015-01-01 00:16:42.205,0.455,-0.321,0.913,-394.592,-107.056,-22.949, , , , , , ,38.881,12.568,-97.344
 09:24:14.635,eb:33:2e:f9:57:b5, 2015-01-01 00:16:42.205,0.443,-0.29,1.019,-386.292,-112.671,-22.095, , , , , , ,36.837,12.2,-97.778
 09:24:14.635,eb:33:2e:f9:57:b5, 2015-01-01 00:16:42.205,0.428,-0.25,1.098,-376.16,-118.225,-20.935, , , , , , ,34.843,11.794,-98.218
 09:24:14.635,eb:33:2e:f9:57:b5, 2015-01-01 00:16:42.205,0.406,-0.214,1.161,-365.54,-123.962,-19.043, , , , , , ,32.888,11.332,-98.652
 09:24:14.635,eb:33:2e:f9:57:b5, 2015-01-01 00:16:42.205,0.374,-0.182,1.201,-356.201,-130.615,-16.418, , , , , , ,31.003,10.838,-99.075
 09:24:14.680,eb:33:2e:f9:57:b5, 2015-01-01 00:16:42.205,0.341,-0.156,1.215,-349.487,-138.184,-12.878, , , , , , ,29.169,10.289,-99.481
 09:24:14.680,eb:33:2e:f9:57:b5, 2015-01-01 00:16:42.205,0.318,-0.148,1.232,-345.642,-146.118,-8.24, , , , , , ,27.367,9.684,-99.871
 09:24:14.680,eb:33:2e:f9:57:b5, 2015-01-01 00:16:42.205,0.269,-0.155,1.29,-343.445,-153.198,-1.709, , , , , , ,25.565,9.009,-100.239
 09:24:14.680,eb:33:2e:f9:57:b5, 2015-01-01 00:16:42.205,0.219,-0.148,1.431,-343.018,-154.297,4.333, , , , , , ,23.802,8.311,-100.552
 09:24:14.680,eb:33:2e:f9:57:b5, 2015-01-01 00:16:42.205,0.203,-0.147,1.393,-342.407,-162.17,12.024, , , , , , ,22.05,7.559,-100.827
 09:24:14.680,eb:33:2e:f9:57:b5, 2015-01-01 00:16:42.205,0.285,-0.127,1.463,-340.881,-167.358,19.897, , , , , , ,20.314,6.757,-101.047
 09:24:14.680,eb:33:2e:f9:57:b5, 2015-01-01 00:16:42.205,0.298,-0.095,1.481,-337.585,-176.453,25.574, , , , , , ,18.578,5.894,-101.234
 09:24:14.680,eb:33:2e:f9:57:b5, 2015-01-01 00:16:42.205,0.285,-0.066,1.556,-333.008,-182.739,29.968, , , , , , ,16.891,4.993,-101.371
 09:24:14.725,eb:33:2e:f9:57:b5, 2015-01-01 00:16:42.205,0.296,-0.059,1.636,-327.881,-189.514,34.546, , , , , , ,15.233,4.048,-101.475
 09:24:14.725,eb:33:2e:f9:57:b5, 2015-01-01 00:16:42.205,0.284,-0.06,1.741,-322.449,-193.726,39.124, , , , , , ,13.607,3.071,-101.53
 09:24:14.725,eb:33:2e:f9:57:b5, 2015-01-01 00:16:42.205,0.288,-0.059,1.83,-317.2,-196.167,43.274, , , , , , ,11.986,2.06,-101.552
 09:24:14.725,eb:33:2e:f9:57:b5, 2015-01-01 00:16:42.205,0.305,-0.047,1.916,-311.829,-197.144,46.509, , , , , , ,10.415,1.049,-101.519
 09:24:14.725,eb:33:2e:f9:57:b5, 2015-01-01 00:16:42.205,0.323,-0.015,1.986,-306.519,-197.327,48.279, , , , , , ,8.871,0.038,-101.448
 09:24:14.725,eb:33:2e:f9:57:b5, 2015-01-01 00:16:42.205,0.344,0.037,2.03,-300.903,-198.181,47.974, , , , , , ,7.355,-0.972,-101.349
 09:24:14.726,eb:33:2e:f9:57:b5, 2015-01-01 00:16:42.205,0.366,0.104,2.063,-294.678,-200.562,45.349, , , , , , ,5.839,-2,-101.234
 09:24:14.726,eb:33:2e:f9:57:b5, 2015-01-01 00:16:42.205,0.377,0.177,2.098,-287.903,-204.895,40.771, , , , , , ,4.384,-3.032,-101.113
 09:24:14.771,eb:33:2e:f9:57:b5, 2015-01-01 00:16:42.205,0.367,0.248,2.147,-280.701,-210.815,34.912, , , , , , ,2.955,-4.081,-100.992
 09:24:14.771,eb:33:2e:f9:57:b5, 2015-01-01 00:16:42.205,0.332,0.309,2.213,-273.743,-217.041,28.931, , , , , , ,1.566,-5.164,-100.882
 09:24:14.771,eb:33:2e:f9:57:b5, 2015-01-01 00:16:42.205,0.281,0.358,2.297,-267.822,-221.741,23.499, , , , , , ,0.181,-6.279,-100.767
 09:24:14.771,eb:33:2e:f9:57:b5, 2015-01-01 00:16:42.205,0.222,0.391,2.402,-263.916,-222.961,19.714, , , , , , ,-1.154,-7.394,-100.651
 09:24:14.771,eb:33:2e:f9:57:b5, 2015-01-01 00:16:42.205,0.136,0.425,2.517,-262.268,-220.032,17.578, , , , , , ,-2.483,-8.498,-100.525
 09:24:14.771,eb:33:2e:f9:57:b5, 2015-01-01 00:16:42.205,0.049,0.49,2.584,-264.404,-214.966,17.456, , , , , , ,-3.823,-9.575,-100.377
 09:24:14.771,eb:33:2e:f9:57:b5, 2015-01-01 00:16:42.205,-0.028,0.551,2.642,-271.24,-207.703,19.043, , , , , , ,-5.219,-10.629,-100.201
 09:24:14.771,eb:33:2e:f9:57:b5, 2015-01-01 00:16:42.205,-0.104,0.647,2.677,-283.02,-198.364,21.729, , , , , , ,-6.647,-11.624,-99.992
 09:24:14.793,eb:33:2e:f9:57:b5, 2015-01-01 00:16:42.205,-0.184,0.823,2.646,-300.537,-189.697,25.085, , , , , , ,-8.168,-12.568,-99.745
 09:24:14.793,eb:33:2e:f9:57:b5, 2015-01-01 00:16:42.205,-0.255,0.989,2.6,-321.167,-182.556,28.015, , , , , , ,-9.794,-13.464,-99.459
 09:24:14.793,eb:33:2e:f9:57:b5, 2015-01-01 00:16:42.205,-0.338,1.108,2.567,-340.698,-176.697,29.785, , , , , , ,-11.558,-14.326,-99.135
 09:24:14.793,eb:33:2e:f9:57:b5, 2015-01-01 00:16:42.205,-0.395,1.223,2.52,-356.262,-172.974,30.701, , , , , , ,-13.398,-15.145,-98.789
 09:24:14.793,eb:33:2e:f9:57:b5, 2015-01-01 00:16:42.205,-0.423,1.333,2.564,-365.601,-168.762,32.349, , , , , , ,-15.309,-15.93,-98.416
 09:24:14.793,eb:33:2e:f9:57:b5, 2015-01-01 00:16:42.205,-0.487,1.429,2.786,-364.99,-158.691,35.583, , , , , , ,-17.26,-16.672,-98.004
 09:24:14.793,eb:33:2e:f9:57:b5, 2015-01-01 00:16:42.205,-0.571,1.603,3.035,-353.394,-141.846,40.161, , , , , , ,-19.199,-17.325,-97.57
 09:24:14.795,eb:33:2e:f9:57:b5, 2015-01-01 00:16:42.205,-0.635,1.894,3.18,-334.473,-120.117,44.495, , , , , , ,-21.044,-17.858,-97.125
 09:24:14.838,eb:33:2e:f9:57:b5, 2015-01-01 00:16:42.205,-0.702,2.252,3.196,-311.218,-93.689,48.523, , , , , , ,-22.78,-18.254,-96.691
 09:24:14.838,eb:33:2e:f9:57:b5, 2015-01-01 00:16:42.205,-0.769,2.641,3.069,-284.18,-64.941,51.819, , , , , , ,-24.384,-18.506,-96.29
 09:24:14.838,eb:33:2e:f9:57:b5, 2015-01-01 00:16:42.205,-0.881,3.037,2.848,-251.709,-38.513,52.002, , , , , , ,-25.84,-18.622,-95.927
 09:24:14.838,eb:33:2e:f9:57:b5, 2015-01-01 00:16:42.205,-1.143,3.442,2.449,-212.769,-25.208,47.363, , , , , , ,-27.081,-18.638,-95.625
 09:24:14.838,eb:33:2e:f9:57:b5, 2015-01-01 00:16:42.205,-1.473,3.861,1.796,-168.884,-38.513,38.208, , , , , , ,-28.098,-18.677,-95.356
 09:24:14.838,eb:33:2e:f9:57:b5, 2015-01-01 00:16:42.205,-1.768,4.234,1.188,-123.84,-75.623,26.428, , , , , , ,-28.905,-18.864,-95.059
 09:24:14.838,eb:33:2e:f9:57:b5, 2015-01-01 00:16:42.205,-1.97,4.455,0.992,-79.59,-117.249,15.198, , , , , , ,-29.509,-19.265,-94.708
 09:24:14.838,eb:33:2e:f9:57:b5, 2015-01-01 00:16:42.205,-1.959,4.414,1.508,-26.55,-140.991,5.859, , , , , , ,-29.883,-19.825,-94.312
 09:24:14.883,eb:33:2e:f9:57:b5, 2015-01-01 00:16:42.205,-1.846,4.148,2.297,16.357,-119.385,3.174, , , , , , ,-30.015,-20.385,-93.95
 09:24:14.883,eb:33:2e:f9:57:b5, 2015-01-01 00:16:42.205,-1.64,3.739,2.923,53.955,-62.439,4.456, , , , , , ,-29.905,-20.753,-93.697
 09:24:14.883,eb:33:2e:f9:57:b5, 2015-01-01 00:16:42.205,-1.366,3.286,3.116,81.909,12.817,7.874, , , , , , ,-29.57,-20.819,-93.62
 09:24:14.884,eb:33:2e:f9:57:b5, 2015-01-01 00:16:42.205,-0.316,2.889,2.904,99.854,83.435,10.62, , , , , , ,-29.064,-20.55,-93.724
 09:24:14.884,eb:33:2e:f9:57:b5, 2015-01-01 00:16:42.205,2.666,2.257,3.681,193.359,27.222,-46.387, , , , , , ,-28.306,-20.27,-93.955
 09:24:14.884,eb:33:2e:f9:57:b5, 2015-01-01 00:16:42.205,-0.046,1.239,6.702,260.071,315.247,-62.195, , , , , , ,-26.774,-19.446,-94.812
 09:24:14.884,eb:33:2e:f9:57:b5, 2015-01-01 00:16:42.205,1.872,-0.776,-0.147,268.616,142.7,-131.592, , , , , , ,-25.126,-18.781,-95.762
 09:24:14.884,eb:33:2e:f9:57:b5, 2015-01-01 00:16:42.205,0.989,-0.472,1.26,246.399,146.179,-145.447, , , , , , ,-23.522,-18.419,-96.751
 09:24:14.928,eb:33:2e:f9:57:b5, 2015-01-01 00:16:42.520,1.025,-0.771,1.397,245.422,160.583,-149.353, , , , , , ,-21.995,-18.012,-97.778
 09:24:14.928,eb:33:2e:f9:57:b5, 2015-01-01 00:16:42.520,-0.462,-1.294,1.499,273.804,208.74,-129.456, , , , , , ,-20.369,-17.391,-98.817
 09:24:14.928,eb:33:2e:f9:57:b5, 2015-01-01 00:16:42.520,-0.614,-2.233,1.337,336.792,243.225,-65.125, , , , , , ,-18.55,-16.441,-99.651
 09:24:14.928,eb:33:2e:f9:57:b5, 2015-01-01 00:16:42.520,-0.805,-1.115,1.216,366.76,253.784,-29.175, , , , , , ,-16.595,-15.298,-100.261
 09:24:14.928,eb:33:2e:f9:57:b5, 2015-01-01 00:16:42.520,-0.989,-0.325,1.014,371.521,237.488,-10.071, , , , , , ,-14.628,-14.134,-100.69
 09:24:14.928,eb:33:2e:f9:57:b5, 2015-01-01 00:16:42.520,-0.888,0.094,1.017,360.901,214.783,3.54, , , , , , ,-12.728,-13.046,-100.964
 09:24:14.928,eb:33:2e:f9:57:b5, 2015-01-01 00:16:42.520,-0.673,1.033,1.278,311.096,179.993,1.526, , , , , , ,-11.008,-12.09,-101.157
 09:24:14.929,eb:33:2e:f9:57:b5, 2015-01-01 00:16:42.520,-0.354,1.106,1.438,251.526,152.039,-0.854, , , , , , ,-9.602,-11.294,-101.305
 09:24:14.950,eb:33:2e:f9:57:b5, 2015-01-01 00:16:42.520,-0.226,0.848,1.417,201.355,132.996,-9.216, , , , , , ,-8.476,-10.602,-101.448
 09:24:14.950,eb:33:2e:f9:57:b5, 2015-01-01 00:16:42.520,-0.062,0.578,1.443,164.551,112.793,-16.357, , , , , , ,-7.564,-10.014,-101.596
 09:24:14.950,eb:33:2e:f9:57:b5, 2015-01-01 00:16:42.520,-0.007,0.224,1.329,147.278,103.394,-21.179, , , , , , ,-6.762,-9.492,-101.766
 09:24:14.950,eb:33:2e:f9:57:b5, 2015-01-01 00:16:42.520,-0.031,0.024,1.141,140.198,96.619,-23.071, , , , , , ,-6.015,-9.02,-101.937
 09:24:14.950,eb:33:2e:f9:57:b5, 2015-01-01 00:16:42.520,0.011,-0.028,0.929,130.005,93.018,-17.578, , , , , , ,-5.323,-8.558,-102.09
 09:24:14.950,eb:33:2e:f9:57:b5, 2015-01-01 00:16:42.520,0.139,0.083,0.906,117.249,88.562,-10.864, , , , , , ,-4.686,-8.113,-102.2
 09:24:14.950,eb:33:2e:f9:57:b5, 2015-01-01 00:16:42.520,0.197,0.282,0.939,98.328,85.449,-6.958, , , , , , ,-4.142,-7.679,-102.272
 09:24:14.950,eb:33:2e:f9:57:b5, 2015-01-01 00:16:42.520,0.146,0.301,0.957,83.679,84.351,-7.507, , , , , , ,-3.686,-7.262,-102.338
 09:24:14.996,eb:33:2e:f9:57:b5, 2015-01-01 00:16:42.520,0.032,0.266,0.925,70.496,79.346,-9.766, , , , , , ,-3.301,-6.855,-102.409
 09:24:14.996,eb:33:2e:f9:57:b5, 2015-01-01 00:16:42.520,0.093,0.242,0.925,59.814,74.524,-10.132, , , , , , ,-2.972,-6.476,-102.48
 09:24:14.996,eb:33:2e:f9:57:b5, 2015-01-01 00:16:42.520,0.208,0.279,0.951,46.143,67.505,-6.592, , , , , , ,-2.697,-6.125,-102.541
 09:24:14.996,eb:33:2e:f9:57:b5, 2015-01-01 00:16:42.520,0.084,0.189,1.02,36.377,67.688,-3.174, , , , , , ,-2.488,-5.79,-102.579
 09:24:14.996,eb:33:2e:f9:57:b5, 2015-01-01 00:16:42.520,0.002,0.112,0.958,28.503,63.843,2.258, , , , , , ,-2.329,-5.455,-102.596
 09:24:14.996,eb:33:2e:f9:57:b5, 2015-01-01 00:16:42.520,-0.078,0.074,0.965,23.254,57.617,5.371, , , , , , ,-2.208,-5.153,-102.585
 09:24:14.996,eb:33:2e:f9:57:b5, 2015-01-01 00:16:42.520,-0.094,0.019,0.956,20.691,46.326,6.226, , , , , , ,-2.087,-4.894,-102.568
 09:24:14.997,eb:33:2e:f9:57:b5, 2015-01-01 00:16:42.520,-0.07,0,0.958,19.592,34.241,3.54, , , , , , ,-1.989,-4.697,-102.552
 09:24:15.064,eb:33:2e:f9:57:b5, 2015-01-01 00:16:42.520,-0.044,0.004,0.956,18.738,23.132,0.183, , , , , , ,-1.895,-4.559,-102.552
 09:24:15.064,eb:33:2e:f9:57:b5, 2015-01-01 00:16:42.520,0.04,0.001,0.942,17.944,12.146,0, , , , , , ,-1.802,-4.477,-102.552
 09:24:15.064,eb:33:2e:f9:57:b5, 2015-01-01 00:16:42.520,0.065,0.002,1.007,17.7,8.789,0, , , , , , ,-1.703,-4.422,-102.557
 09:24:15.064,eb:33:2e:f9:57:b5, 2015-01-01 00:16:42.520,0.055,-0.026,1.041,18.494,8.24,-0.061, , , , , , ,-1.609,-4.384,-102.557
 09:24:15.064,eb:33:2e:f9:57:b5, 2015-01-01 00:16:42.520,-0.001,-0.028,1.021,19.348,7.629,-0.977, , , , , , ,-1.516,-4.345,-102.563
 09:24:15.064,eb:33:2e:f9:57:b5, 2015-01-01 00:16:42.520,-0.018,-0.024,0.989,19.897,5.066,-1.099, , , , , , ,-1.417,-4.312,-102.568
 09:24:15.064,eb:33:2e:f9:57:b5, 2015-01-01 00:16:42.520,0.003,-0.003,0.964,19.714,1.038,-1.465, , , , , , ,-1.307,-4.29,-102.574
 09:24:15.064,eb:33:2e:f9:57:b5, 2015-01-01 00:16:42.520,0.06,-0.002,0.979,19.409,-2.319,-2.136, , , , , , ,-1.208,-4.301,-102.585
 09:24:15.086,eb:33:2e:f9:57:b5, 2015-01-01 00:16:42.520,0.088,-0.005,1.014,19.531,-3.235,-3.235, , , , , , ,-1.11,-4.318,-102.601
 09:24:15.086,eb:33:2e:f9:57:b5, 2015-01-01 00:16:42.520,0.086,-0.01,1.039,19.775,-1.709,-4.028, , , , , , ,-1.005,-4.329,-102.618
 09:24:15.086,eb:33:2e:f9:57:b5, 2015-01-01 00:16:42.520,0.079,0.001,1.025,19.897,-0.427,-4.333, , , , , , ,-0.895,-4.329,-102.64
 09:24:15.086,eb:33:2e:f9:57:b5, 2015-01-01 00:16:42.520,0.05,0,1.017,19.958,0.366,-4.456, , , , , , ,-0.791,-4.329,-102.662
 09:24:15.086,eb:33:2e:f9:57:b5, 2015-01-01 00:16:42.520,0.057,0,0.996,19.958,-0.61,-4.028, , , , , , ,-0.692,-4.329,-102.684
 09:24:15.086,eb:33:2e:f9:57:b5, 2015-01-01 00:16:42.520,0.071,0.018,0.981,19.47,-2.075,-4.7, , , , , , ,-0.593,-4.34,-102.711
 09:24:15.086,eb:33:2e:f9:57:b5, 2015-01-01 00:16:42.520,0.098,0.014,0.992,19.165,-2.747,-5.554, , , , , , ,-0.483,-4.345,-102.733
 09:24:15.086,eb:33:2e:f9:57:b5, 2015-01-01 00:16:42.520,0.139,0.002,1.023,19.531,-1.77,-6.104, , , , , , ,-0.385,-4.356,-102.766
 09:24:15.131,eb:33:2e:f9:57:b5, 2015-01-01 00:16:42.520,0.139,0.014,1.035,19.592,1.16,-7.446, , , , , , ,-0.28,-4.362,-102.799
 09:24:15.131,eb:33:2e:f9:57:b5, 2015-01-01 00:16:42.520,0.114,0.012,1.041,19.958,4.639,-8.179, , , , , , ,-0.181,-4.345,-102.843
 09:24:15.131,eb:33:2e:f9:57:b5, 2015-01-01 00:16:42.520,0.094,0.004,1.03,20.325,7.324,-7.874, , , , , , ,-0.066,-4.307,-102.881
 09:24:15.131,eb:33:2e:f9:57:b5, 2015-01-01 00:16:42.520,0.099,0.024,0.994,19.653,8.484,-7.08, , , , , , ,0.033,-4.268,-102.92
 09:24:15.131,eb:33:2e:f9:57:b5, 2015-01-01 00:16:42.520,0.101,0.028,0.984,18.555,9.583,-6.287, , , , , , ,0.132,-4.219,-102.953
 09:24:15.131,eb:33:2e:f9:57:b5, 2015-01-01 00:16:42.520,0.108,0.034,0.978,17.761,10.925,-5.798, , , , , , ,0.225,-4.169,-102.986
 09:24:15.131,eb:33:2e:f9:57:b5, 2015-01-01 00:16:42.520,0.136,0.032,0.987,17.395,12.024,-5.615, , , , , , ,0.324,-4.103,-103.013
 09:24:15.131,eb:33:2e:f9:57:b5, 2015-01-01 00:16:42.520,0.118,0.048,0.999,16.846,13.733,-6.104, , , , , , ,0.412,-4.043,-103.041
 09:24:15.154,eb:33:2e:f9:57:b5, 2015-01-01 00:16:42.520,0.086,0.039,0.996,16.479,14.832,-6.409, , , , , , ,0.5,-3.966,-103.074
 09:24:15.155,eb:33:2e:f9:57:b5, 2015-01-01 00:16:42.520,0.068,0.022,1.002,16.785,14.893,-6.104, , , , , , ,0.582,-3.895,-103.107
 09:24:15.155,eb:33:2e:f9:57:b5, 2015-01-01 00:16:42.520,0.064,0.019,0.992,17.395,14.832,-5.432, , , , , , ,0.681,-3.812,-103.134
 09:24:15.155,eb:33:2e:f9:57:b5, 2015-01-01 00:16:42.520,0.085,0.025,0.985,17.273,14.954,-4.7, , , , , , ,0.769,-3.741,-103.162
 09:24:15.156,eb:33:2e:f9:57:b5, 2015-01-01 00:16:42.520,0.105,0.039,0.985,17.029,16.113,-4.517, , , , , , ,0.857,-3.658,-103.184
 09:24:15.156,eb:33:2e:f9:57:b5, 2015-01-01 00:16:42.520,0.124,0.044,0.994,16.602,18.433,-4.761, , , , , , ,0.945,-3.576,-103.206
 09:24:15.156,eb:33:2e:f9:57:b5, 2015-01-01 00:16:42.520,0.139,0.045,1.012,16.296,20.996,-5.432, , , , , , ,1.038,-3.466,-103.228
 09:24:15.156,eb:33:2e:f9:57:b5, 2015-01-01 00:16:42.520,0.131,0.051,1.01,16.052,23.499,-6.226, , , , , , ,1.121,-3.356,-103.255
 09:24:15.221,eb:33:2e:f9:57:b5, 2015-01-01 00:16:42.520,0.115,0.054,1.002,15.869,25.757,-7.08, , , , , , ,1.203,-3.23,-103.288
 09:24:15.221,eb:33:2e:f9:57:b5, 2015-01-01 00:16:42.520,0.092,0.048,1.008,15.625,27.405,-7.568, , , , , , ,1.285,-3.098,-103.321
 09:24:15.221,eb:33:2e:f9:57:b5, 2015-01-01 00:16:42.520,0.078,0.06,0.988,15.076,28.32,-8.24, , , , , , ,1.373,-2.95,-103.359
 09:24:15.221,eb:33:2e:f9:57:b5, 2015-01-01 00:16:42.520,0.05,0.066,0.985,14.099,28.503,-8.911, , , , , , ,1.45,-2.807,-103.398
 09:24:15.221,eb:33:2e:f9:57:b5, 2015-01-01 00:16:42.520,0.042,0.06,0.984,13.489,27.893,-8.606, , , , , , ,1.522,-2.664,-103.442
 09:24:15.221,eb:33:2e:f9:57:b5, 2015-01-01 00:16:42.520,0.036,0.045,1.005,13.245,27.771,-7.996, , , , , , ,1.588,-2.527,-103.48
 09:24:15.221,eb:33:2e:f9:57:b5, 2015-01-01 00:16:42.520,0.054,0.05,0.985,12.939,27.893,-7.446, , , , , , ,1.664,-2.379,-103.513
 09:24:15.221,eb:33:2e:f9:57:b5, 2015-01-01 00:16:42.520,0.056,0.072,0.961,12.207,27.71,-7.629, , , , , , ,1.73,-2.241,-103.546
 09:24:15.242,eb:33:2e:f9:57:b5, 2015-01-01 00:16:42.810,0.062,0.064,0.979,11.597,28.87,-7.812, , , , , , ,1.791,-2.098,-103.585
 09:24:15.242,eb:33:2e:f9:57:b5, 2015-01-01 00:16:42.810,0.083,0.06,0.994,11.536,30.09,-7.751, , , , , , ,1.851,-1.95,-103.618
 09:24:15.242,eb:33:2e:f9:57:b5, 2015-01-01 00:16:42.810,0.096,0.051,1.031,12.085,32.959,-8.118, , , , , , ,1.923,-1.785,-103.656
 09:24:15.242,eb:33:2e:f9:57:b5, 2015-01-01 00:16:42.810,0.119,0.047,1.043,13.062,36.316,-8.484, , , , , , ,1.983,-1.609,-103.689
 09:24:15.242,eb:33:2e:f9:57:b5, 2015-01-01 00:16:42.810,0.113,0.057,1.062,13.916,39.734,-9.705, , , , , , ,2.054,-1.417,-103.727
 09:24:15.242,eb:33:2e:f9:57:b5, 2015-01-01 00:16:42.810,0.112,0.045,1.087,14.954,44.312,-10.132, , , , , , ,2.126,-1.203,-103.771
 09:24:15.242,eb:33:2e:f9:57:b5, 2015-01-01 00:16:42.810,0.134,0.038,1.102,16.296,49.561,-9.766, , , , , , ,2.219,-0.956,-103.81
 09:24:15.242,eb:33:2e:f9:57:b5, 2015-01-01 00:16:42.810,0.14,0.036,1.122,17.883,54.565,-10.01, , , , , , ,2.307,-0.692,-103.854
 09:24:15.287,eb:33:2e:f9:57:b5, 2015-01-01 00:16:42.810,0.125,0.053,1.078,19.897,58.411,-10.62, , , , , , ,2.401,-0.406,-103.892
 09:24:15.287,eb:33:2e:f9:57:b5, 2015-01-01 00:16:42.810,0.094,0.071,1.03,21.362,60.303,-11.841, , , , , , ,2.505,-0.104,-103.936
 09:24:15.287,eb:33:2e:f9:57:b5, 2015-01-01 00:16:42.810,0.028,0.073,1.008,22.949,60.12,-13.306, , , , , , ,2.626,0.198,-103.986
 09:24:15.287,eb:33:2e:f9:57:b5, 2015-01-01 00:16:42.810,-0.044,0.071,0.993,24.353,58.777,-13.611, , , , , , ,2.747,0.494,-104.041
 09:24:15.287,eb:33:2e:f9:57:b5, 2015-01-01 00:16:42.810,-0.061,0.062,0.965,25.269,54.993,-12.085, , , , , , ,2.873,0.78,-104.09
 09:24:15.288,eb:33:2e:f9:57:b5, 2015-01-01 00:16:42.810,-0.082,0.03,1.048,27.161,51.208,-10.498, , , , , , ,3.005,1.049,-104.134
 09:24:15.288,eb:33:2e:f9:57:b5, 2015-01-01 00:16:42.810,-0.125,-0.017,1.173,30.701,49.377,-8.484, , , , , , ,3.159,1.302,-104.167
 09:24:15.288,eb:33:2e:f9:57:b5, 2015-01-01 00:16:42.810,-0.155,-0.077,1.197,37.231,46.57,-4.761, , , , , , ,3.329,1.549,-104.183
 09:24:15.333,eb:33:2e:f9:57:b5, 2015-01-01 00:16:42.810,-0.205,-0.026,1.104,43.03,39.307,-2.258, , , , , , ,3.532,1.758,-104.189
 09:24:15.333,eb:33:2e:f9:57:b5, 2015-01-01 00:16:42.810,-0.303,-0.01,1.064,47.913,30.64,-0.122, , , , , , ,3.763,1.928,-104.183
 09:24:15.333,eb:33:2e:f9:57:b5, 2015-01-01 00:16:42.810,-0.339,-0.043,1.072,53.406,20.02,3.662, , , , , , ,4.032,2.054,-104.167
 09:24:15.333,eb:33:2e:f9:57:b5, 2015-01-01 00:16:42.810,-0.363,-0.061,1.12,58.777,10.01,7.019, , , , , , ,4.318,2.12,-104.134
 09:24:15.333,eb:33:2e:f9:57:b5, 2015-01-01 00:16:42.810,-0.333,-0.085,1.159,64.575,1.038,11.292, , , , , , ,4.631,2.142,-104.084
 09:24:15.333,eb:33:2e:f9:57:b5, 2015-01-01 00:16:42.810,-0.244,-0.071,1.215,69.885,-7.141,14.832, , , , , , ,4.971,2.115,-104.019
 09:24:15.333,eb:33:2e:f9:57:b5, 2015-01-01 00:16:42.810,-0.22,-0.057,1.264,76.416,-14.038,16.968, , , , , , ,5.35,2.054,-103.942
 09:24:15.333,eb:33:2e:f9:57:b5, 2015-01-01 00:16:42.810,-0.214,-0.019,1.199,83.13,-22.644,18.372, , , , , , ,5.757,1.95,-103.859
 09:24:15.355,eb:33:2e:f9:57:b5, 2015-01-01 00:16:42.810,-0.215,-0.009,1.196,89.111,-31.189,19.531, , , , , , ,6.196,1.802,-103.782
 09:24:15.355,eb:33:2e:f9:57:b5, 2015-01-01 00:16:42.810,-0.183,-0.023,1.259,95.459,-38.086,20.996, , , , , , ,6.663,1.615,-103.7
 09:24:15.355,eb:33:2e:f9:57:b5, 2015-01-01 00:16:42.810,-0.124,-0.032,1.374,100.83,-41.138,22.217, , , , , , ,7.169,1.406,-103.618
 09:24:15.355,eb:33:2e:f9:57:b5, 2015-01-01 00:16:42.810,-0.012,-0.048,1.399,107.971,-42.786,23.376, , , , , , ,7.69,1.181,-103.53
 09:24:15.355,eb:33:2e:f9:57:b5, 2015-01-01 00:16:42.810,0.069,0.006,1.37,117.126,-45.593,21.973, , , , , , ,8.262,0.945,-103.447
 09:24:15.355,eb:33:2e:f9:57:b5, 2015-01-01 00:16:42.810,0.132,0.033,1.388,124.939,-47.058,19.348, , , , , , ,8.871,0.703,-103.381
 09:24:15.355,eb:33:2e:f9:57:b5, 2015-01-01 00:16:42.810,0.184,0.036,1.431,133.85,-47.058,16.235, , , , , , ,9.531,0.461,-103.332
 09:24:15.355,eb:33:2e:f9:57:b5, 2015-01-01 00:16:42.810,0.224,0.041,1.472,143.433,-45.166,12.512, , , , , , ,10.228,0.22,-103.304
 09:24:15.399,eb:33:2e:f9:57:b5, 2015-01-01 00:16:42.810,0.236,0.06,1.485,152.649,-41.443,8.85, , , , , , ,10.975,0,-103.293
 09:24:15.399,eb:33:2e:f9:57:b5, 2015-01-01 00:16:42.810,0.226,0.065,1.515,161.377,-37.17,4.639, , , , , , ,11.766,-0.192,-103.299
 09:24:15.399,eb:33:2e:f9:57:b5, 2015-01-01 00:16:42.810,0.204,0.053,1.54,170.166,-32.166,1.343, , , , , , ,12.607,-0.357,-103.321
 09:24:15.399,eb:33:2e:f9:57:b5, 2015-01-01 00:16:42.810,0.217,0.031,1.505,180.237,-30.09,-1.587, , , , , , ,13.491,-0.505,-103.359
 09:24:15.399,eb:33:2e:f9:57:b5, 2015-01-01 00:16:42.810,0.164,0.059,1.462,188.721,-27.405,-5.066, , , , , , ,14.414,-0.643,-103.414
 09:24:15.399,eb:33:2e:f9:57:b5, 2015-01-01 00:16:42.810,0.149,0.056,1.47,196.96,-26.245,-8.85, , , , , , ,15.386,-0.764,-103.486
 09:24:15.399,eb:33:2e:f9:57:b5, 2015-01-01 00:16:42.810,0.17,0.041,1.511,206.665,-25.391,-13.062, , , , , , ,16.408,-0.868,-103.574
 09:24:15.400,eb:33:2e:f9:57:b5, 2015-01-01 00:16:42.810,0.237,0.047,1.569,216.98,-22.461,-17.212, , , , , , ,17.474,-0.956,-103.683
 09:24:15.446,eb:33:2e:f9:57:b5, 2015-01-01 00:16:42.810,0.312,0.067,1.595,227.783,-19.104,-21.667, , , , , , ,18.594,-1.022,-103.81
 09:24:15.446,eb:33:2e:f9:57:b5, 2015-01-01 00:16:42.810,0.355,0.085,1.653,238.708,-16.479,-26.978, , , , , , ,19.764,-1.066,-103.958
 09:24:15.446,eb:33:2e:f9:57:b5, 2015-01-01 00:16:42.810,0.375,0.036,1.722,252.197,-11.536,-33.02, , , , , , ,21.011,-1.071,-104.123
 09:24:15.446,eb:33:2e:f9:57:b5, 2015-01-01 00:16:42.810,0.402,0.025,1.862,265.991,-3.723,-38.635, , , , , , ,22.313,-1.038,-104.31
 09:24:15.446,eb:33:2e:f9:57:b5, 2015-01-01 00:16:42.810,0.387,-0.046,1.994,282.043,5.432,-43.213, , , , , , ,23.698,-0.95,-104.496
 09:24:15.446,eb:33:2e:f9:57:b5, 2015-01-01 00:16:42.810,0.427,-0.012,2.112,297.791,11.658,-48.157, , , , , , ,25.159,-0.813,-104.689
 09:24:15.446,eb:33:2e:f9:57:b5, 2015-01-01 00:16:42.810,0.424,-0.052,2.271,315.735,19.165,-53.589, , , , , , ,26.702,-0.626,-104.881
 09:24:15.446,eb:33:2e:f9:57:b5, 2015-01-01 00:16:42.810,0.506,-0.074,2.404,335.571,26.794,-59.082, , , , , , ,28.345,-0.385,-105.079
 09:24:15.490,eb:33:2e:f9:57:b5, 2015-01-01 00:16:42.810,0.637,-0.016,2.533,355.225,33.63,-64.27, , , , , , ,30.081,-0.099,-105.276
 09:24:15.490,eb:33:2e:f9:57:b5, 2015-01-01 00:16:42.810,0.707,0.095,2.647,372.498,36.255,-71.533, , , , , , ,31.915,0.225,-105.474
 09:24:15.490,eb:33:2e:f9:57:b5, 2015-01-01 00:16:42.810,0.659,0.057,2.8,391.052,39.856,-79.224, , , , , , ,33.832,0.593,-105.694
 09:24:15.490,eb:33:2e:f9:57:b5, 2015-01-01 00:16:42.810,0.717,0.044,3.098,406.555,54.993,-85.693, , , , , , ,35.832,1.027,-105.903
 09:24:15.490,eb:33:2e:f9:57:b5, 2015-01-01 00:16:42.810,0.745,-0.152,3.23,421.448,75.623,-85.022, , , , , , ,37.908,1.549,-106.035
 09:24:15.490,eb:33:2e:f9:57:b5, 2015-01-01 00:16:42.810,0.833,-0.04,3.003,436.768,79.956,-92.529, , , , , , ,40.056,2.137,-106.133
 09:24:15.490,eb:33:2e:f9:57:b5, 2015-01-01 00:16:42.810,0.805,0.096,3.146,442.505,80.505,-103.21, , , , , , ,42.253,2.769,-106.249
 09:24:15.490,eb:33:2e:f9:57:b5, 2015-01-01 00:16:42.810,0.806,-0.229,3.282,455.383,95.825,-109.436, , , , , , ,44.495,3.461,-106.331
 09:24:15.536,eb:33:2e:f9:57:b5, 2015-01-01 00:16:42.810,0.872,-0.468,3.245,469.849,118.591,-112.488, , , , , , ,46.818,4.241,-106.32
 09:24:15.536,eb:33:2e:f9:57:b5, 2015-01-01 00:16:42.810,0.771,-0.563,3.102,483.154,140.32,-120.3, , , , , , ,49.213,5.114,-106.227
 09:24:15.536,eb:33:2e:f9:57:b5, 2015-01-01 00:16:42.810,0.655,-0.53,3.262,487.915,160.156,-127.441, , , , , , ,51.658,6.081,-106.04
 09:24:15.536,eb:33:2e:f9:57:b5, 2015-01-01 00:16:42.810,0.883,-0.458,3.303,500.061,175.415,-131.409, , , , , , ,54.168,7.108,-105.749
 09:24:15.536,eb:33:2e:f9:57:b5, 2015-01-01 00:16:42.810,1.149,-0.505,3.531,516.357,194.031,-138.123, , , , , , ,56.766,8.19,-105.364
 09:24:15.536,eb:33:2e:f9:57:b5, 2015-01-01 00:16:42.810,1.005,-0.961,3.636,523.743,239.136,-132.324, , , , , , ,59.458,9.349,-104.788
 09:24:15.536,eb:33:2e:f9:57:b5, 2015-01-01 00:16:42.810,0.962,-0.768,3.016,521.057,294.128,-118.286, , , , , , ,62.232,10.552,-103.881
 09:24:15.537,eb:33:2e:f9:57:b5, 2015-01-01 00:16:42.810,0.83,-0.853,1.918,487.61,317.505,-97.351, , , , , , ,64.973,11.717,-102.711
 09:24:15.557,eb:33:2e:f9:57:b5, 2015-01-01 00:16:43.165,0.859,-0.519,0.417,429.199,312.378,-74.158, , , , , , ,67.522,12.733,-101.393
 09:24:15.557,eb:33:2e:f9:57:b5, 2015-01-01 00:16:43.165,0.76,-0.781,-0.32,364.746,289.856,-63.843, , , , , , ,69.769,13.585,-100.091
 09:24:15.557,eb:33:2e:f9:57:b5, 2015-01-01 00:16:43.165,0.757,-0.772,-0.23,316.101,249.817,-56.946, , , , , , ,71.713,14.31,-98.899
 09:24:15.557,eb:33:2e:f9:57:b5, 2015-01-01 00:16:43.165,0.796,-1.072,-0.267,279.297,199.219,-44.922, , , , , , ,73.438,14.881,-97.888
 09:24:15.557,eb:33:2e:f9:57:b5, 2015-01-01 00:16:43.165,0.227,-2.433,-1.553,208.069,120.178,-40.527, , , , , , ,74.828,15.287,-97.163
 09:24:15.558,eb:33:2e:f9:57:b5, 2015-01-01 00:16:43.165,0.49,-0.619,-2.79,74.646,17.395,-53.711, , , , , , ,75.553,15.617,-96.954
 09:24:15.558,eb:33:2e:f9:57:b5, 2015-01-01 00:16:43.165,0.413,0.638,-1.42,-87.952,-18.677,-45.776, , , , , , ,75.383,15.837,-97.059
 09:24:15.558,eb:33:2e:f9:57:b5, 2015-01-01 00:16:43.165,0.466,0.084,0.018,-193.481,-43.03,-37.292, , , , , , ,74.542,15.991,-97.289
 09:24:15.603,eb:33:2e:f9:57:b5, 2015-01-01 00:16:43.165,0.822,-0.797,0.998,-246.338,-47.302,-27.161, , , , , , ,73.317,16.078,-97.564
 09:24:15.603,eb:33:2e:f9:57:b5, 2015-01-01 00:16:43.165,0.707,-1.693,1.735,-265.076,0,-15.076, , , , , , ,71.982,16.139,-97.707
 09:24:15.603,eb:33:2e:f9:57:b5, 2015-01-01 00:16:43.165,0.739,-1.841,1.547,-273.132,38.391,-4.883, , , , , , ,70.648,16.221,-97.597
 09:24:15.603,eb:33:2e:f9:57:b5, 2015-01-01 00:16:43.165,0.75,-1.671,1.509,-271.057,62.866,1.587, , , , , , ,69.357,16.315,-97.344
 09:24:15.603,eb:33:2e:f9:57:b5, 2015-01-01 00:16:43.165,0.606,-1.377,1.437,-255.615,84.961,1.038, , , , , , ,68.148,16.447,-96.96
 09:24:15.603,eb:33:2e:f9:57:b5, 2015-01-01 00:16:43.165,0.585,-1.102,1.13,-237.61,91.187,-1.709, , , , , , ,67.05,16.622,-96.526
 09:24:15.603,eb:33:2e:f9:57:b5, 2015-01-01 00:16:43.165,0.56,-0.947,0.776,-225.281,87.585,-3.906, , , , , , ,66.006,16.815,-96.114
 09:24:15.604,eb:33:2e:f9:57:b5, 2015-01-01 00:16:43.165,0.537,-0.882,0.356,-219.666,74.036,-5.249, , , , , , ,65.006,17.001,-95.74
 09:24:15.647,eb:33:2e:f9:57:b5, 2015-01-01 00:16:43.165,0.524,-0.839,0.006,-220.215,49.744,-6.287, , , , , , ,63.984,17.155,-95.466
 09:24:15.647,eb:33:2e:f9:57:b5, 2015-01-01 00:16:43.165,0.478,-0.788,-0.195,-227.661,19.897,-6.775, , , , , , ,62.908,17.26,-95.328
 09:24:15.647,eb:33:2e:f9:57:b5, 2015-01-01 00:16:43.165,0.429,-0.747,-0.287,-241.272,-12.024,-5.798, , , , , , ,61.71,17.287,-95.35
