Time,Device name,Chip Time(),Acceleration X(g),Acceleration Y(g),Acceleration Z(g),Angular velocity X(°/s),Angular velocity Y(°/s),Angular velocity Z(°/s),ShiftX(mm),ShiftY(mm),ShiftZ(mm),SpeedX(mm/s),SpeedY(mm/s),SpeedZ(mm/s),Angle X(°),Angle Y(°),Angle Z(°)
 09:19:03.677,eb:33:2e:f9:57:b5, 2015-01-01 00:11:33.210,0.42,-0.719,0.178,-90.271,41.748,-31.25, , , , , , ,61.078,16.348,-103.645
 09:19:03.677,eb:33:2e:f9:57:b5, 2015-01-01 00:11:33.210,0.399,-0.717,0.059,-97.595,29.602,-33.203, , , , , , ,60.628,16.573,-103.574
 09:19:03.679,eb:33:2e:f9:57:b5, 2015-01-01 00:11:33.210,0.368,-0.689,0.047,-108.276,17.273,-34.546, , , , , , ,60.112,16.776,-103.557
 09:19:03.679,eb:33:2e:f9:57:b5, 2015-01-01 00:11:33.210,0.334,-0.681,0.059,-121.704,6.165,-34.302, , , , , , ,59.518,16.952,-103.601
 09:19:03.679,eb:33:2e:f9:57:b5, 2015-01-01 00:11:33.210,0.305,-0.702,0.056,-137.634,-3.174,-32.227, , , , , , ,58.826,17.095,-103.694
 09:19:03.679,eb:33:2e:f9:57:b5, 2015-01-01 00:11:33.210,0.289,-0.723,0.043,-156.067,-11.169,-28.931, , , , , , ,58.046,17.205,-103.815
 09:19:03.679,eb:33:2e:f9:57:b5, 2015-01-01 00:11:33.210,0.288,-0.733,0.057,-175.598,-18.066,-24.78, , , , , , ,57.167,17.276,-103.953
 09:19:03.679,eb:33:2e:f9:57:b5, 2015-01-01 00:11:33.210,0.285,-0.731,0.098,-194.885,-23.804,-20.264, , , , , , ,56.184,17.303,-104.112
 09:19:03.679,eb:33:2e:f9:57:b5, 2015-01-01 00:11:33.210,0.282,-0.719,0.139,-212.769,-29.175,-15.564, , , , , , ,55.091,17.298,-104.293
 09:19:03.679,eb:33:2e:f9:57:b5, 2015-01-01 00:11:33.210,0.283,-0.701,0.181,-228.821,-34.424,-10.681, , , , , , ,53.926,17.254,-104.469
 09:19:03.699,eb:33:2e:f9:57:b5, 2015-01-01 00:11:33.210,0.287,-0.682,0.237,-242.493,-39.551,-5.92, , , , , , ,52.685,17.177,-104.645
 09:19:03.700,eb:33:2e:f9:57:b5, 2015-01-01 00:11:33.210,0.291,-0.647,0.292,-253.601,-44.556,-1.282, , , , , , ,51.383,17.056,-104.832
 09:19:03.700,eb:33:2e:f9:57:b5, 2015-01-01 00:11:33.210,0.285,-0.6,0.339,-262.207,-49.805,3.052, , , , , , ,50.021,16.897,-105.029
 09:19:03.700,eb:33:2e:f9:57:b5, 2015-01-01 00:11:33.210,0.284,-0.546,0.382,-268.311,-55.969,7.202, , , , , , ,48.636,16.699,-105.222
 09:19:03.700,eb:33:2e:f9:57:b5, 2015-01-01 00:11:33.210,0.284,-0.499,0.436,-272.339,-62.744,10.925, , , , , , ,47.225,16.463,-105.419
 09:19:03.700,eb:33:2e:f9:57:b5, 2015-01-01 00:11:33.210,0.276,-0.461,0.469,-275.146,-69.946,14.709, , , , , , ,45.797,16.183,-105.628
 09:19:03.700,eb:33:2e:f9:57:b5, 2015-01-01 00:11:33.210,0.267,-0.432,0.486,-277.893,-77.576,18.738, , , , , , ,44.341,15.859,-105.848
 09:19:03.700,eb:33:2e:f9:57:b5, 2015-01-01 00:11:33.210,0.262,-0.407,0.519,-280.762,-85.205,23.071, , , , , , ,42.885,15.485,-106.062
 09:19:03.790,eb:33:2e:f9:57:b5, 2015-01-01 00:11:33.210,0.254,-0.385,0.576,-283.508,-92.468,27.771, , , , , , ,41.413,15.068,-106.271
 09:19:03.790,eb:33:2e:f9:57:b5, 2015-01-01 00:11:33.210,0.244,-0.356,0.644,-286.499,-99.304,32.593, , , , , , ,39.935,14.601,-106.474
 09:19:03.790,eb:33:2e:f9:57:b5, 2015-01-01 00:11:33.210,0.241,-0.318,0.708,-289.978,-106.079,37.476, , , , , , ,38.43,14.079,-106.677
 09:19:03.790,eb:33:2e:f9:57:b5, 2015-01-01 00:11:33.210,0.243,-0.273,0.775,-293.945,-112.427,42.053, , , , , , ,36.925,13.524,-106.864
 09:19:03.790,eb:33:2e:f9:57:b5, 2015-01-01 00:11:33.210,0.249,-0.228,0.839,-298.218,-118.774,45.837, , , , , , ,35.403,12.92,-107.029
 09:19:03.790,eb:33:2e:f9:57:b5, 2015-01-01 00:11:33.210,0.263,-0.184,0.897,-302.246,-125.183,48.95, , , , , , ,33.865,12.283,-107.183
 09:19:03.790,eb:33:2e:f9:57:b5, 2015-01-01 00:11:33.210,0.271,-0.141,0.968,-305.42,-131.104,51.086, , , , , , ,32.3,11.602,-107.336
 09:19:03.790,eb:33:2e:f9:57:b5, 2015-01-01 00:11:33.210,0.272,-0.089,1.042,-307.373,-136.475,52.063, , , , , , ,30.74,10.893,-107.468
 09:19:03.791,eb:33:2e:f9:57:b5, 2015-01-01 00:11:33.210,0.277,-0.032,1.113,-307.617,-141.846,51.941, , , , , , ,29.18,10.157,-107.595
 09:19:03.791,eb:33:2e:f9:57:b5, 2015-01-01 00:11:33.210,0.283,0.021,1.191,-306.274,-146.545,50.781, , , , , , ,27.625,9.393,-107.715
 09:19:03.792,eb:33:2e:f9:57:b5, 2015-01-01 00:11:33.210,0.266,0.085,1.278,-303.284,-151.55,48.401, , , , , , ,26.065,8.608,-107.842
 09:19:03.792,eb:33:2e:f9:57:b5, 2015-01-01 00:11:33.210,0.251,0.13,1.342,-300.415,-154.602,46.204, , , , , , ,24.543,7.817,-107.957
 09:19:03.792,eb:33:2e:f9:57:b5, 2015-01-01 00:11:33.210,0.235,0.154,1.429,-297.607,-155.029,44.25, , , , , , ,23.033,7.015,-108.062
 09:19:03.792,eb:33:2e:f9:57:b5, 2015-01-01 00:11:33.210,0.215,0.169,1.526,-295.044,-152.832,42.786, , , , , , ,21.544,6.218,-108.155
 09:19:03.792,eb:33:2e:f9:57:b5, 2015-01-01 00:11:33.210,0.189,0.186,1.604,-293.152,-148.743,41.687, , , , , , ,20.05,5.433,-108.232
 09:19:03.792,eb:33:2e:f9:57:b5, 2015-01-01 00:11:33.210,0.18,0.202,1.655,-292.053,-144.043,40.894, , , , , , ,18.583,4.675,-108.281
 09:19:03.834,eb:33:2e:f9:57:b5, 2015-01-01 00:11:33.570,0.185,0.222,1.695,-291.687,-139.038,40.222, , , , , , ,17.122,3.944,-108.303
 09:19:03.834,eb:33:2e:f9:57:b5, 2015-01-01 00:11:33.570,0.194,0.252,1.72,-291.809,-134.644,39.062, , , , , , ,15.667,3.23,-108.303
 09:19:03.834,eb:33:2e:f9:57:b5, 2015-01-01 00:11:33.570,0.213,0.287,1.726,-291.565,-131.836,37.231, , , , , , ,14.194,2.532,-108.298
 09:19:03.834,eb:33:2e:f9:57:b5, 2015-01-01 00:11:33.570,0.234,0.323,1.73,-290.283,-130.615,34.607, , , , , , ,12.739,1.857,-108.276
 09:19:03.834,eb:33:2e:f9:57:b5, 2015-01-01 00:11:33.570,0.248,0.357,1.743,-287.781,-130.737,31.311, , , , , , ,11.294,1.181,-108.254
 09:19:03.834,eb:33:2e:f9:57:b5, 2015-01-01 00:11:33.570,0.27,0.385,1.754,-284.363,-131.714,27.71, , , , , , ,9.866,0.511,-108.232
 09:19:03.834,eb:33:2e:f9:57:b5, 2015-01-01 00:11:33.570,0.286,0.405,1.786,-280.518,-132.141,23.987, , , , , , ,8.438,-0.165,-108.215
 09:19:03.834,eb:33:2e:f9:57:b5, 2015-01-01 00:11:33.570,0.294,0.426,1.821,-276.367,-132.019,20.264, , , , , , ,7.048,-0.835,-108.199
 09:19:03.878,eb:33:2e:f9:57:b5, 2015-01-01 00:11:33.570,0.304,0.451,1.846,-272.217,-131.653,16.602, , , , , , ,5.68,-1.5,-108.177
 09:19:03.878,eb:33:2e:f9:57:b5, 2015-01-01 00:11:33.570,0.313,0.477,1.866,-268.066,-131.226,12.939, , , , , , ,4.329,-2.164,-108.166
 09:19:03.878,eb:33:2e:f9:57:b5, 2015-01-01 00:11:33.570,0.321,0.506,1.881,-263.977,-131.226,9.399, , , , , , ,2.988,-2.829,-108.155
 09:19:03.878,eb:33:2e:f9:57:b5, 2015-01-01 00:11:33.570,0.326,0.533,1.894,-259.888,-131.531,5.798, , , , , , ,1.675,-3.488,-108.149
 09:19:03.878,eb:33:2e:f9:57:b5, 2015-01-01 00:11:33.570,0.332,0.559,1.905,-255.737,-132.263,2.075, , , , , , ,0.39,-4.147,-108.144
 09:19:03.878,eb:33:2e:f9:57:b5, 2015-01-01 00:11:33.570,0.332,0.592,1.917,-251.343,-133.423,-1.892, , , , , , ,-0.868,-4.812,-108.138
 09:19:03.878,eb:33:2e:f9:57:b5, 2015-01-01 00:11:33.570,0.3,0.635,1.929,-246.582,-134.949,-6.226, , , , , , ,-2.126,-5.493,-108.149
 09:19:03.878,eb:33:2e:f9:57:b5, 2015-01-01 00:11:33.570,0.254,0.671,1.917,-241.455,-137.573,-10.498, , , , , , ,-3.345,-6.174,-108.16
 09:19:03.946,eb:33:2e:f9:57:b5, 2015-01-01 00:11:33.570,0.189,0.653,1.928,-236.816,-140.808,-14.282, , , , , , ,-4.537,-6.877,-108.177
 09:19:03.946,eb:33:2e:f9:57:b5, 2015-01-01 00:11:33.570,0.136,0.667,1.929,-233.276,-143.738,-17.883, , , , , , ,-5.707,-7.597,-108.193
 09:19:03.946,eb:33:2e:f9:57:b5, 2015-01-01 00:11:33.570,0.051,0.711,1.917,-231.018,-147.522,-20.874, , , , , , ,-6.877,-8.339,-108.215
 09:19:03.946,eb:33:2e:f9:57:b5, 2015-01-01 00:11:33.570,-0.055,0.731,1.889,-229.553,-153.137,-23.682, , , , , , ,-8.026,-9.102,-108.232
 09:19:03.946,eb:33:2e:f9:57:b5, 2015-01-01 00:11:33.570,-0.15,0.703,1.857,-228.149,-159.607,-25.757, , , , , , ,-9.168,-9.899,-108.237
 09:19:03.946,eb:33:2e:f9:57:b5, 2015-01-01 00:11:33.570,-0.253,0.662,1.86,-226.624,-164.551,-26.123, , , , , , ,-10.305,-10.723,-108.226
 09:19:03.946,eb:33:2e:f9:57:b5, 2015-01-01 00:11:33.570,-0.376,0.631,1.906,-224.915,-166.504,-24.78, , , , , , ,-11.453,-11.574,-108.199
 09:19:03.946,eb:33:2e:f9:57:b5, 2015-01-01 00:11:33.570,-0.501,0.604,1.966,-223.022,-164.673,-21.545, , , , , , ,-12.585,-12.409,-108.138
 09:19:03.948,eb:33:2e:f9:57:b5, 2015-01-01 00:11:33.570,-0.611,0.577,2.036,-220.459,-158.02,-15.93, , , , , , ,-13.711,-13.211,-108.04
 09:19:03.948,eb:33:2e:f9:57:b5, 2015-01-01 00:11:33.570,-0.721,0.566,2.115,-217.59,-145.813,-7.568, , , , , , ,-14.837,-13.958,-107.908
 09:19:03.948,eb:33:2e:f9:57:b5, 2015-01-01 00:11:33.570,-0.804,0.572,2.177,-213.684,-128.845,3.296, , , , , , ,-15.974,-14.623,-107.726
 09:19:03.948,eb:33:2e:f9:57:b5, 2015-01-01 00:11:33.570,-0.821,0.609,2.232,-207.214,-103.516,18.921, , , , , , ,-17.084,-15.156,-107.496
 09:19:03.948,eb:33:2e:f9:57:b5, 2015-01-01 00:11:33.570,-0.797,0.682,2.228,-200.439,-81.177,32.776, , , , , , ,-18.171,-15.546,-107.221
 09:19:03.949,eb:33:2e:f9:57:b5, 2015-01-01 00:11:33.570,-0.739,0.783,2.164,-192.139,-60.364,46.204, , , , , , ,-19.237,-15.804,-106.908
 09:19:03.949,eb:33:2e:f9:57:b5, 2015-01-01 00:11:33.570,-0.673,0.896,2.058,-181.702,-43.091,57.922, , , , , , ,-20.275,-15.952,-106.556
 09:19:03.949,eb:33:2e:f9:57:b5, 2015-01-01 00:11:33.570,-0.625,1.018,1.911,-168.762,-31.25,67.2, , , , , , ,-21.248,-16.007,-106.183
 09:19:03.992,eb:33:2e:f9:57:b5, 2015-01-01 00:11:33.570,-0.612,1.147,1.732,-153.992,-26.367,73.914, , , , , , ,-22.159,-16.002,-105.782
 09:19:03.992,eb:33:2e:f9:57:b5, 2015-01-01 00:11:33.570,-0.625,1.272,1.549,-137.939,-28.198,78.369, , , , , , ,-22.994,-15.98,-105.359
 09:19:03.992,eb:33:2e:f9:57:b5, 2015-01-01 00:11:33.570,-0.653,1.382,1.41,-121.094,-34.912,81.177, , , , , , ,-23.769,-15.969,-104.914
 09:19:03.992,eb:33:2e:f9:57:b5, 2015-01-01 00:11:33.570,-0.689,1.464,1.345,-104.004,-42.603,83.069, , , , , , ,-24.456,-15.985,-104.436
 09:19:03.992,eb:33:2e:f9:57:b5, 2015-01-01 00:11:33.570,-0.732,1.525,1.355,-87.036,-47.058,84.595, , , , , , ,-25.06,-16.018,-103.942
 09:19:03.992,eb:33:2e:f9:57:b5, 2015-01-01 00:11:33.570,-0.762,1.572,1.414,-70.435,-46.387,85.632, , , , , , ,-25.582,-16.046,-103.436
 09:19:03.992,eb:33:2e:f9:57:b5, 2015-01-01 00:11:33.570,-0.772,1.608,1.491,-53.833,-40.222,86.06, , , , , , ,-26.032,-16.057,-102.936
 09:19:03.992,eb:33:2e:f9:57:b5, 2015-01-01 00:11:33.570,-0.757,1.643,1.547,-37.109,-29.907,85.205, , , , , , ,-26.384,-16.024,-102.453
 09:19:04.059,eb:33:2e:f9:57:b5, 2015-01-01 00:11:33.570,-0.712,1.682,1.564,-20.264,-17.761,82.397, , , , , , ,-26.642,-15.936,-102.014
 09:19:04.059,eb:33:2e:f9:57:b5, 2015-01-01 00:11:33.570,-0.646,1.721,1.552,-4.15,-5.737,76.782, , , , , , ,-26.801,-15.804,-101.624
 09:19:04.059,eb:33:2e:f9:57:b5, 2015-01-01 00:11:33.570,-0.572,1.752,1.537,10.315,5.432,68.359, , , , , , ,-26.873,-15.639,-101.288
 09:19:04.059,eb:33:2e:f9:57:b5, 2015-01-01 00:11:33.570,-0.492,1.758,1.535,22.949,16.968,57.556, , , , , , ,-26.851,-15.447,-101.03
 09:19:04.059,eb:33:2e:f9:57:b5, 2015-01-01 00:11:33.570,-0.414,1.741,1.542,33.875,29.663,44.861, , , , , , ,-26.746,-15.222,-100.86
 09:19:04.059,eb:33:2e:f9:57:b5, 2015-01-01 00:11:33.570,-0.335,1.707,1.53,42.847,43.213,31.25, , , , , , ,-26.57,-14.974,-100.778
 09:19:04.059,eb:33:2e:f9:57:b5, 2015-01-01 00:11:33.570,-0.263,1.65,1.498,50.72,55.969,16.785, , , , , , ,-26.334,-14.694,-100.789
 09:19:04.059,eb:33:2e:f9:57:b5, 2015-01-01 00:11:33.570,-0.192,1.593,1.436,57.617,65.43,1.648, , , , , , ,-26.032,-14.398,-100.893
 09:19:04.082,eb:33:2e:f9:57:b5, 2015-01-01 00:11:33.570,-0.113,1.527,1.367,63.721,71.289,-13.733, , , , , , ,-25.681,-14.101,-101.085
 09:19:04.082,eb:33:2e:f9:57:b5, 2015-01-01 00:11:33.570,-0.035,1.446,1.331,69.519,75.012,-29.175, , , , , , ,-25.274,-13.821,-101.36
 09:19:04.082,eb:33:2e:f9:57:b5, 2015-01-01 00:11:33.570,1.472,1.352,1.309,89.478,53.833,-45.654, , , , , , ,-24.818,-13.579,-101.695
 09:19:04.082,eb:33:2e:f9:57:b5, 2015-01-01 00:11:33.570,0.534,-0.124,7.667,193.665,114.502,-102.173, , , , , , ,-23.857,-13.53,-102.2
 09:19:04.082,eb:33:2e:f9:57:b5, 2015-01-01 00:11:33.570,1.383,-0.54,1.612,197.021,84.229,-130.249, , , , , , ,-22.709,-13.228,-102.964
 09:19:04.082,eb:33:2e:f9:57:b5, 2015-01-01 00:11:33.570,0.552,-0.772,1.458,205.322,121.094,-139.16, , , , , , ,-21.5,-13.03,-103.815
 09:19:04.082,eb:33:2e:f9:57:b5, 2015-01-01 00:11:33.570,0.343,-0.625,1.16,213.562,130.249,-128.784, , , , , , ,-20.253,-12.667,-104.683
 09:19:04.082,eb:33:2e:f9:57:b5, 2015-01-01 00:11:33.570,-0.094,-1.328,0.995,237.671,141.052,-99.304, , , , , , ,-18.951,-12.195,-105.469
 09:19:04.104,eb:33:2e:f9:57:b5, 2015-01-01 00:11:33.570,-0.2,-1.142,0.721,264.954,123.413,-70.984, , , , , , ,-17.556,-11.7,-106.073
 09:19:04.104,eb:33:2e:f9:57:b5, 2015-01-01 00:11:33.570,-0.266,-1.225,0.702,290.344,103.638,-49.133, , , , , , ,-16.062,-11.245,-106.518
 09:19:04.104,eb:33:2e:f9:57:b5, 2015-01-01 00:11:33.570,-0.22,-0.591,0.869,298.645,87.769,-35.706, , , , , , ,-14.513,-10.844,-106.842
 09:19:04.104,eb:33:2e:f9:57:b5, 2015-01-01 00:11:33.570,-0.149,0.005,0.986,285.583,73.486,-29.541, , , , , , ,-13.002,-10.503,-107.095
 09:19:04.104,eb:33:2e:f9:57:b5, 2015-01-01 00:11:33.570,-0.104,0.357,1.168,260.681,65.491,-26.55, , , , , , ,-11.607,-10.195,-107.303
 09:19:04.104,eb:33:2e:f9:57:b5, 2015-01-01 00:11:33.570,-0.223,0.536,1.173,223.816,58.044,-29.48, , , , , , ,-10.377,-9.921,-107.507
 09:19:04.104,eb:33:2e:f9:57:b5, 2015-01-01 00:11:33.570,-0.142,0.504,1.06,194.458,43.64,-38.696, , , , , , ,-9.311,-9.701,-107.721
 09:19:04.104,eb:33:2e:f9:57:b5, 2015-01-01 00:11:33.570,-0.083,0.423,1.073,168.945,26.917,-49.866, , , , , , ,-8.377,-9.575,-107.974
 09:19:04.172,eb:33:2e:f9:57:b5, 2015-01-01 00:11:33.950,-0.035,0.336,1.128,148.193,16.846,-58.777, , , , , , ,-7.548,-9.509,-108.27
 09:19:04.172,eb:33:2e:f9:57:b5, 2015-01-01 00:11:33.950,-0.044,0.194,1.073,134.46,10.315,-66.772, , , , , , ,-6.795,-9.487,-108.6
 09:19:04.172,eb:33:2e:f9:57:b5, 2015-01-01 00:11:33.950,-0.007,0.121,1.068,123.962,6.287,-69.702, , , , , , ,-6.097,-9.487,-108.951
 09:19:04.173,eb:33:2e:f9:57:b5, 2015-01-01 00:11:33.950,0.119,0.097,1.149,112.305,2.625,-65.552, , , , , , ,-5.455,-9.503,-109.292
 09:19:04.173,eb:33:2e:f9:57:b5, 2015-01-01 00:11:33.950,0.122,0.021,1.07,103.394,6.531,-56.885, , , , , , ,-4.867,-9.509,-109.605
 09:19:04.173,eb:33:2e:f9:57:b5, 2015-01-01 00:11:33.950,0.132,0.084,1.061,92.59,9.827,-44.678, , , , , , ,-4.34,-9.487,-109.858
 09:19:04.173,eb:33:2e:f9:57:b5, 2015-01-01 00:11:33.950,0.155,0.102,1.029,81.116,11.23,-32.471, , , , , , ,-3.878,-9.443,-110.05
 09:19:04.173,eb:33:2e:f9:57:b5, 2015-01-01 00:11:33.950,0.173,0.081,1.021,71.838,12.756,-22.888, , , , , , ,-3.483,-9.393,-110.187
 09:19:04.216,eb:33:2e:f9:57:b5, 2015-01-01 00:11:33.950,0.205,0.105,1.044,62.927,14.587,-16.052, , , , , , ,-3.131,-9.327,-110.286
 09:19:04.216,eb:33:2e:f9:57:b5, 2015-01-01 00:11:33.950,0.228,0.128,1.041,53.162,16.235,-11.475, , , , , , ,-2.834,-9.256,-110.358
 09:19:04.216,eb:33:2e:f9:57:b5, 2015-01-01 00:11:33.950,0.224,0.117,1.034,44.922,18.433,-8.301, , , , , , ,-2.582,-9.168,-110.407
 09:19:04.216,eb:33:2e:f9:57:b5, 2015-01-01 00:11:33.950,0.184,0.071,1.011,39.062,20.081,-5.249, , , , , , ,-2.373,-9.075,-110.446
 09:19:04.216,eb:33:2e:f9:57:b5, 2015-01-01 00:11:33.950,0.148,0.006,1,36.377,20.203,-1.709, , , , , , ,-2.181,-8.976,-110.468
 09:19:04.216,eb:33:2e:f9:57:b5, 2015-01-01 00:11:33.950,0.17,0.001,1.006,34.241,19.043,2.014, , , , , , ,-2.005,-8.877,-110.468
 09:19:04.217,eb:33:2e:f9:57:b5, 2015-01-01 00:11:33.950,0.15,-0.019,1.03,33.264,18.86,4.272, , , , , , ,-1.84,-8.778,-110.451
 09:19:04.217,eb:33:2e:f9:57:b5, 2015-01-01 00:11:33.950,0.125,-0.019,1.026,31.982,17.212,5.798, , , , , , ,-1.675,-8.69,-110.429
 09:19:04.238,eb:33:2e:f9:57:b5, 2015-01-01 00:11:33.950,0.105,-0.017,1.018,30.762,15.442,7.141, , , , , , ,-1.527,-8.608,-110.396
 09:19:04.238,eb:33:2e:f9:57:b5, 2015-01-01 00:11:33.950,0.096,0.015,0.996,28.992,11.963,7.019, , , , , , ,-1.384,-8.542,-110.363
 09:19:04.239,eb:33:2e:f9:57:b5, 2015-01-01 00:11:33.950,0.078,0.002,1.002,28.198,9.705,6.592, , , , , , ,-1.241,-8.487,-110.33
 09:19:04.239,eb:33:2e:f9:57:b5, 2015-01-01 00:11:33.950,0.104,0.017,0.984,27.161,7.141,5.005, , , , , , ,-1.11,-8.448,-110.303
 09:19:04.239,eb:33:2e:f9:57:b5, 2015-01-01 00:11:33.950,0.097,0.009,0.979,26.367,5.188,3.052, , , , , , ,-0.978,-8.416,-110.281
 09:19:04.239,eb:33:2e:f9:57:b5, 2015-01-01 00:11:33.950,0.095,0.005,0.968,25.635,3.052,1.526, , , , , , ,-0.851,-8.399,-110.27
 09:19:04.239,eb:33:2e:f9:57:b5, 2015-01-01 00:11:33.950,0.091,0.012,0.973,24.536,1.16,0.793, , , , , , ,-0.725,-8.388,-110.264
 09:19:04.239,eb:33:2e:f9:57:b5, 2015-01-01 00:11:33.950,0.078,0.011,0.975,23.56,-0.916,0.183, , , , , , ,-0.604,-8.388,-110.264
 09:19:04.283,eb:33:2e:f9:57:b5, 2015-01-01 00:11:33.950,0.105,0.019,0.965,22.156,-3.906,-0.549, , , , , , ,-0.489,-8.405,-110.264
 09:19:04.283,eb:33:2e:f9:57:b5, 2015-01-01 00:11:33.950,0.131,0.031,0.974,20.63,-6.104,-1.77, , , , , , ,-0.385,-8.432,-110.27
 09:19:04.283,eb:33:2e:f9:57:b5, 2015-01-01 00:11:33.950,0.156,0.032,0.988,19.226,-7.507,-2.625, , , , , , ,-0.28,-8.465,-110.281
 09:19:04.283,eb:33:2e:f9:57:b5, 2015-01-01 00:11:33.950,0.173,0.031,0.997,17.944,-7.507,-3.296, , , , , , ,-0.187,-8.503,-110.297
 09:19:04.283,eb:33:2e:f9:57:b5, 2015-01-01 00:11:33.950,0.171,0.03,1,16.724,-6.775,-3.906, , , , , , ,-0.099,-8.542,-110.319
 09:19:04.284,eb:33:2e:f9:57:b5, 2015-01-01 00:11:33.950,0.22,0.033,0.991,15.503,-5.615,-4.028, , , , , , ,-0.016,-8.569,-110.336
 09:19:04.284,eb:33:2e:f9:57:b5, 2015-01-01 00:11:33.950,0.215,0.029,1.01,14.16,-2.747,-4.211, , , , , , ,0.06,-8.591,-110.358
 09:19:04.284,eb:33:2e:f9:57:b5, 2015-01-01 00:11:33.950,0.187,0.03,1.003,13.062,-0.244,-4.028, , , , , , ,0.132,-8.597,-110.38
 09:19:04.351,eb:33:2e:f9:57:b5, 2015-01-01 00:11:33.950,0.159,0.032,0.991,11.78,1.648,-3.601, , , , , , ,0.192,-8.591,-110.396
 09:19:04.351,eb:33:2e:f9:57:b5, 2015-01-01 00:11:33.950,0.139,0.028,0.979,10.62,2.686,-3.113, , , , , , ,0.253,-8.58,-110.413
 09:19:04.351,eb:33:2e:f9:57:b5, 2015-01-01 00:11:33.950,0.133,0.022,0.968,9.705,2.808,-2.808, , , , , , ,0.308,-8.569,-110.429
 09:19:04.351,eb:33:2e:f9:57:b5, 2015-01-01 00:11:33.950,0.13,0.013,0.973,9.216,2.563,-2.686, , , , , , ,0.357,-8.553,-110.446
 09:19:04.351,eb:33:2e:f9:57:b5, 2015-01-01 00:11:33.950,0.128,0,0.983,9.399,2.502,-2.686, , , , , , ,0.406,-8.542,-110.457
 09:19:04.351,eb:33:2e:f9:57:b5, 2015-01-01 00:11:33.950,0.127,-0.007,0.987,10.01,2.38,-2.747, , , , , , ,0.456,-8.531,-110.473
 09:19:04.351,eb:33:2e:f9:57:b5, 2015-01-01 00:11:33.950,0.125,-0.009,0.987,10.62,2.441,-2.808, , , , , , ,0.511,-8.514,-110.484
 09:19:04.351,eb:33:2e:f9:57:b5, 2015-01-01 00:11:33.950,0.134,-0.005,0.986,11.353,2.319,-2.747, , , , , , ,0.571,-8.503,-110.5
 09:19:04.353,eb:33:2e:f9:57:b5, 2015-01-01 00:11:33.950,0.148,0,0.989,11.902,2.869,-2.93, , , , , , ,0.632,-8.492,-110.511
 09:19:04.353,eb:33:2e:f9:57:b5, 2015-01-01 00:11:33.950,0.153,0.002,0.993,12.146,4.15,-2.869, , , , , , ,0.692,-8.476,-110.528
 09:19:04.353,eb:33:2e:f9:57:b5, 2015-01-01 00:11:33.950,0.16,0.009,0.997,12.268,5.676,-2.441, , , , , , ,0.758,-8.448,-110.539
 09:19:04.353,eb:33:2e:f9:57:b5, 2015-01-01 00:11:33.950,0.155,0.021,0.989,11.841,7.324,-2.075, , , , , , ,0.818,-8.416,-110.55
 09:19:04.353,eb:33:2e:f9:57:b5, 2015-01-01 00:11:33.950,0.159,0.026,0.987,11.353,8.972,-1.465, , , , , , ,0.879,-8.377,-110.561
 09:19:04.353,eb:33:2e:f9:57:b5, 2015-01-01 00:11:33.950,0.17,0.026,0.991,10.803,10.864,-1.038, , , , , , ,0.934,-8.328,-110.566
 09:19:04.353,eb:33:2e:f9:57:b5, 2015-01-01 00:11:33.950,0.18,0.029,0.992,10.315,13.428,-0.671, , , , , , ,0.989,-8.262,-110.566
 09:19:04.353,eb:33:2e:f9:57:b5, 2015-01-01 00:11:33.950,0.179,0.032,0.996,9.644,16.418,-0.427, , , , , , ,1.038,-8.185,-110.572
 09:19:04.419,eb:33:2e:f9:57:b5, 2015-01-01 00:11:33.950,0.17,0.037,0.99,8.85,19.714,-0.366, , , , , , ,1.088,-8.097,-110.566
 09:19:04.419,eb:33:2e:f9:57:b5, 2015-01-01 00:11:33.950,0.172,0.028,0.989,8.545,22.644,0.061, , , , , , ,1.126,-7.987,-110.566
 09:19:04.419,eb:33:2e:f9:57:b5, 2015-01-01 00:11:33.950,0.174,0.027,0.996,8.179,25.879,0.61, , , , , , ,1.17,-7.866,-110.561
 09:19:04.419,eb:33:2e:f9:57:b5, 2015-01-01 00:11:33.950,0.167,0.029,1.001,7.935,29.114,1.16, , , , , , ,1.208,-7.729,-110.555
 09:19:04.419,eb:33:2e:f9:57:b5, 2015-01-01 00:11:33.950,0.154,0.028,1,7.629,31.921,1.465, , , , , , ,1.247,-7.575,-110.544
 09:19:04.419,eb:33:2e:f9:57:b5, 2015-01-01 00:11:33.950,0.128,0.021,0.995,7.69,33.997,1.587, , , , , , ,1.285,-7.405,-110.533
 09:19:04.419,eb:33:2e:f9:57:b5, 2015-01-01 00:11:33.950,0.126,0.012,0.995,8.057,35.767,2.014, , , , , , ,1.324,-7.229,-110.517
 09:19:04.419,eb:33:2e:f9:57:b5, 2015-01-01 00:11:33.950,0.117,0.021,0.998,8.24,36.987,2.136, , , , , , ,1.362,-7.048,-110.506
 09:19:04.510,eb:33:2e:f9:57:b5, 2015-01-01 00:11:33.950,0.103,0.019,0.999,8.484,37.842,2.075, , , , , , ,1.406,-6.861,-110.49
 09:19:04.510,eb:33:2e:f9:57:b5, 2015-01-01 00:11:33.950,0.099,0.011,0.997,8.972,38.574,2.075, , , , , , ,1.445,-6.674,-110.473
 09:19:04.510,eb:33:2e:f9:57:b5, 2015-01-01 00:11:33.950,0.102,0.011,1.001,9.521,39.062,2.075, , , , , , ,1.494,-6.476,-110.457
 09:19:04.510,eb:33:2e:f9:57:b5, 2015-01-01 00:11:33.950,0.103,0.008,1.01,10.437,39.062,1.587, , , , , , ,1.544,-6.284,-110.44
 09:19:04.510,eb:33:2e:f9:57:b5, 2015-01-01 00:11:33.950,0.107,0.001,1.021,11.902,39.124,1.099, , , , , , ,1.599,-6.086,-110.429
 09:19:04.510,eb:33:2e:f9:57:b5, 2015-01-01 00:11:33.950,0.119,0.002,1.026,13.367,39.49,0.427, , , , , , ,1.659,-5.894,-110.418
 09:19:04.510,eb:33:2e:f9:57:b5, 2015-01-01 00:11:33.950,0.125,0.011,1.033,14.343,41.077,-0.183, , , , , , ,1.73,-5.691,-110.413
 09:19:04.510,eb:33:2e:f9:57:b5, 2015-01-01 00:11:33.950,0.101,0.012,1.039,15.747,42.908,-0.671, , , , , , ,1.807,-5.477,-110.413
 09:19:04.555,eb:33:2e:f9:57:b5, 2015-01-01 00:11:33.950,0.098,0.021,1.013,16.418,44.006,-0.244, , , , , , ,1.89,-5.262,-110.407
 09:19:04.555,eb:33:2e:f9:57:b5, 2015-01-01 00:11:33.950,0.084,0.037,0.999,16.052,45.105,-0.488, , , , , , ,1.967,-5.037,-110.402
 09:19:04.555,eb:33:2e:f9:57:b5, 2015-01-01 00:11:33.950,0.083,0.038,0.99,15.503,45.532,-0.427, , , , , , ,2.049,-4.812,-110.396
 09:19:04.555,eb:33:2e:f9:57:b5, 2015-01-01 00:11:33.950,0.092,0.04,0.997,15.259,45.837,-0.183, , , , , , ,2.126,-4.581,-110.385
 09:19:04.555,eb:33:2e:f9:57:b5, 2015-01-01 00:11:33.950,0.082,0.079,0.979,13.733,44.983,-0.671, , , , , , ,2.197,-4.356,-110.38
 09:19:04.556,eb:33:2e:f9:57:b5, 2015-01-01 00:11:33.950,0.074,0.049,0.991,13,44.8,-0.793, , , , , , ,2.263,-4.131,-110.374
 09:19:04.556,eb:33:2e:f9:57:b5, 2015-01-01 00:11:33.950,0.068,0.043,0.984,12.756,44.678,-0.183, , , , , , ,2.329,-3.906,-110.369
 09:19:04.556,eb:33:2e:f9:57:b5, 2015-01-01 00:11:33.950,0.025,0.048,0.974,12.451,44.067,-0.061, , , , , , ,2.39,-3.686,-110.363
 09:19:04.620,eb:33:2e:f9:57:b5, 2015-01-01 00:11:33.950,0.004,0.047,0.958,12.146,41.565,0.488, , , , , , ,2.45,-3.472,-110.352
 09:19:04.620,eb:33:2e:f9:57:b5, 2015-01-01 00:11:33.950,0.035,0.047,0.964,12.024,37.476,0.61, , , , , , ,2.51,-3.279,-110.341
 09:19:04.620,eb:33:2e:f9:57:b5, 2015-01-01 00:11:33.950,0.066,0.046,0.997,12.451,34.363,0.122, , , , , , ,2.576,-3.098,-110.33
 09:19:04.620,eb:33:2e:f9:57:b5, 2015-01-01 00:11:33.950,0.102,0.039,1.049,13.611,33.02,-0.61, , , , , , ,2.637,-2.933,-110.325
 09:19:04.620,eb:33:2e:f9:57:b5, 2015-01-01 00:11:33.950,0.104,0.021,1.1,15.869,34.18,-1.648, , , , , , ,2.714,-2.769,-110.319
 09:19:04.620,eb:33:2e:f9:57:b5, 2015-01-01 00:11:33.950,0.019,0.032,1.089,17.578,35.583,-2.991, , , , , , ,2.802,-2.593,-110.325
 09:19:04.620,eb:33:2e:f9:57:b5, 2015-01-01 00:11:33.950,-0.011,0.032,1.009,18.433,34.607,-2.563, , , , , , ,2.889,-2.411,-110.33
 09:19:04.620,eb:33:2e:f9:57:b5, 2015-01-01 00:11:33.950,-0.013,0.042,0.999,19.043,31.738,-2.319, , , , , , ,2.988,-2.252,-110.336
 09:19:04.624,eb:33:2e:f9:57:b5, 2015-01-01 00:11:33.950,-0.015,0.021,1.036,20.081,29.48,-2.136, , , , , , ,3.087,-2.098,-110.336
 09:19:04.624,eb:33:2e:f9:57:b5, 2015-01-01 00:11:33.950,0.001,-0.007,1.066,21.912,28.992,-0.793, , , , , , ,3.192,-1.956,-110.336
 09:19:04.624,eb:33:2e:f9:57:b5, 2015-01-01 00:11:33.950,0.009,-0.012,1.086,25.024,28.931,1.038, , , , , , ,3.307,-1.807,-110.325
 09:19:04.624,eb:33:2e:f9:57:b5, 2015-01-01 00:11:33.950,-0.018,-0.022,1.118,29.358,29.236,3.113, , , , , , ,3.444,-1.664,-110.308
 09:19:04.624,eb:33:2e:f9:57:b5, 2015-01-01 00:11:33.950,-0.018,-0.008,1.096,35.339,23.376,5.371, , , , , , ,3.609,-1.533,-110.275
 09:19:04.624,eb:33:2e:f9:57:b5, 2015-01-01 00:11:33.950,-0.043,-0.001,1.148,41.504,18.311,6.775, , , , , , ,3.807,-1.434,-110.237
 09:19:04.624,eb:33:2e:f9:57:b5, 2015-01-01 00:11:33.950,-0.013,-0.047,1.249,48.279,15.686,9.399, , , , , , ,4.032,-1.357,-110.193
 09:19:04.624,eb:33:2e:f9:57:b5, 2015-01-01 00:11:33.950,0.054,-0.081,1.339,54.932,16.602,12.695, , , , , , ,4.29,-1.28,-110.127
 09:19:04.624,eb:33:2e:f9:57:b5, 2015-01-01 00:11:33.950,0.076,0.006,1.206,61.462,14.526,12.634, , , , , , ,4.587,-1.208,-110.056
 09:19:04.624,eb:33:2e:f9:57:b5, 2015-01-01 00:11:33.950,0.036,0.066,1.146,67.322,8.972,10.193, , , , , , ,4.911,-1.159,-109.995
 09:19:04.625,eb:33:2e:f9:57:b5, 2015-01-01 00:11:33.950,-0.065,0.034,1.201,73.12,4.822,8.728, , , , , , ,5.262,-1.126,-109.946
 09:19:04.625,eb:33:2e:f9:57:b5, 2015-01-01 00:11:33.950,-0.102,-0.023,1.286,77.515,2.686,9.583, , , , , , ,5.641,-1.115,-109.902
 09:19:04.625,eb:33:2e:f9:57:b5, 2015-01-01 00:11:33.950,-0.084,-0.055,1.296,83.923,0.854,11.963, , , , , , ,6.048,-1.115,-109.841
 09:19:04.625,eb:33:2e:f9:57:b5, 2015-01-01 00:11:33.950,-0.028,0.007,1.22,90.576,-5.981,12.146, , , , , , ,6.487,-1.137,-109.786
 09:19:04.625,eb:33:2e:f9:57:b5, 2015-01-01 00:11:33.950,-0.019,0.057,1.197,96.13,-12.634,10.254, , , , , , ,6.96,-1.192,-109.737
 09:19:04.625,eb:33:2e:f9:57:b5, 2015-01-01 00:11:33.950,-0.011,0.028,1.242,100.586,-17.395,8.789, , , , , , ,7.454,-1.274,-109.698
 09:19:04.644,eb:33:2e:f9:57:b5, 2015-01-01 00:11:34.420,0.041,-0.014,1.349,105.225,-18.127,8.667, , , , , , ,7.971,-1.373,-109.666
 09:19:04.644,eb:33:2e:f9:57:b5, 2015-01-01 00:11:34.420,0.075,-0.008,1.387,113.098,-18.311,8.118, , , , , , ,8.514,-1.467,-109.638
 09:19:04.644,eb:33:2e:f9:57:b5, 2015-01-01 00:11:34.420,0.076,0.023,1.33,120.117,-19.836,6.287, , , , , , ,9.102,-1.566,-109.616
 09:19:04.644,eb:33:2e:f9:57:b5, 2015-01-01 00:11:34.420,0.072,0.028,1.318,126.648,-21.057,4.395, , , , , , ,9.723,-1.675,-109.611
 09:19:04.644,eb:33:2e:f9:57:b5, 2015-01-01 00:11:34.420,0.068,0.021,1.38,132.751,-20.874,3.174, , , , , , ,10.377,-1.78,-109.611
 09:19:04.644,eb:33:2e:f9:57:b5, 2015-01-01 00:11:34.420,0.101,-0.007,1.391,141.113,-21.973,1.953, , , , , , ,11.063,-1.89,-109.616
 09:19:04.644,eb:33:2e:f9:57:b5, 2015-01-01 00:11:34.420,0.14,0.024,1.388,150.33,-23.315,-0.122, , , , , , ,11.799,-2.005,-109.638
 09:19:04.644,eb:33:2e:f9:57:b5, 2015-01-01 00:11:34.420,0.207,0.054,1.388,158.752,-23.926,-2.869, , , , , , ,12.579,-2.115,-109.671
 09:19:04.666,eb:33:2e:f9:57:b5, 2015-01-01 00:11:34.420,0.265,0.06,1.425,167.358,-24.475,-6.47, , , , , , ,13.398,-2.23,-109.72
 09:19:04.666,eb:33:2e:f9:57:b5, 2015-01-01 00:11:34.420,0.27,0.087,1.548,176.208,-22.278,-10.742, , , , , , ,14.266,-2.335,-109.792
 09:19:04.666,eb:33:2e:f9:57:b5, 2015-01-01 00:11:34.420,0.288,-0.008,1.682,187.134,-17.578,-13.916, , , , , , ,15.183,-2.417,-109.88
 09:19:04.666,eb:33:2e:f9:57:b5, 2015-01-01 00:11:34.420,0.373,-0.028,1.845,196.533,-6.714,-15.259, , , , , , ,16.15,-2.45,-109.968
 09:19:04.666,eb:33:2e:f9:57:b5, 2015-01-01 00:11:34.420,0.44,-0.026,1.984,207.336,7.446,-17.944, , , , , , ,17.166,-2.417,-110.045
 09:19:04.666,eb:33:2e:f9:57:b5, 2015-01-01 00:11:34.420,0.51,-0.05,2.062,220.398,20.508,-21.729, , , , , , ,18.243,-2.318,-110.121
 09:19:04.666,eb:33:2e:f9:57:b5, 2015-01-01 00:11:34.420,0.554,-0.009,2.054,234.07,34.912,-26.55, , , , , , ,19.391,-2.137,-110.187
 09:19:04.666,eb:33:2e:f9:57:b5, 2015-01-01 00:11:34.420,0.528,0.037,2.172,245.667,49.5,-32.166, , , , , , ,20.599,-1.884,-110.259
 09:19:04.756,eb:33:2e:f9:57:b5, 2015-01-01 00:11:34.420,0.653,0.007,2.14,260.742,62.012,-37.537, , , , , , ,21.874,-1.549,-110.314
 09:19:04.756,eb:33:2e:f9:57:b5, 2015-01-01 00:11:34.420,0.621,0.003,2.154,273.743,72.815,-43.457, , , , , , ,23.22,-1.159,-110.374
 09:19:04.756,eb:33:2e:f9:57:b5, 2015-01-01 00:11:34.420,0.595,-0.015,2.128,287.354,82.581,-49.927, , , , , , ,24.626,-0.703,-110.435
 09:19:04.756,eb:33:2e:f9:57:b5, 2015-01-01 00:11:34.420,0.586,0.018,2.388,299.622,98.45,-55.847, , , , , , ,26.104,-0.176,-110.479
 09:19:04.756,eb:33:2e:f9:57:b5, 2015-01-01 00:11:34.420,0.659,-0.059,2.486,313.66,114.197,-57.861, , , , , , ,27.642,0.434,-110.49
 09:19:04.756,eb:33:2e:f9:57:b5, 2015-01-01 00:11:34.420,0.712,0.092,2.315,326.355,115.967,-63.66, , , , , , ,29.251,1.093,-110.479
 09:19:04.757,eb:33:2e:f9:57:b5, 2015-01-01 00:11:34.420,0.701,0.1,2.226,339.661,109.131,-73.914, , , , , , ,30.916,1.747,-110.5
 09:19:04.757,eb:33:2e:f9:57:b5, 2015-01-01 00:11:34.420,0.776,0.092,2.453,350.952,109.619,-81.36, , , , , , ,32.646,2.417,-110.55
 09:19:04.759,eb:33:2e:f9:57:b5, 2015-01-01 00:11:34.420,0.833,-0.098,2.537,364.319,119.629,-86.975, , , , , , ,34.442,3.131,-110.583
 09:19:04.759,eb:33:2e:f9:57:b5, 2015-01-01 00:11:34.420,0.853,-0.151,2.532,377.93,127.502,-93.994, , , , , , ,36.304,3.9,-110.594
 09:19:04.759,eb:33:2e:f9:57:b5, 2015-01-01 00:11:34.420,0.816,-0.13,2.58,394.043,129.456,-102.112, , , , , , ,38.232,4.713,-110.599
 09:19:04.759,eb:33:2e:f9:57:b5, 2015-01-01 00:11:34.420,0.785,-0.187,2.522,409.241,128.784,-114.99, , , , , , ,40.248,5.559,-110.616
 09:19:04.759,eb:33:2e:f9:57:b5, 2015-01-01 00:11:34.420,0.614,-0.272,2.759,416.504,139.221,-120.3, , , , , , ,42.319,6.454,-110.616
 09:19:04.759,eb:33:2e:f9:57:b5, 2015-01-01 00:11:34.420,0.612,-0.359,2.958,425.354,156.25,-125.244, , , , , , ,44.434,7.421,-110.555
 09:19:04.759,eb:33:2e:f9:57:b5, 2015-01-01 00:11:34.420,0.537,-0.444,3.212,433.533,180.054,-124.573, , , , , , ,46.599,8.459,-110.391
 09:19:04.759,eb:33:2e:f9:57:b5, 2015-01-01 00:11:34.420,0.547,-0.459,3.098,446.045,194.092,-126.465, , , , , , ,48.851,9.564,-110.105
 09:19:04.802,eb:33:2e:f9:57:b5, 2015-01-01 00:11:34.420,0.324,-0.477,2.868,454.834,209.167,-125.977, , , , , , ,51.174,10.701,-109.726
 09:19:04.802,eb:33:2e:f9:57:b5, 2015-01-01 00:11:34.420,0.585,-0.627,2.388,446.716,208.862,-118.469, , , , , , ,53.52,11.827,-109.259
 09:19:04.802,eb:33:2e:f9:57:b5, 2015-01-01 00:11:34.420,0.857,-0.116,2.247,443.054,215.881,-118.164, , , , , , ,55.844,12.914,-108.726
 09:19:04.802,eb:33:2e:f9:57:b5, 2015-01-01 00:11:34.420,0.305,-0.333,2.364,431.58,238.22,-114.746, , , , , , ,58.189,14.024,-108.067
 09:19:04.802,eb:33:2e:f9:57:b5, 2015-01-01 00:11:34.420,-0.072,-0.477,0.872,391.968,229.614,-99.854, , , , , , ,60.43,15.084,-107.298
 09:19:04.802,eb:33:2e:f9:57:b5, 2015-01-01 00:11:34.420,0.053,-0.41,-0.446,334.473,198.914,-76.843, , , , , , ,62.424,15.969,-106.545
 09:19:04.802,eb:33:2e:f9:57:b5, 2015-01-01 00:11:34.420,0.452,-1.16,-0.751,263,151.062,-50.781, , , , , , ,64.061,16.628,-105.897
 09:19:04.802,eb:33:2e:f9:57:b5, 2015-01-01 00:11:34.420,0.441,-2.503,-1.646,159.851,99.182,-27.039, , , , , , ,65.215,17.034,-105.425
 09:19:04.869,eb:33:2e:f9:57:b5, 2015-01-01 00:11:34.420,0.257,-1.206,-1.216,75.256,52.063,-12.878, , , , , , ,65.83,17.276,-105.106
 09:19:04.869,eb:33:2e:f9:57:b5, 2015-01-01 00:11:34.420,0.348,0.455,0.185,-10.742,9.399,-2.686, , , , , , ,65.984,17.342,-105.029
 09:19:04.869,eb:33:2e:f9:57:b5, 2015-01-01 00:11:34.420,0.411,0.235,1.259,-87.463,16.663,6.287, , , , , , ,65.693,17.353,-104.969
 09:19:04.869,eb:33:2e:f9:57:b5, 2015-01-01 00:11:34.420,0.691,-0.682,1.156,-128.662,26.917,9.033, , , , , , ,65.154,17.364,-104.837
 09:19:04.869,eb:33:2e:f9:57:b5, 2015-01-01 00:11:34.420,0.81,-1.33,0.956,-142.944,35.217,7.568, , , , , , ,64.512,17.391,-104.667
 09:19:04.869,eb:33:2e:f9:57:b5, 2015-01-01 00:11:34.420,0.717,-1.48,0.878,-146.912,45.776,4.089, , , , , , ,63.847,17.457,-104.458
 09:19:04.869,eb:33:2e:f9:57:b5, 2015-01-01 00:11:34.420,0.677,-1.256,0.837,-141.296,46.814,-0.793, , , , , , ,63.177,17.551,-104.244
 09:19:04.869,eb:33:2e:f9:57:b5, 2015-01-01 00:11:34.420,0.647,-0.961,0.802,-127.441,38.452,-7.202, , , , , , ,62.567,17.672,-104.057
 09:19:04.870,eb:33:2e:f9:57:b5, 2015-01-01 00:11:34.420,0.59,-0.781,0.607,-114.746,22.705,-14.221, , , , , , ,62.001,17.787,-103.942
 09:19:04.870,eb:33:2e:f9:57:b5, 2015-01-01 00:11:34.420,0.538,-0.791,0.305,-109.131,2.808,-20.203, , , , , , ,61.452,17.891,-103.936
 09:19:04.870,eb:33:2e:f9:57:b5, 2015-01-01 00:11:34.420,0.483,-0.888,0.097,-110.84,-15.808,-23.682, , , , , , ,60.853,17.968,-104.046
 09:19:04.870,eb:33:2e:f9:57:b5, 2015-01-01 00:11:34.420,0.422,-0.934,0.046,-119.446,-31.25,-24.414, , , , , , ,60.222,18.012,-104.227
 09:19:04.870,eb:33:2e:f9:57:b5, 2015-01-01 00:11:34.420,0.361,-0.924,0.096,-134.277,-42.358,-22.461, , , , , , ,59.507,18.018,-104.458
 09:19:04.870,eb:33:2e:f9:57:b5, 2015-01-01 00:11:34.420,0.305,-0.927,0.168,-153.259,-47.974,-17.822, , , , , , ,58.7,17.985,-104.722
 09:19:04.870,eb:33:2e:f9:57:b5, 2015-01-01 00:11:34.420,0.263,-0.952,0.207,-175.11,-49.438,-11.108, , , , , , ,57.772,17.908,-104.991
 09:19:04.870,eb:33:2e:f9:57:b5, 2015-01-01 00:11:34.420,0.235,-0.968,0.203,-198.669,-49.316,-2.93, , , , , , ,56.755,17.798,-105.227
 09:19:04.913,eb:33:2e:f9:57:b5, 2015-01-01 00:11:34.420,0.229,-0.967,0.199,-221.68,-49.744,5.676, , , , , , ,55.624,17.655,-105.43
 09:19:04.913,eb:33:2e:f9:57:b5, 2015-01-01 00:11:34.420,0.242,-0.943,0.214,-242.004,-52.063,13.794, , , , , , ,54.399,17.463,-105.617
 09:19:04.913,eb:33:2e:f9:57:b5, 2015-01-01 00:11:34.420,0.26,-0.896,0.229,-258.545,-56.702,20.935, , , , , , ,53.064,17.221,-105.804
 09:19:04.913,eb:33:2e:f9:57:b5, 2015-01-01 00:11:34.420,0.268,-0.839,0.237,-271.423,-64.087,26.55, , , , , , ,51.68,16.941,-105.98
 09:19:04.913,eb:33:2e:f9:57:b5, 2015-01-01 00:11:34.420,0.275,-0.77,0.236,-281.25,-74.402,31.006, , , , , , ,50.24,16.606,-106.166
 09:19:04.913,eb:33:2e:f9:57:b5, 2015-01-01 00:11:34.420,0.275,-0.698,0.256,-288.635,-86.67,34.302, , , , , , ,48.752,16.21,-106.375
 09:19:04.913,eb:33:2e:f9:57:b5, 2015-01-01 00:11:34.420,0.265,-0.638,0.312,-293.64,-99.304,36.987, , , , , , ,47.203,15.76,-106.628
 09:19:04.913,eb:33:2e:f9:57:b5, 2015-01-01 00:11:34.420,0.259,-0.588,0.395,-296.631,-111.328,38.94, , , , , , ,45.659,15.249,-106.891
 09:19:04.981,eb:33:2e:f9:57:b5, 2015-01-01 00:11:34.420,0.249,-0.542,0.483,-298.95,-121.277,40.71, , , , , , ,44.094,14.694,-107.172
 09:19:04.981,eb:33:2e:f9:57:b5, 2015-01-01 00:11:34.420,0.243,-0.507,0.571,-301.331,-128.54,42.786, , , , , , ,42.523,14.09,-107.457
 09:19:04.981,eb:33:2e:f9:57:b5, 2015-01-01 00:11:34.420,0.231,-0.484,0.681,-303.772,-131.897,45.105, , , , , , ,40.919,13.447,-107.748
 09:19:04.981,eb:33:2e:f9:57:b5, 2015-01-01 00:11:34.420,0.212,-0.462,0.796,-305.298,-132.141,47.607, , , , , , ,39.337,12.794,-108.001
 09:19:04.981,eb:33:2e:f9:57:b5, 2015-01-01 00:11:34.420,0.204,-0.415,0.901,-305.969,-130.859,50.598, , , , , , ,37.76,12.123,-108.221
 09:19:04.981,eb:33:2e:f9:57:b5, 2015-01-01 00:11:34.420,0.2,-0.358,0.959,-306.091,-129.7,52.49, , , , , , ,36.189,11.448,-108.413
 09:19:04.982,eb:33:2e:f9:57:b5, 2015-01-01 00:11:34.420,0.202,-0.298,0.993,-306.335,-129.7,53.711, , , , , , ,34.607,10.756,-108.583
 09:19:04.982,eb:33:2e:f9:57:b5, 2015-01-01 00:11:34.420,0.201,-0.24,1.02,-307.068,-131.165,54.077, , , , , , ,33.047,10.063,-108.721
 09:19:05.004,eb:33:2e:f9:57:b5, 2015-01-01 00:11:34.795,0.203,-0.179,1.034,-308.777,-135.01,53.406, , , , , , ,31.487,9.355,-108.853
 09:19:05.004,eb:33:2e:f9:57:b5, 2015-01-01 00:11:34.795,0.206,-0.117,1.057,-311.707,-140.32,51.941, , , , , , ,29.916,8.63,-108.979
 09:19:05.004,eb:33:2e:f9:57:b5, 2015-01-01 00:11:34.795,0.215,-0.065,1.11,-315.369,-146.057,49.744, , , , , , ,28.306,7.866,-109.122
 09:19:05.004,eb:33:2e:f9:57:b5, 2015-01-01 00:11:34.795,0.21,-0.02,1.2,-318.97,-150.94,46.875, , , , , , ,26.702,7.097,-109.254
 09:19:05.004,eb:33:2e:f9:57:b5, 2015-01-01 00:11:34.795,0.193,0.03,1.289,-322.571,-154.663,44.067, , , , , , ,25.076,6.306,-109.385
 09:19:05.004,eb:33:2e:f9:57:b5, 2015-01-01 00:11:34.795,0.186,0.068,1.392,-325.745,-156.128,41.565, , , , , , ,23.445,5.51,-109.512
 09:19:05.005,eb:33:2e:f9:57:b5, 2015-01-01 00:11:34.795,0.17,0.089,1.525,-328.064,-154.053,39.795, , , , , , ,21.775,4.708,-109.633
 09:19:05.005,eb:33:2e:f9:57:b5, 2015-01-01 00:11:34.795,0.151,0.098,1.637,-329.407,-149.536,38.757, , , , , , ,20.121,3.928,-109.72
 09:19:05.049,eb:33:2e:f9:57:b5, 2015-01-01 00:11:34.795,0.141,0.111,1.711,-330.139,-143.982,38.269, , , , , , ,18.468,3.175,-109.781
 09:19:05.049,eb:33:2e:f9:57:b5, 2015-01-01 00:11:34.795,0.13,0.121,1.76,-330.383,-138.367,38.025, , , , , , ,16.815,2.444,-109.808
 09:19:05.049,eb:33:2e:f9:57:b5, 2015-01-01 00:11:34.795,0.128,0.125,1.774,-329.529,-134.46,37.659, , , , , , ,15.145,1.73,-109.825
 09:19:05.049,eb:33:2e:f9:57:b5, 2015-01-01 00:11:34.795,0.144,0.131,1.762,-327.393,-133.545,36.682, , , , , , ,13.502,1.038,-109.808
 09:19:05.049,eb:33:2e:f9:57:b5, 2015-01-01 00:11:34.795,0.162,0.159,1.743,-324.768,-135.925,34.851, , , , , , ,11.871,0.341,-109.781
 09:19:05.049,eb:33:2e:f9:57:b5, 2015-01-01 00:11:34.795,0.176,0.195,1.736,-322.205,-140.198,32.166, , , , , , ,10.256,-0.368,-109.748
 09:19:05.049,eb:33:2e:f9:57:b5, 2015-01-01 00:11:34.795,0.186,0.218,1.76,-319.763,-144.592,28.809, , , , , , ,8.63,-1.104,-109.726
 09:19:05.050,eb:33:2e:f9:57:b5, 2015-01-01 00:11:34.795,0.2,0.234,1.807,-317.749,-147.766,25.085, , , , , , ,7.037,-1.851,-109.693
 09:19:05.070,eb:33:2e:f9:57:b5, 2015-01-01 00:11:34.795,0.209,0.244,1.874,-316.345,-148.438,21.301, , , , , , ,5.449,-2.604,-109.66
 09:19:05.070,eb:33:2e:f9:57:b5, 2015-01-01 00:11:34.795,0.209,0.253,1.94,-315.552,-147.156,17.212, , , , , , ,3.873,-3.345,-109.627
 09:19:05.070,eb:33:2e:f9:57:b5, 2015-01-01 00:11:34.795,0.202,0.267,1.979,-315.186,-145.325,12.573, , , , , , ,2.269,-4.092,-109.6
 09:19:05.070,eb:33:2e:f9:57:b5, 2015-01-01 00:11:34.795,0.177,0.282,1.997,-314.88,-144.226,7.568, , , , , , ,0.692,-4.812,-109.567
 09:19:05.070,eb:33:2e:f9:57:b5, 2015-01-01 00:11:34.795,0.145,0.292,2.002,-313.965,-144.836,2.38, , , , , , ,-0.879,-5.537,-109.545
 09:19:05.070,eb:33:2e:f9:57:b5, 2015-01-01 00:11:34.795,0.103,0.299,2.018,-312.012,-146.912,-2.625, , , , , , ,-2.444,-6.268,-109.528
 09:19:05.070,eb:33:2e:f9:57:b5, 2015-01-01 00:11:34.795,0.031,0.304,2.044,-308.96,-149.841,-7.324, , , , , , ,-4.021,-7.02,-109.517
 09:19:05.070,eb:33:2e:f9:57:b5, 2015-01-01 00:11:34.795,-0.055,0.305,2.064,-305.298,-153.503,-11.047, , , , , , ,-5.554,-7.784,-109.501
 09:19:05.117,eb:33:2e:f9:57:b5, 2015-01-01 00:11:34.795,-0.144,0.31,2.108,-301.758,-156.25,-12.878, , , , , , ,-7.075,-8.564,-109.473
 09:19:05.117,eb:33:2e:f9:57:b5, 2015-01-01 00:11:34.795,-0.239,0.321,2.191,-298.645,-155.64,-12.329, , , , , , ,-8.58,-9.344,-109.429
 09:19:05.117,eb:33:2e:f9:57:b5, 2015-01-01 00:11:34.795,-0.313,0.321,2.29,-295.41,-150.696,-8.972, , , , , , ,-10.096,-10.118,-109.363
 09:19:05.117,eb:33:2e:f9:57:b5, 2015-01-01 00:11:34.795,-0.367,0.345,2.414,-291.931,-140.686,-3.845, , , , , , ,-11.585,-10.838,-109.254
 09:19:05.117,eb:33:2e:f9:57:b5, 2015-01-01 00:11:34.795,-0.388,0.435,2.501,-287.781,-129.089,2.625, , , , , , ,-13.057,-11.492,-109.105
 09:19:05.117,eb:33:2e:f9:57:b5, 2015-01-01 00:11:34.795,-0.402,0.586,2.565,-281.555,-114.99,10.193, , , , , , ,-14.518,-12.068,-108.924
 09:19:05.117,eb:33:2e:f9:57:b5, 2015-01-01 00:11:34.795,-0.398,0.709,2.563,-274.536,-105.164,16.113, , , , , , ,-15.974,-12.585,-108.71
 09:19:05.117,eb:33:2e:f9:57:b5, 2015-01-01 00:11:34.795,-0.396,0.847,2.541,-266.479,-97.168,21.606, , , , , , ,-17.375,-13.041,-108.468
 09:19:05.185,eb:33:2e:f9:57:b5, 2015-01-01 00:11:34.795,-0.415,1.008,2.493,-258.545,-91.553,26.367, , , , , , ,-18.743,-13.447,-108.199
 09:19:05.185,eb:33:2e:f9:57:b5, 2015-01-01 00:11:34.795,-0.457,1.166,2.431,-251.038,-87.524,31.128, , , , , , ,-20.083,-13.821,-107.902
 09:19:05.185,eb:33:2e:f9:57:b5, 2015-01-01 00:11:34.795,-0.513,1.311,2.383,-242.859,-84.106,36.438, , , , , , ,-21.412,-14.161,-107.584
 09:19:05.185,eb:33:2e:f9:57:b5, 2015-01-01 00:11:34.795,-0.572,1.461,2.353,-232.727,-80.383,42.297, , , , , , ,-22.681,-14.469,-107.232
 09:19:05.185,eb:33:2e:f9:57:b5, 2015-01-01 00:11:34.795,-0.632,1.624,2.321,-219.666,-75.867,48.645, , , , , , ,-23.901,-14.733,-106.859
 09:19:05.185,eb:33:2e:f9:57:b5, 2015-01-01 00:11:34.795,-0.697,1.793,2.289,-202.942,-70.129,55.176, , , , , , ,-25.054,-14.958,-106.452
 09:19:05.185,eb:33:2e:f9:57:b5, 2015-01-01 00:11:34.795,-0.759,1.955,2.239,-181.702,-63.843,61.34, , , , , , ,-26.131,-15.134,-106.029
 09:19:05.185,eb:33:2e:f9:57:b5, 2015-01-01 00:11:34.795,-0.812,2.125,2.147,-156.799,-58.167,66.162, , , , , , ,-27.081,-15.26,-105.59
 09:19:05.229,eb:33:2e:f9:57:b5, 2015-01-01 00:11:34.795,-0.85,2.303,2.013,-129.456,-54.382,68.787, , , , , , ,-27.905,-15.348,-105.145
 09:19:05.229,eb:33:2e:f9:57:b5, 2015-01-01 00:11:34.795,-0.878,2.473,1.874,-101.257,-52.49,68.359, , , , , , ,-28.586,-15.419,-104.7
 09:19:05.229,eb:33:2e:f9:57:b5, 2015-01-01 00:11:34.795,-0.912,2.628,1.753,-73.364,-51.819,64.514, , , , , , ,-29.13,-15.491,-104.271
 09:19:05.229,eb:33:2e:f9:57:b5, 2015-01-01 00:11:34.795,-0.949,2.755,1.688,-47.363,-50.293,57.373, , , , , , ,-29.526,-15.568,-103.865
 09:19:05.229,eb:33:2e:f9:57:b5, 2015-01-01 00:11:34.795,-0.974,2.833,1.701,-24.414,-44.189,48.096, , , , , , ,-29.789,-15.645,-103.513
 09:19:05.229,eb:33:2e:f9:57:b5, 2015-01-01 00:11:34.795,-0.77,2.839,1.783,-4.395,-29.785,37.415, , , , , , ,-29.927,-15.699,-103.228
 09:19:05.229,eb:33:2e:f9:57:b5, 2015-01-01 00:11:34.795,-0.032,2.591,2.605,72.632,-56.946,5.188, , , , , , ,-29.855,-15.798,-103.024
 09:19:05.229,eb:33:2e:f9:57:b5, 2015-01-01 00:11:34.795,-0.827,3.155,5.405,138.428,112.366,-7.202, , , , , , ,-29.196,-15.59,-103.184
 09:19:05.252,eb:33:2e:f9:57:b5, 2015-01-01 00:11:34.795,0.016,3.132,3.079,200.806,101.685,-59.814, , , , , , ,-28.235,-15.255,-103.601
 09:19:05.252,eb:33:2e:f9:57:b5, 2015-01-01 00:11:34.795,0.101,3.573,3.5,260.986,165.833,-107.788, , , , , , ,-26.856,-14.81,-104.348
 09:19:05.252,eb:33:2e:f9:57:b5, 2015-01-01 00:11:34.795,0.574,2.602,1.607,269.897,171.326,-144.897, , , , , , ,-25.247,-14.332,-105.342
 09:19:05.252,eb:33:2e:f9:57:b5, 2015-01-01 00:11:34.795,-0.058,-0.104,1.384,259.827,161.255,-156.25, , , , , , ,-23.659,-13.903,-106.43
 09:19:05.252,eb:33:2e:f9:57:b5, 2015-01-01 00:11:34.795,-0.31,-0.499,1.24,269.226,130.31,-128.174, , , , , , ,-22.115,-13.535,-107.397
 09:19:05.253,eb:33:2e:f9:57:b5, 2015-01-01 00:11:34.795,0.067,-0.904,0.965,287.109,114.441,-97.534, , , , , , ,-20.544,-13.195,-108.138
 09:19:05.253,eb:33:2e:f9:57:b5, 2015-01-01 00:11:34.795,0.194,-0.906,1.152,296.936,119.263,-77.576, , , , , , ,-18.935,-12.794,-108.748
 09:19:05.253,eb:33:2e:f9:57:b5, 2015-01-01 00:11:34.795,-0.226,-0.829,1.431,306.58,138.794,-55.42, , , , , , ,-17.309,-12.277,-109.276
 09:19:05.275,eb:33:2e:f9:57:b5, 2015-01-01 00:11:34.795,-0.459,-0.445,1.239,309.631,149.292,-31.677, , , , , , ,-15.672,-11.629,-109.688
 09:19:05.275,eb:33:2e:f9:57:b5, 2015-01-01 00:11:34.795,-0.631,-0.074,1.183,297.546,141.785,-16.296, , , , , , ,-14.095,-10.959,-109.984
 09:19:05.275,eb:33:2e:f9:57:b5, 2015-01-01 00:11:34.795,-0.339,0.325,0.959,274.292,116.943,-9.766, , , , , , ,-12.634,-10.344,-110.198
 09:19:05.275,eb:33:2e:f9:57:b5, 2015-01-01 00:11:34.795,-0.146,0.579,1.194,239.258,93.933,-11.353, , , , , , ,-11.338,-9.855,-110.352
 09:19:05.275,eb:33:2e:f9:57:b5, 2015-01-01 00:11:34.795,-0.065,0.587,1.235,204.041,77.576,-18.616, , , , , , ,-10.223,-9.459,-110.511
 09:19:05.275,eb:33:2e:f9:57:b5, 2015-01-01 00:11:34.795,-0.104,0.365,1.208,172.974,61.646,-30.701, , , , , , ,-9.267,-9.146,-110.698
 09:19:05.275,eb:33:2e:f9:57:b5, 2015-01-01 00:11:34.795,0,0.228,1.22,159.668,53.711,-37.781, , , , , , ,-8.41,-8.888,-110.918
 09:19:05.275,eb:33:2e:f9:57:b5, 2015-01-01 00:11:34.795,0.121,0.033,1.109,147.522,44.556,-41.87, , , , , , ,-7.608,-8.679,-111.154
 09:19:05.320,eb:33:2e:f9:57:b5, 2015-01-01 00:11:34.795,0.171,0.099,1.104,133.667,43.457,-38.391, , , , , , ,-6.883,-8.492,-111.385
 09:19:05.320,eb:33:2e:f9:57:b5, 2015-01-01 00:11:34.795,0.179,0.005,1.007,124.329,44.556,-31.189, , , , , , ,-6.213,-8.295,-111.583
 09:19:05.321,eb:33:2e:f9:57:b5, 2015-01-01 00:11:34.795,0.135,-0.052,0.946,118.774,45.532,-23.315, , , , , , ,-5.581,-8.08,-111.736
 09:19:05.321,eb:33:2e:f9:57:b5, 2015-01-01 00:11:34.795,0.078,0.058,0.932,110.413,47.485,-17.822, , , , , , ,-4.993,-7.855,-111.857
 09:19:05.321,eb:33:2e:f9:57:b5, 2015-01-01 00:11:34.795,0.161,0.303,1.003,92.834,46.997,-14.771, , , , , , ,-4.477,-7.625,-111.962
 09:19:05.321,eb:33:2e:f9:57:b5, 2015-01-01 00:11:34.795,0.171,0.315,1.035,75.195,45.41,-11.169, , , , , , ,-4.059,-7.405,-112.039
 09:19:05.321,eb:33:2e:f9:57:b5, 2015-01-01 00:11:34.795,0.089,0.239,1.038,62.5,44.678,-8.911, , , , , , ,-3.708,-7.18,-112.104
 09:19:05.321,eb:33:2e:f9:57:b5, 2015-01-01 00:11:34.795,0.038,0.178,1.002,51.514,40.466,-7.996, , , , , , ,-3.422,-6.971,-112.159
 09:19:05.386,eb:33:2e:f9:57:b5, 2015-01-01 00:11:35.155,-0.009,0.079,0.977,44.678,34.79,-5.554, , , , , , ,-3.181,-6.79,-112.203
 09:19:05.386,eb:33:2e:f9:57:b5, 2015-01-01 00:11:35.155,0.018,0.102,0.982,37.537,28.015,-2.319, , , , , , ,-2.972,-6.636,-112.231
 09:19:05.386,eb:33:2e:f9:57:b5, 2015-01-01 00:11:35.155,0,0.038,1,32.288,22.766,2.075, , , , , , ,-2.796,-6.509,-112.236
 09:19:05.387,eb:33:2e:f9:57:b5, 2015-01-01 00:11:35.155,0.019,0.06,0.986,27.344,16.846,4.761, , , , , , ,-2.653,-6.411,-112.22
 09:19:05.387,eb:33:2e:f9:57:b5, 2015-01-01 00:11:35.155,0.044,0.021,0.997,24.17,11.047,4.944, , , , , , ,-2.527,-6.345,-112.198
 09:19:05.387,eb:33:2e:f9:57:b5, 2015-01-01 00:11:35.155,0.063,0.003,1.026,23.132,8.606,2.319, , , , , , ,-2.411,-6.295,-112.181
 09:19:05.387,eb:33:2e:f9:57:b5, 2015-01-01 00:11:35.155,0.101,-0.013,1.015,22.949,5.798,-1.587, , , , , , ,-2.291,-6.262,-112.181
 09:19:05.387,eb:33:2e:f9:57:b5, 2015-01-01 00:11:35.155,0.094,0.004,1.012,21.851,4.211,-4.395, , , , , , ,-2.181,-6.235,-112.198
 09:19:05.408,eb:33:2e:f9:57:b5, 2015-01-01 00:11:35.155,0.063,0.017,1.008,19.592,2.808,-3.723, , , , , , ,-2.071,-6.218,-112.22
 09:19:05.408,eb:33:2e:f9:57:b5, 2015-01-01 00:11:35.155,0.043,0.023,0.977,17.273,-0.183,-2.441, , , , , , ,-1.983,-6.218,-112.236
 09:19:05.408,eb:33:2e:f9:57:b5, 2015-01-01 00:11:35.155,0.063,-0.005,0.967,16.418,-2.869,-2.686, , , , , , ,-1.89,-6.224,-112.247
 09:19:05.408,eb:33:2e:f9:57:b5, 2015-01-01 00:11:35.155,0.079,-0.021,0.975,16.724,-5.188,-4.15, , , , , , ,-1.807,-6.246,-112.264
 09:19:05.408,eb:33:2e:f9:57:b5, 2015-01-01 00:11:35.155,0.088,-0.021,0.989,17.029,-6.836,-5.737, , , , , , ,-1.719,-6.279,-112.286
 09:19:05.408,eb:33:2e:f9:57:b5, 2015-01-01 00:11:35.155,0.089,-0.016,1.004,16.968,-7.874,-6.592, , , , , , ,-1.631,-6.317,-112.319
 09:19:05.408,eb:33:2e:f9:57:b5, 2015-01-01 00:11:35.155,0.082,-0.011,1.007,16.602,-8.179,-6.653, , , , , , ,-1.538,-6.356,-112.352
 09:19:05.408,eb:33:2e:f9:57:b5, 2015-01-01 00:11:35.155,0.068,-0.007,0.99,15.808,-8.484,-6.226, , , , , , ,-1.456,-6.4,-112.379
 09:19:05.431,eb:33:2e:f9:57:b5, 2015-01-01 00:11:35.155,0.078,0,0.965,14.771,-9.705,-6.287, , , , , , ,-1.373,-6.449,-112.412
 09:19:05.431,eb:33:2e:f9:57:b5, 2015-01-01 00:11:35.155,0.108,0.001,0.968,13.916,-11.047,-6.47, , , , , , ,-1.296,-6.504,-112.44
 09:19:05.431,eb:33:2e:f9:57:b5, 2015-01-01 00:11:35.155,0.142,-0.001,0.987,13.245,-11.23,-6.653, , , , , , ,-1.225,-6.559,-112.473
 09:19:05.431,eb:33:2e:f9:57:b5, 2015-01-01 00:11:35.155,0.164,0.006,1.004,12.634,-10.376,-6.348, , , , , , ,-1.154,-6.614,-112.505
 09:19:05.431,eb:33:2e:f9:57:b5, 2015-01-01 00:11:35.155,0.161,0.01,1.016,11.719,-8.179,-5.859, , , , , , ,-1.093,-6.658,-112.533
 09:19:05.431,eb:33:2e:f9:57:b5, 2015-01-01 00:11:35.155,0.142,0.004,1.009,11.169,-5.676,-5.31, , , , , , ,-1.033,-6.696,-112.56
 09:19:05.431,eb:33:2e:f9:57:b5, 2015-01-01 00:11:35.155,0.114,0.001,0.988,10.681,-3.601,-5.188, , , , , , ,-0.967,-6.713,-112.588
 09:19:05.431,eb:33:2e:f9:57:b5, 2015-01-01 00:11:35.155,0.109,0.01,0.974,9.827,-2.93,-5.249, , , , , , ,-0.912,-6.729,-112.615
 09:19:05.480,eb:33:2e:f9:57:b5, 2015-01-01 00:11:35.155,0.115,0.018,0.97,8.423,-2.502,-4.944, , , , , , ,-0.868,-6.746,-112.637
 09:19:05.480,eb:33:2e:f9:57:b5, 2015-01-01 00:11:35.155,0.122,0.011,0.98,7.69,-1.892,-4.517, , , , , , ,-0.824,-6.757,-112.659
 09:19:05.480,eb:33:2e:f9:57:b5, 2015-01-01 00:11:35.155,0.133,-0.003,0.997,7.629,-0.61,-4.089, , , , , , ,-0.78,-6.762,-112.681
 09:19:05.480,eb:33:2e:f9:57:b5, 2015-01-01 00:11:35.155,0.121,-0.014,1.005,7.996,1.282,-3.845, , , , , , ,-0.736,-6.757,-112.703
 09:19:05.480,eb:33:2e:f9:57:b5, 2015-01-01 00:11:35.155,0.104,-0.017,0.999,8.362,2.747,-3.479, , , , , , ,-0.692,-6.746,-112.72
 09:19:05.480,eb:33:2e:f9:57:b5, 2015-01-01 00:11:35.155,0.092,-0.005,0.989,8.362,3.54,-3.113, , , , , , ,-0.648,-6.735,-112.736
 09:19:05.480,eb:33:2e:f9:57:b5, 2015-01-01 00:11:35.155,0.1,0.004,0.982,7.874,3.845,-2.441, , , , , , ,-0.599,-6.713,-112.753
 09:19:05.480,eb:33:2e:f9:57:b5, 2015-01-01 00:11:35.155,0.13,0.009,0.985,7.385,4.333,-2.075, , , , , , ,-0.56,-6.691,-112.764
 09:19:05.522,eb:33:2e:f9:57:b5, 2015-01-01 00:11:35.155,0.147,0.005,1,7.202,6.104,-2.197, , , , , , ,-0.522,-6.663,-112.769
 09:19:05.522,eb:33:2e:f9:57:b5, 2015-01-01 00:11:35.155,0.144,-0.001,1.01,7.385,9.033,-2.319, , , , , , ,-0.483,-6.625,-112.786
 09:19:05.522,eb:33:2e:f9:57:b5, 2015-01-01 00:11:35.155,0.127,0.007,0.999,7.141,11.841,-2.258, , , , , , ,-0.445,-6.57,-112.797
 09:19:05.523,eb:33:2e:f9:57:b5, 2015-01-01 00:11:35.155,0.125,0.017,0.979,6.47,13.794,-1.953, , , , , , ,-0.406,-6.504,-112.808
 09:19:05.523,eb:33:2e:f9:57:b5, 2015-01-01 00:11:35.155,0.141,0.016,0.981,5.676,15.625,-1.404, , , , , , ,-0.379,-6.432,-112.813
 09:19:05.523,eb:33:2e:f9:57:b5, 2015-01-01 00:11:35.155,0.134,0.011,0.986,5.432,17.456,-1.099, , , , , , ,-0.346,-6.35,-112.824
 09:19:05.523,eb:33:2e:f9:57:b5, 2015-01-01 00:11:35.155,0.134,0,0.996,5.554,19.47,-0.671, , , , , , ,-0.313,-6.251,-112.824
 09:19:05.523,eb:33:2e:f9:57:b5, 2015-01-01 00:11:35.155,0.129,0.003,1.008,5.737,21.79,-0.488, , , , , , ,-0.286,-6.147,-112.83
 09:19:05.566,eb:33:2e:f9:57:b5, 2015-01-01 00:11:35.155,0.122,0.005,1.009,5.981,23.621,-0.488, , , , , , ,-0.258,-6.037,-112.83
 09:19:05.566,eb:33:2e:f9:57:b5, 2015-01-01 00:11:35.155,0.101,0.005,1.002,6.104,25.146,-0.549, , , , , , ,-0.225,-5.911,-112.835
 09:19:05.566,eb:33:2e:f9:57:b5, 2015-01-01 00:11:35.155,0.078,0.005,0.992,6.104,26.001,-0.61, , , , , , ,-0.192,-5.779,-112.841
 09:19:05.566,eb:33:2e:f9:57:b5, 2015-01-01 00:11:35.155,0.057,0.011,0.979,5.92,25.757,-0.732, , , , , , ,-0.159,-5.652,-112.841
 09:19:05.566,eb:33:2e:f9:57:b5, 2015-01-01 00:11:35.155,0.056,0.003,0.977,6.165,24.719,-0.61, , , , , , ,-0.126,-5.526,-112.846
 09:19:05.566,eb:33:2e:f9:57:b5, 2015-01-01 00:11:35.155,0.078,-0.014,0.991,7.202,24.292,-0.427, , , , , , ,-0.093,-5.405,-112.846
 09:19:05.566,eb:33:2e:f9:57:b5, 2015-01-01 00:11:35.155,0.086,-0.007,1.002,8.118,24.414,-0.732, , , , , , ,-0.049,-5.279,-112.852
 09:19:05.566,eb:33:2e:f9:57:b5, 2015-01-01 00:11:35.155,0.071,-0.006,1.015,8.972,24.719,-1.038, , , , , , ,-0.005,-5.158,-112.857
 09:19:05.611,eb:33:2e:f9:57:b5, 2015-01-01 00:11:35.155,0.057,-0.005,1.005,9.766,24.658,-1.16, , , , , , ,0.038,-5.037,-112.863
 09:19:05.611,eb:33:2e:f9:57:b5, 2015-01-01 00:11:35.155,0.051,-0.003,0.996,10.315,24.048,-1.16, , , , , , ,0.088,-4.916,-112.868
 09:19:05.611,eb:33:2e:f9:57:b5, 2015-01-01 00:11:35.155,0.053,-0.001,0.998,10.864,23.56,-1.16, , , , , , ,0.148,-4.79,-112.874
 09:19:05.611,eb:33:2e:f9:57:b5, 2015-01-01 00:11:35.155,0.073,-0.004,1.004,11.536,23.193,-0.916, , , , , , ,0.203,-4.675,-112.874
 09:19:05.611,eb:33:2e:f9:57:b5, 2015-01-01 00:11:35.155,0.087,0.002,1.012,11.963,23.743,-1.16, , , , , , ,0.264,-4.559,-112.879
 09:19:05.611,eb:33:2e:f9:57:b5, 2015-01-01 00:11:35.155,0.081,0.007,1.022,12.39,24.902,-1.465, , , , , , ,0.324,-4.438,-112.885
 09:19:05.611,eb:33:2e:f9:57:b5, 2015-01-01 00:11:35.155,0.071,0.011,1.014,12.39,26.123,-1.648, , , , , , ,0.39,-4.307,-112.89
 09:19:05.611,eb:33:2e:f9:57:b5, 2015-01-01 00:11:35.155,0.065,0.02,1.004,12.085,26.855,-1.709, , , , , , ,0.456,-4.175,-112.901
 09:19:05.656,eb:33:2e:f9:57:b5, 2015-01-01 00:11:35.445,0.068,0.023,0.998,11.536,27.649,-1.709, , , , , , ,0.516,-4.037,-112.906
 09:19:05.656,eb:33:2e:f9:57:b5, 2015-01-01 00:11:35.445,0.074,0.024,1,11.169,28.687,-1.587, , , , , , ,0.571,-3.895,-112.912
 09:19:05.656,eb:33:2e:f9:57:b5, 2015-01-01 00:11:35.445,0.086,0.019,1.01,10.864,30.212,-1.16, , , , , , ,0.632,-3.746,-112.917
 09:19:05.656,eb:33:2e:f9:57:b5, 2015-01-01 00:11:35.445,0.082,0.019,1.014,10.864,32.104,-1.282, , , , , , ,0.687,-3.593,-112.923
 09:19:05.656,eb:33:2e:f9:57:b5, 2015-01-01 00:11:35.445,0.076,0.018,1.016,10.986,33.691,-1.343, , , , , , ,0.742,-3.428,-112.928
 09:19:05.656,eb:33:2e:f9:57:b5, 2015-01-01 00:11:35.445,0.079,0.02,1.019,11.292,34.851,-1.099, , , , , , ,0.797,-3.252,-112.928
 09:19:05.656,eb:33:2e:f9:57:b5, 2015-01-01 00:11:35.445,0.07,0.022,1.02,11.597,36.133,-1.038, , , , , , ,0.857,-3.071,-112.934
 09:19:05.656,eb:33:2e:f9:57:b5, 2015-01-01 00:11:35.445,0.062,0.014,1.026,12.085,37.354,-0.793, , , , , , ,0.917,-2.889,-112.934
 09:19:05.679,eb:33:2e:f9:57:b5, 2015-01-01 00:11:35.445,0.052,0.02,1.024,12.268,38.452,-0.732, , , , , , ,0.978,-2.703,-112.934
 09:19:05.679,eb:33:2e:f9:57:b5, 2015-01-01 00:11:35.445,0.062,0.01,1.026,12.512,39.551,0.061, , , , , , ,1.044,-2.505,-112.934
 09:19:05.679,eb:33:2e:f9:57:b5, 2015-01-01 00:11:35.445,0.063,0.014,1.026,13.062,41.687,0.671, , , , , , ,1.11,-2.296,-112.923
 09:19:05.679,eb:33:2e:f9:57:b5, 2015-01-01 00:11:35.445,0.053,0.01,1.034,14.404,43.274,1.038, , , , , , ,1.181,-2.087,-112.917
 09:19:05.679,eb:33:2e:f9:57:b5, 2015-01-01 00:11:35.445,0.07,-0.014,1.078,17.578,43.152,1.709, , , , , , ,1.258,-1.868,-112.906
 09:19:05.679,eb:33:2e:f9:57:b5, 2015-01-01 00:11:35.445,0.114,0.007,1.081,20.691,43.213,1.221, , , , , , ,1.357,-1.653,-112.89
 09:19:05.679,eb:33:2e:f9:57:b5, 2015-01-01 00:11:35.445,0.052,-0.019,1.174,24.719,44.189,-0.549, , , , , , ,1.478,-1.434,-112.885
 09:19:05.679,eb:33:2e:f9:57:b5, 2015-01-01 00:11:35.445,-0.011,0.001,1.059,27.344,44.617,-0.916, , , , , , ,1.609,-1.208,-112.885
 09:19:05.724,eb:33:2e:f9:57:b5, 2015-01-01 00:11:35.445,-0.038,0.014,1.037,28.687,41.992,-0.793, , , , , , ,1.752,-0.994,-112.879
 09:19:05.724,eb:33:2e:f9:57:b5, 2015-01-01 00:11:35.445,-0.068,0.033,1.008,28.931,39.124,-0.305, , , , , , ,1.895,-0.791,-112.879
 09:19:05.724,eb:33:2e:f9:57:b5, 2015-01-01 00:11:35.445,-0.051,0.032,1.044,29.358,35.706,-0.122, , , , , , ,2.043,-0.604,-112.868
 09:19:05.724,eb:33:2e:f9:57:b5, 2015-01-01 00:11:35.445,-0.058,0.013,1.035,30.701,33.264,0.122, , , , , , ,2.197,-0.434,-112.863
 09:19:05.724,eb:33:2e:f9:57:b5, 2015-01-01 00:11:35.445,-0.034,0.005,1.026,31.982,31.677,1.038, , , , , , ,2.351,-0.275,-112.852
 09:19:05.724,eb:33:2e:f9:57:b5, 2015-01-01 00:11:35.445,-0.005,0.007,1.05,33.508,31.616,2.258, , , , , , ,2.516,-0.121,-112.835
 09:19:05.724,eb:33:2e:f9:57:b5, 2015-01-01 00:11:35.445,-0.03,0.007,1.087,36.255,31.555,3.723, , , , , , ,2.697,0.038,-112.813
 09:19:05.724,eb:33:2e:f9:57:b5, 2015-01-01 00:11:35.445,-0.063,0.014,1.071,43.335,23.071,5.493, , , , , , ,2.9,0.17,-112.78
 09:19:05.769,eb:33:2e:f9:57:b5, 2015-01-01 00:11:35.445,-0.022,-0.048,1.18,52.734,14.16,7.507, , , , , , ,3.142,0.253,-112.742
 09:19:05.769,eb:33:2e:f9:57:b5, 2015-01-01 00:11:35.445,-0.038,0.001,1.183,58.899,10.925,8.85, , , , , , ,3.428,0.313,-112.698
 09:19:05.769,eb:33:2e:f9:57:b5, 2015-01-01 00:11:35.445,-0.058,-0.002,1.296,62.561,9.338,8.362, , , , , , ,3.735,0.363,-112.654
 09:19:05.769,eb:33:2e:f9:57:b5, 2015-01-01 00:11:35.445,-0.039,-0.034,1.271,67.749,9.155,9.705, , , , , , ,4.065,0.406,-112.604
 09:19:05.769,eb:33:2e:f9:57:b5, 2015-01-01 00:11:35.445,0.005,0.018,1.209,73.12,4.15,9.216, , , , , , ,4.422,0.428,-112.549
 09:19:05.769,eb:33:2e:f9:57:b5, 2015-01-01 00:11:35.445,-0.036,0.031,1.237,77.271,2.136,7.568, , , , , , ,4.801,0.439,-112.511
 09:19:05.769,eb:33:2e:f9:57:b5, 2015-01-01 00:11:35.445,-0.04,-0.006,1.243,82.153,1.282,7.874, , , , , , ,5.202,0.45,-112.467
 09:19:05.769,eb:33:2e:f9:57:b5, 2015-01-01 00:11:35.445,-0.06,0.031,1.314,86.914,0,6.531, , , , , , ,5.63,0.445,-112.434
 09:19:05.814,eb:33:2e:f9:57:b5, 2015-01-01 00:11:35.445,-0.083,-0.014,1.351,88.867,1.587,6.165, , , , , , ,6.07,0.445,-112.401
 09:19:05.814,eb:33:2e:f9:57:b5, 2015-01-01 00:11:35.445,-0.053,-0.057,1.316,93.994,2.991,8.362, , , , , , ,6.531,0.456,-112.363
 09:19:05.814,eb:33:2e:f9:57:b5, 2015-01-01 00:11:35.445,-0.017,0.012,1.23,99.487,0.305,8.728, , , , , , ,7.02,0.461,-112.319
 09:19:05.814,eb:33:2e:f9:57:b5, 2015-01-01 00:11:35.445,-0.058,0.054,1.195,104.797,-3.906,7.446, , , , , , ,7.537,0.445,-112.28
 09:19:05.814,eb:33:2e:f9:57:b5, 2015-01-01 00:11:35.445,-0.053,0.034,1.22,108.521,-5.615,7.446, , , , , , ,8.069,0.412,-112.242
 09:19:05.814,eb:33:2e:f9:57:b5, 2015-01-01 00:11:35.445,-0.007,0.027,1.235,113.464,-7.629,7.69, , , , , , ,8.63,0.374,-112.209
 09:19:05.814,eb:33:2e:f9:57:b5, 2015-01-01 00:11:35.445,0.033,0.076,1.188,118.53,-12.024,6.226, , , , , , ,9.218,0.319,-112.181
 09:19:05.814,eb:33:2e:f9:57:b5, 2015-01-01 00:11:35.445,0.035,0.101,1.16,123.108,-16.357,3.601, , , , , , ,9.822,0.242,-112.17
 09:19:05.836,eb:33:2e:f9:57:b5, 2015-01-01 00:11:35.445,0.039,0.095,1.205,127.136,-17.7,1.77, , , , , , ,10.448,0.154,-112.176
 09:19:05.836,eb:33:2e:f9:57:b5, 2015-01-01 00:11:35.445,0.105,0.105,1.343,128.845,-14.832,0.549, , , , , , ,11.096,0.071,-112.187
 09:19:05.836,eb:33:2e:f9:57:b5, 2015-01-01 00:11:35.445,0.158,0.05,1.427,133.545,-8.057,0.183, , , , , , ,11.755,0.022,-112.192
 09:19:05.836,eb:33:2e:f9:57:b5, 2015-01-01 00:11:35.445,0.233,0.102,1.369,139.893,-4.883,-2.38, , , , , , ,12.442,-0.005,-112.203
 09:19:05.836,eb:33:2e:f9:57:b5, 2015-01-01 00:11:35.445,0.273,0.14,1.347,146.118,-3.113,-6.714, , , , , , ,13.162,-0.016,-112.231
 09:19:05.836,eb:33:2e:f9:57:b5, 2015-01-01 00:11:35.445,0.303,0.143,1.396,152.588,0.854,-11.23, , , , , , ,13.909,-0.011,-112.28
 09:19:05.836,eb:33:2e:f9:57:b5, 2015-01-01 00:11:35.445,0.337,0.142,1.476,159.241,7.629,-15.93, , , , , , ,14.694,0.027,-112.341
 09:19:05.836,eb:33:2e:f9:57:b5, 2015-01-01 00:11:35.445,0.345,0.132,1.528,166.87,15.808,-20.752, , , , , , ,15.513,0.11,-112.418
 09:19:05.882,eb:33:2e:f9:57:b5, 2015-01-01 00:11:35.445,0.359,0.139,1.563,175.171,24.353,-25.879, , , , , , ,16.375,0.242,-112.5
 09:19:05.882,eb:33:2e:f9:57:b5, 2015-01-01 00:11:35.445,0.373,0.137,1.621,183.411,33.02,-30.945, , , , , , ,17.271,0.428,-112.599
 09:19:05.882,eb:33:2e:f9:57:b5, 2015-01-01 00:11:35.445,0.354,0.101,1.663,193.298,41.748,-35.461, , , , , , ,18.221,0.659,-112.698
 09:19:05.882,eb:33:2e:f9:57:b5, 2015-01-01 00:11:35.445,0.387,0.089,1.698,204.224,50.049,-39.673, , , , , , ,19.221,0.945,-112.802
 09:19:05.882,eb:33:2e:f9:57:b5, 2015-01-01 00:11:35.445,0.435,0.114,1.759,216.553,55.298,-44.495, , , , , , ,20.275,1.269,-112.912
 09:19:05.882,eb:33:2e:f9:57:b5, 2015-01-01 00:11:35.445,0.485,0.158,1.859,228.699,58.899,-50.964, , , , , , ,21.39,1.62,-113.038
 09:19:05.882,eb:33:2e:f9:57:b5, 2015-01-01 00:11:35.445,0.534,0.12,1.972,242.554,64.087,-57.251, , , , , , ,22.571,2.01,-113.176
 09:19:05.882,eb:33:2e:f9:57:b5, 2015-01-01 00:11:35.445,0.558,0.153,2.178,255.31,72.083,-62.805, , , , , , ,23.818,2.444,-113.318
 09:19:05.926,eb:33:2e:f9:57:b5, 2015-01-01 00:11:35.445,0.577,0.092,2.292,270.264,82.642,-67.81, , , , , , ,25.131,2.939,-113.456
 09:19:05.926,eb:33:2e:f9:57:b5, 2015-01-01 00:11:35.445,0.6,0.133,2.308,284.729,88.867,-72.876, , , , , , ,26.521,3.483,-113.582
 09:19:05.926,eb:33:2e:f9:57:b5, 2015-01-01 00:11:35.445,0.535,0.162,2.231,301.758,88.806,-78.43, , , , , , ,27.988,4.054,-113.719
 09:19:05.926,eb:33:2e:f9:57:b5, 2015-01-01 00:11:35.445,0.575,0.235,2.23,317.322,76.843,-85.266, , , , , , ,29.531,4.614,-113.884
 09:19:05.926,eb:33:2e:f9:57:b5, 2015-01-01 00:11:35.445,0.537,0.136,2.278,332.153,65.674,-93.384, , , , , , ,31.141,5.142,-114.093
 09:19:05.926,eb:33:2e:f9:57:b5, 2015-01-01 00:11:35.445,0.597,0.21,2.575,344.238,59.509,-102.966, , , , , , ,32.816,5.663,-114.357
 09:19:05.926,eb:33:2e:f9:57:b5, 2015-01-01 00:11:35.445,0.544,0.079,3.043,350.464,73.242,-109.741, , , , , , ,34.53,6.235,-114.626
 09:19:05.927,eb:33:2e:f9:57:b5, 2015-01-01 00:11:35.445,0.584,-0.347,3.161,364.624,96.924,-109.497, , , , , , ,36.299,6.91,-114.818
 09:19:05.971,eb:33:2e:f9:57:b5, 2015-01-01 00:11:35.755,0.506,-0.516,2.873,382.08,115.356,-109.863, , , , , , ,38.161,7.674,-114.922
 09:19:05.971,eb:33:2e:f9:57:b5, 2015-01-01 00:11:35.755,0.525,-0.375,2.737,398.438,120.178,-114.441, , , , , , ,40.111,8.487,-114.983
 09:19:05.972,eb:33:2e:f9:57:b5, 2015-01-01 00:11:35.755,0.453,-0.282,2.759,414.673,122.62,-119.08, , , , , , ,42.144,9.333,-115.027
 09:19:05.972,eb:33:2e:f9:57:b5, 2015-01-01 00:11:35.755,0.481,-0.039,2.726,422.791,121.704,-126.099, , , , , , ,44.236,10.201,-115.06
 09:19:05.972,eb:33:2e:f9:57:b5, 2015-01-01 00:11:35.755,0.43,-0.129,2.893,423.767,122.253,-128.967, , , , , , ,46.351,11.074,-115.076
 09:19:05.972,eb:33:2e:f9:57:b5, 2015-01-01 00:11:35.755,0.276,-0.359,3.022,410.278,157.288,-129.822, , , , , , ,48.455,12.03,-115.005
 09:19:05.972,eb:33:2e:f9:57:b5, 2015-01-01 00:11:35.755,0.314,-0.641,3.366,402.649,213.928,-116.089, , , , , , ,50.543,13.112,-114.67
 09:19:05.972,eb:33:2e:f9:57:b5, 2015-01-01 00:11:35.755,0.766,-0.667,3.135,405.884,256.042,-105.835, , , , , , ,52.712,14.288,-114.049
 09:19:06.016,eb:33:2e:f9:57:b5, 2015-01-01 00:11:35.755,0.552,-0.676,2.812,395.447,306.274,-96.924, , , , , , ,54.948,15.535,-113.159
 09:19:06.016,eb:33:2e:f9:57:b5, 2015-01-01 00:11:35.755,0.15,-0.88,1.371,357.727,323.914,-81.055, , , , , , ,57.134,16.793,-112.039
 09:19:06.016,eb:33:2e:f9:57:b5, 2015-01-01 00:11:35.755,0.183,-0.74,-0.13,303.223,308.838,-59.998, , , , , , ,59.112,17.919,-110.825
 09:19:06.016,eb:33:2e:f9:57:b5, 2015-01-01 00:11:35.755,0.557,-0.696,-0.313,274.536,265.93,-41.87, , , , , , ,60.897,18.836,-109.655
 09:19:06.016,eb:33:2e:f9:57:b5, 2015-01-01 00:11:35.755,0.735,-0.694,0.001,262.146,209.9,-34.912, , , , , , ,62.562,19.561,-108.655
 09:19:06.016,eb:33:2e:f9:57:b5, 2015-01-01 00:11:35.755,-0.328,-2.113,-1.269,208.496,143.127,-29.297, , , , , , ,63.979,20.072,-107.913
 09:19:06.017,eb:33:2e:f9:57:b5, 2015-01-01 00:11:35.755,0.154,-0.181,-2.202,95.337,42.114,-12.329, , , , , , ,64.814,20.325,-107.595
 09:19:06.017,eb:33:2e:f9:57:b5, 2015-01-01 00:11:35.755,0.294,0.713,-0.528,-23.315,12.268,4.7, , , , , , ,64.94,20.391,-107.496
 09:19:06.038,eb:33:2e:f9:57:b5, 2015-01-01 00:11:35.755,0.171,-0.261,0.651,-80.078,7.568,16.541, , , , , , ,64.66,20.341,-107.419
 09:19:06.038,eb:33:2e:f9:57:b5, 2015-01-01 00:11:35.755,0.545,-1.024,0.591,-104.858,-13.977,25.635, , , , , , ,64.188,20.231,-107.402
 09:19:06.038,eb:33:2e:f9:57:b5, 2015-01-01 00:11:35.755,0.426,-1.511,0.842,-129.517,4.944,35.889, , , , , , ,63.594,20.078,-107.358
 09:19:06.038,eb:33:2e:f9:57:b5, 2015-01-01 00:11:35.755,0.468,-1.586,0.829,-141.968,26.245,46.143, , , , , , ,62.963,19.929,-107.172
 09:19:06.038,eb:33:2e:f9:57:b5, 2015-01-01 00:11:35.755,0.55,-1.337,0.969,-134.46,42.542,51.88, , , , , , ,62.369,19.792,-106.87
 09:19:06.038,eb:33:2e:f9:57:b5, 2015-01-01 00:11:35.755,0.528,-1.002,0.998,-117.31,53.833,53.284, , , , , , ,61.87,19.671,-106.507
 09:19:06.038,eb:33:2e:f9:57:b5, 2015-01-01 00:11:35.755,0.502,-0.796,0.738,-101.318,53.833,51.697, , , , , , ,61.447,19.567,-106.128
 09:19:06.038,eb:33:2e:f9:57:b5, 2015-01-01 00:11:35.755,0.508,-0.76,0.348,-90.149,42.847,48.95, , , , , , ,61.095,19.462,-105.776
 09:19:06.087,eb:33:2e:f9:57:b5, 2015-01-01 00:11:35.755,0.502,-0.769,0.031,-85.022,25.94,45.837, , , , , , ,60.749,19.336,-105.496
 09:19:06.087,eb:33:2e:f9:57:b5, 2015-01-01 00:11:35.755,0.479,-0.718,-0.151,-85.754,4.456,41.931, , , , , , ,60.381,19.182,-105.32
 09:19:06.087,eb:33:2e:f9:57:b5, 2015-01-01 00:11:35.755,0.441,-0.644,-0.208,-91.492,-19.104,37.842, , , , , , ,59.941,18.984,-105.271
 09:19:06.087,eb:33:2e:f9:57:b5, 2015-01-01 00:11:35.755,0.398,-0.607,-0.198,-102.478,-40.588,34.302, , , , , , ,59.436,18.748,-105.326
 09:19:06.087,eb:33:2e:f9:57:b5, 2015-01-01 00:11:35.755,0.354,-0.627,-0.155,-119.263,-56.763,32.41, , , , , , ,58.832,18.474,-105.463
 09:19:06.087,eb:33:2e:f9:57:b5, 2015-01-01 00:11:35.755,0.317,-0.677,-0.077,-140.747,-66.467,32.471, , , , , , ,58.112,18.171,-105.656
 09:19:06.087,eb:33:2e:f9:57:b5, 2015-01-01 00:11:35.755,0.287,-0.718,0.036,-164.124,-69.824,34.119, , , , , , ,57.255,17.842,-105.881
 09:19:06.087,eb:33:2e:f9:57:b5, 2015-01-01 00:11:35.755,0.265,-0.737,0.16,-187.073,-68.665,37.109, , , , , , ,56.305,17.501,-106.084
 09:19:06.128,eb:33:2e:f9:57:b5, 2015-01-01 00:11:35.755,0.253,-0.736,0.261,-208.191,-65.491,41.077, , , , , , ,55.25,17.15,-106.249
 09:19:06.128,eb:33:2e:f9:57:b5, 2015-01-01 00:11:35.755,0.248,-0.716,0.312,-227.478,-62.927,45.105, , , , , , ,54.108,16.787,-106.392
 09:19:06.128,eb:33:2e:f9:57:b5, 2015-01-01 00:11:35.755,0.251,-0.678,0.311,-245.239,-63.049,48.706, , , , , , ,52.866,16.408,-106.518
 09:19:06.128,eb:33:2e:f9:57:b5, 2015-01-01 00:11:35.755,0.258,-0.635,0.298,-260.925,-66.589,51.331, , , , , , ,51.564,16.007,-106.622
 09:19:06.128,eb:33:2e:f9:57:b5, 2015-01-01 00:11:35.755,0.271,-0.592,0.316,-273.865,-73.059,53.162, , , , , , ,50.186,15.584,-106.732
 09:19:06.128,eb:33:2e:f9:57:b5, 2015-01-01 00:11:35.755,0.286,-0.55,0.376,-283.142,-80.872,54.565, , , , , , ,48.757,15.128,-106.859
 09:19:06.128,eb:33:2e:f9:57:b5, 2015-01-01 00:11:35.755,0.289,-0.496,0.483,-289.978,-90.393,55.42, , , , , , ,47.263,14.628,-107.007
 09:19:06.128,eb:33:2e:f9:57:b5, 2015-01-01 00:11:35.755,0.284,-0.446,0.555,-293.701,-97.778,55.908, , , , , , ,45.764,14.095,-107.166
 09:19:06.219,eb:33:2e:f9:57:b5, 2015-01-01 00:11:35.755,0.282,-0.399,0.605,-297.302,-104.126,56.58, , , , , , ,44.242,13.541,-107.325
 09:19:06.219,eb:33:2e:f9:57:b5, 2015-01-01 00:11:35.755,0.279,-0.355,0.667,-301.27,-108.887,57.434, , , , , , ,42.709,12.953,-107.496
 09:19:06.219,eb:33:2e:f9:57:b5, 2015-01-01 00:11:35.755,0.278,-0.307,0.738,-305.481,-112.61,58.105, , , , , , ,41.133,12.343,-107.661
 09:19:06.219,eb:33:2e:f9:57:b5, 2015-01-01 00:11:35.755,0.286,-0.25,0.813,-309.265,-115.54,58.594, , , , , , ,39.562,11.717,-107.814
 09:19:06.219,eb:33:2e:f9:57:b5, 2015-01-01 00:11:35.755,0.297,-0.191,0.893,-312.439,-117.798,58.777, , , , , , ,37.98,11.074,-107.952
 09:19:06.219,eb:33:2e:f9:57:b5, 2015-01-01 00:11:35.755,0.312,-0.133,0.964,-315.125,-119.873,58.228, , , , , , ,36.387,10.421,-108.083
 09:19:06.220,eb:33:2e:f9:57:b5, 2015-01-01 00:11:35.755,0.329,-0.074,1.021,-317.566,-122.314,56.824, , , , , , ,34.761,9.756,-108.21
 09:19:06.220,eb:33:2e:f9:57:b5, 2015-01-01 00:11:35.755,0.336,-0.014,1.066,-320.19,-125.061,54.504, , , , , , ,33.146,9.086,-108.331
 09:19:06.220,eb:33:2e:f9:57:b5, 2015-01-01 00:11:35.755,0.339,0.042,1.11,-322.693,-128.357,51.27, , , , , , ,31.52,8.41,-108.446
 09:19:06.220,eb:33:2e:f9:57:b5, 2015-01-01 00:11:35.755,0.34,0.087,1.16,-324.524,-132.08,47.241, , , , , , ,29.883,7.723,-108.567
 09:19:06.220,eb:33:2e:f9:57:b5, 2015-01-01 00:11:35.755,0.327,0.129,1.206,-325.867,-136.23,42.664, , , , , , ,28.218,7.02,-108.71
 09:19:06.220,eb:33:2e:f9:57:b5, 2015-01-01 00:11:35.755,0.315,0.165,1.244,-326.599,-140.32,38.025, , , , , , ,26.57,6.312,-108.853
 09:19:06.220,eb:33:2e:f9:57:b5, 2015-01-01 00:11:35.755,0.297,0.175,1.317,-326.66,-142.883,33.813, , , , , , ,24.922,5.592,-109.001
 09:19:06.220,eb:33:2e:f9:57:b5, 2015-01-01 00:11:35.755,0.263,0.17,1.413,-326.172,-142.883,30.701, , , , , , ,23.275,4.872,-109.149
 09:19:06.220,eb:33:2e:f9:57:b5, 2015-01-01 00:11:35.755,0.221,0.16,1.511,-325.012,-140.381,29.358, , , , , , ,21.616,4.153,-109.286
 09:19:06.220,eb:33:2e:f9:57:b5, 2015-01-01 00:11:35.755,0.181,0.144,1.612,-323.364,-135.803,29.602, , , , , , ,19.99,3.455,-109.396
 09:19:06.264,eb:33:2e:f9:57:b5, 2015-01-01 00:11:35.755,0.149,0.131,1.695,-321.167,-130.31,31.311, , , , , , ,18.375,2.78,-109.468
 09:19:06.264,eb:33:2e:f9:57:b5, 2015-01-01 00:11:35.755,0.14,0.121,1.743,-318.848,-125.244,34.241, , , , , , ,16.776,2.126,-109.506
 09:19:06.264,eb:33:2e:f9:57:b5, 2015-01-01 00:11:35.755,0.153,0.116,1.763,-316.162,-121.704,37.537, , , , , , ,15.167,1.472,-109.506
 09:19:06.264,eb:33:2e:f9:57:b5, 2015-01-01 00:11:35.755,0.187,0.129,1.768,-312.744,-120.667,40.344, , , , , , ,13.596,0.84,-109.462
 09:19:06.264,eb:33:2e:f9:57:b5, 2015-01-01 00:11:35.755,0.232,0.162,1.766,-308.716,-122.375,42.114, , , , , , ,12.047,0.198,-109.396
 09:19:06.264,eb:33:2e:f9:57:b5, 2015-01-01 00:11:35.755,0.278,0.21,1.773,-304.016,-125.977,42.419, , , , , , ,10.514,-0.445,-109.308
 09:19:06.264,eb:33:2e:f9:57:b5, 2015-01-01 00:11:35.755,0.324,0.264,1.792,-298.95,-130.554,41.382, , , , , , ,8.987,-1.126,-109.215
 09:19:06.264,eb:33:2e:f9:57:b5, 2015-01-01 00:11:35.755,0.369,0.318,1.828,-294.067,-134.583,39.307, , , , , , ,7.504,-1.813,-109.111
 09:19:06.287,eb:33:2e:f9:57:b5, 2015-01-01 00:11:35.755,0.4,0.364,1.89,-289.795,-136.841,36.56, , , , , , ,6.042,-2.51,-109.006
 09:19:06.287,eb:33:2e:f9:57:b5, 2015-01-01 00:11:35.755,0.407,0.408,1.95,-286.621,-137.512,33.447, , , , , , ,4.598,-3.214,-108.896
 09:19:06.287,eb:33:2e:f9:57:b5, 2015-01-01 00:11:35.755,0.398,0.445,1.986,-286.011,-137.512,30.457, , , , , , ,3.142,-3.917,-108.787
 09:19:06.287,eb:33:2e:f9:57:b5, 2015-01-01 00:11:35.755,0.369,0.462,1.997,-288.208,-136.963,27.893, , , , , , ,1.697,-4.609,-108.671
 09:19:06.287,eb:33:2e:f9:57:b5, 2015-01-01 00:11:35.755,0.329,0.462,1.979,-292.725,-137.634,25.696, , , , , , ,0.231,-5.301,-108.55
 09:19:06.287,eb:33:2e:f9:57:b5, 2015-01-01 00:11:35.755,0.287,0.453,1.954,-298.34,-140.564,23.743, , , , , , ,-1.258,-5.993,-108.424
 09:19:06.287,eb:33:2e:f9:57:b5, 2015-01-01 00:11:35.755,0.243,0.451,1.939,-303.894,-145.813,22.034, , , , , , ,-2.802,-6.718,-108.287
 09:19:06.287,eb:33:2e:f9:57:b5, 2015-01-01 00:11:35.755,0.178,0.419,1.967,-307.373,-153.015,20.813, , , , , , ,-4.351,-7.46,-108.127
 09:19:06.331,eb:33:2e:f9:57:b5, 2015-01-01 00:11:36.115,0.155,0.427,2.032,-308.533,-161.133,18.616, , , , , , ,-5.916,-8.24,-107.963
 09:19:06.331,eb:33:2e:f9:57:b5, 2015-01-01 00:11:36.115,0.133,0.485,2.098,-306.702,-167.358,16.724, , , , , , ,-7.482,-9.047,-107.776
 09:19:06.331,eb:33:2e:f9:57:b5, 2015-01-01 00:11:36.115,0.1,0.545,2.192,-302.551,-171.387,14.526, , , , , , ,-9.053,-9.888,-107.573
 09:19:06.331,eb:33:2e:f9:57:b5, 2015-01-01 00:11:36.115,0.062,0.594,2.295,-296.265,-171.875,12.207, , , , , , ,-10.591,-10.728,-107.358
 09:19:06.331,eb:33:2e:f9:57:b5, 2015-01-01 00:11:36.115,0.035,0.654,2.375,-289.429,-168.213,10.315, , , , , , ,-12.09,-11.552,-107.133
 09:19:06.331,eb:33:2e:f9:57:b5, 2015-01-01 00:11:36.115,0.001,0.726,2.438,-283.142,-160.034,9.094, , , , , , ,-13.568,-12.338,-106.902
 09:19:06.331,eb:33:2e:f9:57:b5, 2015-01-01 00:11:36.115,-0.031,0.81,2.462,-278.076,-148.865,8.057, , , , , , ,-15.04,-13.079,-106.666
 09:19:06.331,eb:33:2e:f9:57:b5, 2015-01-01 00:11:36.115,-0.064,0.906,2.447,-273.926,-136.23,7.141, , , , , , ,-16.469,-13.749,-106.43
 09:19:06.379,eb:33:2e:f9:57:b5, 2015-01-01 00:11:36.115,-0.101,1.007,2.396,-269.287,-124.268,6.104, , , , , , ,-17.88,-14.354,-106.199
 09:19:06.379,eb:33:2e:f9:57:b5, 2015-01-01 00:11:36.115,-0.132,1.121,2.319,-263.062,-114.502,4.7, , , , , , ,-19.265,-14.908,-105.98
 09:19:06.379,eb:33:2e:f9:57:b5, 2015-01-01 00:11:36.115,-0.184,1.245,2.244,-254.272,-107.117,3.113, , , , , , ,-20.627,-15.425,-105.765
 09:19:06.379,eb:33:2e:f9:57:b5, 2015-01-01 00:11:36.115,-0.27,1.374,2.167,-242.188,-102.234,1.526, , , , , , ,-21.918,-15.908,-105.562
 09:19:06.379,eb:33:2e:f9:57:b5, 2015-01-01 00:11:36.115,-0.385,1.495,2.096,-226.257,-99.67,0.549, , , , , , ,-23.143,-16.37,-105.359
 09:19:06.379,eb:33:2e:f9:57:b5, 2015-01-01 00:11:36.115,-0.522,1.6,2.034,-206.299,-98.511,0.854, , , , , , ,-24.274,-16.82,-105.145
 09:19:06.379,eb:33:2e:f9:57:b5, 2015-01-01 00:11:36.115,-0.668,1.695,1.972,-183.167,-97.168,2.93, , , , , , ,-25.312,-17.265,-104.919
 09:19:06.379,eb:33:2e:f9:57:b5, 2015-01-01 00:11:36.115,-0.815,1.795,1.903,-158.142,-95.093,6.836, , , , , , ,-26.23,-17.688,-104.678
 09:19:06.399,eb:33:2e:f9:57:b5, 2015-01-01 00:11:36.115,-0.956,1.917,1.823,-132.08,-92.224,12.085, , , , , , ,-27.021,-18.083,-104.414
 09:19:06.399,eb:33:2e:f9:57:b5, 2015-01-01 00:11:36.115,-1.075,2.07,1.731,-106.018,-89.294,17.944, , , , , , ,-27.697,-18.452,-104.123
 09:19:06.399,eb:33:2e:f9:57:b5, 2015-01-01 00:11:36.115,-1.16,2.235,1.656,-80.566,-85.999,23.621, , , , , , ,-28.257,-18.792,-103.804
 09:19:06.399,eb:33:2e:f9:57:b5, 2015-01-01 00:11:36.115,-1.191,2.389,1.638,-55.603,-80.872,28.809, , , , , , ,-28.696,-19.094,-103.469
 09:19:06.399,eb:33:2e:f9:57:b5, 2015-01-01 00:11:36.115,-1.158,2.495,1.688,-30.823,-71.96,32.593, , , , , , ,-29.009,-19.347,-103.134
 09:19:06.399,eb:33:2e:f9:57:b5, 2015-01-01 00:11:36.115,-1.05,2.51,1.788,-5.859,-57.739,34.729, , , , , , ,-29.196,-19.545,-102.81
 09:19:06.399,eb:33:2e:f9:57:b5, 2015-01-01 00:11:36.115,-0.902,2.419,1.916,18.799,-36.682,35.4, , , , , , ,-29.246,-19.66,-102.524
 09:19:06.399,eb:33:2e:f9:57:b5, 2015-01-01 00:11:36.115,-0.762,2.251,2.007,41.687,-9.216,35.339, , , , , , ,-29.158,-19.666,-102.31
 09:19:06.445,eb:33:2e:f9:57:b5, 2015-01-01 00:11:36.115,-0.644,2.03,2.012,62.134,20.935,35.4, , , , , , ,-28.932,-19.539,-102.167
 09:19:06.445,eb:33:2e:f9:57:b5, 2015-01-01 00:11:36.115,-0.507,1.809,1.894,79.407,47.18,35.4, , , , , , ,-28.592,-19.292,-102.101
 09:19:06.445,eb:33:2e:f9:57:b5, 2015-01-01 00:11:36.115,-0.376,1.609,1.729,93.628,65.674,35.156, , , , , , ,-28.152,-18.946,-102.085
 09:19:06.445,eb:33:2e:f9:57:b5, 2015-01-01 00:11:36.115,-0.255,1.426,1.571,104.98,75.867,34.79, , , , , , ,-27.647,-18.545,-102.096
 09:19:06.445,eb:33:2e:f9:57:b5, 2015-01-01 00:11:36.115,-0.135,1.269,1.448,114.197,78.674,34.058, , , , , , ,-27.081,-18.122,-102.129
 09:19:06.445,eb:33:2e:f9:57:b5, 2015-01-01 00:11:36.115,-0.034,1.132,1.365,121.277,76.965,33.264, , , , , , ,-26.483,-17.699,-102.156
 09:19:06.445,eb:33:2e:f9:57:b5, 2015-01-01 00:11:36.115,0.045,1.008,1.299,126.099,72.815,32.288, , , , , , ,-25.845,-17.287,-102.173
 09:19:06.445,eb:33:2e:f9:57:b5, 2015-01-01 00:11:36.115,0.678,0.898,1.244,128.601,67.627,31.25, , , , , , ,-25.203,-16.908,-102.184
 09:19:06.489,eb:33:2e:f9:57:b5, 2015-01-01 00:11:36.115,0.909,-0.691,3.278,209.412,-2.869,-0.854, , , , , , ,-24.412,-16.776,-102.134
 09:19:06.489,eb:33:2e:f9:57:b5, 2015-01-01 00:11:36.115,1.297,-1.205,1.25,218.75,144.287,8.24, , , , , , ,-23.236,-16.035,-102.437
 09:19:06.489,eb:33:2e:f9:57:b5, 2015-01-01 00:11:36.115,0.8,-0.93,1.111,222.351,129.15,-11.902, , , , , , ,-22.044,-15.502,-102.711
 09:19:06.489,eb:33:2e:f9:57:b5, 2015-01-01 00:11:36.115,0.926,-0.704,1.284,224.548,157.227,-13.428, , , , , , ,-20.841,-14.826,-103.057
 09:19:06.489,eb:33:2e:f9:57:b5, 2015-01-01 00:11:36.115,-0.893,-1.017,1.239,232.422,180.664,-20.142, , , , , , ,-19.6,-14.057,-103.453
 09:19:06.489,eb:33:2e:f9:57:b5, 2015-01-01 00:11:36.115,-0.194,-1.919,1.157,279.419,186.34,22.278, , , , , , ,-18.232,-13.162,-103.733
 09:19:06.489,eb:33:2e:f9:57:b5, 2015-01-01 00:11:36.115,-0.945,-0.835,0.847,302.49,181.091,34.851, , , , , , ,-16.716,-12.239,-103.876
 09:19:06.489,eb:33:2e:f9:57:b5, 2015-01-01 00:11:36.115,-0.741,-0.673,0.585,319.763,160.583,43.823, , , , , , ,-15.145,-11.376,-103.903
 09:19:06.534,eb:33:2e:f9:57:b5, 2015-01-01 00:11:36.115,-0.66,0.167,0.686,309.265,122.314,30.64, , , , , , ,-13.563,-10.662,-103.898
 09:19:06.534,eb:33:2e:f9:57:b5, 2015-01-01 00:11:36.115,-0.498,0.588,0.895,284.79,96.375,7.996, , , , , , ,-12.085,-10.124,-103.931
 09:19:06.534,eb:33:2e:f9:57:b5, 2015-01-01 00:11:36.115,-0.171,0.738,0.973,256.348,71.716,-16.907, , , , , , ,-10.717,-9.734,-104.046
 09:19:06.534,eb:33:2e:f9:57:b5, 2015-01-01 00:11:36.115,-0.048,0.733,1.301,220.764,52.368,-42.725, , , , , , ,-9.503,-9.465,-104.266
 09:19:06.534,eb:33:2e:f9:57:b5, 2015-01-01 00:11:36.115,-0.094,0.665,1.328,183.96,34.546,-60.425, , , , , , ,-8.465,-9.3,-104.568
 09:19:06.534,eb:33:2e:f9:57:b5, 2015-01-01 00:11:36.115,-0.175,0.207,1.191,167.175,22.034,-70.068, , , , , , ,-7.548,-9.218,-104.925
 09:19:06.534,eb:33:2e:f9:57:b5, 2015-01-01 00:11:36.115,-0.208,0.113,1.088,156.86,9.827,-76.538, , , , , , ,-6.674,-9.19,-105.304
 09:19:06.534,eb:33:2e:f9:57:b5, 2015-01-01 00:11:36.115,-0.065,0.202,1.129,140.564,-2.625,-76.782, , , , , , ,-5.867,-9.218,-105.694
 09:19:06.578,eb:33:2e:f9:57:b5, 2015-01-01 00:11:36.115,0.007,0.221,1.077,122.559,-8.728,-70.19, , , , , , ,-5.164,-9.289,-106.062
 09:19:06.578,eb:33:2e:f9:57:b5, 2015-01-01 00:11:36.115,0.082,0.141,1.076,109.863,-7.507,-59.265, , , , , , ,-4.537,-9.36,-106.381
 09:19:06.578,eb:33:2e:f9:57:b5, 2015-01-01 00:11:36.115,0.134,0.17,1.059,96.924,-6.897,-50.049, , , , , , ,-3.972,-9.41,-106.65
 09:19:06.578,eb:33:2e:f9:57:b5, 2015-01-01 00:11:36.115,0.154,0.161,1.044,84.29,-5.249,-40.466, , , , , , ,-3.494,-9.454,-106.87
 09:19:06.578,eb:33:2e:f9:57:b5, 2015-01-01 00:11:36.115,0.202,0.138,1.038,73.059,-4.761,-31.25, , , , , , ,-3.071,-9.487,-107.045
 09:19:06.578,eb:33:2e:f9:57:b5, 2015-01-01 00:11:36.115,0.249,0.159,1.018,61.523,-4.089,-22.461, , , , , , ,-2.725,-9.52,-107.177
 09:19:06.578,eb:33:2e:f9:57:b5, 2015-01-01 00:11:36.115,0.298,0.183,1.039,49.194,-2.197,-13.977, , , , , , ,-2.422,-9.531,-107.265
 09:19:06.578,eb:33:2e:f9:57:b5, 2015-01-01 00:11:36.115,0.311,0.197,1.053,36.499,1.16,-5.188, , , , , , ,-2.214,-9.536,-107.309
 09:19:06.601,eb:33:2e:f9:57:b5, 2015-01-01 00:11:36.405,0.224,0.125,1.044,29.419,7.263,0.488, , , , , , ,-2.049,-9.509,-107.314
 09:19:06.601,eb:33:2e:f9:57:b5, 2015-01-01 00:11:36.405,0.178,0.073,1.015,24.902,9.949,4.761, , , , , , ,-1.923,-9.465,-107.303
 09:19:06.601,eb:33:2e:f9:57:b5, 2015-01-01 00:11:36.405,0.145,0.054,1.002,22.156,10.986,6.958, , , , , , ,-1.802,-9.41,-107.271
 09:19:06.601,eb:33:2e:f9:57:b5, 2015-01-01 00:11:36.405,0.112,0.06,0.992,19.592,10.925,7.141, , , , , , ,-1.703,-9.349,-107.238
 09:19:06.601,eb:33:2e:f9:57:b5, 2015-01-01 00:11:36.405,0.104,0.039,0.981,17.578,7.385,6.714, , , , , , ,-1.615,-9.305,-107.205
 09:19:06.601,eb:33:2e:f9:57:b5, 2015-01-01 00:11:36.405,0.097,0.01,0.997,16.663,3.723,6.042, , , , , , ,-1.538,-9.278,-107.172
 09:19:06.601,eb:33:2e:f9:57:b5, 2015-01-01 00:11:36.405,0.112,0.001,1.001,16.541,0.122,5.127, , , , , , ,-1.45,-9.267,-107.144
 09:19:06.601,eb:33:2e:f9:57:b5, 2015-01-01 00:11:36.405,0.11,0.003,1.009,16.418,-2.869,3.296, , , , , , ,-1.373,-9.278,-107.122
 09:19:06.646,eb:33:2e:f9:57:b5, 2015-01-01 00:11:36.405,0.1,0.008,1.002,16.235,-6.409,1.038, , , , , , ,-1.291,-9.3,-107.111
 09:19:06.646,eb:33:2e:f9:57:b5, 2015-01-01 00:11:36.405,0.112,-0.005,1.002,16.541,-9.583,-0.854, , , , , , ,-1.208,-9.344,-107.111
 09:19:06.646,eb:33:2e:f9:57:b5, 2015-01-01 00:11:36.405,0.121,-0.012,1.005,17.273,-12.024,-2.93, , , , , , ,-1.115,-9.399,-107.122
 09:19:06.646,eb:33:2e:f9:57:b5, 2015-01-01 00:11:36.405,0.104,-0.015,1.002,18.433,-14.343,-5.188, , , , , , ,-1.022,-9.465,-107.139
 09:19:06.646,eb:33:2e:f9:57:b5, 2015-01-01 00:11:36.405,0.084,-0.02,0.997,19.47,-16.968,-6.836, , , , , , ,-0.923,-9.547,-107.172
 09:19:06.646,eb:33:2e:f9:57:b5, 2015-01-01 00:11:36.405,0.1,-0.03,1.001,20.813,-20.203,-7.812, , , , , , ,-0.813,-9.641,-107.21
 09:19:06.646,eb:33:2e:f9:57:b5, 2015-01-01 00:11:36.405,0.132,-0.017,1,21.667,-22.583,-8.911, , , , , , ,-0.692,-9.745,-107.249
 09:19:06.646,eb:33:2e:f9:57:b5, 2015-01-01 00:11:36.405,0.174,-0.011,1.007,22.461,-23.804,-9.399, , , , , , ,-0.571,-9.866,-107.292
 09:19:06.693,eb:33:2e:f9:57:b5, 2015-01-01 00:11:36.405,0.239,-0.013,1.026,23.376,-23.193,-9.033, , , , , , ,-0.45,-9.987,-107.342
 09:19:06.693,eb:33:2e:f9:57:b5, 2015-01-01 00:11:36.405,0.264,0.021,1.028,23.132,-20.02,-9.521, , , , , , ,-0.324,-10.091,-107.386
 09:19:06.693,eb:33:2e:f9:57:b5, 2015-01-01 00:11:36.405,0.242,0.032,1.021,21.973,-15.381,-9.399, , , , , , ,-0.192,-10.173,-107.435
 09:19:06.693,eb:33:2e:f9:57:b5, 2015-01-01 00:11:36.405,0.212,0.036,1.002,20.569,-10.986,-8.301, , , , , , ,-0.082,-10.239,-107.479
 09:19:06.693,eb:33:2e:f9:57:b5, 2015-01-01 00:11:36.405,0.189,0.04,0.974,19.104,-7.385,-6.653, , , , , , ,0.022,-10.283,-107.518
 09:19:06.693,eb:33:2e:f9:57:b5, 2015-01-01 00:11:36.405,0.187,0.033,0.962,18.066,-4.944,-4.883, , , , , , ,0.115,-10.316,-107.545
 09:19:06.693,eb:33:2e:f9:57:b5, 2015-01-01 00:11:36.405,0.196,0.022,0.963,17.822,-2.991,-3.845, , , , , , ,0.22,-10.327,-107.567
 09:19:06.693,eb:33:2e:f9:57:b5, 2015-01-01 00:11:36.405,0.209,0.01,0.981,18.127,-0.916,-3.357, , , , , , ,0.313,-10.338,-107.584
 09:19:06.738,eb:33:2e:f9:57:b5, 2015-01-01 00:11:36.405,0.198,0.013,0.991,18.555,1.282,-3.296, , , , , , ,0.406,-10.338,-107.6
 09:19:06.738,eb:33:2e:f9:57:b5, 2015-01-01 00:11:36.405,0.192,0.02,0.987,18.433,3.54,-2.991, , , , , , ,0.505,-10.327,-107.617
 09:19:06.738,eb:33:2e:f9:57:b5, 2015-01-01 00:11:36.405,0.182,0.027,0.98,18.066,5.493,-2.563, , , , , , ,0.604,-10.3,-107.633
 09:19:06.738,eb:33:2e:f9:57:b5, 2015-01-01 00:11:36.405,0.184,0.03,0.977,17.578,7.385,-1.953, , , , , , ,0.698,-10.267,-107.644
 09:19:06.738,eb:33:2e:f9:57:b5, 2015-01-01 00:11:36.405,0.177,0.034,0.978,17.09,9.338,-1.404, , , , , , ,0.786,-10.223,-107.65
 09:19:06.738,eb:33:2e:f9:57:b5, 2015-01-01 00:11:36.405,0.173,0.024,0.98,17.029,11.23,-0.671, , , , , , ,0.873,-10.168,-107.655
 09:19:06.738,eb:33:2e:f9:57:b5, 2015-01-01 00:11:36.405,0.158,0.027,0.98,17.212,12.817,0, , , , , , ,0.967,-10.107,-107.655
 09:19:06.738,eb:33:2e:f9:57:b5, 2015-01-01 00:11:36.405,0.165,0.029,0.975,17.09,13.916,0.854, , , , , , ,1.049,-10.036,-107.655
 09:19:06.781,eb:33:2e:f9:57:b5, 2015-01-01 00:11:36.405,0.165,0.046,0.961,16.174,15.137,1.099, , , , , , ,1.132,-9.965,-107.644
 09:19:06.781,eb:33:2e:f9:57:b5, 2015-01-01 00:11:36.405,0.171,0.051,0.956,15.076,16.357,1.404, , , , , , ,1.208,-9.888,-107.639
 09:19:06.781,eb:33:2e:f9:57:b5, 2015-01-01 00:11:36.405,0.179,0.055,0.956,14.099,17.517,1.526, , , , , , ,1.291,-9.8,-107.628
 09:19:06.782,eb:33:2e:f9:57:b5, 2015-01-01 00:11:36.405,0.193,0.055,0.965,13.184,19.409,1.465, , , , , , ,1.357,-9.706,-107.617
 09:19:06.782,eb:33:2e:f9:57:b5, 2015-01-01 00:11:36.405,0.208,0.058,0.973,12.268,22.034,1.587, , , , , , ,1.417,-9.602,-107.606
 09:19:06.782,eb:33:2e:f9:57:b5, 2015-01-01 00:11:36.405,0.218,0.055,0.988,11.597,25.757,1.77, , , , , , ,1.472,-9.481,-107.595
 09:19:06.782,eb:33:2e:f9:57:b5, 2015-01-01 00:11:36.405,0.22,0.06,0.994,10.742,30.457,1.648, , , , , , ,1.538,-9.333,-107.584
 09:19:06.782,eb:33:2e:f9:57:b5, 2015-01-01 00:11:36.405,0.226,0.058,1.002,10.01,35.767,1.465, , , , , , ,1.588,-9.168,-107.573
 09:19:06.804,eb:33:2e:f9:57:b5, 2015-01-01 00:11:36.405,0.221,0.052,1.009,9.583,41.016,1.099, , , , , , ,1.631,-8.976,-107.562
 09:19:06.804,eb:33:2e:f9:57:b5, 2015-01-01 00:11:36.405,0.23,0.046,1.007,9.583,46.326,0.732, , , , , , ,1.681,-8.756,-107.551
 09:19:06.804,eb:33:2e:f9:57:b5, 2015-01-01 00:11:36.405,0.222,0.053,1.013,9.521,51.514,0.122, , , , , , ,1.736,-8.503,-107.54
 09:19:06.804,eb:33:2e:f9:57:b5, 2015-01-01 00:11:36.405,0.191,0.057,1.018,9.216,56.641,-0.305, , , , , , ,1.78,-8.229,-107.529
 09:19:06.804,eb:33:2e:f9:57:b5, 2015-01-01 00:11:36.405,0.168,0.047,1.017,9.338,61.34,-0.488, , , , , , ,1.824,-7.932,-107.523
 09:19:06.804,eb:33:2e:f9:57:b5, 2015-01-01 00:11:36.405,0.166,0.041,1.021,9.827,64.88,-0.244, , , , , , ,1.873,-7.619,-107.518
 09:19:06.804,eb:33:2e:f9:57:b5, 2015-01-01 00:11:36.405,0.152,0.034,1.048,10.437,67.322,-0.488, , , , , , ,1.928,-7.284,-107.507
 09:19:06.804,eb:33:2e:f9:57:b5, 2015-01-01 00:11:36.405,0.118,0.039,1.031,11.108,69.031,-0.671, , , , , , ,1.983,-6.938,-107.496
 09:19:06.849,eb:33:2e:f9:57:b5, 2015-01-01 00:11:36.405,0.124,0.013,1.034,12.451,70.801,0.427, , , , , , ,2.043,-6.592,-107.485
 09:19:06.849,eb:33:2e:f9:57:b5, 2015-01-01 00:11:36.405,0.12,0.035,1.03,13.306,72.388,0.671, , , , , , ,2.104,-6.235,-107.468
 09:19:06.849,eb:33:2e:f9:57:b5, 2015-01-01 00:11:36.405,0.066,0.048,1,13.733,71.899,0, , , , , , ,2.181,-5.867,-107.452
 09:19:06.849,eb:33:2e:f9:57:b5, 2015-01-01 00:11:36.405,0.003,0.042,0.977,14.16,68.604,-0.427, , , , , , ,2.247,-5.515,-107.441
 09:19:06.849,eb:33:2e:f9:57:b5, 2015-01-01 00:11:36.405,0,0.021,0.985,15.32,62.683,0.61, , , , , , ,2.324,-5.191,-107.424
 09:19:06.849,eb:33:2e:f9:57:b5, 2015-01-01 00:11:36.405,-0.003,0.053,0.949,15.625,56.213,0.854, , , , , , ,2.401,-4.9,-107.408
 09:19:06.850,eb:33:2e:f9:57:b5, 2015-01-01 00:11:36.405,0,0.03,0.979,16.785,49.438,1.038, , , , , , ,2.488,-4.636,-107.391
 09:19:06.850,eb:33:2e:f9:57:b5, 2015-01-01 00:11:36.405,0.01,0.009,1.025,18.799,42.786,1.099, , , , , , ,2.576,-4.411,-107.38
 09:19:06.894,eb:33:2e:f9:57:b5, 2015-01-01 00:11:36.405,-0.035,0.018,1.016,21.362,37.292,0.854, , , , , , ,2.675,-4.213,-107.364
 09:19:06.894,eb:33:2e:f9:57:b5, 2015-01-01 00:11:36.405,-0.076,0.025,0.993,23.254,30.945,1.587, , , , , , ,2.791,-4.048,-107.347
 09:19:06.894,eb:33:2e:f9:57:b5, 2015-01-01 00:11:36.405,-0.073,0.024,0.985,25.33,22.705,2.991, , , , , , ,2.917,-3.911,-107.331
 09:19:06.894,eb:33:2e:f9:57:b5, 2015-01-01 00:11:36.405,-0.07,0.024,1.008,26.794,15.991,4.089, , , , , , ,3.049,-3.823,-107.309
 09:19:06.894,eb:33:2e:f9:57:b5, 2015-01-01 00:11:36.405,-0.034,0,1.039,29.419,10.254,6.165, , , , , , ,3.186,-3.763,-107.276
 09:19:06.894,eb:33:2e:f9:57:b5, 2015-01-01 00:11:36.405,-0.012,0.001,1.118,33.142,6.409,7.568, , , , , , ,3.34,-3.724,-107.238
 09:19:06.894,eb:33:2e:f9:57:b5, 2015-01-01 00:11:36.405,-0.027,-0.025,1.183,39.795,1.77,8.728, , , , , , ,3.532,-3.708,-107.194
 09:19:06.894,eb:33:2e:f9:57:b5, 2015-01-01 00:11:36.405,-0.018,0.005,1.121,45.288,-4.822,9.583, , , , , , ,3.746,-3.719,-107.15
 09:19:06.961,eb:33:2e:f9:57:b5, 2015-01-01 00:11:36.720,-0.005,0.044,1.067,50.11,-13.367,9.033, , , , , , ,3.983,-3.774,-107.106
 09:19:06.961,eb:33:2e:f9:57:b5, 2015-01-01 00:11:36.720,0.012,0.03,1.121,54.199,-20.02,8.728, , , , , , ,4.246,-3.862,-107.067
 09:19:06.961,eb:33:2e:f9:57:b5, 2015-01-01 00:11:36.720,0.063,-0.028,1.283,58.655,-20.813,9.644, , , , , , ,4.532,-3.966,-107.029
 09:19:06.961,eb:33:2e:f9:57:b5, 2015-01-01 00:11:36.720,0.13,-0.022,1.282,65.796,-21.362,9.888, , , , , , ,4.845,-4.076,-106.985
 09:19:06.961,eb:33:2e:f9:57:b5, 2015-01-01 00:11:36.720,0.177,0.042,1.264,72.937,-23.071,7.446, , , , , , ,5.191,-4.191,-106.952
 09:19:06.961,eb:33:2e:f9:57:b5, 2015-01-01 00:11:36.720,0.16,0.027,1.334,79.285,-22.644,4.211, , , , , , ,5.576,-4.312,-106.941
 09:19:06.961,eb:33:2e:f9:57:b5, 2015-01-01 00:11:36.720,0.175,0.003,1.374,85.51,-19.104,2.747, , , , , , ,5.999,-4.411,-106.93
 09:19:06.961,eb:33:2e:f9:57:b5, 2015-01-01 00:11:36.720,0.197,0.028,1.384,92.773,-17.578,0.61, , , , , , ,6.443,-4.504,-106.935
 09:19:06.984,eb:33:2e:f9:57:b5, 2015-01-01 00:11:36.720,0.188,0.037,1.352,98.389,-15.686,-2.197, , , , , , ,6.932,-4.587,-106.946
 09:19:06.984,eb:33:2e:f9:57:b5, 2015-01-01 00:11:36.720,0.149,0.021,1.415,102.295,-8.606,-3.845, , , , , , ,7.432,-4.642,-106.974
 09:19:06.984,eb:33:2e:f9:57:b5, 2015-01-01 00:11:36.720,0.172,-0.004,1.389,109.558,-5.371,-4.7, , , , , , ,7.976,-4.669,-107.001
 09:19:06.985,eb:33:2e:f9:57:b5, 2015-01-01 00:11:36.720,0.159,0.034,1.348,116.516,-3.906,-6.775, , , , , , ,8.547,-4.686,-107.029
 09:19:06.985,eb:33:2e:f9:57:b5, 2015-01-01 00:11:36.720,0.135,0.043,1.311,122.498,-3.235,-8.606, , , , , , ,9.152,-4.697,-107.073
 09:19:06.985,eb:33:2e:f9:57:b5, 2015-01-01 00:11:36.720,0.134,0.042,1.312,128.601,-2.869,-10.071, , , , , , ,9.789,-4.708,-107.122
 09:19:06.985,eb:33:2e:f9:57:b5, 2015-01-01 00:11:36.720,0.12,0.047,1.317,136.414,-2.869,-11.719, , , , , , ,10.464,-4.708,-107.177
 09:19:06.985,eb:33:2e:f9:57:b5, 2015-01-01 00:11:36.720,0.107,0.039,1.308,143.066,-3.418,-13, , , , , , ,11.173,-4.713,-107.243
 09:19:07.006,eb:33:2e:f9:57:b5, 2015-01-01 00:11:36.720,0.197,0.033,1.334,150.146,-4.15,-13.977, , , , , , ,11.915,-4.719,-107.314
 09:19:07.006,eb:33:2e:f9:57:b5, 2015-01-01 00:11:36.720,0.239,0.085,1.353,156.616,-3.845,-16.541, , , , , , ,12.695,-4.724,-107.397
 09:19:07.006,eb:33:2e:f9:57:b5, 2015-01-01 00:11:36.720,0.216,0.104,1.359,163.147,-3.479,-19.836, , , , , , ,13.508,-4.713,-107.49
 09:19:07.006,eb:33:2e:f9:57:b5, 2015-01-01 00:11:36.720,0.224,0.088,1.408,170.227,-1.831,-22.705, , , , , , ,14.354,-4.702,-107.6
 09:19:07.006,eb:33:2e:f9:57:b5, 2015-01-01 00:11:36.720,0.179,0.075,1.45,177.307,2.136,-24.658, , , , , , ,15.238,-4.669,-107.715
 09:19:07.006,eb:33:2e:f9:57:b5, 2015-01-01 00:11:36.720,0.148,0.047,1.412,184.57,5.859,-25.818, , , , , , ,16.155,-4.614,-107.831
 09:19:07.007,eb:33:2e:f9:57:b5, 2015-01-01 00:11:36.720,0.158,0.082,1.443,190.125,9.033,-26.733, , , , , , ,17.111,-4.537,-107.946
 09:19:07.007,eb:33:2e:f9:57:b5, 2015-01-01 00:11:36.720,0.219,0.067,1.467,197.388,11.597,-27.649, , , , , , ,18.089,-4.444,-108.062
 09:19:07.051,eb:33:2e:f9:57:b5, 2015-01-01 00:11:36.720,0.242,0.105,1.448,205.75,12.451,-29.846, , , , , , ,19.111,-4.34,-108.177
 09:19:07.051,eb:33:2e:f9:57:b5, 2015-01-01 00:11:36.720,0.268,0.12,1.436,213.806,12.756,-32.593, , , , , , ,20.176,-4.23,-108.303
 09:19:07.051,eb:33:2e:f9:57:b5, 2015-01-01 00:11:36.720,0.273,0.11,1.461,222.107,15.198,-35.217, , , , , , ,21.281,-4.098,-108.441
 09:19:07.051,eb:33:2e:f9:57:b5, 2015-01-01 00:11:36.720,0.285,0.124,1.523,231.262,18.799,-39.612, , , , , , ,22.429,-3.95,-108.583
 09:19:07.051,eb:33:2e:f9:57:b5, 2015-01-01 00:11:36.720,0.324,0.134,1.591,240.845,24.475,-43.335, , , , , , ,23.626,-3.768,-108.732
 09:19:07.051,eb:33:2e:f9:57:b5, 2015-01-01 00:11:36.720,0.332,0.151,1.637,250.244,29.663,-47.18, , , , , , ,24.868,-3.549,-108.885
 09:19:07.051,eb:33:2e:f9:57:b5, 2015-01-01 00:11:36.720,0.317,0.155,1.64,259.521,31.799,-50.903, , , , , , ,26.158,-3.296,-109.039
 09:19:07.051,eb:33:2e:f9:57:b5, 2015-01-01 00:11:36.720,0.317,0.104,1.651,270.386,31.006,-54.993, , , , , , ,27.499,-3.038,-109.21
 09:19:07.096,eb:33:2e:f9:57:b5, 2015-01-01 00:11:36.720,0.278,0.121,1.779,282.776,31.494,-58.716, , , , , , ,28.9,-2.763,-109.385
 09:19:07.096,eb:33:2e:f9:57:b5, 2015-01-01 00:11:36.720,0.274,0.109,2.001,295.105,34.058,-62.073, , , , , , ,30.355,-2.472,-109.567
 09:19:07.096,eb:33:2e:f9:57:b5, 2015-01-01 00:11:36.720,0.327,0.139,2.186,307.007,41.748,-64.026, , , , , , ,31.877,-2.137,-109.742
 09:19:07.096,eb:33:2e:f9:57:b5, 2015-01-01 00:11:36.720,0.403,0.129,2.322,318.604,50.842,-65.186, , , , , , ,33.453,-1.769,-109.885
 09:19:07.096,eb:33:2e:f9:57:b5, 2015-01-01 00:11:36.720,0.481,0.116,2.303,332.153,54.504,-67.322, , , , , , ,35.09,-1.357,-110.006
 09:19:07.096,eb:33:2e:f9:57:b5, 2015-01-01 00:11:36.720,0.558,0.162,2.251,345.459,50.415,-71.655, , , , , , ,36.793,-0.945,-110.138
 09:19:07.096,eb:33:2e:f9:57:b5, 2015-01-01 00:11:36.720,0.542,0.139,2.433,358.643,49.866,-76.111, , , , , , ,38.562,-0.516,-110.281
 09:19:07.096,eb:33:2e:f9:57:b5, 2015-01-01 00:11:36.720,0.566,0.044,2.635,373.23,56.519,-78.064, , , , , , ,40.397,-0.066,-110.413
 09:19:07.163,eb:33:2e:f9:57:b5, 2015-01-01 00:11:36.720,0.599,-0.051,2.751,388.367,65.186,-78.369, , , , , , ,42.308,0.417,-110.495
 09:19:07.163,eb:33:2e:f9:57:b5, 2015-01-01 00:11:36.720,0.662,0,2.833,401.672,72.51,-81.726, , , , , , ,44.291,0.945,-110.55
 09:19:07.163,eb:33:2e:f9:57:b5, 2015-01-01 00:11:36.720,0.616,0.01,3.047,411.255,85.876,-85.876, , , , , , ,46.329,1.527,-110.566
 09:19:07.163,eb:33:2e:f9:57:b5, 2015-01-01 00:11:36.720,0.64,-0.122,3.082,421.875,101.074,-87.036, , , , , , ,48.417,2.17,-110.506
 09:19:07.163,eb:33:2e:f9:57:b5, 2015-01-01 00:11:36.720,0.748,0.147,3.191,427.307,116.15,-94.604, , , , , , ,50.554,2.873,-110.385
 09:19:07.163,eb:33:2e:f9:57:b5, 2015-01-01 00:11:36.720,0.552,-0.064,3.661,429.749,155.518,-97.9, , , , , , ,52.707,3.675,-110.143
 09:19:07.164,eb:33:2e:f9:57:b5, 2015-01-01 00:11:36.720,0.208,-0.775,3.555,440.186,205.566,-88.745, , , , , , ,54.91,4.609,-109.671
 09:19:07.164,eb:33:2e:f9:57:b5, 2015-01-01 00:11:36.720,0.512,-0.116,2.528,453.369,202.148,-82.52, , , , , , ,57.217,5.537,-109.034
 09:19:07.166,eb:33:2e:f9:57:b5, 2015-01-01 00:11:36.720,0.962,0.381,2.396,441.711,187.073,-80.444, , , , , , ,59.513,6.389,-108.424
 09:19:07.166,eb:33:2e:f9:57:b5, 2015-01-01 00:11:36.720,0.708,-0.042,2.617,426.758,207.947,-77.271, , , , , , ,61.765,7.213,-107.754
 09:19:07.166,eb:33:2e:f9:57:b5, 2015-01-01 00:11:36.720,0.35,-0.52,1.693,386.475,234.558,-61.34, , , , , , ,63.891,8.031,-106.913
 09:19:07.166,eb:33:2e:f9:57:b5, 2015-01-01 00:11:36.720,0.432,-0.605,0.19,312.744,247.498,-37.598, , , , , , ,65.764,8.767,-105.897
 09:19:07.166,eb:33:2e:f9:57:b5, 2015-01-01 00:11:36.720,0.786,-0.535,0.104,241.943,253.296,-17.761, , , , , , ,67.275,9.377,-104.777
 09:19:07.166,eb:33:2e:f9:57:b5, 2015-01-01 00:11:36.720,1.021,-0.656,0.79,208.252,249.451,-8.789, , , , , , ,68.571,9.904,-103.618
 09:19:07.166,eb:33:2e:f9:57:b5, 2015-01-01 00:11:36.720,0.16,-2.585,-0.561,155.945,211.365,-13.916, , , , , , ,69.642,10.338,-102.546
 09:19:07.166,eb:33:2e:f9:57:b5, 2015-01-01 00:11:36.720,0.593,-0.13,-1.964,46.814,105.713,-26.245, , , , , , ,70.252,10.701,-101.882
 09:19:07.210,eb:33:2e:f9:57:b5, 2015-01-01 00:11:36.720,0.606,0.775,-0.685,-83.74,50.781,-30.64, , , , , , ,70.126,10.953,-101.591
 09:19:07.210,eb:33:2e:f9:57:b5, 2015-01-01 00:11:36.720,1.09,-0.052,0.266,-151.55,3.845,-35.095, , , , , , ,69.494,11.151,-101.541
 09:19:07.211,eb:33:2e:f9:57:b5, 2015-01-01 00:11:36.720,1.077,-1.43,1.437,-159.058,3.845,-34.851, , , , , , ,68.665,11.299,-101.629
 09:19:07.211,eb:33:2e:f9:57:b5, 2015-01-01 00:11:36.720,1.008,-1.789,1.376,-150.452,25.635,-41.138, , , , , , ,67.901,11.519,-101.607
 09:19:07.211,eb:33:2e:f9:57:b5, 2015-01-01 00:11:36.720,0.997,-1.551,1.194,-146.301,36.133,-46.448, , , , , , ,67.176,11.777,-101.541
 09:19:07.211,eb:33:2e:f9:57:b5, 2015-01-01 00:11:36.720,0.832,-1.2,1.127,-136.23,51.025,-57.129, , , , , , ,66.495,12.112,-101.437
 09:19:07.211,eb:33:2e:f9:57:b5, 2015-01-01 00:11:36.720,0.794,-0.986,1.005,-123.291,56.641,-66.956, , , , , , ,65.863,12.508,-101.316
 09:19:07.211,eb:33:2e:f9:57:b5, 2015-01-01 00:11:36.720,0.702,-0.927,0.85,-117.493,60.547,-73.303, , , , , , ,65.297,12.953,-101.19
 09:19:07.254,eb:33:2e:f9:57:b5, 2015-01-01 00:11:37.030,0.591,-0.931,0.485,-121.643,57.556,-76.111, , , , , , ,64.726,13.425,-101.074
 09:19:07.254,eb:33:2e:f9:57:b5, 2015-01-01 00:11:37.030,0.498,-0.942,0.115,-134.949,44.739,-76.355, , , , , , ,64.094,13.876,-101.008
 09:19:07.254,eb:33:2e:f9:57:b5, 2015-01-01 00:11:37.030,0.403,-0.946,-0.093,-156.067,27.466,-74.097, , , , , , ,63.342,14.288,-101.03
 09:19:07.254,eb:33:2e:f9:57:b5, 2015-01-01 00:11:37.030,0.336,-0.95,-0.16,-181.946,8.667,-69.275, , , , , , ,62.457,14.639,-101.124
 09:19:07.254,eb:33:2e:f9:57:b5, 2015-01-01 00:11:37.030,0.298,-0.961,-0.119,-208.496,-8.789,-62.195, , , , , , ,61.425,14.925,-101.283
 09:19:07.254,eb:33:2e:f9:57:b5, 2015-01-01 00:11:37.030,0.262,-0.98,-0.022,-232.971,-23.315,-52.917, , , , , , ,60.249,15.128,-101.508
 09:19:07.254,eb:33:2e:f9:57:b5, 2015-01-01 00:11:37.030,0.233,-0.991,0.078,-253.662,-35.645,-42.603, , , , , , ,58.936,15.249,-101.777
 09:19:07.255,eb:33:2e:f9:57:b5, 2015-01-01 00:11:37.030,0.229,-0.977,0.179,-270.691,-45.532,-31.677, , , , , , ,57.541,15.293,-102.063
 09:19:07.298,eb:33:2e:f9:57:b5, 2015-01-01 00:11:37.030,0.231,-0.938,0.3,-284.241,-51.758,-20.508, , , , , , ,56.069,15.26,-102.343
 09:19:07.298,eb:33:2e:f9:57:b5, 2015-01-01 00:11:37.030,0.229,-0.872,0.408,-295.044,-55.115,-9.705, , , , , , ,54.542,15.167,-102.618
 09:19:07.298,eb:33:2e:f9:57:b5, 2015-01-01 00:11:37.030,0.226,-0.786,0.48,-303.528,-57.617,0.366, , , , , , ,52.96,15.007,-102.87
 09:19:07.298,eb:33:2e:f9:57:b5, 2015-01-01 00:11:37.030,0.212,-0.705,0.527,-310.12,-60.791,9.705, , , , , , ,51.361,14.799,-103.096
 09:19:07.298,eb:33:2e:f9:57:b5, 2015-01-01 00:11:37.030,0.223,-0.64,0.562,-313.904,-66.223,17.822, , , , , , ,49.746,14.54,-103.299
 09:19:07.298,eb:33:2e:f9:57:b5, 2015-01-01 00:11:37.030,0.229,-0.586,0.602,-315.186,-73.242,24.597, , , , , , ,48.126,14.227,-103.497
 09:19:07.298,eb:33:2e:f9:57:b5, 2015-01-01 00:11:37.030,0.234,-0.535,0.613,-314.819,-81.909,30.884, , , , , , ,46.483,13.848,-103.705
 09:19:07.298,eb:33:2e:f9:57:b5, 2015-01-01 00:11:37.030,0.23,-0.495,0.626,-313.416,-91.919,36.499, , , , , , ,44.863,13.42,-103.903
 09:19:07.344,eb:33:2e:f9:57:b5, 2015-01-01 00:11:37.030,0.223,-0.461,0.65,-311.707,-102.844,41.443, , , , , , ,43.253,12.931,-104.106
 09:19:07.344,eb:33:2e:f9:57:b5, 2015-01-01 00:11:37.030,0.219,-0.417,0.708,-310.242,-115.784,47.18, , , , , , ,41.655,12.371,-104.321
 09:19:07.344,eb:33:2e:f9:57:b5, 2015-01-01 00:11:37.030,0.208,-0.378,0.787,-309.875,-124.512,52.063, , , , , , ,40.04,11.739,-104.54
 09:19:07.344,eb:33:2e:f9:57:b5, 2015-01-01 00:11:37.030,0.202,-0.336,0.874,-310.852,-131.104,56.946, , , , , , ,38.447,11.069,-104.738
 09:19:07.344,eb:33:2e:f9:57:b5, 2015-01-01 00:11:37.030,0.204,-0.294,0.97,-312.683,-134.827,61.401, , , , , , ,36.854,10.355,-104.908
 09:19:07.345,eb:33:2e:f9:57:b5, 2015-01-01 00:11:37.030,0.209,-0.254,1.059,-314.697,-136.78,64.941, , , , , , ,35.261,9.619,-105.057
 09:19:07.345,eb:33:2e:f9:57:b5, 2015-01-01 00:11:37.030,0.221,-0.205,1.123,-316.589,-138.367,67.261, , , , , , ,33.64,8.855,-105.178
 09:19:07.345,eb:33:2e:f9:57:b5, 2015-01-01 00:11:37.030,0.239,-0.145,1.171,-318.298,-140.564,67.993, , , , , , ,32.042,8.086,-105.276
 09:19:07.366,eb:33:2e:f9:57:b5, 2015-01-01 00:11:37.030,0.239,-0.077,1.205,-319.763,-144.47,66.65, , , , , , ,30.432,7.3,-105.353
 09:19:07.366,eb:33:2e:f9:57:b5, 2015-01-01 00:11:37.030,0.24,0.005,1.204,-321.838,-150.757,63.965, , , , , , ,28.817,6.493,-105.441
 09:19:07.366,eb:33:2e:f9:57:b5, 2015-01-01 00:11:37.030,0.249,0.062,1.249,-324.158,-156.555,60.303, , , , , , ,27.169,5.658,-105.535
 09:19:07.366,eb:33:2e:f9:57:b5, 2015-01-01 00:11:37.030,0.242,0.085,1.351,-325.928,-159.485,56.396, , , , , , ,25.532,4.818,-105.628
 09:19:07.366,eb:33:2e:f9:57:b5, 2015-01-01 00:11:37.030,0.215,0.098,1.465,-327.026,-158.875,52.734, , , , , , ,23.895,3.983,-105.716
 09:19:07.366,eb:33:2e:f9:57:b5, 2015-01-01 00:11:37.030,0.177,0.097,1.577,-327.82,-154.846,49.927, , , , , , ,22.253,3.159,-105.787
 09:19:07.367,eb:33:2e:f9:57:b5, 2015-01-01 00:11:37.030,0.146,0.083,1.678,-328.247,-147.949,48.218, , , , , , ,20.588,2.362,-105.842
 09:19:07.367,eb:33:2e:f9:57:b5, 2015-01-01 00:11:37.030,0.134,0.068,1.758,-328.491,-138.794,47.424, , , , , , ,18.946,1.609,-105.859
 09:19:07.435,eb:33:2e:f9:57:b5, 2015-01-01 00:11:37.030,0.139,0.074,1.803,-328.552,-129.211,46.814, , , , , , ,17.303,0.901,-105.842
 09:19:07.435,eb:33:2e:f9:57:b5, 2015-01-01 00:11:37.030,0.154,0.103,1.807,-328.247,-121.826,45.41, , , , , , ,15.661,0.242,-105.798
 09:19:07.435,eb:33:2e:f9:57:b5, 2015-01-01 00:11:37.030,0.184,0.152,1.781,-327.515,-118.103,42.786, , , , , , ,13.997,-0.396,-105.743
 09:19:07.435,eb:33:2e:f9:57:b5, 2015-01-01 00:11:37.030,0.218,0.208,1.758,-326.538,-117.493,38.696, , , , , , ,12.36,-1.016,-105.677
 09:19:07.435,eb:33:2e:f9:57:b5, 2015-01-01 00:11:37.030,0.256,0.257,1.756,-325.012,-118.835,33.63, , , , , , ,10.734,-1.631,-105.623
 09:19:07.435,eb:33:2e:f9:57:b5, 2015-01-01 00:11:37.030,0.285,0.296,1.795,-323.181,-120.178,28.015, , , , , , ,9.113,-2.247,-105.579
 09:19:07.435,eb:33:2e:f9:57:b5, 2015-01-01 00:11:37.030,0.305,0.33,1.856,-321.655,-120.3,22.4, , , , , , ,7.476,-2.867,-105.546
 09:19:07.435,eb:33:2e:f9:57:b5, 2015-01-01 00:11:37.030,0.32,0.349,1.923,-320.984,-118.347,17.273, , , , , , ,5.867,-3.477,-105.518
 09:19:07.456,eb:33:2e:f9:57:b5, 2015-01-01 00:11:37.030,0.31,0.361,1.974,-321.716,-115.234,12.451, , , , , , ,4.263,-4.059,-105.496
 09:19:07.456,eb:33:2e:f9:57:b5, 2015-01-01 00:11:37.030,0.304,0.376,1.964,-324.097,-113.77,8.057, , , , , , ,2.642,-4.636,-105.485
 09:19:07.456,eb:33:2e:f9:57:b5, 2015-01-01 00:11:37.030,0.312,0.381,1.952,-327.209,-114.746,4.028, , , , , , ,0.989,-5.219,-105.474
 09:19:07.457,eb:33:2e:f9:57:b5, 2015-01-01 00:11:37.030,0.298,0.394,1.975,-330.017,-117.432,0.305, , , , , , ,-0.648,-5.795,-105.469
 09:19:07.458,eb:33:2e:f9:57:b5, 2015-01-01 00:11:37.030,0.278,0.425,1.995,-331.36,-122.559,-3.235, , , , , , ,-2.307,-6.4,-105.463
 09:19:07.458,eb:33:2e:f9:57:b5, 2015-01-01 00:11:37.030,0.241,0.471,2.024,-331.055,-129.517,-6.531, , , , , , ,-3.961,-7.037,-105.452
 09:19:07.458,eb:33:2e:f9:57:b5, 2015-01-01 00:11:37.030,0.212,0.512,2.053,-328.857,-137.085,-9.155, , , , , , ,-5.636,-7.712,-105.441
 09:19:07.458,eb:33:2e:f9:57:b5, 2015-01-01 00:11:37.030,0.174,0.507,2.137,-324.585,-143.311,-11.169, , , , , , ,-7.273,-8.421,-105.414
 09:19:07.501,eb:33:2e:f9:57:b5, 2015-01-01 00:11:37.030,0.155,0.561,2.231,-319.092,-147.034,-13, , , , , , ,-8.888,-9.152,-105.37
 09:19:07.501,eb:33:2e:f9:57:b5, 2015-01-01 00:11:37.030,0.104,0.674,2.319,-312.561,-148.987,-15.015, , , , , , ,-10.47,-9.899,-105.315
 09:19:07.501,eb:33:2e:f9:57:b5, 2015-01-01 00:11:37.030,0.047,0.783,2.412,-302.795,-149.536,-18.066, , , , , , ,-12.036,-10.657,-105.249
 09:19:07.501,eb:33:2e:f9:57:b5, 2015-01-01 00:11:37.030,-0.005,0.854,2.463,-293.701,-148.499,-20.447, , , , , , ,-13.541,-11.404,-105.178
 09:19:07.501,eb:33:2e:f9:57:b5, 2015-01-01 00:11:37.030,-0.078,0.937,2.508,-284.424,-145.813,-21.973, , , , , , ,-14.996,-12.145,-105.101
 09:19:07.501,eb:33:2e:f9:57:b5, 2015-01-01 00:11:37.030,-0.21,1.041,2.54,-275.391,-142.395,-23.01, , , , , , ,-16.408,-12.865,-105.013
 09:19:07.501,eb:33:2e:f9:57:b5, 2015-01-01 00:11:37.030,-0.353,1.143,2.51,-267.09,-140.442,-22.705, , , , , , ,-17.803,-13.585,-104.914
 09:19:07.501,eb:33:2e:f9:57:b5, 2015-01-01 00:11:37.030,-0.473,1.22,2.466,-259.705,-138.794,-20.325, , , , , , ,-19.144,-14.277,-104.788
 09:19:07.546,eb:33:2e:f9:57:b5, 2015-01-01 00:11:37.030,-0.572,1.31,2.441,-253.052,-135.071,-15.747, , , , , , ,-20.462,-14.952,-104.639
 09:19:07.546,eb:33:2e:f9:57:b5, 2015-01-01 00:11:37.030,-0.648,1.422,2.432,-245.789,-127.991,-8.972, , , , , , ,-21.753,-15.59,-104.453
 09:19:07.546,eb:33:2e:f9:57:b5, 2015-01-01 00:11:37.030,-0.717,1.552,2.445,-235.962,-117.432,-1.099, , , , , , ,-23.027,-16.166,-104.227
 09:19:07.546,eb:33:2e:f9:57:b5, 2015-01-01 00:11:37.030,-0.761,1.707,2.432,-222.168,-105.408,6.592, , , , , , ,-24.241,-16.661,-103.98
 09:19:07.546,eb:33:2e:f9:57:b5, 2015-01-01 00:11:37.030,-0.786,1.888,2.38,-204.529,-92.651,13.184, , , , , , ,-25.378,-17.084,-103.716
 09:19:07.546,eb:33:2e:f9:57:b5, 2015-01-01 00:11:37.030,-0.819,2.077,2.275,-183.044,-80.627,17.7, , , , , , ,-26.417,-17.435,-103.447
 09:19:07.546,eb:33:2e:f9:57:b5, 2015-01-01 00:11:37.030,-0.849,2.274,2.098,-158.386,-72.266,18.86, , , , , , ,-27.35,-17.732,-103.178
 09:19:07.546,eb:33:2e:f9:57:b5, 2015-01-01 00:11:37.030,-0.882,2.461,1.898,-131.409,-68.481,16.602, , , , , , ,-28.136,-17.996,-102.925
 09:19:07.570,eb:33:2e:f9:57:b5, 2015-01-01 00:11:37.365,-0.943,2.627,1.72,-103.699,-68.665,11.292, , , , , , ,-28.784,-18.265,-102.695
 09:19:07.570,eb:33:2e:f9:57:b5, 2015-01-01 00:11:37.365,-1.028,2.749,1.597,-77.576,-70.435,4.028, , , , , , ,-29.29,-18.556,-102.48
 09:19:07.570,eb:33:2e:f9:57:b5, 2015-01-01 00:11:37.365,-1.111,2.79,1.576,-54.626,-69.153,-3.479, , , , , , ,-29.669,-18.864,-102.299
 09:19:07.570,eb:33:2e:f9:57:b5, 2015-01-01 00:11:37.365,-1.165,2.74,1.674,-34.18,-59.631,-9.949, , , , , , ,-29.927,-19.16,-102.167
 09:19:07.570,eb:33:2e:f9:57:b5, 2015-01-01 00:11:37.365,-1.179,2.622,1.841,-15.564,-38.33,-14.709, , , , , , ,-30.059,-19.402,-102.101
 09:19:07.570,eb:33:2e:f9:57:b5, 2015-01-01 00:11:37.365,-1.142,2.449,1.995,1.892,-6.409,-17.517, , , , , , ,-30.075,-19.528,-102.123
 09:19:07.570,eb:33:2e:f9:57:b5, 2015-01-01 00:11:37.365,-1.056,2.24,2.046,18.616,30.029,-18.86, , , , , , ,-29.971,-19.506,-102.25
 09:19:07.570,eb:33:2e:f9:57:b5, 2015-01-01 00:11:37.365,-0.928,2.036,1.956,33.813,62.622,-20.081, , , , , , ,-29.756,-19.341,-102.469
 09:19:07.613,eb:33:2e:f9:57:b5, 2015-01-01 00:11:37.365,-0.784,1.848,1.76,46.753,86.06,-22.095, , , , , , ,-29.449,-19.056,-102.772
 09:19:07.613,eb:33:2e:f9:57:b5, 2015-01-01 00:11:37.365,-0.643,1.676,1.523,56.763,98.816,-25.391, , , , , , ,-29.07,-18.704,-103.129
 09:19:07.613,eb:33:2e:f9:57:b5, 2015-01-01 00:11:37.365,0.106,1.504,1.314,64.27,102.661,-29.48, , , , , , ,-28.636,-18.32,-103.519
 09:19:07.613,eb:33:2e:f9:57:b5, 2015-01-01 00:11:37.365,1.504,0.928,2.477,175.232,-12.39,-95.337, , , , , , ,-27.993,-18.215,-103.892
 09:19:07.613,eb:33:2e:f9:57:b5, 2015-01-01 00:11:37.365,0.102,1.587,4.028,244.995,235.474,-104.309, , , , , , ,-26.532,-17.633,-104.848
 09:19:07.613,eb:33:2e:f9:57:b5, 2015-01-01 00:11:37.365,1.7,-0.12,0.058,255.432,108.765,-172.913, , , , , , ,-24.961,-17.397,-105.826
 09:19:07.613,eb:33:2e:f9:57:b5, 2015-01-01 00:11:37.365,0.779,-0.415,1.429,245.972,162.842,-177.368, , , , , , ,-23.362,-17.089,-106.979
 09:19:07.613,eb:33:2e:f9:57:b5, 2015-01-01 00:11:37.365,0.296,-0.679,1.312,252.197,146.606,-181.824, , , , , , ,-21.786,-16.716,-108.182
 09:19:07.660,eb:33:2e:f9:57:b5, 2015-01-01 00:11:37.365,0.038,-1.611,0.642,293.396,132.324,-144.653, , , , , , ,-20.105,-16.348,-109.199
 09:19:07.660,eb:33:2e:f9:57:b5, 2015-01-01 00:11:37.365,-0.568,-1.209,0.726,330.811,132.69,-109.985, , , , , , ,-18.292,-15.914,-110.034
 09:19:07.660,eb:33:2e:f9:57:b5, 2015-01-01 00:11:37.365,-0.219,-1.088,1.03,361.206,139.526,-72.815, , , , , , ,-16.359,-15.37,-110.665
 09:19:07.660,eb:33:2e:f9:57:b5, 2015-01-01 00:11:37.365,-0.601,-0.013,1.568,347.168,152.527,-46.143, , , , , , ,-14.464,-14.749,-111.154
 09:19:07.660,eb:33:2e:f9:57:b5, 2015-01-01 00:11:37.365,-0.558,0.486,1.423,314.392,157.654,-18.188, , , , , , ,-12.728,-14.013,-111.495
 09:19:07.660,eb:33:2e:f9:57:b5, 2015-01-01 00:11:37.365,-0.355,0.73,1.349,275.33,137.573,-11.902, , , , , , ,-11.217,-13.31,-111.714
 09:19:07.660,eb:33:2e:f9:57:b5, 2015-01-01 00:11:37.365,-0.235,0.768,1.405,230.408,116.394,-16.052, , , , , , ,-9.921,-12.706,-111.901
 09:19:07.660,eb:33:2e:f9:57:b5, 2015-01-01 00:11:37.365,-0.14,0.659,1.418,188.171,102.539,-18.311, , , , , , ,-8.86,-12.189,-112.083
 09:19:07.704,eb:33:2e:f9:57:b5, 2015-01-01 00:11:37.365,-0.123,0.669,1.348,148.193,88.257,-22.034, , , , , , ,-8.009,-11.739,-112.253
 09:19:07.704,eb:33:2e:f9:57:b5, 2015-01-01 00:11:37.365,-0.189,0.351,1.184,125.427,75.928,-26.306, , , , , , ,-7.3,-11.36,-112.434
 09:19:07.704,eb:33:2e:f9:57:b5, 2015-01-01 00:11:37.365,-0.08,0.311,1.075,104.858,61.401,-28.931, , , , , , ,-6.691,-11.03,-112.615
 09:19:07.704,eb:33:2e:f9:57:b5, 2015-01-01 00:11:37.365,0.084,0.072,0.96,92.834,46.509,-25.635, , , , , , ,-6.174,-10.789,-112.786
 09:19:07.704,eb:33:2e:f9:57:b5, 2015-01-01 00:11:37.365,0.206,0.011,0.969,85.144,38.818,-20.569, , , , , , ,-5.707,-10.596,-112.923
 09:19:07.704,eb:33:2e:f9:57:b5, 2015-01-01 00:11:37.365,0.183,0.039,0.988,78.247,38.452,-16.785, , , , , , ,-5.284,-10.415,-113.033
 09:19:07.704,eb:33:2e:f9:57:b5, 2015-01-01 00:11:37.365,0.168,0.005,0.952,75.073,38.757,-14.343, , , , , , ,-4.878,-10.223,-113.126
 09:19:07.704,eb:33:2e:f9:57:b5, 2015-01-01 00:11:37.365,0.22,0.055,0.924,69.885,38.147,-13.672, , , , , , ,-4.499,-10.036,-113.214
 09:19:07.751,eb:33:2e:f9:57:b5, 2015-01-01 00:11:37.365,0.316,0.228,0.957,56.152,38.696,-10.986, , , , , , ,-4.175,-9.855,-113.291
 09:19:07.751,eb:33:2e:f9:57:b5, 2015-01-01 00:11:37.365,0.261,0.25,1.004,42.969,41.321,-7.996, , , , , , ,-3.928,-9.657,-113.351
 09:19:07.751,eb:33:2e:f9:57:b5, 2015-01-01 00:11:37.365,0.18,0.22,1.004,30.701,41.626,-4.028, , , , , , ,-3.73,-9.443,-113.395
 09:19:07.751,eb:33:2e:f9:57:b5, 2015-01-01 00:11:37.365,0.168,0.118,0.987,22.949,41.443,-0.305, , , , , , ,-3.598,-9.24,-113.417
 09:19:07.751,eb:33:2e:f9:57:b5, 2015-01-01 00:11:37.365,0.156,0.044,1.018,19.409,41.992,1.648, , , , , , ,-3.494,-9.031,-113.423
 09:19:07.751,eb:33:2e:f9:57:b5, 2015-01-01 00:11:37.365,0.103,-0.008,1.034,18.127,42.297,2.38, , , , , , ,-3.4,-8.817,-113.428
 09:19:07.751,eb:33:2e:f9:57:b5, 2015-01-01 00:11:37.365,0.047,-0.02,1.007,17.456,39.429,1.648, , , , , , ,-3.301,-8.608,-113.428
 09:19:07.751,eb:33:2e:f9:57:b5, 2015-01-01 00:11:37.365,0.012,-0.008,0.973,16.235,33.997,0.244, , , , , , ,-3.219,-8.427,-113.434
 09:19:07.771,eb:33:2e:f9:57:b5, 2015-01-01 00:11:37.365,-0.005,0.002,0.937,14.282,26.062,-0.61, , , , , , ,-3.142,-8.284,-113.445
 09:19:07.771,eb:33:2e:f9:57:b5, 2015-01-01 00:11:37.365,0.04,-0.005,0.919,12.451,17.212,-0.732, , , , , , ,-3.071,-8.179,-113.45
 09:19:07.771,eb:33:2e:f9:57:b5, 2015-01-01 00:11:37.365,0.129,-0.027,0.966,11.78,11.658,0.488, , , , , , ,-2.999,-8.102,-113.456
 09:19:07.771,eb:33:2e:f9:57:b5, 2015-01-01 00:11:37.365,0.166,-0.041,1.028,12.024,11.108,1.709, , , , , , ,-2.944,-8.053,-113.45
 09:19:07.771,eb:33:2e:f9:57:b5, 2015-01-01 00:11:37.365,0.125,-0.035,1.038,12.085,12.573,2.38, , , , , , ,-2.884,-7.993,-113.445
 09:19:07.771,eb:33:2e:f9:57:b5, 2015-01-01 00:11:37.365,0.085,-0.021,1.007,11.658,12.268,2.808, , , , , , ,-2.823,-7.927,-113.434
 09:19:07.771,eb:33:2e:f9:57:b5, 2015-01-01 00:11:37.365,0.073,-0.004,0.973,10.498,9.644,2.869, , , , , , ,-2.763,-7.866,-113.423
 09:19:07.771,eb:33:2e:f9:57:b5, 2015-01-01 00:11:37.365,0.068,0.005,0.957,9.155,6.287,2.441, , , , , , ,-2.714,-7.828,-113.406
 09:19:07.817,eb:33:2e:f9:57:b5, 2015-01-01 00:11:37.365,0.071,0.002,0.95,8.057,2.625,1.526, , , , , , ,-2.67,-7.806,-113.401
 09:19:07.817,eb:33:2e:f9:57:b5, 2015-01-01 00:11:37.365,0.076,-0.002,0.957,7.08,-0.732,0.366, , , , , , ,-2.637,-7.806,-113.395
 09:19:07.817,eb:33:2e:f9:57:b5, 2015-01-01 00:11:37.365,0.079,-0.006,0.963,6.287,-3.601,-0.61, , , , , , ,-2.593,-7.811,-113.395
 09:19:07.817,eb:33:2e:f9:57:b5, 2015-01-01 00:11:37.365,0.087,-0.003,0.966,5.31,-6.348,-1.221, , , , , , ,-2.56,-7.839,-113.401
 09:19:07.817,eb:33:2e:f9:57:b5, 2015-01-01 00:11:37.365,0.102,0,0.969,4.211,-8.789,-1.709, , , , , , ,-2.538,-7.877,-113.401
 09:19:07.817,eb:33:2e:f9:57:b5, 2015-01-01 00:11:37.365,0.108,0.004,0.972,2.808,-11.047,-2.258, , , , , , ,-2.521,-7.932,-113.412
 09:19:07.817,eb:33:2e:f9:57:b5, 2015-01-01 00:11:37.365,0.11,0.002,0.97,1.77,-12.512,-2.747, , , , , , ,-2.494,-7.987,-113.423
 09:19:07.817,eb:33:2e:f9:57:b5, 2015-01-01 00:11:37.365,0.122,0.001,0.967,0.793,-13.916,-3.54, , , , , , ,-2.488,-8.053,-113.434
 09:19:07.861,eb:33:2e:f9:57:b5, 2015-01-01 00:11:37.365,0.137,0,0.974,0,-14.832,-4.089, , , , , , ,-2.483,-8.13,-113.45
 09:19:07.861,eb:33:2e:f9:57:b5, 2015-01-01 00:11:37.365,0.142,-0.001,0.978,-0.854,-15.137,-4.517, , , , , , ,-2.483,-8.207,-113.467
 09:19:07.861,eb:33:2e:f9:57:b5, 2015-01-01 00:11:37.365,0.153,-0.003,0.977,-1.77,-15.137,-4.639, , , , , , ,-2.477,-8.278,-113.489
 09:19:07.861,eb:33:2e:f9:57:b5, 2015-01-01 00:11:37.365,0.162,-0.007,0.982,-2.441,-14.343,-4.578, , , , , , ,-2.488,-8.355,-113.511
 09:19:07.861,eb:33:2e:f9:57:b5, 2015-01-01 00:11:37.365,0.162,-0.012,0.989,-2.869,-12.817,-4.089, , , , , , ,-2.499,-8.421,-113.527
 09:19:07.861,eb:33:2e:f9:57:b5, 2015-01-01 00:11:37.365,0.172,-0.027,0.996,-2.502,-10.681,-3.296, , , , , , ,-2.51,-8.481,-113.544
 09:19:07.861,eb:33:2e:f9:57:b5, 2015-01-01 00:11:37.365,0.181,-0.042,1.004,-1.526,-7.568,-2.38, , , , , , ,-2.505,-8.52,-113.555
 09:19:07.861,eb:33:2e:f9:57:b5, 2015-01-01 00:11:37.365,0.174,-0.045,1.008,-0.366,-3.967,-1.648, , , , , , ,-2.51,-8.547,-113.56
 09:19:07.906,eb:33:2e:f9:57:b5, 2015-01-01 00:11:37.680,0.169,-0.035,1.006,0.244,-0.61,-0.854, , , , , , ,-2.51,-8.558,-113.566
 09:19:07.906,eb:33:2e:f9:57:b5, 2015-01-01 00:11:37.680,0.173,-0.026,1.014,0.61,2.747,0, , , , , , ,-2.505,-8.553,-113.571
 09:19:07.906,eb:33:2e:f9:57:b5, 2015-01-01 00:11:37.680,0.181,-0.033,1.022,1.282,7.08,0.427, , , , , , ,-2.488,-8.52,-113.566
 09:19:07.906,eb:33:2e:f9:57:b5, 2015-01-01 00:11:37.680,0.182,-0.043,1.021,2.441,12.268,0.671, , , , , , ,-2.483,-8.47,-113.566
 09:19:07.906,eb:33:2e:f9:57:b5, 2015-01-01 00:11:37.680,0.195,-0.049,1.026,3.662,18.066,0.671, , , , , , ,-2.466,-8.394,-113.566
 09:19:07.906,eb:33:2e:f9:57:b5, 2015-01-01 00:11:37.680,0.219,-0.039,1.036,4.395,24.78,0.732, , , , , , ,-2.444,-8.284,-113.566
 09:19:07.906,eb:33:2e:f9:57:b5, 2015-01-01 00:11:37.680,0.229,-0.029,1.046,4.7,33.02,1.099, , , , , , ,-2.411,-8.13,-113.571
 09:19:07.906,eb:33:2e:f9:57:b5, 2015-01-01 00:11:37.680,0.25,-0.028,1.05,4.944,42.297,1.77, , , , , , ,-2.384,-7.938,-113.571
 09:19:07.952,eb:33:2e:f9:57:b5, 2015-01-01 00:11:37.680,0.264,-0.036,1.066,5.432,52.917,2.686, , , , , , ,-2.357,-7.696,-113.566
 09:19:07.952,eb:33:2e:f9:57:b5, 2015-01-01 00:11:37.680,0.281,-0.052,1.081,6.226,64.88,4.456, , , , , , ,-2.329,-7.394,-113.56
 09:19:07.952,eb:33:2e:f9:57:b5, 2015-01-01 00:11:37.680,0.25,-0.056,1.087,7.507,77.332,6.287, , , , , , ,-2.285,-7.026,-113.544
 09:19:07.952,eb:33:2e:f9:57:b5, 2015-01-01 00:11:37.680,0.188,-0.053,1.048,8.667,86.67,9.094, , , , , , ,-2.247,-6.608,-113.522
 09:19:07.952,eb:33:2e:f9:57:b5, 2015-01-01 00:11:37.680,0.096,-0.03,0.998,9.033,91.98,11.536, , , , , , ,-2.208,-6.158,-113.489
 09:19:07.952,eb:33:2e:f9:57:b5, 2015-01-01 00:11:37.680,-0.052,0.041,0.913,7.507,86.426,11.719, , , , , , ,-2.17,-5.707,-113.445
 09:19:07.952,eb:33:2e:f9:57:b5, 2015-01-01 00:11:37.680,-0.124,0.027,0.867,6.287,74.524,11.108, , , , , , ,-2.131,-5.301,-113.401
 09:19:07.952,eb:33:2e:f9:57:b5, 2015-01-01 00:11:37.680,-0.053,-0.013,0.877,6.958,60.974,10.559, , , , , , ,-2.098,-4.971,-113.357
 09:19:07.973,eb:33:2e:f9:57:b5, 2015-01-01 00:11:37.680,-0.022,-0.018,0.925,8.179,50.232,8.362, , , , , , ,-2.065,-4.697,-113.318
 09:19:07.973,eb:33:2e:f9:57:b5, 2015-01-01 00:11:37.680,-0.042,-0.034,0.962,9.705,43.03,5.676, , , , , , ,-2.021,-4.471,-113.297
 09:19:07.973,eb:33:2e:f9:57:b5, 2015-01-01 00:11:37.680,-0.059,-0.064,0.964,12.39,36.987,3.662, , , , , , ,-1.956,-4.268,-113.28
 09:19:07.973,eb:33:2e:f9:57:b5, 2015-01-01 00:11:37.680,-0.067,-0.065,0.962,15.259,30.151,1.648, , , , , , ,-1.884,-4.103,-113.269
 09:19:07.973,eb:33:2e:f9:57:b5, 2015-01-01 00:11:37.680,-0.052,-0.049,0.959,17.456,22.949,0.061, , , , , , ,-1.802,-3.972,-113.269
 09:19:07.973,eb:33:2e:f9:57:b5, 2015-01-01 00:11:37.680,-0.037,-0.035,0.972,19.47,15.32,-0.977, , , , , , ,-1.708,-3.884,-113.28
 09:19:07.974,eb:33:2e:f9:57:b5, 2015-01-01 00:11:37.680,-0.003,-0.025,0.977,20.264,11.353,-1.343, , , , , , ,-1.599,-3.812,-113.286
 09:19:07.974,eb:33:2e:f9:57:b5, 2015-01-01 00:11:37.680,0.033,-0.021,1,21.179,8.24,-1.892, , , , , , ,-1.494,-3.768,-113.297
 09:19:08.019,eb:33:2e:f9:57:b5, 2015-01-01 00:11:37.680,0.064,-0.025,1.02,22.644,6.958,-2.869, , , , , , ,-1.384,-3.73,-113.307
 09:19:08.019,eb:33:2e:f9:57:b5, 2015-01-01 00:11:37.680,0.105,-0.013,1.036,23.56,7.446,-3.784, , , , , , ,-1.263,-3.697,-113.324
 09:19:08.020,eb:33:2e:f9:57:b5, 2015-01-01 00:11:37.680,0.147,-0.017,1.065,24.597,10.498,-3.845, , , , , , ,-1.132,-3.647,-113.346
 09:19:08.020,eb:33:2e:f9:57:b5, 2015-01-01 00:11:37.680,0.163,-0.013,1.089,25.696,15.625,-3.662, , , , , , ,-1.005,-3.582,-113.362
 09:19:08.020,eb:33:2e:f9:57:b5, 2015-01-01 00:11:37.680,0.144,-0.006,1.094,26.489,22.156,-3.296, , , , , , ,-0.873,-3.483,-113.384
 09:19:08.020,eb:33:2e:f9:57:b5, 2015-01-01 00:11:37.680,0.118,0.005,1.065,26.733,27.954,-2.991, , , , , , ,-0.736,-3.356,-113.401
 09:19:08.020,eb:33:2e:f9:57:b5, 2015-01-01 00:11:37.680,0.087,0.003,1.049,26.917,32.227,-2.319, , , , , , ,-0.593,-3.197,-113.412
 09:19:08.020,eb:33:2e:f9:57:b5, 2015-01-01 00:11:37.680,0.064,0.01,1.029,26.855,35.156,-1.221, , , , , , ,-0.456,-3.027,-113.423
 09:19:08.087,eb:33:2e:f9:57:b5, 2015-01-01 00:11:37.680,0.072,0.003,1.029,26.978,36.438,-0.122, , , , , , ,-0.324,-2.851,-113.428
 09:19:08.087,eb:33:2e:f9:57:b5, 2015-01-01 00:11:37.680,0.075,0.012,1.034,27.344,36.621,-0.061, , , , , , ,-0.187,-2.664,-113.428
 09:19:08.087,eb:33:2e:f9:57:b5, 2015-01-01 00:11:37.680,0.106,0.01,1.069,29.114,34.851,-0.488, , , , , , ,-0.038,-2.483,-113.428
 09:19:08.087,eb:33:2e:f9:57:b5, 2015-01-01 00:11:37.680,0.078,-0.01,1.103,31.921,35.217,-1.221, , , , , , ,0.115,-2.307,-113.434
 09:19:08.087,eb:33:2e:f9:57:b5, 2015-01-01 00:11:37.680,0.066,0.02,1.061,33.63,35.706,-2.014, , , , , , ,0.28,-2.131,-113.439
 09:19:08.087,eb:33:2e:f9:57:b5, 2015-01-01 00:11:37.680,0.063,-0.001,1.11,36.56,34.668,-2.991, , , , , , ,0.456,-1.956,-113.45
 09:19:08.087,eb:33:2e:f9:57:b5, 2015-01-01 00:11:37.680,0.057,-0.03,1.199,40.161,34.119,-3.784, , , , , , ,0.659,-1.78,-113.467
 09:19:08.087,eb:33:2e:f9:57:b5, 2015-01-01 00:11:37.680,-0.008,-0.021,1.144,43.884,34.424,-3.784, , , , , , ,0.873,-1.609,-113.483
 09:19:08.109,eb:33:2e:f9:57:b5, 2015-01-01 00:11:37.680,-0.032,-0.013,1.094,46.814,32.776,-1.892, , , , , , ,1.099,-1.439,-113.494
 09:19:08.109,eb:33:2e:f9:57:b5, 2015-01-01 00:11:37.680,-0.17,-0.01,1.122,49.988,30.823,0.427, , , , , , ,1.346,-1.28,-113.494
 09:19:08.109,eb:33:2e:f9:57:b5, 2015-01-01 00:11:37.680,-0.273,-0.129,1.288,57.312,28.503,7.385, , , , , , ,1.62,-1.132,-113.467
 09:19:08.109,eb:33:2e:f9:57:b5, 2015-01-01 00:11:37.680,-0.068,-0.128,1.196,69.153,12.207,15.564, , , , , , ,1.945,-1.033,-113.401
 09:19:08.109,eb:33:2e:f9:57:b5, 2015-01-01 00:11:37.680,-0.029,0.04,1.083,75.317,-3.723,13.55, , , , , , ,2.307,-1.027,-113.324
 09:19:08.109,eb:33:2e:f9:57:b5, 2015-01-01 00:11:37.680,-0.069,0.013,1.222,79.468,-9.277,11.169, , , , , , ,2.697,-1.066,-113.269
 09:19:08.109,eb:33:2e:f9:57:b5, 2015-01-01 00:11:37.680,0.011,-0.052,1.339,87.036,-13.123,11.292, , , , , , ,3.126,-1.121,-113.214
 09:19:08.110,eb:33:2e:f9:57:b5, 2015-01-01 00:11:37.680,0.01,-0.015,1.432,93.323,-14.465,8.85, , , , , , ,3.576,-1.198,-113.165
 09:19:08.131,eb:33:2e:f9:57:b5, 2015-01-01 00:11:37.680,-0.039,-0.05,1.409,100.708,-16.602,7.08, , , , , , ,4.065,-1.28,-113.132
 09:19:08.131,eb:33:2e:f9:57:b5, 2015-01-01 00:11:37.680,-0.042,-0.065,1.386,107.971,-19.104,6.531, , , , , , ,4.592,-1.373,-113.104
 09:19:08.131,eb:33:2e:f9:57:b5, 2015-01-01 00:11:37.680,-0.011,-0.057,1.349,115.784,-23.193,5.31, , , , , , ,5.164,-1.478,-113.082
 09:19:08.131,eb:33:2e:f9:57:b5, 2015-01-01 00:11:37.680,-0.01,-0.047,1.357,123.718,-27.466,3.906, , , , , , ,5.762,-1.609,-113.077
 09:19:08.131,eb:33:2e:f9:57:b5, 2015-01-01 00:11:37.680,-0.011,-0.052,1.381,131.226,-29.907,3.113, , , , , , ,6.405,-1.752,-113.071
 09:19:08.131,eb:33:2e:f9:57:b5, 2015-01-01 00:11:37.680,-0.001,-0.068,1.385,139.099,-31.189,3.113, , , , , , ,7.086,-1.912,-113.071
 09:19:08.132,eb:33:2e:f9:57:b5, 2015-01-01 00:11:37.680,0.016,-0.05,1.351,147.278,-33.875,2.441, , , , , , ,7.811,-2.065,-113.082
 09:19:08.132,eb:33:2e:f9:57:b5, 2015-01-01 00:11:37.680,0.012,-0.02,1.371,154.236,-36.011,0.671, , , , , , ,8.569,-2.247,-113.099
 09:19:08.177,eb:33:2e:f9:57:b5, 2015-01-01 00:11:37.680,0.082,-0.021,1.371,162.903,-40.161,-0.854, , , , , , ,9.371,-2.433,-113.126
 09:19:08.177,eb:33:2e:f9:57:b5, 2015-01-01 00:11:37.680,0.214,0.008,1.419,170.471,-41.626,-2.502, , , , , , ,10.212,-2.637,-113.17
