Time,Device name,Chip Time(),Acceleration X(g),Acceleration Y(g),Acceleration Z(g),Angular velocity X(°/s),Angular velocity Y(°/s),Angular velocity Z(°/s),Angle X(°),Angle Y(°),Angle Z(°)
 14:41:48.248,eb:33:2e:f9:57:b5, 2085-97-171 09:128:239:6815,1.057,-2.034,3.178,-11.719,-49.927,-436.707,95.46,14.354,165.284
 14:41:48.248,eb:33:2e:f9:57:b5, 2085-97-83 06:94:238:7339,0.517,-2.092,3.461,-34.058,-71.289,-420.593,95.109,18.666,164.965
 14:41:48.248,eb:33:2e:f9:57:b5, 2085-97-125 01:04:235:6734,-0.031,-2.358,3.512,-34.363,-84.106,-382.629,94.543,22.714,164.361
 14:41:48.248,eb:33:2e:f9:57:b5, 2085-97-115 254:77:228:5562,-0.34,-3.009,3.076,-43.64,-75.623,-319.519,93.928,26.257,163.674
 14:41:48.309,eb:33:2e:f9:57:b5, 2085-97-48 252:246:223:2407,-0.505,-3.816,2.068,-87.83,-3.418,-223.755,93.098,28.965,163.312
 14:41:48.309,eb:33:2e:f9:57:b5, 2085-97-169 252:07:224:-1449,-0.324,-4.062,0.215,-176.086,70.129,-109.497,91.989,30.564,163.823
 14:41:48.309,eb:33:2e:f9:57:b5, 2085-97-64 254:136:229:-4398,0.004,-3.734,-1.593,-308.472,84.839,-1.709,89.901,31.058,164.729
 14:41:48.309,eb:33:2e:f9:57:b5, 2085-97-173 02:100:237:-3657,0.636,-2.777,-2.179,-453.003,49.133,79.346,86.358,30.624,165.526
 14:41:48.370,eb:33:2e:f9:57:b5, 2085-97-00 07:125:243:-1233,1.103,-1.972,-1.176,-550.293,2.747,114.868,81.359,29.641,165.905
 14:41:48.370,eb:33:2e:f9:57:b5, 2085-97-191 10:112:250:712,1.498,-1.12,-0.078,-577.82,-51.636,111.694,75.652,28.444,165.916
 14:41:48.370,eb:33:2e:f9:57:b5, 2085-97-88 12:84:254:1674,1.491,-0.372,0.624,-558.105,-122.925,75.684,69.664,27.263,165.295
 14:41:48.370,eb:33:2e:f9:57:b5, 2085-97-90 11:151:254:2304,1.251,-0.162,0.957,-533.752,-199.097,31.799,63.688,26.104,163.905
 14:41:48.370,eb:33:2e:f9:57:b5, 2085-97-94 08:155:253:3017,0.855,-0.224,1.256,-526.794,-254.395,2.319,57.596,24.802,161.812
 14:41:48.370,eb:33:2e:f9:57:b5, 2085-97-23 05:141:252:4168,0.453,-0.383,1.766,-538.879,-264.404,3.357,51.498,23.225,159.571
 14:41:48.370,eb:33:2e:f9:57:b5, 2085-97-180 02:115:253:5035,0.234,-0.42,2.303,-550.842,-225.891,31.189,45.412,21.418,157.764
 14:41:48.370,eb:33:2e:f9:57:b5, 2085-97-248 00:00:01:4441,0.108,-0.118,2.418,-544.189,-174.927,65.247,39.65,19.616,156.824
 14:41:48.400,eb:33:2e:f9:57:b5, 2085-97-198 00:26:05:3417,0.079,0.381,1.9,-519.653,-167.664,89.661,34.189,17.787,156.462
 14:41:48.400,eb:33:2e:f9:57:b5, 2085-97-144 00:67:10:2980,0.049,0.923,1.527,-495.361,-183.35,107.971,29.125,15.76,156.456
 14:41:48.400,eb:33:2e:f9:57:b5, 2085-97-12 00:47:17:2810,-0.094,1.711,1.41,-475.037,-195.068,119.568,24.269,13.535,156.665
 14:41:48.400,eb:33:2e:f9:57:b5, 2085-97-134 254:254:23:2345,-0.288,2.632,1.252,-434.753,-216.858,117.188,19.759,11.201,157.094
 14:41:48.489,eb:33:2e:f9:57:b5, 2085-97-209 252:37:29:2710,-0.511,3.333,1.141,-373.962,-244.69,105.103,15.721,8.63,157.484
 14:41:48.489,eb:33:2e:f9:57:b5, 2085-97-52 251:22:34:4077,-0.671,3.952,1.635,-309.082,-227.783,95.337,12.365,6.064,157.95
 14:41:48.489,eb:33:2e:f9:57:b5, 2085-97-48 250:53:39:4920,-0.745,4.568,2.28,-244.08,-157.959,88.44,9.591,4.005,158.516
 14:41:48.489,eb:33:2e:f9:57:b5, 2085-97-30 250:64:44:3959,-0.711,5.23,2.293,-188.965,-70.557,83.374,7.465,2.812,159.263
 14:41:48.491,eb:33:2e:f9:57:b5, 2085-97-159 250:106:48:2077,-0.59,5.809,1.444,-156.067,-14.893,81.116,5.713,2.373,160.043
 14:41:48.491,eb:33:2e:f9:57:b5, 2085-97-87 252:203:51:760,-0.252,6.267,0.679,-130.432,-22.888,78.308,4.263,2.181,160.867
 14:41:48.491,eb:33:2e:f9:57:b5, 2085-97-37 255:124:55:440,-0.114,6.704,0.184,-92.773,-94.666,66.528,3.098,1.555,161.576
 14:41:48.491,eb:33:2e:f9:57:b5, 2085-97-176 254:108:58:1537,-0.211,7.116,0.435,-49.194,-155.151,44.373,2.379,0.209,162.131
 14:41:48.548,eb:33:2e:f9:57:b5, 2085-97-220 253:100:61:2666,-0.264,7.511,1.081,21.301,-160.767,8.545,2.203,-1.417,162.378
 14:41:48.548,eb:33:2e:f9:57:b5, 2085-97-179 253:77:61:2605,-0.405,7.75,1.371,121.094,-146.423,-54.199,2.988,-2.939,162.142
 14:41:48.548,eb:33:2e:f9:57:b5, 2085-97-227 250:225:53:2214,-0.989,7.323,1.137,201.111,-152.039,-138.184,4.818,-4.378,161.076
 14:41:48.548,eb:33:2e:f9:57:b5, 2085-97-188 244:178:38:2902,-1.849,5.901,1.185,234.802,-143.921,-209.961,7.355,-5.729,159.164
 14:41:48.580,eb:33:2e:f9:57:b5, 2085-97-28 238:233:19:3275,-1.284,3.656,1.596,251.892,-80.078,-240.784,10.239,-6.548,156.698
 14:41:48.580,eb:33:2e:f9:57:b5, 2085-97-50 229:168:18:13066,-4.611,6.811,2.196,219.971,-182.495,-275.696,13.222,-7.015,154.089
 14:41:48.580,eb:33:2e:f9:57:b5, 2085-97-163 248:09:19:-2729,2.417,0.499,9.104,-119.446,523.865,9.46,13.975,-5.894,152.523
 14:41:48.580,eb:33:2e:f9:57:b5, 2085-97-37 15:207:15:-7349,-0.666,3.429,-6.807,-194.519,232.361,-68.115,12.442,-1.346,153.682
 14:41:48.609,eb:33:2e:f9:57:b5, 2085-97-212 241:124:240:13136,-0.95,-2.223,4.939,-285.4,244.324,-85.022,9.778,0.187,152.935
 14:41:48.609,eb:33:2e:f9:57:b5, 2085-97-90 254:31:00:4180,-0.855,-0.256,4.41,-59.937,189.209,-54.443,8.13,2.774,152.792
 14:41:48.609,eb:33:2e:f9:57:b5, 2085-97-20 245:66:253:1102,-0.603,-0.293,0.423,-57.861,153.748,-27.588,7.707,4.477,152.534
 14:41:48.609,eb:33:2e:f9:57:b5, 2085-97-158 251:24:253:5302,-0.446,-0.258,2.359,-17.7,53.345,-13.611,7.284,5.323,152.441
 14:41:48.638,eb:33:2e:f9:57:b5, 2085-97-232 01:132:01:3710,0.07,-0.228,1.617,22.949,57.556,10.864,7.366,5.993,152.567
 14:41:48.638,eb:33:2e:f9:57:b5, 2085-97-171 255:161:253:7250,-0.091,-0.017,2.71,63.965,41.565,7.568,7.8,6.405,152.715
 14:41:48.638,eb:33:2e:f9:57:b5, 2085-97-17 253:105:252:7063,-0.479,-0.377,3.529,139.893,66.65,26.611,8.866,6.987,152.963
 14:41:48.638,eb:33:2e:f9:57:b5, 2085-97-120 252:111:248:8423,-0.422,-0.649,3.93,222.351,48.584,56.213,10.739,7.471,153.474
 14:41:48.699,eb:33:2e:f9:57:b5, 2085-97-146 253:23:246:8770,0.098,-1.132,3.998,305.359,46.57,91.187,13.491,7.806,154.325
 14:41:48.699,eb:33:2e:f9:57:b5, 2085-97-180 04:109:245:8830,1.001,-1.436,4.49,395.813,45.776,93.689,17.084,8.009,155.369
 14:41:48.699,eb:33:2e:f9:57:b5, 2085-97-174 10:169:243:8824,1.541,-1.342,4.281,501.831,33.813,55.359,21.676,8.157,156.198
 14:41:48.699,eb:33:2e:f9:57:b5, 2085-97-197 13:229:242:9081,1.708,-1.59,4.394,601.746,65.308,-7.141,27.279,8.492,156.616
 14:41:48.730,eb:33:2e:f9:57:b5, 2085-97-32 14:195:248:10179,1.461,-1.084,4.565,687.378,132.935,-73.853,33.783,9.602,156.736
 14:41:48.730,eb:33:2e:f9:57:b5, 2085-97-171 08:50:246:8498,0.464,-1.223,4.512,744.995,158.752,-124.451,41.045,11.503,156.824
 14:41:48.730,eb:33:2e:f9:57:b5, 2085-97-171 02:140:253:8633,-0.162,-0.67,4.455,737.061,86.365,-140.564,48.439,13.337,156.649
 14:41:48.730,eb:33:2e:f9:57:b5, 2085-97-227 250:133:05:6149,-0.933,-0.072,3.26,722.29,-18.555,-137.573,55.651,14.623,156.022
 14:41:48.791,eb:33:2e:f9:57:b5, 2085-97-243 244:16:244:4991,-3.274,0.181,3.535,671.57,-53.284,-118.286,62.369,15.48,154.748
 14:41:48.791,eb:33:2e:f9:57:b5, 2085-97-196 228:127:242:-791,-2.738,-3.339,2.251,545.349,158.447,81.543,68.428,15.82,154.819
 14:41:48.791,eb:33:2e:f9:57:b5, 2085-97-73 242:209:240:3132,-0.293,-2.053,0.286,251.587,396.973,361.267,73.076,14.485,158.423
 14:41:48.791,eb:33:2e:f9:57:b5, 2085-97-22 09:01:02:6181,2.127,-0.809,2.297,97.473,533.386,503.601,75.536,11.519,164.487
 14:41:48.819,eb:33:2e:f9:57:b5, 2085-97-196 20:87:12:5887,2.695,1.044,3.222,118.469,501.831,485.962,77.124,8.031,170.925
 14:41:48.819,eb:33:2e:f9:57:b5, 2085-113-58 00:235:231:-780,2.526,1.844,2.232,259.094,277.893,385.62,79.228,4.669,175.737
 14:41:48.819,eb:33:2e:f9:57:b5, 2085-97-79 19:133:18:1665,2.172,2.031,1.421,341.675,131.592,311.646,80.75,3.192,176.968
 14:41:48.819,eb:33:2e:f9:57:b5, 2085-97-202 13:230:18:3359,1.23,2.485,0.854,430.664,-156.372,148.56,84.776,0.961,176.984
 14:41:48.849,eb:33:2e:f9:57:b5, 2085-97-123 06:95:13:7934,0.512,2.069,2.776,408.203,-282.654,6.714,89.149,0.126,174.578
 14:41:48.849,eb:33:2e:f9:57:b5, 2085-97-92 03:238:04:10463,0.518,1.144,4.699,337.036,-235.718,-90.515,93.032,0.626,171.909
 14:41:48.849,eb:33:2e:f9:57:b5, 2085-97-143 05:41:00:9569,0.873,0.239,5.057,260.62,-126.099,-154.663,96.031,1.994,170.206
 14:41:48.849,eb:33:2e:f9:57:b5, 2085-97-92 08:175:253:7861,1.191,-0.154,4.251,194.092,-66.589,-214.722,98.273,3.955,169.541
 14:41:48.909,eb:33:2e:f9:57:b5, 2085-97-16 10:156:250:6916,1.27,-0.455,3.553,140.198,-70.862,-274.292,99.866,6.493,169.195
 14:41:48.909,eb:33:2e:f9:57:b5, 2085-97-192 09:145:246:6758,1.12,-0.931,3.307,96.313,-98.145,-322.632,100.992,9.613,168.854
 14:41:48.909,eb:33:2e:f9:57:b5, 2085-97-217 07:74:243:6872,0.841,-1.403,3.323,58.167,-115.723,-349.67,101.64,13.145,168.327
 14:41:48.909,eb:33:2e:f9:57:b5, 2085-97-108 05:54:241:6922,0.546,-1.736,3.403,21.423,-106.323,-350.769,101.926,16.82,167.871
 14:41:48.939,eb:33:2e:f9:57:b5, 2085-97-111 03:167:240:6478,0.327,-1.902,3.292,-14.832,-71.96,-328.491,101.832,20.319,167.585
 14:41:48.939,eb:33:2e:f9:57:b5, 2085-97-183 01:243:239:5523,0.117,-1.942,2.969,-53.772,-34.485,-291.077,101.492,23.45,167.673
 14:41:48.939,eb:33:2e:f9:57:b5, 2085-97-160 00:44:239:4018,0.111,-2.049,2.342,-101.685,-10.62,-241.821,100.745,26.087,167.91
 14:41:48.939,eb:33:2e:f9:57:b5, 2085-97-03 02:15:237:2447,0.428,-2.193,1.612,-161.072,3.601,-190.43,99.542,28.202,168.256
 14:41:49.058,eb:33:2e:f9:57:b5, 2085-97-68 04:21:234:786,0.56,-2.603,0.847,-226.868,19.775,-146.179,97.652,29.806,168.602
 14:41:49.058,eb:33:2e:f9:57:b5, 2085-97-93 04:156:236:-1542,0.53,-2.622,-0.208,-296.631,13.489,-114.136,95.175,31.069,168.953
 14:41:49.058,eb:33:2e:f9:57:b5, 2085-97-52 04:15:240:-2567,0.558,-2.223,-1.127,-389.832,-26.123,-86.182,91.642,32.053,168.904
 14:41:49.058,eb:33:2e:f9:57:b5, 2085-97-02 05:204:242:-1379,0.674,-1.785,-1.091,-499.939,-62.073,-49.011,86.863,32.701,168.349
 14:41:49.060,eb:33:2e:f9:57:b5, 2085-97-191 05:74:244:792,0.804,-1.576,-0.102,-573.364,-87.219,-12.695,80.914,32.882,167.426
 14:41:49.060,eb:33:2e:f9:57:b5, 2085-97-56 07:111:248:1662,0.98,-1.238,0.688,-595.337,-110.352,16.541,74.509,32.607,166.36
 14:41:49.060,eb:33:2e:f9:57:b5, 2085-97-185 08:252:251:2131,1.188,-0.685,0.879,-591.37,-158.142,36.682,67.879,31.877,165.02
 14:41:49.060,eb:33:2e:f9:57:b5, 2085-97-224 09:244:253:3077,1.208,-0.364,1.254,-572.327,-228.821,48.523,61.26,30.602,163.295
 14:41:49.063,eb:33:2e:f9:57:b5, 2085-97-224 08:76:254:4042,0.952,-0.193,1.728,-545.044,-302.246,55.786,54.679,28.669,161.098
 14:41:49.063,eb:33:2e:f9:57:b5, 2085-97-247 05:189:252:5035,0.572,-0.293,2.212,-519.897,-357.91,72.205,48.439,26.043,158.752
 14:41:49.063,eb:33:2e:f9:57:b5, 2085-97-182 03:72:251:6441,0.405,-0.519,2.785,-507.629,-370.544,112.061,42.539,22.736,156.687
 14:41:49.063,eb:33:2e:f9:57:b5, 2085-97-05 03:88:252:7256,0.323,-0.577,3.424,-502.747,-318.298,163.147,37.161,19.16,155.599
 14:41:49.147,eb:33:2e:f9:57:b5, 2085-97-147 02:91:00:6654,0.333,-0.253,3.462,-494.812,-250.854,202.209,32.108,15.787,155.594
 14:41:49.147,eb:33:2e:f9:57:b5, 2085-97-05 03:61:07:5677,0.424,0.447,2.968,-487.793,-220.215,220.581,27.345,12.744,156.412
 14:41:49.147,eb:33:2e:f9:57:b5, 2085-97-156 03:45:15:5304,0.46,1.396,2.654,-493.164,-215.759,217.773,22.527,9.849,157.555
 14:41:49.147,eb:33:2e:f9:57:b5, 2085-97-122 03:244:21:5071,0.396,2.365,2.533,-501.404,-226.746,194.641,17.644,7.103,158.835
 14:41:49.149,eb:33:2e:f9:57:b5, 2085-97-145 02:151:26:5177,0.24,3.024,2.472,-498.779,-253.723,157.898,12.607,4.312,159.939
 14:41:49.149,eb:33:2e:f9:57:b5, 2085-97-01 01:238:31:5648,-0.044,3.624,2.61,-486.511,-257.019,117.371,7.668,1.549,160.9
 14:41:49.149,eb:33:2e:f9:57:b5, 2085-97-78 254:74:39:6968,-0.388,4.423,3.009,-453.979,-227.112,82.153,2.84,-0.967,161.708
 14:41:49.149,eb:33:2e:f9:57:b5, 2085-97-11 251:88:47:8602,-0.882,5.441,3.868,-360.901,-170.959,39.612,-1.302,-2.95,162.356
 14:41:49.209,eb:33:2e:f9:57:b5, 2085-97-94 247:248:51:8106,-1.2,6.263,4.241,-220.154,-77.393,3.723,-4.23,-4.175,162.625
 14:41:49.209,eb:33:2e:f9:57:b5, 2085-97-233 245:24:54:4907,-1.221,6.639,3.343,-102.844,12.146,-7.69,-5.729,-4.422,162.642
 14:41:49.209,eb:33:2e:f9:57:b5, 2085-97-212 246:111:54:723,-1.119,6.811,1.317,-60.059,9.521,-1.709,-6.482,-4.235,162.565
 14:41:49.209,eb:33:2e:f9:57:b5, 2085-97-09 247:119:56:-201,-1.139,6.851,-0.198,-64.148,-80.994,15.442,-7.119,-4.592,162.735
 14:41:49.211,eb:33:2e:f9:57:b5, 2085-97-181 246:16:61:2663,-1.159,7.375,0.516,-21.667,-154.297,21.057,-7.685,-5.823,163.147
 14:41:49.211,eb:33:2e:f9:57:b5, 2085-97-141 246:152:61:3603,-1.266,7.752,1.802,97.107,-147.461,-4.028,-7.344,-7.355,163.531
 14:41:49.211,eb:33:2e:f9:57:b5, 2085-97-194 244:219:55:2488,-1.56,7.439,1.405,198.547,-129.639,-53.345,-5.735,-8.74,163.427
 14:41:49.211,eb:33:2e:f9:57:b5, 2085-97-167 242:204:47:3048,-1.69,6.458,1.293,226.868,-93.018,-107.117,-3.373,-9.97,162.735
 14:41:49.238,eb:33:2e:f9:57:b5, 2085-97-89 242:163:37:3193,-1.751,5.419,1.649,229.858,-7.874,-167.969,-0.736,-10.525,161.34
 14:41:49.238,eb:33:2e:f9:57:b5, 2085-97-04 241:116:21:1613,-0.798,3.815,1.219,240.295,56.091,-228.882,2.137,-10.217,159.285
 14:41:49.238,eb:33:2e:f9:57:b5, 2085-97-212 241:119:20:20053,-3.716,7.828,1.736,120.728,-284.424,-310.059,4.966,-10.294,156.627
 14:41:49.238,eb:33:2e:f9:57:b5, 2085-97-145 246:189:28:-3516,8.076,0.199,13.197,38.086,554.932,1.221,6.141,-9.811,153.995
 14:41:49.299,eb:33:2e:f9:57:b5, 2085-97-198 41:239:07:-415,-7.275,7.952,-6.389,-386.658,684.631,-122.498,4.147,-2.851,155.446
 14:41:49.299,eb:33:2e:f9:57:b5, 2085-97-199 240:148:232:12798,-1.529,-6.747,9.971,-171.814,668.03,-132.507,0.764,3.625,153.424
 14:41:49.299,eb:33:2e:f9:57:b5, 2085-97-163 218:49:251:-7719,-2.528,-0.009,-0.586,59.387,393.311,-63.354,1.505,7.635,152.463
 14:41:49.299,eb:33:2e:f9:57:b5, 2085-97-175 242:159:251:-1399,-1.129,-1.634,1.121,59.082,9.644,10.559,1.791,8.992,152.309
 14:41:49.358,eb:33:2e:f9:57:b5, 2085-97-109 03:54:03:4431,1.314,-0.07,0.268,37.781,-118.225,45.776,2.357,8.289,152.578
 14:41:49.358,eb:33:2e:f9:57:b5, 2085-97-38 11:182:02:5957,1.163,0.513,2.959,63.049,-25.269,26.611,2.873,7.443,152.996
 14:41:49.358,eb:33:2e:f9:57:b5, 2085-97-130 05:129:02:5312,0.29,0.448,2.736,96.008,89.905,-3.479,3.713,7.883,153.089
 14:41:49.358,eb:33:2e:f9:57:b5, 2085-97-55 253:75:251:6416,-0.739,-0.187,2.966,146.362,118.896,-12.878,4.922,8.959,153.062
 14:41:49.388,eb:33:2e:f9:57:b5, 2085-97-168 248:160:248:6280,-1.089,-0.807,3.188,217.346,108.521,18.494,6.779,10.157,153.149
 14:41:49.388,eb:33:2e:f9:57:b5, 2085-97-128 245:160:245:6962,-1.279,-1.086,3.07,291.077,42.603,77.637,9.437,10.816,153.781
 14:41:49.388,eb:33:2e:f9:57:b5, 2085-97-200 247:107:241:8387,-0.36,-1.634,3.829,364.502,11.536,126.465,12.892,10.849,154.836
 14:41:49.388,eb:33:2e:f9:57:b5, 2085-97-214 02:76:242:8572,0.931,-1.856,4.18,449.463,-5.493,142.883,17.128,10.519,156.231
 14:41:49.419,eb:33:2e:f9:57:b5, 2085-97-154 11:58:241:10014,1.808,-1.762,4.576,549.561,11.475,102.661,22.308,10.096,157.363
 14:41:49.419,eb:33:2e:f9:57:b5, 2085-97-138 12:174:245:11519,1.949,-1.85,5.101,643.982,109.68,41.077,28.433,10.377,158.307
 14:41:49.419,eb:33:2e:f9:57:b5, 2085-97-177 16:28:246:10917,1.752,-1.482,6.091,717.773,273.315,-21.057,35.447,12.096,159.318
 14:41:49.419,eb:33:2e:f9:57:b5, 2085-97-69 05:21:244:10741,0.601,-0.854,5.392,770.569,299.133,-73.181,43.165,14.777,160.823
 14:41:49.419,eb:33:2e:f9:57:b5, 2085-113-58 00:133:228:-1020,0.198,-0.895,5.021,770.63,216.064,-54.138,51.174,17.095,162.279
 14:41:49.448,eb:33:2e:f9:57:b5, 2085-97-181 254:107:05:7652,-0.732,0.235,4.371,782.166,137.39,-54.626,55.184,17.831,162.79
 14:41:49.448,eb:33:2e:f9:57:b5, 2085-97-75 246:20:245:3507,-2.991,0.014,3.233,751.648,38.757,-13.855,63.018,18.594,163.229
 14:41:49.448,eb:33:2e:f9:57:b5, 2085-97-05 231:185:252:-3030,-2.09,-1.929,1.791,598.999,209.778,177.917,69.955,18.259,164.377
 14:41:49.448,eb:33:2e:f9:57:b5, 2085-97-193 247:237:244:2033,0.492,-1.562,-0.574,183.167,420.044,421.875,74.778,16.276,168.327
 14:41:49.510,eb:33:2e:f9:57:b5, 2085-97-50 16:79:11:7520,2.847,-0.124,2.525,2.197,578.613,515.442,76.558,12.964,174.743
 14:41:49.510,eb:33:2e:f9:57:b5, 2085-97-136 24:246:24:7268,3.027,2.579,3.949,73.059,486.267,440.063,77.618,9.619,-178.61
 14:41:49.510,eb:33:2e:f9:57:b5, 2085-97-149 21:149:22:3369,2.292,3.123,2.704,288.33,173.401,288.879,79.794,6.823,-174.732
 14:41:49.510,eb:33:2e:f9:57:b5, 2085-97-124 14:145:19:3130,1.317,2.591,1.045,445.618,-143.616,120.178,83.672,4.911,-174.413
 14:41:49.539,eb:33:2e:f9:57:b5, 2085-97-137 06:132:17:9254,0.37,2.316,2.941,473.083,-336.426,-20.569,88.319,4.29,-177.083
 14:41:49.539,eb:33:2e:f9:57:b5, 2085-97-221 00:37:10:13837,0.054,1.864,5.897,427.856,-327.576,-119.629,92.807,5.048,179.467
 14:41:49.539,eb:33:2e:f9:57:b5, 2085-97-01 01:236:253:13473,0.355,0.458,6.938,357.666,-204.773,-169.678,96.608,6.707,176.858
 14:41:49.539,eb:33:2e:f9:57:b5, 2085-97-163 05:169:248:11022,1.04,-0.705,5.985,281.616,-70.618,-194.275,99.701,8.679,175.831
 14:41:49.569,eb:33:2e:f9:57:b5, 2085-97-41 10:16:247:8892,1.407,-1.027,4.838,215.21,-5.981,-226.501,102.112,10.8,175.858
 14:41:49.569,eb:33:2e:f9:57:b5, 2085-97-150 11:25:245:7022,1.414,-1.226,3.849,155.701,-7.996,-266.968,103.997,13.233,176.364
 14:41:49.569,eb:33:2e:f9:57:b5, 2085-97-83 10:233:242:6125,1.086,-1.503,3.131,99.121,-45.166,-300.842,105.271,16.084,176.726
 14:41:49.569,eb:33:2e:f9:57:b5, 2085-97-208 06:11:241:6389,0.642,-1.756,3.001,48.828,-79.895,-313.721,106.007,19.248,176.88
 14:41:49.629,eb:33:2e:f9:57:b5, 2085-97-160 03:182:239:6769,0.34,-1.945,3.25,8.606,-79.163,-299.316,106.21,22.434,176.825
 14:41:49.629,eb:33:2e:f9:57:b5, 2085-97-111 02:85:238:6484,0.303,-2.12,3.274,-18.494,-48.706,-266.724,106.177,25.323,176.957
 14:41:49.629,eb:33:2e:f9:57:b5, 2085-97-201 02:63:237:5378,0.353,-2.283,2.94,-37.964,-5.371,-225.22,105.98,27.746,177.33
 14:41:49.629,eb:33:2e:f9:57:b5, 2085-97-106 02:219:234:3152,0.23,-2.437,2.15,-61.035,26.489,-180.908,105.782,29.652,178.066
 14:41:49.659,eb:33:2e:f9:57:b5, 2085-97-206 01:122:230:-003,0.286,-2.973,0.702,-94.055,6.042,-131.714,105.238,31.102,178.687
 14:41:49.659,eb:33:2e:f9:57:b5, 2085-97-134 03:71:229:-2264,0.615,-3.3,-0.686,-159.18,-40.527,-81.055,104.002,32.157,178.748
 14:41:49.659,eb:33:2e:f9:57:b5, 2085-97-207 05:95:231:-3641,0.69,-3.297,-1.385,-273.315,-45.715,-32.41,101.574,32.783,178.336
 14:41:49.659,eb:33:2e:f9:57:b5, 2085-97-207 05:236:236:-5646,0.92,-2.794,-2.371,-438.599,-34.424,20.935,97.756,32.877,177.896
 14:41:49.749,eb:33:2e:f9:57:b5, 2085-97-21 08:235:239:-2811,1.057,-2.061,-2.352,-607.666,-48.828,58.289,92.093,32.454,177.407
 14:41:49.749,eb:33:2e:f9:57:b5, 2085-97-76 09:11:241:530,1.381,-2.022,-0.438,-667.419,-101.196,71.106,85.21,31.756,176.589
 14:41:49.749,eb:33:2e:f9:57:b5, 2085-97-237 12:127:248:2417,1.617,-1.453,0.791,-660.034,-169.25,74.219,77.866,30.789,175.21
 14:41:49.749,eb:33:2e:f9:57:b5, 2085-97-203 11:236:250:3436,1.368,-0.644,1.433,-632.812,-259.766,64.636,70.488,29.482,173.139
 14:41:49.988,eb:33:2e:f9:57:b5, 2085-97-126 10:102:249:4608,1.261,-0.734,1.951,-599.487,-351.196,60.364,63.105,27.62,170.294
 14:41:49.988,eb:33:2e:f9:57:b5, 2085-97-151 09:238:248:6044,1.098,-0.858,2.579,-576.782,-406.738,70.068,56.041,25.043,167.135
 14:41:49.988,eb:33:2e:f9:57:b5, 2085-97-06 08:06:248:7378,0.948,-0.935,3.291,-565.613,-415.344,90.088,49.312,21.813,164.229
 14:41:49.988,eb:33:2e:f9:57:b5, 2085-97-77 07:155:247:8137,0.917,-1.047,3.854,-568.848,-375.061,121.399,43.055,18.259,162.109
 14:41:50.023,eb:33:2e:f9:57:b5, 2085-97-163 07:254:248:7476,0.992,-1.013,3.912,-586.609,-297.363,153.442,36.991,14.771,161.082
 14:41:50.023,eb:33:2e:f9:57:b5, 2085-97-117 08:08:254:6172,1.064,-0.609,3.305,-615.234,-241.455,169.922,30.965,11.673,161.06
 14:41:50.023,eb:33:2e:f9:57:b5, 2085-97-166 07:45:04:5475,0.81,0.149,2.776,-641.541,-243.958,166.748,24.637,8.767,161.516
 14:41:50.023,eb:33:2e:f9:57:b5, 2085-97-04 05:244:09:6304,0.408,0.883,2.828,-650.879,-281.311,155.884,18.193,5.724,162.142
 14:41:50.079,eb:33:2e:f9:57:b5, 2085-97-136 01:130:15:6958,0.053,1.59,3.285,-640.503,-288.574,150.391,11.656,2.538,162.938
 14:41:50.079,eb:33:2e:f9:57:b5, 2085-97-195 255:183:22:6912,-0.035,2.32,3.423,-616.516,-257.324,147.278,5.323,-0.368,164.103
 14:41:50.079,eb:33:2e:f9:57:b5, 2085-97-192 255:225:29:7373,-0.102,3.279,3.414,-580.383,-214.355,133.362,-0.84,-2.73,165.476
 14:41:50.079,eb:33:2e:f9:57:b5, 2085-97-247 253:176:37:8456,-0.452,4.227,3.851,-539.307,-196.655,109.68,-6.614,-4.647,166.915
 14:41:50.080,eb:33:2e:f9:57:b5, 2085-97-215 250:78:47:9481,-0.799,5.242,4.386,-483.887,-190.125,84.9,-11.992,-6.405,168.234
 14:41:50.080,eb:33:2e:f9:57:b5, 2085-97-146 248:67:58:11216,-1.064,6.625,5.005,-388.611,-162.781,59.875,-16.589,-7.921,169.47
 14:41:50.080,eb:33:2e:f9:57:b5, 2085-97-12 247:249:63:10985,-1.049,7.78,5.69,-239.258,-114.99,28.931,-19.913,-9.086,170.365
 14:41:50.080,eb:33:2e:f9:57:b5, 2085-97-100 248:226:63:7436,-1.019,7.979,4.554,-130.737,-94.727,3.296,-21.747,-9.954,170.931
 14:41:50.082,eb:33:2e:f9:57:b5, 2085-97-197 245:19:67:6811,-1.619,8.134,3.11,-89.478,-143.25,-17.883,-22.95,-11.069,171.359
 14:41:50.082,eb:33:2e:f9:57:b5, 2085-97-33 241:23:68:9090,-1.943,8.57,3.955,14.404,-166.321,-51.208,-23.461,-12.7,171.777
 14:41:50.082,eb:33:2e:f9:57:b5, 2085-97-108 240:207:57:8102,-1.997,8.07,4.415,164.124,-113.037,-93.933,-22.44,-14.293,171.689
 14:41:50.082,eb:33:2e:f9:57:b5, 2085-97-112 239:49:39:5214,-1.487,6.047,3.25,236.572,-63.782,-126.709,-20.072,-15.502,170.964
 14:41:50.110,eb:33:2e:f9:57:b5, 2085-97-88 234:129:52:25128,0.316,4.673,2.83,336.67,-144.165,-179.443,-17.034,-16.545,169.794
 14:41:50.110,eb:33:2e:f9:57:b5, 2085-97-187 01:73:254:4487,-0.236,-0.129,2.627,61.829,161.011,-46.326,3.164,6.779,160.334
 14:41:50.110,eb:33:2e:f9:57:b5, 2085-97-30 253:195:255:2812,-0.857,-0.034,1.796,108.032,134.766,-42.908,4.048,8.35,159.939
 14:41:50.110,eb:33:2e:f9:57:b5, 2085-97-16 247:93:248:8412,-0.892,-0.538,2.829,163.94,62.744,-14.465,5.367,9.261,159.758
 14:41:50.110,eb:33:2e:f9:57:b5, 2085-97-188 250:231:245:10184,-0.771,-0.917,4.66,282.532,35.706,41.016,7.69,9.728,159.955
 14:41:50.110,eb:33:2e:f9:57:b5, 2085-97-10 249:68:241:10432,-0.471,-1.49,4.644,397.4,36.743,112.061,11.25,9.998,160.873
 14:41:50.110,eb:33:2e:f9:57:b5, 2085-97-71 02:139:238:11106,0.989,-2.236,5.847,506.531,34.241,139.16,15.941,10.052,162.186
 14:41:50.111,eb:33:2e:f9:57:b5, 2085-97-43 10:157:238:10741,1.429,-2.114,5.027,639.343,11.353,104.858,21.896,9.904,163.531
 14:41:50.113,eb:33:2e:f9:57:b5, 2085-97-20 09:73:240:12535,1.307,-2.154,5.674,740.051,55.176,21.729,28.949,9.877,164.125
 14:41:50.113,eb:33:2e:f9:57:b5, 2085-97-177 10:83:240:10897,0.683,-2.209,6.028,792.969,209.473,-30.945,36.771,11.195,164.811
 14:41:50.113,eb:33:2e:f9:57:b5, 2085-97-14 01:189:251:11857,-0.552,-1.089,5.236,825.134,175.293,-64.27,45.06,13.123,165.745
 14:41:50.113,eb:33:2e:f9:57:b5, 2085-97-55 248:106:01:10424,-0.893,0,5.778,902.771,97.29,-57.861,53.811,14.491,166.355
 14:41:50.139,eb:33:2e:f9:57:b5, 2085-97-40 247:105:245:6052,-2.981,-0.224,4.221,900.818,16.418,-11.475,63.007,15.029,166.476
 14:41:50.140,eb:33:2e:f9:57:b5, 2085-97-18 225:108:00:-3368,-3.134,-1.243,2.099,750.793,210.754,153.198,71.428,14.848,167.745
 14:41:50.140,eb:33:2e:f9:57:b5, 2085-97-69 240:76:238:2420,-0.087,-1.745,-0.465,310.852,399.414,365.417,77.278,13.167,171.299
 14:41:50.140,eb:33:2e:f9:57:b5, 2085-97-81 17:255:08:7857,3.106,-0.906,2.385,19.47,690.43,515.686,79.431,9.882,178.044
 14:41:50.169,eb:33:2e:f9:57:b5, 2085-97-215 29:118:31:7768,3.845,2.285,4.213,26.245,665.771,463.623,79.98,6.443,-174.018
 14:41:50.169,eb:33:2e:f9:57:b5, 2085-97-147 28:242:35:2728,2.987,4.667,2.682,328.674,193.909,247.559,81.947,3.768,-169.233
 14:41:50.169,eb:33:2e:f9:57:b5, 2085-97-46 18:76:23:5629,1.499,3.717,1.313,513.672,-242.981,14.038,86.429,2.565,-169.755
 14:41:50.169,eb:33:2e:f9:57:b5, 2085-97-92 06:53:14:12971,0.262,2.292,4.636,526.855,-387.39,-154.053,91.818,3.307,-173.249
 14:41:50.228,eb:33:2e:f9:57:b5, 2085-97-244 255:09:05:16292,0.025,1.264,7.543,458.496,-279.846,-234.985,96.707,5.526,-176.605
 14:41:50.228,eb:33:2e:f9:57:b5, 2085-97-216 01:210:251:13480,0.556,-0.04,7.482,369.507,-95.032,-253.479,100.75,8.212,-178.022
 14:41:50.228,eb:33:2e:f9:57:b5, 2085-97-94 07:08:250:10679,1.214,-0.73,5.768,282.654,21.79,-250.244,103.942,10.723,-177.808
 14:41:50.228,eb:33:2e:f9:57:b5, 2085-97-65 11:148:249:9000,1.514,-0.74,4.777,226.746,49.377,-258.423,106.578,13.068,-176.748
 14:41:50.259,eb:33:2e:f9:57:b5, 2085-97-123 12:73:247:7458,1.528,-0.933,4.004,192.993,17.822,-275.879,108.803,15.535,-175.677
 14:41:50.259,eb:33:2e:f9:57:b5, 2085-97-131 11:51:245:6157,1.301,-1.222,3.279,158.936,-36.499,-288.269,110.731,18.254,-174.847
 14:41:50.259,eb:33:2e:f9:57:b5, 2085-97-251 08:226:243:5462,0.973,-1.443,2.805,113.159,-75.134,-284.119,112.143,21.16,-174.446
 14:41:50.259,eb:33:2e:f9:57:b5, 2085-97-39 07:25:242:5668,0.855,-1.606,2.657,70.557,-89.05,-264.832,113.093,24.022,-174.205
 14:41:50.349,eb:33:2e:f9:57:b5, 2085-97-182 06:213:239:5884,0.818,-1.875,2.851,48.767,-82.031,-239.38,113.665,26.669,-174.084
 14:41:50.349,eb:33:2e:f9:57:b5, 2085-97-176 05:141:236:5079,0.553,-2.181,2.785,38.33,-70.374,-209.229,114.17,29.02,-173.886
 14:41:50.349,eb:33:2e:f9:57:b5, 2085-97-117 03:141:230:2912,0.426,-2.793,2.006,24.841,-87.402,-172.18,114.434,31.058,-173.875
 14:41:50.349,eb:33:2e:f9:57:b5, 2085-97-09 04:113:226:082,0.638,-3.503,0.764,-11.597,-125.488,-127.136,114.291,32.849,-174.331
 14:41:50.351,eb:33:2e:f9:57:b5, 2085-97-98 05:164:223:-2525,-0.067,-3.813,-0.496,-112.854,-115.845,-73.364,113.159,34.239,-175.276
 14:41:50.351,eb:33:2e:f9:57:b5, 2085-113-58 00:197:239:-2535,0.452,-4.422,-2.855,-285.156,-76.904,1.465,110.742,34.915,-176.116
 14:41:50.351,eb:33:2e:f9:57:b5, 2085-97-124 08:207:229:-6088,1.247,-4.065,-3.735,-440.613,-54.26,54.565,108.583,34.854,-176.556
 14:41:50.351,eb:33:2e:f9:57:b5, 2085-97-240 10:120:235:-1311,1.459,-2.792,-1.61,-627.747,-25.635,89.355,102.717,34.184,-177.144
 14:41:50.438,eb:33:2e:f9:57:b5, 2085-97-65 12:159:238:279,1.636,-2.408,-0.096,-696.35,-35.4,89.417,95.702,33.322,-177.621
 14:41:50.438,eb:33:2e:f9:57:b5, 2085-97-101 14:173:243:916,2.06,-1.88,0.245,-710.266,-77.026,79.895,88.33,32.481,-178.253
 14:41:50.438,eb:33:2e:f9:57:b5, 2085-97-20 18:160:250:2693,2.215,-1.113,0.885,-706.482,-144.714,59.509,80.623,31.641,-179.423
 14:41:50.438,eb:33:2e:f9:57:b5, 2085-97-67 16:09:253:4014,1.838,-0.4,1.632,-679.26,-256.897,27.71,72.74,30.712,178.517
 14:41:50.441,eb:33:2e:f9:57:b5, 2085-97-124 13:71:250:5429,1.54,-0.514,2.313,-628.418,-390.32,3.113,64.693,29.301,175.177
 14:41:50.441,eb:33:2e:f9:57:b5, 2085-97-219 10:62:247:6844,1.102,-0.908,2.984,-588.257,-483.826,6.775,56.931,27.015,170.997
 14:41:50.441,eb:33:2e:f9:57:b5, 2085-97-118 06:111:244:8501,0.553,-1.273,3.732,-579.834,-504.272,45.837,49.57,23.703,166.937
 14:41:50.441,eb:33:2e:f9:57:b5, 2085-97-120 03:25:243:9680,0.486,-1.581,4.514,-597.839,-422.974,117.188,42.808,19.814,164.092
 14:41:50.528,eb:33:2e:f9:57:b5, 2085-97-237 04:85:247:8744,0.749,-1.446,4.648,-635.01,-268.372,191.895,36.348,16.144,163.224
 14:41:50.528,eb:33:2e:f9:57:b5, 2085-97-29 07:128:254:7288,1.029,-0.653,3.894,-665.771,-174.194,227.661,29.943,13.244,163.982
 14:41:50.528,eb:33:2e:f9:57:b5, 2085-97-242 08:40:05:6087,1.146,0.244,3.244,-674.438,-164.001,224.915,23.346,10.761,165.372
 14:41:50.528,eb:33:2e:f9:57:b5, 2085-97-227 08:130:10:5555,0.989,0.992,2.805,-663.94,-204.468,200.928,16.787,8.328,166.827
 14:41:50.649,eb:33:2e:f9:57:b5, 2085-97-187 06:165:14:5383,0.758,1.595,2.629,-646.729,-250.671,172.119,10.239,5.647,168.162
 14:41:50.649,eb:33:2e:f9:57:b5, 2085-97-178 05:91:18:6170,0.62,2.038,2.788,-621.521,-280.029,144.165,3.911,2.807,169.492
 14:41:50.649,eb:33:2e:f9:57:b5, 2085-97-30 04:06:23:7766,0.424,2.583,3.312,-589.783,-288.574,114.624,-2.252,-0.071,170.81
 14:41:50.649,eb:33:2e:f9:57:b5, 2085-97-104 02:182:29:10616,0.099,3.19,4.421,-562.134,-274.597,88.135,-8.113,-2.785,172.167
 14:41:50.651,eb:33:2e:f9:57:b5, 2085-97-254 254:245:41:12036,-0.321,4.412,5.586,-530.273,-216.309,65.857,-13.804,-5.043,173.441
 14:41:50.651,eb:33:2e:f9:57:b5, 2085-97-147 252:109:54:12848,-0.563,6.008,6.136,-436.279,-158.997,33.813,-18.847,-6.647,174.529
 14:41:50.651,eb:33:2e:f9:57:b5, 2085-97-232 250:125:64:11390,-0.589,7.528,6.09,-292.175,-116.821,-9.033,-22.582,-7.877,175.166
 14:41:50.651,eb:33:2e:f9:57:b5, 2085-97-27 250:68:69:8234,-1.232,8.383,4.823,-182.19,-111.877,-51.636,-24.873,-9.02,175.386
 14:41:50.651,eb:33:2e:f9:57:b5, 2085-97-214 240:119:72:7871,-2.411,8.915,3.638,-105.835,-172.363,-86.792,-26.323,-10.624,175.413
 14:41:50.651,eb:33:2e:f9:57:b5, 2085-97-09 234:249:69:9602,-3.056,9.03,4.361,39.673,-204.102,-115.417,-26.636,-12.854,175.474
 14:41:50.651,eb:33:2e:f9:57:b5, 2085-97-06 229:122:56:8696,-3.451,8.06,4.608,173.645,-150.513,-133.789,-25.329,-15.057,175.177
 14:41:50.652,eb:33:2e:f9:57:b5, 2085-97-222 229:245:42:6946,-2.878,6.073,3.819,219.299,-41.504,-117.065,-23.011,-16.452,174.435
 14:41:50.654,eb:33:2e:f9:57:b5, 2085-97-37 236:223:33:5893,-2.281,4.858,3.164,247.375,51.27,-92.346,-20.297,-16.727,173.392
 14:41:50.654,eb:33:2e:f9:57:b5, 2085-97-77 238:116:17:3234,-2.137,3.355,2.274,316.711,69.885,-76.721,-17.073,-16.37,172.343
 14:41:50.654,eb:33:2e:f9:57:b5, 2085-97-25 33:26:35:19864,-5.172,0.743,0.988,383.606,23.438,-31.006,-13.26,-16.04,171.634
 14:41:50.654,eb:33:2e:f9:57:b5, 2085-97-229 39:139:53:6881,3.477,-0.03,-1.803,671.631,463.928,-106.995,-6.279,-14.689,170.42
 14:41:50.739,eb:33:2e:f9:57:b5, 2085-97-122 15:205:16:16664,-2.286,7.852,12.32,-23.132,921.509,-75.867,-2.961,-8.026,167.844
 14:41:50.739,eb:33:2e:f9:57:b5, 2085-97-239 222:70:221:-3985,-2.942,-1.372,-0.266,76.66,530.518,-35.645,-3.17,-0.264,167.607
 14:41:50.739,eb:33:2e:f9:57:b5, 2085-97-135 219:77:12:-3297,-1.125,-0.775,-1.995,181.58,169.495,-30.396,-1.351,2.994,166.729
 14:41:50.739,eb:33:2e:f9:57:b5, 2085-97-125 255:157:04:-1152,2.644,0.625,-1.584,93.445,-1.16,26.672,-0.121,3.571,167.256
 14:41:50.741,eb:33:2e:f9:57:b5, 2085-97-75 05:17:00:4300,0.395,0.823,3.243,49.866,82.031,4.578,0.555,3.527,167.393
 14:41:50.741,eb:33:2e:f9:57:b5, 2085-97-194 03:206:00:4362,-0.972,0.203,1.906,67.322,106.567,-9.949,1.192,4.609,167.322
 14:41:50.741,eb:33:2e:f9:57:b5, 2085-97-132 246:239:251:2510,-0.14,-0.445,0.787,75.806,117.188,-8.972,1.917,5.988,167.245
 14:41:50.741,eb:33:2e:f9:57:b5, 2085-97-10 00:95:01:3649,-1.059,-0.17,2.265,95.398,58.533,12.817,2.774,6.713,167.355
 14:41:50.741,eb:33:2e:f9:57:b5, 2085-97-219 250:39:247:9741,-0.361,-0.526,2.914,159.302,-41.565,29.297,4.07,6.746,167.52
 14:41:50.741,eb:33:2e:f9:57:b5, 2085-97-42 251:188:243:12115,-0.423,-1.198,5.483,317.81,-54.993,62.317,6.542,6.13,168.008
 14:41:50.741,eb:33:2e:f9:57:b5, 2085-97-09 01:147:240:10526,0.546,-1.725,6.026,461.609,-8.789,116.943,10.596,5.779,168.882
 14:41:50.741,eb:33:2e:f9:57:b5, 2085-97-170 07:61:238:10642,1.166,-2.102,5.035,571.716,-27.161,111.206,15.837,5.345,170.024
 14:41:50.769,eb:33:2e:f9:57:b5, 2085-97-118 06:47:239:11727,0.848,-2.139,5.15,688.599,-10.254,60.059,22.264,4.911,170.804
 14:41:50.769,eb:33:2e:f9:57:b5, 2085-97-229 08:152:236:12378,1.285,-2.311,6.377,778.809,113.037,-1.404,29.696,5.251,171.216
 14:41:50.769,eb:33:2e:f9:57:b5, 2085-97-78 07:140:246:12387,0.312,-1.592,5.707,819.214,192.871,-41.565,37.744,6.784,171.958
 14:41:50.769,eb:33:2e:f9:57:b5, 2085-97-234 254:112:255:10820,-0.208,-1.058,6.331,859.985,214.966,-37.048,46.159,8.619,172.914
 14:41:50.829,eb:33:2e:f9:57:b5, 2085-97-117 253:156:01:6731,-0.601,0.524,4.329,973.022,93.079,-8.606,55.508,9.844,173.952
 14:41:50.829,eb:33:2e:f9:57:b5, 2085-97-217 242:18:05:748,-2.527,-0.78,1.939,947.754,21.851,67.505,65.281,9.734,174.265
 14:41:50.829,eb:33:2e:f9:57:b5, 2085-97-110 235:10:02:-1229,-2.529,2.439,-2.849,700.073,23.499,142.883,73.894,8.8,175.111
 14:41:50.829,eb:33:2e:f9:57:b5, 2085-97-237 243:149:251:4114,0.112,-1.07,1.193,327.576,250.366,308.777,78.816,6.844,176.863
 14:41:50.829,eb:33:2e:f9:57:b5, 2085-113-81 00:32:01:253,1.357,0.609,3.192,143.799,479.675,376.282,81.019,4.059,-178.654
 14:41:50.859,eb:33:2e:f9:57:b5, 2085-97-221 14:149:22:7703,2.097,1.731,3.898,132.751,505.737,353.882,81.65,2.697,-175.869
 14:41:50.859,eb:33:2e:f9:57:b5, 2085-97-228 16:85:30:6300,1.839,3.621,3.538,262.939,283.752,231.628,83.364,0.423,-171.348
 14:41:50.859,eb:33:2e:f9:57:b5, 2085-97-252 11:134:21:6323,1.14,3.31,2.753,453.308,-73.73,58.228,87.089,-0.78,-170.513
 14:41:50.859,eb:33:2e:f9:57:b5, 2085-97-80 06:146:15:10550,0.5,2.224,4.02,518.555,-237.549,-62.378,92.214,-0.698,-172.304
 14:41:50.949,eb:33:2e:f9:57:b5, 2085-97-129 02:143:11:13843,0.219,1.728,6.178,512.268,-223.633,-137.695,97.559,0.533,-174.694
 14:41:50.949,eb:33:2e:f9:57:b5, 2085-97-233 01:61:04:13017,0.379,1.018,6.764,469.177,-131.287,-178.467,102.541,2.401,-176.149
 14:41:50.949,eb:33:2e:f9:57:b5, 2085-97-124 04:180:255:10966,0.784,0.151,5.837,399.109,-55.115,-193.298,106.842,4.427,-176.605
 14:41:50.949,eb:33:2e:f9:57:b5, 2085-97-47 08:89:255:9694,1.254,-0.088,4.971,317.688,-10.986,-205.444,110.391,6.405,-176.259
 14:41:50.951,eb:33:2e:f9:57:b5, 2085-97-86 11:46:255:9219,1.503,-0.063,4.6,257.202,-8.423,-229.004,113.214,8.465,-175.594
 14:41:50.951,eb:33:2e:f9:57:b5, 2085-97-96 12:108:253:8717,1.548,-0.199,4.395,214.966,-28.259,-259.827,115.626,10.794,-174.776
 14:41:50.951,eb:33:2e:f9:57:b5, 2085-97-83 12:38:251:7891,1.509,-0.455,4.066,178.101,-55.115,-285.767,117.636,13.453,-174.007
 14:41:50.951,eb:33:2e:f9:57:b5, 2085-97-108 11:41:248:6915,1.343,-0.793,3.615,130.493,-62.927,-297.546,119.323,16.353,-173.188
 14:41:51.040,eb:33:2e:f9:57:b5, 2085-97-121 10:224:244:6341,1.361,-1.165,3.182,71.106,-30.029,-287.964,120.487,19.149,-172.189
 14:41:51.040,eb:33:2e:f9:57:b5, 2085-97-103 11:229:241:5935,1.507,-1.6,3.031,28.137,17.639,-270.02,121.339,21.588,-170.777
 14:41:51.040,eb:33:2e:f9:57:b5, 2085-97-106 12:240:239:5165,1.459,-1.883,2.755,1.221,51.208,-251.465,121.954,23.626,-169.069
 14:41:51.040,eb:33:2e:f9:57:b5, 2085-97-165 10:162:235:2949,1.235,-2.223,2.042,-14.038,41.077,-236.328,122.503,25.444,-167.245
 14:41:51.042,eb:33:2e:f9:57:b5, 2085-97-95 09:49:229:240,1.183,-2.978,0.823,-24.17,-39.124,-221.619,122.734,27.383,-165.954
 14:41:51.042,eb:33:2e:f9:57:b5, 2085-97-144 10:210:223:-3194,-0.275,-3.594,-0.63,-64.331,-143.433,-198.975,122.432,29.68,-165.657
 14:41:51.042,eb:33:2e:f9:57:b5, 2085-97-72 254:245:205:-12472,0.857,-5.28,-4.52,-212.158,-197.327,-140.076,120.789,32.091,-166.366
 14:41:51.042,eb:33:2e:f9:57:b5, 2085-97-173 07:183:221:-2579,0.954,-5.107,-3.478,-542.908,-127.93,8.362,116.115,33.294,-167.739
 14:41:51.069,eb:33:2e:f9:57:b5, 2085-97-156 08:242:227:-648,1.27,-3.87,-0.343,-654.48,-71.472,66.467,109.341,33.267,-168.926
 14:41:51.069,eb:33:2e:f9:57:b5, 2085-97-146 11:104:234:-1305,1.625,-3.096,-0.577,-693.115,-65.552,100.098,102.101,32.569,-169.827
 14:41:51.069,eb:33:2e:f9:57:b5, 2085-97-160 14:25:239:198,1.958,-2.404,-0.373,-682.861,-153.687,106.812,94.504,31.652,-171.156
 14:41:51.069,eb:33:2e:f9:57:b5, 2085-97-192 15:105:242:2386,1.96,-1.871,0.623,-646.606,-288.94,101.868,86.715,30.569,-173.677
 14:41:51.100,eb:33:2e:f9:57:b5, 2085-113-58 00:72:229:-1785,1.959,-1.482,1.708,-609.436,-421.387,94.299,78.75,29.053,-177.473
 14:41:51.100,eb:33:2e:f9:57:b5, 2085-97-219 14:104:246:5474,1.683,-1.27,2.191,-599.487,-478.027,95.398,74.784,28.026,-179.753
 14:41:51.100,eb:33:2e:f9:57:b5, 2085-97-29 12:192:242:7776,1.354,-1.364,3.211,-593.201,-563.171,103.027,66.863,25.241,175.292
 14:41:51.100,eb:33:2e:f9:57:b5, 2085-97-105 09:162:239:9984,1.001,-1.916,4.375,-603.638,-563.843,132.507,59.299,21.517,170.546
 14:41:51.220,eb:33:2e:f9:57:b5, 2085-97-239 06:151:240:11208,0.9,-2.051,5.258,-631.409,-459.839,183.105,52.158,17.216,167.201
 14:41:51.220,eb:33:2e:f9:57:b5, 2085-97-111 08:183:245:10723,1.217,-1.658,5.479,-670.288,-290.1,224.06,45.363,13.217,165.883
 14:41:51.220,eb:33:2e:f9:57:b5, 2085-113-81 00:90:239:380,1.359,-0.815,4.797,-701.294,-163.086,223.206,38.452,10.102,166.245
 14:41:51.220,eb:33:2e:f9:57:b5, 2085-97-177 11:174:01:7948,1.385,-0.262,4.331,-709.167,-139.404,202.82,34.958,8.888,166.679
 14:41:51.220,eb:33:2e:f9:57:b5, 2085-97-88 09:217:05:6168,0.88,0.555,3.388,-701.172,-173.157,143.86,27.938,6.729,167.437
 14:41:51.248,eb:33:2e:f9:57:b5, 2085-97-182 04:71:06:5533,0.263,0.771,2.769,-682.495,-253.235,93.018,20.973,4.235,167.646
 14:41:51.248,eb:33:2e:f9:57:b5, 2085-97-132 255:252:07:6266,-0.296,0.855,2.819,-677.124,-288.513,80.627,14.189,1.346,167.706
 14:41:51.248,eb:33:2e:f9:57:b5, 2085-97-179 252:219:12:7504,-0.438,1.25,3.373,-671.204,-264.709,89.905,7.344,-1.588,168.113
 14:41:51.248,eb:33:2e:f9:57:b5, 2085-97-179 252:69:19:8703,-0.385,2.002,3.94,-648.193,-226.562,94.055,0.648,-4.048,168.975
 14:41:51.279,eb:33:2e:f9:57:b5, 2085-97-34 253:193:26:10481,-0.308,2.832,4.617,-609.741,-203.43,82.214,-5.861,-6.152,170.052
 14:41:51.279,eb:33:2e:f9:57:b5, 2085-97-111 253:09:36:11853,-0.462,3.839,5.507,-540.405,-167.236,56.274,-11.783,-7.85,171.118
 14:41:51.279,eb:33:2e:f9:57:b5, 2085-97-142 250:147:47:12453,-0.891,5.243,5.968,-449.829,-133.057,25.024,-16.946,-9.196,171.947
 14:41:51.279,eb:33:2e:f9:57:b5, 2085-97-53 248:185:54:11325,-0.898,6.474,5.954,-344.116,-95.886,-3.662,-20.967,-10.228,172.48
 14:41:51.281,eb:33:2e:f9:57:b5, 2085-97-218 248:55:60:8730,-1.162,7.162,4.932,-261.169,-83.252,-21.606,-24.022,-11.08,172.738
 14:41:51.281,eb:33:2e:f9:57:b5, 2085-97-121 242:83:64:7986,-2.196,7.889,3.905,-169.189,-142.212,-41.87,-26.235,-12.217,173.013
 14:41:51.281,eb:33:2e:f9:57:b5, 2085-97-162 235:18:61:8463,-2.788,7.948,4.078,-10.01,-195.251,-59.998,-27.219,-14.035,173.43
 14:41:51.281,eb:33:2e:f9:57:b5, 2085-97-23 232:251:50:7347,-3.141,7.114,3.906,130.066,-185.974,-64.209,-26.609,-16.051,173.864
 14:41:51.429,eb:33:2e:f9:57:b5, 2085-97-166 231:236:36:6138,-1.883,5.48,3.317,201.233,-128.54,-48.096,-24.961,-17.743,174.144
 14:41:51.429,eb:33:2e:f9:57:b5, 2085-97-144 244:140:49:25883,-2.867,4.791,3.326,333.679,-114.136,-98.877,-22.549,-18.688,174.172
 14:41:51.429,eb:33:2e:f9:57:b5, 2085-97-243 252:08:71:13702,-3.155,8.566,-3.5,738.586,470.703,-177.856,-14.584,-16.205,171.601
 14:41:51.429,eb:33:2e:f9:57:b5, 2085-97-159 242:27:34:26381,3.849,9.431,10.291,541.809,635.681,-340.82,-6.564,-10.997,167.228
 14:41:51.431,eb:33:2e:f9:57:b5, 2085-97-108 16:218:243:834,-3.851,1.602,8.891,102.051,559.204,111.511,-3.406,-5.768,165.471
 14:41:51.431,eb:33:2e:f9:57:b5, 2085-97-217 235:76:249:-5321,-2.005,-1.5,-0.574,226.318,326.294,21.912,-1.95,-1.225,166.064
 14:41:51.431,eb:33:2e:f9:57:b5, 2085-97-135 00:155:14:-1920,-0.354,1.591,-0.144,133.057,128.418,61.646,0.093,0.346,165.987
 14:41:51.431,eb:33:2e:f9:57:b5, 2085-97-03 01:186:03:1490,1.327,0.807,0.336,89.417,95.154,-19.531,1.038,1.56,166.344
 14:41:51.433,eb:33:2e:f9:57:b5, 2085-97-200 248:184:254:1612,-1.747,0.518,2.592,65.552,156.616,-9.033,1.708,2.483,166.503
 14:41:51.434,eb:33:2e:f9:57:b5, 2085-97-251 04:122:01:5469,1.295,-0.736,-0.169,59.937,23.987,36.682,2.384,3.647,166.558
 14:41:51.434,eb:33:2e:f9:57:b5, 2085-97-80 255:46:254:4433,-1.114,0.382,3.56,75.317,174.133,-30.029,3.115,4.395,166.696
 14:41:51.434,eb:33:2e:f9:57:b5, 2085-97-246 249:61:251:5626,0.028,-0.901,1.698,111.145,73.608,5.615,4.021,5.867,166.553
 14:41:51.434,eb:33:2e:f9:57:b5, 2085-97-69 04:20:253:11154,0.16,-0.396,4.586,228.088,-17.578,14.954,5.779,5.889,166.745
 14:41:51.434,eb:33:2e:f9:57:b5, 2085-97-129 253:49:243:8934,0.286,-0.961,4.987,344.116,70.007,30.518,8.712,6.196,166.998
 14:41:51.435,eb:33:2e:f9:57:b5, 2085-97-166 06:71:242:9772,0.783,-1.582,4.747,448.792,75.867,49.683,12.772,6.844,167.536
 14:41:51.435,eb:33:2e:f9:57:b5, 2085-97-89 06:171:239:8894,1.108,-1.81,4.491,564.392,63.354,47.913,17.968,7.438,168.267
 14:41:51.459,eb:33:2e:f9:57:b5, 2085-97-70 08:22:238:8398,0.707,-2.215,4.224,657.288,58.167,2.38,24.197,7.905,168.684
 14:41:51.459,eb:33:2e:f9:57:b5, 2085-97-00 00:94:237:9714,-0.449,-1.957,4.335,717.224,114.624,-47.058,31.135,8.734,168.871
 14:41:51.459,eb:33:2e:f9:57:b5, 2085-97-164 251:147:239:8511,-0.023,-2.497,4.487,720.276,225.525,-31.25,38.48,10.492,169.486
 14:41:51.459,eb:33:2e:f9:57:b5, 2085-97-210 255:118:233:7762,-0.477,-2.086,4.051,723.022,208.008,-19.897,45.84,12.321,170.821
 14:41:51.519,eb:33:2e:f9:57:b5, 2085-97-147 251:22:237:7587,-0.362,-2.972,3.593,728.271,211.731,7.019,53.372,13.766,172.337
 14:41:51.519,eb:33:2e:f9:57:b5, 2085-97-192 255:152:245:6149,0.229,-1.642,3.594,723.206,170.044,46.936,60.963,14.595,174.166
 14:41:51.519,eb:33:2e:f9:57:b5, 2085-97-149 249:129:237:3490,-0.933,-1.478,1.572,592.407,119.385,72.449,67.95,14.689,175.655
 14:41:51.519,eb:33:2e:f9:57:b5, 2085-97-51 248:207:250:-4135,-0.694,-0.789,-1.014,345.642,223.877,187.012,73.103,14.057,177.99
 14:41:51.550,eb:33:2e:f9:57:b5, 2085-113-81 00:116:251:2165,-0.043,-1.282,-0.558,-54.81,309.448,290.588,74.702,12.541,-178.726
 14:41:51.550,eb:33:2e:f9:57:b5, 2085-97-236 07:14:254:4637,1.863,-1.046,0.938,-143.86,343.506,314.209,74.416,11.541,-176.66
 14:41:51.550,eb:33:2e:f9:57:b5, 2085-97-148 18:43:12:6327,2.443,0.732,2.97,-145.752,347.839,269.287,73.306,9.761,-172.365
 14:41:51.550,eb:33:2e:f9:57:b5, 2085-97-177 18:73:17:4364,2.185,2.017,2.757,-20.02,225.464,164.307,72.79,8.635,-168.904
 14:41:51.580,eb:33:2e:f9:57:b5, 2085-97-58 16:151:11:3158,1.881,1.883,1.707,124.207,13.306,33.875,73.553,8.113,-167.629
 14:41:51.580,eb:33:2e:f9:57:b5, 2085-97-192 13:152:05:4552,1.526,1.041,1.737,181.824,-127.136,-68.665,75.119,8.141,-168.371
 14:41:51.580,eb:33:2e:f9:57:b5, 2085-97-188 10:17:01:7088,1.202,0.398,2.869,184.753,-174.805,-145.935,76.833,8.811,-170.228
 14:41:51.580,eb:33:2e:f9:57:b5, 2085-97-236 08:172:253:8220,1.12,-0.083,3.871,167.297,-147.766,-197.083,78.404,10.14,-172.233
 14:41:51.638,eb:33:2e:f9:57:b5, 2085-97-98 09:74:249:7620,1.241,-0.555,3.942,145.996,-103.943,-232.239,79.739,11.997,-173.897
 14:41:51.638,eb:33:2e:f9:57:b5, 2085-97-135 10:81:245:6731,1.378,-1.104,3.482,122.498,-83.191,-257.874,80.854,14.249,-175.259
 14:41:51.638,eb:33:2e:f9:57:b5, 2085-97-91 11:00:242:6056,1.449,-1.549,3.124,96.741,-73.059,-277.71,81.667,16.76,-176.506
 14:41:51.638,eb:33:2e:f9:57:b5, 2085-97-213 11:55:239:5216,1.503,-1.937,2.771,66.101,-61.035,-290.039,82.189,19.468,-177.649
 14:41:51.670,eb:33:2e:f9:57:b5, 2085-97-243 11:189:237:4051,1.461,-2.217,2.278,27.832,-45.471,-294.739,82.321,22.264,-178.654
 14:41:51.670,eb:33:2e:f9:57:b5, 2085-97-33 11:44:237:3387,1.079,-2.31,1.742,-17.395,-42.725,-292.847,82.046,25.104,-179.572
 14:41:51.670,eb:33:2e:f9:57:b5, 2085-97-221 05:185:234:3019,0.522,-2.46,1.507,-62.195,-81.848,-278.564,81.14,27.812,179.308
 14:41:51.670,eb:33:2e:f9:57:b5, 2085-97-104 02:227:230:3374,0.021,-2.907,1.605,-103.577,-144.104,-238.831,79.514,30.135,177.484
 14:41:51.699,eb:33:2e:f9:57:b5, 2085-97-173 254:15:229:3292,-0.112,-3.286,1.595,-154.419,-158.386,-168.701,77.162,31.745,175.292
 14:41:51.699,eb:33:2e:f9:57:b5, 2085-97-141 00:103:229:3061,0.291,-3.37,1.662,-228.76,-84.839,-73.975,74.421,32.552,173.573
 14:41:51.699,eb:33:2e:f9:57:b5, 2085-97-135 04:13:232:1238,0.858,-3.231,1.056,-327.881,25.94,17.09,71.4,32.673,173.293
 14:41:51.699,eb:33:2e:f9:57:b5, 2085-97-90 08:147:239:-321,1.112,-2.568,0.233,-427.063,75.195,71.411,67.972,32.426,174.155
 14:41:51.998,eb:33:2e:f9:57:b5, 2085-97-147 09:122:245:-1381,1.404,-1.614,-0.52,-510.193,34.363,85.144,63.644,31.926,175.193
 14:41:51.999,eb:33:2e:f9:57:b5, 2085-97-140 13:131:248:058,1.923,-1.104,-0.441,-554.382,-86.304,66.284,58.354,31.113,175.413
 14:41:51.999,eb:33:2e:f9:57:b5, 2085-97-178 15:00:250:1862,1.817,-0.79,0.509,-543.579,-214.111,31.006,52.3,29.789,174.353
 14:41:52.000,eb:33:2e:f9:57:b5, 2085-97-28 13:248:247:3040,1.536,-0.844,1.227,-523.499,-334.29,1.526,46.06,27.79,172.167
 14:41:52.208,eb:33:2e:f9:57:b5, 2085-97-204 11:60:245:4536,1.393,-1.183,1.796,-526.306,-415.222,-6.287,39.721,24.933,169.415
 14:41:52.208,eb:33:2e:f9:57:b5, 2085-97-09 10:20:243:6552,1.018,-1.484,2.708,-555.298,-441.833,4.883,33.431,21.401,166.767
 14:41:52.208,eb:33:2e:f9:57:b5, 2085-97-180 05:250:240:8741,0.451,-1.756,3.725,-595.154,-431.824,38.513,27.065,17.43,164.778
 14:41:52.208,eb:33:2e:f9:57:b5, 2085-97-236 01:89:241:10141,0.143,-1.936,4.731,-627.991,-376.526,102.966,20.731,13.431,163.894
 14:41:52.211,eb:33:2e:f9:57:b5, 2085-97-43 01:137:247:9677,0.109,-1.539,4.944,-643.127,-302.185,178.04,14.343,9.778,164.377
 14:41:52.211,eb:33:2e:f9:57:b5, 2085-97-224 00:244:02:9272,0.232,-0.406,4.493,-635.071,-282.166,234.68,8.042,6.608,166.014
 14:41:52.211,eb:33:2e:f9:57:b5, 2085-97-186 03:81:17:10033,0.698,1.233,4.743,-582.336,-294.861,253.54,1.912,3.532,168.333
 14:41:52.211,eb:33:2e:f9:57:b5, 2085-97-01 06:163:29:9749,0.617,3.042,4.907,-488.77,-314.941,220.459,-3.488,0.566,170.892
 14:41:52.240,eb:33:2e:f9:57:b5, 2085-97-155 02:150:35:9965,-0.065,4.125,4.678,-413.33,-335.266,159.424,-8.179,-2.499,173.183
 14:41:52.240,eb:33:2e:f9:57:b5, 2085-97-146 252:124:41:11399,-0.703,4.814,5.222,-384.705,-310.425,119.019,-12.404,-5.422,175.226
 14:41:52.240,eb:33:2e:f9:57:b5, 2085-97-208 248:200:49:11500,-1.062,5.635,5.715,-372.131,-248.962,98.572,-16.567,-7.839,177.067
 14:41:52.240,eb:33:2e:f9:57:b5, 2085-97-85 246:167:59:10363,-1.428,6.886,5.354,-325.928,-209.595,65.308,-20.429,-9.662,178.693
 14:41:52.240,eb:33:2e:f9:57:b5, 2085-97-45 242:184:61:9437,-1.985,7.731,4.799,-233.643,-201.477,5.31,-23.511,-11.448,179.879
 14:41:52.240,eb:33:2e:f9:57:b5, 2085-97-56 02:52:03:2772,0.245,7.54,4.356,-156.372,-134.216,-44.861,-25.543,-13.096,-179.511
 14:41:52.240,eb:33:2e:f9:57:b5, 2085-97-131 02:233:255:3714,0.124,-0.099,1.694,61.646,126.831,-23.926,1.203,1.252,174.754
 14:41:52.240,eb:33:2e:f9:57:b5, 2085-97-12 255:117:255:2844,-0.12,0.127,1.494,74.951,157.349,-40.161,1.928,2.714,174.463
 14:41:52.244,eb:33:2e:f9:57:b5, 2085-97-103 00:154:255:2932,-0.408,-0.176,1.442,92.651,122.009,-32.349,2.829,4.12,174.122
 14:41:52.244,eb:33:2e:f9:57:b5, 2085-97-46 18:158:04:5654,2.453,-0.209,1.812,123.535,83.069,-28.809,3.878,5.169,173.875
 14:41:52.244,eb:33:2e:f9:57:b5, 2085-97-18 20:227:07:4376,2.349,0.927,2.616,-57.19,67.383,42.297,71.274,9.426,-158.654
 14:41:52.244,eb:33:2e:f9:57:b5, 2085-97-201 16:111:01:2201,1.871,0.693,1.532,-18.372,-63.66,-95.52,70.95,9.745,-158.791
 14:41:52.270,eb:33:2e:f9:57:b5, 2085-97-214 12:203:247:2240,1.398,-0.396,0.935,-42.725,-171.814,-200.928,70.488,10.761,-160.543
 14:41:52.270,eb:33:2e:f9:57:b5, 2085-97-218 09:94:242:3194,1.125,-1.432,1.352,-118.042,-196.716,-261.78,69.296,12.294,-163.235
 14:41:52.270,eb:33:2e:f9:57:b5, 2085-97-155 08:39:241:3281,1.06,-1.843,1.631,-185.73,-159.973,-281.982,67.286,14.123,-165.954
 14:41:52.270,eb:33:2e:f9:57:b5, 2085-97-157 08:166:242:3075,1.097,-1.786,1.545,-231.018,-125.122,-292.114,64.671,16.139,-168.481
 14:41:52.807,eb:33:2e:f9:57:b5, 2085-97-230 08:112:244:3001,1.111,-1.549,1.476,-251.648,-102.356,-302.734,61.661,18.226,-170.898
 14:41:52.807,eb:33:2e:f9:57:b5, 2085-97-215 08:190:245:3053,1.089,-1.352,1.461,-257.019,-82.153,-310.974,58.458,20.391,-173.342
 14:41:52.807,eb:33:2e:f9:57:b5, 2085-113-100 00:154:01:000,1.017,-1.251,1.597,-254.7,-64.209,-312.927,55.135,22.549,-175.781
 14:41:52.807,eb:33:2e:f9:57:b5, 2085-97-155 06:237:244:3929,0.53,-1.281,1.776,-251.709,-58.655,-309.57,53.465,23.61,-177.028
 14:41:52.807,eb:33:2e:f9:57:b5, 2085-97-145 01:54:242:4091,-0.057,-1.542,1.995,-240.479,-67.322,-286.926,50.114,25.532,-179.55
 14:41:52.809,eb:33:2e:f9:57:b5, 2085-97-27 255:115:240:3956,0,-1.877,1.947,-237.244,-80.2,-232.544,46.774,26.906,177.979
 14:41:52.809,eb:33:2e:f9:57:b5, 2085-97-55 01:91:241:3642,0.287,-1.924,1.907,-267.7,-44.25,-154.419,43.484,27.762,176.006
 14:41:52.809,eb:33:2e:f9:57:b5, 2085-97-157 03:191:243:2929,0.654,-1.693,1.579,-333.191,24.597,-72.876,40.051,28.405,175.095
 14:41:52.809,eb:33:2e:f9:57:b5, 2085-97-141 06:75:247:2502,0.944,-1.333,1.353,-393.127,61.279,-12.695,36.37,29.026,175.111
 14:41:52.811,eb:33:2e:f9:57:b5, 2085-97-128 08:113:251:1947,1.153,-0.818,1.05,-430.847,43.396,22.583,32.36,29.427,175.567
 14:41:52.811,eb:33:2e:f9:57:b5, 2085-97-186 09:114:254:2128,1.292,-0.361,0.956,-444.946,-17.09,37.964,28.114,29.377,175.974
 14:41:52.811,eb:33:2e:f9:57:b5, 2085-97-02 11:169:00:2625,1.24,-0.043,1.166,-431.335,-95.459,41.382,23.747,28.636,176.138
 14:41:52.812,eb:33:2e:f9:57:b5, 2085-97-228 08:127:00:2727,-0.148,0.188,1.358,-407.715,-166.809,44.434,19.534,27.197,176.083
 14:41:52.812,eb:33:2e:f9:57:b5, 2085-97-42 11:194:253:3890,1.677,-0.601,3.448,-373.474,-176.086,83.801,15.606,25.131,176.111
 14:41:52.812,eb:33:2e:f9:57:b5, 2085-97-201 09:179:01:2307,1.137,0.189,1.311,-391.113,-211.304,80.322,11.915,23.148,176.567
 14:41:52.812,eb:33:2e:f9:57:b5, 2085-97-233 10:88:254:3902,1.389,0.023,1.411,-387.085,-300.964,85.999,8.119,20.396,177.039
 14:41:52.813,eb:33:2e:f9:57:b5, 2085-97-112 09:131:251:5655,0.981,-0.401,2.401,-380.005,-339.722,103.577,4.46,17.051,177.753
 14:41:52.899,eb:33:2e:f9:57:b5, 2085-97-100 07:243:249:6656,0.954,-0.698,3.041,-377.197,-319.397,140.198,0.873,13.656,178.945
 14:41:52.899,eb:33:2e:f9:57:b5, 2085-97-43 08:145:251:7001,1.107,-0.702,3.363,-384.705,-270.935,186.218,-2.681,10.789,-179.225
 14:41:52.899,eb:33:2e:f9:57:b5, 2085-97-153 09:157:255:7205,1.278,-0.326,3.452,-395.325,-241.882,226.868,-6.4,8.454,-176.852
 14:41:52.899,eb:33:2e:f9:57:b5, 2085-97-115 10:50:05:7860,1.231,0.281,3.663,-403.442,-242.371,258.667,-10.234,6.476,-173.985
 14:41:52.901,eb:33:2e:f9:57:b5, 2085-97-189 09:85:12:7819,0.957,1.034,3.865,-397.888,-241.638,279.907,-14.216,4.719,-170.755
 14:41:52.901,eb:33:2e:f9:57:b5, 2085-97-88 09:14:247:5644,1.221,-1.052,2.993,439.087,170.654,11.841,19.583,11.651,-157.209
 14:41:52.901,eb:33:2e:f9:57:b5, 2085-97-82 06:128:249:5682,0.436,-0.814,2.63,470.581,213.501,-16.113,24.296,13.447,-156.539
 14:41:52.901,eb:33:2e:f9:57:b5, 2085-97-215 04:176:246:5702,0.713,-1.284,2.807,481.567,299.072,-27.283,29.246,15.947,-155.632
 14:41:52.906,eb:33:2e:f9:57:b5, 2085-97-179 03:234:248:4701,0.174,-1.088,2.546,514.099,281.677,-31.738,34.552,18.666,-154.319
 14:41:52.906,eb:33:2e:f9:57:b5, 2085-97-174 252:97:246:5163,-0.856,-0.958,2.362,543.579,166.199,-52.002,40.139,20.693,-153.342
 14:41:52.906,eb:33:2e:f9:57:b5, 2085-97-242 246:225:247:6237,-1.279,-1.292,2.667,542.175,117.249,-43.518,45.791,22.011,-152.803
 14:41:52.906,eb:33:2e:f9:57:b5, 2085-97-36 245:223:247:7467,-1.465,-0.984,3.51,518.005,151.489,-15.015,51.312,23.093,-152.018
 14:41:52.906,eb:33:2e:f9:57:b5, 2085-97-160 240:154:233:5121,-2.166,-1.92,2.976,447.815,291.687,58.899,56.876,24.263,-150.024
 14:41:52.906,eb:33:2e:f9:57:b5, 2085-97-245 241:161:243:-2315,-0.978,-2.341,0.652,324.158,485.901,238.403,62.353,25.131,-145.415
 14:41:52.906,eb:33:2e:f9:57:b5, 2085-97-139 255:209:248:002,0.649,-1.396,-0.684,98.572,487.976,349.06,66.517,24.593,-139.235
 14:41:52.906,eb:33:2e:f9:57:b5, 2085-97-189 08:47:04:1482,1.374,-0.127,0.384,-11.047,413.391,360.535,68.824,23.044,-133.286
 14:41:53.048,eb:33:2e:f9:57:b5, 2085-97-147 11:114:09:2639,1.352,0.964,1.058,-2.625,283.142,289.551,70.131,21.292,-128.617
 14:41:53.048,eb:33:2e:f9:57:b5, 2085-97-157 09:171:09:3228,0.994,1.238,1.413,82.031,114.136,186.829,71.318,19.77,-125.892
 14:41:53.048,eb:33:2e:f9:57:b5, 2085-97-209 06:89:06:4473,0.761,1.04,1.861,168.762,-33.691,78.003,72.823,18.638,-125.162
 14:41:53.048,eb:33:2e:f9:57:b5, 2085-97-170 05:199:01:5684,0.689,0.502,2.52,206.421,-81.36,-1.526,74.614,18.133,-125.717
 14:41:53.050,eb:33:2e:f9:57:b5, 2085-97-172 05:91:254:6050,0.759,-0.015,2.922,212.036,-61.951,-62.5,76.52,18.259,-126.552
 14:41:53.050,eb:33:2e:f9:57:b5, 2085-97-203 06:139:252:5330,0.979,-0.351,2.851,197.937,-21.057,-113.77,78.42,19.05,-127.167
 14:41:53.050,eb:33:2e:f9:57:b5, 2085-97-36 09:237:251:4010,1.281,-0.47,2.277,167.114,-7.751,-165.466,80.134,20.396,-127.573
 14:41:53.050,eb:33:2e:f9:57:b5, 2085-97-28 11:254:250:3119,1.45,-0.558,1.719,113.464,-16.357,-217.163,81.376,22.28,-128.062
 14:41:53.052,eb:33:2e:f9:57:b5, 2085-97-198 11:25:250:2493,1.474,-0.693,1.339,50.964,-25.94,-266.052,81.942,24.631,-128.699
 14:41:53.052,eb:33:2e:f9:57:b5, 2085-97-190 11:211:249:2740,1.476,-0.759,1.216,-8.362,-45.715,-305.054,81.782,27.422,-129.589
 14:41:53.052,eb:33:2e:f9:57:b5, 2085-97-224 11:210:249:3837,1.42,-0.779,1.582,-57.434,-63.049,-331.116,80.887,30.454,-130.792
 14:41:53.052,eb:33:2e:f9:57:b5, 2085-97-213 09:138:249:4717,0.958,-0.774,2.121,-91.919,-65.552,-342.896,79.426,33.657,-132.237
 14:41:53.651,eb:33:2e:f9:57:b5, 2085-97-30 06:244:247:5391,0.673,-0.893,2.474,-104.248,-81.299,-336.731,77.503,36.788,-133.934
 14:41:53.651,eb:33:2e:f9:57:b5, 2085-97-11 05:103:246:5419,0.569,-1.119,2.703,-106.567,-78.308,-311.523,75.35,39.716,-135.895
 14:41:53.651,eb:33:2e:f9:57:b5, 2085-97-204 03:112:246:4581,0.374,-1.212,2.459,-126.465,-43.335,-268.555,73.087,42.27,-137.664
 14:41:53.651,eb:33:2e:f9:57:b5, 2085-97-31 02:194:245:3768,0.18,-1.216,2.042,-171.814,12.939,-208.618,70.851,44.462,-138.84
 14:41:53.678,eb:33:2e:f9:57:b5, 2085-97-86 01:247:244:2679,0.251,-1.355,1.594,-230.957,75.562,-132.08,68.632,46.165,-139.032
 14:41:53.678,eb:33:2e:f9:57:b5, 2085-97-22 03:91:247:1570,0.526,-1.289,1.02,-288.086,107.117,-57.861,66.495,47.379,-138.318
 14:41:53.678,eb:33:2e:f9:57:b5, 2085-97-155 05:141:251:793,0.972,-0.82,0.552,-350.159,99.548,4.333,64.045,48.005,-137.126
 14:41:53.678,eb:33:2e:f9:57:b5, 2085-97-238 09:113:255:777,1.483,-0.289,0.332,-417.236,65.308,52.612,61.04,48.126,-135.89
 14:41:53.681,eb:33:2e:f9:57:b5, 2085-97-142 13:16:03:731,1.837,0.164,0.372,-458.557,14.832,68.481,57.222,47.763,-134.934
 14:41:53.681,eb:33:2e:f9:57:b5, 2085-97-80 15:33:05:723,1.924,0.552,0.327,-475.464,-72.449,60.425,52.668,47.054,-134.72
 14:41:53.681,eb:33:2e:f9:57:b5, 2085-97-252 14:91:04:1470,1.788,0.633,0.471,-473.145,-192.444,44.617,47.241,45.714,-135.632
 14:41:53.681,eb:33:2e:f9:57:b5, 2085-97-151 13:250:01:2971,1.615,0.399,1.065,-467.224,-299.377,41.016,41.314,43.572,-137.51
 14:41:53.683,eb:33:2e:f9:57:b5, 2085-97-49 12:78:00:4533,1.415,0.124,1.844,-466.492,-354.553,55.725,35.327,40.567,-139.559
 14:41:53.685,eb:33:2e:f9:57:b5, 2085-97-140 10:165:255:5710,1.249,-0.02,2.523,-466.064,-361.389,80.75,29.762,37.128,-141.108
 14:41:53.685,eb:33:2e:f9:57:b5, 2085-97-189 09:225:255:6341,1.217,-0.038,2.987,-456.177,-346.68,105.408,24.675,33.475,-141.905
 14:41:53.685,eb:33:2e:f9:57:b5, 2085-97-146 09:225:255:6275,1.127,-0.007,3.125,-440.857,-327.576,125,20.132,29.921,-142.026
 14:41:53.830,eb:33:2e:f9:57:b5, 2085-97-206 08:160:255:5816,-2.568,-0.027,2.946,-433.472,-314.697,144.47,15.897,26.406,-141.586
 14:41:53.830,eb:33:2e:f9:57:b5, 2085-97-09 239:206:241:254,-1.295,-2.883,2.662,344.299,349.243,206.787,60.683,16.804,-118.889
 14:41:53.830,eb:33:2e:f9:57:b5, 2085-97-70 251:220:247:-465,0.344,-1.171,-0.959,125,454.895,356.628,64.166,16.155,-113.665
 14:41:53.830,eb:33:2e:f9:57:b5, 2085-97-121 10:243:05:852,1.875,-0.259,0.26,2.136,448.12,397.461,65.797,14.667,-107.677
 14:41:53.830,eb:33:2e:f9:57:b5, 2085-97-211 16:239:14:434,2.093,1.489,0.343,6.226,308.533,314.941,66.616,13.013,-102.596
 14:41:53.830,eb:33:2e:f9:57:b5, 2085-97-120 15:252:15:454,1.703,2.006,0.152,94.238,83.618,183.228,67.527,11.552,-99.871
 14:41:53.830,eb:33:2e:f9:57:b5, 2085-97-242 11:138:12:1694,1.317,1.842,0.463,174.683,-111.206,52.124,68.972,10.41,-99.723
 14:41:53.830,eb:33:2e:f9:57:b5, 2085-97-19 09:254:06:3298,0.923,1.229,1.242,200.745,-210.022,-56.641,70.735,9.871,-101.393
 14:41:53.832,eb:33:2e:f9:57:b5, 2085-97-214 05:196:01:4132,0.599,0.534,1.866,178.65,-219.421,-134.399,72.405,10.069,-103.832
 14:41:53.832,eb:33:2e:f9:57:b5, 2085-97-103 04:195:253:4387,0.555,-0.058,2.111,131.348,-175.11,-180.847,73.674,10.992,-106.238
 14:41:53.832,eb:33:2e:f9:57:b5, 2085-97-213 04:238:251:4132,0.665,-0.427,2.104,84.534,-112.427,-209.106,74.465,12.437,-108.182
 14:41:53.832,eb:33:2e:f9:57:b5, 2085-97-44 06:236:251:3567,0.906,-0.525,1.866,51.514,-67.383,-235.84,74.877,14.337,-109.655
 14:41:53.834,eb:33:2e:f9:57:b5, 2085-97-93 08:06:252:3491,1.153,-0.49,1.695,29.419,-50.354,-266.113,75.009,16.567,-110.934
 14:41:53.834,eb:33:2e:f9:57:b5, 2085-97-169 09:127:251:3452,1.244,-0.522,1.728,10.193,-25.208,-299.927,74.905,19.204,-112.137
 14:41:53.834,eb:33:2e:f9:57:b5, 2085-97-91 10:191:250:3226,1.363,-0.619,1.627,-3.174,0.61,-327.087,74.625,22.165,-113.165
 14:41:53.834,eb:33:2e:f9:57:b5, 2085-97-139 11:123:250:3260,1.508,-0.676,1.546,-16.357,23.315,-349.121,74.218,25.461,-114.066
 14:41:53.889,eb:33:2e:f9:57:b5, 2085-97-174 11:160:249:4045,1.214,-0.728,1.762,-27.588,36.133,-365.356,73.652,28.943,-114.89
 14:41:53.889,eb:33:2e:f9:57:b5, 2085-97-05 07:20:248:4039,0.695,-0.878,2.029,-31.25,14.771,-367.493,72.916,32.536,-115.84
 14:41:53.889,eb:33:2e:f9:57:b5, 2085-97-184 05:18:245:4426,0.75,-1.169,2.038,-38.269,-30.518,-343.262,71.818,35.826,-117.312
 14:41:53.889,eb:33:2e:f9:57:b5, 2085-97-55 05:177:243:3862,0.434,-1.488,2.108,-72.937,-4.883,-296.265,70.422,38.754,-118.861
 14:41:53.949,eb:33:2e:f9:57:b5, 2085-97-231 01:244:242:2915,0.148,-1.578,1.62,-133.728,48.34,-231.934,68.813,41.237,-119.762
 14:41:53.949,eb:33:2e:f9:57:b5, 2085-97-49 01:207:242:2386,0.203,-1.663,1.28,-199.341,99.06,-151.855,67.094,43.281,-119.795
 14:41:53.949,eb:33:2e:f9:57:b5, 2085-97-14 02:69:244:1982,0.325,-1.586,1.073,-254.211,120.911,-75.134,65.237,44.709,-119.037
 14:41:53.949,eb:33:2e:f9:57:b5, 2085-97-109 03:124:246:1536,0.535,-1.325,0.854,-297.607,122.375,-10.376,63.254,45.604,-117.806
 14:41:54.038,eb:33:2e:f9:57:b5, 2085-97-33 05:203:248:938,0.732,-1.047,0.604,-332.031,109.009,38.269,61.035,45.978,-116.307
 14:41:54.038,eb:33:2e:f9:57:b5, 2085-97-157 06:89:251:252,0.961,-0.747,0.29,-354.675,68.542,67.505,58.53,45.967,-114.884
 14:41:54.038,eb:33:2e:f9:57:b5, 2085-97-171 08:162:253:-287,1.129,-0.431,-0.02,-368.164,-5.005,79.346,55.464,45.472,-113.956
 14:41:54.038,eb:33:2e:f9:57:b5, 2085-97-254 08:231:253:148,1.139,-0.236,-0.137,-380.188,-99.609,79.59,51.757,44.495,-113.895
 14:41:54.069,eb:33:2e:f9:57:b5, 2085-97-41 09:188:253:1567,1.114,-0.292,0.423,-389.282,-185.425,79.285,47.379,42.869,-114.637
 14:41:54.069,eb:33:2e:f9:57:b5, 2085-97-152 08:230:253:2931,1.038,-0.264,1.083,-403.259,-239.746,83.679,42.698,40.732,-115.801
 14:41:54.069,eb:33:2e:f9:57:b5, 2085-97-27 08:173:253:4223,1.021,-0.283,1.822,-428.65,-248.413,97.412,37.881,38.188,-116.834
 14:41:54.069,eb:33:2e:f9:57:b5, 2085-97-140 08:152:254:4716,1.117,-0.256,2.218,-451.538,-229.858,108.215,33.146,35.634,-117.405
 14:41:54.071,eb:33:2e:f9:57:b5, 2085-97-27 09:134:00:4782,1.145,-0.042,2.325,-466.858,-219.849,109.131,28.411,33.113,-117.543
 14:41:54.071,eb:33:2e:f9:57:b5, 2085-97-168 08:205:00:5032,0.998,0.116,2.387,-469.604,-234.375,100.769,23.719,30.619,-117.521
 14:41:54.071,eb:33:2e:f9:57:b5, 2085-97-97 07:252:254:5652,0.824,0.014,2.608,-463.013,-259.583,97.168,19.039,27.894,-117.433
 14:41:54.071,eb:33:2e:f9:57:b5, 2085-97-178 05:116:253:5852,0.666,-0.251,2.836,-454.834,-266.785,111.084,14.573,25.06,-117.109
 14:41:54.108,eb:33:2e:f9:57:b5, 2085-97-28 05:96:253:6102,0.643,-0.347,2.924,-449.219,-261.108,138.428,10.267,22.17,-116.329
 14:41:54.108,eb:33:2e:f9:57:b5, 2085-97-92 05:11:255:6435,0.696,-0.242,3.051,-436.523,-258.118,168.518,6.202,19.413,-115.021
 14:41:54.108,eb:33:2e:f9:57:b5, 2085-97-164 05:252:00:6832,0.711,0.006,3.252,-413.513,-260.254,193.176,2.335,16.666,-113.275
 14:41:54.108,eb:33:2e:f9:57:b5, 2085-97-197 05:22:03:7060,0.703,0.247,3.398,-384.216,-262.024,212.097,-1.225,14.079,-111.138
 14:41:54.279,eb:33:2e:f9:57:b5, 2085-97-81 05:182:05:7201,0.628,0.539,3.481,-352.783,-264.099,226.013,-4.576,11.558,-108.721
 14:41:54.279,eb:33:2e:f9:57:b5, 2085-97-193 04:73:09:7540,0.563,0.924,3.585,-319.763,-261.719,236.816,-7.63,9.234,-106.04
 14:41:54.279,eb:33:2e:f9:57:b5, 2085-97-03 04:162:13:7712,0.438,1.418,3.761,-284.241,-245.361,243.652,-10.475,7.108,-103.211
 14:41:54.280,eb:33:2e:f9:57:b5, 2085-97-58 03:228:17:7388,0.401,1.977,3.701,-254.395,-216.248,245.911,-13.035,5.416,-100.278
 14:41:54.340,eb:33:2e:f9:57:b5, 2085-97-63 03:224:21:6665,0.391,2.493,3.453,-242.004,-187.866,242.798,-15.502,4.092,-97.394
 14:41:54.340,eb:33:2e:f9:57:b5, 2085-97-154 02:82:25:5762,0.227,2.95,3.029,-249.329,-177.979,233.093,-17.974,3.115,-94.554
 14:41:54.340,eb:33:2e:f9:57:b5, 2085-97-183 00:25:29:5203,-0.1,3.412,2.641,-262.329,-185.974,214.294,-20.649,2.153,-91.829
 14:41:54.340,eb:33:2e:f9:57:b5, 2085-97-230 252:173:31:5444,-0.62,3.803,2.517,-263.977,-200.928,187.805,-23.401,1.148,-89.198
 14:41:54.343,eb:33:2e:f9:57:b5, 2085-97-209 249:236:33:5986,-0.781,4.092,2.837,-241.516,-165.771,158.264,-26.104,0.165,-86.836
 14:41:54.343,eb:33:2e:f9:57:b5, 2085-97-223 250:149:37:4729,-0.463,4.421,2.749,-218.445,-69.092,127.808,-28.51,-0.181,-85.007
 14:41:54.343,eb:33:2e:f9:57:b5, 2085-97-129 253:244:45:2804,-0.219,5.166,1.761,-211.182,27.954,70.679,-30.734,0.187,-84.084
 14:41:54.343,eb:33:2e:f9:57:b5, 2085-97-119 253:31:48:2567,-0.613,6.111,1.254,-172.058,48.706,-38.574,-32.679,0.654,-84.194
 14:41:54.344,eb:33:2e:f9:57:b5, 2085-97-00 248:163:36:3297,0.354,5.44,1.374,-82.214,18.311,-156.006,-33.865,0.28,-85.226
 14:41:54.344,eb:33:2e:f9:57:b5, 2085-97-54 245:138:00:-1359,-1.352,-0.973,0.875,106.995,220.398,-25.33,-0.016,-2.774,-98.723
 14:41:54.344,eb:33:2e:f9:57:b5, 2085-97-47 245:77:252:192,-0.976,-0.126,-0.495,77.209,76.172,-2.075,0.912,-1.461,-98.904
 14:41:54.346,eb:33:2e:f9:57:b5, 2085-97-158 255:238:08:521,0.602,0.661,-0.07,58.533,-11.536,20.569,1.522,-1.093,-98.707
 14:41:54.580,eb:33:2e:f9:57:b5, 2085-97-05 03:241:02:1734,0.542,0.458,1.026,41.321,-15.564,7.08,2.032,-1.379,-98.558
 14:41:54.580,eb:33:2e:f9:57:b5, 2085-97-25 02:188:03:1718,0.391,0.975,0.273,18.677,7.08,-5.371,2.318,-1.302,-98.503
 14:41:54.580,eb:33:2e:f9:57:b5, 2085-97-129 02:70:01:2731,0.211,0.336,1.208,9.705,19.714,-13.123,2.488,-1.198,-98.591
 14:41:54.580,eb:33:2e:f9:57:b5, 2085-97-177 01:45:00:2846,0.103,0.035,1.348,12.39,35.217,-9.827,2.598,-0.89,-98.69
 14:41:54.580,eb:33:2e:f9:57:b5, 2085-97-181 00:71:00:3048,0.198,0.005,1.419,18.86,46.021,-3.662,2.807,-0.483,-98.745
 14:41:54.580,eb:33:2e:f9:57:b5, 2085-97-207 01:172:00:3668,0.068,0.102,1.476,18.433,72.327,0.061,2.999,0.104,-98.729
 14:41:54.580,eb:33:2e:f9:57:b5, 2085-97-135 255:91:253:4438,-0.084,-0.109,2.003,20.813,121.399,3.357,3.224,1.077,-98.679
 14:41:54.580,eb:33:2e:f9:57:b5, 2085-97-64 254:165:251:5928,-0.041,-0.445,2.399,35.217,169.739,15.991,3.505,2.543,-98.503
 14:41:54.609,eb:33:2e:f9:57:b5, 2085-97-237 255:90:254:5581,0.018,-0.19,2.559,73.181,185.486,30.64,4.065,4.417,-98.163
 14:41:54.609,eb:33:2e:f9:57:b5, 2085-97-86 01:128:253:6265,0.318,-0.416,2.968,134.583,157.166,34.79,5.12,6.086,-97.734
 14:41:54.609,eb:33:2e:f9:57:b5, 2085-97-138 03:22:252:5914,0.605,-0.459,3.102,191.711,168.762,34.79,6.883,7.603,-97.273
 14:41:54.609,eb:33:2e:f9:57:b5, 2085-97-137 04:216:251:5423,0.501,-0.334,2.594,243.042,176.27,32.104,9.119,9.327,-96.685
 14:41:54.638,eb:33:2e:f9:57:b5, 2085-97-112 04:226:250:5517,0.616,-0.712,2.728,282.043,192.993,28.809,11.876,11.052,-96.119
 14:41:54.638,eb:33:2e:f9:57:b5, 2085-97-99 04:63:252:4741,0.308,-0.572,2.394,310.608,217.529,20.264,14.947,13.052,-95.4
 14:41:54.638,eb:33:2e:f9:57:b5, 2085-97-03 01:21:248:4698,0.012,-1.012,2.433,328.735,249.634,7.446,18.325,15.222,-94.697
 14:41:54.639,eb:33:2e:f9:57:b5, 2085-97-118 254:190:247:4515,-0.334,-0.909,2.219,347.473,284.119,13.672,21.945,17.732,-93.686
 14:41:54.640,eb:33:2e:f9:57:b5, 2085-97-221 252:66:247:4287,-0.392,-1.108,2.204,356.323,321.106,35.889,25.878,20.413,-92.252
 14:41:54.640,eb:33:2e:f9:57:b5, 2085-97-231 253:52:249:3940,-0.32,-1.036,1.933,358.704,332.458,66.65,30.108,23.143,-90.17
 14:41:54.640,eb:33:2e:f9:57:b5, 2085-97-74 252:137:245:4630,-0.504,-1.327,2.179,349.243,327.209,87.036,34.53,25.483,-87.726
 14:41:54.640,eb:33:2e:f9:57:b5, 2085-97-38 251:07:246:5194,-0.716,-1.296,2.435,321.472,361.755,121.887,39.089,27.658,-84.617
 14:41:54.668,eb:33:2e:f9:57:b5, 2085-97-14 250:136:241:3795,1.033,-1.433,2.433,268.311,438.354,174.438,43.753,29.734,-80.535
 14:41:54.668,eb:33:2e:f9:57:b5, 2085-97-200 07:161:05:3376,0.926,0.732,1.472,20.325,171.387,189.148,59.65,30.635,-54.404
 14:41:54.668,eb:33:2e:f9:57:b5, 2085-97-54 07:135:04:3826,0.924,0.649,1.783,52.551,114.319,112.427,60.98,30.059,-52.256
 14:41:54.668,eb:33:2e:f9:57:b5, 2085-113-58 00:142:219:1770,0.989,0.449,1.897,69.763,81.848,42.786,62.194,29.888,-50.949
 14:41:54.672,eb:33:2e:f9:57:b5, 2085-97-111 08:203:01:3525,1.104,0.335,1.83,70.435,70.007,10.254,62.71,29.932,-50.543
 14:41:54.672,eb:33:2e:f9:57:b5, 2085-97-87 09:60:00:2983,1.258,0.112,1.598,60.486,48.645,-53.528,63.561,30.427,-50.12
 14:41:54.672,eb:33:2e:f9:57:b5, 2085-97-190 10:17:00:2785,1.393,0.002,1.356,41.748,21.545,-118.53,63.995,31.339,-50.251
 14:41:54.672,eb:33:2e:f9:57:b5, 2085-97-65 11:95:255:3422,1.43,-0.014,1.483,13.55,-1.526,-179.504,63.924,32.734,-50.988
 14:41:54.789,eb:33:2e:f9:57:b5, 2085-97-187 11:105:254:4068,1.518,-0.149,1.853,-18.433,0.061,-226.807,63.298,34.514,-52.136
 14:41:54.789,eb:33:2e:f9:57:b5, 2085-97-139 12:47:254:4603,1.602,-0.227,2.109,-47.424,19.958,-262.207,62.281,36.738,-53.427
 14:41:54.789,eb:33:2e:f9:57:b5, 2085-97-137 12:48:254:5309,1.438,-0.222,2.422,-67.322,38.025,-287.842,60.914,39.254,-54.772
 14:41:54.789,eb:33:2e:f9:57:b5, 2085-97-56 10:85:253:5708,1.13,-0.267,2.729,-76.111,36.804,-298.523,59.299,41.984,-56.261
 14:41:54.820,eb:33:2e:f9:57:b5, 2085-97-154 08:182:251:5706,1.052,-0.439,2.792,-87.524,23.499,-284.119,57.354,44.561,-58.035
 14:41:54.820,eb:33:2e:f9:57:b5, 2085-97-193 07:111:250:5331,0.837,-0.633,2.755,-125.61,59.448,-243.408,55.223,46.945,-59.645
 14:41:54.820,eb:33:2e:f9:57:b5, 2085-97-246 05:121:250:4266,0.705,-0.709,2.338,-185.974,124.268,-175.598,53.135,49.131,-60.348
 14:41:54.820,eb:33:2e:f9:57:b5, 2085-97-136 05:139:251:3567,0.723,-0.639,1.896,-234.375,152.222,-100.281,51.273,51.075,-59.958
 14:41:54.820,eb:33:2e:f9:57:b5, 2085-97-102 06:36:253:2857,0.917,-0.464,1.596,-261.963,148.804,-27.893,49.548,52.465,-58.87
 14:41:54.820,eb:33:2e:f9:57:b5, 2085-97-52 08:253:254:1566,1.162,-0.252,1.124,-284.485,129.211,36.865,48.054,53.339,-57.217
 14:41:54.821,eb:33:2e:f9:57:b5, 2085-97-165 10:103:01:225,1.531,0.021,0.403,-314.697,90.21,90.759,46.461,53.553,-55.327
 14:41:54.821,eb:33:2e:f9:57:b5, 2085-97-186 13:225:03:-186,1.854,0.338,-0.056,-342.773,22.644,124.695,44.533,53.168,-53.503
 14:41:54.823,eb:33:2e:f9:57:b5, 2085-97-170 15:109:05:472,2.026,0.587,0.016,-352.966,-67.2,137.39,41.896,52.026,-52.311
 14:41:54.823,eb:33:2e:f9:57:b5, 2085-97-11 16:88:06:1301,1.922,0.765,0.466,-351.074,-146.057,140.503,38.771,50.268,-51.773
 14:41:54.823,eb:33:2e:f9:57:b5, 2085-97-232 14:40:05:2044,1.867,0.732,0.799,-358.337,-194.336,148.01,35.31,47.939,-51.614
 14:41:54.823,eb:33:2e:f9:57:b5, 2085-97-53 15:21:05:2640,1.96,0.611,1.176,-376.587,-205.688,163.757,31.849,45.385,-51.301
 14:41:54.850,eb:33:2e:f9:57:b5, 2085-97-18 16:194:05:2791,2.059,0.679,1.358,-398.315,-202.087,176.575,28.334,42.709,-50.658
 14:41:54.850,eb:33:2e:f9:57:b5, 2085-97-183 16:71:06:2707,2.114,0.759,1.342,-407.776,-214.05,178.284,24.835,40.073,-49.746
 14:41:54.850,eb:33:2e:f9:57:b5, 2085-97-171 16:234:05:2912,2.002,0.773,1.358,-401.611,-246.887,170.837,21.253,37.205,-48.851
 14:41:54.852,eb:33:2e:f9:57:b5, 2085-97-60 15:99:04:3366,1.797,0.666,1.533,-385.925,-282.959,165.161,17.781,34.14,-47.977
 14:41:55.149,eb:33:2e:f9:57:b5, 2085-97-122 13:177:02:3533,1.553,0.431,1.696,-372.986,-304.321,171.265,14.409,30.778,-47.027
 14:41:55.149,eb:33:2e:f9:57:b5, 2085-97-232 11:234:01:3779,1.469,0.256,1.768,-367.065,-322.083,189.88,11.245,27.345,-45.78
 14:41:55.150,eb:33:2e:f9:57:b5, 2085-97-125 11:144:03:4111,1.35,0.301,1.946,-366.15,-332.214,209.778,8.119,23.719,-44.193
 14:41:55.150,eb:33:2e:f9:57:b5, 2085-97-32 10:18:06:4423,1.204,0.595,2.035,-360.413,-347.839,222.473,5.076,20.143,-42.259
 14:41:55.152,eb:33:2e:f9:57:b5, 2085-97-31 09:238:08:5267,1.053,0.938,2.362,-344.177,-370.056,226.868,2.032,16.359,-40.111
 14:41:55.152,eb:33:2e:f9:57:b5, 2085-97-159 07:66:12:5813,0.835,1.304,2.743,-327.942,-370.361,227.173,-0.884,12.662,-37.766
 14:41:55.152,eb:33:2e:f9:57:b5, 2085-97-190 05:145:17:5951,0.59,1.834,2.866,-313.599,-357.117,220.032,-3.845,9.097,-35.316
 14:41:55.152,eb:33:2e:f9:57:b5, 2085-97-102 03:45:24:6463,0.231,2.603,3.005,-300.232,-345.032,204.834,-6.757,5.856,-32.816
 14:41:55.154,eb:33:2e:f9:57:b5, 2085-97-17 00:202:30:7277,-0.23,3.447,3.352,-280.151,-328.247,183.228,-9.701,2.785,-30.383
 14:41:55.154,eb:33:2e:f9:57:b5, 2085-97-96 252:161:36:7817,-0.656,4.219,3.719,-250.244,-297.302,158.203,-12.448,0.088,-28.07
 14:41:55.154,eb:33:2e:f9:57:b5, 2085-97-135 249:173:42:7870,-0.892,4.963,3.851,-215.088,-240.906,131.897,-14.996,-2.203,-25.999
 14:41:55.154,eb:33:2e:f9:57:b5, 2085-97-103 248:146:47:7342,-1.011,5.682,3.769,-161.926,-176.27,92.285,-17.078,-3.823,-24.324
 14:41:55.154,eb:33:2e:f9:57:b5, 2085-97-142 247:40:47:6122,-1.109,6.017,3.314,-96.436,-134.033,40.1,-18.528,-5.103,-23.225
 14:41:55.154,eb:33:2e:f9:57:b5, 2085-97-108 246:137:42:5142,-1.317,5.627,2.706,-49.622,-112.976,-3.418,-19.308,-6.196,-22.676
 14:41:55.154,eb:33:2e:f9:57:b5, 2085-97-159 244:220:36:4854,-1.531,4.97,2.412,-24.109,-90.454,-24.17,-19.709,-7.262,-22.467
 14:41:55.154,eb:33:2e:f9:57:b5, 2085-97-25 243:50:31:4703,-1.654,4.268,2.337,16.174,-54.504,-28.381,-19.759,-8.031,-22.478
 14:41:55.156,eb:33:2e:f9:57:b5, 2085-97-152 242:06:23:3772,-2.803,3.451,2.14,85.388,-16.968,-28.625,-19.204,-8.487,-22.621
 14:41:55.156,eb:33:2e:f9:57:b5, 2085-97-22 226:43:13:11564,-2.283,1.352,9.417,281.86,189.758,-21.973,-17.468,-8.328,-23.038
 14:41:55.156,eb:33:2e:f9:57:b5, 2085-97-31 236:185:08:1861,-3.14,3.45,1.32,393.86,315.002,-15.93,-13.672,-5.416,-23.994
 14:41:55.156,eb:33:2e:f9:57:b5, 2085-97-221 239:252:14:3862,-0.493,0.595,1.102,348.938,144.165,7.141,-9.635,-2.961,-24.714
 14:41:55.329,eb:33:2e:f9:57:b5, 2085-97-145 11:28:05:8991,1.771,1.047,2.678,188.232,-136.658,-66.65,-7.059,-3.224,-25.087
 14:41:55.329,eb:33:2e:f9:57:b5, 2085-97-41 01:31:01:2230,0.144,0.461,3.271,120.667,-9.033,-60.242,-5.559,-4.032,-25.571
 14:41:55.329,eb:33:2e:f9:57:b5, 2085-97-37 01:150:255:2521,0.111,0.036,1.155,25.146,23.804,-8.545,-0.818,0.615,-27.532
 14:41:55.329,eb:33:2e:f9:57:b5, 2085-97-23 01:209:255:2616,0.146,-0.084,1.279,31.311,26.611,-4.15,-0.533,0.873,-27.62
 14:41:55.331,eb:33:2e:f9:57:b5, 2085-97-46 01:249:255:2441,0.146,-0.007,1.223,33.081,31.372,1.099,-0.187,1.126,-27.631
 14:41:55.331,eb:33:2e:f9:57:b5, 2085-97-250 00:52:00:2632,0.122,0.022,1.254,33.02,38.391,6.042,0.143,1.472,-27.614
 14:41:55.331,eb:33:2e:f9:57:b5, 2085-97-94 01:87:00:3300,0.008,0.022,1.46,31.799,60.242,14.771,0.467,1.939,-27.51
 14:41:55.331,eb:33:2e:f9:57:b5, 2085-97-222 254:52:254:4810,-0.111,-0.041,1.816,55.237,54.81,20.203,0.895,2.532,-27.35
 14:41:55.358,eb:33:2e:f9:57:b5, 2085-97-79 02:250:253:5244,0.378,-0.512,2.882,88.501,111.511,51.88,1.582,3.307,-26.993
 14:41:55.358,eb:33:2e:f9:57:b5, 2085-97-48 255:75:250:8480,-0.223,-0.012,2.86,179.932,20.813,30.029,2.928,3.972,-26.565
 14:41:55.358,eb:33:2e:f9:57:b5, 2085-97-18 00:206:245:8869,0.417,-1.058,4.633,269.592,80.566,49.377,5.262,4.362,-26.175
 14:41:55.358,eb:33:2e:f9:57:b5, 2085-97-133 06:64:249:7355,0.927,-0.938,3.824,336.975,114.197,63.66,8.366,5.383,-25.477
 14:41:55.360,eb:33:2e:f9:57:b5, 2085-97-200 08:166:247:6899,1.376,-1.007,3.535,394.409,147.095,42.725,12.085,6.493,-24.785
 14:41:55.360,eb:33:2e:f9:57:b5, 2085-97-13 13:135:251:5470,1.541,-0.836,3.125,426.453,221.008,20.386,16.26,8.267,-24.071
 14:41:55.360,eb:33:2e:f9:57:b5, 2085-97-243 12:61:249:5011,1.533,-0.087,2.489,455.75,259.277,-31.921,20.748,10.547,-23.406
 14:41:55.360,eb:33:2e:f9:57:b5, 2085-97-73 11:66:248:4296,1.086,-0.942,2.184,471.313,303.101,-61.646,25.466,13.403,-22.819
 14:41:55.362,eb:33:2e:f9:57:b5, 2085-97-100 06:141:248:5145,0.435,-0.96,2.193,489.38,275.269,-81.238,30.405,16.298,-22.181
 14:41:55.362,eb:33:2e:f9:57:b5, 2085-97-226 01:147:249:5715,0.088,-0.862,2.681,501.038,236.267,-84.961,35.519,18.913,-21.561
 14:41:55.362,eb:33:2e:f9:57:b5, 2085-97-53 255:02:248:5583,-0.213,-0.831,2.983,501.77,196.655,-78.735,40.688,21.05,-20.989
 14:41:55.362,eb:33:2e:f9:57:b5, 2085-97-50 254:71:252:4628,-0.531,-0.585,2.312,496.826,165.771,-56.946,45.928,22.835,-20.231
 14:41:55.450,eb:33:2e:f9:57:b5, 2085-97-156 246:178:240:3879,-1.936,-1.084,2.247,474.731,155.151,-15.869,51.108,24.137,-19.369
 14:41:55.451,eb:33:2e:f9:57:b5, 2085-97-06 240:225:228:2055,-1.378,-3.752,1.635,368.835,287.109,177.673,56.135,24.84,-17.194
 14:41:55.451,eb:33:2e:f9:57:b5, 2085-97-185 251:177:240:-514,0.06,-2.273,-0.617,214.722,388.062,412.231,60.936,24.06,-12.041
 14:41:55.451,eb:33:2e:f9:57:b5, 2085-97-94 03:223:244:2413,0.82,-1.699,0.6,43.579,387.451,522.217,63.984,21.714,-5.988
 14:41:55.451,eb:33:2e:f9:57:b5, 2085-97-45 11:34:255:3288,1.86,-0.881,1.514,20.935,323.242,515.93,65.764,18.512,-0.253
 14:41:55.454,eb:33:2e:f9:57:b5, 2085-113-81 00:245:106:17669,1.857,0.682,1.586,85.266,167.786,400.269,67.247,15.375,3.955
 14:41:55.454,eb:33:2e:f9:57:b5, 2085-97-150 12:36:12:2829,1.329,1.356,1.36,126.526,51.575,308.533,68.016,13.986,5.131
 14:41:55.454,eb:33:2e:f9:57:b5, 2085-97-205 09:86:10:4334,1.146,1.45,1.684,170.166,-94.36,156.067,69.593,11.755,5.63
 14:41:55.454,eb:33:2e:f9:57:b5, 2085-97-148 08:21:07:5965,1.024,1.106,2.513,175.781,-155.273,26.306,71.241,10.514,4.631
 14:41:55.457,eb:33:2e:f9:57:b5, 2085-97-01 08:151:03:7112,1.003,0.652,3.257,154.541,-150.513,-80.2,72.68,10.289,2.988
 14:41:55.457,eb:33:2e:f9:57:b5, 2085-97-175 08:14:01:7178,1.197,0.277,3.544,117.798,-103.088,-163.269,73.845,11.113,1.346
 14:41:55.457,eb:33:2e:f9:57:b5, 2085-97-138 10:156:255:6739,1.43,0.031,3.424,85.51,-54.81,-232.239,74.608,12.783,-0.016
 14:41:55.457,eb:33:2e:f9:57:b5, 2085-97-29 12:85:254:6252,1.55,-0.116,3.16,65.063,-23.376,-294.922,75.146,15.249,-1.165
 14:41:55.601,eb:33:2e:f9:57:b5, 2085-97-31 12:37:252:5634,1.433,-0.333,2.93,49.072,-7.019,-345.581,75.427,18.287,-2.252
 14:41:55.601,eb:33:2e:f9:57:b5, 2085-97-121 10:106:249:4793,1.134,-0.65,2.545,27.649,-4.639,-375.793,75.509,21.78,-3.356
 14:41:55.601,eb:33:2e:f9:57:b5, 2085-97-16 07:77:246:3972,0.599,-1.002,2.133,-3.601,-18.921,-379.089,75.152,25.362,-4.62
 14:41:55.601,eb:33:2e:f9:57:b5, 2085-97-176 02:82:242:3687,0.085,-1.452,1.833,-40.894,-47.668,-348.083,74.328,28.768,-6.147
 14:41:55.601,eb:33:2e:f9:57:b5, 2085-97-245 254:169:238:3278,-0.252,-1.965,1.748,-79.956,-38.574,-282.776,72.949,31.575,-7.762
 14:41:55.601,eb:33:2e:f9:57:b5, 2085-97-236 253:133:237:2105,-0.195,-2.278,1.352,-129.211,15.686,-188.904,71.422,33.745,-8.773
 14:41:55.601,eb:33:2e:f9:57:b5, 2085-97-79 255:192:238:434,0.088,-2.273,0.629,-197.571,73.12,-87.952,69.686,35.112,-8.839
 14:41:55.601,eb:33:2e:f9:57:b5, 2085-97-165 02:197:242:-591,0.567,-1.935,-0.123,-269.958,92.529,-3.906,67.714,35.81,-8.091
 14:41:55.631,eb:33:2e:f9:57:b5, 2085-97-231 05:213:246:-1233,0.873,-1.383,-0.402,-328.613,71.96,45.837,65.138,35.876,-7.119
 14:41:55.631,eb:33:2e:f9:57:b5, 2085-97-248 07:142:249:-2192,1.139,-0.957,-0.838,-371.155,17.517,67.932,62.018,35.546,-6.356
 14:41:55.631,eb:33:2e:f9:57:b5, 2085-97-20 10:109:251:-2290,1.353,-0.663,-1.245,-408.997,-70.557,69.519,58.112,34.761,-6.235
 14:41:55.631,eb:33:2e:f9:57:b5, 2085-97-48 11:118:252:-729,1.408,-0.503,-0.769,-423.767,-161.316,54.443,53.553,33.547,-6.987
 14:41:55.633,eb:33:2e:f9:57:b5, 2085-97-252 10:03:253:707,1.301,-0.391,0.032,-421.814,-229.797,37.903,48.56,31.849,-8.443
 14:41:55.633,eb:33:2e:f9:57:b5, 2085-97-156 09:84:252:1652,1.074,-0.404,0.596,-422.18,-262.878,28.748,43.566,29.85,-10.195
 14:41:55.633,eb:33:2e:f9:57:b5, 2085-97-68 07:245:250:2382,0.699,-0.537,0.994,-430.786,-272.156,32.593,38.546,27.537,-11.865
 14:41:55.633,eb:33:2e:f9:57:b5, 2085-97-90 04:118:250:3124,0.436,-0.698,1.333,-445.984,-266.235,57.617,33.668,25.065,-13.173
 14:41:55.721,eb:33:2e:f9:57:b5, 2085-97-184 02:68:252:3321,0.296,-0.604,1.63,-457.336,-242.798,99.182,28.861,22.418,-13.799
 14:41:55.721,eb:33:2e:f9:57:b5, 2085-97-27 02:01:255:3241,0.213,-0.315,1.61,-449.341,-240.723,138.55,24.329,19.737,-13.749
 14:41:55.721,eb:33:2e:f9:57:b5, 2085-97-196 00:233:04:3221,-0.062,0.153,1.553,-429.993,-250.305,174.866,20.023,16.815,-13.145
 14:41:55.721,eb:33:2e:f9:57:b5, 2085-97-23 254:141:17:4412,-0.438,1.305,1.776,-398.682,-247.07,212.28,16.095,13.848,-11.997
 14:41:55.721,eb:33:2e:f9:57:b5, 2085-97-79 251:114:33:5946,-0.697,3.209,2.552,-316.101,-233.582,231.873,12.689,10.959,-10.338
 14:41:55.722,eb:33:2e:f9:57:b5, 2085-97-132 249:37:43:5975,-0.893,4.905,3.063,-193.604,-216.797,228.76,10.371,8.317,-8.481
 14:41:55.722,eb:33:2e:f9:57:b5, 2085-97-25 249:114:49:4514,-0.723,5.809,2.556,-83.74,-168.152,218.811,9.113,6.037,-6.553
 14:41:55.722,eb:33:2e:f9:57:b5, 2085-97-169 251:80:53:3357,-0.348,6.451,1.916,-22.156,-100.769,191.772,8.701,4.444,-4.724
 14:41:55.749,eb:33:2e:f9:57:b5, 2085-97-221 254:49:55:2182,0.046,6.839,1.38,-10.742,-36.682,142.395,8.52,3.571,-3.153
 14:41:55.749,eb:33:2e:f9:57:b5, 2085-97-255 00:24:54:370,0.095,6.884,0.633,-27.588,-45.288,68.176,8.328,3.098,-2.197
 14:41:55.749,eb:33:2e:f9:57:b5, 2085-97-221 255:81:50:-011,-0.13,6.536,-0.079,-51.88,-102.905,-9.705,7.877,2.258,-2.043
 14:41:55.749,eb:33:2e:f9:57:b5, 2085-97-108 254:244:46:1902,-0.23,6.091,0.375,-49.988,-115.967,-78.674,7.35,1.159,-2.681
 14:41:55.779,eb:33:2e:f9:57:b5, 2085-97-161 253:139:42:2557,-0.409,5.633,1.243,13.977,-70.496,-145.508,7.229,0.324,-3.939
 14:41:55.779,eb:33:2e:f9:57:b5, 2085-97-177 251:74:35:1020,-0.715,4.917,0.928,93.994,-48.157,-189.697,7.932,-0.016,-5.735
 14:41:55.779,eb:33:2e:f9:57:b5, 2085-97-73 248:202:24:198,-1.242,3.794,0.188,162.964,-83.435,-206.604,9.421,-0.439,-7.811
 14:41:55.779,eb:33:2e:f9:57:b5, 2085-113-81 00:231:126:2824,-1.471,2.353,0.15,225.281,-104.004,-189.514,11.569,-1.099,-9.981
 14:41:55.839,eb:33:2e:f9:57:b5, 2085-97-09 243:38:06:061,-2.134,1.561,0.18,256.714,-91.064,-169.373,12.892,-1.439,-10.931
 14:41:55.839,eb:33:2e:f9:57:b5, 2085-97-76 254:205:88:6246,-1.628,3.531,0.19,314.453,-116.516,-156.921,15.936,-1.895,-12.574
 14:41:55.839,eb:33:2e:f9:57:b5, 2085-97-68 203:147:24:4357,-4.332,1.34,7.198,21.667,241.516,-302.856,18.336,-1.505,-15.804
 14:41:55.839,eb:33:2e:f9:57:b5, 2085-97-103 231:237:00:-15343,0.708,0.167,-6.363,-208.618,508.911,-1.282,16.496,4.504,-15.266
 14:41:55.870,eb:33:2e:f9:57:b5, 2085-97-156 18:115:249:7653,-2.413,0.974,-1.13,-222.839,-3.601,-96.191,14.54,5.729,-15.392
 14:41:55.870,eb:33:2e:f9:57:b5, 2085-97-19 227:111:242:9171,-1.723,-1.956,3.91,-163.269,95.886,-52.734,12.382,6.855,-16.144
 14:41:55.870,eb:33:2e:f9:57:b5, 2085-97-166 250:52:00:2047,-0.812,-0.897,3.429,-37.659,57.373,22.888,11.613,7.454,-16.117
 14:41:55.871,eb:33:2e:f9:57:b5, 2085-97-97 255:67:255:3698,0.897,0.124,0.162,-15.503,-76.172,37.903,11.404,7.317,-15.76
 14:41:55.898,eb:33:2e:f9:57:b5, 2085-97-157 05:144:03:5207,0.657,0.34,3.246,5.127,-26.428,40.344,11.371,6.553,-15.524
 14:41:55.898,eb:33:2e:f9:57:b5, 2085-97-142 08:142:03:5817,0.755,0.385,2.268,42.664,12.207,16.113,11.656,6.471,-15.255
 14:41:55.899,eb:33:2e:f9:57:b5, 2085-97-162 00:90:255:6166,-0.381,0.299,3.058,79.224,91.614,7.019,12.288,7.02,-15.04
 14:41:55.899,eb:33:2e:f9:57:b5, 2085-97-233 250:49:252:6107,-0.661,-0.387,2.92,130.859,98.572,25.33,13.381,7.965,-14.727
 14:41:55.928,eb:33:2e:f9:57:b5, 2085-97-232 250:234:249:6701,-0.51,-0.625,3.216,190.002,72.266,60.364,15.068,8.674,-14.101
 14:41:55.928,eb:33:2e:f9:57:b5, 2085-97-90 254:68:249:7629,0.156,-0.804,3.358,264.282,33.508,84.29,17.435,8.976,-13.255
 14:41:55.928,eb:33:2e:f9:57:b5, 2085-97-46 04:254:247:8531,0.938,-0.921,4.013,360.107,23.682,81.482,20.704,8.915,-12.387
 14:41:55.928,eb:33:2e:f9:57:b5, 2085-97-37 10:49:248:8226,1.444,-1.074,4.201,451.477,73.364,50.903,24.873,9.124,-11.607
 14:41:56.019,eb:33:2e:f9:57:b5, 2085-97-105 12:32:251:8541,1.651,-0.817,3.944,538.635,120.911,-5.249,29.943,9.91,-10.981
 14:41:56.019,eb:33:2e:f9:57:b5, 2085-97-123 12:71:251:8664,1.193,-0.388,4.338,615.417,163.757,-65.491,35.804,11.398,-10.552
 14:41:56.019,eb:33:2e:f9:57:b5, 2085-97-113 04:34:250:10448,0.024,-0.848,4.463,672.363,118.347,-97.9,42.33,13.041,-10.382
 14:41:56.019,eb:33:2e:f9:57:b5, 2085-97-110 251:95:248:11912,-1.056,-0.637,6.096,676.514,95.398,-102.539,49.103,14.469,-10.47
 14:41:56.021,eb:33:2e:f9:57:b5, 2085-97-230 245:145:254:8849,-2.027,-0.524,4.724,668.823,105.164,-48.95,55.876,15.699,-10.118
 14:41:56.021,eb:33:2e:f9:57:b5, 2085-97-213 235:113:227:6090,-3.292,-1.326,4.06,644.287,94.849,78.247,62.699,16.155,-9.333
 14:41:56.021,eb:33:2e:f9:57:b5, 2085-97-203 237:08:234:-265,-0.107,-4.91,3.154,483.337,415.588,450.684,68.857,14.7,-6.136
 14:41:56.021,eb:33:2e:f9:57:b5, 2085-97-27 14:53:243:4732,3.143,-2.082,0.46,134.949,608.643,701.66,72.966,10.8,1.022
 14:41:56.079,eb:33:2e:f9:57:b5, 2085-97-39 33:135:19:4800,5.429,-0.007,2.901,30.823,591.309,706.787,74.031,5.751,9.207
 14:41:56.079,eb:33:2e:f9:57:b5, 2085-97-48 43:02:54:2875,4.12,5.292,1.814,192.871,145.325,435.059,75.108,1.335,14.447
 14:41:56.079,eb:33:2e:f9:57:b5, 2085-97-170 24:145:35:7485,2.458,6,1.981,347.778,-366.638,53.04,78.041,-1.198,13.392
 14:41:56.079,eb:33:2e:f9:57:b5, 2085-97-100 15:123:12:14982,1.498,2.991,5.643,357.971,-516.235,-212.952,82.145,-1.088,8.427
 14:41:56.200,eb:33:2e:f9:57:b5, 2085-97-05 10:197:247:16685,1.127,0.171,8.235,296.326,-379.272,-361.877,85.721,1.318,3.45
 14:41:56.200,eb:33:2e:f9:57:b5, 2085-97-14 09:208:235:11712,1.184,-1.916,7.127,210.144,-155.396,-413.818,88.286,5.081,0.621
 14:41:56.200,eb:33:2e:f9:57:b5, 2085-97-121 09:206:231:6096,1.097,-2.877,4.362,102.478,-36.743,-413.818,89.703,9.179,-0.39
 14:41:56.200,eb:33:2e:f9:57:b5, 2085-97-08 08:106:232:3665,0.872,-3.007,2.13,-15.625,-37.964,-387.329,89.989,13.173,-0.791
 14:41:56.228,eb:33:2e:f9:57:b5, 2085-97-124 05:200:233:4980,0.471,-2.859,1.958,-86.792,-100.098,-354.248,89.171,16.809,-1.686
 14:41:56.228,eb:33:2e:f9:57:b5, 2085-97-112 01:185:233:6617,-0.17,-2.747,2.917,-105.347,-136.841,-315.247,87.803,20.083,-3.159
 14:41:56.228,eb:33:2e:f9:57:b5, 2085-97-83 252:127:230:7024,-0.648,-2.932,3.396,-93.384,-140.747,-260.132,86.215,22.802,-4.922
 14:41:56.228,eb:33:2e:f9:57:b5, 2085-97-32 249:178:225:5433,-1.061,-3.512,3.252,-87.28,-76.05,-181.885,84.858,24.873,-6.361
 14:41:56.289,eb:33:2e:f9:57:b5, 2085-97-144 247:250:223:1339,-0.79,-3.976,1.692,-133.545,33.325,-77.576,83.584,26.071,-6.751
 14:41:56.289,eb:33:2e:f9:57:b5, 2085-97-51 253:246:226:-1443,0.125,-3.886,-0.226,-245.422,128.784,33.508,82.024,26.351,-5.85
 14:41:56.289,eb:33:2e:f9:57:b5, 2085-97-243 03:130:235:-2058,0.771,-3.202,-0.893,-374.939,178.894,99.121,79.464,25.867,-4.043
 14:41:56.289,eb:33:2e:f9:57:b5, 2085-97-18 08:151:245:-2285,1.247,-1.878,-1.07,-490.234,174.927,105.652,75.861,25.252,-1.912
 14:41:56.291,eb:33:2e:f9:57:b5, 2085-97-164 11:08:251:-1622,1.545,-0.896,-1.02,-575.562,116.821,69.641,71.01,24.824,-0.159
 14:41:56.291,eb:33:2e:f9:57:b5, 2085-97-11 12:82:252:-380,1.454,-0.474,-0.506,-606.018,27.649,15.198,65.336,24.714,0.659
 14:41:56.291,eb:33:2e:f9:57:b5, 2085-97-196 11:236:251:1348,1.502,-0.496,0.205,-592.712,-79.651,-35.522,59.117,24.642,0.269
 14:41:56.291,eb:33:2e:f9:57:b5, 2085-97-54 11:250:251:2682,1.238,-0.497,1.065,-573.669,-157.104,-71.838,52.795,24.379,-1.198
 14:41:56.291,eb:33:2e:f9:57:b5, 2085-97-155 08:212:251:3691,0.928,-0.528,1.548,-573.547,-197.083,-82.947,46.307,23.719,-3.246
 14:41:56.291,eb:33:2e:f9:57:b5, 2085-97-133 06:151:253:4355,0.677,-0.447,2.014,-590.393,-178.589,-62.439,39.842,22.797,-5.208
 14:41:56.291,eb:33:2e:f9:57:b5, 2085-97-210 03:164:00:3629,0.375,-0.106,2.055,-595.52,-144.409,-31.311,33.382,21.736,-6.581
 14:41:56.291,eb:33:2e:f9:57:b5, 2085-97-03 03:197:03:2300,0.424,0.258,1.457,-566.589,-169.739,-4.089,27.29,20.473,-7.531
 14:41:56.295,eb:33:2e:f9:57:b5, 2085-97-68 03:134:11:786,0.255,0.93,0.661,-532.166,-238.403,27.588,21.55,18.512,-8.262
 14:41:56.295,eb:33:2e:f9:57:b5, 2085-97-24 00:18:20:1170,-0.247,1.978,0.341,-512.817,-327.271,54.749,16.216,15.667,-8.745
 14:41:56.295,eb:33:2e:f9:57:b5, 2085-97-159 251:122:29:3055,-0.991,3.081,0.958,-457.886,-425.476,77.148,11.25,11.739,-8.926
 14:41:56.295,eb:33:2e:f9:57:b5, 2085-97-232 244:141:38:5932,-1.588,4.301,2.168,-366.028,-464.722,104.98,7.174,7.103,-8.657
 14:41:56.349,eb:33:2e:f9:57:b5, 2085-97-20 243:231:45:6952,-1.669,5.297,3.359,-266.724,-364.319,123.169,4.026,2.785,-7.822
 14:41:56.349,eb:33:2e:f9:57:b5, 2085-97-228 241:60:54:5542,-1.786,6.233,3.084,-205.261,-232.361,130.737,1.675,-0.121,-6.652
 14:41:56.349,eb:33:2e:f9:57:b5, 2085-97-92 242:14:63:5329,-1.57,7.353,2.521,-174.072,-173.706,123.291,-0.363,-2.098,-5.328
 14:41:56.349,eb:33:2e:f9:57:b5, 2085-97-217 244:174:67:6254,-1.25,8.273,2.853,-104.492,-139.771,86.609,-1.912,-3.604,-4.224
 14:41:56.440,eb:33:2e:f9:57:b5, 2085-97-232 246:160:67:4768,-1,8.49,2.87,0.488,-92.651,29.297,-2.483,-4.741,-3.576
 14:41:56.440,eb:33:2e:f9:57:b5, 2085-97-226 248:50:65:2785,-0.856,8.364,1.753,64.941,-68.604,-27.893,-2.093,-5.504,-3.576
 14:41:56.440,eb:33:2e:f9:57:b5, 2085-97-212 248:20:56:2106,-1.032,7.723,1.167,120.117,-72.083,-85.815,-1.06,-6.251,-4.12
 14:41:56.440,eb:33:2e:f9:57:b5, 2085-97-64 246:192:39:668,-1.453,6.082,0.746,197.449,-76.477,-133.972,0.769,-7.026,-5.29
 14:41:56.441,eb:33:2e:f9:57:b5, 2085-97-192 242:235:16:-1550,-1.366,3.658,-0.176,268.005,-72.693,-154.053,3.455,-7.789,-6.784
 14:41:56.441,eb:33:2e:f9:57:b5, 2085-97-170 03:155:99:5040,-3.172,6.638,-1.47,307.495,-250.61,-181.885,6.751,-8.696,-8.448
 14:41:56.441,eb:33:2e:f9:57:b5, 2085-97-158 241:99:69:9367,4.941,4.516,6.089,-57.495,65.918,-122.009,9.333,-11.003,-11.843
 14:41:56.441,eb:33:2e:f9:57:b5, 2085-97-153 17:24:01:-2543,-1.331,6.036,-2.534,-500.854,753.723,-80.444,5.257,-4.658,-10.574
 14:41:56.469,eb:33:2e:f9:57:b5, 2085-97-55 22:83:240:18793,-1.256,-4.349,7.924,-368.958,640.259,-140.747,0.923,1.099,-11.97
 14:41:56.469,eb:33:2e:f9:57:b5, 2085-97-164 202:242:234:-290,-5.053,-1.061,3.537,49.316,501.343,-223.633,-0.357,7.712,-14.266
 14:41:56.469,eb:33:2e:f9:57:b5, 2085-97-173 220:248:237:-2492,-1.623,-1.937,-3.193,36.194,133.179,-42.358,0.088,10.849,-15.414
 14:41:56.469,eb:33:2e:f9:57:b5, 2085-97-223 241:157:250:4157,-0.421,-1.036,1.512,72.327,-108.459,50.72,0.626,10.344,-15.342
 14:41:56.499,eb:33:2e:f9:57:b5, 2085-97-51 13:185:07:4080,1.992,-0.03,1.408,115.356,-144.592,78.735,1.708,9.113,-14.579
 14:41:56.499,eb:33:2e:f9:57:b5, 2085-97-35 10:250:03:7164,1.003,0.969,2.746,125,-54.382,23.865,2.939,8.058,-14.134
 14:41:56.499,eb:33:2e:f9:57:b5, 2085-97-208 04:135:254:9148,0.211,0.2,4.102,187.988,6.104,14.221,4.526,7.888,-13.98
 14:41:56.499,eb:33:2e:f9:57:b5, 2085-97-140 253:141:245:10158,-0.912,-0.689,4.76,290.771,48.218,35.034,6.993,8.13,-13.755
 14:41:56.559,eb:33:2e:f9:57:b5, 2085-97-134 249:80:238:10460,-0.253,-1.853,5.267,376.16,92.163,79.59,10.459,8.778,-13.063
 14:41:56.559,eb:33:2e:f9:57:b5, 2085-97-157 00:07:239:9324,0.188,-1.999,4.3,495.728,46.997,96.802,14.958,9.432,-11.953
 14:41:56.559,eb:33:2e:f9:57:b5, 2085-97-36 04:56:232:11799,0.723,-2.594,5.403,628.174,-5.859,52.734,20.726,9.218,-11.283
 14:41:56.559,eb:33:2e:f9:57:b5, 2085-97-57 12:20:237:13053,2.061,-2.431,6.119,747.437,134.705,9.46,27.719,9.651,-10.761
 14:41:56.589,eb:33:2e:f9:57:b5, 2085-97-237 09:111:245:11467,-0.103,-1.761,5.633,841.858,194.336,-29.175,35.837,11.349,-9.855
 14:41:56.589,eb:33:2e:f9:57:b5, 2085-97-80 250:139:251:14268,-1.655,-1.149,6.786,869.08,145.813,-47.913,44.55,12.903,-9.305
 14:41:56.589,eb:33:2e:f9:57:b5, 2085-97-37 238:121:249:9424,-2.824,-0.218,5.954,893.555,71.594,22.705,53.547,13.771,-8.591
 14:41:56.589,eb:33:2e:f9:57:b5, 2085-97-18 223:106:212:8178,-3.061,-2.632,3.061,765.747,39.001,218.689,62.095,12.975,-7.718
 14:41:56.649,eb:33:2e:f9:57:b5, 2085-97-227 243:237:232:-1696,-0.113,-3.21,-0.484,521.362,469.788,595.032,69.219,10.25,-3.351
 14:41:56.649,eb:33:2e:f9:57:b5, 2085-97-184 14:11:248:4578,4.231,-2.909,1.088,96.191,685.242,784.912,72.252,5.592,4.845
 14:41:56.649,eb:33:2e:f9:57:b5, 2085-97-98 44:247:46:6810,4.558,2.074,3.514,143.066,531.555,637.329,73.015,0.654,13.096
 14:41:56.649,eb:33:2e:f9:57:b5, 2085-97-39 27:49:43:5505,2.687,6.826,2.456,432.861,-73.486,222.29,75.806,-2.67,16.282
 14:41:56.680,eb:33:2e:f9:57:b5, 2085-97-27 16:233:19:10609,1.362,3.741,3.695,531.25,-390.564,-104.919,81.227,-3.554,13.568
 14:41:56.680,eb:33:2e:f9:57:b5, 2085-97-182 07:157:02:15463,0.967,1.382,6.642,427.307,-355.896,-297.302,86.567,-1.851,9.278
 14:41:56.680,eb:33:2e:f9:57:b5, 2085-97-246 09:42:246:14558,1.641,-0.577,7.688,293.457,-138.123,-374.207,90.236,1.467,6.674
 14:41:56.680,eb:33:2e:f9:57:b5, 2085-97-121 16:107:240:11037,2.401,-1.649,6.235,208.252,-1.404,-414.551,92.675,5.433,6.147
 14:41:56.710,eb:33:2e:f9:57:b5, 2085-97-33 21:172:235:8164,2.764,-2.246,4.654,151.184,20.996,-449.158,94.4,9.745,6.438
 14:41:56.710,eb:33:2e:f9:57:b5, 2085-97-09 22:201:231:5628,2.615,-2.812,3.336,92.834,-12.756,-473.022,95.652,14.37,6.773
 14:41:56.710,eb:33:2e:f9:57:b5, 2085-97-31 19:107:230:4379,2.148,-3.16,2.338,15.747,-62.988,-473.45,96.097,19.122,6.685
 14:41:56.710,eb:33:2e:f9:57:b5, 2085-97-141 15:37:232:4967,1.726,-3.12,2.189,-71.228,-90.942,-445.496,95.636,23.763,6.218
 14:41:56.710,eb:33:2e:f9:57:b5, 2085-113-58 00:214:237:210,1.493,-2.844,2.646,-136.658,-98.145,-405.212,94.186,28.037,5.416
 14:41:56.740,eb:33:2e:f9:57:b5, 2085-97-72 10:173:233:5981,1.153,-2.783,2.813,-156.982,-91.064,-379.944,93.257,30.009,4.993
 14:41:56.740,eb:33:2e:f9:57:b5, 2085-97-171 08:178:231:6322,0.97,-2.884,3.06,-170.227,-53.589,-324.219,91.23,33.519,4.202
 14:41:56.740,eb:33:2e:f9:57:b5, 2085-97-226 05:50:228:4490,0.46,-3.256,2.824,-162.292,10.864,-259.888,89.346,36.387,3.878
 14:41:56.740,eb:33:2e:f9:57:b5, 2085-97-114 03:64:226:1188,0.712,-3.641,1.321,-161.743,19.104,-184.448,87.825,38.589,4.005
 14:41:56.803,eb:33:2e:f9:57:b5, 2085-97-148 07:133:227:-381,1.009,-3.673,0.275,-201.843,-2.93,-103.149,85.891,39.952,3.867
 14:41:56.803,eb:33:2e:f9:57:b5, 2085-97-187 06:248:229:-4533,0.76,-3.394,-0.937,-307.678,-17.517,-27.222,83.238,40.556,3.647
 14:41:56.803,eb:33:2e:f9:57:b5, 2085-97-155 08:35:237:-6209,1.261,-2.896,-3.42,-498.779,-64.514,57.251,78.821,40.276,3.17
 14:41:56.803,eb:33:2e:f9:57:b5, 2085-97-150 11:152:239:057,1.772,-2.179,-1.605,-638.123,-146.301,101.868,72.372,39.161,2.181
 14:41:56.829,eb:33:2e:f9:57:b5, 2085-97-155 17:38:247:4486,2.401,-1.744,1.228,-653.564,-227.234,117.92,64.803,37.326,0.472
 14:41:56.829,eb:33:2e:f9:57:b5, 2085-97-25 18:13:255:5441,2.075,-0.418,2.625,-624.451,-261.536,104.065,57.431,35.123,-1.379
 14:41:56.829,eb:33:2e:f9:57:b5, 2085-97-45 16:251:252:5095,2.005,-0.217,2.589,-571.899,-339.905,70.496,50.301,32.563,-3.582
 14:41:56.829,eb:33:2e:f9:57:b5, 2085-97-183 15:68:252:4919,1.883,-0.44,2.371,-538.147,-406.921,51.27,43.627,29.504,-6.185
 14:41:56.889,eb:33:2e:f9:57:b5, 2085-97-253 13:91:250:6372,1.577,-0.54,2.664,-537.048,-452.271,41.504,37.139,25.801,-8.817
 14:41:56.889,eb:33:2e:f9:57:b5, 2085-97-222 10:241:246:8240,1.114,-0.912,3.621,-551.575,-446.472,50.659,30.938,21.747,-11.069
 14:41:56.889,eb:33:2e:f9:57:b5, 2085-97-64 07:80:244:8697,0.762,-1.323,4.234,-569.031,-396.667,85.388,24.884,17.628,-12.426
 14:41:56.889,eb:33:2e:f9:57:b5, 2085-97-24 05:03:246:7429,0.567,-1.446,4.031,-605.652,-330.322,140.076,18.962,13.865,-12.667
 14:41:56.919,eb:33:2e:f9:57:b5, 2085-97-183 04:122:251:6991,0.605,-0.943,3.355,-649.414,-314.819,195.374,12.684,10.316,-11.816
 14:41:56.919,eb:33:2e:f9:57:b5, 2085-97-26 04:143:04:8290,0.371,-0.068,3.676,-663.391,-340.088,234.924,6.213,6.768,-10.14
 14:41:56.919,eb:33:2e:f9:57:b5, 2085-97-88 02:12:16:10314,0.29,1.278,4.551,-636.902,-371.399,254.944,-0.363,3.054,-7.789
 14:41:56.920,eb:33:2e:f9:57:b5, 2085-97-133 02:231:27:10970,0.318,2.732,5.294,-581.97,-357.605,253.723,-6.57,-0.401,-4.96
 14:41:56.949,eb:33:2e:f9:57:b5, 2085-97-72 02:197:41:11520,0.146,4.297,5.437,-536.621,-321.35,228.76,-12.53,-3.323,-1.956
 14:41:56.949,eb:33:2e:f9:57:b5, 2085-97-130 255:79:58:12738,-0.325,6.272,5.887,-492.554,-288.086,174.866,-18.089,-5.647,0.84
 14:41:56.949,eb:33:2e:f9:57:b5, 2085-97-191 250:195:70:13432,-0.992,8.158,6.497,-413.94,-249.329,91.492,-23.104,-7.696,3.076
 14:41:56.949,eb:33:2e:f9:57:b5, 2085-97-153 245:56:76:12347,-1.68,9.297,6.352,-315.308,-205.566,-0.671,-27.01,-9.536,4.449
 14:41:57.130,eb:33:2e:f9:57:b5, 2085-97-34 239:194:77:11518,-2.571,9.661,5.736,-215.149,-156.921,-78.918,-29.789,-11.354,4.966
 14:41:57.130,eb:33:2e:f9:57:b5, 2085-97-213 233:85:75:10520,-2.897,9.634,5.479,-93.567,-83.679,-139.282,-31.218,-12.991,4.603
 14:41:57.130,eb:33:2e:f9:57:b5, 2085-97-185 230:85:65:8182,-3.576,8.967,4.563,18.982,-17.334,-167.175,-31.201,-14.216,3.483
 14:41:57.130,eb:33:2e:f9:57:b5, 2085-97-14 224:192:45:6907,-4.265,7,3.594,123.352,-16.541,-160.95,-29.971,-15.227,2.027
 14:41:57.161,eb:33:2e:f9:57:b5, 2085-97-04 221:238:27:6520,-4.319,4.56,3.288,213.44,9.949,-96.252,-27.834,-15.963,0.906
 14:41:57.161,eb:33:2e:f9:57:b5, 2085-97-16 223:181:09:4372,-2.381,2.403,2.814,297.974,69.458,0.305,-25.021,-15.782,0.258
 14:41:57.161,eb:33:2e:f9:57:b5, 2085-97-228 245:223:59:22928,2.105,1.577,2.832,489.99,-18.25,2.625,-21.434,-15.029,0.39
 14:41:57.161,eb:33:2e:f9:57:b5, 2085-97-220 45:164:66:15228,5.146,5.167,-5.35,741.76,-163.452,-334.351,-12.827,-16.32,-1.406
 14:41:57.164,eb:33:2e:f9:57:b5, 2085-97-254 65:30:46:27599,3.346,6.623,13.454,264.893,330.017,-276.611,-5.839,-16.172,-5.768
 14:41:57.164,eb:33:2e:f9:57:b5, 2085-97-220 253:150:238:378,-2.313,-1.124,2.657,23.56,727.722,73.975,-5.098,-9.267,-6.855
 14:41:57.164,eb:33:2e:f9:57:b5, 2085-97-180 229:28:09:-3861,-2.468,-1.429,-3.172,167.114,406.86,-52.979,-3.774,-3.076,-7.471
 14:41:57.164,eb:33:2e:f9:57:b5, 2085-97-00 244:49:04:-3408,-0.249,0.38,-0.759,88.684,154.785,62.988,-2.379,-1.06,-7.586
 14:41:57.168,eb:33:2e:f9:57:b5, 2085-97-79 12:63:06:5391,0.4,0.399,0.137,67.566,-40.283,16.296,-1.5,-0.945,-7.493
 14:41:57.168,eb:33:2e:f9:57:b5, 2085-97-26 01:58:254:2745,1.216,-0.255,1.776,59.631,106.384,-7.935,-0.961,-0.231,-7.515
 14:41:57.168,eb:33:2e:f9:57:b5, 2085-97-18 05:233:01:4927,-0.295,0.361,2.807,64.148,139.282,2.441,-0.286,0.588,-7.443
 14:41:57.168,eb:33:2e:f9:57:b5, 2085-97-117 252:198:252:3906,-0.545,-0.1,1.463,54.565,217.773,-11.108,0.269,2.818,-7.603
 14:41:57.220,eb:33:2e:f9:57:b5, 2085-97-93 251:46:252:5672,2.09,-0.322,2.287,124.573,112.488,8.362,1.23,4.318,-7.652
 14:41:57.220,eb:33:2e:f9:57:b5, 2085-97-213 12:167:242:10011,1.191,-1.953,4.603,638.977,197.449,-8.423,21.44,10.816,-4.532
 14:41:57.220,eb:33:2e:f9:57:b5, 2085-97-22 08:61:232:10389,1.4,-2.709,5.542,685.73,337.891,-50.842,28.262,13.37,-3.84
 14:41:57.220,eb:33:2e:f9:57:b5, 2085-97-76 14:206:245:7371,2.002,-2.61,4.472,716.309,389.648,-31.799,35.579,16.919,-2.175
 14:41:57.220,eb:33:2e:f9:57:b5, 2085-97-82 11:189:02:10118,0.572,-0.174,4.084,791.565,213.989,-103.577,43.5,19.644,-0.862
 14:41:57.220,eb:33:2e:f9:57:b5, 2085-97-95 254:103:251:10323,-1.37,0.19,5.26,869.568,108.521,-151.489,51.965,21.682,-0.72
 14:41:57.220,eb:33:2e:f9:57:b5, 2085-113-81 00:201:109:15939,-3.837,-1.221,3.93,725.464,106.689,-70.251,60.178,23.154,-0.731
 14:41:57.220,eb:33:2e:f9:57:b5, 2085-97-107 222:43:250:-1566,-2.867,-2.78,4.381,589.355,320.618,91.919,63.726,23.604,0.319
 14:41:57.280,eb:33:2e:f9:57:b5, 2085-97-248 241:63:243:1697,-0.353,-1.068,-1.25,93.323,463.684,360.168,68.769,23.005,5.142
 14:41:57.280,eb:33:2e:f9:57:b5, 2085-97-238 08:191:00:10127,2.147,-1.077,2.984,-107.239,533.63,519.226,70.28,20.583,11.893
 14:41:57.280,eb:33:2e:f9:57:b5, 2085-97-91 21:62:19:12477,2.597,1.403,6.004,65.308,458.008,527.283,71.702,17.331,18.776
 14:41:57.280,eb:33:2e:f9:57:b5, 2085-97-108 17:77:14:7559,1.888,2.53,4.893,367.004,195.19,431.641,75.004,13.782,23.362
 14:41:57.309,eb:33:2e:f9:57:b5, 2085-97-219 13:221:08:6881,1.577,1.187,3.27,521.79,-14.282,310.608,79.882,10.393,24.879
 14:41:57.309,eb:33:2e:f9:57:b5, 2085-97-41 11:85:12:9194,1.197,1.37,3.809,521.179,-126.038,173.767,85.166,7.932,24.39
 14:41:57.309,eb:33:2e:f9:57:b5, 2085-97-216 08:206:06:11359,1.12,1.336,5.141,437.805,-155.823,31.738,89.835,6.883,22.917
 14:41:57.309,eb:33:2e:f9:57:b5, 2085-97-148 09:72:255:11131,1.337,0.313,5.629,344.36,-118.164,-77.759,93.625,7.213,21.489
 14:41:57.340,eb:33:2e:f9:57:b5, 2085-97-139 11:38:250:9682,1.527,-0.473,5.076,257.935,-66.223,-170.41,96.498,8.525,20.632
 14:41:57.340,eb:33:2e:f9:57:b5, 2085-97-139 12:137:246:7993,1.53,-0.97,4.351,199.89,-40.71,-234.253,98.718,10.64,20.325
 14:41:57.340,eb:33:2e:f9:57:b5, 2085-97-175 11:109:243:5977,1.359,-1.371,3.396,145.081,-43.762,-274.292,100.36,13.222,20.264
 14:41:57.340,eb:33:2e:f9:57:b5, 2085-97-205 09:47:240:4941,1.061,-1.778,2.583,91.003,-72.632,-288.208,101.486,16.122,20.121
 14:41:57.429,eb:33:2e:f9:57:b5, 2085-97-87 07:252:237:4988,0.812,-2.146,2.378,54.993,-103.149,-279.419,102.025,19.056,19.704
 14:41:57.429,eb:33:2e:f9:57:b5, 2085-97-140 05:157:236:5327,0.571,-2.314,2.522,35.828,-112.732,-253.479,102.288,21.885,19.061
 14:41:57.429,eb:33:2e:f9:57:b5, 2085-97-111 02:201:231:5330,-0.113,-2.644,2.698,28.32,-109.863,-213.745,102.299,24.346,18.342
 14:41:57.429,eb:33:2e:f9:57:b5, 2085-97-248 250:106:223:3420,-0.989,-3.522,2.272,36.682,-139.099,-156.555,102.283,26.389,17.402
 14:41:57.459,eb:33:2e:f9:57:b5, 2085-97-46 249:180:213:1292,-0.559,-4.724,0.932,27.222,-191.04,-66.711,101.942,27.779,15.771
 14:41:57.459,eb:33:2e:f9:57:b5, 2085-97-85 246:176:205:-6485,-0.056,-5.721,-0.128,-58.105,-120.3,65.918,101.102,28.032,13.991
 14:41:57.459,eb:33:2e:f9:57:b5, 2085-97-02 06:02:219:-7680,0.903,-5.88,-4.916,-324.524,-71.35,211.365,98.652,26.669,12.755
 14:41:57.459,eb:33:2e:f9:57:b5, 2085-97-45 09:88:228:-2614,1.508,-3.891,-2.088,-527.161,-95.459,258.057,93.768,24.313,11.755
 14:41:57.461,eb:33:2e:f9:57:b5, 2085-97-245 14:86:235:-1691,2.046,-3.026,-1.042,-592.346,-239.868,257.568,87.446,21.649,9.998
 14:41:57.461,eb:33:2e:f9:57:b5, 2085-97-33 16:138:238:1022,2.078,-2.291,-0.273,-617.92,-368.225,223.999,80.541,18.847,6.998
 14:41:57.461,eb:33:2e:f9:57:b5, 2085-97-34 17:238:241:4847,2.014,-2.035,1.448,-621.826,-435.73,179.504,73.455,15.864,3.455
 14:41:57.461,eb:33:2e:f9:57:b5, 2085-97-88 13:196:245:7784,1.312,-1.454,3.146,-630.554,-455.2,136.719,66.539,12.788,-0.258
 14:41:57.550,eb:33:2e:f9:57:b5, 2085-97-07 09:41:245:10054,1.001,-1.269,4.407,-638,-453.125,93.079,59.683,9.597,-3.735
 14:41:57.550,eb:33:2e:f9:57:b5, 2085-97-100 06:160:244:10347,0.646,-1.424,5.137,-634.033,-424.5,57.312,53.102,6.498,-6.971
 14:41:57.550,eb:33:2e:f9:57:b5, 2085-97-93 04:63:243:9736,0.395,-1.459,4.891,-644.165,-395.02,30.518,46.609,3.455,-9.712
 14:41:57.550,eb:33:2e:f9:57:b5, 2085-97-158 01:71:240:9433,0.023,-1.781,4.628,-656.25,-388.306,22.949,40.182,0.406,-12.178
 14:41:57.550,eb:33:2e:f9:57:b5, 2085-97-60 255:91:239:9796,-0.237,-2.07,4.674,-656.86,-397.888,36.194,33.723,-3.01,-14.211
 14:41:57.550,eb:33:2e:f9:57:b5, 2085-97-169 252:233:240:9523,-0.701,-2.009,4.768,-645.874,-403.687,63.11,27.449,-6.751,-15.787
 14:41:57.550,eb:33:2e:f9:57:b5, 2085-97-53 250:02:248:8983,-0.729,-1.651,4.405,-641.052,-411.499,102.173,21.138,-10.887,-16.611
 14:41:57.550,eb:33:2e:f9:57:b5, 2085-97-112 248:48:01:10297,-1.106,-0.357,4.685,-656.433,-392.639,144.592,14.617,-15.09,-16.584
 14:41:57.579,eb:33:2e:f9:57:b5, 2085-97-115 246:210:10:11255,-1.231,0.714,5.32,-644.592,-366.821,179.321,7.635,-19.16,-15.524
 14:41:57.579,eb:33:2e:f9:57:b5, 2085-97-121 246:82:21:11861,-1.108,2.002,5.612,-619.019,-305.298,197.571,0.522,-22.632,-13.64
 14:41:57.579,eb:33:2e:f9:57:b5, 2085-97-72 247:86:34:12668,-1.108,3.422,5.993,-600.098,-177.673,183.228,-6.746,-24.901,-11.245
 14:41:57.579,eb:33:2e:f9:57:b5, 2085-97-238 246:114:48:13147,-1.214,5.205,6.376,-569.397,-75.562,128.967,-13.596,-25.735,-9.256
 14:41:57.639,eb:33:2e:f9:57:b5, 2085-97-177 244:157:60:12350,-1.777,6.804,6.261,-517.09,-44.128,54.321,-19.649,-25.999,-8.075
 14:41:57.639,eb:33:2e:f9:57:b5, 2085-97-25 238:124:70:12697,-2.639,8.326,5.943,-441.406,-65.796,-10.742,-24.664,-26.422,-7.663
 14:41:57.639,eb:33:2e:f9:57:b5, 2085-97-162 233:97:71:13701,-2.629,8.955,6.57,-306.396,-54.199,-48.767,-28.405,-27.213,-7.63
 14:41:57.639,eb:33:2e:f9:57:b5, 2085-97-201 237:00:72:11528,-1.894,8.943,6.388,-176.208,62.195,-50.171,-30.443,-27.433,-8.196
 14:41:57.700,eb:33:2e:f9:57:b5, 2085-97-133 242:59:73:7631,-1.612,9.121,4.669,-75.195,126.038,-52.124,-31.031,-26.785,-9.344
 14:41:57.700,eb:33:2e:f9:57:b5, 2085-97-200 242:147:63:5333,-1.807,8.769,2.998,53.65,52.368,-63.293,-30.531,-26.312,-10.514
 14:41:57.700,eb:33:2e:f9:57:b5, 2085-97-120 240:186:45:5217,-2.017,6.897,2.531,200.073,-35.706,-44.922,-28.861,-26.609,-11.041
 14:41:57.700,eb:33:2e:f9:57:b5, 2085-97-233 246:20:26:5620,-1.361,4.141,2.44,314.27,-70.618,12.756,-26.29,-27.23,-10.904
 14:41:57.759,eb:33:2e:f9:57:b5, 2085-97-94 232:175:41:-7688,2.525,1.788,12.087,736.084,383.057,70.496,-21.643,-27.114,-10.585
 14:41:57.759,eb:33:2e:f9:57:b5, 2085-97-30 11:253:14:14178,-1.321,2.571,3.81,627.747,539.917,37.476,-14.293,-22.637,-11.393
 14:41:57.759,eb:33:2e:f9:57:b5, 2085-97-67 09:129:250:17280,-2.212,4.385,13.213,299.133,994.446,-160.645,-8.004,-15.732,-13.892
 14:41:57.759,eb:33:2e:f9:57:b5, 2085-97-133 224:253:16:-5745,-7.16,-0.863,-0.5,163.94,558.594,6.287,-5.576,-7.701,-15.37
 14:41:57.761,eb:33:2e:f9:57:b5, 2085-97-17 240:131:249:-688,0.375,-1.002,-0.803,140.198,169.8,25.391,-4.065,-4.697,-15.991
 14:41:57.761,eb:33:2e:f9:57:b5, 2085-97-180 08:21:09:1190,0.459,0.341,1.385,131.47,63.232,86.792,-2.84,-3.933,-15.26
 14:41:57.761,eb:33:2e:f9:57:b5, 2085-97-100 09:14:08:3169,-0.748,0.712,1.019,106.445,87.341,4.7,-1.637,-3.148,-14.98
 14:41:57.761,eb:33:2e:f9:57:b5, 2085-97-81 241:128:252:613,0.1,-0.092,0.567,87.097,89.417,1.038,-0.72,-2.104,-15.101
 14:41:57.789,eb:33:2e:f9:57:b5, 2085-97-44 04:53:04:4479,0.497,0.079,1.551,100.525,38.33,-2.258,0.253,-1.577,-15.018
 14:41:57.789,eb:33:2e:f9:57:b5, 2085-97-15 07:29:00:3153,-0.166,0.053,2.352,108.582,109.314,-35.034,1.318,-0.797,-15.244
 14:41:57.789,eb:33:2e:f9:57:b5, 2085-97-46 251:204:254:5908,-0.892,-0.417,3.071,148.743,56.885,-32.41,2.697,-0.115,-15.628
 14:41:57.789,eb:33:2e:f9:57:b5, 2085-97-112 246:255:245:5361,-1.494,-0.472,2.612,237.915,-16.113,3.601,4.686,0.088,-15.765
 14:41:57.819,eb:33:2e:f9:57:b5, 2085-97-102 247:42:248:7208,-0.613,-1.441,3.081,316.04,-73.608,64.758,7.509,-0.434,-15.43
 14:41:57.819,eb:33:2e:f9:57:b5, 2085-97-42 253:208:242:10164,0.011,-1.017,4.417,396.057,-107.361,104.675,11.069,-1.577,-14.733
 14:41:57.819,eb:33:2e:f9:57:b5, 2085-97-203 04:43:239:10416,0.938,-2.147,5.2,491.943,-98.938,127.38,15.463,-2.802,-13.744
 14:41:57.819,eb:33:2e:f9:57:b5, 2085-97-00 08:65:243:10276,1.243,-1.962,4.986,600.159,-75.012,102.478,20.852,-4.016,-12.903
 14:41:57.879,eb:33:2e:f9:57:b5, 2085-97-51 13:91:243:11192,1.631,-1.6,5.359,710.144,-1.77,28.87,27.438,-4.581,-12.48
 14:41:57.879,eb:33:2e:f9:57:b5, 2085-97-244 06:106:249:13990,-0.434,-0.914,5.455,784.851,2.502,-46.265,34.953,-4.455,-12.53
 14:41:57.879,eb:33:2e:f9:57:b5, 2085-97-81 247:96:247:13930,-0.875,-1.165,7.697,857.971,90.027,-57.373,43.253,-3.757,-12.854
 14:41:57.879,eb:33:2e:f9:57:b5, 2085-97-134 252:19:01:3714,-0.167,-0.437,4.233,923.584,57.861,29.785,52.147,-2.999,-12.244
 14:41:57.909,eb:33:2e:f9:57:b5, 2085-97-14 02:205:22:-3532,-0.898,0.136,0,847.29,-91.919,89.478,61.117,-3.713,-12.211
 14:41:57.909,eb:33:2e:f9:57:b5, 2085-97-254 240:56:251:1978,-2.375,2.033,-1.354,505.371,-138.428,31.189,68.291,-4.735,-13.354
 14:41:57.909,eb:33:2e:f9:57:b5, 2085-97-32 246:119:248:5564,0.264,-1.966,2.215,163.635,201.172,190.002,71.093,-5.652,-12.656
 14:41:57.910,eb:33:2e:f9:57:b5, 2085-97-215 09:93:10:8820,1.742,0.298,3.776,79.712,387.512,246.887,71.356,-6.74,-8.74
 14:41:57.968,eb:33:2e:f9:57:b5, 2085-97-70 15:214:23:6738,1.671,2.282,4.031,238.525,217.224,171.448,72.147,-7.663,-4.944
 14:41:57.968,eb:33:2e:f9:57:b5, 2085-97-140 09:182:15:6135,0.669,2.808,2.689,415.527,-111.023,34.973,75.471,-8.465,-4.34
 14:41:57.968,eb:33:2e:f9:57:b5, 2085-97-47 01:114:05:10814,-0.298,1.189,4.036,457.581,-281.494,-64.758,80.464,-8.701,-6.691
 14:41:57.968,eb:33:2e:f9:57:b5, 2085-97-199 251:133:00:14267,-0.432,0.339,6.34,417.358,-214.539,-93.018,85.457,-8.229,-9.498
 14:41:58.088,eb:33:2e:f9:57:b5, 2085-97-160 255:59:252:13404,0.482,-0.198,6.997,359.619,-39.978,-83.252,89.55,-7.41,-10.816
 14:41:58.088,eb:33:2e:f9:57:b5, 2085-97-136 08:54:249:11429,1.59,-0.72,6.035,322.571,64.331,-89.722,92.867,-6.575,-10.58
 14:41:58.088,eb:33:2e:f9:57:b5, 2085-97-78 16:88:249:9290,2.376,-0.869,5.094,308.594,71.533,-132.935,95.828,-5.504,-9.8
 14:41:58.088,eb:33:2e:f9:57:b5, 2085-97-142 20:22:249:6693,2.64,-0.807,3.887,283.63,18.799,-209.595,98.701,-3.829,-9.174
 14:41:58.090,eb:33:2e:f9:57:b5, 2085-97-211 20:35:246:5155,2.481,-1.013,2.783,225.159,-61.829,-295.532,101.179,-1.23,-9.069
 14:41:58.090,eb:33:2e:f9:57:b5, 2085-97-69 18:217:242:5388,2.095,-1.448,2.441,149.78,-119.995,-362.549,103.03,2.236,-9.41
 14:41:58.090,eb:33:2e:f9:57:b5, 2085-97-239 14:209:240:6265,1.63,-1.776,2.886,78.857,-136.78,-400.574,104.057,6.306,-9.915
 14:41:58.090,eb:33:2e:f9:57:b5, 2085-97-105 11:41:239:5952,1.27,-2.009,3.048,32.227,-117.676,-404.114,104.551,10.541,-10.272
 14:41:58.092,eb:33:2e:f9:57:b5, 2085-97-96 09:21:238:5028,1.033,-2.185,2.695,-7.629,-88.44,-382.324,104.584,14.606,-10.377
 14:41:58.093,eb:33:2e:f9:57:b5, 2085-97-140 06:175:235:3777,0.566,-2.343,2.166,-41.443,-69.885,-345.154,104.332,18.309,-10.3
 14:41:58.093,eb:33:2e:f9:57:b5, 2085-97-00 03:91:231:2760,0.239,-2.792,1.55,-63.416,-96.375,-298.096,103.705,21.61,-10.415
 14:41:58.093,eb:33:2e:f9:57:b5, 2085-97-37 02:59:228:1305,0.115,-3.317,1.075,-92.651,-101.562,-235.596,102.766,24.412,-10.931
 14:41:58.120,eb:33:2e:f9:57:b5, 2085-97-186 01:220:225:-3109,0.539,-3.648,-0.3,-176.514,-48.767,-153.809,101.239,26.45,-11.354
 14:41:58.120,eb:33:2e:f9:57:b5, 2085-97-127 06:28:232:-4605,0.883,-3.55,-2.321,-362.61,-3.357,-61.89,98.492,27.493,-11.453
 14:41:58.120,eb:33:2e:f9:57:b5, 2085-97-184 07:190:239:-1597,1.114,-2.41,-1.452,-541.016,12.085,0.061,93.796,27.735,-11.343
 14:41:58.120,eb:33:2e:f9:57:b5, 2085-97-133 10:73:243:-282,1.516,-1.808,-0.368,-628.662,-9.094,27.588,87.852,27.559,-11.321
 14:41:58.150,eb:33:2e:f9:57:b5, 2085-97-143 13:231:247:-027,1.821,-1.31,-0.066,-651.184,-74.341,31.067,81.194,27.191,-11.711
 14:41:58.150,eb:33:2e:f9:57:b5, 2085-97-245 14:21:252:1369,1.869,-0.747,0.256,-639.038,-186.584,16.479,74.196,26.636,-13.085
 14:41:58.150,eb:33:2e:f9:57:b5, 2085-97-04 14:36:254:3174,1.563,-0.284,1.119,-595.337,-332.886,-2.197,66.973,25.62,-15.716
 14:41:58.150,eb:33:2e:f9:57:b5, 2085-97-102 11:143:251:4767,1.355,-0.359,1.944,-541.809,-461.487,-7.446,59.941,23.774,-19.627
 14:41:58.208,eb:33:2e:f9:57:b5, 2085-97-32 10:86:249:6247,1.107,-0.713,2.681,-505.432,-530.029,12.146,53.311,20.88,-23.956
 14:41:58.208,eb:33:2e:f9:57:b5, 2085-97-02 07:204:247:7826,0.639,-0.919,3.416,-498.291,-533.875,49.316,47.28,17.122,-27.971
 14:41:58.208,eb:33:2e:f9:57:b5, 2085-113-81 00:134:114:11508,0.445,-1.111,4.176,-516.479,-465.393,102.478,41.589,12.909,-30.883
 14:41:58.208,eb:33:2e:f9:57:b5, 2085-97-241 02:205:246:8572,0.355,-1.149,4.309,-534.302,-406.128,134.46,38.831,10.854,-31.772
 14:41:58.208,eb:33:2e:f9:57:b5, 2085-97-203 02:155:248:7251,0.388,-1.089,3.873,-582.825,-279.358,198.181,33.162,7.174,-32.278
 14:41:58.238,eb:33:2e:f9:57:b5, 2085-97-153 03:72:253:6342,0.534,-0.667,3.29,-619.934,-218.018,235.657,27.065,3.977,-31.498
 14:41:58.238,eb:33:2e:f9:57:b5, 2085-97-18 05:203:03:6279,0.707,0.038,3.016,-635.925,-211.365,249.146,20.715,1.088,-30.07
 14:41:58.238,eb:33:2e:f9:57:b5, 2085-97-205 05:95:11:6704,0.677,0.948,3.166,-624.817,-236.938,239.197,14.194,-1.78,-28.312
 14:41:58.238,eb:33:2e:f9:57:b5, 2085-97-132 04:200:17:6823,0.455,1.854,3.331,-599.243,-265.442,212.524,7.85,-4.664,-26.532
 14:41:58.270,eb:33:2e:f9:57:b5, 2085-97-254 02:66:22:7099,0.285,2.524,3.344,-572.937,-274.353,179.749,1.615,-7.531,-24.708
 14:41:58.278,eb:33:2e:f9:57:b5, 2085-97-81 01:14:27:8530,0.025,3.048,3.736,-553.955,-257.996,149.841,-4.395,-10.135,-22.939
 14:41:58.278,eb:33:2e:f9:57:b5, 2085-97-75 255:192:33:10067,-0.167,3.759,4.621,-540.527,-206.97,124.878,-10.388,-12.261,-21.171
 14:41:58.278,eb:33:2e:f9:57:b5, 2085-97-78 254:10:44:9879,-0.113,4.816,4.973,-520.081,-140.015,97.046,-16.155,-13.623,-19.633
 14:41:58.330,eb:33:2e:f9:57:b5, 2085-97-188 255:190:53:9087,-0.12,6.146,4.652,-450.378,-116.943,45.654,-21.434,-14.551,-18.463
 14:41:58.330,eb:33:2e:f9:57:b5, 2085-97-136 253:164:59:7865,-0.652,7.197,4.156,-333.191,-156.189,-23.254,-25.543,-15.732,-17.803
 14:41:58.330,eb:33:2e:f9:57:b5, 2085-97-87 246:39:58:6792,-1.925,7.452,3.495,-205.811,-223.572,-83.862,-28.345,-17.726,-17.353
 14:41:58.330,eb:33:2e:f9:57:b5, 2085-97-249 234:245:52:7771,-3.164,6.993,3.458,-93.933,-267.639,-101.746,-29.965,-20.407,-16.886
 14:41:58.359,eb:33:2e:f9:57:b5, 2085-97-77 228:19:45:8065,-3.57,6.163,4.023,9.583,-223.267,-74.951,-30.591,-23.022,-16.243
 14:41:58.359,eb:33:2e:f9:57:b5, 2085-97-28 227:152:37:5960,0.545,5.126,3.494,96.13,-130.005,-26.672,-30.262,-24.741,-15.705
 14:41:58.359,eb:33:2e:f9:57:b5, 2085-97-204 212:131:55:17385,-0.641,6.383,9.518,423.706,55.603,-78.125,-28.383,-25.735,-15.447
 14:41:58.359,eb:33:2e:f9:57:b5, 2085-97-95 250:21:103:15411,-2.093,10.832,-0.215,687.317,434.021,-180.176,-20.649,-22.972,-18.331
 14:41:58.390,eb:33:2e:f9:57:b5, 2085-97-85 00:39:34:26277,2.729,12.925,13.639,679.993,651.306,-334.961,-11.069,-18.254,-23.362
 14:41:58.390,eb:33:2e:f9:57:b5, 2085-97-72 11:119:251:197,-2.657,-0.405,6.771,182.617,663.513,95.398,-6.141,-11.514,-26.241
 14:41:58.390,eb:33:2e:f9:57:b5, 2085-97-120 234:54:252:-2425,-1.04,0.016,-0.966,193.604,296.387,47.791,-4.422,-6.91,-25.785
 14:41:58.390,eb:33:2e:f9:57:b5, 2085-97-201 249:189:19:2951,-0.167,0.452,-1.939,164.978,105.591,-16.663,-2.291,-4.993,-26.175
 14:41:58.449,eb:33:2e:f9:57:b5, 2085-97-137 246:170:252:-698,1.27,1.654,-0.277,70.19,174.133,-2.197,-1.318,-3.241,-25.823
 14:41:58.449,eb:33:2e:f9:57:b5, 2085-97-17 10:16:03:4114,-2.068,0.862,2.298,48.096,140.381,21.484,-0.665,-2.164,-25.785
 14:41:58.449,eb:33:2e:f9:57:b5, 2085-97-167 240:159:252:-577,-0.283,-0.325,-0.648,57.8,128.052,-9.521,0.005,-0.291,-25.994
 14:41:58.449,eb:33:2e:f9:57:b5, 2085-97-25 01:160:254:4032,0.355,-0.181,1.476,49.988,23.315,32.654,0.472,0.11,-25.763
 14:41:58.479,eb:33:2e:f9:57:b5, 2085-97-219 06:193:04:5127,0.702,0.233,2.403,57.8,72.205,12.268,1.049,0.676,-25.505
 14:41:58.479,eb:33:2e:f9:57:b5, 2085-97-186 02:114:253:5032,-0.186,-0.06,2.814,65.857,152.344,-15.015,1.637,1.835,-25.598
 14:41:58.479,eb:33:2e:f9:57:b5, 2085-97-194 253:74:253:7681,0.346,-0.002,2.845,142.822,81.665,-5.493,2.741,3.115,-25.648
 14:41:58.479,eb:33:2e:f9:57:b5, 2085-97-109 253:248:246:9361,-0.886,-0.644,4.456,261.047,35.645,11.536,4.818,3.549,-25.609
 14:41:58.510,eb:33:2e:f9:57:b5, 2085-97-12 254:38:240:11368,0.264,-1.684,4.996,377.747,45.41,44.617,8.146,3.955,-25.252
 14:41:58.510,eb:33:2e:f9:57:b5, 2085-97-83 05:227:242:7739,0.952,-1.97,4.874,505.432,73.669,74.951,12.645,4.504,-24.527
 14:41:58.510,eb:33:2e:f9:57:b5, 2085-97-139 08:73:243:8277,1.119,-1.618,3.539,592.529,16.418,31.128,18.254,4.807,-23.868
 14:41:58.510,eb:33:2e:f9:57:b5, 2085-97-158 05:214:243:10579,0.342,-1.744,4.675,660.645,56.213,-24.658,24.576,5.059,-23.813
 14:41:58.569,eb:33:2e:f9:57:b5, 2085-97-145 00:97:237:9515,0.489,-2.355,5.223,685.181,221.191,-43.335,31.437,6.542,-23.544
 14:41:58.569,eb:33:2e:f9:57:b5, 2085-97-115 07:55:242:7752,0.375,-1.849,4.065,701.965,258.728,-33.63,38.397,8.926,-22.374
 14:41:58.569,eb:33:2e:f9:57:b5, 2085-97-114 04:49:252:7439,0.663,-1.042,3.648,760.376,179.565,-50.964,45.84,10.86,-21.275
 14:41:58.570,eb:33:2e:f9:57:b5, 2085-97-73 05:113:03:6718,0.553,0.014,3.713,806.641,78.979,-90.881,53.817,12.195,-20.885
 14:41:58.601,eb:33:2e:f9:57:b5, 2085-97-144 253:243:253:2976,-1.376,0.439,1.798,769.592,-9.338,-141.357,61.771,13.42,-21.253
 14:41:58.601,eb:33:2e:f9:57:b5, 2085-97-220 237:72:10:-4753,-2.785,1.484,-1.596,592.773,-37.476,-117.432,68.494,14.568,-21.885
 14:41:58.601,eb:33:2e:f9:57:b5, 2085-97-218 230:24:243:1347,-2.89,-0.666,-0.542,207.092,1.831,-13.428,72.175,15.15,-22.582
 14:41:58.601,eb:33:2e:f9:57:b5, 2085-97-239 238:163:250:6466,-0.984,-1.476,1.976,-70.618,278.259,175.11,72.9,14.744,-20.918
 14:41:58.629,eb:33:2e:f9:57:b5, 2085-97-47 01:138:06:9723,0.9,0.096,4.246,-169.495,534.302,277.405,72.389,13.859,-16.024
 14:41:58.629,eb:33:2e:f9:57:b5, 2085-97-104 11:236:14:8385,1.823,1.456,4.601,-93.628,576.416,285.034,72.037,13.024,-9.542
 14:41:58.629,eb:33:2e:f9:57:b5, 2085-97-48 16:163:13:5131,1.98,1.939,3.354,87.402,402.466,229.492,72.911,12.189,-4.026
 14:41:58.629,eb:33:2e:f9:57:b5, 2085-97-15 15:208:09:3206,1.818,1.382,1.822,249.573,178.711,149.475,75.157,11.239,-0.835
 14:41:58.690,eb:33:2e:f9:57:b5, 2085-97-130 13:63:10:4853,1.468,1.258,1.801,356.018,-2.319,57.129,78.409,10.481,0.121
 14:41:58.690,eb:33:2e:f9:57:b5, 2085-97-191 09:69:09:7669,0.992,1.247,3.062,423.462,-126.404,-36.011,82.282,10.294,-0.654
 14:41:58.690,eb:33:2e:f9:57:b5, 2085-97-179 06:152:05:9779,0.748,0.978,4.341,458.313,-175.659,-114.136,86.545,10.915,-2.368
 14:41:58.690,eb:33:2e:f9:57:b5, 2085-97-112 05:128:255:9972,0.627,0.328,4.966,453.247,-148.01,-165.833,90.912,12.294,-4.136
 14:41:58.719,eb:33:2e:f9:57:b5, 2085-97-85 05:86:251:8409,0.791,-0.407,4.559,401.367,-74.707,-189.27,95.015,14.134,-5.208
 14:41:58.719,eb:33:2e:f9:57:b5, 2085-97-55 07:147:250:6956,0.979,-0.645,3.714,329.285,-24.231,-197.632,98.597,16.111,-5.493
 14:41:58.719,eb:33:2e:f9:57:b5, 2085-97-117 08:13:250:6151,1.129,-0.717,3.18,250.977,-4.028,-204.346,101.475,18.116,-5.312
 14:41:58.719,eb:33:2e:f9:57:b5, 2085-113-58 00:124:237:390,1.181,-0.737,2.893,186.707,-7.324,-214.478,103.694,20.182,-4.955
 14:41:58.749,eb:33:2e:f9:57:b5, 2085-97-140 09:222:249:5555,1.183,-0.733,2.799,165.405,-15.076,-220.581,104.59,21.259,-4.779
 14:41:58.749,eb:33:2e:f9:57:b5, 2085-97-77 09:220:248:5276,1.117,-0.83,2.637,133.179,-27.649,-230.835,106.161,23.511,-4.46
 14:41:58.749,eb:33:2e:f9:57:b5, 2085-97-110 08:30:248:5129,0.953,-0.945,2.519,111.206,-30.273,-234.375,107.457,25.834,-4.109
 14:41:58.749,eb:33:2e:f9:57:b5, 2085-97-105 05:18:246:4880,0.409,-1.05,2.518,96.619,-33.386,-227.966,108.638,28.147,-3.735
 14:41:58.809,eb:33:2e:f9:57:b5, 2085-97-99 02:15:242:4184,0.27,-1.503,2.196,92.712,-72.51,-206.787,109.616,30.377,-3.56
 14:41:58.809,eb:33:2e:f9:57:b5, 2085-97-251 01:76:238:3279,0.247,-1.992,1.869,70.496,-97.839,-163.391,110.303,32.415,-3.884
 14:41:58.809,eb:33:2e:f9:57:b5, 2085-97-48 02:31:235:1548,0.346,-2.371,1.189,14.404,-93.506,-103.271,110.413,33.975,-4.444
 14:41:58.809,eb:33:2e:f9:57:b5, 2085-97-224 02:159:229:-184,0.066,-2.966,0.411,-68.176,-77.515,-39.551,109.759,34.904,-5.175
 14:41:58.841,eb:33:2e:f9:57:b5, 2085-97-82 01:120:227:-5411,0.452,-3.6,-1.439,-187.866,-51.453,37.354,108.073,35.085,-5.861
 14:41:58.841,eb:33:2e:f9:57:b5, 2085-97-238 05:138:236:-4545,0.905,-3.016,-2.917,-379.456,-52.002,118.774,104.716,34.393,-6.751
 14:41:58.841,eb:33:2e:f9:57:b5, 2085-97-205 08:177:238:-946,1.264,-2.192,-1.215,-512.756,-83.252,157.715,99.542,33.113,-7.784
 14:41:58.841,eb:33:2e:f9:57:b5, 2085-97-216 10:92:240:297,1.471,-2.101,-0.055,-562.561,-133.667,164.368,93.411,31.586,-9.24
 14:41:58.869,eb:33:2e:f9:57:b5, 2085-97-43 13:100:244:696,1.768,-1.74,0.255,-579.285,-190.063,153.503,86.841,29.954,-11.003
 14:41:58.869,eb:33:2e:f9:57:b5, 2085-97-127 14:125:248:1872,1.728,-1.175,0.545,-593.933,-265.808,127.991,79.986,28.246,-13.348
 14:41:58.869,eb:33:2e:f9:57:b5, 2085-97-127 12:226:250:3772,1.383,-0.747,1.342,-613.525,-344.604,110.596,72.746,26.318,-16.232
 14:41:58.869,eb:33:2e:f9:57:b5, 2085-97-199 09:254:250:6197,1.071,-0.603,2.42,-623.169,-419.8,105.469,65.314,23.857,-19.666
 14:41:58.930,eb:33:2e:f9:57:b5, 2085-97-244 07:46:250:8468,0.882,-0.671,3.677,-611.206,-468.872,113.342,57.969,20.682,-23.176
 14:41:58.931,eb:33:2e:f9:57:b5, 2085-97-155 05:201:248:9504,0.559,-0.816,4.438,-596.069,-452.332,139.16,51.158,16.902,-26.274
 14:41:58.931,eb:33:2e:f9:57:b5, 2085-97-235 03:228:248:10190,0.469,-0.918,4.839,-592.59,-382.263,180.542,44.797,12.854,-28.218
 14:41:58.931,eb:33:2e:f9:57:b5, 2085-97-244 03:150:250:9734,0.559,-0.817,4.952,-601.318,-280.334,223.938,38.749,9.047,-28.817
 14:41:58.958,eb:33:2e:f9:57:b5, 2085-97-25 05:91:254:8563,0.73,-0.464,4.458,-618.958,-207.947,252.747,32.618,5.724,-28.136
 14:41:58.958,eb:33:2e:f9:57:b5, 2085-97-63 06:16:03:8036,0.767,0.077,4.017,-638.489,-191.528,262.573,26.323,2.78,-26.807
 14:41:58.958,eb:33:2e:f9:57:b5, 2085-97-230 05:212:07:8100,0.728,0.697,3.888,-652.1,-210.022,258.484,19.709,-0.071,-25.093
 14:41:58.958,eb:33:2e:f9:57:b5, 2085-97-198 05:50:11:8651,0.678,1.203,4.105,-647.705,-233.582,243.652,13.013,-2.895,-23.269
 14:41:58.989,eb:33:2e:f9:57:b5, 2085-97-227 04:120:14:8766,0.611,1.594,4.265,-629.7,-235.291,223.267,6.284,-5.598,-21.275
 14:41:58.989,eb:33:2e:f9:57:b5, 2085-97-253 04:112:19:9094,0.583,2.088,4.352,-611.145,-202.759,197.693,-0.297,-7.866,-19.243
 14:41:58.989,eb:33:2e:f9:57:b5, 2085-97-253 03:114:25:9712,0.4,2.806,4.553,-591.37,-160.4,162.964,-6.801,-9.509,-17.243
 14:41:58.989,eb:33:2e:f9:57:b5, 2085-97-155 02:129:32:10187,0.296,3.591,4.91,-570.984,-125,125.854,-13.019,-10.624,-15.551
 14:41:59.050,eb:33:2e:f9:57:b5, 2085-97-28 02:171:41:9893,0.205,4.588,4.939,-554.321,-92.773,89.6,-19.039,-11.349,-14.161
 14:41:59.050,eb:33:2e:f9:57:b5, 2085-97-249 01:163:49:8966,0.33,5.777,4.691,-498.108,-73.364,39.978,-24.604,-11.832,-13.244
 14:41:59.050,eb:33:2e:f9:57:b5, 2085-97-41 02:235:56:7777,-0.075,6.69,3.991,-384.094,-104.858,-19.775,-29.119,-12.563,-12.739
 14:41:59.050,eb:33:2e:f9:57:b5, 2085-97-180 251:68:57:6782,-1.121,7.26,3.631,-275.757,-146.851,-62.195,-32.459,-13.925,-12.437
 14:41:59.079,eb:33:2e:f9:57:b5, 2085-97-23 243:145:55:5428,-1.86,7.039,2.887,-165.344,-163.147,-62.134,-34.744,-15.584,-12.03
 14:41:59.079,eb:33:2e:f9:57:b5, 2085-97-170 240:210:53:4819,-1.957,6.86,2.53,-39.978,-164.246,-46.326,-35.925,-17.232,-11.453
 14:41:59.079,eb:33:2e:f9:57:b5, 2085-97-09 239:186:44:4498,-2.25,6.327,2.231,71.472,-163.33,-45.044,-35.876,-18.803,-10.734
 14:41:59.079,eb:33:2e:f9:57:b5, 2085-97-03 238:161:35:4256,-2.151,4.882,2.117,128.479,-124.939,-35.461,-35.057,-20.237,-10.162
 14:41:59.111,eb:33:2e:f9:57:b5, 2085-97-128 239:44:28:4585,-2.129,4.104,2.251,160.522,-60.608,-15.93,-33.706,-21.11,-9.761
 14:41:59.111,eb:33:2e:f9:57:b5, 2085-97-85 27:60:46:14826,-5.05,2.72,1.703,214.539,-17.7,3.174,-31.888,-21.401,-9.641
 14:41:59.111,eb:33:2e:f9:57:b5, 2085-97-183 04:237:60:-1251,1.63,4.836,5.997,862.61,439.209,-190.308,-25.439,-20.836,-11.442
 14:41:59.111,eb:33:2e:f9:57:b5, 2085-97-70 244:198:83:28833,2.695,8.485,6.687,833.74,467.285,-396.118,-15.271,-18.034,-16.331
 14:41:59.199,eb:33:2e:f9:57:b5, 2085-97-20 58:165:14:12454,0.585,0.544,13.15,379.578,583.496,-100.037,-7.108,-13.826,-20.907
 14:41:59.199,eb:33:2e:f9:57:b5, 2085-97-221 196:20:254:-7132,-3.324,4.262,-2.808,66.101,612.183,27.893,-6.021,-6.35,-20.671
 14:41:59.199,eb:33:2e:f9:57:b5, 2085-97-23 01:47:09:3539,0.851,-2.589,-3.946,175.842,-34.79,-21.057,-4.493,-3.955,-20.863
 14:41:59.200,eb:33:2e:f9:57:b5, 2085-97-238 245:176:253:-1412,-0.112,2.485,0.451,70.251,152.649,21.484,-3.45,-3.257,-20.484
