Time,Device name,Chip Time(),Acceleration X(g),Acceleration Y(g),Acceleration Z(g),Angular velocity X(°/s),Angular velocity Y(°/s),Angular velocity Z(°/s),Angle X(°),Angle Y(°),Angle Z(°)
 14:39:15.450,eb:33:2e:f9:57:b5, 2085-97-108 00:253:255:1996,0.042,-0.032,0.977,15.564,18.494,3.479,-0.786,-1.324,85.946
 14:39:15.451,eb:33:2e:f9:57:b5, 2085-97-89 00:255:255:1977,0.003,-0.021,0.973,13.123,20.569,3.601,-0.648,-1.126,85.974
 14:39:15.451,eb:33:2e:f9:57:b5, 2085-97-32 00:04:00:1937,0.007,-0.026,0.959,11.902,20.142,3.662,-0.522,-0.906,86.001
 14:39:15.451,eb:33:2e:f9:57:b5, 2085-97-23 00:252:255:1955,0.014,-0.013,0.95,10.376,17.395,3.784,-0.412,-0.72,86.034
 14:39:15.482,eb:33:2e:f9:57:b5, 2085-97-09 00:227:255:1983,0.024,-0.008,0.968,9.705,15.991,3.174,-0.313,-0.544,86.061
 14:39:15.482,eb:33:2e:f9:57:b5, 2085-97-45 00:248:255:1994,0.02,-0.008,0.98,9.705,14.282,2.747,-0.22,-0.39,86.089
 14:39:15.482,eb:33:2e:f9:57:b5, 2085-97-50 00:00:00:2013,0.023,-0.004,0.979,9.216,14.343,1.831,-0.121,-0.236,86.111
 14:39:15.482,eb:33:2e:f9:57:b5, 2085-97-40 00:253:255:2017,0.035,0.003,0.986,8.667,16.479,0.732,-0.033,-0.077,86.116
 14:39:15.511,eb:33:2e:f9:57:b5, 2085-97-80 00:21:00:2059,0.035,0.005,0.992,7.751,18.311,-0.549,0.055,0.11,86.116
 14:39:15.511,eb:33:2e:f9:57:b5, 2085-97-57 00:253:255:2035,0.028,0.004,1.009,7.507,21.423,-1.587,0.132,0.313,86.094
 14:39:15.511,eb:33:2e:f9:57:b5, 2085-97-52 00:11:00:2033,0.016,0.006,1,6.165,24.414,-2.258,0.203,0.555,86.072
 14:39:15.511,eb:33:2e:f9:57:b5, 2085-97-02 00:255:255:2044,-0.006,0.004,0.994,5.859,25.085,-3.601,0.264,0.802,86.039
 14:39:15.570,eb:33:2e:f9:57:b5, 2085-97-232 255:241:255:2042,-0.013,-0.002,0.994,6.47,24.109,-3.967,0.33,1.066,85.99
 14:39:15.570,eb:33:2e:f9:57:b5, 2085-97-212 255:244:255:2029,-0.054,-0.005,0.991,7.69,21.362,-4.456,0.406,1.291,85.946
 14:39:15.570,eb:33:2e:f9:57:b5, 2085-97-206 255:232:255:2061,-0.036,-0.024,1.015,9.766,17.7,-4.089,0.494,1.5,85.897
 14:39:15.570,eb:33:2e:f9:57:b5, 2085-97-176 255:217:255:2156,-0.019,-0.019,1.035,12.878,13.184,-4.333,0.615,1.648,85.853
 14:39:15.601,eb:33:2e:f9:57:b5, 2085-97-241 255:252:255:2124,-0.025,-0.006,1.036,17.395,8.972,-4.517,0.775,1.769,85.803
 14:39:15.601,eb:33:2e:f9:57:b5, 2085-97-144 255:163:255:2409,-0.049,-0.01,1.095,21.423,7.141,-4.944,0.967,1.846,85.754
 14:39:15.601,eb:33:2e:f9:57:b5, 2085-97-238 255:223:255:2333,-0.042,-0.046,1.187,28.809,8.545,-2.869,1.219,1.945,85.715
 14:39:15.601,eb:33:2e:f9:57:b5, 2085-97-196 255:223:255:2218,-0.021,-0.027,1.109,35.339,7.08,-2.93,1.549,2.021,85.688
 14:39:15.661,eb:33:2e:f9:57:b5, 2085-97-201 255:00:00:2164,-0.04,-0.007,1.066,39.734,4.578,-2.686,1.928,2.093,85.655
 14:39:15.661,eb:33:2e:f9:57:b5, 2085-97-165 255:249:255:2204,-0.047,-0.003,1.067,43.579,1.16,-2.502,2.351,2.126,85.633
 14:39:15.661,eb:33:2e:f9:57:b5, 2085-97-169 255:19:00:2187,-0.054,0.002,1.074,47.546,-1.953,-1.587,2.812,2.131,85.611
 14:39:15.661,eb:33:2e:f9:57:b5, 2085-97-148 255:07:00:2262,-0.067,0.005,1.092,51.697,-6.165,-0.671,3.307,2.087,85.594
 14:39:15.692,eb:33:2e:f9:57:b5, 2085-97-148 255:04:00:2352,-0.049,0,1.122,56.702,-9.094,0.305,3.856,2.021,85.589
 14:39:15.692,eb:33:2e:f9:57:b5, 2085-97-161 255:07:00:2436,-0.036,0.006,1.164,63.171,-11.658,1.282,4.46,1.917,85.594
 14:39:15.692,eb:33:2e:f9:57:b5, 2085-97-200 255:15:00:2577,-0.06,0.009,1.215,69.702,-11.536,2.747,5.131,1.813,85.605
 14:39:15.692,eb:33:2e:f9:57:b5, 2085-97-82 255:229:255:2655,-0.099,-0.018,1.273,79.102,-11.23,4.272,5.872,1.697,85.633
 14:39:15.721,eb:33:2e:f9:57:b5, 2085-97-43 255:193:255:2748,-0.07,-0.021,1.335,89.539,-11.963,7.69,6.724,1.593,85.677
 14:39:15.721,eb:33:2e:f9:57:b5, 2085-97-226 255:35:00:2828,0.026,-0.018,1.328,101.624,-14.832,11.169,7.679,1.445,85.759
 14:39:15.721,eb:33:2e:f9:57:b5, 2085-97-229 00:156:00:3137,0.249,0.033,1.449,114.197,-14.221,11.353,8.762,1.296,85.858
 14:39:15.721,eb:33:2e:f9:57:b5, 2085-97-75 02:199:00:3314,0.306,0.129,1.608,129.211,-7.69,7.019,9.976,1.176,85.935
 14:39:15.752,eb:33:2e:f9:57:b5, 2085-97-122 02:147:00:3468,0.312,0.09,1.671,146.667,7.507,-0.366,11.365,1.181,85.963
 14:39:15.752,eb:33:2e:f9:57:b5, 2085-97-58 02:94:00:3511,0.197,0.069,1.737,163.635,31.738,-5.676,12.931,1.39,85.963
 14:39:15.752,eb:33:2e:f9:57:b5, 2085-97-26 01:168:255:3531,0.111,0.02,1.678,178.894,48.523,-7.935,14.65,1.835,85.99
 14:39:15.752,eb:33:2e:f9:57:b5, 2085-97-211 00:132:255:3429,0.109,-0.056,1.717,200.745,59.814,-7.08,16.556,2.39,86.056
 14:39:15.840,eb:33:2e:f9:57:b5, 2085-97-90 01:24:00:3453,0.204,-0.042,1.667,223.267,60.913,-7.935,18.688,3.01,86.149
 14:39:15.840,eb:33:2e:f9:57:b5, 2085-97-218 01:167:255:3933,0.197,-0.005,1.776,247.375,56.763,-13.367,21.05,3.598,86.243
 14:39:15.840,eb:33:2e:f9:57:b5, 2085-97-186 01:65:255:4335,0.23,-0.05,2.058,274.658,57.068,-20.813,23.67,4.197,86.276
 14:39:15.840,eb:33:2e:f9:57:b5, 2085-97-206 01:106:255:4594,0.243,-0.128,2.137,306.091,59.814,-29.419,26.592,4.823,86.347
 14:39:15.842,eb:33:2e:f9:57:b5, 2085-97-187 02:108:00:5088,0.366,0.013,2.398,340.149,69.214,-40.588,29.833,5.57,86.325
 14:39:15.842,eb:33:2e:f9:57:b5, 2085-97-56 03:89:00:4968,0.365,0.062,2.421,371.582,75.012,-53.406,33.415,6.449,86.353
 14:39:15.842,eb:33:2e:f9:57:b5, 2085-97-235 01:210:00:5490,0.139,0.016,2.519,391.785,72.754,-65.491,37.238,7.405,86.259
 14:39:15.842,eb:33:2e:f9:57:b5, 2085-97-33 01:34:255:5975,0.25,0.013,2.974,396.24,89.661,-71.289,41.188,8.459,86.254
 14:39:15.900,eb:33:2e:f9:57:b5, 2085-97-14 02:51:254:5173,0.263,-0.178,2.688,407.776,104.004,-74.646,45.22,9.701,86.385
 14:39:15.900,eb:33:2e:f9:57:b5, 2085-97-107 02:112:253:5094,0.324,-0.264,2.473,420.532,94.849,-80.505,49.389,10.953,86.622
 14:39:15.900,eb:33:2e:f9:57:b5, 2085-97-24 03:247:251:4632,0.645,-0.456,2.423,429.138,94.299,-79.102,53.657,12.178,86.819
 14:39:15.900,eb:33:2e:f9:57:b5, 2085-97-136 06:108:251:3866,0.941,-0.64,2.059,432.251,102.173,-78.064,58.024,13.376,87.22
 14:39:15.931,eb:33:2e:f9:57:b5, 2085-97-61 08:147:248:2494,1.226,-0.757,1.594,425.781,96.558,-82.764,62.391,14.617,87.682
 14:39:15.931,eb:33:2e:f9:57:b5, 2085-97-178 10:238:247:-2169,0.652,-1.238,0.515,386.963,54.749,-84.534,66.555,15.71,88.039
 14:39:15.931,eb:33:2e:f9:57:b5, 2085-97-187 255:109:248:-4155,-0.074,-0.816,-2.206,243.958,-9.827,-103.149,69.719,16.732,87.918
 14:39:15.931,eb:33:2e:f9:57:b5, 2085-97-224 00:45:246:038,0.227,-1.211,-1.042,34.485,-69.824,-75.012,70.79,17.424,87.171
 14:39:16.052,eb:33:2e:f9:57:b5, 2085-97-219 01:168:247:1794,0.208,-1.129,0.579,-122.803,-59.143,-34.302,69.966,17.655,86.309
 14:39:16.052,eb:33:2e:f9:57:b5, 2085-97-127 01:121:248:2237,0.256,-0.983,1.023,-203.552,-12.207,-10.071,68.148,17.715,85.963
 14:39:16.052,eb:33:2e:f9:57:b5, 2085-97-142 02:38:250:1925,0.37,-0.866,1.091,-232.971,25.33,0.488,65.923,17.787,86.034
 14:39:16.052,eb:33:2e:f9:57:b5, 2085-113-58 00:20:236:-2010,0.4,-0.624,0.752,-240.234,30.823,-3.235,63.611,17.935,86.369
 14:39:16.052,eb:33:2e:f9:57:b5, 2085-97-88 03:27:252:765,0.432,-0.541,0.572,-239.99,24.841,-8.728,62.413,18.029,86.473
 14:39:16.052,eb:33:2e:f9:57:b5, 2085-97-124 03:110:252:156,0.434,-0.457,0.186,-239.502,2.625,-20.63,60.029,18.232,86.578
 14:39:16.052,eb:33:2e:f9:57:b5, 2085-97-53 03:77:252:206,0.357,-0.45,0.061,-238.159,-32.776,-33.936,57.546,18.386,86.27
 14:39:16.052,eb:33:2e:f9:57:b5, 2085-97-98 02:248:251:513,0.231,-0.483,0.18,-237.305,-65.857,-43.823,55.003,18.413,85.649
 14:39:16.056,eb:33:2e:f9:57:b5, 2085-97-83 01:130:251:817,0.102,-0.53,0.322,-243.225,-85.449,-45.715,52.35,18.303,84.721
 14:39:16.056,eb:33:2e:f9:57:b5, 2085-97-112 00:19:251:1113,0.027,-0.595,0.47,-256.897,-89.6,-38.879,49.609,18.056,83.793
 14:39:16.056,eb:33:2e:f9:57:b5, 2085-97-34 00:51:251:1379,0.032,-0.615,0.608,-275.208,-81.726,-25.757,46.708,17.704,82.914
 14:39:16.056,eb:33:2e:f9:57:b5, 2085-97-104 00:181:251:1582,0.074,-0.574,0.738,-290.588,-71.96,-12.024,43.709,17.287,82.293
 14:39:16.083,eb:33:2e:f9:57:b5, 2085-97-193 00:134:252:1594,0.122,-0.488,0.782,-300.72,-69.763,-1.404,40.6,16.798,81.777
 14:39:16.083,eb:33:2e:f9:57:b5, 2085-97-62 01:94:253:1692,0.184,-0.384,0.803,-305.603,-77.576,5.249,37.469,16.205,81.392
 14:39:16.083,eb:33:2e:f9:57:b5, 2085-97-154 01:20:254:1856,0.216,-0.28,0.865,-306.213,-89.966,8.423,34.294,15.469,80.964
 14:39:16.083,eb:33:2e:f9:57:b5, 2085-97-205 01:168:254:2078,0.219,-0.205,0.96,-301.086,-105.652,7.629,31.168,14.59,80.574
 14:39:16.112,eb:33:2e:f9:57:b5, 2085-97-157 01:35:255:2340,0.179,-0.134,1.074,-292.725,-120.85,4.639,28.087,13.557,80.074
 14:39:16.112,eb:33:2e:f9:57:b5, 2085-97-36 01:70:255:2706,0.11,-0.095,1.223,-284.119,-132.568,1.526,25.126,12.387,79.607
 14:39:16.112,eb:33:2e:f9:57:b5, 2085-97-188 00:10:255:2965,0.081,-0.107,1.394,-277.466,-136.536,1.099,22.231,11.129,79.091
 14:39:16.112,eb:33:2e:f9:57:b5, 2085-97-136 00:239:254:3073,0.049,-0.125,1.484,-276.55,-132.202,4.272,19.413,9.855,78.662
 14:39:16.170,eb:33:2e:f9:57:b5, 2085-97-139 00:253:254:3108,0.079,-0.146,1.526,-277.466,-127.869,10.498,16.589,8.586,78.354
 14:39:16.170,eb:33:2e:f9:57:b5, 2085-97-172 00:12:255:3239,0.098,-0.127,1.542,-276.978,-127.319,17.761,13.799,7.322,78.184
 14:39:16.170,eb:33:2e:f9:57:b5, 2085-97-236 00:69:255:3451,0.138,-0.105,1.633,-270.813,-130.737,25.696,11.03,6.01,78.151
 14:39:16.170,eb:33:2e:f9:57:b5, 2085-97-68 01:89:255:3602,0.171,-0.082,1.729,-261.414,-134.46,34.546,8.372,4.653,78.256
 14:39:16.201,eb:33:2e:f9:57:b5, 2085-97-145 01:41:255:3663,0.218,-0.089,1.782,-252.563,-140.442,43.762,5.779,3.246,78.514
 14:39:16.202,eb:33:2e:f9:57:b5, 2085-97-242 01:197:254:3652,0.264,-0.125,1.787,-251.465,-151.55,53.406,3.257,1.758,78.92
 14:39:16.202,eb:33:2e:f9:57:b5, 2085-97-81 02:84:254:3781,0.312,-0.182,1.794,-263.306,-164.49,63.599,0.632,0.165,79.492
 14:39:16.202,eb:33:2e:f9:57:b5, 2085-97-144 02:22:254:4180,0.328,-0.228,1.921,-283.569,-175.72,74.036,-2.17,-1.522,80.244
 14:39:16.320,eb:33:2e:f9:57:b5, 2085-97-175 02:50:254:4754,0.337,-0.237,2.18,-303.04,-181.519,84.351,-5.257,-3.246,81.205
 14:39:16.320,eb:33:2e:f9:57:b5, 2085-97-161 02:98:254:5433,0.315,-0.214,2.479,-314.941,-182.129,95.093,-8.525,-4.922,82.365
 14:39:16.320,eb:33:2e:f9:57:b5, 2085-97-110 02:36:255:6009,0.285,-0.174,2.817,-317.871,-174.805,108.643,-11.959,-6.476,83.749
 14:39:16.320,eb:33:2e:f9:57:b5, 2085-97-205 01:64:01:5855,0.179,0.009,2.97,-315.613,-156.677,124.268,-15.441,-7.773,85.27
 14:39:16.321,eb:33:2e:f9:57:b5, 2085-97-159 01:230:04:5207,0.245,0.354,2.642,-301.819,-156.067,130.127,-18.935,-8.811,87.023
 14:39:16.321,eb:33:2e:f9:57:b5, 2085-97-01 02:172:08:5614,0.229,0.855,2.62,-283.447,-169.8,123.596,-22.28,-9.882,88.808
 14:39:16.321,eb:33:2e:f9:57:b5, 2085-97-107 02:90:14:5798,0.481,1.386,2.778,-260.193,-148.254,106.567,-25.455,-10.838,90.593
 14:39:16.321,eb:33:2e:f9:57:b5, 2085-97-118 04:139:24:5419,0.542,2.42,2.882,-228.149,-93.933,64.819,-28.268,-11.508,91.923
 14:39:16.323,eb:33:2e:f9:57:b5, 2085-97-169 01:146:34:2683,-0.459,3.744,2.111,-185.242,-72.876,-3.479,-30.52,-12.008,92.587
 14:39:16.323,eb:33:2e:f9:57:b5, 2085-97-227 245:67:36:1351,-2.005,4.604,0.665,-126.282,-171.387,-77.148,-32.141,-13.255,92.791
 14:39:16.323,eb:33:2e:f9:57:b5, 2085-97-71 235:12:30:4909,-2.843,4.216,1.336,-53.162,-255.127,-103.821,-33.173,-15.683,93.285
 14:39:16.323,eb:33:2e:f9:57:b5, 2085-97-115 233:150:20:8395,-2.525,3.152,3.528,29.724,-166.199,-74.158,-33.442,-18.04,93.774
 14:39:16.352,eb:33:2e:f9:57:b5, 2085-97-83 240:224:13:6217,-1.33,2.082,3.762,74.219,67.81,-9.644,-32.805,-18.572,93.658
 14:39:16.352,eb:33:2e:f9:57:b5, 2085-97-22 250:91:12:4029,1.875,1.548,2.498,86.731,218.201,35.156,-31.69,-17.133,92.796
 14:39:16.352,eb:33:2e:f9:57:b5, 2085-97-99 05:54:01:7923,-0.136,2.552,4.977,185.547,229.187,-19.714,-30.119,-14.98,91.648
 14:39:16.352,eb:33:2e:f9:57:b5, 2085-97-94 07:179:255:-026,0.368,-0.327,-0.045,211.975,223.816,-10.498,-27.526,-13.019,90.253
 14:39:16.411,eb:33:2e:f9:57:b5, 2085-97-150 02:75:248:1851,0.208,-0.822,0.79,210.754,181.641,2.869,-25.181,-11.354,89.253
 14:39:16.411,eb:33:2e:f9:57:b5, 2085-97-90 01:110:244:2887,0.114,-1.601,0.964,237.122,131.104,11.292,-22.791,-9.91,88.583
 14:39:16.411,eb:33:2e:f9:57:b5, 2085-97-77 00:127:250:2759,-0.105,-1.049,1.454,281.616,113.892,29.297,-20.11,-8.707,88.308
 14:39:16.411,eb:33:2e:f9:57:b5, 2085-97-93 254:206:255:2833,-0.278,-0.407,1.155,290.405,91.919,42.603,-17.188,-7.635,88.303
 14:39:16.440,eb:33:2e:f9:57:b5, 2085-97-244 252:173:02:2457,-0.359,0.192,1.192,248.474,100.708,53.284,-14.513,-6.52,88.473
 14:39:16.440,eb:33:2e:f9:57:b5, 2085-97-251 253:10:03:2433,-0.072,0.417,1.268,190.369,87.952,49.561,-12.393,-5.477,88.753
 14:39:16.440,eb:33:2e:f9:57:b5, 2085-97-206 255:57:00:2190,-0.159,0.229,1.159,143.005,66.711,27.161,-10.8,-4.631,88.962
 14:39:16.440,eb:33:2e:f9:57:b5, 2085-97-181 253:34:254:1492,-0.169,-0.168,0.877,133.545,45.593,4.822,-9.459,-4.048,88.984
 14:39:16.470,eb:33:2e:f9:57:b5, 2085-97-134 00:215:254:2083,0.261,-0.208,0.743,147.339,7.385,-7.629,-8.036,-3.79,88.907
 14:39:16.470,eb:33:2e:f9:57:b5, 2085-97-212 02:14:00:2393,0.337,-0.034,1.138,135.681,8.545,-7.385,-6.597,-3.763,88.824
 14:39:16.470,eb:33:2e:f9:57:b5, 2085-97-156 01:86:01:2401,0.188,0.033,1.169,113.953,36.987,-0.549,-5.339,-3.527,88.759
 14:39:16.470,eb:33:2e:f9:57:b5, 2085-97-34 01:123:01:2270,0.08,0.274,1.089,71.472,43.945,0.366,-4.427,-3.098,88.715
 14:39:16.530,eb:33:2e:f9:57:b5, 2085-97-50 00:68:01:2007,-0.04,0.25,1.063,42.786,41.931,-3.662,-3.862,-2.653,88.66
 14:39:16.530,eb:33:2e:f9:57:b5, 2085-97-171 255:245:255:1864,0,0.053,0.931,29.724,28.503,-7.812,-3.51,-2.307,88.566
 14:39:16.530,eb:33:2e:f9:57:b5, 2085-97-51 00:221:255:1981,0.028,-0.037,0.944,25.391,18.066,-7.568,-3.219,-2.076,88.467
 14:39:16.530,eb:33:2e:f9:57:b5, 2085-97-247 255:53:00:1951,-0.018,0.013,0.972,19.592,13.733,-6.836,-2.988,-1.928,88.385
 14:39:16.561,eb:33:2e:f9:57:b5, 2085-97-31 00:180:255:2043,0.063,-0.002,0.955,14.465,7.935,-5.127,-2.807,-1.813,88.308
 14:39:16.561,eb:33:2e:f9:57:b5, 2085-97-191 00:124:255:2215,0.096,-0.058,1.046,15.259,7.568,-3.784,-2.659,-1.741,88.264
 14:39:16.561,eb:33:2e:f9:57:b5, 2085-97-135 00:149:255:2174,0.041,-0.06,1.084,17.456,11.658,-3.174,-2.477,-1.637,88.215
 14:39:16.561,eb:33:2e:f9:57:b5, 2085-97-32 00:167:255:2020,0.007,-0.042,1.022,17.151,13,-0.916,-2.302,-1.505,88.187
 14:39:16.592,eb:33:2e:f9:57:b5, 2085-97-39 00:166:255:2013,0.042,-0.045,0.971,16.235,8.667,0.183,-2.126,-1.384,88.176
 14:39:16.592,eb:33:2e:f9:57:b5, 2085-97-127 00:228:255:2082,0.061,-0.029,0.999,15.198,7.08,0.488,-1.967,-1.313,88.176
 14:39:16.592,eb:33:2e:f9:57:b5, 2085-97-110 00:190:255:2100,0.047,-0.019,1.023,14.343,9.46,0.061,-1.813,-1.214,88.171
 14:39:16.592,eb:33:2e:f9:57:b5, 2085-97-100 00:153:255:2125,0.046,-0.048,1.037,15.991,10.62,0.061,-1.664,-1.11,88.165
 14:39:16.651,eb:33:2e:f9:57:b5, 2085-97-77 00:152:255:2125,0.034,-0.051,1.044,18.005,11.719,0.549,-1.483,-0.983,88.16
 14:39:16.651,eb:33:2e:f9:57:b5, 2085-97-60 00:166:255:2085,0.029,-0.046,1.03,19.348,12.329,1.404,-1.296,-0.862,88.165
 14:39:16.651,eb:33:2e:f9:57:b5, 2085-97-54 00:214:255:2029,0.025,-0.029,1.002,19.226,11.963,1.77,-1.093,-0.725,88.176
 14:39:16.651,eb:33:2e:f9:57:b5, 2085-97-58 00:244:255:1988,0.038,-0.013,0.98,17.517,11.292,2.014,-0.912,-0.61,88.193
 14:39:16.682,eb:33:2e:f9:57:b5, 2085-97-67 00:226:255:2003,0.03,-0.004,0.977,15.869,10.986,1.892,-0.736,-0.483,88.204
 14:39:16.682,eb:33:2e:f9:57:b5, 2085-97-52 00:221:255:2003,0.019,-0.015,0.982,14.282,11.353,2.075,-0.588,-0.374,88.22
 14:39:16.682,eb:33:2e:f9:57:b5, 2085-97-41 00:218:255:2012,0.023,-0.021,0.982,13.184,10.864,2.319,-0.445,-0.247,88.237
 14:39:16.682,eb:33:2e:f9:57:b5, 2085-97-36 00:239:255:1976,0.026,-0.015,0.976,11.78,10.071,2.563,-0.324,-0.143,88.259
 14:39:16.741,eb:33:2e:f9:57:b5, 2085-97-31 00:244:255:1962,0.015,0,0.972,10.559,9.155,2.319,-0.203,-0.033,88.281
 14:39:16.741,eb:33:2e:f9:57:b5, 2085-97-24 00:241:255:1980,0.011,-0.002,0.963,9.216,7.568,2.38,-0.11,0.055,88.303
 14:39:16.741,eb:33:2e:f9:57:b5, 2085-113-81 00:53:164:-529,0.013,-0.013,0.97,8.484,6.226,2.319,-0.016,0.137,88.319
 14:39:16.741,eb:33:2e:f9:57:b5, 2085-97-38 00:254:255:2012,0.023,-0.006,0.974,8.362,5.676,2.258,0.027,0.165,88.33
 14:39:16.741,eb:33:2e:f9:57:b5, 2085-97-47 00:240:255:2021,0.026,-0.002,0.984,8.179,5.493,1.831,0.104,0.22,88.352
 14:39:16.800,eb:33:2e:f9:57:b5, 2085-97-61 00:12:00:2024,0.031,-0.003,0.988,7.568,6.104,1.648,0.192,0.291,88.363
 14:39:16.800,eb:33:2e:f9:57:b5, 2085-97-52 00:19:00:2012,0.029,0.008,0.988,7.141,7.507,1.038,0.264,0.363,88.374
 14:39:16.800,eb:33:2e:f9:57:b5, 2085-97-57 00:15:00:2034,0.026,0.01,0.989,6.592,8.85,0.488,0.341,0.456,88.38
 14:39:16.800,eb:33:2e:f9:57:b5, 2085-97-58 00:09:00:2060,0.019,0.004,1,6.348,10.498,0,0.406,0.555,88.38
 14:39:16.802,eb:33:2e:f9:57:b5, 2085-97-49 00:08:00:2065,0.018,0,1.011,6.409,12.756,-0.122,0.478,0.687,88.374
 14:39:16.802,eb:33:2e:f9:57:b5, 2085-97-17 00:244:255:2048,0.001,-0.002,1.013,7.08,14.771,-0.366,0.544,0.829,88.369
 14:39:16.802,eb:33:2e:f9:57:b5, 2085-97-246 255:251:255:2053,-0.004,-0.001,0.996,7.202,14.16,-0.427,0.626,0.983,88.363
 14:39:16.802,eb:33:2e:f9:57:b5, 2085-97-238 255:244:255:2057,-0.003,-0.005,1.002,8.362,13.55,-0.488,0.703,1.121,88.358
 14:39:16.863,eb:33:2e:f9:57:b5, 2085-97-228 255:244:255:2081,-0.01,-0.001,1.016,9.46,14.221,-0.305,0.802,1.274,88.347
 14:39:16.863,eb:33:2e:f9:57:b5, 2085-97-225 255:244:255:2075,-0.01,-0.004,1.008,11.047,13.123,0,0.906,1.412,88.347
 14:39:16.863,eb:33:2e:f9:57:b5, 2085-97-224 255:253:255:2103,-0.01,0.003,1.02,12.268,12.329,-0.122,1.027,1.549,88.341
 14:39:16.863,eb:33:2e:f9:57:b5, 2085-97-226 255:02:00:2095,-0.007,0.006,1.008,13.062,11.841,-0.061,1.159,1.675,88.341
 14:39:16.891,eb:33:2e:f9:57:b5, 2085-97-07 00:14:00:2156,0.009,0.002,1.031,13.977,11.047,-0.183,1.296,1.802,88.336
 14:39:16.891,eb:33:2e:f9:57:b5, 2085-97-04 00:15:00:2128,-0.011,0.01,1.047,13.672,15.32,-0.488,1.434,1.934,88.33
 14:39:16.891,eb:33:2e:f9:57:b5, 2085-97-240 255:246:255:2270,-0.027,0.003,1.081,16.235,15.137,-0.977,1.588,2.104,88.325
 14:39:16.891,eb:33:2e:f9:57:b5, 2085-97-187 255:23:00:2074,-0.024,-0.003,1.056,20.081,15.442,-0.061,1.774,2.263,88.319
 14:39:16.921,eb:33:2e:f9:57:b5, 2085-97-170 255:250:255:2240,-0.013,0.014,1.042,22.034,11.353,0.916,1.989,2.406,88.325
 14:39:16.921,eb:33:2e:f9:57:b5, 2085-97-171 255:164:255:2545,-0.046,0.002,1.152,31.372,2.441,0.854,2.252,2.483,88.336
 14:39:16.921,eb:33:2e:f9:57:b5, 2085-97-203 255:244:255:2339,-0.046,-0.041,1.202,42.725,-0.732,2.197,2.642,2.499,88.347
 14:39:16.921,eb:33:2e:f9:57:b5, 2085-97-128 255:200:255:2434,-0.063,-0.013,1.15,49.683,-4.578,2.747,3.104,2.466,88.369
 14:39:16.981,eb:33:2e:f9:57:b5, 2085-97-142 255:188:255:2564,-0.045,-0.034,1.225,58.167,-8.179,5.066,3.653,2.411,88.407
 14:39:16.981,eb:33:2e:f9:57:b5, 2085-97-111 255:167:255:2634,-0.094,-0.025,1.252,68.054,-11.475,6.836,4.285,2.313,88.462
 14:39:16.981,eb:33:2e:f9:57:b5, 2085-97-66 255:137:255:2870,-0.091,-0.062,1.339,79.956,-14.893,9.583,5.037,2.186,88.533
 14:39:16.981,eb:33:2e:f9:57:b5, 2085-97-148 255:191:255:3049,-0.012,-0.056,1.418,94.91,-17.761,12.146,5.911,2.016,88.632
 14:39:17.011,eb:33:2e:f9:57:b5, 2085-97-133 00:24:00:3125,0.126,-0.014,1.544,113.403,-17.151,12.634,6.965,1.835,88.737
 14:39:17.011,eb:33:2e:f9:57:b5, 2085-97-113 01:41:00:3183,0.243,0.046,1.513,130.066,-15.381,10.681,8.19,1.659,88.835
 14:39:17.011,eb:33:2e:f9:57:b5, 2085-97-111 02:160:00:3341,0.352,0.058,1.581,144.714,-6.531,5.249,9.575,1.555,88.901
 14:39:17.011,eb:33:2e:f9:57:b5, 2085-97-90 02:54:00:3706,0.28,0.074,1.731,160.522,9.827,-2.991,11.107,1.566,88.912
 14:39:17.040,eb:33:2e:f9:57:b5, 2085-97-67 02:205:255:3597,0.259,-0.02,1.83,175.72,39.062,-5.676,12.799,1.84,88.907
 14:39:17.040,eb:33:2e:f9:57:b5, 2085-97-02 02:197:255:3589,0.242,-0.015,1.719,196.472,54.382,-9.644,14.667,2.335,88.934
 14:39:17.040,eb:33:2e:f9:57:b5, 2085-97-245 01:62:255:3775,0.248,-0.054,1.819,217.773,69.092,-13.672,16.754,2.977,88.973
 14:39:17.040,eb:33:2e:f9:57:b5, 2085-97-239 01:135:255:3903,0.255,-0.096,1.863,240.967,82.153,-15.93,19.056,3.757,89.05
 14:39:17.102,eb:33:2e:f9:57:b5, 2085-97-00 02:08:255:4334,0.205,-0.071,1.993,267.883,80.933,-23.071,21.616,4.603,89.132
 14:39:17.102,eb:33:2e:f9:57:b5, 2085-97-139 01:180:254:4813,0.181,-0.148,2.202,297.729,80.872,-28.87,24.456,5.449,89.253
 14:39:17.102,eb:33:2e:f9:57:b5, 2085-97-115 02:102:254:5149,0.435,-0.114,2.516,330.444,100.83,-36.438,27.62,6.422,89.33
 14:39:17.102,eb:33:2e:f9:57:b5, 2085-97-74 04:119:255:5072,0.526,-0.136,2.452,360.779,114.624,-46.57,31.102,7.586,89.55
 14:39:17.131,eb:33:2e:f9:57:b5, 2085-97-19 03:211:255:5624,0.183,0.001,2.563,385.01,114.746,-63.049,34.865,8.866,89.681
 14:39:17.131,eb:33:2e:f9:57:b5, 2085-97-202 01:79:255:6365,0.282,-0.015,3.043,391.785,133.24,-69.153,38.782,10.25,89.901
 14:39:17.131,eb:33:2e:f9:57:b5, 2085-97-58 02:90:253:5544,0.345,-0.297,2.902,403.137,156.616,-68.359,42.808,11.838,90.319
 14:39:17.131,eb:33:2e:f9:57:b5, 2085-97-106 03:163:253:5746,0.501,-0.273,2.73,409.363,153.625,-72.327,46.961,13.447,90.939
 14:39:17.191,eb:33:2e:f9:57:b5, 2085-97-247 04:115:251:4902,0.772,-0.45,2.625,417.175,162.842,-70.74,51.218,15.046,91.637
 14:39:17.191,eb:33:2e:f9:57:b5, 2085-97-166 06:45:250:4014,0.996,-0.693,2.104,417.786,171.57,-71.655,55.591,16.639,92.604
 14:39:17.191,eb:33:2e:f9:57:b5, 2085-97-145 09:217:244:4105,1.597,-1.04,2.035,408.752,181.763,-64.148,59.974,18.193,93.719
 14:39:17.191,eb:33:2e:f9:57:b5, 2085-97-105 14:135:245:-2470,0.858,-1.907,1.426,378.479,207.52,-50.598,64.319,19.611,95.219
 14:39:17.220,eb:33:2e:f9:57:b5, 2085-97-30 00:190:245:-6224,0.085,-1.081,-3.191,213.684,125.244,-48.401,67.764,20.847,96.718
 14:39:17.220,eb:33:2e:f9:57:b5, 2085-97-204 02:158:246:-1242,0.553,-1.334,-1.733,5.066,5.249,-13.916,68.796,21.346,97.152
 14:39:17.220,eb:33:2e:f9:57:b5, 2085-97-217 04:248:248:1589,0.56,-0.974,0.248,-130.371,-44.006,13.611,67.961,21.204,96.861
 14:39:17.220,eb:33:2e:f9:57:b5, 2085-97-06 04:42:249:2491,0.482,-0.857,1.079,-206.726,-16.968,24.78,66.121,20.885,96.691
 14:39:17.251,eb:33:2e:f9:57:b5, 2085-97-79 04:17:250:2344,0.595,-0.842,1.254,-231.995,23.926,27.344,63.918,20.676,96.866
 14:39:17.251,eb:33:2e:f9:57:b5, 2085-97-214 04:62:252:1438,0.618,-0.602,0.929,-230.835,38.452,15.503,61.716,20.649,97.35
 14:39:17.251,eb:33:2e:f9:57:b5, 2085-97-213 04:52:253:618,0.573,-0.379,0.509,-223.755,23.56,-1.221,59.524,20.759,97.663
 14:39:17.251,eb:33:2e:f9:57:b5, 2085-97-84 04:210:252:170,0.504,-0.364,0.155,-219.238,-9.766,-18.555,57.31,20.885,97.707
 14:39:17.281,eb:33:2e:f9:57:b5, 2085-97-185 03:65:252:191,0.416,-0.436,0.064,-221.191,-49.377,-31.799,54.976,20.923,97.278
 14:39:17.281,eb:33:2e:f9:57:b5, 2085-97-205 02:206:251:477,0.278,-0.495,0.15,-234.375,-81.055,-37.537,52.471,20.792,96.537
 14:39:17.281,eb:33:2e:f9:57:b5, 2085-97-192 01:72:251:944,0.179,-0.557,0.337,-256.958,-96.619,-34.607,49.713,20.49,95.565
 14:39:17.281,eb:33:2e:f9:57:b5, 2085-97-80 01:46:251:1467,0.169,-0.612,0.597,-281.311,-93.506,-23.56,46.741,20.045,94.675
 14:39:17.340,eb:33:2e:f9:57:b5, 2085-97-85 01:217:251:1718,0.187,-0.562,0.789,-301.331,-77.698,-9.827,43.599,19.545,93.939
 14:39:17.340,eb:33:2e:f9:57:b5, 2085-97-153 01:173:252:1759,0.229,-0.465,0.855,-312.012,-67.261,2.136,40.386,19.028,93.488
 14:39:17.341,eb:33:2e:f9:57:b5, 2085-97-25 02:127:253:1726,0.292,-0.359,0.847,-312.988,-69.336,11.719,37.139,18.452,93.126
 14:39:17.341,eb:33:2e:f9:57:b5, 2085-97-114 02:254:253:1751,0.317,-0.274,0.841,-308.96,-82.336,17.517,33.953,17.743,92.873
 14:39:17.401,eb:33:2e:f9:57:b5, 2085-97-154 02:72:254:1850,0.331,-0.231,0.874,-304.688,-102.051,21.667,30.795,16.842,92.554
 14:39:17.401,eb:33:2e:f9:57:b5, 2085-97-169 02:151:254:2098,0.316,-0.196,0.951,-303.284,-120.728,24.414,27.691,15.738,92.285
 14:39:17.401,eb:33:2e:f9:57:b5, 2085-97-103 02:191:254:2506,0.3,-0.164,1.116,-304.199,-134.277,26.367,24.571,14.464,91.967
 14:39:17.401,eb:33:2e:f9:57:b5, 2085-97-97 02:221:254:2927,0.287,-0.151,1.339,-304.016,-138.855,28.137,21.484,13.085,91.769
 14:39:17.401,eb:33:2e:f9:57:b5, 2085-97-46 02:25:255:3112,0.262,-0.127,1.485,-302.49,-136.78,30.64,18.402,11.678,91.604
 14:39:17.401,eb:33:2e:f9:57:b5, 2085-97-11 02:60:255:3230,0.254,-0.103,1.548,-300.232,-133.545,34.973,15.386,10.294,91.626
 14:39:17.401,eb:33:2e:f9:57:b5, 2085-97-05 02:99:255:3400,0.257,-0.088,1.615,-295.105,-131.653,40.71,12.393,8.915,91.708
 14:39:17.401,eb:33:2e:f9:57:b5, 2085-97-16 02:192:255:3668,0.264,-0.055,1.731,-284.119,-131.653,47.485,9.509,7.542,91.923
 14:39:17.460,eb:33:2e:f9:57:b5, 2085-97-51 02:23:00:3893,0.296,-0.006,1.848,-266.663,-131.836,55.298,6.757,6.169,92.28
 14:39:17.460,eb:33:2e:f9:57:b5, 2085-97-143 02:61:00:3761,0.344,0.016,1.886,-249.329,-138.123,63.232,4.202,4.79,92.78
 14:39:17.460,eb:33:2e:f9:57:b5, 2085-97-216 02:07:00:3893,0.36,0.02,1.889,-239.99,-146.606,72.266,1.747,3.351,93.422
 14:39:17.460,eb:33:2e:f9:57:b5, 2085-97-242 02:202:255:4091,0.379,-0.009,1.936,-246.094,-157.776,81.787,-0.692,1.829,94.213
 14:39:17.521,eb:33:2e:f9:57:b5, 2085-97-42 03:162:255:4439,0.407,-0.039,2.071,-263.428,-163.94,91.125,-3.318,0.258,95.18
 14:39:17.521,eb:33:2e:f9:57:b5, 2085-97-71 03:94:255:4973,0.396,-0.056,2.29,-283.997,-167.419,101.196,-6.158,-1.291,96.317
 14:39:17.521,eb:33:2e:f9:57:b5, 2085-97-09 03:33:255:5544,0.377,-0.107,2.576,-301.086,-169.006,114.258,-9.261,-2.796,97.657
 14:39:17.521,eb:33:2e:f9:57:b5, 2085-97-88 03:178:00:5803,0.46,-0.056,2.791,-312.927,-164.856,131.348,-12.546,-4.169,99.229
 14:39:17.523,eb:33:2e:f9:57:b5, 2085-97-86 03:119:03:5250,0.445,0.262,2.793,-318.848,-155.151,145.325,-16.018,-5.339,101.036
 14:39:17.523,eb:33:2e:f9:57:b5, 2085-97-98 06:168:07:7359,0.763,0.688,2.268,-301.086,-174.866,135.071,-19.457,-6.405,102.931
 14:39:17.523,eb:33:2e:f9:57:b5, 2085-97-79 04:175:15:2086,0.269,1.026,4.332,-258.24,-112.549,124.634,-22.511,-7.608,104.744
 14:39:17.523,eb:33:2e:f9:57:b5, 2085-97-37 00:195:15:5040,0.02,1.916,2.097,-272.278,-210.083,71.472,-25.549,-9.025,106.436
 14:39:17.580,eb:33:2e:f9:57:b5, 2085-97-185 255:207:23:6481,-0.221,2.337,2.873,-260.681,-166.016,41.87,-28.586,-10.448,107.88
 14:39:17.580,eb:33:2e:f9:57:b5, 2085-97-41 251:41:36:4424,-1.083,3.787,2.935,-218.933,-95.52,1.831,-31.207,-11.409,108.732
 14:39:17.581,eb:33:2e:f9:57:b5, 2085-97-57 243:188:40:2340,-2.046,4.999,1.377,-142.273,-121.826,-49.866,-33.107,-12.393,109.078
 14:39:17.581,eb:33:2e:f9:57:b5, 2085-97-00 237:157:33:4991,-2.399,4.792,1.617,-43.213,-174.866,-78.369,-34.096,-14.084,109.363
 14:39:17.701,eb:33:2e:f9:57:b5, 2085-97-201 236:120:21:7267,-2.104,3.434,3.295,55.786,-89.417,-66.162,-34.041,-15.677,109.594
 14:39:17.701,eb:33:2e:f9:57:b5, 2085-97-78 243:18:13:5477,-1.175,2.125,3.034,104.492,79.956,-17.7,-33.041,-15.842,109.155
 14:39:17.701,eb:33:2e:f9:57:b5, 2085-97-20 250:55:10:3559,-0.347,1.36,2.192,116.028,195.679,22.583,-31.624,-14.551,108.314
 14:39:17.701,eb:33:2e:f9:57:b5, 2085-97-94 17:195:09:10320,0.771,1.3,1.264,116.516,207.764,36.194,-30.196,-12.579,107.353
 14:39:17.703,eb:33:2e:f9:57:b5, 2085-97-110 00:58:251:-769,0.709,-1.732,4.265,224.731,252.075,35.889,-28.026,-10.668,106.381
 14:39:17.703,eb:33:2e:f9:57:b5, 2085-97-176 02:09:247:1474,0.197,-0.296,-0.107,207.397,150.269,20.02,-25.763,-8.789,105.683
 14:39:17.703,eb:33:2e:f9:57:b5, 2085-113-81 00:87:178:1645,-0.055,-1.78,0.724,254.333,104.126,23.315,-23.362,-7.509,105.304
 14:39:17.703,eb:33:2e:f9:57:b5, 2085-97-252 255:160:247:3029,-0.057,-1.507,1.31,281.982,90.027,24.658,-21.989,-7.026,105.222
 14:39:17.705,eb:33:2e:f9:57:b5, 2085-97-210 254:161:254:3175,-0.212,-0.542,1.285,317.2,70.862,26.001,-18.913,-6.18,105.156
 14:39:17.705,eb:33:2e:f9:57:b5, 2085-97-136 253:187:02:2674,-0.396,0.057,1.404,287.903,89.294,31.921,-15.859,-5.334,105.167
 14:39:17.705,eb:33:2e:f9:57:b5, 2085-97-171 252:45:03:2263,-0.242,0.405,1.275,224.609,93.384,36.804,-13.332,-4.329,105.26
 14:39:17.705,eb:33:2e:f9:57:b5, 2085-97-216 254:241:01:2354,-0.12,0.394,1.179,161.377,67.932,22.583,-11.464,-3.472,105.375
 14:39:17.731,eb:33:2e:f9:57:b5, 2085-97-161 254:222:254:2005,-0.081,0.031,1.097,131.226,44.25,-0.916,-10.031,-2.911,105.342
 14:39:17.731,eb:33:2e:f9:57:b5, 2085-97-145 00:79:254:2043,0.188,-0.234,0.934,131.775,18.86,-10.254,-8.712,-2.637,105.216
 14:39:17.731,eb:33:2e:f9:57:b5, 2085-97-16 02:53:255:2167,0.243,-0.157,1.016,129.639,18.433,-8.728,-7.366,-2.477,105.084
 14:39:17.731,eb:33:2e:f9:57:b5, 2085-97-154 01:91:00:2129,0.094,-0.002,1.067,111.023,35.95,3.723,-6.163,-2.208,105.029
 14:39:17.762,eb:33:2e:f9:57:b5, 2085-97-92 01:76:02:2283,0.164,0.293,1.096,76.904,42.053,7.202,-5.191,-1.769,105.046
 14:39:17.762,eb:33:2e:f9:57:b5, 2085-97-104 00:196:01:2103,-0.09,0.268,1.104,45.532,43.518,-0.549,-4.609,-1.346,105.04
 14:39:17.762,eb:33:2e:f9:57:b5, 2085-97-48 255:190:255:1868,-0.037,0.086,0.917,31.25,31.494,-9.888,-4.224,-0.95,104.925
 14:39:17.762,eb:33:2e:f9:57:b5, 2085-97-48 00:188:255:2082,0.041,-0.065,0.96,27.283,17.273,-7.263,-3.928,-0.736,104.815
 14:39:17.881,eb:33:2e:f9:57:b5, 2085-97-11 00:17:00:1985,-0.023,-0.003,1.018,22.095,16.113,-4.822,-3.658,-0.571,104.738
 14:39:17.881,eb:33:2e:f9:57:b5, 2085-97-232 255:32:00:1938,0.019,0.013,0.936,15.625,10.559,-4.883,-3.472,-0.434,104.683
 14:39:17.881,eb:33:2e:f9:57:b5, 2085-97-123 00:188:255:2121,0.085,-0.004,0.987,10.498,5.676,-4.333,-3.323,-0.357,104.623
 14:39:17.881,eb:33:2e:f9:57:b5, 2085-97-155 00:122:255:2209,0.054,-0.053,1.074,9.766,10.498,-2.502,-3.224,-0.28,104.584
 14:39:17.883,eb:33:2e:f9:57:b5, 2085-97-58 00:109:255:2117,0.02,-0.068,1.061,12.207,14.893,-1.77,-3.098,-0.137,104.546
 14:39:17.883,eb:33:2e:f9:57:b5, 2085-97-50 00:150:255:2085,0.029,-0.064,1.021,14.16,14.16,-0.61,-2.961,0.005,104.524
 14:39:17.883,eb:33:2e:f9:57:b5, 2085-97-59 00:146:255:2092,0.014,-0.047,1.019,14.709,14.282,0.366,-2.802,0.159,104.507
 14:39:17.883,eb:33:2e:f9:57:b5, 2085-97-12 00:161:255:2060,-0.004,-0.056,1.012,15.747,14.221,0.793,-2.653,0.302,104.507
 14:39:17.885,eb:33:2e:f9:57:b5, 2085-97-241 255:140:255:2045,0,-0.051,1.001,16.479,12.512,1.526,-2.477,0.45,104.502
 14:39:17.885,eb:33:2e:f9:57:b5, 2085-97-50 00:169:255:2088,0.04,-0.051,1.001,17.09,10.132,2.502,-2.307,0.56,104.518
 14:39:17.885,eb:33:2e:f9:57:b5, 2085-97-100 00:175:255:2140,0.045,-0.041,1.034,18.86,10.742,1.465,-2.115,0.676,104.529
 14:39:17.885,eb:33:2e:f9:57:b5, 2085-97-72 00:187:255:2103,0.02,-0.034,1.039,20.264,12.512,0.671,-1.917,0.791,104.529
 14:39:17.970,eb:33:2e:f9:57:b5, 2085-97-22 00:178:255:2029,0.004,-0.04,1.007,20.569,13.245,0.671,-1.697,0.939,104.524
 14:39:17.970,eb:33:2e:f9:57:b5, 2085-97-250 255:221:255:1971,-0.001,-0.026,0.972,19.531,11.841,1.221,-1.5,1.06,104.529
 14:39:17.970,eb:33:2e:f9:57:b5, 2085-97-242 255:239:255:1938,-0.004,-0.009,0.958,17.151,10.01,1.526,-1.302,1.181,104.535
 14:39:17.970,eb:33:2e:f9:57:b5, 2085-97-26 00:246:255:1974,0.014,-0.013,0.95,14.282,7.568,1.953,-1.148,1.269,104.551
 14:39:17.973,eb:33:2e:f9:57:b5, 2085-97-29 00:248:255:1971,0.016,-0.008,0.955,11.963,6.714,1.709,-1.005,1.351,104.557
 14:39:17.973,eb:33:2e:f9:57:b5, 2085-97-15 00:249:255:1968,0.003,0.001,0.962,10.071,6.836,1.343,-0.895,1.423,104.573
 14:39:17.973,eb:33:2e:f9:57:b5, 2085-97-08 00:232:255:1974,0.003,-0.01,0.963,8.545,6.287,1.282,-0.791,1.5,104.579
 14:39:17.973,eb:33:2e:f9:57:b5, 2085-97-06 00:237:255:1988,0.003,-0.008,0.965,7.446,5.676,1.587,-0.714,1.56,104.59
 14:39:18.001,eb:33:2e:f9:57:b5, 2085-97-14 00:248:255:1995,0.001,-0.005,0.97,6.897,5.005,1.465,-0.632,1.62,104.601
 14:39:18.001,eb:33:2e:f9:57:b5, 2085-97-14 00:236:255:2014,0.016,-0.008,0.976,6.348,4.761,1.343,-0.566,1.67,104.612
 14:39:18.001,eb:33:2e:f9:57:b5, 2085-97-42 00:00:00:2035,0.019,-0.003,0.99,6.226,4.883,1.099,-0.489,1.73,104.623
 14:39:18.001,eb:33:2e:f9:57:b5, 2085-97-31 00:248:255:2052,0.018,-0.001,0.997,6.104,6.592,0.549,-0.428,1.785,104.628
 14:39:18.062,eb:33:2e:f9:57:b5, 2085-97-08 00:238:255:2060,0.008,0,1.005,6.104,8.606,0,-0.357,1.873,104.623
 14:39:18.062,eb:33:2e:f9:57:b5, 2085-97-26 00:239:255:2073,0.012,-0.009,1.014,6.653,9.583,-0.061,-0.291,1.961,104.623
 14:39:18.062,eb:33:2e:f9:57:b5, 2085-97-19 00:238:255:2082,0.003,-0.008,1.013,7.08,11.108,-0.549,-0.209,2.076,104.612
 14:39:18.062,eb:33:2e:f9:57:b5, 2085-97-13 00:235:255:2092,0,-0.013,1.021,7.935,13.123,-0.671,-0.137,2.203,104.601
 14:39:18.120,eb:33:2e:f9:57:b5, 2085-97-222 255:205:255:2086,-0.016,-0.015,1.024,9.521,14.343,-0.366,-0.033,2.351,104.59
 14:39:18.120,eb:33:2e:f9:57:b5, 2085-97-207 255:215:255:2061,-0.026,-0.017,1.009,10.925,13.428,0.305,0.071,2.488,104.584
 14:39:18.120,eb:33:2e:f9:57:b5, 2085-97-202 255:232:255:2079,-0.013,-0.013,1.005,11.719,12.451,1.038,0.198,2.631,104.59
 14:39:18.120,eb:33:2e:f9:57:b5, 2085-97-211 255:236:255:2092,-0.023,0.004,1.015,13.306,11.475,0.488,0.324,2.741,104.595
 14:39:18.151,eb:33:2e:f9:57:b5, 2085-97-223 255:02:00:2085,-0.008,-0.006,1.006,13.794,11.78,0.793,0.472,2.873,104.595
 14:39:18.151,eb:33:2e:f9:57:b5, 2085-97-04 00:23:00:2147,0.005,0.007,1.022,14.282,12.634,0.244,0.61,2.994,104.601
 14:39:18.151,eb:33:2e:f9:57:b5, 2085-97-19 00:14:00:2145,0,0.001,1.062,15.32,16.113,-0.671,0.775,3.148,104.59
 14:39:18.151,eb:33:2e:f9:57:b5, 2085-97-24 00:26:00:2191,0.005,0.006,1.045,15.442,19.714,-1.221,0.928,3.329,104.579
 14:39:18.211,eb:33:2e:f9:57:b5, 2085-97-17 00:237:255:2483,-0.019,0.016,1.101,17.944,20.996,-2.93,1.104,3.549,104.551
 14:39:18.211,eb:33:2e:f9:57:b5, 2085-97-174 255:234:255:2240,-0.059,-0.023,1.184,25.757,21.973,-2.38,1.318,3.768,104.524
 14:39:18.211,eb:33:2e:f9:57:b5, 2085-97-110 255:244:255:2173,-0.061,0,1.052,29.236,19.226,-1.404,1.609,3.994,104.502
 14:39:18.211,eb:33:2e:f9:57:b5, 2085-97-118 255:239:255:2367,-0.111,0.019,1.047,34.18,11.475,0.305,1.923,4.142,104.502
 14:39:18.211,eb:33:2e:f9:57:b5, 2085-97-57 255:154:255:2400,-0.076,-0.074,1.266,48.706,-1.526,1.404,2.362,4.175,104.502
 14:39:18.211,eb:33:2e:f9:57:b5, 2085-97-72 255:204:255:2443,-0.07,-0.019,1.15,58.044,-9.338,3.662,2.9,4.12,104.529
 14:39:18.211,eb:33:2e:f9:57:b5, 2085-97-96 255:176:255:2616,-0.106,-0.026,1.236,67.078,-13.733,5.188,3.538,4.021,104.568
 14:39:18.211,eb:33:2e:f9:57:b5, 2085-97-33 255:140:255:2838,-0.11,-0.054,1.329,78.003,-15.93,7.202,4.268,3.862,104.623
 14:39:18.302,eb:33:2e:f9:57:b5, 2085-97-82 255:164:255:3021,-0.005,-0.041,1.442,92.102,-15.869,9.521,5.131,3.702,104.694
 14:39:18.302,eb:33:2e:f9:57:b5, 2085-97-166 00:90:00:2965,0.156,-0.01,1.464,107.239,-15.015,10.925,6.136,3.549,104.788
 14:39:18.302,eb:33:2e:f9:57:b5, 2085-97-122 01:127:00:3288,0.216,0.076,1.518,122.681,-15.93,5.859,7.3,3.389,104.854
 14:39:18.302,eb:33:2e:f9:57:b5, 2085-97-09 02:102:00:3354,0.268,0.036,1.628,139.587,-7.629,-0.366,8.624,3.268,104.865
 14:39:18.302,eb:33:2e:f9:57:b5, 2085-97-226 01:126:00:3471,0.19,0.056,1.651,157.41,3.967,-7.507,10.129,3.268,104.815
 14:39:18.302,eb:33:2e:f9:57:b5, 2085-113-58 00:213:223:555,0.159,-0.022,1.799,173.096,25.513,-11.292,11.794,3.428,104.738
 14:39:18.302,eb:33:2e:f9:57:b5, 2085-97-75 01:98:255:3611,0.162,-0.085,1.808,183.655,37.048,-10.315,12.689,3.598,104.722
 14:39:18.302,eb:33:2e:f9:57:b5, 2085-97-33 01:107:255:3604,0.151,-0.065,1.743,207.581,46.692,-12.146,14.667,4.048,104.7
 14:39:18.302,eb:33:2e:f9:57:b5, 2085-97-71 01:02:255:3837,0.139,-0.091,1.833,231.018,55.847,-13.55,16.87,4.581,104.766
 14:39:18.331,eb:33:2e:f9:57:b5, 2085-97-28 01:231:254:4118,0.156,-0.122,1.929,258.606,58.899,-15.259,19.341,5.191,104.804
 14:39:18.331,eb:33:2e:f9:57:b5, 2085-97-21 01:04:254:4585,0.162,-0.19,2.134,289.001,58.044,-20.569,22.094,5.795,104.886
 14:39:18.331,eb:33:2e:f9:57:b5, 2085-97-169 01:122:254:4964,0.279,-0.23,2.32,323.059,65.735,-26.917,25.181,6.465,104.897
 14:39:18.331,eb:33:2e:f9:57:b5, 2085-97-218 02:113:255:5190,0.424,-0.15,2.535,359.619,76.355,-38.086,28.608,7.251,104.974
 14:39:18.391,eb:33:2e:f9:57:b5, 2085-97-231 02:132:255:5145,0.31,-0.077,2.473,400.085,70.618,-53.955,32.437,8.141,104.93
 14:39:18.391,eb:33:2e:f9:57:b5, 2085-97-22 01:164:255:5999,-0.057,-0.095,2.682,425.171,60.181,-67.505,36.579,9.009,104.81
 14:39:18.391,eb:33:2e:f9:57:b5, 2085-97-117 255:145:252:6703,0.107,-0.267,3.387,425.354,95.032,-69.946,40.847,10.025,104.683
 14:39:18.391,eb:33:2e:f9:57:b5, 2085-97-216 01:163:252:5777,0.311,-0.464,2.951,436.951,120.056,-63.171,45.198,11.299,105.018
 14:39:18.422,eb:33:2e:f9:57:b5, 2085-97-24 03:92:252:5417,0.488,-0.31,2.716,442.505,117.371,-63.293,49.653,12.579,105.441
 14:39:18.422,eb:33:2e:f9:57:b5, 2085-97-87 04:247:249:4365,0.658,-0.634,2.418,447.815,122.009,-61.951,54.196,13.821,106.024
 14:39:18.422,eb:33:2e:f9:57:b5, 2085-97-70 07:38:248:4243,1.079,-0.807,2.022,441.772,130.615,-56.702,58.766,15.029,106.732
 14:39:18.422,eb:33:2e:f9:57:b5, 2085-97-227 11:188:242:2723,1.864,-1.204,1.939,432.983,130.371,-53.04,63.325,16.172,107.677
 14:39:18.450,eb:33:2e:f9:57:b5, 2085-97-210 07:184:246:-6263,0.042,-1.295,-1.207,341.37,137.817,-65.857,67.489,17.276,108.677
 14:39:18.450,eb:33:2e:f9:57:b5, 2085-97-65 00:97:245:-3285,0.274,-1.287,-2.903,110.596,21.362,-59.082,69.774,18.171,109.133
 14:39:18.450,eb:33:2e:f9:57:b5, 2085-97-242 03:189:247:857,0.561,-1.213,-0.427,-67.017,-38.147,-20.02,69.747,18.463,108.858
 14:39:18.450,eb:33:2e:f9:57:b5, 2085-97-45 04:223:248:2302,0.487,-0.931,0.915,-166.87,-35.339,-6.958,68.362,18.408,108.452
 14:39:18.512,eb:33:2e:f9:57:b5, 2085-97-218 03:121:249:2253,0.519,-0.866,1.169,-210.876,2.502,-4.15,66.363,18.397,108.287
 14:39:18.512,eb:33:2e:f9:57:b5, 2085-97-96 04:51:251:1505,0.536,-0.722,0.945,-222.473,27.283,-11.963,64.21,18.545,108.468
 14:39:18.512,eb:33:2e:f9:57:b5, 2085-97-89 04:130:252:675,0.523,-0.503,0.502,-222.107,20.63,-28.87,62.001,18.853,108.605
 14:39:18.512,eb:33:2e:f9:57:b5, 2085-97-249 03:152:252:194,0.455,-0.412,0.191,-221.069,-4.822,-45.959,59.755,19.226,108.523
 14:39:18.542,eb:33:2e:f9:57:b5, 2085-97-43 03:212:251:142,0.343,-0.468,0.053,-221.436,-41.931,-60.852,57.393,19.55,108.001
 14:39:18.542,eb:33:2e:f9:57:b5, 2085-97-58 02:39:251:415,0.214,-0.57,0.135,-230.225,-72.327,-67.261,54.893,19.737,107.15
 14:39:18.542,eb:33:2e:f9:57:b5, 2085-97-46 01:162:250:712,0.102,-0.639,0.272,-249.634,-85.632,-64.026,52.185,19.77,106.062
 14:39:18.542,eb:33:2e:f9:57:b5, 2085-97-149 00:88:250:1130,0.072,-0.699,0.441,-273.865,-85.693,-53.162,49.263,19.655,105.035
 14:39:18.601,eb:33:2e:f9:57:b5, 2085-97-185 00:217:250:1447,0.117,-0.688,0.636,-297.791,-73.669,-36.743,46.126,19.424,104.123
 14:39:18.601,eb:33:2e:f9:57:b5, 2085-97-07 01:189:251:1554,0.172,-0.587,0.75,-310.974,-62.134,-24.109,42.885,19.144,103.48
 14:39:18.601,eb:33:2e:f9:57:b5, 2085-97-159 01:163:252:1543,0.24,-0.475,0.772,-314.453,-61.707,-15.686,39.589,18.798,102.92
 14:39:18.601,eb:33:2e:f9:57:b5, 2085-97-33 02:97:253:1526,0.291,-0.368,0.745,-312.073,-74.28,-11.292,36.321,18.331,102.453
 14:39:18.662,eb:33:2e:f9:57:b5, 2085-97-113 02:219:253:1646,0.308,-0.295,0.766,-307.068,-95.093,-10.254,33.069,17.677,101.876
 14:39:18.663,eb:33:2e:f9:57:b5, 2085-97-103 02:31:254:1937,0.286,-0.248,0.861,-302.429,-116.455,-11.047,29.877,16.809,101.288
 14:39:18.663,eb:33:2e:f9:57:b5, 2085-97-38 02:104:254:2353,0.232,-0.219,1.047,-298.889,-132.568,-12.207,26.708,15.738,100.596
 14:39:18.663,eb:33:2e:f9:57:b5, 2085-97-143 01:134:254:2762,0.155,-0.185,1.243,-297.485,-140.442,-11.963,23.599,14.529,99.976
 14:39:18.663,eb:33:2e:f9:57:b5, 2085-97-228 00:70:254:3143,0.078,-0.202,1.449,-296.997,-140.747,-7.568,20.506,13.244,99.371
 14:39:18.664,eb:33:2e:f9:57:b5, 2085-97-110 00:62:254:3357,0.042,-0.223,1.596,-296.448,-133.362,2.686,17.474,11.948,98.992
 14:39:18.664,eb:33:2e:f9:57:b5, 2085-97-100 00:81:254:3545,0.064,-0.219,1.685,-293.701,-122.864,17.639,14.469,10.679,98.767
 14:39:18.664,eb:33:2e:f9:57:b5, 2085-97-175 00:159:254:3672,0.109,-0.195,1.768,-285.583,-114.929,34.18,11.574,9.47,98.789
 14:39:18.692,eb:33:2e:f9:57:b5, 2085-97-70 01:37:255:3787,0.156,-0.144,1.815,-273.254,-113.708,50.293,8.784,8.273,99.042
 14:39:18.692,eb:33:2e:f9:57:b5, 2085-97-230 01:132:255:3737,0.286,-0.074,1.802,-260.437,-124.146,64.026,6.147,7.037,99.492
 14:39:18.692,eb:33:2e:f9:57:b5, 2085-97-123 02:169:255:3912,0.331,-0.049,1.862,-247.498,-137.939,76.721,3.625,5.68,100.124
 14:39:18.692,eb:33:2e:f9:57:b5, 2085-97-181 02:172:255:4187,0.338,-0.031,1.968,-242.554,-153.442,88.989,1.198,4.191,100.926
 14:39:18.751,eb:33:2e:f9:57:b5, 2085-97-251 02:110:255:4640,0.359,-0.059,2.148,-247.559,-165.344,102.356,-1.274,2.609,101.931
 14:39:18.751,eb:33:2e:f9:57:b5, 2085-97-198 02:25:255:5113,0.334,-0.088,2.368,-266.602,-173.706,119.263,-3.9,0.983,103.156
 14:39:18.751,eb:33:2e:f9:57:b5, 2085-97-140 02:202:254:5631,0.322,-0.143,2.624,-291.809,-175.537,139.893,-6.823,-0.615,104.661
 14:39:18.751,eb:33:2e:f9:57:b5, 2085-97-249 02:26:00:5987,0.462,-0.104,2.848,-317.139,-171.326,164.551,-10.052,-2.065,106.469
 14:39:18.811,eb:33:2e:f9:57:b5, 2085-97-127 04:17:03:6248,0.625,0.185,2.992,-332.581,-167.358,183.411,-13.59,-3.323,108.583
 14:39:18.811,eb:33:2e:f9:57:b5, 2085-97-242 04:234:06:5541,0.708,0.624,3.022,-329.651,-155.09,188.232,-17.232,-4.34,110.869
 14:39:18.811,eb:33:2e:f9:57:b5, 2085-97-52 07:252:14:4116,1.069,1.283,2.261,-293.213,-177.612,158.936,-20.709,-5.257,113.104
 14:39:18.811,eb:33:2e:f9:57:b5, 2085-97-87 08:82:22:5408,0.884,2.426,2.175,-258.911,-243.225,97.595,-23.796,-6.729,115.159
 14:39:18.813,eb:33:2e:f9:57:b5, 2085-97-09 05:246:27:5656,0.09,3.096,2.929,-228.577,-231.934,29.907,-26.57,-8.657,116.829
 14:39:18.813,eb:33:2e:f9:57:b5, 2085-97-65 250:215:35:2571,-1.577,4,2.053,-197.632,-210.449,-36.194,-28.922,-10.558,117.828
 14:39:18.813,eb:33:2e:f9:57:b5, 2085-97-60 237:101:39:3020,-2.85,4.816,0.983,-155.64,-270.264,-84.534,-30.888,-12.964,118.542
 14:39:18.813,eb:33:2e:f9:57:b5, 2085-97-245 231:132:33:7653,-2.826,4.709,2.587,-74.036,-261.475,-91.309,-32.278,-15.798,119.323
 14:39:18.871,eb:33:2e:f9:57:b5, 2085-97-254 235:02:23:8664,-1.983,3.393,4.515,30.64,-74.768,-64.575,-32.536,-17.693,119.641
 14:39:18.871,eb:33:2e:f9:57:b5, 2085-97-148 244:67:15:5789,-0.843,2.364,3.514,83.191,158.386,-24.719,-31.63,-17.419,118.922
 14:39:18.871,eb:33:2e:f9:57:b5, 2085-97-58 253:141:12:3453,0.074,1.639,2.235,99.731,289.246,1.343,-30.174,-15.408,117.477
 14:39:18.871,eb:33:2e:f9:57:b5, 2085-97-25 10:214:11:4215,1.18,1.589,1.21,98.389,287.476,-1.465,-28.68,-12.832,115.9
 14:39:18.903,eb:33:2e:f9:57:b5, 2085-97-148 03:117:248:1723,0.695,-1.007,5.833,168.884,319.946,-1.282,-26.938,-10.503,114.34
 14:39:18.903,eb:33:2e:f9:57:b5, 2085-97-09 04:29:249:919,0.145,-0.231,-0.06,143.066,252.014,2.014,-25.049,-7.85,113.005
 14:39:18.903,eb:33:2e:f9:57:b5, 2085-97-10 255:21:241:1563,-0.082,-1.782,0.443,177.979,151.428,17.822,-23.335,-5.966,112.192
 14:39:18.903,eb:33:2e:f9:57:b5, 2085-97-101 255:26:248:2289,-0.128,-1.528,0.704,242.615,67.749,36.438,-21.176,-4.916,112.022
 14:39:18.931,eb:33:2e:f9:57:b5, 2085-97-222 254:102:254:2821,-0.192,-0.582,1.274,286.438,51.392,46.387,-18.468,-4.235,112.22
 14:39:18.931,eb:33:2e:f9:57:b5, 2085-97-255 253:89:02:2622,-0.396,0.173,1.446,259.705,82.458,50.476,-15.749,-3.455,112.478
 14:39:18.931,eb:33:2e:f9:57:b5, 2085-97-62 252:248:02:2018,-0.399,0.428,1.239,210.571,98.877,51.208,-13.436,-2.406,112.725
 14:39:18.931,eb:33:2e:f9:57:b5, 2085-97-17 254:134:01:2175,-0.221,0.355,1.022,159.851,68.298,29.236,-11.646,-1.483,112.928
 14:39:18.992,eb:33:2e:f9:57:b5, 2085-97-68 254:239:254:1886,-0.186,-0.016,0.996,139.343,36.194,3.479,-10.184,-0.95,112.95
 14:39:18.993,eb:33:2e:f9:57:b5, 2085-113-58 00:136:225:2865,-0.031,-0.191,0.947,147.644,10.071,-12.634,-8.74,-0.764,112.852
 14:39:18.994,eb:33:2e:f9:57:b5, 2085-97-71 01:202:254:2425,0.283,-0.177,1.027,149.536,4.333,-15.381,-7.971,-0.736,112.764
 14:39:18.994,eb:33:2e:f9:57:b5, 2085-97-54 02:236:255:2431,0.2,-0.065,1.198,134.277,17.883,-6.226,-6.537,-0.659,112.637
 14:39:19.021,eb:33:2e:f9:57:b5, 2085-97-82 01:127:02:2291,0.158,0.076,1.167,104.126,40.405,3.418,-5.323,-0.33,112.593
 14:39:19.021,eb:33:2e:f9:57:b5, 2085-97-17 01:00:02:2221,0,0.311,1.125,62.683,39.978,-1.831,-4.521,0.06,112.555
 14:39:19.021,eb:33:2e:f9:57:b5, 2085-97-102 255:37:00:1862,-0.056,0.129,0.978,43.213,38.818,-8.484,-3.994,0.478,112.451
 14:39:19.021,eb:33:2e:f9:57:b5, 2085-97-250 255:16:00:1983,-0.001,-0.01,0.914,33.752,25.757,-6.531,-3.615,0.786,112.352
 14:39:19.082,eb:33:2e:f9:57:b5, 2085-97-158 255:56:00:1940,-0.078,0.031,0.972,26.367,21.301,-6.104,-3.296,1.022,112.264
 14:39:19.082,eb:33:2e:f9:57:b5, 2085-97-135 255:03:00:1933,-0.011,0.013,0.926,19.897,11.963,-5.676,-3.065,1.181,112.192
 14:39:19.082,eb:33:2e:f9:57:b5, 2085-97-74 00:200:255:2115,0.053,-0.011,0.991,16.174,6.47,-3.296,-2.873,1.263,112.137
 14:39:19.082,eb:33:2e:f9:57:b5, 2085-97-89 00:175:255:2169,0.024,-0.029,1.049,15.259,9.216,-2.319,-2.714,1.34,112.104
 14:39:19.140,eb:33:2e:f9:57:b5, 2085-97-11 00:134:255:2132,-0.01,-0.055,1.052,15.991,13.428,-0.122,-2.543,1.472,112.077
 14:39:19.140,eb:33:2e:f9:57:b5, 2085-97-221 255:135:255:2089,-0.009,-0.061,1.03,17.456,12.695,1.343,-2.379,1.604,112.077
 14:39:19.140,eb:33:2e:f9:57:b5, 2085-97-24 00:174:255:2115,0.018,-0.05,1.022,18.677,10.62,2.258,-2.181,1.73,112.088
 14:39:19.140,eb:33:2e:f9:57:b5, 2085-97-37 00:196:255:2118,0.017,-0.036,1.038,19.653,11.353,2.014,-1.989,1.84,112.099
 14:39:19.142,eb:33:2e:f9:57:b5, 2085-97-29 00:195:255:2120,0.005,-0.024,1.035,20.569,12.39,1.892,-1.774,1.967,112.11
 14:39:19.142,eb:33:2e:f9:57:b5, 2085-97-240 255:195:255:2082,-0.018,-0.035,1.027,21.179,13.184,2.197,-1.566,2.098,112.121
 14:39:19.142,eb:33:2e:f9:57:b5, 2085-97-207 255:193:255:2063,-0.02,-0.024,1.006,21.179,12.085,2.502,-1.335,2.236,112.137
 14:39:19.142,eb:33:2e:f9:57:b5, 2085-97-228 255:209:255:2053,-0.011,-0.03,1.007,20.874,10.742,3.113,-1.126,2.351,112.159
 14:39:19.171,eb:33:2e:f9:57:b5, 2085-97-242 255:210:255:2052,0.005,-0.021,1,20.02,10.01,3.418,-0.906,2.466,112.181
 14:39:19.171,eb:33:2e:f9:57:b5, 2085-97-01 00:234:255:2030,-0.018,-0.01,0.997,18.616,10.132,3.54,-0.714,2.565,112.214
 14:39:19.172,eb:33:2e:f9:57:b5, 2085-97-242 255:235:255:2004,-0.039,-0.022,0.973,15.991,10.986,4.333,-0.527,2.681,112.247
 14:39:19.172,eb:33:2e:f9:57:b5, 2085-97-235 255:248:255:2000,-0.014,-0.027,0.96,13.672,10.193,5.249,-0.379,2.791,112.291
 14:39:19.232,eb:33:2e:f9:57:b5, 2085-97-234 255:251:255:1985,-0.005,-0.009,0.975,12.085,8.85,5.066,-0.236,2.889,112.335
 14:39:19.232,eb:33:2e:f9:57:b5, 2085-97-226 255:04:00:2022,-0.022,0.009,0.985,11.353,8.484,5.127,-0.121,2.977,112.385
 14:39:19.232,eb:33:2e:f9:57:b5, 2085-97-05 00:22:00:2036,-0.008,-0.005,0.986,11.292,7.019,5.066,0.005,3.065,112.429
 14:39:19.232,eb:33:2e:f9:57:b5, 2085-97-205 255:246:255:1992,0,0,0.988,11.108,7.385,4.272,0.115,3.137,112.473
 14:39:19.292,eb:33:2e:f9:57:b5, 2085-97-14 00:35:00:2039,-0.019,0.021,0.984,10.437,7.568,3.906,0.236,3.224,112.511
 14:39:19.292,eb:33:2e:f9:57:b5, 2085-97-245 255:39:00:1992,-0.005,0.009,0.968,9.644,8.24,2.991,0.335,3.307,112.538
 14:39:19.292,eb:33:2e:f9:57:b5, 2085-97-239 255:27:00:1969,-0.003,0.02,0.977,8.85,8.545,1.709,0.445,3.395,112.56
 14:39:19.292,eb:33:2e:f9:57:b5, 2085-97-02 00:48:00:2088,0.011,0.022,0.996,7.812,10.193,0.671,0.522,3.494,112.571
 14:39:19.294,eb:33:2e:f9:57:b5, 2085-97-34 00:57:00:2107,0.013,0.029,1.013,8.362,13.367,-0.671,0.621,3.62,112.566
 14:39:19.294,eb:33:2e:f9:57:b5, 2085-97-41 00:52:00:2143,0.013,0.023,1.045,9.216,15.808,-2.258,0.709,3.768,112.549
 14:39:19.294,eb:33:2e:f9:57:b5, 2085-97-09 00:53:00:2088,-0.011,0.026,1.033,9.888,18.86,-3.723,0.818,3.955,112.511
 14:39:19.294,eb:33:2e:f9:57:b5, 2085-97-218 255:58:00:2043,-0.052,0.025,0.998,9.583,21.179,-4.639,0.917,4.153,112.467
 14:39:19.351,eb:33:2e:f9:57:b5, 2085-97-150 255:15:00:2044,-0.055,0.005,1.007,10.498,20.63,-4.761,1.027,4.373,112.412
 14:39:19.351,eb:33:2e:f9:57:b5, 2085-97-116 255:12:00:1991,-0.074,0.01,0.971,11.536,18.311,-4.517,1.137,4.565,112.368
 14:39:19.351,eb:33:2e:f9:57:b5, 2085-97-119 255:05:00:2038,-0.063,-0.006,1.008,13.733,13.55,-3.723,1.274,4.73,112.319
 14:39:19.351,eb:33:2e:f9:57:b5, 2085-97-126 255:00:00:2080,-0.057,0.004,0.989,15.137,10.864,-2.991,1.417,4.85,112.286
 14:39:19.381,eb:33:2e:f9:57:b5, 2085-97-133 255:16:00:2151,-0.07,0.003,1.037,18.188,7.935,-2.502,1.599,4.949,112.258
 14:39:19.381,eb:33:2e:f9:57:b5, 2085-97-130 255:253:255:2201,-0.049,-0.003,1.079,22.827,4.761,-2.136,1.802,5.015,112.236
 14:39:19.381,eb:33:2e:f9:57:b5, 2085-97-162 255:41:00:2154,-0.053,0.015,1.055,26.611,3.662,-1.831,2.071,5.065,112.209
 14:39:19.381,eb:33:2e:f9:57:b5, 2085-97-154 255:33:00:2181,-0.056,0.016,1.054,29.602,1.831,-1.77,2.351,5.087,112.192
 14:39:19.440,eb:33:2e:f9:57:b5, 2085-97-122 255:33:00:2167,-0.071,0.015,1.066,32.959,0.122,-1.526,2.681,5.109,112.17
 14:39:19.440,eb:33:2e:f9:57:b5, 2085-97-97 255:29:00:2204,-0.084,0.019,1.057,36.316,-3.357,-0.671,3.027,5.092,112.159
 14:39:19.440,eb:33:2e:f9:57:b5, 2085-97-87 255:03:00:2341,-0.074,0.006,1.11,41.077,-6.592,0.183,3.428,5.048,112.154
 14:39:19.440,eb:33:2e:f9:57:b5, 2085-97-117 255:46:00:2294,-0.055,0.012,1.134,47.852,-9.033,1.404,3.878,4.966,112.159
 14:39:19.500,eb:33:2e:f9:57:b5, 2085-97-150 255:51:00:2380,-0.049,0.028,1.148,52.795,-10.01,2.258,4.395,4.872,112.17
 14:39:19.500,eb:33:2e:f9:57:b5, 2085-97-131 255:32:00:2460,-0.082,0.021,1.196,59.326,-10.071,2.808,4.96,4.774,112.192
 14:39:19.500,eb:33:2e:f9:57:b5, 2085-97-46 255:07:00:2464,-0.127,0.009,1.197,66.711,-10.437,4.7,5.609,4.675,112.214
 14:39:19.500,eb:33:2e:f9:57:b5, 2085-97-163 254:220:255:2539,-0.194,0.002,1.214,74.646,-13.489,8.118,6.312,4.554,112.275
 14:39:19.502,eb:33:2e:f9:57:b5, 2085-97-243 254:08:00:2587,-0.044,-0.029,1.256,84.412,-18.433,12.756,7.13,4.395,112.357
 14:39:19.502,eb:33:2e:f9:57:b5, 2085-97-60 00:150:00:2776,0.127,0.041,1.298,95.459,-24.902,14.893,8.031,4.153,112.478
 14:39:19.502,eb:33:2e:f9:57:b5, 2085-97-173 01:05:01:3168,0.273,0.111,1.443,109.009,-26.611,10.376,9.069,3.889,112.566
 14:39:19.502,eb:33:2e:f9:57:b5, 2085-97-134 02:46:01:3390,0.349,0.125,1.619,124.573,-14.343,2.808,10.245,3.669,112.599
 14:39:19.592,eb:33:2e:f9:57:b5, 2085-97-137 02:237:00:3613,0.274,0.136,1.699,140.686,6.47,-5.859,11.591,3.647,112.571
 14:39:19.592,eb:33:2e:f9:57:b5, 2085-97-28 02:62:00:3622,0.261,0.062,1.818,156.494,34.241,-10.864,13.085,3.873,112.593
 14:39:19.592,eb:33:2e:f9:57:b5, 2085-97-117 01:52:00:3425,0.104,0.048,1.686,176.147,52.551,-14.16,14.771,4.351,112.566
 14:39:19.593,eb:33:2e:f9:57:b5, 2085-97-169 00:73:255:3789,0.095,-0.043,1.78,198.303,58.35,-16.418,16.655,4.922,112.615
 14:39:19.593,eb:33:2e:f9:57:b5, 2085-97-246 00:76:255:3822,0.184,-0.065,1.85,222.961,67.017,-14.099,18.781,5.587,112.654
 14:39:19.593,eb:33:2e:f9:57:b5, 2085-113-58 00:152:224:1095,0.212,-0.041,1.936,252.136,61.523,-18.25,21.176,6.257,112.775
 14:39:19.593,eb:33:2e:f9:57:b5, 2085-97-143 01:05:255:4546,0.212,-0.066,2.06,267.029,57.922,-22.4,22.478,6.57,112.78
 14:39:19.593,eb:33:2e:f9:57:b5, 2085-97-40 02:173:254:4836,0.302,-0.165,2.318,299.683,64.697,-28.32,25.334,7.234,112.775
 14:39:19.593,eb:33:2e:f9:57:b5, 2085-97-140 02:73:00:5245,0.365,-0.078,2.454,338.684,78.613,-41.077,28.537,8.031,112.841
 14:39:19.623,eb:33:2e:f9:57:b5, 2085-97-59 03:141:255:5210,0.391,-0.016,2.548,373.596,85.693,-54.565,32.124,9.003,112.813
 14:39:19.623,eb:33:2e:f9:57:b5, 2085-97-08 02:253:255:5542,0.058,-0.07,2.586,401.184,83.13,-67.139,36.019,10.058,112.813
 14:39:19.623,eb:33:2e:f9:57:b5, 2085-97-105 00:251:253:6601,0.114,0.008,3.051,405.701,92.59,-74.585,40.073,11.173,112.742
 14:39:19.623,eb:33:2e:f9:57:b5, 2085-97-225 01:92:253:5396,0.32,-0.364,2.875,421.326,116.15,-70.129,44.236,12.469,112.983
 14:39:19.681,eb:33:2e:f9:57:b5, 2085-97-204 02:33:254:5652,0.361,-0.244,2.63,426.819,104.858,-75.684,48.532,13.76,113.247
 14:39:19.681,eb:33:2e:f9:57:b5, 2085-97-87 03:42:251:4780,0.545,-0.454,2.666,430.115,119.629,-75.256,52.883,15.068,113.643
 14:39:19.681,eb:33:2e:f9:57:b5, 2085-113-81 00:156:189:-5696,0.775,-0.653,2.052,420.593,132.263,-67.993,57.261,16.386,114.263
 14:39:19.681,eb:33:2e:f9:57:b5, 2085-97-49 08:07:248:3987,1.244,-0.724,2.056,414.795,140.747,-67.261,59.436,17.04,114.708
 14:39:19.712,eb:33:2e:f9:57:b5, 2085-97-251 12:251:245:-055,1.219,-1.412,1.479,388.733,141.663,-65.796,63.688,18.325,115.653
 14:39:19.712,eb:33:2e:f9:57:b5, 2085-97-216 01:187:248:-5760,0.017,-0.942,-2.157,264.587,113.22,-80.872,67.275,19.611,116.697
 14:39:19.712,eb:33:2e:f9:57:b5, 2085-97-254 01:08:248:-1447,0.434,-1.054,-1.881,55.054,15.198,-64.941,68.785,20.528,116.9
 14:39:19.712,eb:33:2e:f9:57:b5, 2085-97-249 03:06:250:1319,0.453,-0.832,0.137,-80.139,-36.926,-42.542,68.428,20.929,116.57
 14:39:19.741,eb:33:2e:f9:57:b5, 2085-97-18 03:170:249:2013,0.354,-0.758,0.883,-158.264,-29.297,-33.569,67,21.127,116.071
 14:39:19.741,eb:33:2e:f9:57:b5, 2085-97-196 02:191:249:2039,0.393,-0.801,1.016,-189.209,-0.122,-28.015,65.132,21.346,115.851
 14:39:19.741,eb:33:2e:f9:57:b5, 2085-97-66 03:87:251:1506,0.377,-0.698,0.91,-192.261,20.813,-28.931,63.199,21.649,115.834
 14:39:19.741,eb:33:2e:f9:57:b5, 2085-97-209 02:15:252:852,0.336,-0.517,0.565,-187.134,18.311,-36.255,61.309,22.044,115.906
 14:39:19.802,eb:33:2e:f9:57:b5, 2085-97-143 02:218:251:268,0.299,-0.492,0.263,-184.021,3.296,-40.588,59.414,22.434,115.796
 14:39:19.802,eb:33:2e:f9:57:b5, 2085-97-58 02:54:251:001,0.255,-0.563,0.024,-188.782,-26.733,-42.603,57.448,22.725,115.499
 14:39:19.802,eb:33:2e:f9:57:b5, 2085-97-174 01:214:250:208,0.151,-0.622,0.04,-203.125,-54.199,-39.001,55.283,22.819,114.884
 14:39:19.802,eb:33:2e:f9:57:b5, 2085-97-200 00:97:250:574,0.062,-0.673,0.183,-225.647,-72.327,-28.748,52.883,22.698,114.17
 14:39:19.832,eb:33:2e:f9:57:b5, 2085-97-101 00:29:250:1012,0.052,-0.727,0.389,-251.892,-76.172,-12.085,50.235,22.368,113.417
 14:39:19.832,eb:33:2e:f9:57:b5, 2085-97-174 00:127:250:1381,0.129,-0.726,0.588,-274.963,-67.688,6.775,47.401,21.896,112.896
 14:39:19.832,eb:33:2e:f9:57:b5, 2085-97-99 01:201:251:1517,0.222,-0.614,0.724,-289.429,-57.007,22.034,44.451,21.346,112.566
 14:39:19.832,eb:33:2e:f9:57:b5, 2085-97-01 02:30:253:1473,0.286,-0.437,0.737,-293.823,-59.021,29.724,41.468,20.748,112.429
 14:39:19.862,eb:33:2e:f9:57:b5, 2085-97-125 02:06:254:1489,0.331,-0.295,0.722,-291.626,-74.707,31.738,38.474,20.023,112.247
 14:39:19.862,eb:33:2e:f9:57:b5, 2085-97-186 02:140:254:1643,0.348,-0.209,0.756,-288.269,-94.91,30.701,35.508,19.149,112.044
 14:39:19.862,eb:33:2e:f9:57:b5, 2085-97-206 02:202:254:1931,0.348,-0.164,0.869,-285.583,-113.281,27.71,32.542,18.1,111.709
 14:39:19.862,eb:33:2e:f9:57:b5, 2085-97-193 02:41:255:2199,0.332,-0.129,1.007,-283.936,-126.465,22.949,29.603,16.924,111.374
 14:39:19.921,eb:33:2e:f9:57:b5, 2085-97-126 02:128:255:2513,0.289,-0.082,1.144,-284.485,-135.681,16.785,26.653,15.656,110.945
 14:39:19.921,eb:33:2e:f9:57:b5, 2085-97-20 02:193:255:2851,0.23,-0.044,1.308,-286.255,-138.916,10.925,23.714,14.343,110.561
 14:39:19.922,eb:33:2e:f9:57:b5, 2085-113-58 00:216:220:240,0.191,-0.034,1.477,-286.865,-136.841,7.507,20.759,13.019,110.143
 14:39:19.922,eb:33:2e:f9:57:b5, 2085-97-63 01:124:255:3237,0.144,-0.047,1.538,-286.377,-133.789,7.935,19.297,12.365,109.957
 14:39:19.922,eb:33:2e:f9:57:b5, 2085-97-248 00:72:255:3352,0.105,-0.078,1.621,-283.203,-126.953,11.841,16.414,11.091,109.742
 14:39:19.951,eb:33:2e:f9:57:b5, 2085-97-222 00:25:255:3474,0.112,-0.104,1.66,-277.222,-122.803,21.057,13.579,9.838,109.611
 14:39:19.951,eb:33:2e:f9:57:b5, 2085-97-255 00:02:255:3661,0.146,-0.12,1.729,-269.47,-122.131,33.936,10.854,8.591,109.72
 14:39:19.951,eb:33:2e:f9:57:b5, 2085-97-71 01:242:254:3746,0.187,-0.127,1.821,-261.292,-127.136,50.293,8.207,7.289,109.973
 14:39:19.951,eb:33:2e:f9:57:b5, 2085-97-179 01:181:254:3733,0.27,-0.146,1.84,-258.667,-138.123,67.2,5.636,5.905,110.429
 14:39:19.981,eb:33:2e:f9:57:b5, 2085-97-152 02:129:254:4012,0.361,-0.172,1.854,-263.123,-156.372,84.961,3.021,4.378,111.127
 14:39:19.981,eb:33:2e:f9:57:b5, 2085-97-58 03:131:254:4364,0.419,-0.188,2.029,-271.973,-174.011,105.225,0.341,2.714,112.072
 14:39:19.981,eb:33:2e:f9:57:b5, 2085-97-123 03:172:254:5040,0.458,-0.177,2.273,-285.583,-189.087,126.77,-2.516,0.928,113.318
 14:39:19.981,eb:33:2e:f9:57:b5, 2085-97-216 03:86:255:6017,0.509,-0.143,2.697,-302.856,-188.965,153.198,-5.581,-0.846,114.901
 14:39:20.042,eb:33:2e:f9:57:b5, 2085-97-97 04:95:01:6766,0.618,0.024,3.153,-317.078,-170.227,179.749,-8.904,-2.384,116.84
 14:39:20.042,eb:33:2e:f9:57:b5, 2085-97-146 05:101:04:6986,0.801,0.348,3.397,-322.998,-144.226,199.585,-12.382,-3.521,119.048
 14:39:20.042,eb:33:2e:f9:57:b5, 2085-97-155 06:210:08:6262,0.897,0.818,3.335,-322.632,-111.816,206.055,-15.958,-4.213,121.388
 14:39:20.042,eb:33:2e:f9:57:b5, 2085-97-168 08:203:14:4401,1.322,1.393,2.591,-300.11,-114.319,184.326,-19.418,-4.598,123.635
 14:39:20.071,eb:33:2e:f9:57:b5, 2085-97-229 10:86:25:3182,1.216,2.523,1.734,-265.076,-175.781,119.934,-22.527,-5.35,125.601
 14:39:20.071,eb:33:2e:f9:57:b5, 2085-97-36 07:161:29:3783,0.365,3.51,1.752,-239.929,-256.165,37.598,-25.345,-7.07,127.271
 14:39:20.071,eb:33:2e:f9:57:b5, 2085-97-114 252:39:35:2300,-1.342,4.015,1.546,-201.05,-296.936,-36.011,-27.817,-9.547,128.551
 14:39:20.071,eb:33:2e:f9:57:b5, 2085-97-131 238:79:38:3869,-2.843,4.684,1.163,-151.978,-365.051,-84.778,-29.877,-12.783,129.71
 14:39:20.131,eb:33:2e:f9:57:b5, 2085-97-194 231:192:33:9027,-3.009,4.638,3.074,-74.28,-324.036,-89.905,-31.377,-16.304,130.88
 14:39:20.131,eb:33:2e:f9:57:b5, 2085-97-98 235:68:25:8804,-2.04,3.628,4.869,13.245,-81.421,-58.594,-31.783,-18.419,131.38
 14:39:20.131,eb:33:2e:f9:57:b5, 2085-97-110 244:149:17:6142,-0.712,2.571,3.706,58.228,181.946,-23.071,-31.075,-18.045,130.611
 14:39:20.131,eb:33:2e:f9:57:b5, 2085-97-153 254:35:14:3698,0.224,1.942,2.278,88.196,324.341,-6.897,-29.745,-15.787,128.985
 14:39:20.191,eb:33:2e:f9:57:b5, 2085-97-254 08:78:10:3095,1.189,1.684,1.257,98.389,317.017,-18.25,-28.185,-12.98,127.123
 14:39:20.191,eb:33:2e:f9:57:b5, 2085-97-08 06:211:245:2090,0.425,-2.072,5.799,150.146,353.027,-7.568,-26.526,-10.47,125.376
 14:39:20.191,eb:33:2e:f9:57:b5, 2085-97-185 02:158:244:398,0.08,-0.268,-0.129,125,268.494,7.324,-24.752,-7.531,123.937
 14:39:20.191,eb:33:2e:f9:57:b5, 2085-97-199 254:121:239:1117,-0.176,-2.238,0.04,164.673,133.118,21.484,-23.225,-5.729,123.206
 14:39:20.193,eb:33:2e:f9:57:b5, 2085-97-82 255:234:247:1849,-0.178,-1.617,0.643,258.118,45.044,39.856,-21.05,-4.889,123.157
 14:39:20.193,eb:33:2e:f9:57:b5, 2085-97-186 254:85:254:2870,-0.136,-0.526,1.189,308.533,23.438,48.462,-18.166,-4.46,123.481
 14:39:20.193,eb:33:2e:f9:57:b5, 2085-97-187 254:42:03:2881,-0.352,0.224,1.361,282.715,58.472,66.956,-15.238,-3.878,123.915
 14:39:20.193,eb:33:2e:f9:57:b5, 2085-113-58 00:170:221:3375,-0.401,0.388,1.173,229.98,86.975,62.622,-12.744,-2.928,124.343
 14:39:20.314,eb:33:2e:f9:57:b5, 2085-97-71 253:60:03:2271,-0.204,0.478,1.005,199.768,71.228,50.537,-11.689,-2.477,124.519
 14:39:20.314,eb:33:2e:f9:57:b5, 2085-97-123 254:110:00:2194,-0.217,0.258,1.107,156.494,37.415,18.616,-9.987,-1.906,124.733
 14:39:20.314,eb:33:2e:f9:57:b5, 2085-97-187 254:186:254:2060,0.033,-0.075,0.983,151.245,12.085,-4.822,-8.454,-1.653,124.733
 14:39:20.314,eb:33:2e:f9:57:b5, 2085-97-233 01:146:255:2463,0.302,-0.101,1.117,145.142,-7.446,-9.521,-6.949,-1.686,124.645
 14:39:20.314,eb:33:2e:f9:57:b5, 2085-97-12 02:215:255:2300,0.131,-0.042,1.199,125.671,11.108,-0.549,-5.581,-1.681,124.579
 14:39:20.314,eb:33:2e:f9:57:b5, 2085-97-125 01:198:01:2208,0.157,0.18,1.11,93.323,25.574,4.944,-4.471,-1.467,124.596
 14:39:20.314,eb:33:2e:f9:57:b5, 2085-97-195 00:43:02:2090,0.005,0.314,1.067,60.486,32.349,-0.549,-3.708,-1.165,124.596
 14:39:20.314,eb:33:2e:f9:57:b5, 2085-97-228 255:164:00:1902,0.016,0.191,0.943,38.635,27.527,-10.437,-3.23,-0.851,124.508
 14:39:20.316,eb:33:2e:f9:57:b5, 2085-97-156 00:145:255:2080,0.088,-0.017,0.966,30.273,19.226,-10.681,-2.873,-0.637,124.371
 14:39:20.316,eb:33:2e:f9:57:b5, 2085-97-45 00:172:00:1989,-0.055,0.035,1.001,22.705,22.034,-6.531,-2.593,-0.428,124.277
 14:39:20.316,eb:33:2e:f9:57:b5, 2085-97-128 255:00:00:1859,0.008,0.057,0.917,13.855,14.404,-7.568,-2.395,-0.242,124.184
 14:39:20.316,eb:33:2e:f9:57:b5, 2085-97-160 00:237:255:2111,0.096,-0.019,0.961,9.338,5.554,-4.15,-2.28,-0.159,124.124
 14:39:20.431,eb:33:2e:f9:57:b5, 2085-97-146 00:198:255:2164,0.052,-0.011,1.061,7.324,10.803,-2.686,-2.181,-0.077,124.08
 14:39:20.431,eb:33:2e:f9:57:b5, 2085-97-87 00:157:255:2133,0.036,-0.04,1.047,7.629,13.611,-1.099,-2.104,0.049,124.052
 14:39:20.431,eb:33:2e:f9:57:b5, 2085-97-61 00:137:255:2106,0.024,-0.058,1.034,9.521,13.916,0.244,-2.005,0.198,124.036
 14:39:20.431,eb:33:2e:f9:57:b5, 2085-97-29 00:188:255:2062,0.006,-0.043,1.015,11.169,12.39,0.977,-1.895,0.33,124.036
 14:39:20.432,eb:33:2e:f9:57:b5, 2085-97-35 00:164:255:2080,0.022,-0.037,1.006,11.78,10.193,1.343,-1.769,0.45,124.036
 14:39:20.432,eb:33:2e:f9:57:b5, 2085-97-59 00:152:255:2120,0.025,-0.055,1.031,13.733,9.46,2.014,-1.642,0.544,124.047
 14:39:20.432,eb:33:2e:f9:57:b5, 2085-97-43 00:165:255:2109,0.016,-0.047,1.031,16.235,9.766,2.563,-1.478,0.648,124.063
 14:39:20.432,eb:33:2e:f9:57:b5, 2085-97-34 00:143:255:2125,0.032,-0.05,1.033,18.555,8.85,2.869,-1.302,0.747,124.085
 14:39:20.434,eb:33:2e:f9:57:b5, 2085-97-87 00:177:255:2142,0.041,-0.048,1.048,21.118,8.545,3.479,-1.088,0.84,124.107
 14:39:20.434,eb:33:2e:f9:57:b5, 2085-97-69 00:239:255:2045,0.018,-0.024,1.025,21.912,10.681,3.418,-0.873,0.934,124.14
 14:39:20.434,eb:33:2e:f9:57:b5, 2085-97-31 00:07:00:1964,0.01,-0.003,0.978,20.386,10.986,3.662,-0.648,1.055,124.167
 14:39:20.434,eb:33:2e:f9:57:b5, 2085-97-24 00:17:00:1927,0.009,0.002,0.949,17.578,9.644,3.845,-0.461,1.159,124.2
 14:39:20.461,eb:33:2e:f9:57:b5, 2085-97-15 00:253:255:1955,0.025,0,0.952,15.259,7.019,3.418,-0.286,1.247,124.233
 14:39:20.462,eb:33:2e:f9:57:b5, 2085-97-44 00:11:00:1976,0.016,0.006,0.964,13.123,6.042,3.174,-0.143,1.313,124.266
 14:39:20.462,eb:33:2e:f9:57:b5, 2085-97-41 00:10:00:1991,0.019,0,0.968,11.108,6.042,2.93,-0.011,1.379,124.288
 14:39:20.462,eb:33:2e:f9:57:b5, 2085-97-38 00:01:00:1994,0.017,0.004,0.973,9.949,5.981,2.563,0.093,1.439,124.316
 14:39:20.522,eb:33:2e:f9:57:b5, 2085-97-26 00:252:255:2011,0.01,0,0.973,8.972,5.615,2.502,0.198,1.505,124.332
 14:39:20.522,eb:33:2e:f9:57:b5, 2085-97-14 00:01:00:1993,0.014,-0.001,0.974,8.667,4.883,2.441,0.286,1.56,124.36
 14:39:20.522,eb:33:2e:f9:57:b5, 2085-97-32 00:13:00:2008,0.022,0.006,0.98,8.484,4.578,2.441,0.385,1.609,124.376
 14:39:20.522,eb:33:2e:f9:57:b5, 2085-97-41 00:14:00:2027,0.026,0.011,0.986,8.301,5.554,2.014,0.467,1.664,124.398
 14:39:20.551,eb:33:2e:f9:57:b5, 2085-97-67 00:32:00:2044,0.027,0.011,0.992,7.874,6.836,1.16,0.566,1.736,124.409
 14:39:20.551,eb:33:2e:f9:57:b5, 2085-97-57 00:30:00:2048,0.023,0.014,0.998,6.775,9.644,0.122,0.637,1.818,124.415
 14:39:20.551,eb:33:2e:f9:57:b5, 2085-97-52 00:41:00:2040,0.018,0.016,0.996,5.798,11.78,-0.488,0.714,1.934,124.409
 14:39:20.551,eb:33:2e:f9:57:b5, 2085-97-39 00:36:00:2036,0.01,0.015,0.992,4.761,13.55,-1.282,0.764,2.065,124.398
 14:39:20.611,eb:33:2e:f9:57:b5, 2085-97-17 00:29:00:2008,0.009,0.016,0.987,3.601,15.625,-1.648,0.824,2.219,124.376
 14:39:20.611,eb:33:2e:f9:57:b5, 2085-97-18 00:19:00:2043,0.005,0.009,0.992,3.906,15.32,-1.404,0.857,2.373,124.36
 14:39:20.611,eb:33:2e:f9:57:b5, 2085-97-251 255:250:255:2069,-0.007,0.005,1.007,4.578,16.663,-1.099,0.917,2.538,124.343
 14:39:20.611,eb:33:2e:f9:57:b5, 2085-97-220 255:245:255:2062,-0.032,-0.003,1.012,6.47,15.381,-0.916,0.972,2.697,124.332
 14:39:20.671,eb:33:2e:f9:57:b5, 2085-97-196 255:247:255:2041,-0.042,-0.009,0.999,7.874,13.611,-0.427,1.06,2.851,124.316
 14:39:20.671,eb:33:2e:f9:57:b5, 2085-97-183 255:00:00:2039,-0.027,-0.008,0.995,9.399,10.376,0.244,1.148,2.972,124.316
 14:39:20.671,eb:33:2e:f9:57:b5, 2085-97-204 255:10:00:2056,-0.019,0.002,1.006,10.62,8.423,0.61,1.258,3.071,124.316
 14:39:20.671,eb:33:2e:f9:57:b5, 2085-97-220 255:11:00:2074,-0.022,0.005,1.014,12.329,6.592,0.732,1.373,3.142,124.327
 14:39:20.702,eb:33:2e:f9:57:b5, 2085-97-199 255:05:00:2084,-0.02,0.006,1.016,13.794,6.104,0.732,1.516,3.214,124.332
 14:39:20.702,eb:33:2e:f9:57:b5, 2085-97-215 255:13:00:2112,-0.025,0.009,1.027,14.771,5.859,0.977,1.659,3.274,124.338
 14:39:20.702,eb:33:2e:f9:57:b5, 2085-97-232 255:27:00:2135,-0.018,0.001,1.048,16.846,5.432,1.038,1.829,3.334,124.349
 14:39:20.702,eb:33:2e:f9:57:b5, 2085-97-228 255:31:00:2121,-0.019,0.015,1.03,17.456,7.263,0.916,2.005,3.4,124.36
 14:39:20.702,eb:33:2e:f9:57:b5, 2085-97-218 255:08:00:2325,0.004,0.011,1.062,17.883,9.705,1.038,2.192,3.494,124.365
 14:39:20.702,eb:33:2e:f9:57:b5, 2085-97-05 00:17:00:2429,-0.032,0.011,1.173,24.048,9.888,0.732,2.401,3.587,124.376
 14:39:20.702,eb:33:2e:f9:57:b5, 2085-97-247 255:75:00:2298,-0.063,0.004,1.138,30.945,9.705,2.136,2.692,3.708,124.387
 14:39:20.702,eb:33:2e:f9:57:b5, 2085-97-68 255:150:255:2435,-0.073,-0.035,1.219,43.274,-2.563,1.465,3.071,3.719,124.404
 14:39:20.760,eb:33:2e:f9:57:b5, 2085-97-109 255:195:255:2432,-0.095,-0.023,1.142,52.49,-10.315,4.333,3.571,3.664,124.431
 14:39:20.760,eb:33:2e:f9:57:b5, 2085-97-105 255:203:255:2550,-0.043,-0.04,1.206,62.134,-17.151,6.714,4.147,3.521,124.552
 14:39:20.760,eb:33:2e:f9:57:b5, 2085-97-216 255:223:255:2915,0.029,-0.008,1.324,74.219,-22.4,7.507,4.845,3.318,124.607
 14:39:20.760,eb:33:2e:f9:57:b5, 2085-97-194 00:25:00:3169,0.127,-0.016,1.536,89.294,-18.372,6.531,5.669,3.098,124.733
 14:39:20.793,eb:33:2e:f9:57:b5, 2085-97-229 00:09:00:3454,0.173,0.02,1.598,105.896,-6.653,2.502,6.663,2.966,124.761
 14:39:20.793,eb:33:2e:f9:57:b5, 2085-97-95 02:06:01:3246,0.224,0.069,1.655,123.535,9.583,-0.61,7.817,3.005,124.849
 14:39:20.793,eb:33:2e:f9:57:b5, 2085-97-26 01:198:255:3418,0.134,0.064,1.58,139.832,11.902,-8.362,9.157,3.12,124.805
 14:39:20.793,eb:33:2e:f9:57:b5, 2085-97-11 01:161:255:3630,0.098,-0.043,1.762,157.837,20.691,-9.277,10.651,3.296,124.81
 14:39:20.822,eb:33:2e:f9:57:b5, 2085-97-144 00:216:254:3786,0.151,-0.074,1.857,174.744,35.706,-7.324,12.343,3.587,124.766
 14:39:20.822,eb:33:2e:f9:57:b5, 2085-97-155 01:134:255:3554,0.235,-0.105,1.81,198.303,55.42,-2.563,14.222,4.059,124.893
 14:39:20.822,eb:33:2e:f9:57:b5, 2085-97-237 01:133:255:3724,0.226,-0.031,1.737,220.703,60.12,-6.287,16.337,4.636,124.991
 14:39:20.822,eb:33:2e:f9:57:b5, 2085-97-175 01:151:255:4029,0.247,-0.092,1.884,244.324,68.97,-9.216,18.677,5.29,125.162
 14:39:20.881,eb:33:2e:f9:57:b5, 2085-97-14 02:215:254:4511,0.275,-0.113,2.096,270.447,69.214,-15.625,21.27,5.993,125.255
 14:39:20.881,eb:33:2e:f9:57:b5, 2085-97-174 02:73:255:4919,0.384,-0.154,2.307,302.551,75.684,-24.658,24.153,6.729,125.381
 14:39:20.881,eb:33:2e:f9:57:b5, 2085-97-164 03:180:255:5328,0.499,0.017,2.484,334.534,92.407,-38.574,27.372,7.63,125.442
 14:39:20.881,eb:33:2e:f9:57:b5, 2085-97-181 04:168:255:5144,0.588,-0.054,2.568,361.206,116.028,-50.171,30.877,8.778,125.601
 14:39:20.910,eb:33:2e:f9:57:b5, 2085-97-104 03:253:255:5453,0.292,-0.012,2.501,381.47,117.371,-66.284,34.629,10.102,125.711
 14:39:20.910,eb:33:2e:f9:57:b5, 2085-97-179 02:44:254:5614,0.348,-0.077,2.856,389.16,129.7,-74.158,38.496,11.519,125.887
 14:39:20.910,eb:33:2e:f9:57:b5, 2085-97-30 03:181:253:5101,0.457,-0.313,2.521,405.884,132.812,-77.271,42.528,13.035,126.151
 14:39:20.910,eb:33:2e:f9:57:b5, 2085-97-223 03:220:253:5324,0.547,-0.237,2.572,412.659,123.047,-84.9,46.675,14.513,126.486
 14:39:20.971,eb:33:2e:f9:57:b5, 2085-97-26 05:134:250:4477,0.698,-0.447,2.474,420.044,131.287,-88.318,50.911,16.007,126.826
 14:39:20.971,eb:33:2e:f9:57:b5, 2085-97-134 06:128:249:3856,0.998,-0.732,1.83,422.668,137.817,-88.135,55.25,17.54,127.419
 14:39:20.971,eb:33:2e:f9:57:b5, 2085-97-30 09:250:245:3614,1.446,-1,1.975,420.715,148.438,-87.708,59.639,19.067,128.128
 14:39:20.971,eb:33:2e:f9:57:b5, 2085-97-227 09:133:246:-2616,0.385,-1.605,0.562,383.057,162.781,-84.839,63.979,20.566,129.128
 14:39:21.001,eb:33:2e:f9:57:b5, 2085-97-65 255:40:247:-4442,0.028,-0.998,-2.429,228.455,84.595,-73.608,67.33,21.852,129.968
 14:39:21.001,eb:33:2e:f9:57:b5, 2085-97-32 02:47:247:-838,0.423,-1.147,-1.216,38.574,-3.174,-36.926,68.549,22.489,130.117
 14:39:21.001,eb:33:2e:f9:57:b5, 2085-97-78 03:38:248:1142,0.333,-1.012,0.208,-103.882,-40.894,-5.493,68.022,22.544,129.738
 14:39:21.001,eb:33:2e:f9:57:b5, 2085-97-118 02:219:248:1871,0.346,-0.944,0.77,-178.467,-20.142,12.939,66.434,22.368,129.501
 14:39:21.031,eb:33:2e:f9:57:b5, 2085-97-125 03:61:250:2011,0.483,-0.826,0.985,-203.857,6.775,21.484,64.484,22.176,129.551
 14:39:21.031,eb:33:2e:f9:57:b5, 2085-97-199 03:227:251:1370,0.445,-0.599,0.862,-204.346,15.869,15.564,62.501,22.077,129.814
 14:39:21.031,eb:33:2e:f9:57:b5, 2085-97-112 03:111:252:514,0.448,-0.472,0.45,-200.195,4.944,5.676,60.518,22.039,129.968
 14:39:21.031,eb:33:2e:f9:57:b5, 2085-97-144 03:156:252:040,0.419,-0.429,0.119,-198.181,-21.973,-5.066,58.508,21.995,129.935
 14:39:21.091,eb:33:2e:f9:57:b5, 2085-97-07 03:30:252:139,0.318,-0.447,0.011,-201.66,-56.763,-15.564,56.371,21.852,129.512
 14:39:21.091,eb:33:2e:f9:57:b5, 2085-97-11 02:136:251:493,0.195,-0.526,0.149,-212.952,-82.886,-20.081,54.075,21.577,128.826
 14:39:21.091,eb:33:2e:f9:57:b5, 2085-97-30 01:34:251:881,0.097,-0.586,0.338,-232.361,-95.459,-17.029,51.575,21.16,127.958
 14:39:21.091,eb:33:2e:f9:57:b5, 2085-97-144 00:234:250:1252,0.069,-0.627,0.526,-257.141,-91.492,-6.653,48.873,20.632,127.178
 14:39:21.122,eb:33:2e:f9:57:b5, 2085-97-183 00:55:251:1532,0.12,-0.63,0.694,-279.724,-78.918,6.836,45.983,20.034,126.546
 14:39:21.122,eb:33:2e:f9:57:b5, 2085-97-79 01:07:252:1641,0.197,-0.547,0.783,-295.288,-68.42,18.433,42.984,19.418,126.183
 14:39:21.122,eb:33:2e:f9:57:b5, 2085-97-202 01:197:252:1615,0.247,-0.444,0.791,-302.734,-68.542,25.94,39.897,18.748,125.914
 14:39:21.122,eb:33:2e:f9:57:b5, 2085-97-35 02:70:253:1709,0.279,-0.371,0.805,-304.199,-78.918,30.518,36.804,17.99,125.744
 14:39:21.122,eb:33:2e:f9:57:b5, 2085-113-58 00:127:219:540,0.284,-0.311,0.873,-302.612,-93.567,33.447,33.706,17.089,125.524
 14:39:21.152,eb:33:2e:f9:57:b5, 2085-97-65 02:238:253:2027,0.279,-0.283,0.926,-301.208,-100.891,34.729,32.168,16.578,125.409
 14:39:21.152,eb:33:2e:f9:57:b5, 2085-97-40 02:57:254:2353,0.258,-0.239,1.063,-298.218,-113.77,37.537,29.13,15.463,125.244
 14:39:21.152,eb:33:2e:f9:57:b5, 2085-97-239 01:102:254:2725,0.231,-0.21,1.236,-295.898,-121.338,41.26,26.109,14.216,125.068
 14:39:21.152,eb:33:2e:f9:57:b5, 2085-97-213 01:97:254:3017,0.23,-0.2,1.407,-295.532,-122.07,47.363,23.143,12.92,125.052
 14:39:21.211,eb:33:2e:f9:57:b5, 2085-97-139 01:108:254:3231,0.263,-0.197,1.512,-296.387,-119.995,54.382,20.176,11.602,125.112
 14:39:21.211,eb:33:2e:f9:57:b5, 2085-97-46 02:208:254:3236,0.271,-0.154,1.55,-299.072,-116.76,62.561,17.227,10.305,125.387
 14:39:21.211,eb:33:2e:f9:57:b5, 2085-97-99 02:64:255:3495,0.327,-0.132,1.625,-299.194,-116.943,69.641,14.249,8.998,125.75
 14:39:21.211,eb:33:2e:f9:57:b5, 2085-97-212 02:31:00:3896,0.35,-0.043,1.802,-292.419,-116.089,75.317,11.321,7.712,126.299
 14:39:21.242,eb:33:2e:f9:57:b5, 2085-97-128 03:10:01:4160,0.458,0.078,1.946,-279.114,-118.774,78.979,8.481,6.427,126.892
 14:39:21.242,eb:33:2e:f9:57:b5, 2085-97-197 03:132:01:4286,0.484,0.166,2.07,-262.146,-122.62,80.139,5.806,5.153,127.634
 14:39:21.242,eb:33:2e:f9:57:b5, 2085-97-26 04:159:01:4346,0.561,0.196,2.104,-253.357,-133.179,80.627,3.23,3.818,128.37
 14:39:21.242,eb:33:2e:f9:57:b5, 2085-97-190 04:242:01:4506,0.616,0.221,2.151,-256.592,-144.958,80.383,0.681,2.411,129.161
 14:39:21.272,eb:33:2e:f9:57:b5, 2085-97-10 05:243:01:4940,0.625,0.255,2.288,-266.296,-159.79,79.529,-1.989,0.901,130.012
 14:39:21.272,eb:33:2e:f9:57:b5, 2085-97-129 04:38:01:5463,0.489,0.195,2.55,-277.161,-173.035,81.848,-4.779,-0.703,130.946
 14:39:21.272,eb:33:2e:f9:57:b5, 2085-97-180 03:252:01:5732,0.482,0.159,2.756,-288.635,-175.903,92.224,-7.734,-2.346,132.05
 14:39:21.272,eb:33:2e:f9:57:b5, 2085-97-50 04:30:04:5713,0.498,0.369,2.806,-302.124,-171.997,104.431,-10.86,-3.873,133.352
 14:39:21.360,eb:33:2e:f9:57:b5, 2085-97-152 03:235:06:4547,0.527,0.664,2.625,-306.03,-158.325,105.774,-14.156,-5.224,134.797
 14:39:21.360,eb:33:2e:f9:57:b5, 2085-97-55 05:111:13:3666,0.639,1.251,1.864,-280.151,-195.74,75.256,-17.331,-6.614,136.208
 14:39:21.360,eb:33:2e:f9:57:b5, 2085-97-116 03:78:16:5062,0.156,1.959,2.069,-258.728,-262.329,23.499,-20.275,-8.674,137.488
 14:39:21.360,eb:33:2e:f9:57:b5, 2085-97-89 255:183:17:5862,-0.335,2.073,2.759,-239.99,-251.831,-17.395,-23.011,-11.113,138.538
 14:39:21.362,eb:33:2e:f9:57:b5, 2085-97-199 250:222:24:4913,-1.1,2.604,2.788,-223.511,-166.748,-46.997,-25.505,-13.167,139.164
 14:39:21.362,eb:33:2e:f9:57:b5, 2085-97-190 243:201:33:2951,-1.875,3.688,1.837,-198.425,-121.216,-74.036,-27.647,-14.645,139.252
 14:39:21.362,eb:33:2e:f9:57:b5, 2085-97-105 239:54:35:4030,-2.142,4.506,1.46,-136.597,-144.043,-100.342,-29.29,-16.238,139.12
 14:39:21.362,eb:33:2e:f9:57:b5, 2085-97-20 239:65:27:6520,-2.034,3.981,2.671,-34.973,-112.366,-108.704,-30.031,-17.957,138.884
 14:39:21.391,eb:33:2e:f9:57:b5, 2085-97-01 242:74:18:5439,-1.35,2.848,3.094,49.744,23.865,-84.595,-29.603,-18.814,138.203
 14:39:21.391,eb:33:2e:f9:57:b5, 2085-97-97 248:178:12:3970,-0.607,1.836,2.331,87.402,141.052,-53.284,-28.427,-18.364,137.065
 14:39:21.391,eb:33:2e:f9:57:b5, 2085-97-163 253:114:11:2587,-0.012,1.461,1.539,91.553,191.711,-28.87,-27.026,-17.001,135.78
 14:39:21.391,eb:33:2e:f9:57:b5, 2085-97-104 249:89:245:13940,0.069,1.409,1.13,87.646,164.917,-25.574,-25.746,-15.469,134.637
 14:39:21.451,eb:33:2e:f9:57:b5, 2085-97-229 04:194:252:1069,0.665,-0.997,3.462,134.094,370.422,62.5,-24.142,-12.761,133.511
 14:39:21.451,eb:33:2e:f9:57:b5, 2085-97-136 05:200:245:1438,0.172,-0.586,0.619,98.022,304.565,81.787,-22.863,-9.465,132.803
 14:39:21.451,eb:33:2e:f9:57:b5, 2085-97-170 01:178:239:635,-0.087,-1.437,0.318,139.282,194.885,103.699,-21.621,-6.877,132.687
 14:39:21.451,eb:33:2e:f9:57:b5, 2085-97-05 254:130:247:1925,-0.208,-1.823,0.923,204.468,105.103,114.624,-19.957,-5.186,133.182
 14:39:21.542,eb:33:2e:f9:57:b5, 2085-97-95 253:150:252:2650,-0.329,-0.772,1.078,255.127,61.951,101.807,-17.688,-4.076,133.934
 14:39:21.542,eb:33:2e:f9:57:b5, 2085-97-169 252:184:01:2442,-0.604,-0.034,1.316,257.507,80.017,88.135,-15.183,-3.159,134.643
 14:39:21.542,eb:33:2e:f9:57:b5, 2085-97-233 250:89:04:1791,-0.533,0.379,0.979,225.22,87.646,73.059,-12.821,-2.093,135.198
 14:39:21.542,eb:33:2e:f9:57:b5, 2085-97-53 253:80:03:2237,-0.259,0.551,0.993,182.251,55.176,33.875,-10.833,-1.285,135.549
 14:39:21.544,eb:33:2e:f9:57:b5, 2085-97-203 254:09:00:2385,-0.034,0.192,1.176,150.696,32.104,0.244,-9.201,-0.846,135.61
 14:39:21.544,eb:33:2e:f9:57:b5, 2085-97-167 00:150:254:2362,0.219,-0.146,1.146,144.714,18.311,-13.123,-7.729,-0.626,135.472
 14:39:21.544,eb:33:2e:f9:57:b5, 2085-97-15 02:123:255:2437,0.219,-0.115,1.214,132.141,23.254,-2.686,-6.306,-0.45,135.352
 14:39:21.544,eb:33:2e:f9:57:b5, 2085-97-194 00:95:00:2219,0.052,-0.024,1.101,112.305,41.809,13.123,-5.103,-0.11,135.385
 14:39:21.572,eb:33:2e:f9:57:b5, 2085-97-145 00:223:02:2173,0.066,0.151,1.102,84.961,45.105,12.085,-4.109,0.374,135.478
 14:39:21.572,eb:33:2e:f9:57:b5, 2085-97-216 255:144:01:1950,-0.073,0.294,1.02,54.688,36.743,-6.775,-3.444,0.78,135.461
 14:39:21.572,eb:33:2e:f9:57:b5, 2085-97-208 255:174:255:2013,0.059,0.038,0.931,40.039,23.01,-12.817,-2.966,1.066,135.313
 14:39:21.572,eb:33:2e:f9:57:b5, 2085-97-175 00:227:255:2178,0.041,-0.048,1.051,33.264,21.362,-3.784,-2.598,1.263,135.22
 14:39:21.601,eb:33:2e:f9:57:b5, 2085-97-166 255:89:00:1955,-0.096,0.043,1.004,26.489,24.597,-2.747,-2.285,1.511,135.176
 14:39:21.601,eb:33:2e:f9:57:b5, 2085-97-161 255:168:255:1957,0.039,0.002,0.915,22.888,14.404,-5.432,-2.038,1.703,135.115
 14:39:21.601,eb:33:2e:f9:57:b5, 2085-97-172 00:241:255:2156,0.057,-0.035,1.017,20.752,11.536,-2.075,-1.802,1.824,135.066
 14:39:21.601,eb:33:2e:f9:57:b5, 2085-97-249 255:224:255:2052,-0.028,-0.004,1.04,17.09,17.212,-0.183,-1.615,1.972,135.049
 14:39:21.631,eb:33:2e:f9:57:b5, 2085-97-222 255:160:255:2069,0.004,-0.029,0.989,14.709,15.137,2.197,-1.445,2.142,135.049
 14:39:21.631,eb:33:2e:f9:57:b5, 2085-97-47 00:157:255:2153,0.031,-0.061,1.035,15.747,13.977,3.601,-1.296,2.285,135.077
 14:39:21.631,eb:33:2e:f9:57:b5, 2085-97-52 00:203:255:2148,0.009,-0.029,1.056,16.785,16.296,3.601,-1.115,2.444,135.099
 14:39:21.631,eb:33:2e:f9:57:b5, 2085-97-246 255:184:255:2072,-0.015,-0.031,1.019,17.883,17.273,2.991,-0.945,2.62,135.126
 14:39:21.722,eb:33:2e:f9:57:b5, 2085-97-200 255:195:255:2044,-0.038,-0.034,1.007,19.592,14.954,2.319,-0.742,2.785,135.143
 14:39:21.722,eb:33:2e:f9:57:b5, 2085-97-208 255:186:255:2083,-0.01,-0.038,1.001,20.142,11.414,3.052,-0.544,2.917,135.165
 14:39:21.722,eb:33:2e:f9:57:b5, 2085-97-04 00:181:255:2119,0.003,-0.039,1.028,21.179,10.62,3.784,-0.319,3.032,135.192
 14:39:21.722,eb:33:2e:f9:57:b5, 2085-97-244 255:218:255:2069,-0.021,-0.023,1.026,21.24,12.024,4.028,-0.11,3.142,135.231
 14:39:21.782,eb:33:2e:f9:57:b5, 2085-97-221 255:00:00:2001,-0.015,-0.028,0.987,19.409,12.329,4.395,0.11,3.274,135.264
 14:39:21.782,eb:33:2e:f9:57:b5, 2085-97-192 255:214:255:1971,-0.024,0.002,0.978,17.639,11.169,4.028,0.297,3.389,135.308
 14:39:21.782,eb:33:2e:f9:57:b5, 2085-97-200 255:236:255:1997,-0.028,0.002,0.966,15.564,9.338,4.761,0.472,3.499,135.346
 14:39:21.782,eb:33:2e:f9:57:b5, 2085-97-03 00:40:00:1969,-0.011,-0.015,0.966,13.367,9.094,5.249,0.615,3.593,135.396
 14:39:21.782,eb:33:2e:f9:57:b5, 2085-97-225 255:11:00:1964,-0.006,0,0.972,12.146,8.057,4.761,0.758,3.68,135.439
 14:39:21.782,eb:33:2e:f9:57:b5, 2085-97-211 255:05:00:1985,-0.021,0.015,0.974,11.292,6.653,4.7,0.873,3.752,135.566
 14:39:21.782,eb:33:2e:f9:57:b5, 2085-97-254 255:55:00:2001,-0.011,0.004,0.969,10.193,5.676,4.639,0.994,3.818,135.604
 14:39:21.783,eb:33:2e:f9:57:b5, 2085-97-214 255:13:00:1999,-0.018,0.014,0.984,10.376,4.822,3.662,1.099,3.873,135.72
 14:39:21.812,eb:33:2e:f9:57:b5, 2085-97-238 255:19:00:2027,-0.012,0,0.984,9.338,5.371,3.967,1.208,3.928,135.758
 14:39:21.812,eb:33:2e:f9:57:b5, 2085-97-248 255:40:00:2039,-0.007,0.014,0.985,9.155,5.859,3.784,1.302,3.983,135.868
 14:39:21.812,eb:33:2e:f9:57:b5, 2085-97-229 255:25:00:2046,-0.004,0.019,0.994,9.155,6.958,2.991,1.406,4.048,135.901
 14:39:21.812,eb:33:2e:f9:57:b5, 2085-97-07 00:49:00:2082,-0.004,0.019,1.008,9.155,8.606,2.319,1.5,4.125,136
 14:39:21.961,eb:33:2e:f9:57:b5, 2085-97-01 00:44:00:2080,-0.002,0.022,1.012,9.583,11.047,1.221,1.604,4.23,136.011
 14:39:21.961,eb:33:2e:f9:57:b5, 2085-97-251 255:56:00:2064,-0.004,0.023,1.01,9.46,13.855,0.061,1.703,4.356,136.093
 14:39:21.961,eb:33:2e:f9:57:b5, 2085-97-07 00:50:00:2187,-0.002,0.028,1.032,9.766,14.954,-1.526,1.813,4.51,136.082
 14:39:21.961,eb:33:2e:f9:57:b5, 2085-113-81 00:49:208:090,-0.016,0.016,1.055,11.841,17.212,-2.991,1.923,4.669,136.132
 14:39:21.963,eb:33:2e:f9:57:b5, 2085-97-210 255:33:00:2089,-0.041,0.012,1.028,12.207,17.639,-3.235,2,4.763,136.115
 14:39:21.963,eb:33:2e:f9:57:b5, 2085-97-177 255:06:00:2127,-0.048,0.007,1.036,14.221,16.663,-3.845,2.131,4.933,136.154
 14:39:21.963,eb:33:2e:f9:57:b5, 2085-97-150 255:29:00:2068,-0.061,0,1.026,16.663,14.832,-3.601,2.302,5.098,136.115
 14:39:21.963,eb:33:2e:f9:57:b5, 2085-97-117 255:04:00:2137,-0.068,0.003,1.027,18.921,11.841,-2.869,2.483,5.229,136.159
 14:39:21.965,eb:33:2e:f9:57:b5, 2085-97-116 255:10:00:2128,-0.078,0.004,1.047,22.644,8.362,-1.953,2.703,5.334,136.132
 14:39:21.965,eb:33:2e:f9:57:b5, 2085-97-105 255:250:255:2261,-0.052,0.012,1.057,26.855,4.456,-1.099,2.95,5.4,136.192
 14:39:21.965,eb:33:2e:f9:57:b5, 2085-97-192 255:48:00:2161,-0.028,0.005,1.097,33.325,0.488,-0.549,3.274,5.422,136.181
 14:39:21.965,eb:33:2e:f9:57:b5, 2085-97-201 255:89:00:2133,-0.03,0.035,1.032,35.339,0.305,-0.732,3.62,5.427,136.247
 14:39:21.990,eb:33:2e:f9:57:b5, 2085-97-187 255:86:00:2135,-0.048,0.042,1.045,36.621,1.038,-0.793,3.994,5.438,136.236
 14:39:21.990,eb:33:2e:f9:57:b5, 2085-97-129 255:53:00:2224,-0.054,0.036,1.053,38.574,-0.122,-0.427,4.373,5.444,136.302
 14:39:21.990,eb:33:2e:f9:57:b5, 2085-97-171 255:64:00:2339,-0.046,0.029,1.142,42.786,0.061,-0.366,4.79,5.449,136.296
 14:39:21.990,eb:33:2e:f9:57:b5, 2085-97-161 255:66:00:2326,-0.035,0.025,1.144,48.279,0.61,0,5.251,5.449,136.362
 14:39:22.051,eb:33:2e:f9:57:b5, 2085-97-184 255:78:00:2419,-0.044,0.042,1.146,53.223,0.916,0.427,5.773,5.466,136.362
 14:39:22.051,eb:33:2e:f9:57:b5, 2085-97-173 255:65:00:2543,-0.059,0.027,1.22,59.937,2.075,1.282,6.345,5.477,136.439
 14:39:22.051,eb:33:2e:f9:57:b5, 2085-97-73 255:48:00:2628,-0.117,0.025,1.252,67.932,3.418,2.441,7.004,5.504,136.461
 14:39:22.051,eb:33:2e:f9:57:b5, 2085-97-57 255:37:00:2720,-0.096,0.011,1.313,77.759,2.869,5.31,7.734,5.543,136.571
 14:39:22.053,eb:33:2e:f9:57:b5, 2085-97-73 255:13:00:2819,-0.049,0.008,1.331,90.454,-2.136,7.874,8.597,5.537,136.637
 14:39:22.053,eb:33:2e:f9:57:b5, 2085-97-71 00:119:00:2977,0.113,0.023,1.407,102.6,-3.113,9.888,9.569,5.499,136.791
 14:39:22.053,eb:33:2e:f9:57:b5, 2085-97-51 01:157:00:3380,0.202,0.055,1.58,119.995,-1.77,7.263,10.695,5.449,136.868
 14:39:22.054,eb:33:2e:f9:57:b5, 2085-97-232 01:171:00:3667,0.253,0.064,1.731,136.353,12.634,2.808,11.992,5.493,136.989
 14:39:22.080,eb:33:2e:f9:57:b5, 2085-97-253 01:78:00:3820,0.241,0.062,1.836,154.846,35.095,-1.648,13.464,5.74,137.032
 14:39:22.080,eb:33:2e:f9:57:b5, 2085-97-197 01:11:00:3809,0.244,0.056,1.867,177.49,54.382,-5.188,15.139,6.202,137.17
 14:39:22.080,eb:33:2e:f9:57:b5, 2085-97-36 02:211:255:3994,0.199,0.026,1.886,202.759,64.88,-8.423,17.067,6.817,137.258
 14:39:22.080,eb:33:2e:f9:57:b5, 2085-97-106 01:51:255:4299,0.215,-0.071,2.007,232.544,65.613,-13,19.259,7.482,137.411
 14:39:22.111,eb:33:2e:f9:57:b5, 2085-97-84 02:249:254:4399,0.343,-0.143,2.124,262.756,68.665,-18.311,21.769,8.168,137.477
 14:39:22.111,eb:33:2e:f9:57:b5, 2085-97-23 03:113:255:4513,0.486,-0.09,2.158,293.274,72.815,-25.879,24.571,8.91,137.593
 14:39:22.111,eb:33:2e:f9:57:b5, 2085-97-251 03:38:00:4773,0.457,0.007,2.244,327.698,78.735,-40.466,27.697,9.745,137.609
 14:39:22.111,eb:33:2e:f9:57:b5, 2085-97-57 03:237:253:5556,0.354,-0.113,2.592,364.807,92.468,-64.148,31.168,10.739,137.582
 14:39:22.171,eb:33:2e:f9:57:b5, 2085-97-112 02:246:253:5365,0.252,-0.301,2.721,399.963,114.563,-75.928,35.008,12.025,137.538
 14:39:22.171,eb:33:2e:f9:57:b5, 2085-97-148 00:163:00:4998,-0.055,-0.09,2.408,431.763,95.886,-83.313,39.199,13.37,137.571
 14:39:22.171,eb:33:2e:f9:57:b5, 2085-97-178 255:25:254:5578,0.009,-0.043,2.705,438.538,75.745,-87.769,43.528,14.557,137.417
 14:39:22.171,eb:33:2e:f9:57:b5, 2085-97-215 00:212:253:5216,0.186,-0.286,2.633,442.261,71.228,-88.989,47.928,15.699,137.357
 14:39:22.201,eb:33:2e:f9:57:b5, 2085-97-132 01:97:252:5168,0.202,-0.34,2.555,443.604,64.392,-97.961,52.322,16.842,137.225
 14:39:22.201,eb:33:2e:f9:57:b5, 2085-97-32 03:175:249:4174,0.639,-0.715,2.286,443.665,78.735,-92.407,56.766,18.051,137.258
 14:39:22.201,eb:33:2e:f9:57:b5, 2085-97-197 06:135:248:3797,1.079,-0.774,1.933,436.646,99.182,-88.257,61.238,19.276,137.56
 14:39:22.201,eb:33:2e:f9:57:b5, 2085-97-101 12:112:243:-302,1.284,-1.217,1.514,413.757,82.336,-89.783,65.632,20.495,138.027
 14:39:22.232,eb:33:2e:f9:57:b5, 2085-97-160 00:229:244:-6727,-0.212,-1.425,-2.261,278.32,65.308,-94.238,69.252,21.676,138.422
 14:39:22.232,eb:33:2e:f9:57:b5, 2085-97-133 00:33:246:-2389,0.375,-1.337,-2.446,53.101,-25.146,-70.129,70.714,22.511,138.257
 14:39:22.232,eb:33:2e:f9:57:b5, 2085-97-177 03:228:247:921,0.372,-1.104,-0.14,-101.929,-71.167,-37.842,70.093,22.791,137.516
 14:39:22.232,eb:33:2e:f9:57:b5, 2085-97-28 02:113:247:1500,0.249,-1.027,0.677,-194.031,-57.678,-19.653,68.269,22.797,136.796
 14:39:22.292,eb:33:2e:f9:57:b5, 2085-97-128 02:62:248:1396,0.394,-1.065,0.73,-234.985,-33.875,-5.981,65.912,22.725,136.318
 14:39:22.292,eb:33:2e:f9:57:b5, 2085-97-101 03:160:250:972,0.418,-0.814,0.59,-247.925,-24.109,-5.676,63.391,22.643,136.082
 14:39:22.292,eb:33:2e:f9:57:b5, 2085-97-22 03:182:251:608,0.362,-0.588,0.385,-250.549,-32.349,-12.695,60.782,22.588,135.78
 14:39:22.292,eb:33:2e:f9:57:b5, 2085-97-191 02:23:252:415,0.313,-0.508,0.242,-246.033,-54.016,-21.057,58.14,22.511,135.335
 14:39:22.351,eb:33:2e:f9:57:b5, 2085-97-44 02:69:252:411,0.212,-0.473,0.176,-238.647,-83.862,-29.114,55.47,22.319,134.577
 14:39:22.351,eb:33:2e:f9:57:b5, 2085-97-37 01:04:252:749,0.078,-0.478,0.279,-236.572,-109.436,-32.166,52.784,21.973,133.588
 14:39:22.351,eb:33:2e:f9:57:b5, 2085-97-52 00:166:251:1026,-0.014,-0.519,0.439,-242.859,-119.446,-28.442,50.032,21.462,132.451
 14:39:22.351,eb:33:2e:f9:57:b5, 2085-97-174 255:78:251:1260,-0.046,-0.569,0.557,-256.348,-117.554,-19.592,47.208,20.836,131.407
 14:39:22.500,eb:33:2e:f9:57:b5, 2085-97-182 255:138:251:1468,-0.019,-0.585,0.674,-269.653,-111.511,-9.155,44.291,20.11,130.474
 14:39:22.500,eb:33:2e:f9:57:b5, 2085-97-02 00:103:252:1582,0.021,-0.51,0.747,-278.809,-108.337,-0.916,41.331,19.325,129.738
 14:39:22.500,eb:33:2e:f9:57:b5, 2085-97-85 00:74:253:1712,0.051,-0.394,0.806,-282.349,-112.427,2.747,38.326,18.452,129.04
 14:39:22.500,eb:33:2e:f9:57:b5, 2085-97-101 00:255:253:1828,0.041,-0.29,0.861,-281.86,-122.253,2.502,35.338,17.485,128.414
 14:39:22.503,eb:33:2e:f9:57:b5, 2085-97-42 00:73:254:2061,-0.005,-0.224,0.929,-280.396,-134.644,0.244,32.355,16.386,127.716
 14:39:22.503,eb:33:2e:f9:57:b5, 2085-97-185 255:64:254:2434,-0.069,-0.214,1.088,-279.419,-144.287,-0.977,29.416,15.167,127.057
 14:39:22.503,eb:33:2e:f9:57:b5, 2085-97-61 255:11:254:2827,-0.11,-0.232,1.29,-280.212,-142.822,1.099,26.483,13.876,126.398
 14:39:22.503,eb:33:2e:f9:57:b5, 2085-97-21 255:210:253:3022,-0.11,-0.264,1.449,-281.067,-133.301,6.897,23.593,12.596,125.931
 14:39:22.531,eb:33:2e:f9:57:b5, 2085-97-68 255:252:253:2961,-0.065,-0.266,1.463,-282.532,-122.498,14.832,20.709,11.365,125.585
 14:39:22.531,eb:33:2e:f9:57:b5, 2085-97-179 255:89:254:3030,-0.008,-0.233,1.454,-283.447,-118.347,21.606,17.853,10.173,125.458
 14:39:22.531,eb:33:2e:f9:57:b5, 2085-97-39 00:237:254:3280,0.062,-0.174,1.534,-281.555,-116.821,26.611,15.002,8.965,125.392
 14:39:22.531,eb:33:2e:f9:57:b5, 2085-97-181 00:190:255:3667,0.121,-0.088,1.705,-273.987,-116.333,28.748,12.228,7.767,125.486
 14:39:22.531,eb:33:2e:f9:57:b5, 2085-97-39 01:142:00:3934,0.169,0.022,1.871,-259.521,-113.403,28.687,9.547,6.575,125.579
 14:39:22.531,eb:33:2e:f9:57:b5, 2085-97-118 01:242:00:4052,0.205,0.098,1.963,-241.699,-113.831,27.588,7.059,5.422,125.793
 14:39:22.531,eb:33:2e:f9:57:b5, 2085-97-162 01:23:01:3993,0.206,0.132,1.97,-228.943,-121.277,26.428,4.708,4.219,125.969
 14:39:22.532,eb:33:2e:f9:57:b5, 2085-97-190 01:15:01:4053,0.205,0.133,1.938,-228.271,-130.066,26.55,2.428,2.95,126.249
 14:39:22.536,eb:33:2e:f9:57:b5, 2085-97-222 01:59:01:4409,0.2,0.125,2.031,-233.643,-140.503,27.588,0.099,1.593,126.53
 14:39:22.536,eb:33:2e:f9:57:b5, 2085-97-178 01:166:01:4713,0.196,0.192,2.186,-242.92,-144.409,30.457,-2.313,0.181,126.881
 14:39:22.536,eb:33:2e:f9:57:b5, 2085-97-99 01:84:01:5105,0.189,0.193,2.334,-250.61,-150.757,34.973,-4.839,-1.258,127.332
 14:39:22.536,eb:33:2e:f9:57:b5, 2085-97-176 00:27:02:4951,0.042,0.23,2.532,-256.47,-149.841,44.434,-7.432,-2.719,127.919
 14:39:22.563,eb:33:2e:f9:57:b5, 2085-97-133 00:175:03:4997,0.041,0.331,2.322,-262.146,-157.104,55.847,-10.146,-4.147,128.699
 14:39:22.563,eb:33:2e:f9:57:b5, 2085-97-219 254:144:06:3967,0.114,0.627,3.027,-254.15,-147.095,63.171,-12.876,-5.559,129.633
 14:39:22.563,eb:33:2e:f9:57:b5, 2085-97-157 01:163:09:3981,0.129,1.024,1.836,-248.84,-180.359,48.645,-15.59,-7.059,130.638
 14:39:22.563,eb:33:2e:f9:57:b5, 2085-97-83 00:216:11:4919,-0.043,1.351,2.167,-236.328,-190.552,29.968,-18.221,-8.718,131.611
 14:39:22.981,eb:33:2e:f9:57:b5, 2085-97-20 255:69:14:5205,-0.188,1.611,2.565,-216.492,-163.879,10.925,-20.682,-10.338,132.451
 14:39:22.981,eb:33:2e:f9:57:b5, 2085-97-212 253:147:18:4249,-0.399,2.021,2.353,-197.998,-110.229,-6.958,-22.89,-11.574,133.006
 14:39:22.981,eb:33:2e:f9:57:b5, 2085-113-81 00:55:203:-1307,-0.619,2.669,1.75,-176.208,-79.163,-29.236,-24.824,-12.464,133.22
 14:39:22.981,eb:33:2e:f9:57:b5, 2085-97-170 248:16:26:2463,-1.253,3.01,1.421,-158.569,-84.29,-41.138,-25.659,-12.909,133.237
 14:39:22.981,eb:33:2e:f9:57:b5, 2085-97-132 243:231:25:2962,-1.795,3.341,1.197,-103.333,-118.469,-57.068,-26.971,-14.057,133.259
 14:39:22.983,eb:33:2e:f9:57:b5, 2085-97-117 240:39:21:4645,-1.985,2.981,1.866,-28.503,-116.333,-47.607,-27.636,-15.403,133.38
 14:39:22.983,eb:33:2e:f9:57:b5, 2085-97-227 240:62:15:5085,-1.67,2.269,2.497,41.87,-39.795,-12.024,-27.565,-16.238,133.506
 14:39:22.983,eb:33:2e:f9:57:b5, 2085-97-253 247:22:12:5014,-1.11,1.615,2.286,81.055,62.683,34.851,-26.906,-16.018,133.544
 14:39:22.983,eb:33:2e:f9:57:b5, 2085-97-167 250:160:12:6138,-0.118,1.223,6.431,177.307,227.234,63.293,-25.637,-14.645,133.38
 14:39:22.983,eb:33:2e:f9:57:b5, 2085-97-207 02:138:01:1002,0.548,0.993,0.579,168.213,246.948,75.256,-23.643,-12.085,132.946
 14:39:22.983,eb:33:2e:f9:57:b5, 2085-97-139 01:75:250:1382,0.159,-0.5,0.583,166.138,213.684,87.891,-21.973,-9.619,132.709
 14:39:22.984,eb:33:2e:f9:57:b5, 2085-97-147 01:189:243:2413,0.047,-0.62,0.958,174.805,164.001,96.863,-20.264,-7.548,132.885
 14:39:22.984,eb:33:2e:f9:57:b5, 2085-97-42 00:149:248:2976,-0.032,-1.4,1.353,191.772,125.549,86.548,-18.506,-5.944,133.242
 14:39:22.986,eb:33:2e:f9:57:b5, 2085-97-234 254:184:252:2577,-0.263,-0.748,1.347,220.825,104.736,64.026,-16.458,-4.625,133.577
 14:39:22.986,eb:33:2e:f9:57:b5, 2085-97-174 252:23:00:2025,-0.481,-0.209,1.085,220.886,90.088,55.115,-14.266,-3.543,133.863
 14:39:22.986,eb:33:2e:f9:57:b5, 2085-97-17 252:89:02:1686,-0.386,0.186,0.921,201.904,82.458,54.26,-12.184,-2.565,134.182
 14:39:22.986,eb:33:2e:f9:57:b5, 2085-97-177 254:37:02:2131,-0.072,0.283,0.895,169.861,61.951,39.673,-10.371,-1.763,134.495
 14:39:22.988,eb:33:2e:f9:57:b5, 2085-97-30 255:127:00:2175,-0.105,0.177,1.076,141.418,46.448,13.123,-8.844,-1.181,134.643
 14:39:22.988,eb:33:2e:f9:57:b5, 2085-97-71 255:88:255:2091,0.007,-0.019,1.012,133.118,28.015,-11.169,-7.482,-0.824,134.566
 14:39:22.988,eb:33:2e:f9:57:b5, 2085-97-08 01:127:255:2224,0.172,-0.061,1.047,129.944,17.822,-21.606,-6.136,-0.626,134.352
 14:39:22.988,eb:33:2e:f9:57:b5, 2085-97-191 00:203:255:2255,0.15,-0.073,1.084,118.225,25.391,-15.32,-4.872,-0.439,134.132
 14:39:23.011,eb:33:2e:f9:57:b5, 2085-97-32 01:15:02:2340,0,0.042,1.15,91.064,30.762,-4.7,-3.796,-0.137,134.006
 14:39:23.011,eb:33:2e:f9:57:b5, 2085-97-02 00:10:00:1994,-0.011,0.005,0.972,10.742,10.376,1.404,0.862,3.17,134.374
 14:39:23.011,eb:33:2e:f9:57:b5, 2085-97-214 255:250:255:1998,-0.035,0.001,0.972,9.46,10.193,1.404,0.972,3.279,134.385
 14:39:23.011,eb:33:2e:f9:57:b5, 2085-97-202 255:237:255:1994,-0.019,-0.017,0.974,8.789,8.301,2.075,1.066,3.373,134.473
 14:39:23.102,eb:33:2e:f9:57:b5, 2085-97-239 255:09:00:2023,0,-0.006,0.986,8.179,6.958,2.869,1.159,3.455,134.495
 14:39:23.102,eb:33:2e:f9:57:b5, 2085-97-07 00:21:00:2031,0.005,0.009,0.992,8.24,6.775,2.686,1.241,3.521,134.599
 14:39:23.102,eb:33:2e:f9:57:b5, 2085-97-10 00:34:00:2030,0.001,0.015,0.99,7.69,8.057,2.136,1.329,3.604,134.615
 14:39:23.102,eb:33:2e:f9:57:b5, 2085-97-242 255:29:00:2034,-0.005,0.018,0.992,7.446,9.399,1.465,1.406,3.691,134.709
 14:39:23.102,eb:33:2e:f9:57:b5, 2085-97-248 255:16:00:2072,0,0.011,1.001,7.629,9.705,1.099,1.494,3.796,134.72
 14:39:23.102,eb:33:2e:f9:57:b5, 2085-97-11 00:22:00:2118,0.001,0.01,1.021,8.057,11.658,0.61,1.577,3.9,134.802
 14:39:23.102,eb:33:2e:f9:57:b5, 2085-97-251 255:35:00:2100,-0.001,0.01,1.028,8.667,14.282,0.061,1.67,4.032,134.802
 14:39:23.102,eb:33:2e:f9:57:b5, 2085-97-222 255:24:00:2064,-0.022,0.017,1.025,9.216,16.785,-0.671,1.763,4.191,134.874
 14:39:23.190,eb:33:2e:f9:57:b5, 2085-97-217 255:26:00:2081,-0.012,0.014,1.005,9.521,17.212,-1.282,1.868,4.373,134.863
 14:39:23.190,eb:33:2e:f9:57:b5, 2085-97-11 00:28:00:2220,-0.007,0.019,1.02,10.01,17.883,-2.258,1.967,4.548,134.918
 14:39:23.190,eb:33:2e:f9:57:b5, 2085-97-176 255:248:255:2153,-0.046,0.005,1.079,12.451,21.362,-3.052,2.087,4.757,134.89
 14:39:23.190,eb:33:2e:f9:57:b5, 2085-97-165 255:00:00:2109,-0.034,-0.004,1.029,15.137,19.836,-2.747,2.23,4.96,134.934
 14:39:23.194,eb:33:2e:f9:57:b5, 2085-97-222 255:49:00:2118,-0.023,0.012,1.045,17.212,18.555,-3.052,2.401,5.158,134.907
 14:39:23.194,eb:33:2e:f9:57:b5, 2085-97-149 255:05:00:2194,-0.075,0.013,1.038,17.883,20.386,-3.601,2.582,5.356,134.951
 14:39:23.194,eb:33:2e:f9:57:b5, 2085-97-127 255:250:255:2258,-0.068,-0.01,1.103,23.315,17.578,-2.38,2.791,5.559,134.923
 14:39:23.194,eb:33:2e:f9:57:b5, 2085-97-99 255:229:255:2324,-0.07,0.011,1.079,30.762,10.559,-1.587,3.065,5.707,134.978
 14:39:23.312,eb:33:2e:f9:57:b5, 2085-97-164 255:22:00:2241,-0.039,-0.011,1.124,38.147,6.775,-0.244,3.428,5.795,134.967
 14:39:23.312,eb:33:2e:f9:57:b5, 2085-97-144 255:19:00:2320,-0.069,0.016,1.114,43.335,4.395,0.122,3.84,5.845,135.038
 14:39:23.312,eb:33:2e:f9:57:b5, 2085-97-106 255:255:255:2410,-0.081,0,1.155,49.744,2.075,1.038,4.318,5.883,135.044
 14:39:23.312,eb:33:2e:f9:57:b5, 2085-97-44 255:234:255:2462,-0.094,-0.001,1.174,57.617,-1.892,2.563,4.861,5.883,135.132
 14:39:23.312,eb:33:2e:f9:57:b5, 2085-97-103 255:28:00:2504,-0.071,-0.009,1.223,65.002,-3.662,4.456,5.488,5.861,135.165
 14:39:23.312,eb:33:2e:f9:57:b5, 2085-97-112 255:58:00:2573,-0.08,0.026,1.228,73.608,-5.737,5.493,6.191,5.806,135.28
 14:39:23.312,eb:33:2e:f9:57:b5, 2085-97-20 255:214:255:2669,-0.149,0.025,1.272,82.458,-6.226,6.348,6.987,5.746,135.33
 14:39:23.312,eb:33:2e:f9:57:b5, 2085-97-234 254:201:255:2611,-0.135,-0.034,1.301,95.215,-8.85,9.827,7.888,5.663,135.472
 14:39:23.316,eb:33:2e:f9:57:b5, 2085-97-25 255:234:255:2705,-0.073,-0.029,1.266,105.896,-17.151,13.062,8.91,5.526,135.566
 14:39:23.316,eb:33:2e:f9:57:b5, 2085-97-182 255:217:255:3013,0.025,-0.008,1.404,118.103,-23.621,14.954,10.036,5.301,135.742
 14:39:23.316,eb:33:2e:f9:57:b5, 2085-97-220 00:108:00:3262,0.176,0.021,1.509,133.972,-22.095,15.076,11.316,5.054,135.851
 14:39:23.316,eb:33:2e:f9:57:b5, 2085-97-19 02:130:00:3700,0.313,0.064,1.724,149.597,-10.681,11.597,12.744,4.856,136.016
 14:39:23.343,eb:33:2e:f9:57:b5, 2085-97-204 02:170:00:3632,0.341,0.074,1.804,169.067,14.343,5.554,14.359,4.872,136.104
 14:39:23.343,eb:33:2e:f9:57:b5, 2085-97-85 02:128:00:3651,0.254,0.091,1.758,188.843,36.56,-1.587,16.161,5.136,136.247
 14:39:23.343,eb:33:2e:f9:57:b5, 2085-97-230 01:214:255:3847,0.264,-0.002,1.859,210.449,52.856,-7.568,18.177,5.592,136.313
 14:39:23.343,eb:33:2e:f9:57:b5, 2085-97-65 02:16:00:3827,0.292,0.001,1.87,234.924,63.477,-13.672,20.418,6.196,136.461
 14:39:23.372,eb:33:2e:f9:57:b5, 2085-97-128 02:196:255:4263,0.337,-0.012,1.954,262.695,62.683,-22.339,22.923,6.85,136.5
 14:39:23.372,eb:33:2e:f9:57:b5, 2085-97-241 02:218:255:4780,0.364,-0.031,2.209,295.471,66.589,-32.288,25.73,7.559,136.56
 14:39:23.372,eb:33:2e:f9:57:b5, 2085-97-172 02:87:255:5533,0.43,-0.019,2.499,334.412,69.458,-47.974,28.9,8.344,136.489
 14:39:23.372,eb:33:2e:f9:57:b5, 2085-113-81 00:217:208:-1919,0.419,-0.349,2.751,371.948,92.041,-59.875,32.448,9.322,136.45
 14:39:23.432,eb:33:2e:f9:57:b5, 2085-97-75 03:165:254:5461,0.272,-0.232,2.671,390.686,96.924,-65.796,34.365,9.893,136.428
 14:39:23.432,eb:33:2e:f9:57:b5, 2085-97-130 00:92:00:5794,0.022,-0.095,2.674,418.518,88.989,-77.82,38.43,11.085,136.423
 14:39:23.432,eb:33:2e:f9:57:b5, 2085-97-27 00:182:253:5898,0.024,-0.062,2.949,433.716,84.778,-81.482,42.687,12.255,136.329
 14:39:23.432,eb:33:2e:f9:57:b5, 2085-97-239 00:69:252:5987,0.147,-0.381,2.8,449.89,76.965,-84.351,47.126,13.414,136.34
 14:39:23.492,eb:33:2e:f9:57:b5, 2085-97-205 01:184:251:6396,0.359,-0.408,3.099,444.58,87.891,-85.083,51.597,14.573,136.351
 14:39:23.492,eb:33:2e:f9:57:b5, 2085-97-53 04:252:248:4844,0.58,-0.715,2.823,447.021,127.136,-81.116,56.135,15.886,136.763
 14:39:23.492,eb:33:2e:f9:57:b5, 2085-97-25 06:117:246:3862,1.035,-0.929,1.992,435.242,151.245,-70.984,60.71,17.287,137.565
 14:39:23.492,eb:33:2e:f9:57:b5, 2085-97-208 09:232:242:2722,1.279,-1.648,1.731,409.424,165.405,-56.274,65.209,18.611,138.752
 14:39:23.492,eb:33:2e:f9:57:b5, 2085-97-215 06:177:249:-4097,0.316,-1.166,-0.424,346.619,171.021,-53.284,69.423,19.825,140.191
 14:39:23.492,eb:33:2e:f9:57:b5, 2085-97-90 02:51:248:-2831,0.476,-0.803,-2.201,149.17,90.454,-49.927,72.12,20.786,141.317
 14:39:23.492,eb:33:2e:f9:57:b5, 2085-97-218 04:168:249:000,0.609,-0.945,-0.576,5.432,16.724,-33.997,72.856,21.324,141.663
 14:39:23.492,eb:33:2e:f9:57:b5, 2085-97-105 04:248:250:855,0.485,-0.655,0.275,-85.51,-20.264,-30.945,72.323,21.605,141.531
 14:39:23.521,eb:33:2e:f9:57:b5, 2085-97-144 03:105:250:1329,0.443,-0.67,0.544,-136.902,-31.555,-29.48,71.027,21.791,141.141
 14:39:23.521,eb:33:2e:f9:57:b5, 2085-97-152 03:72:251:1303,0.426,-0.663,0.69,-157.837,-31.372,-29.663,69.395,21.956,140.762
 14:39:23.522,eb:33:2e:f9:57:b5, 2085-97-05 03:156:251:760,0.34,-0.546,0.517,-173.523,-38.696,-33.02,67.577,22.11,140.295
 14:39:23.522,eb:33:2e:f9:57:b5, 2085-97-121 02:40:251:404,0.275,-0.574,0.263,-194.275,-53.101,-32.898,65.55,22.22,139.746
 14:39:23.581,eb:33:2e:f9:57:b5, 2085-97-239 01:252:250:475,0.204,-0.626,0.19,-218.445,-67.078,-29.846,63.237,22.225,139.021
 14:39:23.581,eb:33:2e:f9:57:b5, 2085-97-95 01:47:251:761,0.148,-0.617,0.301,-241.394,-76.294,-24.292,60.672,22.104,138.257
 14:39:23.581,eb:33:2e:f9:57:b5, 2085-97-19 01:115:251:1036,0.136,-0.586,0.44,-259.705,-80.139,-17.212,57.881,21.857,137.439
 14:39:23.581,eb:33:2e:f9:57:b5, 2085-97-32 01:242:251:1258,0.148,-0.546,0.571,-274.109,-78.491,-9.277,54.97,21.511,136.719
 14:39:23.641,eb:33:2e:f9:57:b5, 2085-97-61 01:155:252:1288,0.16,-0.462,0.631,-286.987,-73.975,-1.892,51.949,21.088,136.06
 14:39:23.641,eb:33:2e:f9:57:b5, 2085-97-83 01:20:253:1299,0.177,-0.396,0.624,-297.302,-75.806,3.357,48.851,20.594,135.527
 14:39:23.641,eb:33:2e:f9:57:b5, 2085-97-142 01:143:253:1457,0.206,-0.336,0.666,-302.49,-86.06,7.141,45.665,19.984,134.962
 14:39:23.641,eb:33:2e:f9:57:b5, 2085-97-174 01:07:254:1641,0.209,-0.274,0.756,-302.917,-97.656,9.033,42.479,19.254,134.423
 14:39:23.643,eb:33:2e:f9:57:b5, 2085-97-170 01:75:254:1846,0.206,-0.227,0.848,-302.246,-108.093,10.132,39.282,18.386,133.819
 14:39:23.643,eb:33:2e:f9:57:b5, 2085-97-153 01:140:254:2080,0.184,-0.198,0.959,-302.673,-115.295,11.292,36.112,17.424,133.27
 14:39:23.643,eb:33:2e:f9:57:b5, 2085-97-85 01:215:254:2300,0.151,-0.163,1.065,-305.786,-119.873,12.817,32.926,16.364,132.715
 14:39:23.643,eb:33:2e:f9:57:b5, 2085-97-33 01:250:254:2607,0.135,-0.133,1.195,-310.303,-121.765,15.625,29.745,15.249,132.275
 14:39:23.760,eb:33:2e:f9:57:b5, 2085-97-23 01:18:255:2875,0.141,-0.121,1.343,-313.599,-119.263,19.653,26.532,14.084,131.885
 14:39:23.760,eb:33:2e:f9:57:b5, 2085-97-55 01:61:255:2970,0.162,-0.104,1.434,-313.538,-115.601,24.048,23.346,12.925,131.677
 14:39:23.760,eb:33:2e:f9:57:b5, 2085-97-92 01:64:255:2914,0.191,-0.092,1.446,-311.279,-115.417,28.076,20.182,11.75,131.523
 14:39:23.760,eb:33:2e:f9:57:b5, 2085-97-152 01:95:255:2979,0.227,-0.089,1.432,-308.533,-120.361,32.471,17.078,10.536,131.523
 14:39:23.761,eb:33:2e:f9:57:b5, 2085-97-228 01:172:255:3320,0.237,-0.063,1.538,-302.124,-126.77,35.828,14.002,9.24,131.556
 14:39:23.761,eb:33:2e:f9:57:b5, 2085-97-24 02:21:00:3787,0.239,-0.018,1.722,-289.429,-131.897,38.513,11.058,7.894,131.737
 14:39:23.761,eb:33:2e:f9:57:b5, 2085-97-36 02:118:00:4033,0.283,0.037,1.88,-272.644,-130.432,41.626,8.245,6.526,131.951
 14:39:23.761,eb:33:2e:f9:57:b5, 2085-97-107 02:196:00:4016,0.331,0.081,1.977,-256.287,-130.31,43.884,5.625,5.197,132.319
 14:39:23.765,eb:33:2e:f9:57:b5, 2085-97-225 02:226:00:4004,0.383,0.105,1.952,-249.146,-140.808,44.617,3.093,3.818,132.698
 14:39:23.765,eb:33:2e:f9:57:b5, 2085-97-47 03:227:00:4113,0.396,0.112,1.969,-257.751,-155.273,44.006,0.566,2.324,133.127
 14:39:23.765,eb:33:2e:f9:57:b5, 2085-97-252 02:139:00:4614,0.305,0.099,2.1,-278.015,-169.922,43.274,-2.164,0.698,133.621
 14:39:23.765,eb:33:2e:f9:57:b5, 2085-97-199 01:198:255:5559,0.128,0.008,2.506,-300.171,-175.964,49.072,-5.109,-1.005,134.22
 14:39:23.911,eb:33:2e:f9:57:b5, 2085-97-54 00:112:00:5781,-0.015,-0.019,2.851,-311.34,-163.879,63.965,-8.284,-2.626,135.027
 14:39:23.911,eb:33:2e:f9:57:b5, 2085-97-58 00:106:03:5323,0.048,0.221,2.677,-309.082,-161.438,76.416,-11.525,-4.054,136.044
 14:39:23.911,eb:33:2e:f9:57:b5, 2085-97-45 00:104:06:5432,-0.017,0.623,2.605,-300.659,-176.331,77.515,-14.777,-5.515,137.236
 14:39:23.911,eb:33:2e:f9:57:b5, 2085-97-134 255:176:09:5762,-0.093,0.992,2.73,-285.278,-180.054,70.251,-17.93,-7.004,138.51
 14:39:23.913,eb:33:2e:f9:57:b5, 2085-97-47 255:194:13:6039,-0.049,1.443,2.903,-265.442,-163.94,57.983,-20.945,-8.41,139.746
 14:39:23.913,eb:33:2e:f9:57:b5, 2085-97-71 00:215:20:5591,0.066,2.093,2.911,-243.408,-115.417,39.124,-23.708,-9.503,140.773
 14:39:23.913,eb:33:2e:f9:57:b5, 2085-97-93 255:11:32:3419,-0.489,3.273,2.339,-221.191,-62.256,3.357,-26.175,-10.157,141.345
 14:39:23.913,eb:33:2e:f9:57:b5, 2085-97-99 247:38:39:474,-1.684,4.603,0.815,-177.917,-113.159,-54.199,-28.213,-10.975,141.482
 14:39:23.941,eb:33:2e:f9:57:b5, 2085-97-108 238:217:34:2725,-2.58,4.783,0.406,-104.004,-241.76,-97.839,-29.674,-13.002,141.729
 14:39:23.941,eb:33:2e:f9:57:b5, 2085-97-162 233:233:24:7440,-2.769,3.781,2.56,-10.559,-233.765,-90.027,-30.372,-15.677,142.234
 14:39:23.942,eb:33:2e:f9:57:b5, 2085-97-07 236:40:14:7956,-2.06,2.397,4.13,70.251,-39.917,-39.062,-30.059,-17.205,142.421
 14:39:23.942,eb:33:2e:f9:57:b5, 2085-97-188 243:150:09:5382,-1.001,1.372,3.273,96.741,178.955,26.428,-28.993,-16.463,141.927
 14:39:23.944,eb:33:2e:f9:57:b5, 2085-97-122 05:67:14:5053,1.939,1.185,1.989,95.154,281.921,67.017,-27.74,-14.052,141.114
 14:39:23.944,eb:33:2e:f9:57:b5, 2085-97-25 253:06:250:1137,1.056,0.073,5.888,199.768,256.592,29.846,-26.038,-11.58,140.153
 14:39:23.944,eb:33:2e:f9:57:b5, 2085-97-106 05:205:249:1309,0.35,0.128,-0.868,177.429,186.218,19.348,-23.928,-9.294,139.384
 14:39:23.944,eb:33:2e:f9:57:b5, 2085-97-156 255:134:239:2745,0.011,-1.118,0.78,203.918,144.226,20.081,-21.94,-7.712,138.889
 14:39:23.972,eb:33:2e:f9:57:b5, 2085-97-03 00:183:247:2836,-0.14,-1.235,1.593,254.883,117.737,23.315,-19.594,-6.454,138.609
 14:39:23.972,eb:33:2e:f9:57:b5, 2085-97-125 253:168:253:2724,-0.466,-0.663,1.387,296.143,99.731,30.151,-16.749,-5.367,138.494
 14:39:23.972,eb:33:2e:f9:57:b5, 2085-97-86 251:180:01:2189,-0.511,0.059,1.265,274.475,100.22,45.959,-13.87,-4.296,138.582
 14:39:23.972,eb:33:2e:f9:57:b5, 2085-97-85 253:58:03:2180,-0.222,0.36,1.018,231.14,86.609,53.162,-11.398,-3.257,138.939
 14:39:24.062,eb:33:2e:f9:57:b5, 2085-97-130 254:103:01:2272,-0.104,0.302,1.125,184.265,63.049,31.982,-9.371,-2.433,139.213
 14:39:24.062,eb:33:2e:f9:57:b5, 2085-97-200 255:46:00:2277,0.096,0.083,1.121,159.607,33.508,2.991,-7.69,-1.956,139.356
 14:39:24.062,eb:33:2e:f9:57:b5, 2085-97-67 01:08:00:2276,0.093,0.003,1.196,143.616,20.02,-9.338,-6.147,-1.708,139.257
 14:39:24.062,eb:33:2e:f9:57:b5, 2085-97-168 01:98:02:2126,0.274,0.034,1.07,111.816,18.982,-8.179,-4.834,-1.511,139.213
 14:39:24.064,eb:33:2e:f9:57:b5, 2085-97-223 01:93:02:2408,0.053,0.238,1.164,64.087,24.963,-1.282,-3.994,-1.324,139.142
 14:39:24.064,eb:33:2e:f9:57:b5, 2085-97-222 255:42:00:1938,0.01,0.181,1.045,41.382,37.537,-2.136,-3.483,-0.983,139.164
 14:39:24.064,eb:33:2e:f9:57:b5, 2085-97-76 00:188:255:1998,0.044,-0.041,0.938,34.302,26.855,-2.808,-3.098,-0.659,139.109
 14:39:24.064,eb:33:2e:f9:57:b5, 2085-97-56 00:13:00:1983,0.005,-0.038,0.986,30.09,23.682,-2.625,-2.774,-0.417,139.131
 14:39:24.181,eb:33:2e:f9:57:b5, 2085-97-203 255:97:00:1925,-0.031,0.053,0.955,21.606,17.151,-2.319,-2.505,-0.203,139.092
 14:39:24.181,eb:33:2e:f9:57:b5, 2085-97-32 00:168:255:1996,0.074,-0.002,0.936,15.686,8.667,-1.953,-2.324,-0.077,139.125
 14:39:24.181,eb:33:2e:f9:57:b5, 2085-97-187 00:226:255:2123,0.07,-0.038,1.018,14.832,7.629,-0.977,-2.159,0,139.103
 14:39:24.181,eb:33:2e:f9:57:b5, 2085-113-81 00:68:211:-735,0.047,-0.019,1.034,13.794,10.62,-1.648,-2.01,0.093,139.153
 14:39:24.181,eb:33:2e:f9:57:b5, 2085-97-97 00:146:255:2117,0.056,-0.042,1.028,13.672,11.353,-0.488,-1.945,0.148,139.142
 14:39:24.181,eb:33:2e:f9:57:b5, 2085-97-94 00:142:255:2114,0.025,-0.058,1.041,14.771,12.329,0.977,-1.785,0.275,139.136
 14:39:24.181,eb:33:2e:f9:57:b5, 2085-97-53 00:115:255:2115,0.036,-0.058,1.028,16.052,11.597,1.831,-1.631,0.401,139.213
 14:39:24.182,eb:33:2e:f9:57:b5, 2085-97-106 00:136:255:2126,0.04,-0.068,1.033,18.005,11.475,3.418,-1.45,0.522,139.23
 14:39:24.182,eb:33:2e:f9:57:b5, 2085-97-80 00:161:255:2110,0.034,-0.057,1.037,19.714,12.39,4.028,-1.258,0.643,139.329
 14:39:24.185,eb:33:2e:f9:57:b5, 2085-97-59 00:145:255:2121,0.047,-0.055,1.039,20.935,13.733,5.066,-1.044,0.786,139.367
 14:39:24.185,eb:33:2e:f9:57:b5, 2085-97-100 00:166:255:2119,0.04,-0.047,1.046,23.193,14.343,4.761,-0.824,0.928,139.482
 14:39:24.185,eb:33:2e:f9:57:b5, 2085-97-79 00:208:255:2063,0.025,-0.041,1.024,24.109,14.282,4.456,-0.577,1.077,139.515
 14:39:24.185,eb:33:2e:f9:57:b5, 2085-97-33 00:203:255:1990,0.01,-0.019,0.986,22.4,14.282,4.7,-0.346,1.225,139.625
 14:39:24.512,eb:33:2e:f9:57:b5, 2085-97-28 00:213:255:1966,0.029,-0.035,0.963,19.47,12.695,5.615,-0.126,1.373,139.669
 14:39:24.512,eb:33:2e:f9:57:b5, 2085-97-51 00:254:255:1975,0.021,0.003,0.967,17.456,11.658,5.798,0.055,1.494,139.796
 14:39:24.512,eb:33:2e:f9:57:b5, 2085-97-88 00:29:00:2006,0.045,0,0.961,14.648,11.292,5.981,0.225,1.615,139.845
 14:39:24.512,eb:33:2e:f9:57:b5, 2085-97-62 00:05:00:1977,0.044,0.011,0.972,12.817,12.512,5.005,0.363,1.736,139.966
 14:39:24.512,eb:33:2e:f9:57:b5, 2085-97-59 00:09:00:1992,0.021,0.017,0.972,11.047,13.184,4.15,0.489,1.868,140.004
 14:39:24.512,eb:33:2e:f9:57:b5, 2085-97-53 00:09:00:1998,0.029,0.002,0.971,9.583,14.16,3.601,0.593,2.01,140.109
 14:39:24.512,eb:33:2e:f9:57:b5, 2085-97-43 00:06:00:2001,0.018,0.009,0.978,8.484,15.137,2.93,0.692,2.164,140.136
 14:39:24.512,eb:33:2e:f9:57:b5, 2085-97-46 00:09:00:2014,0.018,0.006,0.979,7.507,15.808,2.197,0.769,2.324,140.229
 14:39:24.515,eb:33:2e:f9:57:b5, 2085-97-46 00:16:00:2016,0.021,0.004,0.982,6.958,16.602,1.16,0.857,2.494,140.24
 14:39:24.515,eb:33:2e:f9:57:b5, 2085-97-29 00:12:00:2015,0.019,0.008,0.979,5.92,17.883,0.122,0.923,2.67,140.306
 14:39:24.515,eb:33:2e:f9:57:b5, 2085-97-25 00:11:00:2033,0.01,0.006,0.977,4.883,18.555,-1.038,0.989,2.856,140.301
 14:39:24.515,eb:33:2e:f9:57:b5, 2085-97-25 00:16:00:2052,0.033,0.01,0.982,4.761,18.982,-1.77,1.038,3.049,140.35
 14:39:24.516,eb:33:2e:f9:57:b5, 2085-97-31 00:14:00:2096,0.012,0.027,0.996,4.578,20.569,-3.54,1.093,3.252,140.317
 14:39:24.516,eb:33:2e:f9:57:b5, 2085-97-211 255:244:255:2084,-0.016,0.014,0.997,5.005,22.156,-4.761,1.143,3.472,140.339
 14:39:24.516,eb:33:2e:f9:57:b5, 2085-97-213 255:251:255:2082,-0.018,0.003,0.986,6.042,20.691,-4.761,1.208,3.697,140.29
 14:39:24.517,eb:33:2e:f9:57:b5, 2085-97-228 255:251:255:2076,-0.012,-0.003,1.014,7.812,19.043,-4.944,1.28,3.895,140.306
 14:39:24.519,eb:33:2e:f9:57:b5, 2085-97-00 00:11:00:2115,-0.003,-0.003,1.022,9.583,17.822,-5.188,1.379,4.081,140.251
 14:39:24.519,eb:33:2e:f9:57:b5, 2085-97-06 00:249:255:2200,-0.005,-0.005,1.057,11.963,17.883,-5.554,1.489,4.257,140.262
 14:39:24.519,eb:33:2e:f9:57:b5, 2085-97-240 255:25:00:2089,-0.028,-0.008,1.053,14.954,18.494,-5.737,1.637,4.449,140.202
 14:39:24.519,eb:33:2e:f9:57:b5, 2085-97-143 255:237:255:2153,-0.05,0.003,1.032,17.456,16.907,-6.287,1.802,4.625,140.208
 14:39:24.542,eb:33:2e:f9:57:b5, 2085-97-170 255:07:00:2109,-0.009,-0.008,1.049,22.095,13.733,-5.493,2.01,4.79,140.147
 14:39:24.542,eb:33:2e:f9:57:b5, 2085-97-104 00:10:00:3314,0.122,-0.021,1.581,140.076,-6.653,3.784,10.371,4.395,140.482
 14:39:24.542,eb:33:2e:f9:57:b5, 2085-97-85 01:228:255:3452,0.156,0.014,1.626,159.241,-2.625,1.16,11.887,4.356,140.493
 14:39:24.542,eb:33:2e:f9:57:b5, 2085-97-81 01:230:255:3653,0.122,0.007,1.709,179.993,6.165,-3.113,13.596,4.384,140.548
 14:39:24.633,eb:33:2e:f9:57:b5, 2085-97-200 00:73:255:3819,0.094,-0.034,1.84,200.317,20.996,-4.089,15.518,4.537,140.532
 14:39:24.633,eb:33:2e:f9:57:b5, 2085-97-114 00:47:255:3492,0.036,-0.116,1.757,222.229,33.264,-1.953,17.639,4.828,140.636
 14:39:24.633,eb:33:2e:f9:57:b5, 2085-97-143 00:48:255:3760,0.083,-0.106,1.749,246.155,30.09,-1.892,19.995,5.142,140.707
 14:39:24.633,eb:33:2e:f9:57:b5, 2085-97-24 01:241:254:4028,0.142,-0.101,1.89,272.949,28.076,-2.319,22.604,5.422,140.845
 14:39:24.633,eb:33:2e:f9:57:b5, 2085-97-152 01:109:254:4633,0.249,-0.134,2.107,304.504,28.564,-10.01,25.516,5.707,140.889
 14:39:24.633,eb:33:2e:f9:57:b5, 2085-113-81 00:243:213:-2071,0.363,-0.14,2.369,341.309,39.246,-21.484,28.762,6.086,140.949
 14:39:24.633,eb:33:2e:f9:57:b5, 2085-97-117 03:128:255:5013,0.466,-0.107,2.425,360.779,44.678,-29.602,30.531,6.339,140.922
 14:39:24.633,eb:33:2e:f9:57:b5, 2085-97-211 03:189:00:5115,0.383,0.06,2.52,403.015,42.297,-48.096,34.365,6.932,140.861
 14:39:24.661,eb:33:2e:f9:57:b5, 2085-97-38 02:113:00:5974,0.144,0.124,2.625,435.242,26.306,-64.758,38.573,7.542,140.565
 14:39:24.661,eb:33:2e:f9:57:b5, 2085-97-116 255:106:254:7393,-0.021,-0.047,3.219,445.129,39.551,-75.317,42.979,8.229,140.246
 14:39:24.661,eb:33:2e:f9:57:b5, 2085-97-22 01:01:253:6317,0.257,-0.365,3.515,449.646,85.999,-70.618,47.428,9.229,140.164
 14:39:24.661,eb:33:2e:f9:57:b5, 2085-97-175 02:243:251:5775,0.397,-0.371,2.811,460.51,88.806,-70.435,52.015,10.344,140.422
 14:39:24.691,eb:33:2e:f9:57:b5, 2085-97-19 04:223:249:5257,0.712,-0.699,2.807,467.773,96.313,-67.81,56.684,11.453,140.718
 14:39:24.691,eb:33:2e:f9:57:b5, 2085-97-215 07:247:247:4344,1.12,-0.865,2.417,474.548,111.389,-67.2,61.485,12.574,141.279
 14:39:24.691,eb:33:2e:f9:57:b5, 2085-97-00 10:84:246:1994,1.612,-1.104,1.661,468.689,99.06,-68.787,66.308,13.683,141.943
 14:39:24.691,eb:33:2e:f9:57:b5, 2085-97-84 12:235:249:-3583,0.588,-1.369,-0.189,395.264,68.97,-85.205,70.763,14.683,142.432
 14:39:24.752,eb:33:2e:f9:57:b5, 2085-97-32 01:162:246:-3546,0.188,-0.781,-2.35,212.585,-10.681,-118.53,73.817,15.804,142.388
 14:39:24.752,eb:33:2e:f9:57:b5, 2085-97-187 02:79:245:-053,0.435,-1.383,-0.777,-3.418,-62.317,-89.966,74.537,16.694,141.674
 14:39:24.752,eb:33:2e:f9:57:b5, 2085-97-138 03:179:247:1764,0.4,-1.18,0.532,-141.724,-57.739,-65.613,73.482,17.216,140.806
 14:39:24.752,eb:33:2e:f9:57:b5, 2085-97-222 02:120:248:2521,0.37,-0.977,1.081,-211.792,-23.987,-57.617,71.488,17.666,140.257
 14:39:24.781,eb:33:2e:f9:57:b5, 2085-97-189 02:174:249:2352,0.361,-0.868,1.241,-231.079,14.526,-55.054,69.17,18.177,140.026
 14:39:24.781,eb:33:2e:f9:57:b5, 2085-97-32 03:102:251:1371,0.39,-0.663,0.936,-230.53,30.518,-59.448,66.857,18.803,140.076
 14:39:24.781,eb:33:2e:f9:57:b5, 2085-97-157 02:98:251:455,0.319,-0.556,0.428,-230.347,18.677,-66.528,64.534,19.484,140.032
 14:39:24.781,eb:33:2e:f9:57:b5, 2085-97-149 02:245:250:214,0.293,-0.618,0.129,-235.046,-8.362,-71.472,62.128,20.121,139.768
 14:39:24.811,eb:33:2e:f9:57:b5, 2085-97-246 01:166:250:305,0.194,-0.645,0.118,-246.399,-33.813,-71.777,59.54,20.627,139.186
 14:39:24.811,eb:33:2e:f9:57:b5, 2085-97-50 01:113:250:549,0.111,-0.688,0.195,-263.367,-52.917,-66.467,56.761,20.962,138.439
 14:39:24.811,eb:33:2e:f9:57:b5, 2085-97-179 00:124:250:1069,0.085,-0.7,0.375,-283.936,-62.683,-55.298,53.74,21.105,137.571
 14:39:24.811,eb:33:2e:f9:57:b5, 2085-97-208 00:33:251:1451,0.118,-0.656,0.629,-304.565,-57.251,-37.476,50.543,21.077,136.818
 14:39:24.872,eb:33:2e:f9:57:b5, 2085-97-20 01:227:251:1585,0.154,-0.56,0.747,-314.88,-50.354,-22.339,47.236,20.934,136.214
 14:39:24.872,eb:33:2e:f9:57:b5, 2085-97-106 01:166:252:1635,0.201,-0.466,0.789,-315.796,-53.467,-9.583,43.934,20.676,135.775
 14:39:24.872,eb:33:2e:f9:57:b5, 2085-97-196 01:97:253:1666,0.23,-0.371,0.803,-311.523,-65.857,1.404,40.66,20.242,135.346
 14:39:24.872,eb:33:2e:f9:57:b5, 2085-97-232 01:219:253:1770,0.247,-0.293,0.831,-306.946,-83.984,10.986,37.452,19.605,134.967
 14:39:24.932,eb:33:2e:f9:57:b5, 2085-97-02 02:51:254:2024,0.257,-0.247,0.918,-303.65,-102.051,20.142,34.272,18.737,134.561
 14:39:24.932,eb:33:2e:f9:57:b5, 2085-97-36 02:183:254:2373,0.277,-0.198,1.073,-301.453,-115.417,28.625,31.157,17.672,134.236
 14:39:24.932,eb:33:2e:f9:57:b5, 2085-97-72 02:91:255:2668,0.292,-0.121,1.23,-299.866,-122.437,34.973,28.065,16.458,133.956
 14:39:24.932,eb:33:2e:f9:57:b5, 2085-97-103 02:244:255:2927,0.306,-0.042,1.366,-297.607,-126.953,38.757,25.038,15.172,133.802
 14:39:24.934,eb:33:2e:f9:57:b5, 2085-97-115 02:84:00:3124,0.299,0.022,1.481,-294.067,-129.883,40.466,22.039,13.821,133.693
 14:39:24.934,eb:33:2e:f9:57:b5, 2085-97-77 02:100:00:3304,0.274,0.05,1.568,-289.795,-130.798,42.48,19.111,12.453,133.709
 14:39:24.934,eb:33:2e:f9:57:b5, 2085-97-18 02:54:00:3471,0.262,0.038,1.661,-284.729,-126.831,47.607,16.227,11.08,133.781
 14:39:24.934,eb:33:2e:f9:57:b5, 2085-97-59 02:85:00:3670,0.3,0.025,1.741,-278.564,-121.643,56.274,13.442,9.756,134.061
 14:39:25.082,eb:33:2e:f9:57:b5, 2085-97-148 02:150:00:3825,0.347,0.059,1.844,-271.973,-118.042,66.711,10.701,8.454,134.451
 14:39:25.082,eb:33:2e:f9:57:b5, 2085-97-03 03:170:00:3839,0.418,0.083,1.873,-267.639,-119.08,77.576,8.047,7.185,135.071
 14:39:25.082,eb:33:2e:f9:57:b5, 2085-97-159 03:153:00:3855,0.489,0.076,1.869,-267.822,-125.427,88.257,5.383,5.878,135.791
 14:39:25.082,eb:33:2e:f9:57:b5, 2085-97-64 04:132:00:4134,0.581,0.069,1.939,-273.193,-135.01,99.304,2.697,4.526,136.736
 14:39:25.082,eb:33:2e:f9:57:b5, 2085-97-255 04:158:00:4558,0.658,0.068,2.128,-281.433,-146.301,110.657,-0.099,3.115,137.796
 14:39:25.082,eb:33:2e:f9:57:b5, 2085-97-109 05:245:00:4993,0.674,0.096,2.333,-290.405,-160.034,119.812,-2.994,1.631,139.098
 14:39:25.082,eb:33:2e:f9:57:b5, 2085-97-75 05:90:01:5435,0.652,0.141,2.547,-303.955,-171.204,129.7,-6.07,0.088,140.515
 14:39:25.082,eb:33:2e:f9:57:b5, 2085-97-42 05:95:02:5898,0.649,0.219,2.768,-318.97,-175.964,140.808,-9.327,-1.423,142.13
 14:39:25.112,eb:33:2e:f9:57:b5, 2085-97-77 05:96:04:6248,0.71,0.405,2.979,-328.979,-173.401,150.452,-12.799,-2.834,143.943
 14:39:25.112,eb:33:2e:f9:57:b5, 2085-97-24 05:209:07:5926,0.626,0.76,3.084,-330.261,-158.081,153.503,-16.359,-4.021,145.882
 14:39:25.112,eb:33:2e:f9:57:b5, 2085-97-229 05:32:14:4482,0.912,1.269,2.513,-306.396,-163.635,134.216,-19.858,-5.032,147.799
 14:39:25.112,eb:33:2e:f9:57:b5, 2085-97-110 07:123:23:4660,0.732,2.393,2.089,-273.499,-215.576,81.604,-23.027,-6.367,149.551
 14:39:25.411,eb:33:2e:f9:57:b5, 2085-97-59 03:96:29:4968,-0.118,3.329,2.456,-245.789,-240.173,12.268,-25.906,-8.306,150.985
 14:39:25.411,eb:33:2e:f9:57:b5, 2085-97-19 249:247:35:3552,-1.69,4.064,2.126,-215.393,-234.131,-51.208,-28.416,-10.492,151.924
 14:39:25.411,eb:33:2e:f9:57:b5, 2085-97-142 236:68:39:4457,-2.917,4.819,1.692,-169.373,-253.601,-93.018,-30.515,-12.997,152.534
 14:39:25.411,eb:33:2e:f9:57:b5, 2085-97-209 231:52:34:7922,-2.781,4.725,3.033,-86.243,-199.524,-94.971,-31.926,-15.502,152.996
 14:39:25.416,eb:33:2e:f9:57:b5, 2085-97-92 236:237:24:8280,-1.948,3.673,4.359,13.611,-8.545,-68.909,-32.173,-16.831,152.869
 14:39:25.416,eb:33:2e:f9:57:b5, 2085-97-162 244:54:17:5602,-0.959,2.628,3.246,64.88,189.697,-28.809,-31.349,-16.166,151.826
 14:39:25.416,eb:33:2e:f9:57:b5, 2085-97-78 252:175:13:2969,0.181,1.872,2.014,84.717,279.053,-6.775,-30.048,-14.123,150.276
 14:39:25.416,eb:33:2e:f9:57:b5, 2085-97-144 254:154:247:14087,0.779,1.554,1.304,99.243,226.685,-16.418,-28.746,-11.854,148.799
 14:39:25.419,eb:33:2e:f9:57:b5, 2085-97-226 03:53:253:-472,0.399,-1.022,2.103,156.189,347.717,42.664,-26.938,-8.844,147.31
 14:39:25.419,eb:33:2e:f9:57:b5, 2085-97-215 00:203:238:091,-0.117,-1.397,-0.068,144.836,202.271,44.983,-25.34,-6.169,146.387
 14:39:25.419,eb:33:2e:f9:57:b5, 2085-97-168 254:108:241:1644,-0.207,-2.082,0.501,214.417,81.421,55.847,-23.516,-4.757,146.277
 14:39:25.419,eb:33:2e:f9:57:b5, 2085-97-115 254:95:250:2579,-0.331,-1.145,1.031,302.185,27.71,64.758,-20.923,-4.087,146.662
 14:39:25.560,eb:33:2e:f9:57:b5, 2085-97-09 253:207:01:2833,-0.497,-0.259,1.382,311.157,37.354,72.327,-17.842,-3.571,147.2
 14:39:25.561,eb:33:2e:f9:57:b5, 2085-97-83 251:77:04:2205,-0.581,0.488,1.284,272.461,62.927,74.036,-15.002,-2.845,147.766
 14:39:25.561,eb:33:2e:f9:57:b5, 2085-97-63 253:83:03:2326,-0.19,0.545,1.101,223.328,46.021,41.565,-12.585,-2.137,148.189
 14:39:25.561,eb:33:2e:f9:57:b5, 2085-97-01 255:00:00:2271,0.011,0.209,1.128,187.134,14.038,-4.333,-10.585,-1.829,148.359
 14:39:25.652,eb:33:2e:f9:57:b5, 2085-97-207 00:220:254:2427,0.257,-0.089,1.172,181.763,1.404,-29.114,-8.718,-1.813,148.14
 14:39:25.652,eb:33:2e:f9:57:b5, 2085-97-31 00:234:255:2048,0.01,-0.073,1.251,165.161,12.817,-20.386,-6.938,-1.796,147.942
 14:39:25.652,eb:33:2e:f9:57:b5, 2085-97-02 00:231:255:2020,-0.01,-0.006,0.989,20.935,13.062,5.249,0.439,2.076,148.486
 14:39:25.652,eb:33:2e:f9:57:b5, 2085-97-251 255:236:255:1999,0.001,-0.019,0.975,18.433,12.146,5.92,0.632,2.203,148.612
 14:39:25.830,eb:33:2e:f9:57:b5, 2085-97-20 00:14:00:1976,0.012,-0.009,0.977,15.869,12.39,6.775,0.813,2.335,148.667
 14:39:25.830,eb:33:2e:f9:57:b5, 2085-97-15 00:12:00:1969,0.018,0.004,0.963,14.648,9.583,6.409,0.967,2.439,148.799
 14:39:25.830,eb:33:2e:f9:57:b5, 2085-97-44 00:69:00:1965,0.021,0.008,0.966,12.451,8.85,6.226,1.115,2.538,148.859
 14:39:25.830,eb:33:2e:f9:57:b5, 2085-97-239 255:240:255:1976,0.021,0.038,0.979,11.841,8.545,4.944,1.23,2.626,148.986
 14:39:25.832,eb:33:2e:f9:57:b5, 2085-97-23 00:50:00:1995,0.007,0.028,0.95,9.827,8.24,4.883,1.346,2.719,149.03
 14:39:25.834,eb:33:2e:f9:57:b5, 2085-97-17 00:24:00:1996,0.022,0.013,0.977,8.911,9.216,3.723,1.439,2.807,149.139
 14:39:25.834,eb:33:2e:f9:57:b5, 2085-97-51 00:46:00:2044,0.015,0.026,0.986,8.423,9.949,2.625,1.538,2.906,149.167
 14:39:25.834,eb:33:2e:f9:57:b5, 2085-97-45 00:47:00:2043,0.021,0.015,0.987,8.118,11.597,1.221,1.62,3.016,149.255
 14:39:25.835,eb:33:2e:f9:57:b5, 2085-97-25 00:49:00:2022,0.016,0.025,0.992,7.446,14.221,-0.244,1.714,3.153,149.255
 14:39:25.835,eb:33:2e:f9:57:b5, 2085-97-37 00:61:00:2052,0.007,0.029,0.99,6.47,17.151,-1.587,1.785,3.307,149.315
 14:39:25.835,eb:33:2e:f9:57:b5, 2085-97-17 00:55:00:2045,0.012,0.029,0.997,6.104,19.714,-2.38,1.857,3.505,149.288
 14:39:25.835,eb:33:2e:f9:57:b5, 2085-97-01 00:47:00:2049,0,0.028,1.004,6.165,21.057,-3.113,1.923,3.708,149.332
 14:39:25.891,eb:33:2e:f9:57:b5, 2085-97-252 255:48:00:2088,-0.007,0.021,1.011,6.47,22.278,-3.723,1.994,3.933,149.293
 14:39:25.891,eb:33:2e:f9:57:b5, 2085-97-224 255:19:00:2105,-0.029,0.016,1.034,8.057,21.973,-4.333,2.071,4.147,149.326
 14:39:25.891,eb:33:2e:f9:57:b5, 2085-97-183 255:17:00:2070,-0.041,0.009,1.011,9.521,21.973,-3.906,2.175,4.378,149.282
 14:39:25.891,eb:33:2e:f9:57:b5, 2085-97-165 255:16:00:2029,-0.053,0.007,1.008,11.597,19.592,-3.784,2.285,4.581,149.315
 14:39:25.891,eb:33:2e:f9:57:b5, 2085-113-81 00:23:222:111,-0.051,0.005,0.994,12.573,17.273,-3.418,2.417,4.774,149.277
 14:39:25.891,eb:33:2e:f9:57:b5, 2085-97-148 255:12:00:2060,-0.077,0.004,1.002,13.062,16.541,-3.052,2.477,4.856,149.26
 14:39:25.891,eb:33:2e:f9:57:b5, 2085-97-117 255:00:00:2233,-0.062,-0.015,1.103,30.09,-0.549,0.916,3.483,5.284,149.403
 14:39:25.891,eb:33:2e:f9:57:b5, 2085-97-146 255:16:00:2293,-0.038,0.004,1.103,35.156,-3.967,2.197,3.823,5.262,149.414
 14:39:25.891,eb:33:2e:f9:57:b5, 2085-97-200 255:28:00:2432,-0.037,0.01,1.15,40.833,-5.981,2.869,4.208,5.208,149.502
 14:39:25.895,eb:33:2e:f9:57:b5, 2085-97-191 255:05:00:2507,0.585,0.005,1.203,48.584,-6.348,3.235,4.669,5.153,149.524
