Time,Device name,Chip Time(),Acceleration X(g),Acceleration Y(g),Acceleration Z(g),Angular velocity X(°/s),Angular velocity Y(°/s),Angular velocity Z(°/s),Angle X(°),Angle Y(°),Angle Z(°)
 14:38:02.607,eb:33:2e:f9:57:b5, 2085-97-239 255:02:00:2034,-0.008,0.001,0.993,-0.122,0.183,-0.122,1.269,4.499,-75.553
 14:38:02.607,eb:33:2e:f9:57:b5, 2085-97-239 255:03:00:2034,-0.006,0,0.993,-0.122,0.183,-0.061,1.269,4.499,-75.558
 14:38:02.607,eb:33:2e:f9:57:b5, 2085-113-81 00:41:101:100,-0.007,0.001,0.993,-0.122,0.244,-0.183,1.269,4.499,-75.558
 14:38:02.607,eb:33:2e:f9:57:b5, 2085-97-240 255:04:00:2030,-0.007,0.001,0.992,-0.122,0.183,-0.122,1.269,4.499,-75.558
 14:38:02.667,eb:33:2e:f9:57:b5, 2085-97-241 255:01:00:2034,-0.008,0.002,0.992,-0.122,0.183,-0.183,1.269,4.499,-75.558
 14:38:02.667,eb:33:2e:f9:57:b5, 2085-97-240 255:05:00:2030,-0.008,0.002,0.992,-0.244,0.305,-0.244,1.269,4.499,-75.564
 14:38:02.667,eb:33:2e:f9:57:b5, 2085-97-240 255:03:00:2031,-0.008,0.002,0.992,-0.305,0.305,-0.183,1.269,4.499,-75.564
 14:38:02.667,eb:33:2e:f9:57:b5, 2085-97-239 255:02:00:2030,-0.009,0.002,0.991,-0.366,0.244,-0.244,1.269,4.499,-75.564
 14:38:02.669,eb:33:2e:f9:57:b5, 2085-97-238 255:02:00:2029,-0.009,0.001,0.992,-0.427,0.244,-0.244,1.269,4.499,-75.564
 14:38:02.669,eb:33:2e:f9:57:b5, 2085-97-238 255:00:00:2031,-0.009,0.001,0.992,-0.549,0.061,-0.183,1.269,4.499,-75.564
 14:38:02.669,eb:33:2e:f9:57:b5, 2085-97-237 255:02:00:2033,-0.01,0,0.992,-0.488,0,-0.183,1.269,4.499,-75.564
 14:38:02.669,eb:33:2e:f9:57:b5, 2085-97-236 255:254:255:2038,-0.009,0,0.994,-0.427,-0.183,-0.122,1.269,4.499,-75.569
 14:38:02.671,eb:33:2e:f9:57:b5, 2085-97-238 255:00:00:2038,-0.01,0,0.996,-0.366,-0.244,-0.061,1.269,4.499,-75.569
 14:38:02.671,eb:33:2e:f9:57:b5, 2085-97-238 255:00:00:2038,-0.008,0,0.995,-0.244,-0.305,0,1.269,4.499,-75.569
 14:38:02.671,eb:33:2e:f9:57:b5, 2085-97-241 255:254:255:2039,-0.007,0,0.996,-0.122,-0.427,0,1.269,4.499,-75.569
 14:38:02.671,eb:33:2e:f9:57:b5, 2085-97-242 255:02:00:2039,-0.007,0,0.996,-0.061,-0.244,0,1.269,4.499,-75.575
 14:38:02.728,eb:33:2e:f9:57:b5, 2085-97-241 255:00:00:2038,-0.007,0.001,0.995,0,-0.244,0.061,1.269,4.499,-75.575
 14:38:02.728,eb:33:2e:f9:57:b5, 2085-97-240 255:02:00:2036,-0.008,0.001,0.994,0.061,-0.183,0,1.269,4.499,-75.575
 14:38:02.728,eb:33:2e:f9:57:b5, 2085-97-241 255:00:00:2036,-0.008,0,0.994,0.122,-0.122,0.061,1.269,4.499,-75.575
 14:38:02.728,eb:33:2e:f9:57:b5, 2085-97-240 255:01:00:2033,-0.008,0,0.993,0.122,0,0,1.269,4.499,-75.575
 14:38:02.757,eb:33:2e:f9:57:b5, 2085-97-240 255:01:00:2032,-0.008,0,0.993,0.061,-0.061,0.061,1.269,4.499,-75.575
 14:38:02.757,eb:33:2e:f9:57:b5, 2085-97-240 255:01:00:2035,-0.008,0,0.994,0.061,-0.183,0.061,1.269,4.499,-75.58
 14:38:02.757,eb:33:2e:f9:57:b5, 2085-97-243 255:02:00:2035,-0.007,0.001,0.994,0.183,-0.122,0,1.269,4.499,-75.58
 14:38:02.757,eb:33:2e:f9:57:b5, 2085-97-242 255:02:00:2031,-0.008,0.001,0.993,0.183,-0.122,0.061,1.269,4.499,-75.58
 14:38:02.818,eb:33:2e:f9:57:b5, 2085-97-241 255:03:00:2031,-0.007,0.001,0.992,0.061,-0.061,0.061,1.263,4.499,-75.58
 14:38:02.818,eb:33:2e:f9:57:b5, 2085-97-243 255:02:00:2033,-0.006,0.001,0.992,0.061,-0.061,0,1.263,4.499,-75.58
 14:38:02.819,eb:33:2e:f9:57:b5, 2085-97-243 255:04:00:2031,-0.007,0.001,0.992,0,0,0,1.263,4.499,-75.58
 14:38:02.819,eb:33:2e:f9:57:b5, 2085-97-240 255:02:00:2029,-0.008,0.001,0.991,0,0,0,1.263,4.499,-75.586
 14:38:02.936,eb:33:2e:f9:57:b5, 2085-97-241 255:03:00:2030,-0.007,0.001,0.991,-0.122,0.061,-0.061,1.263,4.499,-75.586
 14:38:02.936,eb:33:2e:f9:57:b5, 2085-97-239 255:03:00:2031,-0.008,0.002,0.991,-0.183,0.061,-0.061,1.263,4.499,-75.586
 14:38:02.936,eb:33:2e:f9:57:b5, 2085-97-239 255:02:00:2032,-0.008,0.001,0.991,-0.183,0.061,-0.061,1.263,4.499,-75.586
 14:38:02.936,eb:33:2e:f9:57:b5, 2085-97-239 255:01:00:2032,-0.007,0,0.992,-0.183,0,-0.061,1.263,4.499,-75.591
 14:38:02.938,eb:33:2e:f9:57:b5, 2085-97-240 255:00:00:2036,-0.008,0,0.993,-0.183,-0.061,-0.061,1.263,4.499,-75.591
 14:38:02.938,eb:33:2e:f9:57:b5, 2085-97-241 255:255:255:2038,-0.006,0,0.995,-0.122,-0.122,0,1.263,4.499,-75.591
 14:38:02.938,eb:33:2e:f9:57:b5, 2085-97-241 255:01:00:2034,-0.007,0,0.994,-0.061,-0.061,0,1.263,4.499,-75.591
 14:38:02.938,eb:33:2e:f9:57:b5, 2085-97-241 255:01:00:2033,-0.008,0,0.993,-0.061,-0.122,0,1.263,4.499,-75.591
 14:38:02.941,eb:33:2e:f9:57:b5, 2085-97-241 255:00:00:2036,-0.006,0,0.993,0,-0.183,0,1.263,4.499,-75.591
 14:38:02.941,eb:33:2e:f9:57:b5, 2085-97-241 255:00:00:2036,-0.008,0,0.994,0,-0.061,0,1.263,4.499,-75.597
 14:38:02.941,eb:33:2e:f9:57:b5, 2085-97-239 255:00:00:2033,-0.008,0,0.994,-0.061,-0.061,0,1.263,4.499,-75.597
 14:38:02.941,eb:33:2e:f9:57:b5, 2085-97-241 255:01:00:2032,-0.008,0,0.992,-0.122,-0.122,0,1.263,4.499,-75.597
 14:38:02.998,eb:33:2e:f9:57:b5, 2085-97-240 255:01:00:2034,-0.008,0,0.993,-0.061,-0.183,0,1.263,4.499,-75.597
 14:38:02.998,eb:33:2e:f9:57:b5, 2085-97-239 255:02:00:2030,-0.008,0.001,0.991,-0.061,-0.244,0,1.263,4.499,-75.597
 14:38:02.998,eb:33:2e:f9:57:b5, 2085-97-240 255:02:00:2032,-0.007,0.001,0.991,-0.244,-0.366,0,1.263,4.499,-75.597
 14:38:02.998,eb:33:2e:f9:57:b5, 2085-97-241 255:02:00:2031,-0.007,0.001,0.993,-0.244,-0.366,0,1.263,4.499,-75.602
 14:38:03.026,eb:33:2e:f9:57:b5, 2085-97-241 255:01:00:2031,-0.007,0.001,0.992,-0.305,-0.427,0,1.263,4.499,-75.602
 14:38:03.026,eb:33:2e:f9:57:b5, 2085-97-242 255:00:00:2034,-0.006,0,0.992,-0.305,-0.488,0,1.263,4.499,-75.602
 14:38:03.026,eb:33:2e:f9:57:b5, 2085-97-242 255:00:00:2035,-0.007,0,0.994,-0.305,-0.366,-0.061,1.263,4.499,-75.602
 14:38:03.026,eb:33:2e:f9:57:b5, 2085-97-241 255:00:00:2031,-0.007,0,0.993,-0.366,-0.366,0,1.263,4.499,-75.602
 14:38:03.028,eb:33:2e:f9:57:b5, 2085-97-242 255:01:00:2034,-0.006,0,0.993,-0.366,-0.366,0,1.263,4.499,-75.602
 14:38:03.028,eb:33:2e:f9:57:b5, 2085-97-243 255:255:255:2036,-0.005,0,0.992,-0.366,-0.305,0,1.263,4.499,-75.608
 14:38:03.028,eb:33:2e:f9:57:b5, 2085-97-244 255:00:00:2036,-0.006,0,0.994,-0.366,-0.305,-0.122,1.263,4.493,-75.608
 14:38:03.029,eb:33:2e:f9:57:b5, 2085-97-244 255:255:255:2039,-0.005,0,0.995,-0.366,-0.183,-0.061,1.263,4.493,-75.608
 14:38:03.147,eb:33:2e:f9:57:b5, 2085-97-243 255:00:00:2037,-0.007,0,0.996,-0.183,-0.122,0,1.263,4.493,-75.608
 14:38:03.147,eb:33:2e:f9:57:b5, 2085-97-245 255:255:255:2037,-0.006,0,0.995,-0.183,-0.122,0,1.263,4.493,-75.608
 14:38:03.147,eb:33:2e:f9:57:b5, 2085-97-242 255:00:00:2036,-0.006,0,0.995,-0.122,0,0,1.263,4.493,-75.608
 14:38:03.147,eb:33:2e:f9:57:b5, 2085-97-242 255:00:00:2033,-0.007,0,0.994,-0.061,-0.061,0,1.263,4.493,-75.613
 14:38:03.149,eb:33:2e:f9:57:b5, 2085-97-245 255:00:00:2031,-0.006,0,0.992,-0.122,-0.061,0,1.263,4.493,-75.608
 14:38:03.149,eb:33:2e:f9:57:b5, 2085-97-246 255:00:00:2032,-0.005,0,0.992,-0.244,-0.061,-0.061,1.263,4.493,-75.613
 14:38:03.149,eb:33:2e:f9:57:b5, 2085-97-246 255:00:00:2035,-0.006,0,0.992,-0.244,0,-0.122,1.258,4.493,-75.613
 14:38:03.149,eb:33:2e:f9:57:b5, 2085-97-243 255:00:00:2033,-0.006,0,0.993,-0.244,0.061,-0.122,1.258,4.493,-75.613
 14:38:03.236,eb:33:2e:f9:57:b5, 2085-97-241 255:00:00:2031,-0.005,0,0.992,-0.305,0.122,-0.122,1.258,4.493,-75.613
 14:38:03.236,eb:33:2e:f9:57:b5, 2085-97-245 255:00:00:2034,-0.006,0,0.993,-0.305,0.061,-0.183,1.258,4.493,-75.613
 14:38:03.236,eb:33:2e:f9:57:b5, 2085-97-245 255:255:255:2034,-0.007,0,0.993,-0.244,0.061,-0.122,1.258,4.493,-75.613
 14:38:03.236,eb:33:2e:f9:57:b5, 2085-97-242 255:255:255:2032,-0.006,0,0.992,-0.244,0.061,-0.122,1.258,4.493,-75.619
 14:38:03.268,eb:33:2e:f9:57:b5, 2085-97-244 255:253:255:2035,-0.006,0,0.993,-0.244,0.061,-0.122,1.258,4.493,-75.619
 14:38:03.268,eb:33:2e:f9:57:b5, 2085-97-244 255:255:255:2036,-0.007,-0.001,0.994,-0.244,0.183,-0.122,1.258,4.493,-75.619
 14:38:03.268,eb:33:2e:f9:57:b5, 2085-97-241 255:254:255:2035,-0.007,-0.002,0.994,-0.183,0.183,-0.183,1.258,4.493,-75.619
 14:38:03.268,eb:33:2e:f9:57:b5, 2085-97-240 255:254:255:2034,-0.007,-0.001,0.994,-0.061,0.122,-0.061,1.258,4.493,-75.619
 14:38:03.298,eb:33:2e:f9:57:b5, 2085-97-241 255:254:255:2034,-0.007,-0.002,0.993,-0.122,0.122,0,1.258,4.488,-75.619
 14:38:03.298,eb:33:2e:f9:57:b5, 2085-97-241 255:253:255:2035,-0.007,0,0.993,0,0,-0.061,1.258,4.488,-75.624
 14:38:03.298,eb:33:2e:f9:57:b5, 2085-97-243 255:00:00:2032,-0.007,0,0.993,0,0,0,1.258,4.488,-75.624
 14:38:03.298,eb:33:2e:f9:57:b5, 2085-97-242 255:253:255:2033,-0.006,0,0.992,0,0,0,1.258,4.488,-75.624
 14:38:03.299,eb:33:2e:f9:57:b5, 2085-97-244 255:254:255:2034,-0.006,-0.001,0.993,-0.061,-0.061,0,1.258,4.488,-75.624
 14:38:03.299,eb:33:2e:f9:57:b5, 2085-97-245 255:253:255:2037,-0.005,-0.001,0.994,0,-0.122,0,1.258,4.488,-75.624
 14:38:03.299,eb:33:2e:f9:57:b5, 2085-97-244 255:255:255:2036,-0.007,-0.001,0.995,0.061,0,0,1.252,4.488,-75.624
 14:38:03.299,eb:33:2e:f9:57:b5, 2085-97-242 255:255:255:2034,-0.006,-0.001,0.993,0.061,0,-0.061,1.252,4.488,-75.624
 14:38:03.327,eb:33:2e:f9:57:b5, 2085-97-242 255:00:00:2033,-0.006,0,0.992,0.061,0,0,1.252,4.488,-75.624
 14:38:03.327,eb:33:2e:f9:57:b5, 2085-97-245 255:00:00:2032,-0.006,0,0.993,0.061,-0.061,0,1.252,4.488,-75.63
 14:38:03.327,eb:33:2e:f9:57:b5, 2085-97-243 255:255:255:2031,-0.007,0,0.992,0.061,0,-0.061,1.252,4.488,-75.63
 14:38:03.327,eb:33:2e:f9:57:b5, 2085-97-242 255:253:255:2033,-0.006,-0.001,0.993,0.061,-0.061,0,1.252,4.488,-75.63
 14:38:03.475,eb:33:2e:f9:57:b5, 2085-97-243 255:255:255:2032,-0.006,0,0.993,0,0,0,1.252,4.488,-75.63
 14:38:03.475,eb:33:2e:f9:57:b5, 2085-97-241 255:254:255:2032,-0.007,0,0.992,0,0,0,1.252,4.488,-75.63
 14:38:03.475,eb:33:2e:f9:57:b5, 2085-97-242 255:254:255:2033,-0.006,-0.001,0.993,0,-0.061,0,1.252,4.488,-75.63
 14:38:03.475,eb:33:2e:f9:57:b5, 2085-113-81 00:28:101:095,-0.006,0,0.993,0,-0.061,0,1.252,4.488,-75.635
 14:38:03.475,eb:33:2e:f9:57:b5, 2085-97-243 255:253:255:2035,-0.005,0,0.994,0,-0.061,0.061,1.252,4.488,-75.635
 14:38:03.478,eb:33:2e:f9:57:b5, 2085-97-242 255:254:255:2034,-0.005,-0.001,0.994,0,-0.122,0,1.252,4.488,-75.635
 14:38:03.478,eb:33:2e:f9:57:b5, 2085-97-244 255:255:255:2035,-0.006,-0.001,0.994,0.061,0,0,1.252,4.488,-75.635
 14:38:03.478,eb:33:2e:f9:57:b5, 2085-97-242 255:254:255:2032,-0.007,0,0.992,0.061,0,0,1.252,4.488,-75.635
 14:38:03.478,eb:33:2e:f9:57:b5, 2085-97-242 255:253:255:2034,-0.005,-0.001,0.992,0.061,0,0,1.252,4.488,-75.635
 14:38:03.480,eb:33:2e:f9:57:b5, 2085-97-245 255:255:255:2035,-0.005,0,0.994,0.061,0,0,1.247,4.488,-75.635
 14:38:03.480,eb:33:2e:f9:57:b5, 2085-97-244 255:255:255:2036,-0.006,-0.001,0.994,0.061,0,0,1.247,4.488,-75.635
 14:38:03.480,eb:33:2e:f9:57:b5, 2085-97-244 255:253:255:2037,-0.006,0,0.995,0.122,0,0,1.247,4.488,-75.635
 14:38:03.480,eb:33:2e:f9:57:b5, 2085-97-245 255:253:255:2035,-0.006,0,0.995,0.122,0,0.061,1.247,4.488,-75.641
 14:38:03.480,eb:33:2e:f9:57:b5, 2085-97-243 255:255:255:2034,-0.006,-0.001,0.993,0.183,0,0.061,1.247,4.482,-75.641
 14:38:03.480,eb:33:2e:f9:57:b5, 2085-97-242 255:255:255:2032,-0.007,0,0.992,0.122,0.061,0,1.247,4.482,-75.641
 14:38:03.480,eb:33:2e:f9:57:b5, 2085-97-244 255:255:255:2033,-0.006,0,0.993,0.061,0.061,0,1.247,4.482,-75.641
 14:38:03.480,eb:33:2e:f9:57:b5, 2085-97-244 255:00:00:2033,-0.006,-0.001,0.993,0.122,0,0,1.247,4.482,-75.641
 14:38:03.568,eb:33:2e:f9:57:b5, 2085-97-243 255:255:255:2030,-0.007,0,0.992,0.122,0,0,1.247,4.482,-75.641
 14:38:03.568,eb:33:2e:f9:57:b5, 2085-97-243 255:00:00:2031,-0.006,0,0.992,0.061,0,0,1.247,4.482,-75.641
 14:38:03.569,eb:33:2e:f9:57:b5, 2085-97-244 255:00:00:2034,-0.006,-0.001,0.992,0.061,0,0,1.247,4.482,-75.641
 14:38:03.569,eb:33:2e:f9:57:b5, 2085-97-243 255:00:00:2031,-0.006,0,0.992,0.061,0,0,1.247,4.482,-75.646
 14:38:03.598,eb:33:2e:f9:57:b5, 2085-97-242 255:00:00:2031,-0.007,0,0.992,0,0,0,1.247,4.482,-75.646
 14:38:03.598,eb:33:2e:f9:57:b5, 2085-97-243 255:00:00:2032,-0.006,0,0.991,0,-0.122,0,1.247,4.482,-75.646
 14:38:03.598,eb:33:2e:f9:57:b5, 2085-97-245 255:00:00:2033,-0.006,0,0.993,0,-0.061,0,1.247,4.482,-75.646
 14:38:03.598,eb:33:2e:f9:57:b5, 2085-97-241 255:254:255:2033,-0.006,0,0.993,0,-0.061,0,1.247,4.482,-75.646
 14:38:03.599,eb:33:2e:f9:57:b5, 2085-97-245 255:252:255:2035,-0.005,0,0.993,0,-0.122,0,1.241,4.482,-75.646
 14:38:03.599,eb:33:2e:f9:57:b5, 2085-97-244 255:254:255:2035,-0.005,-0.001,0.994,0,-0.122,0,1.241,4.482,-75.646
 14:38:03.599,eb:33:2e:f9:57:b5, 2085-97-245 255:00:00:2032,-0.005,0,0.993,0,-0.061,0,1.241,4.482,-75.646
 14:38:03.599,eb:33:2e:f9:57:b5, 2085-97-245 255:255:255:2035,-0.006,0,0.994,0,-0.061,-0.061,1.241,4.482,-75.652
 14:38:03.927,eb:33:2e:f9:57:b5, 2085-97-245 255:00:00:2033,-0.006,-0.001,0.993,0,-0.061,0,1.241,4.482,-75.652
 14:38:03.927,eb:33:2e:f9:57:b5, 2085-97-243 255:255:255:2034,-0.006,0,0.993,0,-0.122,0,1.241,4.482,-75.652
 14:38:03.927,eb:33:2e:f9:57:b5, 2085-97-244 255:255:255:2036,-0.006,0,0.993,0,-0.061,0,1.241,4.482,-75.652
 14:38:03.927,eb:33:2e:f9:57:b5, 2085-97-244 255:255:255:2036,-0.006,-0.001,0.994,0.061,-0.061,0,1.241,4.482,-75.652
 14:38:03.929,eb:33:2e:f9:57:b5, 2085-97-243 255:254:255:2033,-0.006,0,0.993,0.061,0,0,1.241,4.477,-75.652
 14:38:03.929,eb:33:2e:f9:57:b5, 2085-97-244 255:00:00:2033,-0.006,0,0.992,0.061,-0.061,0,1.241,4.477,-75.652
 14:38:03.929,eb:33:2e:f9:57:b5, 2085-97-243 255:00:00:2035,-0.006,0,0.993,0.122,0,0,1.241,4.477,-75.652
 14:38:03.929,eb:33:2e:f9:57:b5, 2085-97-244 255:253:255:2034,-0.007,0,0.994,0.122,0.061,0,1.241,4.477,-75.657
 14:38:03.931,eb:33:2e:f9:57:b5, 2085-97-243 255:255:255:2033,-0.007,-0.001,0.994,0.122,0,0,1.241,4.477,-75.657
 14:38:03.931,eb:33:2e:f9:57:b5, 2085-97-241 255:255:255:2033,-0.007,0,0.993,0.183,0,0,1.241,4.477,-75.657
 14:38:03.931,eb:33:2e:f9:57:b5, 2085-97-243 255:255:255:2031,-0.006,0,0.992,0.122,-0.061,0,1.241,4.477,-75.657
 14:38:03.931,eb:33:2e:f9:57:b5, 2085-97-243 255:00:00:2031,-0.006,0,0.991,0.122,0,0,1.241,4.477,-75.657
 14:38:03.933,eb:33:2e:f9:57:b5, 2085-97-243 255:00:00:2030,-0.006,0,0.991,0.061,-0.122,0,1.241,4.477,-75.657
 14:38:03.933,eb:33:2e:f9:57:b5, 2085-97-246 255:00:00:2032,-0.005,0,0.992,0,-0.061,-0.061,1.241,4.477,-75.657
 14:38:03.933,eb:33:2e:f9:57:b5, 2085-97-244 255:00:00:2033,-0.005,0,0.993,0,0,-0.061,1.236,4.477,-75.657
 14:38:03.933,eb:33:2e:f9:57:b5, 2085-97-245 255:255:255:2034,-0.005,0,0.993,0,0,-0.061,1.236,4.477,-75.657
 14:38:03.987,eb:33:2e:f9:57:b5, 2085-97-245 255:00:00:2036,-0.005,0,0.993,0,0,0,1.236,4.477,-75.657
 14:38:03.987,eb:33:2e:f9:57:b5, 2085-97-245 255:255:255:2035,-0.007,0,0.994,0,0,-0.061,1.236,4.477,-75.663
 14:38:03.987,eb:33:2e:f9:57:b5, 2085-97-243 255:00:00:2034,-0.006,-0.001,0.993,0,0,-0.061,1.236,4.477,-75.663
 14:38:03.987,eb:33:2e:f9:57:b5, 2085-97-245 255:255:255:2035,-0.005,0,0.994,0.122,0,-0.061,1.236,4.477,-75.663
 14:38:03.989,eb:33:2e:f9:57:b5, 2085-97-246 255:255:255:2035,-0.006,-0.001,0.994,0.061,0.061,-0.061,1.236,4.477,-75.663
 14:38:03.989,eb:33:2e:f9:57:b5, 2085-97-245 255:255:255:2036,-0.005,0,0.993,0.061,0.061,0,1.236,4.471,-75.668
 14:38:03.989,eb:33:2e:f9:57:b5, 2085-97-246 255:255:255:2037,-0.006,0,0.994,0.122,0.061,0.061,1.23,4.471,-75.668
 14:38:03.989,eb:33:2e:f9:57:b5, 2085-97-245 255:255:255:2038,-0.006,0,0.994,0.183,0.122,0,1.23,4.471,-75.674
 14:38:04.107,eb:33:2e:f9:57:b5, 2085-97-241 255:255:255:2034,-0.007,0,0.994,0.122,0.122,0,1.23,4.471,-75.674
 14:38:04.107,eb:33:2e:f9:57:b5, 2085-97-242 255:00:00:2035,-0.006,0,0.993,0.183,0.061,0.061,1.23,4.471,-75.674
 14:38:04.107,eb:33:2e:f9:57:b5, 2085-97-244 255:00:00:2034,-0.006,0,0.994,0.183,0.061,0,1.23,4.471,-75.674
 14:38:04.107,eb:33:2e:f9:57:b5, 2085-97-243 255:00:00:2034,-0.006,0,0.993,0.183,0,0.061,1.23,4.471,-75.674
 14:38:04.109,eb:33:2e:f9:57:b5, 2085-97-243 255:255:255:2033,-0.006,0,0.992,0.183,0,0,1.23,4.471,-75.674
 14:38:04.109,eb:33:2e:f9:57:b5, 2085-97-245 255:00:00:2033,-0.005,0,0.993,0.122,0,0,1.23,4.471,-75.674
 14:38:04.109,eb:33:2e:f9:57:b5, 2085-97-245 255:00:00:2034,-0.006,0,0.993,0.122,0,0,1.23,4.471,-75.674
 14:38:04.109,eb:33:2e:f9:57:b5, 2085-113-81 00:20:101:087,-0.006,0,0.994,0.061,0.061,0,1.23,4.471,-75.674
 14:38:04.111,eb:33:2e:f9:57:b5, 2085-97-245 255:00:00:2034,-0.005,0,0.993,0.122,0.122,0,1.23,4.471,-75.674
 14:38:04.111,eb:33:2e:f9:57:b5, 2085-97-244 255:01:00:2034,-0.006,0,0.994,0.061,0.122,0,1.23,4.471,-75.679
 14:38:04.111,eb:33:2e:f9:57:b5, 2085-97-242 255:01:00:2033,-0.007,0,0.993,0.122,0.061,-0.061,1.23,4.466,-75.679
 14:38:04.111,eb:33:2e:f9:57:b5, 2085-97-244 255:00:00:2034,-0.006,0,0.993,0.122,0.061,0,1.23,4.466,-75.679
 14:38:04.197,eb:33:2e:f9:57:b5, 2085-97-244 255:00:00:2034,-0.006,0,0.994,0.061,0.061,0,1.23,4.466,-75.679
 14:38:04.197,eb:33:2e:f9:57:b5, 2085-97-245 255:00:00:2032,-0.005,0,0.993,0.061,0.061,0,1.23,4.466,-75.679
 14:38:04.197,eb:33:2e:f9:57:b5, 2085-97-245 255:00:00:2035,-0.006,0,0.993,0.061,0.061,0,1.23,4.466,-75.679
 14:38:04.197,eb:33:2e:f9:57:b5, 2085-97-244 255:00:00:2032,-0.007,0,0.992,0.061,0.061,0,1.23,4.466,-75.679
 14:38:04.201,eb:33:2e:f9:57:b5, 2085-97-242 255:00:00:2032,-0.007,0,0.992,0,0,0,1.23,4.466,-75.679
 14:38:04.201,eb:33:2e:f9:57:b5, 2085-97-245 255:00:00:2033,-0.006,0,0.993,0,0,0,1.23,4.466,-75.679
 14:38:04.201,eb:33:2e:f9:57:b5, 2085-97-243 255:00:00:2034,-0.006,0,0.993,0,0,0,1.23,4.466,-75.679
 14:38:04.201,eb:33:2e:f9:57:b5, 2085-97-244 255:02:00:2033,-0.006,0.001,0.993,0,0,0,1.23,4.466,-75.685
 14:38:04.204,eb:33:2e:f9:57:b5, 2085-97-244 255:01:00:2033,-0.006,0,0.993,0,0.061,0,1.23,4.466,-75.685
 14:38:04.204,eb:33:2e:f9:57:b5, 2085-97-241 255:00:00:2033,-0.008,0,0.992,0,0.061,0,1.23,4.466,-75.685
 14:38:04.204,eb:33:2e:f9:57:b5, 2085-97-241 255:00:00:2035,-0.007,0,0.994,0,0,0,1.23,4.466,-75.685
 14:38:04.204,eb:33:2e:f9:57:b5, 2085-97-241 255:255:255:2032,-0.006,0,0.994,0.061,0,0,1.23,4.466,-75.685
 14:38:04.346,eb:33:2e:f9:57:b5, 2085-97-243 255:00:00:2033,-0.006,0,0.992,0.061,0,0,1.23,4.466,-75.685
 14:38:04.346,eb:33:2e:f9:57:b5, 2085-97-243 255:01:00:2032,-0.006,0,0.993,0.061,0,0,1.23,4.466,-75.685
 14:38:04.346,eb:33:2e:f9:57:b5, 2085-97-243 255:01:00:2031,-0.006,0,0.992,0,0,0,1.23,4.466,-75.685
 14:38:04.346,eb:33:2e:f9:57:b5, 2085-97-243 255:00:00:2034,-0.005,0,0.993,0,0,0,1.23,4.466,-75.685
 14:38:04.351,eb:33:2e:f9:57:b5, 2085-97-244 255:00:00:2034,-0.006,0,0.993,0,0,0,1.23,4.466,-75.685
 14:38:04.351,eb:33:2e:f9:57:b5, 2085-97-242 255:00:00:2034,-0.006,0,0.993,0,0,-0.061,1.23,4.466,-75.69
 14:38:04.351,eb:33:2e:f9:57:b5, 2085-97-243 255:00:00:2034,-0.006,0,0.994,0,0,0,1.23,4.466,-75.69
 14:38:04.351,eb:33:2e:f9:57:b5, 2085-97-243 255:00:00:2034,-0.006,0,0.994,0,0.061,0,1.23,4.466,-75.69
 14:38:04.354,eb:33:2e:f9:57:b5, 2085-97-243 255:00:00:2033,-0.006,0,0.994,0.122,0,0,1.225,4.466,-75.69
 14:38:04.354,eb:33:2e:f9:57:b5, 2085-97-242 255:255:255:2034,-0.006,0,0.993,0.061,0.061,0,1.225,4.466,-75.69
 14:38:04.354,eb:33:2e:f9:57:b5, 2085-97-244 255:00:00:2035,-0.006,0,0.993,0,0,-0.061,1.225,4.466,-75.69
 14:38:04.354,eb:33:2e:f9:57:b5, 2085-97-243 255:01:00:2030,-0.007,0,0.992,0.061,0.061,0,1.225,4.466,-75.69
 14:38:04.407,eb:33:2e:f9:57:b5, 2085-97-242 255:00:00:2030,-0.006,0.001,0.991,0,0,-0.061,1.225,4.466,-75.69
 14:38:04.407,eb:33:2e:f9:57:b5, 2085-97-244 255:00:00:2032,-0.005,0,0.993,0,0,0,1.225,4.466,-75.69
 14:38:04.407,eb:33:2e:f9:57:b5, 2085-97-244 255:01:00:2036,-0.006,0,0.993,0,0,0,1.225,4.46,-75.69
 14:38:04.407,eb:33:2e:f9:57:b5, 2085-97-243 255:00:00:2033,-0.007,0,0.993,0,0,0,1.225,4.46,-75.69
 14:38:04.409,eb:33:2e:f9:57:b5, 2085-97-242 255:00:00:2034,-0.005,0,0.992,-0.061,-0.061,0,1.225,4.46,-75.69
 14:38:04.409,eb:33:2e:f9:57:b5, 2085-97-244 255:255:255:2037,-0.005,0,0.994,0,0,0,1.225,4.46,-75.696
 14:38:04.409,eb:33:2e:f9:57:b5, 2085-97-247 255:01:00:2032,-0.005,0,0.994,0,-0.061,0,1.225,4.46,-75.696
 14:38:04.409,eb:33:2e:f9:57:b5, 2085-97-244 255:255:255:2035,-0.006,0,0.994,0,0,-0.061,1.225,4.46,-75.696
 14:38:04.467,eb:33:2e:f9:57:b5, 2085-97-243 255:00:00:2033,-0.006,0,0.994,0,0,0,1.225,4.46,-75.696
 14:38:04.467,eb:33:2e:f9:57:b5, 2085-97-245 255:00:00:2035,-0.006,0,0.993,0.061,0,-0.061,1.225,4.46,-75.696
 14:38:04.467,eb:33:2e:f9:57:b5, 2085-97-244 255:00:00:2033,-0.007,0,0.993,0,0,0,1.225,4.46,-75.696
 14:38:04.467,eb:33:2e:f9:57:b5, 2085-97-243 255:00:00:2033,-0.006,0,0.994,0,0,0,1.225,4.46,-75.696
 14:38:04.497,eb:33:2e:f9:57:b5, 2085-97-242 255:00:00:2032,-0.007,0,0.992,0,0,-0.061,1.225,4.46,-75.696
 14:38:04.497,eb:33:2e:f9:57:b5, 2085-97-243 255:00:00:2033,-0.007,0,0.992,0,0,-0.061,1.225,4.46,-75.696
 14:38:04.497,eb:33:2e:f9:57:b5, 2085-97-243 255:255:255:2033,-0.006,0,0.992,0,0,-0.122,1.225,4.46,-75.696
 14:38:04.497,eb:33:2e:f9:57:b5, 2085-97-243 255:00:00:2034,-0.006,0,0.993,0,0,0,1.225,4.46,-75.696
 14:38:04.527,eb:33:2e:f9:57:b5, 2085-97-241 255:01:00:2031,-0.007,0,0.993,0,0,-0.061,1.225,4.46,-75.696
 14:38:04.527,eb:33:2e:f9:57:b5, 2085-97-244 255:01:00:2034,-0.006,0,0.993,0,0,-0.061,1.225,4.46,-75.701
 14:38:04.527,eb:33:2e:f9:57:b5, 2085-97-245 255:00:00:2034,-0.006,0,0.993,0,-0.061,0,1.225,4.46,-75.701
 14:38:04.527,eb:33:2e:f9:57:b5, 2085-97-244 255:00:00:2034,-0.006,0,0.993,0,-0.061,-0.061,1.225,4.46,-75.701
 14:38:04.620,eb:33:2e:f9:57:b5, 2085-97-244 255:00:00:2032,-0.006,0,0.994,0,0,-0.061,1.225,4.46,-75.701
 14:38:04.620,eb:33:2e:f9:57:b5, 2085-97-245 255:00:00:2033,-0.006,0,0.992,-0.061,0,-0.122,1.225,4.46,-75.701
 14:38:04.620,eb:33:2e:f9:57:b5, 2085-97-244 255:00:00:2032,-0.006,0,0.993,0,0,-0.122,1.225,4.46,-75.701
 14:38:04.620,eb:33:2e:f9:57:b5, 2085-97-242 255:254:255:2036,-0.005,0,0.993,-0.061,0,-0.061,1.225,4.46,-75.701
 14:38:04.620,eb:33:2e:f9:57:b5, 2085-97-245 255:00:00:2036,-0.005,0,0.994,0,0,-0.061,1.225,4.46,-75.701
 14:38:04.620,eb:33:2e:f9:57:b5, 2085-97-244 255:00:00:2035,-0.006,0,0.993,0,-0.061,-0.061,1.225,4.46,-75.701
 14:38:04.620,eb:33:2e:f9:57:b5, 2085-97-242 255:00:00:2034,-0.007,0,0.993,0,0,-0.061,1.225,4.46,-75.701
 14:38:04.620,eb:33:2e:f9:57:b5, 2085-97-244 255:00:00:2034,-0.005,0,0.993,0,-0.061,-0.061,1.225,4.46,-75.701
 14:38:04.647,eb:33:2e:f9:57:b5, 2085-97-246 255:00:00:2034,-0.006,0,0.993,0,0,-0.061,1.225,4.46,-75.701
 14:38:04.647,eb:33:2e:f9:57:b5, 2085-97-242 255:255:255:2033,-0.006,0,0.993,0,0,0,1.225,4.46,-75.707
 14:38:04.647,eb:33:2e:f9:57:b5, 2085-97-246 255:00:00:2034,-0.005,0,0.993,0,0.061,-0.061,1.225,4.46,-75.707
 14:38:04.647,eb:33:2e:f9:57:b5, 2085-97-243 255:255:255:2032,-0.006,0,0.993,0,0.061,-0.061,1.225,4.46,-75.707
 14:38:04.738,eb:33:2e:f9:57:b5, 2085-97-243 255:00:00:2032,-0.006,0,0.992,0,0.061,-0.122,1.219,4.455,-75.707
 14:38:04.738,eb:33:2e:f9:57:b5, 2085-97-244 255:00:00:2034,-0.006,0,0.993,0,0.061,-0.061,1.219,4.455,-75.707
 14:38:04.738,eb:33:2e:f9:57:b5, 2085-97-244 255:00:00:2034,-0.006,0,0.993,0,0.061,-0.061,1.219,4.455,-75.707
 14:38:04.738,eb:33:2e:f9:57:b5, 2085-97-243 255:00:00:2034,-0.007,0,0.994,0,0.061,-0.061,1.219,4.455,-75.707
 14:38:04.738,eb:33:2e:f9:57:b5, 2085-97-243 255:00:00:2033,-0.006,0,0.993,0,0.122,-0.122,1.219,4.455,-75.707
 14:38:04.741,eb:33:2e:f9:57:b5, 2085-113-58 00:128:218:2265,-0.007,0.001,0.993,-0.061,0,0,1.219,4.455,-75.707
 14:38:04.741,eb:33:2e:f9:57:b5, 2085-97-241 255:255:255:2032,-0.007,0,0.992,-0.061,0,0,1.219,4.455,-75.707
 14:38:04.741,eb:33:2e:f9:57:b5, 2085-97-242 255:00:00:2032,-0.006,0,0.992,-0.061,-0.061,0,1.219,4.455,-75.707
 14:38:04.741,eb:33:2e:f9:57:b5, 2085-97-244 255:00:00:2033,-0.006,0,0.993,0,-0.061,-0.061,1.219,4.455,-75.707
 14:38:04.769,eb:33:2e:f9:57:b5, 2085-97-244 255:00:00:2034,-0.005,0,0.993,0,0,-0.061,1.219,4.455,-75.707
 14:38:04.769,eb:33:2e:f9:57:b5, 2085-97-245 255:00:00:2035,-0.005,0,0.993,-0.061,0,0,1.219,4.455,-75.712
 14:38:04.769,eb:33:2e:f9:57:b5, 2085-97-244 255:00:00:2034,-0.006,0,0.994,-0.061,0,0,1.219,4.455,-75.712
 14:38:04.769,eb:33:2e:f9:57:b5, 2085-97-242 255:00:00:2031,-0.006,-0.001,0.992,0,0,-0.061,1.219,4.455,-75.712
 14:38:04.827,eb:33:2e:f9:57:b5, 2085-97-242 255:00:00:2033,-0.006,0,0.992,0,0,0,1.219,4.455,-75.712
 14:38:04.827,eb:33:2e:f9:57:b5, 2085-97-243 255:00:00:2034,-0.006,0,0.993,-0.061,-0.061,-0.061,1.219,4.455,-75.712
 14:38:04.827,eb:33:2e:f9:57:b5, 2085-97-242 255:00:00:2033,-0.006,0,0.993,-0.061,-0.061,0,1.219,4.455,-75.712
 14:38:04.827,eb:33:2e:f9:57:b5, 2085-97-243 255:00:00:2034,-0.005,0,0.993,-0.061,-0.061,-0.061,1.219,4.455,-75.712
 14:38:05.218,eb:33:2e:f9:57:b5, 2085-97-246 255:00:00:2034,-0.005,0,0.993,-0.061,-0.122,0,1.219,4.455,-75.712
 14:38:05.218,eb:33:2e:f9:57:b5, 2085-97-245 255:255:255:2034,-0.005,0,0.994,-0.061,0,-0.061,1.219,4.455,-75.712
 14:38:05.218,eb:33:2e:f9:57:b5, 2085-97-244 255:00:00:2036,-0.006,0,0.993,-0.061,0,0,1.219,4.455,-75.712
 14:38:05.218,eb:33:2e:f9:57:b5, 2085-97-246 255:254:255:2038,-0.005,0,0.995,-0.061,0,0,1.219,4.455,-75.712
 14:38:05.218,eb:33:2e:f9:57:b5, 2085-97-244 255:255:255:2035,-0.006,-0.001,0.995,0,0,0,1.219,4.455,-75.712
 14:38:05.218,eb:33:2e:f9:57:b5, 2085-97-244 255:00:00:2035,-0.006,0,0.994,0,0.061,0,1.219,4.455,-75.712
 14:38:05.218,eb:33:2e:f9:57:b5, 2085-97-243 255:00:00:2033,-0.006,0,0.993,0,0,0,1.219,4.455,-75.712
 14:38:05.218,eb:33:2e:f9:57:b5, 2085-97-243 255:255:255:2032,-0.006,0,0.992,0,0.061,0,1.219,4.455,-75.718
 14:38:05.220,eb:33:2e:f9:57:b5, 2085-97-246 255:255:255:2033,-0.005,0,0.993,0,0,0,1.219,4.455,-75.718
 14:38:05.220,eb:33:2e:f9:57:b5, 2085-97-244 255:00:00:2032,-0.006,0,0.993,0,0.061,0,1.219,4.455,-75.718
 14:38:05.220,eb:33:2e:f9:57:b5, 2085-97-245 255:254:255:2036,-0.005,-0.001,0.992,0,0.061,-0.061,1.219,4.455,-75.718
 14:38:05.220,eb:33:2e:f9:57:b5, 2085-97-245 255:254:255:2035,-0.005,-0.001,0.995,0.061,0.061,0,1.219,4.455,-75.718
 14:38:05.222,eb:33:2e:f9:57:b5, 2085-97-245 255:255:255:2036,-0.006,0,0.994,0.061,0.122,0,1.219,4.449,-75.718
 14:38:05.222,eb:33:2e:f9:57:b5, 2085-97-242 255:255:255:2033,-0.006,0,0.994,0.061,0.122,0,1.219,4.449,-75.718
 14:38:05.222,eb:33:2e:f9:57:b5, 2085-97-244 255:254:255:2033,-0.005,-0.001,0.993,0.061,0.061,0,1.219,4.449,-75.718
 14:38:05.222,eb:33:2e:f9:57:b5, 2085-97-244 255:00:00:2034,-0.006,0,0.993,0.122,0.061,0,1.219,4.449,-75.718
 14:38:05.337,eb:33:2e:f9:57:b5, 2085-97-245 255:00:00:2034,-0.005,0,0.993,0.061,0.061,0,1.214,4.449,-75.718
 14:38:05.337,eb:33:2e:f9:57:b5, 2085-97-244 255:00:00:2035,-0.005,-0.001,0.993,0.122,0.061,0,1.214,4.449,-75.718
 14:38:05.337,eb:33:2e:f9:57:b5, 2085-97-244 255:00:00:2035,-0.006,0,0.993,0.061,0.061,0,1.214,4.449,-75.718
 14:38:05.337,eb:33:2e:f9:57:b5, 2085-97-244 255:254:255:2035,-0.005,-0.001,0.994,0.061,0.122,0,1.214,4.449,-75.718
 14:38:05.428,eb:33:2e:f9:57:b5, 2085-97-245 255:00:00:2035,-0.006,0,0.994,0.122,0.122,0,1.214,4.449,-75.718
 14:38:05.428,eb:33:2e:f9:57:b5, 2085-97-242 255:00:00:2031,-0.007,0,0.992,0.061,0.061,0,1.214,4.449,-75.729
 14:38:05.428,eb:33:2e:f9:57:b5, 2085-97-242 255:00:00:2031,-0.006,0,0.992,0,0.061,0,1.214,4.449,-75.729
 14:38:05.428,eb:33:2e:f9:57:b5, 2085-97-243 255:255:255:2033,-0.005,0,0.992,0,0.061,-0.061,1.214,4.449,-75.729
 14:38:05.430,eb:33:2e:f9:57:b5, 2085-97-243 255:00:00:2034,-0.006,0,0.993,0,0.061,-0.061,1.214,4.449,-75.729
 14:38:05.430,eb:33:2e:f9:57:b5, 2085-97-243 255:00:00:2033,-0.007,0,0.993,0,0.061,-0.061,1.214,4.449,-75.729
 14:38:05.430,eb:33:2e:f9:57:b5, 2085-97-243 255:00:00:2033,-0.006,0,0.993,0,0.122,-0.061,1.214,4.444,-75.729
 14:38:05.430,eb:33:2e:f9:57:b5, 2085-97-242 255:254:255:2032,-0.006,0,0.993,-0.061,0.061,-0.061,1.214,4.444,-75.729
 14:38:05.432,eb:33:2e:f9:57:b5, 2085-97-243 255:254:255:2033,-0.006,0,0.992,0,0.061,-0.061,1.214,4.444,-75.729
 14:38:05.432,eb:33:2e:f9:57:b5, 2085-97-244 255:00:00:2036,-0.007,0,0.994,0,0.061,-0.061,1.214,4.444,-75.729
 14:38:05.432,eb:33:2e:f9:57:b5, 2085-97-242 255:255:255:2034,-0.006,0,0.994,0.061,0.061,0,1.214,4.444,-75.729
 14:38:05.432,eb:33:2e:f9:57:b5, 2085-97-245 255:00:00:2035,-0.006,0,0.993,0.061,0,0,1.214,4.444,-75.734
 14:38:05.433,eb:33:2e:f9:57:b5, 2085-97-245 255:255:255:2034,-0.007,0,0.993,0.061,0,-0.061,1.208,4.444,-75.734
 14:38:05.433,eb:33:2e:f9:57:b5, 2085-97-243 255:00:00:2033,-0.006,0,0.993,0.061,0.061,0,1.208,4.444,-75.734
 14:38:05.433,eb:33:2e:f9:57:b5, 2085-97-244 255:00:00:2035,-0.006,0,0.994,0.061,0.061,-0.061,1.208,4.444,-75.734
 14:38:05.433,eb:33:2e:f9:57:b5, 2085-97-243 255:255:255:2035,-0.008,0,0.993,0.061,0.122,0,1.208,4.444,-75.734
 14:38:05.458,eb:33:2e:f9:57:b5, 2085-97-241 255:02:00:2033,-0.007,0,0.992,0.061,0.061,0,1.208,4.444,-75.734
 14:38:05.458,eb:33:2e:f9:57:b5, 2085-97-241 255:00:00:2033,-0.007,0.001,0.992,0.061,0.061,-0.061,1.208,4.444,-75.734
 14:38:05.458,eb:33:2e:f9:57:b5, 2085-97-243 255:00:00:2032,-0.006,0,0.993,0.122,0,-0.061,1.208,4.444,-75.734
 14:38:05.458,eb:33:2e:f9:57:b5, 2085-97-241 255:255:255:2033,-0.006,0,0.993,0.061,0.061,-0.061,1.208,4.444,-75.734
 14:38:05.578,eb:33:2e:f9:57:b5, 2085-97-243 255:255:255:2034,-0.006,-0.001,0.992,0.122,0,0,1.208,4.444,-75.734
 14:38:05.578,eb:33:2e:f9:57:b5, 2085-97-242 255:00:00:2032,-0.006,0,0.993,0.061,0.061,-0.061,1.208,4.444,-75.734
 14:38:05.578,eb:33:2e:f9:57:b5, 2085-113-81 00:10:101:078,-0.006,0,0.993,0.061,0,0,1.208,4.444,-75.734
 14:38:05.578,eb:33:2e:f9:57:b5, 2085-97-242 255:255:255:2035,-0.006,0,0.993,0.061,0,0,1.208,4.444,-75.74
 14:38:05.578,eb:33:2e:f9:57:b5, 2085-97-244 255:255:255:2034,-0.006,0,0.993,0.061,0,0,1.208,4.444,-75.74
 14:38:05.578,eb:33:2e:f9:57:b5, 2085-97-242 255:01:00:2032,-0.007,0,0.993,0.061,0.061,0,1.208,4.444,-75.74
 14:38:05.578,eb:33:2e:f9:57:b5, 2085-97-242 255:00:00:2032,-0.007,0,0.992,0.061,0,0,1.208,4.444,-75.74
 14:38:05.578,eb:33:2e:f9:57:b5, 2085-97-242 255:00:00:2033,-0.006,0,0.993,0,0,0,1.208,4.444,-75.74
 14:38:05.667,eb:33:2e:f9:57:b5, 2085-97-242 255:255:255:2034,-0.006,0,0.993,0,0.061,-0.122,1.208,4.444,-75.74
 14:38:05.667,eb:33:2e:f9:57:b5, 2085-97-242 255:255:255:2035,-0.006,0,0.994,-0.061,0,-0.061,1.208,4.444,-75.74
 14:38:05.667,eb:33:2e:f9:57:b5, 2085-97-243 255:00:00:2034,-0.007,0,0.994,0,0,-0.061,1.208,4.444,-75.74
 14:38:05.667,eb:33:2e:f9:57:b5, 2085-97-242 255:01:00:2033,-0.007,0,0.993,0,0,-0.061,1.208,4.444,-75.74
 14:38:05.698,eb:33:2e:f9:57:b5, 2085-97-241 255:00:00:2034,-0.007,0,0.993,0,0.061,-0.061,1.208,4.444,-75.74
 14:38:05.698,eb:33:2e:f9:57:b5, 2085-97-242 255:255:255:2035,-0.007,-0.001,0.994,0.061,0,0,1.208,4.444,-75.74
 14:38:05.698,eb:33:2e:f9:57:b5, 2085-97-243 255:01:00:2034,-0.007,0,0.994,0,0,0,1.208,4.444,-75.74
 14:38:05.698,eb:33:2e:f9:57:b5, 2085-97-243 255:254:255:2032,-0.007,0,0.993,0,0,0,1.208,4.444,-75.74
 14:38:05.698,eb:33:2e:f9:57:b5, 2085-97-242 255:255:255:2032,-0.006,0,0.992,0.061,0,-0.061,1.208,4.444,-75.74
 14:38:05.698,eb:33:2e:f9:57:b5, 2085-97-243 255:00:00:2036,-0.007,0,0.993,0,0,0,1.208,4.444,-75.74
 14:38:05.698,eb:33:2e:f9:57:b5, 2085-97-241 255:00:00:2033,-0.006,0,0.993,0.122,0,0,1.208,4.444,-75.74
 14:38:05.698,eb:33:2e:f9:57:b5, 2085-97-243 255:254:255:2033,-0.006,-0.001,0.994,0.061,0.061,0,1.208,4.444,-75.745
 14:38:05.701,eb:33:2e:f9:57:b5, 2085-97-243 255:00:00:2032,-0.007,0,0.992,0.061,0,0,1.208,4.444,-75.745
 14:38:05.701,eb:33:2e:f9:57:b5, 2085-97-242 255:00:00:2030,-0.007,0,0.992,0.061,0,0,1.208,4.444,-75.745
 14:38:05.701,eb:33:2e:f9:57:b5, 2085-97-242 255:254:255:2033,-0.007,0,0.992,0,0,0,1.208,4.444,-75.745
 14:38:05.701,eb:33:2e:f9:57:b5, 2085-97-241 255:01:00:2032,-0.007,0,0.993,0,0,0,1.208,4.444,-75.745
 14:38:05.788,eb:33:2e:f9:57:b5, 2085-97-242 255:00:00:2032,-0.006,0,0.992,0,-0.061,0,1.208,4.444,-75.745
 14:38:05.788,eb:33:2e:f9:57:b5, 2085-97-241 255:255:255:2034,-0.006,0,0.993,0,-0.061,0,1.208,4.444,-75.745
 14:38:05.788,eb:33:2e:f9:57:b5, 2085-97-245 255:00:00:2037,-0.005,0,0.994,0.061,0,0,1.208,4.444,-75.745
 14:38:05.788,eb:33:2e:f9:57:b5, 2085-97-244 255:00:00:2035,-0.007,0,0.994,0.122,0.061,0,1.208,4.444,-75.745
 14:38:05.790,eb:33:2e:f9:57:b5, 2085-97-240 255:00:00:2031,-0.007,0,0.993,0.122,0.061,0,1.208,4.444,-75.745
 14:38:05.790,eb:33:2e:f9:57:b5, 2085-97-240 255:00:00:2033,-0.007,0,0.992,0.061,0,0,1.208,4.444,-75.745
 14:38:05.790,eb:33:2e:f9:57:b5, 2085-97-244 255:00:00:2034,-0.007,0,0.993,0.061,0,0,1.208,4.444,-75.745
 14:38:05.790,eb:33:2e:f9:57:b5, 2085-97-242 255:00:00:2033,-0.006,0,0.993,0.061,0,0,1.208,4.444,-75.745
 14:38:05.817,eb:33:2e:f9:57:b5, 2085-97-242 255:00:00:2034,-0.006,0,0.992,0.061,0,0,1.208,4.444,-75.745
 14:38:05.818,eb:33:2e:f9:57:b5, 2085-97-243 255:02:00:2033,-0.006,0,0.993,0,0,0,1.208,4.444,-75.745
 14:38:05.818,eb:33:2e:f9:57:b5, 2085-97-242 255:01:00:2033,-0.006,0,0.992,0,0,0,1.208,4.444,-75.745
 14:38:05.818,eb:33:2e:f9:57:b5, 2085-97-242 255:00:00:2033,-0.006,0,0.993,0,0,0,1.208,4.444,-75.745
 14:38:05.909,eb:33:2e:f9:57:b5, 2085-97-242 255:01:00:2034,-0.006,0,0.993,0,0,0,1.208,4.444,-75.745
 14:38:05.909,eb:33:2e:f9:57:b5, 2085-97-242 255:255:255:2035,-0.006,0,0.993,0.061,0.061,0,1.208,4.444,-75.751
 14:38:05.909,eb:33:2e:f9:57:b5, 2085-97-242 255:00:00:2036,-0.007,-0.001,0.993,0,0.061,-0.061,1.208,4.444,-75.751
 14:38:05.909,eb:33:2e:f9:57:b5, 2085-97-240 255:00:00:2034,-0.008,0,0.994,0.122,0.122,0,1.208,4.444,-75.751
 14:38:05.909,eb:33:2e:f9:57:b5, 2085-97-241 255:00:00:2032,-0.007,0,0.992,0,0,0,1.208,4.444,-75.751
 14:38:05.909,eb:33:2e:f9:57:b5, 2085-97-242 255:00:00:2032,-0.007,0,0.993,0.061,0,0,1.208,4.444,-75.751
 14:38:05.909,eb:33:2e:f9:57:b5, 2085-97-243 255:00:00:2033,-0.007,0,0.993,0.061,-0.061,0.061,1.203,4.444,-75.751
 14:38:05.909,eb:33:2e:f9:57:b5, 2085-97-242 255:00:00:2033,-0.007,0,0.992,0,0,0,1.203,4.444,-75.751
 14:38:05.967,eb:33:2e:f9:57:b5, 2085-97-242 255:00:00:2033,-0.006,0,0.993,0,-0.061,0,1.203,4.444,-75.751
 14:38:05.967,eb:33:2e:f9:57:b5, 2085-97-242 255:00:00:2033,-0.007,0,0.993,0,0,0,1.203,4.444,-75.751
 14:38:05.967,eb:33:2e:f9:57:b5, 2085-97-241 255:01:00:2034,-0.006,0,0.993,0,0,0,1.203,4.444,-75.751
 14:38:05.967,eb:33:2e:f9:57:b5, 2085-97-242 255:00:00:2035,-0.006,0,0.994,0,0,-0.061,1.203,4.444,-75.751
 14:38:06.057,eb:33:2e:f9:57:b5, 2085-97-242 255:255:255:2033,-0.006,0,0.993,0,0.061,0,1.203,4.444,-75.751
 14:38:06.057,eb:33:2e:f9:57:b5, 2085-97-243 255:254:255:2036,-0.006,0,0.994,0,0.061,0,1.203,4.444,-75.751
 14:38:06.057,eb:33:2e:f9:57:b5, 2085-97-243 255:00:00:2034,-0.006,0,0.994,0.061,0.061,-0.061,1.203,4.444,-75.751
 14:38:06.057,eb:33:2e:f9:57:b5, 2085-97-242 255:00:00:2034,-0.007,0,0.993,0.061,0.061,0,1.203,4.444,-75.751
 14:38:06.059,eb:33:2e:f9:57:b5, 2085-97-242 255:255:255:2034,-0.006,0,0.993,0.061,0.061,0,1.203,4.444,-75.751
 14:38:06.059,eb:33:2e:f9:57:b5, 2085-97-243 255:00:00:2036,-0.007,0,0.993,0.061,0.061,0,1.203,4.444,-75.751
 14:38:06.059,eb:33:2e:f9:57:b5, 2085-97-242 255:00:00:2037,-0.006,0,0.994,0.183,0,0,1.203,4.444,-75.751
 14:38:06.059,eb:33:2e:f9:57:b5, 2085-97-245 255:00:00:2035,-0.005,0,0.994,0.244,0,0,1.203,4.444,-75.756
 14:38:06.061,eb:33:2e:f9:57:b5, 2085-97-244 255:00:00:2034,-0.006,0,0.994,0.244,0.061,0,1.203,4.444,-75.756
 14:38:06.061,eb:33:2e:f9:57:b5, 2085-97-242 255:01:00:2032,-0.007,0,0.993,0.244,0.183,0,1.203,4.444,-75.756
 14:38:06.061,eb:33:2e:f9:57:b5, 2085-97-242 255:00:00:2032,-0.007,0,0.992,0.183,0.122,0,1.203,4.444,-75.756
 14:38:06.061,eb:33:2e:f9:57:b5, 2085-97-243 255:01:00:2035,-0.007,0,0.993,0.122,0.122,0,1.203,4.444,-75.756
 14:38:06.178,eb:33:2e:f9:57:b5, 2085-97-242 255:01:00:2032,-0.006,0,0.992,0.122,0.122,0,1.203,4.444,-75.756
 14:38:06.178,eb:33:2e:f9:57:b5, 2085-97-242 255:01:00:2034,-0.007,0,0.993,0.122,0.122,0,1.203,4.444,-75.756
 14:38:06.178,eb:33:2e:f9:57:b5, 2085-97-242 255:00:00:2033,-0.007,0,0.994,0.061,0.122,-0.061,1.203,4.444,-75.756
 14:38:06.178,eb:33:2e:f9:57:b5, 2085-97-241 255:255:255:2034,-0.008,0,0.994,0.183,0.061,0,1.203,4.444,-75.756
 14:38:06.178,eb:33:2e:f9:57:b5, 2085-97-242 255:00:00:2035,-0.007,0,0.994,0.183,0.061,0,1.203,4.444,-75.756
 14:38:06.178,eb:33:2e:f9:57:b5, 2085-97-242 255:01:00:2034,-0.007,0,0.993,0.244,0.061,0,1.203,4.444,-75.756
 14:38:06.178,eb:33:2e:f9:57:b5, 2085-97-242 255:01:00:2032,-0.007,0,0.993,0.305,0.061,0,1.203,4.444,-75.756
 14:38:06.178,eb:33:2e:f9:57:b5, 2085-97-242 255:01:00:2030,-0.007,0.001,0.992,0.183,0.061,0,1.203,4.444,-75.756
 14:38:06.179,eb:33:2e:f9:57:b5, 2085-113-58 00:67:219:2385,-0.007,0.001,0.991,0.244,0.061,-0.061,1.203,4.444,-75.756
 14:38:06.183,eb:33:2e:f9:57:b5, 2085-97-244 255:03:00:2031,-0.007,0.001,0.991,0.122,0.061,0,1.203,4.444,-75.756
 14:38:06.183,eb:33:2e:f9:57:b5, 2085-97-242 255:02:00:2031,-0.007,0.001,0.992,0.061,0,0,1.203,4.444,-75.756
 14:38:06.183,eb:33:2e:f9:57:b5, 2085-97-241 255:00:00:2034,-0.007,0,0.993,0,0.122,-0.061,1.203,4.444,-75.756
 14:38:06.183,eb:33:2e:f9:57:b5, 2085-97-243 255:00:00:2037,-0.006,0,0.995,0,0.122,0,1.203,4.444,-75.756
 14:38:06.327,eb:33:2e:f9:57:b5, 2085-97-242 255:01:00:2037,-0.008,0,0.995,0,0.244,0,1.203,4.444,-75.756
 14:38:06.327,eb:33:2e:f9:57:b5, 2085-97-241 255:01:00:2035,-0.008,0,0.993,0.061,0.244,-0.061,1.203,4.444,-75.756
 14:38:06.327,eb:33:2e:f9:57:b5, 2085-97-240 255:01:00:2034,-0.007,0,0.994,0.122,0.183,-0.061,1.203,4.444,-75.756
 14:38:06.327,eb:33:2e:f9:57:b5, 2085-97-239 255:00:00:2033,-0.008,0,0.994,0.122,0.122,-0.061,1.203,4.444,-75.762
 14:38:06.357,eb:33:2e:f9:57:b5, 2085-97-240 255:01:00:2033,-0.008,0.001,0.992,0.122,0.061,0,1.203,4.444,-75.762
 14:38:06.357,eb:33:2e:f9:57:b5, 2085-97-241 255:01:00:2033,-0.008,0,0.993,0.183,0,0,1.203,4.444,-75.762
 14:38:06.357,eb:33:2e:f9:57:b5, 2085-97-239 255:03:00:2029,-0.007,0.001,0.992,0.122,0,0,1.203,4.444,-75.762
 14:38:06.357,eb:33:2e:f9:57:b5, 2085-97-239 255:02:00:2030,-0.007,0.001,0.992,0.061,-0.122,0,1.203,4.444,-75.762
 14:38:06.359,eb:33:2e:f9:57:b5, 2085-97-241 255:02:00:2028,-0.007,0.001,0.991,0,-0.122,0,1.203,4.444,-75.762
 14:38:06.359,eb:33:2e:f9:57:b5, 2085-97-242 255:03:00:2028,-0.007,0.001,0.989,-0.061,-0.122,0,1.203,4.444,-75.762
 14:38:06.359,eb:33:2e:f9:57:b5, 2085-97-243 255:02:00:2030,-0.007,0.001,0.991,-0.122,-0.122,0,1.203,4.444,-75.762
 14:38:06.359,eb:33:2e:f9:57:b5, 2085-97-240 255:02:00:2029,-0.008,0.001,0.992,-0.183,-0.183,0,1.203,4.444,-75.762
 14:38:06.361,eb:33:2e:f9:57:b5, 2085-97-241 255:03:00:2032,-0.006,0,0.991,-0.305,-0.244,-0.061,1.208,4.444,-75.762
 14:38:06.361,eb:33:2e:f9:57:b5, 2085-97-244 255:01:00:2033,-0.005,0,0.992,-0.305,-0.305,-0.061,1.208,4.444,-75.762
 14:38:06.361,eb:33:2e:f9:57:b5, 2085-97-244 255:00:00:2036,-0.004,0,0.993,-0.366,-0.183,-0.061,1.208,4.444,-75.762
 14:38:06.361,eb:33:2e:f9:57:b5, 2085-97-246 255:255:255:2039,-0.006,0,0.996,-0.183,-0.061,0,1.208,4.444,-75.762
 14:38:06.597,eb:33:2e:f9:57:b5, 2085-97-244 255:01:00:2036,-0.006,0,0.995,-0.061,-0.061,-0.061,1.208,4.444,-75.762
 14:38:06.597,eb:33:2e:f9:57:b5, 2085-97-244 255:00:00:2039,-0.005,0,0.995,0,0,-0.061,1.208,4.444,-75.762
 14:38:06.597,eb:33:2e:f9:57:b5, 2085-97-244 255:00:00:2040,-0.005,0,0.996,0.061,0.183,-0.061,1.208,4.444,-75.762
 14:38:06.597,eb:33:2e:f9:57:b5, 2085-97-245 255:01:00:2039,-0.006,0,0.996,0.183,0.427,-0.122,1.208,4.444,-75.762
 14:38:06.658,eb:33:2e:f9:57:b5, 2085-97-243 255:00:00:2035,-0.006,0,0.995,0.305,0.61,-0.122,1.208,4.444,-75.762
 14:38:06.658,eb:33:2e:f9:57:b5, 2085-97-242 255:00:00:2034,-0.007,0,0.993,0.366,0.61,-0.122,1.208,4.444,-75.762
 14:38:06.658,eb:33:2e:f9:57:b5, 2085-97-242 255:00:00:2038,-0.004,0,0.994,0.427,0.671,-0.122,1.208,4.444,-75.762
 14:38:06.658,eb:33:2e:f9:57:b5, 2085-97-252 255:254:255:2048,-0.001,0,0.997,0.732,1.16,-0.122,1.208,4.444,-75.767
 14:38:06.660,eb:33:2e:f9:57:b5, 2085-97-248 255:00:00:2050,-0.006,0,1,1.099,1.892,-0.244,1.208,4.444,-75.767
 14:38:06.660,eb:33:2e:f9:57:b5, 2085-97-240 255:251:255:2045,-0.008,0,0.998,1.526,2.625,-0.305,1.214,4.449,-75.767
 14:38:06.660,eb:33:2e:f9:57:b5, 2085-97-237 255:00:00:2042,-0.01,0,0.996,1.709,2.869,-0.244,1.23,4.482,-75.767
 14:38:06.660,eb:33:2e:f9:57:b5, 2085-97-238 255:255:255:2045,-0.008,0,0.999,1.831,2.869,-0.061,1.247,4.51,-75.773
 14:38:06.664,eb:33:2e:f9:57:b5, 2085-97-234 255:02:00:2041,-0.013,0,1,1.953,3.052,0.061,1.269,4.543,-75.767
 14:38:06.664,eb:33:2e:f9:57:b5, 2085-97-224 255:02:00:2033,-0.015,0.001,0.995,2.075,2.747,0.183,1.285,4.57,-75.767
 14:38:06.664,eb:33:2e:f9:57:b5, 2085-97-227 255:05:00:2028,-0.015,0,0.992,2.258,2.258,0.305,1.307,4.598,-75.762
 14:38:06.664,eb:33:2e:f9:57:b5, 2085-97-224 255:06:00:2018,-0.018,0.002,0.988,2.136,1.831,0.366,1.329,4.614,-75.762
 14:38:06.664,eb:33:2e:f9:57:b5, 2085-97-218 255:06:00:2016,-0.017,0.003,0.984,2.075,1.038,0.427,1.351,4.631,-75.756
 14:38:06.664,eb:33:2e:f9:57:b5, 2085-97-225 255:11:00:2019,-0.014,0.004,0.984,2.014,0.244,0.61,1.373,4.636,-75.751
 14:38:06.665,eb:33:2e:f9:57:b5, 2085-97-226 255:08:00:2025,-0.015,0.004,0.988,1.892,-0.061,0.61,1.395,4.636,-75.745
 14:38:06.666,eb:33:2e:f9:57:b5, 2085-97-225 255:11:00:2025,-0.013,0.003,0.988,1.77,-0.549,0.61,1.412,4.636,-75.734
 14:38:06.668,eb:33:2e:f9:57:b5, 2085-97-234 255:14:00:2033,-0.006,0.006,0.991,1.709,-0.793,0.61,1.428,4.625,-75.729
 14:38:06.668,eb:33:2e:f9:57:b5, 2085-97-243 255:16:00:2039,-0.008,0.008,0.995,0.244,0,0.183,1.478,4.598,-75.707
 14:38:06.668,eb:33:2e:f9:57:b5, 2085-97-236 255:14:00:2036,-0.01,0.008,0.995,0,0.366,0,1.478,4.598,-75.707
 14:38:06.668,eb:33:2e:f9:57:b5, 2085-97-232 255:14:00:2032,-0.012,0.007,0.993,-0.122,0.366,0,1.478,4.603,-75.707
 14:38:06.808,eb:33:2e:f9:57:b5, 2085-97-230 255:20:00:2016,0.002,0.007,0.99,-0.366,0.305,0,1.478,4.609,-75.707
 14:38:06.808,eb:33:2e:f9:57:b5, 2085-97-13 00:238:255:2120,0.005,-0.008,1.025,-0.488,-1.282,-0.488,1.406,4.565,-75.723
 14:38:06.808,eb:33:2e:f9:57:b5, 2085-97-253 255:00:00:2095,-0.009,-0.003,1.032,0.977,0.183,-0.549,1.412,4.559,-75.729
 14:38:06.808,eb:33:2e:f9:57:b5, 2085-97-231 255:00:00:2066,-0.012,0.001,1.015,1.709,0.793,-0.366,1.423,4.565,-75.729
 14:38:06.808,eb:33:2e:f9:57:b5, 2085-113-81 00:10:101:147,-0.011,0.002,1.004,2.319,0.61,-0.305,1.423,4.565,-75.729
 14:38:06.808,eb:33:2e:f9:57:b5, 2085-97-237 255:12:00:2039,-0.01,0.004,0.999,2.441,0.488,-0.183,1.423,4.565,-75.729
 14:38:06.808,eb:33:2e:f9:57:b5, 2085-97-237 255:16:00:2031,-0.009,0.007,0.994,2.502,0.427,-0.244,1.423,4.565,-75.729
 14:38:06.808,eb:33:2e:f9:57:b5, 2085-97-238 255:21:00:2029,-0.008,0.009,0.992,2.258,0.61,-0.305,1.423,4.565,-75.729
 14:38:06.810,eb:33:2e:f9:57:b5, 2085-97-242 255:20:00:2036,-0.007,0.01,0.993,1.892,0.854,-0.366,1.423,4.565,-75.729
 14:38:06.810,eb:33:2e:f9:57:b5, 2085-97-240 255:19:00:2036,-0.01,0.009,0.994,1.587,1.221,-0.488,1.423,4.565,-75.729
 14:38:06.810,eb:33:2e:f9:57:b5, 2085-97-243 255:02:00:2066,-0.001,0.007,0.997,1.587,1.526,-0.549,1.423,4.565,-75.729
 14:38:06.810,eb:33:2e:f9:57:b5, 2085-97-00 00:251:255:2098,-0.002,-0.003,1.02,2.625,1.709,-0.366,1.428,4.57,-75.734
 14:38:06.837,eb:33:2e:f9:57:b5, 2085-97-241 255:12:00:2075,-0.012,0.003,1.021,3.601,2.808,0,1.461,4.592,-75.734
 14:38:06.837,eb:33:2e:f9:57:b5, 2085-97-230 255:10:00:2068,-0.014,0.006,1.011,3.906,3.296,0.305,1.5,4.625,-75.729
 14:38:06.837,eb:33:2e:f9:57:b5, 2085-97-225 255:08:00:2063,-0.014,0.005,1.008,4.395,3.052,0.488,1.544,4.658,-75.729
 14:38:06.837,eb:33:2e:f9:57:b5, 2085-97-229 255:14:00:2064,-0.016,0.005,1.011,4.7,2.869,0.916,1.588,4.686,-75.718
 14:38:06.867,eb:33:2e:f9:57:b5, 2085-97-221 255:19:00:2046,-0.023,0.008,1.002,4.517,3.235,1.587,1.637,4.719,-75.707
 14:38:06.867,eb:33:2e:f9:57:b5, 2085-97-195 255:13:00:2029,-0.024,0.01,0.991,3.723,3.479,3.357,1.675,4.752,-75.679
 14:38:06.867,eb:33:2e:f9:57:b5, 2085-97-243 255:40:00:2075,0.002,0.008,0.997,2.319,3.54,5.554,1.708,4.785,-75.63
 14:38:06.867,eb:33:2e:f9:57:b5, 2085-97-247 255:129:00:2076,-0.03,0.039,1.022,1.343,5.981,5.127,1.725,4.834,-75.575
 14:38:06.898,eb:33:2e:f9:57:b5, 2085-97-148 255:122:00:1860,-0.033,0.071,0.951,-1.404,3.601,3.174,1.73,4.889,-75.531
 14:38:06.898,eb:33:2e:f9:57:b5, 2085-97-235 255:120:00:1987,0.074,0.062,0.932,-5.615,-5.188,3.418,1.692,4.878,-75.498
 14:38:06.898,eb:33:2e:f9:57:b5, 2085-97-168 00:13:01:1918,-0.011,0.123,0.904,-7.69,-20.813,3.235,1.62,4.757,-75.465
 14:38:06.898,eb:33:2e:f9:57:b5, 2085-97-179 255:00:00:2220,-0.019,0.04,1.037,-11.78,-27.954,2.136,1.527,4.488,-75.449
 14:38:06.987,eb:33:2e:f9:57:b5, 2085-97-111 00:125:253:1917,0.065,-0.054,1.069,-24.109,-28.442,13.55,1.351,4.208,-75.377
 14:38:06.987,eb:33:2e:f9:57:b5, 2085-97-232 255:229:253:1610,-0.031,-0.333,0.75,-39.856,-43.945,48.401,1.016,3.873,-75.059
 14:38:06.987,eb:33:2e:f9:57:b5, 2085-97-191 00:135:254:1494,0.187,-0.22,0.751,-43.823,-53.711,83.008,0.593,3.389,-74.372
 14:38:06.987,eb:33:2e:f9:57:b5, 2085-97-142 01:84:255:1507,0.181,-0.139,0.735,-39.795,-74.768,104.492,0.143,2.741,-73.4
 14:38:06.991,eb:33:2e:f9:57:b5, 2085-97-106 01:42:00:1692,0.191,-0.023,0.782,-24.597,-86.975,112,-0.209,1.939,-72.29
 14:38:06.991,eb:33:2e:f9:57:b5, 2085-97-89 01:06:00:1797,0.154,0.024,0.89,-5.859,-84.229,110.168,-0.406,1.099,-71.147
 14:38:06.991,eb:33:2e:f9:57:b5, 2085-97-38 01:118:255:1661,0.062,-0.023,0.843,3.662,-71.167,105.347,-0.461,0.357,-70.049
 14:38:06.991,eb:33:2e:f9:57:b5, 2085-97-184 253:223:254:4092,-0.131,-0.171,1.649,8.606,-32.532,104.553,-0.483,-0.203,-68.989
 14:38:07.019,eb:33:2e:f9:57:b5, 2085-97-79 01:217:01:1938,0.261,0.108,1.139,8.362,42.603,105.408,-0.445,0.011,-67.928
 14:38:07.019,eb:33:2e:f9:57:b5, 2085-97-45 01:49:00:2289,0.146,0.185,1.12,7.324,61.89,85.632,-0.45,0.582,-66.984
 14:38:07.019,eb:33:2e:f9:57:b5, 2085-97-242 00:69:00:2180,-0.008,0.04,1.062,6.653,80.139,63.049,-0.412,1.324,-66.264
 14:38:07.019,eb:33:2e:f9:57:b5, 2085-97-41 255:131:00:1979,-0.187,0.049,1.048,6.47,86.365,33.691,-0.374,2.197,-65.825
 14:38:07.137,eb:33:2e:f9:57:b5, 2085-97-154 254:214:00:1992,-0.167,0.127,1.024,5.005,68.42,8.85,-0.319,2.983,-65.643
 14:38:07.137,eb:33:2e:f9:57:b5, 2085-97-06 255:07:00:1865,-0.108,0.059,0.936,6.165,32.898,-10.315,-0.258,3.477,-65.682
 14:38:07.137,eb:33:2e:f9:57:b5, 2085-97-160 255:44:255:2025,0.035,-0.076,0.937,9.399,4.944,-15.32,-0.181,3.631,-65.83
 14:38:07.137,eb:33:2e:f9:57:b5, 2085-97-152 00:164:255:2183,0.061,-0.085,1.051,11.536,2.991,-7.385,-0.071,3.642,-65.94
 14:38:07.140,eb:33:2e:f9:57:b5, 2085-97-30 00:17:00:2009,-0.041,-0.01,1.034,10.62,11.597,-3.54,0.044,3.724,-65.989
 14:38:07.140,eb:33:2e:f9:57:b5, 2085-97-94 255:230:255:1865,-0.086,0.007,0.934,8.728,6.714,-4.456,0.137,3.829,-66.033
 14:38:07.140,eb:33:2e:f9:57:b5, 2085-97-115 255:188:255:1882,-0.044,-0.031,0.907,8.85,-5.371,-4.15,0.225,3.829,-66.077
 14:38:07.140,eb:33:2e:f9:57:b5, 2085-97-211 255:220:255:1970,-0.01,-0.025,0.94,9.46,-14.282,-3.967,0.319,3.719,-66.116
 14:38:07.198,eb:33:2e:f9:57:b5, 2085-97-255 255:244:255:1999,0.005,-0.012,0.973,9.338,-17.883,-4.456,0.412,3.554,-66.154
 14:38:07.198,eb:33:2e:f9:57:b5, 2085-97-34 00:25:00:2015,0.031,0.001,0.983,7.751,-19.043,-4.211,0.5,3.367,-66.193
 14:38:07.198,eb:33:2e:f9:57:b5, 2085-97-87 00:09:00:2052,0.052,0.01,0.998,4.578,-17.456,-3.296,0.56,3.181,-66.231
 14:38:07.198,eb:33:2e:f9:57:b5, 2085-97-121 00:249:255:2080,0.061,0,1.01,3.113,-13.55,-2.869,0.599,3.027,-66.259
 14:38:07.200,eb:33:2e:f9:57:b5, 2085-97-115 00:250:255:2073,0.053,-0.005,1.017,2.258,-8.362,-2.808,0.626,2.917,-66.286
 14:38:07.200,eb:33:2e:f9:57:b5, 2085-97-102 00:05:00:2055,0.043,0,1.009,1.038,-4.089,-2.319,0.643,2.856,-66.313
 14:38:07.200,eb:33:2e:f9:57:b5, 2085-97-70 00:253:255:2023,0.027,0.003,0.995,-0.427,-0.977,-2.014,0.643,2.834,-66.33
 14:38:07.200,eb:33:2e:f9:57:b5, 2085-97-28 00:232:255:1979,0.007,-0.005,0.974,-1.465,-0.244,-1.953,0.632,2.834,-66.352
 14:38:07.227,eb:33:2e:f9:57:b5, 2085-97-10 00:226:255:1990,0.003,-0.013,0.966,-1.526,-2.502,-1.831,0.615,2.818,-66.368
 14:38:07.227,eb:33:2e:f9:57:b5, 2085-97-11 00:214:255:2018,0.007,-0.019,0.975,-1.099,-5.371,-1.587,0.604,2.78,-66.385
 14:38:07.227,eb:33:2e:f9:57:b5, 2085-97-25 00:211:255:2038,0.017,-0.023,0.991,-0.244,-7.935,-1.282,0.599,2.708,-66.401
 14:38:07.227,eb:33:2e:f9:57:b5, 2085-97-41 00:223:255:2052,0.024,-0.021,0.999,0.549,-9.338,-0.977,0.599,2.62,-66.412
 14:38:07.257,eb:33:2e:f9:57:b5, 2085-97-51 00:230:255:2058,0.023,-0.014,1.003,0.977,-9.705,-1.038,0.61,2.527,-66.418
 14:38:07.257,eb:33:2e:f9:57:b5, 2085-97-41 00:228:255:2052,0.022,-0.015,1.005,1.343,-9.705,-0.793,0.621,2.428,-66.429
 14:38:07.257,eb:33:2e:f9:57:b5, 2085-97-55 00:227:255:2065,0.034,-0.013,1.003,1.587,-10.132,-0.488,0.637,2.329,-66.434
 14:38:07.257,eb:33:2e:f9:57:b5, 2085-97-86 00:231:255:2099,0.044,-0.013,1.017,1.831,-9.644,-0.244,0.654,2.23,-66.434
 14:38:07.319,eb:33:2e:f9:57:b5, 2085-97-88 00:238:255:2095,0.044,-0.011,1.026,1.892,-7.751,0.061,0.67,2.142,-66.434
 14:38:07.319,eb:33:2e:f9:57:b5, 2085-97-86 00:234:255:2086,0.039,-0.009,1.02,1.831,-5.92,0.366,0.692,2.076,-66.429
 14:38:07.319,eb:33:2e:f9:57:b5, 2085-97-72 00:231:255:2071,0.035,-0.011,1.015,2.014,-4.517,0.427,0.709,2.027,-66.423
 14:38:07.319,eb:33:2e:f9:57:b5, 2085-97-76 00:232:255:2061,0.037,-0.012,1.008,2.319,-4.089,0.793,0.731,1.983,-66.418
 14:38:07.348,eb:33:2e:f9:57:b5, 2085-97-64 00:240:255:2040,0.027,-0.009,1.002,2.625,-3.662,0.854,0.758,1.945,-66.407
 14:38:07.348,eb:33:2e:f9:57:b5, 2085-97-59 00:235:255:2030,0.032,-0.009,0.991,2.686,-4.333,1.038,0.786,1.906,-66.396
 14:38:07.348,eb:33:2e:f9:57:b5, 2085-97-68 00:231:255:2040,0.038,-0.011,0.994,2.93,-5.127,1.343,0.813,1.857,-66.385
 14:38:07.348,eb:33:2e:f9:57:b5, 2085-97-84 00:237:255:2042,0.042,-0.011,0.998,3.235,-5.493,1.404,0.84,1.802,-66.368
 14:38:07.408,eb:33:2e:f9:57:b5, 2085-97-83 00:252:255:2022,0.04,-0.006,0.993,3.174,-5.249,1.465,0.873,1.747,-66.357
 14:38:07.408,eb:33:2e:f9:57:b5, 2085-97-88 00:00:00:2009,0.046,0,0.982,2.563,-5.127,1.404,0.901,1.697,-66.341
 14:38:07.408,eb:33:2e:f9:57:b5, 2085-97-103 00:00:00:2019,0.05,0,0.984,1.77,-4.7,1.282,0.923,1.648,-66.324
 14:38:07.408,eb:33:2e:f9:57:b5, 2085-97-100 00:03:00:2014,0.049,0.001,0.985,0.977,-3.906,1.16,0.939,1.604,-66.313
 14:38:07.408,eb:33:2e:f9:57:b5, 2085-97-103 00:00:00:2020,0.045,0,0.985,0.183,-3.113,1.038,0.945,1.571,-66.302
 14:38:07.467,eb:33:2e:f9:57:b5, 2085-113-81 00:35:107:-448,0.044,-0.004,0.985,-0.244,-2.38,0.916,0.939,1.544,-66.292
 14:38:07.467,eb:33:2e:f9:57:b5, 2085-97-94 00:244:255:2030,0.049,-0.006,0.988,-0.305,-2.38,0.977,0.939,1.533,-66.286
 14:38:07.467,eb:33:2e:f9:57:b5, 2085-97-103 00:245:255:2027,0.045,-0.006,0.994,-0.244,-2.014,0.977,0.934,1.511,-66.275
 14:38:07.467,eb:33:2e:f9:57:b5, 2085-97-92 00:247:255:2023,0.04,-0.006,0.987,-0.244,-1.953,0.732,0.934,1.494,-66.264
 14:38:07.471,eb:33:2e:f9:57:b5, 2085-97-83 00:241:255:2017,0.042,-0.006,0.983,-0.549,-2.38,0.793,0.928,1.472,-66.259
 14:38:07.471,eb:33:2e:f9:57:b5, 2085-97-83 00:235:255:2012,0.026,-0.007,0.986,-0.793,-2.563,1.038,0.923,1.445,-66.248
 14:38:07.471,eb:33:2e:f9:57:b5, 2085-97-24 00:214:255:1972,0.021,-0.014,0.976,-1.404,-2.93,2.075,0.906,1.423,-66.231
 14:38:07.471,eb:33:2e:f9:57:b5, 2085-97-43 00:232:255:1994,0.028,-0.015,0.975,-1.77,-4.517,3.235,0.89,1.384,-66.198
 14:38:07.558,eb:33:2e:f9:57:b5, 2085-97-56 00:242:255:1995,0.029,-0.011,0.986,-1.282,-5.92,3.052,0.873,1.329,-66.165
 14:38:07.558,eb:33:2e:f9:57:b5, 2085-97-83 00:244:255:2006,0.056,-0.007,0.974,-0.122,-9.46,1.892,0.862,1.252,-66.143
 14:38:07.558,eb:33:2e:f9:57:b5, 2085-97-150 00:06:00:2043,0.093,-0.001,0.992,0,-10.315,1.526,0.862,1.148,-66.121
 14:38:07.558,eb:33:2e:f9:57:b5, 2085-97-198 00:04:00:2081,0.072,-0.008,1.015,-0.183,-9.033,0.977,0.862,1.049,-66.11
 14:38:07.560,eb:33:2e:f9:57:b5, 2085-97-148 00:250:255:2075,0.074,-0.001,1.009,-0.305,-6.714,0.122,0.857,0.972,-66.105
 14:38:07.560,eb:33:2e:f9:57:b5, 2085-97-120 00:244:255:2051,0.037,-0.002,1.016,-0.671,-4.456,0.61,0.851,0.917,-66.099
 14:38:07.560,eb:33:2e:f9:57:b5, 2085-97-83 00:221:255:2017,0.051,-0.015,0.984,-0.793,-3.601,1.099,0.846,0.879,-66.088
 14:38:07.560,eb:33:2e:f9:57:b5, 2085-97-125 00:237:255:2049,0.073,-0.012,0.991,-0.732,-4.211,1.831,0.835,0.84,-66.072
 14:38:07.588,eb:33:2e:f9:57:b5, 2085-97-166 00:240:255:2088,0.077,-0.009,1.013,-0.244,-3.906,1.404,0.829,0.802,-66.055
 14:38:07.588,eb:33:2e:f9:57:b5, 2085-97-138 00:242:255:2063,0.059,-0.009,1.019,0.122,-2.014,1.282,0.829,0.769,-66.039
 14:38:07.588,eb:33:2e:f9:57:b5, 2085-97-114 00:238:255:2029,0.056,-0.007,0.996,0.244,-0.549,1.221,0.829,0.758,-66.028
 14:38:07.588,eb:33:2e:f9:57:b5, 2085-97-118 00:235:255:2036,0.061,-0.011,0.991,0.305,-0.183,1.221,0.829,0.758,-66.011
 14:38:07.677,eb:33:2e:f9:57:b5, 2085-97-123 00:234:255:2045,0.06,-0.009,0.998,0.61,0.305,1.221,0.835,0.758,-66
 14:38:07.677,eb:33:2e:f9:57:b5, 2085-97-124 00:236:255:2041,0.062,-0.012,0.998,0.977,1.038,1.221,0.846,0.764,-65.989
 14:38:07.677,eb:33:2e:f9:57:b5, 2085-97-127 00:243:255:2046,0.062,-0.007,0.997,1.099,2.075,1.099,0.851,0.78,-65.973
 14:38:07.677,eb:33:2e:f9:57:b5, 2085-97-126 00:248:255:2023,0.059,-0.005,0.993,1.038,3.479,0.977,0.868,0.813,-65.962
 14:38:07.677,eb:33:2e:f9:57:b5, 2085-97-113 00:245:255:2011,0.055,-0.004,0.984,0.488,4.272,0.732,0.873,0.851,-65.956
 14:38:07.679,eb:33:2e:f9:57:b5, 2085-97-113 00:246:255:2012,0.052,-0.004,0.981,0.366,4.395,0.427,0.879,0.895,-65.945
 14:38:07.679,eb:33:2e:f9:57:b5, 2085-97-103 00:241:255:2018,0.05,-0.007,0.983,0.061,4.089,0.244,0.879,0.939,-65.945
 14:38:07.679,eb:33:2e:f9:57:b5, 2085-97-106 00:235:255:2031,0.053,-0.009,0.989,0.183,3.784,0.244,0.879,0.978,-65.94
 14:38:07.708,eb:33:2e:f9:57:b5, 2085-97-107 00:235:255:2034,0.054,-0.01,0.993,0.488,3.662,0.244,0.884,1.016,-65.94
 14:38:07.708,eb:33:2e:f9:57:b5, 2085-97-110 00:236:255:2034,0.051,-0.009,0.993,0.671,3.54,0.366,0.89,1.055,-65.934
 14:38:07.708,eb:33:2e:f9:57:b5, 2085-97-99 00:235:255:2035,0.045,-0.01,0.995,0.854,3.357,0.488,0.895,1.088,-65.929
 14:38:07.709,eb:33:2e:f9:57:b5, 2085-97-91 00:234:255:2038,0.045,-0.011,0.994,1.099,2.808,0.732,0.906,1.121,-65.923
 14:38:07.827,eb:33:2e:f9:57:b5, 2085-97-99 00:237:255:2045,0.05,-0.012,0.997,1.404,2.258,1.16,0.917,1.143,-65.912
 14:38:07.827,eb:33:2e:f9:57:b5, 2085-97-107 00:244:255:2049,0.052,-0.007,1,1.526,2.38,1.343,0.934,1.17,-65.901
 14:38:07.827,eb:33:2e:f9:57:b5, 2085-97-104 00:246:255:2030,0.051,-0.005,0.997,1.526,2.93,1.404,0.95,1.198,-65.885
 14:38:07.827,eb:33:2e:f9:57:b5, 2085-97-107 00:247:255:2030,0.053,-0.005,0.99,1.465,3.235,1.404,0.967,1.23,-65.869
 14:38:07.831,eb:33:2e:f9:57:b5, 2085-97-109 00:248:255:2035,0.053,-0.004,0.993,1.343,3.784,1.282,0.978,1.263,-65.858
 14:38:07.831,eb:33:2e:f9:57:b5, 2085-97-109 00:240:255:2041,0.053,-0.005,0.994,1.404,4.456,1.343,0.989,1.307,-65.841
 14:38:07.831,eb:33:2e:f9:57:b5, 2085-97-106 00:244:255:2046,0.049,-0.008,0.996,1.709,5.249,1.282,1.005,1.357,-65.83
 14:38:07.831,eb:33:2e:f9:57:b5, 2085-97-96 00:241:255:2050,0.046,-0.005,1,2.014,6.042,1.221,1.027,1.412,-65.819
 14:38:07.833,eb:33:2e:f9:57:b5, 2085-97-103 00:248:255:2043,0.046,-0.007,1.003,2.625,6.714,1.526,1.044,1.478,-65.803
 14:38:07.833,eb:33:2e:f9:57:b5, 2085-97-87 00:249:255:2032,0.04,-0.004,0.997,2.747,7.141,1.221,1.071,1.549,-65.792
 14:38:07.833,eb:33:2e:f9:57:b5, 2085-97-80 00:250:255:2019,0.04,-0.004,0.989,2.625,7.324,1.282,1.099,1.62,-65.775
 14:38:07.833,eb:33:2e:f9:57:b5, 2085-97-83 00:249:255:2028,0.041,-0.003,0.988,2.319,6.958,1.221,1.126,1.692,-65.764
 14:38:07.917,eb:33:2e:f9:57:b5, 2085-97-81 00:248:255:2035,0.036,-0.003,0.994,2.258,7.263,1.099,1.148,1.763,-65.753
 14:38:07.917,eb:33:2e:f9:57:b5, 2085-97-69 00:252:255:2028,0.033,-0.003,0.993,2.258,7.446,1.221,1.17,1.84,-65.742
 14:38:07.917,eb:33:2e:f9:57:b5, 2085-97-63 00:255:255:2014,0.032,-0.001,0.985,1.892,7.202,1.099,1.187,1.912,-65.726
 14:38:07.917,eb:33:2e:f9:57:b5, 2085-97-63 00:253:255:2017,0.031,0,0.982,1.77,6.348,0.977,1.203,1.983,-65.715
 14:38:07.920,eb:33:2e:f9:57:b5, 2085-97-63 00:252:255:2015,0.03,-0.002,0.986,1.77,5.371,0.854,1.219,2.038,-65.704
 14:38:07.920,eb:33:2e:f9:57:b5, 2085-97-61 00:251:255:2028,0.032,-0.001,0.984,1.77,4.517,0.793,1.236,2.087,-65.698
 14:38:07.920,eb:33:2e:f9:57:b5, 2085-97-74 00:254:255:2054,0.037,-0.002,0.995,1.953,4.211,0.427,1.258,2.131,-65.693
 14:38:07.920,eb:33:2e:f9:57:b5, 2085-97-79 00:00:00:2070,0.039,-0.001,1.01,2.136,5.371,-0.244,1.28,2.181,-65.687
 14:38:07.947,eb:33:2e:f9:57:b5, 2085-97-80 00:05:00:2052,0.038,0.001,1.006,2.258,6.897,-1.099,1.302,2.241,-65.698
 14:38:07.947,eb:33:2e:f9:57:b5, 2085-97-75 00:06:00:2024,0.036,0.002,0.994,2.075,7.874,-1.892,1.324,2.318,-65.709
 14:38:07.947,eb:33:2e:f9:57:b5, 2085-97-72 00:07:00:2013,0.029,0.004,0.985,1.709,8.057,-2.197,1.34,2.401,-65.731
 14:38:07.947,eb:33:2e:f9:57:b5, 2085-97-56 00:255:255:2010,0.027,0.001,0.98,1.404,7.874,-2.136,1.357,2.483,-65.753
 14:38:08.039,eb:33:2e:f9:57:b5, 2085-97-54 00:02:00:2002,0.024,0,0.979,1.404,7.019,-1.709,1.373,2.554,-65.77
 14:38:08.039,eb:33:2e:f9:57:b5, 2085-97-43 00:00:00:2013,0.021,0.001,0.981,1.404,6.226,-1.404,1.39,2.62,-65.786
 14:38:08.039,eb:33:2e:f9:57:b5, 2085-97-47 00:255:255:2025,0.023,-0.001,0.986,1.648,5.31,-0.977,1.401,2.681,-65.797
 14:38:08.039,eb:33:2e:f9:57:b5, 2085-97-48 00:04:00:2026,0.023,0,0.99,1.77,4.883,-0.61,1.423,2.73,-65.808
 14:38:08.039,eb:33:2e:f9:57:b5, 2085-97-44 00:06:00:2023,0.021,0.003,0.988,1.709,4.517,-0.305,1.439,2.78,-65.808
 14:38:08.039,eb:33:2e:f9:57:b5, 2085-97-40 00:10:00:2018,0.02,0.004,0.987,1.404,4.15,-0.244,1.456,2.823,-65.814
 14:38:08.039,eb:33:2e:f9:57:b5, 2085-97-44 00:06:00:2019,0.021,0.004,0.984,1.038,3.845,-0.122,1.467,2.862,-65.814
 14:38:08.039,eb:33:2e:f9:57:b5, 2085-97-41 00:07:00:2015,0.017,0.002,0.985,0.916,3.662,0,1.478,2.9,-65.814
 14:38:08.098,eb:33:2e:f9:57:b5, 2085-97-34 00:07:00:2003,0.017,0.002,0.98,0.793,3.296,0,1.489,2.933,-65.814
 14:38:08.098,eb:33:2e:f9:57:b5, 2085-97-32 00:05:00:2015,0.017,0.003,0.981,0.671,2.625,-0.183,1.494,2.966,-65.814
 14:38:08.098,eb:33:2e:f9:57:b5, 2085-97-36 00:04:00:2030,0.017,0.001,0.988,0.793,1.77,-0.305,1.5,2.988,-65.814
 14:38:08.098,eb:33:2e:f9:57:b5, 2085-97-36 00:04:00:2039,0.018,0.002,0.994,0.916,1.343,-0.244,1.511,2.999,-65.819
 14:38:08.128,eb:33:2e:f9:57:b5, 2085-97-38 00:06:00:2047,0.019,0.003,0.998,1.099,1.282,-0.183,1.522,3.016,-65.819
 14:38:08.128,eb:33:2e:f9:57:b5, 2085-97-39 00:00:00:2056,0.02,0,1.003,1.221,1.282,-0.122,1.533,3.027,-65.819
 14:38:08.128,eb:33:2e:f9:57:b5, 2085-97-40 00:01:00:2060,0.018,0,1.005,1.465,1.587,0,1.549,3.043,-65.819
 14:38:08.128,eb:33:2e:f9:57:b5, 2085-97-39 00:254:255:2067,0.019,0,1.008,1.77,1.892,0.244,1.566,3.06,-65.819
 14:38:08.187,eb:33:2e:f9:57:b5, 2085-97-38 00:255:255:2061,0.017,-0.001,1.009,2.197,2.258,0.61,1.582,3.082,-65.814
 14:38:08.187,eb:33:2e:f9:57:b5, 2085-97-32 00:02:00:2042,0.016,0.001,1.001,2.563,2.258,1.038,1.609,3.109,-65.803
 14:38:08.187,eb:33:2e:f9:57:b5, 2085-97-29 00:03:00:2035,0.013,0.001,0.995,2.869,2.014,1.282,1.637,3.131,-65.792
 14:38:08.187,eb:33:2e:f9:57:b5, 2085-113-81 00:122:107:-022,0.015,0.003,0.988,3.113,1.465,1.343,1.664,3.148,-65.775
 14:38:08.189,eb:33:2e:f9:57:b5, 2085-97-27 00:13:00:2016,0.014,0.005,0.986,3.052,1.343,1.465,1.681,3.153,-65.77
 14:38:08.189,eb:33:2e:f9:57:b5, 2085-97-32 00:21:00:2010,0.015,0.008,0.983,2.808,1.038,1.526,1.708,3.164,-65.753
 14:38:08.189,eb:33:2e:f9:57:b5, 2085-97-33 00:25:00:2001,0.014,0.011,0.981,2.319,1.038,1.404,1.736,3.175,-65.737
 14:38:08.189,eb:33:2e:f9:57:b5, 2085-97-29 00:24:00:2000,0.015,0.011,0.977,1.831,0.916,1.221,1.758,3.186,-65.726
 14:38:08.277,eb:33:2e:f9:57:b5, 2085-97-28 00:26:00:1997,0.016,0.013,0.974,1.404,0.61,0.854,1.774,3.197,-65.715
 14:38:08.277,eb:33:2e:f9:57:b5, 2085-97-31 00:21:00:2004,0.017,0.012,0.977,1.038,0.366,0.61,1.785,3.203,-65.704
 14:38:08.278,eb:33:2e:f9:57:b5, 2085-97-29 00:26:00:2003,0.013,0.012,0.979,0.671,0.244,0.427,1.796,3.203,-65.698
 14:38:08.278,eb:33:2e:f9:57:b5, 2085-97-25 00:25:00:2001,0.011,0.013,0.978,0.305,0.122,0.183,1.802,3.208,-65.693
 14:38:08.306,eb:33:2e:f9:57:b5, 2085-97-24 00:20:00:2007,0.011,0.01,0.979,0,-0.305,0.061,1.802,3.208,-65.693
 14:38:08.306,eb:33:2e:f9:57:b5, 2085-97-23 00:20:00:2009,0.013,0.009,0.98,-0.244,-0.916,0,1.796,3.197,-65.693
 14:38:08.306,eb:33:2e:f9:57:b5, 2085-97-31 00:18:00:2019,0.014,0.01,0.983,-0.488,-1.343,0,1.796,3.186,-65.693
 14:38:08.306,eb:33:2e:f9:57:b5, 2085-97-28 00:17:00:2020,0.013,0.009,0.987,-0.671,-1.587,-0.122,1.791,3.175,-65.693
 14:38:08.309,eb:33:2e:f9:57:b5, 2085-97-29 00:16:00:2026,0.016,0.008,0.987,-0.732,-1.892,-0.061,1.78,3.159,-65.693
 14:38:08.309,eb:33:2e:f9:57:b5, 2085-97-36 00:16:00:2039,0.018,0.008,0.994,-0.732,-2.075,-0.061,1.774,3.137,-65.693
 14:38:08.309,eb:33:2e:f9:57:b5, 2085-97-40 00:13:00:2048,0.021,0.007,0.998,-0.793,-1.892,-0.061,1.763,3.115,-65.693
 14:38:08.309,eb:33:2e:f9:57:b5, 2085-97-42 00:13:00:2051,0.02,0.006,1.002,-0.671,-1.465,0,1.758,3.098,-65.698
 14:38:08.398,eb:33:2e:f9:57:b5, 2085-97-40 00:12:00:2046,0.02,0.006,1,-0.488,-1.038,0,1.752,3.087,-65.698
 14:38:08.398,eb:33:2e:f9:57:b5, 2085-97-39 00:10:00:2047,0.019,0.005,0.999,-0.305,-0.854,0,1.747,3.076,-65.693
 14:38:08.398,eb:33:2e:f9:57:b5, 2085-97-39 00:12:00:2043,0.02,0.005,0.999,0,-0.732,0,1.747,3.071,-65.693
 14:38:08.398,eb:33:2e:f9:57:b5, 2085-97-39 00:12:00:2043,0.018,0.007,0.998,0.122,-0.488,0.122,1.747,3.065,-65.693
 14:38:08.400,eb:33:2e:f9:57:b5, 2085-97-36 00:11:00:2038,0.018,0.005,0.996,0.305,-0.305,0.061,1.747,3.06,-65.693
 14:38:08.400,eb:33:2e:f9:57:b5, 2085-97-39 00:12:00:2037,0.02,0.005,0.996,0.427,-0.244,0.183,1.752,3.054,-65.687
 14:38:08.400,eb:33:2e:f9:57:b5, 2085-97-39 00:16:00:2033,0.02,0.008,0.994,0.549,-0.061,0.122,1.758,3.054,-65.687
 14:38:08.400,eb:33:2e:f9:57:b5, 2085-97-38 00:15:00:2025,0.017,0.007,0.991,0.61,0.061,0.061,1.763,3.054,-65.687
 14:38:08.428,eb:33:2e:f9:57:b5, 2085-97-37 00:17:00:2023,0.019,0.008,0.988,0.549,0.061,0,1.769,3.054,-65.682
 14:38:08.428,eb:33:2e:f9:57:b5, 2085-97-37 00:18:00:2022,0.017,0.008,0.988,0.427,0.122,0,1.774,3.06,-65.682
 14:38:08.428,eb:33:2e:f9:57:b5, 2085-97-32 00:20:00:2015,0.017,0.009,0.985,0.183,0.122,0,1.78,3.06,-65.682
 14:38:08.428,eb:33:2e:f9:57:b5, 2085-97-36 00:19:00:2019,0.018,0.01,0.985,0.122,-0.061,-0.061,1.78,3.06,-65.682
 14:38:08.489,eb:33:2e:f9:57:b5, 2085-97-39 00:19:00:2022,0.019,0.009,0.986,-0.183,-0.122,-0.061,1.78,3.06,-65.687
 14:38:08.489,eb:33:2e:f9:57:b5, 2085-97-39 00:18:00:2028,0.021,0.009,0.988,-0.305,-0.061,-0.183,1.78,3.06,-65.687
 14:38:08.489,eb:33:2e:f9:57:b5, 2085-97-42 00:19:00:2032,0.021,0.009,0.993,-0.427,0.122,-0.244,1.774,3.06,-65.687
 14:38:08.489,eb:33:2e:f9:57:b5, 2085-97-40 00:17:00:2030,0.019,0.009,0.992,-0.549,0.305,-0.244,1.769,3.06,-65.693
 14:38:08.517,eb:33:2e:f9:57:b5, 2085-97-39 00:14:00:2027,0.018,0.008,0.992,-0.61,0.427,-0.244,1.763,3.065,-65.698
 14:38:08.517,eb:33:2e:f9:57:b5, 2085-97-37 00:14:00:2029,0.019,0.007,0.991,-0.671,0.427,-0.305,1.758,3.071,-65.698
 14:38:08.517,eb:33:2e:f9:57:b5, 2085-97-35 00:14:00:2031,0.017,0.007,0.991,-0.732,0.427,-0.122,1.747,3.076,-65.704
 14:38:08.517,eb:33:2e:f9:57:b5, 2085-97-36 00:12:00:2035,0.017,0.006,0.992,-0.671,0.183,-0.122,1.741,3.082,-65.704
 14:38:08.548,eb:33:2e:f9:57:b5, 2085-97-32 00:13:00:2029,0.016,0.006,0.992,-0.549,0,-0.122,1.736,3.082,-65.704
 14:38:08.548,eb:33:2e:f9:57:b5, 2085-97-33 00:12:00:2026,0.015,0.006,0.99,-0.549,-0.183,-0.061,1.73,3.082,-65.709
 14:38:08.548,eb:33:2e:f9:57:b5, 2085-97-31 00:16:00:2023,0.016,0.006,0.988,-0.61,-0.549,-0.061,1.725,3.076,-65.709
 14:38:08.548,eb:33:2e:f9:57:b5, 2085-97-32 00:15:00:2027,0.017,0.007,0.988,-0.732,-0.854,-0.122,1.714,3.071,-65.709
 14:38:08.608,eb:33:2e:f9:57:b5, 2085-97-36 00:12:00:2031,0.018,0.006,0.99,-0.793,-1.221,-0.122,1.708,3.06,-65.715
 14:38:08.608,eb:33:2e:f9:57:b5, 2085-97-38 00:10:00:2036,0.019,0.005,0.993,-0.854,-1.282,-0.061,1.697,3.043,-65.715
 14:38:08.608,eb:33:2e:f9:57:b5, 2085-97-40 00:10:00:2041,0.021,0.005,0.996,-0.671,-1.221,0,1.692,3.032,-65.715
 14:38:08.608,eb:33:2e:f9:57:b5, 2085-97-42 00:11:00:2042,0.021,0.004,0.996,-0.671,-1.038,0,1.686,3.021,-65.715
 14:38:08.638,eb:33:2e:f9:57:b5, 2085-97-44 00:08:00:2041,0.021,0.004,0.997,-0.549,-0.793,0,1.681,3.01,-65.715
 14:38:08.638,eb:33:2e:f9:57:b5, 2085-97-42 00:11:00:2038,0.02,0.005,0.997,-0.488,-0.488,0,1.675,3.005,-65.715
 14:38:08.638,eb:33:2e:f9:57:b5, 2085-97-39 00:10:00:2033,0.02,0.006,0.994,-0.488,-0.305,0.061,1.67,3.005,-65.715
 14:38:08.638,eb:33:2e:f9:57:b5, 2085-97-41 00:11:00:2033,0.021,0.005,0.992,-0.549,-0.305,0,1.664,2.999,-65.715
 14:38:08.668,eb:33:2e:f9:57:b5, 2085-97-41 00:11:00:2032,0.02,0.006,0.993,-0.549,-0.305,0,1.659,2.994,-65.715
 14:38:08.668,eb:33:2e:f9:57:b5, 2085-97-38 00:11:00:2028,0.018,0.006,0.991,-0.61,-0.366,-0.061,1.648,2.994,-65.715
 14:38:08.668,eb:33:2e:f9:57:b5, 2085-97-39 00:09:00:2030,0.02,0.005,0.991,-0.61,-0.427,0,1.642,2.988,-65.715
 14:38:08.668,eb:33:2e:f9:57:b5, 2085-97-41 00:09:00:2036,0.02,0.004,0.993,-0.61,-0.488,0,1.637,2.983,-65.715
 14:38:08.727,eb:33:2e:f9:57:b5, 2085-97-40 00:09:00:2035,0.02,0.004,0.993,-0.549,-0.549,0,1.631,2.977,-65.715
 14:38:08.727,eb:33:2e:f9:57:b5, 2085-97-42 00:08:00:2035,0.021,0.005,0.993,-0.549,-0.488,0,1.626,2.972,-65.72
 14:38:08.727,eb:33:2e:f9:57:b5, 2085-97-41 00:09:00:2032,0.02,0.005,0.993,-0.549,-0.427,0,1.62,2.966,-65.72
 14:38:08.727,eb:33:2e:f9:57:b5, 2085-97-39 00:12:00:2029,0.02,0.005,0.991,-0.549,-0.488,0,1.615,2.966,-65.72
 14:38:08.757,eb:33:2e:f9:57:b5, 2085-97-39 00:09:00:2029,0.021,0.004,0.99,-0.671,-0.549,0,1.609,2.961,-65.72
 14:38:08.757,eb:33:2e:f9:57:b5, 2085-97-41 00:09:00:2033,0.021,0.004,0.992,-0.61,-0.61,0,1.599,2.955,-65.72
 14:38:08.757,eb:33:2e:f9:57:b5, 2085-97-40 00:08:00:2033,0.021,0.003,0.992,-0.61,-0.671,-0.061,1.593,2.95,-65.72
 14:38:08.757,eb:33:2e:f9:57:b5, 2085-97-41 00:07:00:2033,0.02,0.003,0.993,-0.61,-0.732,0,1.588,2.939,-65.72
 14:38:08.818,eb:33:2e:f9:57:b5, 2085-97-44 00:07:00:2035,0.021,0.004,0.992,-0.488,-0.732,0,1.582,2.933,-65.72
 14:38:08.818,eb:33:2e:f9:57:b5, 2085-97-44 00:06:00:2035,0.021,0.003,0.994,-0.427,-0.671,0,1.577,2.928,-65.72
 14:38:08.818,eb:33:2e:f9:57:b5, 2085-113-81 00:130:107:-079,0.021,0.004,0.993,-0.427,-0.61,-0.061,1.571,2.922,-65.72
 14:38:08.818,eb:33:2e:f9:57:b5, 2085-97-42 00:07:00:2030,0.021,0.004,0.991,-0.427,-0.61,0,1.571,2.917,-65.72
 14:38:08.818,eb:33:2e:f9:57:b5, 2085-97-44 00:07:00:2033,0.023,0.003,0.992,-0.427,-0.671,0,1.566,2.911,-65.726
 14:38:08.848,eb:33:2e:f9:57:b5, 2085-97-44 00:09:00:2032,0.021,0.004,0.992,-0.488,-0.61,-0.061,1.56,2.906,-65.726
 14:38:08.848,eb:33:2e:f9:57:b5, 2085-97-44 00:08:00:2030,0.021,0.004,0.991,-0.549,-0.549,-0.061,1.555,2.9,-65.726
 14:38:08.848,eb:33:2e:f9:57:b5, 2085-97-45 00:08:00:2030,0.022,0.003,0.991,-0.549,-0.549,-0.061,1.549,2.889,-65.726
 14:38:08.848,eb:33:2e:f9:57:b5, 2085-97-46 00:07:00:2030,0.023,0.004,0.991,-0.549,-0.488,-0.183,1.544,2.884,-65.731
 14:38:08.907,eb:33:2e:f9:57:b5, 2085-97-45 00:08:00:2031,0.022,0.003,0.991,-0.549,-0.427,-0.183,1.538,2.884,-65.731
 14:38:08.907,eb:33:2e:f9:57:b5, 2085-97-47 00:06:00:2035,0.023,0.003,0.992,-0.671,-0.366,-0.183,1.533,2.878,-65.737
 14:38:08.907,eb:33:2e:f9:57:b5, 2085-97-48 00:06:00:2034,0.021,0.003,0.993,-0.61,-0.183,-0.183,1.527,2.873,-65.737
 14:38:08.907,eb:33:2e:f9:57:b5, 2085-97-45 00:06:00:2032,0.022,0.003,0.993,-0.671,-0.122,-0.183,1.516,2.873,-65.742
 14:38:08.938,eb:33:2e:f9:57:b5, 2085-97-45 00:04:00:2031,0.022,0.002,0.991,-0.671,-0.183,-0.183,1.511,2.873,-65.742
 14:38:08.938,eb:33:2e:f9:57:b5, 2085-97-44 00:04:00:2030,0.022,0.001,0.992,-0.671,-0.122,-0.122,1.505,2.873,-65.742
 14:38:08.938,eb:33:2e:f9:57:b5, 2085-97-46 00:06:00:2028,0.022,0.002,0.991,-0.671,-0.244,-0.183,1.494,2.867,-65.748
 14:38:08.938,eb:33:2e:f9:57:b5, 2085-97-45 00:05:00:2031,0.022,0.002,0.99,-0.732,-0.244,-0.244,1.489,2.867,-65.748
 14:38:09.028,eb:33:2e:f9:57:b5, 2085-97-46 00:04:00:2035,0.023,0.002,0.993,-0.732,-0.183,-0.305,1.483,2.862,-65.753
 14:38:09.028,eb:33:2e:f9:57:b5, 2085-97-46 00:03:00:2032,0.022,0.002,0.994,-0.671,-0.061,-0.244,1.472,2.862,-65.753
 14:38:09.028,eb:33:2e:f9:57:b5, 2085-97-45 00:03:00:2035,0.021,0.001,0.993,-0.61,-0.122,-0.183,1.467,2.862,-65.759
 14:38:09.028,eb:33:2e:f9:57:b5, 2085-97-45 00:03:00:2034,0.022,0.001,0.994,-0.61,-0.122,-0.122,1.461,2.862,-65.759
 14:38:09.030,eb:33:2e:f9:57:b5, 2085-97-45 00:03:00:2031,0.022,0.002,0.992,-0.671,-0.122,-0.244,1.456,2.862,-65.764
 14:38:09.030,eb:33:2e:f9:57:b5, 2085-97-46 00:02:00:2030,0.022,0.001,0.991,-0.732,-0.122,-0.183,1.445,2.856,-65.764
 14:38:09.030,eb:33:2e:f9:57:b5, 2085-97-46 00:01:00:2032,0.023,0.001,0.992,-0.61,-0.122,-0.183,1.439,2.856,-65.77
 14:38:09.030,eb:33:2e:f9:57:b5, 2085-97-47 00:01:00:2033,0.022,0,0.992,-0.61,-0.061,-0.183,1.434,2.856,-65.77
 14:38:09.032,eb:33:2e:f9:57:b5, 2085-97-46 00:02:00:2033,0.023,0,0.993,-0.61,-0.122,-0.183,1.428,2.856,-65.775
 14:38:09.032,eb:33:2e:f9:57:b5, 2085-97-47 00:03:00:2032,0.022,0.001,0.993,-0.549,0,-0.183,1.423,2.856,-65.775
 14:38:09.032,eb:33:2e:f9:57:b5, 2085-97-47 00:01:00:2032,0.022,0.001,0.992,-0.549,0,-0.244,1.412,2.856,-65.775
 14:38:09.032,eb:33:2e:f9:57:b5, 2085-97-45 00:04:00:2032,0.022,0,0.992,-0.549,0,-0.244,1.406,2.856,-65.781
 14:38:09.087,eb:33:2e:f9:57:b5, 2085-97-45 00:01:00:2031,0.022,0.001,0.992,-0.549,0,-0.244,1.401,2.856,-65.786
 14:38:09.087,eb:33:2e:f9:57:b5, 2085-97-48 00:00:00:2031,0.023,0,0.992,-0.549,0,-0.244,1.395,2.856,-65.786
 14:38:09.087,eb:33:2e:f9:57:b5, 2085-97-46 00:00:00:2035,0.022,0,0.993,-0.488,0,-0.244,1.39,2.856,-65.792
 14:38:09.087,eb:33:2e:f9:57:b5, 2085-97-45 00:01:00:2032,0.022,0,0.993,-0.427,0,-0.244,1.384,2.856,-65.792
 14:38:09.117,eb:33:2e:f9:57:b5, 2085-97-46 00:00:00:2036,0.023,0,0.993,-0.427,0,-0.244,1.384,2.856,-65.797
 14:38:09.117,eb:33:2e:f9:57:b5, 2085-97-45 00:01:00:2035,0.021,0,0.994,-0.427,0.061,-0.183,1.379,2.856,-65.797
 14:38:09.117,eb:33:2e:f9:57:b5, 2085-97-45 00:00:00:2033,0.022,0,0.993,-0.366,0.061,-0.183,1.373,2.856,-65.803
 14:38:09.117,eb:33:2e:f9:57:b5, 2085-97-49 00:00:00:2035,0.023,0,0.993,-0.305,0,-0.183,1.368,2.856,-65.803
 14:38:09.209,eb:33:2e:f9:57:b5, 2085-97-45 00:00:00:2034,0.022,0,0.994,-0.244,0.122,-0.183,1.368,2.862,-65.808
 14:38:09.209,eb:33:2e:f9:57:b5, 2085-97-47 00:254:255:2040,0.023,0,0.994,-0.244,0.122,-0.183,1.368,2.862,-65.808
 14:38:09.209,eb:33:2e:f9:57:b5, 2085-97-45 00:00:00:2035,0.021,0,0.995,-0.061,0.244,-0.183,1.351,2.851,-65.808
 14:38:09.209,eb:33:2e:f9:57:b5, 2085-97-43 00:00:00:2035,0.021,0,0.993,-0.061,0.183,-0.122,1.351,2.851,-65.808
 14:38:09.238,eb:33:2e:f9:57:b5, 2085-97-46 00:00:00:2038,0.023,0,0.996,-0.061,0.305,-0.122,1.346,2.851,-65.808
 14:38:09.238,eb:33:2e:f9:57:b5, 2085-97-46 00:01:00:2038,0.021,0,0.995,0,0.366,-0.122,1.346,2.851,-65.808
 14:38:09.238,eb:33:2e:f9:57:b5, 2085-97-46 00:255:255:2037,0.023,0,0.994,0.061,0.244,-0.305,1.34,2.845,-65.808
 14:38:09.238,eb:33:2e:f9:57:b5, 2085-97-46 00:254:255:2035,0.022,0,0.994,0.122,0.244,-0.244,1.34,2.845,-65.814
 14:38:09.238,eb:33:2e:f9:57:b5, 2085-97-43 00:00:00:2032,0.021,0,0.993,0.122,0.366,-0.244,1.335,2.845,-65.814
 14:38:09.238,eb:33:2e:f9:57:b5, 2085-97-44 00:01:00:2026,0.021,0,0.991,0.122,0.427,-0.183,1.335,2.845,-65.814
 14:38:09.238,eb:33:2e:f9:57:b5, 2085-97-43 00:00:00:2030,0.022,0,0.989,0.061,0.366,-0.122,1.335,2.845,-65.814
 14:38:09.238,eb:33:2e:f9:57:b5, 2085-97-45 00:00:00:2031,0.022,0,0.992,0.061,0.366,-0.183,1.335,2.845,-65.814
 14:38:09.298,eb:33:2e:f9:57:b5, 2085-97-45 00:00:00:2032,0.021,0,0.992,0,0.366,-0.183,1.324,2.84,-65.814
 14:38:09.298,eb:33:2e:f9:57:b5, 2085-97-44 00:00:00:2032,0.021,0,0.993,0,0.366,-0.183,1.318,2.84,-65.863
 14:38:09.298,eb:33:2e:f9:57:b5, 2085-97-44 00:01:00:2029,0.021,0,0.991,0,0.244,-0.183,1.318,2.834,-65.863
 14:38:09.298,eb:33:2e:f9:57:b5, 2085-97-42 00:00:00:2030,0.021,0,0.991,0,0.244,-0.183,1.318,2.834,-65.912
 14:38:09.357,eb:33:2e:f9:57:b5, 2085-97-45 00:00:00:2030,0.021,0,0.99,0,0.183,-0.061,1.318,2.834,-65.912
 14:38:09.357,eb:33:2e:f9:57:b5, 2085-97-42 00:01:00:2028,0.021,0,0.991,0,0.244,-0.122,1.318,2.834,-65.962
 14:38:09.357,eb:33:2e:f9:57:b5, 2085-97-43 00:00:00:2029,0.021,0,0.991,-0.061,0.183,-0.122,1.318,2.834,-65.962
 14:38:09.357,eb:33:2e:f9:57:b5, 2085-97-44 00:01:00:2028,0.021,0,0.99,-0.061,0.122,-0.061,1.318,2.834,-66.011
 14:38:09.361,eb:33:2e:f9:57:b5, 2085-97-43 00:01:00:2030,0.021,0.001,0.99,-0.183,0.061,-0.122,1.318,2.834,-66.011
 14:38:09.361,eb:33:2e:f9:57:b5, 2085-97-47 00:255:255:2033,0.021,0,0.993,-0.122,0.061,-0.122,1.318,2.834,-66.055
 14:38:09.361,eb:33:2e:f9:57:b5, 2085-97-45 00:00:00:2032,0.022,0,0.993,-0.122,0.244,-0.061,1.318,2.834,-66.055
 14:38:09.361,eb:33:2e:f9:57:b5, 2085-97-43 00:255:255:2029,0.021,0,0.991,-0.122,0.366,-0.061,1.318,2.834,-66.105
 14:38:09.447,eb:33:2e:f9:57:b5, 2085-97-42 00:254:255:2034,0.02,-0.001,0.992,-0.122,0.366,0,1.318,2.834,-66.105
 14:38:09.447,eb:33:2e:f9:57:b5, 2085-97-42 00:255:255:2035,0.021,0,0.993,-0.061,0.427,0,1.318,2.834,-66.154
 14:38:09.447,eb:33:2e:f9:57:b5, 2085-97-42 00:254:255:2037,0.021,0,0.995,0,0.366,-0.061,1.313,2.834,-66.154
 14:38:09.447,eb:33:2e:f9:57:b5, 2085-97-43 00:254:255:2036,0.021,0,0.994,0.122,0.305,-0.061,1.313,2.834,-66.198
 14:38:09.507,eb:33:2e:f9:57:b5, 2085-97-41 00:255:255:2030,0.021,0,0.993,0.122,0.305,-0.061,1.313,2.834,-66.198
 14:38:09.507,eb:33:2e:f9:57:b5, 2085-97-41 00:02:00:2027,0.02,0,0.99,0.122,0.305,0,1.313,2.834,-66.248
 14:38:09.507,eb:33:2e:f9:57:b5, 2085-97-42 00:00:00:2028,0.021,0.001,0.989,0,0.244,0,1.313,2.834,-66.248
 14:38:09.507,eb:33:2e:f9:57:b5, 2085-97-42 00:00:00:2030,0.021,0,0.991,0,0.244,0,1.313,2.834,-66.292
 14:38:09.510,eb:33:2e:f9:57:b5, 2085-97-41 00:00:00:2031,0.021,0,0.991,0,0.244,0,1.313,2.834,-66.292
 14:38:09.510,eb:33:2e:f9:57:b5, 2085-97-42 00:00:00:2032,0.021,0,0.992,0,0.305,0,1.313,2.834,-66.341
 14:38:09.510,eb:33:2e:f9:57:b5, 2085-97-43 00:00:00:2031,0.021,0,0.992,0,0.305,0,1.313,2.834,-66.341
 14:38:09.510,eb:33:2e:f9:57:b5, 2085-97-41 00:00:00:2030,0.02,0,0.991,0,0.244,0,1.313,2.834,-66.385
 14:38:09.539,eb:33:2e:f9:57:b5, 2085-97-40 00:00:00:2029,0.019,0,0.991,0,0.305,0,1.313,2.834,-66.385
 14:38:09.539,eb:33:2e:f9:57:b5, 2085-97-39 00:00:00:2030,0.02,0,0.991,0,0.183,0,1.313,2.834,-66.429
 14:38:09.539,eb:33:2e:f9:57:b5, 2085-97-42 00:02:00:2029,0.02,0,0.991,0,0.183,0,1.307,2.834,-66.429
 14:38:09.539,eb:33:2e:f9:57:b5, 2085-97-40 00:01:00:2030,0.02,0,0.991,0,0.122,0,1.307,2.834,-66.478
 14:38:09.567,eb:33:2e:f9:57:b5, 2085-97-40 00:00:00:2030,0.02,0.001,0.992,-0.061,0.122,0,1.307,2.834,-66.478
 14:38:09.567,eb:33:2e:f9:57:b5, 2085-97-42 00:01:00:2030,0.021,0,0.99,-0.061,0,-0.122,1.307,2.834,-66.522
 14:38:09.567,eb:33:2e:f9:57:b5, 2085-97-43 00:00:00:2032,0.021,0,0.991,-0.122,-0.122,-0.122,1.307,2.834,-66.522
 14:38:09.567,eb:33:2e:f9:57:b5, 2085-113-58 00:98:218:1590,0.021,0,0.992,-0.244,-0.061,-0.061,1.307,2.834,-66.566
 14:38:09.599,eb:33:2e:f9:57:b5, 2085-97-43 00:00:00:2030,0.021,0,0.992,-0.183,-0.061,-0.122,1.307,2.834,-66.566
 14:38:09.599,eb:33:2e:f9:57:b5, 2085-97-41 00:00:00:2032,0.02,0,0.993,-0.244,-0.061,-0.061,1.307,2.834,-66.61
 14:38:09.599,eb:33:2e:f9:57:b5, 2085-97-39 00:00:00:2034,0.021,0,0.993,-0.183,0,-0.061,1.307,2.834,-66.61
 14:38:09.599,eb:33:2e:f9:57:b5, 2085-97-42 00:255:255:2035,0.02,0,0.994,-0.183,0.061,0,1.307,2.834,-66.654
 14:38:09.688,eb:33:2e:f9:57:b5, 2085-97-41 00:00:00:2032,0.021,0,0.993,-0.122,0.061,0,1.307,2.834,-66.654
 14:38:09.688,eb:33:2e:f9:57:b5, 2085-97-42 00:255:255:2033,0.021,-0.001,0.993,-0.061,0,0,1.307,2.834,-66.698
 14:38:09.688,eb:33:2e:f9:57:b5, 2085-97-42 00:255:255:2033,0.021,0,0.993,0,0,0,1.302,2.834,-66.698
 14:38:09.688,eb:33:2e:f9:57:b5, 2085-97-41 00:254:255:2032,0.02,0,0.992,-0.061,0,0,1.302,2.834,-66.742
 14:38:09.690,eb:33:2e:f9:57:b5, 2085-97-42 00:254:255:2032,0.021,0,0.992,0,0,0,1.302,2.834,-66.742
 14:38:09.690,eb:33:2e:f9:57:b5, 2085-97-41 00:00:00:2032,0.021,0,0.993,-0.061,0,0,1.302,2.834,-66.786
 14:38:09.690,eb:33:2e:f9:57:b5, 2085-97-42 00:00:00:2031,0.021,0,0.992,-0.122,0,0,1.302,2.834,-66.786
 14:38:09.690,eb:33:2e:f9:57:b5, 2085-97-42 00:00:00:2029,0.02,0,0.992,-0.122,0,0,1.302,2.834,-66.83
 14:38:09.777,eb:33:2e:f9:57:b5, 2085-97-41 00:255:255:2029,0.021,0,0.991,-0.122,0,-0.061,1.302,2.834,-66.83
 14:38:09.777,eb:33:2e:f9:57:b5, 2085-97-41 00:253:255:2030,0.02,0,0.991,-0.183,0,-0.061,1.302,2.834,-66.874
 14:38:09.777,eb:33:2e:f9:57:b5, 2085-97-41 00:00:00:2032,0.021,-0.001,0.992,-0.122,0,-0.122,1.302,2.834,-66.874
 14:38:09.777,eb:33:2e:f9:57:b5, 2085-97-42 00:255:255:2033,0.021,0,0.993,-0.122,0,0,1.302,2.834,-66.918
 14:38:09.779,eb:33:2e:f9:57:b5, 2085-97-42 00:255:255:2033,0.021,-0.001,0.993,-0.183,0,-0.061,1.302,2.834,-66.918
 14:38:09.779,eb:33:2e:f9:57:b5, 2085-97-43 00:255:255:2034,0.02,-0.001,0.993,-0.122,0,0,1.302,2.834,-66.962
 14:38:09.779,eb:33:2e:f9:57:b5, 2085-97-41 00:00:00:2030,0.021,0,0.992,-0.061,0,-0.061,1.296,2.834,-66.962
 14:38:09.779,eb:33:2e:f9:57:b5, 2085-97-42 00:00:00:2029,0.021,0,0.991,-0.061,0,-0.061,1.296,2.84,-67.006
 14:38:09.807,eb:33:2e:f9:57:b5, 2085-97-41 00:255:255:2032,0.02,0,0.99,-0.183,0,-0.061,1.296,2.84,-67.006
 14:38:09.807,eb:33:2e:f9:57:b5, 2085-97-42 00:253:255:2032,0.021,-0.001,0.993,-0.183,-0.061,-0.061,1.296,2.84,-67.044
 14:38:09.807,eb:33:2e:f9:57:b5, 2085-97-43 00:254:255:2031,0.021,-0.001,0.992,-0.183,-0.061,-0.122,1.296,2.84,-67.044
 14:38:09.807,eb:33:2e:f9:57:b5, 2085-97-43 00:254:255:2033,0.02,0,0.992,-0.122,0,-0.122,1.296,2.84,-67.088
 14:38:09.867,eb:33:2e:f9:57:b5, 2085-97-41 00:252:255:2035,0.02,0,0.994,-0.122,0,-0.122,1.296,2.84,-67.088
 14:38:09.867,eb:33:2e:f9:57:b5, 2085-97-42 00:255:255:2032,0.02,-0.002,0.993,-0.061,0,-0.061,1.296,2.84,-67.132
 14:38:09.867,eb:33:2e:f9:57:b5, 2085-97-41 00:253:255:2033,0.02,0,0.992,-0.061,-0.061,-0.061,1.296,2.84,-67.132
 14:38:09.867,eb:33:2e:f9:57:b5, 2085-97-40 00:00:00:2032,0.021,0,0.993,-0.061,-0.061,0,1.296,2.84,-67.17
 14:38:09.898,eb:33:2e:f9:57:b5, 2085-97-41 00:00:00:2031,0.021,0,0.992,-0.061,0,-0.061,1.291,2.84,-67.17
 14:38:09.898,eb:33:2e:f9:57:b5, 2085-97-41 00:254:255:2030,0.02,0,0.991,-0.061,-0.061,-0.122,1.291,2.84,-67.214
 14:38:09.898,eb:33:2e:f9:57:b5, 2085-97-40 00:253:255:2031,0.02,-0.002,0.992,-0.061,-0.061,-0.122,1.291,2.84,-67.214
 14:38:09.898,eb:33:2e:f9:57:b5, 2085-97-41 00:254:255:2032,0.02,-0.001,0.991,-0.061,-0.122,-0.122,1.291,2.84,-67.253
 14:38:09.929,eb:33:2e:f9:57:b5, 2085-97-41 00:254:255:2033,0.021,-0.001,0.993,-0.061,-0.122,-0.122,1.291,2.84,-67.253
 14:38:09.929,eb:33:2e:f9:57:b5, 2085-97-42 00:00:00:2029,0.021,-0.001,0.993,-0.061,-0.244,-0.122,1.291,2.84,-67.297
 14:38:09.929,eb:33:2e:f9:57:b5, 2085-97-42 00:254:255:2030,0.021,0,0.991,-0.122,-0.183,-0.183,1.291,2.84,-67.297
 14:38:09.929,eb:33:2e:f9:57:b5, 2085-97-43 00:255:255:2029,0.021,-0.001,0.991,-0.183,-0.305,-0.122,1.291,2.84,-67.335
 14:38:10.018,eb:33:2e:f9:57:b5, 2085-97-43 00:254:255:2028,0.021,0,0.99,-0.122,-0.366,-0.122,1.291,2.84,-67.335
 14:38:10.018,eb:33:2e:f9:57:b5, 2085-97-44 00:253:255:2032,0.021,-0.001,0.992,-0.122,-0.244,-0.061,1.291,2.84,-67.374
 14:38:10.018,eb:33:2e:f9:57:b5, 2085-97-42 00:253:255:2032,0.022,-0.002,0.993,-0.122,-0.244,-0.061,1.285,2.84,-67.374
 14:38:10.018,eb:33:2e:f9:57:b5, 2085-97-44 00:253:255:2033,0.021,-0.001,0.993,-0.122,-0.183,-0.061,1.285,2.84,-67.418
 14:38:10.020,eb:33:2e:f9:57:b5, 2085-97-43 00:254:255:2030,0.021,-0.001,0.992,-0.122,-0.183,-0.061,1.285,2.84,-67.418
 14:38:10.020,eb:33:2e:f9:57:b5, 2085-97-42 00:253:255:2031,0.021,-0.001,0.991,-0.122,-0.183,-0.061,1.285,2.84,-67.456
 14:38:10.020,eb:33:2e:f9:57:b5, 2085-97-43 00:254:255:2031,0.021,-0.001,0.992,-0.061,-0.244,-0.122,1.285,2.84,-67.456
 14:38:10.020,eb:33:2e:f9:57:b5, 2085-97-43 00:254:255:2027,0.021,-0.001,0.991,-0.061,-0.244,-0.061,1.285,2.84,-67.495
 14:38:10.077,eb:33:2e:f9:57:b5, 2085-97-42 00:254:255:2028,0.021,-0.001,0.991,-0.122,-0.305,-0.061,1.285,2.84,-67.495
 14:38:10.077,eb:33:2e:f9:57:b5, 2085-97-43 00:253:255:2031,0.022,-0.002,0.991,-0.122,-0.427,-0.183,1.285,2.84,-67.538
 14:38:10.077,eb:33:2e:f9:57:b5, 2085-97-45 00:254:255:2033,0.022,0,0.993,-0.183,-0.305,-0.122,1.285,2.84,-67.538
 14:38:10.077,eb:33:2e:f9:57:b5, 2085-97-44 00:253:255:2033,0.022,-0.001,0.993,-0.183,-0.305,-0.183,1.285,2.84,-67.577
 14:38:10.079,eb:33:2e:f9:57:b5, 2085-97-46 00:252:255:2036,0.023,-0.002,0.994,-0.183,-0.305,-0.122,1.28,2.84,-67.577
 14:38:10.079,eb:33:2e:f9:57:b5, 2085-97-45 00:252:255:2036,0.021,-0.002,0.995,-0.061,-0.244,-0.122,1.28,2.84,-67.615
 14:38:10.079,eb:33:2e:f9:57:b5, 2085-97-43 00:252:255:2033,0.021,-0.002,0.993,-0.183,-0.122,-0.122,1.28,2.84,-67.615
 14:38:10.079,eb:33:2e:f9:57:b5, 2085-97-46 00:252:255:2032,0.022,-0.002,0.993,-0.061,-0.061,-0.122,1.28,2.84,-67.654
 14:38:10.138,eb:33:2e:f9:57:b5, 2085-97-44 00:254:255:2030,0.021,-0.001,0.991,0,-0.061,-0.122,1.28,2.834,-67.654
 14:38:10.138,eb:33:2e:f9:57:b5, 2085-97-43 00:252:255:2030,0.021,-0.001,0.991,-0.122,-0.061,-0.061,1.28,2.834,-67.692
 14:38:10.138,eb:33:2e:f9:57:b5, 2085-97-45 00:253:255:2031,0.021,-0.002,0.991,-0.122,-0.183,-0.061,1.28,2.834,-67.692
 14:38:10.138,eb:33:2e:f9:57:b5, 2085-97-45 00:253:255:2034,0.022,-0.002,0.992,-0.061,-0.244,-0.061,1.28,2.834,-67.731
 14:38:10.167,eb:33:2e:f9:57:b5, 2085-97-46 00:253:255:2032,0.022,-0.002,0.993,-0.061,-0.122,-0.061,1.274,2.834,-67.731
 14:38:10.167,eb:33:2e:f9:57:b5, 2085-97-44 00:254:255:2032,0.022,-0.001,0.992,-0.061,-0.122,0,1.274,2.834,-67.769
 14:38:10.167,eb:33:2e:f9:57:b5, 2085-97-45 00:252:255:2031,0.021,-0.001,0.992,0,-0.122,-0.061,1.274,2.834,-67.769
 14:38:10.167,eb:33:2e:f9:57:b5, 2085-97-43 00:253:255:2029,0.021,-0.002,0.992,-0.122,-0.183,-0.061,1.274,2.834,-67.808
 14:38:10.258,eb:33:2e:f9:57:b5, 2085-97-44 00:254:255:2029,0.021,-0.001,0.99,-0.122,-0.244,-0.061,1.274,2.834,-67.808
 14:38:10.258,eb:33:2e:f9:57:b5, 2085-97-44 00:252:255:2031,0.021,-0.002,0.991,-0.183,-0.244,-0.061,1.274,2.834,-67.846
 14:38:10.258,eb:33:2e:f9:57:b5, 2085-97-44 00:250:255:2032,0.021,-0.002,0.992,-0.183,-0.244,0,1.274,2.834,-67.846
 14:38:10.258,eb:33:2e:f9:57:b5, 2085-97-47 00:253:255:2032,0.022,-0.002,0.993,0,-0.183,0,1.274,2.834,-67.885
 14:38:10.258,eb:33:2e:f9:57:b5, 2085-97-47 00:253:255:2032,0.022,-0.003,0.993,0,-0.244,0,1.269,2.834,-67.885
 14:38:10.261,eb:33:2e:f9:57:b5, 2085-113-58 00:144:217:1650,0.021,-0.002,0.992,-0.061,-0.244,0,1.269,2.834,-67.923
 14:38:10.261,eb:33:2e:f9:57:b5, 2085-97-44 00:254:255:2032,0.022,-0.001,0.992,-0.061,-0.305,0,1.269,2.834,-67.923
 14:38:10.261,eb:33:2e:f9:57:b5, 2085-97-44 00:252:255:2031,0.021,-0.001,0.992,-0.061,-0.305,0,1.269,2.834,-67.923
 14:38:10.261,eb:33:2e:f9:57:b5, 2085-97-45 00:252:255:2032,0.022,-0.002,0.992,-0.061,-0.244,0,1.269,2.834,-67.961
 14:38:10.288,eb:33:2e:f9:57:b5, 2085-97-44 00:252:255:2032,0.023,-0.001,0.993,-0.061,-0.244,0,1.269,2.834,-67.961
 14:38:10.288,eb:33:2e:f9:57:b5, 2085-97-46 00:252:255:2031,0.022,-0.002,0.992,-0.122,-0.244,0,1.269,2.834,-67.994
 14:38:10.288,eb:33:2e:f9:57:b5, 2085-97-47 00:251:255:2034,0.023,-0.002,0.992,-0.061,-0.305,-0.061,1.269,2.834,-67.994
 14:38:10.288,eb:33:2e:f9:57:b5, 2085-97-45 00:251:255:2031,0.021,-0.002,0.993,0,-0.244,0,1.269,2.834,-68.033
 14:38:10.348,eb:33:2e:f9:57:b5, 2085-97-45 00:251:255:2030,0.022,-0.002,0.992,-0.061,-0.244,0,1.269,2.834,-68.033
 14:38:10.348,eb:33:2e:f9:57:b5, 2085-97-45 00:252:255:2030,0.022,-0.002,0.991,0,-0.366,0,1.263,2.834,-68.071
 14:38:10.348,eb:33:2e:f9:57:b5, 2085-97-44 00:251:255:2031,0.022,-0.002,0.991,-0.061,-0.366,0,1.263,2.834,-68.071
 14:38:10.348,eb:33:2e:f9:57:b5, 2085-97-47 00:251:255:2033,0.023,-0.002,0.993,0,-0.366,0,1.263,2.834,-68.11
 14:38:10.377,eb:33:2e:f9:57:b5, 2085-97-47 00:253:255:2030,0.023,-0.002,0.991,0,-0.305,0,1.263,2.834,-68.11
 14:38:10.377,eb:33:2e:f9:57:b5, 2085-97-46 00:253:255:2027,0.023,-0.001,0.99,-0.061,-0.366,0,1.263,2.834,-68.143
 14:38:10.377,eb:33:2e:f9:57:b5, 2085-97-47 00:252:255:2029,0.023,-0.002,0.99,-0.122,-0.427,0,1.263,2.834,-68.143
 14:38:10.377,eb:33:2e:f9:57:b5, 2085-97-47 00:252:255:2030,0.022,-0.002,0.99,-0.183,-0.549,0,1.263,2.834,-68.181
 14:38:10.437,eb:33:2e:f9:57:b5, 2085-97-47 00:250:255:2031,0.023,-0.003,0.992,-0.183,-0.549,0,1.263,2.829,-68.181
 14:38:10.438,eb:33:2e:f9:57:b5, 2085-97-47 00:250:255:2032,0.023,-0.003,0.992,-0.122,-0.549,0,1.263,2.829,-68.214
 14:38:10.438,eb:33:2e:f9:57:b5, 2085-97-48 00:250:255:2036,0.023,-0.003,0.993,-0.122,-0.549,0,1.258,2.829,-68.214
 14:38:10.438,eb:33:2e:f9:57:b5, 2085-97-50 00:251:255:2037,0.025,-0.002,0.995,0,-0.427,0,1.258,2.829,-68.253
 14:38:10.528,eb:33:2e:f9:57:b5, 2085-97-49 00:250:255:2036,0.024,-0.002,0.994,0,-0.305,0,1.258,2.829,-68.253
 14:38:10.528,eb:33:2e:f9:57:b5, 2085-97-51 00:251:255:2035,0.025,-0.002,0.995,0,-0.305,0,1.258,2.829,-68.286
 14:38:10.528,eb:33:2e:f9:57:b5, 2085-97-51 00:250:255:2034,0.024,-0.003,0.994,0.061,-0.183,0,1.258,2.829,-68.286
 14:38:10.528,eb:33:2e:f9:57:b5, 2085-97-49 00:251:255:2034,0.024,-0.003,0.993,0.061,-0.122,0,1.258,2.829,-68.324
 14:38:10.531,eb:33:2e:f9:57:b5, 2085-97-48 00:251:255:2032,0.023,-0.002,0.992,0.122,0,0,1.252,2.829,-68.324
 14:38:10.531,eb:33:2e:f9:57:b5, 2085-97-49 00:251:255:2033,0.023,-0.002,0.992,0.183,-0.122,0,1.252,2.829,-68.357
 14:38:10.531,eb:33:2e:f9:57:b5, 2085-97-47 00:250:255:2034,0.023,-0.002,0.993,0.183,0,0,1.252,2.829,-68.357
 14:38:10.531,eb:33:2e:f9:57:b5, 2085-97-46 00:252:255:2030,0.022,-0.002,0.992,0.244,-0.061,0,1.252,2.829,-68.395
 14:38:10.531,eb:33:2e:f9:57:b5, 2085-97-46 00:252:255:2029,0.024,-0.001,0.99,0.244,-0.183,0,1.252,2.829,-68.395
 14:38:10.531,eb:33:2e:f9:57:b5, 2085-97-49 00:250:255:2034,0.023,-0.002,0.992,0.183,-0.122,0.061,1.252,2.829,-68.428
 14:38:10.531,eb:33:2e:f9:57:b5, 2085-97-51 00:251:255:2034,0.024,-0.003,0.993,0.244,-0.183,0.061,1.252,2.823,-68.428
 14:38:10.532,eb:33:2e:f9:57:b5, 2085-97-49 00:254:255:2033,0.024,-0.001,0.992,0.305,-0.061,0.061,1.252,2.823,-68.461
 14:38:10.588,eb:33:2e:f9:57:b5, 2085-97-48 00:253:255:2030,0.023,-0.001,0.992,0.244,-0.061,0.061,1.247,2.823,-68.461
 14:38:10.588,eb:33:2e:f9:57:b5, 2085-97-50 00:252:255:2030,0.023,-0.001,0.991,0.305,0,0,1.247,2.823,-68.5
 14:38:10.588,eb:33:2e:f9:57:b5, 2085-97-49 00:253:255:2030,0.024,-0.002,0.991,0.244,-0.061,0,1.247,2.823,-68.5
 14:38:10.588,eb:33:2e:f9:57:b5, 2085-97-48 00:254:255:2030,0.024,-0.001,0.991,0.244,-0.061,0,1.247,2.823,-68.533
 14:38:10.617,eb:33:2e:f9:57:b5, 2085-97-49 00:252:255:2029,0.023,-0.002,0.991,0.183,-0.061,0.061,1.247,2.823,-68.533
 14:38:10.617,eb:33:2e:f9:57:b5, 2085-97-50 00:252:255:2032,0.025,-0.002,0.992,0.244,-0.122,0.061,1.247,2.823,-68.566
 14:38:10.617,eb:33:2e:f9:57:b5, 2085-97-50 00:254:255:2033,0.023,-0.002,0.993,0.183,-0.061,0.061,1.247,2.823,-68.566
 14:38:10.617,eb:33:2e:f9:57:b5, 2085-97-49 00:251:255:2029,0.024,-0.002,0.991,0.305,0,0.061,1.247,2.823,-68.604
 14:38:10.648,eb:33:2e:f9:57:b5, 2085-97-50 00:253:255:2034,0.024,-0.001,0.993,0.366,0,0.122,1.247,2.818,-68.604
 14:38:10.648,eb:33:2e:f9:57:b5, 2085-97-49 00:253:255:2031,0.024,-0.001,0.992,0.366,0,0.061,1.247,2.818,-68.637
 14:38:10.648,eb:33:2e:f9:57:b5, 2085-97-49 00:252:255:2030,0.024,-0.001,0.992,0.305,0,0.061,1.241,2.818,-68.637
 14:38:10.648,eb:33:2e:f9:57:b5, 2085-97-51 00:255:255:2030,0.024,-0.001,0.992,0.427,0,0.183,1.241,2.818,-68.67
 14:38:10.767,eb:33:2e:f9:57:b5, 2085-97-47 00:254:255:2027,0.024,0,0.99,0.366,-0.061,0.061,1.241,2.818,-68.67
 14:38:10.767,eb:33:2e:f9:57:b5, 2085-97-49 00:254:255:2031,0.024,-0.001,0.99,0.305,-0.061,0.061,1.241,2.818,-68.703
 14:38:10.767,eb:33:2e:f9:57:b5, 2085-97-50 00:253:255:2032,0.024,-0.001,0.992,0.244,-0.122,0.122,1.241,2.818,-68.703
 14:38:10.767,eb:33:2e:f9:57:b5, 2085-97-51 00:253:255:2034,0.024,-0.001,0.993,0.305,-0.122,0.122,1.241,2.818,-68.736
 14:38:10.770,eb:33:2e:f9:57:b5, 2085-97-49 00:253:255:2035,0.024,-0.002,0.994,0.305,0,0.122,1.241,2.818,-68.736
 14:38:10.770,eb:33:2e:f9:57:b5, 2085-97-50 00:253:255:2035,0.023,-0.002,0.994,0.488,0.122,0.183,1.241,2.818,-68.769
 14:38:10.770,eb:33:2e:f9:57:b5, 2085-97-48 00:252:255:2034,0.024,-0.002,0.993,0.488,0.061,0.122,1.241,2.818,-68.769
 14:38:10.770,eb:33:2e:f9:57:b5, 2085-97-50 00:253:255:2032,0.024,-0.001,0.993,0.549,0.122,0.183,1.241,2.818,-68.802
 14:38:10.772,eb:33:2e:f9:57:b5, 2085-97-51 00:254:255:2031,0.025,-0.001,0.991,0.671,0.061,0.244,1.236,2.812,-68.802
 14:38:10.772,eb:33:2e:f9:57:b5, 2085-97-52 00:255:255:2031,0.025,-0.001,0.992,0.671,0.183,0.183,1.236,2.812,-68.835
 14:38:10.772,eb:33:2e:f9:57:b5, 2085-97-49 00:00:00:2027,0.024,0,0.991,0.61,0.366,0.244,1.236,2.812,-68.835
 14:38:10.772,eb:33:2e:f9:57:b5, 2085-97-49 00:00:00:2029,0.024,0,0.99,0.549,0.427,0.244,1.236,2.812,-68.868
 14:38:10.828,eb:33:2e:f9:57:b5, 2085-97-52 00:255:255:2030,0.025,0,0.991,0.366,0.488,0.305,1.236,2.812,-68.868
 14:38:10.828,eb:33:2e:f9:57:b5, 2085-97-51 00:255:255:2029,0.025,0,0.991,0.366,0.61,0.305,1.236,2.812,-68.901
 14:38:10.828,eb:33:2e:f9:57:b5, 2085-97-51 00:00:00:2034,0.024,-0.001,0.992,0.305,0.732,0.183,1.236,2.812,-68.901
 14:38:10.828,eb:33:2e:f9:57:b5, 2085-97-49 00:255:255:2033,0.022,-0.001,0.994,0.366,0.854,0.183,1.236,2.812,-68.934
 14:38:10.858,eb:33:2e:f9:57:b5, 2085-97-46 00:00:00:2030,0.022,0,0.991,0.305,0.916,0.183,1.236,2.812,-68.934
 14:38:10.858,eb:33:2e:f9:57:b5, 2085-97-43 00:01:00:2028,0.022,0,0.991,0.305,0.793,0.244,1.236,2.812,-68.934
 14:38:10.858,eb:33:2e:f9:57:b5, 2085-97-45 00:00:00:2028,0.022,0,0.99,0.244,0.427,0.122,1.236,2.812,-68.934
 14:38:10.858,eb:33:2e:f9:57:b5, 2085-97-47 00:00:00:2032,0.023,0,0.992,0.183,0.244,0,1.236,2.812,-68.934
 14:38:10.888,eb:33:2e:f9:57:b5, 2085-97-47 00:254:255:2033,0.023,0,0.993,0.244,0.305,0.061,1.236,2.812,-68.934
 14:38:10.888,eb:33:2e:f9:57:b5, 2085-97-45 00:253:255:2033,0.022,-0.001,0.993,0.244,0.183,0.061,1.236,2.812,-68.934
 14:38:10.888,eb:33:2e:f9:57:b5, 2085-97-46 00:255:255:2032,0.022,-0.001,0.992,0.305,0.183,0.061,1.236,2.812,-68.934
 14:38:10.888,eb:33:2e:f9:57:b5, 2085-97-48 00:255:255:2033,0.024,0,0.993,0.305,0.183,0.061,1.236,2.812,-68.934
 14:38:10.979,eb:33:2e:f9:57:b5, 2085-97-48 00:255:255:2034,0.022,-0.001,0.993,0.427,0.183,0.061,1.236,2.812,-68.934
 14:38:10.979,eb:33:2e:f9:57:b5, 2085-113-81 00:132:105:-185,0.022,0,0.992,0.427,0.122,0.061,1.236,2.812,-68.934
 14:38:10.979,eb:33:2e:f9:57:b5, 2085-97-47 00:00:00:2031,0.023,0,0.993,0.427,0.122,0.061,1.236,2.812,-68.934
 14:38:10.979,eb:33:2e:f9:57:b5, 2085-97-46 00:00:00:2033,0.021,0,0.993,0.427,0.122,0.122,1.236,2.812,-68.934
 14:38:10.980,eb:33:2e:f9:57:b5, 2085-97-45 00:00:00:2029,0.022,0,0.992,0.427,0.122,0.061,1.236,2.812,-68.934
 14:38:10.980,eb:33:2e:f9:57:b5, 2085-97-47 00:00:00:2031,0.022,0,0.991,0.366,0.122,0.061,1.236,2.812,-68.934
 14:38:10.980,eb:33:2e:f9:57:b5, 2085-97-48 00:00:00:2031,0.022,0,0.992,0.366,0.122,0.122,1.236,2.812,-68.934
 14:38:10.980,eb:33:2e:f9:57:b5, 2085-97-46 00:01:00:2030,0.022,0,0.992,0.366,0.122,0.122,1.236,2.812,-68.934
 14:38:11.067,eb:33:2e:f9:57:b5, 2085-97-47 00:01:00:2030,0.022,0,0.992,0.366,0.122,0.061,1.236,2.812,-68.934
 14:38:11.067,eb:33:2e:f9:57:b5, 2085-97-46 00:02:00:2030,0.023,0,0.991,0.305,0.122,0,1.236,2.812,-68.934
 14:38:11.067,eb:33:2e:f9:57:b5, 2085-97-46 00:02:00:2030,0.022,0,0.991,0.305,0.122,0.061,1.236,2.812,-68.934
 14:38:11.067,eb:33:2e:f9:57:b5, 2085-97-46 00:00:00:2029,0.022,0,0.991,0.305,0.183,0.061,1.236,2.812,-68.934
 14:38:11.129,eb:33:2e:f9:57:b5, 2085-97-46 00:03:00:2029,0.023,0.001,0.99,0.183,0.122,0,1.236,2.812,-68.934
 14:38:11.129,eb:33:2e:f9:57:b5, 2085-97-46 00:04:00:2028,0.022,0.001,0.99,0.061,0.061,0,1.236,2.812,-68.934
 14:38:11.129,eb:33:2e:f9:57:b5, 2085-97-45 00:03:00:2028,0.022,0.001,0.99,0,0.061,-0.061,1.236,2.812,-68.934
 14:38:11.129,eb:33:2e:f9:57:b5, 2085-97-46 00:01:00:2030,0.022,0,0.991,-0.061,0,-0.061,1.236,2.812,-68.934
 14:38:11.129,eb:33:2e:f9:57:b5, 2085-97-45 00:01:00:2029,0.022,0.001,0.991,-0.061,0,-0.061,1.236,2.807,-68.934
 14:38:11.129,eb:33:2e:f9:57:b5, 2085-97-45 00:00:00:2030,0.023,0,0.991,-0.122,0,-0.061,1.236,2.807,-68.934
 14:38:11.130,eb:33:2e:f9:57:b5, 2085-97-46 00:01:00:2032,0.022,0,0.992,-0.122,0,-0.061,1.236,2.807,-68.934
 14:38:11.130,eb:33:2e:f9:57:b5, 2085-97-46 00:01:00:2028,0.022,0,0.991,-0.122,0,-0.061,1.236,2.807,-68.934
 14:38:11.131,eb:33:2e:f9:57:b5, 2085-97-47 00:01:00:2031,0.022,0,0.991,-0.122,-0.061,-0.061,1.236,2.807,-68.934
 14:38:11.131,eb:33:2e:f9:57:b5, 2085-97-46 00:00:00:2032,0.022,0,0.993,-0.183,-0.122,-0.122,1.236,2.807,-68.934
 14:38:11.131,eb:33:2e:f9:57:b5, 2085-97-47 00:00:00:2032,0.023,0,0.992,-0.183,-0.122,-0.122,1.236,2.807,-68.934
 14:38:11.131,eb:33:2e:f9:57:b5, 2085-97-46 00:02:00:2032,0.022,0,0.992,-0.183,-0.122,-0.061,1.236,2.807,-68.934
 14:38:11.220,eb:33:2e:f9:57:b5, 2085-97-46 00:00:00:2028,0.023,0,0.991,-0.244,-0.061,-0.122,1.236,2.807,-68.934
 14:38:11.220,eb:33:2e:f9:57:b5, 2085-97-48 00:01:00:2032,0.023,0,0.99,-0.244,-0.183,-0.183,1.236,2.807,-68.934
 14:38:11.220,eb:33:2e:f9:57:b5, 2085-97-47 00:00:00:2032,0.023,0,0.992,-0.305,-0.122,-0.122,1.236,2.807,-68.934
 14:38:11.220,eb:33:2e:f9:57:b5, 2085-97-48 00:00:00:2031,0.023,0,0.992,-0.305,-0.122,-0.061,1.236,2.807,-68.934
 14:38:11.220,eb:33:2e:f9:57:b5, 2085-97-47 00:00:00:2032,0.023,0,0.992,-0.305,-0.061,-0.122,1.236,2.807,-68.934
 14:38:11.220,eb:33:2e:f9:57:b5, 2085-97-47 00:00:00:2030,0.023,0,0.992,-0.244,-0.061,-0.183,1.236,2.807,-68.934
 14:38:11.220,eb:33:2e:f9:57:b5, 2085-97-47 00:00:00:2032,0.023,0,0.992,-0.305,-0.061,-0.061,1.236,2.807,-68.934
 14:38:11.220,eb:33:2e:f9:57:b5, 2085-97-46 00:00:00:2029,0.022,0,0.992,-0.244,-0.061,-0.122,1.236,2.807,-68.934
 14:38:11.247,eb:33:2e:f9:57:b5, 2085-97-46 00:00:00:2027,0.022,0,0.991,-0.366,-0.061,-0.122,1.236,2.807,-68.934
 14:38:11.247,eb:33:2e:f9:57:b5, 2085-97-47 00:00:00:2030,0.023,0,0.991,-0.366,0,-0.122,1.236,2.807,-68.934
 14:38:11.247,eb:33:2e:f9:57:b5, 2085-97-47 00:00:00:2031,0.023,0,0.991,-0.488,0,-0.183,1.236,2.807,-68.934
 14:38:11.247,eb:33:2e:f9:57:b5, 2085-97-48 00:00:00:2030,0.024,0,0.991,-0.488,0,-0.122,1.236,2.807,-68.934
 14:38:11.337,eb:33:2e:f9:57:b5, 2085-97-48 00:00:00:2031,0.023,0,0.993,-0.549,0,-0.122,1.236,2.807,-68.934
 14:38:11.337,eb:33:2e:f9:57:b5, 2085-97-48 00:255:255:2032,0.024,0,0.992,-0.549,0,-0.183,1.236,2.807,-68.934
 14:38:11.337,eb:33:2e:f9:57:b5, 2085-97-48 00:255:255:2031,0.023,-0.001,0.993,-0.488,0.122,-0.183,1.236,2.807,-68.934
 14:38:11.337,eb:33:2e:f9:57:b5, 2085-97-45 00:255:255:2029,0.023,0,0.99,-0.549,0.061,-0.183,1.236,2.807,-68.934
 14:38:11.368,eb:33:2e:f9:57:b5, 2085-97-47 00:252:255:2032,0.023,-0.001,0.991,-0.549,0,-0.244,1.236,2.807,-68.934
 14:38:11.368,eb:33:2e:f9:57:b5, 2085-97-48 00:254:255:2033,0.023,-0.001,0.993,-0.427,0,-0.244,1.236,2.807,-68.934
 14:38:11.368,eb:33:2e:f9:57:b5, 2085-97-45 00:254:255:2031,0.022,0,0.992,-0.427,0.061,-0.183,1.23,2.807,-68.934
 14:38:11.368,eb:33:2e:f9:57:b5, 2085-97-46 00:253:255:2033,0.023,-0.001,0.992,-0.427,0,-0.122,1.23,2.807,-68.934
 14:38:11.368,eb:33:2e:f9:57:b5, 2085-97-47 00:253:255:2033,0.022,-0.001,0.993,-0.366,0,-0.183,1.23,2.802,-68.934
 14:38:11.368,eb:33:2e:f9:57:b5, 2085-97-45 00:253:255:2028,0.022,-0.001,0.992,-0.366,0,-0.122,1.23,2.802,-68.934
 14:38:11.368,eb:33:2e:f9:57:b5, 2085-97-47 00:254:255:2028,0.023,-0.001,0.99,-0.366,-0.061,-0.183,1.23,2.802,-68.934
 14:38:11.368,eb:33:2e:f9:57:b5, 2085-97-45 00:253:255:2030,0.023,0,0.99,-0.427,-0.122,-0.244,1.23,2.802,-68.934
 14:38:11.428,eb:33:2e:f9:57:b5, 2085-97-48 00:255:255:2030,0.023,0,0.991,-0.488,-0.305,-0.427,1.23,2.802,-68.934
 14:38:11.428,eb:33:2e:f9:57:b5, 2085-97-47 00:255:255:2022,0.021,0,0.99,-0.488,-0.366,-0.61,1.23,2.802,-68.934
 14:38:11.428,eb:33:2e:f9:57:b5, 2085-97-44 00:01:00:2019,0.021,-0.001,0.986,-0.61,-0.61,-0.732,1.23,2.802,-68.934
 14:38:11.428,eb:33:2e:f9:57:b5, 2085-97-43 00:01:00:2013,0.021,0,0.984,-0.854,-1.038,-1.038,1.23,2.802,-68.934
 14:38:11.488,eb:33:2e:f9:57:b5, 2085-97-43 00:02:00:2014,0.022,0,0.982,-1.16,-1.526,-1.282,1.23,2.802,-68.934
 14:38:11.488,eb:33:2e:f9:57:b5, 2085-97-47 00:00:00:2025,0.023,0.001,0.986,-1.526,-1.77,-1.465,1.225,2.791,-68.945
 14:38:11.488,eb:33:2e:f9:57:b5, 2085-97-50 00:252:255:2031,0.025,-0.001,0.991,-1.77,-1.892,-1.526,1.208,2.774,-68.961
 14:38:11.488,eb:33:2e:f9:57:b5, 2085-97-51 00:252:255:2030,0.026,-0.002,0.991,-1.892,-1.77,-1.526,1.187,2.758,-68.972
 14:38:11.490,eb:33:2e:f9:57:b5, 2085-97-52 00:247:255:2042,0.027,-0.002,0.992,-1.953,-1.709,-1.465,1.176,2.736,-68.989
 14:38:11.490,eb:33:2e:f9:57:b5, 2085-97-58 00:234:255:2063,0.032,-0.008,1.002,-1.587,-1.221,-1.16,1.159,2.725,-69
 14:38:11.490,eb:33:2e:f9:57:b5, 2085-97-65 00:233:255:2078,0.028,-0.012,1.015,-0.671,-0.183,-0.671,1.148,2.719,-69.011
 14:38:11.490,eb:33:2e:f9:57:b5, 2085-97-49 00:239:255:2058,0.024,-0.01,1.011,0.122,0.732,-0.427,1.143,2.719,-69.016
 14:38:11.580,eb:33:2e:f9:57:b5, 2085-97-48 00:243:255:2046,0.024,-0.006,1,0.549,0.854,-0.183,1.148,2.73,-69.016
 14:38:11.580,eb:33:2e:f9:57:b5, 2085-97-49 00:246:255:2043,0.023,-0.006,0.998,0.916,0.793,0,1.159,2.741,-69.016
 14:38:11.580,eb:33:2e:f9:57:b5, 2085-97-45 00:249:255:2029,0.023,-0.004,0.995,1.16,0.671,0,1.17,2.747,-69.016
 14:38:11.581,eb:33:2e:f9:57:b5, 2085-97-48 00:253:255:2028,0.023,-0.001,0.989,1.038,0.427,-0.061,1.181,2.752,-69.016
 14:38:11.581,eb:33:2e:f9:57:b5, 2085-97-52 00:247:255:2035,0.025,-0.003,0.992,1.038,0.305,0,1.187,2.758,-69.016
 14:38:11.581,eb:33:2e:f9:57:b5, 2085-97-52 00:251:255:2034,0.024,-0.004,0.994,1.16,0.427,0,1.198,2.763,-69.016
 14:38:11.581,eb:33:2e:f9:57:b5, 2085-97-51 00:247:255:2037,0.026,-0.003,0.991,1.282,0.549,0.061,1.208,2.769,-69.016
 14:38:11.581,eb:33:2e:f9:57:b5, 2085-97-54 00:246:255:2048,0.026,-0.005,0.999,1.526,0.732,0.122,1.225,2.774,-69.016
 14:38:11.668,eb:33:2e:f9:57:b5, 2085-97-54 00:251:255:2042,0.026,-0.003,0.999,1.77,1.099,0.183,1.241,2.785,-69.011
 14:38:11.668,eb:33:2e:f9:57:b5, 2085-97-50 00:252:255:2041,0.025,-0.002,0.997,1.831,1.404,0.244,1.263,2.802,-69.011
 14:38:11.668,eb:33:2e:f9:57:b5, 2085-97-52 00:252:255:2037,0.025,-0.002,0.997,1.953,1.648,0.122,1.28,2.812,-69.005
 14:38:11.668,eb:33:2e:f9:57:b5, 2085-97-49 00:00:00:2030,0.022,0,0.993,1.953,1.77,0.183,1.302,2.834,-69.005
 14:38:11.668,eb:33:2e:f9:57:b5, 2085-97-45 00:02:00:2017,0.022,0,0.989,1.831,1.77,0.061,1.318,2.851,-69.005
 14:38:11.670,eb:33:2e:f9:57:b5, 2085-113-81 00:122:105:-152,0.021,0.001,0.983,1.465,1.587,0,1.335,2.867,-69
 14:38:11.670,eb:33:2e:f9:57:b5, 2085-97-46 00:05:00:2018,0.023,0.001,0.982,1.221,1.404,0,1.346,2.878,-69
 14:38:11.670,eb:33:2e:f9:57:b5, 2085-97-45 00:05:00:2021,0.024,0.002,0.987,0.854,1.404,-0.061,1.357,2.895,-69
 14:38:11.670,eb:33:2e:f9:57:b5, 2085-97-51 00:251:255:2042,0.026,0,0.99,0.61,1.526,-0.122,1.362,2.906,-69
 14:38:11.727,eb:33:2e:f9:57:b5, 2085-97-50 00:242:255:2061,0.023,-0.006,1.004,1.038,2.136,0.061,1.373,2.928,-69
 14:38:11.727,eb:33:2e:f9:57:b5, 2085-97-45 00:244:255:2058,0.022,-0.007,1.006,1.648,2.686,0.305,1.384,2.95,-69
 14:38:11.727,eb:33:2e:f9:57:b5, 2085-97-42 00:252:255:2046,0.02,-0.003,1.003,2.197,2.93,0.427,1.406,2.983,-68.994
 14:38:11.727,eb:33:2e:f9:57:b5, 2085-97-42 00:02:00:2032,0.019,-0.001,0.995,2.441,2.93,0.549,1.428,3.01,-68.989
 14:38:11.789,eb:33:2e:f9:57:b5, 2085-97-40 00:04:00:2023,0.019,0.001,0.99,2.38,2.686,0.549,1.456,3.043,-68.983
 14:38:11.789,eb:33:2e:f9:57:b5, 2085-97-38 00:07:00:2022,0.017,0.003,0.986,2.197,2.441,0.427,1.478,3.065,-68.978
 14:38:11.789,eb:33:2e:f9:57:b5, 2085-97-35 00:05:00:2021,0.018,0.003,0.987,2.136,2.136,0.488,1.5,3.093,-68.972
 14:38:11.789,eb:33:2e:f9:57:b5, 2085-97-39 00:09:00:2021,0.019,0.002,0.987,1.953,1.709,0.366,1.522,3.109,-68.967
 14:38:11.789,eb:33:2e:f9:57:b5, 2085-97-36 00:09:00:2020,0.016,0.005,0.987,1.77,1.404,0.305,1.538,3.126,-68.961
 14:38:11.789,eb:33:2e:f9:57:b5, 2085-97-31 00:07:00:2016,0.015,0.003,0.985,1.709,1.099,0.183,1.56,3.142,-68.956
 14:38:11.789,eb:33:2e:f9:57:b5, 2085-97-31 00:10:00:2016,0.017,0.004,0.985,1.648,0.427,0.122,1.577,3.148,-68.956
 14:38:11.789,eb:33:2e:f9:57:b5, 2085-97-34 00:14:00:2016,0.015,0.005,0.985,1.465,0.061,0.122,1.593,3.153,-68.956
 14:38:11.817,eb:33:2e:f9:57:b5, 2085-97-29 00:12:00:2009,0.015,0.006,0.982,1.16,-0.244,0,1.604,3.153,-68.95
 14:38:11.817,eb:33:2e:f9:57:b5, 2085-97-35 00:11:00:2016,0.02,0.006,0.981,0.916,-0.732,0,1.615,3.148,-68.95
 14:38:11.817,eb:33:2e:f9:57:b5, 2085-97-46 00:17:00:2024,0.023,0.007,0.986,0.549,-0.793,-0.183,1.626,3.137,-68.95
 14:38:11.817,eb:33:2e:f9:57:b5, 2085-97-46 00:15:00:2022,0.021,0.008,0.989,0.244,-0.366,-0.488,1.626,3.131,-68.956
 14:38:11.879,eb:33:2e:f9:57:b5, 2085-97-38 00:12:00:2015,0.017,0.006,0.985,0,0,-0.793,1.631,3.131,-68.961
 14:38:11.879,eb:33:2e:f9:57:b5, 2085-97-32 00:11:00:2012,0.015,0.006,0.982,-0.305,-0.244,-1.038,1.626,3.131,-68.972
 14:38:11.879,eb:33:2e:f9:57:b5, 2085-97-32 00:08:00:2016,0.015,0.004,0.982,-0.549,-0.732,-1.221,1.626,3.126,-68.983
 14:38:11.879,eb:33:2e:f9:57:b5, 2085-97-29 00:07:00:2024,0.018,0.003,0.986,-0.732,-1.221,-1.221,1.615,3.12,-68.994
 14:38:11.908,eb:33:2e:f9:57:b5, 2085-97-37 00:05:00:2042,0.019,0.003,0.992,-0.732,-1.526,-1.282,1.609,3.104,-69.005
 14:38:11.908,eb:33:2e:f9:57:b5, 2085-97-41 00:04:00:2046,0.021,0.002,1,-0.671,-1.465,-1.221,1.604,3.087,-69.022
 14:38:11.908,eb:33:2e:f9:57:b5, 2085-97-43 00:07:00:2048,0.022,0.002,1,-0.61,-1.16,-1.16,1.599,3.076,-69.033
 14:38:11.908,eb:33:2e:f9:57:b5, 2085-97-46 00:09:00:2044,0.023,0.004,1,-0.61,-0.732,-0.977,1.593,3.065,-69.044
 14:38:11.939,eb:33:2e:f9:57:b5, 2085-97-46 00:10:00:2035,0.021,0.005,0.994,-0.854,-0.305,-0.916,1.582,3.06,-69.049
 14:38:11.939,eb:33:2e:f9:57:b5, 2085-97-44 00:09:00:2040,0.021,0.004,0.995,-1.282,0,-0.916,1.577,3.06,-69.06
 14:38:11.939,eb:33:2e:f9:57:b5, 2085-97-44 00:07:00:2048,0.021,0.005,0.998,-1.526,0.427,-0.732,1.56,3.065,-69.071
 14:38:11.939,eb:33:2e:f9:57:b5, 2085-97-43 00:07:00:2043,0.022,0.003,1,-1.831,1.038,-0.549,1.544,3.071,-69.077
 14:38:11.999,eb:33:2e:f9:57:b5, 2085-97-46 00:02:00:2035,0.022,0.002,0.996,-2.014,1.587,-0.305,1.522,3.087,-69.077
 14:38:11.999,eb:33:2e:f9:57:b5, 2085-97-52 00:00:00:2046,0.024,-0.003,0.998,-1.953,2.075,0,1.505,3.109,-69.082
 14:38:11.999,eb:33:2e:f9:57:b5, 2085-97-40 00:253:255:2030,0.021,0.002,0.993,-1.709,2.625,0.061,1.489,3.131,-69.077
 14:38:11.999,eb:33:2e:f9:57:b5, 2085-97-37 00:00:00:2022,0.018,0,0.99,-1.404,2.625,0,1.472,3.159,-69.077
 14:38:12.027,eb:33:2e:f9:57:b5, 2085-97-41 00:08:00:2027,0.018,0,0.989,-1.099,2.38,-0.061,1.456,3.186,-69.077
 14:38:12.027,eb:33:2e:f9:57:b5, 2085-97-36 00:04:00:2029,0.015,0.002,0.989,-0.977,2.502,-0.366,1.45,3.208,-69.077
 14:38:12.027,eb:33:2e:f9:57:b5, 2085-97-23 00:03:00:2008,0.009,0.002,0.986,-0.977,2.319,-0.671,1.439,3.235,-69.082
 14:38:12.027,eb:33:2e:f9:57:b5, 2085-97-22 00:02:00:2005,0.016,0.001,0.977,-0.854,1.282,-0.732,1.428,3.252,-69.093
 14:38:12.059,eb:33:2e:f9:57:b5, 2085-97-38 00:255:255:2026,0.017,0,0.985,-0.427,0.488,-0.793,1.423,3.263,-69.099
 14:38:12.059,eb:33:2e:f9:57:b5, 2085-97-31 00:254:255:2023,0.011,-0.001,0.991,-0.061,0.366,-0.916,1.423,3.268,-69.104
 14:38:12.059,eb:33:2e:f9:57:b5, 2085-97-21 00:253:255:2031,0.005,-0.003,0.989,0.366,-0.366,-1.16,1.423,3.268,-69.115
 14:38:12.059,eb:33:2e:f9:57:b5, 2085-97-13 00:249:255:2022,0.016,-0.001,0.993,0.61,-2.075,-1.77,1.428,3.257,-69.131
 14:38:12.118,eb:33:2e:f9:57:b5, 2085-97-39 00:07:00:2019,0.02,0.001,0.985,0.549,-3.601,-2.197,1.439,3.224,-69.153
 14:38:12.118,eb:33:2e:f9:57:b5, 2085-97-44 00:10:00:2019,0.021,0.005,0.985,0,-3.662,-2.441,1.439,3.192,-69.175
 14:38:12.118,eb:33:2e:f9:57:b5, 2085-97-41 00:14:00:2017,0.019,0.006,0.983,-0.671,-3.479,-2.563,1.439,3.159,-69.203
 14:38:12.118,eb:33:2e:f9:57:b5, 2085-97-39 00:07:00:2017,0.019,0.004,0.983,-1.526,-3.662,-2.747,1.428,3.12,-69.23
 14:38:12.207,eb:33:2e:f9:57:b5, 2085-97-40 00:06:00:2037,0.018,0.004,0.988,-2.319,-3.479,-2.625,1.406,3.087,-69.252
 14:38:12.207,eb:33:2e:f9:57:b5, 2085-97-40 00:255:255:2061,0.021,0,1.002,-2.991,-2.869,-2.563,1.379,3.054,-69.28
 14:38:12.207,eb:33:2e:f9:57:b5, 2085-97-43 00:249:255:2053,0.021,0,1.005,-3.113,-1.831,-2.441,1.351,3.032,-69.307
 14:38:12.207,eb:33:2e:f9:57:b5, 2085-97-41 00:249:255:2047,0.02,-0.004,1,-2.991,-1.038,-1.892,1.318,3.016,-69.329
 14:38:12.267,eb:33:2e:f9:57:b5, 2085-97-45 00:250:255:2021,0.031,-0.003,0.993,-2.808,-0.427,-1.465,1.291,3.01,-69.346
 14:38:12.267,eb:33:2e:f9:57:b5, 2085-97-75 00:02:00:2040,0.036,0,0.986,-3.113,-0.061,-0.793,1.263,3.005,-69.357
 14:38:12.267,eb:33:2e:f9:57:b5, 2085-97-79 00:254:255:2058,0.038,-0.002,1.003,-3.052,1.526,-0.549,1.23,3.016,-69.362
 14:38:12.267,eb:33:2e:f9:57:b5, 2085-97-58 00:248:255:2039,0.02,-0.002,1,-2.747,3.296,-0.732,1.203,3.043,-69.368
 14:38:12.269,eb:33:2e:f9:57:b5, 2085-97-44 00:248:255:2032,0.024,-0.004,0.989,-2.075,3.296,-0.854,1.181,3.076,-69.373
 14:38:12.269,eb:33:2e:f9:57:b5, 2085-97-46 00:249:255:2043,0.015,-0.002,0.996,-1.465,3.296,-1.465,1.165,3.109,-69.384
 14:38:12.269,eb:33:2e:f9:57:b5, 2085-97-20 00:239:255:2026,0.004,-0.006,0.994,-0.854,3.418,-2.197,1.154,3.148,-69.406
 14:38:12.269,eb:33:2e:f9:57:b5, 2085-97-08 00:230:255:2051,0.006,-0.011,0.993,-0.122,2.197,-2.686,1.148,3.175,-69.428
 14:38:12.271,eb:33:2e:f9:57:b5, 2085-97-32 00:223:255:2084,0.017,-0.016,1.014,0.793,1.16,-2.991,1.154,3.192,-69.456
 14:38:12.271,eb:33:2e:f9:57:b5, 2085-97-36 00:224:255:2093,0.019,-0.017,1.022,1.282,1.526,-2.869,1.17,3.203,-69.489
 14:38:12.272,eb:33:2e:f9:57:b5, 2085-97-52 00:235:255:2092,0.032,-0.013,1.025,1.16,2.747,-2.563,1.181,3.224,-69.516
 14:38:12.272,eb:33:2e:f9:57:b5, 2085-97-49 00:249:255:2046,0.022,-0.005,1.018,0.732,5.493,-1.953,1.187,3.268,-69.538
 14:38:12.298,eb:33:2e:f9:57:b5, 2085-97-33 00:14:00:1981,0.013,0.004,0.981,0.122,6.775,-1.282,1.192,3.334,-69.549
 14:38:12.298,eb:33:2e:f9:57:b5, 2085-97-21 00:16:00:1977,0.007,0.007,0.963,-1.038,6.531,-0.549,1.187,3.4,-69.56
 14:38:12.298,eb:33:2e:f9:57:b5, 2085-97-00 00:04:00:1982,-0.007,0.006,0.966,-2.014,5.981,-0.366,1.176,3.466,-69.565
 14:38:12.298,eb:33:2e:f9:57:b5, 2085-97-226 255:248:255:1974,-0.018,0,0.966,-2.441,4.333,-0.488,1.154,3.516,-69.571
 14:38:12.358,eb:33:2e:f9:57:b5, 2085-97-219 255:243:255:1933,-0.013,-0.005,0.957,-2.563,1.099,-0.549,1.126,3.543,-69.576
 14:38:12.358,eb:33:2e:f9:57:b5, 2085-97-230 255:220:255:1977,-0.001,-0.009,0.934,-3.235,-2.991,0.366,1.099,3.532,-69.576
 14:38:12.358,eb:33:2e:f9:57:b5, 2085-97-11 00:222:255:2068,0.007,-0.016,0.998,-2.808,-5.249,1.77,1.066,3.488,-69.56
 14:38:12.358,eb:33:2e:f9:57:b5, 2085-97-40 00:217:255:2065,0.046,-0.021,1.01,-1.404,-5.859,2.38,1.044,3.433,-69.538
 14:38:12.417,eb:33:2e:f9:57:b5, 2085-97-138 00:18:00:2073,0.05,-0.006,1.015,0.061,-4.211,2.502,1.038,3.378,-69.51
 14:38:12.417,eb:33:2e:f9:57:b5, 2085-97-58 00:10:00:2032,0.018,0.007,1.012,0.488,-0.244,1.587,1.044,3.362,-69.494
 14:38:12.417,eb:33:2e:f9:57:b5, 2085-97-14 00:249:255:1976,0.005,0.001,0.975,1.099,-0.488,0.549,1.055,3.362,-69.483
 14:38:12.417,eb:33:2e:f9:57:b5, 2085-97-11 00:255:255:1983,0.001,-0.001,0.963,1.77,-2.38,-0.183,1.066,3.345,-69.478
 14:38:12.420,eb:33:2e:f9:57:b5, 2085-97-229 255:219:255:2095,0.003,-0.006,0.988,2.38,-3.662,-0.854,1.088,3.318,-69.483
 14:38:12.420,eb:33:2e:f9:57:b5, 2085-97-53 00:223:255:2086,0.028,-0.018,1.009,3.113,-5.737,-1.892,1.115,3.268,-69.5
 14:38:12.420,eb:33:2e:f9:57:b5, 2085-97-62 00:246:255:2101,0.03,-0.014,1.019,3.235,-4.456,-1.77,1.148,3.219,-69.516
 14:38:12.420,eb:33:2e:f9:57:b5, 2085-97-69 00:248:255:2070,0.032,-0.002,1.018,2.747,-2.319,-1.587,1.181,3.186,-69.532
 14:38:12.477,eb:33:2e:f9:57:b5, 2085-97-53 00:00:00:2030,0.019,-0.003,1.001,1.953,-0.122,-0.732,1.198,3.175,-69.543
 14:38:12.477,eb:33:2e:f9:57:b5, 2085-97-28 00:02:00:2004,0.015,0.001,0.983,1.099,0.427,-0.305,1.214,3.175,-69.549
 14:38:12.477,eb:33:2e:f9:57:b5, 2085-97-29 00:00:00:1996,0.021,0,0.976,0.183,0.122,0,1.219,3.181,-69.549
 14:38:12.477,eb:33:2e:f9:57:b5, 2085-97-62 00:01:00:2018,0.028,0,0.975,-0.61,0,0.427,1.219,3.181,-69.549
 14:38:12.572,eb:33:2e:f9:57:b5, 2085-97-44 00:251:255:2028,0.018,0,0.991,-0.977,1.099,0.61,1.208,3.186,-69.538
 14:38:12.572,eb:33:2e:f9:57:b5, 2085-97-29 00:249:255:2011,0.012,-0.001,0.988,-0.793,0.977,0.427,1.198,3.203,-69.532
 14:38:12.572,eb:33:2e:f9:57:b5, 2085-97-25 00:252:255:1997,0.013,-0.003,0.976,-0.488,-0.122,0.366,1.192,3.208,-69.532
 14:38:12.572,eb:33:2e:f9:57:b5, 2085-97-32 00:01:00:1998,0.009,0,0.974,-0.061,-1.343,0.366,1.192,3.197,-69.527
 14:38:12.572,eb:33:2e:f9:57:b5, 2085-97-08 00:245:255:2013,0.003,-0.001,0.978,0.549,-2.38,0.488,1.192,3.181,-69.521
 14:38:12.572,eb:33:2e:f9:57:b5, 2085-97-255 255:232:255:2055,-0.008,-0.008,0.987,1.465,-4.639,0.549,1.203,3.148,-69.516
 14:38:12.573,eb:33:2e:f9:57:b5, 2085-97-28 00:218:255:2082,0.04,-0.018,1.023,2.075,-7.202,-0.366,1.225,3.087,-69.51
 14:38:12.573,eb:33:2e:f9:57:b5, 2085-97-95 00:239:255:2109,0.047,-0.014,1.021,2.808,-7.141,-1.404,1.247,3.01,-69.521
 14:38:12.629,eb:33:2e:f9:57:b5, 2085-97-88 00:06:00:2084,0.038,0,1.027,2.502,-3.113,-1.038,1.274,2.961,-69.532
 14:38:12.630,eb:33:2e:f9:57:b5, 2085-97-64 00:254:255:2038,0.023,0.001,1.006,1.77,0.122,-0.671,1.296,2.944,-69.543
 14:38:12.630,eb:33:2e:f9:57:b5, 2085-97-32 00:04:00:2001,0.011,0,0.985,1.099,1.16,-0.244,1.313,2.955,-69.549
 14:38:12.630,eb:33:2e:f9:57:b5, 2085-97-19 00:253:255:2000,0.014,0.001,0.983,0.549,0.793,-0.061,1.318,2.966,-69.549
 14:38:12.658,eb:33:2e:f9:57:b5, 2085-97-28 00:239:255:2000,0.028,-0.005,0.969,0.122,-0.061,0.305,1.324,2.972,-69.549
 14:38:12.658,eb:33:2e:f9:57:b5, 2085-97-72 00:11:00:2033,0.033,0.003,0.988,-0.183,-0.244,1.16,1.324,2.966,-69.538
 14:38:12.658,eb:33:2e:f9:57:b5, 2085-97-54 00:252:255:2027,0.024,0.001,0.995,-0.61,0.916,1.343,1.318,2.972,-69.521
 14:38:12.658,eb:33:2e:f9:57:b5, 2085-113-81 00:39:105:-140,0.016,-0.002,0.986,-0.183,0.671,1.343,1.313,2.983,-69.51
 14:38:12.661,eb:33:2e:f9:57:b5, 2085-97-27 00:251:255:2016,0.013,-0.004,0.986,0.122,0.122,1.221,1.313,2.983,-69.505
 14:38:12.661,eb:33:2e:f9:57:b5, 2085-97-30 00:254:255:2011,0.019,-0.002,0.982,0.671,-1.648,0.793,1.318,2.977,-69.494
 14:38:12.661,eb:33:2e:f9:57:b5, 2085-97-41 00:02:00:2009,0.02,0,0.98,1.038,-3.052,0.732,1.329,2.95,-69.483
 14:38:12.661,eb:33:2e:f9:57:b5, 2085-97-42 00:02:00:2021,0.02,0.001,0.983,1.099,-4.028,0.977,1.34,2.917,-69.472
 14:38:12.778,eb:33:2e:f9:57:b5, 2085-97-39 00:00:00:2050,0.022,0,0.993,1.038,-4.761,1.038,1.351,2.873,-69.461
 14:38:12.778,eb:33:2e:f9:57:b5, 2085-97-67 00:251:255:2067,0.036,-0.003,1.006,0.916,-5.005,0.244,1.362,2.823,-69.456
 14:38:12.778,eb:33:2e:f9:57:b5, 2085-97-78 00:00:00:2070,0.036,-0.002,1.014,0.793,-3.479,-0.305,1.368,2.78,-69.456
 14:38:12.778,eb:33:2e:f9:57:b5, 2085-97-69 00:06:00:2049,0.03,0.001,1.005,0.305,-1.343,-0.671,1.373,2.758,-69.461
 14:38:12.778,eb:33:2e:f9:57:b5, 2085-97-49 00:00:00:2033,0.021,0.002,0.994,-0.122,0,-0.854,1.373,2.752,-69.467
 14:38:12.778,eb:33:2e:f9:57:b5, 2085-97-43 00:00:00:2006,0.021,0,0.988,-0.549,0.488,-0.977,1.373,2.758,-69.478
 14:38:12.778,eb:33:2e:f9:57:b5, 2085-97-49 00:00:00:2004,0.027,-0.001,0.977,-1.038,0,-0.671,1.362,2.758,-69.489
 14:38:12.778,eb:33:2e:f9:57:b5, 2085-97-64 00:253:255:2022,0.031,0,0.981,-1.526,-0.366,0,1.351,2.758,-69.489
 14:38:12.781,eb:33:2e:f9:57:b5, 2085-97-60 00:248:255:2038,0.025,-0.004,0.994,-1.526,-0.061,0.549,1.335,2.758,-69.483
 14:38:12.781,eb:33:2e:f9:57:b5, 2085-97-48 00:249:255:2017,0.021,-0.004,0.991,-1.038,-0.183,0.549,1.324,2.758,-69.478
 14:38:12.781,eb:33:2e:f9:57:b5, 2085-97-43 00:00:00:2016,0.022,-0.002,0.985,-0.427,-1.404,0.488,1.313,2.747,-69.472
 14:38:12.781,eb:33:2e:f9:57:b5, 2085-97-51 00:253:255:2014,0.028,0,0.982,-0.183,-2.563,0.122,1.313,2.725,-69.472
 14:38:12.868,eb:33:2e:f9:57:b5, 2085-97-60 00:00:00:2017,0.027,0,0.985,-0.122,-3.479,0.061,1.313,2.697,-69.467
 14:38:12.868,eb:33:2e:f9:57:b5, 2085-97-52 00:01:00:2033,0.024,0,0.986,-0.183,-4.028,0.183,1.307,2.659,-69.467
 14:38:12.868,eb:33:2e:f9:57:b5, 2085-97-58 00:250:255:2046,0.033,-0.001,0.996,-0.427,-4.456,-0.122,1.307,2.615,-69.467
 14:38:12.868,eb:33:2e:f9:57:b5, 2085-97-71 00:251:255:2054,0.037,-0.003,1,-0.427,-4.028,-0.671,1.302,2.571,-69.472
 14:38:12.871,eb:33:2e:f9:57:b5, 2085-97-77 00:02:00:2048,0.034,0,1.002,-0.732,-2.686,-0.977,1.296,2.538,-69.478
 14:38:12.871,eb:33:2e:f9:57:b5, 2085-97-63 00:254:255:2045,0.031,0,1,-1.221,-1.099,-1.038,1.285,2.521,-69.489
 14:38:12.871,eb:33:2e:f9:57:b5, 2085-97-52 00:249:255:2024,0.023,-0.002,0.989,-1.526,-0.183,-1.282,1.274,2.516,-69.5
 14:38:12.871,eb:33:2e:f9:57:b5, 2085-97-47 00:255:255:2037,0.026,-0.001,0.991,-1.892,0,-1.221,1.258,2.516,-69.516
 14:38:12.898,eb:33:2e:f9:57:b5, 2085-97-58 00:249:255:2036,0.023,-0.001,0.999,-2.258,0.977,-1.587,1.236,2.521,-69.527
 14:38:12.898,eb:33:2e:f9:57:b5, 2085-97-47 00:248:255:2017,0.026,-0.006,0.99,-2.441,1.892,-2.075,1.214,2.538,-69.549
 14:38:12.898,eb:33:2e:f9:57:b5, 2085-97-33 00:236:255:1949,0.022,-0.002,0.955,-2.991,0.793,-1.892,1.187,2.554,-69.571
 14:38:12.898,eb:33:2e:f9:57:b5, 2085-97-62 00:254:255:2030,0.026,-0.006,0.973,-3.845,-1.953,0.061,1.159,2.549,-69.576
 14:38:13.017,eb:33:2e:f9:57:b5, 2085-97-44 00:224:255:2044,0.023,-0.008,0.993,-3.784,-2.625,0.854,1.115,2.527,-69.571
 14:38:13.019,eb:33:2e:f9:57:b5, 2085-97-52 00:234:255:2039,0.025,-0.015,0.997,-2.93,-3.54,1.465,1.082,2.494,-69.56
 14:38:13.019,eb:33:2e:f9:57:b5, 2085-97-60 00:233:255:2043,0.036,-0.011,0.998,-2.258,-4.028,1.526,1.055,2.455,-69.543
 14:38:13.019,eb:33:2e:f9:57:b5, 2085-97-84 00:242:255:2043,0.042,-0.009,0.998,-1.526,-4.089,1.465,1.038,2.411,-69.527
 14:38:13.019,eb:33:2e:f9:57:b5, 2085-97-86 00:247:255:2036,0.043,-0.005,0.996,-1.038,-3.54,1.038,1.027,2.379,-69.516
 14:38:13.019,eb:33:2e:f9:57:b5, 2085-97-90 00:247:255:2031,0.041,-0.004,0.994,-0.671,-3.113,0.427,1.016,2.346,-69.505
 14:38:13.019,eb:33:2e:f9:57:b5, 2085-97-77 00:249:255:2021,0.037,-0.004,0.988,-0.549,-2.869,-0.061,1.011,2.313,-69.505
 14:38:13.019,eb:33:2e:f9:57:b5, 2085-97-78 00:250:255:2022,0.041,-0.002,0.986,-0.549,-2.808,-0.305,1.005,2.285,-69.505
 14:38:13.021,eb:33:2e:f9:57:b5, 2085-97-92 00:249:255:2020,0.044,-0.002,0.989,-0.732,-2.686,-0.488,1,2.258,-69.51
 14:38:13.021,eb:33:2e:f9:57:b5, 2085-97-92 00:243:255:2044,0.044,-0.007,0.99,-0.916,-2.563,-0.244,0.989,2.23,-69.516
 14:38:13.021,eb:33:2e:f9:57:b5, 2085-97-87 00:237:255:2053,0.038,-0.006,1.003,-0.916,-1.953,0.061,0.978,2.208,-69.516
 14:38:13.021,eb:33:2e:f9:57:b5, 2085-97-72 00:230:255:2042,0.033,-0.012,1,-0.671,-1.587,0.244,0.972,2.192,-69.516
 14:38:13.107,eb:33:2e:f9:57:b5, 2085-97-64 00:232:255:2031,0.029,-0.011,0.995,-0.366,-1.831,0.122,0.967,2.175,-69.51
 14:38:13.107,eb:33:2e:f9:57:b5, 2085-97-60 00:236:255:2029,0.029,-0.01,0.99,-0.183,-2.38,0.122,0.961,2.153,-69.51
 14:38:13.107,eb:33:2e:f9:57:b5, 2085-97-69 00:236:255:2041,0.036,-0.01,0.994,0,-2.991,0,0.961,2.126,-69.51
 14:38:13.107,eb:33:2e:f9:57:b5, 2085-97-83 00:234:255:2053,0.039,-0.011,0.999,0,-2.869,-0.305,0.961,2.098,-69.51
 14:38:13.109,eb:33:2e:f9:57:b5, 2085-97-78 00:238:255:2054,0.042,-0.009,1.004,0,-2.014,-0.61,0.961,2.076,-69.516
 14:38:13.109,eb:33:2e:f9:57:b5, 2085-97-83 00:237:255:2060,0.043,-0.01,1.001,-0.366,-1.038,-0.916,0.961,2.06,-69.527
 14:38:13.109,eb:33:2e:f9:57:b5, 2085-97-84 00:242:255:2037,0.039,-0.007,1.004,-0.671,0.732,-1.099,0.956,2.06,-69.532
 14:38:13.109,eb:33:2e:f9:57:b5, 2085-97-79 00:242:255:2021,0.04,-0.007,0.987,-1.16,1.709,-1.038,0.95,2.076,-69.549
 14:38:13.168,eb:33:2e:f9:57:b5, 2085-97-78 00:243:255:2032,0.037,-0.006,0.989,-1.526,2.136,-0.854,0.934,2.093,-69.554
 14:38:13.168,eb:33:2e:f9:57:b5, 2085-97-75 00:239:255:2047,0.036,-0.008,0.995,-1.709,2.747,-0.854,0.917,2.12,-69.565
 14:38:13.168,eb:33:2e:f9:57:b5, 2085-97-70 00:237:255:2048,0.032,-0.009,1.001,-1.526,3.723,-1.221,0.901,2.153,-69.576
 14:38:13.168,eb:33:2e:f9:57:b5, 2085-97-66 00:237:255:2038,0.032,-0.011,0.996,-1.282,4.639,-1.831,0.89,2.197,-69.593
 14:38:13.198,eb:33:2e:f9:57:b5, 2085-97-71 00:239:255:2030,0.034,-0.009,0.994,-1.221,5.188,-2.136,0.879,2.247,-69.609
 14:38:13.198,eb:33:2e:f9:57:b5, 2085-97-69 00:238:255:2026,0.036,-0.009,0.992,-1.465,5.432,-2.197,0.868,2.302,-69.637
 14:38:13.198,eb:33:2e:f9:57:b5, 2085-97-73 00:231:255:2016,0.035,-0.01,0.983,-1.77,5.127,-1.587,0.851,2.351,-69.653
 14:38:13.198,eb:33:2e:f9:57:b5, 2085-97-70 00:230:255:2038,0.031,-0.012,0.991,-2.014,4.7,-0.549,0.829,2.401,-69.664
 14:38:13.258,eb:33:2e:f9:57:b5, 2085-97-62 00:220:255:2035,0.032,-0.014,0.993,-1.892,4.333,-0.061,0.813,2.45,-69.67
 14:38:13.258,eb:33:2e:f9:57:b5, 2085-97-67 00:221:255:2037,0.033,-0.018,0.993,-1.282,3.601,0.305,0.797,2.488,-69.67
 14:38:13.258,eb:33:2e:f9:57:b5, 2085-97-65 00:222:255:2039,0.03,-0.017,0.996,-0.488,3.174,0.671,0.786,2.521,-69.664
 14:38:13.258,eb:33:2e:f9:57:b5, 2085-113-58 00:158:218:1920,0.029,-0.015,0.994,0.183,2.502,1.038,0.786,2.549,-69.653
 14:38:13.258,eb:33:2e:f9:57:b5, 2085-97-57 00:227:255:2026,0.027,-0.014,0.992,0.366,2.136,1.16,0.786,2.565,-69.648
 14:38:13.348,eb:33:2e:f9:57:b5, 2085-97-57 00:231:255:2026,0.028,-0.015,0.989,0.854,1.221,1.343,0.791,2.582,-69.631
 14:38:13.348,eb:33:2e:f9:57:b5, 2085-97-56 00:234:255:2028,0.028,-0.012,0.99,1.099,0.549,1.282,0.802,2.587,-69.62
 14:38:13.348,eb:33:2e:f9:57:b5, 2085-97-60 00:233:255:2031,0.032,-0.011,0.991,1.343,0.061,1.221,0.813,2.593,-69.609
 14:38:13.348,eb:33:2e:f9:57:b5, 2085-97-64 00:233:255:2033,0.032,-0.011,0.993,1.465,-0.061,0.977,0.829,2.593,-69.598
 14:38:13.407,eb:33:2e:f9:57:b5, 2085-97-65 00:235:255:2035,0.031,-0.012,0.994,1.648,0,0.977,0.846,2.593,-69.587
 14:38:13.407,eb:33:2e:f9:57:b5, 2085-97-67 00:235:255:2032,0.032,-0.01,0.993,1.709,0.122,0.854,0.862,2.593,-69.576
 14:38:13.407,eb:33:2e:f9:57:b5, 2085-97-62 00:231:255:2034,0.031,-0.011,0.993,1.831,0.366,0.916,0.879,2.598,-69.565
 14:38:13.407,eb:33:2e:f9:57:b5, 2085-97-63 00:233:255:2038,0.031,-0.012,0.995,2.136,0.488,1.038,0.901,2.604,-69.56
 14:38:13.467,eb:33:2e:f9:57:b5, 2085-97-65 00:237:255:2028,0.029,-0.01,0.994,2.258,0.671,1.16,0.923,2.609,-69.549
 14:38:13.467,eb:33:2e:f9:57:b5, 2085-97-57 00:245:255:2022,0.027,-0.008,0.99,2.258,0.671,1.221,0.945,2.615,-69.532
 14:38:13.467,eb:33:2e:f9:57:b5, 2085-97-53 00:245:255:2011,0.027,-0.004,0.985,2.014,0.305,1.038,0.967,2.62,-69.521
 14:38:13.467,eb:33:2e:f9:57:b5, 2085-97-58 00:246:255:2015,0.028,-0.005,0.982,1.648,-0.305,1.038,0.983,2.62,-69.51
 14:38:13.469,eb:33:2e:f9:57:b5, 2085-97-56 00:243:255:2019,0.027,-0.006,0.985,1.404,-0.61,0.793,1,2.615,-69.5
 14:38:13.469,eb:33:2e:f9:57:b5, 2085-97-58 00:240:255:2020,0.028,-0.008,0.986,1.282,-1.038,0.732,1.016,2.609,-69.494
 14:38:13.469,eb:33:2e:f9:57:b5, 2085-97-58 00:245:255:2019,0.029,-0.007,0.986,1.099,-1.221,0.732,1.027,2.598,-69.483
 14:38:13.469,eb:33:2e:f9:57:b5, 2085-97-62 00:244:255:2027,0.031,-0.004,0.987,0.793,-1.465,0.732,1.038,2.582,-69.478
 14:38:13.472,eb:33:2e:f9:57:b5, 2085-97-66 00:241:255:2030,0.032,-0.007,0.991,0.671,-1.343,0.793,1.044,2.571,-69.472
 14:38:13.472,eb:33:2e:f9:57:b5, 2085-97-67 00:243:255:2027,0.032,-0.007,0.991,0.549,-1.221,0.854,1.049,2.56,-69.461
 14:38:13.472,eb:33:2e:f9:57:b5, 2085-97-66 00:246:255:2027,0.031,-0.005,0.988,0.305,-1.099,0.854,1.055,2.549,-69.45
 14:38:13.472,eb:33:2e:f9:57:b5, 2085-97-64 00:241:255:2027,0.031,-0.007,0.99,0.305,-1.099,0.977,1.055,2.538,-69.445
 14:38:13.472,eb:33:2e:f9:57:b5, 2085-97-63 00:243:255:2023,0.03,-0.007,0.99,0.305,-1.099,0.916,1.06,2.527,-69.434
 14:38:13.472,eb:33:2e:f9:57:b5, 2085-97-64 00:238:255:2028,0.032,-0.007,0.989,0.183,-1.221,0.977,1.06,2.516,-69.423
 14:38:13.472,eb:33:2e:f9:57:b5, 2085-97-66 00:242:255:2029,0.032,-0.008,0.991,0.244,-1.343,0.977,1.066,2.499,-69.412
 14:38:13.472,eb:33:2e:f9:57:b5, 2085-97-65 00:246:255:2025,0.032,-0.005,0.989,0.244,-1.465,0.916,1.066,2.488,-69.406
 14:38:13.528,eb:33:2e:f9:57:b5, 2085-97-65 00:244:255:2025,0.034,-0.006,0.989,0.122,-1.648,0.854,1.071,2.472,-69.395
 14:38:13.528,eb:33:2e:f9:57:b5, 2085-97-70 00:244:255:2031,0.035,-0.006,0.991,0,-1.77,0.793,1.071,2.455,-69.384
