Time,Device name,Chip Time(),Acceleration X(g),Acceleration Y(g),Acceleration Z(g),Angular velocity X(°/s),Angular velocity Y(°/s),Angular velocity Z(°/s),Angle X(°),Angle Y(°),Angle Z(°)
 14:43:07.784,eb:33:2e:f9:57:b5, 2085-97-85 245:113:11:-2868,0.067,2.698,-0.421,292.969,-56.03,-194.58,11.992,-5.828,-132.281
 14:43:07.784,eb:33:2e:f9:57:b5, 2085-97-96 224:184:47:9156,-6.671,8.063,-1.581,230.164,-181.335,-346.741,15.491,-6.356,-134.753
 14:43:07.784,eb:33:2e:f9:57:b5, 2085-97-121 220:192:235:-8579,1.453,5.679,6.467,-565.979,630.127,-152.161,13.244,-3.856,-136.895
 14:43:07.784,eb:33:2e:f9:57:b5, 2085-97-148 06:196:233:6357,-3.935,1.067,8.417,-353.271,359.436,-37.842,8.855,0.308,-136.571
 14:43:07.815,eb:33:2e:f9:57:b5, 2085-97-153 231:45:239:13577,-1.497,-4.713,0.741,-192.566,93.567,-141.052,6.575,2.637,-137.461
 14:43:07.816,eb:33:2e:f9:57:b5, 2085-97-219 245:00:253:2552,-0.628,0.062,2.202,-72.144,95.642,9.827,5.378,4.037,-137.856
 14:43:07.816,eb:33:2e:f9:57:b5, 2085-97-10 01:158:252:6061,0.266,-1.052,2.223,-6.958,-27.344,1.892,5.026,4.125,-137.812
 14:43:07.816,eb:33:2e:f9:57:b5, 2085-97-130 03:173:01:4231,0.754,0.357,2.208,35.645,2.808,17.09,5.197,4.081,-137.648
 14:43:07.843,eb:33:2e:f9:57:b5, 2085-97-175 02:19:00:4533,-0.663,0.351,2.183,66.284,37.537,-3.235,5.735,4.29,-137.582
 14:43:07.843,eb:33:2e:f9:57:b5, 2085-97-171 246:17:250:5612,-1.239,-0.546,2.549,106.018,40.833,10.01,6.592,4.697,-137.554
 14:43:07.843,eb:33:2e:f9:57:b5, 2085-97-122 245:89:249:6564,-1.06,-0.711,2.879,168.64,9.338,56.091,7.998,4.949,-137.175
 14:43:07.843,eb:33:2e:f9:57:b5, 2085-97-63 250:244:247:8453,-0.288,-0.775,3.713,254.211,-49.5,93.262,10.146,4.603,-136.428
 14:43:07.903,eb:33:2e:f9:57:b5, 2085-97-237 02:252:246:10550,0.833,-1.116,4.704,350.708,-45.532,115.662,13.222,3.884,-135.478
 14:43:07.903,eb:33:2e:f9:57:b5, 2085-97-41 09:66:247:11732,1.897,-1.224,5.379,454.895,17.151,106.506,17.298,3.466,-134.401
 14:43:07.903,eb:33:2e:f9:57:b5, 2085-97-233 18:71:250:9953,2.304,-0.855,5.34,561.035,92.346,62.744,22.39,3.796,-133.401
 14:43:07.903,eb:33:2e:f9:57:b5, 2085-97-45 19:194:250:9975,2.318,-0.965,5.123,651.855,155.151,-15.625,28.526,4.812,-132.742
 14:43:07.933,eb:33:2e:f9:57:b5, 2085-97-125 16:31:254:11436,1.414,-0.431,5.113,728.76,200.378,-96.252,35.453,6.735,-132.286
 14:43:07.933,eb:33:2e:f9:57:b5, 2085-97-127 06:47:255:9835,0.331,-0.561,5.505,824.158,185.852,-125.549,43.336,9.009,-132.061
 14:43:07.933,eb:33:2e:f9:57:b5, 2085-97-141 250:30:03:12675,-1.1,0.687,5.303,844.849,86.426,-130.188,51.724,10.887,-131.929
 14:43:07.933,eb:33:2e:f9:57:b5, 2085-97-113 246:52:246:10042,-1.511,0.157,6.145,852.295,106.75,-53.162,60.298,12.145,-131.808
 14:43:07.992,eb:33:2e:f9:57:b5, 2085-97-229 238:101:230:4306,-2.17,-3.41,3.245,677.979,275.574,195.068,68.231,12.305,-129.957
 14:43:07.992,eb:33:2e:f9:57:b5, 2085-97-97 252:245:242:540,1.199,-1.43,-1.062,446.289,507.141,511.169,74.828,10.031,-124.486
 14:43:07.992,eb:33:2e:f9:57:b5, 2085-97-182 26:135:21:6599,4.478,-0.518,1.562,147.461,562.134,633.24,77.783,5.68,-117.554
 14:43:07.992,eb:33:2e:f9:57:b5, 2085-97-120 37:175:55:11676,4.052,5.439,5.255,239.075,226.196,424.5,79.387,1.241,-112.549
 14:43:08.023,eb:33:2e:f9:57:b5, 2085-97-47 28:202:42:10083,2.939,6.653,4.859,494.446,-173.889,57.312,83.216,-0.912,-112.083
 14:43:08.023,eb:33:2e:f9:57:b5, 2085-97-174 17:171:21:15590,1.528,4.094,5.979,575.806,-395.569,-246.216,89.028,-0.005,-115.329
 14:43:08.023,eb:33:2e:f9:57:b5, 2085-97-101 08:253:253:19174,0.812,1.212,8.958,525.757,-370.239,-429.688,94.719,3.631,-119.251
 14:43:08.023,eb:33:2e:f9:57:b5, 2085-97-72 06:242:235:15563,0.945,-1.553,8.748,398.987,-174.377,-479.797,99.272,8.542,-121.443
 14:43:08.054,eb:33:2e:f9:57:b5, 2085-113-58 00:255:241:-1275,1.088,-3.025,6.388,240.417,11.597,-446.533,102.371,13.222,-121.295
 14:43:08.054,eb:33:2e:f9:57:b5, 2085-97-145 08:69:231:9058,0.936,-3.172,5.283,169.189,59.265,-421.753,103.475,15.287,-120.635
 14:43:08.054,eb:33:2e:f9:57:b5, 2085-97-24 06:87:233:7761,0.586,-2.955,3.945,63.477,67.261,-375.122,104.859,18.979,-119.009
 14:43:08.054,eb:33:2e:f9:57:b5, 2085-97-100 03:66:233:8128,0.273,-2.807,3.844,13.489,24.658,-328.43,105.557,22.269,-117.675
 14:43:08.083,eb:33:2e:f9:57:b5, 2085-97-07 02:198:230:8398,0.263,-2.927,4.029,5.493,7.69,-271.118,105.859,25.104,-116.763
 14:43:08.083,eb:33:2e:f9:57:b5, 2085-97-59 02:50:226:7449,0.263,-3.417,3.979,29.297,23.743,-214.6,106.342,27.383,-115.95
 14:43:08.083,eb:33:2e:f9:57:b5, 2085-97-05 02:19:222:4162,0.157,-3.964,2.958,42.419,55.786,-154.48,107.073,29.031,-114.994
 14:43:08.083,eb:33:2e:f9:57:b5, 2085-113-81 00:84:21:17634,-0.005,-4.554,0.827,-6.47,65.552,-82.397,107.743,29.971,-113.961
 14:43:08.083,eb:33:2e:f9:57:b5, 2085-97-129 255:213:216:-4546,0.188,-4.784,-0.655,-67.2,61.523,-40.466,107.726,30.157,-113.527
 14:43:08.143,eb:33:2e:f9:57:b5, 2085-97-210 04:95:217:-7242,0.903,-4.995,-3.204,-253.235,39.429,43.213,106.238,29.971,-113.049
 14:43:08.143,eb:33:2e:f9:57:b5, 2085-97-02 09:102:228:-6292,1.341,-4.227,-3.595,-459.29,13.55,84.839,102.623,29.213,-112.928
 14:43:08.143,eb:33:2e:f9:57:b5, 2085-97-221 11:255:234:-2361,1.589,-2.932,-2.103,-627.625,-28.992,81.726,96.877,28.383,-113.203
 14:43:08.143,eb:33:2e:f9:57:b5, 2085-97-188 13:63:240:843,1.885,-2.338,-0.317,-711.731,-66.711,57.739,89.835,27.708,-113.791
 14:43:08.233,eb:33:2e:f9:57:b5, 2085-97-180 15:84:247:2994,2.007,-1.464,1.111,-733.093,-100.586,16.968,82.156,27.257,-114.686
 14:43:08.233,eb:33:2e:f9:57:b5, 2085-97-142 16:130:251:3785,2.075,-0.786,1.669,-716.492,-156.616,-36.194,74.35,27.07,-116.087
 14:43:08.233,eb:33:2e:f9:57:b5, 2085-97-235 14:12:253:4283,1.516,-0.394,2.007,-688.232,-224.67,-91.736,66.401,27.01,-118.339
 14:43:08.233,eb:33:2e:f9:57:b5, 2085-97-12 09:102:249:5165,0.66,-0.512,2.251,-646.729,-283.142,-115.967,58.546,26.708,-121.382
 14:43:08.235,eb:33:2e:f9:57:b5, 2085-97-127 01:84:245:5706,-0.162,-1.147,2.706,-574.402,-299.988,-86.914,51.174,25.801,-124.629
 14:43:08.235,eb:33:2e:f9:57:b5, 2085-97-163 253:187:246:4611,-0.372,-1.35,2.646,-513.367,-274.353,-10.925,44.868,24.159,-127.249
 14:43:08.235,eb:33:2e:f9:57:b5, 2085-97-210 253:195:253:1941,-0.045,-0.783,1.605,-535.889,-199.158,83.374,39.188,22.126,-128.546
 14:43:08.235,eb:33:2e:f9:57:b5, 2085-97-205 01:205:07:1034,0.532,0.307,0.576,-602.173,-164.001,154.053,33.47,19.968,-128.535
 14:43:08.263,eb:33:2e:f9:57:b5, 2085-97-68 06:84:22:822,0.964,1.826,0.527,-630.554,-162.292,177.856,27.356,17.726,-127.804
 14:43:08.263,eb:33:2e:f9:57:b5, 2085-97-82 08:199:35:531,0.902,3.693,0.238,-573.73,-244.934,144.897,21.456,15.244,-127.062
 14:43:08.263,eb:33:2e:f9:57:b5, 2085-97-212 04:222:42:2167,0.171,5.042,0.543,-467.651,-366.76,96.924,16.265,11.882,-126.887
 14:43:08.263,eb:33:2e:f9:57:b5, 2085-97-242 253:102:43:4144,-0.571,5.424,1.609,-366.638,-424.805,77.026,12.156,7.734,-126.991
 14:43:08.323,eb:33:2e:f9:57:b5, 2085-97-68 250:72:45:5297,-0.731,5.479,2.358,-308.411,-375.793,97.534,8.806,3.571,-126.799
 14:43:08.323,eb:33:2e:f9:57:b5, 2085-97-11 250:70:53:5715,-0.824,6.044,2.655,-284.546,-268.677,128.662,5.828,0.308,-125.98
 14:43:08.323,eb:33:2e:f9:57:b5, 2085-97-253 249:112:65:6524,-0.48,7.411,3.035,-237.915,-180.786,133.057,3.049,-1.978,-124.761
 14:43:08.323,eb:33:2e:f9:57:b5, 2085-113-58 00:244:222:900,-0.156,8.838,2.99,-116.638,-131.042,88.196,1.154,-3.444,-123.635
 14:43:08.325,eb:33:2e:f9:57:b5, 2085-97-33 00:224:75:4343,-0.059,9.294,2.542,-47.913,-147.644,43.457,0.72,-4.147,-123.316
 14:43:08.325,eb:33:2e:f9:57:b5, 2085-97-69 252:130:72:4425,-0.911,9.421,1.957,37.292,-196.106,-61.279,0.791,-5.922,-123.431
 14:43:08.325,eb:33:2e:f9:57:b5, 2085-97-234 245:25:64:4727,-1.481,8.629,2.371,83.496,-155.762,-158.875,1.648,-7.745,-124.645
 14:43:08.325,eb:33:2e:f9:57:b5, 2085-97-71 241:65:45:2534,-2.42,7.03,1.943,148.438,-102.112,-228.516,3.263,-8.926,-126.7
 14:43:08.413,eb:33:2e:f9:57:b5, 2085-97-167 237:20:69:2621,-0.177,3.926,0.616,218.201,-121.216,-260.864,5.757,-9.866,-129.348
 14:43:08.413,eb:33:2e:f9:57:b5, 2085-97-147 212:180:20:22302,-2.17,9.194,8.375,116.028,-364.258,-547.913,8.756,-13.118,-133.742
 14:43:08.413,eb:33:2e:f9:57:b5, 2085-97-31 45:69:37:-12440,1.474,7.558,0.117,-374.695,910.461,110.107,7.861,-8.657,-134.297
 14:43:08.414,eb:33:2e:f9:57:b5, 2085-97-125 222:146:208:21289,-0.011,-0.566,-0.516,-474.976,497.559,-215.576,2.873,-1.23,-134.725
 14:43:08.443,eb:33:2e:f9:57:b5, 2085-97-43 236:55:240:7506,-5.016,-1.692,8.646,-8.728,564.514,-150.269,0.467,4.938,-136.241
 14:43:08.443,eb:33:2e:f9:57:b5, 2085-97-70 228:148:249:-6548,-2.31,-1.4,-4.304,30.457,241.699,-27.649,1.148,8.899,-137.252
 14:43:08.443,eb:33:2e:f9:57:b5, 2085-97-223 250:12:254:3302,-0.113,-1.453,1.144,31.616,-53.65,23.438,1.274,9.294,-137.324
 14:43:08.443,eb:33:2e:f9:57:b5, 2085-97-25 02:200:01:3850,1.047,0.127,1.213,58.472,-89.294,46.814,1.84,8.454,-136.906
 14:43:08.445,eb:33:2e:f9:57:b5, 2085-97-200 11:203:03:7852,0.813,0.351,3.384,85.999,-3.845,28.625,2.582,7.872,-136.538
 14:43:08.445,eb:33:2e:f9:57:b5, 2085-97-33 02:68:254:7947,-0.077,-0.033,3.739,161.743,67.566,17.334,3.845,8.35,-136.324
 14:43:08.445,eb:33:2e:f9:57:b5, 2085-97-66 251:192:247:8984,-1.004,-0.509,4.246,250.366,57.251,45.166,5.982,8.987,-135.989
 14:43:08.445,eb:33:2e:f9:57:b5, 2085-97-210 246:153:240:10375,-0.785,-1.694,4.751,342.163,73.608,104.126,9.075,9.503,-135.143
 14:43:08.502,eb:33:2e:f9:57:b5, 2085-97-183 255:181:238:10001,0.674,-2.21,5.08,432.129,73.608,123.962,13.09,10.102,-133.846
 14:43:08.502,eb:33:2e:f9:57:b5, 2085-97-81 10:08:239:11192,1.969,-2.108,4.975,562.195,28.625,92.346,18.265,10.283,-132.616
 14:43:08.502,eb:33:2e:f9:57:b5, 2085-97-223 18:17:244:11808,2.761,-1.993,5.671,689.514,87.036,18.982,24.664,10.596,-131.929
 14:43:08.502,eb:33:2e:f9:57:b5, 2085-97-128 20:35:245:12716,2.11,-1.663,6.481,811.89,204.468,-77.515,32.256,12.096,-131.539
 14:43:08.533,eb:33:2e:f9:57:b5, 2085-97-150 10:64:07:10959,0.127,-0.452,5.87,906.006,165.039,-136.963,40.957,14.387,-131.309
 14:43:08.533,eb:33:2e:f9:57:b5, 2085-97-109 247:119:09:11576,-1.482,1.348,5.733,965.454,4.7,-185.181,50.208,16.1,-132.056
 14:43:08.533,eb:33:2e:f9:57:b5, 2085-97-186 239:184:249:3349,-4.406,0.451,3.71,921.204,-74.097,-94.91,59.546,17.078,-133.237
 14:43:08.533,eb:33:2e:f9:57:b5, 2085-97-213 221:198:251:-3620,-2.953,-2.579,2.447,726.929,186.89,167.969,67.593,16.864,-133.05
 14:43:08.592,eb:33:2e:f9:57:b5, 2085-97-182 241:56:246:5129,-0.114,-1.165,0.029,369.324,378.235,430.542,73.795,14.799,-129.276
 14:43:08.592,eb:33:2e:f9:57:b5, 2085-97-137 13:28:15:10183,2.586,0.247,3.873,209.595,585.938,565.308,77.388,11.091,-122.871
 14:43:08.592,eb:33:2e:f9:57:b5, 2085-97-166 23:240:31:8163,3.033,3.146,4.8,292.725,495.3,490.967,80.31,7.07,-116.12
 14:43:08.592,eb:33:2e:f9:57:b5, 2085-97-226 20:190:32:5692,2.072,4.272,3.206,519.531,118.652,288.269,84.584,3.774,-112.588
 14:43:08.623,eb:33:2e:f9:57:b5, 2085-97-20 12:10:28:9778,0.929,3.787,3.363,670.349,-184.753,88.562,90.703,2.021,-113.082
 14:43:08.623,eb:33:2e:f9:57:b5, 2085-97-180 03:89:22:15577,0.118,3.225,6.357,726.257,-282.959,-56.946,97.866,2.131,-115.642
 14:43:08.623,eb:33:2e:f9:57:b5, 2085-97-128 254:248:10:16876,-0.386,2.15,8.234,704.468,-203.613,-140.808,105.095,3.631,-117.883
 14:43:08.623,eb:33:2e:f9:57:b5, 2085-97-83 253:64:255:15193,-0.033,0.583,7.899,609.253,-55.664,-161.987,111.66,5.482,-118.619
 14:43:08.653,eb:33:2e:f9:57:b5, 2085-97-205 03:236:251:12200,1.088,-0.473,6.741,477.905,96.069,-149.292,117.026,6.773,-117.713
 14:43:08.653,eb:33:2e:f9:57:b5, 2085-97-40 13:244:254:9343,1.971,-0.349,5.23,353.638,142.517,-162.109,121.207,7.498,-115.834
 14:43:08.653,eb:33:2e:f9:57:b5, 2085-97-121 16:144:255:7191,1.961,-0.018,3.978,259.644,74.524,-217.346,124.277,8.531,-113.868
 14:43:08.653,eb:33:2e:f9:57:b5, 2085-113-58 00:41:245:-285,1.703,-0.195,3.257,181.274,-37.781,-279.419,126.579,10.547,-112.335
 14:43:08.653,eb:33:2e:f9:57:b5, 2085-97-135 10:82:249:7142,0.998,-0.449,3.235,143.677,-84.717,-301.758,127.447,11.931,-111.742
 14:43:08.803,eb:33:2e:f9:57:b5, 2085-97-225 05:217:243:8340,0.505,-1.164,3.801,67.932,-119.812,-318.848,128.546,15.139,-110.748
 14:43:08.803,eb:33:2e:f9:57:b5, 2085-97-220 02:230:237:8666,0.261,-1.911,4.217,11.414,-66.65,-296.509,129.161,18.171,-109.594
 14:43:08.803,eb:33:2e:f9:57:b5, 2085-97-206 01:84:234:7333,0.283,-2.529,4.016,-37.415,25.146,-247.62,129.364,20.413,-108.001
 14:43:08.803,eb:33:2e:f9:57:b5, 2085-97-98 03:187:230:4658,0.546,-2.89,2.996,-91.003,90.881,-190.979,129.271,21.709,-106.073
 14:43:08.805,eb:33:2e:f9:57:b5, 2085-97-10 05:250:225:591,0.617,-3.437,1.355,-157.715,103.516,-139.893,128.529,22.368,-104.183
 14:43:08.805,eb:33:2e:f9:57:b5, 2085-97-100 05:226:218:-4216,0.871,-4.183,-0.956,-241.882,55.054,-106.995,126.953,22.835,-102.744
 14:43:08.805,eb:33:2e:f9:57:b5, 2085-97-117 08:140:220:-5937,1.222,-4.756,-2.667,-350.891,-20.142,-86.426,124.135,23.571,-102.09
 14:43:08.805,eb:33:2e:f9:57:b5, 2085-97-160 10:132:225:-5968,1.319,-4.067,-2.959,-501.099,-48.645,-79.59,119.844,24.461,-102.003
 14:43:08.807,eb:33:2e:f9:57:b5, 2085-97-103 10:14:229:-4096,1.213,-3.575,-2.696,-653.259,-76.294,-78.064,113.84,25.45,-102.233
 14:43:08.807,eb:33:2e:f9:57:b5, 2085-97-164 08:250:232:-239,1.023,-3.138,-1.095,-753.662,-136.719,-62.5,106.386,26.472,-103.101
 14:43:08.807,eb:33:2e:f9:57:b5, 2085-97-66 08:76:238:3710,1.026,-2.591,0.923,-795.837,-193.909,-27.71,97.855,27.235,-104.826
 14:43:08.807,eb:33:2e:f9:57:b5, 2085-97-82 08:248:245:6299,1.109,-1.732,2.465,-786.072,-244.202,6.897,88.962,27.389,-107.221
 14:43:08.809,eb:33:2e:f9:57:b5, 2085-97-189 09:238:252:8620,1.274,-0.819,3.683,-727.295,-298.401,16.296,80.178,26.927,-110.187
 14:43:08.809,eb:33:2e:f9:57:b5, 2085-97-179 09:201:02:9302,1.105,0.043,4.511,-656.311,-324.219,1.587,72.054,26.005,-113.467
 14:43:08.809,eb:33:2e:f9:57:b5, 2085-97-00 08:171:04:8636,0.835,0.51,4.38,-609.009,-310.852,-20.63,64.545,24.857,-116.686
 14:43:08.809,eb:33:2e:f9:57:b5, 2085-97-222 04:109:06:8144,0.42,0.658,4.102,-577.515,-288.635,-37.964,57.623,23.626,-119.614
 14:43:08.862,eb:33:2e:f9:57:b5, 2085-97-68 03:72:06:7463,0.299,0.866,3.772,-550.598,-273.926,-50.293,51.07,22.308,-122.267
 14:43:08.862,eb:33:2e:f9:57:b5, 2085-97-123 01:22:06:6388,0.068,0.75,3.441,-535.217,-248.718,-51.941,44.951,20.891,-124.651
 14:43:08.862,eb:33:2e:f9:57:b5, 2085-97-249 254:26:07:4976,-0.311,0.779,2.747,-546.143,-217.529,-42.908,38.952,19.446,-126.612
 14:43:08.862,eb:33:2e:f9:57:b5, 2085-97-255 251:234:10:4520,-0.695,1.102,2.272,-570.557,-204.102,-26.672,32.97,17.924,-128.139
 14:43:08.924,eb:33:2e:f9:57:b5, 2085-97-202 248:95:16:4611,-1.096,1.683,2.203,-596.436,-195.618,-6.531,26.801,16.232,-129.276
 14:43:08.924,eb:33:2e:f9:57:b5, 2085-97-180 245:32:21:5238,-1.472,2.375,2.4,-610.901,-180.176,13.977,20.599,14.474,-129.963
 14:43:08.924,eb:33:2e:f9:57:b5, 2085-97-208 242:165:23:5740,-1.773,2.843,2.683,-582.581,-156.555,35.339,14.496,12.783,-130.199
 14:43:08.924,eb:33:2e:f9:57:b5, 2085-97-206 241:102:24:6020,-1.687,2.995,2.9,-492.737,-144.043,66.956,9.146,11.223,-129.957
 14:43:09.044,eb:33:2e:f9:57:b5, 2085-97-62 243:132:29:5170,-1.476,3.276,2.795,-372.62,-132.751,110.474,4.911,9.756,-129.188
 14:43:09.044,eb:33:2e:f9:57:b5, 2085-97-48 245:199:37:4283,-1.283,4.182,2.292,-271.118,-130.371,139.404,1.873,8.394,-127.941
 14:43:09.044,eb:33:2e:f9:57:b5, 2085-97-23 246:199:45:3634,-1.182,5.264,1.904,-204.651,-136.597,142.7,-0.396,7.064,-126.491
 14:43:09.044,eb:33:2e:f9:57:b5, 2085-97-16 247:126:50:3084,-1.053,6.054,1.673,-164.978,-142.883,122.803,-2.148,5.713,-125.085
 14:43:09.103,eb:33:2e:f9:57:b5, 2085-97-85 248:86:54:2015,-0.839,6.554,1.261,-145.63,-134.46,90.393,-3.697,4.389,-123.926
 14:43:09.103,eb:33:2e:f9:57:b5, 2085-97-101 250:39:58:757,-0.598,7.029,0.683,-123.352,-140.93,41.931,-5.054,3.115,-123.135
 14:43:09.103,eb:33:2e:f9:57:b5, 2085-97-110 251:152:60:-219,-0.619,7.461,0.08,-73.364,-190.43,-26.245,-6.064,1.478,-122.882
 14:43:09.103,eb:33:2e:f9:57:b5, 2085-97-218 249:254:59:075,-1.048,7.602,-0.118,-1.038,-257.08,-99.182,-6.389,-0.868,-123.239
 14:43:09.107,eb:33:2e:f9:57:b5, 2085-97-226 244:71:55:1148,-1.749,7.25,0.277,85.815,-296.753,-158.63,-5.834,-3.851,-124.206
 14:43:09.107,eb:33:2e:f9:57:b5, 2085-97-36 239:50:48:2236,-2.469,6.505,0.837,171.692,-282.776,-192.688,-4.246,-6.96,-125.684
 14:43:09.107,eb:33:2e:f9:57:b5, 2085-97-62 233:50:38:3265,-3.036,5.487,1.355,237.61,-221.619,-196.594,-1.752,-9.635,-127.507
 14:43:09.107,eb:33:2e:f9:57:b5, 2085-97-39 231:193:29:3239,-3.119,4.217,1.625,293.457,-117.92,-159.241,1.39,-11.305,-129.298
 14:43:09.133,eb:33:2e:f9:57:b5, 2085-97-141 254:119:88:8501,-1.947,3.168,1.631,334.29,-85.083,-94.36,4.971,-12.101,-130.666
 14:43:09.133,eb:33:2e:f9:57:b5, 2085-97-05 191:25:02:17471,-1.363,2.123,12.021,103.516,-129.272,-271.79,8.047,-15.287,-133.347
 14:43:09.133,eb:33:2e:f9:57:b5, 2085-97-172 73:145:69:-18632,6.002,6.228,-6.03,-188.049,561.096,395.874,6.938,-10.591,-131.254
 14:43:09.133,eb:33:2e:f9:57:b5, 2085-97-36 238:169:195:23216,2.798,0.131,1.737,-474.67,223.45,-150.024,2.653,-7.679,-131.001
 14:43:09.135,eb:33:2e:f9:57:b5, 2085-97-131 25:90:25:-1216,-1.034,-2.101,8.804,97.29,521.79,-51.331,0.983,-2.884,-131.693
 14:43:09.135,eb:33:2e:f9:57:b5, 2085-97-250 232:193:248:-3849,-1.999,1.307,-3.319,-64.087,410.278,-135.437,2.043,0.786,-133.077
 14:43:09.135,eb:33:2e:f9:57:b5, 2085-97-84 242:123:246:5493,-1.975,-1.438,2.645,-25.269,222.656,-65.674,1.143,4.087,-133.929
 14:43:09.135,eb:33:2e:f9:57:b5, 2085-97-197 234:133:249:-1696,-2.103,-0.686,-0.122,54.932,88.074,-8.667,1.566,5.581,-134.28
 14:43:09.137,eb:33:2e:f9:57:b5, 2085-97-79 01:170:255:4933,1.146,-0.713,0.765,48.462,-69.275,47.058,2.06,5.51,-134.077
 14:43:09.137,eb:33:2e:f9:57:b5, 2085-97-28 08:53:01:7695,1.142,0.189,3.572,108.032,-49.072,38.391,2.845,4.785,-133.627
 14:43:09.137,eb:33:2e:f9:57:b5, 2085-97-223 06:71:254:10016,0.341,0.246,4.124,189.819,-14.526,18.616,4.4,4.477,-133.352
 14:43:09.137,eb:33:2e:f9:57:b5, 2085-97-146 00:67:244:11315,-0.176,-0.832,5.355,292.358,44.373,38.757,6.828,4.653,-133.061
 14:43:09.195,eb:33:2e:f9:57:b5, 2085-97-46 00:186:239:10534,0.424,-1.765,5.137,395.203,103.821,77.148,10.393,5.378,-132.336
 14:43:09.195,eb:33:2e:f9:57:b5, 2085-97-69 07:171:238:9619,1.234,-2.144,4.774,506.348,88.379,76.721,14.925,6.218,-131.331
 14:43:09.195,eb:33:2e:f9:57:b5, 2085-97-24 13:172:234:11030,1.847,-2.446,5.066,629.883,70.923,21.851,20.698,6.762,-130.671
 14:43:09.195,eb:33:2e:f9:57:b5, 2085-97-164 15:69:238:14880,2.046,-2.433,5.909,754.089,161.438,-47.607,27.702,7.844,-130.347
 14:43:09.222,eb:33:2e:f9:57:b5, 2085-97-220 17:115:243:10583,2.085,-1.934,6.384,841.431,291.992,-86.121,35.865,10.432,-129.672
 14:43:09.222,eb:33:2e:f9:57:b5, 2085-97-239 06:145:09:9475,-0.71,-0.067,4.015,882.812,72.815,-151.978,44.517,12.667,-129.364
 14:43:09.222,eb:33:2e:f9:57:b5, 2085-97-71 240:34:02:8423,-2.829,1.044,5.312,937.256,-61.646,-174.072,53.454,13.854,-130.787
 14:43:09.222,eb:33:2e:f9:57:b5, 2085-97-243 214:06:237:2357,-4.901,-1.409,1.676,810.059,-92.163,-9.521,62.084,14.117,-132.188
 14:43:09.252,eb:33:2e:f9:57:b5, 2085-97-155 227:145:239:045,-2.408,-1.018,-2.538,516.968,227.234,308.105,69.203,13.002,-130.419
 14:43:09.252,eb:33:2e:f9:57:b5, 2085-97-197 252:73:254:9193,1.715,-1.855,2.832,163.879,578.918,557.007,72.795,10.113,-124.98
 14:43:09.252,eb:33:2e:f9:57:b5, 2085-97-29 24:242:22:10426,3.572,1.393,5.578,128.296,766.724,580.811,74.641,6.63,-116.444
 14:43:09.252,eb:33:2e:f9:57:b5, 2085-97-158 29:30:37:3476,3.12,4.128,3.365,347.107,475.586,418.213,77.146,3.51,-108.853
 14:43:09.313,eb:33:2e:f9:57:b5, 2085-97-32 19:11:29:2741,1.699,4.212,0.847,547.241,-6.958,177.734,81.777,1.165,-106.342
 14:43:09.313,eb:33:2e:f9:57:b5, 2085-97-08 08:192:22:9153,0.418,3.229,2.781,572.205,-246.094,-17.151,87.61,0.363,-107.875
 14:43:09.313,eb:33:2e:f9:57:b5, 2085-97-186 00:127:14:13450,-0.005,2.366,5.811,497.803,-228.516,-135.742,93.093,1.219,-110.402
 14:43:09.313,eb:33:2e:f9:57:b5, 2085-97-24 00:219:06:13215,0.105,1.283,6.708,410.095,-109.802,-188.416,97.635,3.016,-111.918
 14:43:09.342,eb:33:2e:f9:57:b5, 2085-97-154 02:199:02:12285,0.579,0.551,6.163,346.985,-29.907,-213.013,101.332,5.103,-112.214
 14:43:09.342,eb:33:2e:f9:57:b5, 2085-97-130 06:103:255:11717,1.034,0.166,5.884,317.139,-6.226,-239.197,104.628,7.35,-111.89
 14:43:09.342,eb:33:2e:f9:57:b5, 2085-97-166 09:245:250:10310,1.325,-0.361,5.459,293.152,2.563,-266.479,107.688,9.816,-111.248
 14:43:09.342,eb:33:2e:f9:57:b5, 2085-97-252 10:253:248:8019,1.377,-0.798,4.487,254.639,6.897,-287.964,110.539,12.448,-110.319
 14:43:09.373,eb:33:2e:f9:57:b5, 2085-97-101 10:128:247:6574,1.14,-0.954,3.456,192.688,-16.907,-301.697,112.879,15.238,-109.303
 14:43:09.373,eb:33:2e:f9:57:b5, 2085-97-11 08:136:245:6508,0.861,-1.205,3.148,124.023,-52.307,-302.124,114.62,18.182,-108.463
 14:43:09.373,eb:33:2e:f9:57:b5, 2085-97-84 06:144:244:6477,0.786,-1.369,3.153,70.435,-61.89,-284.912,115.692,21.116,-107.792
 14:43:09.374,eb:33:2e:f9:57:b5, 2085-97-221 06:143:242:6787,0.992,-1.527,3.217,20.02,-35.583,-252.319,116.329,23.752,-107.095
 14:43:09.463,eb:33:2e:f9:57:b5, 2085-97-64 09:183:239:6561,1.338,-1.862,3.34,-7.629,3.479,-222.29,116.631,25.944,-106.166
 14:43:09.463,eb:33:2e:f9:57:b5, 2085-113-58 00:225:241:-1455,1.44,-2.222,2.882,-20.386,33.63,-200.5,116.944,27.74,-104.98
 14:43:09.463,eb:33:2e:f9:57:b5, 2085-97-14 11:154:232:2903,1.208,-2.497,2.298,-25.085,34.424,-193.359,117.021,28.548,-104.359
 14:43:09.463,eb:33:2e:f9:57:b5, 2085-97-33 08:21:225:-1727,1.106,-3.464,0.308,-32.349,-33.386,-184.448,117.147,30.218,-103.398
 14:43:09.463,eb:33:2e:f9:57:b5, 2085-97-241 07:137:224:-3850,0.106,-3.955,-1.397,-83.252,-140.93,-161.316,116.477,32.212,-103.557
 14:43:09.463,eb:33:2e:f9:57:b5, 2085-97-178 255:142:215:-10937,0.808,-4.452,-3.613,-208.557,-191.467,-113.464,114.467,34.222,-104.727
 14:43:09.463,eb:33:2e:f9:57:b5, 2085-97-157 10:37:223:-5144,1.235,-4.759,-4.625,-499.268,-148.987,9.46,109.836,35.272,-106.529
 14:43:09.464,eb:33:2e:f9:57:b5, 2085-97-37 09:77:228:-871,1.218,-3.729,-1.104,-642.761,-109.619,52.185,103.156,35.25,-108.001
 14:43:09.522,eb:33:2e:f9:57:b5, 2085-97-45 11:134:234:-146,1.562,-3.098,-0.167,-689.514,-129.7,85.327,95.625,34.711,-109.49
 14:43:09.522,eb:33:2e:f9:57:b5, 2085-97-136 13:02:239:1053,1.912,-2.334,0.105,-706.482,-202.82,99.915,87.649,33.766,-111.418
 14:43:09.522,eb:33:2e:f9:57:b5, 2085-97-155 18:72:245:4473,2.514,-1.87,1.233,-702.087,-301.758,97.534,79.195,32.421,-114.219
 14:43:09.522,eb:33:2e:f9:57:b5, 2085-97-224 17:12:252:6986,1.922,-0.734,2.929,-679.688,-385.986,80.994,70.681,30.58,-117.664
 14:43:09.552,eb:33:2e:f9:57:b5, 2085-97-53 14:59:248:8383,1.698,-0.701,3.835,-614.685,-501.465,43.762,62.342,28.125,-121.954
 14:43:09.552,eb:33:2e:f9:57:b5, 2085-97-171 12:243:246:8601,1.44,-1.102,4.168,-574.524,-542.236,36.438,54.69,24.939,-126.573
 14:43:09.552,eb:33:2e:f9:57:b5, 2085-97-64 10:73:246:9448,1.158,-1.161,4.343,-587.708,-508.789,50.72,47.538,21.187,-130.578
 14:43:09.553,eb:33:2e:f9:57:b5, 2085-97-157 08:68:247:10096,1.011,-1.213,4.936,-630.188,-403.931,80.383,40.715,17.38,-133.336
 14:43:09.584,eb:33:2e:f9:57:b5, 2085-97-202 07:223:249:8558,0.9,-0.913,4.605,-667.542,-305.908,99.487,33.86,14.024,-134.67
 14:43:09.584,eb:33:2e:f9:57:b5, 2085-97-50 06:216:250:7323,0.682,-0.682,3.808,-688.293,-273.987,107.117,26.977,11.052,-135.148
 14:43:09.584,eb:33:2e:f9:57:b5, 2085-97-14 05:168:251:6921,0.529,-0.62,3.466,-684.082,-278.748,119.69,20.034,8.042,-135.148
 14:43:09.584,eb:33:2e:f9:57:b5, 2085-97-10 03:50:255:6588,0.262,-0.363,3.264,-664.795,-294.8,141.113,13.31,4.938,-134.643
 14:43:09.612,eb:33:2e:f9:57:b5, 2085-97-38 01:58:05:7312,0.043,0.232,3.342,-647.583,-313.965,169.434,6.68,1.642,-133.561
 14:43:09.612,eb:33:2e:f9:57:b5, 2085-97-223 255:138:12:8334,-0.074,1.124,3.812,-625.122,-319.641,197.144,0.187,-1.593,-131.819
 14:43:09.612,eb:33:2e:f9:57:b5, 2085-97-194 254:21:18:9805,-0.276,1.926,4.396,-578.369,-332.336,212.28,-6.185,-4.73,-129.49
 14:43:09.612,eb:33:2e:f9:57:b5, 2085-97-248 252:247:24:12027,-0.402,2.652,5.268,-528.259,-320.496,227.6,-12.178,-7.57,-126.672
 14:43:09.702,eb:33:2e:f9:57:b5, 2085-97-244 252:57:34:13923,-0.317,3.659,6.44,-503.967,-243.896,244.202,-18.056,-9.651,-123.508
 14:43:09.702,eb:33:2e:f9:57:b5, 2085-97-200 254:172:46:13605,0.089,5.021,6.837,-491.699,-124.817,245.605,-23.791,-10.371,-120.449
 14:43:09.702,eb:33:2e:f9:57:b5, 2085-97-60 02:21:61:12062,0.402,6.712,6.321,-424.133,-52.063,202.454,-29.059,-10.031,-117.999
 14:43:09.702,eb:33:2e:f9:57:b5, 2085-97-09 04:211:68:9330,0.454,8.329,5.267,-283.997,-71.106,115.784,-32.964,-9.657,-116.307
 14:43:09.704,eb:33:2e:f9:57:b5, 2085-97-122 01:233:66:6287,-0.296,8.553,3.773,-162.109,-140.32,23.621,-35.392,-10.162,-115.12
 14:43:09.704,eb:33:2e:f9:57:b5, 2085-97-35 248:201:62:6453,-1.593,8.127,2.807,-93.079,-236.816,-49.683,-36.892,-11.821,-114.038
 14:43:09.704,eb:33:2e:f9:57:b5, 2085-97-68 240:05:58:9068,-2.211,7.549,3.892,-5.493,-233.459,-97.473,-37.672,-14.266,-113.049
 14:43:09.704,eb:33:2e:f9:57:b5, 2085-97-05 237:29:49:7942,-2.302,6.808,4.362,93.262,-115.601,-128.174,-37.216,-16.32,-112.857
 14:43:09.732,eb:33:2e:f9:57:b5, 2085-97-215 238:52:38:6363,-2,5.298,3.322,140.198,-9.216,-137.39,-35.689,-17.589,-113.648
 14:43:09.732,eb:33:2e:f9:57:b5, 2085-97-112 241:254:29:6348,-1.636,4.34,3.109,171.936,41.077,-124.756,-33.668,-18.188,-114.917
 14:43:09.732,eb:33:2e:f9:57:b5, 2085-97-152 244:194:12:4651,3.142,2.774,2.822,254.395,56.763,-91.492,-31.014,-18.347,-116.235
 14:43:09.732,eb:33:2e:f9:57:b5, 2085-97-90 247:150:15:-8009,3.443,5.152,11.703,863.281,184.753,-236.572,-25.818,-18.946,-117.768
 14:43:09.795,eb:33:2e:f9:57:b5, 2085-97-214 34:87:36:26765,3.424,1.75,7.05,725.647,406.982,-313.049,-16.183,-17.534,-121.569
 14:43:09.795,eb:33:2e:f9:57:b5, 2085-97-28 21:06:00:15205,-0.303,2.779,13.322,353.882,710.205,-144.47,-9.069,-11.376,-126.002
 14:43:09.795,eb:33:2e:f9:57:b5, 2085-97-36 222:219:04:-6127,-2.599,0.387,-1.153,155.151,456.909,84.412,-7.086,-4.933,-126.167
 14:43:09.795,eb:33:2e:f9:57:b5, 2085-97-148 255:79:02:039,0.534,-1.273,-2.294,226.624,68.909,-69.336,-4.977,-3.032,-126.645
 14:43:09.824,eb:33:2e:f9:57:b5, 2085-97-252 03:224:05:-381,0.461,1.885,2.126,111.267,163.33,36.255,-3.235,-2.258,-126.953
 14:43:09.824,eb:33:2e:f9:57:b5, 2085-97-33 255:222:01:2316,-0.278,0.622,1.117,89.6,133.667,-41.992,-2.302,-0.851,-127.09
 14:43:09.824,eb:33:2e:f9:57:b5, 2085-97-171 252:64:252:2036,-0.283,-0.06,1,67.2,120.483,-4.333,-1.533,0.5,-127.277
 14:43:09.824,eb:33:2e:f9:57:b5, 2085-97-27 253:95:255:2929,-1.042,-0.031,1.421,69.519,90.637,13.245,-0.802,1.45,-127.337
 14:43:09.854,eb:33:2e:f9:57:b5, 2085-97-137 250:194:254:1762,0.037,-0.542,0.617,56.03,68.726,28.198,-0.154,2.428,-127.194
 14:43:09.854,eb:33:2e:f9:57:b5, 2085-97-210 06:168:02:5362,1.315,0.161,2.169,35.278,83.008,26.917,0.231,3.071,-126.865
 14:43:09.854,eb:33:2e:f9:57:b5, 2085-97-40 00:124:249:9128,-0.63,0.22,4.032,111.938,103.21,-18.25,0.967,3.961,-126.892
 14:43:09.854,eb:33:2e:f9:57:b5, 2085-97-198 254:64:245:13434,-0.007,-1.153,5.112,276.672,40.771,3.54,2.95,4.708,-126.953
 14:43:09.912,eb:33:2e:f9:57:b5, 2085-97-230 01:103:238:11875,0.517,-1.831,6.955,457.214,73.792,70.19,6.751,5.251,-126.568
 14:43:09.912,eb:33:2e:f9:57:b5, 2085-97-48 09:208:236:10641,1.701,-2.213,5.081,583.496,47.363,79.224,12.118,5.779,-125.656
 14:43:09.912,eb:33:2e:f9:57:b5, 2085-97-75 15:10:242:10942,1.637,-2.036,5.041,720.093,26.184,8.179,18.781,6.042,-125.101
 14:43:09.912,eb:33:2e:f9:57:b5, 2085-97-147 13:101:240:11516,1.578,-1.563,5.95,815.796,97.046,-85.815,26.499,6.713,-125.338
 14:43:09.942,eb:33:2e:f9:57:b5, 2085-97-135 07:179:01:10736,-0.082,-1.291,4.58,875.854,57.8,-134.583,35.002,8.168,-125.755
 14:43:09.942,eb:33:2e:f9:57:b5, 2085-97-208 245:64:06:12984,-1.709,0.357,6.684,916.931,-46.509,-190.674,43.863,9.124,-127.277
 14:43:09.942,eb:33:2e:f9:57:b5, 2085-97-41 241:233:00:8205,-2.785,0.812,5.438,926.636,-38.574,-156.189,53.031,10.085,-128.842
 14:43:09.942,eb:33:2e:f9:57:b5, 2085-97-134 232:249:02:-205,-3.417,-1.406,3.369,831.909,191.711,0.854,61.815,11.102,-128.848
 14:43:09.973,eb:33:2e:f9:57:b5, 2085-97-166 232:136:243:1595,-1.621,0.11,-1.532,536.499,344.177,214.478,69.241,11.261,-125.854
 14:43:09.973,eb:33:2e:f9:57:b5, 2085-97-113 03:175:00:6510,2.142,-1.205,2.072,265.625,599.731,465.637,73.559,9.426,-120.02
 14:43:09.973,eb:33:2e:f9:57:b5, 2085-97-224 25:234:19:8302,3.901,1.277,4.017,202.515,689.026,521.362,76.234,6.394,-112.159
 14:43:09.973,eb:33:2e:f9:57:b5, 2085-97-124 34:84:34:6048,4.325,3.564,3.681,346.802,451.599,416.077,79.003,3.159,-105.37
 14:43:10.032,eb:33:2e:f9:57:b5, 2085-97-147 32:76:37:2504,3.731,4.653,1.807,565.552,34.79,193.054,83.622,0.632,-102.623
 14:43:10.032,eb:33:2e:f9:57:b5, 2085-97-200 26:253:36:6799,2.751,4.654,1.816,687.439,-327.087,-69.092,90.159,0.038,-104.348
 14:43:10.032,eb:33:2e:f9:57:b5, 2085-97-199 14:63:29:13275,0.875,4.341,5.024,698.181,-516.174,-303.223,97.41,2.291,-108.732
 14:43:10.032,eb:33:2e:f9:57:b5, 2085-97-07 00:147:10:16232,-0.65,2.581,7.475,621.155,-494.446,-434.387,103.997,6.954,-113.214
 14:43:10.122,eb:33:2e:f9:57:b5, 2085-97-207 247:28:252:15825,-1.08,0.228,7.937,500.244,-313.049,-437.5,109.286,12.31,-115.933
 14:43:10.122,eb:33:2e:f9:57:b5, 2085-97-11 249:48:250:14483,-0.488,-0.773,7.435,382.568,-73.303,-359.802,113.577,16.655,-116.263
 14:43:10.122,eb:33:2e:f9:57:b5, 2085-97-118 00:158:254:12656,0.451,-0.48,6.639,302.368,104.065,-278.259,117.29,19.369,-114.631
 14:43:10.122,eb:33:2e:f9:57:b5, 2085-113-58 00:162:244:-495,0.751,0.048,5.746,261.841,181.03,-225.769,120.778,20.792,-112
 14:43:10.122,eb:33:2e:f9:57:b5, 2085-97-135 07:26:02:9915,1.045,0.203,5.287,254.822,175.72,-215.149,122.47,21.281,-110.61
 14:43:10.124,eb:33:2e:f9:57:b5, 2085-97-171 08:149:00:8300,1.084,0.213,4.431,241.76,122.131,-204.59,125.662,22.22,-108.116
 14:43:10.124,eb:33:2e:f9:57:b5, 2085-97-165 08:96:253:7117,1.098,-0.112,3.715,211.609,60.12,-196.96,128.573,23.34,-106.139
 14:43:10.124,eb:33:2e:f9:57:b5, 2085-97-191 08:146:249:6492,1.087,-0.567,3.316,157.166,29.175,-184.692,130.897,24.593,-104.557
 14:43:10.124,eb:33:2e:f9:57:b5, 2085-97-228 08:252:246:5978,1.216,-0.993,3.043,77.637,48.462,-156.738,132.583,25.659,-103.079
 14:43:10.184,eb:33:2e:f9:57:b5, 2085-97-02 11:86:243:6149,1.486,-1.285,2.923,-7.385,84.045,-125.732,133.391,26.224,-101.541
 14:43:10.184,eb:33:2e:f9:57:b5, 2085-97-45 12:180:234:5186,1.47,-2.08,2.914,-50.232,83.923,-113.586,133.632,26.505,-99.987
 14:43:10.184,eb:33:2e:f9:57:b5, 2085-97-170 10:211:225:1967,1.245,-3.237,1.848,-68.481,28.076,-111.816,133.456,26.944,-98.723
 14:43:10.184,eb:33:2e:f9:57:b5, 2085-97-174 10:118:222:-840,1.449,-4.144,0.131,-107.971,-59.387,-105.896,132.836,27.911,-98.113
 14:43:10.187,eb:33:2e:f9:57:b5, 2085-97-73 255:160:217:-8693,0.042,-4.23,-1.382,-208.191,-85.815,-86.304,131.215,29.163,-98.091
 14:43:10.187,eb:33:2e:f9:57:b5, 2085-97-167 07:219:214:-10286,1.462,-5.51,-6.129,-468.445,-52.307,-20.142,127.793,30.037,-98.251
 14:43:10.187,eb:33:2e:f9:57:b5, 2085-97-145 13:253:219:-3252,1.697,-4.678,-2.986,-651.489,-54.688,-0.427,121.668,30.306,-98.696
 14:43:10.187,eb:33:2e:f9:57:b5, 2085-97-07 13:219:224:-2915,1.646,-4.246,-1.203,-710.266,-57.739,-1.892,114.56,30.597,-99.256
 14:43:10.245,eb:33:2e:f9:57:b5, 2085-97-41 14:103:228:-1804,1.907,-3.626,-1.432,-754.578,-120.544,4.395,106.76,30.855,-100.162
 14:43:10.245,eb:33:2e:f9:57:b5, 2085-97-127 15:63:231:1698,1.848,-3.249,-0.02,-773.987,-250.061,10.315,98.135,31.141,-102.283
 14:43:10.245,eb:33:2e:f9:57:b5, 2085-113-81 00:171:37:17692,1.751,-3.045,1.593,-788.574,-370.056,25.024,88.649,31.091,-105.881
 14:43:10.245,eb:33:2e:f9:57:b5, 2085-97-52 15:162:235:7238,2.11,-2.967,2.416,-795.166,-409.79,40.039,83.688,30.745,-108.078
 14:43:10.272,eb:33:2e:f9:57:b5, 2085-97-52 15:19:244:12283,1.511,-1.789,4.999,-790.222,-441.467,55.908,73.691,29.312,-112.621
 14:43:10.272,eb:33:2e:f9:57:b5, 2085-97-254 09:38:242:12620,1.205,-1.591,6.453,-722.961,-450.623,46.082,64.336,27.142,-117.004
 14:43:10.272,eb:33:2e:f9:57:b5, 2085-97-219 09:141:243:10549,1.278,-1.684,5.589,-695.068,-399.902,62.195,55.92,24.478,-120.652
 14:43:10.272,eb:33:2e:f9:57:b5, 2085-97-139 10:226:244:10409,1.324,-1.463,5.018,-725.525,-330.017,78.552,48.005,21.638,-123.146
 14:43:10.302,eb:33:2e:f9:57:b5, 2085-97-120 10:158:246:10221,1.355,-1.297,5.099,-759.277,-272.156,81.665,40.078,18.902,-124.64
 14:43:10.302,eb:33:2e:f9:57:b5, 2085-97-56 11:149:248:9245,1.479,-1.041,4.799,-776.489,-235.657,73.547,32.173,16.397,-125.469
 14:43:10.302,eb:33:2e:f9:57:b5, 2085-97-147 11:145:250:8011,1.416,-0.792,4.171,-777.344,-217.224,59.631,24.241,14.084,-125.909
 14:43:10.302,eb:33:2e:f9:57:b5, 2085-97-196 10:65:253:7070,1.196,-0.492,3.634,-768.372,-238.159,42.847,16.469,11.794,-126.172
 14:43:10.362,eb:33:2e:f9:57:b5, 2085-97-17 08:102:255:7734,0.764,-0.209,3.486,-748.901,-301.941,36.926,8.795,9.02,-126.332
 14:43:10.362,eb:33:2e:f9:57:b5, 2085-97-08 04:08:02:9014,0.302,0.083,4.141,-723.145,-341.309,55.176,1.45,5.729,-126.096
 14:43:10.362,eb:33:2e:f9:57:b5, 2085-97-137 01:21:05:9692,0.196,0.428,4.58,-692.871,-345.032,93.628,-5.68,2.302,-125.14
 14:43:10.362,eb:33:2e:f9:57:b5, 2085-97-122 02:194:10:11258,0.454,0.923,5.01,-669.739,-333.74,138.855,-12.585,-0.824,-123.354
 14:43:10.423,eb:33:2e:f9:57:b5, 2085-97-178 04:133:21:13903,0.678,1.932,6.102,-650.94,-318.909,173.096,-19.517,-3.483,-120.839
 14:43:10.423,eb:33:2e:f9:57:b5, 2085-97-101 05:163:38:16682,0.608,3.627,7.486,-618.408,-292.847,182.251,-26.318,-5.548,-117.894
 14:43:10.423,eb:33:2e:f9:57:b5, 2085-97-149 03:208:60:18300,0.314,6.234,8.739,-511.047,-234.253,154.724,-32.569,-6.96,-115.021
 14:43:10.423,eb:33:2e:f9:57:b5, 2085-97-97 02:08:74:15465,0.162,8.676,8.457,-325.073,-179.871,85.327,-37.112,-7.883,-112.819
 14:43:10.604,eb:33:2e:f9:57:b5, 2085-97-37 254:91:78:11875,-0.742,9.555,6.563,-169.678,-187.561,7.263,-39.803,-8.998,-111.313
 14:43:10.604,eb:33:2e:f9:57:b5, 2085-97-119 245:109:78:11346,-1.806,9.88,5.429,-55.115,-242.004,-71.533,-41.149,-10.871,-110.072
 14:43:10.604,eb:33:2e:f9:57:b5, 2085-97-45 237:215:71:11242,-2.779,9.57,5.638,67.871,-204.895,-151.184,-41.193,-13.392,-109.358
 14:43:10.604,eb:33:2e:f9:57:b5, 2085-97-250 232:65:53:9832,-2.668,7.907,5.212,145.569,-85.022,-193.359,-39.919,-15.661,-109.726
 14:43:10.607,eb:33:2e:f9:57:b5, 2085-97-62 237:107:41:7707,-1.983,5.765,4.265,177.063,71.167,-183.533,-37.689,-16.864,-111.324
 14:43:10.607,eb:33:2e:f9:57:b5, 2085-97-185 241:161:25:4735,-1.96,4.37,3.228,229.431,130.554,-163.879,-34.887,-17.023,-113.516
 14:43:10.607,eb:33:2e:f9:57:b5, 2085-97-87 36:02:22:17457,-6.329,1.819,1.286,328.552,73.547,-115.662,-31.339,-16.93,-115.444
 14:43:10.607,eb:33:2e:f9:57:b5, 2085-97-101 03:139:240:8940,0.137,-0.82,1.086,863.342,486.389,-173.096,-23.467,-15.87,-118.065
 14:43:10.607,eb:33:2e:f9:57:b5, 2085-97-95 09:181:23:30079,5.206,3.566,10.748,664.673,821.289,-182.617,-14.7,-11.113,-121.778
 14:43:10.607,eb:33:2e:f9:57:b5, 2085-113-58 00:72:214:2415,2.703,-1.487,9.362,288.513,684.204,137.634,-9.662,-4.889,-123.904
 14:43:10.607,eb:33:2e:f9:57:b5, 2085-97-63 200:93:16:-7161,-3.093,0.803,-2.42,241.333,550.293,-30.029,-8.361,-1.631,-124.107
 14:43:10.608,eb:33:2e:f9:57:b5, 2085-97-210 238:207:04:-2602,0.441,-1.398,-2.375,201.294,120.85,-22.766,-6.031,0.758,-124.991
 14:43:10.608,eb:33:2e:f9:57:b5, 2085-97-196 253:180:254:1925,1.234,1.87,0.113,96.863,79.041,1.831,-4.719,1.412,-124.717
 14:43:10.612,eb:33:2e:f9:57:b5, 2085-97-22 10:191:01:5234,-1.674,0.869,2.262,75.928,78.796,6.348,-3.763,1.983,-124.832
 14:43:10.612,eb:33:2e:f9:57:b5, 2085-97-80 253:220:252:2129,0.549,-0.334,-0.511,75.745,101.99,-2.686,-2.977,3.571,-125.074
 14:43:10.612,eb:33:2e:f9:57:b5, 2085-97-49 246:195:255:1728,-1.251,-0.049,2.396,78.186,127.991,3.906,-2.186,4.34,-125.035
 14:43:10.612,eb:33:2e:f9:57:b5, 2085-97-252 04:93:254:4890,0.664,-0.474,0.77,66.833,37.476,39.246,-1.467,5.273,-124.871
 14:43:10.634,eb:33:2e:f9:57:b5, 2085-97-106 253:110:255:3785,1.081,0.426,2.345,79.712,108.582,4.517,-0.67,6.064,-124.7
 14:43:10.635,eb:33:2e:f9:57:b5, 2085-97-148 07:86:240:11090,0.933,-2.02,4.785,683.838,-9.46,12.085,18.864,6.927,-121.707
 14:43:10.635,eb:33:2e:f9:57:b5, 2085-97-110 08:37:238:10733,1.025,-2.203,5.778,741.089,139.221,-26.733,26.104,7.592,-121.586
 14:43:10.635,eb:33:2e:f9:57:b5, 2085-97-00 07:148:252:10081,0.389,-1.512,4.509,780.273,164.673,-59.57,33.728,9.322,-121.091
 14:43:10.664,eb:33:2e:f9:57:b5, 2085-97-98 254:218:03:10003,-0.407,-0.122,5.239,879.333,62.317,-84.29,41.995,10.646,-121.13
 14:43:10.664,eb:33:2e:f9:57:b5, 2085-97-96 249:114:253:6436,-1.825,0.338,4.349,973.572,-73.364,-79.041,51.356,11.228,-121.8
 14:43:10.664,eb:33:2e:f9:57:b5, 2085-97-76 233:105:02:286,-3.771,-1.374,2.562,887.39,-67.993,4.517,60.595,10.926,-122.981
 14:43:10.664,eb:33:2e:f9:57:b5, 2085-97-21 228:59:242:640,-3.022,0.502,-1.848,592.224,22.034,137.268,68.286,10.151,-122.833
 14:43:10.722,eb:33:2e:f9:57:b5, 2085-97-220 242:206:244:3405,0.065,-2.438,1.504,217.041,352.234,369.141,72.208,8.339,-120.081
 14:43:10.722,eb:33:2e:f9:57:b5, 2085-97-67 11:108:09:5531,2.32,-0.07,2.279,26.794,569.824,454.956,73.488,5.746,-114.049
 14:43:10.722,eb:33:2e:f9:57:b5, 2085-97-119 22:243:24:5636,2.881,2.291,2.837,42.847,481.14,377.991,73.74,3.389,-107.523
 14:43:10.722,eb:33:2e:f9:57:b5, 2085-97-59 22:114:28:2883,2.67,3.592,2.171,220.764,139.404,214.539,74.987,1.494,-103.755
 14:43:10.753,eb:33:2e:f9:57:b5, 2085-97-113 20:243:20:3202,2.398,3.111,1.126,358.093,-197.693,34.79,78.08,0.264,-103.986
 14:43:10.753,eb:33:2e:f9:57:b5, 2085-97-126 17:60:15:7143,1.927,2.253,2.458,373.901,-381.104,-120.361,82.046,0.192,-107.177
 14:43:10.753,eb:33:2e:f9:57:b5, 2085-97-98 13:37:08:10399,1.509,1.488,4.402,314.209,-398.315,-229.797,85.748,1.522,-111.401
 14:43:10.753,eb:33:2e:f9:57:b5, 2085-97-191 11:10:00:11184,1.539,0.533,5.438,240.234,-311.462,-291.443,88.566,3.939,-115.142
 14:43:10.783,eb:33:2e:f9:57:b5, 2085-97-49 13:210:251:10384,1.764,-0.326,5.304,178.772,-185.547,-328.796,90.538,6.993,-117.62
 14:43:10.783,eb:33:2e:f9:57:b5, 2085-97-35 15:170:250:9471,1.954,-0.635,4.824,146.179,-81.482,-357.605,92.032,10.443,-118.894
 14:43:10.783,eb:33:2e:f9:57:b5, 2085-97-66 16:226:249:8613,2.101,-0.684,4.366,131.042,-3.357,-386.292,93.34,14.167,-119.136
 14:43:10.783,eb:33:2e:f9:57:b5, 2085-97-04 17:214:247:8159,2.085,-0.89,4.092,141.541,25.085,-419.006,94.774,18.199,-118.779
 14:43:10.844,eb:33:2e:f9:57:b5, 2085-97-222 15:33:245:7568,1.85,-1.172,3.858,158.813,25.208,-442.444,96.432,22.484,-118.158
 14:43:10.844,eb:33:2e:f9:57:b5, 2085-97-234 13:230:241:6701,1.627,-1.561,3.483,164.49,16.296,-447.876,98.322,26.906,-117.438
 14:43:10.844,eb:33:2e:f9:57:b5, 2085-97-237 11:212:239:5545,1.347,-1.922,3.012,148.438,25.757,-429.565,100.239,31.218,-116.548
 14:43:10.844,eb:33:2e:f9:57:b5, 2085-97-226 09:120:238:4890,1.221,-2.105,2.485,111.145,48.828,-388.672,102.134,35.178,-115.318
 14:43:10.904,eb:33:2e:f9:57:b5, 2085-97-156 09:12:236:4963,0.936,-2.314,2.44,61.218,92.957,-333.13,103.854,38.529,-113.643
 14:43:10.904,eb:33:2e:f9:57:b5, 2085-97-53 06:137:231:3406,0.845,-2.765,2.036,12.39,117.493,-261.719,105.474,41.122,-111.44
 14:43:10.904,eb:33:2e:f9:57:b5, 2085-97-151 07:159:229:2285,0.967,-3.257,1.417,-32.959,103.516,-187.866,106.556,42.979,-109.429
 14:43:10.904,eb:33:2e:f9:57:b5, 2085-113-58 00:90:241:-1860,0.653,-3.331,0.478,-100.037,110.657,-109.07,107.056,44.083,-107.589
 14:43:10.904,eb:33:2e:f9:57:b5, 2085-97-180 05:249:227:-3866,1.103,-3.374,-0.711,-150.085,112.061,-68.848,106.902,44.335,-106.771
 14:43:10.904,eb:33:2e:f9:57:b5, 2085-97-152 10:226:227:-6106,1.3,-3.551,-2.856,-296.936,108.276,12.756,105.562,44.269,-105.342
 14:43:10.904,eb:33:2e:f9:57:b5, 2085-97-54 11:230:233:-4742,1.655,-3.199,-2.587,-422.852,57.983,69.58,102.409,43.605,-104.392
 14:43:10.904,eb:33:2e:f9:57:b5, 2085-97-04 15:137:238:-5005,1.983,-2.366,-2.415,-490.845,-56.152,101.013,97.663,42.726,-104.595
 14:43:10.965,eb:33:2e:f9:57:b5, 2085-97-36 16:04:238:-3389,2.007,-2.196,-2.175,-523.01,-190.186,119.202,91.428,41.677,-106.348
 14:43:10.965,eb:33:2e:f9:57:b5, 2085-97-161 15:75:239:-607,1.844,-2.191,-0.919,-516.052,-326.965,140.381,84.293,40.215,-109.556
 14:43:10.965,eb:33:2e:f9:57:b5, 2085-97-70 14:253:239:1662,1.871,-2.036,0.29,-502.319,-424.805,156.372,76.723,38.024,-113.835
 14:43:10.965,eb:33:2e:f9:57:b5, 2085-97-38 16:12:242:4188,2.109,-1.915,1.408,-499.878,-495.239,172.363,69.23,34.991,-118.493
 14:43:10.994,eb:33:2e:f9:57:b5, 2085-97-135 16:248:243:6775,1.89,-1.58,2.687,-520.813,-517.456,186.951,61.963,31.141,-122.888
 14:43:10.994,eb:33:2e:f9:57:b5, 2085-97-74 13:251:242:8869,1.509,-1.551,3.883,-542.542,-506.653,193.176,55.085,26.763,-126.53
 14:43:10.994,eb:33:2e:f9:57:b5, 2085-97-89 11:152:243:9781,1.342,-1.638,4.632,-555.786,-461.304,202.881,48.609,22.137,-129.216
 14:43:10.994,eb:33:2e:f9:57:b5, 2085-97-116 10:84:245:10166,1.326,-1.447,4.863,-584.839,-391.602,216.858,42.479,17.639,-130.737
 14:43:11.112,eb:33:2e:f9:57:b5, 2085-97-170 10:13:248:10163,1.352,-1.189,5.003,-624.695,-307.678,224.182,36.277,13.53,-131.16
 14:43:11.112,eb:33:2e:f9:57:b5, 2085-97-199 10:185:250:9943,1.369,-0.832,4.924,-663.208,-243.408,219.116,29.861,10.063,-130.693
 14:43:11.112,eb:33:2e:f9:57:b5, 2085-97-71 11:185:253:9208,1.415,-0.463,4.712,-680.298,-207.52,200.073,23.126,7.141,-129.743
 14:43:11.112,eb:33:2e:f9:57:b5, 2085-97-207 10:38:255:8275,1.181,-0.173,4.247,-675.415,-211.365,169.983,16.37,4.603,-128.65
 14:43:11.172,eb:33:2e:f9:57:b5, 2085-97-208 07:94:00:8337,0.758,-0.04,3.954,-661.072,-248.535,146.423,9.613,1.994,-127.595
 14:43:11.172,eb:33:2e:f9:57:b5, 2085-97-64 04:173:02:9431,0.33,0.171,4.311,-647.949,-271.24,145.02,2.999,-0.758,-126.381
 14:43:11.172,eb:33:2e:f9:57:b5, 2085-97-115 01:196:05:10760,0.096,0.521,4.926,-622.131,-266.174,159.607,-3.587,-3.455,-124.772
 14:43:11.173,eb:33:2e:f9:57:b5, 2085-97-116 00:186:09:11629,0.072,0.947,5.503,-579.468,-232.3,180.664,-9.893,-5.691,-122.701
 14:43:11.176,eb:33:2e:f9:57:b5, 2085-97-30 01:236:14:12355,0.249,1.516,5.852,-538.452,-183.594,203.735,-15.963,-7.245,-120.267
 14:43:11.176,eb:33:2e:f9:57:b5, 2085-97-71 03:135:22:12586,0.615,2.293,6.163,-512.512,-140.808,220.276,-21.714,-7.993,-117.653
 14:43:11.176,eb:33:2e:f9:57:b5, 2085-97-201 06:126:32:11781,0.938,3.383,5.979,-507.019,-146.179,211.853,-27.405,-8.317,-115.01
 14:43:11.176,eb:33:2e:f9:57:b5, 2085-97-36 07:28:42:11655,0.727,4.63,5.686,-501.587,-170.471,170.959,-33.014,-8.707,-112.451
 14:43:11.176,eb:33:2e:f9:57:b5, 2085-97-141 03:11:52:10465,-0.074,5.947,5.52,-448.303,-170.471,103.76,-38.326,-9.261,-110.27
 14:43:11.177,eb:33:2e:f9:57:b5, 2085-97-117 249:172:53:8884,-1.577,6.774,4.608,-330.139,-207.214,22.461,-42.605,-10.272,-108.517
 14:43:11.177,eb:33:2e:f9:57:b5, 2085-97-16 239:62:49:9379,-2.254,6.43,4.425,-200.134,-214.966,-25.208,-45.604,-11.898,-106.935
 14:43:11.177,eb:33:2e:f9:57:b5, 2085-97-233 239:133:51:8019,-1.686,6.147,4.416,-117.249,-71.838,-28.442,-47.351,-13.096,-105.996
 14:43:11.263,eb:33:2e:f9:57:b5, 2085-97-93 244:101:54:5793,-1.432,6.812,3.296,-80.688,55.237,-50.354,-48.219,-13.315,-106.326
 14:43:11.263,eb:33:2e:f9:57:b5, 2085-97-154 243:38:44:5032,-1.633,6.243,2.513,-11.23,59.082,-95.154,-48.373,-13.486,-107.336
 14:43:11.263,eb:33:2e:f9:57:b5, 2085-97-155 243:222:34:5943,-1.33,4.899,2.685,68.298,66.162,-96.313,-47.664,-13.876,-108.495
 14:43:11.263,eb:33:2e:f9:57:b5, 2085-97-15 247:244:22:5023,5.285,3.685,2.813,140.137,105.896,-60.547,-46.203,-13.865,-109.731
 14:43:11.265,eb:33:2e:f9:57:b5, 2085-97-204 01:184:65:-6277,-0.73,5.448,10.673,970.581,106.201,-256.836,-41.973,-14.568,-110.973
 14:43:11.265,eb:33:2e:f9:57:b5, 2085-97-35 239:151:29:26006,5.849,-0.612,4.282,1092.285,105.591,-294.189,-30.471,-15.59,-114.489
 14:43:11.265,eb:33:2e:f9:57:b5, 2085-97-57 57:148:239:19796,4.052,1.855,15.578,1098.816,337.83,-240.967,-17.875,-14.974,-117.861
 14:43:11.265,eb:33:2e:f9:57:b5, 2085-97-63 38:244:59:-6208,-6.635,-2.562,5.711,631.226,780.884,-0.977,-8.152,-9.58,-120.844
 14:43:11.268,eb:33:2e:f9:57:b5, 2085-97-72 207:193:238:-8506,-1.161,7.943,-5.458,42.053,374.512,-114.746,-5.839,-2.626,-121.833
 14:43:11.268,eb:33:2e:f9:57:b5, 2085-97-219 08:115:251:1842,-0.188,-3.789,0.08,136.536,-54.749,19.409,-5.367,-1.609,-121.827
 14:43:11.268,eb:33:2e:f9:57:b5, 2085-97-106 13:209:13:2108,1.642,1.043,0.438,90.576,-1.16,13.245,-4.092,-1.609,-121.899
 14:43:11.268,eb:33:2e:f9:57:b5, 2085-97-91 254:35:255:2863,-0.453,0.422,2.332,50.171,154.663,-39.429,-3.521,-0.901,-122.036
 14:43:11.412,eb:33:2e:f9:57:b5, 2085-97-76 248:79:250:1070,-1.222,0.042,1.025,59.326,109.863,-10.132,-2.867,0.319,-122.327
 14:43:11.412,eb:33:2e:f9:57:b5, 2085-97-171 251:157:254:1582,0.485,-0.582,0.539,73.425,4.822,18.433,-2.17,0.884,-122.338
 14:43:11.412,eb:33:2e:f9:57:b5, 2085-97-220 08:78:04:3791,1.057,0.066,1.529,56.213,15.015,30.334,-1.5,0.901,-122.058
 14:43:11.412,eb:33:2e:f9:57:b5, 2085-97-125 04:141:01:4552,0.193,0.667,1.902,30.029,160.278,-8.85,-1.093,1.851,-121.97
 14:43:11.502,eb:33:2e:f9:57:b5, 2085-97-84 252:139:253:3291,-0.65,-0.087,1.993,59.57,193.604,-30.334,-0.615,3.746,-122.272
 14:43:11.502,eb:33:2e:f9:57:b5, 2085-97-152 253:08:253:4415,0.039,-0.389,1.503,103.149,80.017,-3.601,0.209,5.147,-122.498
 14:43:11.502,eb:33:2e:f9:57:b5, 2085-97-168 255:193:252:6585,-0.619,-0.486,3.021,182.617,-8.423,2.808,1.741,5.279,-122.47
 14:43:11.502,eb:33:2e:f9:57:b5, 2085-97-208 248:64:249:5251,-0.444,-0.69,2.71,237.488,0,14.587,3.851,5.35,-122.393
 14:43:11.504,eb:33:2e:f9:57:b5, 2085-97-226 00:154:249:7255,0.221,-0.764,2.952,300.049,-47.607,30.701,6.63,5.048,-122.162
 14:43:11.504,eb:33:2e:f9:57:b5, 2085-97-17 02:54:245:8175,0.248,-1.15,3.904,394.592,-48.584,28.87,10.14,4.493,-121.926
 14:43:11.504,eb:33:2e:f9:57:b5, 2085-97-165 02:01:244:7417,0.491,-1.385,3.872,482.788,-10.62,25.696,14.639,4.147,-121.712
 14:43:11.504,eb:33:2e:f9:57:b5, 2085-97-248 03:99:245:6946,0.45,-1.252,3.387,535.889,64.758,17.334,19.808,4.356,-121.393
 14:43:11.505,eb:33:2e:f9:57:b5, 2085-97-12 04:204:246:5927,0.725,-1.345,3.348,568.542,156.799,3.723,25.395,5.411,-120.888
 14:43:11.505,eb:33:2e:f9:57:b5, 2085-97-227 06:61:255:4247,0.785,-0.411,2.206,601.135,125.061,-19.104,31.295,6.839,-120.19
 14:43:11.505,eb:33:2e:f9:57:b5, 2085-97-86 02:87:246:7792,-0.25,-0.501,2.705,601.318,30.273,-70.679,37.381,7.635,-120.278
 14:43:11.505,eb:33:2e:f9:57:b5, 2085-97-176 253:252:238:8741,0.084,-1.914,4.327,583.313,130.981,-60.852,43.248,8.685,-120.339
 14:43:11.507,eb:33:2e:f9:57:b5, 2085-97-254 03:39:251:6764,0.443,-1.62,3.926,589.355,177.795,-18.982,49.224,10.135,-119.416
 14:43:11.507,eb:33:2e:f9:57:b5, 2085-97-46 254:156:255:1964,-1.515,-0.328,2.331,585.571,84.839,-8.484,55.289,11.047,-118.46
 14:43:11.507,eb:33:2e:f9:57:b5, 2085-97-149 241:16:251:292,-2.155,-0.933,1.069,481.018,47.607,38.33,60.634,11.239,-118.087
 14:43:11.507,eb:33:2e:f9:57:b5, 2085-97-145 239:249:243:1321,-1.316,-0.926,-0.597,249.39,114.136,168.518,64.622,10.618,-116.977
 14:43:11.532,eb:33:2e:f9:57:b5, 2085-97-226 254:43:254:5517,0.833,-1.123,1.878,41.199,295.715,299.988,66.116,9.283,-113.939
 14:43:11.532,eb:33:2e:f9:57:b5, 2085-97-132 12:10:11:7249,2.147,0.692,3.244,-2.563,387.573,286.987,66.522,8.031,-109.418
 14:43:11.532,eb:33:2e:f9:57:b5, 2085-97-221 19:172:18:6653,2.575,1.934,3.555,75.867,349.609,186.035,67.154,7.443,-105.002
 14:43:11.532,eb:33:2e:f9:57:b5, 2085-97-94 20:133:16:4636,2.446,2.419,2.653,196.533,183.044,43.03,68.758,7.504,-102.118
 14:43:11.563,eb:33:2e:f9:57:b5, 2085-97-141 18:162:04:4875,2.19,1.356,2.195,261.353,3.662,-104.675,71.191,8.157,-101.53
 14:43:11.563,eb:33:2e:f9:57:b5, 2085-97-135 16:40:250:5742,2.005,-0.122,2.655,246.826,-66.711,-221.252,73.696,9.651,-102.513
 14:43:11.563,eb:33:2e:f9:57:b5, 2085-97-19 16:93:243:5321,2.061,-1.217,2.784,180.725,-67.261,-299.133,75.663,12.003,-103.947
 14:43:11.563,eb:33:2e:f9:57:b5, 2085-97-216 16:64:239:4167,2.132,-1.862,2.314,90.027,-53.833,-350.281,76.745,15.029,-105.397
 14:43:11.593,eb:33:2e:f9:57:b5, 2085-97-178 16:207:237:3141,2.08,-2.232,1.792,-2.441,-44.312,-386.963,76.811,18.484,-106.826
 14:43:11.593,eb:33:2e:f9:57:b5, 2085-97-209 16:201:238:3249,2.129,-2.231,1.48,-73.12,-53.406,-418.152,75.927,22.275,-108.391
 14:43:11.593,eb:33:2e:f9:57:b5, 2085-97-19 17:141:239:3965,2.099,-2.096,1.767,-113.403,-59.265,-444.763,74.29,26.257,-110.259
 14:43:11.593,eb:33:2e:f9:57:b5, 2085-97-53 16:218:239:4353,1.924,-2.034,2.058,-127.502,-54.504,-463.501,72.18,30.421,-112.407
 14:43:11.654,eb:33:2e:f9:57:b5, 2085-97-169 13:187:239:4555,1.351,-2.012,2.187,-129.456,-48.401,-467.773,69.736,34.607,-114.791
 14:43:11.654,eb:33:2e:f9:57:b5, 2085-97-173 07:152:238:3927,0.611,-2.086,2.151,-139.343,-64.026,-441.589,66.945,38.6,-117.493
 14:43:11.654,eb:33:2e:f9:57:b5, 2085-113-58 00:41:230:-1710,0.241,-2.347,1.561,-167.969,-102.478,-385.803,63.501,41.918,-120.69
 14:43:11.654,eb:33:2e:f9:57:b5, 2085-97-38 00:07:234:2064,-0.033,-2.605,1.143,-200.134,-118.042,-336.67,61.49,43.22,-122.426
 14:43:11.654,eb:33:2e:f9:57:b5, 2085-97-74 00:127:235:2583,0.105,-2.716,1.067,-280.151,-81.726,-227.661,57.079,45.038,-125.519
 14:43:11.683,eb:33:2e:f9:57:b5, 2085-97-243 00:03:238:3270,0.163,-2.376,1.483,-373.535,8.972,-109.802,52.641,46.126,-127.156
 14:43:11.683,eb:33:2e:f9:57:b5, 2085-97-82 02:206:242:2411,0.471,-2.016,1.485,-424.561,64.331,-18.127,48.565,46.857,-127.205
 14:43:11.683,eb:33:2e:f9:57:b5, 2085-97-72 05:166:248:895,0.868,-1.27,0.791,-464.661,51.697,51.392,44.626,47.115,-126.403
 14:43:11.683,eb:33:2e:f9:57:b5, 2085-97-120 08:235:252:524,1.224,-0.612,0.257,-505.127,-18.372,95.398,40.397,46.719,-125.453
 14:43:11.714,eb:33:2e:f9:57:b5, 2085-97-238 10:200:254:1625,1.549,-0.244,0.444,-514.771,-124.695,108.643,35.568,45.461,-124.942
 14:43:11.714,eb:33:2e:f9:57:b5, 2085-97-176 13:186:01:2983,1.711,0.005,1.181,-488.037,-231.323,107.361,30.509,43.314,-125.013
 14:43:11.714,eb:33:2e:f9:57:b5, 2085-97-171 12:197:01:3562,1.502,0.327,1.586,-459.595,-316.65,101.44,25.499,40.314,-125.442
 14:43:11.714,eb:33:2e:f9:57:b5, 2085-97-155 11:119:255:4596,1.394,0.043,1.986,-444.519,-379.761,101.562,20.731,36.65,-125.914
 14:43:12.133,eb:33:2e:f9:57:b5, 2085-97-122 10:230:254:5681,1.195,-0.105,2.486,-446.411,-405.884,114.624,16.161,32.503,-126.101
 14:43:12.133,eb:33:2e:f9:57:b5, 2085-97-186 08:213:253:7214,1.024,-0.195,3.104,-456.543,-409.485,138,11.799,28.229,-125.733
 14:43:12.133,eb:33:2e:f9:57:b5, 2085-97-40 08:51:253:8835,1.113,-0.331,3.965,-472.29,-367.615,176.819,7.509,24.082,-124.684
 14:43:12.133,eb:33:2e:f9:57:b5, 2085-97-176 09:109:254:8804,1.37,-0.319,4.476,-497.62,-269.47,223.572,3.241,20.781,-122.794
 14:43:12.133,eb:33:2e:f9:57:b5, 2085-97-51 13:34:02:7719,1.92,0.01,4.007,-525.146,-190.125,254.456,-1.258,18.528,-120.278
 14:43:12.133,eb:33:2e:f9:57:b5, 2085-97-79 17:214:07:7136,2.373,0.594,3.572,-533.997,-178.467,253.174,-5.922,16.974,-117.477
 14:43:12.133,eb:33:2e:f9:57:b5, 2085-97-39 20:232:13:7331,2.524,1.374,3.512,-513.062,-234.68,217.59,-10.64,15.282,-114.752
 14:43:12.133,eb:33:2e:f9:57:b5, 2085-97-168 18:241:17:7339,2,2.068,3.624,-461.548,-328.247,155.64,-15.068,12.991,-112.192
 14:43:12.137,eb:33:2e:f9:57:b5, 2085-97-161 12:62:20:7256,1.113,2.39,3.518,-402.954,-418.091,101.807,-19.105,9.745,-109.797
 14:43:12.137,eb:33:2e:f9:57:b5, 2085-97-00 05:128:22:8312,0.108,2.67,3.724,-334.9,-508.789,63.782,-22.604,5.702,-107.271
 14:43:12.137,eb:33:2e:f9:57:b5, 2085-97-29 252:223:24:10517,-1.166,2.952,4.514,-253.54,-573.669,47.607,-25.587,0.928,-104.447
 14:43:12.137,eb:33:2e:f9:57:b5, 2085-97-202 241:24:30:12796,-2.163,3.4,5.796,-168.762,-568.726,63.232,-27.966,-3.95,-101.212
 14:43:12.139,eb:33:2e:f9:57:b5, 2085-97-124 237:217:35:12313,-2.236,4.135,6.302,-122.986,-424.988,98.022,-29.943,-7.916,-97.938
 14:43:12.139,eb:33:2e:f9:57:b5, 2085-97-148 240:59:43:9725,-1.477,4.871,5.483,-146.912,-188.599,128.235,-31.849,-9.822,-95.284
 14:43:12.139,eb:33:2e:f9:57:b5, 2085-97-246 247:48:53:6168,-0.68,6.048,3.875,-181.091,0.793,108.765,-33.909,-9.772,-93.812
 14:43:12.139,eb:33:2e:f9:57:b5, 2085-97-229 250:130:55:3358,-0.917,6.979,2.251,-157.532,17.334,21.423,-35.728,-9.212,-93.4
 14:43:12.141,eb:33:2e:f9:57:b5, 2085-97-96 244:226:47:2938,-2.144,6.572,1.337,-94.482,-56.519,-64.758,-36.942,-9.597,-93.51
 14:43:12.141,eb:33:2e:f9:57:b5, 2085-97-221 233:75:34:4672,-3.107,5.192,1.844,-16.479,-92.712,-91.736,-37.436,-10.789,-93.642
 14:43:12.141,eb:33:2e:f9:57:b5, 2085-97-34 231:239:22:5201,-2.896,3.462,2.535,77.515,-35.217,-58.594,-37.013,-11.821,-93.845
 14:43:12.141,eb:33:2e:f9:57:b5, 2085-97-209 234:167:16:4396,-2.523,2.459,2.368,150.635,38.879,-16.113,-35.706,-11.97,-94.158
 14:43:12.162,eb:33:2e:f9:57:b5, 2085-97-151 235:55:07:3421,1.295,1.58,1.905,183.594,76.965,7.812,-33.849,-11.492,-94.581
 14:43:12.162,eb:33:2e:f9:57:b5, 2085-97-08 13:75:246:5880,1.369,-1.308,3.416,419.8,260.315,28.687,14.189,14.875,-102.969
 14:43:12.162,eb:33:2e:f9:57:b5, 2085-97-84 08:99:250:5426,0.927,-0.886,2.476,462.646,296.143,2.319,18.842,17.49,-102.052
 14:43:12.162,eb:33:2e:f9:57:b5, 2085-97-186 07:248:246:6525,1.296,-1.373,3.003,470.398,364.319,-7.874,23.824,20.638,-100.964
 14:43:12.222,eb:33:2e:f9:57:b5, 2085-97-56 09:242:250:6323,0.87,-1.052,3.115,516.357,335.999,-21.24,29.279,23.961,-99.432
 14:43:12.222,eb:33:2e:f9:57:b5, 2085-97-35 01:187:253:6818,-0.811,-0.5,3.205,569.458,186.096,-62.439,35.107,26.417,-98.438
 14:43:12.222,eb:33:2e:f9:57:b5, 2085-113-81 00:47:70:11977,-1.611,0.208,3.963,610.046,107.361,-85.815,41.138,27.872,-98.262
 14:43:12.222,eb:33:2e:f9:57:b5, 2085-97-74 237:117:242:10358,-3.242,-0.112,5.026,622.375,151.55,-63.965,44.291,28.597,-98.124
 14:43:12.253,eb:33:2e:f9:57:b5, 2085-97-103 224:208:218:6856,-3.197,-3.283,3.739,539.368,408.691,151.184,51.339,30.212,-95.565
 14:43:12.253,eb:33:2e:f9:57:b5, 2085-97-101 245:202:234:-1058,0.085,-3.479,0.339,354.492,729.187,530.884,59.431,30.795,-87.528
 14:43:12.253,eb:33:2e:f9:57:b5, 2085-97-11 12:94:250:1037,2.94,-1.995,0.212,123.535,759.521,684.143,66.286,28.74,-76.794
 14:43:12.253,eb:33:2e:f9:57:b5, 2085-97-179 30:147:19:741,4.056,1.002,0.505,34.302,631.653,617.676,70.79,25.302,-66.956
 14:43:12.283,eb:33:2e:f9:57:b5, 2085-97-00 30:131:30:-730,3.202,3.358,0.037,99.854,314.575,403.137,73.559,22,-60.485
 14:43:12.283,eb:33:2e:f9:57:b5, 2085-97-161 20:108:27:1146,2.083,3.811,-0.203,236.389,-63.416,153.503,75.85,19.781,-58.7
 14:43:12.283,eb:33:2e:f9:57:b5, 2085-97-130 13:247:17:5364,1.344,2.878,1.588,309.998,-276.611,-48.34,78.212,18.885,-60.595
 14:43:12.283,eb:33:2e:f9:57:b5, 2085-97-44 08:83:08:8105,0.803,1.617,3.445,298.645,-296.57,-187.439,80.436,19.55,-63.94
 14:43:12.313,eb:33:2e:f9:57:b5, 2085-97-192 05:73:01:8313,0.744,0.556,4.151,244.202,-203.979,-262.146,82.31,21.368,-66.923
 14:43:12.313,eb:33:2e:f9:57:b5, 2085-97-221 06:90:253:6698,1.025,-0.14,3.721,181.152,-99.243,-299.561,83.793,23.983,-68.851
 14:43:12.313,eb:33:2e:f9:57:b5, 2085-97-167 09:110:251:5519,1.357,-0.463,2.914,121.704,-59.143,-324.89,84.842,26.96,-70.027
 14:43:12.313,eb:33:2e:f9:57:b5, 2085-97-220 11:206:249:4863,1.526,-0.673,2.54,69.519,-41.992,-345.703,85.38,30.256,-70.972
 14:43:12.403,eb:33:2e:f9:57:b5, 2085-97-140 12:10:249:4038,1.599,-0.834,2.163,14.771,-28.381,-360.352,85.391,33.701,-71.746
 14:43:12.403,eb:33:2e:f9:57:b5, 2085-97-07 13:242:248:3818,1.679,-0.89,1.862,-36.316,-25.452,-367.004,84.858,37.293,-72.532
 14:43:12.403,eb:33:2e:f9:57:b5, 2085-97-32 13:09:250:4298,1.607,-0.804,1.965,-85.632,-2.502,-367.065,83.787,40.869,-73.257
 14:43:12.403,eb:33:2e:f9:57:b5, 2085-97-155 12:19:250:5304,1.515,-0.733,2.352,-111.877,20.935,-366.333,82.425,44.511,-73.812
 14:43:12.405,eb:33:2e:f9:57:b5, 2085-97-07 11:235:248:5713,1.199,-0.787,2.768,-107.971,45.471,-362.122,81.052,48.109,-74.158
 14:43:12.405,eb:33:2e:f9:57:b5, 2085-97-122 08:127:246:4763,0.964,-1.034,2.619,-84.534,41.321,-348.694,79.876,51.691,-74.476
 14:43:12.405,eb:33:2e:f9:57:b5, 2085-97-39 07:236:244:3570,0.794,-1.306,2.001,-77.148,16.235,-317.993,78.574,54.948,-75.141
 14:43:12.405,eb:33:2e:f9:57:b5, 2085-97-192 04:159:242:2632,0.351,-1.478,1.532,-115.295,17.151,-265.442,76.915,57.81,-76.058
 14:43:12.733,eb:33:2e:f9:57:b5, 2085-97-150 01:233:238:1273,0.29,-1.938,0.985,-188.232,58.96,-184.57,75.009,60.002,-76.492
 14:43:12.733,eb:33:2e:f9:57:b5, 2085-97-37 04:226:240:211,0.645,-2.122,0.366,-279.236,128.906,-85.327,73.477,61.529,-75.498
 14:43:12.733,eb:33:2e:f9:57:b5, 2085-97-148 05:36:245:-918,0.816,-1.593,-0.181,-363.892,157.532,-5.92,72.219,62.314,-73.092
 14:43:12.733,eb:33:2e:f9:57:b5, 2085-97-32 08:205:247:-1877,1.258,-1.175,-0.69,-426.88,123.962,49.683,70.56,62.545,-70.356
 14:43:12.912,eb:33:2e:f9:57:b5, 2085-97-150 11:91:250:-2328,1.568,-0.858,-1.089,-468.384,40.161,82.764,67.632,62.155,-68.467
 14:43:12.912,eb:33:2e:f9:57:b5, 2085-97-212 12:35:252:-1336,1.556,-0.574,-0.979,-479.004,-81.909,94.238,63.127,61.221,-68.176
 14:43:12.912,eb:33:2e:f9:57:b5, 2085-97-178 11:95:252:524,1.357,-0.45,-0.22,-466.431,-203.552,100.952,57.151,59.551,-69.642
 14:43:12.912,eb:33:2e:f9:57:b5, 2085-97-29 10:232:251:2471,1.189,-0.476,0.739,-455.322,-283.997,118.774,50.68,57.14,-71.966
 14:43:12.914,eb:33:2e:f9:57:b5, 2085-97-18 09:202:251:4074,1.125,-0.534,1.632,-460.571,-307.312,149.109,44.484,54.036,-74.015
 14:43:12.914,eb:33:2e:f9:57:b5, 2085-97-125 09:72:253:5276,1.28,-0.456,2.331,-478.394,-292.847,182.983,39.001,50.652,-75.075
 14:43:12.914,eb:33:2e:f9:57:b5, 2085-97-41 11:78:00:6029,1.505,-0.173,2.777,-498.474,-260.925,202.393,34.041,47.214,-75.125
 14:43:12.914,eb:33:2e:f9:57:b5, 2085-97-161 12:195:03:6617,1.618,0.269,3.099,-515.869,-227.539,203.918,29.421,44.094,-74.421
 14:43:12.917,eb:33:2e:f9:57:b5, 2085-97-219 12:101:05:6831,1.574,0.612,3.317,-519.897,-207.581,189.392,24.835,41.226,-73.4
 14:43:12.917,eb:33:2e:f9:57:b5, 2085-97-15 12:59:04:6505,1.408,0.639,3.287,-510.803,-201.111,172.424,20.347,38.677,-72.257
 14:43:12.917,eb:33:2e:f9:57:b5, 2085-97-179 10:233:02:6086,1.312,0.417,3.041,-500.549,-195.801,168.213,15.925,36.216,-71.043
 14:43:12.917,eb:33:2e:f9:57:b5, 2085-97-111 10:84:03:6093,1.26,0.359,2.956,-487.122,-192.688,174.072,11.733,33.953,-69.582
 14:43:12.919,eb:33:2e:f9:57:b5, 2085-97-235 09:212:04:6051,1.177,0.5,2.976,-460.022,-207.764,179.81,7.745,31.641,-67.945
 14:43:12.919,eb:33:2e:f9:57:b5, 2085-97-23 65:87:241:21425,5.895,0.729,2.94,-422.058,-241.821,185.852,4.158,29.24,-66.116
 14:43:12.919,eb:33:2e:f9:57:b5, 2085-97-16 27:201:11:6545,-0.11,-2.695,6.308,133.911,112,-15.381,-2.532,5.576,-57.041
 14:43:12.919,eb:33:2e:f9:57:b5, 2085-97-99 235:155:242:539,-2.41,0.23,2.422,83.923,259.949,15.686,-1.39,7.608,-57.294
 14:43:12.942,eb:33:2e:f9:57:b5, 2085-97-191 236:91:251:-4153,-2.748,-0.291,-1.528,58.838,162.231,43.274,-0.61,9.789,-56.876
 14:43:12.942,eb:33:2e:f9:57:b5, 2085-97-50 246:249:01:-1710,-0.145,-0.648,-1.147,52.612,-30.579,49.194,-0.005,10.338,-56.563
 14:43:12.942,eb:33:2e:f9:57:b5, 2085-97-126 03:106:04:2321,1.05,0.263,0.583,43.701,-94.666,44.312,0.538,9.525,-56.041
 14:43:12.942,eb:33:2e:f9:57:b5, 2085-97-191 12:09:07:3539,1.198,0.724,1.551,44.678,-62.561,28.076,1.038,8.712,-55.657
 14:43:12.973,eb:33:2e:f9:57:b5, 2085-97-121 05:233:03:3819,0.605,0.628,2.042,44.678,12.695,1.587,1.538,8.405,-55.536
 14:43:12.973,eb:33:2e:f9:57:b5, 2085-97-212 251:77:04:7978,-1.075,0.286,1.942,53.04,51.819,-8.057,2.027,8.74,-55.58
 14:43:12.973,eb:33:2e:f9:57:b5, 2085-97-186 241:41:255:8337,-2.878,0.702,4.245,551.514,176.147,-62.378,44.528,31.047,-46.258
 14:43:12.973,eb:33:2e:f9:57:b5, 2085-97-48 224:187:228:6496,-3.979,-1.307,3.242,462.341,332.214,50.171,50.565,32.833,-44.407
 14:43:13.002,eb:33:2e:f9:57:b5, 2085-97-59 235:109:240:-2383,-0.931,-3.275,0.978,304.81,677.612,401.245,57.568,34.085,-37.881
 14:43:13.002,eb:33:2e:f9:57:b5, 2085-97-208 02:194:255:062,1.372,-1.004,-0.582,95.764,643.494,549.561,64.133,33.14,-28.273
 14:43:13.002,eb:33:2e:f9:57:b5, 2085-97-199 16:230:14:1528,2.491,0.96,0.442,41.87,502.563,504.089,68.599,30.613,-19.88
 14:43:13.002,eb:33:2e:f9:57:b5, 2085-97-173 20:233:23:1792,2.435,2.585,0.827,113.342,290.405,354.553,71.796,28.032,-14.156
 14:43:13.062,eb:33:2e:f9:57:b5, 2085-97-08 17:67:23:2411,1.739,3.072,0.947,228.516,61.035,160.522,74.526,26.115,-11.651
 14:43:13.062,eb:33:2e:f9:57:b5, 2085-97-154 11:107:17:5089,1.201,2.545,1.804,296.631,-117.615,-41.565,77.135,25.51,-11.975
 14:43:13.062,eb:33:2e:f9:57:b5, 2085-97-73 08:218:10:7493,1.007,1.769,3.137,283.691,-156.189,-182.495,79.354,26.318,-13.832
 14:43:13.062,eb:33:2e:f9:57:b5, 2085-97-247 08:35:05:8400,1.303,0.976,3.984,237.366,-108.582,-275.085,81.189,28.389,-15.787
 14:43:13.092,eb:33:2e:f9:57:b5, 2085-97-198 11:53:01:7560,1.653,0.365,3.998,190.796,-39.917,-341.797,82.683,31.295,-17.122
 14:43:13.092,eb:33:2e:f9:57:b5, 2085-97-13 15:160:255:6188,2.074,0.028,3.292,156.189,-13.367,-401.611,84.001,34.98,-17.957
 14:43:13.092,eb:33:2e:f9:57:b5, 2085-97-133 17:100:253:5868,2.219,-0.16,2.905,117.615,-25.635,-454.041,84.842,39.166,-18.825
 14:43:13.092,eb:33:2e:f9:57:b5, 2085-97-179 17:243:250:5309,2.186,-0.499,2.756,74.402,-20.203,-491.455,85.21,43.879,-19.792
 14:43:13.155,eb:33:2e:f9:57:b5, 2085-97-05 17:241:249:4896,2.033,-0.709,2.445,26.184,-15.564,-509.338,84.985,48.779,-20.786
 14:43:13.155,eb:33:2e:f9:57:b5, 2085-97-138 15:179:249:5083,1.888,-0.787,2.4,-25.696,0.732,-506.165,84.232,53.828,-21.797
 14:43:13.155,eb:33:2e:f9:57:b5, 2085-97-155 14:53:250:5700,1.671,-0.766,2.625,-68.909,36.499,-488.098,83.046,58.7,-22.621
 14:43:13.155,eb:33:2e:f9:57:b5, 2085-97-106 11:52:249:5999,1.148,-0.728,2.894,-93.689,74.463,-457.764,81.985,63.457,-22.896
 14:43:13.158,eb:33:2e:f9:57:b5, 2085-97-32 07:76:244:5566,0.682,-1.121,2.852,-87.219,75.195,-409.79,81.019,67.775,-22.901
 14:43:13.158,eb:33:2e:f9:57:b5, 2085-97-114 04:237:240:4610,0.515,-1.725,2.538,-74.829,72.571,-336.548,80.211,71.554,-22.956
 14:43:13.158,eb:33:2e:f9:57:b5, 2085-97-10 04:235:238:2180,0.624,-1.999,1.763,-111.877,133.24,-223.694,80.359,74.388,-21.813
 14:43:13.158,eb:33:2e:f9:57:b5, 2085-97-157 04:03:238:-1087,0.605,-2.221,0.341,-203.735,191.04,-82.764,82.947,76.102,-17.424
 14:43:13.332,eb:33:2e:f9:57:b5, 2085-97-74 06:51:240:-3097,1.029,-2.207,-1.165,-291.809,142.151,44.495,85.457,76.349,-12.096
 14:43:13.332,eb:33:2e:f9:57:b5, 2085-97-114 10:133:245:-2302,1.615,-1.642,-1.46,-358.093,16.968,146.423,84.743,75.372,-9.404
 14:43:13.332,eb:33:2e:f9:57:b5, 2085-97-151 14:101:249:-809,2.02,-1.018,-0.676,-403.809,-90.332,217.59,80.217,73.394,-10.113
 14:43:13.332,eb:33:2e:f9:57:b5, 2085-97-172 17:205:252:-145,2.354,-0.624,-0.211,-427.063,-137.634,248.962,74.52,70.779,-11.772
 14:43:13.512,eb:33:2e:f9:57:b5, 2085-97-72 19:26:00:520,2.404,-0.176,0.085,-438.904,-173.95,248.047,68.599,67.83,-13.48
 14:43:13.512,eb:33:2e:f9:57:b5, 2085-97-254 18:230:01:1429,2.326,0.154,0.458,-445.007,-218.201,227.905,62.693,64.825,-15.167
 14:43:13.512,eb:33:2e:f9:57:b5, 2085-97-03 18:65:02:2467,2.148,0.271,0.948,-456.543,-255.615,205.383,56.503,61.672,-17.084
 14:43:13.512,eb:33:2e:f9:57:b5, 2085-97-152 16:224:02:3682,2.058,0.301,1.483,-473.328,-284.485,189.514,50.411,58.453,-18.831
 14:43:13.514,eb:33:2e:f9:57:b5, 2085-97-128 16:35:04:5154,2.021,0.443,2.175,-498.535,-286.133,182.068,44.368,55.042,-20.264
 14:43:13.514,eb:33:2e:f9:57:b5, 2085-97-112 15:85:04:5688,1.828,0.544,2.709,-525.146,-257.446,176.636,38.76,51.823,-20.885
 14:43:13.514,eb:33:2e:f9:57:b5, 2085-97-228 13:230:03:5888,1.659,0.522,2.814,-539.429,-240.54,171.57,33.327,48.719,-20.956
 14:43:13.514,eb:33:2e:f9:57:b5, 2085-97-133 12:05:03:6162,1.448,0.436,2.953,-543.64,-235.413,175.537,28.207,45.807,-20.517
 14:43:13.662,eb:33:2e:f9:57:b5, 2085-97-222 10:77:02:6133,1.306,0.322,3.019,-543.945,-229.675,194.702,23.275,42.83,-19.649
 14:43:13.662,eb:33:2e:f9:57:b5, 2085-97-79 10:136:03:6069,1.25,0.318,2.964,-536.133,-226.196,224.792,18.787,39.985,-18.138
 14:43:13.662,eb:33:2e:f9:57:b5, 2085-97-194 09:105:07:6172,1.236,0.657,2.969,-509.949,-238.037,258.179,14.634,37.013,-16.106
 14:43:13.662,eb:33:2e:f9:57:b5, 2085-97-36 10:240:11:6667,1.277,1.208,3.125,-452.942,-269.165,287.964,11.151,33.97,-13.563
 14:43:13.664,eb:33:2e:f9:57:b5, 2085-97-56 10:202:16:6889,1.277,1.782,3.339,-371.704,-293.274,310.608,8.333,30.619,-10.712
 14:43:13.664,eb:33:2e:f9:57:b5, 2085-97-69 10:144:22:6463,1.29,2.438,3.308,-282.104,-298.218,322.571,6.432,27.323,-7.592
 14:43:13.664,eb:33:2e:f9:57:b5, 2085-97-54 10:138:30:5043,1.236,3.287,2.85,-220.947,-305.481,323.792,5.087,23.983,-4.417
 14:43:13.664,eb:33:2e:f9:57:b5, 2085-97-160 08:75:39:5162,0.887,4.356,2.264,-220.215,-358.704,319.092,3.917,20.479,-1.258
 14:43:13.667,eb:33:2e:f9:57:b5, 2085-97-108 05:160:46:7980,0.521,5.322,3.161,-244.324,-362.427,315.857,2.258,16.556,1.846
 14:43:13.667,eb:33:2e:f9:57:b5, 2085-97-134 04:251:57:8204,0.77,6.494,4.252,-210.449,-240.234,292.48,0.533,13.535,4.938
 14:43:13.667,eb:33:2e:f9:57:b5, 2085-97-56 07:35:69:4213,0.838,8.02,3.193,-132.263,-134.949,203.308,-0.835,11.772,7.482
 14:43:13.667,eb:33:2e:f9:57:b5, 2085-97-48 04:216:70:1102,-0.048,8.944,1.052,-76.782,-174.5,48.035,-1.659,10.377,8.751
 14:43:13.669,eb:33:2e:f9:57:b5, 2085-97-56 249:48:62:2501,-1.75,8.435,0.663,-57.861,-250.244,-116.028,-2.379,8.047,8.416
 14:43:13.669,eb:33:2e:f9:57:b5, 2085-97-100 255:162:05:1802,-1.434,6.955,1.81,-45.715,-197.144,-231.323,-2.977,5.603,6.707
 14:43:13.669,eb:33:2e:f9:57:b5, 2085-97-97 237:255:250:-1847,-1.538,-0.204,-0.222,36.438,127.686,-16.663,2.225,5.158,-3.884
 14:43:13.669,eb:33:2e:f9:57:b5, 2085-97-109 254:161:03:895,0.436,-0.453,-0.151,45.349,-37.231,5.92,2.648,5.422,-3.944
 14:43:13.669,eb:33:2e:f9:57:b5, 2085-97-201 07:205:03:3470,0.903,0.242,1.167,34.79,-44.067,-11.047,3.021,4.889,-3.994
 14:43:13.784,eb:33:2e:f9:57:b5, 2085-113-81 00:226:127:615,0.451,0.325,1.695,23.804,34.363,-18.494,3.307,4.878,-4.175
 14:43:13.784,eb:33:2e:f9:57:b5, 2085-97-90 03:148:01:3735,0.167,-0.033,1.921,35.889,44.983,-15.381,3.455,5.092,-4.252
 14:43:13.784,eb:33:2e:f9:57:b5, 2085-97-163 252:52:253:3620,-0.193,0.081,1.62,44.006,81.116,-14.404,3.889,5.685,-4.362
 14:43:13.784,eb:33:2e:f9:57:b5, 2085-97-44 00:111:01:2408,-0.216,-0.132,1.633,65.552,87.463,1.953,4.438,6.531,-4.373
 14:43:13.784,eb:33:2e:f9:57:b5, 2085-97-167 254:212:254:3941,1.949,-0.062,1.504,73.242,70.801,5.127,5.142,7.251,-4.312
 14:43:13.784,eb:33:2e:f9:57:b5, 2085-97-209 16:141:249:7244,1.928,-1.069,3.288,517.456,454.224,-50.903,32.959,24.67,3.466
 14:43:13.784,eb:33:2e:f9:57:b5, 2085-97-131 10:177:00:7700,0.083,-0.384,3.643,578.979,317.078,-96.741,39.128,28.306,5.246
 14:43:13.784,eb:33:2e:f9:57:b5, 2085-97-68 249:67:07:10705,-2.086,1.123,4.394,612.366,109.375,-139.282,45.275,30.536,5.57
 14:43:13.934,eb:33:2e:f9:57:b5, 2085-97-116 225:237:232:8613,-5.115,-0.405,5.068,562.866,191.833,-61.768,51.295,32.162,5.729
 14:43:13.934,eb:33:2e:f9:57:b5, 2085-97-51 226:218:219:-1464,-1.154,-5.74,3.557,387.085,664.917,362.061,58.293,33.519,10.426
 14:43:13.934,eb:33:2e:f9:57:b5, 2085-97-39 05:151:240:327,2.115,-3.092,-1.197,109.68,789.368,753.174,66,31.756,21.638
 14:43:13.934,eb:33:2e:f9:57:b5, 2085-97-204 25:224:10:3779,3.975,-0.454,1.244,58.472,619.141,760.071,71.169,27.257,32.119
 14:43:13.934,eb:33:2e:f9:57:b5, 2085-97-52 32:23:35:3625,3.446,3.207,2.079,195.679,359.131,558.594,74.877,22.445,39.238
 14:43:13.934,eb:33:2e:f9:57:b5, 2085-97-160 21:155:31:3255,2.038,4.5,1.388,363.77,18.677,253.662,78.624,19.061,41.957
 14:43:13.934,eb:33:2e:f9:57:b5, 2085-97-71 12:14:22:7567,1.204,3.313,2.465,401.489,-188.171,-11.169,82.299,17.836,41.001
 14:43:13.934,eb:33:2e:f9:57:b5, 2085-97-173 08:63:12:11085,1.203,2.158,4.768,314.331,-174.255,-184.692,85.369,18.721,38.809
 14:43:13.938,eb:33:2e:f9:57:b5, 2085-97-121 11:30:05:11247,1.702,1.013,5.641,210.449,-58.105,-286.499,87.462,21.017,37.441
 14:43:13.938,eb:33:2e:f9:57:b5, 2085-97-180 15:28:00:10181,2.201,0.318,5.229,151.55,9.583,-358.948,89.099,24.28,37.073
 14:43:13.938,eb:33:2e:f9:57:b5, 2085-97-28 19:192:250:9306,2.512,-0.324,4.759,124.39,29.114,-414.49,90.396,28.136,37.178
 14:43:13.938,eb:33:2e:f9:57:b5, 2085-97-191 20:209:246:7643,2.638,-0.933,4.209,95.581,49.683,-449.829,91.686,32.492,37.568
 14:43:13.938,eb:33:2e:f9:57:b5, 2085-97-228 20:94:244:5732,2.527,-1.318,3.233,43.64,66.895,-465.271,92.653,37.018,38.309
 14:43:13.938,eb:33:2e:f9:57:b5, 2085-97-82 19:141:243:4841,2.236,-1.536,2.504,-17.212,71.594,-462.83,93.351,41.649,39.309
 14:43:13.939,eb:33:2e:f9:57:b5, 2085-97-124 15:177:242:5187,1.596,-1.572,2.384,-59.692,63.599,-442.261,93.483,46.093,40.347
 14:43:13.939,eb:33:2e:f9:57:b5, 2085-97-170 10:07:239:6085,1.048,-1.844,2.795,-61.707,51.392,-399.719,93.521,50.273,41.303
 14:43:13.962,eb:33:2e:f9:57:b5, 2085-97-23 06:55:233:5018,0.502,-2.473,2.832,-38.574,69.275,-331.116,93.68,53.839,42.303
 14:43:13.962,eb:33:2e:f9:57:b5, 2085-97-14 03:233:228:2110,0.509,-3.162,1.81,-36.011,96.558,-226.685,94.543,56.558,43.813
 14:43:13.962,eb:33:2e:f9:57:b5, 2085-97-141 04:254:228:-627,0.458,-3.419,0.42,-88.684,137.634,-95.276,95.433,57.986,45.786
 14:43:13.962,eb:33:2e:f9:57:b5, 2085-97-13 03:139:229:-5595,0.792,-3.338,-1.657,-185.608,131.592,46.753,96.015,58.068,48.186
 14:43:14.232,eb:33:2e:f9:57:b5, 2085-97-182 09:223:233:-6626,2.091,-3.15,-3.293,-291.626,50.415,152.161,94.488,56.904,49.4
 14:43:14.232,eb:33:2e:f9:57:b5, 2085-97-03 17:17:255:3519,2.083,-0.327,1.404,-478.394,-256.836,165.649,65.945,44.802,39.694
 14:43:14.232,eb:33:2e:f9:57:b5, 2085-113-58 00:63:223:2385,2.005,-0.019,1.962,-490.601,-254.517,119.446,59.639,42.303,37.535
 14:43:14.232,eb:33:2e:f9:57:b5, 2085-97-119 15:58:00:4608,1.819,0.012,2.132,-498.596,-252.563,96.741,56.558,41.166,36.519
 14:43:14.323,eb:33:2e:f9:57:b5, 2085-97-20 13:07:00:4854,1.42,0.014,2.308,-519.165,-244.568,58.899,50.219,38.996,34.557
 14:43:14.323,eb:33:2e:f9:57:b5, 2085-97-22 09:77:00:4918,0.862,0.016,2.438,-547.302,-223.083,44.189,43.956,37.024,32.899
 14:43:14.323,eb:33:2e:f9:57:b5, 2085-97-128 04:129:01:4212,0.298,0.083,2.308,-566.895,-203.186,56.03,37.617,35.013,31.679
 14:43:14.323,eb:33:2e:f9:57:b5, 2085-97-250 00:108:04:2910,0.038,0.331,1.683,-562.744,-224.182,84.656,31.624,32.877,30.998
 14:43:14.323,eb:33:2e:f9:57:b5, 2085-97-241 255:132:10:2504,-0.077,0.864,1.305,-553.284,-261.047,125.61,25.823,30.125,30.718
 14:43:14.323,eb:33:2e:f9:57:b5, 2085-97-81 254:187:20:1997,-0.417,1.901,1.103,-550.171,-283.691,166.443,20.462,27.048,31.091
 14:43:14.323,eb:33:2e:f9:57:b5, 2085-97-108 250:212:33:2723,-0.988,3.356,1.009,-521.545,-349.792,189.575,15.282,23.423,31.937
 14:43:14.324,eb:33:2e:f9:57:b5, 2085-97-54 246:83:48:5865,-1.524,5.151,1.971,-430.664,-407.898,187.683,10.844,19.243,33.041
 14:43:14.326,eb:33:2e:f9:57:b5, 2085-97-139 240:103:57:8494,-2.128,6.709,3.675,-294.983,-349.609,161.499,7.449,15.09,34.233
 14:43:14.326,eb:33:2e:f9:57:b5, 2085-97-21 239:34:63:6363,-1.911,7.504,3.897,-184.143,-160.339,143.188,5.4,12.524,35.491
 14:43:14.326,eb:33:2e:f9:57:b5, 2085-97-30 243:139:68:3276,-1.292,8.274,2.215,-138.184,-81.787,108.337,3.928,11.343,36.694
 14:43:14.326,eb:33:2e:f9:57:b5, 2085-97-46 247:190:70:3389,-1.114,8.785,1.478,-97.351,-94.421,26.672,2.823,10.437,37.31
 14:43:14.441,eb:33:2e:f9:57:b5, 2085-97-04 246:77:66:3922,-1.404,8.686,1.87,-23.132,-77.942,-85.327,2.142,9.498,36.936
 14:43:14.441,eb:33:2e:f9:57:b5, 2085-97-130 243:84:55:2290,-1.715,7.665,1.639,55.969,-30.579,-179.199,2.23,9.003,35.491
 14:43:14.441,eb:33:2e:f9:57:b5, 2085-97-240 240:100:41:557,-2.107,6.076,0.608,109.802,-5.432,-226.746,2.889,8.855,33.382
 14:43:14.441,eb:33:2e:f9:57:b5, 2085-97-93 237:41:24:-346,-2.437,4.179,0.078,183.594,-8.972,-230.652,4.164,8.899,31.02
 14:43:14.445,eb:33:2e:f9:57:b5, 2085-97-01 225:48:52:264,-3.461,1.677,-0.558,261.719,-22.583,-191.833,6.257,8.811,28.878
 14:43:14.445,eb:33:2e:f9:57:b5, 2085-97-255 249:14:254:5576,-0.406,-0.672,8.88,-138.733,44.128,-259.949,7.778,7.982,26.158
 14:43:14.445,eb:33:2e:f9:57:b5, 2085-97-184 249:199:252:8847,-0.747,-0.168,3.589,207.764,-39.612,18.372,6.279,12.156,24.12
 14:43:14.445,eb:33:2e:f9:57:b5, 2085-97-154 253:173:246:9455,0.115,-1.221,4.885,298.096,-7.874,51.697,8.91,11.805,24.373
 14:43:14.446,eb:33:2e:f9:57:b5, 2085-97-142 01:96:241:12503,0.604,-1.164,4.773,381.958,-13.733,62.439,12.442,11.58,24.972
 14:43:14.446,eb:33:2e:f9:57:b5, 2085-97-246 59:94:65:20240,6.327,-2.257,6.459,483.521,136.475,96.863,16.924,11.986,25.9
 14:43:14.446,eb:33:2e:f9:57:b5, 2085-97-36 40:34:49:12234,4.804,9.444,7.001,607.91,-32.227,142.883,82.919,13.26,60.145
 14:43:14.446,eb:33:2e:f9:57:b5, 2085-97-42 32:28:03:17315,3.245,2.841,7.274,669.8,-351.562,-289.673,89.247,14.216,57.524
 14:43:14.448,eb:33:2e:f9:57:b5, 2085-97-233 22:13:228:17202,2.622,-1.728,8.925,455.811,-299.438,-509.216,94.059,18.457,54.042
 14:43:14.448,eb:33:2e:f9:57:b5, 2085-97-211 19:87:213:11139,2.388,-4.704,6.991,185.425,-90.576,-546.265,96.674,23.978,52.515
 14:43:14.448,eb:33:2e:f9:57:b5, 2085-97-230 17:77:214:7787,1.871,-5.465,4.337,5.005,11.78,-517.883,97.465,29.235,52.861
 14:43:14.448,eb:33:2e:f9:57:b5, 2085-97-120 12:191:220:7549,1.292,-4.678,3.643,-86.304,3.357,-465.759,97.306,34.102,53.575
 14:43:14.563,eb:33:2e:f9:57:b5, 2085-97-223 07:239:219:7493,0.655,-4.358,3.679,-116.15,-25.818,-404.114,96.284,38.375,53.866
 14:43:14.564,eb:33:2e:f9:57:b5, 2085-97-06 03:85:215:7011,0.141,-4.785,3.652,-130.554,-10.01,-315.308,95.054,41.968,53.871
 14:43:14.564,eb:33:2e:f9:57:b5, 2085-97-95 255:122:212:4297,-0.161,-5.303,2.893,-157.41,64.392,-194.641,93.812,44.407,54.36
 14:43:14.564,eb:33:2e:f9:57:b5, 2085-97-179 00:73:213:874,0.375,-5.5,1.184,-217.957,114.258,-64.27,92.796,45.604,55.629
 14:43:14.564,eb:33:2e:f9:57:b5, 2085-97-188 03:07:219:-1693,0.585,-5.008,-0.161,-312.195,141.052,46.753,91.093,45.544,57.294
 14:43:14.564,eb:33:2e:f9:57:b5, 2085-97-148 07:03:226:-3355,1.406,-4.179,-1.403,-407.837,113.831,117.004,88.583,44.687,59.008
 14:43:14.564,eb:33:2e:f9:57:b5, 2085-97-219 13:98:234:-4170,1.907,-3.264,-1.875,-495.422,42.847,134.705,84.589,43.418,60.051
 14:43:14.564,eb:33:2e:f9:57:b5, 2085-97-79 16:34:241:-2794,2.119,-2.167,-1.932,-596.13,-41.687,113.464,79.206,42.171,60.233
 14:43:14.652,eb:33:2e:f9:57:b5, 2085-97-73 17:255:242:715,2.19,-1.733,-0.514,-655.457,-146.667,71.228,72.147,41.001,59.233
 14:43:14.652,eb:33:2e:f9:57:b5, 2085-97-100 18:146:245:3813,2.397,-1.484,1.134,-662.659,-240.112,27.893,64.292,39.776,57.118
 14:43:14.652,eb:33:2e:f9:57:b5, 2085-97-141 18:166:249:4878,2.281,-1.089,2.254,-650.635,-281.006,-15.625,55.986,38.342,54.278
 14:43:14.652,eb:33:2e:f9:57:b5, 2085-97-165 18:27:02:5832,2.225,-0.335,2.666,-661.56,-290.833,-46.265,47.796,36.749,51.257
 14:43:14.684,eb:33:2e:f9:57:b5, 2085-97-152 15:99:09:3857,1.651,0.8,2.54,-684.387,-263.855,-70.435,39.463,35.09,48.505
 14:43:14.684,eb:33:2e:f9:57:b5, 2085-97-95 10:218:13:1413,0.879,1.464,1.214,-658.813,-351.196,-103.149,31.306,33.085,45.654
 14:43:14.684,eb:33:2e:f9:57:b5, 2085-97-213 02:28:20:1137,-0.363,2.065,0.453,-632.69,-462.952,-93.567,23.313,29.707,42.49
 14:43:14.684,eb:33:2e:f9:57:b5, 2085-97-142 246:30:32:2788,-1.953,3.138,0.844,-622.925,-477.112,-25.757,16.1,25.367,40.182
 14:43:14.892,eb:33:2e:f9:57:b5, 2085-97-215 234:137:51:5163,-2.756,5.108,2.011,-508.911,-426.514,55.359,9.987,20.825,39.37
 14:43:14.892,eb:33:2e:f9:57:b5, 2085-97-120 235:124:68:5268,-2.456,7.485,2.684,-270.447,-366.455,130.92,6.367,16.837,39.88
 14:43:14.892,eb:33:2e:f9:57:b5, 2085-97-252 236:146:80:4766,-2.222,9.516,2.261,-105.652,-389.954,157.288,4.785,12.964,41.116
 14:43:14.892,eb:33:2e:f9:57:b5, 2085-97-239 239:74:82:6309,-1.805,10.254,2.765,-24.963,-382.751,130.859,4.367,8.888,42.319
 14:43:14.894,eb:33:2e:f9:57:b5, 2085-97-77 242:234:78:4839,-1.691,10.183,2.966,22.644,-244.141,40.466,4.362,5.674,43.022
 14:43:14.895,eb:33:2e:f9:57:b5, 2085-97-52 242:09:63:1666,-1.832,9.11,1.548,76.416,-154.175,-111.45,4.872,3.845,42.473
 14:43:14.895,eb:33:2e:f9:57:b5, 2085-97-48 241:147:37:-641,-1.806,6.359,0.184,103.699,-115.173,-247.864,5.823,2.609,40.479
 14:43:14.895,eb:33:2e:f9:57:b5, 2085-97-62 241:94:12:-2798,-1.951,3.08,-0.811,105.286,-62.561,-326.477,6.943,2.016,37.419
 14:43:14.899,eb:33:2e:f9:57:b5, 2085-97-44 237:245:253:-3061,-0.995,0.065,-1.692,168.396,-44.128,-348.511,8.383,1.851,33.959
 14:43:14.899,eb:33:2e:f9:57:b5, 2085-97-187 225:83:227:18428,0.445,11.088,4.308,110.291,-375.549,-776.917,10.53,0.588,29.306
 14:43:14.899,eb:33:2e:f9:57:b5, 2085-97-127 202:117:14:-7320,-6.497,10.033,-3.904,-465.698,1051.27,-352.905,6.378,8.064,26.433
 14:43:14.899,eb:33:2e:f9:57:b5, 2085-97-126 206:45:184:6535,1.597,-9.35,-0.068,-177.002,83.496,-208.496,3.197,12.211,23.67
 14:43:14.899,eb:33:2e:f9:57:b5, 2085-97-27 226:113:240:13099,-4.215,-0.737,4.4,-145.691,337.83,-64.941,1.033,14.826,22.753
 14:43:14.922,eb:33:2e:f9:57:b5, 2085-113-58 00:49:222:3900,-4.024,-1.118,-1.54,51.453,-19.043,-1.16,1.027,16.496,22.302
 14:43:14.922,eb:33:2e:f9:57:b5, 2085-97-111 244:42:243:4416,1.195,-1.111,-3.579,-15.625,-230.286,58.533,1.11,15.721,22.462
 14:43:14.922,eb:33:2e:f9:57:b5, 2085-97-167 09:227:02:9955,0.819,-0.377,7.965,86.914,-95.886,85.876,1.434,13.376,23.423
 14:43:14.922,eb:33:2e:f9:57:b5, 2085-97-249 03:53:03:4513,0.077,0.642,0.618,145.386,-80.383,46.021,2.873,13.068,24.038
 14:43:14.925,eb:33:2e:f9:57:b5, 2085-97-101 01:97:252:10950,3.069,0.022,4.612,166.748,8.423,54.993,4.4,12.557,24.461
 14:43:14.925,eb:33:2e:f9:57:b5, 2085-97-185 20:124:07:16364,1.178,0.763,9.964,886.23,604.492,-18.433,31.619,22.253,31.465
 14:43:14.925,eb:33:2e:f9:57:b5, 2085-97-208 249:147:01:12894,-3.275,1.842,5.708,1075.867,411.804,-27.1,42.605,26.724,34.568
 14:43:14.925,eb:33:2e:f9:57:b5, 2085-97-38 217:210:178:15244,-1.793,-3.997,6.881,1041.382,239.38,294.006,54.542,27.581,37.2
 14:43:15.074,eb:33:2e:f9:57:b5, 2085-97-13 17:254:211:3753,1.453,-7.668,2.261,624.084,834.229,994.324,66.281,24.406,46.241
 14:43:15.074,eb:33:2e:f9:57:b5, 2085-97-19 09:157:222:5645,0.818,-4.156,2.68,-150.146,-121.033,-439.636,94.636,31.591,58.705
 14:43:15.075,eb:33:2e:f9:57:b5, 2085-97-223 03:84:220:6697,0.284,-4.277,2.987,-148.865,-152.283,-378.235,92.384,35.717,57.217
 14:43:15.075,eb:33:2e:f9:57:b5, 2085-97-47 01:116:218:5892,0.042,-4.581,3.255,-144.836,-75.867,-275.085,90.17,38.952,55.783
 14:43:15.075,eb:33:2e:f9:57:b5, 2085-97-149 255:173:216:2251,0.088,-4.829,2.101,-171.021,0.854,-166.077,88.358,41.1,55.36
 14:43:15.075,eb:33:2e:f9:57:b5, 2085-97-227 01:116:216:-140,0.305,-4.965,0.479,-234.436,-11.841,-57.373,86.243,42.155,55.19
 14:43:15.075,eb:33:2e:f9:57:b5, 2085-97-183 03:51:220:-2690,0.801,-4.819,-0.701,-329.224,-31.311,43.701,83.216,42.144,54.882
 14:43:15.075,eb:33:2e:f9:57:b5, 2085-97-189 09:171:227:-4751,1.504,-3.996,-1.856,-442.566,-41.26,117.92,79.151,41.21,54.608
 14:43:15.077,eb:33:2e:f9:57:b5, 2085-97-01 12:160:233:-3313,1.47,-3.112,-2.36,-569.885,-109.741,143.982,73.553,39.666,54.031
 14:43:15.077,eb:33:2e:f9:57:b5, 2085-97-154 12:108:238:1160,1.92,-2.526,-0.522,-664.551,-204.041,163.269,66.616,37.634,52.828
 14:43:15.077,eb:33:2e:f9:57:b5, 2085-97-197 17:143:245:5527,2.202,-1.744,1.698,-683.228,-293.091,165.833,58.705,34.882,51.037
 14:43:15.078,eb:33:2e:f9:57:b5, 2085-97-30 16:140:247:7578,1.85,-1.062,3.352,-629.7,-360.291,141.052,51.136,31.685,48.988
 14:43:15.103,eb:33:2e:f9:57:b5, 2085-97-168 13:156:247:7451,1.636,-1.094,3.761,-550.964,-409.302,116.15,44.335,28.087,46.813
 14:43:15.103,eb:33:2e:f9:57:b5, 2085-97-210 12:71:249:7860,1.553,-0.93,3.616,-514.038,-431.519,110.291,38.304,24.126,44.742
 14:43:15.104,eb:33:2e:f9:57:b5, 2085-97-137 10:184:249:8662,0.946,-0.797,4.159,-526.855,-386.902,121.216,32.668,20.061,43.286
 14:43:15.104,eb:33:2e:f9:57:b5, 2085-97-210 04:58:250:7543,0.4,-0.767,4.033,-559.998,-307.739,148.438,27.092,16.414,42.759
 14:43:15.104,eb:33:2e:f9:57:b5, 2085-97-14 02:177:253:5936,0.153,-0.578,3.309,-596.252,-251.77,187.744,21.385,13.233,43.248
 14:43:15.104,eb:33:2e:f9:57:b5, 2085-97-150 01:17:06:5076,0.306,0.159,2.582,-644.348,-241.577,225.952,15.331,10.294,44.506
 14:43:15.104,eb:33:2e:f9:57:b5, 2085-97-157 02:245:17:5020,0.337,1.505,2.423,-702.393,-244.934,247.742,8.734,7.476,46.412
 14:43:15.104,eb:33:2e:f9:57:b5, 2085-97-127 03:119:29:7329,0.457,2.894,2.814,-733.582,-287.476,241.699,1.566,4.642,48.647
 14:43:15.163,eb:33:2e:f9:57:b5, 2085-97-165 02:95:46:11343,0.179,4.577,4.408,-692.871,-338.806,213.074,-5.636,1.609,51.097
 14:43:15.163,eb:33:2e:f9:57:b5, 2085-97-235 255:143:67:16498,-0.446,7.189,6.883,-578.918,-353.821,164.307,-12.178,-1.544,53.547
 14:43:15.163,eb:33:2e:f9:57:b5, 2085-97-214 249:05:81:16994,-0.778,9.37,8.562,-414.917,-253.418,104.431,-17.331,-4.158,55.673
 14:43:15.163,eb:33:2e:f9:57:b5, 2085-97-144 252:189:90:12881,-0.312,10.812,7.374,-277.893,-84.167,47.913,-20.885,-5.367,56.887
 14:43:15.193,eb:33:2e:f9:57:b5, 2085-97-217 251:37:95:9255,-0.901,11.684,5.251,-164.795,-52.612,-40.344,-23.22,-5.883,57.145
 14:43:15.193,eb:33:2e:f9:57:b5, 2085-97-139 245:118:90:9159,-1.77,11.799,4.236,-28.564,-144.714,-139.587,-24.06,-7.207,56.656
 14:43:15.193,eb:33:2e:f9:57:b5, 2085-97-164 237:215:75:9471,-2.765,10.53,4.708,99.731,-148.926,-209.412,-23.489,-9.47,55.695
 14:43:15.193,eb:33:2e:f9:57:b5, 2085-97-48 232:27:51:7768,-1.435,8.125,4.293,185.73,-72.205,-229.614,-21.572,-11.365,53.981
 14:43:15.402,eb:33:2e:f9:57:b5, 2085-97-222 214:45:24:26357,-5.156,5.456,4.765,346.741,-76.172,-249.817,-18.677,-12.64,51.976
 14:43:15.402,eb:33:2e:f9:57:b5, 2085-97-97 254:255:66:6501,-5.671,3.834,-3.239,648.438,602.6,-129.333,-11.662,-8.778,48.933
 14:43:15.402,eb:33:2e:f9:57:b5, 2085-97-245 251:155:58:22292,1.995,4.931,2.845,318.665,560.669,-272.644,-6.015,-2.318,45.187
 14:43:15.402,eb:33:2e:f9:57:b5, 2085-97-50 239:161:234:-599,-2.602,1.434,7.833,29.297,561.707,59.082,-4.938,2.719,43.929
 14:43:15.464,eb:33:2e:f9:57:b5, 2085-97-185 243:63:06:-1594,-0.7,-4.524,-1.578,228.943,205.688,8.301,-3.356,6.196,43.561
 14:43:15.464,eb:33:2e:f9:57:b5, 2085-97-99 249:71:07:-2233,-0.863,2.479,1.522,128.784,145.935,45.776,-1.626,7.394,43.797
 14:43:15.464,eb:33:2e:f9:57:b5, 2085-97-39 08:132:05:3993,0.3,0.296,-0.9,79.102,4.15,17.578,-0.604,8.13,43.835
 14:43:15.464,eb:33:2e:f9:57:b5, 2085-97-01 250:30:255:1266,0.637,-0.001,1.75,70.557,122.62,-21.179,0.055,8.97,43.77
 14:43:15.464,eb:33:2e:f9:57:b5, 2085-97-130 07:230:01:6342,-0.381,0.337,2.473,71.106,81.36,-22.827,0.714,9.591,43.638
 14:43:15.464,eb:33:2e:f9:57:b5, 2085-97-63 250:122:253:3404,-0.32,-0.466,1.5,76.721,164.49,-32.349,1.417,11.173,43.198
 14:43:15.464,eb:33:2e:f9:57:b5, 2085-97-206 250:08:250:7365,-0.84,-0.118,2.393,135.498,55.542,-5.31,2.411,12.151,43.072
 14:43:15.464,eb:33:2e:f9:57:b5, 2085-97-50 250:116:247:10580,-0.731,-1.034,4.735,262.756,-5.676,34.058,4.449,12.272,43.182
 14:43:15.468,eb:33:2e:f9:57:b5, 2085-97-113 252:254:239:12155,-0.055,-1.358,5.428,407.227,2.258,78.186,7.965,12.129,43.792
 14:43:15.468,eb:33:2e:f9:57:b5, 2085-97-236 03:05:236:11685,1.05,-2.284,6.037,532.227,13.489,100.037,12.843,12.074,44.72
 14:43:15.468,eb:33:2e:f9:57:b5, 2085-97-171 11:212:236:12319,0.929,-2.354,5.497,664.246,14.709,58.777,19.034,12.003,45.582
 14:43:15.468,eb:33:2e:f9:57:b5, 2085-97-226 06:145:235:17041,0.829,-2.157,7.098,770.142,126.526,-3.174,26.329,12.404,45.967
 14:43:15.468,eb:33:2e:f9:57:b5, 2085-97-136 08:211:243:16569,1.721,-1.77,8.999,850.952,434.265,-2.563,34.656,14.98,47.422
 14:43:15.468,eb:33:2e:f9:57:b5, 2085-97-191 14:205:04:9533,1.021,-0.41,5.612,970.337,410.278,33.997,44.544,18.523,50.658
 14:43:15.468,eb:33:2e:f9:57:b5, 2085-97-43 254:90:253:8650,-0.967,0.357,4.663,1082.336,68.115,5.249,55.322,19.852,52.366
 14:43:15.469,eb:33:2e:f9:57:b5, 2085-97-83 231:17:248:7339,-4.049,-1.994,4.26,998.901,0.183,111.755,65.869,19.303,52.267
 14:43:15.493,eb:33:2e:f9:57:b5, 2085-97-254 233:93:240:3339,1.662,0.197,0.407,668.091,340.332,380.432,75.234,17.485,55.228
 14:43:15.493,eb:33:2e:f9:57:b5, 2085-97-121 14:249:233:8092,1.775,-3.024,4.382,117.798,46.936,-313.965,109.935,18.984,66.577
 14:43:15.493,eb:33:2e:f9:57:b5, 2085-113-58 00:171:235:315,1.681,-2.505,3.697,46.143,-3.235,-300.659,110.896,21.742,67.874
 14:43:15.493,eb:33:2e:f9:57:b5, 2085-97-175 12:11:237:7551,1.455,-2.369,3.622,24.17,-41.626,-295.776,111.182,23.187,68.28
 14:43:15.643,eb:33:2e:f9:57:b5, 2085-97-154 10:147:235:7850,1.185,-2.435,3.766,-4.272,-87.219,-278.687,111.204,26.082,68.604
 14:43:15.643,eb:33:2e:f9:57:b5, 2085-97-74 08:43:232:7784,0.962,-2.743,3.853,-16.235,-97.534,-254.333,111.083,28.916,68.56
 14:43:15.643,eb:33:2e:f9:57:b5, 2085-97-63 07:219:228:7015,0.867,-3.208,3.673,-29.907,-73.975,-215.698,110.66,31.377,68.489
 14:43:15.643,eb:33:2e:f9:57:b5, 2085-97-88 06:23:226:4937,0.666,-3.526,3.027,-63.965,-31.311,-165.894,110.264,33.333,68.593
 14:43:15.645,eb:33:2e:f9:57:b5, 2085-97-180 03:213:219:1427,0.418,-4.115,1.636,-109.009,-31.189,-114.502,109.308,34.678,68.774
 14:43:15.645,eb:33:2e:f9:57:b5, 2085-97-202 02:210:216:-998,0.367,-4.804,0.041,-168.518,-91.309,-58.35,107.693,35.667,68.362
 14:43:15.645,eb:33:2e:f9:57:b5, 2085-97-207 255:161:216:-4567,0.327,-4.888,-0.967,-269.47,-120.544,3.906,104.672,36.183,67.083
 14:43:15.645,eb:33:2e:f9:57:b5, 2085-97-98 07:113:228:-5290,1.168,-4.5,-3.181,-489.136,-86.182,102.112,100.19,35.848,65.698
 14:43:15.647,eb:33:2e:f9:57:b5, 2085-97-103 09:99:234:-211,1.197,-2.85,-1.235,-690.43,-61.401,146.423,93.417,34.574,64.72
 14:43:15.647,eb:33:2e:f9:57:b5, 2085-97-197 09:47:234:2566,1.33,-2.736,0.699,-748.901,-111.938,151.489,85.627,33.047,63.726
 14:43:15.647,eb:33:2e:f9:57:b5, 2085-97-164 13:59:240:4471,2.14,-2.483,1.62,-740.967,-190.43,156.494,77.327,31.218,62.238
 14:43:15.647,eb:33:2e:f9:57:b5, 2085-97-206 17:224:249:6867,1.99,-1.26,2.805,-737.061,-248.474,147.217,69.131,29.07,60.342
 14:43:15.673,eb:33:2e:f9:57:b5, 2085-97-225 13:114:249:8877,1.688,-0.645,3.85,-712.646,-330.261,116.211,60.798,26.543,58.079
 14:43:15.673,eb:33:2e:f9:57:b5, 2085-97-139 13:151:249:9247,1.619,-0.886,4.511,-664.49,-392.883,85.51,52.987,23.643,55.327
 14:43:15.673,eb:33:2e:f9:57:b5, 2085-97-55 12:129:250:9337,1.462,-0.708,4.492,-654.602,-395.02,71.411,45.467,20.341,52.734
 14:43:15.673,eb:33:2e:f9:57:b5, 2085-97-252 10:140:249:10148,1.276,-0.737,4.735,-668.579,-360.168,63.293,38.337,17.04,50.647
 14:43:15.794,eb:33:2e:f9:57:b5, 2085-97-74 09:138:250:10391,0.945,-0.783,5.089,-697.754,-289.001,65.369,31.24,14.002,49.356
 14:43:15.794,eb:33:2e:f9:57:b5, 2085-97-184 05:32:254:8835,0.563,-0.496,4.75,-736.755,-215.698,75.195,23.972,11.497,48.829
 14:43:15.794,eb:33:2e:f9:57:b5, 2085-97-169 03:80:04:7805,0.304,0.093,3.987,-773.56,-193.909,90.759,16.403,9.349,48.966
 14:43:15.794,eb:33:2e:f9:57:b5, 2085-97-248 00:35:13:8095,-0.044,1.071,3.811,-788.391,-217.224,110.474,8.597,7.152,49.521
 14:43:15.882,eb:33:2e:f9:57:b5, 2085-97-40 255:225:21:8806,-0.104,2.207,4.142,-763.428,-253.967,129.395,0.857,4.708,50.587
 14:43:15.882,eb:33:2e:f9:57:b5, 2085-97-77 255:69:30:10013,-0.083,3.237,4.507,-705.75,-281.372,144.287,-6.504,2.126,52.108
 14:43:15.882,eb:33:2e:f9:57:b5, 2085-97-249 254:73:40:12825,-0.289,4.409,5.522,-633.667,-298.34,155.396,-13.288,-0.445,54.157
 14:43:15.882,eb:33:2e:f9:57:b5, 2085-97-83 251:159:53:15042,-0.912,5.77,6.902,-557.861,-288.208,165.771,-19.451,-2.785,56.547
 14:43:15.885,eb:33:2e:f9:57:b5, 2085-97-95 246:56:67:15576,-1.205,7.601,7.595,-449.402,-238.098,174.805,-25.005,-4.598,59.244
 14:43:15.885,eb:33:2e:f9:57:b5, 2085-97-89 248:174:78:13576,-0.621,9.167,7.342,-272.583,-152.771,164.673,-28.938,-5.477,61.644
 14:43:15.885,eb:33:2e:f9:57:b5, 2085-97-51 252:163:83:8828,-0.563,10.217,5.516,-111.816,-120.972,115.356,-31.174,-5.872,63.578
 14:43:15.885,eb:33:2e:f9:57:b5, 2085-97-141 249:211:85:7108,-1.045,10.681,3.569,-7.263,-205.078,33.63,-31.948,-6.833,65.045
 14:43:15.885,eb:33:2e:f9:57:b5, 2085-97-155 244:24:79:8782,-1.929,10.434,3.9,91.187,-253.967,-67.688,-31.811,-9.031,66.242
 14:43:15.885,eb:33:2e:f9:57:b5, 2085-97-79 236:21:59:8660,-2.618,8.961,4.421,190.063,-184.937,-153.015,-30.388,-11.536,66.401
 14:43:15.885,eb:33:2e:f9:57:b5, 2085-97-87 236:24:36:6798,-2.248,5.896,3.896,261.902,-59.998,-186.829,-27.795,-13.475,65.435
 14:43:15.885,eb:33:2e:f9:57:b5, 2085-97-147 238:140:16:2873,-2.154,3.306,2.417,296.57,30.334,-166.87,-24.472,-14.31,63.737
 14:43:15.887,eb:33:2e:f9:57:b5, 2085-97-225 239:239:247:008,1.392,0.596,0.567,361.694,5.493,-115.54,-20.742,-14.7,62.276
 14:43:15.887,eb:33:2e:f9:57:b5, 2085-97-18 207:26:32:16805,3.025,1.257,2.604,608.765,-209.839,-159.973,-16.183,-15.425,61.518
 14:43:15.887,eb:33:2e:f9:57:b5, 2085-97-07 238:26:82:22335,6.277,9.591,-2.764,612.549,464.783,-439.331,-6.861,-12.519,58.002
 14:43:15.887,eb:33:2e:f9:57:b5, 2085-97-186 20:242:249:4751,-3.969,8.485,14.055,-92.957,910.156,77.698,-3.895,-6.246,54.761
 14:43:15.914,eb:33:2e:f9:57:b5, 2085-97-118 227:180:226:-8499,-5.19,-4.093,-1.387,193.237,472.168,-28.381,-3.615,0.67,54.954
 14:43:15.914,eb:33:2e:f9:57:b5, 2085-97-59 248:185:19:-3223,-0.843,0.666,0.046,171.875,77.515,94.116,-1.417,2.532,54.536
 14:43:15.914,eb:33:2e:f9:57:b5, 2085-97-183 10:84:11:3367,1.456,-0.774,-0.719,102.234,-1.587,21.484,-0.258,2.933,54.987
 14:43:15.914,eb:33:2e:f9:57:b5, 2085-97-209 252:11:252:529,0.092,1.223,2.237,54.504,171.326,-22.4,0.434,3.609,55.157
 14:43:15.914,eb:33:2e:f9:57:b5, 2085-113-58 00:65:221:2625,1.192,0.305,1.231,45.837,75.5,5.92,0.978,4.636,55.118
 14:43:15.943,eb:33:2e:f9:57:b5, 2085-97-196 04:145:253:6280,-0.981,1.049,2.135,35.095,138.855,-44.373,1.17,5.224,55.003
 14:43:15.943,eb:33:2e:f9:57:b5, 2085-97-239 245:233:252:4003,-0.443,-1.035,2.576,100.891,136.597,-36.377,1.747,6.872,54.432
 14:43:15.943,eb:33:2e:f9:57:b5, 2085-97-21 01:139:252:8705,-0.446,-0.455,2.95,209.351,-42.969,-10.681,3.329,7.086,54.3
 14:43:15.943,eb:33:2e:f9:57:b5, 2085-97-231 252:220:244:12976,0.315,-1.28,5.331,316.406,8.972,23.376,5.955,6.872,54.234
 14:43:16.064,eb:33:2e:f9:57:b5, 2085-97-224 02:17:238:14092,0.58,-1.648,7.157,499.146,22.095,54.688,10.14,7.004,54.728
 14:43:16.064,eb:33:2e:f9:57:b5, 2085-97-225 09:14:236:11254,1.678,-2.773,6.18,653.32,35.278,64.514,16.046,7.18,55.349
 14:43:16.064,eb:33:2e:f9:57:b5, 2085-97-52 09:21:245:13612,1.445,-1.861,5.429,785.767,-28.564,-2.38,23.335,7.114,55.717
 14:43:16.064,eb:33:2e:f9:57:b5, 2085-97-184 13:165:243:12241,1.4,-2.299,7.173,890.381,66.65,-86.243,31.844,7.548,55.179
 14:43:16.092,eb:33:2e:f9:57:b5, 2085-97-244 00:20:05:14914,-0.746,0.869,6.147,946.472,-43.396,-186.218,40.974,8.465,54.229
 14:43:16.092,eb:33:2e:f9:57:b5, 2085-97-110 249:220:04:11432,-1.378,1.082,6.689,1007.324,-75.5,-195.19,50.641,9.415,52.344
 14:43:16.092,eb:33:2e:f9:57:b5, 2085-97-85 235:251:253:5922,-4.085,-0.945,4.404,938.049,-12.817,-118.591,60.227,10.305,50.779
 14:43:16.092,eb:33:2e:f9:57:b5, 2085-97-56 226:225:243:1541,-2.821,0.359,0.03,686.035,191.772,65.674,68.829,10.986,51.597
 14:43:16.096,eb:33:2e:f9:57:b5, 2085-97-208 248:16:247:5201,1.204,-2.462,2.306,323.853,517.578,357.727,73.911,9.992,55.772
 14:43:16.096,eb:33:2e:f9:57:b5, 2085-97-37 21:72:15:8745,3.25,0.475,3.495,179.565,662.415,461.548,76.783,7.482,62.853
 14:43:16.096,eb:33:2e:f9:57:b5, 2085-97-238 27:133:33:9608,3.542,3.212,4.615,268.25,498.169,379.944,79.052,4.697,69.725
 14:43:16.096,eb:33:2e:f9:57:b5, 2085-97-142 25:113:35:6512,2.715,4.68,4.03,505.859,119.019,181.763,83.029,2.532,73.141
 14:43:16.123,eb:33:2e:f9:57:b5, 2085-97-106 18:212:25:9045,1.822,3.806,3.298,622.07,-206.543,-31.921,88.83,1.857,72.488
 14:43:16.123,eb:33:2e:f9:57:b5, 2085-97-113 10:05:18:14563,0.866,2.743,5.868,596.375,-302.917,-197.632,95.076,3.186,69.719
 14:43:16.123,eb:33:2e:f9:57:b5, 2085-97-71 05:52:06:16042,0.705,1.583,7.832,505.066,-211.853,-287.781,100.464,5.971,67.451
 14:43:16.123,eb:33:2e:f9:57:b5, 2085-97-52 07:85:253:13545,1.144,0.091,7.292,398.56,-77.515,-314.575,104.892,9.24,66.72
 14:43:16.154,eb:33:2e:f9:57:b5, 2085-97-95 11:112:251:11864,1.67,-0.507,6.06,300.476,19.165,-317.139,108.292,12.299,67.396
 14:43:16.154,eb:33:2e:f9:57:b5, 2085-97-05 15:230:250:11153,1.982,-0.599,5.621,240.601,61.279,-325.562,111.182,15.189,68.89
 14:43:16.154,eb:33:2e:f9:57:b5, 2085-97-18 16:127:249:9940,1.986,-0.695,5.158,211.365,52.002,-341.614,113.681,18.051,70.708
 14:43:16.154,eb:33:2e:f9:57:b5, 2085-97-36 15:240:245:8499,1.788,-0.995,4.539,187.012,13.855,-353.149,116.131,21.121,72.471
 14:43:16.184,eb:33:2e:f9:57:b5, 2085-97-169 13:107:242:7272,1.663,-1.479,3.829,151.123,-16.113,-346.802,118.163,24.28,74.031
 14:43:16.184,eb:33:2e:f9:57:b5, 2085-97-218 12:194:238:6352,1.555,-1.929,3.338,102.234,-11.108,-320.74,119.987,27.307,75.569
 14:43:16.184,eb:33:2e:f9:57:b5, 2085-97-84 12:33:235:5684,1.592,-2.399,2.907,43.823,4.211,-280.396,121.19,29.894,77.13
 14:43:16.184,eb:33:2e:f9:57:b5, 2085-97-66 13:203:232:5083,1.667,-2.765,2.683,-14.526,28.748,-237.427,122.042,32.031,78.75
 14:43:16.244,eb:33:2e:f9:57:b5, 2085-97-132 13:117:228:3123,1.721,-3.131,2.052,-64.636,40.527,-199.768,122.223,33.662,80.354
 14:43:16.244,eb:33:2e:f9:57:b5, 2085-97-64 14:35:223:786,1.81,-3.814,0.95,-92.285,10.376,-176.208,122.108,35.118,81.782
 14:43:16.244,eb:33:2e:f9:57:b5, 2085-97-204 15:72:217:-4444,0.864,-4.355,-0.292,-114.624,-49.011,-163.147,121.328,36.672,82.529
 14:43:16.244,eb:33:2e:f9:57:b5, 2085-97-12 05:224:205:-15838,1.083,-5.948,-6.343,-276.428,-93.567,-107.117,119.614,38.293,82.595
 14:43:16.274,eb:33:2e:f9:57:b5, 2085-97-239 10:213:218:-4328,1.612,-5.209,-4.799,-597.168,-92.224,31.555,114.269,38.848,81.738
 14:43:16.274,eb:33:2e:f9:57:b5, 2085-97-244 13:21:224:-1234,1.824,-4.345,-0.875,-702.209,-154.114,115.784,106.633,38.529,79.991
 14:43:16.274,eb:33:2e:f9:57:b5, 2085-97-156 15:51:229:010,2.119,-3.63,-0.496,-743.225,-223.511,196.35,97.762,37.299,77.311
 14:43:16.274,eb:33:2e:f9:57:b5, 2085-97-223 17:198:232:3144,2.501,-3.11,0.771,-748.779,-313.354,258.362,88.5,35.063,73.943
 14:43:16.304,eb:33:2e:f9:57:b5, 2085-97-227 24:89:243:7186,3.24,-2.491,2.348,-726.501,-395.569,285.645,79.167,31.822,70.192
 14:43:16.304,eb:33:2e:f9:57:b5, 2085-97-244 21:08:254:9855,2.256,-0.616,4.292,-697.083,-452.026,274.414,70.477,27.922,66.533
 14:43:16.304,eb:33:2e:f9:57:b5, 2085-97-196 15:26:250:11062,1.886,-0.458,5.293,-617.188,-546.57,226.807,62.364,23.489,62.617
 14:43:16.304,eb:33:2e:f9:57:b5, 2085-97-56 14:178:249:10558,1.652,-0.814,5.276,-576.782,-526.794,214.661,55.415,18.737,58.958
 14:43:16.363,eb:33:2e:f9:57:b5, 2085-97-139 12:221:249:10652,1.479,-0.78,5.154,-604.065,-418.823,214.294,48.884,14.035,56.547
 14:43:16.363,eb:33:2e:f9:57:b5, 2085-97-180 11:31:252:9860,1.492,-0.669,5.104,-661.011,-251.892,203.918,42.424,10.212,55.64
 14:43:16.363,eb:33:2e:f9:57:b5, 2085-97-44 12:121:00:7567,1.562,-0.249,4.311,-707.397,-140.991,166.016,35.436,7.548,55.975
 14:43:16.364,eb:33:2e:f9:57:b5, 2085-97-192 11:247:05:5506,1.345,0.45,3.182,-741.577,-113.464,100.647,28.18,5.85,56.437
 14:43:16.393,eb:33:2e:f9:57:b5, 2085-97-10 09:14:07:5365,0.803,0.874,2.482,-750.732,-182.068,26.611,20.555,4.191,56.431
 14:43:16.393,eb:33:2e:f9:57:b5, 2085-97-79 03:121:07:6788,0.065,0.883,2.939,-754.089,-238.098,-10.498,13.041,2.087,55.805
 14:43:16.393,eb:33:2e:f9:57:b5, 2085-97-84 254:137:08:8199,-0.364,1.001,3.699,-756.958,-230.164,-1.892,5.35,-0.335,55.421
 14:43:16.393,eb:33:2e:f9:57:b5, 2085-97-09 253:48:10:9128,-0.314,1.13,4.232,-738.525,-196.045,33.936,-2.153,-2.45,55.514
 14:43:16.423,eb:33:2e:f9:57:b5, 2085-97-29 254:184:15:10211,-0.109,1.561,4.674,-696.594,-172.18,75.012,-9.564,-4.241,56.349
 14:43:16.423,eb:33:2e:f9:57:b5, 2085-97-248 255:230:23:12392,0.016,2.418,5.501,-643.188,-181.152,110.657,-16.458,-5.707,57.667
 14:43:16.423,eb:33:2e:f9:57:b5, 2085-97-100 00:134:36:13785,0.062,3.731,6.453,-589.966,-187.561,140.991,-23.071,-7.042,59.612
 14:43:16.423,eb:33:2e:f9:57:b5, 2085-97-163 255:70:50:14342,-0.189,5.407,6.949,-507.996,-186.646,160.828,-29.02,-8.009,61.826
 14:43:16.484,eb:33:2e:f9:57:b5, 2085-97-108 254:183:63:12630,-0.002,7.139,6.77,-372.559,-160.583,163.452,-34.019,-8.646,64.254
 14:43:16.484,eb:33:2e:f9:57:b5, 2085-97-170 255:20:74:8640,-0.557,8.717,5.25,-186.523,-184.998,128.235,-37.238,-9.042,66.412
 14:43:16.484,eb:33:2e:f9:57:b5, 2085-97-177 245:157:73:8059,-1.914,9.38,3.703,-13,-343.75,52.734,-38.787,-10.618,68.917
 14:43:16.484,eb:33:2e:f9:57:b5, 2085-97-67 237:146:68:10899,-2.638,8.932,4.663,122.009,-391.479,-17.883,-38.875,-13.508,71.57
 14:43:16.514,eb:33:2e:f9:57:b5, 2085-97-255 233:87:61:9663,-2.562,8.126,5.314,179.382,-210.205,-68.481,-37.853,-16.194,73.262
 14:43:16.514,eb:33:2e:f9:57:b5, 2085-97-147 238:182:53:8010,-1.782,7.208,4.141,192.81,-16.541,-111.267,-35.931,-17.507,73.065
 14:43:16.514,eb:33:2e:f9:57:b5, 2085-97-11 11:124:55:24427,-6.088,6.089,3.746,228.516,77.087,-158.264,-33.289,-17.99,71.598
 14:43:16.514,eb:33:2e:f9:57:b5, 2085-97-112 07:125:17:8491,-0.987,6.814,-0.06,842.773,604.431,-327.576,-24.846,-16.227,67.017
 14:43:16.543,eb:33:2e:f9:57:b5, 2085-97-103 252:182:28:28266,3.429,2.782,8.069,646.545,722.778,-294.983,-15.936,-11.503,61.589
 14:43:16.543,eb:33:2e:f9:57:b5, 2085-97-186 18:62:254:3736,-2.967,-0.033,10.778,257.874,606.873,94.849,-10.657,-5.685,58.035
 14:43:16.543,eb:33:2e:f9:57:b5, 2085-97-253 223:250:242:-5281,-3.12,1.783,-1.425,227.478,346.313,-9.399,-8.569,-0.72,58.299
 14:43:16.543,eb:33:2e:f9:57:b5, 2085-97-179 252:177:22:1125,0.839,-0.358,-2.944,191.65,54.138,11.536,-6.042,1.066,57.502
 14:43:16.604,eb:33:2e:f9:57:b5, 2085-97-210 248:240:02:-584,1.32,1.623,-0.075,96.497,128.174,-28.076,-4.785,2.148,57.81
 14:43:16.604,eb:33:2e:f9:57:b5, 2085-113-58 00:190:216:1320,0.196,0.747,2.268,57.312,142.09,-7.446,-4.048,3.065,57.634
 14:43:16.604,eb:33:2e:f9:57:b5, 2085-97-10 248:135:255:1366,-0.277,-0.39,1.387,80.444,126.77,-26.672,-3.642,3.746,57.442
 14:43:16.604,eb:33:2e:f9:57:b5, 2085-97-143 253:02:255:3726,-0.221,0.049,1.832,73.914,90.454,-4.517,-2.884,4.62,57.184
 14:43:16.633,eb:33:2e:f9:57:b5, 2085-97-169 00:09:00:3239,-0.009,-0.263,1.675,81.726,95.093,-3.967,-2.049,5.592,57.074
 14:43:16.633,eb:33:2e:f9:57:b5, 2085-97-62 02:21:02:3787,-0.116,0.151,1.985,93.079,86.67,-8.972,-1.17,6.465,56.893
 14:43:16.633,eb:33:2e:f9:57:b5, 2085-97-194 251:89:250:7718,-0.817,-0.043,2.665,137.451,43.762,6.226,-0.033,7.125,56.843
 14:43:16.633,eb:33:2e:f9:57:b5, 2085-97-177 251:119:247:10902,-0.485,-0.949,5.054,270.935,-11.597,36.194,2.065,7.136,56.975
 14:43:16.665,eb:33:2e:f9:57:b5, 2085-97-119 250:155:239:10867,-0.107,-1.583,5.443,410.034,-6.958,84.717,5.625,7.009,57.601
 14:43:16.665,eb:33:2e:f9:57:b5, 2085-97-12 04:244:238:8168,0.787,-2.403,4.985,522.156,2.93,111.084,10.366,6.905,58.546
 14:43:16.665,eb:33:2e:f9:57:b5, 2085-97-182 04:67:241:9797,0.14,-1.799,3.81,643.372,-84.045,63.538,16.353,6.328,59.354
 14:43:16.665,eb:33:2e:f9:57:b5, 2085-97-133 255:47:237:13455,0.352,-1.837,5.926,745.728,-49.438,5.127,23.351,5.438,59.299
 14:43:16.722,eb:33:2e:f9:57:b5, 2085-97-58 06:86:246:12104,0.094,-2.102,5.958,794.189,73.242,-11.841,31.163,5.702,59.425
 14:43:16.722,eb:33:2e:f9:57:b5, 2085-97-253 251:218:252:14718,-0.507,-0.502,7.259,843.384,89.539,-56.03,39.304,6.564,59.469
 14:43:16.722,eb:33:2e:f9:57:b5, 2085-97-186 254:121:02:8604,-0.118,0.206,5.874,966.37,108.032,-7.324,48.472,7.619,60.073
 14:43:16.722,eb:33:2e:f9:57:b5, 2085-97-10 250:49:09:1381,-1.917,-0.032,2.283,951.721,23.621,59.998,58.233,7.723,60.617
 14:43:16.753,eb:33:2e:f9:57:b5, 2085-97-125 238:110:15:-4329,-2.099,3.31,-2.909,729.065,-15.503,116.211,66.973,6.943,61.309
 14:43:16.753,eb:33:2e:f9:57:b5, 2085-97-151 242:186:252:3372,-0.332,-0.271,0.541,326.721,156.067,252.136,71.927,5.416,62.325
 14:43:16.753,eb:33:2e:f9:57:b5, 2085-97-129 09:164:17:7379,2.303,0.784,2.671,139.648,427.917,337.463,73.998,3.411,66.346
 14:43:16.753,eb:33:2e:f9:57:b5, 2085-97-240 22:132:35:8414,3.021,3.519,4.045,176.453,419.067,241.028,75.278,1.846,71.51
 14:43:16.783,eb:33:2e:f9:57:b5, 2085-97-230 22:225:33:4861,2.657,4.723,3.406,386.719,129.761,36.743,77.997,1.263,74.476
 14:43:16.783,eb:33:2e:f9:57:b5, 2085-97-52 19:14:21:5508,2.071,3.362,2.088,543.274,-180.603,-168.03,82.859,1.961,73.839
 14:43:16.783,eb:33:2e:f9:57:b5, 2085-97-208 13:141:13:9353,1.391,2.121,3.692,581.177,-315.857,-322.51,88.605,4.263,70.928
 14:43:16.783,eb:33:2e:f9:57:b5, 2085-97-12 09:164:05:11088,0.93,1.233,5.134,542.847,-296.875,-416.199,94.142,8.069,67.736
 14:43:16.843,eb:33:2e:f9:57:b5, 2085-97-238 05:209:252:10173,0.63,0.139,5.332,459.717,-205.444,-446.899,98.877,12.629,65.665
 14:43:16.843,eb:33:2e:f9:57:b5, 2085-97-244 04:47:248:8460,0.693,-0.788,4.521,356.567,-95.337,-423.523,102.783,17.188,64.896
 14:43:16.843,eb:33:2e:f9:57:b5, 2085-97-67 06:138:249:7780,0.877,-0.962,3.892,262.634,-5.859,-373.596,105.892,21.121,65.402
 14:43:16.843,eb:33:2e:f9:57:b5, 2085-97-230 07:12:252:8315,1.077,-0.639,3.884,198.669,44.006,-326.294,108.545,24.384,66.665
 14:43:16.873,eb:33:2e:f9:57:b5, 2085-97-11 09:32:253:8865,1.128,-0.394,4.233,172.607,67.749,-289.612,110.891,27.059,68.302
 14:43:16.873,eb:33:2e:f9:57:b5, 2085-97-122 08:196:251:8659,1.004,-0.399,4.327,174.072,67.749,-262.939,113.34,29.377,70.093
 14:43:16.873,eb:33:2e:f9:57:b5, 2085-97-237 07:115:249:7968,0.968,-0.669,4.06,184.021,55.237,-236.023,115.807,31.388,71.785
 14:43:16.873,eb:33:2e:f9:57:b5, 2085-97-138 07:55:247:7204,0.881,-0.969,3.707,184.082,52.429,-207.947,118.427,33.146,73.416
 14:43:16.934,eb:33:2e:f9:57:b5, 2085-97-142 06:99:245:6428,0.775,-1.217,3.325,170.41,60.364,-174.011,120.899,34.53,74.993
 14:43:16.934,eb:33:2e:f9:57:b5, 2085-97-74 06:211:243:5949,0.782,-1.427,2.994,143.555,73.547,-132.69,123.278,35.486,76.575
 14:43:16.934,eb:33:2e:f9:57:b5, 2085-97-103 05:226:240:5325,0.67,-1.656,2.798,113.525,79.224,-85.999,125.195,35.947,77.992
 14:43:16.934,eb:33:2e:f9:57:b5, 2085-97-67 06:238:236:4623,0.814,-2.156,2.438,95.398,40.405,-40.405,126.755,36.107,79.047
 14:43:16.964,eb:33:2e:f9:57:b5, 2085-97-102 06:98:234:2799,0.842,-2.589,1.892,59.387,-1.709,8.301,127.551,36.123,79.244
 14:43:16.964,eb:33:2e:f9:57:b5, 2085-97-134 07:07:234:627,1.055,-2.722,0.781,-27.039,-18.799,64.819,127.513,35.898,78.898
 14:43:16.964,eb:33:2e:f9:57:b5, 2085-97-08 08:09:231:-2448,1.063,-2.88,-0.234,-139.282,-12.634,109.802,126.101,35.255,78.063
 14:43:16.966,eb:33:2e:f9:57:b5, 2085-97-130 10:177:231:-6186,1.479,-3.22,-2.285,-273.926,-19.104,147.278,123.508,34.239,77.091
 14:43:16.992,eb:33:2e:f9:57:b5, 2085-97-201 12:70:235:-4807,1.835,-2.746,-2.971,-423.889,-53.04,159.058,119.196,33.058,75.795
 14:43:16.992,eb:33:2e:f9:57:b5, 2085-97-68 16:27:237:-2678,2.083,-2.514,-1.694,-507.69,-129.761,146.24,113.626,32.064,74.07
 14:43:16.992,eb:33:2e:f9:57:b5, 2085-97-05 16:03:240:-1672,1.866,-2.153,-1.08,-559.082,-212.219,120.361,107.078,31.371,71.658
 14:43:16.992,eb:33:2e:f9:57:b5, 2085-97-147 13:153:239:437,1.547,-1.977,-0.374,-601.379,-304.321,97.9,99.805,30.888,68.445
 14:43:17.023,eb:33:2e:f9:57:b5, 2085-97-196 11:190:238:3136,1.486,-2.142,0.838,-639.587,-385.742,103.271,91.719,30.168,64.402
 14:43:17.023,eb:33:2e:f9:57:b5, 2085-97-13 12:125:241:6552,1.452,-2.024,2.332,-687.5,-423.096,135.742,83.15,28.702,59.886
 14:43:17.023,eb:33:2e:f9:57:b5, 2085-97-195 09:122:243:10407,1.079,-1.637,4.152,-729.797,-423.767,173.157,74.279,26.224,55.69
 14:43:17.023,eb:33:2e:f9:57:b5, 2085-97-27 08:33:243:11554,1.012,-1.598,5.552,-736.816,-401.428,205.933,65.715,22.95,52.245
 14:43:17.084,eb:33:2e:f9:57:b5, 2085-97-34 08:183:244:11142,1.084,-1.521,5.52,-742.004,-350.891,242.859,57.574,19.094,49.966
 14:43:17.084,eb:33:2e:f9:57:b5, 2085-97-70 10:183:247:11628,1.507,-1.258,5.497,-748.779,-293.274,268.738,49.872,15.106,48.911
 14:43:17.084,eb:33:2e:f9:57:b5, 2085-97-220 12:234:251:11497,1.691,-0.783,5.757,-730.652,-238.098,263.977,42.358,11.31,48.95
 14:43:17.084,eb:33:2e:f9:57:b5, 2085-97-11 14:193:255:10253,1.728,-0.243,5.372,-687.988,-226.685,224.365,35.321,8.009,49.427
 14:43:17.113,eb:33:2e:f9:57:b5, 2085-97-99 13:110:01:8608,1.603,0.099,4.562,-655.762,-250.977,169.434,28.548,4.9,49.872
 14:43:17.113,eb:33:2e:f9:57:b5, 2085-97-105 11:25:02:7956,1.209,0.213,3.988,-657.288,-275.574,119.08,22.006,1.906,50.004
 14:43:17.113,eb:33:2e:f9:57:b5, 2085-97-209 07:95:03:8460,0.688,0.322,3.927,-680.176,-282.532,84.229,15.189,-1.137,50.114
 14:43:17.113,eb:33:2e:f9:57:b5, 2085-97-245 02:102:06:9555,0.086,0.574,4.398,-711.06,-263.245,70.74,8.185,-3.972,50.284
 14:43:17.174,eb:33:2e:f9:57:b5, 2085-97-09 255:73:11:10216,-0.179,1.081,4.899,-734.863,-212.585,78.979,0.72,-6.449,50.922
 14:43:17.174,eb:33:2e:f9:57:b5, 2085-97-47 255:186:17:10025,0,1.794,4.919,-741.882,-147.522,95.703,-6.888,-8.13,51.883
 14:43:17.174,eb:33:2e:f9:57:b5, 2085-97-155 00:22:26:10908,0.098,2.685,5.042,-736.145,-120.544,105.713,-14.683,-9.229,53.212
 14:43:17.174,eb:33:2e:f9:57:b5, 2085-97-185 00:181:38:12471,0.118,3.986,5.681,-705.688,-147.4,109.314,-22.269,-10.096,54.662
 14:43:17.174,eb:33:2e:f9:57:b5, 2085-97-43 01:155:53:14041,0.039,5.772,6.519,-624.207,-197.815,101.929,-29.487,-11.217,56.508
 14:43:17.233,eb:33:2e:f9:57:b5, 2085-113-58 00:35:221:5130,-0.214,7.637,6.923,-486.572,-213.074,82.031,-35.563,-12.458,58.469
 14:43:17.233,eb:33:2e:f9:57:b5, 2085-97-92 252:196:73:12811,-0.772,8.537,6.694,-398.254,-202.271,67.139,-38.018,-13.052,59.436
 14:43:17.233,eb:33:2e:f9:57:b5, 2085-97-174 245:208:75:9698,-1.885,9.524,5.578,-194.58,-197.021,32.043,-41.473,-14.244,61.183
 14:43:17.233,eb:33:2e:f9:57:b5, 2085-97-165 235:157:67:8054,-2.996,9.084,4.121,-10.254,-273.132,2.319,-42.957,-15.837,62.941
 14:43:17.239,eb:33:2e:f9:57:b5, 2085-97-240 227:43:59:9293,-3.871,7.954,4.204,115.295,-304.382,-9.827,-43.099,-18.1,65.182
 14:43:17.239,eb:33:2e:f9:57:b5, 2085-97-69 225:199:45:9486,-1.914,6.569,4.761,173.828,-174.316,3.113,-42.303,-19.902,66.945
 14:43:17.239,eb:33:2e:f9:57:b5, 2085-97-129 237:150:63:26836,0.786,6.244,5.381,332.947,-96.375,-84.412,-40.441,-20.473,67.538
 14:43:17.239,eb:33:2e:f9:57:b5, 2085-97-230 03:225:46:13393,-0.072,12.976,-3.861,826.172,352.051,-332.275,-31.514,-19.248,63.726
 14:43:17.322,eb:33:2e:f9:57:b5, 2085-97-195 15:186:17:29028,2.348,7.578,12.994,759.46,719.543,-327.454,-21.149,-16.046,57.629
 14:43:17.322,eb:33:2e:f9:57:b5, 2085-97-254 21:164:249:2556,-0.877,-1.819,7.022,389.099,652.588,-8.667,-14.095,-9.976,53.207
 14:43:17.322,eb:33:2e:f9:57:b5, 2085-97-81 233:63:23:-2527,-1.094,0.6,-0.732,230.408,375.732,61.951,-11.129,-4.818,52.723
 14:43:17.322,eb:33:2e:f9:57:b5, 2085-97-126 243:252:03:-466,-1.035,-1.022,-1.155,211.487,194.275,-82.947,-8.866,-2.236,51.833
 14:43:17.326,eb:33:2e:f9:57:b5, 2085-97-250 255:152:02:863,0.27,1.977,-0.131,81.787,149.353,58.716,-7.372,-0.643,51.735
 14:43:17.326,eb:33:2e:f9:57:b5, 2085-97-241 09:67:08:4910,-0.458,0.068,1.048,78.308,94.482,8.423,-6.493,0.472,51.482
 14:43:17.326,eb:33:2e:f9:57:b5, 2085-97-76 234:45:250:-1957,-1.307,-0.231,0.773,71.228,197.144,-30.273,-5.768,2.258,51.185
 14:43:17.326,eb:33:2e:f9:57:b5, 2085-97-39 00:69:00:3906,0.367,-0.313,0.528,58.899,-5.798,45.471,-5.114,2.895,51.218
 14:43:17.354,eb:33:2e:f9:57:b5, 2085-97-153 06:232:01:4928,0.896,-0.182,1.796,59.265,47.913,30.701,-4.455,3.208,51.553
 14:43:17.354,eb:33:2e:f9:57:b5, 2085-97-66 02:196:255:5387,-0.028,0.736,3.189,74.097,144.043,-21.423,-3.796,4.12,51.454
 14:43:17.354,eb:33:2e:f9:57:b5, 2085-97-39 255:01:254:5113,-0.241,-0.518,1.868,105.408,142.7,-0.732,-2.873,5.762,51.191
 14:43:17.354,eb:33:2e:f9:57:b5, 2085-97-123 254:27:250:8110,-0.207,-0.294,3.468,203.491,38.269,1.16,-1.296,6.476,51.103
 14:43:17.413,eb:33:2e:f9:57:b5, 2085-97-208 252:14:247:8849,-0.318,-0.962,4.069,299.072,38.696,37.17,1.307,6.916,51.29
 14:43:17.413,eb:33:2e:f9:57:b5, 2085-97-99 255:87:241:9097,0.444,-1.776,4.868,422.546,39.673,64.087,4.966,7.224,51.757
 14:43:17.413,eb:33:2e:f9:57:b5, 2085-97-231 04:100:244:7433,0.699,-1.555,3.855,528.442,15.381,69.946,9.932,7.482,52.515
 14:43:17.413,eb:33:2e:f9:57:b5, 2085-97-77 06:06:241:9232,0.373,-1.662,4.001,613.281,-20.142,15.381,15.699,7.289,52.839
 14:43:17.443,eb:33:2e:f9:57:b5, 2085-97-178 01:198:237:11978,0.238,-1.624,5.326,673.95,91.187,-36.56,22.264,7.57,52.795
 14:43:17.443,eb:33:2e:f9:57:b5, 2085-97-201 03:12:243:8215,0.827,-2.393,5.009,694.458,248.901,-7.874,29.152,9.399,53.333
 14:43:17.443,eb:33:2e:f9:57:b5, 2085-97-200 01:158:249:9686,-0.257,-1.33,4.267,721.436,177.979,-32.959,36.409,11.36,54.322
 14:43:17.443,eb:33:2e:f9:57:b5, 2085-97-195 252:39:03:8317,-0.46,-0.047,4.51,814.27,115.54,-30.334,44.171,12.733,54.943
 14:43:17.474,eb:33:2e:f9:57:b5, 2085-97-178 250:240:255:4136,-1.661,0.557,3.247,888.245,15.747,-29.663,52.855,13.343,55.19
 14:43:17.474,eb:33:2e:f9:57:b5, 2085-97-78 237:121:12:-2535,-2.824,-0.43,2.054,825.989,54.321,41.809,61.447,13.376,55.228
 14:43:17.474,eb:33:2e:f9:57:b5, 2085-97-56 232:163:250:1077,-2.52,1.273,-1.625,510.864,54.932,144.958,68.412,12.711,55.986
 14:43:17.474,eb:33:2e:f9:57:b5, 2085-97-238 245:203:253:4534,0.128,-1.1,1.396,197.998,317.871,318.665,72.032,11.091,58.574
 14:43:17.594,eb:33:2e:f9:57:b5, 2085-97-34 10:58:13:8037,1.958,0.77,3.248,35.645,544.739,381.287,73.553,9.047,64.045
 14:43:17.595,eb:33:2e:f9:57:b5, 2085-97-13 19:50:25:7155,2.689,2.495,3.886,77.698,535.217,325.928,74.432,7.295,70.461
 14:43:17.595,eb:33:2e:f9:57:b5, 2085-97-243 20:57:26:3780,2.317,3.472,2.775,274.17,253.967,184.692,76.454,5.955,74.976
 14:43:17.595,eb:33:2e:f9:57:b5, 2085-97-233 15:49:18:4081,1.658,2.75,1.5,438.477,-69.397,26.978,80.206,5.18,75.855
 14:43:17.598,eb:33:2e:f9:57:b5, 2085-97-146 10:175:14:8199,0.98,1.984,2.957,511.78,-243.835,-103.088,85.018,5.383,74.031
 14:43:17.598,eb:33:2e:f9:57:b5, 2085-97-153 05:76:11:11793,0.506,1.668,4.981,528.32,-271.973,-194.153,90.165,6.779,71.246
 14:43:17.598,eb:33:2e:f9:57:b5, 2085-97-74 03:87:03:12250,0.359,0.929,6.154,506.958,-190.186,-246.399,95.208,9.064,68.961
 14:43:17.598,eb:33:2e:f9:57:b5, 2085-97-176 02:234:252:10483,0.398,-0.058,5.577,452.637,-86.548,-253.479,99.893,11.722,67.917
 14:43:17.598,eb:33:2e:f9:57:b5, 2085-97-69 04:117:251:8414,0.694,-0.529,4.613,376.465,-7.263,-235.779,103.997,14.172,68.005
 14:43:17.598,eb:33:2e:f9:57:b5, 2085-97-215 06:135:251:6880,1.017,-0.568,3.673,288.94,23.743,-215.515,107.419,16.309,68.708
 14:43:17.598,eb:33:2e:f9:57:b5, 2085-97-29 09:71:252:6246,1.208,-0.517,3.159,208.679,21.301,-201.477,110.006,18.182,69.598
 14:43:17.598,eb:33:2e:f9:57:b5, 2085-97-216 09:71:252:6085,1.213,-0.442,3.002,153.992,-4.028,-197.449,111.973,20.023,70.378
 14:43:17.653,eb:33:2e:f9:57:b5, 2085-97-70 09:27:251:5856,1.096,-0.531,2.932,123.779,-34.973,-198.669,113.434,21.923,70.928
 14:43:17.653,eb:33:2e:f9:57:b5, 2085-97-41 08:212:249:5450,0.965,-0.692,2.767,101.44,-54.565,-194.824,114.659,23.923,71.279
 14:43:17.653,eb:33:2e:f9:57:b5, 2085-97-75 07:79:248:5180,0.679,-0.854,2.578,70.923,-55.054,-180.42,115.538,25.845,71.526
 14:43:17.653,eb:33:2e:f9:57:b5, 2085-97-55 03:85:243:4281,0.27,-1.213,2.324,33.936,-59.57,-154.968,116.125,27.592,71.746
 14:43:17.712,eb:33:2e:f9:57:b5, 2085-97-200 01:136:237:3615,0.171,-1.951,1.925,0.427,-83.984,-113.586,116.158,29.097,71.609
 14:43:17.712,eb:33:2e:f9:57:b5, 2085-97-92 01:244:231:2259,0.193,-2.667,1.472,-39.551,-92.59,-63.843,115.724,30.245,71.115
 14:43:17.712,eb:33:2e:f9:57:b5, 2085-97-209 01:221:228:368,0.149,-3.254,0.652,-92.102,-87.097,-15.564,114.637,30.943,70.307
 14:43:17.713,eb:33:2e:f9:57:b5, 2085-97-211 255:171:228:-3044,-0.41,-3.407,-0.423,-183.289,-52.673,36.194,112.901,31.091,69.538
 14:43:17.715,eb:33:2e:f9:57:b5, 2085-97-90 00:119:230:-6606,0.599,-3.4,-2.78,-334.717,-35.034,103.821,109.918,30.536,68.813
 14:43:17.715,eb:33:2e:f9:57:b5, 2085-97-06 07:176:233:-3573,1.028,-2.913,-2.79,-517.212,-39.612,153.198,105.161,29.339,67.945
 14:43:17.715,eb:33:2e:f9:57:b5, 2085-97-19 09:84:235:-868,1.173,-2.719,-0.915,-610.535,-80.627,160.217,98.937,27.867,66.923
 14:43:17.715,eb:33:2e:f9:57:b5, 2085-97-36 10:142:238:201,1.418,-2.408,-0.162,-643.372,-151.001,150.085,92.071,26.406,65.457
 14:43:17.805,eb:33:2e:f9:57:b5, 2085-97-08 13:188:241:1990,1.777,-1.994,0.447,-662.659,-244.812,135.742,84.688,24.862,63.292
 14:43:17.813,eb:33:2e:f9:57:b5, 2085-97-121 13:185:245:4354,1.501,-1.544,1.57,-683.289,-303.528,127.014,77.042,23.082,60.546
 14:43:17.813,eb:33:2e:f9:57:b5, 2085-97-152 10:148:248:7632,1.203,-1.077,2.868,-700.623,-363.281,123.718,69.126,20.814,57.568
 14:43:17.813,eb:33:2e:f9:57:b5, 2085-97-64 09:177:249:10106,1.136,-0.845,4.48,-682.434,-398.621,118.103,61.381,18.04,54.432
 14:43:17.814,eb:33:2e:f9:57:b5, 2085-97-169 08:40:250:9986,0.972,-0.74,5.027,-663.208,-374.817,118.042,54.036,14.875,51.751
 14:43:17.814,eb:33:2e:f9:57:b5, 2085-97-16 07:202:250:9649,0.826,-0.722,4.704,-667.603,-323.975,121.338,47.093,11.706,49.856
 14:43:17.814,eb:33:2e:f9:57:b5, 2085-97-55 06:57:252:10097,0.729,-0.567,4.835,-684.875,-256.104,126.709,40.133,8.707,48.812
 14:43:17.815,eb:33:2e:f9:57:b5, 2085-113-58 00:12:214:-2190,0.713,-0.367,4.88,-690.491,-199.158,127.686,33.217,6.158,48.477
 14:43:17.894,eb:33:2e:f9:57:b5, 2085-97-245 05:36:255:9068,0.758,-0.249,4.689,-688.904,-182.19,126.099,29.691,4.977,48.543
 14:43:17.894,eb:33:2e:f9:57:b5, 2085-97-230 05:184:01:7856,0.66,0.038,4.116,-684.082,-180.237,118.774,22.824,2.862,48.823
 14:43:17.894,eb:33:2e:f9:57:b5, 2085-97-107 04:17:05:7507,0.445,0.429,3.67,-682.068,-215.515,110.962,15.886,0.566,49.296
 14:43:17.894,eb:33:2e:f9:57:b5, 2085-97-134 02:217:07:7907,0.148,0.835,3.76,-678.284,-247.864,107.91,9.025,-1.945,49.839
 14:43:17.896,eb:33:2e:f9:57:b5, 2085-97-23 00:111:09:8209,-0.058,1.075,3.932,-660.217,-263.123,110.901,2.12,-4.647,50.746
 14:43:17.896,eb:33:2e:f9:57:b5, 2085-97-105 255:131:12:8778,-0.068,1.342,4.148,-630.31,-245.85,120.728,-4.543,-7.163,51.971
 14:43:17.896,eb:33:2e:f9:57:b5, 2085-97-174 255:185:17:9424,-0.053,1.846,4.431,-592.346,-200.256,126.648,-11.074,-9.201,53.602
 14:43:17.896,eb:33:2e:f9:57:b5, 2085-97-220 254:255:24:10241,-0.273,2.653,4.792,-544.434,-166.077,123.474,-17.161,-10.596,55.272
 14:43:17.953,eb:33:2e:f9:57:b5, 2085-97-177 252:111:32:10769,-0.573,3.598,5.174,-500.977,-147.522,119.141,-22.885,-11.646,57.036
 14:43:17.953,eb:33:2e:f9:57:b5, 2085-97-240 250:48:39:10428,-0.584,4.544,5.203,-488.342,-114.624,125.427,-28.273,-12.277,58.716
 14:43:17.953,eb:33:2e:f9:57:b5, 2085-97-37 252:205:44:10094,-0.4,5.222,4.995,-495.728,-75.562,133.85,-33.723,-12.393,60.397
 14:43:17.953,eb:33:2e:f9:57:b5, 2085-97-99 253:55:52:9235,-0.201,6.05,4.808,-478.149,-40.771,131.531,-39.029,-12.019,61.787
 14:43:17.956,eb:33:2e:f9:57:b5, 2085-97-27 255:106:60:6435,-0.071,7.022,3.981,-403.259,-20.325,105.286,-43.781,-11.442,62.908
 14:43:17.956,eb:33:2e:f9:57:b5, 2085-97-65 255:126:65:3524,-0.412,8.033,2.193,-236.267,-76.538,43.152,-47.181,-11.162,63.671
 14:43:17.956,eb:33:2e:f9:57:b5, 2085-97-73 249:107:58:4806,-1.204,7.879,1.865,-52.612,-212.952,-31.677,-48.823,-12.189,64.891
 14:43:17.956,eb:33:2e:f9:57:b5, 2085-97-194 243:138:48:6082,-1.777,6.682,2.76,58.105,-242.371,-81.787,-49.103,-14.205,66.352
 14:43:18.042,eb:33:2e:f9:57:b5, 2085-97-25 241:174:39:6678,-1.837,5.443,3.11,78.857,-143.799,-96.985,-48.647,-16.199,67.302
 14:43:18.042,eb:33:2e:f9:57:b5, 2085-97-116 242:99:33:6795,-1.475,4.587,3.371,100.159,-13,-96.863,-47.73,-17.38,67.126
 14:43:18.042,eb:33:2e:f9:57:b5, 2085-97-42 246:247:21:4960,-1.059,3.554,2.974,155.823,57.19,-98.083,-46.022,-17.913,66.132
 14:43:18.042,eb:33:2e:f9:57:b5, 2085-97-81 247:122:07:1942,0.111,1.848,1.713,209.412,61.401,-84.229,-43.709,-18.133,64.88
 14:43:18.045,eb:33:2e:f9:57:b5, 2085-97-150 235:137:248:18574,4.22,0.939,1.61,418.884,-112.061,-178.711,-40.776,-18.572,64.056
 14:43:18.045,eb:33:2e:f9:57:b5, 2085-97-116 30:25:29:18946,2.188,1.076,2.304,886.963,297.729,-304.199,-31.168,-19.083,60.606
 14:43:18.045,eb:33:2e:f9:57:b5, 2085-97-80 21:206:229:16271,4.833,1.181,14.29,886.047,911.865,-210.388,-19.622,-13.936,54.888
 14:43:18.045,eb:33:2e:f9:57:b5, 2085-97-210 08:194:55:-5479,-9.466,-2.903,2.327,501.343,667.664,133.362,-11.887,-6.916,52.125
 14:43:18.074,eb:33:2e:f9:57:b5, 2085-97-93 198:165:222:-11988,2.333,5.636,-4.388,49.255,291.443,-53.711,-9.52,-2.104,51.004
 14:43:18.074,eb:33:2e:f9:57:b5, 2085-97-83 15:171:18:5835,-0.558,-1.192,2.481,136.353,-64.026,43.335,-8.624,-2.505,51.608
 14:43:18.074,eb:33:2e:f9:57:b5, 2085-97-77 19:146:00:5288,-0.075,0.276,0.579,85.022,44.373,32.349,-7.465,-1.708,51.432
 14:43:18.074,eb:33:2e:f9:57:b5, 2085-97-115 247:104:02:1095,-1.303,0.409,1.404,82.825,168.518,-18.738,-6.542,-0.39,51.021
 14:43:18.133,eb:33:2e:f9:57:b5, 2085-97-165 245:102:253:620,-0.455,-0.586,-0.155,80.261,78.247,-1.587,-5.696,0.917,50.817
 14:43:18.133,eb:33:2e:f9:57:b5, 2085-97-91 02:13:255:4079,0.544,-0.126,1.109,70.19,17.09,28.687,-4.944,1.247,50.872
 14:43:18.133,eb:33:2e:f9:57:b5, 2085-97-164 08:207:04:5880,0.631,0.181,2.267,75.5,60.181,14.587,-4.131,1.637,51.081
 14:43:18.133,eb:33:2e:f9:57:b5, 2085-97-68 255:221:251:4561,0.029,0.227,3,87.585,152.893,-29.114,-3.356,2.763,50.762
 14:43:18.163,eb:33:2e:f9:57:b5, 2085-97-237 00:21:00:5743,-0.651,-0.36,2.304,161.865,68.481,-2.625,-2.027,3.955,50.565
 14:43:18.163,eb:33:2e:f9:57:b5, 2085-97-30 251:217:248:5971,-0.111,-0.553,2.799,220.825,40.222,5.615,-0.016,4.378,50.438
 14:43:18.163,eb:33:2e:f9:57:b5, 2085-97-230 251:04:249:7746,-0.39,-0.769,3.616,302.856,19.897,34.058,2.659,4.686,50.669
 14:43:18.163,eb:33:2e:f9:57:b5, 2085-97-38 254:156:242:7310,-0.024,-1.494,4.226,388.977,15.869,57.129,6.18,4.73,51.021
 14:43:18.193,eb:33:2e:f9:57:b5, 2085-97-210 02:223:246:5318,0.258,-1.331,2.799,470.703,-2.686,73.242,10.635,4.801,51.762
 14:43:18.193,eb:33:2e:f9:57:b5, 2085-97-100 01:240:244:7258,-0.125,-1.065,2.923,529.968,-53.284,36.133,15.672,4.367,52.158
 14:43:18.193,eb:33:2e:f9:57:b5, 2085-97-243 252:10:244:9695,-0.245,-1.263,4.278,587.036,10.01,0.549,21.363,4.032,52.218
 14:43:18.193,eb:33:2e:f9:57:b5, 2085-97-83 02:120:248:6414,0.768,-1.504,4.005,608.643,120.3,13.916,27.378,4.746,52.526
 14:43:18.282,eb:33:2e:f9:57:b5, 2085-97-212 03:01:244:7087,-0.103,-0.792,3.049,616.516,83.923,-20.752,33.602,5.669,53.026
 14:43:18.282,eb:33:2e:f9:57:b5, 2085-97-161 253:205:248:8661,-0.135,-1.427,3.786,623.108,107.91,-27.832,39.776,6.592,53.278
 14:43:18.282,eb:33:2e:f9:57:b5, 2085-97-181 255:221:01:6334,0.221,-0.338,3.989,692.2,109.314,-4.272,46.423,7.548,53.921
 14:43:18.282,eb:33:2e:f9:57:b5, 2085-97-21 00:170:04:1528,-0.458,0.621,1.854,738.953,31.616,-9.766,53.696,8.08,54.355
 14:43:18.285,eb:33:2e:f9:57:b5, 2085-97-160 243:242:20:-3274,-2.204,1.875,-0.47,688.843,-75.989,-18.066,60.897,8.091,54.058
 14:43:18.285,eb:33:2e:f9:57:b5, 2085-97-59 236:173:254:3170,-2.199,1.274,-0.111,402.832,-75.623,14.16,66.171,7.773,53.053
 14:43:18.285,eb:33:2e:f9:57:b5, 2085-97-153 244:51:253:3935,-0.466,-0.647,1.78,169.25,188.354,138.855,68.978,7.262,53.948
 14:43:18.285,eb:33:2e:f9:57:b5, 2085-97-23 03:99:08:5136,1.037,0.306,2.19,24.231,394.165,206.299,69.944,6.707,57.557
 14:43:18.373,eb:33:2e:f9:57:b5, 2085-97-189 11:10:17:4983,1.746,1.688,2.609,15.747,417.603,184.326,70.269,6.378,62.243
 14:43:18.373,eb:33:2e:f9:57:b5, 2085-97-50 15:220:18:3669,1.893,2.351,2.163,118.225,254.211,95.154,71.071,6.268,65.912
 14:43:18.373,eb:33:2e:f9:57:b5, 2085-97-115 14:29:15:2754,1.69,2.161,1.409,246.704,24.231,-22.217,73.059,6.4,67.231
 14:43:18.373,eb:33:2e:f9:57:b5, 2085-97-86 12:98:11:4918,1.376,1.642,1.74,332.764,-158.081,-133.301,75.987,6.982,66.187
 14:43:18.375,eb:33:2e:f9:57:b5, 2085-97-181 09:13:08:7641,1.063,1.218,3.094,380.31,-237.732,-223.328,79.475,8.284,63.715
