Time,Device name,Chip Time(),Acceleration X(g),Acceleration Y(g),Acceleration Z(g),Angular velocity X(°/s),Angular velocity Y(°/s),Angular velocity Z(°/s),Angle X(°),Angle Y(°),Angle Z(°)
 14:37:01.674,eb:33:2e:f9:57:b5, 2085-97-52 00:170:255:2028,0.026,-0.042,0.989,0,-0.916,0.061,-1.104,2.851,35.14
 14:37:01.674,eb:33:2e:f9:57:b5, 2085-97-55 00:171:255:2029,0.026,-0.042,0.99,-0.061,-0.916,0.061,-1.104,2.851,35.14
 14:37:01.674,eb:33:2e:f9:57:b5, 2085-97-54 00:172:255:2027,0.026,-0.042,0.99,-0.183,-0.916,0,-1.104,2.851,35.14
 14:37:01.674,eb:33:2e:f9:57:b5, 2085-97-55 00:173:255:2029,0.026,-0.042,0.99,-0.305,-0.793,-0.061,-1.104,2.851,35.14
 14:37:01.674,eb:33:2e:f9:57:b5, 2085-97-53 00:172:255:2028,0.026,-0.042,0.99,-0.244,-0.732,-0.061,-1.104,2.845,35.14
 14:37:01.677,eb:33:2e:f9:57:b5, 2085-113-58 00:235:216:2505,0.027,-0.041,0.992,-0.366,-0.671,-0.122,-1.104,2.845,35.14
 14:37:01.677,eb:33:2e:f9:57:b5, 2085-97-56 00:169:255:2035,0.028,-0.041,0.993,-0.366,-0.549,-0.122,-1.104,2.845,35.14
 14:37:01.677,eb:33:2e:f9:57:b5, 2085-97-56 00:170:255:2035,0.026,-0.042,0.994,-0.305,-0.366,-0.061,-1.104,2.845,35.14
 14:37:01.677,eb:33:2e:f9:57:b5, 2085-97-53 00:169:255:2031,0.026,-0.042,0.993,-0.305,-0.244,-0.122,-1.104,2.845,35.14
 14:37:01.704,eb:33:2e:f9:57:b5, 2085-97-55 00:171:255:2028,0.026,-0.042,0.991,-0.305,-0.183,-0.122,-1.11,2.845,35.14
 14:37:01.704,eb:33:2e:f9:57:b5, 2085-97-56 00:171:255:2031,0.028,-0.042,0.991,-0.305,-0.183,-0.061,-1.11,2.845,35.14
 14:37:01.704,eb:33:2e:f9:57:b5, 2085-97-56 00:169:255:2035,0.027,-0.042,0.993,-0.305,0,-0.122,-1.11,2.84,35.14
 14:37:01.704,eb:33:2e:f9:57:b5, 2085-97-56 00:169:255:2038,0.027,-0.042,0.994,-0.305,0.122,-0.183,-1.11,2.84,35.14
 14:37:01.764,eb:33:2e:f9:57:b5, 2085-97-56 00:167:255:2036,0.026,-0.043,0.995,-0.122,0.244,-0.122,-1.11,2.84,35.14
 14:37:01.764,eb:33:2e:f9:57:b5, 2085-97-53 00:166:255:2036,0.026,-0.043,0.995,0,0.305,-0.061,-1.11,2.84,35.14
 14:37:01.764,eb:33:2e:f9:57:b5, 2085-97-52 00:172:255:2029,0.026,-0.042,0.993,0.122,0.305,-0.122,-1.11,2.84,35.14
 14:37:01.764,eb:33:2e:f9:57:b5, 2085-97-52 00:168:255:2028,0.026,-0.042,0.99,0,0.244,-0.061,-1.11,2.84,35.14
 14:37:01.794,eb:33:2e:f9:57:b5, 2085-97-51 00:170:255:2026,0.025,-0.043,0.989,0,0.183,-0.061,-1.11,2.834,35.14
 14:37:01.794,eb:33:2e:f9:57:b5, 2085-97-50 00:166:255:2028,0.025,-0.042,0.988,0,0.061,-0.061,-1.11,2.834,35.14
 14:37:01.794,eb:33:2e:f9:57:b5, 2085-97-54 00:170:255:2031,0.027,-0.042,0.989,0.061,-0.061,0,-1.11,2.834,35.14
 14:37:01.794,eb:33:2e:f9:57:b5, 2085-97-55 00:169:255:2035,0.027,-0.043,0.993,0,0,0,-1.11,2.834,35.14
 14:37:01.854,eb:33:2e:f9:57:b5, 2085-97-57 00:171:255:2034,0.027,-0.042,0.994,0,0.061,0,-1.11,2.834,35.14
 14:37:01.854,eb:33:2e:f9:57:b5, 2085-97-53 00:171:255:2030,0.026,-0.042,0.992,0,0.305,-0.061,-1.11,2.834,35.14
 14:37:01.854,eb:33:2e:f9:57:b5, 2085-97-55 00:170:255:2030,0.027,-0.042,0.992,0,0.305,-0.061,-1.115,2.829,35.14
 14:37:01.854,eb:33:2e:f9:57:b5, 2085-97-58 00:172:255:2030,0.027,-0.041,0.992,0,0.427,-0.122,-1.115,2.829,35.14
 14:37:01.914,eb:33:2e:f9:57:b5, 2085-97-55 00:173:255:2025,0.026,-0.041,0.99,-0.061,0.549,-0.183,-1.115,2.829,35.14
 14:37:01.914,eb:33:2e:f9:57:b5, 2085-97-53 00:172:255:2025,0.025,-0.041,0.989,-0.244,0.61,-0.244,-1.115,2.829,35.14
 14:37:01.914,eb:33:2e:f9:57:b5, 2085-97-56 00:171:255:2028,0.024,-0.042,0.989,-0.427,0.671,-0.366,-1.115,2.829,35.14
 14:37:01.914,eb:33:2e:f9:57:b5, 2085-97-51 00:171:255:2025,0.027,-0.045,0.992,-0.305,0.732,-0.122,-1.115,2.829,35.14
 14:37:01.916,eb:33:2e:f9:57:b5, 2085-97-51 00:165:255:2032,0.024,-0.042,0.99,-0.488,0.793,-0.366,-1.115,2.823,35.134
 14:37:01.916,eb:33:2e:f9:57:b5, 2085-97-54 00:170:255:2030,0.025,-0.043,0.991,-0.488,0.793,-0.366,-1.115,2.823,35.134
 14:37:01.916,eb:33:2e:f9:57:b5, 2085-97-49 00:168:255:2027,0.024,-0.043,0.99,-0.61,0.732,-0.488,-1.115,2.823,35.134
 14:37:01.916,eb:33:2e:f9:57:b5, 2085-97-50 00:167:255:2032,0.026,-0.043,0.991,-0.549,0.61,-0.427,-1.115,2.823,35.134
 14:37:01.975,eb:33:2e:f9:57:b5, 2085-97-51 00:166:255:2036,0.024,-0.043,0.993,-0.427,0.61,-0.305,-1.115,2.823,35.134
 14:37:01.975,eb:33:2e:f9:57:b5, 2085-97-51 00:167:255:2033,0.024,-0.043,0.992,-0.305,0.549,-0.366,-1.115,2.823,35.134
 14:37:01.975,eb:33:2e:f9:57:b5, 2085-97-52 00:169:255:2033,0.024,-0.044,0.993,-0.366,0.61,-0.366,-1.115,2.818,35.134
 14:37:01.975,eb:33:2e:f9:57:b5, 2085-97-51 00:169:255:2031,0.024,-0.042,0.992,-0.305,0.61,-0.305,-1.115,2.818,35.134
 14:37:02.004,eb:33:2e:f9:57:b5, 2085-97-51 00:168:255:2032,0.025,-0.042,0.991,-0.305,0.549,-0.366,-1.121,2.818,35.134
 14:37:02.004,eb:33:2e:f9:57:b5, 2085-97-52 00:168:255:2032,0.025,-0.043,0.992,-0.305,0.671,-0.427,-1.121,2.818,35.134
 14:37:02.004,eb:33:2e:f9:57:b5, 2085-97-50 00:170:255:2028,0.024,-0.043,0.991,-0.244,0.732,-0.305,-1.121,2.818,35.134
 14:37:02.004,eb:33:2e:f9:57:b5, 2085-97-49 00:167:255:2030,0.024,-0.042,0.99,-0.366,0.793,-0.427,-1.121,2.818,35.134
 14:37:02.094,eb:33:2e:f9:57:b5, 2085-97-50 00:169:255:2035,0.024,-0.043,0.992,-0.366,0.916,-0.488,-1.121,2.818,35.134
 14:37:02.094,eb:33:2e:f9:57:b5, 2085-97-50 00:168:255:2037,0.024,-0.042,0.994,-0.366,1.038,-0.488,-1.121,2.818,35.134
 14:37:02.094,eb:33:2e:f9:57:b5, 2085-97-50 00:168:255:2035,0.023,-0.044,0.994,-0.183,1.16,-0.366,-1.121,2.812,35.134
 14:37:02.094,eb:33:2e:f9:57:b5, 2085-97-47 00:166:255:2033,0.023,-0.044,0.994,-0.122,1.221,-0.366,-1.121,2.812,35.134
 14:37:02.096,eb:33:2e:f9:57:b5, 2085-97-51 00:170:255:2028,0.024,-0.043,0.991,-0.061,1.221,-0.366,-1.121,2.812,35.134
 14:37:02.096,eb:33:2e:f9:57:b5, 2085-97-47 00:170:255:2027,0.022,-0.042,0.991,-0.305,1.343,-0.427,-1.121,2.812,35.134
 14:37:02.096,eb:33:2e:f9:57:b5, 2085-97-41 00:166:255:2027,0.022,-0.043,0.99,-0.366,1.343,-0.427,-1.121,2.812,35.134
 14:37:02.096,eb:33:2e:f9:57:b5, 2085-97-45 00:170:255:2026,0.021,-0.042,0.989,-0.366,1.282,-0.305,-1.121,2.812,35.134
 14:37:02.124,eb:33:2e:f9:57:b5, 2085-97-46 00:169:255:2026,0.022,-0.043,0.989,-0.427,1.16,-0.366,-1.121,2.812,35.134
 14:37:02.124,eb:33:2e:f9:57:b5, 2085-97-45 00:169:255:2025,0.022,-0.042,0.988,-0.488,1.099,-0.366,-1.121,2.812,35.134
 14:37:02.124,eb:33:2e:f9:57:b5, 2085-97-45 00:168:255:2026,0.021,-0.043,0.989,-0.61,1.099,-0.488,-1.121,2.812,35.134
 14:37:02.124,eb:33:2e:f9:57:b5, 2085-97-40 00:164:255:2029,0.021,-0.044,0.99,-0.732,1.038,-0.427,-1.121,2.812,35.134
 14:37:02.187,eb:33:2e:f9:57:b5, 2085-97-42 00:166:255:2031,0.019,-0.044,0.992,-0.61,0.916,-0.305,-1.121,2.812,35.134
 14:37:02.187,eb:33:2e:f9:57:b5, 2085-97-39 00:165:255:2028,0.019,-0.045,0.992,-0.549,0.671,-0.305,-1.121,2.812,35.134
 14:37:02.187,eb:33:2e:f9:57:b5, 2085-97-39 00:165:255:2022,0.019,-0.044,0.989,-0.549,0.366,-0.305,-1.121,2.812,35.134
 14:37:02.187,eb:33:2e:f9:57:b5, 2085-97-38 00:164:255:2021,0.019,-0.045,0.987,-0.488,0,-0.183,-1.121,2.812,35.134
 14:37:02.189,eb:33:2e:f9:57:b5, 2085-97-41 00:165:255:2029,0.021,-0.045,0.988,-0.61,-0.366,-0.244,-1.121,2.812,35.134
 14:37:02.189,eb:33:2e:f9:57:b5, 2085-97-45 00:164:255:2034,0.021,-0.045,0.992,-0.549,-0.488,-0.244,-1.121,2.812,35.134
 14:37:02.189,eb:33:2e:f9:57:b5, 2085-97-43 00:164:255:2037,0.021,-0.045,0.994,-0.549,-0.488,-0.183,-1.121,2.812,35.134
 14:37:02.189,eb:33:2e:f9:57:b5, 2085-97-45 00:163:255:2037,0.022,-0.046,0.996,-0.366,-0.488,-0.122,-1.121,2.812,35.134
 14:37:02.246,eb:33:2e:f9:57:b5, 2085-97-46 00:163:255:2038,0.022,-0.046,0.995,-0.183,-0.488,-0.061,-1.121,2.812,35.134
 14:37:02.246,eb:33:2e:f9:57:b5, 2085-97-44 00:161:255:2036,0.021,-0.046,0.994,-0.061,-0.488,-0.061,-1.121,2.812,35.134
 14:37:02.246,eb:33:2e:f9:57:b5, 2085-97-44 00:162:255:2032,0.021,-0.046,0.993,0,-0.61,-0.061,-1.121,2.812,35.134
 14:37:02.246,eb:33:2e:f9:57:b5, 2085-97-44 00:163:255:2032,0.022,-0.045,0.992,0.061,-0.671,-0.061,-1.121,2.812,35.134
 14:37:02.274,eb:33:2e:f9:57:b5, 2085-97-47 00:164:255:2033,0.023,-0.045,0.992,0.122,-0.732,0,-1.126,2.812,35.134
 14:37:02.274,eb:33:2e:f9:57:b5, 2085-97-47 00:165:255:2029,0.022,-0.044,0.991,0.122,-0.671,0,-1.126,2.812,35.134
 14:37:02.274,eb:33:2e:f9:57:b5, 2085-97-42 00:161:255:2024,0.021,-0.044,0.99,0.122,-0.671,0,-1.126,2.812,35.134
 14:37:02.274,eb:33:2e:f9:57:b5, 2085-97-46 00:167:255:2029,0.022,-0.044,0.989,0.061,-0.916,0,-1.126,2.812,35.134
 14:37:02.305,eb:33:2e:f9:57:b5, 2085-97-47 00:166:255:2028,0.023,-0.043,0.991,0,-0.854,0,-1.126,2.812,35.134
 14:37:02.305,eb:33:2e:f9:57:b5, 2085-97-47 00:166:255:2025,0.023,-0.044,0.989,-0.122,-0.793,0,-1.126,2.812,35.134
 14:37:02.305,eb:33:2e:f9:57:b5, 2085-113-58 00:190:216:2580,0.023,-0.043,0.99,-0.244,-0.793,0,-1.126,2.812,35.134
 14:37:02.305,eb:33:2e:f9:57:b5, 2085-97-50 00:165:255:2029,0.024,-0.044,0.99,-0.305,-0.732,-0.061,-1.126,2.812,35.134
 14:37:02.364,eb:33:2e:f9:57:b5, 2085-97-47 00:167:255:2030,0.022,-0.044,0.992,-0.427,-0.549,-0.122,-1.126,2.812,35.129
 14:37:02.364,eb:33:2e:f9:57:b5, 2085-97-46 00:166:255:2023,0.022,-0.044,0.989,-0.488,-0.549,-0.122,-1.126,2.812,35.129
 14:37:02.364,eb:33:2e:f9:57:b5, 2085-97-48 00:163:255:2026,0.022,-0.044,0.988,-0.549,-0.61,-0.122,-1.126,2.812,35.129
 14:37:02.364,eb:33:2e:f9:57:b5, 2085-97-45 00:164:255:2027,0.022,-0.045,0.99,-0.549,-0.732,-0.122,-1.126,2.812,35.129
 14:37:02.394,eb:33:2e:f9:57:b5, 2085-97-46 00:166:255:2031,0.023,-0.044,0.99,-0.61,-0.854,-0.061,-1.126,2.812,35.129
 14:37:02.394,eb:33:2e:f9:57:b5, 2085-97-47 00:162:255:2034,0.023,-0.045,0.992,-0.61,-0.916,-0.061,-1.126,2.812,35.129
 14:37:02.394,eb:33:2e:f9:57:b5, 2085-97-48 00:162:255:2033,0.025,-0.046,0.993,-0.549,-0.977,-0.061,-1.126,2.812,35.129
 14:37:02.394,eb:33:2e:f9:57:b5, 2085-97-52 00:164:255:2031,0.025,-0.045,0.991,-0.61,-1.038,0,-1.126,2.812,35.129
 14:37:02.423,eb:33:2e:f9:57:b5, 2085-97-51 00:163:255:2026,0.026,-0.044,0.99,-0.549,-0.916,-0.061,-1.132,2.812,35.129
 14:37:02.423,eb:33:2e:f9:57:b5, 2085-97-56 00:164:255:2028,0.026,-0.045,0.989,-0.671,-0.916,-0.061,-1.132,2.812,35.129
 14:37:02.423,eb:33:2e:f9:57:b5, 2085-97-55 00:164:255:2033,0.027,-0.044,0.991,-0.671,-0.61,-0.061,-1.132,2.812,35.129
 14:37:02.423,eb:33:2e:f9:57:b5, 2085-97-53 00:162:255:2029,0.025,-0.045,0.992,-0.732,-0.366,-0.183,-1.132,2.812,35.129
 14:37:02.485,eb:33:2e:f9:57:b5, 2085-97-53 00:161:255:2029,0.026,-0.046,0.991,-0.732,-0.183,-0.183,-1.132,2.812,35.129
 14:37:02.485,eb:33:2e:f9:57:b5, 2085-97-53 00:161:255:2031,0.026,-0.047,0.991,-0.793,-0.061,-0.244,-1.132,2.812,35.129
 14:37:02.485,eb:33:2e:f9:57:b5, 2085-97-52 00:162:255:2031,0.025,-0.047,0.992,-0.671,0,-0.183,-1.132,2.812,35.129
 14:37:02.485,eb:33:2e:f9:57:b5, 2085-97-50 00:161:255:2029,0.025,-0.046,0.991,-0.732,0,-0.183,-1.132,2.812,35.129
 14:37:02.515,eb:33:2e:f9:57:b5, 2085-97-52 00:161:255:2031,0.024,-0.046,0.992,-0.671,0,-0.183,-1.132,2.812,35.129
 14:37:02.515,eb:33:2e:f9:57:b5, 2085-97-48 00:159:255:2031,0.023,-0.046,0.991,-0.732,0,-0.183,-1.132,2.812,35.129
 14:37:02.515,eb:33:2e:f9:57:b5, 2085-97-50 00:158:255:2030,0.024,-0.047,0.991,-0.732,-0.122,-0.122,-1.132,2.812,35.129
 14:37:02.515,eb:33:2e:f9:57:b5, 2085-97-49 00:159:255:2033,0.024,-0.047,0.992,-0.671,-0.183,-0.122,-1.132,2.812,35.129
 14:37:02.577,eb:33:2e:f9:57:b5, 2085-97-50 00:158:255:2034,0.023,-0.048,0.994,-0.549,-0.305,-0.122,-1.137,2.812,35.129
 14:37:02.577,eb:33:2e:f9:57:b5, 2085-97-50 00:160:255:2029,0.024,-0.048,0.991,-0.549,-0.366,-0.122,-1.137,2.812,35.129
 14:37:02.577,eb:33:2e:f9:57:b5, 2085-97-48 00:157:255:2025,0.023,-0.047,0.991,-0.488,-0.488,-0.061,-1.137,2.807,35.129
 14:37:02.577,eb:33:2e:f9:57:b5, 2085-97-48 00:160:255:2025,0.025,-0.048,0.989,-0.488,-0.732,0,-1.137,2.807,35.129
 14:37:02.635,eb:33:2e:f9:57:b5, 2085-97-51 00:159:255:2029,0.025,-0.047,0.991,-0.549,-0.854,-0.061,-1.137,2.807,35.129
 14:37:02.635,eb:33:2e:f9:57:b5, 2085-97-52 00:160:255:2030,0.024,-0.048,0.991,-0.549,-0.916,-0.061,-1.137,2.807,35.129
 14:37:02.635,eb:33:2e:f9:57:b5, 2085-97-52 00:160:255:2026,0.026,-0.047,0.99,-0.61,-0.977,0,-1.137,2.807,35.129
 14:37:02.635,eb:33:2e:f9:57:b5, 2085-97-54 00:158:255:2026,0.027,-0.048,0.989,-0.732,-0.977,0,-1.137,2.807,35.123
 14:37:02.637,eb:33:2e:f9:57:b5, 2085-97-56 00:160:255:2027,0.027,-0.047,0.989,-0.793,-0.977,0,-1.143,2.807,35.123
 14:37:02.637,eb:33:2e:f9:57:b5, 2085-97-53 00:160:255:2028,0.025,-0.047,0.99,-0.916,-0.854,0,-1.143,2.807,35.123
 14:37:02.637,eb:33:2e:f9:57:b5, 2085-97-55 00:158:255:2032,0.028,-0.047,0.99,-0.977,-0.916,0,-1.143,2.807,35.123
 14:37:02.638,eb:33:2e:f9:57:b5, 2085-97-56 00:156:255:2035,0.027,-0.048,0.994,-0.854,-0.793,-0.061,-1.143,2.807,35.123
 14:37:02.663,eb:33:2e:f9:57:b5, 2085-97-55 00:156:255:2035,0.026,-0.048,0.993,-0.793,-0.732,0,-1.143,2.807,35.123
 14:37:02.664,eb:33:2e:f9:57:b5, 2085-97-56 00:153:255:2038,0.028,-0.049,0.994,-0.732,-0.732,0,-1.143,2.807,35.123
 14:37:02.664,eb:33:2e:f9:57:b5, 2085-97-60 00:152:255:2041,0.028,-0.051,0.996,-0.488,-0.671,0.061,-1.148,2.807,35.123
 14:37:02.664,eb:33:2e:f9:57:b5, 2085-97-56 00:153:255:2039,0.027,-0.051,0.997,-0.244,-0.549,0.122,-1.148,2.807,35.123
 14:37:02.724,eb:33:2e:f9:57:b5, 2085-97-56 00:154:255:2035,0.029,-0.05,0.994,0,-0.366,0.122,-1.148,2.807,35.123
 14:37:02.724,eb:33:2e:f9:57:b5, 2085-97-61 00:155:255:2038,0.03,-0.05,0.994,0.122,-0.366,0.183,-1.148,2.807,35.123
 14:37:02.724,eb:33:2e:f9:57:b5, 2085-97-62 00:158:255:2036,0.029,-0.049,0.996,0.244,0.061,0.122,-1.148,2.802,35.123
 14:37:02.724,eb:33:2e:f9:57:b5, 2085-97-58 00:158:255:2035,0.029,-0.049,0.993,0.244,0.305,0.122,-1.148,2.802,35.123
 14:37:02.784,eb:33:2e:f9:57:b5, 2085-97-56 00:157:255:2031,0.027,-0.049,0.993,0.305,0.488,0,-1.154,2.802,35.123
 14:37:02.784,eb:33:2e:f9:57:b5, 2085-97-53 00:156:255:2027,0.025,-0.048,0.991,0.305,0.427,0.061,-1.154,2.802,35.123
 14:37:02.784,eb:33:2e:f9:57:b5, 2085-97-54 00:155:255:2029,0.026,-0.049,0.99,0.366,0.305,0.061,-1.154,2.802,35.123
 14:37:02.784,eb:33:2e:f9:57:b5, 2085-97-55 00:158:255:2031,0.027,-0.049,0.991,0.427,0.183,0.122,-1.154,2.802,35.123
 14:37:02.789,eb:33:2e:f9:57:b5, 2085-97-55 00:156:255:2032,0.026,-0.049,0.992,0.488,0.122,0.122,-1.154,2.802,35.123
 14:37:02.789,eb:33:2e:f9:57:b5, 2085-97-55 00:157:255:2032,0.027,-0.049,0.992,0.61,0.061,0.122,-1.154,2.802,35.123
 14:37:02.789,eb:33:2e:f9:57:b5, 2085-97-55 00:158:255:2031,0.026,-0.048,0.991,0.61,0.061,0.122,-1.159,2.802,35.123
 14:37:02.789,eb:33:2e:f9:57:b5, 2085-97-55 00:157:255:2030,0.027,-0.049,0.992,0.549,0,0.183,-1.159,2.802,35.123
 14:37:03.023,eb:33:2e:f9:57:b5, 2085-97-55 00:158:255:2029,0.026,-0.048,0.991,0.671,-0.061,0.244,-1.159,2.796,35.123
 14:37:03.023,eb:33:2e:f9:57:b5, 2085-97-54 00:158:255:2027,0.026,-0.048,0.99,0.61,-0.061,0.244,-1.159,2.796,35.123
 14:37:03.023,eb:33:2e:f9:57:b5, 2085-97-54 00:158:255:2027,0.027,-0.048,0.99,0.61,-0.244,0.244,-1.159,2.796,35.123
 14:37:03.023,eb:33:2e:f9:57:b5, 2085-97-56 00:162:255:2028,0.027,-0.047,0.99,0.549,-0.305,0.183,-1.159,2.796,35.123
 14:37:03.028,eb:33:2e:f9:57:b5, 2085-97-57 00:160:255:2031,0.028,-0.046,0.991,0.488,-0.244,0.183,-1.165,2.796,35.123
 14:37:03.028,eb:33:2e:f9:57:b5, 2085-97-57 00:161:255:2030,0.028,-0.047,0.991,0.488,-0.122,0.122,-1.165,2.796,35.123
 14:37:03.028,eb:33:2e:f9:57:b5, 2085-97-55 00:159:255:2026,0.027,-0.047,0.99,0.488,0,0.122,-1.165,2.796,35.123
 14:37:03.028,eb:33:2e:f9:57:b5, 2085-97-56 00:160:255:2026,0.027,-0.047,0.99,0.427,-0.122,0.122,-1.165,2.796,35.123
 14:37:03.028,eb:33:2e:f9:57:b5, 2085-97-55 00:159:255:2030,0.026,-0.046,0.99,0.488,-0.183,0.122,-1.165,2.791,35.118
 14:37:03.028,eb:33:2e:f9:57:b5, 2085-97-56 00:160:255:2028,0.027,-0.047,0.99,0.427,-0.244,0.122,-1.165,2.791,35.118
 14:37:03.028,eb:33:2e:f9:57:b5, 2085-97-55 00:161:255:2027,0.028,-0.047,0.99,0.366,-0.244,0.061,-1.17,2.791,35.118
 14:37:03.028,eb:33:2e:f9:57:b5, 2085-97-58 00:161:255:2028,0.028,-0.047,0.991,0.366,-0.244,0.122,-1.17,2.791,35.118
 14:37:03.030,eb:33:2e:f9:57:b5, 2085-97-59 00:162:255:2029,0.03,-0.046,0.991,0.305,-0.122,0.061,-1.17,2.791,35.118
 14:37:03.030,eb:33:2e:f9:57:b5, 2085-97-59 00:164:255:2026,0.029,-0.046,0.99,0.305,0,0.122,-1.17,2.791,35.118
 14:37:03.030,eb:33:2e:f9:57:b5, 2085-97-58 00:163:255:2027,0.028,-0.045,0.99,0.061,0.244,0,-1.17,2.791,35.118
 14:37:03.030,eb:33:2e:f9:57:b5, 2085-97-58 00:161:255:2030,0.029,-0.045,0.989,0,0.244,0,-1.17,2.791,35.118
 14:37:03.034,eb:33:2e:f9:57:b5, 2085-97-58 00:161:255:2033,0.027,-0.046,0.991,-0.061,0.366,-0.061,-1.176,2.785,35.118
 14:37:03.034,eb:33:2e:f9:57:b5, 2085-97-54 00:160:255:2035,0.027,-0.047,0.992,0,0.488,0,-1.176,2.785,35.118
 14:37:03.034,eb:33:2e:f9:57:b5, 2085-97-53 00:159:255:2035,0.027,-0.047,0.994,0.061,0.427,0,-1.176,2.785,35.118
 14:37:03.034,eb:33:2e:f9:57:b5, 2085-97-54 00:160:255:2034,0.026,-0.047,0.994,0.183,0.244,0.061,-1.176,2.785,35.118
 14:37:03.085,eb:33:2e:f9:57:b5, 2085-97-56 00:160:255:2035,0.027,-0.047,0.992,0.244,0.183,0.061,-1.176,2.785,35.118
 14:37:03.085,eb:33:2e:f9:57:b5, 2085-97-59 00:161:255:2036,0.028,-0.047,0.993,0.305,0.244,0.122,-1.176,2.785,35.118
 14:37:03.085,eb:33:2e:f9:57:b5, 2085-97-57 00:162:255:2035,0.028,-0.046,0.995,0.61,0.61,0,-1.214,2.758,35.112
 14:37:03.085,eb:33:2e:f9:57:b5, 2085-97-58 00:163:255:2035,0.027,-0.046,0.993,0.61,0.793,0,-1.214,2.758,35.112
 14:37:03.114,eb:33:2e:f9:57:b5, 2085-97-56 00:164:255:2031,0.026,-0.046,0.993,0.61,0.977,0,-1.214,2.752,35.112
 14:37:03.114,eb:33:2e:f9:57:b5, 2085-97-54 00:164:255:2028,0.025,-0.045,0.99,0.61,0.977,-0.122,-1.214,2.752,35.112
 14:37:03.114,eb:33:2e:f9:57:b5, 2085-97-51 00:166:255:2028,0.024,-0.044,0.99,0.488,0.916,0,-1.219,2.752,35.112
 14:37:03.114,eb:33:2e:f9:57:b5, 2085-97-51 00:166:255:2026,0.025,-0.044,0.989,0.366,0.916,-0.061,-1.219,2.752,35.112
 14:37:03.175,eb:33:2e:f9:57:b5, 2085-97-53 00:164:255:2028,0.025,-0.044,0.99,0.305,0.793,-0.061,-1.219,2.752,35.112
 14:37:03.175,eb:33:2e:f9:57:b5, 2085-97-52 00:164:255:2027,0.026,-0.045,0.99,0.183,0.793,-0.122,-1.219,2.752,35.112
 14:37:03.175,eb:33:2e:f9:57:b5, 2085-113-81 00:02:122:-545,0.026,-0.045,0.991,0.122,0.854,-0.122,-1.219,2.747,35.112
 14:37:03.175,eb:33:2e:f9:57:b5, 2085-97-53 00:164:255:2029,0.026,-0.045,0.991,0.183,0.854,-0.122,-1.219,2.747,35.112
 14:37:03.175,eb:33:2e:f9:57:b5, 2085-97-51 00:163:255:2029,0.025,-0.045,0.991,0.122,0.854,-0.061,-1.219,2.747,35.112
 14:37:03.204,eb:33:2e:f9:57:b5, 2085-97-51 00:164:255:2027,0.026,-0.045,0.99,0.122,0.793,-0.061,-1.219,2.747,35.112
 14:37:03.204,eb:33:2e:f9:57:b5, 2085-97-52 00:167:255:2024,0.025,-0.044,0.989,0.061,0.854,-0.122,-1.219,2.747,35.112
 14:37:03.204,eb:33:2e:f9:57:b5, 2085-97-49 00:164:255:2025,0.023,-0.045,0.988,-0.061,0.793,-0.122,-1.225,2.747,35.112
 14:37:03.204,eb:33:2e:f9:57:b5, 2085-97-49 00:162:255:2028,0.024,-0.046,0.989,-0.061,0.732,-0.122,-1.225,2.747,35.112
 14:37:03.234,eb:33:2e:f9:57:b5, 2085-97-49 00:162:255:2031,0.023,-0.046,0.991,-0.061,0.671,-0.183,-1.225,2.747,35.107
 14:37:03.234,eb:33:2e:f9:57:b5, 2085-97-48 00:161:255:2034,0.024,-0.046,0.991,0,0.549,-0.061,-1.225,2.747,35.107
 14:37:03.234,eb:33:2e:f9:57:b5, 2085-97-47 00:161:255:2032,0.022,-0.047,0.993,0.122,0.366,-0.061,-1.225,2.747,35.107
 14:37:03.234,eb:33:2e:f9:57:b5, 2085-97-46 00:162:255:2028,0.023,-0.046,0.991,0.244,0.183,0,-1.225,2.747,35.107
 14:37:03.355,eb:33:2e:f9:57:b5, 2085-97-48 00:163:255:2030,0.024,-0.046,0.99,0.366,0.122,0.061,-1.225,2.747,35.107
 14:37:03.355,eb:33:2e:f9:57:b5, 2085-97-50 00:165:255:2032,0.024,-0.044,0.992,0.366,0,0.122,-1.225,2.747,35.107
 14:37:03.355,eb:33:2e:f9:57:b5, 2085-97-51 00:163:255:2035,0.026,-0.045,0.993,0.427,0.061,0.061,-1.225,2.741,35.107
 14:37:03.355,eb:33:2e:f9:57:b5, 2085-97-52 00:163:255:2035,0.024,-0.045,0.994,0.427,0.183,0.061,-1.225,2.741,35.107
 14:37:03.355,eb:33:2e:f9:57:b5, 2085-97-50 00:163:255:2035,0.024,-0.045,0.995,0.488,0.305,0.061,-1.23,2.741,35.107
 14:37:03.355,eb:33:2e:f9:57:b5, 2085-97-49 00:164:255:2034,0.024,-0.045,0.994,0.61,0.366,0.122,-1.23,2.741,35.107
 14:37:03.355,eb:33:2e:f9:57:b5, 2085-97-51 00:165:255:2033,0.025,-0.044,0.993,0.732,0.427,0.122,-1.23,2.741,35.107
 14:37:03.355,eb:33:2e:f9:57:b5, 2085-97-50 00:165:255:2033,0.025,-0.044,0.993,0.671,0.549,0.183,-1.23,2.741,35.107
 14:37:03.359,eb:33:2e:f9:57:b5, 2085-97-49 00:165:255:2033,0.024,-0.045,0.994,0.793,0.549,0.122,-1.23,2.741,35.107
 14:37:03.359,eb:33:2e:f9:57:b5, 2085-97-50 00:166:255:2034,0.025,-0.044,0.993,0.793,0.671,0.183,-1.23,2.741,35.107
 14:37:03.359,eb:33:2e:f9:57:b5, 2085-97-53 00:167:255:2033,0.025,-0.044,0.993,0.854,0.732,0.183,-1.23,2.741,35.107
 14:37:03.359,eb:33:2e:f9:57:b5, 2085-97-50 00:167:255:2027,0.022,-0.043,0.991,0.793,0.916,0.122,-1.23,2.741,35.107
 14:37:03.475,eb:33:2e:f9:57:b5, 2085-97-46 00:170:255:2023,0.021,-0.043,0.989,0.732,0.916,0.122,-1.23,2.741,35.107
 14:37:03.475,eb:33:2e:f9:57:b5, 2085-97-46 00:171:255:2021,0.022,-0.042,0.988,0.549,0.793,0,-1.23,2.741,35.107
 14:37:03.476,eb:33:2e:f9:57:b5, 2085-97-47 00:169:255:2024,0.023,-0.042,0.986,0.427,0.671,0,-1.236,2.741,35.107
 14:37:03.476,eb:33:2e:f9:57:b5, 2085-97-45 00:168:255:2024,0.022,-0.043,0.989,0.305,0.61,0,-1.236,2.741,35.107
 14:37:03.654,eb:33:2e:f9:57:b5, 2085-97-44 00:167:255:2027,0.022,-0.043,0.989,0.305,0.549,0,-1.236,2.741,35.107
 14:37:03.654,eb:33:2e:f9:57:b5, 2085-97-45 00:168:255:2029,0.022,-0.042,0.991,0.244,0.488,0,-1.236,2.741,35.107
 14:37:03.654,eb:33:2e:f9:57:b5, 2085-97-45 00:170:255:2029,0.022,-0.042,0.991,0.122,0.427,0,-1.236,2.741,35.107
 14:37:03.654,eb:33:2e:f9:57:b5, 2085-97-46 00:171:255:2030,0.023,-0.042,0.991,0.183,0.305,-0.061,-1.236,2.741,35.107
 14:37:03.657,eb:33:2e:f9:57:b5, 2085-97-48 00:168:255:2030,0.023,-0.042,0.991,0.061,0.366,-0.061,-1.236,2.741,35.107
 14:37:03.657,eb:33:2e:f9:57:b5, 2085-97-47 00:169:255:2027,0.023,-0.042,0.991,0.061,0.427,-0.122,-1.236,2.741,35.107
 14:37:03.657,eb:33:2e:f9:57:b5, 2085-97-48 00:169:255:2029,0.023,-0.042,0.99,0,0.488,-0.244,-1.236,2.736,35.101
 14:37:03.657,eb:33:2e:f9:57:b5, 2085-97-47 00:167:255:2030,0.023,-0.042,0.991,-0.122,0.549,-0.244,-1.236,2.736,35.101
 14:37:03.657,eb:33:2e:f9:57:b5, 2085-97-46 00:168:255:2029,0.022,-0.042,0.991,-0.183,0.671,-0.305,-1.236,2.736,35.101
 14:37:03.657,eb:33:2e:f9:57:b5, 2085-97-44 00:167:255:2030,0.022,-0.043,0.991,-0.244,0.61,-0.244,-1.236,2.736,35.101
 14:37:03.657,eb:33:2e:f9:57:b5, 2085-97-44 00:166:255:2030,0.022,-0.043,0.992,-0.244,0.549,-0.305,-1.236,2.736,35.101
 14:37:03.657,eb:33:2e:f9:57:b5, 2085-97-44 00:166:255:2032,0.021,-0.044,0.992,-0.183,0.488,-0.244,-1.236,2.736,35.101
 14:37:03.660,eb:33:2e:f9:57:b5, 2085-97-44 00:166:255:2033,0.021,-0.043,0.992,-0.122,0.427,-0.244,-1.236,2.736,35.101
 14:37:03.660,eb:33:2e:f9:57:b5, 2085-97-45 00:167:255:2035,0.022,-0.044,0.993,-0.061,0.366,-0.244,-1.236,2.736,35.101
 14:37:03.660,eb:33:2e:f9:57:b5, 2085-97-45 00:168:255:2034,0.021,-0.043,0.993,0,0.305,-0.122,-1.236,2.736,35.101
 14:37:03.661,eb:33:2e:f9:57:b5, 2085-97-43 00:165:255:2032,0.021,-0.043,0.993,0,0.244,-0.183,-1.236,2.736,35.101
 14:37:03.661,eb:33:2e:f9:57:b5, 2085-97-43 00:167:255:2033,0.023,-0.044,0.992,0.122,0.183,-0.122,-1.236,2.736,35.101
 14:37:03.661,eb:33:2e:f9:57:b5, 2085-97-46 00:168:255:2032,0.021,-0.043,0.993,0.183,0.183,-0.122,-1.236,2.736,35.101
 14:37:03.661,eb:33:2e:f9:57:b5, 2085-97-45 00:169:255:2032,0.021,-0.043,0.993,0.183,0.183,-0.061,-1.236,2.736,35.101
 14:37:03.661,eb:33:2e:f9:57:b5, 2085-97-43 00:170:255:2030,0.022,-0.043,0.991,0.183,0.122,-0.061,-1.236,2.736,35.101
 14:37:03.744,eb:33:2e:f9:57:b5, 2085-97-44 00:167:255:2030,0.021,-0.043,0.991,0.183,0.122,0,-1.236,2.741,35.101
 14:37:03.744,eb:33:2e:f9:57:b5, 2085-97-44 00:169:255:2035,0.022,-0.042,0.992,0.122,0.061,0,-1.241,2.741,35.101
 14:37:03.744,eb:33:2e:f9:57:b5, 2085-97-47 00:168:255:2034,0.022,-0.042,0.993,0.183,0.183,0,-1.241,2.741,35.101
 14:37:03.744,eb:33:2e:f9:57:b5, 2085-97-46 00:167:255:2034,0.021,-0.043,0.993,0.244,0.244,0,-1.241,2.741,35.101
 14:37:03.747,eb:33:2e:f9:57:b5, 2085-97-42 00:168:255:2030,0.02,-0.042,0.993,0.305,0.244,0,-1.241,2.741,35.101
 14:37:03.747,eb:33:2e:f9:57:b5, 2085-97-42 00:169:255:2029,0.02,-0.043,0.991,0.305,0.122,0,-1.241,2.741,35.101
 14:37:03.747,eb:33:2e:f9:57:b5, 2085-97-43 00:166:255:2032,0.022,-0.043,0.991,0.305,0.061,0,-1.241,2.741,35.101
 14:37:03.747,eb:33:2e:f9:57:b5, 2085-97-44 00:169:255:2032,0.021,-0.043,0.993,0.366,0.061,0.122,-1.241,2.741,35.101
 14:37:03.835,eb:33:2e:f9:57:b5, 2085-97-42 00:168:255:2031,0.021,-0.042,0.991,0.366,0,0.061,-1.241,2.741,35.101
 14:37:03.835,eb:33:2e:f9:57:b5, 2085-97-41 00:170:255:2027,0.021,-0.042,0.99,0.366,-0.061,0.122,-1.241,2.741,35.101
 14:37:03.835,eb:33:2e:f9:57:b5, 2085-97-43 00:170:255:2028,0.022,-0.042,0.99,0.366,-0.122,0.061,-1.241,2.741,35.101
 14:37:03.835,eb:33:2e:f9:57:b5, 2085-97-46 00:169:255:2032,0.022,-0.042,0.99,0.244,-0.122,0.061,-1.241,2.741,35.101
 14:37:03.837,eb:33:2e:f9:57:b5, 2085-97-44 00:170:255:2035,0.022,-0.042,0.992,0.244,0,0.061,-1.241,2.741,35.096
 14:37:03.837,eb:33:2e:f9:57:b5, 2085-97-45 00:170:255:2030,0.022,-0.042,0.992,0.183,0.061,0.061,-1.241,2.741,35.096
 14:37:03.837,eb:33:2e:f9:57:b5, 2085-97-44 00:170:255:2031,0.021,-0.042,0.992,0.183,0.122,0.061,-1.241,2.741,35.096
 14:37:03.837,eb:33:2e:f9:57:b5, 2085-97-45 00:170:255:2031,0.023,-0.042,0.991,0.183,0.122,0.061,-1.241,2.741,35.096
 14:37:03.839,eb:33:2e:f9:57:b5, 2085-97-47 00:172:255:2032,0.022,-0.042,0.992,0.122,0.244,0,-1.241,2.741,35.096
 14:37:03.839,eb:33:2e:f9:57:b5, 2085-97-45 00:172:255:2031,0.021,-0.041,0.992,0.122,0.366,0,-1.241,2.741,35.096
 14:37:03.839,eb:33:2e:f9:57:b5, 2085-97-43 00:170:255:2032,0.021,-0.041,0.992,0.061,0.427,0,-1.241,2.741,35.096
 14:37:03.839,eb:33:2e:f9:57:b5, 2085-97-44 00:170:255:2029,0.021,-0.042,0.992,0.061,0.427,0,-1.241,2.741,35.096
 14:37:03.895,eb:33:2e:f9:57:b5, 2085-97-44 00:171:255:2031,0.021,-0.042,0.991,0.061,0.305,0,-1.241,2.741,35.096
 14:37:03.895,eb:33:2e:f9:57:b5, 2085-97-44 00:172:255:2030,0.021,-0.042,0.991,0.122,0.366,0,-1.241,2.741,35.096
 14:37:03.895,eb:33:2e:f9:57:b5, 2085-97-42 00:171:255:2031,0.021,-0.042,0.992,0,0.366,0,-1.241,2.741,35.096
 14:37:03.895,eb:33:2e:f9:57:b5, 2085-97-40 00:170:255:2029,0.02,-0.042,0.991,0,0.305,0,-1.241,2.741,35.096
 14:37:03.926,eb:33:2e:f9:57:b5, 2085-97-40 00:168:255:2028,0.02,-0.042,0.991,0.061,0.244,0,-1.241,2.741,35.096
 14:37:03.926,eb:33:2e:f9:57:b5, 2085-97-42 00:171:255:2031,0.021,-0.043,0.991,0.122,0,0,-1.241,2.741,35.096
 14:37:03.926,eb:33:2e:f9:57:b5, 2085-97-42 00:170:255:2030,0.02,-0.042,0.992,0.122,0,0.061,-1.241,2.741,35.096
 14:37:03.926,eb:33:2e:f9:57:b5, 2085-97-42 00:171:255:2032,0.021,-0.042,0.992,0.183,0,0,-1.241,2.741,35.096
 14:37:03.954,eb:33:2e:f9:57:b5, 2085-97-45 00:170:255:2033,0.023,-0.042,0.992,0.183,0,0,-1.241,2.741,35.096
 14:37:03.954,eb:33:2e:f9:57:b5, 2085-97-46 00:170:255:2032,0.022,-0.042,0.993,0.183,0.122,0,-1.241,2.741,35.096
 14:37:03.954,eb:33:2e:f9:57:b5, 2085-113-58 00:220:216:2445,0.022,-0.041,0.992,0.122,0.366,0,-1.241,2.741,35.096
 14:37:03.954,eb:33:2e:f9:57:b5, 2085-97-45 00:173:255:2031,0.022,-0.041,0.992,0.122,0.305,0,-1.241,2.741,35.096
 14:37:04.015,eb:33:2e:f9:57:b5, 2085-97-44 00:172:255:2032,0.022,-0.042,0.992,0.061,0.488,0,-1.241,2.741,35.096
 14:37:04.015,eb:33:2e:f9:57:b5, 2085-97-42 00:173:255:2029,0.021,-0.041,0.991,0.122,0.61,-0.061,-1.241,2.741,35.096
 14:37:04.015,eb:33:2e:f9:57:b5, 2085-97-43 00:171:255:2032,0.021,-0.042,0.992,0.061,0.549,0,-1.241,2.741,35.096
 14:37:04.015,eb:33:2e:f9:57:b5, 2085-97-41 00:171:255:2031,0.021,-0.042,0.992,0.183,0.488,0,-1.241,2.741,35.096
 14:37:04.044,eb:33:2e:f9:57:b5, 2085-97-41 00:171:255:2030,0.02,-0.041,0.992,0.122,0.488,-0.061,-1.241,2.741,35.096
 14:37:04.044,eb:33:2e:f9:57:b5, 2085-97-42 00:172:255:2032,0.019,-0.042,0.991,0.183,0.427,-0.061,-1.241,2.741,35.096
 14:37:04.044,eb:33:2e:f9:57:b5, 2085-97-39 00:174:255:2030,0.02,-0.042,0.991,0.183,0.427,0,-1.241,2.747,35.096
 14:37:04.044,eb:33:2e:f9:57:b5, 2085-97-39 00:171:255:2027,0.019,-0.041,0.991,0.183,0.366,0,-1.241,2.747,35.096
 14:37:04.074,eb:33:2e:f9:57:b5, 2085-97-40 00:172:255:2029,0.02,-0.041,0.991,0.183,0.244,0,-1.241,2.747,35.09
 14:37:04.074,eb:33:2e:f9:57:b5, 2085-97-39 00:172:255:2028,0.019,-0.04,0.99,0.122,0.122,0,-1.241,2.747,35.09
 14:37:04.074,eb:33:2e:f9:57:b5, 2085-97-39 00:173:255:2028,0.019,-0.041,0.991,0.122,0.122,0,-1.241,2.747,35.09
 14:37:04.074,eb:33:2e:f9:57:b5, 2085-97-39 00:174:255:2028,0.019,-0.041,0.99,0.061,0,0,-1.241,2.747,35.09
 14:37:04.134,eb:33:2e:f9:57:b5, 2085-97-39 00:172:255:2027,0.02,-0.041,0.99,0.061,-0.061,-0.061,-1.241,2.747,35.09
 14:37:04.134,eb:33:2e:f9:57:b5, 2085-97-41 00:172:255:2030,0.021,-0.041,0.99,0,-0.122,-0.061,-1.241,2.747,35.09
 14:37:04.134,eb:33:2e:f9:57:b5, 2085-97-42 00:173:255:2030,0.021,-0.041,0.992,0,-0.122,0,-1.241,2.747,35.09
 14:37:04.134,eb:33:2e:f9:57:b5, 2085-97-40 00:172:255:2029,0.021,-0.04,0.992,-0.061,-0.122,-0.061,-1.241,2.747,35.09
 14:37:04.164,eb:33:2e:f9:57:b5, 2085-97-43 00:171:255:2032,0.02,-0.041,0.991,-0.061,-0.122,-0.061,-1.241,2.747,35.09
 14:37:04.164,eb:33:2e:f9:57:b5, 2085-97-42 00:174:255:2031,0.02,-0.041,0.992,-0.061,0,-0.122,-1.241,2.747,35.09
 14:37:04.164,eb:33:2e:f9:57:b5, 2085-97-40 00:172:255:2028,0.02,-0.04,0.991,-0.183,0,-0.122,-1.241,2.747,35.09
 14:37:04.164,eb:33:2e:f9:57:b5, 2085-97-39 00:172:255:2032,0.02,-0.041,0.99,-0.183,0,-0.122,-1.241,2.747,35.09
 14:37:04.194,eb:33:2e:f9:57:b5, 2085-97-42 00:173:255:2031,0.02,-0.042,0.992,-0.183,0,-0.122,-1.236,2.747,35.09
 14:37:04.194,eb:33:2e:f9:57:b5, 2085-97-41 00:169:255:2030,0.02,-0.042,0.993,-0.183,-0.061,-0.122,-1.236,2.747,35.09
 14:37:04.194,eb:33:2e:f9:57:b5, 2085-97-42 00:171:255:2032,0.021,-0.041,0.992,-0.122,-0.122,0,-1.236,2.752,35.09
 14:37:04.194,eb:33:2e:f9:57:b5, 2085-97-40 00:173:255:2031,0.02,-0.041,0.992,-0.061,-0.061,-0.061,-1.236,2.752,35.09
 14:37:04.255,eb:33:2e:f9:57:b5, 2085-97-40 00:172:255:2029,0.02,-0.041,0.991,-0.122,-0.122,-0.061,-1.236,2.752,35.09
 14:37:04.255,eb:33:2e:f9:57:b5, 2085-97-41 00:172:255:2029,0.02,-0.041,0.991,-0.122,-0.183,-0.061,-1.236,2.752,35.09
 14:37:04.255,eb:33:2e:f9:57:b5, 2085-97-40 00:173:255:2028,0.019,-0.041,0.991,-0.122,-0.183,-0.122,-1.236,2.752,35.09
 14:37:04.255,eb:33:2e:f9:57:b5, 2085-97-40 00:172:255:2029,0.02,-0.041,0.991,-0.244,-0.183,-0.122,-1.236,2.752,35.09
 14:37:04.285,eb:33:2e:f9:57:b5, 2085-97-43 00:173:255:2030,0.021,-0.041,0.991,-0.244,-0.244,-0.122,-1.236,2.752,35.085
 14:37:04.285,eb:33:2e:f9:57:b5, 2085-97-41 00:172:255:2032,0.021,-0.041,0.992,-0.305,-0.122,-0.122,-1.236,2.752,35.085
 14:37:04.285,eb:33:2e:f9:57:b5, 2085-97-41 00:171:255:2029,0.02,-0.041,0.992,-0.366,-0.183,-0.122,-1.236,2.752,35.085
 14:37:04.285,eb:33:2e:f9:57:b5, 2085-97-41 00:172:255:2031,0.02,-0.041,0.991,-0.366,-0.183,-0.122,-1.236,2.752,35.085
 14:37:04.318,eb:33:2e:f9:57:b5, 2085-97-42 00:170:255:2030,0.021,-0.042,0.991,-0.366,-0.244,-0.122,-1.236,2.752,35.085
 14:37:04.318,eb:33:2e:f9:57:b5, 2085-97-43 00:172:255:2032,0.021,-0.042,0.992,-0.305,-0.244,-0.061,-1.236,2.752,35.085
 14:37:04.318,eb:33:2e:f9:57:b5, 2085-97-42 00:171:255:2031,0.021,-0.042,0.992,-0.366,-0.305,-0.061,-1.236,2.752,35.085
 14:37:04.318,eb:33:2e:f9:57:b5, 2085-97-42 00:171:255:2031,0.021,-0.042,0.992,-0.305,-0.305,-0.061,-1.236,2.752,35.085
 14:37:04.374,eb:33:2e:f9:57:b5, 2085-97-43 00:170:255:2033,0.021,-0.042,0.992,-0.305,-0.305,-0.061,-1.236,2.752,35.085
 14:37:04.374,eb:33:2e:f9:57:b5, 2085-97-42 00:170:255:2031,0.02,-0.042,0.992,-0.244,-0.244,-0.061,-1.236,2.752,35.085
 14:37:04.374,eb:33:2e:f9:57:b5, 2085-97-43 00:171:255:2033,0.021,-0.042,0.992,-0.305,-0.244,0,-1.236,2.752,35.085
 14:37:04.374,eb:33:2e:f9:57:b5, 2085-97-43 00:168:255:2032,0.021,-0.042,0.992,-0.244,-0.244,-0.061,-1.236,2.752,35.085
 14:37:04.466,eb:33:2e:f9:57:b5, 2085-97-43 00:170:255:2032,0.02,-0.042,0.993,-0.244,-0.305,-0.061,-1.236,2.758,35.085
 14:37:04.466,eb:33:2e:f9:57:b5, 2085-97-43 00:170:255:2030,0.021,-0.042,0.992,-0.244,-0.305,-0.061,-1.236,2.758,35.085
 14:37:04.466,eb:33:2e:f9:57:b5, 2085-97-45 00:169:255:2031,0.021,-0.042,0.991,-0.183,-0.305,-0.061,-1.236,2.758,35.085
 14:37:04.466,eb:33:2e:f9:57:b5, 2085-97-45 00:168:255:2030,0.022,-0.042,0.992,-0.183,-0.366,0,-1.236,2.758,35.085
 14:37:04.466,eb:33:2e:f9:57:b5, 2085-97-46 00:169:255:2032,0.021,-0.042,0.993,-0.122,-0.244,0,-1.236,2.758,35.085
 14:37:04.466,eb:33:2e:f9:57:b5, 2085-97-46 00:170:255:2034,0.022,-0.042,0.993,-0.122,-0.183,-0.061,-1.236,2.758,35.085
 14:37:04.466,eb:33:2e:f9:57:b5, 2085-97-45 00:169:255:2033,0.021,-0.042,0.993,-0.061,-0.122,0,-1.236,2.758,35.085
 14:37:04.466,eb:33:2e:f9:57:b5, 2085-97-43 00:170:255:2031,0.022,-0.042,0.992,-0.122,-0.122,-0.061,-1.236,2.758,35.085
 14:37:04.495,eb:33:2e:f9:57:b5, 2085-97-44 00:169:255:2030,0.021,-0.042,0.99,-0.061,-0.061,0,-1.236,2.758,35.085
 14:37:04.495,eb:33:2e:f9:57:b5, 2085-97-44 00:170:255:2030,0.021,-0.042,0.991,-0.122,0,0,-1.236,2.758,35.085
 14:37:04.495,eb:33:2e:f9:57:b5, 2085-97-44 00:169:255:2029,0.021,-0.042,0.991,-0.061,-0.061,0,-1.236,2.758,35.085
 14:37:04.495,eb:33:2e:f9:57:b5, 2085-97-45 00:170:255:2029,0.022,-0.042,0.991,-0.061,-0.122,0,-1.236,2.758,35.085
 14:37:04.524,eb:33:2e:f9:57:b5, 2085-97-45 00:170:255:2028,0.021,-0.042,0.991,-0.061,-0.061,0,-1.236,2.758,35.085
 14:37:04.524,eb:33:2e:f9:57:b5, 2085-97-44 00:170:255:2030,0.022,-0.042,0.991,-0.122,-0.122,0,-1.236,2.758,35.085
 14:37:04.524,eb:33:2e:f9:57:b5, 2085-97-46 00:168:255:2030,0.021,-0.042,0.991,-0.122,-0.183,0,-1.236,2.758,35.085
 14:37:04.524,eb:33:2e:f9:57:b5, 2085-113-58 00:145:216:2475,0.021,-0.042,0.991,-0.122,-0.183,0,-1.236,2.758,35.085
 14:37:04.524,eb:33:2e:f9:57:b5, 2085-97-43 00:169:255:2030,0.022,-0.042,0.991,-0.061,-0.183,0,-1.236,2.758,35.085
 14:37:04.614,eb:33:2e:f9:57:b5, 2085-97-46 00:168:255:2030,0.021,-0.042,0.992,-0.122,-0.183,0,-1.236,2.758,35.079
 14:37:04.614,eb:33:2e:f9:57:b5, 2085-97-44 00:169:255:2030,0.022,-0.042,0.991,-0.061,-0.244,0,-1.236,2.758,35.079
 14:37:04.614,eb:33:2e:f9:57:b5, 2085-97-46 00:170:255:2030,0.022,-0.042,0.991,-0.061,-0.183,0,-1.236,2.758,35.079
 14:37:04.614,eb:33:2e:f9:57:b5, 2085-97-46 00:170:255:2031,0.022,-0.042,0.991,-0.061,-0.244,0,-1.236,2.758,35.079
 14:37:04.616,eb:33:2e:f9:57:b5, 2085-97-48 00:169:255:2032,0.022,-0.042,0.992,-0.122,-0.244,0,-1.236,2.758,35.079
 14:37:04.616,eb:33:2e:f9:57:b5, 2085-97-46 00:170:255:2033,0.022,-0.042,0.992,-0.061,-0.183,0,-1.236,2.758,35.079
 14:37:04.616,eb:33:2e:f9:57:b5, 2085-97-46 00:169:255:2031,0.021,-0.042,0.992,-0.061,-0.122,0,-1.236,2.758,35.079
 14:37:04.616,eb:33:2e:f9:57:b5, 2085-97-44 00:169:255:2033,0.022,-0.043,0.991,0,-0.122,-0.061,-1.236,2.758,35.079
 14:37:04.675,eb:33:2e:f9:57:b5, 2085-97-46 00:170:255:2031,0.022,-0.042,0.993,-0.061,-0.122,0,-1.236,2.758,35.079
 14:37:04.675,eb:33:2e:f9:57:b5, 2085-97-46 00:169:255:2031,0.021,-0.042,0.992,0,-0.061,0,-1.236,2.758,35.079
 14:37:04.675,eb:33:2e:f9:57:b5, 2085-97-46 00:171:255:2030,0.022,-0.042,0.992,-0.061,-0.061,0,-1.236,2.758,35.079
 14:37:04.675,eb:33:2e:f9:57:b5, 2085-97-45 00:170:255:2031,0.022,-0.042,0.991,-0.122,-0.061,0,-1.236,2.758,35.079
 14:37:04.764,eb:33:2e:f9:57:b5, 2085-97-44 00:169:255:2029,0.022,-0.042,0.991,-0.183,-0.061,-0.061,-1.236,2.758,35.079
 14:37:04.764,eb:33:2e:f9:57:b5, 2085-97-46 00:170:255:2032,0.022,-0.042,0.991,-0.183,-0.061,-0.061,-1.236,2.758,35.079
 14:37:04.764,eb:33:2e:f9:57:b5, 2085-97-46 00:168:255:2032,0.022,-0.042,0.992,-0.122,-0.061,-0.061,-1.236,2.758,35.079
 14:37:04.764,eb:33:2e:f9:57:b5, 2085-97-46 00:169:255:2032,0.022,-0.043,0.992,-0.122,-0.122,-0.061,-1.236,2.758,35.079
 14:37:04.766,eb:33:2e:f9:57:b5, 2085-97-47 00:169:255:2032,0.022,-0.042,0.992,-0.183,-0.061,0,-1.241,2.758,35.079
 14:37:04.766,eb:33:2e:f9:57:b5, 2085-97-46 00:169:255:2031,0.022,-0.042,0.992,-0.122,0,0,-1.241,2.758,35.079
 14:37:04.766,eb:33:2e:f9:57:b5, 2085-97-46 00:169:255:2031,0.022,-0.042,0.992,-0.061,-0.061,-0.061,-1.241,2.758,35.079
 14:37:04.766,eb:33:2e:f9:57:b5, 2085-97-42 00:170:255:2030,0.021,-0.042,0.991,-0.122,-0.061,0,-1.241,2.758,35.079
 14:37:04.768,eb:33:2e:f9:57:b5, 2085-97-45 00:169:255:2030,0.022,-0.042,0.991,-0.061,-0.122,0,-1.241,2.758,35.079
 14:37:04.768,eb:33:2e:f9:57:b5, 2085-97-45 00:169:255:2029,0.022,-0.042,0.992,-0.061,-0.183,-0.061,-1.241,2.758,35.079
 14:37:04.768,eb:33:2e:f9:57:b5, 2085-97-45 00:169:255:2030,0.022,-0.042,0.991,-0.061,-0.183,0,-1.241,2.758,35.079
 14:37:04.768,eb:33:2e:f9:57:b5, 2085-97-46 00:170:255:2032,0.022,-0.042,0.992,-0.122,-0.183,0,-1.241,2.758,35.079
 14:37:04.826,eb:33:2e:f9:57:b5, 2085-97-44 00:170:255:2031,0.022,-0.042,0.992,-0.122,-0.122,-0.061,-1.241,2.758,35.079
 14:37:04.826,eb:33:2e:f9:57:b5, 2085-97-46 00:169:255:2031,0.022,-0.042,0.991,-0.183,-0.183,0,-1.241,2.758,35.079
 14:37:04.826,eb:33:2e:f9:57:b5, 2085-97-47 00:167:255:2031,0.023,-0.042,0.992,-0.122,-0.183,0,-1.241,2.758,35.079
 14:37:04.826,eb:33:2e:f9:57:b5, 2085-97-47 00:170:255:2030,0.023,-0.043,0.991,-0.061,-0.183,0,-1.241,2.758,35.079
 14:37:04.854,eb:33:2e:f9:57:b5, 2085-97-46 00:168:255:2028,0.022,-0.042,0.991,-0.122,-0.183,-0.061,-1.241,2.758,35.079
 14:37:04.854,eb:33:2e:f9:57:b5, 2085-97-47 00:168:255:2031,0.022,-0.042,0.991,-0.183,-0.122,-0.122,-1.241,2.758,35.079
 14:37:04.854,eb:33:2e:f9:57:b5, 2085-97-45 00:169:255:2032,0.021,-0.042,0.992,-0.183,-0.061,-0.122,-1.241,2.758,35.074
 14:37:04.854,eb:33:2e:f9:57:b5, 2085-97-46 00:166:255:2032,0.022,-0.043,0.992,-0.122,-0.183,-0.061,-1.241,2.758,35.074
 14:37:05.094,eb:33:2e:f9:57:b5, 2085-97-46 00:167:255:2034,0.022,-0.043,0.993,-0.122,-0.122,-0.061,-1.241,2.758,35.074
 14:37:05.094,eb:33:2e:f9:57:b5, 2085-97-46 00:169:255:2032,0.023,-0.043,0.992,-0.061,-0.122,-0.061,-1.241,2.758,35.074
 14:37:05.094,eb:33:2e:f9:57:b5, 2085-97-46 00:168:255:2028,0.022,-0.042,0.991,-0.061,-0.183,0,-1.241,2.758,35.074
 14:37:05.094,eb:33:2e:f9:57:b5, 2085-97-46 00:168:255:2029,0.023,-0.043,0.99,-0.122,-0.244,0,-1.241,2.758,35.074
 14:37:05.098,eb:33:2e:f9:57:b5, 2085-97-46 00:170:255:2030,0.023,-0.042,0.992,-0.061,-0.244,-0.061,-1.241,2.758,35.074
 14:37:05.098,eb:33:2e:f9:57:b5, 2085-97-48 00:171:255:2028,0.023,-0.042,0.99,-0.122,-0.244,-0.061,-1.241,2.758,35.074
 14:37:05.098,eb:33:2e:f9:57:b5, 2085-97-47 00:168:255:2029,0.023,-0.042,0.991,-0.183,-0.122,-0.183,-1.241,2.752,35.074
 14:37:05.098,eb:33:2e:f9:57:b5, 2085-97-47 00:169:255:2027,0.022,-0.043,0.991,-0.244,-0.122,-0.122,-1.241,2.752,35.074
 14:37:05.100,eb:33:2e:f9:57:b5, 2085-97-45 00:169:255:2027,0.021,-0.043,0.989,-0.305,-0.122,-0.122,-1.241,2.752,35.074
 14:37:05.100,eb:33:2e:f9:57:b5, 2085-97-43 00:168:255:2027,0.021,-0.043,0.99,-0.366,-0.183,-0.122,-1.241,2.752,35.074
 14:37:05.100,eb:33:2e:f9:57:b5, 2085-97-44 00:169:255:2025,0.021,-0.043,0.989,-0.305,-0.366,-0.183,-1.241,2.752,35.074
 14:37:05.100,eb:33:2e:f9:57:b5, 2085-97-45 00:167:255:2025,0.021,-0.043,0.989,-0.427,-0.549,-0.122,-1.241,2.752,35.074
 14:37:05.215,eb:33:2e:f9:57:b5, 2085-97-43 00:167:255:2026,0.021,-0.043,0.988,-0.366,-0.732,-0.122,-1.241,2.752,35.074
 14:37:05.215,eb:33:2e:f9:57:b5, 2085-97-46 00:167:255:2030,0.024,-0.043,0.991,-0.305,-0.916,-0.122,-1.241,2.752,35.074
 14:37:05.215,eb:33:2e:f9:57:b5, 2085-97-50 00:166:255:2033,0.026,-0.043,0.992,-0.305,-0.977,-0.122,-1.241,2.752,35.074
 14:37:05.215,eb:33:2e:f9:57:b5, 2085-97-48 00:167:255:2030,0.022,-0.043,0.993,-0.183,-0.732,-0.183,-1.241,2.752,35.074
 14:37:05.275,eb:33:2e:f9:57:b5, 2085-97-43 00:166:255:2025,0.021,-0.043,0.987,-0.244,-0.977,-0.183,-1.241,2.752,35.074
 14:37:05.275,eb:33:2e:f9:57:b5, 2085-97-47 00:167:255:2029,0.026,-0.044,0.99,-0.183,-1.16,-0.183,-1.241,2.752,35.074
 14:37:05.275,eb:33:2e:f9:57:b5, 2085-97-53 00:166:255:2037,0.026,-0.043,0.994,-0.244,-1.099,-0.183,-1.241,2.752,35.068
 14:37:05.275,eb:33:2e:f9:57:b5, 2085-97-55 00:164:255:2037,0.026,-0.044,0.996,-0.244,-0.793,-0.122,-1.241,2.752,35.068
 14:37:05.275,eb:33:2e:f9:57:b5, 2085-97-55 00:167:255:2038,0.024,-0.043,0.996,-0.122,-0.488,0,-1.241,2.752,35.068
 14:37:05.275,eb:33:2e:f9:57:b5, 2085-97-45 00:163:255:2031,0.022,-0.045,0.994,0.488,-0.916,0.366,-1.247,2.752,35.068
 14:37:05.275,eb:33:2e:f9:57:b5, 2085-97-45 00:167:255:2028,0.026,-0.044,0.991,0.671,-1.221,0.427,-1.247,2.752,35.068
 14:37:05.275,eb:33:2e:f9:57:b5, 2085-97-55 00:169:255:2033,0.028,-0.042,0.993,0.671,-1.526,0.488,-1.247,2.752,35.068
 14:37:05.278,eb:33:2e:f9:57:b5, 2085-97-58 00:173:255:2032,0.027,-0.042,0.993,0.549,-1.404,0.427,-1.247,2.752,35.068
 14:37:05.278,eb:33:2e:f9:57:b5, 2085-97-58 00:174:255:2028,0.029,-0.041,0.991,0.366,-1.099,0.244,-1.247,2.752,35.068
 14:37:05.278,eb:33:2e:f9:57:b5, 2085-97-57 00:174:255:2026,0.027,-0.041,0.989,0.061,-0.854,0.061,-1.247,2.752,35.068
 14:37:05.278,eb:33:2e:f9:57:b5, 2085-97-56 00:172:255:2026,0.027,-0.041,0.989,-0.122,-0.549,0,-1.247,2.752,35.068
 14:37:05.282,eb:33:2e:f9:57:b5, 2085-97-58 00:173:255:2032,0.03,-0.042,0.991,-0.366,-0.488,-0.061,-1.247,2.752,35.068
 14:37:05.282,eb:33:2e:f9:57:b5, 2085-97-62 00:164:255:2044,0.035,-0.042,0.994,-0.427,-0.244,-0.122,-1.247,2.752,35.068
 14:37:05.282,eb:33:2e:f9:57:b5, 2085-97-76 00:158:255:2064,0.037,-0.046,1.003,0,0.244,-0.122,-1.247,2.752,35.068
 14:37:05.282,eb:33:2e:f9:57:b5, 2085-97-66 00:160:255:2064,0.03,-0.047,1.008,0.488,1.099,-0.122,-1.247,2.752,35.068
 14:37:05.282,eb:33:2e:f9:57:b5, 2085-97-59 00:162:255:2056,0.028,-0.046,1.004,1.099,1.648,-0.183,-1.247,2.752,35.068
 14:37:05.282,eb:33:2e:f9:57:b5, 2085-97-54 00:167:255:2044,0.026,-0.044,1.002,1.465,1.892,-0.122,-1.247,2.752,35.068
 14:37:05.282,eb:33:2e:f9:57:b5, 2085-97-50 00:170:255:2028,0.025,-0.043,0.994,1.648,2.075,-0.122,-1.247,2.752,35.068
 14:37:05.282,eb:33:2e:f9:57:b5, 2085-97-51 00:173:255:2027,0.025,-0.041,0.989,1.587,2.075,-0.122,-1.247,2.752,35.068
 14:37:05.285,eb:33:2e:f9:57:b5, 2085-97-53 00:173:255:2027,0.027,-0.041,0.989,1.526,2.075,-0.183,-1.247,2.752,35.068
 14:37:05.285,eb:33:2e:f9:57:b5, 2085-97-61 00:170:255:2048,0.028,-0.04,0.995,1.404,2.197,-0.305,-1.247,2.752,35.068
 14:37:05.285,eb:33:2e:f9:57:b5, 2085-97-55 00:169:255:2047,0.025,-0.043,1,1.587,2.686,-0.305,-1.241,2.763,35.068
 14:37:05.285,eb:33:2e:f9:57:b5, 2085-97-48 00:173:255:2034,0.023,-0.042,0.996,1.77,2.93,-0.305,-1.225,2.791,35.063
 14:37:05.366,eb:33:2e:f9:57:b5, 2085-97-47 00:177:255:2022,0.023,-0.04,0.991,1.77,2.991,-0.305,-1.203,2.818,35.063
 14:37:05.366,eb:33:2e:f9:57:b5, 2085-97-46 00:179:255:2022,0.022,-0.038,0.985,1.587,3.052,-0.366,-1.187,2.851,35.057
 14:37:05.366,eb:33:2e:f9:57:b5, 2085-97-43 00:179:255:2019,0.022,-0.037,0.988,1.343,3.113,-0.427,-1.17,2.878,35.052
 14:37:05.366,eb:33:2e:f9:57:b5, 2085-97-45 00:178:255:2029,0.021,-0.038,0.989,1.16,3.113,-0.488,-1.159,2.911,35.046
 14:37:05.366,eb:33:2e:f9:57:b5, 2085-97-38 00:174:255:2025,0.018,-0.04,0.99,0.977,3.174,-0.61,-1.148,2.944,35.035
 14:37:05.367,eb:33:2e:f9:57:b5, 2085-97-36 00:175:255:2022,0.018,-0.04,0.988,0.916,2.808,-0.549,-1.137,2.972,35.03
 14:37:05.367,eb:33:2e:f9:57:b5, 2085-113-64 00:22:12:000,0.017,-0.039,0.986,0.793,2.563,-0.61,-1.126,2.999,35.024
 14:37:05.367,eb:33:2e:f9:57:b5, 2085-97-34 00:180:255:2014,0.015,-0.038,0.985,0.732,2.38,-0.549,-1.126,3.01,35.019
 14:37:05.425,eb:33:2e:f9:57:b5, 2085-97-31 00:179:255:2013,0.015,-0.037,0.982,0.427,2.014,-0.61,-1.115,3.032,35.013
 14:37:05.425,eb:33:2e:f9:57:b5, 2085-97-31 00:181:255:2015,0.014,-0.039,0.985,0.061,1.526,-0.61,-1.115,3.049,35.008
 14:37:05.425,eb:33:2e:f9:57:b5, 2085-97-28 00:184:255:2005,0.014,-0.037,0.98,-0.183,0.977,-0.671,-1.115,3.065,35.002
 14:37:05.425,eb:33:2e:f9:57:b5, 2085-97-30 00:176:255:2020,0.016,-0.037,0.983,-0.549,0.488,-0.61,-1.121,3.071,34.991
 14:37:05.515,eb:33:2e:f9:57:b5, 2085-97-38 00:173:255:2036,0.02,-0.041,0.989,-0.549,0.061,-0.671,-1.126,3.071,34.986
 14:37:05.515,eb:33:2e:f9:57:b5, 2085-97-39 00:175:255:2028,0.018,-0.04,0.994,-0.549,0.061,-0.61,-1.132,3.071,34.98
 14:37:05.515,eb:33:2e:f9:57:b5, 2085-97-43 00:173:255:2040,0.021,-0.039,0.992,-0.549,-0.061,-0.549,-1.137,3.071,34.975
 14:37:05.515,eb:33:2e:f9:57:b5, 2085-97-43 00:174:255:2038,0.019,-0.041,0.996,-0.427,0.061,-0.488,-1.143,3.071,34.969
 14:37:05.515,eb:33:2e:f9:57:b5, 2085-97-33 00:179:255:2022,0.017,-0.039,0.991,-0.488,0.122,-0.488,-1.143,3.076,34.964
 14:37:05.515,eb:33:2e:f9:57:b5, 2085-97-35 00:177:255:2028,0.017,-0.036,0.988,-0.671,0,-0.488,-1.148,3.076,34.958
 14:37:05.515,eb:33:2e:f9:57:b5, 2085-97-39 00:171:255:2034,0.02,-0.041,0.991,-0.671,-0.183,-0.488,-1.159,3.071,34.953
 14:37:05.515,eb:33:2e:f9:57:b5, 2085-97-43 00:172:255:2036,0.02,-0.041,0.994,-0.549,-0.244,-0.427,-1.165,3.071,34.948
 14:37:05.604,eb:33:2e:f9:57:b5, 2085-97-41 00:169:255:2042,0.022,-0.041,0.995,-0.427,-0.122,-0.366,-1.17,3.065,34.948
 14:37:05.604,eb:33:2e:f9:57:b5, 2085-97-47 00:167:255:2046,0.022,-0.043,0.999,-0.061,0,-0.305,-1.17,3.065,34.942
 14:37:05.604,eb:33:2e:f9:57:b5, 2085-97-39 00:175:255:2037,0.017,-0.04,0.998,0.183,0.366,-0.244,-1.17,3.071,34.942
 14:37:05.604,eb:33:2e:f9:57:b5, 2085-97-34 00:174:255:2028,0.017,-0.04,0.992,0.244,0.488,-0.122,-1.165,3.076,34.937
 14:37:05.608,eb:33:2e:f9:57:b5, 2085-97-35 00:175:255:2031,0.018,-0.041,0.991,0.183,0.244,-0.183,-1.165,3.076,34.937
 14:37:05.608,eb:33:2e:f9:57:b5, 2085-97-36 00:175:255:2030,0.018,-0.04,0.991,0.244,0.244,-0.122,-1.159,3.082,34.937
 14:37:05.608,eb:33:2e:f9:57:b5, 2085-97-36 00:173:255:2031,0.018,-0.04,0.991,0.183,0.244,-0.061,-1.159,3.082,34.937
 14:37:05.608,eb:33:2e:f9:57:b5, 2085-97-37 00:175:255:2030,0.018,-0.041,0.991,0.122,0.122,-0.122,-1.159,3.082,34.937
 14:37:05.608,eb:33:2e:f9:57:b5, 2085-97-37 00:177:255:2031,0.018,-0.039,0.992,0.122,0.183,-0.061,-1.159,3.082,34.931
 14:37:05.608,eb:33:2e:f9:57:b5, 2085-97-40 00:178:255:2030,0.019,-0.04,0.992,0,0.244,-0.122,-1.159,3.082,34.931
 14:37:05.608,eb:33:2e:f9:57:b5, 2085-97-36 00:178:255:2025,0.017,-0.038,0.99,0,0.366,0,-1.159,3.076,34.931
 14:37:05.609,eb:33:2e:f9:57:b5, 2085-97-30 00:176:255:2019,0.016,-0.038,0.986,-0.244,0.244,-0.061,-1.159,3.076,34.931
 14:37:05.664,eb:33:2e:f9:57:b5, 2085-97-29 00:174:255:2019,0.015,-0.04,0.986,-0.366,0,-0.061,-1.159,3.076,34.931
 14:37:05.664,eb:33:2e:f9:57:b5, 2085-97-33 00:177:255:2020,0.018,-0.04,0.986,-0.488,-0.427,0,-1.159,3.076,34.931
 14:37:05.664,eb:33:2e:f9:57:b5, 2085-97-42 00:175:255:2033,0.022,-0.039,0.989,-0.61,-0.549,0,-1.159,3.076,34.931
 14:37:05.664,eb:33:2e:f9:57:b5, 2085-97-44 00:177:255:2032,0.019,-0.039,0.993,-0.671,-0.061,-0.061,-1.159,3.076,34.931
 14:37:05.724,eb:33:2e:f9:57:b5, 2085-97-36 00:174:255:2024,0.016,-0.04,0.99,-0.732,0.122,0,-1.159,3.076,34.931
 14:37:05.724,eb:33:2e:f9:57:b5, 2085-97-32 00:173:255:2023,0.016,-0.04,0.988,-0.793,0,-0.061,-1.159,3.076,34.931
 14:37:05.724,eb:33:2e:f9:57:b5, 2085-97-35 00:172:255:2026,0.017,-0.041,0.988,-0.916,-0.183,0,-1.159,3.076,34.931
 14:37:05.724,eb:33:2e:f9:57:b5, 2085-97-34 00:173:255:2024,0.016,-0.04,0.989,-0.977,-0.305,0,-1.159,3.076,34.931
 14:37:05.726,eb:33:2e:f9:57:b5, 2085-97-32 00:172:255:2020,0.016,-0.041,0.987,-1.038,-0.549,0,-1.159,3.071,34.931
 14:37:05.726,eb:33:2e:f9:57:b5, 2085-97-31 00:173:255:2020,0.016,-0.041,0.986,-1.16,-0.977,0,-1.159,3.071,34.931
 14:37:05.726,eb:33:2e:f9:57:b5, 2085-97-34 00:173:255:2022,0.018,-0.041,0.986,-1.221,-1.282,-0.061,-1.159,3.071,34.931
 14:37:05.726,eb:33:2e:f9:57:b5, 2085-97-37 00:172:255:2023,0.019,-0.041,0.987,-1.282,-1.526,0,-1.159,3.071,34.931
 14:37:05.785,eb:33:2e:f9:57:b5, 2085-97-39 00:173:255:2027,0.02,-0.042,0.988,-1.404,-1.77,-0.061,-1.159,3.071,34.931
 14:37:05.785,eb:33:2e:f9:57:b5, 2085-97-40 00:172:255:2027,0.021,-0.041,0.989,-1.526,-1.77,-0.061,-1.159,3.071,34.931
 14:37:05.785,eb:33:2e:f9:57:b5, 2085-97-42 00:169:255:2032,0.022,-0.042,0.99,-1.587,-1.77,-0.061,-1.159,3.071,34.931
 14:37:05.785,eb:33:2e:f9:57:b5, 2085-97-47 00:166:255:2041,0.023,-0.043,0.994,-1.526,-1.648,-0.061,-1.159,3.071,34.931
 14:37:05.843,eb:33:2e:f9:57:b5, 2085-97-49 00:167:255:2043,0.023,-0.044,0.997,-1.343,-1.404,0,-1.159,3.071,34.926
 14:37:05.843,eb:33:2e:f9:57:b5, 2085-97-45 00:165:255:2043,0.022,-0.044,0.998,-1.16,-1.099,-0.122,-1.159,3.071,34.926
 14:37:05.843,eb:33:2e:f9:57:b5, 2085-97-48 00:167:255:2043,0.023,-0.044,0.997,-0.977,-1.038,0,-1.159,3.071,34.926
 14:37:05.843,eb:33:2e:f9:57:b5, 2085-97-48 00:165:255:2042,0.022,-0.044,0.998,-0.793,-0.793,0,-1.159,3.071,34.926
 14:37:05.847,eb:33:2e:f9:57:b5, 2085-97-45 00:164:255:2039,0.021,-0.045,0.996,-0.549,-0.671,0.061,-1.159,3.071,34.926
 14:37:05.847,eb:33:2e:f9:57:b5, 2085-97-44 00:162:255:2038,0.022,-0.044,0.995,-0.427,-0.549,0.061,-1.159,3.071,34.926
 14:37:05.847,eb:33:2e:f9:57:b5, 2085-97-47 00:162:255:2043,0.023,-0.046,0.996,-0.122,-0.488,0.122,-1.159,3.065,34.926
 14:37:05.847,eb:33:2e:f9:57:b5, 2085-97-48 00:164:255:2040,0.022,-0.045,0.997,0,-0.427,0.183,-1.159,3.065,34.926
 14:37:05.905,eb:33:2e:f9:57:b5, 2085-97-44 00:167:255:2031,0.021,-0.043,0.995,0.061,-0.305,0.244,-1.159,3.065,34.926
 14:37:05.905,eb:33:2e:f9:57:b5, 2085-97-41 00:168:255:2028,0.021,-0.043,0.991,0.061,-0.305,0.244,-1.159,3.065,34.926
 14:37:05.905,eb:33:2e:f9:57:b5, 2085-97-42 00:168:255:2027,0.021,-0.043,0.99,0.061,-0.305,0.183,-1.159,3.065,34.926
 14:37:05.905,eb:33:2e:f9:57:b5, 2085-97-44 00:164:255:2035,0.021,-0.043,0.991,0.061,-0.427,0.183,-1.159,3.065,34.926
 14:37:06.054,eb:33:2e:f9:57:b5, 2085-97-43 00:163:255:2037,0.021,-0.045,0.995,0.183,-0.427,0.244,-1.159,3.065,34.926
 14:37:06.054,eb:33:2e:f9:57:b5, 2085-97-43 00:166:255:2031,0.02,-0.044,0.993,0.366,-0.549,0.366,-1.159,3.065,34.926
 14:37:06.054,eb:33:2e:f9:57:b5, 2085-97-43 00:166:255:2032,0.021,-0.044,0.992,0.488,-0.671,0.427,-1.159,3.065,34.926
 14:37:06.054,eb:33:2e:f9:57:b5, 2085-97-42 00:169:255:2027,0.022,-0.042,0.991,0.549,-0.854,0.427,-1.159,3.065,34.926
 14:37:06.116,eb:33:2e:f9:57:b5, 2085-97-42 00:165:255:2027,0.019,-0.043,0.991,0.488,-1.038,0.488,-1.159,3.06,34.926
 14:37:06.116,eb:33:2e:f9:57:b5, 2085-97-37 00:166:255:2023,0.018,-0.044,0.988,0.61,-1.282,0.549,-1.159,3.06,34.926
 14:37:06.117,eb:33:2e:f9:57:b5, 2085-113-81 00:18:122:-557,0.021,-0.044,0.989,0.732,-1.77,0.61,-1.159,3.06,34.926
 14:37:06.117,eb:33:2e:f9:57:b5, 2085-97-50 00:167:255:2038,0.026,-0.044,0.992,0.732,-1.892,0.732,-1.159,3.06,34.926
 14:37:06.117,eb:33:2e:f9:57:b5, 2085-97-57 00:170:255:2044,0.029,-0.042,0.999,0.916,-1.648,0.671,-1.159,3.06,34.926
 14:37:06.117,eb:33:2e:f9:57:b5, 2085-97-58 00:171:255:2045,0.027,-0.042,1,0.977,-1.038,0.61,-1.159,3.06,34.926
 14:37:06.117,eb:33:2e:f9:57:b5, 2085-97-52 00:170:255:2038,0.023,-0.042,0.997,1.099,-0.427,0.549,-1.159,3.06,34.926
 14:37:06.117,eb:33:2e:f9:57:b5, 2085-97-46 00:171:255:2028,0.023,-0.042,0.991,1.099,-0.305,0.549,-1.159,3.06,34.926
 14:37:06.117,eb:33:2e:f9:57:b5, 2085-97-51 00:172:255:2030,0.024,-0.041,0.989,0.977,-0.305,0.549,-1.159,3.06,34.926
 14:37:06.117,eb:33:2e:f9:57:b5, 2085-97-55 00:173:255:2033,0.024,-0.042,0.991,0.977,-0.183,0.549,-1.159,3.06,34.926
 14:37:06.117,eb:33:2e:f9:57:b5, 2085-97-49 00:174:255:2029,0.023,-0.041,0.991,0.916,-0.122,0.427,-1.159,3.06,34.926
 14:37:06.118,eb:33:2e:f9:57:b5, 2085-97-49 00:174:255:2027,0.024,-0.04,0.99,0.854,-0.183,0.366,-1.159,3.054,34.926
 14:37:06.118,eb:33:2e:f9:57:b5, 2085-97-53 00:172:255:2032,0.026,-0.042,0.991,0.732,-0.061,0.305,-1.159,3.054,34.92
 14:37:06.120,eb:33:2e:f9:57:b5, 2085-97-53 00:173:255:2036,0.025,-0.041,0.993,0.732,0.122,0.244,-1.165,3.054,34.92
 14:37:06.120,eb:33:2e:f9:57:b5, 2085-97-53 00:174:255:2035,0.028,-0.041,0.994,0.732,0.366,0.183,-1.165,3.054,34.92
 14:37:06.120,eb:33:2e:f9:57:b5, 2085-97-58 00:174:255:2041,0.026,-0.039,0.996,0.793,0.732,0.122,-1.165,3.054,34.92
 14:37:06.120,eb:33:2e:f9:57:b5, 2085-97-48 00:174:255:2033,0.022,-0.04,0.995,0.793,1.221,0.061,-1.165,3.054,34.92
 14:37:06.175,eb:33:2e:f9:57:b5, 2085-97-46 00:175:255:2025,0.021,-0.04,0.99,0.793,1.282,0.061,-1.165,3.054,34.92
 14:37:06.175,eb:33:2e:f9:57:b5, 2085-97-45 00:176:255:2027,0.022,-0.04,0.988,0.671,1.16,0.061,-1.165,3.054,34.92
 14:37:06.175,eb:33:2e:f9:57:b5, 2085-97-46 00:175:255:2028,0.023,-0.039,0.99,0.549,0.977,0,-1.165,3.049,34.92
 14:37:06.175,eb:33:2e:f9:57:b5, 2085-97-47 00:176:255:2027,0.023,-0.04,0.991,0.488,1.038,-0.061,-1.165,3.049,34.92
 14:37:06.234,eb:33:2e:f9:57:b5, 2085-97-46 00:175:255:2030,0.023,-0.039,0.99,0.366,0.977,-0.061,-1.165,3.049,34.92
 14:37:06.234,eb:33:2e:f9:57:b5, 2085-97-48 00:175:255:2029,0.023,-0.04,0.991,0.305,1.038,0,-1.165,3.049,34.92
 14:37:06.234,eb:33:2e:f9:57:b5, 2085-97-49 00:176:255:2036,0.024,-0.039,0.992,0.183,1.221,-0.183,-1.165,3.049,34.92
 14:37:06.234,eb:33:2e:f9:57:b5, 2085-97-47 00:174:255:2034,0.023,-0.04,0.994,0.366,1.404,-0.061,-1.165,3.049,34.92
 14:37:06.236,eb:33:2e:f9:57:b5, 2085-97-45 00:177:255:2031,0.021,-0.04,0.992,0.305,1.587,-0.122,-1.165,3.043,34.92
 14:37:06.236,eb:33:2e:f9:57:b5, 2085-97-42 00:174:255:2028,0.021,-0.039,0.99,0.244,1.587,-0.061,-1.165,3.043,34.92
 14:37:06.236,eb:33:2e:f9:57:b5, 2085-97-42 00:175:255:2030,0.021,-0.039,0.99,0.122,1.465,-0.122,-1.165,3.043,34.92
 14:37:06.236,eb:33:2e:f9:57:b5, 2085-97-43 00:174:255:2032,0.021,-0.04,0.992,0.122,1.465,-0.061,-1.165,3.043,34.92
 14:37:06.264,eb:33:2e:f9:57:b5, 2085-97-41 00:176:255:2027,0.02,-0.04,0.992,0.122,1.465,-0.061,-1.165,3.043,34.92
 14:37:06.264,eb:33:2e:f9:57:b5, 2085-97-40 00:175:255:2031,0.019,-0.041,0.99,0.061,1.343,-0.122,-1.165,3.043,34.92
 14:37:06.264,eb:33:2e:f9:57:b5, 2085-97-36 00:174:255:2026,0.018,-0.041,0.991,0.122,1.282,-0.122,-1.165,3.043,34.92
 14:37:06.264,eb:33:2e:f9:57:b5, 2085-97-38 00:175:255:2025,0.02,-0.04,0.988,0.122,0.977,-0.061,-1.165,3.043,34.92
 14:37:06.295,eb:33:2e:f9:57:b5, 2085-97-42 00:173:255:2033,0.021,-0.04,0.991,0.061,0.793,0,-1.165,3.038,34.92
 14:37:06.295,eb:33:2e:f9:57:b5, 2085-97-38 00:176:255:2029,0.018,-0.039,0.992,0.122,0.793,0,-1.165,3.038,34.92
 14:37:06.295,eb:33:2e:f9:57:b5, 2085-97-40 00:175:255:2030,0.021,-0.038,0.99,0,0.671,0,-1.165,3.038,34.92
 14:37:06.295,eb:33:2e:f9:57:b5, 2085-97-40 00:174:255:2032,0.019,-0.039,0.992,0,0.671,0,-1.165,3.038,34.92
 14:37:06.355,eb:33:2e:f9:57:b5, 2085-97-36 00:177:255:2027,0.017,-0.039,0.991,0.061,0.549,0,-1.165,3.038,34.92
 14:37:06.355,eb:33:2e:f9:57:b5, 2085-97-37 00:177:255:2023,0.019,-0.039,0.987,0,0.305,-0.061,-1.165,3.038,34.92
 14:37:06.355,eb:33:2e:f9:57:b5, 2085-97-39 00:177:255:2030,0.019,-0.039,0.99,-0.061,0.183,0,-1.165,3.038,34.92
 14:37:06.355,eb:33:2e:f9:57:b5, 2085-97-36 00:178:255:2023,0.017,-0.038,0.989,-0.122,0.122,-0.061,-1.165,3.038,34.92
 14:37:06.444,eb:33:2e:f9:57:b5, 2085-97-38 00:177:255:2023,0.019,-0.039,0.986,-0.244,0,-0.061,-1.165,3.032,34.92
 14:37:06.444,eb:33:2e:f9:57:b5, 2085-97-40 00:172:255:2036,0.019,-0.04,0.991,-0.305,-0.122,-0.122,-1.165,3.032,34.92
 14:37:06.444,eb:33:2e:f9:57:b5, 2085-97-40 00:171:255:2036,0.02,-0.041,0.994,-0.183,-0.244,0,-1.165,3.032,34.915
 14:37:06.444,eb:33:2e:f9:57:b5, 2085-97-38 00:174:255:2033,0.02,-0.041,0.993,0,-0.244,-0.061,-1.165,3.032,34.915
 14:37:06.446,eb:33:2e:f9:57:b5, 2085-97-41 00:172:255:2037,0.021,-0.041,0.994,0.061,-0.305,0,-1.165,3.032,34.915
 14:37:06.446,eb:33:2e:f9:57:b5, 2085-97-44 00:173:255:2038,0.021,-0.041,0.996,0.244,-0.244,0,-1.165,3.032,34.915
 14:37:06.446,eb:33:2e:f9:57:b5, 2085-97-42 00:175:255:2038,0.021,-0.041,0.995,0.305,-0.122,0,-1.165,3.032,34.915
 14:37:06.446,eb:33:2e:f9:57:b5, 2085-97-40 00:174:255:2036,0.02,-0.04,0.996,0.366,0.061,0,-1.165,3.032,34.915
 14:37:06.475,eb:33:2e:f9:57:b5, 2085-97-42 00:178:255:2030,0.022,-0.038,0.994,0.427,0.122,0,-1.165,3.032,34.915
 14:37:06.475,eb:33:2e:f9:57:b5, 2085-97-45 00:177:255:2034,0.022,-0.038,0.991,0.305,0.244,0,-1.165,3.032,34.915
 14:37:06.475,eb:33:2e:f9:57:b5, 2085-97-43 00:174:255:2037,0.02,-0.039,0.994,0.305,0.488,-0.122,-1.165,3.027,34.915
 14:37:06.475,eb:33:2e:f9:57:b5, 2085-97-39 00:177:255:2031,0.018,-0.04,0.993,0.366,0.549,-0.122,-1.165,3.027,34.915
 14:37:06.504,eb:33:2e:f9:57:b5, 2085-97-35 00:174:255:2024,0.016,-0.039,0.99,0.366,0.427,-0.122,-1.165,3.027,34.915
 14:37:06.504,eb:33:2e:f9:57:b5, 2085-97-39 00:177:255:2025,0.02,-0.04,0.987,0.305,0.122,0,-1.165,3.027,34.915
 14:37:06.504,eb:33:2e:f9:57:b5, 2085-97-43 00:176:255:2039,0.021,-0.039,0.992,0.305,0.061,-0.061,-1.165,3.027,34.915
 14:37:06.504,eb:33:2e:f9:57:b5, 2085-97-40 00:177:255:2034,0.02,-0.039,0.994,0.305,0.244,-0.061,-1.165,3.027,34.915
 14:37:06.534,eb:33:2e:f9:57:b5, 2085-97-40 00:175:255:2037,0.02,-0.04,0.993,0.366,0.305,-0.122,-1.165,3.027,34.915
 14:37:06.534,eb:33:2e:f9:57:b5, 2085-97-40 00:177:255:2034,0.018,-0.04,0.995,0.488,0.427,-0.122,-1.165,3.027,34.915
 14:37:06.534,eb:33:2e:f9:57:b5, 2085-97-36 00:181:255:2028,0.017,-0.038,0.991,0.488,0.366,-0.061,-1.165,3.027,34.915
 14:37:06.535,eb:33:2e:f9:57:b5, 2085-97-35 00:178:255:2025,0.019,-0.038,0.988,0.366,0.244,-0.061,-1.165,3.027,34.915
 14:37:06.623,eb:33:2e:f9:57:b5, 2085-97-41 00:178:255:2030,0.019,-0.038,0.991,0.305,0.183,-0.122,-1.165,3.021,34.915
 14:37:06.623,eb:33:2e:f9:57:b5, 2085-97-36 00:181:255:2023,0.017,-0.037,0.99,0.244,0.244,-0.122,-1.165,3.021,34.915
 14:37:06.623,eb:33:2e:f9:57:b5, 2085-97-38 00:175:255:2032,0.021,-0.038,0.989,0.122,0.122,-0.122,-1.165,3.021,34.915
 14:37:06.623,eb:33:2e:f9:57:b5, 2085-97-40 00:176:255:2036,0.02,-0.04,0.994,0.244,0.122,-0.122,-1.165,3.021,34.915
 14:37:06.628,eb:33:2e:f9:57:b5, 2085-97-36 00:180:255:2028,0.017,-0.038,0.994,0.366,0.183,-0.061,-1.165,3.021,34.915
 14:37:06.628,eb:33:2e:f9:57:b5, 2085-97-35 00:179:255:2025,0.016,-0.037,0.988,0.244,0.122,-0.122,-1.165,3.021,34.915
 14:37:06.628,eb:33:2e:f9:57:b5, 2085-97-35 00:181:255:2024,0.017,-0.037,0.988,0.183,-0.122,-0.061,-1.165,3.021,34.915
 14:37:06.628,eb:33:2e:f9:57:b5, 2085-97-37 00:182:255:2024,0.018,-0.036,0.987,-0.061,-0.183,-0.122,-1.165,3.021,34.915
 14:37:06.684,eb:33:2e:f9:57:b5, 2085-97-33 00:180:255:2021,0.017,-0.036,0.989,-0.183,-0.244,-0.183,-1.165,3.021,34.909
 14:37:06.684,eb:33:2e:f9:57:b5, 2085-97-34 00:185:255:2011,0.016,-0.036,0.984,-0.488,-0.549,-0.183,-1.165,3.021,34.909
 14:37:06.684,eb:33:2e:f9:57:b5, 2085-97-37 00:176:255:2028,0.022,-0.037,0.985,-0.732,-0.793,-0.244,-1.165,3.021,34.909
 14:37:06.684,eb:33:2e:f9:57:b5, 2085-97-47 00:173:255:2046,0.021,-0.041,0.997,-0.61,-0.854,-0.305,-1.165,3.021,34.909
 14:37:06.744,eb:33:2e:f9:57:b5, 2085-97-45 00:175:255:2043,0.019,-0.04,0.999,-0.366,-0.671,-0.183,-1.165,3.016,34.909
 14:37:06.744,eb:33:2e:f9:57:b5, 2085-97-36 00:177:255:2031,0.019,-0.04,0.994,-0.183,-0.61,-0.122,-1.165,3.016,34.909
 14:37:06.744,eb:33:2e:f9:57:b5, 2085-97-39 00:177:255:2031,0.02,-0.039,0.99,-0.122,-0.732,-0.061,-1.159,3.016,34.909
 14:37:06.744,eb:33:2e:f9:57:b5, 2085-97-40 00:180:255:2026,0.016,-0.038,0.989,-0.122,-0.854,-0.122,-1.159,3.016,34.909
 14:37:06.776,eb:33:2e:f9:57:b5, 2085-97-36 00:179:255:2021,0.017,-0.038,0.987,-0.244,-1.099,-0.061,-1.159,3.016,34.909
 14:37:06.776,eb:33:2e:f9:57:b5, 2085-97-39 00:176:255:2024,0.019,-0.04,0.988,-0.366,-1.343,-0.061,-1.159,3.016,34.909
 14:37:06.776,eb:33:2e:f9:57:b5, 2085-97-43 00:174:255:2033,0.021,-0.04,0.991,-0.427,-1.465,-0.061,-1.159,3.016,34.909
 14:37:06.776,eb:33:2e:f9:57:b5, 2085-113-81 00:20:122:-553,0.023,-0.04,0.992,-0.305,-1.526,0,-1.159,3.016,34.909
 14:37:06.779,eb:33:2e:f9:57:b5, 2085-97-45 00:176:255:2037,0.024,-0.039,0.993,-0.305,-1.465,0,-1.159,3.016,34.909
 14:37:06.779,eb:33:2e:f9:57:b5, 2085-97-49 00:174:255:2039,0.022,-0.039,0.996,-0.183,-1.221,0,-1.159,3.016,34.909
 14:37:06.779,eb:33:2e:f9:57:b5, 2085-97-43 00:177:255:2036,0.021,-0.04,0.995,0,-1.038,0.061,-1.159,3.016,34.909
 14:37:06.779,eb:33:2e:f9:57:b5, 2085-97-44 00:176:255:2030,0.021,-0.038,0.993,0,-1.038,0.122,-1.159,3.016,34.909
 14:37:06.834,eb:33:2e:f9:57:b5, 2085-97-42 00:177:255:2030,0.02,-0.039,0.991,0,-1.16,0.061,-1.159,3.016,34.909
 14:37:06.834,eb:33:2e:f9:57:b5, 2085-97-42 00:178:255:2026,0.021,-0.039,0.99,-0.061,-1.282,0.061,-1.159,3.016,34.909
 14:37:06.834,eb:33:2e:f9:57:b5, 2085-97-41 00:176:255:2027,0.021,-0.038,0.99,-0.122,-1.404,0.061,-1.159,3.01,34.909
 14:37:06.834,eb:33:2e:f9:57:b5, 2085-97-45 00:178:255:2028,0.022,-0.038,0.989,-0.183,-1.526,0.183,-1.159,3.01,34.909
 14:37:06.925,eb:33:2e:f9:57:b5, 2085-97-47 00:177:255:2029,0.023,-0.039,0.99,-0.183,-1.526,0.122,-1.159,3.01,34.909
 14:37:06.925,eb:33:2e:f9:57:b5, 2085-97-49 00:177:255:2035,0.024,-0.039,0.993,-0.244,-1.465,0.183,-1.159,3.01,34.909
 14:37:06.925,eb:33:2e:f9:57:b5, 2085-97-50 00:175:255:2040,0.025,-0.039,0.995,-0.183,-1.282,0.122,-1.159,3.01,34.904
 14:37:06.925,eb:33:2e:f9:57:b5, 2085-97-54 00:176:255:2044,0.027,-0.04,0.998,-0.122,-1.099,0.122,-1.159,3.01,34.904
 14:37:06.925,eb:33:2e:f9:57:b5, 2085-97-53 00:178:255:2039,0.024,-0.04,0.998,0,-0.793,0.122,-1.159,3.01,34.904
 14:37:06.926,eb:33:2e:f9:57:b5, 2085-97-51 00:178:255:2032,0.026,-0.038,0.994,-0.061,-0.549,0.183,-1.159,3.01,34.904
 14:37:06.926,eb:33:2e:f9:57:b5, 2085-97-53 00:178:255:2031,0.024,-0.038,0.992,-0.061,-0.305,0.183,-1.159,3.01,34.904
 14:37:06.926,eb:33:2e:f9:57:b5, 2085-97-48 00:178:255:2029,0.023,-0.038,0.991,-0.122,-0.244,0.183,-1.159,3.01,34.904
 14:37:06.954,eb:33:2e:f9:57:b5, 2085-97-50 00:175:255:2035,0.026,-0.039,0.991,-0.244,-0.183,0.122,-1.159,3.01,34.904
 14:37:06.954,eb:33:2e:f9:57:b5, 2085-97-53 00:176:255:2039,0.025,-0.04,0.995,-0.183,0,0.183,-1.159,3.01,34.904
 14:37:06.954,eb:33:2e:f9:57:b5, 2085-97-48 00:177:255:2031,0.023,-0.038,0.994,-0.183,0.122,0.183,-1.159,3.005,34.904
 14:37:06.954,eb:33:2e:f9:57:b5, 2085-97-46 00:176:255:2030,0.023,-0.04,0.991,-0.244,0.061,0.183,-1.159,3.005,34.904
 14:37:06.986,eb:33:2e:f9:57:b5, 2085-97-49 00:177:255:2028,0.024,-0.039,0.991,-0.244,0.061,0.122,-1.159,3.005,34.904
 14:37:06.986,eb:33:2e:f9:57:b5, 2085-97-49 00:175:255:2029,0.024,-0.039,0.991,-0.305,0.061,0.122,-1.159,3.005,34.904
 14:37:06.986,eb:33:2e:f9:57:b5, 2085-97-50 00:178:255:2028,0.025,-0.039,0.99,-0.366,0.061,0.061,-1.154,3.005,34.904
 14:37:06.986,eb:33:2e:f9:57:b5, 2085-97-50 00:178:255:2034,0.024,-0.038,0.992,-0.488,0.183,0,-1.154,3.005,34.904
 14:37:07.015,eb:33:2e:f9:57:b5, 2085-97-50 00:174:255:2032,0.023,-0.039,0.993,-0.488,0.366,0.061,-1.154,3.005,34.904
 14:37:07.015,eb:33:2e:f9:57:b5, 2085-97-48 00:176:255:2028,0.022,-0.039,0.991,-0.549,0.366,0,-1.154,3.005,34.904
 14:37:07.015,eb:33:2e:f9:57:b5, 2085-97-42 00:177:255:2022,0.021,-0.039,0.988,-0.61,0.183,0,-1.154,2.999,34.904
 14:37:07.015,eb:33:2e:f9:57:b5, 2085-97-45 00:175:255:2024,0.024,-0.04,0.987,-0.793,-0.061,-0.061,-1.154,2.999,34.904
 14:37:07.075,eb:33:2e:f9:57:b5, 2085-97-50 00:175:255:2027,0.025,-0.04,0.989,-0.854,-0.183,-0.122,-1.154,2.999,34.904
 14:37:07.075,eb:33:2e:f9:57:b5, 2085-97-52 00:175:255:2037,0.027,-0.04,0.992,-0.793,-0.122,-0.183,-1.154,2.999,34.904
 14:37:07.075,eb:33:2e:f9:57:b5, 2085-97-55 00:170:255:2041,0.027,-0.041,0.996,-0.732,0.061,-0.122,-1.154,2.999,34.904
 14:37:07.075,eb:33:2e:f9:57:b5, 2085-97-56 00:170:255:2046,0.027,-0.042,0.999,-0.427,0.305,-0.244,-1.154,2.999,34.904
 14:37:07.104,eb:33:2e:f9:57:b5, 2085-97-54 00:173:255:2038,0.024,-0.041,0.997,-0.244,0.61,-0.305,-1.154,2.999,34.904
 14:37:07.104,eb:33:2e:f9:57:b5, 2085-97-47 00:174:255:2033,0.022,-0.04,0.993,-0.244,0.854,-0.305,-1.154,2.999,34.904
 14:37:07.104,eb:33:2e:f9:57:b5, 2085-97-42 00:171:255:2031,0.021,-0.042,0.993,-0.061,0.732,-0.305,-1.154,2.994,34.904
 14:37:07.104,eb:33:2e:f9:57:b5, 2085-97-48 00:170:255:2034,0.023,-0.042,0.991,0,0.366,-0.244,-1.154,2.994,34.904
 14:37:07.135,eb:33:2e:f9:57:b5, 2085-97-50 00:171:255:2034,0.023,-0.042,0.992,0.122,0.305,-0.183,-1.154,2.994,34.904
 14:37:07.135,eb:33:2e:f9:57:b5, 2085-97-45 00:170:255:2031,0.022,-0.042,0.992,0.244,0.244,-0.183,-1.154,2.994,34.898
 14:37:07.135,eb:33:2e:f9:57:b5, 2085-97-46 00:173:255:2030,0.023,-0.041,0.991,0.244,0.183,-0.244,-1.154,2.994,34.898
 14:37:07.135,eb:33:2e:f9:57:b5, 2085-97-51 00:172:255:2034,0.025,-0.041,0.992,0.244,0.244,-0.183,-1.154,2.994,34.865
 14:37:07.196,eb:33:2e:f9:57:b5, 2085-97-50 00:172:255:2033,0.023,-0.04,0.994,0.305,0.427,-0.183,-1.154,2.994,34.865
 14:37:07.196,eb:33:2e:f9:57:b5, 2085-97-46 00:175:255:2031,0.023,-0.04,0.992,0.366,0.549,-0.244,-1.154,2.994,34.832
 14:37:07.196,eb:33:2e:f9:57:b5, 2085-97-50 00:172:255:2036,0.024,-0.041,0.994,0.427,0.61,-0.244,-1.154,2.988,34.832
 14:37:07.196,eb:33:2e:f9:57:b5, 2085-97-48 00:172:255:2040,0.023,-0.04,0.996,0.61,0.793,-0.244,-1.154,2.988,34.799
 14:37:07.254,eb:33:2e:f9:57:b5, 2085-97-48 00:170:255:2039,0.023,-0.042,0.996,0.793,0.854,-0.244,-1.154,2.988,34.799
 14:37:07.254,eb:33:2e:f9:57:b5, 2085-97-49 00:174:255:2038,0.023,-0.042,0.996,0.916,0.916,-0.244,-1.154,2.988,34.766
 14:37:07.254,eb:33:2e:f9:57:b5, 2085-97-46 00:176:255:2035,0.022,-0.039,0.993,1.038,0.977,-0.183,-1.154,2.988,34.766
 14:37:07.254,eb:33:2e:f9:57:b5, 2085-97-47 00:176:255:2032,0.023,-0.039,0.994,0.977,0.977,-0.183,-1.154,2.988,34.733
 14:37:07.286,eb:33:2e:f9:57:b5, 2085-97-47 00:178:255:2033,0.022,-0.039,0.993,1.038,1.099,-0.244,-1.154,2.988,34.733
 14:37:07.286,eb:33:2e:f9:57:b5, 2085-97-45 00:177:255:2031,0.022,-0.038,0.992,0.977,1.282,-0.183,-1.154,2.988,34.7
 14:37:07.286,eb:33:2e:f9:57:b5, 2085-97-44 00:175:255:2033,0.023,-0.039,0.992,0.977,1.282,-0.244,-1.154,2.983,34.7
 14:37:07.286,eb:33:2e:f9:57:b5, 2085-97-43 00:176:255:2035,0.021,-0.04,0.994,1.038,1.343,-0.183,-1.154,2.983,34.667
 14:37:07.404,eb:33:2e:f9:57:b5, 2085-97-43 00:176:255:2034,0.021,-0.038,0.994,1.099,1.343,-0.244,-1.154,2.983,34.667
 14:37:07.404,eb:33:2e:f9:57:b5, 2085-97-43 00:173:255:2037,0.021,-0.04,0.994,1.221,1.343,-0.122,-1.154,2.983,34.634
 14:37:07.404,eb:33:2e:f9:57:b5, 2085-97-43 00:179:255:2036,0.02,-0.038,0.994,1.282,1.404,-0.122,-1.154,2.983,34.634
 14:37:07.405,eb:33:2e:f9:57:b5, 2085-97-40 00:180:255:2032,0.02,-0.036,0.993,1.343,1.465,-0.061,-1.154,2.983,34.601
 14:37:07.405,eb:33:2e:f9:57:b5, 2085-97-41 00:180:255:2028,0.019,-0.038,0.99,1.282,1.404,0,-1.154,2.983,34.601
 14:37:07.405,eb:33:2e:f9:57:b5, 2085-97-38 00:181:255:2024,0.019,-0.037,0.988,1.221,1.343,0,-1.154,2.983,34.568
 14:37:07.405,eb:33:2e:f9:57:b5, 2085-97-39 00:181:255:2023,0.019,-0.036,0.988,1.099,1.16,-0.061,-1.154,2.977,34.568
 14:37:07.405,eb:33:2e:f9:57:b5, 2085-97-38 00:182:255:2025,0.018,-0.036,0.988,0.916,1.038,0,-1.154,2.977,34.536
 14:37:07.408,eb:33:2e:f9:57:b5, 2085-97-37 00:185:255:2023,0.017,-0.035,0.989,0.793,0.977,-0.061,-1.154,2.977,34.536
 14:37:07.408,eb:33:2e:f9:57:b5, 2085-97-37 00:185:255:2024,0.018,-0.035,0.987,0.61,0.854,0,-1.154,2.977,34.503
 14:37:07.408,eb:33:2e:f9:57:b5, 2085-97-37 00:185:255:2022,0.018,-0.036,0.988,0.427,0.793,-0.061,-1.148,2.977,34.503
 14:37:07.408,eb:33:2e:f9:57:b5, 2085-97-34 00:183:255:2020,0.017,-0.035,0.987,0.305,0.732,-0.061,-1.148,2.977,34.47
 14:37:07.434,eb:33:2e:f9:57:b5, 2085-97-36 00:186:255:2025,0.017,-0.035,0.986,0.061,0.61,-0.183,-1.148,2.977,34.47
 14:37:07.434,eb:33:2e:f9:57:b5, 2085-97-35 00:181:255:2029,0.017,-0.036,0.989,-0.061,0.427,-0.122,-1.148,2.977,34.437
 14:37:07.434,eb:33:2e:f9:57:b5, 2085-97-33 00:182:255:2026,0.016,-0.036,0.99,-0.244,0.366,-0.061,-1.148,2.977,34.437
 14:37:07.434,eb:33:2e:f9:57:b5, 2085-97-33 00:183:255:2024,0.016,-0.036,0.988,-0.305,0.122,-0.061,-1.148,2.977,34.404
 14:37:07.586,eb:33:2e:f9:57:b5, 2085-97-33 00:184:255:2024,0.017,-0.035,0.988,-0.427,0,-0.061,-1.148,2.972,34.404
 14:37:07.586,eb:33:2e:f9:57:b5, 2085-97-35 00:183:255:2026,0.018,-0.036,0.988,-0.549,-0.244,-0.061,-1.148,2.972,34.371
 14:37:07.586,eb:33:2e:f9:57:b5, 2085-97-39 00:183:255:2030,0.019,-0.037,0.989,-0.671,-0.305,0,-1.148,2.972,34.371
 14:37:07.586,eb:33:2e:f9:57:b5, 2085-113-81 00:68:122:-549,0.02,-0.035,0.991,-0.793,-0.305,0,-1.148,2.972,34.338
 14:37:07.586,eb:33:2e:f9:57:b5, 2085-97-37 00:181:255:2029,0.019,-0.034,0.99,-0.916,-0.183,-0.061,-1.148,2.972,34.338
 14:37:07.588,eb:33:2e:f9:57:b5, 2085-97-39 00:180:255:2032,0.02,-0.037,0.991,-1.038,-0.183,-0.061,-1.148,2.972,34.338
 14:37:07.588,eb:33:2e:f9:57:b5, 2085-97-39 00:180:255:2030,0.018,-0.037,0.992,-1.038,-0.183,-0.061,-1.148,2.972,34.305
 14:37:07.588,eb:33:2e:f9:57:b5, 2085-97-36 00:180:255:2027,0.018,-0.036,0.99,-1.16,-0.183,-0.061,-1.148,2.972,34.305
 14:37:07.588,eb:33:2e:f9:57:b5, 2085-97-36 00:179:255:2026,0.018,-0.038,0.989,-1.282,-0.244,-0.061,-1.148,2.972,34.272
 14:37:07.590,eb:33:2e:f9:57:b5, 2085-97-36 00:181:255:2026,0.018,-0.037,0.99,-1.282,-0.366,0,-1.148,2.972,34.266
 14:37:07.590,eb:33:2e:f9:57:b5, 2085-97-38 00:179:255:2029,0.019,-0.038,0.989,-1.404,-0.488,0,-1.148,2.972,34.239
 14:37:07.590,eb:33:2e:f9:57:b5, 2085-97-40 00:179:255:2029,0.019,-0.038,0.991,-1.465,-0.61,-0.061,-1.148,2.972,34.233
 14:37:07.590,eb:33:2e:f9:57:b5, 2085-97-37 00:177:255:2025,0.018,-0.038,0.99,-1.526,-0.549,-0.061,-1.148,2.972,34.206
 14:37:07.593,eb:33:2e:f9:57:b5, 2085-97-36 00:177:255:2026,0.018,-0.039,0.988,-1.526,-0.61,0,-1.148,2.972,34.2
 14:37:07.593,eb:33:2e:f9:57:b5, 2085-97-38 00:176:255:2030,0.018,-0.039,0.99,-1.587,-0.732,0,-1.148,2.972,34.167
 14:37:07.593,eb:33:2e:f9:57:b5, 2085-97-37 00:176:255:2030,0.018,-0.039,0.991,-1.648,-0.854,0,-1.143,2.966,34.167
 14:37:07.593,eb:33:2e:f9:57:b5, 2085-97-36 00:174:255:2030,0.018,-0.039,0.991,-1.648,-0.916,0,-1.148,2.966,34.135
 14:37:07.676,eb:33:2e:f9:57:b5, 2085-97-39 00:172:255:2032,0.02,-0.041,0.991,-1.587,-1.099,0,-1.143,2.966,34.135
 14:37:07.676,eb:33:2e:f9:57:b5, 2085-97-41 00:175:255:2032,0.02,-0.041,0.993,-1.465,-1.343,0.061,-1.143,2.966,34.102
 14:37:07.676,eb:33:2e:f9:57:b5, 2085-97-41 00:173:255:2033,0.021,-0.041,0.993,-1.465,-1.343,0.061,-1.143,2.966,34.102
 14:37:07.676,eb:33:2e:f9:57:b5, 2085-97-43 00:171:255:2032,0.021,-0.041,0.992,-1.465,-1.221,0.061,-1.143,2.966,34.069
 14:37:07.676,eb:33:2e:f9:57:b5, 2085-97-44 00:172:255:2034,0.021,-0.042,0.993,-1.404,-1.221,0.061,-1.143,2.966,34.069
 14:37:07.676,eb:33:2e:f9:57:b5, 2085-97-44 00:171:255:2033,0.021,-0.041,0.993,-1.404,-1.099,0.183,-1.143,2.966,34.036
 14:37:07.677,eb:33:2e:f9:57:b5, 2085-97-46 00:169:255:2037,0.024,-0.042,0.993,-1.282,-1.038,0.122,-1.143,2.966,34.036
 14:37:07.677,eb:33:2e:f9:57:b5, 2085-97-51 00:171:255:2041,0.024,-0.042,0.997,-1.16,-0.732,0.183,-1.143,2.966,34.003
 14:37:07.704,eb:33:2e:f9:57:b5, 2085-97-45 00:168:255:2037,0.021,-0.042,0.997,-0.977,-0.488,0.244,-1.143,2.966,34.003
 14:37:07.704,eb:33:2e:f9:57:b5, 2085-97-40 00:168:255:2030,0.021,-0.043,0.992,-0.916,-0.488,0.183,-1.143,2.966,33.97
 14:37:07.704,eb:33:2e:f9:57:b5, 2085-97-44 00:168:255:2032,0.021,-0.042,0.992,-0.854,-0.671,0.122,-1.143,2.966,33.97
 14:37:07.704,eb:33:2e:f9:57:b5, 2085-97-45 00:167:255:2035,0.023,-0.043,0.992,-0.732,-0.732,0.183,-1.143,2.966,33.937
 14:37:07.795,eb:33:2e:f9:57:b5, 2085-97-50 00:164:255:2043,0.024,-0.044,0.996,-0.488,-0.671,0.183,-1.143,2.966,33.937
 14:37:07.795,eb:33:2e:f9:57:b5, 2085-97-49 00:167:255:2041,0.022,-0.044,0.997,-0.244,-0.366,0.244,-1.143,2.966,33.904
 14:37:07.795,eb:33:2e:f9:57:b5, 2085-97-46 00:166:255:2038,0.023,-0.043,0.996,-0.061,-0.244,0.244,-1.143,2.966,33.904
 14:37:07.795,eb:33:2e:f9:57:b5, 2085-97-47 00:169:255:2038,0.023,-0.044,0.995,0,-0.122,0.183,-1.143,2.966,33.871
 14:37:07.824,eb:33:2e:f9:57:b5, 2085-97-45 00:170:255:2034,0.023,-0.042,0.994,0.122,-0.122,0.122,-1.143,2.961,33.871
 14:37:07.824,eb:33:2e:f9:57:b5, 2085-97-48 00:169:255:2034,0.023,-0.043,0.993,0.061,-0.061,0.122,-1.143,2.961,33.838
 14:37:07.824,eb:33:2e:f9:57:b5, 2085-97-50 00:169:255:2034,0.023,-0.042,0.993,0.122,0.061,0.061,-1.143,2.961,33.838
 14:37:07.824,eb:33:2e:f9:57:b5, 2085-97-46 00:170:255:2029,0.021,-0.042,0.992,0.061,0.305,0,-1.143,2.961,33.805
 14:37:07.827,eb:33:2e:f9:57:b5, 2085-97-45 00:167:255:2032,0.021,-0.043,0.991,0.122,0.366,0,-1.143,2.961,33.805
 14:37:07.827,eb:33:2e:f9:57:b5, 2085-97-44 00:171:255:2031,0.021,-0.043,0.992,0.122,0.305,0,-1.143,2.961,33.772
 14:37:07.827,eb:33:2e:f9:57:b5, 2085-97-45 00:166:255:2032,0.021,-0.042,0.992,0.183,0.305,0,-1.143,2.961,33.772
 14:37:07.827,eb:33:2e:f9:57:b5, 2085-97-44 00:170:255:2032,0.021,-0.043,0.992,0.244,0.183,0.061,-1.143,2.961,33.739
 14:37:07.885,eb:33:2e:f9:57:b5, 2085-97-45 00:169:255:2033,0.022,-0.042,0.993,0.366,0.244,0.061,-1.143,2.961,33.739
 14:37:07.885,eb:33:2e:f9:57:b5, 2085-97-46 00:169:255:2033,0.021,-0.042,0.993,0.366,0.305,0.061,-1.143,2.961,33.706
 14:37:07.885,eb:33:2e:f9:57:b5, 2085-97-42 00:172:255:2027,0.021,-0.042,0.992,0.366,0.366,0.061,-1.143,2.961,33.706
 14:37:07.885,eb:33:2e:f9:57:b5, 2085-97-45 00:170:255:2029,0.022,-0.041,0.99,0.244,0.244,0.061,-1.143,2.961,33.679
 14:37:07.914,eb:33:2e:f9:57:b5, 2085-97-44 00:170:255:2030,0.021,-0.042,0.991,0.244,0.305,0.183,-1.143,2.961,33.673
 14:37:07.914,eb:33:2e:f9:57:b5, 2085-97-42 00:172:255:2029,0.02,-0.041,0.991,0.244,0.366,0.122,-1.143,2.961,33.646
 14:37:07.914,eb:33:2e:f9:57:b5, 2085-97-42 00:169:255:2027,0.021,-0.041,0.99,0.122,0.244,0.061,-1.143,2.955,33.646
 14:37:07.914,eb:33:2e:f9:57:b5, 2085-97-42 00:172:255:2026,0.021,-0.042,0.99,0.061,0.122,0.122,-1.143,2.955,33.613
 14:37:07.946,eb:33:2e:f9:57:b5, 2085-97-43 00:173:255:2028,0.021,-0.04,0.989,0,0.122,0.122,-1.143,2.955,33.613
 14:37:07.946,eb:33:2e:f9:57:b5, 2085-97-45 00:171:255:2031,0.021,-0.041,0.991,0,0,0,-1.143,2.955,33.58
 14:37:07.946,eb:33:2e:f9:57:b5, 2085-97-43 00:171:255:2032,0.021,-0.042,0.992,0,0,0,-1.143,2.955,33.58
 14:37:07.946,eb:33:2e:f9:57:b5, 2085-97-43 00:169:255:2031,0.021,-0.042,0.992,0,0,0,-1.143,2.955,33.547
 14:37:08.004,eb:33:2e:f9:57:b5, 2085-97-45 00:172:255:2031,0.021,-0.042,0.992,0,-0.061,0,-1.143,2.955,33.547
 14:37:08.004,eb:33:2e:f9:57:b5, 2085-97-45 00:171:255:2032,0.023,-0.042,0.992,0,-0.061,0,-1.143,2.955,33.514
 14:37:08.004,eb:33:2e:f9:57:b5, 2085-97-44 00:171:255:2031,0.021,-0.041,0.992,0,0,-0.061,-1.143,2.955,33.514
 14:37:08.004,eb:33:2e:f9:57:b5, 2085-97-44 00:171:255:2029,0.022,-0.042,0.991,-0.122,0,0,-1.143,2.955,33.481
 14:37:08.034,eb:33:2e:f9:57:b5, 2085-97-45 00:171:255:2032,0.022,-0.042,0.993,-0.122,-0.061,0,-1.143,2.955,33.481
 14:37:08.034,eb:33:2e:f9:57:b5, 2085-97-46 00:170:255:2032,0.021,-0.042,0.993,-0.122,0,0,-1.143,2.955,33.448
 14:37:08.034,eb:33:2e:f9:57:b5, 2085-97-43 00:172:255:2031,0.021,-0.042,0.992,-0.061,0.061,-0.061,-1.143,2.955,33.448
 14:37:08.035,eb:33:2e:f9:57:b5, 2085-97-43 00:169:255:2030,0.021,-0.042,0.992,-0.061,0.061,0,-1.143,2.955,33.415
 14:37:08.064,eb:33:2e:f9:57:b5, 2085-97-45 00:170:255:2032,0.021,-0.042,0.991,0,0.061,-0.061,-1.143,2.95,33.415
 14:37:08.064,eb:33:2e:f9:57:b5, 2085-97-44 00:171:255:2031,0.022,-0.042,0.992,0,0.061,0,-1.143,2.95,33.382
 14:37:08.064,eb:33:2e:f9:57:b5, 2085-97-44 00:171:255:2032,0.021,-0.042,0.992,0,0.061,-0.122,-1.143,2.95,33.382
 14:37:08.064,eb:33:2e:f9:57:b5, 2085-97-44 00:171:255:2033,0.021,-0.042,0.992,0,0.122,0,-1.143,2.95,33.349
 14:37:08.124,eb:33:2e:f9:57:b5, 2085-97-45 00:170:255:2032,0.021,-0.042,0.993,0.061,0.122,0,-1.143,2.95,33.349
 14:37:08.124,eb:33:2e:f9:57:b5, 2085-113-58 00:236:215:2610,0.021,-0.041,0.991,0.061,0.122,0,-1.143,2.95,33.316
 14:37:08.124,eb:33:2e:f9:57:b5, 2085-97-42 00:170:255:2030,0.021,-0.042,0.991,0,0.061,0,-1.143,2.95,33.316
 14:37:08.124,eb:33:2e:f9:57:b5, 2085-97-43 00:170:255:2030,0.021,-0.042,0.991,0,0.061,0,-1.143,2.95,33.283
 14:37:08.185,eb:33:2e:f9:57:b5, 2085-97-45 00:170:255:2029,0.021,-0.042,0.991,0,-0.061,0,-1.143,2.95,33.283
 14:37:08.185,eb:33:2e:f9:57:b5, 2085-97-44 00:171:255:2030,0.021,-0.042,0.991,0,-0.122,0,-1.143,2.95,33.25
 14:37:08.185,eb:33:2e:f9:57:b5, 2085-97-45 00:171:255:2030,0.021,-0.042,0.992,0.061,-0.122,0.061,-1.143,2.95,33.25
 14:37:08.185,eb:33:2e:f9:57:b5, 2085-97-45 00:169:255:2030,0.022,-0.042,0.991,0,-0.122,0,-1.143,2.95,33.223
 14:37:08.188,eb:33:2e:f9:57:b5, 2085-97-47 00:169:255:2036,0.022,-0.042,0.993,0.061,-0.061,0,-1.148,2.944,33.217
 14:37:08.188,eb:33:2e:f9:57:b5, 2085-97-47 00:172:255:2034,0.021,-0.042,0.993,0.061,0,0,-1.148,2.944,33.19
 14:37:08.188,eb:33:2e:f9:57:b5, 2085-97-42 00:171:255:2032,0.021,-0.042,0.992,0.061,0.061,0,-1.148,2.944,33.19
 14:37:08.188,eb:33:2e:f9:57:b5, 2085-97-42 00:172:255:2027,0.021,-0.042,0.99,0.061,0.061,0,-1.148,2.944,33.157
 14:37:08.334,eb:33:2e:f9:57:b5, 2085-97-45 00:173:255:2032,0.022,-0.041,0.991,0.061,0,0,-1.148,2.944,33.157
 14:37:08.334,eb:33:2e:f9:57:b5, 2085-97-44 00:169:255:2033,0.021,-0.042,0.993,0.061,0.122,0,-1.148,2.944,33.124
 14:37:08.334,eb:33:2e:f9:57:b5, 2085-97-43 00:171:255:2029,0.021,-0.042,0.991,0.183,0.183,0,-1.148,2.944,33.124
 14:37:08.334,eb:33:2e:f9:57:b5, 2085-97-45 00:172:255:2033,0.021,-0.042,0.992,0.122,0.244,0,-1.148,2.944,33.091
 14:37:08.336,eb:33:2e:f9:57:b5, 2085-97-45 00:169:255:2031,0.022,-0.042,0.992,0.122,0.305,0,-1.148,2.944,33.091
 14:37:08.336,eb:33:2e:f9:57:b5, 2085-97-44 00:168:255:2034,0.022,-0.043,0.993,0.183,0.244,0,-1.148,2.944,33.058
 14:37:08.336,eb:33:2e:f9:57:b5, 2085-97-43 00:171:255:2033,0.021,-0.042,0.993,0.244,0.366,0,-1.148,2.944,33.058
 14:37:08.336,eb:33:2e:f9:57:b5, 2085-97-43 00:169:255:2035,0.021,-0.042,0.994,0.183,0.366,0,-1.148,2.944,33.025
 14:37:08.338,eb:33:2e:f9:57:b5, 2085-97-42 00:172:255:2033,0.021,-0.042,0.993,0.305,0.305,0,-1.148,2.944,33.025
 14:37:08.338,eb:33:2e:f9:57:b5, 2085-97-42 00:172:255:2030,0.021,-0.042,0.992,0.366,0.305,0.061,-1.148,2.944,32.992
 14:37:08.338,eb:33:2e:f9:57:b5, 2085-97-42 00:172:255:2027,0.021,-0.041,0.99,0.305,0.305,0,-1.148,2.939,32.992
 14:37:08.338,eb:33:2e:f9:57:b5, 2085-97-43 00:172:255:2029,0.021,-0.041,0.991,0.305,0.183,0,-1.148,2.939,32.959
 14:37:08.364,eb:33:2e:f9:57:b5, 2085-97-45 00:174:255:2029,0.021,-0.04,0.991,0.244,0.183,0,-1.148,2.939,32.959
 14:37:08.364,eb:33:2e:f9:57:b5, 2085-97-42 00:172:255:2026,0.021,-0.041,0.99,0.183,0.244,0,-1.148,2.939,32.926
 14:37:08.364,eb:33:2e:f9:57:b5, 2085-97-41 00:171:255:2030,0.021,-0.042,0.99,0.122,0.183,0,-1.148,2.939,32.926
 14:37:08.364,eb:33:2e:f9:57:b5, 2085-97-43 00:173:255:2028,0.021,-0.041,0.99,0.061,0.244,0,-1.148,2.939,32.899
 14:37:08.396,eb:33:2e:f9:57:b5, 2085-97-43 00:173:255:2029,0.021,-0.041,0.99,0.061,0.183,-0.061,-1.148,2.939,32.893
 14:37:08.396,eb:33:2e:f9:57:b5, 2085-97-42 00:172:255:2030,0.02,-0.041,0.99,0,0.183,-0.061,-1.148,2.939,32.866
 14:37:08.396,eb:33:2e:f9:57:b5, 2085-97-41 00:174:255:2030,0.02,-0.041,0.991,0,0.122,0,-1.148,2.939,32.866
 14:37:08.396,eb:33:2e:f9:57:b5, 2085-97-41 00:171:255:2030,0.02,-0.041,0.991,-0.061,0.122,0,-1.148,2.939,32.833
 14:37:08.426,eb:33:2e:f9:57:b5, 2085-97-41 00:171:255:2031,0.02,-0.042,0.992,0,0,-0.061,-1.148,2.939,32.833
 14:37:08.426,eb:33:2e:f9:57:b5, 2085-97-42 00:172:255:2033,0.021,-0.042,0.992,0,0,-0.061,-1.148,2.939,32.8
 14:37:08.426,eb:33:2e:f9:57:b5, 2085-97-44 00:171:255:2032,0.021,-0.041,0.992,0.061,0,0,-1.148,2.939,32.8
 14:37:08.426,eb:33:2e:f9:57:b5, 2085-97-44 00:171:255:2031,0.021,-0.042,0.992,0.122,0,0,-1.148,2.939,32.767
 14:37:08.574,eb:33:2e:f9:57:b5, 2085-97-41 00:172:255:2030,0.021,-0.041,0.992,0,0,0,-1.148,2.933,32.767
 14:37:08.574,eb:33:2e:f9:57:b5, 2085-97-44 00:174:255:2029,0.021,-0.041,0.991,0.061,0,0,-1.148,2.933,32.734
 14:37:08.574,eb:33:2e:f9:57:b5, 2085-97-43 00:174:255:2031,0.021,-0.04,0.991,0,0,-0.061,-1.154,2.933,32.734
 14:37:08.574,eb:33:2e:f9:57:b5, 2085-97-42 00:174:255:2032,0.021,-0.041,0.992,0,0.061,0,-1.154,2.933,32.701
 14:37:08.576,eb:33:2e:f9:57:b5, 2085-97-43 00:173:255:2031,0.021,-0.041,0.992,0.061,0.061,-0.061,-1.154,2.933,32.701
 14:37:08.576,eb:33:2e:f9:57:b5, 2085-97-44 00:173:255:2031,0.021,-0.042,0.992,0.061,0.122,-0.061,-1.154,2.933,32.668
 14:37:08.576,eb:33:2e:f9:57:b5, 2085-97-43 00:173:255:2029,0.02,-0.041,0.992,0.061,0.122,0,-1.154,2.933,32.668
 14:37:08.576,eb:33:2e:f9:57:b5, 2085-97-41 00:173:255:2028,0.02,-0.041,0.991,0.061,0.122,0,-1.154,2.933,32.635
 14:37:08.578,eb:33:2e:f9:57:b5, 2085-97-45 00:174:255:2031,0.022,-0.042,0.991,0,0,0,-1.154,2.933,32.635
 14:37:08.578,eb:33:2e:f9:57:b5, 2085-97-43 00:173:255:2031,0.021,-0.041,0.992,0.061,0,-0.061,-1.154,2.933,32.607
 14:37:08.578,eb:33:2e:f9:57:b5, 2085-97-41 00:173:255:2030,0.02,-0.041,0.991,0.061,0.122,0,-1.154,2.933,32.607
 14:37:08.578,eb:33:2e:f9:57:b5, 2085-97-43 00:174:255:2030,0.02,-0.041,0.991,0,0.122,-0.061,-1.154,2.933,32.574
 14:37:08.695,eb:33:2e:f9:57:b5, 2085-97-41 00:173:255:2030,0.02,-0.041,0.991,0,0.122,0,-1.154,2.933,32.574
 14:37:08.695,eb:33:2e:f9:57:b5, 2085-97-42 00:173:255:2029,0.021,-0.041,0.991,0,0.061,0,-1.154,2.933,32.542
 14:37:08.695,eb:33:2e:f9:57:b5, 2085-97-42 00:173:255:2030,0.021,-0.041,0.991,0,0.061,0,-1.154,2.922,32.536
 14:37:08.695,eb:33:2e:f9:57:b5, 2085-97-42 00:173:255:2031,0.021,-0.041,0.992,0,0,-0.061,-1.154,2.922,32.536
 14:37:08.697,eb:33:2e:f9:57:b5, 2085-97-43 00:175:255:2029,0.021,-0.04,0.991,0,0,0,-1.159,2.917,32.531
 14:37:08.697,eb:33:2e:f9:57:b5, 2085-97-41 00:175:255:2029,0.02,-0.04,0.991,0,0,-0.061,-1.159,2.917,32.531
 14:37:08.697,eb:33:2e:f9:57:b5, 2085-97-42 00:175:255:2033,0.021,-0.041,0.992,0,-0.061,0,-1.159,2.917,32.531
 14:37:08.697,eb:33:2e:f9:57:b5, 2085-97-44 00:172:255:2034,0.022,-0.041,0.992,0,0,0,-1.159,2.917,32.531
 14:37:08.699,eb:33:2e:f9:57:b5, 2085-97-42 00:174:255:2033,0.02,-0.041,0.992,0,0.061,0,-1.159,2.917,32.531
 14:37:08.699,eb:33:2e:f9:57:b5, 2085-97-42 00:172:255:2031,0.021,-0.04,0.992,0,0.061,-0.061,-1.159,2.917,32.531
 14:37:08.699,eb:33:2e:f9:57:b5, 2085-97-41 00:172:255:2032,0.021,-0.041,0.992,0,0.061,0,-1.159,2.917,32.531
 14:37:08.699,eb:33:2e:f9:57:b5, 2085-97-41 00:171:255:2030,0.021,-0.041,0.992,0.061,0.061,0,-1.159,2.917,32.531
 14:37:08.754,eb:33:2e:f9:57:b5, 2085-97-44 00:174:255:2033,0.021,-0.041,0.992,0.061,0.061,0,-1.159,2.917,32.531
 14:37:08.754,eb:33:2e:f9:57:b5, 2085-97-43 00:173:255:2033,0.02,-0.04,0.993,0.122,0,0,-1.159,2.917,32.531
 14:37:08.754,eb:33:2e:f9:57:b5, 2085-97-42 00:174:255:2032,0.021,-0.041,0.992,0.061,0.061,0,-1.159,2.917,32.531
 14:37:08.754,eb:33:2e:f9:57:b5, 2085-97-42 00:173:255:2032,0.02,-0.04,0.992,0.061,0.061,0,-1.159,2.917,32.531
 14:37:08.756,eb:33:2e:f9:57:b5, 2085-97-44 00:174:255:2032,0.021,-0.04,0.992,0.122,0.061,0,-1.159,2.917,32.531
 14:37:08.756,eb:33:2e:f9:57:b5, 2085-97-43 00:173:255:2030,0.021,-0.041,0.992,0.122,0.061,0,-1.159,2.917,32.531
 14:37:08.756,eb:33:2e:f9:57:b5, 2085-97-43 00:173:255:2031,0.021,-0.042,0.992,0.122,0.122,0,-1.159,2.917,32.531
 14:37:08.756,eb:33:2e:f9:57:b5, 2085-97-42 00:173:255:2032,0.021,-0.041,0.993,0.122,0.122,0,-1.159,2.917,32.531
 14:37:08.876,eb:33:2e:f9:57:b5, 2085-97-42 00:172:255:2031,0.02,-0.041,0.992,0.122,0.122,0,-1.159,2.917,32.531
 14:37:08.876,eb:33:2e:f9:57:b5, 2085-97-41 00:175:255:2030,0.021,-0.04,0.992,0.122,0.122,0,-1.159,2.917,32.531
 14:37:08.876,eb:33:2e:f9:57:b5, 2085-97-43 00:175:255:2028,0.02,-0.04,0.991,0.061,0.061,0,-1.159,2.917,32.531
 14:37:08.876,eb:33:2e:f9:57:b5, 2085-97-40 00:172:255:2027,0.02,-0.04,0.99,0.061,0.061,0,-1.159,2.917,32.531
 14:37:08.876,eb:33:2e:f9:57:b5, 2085-97-42 00:174:255:2028,0.021,-0.04,0.99,0,0,0,-1.159,2.917,32.531
 14:37:08.876,eb:33:2e:f9:57:b5, 2085-97-41 00:176:255:2028,0.021,-0.04,0.99,0,0,-0.061,-1.159,2.917,32.531
 14:37:08.876,eb:33:2e:f9:57:b5, 2085-97-40 00:174:255:2028,0.021,-0.039,0.99,0,0.061,-0.061,-1.159,2.911,32.525
 14:37:08.877,eb:33:2e:f9:57:b5, 2085-97-43 00:172:255:2032,0.021,-0.041,0.991,-0.122,0,-0.061,-1.159,2.911,32.525
 14:37:08.879,eb:33:2e:f9:57:b5, 2085-97-42 00:174:255:2031,0.021,-0.041,0.992,-0.122,0,-0.061,-1.159,2.911,32.525
 14:37:08.879,eb:33:2e:f9:57:b5, 2085-97-41 00:173:255:2033,0.021,-0.04,0.992,-0.122,0.061,-0.061,-1.159,2.911,32.525
 14:37:08.879,eb:33:2e:f9:57:b5, 2085-97-42 00:172:255:2034,0.02,-0.041,0.993,-0.061,0,0,-1.159,2.911,32.525
 14:37:08.879,eb:33:2e:f9:57:b5, 2085-97-41 00:172:255:2032,0.019,-0.041,0.993,0,0.061,-0.061,-1.159,2.911,32.525
 14:37:08.965,eb:33:2e:f9:57:b5, 2085-97-42 00:174:255:2031,0.021,-0.041,0.991,0,0,0,-1.159,2.911,32.525
 14:37:08.965,eb:33:2e:f9:57:b5, 2085-97-42 00:177:255:2030,0.021,-0.04,0.992,0,0,0,-1.159,2.911,32.525
 14:37:08.965,eb:33:2e:f9:57:b5, 2085-113-58 00:130:216:2565,0.02,-0.04,0.991,0,0,-0.061,-1.159,2.911,32.525
 14:37:08.965,eb:33:2e:f9:57:b5, 2085-97-41 00:173:255:2030,0.02,-0.041,0.991,0,0.061,0,-1.159,2.911,32.525
 14:37:08.965,eb:33:2e:f9:57:b5, 2085-97-42 00:175:255:2033,0.02,-0.04,0.993,0,0,-0.061,-1.159,2.911,32.525
 14:37:08.967,eb:33:2e:f9:57:b5, 2085-97-42 00:174:255:2034,0.021,-0.04,0.993,0,0.061,0,-1.159,2.911,32.525
 14:37:08.967,eb:33:2e:f9:57:b5, 2085-97-41 00:173:255:2033,0.02,-0.041,0.994,0,0.122,0,-1.159,2.911,32.525
 14:37:08.967,eb:33:2e:f9:57:b5, 2085-97-41 00:175:255:2031,0.021,-0.041,0.993,0,0.122,0,-1.154,2.911,32.525
 14:37:08.967,eb:33:2e:f9:57:b5, 2085-97-42 00:173:255:2028,0.02,-0.04,0.991,0,0.061,-0.061,-1.154,2.911,32.525
 14:37:08.996,eb:33:2e:f9:57:b5, 2085-97-40 00:174:255:2030,0.021,-0.041,0.991,0,0,0,-1.154,2.911,32.525
 14:37:08.996,eb:33:2e:f9:57:b5, 2085-97-44 00:175:255:2032,0.021,-0.04,0.992,0,0,-0.061,-1.154,2.911,32.525
 14:37:08.996,eb:33:2e:f9:57:b5, 2085-97-42 00:174:255:2033,0.021,-0.04,0.992,0,0.122,0,-1.154,2.911,32.525
 14:37:08.996,eb:33:2e:f9:57:b5, 2085-97-40 00:174:255:2030,0.02,-0.04,0.992,0,0.183,0,-1.154,2.911,32.525
 14:37:09.084,eb:33:2e:f9:57:b5, 2085-97-41 00:174:255:2030,0.02,-0.04,0.991,-0.061,0.183,-0.061,-1.154,2.911,32.52
 14:37:09.084,eb:33:2e:f9:57:b5, 2085-97-40 00:174:255:2030,0.019,-0.04,0.991,-0.061,0.122,-0.061,-1.154,2.911,32.52
 14:37:09.084,eb:33:2e:f9:57:b5, 2085-97-40 00:174:255:2030,0.02,-0.041,0.991,-0.122,0.061,-0.061,-1.154,2.911,32.52
 14:37:09.084,eb:33:2e:f9:57:b5, 2085-97-39 00:174:255:2029,0.02,-0.04,0.991,-0.122,0,-0.061,-1.154,2.911,32.52
 14:37:09.086,eb:33:2e:f9:57:b5, 2085-97-41 00:172:255:2032,0.02,-0.041,0.992,-0.122,0,-0.061,-1.154,2.911,32.52
 14:37:09.087,eb:33:2e:f9:57:b5, 2085-97-41 00:173:255:2032,0.02,-0.04,0.992,-0.122,0,-0.061,-1.154,2.911,32.52
 14:37:09.087,eb:33:2e:f9:57:b5, 2085-97-43 00:174:255:2032,0.021,-0.04,0.992,-0.122,0,-0.061,-1.154,2.911,32.52
 14:37:09.087,eb:33:2e:f9:57:b5, 2085-97-42 00:172:255:2035,0.02,-0.041,0.993,-0.122,0.061,-0.061,-1.154,2.911,32.52
 14:37:09.146,eb:33:2e:f9:57:b5, 2085-97-40 00:173:255:2031,0.021,-0.041,0.992,-0.061,0,-0.061,-1.154,2.911,32.52
 14:37:09.146,eb:33:2e:f9:57:b5, 2085-97-41 00:174:255:2032,0.02,-0.04,0.992,-0.061,0,-0.061,-1.154,2.911,32.52
 14:37:09.146,eb:33:2e:f9:57:b5, 2085-97-41 00:174:255:2032,0.02,-0.04,0.992,0,0.061,0,-1.154,2.911,32.52
 14:37:09.146,eb:33:2e:f9:57:b5, 2085-97-41 00:173:255:2032,0.02,-0.04,0.993,0,0,0,-1.154,2.911,32.52
 14:37:09.235,eb:33:2e:f9:57:b5, 2085-97-41 00:175:255:2033,0.02,-0.04,0.992,0,0,0,-1.154,2.911,32.52
 14:37:09.235,eb:33:2e:f9:57:b5, 2085-97-43 00:172:255:2031,0.02,-0.041,0.992,0,0,0,-1.154,2.911,32.52
 14:37:09.235,eb:33:2e:f9:57:b5, 2085-97-39 00:173:255:2030,0.019,-0.041,0.991,0,0,0,-1.154,2.906,32.52
 14:37:09.235,eb:33:2e:f9:57:b5, 2085-97-41 00:174:255:2031,0.02,-0.041,0.991,0,0,0,-1.154,2.906,32.52
 14:37:09.238,eb:33:2e:f9:57:b5, 2085-97-40 00:173:255:2030,0.02,-0.041,0.991,0,0.061,0,-1.154,2.906,32.52
 14:37:09.238,eb:33:2e:f9:57:b5, 2085-97-42 00:174:255:2031,0.02,-0.04,0.992,0,0,0,-1.154,2.906,32.52
 14:37:09.238,eb:33:2e:f9:57:b5, 2085-97-40 00:176:255:2032,0.02,-0.039,0.992,-0.061,0.061,-0.061,-1.154,2.906,32.52
 14:37:09.238,eb:33:2e:f9:57:b5, 2085-97-40 00:174:255:2031,0.019,-0.04,0.992,-0.061,0,-0.061,-1.154,2.906,32.52
 14:37:09.240,eb:33:2e:f9:57:b5, 2085-97-39 00:174:255:2030,0.019,-0.04,0.992,-0.061,0.061,-0.061,-1.154,2.906,32.52
 14:37:09.240,eb:33:2e:f9:57:b5, 2085-97-41 00:172:255:2028,0.02,-0.041,0.991,-0.122,0,-0.061,-1.154,2.906,32.52
 14:37:09.240,eb:33:2e:f9:57:b5, 2085-97-40 00:173:255:2029,0.02,-0.041,0.99,-0.122,0,-0.061,-1.154,2.906,32.514
 14:37:09.240,eb:33:2e:f9:57:b5, 2085-97-39 00:173:255:2030,0.019,-0.041,0.991,-0.061,0,0,-1.154,2.906,32.514
 14:37:09.296,eb:33:2e:f9:57:b5, 2085-97-40 00:175:255:2028,0.02,-0.041,0.991,-0.061,-0.061,-0.061,-1.154,2.906,32.514
 14:37:09.296,eb:33:2e:f9:57:b5, 2085-97-41 00:173:255:2029,0.02,-0.041,0.99,-0.183,-0.183,-0.061,-1.154,2.906,32.514
 14:37:09.296,eb:33:2e:f9:57:b5, 2085-97-41 00:174:255:2030,0.02,-0.04,0.991,-0.183,-0.122,-0.061,-1.154,2.906,32.514
 14:37:09.296,eb:33:2e:f9:57:b5, 2085-97-41 00:173:255:2031,0.02,-0.041,0.991,-0.244,-0.122,-0.061,-1.154,2.906,32.514
 14:37:09.384,eb:33:2e:f9:57:b5, 2085-97-44 00:173:255:2034,0.022,-0.04,0.992,-0.244,-0.061,-0.122,-1.154,2.906,32.514
 14:37:09.384,eb:33:2e:f9:57:b5, 2085-97-42 00:173:255:2033,0.02,-0.042,0.993,-0.183,0.061,-0.122,-1.154,2.906,32.514
 14:37:09.384,eb:33:2e:f9:57:b5, 2085-97-38 00:173:255:2030,0.019,-0.041,0.992,-0.183,0,-0.061,-1.154,2.906,32.514
 14:37:09.385,eb:33:2e:f9:57:b5, 2085-97-42 00:173:255:2032,0.021,-0.042,0.992,-0.183,0,-0.061,-1.154,2.906,32.514
 14:37:09.387,eb:33:2e:f9:57:b5, 2085-97-40 00:173:255:2031,0.021,-0.041,0.993,-0.183,-0.061,0,-1.154,2.906,32.514
 14:37:09.387,eb:33:2e:f9:57:b5, 2085-97-41 00:173:255:2029,0.02,-0.04,0.991,-0.183,-0.061,-0.061,-1.154,2.906,32.514
 14:37:09.387,eb:33:2e:f9:57:b5, 2085-113-81 00:218:122:-553,0.02,-0.041,0.991,-0.122,-0.061,-0.122,-1.154,2.906,32.514
 14:37:09.387,eb:33:2e:f9:57:b5, 2085-97-42 00:173:255:2029,0.021,-0.041,0.992,-0.183,-0.122,0,-1.154,2.906,32.514
 14:37:09.416,eb:33:2e:f9:57:b5, 2085-97-42 00:173:255:2030,0.021,-0.041,0.991,-0.183,-0.061,-0.061,-1.154,2.906,32.514
 14:37:09.416,eb:33:2e:f9:57:b5, 2085-97-41 00:173:255:2031,0.021,-0.04,0.992,-0.183,-0.061,0,-1.154,2.906,32.514
 14:37:09.416,eb:33:2e:f9:57:b5, 2085-97-42 00:172:255:2034,0.021,-0.041,0.993,-0.122,0,-0.122,-1.154,2.906,32.514
 14:37:09.416,eb:33:2e:f9:57:b5, 2085-97-41 00:171:255:2034,0.021,-0.042,0.992,-0.122,-0.061,-0.061,-1.154,2.906,32.514
 14:37:09.445,eb:33:2e:f9:57:b5, 2085-97-40 00:173:255:2033,0.02,-0.041,0.993,-0.061,0.061,-0.122,-1.154,2.906,32.509
 14:37:09.445,eb:33:2e:f9:57:b5, 2085-97-41 00:171:255:2031,0.02,-0.041,0.992,-0.061,0,0,-1.154,2.906,32.509
 14:37:09.445,eb:33:2e:f9:57:b5, 2085-97-42 00:171:255:2031,0.02,-0.042,0.992,-0.061,0,0,-1.154,2.906,32.509
 14:37:09.445,eb:33:2e:f9:57:b5, 2085-97-41 00:172:255:2030,0.02,-0.042,0.992,0,0,0,-1.154,2.906,32.509
 14:37:09.476,eb:33:2e:f9:57:b5, 2085-97-42 00:174:255:2031,0.021,-0.041,0.992,0,0,0,-1.154,2.906,32.509
 14:37:09.476,eb:33:2e:f9:57:b5, 2085-97-43 00:174:255:2032,0.021,-0.041,0.993,0,0,0,-1.154,2.906,32.509
 14:37:09.476,eb:33:2e:f9:57:b5, 2085-97-41 00:173:255:2031,0.02,-0.041,0.992,0,0,0,-1.154,2.906,32.509
 14:37:09.476,eb:33:2e:f9:57:b5, 2085-97-42 00:173:255:2032,0.02,-0.041,0.992,0,0,-0.061,-1.154,2.906,32.509
 14:37:09.535,eb:33:2e:f9:57:b5, 2085-97-42 00:173:255:2030,0.021,-0.041,0.992,0,0,-0.061,-1.154,2.906,32.509
 14:37:09.535,eb:33:2e:f9:57:b5, 2085-97-41 00:174:255:2031,0.02,-0.041,0.991,0,0,0,-1.154,2.906,32.509
 14:37:09.535,eb:33:2e:f9:57:b5, 2085-97-43 00:173:255:2032,0.02,-0.041,0.991,0,0,0,-1.159,2.906,32.509
 14:37:09.535,eb:33:2e:f9:57:b5, 2085-97-41 00:173:255:2034,0.021,-0.041,0.992,0,0,0,-1.159,2.906,32.509
 14:37:09.804,eb:33:2e:f9:57:b5, 2085-97-43 00:173:255:2032,0.021,-0.041,0.992,0,0,0,-1.159,2.906,32.509
 14:37:09.804,eb:33:2e:f9:57:b5, 2085-97-43 00:172:255:2032,0.021,-0.041,0.993,0,0,0,-1.159,2.906,32.509
 14:37:09.804,eb:33:2e:f9:57:b5, 2085-97-42 00:173:255:2029,0.02,-0.041,0.992,0,0.061,0,-1.159,2.906,32.509
 14:37:09.804,eb:33:2e:f9:57:b5, 2085-97-41 00:173:255:2029,0.02,-0.041,0.991,0,0,0,-1.159,2.906,32.509
 14:37:09.807,eb:33:2e:f9:57:b5, 2085-97-42 00:172:255:2032,0.02,-0.041,0.992,0,0,-0.061,-1.159,2.906,32.509
 14:37:09.807,eb:33:2e:f9:57:b5, 2085-97-41 00:173:255:2031,0.02,-0.041,0.991,0,0,-0.061,-1.159,2.906,32.509
 14:37:09.807,eb:33:2e:f9:57:b5, 2085-97-42 00:172:255:2033,0.021,-0.041,0.993,0,0,0,-1.159,2.9,32.509
 14:37:09.807,eb:33:2e:f9:57:b5, 2085-97-42 00:172:255:2032,0.02,-0.041,0.994,0,0,0,-1.159,2.9,32.509
 14:37:09.809,eb:33:2e:f9:57:b5, 2085-97-40 00:174:255:2027,0.019,-0.041,0.99,0,0.061,0,-1.159,2.9,32.509
 14:37:09.809,eb:33:2e:f9:57:b5, 2085-97-40 00:175:255:2027,0.021,-0.04,0.989,0,0,0,-1.159,2.9,32.509
 14:37:09.809,eb:33:2e:f9:57:b5, 2085-97-42 00:174:255:2030,0.021,-0.041,0.991,0,0,0,-1.159,2.9,32.509
 14:37:09.810,eb:33:2e:f9:57:b5, 2085-97-42 00:174:255:2029,0.02,-0.04,0.991,-0.061,0,-0.061,-1.159,2.9,32.509
 14:37:09.812,eb:33:2e:f9:57:b5, 2085-97-42 00:174:255:2031,0.021,-0.04,0.991,-0.122,0,-0.061,-1.159,2.9,32.503
 14:37:09.812,eb:33:2e:f9:57:b5, 2085-97-41 00:173:255:2033,0.02,-0.04,0.993,-0.122,0,-0.061,-1.159,2.9,32.503
 14:37:09.812,eb:33:2e:f9:57:b5, 2085-97-41 00:173:255:2031,0.02,-0.04,0.992,-0.122,0,-0.061,-1.159,2.9,32.503
 14:37:09.812,eb:33:2e:f9:57:b5, 2085-97-41 00:172:255:2029,0.02,-0.041,0.991,-0.122,0,-0.061,-1.159,2.9,32.503
 14:37:09.835,eb:33:2e:f9:57:b5, 2085-97-41 00:171:255:2030,0.021,-0.041,0.992,-0.122,0,-0.061,-1.159,2.9,32.503
 14:37:09.835,eb:33:2e:f9:57:b5, 2085-97-42 00:173:255:2030,0.021,-0.042,0.992,-0.122,-0.061,0,-1.159,2.9,32.503
 14:37:09.835,eb:33:2e:f9:57:b5, 2085-97-42 00:171:255:2032,0.02,-0.041,0.992,-0.122,0,-0.061,-1.159,2.9,32.503
 14:37:09.835,eb:33:2e:f9:57:b5, 2085-97-42 00:172:255:2031,0.021,-0.042,0.992,-0.183,0,0,-1.159,2.9,32.503
 14:37:09.925,eb:33:2e:f9:57:b5, 2085-97-43 00:172:255:2030,0.021,-0.041,0.991,-0.183,-0.061,0,-1.159,2.9,32.498
 14:37:09.925,eb:33:2e:f9:57:b5, 2085-97-41 00:172:255:2031,0.021,-0.042,0.991,-0.183,-0.122,0,-1.159,2.9,32.498
 14:37:09.925,eb:33:2e:f9:57:b5, 2085-97-43 00:172:255:2032,0.021,-0.041,0.992,-0.122,-0.122,-0.061,-1.159,2.9,32.498
 14:37:09.925,eb:33:2e:f9:57:b5, 2085-97-43 00:171:255:2030,0.021,-0.041,0.992,-0.122,0,-0.061,-1.159,2.9,32.498
 14:37:09.927,eb:33:2e:f9:57:b5, 2085-97-41 00:172:255:2030,0.021,-0.041,0.992,-0.061,-0.061,0,-1.159,2.9,32.498
 14:37:09.927,eb:33:2e:f9:57:b5, 2085-97-44 00:172:255:2031,0.021,-0.042,0.991,-0.122,-0.061,-0.061,-1.159,2.9,32.498
 14:37:09.927,eb:33:2e:f9:57:b5, 2085-97-43 00:173:255:2031,0.021,-0.041,0.992,-0.061,0,-0.061,-1.159,2.9,32.498
 14:37:09.927,eb:33:2e:f9:57:b5, 2085-97-43 00:171:255:2030,0.021,-0.041,0.991,-0.122,0,-0.061,-1.159,2.9,32.498
 14:37:10.073,eb:33:2e:f9:57:b5, 2085-97-41 00:170:255:2032,0.021,-0.041,0.992,-0.122,0,0,-1.159,2.895,32.498
 14:37:10.073,eb:33:2e:f9:57:b5, 2085-97-43 00:172:255:2032,0.021,-0.042,0.992,-0.061,0,0,-1.159,2.895,32.498
 14:37:10.073,eb:33:2e:f9:57:b5, 2085-97-44 00:171:255:2031,0.021,-0.042,0.992,-0.061,0,0,-1.159,2.895,32.498
 14:37:10.073,eb:33:2e:f9:57:b5, 2085-97-42 00:171:255:2031,0.021,-0.042,0.992,0,0,0,-1.159,2.895,32.498
 14:37:10.075,eb:33:2e:f9:57:b5, 2085-97-42 00:172:255:2031,0.021,-0.041,0.993,0,0,-0.061,-1.159,2.895,32.498
 14:37:10.075,eb:33:2e:f9:57:b5, 2085-97-43 00:172:255:2031,0.021,-0.042,0.992,0,0,0,-1.159,2.895,32.498
 14:37:10.075,eb:33:2e:f9:57:b5, 2085-97-43 00:173:255:2032,0.021,-0.042,0.992,0,0,-0.061,-1.159,2.895,32.498
 14:37:10.075,eb:33:2e:f9:57:b5, 2085-97-43 00:171:255:2034,0.021,-0.041,0.992,0,0,-0.061,-1.159,2.895,32.498
 14:37:10.079,eb:33:2e:f9:57:b5, 2085-97-43 00:172:255:2032,0.021,-0.041,0.993,0,0,-0.061,-1.159,2.895,32.498
 14:37:10.079,eb:33:2e:f9:57:b5, 2085-97-43 00:172:255:2031,0.02,-0.042,0.992,0,0,0,-1.159,2.895,32.498
 14:37:10.079,eb:33:2e:f9:57:b5, 2085-97-42 00:170:255:2030,0.021,-0.041,0.992,0,0,0,-1.159,2.895,32.498
 14:37:10.079,eb:33:2e:f9:57:b5, 2085-97-43 00:171:255:2030,0.021,-0.041,0.991,0,0,0,-1.159,2.895,32.498
 14:37:10.105,eb:33:2e:f9:57:b5, 2085-97-43 00:174:255:2031,0.02,-0.041,0.992,0,0,-0.061,-1.159,2.895,32.498
 14:37:10.105,eb:33:2e:f9:57:b5, 2085-97-42 00:172:255:2030,0.021,-0.041,0.991,0,0,0,-1.159,2.895,32.498
 14:37:10.105,eb:33:2e:f9:57:b5, 2085-97-42 00:172:255:2031,0.021,-0.041,0.992,0,0,-0.061,-1.159,2.895,32.492
 14:37:10.105,eb:33:2e:f9:57:b5, 2085-97-42 00:172:255:2029,0.021,-0.042,0.992,0,0,0,-1.159,2.895,32.492
 14:37:10.224,eb:33:2e:f9:57:b5, 2085-97-42 00:171:255:2030,0.021,-0.041,0.991,0,0,-0.061,-1.159,2.895,32.492
 14:37:10.224,eb:33:2e:f9:57:b5, 2085-97-43 00:174:255:2029,0.021,-0.041,0.99,0,0,0,-1.159,2.895,32.492
 14:37:10.224,eb:33:2e:f9:57:b5, 2085-97-42 00:174:255:2030,0.021,-0.041,0.99,-0.061,0,-0.061,-1.159,2.895,32.492
 14:37:10.224,eb:33:2e:f9:57:b5, 2085-97-43 00:173:255:2032,0.021,-0.041,0.992,0,0,0,-1.159,2.895,32.492
 14:37:10.226,eb:33:2e:f9:57:b5, 2085-97-44 00:172:255:2033,0.021,-0.042,0.992,0,0,0,-1.159,2.895,32.492
 14:37:10.226,eb:33:2e:f9:57:b5, 2085-97-43 00:172:255:2030,0.021,-0.041,0.992,-0.061,0,0,-1.159,2.895,32.492
 14:37:10.226,eb:33:2e:f9:57:b5, 2085-97-43 00:171:255:2030,0.021,-0.042,0.991,0,0,0,-1.159,2.895,32.492
 14:37:10.226,eb:33:2e:f9:57:b5, 2085-97-42 00:171:255:2032,0.021,-0.041,0.992,-0.061,0,0,-1.159,2.895,32.492
 14:37:10.229,eb:33:2e:f9:57:b5, 2085-97-43 00:171:255:2029,0.021,-0.042,0.992,0,0,0,-1.159,2.895,32.492
 14:37:10.229,eb:33:2e:f9:57:b5, 2085-97-42 00:171:255:2028,0.021,-0.041,0.991,-0.061,0,-0.061,-1.159,2.895,32.492
 14:37:10.229,eb:33:2e:f9:57:b5, 2085-97-43 00:170:255:2030,0.021,-0.042,0.991,-0.061,0,-0.061,-1.159,2.889,32.492
 14:37:10.229,eb:33:2e:f9:57:b5, 2085-97-42 00:172:255:2033,0.021,-0.042,0.992,-0.061,0,-0.061,-1.159,2.889,32.492
 14:37:10.284,eb:33:2e:f9:57:b5, 2085-97-44 00:172:255:2032,0.021,-0.041,0.991,-0.061,0,0,-1.159,2.889,32.492
 14:37:10.284,eb:33:2e:f9:57:b5, 2085-97-41 00:168:255:2032,0.021,-0.041,0.993,-0.061,0,0,-1.159,2.889,32.492
 14:37:10.284,eb:33:2e:f9:57:b5, 2085-97-43 00:170:255:2031,0.021,-0.042,0.992,-0.061,0,0,-1.165,2.889,32.492
 14:37:10.285,eb:33:2e:f9:57:b5, 2085-97-41 00:171:255:2029,0.021,-0.041,0.991,-0.061,0,-0.061,-1.165,2.889,32.492
 14:37:10.287,eb:33:2e:f9:57:b5, 2085-97-43 00:172:255:2029,0.021,-0.041,0.991,-0.183,-0.061,-0.061,-1.165,2.889,32.492
 14:37:10.287,eb:33:2e:f9:57:b5, 2085-97-42 00:171:255:2029,0.021,-0.041,0.991,-0.122,0,0,-1.165,2.889,32.492
 14:37:10.287,eb:33:2e:f9:57:b5, 2085-97-43 00:172:255:2030,0.021,-0.042,0.99,-0.183,-0.061,0,-1.165,2.889,32.487
 14:37:10.287,eb:33:2e:f9:57:b5, 2085-113-81 00:220:122:-554,0.022,-0.041,0.991,-0.122,-0.061,-0.122,-1.165,2.889,32.487
 14:37:10.287,eb:33:2e:f9:57:b5, 2085-97-45 00:172:255:2033,0.021,-0.041,0.992,-0.183,-0.061,0,-1.165,2.889,32.487
 14:37:10.435,eb:33:2e:f9:57:b5, 2085-97-42 00:172:255:2031,0.021,-0.041,0.992,-0.183,-0.061,-0.061,-1.165,2.889,32.487
 14:37:10.435,eb:33:2e:f9:57:b5, 2085-97-44 00:172:255:2030,0.021,-0.042,0.991,-0.122,-0.061,-0.122,-1.165,2.889,32.487
 14:37:10.435,eb:33:2e:f9:57:b5, 2085-97-41 00:171:255:2030,0.021,-0.042,0.991,-0.183,0,-0.061,-1.165,2.889,32.487
 14:37:10.435,eb:33:2e:f9:57:b5, 2085-97-42 00:171:255:2030,0.02,-0.042,0.991,-0.244,-0.061,-0.061,-1.165,2.889,32.487
 14:37:10.437,eb:33:2e:f9:57:b5, 2085-97-43 00:171:255:2031,0.021,-0.042,0.992,-0.183,-0.061,0,-1.165,2.889,32.487
 14:37:10.437,eb:33:2e:f9:57:b5, 2085-97-44 00:170:255:2032,0.021,-0.042,0.992,-0.122,0,0,-1.165,2.889,32.487
 14:37:10.437,eb:33:2e:f9:57:b5, 2085-97-43 00:168:255:2032,0.021,-0.042,0.992,-0.122,-0.061,-0.061,-1.165,2.889,32.487
 14:37:10.437,eb:33:2e:f9:57:b5, 2085-97-43 00:168:255:2033,0.021,-0.043,0.992,-0.061,-0.061,0,-1.165,2.889,32.487
 14:37:10.440,eb:33:2e:f9:57:b5, 2085-97-45 00:168:255:2033,0.022,-0.042,0.994,-0.061,-0.061,0,-1.165,2.889,32.487
 14:37:10.440,eb:33:2e:f9:57:b5, 2085-97-45 00:170:255:2031,0.022,-0.043,0.993,-0.061,0,0,-1.165,2.889,32.487
 14:37:10.440,eb:33:2e:f9:57:b5, 2085-97-44 00:171:255:2031,0.021,-0.042,0.992,0,0,0,-1.165,2.889,32.487
 14:37:10.440,eb:33:2e:f9:57:b5, 2085-97-44 00:171:255:2033,0.021,-0.042,0.991,0,0,0,-1.165,2.889,32.487
 14:37:10.494,eb:33:2e:f9:57:b5, 2085-97-44 00:169:255:2033,0.021,-0.042,0.993,0,0.061,0,-1.165,2.889,32.487
 14:37:10.494,eb:33:2e:f9:57:b5, 2085-97-43 00:171:255:2033,0.021,-0.042,0.993,0,0.061,0,-1.165,2.889,32.487
 14:37:10.494,eb:33:2e:f9:57:b5, 2085-97-42 00:170:255:2033,0.021,-0.042,0.993,0,0.122,0,-1.165,2.884,32.487
 14:37:10.494,eb:33:2e:f9:57:b5, 2085-97-43 00:169:255:2031,0.021,-0.042,0.992,0.061,0.122,0.061,-1.165,2.884,32.487
 14:37:10.496,eb:33:2e:f9:57:b5, 2085-97-44 00:170:255:2030,0.021,-0.042,0.992,0.122,0.122,0,-1.165,2.884,32.487
 14:37:10.496,eb:33:2e:f9:57:b5, 2085-97-43 00:170:255:2032,0.022,-0.042,0.992,0.122,0.061,0,-1.165,2.884,32.487
 14:37:10.496,eb:33:2e:f9:57:b5, 2085-97-46 00:171:255:2033,0.021,-0.042,0.993,0.122,0.122,0,-1.165,2.884,32.487
 14:37:10.496,eb:33:2e:f9:57:b5, 2085-97-43 00:171:255:2031,0.021,-0.042,0.992,0.122,0.183,0,-1.165,2.884,32.487
 14:37:10.526,eb:33:2e:f9:57:b5, 2085-97-43 00:171:255:2032,0.021,-0.042,0.992,0.183,0.183,0,-1.165,2.884,32.487
 14:37:10.526,eb:33:2e:f9:57:b5, 2085-97-42 00:172:255:2031,0.021,-0.041,0.993,0.244,0.183,0,-1.165,2.884,32.487
 14:37:10.526,eb:33:2e:f9:57:b5, 2085-97-43 00:172:255:2031,0.021,-0.042,0.992,0.183,0.122,0,-1.165,2.884,32.487
 14:37:10.526,eb:33:2e:f9:57:b5, 2085-97-42 00:172:255:2028,0.021,-0.041,0.991,0.122,0.122,0,-1.165,2.884,32.487
 14:37:10.585,eb:33:2e:f9:57:b5, 2085-97-43 00:171:255:2029,0.022,-0.041,0.991,0.061,0.122,0,-1.17,2.884,32.481
 14:37:10.585,eb:33:2e:f9:57:b5, 2085-97-42 00:173:255:2031,0.021,-0.041,0.992,0,0.061,0,-1.17,2.884,32.481
 14:37:10.585,eb:33:2e:f9:57:b5, 2085-97-46 00:172:255:2032,0.021,-0.041,0.991,0,0.122,0,-1.17,2.884,32.481
 14:37:10.585,eb:33:2e:f9:57:b5, 2085-97-45 00:172:255:2032,0.021,-0.041,0.993,0,0.244,-0.061,-1.17,2.884,32.481
 14:37:10.614,eb:33:2e:f9:57:b5, 2085-97-41 00:170:255:2032,0.021,-0.042,0.992,0.061,0.244,0,-1.17,2.884,32.481
 14:37:10.614,eb:33:2e:f9:57:b5, 2085-97-44 00:171:255:2034,0.021,-0.042,0.992,0.122,0.244,0,-1.17,2.884,32.481
 14:37:10.614,eb:33:2e:f9:57:b5, 2085-97-42 00:169:255:2032,0.02,-0.042,0.993,0.122,0.244,0,-1.17,2.884,32.481
 14:37:10.614,eb:33:2e:f9:57:b5, 2085-97-41 00:170:255:2032,0.021,-0.042,0.992,0.244,0.183,0,-1.17,2.884,32.481
 14:37:10.734,eb:33:2e:f9:57:b5, 2085-97-42 00:171:255:2033,0.021,-0.042,0.993,0.244,0.183,0,-1.17,2.884,32.481
 14:37:10.734,eb:33:2e:f9:57:b5, 2085-97-43 00:170:255:2033,0.021,-0.042,0.993,0.244,0.122,0,-1.17,2.884,32.481
 14:37:10.734,eb:33:2e:f9:57:b5, 2085-97-42 00:174:255:2032,0.021,-0.041,0.993,0.244,0.183,0,-1.17,2.884,32.481
 14:37:10.734,eb:33:2e:f9:57:b5, 2085-97-42 00:172:255:2032,0.021,-0.04,0.991,0.183,0.122,0,-1.17,2.884,32.481
 14:37:10.737,eb:33:2e:f9:57:b5, 2085-97-43 00:173:255:2032,0.02,-0.041,0.992,0.183,0.122,0,-1.17,2.884,32.481
 14:37:10.737,eb:33:2e:f9:57:b5, 2085-97-43 00:173:255:2032,0.021,-0.041,0.992,0.183,0.061,0,-1.17,2.884,32.481
 14:37:10.737,eb:33:2e:f9:57:b5, 2085-97-41 00:171:255:2029,0.021,-0.041,0.991,0.122,0.061,0,-1.17,2.884,32.481
 14:37:10.737,eb:33:2e:f9:57:b5, 2085-97-42 00:174:255:2028,0.02,-0.042,0.991,0.183,0,0,-1.17,2.884,32.481
 14:37:10.739,eb:33:2e:f9:57:b5, 2085-97-41 00:173:255:2027,0.021,-0.04,0.99,0.061,0,0,-1.17,2.878,32.481
 14:37:10.739,eb:33:2e:f9:57:b5, 2085-97-43 00:174:255:2028,0.021,-0.041,0.99,0,0,-0.061,-1.17,2.878,32.481
 14:37:10.739,eb:33:2e:f9:57:b5, 2085-97-41 00:172:255:2029,0.02,-0.04,0.99,-0.061,0,-0.061,-1.17,2.878,32.481
 14:37:10.739,eb:33:2e:f9:57:b5, 2085-97-42 00:171:255:2029,0.021,-0.041,0.991,-0.061,0,-0.061,-1.17,2.878,32.481
 14:37:10.764,eb:33:2e:f9:57:b5, 2085-97-45 00:171:255:2036,0.022,-0.041,0.992,-0.061,0.061,-0.122,-1.17,2.878,32.481
 14:37:10.764,eb:33:2e:f9:57:b5, 2085-97-43 00:172:255:2034,0.02,-0.042,0.995,0,0.183,-0.061,-1.17,2.878,32.481
 14:37:10.764,eb:33:2e:f9:57:b5, 2085-97-41 00:169:255:2032,0.02,-0.042,0.992,0,0.122,0,-1.17,2.878,32.481
 14:37:10.764,eb:33:2e:f9:57:b5, 2085-97-42 00:170:255:2034,0.02,-0.043,0.992,0.122,0.122,0,-1.17,2.878,32.481
 14:37:10.854,eb:33:2e:f9:57:b5, 2085-97-39 00:171:255:2032,0.02,-0.042,0.993,0.244,0,0,-1.17,2.878,32.476
 14:37:10.854,eb:33:2e:f9:57:b5, 2085-113-58 00:221:215:2355,0.021,-0.041,0.992,0.183,-0.061,0,-1.17,2.878,32.476
 14:37:10.854,eb:33:2e:f9:57:b5, 2085-97-43 00:173:255:2035,0.021,-0.041,0.993,0.244,-0.061,0,-1.17,2.878,32.476
 14:37:10.855,eb:33:2e:f9:57:b5, 2085-97-43 00:175:255:2031,0.021,-0.041,0.993,0.244,0,0,-1.17,2.878,32.476
 14:37:10.856,eb:33:2e:f9:57:b5, 2085-97-43 00:175:255:2032,0.021,-0.04,0.992,0.244,0.061,0,-1.17,2.878,32.476
 14:37:10.856,eb:33:2e:f9:57:b5, 2085-97-43 00:177:255:2029,0.021,-0.04,0.992,0.244,0.122,0,-1.17,2.878,32.476
 14:37:10.856,eb:33:2e:f9:57:b5, 2085-97-43 00:171:255:2031,0.021,-0.041,0.991,0.122,0.244,0,-1.17,2.878,32.476
 14:37:10.856,eb:33:2e:f9:57:b5, 2085-97-42 00:174:255:2033,0.02,-0.041,0.993,0.183,0.244,-0.061,-1.17,2.878,32.476
 14:37:10.884,eb:33:2e:f9:57:b5, 2085-97-40 00:172:255:2033,0.019,-0.041,0.993,0.183,0.244,0,-1.17,2.878,32.476
 14:37:10.884,eb:33:2e:f9:57:b5, 2085-97-39 00:173:255:2031,0.02,-0.041,0.992,0.183,0.244,0,-1.17,2.878,32.476
 14:37:10.884,eb:33:2e:f9:57:b5, 2085-97-40 00:173:255:2031,0.02,-0.041,0.991,0.244,0.122,0,-1.17,2.878,32.476
 14:37:10.884,eb:33:2e:f9:57:b5, 2085-97-40 00:173:255:2028,0.019,-0.04,0.991,0.183,0.122,0,-1.17,2.878,32.476
 14:37:10.974,eb:33:2e:f9:57:b5, 2085-97-40 00:173:255:2028,0.019,-0.04,0.99,0.183,0.061,0,-1.17,2.878,32.476
 14:37:10.974,eb:33:2e:f9:57:b5, 2085-97-41 00:175:255:2027,0.02,-0.04,0.99,0.122,0,0,-1.17,2.878,32.476
 14:37:10.974,eb:33:2e:f9:57:b5, 2085-97-40 00:175:255:2029,0.02,-0.039,0.99,0.122,0,0,-1.17,2.878,32.476
 14:37:10.974,eb:33:2e:f9:57:b5, 2085-97-43 00:175:255:2030,0.021,-0.04,0.991,0.122,0,0,-1.17,2.878,32.476
 14:37:10.976,eb:33:2e:f9:57:b5, 2085-97-43 00:175:255:2032,0.021,-0.039,0.992,0,0,0,-1.17,2.878,32.476
 14:37:10.976,eb:33:2e:f9:57:b5, 2085-97-39 00:174:255:2031,0.02,-0.041,0.992,0,0.061,0,-1.17,2.878,32.476
 14:37:10.976,eb:33:2e:f9:57:b5, 2085-97-38 00:173:255:2030,0.019,-0.041,0.992,0.061,0.061,0,-1.17,2.878,32.476
 14:37:10.976,eb:33:2e:f9:57:b5, 2085-97-40 00:174:255:2033,0.02,-0.041,0.992,0.061,0,0,-1.17,2.878,32.476
 14:37:11.034,eb:33:2e:f9:57:b5, 2085-97-40 00:173:255:2034,0.02,-0.041,0.993,0.061,0,0,-1.17,2.878,32.476
 14:37:11.034,eb:33:2e:f9:57:b5, 2085-97-41 00:174:255:2034,0.02,-0.04,0.994,0.183,0,0.122,-1.17,2.878,32.476
 14:37:11.034,eb:33:2e:f9:57:b5, 2085-97-40 00:173:255:2034,0.02,-0.041,0.994,0.305,0,0.061,-1.17,2.878,32.47
 14:37:11.035,eb:33:2e:f9:57:b5, 2085-97-41 00:173:255:2032,0.02,-0.041,0.992,0.305,0,0.061,-1.17,2.878,32.47
 14:37:11.065,eb:33:2e:f9:57:b5, 2085-97-41 00:175:255:2032,0.021,-0.04,0.993,0.366,-0.061,0.061,-1.17,2.878,32.47
 14:37:11.065,eb:33:2e:f9:57:b5, 2085-97-42 00:177:255:2031,0.021,-0.039,0.992,0.366,0,0,-1.17,2.878,32.47
 14:37:11.065,eb:33:2e:f9:57:b5, 2085-97-42 00:177:255:2030,0.02,-0.039,0.991,0.305,0.061,0.061,-1.17,2.878,32.47
 14:37:11.065,eb:33:2e:f9:57:b5, 2085-97-41 00:175:255:2030,0.021,-0.039,0.991,0.305,0.122,0.061,-1.17,2.878,32.47
 14:37:11.184,eb:33:2e:f9:57:b5, 2085-97-41 00:176:255:2033,0.02,-0.04,0.992,0.244,0.183,0.061,-1.17,2.878,32.47
 14:37:11.184,eb:33:2e:f9:57:b5, 2085-97-41 00:175:255:2033,0.02,-0.039,0.993,0.305,0.244,0,-1.17,2.878,32.47
 14:37:11.184,eb:33:2e:f9:57:b5, 2085-97-41 00:174:255:2035,0.021,-0.039,0.993,0.305,0.183,0.061,-1.17,2.878,32.47
 14:37:11.184,eb:33:2e:f9:57:b5, 2085-97-39 00:175:255:2029,0.019,-0.04,0.993,0.366,0.183,0.061,-1.17,2.878,32.47
 14:37:11.186,eb:33:2e:f9:57:b5, 2085-97-40 00:177:255:2026,0.019,-0.039,0.99,0.305,0.183,0.061,-1.165,2.878,32.47
 14:37:11.186,eb:33:2e:f9:57:b5, 2085-97-39 00:178:255:2029,0.02,-0.038,0.99,0.183,0.122,0.061,-1.165,2.878,32.47
 14:37:11.186,eb:33:2e:f9:57:b5, 2085-97-41 00:176:255:2029,0.02,-0.039,0.99,0.183,0.122,0,-1.165,2.878,32.47
 14:37:11.186,eb:33:2e:f9:57:b5, 2085-97-40 00:175:255:2029,0.02,-0.039,0.99,0.122,0.183,0,-1.165,2.878,32.47
 14:37:11.189,eb:33:2e:f9:57:b5, 2085-97-39 00:176:255:2029,0.018,-0.04,0.991,0.183,0.183,0,-1.165,2.878,32.47
 14:37:11.189,eb:33:2e:f9:57:b5, 2085-97-38 00:175:255:2029,0.02,-0.039,0.991,0.183,0,0,-1.165,2.878,32.47
 14:37:11.189,eb:33:2e:f9:57:b5, 2085-97-42 00:176:255:2031,0.02,-0.04,0.991,0.183,0,-0.061,-1.165,2.878,32.47
 14:37:11.189,eb:33:2e:f9:57:b5, 2085-97-42 00:176:255:2032,0.021,-0.039,0.992,0.183,0,0,-1.165,2.878,32.47
 14:37:11.214,eb:33:2e:f9:57:b5, 2085-97-41 00:176:255:2032,0.02,-0.039,0.992,0.183,0,0,-1.165,2.878,32.47
 14:37:11.214,eb:33:2e:f9:57:b5, 2085-97-41 00:178:255:2030,0.02,-0.039,0.991,0.183,0,0,-1.165,2.878,32.47
 14:37:11.214,eb:33:2e:f9:57:b5, 2085-97-41 00:177:255:2029,0.021,-0.038,0.99,0.183,0.061,0,-1.165,2.878,32.47
 14:37:11.214,eb:33:2e:f9:57:b5, 2085-97-41 00:176:255:2034,0.021,-0.039,0.992,0.061,0.183,0,-1.165,2.878,32.47
 14:37:11.276,eb:33:2e:f9:57:b5, 2085-97-40 00:177:255:2036,0.02,-0.039,0.994,0.061,0.305,0.061,-1.165,2.878,32.465
 14:37:11.276,eb:33:2e:f9:57:b5, 2085-97-39 00:176:255:2031,0.019,-0.039,0.993,0.183,0.183,0.061,-1.165,2.878,32.465
 14:37:11.276,eb:33:2e:f9:57:b5, 2085-97-38 00:177:255:2030,0.019,-0.04,0.992,0.183,0.061,0.061,-1.165,2.878,32.465
 14:37:11.276,eb:33:2e:f9:57:b5, 2085-97-40 00:176:255:2029,0.02,-0.039,0.99,0.244,0,0,-1.165,2.878,32.465
 14:37:11.335,eb:33:2e:f9:57:b5, 2085-97-42 00:179:255:2029,0.02,-0.038,0.991,0.122,0,0,-1.165,2.878,32.465
 14:37:11.335,eb:33:2e:f9:57:b5, 2085-97-40 00:180:255:2028,0.02,-0.037,0.99,0.061,0,0,-1.165,2.878,32.465
 14:37:11.335,eb:33:2e:f9:57:b5, 2085-97-39 00:178:255:2027,0.02,-0.037,0.99,0,0,0,-1.165,2.878,32.465
 14:37:11.335,eb:33:2e:f9:57:b5, 2085-97-40 00:177:255:2029,0.021,-0.039,0.99,-0.061,0,-0.061,-1.165,2.878,32.465
 14:37:11.337,eb:33:2e:f9:57:b5, 2085-97-41 00:177:255:2031,0.02,-0.038,0.992,-0.061,0.061,-0.122,-1.165,2.878,32.465
 14:37:11.337,eb:33:2e:f9:57:b5, 2085-97-40 00:177:255:2031,0.019,-0.039,0.992,-0.061,0,-0.122,-1.165,2.878,32.465
 14:37:11.337,eb:33:2e:f9:57:b5, 2085-97-40 00:177:255:2032,0.02,-0.04,0.992,0,0,-0.061,-1.159,2.878,32.465
 14:37:11.337,eb:33:2e:f9:57:b5, 2085-97-39 00:177:255:2030,0.019,-0.038,0.993,0,0,-0.061,-1.159,2.878,32.465
 14:37:11.365,eb:33:2e:f9:57:b5, 2085-97-39 00:176:255:2032,0.019,-0.039,0.992,0,0,0,-1.159,2.878,32.465
 14:37:11.365,eb:33:2e:f9:57:b5, 2085-97-40 00:179:255:2032,0.02,-0.038,0.992,0,-0.122,0,-1.159,2.878,32.465
 14:37:11.365,eb:33:2e:f9:57:b5, 2085-97-42 00:177:255:2031,0.02,-0.038,0.991,0,-0.183,0,-1.159,2.878,32.465
 14:37:11.365,eb:33:2e:f9:57:b5, 2085-97-40 00:178:255:2030,0.02,-0.038,0.991,0,-0.183,0,-1.159,2.878,32.465
 14:37:11.425,eb:33:2e:f9:57:b5, 2085-97-42 00:179:255:2032,0.021,-0.038,0.992,0,-0.183,0,-1.159,2.878,32.465
 14:37:11.425,eb:33:2e:f9:57:b5, 2085-97-42 00:179:255:2033,0.021,-0.038,0.992,0,-0.061,0,-1.159,2.878,32.465
 14:37:11.425,eb:33:2e:f9:57:b5, 2085-97-41 00:176:255:2034,0.021,-0.038,0.993,0,0,-0.061,-1.159,2.878,32.459
 14:37:11.425,eb:33:2e:f9:57:b5, 2085-97-42 00:176:255:2034,0.02,-0.039,0.993,0,0,-0.061,-1.159,2.878,32.459
 14:37:11.456,eb:33:2e:f9:57:b5, 2085-97-42 00:176:255:2033,0.021,-0.039,0.993,0.122,0,-0.061,-1.159,2.878,32.459
 14:37:11.456,eb:33:2e:f9:57:b5, 2085-97-41 00:178:255:2033,0.02,-0.038,0.993,0.061,0.061,0,-1.159,2.878,32.459
 14:37:11.456,eb:33:2e:f9:57:b5, 2085-97-40 00:176:255:2031,0.02,-0.039,0.992,0.061,0.122,0,-1.159,2.878,32.459
 14:37:11.456,eb:33:2e:f9:57:b5, 2085-97-39 00:178:255:2029,0.019,-0.038,0.992,0.122,0.122,0,-1.159,2.878,32.459
 14:37:11.514,eb:33:2e:f9:57:b5, 2085-97-41 00:176:255:2031,0.021,-0.038,0.991,0,0,-0.061,-1.159,2.878,32.459
 14:37:11.514,eb:33:2e:f9:57:b5, 2085-97-40 00:177:255:2034,0.02,-0.039,0.992,0,0,-0.061,-1.159,2.878,32.459
 14:37:11.514,eb:33:2e:f9:57:b5, 2085-97-38 00:176:255:2032,0.02,-0.039,0.993,0.061,0.061,-0.061,-1.154,2.878,32.459
 14:37:11.514,eb:33:2e:f9:57:b5, 2085-97-39 00:177:255:2033,0.02,-0.038,0.993,0.061,0,-0.061,-1.154,2.878,32.459
 14:37:11.575,eb:33:2e:f9:57:b5, 2085-97-41 00:177:255:2033,0.021,-0.039,0.993,0.061,0,0,-1.154,2.878,32.459
 14:37:11.575,eb:33:2e:f9:57:b5, 2085-97-40 00:176:255:2032,0.02,-0.04,0.993,0.122,0,0,-1.154,2.878,32.459
 14:37:11.575,eb:33:2e:f9:57:b5, 2085-97-42 00:177:255:2032,0.021,-0.039,0.992,0.183,0,0,-1.154,2.878,32.459
 14:37:11.575,eb:33:2e:f9:57:b5, 2085-97-43 00:176:255:2032,0.02,-0.039,0.992,0.183,0,0,-1.154,2.878,32.459
 14:37:11.575,eb:33:2e:f9:57:b5, 2085-113-58 00:206:215:2490,0.02,-0.038,0.991,0.061,0.061,-0.061,-1.154,2.878,32.459
 14:37:11.604,eb:33:2e:f9:57:b5, 2085-97-40 00:180:255:2029,0.02,-0.038,0.991,0.122,0.061,-0.061,-1.154,2.878,32.459
 14:37:11.604,eb:33:2e:f9:57:b5, 2085-97-42 00:180:255:2029,0.02,-0.038,0.991,0.061,0.061,0,-1.154,2.878,32.459
 14:37:11.604,eb:33:2e:f9:57:b5, 2085-97-39 00:179:255:2029,0.019,-0.038,0.991,0,0.061,0,-1.154,2.878,32.459
 14:37:11.605,eb:33:2e:f9:57:b5, 2085-97-38 00:178:255:2027,0.019,-0.038,0.99,0,0.061,-0.061,-1.154,2.878,32.459
 14:37:11.610,eb:33:2e:f9:57:b5, 2085-97-41 00:179:255:2029,0.019,-0.038,0.99,0,0,-0.061,-1.154,2.878,32.459
 14:37:11.610,eb:33:2e:f9:57:b5, 2085-97-40 00:177:255:2033,0.021,-0.037,0.992,0,0,-0.061,-1.154,2.878,32.459
 14:37:11.610,eb:33:2e:f9:57:b5, 2085-97-41 00:178:255:2037,0.02,-0.039,0.994,0,0,0,-1.154,2.878,32.459
 14:37:11.610,eb:33:2e:f9:57:b5, 2085-97-41 00:176:255:2038,0.02,-0.038,0.995,0,0,-0.061,-1.154,2.878,32.459
 14:37:11.724,eb:33:2e:f9:57:b5, 2085-97-41 00:175:255:2039,0.02,-0.04,0.996,0.183,0,0,-1.154,2.878,32.459
 14:37:11.732,eb:33:2e:f9:57:b5, 2085-113-81 00:222:122:-550,0.02,-0.038,0.995,0.244,0.061,0,-1.154,2.878,32.459
 14:37:11.732,eb:33:2e:f9:57:b5, 2085-97-41 00:177:255:2032,0.02,-0.039,0.994,0.305,0,0.061,-1.148,2.878,32.459
 14:37:11.732,eb:33:2e:f9:57:b5, 2085-97-40 00:178:255:2031,0.02,-0.038,0.992,0.366,0,0.061,-1.148,2.878,32.459
 14:37:11.732,eb:33:2e:f9:57:b5, 2085-97-40 00:180:255:2025,0.02,-0.037,0.99,0.305,0,0.061,-1.148,2.878,32.459
 14:37:11.732,eb:33:2e:f9:57:b5, 2085-97-40 00:179:255:2029,0.019,-0.038,0.989,0.305,0,0.061,-1.148,2.878,32.459
 14:37:11.732,eb:33:2e:f9:57:b5, 2085-97-41 00:180:255:2028,0.02,-0.037,0.991,0.183,0.061,0,-1.148,2.878,32.459
 14:37:11.732,eb:33:2e:f9:57:b5, 2085-97-37 00:181:255:2027,0.019,-0.036,0.991,0.122,0.122,0,-1.148,2.878,32.459
 14:37:11.755,eb:33:2e:f9:57:b5, 2085-97-38 00:180:255:2028,0.018,-0.037,0.99,0,0.122,0,-1.148,2.878,32.454
 14:37:11.755,eb:33:2e:f9:57:b5, 2085-97-37 00:180:255:2028,0.019,-0.038,0.99,-0.061,0.122,0,-1.148,2.878,32.454
 14:37:11.755,eb:33:2e:f9:57:b5, 2085-97-38 00:179:255:2029,0.019,-0.038,0.991,-0.061,0,0,-1.148,2.878,32.454
 14:37:11.755,eb:33:2e:f9:57:b5, 2085-97-38 00:179:255:2030,0.018,-0.038,0.991,-0.122,0,0,-1.148,2.878,32.454
 14:37:11.875,eb:33:2e:f9:57:b5, 2085-97-39 00:179:255:2028,0.019,-0.038,0.991,-0.122,-0.122,0,-1.148,2.878,32.454
 14:37:11.875,eb:33:2e:f9:57:b5, 2085-97-40 00:179:255:2033,0.022,-0.038,0.991,-0.183,-0.183,0,-1.148,2.878,32.454
 14:37:11.875,eb:33:2e:f9:57:b5, 2085-97-48 00:180:255:2038,0.018,-0.037,0.993,-0.122,0,0,-1.148,2.878,32.454
 14:37:11.875,eb:33:2e:f9:57:b5, 2085-97-34 00:177:255:2028,0.017,-0.04,0.992,-0.122,0.061,-0.061,-1.148,2.878,32.454
 14:37:11.876,eb:33:2e:f9:57:b5, 2085-97-42 00:177:255:2032,0.022,-0.04,0.99,-0.061,-0.061,0,-1.143,2.878,32.454
 14:37:11.876,eb:33:2e:f9:57:b5, 2085-97-45 00:177:255:2037,0.021,-0.038,0.993,0,-0.183,0,-1.143,2.878,32.454
 14:37:11.876,eb:33:2e:f9:57:b5, 2085-97-42 00:178:255:2035,0.021,-0.039,0.994,0,-0.061,0,-1.143,2.878,32.454
 14:37:11.876,eb:33:2e:f9:57:b5, 2085-97-42 00:180:255:2033,0.021,-0.039,0.993,0.061,0,0,-1.143,2.878,32.454
 14:37:11.878,eb:33:2e:f9:57:b5, 2085-97-44 00:179:255:2033,0.021,-0.038,0.993,0.061,0,0,-1.143,2.878,32.454
 14:37:11.878,eb:33:2e:f9:57:b5, 2085-97-42 00:180:255:2032,0.021,-0.037,0.993,0.061,0.061,0,-1.143,2.878,32.454
 14:37:11.878,eb:33:2e:f9:57:b5, 2085-97-42 00:178:255:2032,0.02,-0.036,0.992,0.061,0.122,0,-1.143,2.878,32.454
 14:37:11.879,eb:33:2e:f9:57:b5, 2085-97-41 00:178:255:2030,0.02,-0.038,0.991,0.061,0.183,-0.061,-1.143,2.878,32.454
 14:37:11.904,eb:33:2e:f9:57:b5, 2085-97-41 00:178:255:2031,0.02,-0.038,0.991,0.061,0.183,-0.061,-1.143,2.878,32.454
 14:37:11.904,eb:33:2e:f9:57:b5, 2085-97-41 00:179:255:2031,0.021,-0.038,0.992,0.061,0.305,-0.122,-1.143,2.878,32.454
 14:37:11.904,eb:33:2e:f9:57:b5, 2085-97-41 00:177:255:2033,0.02,-0.038,0.992,0.122,0.305,0,-1.143,2.878,32.454
 14:37:11.904,eb:33:2e:f9:57:b5, 2085-97-42 00:180:255:2033,0.021,-0.038,0.993,0.122,0.244,-0.061,-1.143,2.878,32.454
 14:37:12.054,eb:33:2e:f9:57:b5, 2085-97-40 00:179:255:2031,0.018,-0.038,0.993,0.122,0.305,-0.061,-1.143,2.878,32.448
 14:37:12.054,eb:33:2e:f9:57:b5, 2085-97-39 00:177:255:2029,0.02,-0.038,0.992,0.183,0.305,-0.061,-1.143,2.878,32.448
 14:37:12.054,eb:33:2e:f9:57:b5, 2085-97-39 00:180:255:2031,0.02,-0.037,0.992,0.183,0.244,0,-1.137,2.878,32.448
 14:37:12.054,eb:33:2e:f9:57:b5, 2085-113-58 00:116:215:2265,0.02,-0.038,0.991,0.183,0.244,0,-1.137,2.878,32.448
 14:37:12.054,eb:33:2e:f9:57:b5, 2085-97-39 00:179:255:2030,0.02,-0.038,0.992,0.183,0.244,0,-1.137,2.878,32.448
 14:37:12.056,eb:33:2e:f9:57:b5, 2085-97-41 00:180:255:2031,0.019,-0.037,0.992,0.183,0.122,0,-1.137,2.878,32.448
 14:37:12.056,eb:33:2e:f9:57:b5, 2085-97-40 00:180:255:2031,0.02,-0.038,0.991,0.122,0.061,0,-1.137,2.878,32.448
 14:37:12.057,eb:33:2e:f9:57:b5, 2085-97-40 00:181:255:2028,0.019,-0.036,0.992,0.183,0.061,0,-1.137,2.878,32.448
 14:37:12.057,eb:33:2e:f9:57:b5, 2085-97-38 00:180:255:2031,0.019,-0.037,0.991,0.122,0.061,0,-1.137,2.878,32.448
 14:37:12.059,eb:33:2e:f9:57:b5, 2085-97-38 00:179:255:2032,0.019,-0.037,0.992,0.122,0.122,0,-1.137,2.878,32.448
 14:37:12.059,eb:33:2e:f9:57:b5, 2085-97-40 00:178:255:2036,0.02,-0.038,0.993,0.183,0,0.061,-1.137,2.878,32.448
 14:37:12.059,eb:33:2e:f9:57:b5, 2085-97-40 00:180:255:2032,0.019,-0.038,0.994,0.122,0.122,0,-1.137,2.878,32.448
 14:37:12.059,eb:33:2e:f9:57:b5, 2085-97-36 00:180:255:2027,0.018,-0.037,0.991,0.183,0.122,0.061,-1.137,2.878,32.448
 14:37:12.059,eb:33:2e:f9:57:b5, 2085-97-37 00:181:255:2026,0.019,-0.036,0.989,0.061,0.061,0,-1.137,2.878,32.448
 14:37:12.059,eb:33:2e:f9:57:b5, 2085-97-38 00:182:255:2029,0.019,-0.036,0.989,0.061,-0.061,0,-1.137,2.878,32.448
 14:37:12.060,eb:33:2e:f9:57:b5, 2085-97-38 00:182:255:2029,0.019,-0.036,0.991,0,-0.061,0,-1.132,2.878,32.448
 14:37:12.060,eb:33:2e:f9:57:b5, 2085-97-39 00:182:255:2028,0.019,-0.036,0.99,-0.122,-0.061,0,-1.132,2.878,32.448
 14:37:12.115,eb:33:2e:f9:57:b5, 2085-97-41 00:178:255:2033,0.02,-0.037,0.991,-0.122,0,-0.061,-1.132,2.878,32.448
 14:37:12.115,eb:33:2e:f9:57:b5, 2085-97-40 00:180:255:2034,0.02,-0.037,0.993,-0.122,0,-0.061,-1.132,2.878,32.448
 14:37:12.115,eb:33:2e:f9:57:b5, 2085-97-39 00:178:255:2035,0.018,-0.038,0.994,-0.061,0,0,-1.132,2.878,32.448
 14:37:12.115,eb:33:2e:f9:57:b5, 2085-97-37 00:180:255:2034,0.019,-0.038,0.993,0,0,0,-1.132,2.878,32.448
 14:37:12.145,eb:33:2e:f9:57:b5, 2085-97-39 00:180:255:2029,0.019,-0.038,0.992,0,-0.061,0,-1.132,2.878,32.443
 14:37:12.145,eb:33:2e:f9:57:b5, 2085-97-40 00:181:255:2030,0.02,-0.036,0.992,0,-0.061,0,-1.132,2.878,32.443
 14:37:12.145,eb:33:2e:f9:57:b5, 2085-97-40 00:182:255:2031,0.019,-0.037,0.991,-0.061,0,-0.061,-1.132,2.878,32.443
 14:37:12.145,eb:33:2e:f9:57:b5, 2085-97-39 00:181:255:2029,0.019,-0.037,0.991,0,0,-0.061,-1.132,2.878,32.443
 14:37:12.176,eb:33:2e:f9:57:b5, 2085-97-40 00:180:255:2031,0.019,-0.037,0.991,-0.061,-0.061,-0.061,-1.126,2.884,32.443
 14:37:12.176,eb:33:2e:f9:57:b5, 2085-97-39 00:182:255:2033,0.019,-0.037,0.992,-0.122,0,-0.061,-1.126,2.884,32.443
 14:37:12.176,eb:33:2e:f9:57:b5, 2085-97-39 00:182:255:2030,0.019,-0.036,0.992,-0.122,0,-0.122,-1.126,2.884,32.443
 14:37:12.176,eb:33:2e:f9:57:b5, 2085-97-39 00:179:255:2032,0.02,-0.037,0.992,-0.122,0,-0.061,-1.126,2.884,32.443
 14:37:12.234,eb:33:2e:f9:57:b5, 2085-97-41 00:181:255:2032,0.02,-0.037,0.992,-0.122,-0.061,-0.061,-1.126,2.884,32.443
 14:37:12.234,eb:33:2e:f9:57:b5, 2085-97-38 00:180:255:2032,0.019,-0.037,0.993,-0.061,0,-0.061,-1.126,2.884,32.443
