Time,Device name,Chip Time(),Acceleration X(g),Acceleration Y(g),Acceleration Z(g),Angular velocity X(°/s),Angular velocity Y(°/s),Angular velocity Z(°/s),Angle X(°),Angle Y(°),Angle Z(°)
 14:40:28.835,eb:33:2e:f9:57:b5, 2085-97-190 00:194:252:1802,0.12,-0.441,0.868,-319.946,-80.322,-44.006,32.355,17.369,166.218
 14:40:28.835,eb:33:2e:f9:57:b5, 2085-97-22 01:128:253:1926,0.148,-0.354,0.894,-318.726,-98.145,-35.217,28.976,16.793,165.449
 14:40:28.835,eb:33:2e:f9:57:b5, 2085-97-06 01:212:253:2261,0.101,-0.286,1.014,-311.523,-119.751,-29.602,25.631,15.936,164.669
 14:40:28.835,eb:33:2e:f9:57:b5, 2085-97-166 00:18:254:2706,0.06,-0.251,1.21,-300.11,-138.55,-22.4,22.429,14.832,163.938
 14:40:28.837,eb:33:2e:f9:57:b5, 2085-97-72 00:217:253:3072,0.007,-0.248,1.43,-287.231,-147.217,-11.536,19.358,13.519,163.295
 14:40:28.837,eb:33:2e:f9:57:b5, 2085-97-242 255:158:253:3218,-0.006,-0.29,1.54,-276.855,-146.179,3.052,16.474,12.118,162.861
 14:40:28.837,eb:33:2e:f9:57:b5, 2085-97-21 00:219:253:3424,0.055,-0.295,1.604,-268.311,-140.686,19.897,13.7,10.69,162.642
 14:40:28.837,eb:33:2e:f9:57:b5, 2085-97-129 00:39:254:3589,0.12,-0.271,1.715,-258.057,-133.85,35.583,11.074,9.289,162.697
 14:40:28.954,eb:33:2e:f9:57:b5, 2085-97-14 01:176:254:3663,0.167,-0.207,1.782,-245.972,-134.399,49.316,8.553,7.888,162.933
 14:40:28.954,eb:33:2e:f9:57:b5, 2085-97-164 01:228:254:3605,0.211,-0.15,1.794,-236.206,-141.663,60.425,6.174,6.454,163.378
 14:40:28.954,eb:33:2e:f9:57:b5, 2085-97-207 01:190:254:3961,0.245,-0.146,1.856,-233.459,-153.931,70.251,3.823,4.911,163.943
 14:40:28.954,eb:33:2e:f9:57:b5, 2085-97-27 02:197:254:4317,0.274,-0.16,2.019,-236.328,-161.926,79.834,1.478,3.307,164.696
 14:40:28.954,eb:33:2e:f9:57:b5, 2085-97-80 02:229:254:4770,0.283,-0.148,2.208,-243.286,-167.664,89.05,-0.967,1.659,165.575
 14:40:28.956,eb:33:2e:f9:57:b5, 2085-113-81 00:04:15:986,0.255,-0.126,2.47,-252.441,-173.523,100.708,-3.505,0.011,166.668
 14:40:28.956,eb:33:2e:f9:57:b5, 2085-97-221 01:107:255:5729,0.23,-0.108,2.635,-258.362,-174.072,108.398,-4.834,-0.807,167.272
 14:40:28.956,eb:33:2e:f9:57:b5, 2085-97-236 01:15:01:6130,0.234,0.005,2.924,-274.658,-164.978,126.526,-7.663,-2.351,168.668
 14:40:28.956,eb:33:2e:f9:57:b5, 2085-97-80 01:193:03:5688,0.17,0.306,2.968,-294.861,-144.714,143.005,-10.723,-3.631,170.338
 14:40:28.960,eb:33:2e:f9:57:b5, 2085-97-19 02:235:07:4955,0.377,0.692,2.524,-302.551,-150.818,145.142,-14.002,-4.697,172.106
 14:40:28.961,eb:33:2e:f9:57:b5, 2085-97-189 03:53:12:5272,0.579,1.238,2.498,-297.913,-161.743,128.052,-17.309,-5.834,173.952
 14:40:28.961,eb:33:2e:f9:57:b5, 2085-97-41 05:25:21:5607,0.75,2.101,2.621,-277.893,-146.057,85.815,-20.49,-6.927,175.512
 14:40:28.961,eb:33:2e:f9:57:b5, 2085-97-244 05:07:29:4884,0.486,3.133,2.767,-248.657,-104.065,25.33,-23.324,-7.866,176.572
 14:40:29.015,eb:33:2e:f9:57:b5, 2085-97-24 255:74:36:1412,-0.869,4.146,1.593,-199.463,-107.178,-54.321,-25.631,-8.811,176.825
 14:40:29.015,eb:33:2e:f9:57:b5, 2085-97-153 243:38:36:1088,-2.222,4.682,0.266,-135.681,-230.286,-126.648,-27.268,-10.772,176.808
 14:40:29.015,eb:33:2e:f9:57:b5, 2085-97-132 234:227:28:5714,-2.91,4.138,1.455,-68.481,-290.161,-146.973,-28.301,-13.881,176.902
 14:40:29.015,eb:33:2e:f9:57:b5, 2085-97-81 233:206:19:8420,-2.481,3.034,3.815,9.827,-159.363,-109.497,-28.564,-16.562,176.979
 14:40:29.044,eb:33:2e:f9:57:b5, 2085-97-37 240:143:12:6623,-1.454,1.912,3.84,59.265,85.327,-47.485,-27.949,-17.166,176.396
 14:40:29.044,eb:33:2e:f9:57:b5, 2085-97-176 248:186:10:4462,-0.279,1.391,2.689,77.087,258.24,6.287,-26.856,-15.562,175.325
 14:40:29.044,eb:33:2e:f9:57:b5, 2085-97-148 12:171:07:11374,0.208,1.397,1.726,99.426,293.64,11.719,-25.615,-12.876,174.078
 14:40:29.044,eb:33:2e:f9:57:b5, 2085-97-101 04:254:252:463,0.467,-0.598,2.025,171.814,316.528,22.156,-23.654,-10.102,172.776
 14:40:29.074,eb:33:2e:f9:57:b5, 2085-97-223 01:240:247:708,0.046,-0.439,-0.081,158.752,220.581,21.729,-21.802,-7.581,171.837
 14:40:29.074,eb:33:2e:f9:57:b5, 2085-97-158 254:06:243:1479,-0.125,-1.61,0.43,193.176,117.798,33.936,-19.99,-5.955,171.53
 14:40:29.074,eb:33:2e:f9:57:b5, 2085-97-73 255:162:248:2389,-0.111,-1.267,1.098,245.239,56.763,49.866,-17.82,-5.081,171.672
 14:40:29.074,eb:33:2e:f9:57:b5, 2085-97-113 254:144:254:2859,-0.213,-0.585,1.341,281.433,43.152,55.298,-15.167,-4.471,172.084
 14:40:29.138,eb:33:2e:f9:57:b5, 2085-97-11 253:33:02:2912,-0.441,0.091,1.531,258.179,66.65,60.669,-12.502,-3.812,172.502
 14:40:29.138,eb:33:2e:f9:57:b5, 2085-97-211 252:92:03:2113,-0.267,0.438,1.147,218.506,80.933,56.274,-10.184,-2.917,172.969
 14:40:29.138,eb:33:2e:f9:57:b5, 2085-97-180 254:69:02:2111,-0.138,0.396,1.004,174.988,53.833,23.926,-8.267,-2.17,173.238
 14:40:29.138,eb:33:2e:f9:57:b5, 2085-97-51 255:235:255:2072,0.089,0.109,0.996,148.621,20.264,-15.869,-6.68,-1.813,173.243
 14:40:29.165,eb:33:2e:f9:57:b5, 2085-97-51 02:161:255:2413,0.298,-0.048,1.153,140.808,5.798,-28.687,-5.197,-1.736,172.969
 14:40:29.165,eb:33:2e:f9:57:b5, 2085-97-185 01:202:255:2216,0.182,-0.083,1.156,124.817,25.146,-17.822,-3.845,-1.609,172.755
 14:40:29.165,eb:33:2e:f9:57:b5, 2085-97-221 01:189:01:2346,0.241,0.204,1.11,88.257,34.241,-5.432,-2.747,-1.285,172.617
 14:40:29.165,eb:33:2e:f9:57:b5, 2085-97-21 01:34:02:2197,-0.014,0.303,1.142,52.734,44.617,-1.465,-2.06,-0.895,172.617
 14:40:29.195,eb:33:2e:f9:57:b5, 2085-97-99 255:125:00:1846,-0.039,0.16,0.954,33.63,40.588,-8.301,-1.642,-0.445,172.535
 14:40:29.195,eb:33:2e:f9:57:b5, 2085-97-65 00:170:255:1988,0.05,-0.04,0.935,28.687,26.184,-9.949,-1.335,-0.137,172.458
 14:40:29.195,eb:33:2e:f9:57:b5, 2085-97-42 00:113:00:1975,-0.035,0.008,0.992,23.376,22.766,-7.08,-1.055,0.104,172.359
 14:40:29.195,eb:33:2e:f9:57:b5, 2085-97-165 255:35:00:1896,0.004,0.055,0.925,14.465,16.541,-5.981,-0.868,0.302,172.326
 14:40:29.257,eb:33:2e:f9:57:b5, 2085-97-129 00:194:255:2123,0.091,-0.019,0.976,10.864,10.437,-3.662,-0.736,0.428,172.266
 14:40:29.257,eb:33:2e:f9:57:b5, 2085-97-158 00:199:255:2180,0.049,-0.03,1.067,11.536,14.16,-3.296,-0.621,0.549,172.266
 14:40:29.257,eb:33:2e:f9:57:b5, 2085-97-59 00:175:255:2116,0.025,-0.029,1.05,11.658,17.09,-1.77,-0.5,0.714,172.227
 14:40:29.258,eb:33:2e:f9:57:b5, 2085-97-45 00:157:255:2077,0.014,-0.045,1.021,12.146,16.663,0.854,-0.379,0.884,172.26
 14:40:29.284,eb:33:2e:f9:57:b5, 2085-97-23 00:169:255:2090,0.017,-0.044,1.009,13.245,14.404,2.075,-0.247,1.044,172.266
 14:40:29.284,eb:33:2e:f9:57:b5, 2085-97-35 00:172:255:2101,0.02,-0.04,1.023,14.343,12.756,3.052,-0.11,1.176,172.326
 14:40:29.284,eb:33:2e:f9:57:b5, 2085-97-39 00:193:255:2074,0.016,-0.037,1.019,15.93,12.329,3.357,0.049,1.307,172.354
 14:40:29.284,eb:33:2e:f9:57:b5, 2085-97-43 00:190:255:2080,0.021,-0.032,1.006,17.578,10.62,2.869,0.22,1.423,172.419
 14:40:29.315,eb:33:2e:f9:57:b5, 2085-97-58 00:197:255:2101,0.031,-0.03,1.02,19.226,9.155,2.502,0.406,1.527,172.436
 14:40:29.315,eb:33:2e:f9:57:b5, 2085-97-76 00:220:255:2079,0.039,-0.026,1.021,19.714,10.01,2.808,0.604,1.62,172.502
 14:40:29.315,eb:33:2e:f9:57:b5, 2085-97-54 00:245:255:2020,0.021,-0.001,1.001,19.348,11.292,2.38,0.807,1.736,172.518
 14:40:29.315,eb:33:2e:f9:57:b5, 2085-97-39 00:04:00:1973,0.026,-0.002,0.971,17.334,11.597,2.441,0.989,1.851,172.579
 14:40:29.374,eb:33:2e:f9:57:b5, 2085-97-32 00:03:00:1964,0.022,0.01,0.963,15.198,11.169,2.136,1.154,1.967,172.595
 14:40:29.374,eb:33:2e:f9:57:b5, 2085-97-33 00:17:00:1969,0.003,0.01,0.964,13.184,10.681,2.014,1.291,2.076,172.656
 14:40:29.374,eb:33:2e:f9:57:b5, 2085-97-249 255:243:255:1956,0.006,0.001,0.953,11.536,9.094,1.77,1.417,2.181,172.667
 14:40:29.374,eb:33:2e:f9:57:b5, 2085-97-40 00:25:00:1987,0.017,0.006,0.959,9.766,7.507,2.258,1.522,2.263,172.727
 14:40:29.406,eb:33:2e:f9:57:b5, 2085-97-26 00:31:00:1972,0,0.008,0.965,8.484,7.69,1.709,1.62,2.346,172.744
 14:40:29.406,eb:33:2e:f9:57:b5, 2085-97-241 255:00:00:1966,0.004,0.005,0.963,7.507,6.592,1.343,1.703,2.417,172.793
 14:40:29.406,eb:33:2e:f9:57:b5, 2085-97-28 00:26:00:2014,0.018,0.009,0.966,6.836,4.7,1.343,1.774,2.477,172.804
 14:40:29.406,eb:33:2e:f9:57:b5, 2085-97-49 00:23:00:2047,0.024,0.009,0.992,6.836,4.456,0.732,1.846,2.516,172.853
 14:40:29.466,eb:33:2e:f9:57:b5, 2085-97-65 00:31:00:2076,0.034,0.009,1.007,6.592,5.676,0.244,1.917,2.576,172.848
 14:40:29.466,eb:33:2e:f9:57:b5, 2085-97-75 00:41:00:2073,0.026,0.013,1.017,6.287,9.216,-0.305,1.983,2.648,172.886
 14:40:29.466,eb:33:2e:f9:57:b5, 2085-97-45 00:34:00:2050,0.016,0.015,1.007,5.554,11.841,-0.732,2.049,2.763,172.875
 14:40:29.466,eb:33:2e:f9:57:b5, 2085-97-44 00:34:00:2067,0.018,0.014,1.001,4.944,13.184,-0.854,2.104,2.889,172.903
 14:40:29.495,eb:33:2e:f9:57:b5, 2085-97-44 00:25:00:2088,0.016,0.009,1.019,5.554,14.404,-1.221,2.164,3.032,172.892
 14:40:29.495,eb:33:2e:f9:57:b5, 2085-97-04 00:254:255:2099,0,-0.003,1.026,6.653,16.174,-1.282,2.225,3.186,172.919
 14:40:29.495,eb:33:2e:f9:57:b5, 2085-97-239 255:02:00:2088,-0.012,0.001,1.026,8.423,17.09,-0.671,2.307,3.356,172.903
 14:40:29.495,eb:33:2e:f9:57:b5, 2085-97-240 255:12:00:2085,-0.007,0,1.018,9.644,17.273,-0.122,2.401,3.527,172.941
 14:40:29.558,eb:33:2e:f9:57:b5, 2085-97-247 255:19:00:2128,-0.001,0.005,1.024,10.925,17.822,-0.183,2.51,3.708,172.936
 14:40:29.558,eb:33:2e:f9:57:b5, 2085-97-25 00:39:00:2206,0.021,0.011,1.055,12.634,19.653,-0.854,2.626,3.895,172.969
 14:40:29.558,eb:33:2e:f9:57:b5, 2085-97-29 00:44:00:2182,0.003,0.029,1.067,14.465,23.926,-2.625,2.769,4.114,172.952
 14:40:29.558,eb:33:2e:f9:57:b5, 2085-97-234 255:22:00:2145,-0.02,0.014,1.053,16.174,27.222,-3.662,2.928,4.373,172.963
 14:40:29.558,eb:33:2e:f9:57:b5, 2085-97-191 255:00:00:2178,-0.023,0.009,1.053,17.7,28.32,-3.967,3.104,4.658,172.925
 14:40:29.558,eb:33:2e:f9:57:b5, 2085-97-166 255:249:255:2175,-0.065,0.008,1.052,18.555,30.64,-3.418,3.285,4.955,172.936
 14:40:29.558,eb:33:2e:f9:57:b5, 2085-113-81 00:238:07:-314,-0.056,-0.013,1.093,21.545,30.029,-2.014,3.483,5.273,172.914
 14:40:29.558,eb:33:2e:f9:57:b5, 2085-97-141 255:231:255:2313,-0.059,-0.008,1.139,26.062,26.733,-1.465,3.609,5.411,172.947
 14:40:29.615,eb:33:2e:f9:57:b5, 2085-97-67 255:01:00:2121,-0.114,0.006,1.056,30.64,25.696,0.305,3.9,5.68,172.947
 14:40:29.615,eb:33:2e:f9:57:b5, 2085-97-06 255:238:255:2212,-0.075,-0.01,1.043,33.813,20.63,3.784,4.23,5.905,173.013
 14:40:29.615,eb:33:2e:f9:57:b5, 2085-97-224 254:84:255:2770,-0.142,0.019,1.163,48.157,-0.732,4.211,4.636,6.021,173.062
 14:40:29.616,eb:33:2e:f9:57:b5, 2085-97-98 255:185:255:2646,-0.093,-0.089,1.332,63.904,-5.676,7.385,5.213,5.971,173.15
 14:40:29.674,eb:33:2e:f9:57:b5, 2085-97-34 255:187:255:2898,-0.104,-0.044,1.356,76.66,-11.475,8.789,5.933,5.878,173.216
 14:40:29.674,eb:33:2e:f9:57:b5, 2085-97-207 254:119:255:3119,-0.135,-0.04,1.488,93.14,-17.212,10.071,6.79,5.713,173.331
 14:40:29.674,eb:33:2e:f9:57:b5, 2085-97-99 255:175:255:3331,0.002,-0.057,1.564,109.497,-15.991,12.146,7.817,5.537,173.414
 14:40:29.675,eb:33:2e:f9:57:b5, 2085-97-202 00:09:00:3204,0.158,-0.004,1.563,127.563,-13.672,11.841,9.014,5.383,173.557
 14:40:29.677,eb:33:2e:f9:57:b5, 2085-97-251 01:193:00:3327,0.259,0.034,1.571,143.799,-8.789,8.911,10.393,5.262,173.633
 14:40:29.677,eb:33:2e:f9:57:b5, 2085-97-00 02:19:00:3738,0.238,0.084,1.761,157.776,1.77,0.122,11.909,5.208,173.699
 14:40:29.677,eb:33:2e:f9:57:b5, 2085-97-231 01:00:00:3580,0.225,0.001,1.8,175.11,26.917,-3.235,13.585,5.372,173.699
 14:40:29.677,eb:33:2e:f9:57:b5, 2085-97-69 01:184:255:3720,0.15,-0.026,1.768,193.665,44.006,-5.981,15.441,5.74,173.765
 14:40:29.765,eb:33:2e:f9:57:b5, 2085-97-150 01:50:255:3982,0.291,-0.083,1.909,215.393,61.34,-7.202,17.496,6.273,173.82
 14:40:29.765,eb:33:2e:f9:57:b5, 2085-97-234 02:130:255:4195,0.431,-0.075,1.973,240.112,73.425,-10.742,19.792,6.954,173.979
 14:40:29.765,eb:33:2e:f9:57:b5, 2085-97-244 03:75:255:4557,0.627,-0.085,2.156,267.395,85.144,-20.142,22.352,7.751,174.078
 14:40:29.765,eb:33:2e:f9:57:b5, 2085-97-244 05:176:00:4750,0.8,-0.017,2.258,297.241,106.323,-33.447,25.197,8.751,174.232
 14:40:29.767,eb:33:2e:f9:57:b5, 2085-97-111 06:211:255:5291,0.743,0.065,2.417,328.064,123.901,-55.176,28.35,9.992,174.304
 14:40:29.767,eb:33:2e:f9:57:b5, 2085-97-146 05:99:254:5595,0.642,-0.141,2.661,359.558,155.273,-75.562,31.816,11.552,174.424
 14:40:29.767,eb:33:2e:f9:57:b5, 2085-97-211 03:144:253:5704,0.342,-0.287,2.816,392.09,175.11,-92.834,35.612,13.425,174.578
 14:40:29.767,eb:33:2e:f9:57:b5, 2085-97-62 02:88:00:5420,0.21,-0.169,2.694,421.814,164.124,-97.534,39.749,15.386,174.858
 14:40:29.796,eb:33:2e:f9:57:b5, 2085-97-252 00:217:253:5732,0.14,-0.13,2.749,437.5,135.986,-105.957,44.099,17.172,175.001
 14:40:29.796,eb:33:2e:f9:57:b5, 2085-97-239 01:149:253:6098,0.356,-0.331,2.93,437.866,133.301,-106.079,48.538,18.864,175.21
 14:40:29.796,eb:33:2e:f9:57:b5, 2085-97-117 04:39:251:4788,0.722,-0.469,2.774,438.354,152.466,-101.868,53.02,20.588,175.611
 14:40:29.796,eb:33:2e:f9:57:b5, 2085-97-51 06:179:248:3715,1.016,-0.711,1.955,431.03,160.522,-103.76,57.59,22.335,176.325
 14:40:29.855,eb:33:2e:f9:57:b5, 2085-97-77 10:102:243:3716,1.299,-1.254,1.852,416.687,172.302,-95.215,62.128,24.049,177.248
 14:40:29.855,eb:33:2e:f9:57:b5, 2085-97-188 10:31:246:-783,0.7,-1.738,1.49,392.334,190.186,-81.238,66.638,25.659,178.533
 14:40:29.855,eb:33:2e:f9:57:b5, 2085-97-108 255:104:247:-5344,-0.045,-0.85,-2.214,252.136,135.437,-52.734,70.494,26.9,179.94
 14:40:29.855,eb:33:2e:f9:57:b5, 2085-97-20 02:122:245:-2281,0.431,-1.427,-1.806,52.917,33.325,-14.954,72.131,27.482,-179.396
 14:40:29.885,eb:33:2e:f9:57:b5, 2085-97-156 03:238:247:124,0.387,-1.127,-0.472,-95.215,-33.875,18.494,71.757,27.411,-179.495
 14:40:29.885,eb:33:2e:f9:57:b5, 2085-97-155 02:93:248:1476,0.338,-0.968,0.459,-191.711,-35.522,46.204,70.12,26.955,-179.742
 14:40:29.885,eb:33:2e:f9:57:b5, 2085-97-63 03:78:249:1867,0.473,-0.919,0.871,-230.591,-16.968,62.256,67.923,26.334,-179.78
 14:40:29.885,eb:33:2e:f9:57:b5, 2085-97-218 03:06:251:1532,0.497,-0.727,0.868,-237.427,-6.958,61.89,65.632,25.714,-179.583
 14:40:29.915,eb:33:2e:f9:57:b5, 2085-97-187 03:64:252:883,0.436,-0.535,0.616,-236.084,-12.451,52.795,63.32,25.153,-179.407
 14:40:29.915,eb:33:2e:f9:57:b5, 2085-97-106 03:133:252:500,0.427,-0.451,0.313,-238.647,-25.574,43.945,60.969,24.642,-179.319
 14:40:29.915,eb:33:2e:f9:57:b5, 2085-97-110 03:203:252:445,0.411,-0.422,0.219,-240.906,-45.41,33.325,58.508,24.12,-179.434
 14:40:29.915,eb:33:2e:f9:57:b5, 2085-97-19 03:06:253:528,0.353,-0.381,0.227,-244.995,-69.153,21.973,55.964,23.571,-179.775
 14:40:29.975,eb:33:2e:f9:57:b5, 2085-97-150 02:251:252:750,0.296,-0.371,0.307,-253.662,-90.088,13,53.256,22.945,179.637
 14:40:29.975,eb:33:2e:f9:57:b5, 2085-97-57 02:246:252:1010,0.253,-0.382,0.427,-267.517,-100.647,7.996,50.416,22.253,178.934
 14:40:29.975,eb:33:2e:f9:57:b5, 2085-97-227 01:02:253:1324,0.218,-0.379,0.564,-281.616,-104.065,5.493,47.411,21.506,178.187
 14:40:29.975,eb:33:2e:f9:57:b5, 2085-97-156 01:62:253:1581,0.191,-0.362,0.718,-290.71,-106.14,4.15,44.324,20.726,177.468
 14:40:30.005,eb:33:2e:f9:57:b5, 2085-97-132 01:154:253:1753,0.19,-0.322,0.816,-296.143,-108.459,3.784,41.16,19.891,176.765
 14:40:30.005,eb:33:2e:f9:57:b5, 2085-97-128 01:217:253:1891,0.182,-0.283,0.892,-300.537,-110.535,3.601,37.996,19.006,176.105
 14:40:30.005,eb:33:2e:f9:57:b5, 2085-97-113 01:59:254:2013,0.176,-0.249,0.958,-304.26,-114.258,2.93,34.788,18.062,175.479
 14:40:30.005,eb:33:2e:f9:57:b5, 2085-97-103 01:197:254:2173,0.17,-0.189,1.015,-306.885,-120.483,1.404,31.586,17.051,174.88
 14:40:30.035,eb:33:2e:f9:57:b5, 2085-97-79 01:39:255:2439,0.146,-0.125,1.117,-307.678,-128.601,-1.038,28.356,15.947,174.276
 14:40:30.035,eb:33:2e:f9:57:b5, 2085-97-05 01:66:255:2750,0.106,-0.091,1.265,-305.969,-135.803,-2.808,25.17,14.76,173.699
 14:40:30.035,eb:33:2e:f9:57:b5, 2085-97-176 00:06:255:2976,0.058,-0.101,1.407,-301.88,-140.137,-1.648,22.011,13.48,173.15
 14:40:30.036,eb:33:2e:f9:57:b5, 2085-97-98 00:185:254:3124,0.04,-0.153,1.505,-298.767,-139.832,4.578,18.94,12.151,172.727
 14:40:30.095,eb:33:2e:f9:57:b5, 2085-97-70 00:142:254:3297,0.044,-0.171,1.556,-297.058,-138.794,14.893,15.897,10.772,172.441
 14:40:30.095,eb:33:2e:f9:57:b5, 2085-97-112 00:162:254:3601,0.075,-0.181,1.678,-292.908,-136.78,28.259,12.936,9.382,172.37
 14:40:30.095,eb:33:2e:f9:57:b5, 2085-97-183 00:11:255:3891,0.12,-0.148,1.836,-284.241,-134.277,42.358,10.036,7.971,172.496
 14:40:30.095,eb:33:2e:f9:57:b5, 2085-97-90 01:176:255:4018,0.206,-0.089,1.914,-272.522,-135.01,55.664,7.278,6.586,172.853
 14:40:30.126,eb:33:2e:f9:57:b5, 2085-97-242 01:48:00:4244,0.263,-0.009,2.041,-255.737,-136.536,66.284,4.636,5.175,173.37
 14:40:30.126,eb:33:2e:f9:57:b5, 2085-97-55 02:137:00:4440,0.291,0.055,2.124,-242.676,-147.522,74.158,2.164,3.735,174.062
 14:40:30.126,eb:33:2e:f9:57:b5, 2085-97-84 02:103:00:4602,0.275,0.067,2.194,-243.225,-159.973,80.627,-0.286,2.181,174.847
 14:40:30.126,eb:33:2e:f9:57:b5, 2085-97-215 01:158:255:5105,0.168,0.012,2.349,-259.46,-172.546,90.271,-2.84,0.555,175.82
 14:40:30.155,eb:33:2e:f9:57:b5, 2085-97-240 00:23:255:5728,0.102,-0.104,2.652,-285.4,-176.88,108.337,-5.68,-1.115,176.984
 14:40:30.155,eb:33:2e:f9:57:b5, 2085-97-21 01:199:00:6083,0.177,-0.045,2.905,-315.552,-166.016,132.812,-8.855,-2.642,178.484
 14:40:30.155,eb:33:2e:f9:57:b5, 2085-97-08 01:01:04:5699,0.191,0.292,2.96,-335.022,-143.616,152.161,-12.382,-3.862,-179.769
 14:40:30.155,eb:33:2e:f9:57:b5, 2085-97-119 02:94:10:5029,0.364,0.82,2.598,-317.017,-152.161,145.813,-15.941,-4.856,-177.869
 14:40:30.274,eb:33:2e:f9:57:b5, 2085-97-60 03:75:17:5550,0.39,1.717,2.514,-279.48,-176.453,103.76,-19.21,-6.037,-176.133
 14:40:30.274,eb:33:2e:f9:57:b5, 2085-97-04 03:50:23:6573,0.384,2.53,3.04,-249.817,-158.936,51.575,-22.094,-7.366,-174.721
 14:40:30.274,eb:33:2e:f9:57:b5, 2085-97-254 01:212:31:4482,-0.146,3.383,2.945,-220.642,-81.787,-8.789,-24.582,-8.361,-174.056
 14:40:30.274,eb:33:2e:f9:57:b5, 2085-97-68 249:80:39:1095,-1.632,4.565,1.26,-180.603,-97.412,-85.266,-26.57,-9.278,-174.111
 14:40:30.276,eb:33:2e:f9:57:b5, 2085-97-25 237:134:35:2426,-2.826,4.853,0.478,-112.549,-213.989,-145.264,-27.955,-11.294,-174.419
 14:40:30.276,eb:33:2e:f9:57:b5, 2085-97-156 231:67:26:6939,-2.99,3.881,2.343,-23.193,-213.44,-140.869,-28.553,-14.019,-174.551
 14:40:30.276,eb:33:2e:f9:57:b5, 2085-97-82 235:101:16:7620,-2.068,2.636,3.876,57.373,-40.466,-89.6,-28.191,-15.716,-174.93
 14:40:30.277,eb:33:2e:f9:57:b5, 2085-97-245 243:247:11:4992,0.218,1.63,3.089,88.135,165.344,-24.963,-27.098,-15.266,-175.792
 14:40:30.279,eb:33:2e:f9:57:b5, 2085-97-150 02:250:04:8049,0.007,1.84,5.803,168.945,278.076,-27.1,-25.576,-13.348,-177.028
 14:40:30.279,eb:33:2e:f9:57:b5, 2085-97-53 04:61:00:412,0.472,0.017,0.59,175.964,283.081,-11.108,-23.307,-10.761,-178.445
 14:40:30.279,eb:33:2e:f9:57:b5, 2085-97-160 02:228:246:1409,0.004,-0.674,0.583,171.021,215.21,-0.549,-21.346,-8.564,-179.555
 14:40:30.279,eb:33:2e:f9:57:b5, 2085-97-36 00:03:245:2381,0.063,-1.795,0.975,196.899,135.315,19.531,-19.374,-6.971,179.934
 14:40:30.364,eb:33:2e:f9:57:b5, 2085-97-231 255:245:248:2427,-0.178,-1.218,1.173,243.103,89.355,41.992,-17.161,-5.861,179.885
 14:40:30.364,eb:33:2e:f9:57:b5, 2085-97-226 253:94:254:2596,-0.368,-0.519,1.22,264.954,73.486,57.312,-14.595,-4.96,-179.824
 14:40:30.364,eb:33:2e:f9:57:b5, 2085-97-228 252:238:01:2289,-0.472,0.111,1.216,239.136,81.848,77.026,-12.14,-4.037,-179.357
 14:40:30.364,eb:33:2e:f9:57:b5, 2085-97-53 253:217:03:1950,-0.233,0.374,0.986,202.332,76.355,74.341,-10.014,-3.065,-178.72
 14:40:30.369,eb:33:2e:f9:57:b5, 2085-97-70 255:180:02:2224,-0.109,0.422,1,160.583,40.222,31.189,-8.273,-2.401,-178.308
 14:40:30.369,eb:33:2e:f9:57:b5, 2085-97-142 255:72:00:2089,0.082,0.167,1.048,139.099,15.503,-19.47,-6.801,-2.137,-178.275
 14:40:30.369,eb:33:2e:f9:57:b5, 2085-97-237 01:17:255:2298,0.238,-0.063,1.046,130.859,1.099,-33.875,-5.416,-2.109,-178.594
 14:40:30.369,eb:33:2e:f9:57:b5, 2085-113-58 00:166:225:3375,0.316,-0.091,1.195,110.168,11.414,-21.729,-4.158,-2.087,-178.846
 14:40:30.369,eb:33:2e:f9:57:b5, 2085-97-161 02:216:00:2460,0.308,0.084,1.15,89.539,18.066,-11.047,-3.664,-2.016,-178.929
 14:40:30.426,eb:33:2e:f9:57:b5, 2085-97-162 01:117:01:2263,0.077,0.164,1.187,58.472,44.556,4.944,-2.933,-1.686,-178.978
 14:40:30.426,eb:33:2e:f9:57:b5, 2085-97-211 255:157:00:1827,-0.047,0.144,0.968,39.856,52.795,2.869,-2.466,-1.165,-178.929
 14:40:30.426,eb:33:2e:f9:57:b5, 2085-97-229 255:203:255:1911,0.026,0.017,0.886,33.447,37.048,-4.028,-2.098,-0.714,-178.978
 14:40:30.426,eb:33:2e:f9:57:b5, 2085-97-82 00:79:00:2018,0.031,-0.01,0.981,28.564,28.809,-3.967,-1.78,-0.406,-179.006
 14:40:30.455,eb:33:2e:f9:57:b5, 2085-97-38 00:72:00:2006,0.02,0.044,0.988,19.836,24.902,-1.648,-1.533,-0.132,-179.05
 14:40:30.455,eb:33:2e:f9:57:b5, 2085-97-75 00:247:255:2024,0.052,0.015,0.971,14.954,21.301,-1.587,-1.362,0.093,-179.044
 14:40:30.455,eb:33:2e:f9:57:b5, 2085-97-96 00:204:255:2061,0.024,-0.02,1.007,13.855,19.531,-2.808,-1.208,0.302,-179.083
 14:40:30.455,eb:33:2e:f9:57:b5, 2085-97-00 00:206:255:1997,-0.016,-0.022,0.989,12.146,18.005,-1.465,-1.071,0.489,-179.083
 14:40:30.484,eb:33:2e:f9:57:b5, 2085-97-229 255:132:255:2032,0.002,-0.042,0.979,11.169,13.062,0.122,-0.95,0.648,-179.099
 14:40:30.484,eb:33:2e:f9:57:b5, 2085-97-40 00:135:255:2127,0.039,-0.066,1.017,13.245,8.362,0.854,-0.829,0.753,-179.061
 14:40:30.484,eb:33:2e:f9:57:b5, 2085-97-102 00:169:255:2172,0.05,-0.043,1.049,15.503,7.69,1.221,-0.676,0.835,-179.061
 14:40:30.484,eb:33:2e:f9:57:b5, 2085-97-66 00:151:255:2104,0.018,-0.047,1.049,17.761,9.033,1.526,-0.505,0.917,-179.017
 14:40:30.544,eb:33:2e:f9:57:b5, 2085-97-14 00:171:255:2043,0.008,-0.048,1.012,20.142,7.629,1.587,-0.308,1.011,-179.011
 14:40:30.544,eb:33:2e:f9:57:b5, 2085-97-40 00:185:255:2066,0.037,-0.037,1.003,21.179,4.578,2.197,-0.099,1.066,-178.962
 14:40:30.544,eb:33:2e:f9:57:b5, 2085-97-101 00:228:255:2074,0.049,-0.027,1.014,21.179,4.089,2.686,0.121,1.115,-178.945
 14:40:30.544,eb:33:2e:f9:57:b5, 2085-97-95 00:240:255:2039,0.043,-0.012,1.008,20.325,5.92,2.258,0.33,1.165,-178.885
 14:40:30.575,eb:33:2e:f9:57:b5, 2085-97-64 00:240:255:1998,0.039,-0.001,0.985,18.188,7.08,2.136,0.527,1.236,-178.874
 14:40:30.575,eb:33:2e:f9:57:b5, 2085-97-105 00:08:00:2012,0.049,-0.003,0.978,15.686,7.629,2.502,0.698,1.307,-178.813
 14:40:30.575,eb:33:2e:f9:57:b5, 2085-97-93 00:04:00:2001,0.04,0.004,0.979,13.55,9.46,2.136,0.851,1.401,-178.802
 14:40:30.575,eb:33:2e:f9:57:b5, 2085-97-58 00:00:00:1992,0.019,0.005,0.974,11.841,10.559,2.075,0.978,1.505,-178.748
 14:40:30.605,eb:33:2e:f9:57:b5, 2085-97-22 00:241:255:1964,0.018,-0.002,0.965,10.315,10.193,2.258,1.093,1.615,-178.737
 14:40:30.605,eb:33:2e:f9:57:b5, 2085-97-37 00:13:00:1985,0.019,0.007,0.958,8.972,9.033,2.686,1.187,1.708,-178.676
 14:40:30.605,eb:33:2e:f9:57:b5, 2085-97-42 00:00:00:1994,0.018,0.003,0.97,8.362,8.362,2.258,1.274,1.802,-178.66
 14:40:30.605,eb:33:2e:f9:57:b5, 2085-97-49 00:00:00:2019,0.033,-0.004,0.978,8.057,7.751,2.075,1.357,1.884,-178.605
 14:40:30.664,eb:33:2e:f9:57:b5, 2085-97-55 00:10:00:2032,0.031,0.005,0.993,8.118,8.24,1.465,1.445,1.967,-178.594
 14:40:30.664,eb:33:2e:f9:57:b5, 2085-97-52 00:22:00:2026,0.023,0.01,0.993,7.812,9.766,0.977,1.527,2.054,-178.55
 14:40:30.664,eb:33:2e:f9:57:b5, 2085-97-57 00:23:00:2029,0.042,0.008,0.99,7.324,11.475,0.61,1.609,2.164,-178.55
 14:40:30.664,eb:33:2e:f9:57:b5, 2085-97-00 00:255:255:2011,-0.01,0.008,1.021,7.202,15.076,-0.244,1.686,2.296,-178.511
 14:40:30.696,eb:33:2e:f9:57:b5, 2085-97-99 00:60:00:2119,0.009,0.002,0.961,6.958,12.512,1.038,1.763,2.444,-178.517
 14:40:30.696,eb:33:2e:f9:57:b5, 2085-97-77 00:14:00:2108,0.014,0,0.991,6.958,14.648,0.366,1.84,2.576,-178.484
 14:40:30.696,eb:33:2e:f9:57:b5, 2085-97-00 00:00:00:2070,0.001,0.002,1.016,8.911,15.564,-0.732,1.928,2.73,-178.495
 14:40:30.696,eb:33:2e:f9:57:b5, 2085-97-222 255:253:255:2033,-0.021,0.003,1.004,10.803,15.259,-0.61,2.027,2.884,-178.462
 14:40:30.725,eb:33:2e:f9:57:b5, 2085-97-236 255:05:00:2060,-0.011,-0.002,0.997,12.024,12.573,-0.366,2.148,3.027,-178.473
 14:40:30.726,eb:33:2e:f9:57:b5, 2085-97-221 255:246:255:2094,-0.006,0.002,1.014,14.099,9.949,-0.244,2.285,3.137,-178.445
 14:40:30.726,eb:33:2e:f9:57:b5, 2085-97-246 255:05:00:2154,-0.014,0.003,1.02,15.869,8.24,-0.305,2.439,3.23,-178.451
 14:40:30.727,eb:33:2e:f9:57:b5, 2085-97-23 00:17:00:2187,0.014,-0.005,1.059,18.677,8.179,-0.122,2.615,3.312,-178.423
 14:40:30.784,eb:33:2e:f9:57:b5, 2085-97-31 00:18:00:2225,0.009,0.009,1.087,21.729,8.728,-0.671,2.823,3.4,-178.434
 14:40:30.784,eb:33:2e:f9:57:b5, 2085-97-54 00:65:00:2130,0.018,0.016,1.049,24.231,10.437,-1.404,3.06,3.499,-178.407
 14:40:30.784,eb:33:2e:f9:57:b5, 2085-97-00 00:26:00:2192,0.003,0.023,1.068,25.452,13.062,-2.441,3.318,3.62,-178.434
 14:40:30.784,eb:33:2e:f9:57:b5, 2085-97-224 255:27:00:2189,-0.019,0.02,1.065,28.748,12.085,-2.747,3.593,3.746,-178.423
 14:40:30.816,eb:33:2e:f9:57:b5, 2085-97-170 255:04:00:2305,-0.061,0.019,1.074,32.959,9.338,-2.808,3.906,3.862,-178.456
 14:40:30.816,eb:33:2e:f9:57:b5, 2085-97-158 255:245:255:2423,-0.055,-0.001,1.148,41.016,5.798,-1.526,4.279,3.939,-178.44
 14:40:30.816,eb:33:2e:f9:57:b5, 2085-97-148 255:01:00:2242,-0.034,-0.01,1.142,51.27,-0.366,-0.366,4.757,3.966,-178.462
 14:40:30.816,eb:33:2e:f9:57:b5, 2085-97-185 255:45:00:2269,-0.039,0.021,1.089,56.519,-5.981,0.671,5.301,3.933,-178.429
 14:40:30.845,eb:33:2e:f9:57:b5, 2085-97-157 255:20:00:2390,-0.057,0.014,1.164,61.646,-9.216,1.831,5.9,3.856,-178.429
 14:40:30.845,eb:33:2e:f9:57:b5, 2085-97-126 255:223:255:2721,-0.058,0.001,1.256,71.045,-16.052,2.197,6.564,3.719,-178.391
 14:40:30.845,eb:33:2e:f9:57:b5, 2085-97-147 255:237:255:2808,-0.053,-0.013,1.336,84.351,-20.813,3.723,7.35,3.543,-178.385
 14:40:30.845,eb:33:2e:f9:57:b5, 2085-97-201 255:249:255:2951,-0.003,-0.01,1.408,99.304,-24.414,4.822,8.278,3.307,-178.341
 14:40:30.906,eb:33:2e:f9:57:b5, 2085-97-122 00:14:00:3161,0.116,0.011,1.475,114.99,-23.254,4.517,9.36,3.065,-178.336
 14:40:30.906,eb:33:2e:f9:57:b5, 2085-97-85 01:161:00:3327,0.229,0.037,1.581,135.498,-19.165,1.16,10.629,2.856,-178.308
 14:40:30.906,eb:33:2e:f9:57:b5, 2085-97-65 02:207:00:3346,0.267,0.098,1.63,155.334,-13.733,-4.639,12.096,2.703,-178.369
 14:40:30.906,eb:33:2e:f9:57:b5, 2085-97-164 01:248:255:3575,0.142,0.057,1.667,176.086,-8.545,-12.268,13.766,2.615,-178.451
 14:40:30.935,eb:33:2e:f9:57:b5, 2085-97-10 01:56:255:3834,0.12,-0.047,1.811,197.693,3.296,-13.977,15.656,2.631,-178.61
 14:40:30.935,eb:33:2e:f9:57:b5, 2085-97-01 01:54:255:3891,0.149,-0.105,1.889,220.764,18.494,-11.353,17.765,2.78,-178.676
 14:40:30.935,eb:33:2e:f9:57:b5, 2085-97-85 01:216:254:4108,0.18,-0.112,1.933,244.324,27.039,-10.498,20.099,3.043,-178.72
 14:40:30.935,eb:33:2e:f9:57:b5, 2085-113-58 00:214:222:2010,0.251,-0.168,2.079,274.414,34.119,-12.817,22.703,3.373,-178.704
 14:40:30.965,eb:33:2e:f9:57:b5, 2085-97-39 02:190:254:4617,0.338,-0.174,2.166,291.87,39.307,-15.869,24.131,3.576,-178.72
 14:40:30.965,eb:33:2e:f9:57:b5, 2085-97-84 03:81:254:4865,0.456,-0.209,2.346,328.857,53.284,-26.978,27.257,4.087,-178.704
 14:40:30.965,eb:33:2e:f9:57:b5, 2085-97-97 03:186:254:5108,0.33,-0.16,2.424,368.103,61.279,-41.809,30.756,4.774,-178.759
 14:40:30.966,eb:33:2e:f9:57:b5, 2085-97-215 02:44:00:5198,0.328,-0.06,2.568,410.095,57.861,-57.19,34.667,5.565,-178.852
 14:40:31.026,eb:33:2e:f9:57:b5, 2085-97-248 01:168:00:5344,0.142,0.1,2.427,444.702,28.503,-68.237,38.969,6.29,-179.138
 14:40:31.026,eb:33:2e:f9:57:b5, 2085-97-179 255:236:253:6582,-0.12,-0.056,2.953,455.688,17.334,-80.139,43.478,6.91,-179.583
 14:40:31.026,eb:33:2e:f9:57:b5, 2085-97-43 00:182:251:5983,0.217,-0.481,3.268,452.82,57.434,-73.303,47.994,7.729,-179.912
 14:40:31.026,eb:33:2e:f9:57:b5, 2085-97-123 02:66:252:5238,0.361,-0.418,2.651,460.571,68.726,-67.078,52.57,8.679,-179.835
 14:40:31.054,eb:33:2e:f9:57:b5, 2085-97-125 04:165:250:4512,0.768,-0.646,2.417,464.172,80.444,-64.758,57.2,9.651,-179.67
 14:40:31.054,eb:33:2e:f9:57:b5, 2085-97-78 07:177:249:3657,0.988,-0.705,2.021,471.436,93.933,-69.763,61.935,10.695,-179.247
 14:40:31.054,eb:33:2e:f9:57:b5, 2085-97-04 08:112:248:1631,1.486,-0.914,1.369,457.825,67.444,-72.144,66.649,11.711,-178.852
 14:40:31.054,eb:33:2e:f9:57:b5, 2085-97-235 10:200:250:-3073,0.517,-1.183,-0.148,376.404,42.114,-85.632,70.889,12.612,-178.693
 14:40:31.085,eb:33:2e:f9:57:b5, 2085-97-42 00:196:245:-3410,0.049,-0.754,-2.104,190.674,-28.503,-111.572,73.691,13.629,-178.934
 14:40:31.085,eb:33:2e:f9:57:b5, 2085-97-236 01:115:244:-218,0.378,-1.555,-0.821,-24.902,-68.481,-75.317,74.213,14.37,-179.764
 14:40:31.085,eb:33:2e:f9:57:b5, 2085-97-37 03:231:247:1640,0.408,-1.214,0.446,-167.297,-51.636,-44.617,72.966,14.716,179.44
 14:40:31.085,eb:33:2e:f9:57:b5, 2085-97-127 03:160:249:2396,0.427,-0.891,1.045,-238.037,-13.428,-37.231,70.768,14.985,179.017
 14:40:31.144,eb:33:2e:f9:57:b5, 2085-97-180 03:05:251:2232,0.539,-0.73,1.172,-256.836,20.569,-42.358,68.22,15.375,178.923
 14:40:31.144,eb:33:2e:f9:57:b5, 2085-97-141 04:228:252:1177,0.526,-0.473,0.845,-252.441,29.724,-59.814,65.682,15.958,178.984
 14:40:31.144,eb:33:2e:f9:57:b5, 2085-97-184 03:235:252:330,0.426,-0.354,0.33,-248.291,13.367,-79.468,63.138,16.688,178.852
 14:40:31.144,eb:33:2e:f9:57:b5, 2085-97-13 03:250:251:164,0.329,-0.439,0.083,-248.535,-16.479,-94.299,60.551,17.446,178.401
 14:40:31.174,eb:33:2e:f9:57:b5, 2085-97-47 02:86:251:410,0.222,-0.555,0.134,-253.906,-46.082,-101.929,57.827,18.105,177.572
 14:40:31.174,eb:33:2e:f9:57:b5, 2085-97-102 01:16:251:681,0.144,-0.6,0.271,-265.991,-64.087,-100.952,54.959,18.616,176.501
 14:40:31.174,eb:33:2e:f9:57:b5, 2085-97-09 01:234:250:894,0.13,-0.631,0.385,-284.241,-70.74,-93.018,51.883,18.957,175.331
 14:40:31.174,eb:33:2e:f9:57:b5, 2085-97-11 01:71:251:1227,0.119,-0.62,0.508,-302.979,-69.641,-81.726,48.636,19.155,174.205
 14:40:31.206,eb:33:2e:f9:57:b5, 2085-97-230 00:231:251:1558,0.119,-0.549,0.685,-312.744,-66.528,-70.801,45.253,19.215,173.161
 14:40:31.206,eb:33:2e:f9:57:b5, 2085-97-06 01:140:252:1633,0.141,-0.47,0.791,-313.049,-65.063,-59.265,41.869,19.171,172.233
 14:40:31.206,eb:33:2e:f9:57:b5, 2085-97-52 01:221:252:1635,0.167,-0.405,0.794,-307.922,-71.106,-48.34,38.518,18.973,171.376
 14:40:31.206,eb:33:2e:f9:57:b5, 2085-97-98 01:42:253:1645,0.182,-0.373,0.801,-300.781,-85.144,-38.452,35.266,18.589,170.563
 14:40:31.266,eb:33:2e:f9:57:b5, 2085-97-125 01:129:253:1758,0.185,-0.337,0.825,-294.006,-106.995,-28.137,32.075,17.935,169.75
 14:40:31.266,eb:33:2e:f9:57:b5, 2085-97-102 01:212:253:2080,0.16,-0.289,0.925,-290.955,-127.869,-19.104,28.965,17.012,168.97
 14:40:31.266,eb:33:2e:f9:57:b5, 2085-97-31 01:14:254:2505,0.12,-0.259,1.115,-289.246,-143.25,-9.583,25.884,15.837,168.234
 14:40:31.266,eb:33:2e:f9:57:b5, 2085-97-197 00:39:254:2959,0.078,-0.238,1.341,-287.72,-149.536,1.77,22.879,14.496,167.635
 14:40:31.295,eb:33:2e:f9:57:b5, 2085-97-134 00:47:254:3239,0.062,-0.229,1.521,-284.851,-146.79,15.991,19.918,13.057,167.212
 14:40:31.295,eb:33:2e:f9:57:b5, 2085-97-169 00:73:254:3383,0.105,-0.226,1.617,-281.067,-138.062,32.593,17.067,11.629,167.058
 14:40:31.295,eb:33:2e:f9:57:b5, 2085-97-21 01:130:254:3522,0.176,-0.201,1.683,-275.391,-129.639,49.194,14.266,10.223,167.141
 14:40:31.295,eb:33:2e:f9:57:b5, 2085-97-180 01:223:254:3608,0.22,-0.165,1.749,-267.456,-126.587,64.087,11.591,8.86,167.481
 14:40:31.325,eb:33:2e:f9:57:b5, 2085-97-60 02:20:255:3600,0.318,-0.12,1.728,-262.695,-134.155,77.087,8.954,7.46,167.992
 14:40:31.325,eb:33:2e:f9:57:b5, 2085-97-204 02:17:255:3723,0.363,-0.117,1.778,-261.963,-144.409,89.294,6.372,5.982,168.701
 14:40:31.325,eb:33:2e:f9:57:b5, 2085-97-09 03:249:254:4003,0.398,-0.12,1.877,-267.334,-158.875,101.196,3.719,4.389,169.563
 14:40:31.325,eb:33:2e:f9:57:b5, 2085-97-89 03:204:254:4418,0.438,-0.139,2.048,-278.137,-171.387,113.525,0.989,2.708,170.645
 14:40:31.385,eb:33:2e:f9:57:b5, 2085-97-139 03:192:254:4971,0.435,-0.153,2.282,-294.556,-182.251,126.282,-1.956,0.961,171.903
 14:40:31.385,eb:33:2e:f9:57:b5, 2085-97-114 03:245:254:5685,0.442,-0.156,2.599,-314.575,-187.927,142.029,-5.114,-0.786,173.441
 14:40:31.385,eb:33:2e:f9:57:b5, 2085-97-191 03:121:00:6248,0.51,-0.06,2.928,-331.604,-183.228,159.058,-8.558,-2.422,175.204
 14:40:31.385,eb:33:2e:f9:57:b5, 2085-97-132 04:145:03:6589,0.532,0.225,3.148,-340.454,-174.255,171.509,-12.178,-3.84,177.248
 14:40:31.414,eb:33:2e:f9:57:b5, 2085-97-108 04:11:08:5823,0.728,0.693,3.152,-333.557,-156.25,171.326,-15.908,-4.977,179.368
 14:40:31.414,eb:33:2e:f9:57:b5, 2085-97-223 06:221:16:4773,0.935,1.524,2.528,-295.349,-170.227,133.423,-19.385,-5.999,-178.572
 14:40:31.414,eb:33:2e:f9:57:b5, 2085-97-02 07:63:25:5808,0.746,2.712,2.476,-266.846,-209.839,70.496,-22.505,-7.427,-176.891
 14:40:31.414,eb:33:2e:f9:57:b5, 2085-97-222 03:147:31:5100,-0.05,3.522,2.908,-232.422,-177.917,-0.916,-25.247,-9.08,-175.71
 14:40:31.444,eb:33:2e:f9:57:b5, 2085-97-07 249:45:38:2090,-1.658,4.42,1.692,-181.885,-187.317,-74.219,-27.416,-10.816,-175.265
 14:40:31.444,eb:33:2e:f9:57:b5, 2085-97-209 236:164:37:3389,-2.847,4.882,0.974,-118.713,-273.621,-124.573,-28.965,-13.392,-174.974
 14:40:31.444,eb:33:2e:f9:57:b5, 2085-97-143 231:87:30:7909,-2.921,4.305,2.907,-34.424,-247.559,-122.314,-29.822,-16.425,-174.644
 14:40:31.444,eb:33:2e:f9:57:b5, 2085-97-27 236:219:20:8112,-1.917,3.193,4.285,43.579,-39.978,-75.317,-29.68,-18.155,-174.699
 14:40:31.565,eb:33:2e:f9:57:b5, 2085-97-90 245:93:15:5611,-0.765,2.184,3.327,85.938,179.81,-24.963,-28.63,-17.633,-175.616
 14:40:31.565,eb:33:2e:f9:57:b5, 2085-97-28 05:143:10:9600,0.117,1.784,2.189,103.699,280.09,-0.793,-27.18,-15.524,-176.935
 14:40:31.565,eb:33:2e:f9:57:b5, 2085-97-236 03:23:255:1877,0.975,-0.149,4.309,170.715,387.268,20.142,-25.181,-12.59,-178.555
 14:40:31.565,eb:33:2e:f9:57:b5, 2085-97-21 05:175:250:1137,0.076,-0.206,0.734,137.512,346.924,38.635,-23.291,-9.146,-179.846
 14:40:31.567,eb:33:2e:f9:57:b5, 2085-97-125 254:161:239:713,-0.265,-1.194,0.285,145.264,220.093,60.669,-21.736,-6.372,179.462
 14:40:31.567,eb:33:2e:f9:57:b5, 2085-97-211 253:102:244:1500,-0.313,-1.882,0.712,191.711,101.624,83.252,-20.083,-4.708,179.61
 14:40:31.567,eb:33:2e:f9:57:b5, 2085-97-29 254:74:250:2264,-0.294,-1.096,1.008,253.113,35.4,96.863,-17.897,-3.829,-179.731
 14:40:31.568,eb:33:2e:f9:57:b5, 2085-97-153 253:00:01:2754,-0.438,-0.198,1.276,262.817,40.588,95.52,-15.37,-3.203,-178.868
 14:40:31.570,eb:33:2e:f9:57:b5, 2085-97-212 251:152:03:2303,-0.505,0.377,1.31,236.328,70.129,90.027,-12.958,-2.401,-178.11
 14:40:31.571,eb:33:2e:f9:57:b5, 2085-97-235 252:188:03:1934,-0.229,0.531,0.953,199.768,60.364,58.96,-10.854,-1.555,-177.501
 14:40:31.571,eb:33:2e:f9:57:b5, 2085-97-132 254:65:01:2213,-0.055,0.338,1.024,163.147,21.851,8.362,-9.069,-1.093,-177.264
 14:40:31.571,eb:33:2e:f9:57:b5, 2085-97-130 00:185:255:2356,0.2,0.072,1.123,149.658,5.554,-22.278,-7.515,-1.005,-177.352
 14:40:31.686,eb:33:2e:f9:57:b5, 2085-97-59 02:17:255:2507,0.291,-0.092,1.257,138.062,9.644,-24.048,-6.037,-0.972,-177.621
 14:40:31.686,eb:33:2e:f9:57:b5, 2085-97-238 01:53:255:2393,0.187,-0.146,1.183,123.291,32.166,-3.845,-4.724,-0.769,-177.753
 14:40:31.686,eb:33:2e:f9:57:b5, 2085-97-53 01:201:02:2292,0.202,0.041,1.146,97.229,48.279,12.695,-3.609,-0.33,-177.731
 14:40:31.686,eb:33:2e:f9:57:b5, 2085-97-248 00:251:01:2153,-0.029,0.327,1.077,58.411,47.363,4.15,-2.878,0.148,-177.643
 14:40:31.774,eb:33:2e:f9:57:b5, 2085-97-123 255:28:00:1898,-0.011,0.166,0.936,42.725,41.809,-9.949,-2.373,0.615,-177.726
 14:40:31.774,eb:33:2e:f9:57:b5, 2085-97-116 00:195:255:2094,0.071,-0.033,0.97,37.903,31.128,-9.827,-1.967,0.956,-177.819
 14:40:31.774,eb:33:2e:f9:57:b5, 2085-97-86 00:125:00:2050,-0.023,0.017,1.037,31.433,32.104,-5.432,-1.604,1.274,-177.918
 14:40:31.774,eb:33:2e:f9:57:b5, 2085-97-135 255:00:00:1938,-0.044,0.053,0.965,24.353,28.809,-5.005,-1.329,1.582,-177.951
 14:40:31.776,eb:33:2e:f9:57:b5, 2085-97-213 255:211:255:1964,-0.024,-0.029,0.943,21.912,20.874,-3.357,-1.093,1.829,-178.011
 14:40:31.776,eb:33:2e:f9:57:b5, 2085-97-179 255:234:255:1997,-0.029,-0.01,0.961,19.226,15.015,-1.465,-0.884,2.005,-178.006
 14:40:31.776,eb:33:2e:f9:57:b5, 2085-97-242 255:148:255:2107,0.017,-0.032,0.997,16.907,10.132,1.404,-0.698,2.131,-178.017
 14:40:31.776,eb:33:2e:f9:57:b5, 2085-97-80 00:196:255:2175,0.039,-0.048,1.055,18.311,9.338,2.563,-0.522,2.225,-177.968
 14:40:31.778,eb:33:2e:f9:57:b5, 2085-97-39 00:234:255:2141,0.011,-0.012,1.063,19.409,11.78,2.38,-0.319,2.34,-177.951
 14:40:31.778,eb:33:2e:f9:57:b5, 2085-97-04 00:211:255:2069,-0.012,-0.024,1.035,19.897,13.123,2.38,-0.126,2.466,-177.896
 14:40:31.778,eb:33:2e:f9:57:b5, 2085-97-224 255:222:255:2019,-0.021,-0.01,0.992,19.897,11.353,2.197,0.082,2.598,-177.885
 14:40:31.778,eb:33:2e:f9:57:b5, 2085-97-234 255:239:255:2032,-0.016,-0.018,0.984,19.287,8.24,2.502,0.28,2.692,-177.83
 14:40:31.781,eb:33:2e:f9:57:b5, 2085-97-242 255:229:255:2044,0.003,-0.016,0.998,18.555,6.714,2.319,0.478,2.774,-177.819
 14:40:31.781,eb:33:2e:f9:57:b5, 2085-97-03 00:240:255:2029,0.02,-0.01,1.003,17.334,6.592,2.136,0.659,2.834,-177.764
 14:40:31.781,eb:33:2e:f9:57:b5, 2085-97-32 00:26:00:2025,-0.005,0.011,0.988,15.32,7.568,2.197,0.829,2.917,-177.748
 14:40:31.781,eb:33:2e:f9:57:b5, 2085-97-244 255:01:00:1998,-0.009,-0.007,0.979,12.939,8.85,2.258,0.972,2.999,-177.698
 14:40:31.835,eb:33:2e:f9:57:b5, 2085-97-251 255:10:00:1987,-0.006,0,0.974,11.597,8.118,2.258,1.099,3.093,-177.682
 14:40:31.835,eb:33:2e:f9:57:b5, 2085-97-203 255:229:255:1988,-0.02,0.008,0.965,10.498,6.47,2.319,1.208,3.164,-177.627
 14:40:31.835,eb:33:2e:f9:57:b5, 2085-97-229 255:21:00:1966,-0.016,-0.011,0.973,9.399,5.188,3.662,1.313,3.224,-177.605
 14:40:31.835,eb:33:2e:f9:57:b5, 2085-97-224 255:06:00:1976,-0.005,0.007,0.964,8.606,3.357,3.54,1.401,3.268,-177.534
 14:40:31.865,eb:33:2e:f9:57:b5, 2085-97-08 00:26:00:2006,0,0.007,0.971,7.812,2.014,3.845,1.494,3.301,-177.506
 14:40:31.865,eb:33:2e:f9:57:b5, 2085-97-07 00:31:00:2029,0.018,0.013,0.98,7.996,1.16,3.357,1.571,3.318,-177.435
 14:40:31.865,eb:33:2e:f9:57:b5, 2085-97-43 00:43:00:2036,0.015,0.016,1.001,7.935,2.258,2.686,1.659,3.334,-177.413
 14:40:31.865,eb:33:2e:f9:57:b5, 2085-97-23 00:48:00:2016,0.001,0.021,0.989,7.568,3.967,2.197,1.736,3.367,-177.358
 14:40:31.896,eb:33:2e:f9:57:b5, 2085-97-255 255:43:00:2007,0.001,0.021,0.979,6.958,5.127,1.465,1.818,3.422,-177.347
 14:40:31.896,eb:33:2e:f9:57:b5, 2085-97-00 00:49:00:2029,-0.001,0.025,0.983,6.531,5.92,0.793,1.884,3.477,-177.303
 14:40:31.896,eb:33:2e:f9:57:b5, 2085-97-03 00:46:00:2049,-0.006,0.022,0.994,6.226,7.507,0.183,1.956,3.554,-177.308
 14:40:31.896,eb:33:2e:f9:57:b5, 2085-113-58 00:249:217:4215,-0.003,0.011,1.008,7.019,7.629,-0.61,2.027,3.631,-177.275
 14:40:31.896,eb:33:2e:f9:57:b5, 2085-97-233 255:19:00:2070,-0.004,0.015,1.001,6.958,7.812,-0.793,2.06,3.669,-177.281
 14:40:31.956,eb:33:2e:f9:57:b5, 2085-97-251 255:30:00:2073,-0.013,0.014,1.011,7.324,9.033,-0.732,2.137,3.763,-177.292
 14:40:31.956,eb:33:2e:f9:57:b5, 2085-97-231 255:11:00:2079,-0.012,0.007,1.013,9.033,9.705,-0.977,2.219,3.862,-177.27
 14:40:31.956,eb:33:2e:f9:57:b5, 2085-97-229 255:31:00:2079,-0.001,0.011,1.011,10.437,9.888,-1.038,2.329,3.966,-177.286
 14:40:31.956,eb:33:2e:f9:57:b5, 2085-97-09 00:40:00:2130,-0.004,0.016,1.03,12.268,9.521,-1.343,2.444,4.059,-177.264
 14:40:31.984,eb:33:2e:f9:57:b5, 2085-97-233 255:25:00:2150,-0.012,0.019,1.035,13.672,10.986,-2.258,2.582,4.169,-177.286
 14:40:31.984,eb:33:2e:f9:57:b5, 2085-97-244 255:40:00:2115,-0.022,0.016,1.051,15.747,11.536,-2.502,2.73,4.285,-177.275
 14:40:31.984,eb:33:2e:f9:57:b5, 2085-97-222 255:40:00:2137,-0.035,0.012,1.042,16.724,13.245,-2.686,2.9,4.417,-177.308
 14:40:31.984,eb:33:2e:f9:57:b5, 2085-97-179 255:05:00:2188,-0.057,0.003,1.069,19.775,12.207,-2.686,3.087,4.543,-177.303
 14:40:32.046,eb:33:2e:f9:57:b5, 2085-97-157 255:28:00:2181,-0.032,0.008,1.046,22.217,11.963,-1.648,3.307,4.675,-177.33
 14:40:32.046,eb:33:2e:f9:57:b5, 2085-97-231 255:41:00:2241,-0.026,0.016,1.074,24.78,11.597,-0.488,3.543,4.79,-177.303
 14:40:32.046,eb:33:2e:f9:57:b5, 2085-97-200 255:57:00:2340,-0.03,0.013,1.123,28.992,11.841,0.183,3.818,4.916,-177.308
 14:40:32.046,eb:33:2e:f9:57:b5, 2085-97-137 255:204:255:2474,-0.044,0.007,1.204,39.917,4.028,-0.366,4.164,4.988,-177.275
 14:40:32.195,eb:33:2e:f9:57:b5, 2085-97-196 255:27:00:2423,-0.055,-0.002,1.163,48.889,0.61,1.099,4.625,5.026,-177.275
 14:40:32.195,eb:33:2e:f9:57:b5, 2085-97-137 255:240:255:2524,-0.048,-0.003,1.209,57.312,-2.93,1.831,5.158,5.004,-177.231
 14:40:32.195,eb:33:2e:f9:57:b5, 2085-97-146 255:218:255:2743,-0.059,-0.001,1.289,66.284,-3.967,2.808,5.79,4.977,-177.22
 14:40:32.195,eb:33:2e:f9:57:b5, 2085-97-136 255:214:255:2828,-0.075,-0.021,1.36,79.224,-6.348,4.089,6.52,4.922,-177.155
 14:40:32.197,eb:33:2e:f9:57:b5, 2085-97-34 255:224:255:3049,-0.135,-0.019,1.387,92.712,-7.446,5.798,7.394,4.861,-177.127
 14:40:32.197,eb:33:2e:f9:57:b5, 2085-97-56 255:181:255:3060,-0.052,-0.031,1.53,109.985,-10.132,8.545,8.427,4.757,-177.034
 14:40:32.197,eb:33:2e:f9:57:b5, 2085-97-00 00:223:255:3039,0.083,-0.021,1.456,128.235,-16.296,10.62,9.641,4.614,-176.968
 14:40:32.197,eb:33:2e:f9:57:b5, 2085-97-85 01:84:00:3325,0.202,0.01,1.554,145.142,-18.127,8.606,11.014,4.422,-176.869
 14:40:32.199,eb:33:2e:f9:57:b5, 2085-97-140 01:19:00:3640,0.223,0.04,1.72,163.696,-9.766,3.54,12.574,4.274,-176.852
 14:40:32.199,eb:33:2e:f9:57:b5, 2085-97-24 02:218:255:3660,0.265,0.004,1.843,180.908,14.038,0.916,14.304,4.29,-176.803
 14:40:32.199,eb:33:2e:f9:57:b5, 2085-97-169 01:250:255:3516,0.172,0.011,1.717,201.721,31.189,-3.296,16.238,4.537,-176.77
 14:40:32.199,eb:33:2e:f9:57:b5, 2085-97-96 01:91:255:3862,0.211,-0.051,1.808,223.999,42.236,-7.263,18.375,4.905,-176.699
 14:40:32.201,eb:33:2e:f9:57:b5, 2085-97-08 02:124:255:4008,0.274,-0.069,1.899,250.61,52.673,-9.277,20.764,5.405,-176.638
 14:40:32.201,eb:33:2e:f9:57:b5, 2085-97-56 02:166:254:4675,0.357,-0.089,2.114,280.212,53.528,-18.738,23.434,5.944,-176.561
 14:40:32.201,eb:33:2e:f9:57:b5, 2085-97-253 03:60:255:4928,0.58,-0.128,2.381,313.477,70.984,-26.733,26.422,6.614,-176.534
 14:40:32.201,eb:33:2e:f9:57:b5, 2085-97-68 05:199:255:5010,0.636,-0.013,2.395,351.624,85.571,-44.922,29.767,7.493,-176.468
 14:40:32.225,eb:33:2e:f9:57:b5, 2085-97-201 04:251:254:5409,0.499,-0.084,2.517,389.343,88.196,-67.871,33.486,8.536,-176.55
 14:40:32.225,eb:33:2e:f9:57:b5, 2085-97-174 02:118:255:5985,0.042,-0.097,2.752,426.025,85.266,-85.571,37.579,9.701,-176.682
 14:40:32.225,eb:33:2e:f9:57:b5, 2085-97-181 255:225:254:7004,0.042,0.039,3.212,437.317,93.201,-91.858,41.907,10.942,-176.88
 14:40:32.225,eb:33:2e:f9:57:b5, 2085-97-118 01:47:253:6017,0.33,-0.318,3.257,444.946,120.911,-81.604,46.329,12.327,-176.743
 14:40:32.255,eb:33:2e:f9:57:b5, 2085-97-151 02:166:252:5584,0.322,-0.327,2.691,453.186,110.779,-88.745,50.867,13.738,-176.473
 14:40:32.255,eb:33:2e:f9:57:b5, 2085-97-231 02:57:249:5049,0.563,-0.634,2.731,456.543,119.934,-88.501,55.481,15.15,-176.116
 14:40:32.255,eb:33:2e:f9:57:b5, 2085-97-04 07:170:247:4119,1.089,-0.988,2.174,454.285,132.874,-78.979,60.161,16.54,-175.534
 14:40:32.255,eb:33:2e:f9:57:b5, 2085-97-211 09:253:244:3050,1.395,-1.111,1.868,440.002,147.888,-77.881,64.841,17.919,-174.611
 14:40:32.345,eb:33:2e:f9:57:b5, 2085-97-212 12:122:249:-2443,0.934,-1.473,0.721,400.452,137.573,-77.271,69.302,19.171,-173.644
 14:40:32.345,eb:33:2e:f9:57:b5, 2085-97-170 01:50:248:-4463,0.183,-0.607,-2.423,247.131,53.467,-100.83,72.795,20.374,-172.974
 14:40:32.345,eb:33:2e:f9:57:b5, 2085-97-147 02:231:246:-1387,0.438,-1.21,-1.361,50.415,-38.757,-87.158,74.031,21.292,-173.315
 14:40:32.345,eb:33:2e:f9:57:b5, 2085-97-87 03:235:247:891,0.329,-1.056,-0.026,-95.276,-78.064,-64.697,73.422,21.802,-174.21
 14:40:32.347,eb:33:2e:f9:57:b5, 2085-97-52 02:49:248:1753,0.312,-0.997,0.695,-190.552,-55.847,-44.189,71.62,22.088,-175.078
 14:40:32.347,eb:33:2e:f9:57:b5, 2085-97-235 02:97:249:1966,0.381,-0.917,0.95,-234.131,-21.118,-31.921,69.285,22.302,-175.573
 14:40:32.347,eb:33:2e:f9:57:b5, 2085-97-09 03:202:250:1532,0.391,-0.731,0.888,-247.681,1.526,-30.945,66.775,22.555,-175.77
 14:40:32.347,eb:33:2e:f9:57:b5, 2085-97-22 03:194:251:674,0.362,-0.575,0.54,-249.268,0.183,-36.56,64.248,22.874,-175.891
 14:40:32.375,eb:33:2e:f9:57:b5, 2085-97-192 02:172:251:150,0.334,-0.527,0.158,-252.93,-18.86,-42.236,61.628,23.176,-176.177
 14:40:32.375,eb:33:2e:f9:57:b5, 2085-97-151 02:150:251:192,0.307,-0.551,0.066,-254.822,-48.096,-47.241,58.898,23.384,-176.726
 14:40:32.375,eb:33:2e:f9:57:b5, 2085-97-40 02:153:251:419,0.22,-0.552,0.151,-256.592,-76.477,-49.377,56.041,23.428,-177.572
 14:40:32.375,eb:33:2e:f9:57:b5, 2085-97-98 01:120:251:661,0.14,-0.553,0.254,-262.634,-99.792,-47.058,53.097,23.286,-178.632
 14:40:32.434,eb:33:2e:f9:57:b5, 2085-97-249 00:58:251:1036,0.106,-0.586,0.411,-273.376,-112.061,-38.757,50.01,22.923,-179.791
 14:40:32.434,eb:33:2e:f9:57:b5, 2085-97-198 00:87:251:1376,0.092,-0.594,0.594,-284.18,-112.305,-27.283,46.862,22.396,179.11
 14:40:32.434,eb:33:2e:f9:57:b5, 2085-97-185 00:203:251:1601,0.098,-0.559,0.733,-289.917,-111.084,-15.503,43.665,21.736,178.149
 14:40:32.434,eb:33:2e:f9:57:b5, 2085-97-229 00:103:252:1764,0.127,-0.489,0.822,-290.71,-112.732,-4.822,40.507,20.956,177.319
 14:40:32.466,eb:33:2e:f9:57:b5, 2085-97-18 01:02:253:1873,0.152,-0.404,0.894,-288.879,-118.652,4.456,37.375,20.034,176.6
 14:40:32.466,eb:33:2e:f9:57:b5, 2085-97-82 01:157:253:1997,0.174,-0.335,0.946,-287.476,-127.38,9.949,34.321,18.973,175.957
 14:40:32.466,eb:33:2e:f9:57:b5, 2085-97-125 01:67:254:2218,0.197,-0.26,1.022,-288.147,-136.414,11.841,31.273,17.781,175.353
 14:40:32.466,eb:33:2e:f9:57:b5, 2085-97-141 01:226:254:2513,0.175,-0.174,1.151,-288.513,-146.057,9.766,28.251,16.479,174.781
 14:40:32.495,eb:33:2e:f9:57:b5, 2085-97-53 01:21:255:2835,0.124,-0.118,1.299,-288.757,-153.32,6.287,25.225,15.084,174.205
 14:40:32.495,eb:33:2e:f9:57:b5, 2085-97-201 00:209:254:3139,0.071,-0.129,1.464,-288.147,-155.029,5.188,22.242,13.634,173.677
 14:40:32.495,eb:33:2e:f9:57:b5, 2085-97-89 00:118:254:3308,0.027,-0.171,1.584,-286.56,-151.917,9.094,19.276,12.151,173.238
 14:40:32.495,eb:33:2e:f9:57:b5, 2085-97-61 00:54:254:3353,0.028,-0.205,1.643,-284.973,-147.705,17.822,16.381,10.679,172.963
 14:40:32.737,eb:33:2e:f9:57:b5, 2085-97-116 00:71:254:3580,0.083,-0.235,1.653,-284.424,-147.827,31.067,13.497,9.174,172.864
 14:40:32.737,eb:33:2e:f9:57:b5, 2085-97-214 00:190:254:3886,0.127,-0.185,1.824,-281.921,-147.766,44.128,10.673,7.657,172.991
 14:40:32.737,eb:33:2e:f9:57:b5, 2085-97-81 01:38:255:4050,0.207,-0.132,1.939,-276.672,-153.503,56.152,7.877,6.081,173.298
 14:40:32.737,eb:33:2e:f9:57:b5, 2085-97-218 01:98:255:4322,0.256,-0.086,2.039,-274.109,-160.156,66.223,5.136,4.46,173.798
 14:40:32.795,eb:33:2e:f9:57:b5, 2085-113-58 00:198:223:3630,0.288,-0.064,2.21,-277.71,-167.419,74.524,2.351,2.78,174.446
 14:40:32.795,eb:33:2e:f9:57:b5, 2085-97-144 02:176:255:5030,0.329,-0.047,2.333,-281.738,-170.776,77.82,0.95,1.928,174.853
 14:40:32.795,eb:33:2e:f9:57:b5, 2085-97-111 02:80:255:5568,0.255,-0.051,2.576,-295.288,-179.199,85.815,-2.01,0.192,175.732
 14:40:32.795,eb:33:2e:f9:57:b5, 2085-97-163 01:32:255:6160,0.184,-0.114,2.876,-314.697,-183.777,100.525,-5.153,-1.549,176.847
 14:40:32.795,eb:33:2e:f9:57:b5, 2085-97-166 01:169:00:6551,0.244,-0.047,3.115,-336.243,-177.429,122.498,-8.597,-3.192,178.22
 14:40:32.795,eb:33:2e:f9:57:b5, 2085-97-77 01:19:04:6218,0.186,0.295,3.212,-351.929,-159.546,142.273,-12.288,-4.576,179.929
 14:40:32.795,eb:33:2e:f9:57:b5, 2085-97-172 02:216:09:5385,0.379,0.88,2.679,-335.022,-174.194,139.282,-16.068,-5.757,-178.237
 14:40:32.795,eb:33:2e:f9:57:b5, 2085-97-33 03:60:17:5669,0.382,1.629,2.69,-302.002,-194.702,108.276,-19.572,-7.119,-176.385
 14:40:32.799,eb:33:2e:f9:57:b5, 2085-97-45 03:93:25:6348,0.331,2.673,2.984,-275.94,-181.213,63.599,-22.78,-8.591,-174.842
 14:40:32.799,eb:33:2e:f9:57:b5, 2085-97-211 255:173:35:3903,-0.647,3.765,2.789,-244.873,-119.507,4.089,-25.598,-9.772,-173.864
 14:40:32.799,eb:33:2e:f9:57:b5, 2085-97-113 244:66:42:1009,-2.188,5.045,0.902,-191.65,-171.997,-70.862,-27.867,-11.146,-173.551
 14:40:32.799,eb:33:2e:f9:57:b5, 2085-97-58 234:88:37:5026,-3.1,5.123,1.114,-112.366,-270.691,-118.408,-29.46,-13.689,-173.205
 14:40:32.799,eb:33:2e:f9:57:b5, 2085-97-189 230:59:26:9197,-2.831,4.003,3.881,-9.766,-174.011,-106.995,-30.097,-16.326,-172.974
 14:40:32.799,eb:33:2e:f9:57:b5, 2085-97-29 238:161:15:7588,-1.679,2.54,4.288,58.167,84.961,-56.458,-29.581,-17.051,-173.48
 14:40:32.799,eb:33:2e:f9:57:b5, 2085-97-151 247:49:12:4330,-0.43,1.659,2.818,79.529,280.884,-4.028,-28.389,-15.381,-174.82
 14:40:32.800,eb:33:2e:f9:57:b5, 2085-97-72 14:213:08:11594,-0.001,1.484,1.541,92.712,310.73,2.502,-27.076,-12.612,-176.309
 14:40:32.802,eb:33:2e:f9:57:b5, 2085-97-101 03:54:255:277,0.433,-0.449,1.976,182.312,310.364,1.343,-25.01,-9.981,-177.891
 14:40:32.802,eb:33:2e:f9:57:b5, 2085-97-242 252:147:02:2637,-0.497,-0.303,-0.033,162.415,213.989,-9.338,-23.049,-7.685,-179.05
 14:40:32.802,eb:33:2e:f9:57:b5, 2085-97-114 252:56:03:1969,-0.326,0.375,1.037,209.595,78.857,68.542,-11.574,-2.488,-178.572
 14:40:32.802,eb:33:2e:f9:57:b5, 2085-97-71 254:190:01:2036,-0.173,0.358,0.976,168.945,43.945,32.532,-9.75,-1.791,-178.165
 14:40:32.915,eb:33:2e:f9:57:b5, 2085-97-23 255:245:255:2084,0.058,0.105,0.982,150.391,11.536,-10.132,-8.19,-1.533,-178.143
 14:40:32.915,eb:33:2e:f9:57:b5, 2085-97-248 01:41:255:2513,0.328,-0.052,1.104,146.545,3.296,-26.306,-6.68,-1.516,-178.33
 14:40:32.915,eb:33:2e:f9:57:b5, 2085-97-155 02:251:254:2429,0.253,-0.103,1.21,128.601,20.386,-13.55,-5.273,-1.428,-178.566
 14:40:32.915,eb:33:2e:f9:57:b5, 2085-97-144 01:126:01:2455,0.207,-0.051,1.157,107.361,44.739,7.812,-4.092,-1.082,-178.577
 14:40:32.947,eb:33:2e:f9:57:b5, 2085-97-132 01:47:02:2279,0.054,0.291,1.131,68.359,49.072,7.263,-3.235,-0.593,-178.539
 14:40:32.947,eb:33:2e:f9:57:b5, 2085-97-87 255:227:00:1790,-0.071,0.214,0.996,46.997,49.866,-5.859,-2.675,-0.082,-178.539
 14:40:32.947,eb:33:2e:f9:57:b5, 2085-97-229 255:220:255:1922,0.048,0.027,0.875,36.194,32.349,-9.521,-2.258,0.319,-178.66
 14:40:32.947,eb:33:2e:f9:57:b5, 2085-97-132 00:105:00:2048,0.02,0.02,0.974,28.137,25.635,-6.47,-1.923,0.593,-178.726
 14:40:32.951,eb:33:2e:f9:57:b5, 2085-97-209 255:65:00:1945,-0.023,0.058,0.973,19.287,24.109,-5.615,-1.681,0.851,-178.808
 14:40:32.951,eb:33:2e:f9:57:b5, 2085-97-12 00:225:255:2013,0.034,0.003,0.952,14.343,18.066,-4.761,-1.516,1.055,-178.841
 14:40:32.951,eb:33:2e:f9:57:b5, 2085-97-73 00:202:255:2099,0.014,-0.023,1.014,12.695,15.869,-4.15,-1.368,1.225,-178.901
 14:40:32.952,eb:33:2e:f9:57:b5, 2085-97-228 255:174:255:2050,-0.017,-0.031,1.016,11.414,15.93,-2.38,-1.247,1.384,-178.912
 14:40:32.954,eb:33:2e:f9:57:b5, 2085-97-238 255:128:255:2061,0.006,-0.052,1,11.78,12.146,-0.122,-1.121,1.533,-178.94
 14:40:32.954,eb:33:2e:f9:57:b5, 2085-97-36 00:176:255:2115,0.029,-0.053,1.018,13.245,9.338,0.854,-0.994,1.631,-178.907
 14:40:32.954,eb:33:2e:f9:57:b5, 2085-97-58 00:185:255:2119,0.017,-0.031,1.04,13.611,10.132,1.526,-0.846,1.736,-178.907
 14:40:32.954,eb:33:2e:f9:57:b5, 2085-97-05 00:171:255:2060,-0.008,-0.04,1.021,14.709,11.047,1.831,-0.703,1.846,-178.863
 14:40:32.976,eb:33:2e:f9:57:b5, 2085-97-251 255:178:255:2065,0.011,-0.041,1.002,16.479,8.118,1.648,-0.538,1.95,-178.857
 14:40:32.976,eb:33:2e:f9:57:b5, 2085-97-44 00:186:255:2109,0.027,-0.038,1.024,18.433,5.493,1.526,-0.363,2.016,-178.813
 14:40:32.976,eb:33:2e:f9:57:b5, 2085-97-48 00:204:255:2088,0.019,-0.029,1.032,19.592,6.165,1.343,-0.159,2.082,-178.808
 14:40:32.976,eb:33:2e:f9:57:b5, 2085-97-52 00:236:255:2053,0.024,-0.02,1.008,19.165,7.141,1.526,0.033,2.148,-178.764
 14:40:33.035,eb:33:2e:f9:57:b5, 2085-97-50 00:11:00:2007,0.019,0.001,0.986,17.334,8.667,1.404,0.225,2.236,-178.764
 14:40:33.035,eb:33:2e:f9:57:b5, 2085-97-57 00:14:00:2007,0.014,0.003,0.974,14.709,10.01,1.587,0.385,2.329,-178.72
 14:40:33.035,eb:33:2e:f9:57:b5, 2085-97-14 00:243:255:1992,-0.001,-0.003,0.977,12.756,10.986,1.221,0.533,2.444,-178.715
 14:40:33.035,eb:33:2e:f9:57:b5, 2085-97-236 255:221:255:1994,-0.007,-0.014,0.973,11.353,10.254,1.526,0.654,2.549,-178.676
 14:40:33.127,eb:33:2e:f9:57:b5, 2085-97-246 255:234:255:2001,-0.001,-0.014,0.978,10.803,8.728,2.38,0.775,2.653,-178.665
 14:40:33.127,eb:33:2e:f9:57:b5, 2085-97-248 255:229:255:2019,0.001,-0.009,0.981,10.254,7.812,2.808,0.879,2.73,-178.605
 14:40:33.127,eb:33:2e:f9:57:b5, 2085-97-253 255:235:255:2018,0.004,-0.009,0.983,9.888,7.202,3.296,0.989,2.812,-178.583
 14:40:33.127,eb:33:2e:f9:57:b5, 2085-97-13 00:06:00:2010,0.008,-0.004,0.985,9.644,6.47,3.479,1.088,2.884,-178.522
 14:40:33.129,eb:33:2e:f9:57:b5, 2085-97-12 00:17:00:2021,0.017,0.005,0.983,9.277,6.409,3.113,1.187,2.955,-178.495
 14:40:33.129,eb:33:2e:f9:57:b5, 2085-97-20 00:19:00:2029,0.007,0.016,0.994,9.46,7.019,2.319,1.28,3.021,-178.44
 14:40:33.129,eb:33:2e:f9:57:b5, 2085-97-22 00:14:00:2048,0.022,0.01,0.994,9.033,8.911,1.953,1.379,3.109,-178.423
 14:40:33.130,eb:33:2e:f9:57:b5, 2085-97-40 00:24:00:2074,0.021,0.015,1.009,8.911,11.047,1.465,1.467,3.208,-178.38
 14:40:33.367,eb:33:2e:f9:57:b5, 2085-97-24 00:28:00:2071,-0.002,0.016,1.017,8.789,14.648,1.038,1.566,3.351,-178.374
 14:40:33.367,eb:33:2e:f9:57:b5, 2085-97-241 255:06:00:2072,-0.013,0.002,1.011,8.85,16.235,0.549,1.653,3.505,-178.336
 14:40:33.367,eb:33:2e:f9:57:b5, 2085-97-224 255:12:00:2064,-0.014,0.002,1.004,9.705,15.381,0.916,1.752,3.675,-178.336
 14:40:33.368,eb:33:2e:f9:57:b5, 2085-97-218 255:13:00:2076,-0.02,0.008,1.008,10.925,14.832,0.366,1.862,3.823,-178.297
 14:40:33.454,eb:33:2e:f9:57:b5, 2085-97-229 255:24:00:2089,0.003,0.004,1.014,12.39,13.611,0.366,1.989,3.972,-178.303
 14:40:33.454,eb:33:2e:f9:57:b5, 2085-97-00 00:15:00:2204,0.013,0.015,1.06,14.709,13.55,-0.793,2.126,4.103,-178.275
 14:40:33.454,eb:33:2e:f9:57:b5, 2085-97-19 00:28:00:2217,0.017,0.015,1.082,17.151,14.893,-1.77,2.296,4.252,-178.292
 14:40:33.454,eb:33:2e:f9:57:b5, 2085-97-38 00:60:00:2157,-0.005,0.024,1.042,18.372,18.005,-2.991,2.477,4.422,-178.286
 14:40:33.457,eb:33:2e:f9:57:b5, 2085-97-209 255:00:00:2279,-0.021,0.016,1.07,19.897,20.691,-4.211,2.675,4.62,-178.325
 14:40:33.457,eb:33:2e:f9:57:b5, 2085-97-204 255:23:00:2188,-0.032,0.002,1.098,24.048,21.729,-3.845,2.9,4.834,-178.33
 14:40:33.457,eb:33:2e:f9:57:b5, 2085-97-196 255:29:00:2233,-0.031,0.008,1.072,26.733,22.461,-3.357,3.159,5.07,-178.369
 14:40:33.457,eb:33:2e:f9:57:b5, 2085-97-191 255:58:00:2225,-0.071,0.015,1.101,32.471,19.226,-3.174,3.461,5.273,-178.369
 14:40:33.459,eb:33:2e:f9:57:b5, 2085-97-42 255:191:255:2383,-0.094,0,1.141,41.199,10.803,-2.991,3.834,5.438,-178.401
 14:40:33.459,eb:33:2e:f9:57:b5, 2085-97-71 255:01:00:2242,-0.104,-0.006,1.109,49.744,3.418,-0.366,4.296,5.504,-178.385
 14:40:33.459,eb:33:2e:f9:57:b5, 2085-97-105 255:05:00:2336,-0.073,-0.007,1.111,55.42,-2.747,1.709,4.834,5.51,-178.391
 14:40:33.459,eb:33:2e:f9:57:b5, 2085-97-45 255:235:255:2459,-0.101,0.011,1.171,62.195,-7.263,2.991,5.427,5.455,-178.336
 14:40:33.461,eb:33:2e:f9:57:b5, 2085-97-105 255:33:00:2495,-0.065,-0.002,1.208,69.458,-8.85,5.615,6.097,5.378,-178.308
 14:40:33.461,eb:33:2e:f9:57:b5, 2085-97-112 255:43:00:2574,-0.069,0.017,1.238,78.43,-12.024,6.897,6.844,5.262,-178.231
 14:40:33.461,eb:33:2e:f9:57:b5, 2085-97-66 255:27:00:2715,-0.148,0.031,1.288,87.952,-13.184,8.118,7.69,5.136,-178.176
 14:40:33.463,eb:33:2e:f9:57:b5, 2085-97-203 254:161:255:2786,-0.112,-0.02,1.353,100.342,-15.137,10.925,8.635,4.982,-178.077
 14:40:33.463,eb:33:2e:f9:57:b5, 2085-97-153 255:48:00:2777,0.007,-0.014,1.33,115.417,-23.132,14.709,9.734,4.785,-177.979
 14:40:33.463,eb:33:2e:f9:57:b5, 2085-97-248 01:28:00:3665,0.209,0.034,1.427,129.089,-29.663,13.916,10.964,4.488,-177.858
 14:40:33.463,eb:33:2e:f9:57:b5, 2085-97-210 01:173:255:3837,0.234,-0.025,1.84,223.145,57.556,-13.55,19.66,5.114,-177.627
 14:40:33.463,eb:33:2e:f9:57:b5, 2085-97-14 02:174:255:4089,0.261,-0.017,1.896,251.221,62.561,-18.188,22.044,5.751,-177.545
 14:40:33.465,eb:33:2e:f9:57:b5, 2085-97-52 02:208:254:4728,0.335,-0.087,2.177,282.898,60.181,-27.344,24.73,6.405,-177.556
 14:40:33.465,eb:33:2e:f9:57:b5, 2085-97-81 00:01:254:6723,0.071,-0.114,2.461,318.787,72.693,-35.339,27.751,7.136,-177.534
 14:40:33.465,eb:33:2e:f9:57:b5, 2085-97-112 01:185:252:6090,0.279,-0.401,3.08,451.599,105.103,-86.609,47.955,12.849,-177.929
 14:40:33.465,eb:33:2e:f9:57:b5, 2085-97-241 02:39:252:6005,0.422,-0.366,2.957,455.688,104.492,-89.111,52.537,14.194,-177.704
 14:40:33.465,eb:33:2e:f9:57:b5, 2085-97-56 04:177:248:4448,0.844,-0.691,2.682,463.074,119.08,-87.28,57.195,15.573,-177.363
 14:40:33.544,eb:33:2e:f9:57:b5, 2085-113-81 00:26:04:-3661,1.143,-1.061,1.991,460.266,141.479,-83.191,61.963,16.968,-176.666
 14:40:33.544,eb:33:2e:f9:57:b5, 2085-97-139 10:77:245:3474,1.399,-1.226,1.848,456.116,150.635,-84.106,64.358,17.682,-176.199
 14:40:33.544,eb:33:2e:f9:57:b5, 2085-97-106 10:241:245:1885,1.137,-1.586,1.405,436.279,143.738,-85.938,69.077,19.083,-175.215
 14:40:33.544,eb:33:2e:f9:57:b5, 2085-97-210 05:198:251:-4629,0.238,-0.726,-0.798,352.783,125.366,-85.999,73.427,20.402,-174.106
 14:40:33.546,eb:33:2e:f9:57:b5, 2085-97-249 00:94:243:-3514,0.231,-1.113,-2.202,129.089,14.099,-77.942,75.828,21.407,-173.721
 14:40:33.546,eb:33:2e:f9:57:b5, 2085-97-193 02:243:244:-1168,0.375,-1.569,-1.223,-62.805,-60.364,-42.542,75.888,21.89,-174.183
 14:40:33.546,eb:33:2e:f9:57:b5, 2085-97-253 02:178:247:1206,0.376,-1.188,0.08,-202.82,-67.322,-10.01,74.18,21.923,-174.968
 14:40:33.546,eb:33:2e:f9:57:b5, 2085-97-21 03:59:249:2292,0.431,-0.912,0.926,-270.691,-34.79,6.775,71.565,21.758,-175.457
 14:40:33.605,eb:33:2e:f9:57:b5, 2085-97-202 03:223:250:2206,0.479,-0.763,1.198,-283.63,-9.338,5.127,68.692,21.621,-175.627
 14:40:33.605,eb:33:2e:f9:57:b5, 2085-97-197 03:44:252:1252,0.467,-0.54,0.862,-278.564,-5.981,-6.897,65.863,21.605,-175.677
 14:40:33.605,eb:33:2e:f9:57:b5, 2085-97-161 03:190:252:350,0.434,-0.423,0.366,-274.902,-17.212,-20.386,63.034,21.682,-175.853
 14:40:33.605,eb:33:2e:f9:57:b5, 2085-97-80 03:136:252:163,0.385,-0.411,0.071,-274.109,-42.786,-34.912,60.156,21.775,-176.259
 14:40:33.635,eb:33:2e:f9:57:b5, 2085-97-203 02:67:252:451,0.309,-0.455,0.142,-272.522,-76.355,-47.974,57.167,21.802,-177.039
 14:40:33.635,eb:33:2e:f9:57:b5, 2085-97-28 02:18:252:722,0.216,-0.477,0.293,-275.635,-102.112,-55.725,54.097,21.698,-178.132
 14:40:33.635,eb:33:2e:f9:57:b5, 2085-97-102 01:175:251:1007,0.142,-0.515,0.415,-286.499,-114.746,-56.396,50.883,21.445,-179.401
 14:40:33.635,eb:33:2e:f9:57:b5, 2085-97-234 00:116:251:1373,0.094,-0.561,0.579,-299.011,-116.15,-51.575,47.565,21.072,179.324
 14:40:33.696,eb:33:2e:f9:57:b5, 2085-97-158 00:173:251:1690,0.075,-0.562,0.755,-306.58,-113.098,-43.457,44.165,20.583,178.143
 14:40:33.696,eb:33:2e:f9:57:b5, 2085-97-175 00:52:252:1902,0.091,-0.512,0.88,-307.434,-110.413,-34.058,40.792,20.001,177.089
 14:40:33.696,eb:33:2e:f9:57:b5, 2085-97-212 00:174:252:1990,0.114,-0.446,0.953,-303.284,-112.366,-24.353,37.463,19.297,176.16
 14:40:33.696,eb:33:2e:f9:57:b5, 2085-97-253 00:51:253:2027,0.13,-0.383,0.979,-299.194,-119.08,-16.724,34.239,18.457,175.331
 14:40:33.756,eb:33:2e:f9:57:b5, 2085-97-26 01:191:253:2205,0.142,-0.317,1.022,-296.875,-130.981,-11.169,31.047,17.452,174.551
 14:40:33.756,eb:33:2e:f9:57:b5, 2085-97-17 01:66:254:2534,0.116,-0.248,1.152,-295.959,-143.86,-7.629,27.916,16.282,173.82
 14:40:33.756,eb:33:2e:f9:57:b5, 2085-97-189 00:87:254:2903,0.068,-0.202,1.325,-296.021,-152.1,-4.211,24.796,14.947,173.134
 14:40:33.756,eb:33:2e:f9:57:b5, 2085-97-50 00:02:254:3241,0.014,-0.219,1.505,-295.959,-154.541,1.77,21.731,13.53,172.557
 14:40:33.759,eb:33:2e:f9:57:b5, 2085-97-233 255:217:253:3362,-0.021,-0.244,1.604,-296.082,-149.048,12.512,18.682,12.057,172.139
 14:40:33.759,eb:33:2e:f9:57:b5, 2085-97-237 255:212:253:3600,0.022,-0.28,1.689,-293.762,-141.785,26.062,15.705,10.607,171.958
 14:40:33.759,eb:33:2e:f9:57:b5, 2085-97-68 00:24:254:3774,0.058,-0.258,1.765,-286.926,-139.526,40.344,12.777,9.168,171.985
 14:40:33.759,eb:33:2e:f9:57:b5, 2085-113-81 00:241:08:-880,0.088,-0.213,1.929,-276.489,-137.146,53.772,9.987,7.723,172.244
 14:40:33.815,eb:33:2e:f9:57:b5, 2085-97-240 00:160:254:4076,0.106,-0.184,1.979,-270.935,-137.878,60.242,8.608,6.993,172.441
 14:40:33.815,eb:33:2e:f9:57:b5, 2085-97-35 01:202:254:4256,0.169,-0.151,2.03,-261.475,-141.235,72.021,5.971,5.532,172.991
 14:40:33.815,eb:33:2e:f9:57:b5, 2085-97-123 01:200:254:4606,0.215,-0.16,2.172,-255.859,-144.897,84.106,3.378,4.043,173.694
 14:40:33.815,eb:33:2e:f9:57:b5, 2085-97-05 02:21:255:4971,0.279,-0.137,2.35,-260.376,-147.949,95.764,0.797,2.571,174.611
 14:40:33.994,eb:33:2e:f9:57:b5, 2085-97-88 02:94:255:5260,0.291,-0.093,2.488,-275.452,-155.945,106.201,-1.945,1.077,175.677
 14:40:33.994,eb:33:2e:f9:57:b5, 2085-97-74 02:203:255:5765,0.376,-0.059,2.673,-297.302,-168.884,119.873,-4.9,-0.456,176.973
 14:40:33.994,eb:33:2e:f9:57:b5, 2085-97-152 249:230:04:16284,-0.304,0.317,4.177,-294.617,-173.34,134.766,-8.119,-2.01,178.489
 14:40:33.994,eb:33:2e:f9:57:b5, 2085-97-129 01:05:04:3959,0.012,0.548,1.431,-293.823,-99.548,159.119,-10.926,-2.818,-179.846
 14:40:34.205,eb:33:2e:f9:57:b5, 2085-97-176 01:75:08:1762,0.554,0.762,1.083,-357.91,-88.074,177.49,-14.464,-3.29,-177.968
 14:40:34.205,eb:33:2e:f9:57:b5, 2085-97-166 06:233:15:5634,1.09,1.389,1.813,-375.488,-147.217,159.729,-18.484,-3.955,-175.913
 14:40:34.206,eb:33:2e:f9:57:b5, 2085-97-228 08:122:30:7004,0.9,2.896,3.385,-326.111,-179.382,98.877,-22.291,-5.054,-174.073
 14:40:34.206,eb:33:2e:f9:57:b5, 2085-97-105 03:118:39:3035,-0.354,4.482,2.652,-257.629,-182.617,8.728,-25.389,-6.454,-172.804
 14:40:34.266,eb:33:2e:f9:57:b5, 2085-97-254 245:201:42:582,-2.084,5.253,0.462,-181.396,-275.757,-78.247,-27.708,-8.641,-172.106
 14:40:34.266,eb:33:2e:f9:57:b5, 2085-97-252 234:25:37:5489,-3.021,5.121,1.12,-92.651,-373.596,-120.422,-29.246,-12.118,-171.282
 14:40:34.266,eb:33:2e:f9:57:b5, 2085-97-76 231:98:26:9903,-2.74,3.933,4.187,9.766,-259.827,-100.403,-29.833,-15.551,-170.535
 14:40:34.266,eb:33:2e:f9:57:b5, 2085-97-73 240:79:17:16114,-1.304,2.653,4.663,78.247,19.287,-47.546,-29.306,-16.837,-170.552
 14:40:34.386,eb:33:2e:f9:57:b5, 2085-97-241 254:150:19:3558,0.318,2.327,6.03,202.026,346.863,-17.944,-27.263,-15.09,-171.969
 14:40:34.386,eb:33:2e:f9:57:b5, 2085-97-11 06:172:03:756,0.388,1.491,0.46,184.143,350.281,-32.41,-24.692,-12.101,-173.853
 14:40:34.386,eb:33:2e:f9:57:b5, 2085-97-129 255:122:251:800,0.164,-0.604,0.912,191.528,286.682,-6.042,-22.462,-9.25,-175.474
 14:40:34.386,eb:33:2e:f9:57:b5, 2085-97-230 254:61:243:2219,-0.09,-1.404,0.911,200.745,170.166,23.621,-20.336,-7.163,-176.199
 14:40:34.506,eb:33:2e:f9:57:b5, 2085-97-244 255:237:245:2810,-0.098,-1.322,1.367,239.441,114.868,52.307,-18.144,-5.735,-176.276
 14:40:34.506,eb:33:2e:f9:57:b5, 2085-97-94 254:115:252:2906,-0.358,-0.836,1.492,280.212,94.91,64.697,-15.513,-4.592,-175.984
 14:40:34.506,eb:33:2e:f9:57:b5, 2085-97-238 251:217:01:2293,-0.664,-0.002,1.348,261.292,94.238,85.388,-12.849,-3.505,-175.507
 14:40:34.506,eb:33:2e:f9:57:b5, 2085-97-208 251:230:04:1868,-0.305,0.442,0.974,223.816,87.097,80.872,-10.503,-2.406,-174.831
 14:40:34.625,eb:33:2e:f9:57:b5, 2085-97-23 255:243:02:2105,-0.095,0.598,0.998,177.002,49.194,33.691,-8.558,-1.637,-174.391
 14:40:34.625,eb:33:2e:f9:57:b5, 2085-97-39 00:84:00:2135,0.169,0.171,1.044,146.973,17.456,-19.348,-6.982,-1.335,-174.397
 14:40:34.625,eb:33:2e:f9:57:b5, 2085-97-15 02:05:255:2289,0.239,-0.094,1.123,138.733,7.141,-33.936,-5.515,-1.269,-174.727
 14:40:34.625,eb:33:2e:f9:57:b5, 2085-97-110 02:61:01:2365,0.304,0.1,1.117,102.234,15.686,-19.165,-4.252,-1.176,-174.985
 14:40:34.627,eb:33:2e:f9:57:b5, 2085-97-61 02:118:02:2464,0.144,0.297,1.188,57.129,35.4,1.343,-3.461,-0.917,-175.084
 14:40:34.627,eb:33:2e:f9:57:b5, 2085-97-80 00:09:00:2033,0.038,0.195,1.097,30.396,56.274,4.456,-3.065,-0.423,-175.04
 14:40:34.627,eb:33:2e:f9:57:b5, 2085-97-45 00:07:00:2024,0.014,0.008,0.998,12.451,12.085,2.197,0.258,2.708,-175.161
 14:40:34.627,eb:33:2e:f9:57:b5, 2085-97-252 255:219:255:1994,0.001,-0.012,0.991,11.414,13.123,2.258,0.379,2.834,-175.111
 14:40:34.627,eb:33:2e:f9:57:b5, 2085-97-232 255:231:255:1993,-0.021,0,0.969,10.437,11.719,2.93,0.494,2.966,-175.095
 14:40:34.627,eb:33:2e:f9:57:b5, 2085-97-03 00:24:00:2018,0.009,-0.008,0.955,9.644,9.949,3.418,0.599,3.082,-175.034
 14:40:34.627,eb:33:2e:f9:57:b5, 2085-97-11 00:21:00:2050,0.007,0.012,1,9.155,10.315,1.465,1.11,3.543,-174.88
 14:40:34.627,eb:33:2e:f9:57:b5, 2085-97-32 00:37:00:2063,0.008,0.013,1.002,8.362,12.451,0.916,1.192,3.653,-174.836
 14:40:34.631,eb:33:2e:f9:57:b5, 2085-97-08 00:26:00:2087,0.009,0.014,1.011,8.057,15.076,-0.061,1.285,3.801,-174.842
 14:40:34.631,eb:33:2e:f9:57:b5, 2085-97-121 255:04:00:2183,-0.071,0.013,1.041,8.423,19.165,-1.038,1.368,3.972,-174.82
 14:40:34.631,eb:33:2e:f9:57:b5, 2085-97-173 255:58:00:2228,-0.04,0.006,1.067,27.222,21.362,0.305,2.834,6.136,-174.974
 14:40:34.631,eb:33:2e:f9:57:b5, 2085-97-89 255:215:255:2304,-0.077,0.002,1.146,37.231,10.925,-0.854,3.17,6.279,-174.946
 14:40:34.635,eb:33:2e:f9:57:b5, 2085-97-125 255:09:00:2293,-0.084,0.003,1.086,42.114,8.484,0.854,3.576,6.389,-174.946
 14:40:34.635,eb:33:2e:f9:57:b5, 2085-97-145 00:40:00:3214,0.145,-0.014,1.156,47.974,5.676,1.648,4.032,6.454,-174.902
 14:40:34.635,eb:33:2e:f9:57:b5, 2085-97-137 01:133:00:3376,0.232,0.055,1.623,143.005,7.507,12.878,12.112,6.279,-174.128
 14:40:34.635,eb:33:2e:f9:57:b5, 2085-97-43 02:223:00:3536,0.301,0.077,1.684,159.058,23.499,8.057,13.64,6.411,-173.969
 14:40:34.686,eb:33:2e:f9:57:b5, 2085-97-100 02:118:00:3663,0.266,0.083,1.761,175.598,43.457,2.441,15.331,6.746,-173.859
 14:40:34.686,eb:33:2e:f9:57:b5, 2085-97-218 02:57:254:5319,0.305,0.041,1.833,194.824,58.472,-4.089,17.199,7.245,-173.716
 14:40:34.686,eb:33:2e:f9:57:b5, 2085-97-53 03:152:253:5953,0.455,-0.361,2.705,443.665,115.601,-122.864,46.17,19.314,-172.485
 14:40:34.686,eb:33:2e:f9:57:b5, 2085-97-96 04:34:252:6096,0.61,-0.272,3.071,446.838,121.948,-132.874,50.614,21.05,-172.496
 14:40:34.686,eb:33:2e:f9:57:b5, 2085-113-81 00:243:01:-5777,0.669,-0.664,2.605,444.519,152.283,-136.23,55.162,22.956,-172.271
 14:40:34.715,eb:33:2e:f9:57:b5, 2085-97-202 05:231:247:4352,0.854,-0.823,2.34,437.256,160.889,-134.216,57.453,23.961,-171.996
 14:40:34.715,eb:33:2e:f9:57:b5, 2085-97-221 08:255:240:3892,1.032,-1.314,1.962,413.696,178.589,-116.028,62.018,25.917,-171.123
 14:40:34.715,eb:33:2e:f9:57:b5, 2085-97-230 03:65:245:-4417,-0.087,-1.75,0.575,367.615,203.979,-69.519,66.489,27.636,-169.706
 14:40:34.715,eb:33:2e:f9:57:b5, 2085-97-249 255:130:245:-4990,0.323,-1.185,-3.302,163.879,100.83,-32.41,69.681,28.691,-168.371
 14:40:34.776,eb:33:2e:f9:57:b5, 2085-97-55 04:228:248:-714,0.515,-1.124,-1.303,-18.311,3.235,12.817,70.428,28.911,-167.915
 14:40:34.776,eb:33:2e:f9:57:b5, 2085-97-112 03:167:249:1340,0.386,-0.776,0.288,-120.789,-49.438,34.119,69.532,28.559,-168.135
 14:40:34.776,eb:33:2e:f9:57:b5, 2085-97-26 03:133:249:1656,0.467,-0.859,0.858,-162.659,-46.387,50.537,67.901,27.955,-168.486
 14:40:34.776,eb:33:2e:f9:57:b5, 2085-97-57 04:68:251:1396,0.575,-0.753,0.805,-165.955,-42.908,52.734,66.149,27.296,-168.673
 14:40:34.806,eb:33:2e:f9:57:b5, 2085-97-109 04:197:252:898,0.514,-0.482,0.601,-154.785,-54.932,41.321,64.435,26.658,-168.942
 14:40:34.806,eb:33:2e:f9:57:b5, 2085-97-230 03:207:252:431,0.457,-0.384,0.314,-148.621,-77.087,27.222,62.748,26.049,-169.404
 14:40:34.806,eb:33:2e:f9:57:b5, 2085-97-73 03:124:252:213,0.345,-0.419,0.125,-154.785,-101.074,13.367,60.952,25.433,-170.151
 14:40:34.806,eb:33:2e:f9:57:b5, 2085-97-71 02:253:251:432,0.23,-0.472,0.14,-175.293,-122.192,1.526,58.942,24.785,-171.145
 14:40:34.836,eb:33:2e:f9:57:b5, 2085-97-125 01:100:251:773,0.149,-0.54,0.298,-204.468,-133.057,-4.578,56.613,24.093,-172.304
 14:40:34.836,eb:33:2e:f9:57:b5, 2085-97-229 00:08:251:928,0.086,-0.605,0.426,-235.413,-135.498,-6.47,53.992,23.346,-173.491
 14:40:34.836,eb:33:2e:f9:57:b5, 2085-97-171 00:24:251:1147,0.081,-0.629,0.5,-262.878,-138.245,-6.775,51.086,22.538,-174.661
 14:40:34.836,eb:33:2e:f9:57:b5, 2085-97-192 00:205:251:1427,0.099,-0.576,0.616,-281.311,-142.944,-8.362,47.988,21.665,-175.798
 14:40:34.924,eb:33:2e:f9:57:b5, 2085-97-188 00:142:252:1746,0.075,-0.473,0.771,-288.025,-151.672,-13.794,44.764,20.698,-176.968
 14:40:34.924,eb:33:2e:f9:57:b5, 2085-97-106 00:12:253:2007,0.023,-0.395,0.926,-288.269,-159.729,-21.301,41.539,19.649,-178.182
 14:40:34.924,eb:33:2e:f9:57:b5, 2085-97-249 255:45:253:2172,-0.031,-0.356,1.023,-290.1,-161.133,-29.48,38.309,18.55,-179.423
 14:40:34.924,eb:33:2e:f9:57:b5, 2085-97-144 255:63:253:2337,-0.079,-0.35,1.106,-295.837,-156.86,-38.635,35.079,17.452,179.352
 14:40:34.927,eb:33:2e:f9:57:b5, 2085-97-53 255:76:253:2498,-0.117,-0.338,1.178,-302.673,-153.809,-46.936,31.794,16.364,178.138
 14:40:34.927,eb:33:2e:f9:57:b5, 2085-97-223 254:32:253:2656,-0.163,-0.342,1.26,-308.533,-152.1,-53.955,28.482,15.276,176.946
 14:40:34.927,eb:33:2e:f9:57:b5, 2085-97-128 254:227:252:2842,-0.203,-0.375,1.341,-309.631,-152.893,-58.167,25.148,14.134,175.77
 14:40:34.927,eb:33:2e:f9:57:b5, 2085-97-76 254:228:252:3003,-0.223,-0.393,1.43,-305.725,-154.602,-58.411,21.879,12.936,174.65
 14:40:34.955,eb:33:2e:f9:57:b5, 2085-97-34 254:246:252:3173,-0.246,-0.383,1.496,-299.011,-155.518,-55.481,18.688,11.646,173.611
 14:40:34.955,eb:33:2e:f9:57:b5, 2085-97-245 253:40:253:3503,-0.267,-0.372,1.623,-289.307,-154.48,-49.744,15.634,10.3,172.694
 14:40:34.955,eb:33:2e:f9:57:b5, 2085-97-211 253:114:253:3857,-0.261,-0.336,1.804,-276.306,-148.499,-40.71,12.711,8.915,171.925
 14:40:34.955,eb:33:2e:f9:57:b5, 2085-97-239 253:225:253:3817,-0.207,-0.297,1.924,-263.672,-142.7,-29.358,9.981,7.548,171.354
 14:40:35.015,eb:33:2e:f9:57:b5, 2085-97-170 254:32:254:3775,-0.151,-0.252,1.851,-257.08,-148.682,-17.578,7.339,6.119,170.947
 14:40:35.015,eb:33:2e:f9:57:b5, 2085-97-247 254:167:254:4143,-0.133,-0.205,1.908,-249.756,-160.767,-6.531,4.801,4.581,170.733
 14:40:35.015,eb:33:2e:f9:57:b5, 2085-97-216 254:85:255:4714,-0.172,-0.129,2.157,-241.15,-169.006,2.014,2.329,2.922,170.656
 14:40:35.015,eb:33:2e:f9:57:b5, 2085-97-144 254:19:00:5221,-0.163,-0.032,2.437,-238.77,-167.725,7.751,-0.06,1.225,170.75
 14:40:35.075,eb:33:2e:f9:57:b5, 2085-97-198 254:248:00:5398,-0.125,0.062,2.622,-243.774,-158.081,8.728,-2.505,-0.401,170.909
 14:40:35.075,eb:33:2e:f9:57:b5, 2085-97-67 255:241:01:5145,-0.072,0.188,2.596,-253.906,-159.485,3.601,-5.01,-1.967,171.145
 14:40:35.075,eb:33:2e:f9:57:b5, 2085-97-85 255:58:02:4789,-0.154,0.261,2.419,-268.311,-179.077,-6.409,-7.668,-3.653,171.348
 14:40:35.075,eb:33:2e:f9:57:b5, 2085-97-10 254:241:02:4757,-0.354,0.321,2.294,-284.485,-201.416,-13.55,-10.481,-5.559,171.623
 14:40:35.104,eb:33:2e:f9:57:b5, 2085-97-128 252:61:04:5241,-0.508,0.434,2.44,-292.664,-214.355,-17.883,-13.464,-7.652,171.953
 14:40:35.104,eb:33:2e:f9:57:b5, 2085-97-156 251:205:06:5547,-0.572,0.665,2.662,-285.645,-203.796,-22.217,-16.447,-9.728,172.386
 14:40:35.104,eb:33:2e:f9:57:b5, 2085-97-66 251:69:10:5234,-0.587,1.061,2.684,-276.367,-176.575,-30.151,-19.363,-11.613,172.766
 14:40:35.104,eb:33:2e:f9:57:b5, 2085-97-247 251:121:15:4610,-0.479,1.545,2.389,-274.902,-143.127,-43.945,-22.192,-13.222,173.057
 14:40:35.136,eb:33:2e:f9:57:b5, 2085-97-48 251:104:25:3537,-0.948,2.506,2.047,-258.362,-117.004,-69.031,-24.89,-14.617,173.068
 14:40:35.136,eb:33:2e:f9:57:b5, 2085-97-61 244:139:32:2111,-2.101,3.757,1.308,-204.041,-152.222,-106.567,-27.142,-16.166,172.886
 14:40:35.136,eb:33:2e:f9:57:b5, 2085-97-170 234:231:29:3514,-3.057,4.037,1.146,-114.99,-226.807,-127.93,-28.68,-18.468,172.766
 14:40:35.136,eb:33:2e:f9:57:b5, 2085-97-156 230:167:21:6773,-2.974,3.274,2.563,-17.578,-199.768,-99.548,-29.344,-21,172.936
 14:40:35.495,eb:33:2e:f9:57:b5, 2085-97-137 235:179:12:7180,-2.176,2.057,3.66,54.138,-31.067,-33.875,-29.103,-22.308,172.963
 14:40:35.495,eb:33:2e:f9:57:b5, 2085-97-202 243:230:10:4090,-1.007,1.539,2.59,70.74,132.446,34.729,-28.295,-21.665,172.694
 14:40:35.495,eb:33:2e:f9:57:b5, 2085-97-95 251:89:11:2408,-0.255,1.323,1.513,68.787,181.213,69.885,-27.444,-19.913,172.337
 14:40:35.495,eb:33:2e:f9:57:b5, 2085-97-02 08:18:255:12878,0.277,1.461,1.047,79.834,129.639,65.063,-26.664,-18.155,172.233
 14:40:35.497,eb:33:2e:f9:57:b5, 2085-97-191 03:125:251:-801,1.412,-1.155,3.478,179.077,209.229,86.365,-25.104,-16.364,172.051
 14:40:35.497,eb:33:2e:f9:57:b5, 2085-97-86 07:180:244:2259,0.929,-0.729,0.34,137.268,164.917,74.89,-23.555,-14.436,172.04
 14:40:35.497,eb:33:2e:f9:57:b5, 2085-97-79 05:119:242:3457,0.377,-1.664,1.16,159.546,163.391,82.275,-22.072,-12.585,172.095
 14:40:35.497,eb:33:2e:f9:57:b5, 2085-97-121 00:211:248:2684,-0.15,-1.481,1.178,198.73,169.189,75.623,-20.308,-10.646,172.211
 14:40:35.526,eb:33:2e:f9:57:b5, 2085-97-245 252:06:254:2305,-0.538,-0.596,1.101,233.704,143.799,71.045,-18.138,-8.959,172.332
 14:40:35.526,eb:33:2e:f9:57:b5, 2085-97-206 251:54:01:2011,-0.499,0.066,1.111,229.309,130.92,76.111,-15.848,-7.438,172.65
 14:40:35.526,eb:33:2e:f9:57:b5, 2085-97-181 252:06:01:2084,-0.277,0.127,0.916,198.364,105.896,64.697,-13.788,-6.086,173.013
 14:40:35.526,eb:33:2e:f9:57:b5, 2085-97-216 254:72:00:2544,-0.023,0.088,1.145,169.983,76.538,35.156,-12.008,-5.103,173.304
 14:40:35.526,eb:33:2e:f9:57:b5, 2085-97-04 00:103:255:2440,0.026,-0.027,1.269,156.616,69.702,16.296,-10.393,-4.356,173.364
 14:40:35.526,eb:33:2e:f9:57:b5, 2085-97-120 00:58:255:2052,0.048,-0.111,1.079,145.813,68.237,17.029,-8.877,-3.642,173.414
 14:40:35.526,eb:33:2e:f9:57:b5, 2085-97-175 00:214:255:2173,0.111,-0.084,1.025,129.456,58.838,27.161,-7.515,-2.972,173.524
 14:40:35.527,eb:33:2e:f9:57:b5, 2085-97-194 00:122:00:2196,0.04,0.027,1.067,116.821,57.8,28.198,-6.317,-2.362,173.765
 14:40:35.528,eb:33:2e:f9:57:b5, 2085-97-00 00:236:00:2046,-0.041,0.111,1.036,103.394,55.664,11.353,-5.224,-1.758,173.886
 14:40:35.528,eb:33:2e:f9:57:b5, 2085-97-243 255:154:01:2008,0.034,0.146,0.989,87.402,40.955,-9.277,-4.263,-1.269,173.864
 14:40:35.528,eb:33:2e:f9:57:b5, 2085-97-129 00:00:00:2111,0.072,0.041,1.016,64.819,26.123,-13.55,-3.499,-0.961,173.688
 14:40:35.528,eb:33:2e:f9:57:b5, 2085-97-142 00:141:00:2085,0.034,0.05,1.027,46.814,21.851,-2.563,-2.939,-0.731,173.622
 14:40:35.530,eb:33:2e:f9:57:b5, 2085-97-232 255:95:00:1870,0.062,0.059,0.963,33.142,19.836,0.305,-2.543,-0.511,173.6
 14:40:35.530,eb:33:2e:f9:57:b5, 2085-97-128 00:242:255:1987,0.075,-0.004,0.964,8.545,8.545,4.761,0.253,0.143,174.82
 14:40:35.530,eb:33:2e:f9:57:b5, 2085-97-129 00:14:00:1997,0.054,0.007,0.979,7.69,9.949,3.845,0.341,0.242,174.853
 14:40:35.530,eb:33:2e:f9:57:b5, 2085-113-58 00:228:223:2160,0.053,0,0.975,6.775,10.986,2.747,0.412,0.352,174.913
 14:40:35.736,eb:33:2e:f9:57:b5, 2085-97-98 00:00:00:1988,0.046,0.002,0.972,6.409,10.986,2.258,0.45,0.417,174.913
 14:40:35.736,eb:33:2e:f9:57:b5, 2085-97-106 00:04:00:2019,0.054,0.001,0.975,5.859,10.62,1.892,0.511,0.522,174.963
 14:40:35.736,eb:33:2e:f9:57:b5, 2085-97-127 00:12:00:2033,0.06,0.002,0.983,5.432,11.353,1.282,0.577,0.643,174.968
 14:40:35.736,eb:33:2e:f9:57:b5, 2085-97-152 00:17:00:2054,0.055,0.005,0.992,4.639,13.55,0.366,0.632,0.764,175.001
 14:40:35.738,eb:33:2e:f9:57:b5, 2085-97-30 00:241:255:1950,0.034,-0.001,0.995,4.517,16.174,-0.732,0.687,0.928,174.99
 14:40:35.738,eb:33:2e:f9:57:b5, 2085-97-58 00:249:255:2009,0.023,-0.003,0.997,4.456,15.076,0.244,0.725,1.088,175.018
 14:40:35.738,eb:33:2e:f9:57:b5, 2085-97-51 00:231:255:2074,0.025,-0.012,0.999,5.127,13.794,0.061,0.786,1.241,175.007
 14:40:35.738,eb:33:2e:f9:57:b5, 2085-97-47 00:225:255:2085,0.019,-0.012,1.017,6.287,14.526,-0.061,0.84,1.384,175.034
 14:40:35.764,eb:33:2e:f9:57:b5, 2085-97-27 00:217:255:2095,0.019,-0.014,1.015,7.69,14.282,-0.305,0.923,1.538,175.023
 14:40:35.764,eb:33:2e:f9:57:b5, 2085-97-35 00:204:255:2121,0.026,-0.02,1.029,9.46,13.977,-0.61,1.011,1.681,175.045
 14:40:35.764,eb:33:2e:f9:57:b5, 2085-97-42 00:230:255:2167,0.038,-0.017,1.029,12.146,13.672,0,1.126,1.829,175.029
 14:40:35.764,eb:33:2e:f9:57:b5, 2085-97-57 00:230:255:2132,0.037,-0.005,1.023,14.404,14.954,-0.366,1.258,1.978,175.062
 14:40:35.826,eb:33:2e:f9:57:b5, 2085-97-202 00:72:00:2123,0.123,-0.001,1.032,16.357,13.977,-1.343,1.423,2.131,175.04
 14:40:35.826,eb:33:2e:f9:57:b5, 2085-97-141 00:255:255:2194,0.067,0.036,1.117,19.836,12.878,-6.287,1.604,2.258,175.029
 14:40:35.826,eb:33:2e:f9:57:b5, 2085-97-118 00:27:00:2242,0.011,0.017,1.078,22.217,15.259,-9.277,1.829,2.406,174.941
 14:40:35.826,eb:33:2e:f9:57:b5, 2085-97-110 00:61:00:2403,0.034,0.011,1.136,26.428,19.043,-11.902,2.076,2.571,174.858
 14:40:35.826,eb:33:2e:f9:57:b5, 2085-97-62 255:68:255:2560,-0.057,-0.021,1.291,34.424,20.752,-12.39,2.395,2.78,174.727
 14:40:35.826,eb:33:2e:f9:57:b5, 2085-97-22 00:38:00:2582,-0.012,-0.031,1.138,45.776,15.991,-9.338,2.807,2.977,174.655
 14:40:35.826,eb:33:2e:f9:57:b5, 2085-97-00 00:06:00:2701,-0.029,-0.005,1.298,82.642,3.662,-6.653,5.982,3.29,174.37
 14:40:35.826,eb:33:2e:f9:57:b5, 2085-97-205 255:239:255:2778,-0.007,-0.005,1.348,92.712,3.784,-5.798,6.866,3.323,174.337
 14:40:35.828,eb:33:2e:f9:57:b5, 2085-97-253 255:73:00:2844,-0.001,0.017,1.361,104.431,3.906,-4.333,7.861,3.389,174.282
 14:40:35.828,eb:33:2e:f9:57:b5, 2085-97-39 00:97:00:2829,0.037,0.024,1.407,117.92,2.625,-4.089,8.981,3.422,174.265
 14:40:35.828,eb:33:2e:f9:57:b5, 2085-97-85 00:84:00:2898,0.057,0.071,1.384,132.324,-2.38,-5.31,10.25,3.439,174.21
 14:40:35.828,eb:33:2e:f9:57:b5, 2085-97-155 00:49:00:3015,0.08,0.019,1.457,145.142,-0.793,-6.226,11.646,3.428,174.166
 14:40:35.885,eb:33:2e:f9:57:b5, 2085-97-218 00:131:00:3038,0.113,0.028,1.47,159.546,4.761,-7.019,13.184,3.472,174.089
 14:40:35.885,eb:33:2e:f9:57:b5, 2085-97-253 00:85:00:3132,0.121,0.047,1.502,172.791,11.414,-7.629,14.854,3.571,174.062
 14:40:35.885,eb:33:2e:f9:57:b5, 2085-97-85 01:84:00:3157,0.173,0.045,1.56,184.326,21.667,-8.301,16.65,3.763,174.012
 14:40:35.885,eb:33:2e:f9:57:b5, 2085-97-48 01:159:00:2970,0.115,0.072,1.461,200.439,25.879,-10.559,18.583,4.032,174.018
 14:40:35.887,eb:33:2e:f9:57:b5, 2085-97-226 00:128:00:3155,0.134,0.067,1.494,218.14,19.592,-13,20.687,4.29,173.958
 14:40:35.887,eb:33:2e:f9:57:b5, 2085-97-57 01:132:00:3304,0.204,0.04,1.545,240.051,11.963,-17.029,22.983,4.493,173.897
 14:40:35.887,eb:33:2e:f9:57:b5, 2085-97-34 02:128:00:3775,0.305,0.077,1.727,269.348,0.305,-26.489,25.543,4.636,173.699
 14:40:35.887,eb:33:2e:f9:57:b5, 2085-97-84 02:25:00:4114,0.3,0.039,1.947,305.542,-10.559,-41.321,28.422,4.741,173.381
 14:40:35.977,eb:33:2e:f9:57:b5, 2085-97-45 02:78:01:4348,0.231,0.091,2.113,351.44,-28.809,-57.922,31.712,4.818,172.82
 14:40:35.977,eb:33:2e:f9:57:b5, 2085-97-50 01:210:00:4471,-0.057,0.142,2.182,396.973,-54.626,-74.036,35.469,4.818,172.035
 14:40:35.977,eb:33:2e:f9:57:b5, 2085-97-200 254:141:01:5157,-0.009,0.177,2.407,431.763,-77.82,-84.29,39.611,4.752,170.947
 14:40:35.977,eb:33:2e:f9:57:b5, 2085-97-132 00:44:00:5371,-0.003,0.123,2.541,463.44,-111.389,-89.661,44.099,4.603,169.706
 14:40:35.977,eb:33:2e:f9:57:b5, 2085-97-134 255:60:255:6192,-0.104,0.061,2.856,471.252,-134.705,-102.234,48.774,4.406,168.091
 14:40:35.977,eb:33:2e:f9:57:b5, 2085-97-172 00:02:253:5628,0.312,-0.321,2.99,468.811,-106.934,-103.455,53.465,4.422,166.503
 14:40:35.977,eb:33:2e:f9:57:b5, 2085-97-190 03:13:254:4692,0.582,-0.203,2.505,473.267,-86.121,-111.206,58.145,4.752,165.103
 14:40:35.978,eb:33:2e:f9:57:b5, 2085-97-179 05:62:253:2885,0.812,-0.343,1.957,479.37,-88.074,-120.728,62.886,5.323,163.779
 14:40:35.978,eb:33:2e:f9:57:b5, 2085-113-58 00:38:233:-1125,0.847,-0.187,1.116,464.233,-123.169,-139.099,67.571,6.031,162.23
 14:40:36.005,eb:33:2e:f9:57:b5, 2085-97-199 06:185:252:1951,0.914,-0.243,1.071,447.205,-135.986,-146.301,69.813,6.449,161.345
 14:40:36.005,eb:33:2e:f9:57:b5, 2085-97-25 08:56:255:-809,0.606,-0.786,0.587,377.563,-149.109,-158.02,73.867,7.416,159.483
 14:40:36.005,eb:33:2e:f9:57:b5, 2085-97-173 02:39:248:-1035,0.134,-0.304,-0.798,212.952,-189.148,-210.144,76.685,8.822,157.341
 14:40:36.005,eb:33:2e:f9:57:b5, 2085-97-201 255:220:241:136,-0.075,-1.558,-0.088,-0.061,-170.776,-181.335,77.393,10.3,155.067
 14:40:36.065,eb:33:2e:f9:57:b5, 2085-97-196 255:226:244:907,0.069,-1.656,0.211,-162.537,-117.004,-133.179,76.223,11.453,153.281
 14:40:36.065,eb:33:2e:f9:57:b5, 2085-97-86 01:92:248:2006,0.195,-1.143,0.741,-263.855,-59.021,-100.586,73.834,12.305,152.155
 14:40:36.065,eb:33:2e:f9:57:b5, 2085-97-214 01:248:249:2405,0.246,-0.845,1.125,-305.908,-16.663,-91.003,70.812,13.09,151.518
 14:40:36.065,eb:33:2e:f9:57:b5, 2085-97-249 01:29:251:1777,0.235,-0.672,1.081,-310.181,-1.16,-94.177,67.643,13.92,151.128
 14:40:36.095,eb:33:2e:f9:57:b5, 2085-97-201 01:129:251:787,0.206,-0.568,0.608,-308.105,-7.141,-100.464,64.457,14.793,150.677
 14:40:36.095,eb:33:2e:f9:57:b5, 2085-97-160 01:42:251:441,0.188,-0.578,0.232,-306.03,-30.945,-107.361,61.254,15.617,150.024
 14:40:36.095,eb:33:2e:f9:57:b5, 2085-97-58 01:31:251:676,0.108,-0.613,0.261,-295.532,-68.298,-115.173,58.008,16.304,148.98
 14:40:36.095,eb:33:2e:f9:57:b5, 2085-97-64 00:219:250:1081,-0.049,-0.615,0.433,-281.067,-106.995,-120.3,54.822,16.754,147.546
 14:40:36.125,eb:33:2e:f9:57:b5, 2085-97-240 254:12:250:1326,-0.208,-0.687,0.591,-273.56,-131.897,-116.638,51.658,16.935,145.805
 14:40:36.125,eb:33:2e:f9:57:b5, 2085-97-206 253:51:249:1591,-0.325,-0.805,0.709,-277.283,-135.498,-104.004,48.505,16.88,144.031
 14:40:36.125,eb:33:2e:f9:57:b5, 2085-97-55 253:29:249:1864,-0.348,-0.868,0.847,-285.889,-125.366,-84.656,45.308,16.639,142.405
 14:40:36.125,eb:33:2e:f9:57:b5, 2085-97-107 253:179:249:1920,-0.284,-0.828,0.933,-293.823,-111.389,-64.819,42.105,16.271,141.059
 14:40:36.216,eb:33:2e:f9:57:b5, 2085-97-12 254:139:250:1892,-0.201,-0.74,0.935,-297.302,-106.812,-50.415,38.886,15.793,139.922
 14:40:36.216,eb:33:2e:f9:57:b5, 2085-97-191 254:145:251:1916,-0.13,-0.619,0.921,-295.044,-115.601,-43.518,35.711,15.167,138.9
 14:40:36.216,eb:33:2e:f9:57:b5, 2085-97-17 255:67:252:2060,-0.114,-0.506,0.964,-289.551,-132.385,-43.03,32.569,14.354,137.856
 14:40:36.216,eb:33:2e:f9:57:b5, 2085-97-244 254:135:252:2352,-0.164,-0.441,1.065,-283.752,-150.635,-46.631,29.515,13.337,136.763
 14:40:36.335,eb:33:2e:f9:57:b5, 2085-97-114 254:95:252:2738,-0.233,-0.442,1.233,-281.494,-160.706,-50.415,26.494,12.151,135.615
 14:40:36.335,eb:33:2e:f9:57:b5, 2085-97-234 253:23:252:3061,-0.284,-0.477,1.424,-284.058,-158.447,-51.27,23.522,10.893,134.517
 14:40:36.335,eb:33:2e:f9:57:b5, 2085-97-150 253:02:252:3209,-0.309,-0.497,1.54,-289.001,-148.193,-48.584,20.517,9.635,133.506
 14:40:36.335,eb:33:2e:f9:57:b5, 2085-97-142 253:47:252:3339,-0.301,-0.492,1.595,-292.358,-138,-42.847,17.529,8.421,132.66
 14:40:36.337,eb:33:2e:f9:57:b5, 2085-97-161 253:138:252:3509,-0.267,-0.457,1.671,-291.443,-132.446,-35.095,14.535,7.213,131.951
 14:40:36.337,eb:33:2e:f9:57:b5, 2085-97-18 254:20:253:3723,-0.204,-0.402,1.779,-287.72,-130.127,-25.696,11.613,5.993,131.413
 14:40:36.337,eb:33:2e:f9:57:b5, 2085-97-193 254:157:253:3793,-0.105,-0.33,1.849,-282.654,-132.263,-16.724,8.723,4.73,131.012
 14:40:36.337,eb:33:2e:f9:57:b5, 2085-97-159 255:28:254:3964,-0.015,-0.265,1.869,-275.208,-145.752,-9.033,5.938,3.367,130.776
 14:40:36.339,eb:33:2e:f9:57:b5, 2085-97-254 255:103:254:4288,-0.016,-0.21,2.006,-267.944,-164.612,-3.662,3.203,1.807,130.627
 14:40:36.339,eb:33:2e:f9:57:b5, 2085-97-202 255:67:254:4814,-0.041,-0.205,2.192,-267.883,-180.359,1.343,0.538,0.071,130.633
 14:40:36.339,eb:33:2e:f9:57:b5, 2085-97-111 255:38:254:5460,-0.13,-0.22,2.504,-278.809,-189.087,8.545,-2.236,-1.791,130.754
 14:40:36.339,eb:33:2e:f9:57:b5, 2085-97-117 254:247:253:5895,-0.255,-0.247,2.792,-300.842,-188.599,18.555,-5.169,-3.664,131.089
 14:40:36.341,eb:33:2e:f9:57:b5, 2085-97-130 253:146:254:5888,-0.351,-0.235,2.901,-328.674,-181.458,35.095,-8.443,-5.466,131.622
 14:40:36.341,eb:33:2e:f9:57:b5, 2085-97-250 252:144:00:5812,-0.393,-0.077,2.844,-346.436,-177.002,54.321,-11.986,-7.119,132.473
 14:40:36.341,eb:33:2e:f9:57:b5, 2085-97-235 252:254:03:5949,-0.367,0.269,2.862,-342.529,-178.589,68.176,-15.705,-8.674,133.555
 14:40:36.341,eb:33:2e:f9:57:b5, 2085-97-59 253:96:08:6113,-0.292,0.751,2.95,-320.496,-174.622,70.984,-19.314,-10.129,134.83
 14:40:36.366,eb:33:2e:f9:57:b5, 2085-97-04 254:237:14:6190,-0.111,1.413,3.055,-293.701,-149.658,61.096,-22.725,-11.398,136.104
 14:40:36.366,eb:33:2e:f9:57:b5, 2085-97-177 00:61:26:5328,0.039,2.466,2.869,-273.193,-84.9,33.936,-25.818,-12.233,137.076
 14:40:36.366,eb:33:2e:f9:57:b5, 2085-97-159 252:38:39:2251,-1.229,4.204,1.944,-229.492,-67.932,-30.151,-28.46,-12.788,137.395
 14:40:36.366,eb:33:2e:f9:57:b5, 2085-97-215 238:213:37:1943,-2.903,5.049,0.641,-144.104,-188.965,-104.858,-30.317,-14.282,137.428
 14:40:36.488,eb:33:2e:f9:57:b5, 2085-97-81 229:215:27:6676,-3.536,4.162,1.942,-44.556,-238.464,-120.361,-31.306,-16.864,137.659
 14:40:36.488,eb:33:2e:f9:57:b5, 2085-97-87 229:116:16:8696,-2.769,2.753,4.134,38.757,-70.068,-69.092,-31.278,-18.765,137.719
 14:40:36.488,eb:33:2e:f9:57:b5, 2085-97-78 240:219:11:5750,-1.24,1.625,3.491,63.965,170.41,2.136,-30.454,-18.314,137.065
 14:40:36.488,eb:33:2e:f9:57:b5, 2085-97-216 250:99:12:3137,-0.172,1.47,2.143,57.922,288.574,39.673,-29.438,-16.046,135.939
 14:40:36.488,eb:33:2e:f9:57:b5, 2085-97-01 01:29:13:1900,0.295,1.613,1.142,57.495,265.32,28.748,-28.493,-13.387,134.764
 14:40:36.488,eb:33:2e:f9:57:b5, 2085-97-136 17:94:00:8727,1.419,1.553,0.875,71.655,185.12,-2.625,-27.554,-11.387,133.737
 14:40:36.488,eb:33:2e:f9:57:b5, 2085-97-140 04:160:253:-1774,0.693,-2.602,3.345,153.625,175.171,-14.587,-26.027,-10.168,132.737
 14:40:36.488,eb:33:2e:f9:57:b5, 2085-97-97 07:32:240:1485,0.626,-1.4,0.977,123.718,125.183,-33.997,-24.576,-8.97,131.83
 14:40:36.491,eb:33:2e:f9:57:b5, 2085-97-146 03:28:242:1662,0.114,-2.101,0.718,183.777,76.477,-27.771,-22.896,-8.201,131.072
 14:40:36.491,eb:33:2e:f9:57:b5, 2085-97-225 255:52:251:2133,-0.096,-1.153,0.891,259.949,45.471,3.54,-20.555,-7.729,130.754
 14:40:36.491,eb:33:2e:f9:57:b5, 2085-97-137 254:152:00:2451,-0.236,-0.267,1.152,271.057,55.603,36.56,-17.831,-7.18,130.77
 14:40:36.491,eb:33:2e:f9:57:b5, 2085-97-214 253:88:02:2206,-0.278,0.245,1.151,232.483,70.068,58.533,-15.37,-6.411,131.067
 14:40:36.545,eb:33:2e:f9:57:b5, 2085-97-76 254:55:02:2327,-0.166,0.304,1.063,179.932,53.406,44.861,-13.398,-5.63,131.413
 14:40:36.545,eb:33:2e:f9:57:b5, 2085-97-03 255:246:255:2271,-0.046,0.113,1.139,148.499,33.813,8.423,-11.821,-5.169,131.6
 14:40:36.545,eb:33:2e:f9:57:b5, 2085-97-143 00:09:255:2238,0.143,-0.095,1.104,145.447,26.367,-17.09,-10.344,-4.889,131.457
 14:40:36.545,eb:33:2e:f9:57:b5, 2085-97-123 01:42:255:2256,0.185,-0.134,1.106,140.503,28.137,-19.226,-8.86,-4.664,131.243
 14:40:36.755,eb:33:2e:f9:57:b5, 2085-97-146 01:135:255:2350,0.208,-0.07,1.118,122.925,33.752,-5.92,-7.52,-4.362,131.056
 14:40:36.755,eb:33:2e:f9:57:b5, 2085-97-153 01:217:255:2313,0.122,-0.028,1.156,104.797,41.992,8.606,-6.394,-3.988,131.067
 14:40:36.755,eb:33:2e:f9:57:b5, 2085-97-176 00:56:00:2102,0.049,-0.01,1.087,93.811,50.11,8.423,-5.411,-3.488,131.1
 14:40:36.755,eb:33:2e:f9:57:b5, 2085-97-136 00:109:01:2086,0.081,0.083,1.024,79.59,41.809,-4.578,-4.532,-3.021,131.111
 14:40:36.908,eb:33:2e:f9:57:b5, 2085-97-124 00:100:00:2056,0.033,0.085,1.035,60.303,32.288,-14.893,-3.834,-2.67,130.952
 14:40:36.908,eb:33:2e:f9:57:b5, 2085-97-95 00:236:255:2063,0.061,0.021,0.993,45.715,25.696,-10.62,-3.29,-2.395,130.825
 14:40:36.908,eb:33:2e:f9:57:b5, 2085-97-179 00:12:00:2050,0.096,-0.001,1.005,35.217,24.597,-1.038,-2.884,-2.137,130.748
 14:40:36.908,eb:33:2e:f9:57:b5, 2085-97-132 00:44:00:2009,0.029,0.022,0.994,27.954,25.085,-0.366,-2.571,-1.89,130.77
 14:40:36.908,eb:33:2e:f9:57:b5, 2085-97-87 00:196:255:2035,0.066,-0.015,0.973,23.621,21.301,-2.625,-2.307,-1.642,130.726
 14:40:36.908,eb:33:2e:f9:57:b5, 2085-97-153 00:245:255:2087,0.056,-0.019,1.017,20.02,20.508,1.038,-2.087,-1.439,130.743
 14:40:36.908,eb:33:2e:f9:57:b5, 2085-97-69 00:222:255:2020,0.034,-0.007,1.006,16.418,21.118,2.747,-1.906,-1.214,130.743
 14:40:36.908,eb:33:2e:f9:57:b5, 2085-97-75 00:200:255:2056,0.039,-0.023,0.988,15.198,17.761,2.197,-1.752,-1.022,130.792
 14:40:36.910,eb:33:2e:f9:57:b5, 2085-97-72 00:196:255:2055,0.028,-0.026,1.005,13.733,15.991,3.479,-1.604,-0.835,130.809
 14:40:36.910,eb:33:2e:f9:57:b5, 2085-97-63 00:168:255:2054,0.032,-0.038,1.003,13.428,13.733,4.089,-1.472,-0.687,130.875
 14:40:36.910,eb:33:2e:f9:57:b5, 2085-97-82 00:200:255:2049,0.041,-0.039,0.998,13.916,11.658,4.272,-1.335,-0.549,130.902
 14:40:36.910,eb:33:2e:f9:57:b5, 2085-97-81 00:204:255:2043,0.041,-0.028,1.003,14.221,10.376,3.906,-1.192,-0.434,130.974
 14:40:36.913,eb:33:2e:f9:57:b5, 2085-97-93 00:194:255:2053,0.052,-0.03,1.003,15.076,8.972,3.479,-1.044,-0.324,131.001
 14:40:36.913,eb:33:2e:f9:57:b5, 2085-97-107 00:221:255:2045,0.049,-0.024,1.008,16.235,7.935,2.441,-0.89,-0.242,131.061
 14:40:36.913,eb:33:2e:f9:57:b5, 2085-97-85 00:224:255:2004,0.041,-0.015,0.988,16.296,7.08,1.404,-0.72,-0.154,131.067
 14:40:36.913,eb:33:2e:f9:57:b5, 2085-97-89 00:233:255:2000,0.041,-0.012,0.974,15.503,5.737,1.221,-0.56,-0.088,131.116
 14:40:36.916,eb:33:2e:f9:57:b5, 2085-97-82 00:231:255:1989,0.046,-0.015,0.97,13.977,5.127,1.343,-0.412,-0.022,131.116
 14:40:36.916,eb:33:2e:f9:57:b5, 2085-97-98 00:255:255:1997,0.052,-0.003,0.976,12.573,5.005,1.404,-0.28,0.027,131.166
 14:40:36.916,eb:33:2e:f9:57:b5, 2085-97-115 00:01:00:2006,0.06,0,0.977,10.742,5.676,1.465,-0.159,0.093,131.166
 14:40:36.916,eb:33:2e:f9:57:b5, 2085-97-126 00:02:00:2004,0.057,-0.001,0.981,9.033,7.507,1.526,-0.06,0.159,131.215
 14:40:36.935,eb:33:2e:f9:57:b5, 2085-97-97 00:06:00:1977,0.02,0.004,0.972,7.568,8.972,1.16,0.022,0.258,131.221
 14:40:36.935,eb:33:2e:f9:57:b5, 2085-97-40 00:246:255:2075,0.017,-0.006,1.017,11.414,10.01,0.183,0.917,1.549,131.424
 14:40:36.935,eb:33:2e:f9:57:b5, 2085-97-31 00:238:255:2099,0.013,-0.004,1.016,13.184,8.789,0.305,1.044,1.653,131.418
 14:40:36.935,eb:33:2e:f9:57:b5, 2085-97-50 00:250:255:2119,0.023,-0.007,1.022,14.648,8.728,0.671,1.187,1.741,131.457
 14:40:36.996,eb:33:2e:f9:57:b5, 2085-97-63 00:20:00:2131,0.03,-0.006,1.044,16.174,10.01,0.671,1.34,1.846,131.457
 14:40:36.996,eb:33:2e:f9:57:b5, 2085-97-61 00:15:00:2146,0.008,0.008,1.057,18.066,11.902,0.061,1.516,1.956,131.495
 14:40:36.996,eb:33:2e:f9:57:b5, 2085-113-81 00:146:52:566,0.021,0.001,1.045,20.02,13.245,-0.549,1.708,2.098,131.479
 14:40:36.997,eb:33:2e:f9:57:b5, 2085-97-09 00:35:00:2133,0.015,0.018,1.03,20.813,12.939,-1.099,1.813,2.159,131.512
 14:40:37.025,eb:33:2e:f9:57:b5, 2085-97-53 00:47:00:2171,0.015,0.036,0.996,21.118,12.756,-1.709,2.027,2.302,131.49
 14:40:37.025,eb:33:2e:f9:57:b5, 2085-97-90 00:22:00:2411,0.072,0.012,1.083,22.522,15.076,-2.197,2.241,2.45,131.501
 14:40:37.025,eb:33:2e:f9:57:b5, 2085-97-150 00:05:00:2500,0.075,-0.006,1.293,30.518,19.043,-3.113,2.516,2.626,131.468
 14:40:37.025,eb:33:2e:f9:57:b5, 2085-97-158 00:82:00:2347,0.025,0.012,1.15,35.4,24.841,-4.517,2.856,2.845,131.468
 14:40:37.056,eb:33:2e:f9:57:b5, 2085-97-35 00:51:00:2349,-0.062,0.011,1.191,40.283,26.184,-4.578,3.235,3.126,131.418
 14:40:37.056,eb:33:2e:f9:57:b5, 2085-97-242 254:58:255:2870,-0.112,-0.024,1.285,51.453,18.188,-3.418,3.691,3.351,131.418
 14:40:37.056,eb:33:2e:f9:57:b5, 2085-97-81 255:145:255:2677,-0.063,-0.09,1.359,70.923,6.775,1.343,4.318,3.488,131.407
 14:40:37.056,eb:33:2e:f9:57:b5, 2085-97-170 255:218:255:2884,-0.008,-0.041,1.336,84.656,-1.526,4.272,5.109,3.499,131.468
 14:40:37.085,eb:33:2e:f9:57:b5, 2085-97-229 255:151:255:3275,0.018,-0.035,1.537,100.281,-4.089,4.639,6.037,3.466,131.501
 14:40:37.085,eb:33:2e:f9:57:b5, 2085-97-138 00:67:00:3402,0.055,-0.008,1.645,121.582,-2.747,4.578,7.158,3.428,131.578
 14:40:37.085,eb:33:2e:f9:57:b5, 2085-97-147 00:183:255:3258,0.066,-0.004,1.638,142.151,3.113,2.136,8.492,3.433,131.589
 14:40:37.085,eb:33:2e:f9:57:b5, 2085-97-174 00:179:255:3225,0.04,-0.024,1.536,158.752,6.042,1.221,10.014,3.494,131.649
 14:40:37.146,eb:33:2e:f9:57:b5, 2085-97-66 00:75:255:3447,0.063,-0.069,1.605,175.354,6.775,1.038,11.695,3.56,131.655
 14:40:37.146,eb:33:2e:f9:57:b5, 2085-97-200 00:48:255:3590,0.157,-0.096,1.75,191.589,19.714,3.723,13.541,3.686,131.732
 14:40:37.146,eb:33:2e:f9:57:b5, 2085-97-190 01:185:255:3461,0.28,-0.072,1.714,212.219,31.372,4.578,15.568,3.944,131.819
 14:40:37.146,eb:33:2e:f9:57:b5, 2085-97-110 02:245:255:3582,0.3,-0.001,1.711,234.253,35.583,-1.892,17.809,4.263,131.957
 14:40:37.206,eb:33:2e:f9:57:b5, 2085-97-30 02:228:255:3930,0.265,-0.023,1.797,260.132,37.415,-10.925,20.297,4.647,131.979
 14:40:37.206,eb:33:2e:f9:57:b5, 2085-97-180 01:199:254:4534,0.235,-0.094,2.061,291.931,35.4,-22.827,23.071,5.048,131.973
 14:40:37.206,eb:33:2e:f9:57:b5, 2085-97-77 02:101:255:4914,0.391,-0.11,2.317,325.012,44.678,-32.898,26.169,5.537,131.852
 14:40:37.206,eb:33:2e:f9:57:b5, 2085-97-102 03:242:255:4794,0.392,-0.052,2.386,361.572,53.894,-48.218,29.619,6.169,131.732
 14:40:37.208,eb:33:2e:f9:57:b5, 2085-97-202 02:32:00:4752,0.239,0.029,2.297,394.043,47.241,-63.904,33.404,6.916,131.473
 14:40:37.208,eb:33:2e:f9:57:b5, 2085-97-156 00:129:00:5270,-0.031,0.002,2.377,414.49,33.752,-75.684,37.452,7.641,131.127
 14:40:37.208,eb:33:2e:f9:57:b5, 2085-97-19 00:196:253:5857,0.131,-0.112,2.915,414.307,47.852,-78.674,41.567,8.438,130.71
 14:40:37.208,eb:33:2e:f9:57:b5, 2085-97-222 01:149:253:5005,0.268,-0.294,2.652,426.27,60.364,-77.515,45.753,9.388,130.556
 14:40:37.265,eb:33:2e:f9:57:b5, 2085-97-62 02:233:252:5016,0.422,-0.303,2.39,434.57,49.011,-84.473,50.043,10.355,130.358
 14:40:37.265,eb:33:2e:f9:57:b5, 2085-97-144 04:190:250:4264,0.709,-0.621,2.323,443.97,61.096,-83.74,54.426,11.349,130.265
 14:40:37.265,eb:33:2e:f9:57:b5, 2085-97-11 07:153:250:3426,0.974,-0.63,1.879,455.566,71.777,-89.844,58.925,12.458,130.303
 14:40:37.265,eb:33:2e:f9:57:b5, 2085-97-241 07:10:249:2009,1.045,-0.771,1.394,454.102,52.673,-97.473,63.512,13.59,130.408
 14:40:37.297,eb:33:2e:f9:57:b5, 2085-97-25 09:147:249:-867,0.804,-0.998,0.512,407.715,20.63,-106.018,67.813,14.672,130.243
 14:40:37.297,eb:33:2e:f9:57:b5, 2085-97-144 02:195:249:-3376,0.12,-0.561,-1.544,264.16,-24.78,-129.639,71.125,15.793,129.864
 14:40:37.297,eb:33:2e:f9:57:b5, 2085-97-103 01:146:244:-1118,0.279,-1.27,-1.117,47.791,-84.106,-117.737,72.328,16.804,128.809
 14:40:37.297,eb:33:2e:f9:57:b5, 2085-97-160 02:133:246:830,0.331,-1.35,-0.035,-117.371,-87.585,-84.961,71.57,17.452,127.623
 14:40:37.415,eb:33:2e:f9:57:b5, 2085-97-152 02:70:248:2060,0.309,-1.041,0.732,-215.759,-57.678,-64.209,69.554,17.875,126.656
 14:40:37.415,eb:33:2e:f9:57:b5, 2085-97-122 02:67:249:2438,0.301,-0.894,1.117,-250.671,-25.635,-57.129,67.017,18.27,126.063
 14:40:37.415,eb:33:2e:f9:57:b5, 2085-97-172 02:220:250:1795,0.378,-0.745,1.086,-253.052,-3.784,-57.251,64.369,18.732,125.689
 14:40:37.415,eb:33:2e:f9:57:b5, 2085-97-226 02:158:251:783,0.334,-0.595,0.632,-248.169,-4.578,-64.758,61.782,19.259,125.381
 14:40:37.415,eb:33:2e:f9:57:b5, 2085-97-121 02:147:251:253,0.297,-0.535,0.196,-250.549,-21.667,-71.228,59.145,19.781,124.904
 14:40:37.415,eb:33:2e:f9:57:b5, 2085-97-65 02:55:251:445,0.239,-0.584,0.15,-251.892,-53.589,-77.576,56.42,20.193,124.156
 14:40:37.415,eb:33:2e:f9:57:b5, 2085-97-127 01:22:251:765,0.134,-0.604,0.295,-255.005,-83.862,-79.712,53.558,20.413,123.074
 14:40:37.415,eb:33:2e:f9:57:b5, 2085-97-171 00:185:250:1058,0.046,-0.637,0.45,-263.733,-102.6,-75.317,50.603,20.413,121.811
 14:40:37.418,eb:33:2e:f9:57:b5, 2085-97-46 00:150:250:1389,0.007,-0.675,0.592,-277.771,-105.286,-64.331,47.505,20.226,120.515
 14:40:37.418,eb:33:2e:f9:57:b5, 2085-97-251 255:229:250:1700,-0.001,-0.663,0.761,-289.246,-98.999,-50.415,44.335,19.902,119.366
 14:40:37.418,eb:33:2e:f9:57:b5, 2085-97-17 00:115:251:1809,0.027,-0.605,0.87,-294.067,-94.116,-36.499,41.116,19.462,118.378
 14:40:37.418,eb:33:2e:f9:57:b5, 2085-97-106 00:11:252:1788,0.076,-0.534,0.88,-294.067,-97.046,-24.841,37.952,18.907,117.548
 14:40:37.476,eb:33:2e:f9:57:b5, 2085-97-198 00:169:252:1811,0.111,-0.456,0.873,-293.396,-107.239,-16.418,34.794,18.182,116.779
 14:40:37.476,eb:33:2e:f9:57:b5, 2085-97-03 01:58:253:1958,0.138,-0.384,0.911,-293.396,-121.643,-11.78,31.685,17.281,116.06
 14:40:37.476,eb:33:2e:f9:57:b5, 2085-97-30 01:203:253:2247,0.126,-0.311,1.021,-292.542,-137.573,-10.864,28.564,16.188,115.323
 14:40:37.476,eb:33:2e:f9:57:b5, 2085-97-204 00:33:254:2611,0.07,-0.248,1.183,-290.283,-151.428,-12.329,25.499,14.93,114.598
 14:40:37.476,eb:33:2e:f9:57:b5, 2085-97-72 00:12:254:2999,-0.001,-0.236,1.374,-286.926,-158.569,-12.634,22.456,13.535,113.868
 14:40:37.597,eb:33:2e:f9:57:b5, 2085-113-58 00:213:223:-1920,-0.039,-0.265,1.551,-283.936,-156.799,-8.606,19.506,12.085,113.253
 14:40:37.597,eb:33:2e:f9:57:b5, 2085-97-75 255:168:253:3437,-0.083,-0.282,1.622,-282.532,-152.588,-4.517,18.056,11.354,112.989
 14:40:37.597,eb:33:2e:f9:57:b5, 2085-97-71 255:169:253:3560,-0.084,-0.292,1.691,-279.236,-141.541,6.836,15.172,9.937,112.615
 14:40:37.597,eb:33:2e:f9:57:b5, 2085-97-125 255:238:253:3708,-0.072,-0.283,1.773,-272.522,-130.859,22.156,12.404,8.586,112.5
 14:40:37.597,eb:33:2e:f9:57:b5, 2085-97-00 00:111:254:3770,0.031,-0.229,1.799,-264.404,-129.15,36.682,9.695,7.256,112.588
 14:40:37.598,eb:33:2e:f9:57:b5, 2085-97-131 00:221:254:3946,0.102,-0.167,1.882,-253.418,-131.653,50.354,7.125,5.916,112.896
 14:40:37.598,eb:33:2e:f9:57:b5, 2085-97-249 00:44:255:4056,0.147,-0.12,1.952,-243.652,-139.282,61.218,4.631,4.51,113.351
 14:40:37.598,eb:33:2e:f9:57:b5, 2085-97-106 01:66:255:4309,0.191,-0.097,2.035,-241.333,-148.926,70.557,2.214,3.049,114
 14:40:37.600,eb:33:2e:f9:57:b5, 2085-97-199 01:84:255:4579,0.233,-0.09,2.132,-249.512,-159.058,78.674,-0.286,1.5,114.752
 14:40:37.600,eb:33:2e:f9:57:b5, 2085-97-224 01:99:255:4882,0.228,-0.077,2.31,-266.479,-167.969,86.548,-2.917,-0.099,115.703
 14:40:37.600,eb:33:2e:f9:57:b5, 2085-97-165 01:66:255:5312,0.181,-0.086,2.481,-286.194,-179.81,97.656,-5.817,-1.747,116.79
 14:40:37.600,eb:33:2e:f9:57:b5, 2085-97-103 01:238:255:5803,0.187,-0.075,2.711,-304.749,-185.913,115.662,-8.937,-3.411,118.13
 14:40:37.624,eb:33:2e:f9:57:b5, 2085-97-81 01:148:02:5942,0.128,0.128,2.919,-317.505,-177.795,137.39,-12.327,-4.944,119.767
 14:40:37.624,eb:33:2e:f9:57:b5, 2085-97-152 01:15:07:5297,0.329,0.565,2.715,-311.951,-175.11,148.071,-15.809,-6.224,121.646
 14:40:37.624,eb:33:2e:f9:57:b5, 2085-97-42 03:31:12:5471,0.483,1.167,2.641,-292.908,-182.983,137.573,-19.232,-7.493,123.624
 14:40:37.624,eb:33:2e:f9:57:b5, 2085-97-148 04:154:20:5524,0.656,2.022,2.648,-273.987,-166.443,106.445,-22.429,-8.657,125.453
 14:40:37.685,eb:33:2e:f9:57:b5, 2085-97-213 04:70:29:4820,0.308,3.112,2.677,-256.836,-126.77,50.964,-25.422,-9.657,126.81
 14:40:37.685,eb:33:2e:f9:57:b5, 2085-97-192 253:219:36:1840,-1.017,4.207,1.662,-213.928,-132.874,-24.963,-27.944,-10.673,127.485
 14:40:37.685,eb:33:2e:f9:57:b5, 2085-97-11 242:153:36:1983,-2.34,4.726,0.602,-144.287,-238.22,-90.881,-29.844,-12.623,127.886
 14:40:37.685,eb:33:2e:f9:57:b5, 2085-97-250 233:135:29:6235,-2.91,4.217,1.899,-56.335,-279.236,-104.858,-30.998,-15.491,128.474
 14:40:37.715,eb:33:2e:f9:57:b5, 2085-97-88 234:248:18:8138,-2.293,2.874,4.069,41.748,-114.807,-58.899,-31.185,-17.737,128.908
 14:40:37.715,eb:33:2e:f9:57:b5, 2085-97-04 242:200:12:5746,-1.15,1.924,3.388,80.017,108.154,2.38,-30.41,-17.748,128.617
 14:40:37.715,eb:33:2e:f9:57:b5, 2085-97-73 251:76:12:3402,-0.096,1.501,2.205,85.815,238.342,47.18,-29.29,-15.952,127.848
 14:40:37.715,eb:33:2e:f9:57:b5, 2085-97-253 16:123:11:9983,0.405,1.606,1.237,82.52,238.77,49.072,-28.174,-13.546,127.013
 14:40:37.925,eb:33:2e:f9:57:b5, 2085-97-59 04:92:251:408,0.797,-0.937,4.312,183.228,277.954,44.128,-26.406,-11.283,126.057
 14:40:37.925,eb:33:2e:f9:57:b5, 2085-97-123 03:49:248:955,0.217,-0.364,-0.171,153.198,197.632,34.79,-24.571,-8.981,125.321
 14:40:37.925,eb:33:2e:f9:57:b5, 2085-97-229 255:87:242:2006,-0.08,-1.733,0.516,181.03,119.446,42.114,-22.852,-7.383,125.013
 14:40:37.925,eb:33:2e:f9:57:b5, 2085-97-46 255:248:248:2338,-0.242,-1.289,1.1,236.45,69.519,46.875,-20.77,-6.389,125.085
 14:40:37.955,eb:33:2e:f9:57:b5, 2085-97-113 254:125:254:2957,-0.239,-0.562,1.375,272.217,47.119,49.988,-18.199,-5.713,125.343
 14:40:37.955,eb:33:2e:f9:57:b5, 2085-97-96 253:246:01:2476,-0.341,0.173,1.406,250,75.378,55.176,-15.617,-4.944,125.645
 14:40:37.955,eb:33:2e:f9:57:b5, 2085-97-20 253:203:01:1957,-0.306,0.272,1.014,212.463,78.247,54.321,-13.37,-4.01,125.964
 14:40:37.955,eb:33:2e:f9:57:b5, 2085-97-248 253:120:00:2049,-0.144,0.195,0.99,178.772,51.941,33.203,-11.475,-3.268,126.271
 14:40:37.957,eb:33:2e:f9:57:b5, 2085-97-174 255:149:255:2314,0.047,0.012,1.056,162.415,22.278,8.118,-9.8,-2.884,126.387
 14:40:37.957,eb:33:2e:f9:57:b5, 2085-97-69 01:197:255:2378,0.226,-0.027,1.156,156.128,17.822,-7.568,-8.201,-2.708,126.376
 14:40:37.957,eb:33:2e:f9:57:b5, 2085-97-13 02:189:255:2298,0.243,-0.005,1.147,134.583,21.851,-3.296,-6.729,-2.51,126.266
 14:40:37.957,eb:33:2e:f9:57:b5, 2085-97-36 01:51:00:2370,0.176,-0.01,1.132,115.54,36.621,8.545,-5.493,-2.219,126.299
 14:40:37.984,eb:33:2e:f9:57:b5, 2085-97-102 01:187:01:2213,0.101,0.259,1.079,80.627,40.833,6.287,-4.51,-1.791,126.332
 14:40:37.984,eb:33:2e:f9:57:b5, 2085-97-218 255:96:01:1918,-0.026,0.221,1.026,56.458,38.391,-5.249,-3.84,-1.39,126.332
 14:40:37.984,eb:33:2e:f9:57:b5, 2085-97-61 00:237:255:1955,0.075,0.051,0.917,39.185,22.949,-10.498,-3.367,-1.093,126.2
 14:40:37.984,eb:33:2e:f9:57:b5, 2085-97-183 00:104:00:2021,0.054,-0.008,0.982,30.579,20.691,-5.432,-3.01,-0.89,126.14
 14:40:37.986,eb:33:2e:f9:57:b5, 2085-97-00 00:76:00:1927,-0.001,0.06,0.98,21.118,19.531,-6.104,-2.752,-0.681,126.063
 14:40:37.987,eb:33:2e:f9:57:b5, 2085-97-82 00:206:255:2004,0.081,-0.002,0.94,15.686,12.634,-6.042,-2.565,-0.527,126.019
 14:40:37.987,eb:33:2e:f9:57:b5, 2085-97-182 00:198:255:2143,0.068,-0.025,1.03,12.451,13.184,-2.563,-2.417,-0.401,125.964
 14:40:37.987,eb:33:2e:f9:57:b5, 2085-97-89 00:180:255:2068,0.023,-0.035,1.034,11.597,16.052,-1.465,-2.296,-0.247,125.969
 14:40:37.989,eb:33:2e:f9:57:b5, 2085-97-54 00:146:255:2061,0.042,-0.041,0.997,11.536,14.16,0.061,-2.17,-0.088,125.942
 14:40:37.989,eb:33:2e:f9:57:b5, 2085-97-93 00:140:255:2107,0.042,-0.062,1.021,12.695,12.451,1.77,-2.049,0.044,125.98
 14:40:37.989,eb:33:2e:f9:57:b5, 2085-97-67 00:152:255:2105,0.031,-0.047,1.033,14.587,12.024,1.831,-1.906,0.176,125.986
 14:40:37.989,eb:33:2e:f9:57:b5, 2085-97-52 00:136:255:2086,0.028,-0.055,1.021,16.113,11.414,2.563,-1.752,0.297,126.035
 14:40:37.991,eb:33:2e:f9:57:b5, 2085-97-64 00:175:255:2069,0.031,-0.048,1.014,17.883,9.949,3.052,-1.577,0.417,126.046
 14:40:37.991,eb:33:2e:f9:57:b5, 2085-97-91 00:199:255:2090,0.054,-0.036,1.012,19.226,8.057,2.808,-1.39,0.505,126.107
 14:40:37.991,eb:33:2e:f9:57:b5, 2085-97-107 00:188:255:2097,0.051,-0.028,1.028,20.325,7.935,1.892,-1.187,0.593,126.118
 14:40:37.991,eb:33:2e:f9:57:b5, 2085-97-112 00:225:255:2061,0.042,-0.034,1.023,20.569,9.46,2.014,-0.978,0.681,126.167
 14:40:38.104,eb:33:2e:f9:57:b5, 2085-97-64 00:228:255:2001,0.027,-0.014,0.993,19.592,10.559,1.648,-0.769,0.797,126.172
 14:40:38.104,eb:33:2e:f9:57:b5, 2085-97-61 00:249:255:1966,0.032,-0.008,0.964,17.578,9.888,1.892,-0.582,0.901,126.216
 14:40:38.104,eb:33:2e:f9:57:b5, 2085-97-64 00:245:255:1979,0.032,-0.005,0.964,15.259,9.521,1.648,-0.417,1.005,126.227
 14:40:38.104,eb:33:2e:f9:57:b5, 2085-97-65 00:249:255:1978,0.027,-0.004,0.967,12.756,9.583,1.587,-0.275,1.104,126.271
 14:40:38.107,eb:33:2e:f9:57:b5, 2085-97-51 00:246:255:1985,0.025,-0.002,0.964,10.681,9.338,1.709,-0.154,1.208,126.277
 14:40:38.107,eb:33:2e:f9:57:b5, 2085-113-81 00:203:57:535,0.03,-0.005,0.969,9.094,9.277,1.648,-0.055,1.302,126.326
 14:40:38.107,eb:33:2e:f9:57:b5, 2085-97-49 00:230:255:2006,0.016,-0.003,0.977,8.728,9.277,1.648,-0.005,1.362,126.321
 14:40:38.107,eb:33:2e:f9:57:b5, 2085-97-42 00:238:255:2014,0.023,-0.009,0.976,8.118,8.606,2.075,0.077,1.45,126.37
 14:40:38.109,eb:33:2e:f9:57:b5, 2085-97-59 00:00:00:2018,0.029,-0.002,0.979,7.812,8.179,1.953,0.165,1.549,126.381
 14:40:38.109,eb:33:2e:f9:57:b5, 2085-97-57 00:252:255:2019,0.035,-0.003,0.989,7.69,8.423,1.648,0.242,1.631,126.431
 14:40:38.109,eb:33:2e:f9:57:b5, 2085-97-53 00:00:00:2021,0.027,0.006,0.992,7.446,9.399,1.221,0.324,1.73,126.436
 14:40:38.109,eb:33:2e:f9:57:b5, 2085-97-52 00:04:00:2033,0.018,0.001,0.987,6.897,10.437,1.038,0.396,1.829,126.48
 14:40:38.196,eb:33:2e:f9:57:b5, 2085-97-45 00:254:255:2052,0.021,-0.001,0.996,6.836,11.169,0.793,0.467,1.95,126.48
 14:40:38.196,eb:33:2e:f9:57:b5, 2085-97-51 00:07:00:2063,0.021,0,1.002,6.897,12.024,0.61,0.538,2.065,126.519
 14:40:38.196,eb:33:2e:f9:57:b5, 2085-97-36 00:10:00:2046,0.008,0.004,1.002,6.958,13.428,0,0.615,2.208,126.513
 14:40:38.196,eb:33:2e:f9:57:b5, 2085-97-13 00:255:255:2042,0,-0.005,1,6.836,14.954,-0.549,0.687,2.351,126.541
 14:40:38.196,eb:33:2e:f9:57:b5, 2085-97-21 00:15:00:2069,0.004,-0.003,1.006,7.69,15.076,-0.488,0.764,2.51,126.524
 14:40:38.196,eb:33:2e:f9:57:b5, 2085-97-04 00:255:255:2068,0.012,-0.004,1.015,9.46,14.709,-0.977,0.851,2.659,126.546
 14:40:38.196,eb:33:2e:f9:57:b5, 2085-97-04 00:246:255:2086,0.003,-0.004,1.027,11.108,14.221,-1.282,0.961,2.812,126.524
 14:40:38.197,eb:33:2e:f9:57:b5, 2085-97-24 00:10:00:2128,0.015,0.004,1.019,12.024,14.954,-1.16,1.082,2.961,126.546
 14:40:38.257,eb:33:2e:f9:57:b5, 2085-97-33 00:13:00:2124,0.017,0.002,1.037,13.977,15.747,-1.892,1.214,3.126,126.519
 14:40:38.257,eb:33:2e:f9:57:b5, 2085-97-27 00:32:00:2141,0.039,0.011,1.039,15.32,18.005,-2.319,1.362,3.296,126.53
 14:40:38.257,eb:33:2e:f9:57:b5, 2085-97-119 00:42:00:2297,0.038,0.03,1.095,17.09,19.409,-3.784,1.533,3.494,126.497
 14:40:38.257,eb:33:2e:f9:57:b5, 2085-97-44 00:19:00:2235,0.006,0.015,1.095,19.409,24.353,-5.493,1.719,3.719,126.48
 14:40:38.257,eb:33:2e:f9:57:b5, 2085-97-229 255:247:255:2272,-0.038,-0.004,1.129,23.376,26.55,-6.226,1.939,3.983,126.414
 14:40:38.257,eb:33:2e:f9:57:b5, 2085-97-176 255:225:255:2290,-0.036,-0.006,1.102,28.687,24.841,-5.127,2.197,4.246,126.392
 14:40:38.257,eb:33:2e:f9:57:b5, 2085-97-111 255:254:255:2328,-0.101,0,1.086,35.706,19.531,-4.028,2.527,4.482,126.343
 14:40:38.257,eb:33:2e:f9:57:b5, 2085-97-61 255:173:255:2365,-0.088,-0.047,1.218,48.523,7.935,-2.563,2.955,4.603,126.337
 14:40:38.405,eb:33:2e:f9:57:b5, 2085-97-81 255:236:255:2274,-0.061,-0.016,1.104,56.274,0.488,0.305,3.494,4.658,126.321
 14:40:38.405,eb:33:2e:f9:57:b5, 2085-97-131 255:238:255:2483,-0.062,0.001,1.157,62.5,-5.432,2.075,4.092,4.625,126.365
 14:40:38.405,eb:33:2e:f9:57:b5, 2085-97-117 255:208:255:2681,-0.107,-0.019,1.283,72.021,-8.362,3.662,4.768,4.565,126.381
 14:40:38.405,eb:33:2e:f9:57:b5, 2085-97-232 254:141:255:2772,-0.135,-0.04,1.311,83.313,-11.414,5.798,5.559,4.46,126.453
 14:40:38.407,eb:33:2e:f9:57:b5, 2085-97-243 254:189:255:2917,-0.079,-0.047,1.36,95.581,-14.954,10.254,6.46,4.334,126.513
 14:40:38.407,eb:33:2e:f9:57:b5, 2085-97-231 255:203:255:3207,0.084,-0.009,1.525,110.535,-15.564,12.756,7.498,4.164,126.645
 14:40:38.407,eb:33:2e:f9:57:b5, 2085-97-96 01:136:00:3178,0.244,0.037,1.551,128.662,-14.099,11.841,8.712,4.016,126.744
 14:40:38.407,eb:33:2e:f9:57:b5, 2085-97-14 02:111:00:3468,0.296,0.078,1.642,145.325,-8.85,5.31,10.085,3.884,126.843
 14:40:38.434,eb:33:2e:f9:57:b5, 2085-97-238 01:50:00:3680,0.19,0.021,1.768,163.635,7.141,-0.732,11.646,3.878,126.837
 14:40:38.434,eb:33:2e:f9:57:b5, 2085-97-140 01:180:255:3715,0.179,-0.016,1.828,181.152,29.297,-2.563,13.376,4.07,126.887
 14:40:38.434,eb:33:2e:f9:57:b5, 2085-97-101 01:106:255:3625,0.162,-0.052,1.794,204.59,46.326,-3.296,15.32,4.477,126.931
 14:40:38.434,eb:33:2e:f9:57:b5, 2085-97-244 01:87:255:3839,0.27,-0.05,1.794,226.807,52.673,-5.066,17.49,4.971,127.051
 14:40:38.436,eb:33:2e:f9:57:b5, 2085-97-154 02:217:255:3984,0.373,-0.049,1.911,253.418,60.059,-8.789,19.907,5.548,127.139
 14:40:38.436,eb:33:2e:f9:57:b5, 2085-97-186 02:252:254:4504,0.321,-0.031,2.06,283.569,55.908,-21.606,22.61,6.141,127.216
 14:40:38.436,eb:33:2e:f9:57:b5, 2085-97-01 03:235:254:5033,0.45,-0.121,2.346,316.04,61.157,-33.142,25.615,6.795,127.167
 14:40:38.436,eb:33:2e:f9:57:b5, 2085-97-237 03:86:255:5053,0.456,-0.11,2.488,351.807,79.102,-48.035,28.965,7.608,127.128
 14:40:38.466,eb:33:2e:f9:57:b5, 2085-97-98 03:54:255:4998,0.33,-0.098,2.433,386.597,90.698,-64.27,32.673,8.657,127.035
 14:40:38.466,eb:33:2e:f9:57:b5, 2085-97-195 01:36:255:5340,0.056,-0.062,2.51,411.316,85.754,-78.125,36.672,9.8,126.942
 14:40:38.466,eb:33:2e:f9:57:b5, 2085-97-88 00:63:255:5769,0.085,0.018,2.706,422.791,83.74,-80.933,40.847,10.959,126.799
 14:40:38.467,eb:33:2e:f9:57:b5, 2085-97-253 00:106:253:5256,0.181,-0.269,2.748,433.044,87.036,-80.75,45.121,12.134,126.782
 14:40:38.495,eb:33:2e:f9:57:b5, 2085-97-234 01:45:253:5204,0.256,-0.333,2.556,437.744,78.491,-85.815,49.477,13.321,126.766
 14:40:38.495,eb:33:2e:f9:57:b5, 2085-97-114 03:154:249:4673,0.671,-0.514,2.467,442.078,87.219,-85.876,53.888,14.507,126.859
 14:40:38.495,eb:33:2e:f9:57:b5, 2085-97-165 06:22:249:3643,0.939,-0.901,2,442.505,114.746,-80.322,58.37,15.771,127.211
 14:40:38.495,eb:33:2e:f9:57:b5, 2085-97-83 08:224:247:2696,1.212,-0.875,1.582,438.354,105.713,-84.961,62.908,17.067,127.804
 14:40:38.556,eb:33:2e:f9:57:b5, 2085-97-210 10:161:248:-1556,0.752,-1.345,0.717,393.555,76.355,-85.938,67.192,18.232,128.199
 14:40:38.556,eb:33:2e:f9:57:b5, 2085-97-05 00:09:248:-4217,-0.064,-0.774,-1.995,234.558,32.043,-99.609,70.444,19.352,128.436
 14:40:38.556,eb:33:2e:f9:57:b5, 2085-97-27 01:128:246:-1451,0.334,-1.286,-1.322,14.893,-26.917,-81.482,71.433,20.226,128.035
 14:40:38.556,eb:33:2e:f9:57:b5, 2085-97-203 02:47:248:1090,0.317,-1.06,0.054,-160.278,-45.166,-54.26,70.411,20.704,127.403
 14:40:38.585,eb:33:2e:f9:57:b5, 2085-97-137 02:242:248:1945,0.334,-0.921,0.811,-241.15,-25.269,-39.917,68.143,21,126.876
 14:40:38.585,eb:33:2e:f9:57:b5, 2085-97-224 02:194:249:2045,0.334,-0.846,0.98,-262.085,-11.108,-36.865,65.484,21.275,126.584
 14:40:38.585,eb:33:2e:f9:57:b5, 2085-97-137 02:233:250:1580,0.307,-0.713,0.928,-254.761,-7.263,-41.138,62.798,21.583,126.315
 14:40:38.585,eb:33:2e:f9:57:b5, 2085-97-86 02:127:251:833,0.262,-0.58,0.579,-244.324,-13.306,-46.936,60.211,21.918,126.013
 14:40:38.616,eb:33:2e:f9:57:b5, 2085-97-217 01:82:251:514,0.191,-0.566,0.292,-239.136,-28.87,-51.086,57.64,22.225,125.541
 14:40:38.616,eb:33:2e:f9:57:b5, 2085-97-56 01:255:250:691,0.115,-0.607,0.272,-239.563,-46.692,-51.27,55.047,22.423,124.915
 14:40:38.616,eb:33:2e:f9:57:b5, 2085-97-154 00:214:250:902,0.042,-0.635,0.398,-246.094,-56.763,-45.593,52.361,22.489,124.156
 14:40:38.617,eb:33:2e:f9:57:b5, 2085-97-31 00:161:250:1040,0.003,-0.655,0.474,-259.094,-59.021,-33.997,49.598,22.412,123.437
 14:40:38.676,eb:33:2e:f9:57:b5, 2085-97-45 00:149:250:1197,0.053,-0.684,0.548,-273.865,-58.044,-18.738,46.703,22.203,122.805
 14:40:38.676,eb:33:2e:f9:57:b5, 2085-97-179 00:60:251:1293,0.123,-0.646,0.612,-286.621,-56.58,-2.747,43.742,21.863,122.333
 14:40:38.676,eb:33:2e:f9:57:b5, 2085-97-57 01:35:252:1379,0.179,-0.538,0.649,-293.579,-62.134,9.583,40.699,21.39,121.97
 14:40:38.676,eb:33:2e:f9:57:b5, 2085-97-166 01:213:252:1560,0.217,-0.433,0.714,-293.03,-77.332,17.883,37.661,20.748,121.663
 14:40:38.705,eb:33:2e:f9:57:b5, 2085-97-209 01:82:253:1752,0.226,-0.362,0.803,-289.856,-95.154,24.536,34.634,19.907,121.333
 14:40:38.705,eb:33:2e:f9:57:b5, 2085-97-225 01:181:253:2042,0.243,-0.314,0.92,-287.72,-110.046,29.541,31.663,18.885,121.031
 14:40:38.705,eb:33:2e:f9:57:b5, 2085-97-04 02:95:254:2362,0.255,-0.245,1.074,-288.513,-118.713,32.104,28.685,17.721,120.745
 14:40:38.705,eb:33:2e:f9:57:b5, 2085-97-22 02:31:255:2675,0.265,-0.155,1.231,-291.321,-122.253,31.006,25.73,16.496,120.52
 14:40:38.766,eb:33:2e:f9:57:b5, 2085-97-19 02:183:255:2973,0.248,-0.071,1.378,-292.847,-123.413,25.879,22.736,15.249,120.306
 14:40:38.766,eb:33:2e:f9:57:b5, 2085-97-222 01:241:255:3133,0.168,-0.014,1.497,-291.992,-123.657,19.104,19.77,14.013,120.114
 14:40:38.766,eb:33:2e:f9:57:b5, 2085-113-81 00:113:64:078,0.22,-0.037,1.611,-288.757,-121.216,16.602,16.809,12.783,119.921
 14:40:38.766,eb:33:2e:f9:57:b5, 2085-97-146 01:192:255:3377,0.172,-0.015,1.591,-286.682,-120.056,16.479,15.359,12.178,119.844
 14:40:38.766,eb:33:2e:f9:57:b5, 2085-97-102 01:206:255:3574,0.168,-0.034,1.687,-279.114,-119.69,19.043,12.519,10.975,119.778
 14:40:38.794,eb:33:2e:f9:57:b5, 2085-97-99 01:215:255:3729,0.179,-0.02,1.785,-270.325,-119.08,25.696,9.75,9.756,119.8
 14:40:38.794,eb:33:2e:f9:57:b5, 2085-97-83 01:206:255:3763,0.237,-0.023,1.857,-261.658,-121.521,34.851,7.114,8.525,119.987
 14:40:38.794,eb:33:2e:f9:57:b5, 2085-97-21 02:214:255:3945,0.291,-0.026,1.883,-254.456,-129.883,45.776,4.532,7.224,120.3
 14:40:38.794,eb:33:2e:f9:57:b5, 2085-97-139 02:233:255:3995,0.344,-0.014,1.955,-252.075,-141.113,55.42,2.027,5.845,120.795
 14:40:38.855,eb:33:2e:f9:57:b5, 2085-97-22 03:245:255:4216,0.413,-0.007,1.987,-257.202,-155.945,64.88,-0.527,4.356,121.415
 14:40:38.863,eb:33:2e:f9:57:b5, 2085-97-104 03:15:00:4566,0.437,-0.001,2.134,-267.7,-173.096,73.486,-3.159,2.747,122.234
 14:40:38.863,eb:33:2e:f9:57:b5, 2085-97-131 03:70:00:4996,0.429,0.021,2.336,-282.104,-190.369,81.665,-5.971,1,123.195
 14:40:38.863,eb:33:2e:f9:57:b5, 2085-97-74 03:146:00:5423,0.407,0.045,2.544,-298.218,-202.515,91.248,-8.959,-0.824,124.387
 14:40:38.885,eb:33:2e:f9:57:b5, 2085-97-79 03:18:02:5825,0.357,0.136,2.756,-311.462,-205.2,102.783,-12.184,-2.637,125.766
 14:40:38.885,eb:33:2e:f9:57:b5, 2085-97-04 02:216:04:5181,0.307,0.424,2.818,-312.927,-192.688,110.474,-15.535,-4.279,127.375
 14:40:38.885,eb:33:2e:f9:57:b5, 2085-97-77 03:123:10:3912,0.466,0.907,2.151,-282.227,-214.6,92.346,-18.792,-5.856,129.001
 14:40:38.885,eb:33:2e:f9:57:b5, 2085-97-17 03:08:16:4803,0.225,1.728,1.942,-249.207,-282.654,53.04,-21.725,-7.932,130.616
 14:40:38.915,eb:33:2e:f9:57:b5, 2085-97-243 00:54:19:6509,-0.041,2.178,2.82,-222.656,-289.246,16.846,-24.45,-10.497,132.16
 14:40:38.915,eb:33:2e:f9:57:b5, 2085-97-49 253:236:27:5035,-0.838,2.904,3.062,-194.092,-198.12,-15.137,-26.829,-12.689,133.308
 14:40:38.916,eb:33:2e:f9:57:b5, 2085-97-77 245:32:36:2574,-1.794,4.076,1.691,-169.25,-162.292,-51.697,-28.823,-14.343,133.846
 14:40:38.916,eb:33:2e:f9:57:b5, 2085-97-203 238:64:36:4396,-2.355,4.688,1.422,-112.122,-197.449,-83.618,-30.35,-16.265,134.193
 14:40:38.975,eb:33:2e:f9:57:b5, 2085-97-235 237:128:27:7683,-2.151,4.045,3.014,-15.564,-153.381,-89.905,-31.053,-18.303,134.423
 14:40:38.975,eb:33:2e:f9:57:b5, 2085-97-111 241:213:18:5892,-1.374,2.91,3.511,62.134,26.611,-62.256,-30.586,-19.193,134.044
 14:40:38.975,eb:33:2e:f9:57:b5, 2085-97-114 248:172:13:4123,-0.514,1.95,2.464,90.82,163.269,-28.809,-29.372,-18.501,133.033
 14:40:38.975,eb:33:2e:f9:57:b5, 2085-97-09 03:68:06:10841,0.054,1.571,1.618,92.346,210.632,-12.878,-27.993,-16.859,131.814
 14:40:39.066,eb:33:2e:f9:57:b5, 2085-97-111 03:227:253:1506,0.755,-0.247,4.484,160.095,340.149,18.982,-26.109,-14.458,130.364
 14:40:39.066,eb:33:2e:f9:57:b5, 2085-97-65 08:89:250:1751,0.341,-0.357,0.401,113.586,311.218,37.537,-24.39,-11.459,129.15
 14:40:39.066,eb:33:2e:f9:57:b5, 2085-97-45 00:247:236:1643,-0.102,-1.152,0.488,141.602,218.689,57.861,-22.939,-8.86,128.458
 14:40:39.066,eb:33:2e:f9:57:b5, 2085-97-51 254:62:245:2102,-0.208,-1.671,0.925,196.594,133.301,74.829,-21.237,-7.075,128.403
 14:40:39.068,eb:33:2e:f9:57:b5, 2085-97-50 254:25:252:2922,-0.247,-0.945,1.176,261.047,89.783,70.923,-18.929,-5.812,128.699
 14:40:39.068,eb:33:2e:f9:57:b5, 2085-97-17 254:61:02:2678,-0.405,0.006,1.449,259.644,98.45,62.561,-16.326,-4.735,129.034
 14:40:39.068,eb:33:2e:f9:57:b5, 2085-97-163 251:197:03:1642,-0.502,0.376,0.89,219.177,107.361,53.04,-13.975,-3.499,129.293
 14:40:39.068,eb:33:2e:f9:57:b5, 2085-97-118 253:13:03:2044,-0.146,0.439,0.823,163.757,64.148,28.809,-12.107,-2.571,129.468
 14:40:39.072,eb:33:2e:f9:57:b5, 2085-97-80 255:68:255:2196,-0.07,0.169,1.083,129.761,31.067,-2.258,-10.679,-2.115,129.468
 14:40:39.072,eb:33:2e:f9:57:b5, 2085-97-80 00:172:253:2161,0.208,-0.256,0.982,132.019,14.404,-15.259,-9.371,-1.917,129.353
 14:40:39.072,eb:33:2e:f9:57:b5, 2085-97-116 02:10:255:2369,0.299,-0.191,1.141,129.761,8.301,-10.803,-8.015,-1.851,129.188
 14:40:39.072,eb:33:2e:f9:57:b5, 2085-97-147 01:121:255:2132,0.13,-0.08,1.113,111.206,30.64,6.104,-6.817,-1.653,129.177
 14:40:39.157,eb:33:2e:f9:57:b5, 2085-97-70 01:34:02:2214,0.197,0.139,1.095,84.839,37.842,11.963,-5.812,-1.252,129.232
 14:40:39.157,eb:33:2e:f9:57:b5, 2085-97-214 00:125:01:2093,-0.012,0.215,1.072,53.284,39.795,0.793,-5.158,-0.873,129.282
 14:40:39.157,eb:33:2e:f9:57:b5, 2085-97-193 255:211:255:1893,0.019,0.101,0.94,38.452,32.837,-10.803,-4.702,-0.494,129.166
 14:40:39.157,eb:33:2e:f9:57:b5, 2085-97-186 00:86:255:2070,0.106,-0.091,0.959,33.813,22.766,-8.545,-4.334,-0.242,129.067
 14:40:39.159,eb:33:2e:f9:57:b5, 2085-97-122 00:50:00:2035,-0.009,-0.013,1.036,28.503,25.635,-5.615,-4.005,0,128.974
 14:40:39.159,eb:33:2e:f9:57:b5, 2085-97-193 255:181:255:1944,0.014,0.007,0.957,22.766,21.362,-7.507,-3.746,0.236,128.925
 14:40:39.159,eb:33:2e:f9:57:b5, 2085-97-150 00:106:255:2098,0.083,-0.073,0.981,21.362,15.32,-5.92,-3.516,0.412,128.826
 14:40:39.159,eb:33:2e:f9:57:b5, 2085-97-114 00:175:255:2092,0.019,-0.055,1.037,20.203,18.616,-3.662,-3.301,0.577,128.804
 14:40:39.277,eb:33:2e:f9:57:b5, 2085-97-14 00:101:255:2042,0.02,-0.052,1.005,18.616,18.127,-1.953,-3.098,0.769,128.749
 14:40:39.277,eb:33:2e:f9:57:b5, 2085-97-91 00:119:255:2114,0.061,-0.079,1.013,19.287,14.771,0,-2.906,0.928,128.765
 14:40:39.277,eb:33:2e:f9:57:b5, 2085-97-119 00:170:255:2102,0.039,-0.056,1.041,20.02,15.503,0,-2.697,1.088,128.743
 14:40:39.277,eb:33:2e:f9:57:b5, 2085-97-31 00:150:255:2022,-0.002,-0.043,1.01,19.165,16.235,-0.061,-2.499,1.247,128.765
 14:40:39.277,eb:33:2e:f9:57:b5, 2085-97-00 00:132:255:2017,0.014,-0.061,0.976,19.409,13.123,0,-2.302,1.406,128.749
 14:40:39.277,eb:33:2e:f9:57:b5, 2085-97-52 00:130:255:2094,0.04,-0.058,1.001,20.752,9.46,-0.549,-2.093,1.511,128.771
 14:40:39.277,eb:33:2e:f9:57:b5, 2085-97-92 00:147:255:2136,0.042,-0.058,1.04,22.095,9.583,-0.244,-1.873,1.615,128.754
 14:40:39.277,eb:33:2e:f9:57:b5, 2085-97-89 00:169:255:2116,0.04,-0.05,1.038,23.071,11.047,-0.122,-1.642,1.719,128.782
 14:40:39.281,eb:33:2e:f9:57:b5, 2085-97-67 00:196:255:2051,0.034,-0.035,1.02,22.4,13.672,-0.061,-1.406,1.851,128.765
 14:40:39.281,eb:33:2e:f9:57:b5, 2085-97-70 00:238:255:1992,0.024,-0.016,0.986,20.203,15.198,0.488,-1.192,1.994,128.793
 14:40:39.281,eb:33:2e:f9:57:b5, 2085-97-16 00:204:255:1968,0.01,-0.014,0.968,17.761,15.381,0.366,-0.994,2.159,128.782
 14:40:39.281,eb:33:2e:f9:57:b5, 2085-97-12 00:224:255:1968,-0.003,-0.019,0.958,15.503,14.038,0.854,-0.824,2.307,128.815
 14:40:39.305,eb:33:2e:f9:57:b5, 2085-97-252 255:217:255:1971,-0.002,-0.023,0.956,13.672,12.207,1.282,-0.67,2.45,128.815
 14:40:39.305,eb:33:2e:f9:57:b5, 2085-97-245 255:212:255:1961,-0.001,-0.025,0.961,12.268,10.132,1.953,-0.538,2.56,128.859
 14:40:39.305,eb:33:2e:f9:57:b5, 2085-97-246 255:211:255:1962,-0.004,-0.018,0.96,10.986,7.935,2.319,-0.417,2.659,128.87
 14:40:39.305,eb:33:2e:f9:57:b5, 2085-97-33 00:247:255:2007,0.016,-0.02,0.964,10.01,5.737,2.991,-0.313,2.725,128.93
 14:40:39.396,eb:33:2e:f9:57:b5, 2085-97-36 00:230:255:2029,0.021,-0.012,0.987,10.132,5.188,2.441,-0.203,2.791,128.947
 14:40:39.396,eb:33:2e:f9:57:b5, 2085-97-34 00:242:255:2026,0.014,-0.013,0.996,10.01,5.493,2.258,-0.099,2.84,129.001
 14:40:39.396,eb:33:2e:f9:57:b5, 2085-97-25 00:247:255:2015,0.008,-0.008,0.992,9.827,5.92,1.892,0.005,2.906,129.012
