Time,Device name,Chip Time(),Acceleration X(g),Acceleration Y(g),Acceleration Z(g),Angular velocity X(°/s),Angular velocity Y(°/s),Angular velocity Z(°/s),ShiftX(mm),ShiftY(mm),ShiftZ(mm),SpeedX(mm/s),SpeedY(mm/s),SpeedZ(mm/s),Angle X(°),Angle Y(°),Angle Z(°)
 12:17:49.263,eb:33:2e:f9:57:b5, 2015-01-01 00:04:07.125,-0.011,-0.024,0.996,0,0,0.061, , , , , , ,-1.747,0.379,-119.251
 12:17:49.263,eb:33:2e:f9:57:b5, 2015-01-01 00:04:07.125,-0.011,-0.023,0.996,0,0,0.061, , , , , , ,-1.752,0.379,-119.229
 12:17:49.263,eb:33:2e:f9:57:b5, 2015-01-01 00:04:07.125,-0.011,-0.024,0.996,0,0,0.122, , , , , , ,-1.752,0.379,-119.229
 12:17:49.263,eb:33:2e:f9:57:b5, 2015-01-01 00:04:07.125,-0.01,-0.024,0.996,0,-0.061,0.122, , , , , , ,-1.747,0.385,-119.229
 12:17:49.263,eb:33:2e:f9:57:b5, 2015-01-01 00:04:07.125,-0.01,-0.023,0.997,0.061,-0.122,0.061, , , , , , ,-1.747,0.385,-119.229
 12:17:49.263,eb:33:2e:f9:57:b5, 2015-01-01 00:04:07.125,-0.011,-0.024,0.998,0.061,0,0.061, , , , , , ,-1.752,0.379,-119.207
 12:17:49.263,eb:33:2e:f9:57:b5, 2015-01-01 00:04:07.125,-0.01,-0.025,0.997,0,-0.061,0.061, , , , , , ,-1.752,0.379,-119.207
 12:17:49.263,eb:33:2e:f9:57:b5, 2015-01-01 00:04:07.125,-0.011,-0.024,0.996,0.061,-0.061,0.061, , , , , , ,-1.747,0.385,-119.207
 12:17:49.309,eb:33:2e:f9:57:b5, 2015-01-01 00:04:07.125,-0.011,-0.025,0.996,0.061,-0.061,0, , , , , , ,-1.747,0.385,-119.207
 12:17:49.309,eb:33:2e:f9:57:b5, 2015-01-01 00:04:07.125,-0.01,-0.024,0.997,0,0,0.061, , , , , , ,-1.752,0.385,-119.185
 12:17:49.309,eb:33:2e:f9:57:b5, 2015-01-01 00:04:07.125,-0.011,-0.024,0.998,0.061,0,0.061, , , , , , ,-1.752,0.385,-119.185
 12:17:49.309,eb:33:2e:f9:57:b5, 2015-01-01 00:04:07.125,-0.011,-0.024,0.997,0.061,-0.061,0.061, , , , , , ,-1.752,0.385,-119.185
 12:17:49.309,eb:33:2e:f9:57:b5, 2015-01-01 00:04:07.125,-0.011,-0.024,0.997,0.061,0,0.061, , , , , , ,-1.752,0.385,-119.185
 12:17:49.309,eb:33:2e:f9:57:b5, 2015-01-01 00:04:07.125,-0.011,-0.024,0.997,0.061,0,0, , , , , , ,-1.752,0.385,-119.163
 12:17:49.309,eb:33:2e:f9:57:b5, 2015-01-01 00:04:07.125,-0.009,-0.025,0.997,0.061,-0.061,0.061, , , , , , ,-1.752,0.385,-119.163
 12:17:49.309,eb:33:2e:f9:57:b5, 2015-01-01 00:04:07.125,-0.01,-0.024,0.997,0.061,-0.061,0.061, , , , , , ,-1.752,0.385,-119.163
 12:17:49.353,eb:33:2e:f9:57:b5, 2015-01-01 00:04:07.435,-0.01,-0.024,0.997,0.061,0,0.122, , , , , , ,-1.752,0.385,-119.163
 12:17:49.353,eb:33:2e:f9:57:b5, 2015-01-01 00:04:07.435,-0.011,-0.024,0.997,0.061,0,0.061, , , , , , ,-1.752,0.385,-119.141
 12:17:49.353,eb:33:2e:f9:57:b5, 2015-01-01 00:04:07.435,-0.011,-0.024,0.997,0.061,0,0.122, , , , , , ,-1.752,0.385,-119.141
 12:17:49.353,eb:33:2e:f9:57:b5, 2015-01-01 00:04:07.435,-0.01,-0.024,0.997,0.061,0,0.061, , , , , , ,-1.752,0.385,-119.141
 12:17:49.353,eb:33:2e:f9:57:b5, 2015-01-01 00:04:07.435,-0.01,-0.024,0.997,0.061,0.061,0.061, , , , , , ,-1.752,0.385,-119.141
 12:17:49.353,eb:33:2e:f9:57:b5, 2015-01-01 00:04:07.435,-0.011,-0.024,0.997,0.061,0,0.061, , , , , , ,-1.752,0.385,-119.125
 12:17:49.353,eb:33:2e:f9:57:b5, 2015-01-01 00:04:07.435,-0.011,-0.023,0.996,0,0,0.061, , , , , , ,-1.752,0.385,-119.125
 12:17:49.353,eb:33:2e:f9:57:b5, 2015-01-01 00:04:07.435,-0.01,-0.024,0.997,0,0.061,0.061, , , , , , ,-1.752,0.385,-119.119
 12:17:49.399,eb:33:2e:f9:57:b5, 2015-01-01 00:04:07.435,-0.01,-0.023,0.997,0,0.122,0, , , , , , ,-1.752,0.385,-119.119
 12:17:49.399,eb:33:2e:f9:57:b5, 2015-01-01 00:04:07.435,-0.011,-0.023,0.997,0,0.122,0, , , , , , ,-1.752,0.385,-119.103
 12:17:49.399,eb:33:2e:f9:57:b5, 2015-01-01 00:04:07.435,-0.01,-0.023,0.996,0,0.122,0.061, , , , , , ,-1.752,0.385,-119.103
 12:17:49.399,eb:33:2e:f9:57:b5, 2015-01-01 00:04:07.435,-0.01,-0.024,0.996,0,0.061,0, , , , , , ,-1.752,0.385,-119.103
 12:17:49.399,eb:33:2e:f9:57:b5, 2015-01-01 00:04:07.435,-0.011,-0.024,0.996,0,0.122,0, , , , , , ,-1.752,0.385,-119.103
 12:17:49.399,eb:33:2e:f9:57:b5, 2015-01-01 00:04:07.435,-0.011,-0.025,0.995,0,0.122,0, , , , , , ,-1.758,0.385,-119.081
 12:17:49.399,eb:33:2e:f9:57:b5, 2015-01-01 00:04:07.435,-0.011,-0.024,0.996,-0.061,0.061,0.061, , , , , , ,-1.758,0.385,-119.081
 12:17:49.399,eb:33:2e:f9:57:b5, 2015-01-01 00:04:07.435,-0.011,-0.024,0.997,0,0.061,0, , , , , , ,-1.752,0.385,-119.081
 12:17:49.421,eb:33:2e:f9:57:b5, 2015-01-01 00:04:07.435,-0.011,-0.024,0.997,0,0.122,0, , , , , , ,-1.752,0.385,-119.081
 12:17:49.421,eb:33:2e:f9:57:b5, 2015-01-01 00:04:07.435,-0.011,-0.024,0.997,0,0.183,0, , , , , , ,-1.758,0.385,-119.059
 12:17:49.421,eb:33:2e:f9:57:b5, 2015-01-01 00:04:07.435,-0.012,-0.024,0.997,-0.061,0.183,0, , , , , , ,-1.758,0.385,-119.059
 12:17:49.421,eb:33:2e:f9:57:b5, 2015-01-01 00:04:07.435,-0.011,-0.024,0.997,0,0.183,0.061, , , , , , ,-1.752,0.385,-119.059
 12:17:49.421,eb:33:2e:f9:57:b5, 2015-01-01 00:04:07.435,-0.012,-0.024,0.997,0,0.183,0, , , , , , ,-1.752,0.385,-119.059
 12:17:49.421,eb:33:2e:f9:57:b5, 2015-01-01 00:04:07.435,-0.012,-0.025,0.997,0,0.183,0, , , , , , ,-1.758,0.385,-119.037
 12:17:49.421,eb:33:2e:f9:57:b5, 2015-01-01 00:04:07.435,-0.011,-0.024,0.997,0,0.122,0, , , , , , ,-1.758,0.385,-119.037
 12:17:49.421,eb:33:2e:f9:57:b5, 2015-01-01 00:04:07.435,-0.011,-0.025,0.997,0,0.183,0, , , , , , ,-1.752,0.39,-119.037
 12:17:49.465,eb:33:2e:f9:57:b5, 2015-01-01 00:04:07.435,-0.011,-0.025,0.997,0,0.122,0.061, , , , , , ,-1.752,0.39,-119.037
 12:17:49.465,eb:33:2e:f9:57:b5, 2015-01-01 00:04:07.435,-0.011,-0.025,0.997,0,0.122,0, , , , , , ,-1.758,0.385,-119.015
 12:17:49.465,eb:33:2e:f9:57:b5, 2015-01-01 00:04:07.435,-0.011,-0.024,0.997,0,0.122,0, , , , , , ,-1.758,0.385,-119.015
 12:17:49.465,eb:33:2e:f9:57:b5, 2015-01-01 00:04:07.435,-0.011,-0.024,0.997,0,0.122,0.061, , , , , , ,-1.758,0.39,-119.015
 12:17:49.465,eb:33:2e:f9:57:b5, 2015-01-01 00:04:07.435,-0.011,-0.024,0.997,0,0.122,0, , , , , , ,-1.758,0.39,-119.015
 12:17:49.465,eb:33:2e:f9:57:b5, 2015-01-01 00:04:07.435,-0.011,-0.024,0.996,0,0.122,0.061, , , , , , ,-1.758,0.39,-118.993
 12:17:49.465,eb:33:2e:f9:57:b5, 2015-01-01 00:04:07.435,-0.011,-0.024,0.996,0,0.061,0.061, , , , , , ,-1.758,0.39,-118.993
 12:17:49.465,eb:33:2e:f9:57:b5, 2015-01-01 00:04:07.435,-0.011,-0.024,0.997,0,0.061,0.061, , , , , , ,-1.758,0.39,-118.993
 12:17:49.511,eb:33:2e:f9:57:b5, 2015-01-01 00:04:07.435,-0.011,-0.024,0.997,0,0.061,0.061, , , , , , ,-1.758,0.39,-118.993
 12:17:49.511,eb:33:2e:f9:57:b5, 2015-01-01 00:04:07.435,-0.011,-0.024,0.996,0,0.061,0.061, , , , , , ,-1.758,0.39,-118.976
 12:17:49.511,eb:33:2e:f9:57:b5, 2015-01-01 00:04:07.435,-0.011,-0.023,0.997,0,0.061,0, , , , , , ,-1.758,0.39,-118.976
 12:17:49.511,eb:33:2e:f9:57:b5, 2015-01-01 00:04:07.435,-0.011,-0.024,0.997,0,0.061,0, , , , , , ,-1.758,0.39,-118.976
 12:17:49.511,eb:33:2e:f9:57:b5, 2015-01-01 00:04:07.435,-0.011,-0.024,0.996,0,0.061,0, , , , , , ,-1.758,0.39,-118.976
 12:17:49.512,eb:33:2e:f9:57:b5, 2015-01-01 00:04:07.435,-0.011,-0.024,0.996,0,0.061,0, , , , , , ,-1.758,0.39,-118.954
 12:17:49.512,eb:33:2e:f9:57:b5, 2015-01-01 00:04:07.435,-0.011,-0.024,0.996,0,0.061,0, , , , , , ,-1.758,0.39,-118.954
 12:17:49.512,eb:33:2e:f9:57:b5, 2015-01-01 00:04:07.435,-0.011,-0.024,0.996,0,0.061,0, , , , , , ,-1.758,0.39,-118.954
 12:17:49.577,eb:33:2e:f9:57:b5, 2015-01-01 00:04:07.435,-0.012,-0.024,0.996,0,0,0, , , , , , ,-1.758,0.39,-118.954
 12:17:49.577,eb:33:2e:f9:57:b5, 2015-01-01 00:04:07.435,-0.011,-0.024,0.996,0,0.061,0, , , , , , ,-1.758,0.39,-118.932
 12:17:49.577,eb:33:2e:f9:57:b5, 2015-01-01 00:04:07.435,-0.011,-0.024,0.996,0,0,0.061, , , , , , ,-1.758,0.39,-118.932
 12:17:49.577,eb:33:2e:f9:57:b5, 2015-01-01 00:04:07.435,-0.011,-0.024,0.996,0,0,0, , , , , , ,-1.758,0.39,-118.932
 12:17:49.577,eb:33:2e:f9:57:b5, 2015-01-01 00:04:07.435,-0.011,-0.024,0.997,0,0,0.061, , , , , , ,-1.758,0.39,-118.932
 12:17:49.577,eb:33:2e:f9:57:b5, 2015-01-01 00:04:07.435,-0.011,-0.024,0.997,0,0,0, , , , , , ,-1.758,0.39,-118.911
 12:17:49.577,eb:33:2e:f9:57:b5, 2015-01-01 00:04:07.435,-0.011,-0.024,0.997,0,0,0.061, , , , , , ,-1.758,0.39,-118.911
 12:17:49.577,eb:33:2e:f9:57:b5, 2015-01-01 00:04:07.435,-0.011,-0.024,0.998,0,0.061,0.061, , , , , , ,-1.758,0.39,-118.911
 12:17:49.602,eb:33:2e:f9:57:b5, 2015-01-01 00:04:07.435,-0.011,-0.025,0.998,0,0,0.061, , , , , , ,-1.758,0.39,-118.911
 12:17:49.602,eb:33:2e:f9:57:b5, 2015-01-01 00:04:07.435,-0.011,-0.025,0.997,0,0,0.061, , , , , , ,-1.763,0.39,-118.894
 12:17:49.602,eb:33:2e:f9:57:b5, 2015-01-01 00:04:07.435,-0.011,-0.024,0.997,0.061,0.061,0, , , , , , ,-1.763,0.39,-118.894
 12:17:49.602,eb:33:2e:f9:57:b5, 2015-01-01 00:04:07.435,-0.011,-0.024,0.996,0,0,0, , , , , , ,-1.758,0.39,-118.889
 12:17:49.602,eb:33:2e:f9:57:b5, 2015-01-01 00:04:07.435,-0.011,-0.024,0.996,0.061,0.061,0, , , , , , ,-1.758,0.39,-118.889
 12:17:49.603,eb:33:2e:f9:57:b5, 2015-01-01 00:04:07.435,-0.01,-0.025,0.996,0.061,0.061,0.061, , , , , , ,-1.763,0.39,-118.872
 12:17:49.603,eb:33:2e:f9:57:b5, 2015-01-01 00:04:07.435,-0.011,-0.025,0.996,0.061,0.122,0, , , , , , ,-1.763,0.39,-118.872
 12:17:49.603,eb:33:2e:f9:57:b5, 2015-01-01 00:04:07.435,-0.011,-0.025,0.997,0.061,0.061,0.061, , , , , , ,-1.758,0.396,-118.872
 12:17:49.624,eb:33:2e:f9:57:b5, 2015-01-01 00:04:07.435,-0.011,-0.024,0.997,0,0.061,0, , , , , , ,-1.758,0.396,-118.872
 12:17:49.624,eb:33:2e:f9:57:b5, 2015-01-01 00:04:07.435,-0.011,-0.024,0.996,0,0.061,0.061, , , , , , ,-1.763,0.39,-118.85
 12:17:49.624,eb:33:2e:f9:57:b5, 2015-01-01 00:04:07.435,-0.011,-0.024,0.996,0.061,0.122,0, , , , , , ,-1.763,0.39,-118.85
 12:17:49.624,eb:33:2e:f9:57:b5, 2015-01-01 00:04:07.435,-0.011,-0.023,0.997,0.061,0.122,0.061, , , , , , ,-1.758,0.396,-118.85
 12:17:49.624,eb:33:2e:f9:57:b5, 2015-01-01 00:04:07.435,-0.01,-0.025,0.997,0.061,0.122,0.061, , , , , , ,-1.758,0.396,-118.85
 12:17:49.624,eb:33:2e:f9:57:b5, 2015-01-01 00:04:07.435,-0.011,-0.024,0.996,0.061,0.061,0, , , , , , ,-1.763,0.396,-118.828
 12:17:49.624,eb:33:2e:f9:57:b5, 2015-01-01 00:04:07.435,-0.011,-0.024,0.997,0.122,0.061,0, , , , , , ,-1.763,0.396,-118.828
 12:17:49.624,eb:33:2e:f9:57:b5, 2015-01-01 00:04:07.435,-0.011,-0.025,0.997,0.061,0.061,0, , , , , , ,-1.763,0.396,-118.828
 12:17:49.669,eb:33:2e:f9:57:b5, 2015-01-01 00:04:07.750,-0.011,-0.025,0.997,0.061,0.122,0, , , , , , ,-1.763,0.396,-118.828
 12:17:49.669,eb:33:2e:f9:57:b5, 2015-01-01 00:04:07.750,-0.011,-0.023,0.996,0.061,0,0.061, , , , , , ,-1.763,0.396,-118.812
 12:17:49.669,eb:33:2e:f9:57:b5, 2015-01-01 00:04:07.750,-0.01,-0.024,0.996,0.061,0.061,0.122, , , , , , ,-1.763,0.396,-118.812
 12:17:49.669,eb:33:2e:f9:57:b5, 2015-01-01 00:04:07.750,-0.01,-0.025,0.996,0.122,0.061,0.061, , , , , , ,-1.763,0.396,-118.812
 12:17:49.669,eb:33:2e:f9:57:b5, 2015-01-01 00:04:07.750,-0.011,-0.024,0.996,0.061,0.061,0, , , , , , ,-1.763,0.396,-118.812
 12:17:49.669,eb:33:2e:f9:57:b5, 2015-01-01 00:04:07.750,-0.011,-0.025,0.997,0.061,0.061,0.061, , , , , , ,-1.763,0.396,-118.79
 12:17:49.669,eb:33:2e:f9:57:b5, 2015-01-01 00:04:07.750,-0.011,-0.024,0.997,0.061,0.061,0, , , , , , ,-1.763,0.396,-118.79
 12:17:49.669,eb:33:2e:f9:57:b5, 2015-01-01 00:04:07.750,-0.011,-0.024,0.997,0.061,0.061,0, , , , , , ,-1.763,0.396,-118.79
 12:17:49.713,eb:33:2e:f9:57:b5, 2015-01-01 00:04:07.750,-0.01,-0.024,0.996,0.061,0.061,0.061, , , , , , ,-1.763,0.396,-118.79
 12:17:49.713,eb:33:2e:f9:57:b5, 2015-01-01 00:04:07.750,-0.011,-0.024,0.996,0,0.061,0, , , , , , ,-1.763,0.396,-118.768
 12:17:49.713,eb:33:2e:f9:57:b5, 2015-01-01 00:04:07.750,-0.011,-0.023,0.997,0.061,0.061,0.061, , , , , , ,-1.763,0.396,-118.768
 12:17:49.713,eb:33:2e:f9:57:b5, 2015-01-01 00:04:07.750,-0.011,-0.024,0.996,0.061,0.061,0, , , , , , ,-1.763,0.396,-118.768
 12:17:49.714,eb:33:2e:f9:57:b5, 2015-01-01 00:04:07.750,-0.012,-0.024,0.996,0.061,0.061,0.061, , , , , , ,-1.763,0.396,-118.768
 12:17:49.714,eb:33:2e:f9:57:b5, 2015-01-01 00:04:07.750,-0.011,-0.024,0.996,0.061,0.061,0.061, , , , , , ,-1.763,0.396,-118.751
 12:17:49.714,eb:33:2e:f9:57:b5, 2015-01-01 00:04:07.750,-0.011,-0.023,0.997,0,0.061,0, , , , , , ,-1.763,0.396,-118.751
 12:17:49.714,eb:33:2e:f9:57:b5, 2015-01-01 00:04:07.750,-0.011,-0.024,0.996,0,0,0, , , , , , ,-1.763,0.396,-118.746
 12:17:49.760,eb:33:2e:f9:57:b5, 2015-01-01 00:04:07.750,-0.011,-0.024,0.997,0,0.061,0.061, , , , , , ,-1.763,0.396,-118.746
 12:17:49.760,eb:33:2e:f9:57:b5, 2015-01-01 00:04:07.750,-0.011,-0.024,0.997,0,0.061,0, , , , , , ,-1.763,0.396,-118.729
 12:17:49.760,eb:33:2e:f9:57:b5, 2015-01-01 00:04:07.750,-0.011,-0.024,0.996,0,0.061,0, , , , , , ,-1.763,0.396,-118.729
 12:17:49.760,eb:33:2e:f9:57:b5, 2015-01-01 00:04:07.750,-0.01,-0.023,0.997,0,0.122,0, , , , , , ,-1.763,0.396,-118.729
 12:17:49.760,eb:33:2e:f9:57:b5, 2015-01-01 00:04:07.750,-0.01,-0.023,0.996,0,0.122,0, , , , , , ,-1.763,0.396,-118.729
 12:17:49.760,eb:33:2e:f9:57:b5, 2015-01-01 00:04:07.750,-0.011,-0.023,0.997,0,0.061,0, , , , , , ,-1.763,0.396,-118.707
 12:17:49.760,eb:33:2e:f9:57:b5, 2015-01-01 00:04:07.750,-0.011,-0.024,0.997,0,0.061,0, , , , , , ,-1.763,0.396,-118.707
 12:17:49.761,eb:33:2e:f9:57:b5, 2015-01-01 00:04:07.750,-0.011,-0.024,0.996,0,0.122,0, , , , , , ,-1.763,0.396,-118.707
 12:17:49.804,eb:33:2e:f9:57:b5, 2015-01-01 00:04:07.750,-0.011,-0.024,0.996,0,0.122,0, , , , , , ,-1.763,0.396,-118.707
 12:17:49.804,eb:33:2e:f9:57:b5, 2015-01-01 00:04:07.750,-0.011,-0.024,0.997,0,0.122,0, , , , , , ,-1.769,0.396,-118.691
 12:17:49.804,eb:33:2e:f9:57:b5, 2015-01-01 00:04:07.750,-0.011,-0.024,0.997,0,0.122,0, , , , , , ,-1.769,0.396,-118.691
 12:17:49.804,eb:33:2e:f9:57:b5, 2015-01-01 00:04:07.750,-0.011,-0.024,0.996,0,0.061,0, , , , , , ,-1.763,0.401,-118.691
 12:17:49.804,eb:33:2e:f9:57:b5, 2015-01-01 00:04:07.750,-0.011,-0.024,0.996,0,0.061,0, , , , , , ,-1.763,0.401,-118.691
 12:17:49.804,eb:33:2e:f9:57:b5, 2015-01-01 00:04:07.750,-0.011,-0.024,0.997,0,0.061,0, , , , , , ,-1.769,0.396,-118.669
 12:17:49.804,eb:33:2e:f9:57:b5, 2015-01-01 00:04:07.750,-0.011,-0.024,0.997,-0.061,0.061,0, , , , , , ,-1.769,0.396,-118.669
 12:17:49.804,eb:33:2e:f9:57:b5, 2015-01-01 00:04:07.750,-0.011,-0.024,0.997,0,0,0, , , , , , ,-1.763,0.401,-118.669
 12:17:49.827,eb:33:2e:f9:57:b5, 2015-01-01 00:04:07.750,-0.011,-0.024,0.997,0,0,0, , , , , , ,-1.763,0.401,-118.669
 12:17:49.827,eb:33:2e:f9:57:b5, 2015-01-01 00:04:07.750,-0.011,-0.024,0.996,0,0,0.061, , , , , , ,-1.769,0.401,-118.647
 12:17:49.827,eb:33:2e:f9:57:b5, 2015-01-01 00:04:07.750,-0.012,-0.024,0.997,0,0,0, , , , , , ,-1.769,0.401,-118.647
 12:17:49.827,eb:33:2e:f9:57:b5, 2015-01-01 00:04:07.750,-0.011,-0.024,0.996,0,0,0, , , , , , ,-1.763,0.401,-118.647
 12:17:49.827,eb:33:2e:f9:57:b5, 2015-01-01 00:04:07.750,-0.011,-0.025,0.996,0,0,0, , , , , , ,-1.763,0.401,-118.647
 12:17:49.827,eb:33:2e:f9:57:b5, 2015-01-01 00:04:07.750,-0.011,-0.024,0.996,0,0,0.061, , , , , , ,-1.769,0.401,-118.63
 12:17:49.827,eb:33:2e:f9:57:b5, 2015-01-01 00:04:07.750,-0.011,-0.024,0.996,0.061,0,0.061, , , , , , ,-1.769,0.401,-118.63
 12:17:49.827,eb:33:2e:f9:57:b5, 2015-01-01 00:04:07.750,-0.011,-0.024,0.997,0,0,0, , , , , , ,-1.763,0.401,-118.63
 12:17:49.872,eb:33:2e:f9:57:b5, 2015-01-01 00:04:07.750,-0.011,-0.025,0.997,0.061,0,0, , , , , , ,-1.763,0.401,-118.63
 12:17:49.872,eb:33:2e:f9:57:b5, 2015-01-01 00:04:07.750,-0.011,-0.024,0.997,0,0,0, , , , , , ,-1.769,0.401,-118.608
 12:17:49.872,eb:33:2e:f9:57:b5, 2015-01-01 00:04:07.750,-0.011,-0.024,0.997,0,0,0, , , , , , ,-1.769,0.401,-118.608
 12:17:49.872,eb:33:2e:f9:57:b5, 2015-01-01 00:04:07.750,-0.011,-0.025,0.997,0.061,0,0.061, , , , , , ,-1.769,0.401,-118.608
 12:17:49.872,eb:33:2e:f9:57:b5, 2015-01-01 00:04:07.750,-0.011,-0.024,0.996,0,0,0.061, , , , , , ,-1.769,0.401,-118.608
 12:17:49.872,eb:33:2e:f9:57:b5, 2015-01-01 00:04:07.750,-0.011,-0.024,0.997,0,0,0.061, , , , , , ,-1.769,0.401,-118.592
 12:17:49.872,eb:33:2e:f9:57:b5, 2015-01-01 00:04:07.750,-0.01,-0.024,0.997,0.061,0,0.061, , , , , , ,-1.769,0.401,-118.592
 12:17:49.872,eb:33:2e:f9:57:b5, 2015-01-01 00:04:07.750,-0.011,-0.024,0.997,0,0,0, , , , , , ,-1.769,0.401,-118.586
 12:17:49.916,eb:33:2e:f9:57:b5, 2015-01-01 00:04:07.750,-0.011,-0.024,0.997,0,0,0.061, , , , , , ,-1.769,0.401,-118.586
 12:17:49.916,eb:33:2e:f9:57:b5, 2015-01-01 00:04:07.750,-0.011,-0.025,0.997,0,0,0, , , , , , ,-1.769,0.401,-118.57
 12:17:49.916,eb:33:2e:f9:57:b5, 2015-01-01 00:04:07.750,-0.011,-0.024,0.996,0,0,0, , , , , , ,-1.769,0.401,-118.57
 12:17:49.916,eb:33:2e:f9:57:b5, 2015-01-01 00:04:07.750,-0.011,-0.024,0.997,0,0,0.061, , , , , , ,-1.769,0.401,-118.57
 12:17:49.916,eb:33:2e:f9:57:b5, 2015-01-01 00:04:07.750,-0.011,-0.024,0.997,0,0,0, , , , , , ,-1.769,0.401,-118.57
 12:17:49.916,eb:33:2e:f9:57:b5, 2015-01-01 00:04:07.750,-0.011,-0.024,0.997,0,0.061,0.061, , , , , , ,-1.769,0.401,-118.548
 12:17:49.916,eb:33:2e:f9:57:b5, 2015-01-01 00:04:07.750,-0.01,-0.024,0.997,0,0,0, , , , , , ,-1.769,0.401,-118.548
 12:17:49.916,eb:33:2e:f9:57:b5, 2015-01-01 00:04:07.750,-0.01,-0.024,0.997,0,0,0.061, , , , , , ,-1.769,0.401,-118.548
 12:17:49.963,eb:33:2e:f9:57:b5, 2015-01-01 00:04:08.040,-0.01,-0.025,0.996,0,0,0.061, , , , , , ,-1.769,0.401,-118.548
 12:17:49.963,eb:33:2e:f9:57:b5, 2015-01-01 00:04:08.040,-0.012,-0.025,0.996,0,0.061,0.061, , , , , , ,-1.769,0.401,-118.531
 12:17:49.963,eb:33:2e:f9:57:b5, 2015-01-01 00:04:08.040,-0.011,-0.024,0.997,0,0.061,0.122, , , , , , ,-1.769,0.401,-118.531
 12:17:49.963,eb:33:2e:f9:57:b5, 2015-01-01 00:04:08.040,-0.011,-0.025,0.997,0,0,0.061, , , , , , ,-1.769,0.401,-118.531
 12:17:49.963,eb:33:2e:f9:57:b5, 2015-01-01 00:04:08.040,-0.011,-0.024,0.997,0,0.061,0, , , , , , ,-1.769,0.401,-118.531
 12:17:49.963,eb:33:2e:f9:57:b5, 2015-01-01 00:04:08.040,-0.011,-0.024,0.997,0,0.061,0, , , , , , ,-1.769,0.401,-118.51
 12:17:49.963,eb:33:2e:f9:57:b5, 2015-01-01 00:04:08.040,-0.01,-0.024,0.997,0,0.061,0.122, , , , , , ,-1.769,0.401,-118.51
 12:17:49.963,eb:33:2e:f9:57:b5, 2015-01-01 00:04:08.040,-0.011,-0.024,0.997,0,0.061,0.122, , , , , , ,-1.769,0.406,-118.51
 12:17:49.983,eb:33:2e:f9:57:b5, 2015-01-01 00:04:08.040,-0.011,-0.024,0.996,0,0.061,0.122, , , , , , ,-1.769,0.406,-118.51
 12:17:49.983,eb:33:2e:f9:57:b5, 2015-01-01 00:04:08.040,-0.011,-0.024,0.997,0,0.061,0.122, , , , , , ,-1.769,0.401,-118.493
 12:17:49.983,eb:33:2e:f9:57:b5, 2015-01-01 00:04:08.040,-0.011,-0.024,0.996,0,0.061,0.061, , , , , , ,-1.769,0.401,-118.493
 12:17:49.983,eb:33:2e:f9:57:b5, 2015-01-01 00:04:08.040,-0.011,-0.025,0.997,0,0,0.061, , , , , , ,-1.769,0.406,-118.493
 12:17:49.983,eb:33:2e:f9:57:b5, 2015-01-01 00:04:08.040,-0.011,-0.025,0.997,0,0.061,0.061, , , , , , ,-1.769,0.406,-118.493
 12:17:49.983,eb:33:2e:f9:57:b5, 2015-01-01 00:04:08.040,-0.011,-0.024,0.996,0,0.061,0.122, , , , , , ,-1.769,0.406,-118.471
 12:17:49.983,eb:33:2e:f9:57:b5, 2015-01-01 00:04:08.040,-0.011,-0.024,0.996,0,0.061,0.061, , , , , , ,-1.769,0.406,-118.471
 12:17:49.983,eb:33:2e:f9:57:b5, 2015-01-01 00:04:08.040,-0.011,-0.024,0.997,0,0.061,0.061, , , , , , ,-1.769,0.406,-118.471
 12:17:50.029,eb:33:2e:f9:57:b5, 2015-01-01 00:04:08.040,-0.011,-0.025,0.997,0.061,0,0.122, , , , , , ,-1.769,0.406,-118.471
 12:17:50.029,eb:33:2e:f9:57:b5, 2015-01-01 00:04:08.040,-0.011,-0.024,0.997,0,0,0.122, , , , , , ,-1.774,0.406,-118.455
 12:17:50.029,eb:33:2e:f9:57:b5, 2015-01-01 00:04:08.040,-0.011,-0.024,0.997,0.061,0.061,0.061, , , , , , ,-1.774,0.406,-118.455
 12:17:50.029,eb:33:2e:f9:57:b5, 2015-01-01 00:04:08.040,-0.01,-0.024,0.997,0.061,0,0.061, , , , , , ,-1.769,0.406,-118.455
 12:17:50.029,eb:33:2e:f9:57:b5, 2015-01-01 00:04:08.040,-0.01,-0.024,0.996,0,0.061,0.061, , , , , , ,-1.769,0.406,-118.455
 12:17:50.029,eb:33:2e:f9:57:b5, 2015-01-01 00:04:08.040,-0.01,-0.024,0.996,0,0,0.061, , , , , , ,-1.774,0.406,-118.433
 12:17:50.029,eb:33:2e:f9:57:b5, 2015-01-01 00:04:08.040,-0.011,-0.024,0.997,0,0.061,0.061, , , , , , ,-1.774,0.406,-118.433
 12:17:50.029,eb:33:2e:f9:57:b5, 2015-01-01 00:04:08.040,-0.01,-0.024,0.997,0.061,0.061,0.061, , , , , , ,-1.769,0.406,-118.433
 12:17:50.074,eb:33:2e:f9:57:b5, 2015-01-01 00:04:08.040,-0.01,-0.025,0.997,0.061,0.122,0, , , , , , ,-1.769,0.406,-118.433
 12:17:50.074,eb:33:2e:f9:57:b5, 2015-01-01 00:04:08.040,-0.011,-0.025,0.997,0,0.061,0, , , , , , ,-1.774,0.406,-118.416
 12:17:50.074,eb:33:2e:f9:57:b5, 2015-01-01 00:04:08.040,-0.011,-0.025,0.997,0,0.061,0, , , , , , ,-1.774,0.406,-118.416
 12:17:50.074,eb:33:2e:f9:57:b5, 2015-01-01 00:04:08.040,-0.01,-0.024,0.997,0,0.061,0, , , , , , ,-1.769,0.406,-118.416
 12:17:50.074,eb:33:2e:f9:57:b5, 2015-01-01 00:04:08.040,-0.01,-0.024,0.997,0,0.122,0, , , , , , ,-1.769,0.406,-118.416
 12:17:50.074,eb:33:2e:f9:57:b5, 2015-01-01 00:04:08.040,-0.011,-0.024,0.997,0,0.122,0, , , , , , ,-1.774,0.406,-118.394
 12:17:50.074,eb:33:2e:f9:57:b5, 2015-01-01 00:04:08.040,-0.011,-0.024,0.997,0.061,0.122,0, , , , , , ,-1.774,0.406,-118.394
 12:17:50.074,eb:33:2e:f9:57:b5, 2015-01-01 00:04:08.040,-0.011,-0.024,0.997,0,0.122,0, , , , , , ,-1.769,0.406,-118.394
 12:17:50.120,eb:33:2e:f9:57:b5, 2015-01-01 00:04:08.040,-0.011,-0.024,0.997,0,0.122,0, , , , , , ,-1.769,0.406,-118.394
 12:17:50.120,eb:33:2e:f9:57:b5, 2015-01-01 00:04:08.040,-0.01,-0.024,0.997,0,0.122,0, , , , , , ,-1.774,0.406,-118.378
 12:17:50.120,eb:33:2e:f9:57:b5, 2015-01-01 00:04:08.040,-0.011,-0.024,0.996,0,0.122,-0.061, , , , , , ,-1.774,0.406,-118.378
 12:17:50.120,eb:33:2e:f9:57:b5, 2015-01-01 00:04:08.040,-0.011,-0.024,0.997,0,0.183,-0.061, , , , , , ,-1.769,0.406,-118.378
 12:17:50.120,eb:33:2e:f9:57:b5, 2015-01-01 00:04:08.040,-0.011,-0.024,0.997,0,0.122,-0.061, , , , , , ,-1.769,0.406,-118.378
 12:17:50.120,eb:33:2e:f9:57:b5, 2015-01-01 00:04:08.040,-0.011,-0.024,0.997,0,0.183,-0.061, , , , , , ,-1.774,0.406,-118.361
 12:17:50.120,eb:33:2e:f9:57:b5, 2015-01-01 00:04:08.040,-0.01,-0.024,0.996,0,0.122,-0.061, , , , , , ,-1.774,0.406,-118.361
 12:17:50.120,eb:33:2e:f9:57:b5, 2015-01-01 00:04:08.040,-0.01,-0.024,0.996,0,0.122,0, , , , , , ,-1.774,0.406,-118.356
 12:17:50.164,eb:33:2e:f9:57:b5, 2015-01-01 00:04:08.040,-0.011,-0.024,0.996,0,0.061,-0.061, , , , , , ,-1.774,0.406,-118.356
 12:17:50.164,eb:33:2e:f9:57:b5, 2015-01-01 00:04:08.040,-0.01,-0.024,0.997,0.061,0.183,-0.061, , , , , , ,-1.774,0.406,-118.339
 12:17:50.164,eb:33:2e:f9:57:b5, 2015-01-01 00:04:08.040,-0.01,-0.024,0.997,0,0.122,-0.061, , , , , , ,-1.774,0.406,-118.339
 12:17:50.164,eb:33:2e:f9:57:b5, 2015-01-01 00:04:08.040,-0.011,-0.024,0.997,0,0.122,-0.061, , , , , , ,-1.774,0.406,-118.339
 12:17:50.164,eb:33:2e:f9:57:b5, 2015-01-01 00:04:08.040,-0.01,-0.024,0.997,0,0.122,-0.061, , , , , , ,-1.774,0.406,-118.339
 12:17:50.164,eb:33:2e:f9:57:b5, 2015-01-01 00:04:08.040,-0.01,-0.023,0.997,0,0.122,-0.061, , , , , , ,-1.774,0.406,-118.323
 12:17:50.164,eb:33:2e:f9:57:b5, 2015-01-01 00:04:08.040,-0.011,-0.024,0.996,0,0.122,-0.061, , , , , , ,-1.774,0.406,-118.323
 12:17:50.164,eb:33:2e:f9:57:b5, 2015-01-01 00:04:08.040,-0.011,-0.024,0.996,0,0.183,0, , , , , , ,-1.774,0.406,-118.323
 12:17:50.186,eb:33:2e:f9:57:b5, 2015-01-01 00:04:08.040,-0.011,-0.025,0.996,0,0.183,0, , , , , , ,-1.774,0.406,-118.323
 12:17:50.186,eb:33:2e:f9:57:b5, 2015-01-01 00:04:08.040,-0.011,-0.024,0.996,0,0.122,-0.061, , , , , , ,-1.774,0.406,-118.301
 12:17:50.186,eb:33:2e:f9:57:b5, 2015-01-01 00:04:08.040,-0.011,-0.024,0.996,0,0.122,-0.061, , , , , , ,-1.774,0.406,-118.301
 12:17:50.186,eb:33:2e:f9:57:b5, 2015-01-01 00:04:08.040,-0.011,-0.025,0.996,0,0.122,-0.061, , , , , , ,-1.774,0.412,-118.301
 12:17:50.186,eb:33:2e:f9:57:b5, 2015-01-01 00:04:08.040,-0.011,-0.024,0.997,0,0.061,-0.061, , , , , , ,-1.774,0.412,-118.301
 12:17:50.186,eb:33:2e:f9:57:b5, 2015-01-01 00:04:08.040,-0.011,-0.025,0.996,0,0.122,-0.061, , , , , , ,-1.774,0.406,-118.284
 12:17:50.186,eb:33:2e:f9:57:b5, 2015-01-01 00:04:08.040,-0.011,-0.024,0.996,0,0.122,-0.061, , , , , , ,-1.774,0.406,-118.284
 12:17:50.186,eb:33:2e:f9:57:b5, 2015-01-01 00:04:08.040,-0.011,-0.024,0.996,0,0.061,0, , , , , , ,-1.774,0.412,-118.284
 12:17:50.231,eb:33:2e:f9:57:b5, 2015-01-01 00:04:08.040,-0.011,-0.024,0.997,0,0.061,-0.061, , , , , , ,-1.774,0.412,-118.284
 12:17:50.231,eb:33:2e:f9:57:b5, 2015-01-01 00:04:08.040,-0.011,-0.024,0.996,0,0.122,0, , , , , , ,-1.774,0.412,-118.262
 12:17:50.231,eb:33:2e:f9:57:b5, 2015-01-01 00:04:08.040,-0.011,-0.024,0.997,-0.061,0.061,-0.061, , , , , , ,-1.774,0.412,-118.262
 12:17:50.231,eb:33:2e:f9:57:b5, 2015-01-01 00:04:08.040,-0.011,-0.024,0.996,-0.061,0.061,0, , , , , , ,-1.774,0.412,-118.262
 12:17:50.231,eb:33:2e:f9:57:b5, 2015-01-01 00:04:08.040,-0.012,-0.024,0.997,-0.061,0.061,0, , , , , , ,-1.774,0.412,-118.262
 12:17:50.231,eb:33:2e:f9:57:b5, 2015-01-01 00:04:08.040,-0.011,-0.024,0.997,0,0.061,0, , , , , , ,-1.774,0.412,-118.246
 12:17:50.231,eb:33:2e:f9:57:b5, 2015-01-01 00:04:08.040,-0.011,-0.024,0.997,0,0.061,0, , , , , , ,-1.774,0.412,-118.246
 12:17:50.232,eb:33:2e:f9:57:b5, 2015-01-01 00:04:08.040,-0.011,-0.024,0.997,-0.061,0,-0.061, , , , , , ,-1.774,0.412,-118.246
 12:17:50.275,eb:33:2e:f9:57:b5, 2015-01-01 00:04:08.330,-0.011,-0.024,0.997,-0.061,0,-0.122, , , , , , ,-1.774,0.412,-118.246
 12:17:50.275,eb:33:2e:f9:57:b5, 2015-01-01 00:04:08.330,-0.011,-0.025,0.997,-0.061,0.061,-0.061, , , , , , ,-1.774,0.412,-118.229
 12:17:50.275,eb:33:2e:f9:57:b5, 2015-01-01 00:04:08.330,-0.011,-0.025,0.997,0,0,-0.061, , , , , , ,-1.774,0.412,-118.229
 12:17:50.275,eb:33:2e:f9:57:b5, 2015-01-01 00:04:08.330,-0.01,-0.025,0.997,0,0.061,0, , , , , , ,-1.774,0.412,-118.229
 12:17:50.275,eb:33:2e:f9:57:b5, 2015-01-01 00:04:08.330,-0.01,-0.025,0.997,0,0.061,0, , , , , , ,-1.774,0.412,-118.229
 12:17:50.275,eb:33:2e:f9:57:b5, 2015-01-01 00:04:08.330,-0.011,-0.024,0.997,0,0.061,0, , , , , , ,-1.774,0.412,-118.207
 12:17:50.275,eb:33:2e:f9:57:b5, 2015-01-01 00:04:08.330,-0.01,-0.025,0.997,0,0.061,0, , , , , , ,-1.774,0.412,-118.207
 12:17:50.275,eb:33:2e:f9:57:b5, 2015-01-01 00:04:08.330,-0.011,-0.025,0.997,0,0,0, , , , , , ,-1.774,0.412,-118.207
 12:17:50.321,eb:33:2e:f9:57:b5, 2015-01-01 00:04:08.330,-0.011,-0.024,0.997,0,0.061,0, , , , , , ,-1.774,0.412,-118.207
 12:17:50.321,eb:33:2e:f9:57:b5, 2015-01-01 00:04:08.330,-0.011,-0.024,0.997,0,0,0, , , , , , ,-1.774,0.412,-118.191
 12:17:50.321,eb:33:2e:f9:57:b5, 2015-01-01 00:04:08.330,-0.012,-0.025,0.996,0,0,0, , , , , , ,-1.774,0.412,-118.191
 12:17:50.321,eb:33:2e:f9:57:b5, 2015-01-01 00:04:08.330,-0.011,-0.025,0.996,0,0,0, , , , , , ,-1.774,0.412,-118.191
 12:17:50.321,eb:33:2e:f9:57:b5, 2015-01-01 00:04:08.330,-0.011,-0.025,0.996,0,0,0, , , , , , ,-1.774,0.412,-118.191
 12:17:50.321,eb:33:2e:f9:57:b5, 2015-01-01 00:04:08.330,-0.01,-0.024,0.996,0,0,0, , , , , , ,-1.774,0.412,-118.174
 12:17:50.321,eb:33:2e:f9:57:b5, 2015-01-01 00:04:08.330,-0.011,-0.025,0.997,0,-0.061,0, , , , , , ,-1.774,0.412,-118.174
 12:17:50.321,eb:33:2e:f9:57:b5, 2015-01-01 00:04:08.330,-0.01,-0.025,0.997,0,0,0.061, , , , , , ,-1.774,0.412,-118.174
 12:17:50.366,eb:33:2e:f9:57:b5, 2015-01-01 00:04:08.330,-0.011,-0.024,0.997,0,0,0.122, , , , , , ,-1.774,0.412,-118.174
 12:17:50.366,eb:33:2e:f9:57:b5, 2015-01-01 00:04:08.330,-0.011,-0.024,0.997,0,0,0, , , , , , ,-1.78,0.412,-118.152
 12:17:50.366,eb:33:2e:f9:57:b5, 2015-01-01 00:04:08.330,-0.011,-0.025,0.997,-0.061,0,0, , , , , , ,-1.78,0.412,-118.152
 12:17:50.366,eb:33:2e:f9:57:b5, 2015-01-01 00:04:08.330,-0.011,-0.024,0.997,-0.061,0,0, , , , , , ,-1.774,0.412,-118.152
 12:17:50.366,eb:33:2e:f9:57:b5, 2015-01-01 00:04:08.330,-0.011,-0.025,0.997,0,0,0.122, , , , , , ,-1.774,0.412,-118.152
 12:17:50.366,eb:33:2e:f9:57:b5, 2015-01-01 00:04:08.330,-0.011,-0.025,0.997,0,0,0.122, , , , , , ,-1.78,0.412,-118.136
 12:17:50.367,eb:33:2e:f9:57:b5, 2015-01-01 00:04:08.330,-0.011,-0.026,0.997,0,0,0.122, , , , , , ,-1.78,0.412,-118.136
 12:17:50.367,eb:33:2e:f9:57:b5, 2015-01-01 00:04:08.330,-0.011,-0.025,0.997,0,0,0.122, , , , , , ,-1.774,0.412,-118.136
 12:17:50.388,eb:33:2e:f9:57:b5, 2015-01-01 00:04:08.330,-0.01,-0.025,0.997,0,0,0.061, , , , , , ,-1.774,0.412,-118.136
 12:17:50.388,eb:33:2e:f9:57:b5, 2015-01-01 00:04:08.330,-0.011,-0.025,0.997,0,-0.061,0.061, , , , , , ,-1.78,0.412,-118.12
 12:17:50.388,eb:33:2e:f9:57:b5, 2015-01-01 00:04:08.330,-0.011,-0.025,0.997,0,-0.061,0.122, , , , , , ,-1.78,0.412,-118.12
 12:17:50.388,eb:33:2e:f9:57:b5, 2015-01-01 00:04:08.330,-0.01,-0.025,0.997,0,-0.061,0.122, , , , , , ,-1.774,0.417,-118.12
 12:17:50.388,eb:33:2e:f9:57:b5, 2015-01-01 00:04:08.330,-0.01,-0.025,0.998,0,0,0.061, , , , , , ,-1.774,0.417,-118.12
 12:17:50.388,eb:33:2e:f9:57:b5, 2015-01-01 00:04:08.330,-0.01,-0.025,0.997,0,-0.061,0.122, , , , , , ,-1.78,0.412,-118.098
 12:17:50.388,eb:33:2e:f9:57:b5, 2015-01-01 00:04:08.330,-0.009,-0.024,0.996,0,-0.061,0.061, , , , , , ,-1.78,0.412,-118.098
 12:17:50.388,eb:33:2e:f9:57:b5, 2015-01-01 00:04:08.330,-0.01,-0.025,0.997,0,0,0.122, , , , , , ,-1.774,0.417,-118.098
 12:17:50.435,eb:33:2e:f9:57:b5, 2015-01-01 00:04:08.330,-0.01,-0.024,0.997,0,0,0.061, , , , , , ,-1.774,0.417,-118.098
 12:17:50.435,eb:33:2e:f9:57:b5, 2015-01-01 00:04:08.330,-0.01,-0.024,0.997,0,0,0, , , , , , ,-1.78,0.417,-118.081
 12:17:50.435,eb:33:2e:f9:57:b5, 2015-01-01 00:04:08.330,-0.01,-0.025,0.997,0,0,0.061, , , , , , ,-1.78,0.417,-118.081
 12:17:50.435,eb:33:2e:f9:57:b5, 2015-01-01 00:04:08.330,-0.011,-0.025,0.997,0,0,0, , , , , , ,-1.774,0.417,-118.081
 12:17:50.435,eb:33:2e:f9:57:b5, 2015-01-01 00:04:08.330,-0.01,-0.024,0.996,0,0,0, , , , , , ,-1.774,0.417,-118.081
 12:17:50.435,eb:33:2e:f9:57:b5, 2015-01-01 00:04:08.330,-0.01,-0.024,0.996,0,0,0.061, , , , , , ,-1.78,0.417,-118.065
 12:17:50.435,eb:33:2e:f9:57:b5, 2015-01-01 00:04:08.330,-0.011,-0.025,0.997,0,0,0.061, , , , , , ,-1.78,0.417,-118.065
 12:17:50.435,eb:33:2e:f9:57:b5, 2015-01-01 00:04:08.330,-0.01,-0.024,0.996,0,0,0.061, , , , , , ,-1.78,0.417,-118.065
 12:17:50.479,eb:33:2e:f9:57:b5, 2015-01-01 00:04:08.330,-0.011,-0.025,0.997,0,0,0.061, , , , , , ,-1.78,0.417,-118.065
 12:17:50.479,eb:33:2e:f9:57:b5, 2015-01-01 00:04:08.330,-0.011,-0.024,0.996,0.061,-0.061,0.061, , , , , , ,-1.78,0.417,-118.048
 12:17:50.479,eb:33:2e:f9:57:b5, 2015-01-01 00:04:08.330,-0.01,-0.024,0.997,0,-0.061,0.061, , , , , , ,-1.78,0.417,-118.048
 12:17:50.479,eb:33:2e:f9:57:b5, 2015-01-01 00:04:08.330,-0.01,-0.025,0.997,0,0,0, , , , , , ,-1.78,0.417,-118.043
 12:17:50.479,eb:33:2e:f9:57:b5, 2015-01-01 00:04:08.330,-0.011,-0.025,0.996,0,0,0.061, , , , , , ,-1.78,0.417,-118.043
 12:17:50.479,eb:33:2e:f9:57:b5, 2015-01-01 00:04:08.330,-0.01,-0.025,0.996,0,0,0.061, , , , , , ,-1.78,0.417,-118.026
 12:17:50.479,eb:33:2e:f9:57:b5, 2015-01-01 00:04:08.330,-0.01,-0.024,0.996,0,0,0.061, , , , , , ,-1.78,0.417,-118.026
 12:17:50.479,eb:33:2e:f9:57:b5, 2015-01-01 00:04:08.330,-0.011,-0.025,0.996,0,0,0, , , , , , ,-1.78,0.417,-118.026
 12:17:50.524,eb:33:2e:f9:57:b5, 2015-01-01 00:04:08.330,-0.01,-0.025,0.996,0,0,0.061, , , , , , ,-1.78,0.417,-118.026
 12:17:50.524,eb:33:2e:f9:57:b5, 2015-01-01 00:04:08.330,-0.01,-0.025,0.996,0,0,0.061, , , , , , ,-1.78,0.417,-118.01
 12:17:50.524,eb:33:2e:f9:57:b5, 2015-01-01 00:04:08.330,-0.01,-0.024,0.997,0,0,0.122, , , , , , ,-1.78,0.417,-118.01
 12:17:50.524,eb:33:2e:f9:57:b5, 2015-01-01 00:04:08.330,-0.01,-0.024,0.997,0,0,0.061, , , , , , ,-1.78,0.417,-118.01
 12:17:50.524,eb:33:2e:f9:57:b5, 2015-01-01 00:04:08.330,-0.01,-0.024,0.997,0,0,0.061, , , , , , ,-1.78,0.417,-118.01
 12:17:50.524,eb:33:2e:f9:57:b5, 2015-01-01 00:04:08.330,-0.01,-0.025,0.997,0,0.061,0.122, , , , , , ,-1.78,0.417,-117.993
 12:17:50.524,eb:33:2e:f9:57:b5, 2015-01-01 00:04:08.330,-0.009,-0.025,0.996,0,0,0.061, , , , , , ,-1.78,0.417,-117.993
 12:17:50.524,eb:33:2e:f9:57:b5, 2015-01-01 00:04:08.330,-0.01,-0.025,0.996,0,0,0.061, , , , , , ,-1.78,0.417,-117.993
 12:17:50.568,eb:33:2e:f9:57:b5, 2015-01-01 00:04:08.640,-0.009,-0.025,0.997,0,0.061,0.061, , , , , , ,-1.78,0.417,-117.993
 12:17:50.568,eb:33:2e:f9:57:b5, 2015-01-01 00:04:08.640,-0.01,-0.025,0.997,0,0.061,0.061, , , , , , ,-1.78,0.417,-117.977
 12:17:50.568,eb:33:2e:f9:57:b5, 2015-01-01 00:04:08.640,-0.011,-0.026,0.997,0,0.122,0.061, , , , , , ,-1.78,0.417,-117.977
 12:17:50.568,eb:33:2e:f9:57:b5, 2015-01-01 00:04:08.640,-0.01,-0.025,0.997,0,0.122,0, , , , , , ,-1.78,0.417,-117.971
 12:17:50.568,eb:33:2e:f9:57:b5, 2015-01-01 00:04:08.640,-0.01,-0.025,0.997,0,0.122,0, , , , , , ,-1.78,0.417,-117.971
 12:17:50.568,eb:33:2e:f9:57:b5, 2015-01-01 00:04:08.640,-0.011,-0.024,0.997,0,0.122,0, , , , , , ,-1.78,0.417,-117.955
 12:17:50.568,eb:33:2e:f9:57:b5, 2015-01-01 00:04:08.640,-0.011,-0.025,0.996,0,0.061,0.061, , , , , , ,-1.78,0.417,-117.955
 12:17:50.568,eb:33:2e:f9:57:b5, 2015-01-01 00:04:08.640,-0.011,-0.024,0.996,-0.061,0.061,0, , , , , , ,-1.78,0.417,-117.955
 12:17:50.592,eb:33:2e:f9:57:b5, 2015-01-01 00:04:08.640,-0.011,-0.025,0.996,0,0.122,0, , , , , , ,-1.78,0.417,-117.955
 12:17:50.592,eb:33:2e:f9:57:b5, 2015-01-01 00:04:08.640,-0.011,-0.025,0.996,0,0.122,0, , , , , , ,-1.78,0.417,-117.938
 12:17:50.592,eb:33:2e:f9:57:b5, 2015-01-01 00:04:08.640,-0.011,-0.025,0.996,0,0.061,0, , , , , , ,-1.78,0.417,-117.938
 12:17:50.592,eb:33:2e:f9:57:b5, 2015-01-01 00:04:08.640,-0.01,-0.024,0.996,0,0.061,0.061, , , , , , ,-1.78,0.417,-117.938
 12:17:50.592,eb:33:2e:f9:57:b5, 2015-01-01 00:04:08.640,-0.011,-0.024,0.996,0,0.061,0, , , , , , ,-1.78,0.417,-117.938
 12:17:50.593,eb:33:2e:f9:57:b5, 2015-01-01 00:04:08.640,-0.01,-0.025,0.996,0,0.061,0, , , , , , ,-1.78,0.417,-117.922
 12:17:50.593,eb:33:2e:f9:57:b5, 2015-01-01 00:04:08.640,-0.011,-0.025,0.997,0,0,0, , , , , , ,-1.78,0.417,-117.922
 12:17:50.593,eb:33:2e:f9:57:b5, 2015-01-01 00:04:08.640,-0.011,-0.025,0.997,0,0,0, , , , , , ,-1.78,0.417,-117.922
 12:17:50.637,eb:33:2e:f9:57:b5, 2015-01-01 00:04:08.640,-0.01,-0.025,0.997,0,0,0, , , , , , ,-1.78,0.417,-117.922
 12:17:50.637,eb:33:2e:f9:57:b5, 2015-01-01 00:04:08.640,-0.01,-0.025,0.996,0,0,0, , , , , , ,-1.78,0.417,-117.905
 12:17:50.637,eb:33:2e:f9:57:b5, 2015-01-01 00:04:08.640,-0.01,-0.025,0.996,0,0,0, , , , , , ,-1.78,0.417,-117.905
 12:17:50.638,eb:33:2e:f9:57:b5, 2015-01-01 00:04:08.640,-0.01,-0.025,0.996,0,0,0, , , , , , ,-1.78,0.417,-117.905
 12:17:50.638,eb:33:2e:f9:57:b5, 2015-01-01 00:04:08.640,-0.011,-0.024,0.997,0,0,0, , , , , , ,-1.78,0.417,-117.905
 12:17:50.638,eb:33:2e:f9:57:b5, 2015-01-01 00:04:08.640,-0.011,-0.024,0.997,0,0,0, , , , , , ,-1.78,0.417,-117.889
 12:17:50.638,eb:33:2e:f9:57:b5, 2015-01-01 00:04:08.640,-0.011,-0.025,0.997,0,0,0, , , , , , ,-1.78,0.417,-117.889
 12:17:50.638,eb:33:2e:f9:57:b5, 2015-01-01 00:04:08.640,-0.01,-0.025,0.997,0,0,0, , , , , , ,-1.78,0.417,-117.883
 12:17:50.681,eb:33:2e:f9:57:b5, 2015-01-01 00:04:08.640,-0.011,-0.025,0.998,0,0,0, , , , , , ,-1.78,0.417,-117.883
 12:17:50.681,eb:33:2e:f9:57:b5, 2015-01-01 00:04:08.640,-0.011,-0.025,0.997,0,0,0, , , , , , ,-1.785,0.417,-117.867
 12:17:50.681,eb:33:2e:f9:57:b5, 2015-01-01 00:04:08.640,-0.01,-0.026,0.997,0,0,0, , , , , , ,-1.785,0.417,-117.867
 12:17:50.681,eb:33:2e:f9:57:b5, 2015-01-01 00:04:08.640,-0.009,-0.025,0.997,0,0,0, , , , , , ,-1.78,0.423,-117.867
 12:17:50.681,eb:33:2e:f9:57:b5, 2015-01-01 00:04:08.640,-0.01,-0.025,0.997,0,0,0, , , , , , ,-1.78,0.423,-117.867
 12:17:50.681,eb:33:2e:f9:57:b5, 2015-01-01 00:04:08.640,-0.01,-0.025,0.997,0,0,0.061, , , , , , ,-1.785,0.417,-117.85
 12:17:50.681,eb:33:2e:f9:57:b5, 2015-01-01 00:04:08.640,-0.012,-0.025,0.997,0.061,0,0, , , , , , ,-1.785,0.417,-117.85
 12:17:50.681,eb:33:2e:f9:57:b5, 2015-01-01 00:04:08.640,-0.011,-0.025,0.996,0.061,0,0, , , , , , ,-1.78,0.423,-117.85
 12:17:50.726,eb:33:2e:f9:57:b5, 2015-01-01 00:04:08.640,-0.011,-0.025,0.997,0.061,0,0.061, , , , , , ,-1.78,0.423,-117.85
 12:17:50.726,eb:33:2e:f9:57:b5, 2015-01-01 00:04:08.640,-0.011,-0.024,0.996,0.061,0,0.061, , , , , , ,-1.785,0.417,-117.834
 12:17:50.726,eb:33:2e:f9:57:b5, 2015-01-01 00:04:08.640,-0.01,-0.024,0.997,0.061,0,0.061, , , , , , ,-1.785,0.417,-117.834
 12:17:50.726,eb:33:2e:f9:57:b5, 2015-01-01 00:04:08.640,-0.01,-0.025,0.997,0.061,0,0.061, , , , , , ,-1.78,0.423,-117.834
 12:17:50.726,eb:33:2e:f9:57:b5, 2015-01-01 00:04:08.640,-0.01,-0.025,0.997,0.061,0,0.061, , , , , , ,-1.78,0.423,-117.834
 12:17:50.726,eb:33:2e:f9:57:b5, 2015-01-01 00:04:08.640,-0.011,-0.025,0.996,0,0,0.061, , , , , , ,-1.785,0.423,-117.817
 12:17:50.726,eb:33:2e:f9:57:b5, 2015-01-01 00:04:08.640,-0.01,-0.025,0.997,0.061,0,0.061, , , , , , ,-1.785,0.423,-117.817
 12:17:50.726,eb:33:2e:f9:57:b5, 2015-01-01 00:04:08.640,-0.01,-0.025,0.997,0.061,0,0.061, , , , , , ,-1.78,0.423,-117.817
 12:17:50.773,eb:33:2e:f9:57:b5, 2015-01-01 00:04:08.640,-0.01,-0.025,0.996,0,0.061,0, , , , , , ,-1.78,0.423,-117.817
 12:17:50.773,eb:33:2e:f9:57:b5, 2015-01-01 00:04:08.640,-0.01,-0.025,0.997,0,0,0, , , , , , ,-1.785,0.423,-117.801
 12:17:50.773,eb:33:2e:f9:57:b5, 2015-01-01 00:04:08.640,-0.01,-0.024,0.997,0.061,0,0, , , , , , ,-1.785,0.423,-117.801
 12:17:50.773,eb:33:2e:f9:57:b5, 2015-01-01 00:04:08.640,-0.01,-0.024,0.997,0.061,0,0, , , , , , ,-1.78,0.423,-117.801
 12:17:50.773,eb:33:2e:f9:57:b5, 2015-01-01 00:04:08.640,-0.011,-0.025,0.996,0.061,0.061,0.061, , , , , , ,-1.78,0.423,-117.801
 12:17:50.773,eb:33:2e:f9:57:b5, 2015-01-01 00:04:08.640,-0.011,-0.026,0.996,0.061,0,0, , , , , , ,-1.785,0.423,-117.784
 12:17:50.773,eb:33:2e:f9:57:b5, 2015-01-01 00:04:08.640,-0.011,-0.025,0.997,0.061,0,0, , , , , , ,-1.785,0.423,-117.784
 12:17:50.773,eb:33:2e:f9:57:b5, 2015-01-01 00:04:08.640,-0.01,-0.024,0.997,0.061,0,0.061, , , , , , ,-1.785,0.423,-117.784
 12:17:50.793,eb:33:2e:f9:57:b5, 2015-01-01 00:04:08.640,-0.01,-0.024,0.996,0,0,0, , , , , , ,-1.785,0.423,-117.784
 12:17:50.793,eb:33:2e:f9:57:b5, 2015-01-01 00:04:08.640,-0.01,-0.025,0.996,0,0,0.061, , , , , , ,-1.785,0.423,-117.768
 12:17:50.793,eb:33:2e:f9:57:b5, 2015-01-01 00:04:08.640,-0.009,-0.024,0.996,0,0,0.061, , , , , , ,-1.785,0.423,-117.768
 12:17:50.793,eb:33:2e:f9:57:b5, 2015-01-01 00:04:08.640,-0.009,-0.025,0.997,0.061,0,0, , , , , , ,-1.785,0.423,-117.762
 12:17:50.793,eb:33:2e:f9:57:b5, 2015-01-01 00:04:08.640,-0.01,-0.025,0.996,0,0,0.061, , , , , , ,-1.785,0.423,-117.762
 12:17:50.793,eb:33:2e:f9:57:b5, 2015-01-01 00:04:08.640,-0.01,-0.024,0.996,0,0,0, , , , , , ,-1.785,0.423,-117.746
 12:17:50.793,eb:33:2e:f9:57:b5, 2015-01-01 00:04:08.640,-0.01,-0.024,0.997,0,0,0.061, , , , , , ,-1.785,0.423,-117.746
 12:17:50.793,eb:33:2e:f9:57:b5, 2015-01-01 00:04:08.640,-0.01,-0.024,0.997,0.061,0,0, , , , , , ,-1.785,0.423,-117.746
 12:17:50.839,eb:33:2e:f9:57:b5, 2015-01-01 00:04:08.640,-0.01,-0.024,0.997,0,0,0, , , , , , ,-1.785,0.423,-117.746
 12:17:50.839,eb:33:2e:f9:57:b5, 2015-01-01 00:04:08.640,-0.009,-0.025,0.996,0,0,0, , , , , , ,-1.785,0.423,-117.729
 12:17:50.839,eb:33:2e:f9:57:b5, 2015-01-01 00:04:08.640,-0.01,-0.025,0.996,0,0,0, , , , , , ,-1.785,0.423,-117.729
 12:17:50.839,eb:33:2e:f9:57:b5, 2015-01-01 00:04:08.640,-0.009,-0.024,0.996,0.061,0,0, , , , , , ,-1.785,0.423,-117.729
 12:17:50.839,eb:33:2e:f9:57:b5, 2015-01-01 00:04:08.640,-0.01,-0.025,0.996,0,0.061,0, , , , , , ,-1.785,0.423,-117.729
 12:17:50.839,eb:33:2e:f9:57:b5, 2015-01-01 00:04:08.640,-0.01,-0.026,0.997,0,0,0, , , , , , ,-1.785,0.423,-117.713
 12:17:50.839,eb:33:2e:f9:57:b5, 2015-01-01 00:04:08.640,-0.01,-0.025,0.997,0,0,0, , , , , , ,-1.785,0.423,-117.713
 12:17:50.839,eb:33:2e:f9:57:b5, 2015-01-01 00:04:08.640,-0.01,-0.025,0.996,0,0.061,0, , , , , , ,-1.785,0.423,-117.713
 12:17:50.883,eb:33:2e:f9:57:b5, 2015-01-01 00:04:08.955,-0.01,-0.025,0.997,0,0.061,0, , , , , , ,-1.785,0.423,-117.713
 12:17:50.883,eb:33:2e:f9:57:b5, 2015-01-01 00:04:08.955,-0.011,-0.024,0.997,0,0.061,0, , , , , , ,-1.785,0.423,-117.697
 12:17:50.883,eb:33:2e:f9:57:b5, 2015-01-01 00:04:08.955,-0.01,-0.025,0.997,0,0.061,0, , , , , , ,-1.785,0.423,-117.697
 12:17:50.883,eb:33:2e:f9:57:b5, 2015-01-01 00:04:08.955,-0.011,-0.025,0.997,0,0.061,0, , , , , , ,-1.785,0.423,-117.697
 12:17:50.883,eb:33:2e:f9:57:b5, 2015-01-01 00:04:08.955,-0.011,-0.024,0.996,0,0.061,0, , , , , , ,-1.785,0.423,-117.697
 12:17:50.883,eb:33:2e:f9:57:b5, 2015-01-01 00:04:08.955,-0.01,-0.025,0.996,0,0.061,0, , , , , , ,-1.785,0.423,-117.68
 12:17:50.883,eb:33:2e:f9:57:b5, 2015-01-01 00:04:08.955,-0.01,-0.025,0.997,0,0.061,-0.061, , , , , , ,-1.785,0.423,-117.68
 12:17:50.883,eb:33:2e:f9:57:b5, 2015-01-01 00:04:08.955,-0.01,-0.024,0.996,0,0.061,0, , , , , , ,-1.785,0.423,-117.68
 12:17:50.928,eb:33:2e:f9:57:b5, 2015-01-01 00:04:08.955,-0.01,-0.025,0.997,0,0.061,0, , , , , , ,-1.785,0.423,-117.68
 12:17:50.928,eb:33:2e:f9:57:b5, 2015-01-01 00:04:08.955,-0.009,-0.025,0.997,-0.061,0.061,0, , , , , , ,-1.785,0.423,-117.664
 12:17:50.928,eb:33:2e:f9:57:b5, 2015-01-01 00:04:08.955,-0.01,-0.025,0.997,0,0.122,-0.061, , , , , , ,-1.785,0.423,-117.664
 12:17:50.928,eb:33:2e:f9:57:b5, 2015-01-01 00:04:08.955,-0.01,-0.026,0.997,0,0.061,0, , , , , , ,-1.785,0.423,-117.664
 12:17:50.928,eb:33:2e:f9:57:b5, 2015-01-01 00:04:08.955,-0.01,-0.025,0.996,0,0.061,0, , , , , , ,-1.785,0.423,-117.664
 12:17:50.928,eb:33:2e:f9:57:b5, 2015-01-01 00:04:08.955,-0.01,-0.025,0.996,0,0,-0.061, , , , , , ,-1.785,0.423,-117.647
 12:17:50.928,eb:33:2e:f9:57:b5, 2015-01-01 00:04:08.955,-0.011,-0.024,0.997,0,0.061,0, , , , , , ,-1.785,0.423,-117.647
 12:17:50.928,eb:33:2e:f9:57:b5, 2015-01-01 00:04:08.955,-0.011,-0.025,0.996,0,0,0, , , , , , ,-1.785,0.423,-117.647
 12:17:50.952,eb:33:2e:f9:57:b5, 2015-01-01 00:04:08.955,-0.01,-0.026,0.996,-0.061,0.061,0, , , , , , ,-1.785,0.423,-117.647
 12:17:50.952,eb:33:2e:f9:57:b5, 2015-01-01 00:04:08.955,-0.01,-0.025,0.996,0,0,0, , , , , , ,-1.785,0.423,-117.631
 12:17:50.952,eb:33:2e:f9:57:b5, 2015-01-01 00:04:08.955,-0.01,-0.025,0.995,0,0,0, , , , , , ,-1.785,0.423,-117.631
 12:17:50.952,eb:33:2e:f9:57:b5, 2015-01-01 00:04:08.955,-0.01,-0.025,0.996,-0.061,0.061,0, , , , , , ,-1.785,0.423,-117.631
 12:17:50.952,eb:33:2e:f9:57:b5, 2015-01-01 00:04:08.955,-0.01,-0.025,0.996,-0.061,0.061,-0.061, , , , , , ,-1.785,0.423,-117.631
 12:17:50.952,eb:33:2e:f9:57:b5, 2015-01-01 00:04:08.955,-0.01,-0.024,0.997,-0.061,0.061,0, , , , , , ,-1.785,0.423,-117.614
 12:17:50.952,eb:33:2e:f9:57:b5, 2015-01-01 00:04:08.955,-0.01,-0.024,0.996,0,0,0, , , , , , ,-1.785,0.423,-117.614
 12:17:50.952,eb:33:2e:f9:57:b5, 2015-01-01 00:04:08.955,-0.01,-0.025,0.996,-0.061,0,0, , , , , , ,-1.785,0.423,-117.614
 12:17:50.996,eb:33:2e:f9:57:b5, 2015-01-01 00:04:08.955,-0.01,-0.026,0.996,-0.061,0,0, , , , , , ,-1.785,0.423,-117.614
 12:17:50.996,eb:33:2e:f9:57:b5, 2015-01-01 00:04:08.955,-0.009,-0.026,0.997,0,0,0, , , , , , ,-1.785,0.423,-117.598
 12:17:50.996,eb:33:2e:f9:57:b5, 2015-01-01 00:04:08.955,-0.01,-0.025,0.997,0,0,0, , , , , , ,-1.785,0.423,-117.598
 12:17:50.996,eb:33:2e:f9:57:b5, 2015-01-01 00:04:08.955,-0.01,-0.027,0.997,0,0,0, , , , , , ,-1.785,0.423,-117.598
 12:17:50.996,eb:33:2e:f9:57:b5, 2015-01-01 00:04:08.955,-0.01,-0.026,0.997,0,0,0, , , , , , ,-1.785,0.423,-117.598
 12:17:50.996,eb:33:2e:f9:57:b5, 2015-01-01 00:04:08.955,-0.01,-0.026,0.996,0,0,0, , , , , , ,-1.785,0.423,-117.581
 12:17:50.996,eb:33:2e:f9:57:b5, 2015-01-01 00:04:08.955,-0.01,-0.026,0.996,0,0,-0.061, , , , , , ,-1.785,0.423,-117.581
 12:17:50.996,eb:33:2e:f9:57:b5, 2015-01-01 00:04:08.955,-0.01,-0.026,0.996,0,0,0, , , , , , ,-1.785,0.423,-117.581
 12:17:51.042,eb:33:2e:f9:57:b5, 2015-01-01 00:04:08.955,-0.01,-0.026,0.997,0,0,0, , , , , , ,-1.785,0.423,-117.581
 12:17:51.042,eb:33:2e:f9:57:b5, 2015-01-01 00:04:08.955,-0.01,-0.026,0.997,0,0,0, , , , , , ,-1.791,0.423,-117.565
 12:17:51.042,eb:33:2e:f9:57:b5, 2015-01-01 00:04:08.955,-0.01,-0.026,0.997,0,-0.061,0, , , , , , ,-1.791,0.423,-117.565
 12:17:51.042,eb:33:2e:f9:57:b5, 2015-01-01 00:04:08.955,-0.01,-0.026,0.997,0,0,0, , , , , , ,-1.785,0.428,-117.565
 12:17:51.042,eb:33:2e:f9:57:b5, 2015-01-01 00:04:08.955,-0.01,-0.025,0.997,0.061,0,0, , , , , , ,-1.785,0.428,-117.565
 12:17:51.042,eb:33:2e:f9:57:b5, 2015-01-01 00:04:08.955,-0.01,-0.026,0.997,0,0,0, , , , , , ,-1.791,0.423,-117.548
 12:17:51.043,eb:33:2e:f9:57:b5, 2015-01-01 00:04:08.955,-0.01,-0.025,0.997,0,-0.061,0, , , , , , ,-1.791,0.423,-117.548
 12:17:51.043,eb:33:2e:f9:57:b5, 2015-01-01 00:04:08.955,-0.01,-0.025,0.997,0,0,0, , , , , , ,-1.785,0.428,-117.548
 12:17:51.086,eb:33:2e:f9:57:b5, 2015-01-01 00:04:08.955,-0.009,-0.025,0.997,0,0,0, , , , , , ,-1.785,0.428,-117.548
 12:17:51.086,eb:33:2e:f9:57:b5, 2015-01-01 00:04:08.955,-0.009,-0.025,0.997,0,0,0, , , , , , ,-1.791,0.423,-117.532
 12:17:51.086,eb:33:2e:f9:57:b5, 2015-01-01 00:04:08.955,-0.009,-0.025,0.997,0,0,0, , , , , , ,-1.791,0.423,-117.532
 12:17:51.086,eb:33:2e:f9:57:b5, 2015-01-01 00:04:08.955,-0.01,-0.025,0.997,0,0,0, , , , , , ,-1.785,0.428,-117.532
 12:17:51.086,eb:33:2e:f9:57:b5, 2015-01-01 00:04:08.955,-0.009,-0.025,0.997,0,0,0, , , , , , ,-1.785,0.428,-117.532
 12:17:51.086,eb:33:2e:f9:57:b5, 2015-01-01 00:04:08.955,-0.01,-0.025,0.996,0,0,0.061, , , , , , ,-1.791,0.423,-117.515
 12:17:51.086,eb:33:2e:f9:57:b5, 2015-01-01 00:04:08.955,-0.01,-0.025,0.996,0,0,0, , , , , , ,-1.791,0.423,-117.515
 12:17:51.087,eb:33:2e:f9:57:b5, 2015-01-01 00:04:08.955,-0.01,-0.026,0.997,-0.061,0,0, , , , , , ,-1.785,0.428,-117.515
 12:17:51.132,eb:33:2e:f9:57:b5, 2015-01-01 00:04:08.955,-0.01,-0.026,0.997,0,0,0.061, , , , , , ,-1.785,0.428,-117.515
 12:17:51.132,eb:33:2e:f9:57:b5, 2015-01-01 00:04:08.955,-0.01,-0.026,0.997,0,0.061,0, , , , , , ,-1.791,0.428,-117.499
 12:17:51.132,eb:33:2e:f9:57:b5, 2015-01-01 00:04:08.955,-0.01,-0.025,0.997,0,0,0, , , , , , ,-1.791,0.428,-117.499
 12:17:51.132,eb:33:2e:f9:57:b5, 2015-01-01 00:04:08.955,-0.009,-0.025,0.997,0,0,0, , , , , , ,-1.785,0.428,-117.499
 12:17:51.132,eb:33:2e:f9:57:b5, 2015-01-01 00:04:08.955,-0.009,-0.026,0.997,0,0,0.061, , , , , , ,-1.785,0.428,-117.499
 12:17:51.132,eb:33:2e:f9:57:b5, 2015-01-01 00:04:08.955,-0.01,-0.025,0.997,0,0.061,0.061, , , , , , ,-1.791,0.428,-117.482
 12:17:51.132,eb:33:2e:f9:57:b5, 2015-01-01 00:04:08.955,-0.01,-0.025,0.997,0,0.061,0.061, , , , , , ,-1.791,0.428,-117.482
 12:17:51.132,eb:33:2e:f9:57:b5, 2015-01-01 00:04:08.955,-0.01,-0.025,0.997,0,0.061,0, , , , , , ,-1.791,0.428,-117.482
 12:17:51.153,eb:33:2e:f9:57:b5, 2015-01-01 00:04:09.245,-0.01,-0.025,0.998,0,0.122,0, , , , , , ,-1.791,0.428,-117.482
 12:17:51.153,eb:33:2e:f9:57:b5, 2015-01-01 00:04:09.245,-0.01,-0.025,0.997,0,0.122,0.061, , , , , , ,-1.791,0.428,-117.466
 12:17:51.153,eb:33:2e:f9:57:b5, 2015-01-01 00:04:09.245,-0.01,-0.025,0.997,0,0.122,0.061, , , , , , ,-1.791,0.428,-117.466
 12:17:51.153,eb:33:2e:f9:57:b5, 2015-01-01 00:04:09.245,-0.009,-0.026,0.997,0,0.122,0.061, , , , , , ,-1.791,0.428,-117.466
 12:17:51.153,eb:33:2e:f9:57:b5, 2015-01-01 00:04:09.245,-0.01,-0.025,0.997,0,0.122,0, , , , , , ,-1.791,0.428,-117.466
 12:17:51.153,eb:33:2e:f9:57:b5, 2015-01-01 00:04:09.245,-0.009,-0.025,0.997,0,0.122,0.061, , , , , , ,-1.791,0.428,-117.449
 12:17:51.153,eb:33:2e:f9:57:b5, 2015-01-01 00:04:09.245,-0.009,-0.025,0.997,0,0.061,0, , , , , , ,-1.791,0.428,-117.449
 12:17:51.153,eb:33:2e:f9:57:b5, 2015-01-01 00:04:09.245,-0.01,-0.025,0.997,0.061,0.061,0, , , , , , ,-1.791,0.428,-117.449
 12:17:51.198,eb:33:2e:f9:57:b5, 2015-01-01 00:04:09.245,-0.01,-0.025,0.997,0,0.061,0.061, , , , , , ,-1.791,0.428,-117.449
 12:17:51.198,eb:33:2e:f9:57:b5, 2015-01-01 00:04:09.245,-0.01,-0.025,0.997,0,0.061,0, , , , , , ,-1.791,0.428,-117.433
 12:17:51.198,eb:33:2e:f9:57:b5, 2015-01-01 00:04:09.245,-0.01,-0.025,0.997,0,0.061,0, , , , , , ,-1.791,0.428,-117.433
 12:17:51.198,eb:33:2e:f9:57:b5, 2015-01-01 00:04:09.245,-0.01,-0.026,0.997,0,0,0.061, , , , , , ,-1.791,0.428,-117.433
 12:17:51.198,eb:33:2e:f9:57:b5, 2015-01-01 00:04:09.245,-0.01,-0.026,0.996,0,0.061,0.061, , , , , , ,-1.791,0.428,-117.433
 12:17:51.198,eb:33:2e:f9:57:b5, 2015-01-01 00:04:09.245,-0.01,-0.026,0.997,0,0.061,0, , , , , , ,-1.791,0.428,-117.416
 12:17:51.199,eb:33:2e:f9:57:b5, 2015-01-01 00:04:09.245,-0.01,-0.026,0.997,0,0.061,0, , , , , , ,-1.791,0.428,-117.416
 12:17:51.199,eb:33:2e:f9:57:b5, 2015-01-01 00:04:09.245,-0.01,-0.025,0.996,0.061,0.061,0, , , , , , ,-1.791,0.428,-117.416
 12:17:51.243,eb:33:2e:f9:57:b5, 2015-01-01 00:04:09.245,-0.009,-0.025,0.997,0.061,0.061,0, , , , , , ,-1.791,0.428,-117.416
 12:17:51.243,eb:33:2e:f9:57:b5, 2015-01-01 00:04:09.245,-0.009,-0.026,0.997,0,0.061,0, , , , , , ,-1.791,0.428,-117.4
 12:17:51.243,eb:33:2e:f9:57:b5, 2015-01-01 00:04:09.245,-0.009,-0.026,0.997,0.061,0.061,0.061, , , , , , ,-1.791,0.428,-117.4
 12:17:51.243,eb:33:2e:f9:57:b5, 2015-01-01 00:04:09.245,-0.01,-0.025,0.997,0,0.061,0, , , , , , ,-1.791,0.428,-117.4
 12:17:51.243,eb:33:2e:f9:57:b5, 2015-01-01 00:04:09.245,-0.01,-0.026,0.996,0.061,0.061,0, , , , , , ,-1.791,0.428,-117.4
 12:17:51.243,eb:33:2e:f9:57:b5, 2015-01-01 00:04:09.245,-0.01,-0.026,0.997,0,0.061,0, , , , , , ,-1.791,0.428,-117.389
 12:17:51.243,eb:33:2e:f9:57:b5, 2015-01-01 00:04:09.245,-0.01,-0.025,0.997,0,0.061,0, , , , , , ,-1.791,0.428,-117.389
 12:17:51.243,eb:33:2e:f9:57:b5, 2015-01-01 00:04:09.245,-0.01,-0.025,0.996,0.061,0.061,0, , , , , , ,-1.791,0.428,-117.383
 12:17:51.288,eb:33:2e:f9:57:b5, 2015-01-01 00:04:09.245,-0.01,-0.026,0.996,0.061,0,0, , , , , , ,-1.791,0.428,-117.383
 12:17:51.288,eb:33:2e:f9:57:b5, 2015-01-01 00:04:09.245,-0.01,-0.026,0.997,0.061,0,0, , , , , , ,-1.791,0.428,-117.372
 12:17:51.288,eb:33:2e:f9:57:b5, 2015-01-01 00:04:09.245,-0.01,-0.026,0.997,0,0,0, , , , , , ,-1.791,0.428,-117.372
 12:17:51.288,eb:33:2e:f9:57:b5, 2015-01-01 00:04:09.245,-0.01,-0.025,0.996,0.061,0.061,0, , , , , , ,-1.791,0.428,-117.372
 12:17:51.288,eb:33:2e:f9:57:b5, 2015-01-01 00:04:09.245,-0.01,-0.026,0.996,0.061,0.061,0, , , , , , ,-1.791,0.428,-117.372
 12:17:51.288,eb:33:2e:f9:57:b5, 2015-01-01 00:04:09.245,-0.01,-0.025,0.997,0,0.061,0, , , , , , ,-1.791,0.428,-117.356
 12:17:51.288,eb:33:2e:f9:57:b5, 2015-01-01 00:04:09.245,-0.01,-0.025,0.997,0.061,0.061,0, , , , , , ,-1.791,0.428,-117.356
 12:17:51.288,eb:33:2e:f9:57:b5, 2015-01-01 00:04:09.245,-0.01,-0.025,0.996,0.061,0.061,0, , , , , , ,-1.791,0.428,-117.356
 12:17:51.334,eb:33:2e:f9:57:b5, 2015-01-01 00:04:09.245,-0.009,-0.025,0.996,0,0.061,0, , , , , , ,-1.791,0.428,-117.356
 12:17:51.334,eb:33:2e:f9:57:b5, 2015-01-01 00:04:09.245,-0.01,-0.025,0.996,0.061,0.061,0, , , , , , ,-1.791,0.428,-117.339
 12:17:51.334,eb:33:2e:f9:57:b5, 2015-01-01 00:04:09.245,-0.01,-0.025,0.996,0.061,0,0, , , , , , ,-1.791,0.428,-117.339
 12:17:51.334,eb:33:2e:f9:57:b5, 2015-01-01 00:04:09.245,-0.01,-0.026,0.996,0.061,0.061,0, , , , , , ,-1.791,0.428,-117.339
 12:17:51.335,eb:33:2e:f9:57:b5, 2015-01-01 00:04:09.245,-0.009,-0.025,0.996,0.061,0.061,0, , , , , , ,-1.791,0.428,-117.339
 12:17:51.335,eb:33:2e:f9:57:b5, 2015-01-01 00:04:09.245,-0.009,-0.025,0.996,0.122,0.061,0, , , , , , ,-1.791,0.428,-117.323
 12:17:51.335,eb:33:2e:f9:57:b5, 2015-01-01 00:04:09.245,-0.01,-0.025,0.996,0.061,0.061,0, , , , , , ,-1.791,0.428,-117.323
 12:17:51.335,eb:33:2e:f9:57:b5, 2015-01-01 00:04:09.245,-0.01,-0.025,0.997,0,0.061,0, , , , , , ,-1.791,0.428,-117.323
 12:17:51.356,eb:33:2e:f9:57:b5, 2015-01-01 00:04:09.245,-0.01,-0.026,0.997,0.122,0.061,0.061, , , , , , ,-1.791,0.428,-117.323
 12:17:51.356,eb:33:2e:f9:57:b5, 2015-01-01 00:04:09.245,-0.01,-0.026,0.997,0.061,0.061,0, , , , , , ,-1.796,0.428,-117.307
 12:17:51.356,eb:33:2e:f9:57:b5, 2015-01-01 00:04:09.245,-0.01,-0.025,0.997,0,0.061,0, , , , , , ,-1.796,0.428,-117.307
 12:17:51.356,eb:33:2e:f9:57:b5, 2015-01-01 00:04:09.245,-0.01,-0.025,0.996,0,0.061,-0.061, , , , , , ,-1.791,0.428,-117.307
 12:17:51.356,eb:33:2e:f9:57:b5, 2015-01-01 00:04:09.245,-0.009,-0.025,0.997,0,0.061,0, , , , , , ,-1.791,0.428,-117.307
 12:17:51.356,eb:33:2e:f9:57:b5, 2015-01-01 00:04:09.245,-0.01,-0.026,0.996,0,0.061,0, , , , , , ,-1.796,0.428,-117.29
 12:17:51.356,eb:33:2e:f9:57:b5, 2015-01-01 00:04:09.245,-0.01,-0.025,0.997,0,0.122,0, , , , , , ,-1.796,0.428,-117.29
 12:17:51.356,eb:33:2e:f9:57:b5, 2015-01-01 00:04:09.245,-0.01,-0.025,0.996,0.061,0.122,0, , , , , , ,-1.791,0.428,-117.29
 12:17:51.401,eb:33:2e:f9:57:b5, 2015-01-01 00:04:09.245,-0.01,-0.025,0.996,0,0.122,0, , , , , , ,-1.791,0.428,-117.29
 12:17:51.401,eb:33:2e:f9:57:b5, 2015-01-01 00:04:09.245,-0.01,-0.025,0.997,0,0.122,-0.061, , , , , , ,-1.796,0.428,-117.274
 12:17:51.401,eb:33:2e:f9:57:b5, 2015-01-01 00:04:09.245,-0.01,-0.025,0.997,0,0.122,0, , , , , , ,-1.796,0.428,-117.274
 12:17:51.401,eb:33:2e:f9:57:b5, 2015-01-01 00:04:09.245,-0.01,-0.026,0.996,0,0.122,0, , , , , , ,-1.791,0.428,-117.274
 12:17:51.401,eb:33:2e:f9:57:b5, 2015-01-01 00:04:09.245,-0.01,-0.025,0.996,0.061,0.122,0, , , , , , ,-1.791,0.428,-117.274
 12:17:51.401,eb:33:2e:f9:57:b5, 2015-01-01 00:04:09.245,-0.01,-0.026,0.997,0.061,0.122,0, , , , , , ,-1.796,0.428,-117.263
 12:17:51.401,eb:33:2e:f9:57:b5, 2015-01-01 00:04:09.245,-0.009,-0.026,0.996,0,0.061,0, , , , , , ,-1.796,0.428,-117.263
 12:17:51.402,eb:33:2e:f9:57:b5, 2015-01-01 00:04:09.245,-0.01,-0.025,0.997,0.061,0.061,0, , , , , , ,-1.791,0.428,-117.257
 12:17:51.468,eb:33:2e:f9:57:b5, 2015-01-01 00:04:09.245,-0.01,-0.025,0.996,0,0,0, , , , , , ,-1.791,0.428,-117.257
 12:17:51.468,eb:33:2e:f9:57:b5, 2015-01-01 00:04:09.245,-0.01,-0.025,0.997,0.061,0,0, , , , , , ,-1.796,0.428,-117.246
 12:17:51.468,eb:33:2e:f9:57:b5, 2015-01-01 00:04:09.245,-0.01,-0.026,0.996,0,0.061,0, , , , , , ,-1.796,0.428,-117.246
 12:17:51.468,eb:33:2e:f9:57:b5, 2015-01-01 00:04:09.245,-0.01,-0.026,0.997,0.061,0.061,0, , , , , , ,-1.791,0.428,-117.246
 12:17:51.468,eb:33:2e:f9:57:b5, 2015-01-01 00:04:09.245,-0.01,-0.026,0.997,0.061,0.061,0, , , , , , ,-1.791,0.428,-117.246
 12:17:51.469,eb:33:2e:f9:57:b5, 2015-01-01 00:04:09.245,-0.009,-0.025,0.997,0.061,0,0, , , , , , ,-1.796,0.428,-117.23
 12:17:51.469,eb:33:2e:f9:57:b5, 2015-01-01 00:04:09.245,-0.01,-0.025,0.997,0,0,0, , , , , , ,-1.796,0.428,-117.23
 12:17:51.469,eb:33:2e:f9:57:b5, 2015-01-01 00:04:09.245,-0.009,-0.025,0.997,0,0,0, , , , , , ,-1.791,0.428,-117.23
 12:17:51.492,eb:33:2e:f9:57:b5, 2015-01-01 00:04:09.560,-0.01,-0.025,0.996,0,0.061,-0.061, , , , , , ,-1.791,0.428,-117.23
 12:17:51.492,eb:33:2e:f9:57:b5, 2015-01-01 00:04:09.560,-0.011,-0.026,0.997,0,0,0, , , , , , ,-1.796,0.428,-117.213
 12:17:51.492,eb:33:2e:f9:57:b5, 2015-01-01 00:04:09.560,-0.011,-0.026,0.998,0.061,0.061,0, , , , , , ,-1.796,0.428,-117.213
 12:17:51.492,eb:33:2e:f9:57:b5, 2015-01-01 00:04:09.560,-0.009,-0.026,0.997,0.061,0.061,0, , , , , , ,-1.791,0.428,-117.213
 12:17:51.492,eb:33:2e:f9:57:b5, 2015-01-01 00:04:09.560,-0.01,-0.025,0.997,0,0.061,-0.061, , , , , , ,-1.791,0.428,-117.213
 12:17:51.492,eb:33:2e:f9:57:b5, 2015-01-01 00:04:09.560,-0.009,-0.025,0.997,0.061,0.122,-0.061, , , , , , ,-1.796,0.428,-117.197
 12:17:51.492,eb:33:2e:f9:57:b5, 2015-01-01 00:04:09.560,-0.009,-0.025,0.997,0.061,0.122,-0.061, , , , , , ,-1.796,0.428,-117.197
 12:17:51.492,eb:33:2e:f9:57:b5, 2015-01-01 00:04:09.560,-0.009,-0.025,0.997,0.061,0.122,0, , , , , , ,-1.796,0.428,-117.197
 12:17:51.535,eb:33:2e:f9:57:b5, 2015-01-01 00:04:09.560,-0.01,-0.025,0.996,0.061,0.061,0, , , , , , ,-1.796,0.428,-117.197
 12:17:51.535,eb:33:2e:f9:57:b5, 2015-01-01 00:04:09.560,-0.01,-0.025,0.997,0.061,0.061,0, , , , , , ,-1.796,0.428,-117.18
 12:17:51.535,eb:33:2e:f9:57:b5, 2015-01-01 00:04:09.560,-0.01,-0.025,0.997,0.061,0.122,0, , , , , , ,-1.796,0.428,-117.18
 12:17:51.535,eb:33:2e:f9:57:b5, 2015-01-01 00:04:09.560,-0.01,-0.025,0.996,0.122,0.122,-0.061, , , , , , ,-1.796,0.428,-117.18
 12:17:51.535,eb:33:2e:f9:57:b5, 2015-01-01 00:04:09.560,-0.01,-0.025,0.996,0.061,0.183,0, , , , , , ,-1.796,0.428,-117.18
 12:17:51.535,eb:33:2e:f9:57:b5, 2015-01-01 00:04:09.560,-0.01,-0.026,0.996,0.061,0.122,0, , , , , , ,-1.796,0.428,-117.169
 12:17:51.535,eb:33:2e:f9:57:b5, 2015-01-01 00:04:09.560,-0.01,-0.026,0.996,0.061,0.061,0, , , , , , ,-1.796,0.428,-117.169
 12:17:51.535,eb:33:2e:f9:57:b5, 2015-01-01 00:04:09.560,-0.01,-0.026,0.996,0.061,0.122,0, , , , , , ,-1.796,0.428,-117.169
 12:17:51.559,eb:33:2e:f9:57:b5, 2015-01-01 00:04:09.560,-0.01,-0.026,0.996,0.122,0.122,0, , , , , , ,-1.796,0.428,-117.169
 12:17:51.559,eb:33:2e:f9:57:b5, 2015-01-01 00:04:09.560,-0.01,-0.026,0.997,0.061,0.122,-0.061, , , , , , ,-1.796,0.428,-117.153
 12:17:51.559,eb:33:2e:f9:57:b5, 2015-01-01 00:04:09.560,-0.009,-0.026,0.997,0.061,0.061,0, , , , , , ,-1.796,0.428,-117.153
 12:17:51.559,eb:33:2e:f9:57:b5, 2015-01-01 00:04:09.560,-0.01,-0.026,0.997,0.122,0.061,0, , , , , , ,-1.796,0.428,-117.153
 12:17:51.559,eb:33:2e:f9:57:b5, 2015-01-01 00:04:09.560,-0.01,-0.025,0.996,0.122,0.061,0, , , , , , ,-1.796,0.428,-117.153
 12:17:51.559,eb:33:2e:f9:57:b5, 2015-01-01 00:04:09.560,-0.01,-0.025,0.996,0.122,0.061,0, , , , , , ,-1.796,0.428,-117.136
 12:17:51.559,eb:33:2e:f9:57:b5, 2015-01-01 00:04:09.560,-0.009,-0.025,0.997,0.061,0.122,0, , , , , , ,-1.796,0.428,-117.136
 12:17:51.559,eb:33:2e:f9:57:b5, 2015-01-01 00:04:09.560,-0.009,-0.025,0.996,0.061,0.183,0, , , , , , ,-1.796,0.434,-117.136
 12:17:51.603,eb:33:2e:f9:57:b5, 2015-01-01 00:04:09.560,-0.009,-0.024,0.996,0.061,0.061,0, , , , , , ,-1.796,0.434,-117.136
 12:17:51.603,eb:33:2e:f9:57:b5, 2015-01-01 00:04:09.560,-0.01,-0.025,0.997,0.061,0.061,0, , , , , , ,-1.796,0.428,-117.12
 12:17:51.603,eb:33:2e:f9:57:b5, 2015-01-01 00:04:09.560,-0.009,-0.024,0.997,0.061,0.061,0, , , , , , ,-1.796,0.428,-117.12
 12:17:51.603,eb:33:2e:f9:57:b5, 2015-01-01 00:04:09.560,-0.01,-0.025,0.997,0,0.122,0, , , , , , ,-1.796,0.434,-117.12
 12:17:51.603,eb:33:2e:f9:57:b5, 2015-01-01 00:04:09.560,-0.01,-0.025,0.997,0.061,0.061,0, , , , , , ,-1.796,0.434,-117.12
 12:17:51.603,eb:33:2e:f9:57:b5, 2015-01-01 00:04:09.560,-0.01,-0.025,0.996,0,0,0, , , , , , ,-1.796,0.428,-117.109
 12:17:51.603,eb:33:2e:f9:57:b5, 2015-01-01 00:04:09.560,-0.011,-0.026,0.996,0.061,0,0, , , , , , ,-1.796,0.428,-117.109
 12:17:51.603,eb:33:2e:f9:57:b5, 2015-01-01 00:04:09.560,-0.01,-0.025,0.996,0,0.061,0, , , , , , ,-1.796,0.434,-117.109
 12:17:51.648,eb:33:2e:f9:57:b5, 2015-01-01 00:04:09.560,-0.01,-0.026,0.996,0,0,0, , , , , , ,-1.796,0.434,-117.109
 12:17:51.648,eb:33:2e:f9:57:b5, 2015-01-01 00:04:09.560,-0.01,-0.025,0.996,0,0,0, , , , , , ,-1.796,0.428,-117.092
 12:17:51.648,eb:33:2e:f9:57:b5, 2015-01-01 00:04:09.560,-0.01,-0.025,0.997,0.061,0,0, , , , , , ,-1.796,0.428,-117.092
 12:17:51.648,eb:33:2e:f9:57:b5, 2015-01-01 00:04:09.560,-0.01,-0.025,0.997,0.061,0,0, , , , , , ,-1.796,0.434,-117.092
 12:17:51.648,eb:33:2e:f9:57:b5, 2015-01-01 00:04:09.560,-0.01,-0.025,0.997,0.061,0,0, , , , , , ,-1.796,0.434,-117.092
 12:17:51.648,eb:33:2e:f9:57:b5, 2015-01-01 00:04:09.560,-0.009,-0.025,0.996,0.061,0,0, , , , , , ,-1.796,0.434,-117.076
 12:17:51.648,eb:33:2e:f9:57:b5, 2015-01-01 00:04:09.560,-0.009,-0.026,0.996,0,0,0, , , , , , ,-1.796,0.434,-117.076
 12:17:51.648,eb:33:2e:f9:57:b5, 2015-01-01 00:04:09.560,-0.009,-0.026,0.997,0.061,0,0, , , , , , ,-1.796,0.434,-117.076
 12:17:51.716,eb:33:2e:f9:57:b5, 2015-01-01 00:04:09.560,-0.01,-0.026,0.997,0.061,0,0, , , , , , ,-1.796,0.434,-117.076
 12:17:51.716,eb:33:2e:f9:57:b5, 2015-01-01 00:04:09.560,-0.01,-0.025,0.997,0.061,0,0, , , , , , ,-1.796,0.434,-117.059
 12:17:51.716,eb:33:2e:f9:57:b5, 2015-01-01 00:04:09.560,-0.011,-0.026,0.997,0.061,0,0, , , , , , ,-1.796,0.434,-117.059
 12:17:51.716,eb:33:2e:f9:57:b5, 2015-01-01 00:04:09.560,-0.009,-0.025,0.996,0.061,0,0, , , , , , ,-1.796,0.434,-117.059
 12:17:51.716,eb:33:2e:f9:57:b5, 2015-01-01 00:04:09.560,-0.01,-0.025,0.996,0,0,0, , , , , , ,-1.796,0.434,-117.059
 12:17:51.717,eb:33:2e:f9:57:b5, 2015-01-01 00:04:09.560,-0.009,-0.026,0.997,0,0,0, , , , , , ,-1.796,0.434,-117.048
 12:17:51.717,eb:33:2e:f9:57:b5, 2015-01-01 00:04:09.560,-0.01,-0.026,0.997,0,0,0.061, , , , , , ,-1.796,0.434,-117.048
 12:17:51.717,eb:33:2e:f9:57:b5, 2015-01-01 00:04:09.560,-0.011,-0.026,0.996,0.061,0,0.061, , , , , , ,-1.796,0.434,-117.048
 12:17:51.717,eb:33:2e:f9:57:b5, 2015-01-01 00:04:09.560,-0.01,-0.026,0.997,0.061,0,0, , , , , , ,-1.796,0.434,-117.048
 12:17:51.717,eb:33:2e:f9:57:b5, 2015-01-01 00:04:09.560,-0.01,-0.025,0.997,0,0,0.061, , , , , , ,-1.796,0.434,-117.032
 12:17:51.717,eb:33:2e:f9:57:b5, 2015-01-01 00:04:09.560,-0.01,-0.025,0.997,0,0,0, , , , , , ,-1.796,0.434,-117.032
 12:17:51.717,eb:33:2e:f9:57:b5, 2015-01-01 00:04:09.560,-0.01,-0.025,0.996,0.061,0,0, , , , , , ,-1.796,0.434,-117.032
 12:17:51.717,eb:33:2e:f9:57:b5, 2015-01-01 00:04:09.560,-0.01,-0.025,0.996,0.061,0,0.061, , , , , , ,-1.796,0.434,-117.032
 12:17:51.717,eb:33:2e:f9:57:b5, 2015-01-01 00:04:09.560,-0.01,-0.025,0.996,0.061,0,0, , , , , , ,-1.796,0.434,-117.015
 12:17:51.717,eb:33:2e:f9:57:b5, 2015-01-01 00:04:09.560,-0.01,-0.025,0.997,0,0,0, , , , , , ,-1.796,0.434,-117.015
 12:17:51.717,eb:33:2e:f9:57:b5, 2015-01-01 00:04:09.560,-0.01,-0.025,0.997,0.061,0,0, , , , , , ,-1.796,0.434,-117.015
 12:17:51.763,eb:33:2e:f9:57:b5, 2015-01-01 00:04:09.560,-0.01,-0.025,0.997,0,0,0, , , , , , ,-1.796,0.434,-117.015
 12:17:51.763,eb:33:2e:f9:57:b5, 2015-01-01 00:04:09.560,-0.01,-0.025,0.997,0,0.061,0.061, , , , , , ,-1.796,0.434,-116.999
 12:17:51.763,eb:33:2e:f9:57:b5, 2015-01-01 00:04:09.560,-0.01,-0.025,0.997,0,0,0.061, , , , , , ,-1.796,0.434,-116.999
 12:17:51.763,eb:33:2e:f9:57:b5, 2015-01-01 00:04:09.560,-0.009,-0.025,0.996,0.061,0.061,0.061, , , , , , ,-1.796,0.434,-116.999
 12:17:51.763,eb:33:2e:f9:57:b5, 2015-01-01 00:04:09.560,-0.01,-0.026,0.996,0,0,0, , , , , , ,-1.796,0.434,-116.999
 12:17:51.763,eb:33:2e:f9:57:b5, 2015-01-01 00:04:09.560,-0.01,-0.025,0.997,0,0.061,0, , , , , , ,-1.796,0.434,-116.988
 12:17:51.763,eb:33:2e:f9:57:b5, 2015-01-01 00:04:09.560,-0.009,-0.026,0.997,0,0.122,0, , , , , , ,-1.796,0.434,-116.988
 12:17:51.763,eb:33:2e:f9:57:b5, 2015-01-01 00:04:09.560,-0.01,-0.025,0.997,0,0.122,0, , , , , , ,-1.796,0.434,-116.988
 12:17:51.806,eb:33:2e:f9:57:b5, 2015-01-01 00:04:09.560,-0.01,-0.025,0.997,0,0.061,0.061, , , , , , ,-1.796,0.434,-116.988
 12:17:51.806,eb:33:2e:f9:57:b5, 2015-01-01 00:04:09.560,-0.01,-0.025,0.997,0,0.122,0.061, , , , , , ,-1.796,0.434,-116.971
 12:17:51.806,eb:33:2e:f9:57:b5, 2015-01-01 00:04:09.560,-0.01,-0.025,0.997,0,0.122,0, , , , , , ,-1.796,0.434,-116.971
 12:17:51.806,eb:33:2e:f9:57:b5, 2015-01-01 00:04:09.560,-0.01,-0.026,0.996,0,0.122,0.061, , , , , , ,-1.796,0.434,-116.971
 12:17:51.806,eb:33:2e:f9:57:b5, 2015-01-01 00:04:09.560,-0.01,-0.026,0.996,0,0.122,0, , , , , , ,-1.796,0.434,-116.971
 12:17:51.806,eb:33:2e:f9:57:b5, 2015-01-01 00:04:09.560,-0.01,-0.026,0.997,0,0.122,0.061, , , , , , ,-1.796,0.434,-116.955
 12:17:51.806,eb:33:2e:f9:57:b5, 2015-01-01 00:04:09.560,-0.01,-0.026,0.996,0.061,0.061,0.122, , , , , , ,-1.796,0.434,-116.955
 12:17:51.806,eb:33:2e:f9:57:b5, 2015-01-01 00:04:09.560,-0.011,-0.025,0.996,0.061,0.061,0.061, , , , , , ,-1.796,0.434,-116.955
 12:17:51.851,eb:33:2e:f9:57:b5, 2015-01-01 00:04:09.915,-0.01,-0.025,0.996,0.061,0.061,0, , , , , , ,-1.796,0.434,-116.955
 12:17:51.851,eb:33:2e:f9:57:b5, 2015-01-01 00:04:09.915,-0.01,-0.025,0.997,0.061,0.061,0, , , , , , ,-1.796,0.434,-116.944
 12:17:51.853,eb:33:2e:f9:57:b5, 2015-01-01 00:04:09.915,-0.01,-0.025,0.996,0,0.061,0, , , , , , ,-1.796,0.434,-116.944
 12:17:51.853,eb:33:2e:f9:57:b5, 2015-01-01 00:04:09.915,-0.01,-0.025,0.996,0.061,0.061,0.061, , , , , , ,-1.796,0.434,-116.944
 12:17:51.853,eb:33:2e:f9:57:b5, 2015-01-01 00:04:09.915,-0.01,-0.025,0.997,0,0.061,0.061, , , , , , ,-1.796,0.434,-116.944
 12:17:51.853,eb:33:2e:f9:57:b5, 2015-01-01 00:04:09.915,-0.009,-0.026,0.997,0.061,0,0, , , , , , ,-1.796,0.434,-116.927
 12:17:51.853,eb:33:2e:f9:57:b5, 2015-01-01 00:04:09.915,-0.01,-0.025,0.996,0,0.061,0, , , , , , ,-1.796,0.434,-116.927
 12:17:51.853,eb:33:2e:f9:57:b5, 2015-01-01 00:04:09.915,-0.01,-0.025,0.997,0,0,0.061, , , , , , ,-1.796,0.434,-116.927
 12:17:51.895,eb:33:2e:f9:57:b5, 2015-01-01 00:04:09.915,-0.01,-0.025,0.997,0.061,0.061,0.061, , , , , , ,-1.796,0.434,-116.927
 12:17:51.895,eb:33:2e:f9:57:b5, 2015-01-01 00:04:09.915,-0.009,-0.025,0.997,0,0.061,0, , , , , , ,-1.802,0.434,-116.911
 12:17:51.895,eb:33:2e:f9:57:b5, 2015-01-01 00:04:09.915,-0.009,-0.025,0.997,0,0.061,0, , , , , , ,-1.802,0.434,-116.911
 12:17:51.895,eb:33:2e:f9:57:b5, 2015-01-01 00:04:09.915,-0.01,-0.025,0.997,0.061,0.061,0.061, , , , , , ,-1.796,0.434,-116.911
 12:17:51.895,eb:33:2e:f9:57:b5, 2015-01-01 00:04:09.915,-0.01,-0.025,0.997,0.061,0.122,0.061, , , , , , ,-1.796,0.434,-116.911
 12:17:51.895,eb:33:2e:f9:57:b5, 2015-01-01 00:04:09.915,-0.01,-0.025,0.997,0.061,0.061,0.061, , , , , , ,-1.802,0.434,-116.9
 12:17:51.895,eb:33:2e:f9:57:b5, 2015-01-01 00:04:09.915,-0.01,-0.025,0.997,0,0.061,0, , , , , , ,-1.802,0.434,-116.9
 12:17:51.895,eb:33:2e:f9:57:b5, 2015-01-01 00:04:09.915,-0.01,-0.025,0.997,0.061,0.061,0.061, , , , , , ,-1.796,0.434,-116.9
 12:17:51.918,eb:33:2e:f9:57:b5, 2015-01-01 00:04:09.915,-0.011,-0.025,0.997,0,0,0.061, , , , , , ,-1.796,0.434,-116.9
 12:17:51.918,eb:33:2e:f9:57:b5, 2015-01-01 00:04:09.915,-0.01,-0.026,0.996,0.061,0.061,0.061, , , , , , ,-1.802,0.434,-116.884
 12:17:51.918,eb:33:2e:f9:57:b5, 2015-01-01 00:04:09.915,-0.01,-0.025,0.997,0.061,0.061,0, , , , , , ,-1.802,0.434,-116.884
 12:17:51.918,eb:33:2e:f9:57:b5, 2015-01-01 00:04:09.915,-0.009,-0.025,0.997,0.061,0.061,0.061, , , , , , ,-1.796,0.434,-116.884
 12:17:51.918,eb:33:2e:f9:57:b5, 2015-01-01 00:04:09.915,-0.01,-0.026,0.997,0.061,0.061,0, , , , , , ,-1.796,0.434,-116.884
 12:17:51.918,eb:33:2e:f9:57:b5, 2015-01-01 00:04:09.915,-0.009,-0.026,0.997,0,0.061,0.061, , , , , , ,-1.802,0.434,-116.867
 12:17:51.918,eb:33:2e:f9:57:b5, 2015-01-01 00:04:09.915,-0.009,-0.025,0.997,0,0.122,0, , , , , , ,-1.802,0.434,-116.867
 12:17:51.918,eb:33:2e:f9:57:b5, 2015-01-01 00:04:09.915,-0.01,-0.025,0.996,0.061,0.061,0.061, , , , , , ,-1.796,0.434,-116.867
 12:17:51.973,eb:33:2e:f9:57:b5, 2015-01-01 00:04:09.915,-0.01,-0.026,0.996,0.061,0.122,0, , , , , , ,-1.796,0.434,-116.867
 12:17:51.973,eb:33:2e:f9:57:b5, 2015-01-01 00:04:09.915,-0.01,-0.026,0.997,0.061,0.122,0, , , , , , ,-1.802,0.434,-116.856
 12:17:51.973,eb:33:2e:f9:57:b5, 2015-01-01 00:04:09.915,-0.01,-0.025,0.997,0.122,0.183,0, , , , , , ,-1.802,0.434,-116.856
 12:17:51.973,eb:33:2e:f9:57:b5, 2015-01-01 00:04:09.915,-0.01,-0.026,0.997,0.183,0.122,0, , , , , , ,-1.796,0.434,-116.856
 12:17:51.973,eb:33:2e:f9:57:b5, 2015-01-01 00:04:09.915,-0.009,-0.025,0.996,0.183,0.122,0, , , , , , ,-1.796,0.434,-116.856
 12:17:51.973,eb:33:2e:f9:57:b5, 2015-01-01 00:04:09.915,-0.01,-0.025,0.997,0.122,0.122,0, , , , , , ,-1.802,0.434,-116.84
 12:17:51.973,eb:33:2e:f9:57:b5, 2015-01-01 00:04:09.915,-0.01,-0.025,0.997,0.122,0.183,0, , , , , , ,-1.802,0.434,-116.84
 12:17:51.973,eb:33:2e:f9:57:b5, 2015-01-01 00:04:09.915,-0.01,-0.025,0.997,0.061,0.183,0, , , , , , ,-1.796,0.434,-116.84
 12:17:52.017,eb:33:2e:f9:57:b5, 2015-01-01 00:04:09.915,-0.01,-0.025,0.997,0.122,0.244,0, , , , , , ,-1.796,0.434,-116.84
 12:17:52.017,eb:33:2e:f9:57:b5, 2015-01-01 00:04:09.915,-0.009,-0.024,0.996,0.061,0.244,0, , , , , , ,-1.802,0.434,-116.823
 12:17:52.017,eb:33:2e:f9:57:b5, 2015-01-01 00:04:09.915,-0.01,-0.024,0.997,0.122,0.244,0, , , , , , ,-1.802,0.434,-116.823
 12:17:52.017,eb:33:2e:f9:57:b5, 2015-01-01 00:04:09.915,-0.01,-0.025,0.997,0.122,0.305,0, , , , , , ,-1.796,0.434,-116.823
 12:17:52.017,eb:33:2e:f9:57:b5, 2015-01-01 00:04:09.915,-0.01,-0.025,0.997,0.061,0.244,0, , , , , , ,-1.796,0.434,-116.823
 12:17:52.017,eb:33:2e:f9:57:b5, 2015-01-01 00:04:09.915,-0.009,-0.025,0.997,0.183,0.244,0, , , , , , ,-1.802,0.434,-116.812
 12:17:52.017,eb:33:2e:f9:57:b5, 2015-01-01 00:04:09.915,-0.01,-0.024,0.997,0.183,0.244,0, , , , , , ,-1.802,0.434,-116.812
 12:17:52.018,eb:33:2e:f9:57:b5, 2015-01-01 00:04:09.915,-0.009,-0.024,0.997,0.122,0.244,0, , , , , , ,-1.796,0.434,-116.812
 12:17:52.058,eb:33:2e:f9:57:b5, 2015-01-01 00:04:09.915,-0.009,-0.025,0.997,0.122,0.366,0, , , , , , ,-1.796,0.434,-116.812
 12:17:52.058,eb:33:2e:f9:57:b5, 2015-01-01 00:04:09.915,-0.01,-0.025,0.997,0.183,0.366,0, , , , , , ,-1.802,0.434,-116.796
 12:17:52.058,eb:33:2e:f9:57:b5, 2015-01-01 00:04:09.915,-0.01,-0.026,0.997,0.244,0.366,0, , , , , , ,-1.802,0.434,-116.796
 12:17:52.058,eb:33:2e:f9:57:b5, 2015-01-01 00:04:09.915,-0.01,-0.025,0.998,0.244,0.427,0, , , , , , ,-1.796,0.434,-116.796
 12:17:52.058,eb:33:2e:f9:57:b5, 2015-01-01 00:04:09.915,-0.011,-0.026,0.998,0.305,0.427,0, , , , , , ,-1.796,0.434,-116.796
 12:17:52.058,eb:33:2e:f9:57:b5, 2015-01-01 00:04:09.915,-0.01,-0.026,0.998,0.366,0.427,0, , , , , , ,-1.802,0.434,-116.785
 12:17:52.058,eb:33:2e:f9:57:b5, 2015-01-01 00:04:09.915,-0.01,-0.026,0.999,0.488,0.488,0.061, , , , , , ,-1.802,0.434,-116.785
 12:17:52.058,eb:33:2e:f9:57:b5, 2015-01-01 00:04:09.915,-0.01,-0.025,0.998,0.488,0.549,0.061, , , , , , ,-1.796,0.434,-116.785
 12:17:52.101,eb:33:2e:f9:57:b5, 2015-01-01 00:04:09.915,-0.01,-0.025,0.997,0.488,0.488,0.061, , , , , , ,-1.796,0.434,-116.785
 12:17:52.101,eb:33:2e:f9:57:b5, 2015-01-01 00:04:09.915,-0.01,-0.025,0.997,0.488,0.488,0.122, , , , , , ,-1.802,0.434,-116.768
 12:17:52.101,eb:33:2e:f9:57:b5, 2015-01-01 00:04:09.915,-0.011,-0.026,0.997,0.488,0.488,0.122, , , , , , ,-1.802,0.434,-116.768
 12:17:52.101,eb:33:2e:f9:57:b5, 2015-01-01 00:04:09.915,-0.009,-0.026,0.997,0.549,0.549,0.122, , , , , , ,-1.796,0.434,-116.768
 12:17:52.101,eb:33:2e:f9:57:b5, 2015-01-01 00:04:09.915,-0.01,-0.026,0.998,0.549,0.549,0.183, , , , , , ,-1.796,0.434,-116.768
 12:17:52.101,eb:33:2e:f9:57:b5, 2015-01-01 00:04:09.915,-0.01,-0.025,0.996,0.61,0.61,0.183, , , , , , ,-1.802,0.434,-116.752
 12:17:52.101,eb:33:2e:f9:57:b5, 2015-01-01 00:04:09.915,-0.01,-0.025,0.996,0.61,0.549,0.183, , , , , , ,-1.802,0.434,-116.752
 12:17:52.101,eb:33:2e:f9:57:b5, 2015-01-01 00:04:09.915,-0.01,-0.025,0.997,0.61,0.549,0.122, , , , , , ,-1.796,0.434,-116.752
 12:17:52.122,eb:33:2e:f9:57:b5, 2015-01-01 00:04:10.205,-0.01,-0.023,0.997,0.61,0.549,0.122, , , , , , ,-1.796,0.434,-116.752
 12:17:52.122,eb:33:2e:f9:57:b5, 2015-01-01 00:04:10.205,-0.011,-0.024,0.996,0.61,0.549,0.122, , , , , , ,-1.802,0.434,-116.741
 12:17:52.122,eb:33:2e:f9:57:b5, 2015-01-01 00:04:10.205,-0.011,-0.023,0.995,0.549,0.549,0.122, , , , , , ,-1.802,0.434,-116.741
 12:17:52.122,eb:33:2e:f9:57:b5, 2015-01-01 00:04:10.205,-0.01,-0.024,0.996,0.488,0.549,0.061, , , , , , ,-1.796,0.434,-116.741
 12:17:52.122,eb:33:2e:f9:57:b5, 2015-01-01 00:04:10.205,-0.011,-0.023,0.996,0.549,0.488,0.122, , , , , , ,-1.796,0.434,-116.741
 12:17:52.122,eb:33:2e:f9:57:b5, 2015-01-01 00:04:10.205,-0.01,-0.023,0.996,0.488,0.488,0.061, , , , , , ,-1.802,0.434,-116.724
 12:17:52.122,eb:33:2e:f9:57:b5, 2015-01-01 00:04:10.205,-0.011,-0.023,0.996,0.488,0.427,0.061, , , , , , ,-1.802,0.434,-116.724
 12:17:52.122,eb:33:2e:f9:57:b5, 2015-01-01 00:04:10.205,-0.01,-0.024,0.996,0.427,0.366,0.061, , , , , , ,-1.796,0.439,-116.724
 12:17:52.166,eb:33:2e:f9:57:b5, 2015-01-01 00:04:10.205,-0.011,-0.024,0.996,0.366,0.305,0.061, , , , , , ,-1.796,0.439,-116.724
 12:17:52.166,eb:33:2e:f9:57:b5, 2015-01-01 00:04:10.205,-0.011,-0.024,0.996,0.305,0.305,0, , , , , , ,-1.802,0.434,-116.713
 12:17:52.166,eb:33:2e:f9:57:b5, 2015-01-01 00:04:10.205,-0.011,-0.024,0.995,0.244,0.305,0, , , , , , ,-1.802,0.434,-116.713
 12:17:52.166,eb:33:2e:f9:57:b5, 2015-01-01 00:04:10.205,-0.011,-0.023,0.996,0.244,0.305,0, , , , , , ,-1.796,0.439,-116.713
 12:17:52.166,eb:33:2e:f9:57:b5, 2015-01-01 00:04:10.205,-0.01,-0.023,0.996,0.122,0.244,0, , , , , , ,-1.796,0.439,-116.713
 12:17:52.166,eb:33:2e:f9:57:b5, 2015-01-01 00:04:10.205,-0.011,-0.023,0.996,0.122,0.244,0, , , , , , ,-1.802,0.439,-116.697
 12:17:52.166,eb:33:2e:f9:57:b5, 2015-01-01 00:04:10.205,-0.011,-0.023,0.996,0.061,0.183,0, , , , , , ,-1.802,0.439,-116.697
 12:17:52.166,eb:33:2e:f9:57:b5, 2015-01-01 00:04:10.205,-0.011,-0.023,0.995,0.061,0.183,0, , , , , , ,-1.796,0.439,-116.697
 12:17:52.211,eb:33:2e:f9:57:b5, 2015-01-01 00:04:10.205,-0.011,-0.023,0.995,0.061,0.183,0, , , , , , ,-1.796,0.439,-116.697
 12:17:52.211,eb:33:2e:f9:57:b5, 2015-01-01 00:04:10.205,-0.012,-0.023,0.996,0,0.122,0, , , , , , ,-1.802,0.439,-116.686
 12:17:52.211,eb:33:2e:f9:57:b5, 2015-01-01 00:04:10.205,-0.011,-0.023,0.996,0,0.122,0, , , , , , ,-1.802,0.439,-116.686
 12:17:52.211,eb:33:2e:f9:57:b5, 2015-01-01 00:04:10.205,-0.011,-0.023,0.996,0,0.061,0, , , , , , ,-1.796,0.439,-116.68
 12:17:52.211,eb:33:2e:f9:57:b5, 2015-01-01 00:04:10.205,-0.011,-0.024,0.996,0,0.061,0, , , , , , ,-1.796,0.439,-116.68
 12:17:52.211,eb:33:2e:f9:57:b5, 2015-01-01 00:04:10.205,-0.012,-0.024,0.996,0,0,-0.061, , , , , , ,-1.796,0.439,-116.669
 12:17:52.211,eb:33:2e:f9:57:b5, 2015-01-01 00:04:10.205,-0.011,-0.023,0.996,0,0,0, , , , , , ,-1.796,0.439,-116.669
 12:17:52.212,eb:33:2e:f9:57:b5, 2015-01-01 00:04:10.205,-0.011,-0.024,0.996,0,0.061,-0.061, , , , , , ,-1.796,0.439,-116.669
 12:17:52.255,eb:33:2e:f9:57:b5, 2015-01-01 00:04:10.205,-0.012,-0.024,0.996,0,0,0, , , , , , ,-1.796,0.439,-116.669
 12:17:52.255,eb:33:2e:f9:57:b5, 2015-01-01 00:04:10.205,-0.012,-0.024,0.996,0,0,0, , , , , , ,-1.796,0.439,-116.653
 12:17:52.255,eb:33:2e:f9:57:b5, 2015-01-01 00:04:10.205,-0.011,-0.023,0.996,0,0,0, , , , , , ,-1.796,0.439,-116.653
 12:17:52.255,eb:33:2e:f9:57:b5, 2015-01-01 00:04:10.205,-0.011,-0.024,0.997,0,0,0, , , , , , ,-1.796,0.439,-116.653
 12:17:52.255,eb:33:2e:f9:57:b5, 2015-01-01 00:04:10.205,-0.011,-0.024,0.997,0,0,0, , , , , , ,-1.796,0.439,-116.653
 12:17:52.255,eb:33:2e:f9:57:b5, 2015-01-01 00:04:10.205,-0.011,-0.024,0.996,0,0,0, , , , , , ,-1.796,0.439,-116.642
 12:17:52.255,eb:33:2e:f9:57:b5, 2015-01-01 00:04:10.205,-0.011,-0.024,0.997,-0.061,-0.061,0, , , , , , ,-1.796,0.439,-116.642
 12:17:52.255,eb:33:2e:f9:57:b5, 2015-01-01 00:04:10.205,-0.01,-0.024,0.997,0,-0.061,0, , , , , , ,-1.796,0.439,-116.642
 12:17:52.302,eb:33:2e:f9:57:b5, 2015-01-01 00:04:10.205,-0.011,-0.024,0.996,-0.061,-0.061,0, , , , , , ,-1.796,0.439,-116.642
 12:17:52.302,eb:33:2e:f9:57:b5, 2015-01-01 00:04:10.205,-0.011,-0.024,0.996,-0.061,-0.061,0, , , , , , ,-1.796,0.439,-116.625
 12:17:52.302,eb:33:2e:f9:57:b5, 2015-01-01 00:04:10.205,-0.011,-0.024,0.997,-0.061,-0.061,0, , , , , , ,-1.796,0.439,-116.625
 12:17:52.302,eb:33:2e:f9:57:b5, 2015-01-01 00:04:10.205,-0.011,-0.024,0.997,-0.061,-0.122,0, , , , , , ,-1.796,0.439,-116.625
 12:17:52.302,eb:33:2e:f9:57:b5, 2015-01-01 00:04:10.205,-0.01,-0.023,0.997,-0.061,-0.061,0, , , , , , ,-1.796,0.439,-116.625
 12:17:52.302,eb:33:2e:f9:57:b5, 2015-01-01 00:04:10.205,-0.011,-0.024,0.996,0,-0.061,0, , , , , , ,-1.796,0.439,-116.614
 12:17:52.302,eb:33:2e:f9:57:b5, 2015-01-01 00:04:10.205,-0.011,-0.024,0.997,-0.061,-0.061,0, , , , , , ,-1.796,0.439,-116.614
 12:17:52.302,eb:33:2e:f9:57:b5, 2015-01-01 00:04:10.205,-0.012,-0.024,0.996,-0.061,-0.061,0, , , , , , ,-1.796,0.439,-116.614
 12:17:52.324,eb:33:2e:f9:57:b5, 2015-01-01 00:04:10.205,-0.011,-0.025,0.996,-0.061,-0.122,0, , , , , , ,-1.796,0.439,-116.614
 12:17:52.324,eb:33:2e:f9:57:b5, 2015-01-01 00:04:10.205,-0.01,-0.024,0.996,-0.061,-0.122,0, , , , , , ,-1.796,0.439,-116.598
 12:17:52.324,eb:33:2e:f9:57:b5, 2015-01-01 00:04:10.205,-0.01,-0.024,0.997,-0.061,-0.122,0, , , , , , ,-1.796,0.439,-116.598
 12:17:52.324,eb:33:2e:f9:57:b5, 2015-01-01 00:04:10.205,-0.01,-0.024,0.997,-0.061,-0.061,0, , , , , , ,-1.796,0.439,-116.598
 12:17:52.324,eb:33:2e:f9:57:b5, 2015-01-01 00:04:10.205,-0.011,-0.024,0.997,-0.061,-0.061,0, , , , , , ,-1.796,0.439,-116.598
 12:17:52.324,eb:33:2e:f9:57:b5, 2015-01-01 00:04:10.205,-0.011,-0.025,0.997,-0.122,-0.061,0, , , , , , ,-1.796,0.439,-116.587
 12:17:52.324,eb:33:2e:f9:57:b5, 2015-01-01 00:04:10.205,-0.011,-0.025,0.997,-0.061,-0.061,0, , , , , , ,-1.796,0.439,-116.587
 12:17:52.324,eb:33:2e:f9:57:b5, 2015-01-01 00:04:10.205,-0.01,-0.024,0.997,-0.061,0,0, , , , , , ,-1.796,0.445,-116.587
 12:17:52.368,eb:33:2e:f9:57:b5, 2015-01-01 00:04:10.205,-0.01,-0.023,0.996,-0.122,0,0, , , , , , ,-1.796,0.445,-116.587
 12:17:52.368,eb:33:2e:f9:57:b5, 2015-01-01 00:04:10.205,-0.01,-0.023,0.996,-0.061,0,0, , , , , , ,-1.796,0.439,-116.57
 12:17:52.368,eb:33:2e:f9:57:b5, 2015-01-01 00:04:10.205,-0.01,-0.024,0.997,-0.061,0,0, , , , , , ,-1.796,0.439,-116.57
 12:17:52.368,eb:33:2e:f9:57:b5, 2015-01-01 00:04:10.205,-0.011,-0.024,0.997,-0.061,0,0, , , , , , ,-1.796,0.445,-116.57
 12:17:52.368,eb:33:2e:f9:57:b5, 2015-01-01 00:04:10.205,-0.011,-0.024,0.996,-0.061,0,0, , , , , , ,-1.796,0.445,-116.57
 12:17:52.368,eb:33:2e:f9:57:b5, 2015-01-01 00:04:10.205,-0.012,-0.024,0.996,-0.061,0,0, , , , , , ,-1.796,0.445,-116.559
 12:17:52.368,eb:33:2e:f9:57:b5, 2015-01-01 00:04:10.205,-0.011,-0.025,0.997,-0.061,0,0, , , , , , ,-1.796,0.445,-116.559
 12:17:52.368,eb:33:2e:f9:57:b5, 2015-01-01 00:04:10.205,-0.011,-0.025,0.996,-0.122,0,0, , , , , , ,-1.791,0.445,-116.559
 12:17:52.414,eb:33:2e:f9:57:b5, 2015-01-01 00:04:10.205,-0.011,-0.024,0.996,-0.061,0,0, , , , , , ,-1.791,0.445,-116.559
 12:17:52.414,eb:33:2e:f9:57:b5, 2015-01-01 00:04:10.205,-0.01,-0.025,0.996,-0.061,0,0, , , , , , ,-1.796,0.445,-116.543
 12:17:52.414,eb:33:2e:f9:57:b5, 2015-01-01 00:04:10.205,-0.011,-0.025,0.997,-0.061,-0.061,0, , , , , , ,-1.796,0.445,-116.543
 12:17:52.414,eb:33:2e:f9:57:b5, 2015-01-01 00:04:10.205,-0.011,-0.025,0.996,-0.122,0,0, , , , , , ,-1.791,0.445,-116.543
 12:17:52.414,eb:33:2e:f9:57:b5, 2015-01-01 00:04:10.205,-0.01,-0.025,0.996,-0.122,-0.061,0, , , , , , ,-1.791,0.445,-116.543
 12:17:52.414,eb:33:2e:f9:57:b5, 2015-01-01 00:04:10.205,-0.011,-0.025,0.997,-0.122,-0.061,0, , , , , , ,-1.796,0.445,-116.532
 12:17:52.414,eb:33:2e:f9:57:b5, 2015-01-01 00:04:10.205,-0.009,-0.024,0.997,-0.122,0,0, , , , , , ,-1.796,0.445,-116.532
 12:17:52.414,eb:33:2e:f9:57:b5, 2015-01-01 00:04:10.205,-0.01,-0.025,0.996,-0.122,-0.061,0, , , , , , ,-1.791,0.445,-116.532
 12:17:52.458,eb:33:2e:f9:57:b5, 2015-01-01 00:04:10.520,-0.01,-0.025,0.996,-0.122,0,0, , , , , , ,-1.791,0.445,-116.532
 12:17:52.458,eb:33:2e:f9:57:b5, 2015-01-01 00:04:10.520,-0.01,-0.025,0.997,-0.061,0,0, , , , , , ,-1.796,0.445,-116.516
 12:17:52.458,eb:33:2e:f9:57:b5, 2015-01-01 00:04:10.520,-0.011,-0.025,0.997,-0.122,0,0, , , , , , ,-1.796,0.445,-116.516
 12:17:52.458,eb:33:2e:f9:57:b5, 2015-01-01 00:04:10.520,-0.01,-0.025,0.996,-0.061,0,0.061, , , , , , ,-1.791,0.445,-116.516
 12:17:52.458,eb:33:2e:f9:57:b5, 2015-01-01 00:04:10.520,-0.01,-0.025,0.997,0,0,0, , , , , , ,-1.791,0.445,-116.516
 12:17:52.458,eb:33:2e:f9:57:b5, 2015-01-01 00:04:10.520,-0.011,-0.025,0.998,-0.061,0,0, , , , , , ,-1.796,0.445,-116.505
 12:17:52.458,eb:33:2e:f9:57:b5, 2015-01-01 00:04:10.520,-0.01,-0.025,0.997,0,0,0, , , , , , ,-1.796,0.445,-116.505
 12:17:52.458,eb:33:2e:f9:57:b5, 2015-01-01 00:04:10.520,-0.011,-0.024,0.997,0,0,0, , , , , , ,-1.791,0.445,-116.505
 12:17:52.503,eb:33:2e:f9:57:b5, 2015-01-01 00:04:10.520,-0.011,-0.026,0.997,-0.061,0,0.061, , , , , , ,-1.791,0.445,-116.505
 12:17:52.503,eb:33:2e:f9:57:b5, 2015-01-01 00:04:10.520,-0.011,-0.025,0.997,0,0,0.061, , , , , , ,-1.796,0.445,-116.488
 12:17:52.503,eb:33:2e:f9:57:b5, 2015-01-01 00:04:10.520,-0.01,-0.025,0.997,0,0,0, , , , , , ,-1.796,0.445,-116.488
 12:17:52.503,eb:33:2e:f9:57:b5, 2015-01-01 00:04:10.520,-0.01,-0.024,0.997,0,0,0, , , , , , ,-1.791,0.445,-116.488
 12:17:52.503,eb:33:2e:f9:57:b5, 2015-01-01 00:04:10.520,-0.009,-0.024,0.997,-0.061,0,0, , , , , , ,-1.791,0.445,-116.488
 12:17:52.503,eb:33:2e:f9:57:b5, 2015-01-01 00:04:10.520,-0.01,-0.024,0.996,0,0,0.061, , , , , , ,-1.796,0.445,-116.477
 12:17:52.503,eb:33:2e:f9:57:b5, 2015-01-01 00:04:10.520,-0.01,-0.024,0.997,0,0,0.061, , , , , , ,-1.796,0.445,-116.477
 12:17:52.503,eb:33:2e:f9:57:b5, 2015-01-01 00:04:10.520,-0.01,-0.023,0.997,-0.061,0,0, , , , , , ,-1.791,0.445,-116.477
 12:17:52.526,eb:33:2e:f9:57:b5, 2015-01-01 00:04:10.520,-0.01,-0.024,0.996,0,0,0.061, , , , , , ,-1.791,0.445,-116.477
 12:17:52.526,eb:33:2e:f9:57:b5, 2015-01-01 00:04:10.520,-0.01,-0.025,0.997,0,0,0, , , , , , ,-1.796,0.445,-116.461
 12:17:52.526,eb:33:2e:f9:57:b5, 2015-01-01 00:04:10.520,-0.01,-0.024,0.996,0,0,0, , , , , , ,-1.796,0.445,-116.461
 12:17:52.526,eb:33:2e:f9:57:b5, 2015-01-01 00:04:10.520,-0.01,-0.024,0.996,0,0,0, , , , , , ,-1.791,0.445,-116.461
 12:17:52.526,eb:33:2e:f9:57:b5, 2015-01-01 00:04:10.520,-0.011,-0.025,0.996,-0.061,0,0.061, , , , , , ,-1.791,0.445,-116.461
 12:17:52.526,eb:33:2e:f9:57:b5, 2015-01-01 00:04:10.520,-0.011,-0.025,0.996,-0.061,-0.061,0, , , , , , ,-1.796,0.445,-116.45
 12:17:52.526,eb:33:2e:f9:57:b5, 2015-01-01 00:04:10.520,-0.011,-0.024,0.997,-0.061,-0.061,0, , , , , , ,-1.796,0.445,-116.45
 12:17:52.526,eb:33:2e:f9:57:b5, 2015-01-01 00:04:10.520,-0.01,-0.024,0.996,0,-0.061,0.061, , , , , , ,-1.791,0.445,-116.45
 12:17:52.570,eb:33:2e:f9:57:b5, 2015-01-01 00:04:10.520,-0.009,-0.024,0.997,-0.061,0,0.061, , , , , , ,-1.791,0.445,-116.45
 12:17:52.570,eb:33:2e:f9:57:b5, 2015-01-01 00:04:10.520,-0.01,-0.024,0.997,-0.122,0,0.061, , , , , , ,-1.796,0.445,-116.433
 12:17:52.570,eb:33:2e:f9:57:b5, 2015-01-01 00:04:10.520,-0.01,-0.025,0.997,-0.122,0,0, , , , , , ,-1.796,0.445,-116.433
 12:17:52.570,eb:33:2e:f9:57:b5, 2015-01-01 00:04:10.520,-0.011,-0.025,0.996,-0.122,0,0, , , , , , ,-1.791,0.445,-116.433
 12:17:52.570,eb:33:2e:f9:57:b5, 2015-01-01 00:04:10.520,-0.011,-0.025,0.997,-0.061,0,0, , , , , , ,-1.791,0.445,-116.433
 12:17:52.570,eb:33:2e:f9:57:b5, 2015-01-01 00:04:10.520,-0.011,-0.025,0.996,-0.061,0,0.061, , , , , , ,-1.791,0.445,-116.422
 12:17:52.570,eb:33:2e:f9:57:b5, 2015-01-01 00:04:10.520,-0.01,-0.025,0.996,-0.061,0,0.061, , , , , , ,-1.791,0.445,-116.422
 12:17:52.570,eb:33:2e:f9:57:b5, 2015-01-01 00:04:10.520,-0.01,-0.025,0.997,-0.061,0,0, , , , , , ,-1.791,0.445,-116.422
 12:17:52.617,eb:33:2e:f9:57:b5, 2015-01-01 00:04:10.520,-0.01,-0.025,0.998,-0.061,0,0, , , , , , ,-1.791,0.445,-116.422
 12:17:52.617,eb:33:2e:f9:57:b5, 2015-01-01 00:04:10.520,-0.011,-0.025,0.998,-0.061,0,0.061, , , , , , ,-1.791,0.445,-116.406
 12:17:52.617,eb:33:2e:f9:57:b5, 2015-01-01 00:04:10.520,-0.01,-0.026,0.998,0,0,0, , , , , , ,-1.791,0.445,-116.406
 12:17:52.617,eb:33:2e:f9:57:b5, 2015-01-01 00:04:10.520,-0.01,-0.026,0.997,0,0,0, , , , , , ,-1.791,0.445,-116.406
 12:17:52.617,eb:33:2e:f9:57:b5, 2015-01-01 00:04:10.520,-0.009,-0.025,0.997,0,0,0, , , , , , ,-1.791,0.445,-116.406
 12:17:52.617,eb:33:2e:f9:57:b5, 2015-01-01 00:04:10.520,-0.01,-0.025,0.997,0,0,0, , , , , , ,-1.791,0.445,-116.395
 12:17:52.617,eb:33:2e:f9:57:b5, 2015-01-01 00:04:10.520,-0.009,-0.024,0.996,0,0,0, , , , , , ,-1.791,0.445,-116.395
 12:17:52.617,eb:33:2e:f9:57:b5, 2015-01-01 00:04:10.520,-0.009,-0.025,0.997,0,0,0, , , , , , ,-1.791,0.445,-116.395
 12:17:52.661,eb:33:2e:f9:57:b5, 2015-01-01 00:04:10.520,-0.01,-0.025,0.997,0,0,0, , , , , , ,-1.791,0.445,-116.395
 12:17:52.661,eb:33:2e:f9:57:b5, 2015-01-01 00:04:10.520,-0.01,-0.025,0.996,0,0,0, , , , , , ,-1.791,0.445,-116.384
 12:17:52.661,eb:33:2e:f9:57:b5, 2015-01-01 00:04:10.520,-0.01,-0.025,0.997,-0.061,0,0.061, , , , , , ,-1.791,0.445,-116.384
 12:17:52.661,eb:33:2e:f9:57:b5, 2015-01-01 00:04:10.520,-0.01,-0.025,0.997,0,0,0, , , , , , ,-1.791,0.445,-116.378
 12:17:52.661,eb:33:2e:f9:57:b5, 2015-01-01 00:04:10.520,-0.01,-0.025,0.997,0,0,0.061, , , , , , ,-1.791,0.445,-116.378
 12:17:52.661,eb:33:2e:f9:57:b5, 2015-01-01 00:04:10.520,-0.01,-0.026,0.996,0,0,0.061, , , , , , ,-1.791,0.445,-116.367
 12:17:52.661,eb:33:2e:f9:57:b5, 2015-01-01 00:04:10.520,-0.012,-0.025,0.997,0,0,0.061, , , , , , ,-1.791,0.445,-116.367
 12:17:52.661,eb:33:2e:f9:57:b5, 2015-01-01 00:04:10.520,-0.011,-0.026,0.997,0,-0.061,0.122, , , , , , ,-1.791,0.45,-116.367
 12:17:52.683,eb:33:2e:f9:57:b5, 2015-01-01 00:04:10.520,-0.008,-0.025,0.997,0,-0.122,0, , , , , , ,-1.791,0.45,-116.367
 12:17:52.683,eb:33:2e:f9:57:b5, 2015-01-01 00:04:10.520,-0.01,-0.025,0.999,0,0,0.061, , , , , , ,-1.791,0.445,-116.356
 12:17:52.683,eb:33:2e:f9:57:b5, 2015-01-01 00:04:10.520,-0.013,-0.025,0.996,0,0,0.061, , , , , , ,-1.791,0.445,-116.356
 12:17:52.683,eb:33:2e:f9:57:b5, 2015-01-01 00:04:10.520,-0.007,-0.025,0.995,0,0,0.122, , , , , , ,-1.791,0.45,-116.356
 12:17:52.683,eb:33:2e:f9:57:b5, 2015-01-01 00:04:10.520,-0.009,-0.025,0.998,0,0,0.061, , , , , , ,-1.791,0.45,-116.356
 12:17:52.683,eb:33:2e:f9:57:b5, 2015-01-01 00:04:10.520,-0.012,-0.025,0.997,0,0.061,0.122, , , , , , ,-1.791,0.445,-116.34
 12:17:52.683,eb:33:2e:f9:57:b5, 2015-01-01 00:04:10.520,-0.008,-0.025,0.996,0,0,0.061, , , , , , ,-1.791,0.445,-116.34
 12:17:52.683,eb:33:2e:f9:57:b5, 2015-01-01 00:04:10.520,-0.01,-0.025,0.998,0,0,0.061, , , , , , ,-1.791,0.45,-116.34
 12:17:52.729,eb:33:2e:f9:57:b5, 2015-01-01 00:04:10.520,-0.011,-0.026,0.996,0,0,0.061, , , , , , ,-1.791,0.45,-116.34
 12:17:52.729,eb:33:2e:f9:57:b5, 2015-01-01 00:04:10.520,-0.008,-0.025,0.997,0,0,0.061, , , , , , ,-1.791,0.45,-116.329
 12:17:52.729,eb:33:2e:f9:57:b5, 2015-01-01 00:04:10.520,-0.011,-0.025,0.997,0,0.061,0.122, , , , , , ,-1.791,0.45,-116.329
 12:17:52.729,eb:33:2e:f9:57:b5, 2015-01-01 00:04:10.520,-0.009,-0.026,0.996,0,0,0.122, , , , , , ,-1.791,0.45,-116.329
 12:17:52.729,eb:33:2e:f9:57:b5, 2015-01-01 00:04:10.520,-0.011,-0.024,0.998,0.061,0.061,0.061, , , , , , ,-1.791,0.45,-116.329
 12:17:52.729,eb:33:2e:f9:57:b5, 2015-01-01 00:04:10.520,-0.012,-0.025,0.996,0,0.061,0.122, , , , , , ,-1.791,0.45,-116.318
 12:17:52.729,eb:33:2e:f9:57:b5, 2015-01-01 00:04:10.520,-0.009,-0.025,0.995,0,0,0.061, , , , , , ,-1.791,0.45,-116.318
 12:17:52.729,eb:33:2e:f9:57:b5, 2015-01-01 00:04:10.520,-0.009,-0.025,0.997,0,0,0, , , , , , ,-1.791,0.45,-116.312
 12:17:52.773,eb:33:2e:f9:57:b5, 2015-01-01 00:04:10.810,-0.01,-0.024,0.997,0,0.061,0.061, , , , , , ,-1.791,0.45,-116.312
 12:17:52.773,eb:33:2e:f9:57:b5, 2015-01-01 00:04:10.810,-0.01,-0.025,0.996,0,0.061,0.122, , , , , , ,-1.791,0.45,-116.301
 12:17:52.773,eb:33:2e:f9:57:b5, 2015-01-01 00:04:10.810,-0.01,-0.025,0.996,0,0,0.061, , , , , , ,-1.791,0.45,-116.301
 12:17:52.773,eb:33:2e:f9:57:b5, 2015-01-01 00:04:10.810,-0.01,-0.025,0.996,0,0.061,0.061, , , , , , ,-1.791,0.45,-116.301
 12:17:52.773,eb:33:2e:f9:57:b5, 2015-01-01 00:04:10.810,-0.01,-0.025,0.997,0,0.122,0.061, , , , , , ,-1.791,0.45,-116.301
 12:17:52.773,eb:33:2e:f9:57:b5, 2015-01-01 00:04:10.810,-0.01,-0.024,0.997,0,0.122,0, , , , , , ,-1.791,0.45,-116.29
 12:17:52.773,eb:33:2e:f9:57:b5, 2015-01-01 00:04:10.810,-0.01,-0.025,0.996,0,0.122,0, , , , , , ,-1.791,0.45,-116.29
 12:17:52.773,eb:33:2e:f9:57:b5, 2015-01-01 00:04:10.810,-0.01,-0.024,0.997,0,0.122,0, , , , , , ,-1.791,0.45,-116.29
 12:17:52.818,eb:33:2e:f9:57:b5, 2015-01-01 00:04:10.810,-0.01,-0.025,0.996,-0.061,0.061,0, , , , , , ,-1.791,0.45,-116.29
 12:17:52.818,eb:33:2e:f9:57:b5, 2015-01-01 00:04:10.810,-0.011,-0.025,0.996,-0.061,0.061,0, , , , , , ,-1.791,0.45,-116.274
 12:17:52.818,eb:33:2e:f9:57:b5, 2015-01-01 00:04:10.810,-0.011,-0.024,0.996,-0.122,0.061,0, , , , , , ,-1.791,0.45,-116.274
 12:17:52.818,eb:33:2e:f9:57:b5, 2015-01-01 00:04:10.810,-0.01,-0.025,0.997,-0.061,0,0, , , , , , ,-1.791,0.45,-116.274
 12:17:52.818,eb:33:2e:f9:57:b5, 2015-01-01 00:04:10.810,-0.009,-0.026,0.997,-0.061,0,0, , , , , , ,-1.791,0.45,-116.274
 12:17:52.818,eb:33:2e:f9:57:b5, 2015-01-01 00:04:10.810,-0.01,-0.024,0.997,-0.061,0,0, , , , , , ,-1.791,0.45,-116.263
 12:17:52.818,eb:33:2e:f9:57:b5, 2015-01-01 00:04:10.810,-0.01,-0.025,0.997,-0.061,0,0, , , , , , ,-1.791,0.45,-116.263
 12:17:52.818,eb:33:2e:f9:57:b5, 2015-01-01 00:04:10.810,-0.01,-0.024,0.996,-0.061,0,0, , , , , , ,-1.791,0.45,-116.263
 12:17:52.908,eb:33:2e:f9:57:b5, 2015-01-01 00:04:10.810,-0.01,-0.025,0.997,-0.061,0,0, , , , , , ,-1.791,0.45,-116.263
 12:17:52.908,eb:33:2e:f9:57:b5, 2015-01-01 00:04:10.810,-0.009,-0.026,0.997,0,0,0, , , , , , ,-1.791,0.45,-116.252
 12:17:52.908,eb:33:2e:f9:57:b5, 2015-01-01 00:04:10.810,-0.01,-0.025,0.997,0,0,0, , , , , , ,-1.791,0.45,-116.252
 12:17:52.908,eb:33:2e:f9:57:b5, 2015-01-01 00:04:10.810,-0.009,-0.025,0.997,0,0,0, , , , , , ,-1.791,0.45,-116.252
 12:17:52.908,eb:33:2e:f9:57:b5, 2015-01-01 00:04:10.810,-0.009,-0.025,0.997,0,0,0, , , , , , ,-1.791,0.45,-116.252
 12:17:52.908,eb:33:2e:f9:57:b5, 2015-01-01 00:04:10.810,-0.01,-0.026,0.997,0,0.122,0, , , , , , ,-1.791,0.45,-116.235
 12:17:52.908,eb:33:2e:f9:57:b5, 2015-01-01 00:04:10.810,-0.01,-0.026,0.997,0,0.061,0, , , , , , ,-1.791,0.45,-116.235
 12:17:52.908,eb:33:2e:f9:57:b5, 2015-01-01 00:04:10.810,-0.01,-0.026,0.997,-0.061,0.061,-0.061, , , , , , ,-1.791,0.45,-116.235
 12:17:52.909,eb:33:2e:f9:57:b5, 2015-01-01 00:04:10.810,-0.01,-0.025,0.997,0,0.122,0, , , , , , ,-1.791,0.45,-116.235
 12:17:52.909,eb:33:2e:f9:57:b5, 2015-01-01 00:04:10.810,-0.009,-0.025,0.997,0,0.122,-0.061, , , , , , ,-1.791,0.45,-116.224
 12:17:52.909,eb:33:2e:f9:57:b5, 2015-01-01 00:04:10.810,-0.009,-0.025,0.997,0,0.122,-0.061, , , , , , ,-1.791,0.45,-116.224
 12:17:52.909,eb:33:2e:f9:57:b5, 2015-01-01 00:04:10.810,-0.009,-0.026,0.997,0,0.183,-0.122, , , , , , ,-1.791,0.45,-116.224
 12:17:52.909,eb:33:2e:f9:57:b5, 2015-01-01 00:04:10.810,-0.01,-0.025,0.997,0,0.183,-0.061, , , , , , ,-1.791,0.45,-116.224
 12:17:52.909,eb:33:2e:f9:57:b5, 2015-01-01 00:04:10.810,-0.01,-0.026,0.997,0.061,0.183,0, , , , , , ,-1.791,0.45,-116.213
 12:17:52.909,eb:33:2e:f9:57:b5, 2015-01-01 00:04:10.810,-0.011,-0.026,0.997,0,0.183,0, , , , , , ,-1.791,0.45,-116.213
 12:17:52.909,eb:33:2e:f9:57:b5, 2015-01-01 00:04:10.810,-0.01,-0.026,0.997,0,0.183,-0.061, , , , , , ,-1.791,0.45,-116.213
 12:17:52.931,eb:33:2e:f9:57:b5, 2015-01-01 00:04:10.810,-0.01,-0.025,0.997,0,0.183,-0.061, , , , , , ,-1.791,0.45,-116.213
 12:17:52.931,eb:33:2e:f9:57:b5, 2015-01-01 00:04:10.810,-0.011,-0.025,0.997,0.061,0.183,-0.122, , , , , , ,-1.791,0.45,-116.197
 12:17:52.931,eb:33:2e:f9:57:b5, 2015-01-01 00:04:10.810,-0.01,-0.025,0.997,0.061,0.183,-0.061, , , , , , ,-1.791,0.45,-116.197
 12:17:52.931,eb:33:2e:f9:57:b5, 2015-01-01 00:04:10.810,-0.011,-0.026,0.996,0.061,0.183,-0.061, , , , , , ,-1.791,0.45,-116.197
 12:17:52.931,eb:33:2e:f9:57:b5, 2015-01-01 00:04:10.810,-0.01,-0.026,0.996,0.061,0.183,-0.061, , , , , , ,-1.791,0.45,-116.197
 12:17:52.931,eb:33:2e:f9:57:b5, 2015-01-01 00:04:10.810,-0.009,-0.026,0.997,0.122,0.122,0, , , , , , ,-1.791,0.45,-116.186
 12:17:52.931,eb:33:2e:f9:57:b5, 2015-01-01 00:04:10.810,-0.01,-0.026,0.997,0.061,0.122,0, , , , , , ,-1.791,0.45,-116.186
 12:17:52.931,eb:33:2e:f9:57:b5, 2015-01-01 00:04:10.810,-0.01,-0.026,0.997,0.122,0.122,0, , , , , , ,-1.791,0.45,-116.186
 12:17:52.976,eb:33:2e:f9:57:b5, 2015-01-01 00:04:10.810,-0.01,-0.025,0.997,0.122,0.183,0, , , , , , ,-1.791,0.45,-116.186
 12:17:52.976,eb:33:2e:f9:57:b5, 2015-01-01 00:04:10.810,-0.01,-0.026,0.997,0.061,0.183,0, , , , , , ,-1.791,0.45,-116.175
 12:17:52.976,eb:33:2e:f9:57:b5, 2015-01-01 00:04:10.810,-0.01,-0.025,0.997,0.061,0.244,0, , , , , , ,-1.791,0.45,-116.175
 12:17:52.976,eb:33:2e:f9:57:b5, 2015-01-01 00:04:10.810,-0.009,-0.025,0.997,0.061,0.183,-0.061, , , , , , ,-1.791,0.45,-116.175
 12:17:52.976,eb:33:2e:f9:57:b5, 2015-01-01 00:04:10.810,-0.01,-0.025,0.996,0.061,0.244,-0.061, , , , , , ,-1.791,0.45,-116.175
 12:17:52.976,eb:33:2e:f9:57:b5, 2015-01-01 00:04:10.810,-0.01,-0.025,0.996,0.061,0.244,-0.061, , , , , , ,-1.791,0.45,-116.158
 12:17:52.976,eb:33:2e:f9:57:b5, 2015-01-01 00:04:10.810,-0.01,-0.025,0.996,0.122,0.244,0, , , , , , ,-1.791,0.45,-116.158
 12:17:52.976,eb:33:2e:f9:57:b5, 2015-01-01 00:04:10.810,-0.01,-0.025,0.997,0.061,0.244,-0.061, , , , , , ,-1.791,0.45,-116.158
 12:17:53.044,eb:33:2e:f9:57:b5, 2015-01-01 00:04:10.810,-0.011,-0.025,0.996,0.061,0.244,-0.061, , , , , , ,-1.791,0.45,-116.158
 12:17:53.044,eb:33:2e:f9:57:b5, 2015-01-01 00:04:10.810,-0.011,-0.025,0.997,0.061,0.244,0, , , , , , ,-1.791,0.45,-116.147
 12:17:53.044,eb:33:2e:f9:57:b5, 2015-01-01 00:04:10.810,-0.01,-0.025,0.997,0.061,0.244,0, , , , , , ,-1.791,0.45,-116.147
 12:17:53.044,eb:33:2e:f9:57:b5, 2015-01-01 00:04:10.810,-0.01,-0.025,0.996,0.122,0.183,0, , , , , , ,-1.791,0.45,-116.147
 12:17:53.044,eb:33:2e:f9:57:b5, 2015-01-01 00:04:10.810,-0.011,-0.026,0.996,0.061,0.183,0, , , , , , ,-1.791,0.45,-116.147
 12:17:53.044,eb:33:2e:f9:57:b5, 2015-01-01 00:04:10.810,-0.011,-0.025,0.997,0.061,0.244,0, , , , , , ,-1.791,0.45,-116.136
 12:17:53.044,eb:33:2e:f9:57:b5, 2015-01-01 00:04:10.810,-0.011,-0.025,0.997,0.061,0.183,0, , , , , , ,-1.791,0.45,-116.136
 12:17:53.045,eb:33:2e:f9:57:b5, 2015-01-01 00:04:10.810,-0.01,-0.025,0.997,0.122,0.183,0, , , , , , ,-1.791,0.45,-116.136
 12:17:53.066,eb:33:2e:f9:57:b5, 2015-01-01 00:04:11.120,-0.01,-0.024,0.997,0.061,0.183,0, , , , , , ,-1.791,0.45,-116.136
 12:17:53.066,eb:33:2e:f9:57:b5, 2015-01-01 00:04:11.120,-0.01,-0.025,0.997,0.061,0.183,0, , , , , , ,-1.791,0.45,-116.12
 12:17:53.066,eb:33:2e:f9:57:b5, 2015-01-01 00:04:11.120,-0.01,-0.024,0.997,0.061,0.183,0, , , , , , ,-1.791,0.45,-116.12
 12:17:53.066,eb:33:2e:f9:57:b5, 2015-01-01 00:04:11.120,-0.01,-0.025,0.997,0.061,0.244,0, , , , , , ,-1.791,0.45,-116.12
 12:17:53.067,eb:33:2e:f9:57:b5, 2015-01-01 00:04:11.120,-0.01,-0.026,0.996,0.122,0.183,0, , , , , , ,-1.791,0.45,-116.12
 12:17:53.067,eb:33:2e:f9:57:b5, 2015-01-01 00:04:11.120,-0.01,-0.025,0.997,0.061,0.183,0, , , , , , ,-1.791,0.45,-116.109
 12:17:53.067,eb:33:2e:f9:57:b5, 2015-01-01 00:04:11.120,-0.011,-0.026,0.997,0.122,0.244,0, , , , , , ,-1.791,0.45,-116.109
 12:17:53.067,eb:33:2e:f9:57:b5, 2015-01-01 00:04:11.120,-0.011,-0.025,0.996,0.061,0.183,0, , , , , , ,-1.791,0.45,-116.109
 12:17:53.088,eb:33:2e:f9:57:b5, 2015-01-01 00:04:11.120,-0.011,-0.025,0.996,0.122,0.183,0, , , , , , ,-1.791,0.45,-116.109
 12:17:53.088,eb:33:2e:f9:57:b5, 2015-01-01 00:04:11.120,-0.011,-0.025,0.996,0.122,0.183,0, , , , , , ,-1.791,0.45,-116.098
 12:17:53.088,eb:33:2e:f9:57:b5, 2015-01-01 00:04:11.120,-0.011,-0.025,0.996,0.122,0.122,0, , , , , , ,-1.791,0.45,-116.098
 12:17:53.088,eb:33:2e:f9:57:b5, 2015-01-01 00:04:11.120,-0.011,-0.025,0.996,0.061,0.122,0, , , , , , ,-1.791,0.45,-116.098
 12:17:53.088,eb:33:2e:f9:57:b5, 2015-01-01 00:04:11.120,-0.01,-0.024,0.996,0.061,0.122,0, , , , , , ,-1.791,0.45,-116.098
 12:17:53.088,eb:33:2e:f9:57:b5, 2015-01-01 00:04:11.120,-0.011,-0.025,0.996,0.061,0,0, , , , , , ,-1.791,0.45,-116.087
 12:17:53.088,eb:33:2e:f9:57:b5, 2015-01-01 00:04:11.120,-0.011,-0.026,0.996,0.061,0,0, , , , , , ,-1.791,0.45,-116.087
 12:17:53.088,eb:33:2e:f9:57:b5, 2015-01-01 00:04:11.120,-0.011,-0.025,0.997,0.061,0,0, , , , , , ,-1.791,0.45,-116.082
 12:17:53.135,eb:33:2e:f9:57:b5, 2015-01-01 00:04:11.120,-0.011,-0.025,0.997,0.061,0,0, , , , , , ,-1.791,0.45,-116.082
 12:17:53.135,eb:33:2e:f9:57:b5, 2015-01-01 00:04:11.120,-0.011,-0.025,0.997,0.122,0,0, , , , , , ,-1.791,0.45,-116.071
 12:17:53.135,eb:33:2e:f9:57:b5, 2015-01-01 00:04:11.120,-0.011,-0.025,0.997,0.061,-0.061,0, , , , , , ,-1.791,0.45,-116.071
 12:17:53.135,eb:33:2e:f9:57:b5, 2015-01-01 00:04:11.120,-0.011,-0.024,0.997,0.061,0,0, , , , , , ,-1.791,0.45,-116.071
 12:17:53.135,eb:33:2e:f9:57:b5, 2015-01-01 00:04:11.120,-0.011,-0.025,0.996,0.122,0,0, , , , , , ,-1.791,0.45,-116.071
 12:17:53.135,eb:33:2e:f9:57:b5, 2015-01-01 00:04:11.120,-0.01,-0.025,0.997,0.061,0,0, , , , , , ,-1.791,0.45,-116.06
 12:17:53.135,eb:33:2e:f9:57:b5, 2015-01-01 00:04:11.120,-0.01,-0.025,0.997,0.061,0,0, , , , , , ,-1.791,0.45,-116.06
 12:17:53.135,eb:33:2e:f9:57:b5, 2015-01-01 00:04:11.120,-0.009,-0.025,0.997,0.061,0,0, , , , , , ,-1.791,0.456,-116.06
 12:17:53.179,eb:33:2e:f9:57:b5, 2015-01-01 00:04:11.120,-0.009,-0.025,0.997,0.061,0,0, , , , , , ,-1.791,0.456,-116.06
 12:17:53.179,eb:33:2e:f9:57:b5, 2015-01-01 00:04:11.120,-0.01,-0.025,0.997,0.061,0.061,0, , , , , , ,-1.791,0.45,-116.049
 12:17:53.179,eb:33:2e:f9:57:b5, 2015-01-01 00:04:11.120,-0.01,-0.025,0.997,0.122,0.061,0, , , , , , ,-1.791,0.45,-116.049
 12:17:53.179,eb:33:2e:f9:57:b5, 2015-01-01 00:04:11.120,-0.01,-0.025,0.998,0.122,0.061,0, , , , , , ,-1.791,0.456,-116.049
 12:17:53.179,eb:33:2e:f9:57:b5, 2015-01-01 00:04:11.120,-0.01,-0.025,0.996,0.122,0.061,0, , , , , , ,-1.791,0.456,-116.049
 12:17:53.179,eb:33:2e:f9:57:b5, 2015-01-01 00:04:11.120,-0.01,-0.025,0.997,0.122,0.061,0, , , , , , ,-1.791,0.45,-116.032
 12:17:53.179,eb:33:2e:f9:57:b5, 2015-01-01 00:04:11.120,-0.01,-0.025,0.997,0.122,0.061,0, , , , , , ,-1.791,0.45,-116.032
 12:17:53.180,eb:33:2e:f9:57:b5, 2015-01-01 00:04:11.120,-0.011,-0.024,0.997,0.061,0.061,0.061, , , , , , ,-1.791,0.456,-116.032
 12:17:53.246,eb:33:2e:f9:57:b5, 2015-01-01 00:04:11.120,-0.01,-0.025,0.997,0.061,0.061,0, , , , , , ,-1.791,0.456,-116.032
 12:17:53.246,eb:33:2e:f9:57:b5, 2015-01-01 00:04:11.120,-0.01,-0.024,0.995,0,0,0, , , , , , ,-1.791,0.456,-116.021
 12:17:53.246,eb:33:2e:f9:57:b5, 2015-01-01 00:04:11.120,-0.01,-0.025,0.996,0.122,0,0, , , , , , ,-1.791,0.456,-116.021
 12:17:53.246,eb:33:2e:f9:57:b5, 2015-01-01 00:04:11.120,-0.011,-0.025,0.996,0.061,0,0, , , , , , ,-1.791,0.456,-116.021
 12:17:53.246,eb:33:2e:f9:57:b5, 2015-01-01 00:04:11.120,-0.01,-0.024,0.997,0.061,0,0, , , , , , ,-1.791,0.456,-116.021
 12:17:53.246,eb:33:2e:f9:57:b5, 2015-01-01 00:04:11.120,-0.01,-0.024,0.996,0,0,0, , , , , , ,-1.791,0.456,-116.01
 12:17:53.246,eb:33:2e:f9:57:b5, 2015-01-01 00:04:11.120,-0.01,-0.024,0.997,0,0,0, , , , , , ,-1.791,0.456,-116.01
 12:17:53.246,eb:33:2e:f9:57:b5, 2015-01-01 00:04:11.120,-0.01,-0.025,0.996,0,0.061,0, , , , , , ,-1.791,0.456,-116.01
 12:17:53.249,eb:33:2e:f9:57:b5, 2015-01-01 00:04:11.120,-0.01,-0.025,0.996,0.061,0,0, , , , , , ,-1.791,0.456,-116.01
 12:17:53.249,eb:33:2e:f9:57:b5, 2015-01-01 00:04:11.120,-0.01,-0.025,0.996,0.061,0,0.061, , , , , , ,-1.791,0.456,-115.999
 12:17:53.249,eb:33:2e:f9:57:b5, 2015-01-01 00:04:11.120,-0.01,-0.024,0.997,0.061,0,0, , , , , , ,-1.791,0.456,-115.999
 12:17:53.249,eb:33:2e:f9:57:b5, 2015-01-01 00:04:11.120,-0.011,-0.025,0.996,0.061,0,0.061, , , , , , ,-1.791,0.456,-115.999
 12:17:53.249,eb:33:2e:f9:57:b5, 2015-01-01 00:04:11.120,-0.01,-0.025,0.996,0.061,0,0, , , , , , ,-1.791,0.456,-115.999
 12:17:53.249,eb:33:2e:f9:57:b5, 2015-01-01 00:04:11.120,-0.011,-0.025,0.996,0.061,0,0, , , , , , ,-1.791,0.456,-115.983
 12:17:53.249,eb:33:2e:f9:57:b5, 2015-01-01 00:04:11.120,-0.01,-0.025,0.997,0.061,0,0, , , , , , ,-1.791,0.456,-115.983
 12:17:53.249,eb:33:2e:f9:57:b5, 2015-01-01 00:04:11.120,-0.01,-0.026,0.996,0.061,0.061,0.061, , , , , , ,-1.785,0.456,-115.983
 12:17:53.291,eb:33:2e:f9:57:b5, 2015-01-01 00:04:11.120,-0.011,-0.026,0.996,0.122,0,0, , , , , , ,-1.785,0.456,-115.983
 12:17:53.291,eb:33:2e:f9:57:b5, 2015-01-01 00:04:11.120,-0.01,-0.025,0.997,0.122,0,0.061, , , , , , ,-1.791,0.456,-115.972
 12:17:53.291,eb:33:2e:f9:57:b5, 2015-01-01 00:04:11.120,-0.009,-0.025,0.997,0.061,0,0, , , , , , ,-1.791,0.456,-115.972
 12:17:53.291,eb:33:2e:f9:57:b5, 2015-01-01 00:04:11.120,-0.01,-0.025,0.997,0,0.061,0, , , , , , ,-1.785,0.456,-115.972
 12:17:53.291,eb:33:2e:f9:57:b5, 2015-01-01 00:04:11.120,-0.01,-0.024,0.997,0,0.061,0, , , , , , ,-1.785,0.456,-115.972
 12:17:53.291,eb:33:2e:f9:57:b5, 2015-01-01 00:04:11.120,-0.01,-0.024,0.996,0,0.061,0, , , , , , ,-1.791,0.456,-115.961
 12:17:53.291,eb:33:2e:f9:57:b5, 2015-01-01 00:04:11.120,-0.01,-0.024,0.996,0,0.061,0, , , , , , ,-1.791,0.456,-115.961
 12:17:53.291,eb:33:2e:f9:57:b5, 2015-01-01 00:04:11.120,-0.01,-0.024,0.997,0,0.061,0, , , , , , ,-1.785,0.456,-115.961
 12:17:53.337,eb:33:2e:f9:57:b5, 2015-01-01 00:04:11.120,-0.011,-0.025,0.997,0,0.061,0, , , , , , ,-1.785,0.456,-115.961
 12:17:53.337,eb:33:2e:f9:57:b5, 2015-01-01 00:04:11.120,-0.01,-0.025,0.997,0,0.061,0.061, , , , , , ,-1.791,0.456,-115.95
 12:17:53.337,eb:33:2e:f9:57:b5, 2015-01-01 00:04:11.120,-0.011,-0.025,0.997,0,0.122,0, , , , , , ,-1.791,0.456,-115.95
 12:17:53.337,eb:33:2e:f9:57:b5, 2015-01-01 00:04:11.120,-0.011,-0.026,0.997,0,0.122,0, , , , , , ,-1.785,0.456,-115.95
 12:17:53.337,eb:33:2e:f9:57:b5, 2015-01-01 00:04:11.120,-0.01,-0.025,0.997,0,0.122,0, , , , , , ,-1.785,0.456,-115.95
 12:17:53.337,eb:33:2e:f9:57:b5, 2015-01-01 00:04:11.120,-0.011,-0.025,0.996,0,0,0.061, , , , , , ,-1.791,0.456,-115.933
 12:17:53.337,eb:33:2e:f9:57:b5, 2015-01-01 00:04:11.120,-0.01,-0.026,0.996,0,0,0.061, , , , , , ,-1.791,0.456,-115.933
 12:17:53.337,eb:33:2e:f9:57:b5, 2015-01-01 00:04:11.120,-0.011,-0.024,0.996,0,0,0.061, , , , , , ,-1.785,0.456,-115.933
 12:17:53.381,eb:33:2e:f9:57:b5, 2015-01-01 00:04:11.435,-0.01,-0.025,0.997,0,0.061,0.061, , , , , , ,-1.785,0.456,-115.933
 12:17:53.381,eb:33:2e:f9:57:b5, 2015-01-01 00:04:11.435,-0.011,-0.025,0.997,0,0,0.061, , , , , , ,-1.791,0.456,-115.922
 12:17:53.381,eb:33:2e:f9:57:b5, 2015-01-01 00:04:11.435,-0.011,-0.025,0.996,0,0,0.061, , , , , , ,-1.791,0.456,-115.922
 12:17:53.381,eb:33:2e:f9:57:b5, 2015-01-01 00:04:11.435,-0.011,-0.025,0.996,0,0,0.122, , , , , , ,-1.785,0.456,-115.922
 12:17:53.381,eb:33:2e:f9:57:b5, 2015-01-01 00:04:11.435,-0.01,-0.025,0.997,0,0,0.061, , , , , , ,-1.785,0.456,-115.922
 12:17:53.381,eb:33:2e:f9:57:b5, 2015-01-01 00:04:11.435,-0.01,-0.025,0.997,0,0,0.061, , , , , , ,-1.791,0.456,-115.911
 12:17:53.381,eb:33:2e:f9:57:b5, 2015-01-01 00:04:11.435,-0.009,-0.025,0.997,0,0,0, , , , , , ,-1.791,0.456,-115.911
 12:17:53.381,eb:33:2e:f9:57:b5, 2015-01-01 00:04:11.435,-0.01,-0.025,0.996,0,0,0.061, , , , , , ,-1.785,0.456,-115.911
 12:17:53.427,eb:33:2e:f9:57:b5, 2015-01-01 00:04:11.435,-0.01,-0.025,0.997,-0.061,0.061,0.061, , , , , , ,-1.785,0.456,-115.911
 12:17:53.427,eb:33:2e:f9:57:b5, 2015-01-01 00:04:11.435,-0.01,-0.025,0.996,0,0.061,0.061, , , , , , ,-1.791,0.456,-115.9
 12:17:53.427,eb:33:2e:f9:57:b5, 2015-01-01 00:04:11.435,-0.01,-0.025,0.997,0,0,0.061, , , , , , ,-1.791,0.456,-115.9
 12:17:53.427,eb:33:2e:f9:57:b5, 2015-01-01 00:04:11.435,-0.01,-0.024,0.996,0,0,0.061, , , , , , ,-1.785,0.456,-115.9
 12:17:53.427,eb:33:2e:f9:57:b5, 2015-01-01 00:04:11.435,-0.01,-0.025,0.996,0,0,0.061, , , , , , ,-1.785,0.456,-115.9
 12:17:53.427,eb:33:2e:f9:57:b5, 2015-01-01 00:04:11.435,-0.011,-0.025,0.997,0,0,0.061, , , , , , ,-1.791,0.456,-115.889
 12:17:53.427,eb:33:2e:f9:57:b5, 2015-01-01 00:04:11.435,-0.011,-0.025,0.997,0,0,0.061, , , , , , ,-1.791,0.456,-115.889
 12:17:53.427,eb:33:2e:f9:57:b5, 2015-01-01 00:04:11.435,-0.01,-0.026,0.997,0,0,0.061, , , , , , ,-1.785,0.456,-115.889
 12:17:53.448,eb:33:2e:f9:57:b5, 2015-01-01 00:04:11.435,-0.011,-0.026,0.997,-0.061,-0.061,0.061, , , , , , ,-1.785,0.456,-115.889
 12:17:53.448,eb:33:2e:f9:57:b5, 2015-01-01 00:04:11.435,-0.01,-0.026,0.996,-0.061,-0.061,0, , , , , , ,-1.791,0.456,-115.873
 12:17:53.448,eb:33:2e:f9:57:b5, 2015-01-01 00:04:11.435,-0.01,-0.026,0.996,-0.061,-0.061,0.061, , , , , , ,-1.791,0.456,-115.873
 12:17:53.448,eb:33:2e:f9:57:b5, 2015-01-01 00:04:11.435,-0.011,-0.025,0.997,-0.061,-0.061,0, , , , , , ,-1.785,0.456,-115.873
 12:17:53.448,eb:33:2e:f9:57:b5, 2015-01-01 00:04:11.435,-0.01,-0.026,0.997,0,-0.061,0, , , , , , ,-1.785,0.456,-115.873
 12:17:53.448,eb:33:2e:f9:57:b5, 2015-01-01 00:04:11.435,-0.01,-0.025,0.997,0,-0.061,0.061, , , , , , ,-1.791,0.456,-115.862
 12:17:53.448,eb:33:2e:f9:57:b5, 2015-01-01 00:04:11.435,-0.01,-0.026,0.998,0,-0.122,0, , , , , , ,-1.791,0.456,-115.862
 12:17:53.448,eb:33:2e:f9:57:b5, 2015-01-01 00:04:11.435,-0.009,-0.026,0.997,0,-0.122,0, , , , , , ,-1.785,0.456,-115.862
 12:17:53.494,eb:33:2e:f9:57:b5, 2015-01-01 00:04:11.435,-0.01,-0.025,0.997,0,-0.183,0.061, , , , , , ,-1.785,0.456,-115.862
 12:17:53.494,eb:33:2e:f9:57:b5, 2015-01-01 00:04:11.435,-0.01,-0.025,0.997,0,-0.122,0.061, , , , , , ,-1.785,0.456,-115.851
 12:17:53.494,eb:33:2e:f9:57:b5, 2015-01-01 00:04:11.435,-0.009,-0.025,0.998,0,-0.061,0.122, , , , , , ,-1.785,0.456,-115.851
 12:17:53.494,eb:33:2e:f9:57:b5, 2015-01-01 00:04:11.435,-0.01,-0.025,0.997,0,-0.061,0.061, , , , , , ,-1.785,0.456,-115.851
 12:17:53.494,eb:33:2e:f9:57:b5, 2015-01-01 00:04:11.435,-0.01,-0.025,0.997,0,-0.061,0.122, , , , , , ,-1.785,0.456,-115.851
 12:17:53.494,eb:33:2e:f9:57:b5, 2015-01-01 00:04:11.435,-0.009,-0.024,0.997,0,0,0, , , , , , ,-1.785,0.456,-115.84
 12:17:53.494,eb:33:2e:f9:57:b5, 2015-01-01 00:04:11.435,-0.01,-0.024,0.996,0,0,0, , , , , , ,-1.785,0.456,-115.84
 12:17:53.494,eb:33:2e:f9:57:b5, 2015-01-01 00:04:11.435,-0.01,-0.025,0.996,0,0,0, , , , , , ,-1.785,0.456,-115.84
 12:17:53.540,eb:33:2e:f9:57:b5, 2015-01-01 00:04:11.435,-0.01,-0.025,0.997,0,0,0, , , , , , ,-1.785,0.456,-115.84
 12:17:53.540,eb:33:2e:f9:57:b5, 2015-01-01 00:04:11.435,-0.01,-0.026,0.997,0,0,0.061, , , , , , ,-1.785,0.456,-115.829
 12:17:53.540,eb:33:2e:f9:57:b5, 2015-01-01 00:04:11.435,-0.01,-0.025,0.996,0,0,0.061, , , , , , ,-1.785,0.456,-115.829
 12:17:53.540,eb:33:2e:f9:57:b5, 2015-01-01 00:04:11.435,-0.011,-0.025,0.997,0,0,0, , , , , , ,-1.785,0.456,-115.829
 12:17:53.540,eb:33:2e:f9:57:b5, 2015-01-01 00:04:11.435,-0.01,-0.025,0.997,0,-0.061,0, , , , , , ,-1.785,0.456,-115.829
 12:17:53.540,eb:33:2e:f9:57:b5, 2015-01-01 00:04:11.435,-0.01,-0.025,0.997,0,0,0, , , , , , ,-1.785,0.456,-115.818
 12:17:53.540,eb:33:2e:f9:57:b5, 2015-01-01 00:04:11.435,-0.01,-0.025,0.997,0,0,0, , , , , , ,-1.785,0.456,-115.818
 12:17:53.540,eb:33:2e:f9:57:b5, 2015-01-01 00:04:11.435,-0.012,-0.025,0.996,0,-0.061,0, , , , , , ,-1.785,0.456,-115.812
 12:17:53.586,eb:33:2e:f9:57:b5, 2015-01-01 00:04:11.435,-0.008,-0.025,0.995,-0.061,-0.061,0, , , , , , ,-1.785,0.456,-115.812
 12:17:53.586,eb:33:2e:f9:57:b5, 2015-01-01 00:04:11.435,-0.011,-0.025,0.998,0,-0.061,0, , , , , , ,-1.785,0.456,-115.801
 12:17:53.586,eb:33:2e:f9:57:b5, 2015-01-01 00:04:11.435,-0.01,-0.026,0.996,-0.061,0,0.061, , , , , , ,-1.785,0.456,-115.801
 12:17:53.586,eb:33:2e:f9:57:b5, 2015-01-01 00:04:11.435,-0.008,-0.024,0.997,0,-0.061,0, , , , , , ,-1.785,0.461,-115.801
 12:17:53.586,eb:33:2e:f9:57:b5, 2015-01-01 00:04:11.435,-0.009,-0.025,0.997,-0.061,0,0, , , , , , ,-1.785,0.461,-115.801
 12:17:53.586,eb:33:2e:f9:57:b5, 2015-01-01 00:04:11.435,-0.011,-0.025,0.997,-0.061,0,0, , , , , , ,-1.785,0.456,-115.79
 12:17:53.586,eb:33:2e:f9:57:b5, 2015-01-01 00:04:11.435,-0.007,-0.025,0.996,-0.122,0,0, , , , , , ,-1.785,0.456,-115.79
 12:17:53.586,eb:33:2e:f9:57:b5, 2015-01-01 00:04:11.435,-0.009,-0.025,0.998,-0.061,0,0, , , , , , ,-1.785,0.461,-115.79
 12:17:53.629,eb:33:2e:f9:57:b5, 2015-01-01 00:04:11.435,-0.011,-0.025,0.996,-0.061,0.061,0, , , , , , ,-1.785,0.461,-115.79
 12:17:53.629,eb:33:2e:f9:57:b5, 2015-01-01 00:04:11.435,-0.007,-0.027,0.995,-0.061,0,0, , , , , , ,-1.785,0.456,-115.779
 12:17:53.629,eb:33:2e:f9:57:b5, 2015-01-01 00:04:11.435,-0.008,-0.025,0.998,-0.061,0,0, , , , , , ,-1.785,0.456,-115.779
 12:17:53.629,eb:33:2e:f9:57:b5, 2015-01-01 00:04:11.435,-0.011,-0.025,0.997,-0.061,0.061,0, , , , , , ,-1.785,0.461,-115.779
 12:17:53.629,eb:33:2e:f9:57:b5, 2015-01-01 00:04:11.435,-0.008,-0.027,0.997,-0.061,0.061,0.061, , , , , , ,-1.785,0.461,-115.779
 12:17:53.629,eb:33:2e:f9:57:b5, 2015-01-01 00:04:11.435,-0.01,-0.026,0.998,0,0.061,0, , , , , , ,-1.785,0.456,-115.768
 12:17:53.629,eb:33:2e:f9:57:b5, 2015-01-01 00:04:11.435,-0.012,-0.027,0.996,0,0.061,0, , , , , , ,-1.785,0.456,-115.768
 12:17:53.630,eb:33:2e:f9:57:b5, 2015-01-01 00:04:11.435,-0.009,-0.027,0.996,0,0,0, , , , , , ,-1.785,0.461,-115.768
 12:17:53.652,eb:33:2e:f9:57:b5, 2015-01-01 00:04:11.725,-0.01,-0.026,0.998,0,0.061,0, , , , , , ,-1.785,0.461,-115.768
 12:17:53.652,eb:33:2e:f9:57:b5, 2015-01-01 00:04:11.725,-0.01,-0.026,0.996,0,0.061,0.061, , , , , , ,-1.785,0.456,-115.757
 12:17:53.652,eb:33:2e:f9:57:b5, 2015-01-01 00:04:11.725,-0.008,-0.024,0.996,0,0,0, , , , , , ,-1.785,0.456,-115.757
 12:17:53.652,eb:33:2e:f9:57:b5, 2015-01-01 00:04:11.725,-0.011,-0.025,0.996,0,0,0, , , , , , ,-1.785,0.461,-115.757
 12:17:53.652,eb:33:2e:f9:57:b5, 2015-01-01 00:04:11.725,-0.009,-0.026,0.996,0,0,0, , , , , , ,-1.785,0.461,-115.757
 12:17:53.652,eb:33:2e:f9:57:b5, 2015-01-01 00:04:11.725,-0.01,-0.026,0.997,0.061,0,0, , , , , , ,-1.785,0.456,-115.746
 12:17:53.652,eb:33:2e:f9:57:b5, 2015-01-01 00:04:11.725,-0.011,-0.027,0.998,0.061,0.061,0.061, , , , , , ,-1.785,0.456,-115.746
 12:17:53.652,eb:33:2e:f9:57:b5, 2015-01-01 00:04:11.725,-0.008,-0.027,0.997,0.061,0.061,0.061, , , , , , ,-1.785,0.461,-115.746
 12:17:53.696,eb:33:2e:f9:57:b5, 2015-01-01 00:04:11.725,-0.01,-0.026,0.998,0.122,0.061,0.061, , , , , , ,-1.785,0.461,-115.746
 12:17:53.696,eb:33:2e:f9:57:b5, 2015-01-01 00:04:11.725,-0.012,-0.026,0.996,0.122,0.061,0, , , , , , ,-1.785,0.456,-115.735
 12:17:53.696,eb:33:2e:f9:57:b5, 2015-01-01 00:04:11.725,-0.009,-0.025,0.996,0.061,0,0.061, , , , , , ,-1.785,0.456,-115.735
 12:17:53.696,eb:33:2e:f9:57:b5, 2015-01-01 00:04:11.725,-0.01,-0.025,0.998,0.061,0.061,0, , , , , , ,-1.785,0.461,-115.735
 12:17:53.696,eb:33:2e:f9:57:b5, 2015-01-01 00:04:11.725,-0.012,-0.024,0.997,0.061,0,0, , , , , , ,-1.785,0.461,-115.735
 12:17:53.696,eb:33:2e:f9:57:b5, 2015-01-01 00:04:11.725,-0.009,-0.025,0.995,0.061,0,0.061, , , , , , ,-1.785,0.461,-115.719
 12:17:53.696,eb:33:2e:f9:57:b5, 2015-01-01 00:04:11.725,-0.009,-0.024,0.997,0.061,0,0, , , , , , ,-1.785,0.461,-115.719
 12:17:53.696,eb:33:2e:f9:57:b5, 2015-01-01 00:04:11.725,-0.009,-0.025,0.997,0.061,0,0, , , , , , ,-1.785,0.461,-115.719
 12:17:53.742,eb:33:2e:f9:57:b5, 2015-01-01 00:04:11.725,-0.011,-0.025,0.996,0,0,0, , , , , , ,-1.785,0.461,-115.719
 12:17:53.742,eb:33:2e:f9:57:b5, 2015-01-01 00:04:11.725,-0.01,-0.025,0.995,0.061,0.061,0, , , , , , ,-1.785,0.461,-115.708
 12:17:53.742,eb:33:2e:f9:57:b5, 2015-01-01 00:04:11.725,-0.008,-0.025,0.997,0.061,0,0, , , , , , ,-1.785,0.461,-115.708
 12:17:53.742,eb:33:2e:f9:57:b5, 2015-01-01 00:04:11.725,-0.009,-0.026,0.997,0.061,0.061,0, , , , , , ,-1.785,0.461,-115.708
 12:17:53.742,eb:33:2e:f9:57:b5, 2015-01-01 00:04:11.725,-0.01,-0.025,0.997,0.061,0.061,0, , , , , , ,-1.785,0.461,-115.708
 12:17:53.742,eb:33:2e:f9:57:b5, 2015-01-01 00:04:11.725,-0.01,-0.025,0.996,0,0.061,0, , , , , , ,-1.785,0.461,-115.697
 12:17:53.742,eb:33:2e:f9:57:b5, 2015-01-01 00:04:11.725,-0.009,-0.025,0.996,0,0.061,0, , , , , , ,-1.785,0.461,-115.697
 12:17:53.742,eb:33:2e:f9:57:b5, 2015-01-01 00:04:11.725,-0.01,-0.025,0.997,0,0.061,-0.061, , , , , , ,-1.785,0.461,-115.697
 12:17:53.785,eb:33:2e:f9:57:b5, 2015-01-01 00:04:11.725,-0.009,-0.025,0.997,0,0.061,-0.122, , , , , , ,-1.785,0.461,-115.697
 12:17:53.785,eb:33:2e:f9:57:b5, 2015-01-01 00:04:11.725,-0.01,-0.024,0.997,0,0.061,-0.061, , , , , , ,-1.785,0.461,-115.686
 12:17:53.785,eb:33:2e:f9:57:b5, 2015-01-01 00:04:11.725,-0.01,-0.024,0.996,0,0.061,-0.122, , , , , , ,-1.785,0.461,-115.686
 12:17:53.785,eb:33:2e:f9:57:b5, 2015-01-01 00:04:11.725,-0.009,-0.025,0.997,0,0.122,-0.122, , , , , , ,-1.785,0.461,-115.686
 12:17:53.785,eb:33:2e:f9:57:b5, 2015-01-01 00:04:11.725,-0.009,-0.025,0.996,-0.061,0.122,-0.061, , , , , , ,-1.785,0.461,-115.686
 12:17:53.785,eb:33:2e:f9:57:b5, 2015-01-01 00:04:11.725,-0.009,-0.026,0.996,0,0.122,-0.061, , , , , , ,-1.785,0.461,-115.675
 12:17:53.785,eb:33:2e:f9:57:b5, 2015-01-01 00:04:11.725,-0.01,-0.025,0.997,0,0.122,-0.061, , , , , , ,-1.785,0.461,-115.675
 12:17:53.785,eb:33:2e:f9:57:b5, 2015-01-01 00:04:11.725,-0.01,-0.025,0.996,-0.061,0.122,-0.061, , , , , , ,-1.785,0.461,-115.675
 12:17:53.831,eb:33:2e:f9:57:b5, 2015-01-01 00:04:11.725,-0.01,-0.025,0.997,-0.061,0.122,-0.061, , , , , , ,-1.785,0.461,-115.675
 12:17:53.831,eb:33:2e:f9:57:b5, 2015-01-01 00:04:11.725,-0.01,-0.026,0.997,-0.061,0.183,-0.061, , , , , , ,-1.785,0.461,-115.664
 12:17:53.831,eb:33:2e:f9:57:b5, 2015-01-01 00:04:11.725,-0.01,-0.026,0.996,0,0.122,0, , , , , , ,-1.785,0.461,-115.664
 12:17:53.831,eb:33:2e:f9:57:b5, 2015-01-01 00:04:11.725,-0.01,-0.026,0.996,0,0.122,0, , , , , , ,-1.785,0.461,-115.664
 12:17:53.831,eb:33:2e:f9:57:b5, 2015-01-01 00:04:11.725,-0.01,-0.025,0.996,0,0.122,0, , , , , , ,-1.785,0.461,-115.664
 12:17:53.831,eb:33:2e:f9:57:b5, 2015-01-01 00:04:11.725,-0.01,-0.026,0.997,0,0.122,-0.061, , , , , , ,-1.785,0.461,-115.653
 12:17:53.831,eb:33:2e:f9:57:b5, 2015-01-01 00:04:11.725,-0.01,-0.025,0.997,0,0.061,0, , , , , , ,-1.785,0.461,-115.653
 12:17:53.831,eb:33:2e:f9:57:b5, 2015-01-01 00:04:11.725,-0.01,-0.025,0.997,0,0.061,0, , , , , , ,-1.785,0.461,-115.653
 12:17:53.853,eb:33:2e:f9:57:b5, 2015-01-01 00:04:11.725,-0.01,-0.025,0.996,0,0.061,0, , , , , , ,-1.785,0.461,-115.653
 12:17:53.853,eb:33:2e:f9:57:b5, 2015-01-01 00:04:11.725,-0.009,-0.025,0.996,0,0.122,0, , , , , , ,-1.785,0.461,-115.642
 12:17:53.853,eb:33:2e:f9:57:b5, 2015-01-01 00:04:11.725,-0.009,-0.026,0.997,0,0.061,0, , , , , , ,-1.785,0.461,-115.642
 12:17:53.853,eb:33:2e:f9:57:b5, 2015-01-01 00:04:11.725,-0.01,-0.026,0.996,0,0.061,0, , , , , , ,-1.785,0.461,-115.642
 12:17:53.853,eb:33:2e:f9:57:b5, 2015-01-01 00:04:11.725,-0.011,-0.026,0.997,0,0.061,0, , , , , , ,-1.785,0.461,-115.642
 12:17:53.853,eb:33:2e:f9:57:b5, 2015-01-01 00:04:11.725,-0.009,-0.026,0.996,0,0,0, , , , , , ,-1.785,0.461,-115.631
 12:17:53.853,eb:33:2e:f9:57:b5, 2015-01-01 00:04:11.725,-0.01,-0.024,0.998,0,0.061,0, , , , , , ,-1.785,0.461,-115.631
 12:17:53.853,eb:33:2e:f9:57:b5, 2015-01-01 00:04:11.725,-0.009,-0.026,0.997,0,0,0, , , , , , ,-1.785,0.461,-115.631
 12:17:53.899,eb:33:2e:f9:57:b5, 2015-01-01 00:04:11.725,-0.008,-0.026,0.997,0,0,0, , , , , , ,-1.785,0.461,-115.631
 12:17:53.899,eb:33:2e:f9:57:b5, 2015-01-01 00:04:11.725,-0.013,-0.025,0.998,0.061,0,0, , , , , , ,-1.785,0.461,-115.62
 12:17:53.899,eb:33:2e:f9:57:b5, 2015-01-01 00:04:11.725,-0.009,-0.026,0.996,0.061,0,0, , , , , , ,-1.785,0.461,-115.62
 12:17:53.899,eb:33:2e:f9:57:b5, 2015-01-01 00:04:11.725,-0.007,-0.026,0.997,0.061,0,0, , , , , , ,-1.785,0.461,-115.62
 12:17:53.899,eb:33:2e:f9:57:b5, 2015-01-01 00:04:11.725,-0.011,-0.025,0.998,0.061,0,0, , , , , , ,-1.785,0.461,-115.62
 12:17:53.899,eb:33:2e:f9:57:b5, 2015-01-01 00:04:11.725,-0.01,-0.026,0.995,0.061,0,0.122, , , , , , ,-1.785,0.461,-115.609
 12:17:53.899,eb:33:2e:f9:57:b5, 2015-01-01 00:04:11.725,-0.009,-0.026,0.997,0.061,0,0.061, , , , , , ,-1.785,0.461,-115.609
 12:17:53.900,eb:33:2e:f9:57:b5, 2015-01-01 00:04:11.725,-0.008,-0.025,0.997,0.122,0,0.061, , , , , , ,-1.785,0.461,-115.604
 12:17:53.945,eb:33:2e:f9:57:b5, 2015-01-01 00:04:11.725,-0.011,-0.025,0.997,0.122,0,0, , , , , , ,-1.785,0.461,-115.604
 12:17:53.945,eb:33:2e:f9:57:b5, 2015-01-01 00:04:11.725,-0.011,-0.026,0.997,0.122,0,0.061, , , , , , ,-1.785,0.461,-115.593
 12:17:53.945,eb:33:2e:f9:57:b5, 2015-01-01 00:04:11.725,-0.01,-0.026,0.997,0.122,-0.061,0.122, , , , , , ,-1.785,0.461,-115.593
 12:17:53.945,eb:33:2e:f9:57:b5, 2015-01-01 00:04:11.725,-0.009,-0.025,0.998,0.183,0,0.122, , , , , , ,-1.785,0.461,-115.593
 12:17:53.945,eb:33:2e:f9:57:b5, 2015-01-01 00:04:11.725,-0.01,-0.026,0.997,0.122,0,0.183, , , , , , ,-1.785,0.461,-115.593
 12:17:53.945,eb:33:2e:f9:57:b5, 2015-01-01 00:04:11.725,-0.01,-0.025,0.997,0.122,0,0.122, , , , , , ,-1.785,0.461,-115.582
 12:17:53.945,eb:33:2e:f9:57:b5, 2015-01-01 00:04:11.725,-0.009,-0.026,0.996,0.183,0,0.061, , , , , , ,-1.785,0.461,-115.582
 12:17:53.945,eb:33:2e:f9:57:b5, 2015-01-01 00:04:11.725,-0.009,-0.025,0.996,0.122,0,0.122, , , , , , ,-1.785,0.461,-115.582
 12:17:53.989,eb:33:2e:f9:57:b5, 2015-01-01 00:04:12.040,-0.009,-0.026,0.997,0.122,0,0.122, , , , , , ,-1.785,0.461,-115.582
 12:17:53.989,eb:33:2e:f9:57:b5, 2015-01-01 00:04:12.040,-0.009,-0.025,0.997,0.122,0,0.122, , , , , , ,-1.785,0.461,-115.571
 12:17:53.989,eb:33:2e:f9:57:b5, 2015-01-01 00:04:12.040,-0.009,-0.025,0.997,0.183,0,0.061, , , , , , ,-1.785,0.461,-115.571
 12:17:53.989,eb:33:2e:f9:57:b5, 2015-01-01 00:04:12.040,-0.009,-0.025,0.997,0.122,0.061,0.061, , , , , , ,-1.785,0.461,-115.571
 12:17:53.989,eb:33:2e:f9:57:b5, 2015-01-01 00:04:12.040,-0.009,-0.025,0.996,0.122,0.061,0.061, , , , , , ,-1.785,0.461,-115.571
 12:17:53.989,eb:33:2e:f9:57:b5, 2015-01-01 00:04:12.040,-0.009,-0.025,0.997,0.122,0.061,0.061, , , , , , ,-1.785,0.461,-115.56
 12:17:53.989,eb:33:2e:f9:57:b5, 2015-01-01 00:04:12.040,-0.008,-0.025,0.997,0.122,0.061,0, , , , , , ,-1.785,0.461,-115.56
 12:17:53.989,eb:33:2e:f9:57:b5, 2015-01-01 00:04:12.040,-0.009,-0.025,0.996,0.183,0.183,0.061, , , , , , ,-1.785,0.461,-115.56
 12:17:54.033,eb:33:2e:f9:57:b5, 2015-01-01 00:04:12.040,-0.009,-0.025,0.997,0.183,0.122,0, , , , , , ,-1.785,0.461,-115.56
 12:17:54.033,eb:33:2e:f9:57:b5, 2015-01-01 00:04:12.040,-0.009,-0.025,0.997,0.183,0.122,0, , , , , , ,-1.785,0.461,-115.549
 12:17:54.033,eb:33:2e:f9:57:b5, 2015-01-01 00:04:12.040,-0.009,-0.024,0.996,0.122,0.122,0, , , , , , ,-1.785,0.461,-115.549
 12:17:54.033,eb:33:2e:f9:57:b5, 2015-01-01 00:04:12.040,-0.01,-0.025,0.996,0.183,0.122,0, , , , , , ,-1.785,0.461,-115.549
 12:17:54.033,eb:33:2e:f9:57:b5, 2015-01-01 00:04:12.040,-0.01,-0.024,0.996,0.122,0.122,0, , , , , , ,-1.785,0.461,-115.549
 12:17:54.033,eb:33:2e:f9:57:b5, 2015-01-01 00:04:12.040,-0.01,-0.024,0.996,0.183,0.122,0, , , , , , ,-1.785,0.461,-115.538
 12:17:54.033,eb:33:2e:f9:57:b5, 2015-01-01 00:04:12.040,-0.01,-0.025,0.995,0.122,0.122,0, , , , , , ,-1.785,0.461,-115.538
 12:17:54.033,eb:33:2e:f9:57:b5, 2015-01-01 00:04:12.040,-0.009,-0.026,0.996,0.122,0,0.061, , , , , , ,-1.785,0.461,-115.538
 12:17:54.056,eb:33:2e:f9:57:b5, 2015-01-01 00:04:12.040,-0.01,-0.025,0.996,0.122,0.061,0, , , , , , ,-1.785,0.461,-115.538
 12:17:54.056,eb:33:2e:f9:57:b5, 2015-01-01 00:04:12.040,-0.009,-0.025,0.996,0.122,0.061,0, , , , , , ,-1.785,0.461,-115.527
 12:17:54.056,eb:33:2e:f9:57:b5, 2015-01-01 00:04:12.040,-0.01,-0.025,0.996,0.122,0.061,0, , , , , , ,-1.785,0.461,-115.527
 12:17:54.056,eb:33:2e:f9:57:b5, 2015-01-01 00:04:12.040,-0.009,-0.024,0.997,0.122,0.061,0, , , , , , ,-1.785,0.461,-115.527
 12:17:54.056,eb:33:2e:f9:57:b5, 2015-01-01 00:04:12.040,-0.01,-0.025,0.997,0.122,0.061,0, , , , , , ,-1.785,0.461,-115.527
 12:17:54.056,eb:33:2e:f9:57:b5, 2015-01-01 00:04:12.040,-0.01,-0.025,0.996,0.122,0,0, , , , , , ,-1.785,0.461,-115.516
 12:17:54.056,eb:33:2e:f9:57:b5, 2015-01-01 00:04:12.040,-0.01,-0.025,0.997,0.061,0,0.061, , , , , , ,-1.785,0.461,-115.516
 12:17:54.056,eb:33:2e:f9:57:b5, 2015-01-01 00:04:12.040,-0.009,-0.025,0.997,0.122,0.061,0, , , , , , ,-1.785,0.461,-115.516
 12:17:54.101,eb:33:2e:f9:57:b5, 2015-01-01 00:04:12.040,-0.009,-0.025,0.997,0.122,0.061,0, , , , , , ,-1.785,0.461,-115.516
 12:17:54.101,eb:33:2e:f9:57:b5, 2015-01-01 00:04:12.040,-0.009,-0.025,0.997,0.061,0.061,0, , , , , , ,-1.785,0.461,-115.505
 12:17:54.101,eb:33:2e:f9:57:b5, 2015-01-01 00:04:12.040,-0.009,-0.025,0.996,0.061,0,0, , , , , , ,-1.785,0.461,-115.505
 12:17:54.102,eb:33:2e:f9:57:b5, 2015-01-01 00:04:12.040,-0.008,-0.026,0.997,0.061,0.061,0, , , , , , ,-1.785,0.461,-115.505
 12:17:54.102,eb:33:2e:f9:57:b5, 2015-01-01 00:04:12.040,-0.009,-0.025,0.997,0.061,0.061,0, , , , , , ,-1.785,0.461,-115.505
 12:17:54.102,eb:33:2e:f9:57:b5, 2015-01-01 00:04:12.040,-0.009,-0.025,0.997,0.122,0.061,0, , , , , , ,-1.785,0.461,-115.494
 12:17:54.103,eb:33:2e:f9:57:b5, 2015-01-01 00:04:12.040,-0.009,-0.025,0.997,0.061,0.122,0, , , , , , ,-1.785,0.461,-115.494
 12:17:54.103,eb:33:2e:f9:57:b5, 2015-01-01 00:04:12.040,-0.01,-0.025,0.996,0.122,0.122,0, , , , , , ,-1.785,0.461,-115.494
 12:17:54.147,eb:33:2e:f9:57:b5, 2015-01-01 00:04:12.040,-0.01,-0.026,0.996,0.122,0.183,0, , , , , , ,-1.785,0.461,-115.494
 12:17:54.147,eb:33:2e:f9:57:b5, 2015-01-01 00:04:12.040,-0.01,-0.026,0.997,0.122,0.122,0, , , , , , ,-1.785,0.461,-115.483
 12:17:54.147,eb:33:2e:f9:57:b5, 2015-01-01 00:04:12.040,-0.009,-0.025,0.996,0.183,0.122,0, , , , , , ,-1.785,0.461,-115.483
 12:17:54.147,eb:33:2e:f9:57:b5, 2015-01-01 00:04:12.040,-0.01,-0.026,0.997,0.122,0.183,0, , , , , , ,-1.785,0.461,-115.483
