Time,Device name,Chip Time(),Acceleration X(g),Acceleration Y(g),Acceleration Z(g),Angular velocity X(°/s),Angular velocity Y(°/s),Angular velocity Z(°/s),ShiftX(mm),ShiftY(mm),ShiftZ(mm),SpeedX(mm/s),SpeedY(mm/s),SpeedZ(mm/s),Angle X(°),Angle Y(°),Angle Z(°)
 12:32:23.345,eb:33:2e:f9:57:b5, 2015-01-01 00:18:31.915,0.008,0.201,1.465,165.649,104.37,-22.339, , , , , , ,21.769,12.129,-140.109
 12:32:23.345,eb:33:2e:f9:57:b5, 2015-01-01 00:18:31.915,0.018,0.255,1.562,167.114,108.887,-22.827, , , , , , ,22.626,12.667,-140.01
 12:32:23.345,eb:33:2e:f9:57:b5, 2015-01-01 00:18:31.915,0.088,0.202,1.572,166.443,112.427,-21.606, , , , , , ,23.489,13.222,-139.889
 12:32:23.345,eb:33:2e:f9:57:b5, 2015-01-01 00:18:31.915,0.257,0.217,1.63,163.879,120.239,-20.447, , , , , , ,24.34,13.793,-139.746
 12:32:23.345,eb:33:2e:f9:57:b5, 2015-01-01 00:18:31.915,0.438,0.151,1.707,162.048,134.216,-18.982, , , , , , ,25.203,14.42,-139.559
 12:32:23.346,eb:33:2e:f9:57:b5, 2015-01-01 00:18:31.915,0.606,0.211,1.696,158.569,149.658,-18.311, , , , , , ,26.06,15.106,-139.323
 12:32:23.346,eb:33:2e:f9:57:b5, 2015-01-01 00:18:31.915,0.66,0.236,1.62,151.489,163.879,-19.531, , , , , , ,26.911,15.859,-139.048
 12:32:23.346,eb:33:2e:f9:57:b5, 2015-01-01 00:18:31.915,0.74,0.165,1.443,143.066,173.95,-19.287, , , , , , ,27.729,16.655,-138.73
 12:32:23.751,eb:33:2e:f9:57:b5, 2015-01-01 00:18:31.915,0.757,0.264,1.369,135.071,184.998,-21.118, , , , , , ,28.521,17.496,-138.378
 12:32:23.751,eb:33:2e:f9:57:b5, 2015-01-01 00:18:31.915,0.751,0.412,1.219,131.165,191.223,-26.611, , , , , , ,29.295,18.386,-138.005
 12:32:23.751,eb:33:2e:f9:57:b5, 2015-01-01 00:18:31.915,0.868,0.534,0.916,128.601,189.88,-38.574, , , , , , ,30.053,19.297,-137.664
 12:32:23.751,eb:33:2e:f9:57:b5, 2015-01-01 00:18:31.915,0.902,-0.219,-0.045,116.028,160.278,-49.438, , , , , , ,30.756,20.171,-137.395
 12:32:23.751,eb:33:2e:f9:57:b5, 2015-01-01 00:18:31.915,0.75,-1.372,-2.033,77.393,67.017,-40.344, , , , , , ,31.256,20.753,-137.307
 12:32:23.751,eb:33:2e:f9:57:b5, 2015-01-01 00:18:31.915,1.232,-0.611,-1.178,45.532,-42.297,-36.194, , , , , , ,31.481,20.847,-137.477
 12:32:23.751,eb:33:2e:f9:57:b5, 2015-01-01 00:18:31.915,1.472,-0.607,0.379,17.761,-104.797,-32.043, , , , , , ,31.487,20.577,-137.867
 12:32:23.751,eb:33:2e:f9:57:b5, 2015-01-01 00:18:31.915,1.36,-1.331,0.827,-6.409,-122.62,-24.597, , , , , , ,31.339,20.143,-138.323
 12:32:23.753,eb:33:2e:f9:57:b5, 2015-01-01 00:18:31.915,1.163,-1.772,0.609,-29.846,-125.122,-12.329, , , , , , ,31.091,19.655,-138.746
 12:32:23.753,eb:33:2e:f9:57:b5, 2015-01-01 00:18:31.915,1.034,-1.857,0.542,-49.255,-127.502,2.747, , , , , , ,30.762,19.122,-139.103
 12:32:23.753,eb:33:2e:f9:57:b5, 2015-01-01 00:18:31.915,1.073,-1.933,0.65,-61.707,-130.493,18.921, , , , , , ,30.383,18.534,-139.395
 12:32:23.753,eb:33:2e:f9:57:b5, 2015-01-01 00:18:31.915,1.197,-2.13,0.697,-70.679,-130.981,35.217, , , , , , ,29.971,17.886,-139.614
 12:32:23.753,eb:33:2e:f9:57:b5, 2015-01-01 00:18:31.915,1.304,-2.38,0.54,-81.909,-130.737,51.27, , , , , , ,29.548,17.21,-139.752
 12:32:23.754,eb:33:2e:f9:57:b5, 2015-01-01 00:18:31.915,1.364,-2.632,0.195,-101.196,-136.536,68.97, , , , , , ,29.064,16.474,-139.807
 12:32:23.754,eb:33:2e:f9:57:b5, 2015-01-01 00:18:31.915,1.422,-2.775,-0.026,-119.69,-149.902,81.055, , , , , , ,28.499,15.661,-139.818
 12:32:23.754,eb:33:2e:f9:57:b5, 2015-01-01 00:18:31.915,1.468,-2.84,-0.127,-138.245,-169.983,90.027, , , , , , ,27.834,14.738,-139.823
 12:32:23.756,eb:33:2e:f9:57:b5, 2015-01-01 00:18:31.915,1.498,-2.841,-0.118,-156.555,-193.726,96.191, , , , , , ,27.087,13.705,-139.828
 12:32:23.756,eb:33:2e:f9:57:b5, 2015-01-01 00:18:31.915,1.486,-2.798,-0.011,-176.453,-217.773,100.586, , , , , , ,26.241,12.552,-139.85
 12:32:23.756,eb:33:2e:f9:57:b5, 2015-01-01 00:18:31.915,1.41,-2.717,0.164,-199.158,-239.075,103.943, , , , , , ,25.28,11.288,-139.894
 12:32:23.756,eb:33:2e:f9:57:b5, 2015-01-01 00:18:31.915,1.287,-2.576,0.375,-225.159,-256.165,108.276, , , , , , ,24.192,9.926,-139.933
 12:32:23.756,eb:33:2e:f9:57:b5, 2015-01-01 00:18:31.915,1.186,-2.403,0.611,-252.014,-269.653,112.793, , , , , , ,22.983,8.492,-139.955
 12:32:23.756,eb:33:2e:f9:57:b5, 2015-01-01 00:18:31.915,1.036,-2.207,0.874,-276.855,-281.86,116.638, , , , , , ,21.643,6.987,-139.949
 12:32:23.756,eb:33:2e:f9:57:b5, 2015-01-01 00:18:31.915,0.907,-1.987,1.188,-297.546,-291.565,119.324, , , , , , ,20.204,5.433,-139.911
 12:32:23.756,eb:33:2e:f9:57:b5, 2015-01-01 00:18:31.915,0.77,-1.729,1.519,-315.918,-293.396,121.704, , , , , , ,18.649,3.84,-139.828
 12:32:23.908,eb:33:2e:f9:57:b5, 2015-01-01 00:18:31.915,-0.659,-1.459,1.786,-330.75,-289.551,123.23, , , , , , ,17.034,2.263,-139.691
 12:32:23.908,eb:33:2e:f9:57:b5, 2015-01-01 00:18:31.915,-0.887,1.146,2.839,-276.428,-230.591,-54.871, , , , , , ,2.543,-10.009,-139.642
 12:32:23.908,eb:33:2e:f9:57:b5, 2015-01-01 00:18:31.915,-1.068,1.146,3.085,-265.076,-191.956,-62.073, , , , , , ,1.258,-11.041,-139.982
 12:32:23.908,eb:33:2e:f9:57:b5, 2015-01-01 00:18:31.915,-1.192,1.123,3.232,-253.845,-144.531,-62.134, , , , , , ,0.016,-11.865,-140.312
 12:32:23.908,eb:33:2e:f9:57:b5, 2015-01-01 00:18:31.915,-1.25,1.084,3.2,-242.92,-95.093,-55.237, , , , , , ,-1.154,-12.437,-140.603
 12:32:23.908,eb:33:2e:f9:57:b5, 2015-01-01 00:18:31.915,-1.238,1.08,3.022,-232.239,-49.5,-45.105, , , , , , ,-2.285,-12.783,-140.845
 12:32:23.908,eb:33:2e:f9:57:b5, 2015-01-01 00:18:31.915,-1.183,1.12,2.704,-220.825,-15.564,-33.447, , , , , , ,-3.367,-12.931,-141.037
 12:32:23.908,eb:33:2e:f9:57:b5, 2015-01-01 00:18:31.915,-1.102,1.151,2.331,-208.374,6.042,-21.912, , , , , , ,-4.417,-12.953,-141.169
 12:32:23.953,eb:33:2e:f9:57:b5, 2015-01-01 00:18:31.915,-0.179,1.217,2.076,-193.054,15.015,-10.986, , , , , , ,-5.394,-12.898,-141.251
 12:32:23.953,eb:33:2e:f9:57:b5, 2015-01-01 00:18:31.915,-0.238,0.104,1.057,59.082,32.166,-17.395, , , , , , ,14.178,3.126,-149.958
 12:32:23.953,eb:33:2e:f9:57:b5, 2015-01-01 00:18:31.915,-0.273,0.067,1.026,61.707,26.55,-12.39, , , , , , ,14.48,3.279,-149.991
 12:32:23.953,eb:33:2e:f9:57:b5, 2015-01-01 00:18:31.915,-0.28,0.061,1.082,65.063,20.264,-6.897, , , , , , ,14.799,3.406,-150.007
 12:32:23.953,eb:33:2e:f9:57:b5, 2015-01-01 00:18:31.915,-0.169,0.029,1.178,70.862,13.062,-2.441, , , , , , ,15.139,3.488,-150.007
 12:32:23.953,eb:33:2e:f9:57:b5, 2015-01-01 00:18:31.915,-0.061,0.015,1.485,81.848,9.277,0.488, , , , , , ,15.524,3.538,-149.991
 12:32:23.953,eb:33:2e:f9:57:b5, 2015-01-01 00:18:31.915,-0.005,0.018,1.701,96.802,7.202,1.648, , , , , , ,15.98,3.576,-149.974
 12:32:23.953,eb:33:2e:f9:57:b5, 2015-01-01 00:18:31.915,0.058,-0.016,1.868,113.892,7.568,2.319, , , , , , ,16.512,3.604,-149.958
 12:32:23.959,eb:33:2e:f9:57:b5, 2015-01-01 00:18:31.915,0.122,-0.067,2.165,133.484,12.512,3.174, , , , , , ,17.144,3.647,-149.93
 12:32:23.959,eb:33:2e:f9:57:b5, 2015-01-01 00:18:31.915,0.263,-0.011,2.364,156.128,18.311,3.906, , , , , , ,17.88,3.719,-149.886
 12:32:23.959,eb:33:2e:f9:57:b5, 2015-01-01 00:18:31.915,0.453,-0.018,2.642,185.791,24.292,-0.427, , , , , , ,18.748,3.818,-149.843
 12:32:23.959,eb:33:2e:f9:57:b5, 2015-01-01 00:18:31.915,0.539,-0.158,3.188,218.689,43.213,-3.723, , , , , , ,19.781,3.988,-149.799
 12:32:23.959,eb:33:2e:f9:57:b5, 2015-01-01 00:18:31.915,0.784,-0.217,3.29,249.451,64.331,-7.019, , , , , , ,20.967,4.257,-149.727
 12:32:23.959,eb:33:2e:f9:57:b5, 2015-01-01 00:18:31.915,0.967,-0.175,3.579,284.18,89.172,-15.869, , , , , , ,22.324,4.642,-149.634
 12:32:23.960,eb:33:2e:f9:57:b5, 2015-01-01 00:18:31.915,1.199,-0.27,3.961,318.176,129.7,-23.499, , , , , , ,23.857,5.202,-149.507
 12:32:23.960,eb:33:2e:f9:57:b5, 2015-01-01 00:18:31.915,1.432,-0.028,3.675,358.215,157.471,-38.269, , , , , , ,25.582,5.938,-149.337
 12:32:23.960,eb:33:2e:f9:57:b5, 2015-01-01 00:18:31.915,1.535,0.03,3.667,393.005,176.086,-58.899, , , , , , ,27.499,6.801,-149.189
 12:32:23.960,eb:33:2e:f9:57:b5, 2015-01-01 00:18:31.915,1.322,-0.19,3.906,428.223,199.768,-74.707, , , , , , ,29.581,7.8,-149.03
 12:32:23.960,eb:33:2e:f9:57:b5, 2015-01-01 00:18:31.915,1.373,-0.158,4.603,464.905,237.671,-88.074, , , , , , ,31.866,8.965,-148.832
 12:32:23.960,eb:33:2e:f9:57:b5, 2015-01-01 00:18:31.915,1.36,0.004,4.491,513.611,246.094,-101.44, , , , , , ,34.371,10.261,-148.546
 12:32:23.960,eb:33:2e:f9:57:b5, 2015-01-01 00:18:31.915,0.968,0.304,4.581,539.49,239.258,-119.812, , , , , , ,37.084,11.569,-148.315
 12:32:23.960,eb:33:2e:f9:57:b5, 2015-01-01 00:18:31.915,0.737,0.456,4.415,530.64,231.201,-119.751, , , , , , ,39.82,12.865,-148.03
 12:32:23.960,eb:33:2e:f9:57:b5, 2015-01-01 00:18:31.915,0.505,0.336,4.171,511.78,205.75,-107.666, , , , , , ,42.484,14.073,-147.722
 12:32:23.960,eb:33:2e:f9:57:b5, 2015-01-01 00:18:31.915,0.72,1.217,3.092,496.46,135.681,-119.019, , , , , , ,45.027,15.068,-147.563
 12:32:23.961,eb:33:2e:f9:57:b5, 2015-01-01 00:18:31.915,0.481,1.194,1.979,462.952,51.208,-133.85, , , , , , ,47.384,15.826,-147.706
 12:32:23.961,eb:33:2e:f9:57:b5, 2015-01-01 00:18:31.915,0.058,1.119,1.637,420.349,-10.254,-147.644, , , , , , ,49.444,16.392,-148.134
 12:32:23.961,eb:33:2e:f9:57:b5, 2015-01-01 00:18:31.915,-0.207,1.182,3.175,370.667,20.874,-144.348, , , , , , ,51.251,16.952,-148.661
 12:32:23.961,eb:33:2e:f9:57:b5, 2015-01-01 00:18:31.915,-1.68,-1.793,4.93,438.232,194.092,-88.318, , , , , , ,53.311,17.754,-148.486
 12:32:23.961,eb:33:2e:f9:57:b5, 2015-01-01 00:18:31.915,-1.944,0.066,0.104,384.155,230.591,-13.245, , , , , , ,55.712,18.616,-147.651
 12:32:23.961,eb:33:2e:f9:57:b5, 2015-01-01 00:18:31.915,-1.121,0.223,-1.365,229.004,196.96,82.52, , , , , , ,57.486,19.001,-146.591
 12:32:23.961,eb:33:2e:f9:57:b5, 2015-01-01 00:18:31.915,-0.509,-0.784,-0.154,110.535,188.66,163.513, , , , , , ,58.656,18.935,-145.382
 12:32:23.961,eb:33:2e:f9:57:b5, 2015-01-01 00:18:31.915,0.018,-0.669,1.063,74.158,203.796,201.111, , , , , , ,59.513,18.627,-143.981
 12:32:23.963,eb:33:2e:f9:57:b5, 2015-01-01 00:18:31.915,0.427,-0.135,2.497,94.849,225.098,200.867, , , , , , ,60.408,18.287,-142.454
 12:32:23.963,eb:33:2e:f9:57:b5, 2015-01-01 00:18:31.915,0.602,0.583,3.614,146.545,238.831,171.387, , , , , , ,61.518,18.051,-140.894
 12:32:23.963,eb:33:2e:f9:57:b5, 2015-01-01 00:18:31.915,0.558,1.173,4.049,206.36,225.586,120.85, , , , , , ,62.875,17.963,-139.46
 12:32:23.963,eb:33:2e:f9:57:b5, 2015-01-01 00:18:31.915,0.42,1.369,3.679,254.028,186.096,61.584, , , , , , ,64.396,18.029,-138.312
 12:32:23.963,eb:33:2e:f9:57:b5, 2015-01-01 00:18:31.915,0.461,1.111,2.954,278.687,137.268,4.089, , , , , , ,66,18.237,-137.505
 12:32:23.963,eb:33:2e:f9:57:b5, 2015-01-01 00:18:31.915,0.665,0.593,2.615,281.433,97.29,-45.776, , , , , , ,67.566,18.578,-137.01
 12:32:23.963,eb:33:2e:f9:57:b5, 2015-01-01 00:18:31.915,0.888,-0.021,2.862,269.592,78.918,-87.036, , , , , , ,69.027,19.067,-136.736
 12:32:23.963,eb:33:2e:f9:57:b5, 2015-01-01 00:18:31.915,1.024,-0.632,3.378,250,84.412,-118.408, , , , , , ,70.367,19.704,-136.538
 12:32:23.997,eb:33:2e:f9:57:b5, 2015-01-01 00:18:31.915,1.112,-1.135,3.737,227.722,104.797,-141.663, , , , , , ,71.636,20.49,-136.285
 12:32:23.997,eb:33:2e:f9:57:b5, 2015-01-01 00:18:31.915,1.267,-1.464,3.756,205.139,127.563,-159.424, , , , , , ,72.834,21.396,-135.923
 12:32:23.997,eb:33:2e:f9:57:b5, 2015-01-01 00:18:31.915,1.49,-1.703,3.606,185.303,144.165,-174.622, , , , , , ,73.971,22.401,-135.472
 12:32:23.997,eb:33:2e:f9:57:b5, 2015-01-01 00:18:31.915,1.564,-1.862,3.414,168.64,153.809,-190.063, , , , , , ,75.02,23.483,-134.962
 12:32:23.997,eb:33:2e:f9:57:b5, 2015-01-01 00:18:31.915,1.611,-1.907,3.032,154.48,151.672,-204.285, , , , , , ,76.042,24.637,-134.418
 12:32:23.998,eb:33:2e:f9:57:b5, 2015-01-01 00:18:31.915,1.613,-1.845,2.668,139.099,140.503,-215.881, , , , , , ,76.987,25.834,-133.901
 12:32:23.998,eb:33:2e:f9:57:b5, 2015-01-01 00:18:31.915,1.574,-1.779,2.395,121.399,123.718,-224.243, , , , , , ,77.827,27.059,-133.462
 12:32:23.998,eb:33:2e:f9:57:b5, 2015-01-01 00:18:31.915,1.479,-1.75,2.296,102.539,104.797,-228.455, , , , , , ,78.514,28.279,-133.121
 12:32:24.067,eb:33:2e:f9:57:b5, 2015-01-01 00:18:31.915,1.345,-1.752,2.324,83.923,85.632,-228.027, , , , , , ,79.102,29.493,-132.852
 12:32:24.067,eb:33:2e:f9:57:b5, 2015-01-01 00:18:31.915,1.221,-1.762,2.425,66.101,68.787,-222.595, , , , , , ,79.557,30.668,-132.66
 12:32:24.067,eb:33:2e:f9:57:b5, 2015-01-01 00:18:31.915,1.105,-1.786,2.531,48.767,57.007,-211.67, , , , , , ,79.904,31.789,-132.534
 12:32:24.067,eb:33:2e:f9:57:b5, 2015-01-01 00:18:31.915,0.994,-1.866,2.59,31.799,49.988,-194.885, , , , , , ,80.112,32.822,-132.457
 12:32:24.067,eb:33:2e:f9:57:b5, 2015-01-01 00:18:31.915,0.898,-1.996,2.541,14.343,48.218,-172.424, , , , , , ,80.272,33.761,-132.358
 12:32:24.067,eb:33:2e:f9:57:b5, 2015-01-01 00:18:31.915,0.844,-2.165,2.432,-4.272,51.453,-144.165, , , , , , ,80.365,34.574,-132.215
 12:32:24.067,eb:33:2e:f9:57:b5, 2015-01-01 00:18:31.915,0.812,-2.346,2.272,-24.841,59.753,-111.45, , , , , , ,80.403,35.233,-132.001
 12:32:24.067,eb:33:2e:f9:57:b5, 2015-01-01 00:18:31.915,0.836,-2.494,1.988,-48.279,71.411,-75.195, , , , , , ,80.349,35.728,-131.721
 12:32:24.109,eb:33:2e:f9:57:b5, 2015-01-01 00:18:35.955,0.905,-2.587,1.636,-74.219,83.557,-37.72, , , , , , ,80.277,36.052,-131.298
 12:32:24.109,eb:33:2e:f9:57:b5, 2015-01-01 00:18:35.955,0.962,-2.609,1.225,-102.6,93.323,-1.221, , , , , , ,80.14,36.205,-130.754
 12:32:24.109,eb:33:2e:f9:57:b5, 2015-01-01 00:18:35.955,1.006,-2.575,0.738,-132.874,95.154,32.593, , , , , , ,79.887,36.194,-130.155
 12:32:24.109,eb:33:2e:f9:57:b5, 2015-01-01 00:18:35.955,1.077,-2.504,0.2,-165.894,88.135,62.378, , , , , , ,79.442,36.019,-129.573
 12:32:24.109,eb:33:2e:f9:57:b5, 2015-01-01 00:18:35.955,1.158,-2.432,-0.222,-201.05,72.205,87.341, , , , , , ,78.843,35.717,-129.001
 12:32:24.109,eb:33:2e:f9:57:b5, 2015-01-01 00:18:35.955,1.216,-2.267,-0.554,-240.173,49.5,107.3, , , , , , ,78.003,35.283,-128.518
 12:32:24.109,eb:33:2e:f9:57:b5, 2015-01-01 00:18:35.955,1.287,-1.923,-0.738,-283.325,19.958,121.704, , , , , , ,76.871,34.75,-128.167
 12:32:24.109,eb:33:2e:f9:57:b5, 2015-01-01 00:18:35.955,1.492,-1.55,-0.645,-326.66,-13.245,129.517, , , , , , ,75.383,34.135,-128.013
 12:32:24.202,eb:33:2e:f9:57:b5, 2015-01-01 00:18:35.955,1.638,-1.164,-0.119,-374.023,-43.091,130.493, , , , , , ,73.619,33.459,-127.991
 12:32:24.202,eb:33:2e:f9:57:b5, 2015-01-01 00:18:35.955,1.767,-0.897,0.259,-408.081,-59.021,125.61, , , , , , ,71.603,32.772,-128.057
 12:32:24.202,eb:33:2e:f9:57:b5, 2015-01-01 00:18:35.955,1.883,-0.695,0.421,-438.354,-72.327,115.051, , , , , , ,69.401,32.091,-128.199
 12:32:24.202,eb:33:2e:f9:57:b5, 2015-01-01 00:18:35.955,1.933,-0.567,0.418,-466.492,-87.83,99.731, , , , , , ,66.967,31.443,-128.436
 12:32:24.202,eb:33:2e:f9:57:b5, 2015-01-01 00:18:35.955,1.944,-0.5,0.32,-492.859,-110.046,80.688, , , , , , ,64.385,30.833,-128.76
 12:32:24.202,eb:33:2e:f9:57:b5, 2015-01-01 00:18:35.955,1.927,-0.453,0.26,-517.456,-139.832,59.082, , , , , , ,61.606,30.245,-129.232
 12:32:24.202,eb:33:2e:f9:57:b5, 2015-01-01 00:18:35.955,1.919,-0.434,0.372,-539.612,-174.316,37.231, , , , , , ,58.612,29.641,-129.908
 12:32:24.202,eb:33:2e:f9:57:b5, 2015-01-01 00:18:35.955,1.881,-0.464,0.675,-559.021,-205.566,16.968, , , , , , ,55.393,29.004,-130.787
 12:32:24.202,eb:33:2e:f9:57:b5, 2015-01-01 00:18:35.955,1.802,-0.525,1.026,-576.172,-229.126,0, , , , , , ,52.07,28.323,-131.776
 12:32:24.202,eb:33:2e:f9:57:b5, 2015-01-01 00:18:35.955,1.722,-0.578,1.327,-591.736,-244.446,-13.367, , , , , , ,48.636,27.592,-132.847
 12:32:24.202,eb:33:2e:f9:57:b5, 2015-01-01 00:18:35.955,1.709,-0.569,1.589,-605.408,-252.136,-24.719, , , , , , ,45.132,26.818,-133.945
 12:32:24.202,eb:33:2e:f9:57:b5, 2015-01-01 00:18:35.955,1.717,-0.447,1.843,-617.004,-253.418,-36.743, , , , , , ,41.539,25.988,-135.071
 12:32:24.202,eb:33:2e:f9:57:b5, 2015-01-01 00:18:35.955,1.663,-0.245,2.016,-624.329,-255.005,-50.842, , , , , , ,37.958,25.159,-136.165
 12:32:24.202,eb:33:2e:f9:57:b5, 2015-01-01 00:18:35.955,1.567,-0.068,2.084,-624.512,-263.062,-66.467, , , , , , ,34.365,24.291,-137.269
 12:32:24.202,eb:33:2e:f9:57:b5, 2015-01-01 00:18:35.955,1.387,0.042,2.166,-616.882,-277.344,-80.261, , , , , , ,30.8,23.346,-138.417
 12:32:24.202,eb:33:2e:f9:57:b5, 2015-01-01 00:18:35.955,1.066,0.102,2.246,-602.783,-293.823,-87.708, , , , , , ,27.263,22.28,-139.598
 12:32:24.405,eb:33:2e:f9:57:b5, 2015-01-01 00:18:35.955,0.733,0.08,2.216,-582.031,-312.744,-84.9, , , , , , ,23.89,21.094,-140.729
 12:32:24.405,eb:33:2e:f9:57:b5, 2015-01-01 00:18:35.955,0.548,-0.068,2.171,-554.749,-333.13,-70.435, , , , , , ,20.698,19.737,-141.762
 12:32:24.405,eb:33:2e:f9:57:b5, 2015-01-01 00:18:35.955,0.383,-0.205,2.215,-525.879,-350.403,-46.509, , , , , , ,17.721,18.204,-142.646
 12:32:24.405,eb:33:2e:f9:57:b5, 2015-01-01 00:18:35.955,0.272,-0.181,2.144,-501.343,-366.455,-16.052, , , , , , ,14.925,16.496,-143.333
 12:32:24.405,eb:33:2e:f9:57:b5, 2015-01-01 00:18:35.955,0.255,0.029,2.021,-483.704,-386.23,17.578, , , , , , ,12.354,14.656,-143.778
 12:32:24.405,eb:33:2e:f9:57:b5, 2015-01-01 00:18:35.955,0.28,0.421,2.111,-469.91,-405.273,48.95, , , , , , ,9.926,12.667,-143.981
 12:32:24.405,eb:33:2e:f9:57:b5, 2015-01-01 00:18:35.955,0.204,1.018,2.434,-453.735,-419.067,74.341, , , , , , ,7.625,10.574,-143.981
 12:32:24.405,eb:33:2e:f9:57:b5, 2015-01-01 00:18:35.955,0.015,1.789,2.745,-430.664,-429.26,92.346, , , , , , ,5.416,8.383,-143.806
 12:32:24.493,eb:33:2e:f9:57:b5, 2015-01-01 00:18:35.955,-0.241,2.598,2.922,-400.33,-436.523,102.234, , , , , , ,3.389,6.185,-143.476
 12:32:24.493,eb:33:2e:f9:57:b5, 2015-01-01 00:18:35.955,-0.553,3.315,3.022,-364.624,-440.857,105.408, , , , , , ,1.533,3.966,-143.042
 12:32:24.493,eb:33:2e:f9:57:b5, 2015-01-01 00:18:35.955,-0.939,3.901,3.186,-325.745,-439.27,104.004, , , , , , ,-0.148,1.758,-142.542
 12:32:24.493,eb:33:2e:f9:57:b5, 2015-01-01 00:18:35.955,-1.323,4.469,3.503,-283.63,-426.27,98.877, , , , , , ,-1.681,-0.417,-142.009
 12:32:24.493,eb:33:2e:f9:57:b5, 2015-01-01 00:18:35.955,-1.727,5.149,4.009,-234.436,-395.691,89.233, , , , , , ,-2.966,-2.444,-141.454
 12:32:24.493,eb:33:2e:f9:57:b5, 2015-01-01 00:18:35.955,-2.139,5.932,4.633,-176.27,-349.609,73.425, , , , , , ,-3.999,-4.263,-140.938
 12:32:24.493,eb:33:2e:f9:57:b5, 2015-01-01 00:18:35.955,-2.428,6.777,5.106,-115.234,-298.401,47.424, , , , , , ,-4.735,-5.828,-140.521
 12:32:24.494,eb:33:2e:f9:57:b5, 2015-01-01 00:18:35.955,-2.539,7.599,5.104,-61.646,-254.211,8.118, , , , , , ,-5.197,-7.191,-140.279
 12:32:24.494,eb:33:2e:f9:57:b5, 2015-01-01 00:18:35.955,-2.639,8.355,4.804,-22.766,-217.224,-41.992, , , , , , ,-5.383,-8.35,-140.279
 12:32:24.494,eb:33:2e:f9:57:b5, 2015-01-01 00:18:35.955,-2.896,8.891,4.437,4.028,-179.932,-101.379, , , , , , ,-5.367,-9.36,-140.576
 12:32:24.494,eb:33:2e:f9:57:b5, 2015-01-01 00:18:35.955,-3.331,9.064,3.942,30.884,-133.118,-174.683, , , , , , ,-5.158,-10.184,-141.235
 12:32:24.494,eb:33:2e:f9:57:b5, 2015-01-01 00:18:35.955,-3.776,8.836,3.639,57.922,-104.187,-232.178, , , , , , ,-4.752,-10.865,-142.245
 12:32:24.494,eb:33:2e:f9:57:b5, 2015-01-01 00:18:35.955,-3.997,8.286,3.333,90.881,-93.567,-282.532, , , , , , ,-4.114,-11.448,-143.542
 12:32:24.494,eb:33:2e:f9:57:b5, 2015-01-01 00:18:35.955,-4.047,7.538,2.846,123.047,-91.919,-318.909, , , , , , ,-3.252,-12.008,-145.069
 12:32:24.494,eb:33:2e:f9:57:b5, 2015-01-01 00:18:35.955,-4.01,6.724,2.389,151.672,-84.229,-337.28, , , , , , ,-2.197,-12.524,-146.739
 12:32:24.494,eb:33:2e:f9:57:b5, 2015-01-01 00:18:35.955,-3.855,5.842,2.199,179.199,-63.354,-339.355, , , , , , ,-0.972,-12.947,-148.475
 12:32:24.498,eb:33:2e:f9:57:b5, 2015-01-01 00:18:35.955,-3.609,4.909,2.17,203.979,-27.649,-327.759, , , , , , ,0.379,-13.173,-150.183
 12:32:24.498,eb:33:2e:f9:57:b5, 2015-01-01 00:18:35.955,-3.333,3.979,2.067,223.328,17.212,-305.42, , , , , , ,1.829,-13.151,-151.798
 12:32:24.498,eb:33:2e:f9:57:b5, 2015-01-01 00:18:35.955,-3.072,3.117,1.775,237.549,59.326,-275.574, , , , , , ,3.318,-12.87,-153.265
 12:32:24.498,eb:33:2e:f9:57:b5, 2015-01-01 00:18:35.955,-2.817,2.308,1.333,250.732,88.074,-241.028, , , , , , ,4.828,-12.398,-154.539
 12:32:24.498,eb:33:2e:f9:57:b5, 2015-01-01 00:18:35.955,-2.534,1.505,0.859,267.212,98.206,-204.834, , , , , , ,6.356,-11.816,-155.61
 12:32:24.498,eb:33:2e:f9:57:b5, 2015-01-01 00:18:35.955,-4.167,0.68,0.497,286.255,92.346,-164.673, , , , , , ,7.921,-11.223,-156.467
 12:32:24.498,eb:33:2e:f9:57:b5, 2015-01-01 00:18:35.955,-2.616,4.355,5.093,-69.153,10.986,-73.853, , , , , , ,8.586,-11.404,-157.115
 12:32:24.498,eb:33:2e:f9:57:b5, 2015-01-01 00:18:35.955,-2.294,-2.125,4.602,-245.544,634.705,198.12, , , , , , ,7.526,-9.366,-156.209
 12:32:24.500,eb:33:2e:f9:57:b5, 2015-01-01 00:18:35.955,1.214,-0.73,-0.548,-377.808,703.552,223.206, , , , , , ,5.647,-5.878,-154.572
 12:32:24.500,eb:33:2e:f9:57:b5, 2015-01-01 00:18:35.955,0.098,6.096,-4.894,-330.139,182.617,-90.881, , , , , , ,3.812,-3.878,-154.221
 12:32:24.501,eb:33:2e:f9:57:b5, 2015-01-01 00:18:35.955,-1.94,-3.604,6.895,-281.189,284.912,-33.875, , , , , , ,2.258,-2.736,-154.616
 12:32:24.501,eb:33:2e:f9:57:b5, 2015-01-01 00:18:35.955,1.332,-3.563,4.407,-122.253,223.755,13.062, , , , , , ,1.313,-1.335,-154.501
 12:32:24.501,eb:33:2e:f9:57:b5, 2015-01-01 00:18:35.955,-1.979,-1.075,3.535,-27.405,215.332,-26.184, , , , , , ,1.049,-0.341,-154.66
 12:32:24.501,eb:33:2e:f9:57:b5, 2015-01-01 00:18:35.955,-0.526,-0.656,0.416,8.423,99.792,-7.08, , , , , , ,1.049,0.319,-154.693
 12:32:24.501,eb:33:2e:f9:57:b5, 2015-01-01 00:18:35.955,-0.614,0.139,0.774,8.545,79.041,-6.226, , , , , , ,1.077,0.797,-154.698
 12:32:24.501,eb:33:2e:f9:57:b5, 2015-01-01 00:18:35.955,-0.489,-0.544,0.992,19.958,53.406,11.108, , , , , , ,1.159,1.115,-154.671
 12:32:24.501,eb:33:2e:f9:57:b5, 2015-01-01 00:18:35.955,0.02,-0.13,0.769,22.4,33.142,17.578, , , , , , ,1.274,1.313,-154.594
 12:32:24.501,eb:33:2e:f9:57:b5, 2015-01-01 00:18:35.955,-0.058,0.018,1.549,64.453,19.836,-5.92, , , , , , ,2.686,3.23,-154.27
 12:32:24.501,eb:33:2e:f9:57:b5, 2015-01-01 00:18:35.955,-0.093,-0.084,1.743,81.36,13,-12.756, , , , , , ,3.054,3.312,-154.319
 12:32:24.501,eb:33:2e:f9:57:b5, 2015-01-01 00:18:35.955,-0.219,-0.146,1.922,97.839,5.981,-17.395, , , , , , ,3.51,3.362,-154.396
 12:32:24.501,eb:33:2e:f9:57:b5, 2015-01-01 00:18:35.955,-0.166,-0.359,2.221,123.352,0.366,-18.494, , , , , , ,4.065,3.384,-154.484
 12:32:24.501,eb:33:2e:f9:57:b5, 2015-01-01 00:18:35.955,-0.118,-0.415,2.305,150.574,-7.263,-20.752, , , , , , ,4.757,3.367,-154.583
 12:32:24.501,eb:33:2e:f9:57:b5, 2015-01-01 00:18:35.955,-0.123,-0.453,2.273,178.711,-13.611,-21.667, , , , , , ,5.587,3.318,-154.693
 12:32:24.501,eb:33:2e:f9:57:b5, 2015-01-01 00:18:35.955,0.037,-0.642,2.639,211.792,-11.353,-20.752, , , , , , ,6.575,3.268,-154.808
 12:32:24.583,eb:33:2e:f9:57:b5, 2015-01-01 00:18:35.955,1.537,-0.668,2.92,254.272,-9.888,-21.606, , , , , , ,7.751,3.23,-154.918
 12:32:24.583,eb:33:2e:f9:57:b5, 2015-01-01 00:18:35.955,1.333,-1,4.902,601.379,250.916,-76.233, , , , , , ,27.664,7.202,-155.034
 12:32:24.583,eb:33:2e:f9:57:b5, 2015-01-01 00:18:35.955,1.333,-0.906,5.757,642.761,269.165,-88.562, , , , , , ,30.833,8.553,-154.759
 12:32:24.583,eb:33:2e:f9:57:b5, 2015-01-01 00:18:35.955,0.949,-1.058,6.23,668.396,293.884,-85.205, , , , , , ,34.184,9.976,-154.358
 12:32:24.583,eb:33:2e:f9:57:b5, 2015-01-01 00:18:35.955,0.352,-0.889,6.358,664.246,327.576,-73.303, , , , , , ,37.656,11.47,-153.748
 12:32:24.583,eb:33:2e:f9:57:b5, 2015-01-01 00:18:35.955,0.345,-0.377,5.358,624.573,329.773,-51.208, , , , , , ,41.05,12.942,-152.886
 12:32:24.583,eb:33:2e:f9:57:b5, 2015-01-01 00:18:35.955,0.612,0.418,4.199,544.25,305.969,-33.447, , , , , , ,44.171,14.233,-151.946
 12:32:24.583,eb:33:2e:f9:57:b5, 2015-01-01 00:18:35.955,0.542,-0.282,2.795,461.609,298.34,-7.08, , , , , , ,46.89,15.359,-150.897
 12:32:24.672,eb:33:2e:f9:57:b5, 2015-01-01 00:18:35.955,0.792,-0.019,2.191,409.302,284.668,7.446, , , , , , ,49.323,16.331,-149.793
 12:32:24.672,eb:33:2e:f9:57:b5, 2015-01-01 00:18:35.955,0.109,-0.816,2.865,444.702,330.688,31.921, , , , , , ,51.801,17.232,-148.491
 12:32:24.672,eb:33:2e:f9:57:b5, 2015-01-01 00:18:35.955,-1.126,0.189,0.735,484.375,317.688,58.044, , , , , , ,54.712,18.051,-146.931
 12:32:24.673,eb:33:2e:f9:57:b5, 2015-01-01 00:18:35.955,-0.517,2.272,-2.386,330.627,215.698,118.408, , , , , , ,57.107,18.375,-145.541
 12:32:24.673,eb:33:2e:f9:57:b5, 2015-01-01 00:18:35.955,0.342,0.692,-0.472,205.078,171.875,167.358, , , , , , ,58.755,18.232,-144.316
 12:32:24.673,eb:33:2e:f9:57:b5, 2015-01-01 00:18:35.955,0.754,-0.137,1.284,114.014,216.98,218.445, , , , , , ,59.925,17.869,-142.905
 12:32:24.673,eb:33:2e:f9:57:b5, 2015-01-01 00:18:35.955,1.043,-0.25,2.873,83.679,291.382,251.587, , , , , , ,60.93,17.468,-141.086
 12:32:24.673,eb:33:2e:f9:57:b5, 2015-01-01 00:18:35.955,0.992,0.206,3.991,108.948,352.051,260.925, , , , , , ,62.029,17.117,-138.928
 12:32:24.676,eb:33:2e:f9:57:b5, 2015-01-01 00:18:35.955,0.827,0.713,4.373,178.772,356.75,244.08, , , , , , ,63.435,16.82,-136.642
 12:32:24.676,eb:33:2e:f9:57:b5, 2015-01-01 00:18:35.955,0.823,1.134,3.974,264.954,294.617,204.468, , , , , , ,65.171,16.523,-134.615
 12:32:24.676,eb:33:2e:f9:57:b5, 2015-01-01 00:18:35.955,0.901,1.296,3.259,331.848,208.923,153.687, , , , , , ,67.137,16.216,-133.088
 12:32:24.676,eb:33:2e:f9:57:b5, 2015-01-01 00:18:35.955,0.945,0.999,2.785,365.784,135.559,99.243, , , , , , ,69.175,15.958,-132.072
 12:32:24.676,eb:33:2e:f9:57:b5, 2015-01-01 00:18:35.955,0.993,0.436,2.737,371.033,84.656,47.119, , , , , , ,71.197,15.815,-131.451
 12:32:24.676,eb:33:2e:f9:57:b5, 2015-01-01 00:18:35.955,1.109,-0.042,3.061,355.835,60.486,-3.54, , , , , , ,73.114,15.842,-131.078
 12:32:24.676,eb:33:2e:f9:57:b5, 2015-01-01 00:18:35.955,1.264,-0.374,3.593,318.481,59.021,-58.35, , , , , , ,74.855,16.095,-130.842
 12:32:24.676,eb:33:2e:f9:57:b5, 2015-01-01 00:18:35.955,1.519,-0.487,3.889,279.419,72.327,-100.403, , , , , , ,76.371,16.578,-130.627
 12:32:24.718,eb:33:2e:f9:57:b5, 2015-01-01 00:18:35.955,1.766,-0.604,4.094,242.004,88.196,-141.541, , , , , , ,77.734,17.281,-130.353
 12:32:24.718,eb:33:2e:f9:57:b5, 2015-01-01 00:18:35.955,1.917,-0.792,4.184,213.074,98.328,-183.044, , , , , , ,78.942,18.193,-130.034
 12:32:24.718,eb:33:2e:f9:57:b5, 2015-01-01 00:18:35.955,1.984,-0.975,4.039,191.223,98.145,-221.863, , , , , , ,80.046,19.297,-129.716
 12:32:24.718,eb:33:2e:f9:57:b5, 2015-01-01 00:18:35.955,2.006,-1.167,3.756,174.194,84.29,-257.568, , , , , , ,81.002,20.566,-129.468
 12:32:24.718,eb:33:2e:f9:57:b5, 2015-01-01 00:18:35.955,1.891,-1.316,3.453,157.532,59.814,-286.621, , , , , , ,81.881,21.984,-129.315
 12:32:24.718,eb:33:2e:f9:57:b5, 2015-01-01 00:18:35.955,1.712,-1.453,3.164,140.259,27.588,-307.861, , , , , , ,82.617,23.494,-129.309
 12:32:24.718,eb:33:2e:f9:57:b5, 2015-01-01 00:18:35.955,1.505,-1.639,3.052,123.291,-6.531,-319.641, , , , , , ,83.194,25.071,-129.485
 12:32:24.718,eb:33:2e:f9:57:b5, 2015-01-01 00:18:35.955,1.305,-1.892,3.138,107.727,-34.302,-320.557, , , , , , ,83.573,26.642,-129.842
 12:32:24.718,eb:33:2e:f9:57:b5, 2015-01-01 00:18:35.955,1.113,-2.153,3.346,93.323,-48.157,-310.669, , , , , , ,83.864,28.185,-130.287
 12:32:24.718,eb:33:2e:f9:57:b5, 2015-01-01 00:18:35.955,0.938,-2.368,3.524,78.43,-47.119,-290.039, , , , , , ,84.067,29.647,-130.737
 12:32:24.719,eb:33:2e:f9:57:b5, 2015-01-01 00:18:35.955,0.832,-2.583,3.584,61.34,-29.907,-260.437, , , , , , ,84.216,30.987,-131.116
 12:32:24.719,eb:33:2e:f9:57:b5, 2015-01-01 00:18:35.955,0.818,-2.771,3.518,42.297,0.061,-223.694, , , , , , ,84.304,32.157,-131.364
 12:32:24.719,eb:33:2e:f9:57:b5, 2015-01-01 00:18:35.955,0.821,-2.91,3.28,20.691,37.109,-182.434, , , , , , ,84.463,33.162,-131.347
 12:32:24.719,eb:33:2e:f9:57:b5, 2015-01-01 00:18:35.955,0.822,-2.957,2.811,-3.662,73.12,-138.794, , , , , , ,84.639,33.964,-131.072
 12:32:24.719,eb:33:2e:f9:57:b5, 2015-01-01 00:18:35.955,0.853,-2.946,2.253,-28.931,98.206,-95.642, , , , , , ,84.814,34.568,-130.6
 12:32:24.719,eb:33:2e:f9:57:b5, 2015-01-01 00:18:35.955,0.937,-2.933,1.754,-52.307,107.605,-56.946, , , , , , ,84.88,34.969,-130.034
 12:32:24.722,eb:33:2e:f9:57:b5, 2015-01-01 00:18:35.955,1.004,-2.901,1.304,-73.975,103.882,-24.231, , , , , , ,84.913,35.195,-129.408
 12:32:24.722,eb:33:2e:f9:57:b5, 2015-01-01 00:18:35.955,1.074,-2.857,0.806,-94.116,87.463,3.052, , , , , , ,84.814,35.277,-128.826
 12:32:24.722,eb:33:2e:f9:57:b5, 2015-01-01 00:18:35.955,1.177,-2.798,0.271,-114.319,60.242,24.414, , , , , , ,84.54,35.228,-128.381
 12:32:24.722,eb:33:2e:f9:57:b5, 2015-01-01 00:18:35.955,1.17,-2.75,-0.185,-138,29.724,41.138, , , , , , ,84.001,35.074,-128.139
 12:32:24.722,eb:33:2e:f9:57:b5, 2015-01-01 00:18:35.955,1.195,-2.715,-0.721,-166.931,-5.188,54.932, , , , , , ,83.276,34.827,-128.051
 12:32:24.722,eb:33:2e:f9:57:b5, 2015-01-01 00:18:35.955,1.213,-2.642,-1.164,-203.552,-40.039,65.979, , , , , , ,82.271,34.508,-128.156
 12:32:24.722,eb:33:2e:f9:57:b5, 2015-01-01 00:18:35.955,1.225,-2.466,-1.5,-248.413,-77.148,74.524, , , , , , ,80.953,34.107,-128.463
 12:32:24.722,eb:33:2e:f9:57:b5, 2015-01-01 00:18:35.955,1.284,-2.269,-1.582,-299.377,-115.845,80.383, , , , , , ,79.211,33.629,-129.012
 12:32:24.763,eb:33:2e:f9:57:b5, 2015-01-01 00:18:35.955,1.378,-2.127,-1.193,-349.976,-150.513,82.153, , , , , , ,77.179,33.091,-129.721
 12:32:24.763,eb:33:2e:f9:57:b5, 2015-01-01 00:18:35.955,1.438,-1.939,-0.551,-397.095,-176.941,79.59, , , , , , ,74.822,32.498,-130.562
 12:32:24.763,eb:33:2e:f9:57:b5, 2015-01-01 00:18:35.955,1.452,-1.707,-0.023,-441.345,-196.289,74.28, , , , , , ,72.202,31.86,-131.506
 12:32:24.763,eb:33:2e:f9:57:b5, 2015-01-01 00:18:35.955,1.476,-1.556,0.364,-483.582,-208.557,68.176, , , , , , ,69.291,31.185,-132.534
 12:32:24.763,eb:33:2e:f9:57:b5, 2015-01-01 00:18:35.955,1.527,-1.477,0.749,-524.292,-212.769,62.622, , , , , , ,66.242,30.482,-133.533
 12:32:24.763,eb:33:2e:f9:57:b5, 2015-01-01 00:18:35.955,1.543,-1.353,1.132,-564.453,-210.083,57.068, , , , , , ,63.018,29.762,-134.484
 12:32:24.763,eb:33:2e:f9:57:b5, 2015-01-01 00:18:35.955,1.579,-1.167,1.397,-602.478,-208.496,50.476, , , , , , ,59.634,29.026,-135.39
 12:32:24.763,eb:33:2e:f9:57:b5, 2015-01-01 00:18:35.955,1.675,-0.98,1.575,-635.986,-211.487,41.382, , , , , , ,56.041,28.262,-136.296
 12:32:24.808,eb:33:2e:f9:57:b5, 2015-01-01 00:18:36.650,1.777,-0.78,1.755,-668.335,-220.276,26.794, , , , , , ,52.355,27.499,-137.181
 12:32:24.808,eb:33:2e:f9:57:b5, 2015-01-01 00:18:36.650,1.802,-0.628,1.874,-687.378,-232.239,11.292, , , , , , ,48.532,26.708,-138.093
 12:32:24.808,eb:33:2e:f9:57:b5, 2015-01-01 00:18:36.650,1.764,-0.513,1.914,-699.158,-253.784,-5.981, , , , , , ,44.621,25.862,-139.081
 12:32:24.808,eb:33:2e:f9:57:b5, 2015-01-01 00:18:36.650,1.707,-0.424,1.965,-706.238,-282.593,-22.156, , , , , , ,40.583,24.901,-140.191
 12:32:24.809,eb:33:2e:f9:57:b5, 2015-01-01 00:18:36.650,1.619,-0.371,2.11,-711.548,-310.303,-33.386, , , , , , ,36.562,23.818,-141.339
 12:32:24.809,eb:33:2e:f9:57:b5, 2015-01-01 00:18:36.650,1.429,-0.332,2.316,-716.37,-330.627,-37.598, , , , , , ,32.531,22.593,-142.498
 12:32:24.809,eb:33:2e:f9:57:b5, 2015-01-01 00:18:36.650,1.09,-0.241,2.489,-716.919,-345.581,-34.424, , , , , , ,28.531,21.22,-143.597
 12:32:24.809,eb:33:2e:f9:57:b5, 2015-01-01 00:18:36.650,0.618,-0.16,2.615,-706.238,-363.892,-23.743, , , , , , ,24.576,19.666,-144.608
 12:32:24.853,eb:33:2e:f9:57:b5, 2015-01-01 00:18:36.650,0.262,-0.163,2.737,-681.335,-388.123,-3.296, , , , , , ,20.847,17.946,-145.437
 12:32:24.853,eb:33:2e:f9:57:b5, 2015-01-01 00:18:36.650,0.031,-0.12,3.081,-646.057,-402.71,24.292, , , , , , ,17.358,16.046,-146.052
 12:32:24.853,eb:33:2e:f9:57:b5, 2015-01-01 00:18:36.650,-0.192,0.092,3.428,-609.375,-398.621,59.265, , , , , , ,14.15,14.052,-146.393
 12:32:24.853,eb:33:2e:f9:57:b5, 2015-01-01 00:18:36.650,-0.347,0.472,3.533,-576.843,-383.545,96.802, , , , , , ,11.146,12.03,-146.437
 12:32:24.853,eb:33:2e:f9:57:b5, 2015-01-01 00:18:36.650,-0.444,1.063,3.424,-550.659,-369.446,129.761, , , , , , ,8.394,10.085,-146.173
 12:32:24.853,eb:33:2e:f9:57:b5, 2015-01-01 00:18:36.650,-0.43,1.82,3.218,-530.334,-363.22,152.283, , , , , , ,5.779,8.185,-145.673
 12:32:24.853,eb:33:2e:f9:57:b5, 2015-01-01 00:18:36.650,-0.416,2.708,3.032,-514.587,-361.572,161.133, , , , , , ,3.257,6.317,-145.02
 12:32:24.854,eb:33:2e:f9:57:b5, 2015-01-01 00:18:36.650,-0.538,3.654,2.809,-496.46,-366.943,155.09, , , , , , ,0.758,4.444,-144.3
 12:32:25.033,eb:33:2e:f9:57:b5, 2015-01-01 00:18:36.650,-0.739,4.495,2.54,-468.933,-384.46,135.559, , , , , , ,-1.599,2.565,-143.564
 12:32:25.033,eb:33:2e:f9:57:b5, 2015-01-01 00:18:36.650,-1.025,5.115,2.554,-431.763,-405.212,108.826, , , , , , ,-3.818,0.61,-142.866
 12:32:25.033,eb:33:2e:f9:57:b5, 2015-01-01 00:18:36.650,-1.359,5.568,2.953,-390.442,-414.612,81.909, , , , , , ,-5.856,-1.401,-142.229
 12:32:25.033,eb:33:2e:f9:57:b5, 2015-01-01 00:18:36.650,-1.715,5.989,3.634,-350.159,-401.428,58.655, , , , , , ,-7.751,-3.417,-141.658
 12:32:25.033,eb:33:2e:f9:57:b5, 2015-01-01 00:18:36.650,-2.104,6.416,4.366,-312.744,-362.976,39.795, , , , , , ,-9.426,-5.262,-141.136
 12:32:25.033,eb:33:2e:f9:57:b5, 2015-01-01 00:18:36.650,-2.477,6.826,4.863,-275.696,-306.763,23.499, , , , , , ,-10.926,-6.861,-140.696
 12:32:25.033,eb:33:2e:f9:57:b5, 2015-01-01 00:18:36.650,-2.783,7.224,4.996,-232.971,-248.047,7.324, , , , , , ,-12.228,-8.174,-140.35
 12:32:25.034,eb:33:2e:f9:57:b5, 2015-01-01 00:18:36.650,-2.99,7.67,4.84,-180.054,-202.942,-12.085, , , , , , ,-13.304,-9.267,-140.125
 12:32:25.079,eb:33:2e:f9:57:b5, 2015-01-01 00:18:36.650,-3.05,8.118,4.533,-117.126,-178.65,-39.49, , , , , , ,-14.03,-10.206,-140.037
 12:32:25.079,eb:33:2e:f9:57:b5, 2015-01-01 00:18:36.650,-3.026,8.485,4.227,-52.612,-169.25,-73.975, , , , , , ,-14.409,-11.118,-140.114
 12:32:25.079,eb:33:2e:f9:57:b5, 2015-01-01 00:18:36.650,-3.115,8.643,3.994,5.127,-162.903,-110.046, , , , , , ,-14.442,-12.041,-140.378
 12:32:25.079,eb:33:2e:f9:57:b5, 2015-01-01 00:18:36.650,-3.333,8.397,3.931,57.068,-152.283,-143.372, , , , , , ,-14.178,-12.975,-140.823
 12:32:25.079,eb:33:2e:f9:57:b5, 2015-01-01 00:18:36.650,-3.569,7.718,3.979,106.628,-131.653,-168.945, , , , , , ,-13.596,-13.854,-141.449
 12:32:25.079,eb:33:2e:f9:57:b5, 2015-01-01 00:18:36.650,-3.725,6.844,3.894,152.161,-99.609,-183.35, , , , , , ,-12.739,-14.606,-142.207
 12:32:25.079,eb:33:2e:f9:57:b5, 2015-01-01 00:18:36.650,-3.729,5.96,3.517,189.148,-60.12,-185.852, , , , , , ,-11.64,-15.178,-143.064
 12:32:25.079,eb:33:2e:f9:57:b5, 2015-01-01 00:18:36.650,-3.623,5.095,2.911,217.529,-20.63,-180.176, , , , , , ,-10.371,-15.535,-143.959
 12:32:25.145,eb:33:2e:f9:57:b5, 2015-01-01 00:18:36.650,-3.398,4.271,2.215,242.737,7.996,-170.471, , , , , , ,-8.97,-15.694,-144.849
 12:32:25.145,eb:33:2e:f9:57:b5, 2015-01-01 00:18:36.650,-3.078,3.44,1.647,269.165,22.705,-160.4, , , , , , ,-7.443,-15.727,-145.706
 12:32:25.145,eb:33:2e:f9:57:b5, 2015-01-01 00:18:36.650,-2.846,2.33,1.048,302.124,24.475,-147.949, , , , , , ,-5.784,-15.688,-146.514
 12:32:25.145,eb:33:2e:f9:57:b5, 2015-01-01 00:18:36.650,-2.734,1.299,0.517,328.43,15.015,-133.362, , , , , , ,-3.994,-15.656,-147.244
 12:32:25.145,eb:33:2e:f9:57:b5, 2015-01-01 00:18:36.650,4.816,0.282,0.045,356.873,-23.132,-109.375, , , , , , ,-2.104,-15.683,-147.87
 12:32:25.145,eb:33:2e:f9:57:b5, 2015-01-01 00:18:36.650,3.733,4.943,7.352,419.434,422.424,-238.281, , , , , , ,0.247,-15.013,-148.975
 12:32:25.145,eb:33:2e:f9:57:b5, 2015-01-01 00:18:36.650,9.333,2.459,-1.449,-14.221,683.594,6.409, , , , , , ,1.285,-13.09,-149.376
 12:32:25.145,eb:33:2e:f9:57:b5, 2015-01-01 00:18:36.650,-7.12,11.169,3.149,-244.568,1141.113,-14.526, , , , , , ,0.434,-8.152,-149.464
 12:32:25.148,eb:33:2e:f9:57:b5, 2015-01-01 00:18:36.650,-4.839,-1.381,-3.115,-86.487,574.097,63.782, , , , , , ,-0.401,-4.131,-148.793
 12:32:25.148,eb:33:2e:f9:57:b5, 2015-01-01 00:18:36.650,0.074,-1.635,-0.713,48.523,272.766,-19.958, , , , , , ,-0.417,-2.197,-148.645
 12:32:25.148,eb:33:2e:f9:57:b5, 2015-01-01 00:18:36.650,-0.235,-0.641,1.175,71.045,228.455,-5.981, , , , , , ,-0.055,-1.027,-148.755
 12:32:25.148,eb:33:2e:f9:57:b5, 2015-01-01 00:18:36.650,-3.683,0.193,1.331,44.495,266.174,35.278, , , , , , ,0.209,0.286,-148.563
 12:32:25.148,eb:33:2e:f9:57:b5, 2015-01-01 00:18:36.650,-2.603,-0.487,-1.474,42.297,103.76,5.676, , , , , , ,0.417,1.181,-148.519
 12:32:25.148,eb:33:2e:f9:57:b5, 2015-01-01 00:18:36.650,0.548,-0.675,-0.359,39.917,-5.615,39.124, , , , , , ,0.632,1.313,-148.359
 12:32:25.148,eb:33:2e:f9:57:b5, 2015-01-01 00:18:36.650,0.318,0.612,1.221,33.508,9.949,8.362, , , , , , ,0.807,1.296,-148.255
 12:32:25.148,eb:33:2e:f9:57:b5, 2015-01-01 00:18:36.650,-0.106,0.047,1.376,39.673,26.855,0.61, , , , , , ,1,1.417,-148.25
 12:32:25.150,eb:33:2e:f9:57:b5, 2015-01-01 00:18:36.650,-0.371,-0.292,1.685,55.115,21.545,12.39, , , , , , ,1.241,1.527,-148.211
 12:32:25.150,eb:33:2e:f9:57:b5, 2015-01-01 00:18:36.650,0.102,-0.614,2.456,240.417,7.263,-2.258, , , , , , ,7.18,3.988,-148.469
 12:32:25.150,eb:33:2e:f9:57:b5, 2015-01-01 00:18:36.650,0.324,-0.638,2.781,273.01,12.085,-4.028, , , , , , ,8.476,4.048,-148.475
 12:32:25.150,eb:33:2e:f9:57:b5, 2015-01-01 00:18:36.650,0.355,-0.509,2.673,311.707,9.155,-13.245, , , , , , ,9.959,4.109,-148.519
 12:32:25.150,eb:33:2e:f9:57:b5, 2015-01-01 00:18:36.650,0.548,-0.647,2.933,354.736,12.512,-19.409, , , , , , ,11.64,4.169,-148.596
 12:32:25.150,eb:33:2e:f9:57:b5, 2015-01-01 00:18:36.650,0.791,-0.814,3.508,399.902,31.555,-23.804, , , , , , ,13.541,4.307,-148.672
 12:32:25.150,eb:33:2e:f9:57:b5, 2015-01-01 00:18:36.650,1.042,-1.02,4.117,444.763,66.406,-27.283, , , , , , ,15.667,4.592,-148.727
 12:32:25.150,eb:33:2e:f9:57:b5, 2015-01-01 00:18:36.650,1.295,-1.131,4.199,488.525,101.99,-34.058, , , , , , ,18.029,5.059,-148.755
 12:32:25.150,eb:33:2e:f9:57:b5, 2015-01-01 00:18:36.650,1.385,-1.091,4.425,528.748,139.954,-43.152, , , , , , ,20.594,5.707,-148.733
 12:32:25.151,eb:33:2e:f9:57:b5, 2015-01-01 00:18:36.650,1.576,-1.319,4.881,562.805,192.81,-49.744, , , , , , ,23.351,6.586,-148.623
 12:32:25.151,eb:33:2e:f9:57:b5, 2015-01-01 00:18:36.650,1.267,-1.627,5.396,596.802,253.052,-51.453, , , , , , ,26.301,7.729,-148.37
 12:32:25.151,eb:33:2e:f9:57:b5, 2015-01-01 00:18:36.650,1.303,-2.145,6.411,634.094,333.374,-50.903, , , , , , ,29.465,9.185,-147.898
 12:32:25.151,eb:33:2e:f9:57:b5, 2015-01-01 00:18:36.650,2.249,-2.041,5.833,689.514,344.666,-56.274, , , , , , ,32.91,10.8,-147.2
 12:32:25.151,eb:33:2e:f9:57:b5, 2015-01-01 00:18:36.650,1.718,-1.518,5.618,764.099,311.218,-78.674, , , , , , ,36.711,12.343,-146.536
 12:32:25.151,eb:33:2e:f9:57:b5, 2015-01-01 00:18:36.650,1.207,-0.255,5.184,783.02,253.601,-101.685, , , , , , ,40.743,13.694,-146.008
 12:32:25.151,eb:33:2e:f9:57:b5, 2015-01-01 00:18:36.650,0.201,0.417,5.516,712.402,220.337,-92.224, , , , , , ,44.577,14.837,-145.585
 12:32:25.168,eb:33:2e:f9:57:b5, 2015-01-01 00:18:36.650,-0.854,-0.935,5.723,576.05,276.672,-46.204, , , , , , ,47.917,15.974,-144.893
 12:32:25.168,eb:33:2e:f9:57:b5, 2015-01-01 00:18:36.650,0.567,-1.004,2.251,482.666,256.592,-5.859, , , , , , ,50.768,16.919,-143.91
 12:32:25.168,eb:33:2e:f9:57:b5, 2015-01-01 00:18:36.650,-1.413,-2.238,2.9,540.588,305.115,75.989, , , , , , ,53.701,17.595,-142.548
 12:32:25.168,eb:33:2e:f9:57:b5, 2015-01-01 00:18:36.650,-1.225,1.991,-3.156,392.578,212.524,151.184, , , , , , ,56.497,17.831,-141.108
 12:32:25.168,eb:33:2e:f9:57:b5, 2015-01-01 00:18:36.650,-0.046,0.969,-1.584,229.492,145.203,228.027, , , , , , ,58.321,17.424,-139.812
 12:32:25.168,eb:33:2e:f9:57:b5, 2015-01-01 00:18:36.650,0.58,-0.306,1.319,128.845,178.284,279.846, , , , , , ,59.557,16.721,-138.395
 12:32:25.168,eb:33:2e:f9:57:b5, 2015-01-01 00:18:36.650,1.013,-0.265,3.317,102.356,254.456,308.655, , , , , , ,60.595,15.98,-136.609
 12:32:25.168,eb:33:2e:f9:57:b5, 2015-01-01 00:18:36.650,1.267,0.555,4.504,142.578,316.528,302.246, , , , , , ,61.754,15.337,-134.5
 12:32:25.213,eb:33:2e:f9:57:b5, 2015-01-01 00:18:36.650,1.238,1.397,4.922,229.858,315.369,252.319, , , , , , ,63.276,14.859,-132.363
 12:32:25.213,eb:33:2e:f9:57:b5, 2015-01-01 00:18:36.650,0.713,2.295,4.012,314.392,237.427,178.223, , , , , , ,65.132,14.518,-130.611
 12:32:25.213,eb:33:2e:f9:57:b5, 2015-01-01 00:18:36.650,0.678,2.606,2.479,367.92,113.647,91.919, , , , , , ,67.137,14.271,-129.567
 12:32:25.213,eb:33:2e:f9:57:b5, 2015-01-01 00:18:36.650,0.916,2.078,2.176,388.306,2.563,2.38, , , , , , ,69.099,14.172,-129.293
 12:32:25.213,eb:33:2e:f9:57:b5, 2015-01-01 00:18:36.650,0.96,1.389,2.718,379.578,-63.66,-79.224, , , , , , ,70.955,14.326,-129.573
 12:32:25.213,eb:33:2e:f9:57:b5, 2015-01-01 00:18:36.650,0.919,0.844,3.528,351.746,-83.801,-147.522, , , , , , ,72.625,14.782,-130.15
 12:32:25.213,eb:33:2e:f9:57:b5, 2015-01-01 00:18:36.650,1.401,0.347,4.425,319.275,-71.411,-200.195, , , , , , ,74.114,15.535,-130.803
 12:32:25.213,eb:33:2e:f9:57:b5, 2015-01-01 00:18:36.650,1.519,-0.055,5.741,294.922,-26.184,-253.784, , , , , , ,75.46,16.6,-131.38
 12:32:25.303,eb:33:2e:f9:57:b5, 2015-01-01 00:18:36.650,1.588,-0.456,5.848,271.484,21.423,-292.053, , , , , , ,76.761,17.946,-131.715
 12:32:25.303,eb:33:2e:f9:57:b5, 2015-01-01 00:18:36.650,1.776,-0.896,5.52,252.563,59.875,-325.073, , , , , , ,78.019,19.523,-131.83
 12:32:25.303,eb:33:2e:f9:57:b5, 2015-01-01 00:18:36.650,1.899,-1.277,4.996,232.544,84.717,-348.938, , , , , , ,79.239,21.264,-131.792
 12:32:25.303,eb:33:2e:f9:57:b5, 2015-01-01 00:18:36.650,1.923,-1.595,4.421,212.036,95.215,-365.356, , , , , , ,80.354,23.099,-131.66
 12:32:25.303,eb:33:2e:f9:57:b5, 2015-01-01 00:18:36.650,1.835,-1.839,3.914,191.772,92.224,-375.427, , , , , , ,81.431,25.01,-131.473
 12:32:25.303,eb:33:2e:f9:57:b5, 2015-01-01 00:18:36.650,1.665,-2.011,3.501,171.814,78.674,-379.089, , , , , , ,82.408,26.944,-131.292
 12:32:25.303,eb:33:2e:f9:57:b5, 2015-01-01 00:18:36.650,1.538,-2.146,3.261,152.466,59.326,-375.793, , , , , , ,83.26,28.861,-131.182
 12:32:25.303,eb:33:2e:f9:57:b5, 2015-01-01 00:18:36.650,1.365,-2.272,3.242,133.728,42.114,-364.99, , , , , , ,83.936,30.712,-131.166
 12:32:25.371,eb:33:2e:f9:57:b5, 2015-01-01 00:18:37.165,1.178,-2.423,3.283,116.516,31.311,-346.802, , , , , , ,84.551,32.492,-131.171
 12:32:25.371,eb:33:2e:f9:57:b5, 2015-01-01 00:18:37.165,0.984,-2.572,3.312,100.22,28.259,-320.679, , , , , , ,85.078,34.162,-131.171
 12:32:25.371,eb:33:2e:f9:57:b5, 2015-01-01 00:18:37.165,0.872,-2.717,3.286,84.29,32.715,-287.598, , , , , , ,85.556,35.673,-131.138
 12:32:25.371,eb:33:2e:f9:57:b5, 2015-01-01 00:18:37.165,0.883,-2.844,3.211,67.383,46.082,-248.84, , , , , , ,85.941,36.996,-131.05
 12:32:25.371,eb:33:2e:f9:57:b5, 2015-01-01 00:18:37.165,0.879,-2.943,3.092,48.035,67.993,-205.322, , , , , , ,86.391,38.128,-130.77
 12:32:25.371,eb:33:2e:f9:57:b5, 2015-01-01 00:18:37.165,0.799,-3.057,2.877,27.832,89.172,-159.058, , , , , , ,86.852,39.04,-130.314
 12:32:25.371,eb:33:2e:f9:57:b5, 2015-01-01 00:18:37.165,0.84,-3.229,2.542,8.484,101.746,-112.183, , , , , , ,87.303,39.721,-129.727
 12:32:25.371,eb:33:2e:f9:57:b5, 2015-01-01 00:18:37.165,0.903,-3.445,2.015,-18.311,108.826,-56.091, , , , , , ,87.632,40.133,-129.106
 12:32:25.417,eb:33:2e:f9:57:b5, 2015-01-01 00:18:37.165,0.893,-3.518,1.313,-50.415,109.192,-8.85, , , , , , ,87.907,40.292,-128.397
 12:32:25.417,eb:33:2e:f9:57:b5, 2015-01-01 00:18:37.165,0.955,-3.53,0.388,-92.773,99.182,37.354, , , , , , ,87.973,40.215,-127.705
 12:32:25.417,eb:33:2e:f9:57:b5, 2015-01-01 00:18:37.165,1.122,-3.497,-0.554,-144.714,83.252,78.674, , , , , , ,87.748,39.919,-127.101
 12:32:25.417,eb:33:2e:f9:57:b5, 2015-01-01 00:18:37.165,1.442,-3.481,-1.378,-204.346,63.416,114.319, , , , , , ,87.089,39.43,-126.656
 12:32:25.417,eb:33:2e:f9:57:b5, 2015-01-01 00:18:37.165,1.756,-3.466,-1.803,-264.343,41.321,140.93, , , , , , ,86.122,38.787,-126.282
 12:32:25.417,eb:33:2e:f9:57:b5, 2015-01-01 00:18:37.165,1.824,-3.366,-1.763,-314.392,7.69,153.381, , , , , , ,84.781,38.051,-126.057
 12:32:25.417,eb:33:2e:f9:57:b5, 2015-01-01 00:18:37.165,1.754,-3.022,-1.515,-354.37,-42.908,153.442, , , , , , ,83.068,37.271,-126.09
 12:32:25.417,eb:33:2e:f9:57:b5, 2015-01-01 00:18:37.165,1.835,-2.337,-1.193,-394.409,-98.572,147.156, , , , , , ,80.903,36.475,-126.48
 12:32:25.437,eb:33:2e:f9:57:b5, 2015-01-01 00:18:37.165,2.005,-1.544,-0.72,-438.843,-143.25,136.597, , , , , , ,78.437,35.667,-127.095
 12:32:25.437,eb:33:2e:f9:57:b5, 2015-01-01 00:18:37.165,2.063,-0.993,-0.162,-482.3,-171.509,122.681, , , , , , ,75.657,34.86,-127.875
 12:32:25.437,eb:33:2e:f9:57:b5, 2015-01-01 00:18:37.165,1.997,-0.869,0.305,-515.808,-190.491,106.262, , , , , , ,72.642,34.063,-128.754
 12:32:25.437,eb:33:2e:f9:57:b5, 2015-01-01 00:18:37.165,1.875,-0.976,0.573,-537.842,-207.642,89.172, , , , , , ,69.401,33.278,-129.749
 12:32:25.437,eb:33:2e:f9:57:b5, 2015-01-01 00:18:37.165,1.738,-1.053,0.737,-551.575,-228.088,72.876, , , , , , ,66.11,32.492,-130.781
 12:32:25.437,eb:33:2e:f9:57:b5, 2015-01-01 00:18:37.165,1.592,-1.022,0.868,-560.669,-252.869,59.143, , , , , , ,62.721,31.679,-131.902
 12:32:25.437,eb:33:2e:f9:57:b5, 2015-01-01 00:18:37.165,1.484,-0.987,0.985,-567.688,-281.494,47.607, , , , , , ,59.26,30.795,-133.138
 12:32:25.437,eb:33:2e:f9:57:b5, 2015-01-01 00:18:37.165,1.449,-0.97,1.11,-576.294,-309.082,38.391, , , , , , ,55.668,29.8,-134.5
 12:32:25.439,eb:33:2e:f9:57:b5, 2015-01-01 00:18:37.165,1.432,-0.91,1.306,-587.708,-331.848,30.579, , , , , , ,52.075,28.713,-135.884
 12:32:25.439,eb:33:2e:f9:57:b5, 2015-01-01 00:18:37.165,1.382,-0.81,1.592,-599.67,-348.206,21.973, , , , , , ,48.439,27.521,-137.274
 12:32:25.439,eb:33:2e:f9:57:b5, 2015-01-01 00:18:37.165,1.32,-0.708,1.904,-608.215,-360.352,12.207, , , , , , ,44.786,26.241,-138.664
 12:32:25.439,eb:33:2e:f9:57:b5, 2015-01-01 00:18:37.165,1.185,-0.651,2.222,-611.938,-368.896,2.319, , , , , , ,41.089,24.862,-140.054
 12:32:25.439,eb:33:2e:f9:57:b5, 2015-01-01 00:18:37.165,1,-0.656,2.45,-611.816,-374.634,-6.104, , , , , , ,37.491,23.428,-141.356
 12:32:25.439,eb:33:2e:f9:57:b5, 2015-01-01 00:18:37.165,0.85,-0.667,2.578,-608.765,-378.052,-11.597, , , , , , ,33.964,21.929,-142.586
 12:32:25.439,eb:33:2e:f9:57:b5, 2015-01-01 00:18:37.165,0.729,-0.692,2.678,-603.699,-378.845,-13.184, , , , , , ,30.52,20.358,-143.729
 12:32:25.439,eb:33:2e:f9:57:b5, 2015-01-01 00:18:37.165,0.55,-0.71,2.76,-598.633,-377.258,-11.108, , , , , , ,27.12,18.704,-144.778
 12:32:25.573,eb:33:2e:f9:57:b5, 2015-01-01 00:18:37.165,0.376,-0.69,2.795,-593.872,-376.709,-6.104, , , , , , ,23.862,17.023,-145.673
 12:32:25.573,eb:33:2e:f9:57:b5, 2015-01-01 00:18:37.165,0.228,-0.596,2.859,-589.417,-379.456,1.221, , , , , , ,20.698,15.276,-146.42
 12:32:25.573,eb:33:2e:f9:57:b5, 2015-01-01 00:18:37.165,0.081,-0.415,2.931,-586.609,-384.521,9.705, , , , , , ,17.606,13.458,-147.041
 12:32:25.573,eb:33:2e:f9:57:b5, 2015-01-01 00:18:37.165,-0.077,-0.143,2.946,-586.548,-390.259,18.25, , , , , , ,14.513,11.541,-147.535
 12:32:25.573,eb:33:2e:f9:57:b5, 2015-01-01 00:18:37.165,-0.276,0.215,2.899,-589.966,-397.034,26.855, , , , , , ,11.508,9.597,-147.87
 12:32:25.573,eb:33:2e:f9:57:b5, 2015-01-01 00:18:37.165,-0.474,0.63,2.854,-595.032,-404.968,34.668, , , , , , ,8.514,7.592,-148.063
 12:32:25.573,eb:33:2e:f9:57:b5, 2015-01-01 00:18:37.165,-0.719,1.091,2.94,-599.609,-411.682,42.358, , , , , , ,5.515,5.537,-148.118
 12:32:25.573,eb:33:2e:f9:57:b5, 2015-01-01 00:18:37.165,-0.98,1.581,3.162,-598.938,-415.1,50.659, , , , , , ,2.472,3.422,-148.041
 12:32:25.644,eb:33:2e:f9:57:b5, 2015-01-01 00:18:37.165,-1.29,2.152,3.564,-588.318,-412.72,59.631, , , , , , ,-0.483,1.346,-147.794
 12:32:25.644,eb:33:2e:f9:57:b5, 2015-01-01 00:18:37.165,-1.525,2.939,4.247,-560.364,-404.053,71.899, , , , , , ,-3.345,-0.676,-147.387
 12:32:25.644,eb:33:2e:f9:57:b5, 2015-01-01 00:18:37.165,-1.697,3.58,4.955,-526.917,-391.846,80.811, , , , , , ,-6.07,-2.626,-146.838
 12:32:25.644,eb:33:2e:f9:57:b5, 2015-01-01 00:18:37.165,-1.939,4.234,5.612,-489.99,-370.789,88.745, , , , , , ,-8.685,-4.482,-146.173
 12:32:25.644,eb:33:2e:f9:57:b5, 2015-01-01 00:18:37.165,-2.147,4.966,6.016,-448.12,-341.431,93.75, , , , , , ,-11.085,-6.147,-145.415
 12:32:25.644,eb:33:2e:f9:57:b5, 2015-01-01 00:18:37.165,-2.448,5.76,6.201,-393.433,-305.42,94.91, , , , , , ,-13.266,-7.614,-144.602
 12:32:25.644,eb:33:2e:f9:57:b5, 2015-01-01 00:18:37.165,-2.834,6.609,6.094,-320.557,-270.569,89.783, , , , , , ,-15.134,-8.877,-143.8
 12:32:25.644,eb:33:2e:f9:57:b5, 2015-01-01 00:18:37.165,-3.014,7.493,5.739,-230.103,-245.911,74.646, , , , , , ,-16.633,-10.014,-143.047
 12:32:25.754,eb:33:2e:f9:57:b5, 2015-01-01 00:18:37.165,-3.105,8.371,5.298,-137.695,-228.149,50.171, , , , , , ,-17.622,-11.047,-142.399
 12:32:25.754,eb:33:2e:f9:57:b5, 2015-01-01 00:18:37.165,-3.244,8.998,4.831,-57.678,-218.567,20.508, , , , , , ,-18.166,-12.052,-141.888
 12:32:25.754,eb:33:2e:f9:57:b5, 2015-01-01 00:18:37.165,-3.242,9.175,4.497,6.226,-212.219,-15.137, , , , , , ,-18.331,-13.074,-141.548
 12:32:25.754,eb:33:2e:f9:57:b5, 2015-01-01 00:18:37.165,-3.181,8.946,4.165,53.162,-197.998,-51.941, , , , , , ,-18.21,-14.117,-141.4
 12:32:25.754,eb:33:2e:f9:57:b5, 2015-01-01 00:18:37.165,-3.23,8.513,3.629,84.778,-172.485,-84.717, , , , , , ,-17.831,-15.101,-141.46
 12:32:25.754,eb:33:2e:f9:57:b5, 2015-01-01 00:18:37.165,-3.292,7.858,3,111.145,-138.855,-111.511, , , , , , ,-17.254,-15.98,-141.718
 12:32:25.754,eb:33:2e:f9:57:b5, 2015-01-01 00:18:37.165,-3.276,7.007,2.542,139.893,-96.741,-130.005, , , , , , ,-16.49,-16.71,-142.163
 12:32:25.755,eb:33:2e:f9:57:b5, 2015-01-01 00:18:37.165,-3.179,6.187,2.378,172.974,-52.124,-140.381, , , , , , ,-15.529,-17.243,-142.745
 12:32:25.775,eb:33:2e:f9:57:b5, 2015-01-01 00:18:37.165,-2.935,5.431,2.315,207.275,-12.817,-145.203, , , , , , ,-14.354,-17.562,-143.438
 12:32:25.775,eb:33:2e:f9:57:b5, 2015-01-01 00:18:37.165,-2.542,4.673,2.018,234.314,19.409,-145.203, , , , , , ,-13.002,-17.699,-144.185
 12:32:25.775,eb:33:2e:f9:57:b5, 2015-01-01 00:18:37.165,-0.799,3.879,1.426,251.465,41.748,-139.526, , , , , , ,-11.541,-17.688,-144.954
 12:32:25.775,eb:33:2e:f9:57:b5, 2015-01-01 00:18:37.165,-3.949,4.255,2.884,414.307,133.423,-275.146, , , , , , ,-9.712,-17.633,-145.915
 12:32:25.775,eb:33:2e:f9:57:b5, 2015-01-01 00:18:37.165,6.22,5.586,1.387,583.557,538.574,-289.612, , , , , , ,-6.378,-15.43,-147.843
 12:32:25.775,eb:33:2e:f9:57:b5, 2015-01-01 00:18:37.165,2.334,10.442,5.98,203.43,889.404,-309.814, , , , , , ,-4.081,-11.607,-149.705
 12:32:25.775,eb:33:2e:f9:57:b5, 2015-01-01 00:18:37.165,-3.631,2.016,4.972,-12.085,978.638,119.263, , , , , , ,-3.549,-7.004,-150.694
 12:32:25.775,eb:33:2e:f9:57:b5, 2015-01-01 00:18:37.165,-9.449,4.395,0.145,-68.787,605.713,51.208, , , , , , ,-3.895,-3.235,-150.518
 12:32:25.822,eb:33:2e:f9:57:b5, 2015-01-01 00:18:37.165,0.384,-2.365,-2.746,32.104,209.778,51.27, , , , , , ,-3.994,-1.241,-150.309
 12:32:25.822,eb:33:2e:f9:57:b5, 2015-01-01 00:18:37.165,-2.155,-0.056,0.788,67.688,142.517,-21.606, , , , , , ,-3.664,-0.516,-150.381
 12:32:25.822,eb:33:2e:f9:57:b5, 2015-01-01 00:18:37.165,-0.927,-1.093,-0.074,59.998,56.03,63.538, , , , , , ,-3.312,-0.143,-150.233
 12:32:25.822,eb:33:2e:f9:57:b5, 2015-01-01 00:18:37.165,-1.564,0.571,0.445,37.842,49.133,30.212, , , , , , ,-3.109,0.258,-150.04
 12:32:25.822,eb:33:2e:f9:57:b5, 2015-01-01 00:18:37.165,0.863,-0.876,0.328,63.293,-40.588,25.94, , , , , , ,-2.84,0.181,-149.903
 12:32:25.822,eb:33:2e:f9:57:b5, 2015-01-01 00:18:37.165,0.7,0.461,1.772,60.547,3.418,13.855, , , , , , ,-2.516,0.082,-149.788
 12:32:25.822,eb:33:2e:f9:57:b5, 2015-01-01 00:18:37.165,-0.366,0.255,1.61,57.495,44.312,-1.099, , , , , , ,-2.23,0.247,-149.782
 12:32:25.822,eb:33:2e:f9:57:b5, 2015-01-01 00:18:37.165,0.619,-0.107,0.883,57.434,35.828,5.859, , , , , , ,-1.923,0.456,-149.777
 12:32:25.891,eb:33:2e:f9:57:b5, 2015-01-01 00:18:37.165,0.565,0.459,1.227,49.438,49.561,-4.944, , , , , , ,-1.659,0.665,-149.777
 12:32:25.891,eb:33:2e:f9:57:b5, 2015-01-01 00:18:37.165,0.204,0.321,1.246,47.241,62.134,-4.7, , , , , , ,-1.423,0.956,-149.81
 12:32:25.891,eb:33:2e:f9:57:b5, 2015-01-01 00:18:37.165,-0.615,0.149,1.18,56.519,53.65,-1.953, , , , , , ,-1.17,1.258,-149.837
 12:32:25.891,eb:33:2e:f9:57:b5, 2015-01-01 00:18:37.165,-1.215,-0.3,1.416,76.172,28.748,1.343, , , , , , ,-0.813,1.45,-149.843
 12:32:25.891,eb:33:2e:f9:57:b5, 2015-01-01 00:18:37.165,-0.682,-0.807,1.63,98.389,1.709,15.869, , , , , , ,-0.363,1.522,-149.793
 12:32:25.891,eb:33:2e:f9:57:b5, 2015-01-01 00:18:37.165,-0.382,-0.376,1.774,115.417,-12.817,18.433, , , , , , ,0.181,1.478,-149.7
 12:32:25.891,eb:33:2e:f9:57:b5, 2015-01-01 00:18:37.165,-0.392,-0.19,1.718,132.446,-32.043,16.357, , , , , , ,0.807,1.357,-149.612
 12:32:25.891,eb:33:2e:f9:57:b5, 2015-01-01 00:18:37.165,-0.078,-0.319,1.901,153.809,-49.377,11.108, , , , , , ,1.549,1.148,-149.551
 12:32:25.891,eb:33:2e:f9:57:b5, 2015-01-01 00:18:37.165,0.349,-0.418,2.531,184.143,-52.917,3.723, , , , , , ,2.406,0.884,-149.518
 12:32:25.891,eb:33:2e:f9:57:b5, 2015-01-01 00:18:37.165,0.496,0.538,4.715,601.318,155.396,-71.289, , , , , , ,47.335,12.173,-148.195
 12:32:25.891,eb:33:2e:f9:57:b5, 2015-01-01 00:18:37.165,-1.457,-0.881,3.972,662.598,271.667,-50.171, , , , , , ,50.663,13.162,-147.497
 12:32:25.891,eb:33:2e:f9:57:b5, 2015-01-01 00:18:37.165,-1.385,2.65,-1.484,524.109,248.047,1.526, , , , , , ,53.899,14.079,-146.47
 12:32:25.891,eb:33:2e:f9:57:b5, 2015-01-01 00:18:37.165,-0.369,1.614,-0.905,317.993,206.36,76.172, , , , , , ,56.107,14.485,-145.426
 12:32:25.891,eb:33:2e:f9:57:b5, 2015-01-01 00:18:37.165,0.286,0.162,1.481,199.097,233.459,123.901, , , , , , ,57.629,14.645,-144.174
 12:32:25.893,eb:33:2e:f9:57:b5, 2015-01-01 00:18:37.165,0.591,-0.114,3.257,162.354,289.185,154.175, , , , , , ,58.876,14.727,-142.608
 12:32:25.893,eb:33:2e:f9:57:b5, 2015-01-01 00:18:37.165,0.926,0.468,4.543,195.312,331.97,152.466, , , , , , ,60.216,14.859,-140.79
 12:32:25.893,eb:33:2e:f9:57:b5, 2015-01-01 00:18:37.165,1.078,1.179,5.741,273.865,332.397,116.15, , , , , , ,61.897,15.09,-138.933
 12:32:25.893,eb:33:2e:f9:57:b5, 2015-01-01 00:18:37.165,0.776,1.728,5.892,356.384,289.001,59.692, , , , , , ,63.946,15.43,-137.302
 12:32:25.894,eb:33:2e:f9:57:b5, 2015-01-01 00:18:37.165,0.809,1.697,4.905,410.583,220.337,1.099, , , , , , ,66.237,15.842,-136.077
 12:32:25.894,eb:33:2e:f9:57:b5, 2015-01-01 00:18:37.165,0.962,0.936,4.38,429.016,151.55,-62.134, , , , , , ,68.56,16.348,-135.308
 12:32:25.894,eb:33:2e:f9:57:b5, 2015-01-01 00:18:37.165,1.112,0.429,4.528,419.25,128.601,-99.487, , , , , , ,70.823,16.985,-134.797
 12:32:25.894,eb:33:2e:f9:57:b5, 2015-01-01 00:18:37.165,1.342,-0.042,5.088,386.292,128.418,-148.254, , , , , , ,72.955,17.792,-134.374
 12:32:25.894,eb:33:2e:f9:57:b5, 2015-01-01 00:18:37.165,1.698,-0.346,5.679,355.835,148.621,-182.983, , , , , , ,74.938,18.803,-133.912
 12:32:25.894,eb:33:2e:f9:57:b5, 2015-01-01 00:18:37.165,1.991,-0.713,6.083,332.397,174.683,-216.858, , , , , , ,76.805,19.984,-133.341
 12:32:25.896,eb:33:2e:f9:57:b5, 2015-01-01 00:18:37.165,2.204,-1.092,6.035,318.542,192.932,-250.793, , , , , , ,78.673,21.341,-132.638
 12:32:25.896,eb:33:2e:f9:57:b5, 2015-01-01 00:18:37.165,2.346,-1.415,5.623,308.96,197.388,-282.043, , , , , , ,80.53,22.846,-131.847
 12:32:25.896,eb:33:2e:f9:57:b5, 2015-01-01 00:18:37.165,2.409,-1.679,5.085,299.5,188.782,-309.937, , , , , , ,82.37,24.467,-131.045
 12:32:25.896,eb:33:2e:f9:57:b5, 2015-01-01 00:18:37.165,2.398,-1.885,4.482,285.217,169.373,-333.008, , , , , , ,84.111,26.175,-130.298
 12:32:25.896,eb:33:2e:f9:57:b5, 2015-01-01 00:18:37.165,2.246,-2.048,3.886,263.306,144.592,-349.548, , , , , , ,85.792,27.955,-129.6
 12:32:25.896,eb:33:2e:f9:57:b5, 2015-01-01 00:18:37.165,2.001,-2.182,3.436,235.779,115.479,-357.483, , , , , , ,87.319,29.762,-128.99
 12:32:25.896,eb:33:2e:f9:57:b5, 2015-01-01 00:18:37.165,1.834,-2.306,3.227,205.811,87.769,-356.262, , , , , , ,88.665,31.569,-128.491
 12:32:25.896,eb:33:2e:f9:57:b5, 2015-01-01 00:18:37.165,1.665,-2.363,3.342,175.903,70.007,-347.229, , , , , , ,89.775,33.322,-128.095
 12:32:25.900,eb:33:2e:f9:57:b5, 2015-01-01 00:18:37.165,1.547,-2.395,3.548,148.376,64.148,-330.994, , , , , , ,90.797,35.008,-127.689
 12:32:25.900,eb:33:2e:f9:57:b5, 2015-01-01 00:18:37.165,1.493,-2.445,3.741,124.878,70.068,-308.899, , , , , , ,91.736,36.59,-127.227
 12:32:25.900,eb:33:2e:f9:57:b5, 2015-01-01 00:18:37.165,1.519,-2.541,3.856,105.713,85.876,-282.532, , , , , , ,92.642,38.046,-126.661
 12:32:25.900,eb:33:2e:f9:57:b5, 2015-01-01 00:18:37.165,1.578,-2.668,3.834,89.172,109.558,-253.113, , , , , , ,93.51,39.331,-125.98
 12:32:25.900,eb:33:2e:f9:57:b5, 2015-01-01 00:18:37.165,1.682,-2.749,3.572,71.594,135.498,-221.375, , , , , , ,94.493,40.457,-125.057
 12:32:25.900,eb:33:2e:f9:57:b5, 2015-01-01 00:18:37.165,1.792,-2.757,3.136,50.354,160.461,-188.599, , , , , , ,95.521,41.396,-123.937
 12:32:25.900,eb:33:2e:f9:57:b5, 2015-01-01 00:18:37.165,1.844,-2.74,2.593,25.574,178.772,-155.701, , , , , , ,96.542,42.144,-122.673
 12:32:25.900,eb:33:2e:f9:57:b5, 2015-01-01 00:18:37.165,1.851,-2.759,1.993,0.732,181.213,-124.268, , , , , , ,97.416,42.709,-121.393
 12:32:25.956,eb:33:2e:f9:57:b5, 2015-01-01 00:18:37.165,1.841,-2.876,1.331,-23.254,165.1,-96.375, , , , , , ,98.212,43.127,-120.125
 12:32:25.956,eb:33:2e:f9:57:b5, 2015-01-01 00:18:37.165,1.75,-3.052,0.479,-51.575,133.911,-69.58, , , , , , ,98.756,43.412,-119.031
 12:32:25.956,eb:33:2e:f9:57:b5, 2015-01-01 00:18:37.165,1.695,-3.168,-0.655,-91.37,90.332,-41.321, , , , , , ,98.937,43.588,-118.235
 12:32:25.956,eb:33:2e:f9:57:b5, 2015-01-01 00:18:37.165,1.849,-3.184,-1.736,-144.104,40.466,-12.024, , , , , , ,98.547,43.665,-117.856
 12:32:25.956,eb:33:2e:f9:57:b5, 2015-01-01 00:18:37.165,2.164,-3.196,-2.29,-204.346,-10.071,14.465, , , , , , ,97.69,43.638,-117.795
 12:32:25.956,eb:33:2e:f9:57:b5, 2015-01-01 00:18:37.165,2.35,-3.286,-2.226,-262.085,-54.382,35.522, , , , , , ,96.301,43.522,-118.065
 12:32:25.956,eb:33:2e:f9:57:b5, 2015-01-01 00:18:37.165,2.347,-3.483,-1.905,-309.937,-95.215,52.368, , , , , , ,94.449,43.33,-118.63
 12:32:25.956,eb:33:2e:f9:57:b5, 2015-01-01 00:18:37.165,2.254,-3.515,-1.605,-351.257,-135.254,68.665, , , , , , ,92.126,43.055,-119.531
 12:32:25.978,eb:33:2e:f9:57:b5, 2015-01-01 00:18:37.165,2.313,-2.968,-1.348,-394.165,-175.72,82.642, , , , , , ,89.5,42.682,-120.63
 12:32:25.978,eb:33:2e:f9:57:b5, 2015-01-01 00:18:37.165,2.406,-2.219,-0.904,-438.782,-210.876,91.736, , , , , , ,86.506,42.204,-121.937
 12:32:25.978,eb:33:2e:f9:57:b5, 2015-01-01 00:18:37.165,2.399,-1.735,-0.365,-476.196,-240.417,95.337, , , , , , ,83.205,41.633,-123.409
 12:32:25.978,eb:33:2e:f9:57:b5, 2015-01-01 00:18:37.165,2.332,-1.582,0.064,-499.817,-269.897,95.032, , , , , , ,79.623,40.968,-125.068
 12:32:25.978,eb:33:2e:f9:57:b5, 2015-01-01 00:18:37.165,2.229,-1.586,0.356,-510.559,-302.246,93.445, , , , , , ,75.959,40.199,-126.799
 12:32:25.978,eb:33:2e:f9:57:b5, 2015-01-01 00:18:37.165,2.075,-1.578,0.556,-514.343,-338.623,92.407, , , , , , ,72.208,39.309,-128.65
 12:32:25.978,eb:33:2e:f9:57:b5, 2015-01-01 00:18:37.165,1.884,-1.581,0.711,-516.785,-379.333,92.59, , , , , , ,68.379,38.265,-130.638
 12:32:25.978,eb:33:2e:f9:57:b5, 2015-01-01 00:18:37.165,1.799,-1.661,0.896,-524.597,-429.138,96.008, , , , , , ,64.413,37.002,-132.814
 12:32:26.023,eb:33:2e:f9:57:b5, 2015-01-01 00:18:37.165,1.819,-1.721,1.216,-537.598,-464.172,101.196, , , , , , ,60.452,35.519,-135.011
 12:32:26.023,eb:33:2e:f9:57:b5, 2015-01-01 00:18:37.165,1.886,-1.686,1.766,-554.626,-484.924,106.873, , , , , , ,56.492,33.827,-137.148
 12:32:26.023,eb:33:2e:f9:57:b5, 2015-01-01 00:18:37.165,1.93,-1.569,2.439,-571.655,-490.234,109.497, , , , , , ,52.581,31.965,-139.142
 12:32:26.023,eb:33:2e:f9:57:b5, 2015-01-01 00:18:37.165,1.875,-1.426,3.076,-585.449,-484.07,107.971, , , , , , ,48.697,29.976,-140.977
 12:32:26.023,eb:33:2e:f9:57:b5, 2015-01-01 00:18:37.165,1.745,-1.312,3.525,-595.276,-474.06,102.6, , , , , , ,44.967,27.96,-142.564
 12:32:26.023,eb:33:2e:f9:57:b5, 2015-01-01 00:18:37.165,1.663,-1.269,3.803,-603.577,-462.463,96.13, , , , , , ,41.336,25.917,-143.948
 12:32:26.023,eb:33:2e:f9:57:b5, 2015-01-01 00:18:37.165,1.711,-1.297,4.048,-613.77,-441.956,90.149, , , , , , ,37.787,23.884,-145.14
 12:32:26.023,eb:33:2e:f9:57:b5, 2015-01-01 00:18:37.165,1.735,-1.306,4.228,-627.502,-408.02,82.397, , , , , , ,34.239,21.896,-146.146
 12:32:26.068,eb:33:2e:f9:57:b5, 2015-01-01 00:18:37.900,1.76,-1.2,4.037,-644.226,-378.479,70.374, , , , , , ,30.773,20.05,-146.926
 12:32:26.068,eb:33:2e:f9:57:b5, 2015-01-01 00:18:37.900,1.644,-0.958,3.688,-661.194,-364.563,49.866, , , , , , ,27.274,18.298,-147.596
 12:32:26.068,eb:33:2e:f9:57:b5, 2015-01-01 00:18:37.900,1.59,-0.627,3.204,-674.072,-378.235,22.888, , , , , , ,23.725,16.551,-148.266
 12:32:26.068,eb:33:2e:f9:57:b5, 2015-01-01 00:18:37.900,1.473,-0.295,2.972,-682.617,-411.865,-8.606, , , , , , ,20.061,14.661,-149.046
 12:32:26.068,eb:33:2e:f9:57:b5, 2015-01-01 00:18:37.900,1.235,-0.004,2.953,-687.561,-455.2,-39.246, , , , , , ,16.436,12.623,-149.881
 12:32:26.068,eb:33:2e:f9:57:b5, 2015-01-01 00:18:37.900,0.835,0.246,3.02,-693.115,-496.643,-62.805, , , , , , ,12.805,10.366,-150.765
 12:32:26.069,eb:33:2e:f9:57:b5, 2015-01-01 00:18:37.900,0.292,0.483,3.084,-700.5,-528.687,-74.402, , , , , , ,9.179,7.899,-151.617
 12:32:26.069,eb:33:2e:f9:57:b5, 2015-01-01 00:18:37.900,-0.341,0.765,3.303,-705.627,-548.523,-70.74, , , , , , ,5.521,5.213,-152.347
 12:32:26.090,eb:33:2e:f9:57:b5, 2015-01-01 00:18:37.900,-1.037,1.16,3.835,-699.829,-552.368,-51.27, , , , , , ,1.967,2.477,-152.831
 12:32:26.090,eb:33:2e:f9:57:b5, 2015-01-01 00:18:37.900,-1.695,1.757,4.641,-674.316,-538.696,-17.029, , , , , , ,-1.467,-0.242,-152.996
 12:32:26.090,eb:33:2e:f9:57:b5, 2015-01-01 00:18:37.900,-2.191,2.638,5.618,-623.779,-510.559,23.743, , , , , , ,-4.702,-2.851,-152.82
 12:32:26.090,eb:33:2e:f9:57:b5, 2015-01-01 00:18:37.900,-2.515,3.754,6.483,-548.279,-476.929,63.11, , , , , , ,-7.696,-5.301,-152.32
 12:32:26.090,eb:33:2e:f9:57:b5, 2015-01-01 00:18:37.900,-2.807,4.989,7.171,-450.134,-449.219,93.872, , , , , , ,-10.239,-7.509,-151.545
 12:32:26.090,eb:33:2e:f9:57:b5, 2015-01-01 00:18:37.900,-3.205,6.316,7.673,-338.745,-432.8,111.633, , , , , , ,-12.299,-9.553,-150.584
 12:32:26.090,eb:33:2e:f9:57:b5, 2015-01-01 00:18:37.900,-3.517,7.525,7.716,-232.849,-419.25,116.76, , , , , , ,-13.865,-11.492,-149.524
 12:32:26.090,eb:33:2e:f9:57:b5, 2015-01-01 00:18:37.900,-3.758,8.524,7.129,-149.231,-396.118,112.427, , , , , , ,-15.046,-13.348,-148.431
 12:32:26.159,eb:33:2e:f9:57:b5, 2015-01-01 00:18:37.900,-3.875,9.417,6.371,-84.839,-365.967,95.703, , , , , , ,-15.848,-15.035,-147.393
 12:32:26.159,eb:33:2e:f9:57:b5, 2015-01-01 00:18:37.900,-4.096,10.28,6.018,-28.992,-329.346,62.317, , , , , , ,-16.342,-16.584,-146.514
 12:32:26.159,eb:33:2e:f9:57:b5, 2015-01-01 00:18:37.900,-4.283,10.949,5.752,28.564,-295.105,12.085, , , , , , ,-16.501,-18.012,-145.887
 12:32:26.159,eb:33:2e:f9:57:b5, 2015-01-01 00:18:37.900,-4.38,11.025,5.395,86.609,-258.24,-48.462, , , , , , ,-16.293,-19.38,-145.596
 12:32:26.159,eb:33:2e:f9:57:b5, 2015-01-01 00:18:37.900,-4.534,10.49,4.85,132.324,-208.191,-107.727, , , , , , ,-15.683,-20.599,-145.695
 12:32:26.159,eb:33:2e:f9:57:b5, 2015-01-01 00:18:37.900,-4.686,9.455,4.05,157.776,-147.522,-154.419, , , , , , ,-14.771,-21.616,-146.157
 12:32:26.159,eb:33:2e:f9:57:b5, 2015-01-01 00:18:37.900,-4.719,8.123,3.314,169.495,-79.895,-183.411, , , , , , ,-13.656,-22.346,-146.92
 12:32:26.159,eb:33:2e:f9:57:b5, 2015-01-01 00:18:37.900,-4.56,6.766,2.82,181.885,-14.587,-196.289, , , , , , ,-12.404,-22.769,-147.887
 12:32:26.180,eb:33:2e:f9:57:b5, 2015-01-01 00:18:37.900,-4.317,5.538,2.418,202.942,37.72,-197.937, , , , , , ,-11.019,-22.879,-148.958
 12:32:26.180,eb:33:2e:f9:57:b5, 2015-01-01 00:18:37.900,1.688,4.349,1.759,232.178,59.265,-188.11, , , , , , ,-9.498,-22.78,-150.046
 12:32:26.180,eb:33:2e:f9:57:b5, 2015-01-01 00:18:37.900,0.289,6.224,9.48,408.325,885.62,-248.169, , , , , , ,-7.619,-20.978,-151.364
 12:32:26.180,eb:33:2e:f9:57:b5, 2015-01-01 00:18:37.900,0.793,7.561,-4.945,102.539,1131.165,-146.667, , , , , , ,-6.158,-15.688,-152.968
 12:32:26.180,eb:33:2e:f9:57:b5, 2015-01-01 00:18:37.900,-9.124,5.503,0.557,42.48,951.355,213.257, , , , , , ,-6.037,-10.591,-152.128
 12:32:26.180,eb:33:2e:f9:57:b5, 2015-01-01 00:18:37.900,-4.762,-1.296,-4.172,37.72,454.346,55.603, , , , , , ,-5.861,-7.075,-151.831
 12:32:26.180,eb:33:2e:f9:57:b5, 2015-01-01 00:18:37.900,2.786,-1.772,-2.134,117.859,124.634,-39.795, , , , , , ,-5.444,-6.13,-151.974
 12:32:26.180,eb:33:2e:f9:57:b5, 2015-01-01 00:18:37.900,-1.718,-2.391,3.698,183.655,278.748,23.132, , , , , , ,-4.57,-5.004,-152.128
 12:32:26.226,eb:33:2e:f9:57:b5, 2015-01-01 00:18:37.900,-2.585,1.05,-0.113,119.08,222.961,40.1, , , , , , ,-3.845,-3.719,-151.974
 12:32:26.226,eb:33:2e:f9:57:b5, 2015-01-01 00:18:37.900,-0.771,-0.367,0.067,132.141,88.684,11.597, , , , , , ,-3.241,-2.977,-151.908
 12:32:26.226,eb:33:2e:f9:57:b5, 2015-01-01 00:18:37.900,0.787,-0.648,0.997,143.738,51.27,25.635, , , , , , ,-2.532,-2.703,-151.842
 12:32:26.226,eb:33:2e:f9:57:b5, 2015-01-01 00:18:37.900,0.479,0.958,1.452,114.38,90.576,1.099, , , , , , ,-1.884,-2.335,-151.793
 12:32:26.226,eb:33:2e:f9:57:b5, 2015-01-01 00:18:37.900,0.314,0.633,0.728,100.769,93.994,-20.569, , , , , , ,-1.362,-1.873,-151.886
 12:32:26.226,eb:33:2e:f9:57:b5, 2015-01-01 00:18:37.900,0.797,0.145,1.805,96.863,120.422,-17.456, , , , , , ,-0.862,-1.34,-151.974
 12:32:26.226,eb:33:2e:f9:57:b5, 2015-01-01 00:18:37.900,0.827,0.708,1.271,89.844,135.559,-38.879, , , , , , ,-0.401,-0.681,-152.128
 12:32:26.226,eb:33:2e:f9:57:b5, 2015-01-01 00:18:37.900,-1.013,0.683,1.738,108.704,127.747,-56.152, , , , , , ,0.104,-0.016,-152.38
 12:32:26.249,eb:33:2e:f9:57:b5, 2015-01-01 00:18:37.900,-2.017,-0.931,2.612,137.573,121.643,-33.447, , , , , , ,0.736,0.604,-152.617
 12:32:26.249,eb:33:2e:f9:57:b5, 2015-01-01 00:18:37.900,-0.806,-1.554,1.334,167.847,68.176,13.123, , , , , , ,1.516,1.071,-152.617
 12:32:26.249,eb:33:2e:f9:57:b5, 2015-01-01 00:18:37.900,-0.227,-0.387,0.786,183.228,19.409,18.555, , , , , , ,2.411,1.247,-152.518
 12:32:26.249,eb:33:2e:f9:57:b5, 2015-01-01 00:18:37.900,-0.451,0.069,0.965,189.209,-8.423,11.108, , , , , , ,3.356,1.263,-152.452
 12:32:26.249,eb:33:2e:f9:57:b5, 2015-01-01 00:18:37.900,0.205,-0.16,1.183,198.669,-32.837,10.01, , , , , , ,4.334,1.137,-152.413
 12:32:26.249,eb:33:2e:f9:57:b5, 2015-01-01 00:18:37.900,0.607,-0.058,1.924,210.205,-28.931,0.427, , , , , , ,5.356,0.972,-152.397
 12:32:26.249,eb:33:2e:f9:57:b5, 2015-01-01 00:18:37.900,0.467,0.202,1.969,229.492,-28.503,-19.226, , , , , , ,6.465,0.84,-152.468
 12:32:26.249,eb:33:2e:f9:57:b5, 2015-01-01 00:18:37.900,0.244,-0.068,2.269,257.324,-28.442,-35.767, , , , , , ,7.701,0.725,-152.639
 12:32:26.361,eb:33:2e:f9:57:b5, 2015-01-01 00:18:37.900,0.467,-0.53,2.792,290.527,-12.634,-41.687, , , , , , ,9.08,0.654,-152.853
 12:32:26.361,eb:33:2e:f9:57:b5, 2015-01-01 00:18:37.900,0.815,-0.723,3.265,328.979,16.785,-46.875, , , , , , ,10.646,0.714,-153.067
 12:32:26.361,eb:33:2e:f9:57:b5, 2015-01-01 00:18:37.900,0.851,-0.718,3.458,370.178,49.316,-52.124, , , , , , ,12.415,0.945,-153.276
 12:32:26.361,eb:33:2e:f9:57:b5, 2015-01-01 00:18:37.900,0.83,-0.984,3.61,409.363,87.402,-52.002, , , , , , ,14.387,1.357,-153.452
 12:32:26.361,eb:33:2e:f9:57:b5, 2015-01-01 00:18:37.900,0.738,-1.111,4.064,445.679,150.818,-49.011, , , , , , ,16.545,2.01,-153.528
 12:32:26.361,eb:33:2e:f9:57:b5, 2015-01-01 00:18:37.900,0.756,-1.277,4.48,481.201,235.107,-41.077, , , , , , ,18.88,3.038,-153.424
 12:32:26.361,eb:33:2e:f9:57:b5, 2015-01-01 00:18:37.900,0.77,-1.64,4.436,521.484,309.57,-28.259, , , , , , ,21.423,4.422,-153.1
 12:32:26.361,eb:33:2e:f9:57:b5, 2015-01-01 00:18:37.900,0.879,-1.267,3.949,587.036,301.392,-43.457, , , , , , ,24.258,5.938,-152.661
 12:32:26.361,eb:33:2e:f9:57:b5, 2015-01-01 00:18:37.900,1.02,-0.648,4.11,648.01,210.51,-69.946, , , , , , ,27.416,7.174,-152.369
 12:32:26.361,eb:33:2e:f9:57:b5, 2015-01-01 00:18:37.900,0.052,-1.217,7.438,680.847,245.85,-69.275, , , , , , ,30.784,8.311,-152.166
 12:32:26.361,eb:33:2e:f9:57:b5, 2015-01-01 00:18:37.900,0.066,-1.773,7.59,703.979,327.393,-41.809, , , , , , ,34.36,9.695,-151.584
 12:32:26.361,eb:33:2e:f9:57:b5, 2015-01-01 00:18:37.900,-0.36,-1.911,8.12,706.604,415.527,-13.977, , , , , , ,38.079,11.305,-150.551
 12:32:26.361,eb:33:2e:f9:57:b5, 2015-01-01 00:18:37.900,-0.499,-2.303,7.152,674.255,472.839,35.4, , , , , , ,41.863,13.019,-149.002
 12:32:26.361,eb:33:2e:f9:57:b5, 2015-01-01 00:18:37.900,0.64,-0.741,4.127,613.831,377.808,53.162, , , , , , ,45.456,14.381,-147.338
 12:32:26.363,eb:33:2e:f9:57:b5, 2015-01-01 00:18:37.900,1.362,0.159,4.445,567.2,321.777,68.787, , , , , , ,48.746,15.309,-145.822
 12:32:26.363,eb:33:2e:f9:57:b5, 2015-01-01 00:18:37.900,2.962,0.287,5.115,581.36,322.388,35.645, , , , , , ,51.982,16.106,-144.41
 12:32:26.383,eb:33:2e:f9:57:b5, 2015-01-01 00:18:37.900,0.281,-1.366,6.324,626.77,476.135,39.551, , , , , , ,55.508,17.161,-142.619
 12:32:26.383,eb:33:2e:f9:57:b5, 2015-01-01 00:18:37.900,-1.876,0.864,-0.007,565.613,516.174,98.816, , , , , , ,59.37,18.259,-140.065
 12:32:26.383,eb:33:2e:f9:57:b5, 2015-01-01 00:18:37.900,-0.186,1.975,-3.431,344.482,384.766,186.096, , , , , , ,62.276,18.677,-137.664
 12:32:26.383,eb:33:2e:f9:57:b5, 2015-01-01 00:18:37.900,0.892,0.62,-0.725,179.688,303.101,247.437, , , , , , ,64.138,18.419,-135.593
 12:32:26.383,eb:33:2e:f9:57:b5, 2015-01-01 00:18:37.900,1.502,-0.077,1.096,82.642,303.711,295.898, , , , , , ,65.341,17.792,-133.544
 12:32:26.383,eb:33:2e:f9:57:b5, 2015-01-01 00:18:37.900,1.852,-0.123,3.022,75.623,345.642,321.594, , , , , , ,66.368,17.034,-131.303
 12:32:26.383,eb:33:2e:f9:57:b5, 2015-01-01 00:18:37.900,1.917,0.626,4.895,147.095,371.704,316.772, , , , , , ,67.621,16.271,-128.897
 12:32:26.383,eb:33:2e:f9:57:b5, 2015-01-01 00:18:37.900,1.551,1.751,5.721,263.123,344.727,281.25, , , , , , ,69.313,15.546,-126.595
 12:32:26.497,eb:33:2e:f9:57:b5, 2015-01-01 00:18:37.900,1.089,2.558,4.593,371.704,251.892,222.29, , , , , , ,71.455,14.875,-124.728
 12:32:26.497,eb:33:2e:f9:57:b5, 2015-01-01 00:18:37.900,1.109,2.566,3.182,442.993,127.136,144.47, , , , , , ,73.828,14.299,-123.574
 12:32:26.497,eb:33:2e:f9:57:b5, 2015-01-01 00:18:37.900,1.2,2.187,2.914,469.849,21.912,54.321, , , , , , ,76.245,13.942,-123.146
 12:32:26.497,eb:33:2e:f9:57:b5, 2015-01-01 00:18:37.900,1.492,1.837,3.384,460.754,-46.387,-44.128, , , , , , ,78.525,13.931,-123.278
 12:32:26.497,eb:33:2e:f9:57:b5, 2015-01-01 00:18:37.900,1.441,1.61,4.364,424.133,-67.627,-138.306, , , , , , ,80.629,14.376,-123.679
 12:32:26.497,eb:33:2e:f9:57:b5, 2015-01-01 00:18:37.900,1.477,1.223,4.913,376.404,-68.237,-224.304, , , , , , ,82.474,15.271,-124.167
 12:32:26.497,eb:33:2e:f9:57:b5, 2015-01-01 00:18:37.900,1.718,0.625,5.256,330.75,-58.533,-298.584, , , , , , ,84.084,16.578,-124.656
 12:32:26.497,eb:33:2e:f9:57:b5, 2015-01-01 00:18:37.900,1.953,0.001,5.434,293.152,-43.945,-361.267, , , , , , ,85.457,18.221,-125.09
 12:32:26.589,eb:33:2e:f9:57:b5, 2015-01-01 00:18:38.300,2.102,-0.535,5.396,264.587,-30.823,-412.903, , , , , , ,86.726,20.171,-125.42
 12:32:26.589,eb:33:2e:f9:57:b5, 2015-01-01 00:18:38.300,2.134,-0.958,5.178,241.089,-25.146,-452.393, , , , , , ,87.885,22.352,-125.667
 12:32:26.589,eb:33:2e:f9:57:b5, 2015-01-01 00:18:38.300,1.994,-1.291,4.857,217.896,-27.649,-478.516, , , , , , ,88.94,24.697,-125.876
 12:32:26.589,eb:33:2e:f9:57:b5, 2015-01-01 00:18:38.300,1.801,-1.595,4.499,194.031,-39.429,-489.868, , , , , , ,89.808,27.114,-126.123
 12:32:26.589,eb:33:2e:f9:57:b5, 2015-01-01 00:18:38.300,1.625,-1.882,4.27,168.762,-52.856,-487, , , , , , ,90.577,29.559,-126.387
 12:32:26.589,eb:33:2e:f9:57:b5, 2015-01-01 00:18:38.300,1.446,-2.129,4.194,141.846,-58.533,-471.13, , , , , , ,91.192,31.954,-126.667
 12:32:26.589,eb:33:2e:f9:57:b5, 2015-01-01 00:18:38.300,1.273,-2.314,4.145,113.281,-53.284,-444.397, , , , , , ,91.67,34.244,-126.931
 12:32:26.589,eb:33:2e:f9:57:b5, 2015-01-01 00:18:38.300,1.147,-2.457,4.045,84.595,-38.879,-409.058, , , , , , ,91.967,36.354,-127.172
 12:32:26.609,eb:33:2e:f9:57:b5, 2015-01-01 00:18:38.300,1.121,-2.575,3.89,56.58,-16.479,-368.591, , , , , , ,92.263,38.282,-127.249
 12:32:26.609,eb:33:2e:f9:57:b5, 2015-01-01 00:18:38.300,1.127,-2.669,3.705,29.48,12.451,-322.754, , , , , , ,92.521,39.985,-127.139
 12:32:26.609,eb:33:2e:f9:57:b5, 2015-01-01 00:18:38.300,1.193,-2.78,3.466,3.845,44.861,-275.208, , , , , , ,92.791,41.451,-126.843
 12:32:26.609,eb:33:2e:f9:57:b5, 2015-01-01 00:18:38.300,1.287,-2.824,3.127,-21.118,77.393,-227.661, , , , , , ,92.994,42.649,-126.387
 12:32:26.609,eb:33:2e:f9:57:b5, 2015-01-01 00:18:38.300,1.333,-2.799,2.7,-46.204,103.577,-181.58, , , , , , ,93.301,43.621,-125.667
 12:32:26.609,eb:33:2e:f9:57:b5, 2015-01-01 00:18:38.300,1.285,-2.802,2.218,-68.787,112.854,-138.306, , , , , , ,93.582,44.368,-124.821
 12:32:26.609,eb:33:2e:f9:57:b5, 2015-01-01 00:18:38.300,1.295,-3.009,1.506,-90.149,97.351,-93.201, , , , , , ,93.73,44.89,-124.03
 12:32:26.609,eb:33:2e:f9:57:b5, 2015-01-01 00:18:38.300,1.335,-3.305,0.778,-109.863,73.425,-56.519, , , , , , ,93.565,45.209,-123.486
 12:32:26.631,eb:33:2e:f9:57:b5, 2015-01-01 00:18:38.300,1.335,-3.436,-0.154,-137.878,44.434,-19.409, , , , , , ,93.23,45.363,-123.069
 12:32:26.631,eb:33:2e:f9:57:b5, 2015-01-01 00:18:38.300,1.574,-3.397,-1.221,-176.575,2.075,13.916, , , , , , ,92.532,45.357,-122.921
 12:32:26.631,eb:33:2e:f9:57:b5, 2015-01-01 00:18:38.300,1.842,-3.4,-1.943,-227.112,-41.565,42.358, , , , , , ,91.373,45.203,-123.102
 12:32:26.631,eb:33:2e:f9:57:b5, 2015-01-01 00:18:38.300,2.014,-3.509,-2.221,-281.433,-86.426,65.369, , , , , , ,89.637,44.918,-123.662
 12:32:26.631,eb:33:2e:f9:57:b5, 2015-01-01 00:18:38.300,2.006,-3.518,-2.055,-330.078,-137.939,80.933, , , , , , ,87.512,44.528,-124.47
 12:32:26.631,eb:33:2e:f9:57:b5, 2015-01-01 00:18:38.300,1.9,-3.125,-1.623,-373.291,-196.167,89.905, , , , , , ,84.919,44.039,-125.623
 12:32:26.631,eb:33:2e:f9:57:b5, 2015-01-01 00:18:38.300,1.828,-2.499,-1.099,-414.734,-253.967,95.154, , , , , , ,81.876,43.44,-127.139
 12:32:26.632,eb:33:2e:f9:57:b5, 2015-01-01 00:18:38.300,1.765,-1.915,-0.535,-454.773,-301.331,99.304, , , , , , ,78.371,42.709,-129.001
 12:32:26.653,eb:33:2e:f9:57:b5, 2015-01-01 00:18:38.300,1.674,-1.656,0.025,-488.159,-336.365,103.699, , , , , , ,74.669,41.836,-130.968
 12:32:26.653,eb:33:2e:f9:57:b5, 2015-01-01 00:18:38.300,1.634,-1.708,0.513,-510.62,-362.854,108.826, , , , , , ,70.812,40.803,-132.99
 12:32:26.653,eb:33:2e:f9:57:b5, 2015-01-01 00:18:38.300,1.592,-1.794,0.937,-524.475,-383.362,113.22, , , , , , ,66.907,39.606,-135.022
 12:32:26.653,eb:33:2e:f9:57:b5, 2015-01-01 00:18:38.300,1.535,-1.763,1.28,-533.752,-401.978,116.638, , , , , , ,62.93,38.227,-137.065
 12:32:26.653,eb:33:2e:f9:57:b5, 2015-01-01 00:18:38.300,1.449,-1.642,1.568,-542.908,-419.8,119.446, , , , , , ,59.068,36.711,-138.977
 12:32:26.653,eb:33:2e:f9:57:b5, 2015-01-01 00:18:38.300,1.403,-1.559,1.782,-554.749,-437.012,122.681, , , , , , ,55.25,35.035,-140.795
 12:32:26.653,eb:33:2e:f9:57:b5, 2015-01-01 00:18:38.300,1.469,-1.537,2.003,-569.58,-450.989,124.634, , , , , , ,51.471,33.206,-142.509
 12:32:26.653,eb:33:2e:f9:57:b5, 2015-01-01 00:18:38.300,1.617,-1.509,2.292,-586.67,-458.069,123.84, , , , , , ,47.653,31.229,-144.135
 12:32:26.698,eb:33:2e:f9:57:b5, 2015-01-01 00:18:38.300,1.713,-1.405,2.587,-605.042,-456.787,118.225, , , , , , ,43.956,29.202,-145.547
 12:32:26.698,eb:33:2e:f9:57:b5, 2015-01-01 00:18:38.300,1.744,-1.264,2.828,-622.864,-452.026,107.178, , , , , , ,40.281,27.142,-146.799
 12:32:26.698,eb:33:2e:f9:57:b5, 2015-01-01 00:18:38.300,1.724,-1.135,3.028,-638.916,-446.716,91.492, , , , , , ,36.617,25.076,-147.925
 12:32:26.698,eb:33:2e:f9:57:b5, 2015-01-01 00:18:38.300,1.744,-1.061,3.191,-652.466,-440.125,73.914, , , , , , ,32.893,22.989,-148.986
 12:32:26.698,eb:33:2e:f9:57:b5, 2015-01-01 00:18:38.300,1.819,-1.042,3.364,-664.185,-427.795,55.969, , , , , , ,29.251,20.973,-149.903
 12:32:26.698,eb:33:2e:f9:57:b5, 2015-01-01 00:18:38.300,1.806,-1.058,3.472,-676.208,-409.546,38.33, , , , , , ,25.62,19.012,-150.705
 12:32:26.698,eb:33:2e:f9:57:b5, 2015-01-01 00:18:38.300,1.646,-0.966,3.366,-689.392,-394.104,20.569, , , , , , ,21.978,17.133,-151.419
 12:32:26.698,eb:33:2e:f9:57:b5, 2015-01-01 00:18:38.300,1.53,-0.762,3.001,-701.66,-398.499,3.662, , , , , , ,18.237,15.211,-152.111
 12:32:26.766,eb:33:2e:f9:57:b5, 2015-01-01 00:18:38.300,1.281,-0.492,2.876,-711.731,-415.894,-11.78, , , , , , ,14.54,13.26,-152.732
 12:32:26.766,eb:33:2e:f9:57:b5, 2015-01-01 00:18:38.300,0.9,-0.159,2.856,-716.309,-447.754,-22.278, , , , , , ,10.844,11.162,-153.309
 12:32:26.766,eb:33:2e:f9:57:b5, 2015-01-01 00:18:38.300,0.363,0.212,2.889,-713.44,-489.746,-24.597, , , , , , ,7.18,8.849,-153.803
 12:32:26.766,eb:33:2e:f9:57:b5, 2015-01-01 00:18:38.300,-0.203,0.589,2.957,-703.43,-532.41,-14.893, , , , , , ,3.527,6.24,-154.171
 12:32:26.766,eb:33:2e:f9:57:b5, 2015-01-01 00:18:38.300,-0.758,1.029,3.268,-684.692,-562.256,7.935, , , , , , ,0.049,3.483,-154.265
 12:32:26.766,eb:33:2e:f9:57:b5, 2015-01-01 00:18:38.300,-1.308,1.681,3.808,-655.212,-572.388,40.894, , , , , , ,-3.279,0.637,-154.045
 12:32:26.766,eb:33:2e:f9:57:b5, 2015-01-01 00:18:38.300,-1.718,2.523,4.346,-614.258,-567.383,77.759, , , , , , ,-6.449,-2.17,-153.49
 12:32:26.766,eb:33:2e:f9:57:b5, 2015-01-01 00:18:38.300,-1.989,3.418,4.791,-562.5,-556.641,112.549, , , , , , ,-9.487,-4.927,-152.611
 12:32:26.766,eb:33:2e:f9:57:b5, 2015-01-01 00:18:38.300,-2.146,4.53,5.303,-489.624,-542.786,142.883, , , , , , ,-12.222,-7.498,-151.441
 12:32:26.766,eb:33:2e:f9:57:b5, 2015-01-01 00:18:38.300,-2.434,5.589,5.798,-422.302,-533.203,155.64, , , , , , ,-14.678,-9.932,-150.062
 12:32:26.766,eb:33:2e:f9:57:b5, 2015-01-01 00:18:38.300,-2.89,6.65,6.252,-347.046,-524.963,154.297, , , , , , ,-16.859,-12.261,-148.563
 12:32:26.766,eb:33:2e:f9:57:b5, 2015-01-01 00:18:38.300,-3.455,7.512,6.595,-260.742,-512.817,141.541, , , , , , ,-18.754,-14.54,-147.025
 12:32:26.766,eb:33:2e:f9:57:b5, 2015-01-01 00:18:38.300,-3.93,8.173,6.693,-167.786,-484.802,119.873, , , , , , ,-20.182,-16.672,-145.525
 12:32:26.766,eb:33:2e:f9:57:b5, 2015-01-01 00:18:38.300,-4.208,8.667,6.5,-81.726,-437.256,92.834, , , , , , ,-21.171,-18.633,-144.163
 12:32:26.766,eb:33:2e:f9:57:b5, 2015-01-01 00:18:38.300,-4.218,8.997,6.17,-15.808,-373.413,59.57, , , , , , ,-21.747,-20.358,-143.026
 12:32:26.766,eb:33:2e:f9:57:b5, 2015-01-01 00:18:38.300,-4.149,9.13,5.773,25.818,-301.147,20.508, , , , , , ,-22.033,-21.846,-142.18
 12:32:26.834,eb:33:2e:f9:57:b5, 2015-01-01 00:18:38.300,-4.134,8.882,5.29,51.758,-230.225,-23.01, , , , , , ,-22.017,-23.055,-141.68
 12:32:26.834,eb:33:2e:f9:57:b5, 2015-01-01 00:18:38.300,-4.249,8.159,4.692,73.73,-164.856,-62.683, , , , , , ,-21.747,-24.027,-141.531
 12:32:26.834,eb:33:2e:f9:57:b5, 2015-01-01 00:18:38.300,-4.394,7.064,3.948,97.717,-110.535,-91.187, , , , , , ,-21.248,-24.785,-141.68
 12:32:26.834,eb:33:2e:f9:57:b5, 2015-01-01 00:18:38.300,-4.447,5.88,3.201,121.155,-69.641,-101.99, , , , , , ,-20.555,-25.373,-142.026
 12:32:26.834,eb:33:2e:f9:57:b5, 2015-01-01 00:18:38.300,-4.359,4.709,2.489,141.235,-44.922,-94.666, , , , , , ,-19.709,-25.796,-142.438
 12:32:26.834,eb:33:2e:f9:57:b5, 2015-01-01 00:18:38.300,-4.073,3.5,1.952,161.011,-31.311,-70.496, , , , , , ,-18.787,-26.104,-142.795
 12:32:26.835,eb:33:2e:f9:57:b5, 2015-01-01 00:18:38.300,-3.637,2.33,1.753,183.838,-18.066,-32.349, , , , , , ,-17.82,-26.29,-143.015
 12:32:26.835,eb:33:2e:f9:57:b5, 2015-01-01 00:18:38.300,-2.311,1.318,1.825,207.764,4.822,15.686, , , , , , ,-16.826,-26.323,-143.031
 12:32:26.858,eb:33:2e:f9:57:b5, 2015-01-01 00:18:38.300,-5.071,1.96,3.742,490.234,-11.23,-172.913, , , , , , ,-15.211,-26.367,-143.152
 12:32:26.858,eb:33:2e:f9:57:b5, 2015-01-01 00:18:38.300,5.754,10.042,3.445,988.953,43.091,-378.967, , , , , , ,-9.745,-25.856,-145.195
 12:32:26.858,eb:33:2e:f9:57:b5, 2015-01-01 00:18:38.300,2.882,11.969,6.818,524.902,762.39,-351.013, , , , , , ,-5.411,-23.302,-147.656
 12:32:26.858,eb:33:2e:f9:57:b5, 2015-01-01 00:18:38.300,6.901,4.914,7.768,147.705,709.534,283.752, , , , , , ,-3.939,-19.764,-147.865
 12:32:26.858,eb:33:2e:f9:57:b5, 2015-01-01 00:18:38.300,-6.139,7.558,5.331,-11.047,732.056,210.022, , , , , , ,-4.109,-15.59,-146.678
 12:32:26.858,eb:33:2e:f9:57:b5, 2015-01-01 00:18:38.300,-6.082,2.454,0.482,15.808,519.836,69.824, , , , , , ,-4.252,-12.706,-146.052
 12:32:26.858,eb:33:2e:f9:57:b5, 2015-01-01 00:18:38.300,0.798,-1.195,-1.414,90.515,175.903,-79.468, , , , , , ,-3.878,-11.129,-146.272
 12:32:26.859,eb:33:2e:f9:57:b5, 2015-01-01 00:18:38.300,-0.987,-1.552,1.784,79.773,227.905,30.151, , , , , , ,-3.34,-10.404,-146.464
 12:32:26.862,eb:33:2e:f9:57:b5, 2015-01-01 00:18:38.300,-2.945,0.934,-0.36,40.344,243.53,32.837, , , , , , ,-3.131,-8.992,-146.294
 12:32:26.862,eb:33:2e:f9:57:b5, 2015-01-01 00:18:38.300,-0.341,-0.451,-1.365,47.302,95.703,10.803, , , , , , ,-2.911,-8.212,-146.223
 12:32:26.862,eb:33:2e:f9:57:b5, 2015-01-01 00:18:38.300,1.704,0.593,0.643,33.264,58.655,-11.536, , , , , , ,-2.719,-7.938,-146.228
 12:32:26.862,eb:33:2e:f9:57:b5, 2015-01-01 00:18:38.300,-0.467,1.09,1.821,14.954,138.367,-51.208, , , , , , ,-2.56,-7.388,-146.437
 12:32:26.862,eb:33:2e:f9:57:b5, 2015-01-01 00:18:38.300,-0.64,0.076,0.442,17.639,115.906,-46.631, , , , , , ,-2.444,-6.724,-146.739
 12:32:26.862,eb:33:2e:f9:57:b5, 2015-01-01 00:18:38.300,-0.062,0.107,0.165,21.118,65.918,-37.17, , , , , , ,-2.329,-6.328,-146.942
 12:32:26.862,eb:33:2e:f9:57:b5, 2015-01-01 00:18:38.300,-0.013,0.093,0.904,25.208,56.519,-42.542, , , , , , ,-2.181,-6.037,-147.167
 12:32:26.862,eb:33:2e:f9:57:b5, 2015-01-01 00:18:38.300,0.471,-0.145,1.307,33.142,43.274,-30.09, , , , , , ,-1.994,-5.795,-147.354
 12:32:26.862,eb:33:2e:f9:57:b5, 2015-01-01 00:18:38.300,-0.264,-0.205,1.821,42.358,59.265,-26.062, , , , , , ,-1.791,-5.537,-147.508
 12:32:26.863,eb:33:2e:f9:57:b5, 2015-01-01 00:18:38.300,-0.968,-0.502,1.876,76.721,29.724,-20.752, , , , , , ,-1.472,-5.312,-147.629
 12:32:26.863,eb:33:2e:f9:57:b5, 2015-01-01 00:18:38.300,-0.418,-0.725,1.518,133.24,-54.565,-2.93, , , , , , ,-0.923,-5.4,-147.678
 12:32:26.863,eb:33:2e:f9:57:b5, 2015-01-01 00:18:38.300,0.204,-0.535,1.886,167.236,-88.135,2.625, , , , , , ,-0.126,-5.784,-147.673
 12:32:26.863,eb:33:2e:f9:57:b5, 2015-01-01 00:18:38.300,0.166,-0.205,2.239,187.805,-83.679,-2.502, , , , , , ,0.764,-6.224,-147.678
 12:32:26.863,eb:33:2e:f9:57:b5, 2015-01-01 00:18:38.300,0.717,-0.623,2.981,207.581,-32.349,-7.263, , , , , , ,1.758,-6.498,-147.711
 12:32:26.864,eb:33:2e:f9:57:b5, 2015-01-01 00:18:38.300,2.498,-0.438,3.352,244.507,-5.737,-4.639, , , , , , ,2.917,-6.559,-147.744
 12:32:26.864,eb:33:2e:f9:57:b5, 2015-01-01 00:18:38.300,1.637,0.601,4.969,284.79,38.757,-42.908, , , , , , ,4.274,-6.454,-147.865
 12:32:26.901,eb:33:2e:f9:57:b5, 2015-01-01 00:18:38.300,1.636,-0.681,5.128,352.173,78.979,-70.496, , , , , , ,5.927,-6.119,-148.134
 12:32:26.901,eb:33:2e:f9:57:b5, 2015-01-01 00:18:38.300,1.739,-1.518,6.021,414.307,173.34,-71.96, , , , , , ,7.905,-5.416,-148.414
 12:32:26.901,eb:33:2e:f9:57:b5, 2015-01-01 00:18:38.300,2.175,-1.467,5.652,472.778,238.22,-72.51, , , , , , ,10.168,-4.274,-148.612
 12:32:26.901,eb:33:2e:f9:57:b5, 2015-01-01 00:18:38.300,2.477,-0.98,5.386,529.114,259.705,-94.177, , , , , , ,12.711,-2.955,-148.771
 12:32:26.901,eb:33:2e:f9:57:b5, 2015-01-01 00:18:38.300,2.125,-1.513,5.943,605.042,292.358,-119.202, , , , , , ,15.595,-1.478,-148.964
 12:32:26.901,eb:33:2e:f9:57:b5, 2015-01-01 00:18:38.300,1.61,-1.48,6.331,676.575,325.928,-138.733, , , , , , ,18.842,0.214,-149.123
 12:32:26.901,eb:33:2e:f9:57:b5, 2015-01-01 00:18:38.300,1.254,-1.426,5.987,737.427,302.612,-147.217, , , , , , ,22.412,1.961,-149.233
 12:32:26.901,eb:33:2e:f9:57:b5, 2015-01-01 00:18:38.300,0.542,-0.669,5.291,753.113,236.572,-154.48, , , , , , ,26.169,3.472,-149.387
 12:32:26.949,eb:33:2e:f9:57:b5, 2015-01-01 00:18:38.300,0.281,-0.12,4.688,722.595,175.11,-151.184, , , , , , ,29.839,4.68,-149.601
 12:32:26.949,eb:33:2e:f9:57:b5, 2015-01-01 00:18:38.300,0.285,0.339,4.401,695.801,151.123,-154.541, , , , , , ,33.354,5.746,-149.826
 12:32:26.949,eb:33:2e:f9:57:b5, 2015-01-01 00:18:38.300,0.304,0.406,5.473,667.969,203.064,-137.512, , , , , , ,36.722,6.894,-149.881
 12:32:26.949,eb:33:2e:f9:57:b5, 2015-01-01 00:18:38.300,0.585,-0.162,2.933,682.007,185.425,-164.185, , , , , , ,40.111,8.119,-149.848
 12:32:26.949,eb:33:2e:f9:57:b5, 2015-01-01 00:18:38.300,-0.169,1.228,2.982,629.456,201.782,-151.55, , , , , , ,43.374,9.333,-149.843
 12:32:26.949,eb:33:2e:f9:57:b5, 2015-01-01 00:18:38.300,-0.492,0.936,2.479,583.679,211.731,-142.883, , , , , , ,46.483,10.624,-149.612
 12:32:26.949,eb:33:2e:f9:57:b5, 2015-01-01 00:18:38.300,0.372,1.436,1.459,421.875,220.215,-92.163, , , , , , ,49.016,11.777,-149.194
 12:32:26.949,eb:33:2e:f9:57:b5, 2015-01-01 00:18:38.300,1.019,0.083,3.262,300.476,257.874,-47.424, , , , , , ,50.894,12.794,-148.469
 12:32:26.991,eb:33:2e:f9:57:b5, 2015-01-01 00:18:38.840,1.432,-0.359,4.403,236.633,314.88,-21.545, , , , , , ,52.427,13.81,-147.387
 12:32:26.991,eb:33:2e:f9:57:b5, 2015-01-01 00:18:38.840,1.745,-0.09,5.36,231.995,353.638,-21.057, , , , , , ,53.91,14.914,-146.03
 12:32:26.991,eb:33:2e:f9:57:b5, 2015-01-01 00:18:38.840,1.821,0.502,6.02,266.418,360.352,-43.335, , , , , , ,55.541,16.089,-144.602
 12:32:26.991,eb:33:2e:f9:57:b5, 2015-01-01 00:18:38.840,1.723,0.935,5.99,317.261,329.285,-78.552, , , , , , ,57.387,17.303,-143.289
 12:32:26.991,eb:33:2e:f9:57:b5, 2015-01-01 00:18:38.840,1.741,0.818,5.393,362.976,270.935,-115.845, , , , , , ,59.436,18.506,-142.251
 12:32:26.991,eb:33:2e:f9:57:b5, 2015-01-01 00:18:38.840,1.779,0.336,4.916,388.611,217.041,-151.855, , , , , , ,61.578,19.693,-141.504
 12:32:26.991,eb:33:2e:f9:57:b5, 2015-01-01 00:18:38.840,1.764,0.091,4.571,388.611,179.932,-184.875, , , , , , ,63.704,20.901,-141.01
 12:32:26.991,eb:33:2e:f9:57:b5, 2015-01-01 00:18:38.840,1.808,-0.01,4.48,368.835,157.837,-215.088, , , , , , ,65.693,22.159,-140.685
 12:32:27.036,eb:33:2e:f9:57:b5, 2015-01-01 00:18:38.840,1.871,-0.093,4.657,339.05,151.184,-244.629, , , , , , ,67.549,23.533,-140.427
 12:32:27.036,eb:33:2e:f9:57:b5, 2015-01-01 00:18:38.840,1.997,-0.229,4.861,307.434,155.701,-271.301, , , , , , ,69.252,25.027,-140.158
 12:32:27.036,eb:33:2e:f9:57:b5, 2015-01-01 00:18:38.840,2.096,-0.485,5.036,280.457,168.884,-295.837, , , , , , ,70.84,26.653,-139.85
 12:32:27.036,eb:33:2e:f9:57:b5, 2015-01-01 00:18:38.840,2.071,-0.756,5.021,258.423,184.937,-316.589, , , , , , ,72.323,28.383,-139.466
 12:32:27.036,eb:33:2e:f9:57:b5, 2015-01-01 00:18:38.840,2.044,-1.015,4.743,236.145,198.486,-335.144, , , , , , ,73.801,30.234,-138.95
 12:32:27.036,eb:33:2e:f9:57:b5, 2015-01-01 00:18:38.840,1.983,-1.187,4.448,218.14,204.346,-343.933, , , , , , ,75.245,32.146,-138.329
 12:32:27.036,eb:33:2e:f9:57:b5, 2015-01-01 00:18:38.840,1.862,-1.349,4.161,199.402,205.261,-346.375, , , , , , ,76.657,34.074,-137.642
 12:32:27.036,eb:33:2e:f9:57:b5, 2015-01-01 00:18:38.840,1.681,-1.492,3.898,179.626,201.843,-341.797, , , , , , ,77.964,35.958,-136.928
 12:32:27.059,eb:33:2e:f9:57:b5, 2015-01-01 00:18:38.840,1.518,-1.656,3.718,160.706,195.801,-330.444, , , , , , ,79.288,37.798,-136.126
 12:32:27.059,eb:33:2e:f9:57:b5, 2015-01-01 00:18:38.840,1.406,-1.843,3.624,143.86,191.223,-312.378, , , , , , ,80.574,39.54,-135.258
 12:32:27.059,eb:33:2e:f9:57:b5, 2015-01-01 00:18:38.840,1.376,-2.032,3.564,129.028,191.833,-288.452, , , , , , ,81.859,41.16,-134.319
 12:32:27.059,eb:33:2e:f9:57:b5, 2015-01-01 00:18:38.840,1.396,-2.228,3.525,116.15,199.524,-259.949, , , , , , ,83.101,42.621,-133.308
 12:32:27.059,eb:33:2e:f9:57:b5, 2015-01-01 00:18:38.840,1.454,-2.432,3.427,104.675,213.318,-227.478, , , , , , ,84.496,43.929,-132.072
 12:32:27.059,eb:33:2e:f9:57:b5, 2015-01-01 00:18:38.840,1.513,-2.616,3.234,93.628,229.614,-192.261, , , , , , ,85.99,45.049,-130.622
 12:32:27.059,eb:33:2e:f9:57:b5, 2015-01-01 00:18:38.840,1.591,-2.735,2.9,82.092,242.432,-155.334, , , , , , ,87.589,45.967,-128.996
 12:32:27.059,eb:33:2e:f9:57:b5, 2015-01-01 00:18:38.840,1.69,-2.792,2.514,69.458,249.451,-118.469, , , , , , ,89.138,46.659,-127.31
 12:32:27.104,eb:33:2e:f9:57:b5, 2015-01-01 00:18:38.840,1.778,-2.804,2.081,54.81,249.878,-82.092, , , , , , ,90.78,47.142,-125.48
 12:32:27.104,eb:33:2e:f9:57:b5, 2015-01-01 00:18:38.840,1.883,-2.779,1.597,37.476,244.568,-47.119, , , , , , ,92.351,47.411,-123.635
 12:32:27.104,eb:33:2e:f9:57:b5, 2015-01-01 00:18:38.840,2.014,-2.73,1.092,16.846,235.413,-13.306, , , , , , ,93.785,47.483,-121.86
 12:32:27.104,eb:33:2e:f9:57:b5, 2015-01-01 00:18:38.840,2.1,-2.66,0.614,-6.287,220.886,18.188, , , , , , ,94.927,47.368,-120.273
 12:32:27.104,eb:33:2e:f9:57:b5, 2015-01-01 00:18:38.840,2.167,-2.577,0.067,-30.701,195.068,45.776, , , , , , ,95.916,47.093,-118.784
 12:32:27.104,eb:33:2e:f9:57:b5, 2015-01-01 00:18:38.840,2.243,-2.557,-0.551,-55.603,154.541,68.237, , , , , , ,96.57,46.703,-117.57
 12:32:27.104,eb:33:2e:f9:57:b5, 2015-01-01 00:18:38.840,2.381,-2.673,-1.36,-83.313,102.966,87.036, , , , , , ,96.812,46.236,-116.741
 12:32:27.104,eb:33:2e:f9:57:b5, 2015-01-01 00:18:38.840,2.521,-2.944,-2.381,-120.239,45.654,105.652, , , , , , ,96.487,45.714,-116.411
 12:32:27.172,eb:33:2e:f9:57:b5, 2015-01-01 00:18:38.840,2.794,-3.21,-3.371,-168.396,-17.273,124.817, , , , , , ,95.724,45.126,-116.439
 12:32:27.172,eb:33:2e:f9:57:b5, 2015-01-01 00:18:38.840,3.053,-3.307,-3.647,-216.614,-86.975,137.451, , , , , , ,94.384,44.489,-116.922
 12:32:27.172,eb:33:2e:f9:57:b5, 2015-01-01 00:18:38.840,3.12,-3.479,-3.183,-255.005,-159.18,145.813, , , , , , ,92.505,43.819,-117.894
 12:32:27.172,eb:33:2e:f9:57:b5, 2015-01-01 00:18:38.840,3.229,-3.613,-2.504,-287.17,-222.9,154.419, , , , , , ,90.099,43.094,-119.35
 12:32:27.172,eb:33:2e:f9:57:b5, 2015-01-01 00:18:38.840,3.343,-3.322,-1.828,-325.745,-272.278,160.889, , , , , , ,87.396,42.27,-121.053
 12:32:27.172,eb:33:2e:f9:57:b5, 2015-01-01 00:18:38.840,3.281,-2.804,-1.216,-376.404,-307.19,163.147, , , , , , ,84.359,41.358,-122.932
 12:32:27.172,eb:33:2e:f9:57:b5, 2015-01-01 00:18:38.840,3.136,-2.51,-0.697,-431.458,-335.083,162.842, , , , , , ,81.008,40.342,-124.92
 12:32:27.172,eb:33:2e:f9:57:b5, 2015-01-01 00:18:38.840,2.998,-2.448,-0.208,-482.666,-358.521,160.4, , , , , , ,77.322,39.216,-127.018
 12:32:27.193,eb:33:2e:f9:57:b5, 2015-01-01 00:18:38.840,2.847,-2.423,0.271,-524.963,-379.944,156.494, , , , , , ,73.499,37.98,-129.062
 12:32:27.193,eb:33:2e:f9:57:b5, 2015-01-01 00:18:38.840,2.635,-2.368,0.74,-556.091,-400.696,151.367, , , , , , ,69.543,36.634,-131.089
 12:32:27.193,eb:33:2e:f9:57:b5, 2015-01-01 00:18:38.840,2.416,-2.299,1.202,-576.294,-421.387,144.836, , , , , , ,65.517,35.162,-133.094
 12:32:27.193,eb:33:2e:f9:57:b5, 2015-01-01 00:18:38.840,2.285,-2.22,1.655,-588.684,-439.575,138.55, , , , , , ,61.419,33.547,-135.11
 12:32:27.193,eb:33:2e:f9:57:b5, 2015-01-01 00:18:38.840,2.285,-2.083,2.132,-598.633,-451.477,132.69, , , , , , ,57.431,31.827,-136.994
 12:32:27.193,eb:33:2e:f9:57:b5, 2015-01-01 00:18:38.840,2.311,-1.798,2.679,-609.924,-450.195,123.169, , , , , , ,53.503,30.026,-138.735
 12:32:27.193,eb:33:2e:f9:57:b5, 2015-01-01 00:18:38.840,2.25,-1.18,3.193,-618.835,-440.186,100.586, , , , , , ,49.647,28.207,-140.328
 12:32:27.193,eb:33:2e:f9:57:b5, 2015-01-01 00:18:38.840,2.174,-0.746,3.378,-615.173,-443.054,73.364, , , , , , ,45.791,26.384,-141.894
 12:32:27.216,eb:33:2e:f9:57:b5, 2015-01-01 00:18:38.840,1.978,-0.611,3.493,-604.614,-451.904,41.809, , , , , , ,42.1,24.582,-143.399
 12:32:27.216,eb:33:2e:f9:57:b5, 2015-01-01 00:18:38.840,1.835,-0.652,3.464,-594.299,-460.022,13.123, , , , , , ,38.502,22.764,-144.904
 12:32:27.216,eb:33:2e:f9:57:b5, 2015-01-01 00:18:38.840,1.786,-0.72,3.455,-589.6,-460.083,-9.155, , , , , , ,34.991,20.918,-146.393
 12:32:27.216,eb:33:2e:f9:57:b5, 2015-01-01 00:18:38.840,1.717,-0.757,3.522,-592.285,-448.608,-27.161, , , , , , ,31.487,19.034,-147.843
 12:32:27.216,eb:33:2e:f9:57:b5, 2015-01-01 00:18:38.840,1.588,-0.758,3.558,-598.938,-430.908,-40.894, , , , , , ,28.098,17.221,-149.156
 12:32:27.216,eb:33:2e:f9:57:b5, 2015-01-01 00:18:38.840,1.417,-0.781,3.495,-605.164,-416.26,-51.941, , , , , , ,24.741,15.436,-150.348
 12:32:27.216,eb:33:2e:f9:57:b5, 2015-01-01 00:18:38.840,1.242,-0.748,3.283,-609.07,-412.598,-60.059, , , , , , ,21.423,13.651,-151.458
 12:32:27.216,eb:33:2e:f9:57:b5, 2015-01-01 00:18:38.840,1.066,-0.719,2.998,-610.901,-422.485,-62.927, , , , , , ,18.078,11.739,-152.507
 12:32:27.261,eb:33:2e:f9:57:b5, 2015-01-01 00:18:38.840,0.837,-0.742,2.8,-609.68,-442.078,-59.753, , , , , , ,14.854,9.75,-153.435
 12:32:27.261,eb:33:2e:f9:57:b5, 2015-01-01 00:18:38.840,0.534,-0.769,2.624,-604.98,-474.426,-49.011, , , , , , ,11.695,7.57,-154.226
 12:32:27.261,eb:33:2e:f9:57:b5, 2015-01-01 00:18:38.840,0.139,-0.765,2.5,-598.938,-515.381,-28.992, , , , , , ,8.619,5.153,-154.858
 12:32:27.261,eb:33:2e:f9:57:b5, 2015-01-01 00:18:38.840,-0.205,-0.696,2.502,-592.651,-556.519,3.052, , , , , , ,5.548,2.422,-155.259
 12:32:27.261,eb:33:2e:f9:57:b5, 2015-01-01 00:18:38.840,-0.478,-0.463,2.882,-584.29,-588.867,46.753, , , , , , ,2.609,-0.461,-155.325
 12:32:27.261,eb:33:2e:f9:57:b5, 2015-01-01 00:18:38.840,-0.659,-0.033,3.579,-570.312,-607.544,98.328, , , , , , ,-0.286,-3.472,-154.99
 12:32:27.261,eb:33:2e:f9:57:b5, 2015-01-01 00:18:38.840,-0.774,0.629,4.474,-549.316,-607.361,150.757, , , , , , ,-3.142,-6.498,-154.248
 12:32:27.261,eb:33:2e:f9:57:b5, 2015-01-01 00:18:38.840,-0.886,1.46,5.401,-521.362,-590.515,199.707, , , , , , ,-6.037,-9.459,-153.1
 12:32:27.329,eb:33:2e:f9:57:b5, 2015-01-01 00:18:39.150,-0.926,2.394,6.185,-488.953,-566.467,237.915, , , , , , ,-8.833,-12.173,-151.589
 12:32:27.329,eb:33:2e:f9:57:b5, 2015-01-01 00:18:39.150,-0.948,3.492,6.904,-455.627,-538.147,259.277, , , , , , ,-11.591,-14.656,-149.81
 12:32:27.329,eb:33:2e:f9:57:b5, 2015-01-01 00:18:39.150,-1.082,4.712,7.472,-422.119,-504.211,262.878, , , , , , ,-14.293,-16.886,-147.876
 12:32:27.329,eb:33:2e:f9:57:b5, 2015-01-01 00:18:39.150,-1.422,5.89,7.739,-384.46,-469.177,249.329, , , , , , ,-16.968,-18.907,-145.887
 12:32:27.329,eb:33:2e:f9:57:b5, 2015-01-01 00:18:39.150,-1.956,7.061,7.725,-333.435,-434.753,218.689, , , , , , ,-19.396,-20.676,-143.97
 12:32:27.329,eb:33:2e:f9:57:b5, 2015-01-01 00:18:39.150,-2.523,8.296,7.575,-261.536,-408.081,174.255, , , , , , ,-21.5,-22.297,-142.213
 12:32:27.329,eb:33:2e:f9:57:b5, 2015-01-01 00:18:39.150,-2.935,9.335,7.414,-176.208,-385.864,118.896, , , , , , ,-23.154,-23.857,-140.685
 12:32:27.329,eb:33:2e:f9:57:b5, 2015-01-01 00:18:39.150,-3.206,9.824,7.311,-95.459,-353.76,58.716, , , , , , ,-24.34,-25.395,-139.438
 12:32:27.352,eb:33:2e:f9:57:b5, 2015-01-01 00:18:39.150,-3.306,9.812,7.066,-32.715,-302.124,-0.793, , , , , , ,-25.005,-26.823,-138.571
 12:32:27.352,eb:33:2e:f9:57:b5, 2015-01-01 00:18:39.150,-3.344,9.466,6.441,6.226,-230.591,-54.199, , , , , , ,-25.252,-28.07,-138.12
 12:32:27.352,eb:33:2e:f9:57:b5, 2015-01-01 00:18:39.150,-3.527,8.926,5.562,28.564,-154.419,-98.572, , , , , , ,-25.159,-29.081,-138.093
 12:32:27.352,eb:33:2e:f9:57:b5, 2015-01-01 00:18:39.150,-3.788,8.156,4.758,48.523,-86.853,-133.545, , , , , , ,-24.796,-29.861,-138.444
 12:32:27.352,eb:33:2e:f9:57:b5, 2015-01-01 00:18:39.150,-3.896,7.177,4.073,76.965,-34.729,-156.555, , , , , , ,-24.148,-30.416,-139.092
 12:32:27.352,eb:33:2e:f9:57:b5, 2015-01-01 00:18:39.150,-3.838,5.999,3.521,114.563,4.944,-164.673, , , , , , ,-23.225,-30.789,-139.933
 12:32:27.352,eb:33:2e:f9:57:b5, 2015-01-01 00:18:39.150,-3.695,4.82,3.154,155.823,38.94,-157.288, , , , , , ,-22.05,-30.981,-140.861
 12:32:27.352,eb:33:2e:f9:57:b5, 2015-01-01 00:18:39.150,-3.464,3.738,2.815,193.298,67.566,-137.39, , , , , , ,-20.676,-30.987,-141.784
 12:32:27.419,eb:33:2e:f9:57:b5, 2015-01-01 00:18:39.150,-4.181,2.741,2.42,266.052,37.415,-144.043, , , , , , ,-19.144,-30.866,-142.625
 12:32:27.419,eb:33:2e:f9:57:b5, 2015-01-01 00:18:39.150,6.66,3.076,1.375,750.732,624.268,-441.589, , , , , , ,-14.854,-29.114,-145.322
 12:32:27.419,eb:33:2e:f9:57:b5, 2015-01-01 00:18:39.150,5.497,3.618,6.911,557.068,1125.305,-355.347, , , , , , ,-9.915,-24.988,-148.716
 12:32:27.419,eb:33:2e:f9:57:b5, 2015-01-01 00:18:39.150,-1.648,9.176,7.186,247.803,1251.648,-322.51, , , , , , ,-7.015,-19.045,-151.501
 12:32:27.419,eb:33:2e:f9:57:b5, 2015-01-01 00:18:39.150,-2.234,-0.11,4.108,120.789,983.398,83.13, , , , , , ,-5.944,-13.48,-152.644
 12:32:27.419,eb:33:2e:f9:57:b5, 2015-01-01 00:18:39.150,-5.813,-0.32,1.873,62.012,679.871,284.668, , , , , , ,-5.581,-9.278,-151.804
 12:32:27.419,eb:33:2e:f9:57:b5, 2015-01-01 00:18:39.150,-6.994,0.5,-1.941,36.987,292.358,138, , , , , , ,-5.51,-7.119,-151.177
 12:32:27.419,eb:33:2e:f9:57:b5, 2015-01-01 00:18:39.150,-0.704,-2.122,-1.84,102.234,88.196,45.898, , , , , , ,-5.202,-6.004,-150.903
 12:32:27.419,eb:33:2e:f9:57:b5, 2015-01-01 00:18:39.150,0.668,-0.942,0.931,104.248,36.987,26.184, , , , , , ,-4.702,-5.784,-150.864
 12:32:27.419,eb:33:2e:f9:57:b5, 2015-01-01 00:18:39.150,-1.122,0.379,1.362,74.89,103.333,67.2, , , , , , ,-4.257,-5.4,-150.573
 12:32:27.419,eb:33:2e:f9:57:b5, 2015-01-01 00:18:39.150,-1.114,0.041,-0.042,70.068,46.509,36.743, , , , , , ,-3.939,-4.988,-150.375
 12:32:27.419,eb:33:2e:f9:57:b5, 2015-01-01 00:18:39.150,1.074,0.175,0.116,60.242,-9.888,20.325, , , , , , ,-3.598,-4.938,-150.276
 12:32:27.419,eb:33:2e:f9:57:b5, 2015-01-01 00:18:39.150,0.934,0.799,1.532,41.931,31.372,-3.784, , , , , , ,-3.356,-4.905,-150.238
 12:32:27.419,eb:33:2e:f9:57:b5, 2015-01-01 00:18:39.150,0.241,0.05,1.726,42.358,79.529,-10.132, , , , , , ,-3.142,-4.576,-150.298
 12:32:27.419,eb:33:2e:f9:57:b5, 2015-01-01 00:18:39.150,0.28,0.432,1.099,39.856,92.529,-25.574, , , , , , ,-2.928,-4.142,-150.414
 12:32:27.419,eb:33:2e:f9:57:b5, 2015-01-01 00:18:39.150,-0.36,0.473,1.094,38.635,101.562,-49.011, , , , , , ,-2.697,-3.642,-150.65
 12:32:27.463,eb:33:2e:f9:57:b5, 2015-01-01 00:18:39.150,-0.234,0.253,0.46,33.081,80.078,-44.8, , , , , , ,-2.499,-3.203,-150.919
 12:32:27.463,eb:33:2e:f9:57:b5, 2015-01-01 00:18:39.150,-0.25,-0.102,0.966,36.682,58.35,-29.602, , , , , , ,-2.324,-2.884,-151.1
 12:32:27.463,eb:33:2e:f9:57:b5, 2015-01-01 00:18:39.150,-1.344,-0.248,1.495,56.213,41.138,-15.32, , , , , , ,-2.082,-2.637,-151.221
 12:32:27.463,eb:33:2e:f9:57:b5, 2015-01-01 00:18:39.150,-0.946,-0.855,2.081,90.454,1.404,6.714, , , , , , ,-1.675,-2.538,-151.243
 12:32:27.464,eb:33:2e:f9:57:b5, 2015-01-01 00:18:39.150,0.191,-0.876,1.955,119.385,-26.367,23.804, , , , , , ,-1.132,-2.62,-151.144
 12:32:27.464,eb:33:2e:f9:57:b5, 2015-01-01 00:18:39.150,0.457,0.1,1.794,139.099,-44.739,10.559, , , , , , ,-0.483,-2.807,-151.051
 12:32:27.464,eb:33:2e:f9:57:b5, 2015-01-01 00:18:39.150,0.213,0.094,2.391,160.339,-49.072,-7.385, , , , , , ,0.264,-3.06,-151.051
 12:32:27.464,eb:33:2e:f9:57:b5, 2015-01-01 00:18:39.150,0.228,-0.448,2.93,196.716,-42.297,-17.09, , , , , , ,1.203,-3.268,-151.128
 12:32:27.508,eb:33:2e:f9:57:b5, 2015-01-01 00:18:39.150,0.705,-0.532,2.791,235.535,-34.119,-24.719, , , , , , ,2.307,-3.455,-151.243
 12:32:27.508,eb:33:2e:f9:57:b5, 2015-01-01 00:18:39.150,1.038,-0.383,3.203,275.94,-16.296,-35.278, , , , , , ,3.62,-3.571,-151.403
 12:32:27.508,eb:33:2e:f9:57:b5, 2015-01-01 00:18:39.150,1.072,-0.445,4.163,320.435,24.109,-42.297, , , , , , ,5.136,-3.521,-151.6
 12:32:27.508,eb:33:2e:f9:57:b5, 2015-01-01 00:18:39.150,0.965,-0.754,4.652,361.755,70.435,-45.349, , , , , , ,6.905,-3.235,-151.804
 12:32:27.508,eb:33:2e:f9:57:b5, 2015-01-01 00:18:39.150,1.165,-1.329,4.897,403.381,142.334,-43.213, , , , , , ,8.849,-2.653,-151.941
 12:32:27.508,eb:33:2e:f9:57:b5, 2015-01-01 00:18:39.150,1.298,-1.477,4.509,442.688,201.965,-34.546, , , , , , ,10.981,-1.73,-151.968
 12:32:27.508,eb:33:2e:f9:57:b5, 2015-01-01 00:18:39.150,1.333,-1.086,3.658,492.188,209.534,-48.035, , , , , , ,13.337,-0.659,-151.952
 12:32:27.508,eb:33:2e:f9:57:b5, 2015-01-01 00:18:39.150,0.791,-1.041,3.973,544.678,217.041,-63.904, , , , , , ,15.98,0.445,-151.974
 12:32:27.553,eb:33:2e:f9:57:b5, 2015-01-01 00:18:39.150,0.865,-1.658,5.172,590.515,260.498,-66.528, , , , , , ,18.842,1.686,-151.924
 12:32:27.553,eb:33:2e:f9:57:b5, 2015-01-01 00:18:39.150,0.829,-2.5,6.225,643.188,320.007,-53.467, , , , , , ,21.956,3.186,-151.677
 12:32:27.553,eb:33:2e:f9:57:b5, 2015-01-01 00:18:39.150,1.017,-1.561,5.456,698.364,296.265,-65.613, , , , , , ,25.373,4.735,-151.32
 12:32:27.553,eb:33:2e:f9:57:b5, 2015-01-01 00:18:39.150,0.401,-1.693,5.947,732.361,277.466,-57.434, , , , , , ,29.015,6.141,-150.958
 12:32:27.553,eb:33:2e:f9:57:b5, 2015-01-01 00:18:39.150,0.232,-1.917,6.375,715.881,303.406,-39.795, , , , , , ,32.717,7.509,-150.419
 12:32:27.553,eb:33:2e:f9:57:b5, 2015-01-01 00:18:39.150,0.954,-1.426,5.072,688.293,283.63,-26.672, , , , , , ,36.304,8.828,-149.656
 12:32:27.553,eb:33:2e:f9:57:b5, 2015-01-01 00:18:39.150,0.96,0.929,4.066,664.368,216.553,-39.062, , , , , , ,39.792,9.871,-149.062
 12:32:27.554,eb:33:2e:f9:57:b5, 2015-01-01 00:18:39.150,0.92,1.377,5.422,616.821,276.917,-44.617, , , , , , ,43.094,10.92,-148.387
 12:32:27.598,eb:33:2e:f9:57:b5, 2015-01-01 00:18:39.440,0.22,-1.248,5.718,638.55,405.518,-14.648, , , , , , ,46.428,12.283,-147.239
 12:32:27.598,eb:33:2e:f9:57:b5, 2015-01-01 00:18:39.440,-1.514,-0.101,3.023,603.088,502.136,29.358, , , , , , ,49.949,13.843,-145.448
 12:32:27.598,eb:33:2e:f9:57:b5, 2015-01-01 00:18:39.440,-0.76,1.576,-0.937,466.736,473.816,110.535, , , , , , ,53.174,15.073,-143.201
 12:32:27.598,eb:33:2e:f9:57:b5, 2015-01-01 00:18:39.440,0.342,1.124,-0.708,305.359,407.654,190.002, , , , , , ,55.613,15.683,-140.894
 12:32:27.598,eb:33:2e:f9:57:b5, 2015-01-01 00:18:39.440,1.047,0.501,0.446,200.684,363.525,235.229, , , , , , ,57.415,15.809,-138.625
 12:32:27.598,eb:33:2e:f9:57:b5, 2015-01-01 00:18:39.440,1.544,0.406,1.904,171.936,348.511,243.896, , , , , , ,58.903,15.705,-136.39
 12:32:27.598,eb:33:2e:f9:57:b5, 2015-01-01 00:18:39.440,1.741,0.861,3.547,214.478,327.515,216.37, , , , , , ,60.436,15.568,-134.275
 12:32:27.598,eb:33:2e:f9:57:b5, 2015-01-01 00:18:39.440,1.497,1.707,4.825,300.964,282.288,156.799, , , , , , ,62.238,15.491,-132.446
 12:32:27.620,eb:33:2e:f9:57:b5, 2015-01-01 00:18:39.440,1.159,2.469,4.966,388.733,207.275,75.439, , , , , , ,64.38,15.546,-131.083
 12:32:27.620,eb:33:2e:f9:57:b5, 2015-01-01 00:18:39.440,1.097,2.698,4.33,441.162,121.643,-9.888, , , , , , ,66.709,15.76,-130.281
 12:32:27.620,eb:33:2e:f9:57:b5, 2015-01-01 00:18:39.440,1.266,2.22,4.051,453.674,56.152,-91.797, , , , , , ,69.038,16.188,-130.018
 12:32:27.620,eb:33:2e:f9:57:b5, 2015-01-01 00:18:39.440,1.373,1.535,4.296,436.34,25.696,-165.71, , , , , , ,71.23,16.886,-130.089
 12:32:27.620,eb:33:2e:f9:57:b5, 2015-01-01 00:18:39.440,1.47,0.931,4.703,404.114,22.156,-230.286, , , , , , ,73.251,17.897,-130.309
 12:32:27.620,eb:33:2e:f9:57:b5, 2015-01-01 00:18:39.440,1.587,0.452,5.13,367.188,32.837,-285.522, , , , , , ,75.086,19.21,-130.534
 12:32:27.620,eb:33:2e:f9:57:b5, 2015-01-01 00:18:39.440,1.794,0.066,5.306,329.834,49.011,-330.75, , , , , , ,76.745,20.775,-130.721
 12:32:27.620,eb:33:2e:f9:57:b5, 2015-01-01 00:18:39.440,2,-0.332,5.294,295.105,68.054,-367.92, , , , , , ,78.223,22.56,-130.831
 12:32:27.667,eb:33:2e:f9:57:b5, 2015-01-01 00:18:39.440,2.15,-0.735,5.142,265.625,85.754,-397.4, , , , , , ,79.612,24.527,-130.814
 12:32:27.667,eb:33:2e:f9:57:b5, 2015-01-01 00:18:39.440,2.224,-1.083,4.908,241.15,98.816,-419.067, , , , , , ,80.92,26.636,-130.671
 12:32:27.667,eb:33:2e:f9:57:b5, 2015-01-01 00:18:39.440,2.213,-1.346,4.619,219.482,105.347,-433.167, , , , , , ,82.167,28.828,-130.452
 12:32:27.667,eb:33:2e:f9:57:b5, 2015-01-01 00:18:39.440,2.105,-1.511,4.292,197.449,105.408,-439.819, , , , , , ,83.293,31.053,-130.188
 12:32:27.667,eb:33:2e:f9:57:b5, 2015-01-01 00:18:39.440,1.967,-1.621,4.004,173.462,100.037,-437.805, , , , , , ,84.38,33.289,-129.864
 12:32:27.667,eb:33:2e:f9:57:b5, 2015-01-01 00:18:39.440,1.827,-1.745,3.851,148.56,92.834,-428.284, , , , , , ,85.364,35.491,-129.512
 12:32:27.667,eb:33:2e:f9:57:b5, 2015-01-01 00:18:39.440,1.691,-1.877,3.766,123.169,88.928,-411.011, , , , , , ,86.254,37.612,-129.139
 12:32:27.667,eb:33:2e:f9:57:b5, 2015-01-01 00:18:39.440,1.595,-1.981,3.675,98.389,89.905,-387.024, , , , , , ,86.984,39.6,-128.771
 12:32:27.710,eb:33:2e:f9:57:b5, 2015-01-01 00:18:39.440,1.547,-2.062,3.576,74.463,98.328,-357.727, , , , , , ,87.737,41.468,-128.26
 12:32:27.710,eb:33:2e:f9:57:b5, 2015-01-01 00:18:39.440,1.522,-2.132,3.488,52.429,113.464,-323.364, , , , , , ,88.478,43.176,-127.601
 12:32:27.710,eb:33:2e:f9:57:b5, 2015-01-01 00:18:39.440,1.469,-2.241,3.441,34.058,131.653,-285.828, , , , , , ,89.253,44.692,-126.777
 12:32:27.710,eb:33:2e:f9:57:b5, 2015-01-01 00:18:39.440,1.342,-2.427,3.364,20.752,144.287,-246.643, , , , , , ,89.995,45.994,-125.865
 12:32:27.710,eb:33:2e:f9:57:b5, 2015-01-01 00:18:39.440,1.239,-2.731,3.122,11.536,142.578,-205.933, , , , , , ,90.84,47.098,-124.799
 12:32:27.710,eb:33:2e:f9:57:b5, 2015-01-01 00:18:39.440,1.328,-3.139,2.551,-3.296,126.709,-154.419, , , , , , ,91.609,47.966,-123.766
 12:32:27.710,eb:33:2e:f9:57:b5, 2015-01-01 00:18:39.440,1.477,-3.367,1.932,-28.442,115.662,-107.361, , , , , , ,92.214,48.582,-122.838
 12:32:27.710,eb:33:2e:f9:57:b5, 2015-01-01 00:18:39.440,1.628,-3.463,1.134,-69.458,111.816,-55.176, , , , , , ,92.51,48.933,-122.047
 12:32:27.756,eb:33:2e:f9:57:b5, 2015-01-01 00:18:39.440,1.708,-3.43,0.131,-124.756,111.572,-2.38, , , , , , ,92.653,49.021,-121.19
 12:32:27.756,eb:33:2e:f9:57:b5, 2015-01-01 00:18:39.440,1.902,-3.319,-0.952,-187.073,102.661,46.631, , , , , , ,92.45,48.862,-120.366
 12:32:27.757,eb:33:2e:f9:57:b5, 2015-01-01 00:18:39.440,2.15,-3.332,-1.568,-243.347,77.942,87.036, , , , , , ,91.835,48.483,-119.713
 12:32:27.757,eb:33:2e:f9:57:b5, 2015-01-01 00:18:39.440,2.268,-3.278,-1.716,-284.485,34.851,114.319, , , , , , ,90.67,47.955,-119.41
 12:32:27.757,eb:33:2e:f9:57:b5, 2015-01-01 00:18:39.440,2.291,-2.982,-1.798,-312.866,-30.212,129.761, , , , , , ,89.149,47.335,-119.432
 12:32:27.757,eb:33:2e:f9:57:b5, 2015-01-01 00:18:39.440,2.283,-2.494,-1.849,-337.524,-108.643,137.451, , , , , , ,87.122,46.648,-119.949
 12:32:27.757,eb:33:2e:f9:57:b5, 2015-01-01 00:18:39.440,2.337,-1.962,-1.771,-363.342,-190.002,139.343, , , , , , ,84.589,45.895,-121.009
 12:32:27.757,eb:33:2e:f9:57:b5, 2015-01-01 00:18:39.440,2.37,-1.58,-1.436,-388.55,-265.198,136.23, , , , , , ,81.497,45.071,-122.64
 12:32:27.802,eb:33:2e:f9:57:b5, 2015-01-01 00:18:39.440,2.329,-1.478,-0.941,-409.363,-327.942,131.348, , , , , , ,78.129,44.143,-124.579
 12:32:27.802,eb:33:2e:f9:57:b5, 2015-01-01 00:18:39.440,2.216,-1.608,-0.415,-423.828,-375.854,128.845, , , , , , ,74.526,43.094,-126.755
 12:32:27.802,eb:33:2e:f9:57:b5, 2015-01-01 00:18:39.440,2.043,-1.798,0.071,-433.96,-409.546,130.005, , , , , , ,70.812,41.885,-129.067
 12:32:27.802,eb:33:2e:f9:57:b5, 2015-01-01 00:18:39.440,1.841,-1.917,0.498,-442.2,-433.289,134.521, , , , , , ,67.011,40.49,-131.446
 12:32:27.802,eb:33:2e:f9:57:b5, 2015-01-01 00:18:39.440,1.677,-1.975,0.893,-450.928,-450.684,141.052, , , , , , ,63.342,38.93,-133.693
 12:32:27.802,eb:33:2e:f9:57:b5, 2015-01-01 00:18:39.440,1.554,-1.989,1.317,-462.708,-460.144,148.682, , , , , , ,59.749,37.2,-135.791
 12:32:27.802,eb:33:2e:f9:57:b5, 2015-01-01 00:18:39.440,1.468,-1.943,1.669,-480.103,-463.623,157.532, , , , , , ,56.245,35.321,-137.719
 12:32:27.802,eb:33:2e:f9:57:b5, 2015-01-01 00:18:39.440,1.416,-1.831,1.984,-503.54,-462.463,165.222, , , , , , ,52.729,33.294,-139.488
 12:32:27.870,eb:33:2e:f9:57:b5, 2015-01-01 00:18:39.440,1.367,-1.678,2.32,-530.518,-456.909,169.739, , , , , , ,49.34,31.196,-140.977
 12:32:27.870,eb:33:2e:f9:57:b5, 2015-01-01 00:18:39.440,1.327,-1.495,2.661,-556.152,-448.242,168.884, , , , , , ,45.967,29.048,-142.24
 12:32:27.870,eb:33:2e:f9:57:b5, 2015-01-01 00:18:39.440,1.297,-1.311,2.952,-577.087,-439.392,163.147, , , , , , ,42.616,26.884,-143.317
 12:32:27.870,eb:33:2e:f9:57:b5, 2015-01-01 00:18:39.440,1.278,-1.189,3.26,-592.102,-427.795,153.381, , , , , , ,39.205,24.697,-144.278
 12:32:27.870,eb:33:2e:f9:57:b5, 2015-01-01 00:18:39.440,1.301,-1.12,3.576,-602.356,-407.776,140.869, , , , , , ,35.909,22.604,-145.036
 12:32:27.870,eb:33:2e:f9:57:b5, 2015-01-01 00:18:39.440,1.309,-1.027,3.792,-610.229,-379.333,125.366, , , , , , ,32.651,20.616,-145.624
 12:32:27.870,eb:33:2e:f9:57:b5, 2015-01-01 00:18:39.440,1.436,-0.833,3.729,-617.859,-350.952,103.882, , , , , , ,29.416,18.77,-146.107
 12:32:27.870,eb:33:2e:f9:57:b5, 2015-01-01 00:18:39.440,1.501,-0.532,3.548,-625,-326.721,73.608, , , , , , ,26.098,17.045,-146.563
 12:32:27.870,eb:33:2e:f9:57:b5, 2015-01-01 00:18:39.440,1.583,-0.203,3.18,-629.883,-320.679,35.278, , , , , , ,22.83,15.474,-147.014
 12:32:27.870,eb:33:2e:f9:57:b5, 2015-01-01 00:18:39.440,1.559,0.163,2.931,-632.568,-329.773,-12.085, , , , , , ,19.523,13.942,-147.579
 12:32:27.870,eb:33:2e:f9:57:b5, 2015-01-01 00:18:39.440,1.509,0.479,2.71,-633.972,-354.431,-62.134, , , , , , ,16.188,12.371,-148.326
 12:32:27.870,eb:33:2e:f9:57:b5, 2015-01-01 00:18:39.440,1.304,0.635,2.638,-637.817,-385.437,-108.459, , , , , , ,12.75,10.629,-149.282
 12:32:27.870,eb:33:2e:f9:57:b5, 2015-01-01 00:18:39.440,0.961,0.548,2.602,-646.484,-415.344,-144.104, , , , , , ,9.36,8.773,-150.326
 12:32:27.870,eb:33:2e:f9:57:b5, 2015-01-01 00:18:39.440,0.478,0.317,2.627,-659.973,-436.89,-162.964, , , , , , ,5.938,6.746,-151.392
 12:32:27.870,eb:33:2e:f9:57:b5, 2015-01-01 00:18:39.440,-0.219,0.167,2.721,-675.293,-450.073,-162.781, , , , , , ,2.494,4.587,-152.38
 12:32:27.871,eb:33:2e:f9:57:b5, 2015-01-01 00:18:39.440,-0.779,0.243,3.056,-687.134,-456.177,-138.794, , , , , , ,-1.033,2.269,-153.182
 12:32:27.913,eb:33:2e:f9:57:b5, 2015-01-01 00:18:39.730,-1.317,0.539,3.564,-682.19,-456.421,-101.685, , , , , , ,-4.471,-0.033,-153.66
 12:32:27.913,eb:33:2e:f9:57:b5, 2015-01-01 00:18:39.730,-1.606,0.963,4.182,-658.264,-455.933,-53.65, , , , , , ,-7.817,-2.346,-153.776
 12:32:27.913,eb:33:2e:f9:57:b5, 2015-01-01 00:18:39.730,-1.759,1.523,4.955,-618.042,-446.594,-2.686, , , , , , ,-11.014,-4.587,-153.517
 12:32:27.914,eb:33:2e:f9:57:b5, 2015-01-01 00:18:39.730,-1.893,2.224,5.557,-567.444,-435.852,48.523, , , , , , ,-14.084,-6.757,-152.908
 12:32:27.914,eb:33:2e:f9:57:b5, 2015-01-01 00:18:39.730,-2.016,3.071,5.947,-510.925,-433.167,92.59, , , , , , ,-16.88,-8.745,-151.952
 12:32:27.914,eb:33:2e:f9:57:b5, 2015-01-01 00:18:39.730,-2.155,4.078,6.253,-450.623,-441.589,126.038, , , , , , ,-19.468,-10.646,-150.71
 12:32:27.914,eb:33:2e:f9:57:b5, 2015-01-01 00:18:39.730,-2.354,5.133,6.465,-387.268,-454.224,148.254, , , , , , ,-21.83,-12.497,-149.227
 12:32:27.914,eb:33:2e:f9:57:b5, 2015-01-01 00:18:39.730,-2.701,6.146,6.539,-320.19,-464.661,159.729, , , , , , ,-24.011,-14.354,-147.563
 12:32:27.959,eb:33:2e:f9:57:b5, 2015-01-01 00:18:39.730,-3.102,7.171,6.497,-242.798,-466.492,154.48, , , , , , ,-25.845,-16.139,-145.8
 12:32:27.959,eb:33:2e:f9:57:b5, 2015-01-01 00:18:39.730,-3.475,8.256,6.084,-155.151,-463.013,133.85, , , , , , ,-27.312,-17.891,-144.042
 12:32:27.959,eb:33:2e:f9:57:b5, 2015-01-01 00:18:39.730,-3.785,9.143,5.575,-66.223,-462.708,100.159, , , , , , ,-28.361,-19.671,-142.366
 12:32:27.959,eb:33:2e:f9:57:b5, 2015-01-01 00:18:39.730,-4.085,9.5,5.537,13.55,-451.66,55.054, , , , , , ,-29.015,-21.528,-140.839
 12:32:27.959,eb:33:2e:f9:57:b5, 2015-01-01 00:18:39.730,-4.287,9.259,5.638,75.989,-410.767,5.981, , , , , , ,-29.229,-23.346,-139.587
 12:32:27.959,eb:33:2e:f9:57:b5, 2015-01-01 00:18:39.730,-4.338,8.549,5.466,114.136,-331.604,-36.926, , , , , , ,-29.086,-24.994,-138.708
 12:32:27.959,eb:33:2e:f9:57:b5, 2015-01-01 00:18:39.730,-4.358,7.594,4.991,127.93,-223.45,-67.322, , , , , , ,-28.658,-26.301,-138.257
 12:32:27.959,eb:33:2e:f9:57:b5, 2015-01-01 00:18:39.730,-4.289,6.588,4.434,126.892,-102.6,-86.67, , , , , , ,-28.026,-27.169,-138.257
 12:32:28.004,eb:33:2e:f9:57:b5, 2015-01-01 00:18:39.730,-4.124,5.668,3.809,125.793,8.972,-96.313, , , , , , ,-27.224,-27.537,-138.631
 12:32:28.004,eb:33:2e:f9:57:b5, 2015-01-01 00:18:39.730,0.406,4.795,3.082,174.133,45.532,-130.493, , , , , , ,-26.224,-27.543,-139.29
 12:32:28.004,eb:33:2e:f9:57:b5, 2015-01-01 00:18:39.730,4.701,4.554,7.396,608.704,605.774,-342.773, , , , , , ,-22.709,-26.494,-141.828
 12:32:28.004,eb:33:2e:f9:57:b5, 2015-01-01 00:18:39.730,3.581,7.234,6.26,628.967,1246.643,-455.994, , , , , , ,-17.375,-23.044,-146.014
 12:32:28.004,eb:33:2e:f9:57:b5, 2015-01-01 00:18:39.730,-6.007,5.961,5.368,531.128,1258.423,-203.186, , , , , , ,-13.376,-17.183,-149.705
 12:32:28.004,eb:33:2e:f9:57:b5, 2015-01-01 00:18:39.730,-1.118,3.701,4.577,306.03,1059.814,74.951, , , , , , ,-11.052,-11.624,-151.188
 12:32:28.004,eb:33:2e:f9:57:b5, 2015-01-01 00:18:39.730,-8.57,-1.021,3.316,210.999,800.171,364.685, , , , , , ,-9.728,-7.015,-150.809
 12:32:28.004,eb:33:2e:f9:57:b5, 2015-01-01 00:18:39.730,-5.89,1.282,-2.997,68.054,267.517,129.639, , , , , , ,-9.272,-4.307,-150.298
 12:32:28.093,eb:33:2e:f9:57:b5, 2015-01-01 00:18:39.730,-1.537,-1.226,-1.111,70.251,142.822,90.332, , , , , , ,-9.097,-3.109,-150.095
 12:32:28.093,eb:33:2e:f9:57:b5, 2015-01-01 00:18:39.730,1.049,-0.325,0.361,93.994,1.038,16.724, , , , , , ,-8.674,-2.867,-149.985
 12:32:28.093,eb:33:2e:f9:57:b5, 2015-01-01 00:18:39.730,-0.979,0.473,1.792,73.853,81.97,55.42, , , , , , ,-8.229,-2.703,-149.821
 12:32:28.093,eb:33:2e:f9:57:b5, 2015-01-01 00:18:39.730,-0.475,0.596,-0.204,58.411,36.438,37.72, , , , , , ,-7.905,-2.313,-149.656
 12:32:28.093,eb:33:2e:f9:57:b5, 2015-01-01 00:18:39.730,0.335,0.299,0.534,57.617,3.113,9.888, , , , , , ,-7.608,-2.263,-149.551
 12:32:28.093,eb:33:2e:f9:57:b5, 2015-01-01 00:18:39.730,2.241,0.39,1.174,52.307,12.146,-7.507, , , , , , ,-7.339,-2.241,-149.535
 12:32:28.093,eb:33:2e:f9:57:b5, 2015-01-01 00:18:39.730,0.383,0.7,2.173,43.579,102.234,-40.71, , , , , , ,-7.092,-1.945,-149.716
 12:32:28.093,eb:33:2e:f9:57:b5, 2015-01-01 00:18:39.730,-1.042,0.208,0.998,44.678,112.122,-49.377, , , , , , ,-6.839,-1.379,-150.035
 12:32:28.093,eb:33:2e:f9:57:b5, 2015-01-01 00:18:39.730,-0.542,-0.423,0.917,58.899,73.364,-28.442, , , , , , ,-6.564,-0.967,-150.255
 12:32:28.093,eb:33:2e:f9:57:b5, 2015-01-01 00:18:39.730,-1.104,0.345,0.185,46.509,50.781,-34.058, , , , , , ,-6.295,-0.681,-150.43
 12:32:28.093,eb:33:2e:f9:57:b5, 2015-01-01 00:18:39.730,-0.312,-0.509,0.594,46.997,16.418,-10.803, , , , , , ,-6.07,-0.533,-150.562
 12:32:28.093,eb:33:2e:f9:57:b5, 2015-01-01 00:18:39.730,0.74,-0.158,1.108,50.72,-1.038,-0.122, , , , , , ,-5.79,-0.516,-150.573
 12:32:28.095,eb:33:2e:f9:57:b5, 2015-01-01 00:18:39.730,-0.089,0.155,2.38,70.129,23.132,-7.935, , , , , , ,-5.493,-0.439,-150.612
 12:32:28.095,eb:33:2e:f9:57:b5, 2015-01-01 00:18:39.730,0.029,-0.376,2.554,102.783,15.503,-0.366, , , , , , ,-5.037,-0.357,-150.639
 12:32:28.095,eb:33:2e:f9:57:b5, 2015-01-01 00:18:39.730,0.193,-0.304,2.394,122.314,18.433,1.587, , , , , , ,-4.466,-0.264,-150.634
 12:32:28.095,eb:33:2e:f9:57:b5, 2015-01-01 00:18:39.730,-0.032,-0.014,1.819,140.564,5.615,-8.301, , , , , , ,-3.763,-0.192,-150.667
 12:32:28.117,eb:33:2e:f9:57:b5, 2015-01-01 00:18:39.730,-0.02,-0.201,2.103,159.729,-0.549,-14.099, , , , , , ,-3.01,-0.192,-150.727
 12:32:28.117,eb:33:2e:f9:57:b5, 2015-01-01 00:18:39.730,-0.071,-0.455,2.668,191.284,-1.648,-21.484, , , , , , ,-2.12,-0.198,-150.815
 12:32:28.117,eb:33:2e:f9:57:b5, 2015-01-01 00:18:39.730,0.324,-0.607,2.757,232.178,-8.667,-28.137, , , , , , ,-1.044,-0.236,-150.941
 12:32:28.117,eb:33:2e:f9:57:b5, 2015-01-01 00:18:39.730,0.467,-0.62,3.186,274.353,-1.038,-35.4, , , , , , ,0.269,-0.247,-151.106
 12:32:28.117,eb:33:2e:f9:57:b5, 2015-01-01 00:18:39.730,0.514,-0.778,3.482,318.42,16.541,-39.917, , , , , , ,1.774,-0.192,-151.298
 12:32:28.117,eb:33:2e:f9:57:b5, 2015-01-01 00:18:39.730,0.753,-0.939,3.799,361.633,44.495,-41.321, , , , , , ,3.494,-0.027,-151.49
 12:32:28.117,eb:33:2e:f9:57:b5, 2015-01-01 00:18:39.730,0.781,-0.997,3.874,399.231,84.229,-40.161, , , , , , ,5.416,0.324,-151.666
 12:32:28.117,eb:33:2e:f9:57:b5, 2015-01-01 00:18:39.730,1.004,-0.927,3.695,434.265,113.586,-44.495, , , , , , ,7.542,0.868,-151.826
 12:32:28.229,eb:33:2e:f9:57:b5, 2015-01-01 00:18:39.730,0.973,-1.042,3.966,467.285,151.428,-46.448, , , , , , ,9.816,1.571,-151.946
 12:32:28.229,eb:33:2e:f9:57:b5, 2015-01-01 00:18:39.730,1.317,-1.395,4.548,503.662,211.06,-48.096, , , , , , ,12.255,2.532,-151.996
 12:32:28.229,eb:33:2e:f9:57:b5, 2015-01-01 00:18:39.730,1.535,-1.269,4.703,543.396,260.864,-56.03, , , , , , ,14.892,3.768,-151.957
 12:32:28.229,eb:33:2e:f9:57:b5, 2015-01-01 00:18:39.730,1.207,-1.201,4.364,589.172,288.025,-68.176, , , , , , ,17.77,5.202,-151.859
 12:32:28.229,eb:33:2e:f9:57:b5, 2015-01-01 00:18:39.730,0.659,-1.479,4.458,628.906,305.359,-81.055, , , , , , ,20.858,6.746,-151.732
 12:32:28.229,eb:33:2e:f9:57:b5, 2015-01-01 00:18:39.730,0.403,-1.229,4.48,651.367,298.95,-86.304, , , , , , ,24.099,8.289,-151.534
 12:32:28.229,eb:33:2e:f9:57:b5, 2015-01-01 00:18:39.730,-0.248,-2.231,5.523,680.664,319.153,-67.2, , , , , , ,27.499,9.866,-151.199
 12:32:28.229,eb:33:2e:f9:57:b5, 2015-01-01 00:18:39.730,-0.267,-1.85,5.292,692.139,304.26,-48.096, , , , , , ,31.047,11.354,-150.672
 12:32:28.231,eb:33:2e:f9:57:b5, 2015-01-01 00:18:39.730,-0.474,-1.774,5.232,674.866,291.138,-24.109, , , , , , ,34.612,12.7,-149.996
 12:32:28.231,eb:33:2e:f9:57:b5, 2015-01-01 00:18:39.730,0.221,-0.962,4.331,628.662,256.836,-8.911, , , , , , ,38.04,13.815,-149.227
 12:32:28.231,eb:33:2e:f9:57:b5, 2015-01-01 00:18:39.730,0.313,-0.849,4.451,552.185,289.001,16.785, , , , , , ,41.177,14.837,-148.304
 12:32:28.231,eb:33:2e:f9:57:b5, 2015-01-01 00:18:39.730,1.415,-0.138,5.112,517.944,378.113,30.823, , , , , , ,44.149,15.991,-147.03
 12:32:28.231,eb:33:2e:f9:57:b5, 2015-01-01 00:18:39.730,0.583,-1.41,5.346,578.613,513.123,9.766, , , , , , ,47.401,17.512,-145.261
 12:32:28.231,eb:33:2e:f9:57:b5, 2015-01-01 00:18:39.730,-1.09,1.107,0.438,536.804,539.978,34.973, , , , , , ,50.999,19.215,-143.004
 12:32:28.231,eb:33:2e:f9:57:b5, 2015-01-01 00:18:39.730,-0.229,2.761,-3.168,355.408,431.763,76.111, , , , , , ,53.877,20.44,-140.795
 12:32:28.231,eb:33:2e:f9:57:b5, 2015-01-01 00:18:39.730,0.912,1.628,-1.519,218.445,312.256,95.825, , , , , , ,55.882,21.11,-138.955
 12:32:28.233,eb:33:2e:f9:57:b5, 2015-01-01 00:18:39.730,1.228,1.012,-0.199,123.352,248.047,108.887, , , , , , ,57.211,21.412,-137.439
 12:32:28.233,eb:33:2e:f9:57:b5, 2015-01-01 00:18:39.730,1.542,0.714,1.196,96.375,218.811,103.516, , , , , , ,58.211,21.572,-136.088
 12:32:28.233,eb:33:2e:f9:57:b5, 2015-01-01 00:18:39.730,1.547,0.909,2.899,125.61,207.275,81.604, , , , , , ,59.216,21.731,-134.857
 12:32:28.233,eb:33:2e:f9:57:b5, 2015-01-01 00:18:39.730,1.323,1.566,4.433,206.36,187.805,38.513, , , , , , ,60.463,21.973,-133.786
 12:32:28.233,eb:33:2e:f9:57:b5, 2015-01-01 00:18:39.730,1.106,2.08,4.698,279.785,153.809,-10.681, , , , , , ,62.034,22.341,-132.962
 12:32:28.233,eb:33:2e:f9:57:b5, 2015-01-01 00:18:39.730,1.138,2.256,4.065,329.895,105.591,-61.462, , , , , , ,63.787,22.813,-132.446
