Time,Device name,Chip Time(),Acceleration X(g),Acceleration Y(g),Acceleration Z(g),Angular velocity X(°/s),Angular velocity Y(°/s),Angular velocity Z(°/s),ShiftX(mm),ShiftY(mm),ShiftZ(mm),SpeedX(mm/s),SpeedY(mm/s),SpeedZ(mm/s),Angle X(°),Angle Y(°),Angle Z(°)
 12:21:35.892,eb:33:2e:f9:57:b5, 2015-01-01 00:07:52.025,0.019,-0.018,0.999,0.366,0.488,-0.183, , , , , , ,-1.307,-1.148,-111.555
 12:21:35.892,eb:33:2e:f9:57:b5, 2015-01-01 00:07:52.025,0.019,-0.019,0.998,0.488,0.549,-0.183, , , , , , ,-1.307,-1.148,-111.555
 12:21:35.893,eb:33:2e:f9:57:b5, 2015-01-01 00:07:52.025,0.018,-0.02,0.997,0.427,0.549,-0.183, , , , , , ,-1.307,-1.148,-111.555
 12:21:35.893,eb:33:2e:f9:57:b5, 2015-01-01 00:07:52.025,0.018,-0.02,0.996,0.488,0.549,-0.183, , , , , , ,-1.307,-1.148,-111.555
 12:21:35.893,eb:33:2e:f9:57:b5, 2015-01-01 00:07:52.025,0.019,-0.019,0.996,0.488,0.549,-0.244, , , , , , ,-1.307,-1.148,-111.555
 12:21:35.893,eb:33:2e:f9:57:b5, 2015-01-01 00:07:52.025,0.019,-0.019,0.997,0.549,0.488,-0.183, , , , , , ,-1.307,-1.143,-111.561
 12:21:35.893,eb:33:2e:f9:57:b5, 2015-01-01 00:07:52.025,0.019,-0.019,0.998,0.61,0.488,-0.244, , , , , , ,-1.307,-1.143,-111.561
 12:21:35.893,eb:33:2e:f9:57:b5, 2015-01-01 00:07:52.025,0.02,-0.021,0.997,0.671,0.488,-0.244, , , , , , ,-1.307,-1.143,-111.555
 12:21:35.913,eb:33:2e:f9:57:b5, 2015-01-01 00:07:52.405,0.019,-0.019,0.999,0.854,0.549,-0.183, , , , , , ,-1.307,-1.143,-111.555
 12:21:35.913,eb:33:2e:f9:57:b5, 2015-01-01 00:07:52.405,0.021,-0.021,1,0.916,0.61,-0.183, , , , , , ,-1.307,-1.143,-111.561
 12:21:35.913,eb:33:2e:f9:57:b5, 2015-01-01 00:07:52.405,0.021,-0.021,1,1.099,0.671,-0.244, , , , , , ,-1.307,-1.143,-111.561
 12:21:35.917,eb:33:2e:f9:57:b5, 2015-01-01 00:07:52.405,0.018,-0.018,1,1.16,0.854,-0.244, , , , , , ,-1.302,-1.143,-111.561
 12:21:35.917,eb:33:2e:f9:57:b5, 2015-01-01 00:07:52.405,0.022,-0.021,1,1.343,0.793,-0.244, , , , , , ,-1.302,-1.143,-111.561
 12:21:35.917,eb:33:2e:f9:57:b5, 2015-01-01 00:07:52.405,0.023,-0.02,1,1.343,0.916,-0.244, , , , , , ,-1.302,-1.143,-111.561
 12:21:35.917,eb:33:2e:f9:57:b5, 2015-01-01 00:07:52.405,0.02,-0.02,1.003,1.465,1.16,-0.244, , , , , , ,-1.302,-1.143,-111.561
 12:21:35.917,eb:33:2e:f9:57:b5, 2015-01-01 00:07:52.405,0.019,-0.02,1,1.648,1.221,-0.244, , , , , , ,-1.302,-1.143,-111.561
 12:21:35.957,eb:33:2e:f9:57:b5, 2015-01-01 00:07:52.405,0.019,-0.019,1,1.709,1.404,-0.366, , , , , , ,-1.302,-1.143,-111.561
 12:21:35.957,eb:33:2e:f9:57:b5, 2015-01-01 00:07:52.405,0.022,-0.02,1,1.709,1.77,-0.244, , , , , , ,-1.302,-1.143,-111.561
 12:21:35.957,eb:33:2e:f9:57:b5, 2015-01-01 00:07:52.405,0.027,-0.019,1.003,1.892,2.075,-0.122, , , , , , ,-1.302,-1.143,-111.561
 12:21:35.957,eb:33:2e:f9:57:b5, 2015-01-01 00:07:52.405,0.029,-0.017,1.008,2.075,2.869,-0.427, , , , , , ,-1.296,-1.137,-111.561
 12:21:35.957,eb:33:2e:f9:57:b5, 2015-01-01 00:07:52.405,0.028,-0.019,1.01,2.38,3.418,-0.366, , , , , , ,-1.285,-1.121,-111.561
 12:21:35.957,eb:33:2e:f9:57:b5, 2015-01-01 00:07:52.405,0.024,-0.02,1.008,2.686,3.723,-0.366, , , , , , ,-1.274,-1.104,-111.566
 12:21:35.957,eb:33:2e:f9:57:b5, 2015-01-01 00:07:52.405,0.022,-0.019,1.007,2.93,4.211,-0.671, , , , , , ,-1.258,-1.082,-111.566
 12:21:35.957,eb:33:2e:f9:57:b5, 2015-01-01 00:07:52.405,0.023,-0.021,1.006,3.174,4.395,-0.549, , , , , , ,-1.241,-1.06,-111.572
 12:21:36.002,eb:33:2e:f9:57:b5, 2015-01-01 00:07:52.405,0.028,-0.021,1.007,3.601,4.7,-0.732, , , , , , ,-1.225,-1.038,-111.577
 12:21:36.002,eb:33:2e:f9:57:b5, 2015-01-01 00:07:52.405,0.029,-0.024,1.018,4.211,5.432,-0.732, , , , , , ,-1.208,-1.016,-111.577
 12:21:36.002,eb:33:2e:f9:57:b5, 2015-01-01 00:07:52.405,0.032,-0.031,1.021,4.883,5.92,-0.488, , , , , , ,-1.187,-0.983,-111.583
 12:21:36.002,eb:33:2e:f9:57:b5, 2015-01-01 00:07:52.405,0.034,-0.027,1.024,5.615,6.775,-0.488, , , , , , ,-1.159,-0.956,-111.583
 12:21:36.002,eb:33:2e:f9:57:b5, 2015-01-01 00:07:52.405,0.033,-0.023,1.026,6.226,7.751,-0.366, , , , , , ,-1.132,-0.917,-111.588
 12:21:36.002,eb:33:2e:f9:57:b5, 2015-01-01 00:07:52.405,0.041,-0.023,1.029,6.775,8.789,-0.549, , , , , , ,-1.099,-0.879,-111.588
 12:21:36.002,eb:33:2e:f9:57:b5, 2015-01-01 00:07:52.405,0.036,-0.019,1.037,7.324,10.376,-0.732, , , , , , ,-1.06,-0.829,-111.594
 12:21:36.002,eb:33:2e:f9:57:b5, 2015-01-01 00:07:52.405,0.04,-0.021,1.033,7.751,11.719,-0.854, , , , , , ,-1.022,-0.775,-111.599
 12:21:36.048,eb:33:2e:f9:57:b5, 2015-01-01 00:07:52.405,0.033,-0.011,1.045,8.057,13.855,-1.465, , , , , , ,-0.983,-0.709,-111.61
 12:21:36.048,eb:33:2e:f9:57:b5, 2015-01-01 00:07:52.405,0.035,-0.016,1.043,8.484,15.381,-1.892, , , , , , ,-0.945,-0.637,-111.616
 12:21:36.048,eb:33:2e:f9:57:b5, 2015-01-01 00:07:52.405,0.032,-0.007,1.039,8.606,17.212,-2.441, , , , , , ,-0.901,-0.555,-111.627
 12:21:36.048,eb:33:2e:f9:57:b5, 2015-01-01 00:07:52.405,0.021,-0.008,1.031,8.606,18.799,-2.563, , , , , , ,-0.857,-0.467,-111.643
 12:21:36.048,eb:33:2e:f9:57:b5, 2015-01-01 00:07:52.405,0.033,-0.007,1.021,8.545,20.02,-2.625, , , , , , ,-0.813,-0.368,-111.66
 12:21:36.048,eb:33:2e:f9:57:b5, 2015-01-01 00:07:52.405,0.047,-0.001,1.029,8.789,20.508,-1.831, , , , , , ,-0.775,-0.264,-111.671
 12:21:36.048,eb:33:2e:f9:57:b5, 2015-01-01 00:07:52.405,0.119,0.03,1.05,8.911,21.423,-3.967, , , , , , ,-0.731,-0.159,-111.687
 12:21:36.048,eb:33:2e:f9:57:b5, 2015-01-01 00:07:52.405,0.177,0.045,1.088,9.277,22.644,-5.981, , , , , , ,-0.681,-0.049,-111.714
 12:21:36.115,eb:33:2e:f9:57:b5, 2015-01-01 00:07:52.405,0.192,0.144,0.957,11.353,15.991,-10.498, , , , , , ,-0.632,0.038,-111.758
 12:21:36.115,eb:33:2e:f9:57:b5, 2015-01-01 00:07:52.405,0.008,0.11,1.127,13.733,15.198,-15.442, , , , , , ,-0.571,0.115,-111.83
 12:21:36.115,eb:33:2e:f9:57:b5, 2015-01-01 00:07:52.405,-0.067,-0.2,1.558,20.081,24.536,-14.465, , , , , , ,-0.483,0.214,-111.907
 12:21:36.115,eb:33:2e:f9:57:b5, 2015-01-01 00:07:52.405,0.025,-0.289,1.618,29.785,31.799,-11.353, , , , , , ,-0.357,0.363,-111.973
 12:21:36.115,eb:33:2e:f9:57:b5, 2015-01-01 00:07:52.405,0.087,-0.117,1.344,36.926,32.471,-11.414, , , , , , ,-0.187,0.522,-112.028
 12:21:36.115,eb:33:2e:f9:57:b5, 2015-01-01 00:07:52.405,0.098,-0.026,1.244,40.527,33.142,-12.573, , , , , , ,0.005,0.687,-112.088
 12:21:36.116,eb:33:2e:f9:57:b5, 2015-01-01 00:07:52.405,0.097,-0.049,1.352,43.945,37.781,-12.512, , , , , , ,0.214,0.862,-112.148
 12:21:36.116,eb:33:2e:f9:57:b5, 2015-01-01 00:07:52.405,0.106,-0.066,1.371,48.401,42.236,-12.817, , , , , , ,0.445,1.066,-112.209
 12:21:36.118,eb:33:2e:f9:57:b5, 2015-01-01 00:07:52.405,0.121,-0.039,1.337,52.734,45.105,-13.733, , , , , , ,0.703,1.285,-112.275
 12:21:36.118,eb:33:2e:f9:57:b5, 2015-01-01 00:07:52.405,0.127,-0.009,1.337,57.129,47.791,-15.076, , , , , , ,0.972,1.522,-112.346
 12:21:36.118,eb:33:2e:f9:57:b5, 2015-01-01 00:07:52.405,0.146,-0.002,1.356,62.866,48.828,-17.456, , , , , , ,1.274,1.763,-112.423
 12:21:36.118,eb:33:2e:f9:57:b5, 2015-01-01 00:07:52.405,0.142,0,1.375,68.97,51.575,-20.02, , , , , , ,1.604,2.016,-112.511
 12:21:36.118,eb:33:2e:f9:57:b5, 2015-01-01 00:07:52.405,0.146,-0.001,1.371,73.853,54.504,-21.484, , , , , , ,1.961,2.285,-112.604
 12:21:36.118,eb:33:2e:f9:57:b5, 2015-01-01 00:07:52.405,0.131,0.026,1.384,78.613,56.824,-23.621, , , , , , ,2.34,2.571,-112.709
 12:21:36.118,eb:33:2e:f9:57:b5, 2015-01-01 00:07:52.405,0.13,0.042,1.385,84.473,57.8,-26.062, , , , , , ,2.741,2.862,-112.824
 12:21:36.118,eb:33:2e:f9:57:b5, 2015-01-01 00:07:52.405,0.179,0.046,1.422,89.905,59.753,-27.588, , , , , , ,3.175,3.164,-112.945
 12:21:36.161,eb:33:2e:f9:57:b5, 2015-01-01 00:07:52.405,0.209,0.063,1.48,95.337,62.866,-29.663, , , , , , ,3.631,3.477,-113.066
 12:21:36.161,eb:33:2e:f9:57:b5, 2015-01-01 00:07:52.405,0.21,0.021,1.522,101.624,67.139,-31.677, , , , , , ,4.12,3.812,-113.198
 12:21:36.161,eb:33:2e:f9:57:b5, 2015-01-01 00:07:52.405,0.18,-0.007,1.591,105.957,72.388,-31.921, , , , , , ,4.631,4.175,-113.335
 12:21:36.161,eb:33:2e:f9:57:b5, 2015-01-01 00:07:52.405,0.195,0.008,1.735,107.361,82.092,-29.846, , , , , , ,5.158,4.576,-113.456
 12:21:36.162,eb:33:2e:f9:57:b5, 2015-01-01 00:07:52.405,0.226,0.025,1.733,111.145,93.75,-30.762, , , , , , ,5.696,5.037,-113.56
 12:21:36.162,eb:33:2e:f9:57:b5, 2015-01-01 00:07:52.405,0.269,0.131,1.51,116.882,96.68,-35.156, , , , , , ,6.257,5.532,-113.676
 12:21:36.162,eb:33:2e:f9:57:b5, 2015-01-01 00:07:52.405,0.286,0.198,1.303,119.507,94.788,-40.649, , , , , , ,6.839,6.026,-113.813
 12:21:36.162,eb:33:2e:f9:57:b5, 2015-01-01 00:07:52.405,0.247,0.166,1.343,118.286,99.731,-43.152, , , , , , ,7.416,6.531,-113.967
 12:21:36.205,eb:33:2e:f9:57:b5, 2015-01-01 00:07:52.405,0.278,0.172,1.354,116.15,107.422,-44.373, , , , , , ,7.982,7.081,-114.115
 12:21:36.205,eb:33:2e:f9:57:b5, 2015-01-01 00:07:52.405,0.331,0.243,1.341,111.755,116.638,-45.837, , , , , , ,8.531,7.668,-114.258
 12:21:36.205,eb:33:2e:f9:57:b5, 2015-01-01 00:07:52.405,0.32,0.256,1.208,107.056,123.535,-49.011, , , , , , ,9.053,8.306,-114.401
 12:21:36.205,eb:33:2e:f9:57:b5, 2015-01-01 00:07:52.405,0.346,0.301,1.085,101.379,128.601,-52.124, , , , , , ,9.553,8.97,-114.554
 12:21:36.205,eb:33:2e:f9:57:b5, 2015-01-01 00:07:52.405,0.317,0.274,1.077,91.125,136.963,-53.406, , , , , , ,10.003,9.668,-114.703
 12:21:36.205,eb:33:2e:f9:57:b5, 2015-01-01 00:07:52.405,0.286,0.218,1.125,79.59,149.963,-52.795, , , , , , ,10.404,10.426,-114.84
 12:21:36.205,eb:33:2e:f9:57:b5, 2015-01-01 00:07:52.405,0.283,0.204,1.171,68.726,164.978,-51.208, , , , , , ,10.745,11.255,-114.95
 12:21:36.205,eb:33:2e:f9:57:b5, 2015-01-01 00:07:52.405,0.258,0.227,1.112,60.669,176.514,-51.697, , , , , , ,11.047,12.151,-115.038
 12:21:36.250,eb:33:2e:f9:57:b5, 2015-01-01 00:07:52.720,0.287,0.259,0.913,53.406,179.504,-53.955, , , , , , ,11.305,13.079,-115.126
 12:21:36.250,eb:33:2e:f9:57:b5, 2015-01-01 00:07:52.720,0.311,0.212,0.778,46.753,178.772,-55.969, , , , , , ,11.53,14.013,-115.225
 12:21:36.250,eb:33:2e:f9:57:b5, 2015-01-01 00:07:52.720,0.267,0.1,0.586,42.236,171.509,-57.129, , , , , , ,11.722,14.925,-115.329
 12:21:36.250,eb:33:2e:f9:57:b5, 2015-01-01 00:07:52.720,0.218,0.156,0.533,42.114,160.4,-58.044, , , , , , ,11.898,15.793,-115.444
 12:21:36.250,eb:33:2e:f9:57:b5, 2015-01-01 00:07:52.720,0.439,0.309,0.439,43.03,139.465,-66.162, , , , , , ,12.068,16.584,-115.604
 12:21:36.250,eb:33:2e:f9:57:b5, 2015-01-01 00:07:52.720,0.32,-0.29,-0.141,41.504,100.525,-67.2, , , , , , ,12.217,17.232,-115.818
 12:21:36.250,eb:33:2e:f9:57:b5, 2015-01-01 00:07:52.720,0.319,-0.383,-0.489,40.955,46.448,-59.387, , , , , , ,12.349,17.633,-116.06
 12:21:36.250,eb:33:2e:f9:57:b5, 2015-01-01 00:07:52.720,0.463,-0.077,-0.206,41.809,-4.15,-55.42, , , , , , ,12.469,17.765,-116.34
 12:21:36.271,eb:33:2e:f9:57:b5, 2015-01-01 00:07:52.720,0.462,-0.184,0.429,44.922,-32.776,-50.903, , , , , , ,12.596,17.71,-116.636
 12:21:36.271,eb:33:2e:f9:57:b5, 2015-01-01 00:07:52.720,0.373,-0.413,0.711,47.668,-38.635,-41.809, , , , , , ,12.744,17.573,-116.917
 12:21:36.271,eb:33:2e:f9:57:b5, 2015-01-01 00:07:52.720,0.3,-0.495,0.735,46.509,-33.203,-30.396, , , , , , ,12.914,17.441,-117.136
 12:21:36.271,eb:33:2e:f9:57:b5, 2015-01-01 00:07:52.720,0.253,-0.524,0.752,42.725,-25.269,-16.663, , , , , , ,13.096,17.325,-117.285
 12:21:36.271,eb:33:2e:f9:57:b5, 2015-01-01 00:07:52.720,0.256,-0.529,0.7,36.194,-18.555,-1.16, , , , , , ,13.271,17.232,-117.345
 12:21:36.271,eb:33:2e:f9:57:b5, 2015-01-01 00:07:52.720,0.289,-0.506,0.569,30.579,-19.348,9.949, , , , , , ,13.436,17.133,-117.339
 12:21:36.271,eb:33:2e:f9:57:b5, 2015-01-01 00:07:52.720,0.326,-0.463,0.454,25.879,-24.902,18.188, , , , , , ,13.59,17.007,-117.29
 12:21:36.271,eb:33:2e:f9:57:b5, 2015-01-01 00:07:52.720,0.342,-0.424,0.403,22.949,-33.63,23.254, , , , , , ,13.727,16.831,-117.219
 12:21:36.317,eb:33:2e:f9:57:b5, 2015-01-01 00:07:52.720,0.345,-0.399,0.396,21.912,-44.556,25.452, , , , , , ,13.859,16.606,-117.142
 12:21:36.317,eb:33:2e:f9:57:b5, 2015-01-01 00:07:52.720,0.329,-0.387,0.408,21.667,-56.03,25.94, , , , , , ,13.986,16.326,-117.076
 12:21:36.317,eb:33:2e:f9:57:b5, 2015-01-01 00:07:52.720,0.313,-0.383,0.404,20.63,-67.688,25.391, , , , , , ,14.106,15.985,-117.026
 12:21:36.317,eb:33:2e:f9:57:b5, 2015-01-01 00:07:52.720,0.295,-0.394,0.427,18.005,-77.759,24.231, , , , , , ,14.211,15.595,-116.993
 12:21:36.317,eb:33:2e:f9:57:b5, 2015-01-01 00:07:52.720,0.279,-0.405,0.472,13.794,-85.999,22.949, , , , , , ,14.293,15.167,-116.982
 12:21:36.317,eb:33:2e:f9:57:b5, 2015-01-01 00:07:52.720,0.258,-0.415,0.537,8.179,-91.919,21.362, , , , , , ,14.343,14.705,-116.988
 12:21:36.317,eb:33:2e:f9:57:b5, 2015-01-01 00:07:52.720,0.232,-0.429,0.604,1.709,-95.764,19.653, , , , , , ,14.359,14.222,-117.004
 12:21:36.317,eb:33:2e:f9:57:b5, 2015-01-01 00:07:52.720,0.212,-0.444,0.654,-5.188,-98.389,17.883, , , , , , ,14.337,13.722,-117.037
 12:21:36.362,eb:33:2e:f9:57:b5, 2015-01-01 00:07:52.720,0.192,-0.449,0.691,-12.756,-100.22,15.869, , , , , , ,14.277,13.222,-117.081
 12:21:36.362,eb:33:2e:f9:57:b5, 2015-01-01 00:07:52.720,0.17,-0.446,0.705,-20.874,-102.783,13.611, , , , , , ,14.178,12.711,-117.136
 12:21:36.362,eb:33:2e:f9:57:b5, 2015-01-01 00:07:52.720,0.153,-0.439,0.699,-29.48,-106.873,11.047, , , , , , ,14.03,12.184,-117.208
 12:21:36.362,eb:33:2e:f9:57:b5, 2015-01-01 00:07:52.720,0.144,-0.44,0.701,-38.33,-112.061,8.301, , , , , , ,13.837,11.635,-117.296
 12:21:36.362,eb:33:2e:f9:57:b5, 2015-01-01 00:07:52.720,0.13,-0.442,0.728,-46.936,-117.554,5.554, , , , , , ,13.601,11.069,-117.405
 12:21:36.362,eb:33:2e:f9:57:b5, 2015-01-01 00:07:52.720,0.115,-0.449,0.764,-54.932,-122.864,2.869, , , , , , ,13.315,10.475,-117.526
 12:21:36.362,eb:33:2e:f9:57:b5, 2015-01-01 00:07:52.720,0.103,-0.454,0.818,-62.256,-126.892,-0.122, , , , , , ,12.997,9.86,-117.664
 12:21:36.362,eb:33:2e:f9:57:b5, 2015-01-01 00:07:52.720,0.081,-0.453,0.882,-68.42,-130.066,-2.319, , , , , , ,12.64,9.234,-117.817
 12:21:36.428,eb:33:2e:f9:57:b5, 2015-01-01 00:07:52.720,0.053,-0.455,0.941,-73.73,-131.897,-4.15, , , , , , ,12.255,8.597,-117.977
 12:21:36.428,eb:33:2e:f9:57:b5, 2015-01-01 00:07:52.720,0.02,-0.466,0.986,-78.003,-132.935,-5.432, , , , , , ,11.849,7.949,-118.141
 12:21:36.428,eb:33:2e:f9:57:b5, 2015-01-01 00:07:52.720,-0.015,-0.48,1.022,-81.36,-133.911,-5.92, , , , , , ,11.426,7.3,-118.306
 12:21:36.428,eb:33:2e:f9:57:b5, 2015-01-01 00:07:52.720,-0.05,-0.504,1.053,-83.862,-135.071,-5.371, , , , , , ,10.986,6.647,-118.466
 12:21:36.428,eb:33:2e:f9:57:b5, 2015-01-01 00:07:52.720,-0.081,-0.526,1.085,-85.815,-136.292,-3.845, , , , , , ,10.547,5.982,-118.619
 12:21:36.428,eb:33:2e:f9:57:b5, 2015-01-01 00:07:52.720,-0.106,-0.547,1.123,-87.646,-137.207,-1.526, , , , , , ,10.096,5.312,-118.757
 12:21:36.428,eb:33:2e:f9:57:b5, 2015-01-01 00:07:52.720,-0.126,-0.571,1.154,-89.661,-137.634,2.075, , , , , , ,9.641,4.631,-118.872
 12:21:36.428,eb:33:2e:f9:57:b5, 2015-01-01 00:07:52.720,-0.147,-0.585,1.188,-91.98,-136.963,6.287, , , , , , ,9.179,3.95,-118.96
 12:21:36.453,eb:33:2e:f9:57:b5, 2015-01-01 00:07:52.720,-0.162,-0.601,1.211,-94.36,-136.169,11.536, , , , , , ,8.707,3.268,-119.02
 12:21:36.453,eb:33:2e:f9:57:b5, 2015-01-01 00:07:52.720,-0.182,-0.608,1.241,-96.741,-134.949,17.151, , , , , , ,8.223,2.587,-119.048
 12:21:36.453,eb:33:2e:f9:57:b5, 2015-01-01 00:07:52.720,-0.185,-0.615,1.265,-98.877,-133.667,23.132, , , , , , ,7.734,1.906,-119.037
 12:21:36.453,eb:33:2e:f9:57:b5, 2015-01-01 00:07:52.720,-0.184,-0.608,1.295,-101.013,-131.775,28.992, , , , , , ,7.234,1.23,-118.993
 12:21:36.453,eb:33:2e:f9:57:b5, 2015-01-01 00:07:52.720,-0.175,-0.586,1.323,-103.271,-129.15,34.79, , , , , , ,6.724,0.56,-118.911
 12:21:36.453,eb:33:2e:f9:57:b5, 2015-01-01 00:07:52.720,-0.166,-0.558,1.354,-105.53,-126.16,40.222, , , , , , ,6.196,-0.088,-118.79
 12:21:36.453,eb:33:2e:f9:57:b5, 2015-01-01 00:07:52.720,-0.165,-0.514,1.385,-108.093,-122.314,45.654, , , , , , ,5.663,-0.725,-118.641
 12:21:36.453,eb:33:2e:f9:57:b5, 2015-01-01 00:07:52.720,-0.147,-0.479,1.401,-110.229,-119.263,49.622, , , , , , ,5.109,-1.351,-118.46
 12:21:36.474,eb:33:2e:f9:57:b5, 2015-01-01 00:07:52.720,-0.132,-0.446,1.414,-112.793,-116.394,52.856, , , , , , ,4.543,-1.961,-118.251
 12:21:36.474,eb:33:2e:f9:57:b5, 2015-01-01 00:07:52.720,-0.1,-0.398,1.393,-115.906,-113.464,55.054, , , , , , ,3.961,-2.554,-118.021
 12:21:36.474,eb:33:2e:f9:57:b5, 2015-01-01 00:07:52.720,-0.077,-0.369,1.402,-119.202,-110.962,56.641, , , , , , ,3.362,-3.131,-117.773
 12:21:36.474,eb:33:2e:f9:57:b5, 2015-01-01 00:07:52.720,-0.05,-0.323,1.393,-122.742,-108.643,57.373, , , , , , ,2.736,-3.697,-117.521
 12:21:36.474,eb:33:2e:f9:57:b5, 2015-01-01 00:07:52.720,-0.041,-0.288,1.403,-125.916,-106.628,57.19, , , , , , ,2.093,-4.246,-117.252
 12:21:36.474,eb:33:2e:f9:57:b5, 2015-01-01 00:07:52.720,-0.036,-0.247,1.405,-128.54,-105.103,55.542, , , , , , ,1.434,-4.785,-116.988
 12:21:36.474,eb:33:2e:f9:57:b5, 2015-01-01 00:07:52.720,-0.035,-0.214,1.405,-130.005,-104.858,54.138, , , , , , ,0.764,-5.312,-116.724
 12:21:36.474,eb:33:2e:f9:57:b5, 2015-01-01 00:07:52.720,-0.038,-0.185,1.421,-130.981,-103.76,51.819, , , , , , ,0.082,-5.839,-116.466
 12:21:36.522,eb:33:2e:f9:57:b5, 2015-01-01 00:07:52.720,-0.032,-0.168,1.435,-131.348,-102.173,50.415, , , , , , ,-0.599,-6.35,-116.202
 12:21:36.522,eb:33:2e:f9:57:b5, 2015-01-01 00:07:52.720,-0.032,-0.154,1.453,-131.714,-99.243,48.462, , , , , , ,-1.285,-6.85,-115.95
 12:21:36.522,eb:33:2e:f9:57:b5, 2015-01-01 00:07:52.720,-0.043,-0.129,1.473,-131.958,-95.337,46.753, , , , , , ,-1.978,-7.328,-115.697
 12:21:36.522,eb:33:2e:f9:57:b5, 2015-01-01 00:07:52.720,-0.049,-0.107,1.472,-132.08,-91.187,44.983, , , , , , ,-2.675,-7.784,-115.444
 12:21:36.522,eb:33:2e:f9:57:b5, 2015-01-01 00:07:52.720,-0.053,-0.077,1.468,-132.324,-87.036,43.274, , , , , , ,-3.367,-8.218,-115.197
 12:21:36.522,eb:33:2e:f9:57:b5, 2015-01-01 00:07:52.720,-0.061,-0.054,1.448,-132.629,-83.435,41.87, , , , , , ,-4.07,-8.63,-114.955
 12:21:36.522,eb:33:2e:f9:57:b5, 2015-01-01 00:07:52.720,-0.06,-0.029,1.417,-132.874,-81.177,41.687, , , , , , ,-4.768,-9.02,-114.714
 12:21:36.522,eb:33:2e:f9:57:b5, 2015-01-01 00:07:52.720,-0.051,-0.001,1.398,-133.484,-78.613,41.321, , , , , , ,-5.477,-9.404,-114.467
 12:21:36.564,eb:33:2e:f9:57:b5, 2015-01-01 00:07:53.035,-0.038,0.027,1.385,-134.338,-75.195,40.71, , , , , , ,-6.191,-9.761,-114.219
 12:21:36.564,eb:33:2e:f9:57:b5, 2015-01-01 00:07:53.035,-0.029,0.057,1.377,-134.766,-71.167,40.344, , , , , , ,-6.905,-10.102,-113.972
 12:21:36.564,eb:33:2e:f9:57:b5, 2015-01-01 00:07:53.035,-0.013,0.097,1.36,-134.46,-67.444,39.856, , , , , , ,-7.625,-10.421,-113.725
 12:21:36.564,eb:33:2e:f9:57:b5, 2015-01-01 00:07:53.035,0,0.132,1.333,-133.301,-64.331,39.49, , , , , , ,-8.344,-10.717,-113.483
 12:21:36.564,eb:33:2e:f9:57:b5, 2015-01-01 00:07:53.035,0.009,0.169,1.309,-130.92,-60.974,38.33, , , , , , ,-9.047,-10.997,-113.236
 12:21:36.564,eb:33:2e:f9:57:b5, 2015-01-01 00:07:53.035,0.015,0.215,1.273,-127.686,-58.105,36.743, , , , , , ,-9.739,-11.261,-113
 12:21:36.564,eb:33:2e:f9:57:b5, 2015-01-01 00:07:53.035,0.021,0.261,1.23,-122.742,-57.922,34.607, , , , , , ,-10.41,-11.514,-112.769
 12:21:36.564,eb:33:2e:f9:57:b5, 2015-01-01 00:07:53.035,0.001,0.288,1.192,-117.004,-57.678,31.738, , , , , , ,-11.052,-11.766,-112.549
 12:21:36.610,eb:33:2e:f9:57:b5, 2015-01-01 00:07:53.035,-0.003,0.317,1.146,-110.535,-60.059,28.564, , , , , , ,-11.662,-12.03,-112.341
 12:21:36.610,eb:33:2e:f9:57:b5, 2015-01-01 00:07:53.035,-0.001,0.36,1.097,-104.919,-62.256,25.818, , , , , , ,-12.244,-12.305,-112.137
 12:21:36.610,eb:33:2e:f9:57:b5, 2015-01-01 00:07:53.035,0.007,0.374,1.085,-100.159,-63.11,23.499, , , , , , ,-12.794,-12.585,-111.945
 12:21:36.610,eb:33:2e:f9:57:b5, 2015-01-01 00:07:53.035,0.005,0.376,1.082,-95.764,-62.622,21.24, , , , , , ,-13.326,-12.865,-111.764
 12:21:36.610,eb:33:2e:f9:57:b5, 2015-01-01 00:07:53.035,-0.001,0.403,1.087,-91.248,-62.195,18.066, , , , , , ,-13.832,-13.145,-111.588
 12:21:36.610,eb:33:2e:f9:57:b5, 2015-01-01 00:07:53.035,-0.021,0.41,1.102,-87.158,-59.143,15.625, , , , , , ,-14.315,-13.42,-111.429
 12:21:36.610,eb:33:2e:f9:57:b5, 2015-01-01 00:07:53.035,-0.027,0.417,1.104,-82.703,-55.481,12.817, , , , , , ,-14.771,-13.678,-111.286
 12:21:36.610,eb:33:2e:f9:57:b5, 2015-01-01 00:07:53.035,-0.049,0.441,1.101,-78.308,-51.575,9.521, , , , , , ,-15.2,-13.92,-111.16
 12:21:36.655,eb:33:2e:f9:57:b5, 2015-01-01 00:07:53.035,-0.061,0.458,1.078,-72.998,-47.241,4.944, , , , , , ,-15.606,-14.15,-111.061
 12:21:36.655,eb:33:2e:f9:57:b5, 2015-01-01 00:07:53.035,-0.073,0.48,1.051,-69.397,-43.945,1.221, , , , , , ,-15.98,-14.365,-110.984
 12:21:36.655,eb:33:2e:f9:57:b5, 2015-01-01 00:07:53.035,-0.083,0.51,1.019,-66.711,-41.199,-2.563, , , , , , ,-16.331,-14.568,-110.923
 12:21:36.655,eb:33:2e:f9:57:b5, 2015-01-01 00:07:53.035,-0.09,0.537,0.999,-64.941,-39.001,-7.08, , , , , , ,-16.666,-14.766,-110.896
 12:21:36.655,eb:33:2e:f9:57:b5, 2015-01-01 00:07:53.035,-0.1,0.563,0.996,-63.904,-36.255,-11.658, , , , , , ,-16.99,-14.963,-110.885
 12:21:36.655,eb:33:2e:f9:57:b5, 2015-01-01 00:07:53.035,-0.108,0.587,1.008,-63.232,-32.898,-16.418, , , , , , ,-17.303,-15.15,-110.907
 12:21:36.655,eb:33:2e:f9:57:b5, 2015-01-01 00:07:53.035,-0.131,0.612,1.032,-63.354,-28.381,-21.179, , , , , , ,-17.611,-15.32,-110.951
 12:21:36.655,eb:33:2e:f9:57:b5, 2015-01-01 00:07:53.035,-0.155,0.633,1.055,-64.758,-22.766,-25.757, , , , , , ,-17.913,-15.48,-111.033
 12:21:36.678,eb:33:2e:f9:57:b5, 2015-01-01 00:07:53.035,-0.169,0.648,1.076,-67.261,-15.076,-30.151, , , , , , ,-18.215,-15.612,-111.143
 12:21:36.678,eb:33:2e:f9:57:b5, 2015-01-01 00:07:53.035,-0.177,0.656,1.092,-70.007,-5.432,-34.18, , , , , , ,-18.517,-15.71,-111.286
 12:21:36.678,eb:33:2e:f9:57:b5, 2015-01-01 00:07:53.035,-0.195,0.665,1.112,-71.228,5.31,-38.452, , , , , , ,-18.825,-15.765,-111.467
 12:21:36.678,eb:33:2e:f9:57:b5, 2015-01-01 00:07:53.035,-0.209,0.691,1.123,-69.946,15.808,-43.396, , , , , , ,-19.122,-15.776,-111.693
 12:21:36.678,eb:33:2e:f9:57:b5, 2015-01-01 00:07:53.035,-0.226,0.723,1.126,-66.345,25.818,-48.828, , , , , , ,-19.391,-15.754,-111.956
 12:21:36.678,eb:33:2e:f9:57:b5, 2015-01-01 00:07:53.035,-0.226,0.745,1.113,-60.608,35.034,-54.321, , , , , , ,-19.622,-15.688,-112.269
 12:21:36.678,eb:33:2e:f9:57:b5, 2015-01-01 00:07:53.035,-0.223,0.784,1.09,-53.345,42.419,-59.998, , , , , , ,-19.808,-15.601,-112.621
 12:21:36.678,eb:33:2e:f9:57:b5, 2015-01-01 00:07:53.035,-0.222,0.827,1.063,-45.227,47.913,-66.101, , , , , , ,-19.946,-15.496,-113.011
 12:21:36.723,eb:33:2e:f9:57:b5, 2015-01-01 00:07:53.035,-0.217,0.861,1.032,-36.56,51.453,-72.205, , , , , , ,-20.034,-15.381,-113.439
 12:21:36.723,eb:33:2e:f9:57:b5, 2015-01-01 00:07:53.035,-0.217,0.885,1.006,-27.771,53.772,-77.759, , , , , , ,-20.072,-15.26,-113.901
 12:21:36.723,eb:33:2e:f9:57:b5, 2015-01-01 00:07:53.035,-0.213,0.9,0.987,-18.738,54.626,-82.947, , , , , , ,-20.056,-15.145,-114.39
 12:21:36.723,eb:33:2e:f9:57:b5, 2015-01-01 00:07:53.035,-0.219,0.9,0.995,-9.644,55.054,-87.402, , , , , , ,-19.99,-15.035,-114.906
 12:21:36.723,eb:33:2e:f9:57:b5, 2015-01-01 00:07:53.035,-0.229,0.888,1.016,-0.488,55.847,-90.942, , , , , , ,-19.869,-14.925,-115.439
 12:21:36.723,eb:33:2e:f9:57:b5, 2015-01-01 00:07:53.035,-0.228,0.868,1.039,8.362,56.58,-93.567, , , , , , ,-19.704,-14.821,-115.988
 12:21:36.723,eb:33:2e:f9:57:b5, 2015-01-01 00:07:53.035,-0.239,0.849,1.098,16.541,59.021,-95.154, , , , , , ,-19.495,-14.705,-116.548
 12:21:36.723,eb:33:2e:f9:57:b5, 2015-01-01 00:07:53.035,-0.253,0.81,1.17,23.621,64.27,-95.764, , , , , , ,-19.248,-14.573,-117.12
 12:21:36.767,eb:33:2e:f9:57:b5, 2015-01-01 00:07:53.035,-0.259,0.765,1.224,29.114,72.083,-95.215, , , , , , ,-18.968,-14.403,-117.702
 12:21:36.767,eb:33:2e:f9:57:b5, 2015-01-01 00:07:53.035,-0.252,0.728,1.235,33.508,80.566,-93.75, , , , , , ,-18.66,-14.194,-118.295
 12:21:36.767,eb:33:2e:f9:57:b5, 2015-01-01 00:07:53.035,-0.236,0.695,1.208,37.048,88.135,-91.858, , , , , , ,-18.342,-13.936,-118.883
 12:21:36.767,eb:33:2e:f9:57:b5, 2015-01-01 00:07:53.035,0.512,0.654,1.171,40.588,94.177,-89.355, , , , , , ,-18.001,-13.64,-119.476
 12:21:36.767,eb:33:2e:f9:57:b5, 2015-01-01 00:07:53.035,1.465,-0.453,3.206,64.453,143.921,-115.234, , , , , , ,-17.589,-13.299,-120.152
 12:21:36.767,eb:33:2e:f9:57:b5, 2015-01-01 00:07:53.035,1.5,-3.056,2.924,59.204,214.417,-78.735, , , , , , ,-17.089,-12.415,-120.932
 12:21:36.767,eb:33:2e:f9:57:b5, 2015-01-01 00:07:53.035,0.986,-2.256,0.972,39.368,241.272,-62.683, , , , , , ,-16.732,-11.448,-121.58
 12:21:36.767,eb:33:2e:f9:57:b5, 2015-01-01 00:07:53.035,1.034,-1.726,0.682,56.396,212.158,-46.814, , , , , , ,-16.381,-10.443,-122.173
 12:21:36.813,eb:33:2e:f9:57:b5, 2015-01-01 00:07:53.035,0.617,-1.903,0.438,95.215,186.707,-30.212, , , , , , ,-15.914,-9.531,-122.64
 12:21:36.813,eb:33:2e:f9:57:b5, 2015-01-01 00:07:53.035,-0.17,-1.456,0.492,136.353,163.879,-8.911, , , , , , ,-15.255,-8.729,-122.953
 12:21:36.813,eb:33:2e:f9:57:b5, 2015-01-01 00:07:53.035,-0.142,-0.78,0.592,162.415,133.85,22.034, , , , , , ,-14.469,-8.004,-123.107
 12:21:36.813,eb:33:2e:f9:57:b5, 2015-01-01 00:07:53.035,-0.325,-0.529,0.696,171.021,119.507,42.908, , , , , , ,-13.629,-7.355,-123.091
 12:21:36.813,eb:33:2e:f9:57:b5, 2015-01-01 00:07:53.035,-0.358,-0.31,0.78,170.654,101.807,53.65, , , , , , ,-12.788,-6.768,-122.97
 12:21:36.813,eb:33:2e:f9:57:b5, 2015-01-01 00:07:53.035,-0.218,-0.197,0.912,162.354,79.224,55.969, , , , , , ,-11.975,-6.279,-122.789
 12:21:36.813,eb:33:2e:f9:57:b5, 2015-01-01 00:07:53.035,-0.237,0.091,1.232,144.409,65.125,50.964, , , , , , ,-11.234,-5.883,-122.596
 12:21:36.813,eb:33:2e:f9:57:b5, 2015-01-01 00:07:53.035,-0.325,0.32,1.274,122.803,57.129,42.053, , , , , , ,-10.596,-5.543,-122.426
 12:21:36.857,eb:33:2e:f9:57:b5, 2015-01-01 00:07:53.325,-0.338,0.41,1.206,103.027,52.979,26.55, , , , , , ,-10.052,-5.246,-122.311
 12:21:36.857,eb:33:2e:f9:57:b5, 2015-01-01 00:07:53.325,-0.275,0.298,1.077,91.064,48.584,10.376, , , , , , ,-9.586,-4.982,-122.267
 12:21:36.857,eb:33:2e:f9:57:b5, 2015-01-01 00:07:53.325,-0.196,0.129,0.984,85.205,42.48,-4.272, , , , , , ,-9.146,-4.763,-122.3
 12:21:36.857,eb:33:2e:f9:57:b5, 2015-01-01 00:07:53.325,-0.081,-0.005,0.939,82.275,33.142,-14.221, , , , , , ,-8.723,-4.587,-122.382
 12:21:36.857,eb:33:2e:f9:57:b5, 2015-01-01 00:07:53.325,0.027,-0.085,0.947,80.444,24.902,-17.822, , , , , , ,-8.311,-4.46,-122.487
 12:21:36.857,eb:33:2e:f9:57:b5, 2015-01-01 00:07:53.325,0.123,-0.156,0.96,80.2,20.508,-15.991, , , , , , ,-7.899,-4.367,-122.585
 12:21:36.857,eb:33:2e:f9:57:b5, 2015-01-01 00:07:53.325,0.181,-0.219,0.983,81.726,20.996,-10.986, , , , , , ,-7.493,-4.274,-122.662
 12:21:36.857,eb:33:2e:f9:57:b5, 2015-01-01 00:07:53.325,0.186,-0.248,0.997,84.473,24.719,-4.517, , , , , , ,-7.07,-4.164,-122.712
 12:21:36.881,eb:33:2e:f9:57:b5, 2015-01-01 00:07:53.325,0.161,-0.234,0.988,87.341,28.87,1.587, , , , , , ,-6.641,-4.026,-122.734
 12:21:36.881,eb:33:2e:f9:57:b5, 2015-01-01 00:07:53.325,0.126,-0.181,1.021,88.745,32.837,6.104, , , , , , ,-6.196,-3.873,-122.728
 12:21:36.881,eb:33:2e:f9:57:b5, 2015-01-01 00:07:53.325,0.084,-0.096,1.063,86.975,36.438,8.728, , , , , , ,-5.757,-3.697,-122.706
 12:21:36.881,eb:33:2e:f9:57:b5, 2015-01-01 00:07:53.325,0.038,0.012,1.078,82.458,38.818,8.789, , , , , , ,-5.339,-3.499,-122.679
 12:21:36.881,eb:33:2e:f9:57:b5, 2015-01-01 00:07:53.325,0,0.079,1.101,74.585,38.757,6.836, , , , , , ,-4.949,-3.307,-122.657
 12:21:36.881,eb:33:2e:f9:57:b5, 2015-01-01 00:07:53.325,-0.007,0.091,1.063,66.04,36.255,5.493, , , , , , ,-4.603,-3.115,-122.646
 12:21:36.881,eb:33:2e:f9:57:b5, 2015-01-01 00:07:53.325,-0.004,0.116,1.054,56.152,33.386,5.981, , , , , , ,-4.301,-2.944,-122.629
 12:21:36.881,eb:33:2e:f9:57:b5, 2015-01-01 00:07:53.325,0.029,0.07,1.021,47.424,30.945,7.935, , , , , , ,-4.054,-2.78,-122.602
 12:21:36.927,eb:33:2e:f9:57:b5, 2015-01-01 00:07:53.325,0.052,0.041,1.023,40.466,30.762,11.047, , , , , , ,-3.84,-2.626,-122.563
 12:21:36.927,eb:33:2e:f9:57:b5, 2015-01-01 00:07:53.325,0.053,0.017,1.033,34.973,32.166,14.343, , , , , , ,-3.658,-2.466,-122.509
 12:21:36.927,eb:33:2e:f9:57:b5, 2015-01-01 00:07:53.325,-0.02,0.01,1.024,30.823,33.325,16.418, , , , , , ,-3.499,-2.296,-122.443
 12:21:36.927,eb:33:2e:f9:57:b5, 2015-01-01 00:07:53.325,-0.128,0.182,0.99,21.24,31.372,14.954, , , , , , ,-3.373,-2.12,-122.371
 12:21:36.927,eb:33:2e:f9:57:b5, 2015-01-01 00:07:53.325,-0.076,0.213,0.886,11.475,16.357,10.01, , , , , , ,-3.296,-2.01,-122.316
 12:21:36.927,eb:33:2e:f9:57:b5, 2015-01-01 00:07:53.325,0.006,0.118,0.942,6.47,9.644,4.028, , , , , , ,-3.257,-1.95,-122.289
 12:21:36.927,eb:33:2e:f9:57:b5, 2015-01-01 00:07:53.325,0.099,-0.04,1.004,6.348,11.475,3.052, , , , , , ,-3.23,-1.901,-122.272
 12:21:36.927,eb:33:2e:f9:57:b5, 2015-01-01 00:07:53.325,0.075,-0.086,1.033,7.08,15.503,5.676, , , , , , ,-3.197,-1.829,-122.256
 12:21:36.972,eb:33:2e:f9:57:b5, 2015-01-01 00:07:53.325,0.011,-0.018,1.001,5.554,15.32,7.446, , , , , , ,-3.164,-1.747,-122.223
 12:21:36.972,eb:33:2e:f9:57:b5, 2015-01-01 00:07:53.325,-0.027,0.005,0.982,4.028,13.367,6.653, , , , , , ,-3.142,-1.675,-122.195
 12:21:36.972,eb:33:2e:f9:57:b5, 2015-01-01 00:07:53.325,-0.024,-0.019,0.977,3.662,11.841,4.822, , , , , , ,-3.126,-1.615,-122.168
 12:21:36.972,eb:33:2e:f9:57:b5, 2015-01-01 00:07:53.325,0.006,-0.034,0.976,3.967,9.46,2.747, , , , , , ,-3.109,-1.56,-122.151
 12:21:36.972,eb:33:2e:f9:57:b5, 2015-01-01 00:07:53.325,0.005,-0.05,0.999,4.578,8.118,2.136, , , , , , ,-3.087,-1.516,-122.146
 12:21:36.972,eb:33:2e:f9:57:b5, 2015-01-01 00:07:53.325,-0.005,-0.057,1.008,5.31,7.874,2.075, , , , , , ,-3.065,-1.478,-122.135
 12:21:36.972,eb:33:2e:f9:57:b5, 2015-01-01 00:07:53.325,-0.014,-0.059,1,5.92,7.019,1.953, , , , , , ,-3.032,-1.439,-122.124
 12:21:36.972,eb:33:2e:f9:57:b5, 2015-01-01 00:07:53.325,-0.011,-0.045,0.992,6.287,5.432,1.282, , , , , , ,-3.005,-1.412,-122.119
 12:21:37.014,eb:33:2e:f9:57:b5, 2015-01-01 00:07:53.325,0.002,-0.049,0.996,6.897,4.395,0.488, , , , , , ,-2.972,-1.384,-122.119
 12:21:37.014,eb:33:2e:f9:57:b5, 2015-01-01 00:07:53.325,0.013,-0.057,1.003,7.935,3.906,-0.061, , , , , , ,-2.933,-1.368,-122.119
 12:21:37.014,eb:33:2e:f9:57:b5, 2015-01-01 00:07:53.325,0.02,-0.05,1.003,8.423,3.479,-0.183, , , , , , ,-2.895,-1.346,-122.119
 12:21:37.014,eb:33:2e:f9:57:b5, 2015-01-01 00:07:53.325,0.017,-0.038,1.002,8.423,3.296,0, , , , , , ,-2.851,-1.335,-122.119
 12:21:37.014,eb:33:2e:f9:57:b5, 2015-01-01 00:07:53.325,0.015,-0.026,0.998,7.996,3.235,0.061, , , , , , ,-2.812,-1.318,-122.119
 12:21:37.014,eb:33:2e:f9:57:b5, 2015-01-01 00:07:53.325,0.021,-0.024,0.995,7.568,3.113,-0.061, , , , , , ,-2.774,-1.302,-122.119
 12:21:37.014,eb:33:2e:f9:57:b5, 2015-01-01 00:07:53.325,0.029,-0.024,0.997,7.324,2.991,-0.244, , , , , , ,-2.736,-1.285,-122.124
 12:21:37.014,eb:33:2e:f9:57:b5, 2015-01-01 00:07:53.325,0.026,-0.022,1,6.958,3.54,-0.549, , , , , , ,-2.703,-1.269,-122.124
 12:21:37.038,eb:33:2e:f9:57:b5, 2015-01-01 00:07:53.325,0.022,-0.021,0.998,6.409,3.906,-0.549, , , , , , ,-2.67,-1.252,-122.13
 12:21:37.038,eb:33:2e:f9:57:b5, 2015-01-01 00:07:53.325,0.023,-0.026,0.997,6.104,4.15,-0.488, , , , , , ,-2.637,-1.236,-122.13
 12:21:37.038,eb:33:2e:f9:57:b5, 2015-01-01 00:07:53.325,0.019,-0.025,1,5.737,4.7,-0.671, , , , , , ,-2.609,-1.214,-122.135
 12:21:37.038,eb:33:2e:f9:57:b5, 2015-01-01 00:07:53.325,0.018,-0.029,1,5.554,4.761,-0.671, , , , , , ,-2.576,-1.187,-122.141
 12:21:37.038,eb:33:2e:f9:57:b5, 2015-01-01 00:07:53.325,0.015,-0.029,1.001,5.432,4.944,-0.732, , , , , , ,-2.554,-1.165,-122.146
 12:21:37.038,eb:33:2e:f9:57:b5, 2015-01-01 00:07:53.325,0.014,-0.029,1,5.249,5.066,-0.61, , , , , , ,-2.527,-1.143,-122.146
 12:21:37.038,eb:33:2e:f9:57:b5, 2015-01-01 00:07:53.325,0.016,-0.028,1,5.005,5.127,-0.488, , , , , , ,-2.499,-1.115,-122.151
 12:21:37.040,eb:33:2e:f9:57:b5, 2015-01-01 00:07:53.325,0.014,-0.027,1,4.883,5.249,-0.61, , , , , , ,-2.477,-1.088,-122.157
 12:21:37.083,eb:33:2e:f9:57:b5, 2015-01-01 00:07:53.325,0.014,-0.025,0.996,4.761,5.31,-0.671, , , , , , ,-2.45,-1.066,-122.162
 12:21:37.083,eb:33:2e:f9:57:b5, 2015-01-01 00:07:53.325,0.012,-0.023,0.995,4.639,5.249,-0.916, , , , , , ,-2.428,-1.038,-122.168
 12:21:37.083,eb:33:2e:f9:57:b5, 2015-01-01 00:07:53.325,0.009,-0.026,0.997,4.639,5.31,-1.221, , , , , , ,-2.406,-1.011,-122.173
 12:21:37.083,eb:33:2e:f9:57:b5, 2015-01-01 00:07:53.325,0.004,-0.03,0.998,4.822,5.188,-1.648, , , , , , ,-2.384,-0.989,-122.179
 12:21:37.083,eb:33:2e:f9:57:b5, 2015-01-01 00:07:53.325,0.003,-0.034,1,5.188,4.822,-1.831, , , , , , ,-2.357,-0.961,-122.19
 12:21:37.083,eb:33:2e:f9:57:b5, 2015-01-01 00:07:53.325,0.002,-0.038,1.003,5.615,4.517,-2.075, , , , , , ,-2.329,-0.939,-122.201
 12:21:37.083,eb:33:2e:f9:57:b5, 2015-01-01 00:07:53.325,0.006,-0.038,1.002,5.92,4.028,-2.197, , , , , , ,-2.302,-0.923,-122.212
 12:21:37.083,eb:33:2e:f9:57:b5, 2015-01-01 00:07:53.325,0.016,-0.035,1.001,6.042,3.662,-2.136, , , , , , ,-2.274,-0.901,-122.223
 12:21:37.128,eb:33:2e:f9:57:b5, 2015-01-01 00:07:53.325,0.021,-0.028,1.002,5.981,3.662,-1.953, , , , , , ,-2.241,-0.884,-122.234
 12:21:37.128,eb:33:2e:f9:57:b5, 2015-01-01 00:07:53.325,0.013,-0.024,1.004,5.92,4.028,-2.014, , , , , , ,-2.214,-0.868,-122.245
 12:21:37.128,eb:33:2e:f9:57:b5, 2015-01-01 00:07:53.325,0.015,-0.027,1.001,5.981,4.089,-1.953, , , , , , ,-2.181,-0.846,-122.256
 12:21:37.128,eb:33:2e:f9:57:b5, 2015-01-01 00:07:53.325,0.019,-0.03,1.005,6.104,4.272,-1.77, , , , , , ,-2.153,-0.824,-122.267
 12:21:37.128,eb:33:2e:f9:57:b5, 2015-01-01 00:07:53.325,0.021,-0.029,1.008,6.165,4.517,-1.648, , , , , , ,-2.12,-0.807,-122.278
 12:21:37.128,eb:33:2e:f9:57:b5, 2015-01-01 00:07:53.325,0.022,-0.025,1.01,6.287,5.066,-1.404, , , , , , ,-2.093,-0.78,-122.283
 12:21:37.128,eb:33:2e:f9:57:b5, 2015-01-01 00:07:53.325,0.015,-0.024,1.01,6.409,5.798,-1.221, , , , , , ,-2.06,-0.753,-122.289
 12:21:37.128,eb:33:2e:f9:57:b5, 2015-01-01 00:07:53.325,0.016,-0.03,1.007,6.714,5.92,-1.038, , , , , , ,-2.027,-0.725,-122.3
 12:21:37.173,eb:33:2e:f9:57:b5, 2015-01-01 00:07:53.635,0.02,-0.022,1.005,6.775,6.226,-1.038, , , , , , ,-1.994,-0.698,-122.305
 12:21:37.173,eb:33:2e:f9:57:b5, 2015-01-01 00:07:53.635,0.01,-0.017,1.003,6.714,6.775,-1.099, , , , , , ,-1.961,-0.665,-122.311
 12:21:37.173,eb:33:2e:f9:57:b5, 2015-01-01 00:07:53.635,0.01,-0.022,0.999,6.775,6.958,-1.099, , , , , , ,-1.928,-0.632,-122.316
 12:21:37.173,eb:33:2e:f9:57:b5, 2015-01-01 00:07:53.635,0.007,-0.015,0.995,6.287,7.568,-0.793, , , , , , ,-1.895,-0.593,-122.322
 12:21:37.173,eb:33:2e:f9:57:b5, 2015-01-01 00:07:53.635,0.011,-0.02,1,6.287,7.507,-0.549, , , , , , ,-1.862,-0.555,-122.327
 12:21:37.173,eb:33:2e:f9:57:b5, 2015-01-01 00:07:53.635,0.014,-0.024,1.003,6.47,7.629,-0.549, , , , , , ,-1.829,-0.522,-122.333
 12:21:37.173,eb:33:2e:f9:57:b5, 2015-01-01 00:07:53.635,-0.001,-0.019,1.007,6.531,8.24,-0.671, , , , , , ,-1.802,-0.483,-122.333
 12:21:37.173,eb:33:2e:f9:57:b5, 2015-01-01 00:07:53.635,0.019,-0.019,0.996,6.348,8.606,-0.305, , , , , , ,-1.769,-0.439,-122.338
 12:21:37.239,eb:33:2e:f9:57:b5, 2015-01-01 00:07:53.635,0.002,-0.015,1.006,6.348,9.521,-0.854, , , , , , ,-1.736,-0.396,-122.344
 12:21:37.239,eb:33:2e:f9:57:b5, 2015-01-01 00:07:53.635,0.029,-0.014,0.997,6.165,9.888,-0.488, , , , , , ,-1.708,-0.346,-122.349
 12:21:37.239,eb:33:2e:f9:57:b5, 2015-01-01 00:07:53.635,0.007,-0.014,1.019,6.47,10.62,-0.61, , , , , , ,-1.675,-0.297,-122.355
 12:21:37.239,eb:33:2e:f9:57:b5, 2015-01-01 00:07:53.635,0.001,-0.015,1.009,6.592,11.047,-0.793, , , , , , ,-1.642,-0.242,-122.36
 12:21:37.239,eb:33:2e:f9:57:b5, 2015-01-01 00:07:53.635,-0.003,-0.014,1.008,6.897,11.353,-0.977, , , , , , ,-1.609,-0.187,-122.366
 12:21:37.239,eb:33:2e:f9:57:b5, 2015-01-01 00:07:53.635,0.002,-0.008,0.995,6.653,11.78,-1.16, , , , , , ,-1.577,-0.126,-122.371
 12:21:37.239,eb:33:2e:f9:57:b5, 2015-01-01 00:07:53.635,0.008,-0.008,0.999,6.348,12.451,-0.916, , , , , , ,-1.544,-0.066,-122.377
 12:21:37.239,eb:33:2e:f9:57:b5, 2015-01-01 00:07:53.635,-0.004,-0.006,0.999,6.226,12.573,-1.343, , , , , , ,-1.511,-0.005,-122.388
 12:21:37.242,eb:33:2e:f9:57:b5, 2015-01-01 00:07:53.635,0,-0.01,0.991,6.042,12.268,-1.465, , , , , , ,-1.483,0.049,-122.393
 12:21:37.242,eb:33:2e:f9:57:b5, 2015-01-01 00:07:53.635,0.002,-0.005,0.992,5.981,12.146,-1.648, , , , , , ,-1.45,0.11,-122.404
 12:21:37.242,eb:33:2e:f9:57:b5, 2015-01-01 00:07:53.635,0.009,0.008,0.978,5.798,11.414,-2.136, , , , , , ,-1.423,0.165,-122.415
 12:21:37.242,eb:33:2e:f9:57:b5, 2015-01-01 00:07:53.635,0.011,0.008,0.993,5.737,11.047,-2.686, , , , , , ,-1.395,0.22,-122.432
 12:21:37.242,eb:33:2e:f9:57:b5, 2015-01-01 00:07:53.635,0.025,0.011,0.984,5.249,10.986,-3.113, , , , , , ,-1.368,0.275,-122.443
 12:21:37.242,eb:33:2e:f9:57:b5, 2015-01-01 00:07:53.635,0.02,0.02,0.997,5.127,11.23,-4.333, , , , , , ,-1.34,0.33,-122.465
 12:21:37.242,eb:33:2e:f9:57:b5, 2015-01-01 00:07:53.635,0.018,0.015,0.99,5.005,11.475,-5.188, , , , , , ,-1.318,0.385,-122.492
 12:21:37.242,eb:33:2e:f9:57:b5, 2015-01-01 00:07:53.635,0.013,0.014,1.002,4.639,12.512,-5.92, , , , , , ,-1.291,0.445,-122.52
 12:21:37.284,eb:33:2e:f9:57:b5, 2015-01-01 00:07:53.635,0.012,0.006,1.011,4.7,13.123,-6.409, , , , , , ,-1.269,0.511,-122.552
 12:21:37.284,eb:33:2e:f9:57:b5, 2015-01-01 00:07:53.635,0.025,-0.005,1.031,5.127,13.794,-7.263, , , , , , ,-1.247,0.577,-122.591
 12:21:37.284,eb:33:2e:f9:57:b5, 2015-01-01 00:07:53.635,-0.009,0.017,1.006,5.188,14.465,-8.057, , , , , , ,-1.219,0.643,-122.629
 12:21:37.284,eb:33:2e:f9:57:b5, 2015-01-01 00:07:53.635,0.01,-0.013,1.029,5.92,14.648,-8.423, , , , , , ,-1.192,0.714,-122.673
 12:21:37.284,eb:33:2e:f9:57:b5, 2015-01-01 00:07:53.635,0.003,0.003,1.026,7.629,13.428,-9.399, , , , , , ,-1.159,0.786,-122.717
 12:21:37.284,eb:33:2e:f9:57:b5, 2015-01-01 00:07:53.635,-0.035,-0.021,1.071,10.132,13.245,-10.071, , , , , , ,-1.115,0.851,-122.767
 12:21:37.284,eb:33:2e:f9:57:b5, 2015-01-01 00:07:53.635,-0.033,-0.047,1.066,12.939,12.329,-9.888, , , , , , ,-1.06,0.912,-122.822
 12:21:37.284,eb:33:2e:f9:57:b5, 2015-01-01 00:07:53.635,-0.05,-0.014,1.002,14.404,10.376,-10.071, , , , , , ,-0.989,0.967,-122.871
 12:21:37.331,eb:33:2e:f9:57:b5, 2015-01-01 00:07:53.635,-0.064,-0.04,1.045,15.869,9.644,-9.583, , , , , , ,-0.917,1.016,-122.921
 12:21:37.331,eb:33:2e:f9:57:b5, 2015-01-01 00:07:53.635,-0.067,-0.03,1.007,16.846,8.301,-9.094, , , , , , ,-0.835,1.06,-122.97
 12:21:37.331,eb:33:2e:f9:57:b5, 2015-01-01 00:07:53.635,-0.089,-0.036,1.024,18.127,6.958,-8.423, , , , , , ,-0.747,1.093,-123.008
 12:21:37.331,eb:33:2e:f9:57:b5, 2015-01-01 00:07:53.635,-0.08,-0.068,1.062,19.897,6.592,-7.202, , , , , , ,-0.654,1.126,-123.047
 12:21:37.331,eb:33:2e:f9:57:b5, 2015-01-01 00:07:53.635,-0.055,-0.057,1.066,22.339,5.31,-6.592, , , , , , ,-0.549,1.154,-123.085
 12:21:37.331,eb:33:2e:f9:57:b5, 2015-01-01 00:07:53.635,-0.051,-0.052,1.08,24.78,4.517,-6.042, , , , , , ,-0.428,1.181,-123.118
 12:21:37.331,eb:33:2e:f9:57:b5, 2015-01-01 00:07:53.635,-0.032,-0.04,1.069,26.794,4.333,-5.31, , , , , , ,-0.302,1.203,-123.146
 12:21:37.331,eb:33:2e:f9:57:b5, 2015-01-01 00:07:53.635,-0.028,-0.035,1.095,28.748,4.639,-4.944, , , , , , ,-0.159,1.225,-123.168
 12:21:37.375,eb:33:2e:f9:57:b5, 2015-01-01 00:07:53.635,-0.015,-0.04,1.127,31.921,4.639,-5.066, , , , , , ,-0.011,1.247,-123.195
 12:21:37.375,eb:33:2e:f9:57:b5, 2015-01-01 00:07:53.635,-0.004,-0.033,1.137,35.522,4.761,-5.188, , , , , , ,0.154,1.269,-123.217
 12:21:37.375,eb:33:2e:f9:57:b5, 2015-01-01 00:07:53.635,-0.005,-0.029,1.147,39.246,5.188,-5.92, , , , , , ,0.341,1.291,-123.245
 12:21:37.375,eb:33:2e:f9:57:b5, 2015-01-01 00:07:53.635,-0.01,-0.04,1.172,43.823,5.493,-6.592, , , , , , ,0.549,1.318,-123.278
 12:21:37.375,eb:33:2e:f9:57:b5, 2015-01-01 00:07:53.635,0.019,-0.039,1.167,48.34,5.432,-7.324, , , , , , ,0.78,1.346,-123.311
 12:21:37.375,eb:33:2e:f9:57:b5, 2015-01-01 00:07:53.635,-0.01,-0.035,1.216,52.429,6.958,-7.385, , , , , , ,1.033,1.379,-123.349
 12:21:37.375,eb:33:2e:f9:57:b5, 2015-01-01 00:07:53.635,0.009,-0.043,1.221,56.274,8.24,-7.263, , , , , , ,1.307,1.417,-123.382
 12:21:37.375,eb:33:2e:f9:57:b5, 2015-01-01 00:07:53.635,0.011,-0.044,1.287,61.707,9.583,-7.385, , , , , , ,1.604,1.467,-123.42
 12:21:37.423,eb:33:2e:f9:57:b5, 2015-01-01 00:07:53.635,0.023,-0.058,1.319,68.115,10.254,-7.996, , , , , , ,1.928,1.516,-123.459
 12:21:37.423,eb:33:2e:f9:57:b5, 2015-01-01 00:07:53.635,0.014,-0.073,1.399,75.623,12.329,-8.606, , , , , , ,2.291,1.571,-123.497
 12:21:37.423,eb:33:2e:f9:57:b5, 2015-01-01 00:07:53.635,0.02,-0.067,1.405,82.703,14.709,-8.911, , , , , , ,2.692,1.642,-123.536
 12:21:37.423,eb:33:2e:f9:57:b5, 2015-01-01 00:07:53.635,0.01,-0.058,1.375,89.355,16.785,-9.766, , , , , , ,3.12,1.725,-123.58
 12:21:37.423,eb:33:2e:f9:57:b5, 2015-01-01 00:07:53.635,-0.02,-0.09,1.412,96.008,20.447,-10.376, , , , , , ,3.587,1.818,-123.624
 12:21:37.423,eb:33:2e:f9:57:b5, 2015-01-01 00:07:53.635,-0.002,-0.12,1.455,103.882,24.414,-9.888, , , , , , ,4.087,1.939,-123.668
 12:21:37.423,eb:33:2e:f9:57:b5, 2015-01-01 00:07:53.635,-0.014,-0.08,1.411,112.671,26.428,-10.742, , , , , , ,4.631,2.071,-123.712
 12:21:37.424,eb:33:2e:f9:57:b5, 2015-01-01 00:07:53.635,-0.006,-0.069,1.365,121.704,26.611,-11.841, , , , , , ,5.219,2.208,-123.755
 12:21:37.442,eb:33:2e:f9:57:b5, 2015-01-01 00:07:53.925,-0.011,-0.083,1.392,130.676,27.893,-12.207, , , , , , ,5.856,2.351,-123.799
 12:21:37.442,eb:33:2e:f9:57:b5, 2015-01-01 00:07:53.925,0.009,-0.084,1.41,140.015,28.87,-12.024, , , , , , ,6.531,2.499,-123.849
 12:21:37.442,eb:33:2e:f9:57:b5, 2015-01-01 00:07:53.925,0.018,-0.039,1.408,149.292,28.931,-12.39, , , , , , ,7.256,2.648,-123.887
 12:21:37.442,eb:33:2e:f9:57:b5, 2015-01-01 00:07:53.925,0.002,-0.034,1.43,159.119,29.419,-13.428, , , , , , ,8.031,2.802,-123.937
 12:21:37.442,eb:33:2e:f9:57:b5, 2015-01-01 00:07:53.925,-0.027,-0.09,1.474,169.006,31.372,-13.306, , , , , , ,8.855,2.961,-123.981
 12:21:37.442,eb:33:2e:f9:57:b5, 2015-01-01 00:07:53.925,0.015,-0.107,1.502,178.711,32.471,-12.39, , , , , , ,9.728,3.131,-124.019
 12:21:37.442,eb:33:2e:f9:57:b5, 2015-01-01 00:07:53.925,0.001,-0.111,1.646,188.965,35.645,-11.719, , , , , , ,10.646,3.307,-124.047
 12:21:37.442,eb:33:2e:f9:57:b5, 2015-01-01 00:07:53.925,0.003,-0.153,1.67,201.416,36.682,-11.658, , , , , , ,11.629,3.499,-124.069
 12:21:37.488,eb:33:2e:f9:57:b5, 2015-01-01 00:07:53.925,0.063,-0.181,1.806,214.539,40.1,-10.925, , , , , , ,12.673,3.697,-124.08
 12:21:37.488,eb:33:2e:f9:57:b5, 2015-01-01 00:07:53.925,0.086,-0.158,1.922,233.765,45.654,-12.024, , , , , , ,13.799,3.922,-124.091
 12:21:37.488,eb:33:2e:f9:57:b5, 2015-01-01 00:07:53.925,0.13,-0.144,1.905,249.634,49.255,-14.221, , , , , , ,15.013,4.169,-124.096
 12:21:37.488,eb:33:2e:f9:57:b5, 2015-01-01 00:07:53.925,0.181,-0.166,1.987,263.489,57.068,-14.893, , , , , , ,16.304,4.444,-124.091
 12:21:37.488,eb:33:2e:f9:57:b5, 2015-01-01 00:07:53.925,0.315,-0.227,2.111,277.466,67.383,-15.808, , , , , , ,17.666,4.768,-124.074
 12:21:37.488,eb:33:2e:f9:57:b5, 2015-01-01 00:07:53.925,0.376,-0.132,2.275,291.016,80.322,-18.616, , , , , , ,19.094,5.147,-124.036
 12:21:37.488,eb:33:2e:f9:57:b5, 2015-01-01 00:07:53.925,0.469,-0.14,2.452,306.885,99.67,-21.912, , , , , , ,20.599,5.614,-123.975
 12:21:37.488,eb:33:2e:f9:57:b5, 2015-01-01 00:07:53.925,0.525,-0.07,2.39,322.693,113.342,-26.611, , , , , , ,22.192,6.163,-123.893
 12:21:37.532,eb:33:2e:f9:57:b5, 2015-01-01 00:07:53.925,0.599,-0.018,2.485,340.027,125.549,-32.959, , , , , , ,23.862,6.779,-123.794
 12:21:37.532,eb:33:2e:f9:57:b5, 2015-01-01 00:07:53.925,0.611,0.092,2.546,360.779,139.709,-40.771, , , , , , ,25.642,7.465,-123.684
 12:21:37.532,eb:33:2e:f9:57:b5, 2015-01-01 00:07:53.925,0.615,0.118,2.377,374.695,148.376,-47.241, , , , , , ,27.51,8.212,-123.558
 12:21:37.532,eb:33:2e:f9:57:b5, 2015-01-01 00:07:53.925,0.72,0.131,2.446,381.287,147.522,-50.293, , , , , , ,29.416,8.987,-123.415
 12:21:37.532,eb:33:2e:f9:57:b5, 2015-01-01 00:07:53.925,0.837,0.376,2.49,393.799,133.728,-61.89, , , , , , ,31.377,9.728,-123.311
 12:21:37.532,eb:33:2e:f9:57:b5, 2015-01-01 00:07:53.925,0.801,0.56,2.822,406.799,137.756,-70.923, , , , , , ,33.398,10.475,-123.228
 12:21:37.532,eb:33:2e:f9:57:b5, 2015-01-01 00:07:53.925,0.401,0.271,2.959,392.578,165.405,-78.247, , , , , , ,35.425,11.31,-123.124
 12:21:37.533,eb:33:2e:f9:57:b5, 2015-01-01 00:07:53.925,0.395,-0.268,3.249,373.23,197.388,-71.411, , , , , , ,37.375,12.277,-122.855
 12:21:37.578,eb:33:2e:f9:57:b5, 2015-01-01 00:07:53.925,0.683,-0.064,3.338,380.371,206.421,-73.914, , , , , , ,39.331,13.304,-122.503
 12:21:37.578,eb:33:2e:f9:57:b5, 2015-01-01 00:07:53.925,0.733,-0.135,2.641,394.836,197.693,-78.064, , , , , , ,41.369,14.326,-122.124
 12:21:37.578,eb:33:2e:f9:57:b5, 2015-01-01 00:07:53.925,1.013,0.167,1.958,410.583,161.011,-88.44, , , , , , ,43.467,15.266,-121.822
 12:21:37.578,eb:33:2e:f9:57:b5, 2015-01-01 00:07:53.925,1.173,0.041,1.684,416.748,120.422,-102.905, , , , , , ,45.577,16.084,-121.696
 12:21:37.578,eb:33:2e:f9:57:b5, 2015-01-01 00:07:53.925,1.122,-0.422,1.957,409.851,112.427,-111.45, , , , , , ,47.648,16.864,-121.652
 12:21:37.578,eb:33:2e:f9:57:b5, 2015-01-01 00:07:53.925,1.268,-0.647,2.237,417.114,117.31,-125.732, , , , , , ,49.724,17.693,-121.613
 12:21:37.578,eb:33:2e:f9:57:b5, 2015-01-01 00:07:53.925,1.657,-1.083,2.441,447.571,125.671,-150.146, , , , , , ,51.905,18.611,-121.58
 12:21:37.578,eb:33:2e:f9:57:b5, 2015-01-01 00:07:53.925,1.777,-1.138,2.705,483.765,164.978,-182.19, , , , , , ,54.267,19.726,-121.503
 12:21:37.624,eb:33:2e:f9:57:b5, 2015-01-01 00:07:53.925,1.401,-1.294,2.588,525.391,214.294,-213.074, , , , , , ,56.898,21.116,-121.245
 12:21:37.624,eb:33:2e:f9:57:b5, 2015-01-01 00:07:53.925,0.95,-1.056,1.365,524.902,240.112,-227.417, , , , , , ,59.716,22.665,-120.817
 12:21:37.624,eb:33:2e:f9:57:b5, 2015-01-01 00:07:53.925,0.581,-0.684,0.242,471.802,238.464,-230.286, , , , , , ,62.413,24.252,-120.267
 12:21:37.624,eb:33:2e:f9:57:b5, 2015-01-01 00:07:53.925,-0.398,-0.302,-0.978,372.864,218.323,-220.764, , , , , , ,64.731,25.768,-119.702
 12:21:37.624,eb:33:2e:f9:57:b5, 2015-01-01 00:07:53.925,-0.536,-0.437,-2.78,231.506,147.4,-189.88, , , , , , ,66.374,27.065,-119.262
 12:21:37.624,eb:33:2e:f9:57:b5, 2015-01-01 00:07:53.925,-0.237,-0.914,-2.588,87.769,83.557,-148.499, , , , , , ,67.181,28.037,-119.075
 12:21:37.624,eb:33:2e:f9:57:b5, 2015-01-01 00:07:53.925,0.152,-1.098,-1.578,-36.438,39.856,-109.314, , , , , , ,67.247,28.718,-119.059
 12:21:37.624,eb:33:2e:f9:57:b5, 2015-01-01 00:07:53.925,0.257,-1.188,-0.47,-130.371,12.085,-75.134, , , , , , ,66.725,29.163,-119.141
 12:21:37.645,eb:33:2e:f9:57:b5, 2015-01-01 00:07:53.925,0.275,-1.193,0.178,-192.139,-7.08,-48.096, , , , , , ,65.808,29.432,-119.279
 12:21:37.645,eb:33:2e:f9:57:b5, 2015-01-01 00:07:53.925,0.394,-1.151,0.549,-225.403,-17.334,-27.344, , , , , , ,64.66,29.564,-119.438
 12:21:37.645,eb:33:2e:f9:57:b5, 2015-01-01 00:07:53.925,0.51,-1.081,0.885,-238.037,-15.808,-11.841, , , , , , ,63.419,29.603,-119.575
 12:21:37.645,eb:33:2e:f9:57:b5, 2015-01-01 00:07:53.925,0.538,-0.916,1.107,-236.267,-3.052,1.526, , , , , , ,62.188,29.597,-119.636
 12:21:37.645,eb:33:2e:f9:57:b5, 2015-01-01 00:07:53.925,0.488,-0.731,1.109,-226.013,9.46,6.775, , , , , , ,61.057,29.586,-119.603
 12:21:37.645,eb:33:2e:f9:57:b5, 2015-01-01 00:07:53.925,0.42,-0.519,0.884,-214.111,16.418,9.338, , , , , , ,60.007,29.581,-119.509
 12:21:37.645,eb:33:2e:f9:57:b5, 2015-01-01 00:07:53.925,0.344,-0.371,0.58,-203.247,15.442,11.353, , , , , , ,59.024,29.575,-119.394
 12:21:37.646,eb:33:2e:f9:57:b5, 2015-01-01 00:07:53.925,0.311,-0.319,0.294,-194.031,6.531,13.306, , , , , , ,58.068,29.548,-119.312
 12:21:37.690,eb:33:2e:f9:57:b5, 2015-01-01 00:07:53.925,0.316,-0.321,0.077,-187.378,-8.24,15.137, , , , , , ,57.14,29.482,-119.279
 12:21:37.690,eb:33:2e:f9:57:b5, 2015-01-01 00:07:53.925,0.338,-0.33,-0.079,-183.96,-27.588,16.785, , , , , , ,56.19,29.355,-119.323
 12:21:37.690,eb:33:2e:f9:57:b5, 2015-01-01 00:07:53.925,0.34,-0.333,-0.172,-184.204,-49.194,18.25, , , , , , ,55.206,29.169,-119.454
 12:21:37.690,eb:33:2e:f9:57:b5, 2015-01-01 00:07:53.925,0.341,-0.349,-0.214,-187.683,-70.923,20.02, , , , , , ,54.152,28.905,-119.691
 12:21:37.690,eb:33:2e:f9:57:b5, 2015-01-01 00:07:53.925,0.36,-0.376,-0.192,-193.237,-91.064,21.973, , , , , , ,53.047,28.575,-119.998
 12:21:37.690,eb:33:2e:f9:57:b5, 2015-01-01 00:07:53.925,0.387,-0.396,-0.117,-200.134,-108.154,23.987, , , , , , ,51.883,28.169,-120.377
 12:21:37.690,eb:33:2e:f9:57:b5, 2015-01-01 00:07:53.925,0.402,-0.406,-0.024,-207.642,-122.131,25.818, , , , , , ,50.658,27.708,-120.806
 12:21:37.690,eb:33:2e:f9:57:b5, 2015-01-01 00:07:53.925,0.43,-0.415,0.067,-214.783,-134.155,26.978, , , , , , ,49.373,27.186,-121.278
 12:21:37.735,eb:33:2e:f9:57:b5, 2015-01-01 00:07:53.925,0.453,-0.409,0.183,-221.802,-142.334,27.588, , , , , , ,48.06,26.62,-121.761
 12:21:37.735,eb:33:2e:f9:57:b5, 2015-01-01 00:07:53.925,0.463,-0.379,0.289,-228.699,-148.499,27.771, , , , , , ,46.708,26.021,-122.256
 12:21:37.735,eb:33:2e:f9:57:b5, 2015-01-01 00:07:53.925,0.474,-0.352,0.375,-236.023,-153.259,27.466, , , , , , ,45.324,25.395,-122.756
 12:21:37.735,eb:33:2e:f9:57:b5, 2015-01-01 00:07:53.925,0.498,-0.316,0.451,-244.263,-157.41,26.367, , , , , , ,43.901,24.741,-123.261
 12:21:37.735,eb:33:2e:f9:57:b5, 2015-01-01 00:07:53.925,0.516,-0.286,0.532,-253.418,-160.645,24.78, , , , , , ,42.446,24.071,-123.761
 12:21:37.735,eb:33:2e:f9:57:b5, 2015-01-01 00:07:53.925,0.512,-0.253,0.603,-263.184,-162.231,22.644, , , , , , ,40.952,23.39,-124.25
 12:21:37.735,eb:33:2e:f9:57:b5, 2015-01-01 00:07:53.925,0.533,-0.224,0.658,-272.522,-164.246,20.203, , , , , , ,39.413,22.698,-124.739
 12:21:37.736,eb:33:2e:f9:57:b5, 2015-01-01 00:07:53.925,0.542,-0.193,0.739,-281.128,-164.917,17.517, , , , , , ,37.837,21.989,-125.222
 12:21:37.780,eb:33:2e:f9:57:b5, 2015-01-01 00:07:54.240,0.542,-0.169,0.827,-287.476,-165.405,14.221, , , , , , ,36.238,21.281,-125.689
 12:21:37.780,eb:33:2e:f9:57:b5, 2015-01-01 00:07:54.240,0.532,-0.137,0.906,-291.443,-166.016,10.498, , , , , , ,34.618,20.572,-126.156
 12:21:37.780,eb:33:2e:f9:57:b5, 2015-01-01 00:07:54.240,0.512,-0.094,0.973,-293.518,-167.053,7.019, , , , , , ,32.997,19.852,-126.612
 12:21:37.780,eb:33:2e:f9:57:b5, 2015-01-01 00:07:54.240,0.489,-0.054,1.026,-293.335,-169.739,3.113, , , , , , ,31.366,19.122,-127.073
 12:21:37.780,eb:33:2e:f9:57:b5, 2015-01-01 00:07:54.240,0.455,-0.016,1.066,-291.504,-174.194,-0.488, , , , , , ,29.756,18.375,-127.529
 12:21:37.780,eb:33:2e:f9:57:b5, 2015-01-01 00:07:54.240,0.413,0.03,1.092,-288.574,-181.274,-3.784, , , , , , ,28.163,17.6,-127.996
 12:21:37.781,eb:33:2e:f9:57:b5, 2015-01-01 00:07:54.240,0.359,0.067,1.116,-285.095,-190.247,-6.47, , , , , , ,26.587,16.787,-128.469
 12:21:37.781,eb:33:2e:f9:57:b5, 2015-01-01 00:07:54.240,0.309,0.089,1.148,-281.555,-200.317,-7.996, , , , , , ,25.027,15.908,-128.958
 12:21:37.802,eb:33:2e:f9:57:b5, 2015-01-01 00:07:54.240,0.265,0.088,1.2,-278.259,-210.449,-7.69, , , , , , ,23.505,14.985,-129.435
 12:21:37.802,eb:33:2e:f9:57:b5, 2015-01-01 00:07:54.240,0.229,0.058,1.288,-275.391,-218.811,-5.249, , , , , , ,22.006,14.002,-129.897
 12:21:37.802,eb:33:2e:f9:57:b5, 2015-01-01 00:07:54.240,0.193,0.008,1.397,-272.949,-224.121,-0.366, , , , , , ,20.533,12.969,-130.325
 12:21:37.802,eb:33:2e:f9:57:b5, 2015-01-01 00:07:54.240,0.155,-0.048,1.515,-270.752,-225.769,6.775, , , , , , ,19.083,11.893,-130.704
 12:21:37.802,eb:33:2e:f9:57:b5, 2015-01-01 00:07:54.240,0.104,-0.092,1.618,-268.677,-224.304,15.869, , , , , , ,17.677,10.805,-131.006
 12:21:37.802,eb:33:2e:f9:57:b5, 2015-01-01 00:07:54.240,0.061,-0.124,1.701,-266.052,-220.093,28.931, , , , , , ,16.304,9.706,-131.221
 12:21:37.802,eb:33:2e:f9:57:b5, 2015-01-01 00:07:54.240,0.032,-0.135,1.736,-263.672,-216.003,40.833, , , , , , ,14.958,8.613,-131.347
 12:21:37.802,eb:33:2e:f9:57:b5, 2015-01-01 00:07:54.240,0.009,-0.138,1.772,-260.803,-212.036,53.406, , , , , , ,13.634,7.504,-131.38
 12:21:37.847,eb:33:2e:f9:57:b5, 2015-01-01 00:07:54.240,-0.005,-0.137,1.807,-257.874,-208.618,66.223, , , , , , ,12.343,6.416,-131.32
 12:21:37.847,eb:33:2e:f9:57:b5, 2015-01-01 00:07:54.240,-0.02,-0.133,1.827,-255.127,-205.566,78.979, , , , , , ,11.08,5.328,-131.166
 12:21:37.847,eb:33:2e:f9:57:b5, 2015-01-01 00:07:54.240,-0.003,-0.132,1.822,-252.625,-204.102,91.675, , , , , , ,9.827,4.241,-130.924
 12:21:37.847,eb:33:2e:f9:57:b5, 2015-01-01 00:07:54.240,0.01,-0.13,1.835,-250.427,-203.918,103.699, , , , , , ,8.58,3.142,-130.6
 12:21:37.847,eb:33:2e:f9:57:b5, 2015-01-01 00:07:54.240,0.024,-0.11,1.843,-248.718,-204.895,114.868, , , , , , ,7.35,2.054,-130.199
 12:21:37.847,eb:33:2e:f9:57:b5, 2015-01-01 00:07:54.240,0.041,-0.083,1.84,-247.62,-207.52,124.817, , , , , , ,6.125,0.961,-129.716
 12:21:37.847,eb:33:2e:f9:57:b5, 2015-01-01 00:07:54.240,0.065,-0.042,1.844,-247.498,-211.365,132.751, , , , , , ,4.889,-0.143,-129.172
 12:21:37.847,eb:33:2e:f9:57:b5, 2015-01-01 00:07:54.240,0.108,0.01,1.865,-247.681,-216.614,138.611, , , , , , ,3.631,-1.274,-128.573
 12:21:37.892,eb:33:2e:f9:57:b5, 2015-01-01 00:07:54.240,0.156,0.077,1.896,-248.84,-220.886,142.09, , , , , , ,2.368,-2.406,-127.925
 12:21:37.892,eb:33:2e:f9:57:b5, 2015-01-01 00:07:54.240,0.203,0.144,1.954,-250.671,-223.145,143.982, , , , , , ,1.082,-3.538,-127.244
 12:21:37.892,eb:33:2e:f9:57:b5, 2015-01-01 00:07:54.240,0.231,0.232,2.049,-252.563,-222.717,143.372, , , , , , ,-0.22,-4.658,-126.53
 12:21:37.892,eb:33:2e:f9:57:b5, 2015-01-01 00:07:54.240,0.244,0.338,2.14,-253.723,-219.788,140.503, , , , , , ,-1.566,-5.762,-125.804
 12:21:37.892,eb:33:2e:f9:57:b5, 2015-01-01 00:07:54.240,0.247,0.456,2.219,-253.845,-215.088,135.132, , , , , , ,-2.917,-6.823,-125.068
 12:21:37.892,eb:33:2e:f9:57:b5, 2015-01-01 00:07:54.240,0.244,0.584,2.269,-252.686,-208.618,127.563, , , , , , ,-4.279,-7.839,-124.343
 12:21:37.892,eb:33:2e:f9:57:b5, 2015-01-01 00:07:54.240,0.231,0.73,2.28,-250.244,-201.416,117.798, , , , , , ,-5.636,-8.806,-123.64
 12:21:37.892,eb:33:2e:f9:57:b5, 2015-01-01 00:07:54.240,0.187,0.882,2.251,-246.582,-194.58,105.835, , , , , , ,-6.998,-9.734,-122.975
 12:21:37.960,eb:33:2e:f9:57:b5, 2015-01-01 00:07:54.240,0.118,1.037,2.193,-241.089,-189.88,91.919, , , , , , ,-8.328,-10.618,-122.355
 12:21:37.960,eb:33:2e:f9:57:b5, 2015-01-01 00:07:54.240,0.03,1.213,2.119,-232.544,-188.171,75.439, , , , , , ,-9.619,-11.486,-121.789
 12:21:37.960,eb:33:2e:f9:57:b5, 2015-01-01 00:07:54.240,-0.059,1.403,2.037,-220.886,-190.369,56.763, , , , , , ,-10.849,-12.36,-121.295
 12:21:37.960,eb:33:2e:f9:57:b5, 2015-01-01 00:07:54.240,-0.09,1.584,1.977,-205.566,-197.449,35.767, , , , , , ,-12.014,-13.277,-120.872
 12:21:37.960,eb:33:2e:f9:57:b5, 2015-01-01 00:07:54.240,-0.137,1.763,2.007,-189.087,-204.041,13.733, , , , , , ,-13.074,-14.238,-120.536
 12:21:37.960,eb:33:2e:f9:57:b5, 2015-01-01 00:07:54.240,-0.213,1.913,2.089,-173.95,-206.116,-7.874, , , , , , ,-14.035,-15.238,-120.278
 12:21:37.961,eb:33:2e:f9:57:b5, 2015-01-01 00:07:54.240,-0.319,2.004,2.178,-161.682,-201.111,-27.344, , , , , , ,-14.914,-16.249,-120.114
 12:21:37.961,eb:33:2e:f9:57:b5, 2015-01-01 00:07:54.240,-0.476,2.032,2.228,-152.588,-188.66,-43.396, , , , , , ,-15.727,-17.243,-120.037
 12:21:37.982,eb:33:2e:f9:57:b5, 2015-01-01 00:07:54.240,-0.651,2.017,2.203,-145.203,-171.997,-55.542, , , , , , ,-16.469,-18.171,-120.031
 12:21:37.982,eb:33:2e:f9:57:b5, 2015-01-01 00:07:54.240,-0.83,1.988,2.148,-137.207,-154.358,-64.026, , , , , , ,-17.155,-19.034,-120.092
 12:21:37.982,eb:33:2e:f9:57:b5, 2015-01-01 00:07:54.240,-0.993,1.972,2.072,-127.319,-138.489,-69.458, , , , , , ,-17.776,-19.825,-120.201
 12:21:37.982,eb:33:2e:f9:57:b5, 2015-01-01 00:07:54.240,-1.146,1.965,1.979,-115.417,-124.939,-72.51, , , , , , ,-18.331,-20.561,-120.35
 12:21:37.982,eb:33:2e:f9:57:b5, 2015-01-01 00:07:54.240,-1.263,1.973,1.861,-102.722,-113.403,-74.036, , , , , , ,-18.814,-21.237,-120.52
 12:21:37.982,eb:33:2e:f9:57:b5, 2015-01-01 00:07:54.240,-1.31,2.073,1.76,-91.492,-101.257,-74.219, , , , , , ,-19.221,-21.863,-120.712
 12:21:37.982,eb:33:2e:f9:57:b5, 2015-01-01 00:07:54.240,-1.321,2.217,1.773,-81.543,-85.205,-72.876, , , , , , ,-19.572,-22.418,-120.921
 12:21:37.982,eb:33:2e:f9:57:b5, 2015-01-01 00:07:54.240,-1.356,2.33,1.862,-68.298,-57.373,-69.214, , , , , , ,-19.858,-22.874,-121.157
 12:21:38.006,eb:33:2e:f9:57:b5, 2015-01-01 00:07:54.240,-1.422,2.358,1.885,-53.833,-30.64,-63.538, , , , , , ,-20.056,-23.181,-121.415
 12:21:38.006,eb:33:2e:f9:57:b5, 2015-01-01 00:07:54.240,-1.508,2.327,1.838,-35.4,-5.676,-54.932, , , , , , ,-20.165,-23.357,-121.685
 12:21:38.006,eb:33:2e:f9:57:b5, 2015-01-01 00:07:54.240,-1.578,2.247,1.739,-14.16,14.038,-43.03, , , , , , ,-20.176,-23.406,-121.943
 12:21:38.006,eb:33:2e:f9:57:b5, 2015-01-01 00:07:54.240,-0.37,2.123,1.636,7.385,28.259,-27.588, , , , , , ,-20.099,-23.362,-122.162
 12:21:38.006,eb:33:2e:f9:57:b5, 2015-01-01 00:07:54.240,-2.972,1.386,6.47,80.627,164.551,-29.053, , , , , , ,-19.709,-23.071,-122.52
 12:21:38.006,eb:33:2e:f9:57:b5, 2015-01-01 00:07:54.240,-1.59,1.855,3.537,117.554,222.29,9.338, , , , , , ,-19.072,-22.132,-122.882
 12:21:38.006,eb:33:2e:f9:57:b5, 2015-01-01 00:07:54.240,-0.067,1.212,4.546,146.79,352.783,41.321, , , , , , ,-18.237,-20.616,-123.25
 12:21:38.006,eb:33:2e:f9:57:b5, 2015-01-01 00:07:54.240,0.803,0.871,1.522,147.827,388.672,52.612, , , , , , ,-17.38,-18.754,-123.618
 12:21:38.097,eb:33:2e:f9:57:b5, 2015-01-01 00:07:54.240,0.709,-0.499,0.902,149.353,420.288,69.275, , , , , , ,-16.534,-16.705,-123.937
 12:21:38.097,eb:33:2e:f9:57:b5, 2015-01-01 00:07:54.240,0.04,-0.193,1.234,146.912,414.124,87.769, , , , , , ,-15.743,-14.568,-124.151
 12:21:38.097,eb:33:2e:f9:57:b5, 2015-01-01 00:07:54.240,-0.743,-1.867,0.349,183.533,327.881,118.53, , , , , , ,-14.919,-12.662,-124.129
 12:21:38.099,eb:33:2e:f9:57:b5, 2015-01-01 00:07:54.240,-0.354,-1.922,0.047,233.521,228.821,128.784, , , , , , ,-13.903,-11.217,-123.827
 12:21:38.099,eb:33:2e:f9:57:b5, 2015-01-01 00:07:54.240,-0.459,-0.784,0.956,257.141,188.66,123.779, , , , , , ,-12.728,-10.102,-123.442
 12:21:38.099,eb:33:2e:f9:57:b5, 2015-01-01 00:07:54.240,-0.633,-0.15,1.192,261.108,175.842,106.506, , , , , , ,-11.486,-9.108,-123.063
 12:21:38.099,eb:33:2e:f9:57:b5, 2015-01-01 00:07:54.240,-0.886,0.357,1.296,247.07,168.64,80.688, , , , , , ,-10.261,-8.174,-122.772
 12:21:38.099,eb:33:2e:f9:57:b5, 2015-01-01 00:07:54.240,-0.82,0.419,1.048,228.882,146.606,51.941, , , , , , ,-9.108,-7.344,-122.591
 12:21:38.099,eb:33:2e:f9:57:b5, 2015-01-01 00:07:54.240,-0.547,0.434,1.011,206.848,115.54,24.536, , , , , , ,-8.036,-6.685,-122.514
 12:21:38.099,eb:33:2e:f9:57:b5, 2015-01-01 00:07:54.240,-0.308,0.578,1.285,174.5,90.82,9.949, , , , , , ,-7.097,-6.18,-122.503
 12:21:38.099,eb:33:2e:f9:57:b5, 2015-01-01 00:07:54.240,-0.04,0.59,1.336,137.024,71.899,7.751, , , , , , ,-6.339,-5.784,-122.509
 12:21:38.099,eb:33:2e:f9:57:b5, 2015-01-01 00:07:54.240,0.042,0.286,1.213,113.098,64.575,11.658, , , , , , ,-5.729,-5.444,-122.498
 12:21:38.099,eb:33:2e:f9:57:b5, 2015-01-01 00:07:54.240,0.091,0.049,1.076,95.825,62.195,22.583, , , , , , ,-5.224,-5.125,-122.437
 12:21:38.099,eb:33:2e:f9:57:b5, 2015-01-01 00:07:54.240,0.099,-0.022,1.032,82.52,62.744,36.072, , , , , , ,-4.801,-4.801,-122.311
 12:21:38.099,eb:33:2e:f9:57:b5, 2015-01-01 00:07:54.240,0.045,0.057,1.031,69.519,63.66,46.631, , , , , , ,-4.438,-4.466,-122.119
 12:21:38.099,eb:33:2e:f9:57:b5, 2015-01-01 00:07:54.240,-0.047,0.101,1.005,59.814,60.242,49.927, , , , , , ,-4.142,-4.136,-121.899
 12:21:38.140,eb:33:2e:f9:57:b5, 2015-01-01 00:07:54.550,-0.107,0.199,0.958,50.049,52.979,47.058, , , , , , ,-3.884,-3.84,-121.674
 12:21:38.140,eb:33:2e:f9:57:b5, 2015-01-01 00:07:54.550,-0.107,0.221,0.914,42.114,47.119,37.354, , , , , , ,-3.675,-3.587,-121.476
 12:21:38.140,eb:33:2e:f9:57:b5, 2015-01-01 00:07:54.550,-0.157,0.202,0.914,34.363,44.312,27.527, , , , , , ,-3.494,-3.345,-121.339
 12:21:38.140,eb:33:2e:f9:57:b5, 2015-01-01 00:07:54.550,-0.181,0.24,0.893,23.56,37.903,20.935, , , , , , ,-3.356,-3.131,-121.229
 12:21:38.140,eb:33:2e:f9:57:b5, 2015-01-01 00:07:54.550,-0.102,0.286,0.85,12.817,19.653,13.794, , , , , , ,-3.279,-2.994,-121.152
 12:21:38.140,eb:33:2e:f9:57:b5, 2015-01-01 00:07:54.550,0.033,0.042,0.945,9.705,13,9.766, , , , , , ,-3.23,-2.917,-121.097
 12:21:38.140,eb:33:2e:f9:57:b5, 2015-01-01 00:07:54.550,0.068,-0.083,1.023,11.719,14.648,7.996, , , , , , ,-3.181,-2.851,-121.058
 12:21:38.140,eb:33:2e:f9:57:b5, 2015-01-01 00:07:54.550,-0.003,-0.045,1.011,11.597,14.038,7.751, , , , , , ,-3.12,-2.774,-121.02
 12:21:38.185,eb:33:2e:f9:57:b5, 2015-01-01 00:07:54.550,0.029,0.004,0.977,9.888,10.986,4.7, , , , , , ,-3.071,-2.714,-120.998
 12:21:38.185,eb:33:2e:f9:57:b5, 2015-01-01 00:07:54.550,0.085,-0.023,0.997,9.033,10.742,4.15, , , , , , ,-3.021,-2.659,-120.976
 12:21:38.185,eb:33:2e:f9:57:b5, 2015-01-01 00:07:54.550,0.073,-0.019,1.023,8.24,12.329,4.456, , , , , , ,-2.983,-2.598,-120.954
 12:21:38.185,eb:33:2e:f9:57:b5, 2015-01-01 00:07:54.550,0.048,-0.015,1.017,7.751,14.16,3.906, , , , , , ,-2.939,-2.532,-120.938
 12:21:38.185,eb:33:2e:f9:57:b5, 2015-01-01 00:07:54.550,0.063,-0.02,1.004,7.385,14.771,3.174, , , , , , ,-2.906,-2.455,-120.921
 12:21:38.185,eb:33:2e:f9:57:b5, 2015-01-01 00:07:54.550,0.062,-0.022,1.014,7.08,15.808,2.625, , , , , , ,-2.867,-2.379,-120.91
 12:21:38.185,eb:33:2e:f9:57:b5, 2015-01-01 00:07:54.550,0.038,-0.028,1.013,6.958,17.09,2.075, , , , , , ,-2.834,-2.296,-120.905
 12:21:38.185,eb:33:2e:f9:57:b5, 2015-01-01 00:07:54.550,0.004,-0.027,1.001,6.714,17.212,1.282, , , , , , ,-2.802,-2.208,-120.899
 12:21:38.208,eb:33:2e:f9:57:b5, 2015-01-01 00:07:54.550,0.001,-0.037,0.981,6.592,15.442,0.549, , , , , , ,-2.769,-2.131,-120.899
 12:21:38.208,eb:33:2e:f9:57:b5, 2015-01-01 00:07:54.550,-0.002,-0.034,0.978,6.531,13.55,-0.122, , , , , , ,-2.736,-2.06,-120.899
 12:21:38.208,eb:33:2e:f9:57:b5, 2015-01-01 00:07:54.550,-0.006,-0.035,0.978,6.531,11.597,-0.916, , , , , , ,-2.703,-1.994,-120.905
 12:21:38.208,eb:33:2e:f9:57:b5, 2015-01-01 00:07:54.550,-0.003,-0.039,0.983,6.653,9.888,-1.77, , , , , , ,-2.67,-1.945,-120.916
 12:21:38.208,eb:33:2e:f9:57:b5, 2015-01-01 00:07:54.550,0.01,-0.042,0.987,6.714,8.057,-2.441, , , , , , ,-2.637,-1.901,-120.927
 12:21:38.208,eb:33:2e:f9:57:b5, 2015-01-01 00:07:54.550,0.026,-0.042,0.996,6.958,6.714,-2.808, , , , , , ,-2.598,-1.868,-120.943
 12:21:38.208,eb:33:2e:f9:57:b5, 2015-01-01 00:07:54.550,0.018,-0.032,1.004,7.141,6.287,-3.723, , , , , , ,-2.565,-1.835,-120.959
 12:21:38.208,eb:33:2e:f9:57:b5, 2015-01-01 00:07:54.550,0.019,-0.037,0.997,7.141,5.432,-3.906, , , , , , ,-2.527,-1.807,-120.981
 12:21:38.252,eb:33:2e:f9:57:b5, 2015-01-01 00:07:54.550,0.027,-0.037,0.996,7.141,4.517,-3.662, , , , , , ,-2.488,-1.785,-120.998
 12:21:38.252,eb:33:2e:f9:57:b5, 2015-01-01 00:07:54.550,0.028,-0.038,1.002,7.385,3.845,-3.601, , , , , , ,-2.455,-1.763,-121.02
 12:21:38.252,eb:33:2e:f9:57:b5, 2015-01-01 00:07:54.550,0.028,-0.037,1.001,7.507,3.601,-3.54, , , , , , ,-2.417,-1.747,-121.036
 12:21:38.252,eb:33:2e:f9:57:b5, 2015-01-01 00:07:54.550,0.038,-0.038,1,7.69,3.235,-3.296, , , , , , ,-2.379,-1.73,-121.053
 12:21:38.252,eb:33:2e:f9:57:b5, 2015-01-01 00:07:54.550,0.037,-0.032,1.005,7.812,3.296,-3.174, , , , , , ,-2.34,-1.714,-121.069
 12:21:38.252,eb:33:2e:f9:57:b5, 2015-01-01 00:07:54.550,0.034,-0.029,1,7.751,3.418,-3.052, , , , , , ,-2.302,-1.697,-121.086
 12:21:38.253,eb:33:2e:f9:57:b5, 2015-01-01 00:07:54.550,0.035,-0.031,1.001,7.812,3.418,-2.625, , , , , , ,-2.258,-1.681,-121.102
 12:21:38.253,eb:33:2e:f9:57:b5, 2015-01-01 00:07:54.550,0.039,-0.026,0.996,7.446,3.54,-1.953, , , , , , ,-2.219,-1.664,-121.113
 12:21:38.298,eb:33:2e:f9:57:b5, 2015-01-01 00:07:54.550,0.042,-0.013,0.992,6.958,4.089,-1.892, , , , , , ,-2.186,-1.648,-121.119
 12:21:38.298,eb:33:2e:f9:57:b5, 2015-01-01 00:07:54.550,0.041,-0.014,0.997,6.47,4.944,-1.831, , , , , , ,-2.153,-1.626,-121.13
 12:21:38.298,eb:33:2e:f9:57:b5, 2015-01-01 00:07:54.550,0.055,-0.022,0.992,5.615,5.676,-1.404, , , , , , ,-2.12,-1.599,-121.141
 12:21:38.298,eb:33:2e:f9:57:b5, 2015-01-01 00:07:54.550,0.04,-0.005,1.002,5.188,6.897,-1.953, , , , , , ,-2.093,-1.566,-121.146
 12:21:38.298,eb:33:2e:f9:57:b5, 2015-01-01 00:07:54.550,0.031,-0.016,0.998,4.761,7.874,-1.953, , , , , , ,-2.065,-1.533,-121.157
 12:21:38.298,eb:33:2e:f9:57:b5, 2015-01-01 00:07:54.550,0.021,-0.015,0.993,4.272,8.362,-1.709, , , , , , ,-2.043,-1.489,-121.168
 12:21:38.298,eb:33:2e:f9:57:b5, 2015-01-01 00:07:54.550,0.021,-0.02,0.989,3.967,8.362,-1.587, , , , , , ,-2.027,-1.45,-121.179
 12:21:38.298,eb:33:2e:f9:57:b5, 2015-01-01 00:07:54.550,0.031,-0.016,0.993,3.662,8.789,-1.648, , , , , , ,-2.005,-1.406,-121.185
 12:21:38.344,eb:33:2e:f9:57:b5, 2015-01-01 00:07:54.550,0.025,-0.012,0.997,3.662,9.277,-1.709, , , , , , ,-1.989,-1.362,-121.196
 12:21:38.344,eb:33:2e:f9:57:b5, 2015-01-01 00:07:54.550,0.023,-0.013,0.996,3.845,9.338,-2.014, , , , , , ,-1.967,-1.318,-121.207
 12:21:38.344,eb:33:2e:f9:57:b5, 2015-01-01 00:07:54.550,0.017,-0.017,0.997,3.967,9.277,-2.747, , , , , , ,-1.95,-1.269,-121.218
 12:21:38.344,eb:33:2e:f9:57:b5, 2015-01-01 00:07:54.550,0.022,-0.021,1.004,4.578,9.399,-2.869, , , , , , ,-1.928,-1.219,-121.234
 12:21:38.344,eb:33:2e:f9:57:b5, 2015-01-01 00:07:54.550,0.009,-0.024,1.008,5.005,9.583,-3.418, , , , , , ,-1.901,-1.176,-121.251
 12:21:38.344,eb:33:2e:f9:57:b5, 2015-01-01 00:07:54.550,-0.004,-0.024,0.995,5.005,9.277,-3.357, , , , , , ,-1.879,-1.132,-121.267
 12:21:38.344,eb:33:2e:f9:57:b5, 2015-01-01 00:07:54.550,0.016,-0.019,0.975,4.822,8.362,-3.357, , , , , , ,-1.851,-1.088,-121.284
 12:21:38.344,eb:33:2e:f9:57:b5, 2015-01-01 00:07:54.550,0.005,-0.014,0.992,4.639,8.362,-3.601, , , , , , ,-1.829,-1.044,-121.306
 12:21:38.389,eb:33:2e:f9:57:b5, 2015-01-01 00:07:54.550,0.007,-0.019,0.988,4.333,8.179,-3.235, , , , , , ,-1.807,-1.005,-121.322
 12:21:38.389,eb:33:2e:f9:57:b5, 2015-01-01 00:07:54.550,0.026,-0.017,0.987,3.967,8.057,-2.869, , , , , , ,-1.785,-0.967,-121.339
 12:21:38.389,eb:33:2e:f9:57:b5, 2015-01-01 00:07:54.550,0.014,-0.006,0.994,3.479,8.667,-2.747, , , , , , ,-1.769,-0.923,-121.355
 12:21:38.389,eb:33:2e:f9:57:b5, 2015-01-01 00:07:54.550,0.024,-0.014,0.994,3.174,8.606,-2.808, , , , , , ,-1.747,-0.884,-121.366
 12:21:38.389,eb:33:2e:f9:57:b5, 2015-01-01 00:07:54.550,0.018,-0.016,1.001,2.93,9.277,-2.319, , , , , , ,-1.73,-0.835,-121.382
 12:21:38.389,eb:33:2e:f9:57:b5, 2015-01-01 00:07:54.550,0,-0.011,0.997,2.686,9.46,-2.075, , , , , , ,-1.719,-0.791,-121.393
 12:21:38.389,eb:33:2e:f9:57:b5, 2015-01-01 00:07:54.550,0.041,-0.021,0.982,2.625,8.789,-1.221, , , , , , ,-1.708,-0.747,-121.404
 12:21:38.389,eb:33:2e:f9:57:b5, 2015-01-01 00:07:54.550,0.011,0.01,1.01,1.953,10.742,-2.014, , , , , , ,-1.692,-0.698,-121.41
 12:21:38.410,eb:33:2e:f9:57:b5, 2015-01-01 00:07:54.885,0.022,-0.015,0.997,1.831,10.986,-1.404, , , , , , ,-1.686,-0.643,-121.421
 12:21:38.410,eb:33:2e:f9:57:b5, 2015-01-01 00:07:54.885,0.023,-0.002,0.995,1.343,11.536,-0.854, , , , , , ,-1.675,-0.588,-121.426
 12:21:38.410,eb:33:2e:f9:57:b5, 2015-01-01 00:07:54.885,-0.007,-0.007,1.01,1.099,13.123,-1.282, , , , , , ,-1.67,-0.527,-121.432
 12:21:38.410,eb:33:2e:f9:57:b5, 2015-01-01 00:07:54.885,0.02,-0.014,0.987,1.343,12.756,-1.099, , , , , , ,-1.664,-0.461,-121.437
 12:21:38.410,eb:33:2e:f9:57:b5, 2015-01-01 00:07:54.885,0,0.006,0.986,0.366,14.282,-0.854, , , , , , ,-1.659,-0.39,-121.448
 12:21:38.410,eb:33:2e:f9:57:b5, 2015-01-01 00:07:54.885,-0.004,-0.011,0.988,0.122,14.343,-0.488, , , , , , ,-1.659,-0.324,-121.448
 12:21:38.410,eb:33:2e:f9:57:b5, 2015-01-01 00:07:54.885,0.013,-0.008,0.97,-0.122,14.099,-0.183, , , , , , ,-1.659,-0.253,-121.454
 12:21:38.410,eb:33:2e:f9:57:b5, 2015-01-01 00:07:54.885,0.009,-0.005,0.998,-0.305,14.893,-0.366, , , , , , ,-1.659,-0.176,-121.454
 12:21:38.478,eb:33:2e:f9:57:b5, 2015-01-01 00:07:54.885,0.011,-0.004,0.986,-0.244,15.32,-0.793, , , , , , ,-1.664,-0.104,-121.459
 12:21:38.478,eb:33:2e:f9:57:b5, 2015-01-01 00:07:54.885,0.006,-0.012,1.005,-0.122,16.296,-1.343, , , , , , ,-1.664,-0.022,-121.465
 12:21:38.478,eb:33:2e:f9:57:b5, 2015-01-01 00:07:54.885,0.001,-0.011,1.002,0,16.785,-2.075, , , , , , ,-1.664,0.055,-121.481
 12:21:38.478,eb:33:2e:f9:57:b5, 2015-01-01 00:07:54.885,-0.005,-0.016,1.002,0.366,17.212,-2.747, , , , , , ,-1.664,0.137,-121.492
 12:21:38.478,eb:33:2e:f9:57:b5, 2015-01-01 00:07:54.885,-0.013,-0.019,1.004,0.61,17.456,-3.357, , , , , , ,-1.659,0.225,-121.509
 12:21:38.478,eb:33:2e:f9:57:b5, 2015-01-01 00:07:54.885,-0.008,-0.023,1.001,0.977,17.273,-3.723, , , , , , ,-1.659,0.313,-121.531
 12:21:38.478,eb:33:2e:f9:57:b5, 2015-01-01 00:07:54.885,-0.008,-0.023,1.004,1.404,17.151,-3.906, , , , , , ,-1.648,0.396,-121.553
 12:21:38.478,eb:33:2e:f9:57:b5, 2015-01-01 00:07:54.885,-0.009,-0.03,1.017,1.892,17.395,-4.028, , , , , , ,-1.642,0.483,-121.575
 12:21:38.499,eb:33:2e:f9:57:b5, 2015-01-01 00:07:54.885,-0.01,-0.026,1.02,2.502,17.456,-4.272, , , , , , ,-1.631,0.566,-121.597
 12:21:38.499,eb:33:2e:f9:57:b5, 2015-01-01 00:07:54.885,0,-0.032,1.028,3.235,17.7,-4.211, , , , , , ,-1.615,0.654,-121.619
 12:21:38.499,eb:33:2e:f9:57:b5, 2015-01-01 00:07:54.885,0.002,-0.029,1.038,4.15,18.25,-4.456, , , , , , ,-1.599,0.742,-121.641
 12:21:38.499,eb:33:2e:f9:57:b5, 2015-01-01 00:07:54.885,-0.012,-0.026,1.044,4.944,19.165,-4.883, , , , , , ,-1.571,0.84,-121.668
 12:21:38.499,eb:33:2e:f9:57:b5, 2015-01-01 00:07:54.885,-0.006,-0.032,1.031,5.859,19.714,-4.822, , , , , , ,-1.544,0.934,-121.696
 12:21:38.499,eb:33:2e:f9:57:b5, 2015-01-01 00:07:54.885,-0.011,-0.026,1.03,6.47,20.02,-4.944, , , , , , ,-1.516,1.033,-121.723
 12:21:38.499,eb:33:2e:f9:57:b5, 2015-01-01 00:07:54.885,0,-0.03,1.032,7.263,19.897,-4.761, , , , , , ,-1.483,1.132,-121.745
 12:21:38.500,eb:33:2e:f9:57:b5, 2015-01-01 00:07:54.885,0.028,-0.002,0.998,8.118,17.7,-4.944, , , , , , ,-1.439,1.225,-121.772
 12:21:38.544,eb:33:2e:f9:57:b5, 2015-01-01 00:07:54.885,0.034,0.021,0.986,8.667,14.954,-5.798, , , , , , ,-1.401,1.302,-121.8
 12:21:38.544,eb:33:2e:f9:57:b5, 2015-01-01 00:07:54.885,-0.016,0.012,1.027,9.705,13.55,-6.958, , , , , , ,-1.357,1.373,-121.833
 12:21:38.544,eb:33:2e:f9:57:b5, 2015-01-01 00:07:54.885,-0.104,-0.042,1.098,13.611,12.024,-7.324, , , , , , ,-1.302,1.434,-121.871
 12:21:38.544,eb:33:2e:f9:57:b5, 2015-01-01 00:07:54.885,-0.057,-0.171,1.239,22.4,8.667,-6.104, , , , , , ,-1.203,1.483,-121.904
 12:21:38.544,eb:33:2e:f9:57:b5, 2015-01-01 00:07:54.885,-0.078,-0.105,1.221,29.114,7.629,-5.981, , , , , , ,-1.071,1.522,-121.937
 12:21:38.544,eb:33:2e:f9:57:b5, 2015-01-01 00:07:54.885,-0.053,-0.127,1.266,34.302,8.972,-4.822, , , , , , ,-0.912,1.566,-121.959
 12:21:38.544,eb:33:2e:f9:57:b5, 2015-01-01 00:07:54.885,0.034,-0.107,1.309,41.565,8.606,-4.822, , , , , , ,-0.72,1.609,-121.987
 12:21:38.544,eb:33:2e:f9:57:b5, 2015-01-01 00:07:54.885,0.043,-0.066,1.383,50.049,9.338,-6.958, , , , , , ,-0.489,1.653,-122.014
 12:21:38.567,eb:33:2e:f9:57:b5, 2015-01-01 00:07:54.885,-0.012,-0.08,1.372,57.129,12.085,-7.996, , , , , , ,-0.22,1.708,-122.053
 12:21:38.567,eb:33:2e:f9:57:b5, 2015-01-01 00:07:54.885,-0.015,-0.116,1.38,62.683,15.015,-7.69, , , , , , ,0.077,1.774,-122.091
 12:21:38.567,eb:33:2e:f9:57:b5, 2015-01-01 00:07:54.885,-0.052,-0.195,1.598,67.078,25.085,-4.883, , , , , , ,0.401,1.873,-122.124
 12:21:38.567,eb:33:2e:f9:57:b5, 2015-01-01 00:07:54.885,0.03,-0.205,1.534,76.172,29.236,-3.113, , , , , , ,0.764,2.016,-122.141
 12:21:38.567,eb:33:2e:f9:57:b5, 2015-01-01 00:07:54.885,0.004,-0.09,1.403,84.351,30.151,-3.418, , , , , , ,1.17,2.164,-122.151
 12:21:38.567,eb:33:2e:f9:57:b5, 2015-01-01 00:07:54.885,0.029,-0.088,1.38,91.797,31.189,-3.601, , , , , , ,1.615,2.318,-122.168
 12:21:38.567,eb:33:2e:f9:57:b5, 2015-01-01 00:07:54.885,0.045,-0.098,1.466,101.074,33.203,-4.944, , , , , , ,2.098,2.483,-122.179
 12:21:38.567,eb:33:2e:f9:57:b5, 2015-01-01 00:07:54.885,0.044,-0.112,1.48,111.145,35.034,-6.592, , , , , , ,2.637,2.653,-122.201
 12:21:38.612,eb:33:2e:f9:57:b5, 2015-01-01 00:07:54.885,0.023,-0.135,1.518,121.948,37.781,-8.362, , , , , , ,3.219,2.84,-122.234
 12:21:38.612,eb:33:2e:f9:57:b5, 2015-01-01 00:07:54.885,0.024,-0.143,1.542,132.996,40.039,-9.338, , , , , , ,3.862,3.038,-122.261
 12:21:38.612,eb:33:2e:f9:57:b5, 2015-01-01 00:07:54.885,0.047,-0.141,1.606,144.226,43.335,-10.01, , , , , , ,4.554,3.252,-122.294
 12:21:38.612,eb:33:2e:f9:57:b5, 2015-01-01 00:07:54.885,0.045,-0.102,1.584,156.555,43.701,-11.719, , , , , , ,5.312,3.472,-122.333
 12:21:38.612,eb:33:2e:f9:57:b5, 2015-01-01 00:07:54.885,0.017,-0.11,1.619,167.908,44.434,-12.512, , , , , , ,6.125,3.697,-122.371
 12:21:38.612,eb:33:2e:f9:57:b5, 2015-01-01 00:07:54.885,0.045,-0.191,1.728,180.603,47.363,-12.573, , , , , , ,7.004,3.933,-122.404
 12:21:38.612,eb:33:2e:f9:57:b5, 2015-01-01 00:07:54.885,0.048,-0.215,1.772,193.665,51.514,-12.573, , , , , , ,7.943,4.186,-122.437
 12:21:38.613,eb:33:2e:f9:57:b5, 2015-01-01 00:07:54.885,0.111,-0.183,1.756,206.299,55.42,-13.184, , , , , , ,8.948,4.46,-122.459
 12:21:38.658,eb:33:2e:f9:57:b5, 2015-01-01 00:07:54.885,0.172,-0.17,1.809,219.543,60.791,-14.893, , , , , , ,10.014,4.763,-122.481
 12:21:38.658,eb:33:2e:f9:57:b5, 2015-01-01 00:07:54.885,0.173,-0.114,1.868,233.337,67.017,-17.761, , , , , , ,11.151,5.092,-122.498
 12:21:38.658,eb:33:2e:f9:57:b5, 2015-01-01 00:07:54.885,0.154,-0.205,1.805,246.46,73.853,-19.592, , , , , , ,12.354,5.46,-122.52
 12:21:38.658,eb:33:2e:f9:57:b5, 2015-01-01 00:07:54.885,0.178,-0.256,2.053,259.644,85.449,-19.836, , , , , , ,13.623,5.878,-122.525
 12:21:38.658,eb:33:2e:f9:57:b5, 2015-01-01 00:07:54.885,0.229,-0.288,2.208,273.56,97.839,-19.043, , , , , , ,14.969,6.35,-122.503
 12:21:38.658,eb:33:2e:f9:57:b5, 2015-01-01 00:07:54.885,0.476,-0.203,2.33,289.307,107.91,-21.179, , , , , , ,16.386,6.877,-122.459
 12:21:38.658,eb:33:2e:f9:57:b5, 2015-01-01 00:07:54.885,0.623,-0.128,2.315,307.983,124.084,-27.283, , , , , , ,17.897,7.471,-122.404
 12:21:38.658,eb:33:2e:f9:57:b5, 2015-01-01 00:07:54.885,0.663,0.025,2.33,319.885,140.503,-34.485, , , , , , ,19.479,8.152,-122.338
 12:21:38.702,eb:33:2e:f9:57:b5, 2015-01-01 00:07:54.885,0.675,0.035,2.402,325.928,160.583,-40.588, , , , , , ,21.11,8.932,-122.25
 12:21:38.702,eb:33:2e:f9:57:b5, 2015-01-01 00:07:54.885,0.92,0.104,2.664,333.435,178.772,-46.936, , , , , , ,22.78,9.816,-122.13
 12:21:38.702,eb:33:2e:f9:57:b5, 2015-01-01 00:07:54.885,1.01,0.162,2.598,349.548,184.814,-59.143, , , , , , ,24.516,10.761,-122.009
 12:21:38.702,eb:33:2e:f9:57:b5, 2015-01-01 00:07:54.885,0.888,0.252,2.472,365.356,187.195,-72.754, , , , , , ,26.329,11.744,-121.91
 12:21:38.702,eb:33:2e:f9:57:b5, 2015-01-01 00:07:54.885,0.774,0.237,2.648,377.563,193.542,-82.703, , , , , , ,28.207,12.772,-121.833
 12:21:38.702,eb:33:2e:f9:57:b5, 2015-01-01 00:07:54.885,0.706,-0.01,2.8,382.141,203.918,-91.37, , , , , , ,30.141,13.865,-121.729
 12:21:38.702,eb:33:2e:f9:57:b5, 2015-01-01 00:07:54.885,0.681,-0.004,3.013,373.413,221.741,-89.6, , , , , , ,32.064,15.013,-121.558
 12:21:38.702,eb:33:2e:f9:57:b5, 2015-01-01 00:07:54.885,0.686,-0.175,3.327,372.253,249.512,-89.111, , , , , , ,33.997,16.254,-121.273
 12:21:38.748,eb:33:2e:f9:57:b5, 2015-01-01 00:07:55.200,0.745,-0.133,2.761,373.535,254.639,-91.187, , , , , , ,35.975,17.556,-120.899
 12:21:38.748,eb:33:2e:f9:57:b5, 2015-01-01 00:07:55.200,0.765,-0.028,2.533,370.056,245.178,-91.248, , , , , , ,37.963,18.82,-120.487
 12:21:38.748,eb:33:2e:f9:57:b5, 2015-01-01 00:07:55.200,0.883,-0.128,2.611,362.305,243.896,-89.539, , , , , , ,39.935,20.05,-120.048
 12:21:38.748,eb:33:2e:f9:57:b5, 2015-01-01 00:07:55.200,1.065,-0.437,2.664,355.957,253.296,-91.98, , , , , , ,41.896,21.281,-119.548
 12:21:38.748,eb:33:2e:f9:57:b5, 2015-01-01 00:07:55.200,1.158,-0.902,2.61,352.417,274.231,-93.689, , , , , , ,43.89,22.566,-118.943
 12:21:38.748,eb:33:2e:f9:57:b5, 2015-01-01 00:07:55.200,1.324,-1.426,2.29,357.361,288.208,-92.468, , , , , , ,45.95,23.895,-118.207
 12:21:38.748,eb:33:2e:f9:57:b5, 2015-01-01 00:07:55.200,1.57,-1.666,2.003,373.23,294.617,-94.177, , , , , , ,48.126,25.23,-117.383
 12:21:38.749,eb:33:2e:f9:57:b5, 2015-01-01 00:07:55.200,1.68,-1.526,1.871,401.428,306.03,-107.788, , , , , , ,50.455,26.592,-116.488
 12:21:38.771,eb:33:2e:f9:57:b5, 2015-01-01 00:07:55.200,1.142,-1.23,0.943,423.828,308.411,-131.653, , , , , , ,52.971,28.037,-115.543
 12:21:38.771,eb:33:2e:f9:57:b5, 2015-01-01 00:07:55.200,0.212,-0.472,-1.03,387.512,270.63,-142.517, , , , , , ,55.426,29.449,-114.67
 12:21:38.771,eb:33:2e:f9:57:b5, 2015-01-01 00:07:55.200,-0.186,-0.123,-2.544,308.167,183.716,-141.235, , , , , , ,57.442,30.652,-114.06
 12:21:38.771,eb:33:2e:f9:57:b5, 2015-01-01 00:07:55.200,-0.096,-0.271,-2.784,207.642,88.501,-131.226, , , , , , ,58.782,31.558,-113.862
 12:21:38.771,eb:33:2e:f9:57:b5, 2015-01-01 00:07:55.200,0.123,-0.466,-1.915,108.887,5.92,-120.117, , , , , , ,59.42,32.184,-114.049
 12:21:38.771,eb:33:2e:f9:57:b5, 2015-01-01 00:07:55.200,0.287,-0.58,-0.865,16.785,-48.889,-107.544, , , , , , ,59.42,32.596,-114.532
 12:21:38.771,eb:33:2e:f9:57:b5, 2015-01-01 00:07:55.200,0.358,-0.786,-0.038,-60.913,-75.073,-91.187, , , , , , ,58.92,32.849,-115.175
 12:21:38.771,eb:33:2e:f9:57:b5, 2015-01-01 00:07:55.200,0.406,-1.046,0.534,-117.737,-78.43,-72.571, , , , , , ,58.074,32.975,-115.829
 12:21:38.816,eb:33:2e:f9:57:b5, 2015-01-01 00:07:55.200,0.46,-1.228,0.909,-153.076,-65.857,-53.65, , , , , , ,57.063,33.041,-116.389
 12:21:38.816,eb:33:2e:f9:57:b5, 2015-01-01 00:07:55.200,0.452,-1.26,1.154,-169.678,-43.518,-36.804, , , , , , ,56.019,33.074,-116.79
 12:21:38.816,eb:33:2e:f9:57:b5, 2015-01-01 00:07:55.200,0.377,-1.157,1.254,-172.363,-18.311,-21.912, , , , , , ,55.031,33.113,-117.026
 12:21:38.816,eb:33:2e:f9:57:b5, 2015-01-01 00:07:55.200,0.285,-0.985,1.216,-165.833,2.93,-9.216, , , , , , ,54.13,33.146,-117.109
 12:21:38.816,eb:33:2e:f9:57:b5, 2015-01-01 00:07:55.200,0.225,-0.803,1.046,-155.823,17.09,2.014, , , , , , ,53.361,33.19,-117.059
 12:21:38.816,eb:33:2e:f9:57:b5, 2015-01-01 00:07:55.200,0.231,-0.67,0.827,-145.935,23.315,12.39, , , , , , ,52.679,33.223,-116.922
 12:21:38.816,eb:33:2e:f9:57:b5, 2015-01-01 00:07:55.200,0.167,-0.6,0.617,-138,26.672,22.217, , , , , , ,52.081,33.228,-116.73
 12:21:38.816,eb:33:2e:f9:57:b5, 2015-01-01 00:07:55.200,0.192,-0.569,0.324,-132.568,20.569,31.799, , , , , , ,51.509,33.184,-116.526
 12:21:38.859,eb:33:2e:f9:57:b5, 2015-01-01 00:07:55.200,0.202,-0.531,0.059,-131.592,6.042,42.358, , , , , , ,50.966,33.074,-116.323
 12:21:38.859,eb:33:2e:f9:57:b5, 2015-01-01 00:07:55.200,0.217,-0.51,-0.117,-134.827,-12.085,50.476, , , , , , ,50.383,32.877,-116.158
 12:21:38.859,eb:33:2e:f9:57:b5, 2015-01-01 00:07:55.200,0.25,-0.498,-0.216,-141.113,-34.058,57.617, , , , , , ,49.741,32.585,-116.065
 12:21:38.859,eb:33:2e:f9:57:b5, 2015-01-01 00:07:55.200,0.288,-0.487,-0.231,-149.963,-57.251,64.026, , , , , , ,49.005,32.19,-116.054
 12:21:38.859,eb:33:2e:f9:57:b5, 2015-01-01 00:07:55.200,0.328,-0.481,-0.185,-160.706,-79.407,69.641, , , , , , ,48.197,31.701,-116.104
 12:21:38.859,eb:33:2e:f9:57:b5, 2015-01-01 00:07:55.200,0.386,-0.486,-0.096,-172.363,-98.816,74.463, , , , , , ,47.302,31.124,-116.213
 12:21:38.859,eb:33:2e:f9:57:b5, 2015-01-01 00:07:55.200,0.424,-0.501,0.043,-184.265,-113.647,78.796, , , , , , ,46.324,30.471,-116.362
 12:21:38.859,eb:33:2e:f9:57:b5, 2015-01-01 00:07:55.200,0.459,-0.517,0.195,-195.19,-124.084,82.397, , , , , , ,45.269,29.756,-116.548
 12:21:38.906,eb:33:2e:f9:57:b5, 2015-01-01 00:07:55.200,0.481,-0.522,0.348,-205.2,-130.005,85.999, , , , , , ,44.176,29.004,-116.719
 12:21:38.906,eb:33:2e:f9:57:b5, 2015-01-01 00:07:55.200,0.494,-0.521,0.486,-214.294,-133.911,88.501, , , , , , ,43.044,28.218,-116.878
 12:21:38.906,eb:33:2e:f9:57:b5, 2015-01-01 00:07:55.200,0.491,-0.485,0.6,-223.511,-134.583,91.003, , , , , , ,41.88,27.422,-117.015
 12:21:38.906,eb:33:2e:f9:57:b5, 2015-01-01 00:07:55.200,0.511,-0.436,0.663,-232.91,-134.521,92.773, , , , , , ,40.671,26.603,-117.136
 12:21:38.906,eb:33:2e:f9:57:b5, 2015-01-01 00:07:55.200,0.541,-0.392,0.716,-242.432,-134.094,93.628, , , , , , ,39.441,25.785,-117.219
 12:21:38.906,eb:33:2e:f9:57:b5, 2015-01-01 00:07:55.200,0.567,-0.337,0.748,-251.526,-134.216,93.262, , , , , , ,38.172,24.972,-117.279
 12:21:38.906,eb:33:2e:f9:57:b5, 2015-01-01 00:07:55.200,0.589,-0.276,0.762,-260.254,-135.559,91.797, , , , , , ,36.865,24.153,-117.328
 12:21:38.906,eb:33:2e:f9:57:b5, 2015-01-01 00:07:55.200,0.615,-0.217,0.77,-268.127,-138.733,89.111, , , , , , ,35.508,23.324,-117.383
 12:21:38.951,eb:33:2e:f9:57:b5, 2015-01-01 00:07:55.200,0.634,-0.158,0.768,-275.146,-144.043,84.961, , , , , , ,34.124,22.495,-117.433
 12:21:38.951,eb:33:2e:f9:57:b5, 2015-01-01 00:07:55.200,0.653,-0.098,0.753,-281.372,-152.222,79.712, , , , , , ,32.701,21.649,-117.504
 12:21:38.951,eb:33:2e:f9:57:b5, 2015-01-01 00:07:55.200,0.673,-0.04,0.745,-286.865,-162.842,73.303, , , , , , ,31.24,20.77,-117.609
 12:21:38.951,eb:33:2e:f9:57:b5, 2015-01-01 00:07:55.200,0.685,0.011,0.763,-291.321,-175.171,65.918, , , , , , ,29.724,19.852,-117.762
 12:21:38.951,eb:33:2e:f9:57:b5, 2015-01-01 00:07:55.200,0.685,0.051,0.811,-294.678,-188.416,57.861, , , , , , ,28.196,18.902,-117.949
 12:21:38.951,eb:33:2e:f9:57:b5, 2015-01-01 00:07:55.200,0.676,0.088,0.882,-296.631,-201.721,49.438, , , , , , ,26.642,17.908,-118.18
 12:21:38.951,eb:33:2e:f9:57:b5, 2015-01-01 00:07:55.200,0.658,0.111,0.981,-297.058,-214.05,41.199, , , , , , ,25.076,16.87,-118.444
 12:21:38.951,eb:33:2e:f9:57:b5, 2015-01-01 00:07:55.200,0.604,0.129,1.11,-296.265,-223.999,33.691, , , , , , ,23.494,15.782,-118.751
 12:21:38.974,eb:33:2e:f9:57:b5, 2015-01-01 00:07:55.200,0.582,0.121,1.227,-293.579,-233.032,28.015, , , , , , ,21.934,14.667,-119.07
 12:21:38.974,eb:33:2e:f9:57:b5, 2015-01-01 00:07:55.200,0.517,0.111,1.366,-289.429,-240.295,21.545, , , , , , ,20.396,13.513,-119.394
 12:21:38.974,eb:33:2e:f9:57:b5, 2015-01-01 00:07:55.200,0.505,0.098,1.527,-285.156,-243.347,18.005, , , , , , ,18.891,12.338,-119.718
 12:21:38.974,eb:33:2e:f9:57:b5, 2015-01-01 00:07:55.200,0.465,0.085,1.626,-281.067,-243.896,16.479, , , , , , ,17.397,11.14,-120.031
 12:21:38.974,eb:33:2e:f9:57:b5, 2015-01-01 00:07:55.200,0.412,0.078,1.666,-277.466,-243.835,14.465, , , , , , ,15.952,9.948,-120.317
 12:21:38.974,eb:33:2e:f9:57:b5, 2015-01-01 00:07:55.200,0.357,0.08,1.722,-274.414,-243.591,15.015, , , , , , ,14.535,8.756,-120.564
 12:21:38.974,eb:33:2e:f9:57:b5, 2015-01-01 00:07:55.200,0.294,0.072,1.779,-272.583,-242.798,16.479, , , , , , ,13.134,7.553,-120.784
 12:21:38.974,eb:33:2e:f9:57:b5, 2015-01-01 00:07:55.200,0.237,0.07,1.812,-272.034,-242.92,19.165, , , , , , ,11.739,6.334,-120.965
 12:21:39.017,eb:33:2e:f9:57:b5, 2015-01-01 00:07:55.200,0.187,0.071,1.843,-272.827,-243.835,22.888, , , , , , ,10.36,5.12,-121.091
 12:21:39.017,eb:33:2e:f9:57:b5, 2015-01-01 00:07:55.200,0.136,0.069,1.877,-274.719,-245.178,27.222, , , , , , ,8.987,3.889,-121.174
 12:21:39.017,eb:33:2e:f9:57:b5, 2015-01-01 00:07:55.200,0.111,0.062,1.941,-277.344,-245.667,33.142, , , , , , ,7.603,2.653,-121.196
 12:21:39.017,eb:33:2e:f9:57:b5, 2015-01-01 00:07:55.200,0.1,0.045,1.999,-278.931,-245.483,37.781, , , , , , ,6.191,1.401,-121.168
 12:21:39.017,eb:33:2e:f9:57:b5, 2015-01-01 00:07:55.200,0.084,0.048,2.048,-279.968,-244.507,42.236, , , , , , ,4.796,0.159,-121.086
 12:21:39.017,eb:33:2e:f9:57:b5, 2015-01-01 00:07:55.200,0.072,0.071,2.084,-280.029,-243.713,45.715, , , , , , ,3.395,-1.066,-120.948
 12:21:39.017,eb:33:2e:f9:57:b5, 2015-01-01 00:07:55.200,0.062,0.108,2.13,-279.175,-243.042,47.668, , , , , , ,1.989,-2.296,-120.773
 12:21:39.017,eb:33:2e:f9:57:b5, 2015-01-01 00:07:55.200,0.065,0.157,2.182,-277.344,-242.432,47.852, , , , , , ,0.571,-3.527,-120.564
 12:21:39.062,eb:33:2e:f9:57:b5, 2015-01-01 00:07:55.490,0.061,0.227,2.251,-274.963,-241.089,46.204, , , , , , ,-0.824,-4.741,-120.322
 12:21:39.062,eb:33:2e:f9:57:b5, 2015-01-01 00:07:55.490,0.04,0.324,2.317,-272.278,-239.441,42.664, , , , , , ,-2.214,-5.933,-120.07
 12:21:39.062,eb:33:2e:f9:57:b5, 2015-01-01 00:07:55.490,0.011,0.438,2.361,-269.592,-238.281,36.926, , , , , , ,-3.598,-7.114,-119.811
 12:21:39.062,eb:33:2e:f9:57:b5, 2015-01-01 00:07:55.490,-0.031,0.561,2.379,-267.395,-237.366,29.541, , , , , , ,-4.988,-8.306,-119.559
 12:21:39.062,eb:33:2e:f9:57:b5, 2015-01-01 00:07:55.490,-0.087,0.683,2.375,-265.198,-236.206,20.813, , , , , , ,-6.356,-9.47,-119.317
 12:21:39.062,eb:33:2e:f9:57:b5, 2015-01-01 00:07:55.490,-0.15,0.811,2.368,-262.39,-234.619,11.169, , , , , , ,-7.712,-10.629,-119.092
 12:21:39.062,eb:33:2e:f9:57:b5, 2015-01-01 00:07:55.490,-0.236,0.939,2.379,-258.24,-231.934,0.916, , , , , , ,-9.053,-11.777,-118.894
 12:21:39.062,eb:33:2e:f9:57:b5, 2015-01-01 00:07:55.490,-0.335,1.062,2.408,-251.953,-227.905,-9.521, , , , , , ,-10.377,-12.931,-118.724
 12:21:39.129,eb:33:2e:f9:57:b5, 2015-01-01 00:07:55.490,-0.428,1.183,2.451,-243.286,-222.168,-19.775, , , , , , ,-11.646,-14.046,-118.581
 12:21:39.129,eb:33:2e:f9:57:b5, 2015-01-01 00:07:55.490,-0.513,1.304,2.501,-232.483,-213.196,-29.541, , , , , , ,-12.859,-15.134,-118.471
 12:21:39.129,eb:33:2e:f9:57:b5, 2015-01-01 00:07:55.490,-0.602,1.419,2.529,-220.093,-200.195,-38.269, , , , , , ,-14.008,-16.177,-118.4
 12:21:39.129,eb:33:2e:f9:57:b5, 2015-01-01 00:07:55.490,-0.734,1.507,2.517,-206.665,-184.082,-45.105, , , , , , ,-15.09,-17.166,-118.367
 12:21:39.129,eb:33:2e:f9:57:b5, 2015-01-01 00:07:55.490,-0.841,1.558,2.432,-191.833,-168.64,-50.11, , , , , , ,-16.078,-18.073,-118.361
 12:21:39.129,eb:33:2e:f9:57:b5, 2015-01-01 00:07:55.490,-0.979,1.601,2.333,-176.819,-153.748,-52.917, , , , , , ,-16.985,-18.913,-118.383
 12:21:39.130,eb:33:2e:f9:57:b5, 2015-01-01 00:07:55.490,-1.132,1.65,2.21,-163.269,-139.709,-51.819, , , , , , ,-17.82,-19.688,-118.422
 12:21:39.130,eb:33:2e:f9:57:b5, 2015-01-01 00:07:55.490,-1.242,1.705,2.128,-149.475,-128.174,-47.791, , , , , , ,-18.594,-20.402,-118.449
 12:21:39.152,eb:33:2e:f9:57:b5, 2015-01-01 00:07:55.490,-1.348,1.741,2.064,-135.071,-116.76,-41.077, , , , , , ,-19.297,-21.05,-118.46
 12:21:39.152,eb:33:2e:f9:57:b5, 2015-01-01 00:07:55.490,-1.448,1.789,1.968,-119.812,-104.37,-31.799, , , , , , ,-19.929,-21.627,-118.444
 12:21:39.152,eb:33:2e:f9:57:b5, 2015-01-01 00:07:55.490,-1.508,1.892,1.869,-102.722,-91.797,-20.996, , , , , , ,-20.5,-22.126,-118.394
 12:21:39.152,eb:33:2e:f9:57:b5, 2015-01-01 00:07:55.490,-1.542,2.022,1.83,-82.581,-78.43,-9.827, , , , , , ,-20.995,-22.549,-118.301
 12:21:39.153,eb:33:2e:f9:57:b5, 2015-01-01 00:07:55.490,-1.569,2.132,1.826,-59.265,-63.721,1.099, , , , , , ,-21.385,-22.879,-118.18
 12:21:39.153,eb:33:2e:f9:57:b5, 2015-01-01 00:07:55.490,-1.592,2.211,1.807,-33.813,-48.279,11.719, , , , , , ,-21.665,-23.121,-118.037
 12:21:39.153,eb:33:2e:f9:57:b5, 2015-01-01 00:07:55.490,-1.605,2.254,1.747,-8.118,-33.508,21.912, , , , , , ,-21.824,-23.269,-117.867
 12:21:39.153,eb:33:2e:f9:57:b5, 2015-01-01 00:07:55.490,-1.596,2.253,1.683,16.296,-20.447,31.433, , , , , , ,-21.868,-23.34,-117.675
 12:21:39.175,eb:33:2e:f9:57:b5, 2015-01-01 00:07:55.490,-1.506,2.195,1.643,37.964,-8.118,40.588, , , , , , ,-21.808,-23.335,-117.46
 12:21:39.175,eb:33:2e:f9:57:b5, 2015-01-01 00:07:55.490,-1.227,2.08,1.818,85.571,3.418,18.738, , , , , , ,-21.599,-23.275,-117.263
 12:21:39.175,eb:33:2e:f9:57:b5, 2015-01-01 00:07:55.490,-2.278,0.34,9.076,182.434,213.013,57.068, , , , , , ,-20.753,-22.599,-117.383
 12:21:39.175,eb:33:2e:f9:57:b5, 2015-01-01 00:07:55.490,0.477,2.24,2.85,191.589,289.734,92.041, , , , , , ,-19.786,-21.275,-117.455
 12:21:39.175,eb:33:2e:f9:57:b5, 2015-01-01 00:07:55.490,0.923,1.724,1.903,184.631,368.286,66.956, , , , , , ,-18.765,-19.578,-117.669
 12:21:39.175,eb:33:2e:f9:57:b5, 2015-01-01 00:07:55.490,0.378,0.1,0.934,166.87,408.936,72.51, , , , , , ,-17.798,-17.578,-117.977
 12:21:39.175,eb:33:2e:f9:57:b5, 2015-01-01 00:07:55.490,0.535,0.24,1.316,145.142,418.335,76.599, , , , , , ,-16.946,-15.48,-118.251
 12:21:39.175,eb:33:2e:f9:57:b5, 2015-01-01 00:07:55.490,-0.706,-0.387,1.217,122.559,405.273,77.942, , , , , , ,-16.238,-13.392,-118.471
 12:21:39.221,eb:33:2e:f9:57:b5, 2015-01-01 00:07:55.490,-0.468,-1.904,0.164,153.992,310.791,91.675, , , , , , ,-15.524,-11.591,-118.51
 12:21:39.221,eb:33:2e:f9:57:b5, 2015-01-01 00:07:55.490,-0.646,-0.934,0.656,182.983,246.582,87.158, , , , , , ,-14.683,-10.162,-118.438
 12:21:39.221,eb:33:2e:f9:57:b5, 2015-01-01 00:07:55.490,-0.813,-0.866,0.466,211.67,199.463,83.923, , , , , , ,-13.7,-9.003,-118.284
 12:21:39.221,eb:33:2e:f9:57:b5, 2015-01-01 00:07:55.490,-0.861,-0.339,0.698,223.389,164.368,80.505, , , , , , ,-12.629,-8.042,-118.087
 12:21:39.221,eb:33:2e:f9:57:b5, 2015-01-01 00:07:55.490,-0.637,-0.183,0.87,222.29,131.775,72.754, , , , , , ,-11.541,-7.262,-117.867
 12:21:39.221,eb:33:2e:f9:57:b5, 2015-01-01 00:07:55.490,-0.506,0.036,1.186,207.581,107.117,62.134, , , , , , ,-10.497,-6.625,-117.653
 12:21:39.221,eb:33:2e:f9:57:b5, 2015-01-01 00:07:55.490,-0.433,0.169,1.134,189.453,81.604,50.537, , , , , , ,-9.536,-6.125,-117.455
 12:21:39.221,eb:33:2e:f9:57:b5, 2015-01-01 00:07:55.490,-0.257,0.23,1.087,172.485,59.387,39.368, , , , , , ,-8.652,-5.757,-117.296
 12:21:39.288,eb:33:2e:f9:57:b5, 2015-01-01 00:07:55.490,-0.101,0.139,1.011,160.339,49.377,34.119, , , , , , ,-7.844,-5.471,-117.153
 12:21:39.288,eb:33:2e:f9:57:b5, 2015-01-01 00:07:55.490,0.137,0.031,1.009,150.085,45.593,37.476, , , , , , ,-7.086,-5.219,-117.01
 12:21:39.288,eb:33:2e:f9:57:b5, 2015-01-01 00:07:55.490,0.2,0.152,1.238,132.263,50.72,47.363, , , , , , ,-6.405,-4.949,-116.818
 12:21:39.288,eb:33:2e:f9:57:b5, 2015-01-01 00:07:55.490,0.158,0.091,1.205,117.31,57.739,52.612, , , , , , ,-5.806,-4.653,-116.592
 12:21:39.288,eb:33:2e:f9:57:b5, 2015-01-01 00:07:55.490,-0.008,0.047,1.104,106.934,63.049,55.176, , , , , , ,-5.268,-4.323,-116.351
 12:21:39.288,eb:33:2e:f9:57:b5, 2015-01-01 00:07:55.490,-0.109,0.112,1.087,93.994,58.35,59.326, , , , , , ,-4.79,-3.994,-116.087
 12:21:39.288,eb:33:2e:f9:57:b5, 2015-01-01 00:07:55.490,-0.006,0.382,1.062,77.515,48.523,57.556, , , , , , ,-4.384,-3.713,-115.812
 12:21:39.288,eb:33:2e:f9:57:b5, 2015-01-01 00:07:55.490,-0.09,0.343,1.064,64.27,47.852,49.377, , , , , , ,-4.048,-3.455,-115.565
 12:21:39.311,eb:33:2e:f9:57:b5, 2015-01-01 00:07:55.490,-0.077,0.398,1.024,49.5,44.861,39.062, , , , , , ,-3.785,-3.208,-115.362
 12:21:39.311,eb:33:2e:f9:57:b5, 2015-01-01 00:07:55.490,-0.045,0.28,0.995,39.062,41.077,30.701, , , , , , ,-3.582,-2.988,-115.208
 12:21:39.311,eb:33:2e:f9:57:b5, 2015-01-01 00:07:55.490,-0.087,0.152,1.004,32.227,41.443,25.452, , , , , , ,-3.411,-2.774,-115.082
 12:21:39.311,eb:33:2e:f9:57:b5, 2015-01-01 00:07:55.490,-0.043,0.076,0.959,27.466,38.513,22.461, , , , , , ,-3.268,-2.565,-114.977
 12:21:39.311,eb:33:2e:f9:57:b5, 2015-01-01 00:07:55.490,-0.074,0.038,0.977,24.597,37.109,20.02, , , , , , ,-3.142,-2.373,-114.884
 12:21:39.311,eb:33:2e:f9:57:b5, 2015-01-01 00:07:55.490,-0.086,0.089,0.952,20.203,29.968,18.127, , , , , , ,-3.038,-2.203,-114.796
 12:21:39.311,eb:33:2e:f9:57:b5, 2015-01-01 00:07:55.490,-0.145,0.154,0.925,14.343,22.583,12.695, , , , , , ,-2.955,-2.065,-114.725
 12:21:39.311,eb:33:2e:f9:57:b5, 2015-01-01 00:07:55.490,-0.009,0.032,0.909,12.39,13.611,8.179, , , , , , ,-2.889,-1.983,-114.681
 12:21:39.378,eb:33:2e:f9:57:b5, 2015-01-01 00:07:55.490,0.058,-0.044,1.022,14.221,13.916,5.859, , , , , , ,-2.823,-1.917,-114.653
 12:21:39.378,eb:33:2e:f9:57:b5, 2015-01-01 00:07:55.490,0.057,-0.061,1.036,15.137,15.381,5.798, , , , , , ,-2.752,-1.84,-114.626
 12:21:39.378,eb:33:2e:f9:57:b5, 2015-01-01 00:07:55.490,-0.005,0.006,1.028,13.977,17.151,5.371, , , , , , ,-2.681,-1.758,-114.604
 12:21:39.378,eb:33:2e:f9:57:b5, 2015-01-01 00:07:55.490,-0.003,0.015,0.987,12.268,16.418,4.395, , , , , , ,-2.609,-1.67,-114.582
 12:21:39.378,eb:33:2e:f9:57:b5, 2015-01-01 00:07:55.490,0.025,0.002,0.978,10.925,15.198,3.906, , , , , , ,-2.554,-1.593,-114.56
 12:21:39.378,eb:33:2e:f9:57:b5, 2015-01-01 00:07:55.490,0.015,0.007,0.994,9.583,15.381,3.113, , , , , , ,-2.505,-1.516,-114.549
 12:21:39.378,eb:33:2e:f9:57:b5, 2015-01-01 00:07:55.490,0.014,-0.018,0.993,9.216,15.564,3.235, , , , , , ,-2.461,-1.439,-114.532
 12:21:39.378,eb:33:2e:f9:57:b5, 2015-01-01 00:07:55.490,-0.002,-0.027,1.006,9.155,15.564,3.113, , , , , , ,-2.411,-1.357,-114.521
 12:21:39.378,eb:33:2e:f9:57:b5, 2015-01-01 00:07:55.490,-0.011,-0.025,1,9.277,14.709,2.502, , , , , , ,-2.368,-1.28,-114.51
 12:21:39.378,eb:33:2e:f9:57:b5, 2015-01-01 00:07:55.490,-0.021,-0.021,0.992,9.338,13.672,1.526, , , , , , ,-2.318,-1.214,-114.505
 12:21:39.378,eb:33:2e:f9:57:b5, 2015-01-01 00:07:55.490,-0.006,-0.015,0.975,8.85,11.902,0.916, , , , , , ,-2.274,-1.148,-114.5
 12:21:39.379,eb:33:2e:f9:57:b5, 2015-01-01 00:07:55.490,-0.007,-0.011,0.983,8.484,10.803,0.488, , , , , , ,-2.225,-1.093,-114.494
 12:21:39.379,eb:33:2e:f9:57:b5, 2015-01-01 00:07:55.490,0.005,-0.007,0.982,7.812,9.766,0, , , , , , ,-2.186,-1.038,-114.494
 12:21:39.379,eb:33:2e:f9:57:b5, 2015-01-01 00:07:55.490,0.006,-0.007,0.99,7.141,9.155,-0.671, , , , , , ,-2.148,-0.994,-114.5
 12:21:39.379,eb:33:2e:f9:57:b5, 2015-01-01 00:07:55.490,0.002,-0.014,0.998,6.836,9.155,-0.732, , , , , , ,-2.115,-0.95,-114.505
 12:21:39.379,eb:33:2e:f9:57:b5, 2015-01-01 00:07:55.490,-0.005,-0.019,0.997,6.653,8.85,-1.099, , , , , , ,-2.076,-0.901,-114.51
 12:21:39.422,eb:33:2e:f9:57:b5, 2015-01-01 00:07:55.825,-0.012,-0.022,0.994,6.409,8.179,-1.221, , , , , , ,-2.043,-0.862,-114.516
 12:21:39.422,eb:33:2e:f9:57:b5, 2015-01-01 00:07:55.825,-0.008,-0.025,0.989,6.165,7.263,-1.099, , , , , , ,-2.016,-0.824,-114.521
 12:21:39.422,eb:33:2e:f9:57:b5, 2015-01-01 00:07:55.825,0.006,-0.026,0.996,6.042,6.592,-0.977, , , , , , ,-1.983,-0.791,-114.527
 12:21:39.422,eb:33:2e:f9:57:b5, 2015-01-01 00:07:55.825,0.004,-0.025,1.011,5.92,7.08,-0.488, , , , , , ,-1.95,-0.753,-114.532
 12:21:39.422,eb:33:2e:f9:57:b5, 2015-01-01 00:07:55.825,0.024,-0.018,1.007,6.042,7.202,-0.549, , , , , , ,-1.923,-0.72,-114.538
 12:21:39.422,eb:33:2e:f9:57:b5, 2015-01-01 00:07:55.825,0.016,-0.016,1.027,6.287,7.935,-1.099, , , , , , ,-1.89,-0.681,-114.543
 12:21:39.422,eb:33:2e:f9:57:b5, 2015-01-01 00:07:55.825,0.021,-0.015,1.013,6.226,8.728,-1.221, , , , , , ,-1.857,-0.637,-114.549
 12:21:39.422,eb:33:2e:f9:57:b5, 2015-01-01 00:07:55.825,0.022,-0.008,1.008,5.92,9.766,-1.282, , , , , , ,-1.824,-0.593,-114.554
 12:21:39.467,eb:33:2e:f9:57:b5, 2015-01-01 00:07:55.825,0.018,-0.009,1.011,5.737,10.498,-1.221, , , , , , ,-1.796,-0.538,-114.565
 12:21:39.467,eb:33:2e:f9:57:b5, 2015-01-01 00:07:55.825,0.004,-0.003,1.007,5.554,11.047,-1.526, , , , , , ,-1.769,-0.489,-114.571
 12:21:39.467,eb:33:2e:f9:57:b5, 2015-01-01 00:07:55.825,0.012,-0.01,0.995,5.371,10.986,-1.221, , , , , , ,-1.741,-0.434,-114.582
 12:21:39.467,eb:33:2e:f9:57:b5, 2015-01-01 00:07:55.825,0.008,0,0.997,5.066,11.23,-1.221, , , , , , ,-1.708,-0.379,-114.587
 12:21:39.467,eb:33:2e:f9:57:b5, 2015-01-01 00:07:55.825,0.002,-0.003,0.994,4.639,11.719,-1.282, , , , , , ,-1.686,-0.319,-114.593
 12:21:39.467,eb:33:2e:f9:57:b5, 2015-01-01 00:07:55.825,0.005,-0.006,0.992,4.15,11.719,-1.282, , , , , , ,-1.664,-0.264,-114.604
 12:21:39.467,eb:33:2e:f9:57:b5, 2015-01-01 00:07:55.825,-0.002,-0.003,0.993,3.601,11.902,-1.343, , , , , , ,-1.648,-0.203,-114.609
 12:21:39.467,eb:33:2e:f9:57:b5, 2015-01-01 00:07:55.825,0.004,-0.003,0.994,3.357,11.597,-1.343, , , , , , ,-1.626,-0.143,-114.615
 12:21:39.535,eb:33:2e:f9:57:b5, 2015-01-01 00:07:55.825,-0.021,-0.005,1,3.235,12.268,-1.709, , , , , , ,-1.609,-0.082,-114.626
 12:21:39.535,eb:33:2e:f9:57:b5, 2015-01-01 00:07:55.825,-0.013,-0.018,0.983,3.296,11.292,-1.526, , , , , , ,-1.593,-0.027,-114.637
 12:21:39.535,eb:33:2e:f9:57:b5, 2015-01-01 00:07:55.825,-0.014,-0.005,0.983,3.113,10.864,-1.465, , , , , , ,-1.577,0.022,-114.642
 12:21:39.535,eb:33:2e:f9:57:b5, 2015-01-01 00:07:55.825,-0.028,-0.016,0.988,3.235,10.376,-1.648, , , , , , ,-1.555,0.077,-114.653
 12:21:39.535,eb:33:2e:f9:57:b5, 2015-01-01 00:07:55.825,-0.014,-0.016,0.981,3.357,9.216,-1.404, , , , , , ,-1.538,0.126,-114.659
 12:21:39.535,eb:33:2e:f9:57:b5, 2015-01-01 00:07:55.825,-0.005,-0.006,0.982,3.174,8.484,-1.465, , , , , , ,-1.527,0.17,-114.67
 12:21:39.536,eb:33:2e:f9:57:b5, 2015-01-01 00:07:55.825,0,-0.011,0.991,2.808,8.728,-1.282, , , , , , ,-1.511,0.209,-114.675
 12:21:39.536,eb:33:2e:f9:57:b5, 2015-01-01 00:07:55.825,-0.005,-0.003,1.005,3.052,8.545,-1.648, , , , , , ,-1.489,0.253,-114.686
 12:21:39.538,eb:33:2e:f9:57:b5, 2015-01-01 00:07:55.825,0,-0.005,0.999,2.93,9.155,-1.709, , , , , , ,-1.478,0.297,-114.692
 12:21:39.538,eb:33:2e:f9:57:b5, 2015-01-01 00:07:55.825,0.006,0.003,1,2.808,9.521,-1.831, , , , , , ,-1.461,0.346,-114.703
 12:21:39.538,eb:33:2e:f9:57:b5, 2015-01-01 00:07:55.825,0.006,0.004,0.995,2.686,8.118,-3.601, , , , , , ,-1.45,0.39,-114.719
 12:21:39.538,eb:33:2e:f9:57:b5, 2015-01-01 00:07:55.825,0.015,-0.013,1.011,2.93,10.01,-2.075, , , , , , ,-1.428,0.434,-114.73
 12:21:39.538,eb:33:2e:f9:57:b5, 2015-01-01 00:07:55.825,-0.006,0,1.017,3.174,11.23,-2.502, , , , , , ,-1.417,0.489,-114.741
 12:21:39.538,eb:33:2e:f9:57:b5, 2015-01-01 00:07:55.825,-0.029,0,0.998,3.235,11.108,-2.991, , , , , , ,-1.401,0.544,-114.758
 12:21:39.538,eb:33:2e:f9:57:b5, 2015-01-01 00:07:55.825,0.027,-0.005,0.997,3.723,8.972,-3.662, , , , , , ,-1.384,0.588,-114.78
 12:21:39.538,eb:33:2e:f9:57:b5, 2015-01-01 00:07:55.825,0.006,0.017,1.014,3.601,10.986,-4.822, , , , , , ,-1.362,0.643,-114.796
 12:21:39.602,eb:33:2e:f9:57:b5, 2015-01-01 00:07:55.825,0.026,-0.005,1.02,4.272,11.169,-5.493, , , , , , ,-1.34,0.698,-114.829
 12:21:39.602,eb:33:2e:f9:57:b5, 2015-01-01 00:07:55.825,0.026,0.021,1.015,4.578,12.329,-6.714, , , , , , ,-1.318,0.758,-114.857
 12:21:39.603,eb:33:2e:f9:57:b5, 2015-01-01 00:07:55.825,0.027,0.012,1.043,5.066,14.526,-7.935, , , , , , ,-1.296,0.824,-114.895
 12:21:39.603,eb:33:2e:f9:57:b5, 2015-01-01 00:07:55.825,0.034,0.007,1.041,5.676,16.724,-8.911, , , , , , ,-1.263,0.901,-114.939
 12:21:39.603,eb:33:2e:f9:57:b5, 2015-01-01 00:07:55.825,-0.002,0.028,1.017,5.676,18.738,-10.254, , , , , , ,-1.236,0.989,-114.988
 12:21:39.603,eb:33:2e:f9:57:b5, 2015-01-01 00:07:55.825,0.011,0.015,0.996,5.676,18.188,-11.719, , , , , , ,-1.208,1.082,-115.049
 12:21:39.603,eb:33:2e:f9:57:b5, 2015-01-01 00:07:55.825,0.001,0.021,1.002,6.042,19.714,-11.902, , , , , , ,-1.181,1.181,-115.109
 12:21:39.603,eb:33:2e:f9:57:b5, 2015-01-01 00:07:55.825,-0.011,0.014,1.004,6.165,20.02,-12.634, , , , , , ,-1.148,1.28,-115.17
 12:21:39.625,eb:33:2e:f9:57:b5, 2015-01-01 00:07:55.825,-0.021,0.007,0.999,6.104,20.447,-12.817, , , , , , ,-1.121,1.379,-115.236
 12:21:39.625,eb:33:2e:f9:57:b5, 2015-01-01 00:07:55.825,-0.037,-0.001,1.015,6.287,20.63,-12.817, , , , , , ,-1.093,1.478,-115.302
 12:21:39.625,eb:33:2e:f9:57:b5, 2015-01-01 00:07:55.825,-0.024,-0.014,1.012,6.714,20.447,-12.573, , , , , , ,-1.06,1.582,-115.367
 12:21:39.625,eb:33:2e:f9:57:b5, 2015-01-01 00:07:55.825,-0.067,-0.008,1.024,7.324,20.691,-12.634, , , , , , ,-1.022,1.686,-115.428
 12:21:39.625,eb:33:2e:f9:57:b5, 2015-01-01 00:07:55.825,-0.068,-0.028,1.009,7.996,19.897,-12.024, , , , , , ,-0.989,1.785,-115.494
 12:21:39.625,eb:33:2e:f9:57:b5, 2015-01-01 00:07:55.825,-0.086,-0.038,1.039,9.399,19.226,-11.414, , , , , , ,-0.945,1.879,-115.549
 12:21:39.625,eb:33:2e:f9:57:b5, 2015-01-01 00:07:55.825,-0.087,-0.051,1.051,12.085,17.273,-10.803, , , , , , ,-0.895,1.972,-115.609
 12:21:39.625,eb:33:2e:f9:57:b5, 2015-01-01 00:07:55.825,-0.093,-0.076,1.1,15.991,15.381,-10.132, , , , , , ,-0.818,2.049,-115.659
 12:21:39.671,eb:33:2e:f9:57:b5, 2015-01-01 00:07:55.825,-0.068,-0.059,1.06,19.653,12.268,-9.644, , , , , , ,-0.731,2.115,-115.708
 12:21:39.671,eb:33:2e:f9:57:b5, 2015-01-01 00:07:55.825,-0.067,-0.037,1.052,22.156,10.62,-9.46, , , , , , ,-0.626,2.17,-115.757
 12:21:39.671,eb:33:2e:f9:57:b5, 2015-01-01 00:07:55.825,-0.062,-0.028,1.04,24.658,8.423,-8.911, , , , , , ,-0.511,2.219,-115.801
 12:21:39.671,eb:33:2e:f9:57:b5, 2015-01-01 00:07:55.825,-0.086,-0.038,1.074,26.733,7.446,-9.033, , , , , , ,-0.379,2.258,-115.845
 12:21:39.671,eb:33:2e:f9:57:b5, 2015-01-01 00:07:55.825,-0.083,-0.057,1.082,29.175,6.531,-8.057, , , , , , ,-0.236,2.291,-115.889
 12:21:39.671,eb:33:2e:f9:57:b5, 2015-01-01 00:07:55.825,-0.087,-0.052,1.104,31.982,5.554,-7.385, , , , , , ,-0.088,2.324,-115.928
 12:21:39.672,eb:33:2e:f9:57:b5, 2015-01-01 00:07:55.825,-0.055,-0.066,1.126,35.583,4.456,-6.287, , , , , , ,0.077,2.346,-115.961
 12:21:39.672,eb:33:2e:f9:57:b5, 2015-01-01 00:07:55.825,-0.027,-0.056,1.165,38.452,5.249,-5.31, , , , , , ,0.269,2.373,-115.988
 12:21:39.715,eb:33:2e:f9:57:b5, 2015-01-01 00:07:55.825,0,-0.055,1.253,40.649,8.972,-3.906, , , , , , ,0.467,2.406,-116.01
 12:21:39.715,eb:33:2e:f9:57:b5, 2015-01-01 00:07:55.825,0.025,-0.096,1.403,46.936,15.869,-2.93, , , , , , ,0.681,2.472,-116.027
 12:21:39.715,eb:33:2e:f9:57:b5, 2015-01-01 00:07:55.825,0.046,-0.071,1.383,53.589,19.836,-3.845, , , , , , ,0.934,2.565,-116.043
 12:21:39.715,eb:33:2e:f9:57:b5, 2015-01-01 00:07:55.825,0.016,-0.063,1.437,59.326,25.757,-4.089, , , , , , ,1.225,2.681,-116.06
 12:21:39.715,eb:33:2e:f9:57:b5, 2015-01-01 00:07:55.825,0.038,-0.068,1.422,66.833,29.358,-4.822, , , , , , ,1.544,2.823,-116.076
 12:21:39.715,eb:33:2e:f9:57:b5, 2015-01-01 00:07:55.825,0.022,-0.045,1.402,74.524,31.921,-6.531, , , , , , ,1.895,2.977,-116.098
 12:21:39.715,eb:33:2e:f9:57:b5, 2015-01-01 00:07:55.825,0.008,-0.053,1.392,82.52,33.569,-7.324, , , , , , ,2.291,3.142,-116.131
 12:21:39.715,eb:33:2e:f9:57:b5, 2015-01-01 00:07:55.825,-0.029,-0.068,1.397,90.82,34.973,-8.362, , , , , , ,2.73,3.318,-116.158
 12:21:39.737,eb:33:2e:f9:57:b5, 2015-01-01 00:07:56.205,-0.056,-0.09,1.41,99.487,36.133,-8.667, , , , , , ,3.208,3.499,-116.191
 12:21:39.737,eb:33:2e:f9:57:b5, 2015-01-01 00:07:56.205,-0.037,-0.117,1.454,109.253,36.926,-8.606, , , , , , ,3.73,3.686,-116.224
 12:21:39.737,eb:33:2e:f9:57:b5, 2015-01-01 00:07:56.205,-0.002,-0.079,1.438,119.507,35.889,-8.85, , , , , , ,4.307,3.867,-116.257
 12:21:39.737,eb:33:2e:f9:57:b5, 2015-01-01 00:07:56.205,-0.021,-0.048,1.386,129.944,34.302,-10.62, , , , , , ,4.938,4.048,-116.29
 12:21:39.737,eb:33:2e:f9:57:b5, 2015-01-01 00:07:56.205,-0.033,-0.073,1.408,139.465,34.912,-11.292, , , , , , ,5.614,4.224,-116.329
 12:21:39.738,eb:33:2e:f9:57:b5, 2015-01-01 00:07:56.205,-0.024,-0.095,1.435,149.109,35.522,-11.475, , , , , , ,6.334,4.406,-116.367
 12:21:39.738,eb:33:2e:f9:57:b5, 2015-01-01 00:07:56.205,-0.033,-0.108,1.495,159.18,36.682,-11.597, , , , , , ,7.108,4.592,-116.406
 12:21:39.738,eb:33:2e:f9:57:b5, 2015-01-01 00:07:56.205,-0.034,-0.116,1.518,168.091,39.246,-10.437, , , , , , ,7.932,4.79,-116.433
 12:21:39.782,eb:33:2e:f9:57:b5, 2015-01-01 00:07:56.205,-0.029,-0.117,1.619,178.65,42.542,-10.132, , , , , , ,8.8,4.999,-116.455
 12:21:39.782,eb:33:2e:f9:57:b5, 2015-01-01 00:07:56.205,-0.022,-0.152,1.668,188.66,46.509,-8.667, , , , , , ,9.723,5.229,-116.461
 12:21:39.782,eb:33:2e:f9:57:b5, 2015-01-01 00:07:56.205,0.015,-0.201,1.713,200.928,50.598,-7.751, , , , , , ,10.701,5.477,-116.455
 12:21:39.782,eb:33:2e:f9:57:b5, 2015-01-01 00:07:56.205,0.075,-0.166,1.801,214.661,55.176,-8.118, , , , , , ,11.75,5.746,-116.444
 12:21:39.782,eb:33:2e:f9:57:b5, 2015-01-01 00:07:56.205,0.139,-0.176,1.917,231.079,60.364,-10.498, , , , , , ,12.876,6.037,-116.428
 12:21:39.782,eb:33:2e:f9:57:b5, 2015-01-01 00:07:56.205,0.169,-0.168,1.94,247.009,67.81,-12.756, , , , , , ,14.079,6.367,-116.406
 12:21:39.782,eb:33:2e:f9:57:b5, 2015-01-01 00:07:56.205,0.22,-0.145,2.033,264.771,75.073,-16.052, , , , , , ,15.364,6.735,-116.389
 12:21:39.782,eb:33:2e:f9:57:b5, 2015-01-01 00:07:56.205,0.196,-0.142,2.153,285.034,79.651,-20.447, , , , , , ,16.754,7.136,-116.367
 12:21:39.827,eb:33:2e:f9:57:b5, 2015-01-01 00:07:56.205,0.28,-0.232,2.211,305.42,81.97,-24.353, , , , , , ,18.243,7.559,-116.356
 12:21:39.827,eb:33:2e:f9:57:b5, 2015-01-01 00:07:56.205,0.447,-0.202,2.511,327.759,89.966,-28.687, , , , , , ,19.836,8.009,-116.34
 12:21:39.827,eb:33:2e:f9:57:b5, 2015-01-01 00:07:56.205,0.466,-0.181,2.564,350.647,99.487,-35.95, , , , , , ,21.544,8.514,-116.323
 12:21:39.827,eb:33:2e:f9:57:b5, 2015-01-01 00:07:56.205,0.48,-0.097,2.699,366.882,111.633,-41.26, , , , , , ,23.357,9.08,-116.301
 12:21:39.828,eb:33:2e:f9:57:b5, 2015-01-01 00:07:56.205,0.355,-0.143,2.978,378.967,134.338,-46.875, , , , , , ,25.236,9.734,-116.252
 12:21:39.828,eb:33:2e:f9:57:b5, 2015-01-01 00:07:56.205,0.41,-0.195,2.949,388,154.175,-47.058, , , , , , ,27.18,10.503,-116.131
 12:21:39.828,eb:33:2e:f9:57:b5, 2015-01-01 00:07:56.205,0.566,0.046,2.793,405.823,152.954,-55.786, , , , , , ,29.196,11.305,-115.994
 12:21:39.828,eb:33:2e:f9:57:b5, 2015-01-01 00:07:56.205,0.4,-0.132,2.774,419.617,157.898,-59.387, , , , , , ,31.295,12.118,-115.851
 12:21:39.873,eb:33:2e:f9:57:b5, 2015-01-01 00:07:56.205,0.447,-0.194,2.739,437.378,153.503,-62.622, , , , , , ,33.481,12.947,-115.681
 12:21:39.873,eb:33:2e:f9:57:b5, 2015-01-01 00:07:56.205,0.409,-0.038,2.42,445.129,133.24,-68.97, , , , , , ,35.728,13.716,-115.554
 12:21:39.873,eb:33:2e:f9:57:b5, 2015-01-01 00:07:56.205,0.532,-0.282,3.058,445.801,136.78,-68.054, , , , , , ,37.985,14.458,-115.417
 12:21:39.873,eb:33:2e:f9:57:b5, 2015-01-01 00:07:56.205,0.63,-0.254,2.906,450.012,139.038,-75.378, , , , , , ,40.265,15.216,-115.263
 12:21:39.873,eb:33:2e:f9:57:b5, 2015-01-01 00:07:56.205,0.71,-0.212,2.69,450.134,141.052,-78.43, , , , , , ,42.567,16.002,-115.071
 12:21:39.873,eb:33:2e:f9:57:b5, 2015-01-01 00:07:56.205,0.854,-0.271,2.499,449.951,136.841,-87.524, , , , , , ,44.868,16.787,-114.89
 12:21:39.873,eb:33:2e:f9:57:b5, 2015-01-01 00:07:56.205,0.776,-0.572,2.706,440.674,153.931,-90.637, , , , , , ,47.153,17.622,-114.67
 12:21:39.873,eb:33:2e:f9:57:b5, 2015-01-01 00:07:56.205,0.951,-1.023,2.744,440.735,170.593,-92.041, , , , , , ,49.444,18.506,-114.346
 12:21:39.940,eb:33:2e:f9:57:b5, 2015-01-01 00:07:56.205,1.277,-1.375,2.659,450.073,185.791,-98.083, , , , , , ,51.812,19.44,-113.934
 12:21:39.940,eb:33:2e:f9:57:b5, 2015-01-01 00:07:56.205,1.483,-1.826,2.347,460.938,203.43,-102.234, , , , , , ,54.267,20.435,-113.417
 12:21:39.940,eb:33:2e:f9:57:b5, 2015-01-01 00:07:56.205,1.624,-1.672,2.212,479.248,225.281,-113.647, , , , , , ,56.843,21.495,-112.791
 12:21:39.940,eb:33:2e:f9:57:b5, 2015-01-01 00:07:56.205,1.512,-1.688,2.054,513.306,245.422,-131.531, , , , , , ,59.606,22.637,-112.061
 12:21:39.940,eb:33:2e:f9:57:b5, 2015-01-01 00:07:56.205,0.807,-1.142,0.913,499.084,254.456,-148.926, , , , , , ,62.49,23.868,-111.237
 12:21:39.940,eb:33:2e:f9:57:b5, 2015-01-01 00:07:56.205,-0.006,-0.248,-0.844,409.302,230.774,-153.015, , , , , , ,65.083,25.093,-110.396
 12:21:39.940,eb:33:2e:f9:57:b5, 2015-01-01 00:07:56.205,-0.147,-0.02,-2.363,271.912,173.706,-143.372, , , , , , ,67.017,26.175,-109.726
 12:21:39.940,eb:33:2e:f9:57:b5, 2015-01-01 00:07:56.205,-0.061,-0.423,-2.495,121.704,114.136,-124.084, , , , , , ,68.104,27.043,-109.303
 12:21:39.942,eb:33:2e:f9:57:b5, 2015-01-01 00:07:56.205,0.249,-0.775,-1.962,-17.578,56.152,-102.722, , , , , , ,68.368,27.702,-109.127
 12:21:39.942,eb:33:2e:f9:57:b5, 2015-01-01 00:07:56.205,0.431,-0.949,-0.957,-127.136,13.794,-84.412, , , , , , ,67.917,28.18,-109.16
 12:21:39.942,eb:33:2e:f9:57:b5, 2015-01-01 00:07:56.205,0.474,-1.054,-0.123,-199.89,-14.893,-68.665, , , , , , ,66.962,28.521,-109.347
 12:21:39.942,eb:33:2e:f9:57:b5, 2015-01-01 00:07:56.205,0.54,-1.136,0.456,-236.938,-34.546,-56.824, , , , , , ,65.687,28.74,-109.638
 12:21:39.942,eb:33:2e:f9:57:b5, 2015-01-01 00:07:56.205,0.643,-1.169,0.902,-247.192,-42.786,-48.035, , , , , , ,64.303,28.883,-109.973
 12:21:39.942,eb:33:2e:f9:57:b5, 2015-01-01 00:07:56.205,0.67,-1.121,1.249,-240.295,-38.635,-41.809, , , , , , ,62.924,28.993,-110.286
 12:21:39.942,eb:33:2e:f9:57:b5, 2015-01-01 00:07:56.205,0.628,-0.974,1.353,-224.915,-28.625,-37.109, , , , , , ,61.639,29.086,-110.561
 12:21:39.943,eb:33:2e:f9:57:b5, 2015-01-01 00:07:56.205,0.521,-0.759,1.201,-208.74,-19.287,-33.02, , , , , , ,60.441,29.174,-110.781
 12:21:39.985,eb:33:2e:f9:57:b5, 2015-01-01 00:07:56.205,0.427,-0.561,0.838,-196.228,-17.395,-29.663, , , , , , ,59.354,29.268,-110.956
 12:21:39.985,eb:33:2e:f9:57:b5, 2015-01-01 00:07:56.205,0.364,-0.478,0.474,-189.758,-22.827,-24.841, , , , , , ,58.304,29.328,-111.132
 12:21:39.985,eb:33:2e:f9:57:b5, 2015-01-01 00:07:56.205,0.333,-0.497,0.201,-189.087,-33.081,-18.433, , , , , , ,57.261,29.344,-111.335
 12:21:39.985,eb:33:2e:f9:57:b5, 2015-01-01 00:07:56.205,0.327,-0.546,0.027,-193.665,-46.448,-10.559, , , , , , ,56.168,29.279,-111.588
 12:21:39.985,eb:33:2e:f9:57:b5, 2015-01-01 00:07:56.205,0.317,-0.571,-0.059,-203.186,-61.462,-2.075, , , , , , ,55.036,29.147,-111.868
 12:21:39.985,eb:33:2e:f9:57:b5, 2015-01-01 00:07:56.205,0.312,-0.586,-0.086,-216.37,-77.576,7.202, , , , , , ,53.822,28.927,-112.181
 12:21:39.985,eb:33:2e:f9:57:b5, 2015-01-01 00:07:56.205,0.326,-0.616,-0.057,-231.018,-93.567,16.907, , , , , , ,52.526,28.608,-112.538
 12:21:39.985,eb:33:2e:f9:57:b5, 2015-01-01 00:07:56.205,0.365,-0.645,0.037,-244.995,-107.788,26.245, , , , , , ,51.13,28.196,-112.928
 12:21:40.030,eb:33:2e:f9:57:b5, 2015-01-01 00:07:56.205,0.414,-0.658,0.148,-257.385,-119.873,35.156, , , , , , ,49.686,27.708,-113.318
 12:21:40.030,eb:33:2e:f9:57:b5, 2015-01-01 00:07:56.205,0.45,-0.648,0.286,-267.456,-129.15,43.274, , , , , , ,48.192,27.142,-113.698
 12:21:40.030,eb:33:2e:f9:57:b5, 2015-01-01 00:07:56.205,0.472,-0.629,0.409,-275.146,-136.536,50.049, , , , , , ,46.659,26.516,-114.071
 12:21:40.030,eb:33:2e:f9:57:b5, 2015-01-01 00:07:56.205,0.491,-0.602,0.506,-281.189,-142.944,55.786, , , , , , ,45.088,25.829,-114.434
 12:21:40.030,eb:33:2e:f9:57:b5, 2015-01-01 00:07:56.205,0.5,-0.563,0.588,-287.781,-150.208,61.218, , , , , , ,43.522,25.093,-114.769
 12:21:40.030,eb:33:2e:f9:57:b5, 2015-01-01 00:07:56.205,0.517,-0.527,0.628,-294.312,-156.25,64.697, , , , , , ,41.929,24.313,-115.087
 12:21:40.030,eb:33:2e:f9:57:b5, 2015-01-01 00:07:56.205,0.543,-0.489,0.667,-302.063,-161.804,66.956, , , , , , ,40.309,23.494,-115.389
 12:21:40.030,eb:33:2e:f9:57:b5, 2015-01-01 00:07:56.205,0.57,-0.448,0.721,-310.486,-166.626,67.993, , , , , , ,38.644,22.632,-115.686
 12:21:40.074,eb:33:2e:f9:57:b5, 2015-01-01 00:07:56.520,0.586,-0.409,0.783,-318.298,-171.326,67.383, , , , , , ,36.964,21.753,-115.955
 12:21:40.074,eb:33:2e:f9:57:b5, 2015-01-01 00:07:56.520,0.601,-0.368,0.836,-324.829,-176.208,65.308, , , , , , ,35.255,20.852,-116.219
 12:21:40.074,eb:33:2e:f9:57:b5, 2015-01-01 00:07:56.520,0.616,-0.328,0.899,-329.712,-180.969,61.951, , , , , , ,33.525,19.935,-116.477
 12:21:40.074,eb:33:2e:f9:57:b5, 2015-01-01 00:07:56.520,0.624,-0.292,0.975,-332.581,-185.486,57.495, , , , , , ,31.761,18.99,-116.752
 12:21:40.074,eb:33:2e:f9:57:b5, 2015-01-01 00:07:56.520,0.626,-0.257,1.059,-333.618,-189.575,52.124, , , , , , ,30.009,18.045,-117.015
 12:21:40.074,eb:33:2e:f9:57:b5, 2015-01-01 00:07:56.520,0.618,-0.218,1.137,-333.313,-193.115,45.837, , , , , , ,28.262,17.089,-117.279
 12:21:40.074,eb:33:2e:f9:57:b5, 2015-01-01 00:07:56.520,0.604,-0.169,1.201,-332.031,-196.655,39.062, , , , , , ,26.516,16.122,-117.554
 12:21:40.074,eb:33:2e:f9:57:b5, 2015-01-01 00:07:56.520,0.574,-0.123,1.263,-329.895,-200.439,31.555, , , , , , ,24.769,15.139,-117.85
 12:21:40.123,eb:33:2e:f9:57:b5, 2015-01-01 00:07:56.520,0.562,-0.07,1.327,-327.393,-204.773,23.926, , , , , , ,23.049,14.156,-118.147
 12:21:40.123,eb:33:2e:f9:57:b5, 2015-01-01 00:07:56.520,0.514,-0.013,1.413,-325.012,-209.167,15.869, , , , , , ,21.346,13.156,-118.455
 12:21:40.123,eb:33:2e:f9:57:b5, 2015-01-01 00:07:56.520,0.458,0.024,1.485,-322.815,-213.318,10.62, , , , , , ,19.655,12.14,-118.779
 12:21:40.123,eb:33:2e:f9:57:b5, 2015-01-01 00:07:56.520,0.431,0.044,1.563,-323.242,-217.59,2.869, , , , , , ,17.952,11.096,-119.119
 12:21:40.123,eb:33:2e:f9:57:b5, 2015-01-01 00:07:56.520,0.418,0.086,1.643,-324.463,-220.52,-2.563, , , , , , ,16.271,10.052,-119.449
 12:21:40.123,eb:33:2e:f9:57:b5, 2015-01-01 00:07:56.520,0.383,0.054,1.622,-325.745,-227.295,-8.24, , , , , , ,14.59,8.97,-119.778
 12:21:40.123,eb:33:2e:f9:57:b5, 2015-01-01 00:07:56.520,0.357,0.016,1.669,-327.271,-233.215,-11.902, , , , , , ,12.909,7.866,-120.108
 12:21:40.123,eb:33:2e:f9:57:b5, 2015-01-01 00:07:56.520,0.307,-0.015,1.756,-328.43,-237.732,-14.343, , , , , , ,11.206,6.707,-120.427
 12:21:40.143,eb:33:2e:f9:57:b5, 2015-01-01 00:07:56.520,0.229,-0.035,1.853,-328.674,-242.065,-15.198, , , , , , ,9.531,5.537,-120.723
 12:21:40.143,eb:33:2e:f9:57:b5, 2015-01-01 00:07:56.520,0.189,-0.062,1.931,-327.515,-247.437,-14.221, , , , , , ,7.872,4.34,-120.976
 12:21:40.143,eb:33:2e:f9:57:b5, 2015-01-01 00:07:56.520,0.143,-0.068,2.053,-325.378,-250.488,-12.207, , , , , , ,6.224,3.104,-121.196
 12:21:40.143,eb:33:2e:f9:57:b5, 2015-01-01 00:07:56.520,0.065,-0.058,2.163,-322.693,-251.648,-7.507, , , , , , ,4.576,1.84,-121.371
 12:21:40.143,eb:33:2e:f9:57:b5, 2015-01-01 00:07:56.520,0.004,-0.035,2.253,-319.214,-252.625,-2.197, , , , , , ,2.972,0.582,-121.476
 12:21:40.143,eb:33:2e:f9:57:b5, 2015-01-01 00:07:56.520,-0.062,0.005,2.337,-315.735,-253.784,3.967, , , , , , ,1.384,-0.676,-121.514
 12:21:40.143,eb:33:2e:f9:57:b5, 2015-01-01 00:07:56.520,-0.101,0.049,2.389,-312.561,-254.639,10.986, , , , , , ,-0.181,-1.95,-121.487
 12:21:40.143,eb:33:2e:f9:57:b5, 2015-01-01 00:07:56.520,-0.129,0.108,2.448,-309.57,-253.784,18.616, , , , , , ,-1.758,-3.235,-121.388
 12:21:40.187,eb:33:2e:f9:57:b5, 2015-01-01 00:07:56.520,-0.179,0.177,2.511,-306.274,-251.831,25.94, , , , , , ,-3.312,-4.493,-121.218
 12:21:40.187,eb:33:2e:f9:57:b5, 2015-01-01 00:07:56.520,-0.19,0.254,2.54,-301.758,-250.549,32.654, , , , , , ,-4.85,-5.735,-120.976
 12:21:40.187,eb:33:2e:f9:57:b5, 2015-01-01 00:07:56.520,-0.209,0.367,2.59,-296.387,-247.925,38.391, , , , , , ,-6.378,-6.954,-120.674
 12:21:40.187,eb:33:2e:f9:57:b5, 2015-01-01 00:07:56.520,-0.257,0.519,2.631,-290.283,-244.324,42.48, , , , , , ,-7.91,-8.168,-120.317
 12:21:40.187,eb:33:2e:f9:57:b5, 2015-01-01 00:07:56.520,-0.319,0.694,2.667,-282.959,-239.624,45.41, , , , , , ,-9.404,-9.327,-119.905
 12:21:40.187,eb:33:2e:f9:57:b5, 2015-01-01 00:07:56.520,-0.439,0.883,2.711,-273.682,-235.107,45.959, , , , , , ,-10.865,-10.453,-119.465
 12:21:40.187,eb:33:2e:f9:57:b5, 2015-01-01 00:07:56.520,-0.604,1.134,2.747,-258.423,-229.004,43.579, , , , , , ,-12.283,-11.541,-119.004
 12:21:40.187,eb:33:2e:f9:57:b5, 2015-01-01 00:07:56.520,-0.721,1.37,2.731,-241.028,-224.976,39.062, , , , , , ,-13.64,-12.612,-118.537
 12:21:40.232,eb:33:2e:f9:57:b5, 2015-01-01 00:07:56.520,-0.789,1.639,2.738,-221.008,-219.91,32.104, , , , , , ,-14.886,-13.651,-118.081
 12:21:40.232,eb:33:2e:f9:57:b5, 2015-01-01 00:07:56.520,-0.897,1.875,2.763,-201.416,-209.595,23.743, , , , , , ,-16.04,-14.645,-117.653
 12:21:40.232,eb:33:2e:f9:57:b5, 2015-01-01 00:07:56.520,-1.037,2.032,2.738,-183.105,-193.604,15.381, , , , , , ,-17.095,-15.579,-117.263
 12:21:40.232,eb:33:2e:f9:57:b5, 2015-01-01 00:07:56.520,-1.147,2.105,2.658,-166.382,-173.157,8.606, , , , , , ,-18.067,-16.441,-116.922
 12:21:40.232,eb:33:2e:f9:57:b5, 2015-01-01 00:07:56.520,-1.25,2.16,2.586,-150.818,-148.01,4.272, , , , , , ,-18.935,-17.183,-116.631
 12:21:40.232,eb:33:2e:f9:57:b5, 2015-01-01 00:07:56.520,-1.326,2.23,2.502,-135.559,-121.033,2.014, , , , , , ,-19.72,-17.803,-116.389
 12:21:40.232,eb:33:2e:f9:57:b5, 2015-01-01 00:07:56.520,-1.406,2.344,2.419,-120.178,-93.933,1.404, , , , , , ,-20.413,-18.292,-116.191
 12:21:40.232,eb:33:2e:f9:57:b5, 2015-01-01 00:07:56.520,-1.466,2.475,2.292,-104.309,-70.374,1.038, , , , , , ,-21.022,-18.666,-116.032
 12:21:40.277,eb:33:2e:f9:57:b5, 2015-01-01 00:07:56.520,-1.513,2.594,2.106,-87.463,-52.368,0.61, , , , , , ,-21.533,-18.94,-115.917
 12:21:40.277,eb:33:2e:f9:57:b5, 2015-01-01 00:07:56.520,-1.582,2.685,1.861,-69.275,-41.26,-0.366, , , , , , ,-21.945,-19.149,-115.829
 12:21:40.277,eb:33:2e:f9:57:b5, 2015-01-01 00:07:56.520,-1.61,2.769,1.627,-49.072,-37.231,-2.258, , , , , , ,-22.258,-19.33,-115.757
 12:21:40.277,eb:33:2e:f9:57:b5, 2015-01-01 00:07:56.520,-1.601,2.824,1.553,-26.917,-34.851,-4.272, , , , , , ,-22.462,-19.512,-115.703
 12:21:40.277,eb:33:2e:f9:57:b5, 2015-01-01 00:07:56.520,-1.597,2.808,1.619,-3.967,-27.954,-5.188, , , , , , ,-22.538,-19.666,-115.664
 12:21:40.277,eb:33:2e:f9:57:b5, 2015-01-01 00:07:56.520,-1.634,2.736,1.693,18.25,-14.893,-3.784, , , , , , ,-22.5,-19.77,-115.642
 12:21:40.277,eb:33:2e:f9:57:b5, 2015-01-01 00:07:56.520,-1.672,2.606,1.714,39.429,0.916,0.549, , , , , , ,-22.346,-19.797,-115.637
 12:21:40.277,eb:33:2e:f9:57:b5, 2015-01-01 00:07:56.520,-1.693,2.429,1.692,58.716,15.991,8.606, , , , , , ,-22.088,-19.742,-115.631
 12:21:40.323,eb:33:2e:f9:57:b5, 2015-01-01 00:07:56.520,-1.662,2.222,1.63,75.623,28.198,19.714, , , , , , ,-21.753,-19.605,-115.604
 12:21:40.323,eb:33:2e:f9:57:b5, 2015-01-01 00:07:56.520,-1.583,2.008,1.565,90.027,37.781,33.447, , , , , , ,-21.357,-19.396,-115.532
 12:21:40.323,eb:33:2e:f9:57:b5, 2015-01-01 00:07:56.520,-1.493,1.8,1.515,101.929,45.227,49.316, , , , , , ,-20.912,-19.122,-115.406
 12:21:40.323,eb:33:2e:f9:57:b5, 2015-01-01 00:07:56.520,-1.273,1.603,1.471,112.488,49.377,66.162, , , , , , ,-20.429,-18.792,-115.197
 12:21:40.323,eb:33:2e:f9:57:b5, 2015-01-01 00:07:56.520,1.448,1.349,1.743,149.719,49.927,51.453, , , , , , ,-19.88,-18.452,-114.95
 12:21:40.323,eb:33:2e:f9:57:b5, 2015-01-01 00:07:56.520,0.764,-1.645,7.374,205.078,221.069,85.449, , , , , , ,-18.885,-17.556,-114.922
 12:21:40.323,eb:33:2e:f9:57:b5, 2015-01-01 00:07:56.520,2.159,-1.646,0.861,206.421,214.111,92.041, , , , , , ,-17.886,-16.436,-114.818
 12:21:40.323,eb:33:2e:f9:57:b5, 2015-01-01 00:07:56.520,1.173,-1.682,1.074,214.844,248.718,73.73, , , , , , ,-16.826,-15.178,-114.818
 12:21:40.344,eb:33:2e:f9:57:b5, 2015-01-01 00:07:56.520,1.101,-0.981,1.224,221.68,257.507,77.881, , , , , , ,-15.738,-13.854,-114.824
 12:21:40.344,eb:33:2e:f9:57:b5, 2015-01-01 00:07:56.520,0.36,-1.085,1.095,238.586,277.71,84.961, , , , , , ,-14.584,-12.458,-114.769
 12:21:40.344,eb:33:2e:f9:57:b5, 2015-01-01 00:07:56.520,-0.46,0.153,1.521,230.286,300.964,84.656, , , , , , ,-13.431,-10.926,-114.719
 12:21:40.344,eb:33:2e:f9:57:b5, 2015-01-01 00:07:56.520,-0.727,-0.416,0.976,237.915,280.823,81.177, , , , , , ,-12.266,-9.421,-114.626
 12:21:40.344,eb:33:2e:f9:57:b5, 2015-01-01 00:07:56.520,-0.857,-0.092,1.025,241.638,249.939,60.913, , , , , , ,-11.074,-8.053,-114.554
 12:21:40.344,eb:33:2e:f9:57:b5, 2015-01-01 00:07:56.520,-0.846,-0.267,0.791,240.112,201.294,43.762, , , , , , ,-9.866,-6.927,-114.516
 12:21:40.344,eb:33:2e:f9:57:b5, 2015-01-01 00:07:56.520,-0.648,0.204,0.858,220.581,151.245,30.945, , , , , , ,-8.723,-6.053,-114.478
 12:21:40.344,eb:33:2e:f9:57:b5, 2015-01-01 00:07:56.520,-0.51,0.464,1.035,190.796,117.615,21.973, , , , , , ,-7.707,-5.394,-114.445
 12:21:40.389,eb:33:2e:f9:57:b5, 2015-01-01 00:07:56.810,-0.278,0.409,1.082,156.86,97.595,18.86, , , , , , ,-6.855,-4.861,-114.417
 12:21:40.389,eb:33:2e:f9:57:b5, 2015-01-01 00:07:56.810,0.007,0.421,1.291,122.62,86.121,29.602, , , , , , ,-6.18,-4.4,-114.34
 12:21:40.389,eb:33:2e:f9:57:b5, 2015-01-01 00:07:56.810,0.045,0.244,1.19,97.595,82.031,37.476, , , , , , ,-5.652,-3.972,-114.208
