Time,Device name,Chip Time(),Acceleration X(g),Acceleration Y(g),Acceleration Z(g),Angular velocity X(°/s),Angular velocity Y(°/s),Angular velocity Z(°/s),ShiftX(mm),ShiftY(mm),ShiftZ(mm),SpeedX(mm/s),SpeedY(mm/s),SpeedZ(mm/s),Angle X(°),Angle Y(°),Angle Z(°)
 12:15:49.111,eb:33:2e:f9:57:b5, 2015-01-01 00:02:08.000,0.001,-0.002,0.997,0.061,0.061,0, , , , , , ,-0.088,-0.022,-112.308
 12:15:49.113,eb:33:2e:f9:57:b5, 2015-01-01 00:02:08.000,0,-0.001,0.997,0.061,0.061,0, , , , , , ,-0.088,-0.022,-112.308
 12:15:49.114,eb:33:2e:f9:57:b5, 2015-01-01 00:02:08.000,0,-0.002,0.996,0.061,0.061,0.061, , , , , , ,-0.088,-0.022,-112.308
 12:15:49.114,eb:33:2e:f9:57:b5, 2015-01-01 00:02:08.000,0,-0.001,0.996,0.061,0,0, , , , , , ,-0.088,-0.022,-112.308
 12:15:49.114,eb:33:2e:f9:57:b5, 2015-01-01 00:02:08.000,0,-0.001,0.997,0.061,0,0, , , , , , ,-0.088,-0.022,-112.308
 12:15:49.114,eb:33:2e:f9:57:b5, 2015-01-01 00:02:08.000,0,-0.001,0.997,0.061,0,0, , , , , , ,-0.088,-0.022,-112.308
 12:15:49.114,eb:33:2e:f9:57:b5, 2015-01-01 00:02:08.000,0,-0.001,0.997,0.061,0,0, , , , , , ,-0.088,-0.022,-112.308
 12:15:49.114,eb:33:2e:f9:57:b5, 2015-01-01 00:02:08.000,0,-0.001,0.997,0,0,0, , , , , , ,-0.088,-0.022,-112.308
 12:15:49.155,eb:33:2e:f9:57:b5, 2015-01-01 00:02:08.000,0,-0.001,0.996,0,0,0.061, , , , , , ,-0.088,-0.022,-112.308
 12:15:49.155,eb:33:2e:f9:57:b5, 2015-01-01 00:02:08.000,0,-0.001,0.996,0,0,0, , , , , , ,-0.088,-0.022,-112.308
 12:15:49.155,eb:33:2e:f9:57:b5, 2015-01-01 00:02:08.000,0,-0.001,0.996,0.061,0,0, , , , , , ,-0.088,-0.022,-112.308
 12:15:49.155,eb:33:2e:f9:57:b5, 2015-01-01 00:02:08.000,0.001,-0.001,0.996,0,0,0.061, , , , , , ,-0.088,-0.022,-112.308
 12:15:49.155,eb:33:2e:f9:57:b5, 2015-01-01 00:02:08.000,0.001,-0.001,0.996,0,0,0, , , , , , ,-0.088,-0.022,-112.308
 12:15:49.155,eb:33:2e:f9:57:b5, 2015-01-01 00:02:08.000,0,-0.001,0.996,0,0.061,0, , , , , , ,-0.088,-0.022,-112.308
 12:15:49.155,eb:33:2e:f9:57:b5, 2015-01-01 00:02:08.000,0,-0.002,0.996,0,0,0, , , , , , ,-0.088,-0.022,-112.308
 12:15:49.155,eb:33:2e:f9:57:b5, 2015-01-01 00:02:08.000,0,-0.001,0.996,0,0,0, , , , , , ,-0.088,-0.022,-112.308
 12:15:49.177,eb:33:2e:f9:57:b5, 2015-01-01 00:02:08.000,0,-0.001,0.997,0,0.061,0, , , , , , ,-0.088,-0.022,-112.308
 12:15:49.177,eb:33:2e:f9:57:b5, 2015-01-01 00:02:08.000,0,-0.001,0.996,0,0,0.061, , , , , , ,-0.088,-0.022,-112.308
 12:15:49.177,eb:33:2e:f9:57:b5, 2015-01-01 00:02:08.000,0,-0.002,0.997,0,0.061,0, , , , , , ,-0.088,-0.022,-112.308
 12:15:49.177,eb:33:2e:f9:57:b5, 2015-01-01 00:02:08.000,0,-0.001,0.997,0,0,0, , , , , , ,-0.088,-0.022,-112.308
 12:15:49.177,eb:33:2e:f9:57:b5, 2015-01-01 00:02:08.000,0,-0.002,0.997,0,0.061,0, , , , , , ,-0.088,-0.022,-112.308
 12:15:49.177,eb:33:2e:f9:57:b5, 2015-01-01 00:02:08.000,0,-0.002,0.997,0.061,0.122,0, , , , , , ,-0.088,-0.022,-112.308
 12:15:49.177,eb:33:2e:f9:57:b5, 2015-01-01 00:02:08.000,0,-0.002,0.997,0.061,0.061,0, , , , , , ,-0.088,-0.022,-112.308
 12:15:49.178,eb:33:2e:f9:57:b5, 2015-01-01 00:02:08.000,0,-0.002,0.996,0,0.061,0.061, , , , , , ,-0.088,-0.022,-112.308
 12:15:49.222,eb:33:2e:f9:57:b5, 2015-01-01 00:02:08.000,0,-0.001,0.996,0,0,0, , , , , , ,-0.088,-0.022,-112.308
 12:15:49.222,eb:33:2e:f9:57:b5, 2015-01-01 00:02:08.000,0,-0.001,0.996,0,0,0, , , , , , ,-0.088,-0.022,-112.308
 12:15:49.222,eb:33:2e:f9:57:b5, 2015-01-01 00:02:08.000,0,-0.001,0.997,0,0,0, , , , , , ,-0.088,-0.022,-112.308
 12:15:49.222,eb:33:2e:f9:57:b5, 2015-01-01 00:02:08.000,0,-0.002,0.997,0,0.061,0, , , , , , ,-0.088,-0.022,-112.308
 12:15:49.222,eb:33:2e:f9:57:b5, 2015-01-01 00:02:08.000,0,-0.001,0.996,0.061,0,0.061, , , , , , ,-0.088,-0.022,-112.308
 12:15:49.222,eb:33:2e:f9:57:b5, 2015-01-01 00:02:08.000,0,-0.002,0.996,0,0,0.061, , , , , , ,-0.088,-0.022,-112.308
 12:15:49.222,eb:33:2e:f9:57:b5, 2015-01-01 00:02:08.000,0,-0.002,0.996,0,0,0.061, , , , , , ,-0.088,-0.022,-112.308
 12:15:49.222,eb:33:2e:f9:57:b5, 2015-01-01 00:02:08.000,0,-0.001,0.997,0.061,0,0.061, , , , , , ,-0.088,-0.022,-112.308
 12:15:49.313,eb:33:2e:f9:57:b5, 2015-01-01 00:02:08.000,0.001,-0.002,0.996,0,0,0, , , , , , ,-0.088,-0.022,-112.308
 12:15:49.313,eb:33:2e:f9:57:b5, 2015-01-01 00:02:08.000,0.001,-0.002,0.996,0,0,0, , , , , , ,-0.088,-0.022,-112.308
 12:15:49.313,eb:33:2e:f9:57:b5, 2015-01-01 00:02:08.000,0.001,-0.002,0.997,0,0.061,0.061, , , , , , ,-0.088,-0.022,-112.308
 12:15:49.313,eb:33:2e:f9:57:b5, 2015-01-01 00:02:08.000,0.001,-0.002,0.996,0,0,0.061, , , , , , ,-0.088,-0.022,-112.308
 12:15:49.313,eb:33:2e:f9:57:b5, 2015-01-01 00:02:08.000,0.001,-0.001,0.997,0,0,0.061, , , , , , ,-0.088,-0.022,-112.308
 12:15:49.313,eb:33:2e:f9:57:b5, 2015-01-01 00:02:08.000,0.001,-0.002,0.997,0,0.061,0.061, , , , , , ,-0.088,-0.022,-112.308
 12:15:49.314,eb:33:2e:f9:57:b5, 2015-01-01 00:02:08.000,0,-0.002,0.996,0,0.061,0.061, , , , , , ,-0.088,-0.022,-112.308
 12:15:49.314,eb:33:2e:f9:57:b5, 2015-01-01 00:02:08.000,0,-0.002,0.995,0,0,0, , , , , , ,-0.088,-0.022,-112.308
 12:15:49.314,eb:33:2e:f9:57:b5, 2015-01-01 00:02:08.000,0,-0.002,0.996,0,0,0, , , , , , ,-0.088,-0.022,-112.308
 12:15:49.314,eb:33:2e:f9:57:b5, 2015-01-01 00:02:08.000,0,-0.002,0.996,0,0,0.061, , , , , , ,-0.088,-0.022,-112.308
 12:15:49.314,eb:33:2e:f9:57:b5, 2015-01-01 00:02:08.000,0,-0.002,0.996,0,0,0.061, , , , , , ,-0.088,-0.022,-112.308
 12:15:49.314,eb:33:2e:f9:57:b5, 2015-01-01 00:02:08.000,0,-0.001,0.997,0,0,0, , , , , , ,-0.088,-0.022,-112.308
 12:15:49.314,eb:33:2e:f9:57:b5, 2015-01-01 00:02:08.000,0,-0.001,0.996,0,0,0.061, , , , , , ,-0.088,-0.022,-112.308
 12:15:49.314,eb:33:2e:f9:57:b5, 2015-01-01 00:02:08.000,0,-0.002,0.996,0,0,0, , , , , , ,-0.088,-0.022,-112.308
 12:15:49.314,eb:33:2e:f9:57:b5, 2015-01-01 00:02:08.000,0,-0.001,0.996,0,0,0, , , , , , ,-0.088,-0.022,-112.308
 12:15:49.315,eb:33:2e:f9:57:b5, 2015-01-01 00:02:08.000,0,-0.001,0.996,0,0,0, , , , , , ,-0.088,-0.022,-112.308
 12:15:49.335,eb:33:2e:f9:57:b5, 2015-01-01 00:02:08.000,0,-0.002,0.996,0,0,0, , , , , , ,-0.088,-0.022,-112.308
 12:15:49.335,eb:33:2e:f9:57:b5, 2015-01-01 00:02:08.000,0,-0.001,0.997,0,0,0, , , , , , ,-0.088,-0.022,-112.308
 12:15:49.335,eb:33:2e:f9:57:b5, 2015-01-01 00:02:08.000,0.001,-0.001,0.997,0,-0.061,0, , , , , , ,-0.088,-0.022,-112.308
 12:15:49.335,eb:33:2e:f9:57:b5, 2015-01-01 00:02:08.000,0,-0.002,0.997,0,0,0.061, , , , , , ,-0.088,-0.022,-112.308
 12:15:49.335,eb:33:2e:f9:57:b5, 2015-01-01 00:02:08.000,0.001,-0.001,0.997,0,0,0, , , , , , ,-0.088,-0.022,-112.308
 12:15:49.335,eb:33:2e:f9:57:b5, 2015-01-01 00:02:08.000,0,-0.002,0.997,0.061,0,0, , , , , , ,-0.088,-0.022,-112.308
 12:15:49.335,eb:33:2e:f9:57:b5, 2015-01-01 00:02:08.000,0,-0.001,0.997,0.061,0,0, , , , , , ,-0.088,-0.022,-112.308
 12:15:49.335,eb:33:2e:f9:57:b5, 2015-01-01 00:02:08.000,0.001,-0.001,0.996,0.061,0,0, , , , , , ,-0.088,-0.022,-112.308
 12:15:49.381,eb:33:2e:f9:57:b5, 2015-01-01 00:02:08.000,0,-0.001,0.996,0.061,0,0, , , , , , ,-0.088,-0.022,-112.308
 12:15:49.381,eb:33:2e:f9:57:b5, 2015-01-01 00:02:08.000,0,-0.002,0.997,0.061,0,0, , , , , , ,-0.088,-0.022,-112.308
 12:15:49.381,eb:33:2e:f9:57:b5, 2015-01-01 00:02:08.000,0.001,-0.001,0.996,0.061,0,0, , , , , , ,-0.088,-0.022,-112.308
 12:15:49.381,eb:33:2e:f9:57:b5, 2015-01-01 00:02:08.000,0.001,-0.002,0.996,0.061,0,0, , , , , , ,-0.088,-0.022,-112.308
 12:15:49.381,eb:33:2e:f9:57:b5, 2015-01-01 00:02:08.000,0.001,-0.002,0.996,0,0,0, , , , , , ,-0.088,-0.022,-112.308
 12:15:49.381,eb:33:2e:f9:57:b5, 2015-01-01 00:02:08.000,0,-0.002,0.997,0.061,0,0, , , , , , ,-0.088,-0.022,-112.308
 12:15:49.381,eb:33:2e:f9:57:b5, 2015-01-01 00:02:08.000,0,-0.002,0.997,0.061,0,0, , , , , , ,-0.088,-0.022,-112.308
 12:15:49.381,eb:33:2e:f9:57:b5, 2015-01-01 00:02:08.000,0,-0.001,0.997,0,0,0.061, , , , , , ,-0.088,-0.022,-112.308
 12:15:49.425,eb:33:2e:f9:57:b5, 2015-01-01 00:02:08.000,0,-0.001,0.996,0,0,0, , , , , , ,-0.088,-0.022,-112.308
 12:15:49.425,eb:33:2e:f9:57:b5, 2015-01-01 00:02:08.000,0,-0.001,0.996,0.061,0,0, , , , , , ,-0.088,-0.022,-112.308
 12:15:49.425,eb:33:2e:f9:57:b5, 2015-01-01 00:02:08.000,0.001,-0.001,0.996,0.061,0,0.061, , , , , , ,-0.088,-0.022,-112.308
 12:15:49.425,eb:33:2e:f9:57:b5, 2015-01-01 00:02:08.000,0,-0.002,0.996,0.061,0,0.061, , , , , , ,-0.088,-0.022,-112.308
 12:15:49.425,eb:33:2e:f9:57:b5, 2015-01-01 00:02:08.000,0,-0.002,0.996,0.061,0,0.061, , , , , , ,-0.088,-0.022,-112.308
 12:15:49.425,eb:33:2e:f9:57:b5, 2015-01-01 00:02:08.000,0,-0.002,0.996,0.061,0.061,0.061, , , , , , ,-0.088,-0.022,-112.308
 12:15:49.425,eb:33:2e:f9:57:b5, 2015-01-01 00:02:08.000,0,-0.002,0.996,0,0.061,0.061, , , , , , ,-0.088,-0.022,-112.308
 12:15:49.425,eb:33:2e:f9:57:b5, 2015-01-01 00:02:08.000,0.001,-0.002,0.996,0,0.061,0.061, , , , , , ,-0.088,-0.022,-112.308
 12:15:49.493,eb:33:2e:f9:57:b5, 2015-01-01 00:02:08.405,0,-0.001,0.996,0,0.061,0.061, , , , , , ,-0.088,-0.022,-112.308
 12:15:49.493,eb:33:2e:f9:57:b5, 2015-01-01 00:02:08.405,0,-0.001,0.997,0,0.061,0.061, , , , , , ,-0.088,-0.022,-112.308
 12:15:49.493,eb:33:2e:f9:57:b5, 2015-01-01 00:02:08.405,0,-0.001,0.997,0.061,0.061,0, , , , , , ,-0.088,-0.022,-112.308
 12:15:49.493,eb:33:2e:f9:57:b5, 2015-01-01 00:02:08.405,0.001,-0.001,0.997,0,0.061,0, , , , , , ,-0.088,-0.022,-112.308
 12:15:49.493,eb:33:2e:f9:57:b5, 2015-01-01 00:02:08.405,0,-0.001,0.997,0,0.061,0, , , , , , ,-0.088,-0.022,-112.308
 12:15:49.493,eb:33:2e:f9:57:b5, 2015-01-01 00:02:08.405,0,-0.001,0.997,0,0.061,0, , , , , , ,-0.088,-0.022,-112.308
 12:15:49.493,eb:33:2e:f9:57:b5, 2015-01-01 00:02:08.405,0.001,-0.002,0.996,0,0,0.061, , , , , , ,-0.088,-0.022,-112.308
 12:15:49.493,eb:33:2e:f9:57:b5, 2015-01-01 00:02:08.405,0,-0.002,0.996,0,0.122,0, , , , , , ,-0.088,-0.022,-112.308
 12:15:49.493,eb:33:2e:f9:57:b5, 2015-01-01 00:02:08.405,0.001,-0.001,0.996,0,0.061,0.061, , , , , , ,-0.088,-0.022,-112.308
 12:15:49.493,eb:33:2e:f9:57:b5, 2015-01-01 00:02:08.405,0.001,-0.002,0.996,0,0.061,0, , , , , , ,-0.088,-0.022,-112.308
 12:15:49.493,eb:33:2e:f9:57:b5, 2015-01-01 00:02:08.405,0.001,-0.001,0.996,0,0.122,0.061, , , , , , ,-0.088,-0.022,-112.308
 12:15:49.493,eb:33:2e:f9:57:b5, 2015-01-01 00:02:08.405,0.001,-0.001,0.996,0,0.122,0.061, , , , , , ,-0.088,-0.022,-112.308
 12:15:49.493,eb:33:2e:f9:57:b5, 2015-01-01 00:02:08.405,0.001,-0.001,0.997,0,0.122,0, , , , , , ,-0.088,-0.022,-112.308
 12:15:49.493,eb:33:2e:f9:57:b5, 2015-01-01 00:02:08.405,0.001,-0.001,0.996,0,0.061,0, , , , , , ,-0.088,-0.022,-112.308
 12:15:49.494,eb:33:2e:f9:57:b5, 2015-01-01 00:02:08.405,0.001,-0.002,0.996,0,0.061,0, , , , , , ,-0.088,-0.022,-112.308
 12:15:49.494,eb:33:2e:f9:57:b5, 2015-01-01 00:02:08.405,0,-0.003,0.996,0,0.061,0, , , , , , ,-0.088,-0.022,-112.308
 12:15:49.538,eb:33:2e:f9:57:b5, 2015-01-01 00:02:08.405,0.001,-0.002,0.997,0,0.122,0, , , , , , ,-0.088,-0.022,-112.308
 12:15:49.538,eb:33:2e:f9:57:b5, 2015-01-01 00:02:08.405,0,-0.002,0.996,0,0.061,0.061, , , , , , ,-0.088,-0.022,-112.308
 12:15:49.538,eb:33:2e:f9:57:b5, 2015-01-01 00:02:08.405,0,-0.002,0.996,0,0.122,0, , , , , , ,-0.088,-0.022,-112.308
 12:15:49.538,eb:33:2e:f9:57:b5, 2015-01-01 00:02:08.405,0.001,-0.002,0.997,0,0.122,0, , , , , , ,-0.088,-0.022,-112.308
 12:15:49.538,eb:33:2e:f9:57:b5, 2015-01-01 00:02:08.405,0,-0.001,0.997,0,0.122,0, , , , , , ,-0.088,-0.022,-112.308
 12:15:49.538,eb:33:2e:f9:57:b5, 2015-01-01 00:02:08.405,0.001,-0.002,0.996,0,0.122,0, , , , , , ,-0.088,-0.022,-112.308
 12:15:49.538,eb:33:2e:f9:57:b5, 2015-01-01 00:02:08.405,0.001,-0.002,0.996,0,0.061,0, , , , , , ,-0.088,-0.022,-112.308
 12:15:49.538,eb:33:2e:f9:57:b5, 2015-01-01 00:02:08.405,0,-0.002,0.996,0,0.061,0, , , , , , ,-0.088,-0.027,-112.308
 12:15:49.583,eb:33:2e:f9:57:b5, 2015-01-01 00:02:08.405,0.001,-0.001,0.997,0,0.061,0, , , , , , ,-0.088,-0.027,-112.308
 12:15:49.583,eb:33:2e:f9:57:b5, 2015-01-01 00:02:08.405,0.001,-0.002,0.997,0,0.061,0, , , , , , ,-0.088,-0.027,-112.308
 12:15:49.583,eb:33:2e:f9:57:b5, 2015-01-01 00:02:08.405,0,-0.002,0.996,0,0.061,0, , , , , , ,-0.088,-0.027,-112.308
 12:15:49.583,eb:33:2e:f9:57:b5, 2015-01-01 00:02:08.405,0,-0.002,0.998,0,0.061,0, , , , , , ,-0.088,-0.027,-112.308
 12:15:49.583,eb:33:2e:f9:57:b5, 2015-01-01 00:02:08.405,0,-0.001,0.996,0,0,0, , , , , , ,-0.088,-0.027,-112.308
 12:15:49.584,eb:33:2e:f9:57:b5, 2015-01-01 00:02:08.405,0,-0.002,0.996,0,0.061,0, , , , , , ,-0.088,-0.027,-112.308
 12:15:49.584,eb:33:2e:f9:57:b5, 2015-01-01 00:02:08.405,0,-0.002,0.996,0,0.122,0, , , , , , ,-0.088,-0.027,-112.308
 12:15:49.584,eb:33:2e:f9:57:b5, 2015-01-01 00:02:08.405,0.001,-0.001,0.996,0,0,0, , , , , , ,-0.088,-0.027,-112.308
 12:15:49.650,eb:33:2e:f9:57:b5, 2015-01-01 00:02:08.405,0,-0.001,0.996,-0.061,0.061,0, , , , , , ,-0.088,-0.027,-112.308
 12:15:49.650,eb:33:2e:f9:57:b5, 2015-01-01 00:02:08.405,0.001,-0.002,0.996,0,0,0, , , , , , ,-0.088,-0.027,-112.308
 12:15:49.650,eb:33:2e:f9:57:b5, 2015-01-01 00:02:08.405,0.001,-0.002,0.997,0,0.061,0, , , , , , ,-0.088,-0.027,-112.308
 12:15:49.650,eb:33:2e:f9:57:b5, 2015-01-01 00:02:08.405,0.001,-0.002,0.997,0,0.122,0, , , , , , ,-0.088,-0.027,-112.308
 12:15:49.650,eb:33:2e:f9:57:b5, 2015-01-01 00:02:08.405,0.001,-0.002,0.996,0,0.122,0, , , , , , ,-0.088,-0.027,-112.308
 12:15:49.650,eb:33:2e:f9:57:b5, 2015-01-01 00:02:08.405,0,-0.002,0.997,0,0.061,0, , , , , , ,-0.088,-0.027,-112.308
 12:15:49.650,eb:33:2e:f9:57:b5, 2015-01-01 00:02:08.405,0,-0.002,0.997,0.061,0.061,0, , , , , , ,-0.088,-0.027,-112.308
 12:15:49.650,eb:33:2e:f9:57:b5, 2015-01-01 00:02:08.405,0,-0.001,0.997,0,0.122,0, , , , , , ,-0.088,-0.027,-112.308
 12:15:49.652,eb:33:2e:f9:57:b5, 2015-01-01 00:02:08.405,0,-0.002,0.996,0,0.122,0, , , , , , ,-0.088,-0.027,-112.308
 12:15:49.652,eb:33:2e:f9:57:b5, 2015-01-01 00:02:08.405,0,-0.002,0.996,0,0.122,0, , , , , , ,-0.088,-0.027,-112.308
 12:15:49.652,eb:33:2e:f9:57:b5, 2015-01-01 00:02:08.405,0,-0.002,0.996,0,0.122,0, , , , , , ,-0.088,-0.027,-112.308
 12:15:49.652,eb:33:2e:f9:57:b5, 2015-01-01 00:02:08.405,0,-0.001,0.997,0,0.061,0, , , , , , ,-0.088,-0.027,-112.308
 12:15:49.652,eb:33:2e:f9:57:b5, 2015-01-01 00:02:08.405,0,-0.002,0.996,0,0.122,0, , , , , , ,-0.088,-0.027,-112.308
 12:15:49.652,eb:33:2e:f9:57:b5, 2015-01-01 00:02:08.405,0,-0.001,0.997,0,0.122,0, , , , , , ,-0.088,-0.027,-112.308
 12:15:49.653,eb:33:2e:f9:57:b5, 2015-01-01 00:02:08.405,0,-0.001,0.996,0,0.061,0, , , , , , ,-0.088,-0.027,-112.308
 12:15:49.653,eb:33:2e:f9:57:b5, 2015-01-01 00:02:08.405,0.001,-0.001,0.996,0,0.122,0, , , , , , ,-0.088,-0.027,-112.308
 12:15:49.786,eb:33:2e:f9:57:b5, 2015-01-01 00:02:08.405,0,-0.002,0.996,0,0.122,0, , , , , , ,-0.088,-0.027,-112.308
 12:15:49.786,eb:33:2e:f9:57:b5, 2015-01-01 00:02:08.405,0.001,-0.002,0.996,0,0.122,0, , , , , , ,-0.088,-0.027,-112.308
 12:15:49.786,eb:33:2e:f9:57:b5, 2015-01-01 00:02:08.405,0.001,-0.003,0.996,0,0.122,0, , , , , , ,-0.088,-0.027,-112.308
 12:15:49.787,eb:33:2e:f9:57:b5, 2015-01-01 00:02:08.405,0,-0.002,0.997,0,0.122,0, , , , , , ,-0.088,-0.027,-112.308
 12:15:49.787,eb:33:2e:f9:57:b5, 2015-01-01 00:02:08.405,0,-0.001,0.997,0,0.122,0, , , , , , ,-0.088,-0.027,-112.308
 12:15:49.787,eb:33:2e:f9:57:b5, 2015-01-01 00:02:08.405,0,-0.002,0.997,0,0.122,0.061, , , , , , ,-0.088,-0.027,-112.308
 12:15:49.787,eb:33:2e:f9:57:b5, 2015-01-01 00:02:08.405,0.001,-0.003,0.997,0,0.122,0, , , , , , ,-0.088,-0.027,-112.308
 12:15:49.787,eb:33:2e:f9:57:b5, 2015-01-01 00:02:08.405,0,-0.002,0.996,0,0.122,0, , , , , , ,-0.088,-0.027,-112.308
 12:15:49.853,eb:33:2e:f9:57:b5, 2015-01-01 00:02:08.405,0,-0.002,0.996,0,0.122,0, , , , , , ,-0.088,-0.027,-112.308
 12:15:49.853,eb:33:2e:f9:57:b5, 2015-01-01 00:02:08.405,0,-0.002,0.996,0,0.122,0, , , , , , ,-0.088,-0.027,-112.308
 12:15:49.853,eb:33:2e:f9:57:b5, 2015-01-01 00:02:08.405,0,-0.002,0.997,0,0.122,0, , , , , , ,-0.088,-0.027,-112.308
 12:15:49.853,eb:33:2e:f9:57:b5, 2015-01-01 00:02:08.405,0,-0.002,0.996,0,0.122,0.061, , , , , , ,-0.088,-0.027,-112.308
 12:15:49.853,eb:33:2e:f9:57:b5, 2015-01-01 00:02:08.405,0,-0.002,0.997,0,0.122,0.061, , , , , , ,-0.088,-0.027,-112.308
 12:15:49.853,eb:33:2e:f9:57:b5, 2015-01-01 00:02:08.405,0,-0.002,0.996,0,0.122,0.061, , , , , , ,-0.088,-0.027,-112.308
 12:15:49.853,eb:33:2e:f9:57:b5, 2015-01-01 00:02:08.405,0,-0.002,0.996,0,0.122,0.061, , , , , , ,-0.088,-0.027,-112.308
 12:15:49.853,eb:33:2e:f9:57:b5, 2015-01-01 00:02:08.405,0,-0.001,0.997,0,0.061,0.061, , , , , , ,-0.088,-0.027,-112.308
 12:15:49.855,eb:33:2e:f9:57:b5, 2015-01-01 00:02:08.405,0,-0.002,0.996,0,0.061,0.061, , , , , , ,-0.088,-0.027,-112.308
 12:15:49.855,eb:33:2e:f9:57:b5, 2015-01-01 00:02:08.405,0.001,-0.002,0.996,0,0.122,0, , , , , , ,-0.088,-0.027,-112.308
 12:15:49.855,eb:33:2e:f9:57:b5, 2015-01-01 00:02:08.405,0,-0.002,0.996,0,0.061,0.061, , , , , , ,-0.088,-0.027,-112.308
 12:15:49.855,eb:33:2e:f9:57:b5, 2015-01-01 00:02:08.405,0.001,-0.001,0.996,0.061,0.122,0.061, , , , , , ,-0.088,-0.027,-112.308
 12:15:49.855,eb:33:2e:f9:57:b5, 2015-01-01 00:02:08.405,0,-0.002,0.997,0.061,0.122,0.061, , , , , , ,-0.088,-0.027,-112.308
 12:15:49.855,eb:33:2e:f9:57:b5, 2015-01-01 00:02:08.405,0.001,-0.002,0.997,0.061,0.122,0.061, , , , , , ,-0.088,-0.027,-112.308
 12:15:49.855,eb:33:2e:f9:57:b5, 2015-01-01 00:02:08.405,0,-0.003,0.996,0,0.122,0.061, , , , , , ,-0.088,-0.027,-112.308
 12:15:49.855,eb:33:2e:f9:57:b5, 2015-01-01 00:02:08.405,0,-0.002,0.997,0,0.122,0.061, , , , , , ,-0.093,-0.027,-112.308
 12:15:49.875,eb:33:2e:f9:57:b5, 2015-01-01 00:02:08.405,0,-0.003,0.997,0,0.122,0.061, , , , , , ,-0.093,-0.027,-112.308
 12:15:49.875,eb:33:2e:f9:57:b5, 2015-01-01 00:02:08.405,0.001,-0.002,0.997,0,0.122,0, , , , , , ,-0.093,-0.027,-112.308
 12:15:49.875,eb:33:2e:f9:57:b5, 2015-01-01 00:02:08.405,0,-0.003,0.996,0,0.122,0.061, , , , , , ,-0.093,-0.027,-112.308
 12:15:49.875,eb:33:2e:f9:57:b5, 2015-01-01 00:02:08.405,0,-0.002,0.997,0.061,0.122,0.061, , , , , , ,-0.093,-0.027,-112.308
 12:15:49.875,eb:33:2e:f9:57:b5, 2015-01-01 00:02:08.405,0,-0.001,0.998,0.061,0.061,0.061, , , , , , ,-0.093,-0.027,-112.308
 12:15:49.875,eb:33:2e:f9:57:b5, 2015-01-01 00:02:08.405,0,-0.002,0.997,0.061,0.122,0.061, , , , , , ,-0.093,-0.027,-112.308
 12:15:49.875,eb:33:2e:f9:57:b5, 2015-01-01 00:02:08.405,0,-0.002,0.997,0.061,0.061,0.122, , , , , , ,-0.093,-0.027,-112.308
 12:15:49.875,eb:33:2e:f9:57:b5, 2015-01-01 00:02:08.405,0,-0.002,0.997,0.061,0.122,0.122, , , , , , ,-0.093,-0.027,-112.308
 12:15:49.897,eb:33:2e:f9:57:b5, 2015-01-01 00:02:08.405,0.001,-0.002,0.997,0.061,0.122,0.061, , , , , , ,-0.093,-0.027,-112.308
 12:15:49.897,eb:33:2e:f9:57:b5, 2015-01-01 00:02:08.405,0.001,-0.002,0.997,0.061,0.061,0.061, , , , , , ,-0.093,-0.027,-112.308
 12:15:49.897,eb:33:2e:f9:57:b5, 2015-01-01 00:02:08.405,0.001,-0.002,0.996,0.061,0.122,0.061, , , , , , ,-0.093,-0.027,-112.308
 12:15:49.897,eb:33:2e:f9:57:b5, 2015-01-01 00:02:08.405,0,-0.002,0.996,0.061,0.061,0.061, , , , , , ,-0.093,-0.027,-112.308
 12:15:49.897,eb:33:2e:f9:57:b5, 2015-01-01 00:02:08.405,0,-0.002,0.997,0.122,0.061,0, , , , , , ,-0.093,-0.027,-112.308
 12:15:49.897,eb:33:2e:f9:57:b5, 2015-01-01 00:02:08.405,0,-0.002,0.997,0.122,0,0.061, , , , , , ,-0.093,-0.027,-112.308
 12:15:49.897,eb:33:2e:f9:57:b5, 2015-01-01 00:02:08.405,0,-0.001,0.997,0.061,0.061,0, , , , , , ,-0.093,-0.027,-112.308
 12:15:49.897,eb:33:2e:f9:57:b5, 2015-01-01 00:02:08.405,0,-0.002,0.997,0.061,0.061,0, , , , , , ,-0.093,-0.027,-112.308
 12:15:49.899,eb:33:2e:f9:57:b5, 2015-01-01 00:02:08.405,0.001,-0.002,0.997,0.122,0.061,0, , , , , , ,-0.093,-0.027,-112.308
 12:15:49.899,eb:33:2e:f9:57:b5, 2015-01-01 00:02:08.405,0,-0.002,0.997,0.122,0.122,0.061, , , , , , ,-0.093,-0.027,-112.308
 12:15:49.899,eb:33:2e:f9:57:b5, 2015-01-01 00:02:08.405,0,-0.002,0.996,0.061,0.061,0.061, , , , , , ,-0.093,-0.027,-112.308
 12:15:49.899,eb:33:2e:f9:57:b5, 2015-01-01 00:02:08.405,0,-0.002,0.996,0.061,0.122,0.061, , , , , , ,-0.093,-0.027,-112.308
 12:15:49.899,eb:33:2e:f9:57:b5, 2015-01-01 00:02:08.405,0,-0.002,0.996,0.061,0.122,0.061, , , , , , ,-0.093,-0.027,-112.308
 12:15:49.899,eb:33:2e:f9:57:b5, 2015-01-01 00:02:08.405,0,-0.002,0.996,0.061,0.122,0, , , , , , ,-0.093,-0.027,-112.308
 12:15:49.899,eb:33:2e:f9:57:b5, 2015-01-01 00:02:08.405,0,-0.002,0.996,0.122,0.122,0.061, , , , , , ,-0.093,-0.027,-112.308
 12:15:49.899,eb:33:2e:f9:57:b5, 2015-01-01 00:02:08.405,0,-0.002,0.996,0.061,0.061,0.061, , , , , , ,-0.093,-0.027,-112.308
 12:15:49.943,eb:33:2e:f9:57:b5, 2015-01-01 00:02:08.875,0,-0.001,0.996,0.061,0.122,0.061, , , , , , ,-0.093,-0.027,-112.308
 12:15:49.943,eb:33:2e:f9:57:b5, 2015-01-01 00:02:08.875,0,-0.002,0.996,0.061,0.061,0, , , , , , ,-0.093,-0.027,-112.308
 12:15:49.943,eb:33:2e:f9:57:b5, 2015-01-01 00:02:08.875,0,-0.002,0.997,0.061,0.122,0.061, , , , , , ,-0.093,-0.027,-112.308
 12:15:49.943,eb:33:2e:f9:57:b5, 2015-01-01 00:02:08.875,0,-0.001,0.995,0.061,0.061,0, , , , , , ,-0.093,-0.027,-112.308
 12:15:49.943,eb:33:2e:f9:57:b5, 2015-01-01 00:02:08.875,0,-0.002,0.996,0.061,0.061,0, , , , , , ,-0.093,-0.027,-112.308
 12:15:49.943,eb:33:2e:f9:57:b5, 2015-01-01 00:02:08.875,0,-0.002,0.996,0.061,0.061,0, , , , , , ,-0.093,-0.027,-112.308
 12:15:49.943,eb:33:2e:f9:57:b5, 2015-01-01 00:02:08.875,0.001,-0.002,0.997,0.061,0.061,0.061, , , , , , ,-0.093,-0.027,-112.308
 12:15:49.943,eb:33:2e:f9:57:b5, 2015-01-01 00:02:08.875,0.001,-0.002,0.997,0.061,0,0, , , , , , ,-0.093,-0.027,-112.308
 12:15:49.988,eb:33:2e:f9:57:b5, 2015-01-01 00:02:08.875,0,-0.002,0.997,0.061,0,0, , , , , , ,-0.093,-0.027,-112.308
 12:15:49.988,eb:33:2e:f9:57:b5, 2015-01-01 00:02:08.875,0.001,-0.002,0.997,0.061,0,0, , , , , , ,-0.093,-0.027,-112.308
 12:15:49.988,eb:33:2e:f9:57:b5, 2015-01-01 00:02:08.875,0.001,-0.001,0.997,0.122,0.061,0, , , , , , ,-0.093,-0.027,-112.308
 12:15:49.988,eb:33:2e:f9:57:b5, 2015-01-01 00:02:08.875,0.001,-0.002,0.997,0.183,0.061,0, , , , , , ,-0.093,-0.027,-112.308
 12:15:49.988,eb:33:2e:f9:57:b5, 2015-01-01 00:02:08.875,0,-0.002,0.997,0.122,0.061,0, , , , , , ,-0.093,-0.027,-112.308
 12:15:49.988,eb:33:2e:f9:57:b5, 2015-01-01 00:02:08.875,0,-0.001,0.997,0.122,0.061,0, , , , , , ,-0.093,-0.027,-112.308
 12:15:49.988,eb:33:2e:f9:57:b5, 2015-01-01 00:02:08.875,0,-0.001,0.997,0.122,0.122,0, , , , , , ,-0.093,-0.027,-112.308
 12:15:49.988,eb:33:2e:f9:57:b5, 2015-01-01 00:02:08.875,0,-0.001,0.997,0.122,0.061,0, , , , , , ,-0.093,-0.027,-112.308
 12:15:50.055,eb:33:2e:f9:57:b5, 2015-01-01 00:02:08.875,0,-0.001,0.997,0.061,0.122,0, , , , , , ,-0.093,-0.027,-112.308
 12:15:50.055,eb:33:2e:f9:57:b5, 2015-01-01 00:02:08.875,0.001,-0.002,0.997,0.122,0.122,0, , , , , , ,-0.093,-0.027,-112.308
 12:15:50.055,eb:33:2e:f9:57:b5, 2015-01-01 00:02:08.875,0,-0.002,0.996,0.122,0.061,0, , , , , , ,-0.093,-0.027,-112.308
 12:15:50.055,eb:33:2e:f9:57:b5, 2015-01-01 00:02:08.875,0,-0.002,0.997,0.061,0.122,0, , , , , , ,-0.093,-0.027,-112.308
 12:15:50.055,eb:33:2e:f9:57:b5, 2015-01-01 00:02:08.875,0,-0.002,0.997,0.061,0.122,0, , , , , , ,-0.093,-0.027,-112.308
 12:15:50.055,eb:33:2e:f9:57:b5, 2015-01-01 00:02:08.875,0,-0.001,0.996,0.122,0.122,0, , , , , , ,-0.093,-0.027,-112.308
 12:15:50.055,eb:33:2e:f9:57:b5, 2015-01-01 00:02:08.875,0.001,-0.001,0.997,0.061,0.183,0, , , , , , ,-0.093,-0.027,-112.308
 12:15:50.055,eb:33:2e:f9:57:b5, 2015-01-01 00:02:08.875,0,-0.002,0.997,0.122,0.122,0, , , , , , ,-0.093,-0.027,-112.308
 12:15:50.057,eb:33:2e:f9:57:b5, 2015-01-01 00:02:08.875,0,-0.001,0.997,0.122,0.122,0, , , , , , ,-0.093,-0.027,-112.308
 12:15:50.057,eb:33:2e:f9:57:b5, 2015-01-01 00:02:08.875,0,-0.002,0.997,0.061,0.183,0, , , , , , ,-0.093,-0.027,-112.308
 12:15:50.057,eb:33:2e:f9:57:b5, 2015-01-01 00:02:08.875,0.001,-0.001,0.997,0,0.122,0, , , , , , ,-0.093,-0.027,-112.308
 12:15:50.057,eb:33:2e:f9:57:b5, 2015-01-01 00:02:08.875,0,-0.002,0.997,0.061,0.183,0, , , , , , ,-0.093,-0.027,-112.308
 12:15:50.057,eb:33:2e:f9:57:b5, 2015-01-01 00:02:08.875,0,-0.001,0.996,0.061,0.183,0.122, , , , , , ,-0.093,-0.027,-112.308
 12:15:50.057,eb:33:2e:f9:57:b5, 2015-01-01 00:02:08.875,0,-0.001,0.996,0.061,0.183,0.061, , , , , , ,-0.093,-0.027,-112.308
 12:15:50.057,eb:33:2e:f9:57:b5, 2015-01-01 00:02:08.875,0,-0.002,0.997,0.061,0.183,0, , , , , , ,-0.093,-0.027,-112.308
 12:15:50.057,eb:33:2e:f9:57:b5, 2015-01-01 00:02:08.875,0,-0.002,0.997,0,0.183,0, , , , , , ,-0.093,-0.027,-112.308
 12:15:50.145,eb:33:2e:f9:57:b5, 2015-01-01 00:02:08.875,0,-0.002,0.995,0.061,0.122,0.061, , , , , , ,-0.093,-0.027,-112.308
 12:15:50.145,eb:33:2e:f9:57:b5, 2015-01-01 00:02:08.875,0.001,-0.002,0.997,0,0.183,0, , , , , , ,-0.093,-0.027,-112.308
 12:15:50.145,eb:33:2e:f9:57:b5, 2015-01-01 00:02:08.875,0,-0.002,0.997,0.061,0.244,0, , , , , , ,-0.093,-0.027,-112.308
 12:15:50.145,eb:33:2e:f9:57:b5, 2015-01-01 00:02:08.875,0.002,-0.002,0.997,0.061,0.244,0, , , , , , ,-0.093,-0.027,-112.308
 12:15:50.145,eb:33:2e:f9:57:b5, 2015-01-01 00:02:08.875,-0.001,0,0.996,0.061,0.183,0, , , , , , ,-0.093,-0.027,-112.308
 12:15:50.145,eb:33:2e:f9:57:b5, 2015-01-01 00:02:08.875,0,-0.003,0.996,0.061,0.183,0, , , , , , ,-0.093,-0.027,-112.308
 12:15:50.145,eb:33:2e:f9:57:b5, 2015-01-01 00:02:08.875,0,-0.002,0.995,0.061,0.122,0.061, , , , , , ,-0.093,-0.027,-112.308
 12:15:50.145,eb:33:2e:f9:57:b5, 2015-01-01 00:02:08.875,0.001,0,0.996,0.061,0.122,0, , , , , , ,-0.093,-0.027,-112.308
 12:15:50.148,eb:33:2e:f9:57:b5, 2015-01-01 00:02:08.875,0,-0.001,0.996,0.061,0.122,0, , , , , , ,-0.093,-0.027,-112.308
 12:15:50.148,eb:33:2e:f9:57:b5, 2015-01-01 00:02:08.875,-0.001,-0.001,0.996,0.061,0.122,0.061, , , , , , ,-0.093,-0.027,-112.308
 12:15:50.148,eb:33:2e:f9:57:b5, 2015-01-01 00:02:08.875,0.002,-0.001,0.995,0.061,0.061,0, , , , , , ,-0.093,-0.027,-112.308
 12:15:50.148,eb:33:2e:f9:57:b5, 2015-01-01 00:02:08.875,0.001,-0.002,0.998,0.122,0.122,0.061, , , , , , ,-0.093,-0.027,-112.308
 12:15:50.148,eb:33:2e:f9:57:b5, 2015-01-01 00:02:08.875,-0.001,-0.002,0.996,0.061,0.122,0, , , , , , ,-0.093,-0.027,-112.308
 12:15:50.148,eb:33:2e:f9:57:b5, 2015-01-01 00:02:08.875,0.001,-0.001,0.996,0.061,0.061,0.061, , , , , , ,-0.093,-0.027,-112.308
 12:15:50.148,eb:33:2e:f9:57:b5, 2015-01-01 00:02:08.875,0,-0.001,0.997,0.061,0.183,0, , , , , , ,-0.093,-0.027,-112.308
 12:15:50.148,eb:33:2e:f9:57:b5, 2015-01-01 00:02:08.875,0.001,-0.002,0.996,0.061,0.061,0.061, , , , , , ,-0.093,-0.027,-112.308
 12:15:50.191,eb:33:2e:f9:57:b5, 2015-01-01 00:02:08.875,0,-0.001,0.998,0.061,0.122,0.061, , , , , , ,-0.093,-0.027,-112.308
 12:15:50.191,eb:33:2e:f9:57:b5, 2015-01-01 00:02:08.875,-0.001,-0.001,0.997,0.061,0.183,0.061, , , , , , ,-0.093,-0.027,-112.308
 12:15:50.191,eb:33:2e:f9:57:b5, 2015-01-01 00:02:08.875,0.001,-0.001,0.996,0.061,0.183,0.122, , , , , , ,-0.093,-0.027,-112.308
 12:15:50.191,eb:33:2e:f9:57:b5, 2015-01-01 00:02:08.875,0,-0.001,0.997,0.061,0.183,0, , , , , , ,-0.093,-0.027,-112.308
 12:15:50.191,eb:33:2e:f9:57:b5, 2015-01-01 00:02:08.875,0.002,-0.002,0.996,0.061,0.122,0, , , , , , ,-0.093,-0.027,-112.308
 12:15:50.191,eb:33:2e:f9:57:b5, 2015-01-01 00:02:08.875,-0.001,-0.002,0.998,0,0.183,0.061, , , , , , ,-0.093,-0.027,-112.308
 12:15:50.191,eb:33:2e:f9:57:b5, 2015-01-01 00:02:08.875,0,-0.002,0.997,0.061,0.183,0.061, , , , , , ,-0.093,-0.027,-112.308
 12:15:50.191,eb:33:2e:f9:57:b5, 2015-01-01 00:02:08.875,0,-0.001,0.997,0.061,0.183,0, , , , , , ,-0.093,-0.027,-112.308
 12:15:50.235,eb:33:2e:f9:57:b5, 2015-01-01 00:02:08.875,0,-0.001,0.996,0.061,0.122,0, , , , , , ,-0.093,-0.027,-112.308
 12:15:50.235,eb:33:2e:f9:57:b5, 2015-01-01 00:02:08.875,0,-0.001,0.996,0.061,0.061,0, , , , , , ,-0.093,-0.027,-112.308
 12:15:50.235,eb:33:2e:f9:57:b5, 2015-01-01 00:02:08.875,0.001,-0.002,0.996,0.061,0.061,0, , , , , , ,-0.093,-0.027,-112.308
 12:15:50.235,eb:33:2e:f9:57:b5, 2015-01-01 00:02:08.875,0,-0.001,0.996,0.061,0.183,0, , , , , , ,-0.093,-0.027,-112.308
 12:15:50.235,eb:33:2e:f9:57:b5, 2015-01-01 00:02:08.875,0,-0.001,0.995,0,0.122,0, , , , , , ,-0.093,-0.027,-112.308
 12:15:50.235,eb:33:2e:f9:57:b5, 2015-01-01 00:02:08.875,0,-0.001,0.996,0,0.122,0, , , , , , ,-0.093,-0.027,-112.308
 12:15:50.235,eb:33:2e:f9:57:b5, 2015-01-01 00:02:08.875,-0.001,-0.002,0.997,0.061,0.122,0, , , , , , ,-0.093,-0.027,-112.308
 12:15:50.235,eb:33:2e:f9:57:b5, 2015-01-01 00:02:08.875,0.001,-0.002,0.996,0,0.061,0, , , , , , ,-0.093,-0.027,-112.308
 12:15:50.257,eb:33:2e:f9:57:b5, 2015-01-01 00:02:08.875,0,0,0.996,0,0.061,0, , , , , , ,-0.093,-0.027,-112.308
 12:15:50.257,eb:33:2e:f9:57:b5, 2015-01-01 00:02:08.875,0,-0.001,0.996,0,0.061,0, , , , , , ,-0.093,-0.027,-112.308
 12:15:50.257,eb:33:2e:f9:57:b5, 2015-01-01 00:02:08.875,0,-0.001,0.996,0,0,0, , , , , , ,-0.093,-0.027,-112.308
 12:15:50.257,eb:33:2e:f9:57:b5, 2015-01-01 00:02:08.875,0,-0.001,0.996,0,0,0, , , , , , ,-0.093,-0.027,-112.308
 12:15:50.257,eb:33:2e:f9:57:b5, 2015-01-01 00:02:08.875,0,-0.001,0.996,0,0,0, , , , , , ,-0.093,-0.027,-112.308
 12:15:50.257,eb:33:2e:f9:57:b5, 2015-01-01 00:02:08.875,0,-0.001,0.996,-0.061,0,0, , , , , , ,-0.093,-0.027,-112.308
 12:15:50.257,eb:33:2e:f9:57:b5, 2015-01-01 00:02:08.875,0,-0.001,0.996,-0.061,0,0, , , , , , ,-0.093,-0.027,-112.308
 12:15:50.258,eb:33:2e:f9:57:b5, 2015-01-01 00:02:08.875,0,-0.001,0.996,-0.122,0,0, , , , , , ,-0.093,-0.027,-112.308
 12:15:50.347,eb:33:2e:f9:57:b5, 2015-01-01 00:02:09.210,0,-0.001,0.996,-0.061,0,0, , , , , , ,-0.093,-0.027,-112.308
 12:15:50.347,eb:33:2e:f9:57:b5, 2015-01-01 00:02:09.210,0,-0.001,0.996,-0.122,-0.061,0, , , , , , ,-0.093,-0.027,-112.308
 12:15:50.347,eb:33:2e:f9:57:b5, 2015-01-01 00:02:09.210,0.001,-0.002,0.997,-0.061,-0.061,0, , , , , , ,-0.093,-0.027,-112.308
 12:15:50.347,eb:33:2e:f9:57:b5, 2015-01-01 00:02:09.210,0.001,-0.002,0.997,-0.061,0,0, , , , , , ,-0.093,-0.027,-112.308
 12:15:50.347,eb:33:2e:f9:57:b5, 2015-01-01 00:02:09.210,0.001,-0.002,0.997,0,-0.061,0.061, , , , , , ,-0.093,-0.027,-112.308
 12:15:50.347,eb:33:2e:f9:57:b5, 2015-01-01 00:02:09.210,0,-0.002,0.997,-0.061,-0.061,0.061, , , , , , ,-0.093,-0.027,-112.308
 12:15:50.347,eb:33:2e:f9:57:b5, 2015-01-01 00:02:09.210,0,-0.002,0.997,-0.061,-0.061,0, , , , , , ,-0.093,-0.027,-112.308
 12:15:50.347,eb:33:2e:f9:57:b5, 2015-01-01 00:02:09.210,0,-0.002,0.997,0,-0.122,0.061, , , , , , ,-0.093,-0.027,-112.308
 12:15:50.349,eb:33:2e:f9:57:b5, 2015-01-01 00:02:09.210,0.001,-0.002,0.997,0,-0.061,0.061, , , , , , ,-0.093,-0.027,-112.308
 12:15:50.349,eb:33:2e:f9:57:b5, 2015-01-01 00:02:09.210,0.002,-0.001,0.997,0,0,0.061, , , , , , ,-0.093,-0.027,-112.308
 12:15:50.349,eb:33:2e:f9:57:b5, 2015-01-01 00:02:09.210,-0.001,-0.002,0.997,0,0,0, , , , , , ,-0.093,-0.027,-112.308
 12:15:50.349,eb:33:2e:f9:57:b5, 2015-01-01 00:02:09.210,0,-0.003,0.995,0,0,0.061, , , , , , ,-0.093,-0.027,-112.308
 12:15:50.349,eb:33:2e:f9:57:b5, 2015-01-01 00:02:09.210,0.001,-0.003,0.996,0,-0.061,0.061, , , , , , ,-0.093,-0.027,-112.308
 12:15:50.349,eb:33:2e:f9:57:b5, 2015-01-01 00:02:09.210,0.001,-0.002,0.998,0,-0.061,0, , , , , , ,-0.093,-0.027,-112.308
 12:15:50.349,eb:33:2e:f9:57:b5, 2015-01-01 00:02:09.210,-0.002,-0.002,0.998,0,0,0, , , , , , ,-0.093,-0.027,-112.308
 12:15:50.349,eb:33:2e:f9:57:b5, 2015-01-01 00:02:09.210,0,-0.002,0.995,0,-0.183,0.061, , , , , , ,-0.093,-0.027,-112.308
 12:15:50.393,eb:33:2e:f9:57:b5, 2015-01-01 00:02:09.210,0.001,-0.001,0.997,0,-0.122,0, , , , , , ,-0.093,-0.027,-112.308
 12:15:50.393,eb:33:2e:f9:57:b5, 2015-01-01 00:02:09.210,0.003,-0.002,0.999,0,-0.122,0, , , , , , ,-0.093,-0.027,-112.308
 12:15:50.393,eb:33:2e:f9:57:b5, 2015-01-01 00:02:09.210,0,-0.001,0.998,0.061,-0.061,0, , , , , , ,-0.093,-0.027,-112.308
 12:15:50.393,eb:33:2e:f9:57:b5, 2015-01-01 00:02:09.210,0,-0.003,0.996,0.061,-0.061,0, , , , , , ,-0.093,-0.027,-112.308
 12:15:50.393,eb:33:2e:f9:57:b5, 2015-01-01 00:02:09.210,0.001,-0.002,0.996,0.122,-0.061,0.061, , , , , , ,-0.093,-0.027,-112.308
 12:15:50.393,eb:33:2e:f9:57:b5, 2015-01-01 00:02:09.210,0.001,-0.002,0.996,0.061,-0.061,0, , , , , , ,-0.093,-0.027,-112.308
 12:15:50.393,eb:33:2e:f9:57:b5, 2015-01-01 00:02:09.210,0,-0.002,0.997,0.122,-0.061,0.061, , , , , , ,-0.093,-0.027,-112.308
 12:15:50.393,eb:33:2e:f9:57:b5, 2015-01-01 00:02:09.210,0,-0.001,0.997,0.122,-0.061,0.061, , , , , , ,-0.093,-0.027,-112.308
 12:15:50.438,eb:33:2e:f9:57:b5, 2015-01-01 00:02:09.210,0.001,-0.002,0.996,0.061,-0.061,0.061, , , , , , ,-0.093,-0.027,-112.308
 12:15:50.438,eb:33:2e:f9:57:b5, 2015-01-01 00:02:09.210,0.001,-0.002,0.996,0.061,0,0.061, , , , , , ,-0.093,-0.027,-112.308
 12:15:50.438,eb:33:2e:f9:57:b5, 2015-01-01 00:02:09.210,0.001,-0.001,0.997,0.122,0,0.061, , , , , , ,-0.093,-0.027,-112.308
 12:15:50.438,eb:33:2e:f9:57:b5, 2015-01-01 00:02:09.210,0,-0.002,0.996,0.061,0.061,0.061, , , , , , ,-0.093,-0.027,-112.308
 12:15:50.438,eb:33:2e:f9:57:b5, 2015-01-01 00:02:09.210,0,-0.001,0.997,0,0.061,0.061, , , , , , ,-0.093,-0.027,-112.308
 12:15:50.438,eb:33:2e:f9:57:b5, 2015-01-01 00:02:09.210,0.001,-0.002,0.996,0,0.061,0.061, , , , , , ,-0.093,-0.027,-112.308
 12:15:50.438,eb:33:2e:f9:57:b5, 2015-01-01 00:02:09.210,0.001,-0.001,0.997,0.061,0.122,0, , , , , , ,-0.093,-0.027,-112.308
 12:15:50.438,eb:33:2e:f9:57:b5, 2015-01-01 00:02:09.210,0.001,-0.001,0.997,0.122,0.061,0, , , , , , ,-0.093,-0.027,-112.308
 12:15:50.461,eb:33:2e:f9:57:b5, 2015-01-01 00:02:09.210,0.001,-0.001,0.997,0.122,0.061,0, , , , , , ,-0.093,-0.027,-112.308
 12:15:50.461,eb:33:2e:f9:57:b5, 2015-01-01 00:02:09.210,0.001,-0.002,0.997,0.061,0.122,0, , , , , , ,-0.093,-0.027,-112.308
 12:15:50.461,eb:33:2e:f9:57:b5, 2015-01-01 00:02:09.210,0.001,-0.002,0.996,0.061,0.122,0, , , , , , ,-0.093,-0.027,-112.308
 12:15:50.461,eb:33:2e:f9:57:b5, 2015-01-01 00:02:09.210,0.001,-0.001,0.996,0.061,0.061,0, , , , , , ,-0.093,-0.027,-112.308
 12:15:50.461,eb:33:2e:f9:57:b5, 2015-01-01 00:02:09.210,0.001,0,0.996,0.061,0.122,0, , , , , , ,-0.093,-0.027,-112.308
 12:15:50.461,eb:33:2e:f9:57:b5, 2015-01-01 00:02:09.210,0,-0.001,0.996,0.061,0.122,0, , , , , , ,-0.093,-0.027,-112.308
 12:15:50.461,eb:33:2e:f9:57:b5, 2015-01-01 00:02:09.210,0.001,-0.002,0.996,0,0.122,0, , , , , , ,-0.093,-0.027,-112.308
 12:15:50.461,eb:33:2e:f9:57:b5, 2015-01-01 00:02:09.210,0,-0.001,0.996,0,0.122,0, , , , , , ,-0.093,-0.027,-112.308
 12:15:50.506,eb:33:2e:f9:57:b5, 2015-01-01 00:02:09.210,0,-0.001,0.996,0,0.061,0, , , , , , ,-0.093,-0.027,-112.308
 12:15:50.506,eb:33:2e:f9:57:b5, 2015-01-01 00:02:09.210,0,-0.002,0.996,0,0.122,-0.061, , , , , , ,-0.093,-0.027,-112.308
 12:15:50.506,eb:33:2e:f9:57:b5, 2015-01-01 00:02:09.210,0,-0.001,0.997,0,0.061,0, , , , , , ,-0.093,-0.027,-112.308
 12:15:50.506,eb:33:2e:f9:57:b5, 2015-01-01 00:02:09.210,0,-0.001,0.996,0,0.122,0, , , , , , ,-0.093,-0.027,-112.308
 12:15:50.506,eb:33:2e:f9:57:b5, 2015-01-01 00:02:09.210,0,-0.001,0.996,0,0.061,0, , , , , , ,-0.093,-0.027,-112.308
 12:15:50.506,eb:33:2e:f9:57:b5, 2015-01-01 00:02:09.210,0.001,-0.001,0.996,0,0.061,0, , , , , , ,-0.093,-0.027,-112.308
 12:15:50.506,eb:33:2e:f9:57:b5, 2015-01-01 00:02:09.210,0.001,-0.001,0.996,0,0.122,0, , , , , , ,-0.093,-0.027,-112.308
 12:15:50.506,eb:33:2e:f9:57:b5, 2015-01-01 00:02:09.210,0.001,-0.001,0.996,0,0.061,-0.061, , , , , , ,-0.093,-0.027,-112.308
 12:15:50.550,eb:33:2e:f9:57:b5, 2015-01-01 00:02:09.210,0,-0.001,0.996,-0.061,0.122,0, , , , , , ,-0.093,-0.027,-112.308
 12:15:50.550,eb:33:2e:f9:57:b5, 2015-01-01 00:02:09.210,0,-0.001,0.996,-0.061,0.183,0, , , , , , ,-0.093,-0.027,-112.308
 12:15:50.550,eb:33:2e:f9:57:b5, 2015-01-01 00:02:09.210,0,-0.001,0.996,-0.061,0.183,0, , , , , , ,-0.093,-0.027,-112.308
 12:15:50.550,eb:33:2e:f9:57:b5, 2015-01-01 00:02:09.210,0,-0.002,0.995,-0.061,0.122,0, , , , , , ,-0.093,-0.027,-112.308
 12:15:50.550,eb:33:2e:f9:57:b5, 2015-01-01 00:02:09.210,0.001,-0.002,0.996,0,0.122,-0.061, , , , , , ,-0.093,-0.027,-112.308
 12:15:50.550,eb:33:2e:f9:57:b5, 2015-01-01 00:02:09.210,0.001,-0.002,0.996,0,0.061,0, , , , , , ,-0.093,-0.027,-112.308
 12:15:50.550,eb:33:2e:f9:57:b5, 2015-01-01 00:02:09.210,0.001,-0.001,0.996,-0.061,0.061,0, , , , , , ,-0.093,-0.027,-112.308
 12:15:50.550,eb:33:2e:f9:57:b5, 2015-01-01 00:02:09.210,0,-0.002,0.996,-0.122,0.061,-0.061, , , , , , ,-0.093,-0.027,-112.308
 12:15:50.595,eb:33:2e:f9:57:b5, 2015-01-01 00:02:09.520,0.001,-0.002,0.996,-0.122,0,0, , , , , , ,-0.093,-0.027,-112.308
 12:15:50.595,eb:33:2e:f9:57:b5, 2015-01-01 00:02:09.520,0,-0.002,0.996,-0.122,0.061,0, , , , , , ,-0.093,-0.027,-112.308
 12:15:50.595,eb:33:2e:f9:57:b5, 2015-01-01 00:02:09.520,0,-0.001,0.996,-0.122,0,0, , , , , , ,-0.093,-0.027,-112.308
 12:15:50.595,eb:33:2e:f9:57:b5, 2015-01-01 00:02:09.520,0,-0.002,0.996,-0.061,0,0, , , , , , ,-0.093,-0.027,-112.308
 12:15:50.595,eb:33:2e:f9:57:b5, 2015-01-01 00:02:09.520,0,-0.001,0.997,-0.061,0,-0.061, , , , , , ,-0.093,-0.027,-112.308
 12:15:50.595,eb:33:2e:f9:57:b5, 2015-01-01 00:02:09.520,0,-0.002,0.996,-0.061,0,-0.061, , , , , , ,-0.093,-0.027,-112.308
 12:15:50.595,eb:33:2e:f9:57:b5, 2015-01-01 00:02:09.520,0,-0.001,0.996,-0.061,0,-0.061, , , , , , ,-0.093,-0.027,-112.308
 12:15:50.595,eb:33:2e:f9:57:b5, 2015-01-01 00:02:09.520,0,-0.002,0.997,0,0,-0.061, , , , , , ,-0.093,-0.027,-112.308
 12:15:50.618,eb:33:2e:f9:57:b5, 2015-01-01 00:02:09.520,0,-0.003,0.997,0,0,-0.061, , , , , , ,-0.093,-0.027,-112.308
 12:15:50.618,eb:33:2e:f9:57:b5, 2015-01-01 00:02:09.520,0,-0.003,0.997,0,0,-0.061, , , , , , ,-0.093,-0.027,-112.308
 12:15:50.618,eb:33:2e:f9:57:b5, 2015-01-01 00:02:09.520,0,-0.001,0.997,0,-0.061,-0.061, , , , , , ,-0.093,-0.027,-112.308
 12:15:50.618,eb:33:2e:f9:57:b5, 2015-01-01 00:02:09.520,0.001,-0.002,0.997,0,-0.061,0, , , , , , ,-0.093,-0.027,-112.308
 12:15:50.618,eb:33:2e:f9:57:b5, 2015-01-01 00:02:09.520,0.001,-0.001,0.997,0,0,-0.061, , , , , , ,-0.093,-0.027,-112.308
 12:15:50.618,eb:33:2e:f9:57:b5, 2015-01-01 00:02:09.520,0,-0.001,0.997,0,0,0, , , , , , ,-0.093,-0.027,-112.308
 12:15:50.618,eb:33:2e:f9:57:b5, 2015-01-01 00:02:09.520,0.001,-0.002,0.997,0,0,-0.061, , , , , , ,-0.093,-0.027,-112.308
 12:15:50.618,eb:33:2e:f9:57:b5, 2015-01-01 00:02:09.520,0,-0.002,0.997,0,0,0, , , , , , ,-0.093,-0.027,-112.308
 12:15:50.662,eb:33:2e:f9:57:b5, 2015-01-01 00:02:09.520,0,-0.001,0.997,0,0,0, , , , , , ,-0.093,-0.027,-112.308
 12:15:50.662,eb:33:2e:f9:57:b5, 2015-01-01 00:02:09.520,0,-0.001,0.997,0,0,-0.061, , , , , , ,-0.093,-0.027,-112.308
 12:15:50.662,eb:33:2e:f9:57:b5, 2015-01-01 00:02:09.520,0,-0.002,0.997,0,0,0, , , , , , ,-0.093,-0.027,-112.308
 12:15:50.662,eb:33:2e:f9:57:b5, 2015-01-01 00:02:09.520,0,-0.002,0.997,0,0,-0.061, , , , , , ,-0.093,-0.027,-112.308
 12:15:50.663,eb:33:2e:f9:57:b5, 2015-01-01 00:02:09.520,0.001,-0.002,0.996,0,0,-0.061, , , , , , ,-0.093,-0.027,-112.308
 12:15:50.663,eb:33:2e:f9:57:b5, 2015-01-01 00:02:09.520,0.001,-0.002,0.996,0,0,0, , , , , , ,-0.093,-0.027,-112.308
 12:15:50.663,eb:33:2e:f9:57:b5, 2015-01-01 00:02:09.520,0.001,-0.002,0.996,0,0.061,-0.061, , , , , , ,-0.093,-0.027,-112.308
 12:15:50.663,eb:33:2e:f9:57:b5, 2015-01-01 00:02:09.520,0.001,-0.001,0.997,0,0,-0.061, , , , , , ,-0.093,-0.027,-112.308
 12:15:50.730,eb:33:2e:f9:57:b5, 2015-01-01 00:02:09.520,0.001,-0.001,0.997,0,0.061,0, , , , , , ,-0.093,-0.027,-112.308
 12:15:50.730,eb:33:2e:f9:57:b5, 2015-01-01 00:02:09.520,0.001,-0.002,0.996,0,0.061,0, , , , , , ,-0.093,-0.027,-112.308
 12:15:50.730,eb:33:2e:f9:57:b5, 2015-01-01 00:02:09.520,0.001,-0.001,0.997,0,0.061,0, , , , , , ,-0.093,-0.027,-112.308
 12:15:50.730,eb:33:2e:f9:57:b5, 2015-01-01 00:02:09.520,0.001,-0.002,0.997,0,0.061,-0.061, , , , , , ,-0.093,-0.027,-112.308
 12:15:50.730,eb:33:2e:f9:57:b5, 2015-01-01 00:02:09.520,0,-0.002,0.997,0,0.061,0, , , , , , ,-0.093,-0.027,-112.308
 12:15:50.730,eb:33:2e:f9:57:b5, 2015-01-01 00:02:09.520,0,-0.003,0.997,0.061,0,0, , , , , , ,-0.093,-0.027,-112.308
 12:15:50.730,eb:33:2e:f9:57:b5, 2015-01-01 00:02:09.520,0.001,-0.002,0.997,0,0.061,-0.061, , , , , , ,-0.093,-0.027,-112.308
 12:15:50.730,eb:33:2e:f9:57:b5, 2015-01-01 00:02:09.520,0,-0.002,0.996,0.061,0.061,-0.061, , , , , , ,-0.093,-0.027,-112.308
 12:15:50.799,eb:33:2e:f9:57:b5, 2015-01-01 00:02:09.520,0.001,-0.002,0.996,0.061,0.061,0, , , , , , ,-0.093,-0.027,-112.308
 12:15:50.799,eb:33:2e:f9:57:b5, 2015-01-01 00:02:09.520,0.001,-0.002,0.996,0,0.061,0, , , , , , ,-0.093,-0.027,-112.308
 12:15:50.799,eb:33:2e:f9:57:b5, 2015-01-01 00:02:09.520,0,-0.002,0.996,0,0.061,0, , , , , , ,-0.093,-0.027,-112.308
 12:15:50.799,eb:33:2e:f9:57:b5, 2015-01-01 00:02:09.520,0,-0.002,0.996,0,0.061,0, , , , , , ,-0.099,-0.027,-112.308
 12:15:50.799,eb:33:2e:f9:57:b5, 2015-01-01 00:02:09.520,0,-0.002,0.997,0,0.061,-0.061, , , , , , ,-0.099,-0.027,-112.308
 12:15:50.799,eb:33:2e:f9:57:b5, 2015-01-01 00:02:09.520,0,-0.002,0.997,0,0.061,-0.061, , , , , , ,-0.099,-0.027,-112.308
 12:15:50.799,eb:33:2e:f9:57:b5, 2015-01-01 00:02:09.520,0,-0.002,0.997,0,0.061,0, , , , , , ,-0.099,-0.027,-112.308
 12:15:50.799,eb:33:2e:f9:57:b5, 2015-01-01 00:02:09.520,0.001,-0.002,0.996,0,0.122,0, , , , , , ,-0.099,-0.027,-112.308
 12:15:50.821,eb:33:2e:f9:57:b5, 2015-01-01 00:02:09.520,0.002,-0.002,0.996,0,0.061,0, , , , , , ,-0.099,-0.027,-112.308
 12:15:50.821,eb:33:2e:f9:57:b5, 2015-01-01 00:02:09.520,0,-0.002,0.996,0,0.061,0, , , , , , ,-0.099,-0.027,-112.308
 12:15:50.821,eb:33:2e:f9:57:b5, 2015-01-01 00:02:09.520,0,-0.002,0.996,0,0.061,0, , , , , , ,-0.099,-0.027,-112.308
 12:15:50.821,eb:33:2e:f9:57:b5, 2015-01-01 00:02:09.520,0,-0.002,0.996,0,0.061,0, , , , , , ,-0.099,-0.027,-112.308
 12:15:50.821,eb:33:2e:f9:57:b5, 2015-01-01 00:02:09.520,0,-0.002,0.996,0,0.061,0, , , , , , ,-0.099,-0.027,-112.308
 12:15:50.821,eb:33:2e:f9:57:b5, 2015-01-01 00:02:09.520,0,-0.002,0.996,0,0,0, , , , , , ,-0.099,-0.027,-112.308
 12:15:50.821,eb:33:2e:f9:57:b5, 2015-01-01 00:02:09.520,0,-0.002,0.997,0,0.061,0, , , , , , ,-0.099,-0.027,-112.308
 12:15:50.821,eb:33:2e:f9:57:b5, 2015-01-01 00:02:09.520,0,-0.002,0.996,0,0.122,0, , , , , , ,-0.099,-0.027,-112.308
 12:15:50.825,eb:33:2e:f9:57:b5, 2015-01-01 00:02:09.520,0.001,-0.002,0.996,0,0.061,0, , , , , , ,-0.099,-0.027,-112.308
 12:15:50.825,eb:33:2e:f9:57:b5, 2015-01-01 00:02:09.520,0.001,-0.002,0.996,-0.061,0.061,0, , , , , , ,-0.099,-0.027,-112.308
 12:15:50.825,eb:33:2e:f9:57:b5, 2015-01-01 00:02:09.520,0.001,-0.002,0.996,0,0.061,0, , , , , , ,-0.099,-0.027,-112.308
 12:15:50.825,eb:33:2e:f9:57:b5, 2015-01-01 00:02:09.520,0,-0.002,0.997,-0.061,0,0, , , , , , ,-0.099,-0.027,-112.308
 12:15:50.825,eb:33:2e:f9:57:b5, 2015-01-01 00:02:09.520,0,-0.002,0.997,0,0.061,0, , , , , , ,-0.099,-0.027,-112.308
 12:15:50.825,eb:33:2e:f9:57:b5, 2015-01-01 00:02:09.520,0,-0.003,0.997,0,0,0, , , , , , ,-0.099,-0.027,-112.308
 12:15:50.825,eb:33:2e:f9:57:b5, 2015-01-01 00:02:09.520,0,-0.002,0.996,-0.061,0,0, , , , , , ,-0.099,-0.027,-112.308
 12:15:50.825,eb:33:2e:f9:57:b5, 2015-01-01 00:02:09.520,0,-0.002,0.996,0,0,0, , , , , , ,-0.099,-0.027,-112.308
 12:15:50.865,eb:33:2e:f9:57:b5, 2015-01-01 00:02:09.520,0,-0.002,0.997,-0.061,0,0, , , , , , ,-0.099,-0.027,-112.308
 12:15:50.865,eb:33:2e:f9:57:b5, 2015-01-01 00:02:09.520,0,-0.003,0.997,0,0,0, , , , , , ,-0.099,-0.027,-112.308
 12:15:50.865,eb:33:2e:f9:57:b5, 2015-01-01 00:02:09.520,0,-0.002,0.997,-0.061,0,0, , , , , , ,-0.099,-0.027,-112.308
 12:15:50.865,eb:33:2e:f9:57:b5, 2015-01-01 00:02:09.520,0,-0.002,0.997,-0.061,0,0, , , , , , ,-0.099,-0.027,-112.308
 12:15:50.865,eb:33:2e:f9:57:b5, 2015-01-01 00:02:09.520,0,-0.002,0.996,-0.061,0,0, , , , , , ,-0.099,-0.027,-112.308
 12:15:50.865,eb:33:2e:f9:57:b5, 2015-01-01 00:02:09.520,0.001,-0.002,0.996,0,0,0, , , , , , ,-0.099,-0.027,-112.308
 12:15:50.865,eb:33:2e:f9:57:b5, 2015-01-01 00:02:09.520,0,-0.002,0.996,0,0,0, , , , , , ,-0.099,-0.027,-112.308
 12:15:50.865,eb:33:2e:f9:57:b5, 2015-01-01 00:02:09.520,0,-0.002,0.997,0,0,0, , , , , , ,-0.099,-0.027,-112.308
 12:15:50.911,eb:33:2e:f9:57:b5, 2015-01-01 00:02:09.520,0.001,-0.002,0.997,0,0,0, , , , , , ,-0.099,-0.027,-112.308
 12:15:50.911,eb:33:2e:f9:57:b5, 2015-01-01 00:02:09.520,0.001,-0.003,0.997,0,0,0, , , , , , ,-0.099,-0.027,-112.308
 12:15:50.911,eb:33:2e:f9:57:b5, 2015-01-01 00:02:09.520,0.001,-0.004,0.996,0,0,0.061, , , , , , ,-0.099,-0.027,-112.308
 12:15:50.911,eb:33:2e:f9:57:b5, 2015-01-01 00:02:09.520,0,-0.001,0.995,0,0,0, , , , , , ,-0.099,-0.027,-112.308
 12:15:50.911,eb:33:2e:f9:57:b5, 2015-01-01 00:02:09.520,0.002,-0.001,0.995,0,0,0.061, , , , , , ,-0.099,-0.027,-112.308
 12:15:50.911,eb:33:2e:f9:57:b5, 2015-01-01 00:02:09.520,0.001,-0.002,0.996,-0.061,0,0, , , , , , ,-0.099,-0.027,-112.308
 12:15:50.911,eb:33:2e:f9:57:b5, 2015-01-01 00:02:09.520,0.001,-0.003,0.997,-0.061,0,0.061, , , , , , ,-0.099,-0.027,-112.308
 12:15:50.911,eb:33:2e:f9:57:b5, 2015-01-01 00:02:09.520,0,-0.002,0.997,0,0,0.061, , , , , , ,-0.099,-0.027,-112.308
 12:15:51.001,eb:33:2e:f9:57:b5, 2015-01-01 00:02:09.880,0.001,-0.003,0.996,0,0,0.061, , , , , , ,-0.099,-0.027,-112.308
 12:15:51.001,eb:33:2e:f9:57:b5, 2015-01-01 00:02:09.880,0.001,-0.002,0.995,0,0,0.061, , , , , , ,-0.099,-0.027,-112.308
 12:15:51.001,eb:33:2e:f9:57:b5, 2015-01-01 00:02:09.880,0.001,-0.002,0.996,0,0,0, , , , , , ,-0.099,-0.027,-112.308
 12:15:51.001,eb:33:2e:f9:57:b5, 2015-01-01 00:02:09.880,0.001,-0.002,0.996,0,0,0, , , , , , ,-0.099,-0.027,-112.308
 12:15:51.001,eb:33:2e:f9:57:b5, 2015-01-01 00:02:09.880,0.002,-0.002,0.997,0,0,0, , , , , , ,-0.099,-0.027,-112.308
 12:15:51.001,eb:33:2e:f9:57:b5, 2015-01-01 00:02:09.880,0,-0.003,0.996,0,0,0, , , , , , ,-0.099,-0.027,-112.308
 12:15:51.001,eb:33:2e:f9:57:b5, 2015-01-01 00:02:09.880,0.001,-0.003,0.995,0,0,0.061, , , , , , ,-0.099,-0.027,-112.308
 12:15:51.002,eb:33:2e:f9:57:b5, 2015-01-01 00:02:09.880,0.001,-0.002,0.997,-0.061,0,0.061, , , , , , ,-0.099,-0.027,-112.308
 12:15:51.022,eb:33:2e:f9:57:b5, 2015-01-01 00:02:09.880,0.001,-0.002,0.996,0,-0.061,0, , , , , , ,-0.099,-0.027,-112.308
 12:15:51.022,eb:33:2e:f9:57:b5, 2015-01-01 00:02:09.880,0,-0.002,0.997,0,0,0.061, , , , , , ,-0.099,-0.027,-112.308
 12:15:51.022,eb:33:2e:f9:57:b5, 2015-01-01 00:02:09.880,0.001,-0.003,0.996,0,0,0.061, , , , , , ,-0.099,-0.027,-112.308
 12:15:51.022,eb:33:2e:f9:57:b5, 2015-01-01 00:02:09.880,0,-0.003,0.996,0,0,0.122, , , , , , ,-0.099,-0.033,-112.308
 12:15:51.022,eb:33:2e:f9:57:b5, 2015-01-01 00:02:09.880,0.001,-0.002,0.996,0,-0.061,0.061, , , , , , ,-0.099,-0.033,-112.308
 12:15:51.022,eb:33:2e:f9:57:b5, 2015-01-01 00:02:09.880,0.001,-0.001,0.996,0,0,0, , , , , , ,-0.099,-0.033,-112.308
 12:15:51.022,eb:33:2e:f9:57:b5, 2015-01-01 00:02:09.880,0,-0.001,0.997,0,0,0, , , , , , ,-0.099,-0.033,-112.308
 12:15:51.022,eb:33:2e:f9:57:b5, 2015-01-01 00:02:09.880,0.001,-0.002,0.996,0,0,0.061, , , , , , ,-0.099,-0.033,-112.308
 12:15:51.024,eb:33:2e:f9:57:b5, 2015-01-01 00:02:09.880,0.001,-0.002,0.996,0,0,0.061, , , , , , ,-0.099,-0.033,-112.308
 12:15:51.024,eb:33:2e:f9:57:b5, 2015-01-01 00:02:09.880,0.001,-0.003,0.997,0,0,0.061, , , , , , ,-0.099,-0.033,-112.308
 12:15:51.024,eb:33:2e:f9:57:b5, 2015-01-01 00:02:09.880,0.001,-0.002,0.997,0,0,0.061, , , , , , ,-0.099,-0.033,-112.308
 12:15:51.024,eb:33:2e:f9:57:b5, 2015-01-01 00:02:09.880,0.001,-0.002,0.996,0,0,0, , , , , , ,-0.099,-0.033,-112.313
 12:15:51.024,eb:33:2e:f9:57:b5, 2015-01-01 00:02:09.880,0.002,-0.003,0.997,0,0,0, , , , , , ,-0.099,-0.033,-112.313
 12:15:51.024,eb:33:2e:f9:57:b5, 2015-01-01 00:02:09.880,0.001,-0.002,0.997,0,0,0, , , , , , ,-0.099,-0.033,-112.313
 12:15:51.024,eb:33:2e:f9:57:b5, 2015-01-01 00:02:09.880,0.001,-0.003,0.997,0,0.061,0.061, , , , , , ,-0.099,-0.033,-112.313
 12:15:51.024,eb:33:2e:f9:57:b5, 2015-01-01 00:02:09.880,0.001,-0.002,0.996,0,0.061,0, , , , , , ,-0.099,-0.033,-112.313
 12:15:51.089,eb:33:2e:f9:57:b5, 2015-01-01 00:02:09.880,0.001,-0.002,0.996,0,0.061,0, , , , , , ,-0.099,-0.033,-112.313
 12:15:51.089,eb:33:2e:f9:57:b5, 2015-01-01 00:02:09.880,0.001,-0.003,0.996,0,0.122,0, , , , , , ,-0.099,-0.033,-112.313
 12:15:51.089,eb:33:2e:f9:57:b5, 2015-01-01 00:02:09.880,0.001,-0.003,0.996,0,0.061,0, , , , , , ,-0.099,-0.033,-112.313
 12:15:51.089,eb:33:2e:f9:57:b5, 2015-01-01 00:02:09.880,0,-0.002,0.996,0,0.122,0, , , , , , ,-0.099,-0.033,-112.313
 12:15:51.089,eb:33:2e:f9:57:b5, 2015-01-01 00:02:09.880,0.001,-0.003,0.996,0,0.183,0, , , , , , ,-0.099,-0.033,-112.313
 12:15:51.089,eb:33:2e:f9:57:b5, 2015-01-01 00:02:09.880,0.002,-0.002,0.996,0,0.122,0, , , , , , ,-0.099,-0.033,-112.313
 12:15:51.089,eb:33:2e:f9:57:b5, 2015-01-01 00:02:09.880,0.001,-0.003,0.997,0,0.122,0, , , , , , ,-0.099,-0.033,-112.313
 12:15:51.089,eb:33:2e:f9:57:b5, 2015-01-01 00:02:09.880,0.001,-0.003,0.997,0,0.061,0, , , , , , ,-0.099,-0.033,-112.313
 12:15:51.135,eb:33:2e:f9:57:b5, 2015-01-01 00:02:09.880,0.002,-0.002,0.997,0,0.122,0, , , , , , ,-0.099,-0.033,-112.313
 12:15:51.135,eb:33:2e:f9:57:b5, 2015-01-01 00:02:09.880,0.001,-0.002,0.997,0,0.122,0, , , , , , ,-0.099,-0.033,-112.313
 12:15:51.135,eb:33:2e:f9:57:b5, 2015-01-01 00:02:09.880,0,-0.003,0.996,0,0.122,0, , , , , , ,-0.099,-0.033,-112.313
 12:15:51.135,eb:33:2e:f9:57:b5, 2015-01-01 00:02:09.880,0.001,-0.003,0.997,-0.061,0.122,0, , , , , , ,-0.099,-0.033,-112.313
 12:15:51.135,eb:33:2e:f9:57:b5, 2015-01-01 00:02:09.880,0.001,-0.003,0.996,0,0.061,0, , , , , , ,-0.099,-0.033,-112.313
 12:15:51.135,eb:33:2e:f9:57:b5, 2015-01-01 00:02:09.880,0.002,-0.002,0.996,0,0.061,0, , , , , , ,-0.099,-0.033,-112.313
 12:15:51.135,eb:33:2e:f9:57:b5, 2015-01-01 00:02:09.880,0.004,-0.002,0.997,0,0.122,0, , , , , , ,-0.099,-0.033,-112.313
 12:15:51.135,eb:33:2e:f9:57:b5, 2015-01-01 00:02:09.880,-0.002,-0.003,0.998,0,0.183,0, , , , , , ,-0.099,-0.033,-112.313
 12:15:51.181,eb:33:2e:f9:57:b5, 2015-01-01 00:02:09.880,0,-0.004,0.995,0,0,0, , , , , , ,-0.099,-0.033,-112.313
 12:15:51.181,eb:33:2e:f9:57:b5, 2015-01-01 00:02:09.880,0.001,-0.003,0.996,0,0,0, , , , , , ,-0.099,-0.033,-112.313
 12:15:51.181,eb:33:2e:f9:57:b5, 2015-01-01 00:02:09.880,0.001,-0.003,0.997,0,0,0, , , , , , ,-0.099,-0.033,-112.313
 12:15:51.181,eb:33:2e:f9:57:b5, 2015-01-01 00:02:09.880,0,-0.003,0.997,0,0.061,0, , , , , , ,-0.104,-0.033,-112.313
 12:15:51.181,eb:33:2e:f9:57:b5, 2015-01-01 00:02:09.880,0.002,-0.003,0.997,0,0,0, , , , , , ,-0.104,-0.033,-112.313
 12:15:51.181,eb:33:2e:f9:57:b5, 2015-01-01 00:02:09.880,0,-0.002,0.997,0,0,0, , , , , , ,-0.104,-0.033,-112.313
 12:15:51.181,eb:33:2e:f9:57:b5, 2015-01-01 00:02:09.880,0,-0.003,0.996,0,0,0, , , , , , ,-0.104,-0.033,-112.313
 12:15:51.181,eb:33:2e:f9:57:b5, 2015-01-01 00:02:09.880,0,-0.002,0.996,0,0,0, , , , , , ,-0.104,-0.033,-112.313
 12:15:51.202,eb:33:2e:f9:57:b5, 2015-01-01 00:02:09.880,0,-0.002,0.997,0,0,0, , , , , , ,-0.104,-0.033,-112.313
 12:15:51.202,eb:33:2e:f9:57:b5, 2015-01-01 00:02:09.880,0.001,-0.003,0.996,0,0,0, , , , , , ,-0.104,-0.033,-112.313
 12:15:51.202,eb:33:2e:f9:57:b5, 2015-01-01 00:02:09.880,0.001,-0.003,0.997,0,0,0, , , , , , ,-0.104,-0.033,-112.313
 12:15:51.202,eb:33:2e:f9:57:b5, 2015-01-01 00:02:09.880,0,-0.002,0.997,0.061,0,0, , , , , , ,-0.104,-0.033,-112.313
 12:15:51.202,eb:33:2e:f9:57:b5, 2015-01-01 00:02:09.880,0.001,-0.003,0.996,0,0,0, , , , , , ,-0.104,-0.033,-112.313
 12:15:51.202,eb:33:2e:f9:57:b5, 2015-01-01 00:02:09.880,0.002,-0.002,0.997,0.061,0,0, , , , , , ,-0.104,-0.033,-112.313
 12:15:51.202,eb:33:2e:f9:57:b5, 2015-01-01 00:02:09.880,0.001,-0.003,0.997,0,0,0, , , , , , ,-0.104,-0.033,-112.313
 12:15:51.202,eb:33:2e:f9:57:b5, 2015-01-01 00:02:09.880,0,-0.002,0.996,0,0,0, , , , , , ,-0.104,-0.033,-112.313
 12:15:51.247,eb:33:2e:f9:57:b5, 2015-01-01 00:02:09.880,0.001,-0.003,0.996,0.061,0,0, , , , , , ,-0.104,-0.033,-112.313
 12:15:51.247,eb:33:2e:f9:57:b5, 2015-01-01 00:02:09.880,0.001,-0.003,0.997,0,0,0, , , , , , ,-0.104,-0.033,-112.313
 12:15:51.247,eb:33:2e:f9:57:b5, 2015-01-01 00:02:09.880,0.001,-0.002,0.998,0.061,0.061,0, , , , , , ,-0.104,-0.033,-112.313
 12:15:51.247,eb:33:2e:f9:57:b5, 2015-01-01 00:02:09.880,0.002,-0.003,0.997,0,0.061,0, , , , , , ,-0.104,-0.033,-112.313
 12:15:51.247,eb:33:2e:f9:57:b5, 2015-01-01 00:02:09.880,0.001,-0.003,0.996,0,0.061,0, , , , , , ,-0.104,-0.033,-112.313
 12:15:51.247,eb:33:2e:f9:57:b5, 2015-01-01 00:02:09.880,0.002,-0.003,0.997,0,0.061,0, , , , , , ,-0.104,-0.033,-112.313
 12:15:51.249,eb:33:2e:f9:57:b5, 2015-01-01 00:02:09.880,0.001,-0.002,0.996,0.061,0.122,0, , , , , , ,-0.104,-0.033,-112.313
 12:15:51.249,eb:33:2e:f9:57:b5, 2015-01-01 00:02:09.880,0.001,-0.003,0.996,0,0.122,0, , , , , , ,-0.104,-0.033,-112.313
 12:15:51.271,eb:33:2e:f9:57:b5, 2015-01-01 00:02:09.880,0.001,-0.002,0.997,0,0.061,0, , , , , , ,-0.104,-0.033,-112.313
 12:15:51.271,eb:33:2e:f9:57:b5, 2015-01-01 00:02:09.880,0.001,-0.003,0.997,0,0.122,0, , , , , , ,-0.104,-0.033,-112.313
 12:15:51.271,eb:33:2e:f9:57:b5, 2015-01-01 00:02:09.880,0.001,-0.002,0.996,0.061,0.122,0, , , , , , ,-0.104,-0.033,-112.313
 12:15:51.271,eb:33:2e:f9:57:b5, 2015-01-01 00:02:09.880,0.001,-0.002,0.997,0,0.122,0, , , , , , ,-0.104,-0.033,-112.313
 12:15:51.271,eb:33:2e:f9:57:b5, 2015-01-01 00:02:09.880,0.001,-0.002,0.997,0.061,0.122,0, , , , , , ,-0.104,-0.033,-112.313
 12:15:51.271,eb:33:2e:f9:57:b5, 2015-01-01 00:02:09.880,0.001,-0.003,0.996,0,0.122,0, , , , , , ,-0.104,-0.033,-112.313
 12:15:51.272,eb:33:2e:f9:57:b5, 2015-01-01 00:02:09.880,0.001,-0.003,0.996,0,0.122,0, , , , , , ,-0.104,-0.033,-112.313
 12:15:51.272,eb:33:2e:f9:57:b5, 2015-01-01 00:02:09.880,0,-0.003,0.996,0,0.122,0, , , , , , ,-0.104,-0.033,-112.313
 12:15:51.315,eb:33:2e:f9:57:b5, 2015-01-01 00:02:10.215,0,-0.004,0.996,0,0.061,0, , , , , , ,-0.104,-0.033,-112.313
 12:15:51.315,eb:33:2e:f9:57:b5, 2015-01-01 00:02:10.215,0.001,-0.003,0.996,0,0.122,0, , , , , , ,-0.104,-0.033,-112.313
 12:15:51.315,eb:33:2e:f9:57:b5, 2015-01-01 00:02:10.215,0.001,-0.003,0.996,0,0.061,0.061, , , , , , ,-0.104,-0.033,-112.313
 12:15:51.315,eb:33:2e:f9:57:b5, 2015-01-01 00:02:10.215,0,-0.002,0.996,0,0.122,0, , , , , , ,-0.104,-0.033,-112.313
 12:15:51.315,eb:33:2e:f9:57:b5, 2015-01-01 00:02:10.215,0.001,-0.003,0.996,0,0.061,0, , , , , , ,-0.104,-0.033,-112.313
 12:15:51.315,eb:33:2e:f9:57:b5, 2015-01-01 00:02:10.215,0.001,-0.003,0.996,0,0.061,0, , , , , , ,-0.104,-0.033,-112.313
 12:15:51.315,eb:33:2e:f9:57:b5, 2015-01-01 00:02:10.215,0.001,-0.003,0.996,0,0.061,0.061, , , , , , ,-0.104,-0.033,-112.313
 12:15:51.315,eb:33:2e:f9:57:b5, 2015-01-01 00:02:10.215,0.001,-0.002,0.996,0,0.061,0.061, , , , , , ,-0.104,-0.033,-112.313
 12:15:51.360,eb:33:2e:f9:57:b5, 2015-01-01 00:02:10.215,0.001,-0.003,0.997,0,0.061,0.061, , , , , , ,-0.104,-0.033,-112.313
 12:15:51.360,eb:33:2e:f9:57:b5, 2015-01-01 00:02:10.215,0.001,-0.003,0.996,0,0.061,0, , , , , , ,-0.104,-0.033,-112.313
 12:15:51.360,eb:33:2e:f9:57:b5, 2015-01-01 00:02:10.215,0.001,-0.003,0.996,0.061,0.061,0.061, , , , , , ,-0.104,-0.033,-112.313
 12:15:51.360,eb:33:2e:f9:57:b5, 2015-01-01 00:02:10.215,0.001,-0.003,0.996,0,0.061,0.061, , , , , , ,-0.104,-0.033,-112.313
 12:15:51.360,eb:33:2e:f9:57:b5, 2015-01-01 00:02:10.215,0.001,-0.003,0.996,0,0.061,0.061, , , , , , ,-0.104,-0.033,-112.313
 12:15:51.360,eb:33:2e:f9:57:b5, 2015-01-01 00:02:10.215,0.001,-0.003,0.996,0.061,0.061,0, , , , , , ,-0.104,-0.033,-112.313
 12:15:51.360,eb:33:2e:f9:57:b5, 2015-01-01 00:02:10.215,0.001,-0.003,0.996,0,0.061,0.061, , , , , , ,-0.104,-0.033,-112.313
 12:15:51.360,eb:33:2e:f9:57:b5, 2015-01-01 00:02:10.215,0,-0.003,0.997,0,0.061,0, , , , , , ,-0.104,-0.033,-112.313
 12:15:51.382,eb:33:2e:f9:57:b5, 2015-01-01 00:02:10.215,0,-0.003,0.996,0,0.061,0, , , , , , ,-0.104,-0.033,-112.313
 12:15:51.382,eb:33:2e:f9:57:b5, 2015-01-01 00:02:10.215,0.001,-0.003,0.998,0,0.061,0.122, , , , , , ,-0.104,-0.033,-112.313
 12:15:51.382,eb:33:2e:f9:57:b5, 2015-01-01 00:02:10.215,0.001,-0.002,0.996,0,0.061,0.061, , , , , , ,-0.104,-0.033,-112.313
 12:15:51.382,eb:33:2e:f9:57:b5, 2015-01-01 00:02:10.215,0.001,-0.003,0.997,0,0.061,0.061, , , , , , ,-0.104,-0.033,-112.313
 12:15:51.382,eb:33:2e:f9:57:b5, 2015-01-01 00:02:10.215,0.002,-0.002,0.996,0,0.061,0.061, , , , , , ,-0.104,-0.033,-112.313
 12:15:51.383,eb:33:2e:f9:57:b5, 2015-01-01 00:02:10.215,0.001,-0.002,0.996,0.061,0.061,0.061, , , , , , ,-0.104,-0.033,-112.313
 12:15:51.383,eb:33:2e:f9:57:b5, 2015-01-01 00:02:10.215,0.001,-0.003,0.996,0.061,0.061,0.061, , , , , , ,-0.104,-0.033,-112.313
 12:15:51.383,eb:33:2e:f9:57:b5, 2015-01-01 00:02:10.215,0.002,-0.003,0.996,0,0.061,0.061, , , , , , ,-0.104,-0.033,-112.313
 12:15:51.427,eb:33:2e:f9:57:b5, 2015-01-01 00:02:10.215,0.001,-0.002,0.996,0,0.061,0, , , , , , ,-0.104,-0.033,-112.313
 12:15:51.427,eb:33:2e:f9:57:b5, 2015-01-01 00:02:10.215,0.001,-0.003,0.996,0,0.122,0.061, , , , , , ,-0.104,-0.033,-112.313
 12:15:51.427,eb:33:2e:f9:57:b5, 2015-01-01 00:02:10.215,0.001,-0.003,0.996,0,0.122,0, , , , , , ,-0.104,-0.033,-112.313
 12:15:51.427,eb:33:2e:f9:57:b5, 2015-01-01 00:02:10.215,0,-0.002,0.996,-0.061,0.122,0.061, , , , , , ,-0.11,-0.033,-112.313
 12:15:51.427,eb:33:2e:f9:57:b5, 2015-01-01 00:02:10.215,0,-0.003,0.997,-0.061,0.122,0.122, , , , , , ,-0.11,-0.033,-112.313
 12:15:51.427,eb:33:2e:f9:57:b5, 2015-01-01 00:02:10.215,0.001,-0.002,0.996,0,0.183,0, , , , , , ,-0.11,-0.033,-112.313
 12:15:51.427,eb:33:2e:f9:57:b5, 2015-01-01 00:02:10.215,0.001,-0.003,0.997,0,0.122,0.061, , , , , , ,-0.11,-0.033,-112.313
 12:15:51.427,eb:33:2e:f9:57:b5, 2015-01-01 00:02:10.215,0.001,-0.003,0.996,-0.061,0.183,0.061, , , , , , ,-0.11,-0.033,-112.313
 12:15:51.474,eb:33:2e:f9:57:b5, 2015-01-01 00:02:10.215,0.001,-0.003,0.997,-0.061,0.244,0.061, , , , , , ,-0.11,-0.033,-112.313
 12:15:51.474,eb:33:2e:f9:57:b5, 2015-01-01 00:02:10.215,0,-0.003,0.997,0,0.183,0.122, , , , , , ,-0.11,-0.033,-112.313
 12:15:51.474,eb:33:2e:f9:57:b5, 2015-01-01 00:02:10.215,0.001,-0.003,0.996,-0.061,0.183,0.061, , , , , , ,-0.11,-0.033,-112.313
 12:15:51.474,eb:33:2e:f9:57:b5, 2015-01-01 00:02:10.215,0,-0.002,0.996,0,0.183,0.061, , , , , , ,-0.11,-0.038,-112.313
 12:15:51.474,eb:33:2e:f9:57:b5, 2015-01-01 00:02:10.215,0,-0.002,0.997,0,0.183,0, , , , , , ,-0.11,-0.038,-112.313
 12:15:51.474,eb:33:2e:f9:57:b5, 2015-01-01 00:02:10.215,0,-0.002,0.996,-0.061,0.183,0, , , , , , ,-0.11,-0.038,-112.313
 12:15:51.474,eb:33:2e:f9:57:b5, 2015-01-01 00:02:10.215,0.001,-0.003,0.996,0,0.183,0, , , , , , ,-0.11,-0.038,-112.313
 12:15:51.474,eb:33:2e:f9:57:b5, 2015-01-01 00:02:10.215,0.001,-0.003,0.996,0,0.183,0.061, , , , , , ,-0.11,-0.038,-112.313
 12:15:51.519,eb:33:2e:f9:57:b5, 2015-01-01 00:02:10.215,0,-0.003,0.996,0,0.183,0.061, , , , , , ,-0.11,-0.038,-112.313
 12:15:51.519,eb:33:2e:f9:57:b5, 2015-01-01 00:02:10.215,0.001,-0.003,0.996,-0.061,0.183,0, , , , , , ,-0.11,-0.038,-112.313
 12:15:51.519,eb:33:2e:f9:57:b5, 2015-01-01 00:02:10.215,0.001,-0.002,0.997,-0.061,0.183,0, , , , , , ,-0.11,-0.038,-112.313
 12:15:51.519,eb:33:2e:f9:57:b5, 2015-01-01 00:02:10.215,0.001,-0.002,0.996,-0.061,0.244,0, , , , , , ,-0.11,-0.038,-112.313
 12:15:51.519,eb:33:2e:f9:57:b5, 2015-01-01 00:02:10.215,0.001,-0.003,0.997,-0.061,0.244,0, , , , , , ,-0.11,-0.038,-112.313
 12:15:51.519,eb:33:2e:f9:57:b5, 2015-01-01 00:02:10.215,0.001,-0.002,0.997,-0.061,0.305,0, , , , , , ,-0.11,-0.038,-112.313
 12:15:51.519,eb:33:2e:f9:57:b5, 2015-01-01 00:02:10.215,0.001,-0.003,0.997,-0.061,0.305,0.061, , , , , , ,-0.11,-0.038,-112.313
 12:15:51.519,eb:33:2e:f9:57:b5, 2015-01-01 00:02:10.215,0.001,-0.002,0.996,-0.061,0.305,0, , , , , , ,-0.11,-0.038,-112.313
 12:15:51.563,eb:33:2e:f9:57:b5, 2015-01-01 00:02:10.215,0.001,-0.003,0.997,-0.061,0.366,0, , , , , , ,-0.11,-0.038,-112.313
 12:15:51.563,eb:33:2e:f9:57:b5, 2015-01-01 00:02:10.215,0,-0.003,0.996,-0.122,0.366,0, , , , , , ,-0.11,-0.038,-112.313
 12:15:51.563,eb:33:2e:f9:57:b5, 2015-01-01 00:02:10.215,0,-0.003,0.996,-0.122,0.366,0, , , , , , ,-0.11,-0.038,-112.313
 12:15:51.563,eb:33:2e:f9:57:b5, 2015-01-01 00:02:10.215,0,-0.002,0.996,-0.122,0.427,0, , , , , , ,-0.11,-0.038,-112.313
 12:15:51.563,eb:33:2e:f9:57:b5, 2015-01-01 00:02:10.215,0,-0.004,0.997,-0.122,0.366,0, , , , , , ,-0.11,-0.038,-112.313
 12:15:51.563,eb:33:2e:f9:57:b5, 2015-01-01 00:02:10.215,0.001,-0.003,0.997,-0.122,0.427,0.061, , , , , , ,-0.11,-0.038,-112.313
 12:15:51.563,eb:33:2e:f9:57:b5, 2015-01-01 00:02:10.215,0,-0.004,0.995,-0.061,0.427,0, , , , , , ,-0.11,-0.038,-112.313
 12:15:51.563,eb:33:2e:f9:57:b5, 2015-01-01 00:02:10.215,0,-0.004,0.996,-0.061,0.366,0.061, , , , , , ,-0.11,-0.038,-112.313
 12:15:51.608,eb:33:2e:f9:57:b5, 2015-01-01 00:02:10.525,0,-0.003,0.997,-0.122,0.427,0, , , , , , ,-0.11,-0.038,-112.313
 12:15:51.608,eb:33:2e:f9:57:b5, 2015-01-01 00:02:10.525,0,-0.004,0.996,-0.122,0.305,0.061, , , , , , ,-0.11,-0.038,-112.313
 12:15:51.608,eb:33:2e:f9:57:b5, 2015-01-01 00:02:10.525,0,-0.004,0.997,-0.122,0.366,0, , , , , , ,-0.11,-0.038,-112.313
 12:15:51.608,eb:33:2e:f9:57:b5, 2015-01-01 00:02:10.525,0,-0.004,0.996,-0.122,0.366,0, , , , , , ,-0.11,-0.038,-112.313
 12:15:51.608,eb:33:2e:f9:57:b5, 2015-01-01 00:02:10.525,0,-0.004,0.996,-0.122,0.366,0, , , , , , ,-0.11,-0.038,-112.313
 12:15:51.608,eb:33:2e:f9:57:b5, 2015-01-01 00:02:10.525,0,-0.004,0.996,-0.122,0.366,0, , , , , , ,-0.11,-0.038,-112.313
 12:15:51.608,eb:33:2e:f9:57:b5, 2015-01-01 00:02:10.525,0,-0.004,0.996,-0.061,0.305,0.061, , , , , , ,-0.11,-0.038,-112.313
 12:15:51.609,eb:33:2e:f9:57:b5, 2015-01-01 00:02:10.525,0,-0.004,0.996,-0.061,0.366,0, , , , , , ,-0.11,-0.038,-112.313
 12:15:51.630,eb:33:2e:f9:57:b5, 2015-01-01 00:02:10.525,0,-0.003,0.996,-0.061,0.305,0, , , , , , ,-0.11,-0.038,-112.313
 12:15:51.630,eb:33:2e:f9:57:b5, 2015-01-01 00:02:10.525,0,-0.002,0.996,-0.061,0.305,0, , , , , , ,-0.11,-0.038,-112.313
 12:15:51.630,eb:33:2e:f9:57:b5, 2015-01-01 00:02:10.525,0,-0.003,0.996,-0.061,0.305,0, , , , , , ,-0.11,-0.038,-112.313
 12:15:51.630,eb:33:2e:f9:57:b5, 2015-01-01 00:02:10.525,0,-0.004,0.995,-0.061,0.366,0, , , , , , ,-0.11,-0.038,-112.313
 12:15:51.630,eb:33:2e:f9:57:b5, 2015-01-01 00:02:10.525,0.003,-0.002,0.997,-0.122,0.366,-0.061, , , , , , ,-0.11,-0.038,-112.313
 12:15:51.630,eb:33:2e:f9:57:b5, 2015-01-01 00:02:10.525,0,-0.002,1,-0.061,0.549,-0.061, , , , , , ,-0.11,-0.038,-112.313
 12:15:51.630,eb:33:2e:f9:57:b5, 2015-01-01 00:02:10.525,0.001,-0.003,0.998,-0.122,0.61,0, , , , , , ,-0.11,-0.038,-112.313
 12:15:51.630,eb:33:2e:f9:57:b5, 2015-01-01 00:02:10.525,0.001,-0.004,0.998,-0.122,0.671,-0.061, , , , , , ,-0.11,-0.038,-112.313
 12:15:51.719,eb:33:2e:f9:57:b5, 2015-01-01 00:02:10.525,0,-0.004,0.997,-0.061,0.732,-0.122, , , , , , ,-0.11,-0.038,-112.313
 12:15:51.719,eb:33:2e:f9:57:b5, 2015-01-01 00:02:10.525,0,-0.004,0.997,-0.061,0.732,-0.061, , , , , , ,-0.11,-0.038,-112.313
 12:15:51.719,eb:33:2e:f9:57:b5, 2015-01-01 00:02:10.525,0,-0.003,0.998,-0.061,0.732,-0.122, , , , , , ,-0.11,-0.038,-112.313
 12:15:51.719,eb:33:2e:f9:57:b5, 2015-01-01 00:02:10.525,0,-0.003,0.997,0,0.793,-0.122, , , , , , ,-0.11,-0.038,-112.313
 12:15:51.719,eb:33:2e:f9:57:b5, 2015-01-01 00:02:10.525,0,-0.004,0.998,0,0.854,-0.122, , , , , , ,-0.11,-0.038,-112.313
 12:15:51.719,eb:33:2e:f9:57:b5, 2015-01-01 00:02:10.525,0,-0.003,0.997,0,0.916,-0.183, , , , , , ,-0.11,-0.038,-112.313
 12:15:51.719,eb:33:2e:f9:57:b5, 2015-01-01 00:02:10.525,0,-0.004,0.997,0,0.916,-0.122, , , , , , ,-0.11,-0.038,-112.313
 12:15:51.719,eb:33:2e:f9:57:b5, 2015-01-01 00:02:10.525,0,-0.003,0.997,-0.061,0.916,-0.122, , , , , , ,-0.115,-0.038,-112.313
 12:15:51.722,eb:33:2e:f9:57:b5, 2015-01-01 00:02:10.525,0.001,-0.003,0.997,0,0.977,-0.122, , , , , , ,-0.115,-0.038,-112.313
 12:15:51.722,eb:33:2e:f9:57:b5, 2015-01-01 00:02:10.525,-0.001,-0.003,0.998,0,1.038,-0.122, , , , , , ,-0.115,-0.038,-112.313
 12:15:51.722,eb:33:2e:f9:57:b5, 2015-01-01 00:02:10.525,-0.002,-0.004,0.996,0,0.977,-0.183, , , , , , ,-0.115,-0.038,-112.313
 12:15:51.722,eb:33:2e:f9:57:b5, 2015-01-01 00:02:10.525,-0.002,-0.004,0.996,0,0.916,-0.183, , , , , , ,-0.115,-0.038,-112.313
 12:15:51.722,eb:33:2e:f9:57:b5, 2015-01-01 00:02:10.525,0,-0.003,0.996,0.061,0.854,-0.183, , , , , , ,-0.115,-0.038,-112.313
 12:15:51.722,eb:33:2e:f9:57:b5, 2015-01-01 00:02:10.525,-0.001,-0.004,0.996,0,0.854,-0.244, , , , , , ,-0.115,-0.038,-112.313
 12:15:51.722,eb:33:2e:f9:57:b5, 2015-01-01 00:02:10.525,-0.002,-0.004,0.995,0.061,0.793,-0.244, , , , , , ,-0.115,-0.038,-112.313
 12:15:51.722,eb:33:2e:f9:57:b5, 2015-01-01 00:02:10.525,-0.002,-0.005,0.995,0.061,0.671,-0.183, , , , , , ,-0.115,-0.038,-112.313
 12:15:51.833,eb:33:2e:f9:57:b5, 2015-01-01 00:02:10.525,0,-0.005,0.996,0.061,0.549,-0.122, , , , , , ,-0.115,-0.038,-112.313
 12:15:51.833,eb:33:2e:f9:57:b5, 2015-01-01 00:02:10.525,-0.003,-0.004,0.996,0.061,0.488,-0.183, , , , , , ,-0.115,-0.038,-112.313
 12:15:51.833,eb:33:2e:f9:57:b5, 2015-01-01 00:02:10.525,-0.003,-0.004,0.996,0.122,0.427,-0.183, , , , , , ,-0.115,-0.038,-112.313
 12:15:51.833,eb:33:2e:f9:57:b5, 2015-01-01 00:02:10.525,-0.001,-0.004,0.996,0.061,0.366,-0.061, , , , , , ,-0.115,-0.033,-112.313
 12:15:51.835,eb:33:2e:f9:57:b5, 2015-01-01 00:02:10.525,0,-0.004,0.997,0.122,0.305,-0.122, , , , , , ,-0.115,-0.033,-112.313
 12:15:51.835,eb:33:2e:f9:57:b5, 2015-01-01 00:02:10.525,-0.002,-0.004,0.997,0.122,0.305,-0.122, , , , , , ,-0.115,-0.033,-112.313
 12:15:51.835,eb:33:2e:f9:57:b5, 2015-01-01 00:02:10.525,-0.001,-0.004,0.997,0.122,0.244,0, , , , , , ,-0.115,-0.033,-112.313
 12:15:51.835,eb:33:2e:f9:57:b5, 2015-01-01 00:02:10.525,0,-0.004,0.997,0.122,0.183,-0.061, , , , , , ,-0.115,-0.033,-112.313
 12:15:51.835,eb:33:2e:f9:57:b5, 2015-01-01 00:02:10.525,0,-0.004,0.998,0.183,0.244,0, , , , , , ,-0.115,-0.033,-112.313
 12:15:51.835,eb:33:2e:f9:57:b5, 2015-01-01 00:02:10.525,0,-0.004,0.997,0.183,0.305,-0.061, , , , , , ,-0.115,-0.033,-112.313
 12:15:51.836,eb:33:2e:f9:57:b5, 2015-01-01 00:02:10.525,0,-0.004,0.997,0.183,0.305,0, , , , , , ,-0.115,-0.033,-112.313
 12:15:51.836,eb:33:2e:f9:57:b5, 2015-01-01 00:02:10.525,0,-0.004,0.998,0.244,0.305,0, , , , , , ,-0.115,-0.033,-112.313
 12:15:51.836,eb:33:2e:f9:57:b5, 2015-01-01 00:02:10.525,-0.001,-0.004,0.997,0.244,0.305,0, , , , , , ,-0.115,-0.033,-112.313
 12:15:51.836,eb:33:2e:f9:57:b5, 2015-01-01 00:02:10.525,-0.001,-0.004,0.997,0.244,0.366,0, , , , , , ,-0.115,-0.033,-112.313
 12:15:51.836,eb:33:2e:f9:57:b5, 2015-01-01 00:02:10.525,-0.001,-0.003,0.997,0.183,0.427,0, , , , , , ,-0.115,-0.033,-112.313
 12:15:51.836,eb:33:2e:f9:57:b5, 2015-01-01 00:02:10.525,0,-0.003,0.996,0.183,0.427,0.061, , , , , , ,-0.115,-0.033,-112.319
 12:15:51.855,eb:33:2e:f9:57:b5, 2015-01-01 00:02:10.525,0,-0.002,0.997,0.122,0.427,0, , , , , , ,-0.115,-0.033,-112.319
 12:15:51.855,eb:33:2e:f9:57:b5, 2015-01-01 00:02:10.525,0,-0.002,0.998,0.122,0.488,0, , , , , , ,-0.115,-0.033,-112.319
 12:15:51.855,eb:33:2e:f9:57:b5, 2015-01-01 00:02:10.525,0,-0.003,0.997,0.122,0.61,0.061, , , , , , ,-0.115,-0.033,-112.319
 12:15:51.855,eb:33:2e:f9:57:b5, 2015-01-01 00:02:10.525,0,-0.004,0.998,0.122,0.61,0, , , , , , ,-0.115,-0.033,-112.319
 12:15:51.855,eb:33:2e:f9:57:b5, 2015-01-01 00:02:10.525,-0.002,-0.004,0.997,0.122,0.61,0.061, , , , , , ,-0.115,-0.033,-112.319
 12:15:51.855,eb:33:2e:f9:57:b5, 2015-01-01 00:02:10.525,-0.003,-0.003,0.997,0.122,0.61,0, , , , , , ,-0.115,-0.033,-112.319
 12:15:51.855,eb:33:2e:f9:57:b5, 2015-01-01 00:02:10.525,-0.001,-0.004,0.996,0.122,0.549,0, , , , , , ,-0.115,-0.033,-112.319
 12:15:51.855,eb:33:2e:f9:57:b5, 2015-01-01 00:02:10.525,-0.002,-0.003,0.997,0.122,0.549,0.061, , , , , , ,-0.121,-0.033,-112.319
 12:15:51.879,eb:33:2e:f9:57:b5, 2015-01-01 00:02:10.525,-0.002,-0.003,0.997,0.183,0.549,0.061, , , , , , ,-0.121,-0.033,-112.319
 12:15:51.879,eb:33:2e:f9:57:b5, 2015-01-01 00:02:10.525,-0.003,-0.003,0.995,0.122,0.427,0, , , , , , ,-0.121,-0.033,-112.319
 12:15:51.879,eb:33:2e:f9:57:b5, 2015-01-01 00:02:10.525,-0.003,-0.003,0.994,0.061,0.305,0, , , , , , ,-0.121,-0.033,-112.319
 12:15:51.879,eb:33:2e:f9:57:b5, 2015-01-01 00:02:10.525,-0.004,-0.002,0.995,0.061,0.305,0, , , , , , ,-0.121,-0.033,-112.319
 12:15:51.879,eb:33:2e:f9:57:b5, 2015-01-01 00:02:10.525,-0.004,-0.003,0.995,0.061,0.183,0, , , , , , ,-0.121,-0.033,-112.319
 12:15:51.879,eb:33:2e:f9:57:b5, 2015-01-01 00:02:10.525,-0.003,-0.003,0.996,0.061,0.061,0, , , , , , ,-0.121,-0.033,-112.319
 12:15:51.879,eb:33:2e:f9:57:b5, 2015-01-01 00:02:10.525,-0.003,-0.004,0.996,0.122,0,0, , , , , , ,-0.121,-0.033,-112.319
 12:15:51.879,eb:33:2e:f9:57:b5, 2015-01-01 00:02:10.525,-0.002,-0.004,0.996,0.122,0,0, , , , , , ,-0.121,-0.033,-112.319
 12:15:51.946,eb:33:2e:f9:57:b5, 2015-01-01 00:02:10.525,-0.003,-0.004,0.996,0.061,0,0.061, , , , , , ,-0.121,-0.033,-112.319
 12:15:51.946,eb:33:2e:f9:57:b5, 2015-01-01 00:02:10.525,-0.001,-0.003,0.996,0.061,-0.061,0, , , , , , ,-0.121,-0.033,-112.319
 12:15:51.947,eb:33:2e:f9:57:b5, 2015-01-01 00:02:10.525,-0.001,-0.002,0.996,0.061,-0.061,0.061, , , , , , ,-0.121,-0.033,-112.319
 12:15:51.947,eb:33:2e:f9:57:b5, 2015-01-01 00:02:10.525,-0.001,-0.002,0.996,0.061,-0.061,0.061, , , , , , ,-0.121,-0.027,-112.319
 12:15:51.947,eb:33:2e:f9:57:b5, 2015-01-01 00:02:10.525,0,-0.001,0.997,0.061,0,0, , , , , , ,-0.121,-0.027,-112.319
 12:15:51.947,eb:33:2e:f9:57:b5, 2015-01-01 00:02:10.525,0,-0.002,0.998,0,0,0, , , , , , ,-0.121,-0.027,-112.319
 12:15:51.947,eb:33:2e:f9:57:b5, 2015-01-01 00:02:10.525,0,-0.002,0.998,0,0,-0.061, , , , , , ,-0.121,-0.027,-112.319
 12:15:51.947,eb:33:2e:f9:57:b5, 2015-01-01 00:02:10.525,0,-0.002,0.997,0,0.061,0, , , , , , ,-0.121,-0.027,-112.319
 12:15:51.947,eb:33:2e:f9:57:b5, 2015-01-01 00:02:10.525,0,-0.002,0.997,0,0.122,0, , , , , , ,-0.121,-0.027,-112.319
 12:15:51.947,eb:33:2e:f9:57:b5, 2015-01-01 00:02:10.525,0,-0.002,0.996,-0.061,0.183,0, , , , , , ,-0.121,-0.027,-112.319
 12:15:51.947,eb:33:2e:f9:57:b5, 2015-01-01 00:02:10.525,0,-0.002,0.997,-0.061,0.244,-0.061, , , , , , ,-0.121,-0.027,-112.319
 12:15:51.947,eb:33:2e:f9:57:b5, 2015-01-01 00:02:10.525,-0.002,-0.003,0.997,-0.061,0.244,-0.061, , , , , , ,-0.121,-0.027,-112.319
 12:15:51.948,eb:33:2e:f9:57:b5, 2015-01-01 00:02:10.525,-0.002,-0.002,0.996,-0.061,0.244,-0.061, , , , , , ,-0.121,-0.027,-112.319
 12:15:51.948,eb:33:2e:f9:57:b5, 2015-01-01 00:02:10.525,-0.001,-0.003,0.996,-0.061,0.244,-0.122, , , , , , ,-0.121,-0.027,-112.319
 12:15:51.949,eb:33:2e:f9:57:b5, 2015-01-01 00:02:10.525,-0.002,-0.002,0.996,-0.122,0.305,-0.183, , , , , , ,-0.121,-0.027,-112.319
 12:15:51.949,eb:33:2e:f9:57:b5, 2015-01-01 00:02:10.525,-0.002,-0.003,0.996,-0.122,0.244,-0.122, , , , , , ,-0.121,-0.027,-112.319
 12:15:52.012,eb:33:2e:f9:57:b5, 2015-01-01 00:02:10.525,-0.002,-0.003,0.996,-0.122,0.244,-0.122, , , , , , ,-0.121,-0.027,-112.319
 12:15:52.012,eb:33:2e:f9:57:b5, 2015-01-01 00:02:10.525,0,-0.004,0.996,-0.061,0.183,-0.183, , , , , , ,-0.121,-0.027,-112.319
 12:15:52.012,eb:33:2e:f9:57:b5, 2015-01-01 00:02:10.525,-0.004,-0.004,0.997,-0.061,0.244,-0.122, , , , , , ,-0.121,-0.027,-112.319
 12:15:52.012,eb:33:2e:f9:57:b5, 2015-01-01 00:02:10.525,-0.001,-0.004,0.994,-0.061,0.122,-0.122, , , , , , ,-0.121,-0.027,-112.319
 12:15:52.012,eb:33:2e:f9:57:b5, 2015-01-01 00:02:10.525,-0.002,-0.003,0.997,-0.061,0.122,-0.122, , , , , , ,-0.121,-0.027,-112.319
 12:15:52.012,eb:33:2e:f9:57:b5, 2015-01-01 00:02:10.525,-0.001,-0.005,0.997,0,0.183,-0.061, , , , , , ,-0.121,-0.027,-112.319
 12:15:52.012,eb:33:2e:f9:57:b5, 2015-01-01 00:02:10.525,-0.001,-0.003,0.997,0,0.183,-0.061, , , , , , ,-0.121,-0.027,-112.319
 12:15:52.013,eb:33:2e:f9:57:b5, 2015-01-01 00:02:10.525,-0.001,-0.004,0.997,0,0.122,-0.122, , , , , , ,-0.121,-0.027,-112.319
 12:15:52.058,eb:33:2e:f9:57:b5, 2015-01-01 00:02:10.950,-0.001,-0.003,0.995,0,0.061,-0.122, , , , , , ,-0.121,-0.027,-112.319
 12:15:52.058,eb:33:2e:f9:57:b5, 2015-01-01 00:02:10.950,-0.002,-0.003,0.996,0,0.122,-0.122, , , , , , ,-0.121,-0.027,-112.319
 12:15:52.058,eb:33:2e:f9:57:b5, 2015-01-01 00:02:10.950,-0.002,-0.003,0.995,-0.061,0.061,-0.122, , , , , , ,-0.121,-0.027,-112.319
 12:15:52.058,eb:33:2e:f9:57:b5, 2015-01-01 00:02:10.950,-0.002,-0.004,0.996,-0.061,0,-0.061, , , , , , ,-0.121,-0.027,-112.319
 12:15:52.058,eb:33:2e:f9:57:b5, 2015-01-01 00:02:10.950,-0.001,-0.004,0.996,-0.061,0,-0.122, , , , , , ,-0.121,-0.027,-112.319
 12:15:52.058,eb:33:2e:f9:57:b5, 2015-01-01 00:02:10.950,-0.001,-0.004,0.997,-0.061,0,-0.061, , , , , , ,-0.121,-0.027,-112.319
 12:15:52.058,eb:33:2e:f9:57:b5, 2015-01-01 00:02:10.950,-0.001,-0.004,0.995,0,0,-0.061, , , , , , ,-0.121,-0.027,-112.319
 12:15:52.058,eb:33:2e:f9:57:b5, 2015-01-01 00:02:10.950,-0.002,-0.004,0.996,0,0,-0.061, , , , , , ,-0.121,-0.022,-112.319
 12:15:52.195,eb:33:2e:f9:57:b5, 2015-01-01 00:02:10.950,-0.002,-0.004,0.997,0,-0.061,-0.061, , , , , , ,-0.121,-0.022,-112.319
 12:15:52.195,eb:33:2e:f9:57:b5, 2015-01-01 00:02:10.950,-0.002,-0.004,0.996,0.061,0,0, , , , , , ,-0.121,-0.022,-112.319
 12:15:52.195,eb:33:2e:f9:57:b5, 2015-01-01 00:02:10.950,-0.002,-0.004,0.996,0,-0.122,0, , , , , , ,-0.121,-0.022,-112.319
 12:15:52.195,eb:33:2e:f9:57:b5, 2015-01-01 00:02:10.950,-0.003,-0.004,0.997,0.061,-0.122,0, , , , , , ,-0.121,-0.022,-112.319
 12:15:52.195,eb:33:2e:f9:57:b5, 2015-01-01 00:02:10.950,-0.002,-0.005,0.996,0.061,-0.244,0, , , , , , ,-0.121,-0.022,-112.319
 12:15:52.195,eb:33:2e:f9:57:b5, 2015-01-01 00:02:10.950,-0.002,-0.004,0.997,0.122,-0.183,0, , , , , , ,-0.121,-0.022,-112.319
 12:15:52.195,eb:33:2e:f9:57:b5, 2015-01-01 00:02:10.950,-0.002,-0.005,0.997,0.061,-0.183,0, , , , , , ,-0.121,-0.022,-112.319
 12:15:52.196,eb:33:2e:f9:57:b5, 2015-01-01 00:02:10.950,-0.002,-0.004,0.996,0.122,-0.183,0, , , , , , ,-0.126,-0.022,-112.319
 12:15:52.196,eb:33:2e:f9:57:b5, 2015-01-01 00:02:10.950,0,-0.003,0.997,0.122,-0.244,0, , , , , , ,-0.126,-0.022,-112.319
 12:15:52.196,eb:33:2e:f9:57:b5, 2015-01-01 00:02:10.950,0.001,-0.003,0.998,0.061,-0.122,0, , , , , , ,-0.126,-0.022,-112.319
 12:15:52.196,eb:33:2e:f9:57:b5, 2015-01-01 00:02:10.950,0,-0.002,0.998,0.122,0,0.061, , , , , , ,-0.126,-0.022,-112.319
 12:15:52.196,eb:33:2e:f9:57:b5, 2015-01-01 00:02:10.950,0,-0.004,0.998,0.122,0.061,0, , , , , , ,-0.126,-0.022,-112.319
 12:15:52.196,eb:33:2e:f9:57:b5, 2015-01-01 00:02:10.950,0,-0.002,0.997,0.061,0.061,0, , , , , , ,-0.126,-0.022,-112.319
 12:15:52.196,eb:33:2e:f9:57:b5, 2015-01-01 00:02:10.950,0,-0.003,0.998,0.122,0.183,0.061, , , , , , ,-0.126,-0.022,-112.319
 12:15:52.196,eb:33:2e:f9:57:b5, 2015-01-01 00:02:10.950,0,-0.004,0.998,0.183,0.305,0.061, , , , , , ,-0.126,-0.022,-112.319
 12:15:52.196,eb:33:2e:f9:57:b5, 2015-01-01 00:02:10.950,-0.002,-0.003,0.998,0.183,0.366,0, , , , , , ,-0.126,-0.022,-112.319
 12:15:52.198,eb:33:2e:f9:57:b5, 2015-01-01 00:02:10.950,-0.001,-0.005,0.996,0.244,0.366,0, , , , , , ,-0.126,-0.022,-112.319
 12:15:52.198,eb:33:2e:f9:57:b5, 2015-01-01 00:02:10.950,-0.001,-0.004,0.996,0.244,0.366,0.061, , , , , , ,-0.126,-0.022,-112.319
 12:15:52.198,eb:33:2e:f9:57:b5, 2015-01-01 00:02:10.950,-0.002,-0.004,0.997,0.244,0.366,0.061, , , , , , ,-0.126,-0.022,-112.319
 12:15:52.198,eb:33:2e:f9:57:b5, 2015-01-01 00:02:10.950,-0.002,-0.003,0.996,0.244,0.305,0.061, , , , , , ,-0.126,-0.022,-112.319
 12:15:52.198,eb:33:2e:f9:57:b5, 2015-01-01 00:02:10.950,-0.003,-0.003,0.996,0.244,0.244,0.122, , , , , , ,-0.126,-0.022,-112.319
 12:15:52.198,eb:33:2e:f9:57:b5, 2015-01-01 00:02:10.950,-0.003,-0.004,0.995,0.244,0.183,0.061, , , , , , ,-0.126,-0.022,-112.319
 12:15:52.198,eb:33:2e:f9:57:b5, 2015-01-01 00:02:10.950,-0.002,-0.004,0.995,0.244,0.122,0.061, , , , , , ,-0.126,-0.022,-112.319
 12:15:52.198,eb:33:2e:f9:57:b5, 2015-01-01 00:02:10.950,-0.003,-0.004,0.995,0.183,0.122,0.122, , , , , , ,-0.126,-0.022,-112.319
 12:15:52.200,eb:33:2e:f9:57:b5, 2015-01-01 00:02:10.950,-0.002,-0.003,0.996,0.244,0.122,0.061, , , , , , ,-0.126,-0.022,-112.319
 12:15:52.200,eb:33:2e:f9:57:b5, 2015-01-01 00:02:10.950,-0.001,-0.003,0.997,0.244,0.122,0.061, , , , , , ,-0.126,-0.022,-112.319
 12:15:52.200,eb:33:2e:f9:57:b5, 2015-01-01 00:02:10.950,-0.002,-0.003,0.997,0.183,0.183,0.122, , , , , , ,-0.126,-0.022,-112.319
 12:15:52.200,eb:33:2e:f9:57:b5, 2015-01-01 00:02:10.950,-0.002,-0.003,0.997,0.183,0.244,0.122, , , , , , ,-0.126,-0.022,-112.319
 12:15:52.200,eb:33:2e:f9:57:b5, 2015-01-01 00:02:10.950,-0.001,-0.003,0.996,0.244,0.183,0.122, , , , , , ,-0.126,-0.022,-112.319
 12:15:52.200,eb:33:2e:f9:57:b5, 2015-01-01 00:02:10.950,-0.001,-0.002,0.996,0.183,0.183,0.061, , , , , , ,-0.126,-0.022,-112.319
 12:15:52.201,eb:33:2e:f9:57:b5, 2015-01-01 00:02:10.950,-0.001,-0.003,0.997,0.183,0.244,0.122, , , , , , ,-0.126,-0.022,-112.319
 12:15:52.201,eb:33:2e:f9:57:b5, 2015-01-01 00:02:10.950,-0.001,-0.003,0.997,0.244,0.183,0.122, , , , , , ,-0.126,-0.022,-112.319
 12:15:52.305,eb:33:2e:f9:57:b5, 2015-01-01 00:02:10.950,-0.001,-0.003,0.996,0.183,0.305,0.061, , , , , , ,-0.126,-0.022,-112.319
 12:15:52.305,eb:33:2e:f9:57:b5, 2015-01-01 00:02:10.950,-0.001,-0.003,0.996,0.183,0.305,0.122, , , , , , ,-0.126,-0.022,-112.319
 12:15:52.306,eb:33:2e:f9:57:b5, 2015-01-01 00:02:10.950,-0.002,-0.003,0.996,0.183,0.244,0.122, , , , , , ,-0.126,-0.022,-112.319
 12:15:52.306,eb:33:2e:f9:57:b5, 2015-01-01 00:02:10.950,-0.001,-0.004,0.996,0.061,0.244,0.122, , , , , , ,-0.126,-0.016,-112.319
 12:15:52.306,eb:33:2e:f9:57:b5, 2015-01-01 00:02:10.950,-0.001,-0.003,0.997,0.122,0.305,0.122, , , , , , ,-0.126,-0.016,-112.319
 12:15:52.306,eb:33:2e:f9:57:b5, 2015-01-01 00:02:10.950,-0.002,-0.003,0.996,0.183,0.305,0.122, , , , , , ,-0.126,-0.016,-112.319
 12:15:52.306,eb:33:2e:f9:57:b5, 2015-01-01 00:02:10.950,-0.002,-0.004,0.996,0.183,0.305,0.122, , , , , , ,-0.126,-0.016,-112.319
 12:15:52.306,eb:33:2e:f9:57:b5, 2015-01-01 00:02:10.950,-0.001,-0.004,0.997,0.183,0.305,0.183, , , , , , ,-0.126,-0.016,-112.319
 12:15:52.306,eb:33:2e:f9:57:b5, 2015-01-01 00:02:10.950,-0.002,-0.004,0.997,0.244,0.305,0.183, , , , , , ,-0.126,-0.016,-112.319
 12:15:52.306,eb:33:2e:f9:57:b5, 2015-01-01 00:02:10.950,-0.002,-0.003,0.997,0.183,0.305,0.244, , , , , , ,-0.126,-0.016,-112.319
 12:15:52.307,eb:33:2e:f9:57:b5, 2015-01-01 00:02:10.950,-0.002,-0.004,0.996,0.244,0.305,0.305, , , , , , ,-0.126,-0.016,-112.319
 12:15:52.307,eb:33:2e:f9:57:b5, 2015-01-01 00:02:10.950,-0.002,-0.003,0.996,0.244,0.305,0.244, , , , , , ,-0.126,-0.016,-112.319
 12:15:52.307,eb:33:2e:f9:57:b5, 2015-01-01 00:02:10.950,-0.002,-0.002,0.996,0.183,0.244,0.183, , , , , , ,-0.126,-0.016,-112.319
 12:15:52.307,eb:33:2e:f9:57:b5, 2015-01-01 00:02:10.950,-0.002,-0.002,0.997,0.183,0.244,0.122, , , , , , ,-0.126,-0.016,-112.319
 12:15:52.307,eb:33:2e:f9:57:b5, 2015-01-01 00:02:10.950,-0.002,-0.004,0.997,0.183,0.244,0.122, , , , , , ,-0.126,-0.016,-112.319
 12:15:52.307,eb:33:2e:f9:57:b5, 2015-01-01 00:02:10.950,-0.003,-0.002,0.996,0.183,0.183,0.122, , , , , , ,-0.126,-0.016,-112.319
 12:15:52.688,eb:33:2e:f9:57:b5, 2015-01-01 00:02:10.950,-0.001,-0.002,0.996,0.244,0.122,0.122, , , , , , ,-0.126,-0.016,-112.319
 12:15:52.688,eb:33:2e:f9:57:b5, 2015-01-01 00:02:10.950,-0.002,-0.004,0.996,0.183,0.122,0.061, , , , , , ,-0.126,-0.016,-112.319
 12:15:52.688,eb:33:2e:f9:57:b5, 2015-01-01 00:02:10.950,-0.002,-0.004,0.996,0.244,0.061,0.122, , , , , , ,-0.126,-0.016,-112.319
 12:15:52.688,eb:33:2e:f9:57:b5, 2015-01-01 00:02:10.950,-0.001,-0.004,0.996,0.244,0.061,0.122, , , , , , ,-0.126,-0.016,-112.319
 12:15:52.688,eb:33:2e:f9:57:b5, 2015-01-01 00:02:10.950,-0.001,-0.003,0.996,0.183,0.061,0.061, , , , , , ,-0.126,-0.016,-112.319
 12:15:52.688,eb:33:2e:f9:57:b5, 2015-01-01 00:02:10.950,-0.001,-0.003,0.996,0.183,0.061,0.122, , , , , , ,-0.126,-0.016,-112.319
 12:15:52.688,eb:33:2e:f9:57:b5, 2015-01-01 00:02:10.950,-0.001,-0.003,0.997,0.122,0.061,0.122, , , , , , ,-0.126,-0.016,-112.319
 12:15:52.688,eb:33:2e:f9:57:b5, 2015-01-01 00:02:10.950,-0.002,-0.002,0.996,0.183,0.061,0.122, , , , , , ,-0.132,-0.016,-112.319
 12:15:52.690,eb:33:2e:f9:57:b5, 2015-01-01 00:02:10.950,-0.001,-0.002,0.997,0.122,0,0.122, , , , , , ,-0.132,-0.016,-112.319
 12:15:52.690,eb:33:2e:f9:57:b5, 2015-01-01 00:02:10.950,-0.002,-0.003,0.996,0.122,0.061,0.061, , , , , , ,-0.132,-0.016,-112.319
 12:15:52.690,eb:33:2e:f9:57:b5, 2015-01-01 00:02:10.950,-0.001,-0.002,0.996,0.122,0.061,0.061, , , , , , ,-0.132,-0.016,-112.319
 12:15:52.690,eb:33:2e:f9:57:b5, 2015-01-01 00:02:10.950,-0.001,-0.003,0.996,0.122,0,0.061, , , , , , ,-0.132,-0.016,-112.319
 12:15:52.690,eb:33:2e:f9:57:b5, 2015-01-01 00:02:10.950,-0.002,-0.002,0.996,0.122,0,0.061, , , , , , ,-0.132,-0.016,-112.319
 12:15:52.690,eb:33:2e:f9:57:b5, 2015-01-01 00:02:10.950,-0.002,-0.002,0.996,0.061,0.061,0, , , , , , ,-0.132,-0.016,-112.319
 12:15:52.690,eb:33:2e:f9:57:b5, 2015-01-01 00:02:10.950,-0.002,-0.002,0.996,0.061,0.061,0, , , , , , ,-0.132,-0.016,-112.319
 12:15:52.690,eb:33:2e:f9:57:b5, 2015-01-01 00:02:10.950,-0.001,-0.002,0.998,0,0.061,0, , , , , , ,-0.132,-0.011,-112.319
 12:15:52.693,eb:33:2e:f9:57:b5, 2015-01-01 00:02:10.950,-0.001,-0.003,0.997,0.061,0.061,0, , , , , , ,-0.132,-0.011,-112.319
 12:15:52.693,eb:33:2e:f9:57:b5, 2015-01-01 00:02:10.950,-0.001,-0.003,0.997,0.061,0.061,0, , , , , , ,-0.132,-0.011,-112.319
 12:15:52.693,eb:33:2e:f9:57:b5, 2015-01-01 00:02:10.950,-0.001,-0.003,0.997,0.061,0.061,0, , , , , , ,-0.132,-0.011,-112.319
 12:15:52.693,eb:33:2e:f9:57:b5, 2015-01-01 00:02:10.950,-0.001,-0.002,0.996,0.061,0.061,0, , , , , , ,-0.132,-0.011,-112.319
 12:15:52.693,eb:33:2e:f9:57:b5, 2015-01-01 00:02:10.950,-0.002,-0.003,0.997,0.122,0.122,0, , , , , , ,-0.132,-0.011,-112.319
 12:15:52.693,eb:33:2e:f9:57:b5, 2015-01-01 00:02:10.950,-0.002,-0.003,0.996,0.061,0.061,0, , , , , , ,-0.132,-0.011,-112.319
 12:15:52.693,eb:33:2e:f9:57:b5, 2015-01-01 00:02:10.950,-0.002,-0.002,0.996,0.061,0.061,0, , , , , , ,-0.132,-0.011,-112.319
 12:15:52.693,eb:33:2e:f9:57:b5, 2015-01-01 00:02:10.950,-0.002,-0.003,0.996,0.061,0,0, , , , , , ,-0.132,-0.011,-112.319
 12:15:52.695,eb:33:2e:f9:57:b5, 2015-01-01 00:02:10.950,-0.002,-0.003,0.997,0,0,0, , , , , , ,-0.132,-0.011,-112.319
 12:15:52.695,eb:33:2e:f9:57:b5, 2015-01-01 00:02:10.950,-0.002,-0.003,0.996,0,0,0, , , , , , ,-0.132,-0.011,-112.319
 12:15:52.695,eb:33:2e:f9:57:b5, 2015-01-01 00:02:10.950,-0.002,-0.001,0.996,0.122,0,0, , , , , , ,-0.132,-0.011,-112.319
 12:15:52.695,eb:33:2e:f9:57:b5, 2015-01-01 00:02:10.950,-0.001,-0.003,0.996,0.061,0,0, , , , , , ,-0.132,-0.011,-112.319
 12:15:52.695,eb:33:2e:f9:57:b5, 2015-01-01 00:02:10.950,-0.002,-0.002,0.996,0,0,0, , , , , , ,-0.132,-0.011,-112.319
 12:15:52.695,eb:33:2e:f9:57:b5, 2015-01-01 00:02:10.950,-0.002,-0.002,0.995,0,0,0, , , , , , ,-0.132,-0.011,-112.319
 12:15:52.695,eb:33:2e:f9:57:b5, 2015-01-01 00:02:10.950,-0.002,-0.002,0.995,0,0,-0.061, , , , , , ,-0.132,-0.011,-112.319
 12:15:52.695,eb:33:2e:f9:57:b5, 2015-01-01 00:02:10.950,-0.001,-0.002,0.995,0,0,0, , , , , , ,-0.132,-0.011,-112.319
 12:15:52.710,eb:33:2e:f9:57:b5, 2015-01-01 00:02:10.950,0,-0.002,0.996,0,0,-0.061, , , , , , ,-0.132,-0.011,-112.319
 12:15:52.710,eb:33:2e:f9:57:b5, 2015-01-01 00:02:10.950,0,-0.003,0.996,0.122,-0.061,0, , , , , , ,-0.137,-0.005,-112.319
 12:15:52.710,eb:33:2e:f9:57:b5, 2015-01-01 00:02:10.950,0,-0.003,0.997,0.061,-0.061,0, , , , , , ,-0.137,-0.005,-112.319
 12:15:52.710,eb:33:2e:f9:57:b5, 2015-01-01 00:02:10.950,0,-0.003,0.996,0.122,-0.061,0, , , , , , ,-0.137,0,-112.319
 12:15:52.710,eb:33:2e:f9:57:b5, 2015-01-01 00:02:10.950,0,-0.002,0.996,0.061,-0.061,0, , , , , , ,-0.137,0,-112.319
 12:15:52.710,eb:33:2e:f9:57:b5, 2015-01-01 00:02:10.950,0.001,-0.003,0.996,0.061,-0.061,-0.061, , , , , , ,-0.137,0,-112.319
 12:15:52.710,eb:33:2e:f9:57:b5, 2015-01-01 00:02:10.950,-0.001,-0.003,0.997,0.061,0,-0.061, , , , , , ,-0.137,0,-112.319
 12:15:52.710,eb:33:2e:f9:57:b5, 2015-01-01 00:02:10.950,0,-0.003,0.995,0,0,0, , , , , , ,-0.137,0,-112.319
 12:15:52.847,eb:33:2e:f9:57:b5, 2015-01-01 00:02:10.950,0,-0.002,0.997,0,0,0, , , , , , ,-0.137,0,-112.319
 12:15:52.847,eb:33:2e:f9:57:b5, 2015-01-01 00:02:10.950,0,-0.003,0.996,0,0,0, , , , , , ,-0.137,0,-112.319
 12:15:52.847,eb:33:2e:f9:57:b5, 2015-01-01 00:02:10.950,-0.002,-0.003,0.996,0,0.061,0, , , , , , ,-0.137,0,-112.319
 12:15:52.847,eb:33:2e:f9:57:b5, 2015-01-01 00:02:10.950,0.001,-0.004,0.996,0.061,0,0, , , , , , ,-0.137,0,-112.319
 12:15:52.847,eb:33:2e:f9:57:b5, 2015-01-01 00:02:10.950,0,-0.002,0.999,0.061,0.061,0, , , , , , ,-0.137,0,-112.319
 12:15:52.847,eb:33:2e:f9:57:b5, 2015-01-01 00:02:10.950,0,-0.003,0.998,0.122,0.061,0, , , , , , ,-0.137,0,-112.319
 12:15:52.847,eb:33:2e:f9:57:b5, 2015-01-01 00:02:10.950,-0.001,-0.003,0.997,0.061,0.122,0, , , , , , ,-0.137,0,-112.319
 12:15:52.847,eb:33:2e:f9:57:b5, 2015-01-01 00:02:10.950,0,-0.003,0.996,0,0.061,0, , , , , , ,-0.137,0,-112.319
 12:15:52.849,eb:33:2e:f9:57:b5, 2015-01-01 00:02:10.950,0,-0.003,0.996,0,0.061,0, , , , , , ,-0.137,0,-112.319
 12:15:52.849,eb:33:2e:f9:57:b5, 2015-01-01 00:02:10.950,-0.001,-0.003,0.996,0,0.061,0, , , , , , ,-0.137,0,-112.319
 12:15:52.849,eb:33:2e:f9:57:b5, 2015-01-01 00:02:10.950,0,-0.003,0.996,0.061,0.061,0, , , , , , ,-0.137,0,-112.319
 12:15:52.849,eb:33:2e:f9:57:b5, 2015-01-01 00:02:10.950,0,-0.002,0.996,0,0.061,0.061, , , , , , ,-0.137,0,-112.319
 12:15:52.849,eb:33:2e:f9:57:b5, 2015-01-01 00:02:10.950,-0.001,-0.002,0.996,0,0.122,0.122, , , , , , ,-0.137,0,-112.319
 12:15:52.849,eb:33:2e:f9:57:b5, 2015-01-01 00:02:10.950,0,-0.002,0.996,0,0.122,0, , , , , , ,-0.137,0,-112.319
 12:15:52.849,eb:33:2e:f9:57:b5, 2015-01-01 00:02:10.950,0,-0.003,0.996,0,0.122,0.061, , , , , , ,-0.137,0,-112.319
 12:15:52.849,eb:33:2e:f9:57:b5, 2015-01-01 00:02:10.950,0,-0.003,0.996,0,0.183,0.061, , , , , , ,-0.137,0,-112.319
 12:15:52.913,eb:33:2e:f9:57:b5, 2015-01-01 00:02:11.690,-0.001,-0.003,0.997,0,0.183,0.122, , , , , , ,-0.137,0,-112.319
 12:15:52.913,eb:33:2e:f9:57:b5, 2015-01-01 00:02:11.690,0,-0.003,0.996,0,0.244,0.122, , , , , , ,-0.137,0,-112.319
 12:15:52.913,eb:33:2e:f9:57:b5, 2015-01-01 00:02:11.690,-0.001,-0.003,0.996,0,0.183,0.122, , , , , , ,-0.137,0,-112.319
 12:15:52.913,eb:33:2e:f9:57:b5, 2015-01-01 00:02:11.690,-0.001,-0.004,0.996,0,0.183,0.122, , , , , , ,-0.137,0,-112.319
 12:15:52.913,eb:33:2e:f9:57:b5, 2015-01-01 00:02:11.690,0,-0.002,0.996,0,0.183,0.061, , , , , , ,-0.137,0,-112.319
 12:15:52.913,eb:33:2e:f9:57:b5, 2015-01-01 00:02:11.690,0,-0.003,0.997,0,0.183,0.061, , , , , , ,-0.137,0,-112.319
 12:15:52.913,eb:33:2e:f9:57:b5, 2015-01-01 00:02:11.690,-0.001,-0.003,0.996,0,0.244,0.122, , , , , , ,-0.137,0,-112.319
 12:15:52.913,eb:33:2e:f9:57:b5, 2015-01-01 00:02:11.690,-0.001,-0.002,0.996,0,0.244,0.122, , , , , , ,-0.137,0,-112.319
 12:15:52.915,eb:33:2e:f9:57:b5, 2015-01-01 00:02:11.690,-0.001,-0.003,0.996,-0.061,0.244,0.183, , , , , , ,-0.137,0,-112.319
 12:15:52.915,eb:33:2e:f9:57:b5, 2015-01-01 00:02:11.690,-0.002,-0.003,0.996,0,0.183,0.183, , , , , , ,-0.137,0,-112.319
 12:15:52.915,eb:33:2e:f9:57:b5, 2015-01-01 00:02:11.690,0,-0.003,0.996,0,0.183,0.183, , , , , , ,-0.137,0,-112.319
 12:15:52.915,eb:33:2e:f9:57:b5, 2015-01-01 00:02:11.690,-0.002,-0.004,0.998,0,0.244,0.183, , , , , , ,-0.137,0,-112.319
 12:15:52.915,eb:33:2e:f9:57:b5, 2015-01-01 00:02:11.690,-0.003,-0.003,0.996,0,0.183,0.183, , , , , , ,-0.137,0,-112.319
 12:15:52.915,eb:33:2e:f9:57:b5, 2015-01-01 00:02:11.690,-0.002,-0.003,0.996,0,0.061,0.183, , , , , , ,-0.137,0,-112.319
 12:15:52.915,eb:33:2e:f9:57:b5, 2015-01-01 00:02:11.690,-0.002,-0.003,0.996,0,0,0.122, , , , , , ,-0.137,0,-112.319
 12:15:52.917,eb:33:2e:f9:57:b5, 2015-01-01 00:02:11.690,-0.003,-0.004,0.997,0,0,0.183, , , , , , ,-0.137,0,-112.319
 12:15:52.917,eb:33:2e:f9:57:b5, 2015-01-01 00:02:11.690,-0.002,-0.004,0.997,0,-0.061,0.183, , , , , , ,-0.137,0,-112.319
 12:15:52.917,eb:33:2e:f9:57:b5, 2015-01-01 00:02:11.690,-0.002,-0.004,0.997,0.061,-0.061,0.183, , , , , , ,-0.137,0,-112.319
 12:15:52.917,eb:33:2e:f9:57:b5, 2015-01-01 00:02:11.690,-0.002,-0.003,0.997,0.122,-0.122,0.183, , , , , , ,-0.137,0,-112.319
 12:15:52.917,eb:33:2e:f9:57:b5, 2015-01-01 00:02:11.690,-0.002,-0.004,0.997,0.183,-0.122,0.183, , , , , , ,-0.137,0,-112.319
 12:15:52.917,eb:33:2e:f9:57:b5, 2015-01-01 00:02:11.690,-0.001,-0.003,0.996,0.183,-0.183,0.183, , , , , , ,-0.137,0,-112.319
 12:15:52.917,eb:33:2e:f9:57:b5, 2015-01-01 00:02:11.690,0,-0.003,0.997,0.244,-0.183,0.122, , , , , , ,-0.137,0,-112.319
 12:15:52.917,eb:33:2e:f9:57:b5, 2015-01-01 00:02:11.690,-0.001,-0.003,0.998,0.305,-0.183,0.122, , , , , , ,-0.137,0,-112.319
 12:15:52.917,eb:33:2e:f9:57:b5, 2015-01-01 00:02:11.690,0,-0.003,0.997,0.305,-0.183,0.122, , , , , , ,-0.137,0,-112.319
 12:15:52.957,eb:33:2e:f9:57:b5, 2015-01-01 00:02:11.690,0,-0.003,0.997,0.244,-0.122,0.061, , , , , , ,-0.137,0,-112.319
 12:15:52.957,eb:33:2e:f9:57:b5, 2015-01-01 00:02:11.690,0,-0.003,0.997,0.244,-0.061,0.122, , , , , , ,-0.137,0,-112.319
 12:15:52.957,eb:33:2e:f9:57:b5, 2015-01-01 00:02:11.690,0,-0.003,0.996,0.244,-0.122,0.061, , , , , , ,-0.137,0,-112.319
 12:15:52.957,eb:33:2e:f9:57:b5, 2015-01-01 00:02:11.690,-0.001,-0.003,0.996,0.244,-0.061,0.122, , , , , , ,-0.137,0,-112.319
 12:15:52.957,eb:33:2e:f9:57:b5, 2015-01-01 00:02:11.690,0,-0.003,0.996,0.244,-0.061,0.061, , , , , , ,-0.137,0,-112.319
 12:15:52.957,eb:33:2e:f9:57:b5, 2015-01-01 00:02:11.690,-0.001,-0.003,0.997,0.305,0,0.122, , , , , , ,-0.137,0,-112.319
 12:15:52.957,eb:33:2e:f9:57:b5, 2015-01-01 00:02:11.690,0,-0.003,0.996,0.183,0,0.061, , , , , , ,-0.137,0,-112.319
 12:15:52.958,eb:33:2e:f9:57:b5, 2015-01-01 00:02:11.690,-0.001,-0.003,0.997,0.244,0,0.061, , , , , , ,-0.137,0,-112.319
 12:15:53.048,eb:33:2e:f9:57:b5, 2015-01-01 00:02:11.690,0,-0.003,0.996,0.244,0,0.061, , , , , , ,-0.137,0,-112.319
 12:15:53.048,eb:33:2e:f9:57:b5, 2015-01-01 00:02:11.690,-0.001,-0.003,0.998,0.305,0,0.061, , , , , , ,-0.137,0,-112.319
 12:15:53.048,eb:33:2e:f9:57:b5, 2015-01-01 00:02:11.690,0,-0.003,0.997,0.244,0,0.061, , , , , , ,-0.137,0,-112.319
 12:15:53.048,eb:33:2e:f9:57:b5, 2015-01-01 00:02:11.690,-0.003,-0.003,0.997,0.244,0.061,0.122, , , , , , ,-0.137,0,-112.319
 12:15:53.048,eb:33:2e:f9:57:b5, 2015-01-01 00:02:11.690,0,-0.004,0.996,0.244,0,0.122, , , , , , ,-0.137,0,-112.319
 12:15:53.048,eb:33:2e:f9:57:b5, 2015-01-01 00:02:11.690,-0.002,-0.003,0.998,0.305,0.061,0.061, , , , , , ,-0.137,0,-112.319
 12:15:53.048,eb:33:2e:f9:57:b5, 2015-01-01 00:02:11.690,-0.002,-0.003,0.996,0.305,0,0.183, , , , , , ,-0.137,0,-112.319
 12:15:53.048,eb:33:2e:f9:57:b5, 2015-01-01 00:02:11.690,0,-0.002,0.995,0.366,-0.061,0.122, , , , , , ,-0.137,0,-112.319
 12:15:53.050,eb:33:2e:f9:57:b5, 2015-01-01 00:02:11.690,-0.002,-0.002,0.997,0.366,-0.061,0.061, , , , , , ,-0.137,0,-112.319
 12:15:53.050,eb:33:2e:f9:57:b5, 2015-01-01 00:02:11.690,-0.002,-0.003,0.995,0.305,-0.061,0.061, , , , , , ,-0.137,0,-112.319
 12:15:53.050,eb:33:2e:f9:57:b5, 2015-01-01 00:02:11.690,0,-0.003,0.996,0.305,-0.061,0.122, , , , , , ,-0.137,0,-112.319
 12:15:53.050,eb:33:2e:f9:57:b5, 2015-01-01 00:02:11.690,0,-0.002,0.997,0.305,-0.122,0.122, , , , , , ,-0.143,0,-112.319
 12:15:53.050,eb:33:2e:f9:57:b5, 2015-01-01 00:02:11.690,-0.001,-0.003,0.998,0.366,-0.061,0.122, , , , , , ,-0.143,0,-112.319
 12:15:53.050,eb:33:2e:f9:57:b5, 2015-01-01 00:02:11.690,-0.003,-0.003,0.996,0.366,-0.122,0.183, , , , , , ,-0.143,0,-112.319
 12:15:53.050,eb:33:2e:f9:57:b5, 2015-01-01 00:02:11.690,0,-0.003,0.996,0.427,-0.183,0.122, , , , , , ,-0.143,0,-112.319
 12:15:53.050,eb:33:2e:f9:57:b5, 2015-01-01 00:02:11.690,-0.001,-0.002,0.997,0.427,-0.183,0.061, , , , , , ,-0.143,0,-112.319
 12:15:53.093,eb:33:2e:f9:57:b5, 2015-01-01 00:02:11.690,0,-0.003,0.996,0.427,-0.244,0.122, , , , , , ,-0.143,0,-112.319
 12:15:53.093,eb:33:2e:f9:57:b5, 2015-01-01 00:02:11.690,-0.001,-0.002,0.995,0.488,-0.244,0.122, , , , , , ,-0.143,0,-112.319
 12:15:53.094,eb:33:2e:f9:57:b5, 2015-01-01 00:02:11.690,-0.001,-0.002,0.996,0.427,-0.244,0.061, , , , , , ,-0.143,0,-112.319
 12:15:53.094,eb:33:2e:f9:57:b5, 2015-01-01 00:02:11.690,0,-0.002,0.996,0.427,-0.305,0.061, , , , , , ,-0.143,0,-112.319
 12:15:53.094,eb:33:2e:f9:57:b5, 2015-01-01 00:02:11.690,0,-0.002,0.996,0.427,-0.366,0.061, , , , , , ,-0.143,0,-112.319
 12:15:53.094,eb:33:2e:f9:57:b5, 2015-01-01 00:02:11.690,0,-0.002,0.997,0.427,-0.366,0.061, , , , , , ,-0.143,0,-112.319
 12:15:53.094,eb:33:2e:f9:57:b5, 2015-01-01 00:02:11.690,0,-0.001,0.996,0.366,-0.427,0.122, , , , , , ,-0.143,0,-112.319
 12:15:53.094,eb:33:2e:f9:57:b5, 2015-01-01 00:02:11.690,0,-0.002,0.996,0.427,-0.488,0.122, , , , , , ,-0.143,0,-112.319
 12:15:53.520,eb:33:2e:f9:57:b5, 2015-01-01 00:02:11.690,0,-0.001,0.996,0.366,-0.427,0.061, , , , , , ,-0.143,0,-112.319
 12:15:53.520,eb:33:2e:f9:57:b5, 2015-01-01 00:02:11.690,0,-0.001,0.995,0.366,-0.427,0.061, , , , , , ,-0.143,0,-112.319
 12:15:53.520,eb:33:2e:f9:57:b5, 2015-01-01 00:02:11.690,0,-0.002,0.997,0.305,-0.366,0.061, , , , , , ,-0.143,0,-112.319
 12:15:53.520,eb:33:2e:f9:57:b5, 2015-01-01 00:02:11.690,0,-0.001,0.997,0.366,-0.366,0.122, , , , , , ,-0.143,0,-112.319
 12:15:53.520,eb:33:2e:f9:57:b5, 2015-01-01 00:02:11.690,0.001,-0.002,0.997,0.305,-0.305,0.061, , , , , , ,-0.143,0,-112.319
 12:15:53.520,eb:33:2e:f9:57:b5, 2015-01-01 00:02:11.690,0,-0.001,0.998,0.366,-0.305,0.061, , , , , , ,-0.143,0,-112.319
 12:15:53.520,eb:33:2e:f9:57:b5, 2015-01-01 00:02:11.690,0,-0.002,0.997,0.366,-0.244,0.122, , , , , , ,-0.143,0,-112.319
 12:15:53.520,eb:33:2e:f9:57:b5, 2015-01-01 00:02:11.690,0,-0.001,0.997,0.366,-0.244,0.061, , , , , , ,-0.143,0,-112.319
 12:15:53.522,eb:33:2e:f9:57:b5, 2015-01-01 00:02:11.690,0,-0.001,0.997,0.366,-0.183,0.061, , , , , , ,-0.143,0,-112.319
 12:15:53.522,eb:33:2e:f9:57:b5, 2015-01-01 00:02:11.690,0.001,-0.002,0.995,0.305,-0.244,0.061, , , , , , ,-0.143,0,-112.319
 12:15:53.522,eb:33:2e:f9:57:b5, 2015-01-01 00:02:11.690,0,-0.001,0.997,0.244,-0.122,0, , , , , , ,-0.143,0,-112.319
 12:15:53.522,eb:33:2e:f9:57:b5, 2015-01-01 00:02:11.690,0,-0.002,0.996,0.305,-0.122,0.061, , , , , , ,-0.143,0,-112.319
 12:15:53.523,eb:33:2e:f9:57:b5, 2015-01-01 00:02:11.690,0.001,-0.001,0.996,0.244,-0.183,0.061, , , , , , ,-0.143,0,-112.319
 12:15:53.523,eb:33:2e:f9:57:b5, 2015-01-01 00:02:11.690,-0.002,-0.002,0.995,0.244,-0.061,0.061, , , , , , ,-0.143,0,-112.319
 12:15:53.523,eb:33:2e:f9:57:b5, 2015-01-01 00:02:11.690,0.001,-0.002,0.994,0.183,-0.122,0.061, , , , , , ,-0.143,0,-112.319
 12:15:53.523,eb:33:2e:f9:57:b5, 2015-01-01 00:02:11.690,-0.001,0,0.996,0.244,-0.122,0.061, , , , , , ,-0.143,0,-112.319
 12:15:53.523,eb:33:2e:f9:57:b5, 2015-01-01 00:02:11.690,0.001,-0.001,0.995,0.183,-0.122,0.122, , , , , , ,-0.143,0,-112.319
 12:15:53.523,eb:33:2e:f9:57:b5, 2015-01-01 00:02:11.690,0,-0.001,0.997,0.122,-0.061,0.061, , , , , , ,-0.143,0,-112.319
 12:15:53.523,eb:33:2e:f9:57:b5, 2015-01-01 00:02:11.690,0.001,-0.002,0.996,0.122,-0.061,0.122, , , , , , ,-0.143,0,-112.319
 12:15:53.523,eb:33:2e:f9:57:b5, 2015-01-01 00:02:11.690,0,-0.001,0.997,0.122,-0.122,0.061, , , , , , ,-0.143,0,-112.319
 12:15:53.523,eb:33:2e:f9:57:b5, 2015-01-01 00:02:11.690,0.001,-0.002,0.996,0.122,-0.061,0.061, , , , , , ,-0.143,0,-112.319
 12:15:53.524,eb:33:2e:f9:57:b5, 2015-01-01 00:02:11.690,0,-0.001,0.997,0.122,-0.061,0.061, , , , , , ,-0.143,0,-112.319
 12:15:53.524,eb:33:2e:f9:57:b5, 2015-01-01 00:02:11.690,0,-0.002,0.997,0.122,-0.122,0.122, , , , , , ,-0.143,0,-112.319
 12:15:53.524,eb:33:2e:f9:57:b5, 2015-01-01 00:02:11.690,0.001,-0.001,0.997,0.122,-0.061,0.061, , , , , , ,-0.137,0,-112.319
 12:15:53.529,eb:33:2e:f9:57:b5, 2015-01-01 00:02:11.690,0,-0.002,0.997,0.122,-0.061,0.061, , , , , , ,-0.137,0,-112.319
 12:15:53.529,eb:33:2e:f9:57:b5, 2015-01-01 00:02:11.690,0.003,-0.002,0.996,0.183,-0.061,0.061, , , , , , ,-0.137,0,-112.319
 12:15:53.529,eb:33:2e:f9:57:b5, 2015-01-01 00:02:11.690,0,0,0.998,0.183,0,0, , , , , , ,-0.137,0,-112.319
 12:15:53.529,eb:33:2e:f9:57:b5, 2015-01-01 00:02:11.690,0,-0.003,0.996,0.183,0,0.122, , , , , , ,-0.137,0,-112.319
 12:15:53.529,eb:33:2e:f9:57:b5, 2015-01-01 00:02:11.690,0.001,-0.001,0.996,0.183,0,0.122, , , , , , ,-0.137,0,-112.319
 12:15:53.529,eb:33:2e:f9:57:b5, 2015-01-01 00:02:11.690,0,-0.001,0.997,0.183,0,0.061, , , , , , ,-0.137,0,-112.319
 12:15:53.529,eb:33:2e:f9:57:b5, 2015-01-01 00:02:11.690,0,-0.003,0.996,0.183,0,0.183, , , , , , ,-0.137,0,-112.319
 12:15:53.529,eb:33:2e:f9:57:b5, 2015-01-01 00:02:11.690,0.001,-0.002,0.996,0.183,-0.061,0.122, , , , , , ,-0.137,0,-112.319
 12:15:53.589,eb:33:2e:f9:57:b5, 2015-01-01 00:02:11.690,0,0,0.997,0.183,0,0, , , , , , ,-0.137,0,-112.319
 12:15:53.589,eb:33:2e:f9:57:b5, 2015-01-01 00:02:11.690,0,-0.001,0.996,0.122,0.061,0, , , , , , ,-0.137,0,-112.319
 12:15:53.589,eb:33:2e:f9:57:b5, 2015-01-01 00:02:11.690,0,0,0.995,0.061,0.122,0.061, , , , , , ,-0.137,0,-112.319
 12:15:53.589,eb:33:2e:f9:57:b5, 2015-01-01 00:02:11.690,0,-0.001,0.996,0.061,0.061,0.061, , , , , , ,-0.137,0,-112.319
 12:15:53.589,eb:33:2e:f9:57:b5, 2015-01-01 00:02:11.690,0,-0.001,0.996,0.061,0.061,0, , , , , , ,-0.137,0,-112.319
 12:15:53.589,eb:33:2e:f9:57:b5, 2015-01-01 00:02:11.690,0,-0.002,0.996,0.061,0.061,0.061, , , , , , ,-0.137,0,-112.319
 12:15:53.589,eb:33:2e:f9:57:b5, 2015-01-01 00:02:11.690,0,-0.001,0.996,0.061,0.061,0.061, , , , , , ,-0.137,0,-112.319
 12:15:53.589,eb:33:2e:f9:57:b5, 2015-01-01 00:02:11.690,0.001,-0.001,0.996,0.122,0.122,0.061, , , , , , ,-0.137,0,-112.319
 12:15:53.678,eb:33:2e:f9:57:b5, 2015-01-01 00:02:12.515,0.001,-0.001,0.997,0.122,0.122,0, , , , , , ,-0.137,0,-112.319
 12:15:53.678,eb:33:2e:f9:57:b5, 2015-01-01 00:02:12.515,-0.001,-0.002,0.997,0.122,0.183,0, , , , , , ,-0.137,0,-112.319
 12:15:53.678,eb:33:2e:f9:57:b5, 2015-01-01 00:02:12.515,0,-0.002,0.995,0.183,0.061,0.061, , , , , , ,-0.137,0,-112.319
 12:15:53.678,eb:33:2e:f9:57:b5, 2015-01-01 00:02:12.515,0,-0.002,0.996,0.244,0.061,0, , , , , , ,-0.137,0,-112.319
 12:15:53.678,eb:33:2e:f9:57:b5, 2015-01-01 00:02:12.515,0,-0.001,0.997,0.122,0.122,0, , , , , , ,-0.137,0,-112.319
 12:15:53.678,eb:33:2e:f9:57:b5, 2015-01-01 00:02:12.515,0,-0.001,0.997,0.122,0.061,0.061, , , , , , ,-0.137,0,-112.319
 12:15:53.678,eb:33:2e:f9:57:b5, 2015-01-01 00:02:12.515,0,-0.001,0.997,0.183,0.061,0.061, , , , , , ,-0.137,0,-112.319
 12:15:53.678,eb:33:2e:f9:57:b5, 2015-01-01 00:02:12.515,0,-0.002,0.997,0.183,0.061,0, , , , , , ,-0.137,0,-112.319
 12:15:53.678,eb:33:2e:f9:57:b5, 2015-01-01 00:02:12.515,0,-0.002,0.995,0.183,0.061,0.061, , , , , , ,-0.137,0,-112.319
 12:15:53.678,eb:33:2e:f9:57:b5, 2015-01-01 00:02:12.515,0,-0.002,0.996,0.183,0,0.061, , , , , , ,-0.137,0,-112.319
 12:15:53.678,eb:33:2e:f9:57:b5, 2015-01-01 00:02:12.515,0,-0.001,0.995,0.183,0.061,0.061, , , , , , ,-0.137,0,-112.319
 12:15:53.678,eb:33:2e:f9:57:b5, 2015-01-01 00:02:12.515,0,-0.001,0.995,0.183,0,0, , , , , , ,-0.137,0,-112.319
 12:15:53.680,eb:33:2e:f9:57:b5, 2015-01-01 00:02:12.515,0,0,0.995,0.122,0,0, , , , , , ,-0.137,0,-112.319
 12:15:53.680,eb:33:2e:f9:57:b5, 2015-01-01 00:02:12.515,0.001,-0.001,0.995,0.183,0,0, , , , , , ,-0.137,0,-112.319
 12:15:53.680,eb:33:2e:f9:57:b5, 2015-01-01 00:02:12.515,0,-0.001,0.995,0.183,0,0, , , , , , ,-0.137,0,-112.319
 12:15:53.680,eb:33:2e:f9:57:b5, 2015-01-01 00:02:12.515,0,0,0.996,0.122,0,0, , , , , , ,-0.132,0,-112.319
 12:15:53.681,eb:33:2e:f9:57:b5, 2015-01-01 00:02:12.515,0,-0.001,0.996,0.061,0,0, , , , , , ,-0.132,0,-112.319
 12:15:53.681,eb:33:2e:f9:57:b5, 2015-01-01 00:02:12.515,0,0,0.997,0.122,0.061,0, , , , , , ,-0.132,0,-112.319
 12:15:53.681,eb:33:2e:f9:57:b5, 2015-01-01 00:02:12.515,0.001,0,0.996,0.122,0.061,0.061, , , , , , ,-0.132,0,-112.319
 12:15:53.681,eb:33:2e:f9:57:b5, 2015-01-01 00:02:12.515,0,0,0.996,0.061,0.061,0.061, , , , , , ,-0.132,0,-112.319
 12:15:53.681,eb:33:2e:f9:57:b5, 2015-01-01 00:02:12.515,0,0,0.996,0.061,0.061,0, , , , , , ,-0.132,0,-112.319
 12:15:53.681,eb:33:2e:f9:57:b5, 2015-01-01 00:02:12.515,0,0,0.996,0.122,0.061,0, , , , , , ,-0.132,0,-112.319
 12:15:53.681,eb:33:2e:f9:57:b5, 2015-01-01 00:02:12.515,0.001,0,0.996,0.061,0.061,0, , , , , , ,-0.132,0,-112.319
 12:15:53.681,eb:33:2e:f9:57:b5, 2015-01-01 00:02:12.515,0,-0.001,0.996,0.061,0.122,0.061, , , , , , ,-0.132,0,-112.319
 12:15:53.723,eb:33:2e:f9:57:b5, 2015-01-01 00:02:12.515,0,0,0.996,0.061,0.122,0, , , , , , ,-0.132,0,-112.319
 12:15:53.723,eb:33:2e:f9:57:b5, 2015-01-01 00:02:12.515,0,0,0.997,0.061,0.061,0.061, , , , , , ,-0.132,0,-112.319
 12:15:53.723,eb:33:2e:f9:57:b5, 2015-01-01 00:02:12.515,0,-0.001,0.996,0,0.061,0, , , , , , ,-0.132,0,-112.319
 12:15:53.723,eb:33:2e:f9:57:b5, 2015-01-01 00:02:12.515,0,0,0.996,0,0.122,0, , , , , , ,-0.132,0,-112.319
 12:15:53.723,eb:33:2e:f9:57:b5, 2015-01-01 00:02:12.515,0,-0.001,0.996,0,0.122,0, , , , , , ,-0.132,0,-112.319
 12:15:53.723,eb:33:2e:f9:57:b5, 2015-01-01 00:02:12.515,0,0,0.996,0.061,0.122,0.061, , , , , , ,-0.132,0,-112.319
 12:15:53.723,eb:33:2e:f9:57:b5, 2015-01-01 00:02:12.515,0,-0.001,0.996,0,0.061,0, , , , , , ,-0.132,0,-112.319
 12:15:53.723,eb:33:2e:f9:57:b5, 2015-01-01 00:02:12.515,0,0,0.996,0,0.061,0, , , , , , ,-0.132,0,-112.319
 12:15:53.769,eb:33:2e:f9:57:b5, 2015-01-01 00:02:12.515,0,-0.001,0.997,0,0.061,0.061, , , , , , ,-0.132,0,-112.319
 12:15:53.769,eb:33:2e:f9:57:b5, 2015-01-01 00:02:12.515,0,0,0.996,0,0.061,0, , , , , , ,-0.132,0,-112.319
 12:15:53.769,eb:33:2e:f9:57:b5, 2015-01-01 00:02:12.515,0,-0.001,0.996,0,0,0, , , , , , ,-0.132,0,-112.319
 12:15:53.769,eb:33:2e:f9:57:b5, 2015-01-01 00:02:12.515,0,0,0.996,0,0,0, , , , , , ,-0.132,0,-112.319
 12:15:53.769,eb:33:2e:f9:57:b5, 2015-01-01 00:02:12.515,0,-0.001,0.996,0,0,0, , , , , , ,-0.132,0,-112.319
 12:15:53.769,eb:33:2e:f9:57:b5, 2015-01-01 00:02:12.515,0,0,0.997,0,0,0, , , , , , ,-0.132,0,-112.319
 12:15:53.769,eb:33:2e:f9:57:b5, 2015-01-01 00:02:12.515,0,0,0.996,0,0,0, , , , , , ,-0.132,0,-112.319
 12:15:53.769,eb:33:2e:f9:57:b5, 2015-01-01 00:02:12.515,0,-0.001,0.996,0,0,0, , , , , , ,-0.132,0,-112.319
 12:15:53.881,eb:33:2e:f9:57:b5, 2015-01-01 00:02:12.515,0,0,0.996,0,0,0, , , , , , ,-0.132,0,-112.319
 12:15:53.881,eb:33:2e:f9:57:b5, 2015-01-01 00:02:12.515,0,0,0.996,-0.061,0,0, , , , , , ,-0.132,0,-112.319
 12:15:53.881,eb:33:2e:f9:57:b5, 2015-01-01 00:02:12.515,0.001,-0.001,0.996,-0.061,0,0, , , , , , ,-0.132,0,-112.319
 12:15:53.881,eb:33:2e:f9:57:b5, 2015-01-01 00:02:12.515,0,-0.001,0.997,-0.061,0.061,0, , , , , , ,-0.132,0,-112.319
 12:15:53.881,eb:33:2e:f9:57:b5, 2015-01-01 00:02:12.515,0,0,0.996,-0.061,0.061,0, , , , , , ,-0.132,0,-112.319
 12:15:53.881,eb:33:2e:f9:57:b5, 2015-01-01 00:02:12.515,0.001,-0.001,0.996,-0.061,0.061,0, , , , , , ,-0.132,0,-112.319
 12:15:53.881,eb:33:2e:f9:57:b5, 2015-01-01 00:02:12.515,0.001,0,0.996,-0.122,0.122,0, , , , , , ,-0.132,0,-112.319
 12:15:53.881,eb:33:2e:f9:57:b5, 2015-01-01 00:02:12.515,0.001,0,0.996,-0.061,0.183,0, , , , , , ,-0.132,0,-112.319
 12:15:53.902,eb:33:2e:f9:57:b5, 2015-01-01 00:02:12.515,0.001,-0.001,0.996,-0.122,0.183,0, , , , , , ,-0.132,0,-112.319
 12:15:53.902,eb:33:2e:f9:57:b5, 2015-01-01 00:02:12.515,0.001,0,0.997,-0.122,0.183,0, , , , , , ,-0.132,0,-112.319
 12:15:53.902,eb:33:2e:f9:57:b5, 2015-01-01 00:02:12.515,0,0,0.995,-0.122,0.183,0, , , , , , ,-0.132,0,-112.319
 12:15:53.902,eb:33:2e:f9:57:b5, 2015-01-01 00:02:12.515,0,0,0.996,-0.183,0.244,-0.061, , , , , , ,-0.132,0,-112.319
 12:15:53.902,eb:33:2e:f9:57:b5, 2015-01-01 00:02:12.515,0.002,-0.001,0.997,-0.122,0.244,0, , , , , , ,-0.132,0,-112.319
 12:15:53.902,eb:33:2e:f9:57:b5, 2015-01-01 00:02:12.515,0,0,0.998,-0.183,0.305,-0.061, , , , , , ,-0.132,0,-112.319
 12:15:53.902,eb:33:2e:f9:57:b5, 2015-01-01 00:02:12.515,0.001,-0.001,0.996,-0.183,0.305,-0.061, , , , , , ,-0.132,0,-112.319
 12:15:53.902,eb:33:2e:f9:57:b5, 2015-01-01 00:02:12.515,0,0,0.997,-0.183,0.305,0, , , , , , ,-0.132,0,-112.319
 12:15:53.925,eb:33:2e:f9:57:b5, 2015-01-01 00:02:12.515,0.001,0,0.997,-0.183,0.305,0, , , , , , ,-0.132,0,-112.319
 12:15:53.925,eb:33:2e:f9:57:b5, 2015-01-01 00:02:12.515,-0.001,-0.001,0.997,-0.122,0.366,0, , , , , , ,-0.132,0,-112.319
 12:15:53.925,eb:33:2e:f9:57:b5, 2015-01-01 00:02:12.515,0,-0.002,0.996,-0.122,0.305,0, , , , , , ,-0.132,0,-112.319
 12:15:53.925,eb:33:2e:f9:57:b5, 2015-01-01 00:02:12.515,0,-0.001,0.996,-0.122,0.305,0, , , , , , ,-0.132,0,-112.319
 12:15:53.925,eb:33:2e:f9:57:b5, 2015-01-01 00:02:12.515,0,-0.002,0.997,-0.122,0.244,0, , , , , , ,-0.132,0,-112.319
 12:15:53.925,eb:33:2e:f9:57:b5, 2015-01-01 00:02:12.515,-0.002,-0.002,0.997,-0.122,0.244,0, , , , , , ,-0.132,0,-112.319
 12:15:53.925,eb:33:2e:f9:57:b5, 2015-01-01 00:02:12.515,0,-0.001,0.995,-0.183,0.122,0, , , , , , ,-0.132,0,-112.319
 12:15:53.925,eb:33:2e:f9:57:b5, 2015-01-01 00:02:12.515,0.002,0,0.997,-0.122,0.122,0, , , , , , ,-0.132,0,-112.319
 12:15:53.950,eb:33:2e:f9:57:b5, 2015-01-01 00:02:12.515,0,0,0.998,-0.122,0.244,0, , , , , , ,-0.132,0,-112.319
 12:15:53.950,eb:33:2e:f9:57:b5, 2015-01-01 00:02:12.515,-0.001,-0.002,0.996,-0.061,0.244,0, , , , , , ,-0.132,0,-112.319
 12:15:53.950,eb:33:2e:f9:57:b5, 2015-01-01 00:02:12.515,-0.001,-0.002,0.996,-0.122,0.183,0, , , , , , ,-0.132,0,-112.319
 12:15:53.950,eb:33:2e:f9:57:b5, 2015-01-01 00:02:12.515,0.001,-0.002,0.996,-0.122,0.122,0, , , , , , ,-0.132,0,-112.319
 12:15:53.950,eb:33:2e:f9:57:b5, 2015-01-01 00:02:12.515,0,-0.001,0.997,-0.122,0.183,0, , , , , , ,-0.132,0,-112.319
 12:15:53.950,eb:33:2e:f9:57:b5, 2015-01-01 00:02:12.515,-0.002,-0.002,0.996,-0.061,0.183,0, , , , , , ,-0.132,0,-112.319
 12:15:53.950,eb:33:2e:f9:57:b5, 2015-01-01 00:02:12.515,0,-0.001,0.996,-0.122,0.183,0, , , , , , ,-0.132,0,-112.319
 12:15:53.950,eb:33:2e:f9:57:b5, 2015-01-01 00:02:12.515,-0.001,-0.002,0.996,-0.061,0.244,0.061, , , , , , ,-0.126,0,-112.319
 12:15:54.060,eb:33:2e:f9:57:b5, 2015-01-01 00:02:12.515,0,-0.001,0.996,-0.122,0.183,0.061, , , , , , ,-0.126,0,-112.319
 12:15:54.060,eb:33:2e:f9:57:b5, 2015-01-01 00:02:12.515,0.002,-0.001,0.996,-0.122,0.122,0, , , , , , ,-0.126,0,-112.319
 12:15:54.060,eb:33:2e:f9:57:b5, 2015-01-01 00:02:12.515,-0.001,-0.002,0.998,-0.122,0.122,0, , , , , , ,-0.126,0,-112.319
 12:15:54.060,eb:33:2e:f9:57:b5, 2015-01-01 00:02:12.515,-0.001,-0.002,0.995,-0.061,0.122,0, , , , , , ,-0.126,0,-112.319
 12:15:54.060,eb:33:2e:f9:57:b5, 2015-01-01 00:02:12.515,0.002,-0.001,0.996,-0.061,0.061,0, , , , , , ,-0.126,0,-112.319
 12:15:54.060,eb:33:2e:f9:57:b5, 2015-01-01 00:02:12.515,-0.002,-0.001,0.998,-0.061,0.122,0, , , , , , ,-0.126,0,-112.319
 12:15:54.060,eb:33:2e:f9:57:b5, 2015-01-01 00:02:12.515,-0.001,-0.002,0.996,0,0.061,0, , , , , , ,-0.126,0,-112.319
 12:15:54.060,eb:33:2e:f9:57:b5, 2015-01-01 00:02:12.515,0.001,-0.002,0.997,-0.061,0.061,0, , , , , , ,-0.126,0,-112.319
 12:15:54.084,eb:33:2e:f9:57:b5, 2015-01-01 00:02:12.515,-0.003,-0.001,0.998,-0.061,0.122,0, , , , , , ,-0.126,0,-112.319
 12:15:54.084,eb:33:2e:f9:57:b5, 2015-01-01 00:02:12.515,0,-0.002,0.994,0,0.061,0, , , , , , ,-0.126,0,-112.319
 12:15:54.084,eb:33:2e:f9:57:b5, 2015-01-01 00:02:12.515,0.001,-0.001,0.997,0,0.061,0, , , , , , ,-0.126,0,-112.319
 12:15:54.084,eb:33:2e:f9:57:b5, 2015-01-01 00:02:12.515,-0.001,-0.002,0.998,0,0.061,0, , , , , , ,-0.126,0,-112.319
 12:15:54.084,eb:33:2e:f9:57:b5, 2015-01-01 00:02:12.515,0,-0.002,0.996,0,0,0, , , , , , ,-0.126,0,-112.319
 12:15:54.084,eb:33:2e:f9:57:b5, 2015-01-01 00:02:12.515,0.001,-0.001,0.997,0,0,0, , , , , , ,-0.126,0,-112.319
 12:15:54.084,eb:33:2e:f9:57:b5, 2015-01-01 00:02:12.515,-0.002,-0.002,0.997,0,0.061,0, , , , , , ,-0.126,0,-112.319
 12:15:54.084,eb:33:2e:f9:57:b5, 2015-01-01 00:02:12.515,0,-0.003,0.996,0,0,0, , , , , , ,-0.126,0,-112.319
 12:15:54.084,eb:33:2e:f9:57:b5, 2015-01-01 00:02:12.515,0.002,-0.002,0.996,0,0,0, , , , , , ,-0.126,0,-112.319
 12:15:54.084,eb:33:2e:f9:57:b5, 2015-01-01 00:02:12.515,0,-0.002,0.998,0,0.061,0, , , , , , ,-0.126,0,-112.319
 12:15:54.084,eb:33:2e:f9:57:b5, 2015-01-01 00:02:12.515,0,-0.001,0.996,0,0.061,0, , , , , , ,-0.126,0,-112.319
 12:15:54.086,eb:33:2e:f9:57:b5, 2015-01-01 00:02:12.515,0,-0.002,0.996,0,0,0, , , , , , ,-0.126,0,-112.319
 12:15:54.086,eb:33:2e:f9:57:b5, 2015-01-01 00:02:12.515,0.001,-0.001,0.996,0,0.061,0, , , , , , ,-0.126,0,-112.319
 12:15:54.086,eb:33:2e:f9:57:b5, 2015-01-01 00:02:12.515,0,-0.001,0.997,-0.061,0.061,0, , , , , , ,-0.126,0,-112.319
 12:15:54.086,eb:33:2e:f9:57:b5, 2015-01-01 00:02:12.515,-0.001,-0.003,0.996,0,0,0, , , , , , ,-0.126,0,-112.319
 12:15:54.086,eb:33:2e:f9:57:b5, 2015-01-01 00:02:12.515,0,-0.002,0.995,-0.061,0,0, , , , , , ,-0.126,0,-112.319
 12:15:54.086,eb:33:2e:f9:57:b5, 2015-01-01 00:02:12.515,0,-0.002,0.996,0,0,0, , , , , , ,-0.126,0,-112.319
 12:15:54.086,eb:33:2e:f9:57:b5, 2015-01-01 00:02:12.515,0,-0.002,0.997,0,0,0, , , , , , ,-0.126,0,-112.319
 12:15:54.086,eb:33:2e:f9:57:b5, 2015-01-01 00:02:12.515,0,-0.002,0.997,0,0,0, , , , , , ,-0.126,0,-112.319
 12:15:54.086,eb:33:2e:f9:57:b5, 2015-01-01 00:02:12.515,0,-0.002,0.997,0,0,0, , , , , , ,-0.126,0,-112.319
 12:15:54.087,eb:33:2e:f9:57:b5, 2015-01-01 00:02:12.515,0,-0.002,0.997,-0.061,0,0, , , , , , ,-0.126,0,-112.319
 12:15:54.087,eb:33:2e:f9:57:b5, 2015-01-01 00:02:12.515,0,-0.002,0.997,0,0,0, , , , , , ,-0.126,0,-112.319
 12:15:54.087,eb:33:2e:f9:57:b5, 2015-01-01 00:02:12.515,-0.001,-0.002,0.996,-0.061,0,0.061, , , , , , ,-0.126,0,-112.319
 12:15:54.088,eb:33:2e:f9:57:b5, 2015-01-01 00:02:12.515,-0.001,-0.002,0.996,-0.061,0,0, , , , , , ,-0.126,0,-112.319
 12:15:54.218,eb:33:2e:f9:57:b5, 2015-01-01 00:02:12.515,0,-0.002,0.996,-0.061,0,0.061, , , , , , ,-0.126,0,-112.319
 12:15:54.218,eb:33:2e:f9:57:b5, 2015-01-01 00:02:12.515,0,-0.002,0.997,-0.061,0,0, , , , , , ,-0.126,0,-112.319
 12:15:54.218,eb:33:2e:f9:57:b5, 2015-01-01 00:02:12.515,0,-0.001,0.997,0,0.061,0.061, , , , , , ,-0.126,0,-112.319
 12:15:54.218,eb:33:2e:f9:57:b5, 2015-01-01 00:02:12.515,0,-0.002,0.997,-0.061,0,0.122, , , , , , ,-0.126,0,-112.319
 12:15:54.218,eb:33:2e:f9:57:b5, 2015-01-01 00:02:12.515,0,-0.002,0.997,-0.122,0,0.122, , , , , , ,-0.126,0,-112.319
 12:15:54.218,eb:33:2e:f9:57:b5, 2015-01-01 00:02:12.515,0,-0.002,0.996,-0.061,0,0.061, , , , , , ,-0.126,0,-112.319
 12:15:54.218,eb:33:2e:f9:57:b5, 2015-01-01 00:02:12.515,0,-0.002,0.996,-0.122,0,0.061, , , , , , ,-0.126,0,-112.319
 12:15:54.218,eb:33:2e:f9:57:b5, 2015-01-01 00:02:12.515,0,-0.001,0.997,-0.122,0,0.122, , , , , , ,-0.126,0,-112.319
 12:15:54.221,eb:33:2e:f9:57:b5, 2015-01-01 00:02:12.515,0,-0.001,0.997,-0.122,-0.061,0.061, , , , , , ,-0.126,0,-112.319
 12:15:54.222,eb:33:2e:f9:57:b5, 2015-01-01 00:02:12.515,-0.002,-0.002,0.997,-0.061,0,0.122, , , , , , ,-0.126,0,-112.319
 12:15:54.222,eb:33:2e:f9:57:b5, 2015-01-01 00:02:12.515,0,-0.001,0.995,-0.122,-0.061,0.122, , , , , , ,-0.126,0,-112.319
 12:15:54.222,eb:33:2e:f9:57:b5, 2015-01-01 00:02:12.515,0,-0.002,0.997,-0.122,-0.122,0.122, , , , , , ,-0.126,0,-112.319
 12:15:54.222,eb:33:2e:f9:57:b5, 2015-01-01 00:02:12.515,0,-0.002,0.997,-0.122,0,0.061, , , , , , ,-0.126,0,-112.319
 12:15:54.222,eb:33:2e:f9:57:b5, 2015-01-01 00:02:12.515,0,-0.002,0.997,-0.122,-0.061,0.122, , , , , , ,-0.126,0,-112.319
 12:15:54.222,eb:33:2e:f9:57:b5, 2015-01-01 00:02:13.050,0.002,-0.002,0.996,-0.122,0,0.061, , , , , , ,-0.126,0,-112.319
 12:15:54.222,eb:33:2e:f9:57:b5, 2015-01-01 00:02:13.050,0,-0.002,0.997,-0.061,0,0.061, , , , , , ,-0.126,0,-112.319
 12:15:54.223,eb:33:2e:f9:57:b5, 2015-01-01 00:02:13.050,0,-0.003,0.996,-0.061,-0.061,0.061, , , , , , ,-0.126,0,-112.319
 12:15:54.223,eb:33:2e:f9:57:b5, 2015-01-01 00:02:13.050,0,-0.002,0.996,-0.122,0,0.122, , , , , , ,-0.126,0,-112.319
 12:15:54.223,eb:33:2e:f9:57:b5, 2015-01-01 00:02:13.050,0,-0.002,0.997,-0.061,0,0.061, , , , , , ,-0.126,0,-112.319
 12:15:54.223,eb:33:2e:f9:57:b5, 2015-01-01 00:02:13.050,0,-0.002,0.998,-0.061,0.061,0.061, , , , , , ,-0.126,0,-112.319
 12:15:54.223,eb:33:2e:f9:57:b5, 2015-01-01 00:02:13.050,0,-0.002,0.997,0,0,0.061, , , , , , ,-0.126,0,-112.319
 12:15:54.223,eb:33:2e:f9:57:b5, 2015-01-01 00:02:13.050,0,-0.003,0.997,-0.061,0,0.061, , , , , , ,-0.126,0,-112.319
 12:15:54.223,eb:33:2e:f9:57:b5, 2015-01-01 00:02:13.050,0,-0.003,0.997,0,0,0.122, , , , , , ,-0.126,0,-112.319
 12:15:54.223,eb:33:2e:f9:57:b5, 2015-01-01 00:02:13.050,0,-0.002,0.996,0,0,0.122, , , , , , ,-0.126,0,-112.319
 12:15:54.354,eb:33:2e:f9:57:b5, 2015-01-01 00:02:13.050,0,-0.002,0.997,0,0,0.061, , , , , , ,-0.126,0,-112.319
 12:15:54.354,eb:33:2e:f9:57:b5, 2015-01-01 00:02:13.050,0,-0.002,0.997,0.061,0,0.122, , , , , , ,-0.126,0,-112.319
 12:15:54.354,eb:33:2e:f9:57:b5, 2015-01-01 00:02:13.050,0.002,-0.002,0.998,0,0,0.122, , , , , , ,-0.126,0,-112.319
 12:15:54.354,eb:33:2e:f9:57:b5, 2015-01-01 00:02:13.050,-0.001,-0.002,0.998,0,0.122,0.122, , , , , , ,-0.126,0,-112.319
 12:15:54.354,eb:33:2e:f9:57:b5, 2015-01-01 00:02:13.050,0,-0.002,0.996,0,0,0.061, , , , , , ,-0.126,0,-112.319
 12:15:54.354,eb:33:2e:f9:57:b5, 2015-01-01 00:02:13.050,0,-0.002,0.997,0.061,0,0.061, , , , , , ,-0.126,0,-112.319
 12:15:54.354,eb:33:2e:f9:57:b5, 2015-01-01 00:02:13.050,0.002,-0.003,0.997,0.061,0,0.122, , , , , , ,-0.126,0,-112.319
 12:15:54.354,eb:33:2e:f9:57:b5, 2015-01-01 00:02:13.050,-0.001,-0.001,0.997,0.061,0.061,0.122, , , , , , ,-0.126,0,-112.319
 12:15:54.354,eb:33:2e:f9:57:b5, 2015-01-01 00:02:13.050,0,-0.003,0.995,0.061,0.061,0.122, , , , , , ,-0.126,0,-112.319
 12:15:54.354,eb:33:2e:f9:57:b5, 2015-01-01 00:02:13.050,0.002,-0.003,0.996,0,0.061,0.061, , , , , , ,-0.126,0,-112.319
 12:15:54.354,eb:33:2e:f9:57:b5, 2015-01-01 00:02:13.050,-0.002,-0.001,0.998,0.061,0.122,0, , , , , , ,-0.126,0,-112.319
 12:15:54.354,eb:33:2e:f9:57:b5, 2015-01-01 00:02:13.050,0,-0.003,0.994,0.061,0.122,0.061, , , , , , ,-0.126,0,-112.319
 12:15:54.354,eb:33:2e:f9:57:b5, 2015-01-01 00:02:13.050,0.002,-0.002,0.997,0.061,0.061,0.061, , , , , , ,-0.126,0,-112.319
 12:15:54.354,eb:33:2e:f9:57:b5, 2015-01-01 00:02:13.050,-0.002,-0.003,0.997,0.122,0.122,0.061, , , , , , ,-0.126,0,-112.319
 12:15:54.355,eb:33:2e:f9:57:b5, 2015-01-01 00:02:13.050,0,-0.003,0.995,0.122,0.061,0.122, , , , , , ,-0.126,0,-112.319
 12:15:54.355,eb:33:2e:f9:57:b5, 2015-01-01 00:02:13.050,0.001,-0.001,0.998,0.183,0.122,0.061, , , , , , ,-0.126,0,-112.319
 12:15:54.357,eb:33:2e:f9:57:b5, 2015-01-01 00:02:13.050,0,-0.003,0.998,0.122,0.183,0.122, , , , , , ,-0.126,0,-112.319
 12:15:54.357,eb:33:2e:f9:57:b5, 2015-01-01 00:02:13.050,0.003,-0.001,0.995,0.122,0.122,0.122, , , , , , ,-0.126,0,-112.319
 12:15:54.357,eb:33:2e:f9:57:b5, 2015-01-01 00:02:13.050,0.001,0,0.998,0.061,0.244,0.122, , , , , , ,-0.126,0,-112.319
 12:15:54.357,eb:33:2e:f9:57:b5, 2015-01-01 00:02:13.050,0,-0.002,0.998,0.122,0.366,0.122, , , , , , ,-0.126,0,-112.319
 12:15:54.357,eb:33:2e:f9:57:b5, 2015-01-01 00:02:13.050,-0.001,-0.003,0.999,0.122,0.305,0.183, , , , , , ,-0.126,0,-112.319
 12:15:54.357,eb:33:2e:f9:57:b5, 2015-01-01 00:02:13.050,0,-0.004,0.999,0.122,0.305,0.061, , , , , , ,-0.126,0,-112.319
 12:15:54.357,eb:33:2e:f9:57:b5, 2015-01-01 00:02:13.050,-0.001,-0.005,0.998,0.183,0.305,0.183, , , , , , ,-0.126,0,-112.319
 12:15:54.357,eb:33:2e:f9:57:b5, 2015-01-01 00:02:13.050,-0.001,-0.003,0.996,0.183,0.244,0.122, , , , , , ,-0.132,0,-112.319
 12:15:54.377,eb:33:2e:f9:57:b5, 2015-01-01 00:02:13.050,0,-0.002,0.996,0.244,0.183,0.122, , , , , , ,-0.132,0,-112.319
 12:15:54.377,eb:33:2e:f9:57:b5, 2015-01-01 00:02:13.050,0,-0.002,0.996,0.244,0.183,0.183, , , , , , ,-0.132,0,-112.319
 12:15:54.377,eb:33:2e:f9:57:b5, 2015-01-01 00:02:13.050,0,-0.002,0.996,0.244,0.183,0.183, , , , , , ,-0.132,0,-112.319
 12:15:54.377,eb:33:2e:f9:57:b5, 2015-01-01 00:02:13.050,0,-0.001,0.996,0.244,0.183,0.183, , , , , , ,-0.132,0,-112.319
 12:15:54.377,eb:33:2e:f9:57:b5, 2015-01-01 00:02:13.050,0,-0.001,0.996,0.244,0.122,0.183, , , , , , ,-0.132,0,-112.319
 12:15:54.377,eb:33:2e:f9:57:b5, 2015-01-01 00:02:13.050,0,-0.002,0.995,0.183,0.183,0.122, , , , , , ,-0.132,0,-112.319
 12:15:54.377,eb:33:2e:f9:57:b5, 2015-01-01 00:02:13.050,0,-0.002,0.996,0.183,0.061,0.183, , , , , , ,-0.132,0,-112.319
 12:15:54.377,eb:33:2e:f9:57:b5, 2015-01-01 00:02:13.050,0,-0.002,0.997,0.183,0.122,0.183, , , , , , ,-0.132,0,-112.319
 12:15:54.421,eb:33:2e:f9:57:b5, 2015-01-01 00:02:13.050,0,-0.002,0.996,0.183,0.122,0.183, , , , , , ,-0.132,0,-112.319
 12:15:54.421,eb:33:2e:f9:57:b5, 2015-01-01 00:02:13.050,0,-0.001,0.996,0.183,0.061,0.183, , , , , , ,-0.132,0,-112.319
 12:15:54.421,eb:33:2e:f9:57:b5, 2015-01-01 00:02:13.050,0,-0.001,0.996,0.122,0.061,0.183, , , , , , ,-0.132,0,-112.319
 12:15:54.421,eb:33:2e:f9:57:b5, 2015-01-01 00:02:13.050,0,-0.002,0.997,0.122,0.122,0.183, , , , , , ,-0.132,0,-112.319
 12:15:54.421,eb:33:2e:f9:57:b5, 2015-01-01 00:02:13.050,-0.001,-0.002,0.997,0.183,0.122,0.183, , , , , , ,-0.132,0,-112.319
 12:15:54.421,eb:33:2e:f9:57:b5, 2015-01-01 00:02:13.050,0,-0.002,0.996,0.183,0.122,0.244, , , , , , ,-0.132,0,-112.319
 12:15:54.421,eb:33:2e:f9:57:b5, 2015-01-01 00:02:13.050,0,-0.001,0.997,0.183,0.122,0.244, , , , , , ,-0.132,0,-112.319
 12:15:54.421,eb:33:2e:f9:57:b5, 2015-01-01 00:02:13.050,0,-0.002,0.997,0.183,0.122,0.183, , , , , , ,-0.132,0,-112.319
 12:15:54.465,eb:33:2e:f9:57:b5, 2015-01-01 00:02:13.050,0,-0.002,0.996,0.122,0.061,0.183, , , , , , ,-0.132,0,-112.319
 12:15:54.465,eb:33:2e:f9:57:b5, 2015-01-01 00:02:13.050,0,-0.001,0.997,0.183,0.061,0.183, , , , , , ,-0.132,0,-112.319
 12:15:54.465,eb:33:2e:f9:57:b5, 2015-01-01 00:02:13.050,0,-0.001,0.996,0.183,0.122,0.122, , , , , , ,-0.132,0,-112.319
 12:15:54.466,eb:33:2e:f9:57:b5, 2015-01-01 00:02:13.050,-0.001,-0.001,0.996,0.122,0.122,0.183, , , , , , ,-0.132,0,-112.319
 12:15:54.466,eb:33:2e:f9:57:b5, 2015-01-01 00:02:13.050,0.001,-0.001,0.994,0.122,0.061,0.183, , , , , , ,-0.132,0,-112.319
 12:15:54.466,eb:33:2e:f9:57:b5, 2015-01-01 00:02:13.050,0,0,0.997,0.061,0.183,0.244, , , , , , ,-0.132,0,-112.319
 12:15:54.466,eb:33:2e:f9:57:b5, 2015-01-01 00:02:13.050,-0.002,-0.002,0.997,0.061,0.244,0.244, , , , , , ,-0.132,0,-112.319
 12:15:54.466,eb:33:2e:f9:57:b5, 2015-01-01 00:02:13.050,0,-0.002,0.997,0.122,0.122,0.183, , , , , , ,-0.132,0,-112.319
 12:15:54.488,eb:33:2e:f9:57:b5, 2015-01-01 00:02:13.050,0,-0.003,0.998,0.183,0.122,0.183, , , , , , ,-0.132,0,-112.319
 12:15:54.488,eb:33:2e:f9:57:b5, 2015-01-01 00:02:13.050,0,-0.002,0.998,0.183,0.122,0.183, , , , , , ,-0.132,0,-112.319
 12:15:54.488,eb:33:2e:f9:57:b5, 2015-01-01 00:02:13.050,0,-0.002,0.996,0.183,0.122,0.183, , , , , , ,-0.132,0,-112.319
 12:15:54.488,eb:33:2e:f9:57:b5, 2015-01-01 00:02:13.050,0,-0.002,0.996,0.183,0.061,0.183, , , , , , ,-0.126,0,-112.319
 12:15:54.488,eb:33:2e:f9:57:b5, 2015-01-01 00:02:13.050,0,-0.002,0.997,0.183,0.061,0.183, , , , , , ,-0.126,0,-112.319
 12:15:54.488,eb:33:2e:f9:57:b5, 2015-01-01 00:02:13.050,0,-0.001,0.996,0.183,0.061,0.183, , , , , , ,-0.126,0,-112.319
 12:15:54.488,eb:33:2e:f9:57:b5, 2015-01-01 00:02:13.050,0,-0.001,0.995,0.122,0,0.122, , , , , , ,-0.126,0,-112.319
 12:15:54.488,eb:33:2e:f9:57:b5, 2015-01-01 00:02:13.050,0,-0.001,0.995,0.122,0.122,0.122, , , , , , ,-0.126,0,-112.319
 12:15:54.576,eb:33:2e:f9:57:b5, 2015-01-01 00:02:13.050,0,-0.002,0.996,0.122,0,0.122, , , , , , ,-0.126,0,-112.319
 12:15:54.576,eb:33:2e:f9:57:b5, 2015-01-01 00:02:13.050,0,-0.001,0.996,0.183,0,0.122, , , , , , ,-0.126,0,-112.319
 12:15:54.576,eb:33:2e:f9:57:b5, 2015-01-01 00:02:13.050,0,-0.002,0.996,0.183,0.061,0.122, , , , , , ,-0.126,0,-112.319
 12:15:54.576,eb:33:2e:f9:57:b5, 2015-01-01 00:02:13.050,0,-0.002,0.996,0.183,0.061,0.122, , , , , , ,-0.126,0,-112.319
 12:15:54.576,eb:33:2e:f9:57:b5, 2015-01-01 00:02:13.050,0,-0.001,0.997,0.122,0.061,0.122, , , , , , ,-0.126,0,-112.319
 12:15:54.576,eb:33:2e:f9:57:b5, 2015-01-01 00:02:13.050,0,-0.002,0.996,0.183,0.122,0.122, , , , , , ,-0.126,0,-112.319
