Time,Device name,Chip Time(),Acceleration X(g),Acceleration Y(g),Acceleration Z(g),Angular velocity X(°/s),Angular velocity Y(°/s),Angular velocity Z(°/s),ShiftX(mm),ShiftY(mm),ShiftZ(mm),SpeedX(mm/s),SpeedY(mm/s),SpeedZ(mm/s),Angle X(°),Angle Y(°),Angle Z(°)
 12:19:36.749,eb:33:2e:f9:57:b5, 2015-01-01 00:05:54.000,0.026,-0.028,0.995,-0.183,0.061,0, , , , , , ,-1.703,-1.522,-104.156
 12:19:36.750,eb:33:2e:f9:57:b5, 2015-01-01 00:05:54.000,0.026,-0.028,0.996,-0.183,0,0, , , , , , ,-1.703,-1.522,-104.15
 12:19:36.750,eb:33:2e:f9:57:b5, 2015-01-01 00:05:54.000,0.026,-0.028,0.995,-0.183,0,0, , , , , , ,-1.703,-1.522,-104.15
 12:19:36.750,eb:33:2e:f9:57:b5, 2015-01-01 00:05:54.000,0.026,-0.028,0.995,-0.183,0,0, , , , , , ,-1.703,-1.522,-104.15
 12:19:36.750,eb:33:2e:f9:57:b5, 2015-01-01 00:05:54.000,0.026,-0.028,0.995,-0.183,0,0, , , , , , ,-1.703,-1.522,-104.15
 12:19:36.750,eb:33:2e:f9:57:b5, 2015-01-01 00:05:54.000,0.026,-0.028,0.996,-0.244,0,0, , , , , , ,-1.703,-1.522,-104.15
 12:19:36.750,eb:33:2e:f9:57:b5, 2015-01-01 00:05:54.000,0.025,-0.028,0.995,-0.244,0,0, , , , , , ,-1.703,-1.522,-104.15
 12:19:36.750,eb:33:2e:f9:57:b5, 2015-01-01 00:05:54.000,0.026,-0.029,0.995,-0.244,0,0, , , , , , ,-1.703,-1.522,-104.15
 12:19:36.794,eb:33:2e:f9:57:b5, 2015-01-01 00:05:54.000,0.026,-0.029,0.995,-0.183,0,0, , , , , , ,-1.703,-1.522,-104.15
 12:19:36.794,eb:33:2e:f9:57:b5, 2015-01-01 00:05:54.000,0.025,-0.03,0.995,-0.183,0,0, , , , , , ,-1.703,-1.522,-104.15
 12:19:36.794,eb:33:2e:f9:57:b5, 2015-01-01 00:05:54.000,0.026,-0.029,0.996,-0.183,0,0, , , , , , ,-1.703,-1.522,-104.15
 12:19:36.794,eb:33:2e:f9:57:b5, 2015-01-01 00:05:54.000,0.026,-0.029,0.995,-0.183,0,0, , , , , , ,-1.703,-1.522,-104.15
 12:19:36.794,eb:33:2e:f9:57:b5, 2015-01-01 00:05:54.000,0.026,-0.029,0.997,-0.183,0,0, , , , , , ,-1.703,-1.522,-104.15
 12:19:36.794,eb:33:2e:f9:57:b5, 2015-01-01 00:05:54.000,0.027,-0.029,0.996,-0.183,-0.061,0, , , , , , ,-1.703,-1.522,-104.15
 12:19:36.794,eb:33:2e:f9:57:b5, 2015-01-01 00:05:54.000,0.026,-0.029,0.996,-0.122,0,0.061, , , , , , ,-1.703,-1.522,-104.15
 12:19:36.794,eb:33:2e:f9:57:b5, 2015-01-01 00:05:54.000,0.026,-0.028,0.995,-0.122,0,0, , , , , , ,-1.703,-1.522,-104.15
 12:19:36.839,eb:33:2e:f9:57:b5, 2015-01-01 00:05:54.000,0.027,-0.028,0.996,-0.122,-0.061,0, , , , , , ,-1.703,-1.522,-104.15
 12:19:36.839,eb:33:2e:f9:57:b5, 2015-01-01 00:05:54.000,0.026,-0.028,0.996,-0.122,-0.061,0, , , , , , ,-1.703,-1.522,-104.15
 12:19:36.839,eb:33:2e:f9:57:b5, 2015-01-01 00:05:54.000,0.026,-0.029,0.995,-0.122,-0.061,0, , , , , , ,-1.703,-1.522,-104.15
 12:19:36.839,eb:33:2e:f9:57:b5, 2015-01-01 00:05:54.000,0.025,-0.029,0.996,-0.122,-0.061,0, , , , , , ,-1.697,-1.522,-104.15
 12:19:36.840,eb:33:2e:f9:57:b5, 2015-01-01 00:05:54.000,0.026,-0.029,0.995,-0.122,-0.061,0, , , , , , ,-1.697,-1.522,-104.15
 12:19:36.840,eb:33:2e:f9:57:b5, 2015-01-01 00:05:54.000,0.026,-0.029,0.995,-0.122,0,0.061, , , , , , ,-1.703,-1.522,-104.15
 12:19:36.840,eb:33:2e:f9:57:b5, 2015-01-01 00:05:54.000,0.026,-0.029,0.996,-0.122,-0.061,0, , , , , , ,-1.703,-1.522,-104.15
 12:19:36.840,eb:33:2e:f9:57:b5, 2015-01-01 00:05:54.000,0.026,-0.029,0.995,-0.122,-0.061,0, , , , , , ,-1.697,-1.522,-104.15
 12:19:36.885,eb:33:2e:f9:57:b5, 2015-01-01 00:05:54.000,0.027,-0.029,0.995,-0.122,0,0, , , , , , ,-1.697,-1.522,-104.15
 12:19:36.885,eb:33:2e:f9:57:b5, 2015-01-01 00:05:54.000,0.027,-0.029,0.995,-0.122,-0.061,0, , , , , , ,-1.697,-1.522,-104.15
 12:19:36.885,eb:33:2e:f9:57:b5, 2015-01-01 00:05:54.000,0.027,-0.029,0.995,-0.122,-0.122,0.061, , , , , , ,-1.697,-1.522,-104.15
 12:19:36.885,eb:33:2e:f9:57:b5, 2015-01-01 00:05:54.000,0.027,-0.029,0.995,-0.122,0,0, , , , , , ,-1.697,-1.522,-104.15
 12:19:36.885,eb:33:2e:f9:57:b5, 2015-01-01 00:05:54.000,0.027,-0.029,0.996,-0.183,0,0.061, , , , , , ,-1.697,-1.522,-104.15
 12:19:36.885,eb:33:2e:f9:57:b5, 2015-01-01 00:05:54.000,0.026,-0.029,0.995,-0.122,0,0.061, , , , , , ,-1.697,-1.522,-104.15
 12:19:36.885,eb:33:2e:f9:57:b5, 2015-01-01 00:05:54.000,0.027,-0.03,0.996,-0.061,0,0.061, , , , , , ,-1.697,-1.522,-104.15
 12:19:36.885,eb:33:2e:f9:57:b5, 2015-01-01 00:05:54.000,0.026,-0.029,0.996,-0.061,0,0.061, , , , , , ,-1.697,-1.522,-104.15
 12:19:36.907,eb:33:2e:f9:57:b5, 2015-01-01 00:05:54.000,0.026,-0.029,0.996,-0.061,0,0.061, , , , , , ,-1.697,-1.522,-104.15
 12:19:36.907,eb:33:2e:f9:57:b5, 2015-01-01 00:05:54.000,0.026,-0.029,0.995,-0.122,0.061,0, , , , , , ,-1.697,-1.522,-104.15
 12:19:36.907,eb:33:2e:f9:57:b5, 2015-01-01 00:05:54.000,0.026,-0.03,0.995,-0.122,0,0, , , , , , ,-1.697,-1.522,-104.15
 12:19:36.907,eb:33:2e:f9:57:b5, 2015-01-01 00:05:54.000,0.027,-0.029,0.996,0,0,0.061, , , , , , ,-1.697,-1.522,-104.15
 12:19:36.907,eb:33:2e:f9:57:b5, 2015-01-01 00:05:54.000,0.027,-0.03,0.996,0,0.061,0.061, , , , , , ,-1.697,-1.522,-104.15
 12:19:36.907,eb:33:2e:f9:57:b5, 2015-01-01 00:05:54.000,0.027,-0.031,0.996,0,0.061,0, , , , , , ,-1.697,-1.522,-104.15
 12:19:36.907,eb:33:2e:f9:57:b5, 2015-01-01 00:05:54.000,0.026,-0.03,0.996,0,0.061,0, , , , , , ,-1.697,-1.522,-104.15
 12:19:36.907,eb:33:2e:f9:57:b5, 2015-01-01 00:05:54.000,0.027,-0.029,0.995,0,0.061,0, , , , , , ,-1.697,-1.522,-104.15
 12:19:36.951,eb:33:2e:f9:57:b5, 2015-01-01 00:05:54.000,0.027,-0.029,0.995,-0.061,0.061,0, , , , , , ,-1.697,-1.522,-104.15
 12:19:36.951,eb:33:2e:f9:57:b5, 2015-01-01 00:05:54.000,0.026,-0.029,0.994,0,0.061,0, , , , , , ,-1.697,-1.522,-104.15
 12:19:36.951,eb:33:2e:f9:57:b5, 2015-01-01 00:05:54.000,0.027,-0.029,0.994,-0.061,0.061,0.061, , , , , , ,-1.697,-1.522,-104.15
 12:19:36.951,eb:33:2e:f9:57:b5, 2015-01-01 00:05:54.000,0.027,-0.029,0.994,-0.061,0.061,0.061, , , , , , ,-1.697,-1.522,-104.15
 12:19:36.951,eb:33:2e:f9:57:b5, 2015-01-01 00:05:54.000,0.027,-0.029,0.995,0,0.061,0, , , , , , ,-1.697,-1.522,-104.15
 12:19:36.951,eb:33:2e:f9:57:b5, 2015-01-01 00:05:54.000,0.025,-0.029,0.995,0,0.061,0.122, , , , , , ,-1.703,-1.522,-104.15
 12:19:36.951,eb:33:2e:f9:57:b5, 2015-01-01 00:05:54.000,0.027,-0.029,0.995,0,0,0.061, , , , , , ,-1.703,-1.522,-104.15
 12:19:36.951,eb:33:2e:f9:57:b5, 2015-01-01 00:05:54.000,0.026,-0.03,0.996,0,0.061,0.061, , , , , , ,-1.697,-1.522,-104.15
 12:19:36.996,eb:33:2e:f9:57:b5, 2015-01-01 00:05:54.290,0.026,-0.03,0.995,0,0.061,0, , , , , , ,-1.697,-1.522,-104.15
 12:19:36.996,eb:33:2e:f9:57:b5, 2015-01-01 00:05:54.290,0.027,-0.029,0.995,0,0.061,0.122, , , , , , ,-1.703,-1.522,-104.15
 12:19:36.996,eb:33:2e:f9:57:b5, 2015-01-01 00:05:54.290,0.027,-0.03,0.995,0,0.061,0.061, , , , , , ,-1.703,-1.522,-104.15
 12:19:36.996,eb:33:2e:f9:57:b5, 2015-01-01 00:05:54.290,0.027,-0.03,0.995,0,0.061,0, , , , , , ,-1.703,-1.522,-104.15
 12:19:36.996,eb:33:2e:f9:57:b5, 2015-01-01 00:05:54.290,0.026,-0.029,0.995,0,0,0.122, , , , , , ,-1.703,-1.522,-104.15
 12:19:36.996,eb:33:2e:f9:57:b5, 2015-01-01 00:05:54.290,0.027,-0.029,0.995,0,0,0.061, , , , , , ,-1.703,-1.522,-104.15
 12:19:36.996,eb:33:2e:f9:57:b5, 2015-01-01 00:05:54.290,0.027,-0.029,0.995,0,0,0.061, , , , , , ,-1.703,-1.522,-104.15
 12:19:36.996,eb:33:2e:f9:57:b5, 2015-01-01 00:05:54.290,0.027,-0.029,0.995,0,0,0.061, , , , , , ,-1.703,-1.522,-104.15
 12:19:37.042,eb:33:2e:f9:57:b5, 2015-01-01 00:05:54.290,0.026,-0.03,0.995,0,0,0.061, , , , , , ,-1.703,-1.522,-104.15
 12:19:37.042,eb:33:2e:f9:57:b5, 2015-01-01 00:05:54.290,0.026,-0.029,0.995,0,0,0, , , , , , ,-1.703,-1.522,-104.145
 12:19:37.042,eb:33:2e:f9:57:b5, 2015-01-01 00:05:54.290,0.027,-0.029,0.996,0,0,0.061, , , , , , ,-1.703,-1.522,-104.145
 12:19:37.042,eb:33:2e:f9:57:b5, 2015-01-01 00:05:54.290,0.026,-0.03,0.995,0,0,0.061, , , , , , ,-1.703,-1.522,-104.145
 12:19:37.042,eb:33:2e:f9:57:b5, 2015-01-01 00:05:54.290,0.027,-0.029,0.994,0,0,0.061, , , , , , ,-1.703,-1.522,-104.145
 12:19:37.042,eb:33:2e:f9:57:b5, 2015-01-01 00:05:54.290,0.027,-0.029,0.995,0,0,0.061, , , , , , ,-1.703,-1.522,-104.145
 12:19:37.042,eb:33:2e:f9:57:b5, 2015-01-01 00:05:54.290,0.028,-0.028,0.994,0,0,0, , , , , , ,-1.703,-1.522,-104.145
 12:19:37.042,eb:33:2e:f9:57:b5, 2015-01-01 00:05:54.290,0.027,-0.028,0.995,0,0.061,0.061, , , , , , ,-1.703,-1.522,-104.145
 12:19:37.087,eb:33:2e:f9:57:b5, 2015-01-01 00:05:54.290,0.026,-0.029,0.995,0,0.061,0, , , , , , ,-1.703,-1.522,-104.145
 12:19:37.087,eb:33:2e:f9:57:b5, 2015-01-01 00:05:54.290,0.027,-0.029,0.995,0,0.061,0, , , , , , ,-1.703,-1.522,-104.145
 12:19:37.087,eb:33:2e:f9:57:b5, 2015-01-01 00:05:54.290,0.027,-0.029,0.996,-0.061,0.061,0, , , , , , ,-1.703,-1.522,-104.145
 12:19:37.087,eb:33:2e:f9:57:b5, 2015-01-01 00:05:54.290,0.028,-0.029,0.996,0,0.061,0, , , , , , ,-1.703,-1.522,-104.145
 12:19:37.087,eb:33:2e:f9:57:b5, 2015-01-01 00:05:54.290,0.027,-0.029,0.996,0,0.061,0, , , , , , ,-1.703,-1.522,-104.145
 12:19:37.087,eb:33:2e:f9:57:b5, 2015-01-01 00:05:54.290,0.027,-0.03,0.995,0,0.061,0, , , , , , ,-1.703,-1.522,-104.145
 12:19:37.087,eb:33:2e:f9:57:b5, 2015-01-01 00:05:54.290,0.027,-0.029,0.995,0,0.061,0, , , , , , ,-1.703,-1.522,-104.145
 12:19:37.087,eb:33:2e:f9:57:b5, 2015-01-01 00:05:54.290,0.027,-0.029,0.996,0,0.061,0, , , , , , ,-1.703,-1.522,-104.145
 12:19:37.109,eb:33:2e:f9:57:b5, 2015-01-01 00:05:54.290,0.027,-0.029,0.995,0,0.061,0, , , , , , ,-1.703,-1.522,-104.145
 12:19:37.109,eb:33:2e:f9:57:b5, 2015-01-01 00:05:54.290,0.027,-0.029,0.995,-0.061,0.122,0, , , , , , ,-1.703,-1.522,-104.145
 12:19:37.109,eb:33:2e:f9:57:b5, 2015-01-01 00:05:54.290,0.027,-0.029,0.996,0,0.122,0, , , , , , ,-1.703,-1.522,-104.145
 12:19:37.109,eb:33:2e:f9:57:b5, 2015-01-01 00:05:54.290,0.026,-0.03,0.996,0,0.122,0, , , , , , ,-1.703,-1.522,-104.145
 12:19:37.109,eb:33:2e:f9:57:b5, 2015-01-01 00:05:54.290,0.027,-0.029,0.995,0,0.122,0, , , , , , ,-1.703,-1.522,-104.145
 12:19:37.109,eb:33:2e:f9:57:b5, 2015-01-01 00:05:54.290,0.027,-0.03,0.996,0,0.122,0, , , , , , ,-1.703,-1.522,-104.145
 12:19:37.109,eb:33:2e:f9:57:b5, 2015-01-01 00:05:54.290,0.027,-0.03,0.995,0,0.122,0, , , , , , ,-1.703,-1.522,-104.145
 12:19:37.109,eb:33:2e:f9:57:b5, 2015-01-01 00:05:54.290,0.026,-0.03,0.995,0,0.122,0, , , , , , ,-1.703,-1.527,-104.145
 12:19:37.155,eb:33:2e:f9:57:b5, 2015-01-01 00:05:54.290,0.027,-0.029,0.995,0,0.061,0, , , , , , ,-1.703,-1.527,-104.145
 12:19:37.155,eb:33:2e:f9:57:b5, 2015-01-01 00:05:54.290,0.027,-0.029,0.995,0,0.061,0, , , , , , ,-1.703,-1.527,-104.145
 12:19:37.155,eb:33:2e:f9:57:b5, 2015-01-01 00:05:54.290,0.027,-0.029,0.996,0,0.061,0, , , , , , ,-1.703,-1.527,-104.145
 12:19:37.155,eb:33:2e:f9:57:b5, 2015-01-01 00:05:54.290,0.027,-0.029,0.995,0,0.122,0, , , , , , ,-1.703,-1.527,-104.145
 12:19:37.155,eb:33:2e:f9:57:b5, 2015-01-01 00:05:54.290,0.026,-0.028,0.994,0,0.122,-0.061, , , , , , ,-1.703,-1.527,-104.145
 12:19:37.155,eb:33:2e:f9:57:b5, 2015-01-01 00:05:54.290,0.026,-0.029,0.995,0,0.061,0, , , , , , ,-1.703,-1.527,-104.145
 12:19:37.155,eb:33:2e:f9:57:b5, 2015-01-01 00:05:54.290,0.026,-0.03,0.995,-0.061,0.061,0, , , , , , ,-1.703,-1.527,-104.145
 12:19:37.155,eb:33:2e:f9:57:b5, 2015-01-01 00:05:54.290,0.027,-0.03,0.994,-0.061,0.061,-0.122, , , , , , ,-1.703,-1.527,-104.145
 12:19:37.199,eb:33:2e:f9:57:b5, 2015-01-01 00:05:54.290,0.027,-0.03,0.995,-0.061,0.061,-0.061, , , , , , ,-1.703,-1.527,-104.145
 12:19:37.199,eb:33:2e:f9:57:b5, 2015-01-01 00:05:54.290,0.026,-0.029,0.995,-0.061,0.061,-0.061, , , , , , ,-1.703,-1.527,-104.145
 12:19:37.199,eb:33:2e:f9:57:b5, 2015-01-01 00:05:54.290,0.027,-0.029,0.994,-0.061,0.061,-0.061, , , , , , ,-1.703,-1.527,-104.145
 12:19:37.199,eb:33:2e:f9:57:b5, 2015-01-01 00:05:54.290,0.026,-0.029,0.995,-0.122,0.061,-0.061, , , , , , ,-1.703,-1.527,-104.145
 12:19:37.199,eb:33:2e:f9:57:b5, 2015-01-01 00:05:54.290,0.027,-0.029,0.995,-0.061,0.061,-0.061, , , , , , ,-1.703,-1.527,-104.145
 12:19:37.199,eb:33:2e:f9:57:b5, 2015-01-01 00:05:54.290,0.027,-0.029,0.995,-0.061,0.061,-0.061, , , , , , ,-1.703,-1.527,-104.145
 12:19:37.199,eb:33:2e:f9:57:b5, 2015-01-01 00:05:54.290,0.026,-0.03,0.995,-0.122,0,-0.061, , , , , , ,-1.703,-1.527,-104.145
 12:19:37.199,eb:33:2e:f9:57:b5, 2015-01-01 00:05:54.290,0.026,-0.03,0.995,-0.122,0,-0.061, , , , , , ,-1.703,-1.527,-104.145
 12:19:37.244,eb:33:2e:f9:57:b5, 2015-01-01 00:05:54.290,0.027,-0.028,0.995,-0.122,0,0, , , , , , ,-1.703,-1.527,-104.145
 12:19:37.244,eb:33:2e:f9:57:b5, 2015-01-01 00:05:54.290,0.027,-0.029,0.994,-0.122,0,0, , , , , , ,-1.703,-1.527,-104.145
 12:19:37.244,eb:33:2e:f9:57:b5, 2015-01-01 00:05:54.290,0.026,-0.029,0.994,-0.183,0,0, , , , , , ,-1.703,-1.527,-104.145
 12:19:37.244,eb:33:2e:f9:57:b5, 2015-01-01 00:05:54.290,0.024,-0.03,0.993,-0.244,0,0, , , , , , ,-1.703,-1.527,-104.145
 12:19:37.244,eb:33:2e:f9:57:b5, 2015-01-01 00:05:54.290,0.024,-0.03,0.993,-0.244,-0.122,0, , , , , , ,-1.703,-1.527,-104.145
 12:19:37.244,eb:33:2e:f9:57:b5, 2015-01-01 00:05:54.290,0.024,-0.032,0.993,-0.244,-0.183,0.061, , , , , , ,-1.703,-1.527,-104.145
 12:19:37.244,eb:33:2e:f9:57:b5, 2015-01-01 00:05:54.290,0.024,-0.031,0.993,-0.244,-0.366,0.244, , , , , , ,-1.703,-1.527,-104.145
 12:19:37.244,eb:33:2e:f9:57:b5, 2015-01-01 00:05:54.290,0.025,-0.03,0.993,-0.183,-0.427,0.244, , , , , , ,-1.703,-1.527,-104.145
 12:19:37.267,eb:33:2e:f9:57:b5, 2015-01-01 00:05:54.605,0.026,-0.03,0.993,-0.244,-0.549,0.244, , , , , , ,-1.703,-1.527,-104.145
 12:19:37.267,eb:33:2e:f9:57:b5, 2015-01-01 00:05:54.605,0.027,-0.03,0.994,-0.244,-0.488,0.183, , , , , , ,-1.703,-1.527,-104.145
 12:19:37.267,eb:33:2e:f9:57:b5, 2015-01-01 00:05:54.605,0.028,-0.031,0.994,-0.244,-0.488,0.244, , , , , , ,-1.703,-1.527,-104.145
 12:19:37.267,eb:33:2e:f9:57:b5, 2015-01-01 00:05:54.605,0.028,-0.029,0.995,-0.244,-0.61,0.305, , , , , , ,-1.703,-1.527,-104.145
 12:19:37.267,eb:33:2e:f9:57:b5, 2015-01-01 00:05:54.605,0.027,-0.029,0.995,-0.244,-0.488,0.244, , , , , , ,-1.703,-1.527,-104.145
 12:19:37.267,eb:33:2e:f9:57:b5, 2015-01-01 00:05:54.605,0.026,-0.03,0.995,-0.244,-0.488,0.305, , , , , , ,-1.703,-1.527,-104.145
 12:19:37.267,eb:33:2e:f9:57:b5, 2015-01-01 00:05:54.605,0.028,-0.031,0.995,-0.244,-0.549,0.305, , , , , , ,-1.703,-1.527,-104.145
 12:19:37.267,eb:33:2e:f9:57:b5, 2015-01-01 00:05:54.605,0.027,-0.03,0.994,-0.244,-0.61,0.305, , , , , , ,-1.703,-1.527,-104.145
 12:19:37.311,eb:33:2e:f9:57:b5, 2015-01-01 00:05:54.605,0.028,-0.03,0.994,-0.305,-0.61,0.366, , , , , , ,-1.703,-1.527,-104.145
 12:19:37.311,eb:33:2e:f9:57:b5, 2015-01-01 00:05:54.605,0.027,-0.029,0.995,-0.305,-0.549,0.305, , , , , , ,-1.703,-1.527,-104.145
 12:19:37.311,eb:33:2e:f9:57:b5, 2015-01-01 00:05:54.605,0.03,-0.029,0.995,-0.366,-0.61,0.305, , , , , , ,-1.703,-1.527,-104.145
 12:19:37.311,eb:33:2e:f9:57:b5, 2015-01-01 00:05:54.605,0.027,-0.029,0.994,-0.366,-0.488,0.244, , , , , , ,-1.703,-1.527,-104.145
 12:19:37.311,eb:33:2e:f9:57:b5, 2015-01-01 00:05:54.605,0.026,-0.029,0.993,-0.366,-0.488,0.244, , , , , , ,-1.703,-1.527,-104.145
 12:19:37.311,eb:33:2e:f9:57:b5, 2015-01-01 00:05:54.605,0.027,-0.03,0.993,-0.427,-0.549,0.183, , , , , , ,-1.703,-1.527,-104.139
 12:19:37.311,eb:33:2e:f9:57:b5, 2015-01-01 00:05:54.605,0.027,-0.029,0.994,-0.427,-0.61,0.122, , , , , , ,-1.703,-1.527,-104.139
 12:19:37.312,eb:33:2e:f9:57:b5, 2015-01-01 00:05:54.605,0.027,-0.03,0.995,-0.427,-0.671,0.122, , , , , , ,-1.703,-1.527,-104.139
 12:19:37.357,eb:33:2e:f9:57:b5, 2015-01-01 00:05:54.605,0.028,-0.03,0.995,-0.427,-0.671,0.183, , , , , , ,-1.703,-1.527,-104.139
 12:19:37.357,eb:33:2e:f9:57:b5, 2015-01-01 00:05:54.605,0.027,-0.03,0.995,-0.549,-0.61,0.244, , , , , , ,-1.703,-1.527,-104.139
 12:19:37.357,eb:33:2e:f9:57:b5, 2015-01-01 00:05:54.605,0.028,-0.03,0.995,-0.549,-0.61,0.244, , , , , , ,-1.703,-1.527,-104.139
 12:19:37.357,eb:33:2e:f9:57:b5, 2015-01-01 00:05:54.605,0.029,-0.03,0.995,-0.61,-0.61,0.183, , , , , , ,-1.703,-1.527,-104.139
 12:19:37.357,eb:33:2e:f9:57:b5, 2015-01-01 00:05:54.605,0.03,-0.03,0.996,-0.549,-0.549,0.183, , , , , , ,-1.703,-1.527,-104.139
 12:19:37.357,eb:33:2e:f9:57:b5, 2015-01-01 00:05:54.605,0.032,-0.03,0.997,-0.549,-0.488,0.061, , , , , , ,-1.703,-1.527,-104.139
 12:19:37.357,eb:33:2e:f9:57:b5, 2015-01-01 00:05:54.605,0.029,-0.03,0.996,-0.61,-0.305,0.061, , , , , , ,-1.703,-1.527,-104.139
 12:19:37.357,eb:33:2e:f9:57:b5, 2015-01-01 00:05:54.605,0.03,-0.031,0.994,-0.61,-0.305,0.061, , , , , , ,-1.703,-1.527,-104.139
 12:19:37.402,eb:33:2e:f9:57:b5, 2015-01-01 00:05:54.605,0.033,-0.032,0.997,-0.488,-0.244,0.061, , , , , , ,-1.703,-1.527,-104.139
 12:19:37.402,eb:33:2e:f9:57:b5, 2015-01-01 00:05:54.605,0.033,-0.034,1,-0.305,-0.122,0, , , , , , ,-1.703,-1.527,-104.139
 12:19:37.402,eb:33:2e:f9:57:b5, 2015-01-01 00:05:54.605,0.032,-0.033,1,-0.183,0,0, , , , , , ,-1.703,-1.527,-104.139
 12:19:37.403,eb:33:2e:f9:57:b5, 2015-01-01 00:05:54.605,0.032,-0.031,0.998,-0.122,0.183,0, , , , , , ,-1.703,-1.527,-104.139
 12:19:37.403,eb:33:2e:f9:57:b5, 2015-01-01 00:05:54.605,0.03,-0.03,0.998,-0.061,0.305,0, , , , , , ,-1.703,-1.527,-104.139
 12:19:37.403,eb:33:2e:f9:57:b5, 2015-01-01 00:05:54.605,0.029,-0.03,0.997,0,0.366,-0.061, , , , , , ,-1.703,-1.527,-104.139
 12:19:37.403,eb:33:2e:f9:57:b5, 2015-01-01 00:05:54.605,0.028,-0.032,0.996,0,0.427,-0.061, , , , , , ,-1.703,-1.527,-104.139
 12:19:37.403,eb:33:2e:f9:57:b5, 2015-01-01 00:05:54.605,0.027,-0.031,0.995,0,0.488,-0.061, , , , , , ,-1.703,-1.527,-104.139
 12:19:37.446,eb:33:2e:f9:57:b5, 2015-01-01 00:05:54.605,0.027,-0.031,0.994,0,0.427,-0.122, , , , , , ,-1.703,-1.527,-104.139
 12:19:37.446,eb:33:2e:f9:57:b5, 2015-01-01 00:05:54.605,0.026,-0.031,0.994,-0.061,0.427,-0.061, , , , , , ,-1.703,-1.527,-104.139
 12:19:37.446,eb:33:2e:f9:57:b5, 2015-01-01 00:05:54.605,0.027,-0.03,0.993,-0.122,0.366,-0.122, , , , , , ,-1.703,-1.527,-104.139
 12:19:37.446,eb:33:2e:f9:57:b5, 2015-01-01 00:05:54.605,0.026,-0.031,0.994,-0.122,0.366,-0.122, , , , , , ,-1.703,-1.527,-104.139
 12:19:37.446,eb:33:2e:f9:57:b5, 2015-01-01 00:05:54.605,0.026,-0.03,0.993,-0.183,0.305,0, , , , , , ,-1.703,-1.527,-104.139
 12:19:37.446,eb:33:2e:f9:57:b5, 2015-01-01 00:05:54.605,0.027,-0.031,0.993,-0.305,0.427,0.061, , , , , , ,-1.703,-1.527,-104.139
 12:19:37.446,eb:33:2e:f9:57:b5, 2015-01-01 00:05:54.605,0.026,-0.03,0.994,-0.366,0.427,0.122, , , , , , ,-1.703,-1.527,-104.139
 12:19:37.447,eb:33:2e:f9:57:b5, 2015-01-01 00:05:54.605,0.025,-0.03,0.993,-0.488,0.427,0.122, , , , , , ,-1.703,-1.533,-104.139
 12:19:37.469,eb:33:2e:f9:57:b5, 2015-01-01 00:05:54.605,0.026,-0.03,0.992,-0.61,0.427,0.244, , , , , , ,-1.703,-1.533,-104.139
 12:19:37.469,eb:33:2e:f9:57:b5, 2015-01-01 00:05:54.605,0.025,-0.03,0.991,-0.732,0.488,0.427, , , , , , ,-1.703,-1.533,-104.139
 12:19:37.469,eb:33:2e:f9:57:b5, 2015-01-01 00:05:54.605,0.022,-0.028,0.988,-1.099,0.671,0.793, , , , , , ,-1.703,-1.533,-104.139
 12:19:37.469,eb:33:2e:f9:57:b5, 2015-01-01 00:05:54.605,0.018,-0.029,0.987,-1.526,0.793,1.282, , , , , , ,-1.703,-1.533,-104.139
 12:19:37.469,eb:33:2e:f9:57:b5, 2015-01-01 00:05:54.605,0.024,-0.029,0.986,-1.831,0.61,1.648, , , , , , ,-1.703,-1.533,-104.139
 12:19:37.469,eb:33:2e:f9:57:b5, 2015-01-01 00:05:54.605,0.019,-0.027,0.987,-2.075,0.549,1.892, , , , , , ,-1.714,-1.527,-104.134
 12:19:37.470,eb:33:2e:f9:57:b5, 2015-01-01 00:05:54.605,0.021,-0.028,0.986,-2.197,0.061,1.892, , , , , , ,-1.725,-1.527,-104.123
 12:19:37.470,eb:33:2e:f9:57:b5, 2015-01-01 00:05:54.605,0.028,-0.03,0.989,-2.258,-0.366,1.709, , , , , , ,-1.736,-1.527,-104.117
 12:19:37.514,eb:33:2e:f9:57:b5, 2015-01-01 00:05:54.605,0.029,-0.032,0.994,-2.258,-0.488,1.648, , , , , , ,-1.747,-1.533,-104.106
 12:19:37.514,eb:33:2e:f9:57:b5, 2015-01-01 00:05:54.605,0.032,-0.033,0.995,-2.258,-0.488,1.648, , , , , , ,-1.758,-1.533,-104.101
 12:19:37.514,eb:33:2e:f9:57:b5, 2015-01-01 00:05:54.605,0.028,-0.033,0.997,-2.197,-0.427,1.587, , , , , , ,-1.769,-1.538,-104.09
 12:19:37.514,eb:33:2e:f9:57:b5, 2015-01-01 00:05:54.605,0.026,-0.032,0.994,-2.258,-0.427,1.648, , , , , , ,-1.78,-1.538,-104.084
 12:19:37.514,eb:33:2e:f9:57:b5, 2015-01-01 00:05:54.605,0.017,-0.029,0.987,-2.563,-0.366,1.892, , , , , , ,-1.796,-1.544,-104.073
 12:19:37.514,eb:33:2e:f9:57:b5, 2015-01-01 00:05:54.605,0.02,-0.027,0.982,-2.93,-0.671,2.197, , , , , , ,-1.807,-1.544,-104.062
 12:19:37.514,eb:33:2e:f9:57:b5, 2015-01-01 00:05:54.605,0.015,-0.029,0.985,-3.296,-0.854,2.258, , , , , , ,-1.824,-1.549,-104.052
 12:19:37.514,eb:33:2e:f9:57:b5, 2015-01-01 00:05:54.605,0.021,-0.033,0.985,-3.479,-1.343,2.38, , , , , , ,-1.846,-1.555,-104.041
 12:19:37.560,eb:33:2e:f9:57:b5, 2015-01-01 00:05:54.605,0.024,-0.034,0.99,-3.54,-1.709,2.441, , , , , , ,-1.862,-1.56,-104.03
 12:19:37.560,eb:33:2e:f9:57:b5, 2015-01-01 00:05:54.605,0.029,-0.036,0.995,-3.54,-2.075,2.441, , , , , , ,-1.879,-1.571,-104.013
 12:19:37.560,eb:33:2e:f9:57:b5, 2015-01-01 00:05:54.605,0.029,-0.038,0.998,-3.418,-2.197,2.38, , , , , , ,-1.901,-1.582,-104.002
 12:19:37.560,eb:33:2e:f9:57:b5, 2015-01-01 00:05:54.605,0.028,-0.038,1,-3.296,-2.258,2.38, , , , , , ,-1.917,-1.593,-103.991
 12:19:37.560,eb:33:2e:f9:57:b5, 2015-01-01 00:05:54.605,0.028,-0.038,0.998,-3.296,-2.38,2.258, , , , , , ,-1.934,-1.604,-103.98
 12:19:37.560,eb:33:2e:f9:57:b5, 2015-01-01 00:05:54.605,0.027,-0.036,0.997,-3.357,-2.38,2.136, , , , , , ,-1.95,-1.62,-103.969
 12:19:37.560,eb:33:2e:f9:57:b5, 2015-01-01 00:05:54.605,0.029,-0.035,0.996,-3.357,-2.441,2.014, , , , , , ,-1.967,-1.631,-103.958
 12:19:37.560,eb:33:2e:f9:57:b5, 2015-01-01 00:05:54.605,0.03,-0.035,0.997,-3.479,-2.502,1.831, , , , , , ,-1.983,-1.642,-103.947
 12:19:37.603,eb:33:2e:f9:57:b5, 2015-01-01 00:05:54.915,0.031,-0.035,0.997,-3.601,-2.441,1.77, , , , , , ,-2.005,-1.653,-103.936
 12:19:37.603,eb:33:2e:f9:57:b5, 2015-01-01 00:05:54.915,0.04,-0.036,0.998,-3.662,-2.319,1.526, , , , , , ,-2.021,-1.67,-103.931
 12:19:37.603,eb:33:2e:f9:57:b5, 2015-01-01 00:05:54.915,0.042,-0.036,1.001,-3.662,-1.831,1.282, , , , , , ,-2.043,-1.681,-103.92
 12:19:37.603,eb:33:2e:f9:57:b5, 2015-01-01 00:05:54.915,0.042,-0.038,1.002,-3.601,-1.343,1.16, , , , , , ,-2.06,-1.686,-103.914
 12:19:37.603,eb:33:2e:f9:57:b5, 2015-01-01 00:05:54.915,0.041,-0.039,1.003,-3.418,-0.854,0.916, , , , , , ,-2.076,-1.692,-103.909
 12:19:37.603,eb:33:2e:f9:57:b5, 2015-01-01 00:05:54.915,0.04,-0.039,1.003,-3.235,-0.305,0.732, , , , , , ,-2.093,-1.697,-103.903
 12:19:37.603,eb:33:2e:f9:57:b5, 2015-01-01 00:05:54.915,0.044,-0.042,1.004,-2.869,0.061,0.671, , , , , , ,-2.109,-1.697,-103.903
 12:19:37.603,eb:33:2e:f9:57:b5, 2015-01-01 00:05:54.915,0.052,-0.05,1.01,-2.136,0.549,0.61, , , , , , ,-2.12,-1.697,-103.898
 12:19:37.649,eb:33:2e:f9:57:b5, 2015-01-01 00:05:54.915,0.051,-0.059,1.017,-1.038,1.038,0.732, , , , , , ,-2.131,-1.692,-103.898
 12:19:37.649,eb:33:2e:f9:57:b5, 2015-01-01 00:05:54.915,0.043,-0.058,1.014,0,1.404,0.854, , , , , , ,-2.131,-1.686,-103.892
 12:19:37.649,eb:33:2e:f9:57:b5, 2015-01-01 00:05:54.915,0.037,-0.048,1.008,0.61,1.77,0.854, , , , , , ,-2.131,-1.675,-103.887
 12:19:37.649,eb:33:2e:f9:57:b5, 2015-01-01 00:05:54.915,0.029,-0.042,1.004,0.916,2.014,0.671, , , , , , ,-2.126,-1.67,-103.881
 12:19:37.649,eb:33:2e:f9:57:b5, 2015-01-01 00:05:54.915,0.029,-0.043,0.998,1.16,2.075,0.488, , , , , , ,-2.12,-1.659,-103.881
 12:19:37.649,eb:33:2e:f9:57:b5, 2015-01-01 00:05:54.915,0.033,-0.043,0.998,1.526,2.075,0.488, , , , , , ,-2.115,-1.648,-103.881
 12:19:37.650,eb:33:2e:f9:57:b5, 2015-01-01 00:05:54.915,0.03,-0.046,1.001,1.892,2.197,0.549, , , , , , ,-2.109,-1.637,-103.876
 12:19:37.650,eb:33:2e:f9:57:b5, 2015-01-01 00:05:54.915,0.031,-0.046,1,2.136,2.258,0.61, , , , , , ,-2.098,-1.626,-103.876
 12:19:37.671,eb:33:2e:f9:57:b5, 2015-01-01 00:05:54.915,0.03,-0.04,1,2.319,2.38,0.549, , , , , , ,-2.087,-1.615,-103.87
 12:19:37.671,eb:33:2e:f9:57:b5, 2015-01-01 00:05:54.915,0.028,-0.036,0.998,2.38,2.625,0.366, , , , , , ,-2.076,-1.604,-103.87
 12:19:37.671,eb:33:2e:f9:57:b5, 2015-01-01 00:05:54.915,0.03,-0.036,0.995,2.319,2.625,0.122, , , , , , ,-2.06,-1.588,-103.87
 12:19:37.671,eb:33:2e:f9:57:b5, 2015-01-01 00:05:54.915,0.03,-0.036,0.996,2.319,2.625,-0.122, , , , , , ,-2.049,-1.577,-103.87
 12:19:37.671,eb:33:2e:f9:57:b5, 2015-01-01 00:05:54.915,0.026,-0.035,0.994,2.258,2.686,-0.244, , , , , , ,-2.038,-1.566,-103.87
 12:19:37.671,eb:33:2e:f9:57:b5, 2015-01-01 00:05:54.915,0.023,-0.034,0.99,2.075,2.563,-0.305, , , , , , ,-2.027,-1.549,-103.876
 12:19:37.672,eb:33:2e:f9:57:b5, 2015-01-01 00:05:54.915,0.019,-0.032,0.986,1.709,2.441,-0.305, , , , , , ,-2.021,-1.538,-103.876
 12:19:37.672,eb:33:2e:f9:57:b5, 2015-01-01 00:05:54.915,0.015,-0.029,0.982,1.221,2.136,-0.244, , , , , , ,-2.01,-1.527,-103.876
 12:19:37.762,eb:33:2e:f9:57:b5, 2015-01-01 00:05:54.915,0.01,-0.027,0.979,0.671,1.77,-0.183, , , , , , ,-2.005,-1.516,-103.881
 12:19:37.762,eb:33:2e:f9:57:b5, 2015-01-01 00:05:54.915,0.01,-0.028,0.977,0.061,1.16,-0.183, , , , , , ,-2.005,-1.511,-103.881
 12:19:37.762,eb:33:2e:f9:57:b5, 2015-01-01 00:05:54.915,0.017,-0.03,0.978,-0.305,0.549,-0.122, , , , , , ,-2.005,-1.505,-103.881
 12:19:37.762,eb:33:2e:f9:57:b5, 2015-01-01 00:05:54.915,0.022,-0.033,0.984,-0.61,0.061,-0.122, , , , , , ,-2.01,-1.505,-103.881
 12:19:37.762,eb:33:2e:f9:57:b5, 2015-01-01 00:05:54.915,0.026,-0.035,0.989,-0.732,0,-0.183, , , , , , ,-2.016,-1.505,-103.887
 12:19:37.762,eb:33:2e:f9:57:b5, 2015-01-01 00:05:54.915,0.029,-0.036,0.993,-0.793,-0.061,-0.244, , , , , , ,-2.016,-1.505,-103.887
 12:19:37.762,eb:33:2e:f9:57:b5, 2015-01-01 00:05:54.915,0.028,-0.035,0.994,-0.854,-0.122,-0.244, , , , , , ,-2.021,-1.511,-103.887
 12:19:37.762,eb:33:2e:f9:57:b5, 2015-01-01 00:05:54.915,0.029,-0.035,0.996,-0.916,-0.061,-0.427, , , , , , ,-2.027,-1.511,-103.887
 12:19:37.765,eb:33:2e:f9:57:b5, 2015-01-01 00:05:54.915,0.027,-0.037,0.995,-0.916,-0.061,-0.427, , , , , , ,-2.032,-1.511,-103.892
 12:19:37.765,eb:33:2e:f9:57:b5, 2015-01-01 00:05:54.915,0.029,-0.037,0.995,-0.854,-0.122,-0.61, , , , , , ,-2.038,-1.511,-103.898
 12:19:37.765,eb:33:2e:f9:57:b5, 2015-01-01 00:05:54.915,0.029,-0.038,0.997,-0.854,-0.061,-0.732, , , , , , ,-2.043,-1.511,-103.898
 12:19:37.765,eb:33:2e:f9:57:b5, 2015-01-01 00:05:54.915,0.029,-0.039,0.998,-0.793,0,-0.854, , , , , , ,-2.043,-1.516,-103.903
 12:19:37.765,eb:33:2e:f9:57:b5, 2015-01-01 00:05:54.915,0.029,-0.038,0.997,-0.732,0.061,-0.916, , , , , , ,-2.049,-1.516,-103.909
 12:19:37.765,eb:33:2e:f9:57:b5, 2015-01-01 00:05:54.915,0.026,-0.037,0.996,-0.732,0.061,-0.916, , , , , , ,-2.054,-1.516,-103.914
 12:19:37.765,eb:33:2e:f9:57:b5, 2015-01-01 00:05:54.915,0.027,-0.039,0.995,-0.671,0,-1.099, , , , , , ,-2.054,-1.516,-103.92
 12:19:37.765,eb:33:2e:f9:57:b5, 2015-01-01 00:05:54.915,0.026,-0.04,0.997,-0.549,0,-1.099, , , , , , ,-2.06,-1.516,-103.925
 12:19:37.807,eb:33:2e:f9:57:b5, 2015-01-01 00:05:54.915,0.027,-0.041,0.996,-0.427,-0.061,-1.16, , , , , , ,-2.065,-1.516,-103.931
 12:19:37.807,eb:33:2e:f9:57:b5, 2015-01-01 00:05:54.915,0.028,-0.041,0.998,-0.305,-0.061,-1.099, , , , , , ,-2.065,-1.516,-103.936
 12:19:37.807,eb:33:2e:f9:57:b5, 2015-01-01 00:05:54.915,0.028,-0.04,0.998,-0.244,-0.061,-1.221, , , , , , ,-2.065,-1.516,-103.942
 12:19:37.807,eb:33:2e:f9:57:b5, 2015-01-01 00:05:54.915,0.029,-0.04,0.999,-0.122,0,-1.282, , , , , , ,-2.065,-1.522,-103.947
 12:19:37.807,eb:33:2e:f9:57:b5, 2015-01-01 00:05:54.915,0.029,-0.04,0.998,0,0,-1.221, , , , , , ,-2.065,-1.522,-103.953
 12:19:37.807,eb:33:2e:f9:57:b5, 2015-01-01 00:05:54.915,0.03,-0.041,0.998,0.061,0.061,-1.221, , , , , , ,-2.065,-1.522,-103.958
 12:19:37.807,eb:33:2e:f9:57:b5, 2015-01-01 00:05:54.915,0.03,-0.04,0.998,0.183,0.061,-1.343, , , , , , ,-2.065,-1.522,-103.969
 12:19:37.807,eb:33:2e:f9:57:b5, 2015-01-01 00:05:54.915,0.029,-0.041,0.999,0.366,0.183,-1.343, , , , , , ,-2.065,-1.522,-103.975
 12:19:37.851,eb:33:2e:f9:57:b5, 2015-01-01 00:05:54.915,0.03,-0.041,0.999,0.549,0.183,-1.343, , , , , , ,-2.065,-1.522,-103.98
 12:19:37.851,eb:33:2e:f9:57:b5, 2015-01-01 00:05:54.915,0.03,-0.042,1,0.61,0.244,-1.404, , , , , , ,-2.06,-1.522,-103.991
 12:19:37.851,eb:33:2e:f9:57:b5, 2015-01-01 00:05:54.915,0.029,-0.042,0.999,0.854,0.305,-1.404, , , , , , ,-2.054,-1.516,-103.997
 12:19:37.851,eb:33:2e:f9:57:b5, 2015-01-01 00:05:54.915,0.03,-0.041,0.998,1.038,0.366,-1.343, , , , , , ,-2.049,-1.516,-104.002
 12:19:37.851,eb:33:2e:f9:57:b5, 2015-01-01 00:05:54.915,0.03,-0.04,0.998,1.221,0.427,-1.343, , , , , , ,-2.043,-1.516,-104.008
 12:19:37.851,eb:33:2e:f9:57:b5, 2015-01-01 00:05:54.915,0.029,-0.039,0.999,1.282,0.549,-1.343, , , , , , ,-2.038,-1.516,-104.019
 12:19:37.851,eb:33:2e:f9:57:b5, 2015-01-01 00:05:54.915,0.029,-0.04,0.999,1.404,0.549,-1.404, , , , , , ,-2.032,-1.511,-104.024
 12:19:37.851,eb:33:2e:f9:57:b5, 2015-01-01 00:05:54.915,0.029,-0.038,0.999,1.465,0.61,-1.465, , , , , , ,-2.027,-1.511,-104.03
 12:19:37.875,eb:33:2e:f9:57:b5, 2015-01-01 00:05:54.915,0.03,-0.039,0.999,1.526,0.793,-1.465, , , , , , ,-2.016,-1.505,-104.041
 12:19:37.875,eb:33:2e:f9:57:b5, 2015-01-01 00:05:54.915,0.029,-0.037,0.998,1.526,0.916,-1.526, , , , , , ,-2.01,-1.5,-104.046
 12:19:37.875,eb:33:2e:f9:57:b5, 2015-01-01 00:05:54.915,0.028,-0.037,0.997,1.526,0.977,-1.648, , , , , , ,-2,-1.5,-104.057
 12:19:37.875,eb:33:2e:f9:57:b5, 2015-01-01 00:05:54.915,0.028,-0.037,0.996,1.587,1.038,-1.709, , , , , , ,-1.994,-1.494,-104.062
 12:19:37.875,eb:33:2e:f9:57:b5, 2015-01-01 00:05:54.915,0.029,-0.037,0.998,1.587,1.038,-1.709, , , , , , ,-1.983,-1.489,-104.073
 12:19:37.875,eb:33:2e:f9:57:b5, 2015-01-01 00:05:54.915,0.031,-0.037,0.998,1.648,1.038,-1.892, , , , , , ,-1.978,-1.483,-104.084
 12:19:37.875,eb:33:2e:f9:57:b5, 2015-01-01 00:05:54.915,0.029,-0.037,1,1.709,1.221,-2.014, , , , , , ,-1.967,-1.478,-104.095
 12:19:37.875,eb:33:2e:f9:57:b5, 2015-01-01 00:05:54.915,0.029,-0.036,0.999,1.77,1.282,-2.075, , , , , , ,-1.961,-1.472,-104.106
 12:19:37.919,eb:33:2e:f9:57:b5, 2015-01-01 00:05:54.915,0.029,-0.037,0.998,1.831,1.343,-2.075, , , , , , ,-1.95,-1.467,-104.117
 12:19:37.919,eb:33:2e:f9:57:b5, 2015-01-01 00:05:54.915,0.028,-0.036,0.998,1.77,1.587,-2.014, , , , , , ,-1.939,-1.461,-104.128
 12:19:37.919,eb:33:2e:f9:57:b5, 2015-01-01 00:05:54.915,0.028,-0.035,0.998,1.77,1.77,-1.892, , , , , , ,-1.934,-1.456,-104.134
 12:19:37.919,eb:33:2e:f9:57:b5, 2015-01-01 00:05:54.915,0.028,-0.036,0.999,1.709,2.014,-1.831, , , , , , ,-1.923,-1.445,-104.145
 12:19:37.919,eb:33:2e:f9:57:b5, 2015-01-01 00:05:54.915,0.034,-0.037,0.999,1.831,2.136,-1.892, , , , , , ,-1.912,-1.434,-104.156
 12:19:37.919,eb:33:2e:f9:57:b5, 2015-01-01 00:05:54.915,0.039,-0.039,1.006,2.197,2.38,-1.953, , , , , , ,-1.906,-1.423,-104.167
 12:19:37.919,eb:33:2e:f9:57:b5, 2015-01-01 00:05:54.915,0.041,-0.043,1.012,2.747,2.93,-1.953, , , , , , ,-1.89,-1.412,-104.178
 12:19:37.919,eb:33:2e:f9:57:b5, 2015-01-01 00:05:54.915,0.039,-0.044,1.013,3.357,3.479,-1.831, , , , , , ,-1.873,-1.395,-104.189
 12:19:38.009,eb:33:2e:f9:57:b5, 2015-01-01 00:05:55.250,0.041,-0.04,1.011,3.845,3.967,-1.892, , , , , , ,-1.857,-1.379,-104.2
 12:19:38.009,eb:33:2e:f9:57:b5, 2015-01-01 00:05:55.250,0.045,-0.044,1.016,4.517,4.7,-1.892, , , , , , ,-1.835,-1.357,-104.205
 12:19:38.009,eb:33:2e:f9:57:b5, 2015-01-01 00:05:55.250,0.046,-0.046,1.02,5.249,5.554,-1.831, , , , , , ,-1.807,-1.329,-104.216
 12:19:38.009,eb:33:2e:f9:57:b5, 2015-01-01 00:05:55.250,0.046,-0.046,1.021,5.981,6.47,-1.648, , , , , , ,-1.78,-1.302,-104.227
 12:19:38.009,eb:33:2e:f9:57:b5, 2015-01-01 00:05:55.250,0.044,-0.04,1.021,6.47,7.874,-1.77, , , , , , ,-1.752,-1.263,-104.238
 12:19:38.009,eb:33:2e:f9:57:b5, 2015-01-01 00:05:55.250,0.04,-0.035,1.019,6.836,9.338,-1.587, , , , , , ,-1.714,-1.219,-104.249
 12:19:38.009,eb:33:2e:f9:57:b5, 2015-01-01 00:05:55.250,0.042,-0.037,1.016,7.324,10.193,-1.709, , , , , , ,-1.681,-1.17,-104.26
 12:19:38.009,eb:33:2e:f9:57:b5, 2015-01-01 00:05:55.250,0.04,-0.039,1.02,7.812,11.23,-1.831, , , , , , ,-1.642,-1.121,-104.271
 12:19:38.011,eb:33:2e:f9:57:b5, 2015-01-01 00:05:55.250,0.043,-0.038,1.021,8.423,12.024,-1.831, , , , , , ,-1.604,-1.06,-104.282
 12:19:38.011,eb:33:2e:f9:57:b5, 2015-01-01 00:05:55.250,0.048,-0.041,1.037,9.583,13.062,-1.892, , , , , , ,-1.555,-1,-104.293
 12:19:38.011,eb:33:2e:f9:57:b5, 2015-01-01 00:05:55.250,0.07,-0.039,1.05,11.047,14.343,-2.38, , , , , , ,-1.505,-0.928,-104.304
 12:19:38.011,eb:33:2e:f9:57:b5, 2015-01-01 00:05:55.250,0.061,-0.042,1.084,12.512,17.09,-2.808, , , , , , ,-1.445,-0.851,-104.321
 12:19:38.011,eb:33:2e:f9:57:b5, 2015-01-01 00:05:55.250,0.062,-0.036,1.073,13.428,19.592,-2.991, , , , , , ,-1.379,-0.758,-104.337
 12:19:38.011,eb:33:2e:f9:57:b5, 2015-01-01 00:05:55.250,0.055,-0.036,1.083,14.465,21.79,-2.991, , , , , , ,-1.307,-0.654,-104.354
 12:19:38.011,eb:33:2e:f9:57:b5, 2015-01-01 00:05:55.250,0.064,-0.025,1.082,15.015,24.17,-2.991, , , , , , ,-1.236,-0.538,-104.37
 12:19:38.011,eb:33:2e:f9:57:b5, 2015-01-01 00:05:55.250,0.089,-0.014,1.09,14.954,26.917,-3.052, , , , , , ,-1.159,-0.412,-104.392
 12:19:38.032,eb:33:2e:f9:57:b5, 2015-01-01 00:05:55.250,0.134,0.034,1.095,16.541,26.733,-5.676, , , , , , ,-1.082,-0.275,-104.414
 12:19:38.032,eb:33:2e:f9:57:b5, 2015-01-01 00:05:55.250,0.117,-0.01,1.298,22.339,25.024,-10.62, , , , , , ,-0.983,-0.148,-104.458
 12:19:38.032,eb:33:2e:f9:57:b5, 2015-01-01 00:05:55.250,0.088,-0.136,1.519,34.851,23.315,-14.099, , , , , , ,-0.835,-0.027,-104.524
 12:19:38.032,eb:33:2e:f9:57:b5, 2015-01-01 00:05:55.250,0.084,-0.217,1.7,50.354,21.118,-17.456, , , , , , ,-0.615,0.071,-104.612
 12:19:38.032,eb:33:2e:f9:57:b5, 2015-01-01 00:05:55.250,-0.002,-0.361,1.899,62.195,33.936,-15.076, , , , , , ,-0.33,0.214,-104.694
 12:19:38.032,eb:33:2e:f9:57:b5, 2015-01-01 00:05:55.250,0.034,-0.264,1.594,73.364,36.499,-13.855, , , , , , ,0.011,0.396,-104.766
 12:19:38.032,eb:33:2e:f9:57:b5, 2015-01-01 00:05:55.250,0.059,-0.137,1.458,83.008,33.752,-14.404, , , , , , ,0.406,0.571,-104.832
 12:19:38.032,eb:33:2e:f9:57:b5, 2015-01-01 00:05:55.250,0.062,-0.131,1.5,90.942,33.63,-14.709, , , , , , ,0.846,0.736,-104.908
 12:19:38.076,eb:33:2e:f9:57:b5, 2015-01-01 00:05:55.250,0.111,-0.127,1.589,98.511,36.133,-14.221, , , , , , ,1.324,0.912,-104.974
 12:19:38.076,eb:33:2e:f9:57:b5, 2015-01-01 00:05:55.250,0.138,-0.179,1.703,105.713,41.931,-13.062, , , , , , ,1.835,1.115,-105.04
 12:19:38.076,eb:33:2e:f9:57:b5, 2015-01-01 00:05:55.250,0.167,-0.17,1.691,114.685,46.387,-14.099, , , , , , ,2.39,1.34,-105.095
 12:19:38.076,eb:33:2e:f9:57:b5, 2015-01-01 00:05:55.250,0.163,-0.14,1.622,121.216,50.598,-14.526, , , , , , ,2.983,1.588,-105.161
 12:19:38.076,eb:33:2e:f9:57:b5, 2015-01-01 00:05:55.250,0.198,-0.161,1.674,127.502,59.265,-13.855, , , , , , ,3.604,1.868,-105.216
 12:19:38.076,eb:33:2e:f9:57:b5, 2015-01-01 00:05:55.250,0.242,-0.05,1.6,137.756,63.293,-16.174, , , , , , ,4.268,2.181,-105.266
 12:19:38.076,eb:33:2e:f9:57:b5, 2015-01-01 00:05:55.250,0.268,0.01,1.53,145.874,62.378,-19.958, , , , , , ,4.977,2.505,-105.331
 12:19:38.076,eb:33:2e:f9:57:b5, 2015-01-01 00:05:55.250,0.359,0.108,1.536,156.372,62.073,-24.719, , , , , , ,5.735,2.823,-105.419
 12:19:38.122,eb:33:2e:f9:57:b5, 2015-01-01 00:05:55.250,0.338,0.121,1.501,161.682,63.721,-29.297, , , , , , ,6.531,3.153,-105.524
 12:19:38.122,eb:33:2e:f9:57:b5, 2015-01-01 00:05:55.250,0.338,0.072,1.618,161.072,72.815,-30.396, , , , , , ,7.333,3.505,-105.634
 12:19:38.122,eb:33:2e:f9:57:b5, 2015-01-01 00:05:55.250,0.333,-0.049,1.813,154.968,92.896,-27.649, , , , , , ,8.113,3.944,-105.721
 12:19:38.122,eb:33:2e:f9:57:b5, 2015-01-01 00:05:55.250,0.356,-0.069,1.826,151.55,114.685,-25.879, , , , , , ,8.871,4.488,-105.771
 12:19:38.122,eb:33:2e:f9:57:b5, 2015-01-01 00:05:55.250,0.397,0.098,1.582,155.09,121.765,-30.029, , , , , , ,9.635,5.103,-105.815
 12:19:38.122,eb:33:2e:f9:57:b5, 2015-01-01 00:05:55.250,0.437,0.288,1.319,163.086,114.38,-39.856, , , , , , ,10.426,5.718,-105.886
 12:19:38.122,eb:33:2e:f9:57:b5, 2015-01-01 00:05:55.250,0.393,0.276,1.178,168.335,104.736,-48.645, , , , , , ,11.25,6.29,-106.007
 12:19:38.122,eb:33:2e:f9:57:b5, 2015-01-01 00:05:55.250,0.379,0.237,1.287,164.673,107.178,-51.025, , , , , , ,12.063,6.855,-106.15
 12:19:38.166,eb:33:2e:f9:57:b5, 2015-01-01 00:05:55.250,0.367,0.119,1.481,157.227,122.07,-50.415, , , , , , ,12.854,7.471,-106.276
 12:19:38.166,eb:33:2e:f9:57:b5, 2015-01-01 00:05:55.250,0.326,-0.019,1.478,146.912,140.503,-46.57, , , , , , ,13.596,8.174,-106.359
 12:19:38.166,eb:33:2e:f9:57:b5, 2015-01-01 00:05:55.250,0.289,-0.007,1.462,135.62,160.767,-40.771, , , , , , ,14.293,8.965,-106.386
 12:19:38.166,eb:33:2e:f9:57:b5, 2015-01-01 00:05:55.250,0.328,0.064,1.417,125.122,177.612,-36.743, , , , , , ,14.947,9.844,-106.353
 12:19:38.166,eb:33:2e:f9:57:b5, 2015-01-01 00:05:55.250,0.274,0.048,1.397,110.84,197.571,-32.715, , , , , , ,15.54,10.8,-106.271
 12:19:38.166,eb:33:2e:f9:57:b5, 2015-01-01 00:05:55.250,0.253,-0.03,1.308,98.022,217.529,-27.71, , , , , , ,16.084,11.849,-106.122
 12:19:38.166,eb:33:2e:f9:57:b5, 2015-01-01 00:05:55.250,0.408,-0.024,1.117,86.304,230.164,-24.048, , , , , , ,16.584,12.969,-105.925
 12:19:38.166,eb:33:2e:f9:57:b5, 2015-01-01 00:05:55.250,0.617,-0.284,0.633,73.975,225.952,-23.438, , , , , , ,17.034,14.101,-105.699
 12:19:38.212,eb:33:2e:f9:57:b5, 2015-01-01 00:05:55.250,0.61,-0.742,-0.087,60.547,200.867,-18.433, , , , , , ,17.419,15.145,-105.48
 12:19:38.212,eb:33:2e:f9:57:b5, 2015-01-01 00:05:55.250,0.425,-0.92,-0.347,55.237,162.781,-5.798, , , , , , ,17.759,16.013,-105.249
 12:19:38.212,eb:33:2e:f9:57:b5, 2015-01-01 00:05:55.250,0.553,-0.519,-0.552,53.772,102.112,2.136, , , , , , ,18.089,16.628,-105.046
 12:19:38.212,eb:33:2e:f9:57:b5, 2015-01-01 00:05:55.250,0.725,-0.45,-0.518,51.392,34.973,5.249, , , , , , ,18.386,16.908,-104.93
 12:19:38.212,eb:33:2e:f9:57:b5, 2015-01-01 00:05:55.250,0.743,-0.646,-0.322,47.974,-13.55,8.728, , , , , , ,18.644,16.913,-104.886
 12:19:38.212,eb:33:2e:f9:57:b5, 2015-01-01 00:05:55.250,0.684,-0.733,-0.032,43.457,-39.551,14.587, , , , , , ,18.875,16.749,-104.881
 12:19:38.212,eb:33:2e:f9:57:b5, 2015-01-01 00:05:55.250,0.619,-0.745,0.35,39.917,-48.035,22.156, , , , , , ,19.083,16.501,-104.865
 12:19:38.212,eb:33:2e:f9:57:b5, 2015-01-01 00:05:55.250,0.574,-0.783,0.615,36.438,-44.922,30.396, , , , , , ,19.286,16.232,-104.81
 12:19:38.235,eb:33:2e:f9:57:b5, 2015-01-01 00:05:55.565,0.544,-0.812,0.656,30.396,-36.621,39.368, , , , , , ,19.484,15.985,-104.705
 12:19:38.235,eb:33:2e:f9:57:b5, 2015-01-01 00:05:55.565,0.539,-0.791,0.555,21.362,-29.846,48.096, , , , , , ,19.655,15.754,-104.54
 12:19:38.235,eb:33:2e:f9:57:b5, 2015-01-01 00:05:55.565,0.557,-0.744,0.429,11.23,-28.625,54.443, , , , , , ,19.786,15.535,-104.337
 12:19:38.235,eb:33:2e:f9:57:b5, 2015-01-01 00:05:55.565,0.58,-0.688,0.336,1.526,-32.959,57.8, , , , , , ,19.869,15.293,-104.117
 12:19:38.235,eb:33:2e:f9:57:b5, 2015-01-01 00:05:55.565,0.602,-0.64,0.276,-6.958,-41.809,57.861, , , , , , ,19.907,15.013,-103.898
 12:19:38.235,eb:33:2e:f9:57:b5, 2015-01-01 00:05:55.565,0.614,-0.595,0.25,-14.465,-53.772,55.237, , , , , , ,19.896,14.689,-103.711
 12:19:38.235,eb:33:2e:f9:57:b5, 2015-01-01 00:05:55.565,0.612,-0.561,0.259,-21.179,-66.528,50.537, , , , , , ,19.841,14.31,-103.563
 12:19:38.235,eb:33:2e:f9:57:b5, 2015-01-01 00:05:55.565,0.599,-0.543,0.301,-27.832,-78.369,44.617, , , , , , ,19.737,13.876,-103.464
 12:19:38.279,eb:33:2e:f9:57:b5, 2015-01-01 00:05:55.565,0.576,-0.534,0.368,-34.729,-88.013,38.086, , , , , , ,19.589,13.414,-103.414
 12:19:38.279,eb:33:2e:f9:57:b5, 2015-01-01 00:05:55.565,0.555,-0.521,0.463,-44.128,-95.764,30.029, , , , , , ,19.391,12.92,-103.414
 12:19:38.279,eb:33:2e:f9:57:b5, 2015-01-01 00:05:55.565,0.522,-0.522,0.553,-52.795,-98.572,23.743, , , , , , ,19.133,12.415,-103.453
 12:19:38.279,eb:33:2e:f9:57:b5, 2015-01-01 00:05:55.565,0.499,-0.521,0.623,-61.829,-99.487,17.7, , , , , , ,18.825,11.909,-103.519
 12:19:38.279,eb:33:2e:f9:57:b5, 2015-01-01 00:05:55.565,0.466,-0.521,0.69,-71.35,-98.511,11.902, , , , , , ,18.468,11.415,-103.612
 12:19:38.279,eb:33:2e:f9:57:b5, 2015-01-01 00:05:55.565,0.441,-0.518,0.709,-81.116,-98.328,6.409, , , , , , ,18.062,10.937,-103.727
 12:19:38.279,eb:33:2e:f9:57:b5, 2015-01-01 00:05:55.565,0.42,-0.504,0.69,-91.736,-101.013,0.854, , , , , , ,17.6,10.459,-103.87
 12:19:38.279,eb:33:2e:f9:57:b5, 2015-01-01 00:05:55.565,0.406,-0.486,0.651,-103.271,-107.483,-4.944, , , , , , ,17.073,9.959,-104.041
 12:19:38.324,eb:33:2e:f9:57:b5, 2015-01-01 00:05:55.565,0.399,-0.479,0.637,-115.295,-116.272,-10.742, , , , , , ,16.485,9.432,-104.249
 12:19:38.324,eb:33:2e:f9:57:b5, 2015-01-01 00:05:55.565,0.392,-0.491,0.677,-126.709,-124.817,-16.174, , , , , , ,15.837,8.866,-104.485
 12:19:38.324,eb:33:2e:f9:57:b5, 2015-01-01 00:05:55.565,0.375,-0.512,0.762,-136.78,-131.653,-20.813, , , , , , ,15.128,8.267,-104.755
 12:19:38.324,eb:33:2e:f9:57:b5, 2015-01-01 00:05:55.565,0.347,-0.536,0.867,-145.081,-135.62,-24.353, , , , , , ,14.376,7.646,-105.04
 12:19:38.324,eb:33:2e:f9:57:b5, 2015-01-01 00:05:55.565,0.312,-0.557,0.976,-151.917,-136.719,-26.794, , , , , , ,13.596,7.015,-105.337
 12:19:38.324,eb:33:2e:f9:57:b5, 2015-01-01 00:05:55.565,0.274,-0.569,1.066,-157.654,-135.437,-27.832, , , , , , ,12.783,6.383,-105.628
 12:19:38.324,eb:33:2e:f9:57:b5, 2015-01-01 00:05:55.565,0.236,-0.57,1.127,-162.781,-133.118,-27.832, , , , , , ,11.948,5.757,-105.908
 12:19:38.324,eb:33:2e:f9:57:b5, 2015-01-01 00:05:55.565,0.196,-0.566,1.166,-167.236,-130.92,-26.733, , , , , , ,11.091,5.136,-106.177
 12:19:38.370,eb:33:2e:f9:57:b5, 2015-01-01 00:05:55.565,0.163,-0.56,1.186,-171.082,-130.127,-24.78, , , , , , ,10.223,4.521,-106.425
 12:19:38.370,eb:33:2e:f9:57:b5, 2015-01-01 00:05:55.565,0.134,-0.549,1.202,-174.255,-131.042,-22.095, , , , , , ,9.338,3.895,-106.65
 12:19:38.370,eb:33:2e:f9:57:b5, 2015-01-01 00:05:55.565,0.108,-0.541,1.229,-176.88,-133.24,-18.677, , , , , , ,8.448,3.257,-106.853
 12:19:38.370,eb:33:2e:f9:57:b5, 2015-01-01 00:05:55.565,0.084,-0.535,1.267,-178.772,-136.108,-14.404, , , , , , ,7.548,2.598,-107.029
 12:19:38.370,eb:33:2e:f9:57:b5, 2015-01-01 00:05:55.565,0.061,-0.527,1.316,-179.932,-139.099,-9.338, , , , , , ,6.641,1.917,-107.172
 12:19:38.370,eb:33:2e:f9:57:b5, 2015-01-01 00:05:55.565,0.041,-0.517,1.377,-180.237,-141.602,-3.479, , , , , , ,5.74,1.225,-107.276
 12:19:38.370,eb:33:2e:f9:57:b5, 2015-01-01 00:05:55.565,0.021,-0.503,1.44,-179.871,-143.127,3.052, , , , , , ,4.839,0.511,-107.342
 12:19:38.370,eb:33:2e:f9:57:b5, 2015-01-01 00:05:55.565,0.009,-0.488,1.5,-178.894,-143.433,10.315, , , , , , ,3.939,-0.203,-107.358
 12:19:38.415,eb:33:2e:f9:57:b5, 2015-01-01 00:05:55.565,0.001,-0.465,1.561,-177.368,-142.151,17.944, , , , , , ,3.049,-0.923,-107.325
 12:19:38.415,eb:33:2e:f9:57:b5, 2015-01-01 00:05:55.565,0,-0.43,1.612,-175.415,-139.893,25.757, , , , , , ,2.164,-1.631,-107.249
 12:19:38.415,eb:33:2e:f9:57:b5, 2015-01-01 00:05:55.565,-0.002,-0.386,1.647,-173.035,-137.024,33.203, , , , , , ,1.285,-2.329,-107.117
 12:19:38.415,eb:33:2e:f9:57:b5, 2015-01-01 00:05:55.565,0.006,-0.337,1.656,-170.471,-134.827,40.222, , , , , , ,0.417,-3.01,-106.941
 12:19:38.415,eb:33:2e:f9:57:b5, 2015-01-01 00:05:55.565,0.009,-0.282,1.646,-168.152,-133.972,46.387, , , , , , ,-0.434,-3.68,-106.721
 12:19:38.415,eb:33:2e:f9:57:b5, 2015-01-01 00:05:55.565,0.028,-0.227,1.613,-166.565,-134.705,51.758, , , , , , ,-1.291,-4.351,-106.458
 12:19:38.415,eb:33:2e:f9:57:b5, 2015-01-01 00:05:55.565,0.04,-0.181,1.587,-165.466,-137.268,56.03, , , , , , ,-2.142,-5.021,-106.166
 12:19:38.416,eb:33:2e:f9:57:b5, 2015-01-01 00:05:55.565,0.051,-0.136,1.573,-164.551,-140.564,59.509, , , , , , ,-2.999,-5.707,-105.842
 12:19:38.503,eb:33:2e:f9:57:b5, 2015-01-01 00:05:55.565,0.064,-0.101,1.59,-163.757,-142.578,62.561, , , , , , ,-3.862,-6.4,-105.491
 12:19:38.503,eb:33:2e:f9:57:b5, 2015-01-01 00:05:55.565,0.064,-0.071,1.625,-162.537,-143.005,64.636, , , , , , ,-4.719,-7.086,-105.117
 12:19:38.503,eb:33:2e:f9:57:b5, 2015-01-01 00:05:55.565,0.053,-0.035,1.657,-161.133,-141.479,66.101, , , , , , ,-5.581,-7.767,-104.722
 12:19:38.503,eb:33:2e:f9:57:b5, 2015-01-01 00:05:55.565,0.036,0.005,1.678,-158.997,-137.878,68.115, , , , , , ,-6.443,-8.427,-104.315
 12:19:38.503,eb:33:2e:f9:57:b5, 2015-01-01 00:05:55.565,0.016,0.043,1.675,-156.982,-134.277,69.397, , , , , , ,-7.295,-9.064,-103.887
 12:19:38.503,eb:33:2e:f9:57:b5, 2015-01-01 00:05:55.565,-0.005,0.08,1.65,-154.602,-131.47,70.435, , , , , , ,-8.146,-9.673,-103.442
 12:19:38.505,eb:33:2e:f9:57:b5, 2015-01-01 00:05:55.565,-0.032,0.124,1.62,-152.1,-128.784,70.801, , , , , , ,-8.992,-10.261,-102.991
 12:19:38.505,eb:33:2e:f9:57:b5, 2015-01-01 00:05:55.565,-0.053,0.159,1.58,-149.17,-127.502,70.801, , , , , , ,-9.833,-10.838,-102.53
 12:19:38.507,eb:33:2e:f9:57:b5, 2015-01-01 00:05:55.565,-0.08,0.19,1.546,-145.63,-127.014,70.435, , , , , , ,-10.657,-11.404,-102.057
 12:19:38.507,eb:33:2e:f9:57:b5, 2015-01-01 00:05:55.565,-0.101,0.21,1.523,-141.357,-126.648,69.885, , , , , , ,-11.47,-11.959,-101.58
 12:19:38.507,eb:33:2e:f9:57:b5, 2015-01-01 00:05:55.565,-0.132,0.228,1.515,-136.292,-125.61,69.275, , , , , , ,-12.266,-12.502,-101.102
 12:19:38.507,eb:33:2e:f9:57:b5, 2015-01-01 00:05:55.565,-0.174,0.251,1.514,-130.798,-123.291,68.604, , , , , , ,-13.041,-13.035,-100.618
 12:19:38.507,eb:33:2e:f9:57:b5, 2015-01-01 00:05:55.565,-0.217,0.282,1.515,-125.183,-119.751,67.932, , , , , , ,-13.788,-13.546,-100.129
 12:19:38.507,eb:33:2e:f9:57:b5, 2015-01-01 00:05:55.565,-0.256,0.319,1.515,-119.873,-115.417,67.322, , , , , , ,-14.513,-14.035,-99.646
 12:19:38.507,eb:33:2e:f9:57:b5, 2015-01-01 00:05:55.565,-0.294,0.37,1.509,-115.601,-110.168,66.528, , , , , , ,-15.222,-14.491,-99.163
 12:19:38.507,eb:33:2e:f9:57:b5, 2015-01-01 00:05:55.565,-0.321,0.432,1.486,-112.549,-104.37,65.308, , , , , , ,-15.914,-14.919,-98.69
 12:19:38.526,eb:33:2e:f9:57:b5, 2015-01-01 00:05:55.565,-0.341,0.5,1.456,-110.901,-98.267,63.721, , , , , , ,-16.595,-15.315,-98.223
 12:19:38.526,eb:33:2e:f9:57:b5, 2015-01-01 00:05:55.565,-0.354,0.571,1.43,-109.68,-91.248,61.646, , , , , , ,-17.265,-15.672,-97.767
 12:19:38.526,eb:33:2e:f9:57:b5, 2015-01-01 00:05:55.565,-0.359,0.643,1.423,-107.727,-83.13,59.082, , , , , , ,-17.93,-15.996,-97.333
 12:19:38.526,eb:33:2e:f9:57:b5, 2015-01-01 00:05:55.565,-0.362,0.716,1.43,-103.699,-74.28,55.725, , , , , , ,-18.572,-16.276,-96.927
 12:19:38.526,eb:33:2e:f9:57:b5, 2015-01-01 00:05:55.565,-0.369,0.792,1.426,-96.985,-65.613,51.575, , , , , , ,-19.182,-16.518,-96.548
 12:19:38.526,eb:33:2e:f9:57:b5, 2015-01-01 00:05:55.565,-0.379,0.866,1.397,-88.135,-57.678,46.631, , , , , , ,-19.737,-16.727,-96.202
 12:19:38.526,eb:33:2e:f9:57:b5, 2015-01-01 00:05:55.565,-0.389,0.935,1.339,-77.942,-51.208,41.382, , , , , , ,-20.237,-16.902,-95.889
 12:19:38.526,eb:33:2e:f9:57:b5, 2015-01-01 00:05:55.565,-0.395,0.993,1.264,-67.505,-46.204,35.95, , , , , , ,-20.682,-17.062,-95.614
 12:19:38.572,eb:33:2e:f9:57:b5, 2015-01-01 00:05:55.565,-0.403,1.033,1.195,-57.129,-42.725,30.762, , , , , , ,-21.061,-17.21,-95.372
 12:19:38.572,eb:33:2e:f9:57:b5, 2015-01-01 00:05:55.565,-0.417,1.061,1.148,-46.936,-40.527,25.635, , , , , , ,-21.379,-17.353,-95.158
 12:19:38.572,eb:33:2e:f9:57:b5, 2015-01-01 00:05:55.565,-0.433,1.075,1.129,-37.354,-38.757,20.813, , , , , , ,-21.638,-17.496,-94.971
 12:19:38.572,eb:33:2e:f9:57:b5, 2015-01-01 00:05:55.565,-0.446,1.076,1.131,-28.748,-36.194,16.296, , , , , , ,-21.852,-17.639,-94.812
 12:19:38.572,eb:33:2e:f9:57:b5, 2015-01-01 00:05:55.565,-0.455,1.063,1.154,-21.057,-31.555,12.451, , , , , , ,-22.011,-17.77,-94.675
 12:19:38.572,eb:33:2e:f9:57:b5, 2015-01-01 00:05:55.565,-0.467,1.043,1.196,-13.977,-24.597,9.094, , , , , , ,-22.126,-17.88,-94.57
 12:19:38.572,eb:33:2e:f9:57:b5, 2015-01-01 00:05:55.565,-0.468,1.024,1.237,-7.324,-15.747,6.042, , , , , , ,-22.203,-17.957,-94.499
 12:19:38.572,eb:33:2e:f9:57:b5, 2015-01-01 00:05:55.565,-0.449,1.021,1.272,-0.793,-5.432,3.052, , , , , , ,-22.236,-17.996,-94.455
 12:19:38.616,eb:33:2e:f9:57:b5, 2015-01-01 00:05:55.565,-0.421,1.028,1.292,5.371,5.859,-0.183, , , , , , ,-22.22,-17.985,-94.455
 12:19:38.616,eb:33:2e:f9:57:b5, 2015-01-01 00:05:55.565,-0.391,1.043,1.287,11.597,16.907,-3.967, , , , , , ,-22.165,-17.93,-94.493
 12:19:38.616,eb:33:2e:f9:57:b5, 2015-01-01 00:05:55.565,-0.358,1.061,1.261,18.127,26.428,-8.484, , , , , , ,-22.061,-17.842,-94.57
 12:19:38.616,eb:33:2e:f9:57:b5, 2015-01-01 00:05:55.565,-0.327,1.073,1.222,25.085,33.875,-13.55, , , , , , ,-21.918,-17.715,-94.686
 12:19:38.616,eb:33:2e:f9:57:b5, 2015-01-01 00:05:55.565,-0.283,1.079,1.186,32.41,38.818,-19.287, , , , , , ,-21.72,-17.578,-94.839
 12:19:38.616,eb:33:2e:f9:57:b5, 2015-01-01 00:05:55.565,-0.239,1.062,1.172,41.321,42.48,-26.245, , , , , , ,-21.478,-17.43,-95.037
 12:19:38.616,eb:33:2e:f9:57:b5, 2015-01-01 00:05:55.565,-0.181,1.024,1.2,48.828,45.227,-31.921, , , , , , ,-21.176,-17.276,-95.262
 12:19:38.616,eb:33:2e:f9:57:b5, 2015-01-01 00:05:55.565,-0.137,0.951,1.207,55.115,48.462,-36.865, , , , , , ,-20.836,-17.122,-95.521
 12:19:38.641,eb:33:2e:f9:57:b5, 2015-01-01 00:05:55.965,-0.096,0.856,1.155,59.448,51.636,-40.527, , , , , , ,-20.468,-16.957,-95.806
 12:19:38.641,eb:33:2e:f9:57:b5, 2015-01-01 00:05:55.965,-0.054,0.736,1.09,61.829,53.711,-43.335, , , , , , ,-20.072,-16.782,-96.114
 12:19:38.641,eb:33:2e:f9:57:b5, 2015-01-01 00:05:55.965,-0.023,0.602,1.001,62.927,54.321,-44.922, , , , , , ,-19.671,-16.6,-96.427
 12:19:38.641,eb:33:2e:f9:57:b5, 2015-01-01 00:05:55.965,0.033,0.464,0.907,63.354,53.467,-45.349, , , , , , ,-19.265,-16.425,-96.74
 12:19:38.641,eb:33:2e:f9:57:b5, 2015-01-01 00:05:55.965,0.04,0.346,0.874,64.026,51.697,-44.678, , , , , , ,-18.858,-16.249,-97.053
 12:19:38.641,eb:33:2e:f9:57:b5, 2015-01-01 00:05:55.965,0.055,0.208,0.814,65.552,48.035,-43.762, , , , , , ,-18.452,-16.084,-97.355
 12:19:38.641,eb:33:2e:f9:57:b5, 2015-01-01 00:05:55.965,1.327,0.055,0.749,66.65,44.373,-40.894, , , , , , ,-18.04,-15.936,-97.635
 12:19:38.641,eb:33:2e:f9:57:b5, 2015-01-01 00:05:55.965,1.141,-1.866,4.631,94.177,129.395,-65.491, , , , , , ,-17.523,-15.705,-98.042
 12:19:38.684,eb:33:2e:f9:57:b5, 2015-01-01 00:05:55.965,2.137,-3.134,1.934,83.801,178.223,-44.128, , , , , , ,-16.946,-14.93,-98.558
 12:19:38.684,eb:33:2e:f9:57:b5, 2015-01-01 00:05:55.965,1.758,-2.056,0.876,96.863,195.19,-43.335, , , , , , ,-16.37,-14.101,-99.047
 12:19:38.684,eb:33:2e:f9:57:b5, 2015-01-01 00:05:55.965,0.919,-1.303,1.059,113.525,229.37,-41.26, , , , , , ,-15.716,-13.107,-99.575
 12:19:38.684,eb:33:2e:f9:57:b5, 2015-01-01 00:05:55.965,-0.389,-1.669,0.504,154.541,215.82,-13.55, , , , , , ,-14.936,-12.068,-99.998
 12:19:38.684,eb:33:2e:f9:57:b5, 2015-01-01 00:05:55.965,-0.451,-0.934,0.335,191.467,170.837,9.583, , , , , , ,-14.002,-11.14,-100.228
 12:19:38.684,eb:33:2e:f9:57:b5, 2015-01-01 00:05:55.965,-0.339,-0.468,0.603,212.036,148.682,13.672, , , , , , ,-12.953,-10.371,-100.349
 12:19:38.685,eb:33:2e:f9:57:b5, 2015-01-01 00:05:55.965,-0.28,-0.055,0.918,208.435,135.62,17.395, , , , , , ,-11.882,-9.662,-100.426
 12:19:38.685,eb:33:2e:f9:57:b5, 2015-01-01 00:05:55.965,-0.402,0.057,1.052,189.819,112,23.865, , , , , , ,-10.887,-9.042,-100.443
 12:19:38.730,eb:33:2e:f9:57:b5, 2015-01-01 00:05:55.965,-0.246,0.12,1.086,167.236,80.933,23.438, , , , , , ,-10.009,-8.564,-100.41
 12:19:38.730,eb:33:2e:f9:57:b5, 2015-01-01 00:05:55.965,-0.185,0.237,1.257,144.104,63.416,21.362, , , , , , ,-9.25,-8.207,-100.355
 12:19:38.730,eb:33:2e:f9:57:b5, 2015-01-01 00:05:55.965,-0.056,0.332,1.376,119.019,62.195,18.188, , , , , , ,-8.613,-7.883,-100.311
 12:19:38.730,eb:33:2e:f9:57:b5, 2015-01-01 00:05:55.965,-0.041,0.249,1.29,99.609,62.622,15.503, , , , , , ,-8.086,-7.564,-100.272
 12:19:38.730,eb:33:2e:f9:57:b5, 2015-01-01 00:05:55.965,-0.017,0.092,1.134,85.938,58.167,12.329, , , , , , ,-7.635,-7.251,-100.245
 12:19:38.730,eb:33:2e:f9:57:b5, 2015-01-01 00:05:55.965,0.02,0,1.067,76.111,50.781,11.841, , , , , , ,-7.24,-6.982,-100.223
 12:19:38.730,eb:33:2e:f9:57:b5, 2015-01-01 00:05:55.965,0.082,-0.031,1.01,68.909,42.542,13.062, , , , , , ,-6.883,-6.746,-100.19
 12:19:38.730,eb:33:2e:f9:57:b5, 2015-01-01 00:05:55.965,0.113,-0.091,1.025,65.063,40.161,17.822, , , , , , ,-6.559,-6.531,-100.129
 12:19:38.798,eb:33:2e:f9:57:b5, 2015-01-01 00:05:55.965,0.121,-0.14,1.008,63.904,39.856,20.142, , , , , , ,-6.251,-6.317,-100.063
 12:19:38.798,eb:33:2e:f9:57:b5, 2015-01-01 00:05:55.965,0.1,-0.178,0.947,65.491,40.1,21.057, , , , , , ,-5.933,-6.103,-99.981
 12:19:38.798,eb:33:2e:f9:57:b5, 2015-01-01 00:05:55.965,0.073,-0.151,0.937,67.871,39.185,20.874, , , , , , ,-5.609,-5.9,-99.893
 12:19:38.798,eb:33:2e:f9:57:b5, 2015-01-01 00:05:55.965,0.04,-0.11,0.942,69.458,39.062,18.555, , , , , , ,-5.273,-5.696,-99.816
 12:19:38.798,eb:33:2e:f9:57:b5, 2015-01-01 00:05:55.965,0.014,-0.046,0.953,69.336,38.086,14.954, , , , , , ,-4.933,-5.493,-99.75
 12:19:38.798,eb:33:2e:f9:57:b5, 2015-01-01 00:05:55.965,0.01,0.009,0.975,66.895,35.889,10.803, , , , , , ,-4.598,-5.306,-99.701
 12:19:38.798,eb:33:2e:f9:57:b5, 2015-01-01 00:05:55.965,0.027,0.04,0.995,62.866,33.02,7.019, , , , , , ,-4.274,-5.131,-99.673
 12:19:38.799,eb:33:2e:f9:57:b5, 2015-01-01 00:05:55.965,0.068,0.064,1.041,55.115,29.114,4.395, , , , , , ,-3.983,-4.977,-99.657
 12:19:38.799,eb:33:2e:f9:57:b5, 2015-01-01 00:05:55.965,0.088,0.043,1.038,49.438,26.794,4.395, , , , , , ,-3.73,-4.839,-99.646
 12:19:38.799,eb:33:2e:f9:57:b5, 2015-01-01 00:05:55.965,0.09,0.011,1.034,45.227,25.635,4.944, , , , , , ,-3.494,-4.708,-99.63
 12:19:38.799,eb:33:2e:f9:57:b5, 2015-01-01 00:05:55.965,0.087,-0.026,1.021,42.664,25.33,5.798, , , , , , ,-3.279,-4.581,-99.613
 12:19:38.799,eb:33:2e:f9:57:b5, 2015-01-01 00:05:55.965,0.065,-0.028,1.018,40.405,25.513,6.47, , , , , , ,-3.076,-4.455,-99.586
 12:19:38.799,eb:33:2e:f9:57:b5, 2015-01-01 00:05:55.965,0.066,0.033,1.031,35.339,24.536,7.202, , , , , , ,-2.889,-4.323,-99.558
 12:19:38.799,eb:33:2e:f9:57:b5, 2015-01-01 00:05:55.965,0.061,0.075,1.02,29.175,22.766,7.202, , , , , , ,-2.73,-4.208,-99.531
 12:19:38.799,eb:33:2e:f9:57:b5, 2015-01-01 00:05:55.965,0.051,0.095,1,22.705,20.691,6.042, , , , , , ,-2.609,-4.098,-99.498
 12:19:38.799,eb:33:2e:f9:57:b5, 2015-01-01 00:05:55.965,0.051,0.076,0.98,17.883,18.738,4.028, , , , , , ,-2.51,-3.999,-99.481
 12:19:38.841,eb:33:2e:f9:57:b5, 2015-01-01 00:05:55.965,0.063,0.04,0.977,14.587,17.273,2.441, , , , , , ,-2.433,-3.911,-99.47
 12:19:38.841,eb:33:2e:f9:57:b5, 2015-01-01 00:05:55.965,0.063,0.001,0.987,12.634,16.846,1.709, , , , , , ,-2.368,-3.829,-99.465
 12:19:38.841,eb:33:2e:f9:57:b5, 2015-01-01 00:05:55.965,0.058,-0.021,0.989,11.475,16.602,1.709, , , , , , ,-2.307,-3.741,-99.459
 12:19:38.842,eb:33:2e:f9:57:b5, 2015-01-01 00:05:55.965,0.045,-0.031,0.985,10.681,15.93,1.953, , , , , , ,-2.252,-3.664,-99.454
 12:19:38.842,eb:33:2e:f9:57:b5, 2015-01-01 00:05:55.965,0.041,-0.02,0.983,9.644,14.832,1.892, , , , , , ,-2.203,-3.587,-99.443
 12:19:38.842,eb:33:2e:f9:57:b5, 2015-01-01 00:05:55.965,0.044,-0.018,0.986,8.972,13.306,1.099, , , , , , ,-2.159,-3.516,-99.437
 12:19:38.842,eb:33:2e:f9:57:b5, 2015-01-01 00:05:55.965,0.054,-0.032,0.991,8.911,12.146,0.366, , , , , , ,-2.115,-3.45,-99.437
 12:19:38.842,eb:33:2e:f9:57:b5, 2015-01-01 00:05:55.965,0.055,-0.048,1,9.521,11.841,0.061, , , , , , ,-2.071,-3.395,-99.437
 12:19:38.887,eb:33:2e:f9:57:b5, 2015-01-01 00:05:55.965,0.047,-0.058,1.006,10.193,11.597,0.244, , , , , , ,-2.021,-3.334,-99.443
 12:19:38.887,eb:33:2e:f9:57:b5, 2015-01-01 00:05:55.965,0.042,-0.056,1.001,10.742,11.169,0.549, , , , , , ,-1.967,-3.279,-99.443
 12:19:38.887,eb:33:2e:f9:57:b5, 2015-01-01 00:05:55.965,0.041,-0.048,0.998,11.047,10.498,0.61, , , , , , ,-1.912,-3.224,-99.443
 12:19:38.887,eb:33:2e:f9:57:b5, 2015-01-01 00:05:55.965,0.019,-0.037,0.996,10.986,10.01,0.061, , , , , , ,-1.857,-3.175,-99.437
 12:19:38.887,eb:33:2e:f9:57:b5, 2015-01-01 00:05:55.965,0.03,-0.016,0.979,10.498,7.385,-1.221, , , , , , ,-1.802,-3.131,-99.443
 12:19:38.887,eb:33:2e:f9:57:b5, 2015-01-01 00:05:55.965,0.054,-0.005,0.985,9.888,4.944,-2.563, , , , , , ,-1.752,-3.104,-99.454
 12:19:38.887,eb:33:2e:f9:57:b5, 2015-01-01 00:05:55.965,0.067,-0.022,0.998,9.216,4.272,-2.625, , , , , , ,-1.703,-3.082,-99.47
 12:19:38.887,eb:33:2e:f9:57:b5, 2015-01-01 00:05:55.965,0.071,-0.032,1.001,8.484,4.395,-1.404, , , , , , ,-1.659,-3.06,-99.481
 12:19:38.931,eb:33:2e:f9:57:b5, 2015-01-01 00:05:55.965,0.062,-0.026,1.002,7.812,4.822,-0.488, , , , , , ,-1.62,-3.038,-99.487
 12:19:38.931,eb:33:2e:f9:57:b5, 2015-01-01 00:05:55.965,0.056,-0.025,0.999,7.507,5.066,-0.183, , , , , , ,-1.582,-3.01,-99.487
 12:19:38.931,eb:33:2e:f9:57:b5, 2015-01-01 00:05:55.965,0.061,-0.029,0.995,7.385,4.883,-0.366, , , , , , ,-1.544,-2.988,-99.492
 12:19:38.931,eb:33:2e:f9:57:b5, 2015-01-01 00:05:55.965,0.066,-0.027,0.997,7.568,4.883,-0.366, , , , , , ,-1.505,-2.966,-99.492
 12:19:38.931,eb:33:2e:f9:57:b5, 2015-01-01 00:05:55.965,0.064,-0.024,1.001,7.263,5.676,-0.244, , , , , , ,-1.467,-2.939,-99.498
 12:19:38.931,eb:33:2e:f9:57:b5, 2015-01-01 00:05:55.965,0.062,-0.017,1,6.714,6.165,0, , , , , , ,-1.434,-2.906,-99.498
 12:19:38.931,eb:33:2e:f9:57:b5, 2015-01-01 00:05:55.965,0.039,-0.015,1.001,6.348,7.385,0.488, , , , , , ,-1.401,-2.873,-99.498
 12:19:38.931,eb:33:2e:f9:57:b5, 2015-01-01 00:05:55.965,0.042,-0.022,0.989,5.859,6.47,0.061, , , , , , ,-1.373,-2.84,-99.498
 12:19:38.976,eb:33:2e:f9:57:b5, 2015-01-01 00:05:56.280,0.05,-0.016,0.986,5.493,5.554,-0.122, , , , , , ,-1.34,-2.812,-99.498
 12:19:38.976,eb:33:2e:f9:57:b5, 2015-01-01 00:05:56.280,0.054,-0.022,0.997,5.249,5.432,-0.305, , , , , , ,-1.318,-2.785,-99.503
 12:19:38.976,eb:33:2e:f9:57:b5, 2015-01-01 00:05:56.280,0.057,-0.036,1.004,5.615,5.371,0, , , , , , ,-1.291,-2.758,-99.503
 12:19:38.977,eb:33:2e:f9:57:b5, 2015-01-01 00:05:56.280,0.065,-0.037,1.005,5.981,5.31,0.061, , , , , , ,-1.258,-2.73,-99.503
 12:19:38.977,eb:33:2e:f9:57:b5, 2015-01-01 00:05:56.280,0.054,-0.027,1.01,6.165,6.287,-0.183, , , , , , ,-1.23,-2.703,-99.509
 12:19:38.977,eb:33:2e:f9:57:b5, 2015-01-01 00:05:56.280,0.051,-0.023,1.001,6.226,6.531,-0.244, , , , , , ,-1.198,-2.67,-99.509
 12:19:38.977,eb:33:2e:f9:57:b5, 2015-01-01 00:05:56.280,0.052,-0.026,1.002,6.47,6.592,-0.427, , , , , , ,-1.165,-2.637,-99.509
 12:19:38.977,eb:33:2e:f9:57:b5, 2015-01-01 00:05:56.280,0.058,-0.033,1.004,7.08,6.653,-0.305, , , , , , ,-1.132,-2.604,-99.514
 12:19:39.021,eb:33:2e:f9:57:b5, 2015-01-01 00:05:56.280,0.059,-0.033,1.01,7.507,7.202,-0.183, , , , , , ,-1.099,-2.571,-99.514
 12:19:39.021,eb:33:2e:f9:57:b5, 2015-01-01 00:05:56.280,0.052,-0.032,1.008,7.935,7.874,0, , , , , , ,-1.055,-2.532,-99.514
 12:19:39.021,eb:33:2e:f9:57:b5, 2015-01-01 00:05:56.280,0.055,-0.029,1.003,8.362,7.874,0.488, , , , , , ,-1.016,-2.494,-99.514
 12:19:39.021,eb:33:2e:f9:57:b5, 2015-01-01 00:05:56.280,0.055,-0.028,1.007,8.606,8.362,0.488, , , , , , ,-0.972,-2.455,-99.514
 12:19:39.021,eb:33:2e:f9:57:b5, 2015-01-01 00:05:56.280,0.057,-0.026,1.006,8.911,8.85,0.549, , , , , , ,-0.928,-2.411,-99.514
 12:19:39.021,eb:33:2e:f9:57:b5, 2015-01-01 00:05:56.280,0.055,-0.024,1.008,8.972,9.521,0.732, , , , , , ,-0.884,-2.362,-99.509
 12:19:39.021,eb:33:2e:f9:57:b5, 2015-01-01 00:05:56.280,0.054,-0.02,1.002,8.972,9.949,0.854, , , , , , ,-0.84,-2.313,-99.509
 12:19:39.021,eb:33:2e:f9:57:b5, 2015-01-01 00:05:56.280,0.048,-0.019,1.003,9.033,10.254,0.854, , , , , , ,-0.797,-2.263,-99.503
 12:19:39.067,eb:33:2e:f9:57:b5, 2015-01-01 00:05:56.280,0.044,-0.019,0.999,9.033,10.376,1.038, , , , , , ,-0.753,-2.214,-99.498
 12:19:39.067,eb:33:2e:f9:57:b5, 2015-01-01 00:05:56.280,0.04,-0.017,0.999,8.911,10.498,1.221, , , , , , ,-0.709,-2.159,-99.492
 12:19:39.067,eb:33:2e:f9:57:b5, 2015-01-01 00:05:56.280,0.04,-0.012,0.994,8.667,10.559,1.221, , , , , , ,-0.665,-2.109,-99.487
 12:19:39.068,eb:33:2e:f9:57:b5, 2015-01-01 00:05:56.280,0.039,-0.01,0.994,8.423,10.498,1.221, , , , , , ,-0.621,-2.054,-99.481
 12:19:39.068,eb:33:2e:f9:57:b5, 2015-01-01 00:05:56.280,0.038,-0.007,0.992,8.179,10.62,1.221, , , , , , ,-0.577,-2.005,-99.476
 12:19:39.068,eb:33:2e:f9:57:b5, 2015-01-01 00:05:56.280,0.045,-0.008,0.994,7.874,10.62,1.099, , , , , , ,-0.538,-1.95,-99.47
 12:19:39.068,eb:33:2e:f9:57:b5, 2015-01-01 00:05:56.280,0.048,-0.006,1.003,7.812,11.108,0.854, , , , , , ,-0.5,-1.895,-99.47
 12:19:39.068,eb:33:2e:f9:57:b5, 2015-01-01 00:05:56.280,0.052,-0.006,1.006,7.996,11.597,0.488, , , , , , ,-0.461,-1.84,-99.465
 12:19:39.089,eb:33:2e:f9:57:b5, 2015-01-01 00:05:56.280,0.053,-0.006,1.012,8.118,12.329,0.244, , , , , , ,-0.423,-1.78,-99.465
 12:19:39.089,eb:33:2e:f9:57:b5, 2015-01-01 00:05:56.280,0.059,-0.005,1.014,8.362,13.306,0, , , , , , ,-0.379,-1.714,-99.465
 12:19:39.089,eb:33:2e:f9:57:b5, 2015-01-01 00:05:56.280,0.057,-0.003,1.017,8.606,14.343,-0.244, , , , , , ,-0.335,-1.648,-99.465
 12:19:39.089,eb:33:2e:f9:57:b5, 2015-01-01 00:05:56.280,0.049,-0.002,1.014,8.789,15.503,-0.488, , , , , , ,-0.291,-1.571,-99.47
 12:19:39.089,eb:33:2e:f9:57:b5, 2015-01-01 00:05:56.280,0.04,0.001,1.008,8.728,16.479,-0.793, , , , , , ,-0.247,-1.494,-99.47
 12:19:39.089,eb:33:2e:f9:57:b5, 2015-01-01 00:05:56.280,0.036,-0.004,1.009,8.972,16.968,-1.038, , , , , , ,-0.203,-1.406,-99.476
 12:19:39.091,eb:33:2e:f9:57:b5, 2015-01-01 00:05:56.280,0.027,-0.004,1.006,9.094,17.456,-1.221, , , , , , ,-0.159,-1.324,-99.481
 12:19:39.091,eb:33:2e:f9:57:b5, 2015-01-01 00:05:56.280,0.027,-0.003,0.999,9.216,17.517,-1.221, , , , , , ,-0.115,-1.236,-99.492
 12:19:39.135,eb:33:2e:f9:57:b5, 2015-01-01 00:05:56.280,0.023,-0.003,0.997,9.216,17.334,-1.465, , , , , , ,-0.066,-1.148,-99.498
 12:19:39.135,eb:33:2e:f9:57:b5, 2015-01-01 00:05:56.280,0.03,0,0.998,9.338,17.029,-1.831, , , , , , ,-0.022,-1.06,-99.509
 12:19:39.135,eb:33:2e:f9:57:b5, 2015-01-01 00:05:56.280,0.042,0.008,1.003,9.766,16.357,-2.625, , , , , , ,0.022,-0.978,-99.52
 12:19:39.135,eb:33:2e:f9:57:b5, 2015-01-01 00:05:56.280,0.044,0.005,1.022,10.498,16.602,-3.784, , , , , , ,0.071,-0.895,-99.536
 12:19:39.135,eb:33:2e:f9:57:b5, 2015-01-01 00:05:56.280,0.061,0.012,1.028,11.414,16.357,-5.188, , , , , , ,0.126,-0.813,-99.558
 12:19:39.135,eb:33:2e:f9:57:b5, 2015-01-01 00:05:56.280,0.06,0.027,1.047,12.024,17.517,-6.775, , , , , , ,0.187,-0.731,-99.591
 12:19:39.135,eb:33:2e:f9:57:b5, 2015-01-01 00:05:56.280,0.076,0.016,1.069,12.695,19.47,-8.301, , , , , , ,0.247,-0.637,-99.624
 12:19:39.135,eb:33:2e:f9:57:b5, 2015-01-01 00:05:56.280,0.062,-0.011,1.148,13.428,24.536,-9.338, , , , , , ,0.313,-0.527,-99.673
 12:19:39.180,eb:33:2e:f9:57:b5, 2015-01-01 00:05:56.280,0.057,0.013,1.083,14.282,27.1,-10.559, , , , , , ,0.385,-0.396,-99.723
 12:19:39.180,eb:33:2e:f9:57:b5, 2015-01-01 00:05:56.280,0.042,0.02,1.067,14.465,29.114,-11.78, , , , , , ,0.456,-0.253,-99.778
 12:19:39.180,eb:33:2e:f9:57:b5, 2015-01-01 00:05:56.280,0.012,0.012,1.047,15.137,29.907,-12.634, , , , , , ,0.533,-0.104,-99.838
 12:19:39.180,eb:33:2e:f9:57:b5, 2015-01-01 00:05:56.280,0.04,-0.008,1.055,16.541,29.114,-12.573, , , , , , ,0.61,0.038,-99.899
 12:19:39.180,eb:33:2e:f9:57:b5, 2015-01-01 00:05:56.280,0.135,-0.024,1.116,19.226,27.954,-12.207, , , , , , ,0.703,0.181,-99.959
 12:19:39.180,eb:33:2e:f9:57:b5, 2015-01-01 00:05:56.280,0.12,0.101,0.981,21.484,22.217,-13.916, , , , , , ,0.807,0.308,-100.025
 12:19:39.180,eb:33:2e:f9:57:b5, 2015-01-01 00:05:56.280,-0.097,0.059,1.116,21.729,26.062,-16.724, , , , , , ,0.912,0.423,-100.102
 12:19:39.180,eb:33:2e:f9:57:b5, 2015-01-01 00:05:56.280,-0.016,-0.205,1.393,27.71,31.433,-14.526, , , , , , ,1.038,0.571,-100.179
 12:19:39.202,eb:33:2e:f9:57:b5, 2015-01-01 00:05:56.280,-0.041,-0.107,1.273,33.997,32.104,-13.977, , , , , , ,1.192,0.736,-100.245
 12:19:39.202,eb:33:2e:f9:57:b5, 2015-01-01 00:05:56.280,-0.031,-0.051,1.109,36.987,30.273,-13.306, , , , , , ,1.373,0.89,-100.311
 12:19:39.202,eb:33:2e:f9:57:b5, 2015-01-01 00:05:56.280,0,-0.063,1.204,40.161,31.311,-12.573, , , , , , ,1.566,1.044,-100.371
 12:19:39.202,eb:33:2e:f9:57:b5, 2015-01-01 00:05:56.280,0.006,-0.053,1.214,43.701,33.264,-12.268, , , , , , ,1.774,1.208,-100.426
 12:19:39.202,eb:33:2e:f9:57:b5, 2015-01-01 00:05:56.280,-0.011,-0.016,1.172,46.936,33.813,-12.39, , , , , , ,2.005,1.379,-100.486
 12:19:39.202,eb:33:2e:f9:57:b5, 2015-01-01 00:05:56.280,-0.022,-0.042,1.209,51.27,34.058,-12.451, , , , , , ,2.247,1.549,-100.541
 12:19:39.202,eb:33:2e:f9:57:b5, 2015-01-01 00:05:56.280,-0.029,-0.049,1.225,56.03,34.058,-11.902, , , , , , ,2.516,1.725,-100.596
 12:19:39.202,eb:33:2e:f9:57:b5, 2015-01-01 00:05:56.280,-0.03,-0.033,1.188,59.937,33.386,-11.414, , , , , , ,2.807,1.895,-100.646
 12:19:39.248,eb:33:2e:f9:57:b5, 2015-01-01 00:05:56.280,-0.021,-0.033,1.19,63.904,32.898,-11.23, , , , , , ,3.115,2.06,-100.695
 12:19:39.248,eb:33:2e:f9:57:b5, 2015-01-01 00:05:56.280,-0.01,-0.048,1.259,68.604,33.752,-11.047, , , , , , ,3.45,2.23,-100.739
 12:19:39.248,eb:33:2e:f9:57:b5, 2015-01-01 00:05:56.280,-0.014,-0.037,1.25,73.242,34.912,-10.803, , , , , , ,3.801,2.406,-100.783
 12:19:39.248,eb:33:2e:f9:57:b5, 2015-01-01 00:05:56.280,-0.023,-0.022,1.228,77.332,35.95,-10.62, , , , , , ,4.18,2.587,-100.827
 12:19:39.248,eb:33:2e:f9:57:b5, 2015-01-01 00:05:56.280,-0.008,-0.022,1.233,81.604,36.438,-10.437, , , , , , ,4.576,2.769,-100.865
 12:19:39.248,eb:33:2e:f9:57:b5, 2015-01-01 00:05:56.280,0,-0.021,1.284,86.792,37.048,-10.315, , , , , , ,4.999,2.961,-100.898
 12:19:39.248,eb:33:2e:f9:57:b5, 2015-01-01 00:05:56.280,0.019,-0.008,1.286,91.675,37.842,-10.437, , , , , , ,5.444,3.148,-100.937
 12:19:39.248,eb:33:2e:f9:57:b5, 2015-01-01 00:05:56.280,0.055,-0.007,1.302,96.863,38.879,-10.254, , , , , , ,5.916,3.345,-100.97
 12:19:39.291,eb:33:2e:f9:57:b5, 2015-01-01 00:05:56.570,0.073,0.027,1.324,103.088,39.368,-11.047, , , , , , ,6.416,3.543,-100.997
 12:19:39.291,eb:33:2e:f9:57:b5, 2015-01-01 00:05:56.570,0.06,0.02,1.388,110.657,40.955,-12.817, , , , , , ,6.954,3.752,-101.036
 12:19:39.291,eb:33:2e:f9:57:b5, 2015-01-01 00:05:56.570,0.083,0.005,1.416,118.591,42.908,-14.16, , , , , , ,7.526,3.972,-101.08
 12:19:39.291,eb:33:2e:f9:57:b5, 2015-01-01 00:05:56.570,0.103,0.025,1.414,126.282,45.654,-15.991, , , , , , ,8.141,4.197,-101.124
 12:19:39.291,eb:33:2e:f9:57:b5, 2015-01-01 00:05:56.570,0.108,0.027,1.47,136.597,49.194,-18.86, , , , , , ,8.795,4.444,-101.179
 12:19:39.291,eb:33:2e:f9:57:b5, 2015-01-01 00:05:56.570,0.093,0.019,1.471,144.531,53.894,-20.691, , , , , , ,9.498,4.719,-101.234
 12:19:39.291,eb:33:2e:f9:57:b5, 2015-01-01 00:05:56.570,0.083,0.019,1.446,151.062,58.289,-21.79, , , , , , ,10.239,5.015,-101.294
 12:19:39.291,eb:33:2e:f9:57:b5, 2015-01-01 00:05:56.570,0.07,0.004,1.48,156.738,64.453,-21.729, , , , , , ,11.003,5.339,-101.343
 12:19:39.337,eb:33:2e:f9:57:b5, 2015-01-01 00:05:56.570,0.066,-0.006,1.477,164.429,68.848,-22.644, , , , , , ,11.805,5.691,-101.387
 12:19:39.337,eb:33:2e:f9:57:b5, 2015-01-01 00:05:56.570,0.049,-0.014,1.506,171.936,73.425,-23.376, , , , , , ,12.645,6.064,-101.426
 12:19:39.337,eb:33:2e:f9:57:b5, 2015-01-01 00:05:56.570,0.043,-0.024,1.512,179.016,78.552,-23.499, , , , , , ,13.524,6.465,-101.453
 12:19:39.337,eb:33:2e:f9:57:b5, 2015-01-01 00:05:56.570,0.015,-0.031,1.501,187.195,81.909,-22.888, , , , , , ,14.442,6.883,-101.464
 12:19:39.337,eb:33:2e:f9:57:b5, 2015-01-01 00:05:56.570,-0.024,-0.056,1.508,196.045,83.557,-22.4, , , , , , ,15.403,7.311,-101.47
 12:19:39.337,eb:33:2e:f9:57:b5, 2015-01-01 00:05:56.570,-0.029,-0.092,1.56,206.177,85.815,-21.667, , , , , , ,16.414,7.751,-101.459
 12:19:39.337,eb:33:2e:f9:57:b5, 2015-01-01 00:05:56.570,-0.001,-0.109,1.64,217.224,88.379,-21.118, , , , , , ,17.479,8.196,-101.437
 12:19:39.337,eb:33:2e:f9:57:b5, 2015-01-01 00:05:56.570,0.116,-0.083,1.746,229.37,92.102,-22.034, , , , , , ,18.605,8.657,-101.398
 12:19:39.381,eb:33:2e:f9:57:b5, 2015-01-01 00:05:56.570,0.227,-0.009,1.767,242.249,95.642,-23.865, , , , , , ,19.797,9.141,-101.349
 12:19:39.381,eb:33:2e:f9:57:b5, 2015-01-01 00:05:56.570,0.268,0.093,1.623,255.981,94.543,-29.785, , , , , , ,21.061,9.635,-101.31
 12:19:39.381,eb:33:2e:f9:57:b5, 2015-01-01 00:05:56.570,0.171,0.049,1.667,268.005,95.703,-35.461, , , , , , ,22.379,10.135,-101.288
 12:19:39.382,eb:33:2e:f9:57:b5, 2015-01-01 00:05:56.570,0.08,-0.025,1.913,275.635,105.408,-37.598, , , , , , ,23.747,10.673,-101.266
 12:19:39.382,eb:33:2e:f9:57:b5, 2015-01-01 00:05:56.570,0.188,-0.054,2.175,282.837,119.324,-37.659, , , , , , ,25.153,11.266,-101.201
 12:19:39.382,eb:33:2e:f9:57:b5, 2015-01-01 00:05:56.570,0.228,-0.056,2.294,297.791,125.366,-39.246, , , , , , ,26.631,11.909,-101.102
 12:19:39.383,eb:33:2e:f9:57:b5, 2015-01-01 00:05:56.570,0.35,0.152,2.3,317.261,118.042,-47.974, , , , , , ,28.196,12.552,-101.014
 12:19:39.384,eb:33:2e:f9:57:b5, 2015-01-01 00:05:56.570,0.13,0.039,2.475,331.421,117.554,-52.368, , , , , , ,29.839,13.184,-100.953
 12:19:39.404,eb:33:2e:f9:57:b5, 2015-01-01 00:05:56.570,0.226,0.139,2.559,344.604,112.671,-55.908, , , , , , ,31.553,13.815,-100.893
 12:19:39.404,eb:33:2e:f9:57:b5, 2015-01-01 00:05:56.570,0.427,0.207,2.857,351.807,120.911,-56.274, , , , , , ,33.316,14.458,-100.816
 12:19:39.404,eb:33:2e:f9:57:b5, 2015-01-01 00:05:56.570,0.479,-0.058,2.711,358.032,136.719,-57.922, , , , , , ,35.129,15.156,-100.679
 12:19:39.404,eb:33:2e:f9:57:b5, 2015-01-01 00:05:56.570,0.519,-0.042,2.53,365.54,138.794,-60.486, , , , , , ,36.985,15.897,-100.503
 12:19:39.404,eb:33:2e:f9:57:b5, 2015-01-01 00:05:56.570,0.629,0.117,2.566,371.155,132.019,-67.078, , , , , , ,38.875,16.622,-100.344
 12:19:39.404,eb:33:2e:f9:57:b5, 2015-01-01 00:05:56.570,0.653,-0.069,2.802,367.371,143.555,-72.449, , , , , , ,40.776,17.375,-100.168
 12:19:39.404,eb:33:2e:f9:57:b5, 2015-01-01 00:05:56.570,0.754,-0.303,3.01,359.863,166.504,-76.05, , , , , , ,42.671,18.21,-99.91
 12:19:39.404,eb:33:2e:f9:57:b5, 2015-01-01 00:05:56.570,0.653,-0.567,2.958,353.271,194.519,-75.867, , , , , , ,44.561,19.133,-99.536
 12:19:39.451,eb:33:2e:f9:57:b5, 2015-01-01 00:05:56.570,0.823,-0.521,2.913,354.98,216.492,-74.341, , , , , , ,46.5,20.127,-99.025
 12:19:39.451,eb:33:2e:f9:57:b5, 2015-01-01 00:05:56.570,1.044,-0.644,2.859,364.197,231.14,-78.247, , , , , , ,48.516,21.171,-98.41
 12:19:39.451,eb:33:2e:f9:57:b5, 2015-01-01 00:05:56.570,1.399,-1.087,2.363,376.709,231.384,-79.285, , , , , , ,50.625,22.231,-97.729
 12:19:39.451,eb:33:2e:f9:57:b5, 2015-01-01 00:05:56.570,1.759,-1.293,2.14,396.118,238.403,-91.431, , , , , , ,52.828,23.291,-97.031
 12:19:39.451,eb:33:2e:f9:57:b5, 2015-01-01 00:05:56.570,1.562,-1.358,1.516,408.936,253.784,-108.521, , , , , , ,55.162,24.423,-96.257
 12:19:39.451,eb:33:2e:f9:57:b5, 2015-01-01 00:05:56.570,0.307,-0.792,-0.238,379.578,241.15,-119.69, , , , , , ,57.491,25.598,-95.471
 12:19:39.451,eb:33:2e:f9:57:b5, 2015-01-01 00:05:56.570,-0.076,0.191,-2.834,258.667,157.471,-118.896, , , , , , ,59.31,26.631,-94.878
 12:19:39.451,eb:33:2e:f9:57:b5, 2015-01-01 00:05:56.570,0.136,0.017,-2.526,155.823,65.552,-113.586, , , , , , ,60.359,27.383,-94.713
 12:19:39.494,eb:33:2e:f9:57:b5, 2015-01-01 00:05:56.570,0.477,-0.125,-1.17,67.993,-14.465,-107.178, , , , , , ,60.76,27.9,-94.944
 12:19:39.494,eb:33:2e:f9:57:b5, 2015-01-01 00:05:56.570,0.567,-0.247,0.114,-2.136,-57.495,-99.854, , , , , , ,60.645,28.24,-95.444
 12:19:39.494,eb:33:2e:f9:57:b5, 2015-01-01 00:05:56.570,0.587,-0.515,0.823,-52.917,-69.885,-90.515, , , , , , ,60.189,28.488,-96.037
 12:19:39.494,eb:33:2e:f9:57:b5, 2015-01-01 00:05:56.570,0.66,-0.778,1.153,-86.975,-60.73,-80.2, , , , , , ,59.535,28.685,-96.614
 12:19:39.494,eb:33:2e:f9:57:b5, 2015-01-01 00:05:56.570,0.739,-0.871,1.305,-107.849,-39.978,-71.228, , , , , , ,58.81,28.878,-97.07
 12:19:39.494,eb:33:2e:f9:57:b5, 2015-01-01 00:05:56.570,0.666,-0.829,1.357,-117.92,-13,-65.735, , , , , , ,58.085,29.103,-97.388
 12:19:39.495,eb:33:2e:f9:57:b5, 2015-01-01 00:05:56.570,0.553,-0.715,1.204,-120.422,8.118,-61.768, , , , , , ,57.387,29.372,-97.581
 12:19:39.495,eb:33:2e:f9:57:b5, 2015-01-01 00:05:56.570,0.438,-0.593,0.985,-118.958,21.179,-58.167, , , , , , ,56.728,29.663,-97.696
 12:19:39.542,eb:33:2e:f9:57:b5, 2015-01-01 00:05:56.570,0.369,-0.517,0.73,-115.906,25.696,-54.382, , , , , , ,56.113,29.965,-97.756
 12:19:39.542,eb:33:2e:f9:57:b5, 2015-01-01 00:05:56.570,0.343,-0.47,0.483,-113.159,22.461,-50.537, , , , , , ,55.514,30.251,-97.811
 12:19:39.542,eb:33:2e:f9:57:b5, 2015-01-01 00:05:56.570,0.335,-0.438,0.273,-111.572,12.39,-46.997, , , , , , ,54.91,30.498,-97.888
 12:19:39.542,eb:33:2e:f9:57:b5, 2015-01-01 00:05:56.570,0.327,-0.412,0.11,-111.633,-2.502,-43.823, , , , , , ,54.272,30.685,-98.031
 12:19:39.542,eb:33:2e:f9:57:b5, 2015-01-01 00:05:56.570,0.319,-0.397,-0.019,-113.281,-21.667,-40.955, , , , , , ,53.602,30.811,-98.24
 12:19:39.542,eb:33:2e:f9:57:b5, 2015-01-01 00:05:56.570,0.332,-0.394,-0.099,-116.699,-43.152,-37.842, , , , , , ,52.872,30.866,-98.536
 12:19:39.542,eb:33:2e:f9:57:b5, 2015-01-01 00:05:56.570,0.347,-0.394,-0.108,-121.704,-64.27,-35.034, , , , , , ,52.075,30.839,-98.926
 12:19:39.542,eb:33:2e:f9:57:b5, 2015-01-01 00:05:56.570,0.369,-0.397,-0.059,-127.747,-83.923,-32.043, , , , , , ,51.196,30.729,-99.399
 12:19:39.584,eb:33:2e:f9:57:b5, 2015-01-01 00:05:56.885,0.386,-0.403,0.025,-135.01,-100.708,-28.809, , , , , , ,50.268,30.547,-99.937
 12:19:39.584,eb:33:2e:f9:57:b5, 2015-01-01 00:05:56.885,0.401,-0.405,0.112,-143.433,-114.197,-25.452, , , , , , ,49.268,30.295,-100.519
 12:19:39.584,eb:33:2e:f9:57:b5, 2015-01-01 00:05:56.885,0.41,-0.409,0.196,-152.954,-124.451,-21.484, , , , , , ,48.214,29.987,-101.129
 12:19:39.584,eb:33:2e:f9:57:b5, 2015-01-01 00:05:56.885,0.417,-0.411,0.269,-163.574,-132.324,-17.212, , , , , , ,47.098,29.614,-101.766
 12:19:39.584,eb:33:2e:f9:57:b5, 2015-01-01 00:05:56.885,0.42,-0.406,0.335,-174.866,-138.123,-12.756, , , , , , ,45.939,29.196,-102.387
 12:19:39.584,eb:33:2e:f9:57:b5, 2015-01-01 00:05:56.885,0.424,-0.39,0.39,-186.584,-142.639,-8.24, , , , , , ,44.731,28.735,-103.002
 12:19:39.584,eb:33:2e:f9:57:b5, 2015-01-01 00:05:56.885,0.433,-0.366,0.435,-198.181,-146.729,-3.906, , , , , , ,43.478,28.235,-103.601
 12:19:39.584,eb:33:2e:f9:57:b5, 2015-01-01 00:05:56.885,0.45,-0.338,0.484,-208.74,-150.391,-0.061, , , , , , ,42.171,27.686,-104.189
 12:19:39.607,eb:33:2e:f9:57:b5, 2015-01-01 00:05:56.885,0.47,-0.303,0.536,-217.834,-153.87,3.174, , , , , , ,40.836,27.109,-104.749
 12:19:39.607,eb:33:2e:f9:57:b5, 2015-01-01 00:05:56.885,0.492,-0.259,0.59,-224.915,-157.288,5.615, , , , , , ,39.479,26.499,-105.293
 12:19:39.607,eb:33:2e:f9:57:b5, 2015-01-01 00:05:56.885,0.508,-0.213,0.64,-229.919,-161.011,7.141, , , , , , ,38.106,25.856,-105.82
 12:19:39.607,eb:33:2e:f9:57:b5, 2015-01-01 00:05:56.885,0.515,-0.169,0.679,-233.398,-165.771,7.69, , , , , , ,36.711,25.17,-106.348
 12:19:39.607,eb:33:2e:f9:57:b5, 2015-01-01 00:05:56.885,0.524,-0.125,0.687,-236.084,-172.241,7.446, , , , , , ,35.321,24.461,-106.859
 12:19:39.607,eb:33:2e:f9:57:b5, 2015-01-01 00:05:56.885,0.531,-0.073,0.687,-238.525,-180.115,6.47, , , , , , ,33.92,23.714,-107.38
 12:19:39.607,eb:33:2e:f9:57:b5, 2015-01-01 00:05:56.885,0.531,-0.033,0.702,-240.845,-188.965,5.188, , , , , , ,32.509,22.923,-107.908
 12:19:39.607,eb:33:2e:f9:57:b5, 2015-01-01 00:05:56.885,0.527,0,0.732,-242.981,-198.792,3.601, , , , , , ,31.08,22.077,-108.452
 12:19:39.652,eb:33:2e:f9:57:b5, 2015-01-01 00:05:56.885,0.521,0.038,0.781,-245.3,-211.609,1.221, , , , , , ,29.658,21.182,-109.001
 12:19:39.652,eb:33:2e:f9:57:b5, 2015-01-01 00:05:56.885,0.505,0.072,0.835,-246.765,-222.961,-0.732, , , , , , ,28.224,20.22,-109.561
 12:19:39.652,eb:33:2e:f9:57:b5, 2015-01-01 00:05:56.885,0.485,0.098,0.902,-247.559,-234.192,-2.563, , , , , , ,26.796,19.21,-110.138
 12:19:39.652,eb:33:2e:f9:57:b5, 2015-01-01 00:05:56.885,0.46,0.11,0.987,-247.253,-244.69,-4.15, , , , , , ,25.362,18.122,-110.72
 12:19:39.652,eb:33:2e:f9:57:b5, 2015-01-01 00:05:56.885,0.436,0.119,1.089,-246.155,-253.296,-4.822, , , , , , ,23.956,16.996,-111.286
 12:19:39.652,eb:33:2e:f9:57:b5, 2015-01-01 00:05:56.885,0.389,0.129,1.207,-244.324,-258.667,-4.578, , , , , , ,22.571,15.826,-111.841
 12:19:39.652,eb:33:2e:f9:57:b5, 2015-01-01 00:05:56.885,0.333,0.135,1.322,-242.065,-262.573,-2.747, , , , , , ,21.22,14.617,-112.363
 12:19:39.652,eb:33:2e:f9:57:b5, 2015-01-01 00:05:56.885,0.179,0.124,1.413,-238.464,-259.46,5.493, , , , , , ,19.891,13.376,-112.846
 12:19:39.696,eb:33:2e:f9:57:b5, 2015-01-01 00:05:56.885,0.235,0.08,1.524,-239.99,-257.08,10.803, , , , , , ,18.6,12.151,-113.253
 12:19:39.696,eb:33:2e:f9:57:b5, 2015-01-01 00:05:56.885,0.187,0.129,1.579,-240.54,-252.502,16.663, , , , , , ,17.331,10.92,-113.582
 12:19:39.696,eb:33:2e:f9:57:b5, 2015-01-01 00:05:56.885,0.118,0.117,1.543,-240.295,-251.526,23.132, , , , , , ,16.084,9.684,-113.851
 12:19:39.696,eb:33:2e:f9:57:b5, 2015-01-01 00:05:56.885,0.101,0.082,1.549,-240.845,-249.817,31.799, , , , , , ,14.837,8.427,-114.055
 12:19:39.696,eb:33:2e:f9:57:b5, 2015-01-01 00:05:56.885,0.115,0.033,1.577,-241.211,-247.681,41.321, , , , , , ,13.612,7.174,-114.181
 12:19:39.696,eb:33:2e:f9:57:b5, 2015-01-01 00:05:56.885,0.103,-0.005,1.628,-240.417,-244.629,51.27, , , , , , ,12.404,5.922,-114.225
 12:19:39.696,eb:33:2e:f9:57:b5, 2015-01-01 00:05:56.885,0.097,-0.044,1.656,-238.464,-241.15,61.035, , , , , , ,11.206,4.675,-114.197
 12:19:39.696,eb:33:2e:f9:57:b5, 2015-01-01 00:05:56.885,0.092,-0.056,1.675,-235.962,-238.403,70.862, , , , , , ,10.02,3.422,-114.088
 12:19:39.743,eb:33:2e:f9:57:b5, 2015-01-01 00:05:56.885,0.09,-0.046,1.688,-232.3,-237.549,79.468, , , , , , ,8.855,2.186,-113.906
 12:19:39.743,eb:33:2e:f9:57:b5, 2015-01-01 00:05:56.885,0.104,-0.038,1.704,-226.99,-239.502,87.463, , , , , , ,7.718,0.945,-113.665
 12:19:39.743,eb:33:2e:f9:57:b5, 2015-01-01 00:05:56.885,0.126,-0.029,1.733,-221.802,-241.882,94.421, , , , , , ,6.597,-0.302,-113.357
 12:19:39.743,eb:33:2e:f9:57:b5, 2015-01-01 00:05:56.885,0.146,-0.002,1.774,-216.98,-244.446,99.854, , , , , , ,5.488,-1.577,-113
 12:19:39.743,eb:33:2e:f9:57:b5, 2015-01-01 00:05:56.885,0.152,0.032,1.816,-212.952,-247.07,103.455, , , , , , ,4.4,-2.845,-112.599
 12:19:39.743,eb:33:2e:f9:57:b5, 2015-01-01 00:05:56.885,0.145,0.077,1.868,-209.717,-249.268,105.53, , , , , , ,3.318,-4.125,-112.159
 12:19:39.743,eb:33:2e:f9:57:b5, 2015-01-01 00:05:56.885,0.131,0.132,1.929,-207.031,-251.038,106.079, , , , , , ,2.236,-5.4,-111.687
 12:19:39.744,eb:33:2e:f9:57:b5, 2015-01-01 00:05:56.885,0.111,0.192,2.004,-204.712,-251.404,105.347, , , , , , ,1.143,-6.685,-111.193
 12:19:39.764,eb:33:2e:f9:57:b5, 2015-01-01 00:05:56.885,0.081,0.257,2.084,-202.759,-250.305,103.638, , , , , , ,0.06,-7.949,-110.682
 12:19:39.764,eb:33:2e:f9:57:b5, 2015-01-01 00:05:56.885,0.016,0.331,2.159,-201.05,-247.925,100.952, , , , , , ,-1.022,-9.185,-110.154
 12:19:39.764,eb:33:2e:f9:57:b5, 2015-01-01 00:05:56.885,-0.083,0.416,2.207,-199.524,-245.361,97.473, , , , , , ,-2.115,-10.404,-109.616
 12:19:39.764,eb:33:2e:f9:57:b5, 2015-01-01 00:05:56.885,-0.189,0.513,2.231,-197.815,-242.371,93.262, , , , , , ,-3.224,-11.613,-109.078
 12:19:39.764,eb:33:2e:f9:57:b5, 2015-01-01 00:05:56.885,-0.284,0.623,2.263,-196.045,-239.197,89.05, , , , , , ,-4.323,-12.783,-108.534
 12:19:39.764,eb:33:2e:f9:57:b5, 2015-01-01 00:05:56.885,-0.383,0.758,2.302,-194.153,-234.07,84.29, , , , , , ,-5.422,-13.925,-107.99
 12:19:39.764,eb:33:2e:f9:57:b5, 2015-01-01 00:05:56.885,-0.482,0.91,2.375,-191.223,-226.746,79.59, , , , , , ,-6.52,-15.024,-107.446
 12:19:39.764,eb:33:2e:f9:57:b5, 2015-01-01 00:05:56.885,-0.562,1.083,2.447,-187.012,-217.224,74.89, , , , , , ,-7.625,-16.089,-106.908
 12:19:39.808,eb:33:2e:f9:57:b5, 2015-01-01 00:05:56.885,-0.599,1.285,2.543,-181.519,-205.444,70.007, , , , , , ,-8.696,-17.078,-106.381
 12:19:39.808,eb:33:2e:f9:57:b5, 2015-01-01 00:05:56.885,-0.661,1.491,2.656,-176.392,-189.148,65.796, , , , , , ,-9.739,-17.996,-105.87
 12:19:39.808,eb:33:2e:f9:57:b5, 2015-01-01 00:05:56.885,-0.708,1.713,2.709,-171.326,-162.598,62.012, , , , , , ,-10.767,-18.798,-105.375
 12:19:39.808,eb:33:2e:f9:57:b5, 2015-01-01 00:05:56.885,-0.735,1.876,2.629,-167.053,-136.414,60.364, , , , , , ,-11.772,-19.468,-104.903
 12:19:39.808,eb:33:2e:f9:57:b5, 2015-01-01 00:05:56.885,-0.756,2.03,2.474,-160.461,-109.741,59.326, , , , , , ,-12.739,-19.99,-104.458
 12:19:39.808,eb:33:2e:f9:57:b5, 2015-01-01 00:05:56.885,-0.786,2.18,2.295,-149.231,-86.487,57.922, , , , , , ,-13.656,-20.391,-104.041
 12:19:39.808,eb:33:2e:f9:57:b5, 2015-01-01 00:05:56.885,-0.843,2.324,2.099,-132.568,-69.641,55.969, , , , , , ,-14.491,-20.687,-103.645
 12:19:39.808,eb:33:2e:f9:57:b5, 2015-01-01 00:05:56.885,-0.924,2.44,1.881,-111.206,-61.646,53.467, , , , , , ,-15.233,-20.94,-103.277
 12:19:39.855,eb:33:2e:f9:57:b5, 2015-01-01 00:05:56.885,-1.013,2.507,1.643,-86.792,-62.744,51.147, , , , , , ,-15.848,-21.165,-102.92
 12:19:39.855,eb:33:2e:f9:57:b5, 2015-01-01 00:05:56.885,-1.116,2.537,1.398,-61.89,-71.35,49.561, , , , , , ,-16.337,-21.418,-102.563
 12:19:39.855,eb:33:2e:f9:57:b5, 2015-01-01 00:05:56.885,-1.245,2.539,1.165,-38.879,-85.083,49.194, , , , , , ,-16.716,-21.731,-102.184
 12:19:39.855,eb:33:2e:f9:57:b5, 2015-01-01 00:05:56.885,-1.359,2.535,1.01,-18.616,-100.952,50.354, , , , , , ,-17.001,-22.121,-101.783
 12:19:39.855,eb:33:2e:f9:57:b5, 2015-01-01 00:05:56.885,-1.451,2.5,1.053,-1.038,-112.244,53.772, , , , , , ,-17.21,-22.56,-101.338
 12:19:39.855,eb:33:2e:f9:57:b5, 2015-01-01 00:05:56.885,-1.548,2.411,1.248,14.771,-113.159,59.814, , , , , , ,-17.353,-23.016,-100.86
 12:19:39.855,eb:33:2e:f9:57:b5, 2015-01-01 00:05:56.885,-1.621,2.288,1.457,29.48,-102.905,69.214, , , , , , ,-17.441,-23.434,-100.344
 12:19:39.855,eb:33:2e:f9:57:b5, 2015-01-01 00:05:56.885,-1.592,2.16,1.65,43.152,-82.214,81.116, , , , , , ,-17.474,-23.763,-99.8
 12:19:39.898,eb:33:2e:f9:57:b5, 2015-01-01 00:05:57.195,-0.677,2.067,1.903,81.604,-47.485,57.312, , , , , , ,-17.397,-23.961,-99.272
 12:19:39.898,eb:33:2e:f9:57:b5, 2015-01-01 00:05:57.195,-3.82,0.921,10.17,172.729,290.344,105.835, , , , , , ,-16.694,-23.049,-99.174
 12:19:39.898,eb:33:2e:f9:57:b5, 2015-01-01 00:05:57.195,-0.032,2.165,3.107,157.227,381.348,164.856, , , , , , ,-15.941,-21.215,-98.976
 12:19:39.898,eb:33:2e:f9:57:b5, 2015-01-01 00:05:57.195,1.64,1.687,1.033,128.662,479.98,140.808, , , , , , ,-15.315,-18.847,-98.8
 12:19:39.898,eb:33:2e:f9:57:b5, 2015-01-01 00:05:57.195,0.599,-0.31,0.766,127.625,509.277,138.245, , , , , , ,-14.683,-16.249,-98.784
 12:19:39.898,eb:33:2e:f9:57:b5, 2015-01-01 00:05:57.195,-0.266,-0.243,1.042,135.864,498.474,143.555, , , , , , ,-14.041,-13.585,-98.745
 12:19:39.898,eb:33:2e:f9:57:b5, 2015-01-01 00:05:57.195,-0.965,-2.179,0.158,182.922,391.602,158.691, , , , , , ,-13.282,-11.266,-98.503
 12:19:39.899,eb:33:2e:f9:57:b5, 2015-01-01 00:05:57.195,-1.275,-2.011,0.067,238.953,279.48,147.034, , , , , , ,-12.266,-9.514,-98.108
 12:19:39.943,eb:33:2e:f9:57:b5, 2015-01-01 00:05:57.195,-1.214,-0.987,0.336,273.01,200.439,120.178, , , , , , ,-11.025,-8.267,-97.696
 12:19:39.943,eb:33:2e:f9:57:b5, 2015-01-01 00:05:57.195,-0.966,0.228,1.172,267.395,169.373,94.604, , , , , , ,-9.701,-7.3,-97.339
 12:19:39.943,eb:33:2e:f9:57:b5, 2015-01-01 00:05:57.195,-0.868,0.617,1.362,239.624,154.724,75.378, , , , , , ,-8.487,-6.432,-97.053
 12:19:39.943,eb:33:2e:f9:57:b5, 2015-01-01 00:05:57.195,-0.788,0.533,1.162,213.501,127.136,55.664, , , , , , ,-7.394,-5.696,-96.828
 12:19:39.943,eb:33:2e:f9:57:b5, 2015-01-01 00:05:57.195,-0.419,0.316,1.047,189.026,86.243,40.894, , , , , , ,-6.411,-5.158,-96.663
 12:19:39.943,eb:33:2e:f9:57:b5, 2015-01-01 00:05:57.195,-0.162,0.536,1.279,157.959,62.317,33.813, , , , , , ,-5.576,-4.796,-96.515
 12:19:39.943,eb:33:2e:f9:57:b5, 2015-01-01 00:05:57.195,-0.057,0.459,1.318,129.15,59.143,29.602, , , , , , ,-4.878,-4.488,-96.394
 12:19:39.943,eb:33:2e:f9:57:b5, 2015-01-01 00:05:57.195,-0.035,0.245,1.166,106.873,62.561,32.898, , , , , , ,-4.312,-4.169,-96.262
 12:19:39.967,eb:33:2e:f9:57:b5, 2015-01-01 00:05:57.195,0.068,0.117,1.036,87.463,57.19,41.077, , , , , , ,-3.851,-3.851,-96.092
 12:19:39.967,eb:33:2e:f9:57:b5, 2015-01-01 00:05:57.195,0.017,0.104,1.062,74.341,57.739,45.837, , , , , , ,-3.466,-3.554,-95.889
 12:19:39.967,eb:33:2e:f9:57:b5, 2015-01-01 00:05:57.195,-0.146,0.153,1.039,66.101,57.861,42.053, , , , , , ,-3.137,-3.252,-95.685
 12:19:39.967,eb:33:2e:f9:57:b5, 2015-01-01 00:05:57.195,-0.235,0.226,0.944,56.702,51.758,30.64, , , , , , ,-2.834,-2.966,-95.521
 12:19:39.967,eb:33:2e:f9:57:b5, 2015-01-01 00:05:57.195,-0.021,0.376,0.841,41.26,33.02,23.499, , , , , , ,-2.609,-2.763,-95.4
 12:19:39.967,eb:33:2e:f9:57:b5, 2015-01-01 00:05:57.195,-0.083,0.289,0.949,29.663,26.978,18.372, , , , , , ,-2.439,-2.615,-95.306
 12:19:39.968,eb:33:2e:f9:57:b5, 2015-01-01 00:05:57.195,-0.076,0.146,0.905,18.86,21.24,20.874, , , , , , ,-2.329,-2.494,-95.213
 12:19:39.968,eb:33:2e:f9:57:b5, 2015-01-01 00:05:57.195,-0.084,0.115,0.918,11.658,15.991,20.508, , , , , , ,-2.263,-2.395,-95.114
 12:19:40.011,eb:33:2e:f9:57:b5, 2015-01-01 00:05:57.195,-0.102,0.08,0.926,8.606,10.071,14.771, , , , , , ,-2.219,-2.329,-95.032
 12:19:40.011,eb:33:2e:f9:57:b5, 2015-01-01 00:05:57.195,-0.039,0.023,0.918,8.484,3.174,7.507, , , , , , ,-2.175,-2.302,-94.977
 12:19:40.011,eb:33:2e:f9:57:b5, 2015-01-01 00:05:57.195,0.019,-0.006,0.954,8.545,-1.099,2.258, , , , , , ,-2.137,-2.296,-94.96
 12:19:40.011,eb:33:2e:f9:57:b5, 2015-01-01 00:05:57.195,0.093,-0.019,0.992,8.057,-2.014,0.977, , , , , , ,-2.093,-2.307,-94.955
 12:19:40.011,eb:33:2e:f9:57:b5, 2015-01-01 00:05:57.195,0.067,-0.016,1.035,7.202,0.61,1.404, , , , , , ,-2.054,-2.313,-94.944
 12:19:40.011,eb:33:2e:f9:57:b5, 2015-01-01 00:05:57.195,0.047,-0.02,1.02,7.08,2.563,0.732, , , , , , ,-2.021,-2.302,-94.944
 12:19:40.011,eb:33:2e:f9:57:b5, 2015-01-01 00:05:57.195,0.052,-0.036,1.013,7.751,3.357,-0.732, , , , , , ,-1.983,-2.285,-94.944
 12:19:40.011,eb:33:2e:f9:57:b5, 2015-01-01 00:05:57.195,0.067,-0.032,1.015,8.179,3.967,-2.014, , , , , , ,-1.939,-2.269,-94.955
 12:19:40.079,eb:33:2e:f9:57:b5, 2015-01-01 00:05:57.195,0.08,-0.027,1.024,7.874,5.249,-1.953, , , , , , ,-1.901,-2.247,-94.966
 12:19:40.079,eb:33:2e:f9:57:b5, 2015-01-01 00:05:57.195,0.069,-0.031,1.029,7.751,7.69,-1.648, , , , , , ,-1.862,-2.214,-94.977
 12:19:40.079,eb:33:2e:f9:57:b5, 2015-01-01 00:05:57.195,0.064,-0.033,1.023,7.935,9.277,-1.526, , , , , , ,-1.824,-2.17,-94.988
 12:19:40.079,eb:33:2e:f9:57:b5, 2015-01-01 00:05:57.195,0.046,-0.03,1.014,7.751,10.803,-1.404, , , , , , ,-1.78,-2.12,-94.993
 12:19:40.079,eb:33:2e:f9:57:b5, 2015-01-01 00:05:57.195,0.031,-0.021,1.001,7.385,11.292,-1.16, , , , , , ,-1.741,-2.065,-95.004
 12:19:40.079,eb:33:2e:f9:57:b5, 2015-01-01 00:05:57.195,0.021,-0.021,0.995,7.141,11.353,-1.526, , , , , , ,-1.708,-2.005,-95.01
 12:19:40.079,eb:33:2e:f9:57:b5, 2015-01-01 00:05:57.195,0.011,-0.031,0.995,7.202,10.864,-1.892, , , , , , ,-1.67,-1.95,-95.021
 12:19:40.079,eb:33:2e:f9:57:b5, 2015-01-01 00:05:57.195,0.013,-0.037,0.997,7.446,9.888,-2.502, , , , , , ,-1.631,-1.901,-95.037
 12:19:40.102,eb:33:2e:f9:57:b5, 2015-01-01 00:05:57.195,0.015,-0.039,1.003,7.812,8.972,-3.052, , , , , , ,-1.593,-1.857,-95.048
 12:19:40.102,eb:33:2e:f9:57:b5, 2015-01-01 00:05:57.195,0.021,-0.037,1.004,8.179,8.24,-3.54, , , , , , ,-1.555,-1.813,-95.07
 12:19:40.102,eb:33:2e:f9:57:b5, 2015-01-01 00:05:57.195,0.022,-0.036,1.005,8.362,7.751,-3.967, , , , , , ,-1.511,-1.774,-95.092
 12:19:40.102,eb:33:2e:f9:57:b5, 2015-01-01 00:05:57.195,0.026,-0.034,1.005,8.606,7.324,-4.028, , , , , , ,-1.467,-1.736,-95.114
 12:19:40.102,eb:33:2e:f9:57:b5, 2015-01-01 00:05:57.195,0.043,-0.029,1.002,8.667,6.897,-4.272, , , , , , ,-1.423,-1.703,-95.136
 12:19:40.102,eb:33:2e:f9:57:b5, 2015-01-01 00:05:57.195,0.046,-0.023,1.013,9.033,7.08,-4.7, , , , , , ,-1.379,-1.67,-95.158
 12:19:40.102,eb:33:2e:f9:57:b5, 2015-01-01 00:05:57.195,0.04,-0.025,1.022,9.399,7.568,-5.493, , , , , , ,-1.329,-1.631,-95.186
 12:19:40.102,eb:33:2e:f9:57:b5, 2015-01-01 00:05:57.195,0.045,-0.021,1.006,9.399,7.812,-5.798, , , , , , ,-1.285,-1.593,-95.213
 12:19:40.147,eb:33:2e:f9:57:b5, 2015-01-01 00:05:57.195,0.047,-0.013,1.01,9.216,8.484,-5.676, , , , , , ,-1.236,-1.555,-95.246
 12:19:40.147,eb:33:2e:f9:57:b5, 2015-01-01 00:05:57.195,0.046,-0.016,1.007,8.972,9.46,-5.615, , , , , , ,-1.187,-1.511,-95.273
 12:19:40.148,eb:33:2e:f9:57:b5, 2015-01-01 00:05:57.195,0.05,-0.017,1.01,8.789,10.925,-5.615, , , , , , ,-1.143,-1.461,-95.306
 12:19:40.148,eb:33:2e:f9:57:b5, 2015-01-01 00:05:57.195,0.038,-0.017,1.014,8.484,12.329,-5.554, , , , , , ,-1.099,-1.401,-95.334
 12:19:40.148,eb:33:2e:f9:57:b5, 2015-01-01 00:05:57.195,0.057,-0.034,1.019,8.545,11.902,-4.456, , , , , , ,-1.055,-1.346,-95.361
 12:19:40.148,eb:33:2e:f9:57:b5, 2015-01-01 00:05:57.195,0.035,-0.006,1.01,7.629,14.282,-4.761, , , , , , ,-1.016,-1.28,-95.383
 12:19:40.148,eb:33:2e:f9:57:b5, 2015-01-01 00:05:57.195,0.03,-0.016,0.999,7.324,14.343,-3.601, , , , , , ,-0.978,-1.208,-95.405
 12:19:40.148,eb:33:2e:f9:57:b5, 2015-01-01 00:05:57.195,0.021,-0.01,0.998,7.141,14.954,-3.296, , , , , , ,-0.939,-1.132,-95.427
 12:19:40.169,eb:33:2e:f9:57:b5, 2015-01-01 00:05:57.195,0.015,-0.005,0.986,6.47,15.198,-3.235, , , , , , ,-0.906,-1.06,-95.444
 12:19:40.169,eb:33:2e:f9:57:b5, 2015-01-01 00:05:57.195,0.014,-0.005,0.976,5.737,14.893,-2.686, , , , , , ,-0.873,-0.983,-95.46
 12:19:40.169,eb:33:2e:f9:57:b5, 2015-01-01 00:05:57.195,0.011,-0.01,0.985,5.371,14.771,-2.686, , , , , , ,-0.846,-0.906,-95.477
 12:19:40.169,eb:33:2e:f9:57:b5, 2015-01-01 00:05:57.195,0.004,-0.002,0.981,4.883,14.648,-2.869, , , , , , ,-0.824,-0.835,-95.488
 12:19:40.169,eb:33:2e:f9:57:b5, 2015-01-01 00:05:57.195,0.004,-0.006,0.975,4.517,13.916,-3.113, , , , , , ,-0.797,-0.764,-95.504
 12:19:40.169,eb:33:2e:f9:57:b5, 2015-01-01 00:05:57.195,0.006,-0.009,0.983,4.333,13.123,-2.869, , , , , , ,-0.775,-0.698,-95.521
 12:19:40.169,eb:33:2e:f9:57:b5, 2015-01-01 00:05:57.195,0.012,-0.008,0.983,4.15,12.207,-2.93, , , , , , ,-0.753,-0.637,-95.537
 12:19:40.169,eb:33:2e:f9:57:b5, 2015-01-01 00:05:57.195,0.005,-0.013,0.996,4.211,11.963,-2.808, , , , , , ,-0.731,-0.577,-95.554
 12:19:40.214,eb:33:2e:f9:57:b5, 2015-01-01 00:05:57.195,0,-0.017,0.99,4.211,11.597,-2.625, , , , , , ,-0.709,-0.516,-95.57
 12:19:40.214,eb:33:2e:f9:57:b5, 2015-01-01 00:05:57.195,0.003,-0.013,0.989,4.028,10.864,-2.197, , , , , , ,-0.692,-0.461,-95.581
 12:19:40.214,eb:33:2e:f9:57:b5, 2015-01-01 00:05:57.195,0.005,-0.01,0.993,4.089,10.315,-2.075, , , , , , ,-0.67,-0.412,-95.592
 12:19:40.214,eb:33:2e:f9:57:b5, 2015-01-01 00:05:57.195,0.019,-0.012,0.999,4.211,10.01,-1.892, , , , , , ,-0.648,-0.357,-95.603
 12:19:40.214,eb:33:2e:f9:57:b5, 2015-01-01 00:05:57.195,0.001,-0.003,1.003,3.906,10.803,-1.892, , , , , , ,-0.626,-0.308,-95.614
 12:19:40.214,eb:33:2e:f9:57:b5, 2015-01-01 00:05:57.195,0.011,-0.009,0.984,3.967,9.827,-1.709, , , , , , ,-0.61,-0.253,-95.625
 12:19:40.214,eb:33:2e:f9:57:b5, 2015-01-01 00:05:57.195,0.032,-0.005,1,3.906,10.437,-1.648, , , , , , ,-0.588,-0.203,-95.636
 12:19:40.215,eb:33:2e:f9:57:b5, 2015-01-01 00:05:57.195,-0.044,0.01,1.012,3.784,11.353,-2.991, , , , , , ,-0.571,-0.148,-95.647
 12:19:40.259,eb:33:2e:f9:57:b5, 2015-01-01 00:05:57.530,0.067,-0.034,0.978,4.761,10.62,-5.005, , , , , , ,-0.544,-0.104,-95.663
 12:19:40.259,eb:33:2e:f9:57:b5, 2015-01-01 00:05:57.530,0.036,0.053,0.99,2.747,14.893,-4.517, , , , , , ,-0.527,-0.033,-95.685
 12:19:40.259,eb:33:2e:f9:57:b5, 2015-01-01 00:05:57.530,0.022,-0.001,1.023,2.075,16.907,-5.493, , , , , , ,-0.516,0.038,-95.713
 12:19:40.259,eb:33:2e:f9:57:b5, 2015-01-01 00:05:57.530,0.023,0.019,1.011,2.686,16.052,-6.348, , , , , , ,-0.5,0.115,-95.746
 12:19:40.259,eb:33:2e:f9:57:b5, 2015-01-01 00:05:57.530,0.052,0.015,1.015,1.953,18.311,-7.019, , , , , , ,-0.489,0.203,-95.779
 12:19:40.259,eb:33:2e:f9:57:b5, 2015-01-01 00:05:57.530,0.044,0.029,1.021,2.38,19.409,-8.667, , , , , , ,-0.478,0.297,-95.823
 12:19:40.259,eb:33:2e:f9:57:b5, 2015-01-01 00:05:57.530,0.041,0.02,1.018,2.38,21.179,-9.827, , , , , , ,-0.467,0.401,-95.872
 12:19:40.259,eb:33:2e:f9:57:b5, 2015-01-01 00:05:57.530,0.037,0.02,1.023,2.686,22.583,-11.047, , , , , , ,-0.456,0.511,-95.927
 12:19:40.305,eb:33:2e:f9:57:b5, 2015-01-01 00:05:57.530,0.041,0.023,1.025,2.991,23.987,-12.329, , , , , , ,-0.439,0.626,-95.982
 12:19:40.305,eb:33:2e:f9:57:b5, 2015-01-01 00:05:57.530,0.059,0.02,1.03,3.418,25.085,-13.367, , , , , , ,-0.423,0.747,-96.053
 12:19:40.305,eb:33:2e:f9:57:b5, 2015-01-01 00:05:57.530,0.021,0.04,1.006,3.967,25.024,-14.893, , , , , , ,-0.406,0.873,-96.125
 12:19:40.305,eb:33:2e:f9:57:b5, 2015-01-01 00:05:57.530,-0.019,-0.015,1.074,4.272,27.771,-15.381, , , , , , ,-0.39,1.005,-96.202
 12:19:40.305,eb:33:2e:f9:57:b5, 2015-01-01 00:05:57.530,-0.011,-0.047,1.102,5.371,30.273,-14.709, , , , , , ,-0.363,1.154,-96.279
 12:19:40.305,eb:33:2e:f9:57:b5, 2015-01-01 00:05:57.530,-0.029,-0.006,1.028,6.165,30.396,-14.771, , , , , , ,-0.335,1.302,-96.356
 12:19:40.305,eb:33:2e:f9:57:b5, 2015-01-01 00:05:57.530,-0.044,-0.011,1.016,7.019,29.541,-14.832, , , , , , ,-0.302,1.45,-96.427
 12:19:40.305,eb:33:2e:f9:57:b5, 2015-01-01 00:05:57.530,-0.043,-0.052,1.096,9.949,29.053,-14.526, , , , , , ,-0.264,1.599,-96.504
 12:19:40.349,eb:33:2e:f9:57:b5, 2015-01-01 00:05:57.530,-0.043,-0.037,1.06,11.963,28.198,-14.16, , , , , , ,-0.209,1.741,-96.575
 12:19:40.349,eb:33:2e:f9:57:b5, 2015-01-01 00:05:57.530,-0.037,-0.02,1.042,13.489,27.1,-13.916, , , , , , ,-0.148,1.879,-96.647
 12:19:40.349,eb:33:2e:f9:57:b5, 2015-01-01 00:05:57.530,-0.05,-0.031,1.082,15.625,27.039,-13.977, , , , , , ,-0.077,2.01,-96.718
 12:19:40.349,eb:33:2e:f9:57:b5, 2015-01-01 00:05:57.530,-0.05,-0.056,1.11,19.104,26.245,-14.16, , , , , , ,0.005,2.142,-96.79
 12:19:40.349,eb:33:2e:f9:57:b5, 2015-01-01 00:05:57.530,-0.08,-0.065,1.121,22.278,26.489,-13.672, , , , , , ,0.11,2.274,-96.855
 12:19:40.349,eb:33:2e:f9:57:b5, 2015-01-01 00:05:57.530,-0.066,-0.054,1.083,25.024,25.269,-12.512, , , , , , ,0.225,2.406,-96.921
 12:19:40.349,eb:33:2e:f9:57:b5, 2015-01-01 00:05:57.530,-0.077,-0.053,1.069,27.771,23.682,-11.841, , , , , , ,0.357,2.527,-96.982
 12:19:40.349,eb:33:2e:f9:57:b5, 2015-01-01 00:05:57.530,-0.062,-0.069,1.119,30.762,22.705,-10.681, , , , , , ,0.5,2.642,-97.037
 12:19:40.371,eb:33:2e:f9:57:b5, 2015-01-01 00:05:57.530,-0.065,-0.073,1.17,35.156,22.095,-9.827, , , , , , ,0.665,2.758,-97.086
 12:19:40.371,eb:33:2e:f9:57:b5, 2015-01-01 00:05:57.530,-0.064,-0.082,1.199,40.039,21.423,-9.155, , , , , , ,0.857,2.862,-97.136
 12:19:40.371,eb:33:2e:f9:57:b5, 2015-01-01 00:05:57.530,-0.07,-0.096,1.251,44.128,22.949,-7.812, , , , , , ,1.066,2.977,-97.174
 12:19:40.371,eb:33:2e:f9:57:b5, 2015-01-01 00:05:57.530,-0.055,-0.115,1.301,49.194,24.536,-6.348, , , , , , ,1.296,3.098,-97.207
 12:19:40.371,eb:33:2e:f9:57:b5, 2015-01-01 00:05:57.530,-0.058,-0.099,1.316,55.786,24.841,-5.981, , , , , , ,1.56,3.219,-97.234
 12:19:40.371,eb:33:2e:f9:57:b5, 2015-01-01 00:05:57.530,-0.079,-0.092,1.304,61.951,25.574,-5.554, , , , , , ,1.857,3.345,-97.262
 12:19:40.371,eb:33:2e:f9:57:b5, 2015-01-01 00:05:57.530,-0.076,-0.083,1.274,67.383,26.245,-4.883, , , , , , ,2.186,3.477,-97.284
 12:19:40.371,eb:33:2e:f9:57:b5, 2015-01-01 00:05:57.530,-0.076,-0.07,1.28,73.547,25.818,-5.005, , , , , , ,2.538,3.609,-97.3
 12:19:40.417,eb:33:2e:f9:57:b5, 2015-01-01 00:05:57.530,-0.081,-0.101,1.312,80.261,25.757,-4.517, , , , , , ,2.922,3.741,-97.322
 12:19:40.417,eb:33:2e:f9:57:b5, 2015-01-01 00:05:57.530,-0.058,-0.091,1.318,86.792,25.818,-3.723, , , , , , ,3.345,3.867,-97.333
 12:19:40.417,eb:33:2e:f9:57:b5, 2015-01-01 00:05:57.530,-0.026,-0.089,1.361,94.788,25.085,-3.662, , , , , , ,3.801,3.999,-97.344
 12:19:40.417,eb:33:2e:f9:57:b5, 2015-01-01 00:05:57.530,-0.037,-0.085,1.389,102.905,26.367,-3.845, , , , , , ,4.301,4.125,-97.355
 12:19:40.417,eb:33:2e:f9:57:b5, 2015-01-01 00:05:57.530,-0.012,-0.078,1.362,110.352,27.649,-3.723, , , , , , ,4.834,4.263,-97.361
 12:19:40.417,eb:33:2e:f9:57:b5, 2015-01-01 00:05:57.530,0.045,-0.079,1.475,119.629,29.358,-4.211, , , , , , ,5.416,4.411,-97.372
 12:19:40.417,eb:33:2e:f9:57:b5, 2015-01-01 00:05:57.530,0.058,-0.034,1.51,130.127,31.25,-6.104, , , , , , ,6.042,4.565,-97.383
 12:19:40.417,eb:33:2e:f9:57:b5, 2015-01-01 00:05:57.530,0.076,-0.033,1.511,140.381,34.058,-7.812, , , , , , ,6.724,4.73,-97.399
 12:19:40.464,eb:33:2e:f9:57:b5, 2015-01-01 00:05:57.530,0.073,-0.042,1.597,152.039,38.208,-10.559, , , , , , ,7.46,4.916,-97.421
 12:19:40.464,eb:33:2e:f9:57:b5, 2015-01-01 00:05:57.530,0.064,-0.075,1.594,161.255,44.983,-11.963, , , , , , ,8.245,5.131,-97.454
 12:19:40.464,eb:33:2e:f9:57:b5, 2015-01-01 00:05:57.530,0.09,-0.067,1.569,171.509,50.171,-13.245, , , , , , ,9.08,5.383,-97.476
 12:19:40.464,eb:33:2e:f9:57:b5, 2015-01-01 00:05:57.530,0.1,-0.022,1.5,183.289,51.453,-16.296, , , , , , ,9.965,5.647,-97.509
 12:19:40.464,eb:33:2e:f9:57:b5, 2015-01-01 00:05:57.530,0.011,-0.032,1.533,193.97,54.26,-18.677, , , , , , ,10.909,5.922,-97.553
 12:19:40.464,eb:33:2e:f9:57:b5, 2015-01-01 00:05:57.530,-0.044,-0.12,1.656,203.979,59.143,-18.433, , , , , , ,11.909,6.218,-97.586
 12:19:40.464,eb:33:2e:f9:57:b5, 2015-01-01 00:05:57.530,-0.052,-0.222,1.852,215.881,65.918,-15.625, , , , , , ,12.958,6.548,-97.603
 12:19:40.464,eb:33:2e:f9:57:b5, 2015-01-01 00:05:57.530,0.012,-0.265,2.021,230.042,72.571,-13.489, , , , , , ,14.084,6.905,-97.586
 12:19:40.507,eb:33:2e:f9:57:b5, 2015-01-01 00:05:57.530,0.135,-0.233,2.012,245.728,77.759,-12.39, , , , , , ,15.282,7.284,-97.553
 12:19:40.507,eb:33:2e:f9:57:b5, 2015-01-01 00:05:57.530,0.3,-0.141,2.053,264.832,83.557,-14.343, , , , , , ,16.573,7.696,-97.504
 12:19:40.507,eb:33:2e:f9:57:b5, 2015-01-01 00:05:57.530,0.433,-0.088,2.161,282.349,90.027,-18.127, , , , , , ,17.957,8.135,-97.454
 12:19:40.508,eb:33:2e:f9:57:b5, 2015-01-01 00:05:57.530,0.269,-0.048,2.157,302.49,94.177,-26.611, , , , , , ,19.435,8.613,-97.416
 12:19:40.508,eb:33:2e:f9:57:b5, 2015-01-01 00:05:57.530,0.25,-0.104,2.353,320.007,101.379,-31.738, , , , , , ,21,9.119,-97.388
 12:19:40.508,eb:33:2e:f9:57:b5, 2015-01-01 00:05:57.530,0.456,-0.116,2.646,337.952,116.272,-36.438, , , , , , ,22.665,9.695,-97.339
 12:19:40.508,eb:33:2e:f9:57:b5, 2015-01-01 00:05:57.530,0.516,-0.063,2.598,350.647,126.831,-42.664, , , , , , ,24.406,10.344,-97.278
 12:19:40.508,eb:33:2e:f9:57:b5, 2015-01-01 00:05:57.530,0.489,-0.07,2.74,356.079,141.846,-47.668, , , , , , ,26.191,11.047,-97.202
 12:19:40.530,eb:33:2e:f9:57:b5, 2015-01-01 00:05:57.845,0.539,-0.011,3.041,365.234,167.48,-51.514, , , , , , ,28.021,11.86,-97.059
 12:19:40.530,eb:33:2e:f9:57:b5, 2015-01-01 00:05:57.845,0.623,-0.016,2.827,377.686,181.03,-54.443, , , , , , ,29.927,12.766,-96.855
 12:19:40.530,eb:33:2e:f9:57:b5, 2015-01-01 00:05:57.845,0.917,0.28,2.359,392.029,159.485,-63.66, , , , , , ,31.899,13.651,-96.674
 12:19:40.530,eb:33:2e:f9:57:b5, 2015-01-01 00:05:57.845,0.993,0.399,2.583,411.743,138.733,-76.782, , , , , , ,33.937,14.453,-96.575
 12:19:40.530,eb:33:2e:f9:57:b5, 2015-01-01 00:05:57.845,0.81,0.221,2.485,420.227,120.544,-89.661, , , , , , ,36.035,15.222,-96.559
 12:19:40.530,eb:33:2e:f9:57:b5, 2015-01-01 00:05:57.845,0.776,0.157,3.054,413.208,122.681,-95.703, , , , , , ,38.112,15.98,-96.575
 12:19:40.530,eb:33:2e:f9:57:b5, 2015-01-01 00:05:57.845,0.966,-0.217,3.462,409.485,145.325,-102.051, , , , , , ,40.177,16.82,-96.531
 12:19:40.530,eb:33:2e:f9:57:b5, 2015-01-01 00:05:57.845,1.047,-0.359,3.197,404.175,170.654,-108.582, , , , , , ,42.242,17.77,-96.394
 12:19:40.575,eb:33:2e:f9:57:b5, 2015-01-01 00:05:57.845,1.251,-0.412,2.715,406.555,173.645,-120.3, , , , , , ,44.324,18.798,-96.207
 12:19:40.575,eb:33:2e:f9:57:b5, 2015-01-01 00:05:57.845,1.035,-0.72,2.431,403.809,175.842,-128.113, , , , , , ,46.412,19.858,-96.015
 12:19:40.575,eb:33:2e:f9:57:b5, 2015-01-01 00:05:57.845,1.311,-0.901,2.422,417.725,168.396,-132.568, , , , , , ,48.538,20.923,-95.806
 12:19:40.575,eb:33:2e:f9:57:b5, 2015-01-01 00:05:57.845,1.877,-1.098,2.438,439.697,162.354,-148.621, , , , , , ,50.746,21.978,-95.636
 12:19:40.575,eb:33:2e:f9:57:b5, 2015-01-01 00:05:57.845,2.181,-1.374,1.918,456.665,172.974,-176.514, , , , , , ,53.064,23.143,-95.466
 12:19:40.575,eb:33:2e:f9:57:b5, 2015-01-01 00:05:57.845,1.188,-0.891,0.445,445.374,176.636,-215.576, , , , , , ,55.393,24.478,-95.317
 12:19:40.575,eb:33:2e:f9:57:b5, 2015-01-01 00:05:57.845,0.199,0.081,-1.948,356.75,127.686,-232.483, , , , , , ,57.387,25.845,-95.317
 12:19:40.575,eb:33:2e:f9:57:b5, 2015-01-01 00:05:57.845,0.141,0.156,-3.15,227.905,39.673,-232.605, , , , , , ,58.629,27.032,-95.652
 12:19:40.619,eb:33:2e:f9:57:b5, 2015-01-01 00:05:57.845,0.486,-0.207,-2.074,107.788,-42.847,-223.083, , , , , , ,59.062,27.977,-96.372
 12:19:40.619,eb:33:2e:f9:57:b5, 2015-01-01 00:05:57.845,0.683,-0.539,-0.385,12.329,-89.478,-212.585, , , , , , ,58.832,28.713,-97.366
 12:19:40.619,eb:33:2e:f9:57:b5, 2015-01-01 00:05:57.845,0.669,-0.813,0.658,-61.401,-101.929,-197.693, , , , , , ,58.134,29.323,-98.459
 12:19:40.619,eb:33:2e:f9:57:b5, 2015-01-01 00:05:57.845,0.661,-1.103,1.152,-111.328,-91.675,-179.26, , , , , , ,57.14,29.844,-99.52
 12:19:40.619,eb:33:2e:f9:57:b5, 2015-01-01 00:05:57.845,0.686,-1.282,1.426,-138.794,-64.087,-160.156, , , , , , ,56.036,30.333,-100.421
 12:19:40.619,eb:33:2e:f9:57:b5, 2015-01-01 00:05:57.845,0.66,-1.32,1.632,-146.667,-24.78,-141.785, , , , , , ,54.965,30.833,-101.107
 12:19:40.619,eb:33:2e:f9:57:b5, 2015-01-01 00:05:57.845,0.533,-1.243,1.656,-141.357,13.977,-124.756, , , , , , ,54.009,31.366,-101.558
 12:19:40.619,eb:33:2e:f9:57:b5, 2015-01-01 00:05:57.845,0.347,-1.048,1.366,-131.836,41.26,-108.398, , , , , , ,53.185,31.91,-101.816
 12:19:40.665,eb:33:2e:f9:57:b5, 2015-01-01 00:05:57.845,0.223,-0.888,0.972,-120.3,54.993,-92.529, , , , , , ,52.498,32.459,-101.931
 12:19:40.665,eb:33:2e:f9:57:b5, 2015-01-01 00:05:57.845,0.196,-0.792,0.608,-109.436,56.641,-77.576, , , , , , ,51.905,32.964,-101.97
 12:19:40.665,eb:33:2e:f9:57:b5, 2015-01-01 00:05:57.845,0.186,-0.709,0.231,-99.731,44.8,-60.242, , , , , , ,51.383,33.387,-101.981
 12:19:40.665,eb:33:2e:f9:57:b5, 2015-01-01 00:05:57.845,0.191,-0.658,-0.066,-95.398,23.987,-46.936, , , , , , ,50.861,33.679,-102.036
 12:19:40.665,eb:33:2e:f9:57:b5, 2015-01-01 00:05:57.845,0.161,-0.64,-0.292,-94.666,-3.052,-34.607, , , , , , ,50.323,33.86,-102.145
 12:19:40.665,eb:33:2e:f9:57:b5, 2015-01-01 00:05:57.845,0.188,-0.649,-0.451,-96.863,-34.607,-21.912, , , , , , ,49.73,33.893,-102.349
 12:19:40.665,eb:33:2e:f9:57:b5, 2015-01-01 00:05:57.845,0.205,-0.67,-0.444,-101.013,-65.918,-9.888, , , , , , ,49.065,33.772,-102.651
 12:19:40.665,eb:33:2e:f9:57:b5, 2015-01-01 00:05:57.845,0.228,-0.695,-0.361,-106.14,-95.459,2.014, , , , , , ,48.312,33.497,-103.052
 12:19:40.709,eb:33:2e:f9:57:b5, 2015-01-01 00:05:57.845,0.244,-0.719,-0.218,-112.366,-119.812,14.587, , , , , , ,47.516,33.091,-103.508
 12:19:40.709,eb:33:2e:f9:57:b5, 2015-01-01 00:05:57.845,0.271,-0.75,-0.061,-119.446,-138.367,27.466, , , , , , ,46.67,32.558,-103.986
 12:19:40.709,eb:33:2e:f9:57:b5, 2015-01-01 00:05:57.845,0.284,-0.771,0.107,-127.38,-149.963,40.527, , , , , , ,45.791,31.926,-104.464
 12:19:40.709,eb:33:2e:f9:57:b5, 2015-01-01 00:05:57.845,0.304,-0.78,0.242,-135.864,-156.677,53.101, , , , , , ,44.879,31.201,-104.919
 12:19:40.709,eb:33:2e:f9:57:b5, 2015-01-01 00:05:57.845,0.316,-0.765,0.349,-144.958,-159.729,65.552, , , , , , ,43.973,30.421,-105.315
 12:19:40.709,eb:33:2e:f9:57:b5, 2015-01-01 00:05:57.845,0.332,-0.734,0.42,-153.992,-161.133,76.416, , , , , , ,43.05,29.592,-105.65
 12:19:40.709,eb:33:2e:f9:57:b5, 2015-01-01 00:05:57.845,0.35,-0.685,0.461,-163.025,-162.72,85.571, , , , , , ,42.116,28.718,-105.936
 12:19:40.709,eb:33:2e:f9:57:b5, 2015-01-01 00:05:57.845,0.375,-0.622,0.472,-171.936,-165.649,92.712, , , , , , ,41.144,27.79,-106.183
 12:19:40.731,eb:33:2e:f9:57:b5, 2015-01-01 00:05:57.845,0.4,-0.548,0.474,-180.908,-170.532,97.534, , , , , , ,40.161,26.84,-106.392
 12:19:40.731,eb:33:2e:f9:57:b5, 2015-01-01 00:05:57.845,0.43,-0.479,0.478,-189.758,-177.368,99.915, , , , , , ,39.139,25.851,-106.584
 12:19:40.731,eb:33:2e:f9:57:b5, 2015-01-01 00:05:57.845,0.458,-0.412,0.502,-198.73,-185.303,100.281, , , , , , ,38.079,24.829,-106.782
 12:19:40.731,eb:33:2e:f9:57:b5, 2015-01-01 00:05:57.845,0.484,-0.353,0.547,-207.825,-193.542,98.633, , , , , , ,36.958,23.758,-106.996
 12:19:40.731,eb:33:2e:f9:57:b5, 2015-01-01 00:05:57.845,0.5,-0.295,0.607,-216.919,-201.355,95.215, , , , , , ,35.81,22.67,-107.21
 12:19:40.731,eb:33:2e:f9:57:b5, 2015-01-01 00:05:57.845,0.508,-0.241,0.67,-225.952,-208.618,90.332, , , , , , ,34.607,21.566,-107.441
 12:19:40.732,eb:33:2e:f9:57:b5, 2015-01-01 00:05:57.845,0.51,-0.194,0.751,-234.558,-215.088,84.534, , , , , , ,33.36,20.44,-107.693
 12:19:40.732,eb:33:2e:f9:57:b5, 2015-01-01 00:05:57.845,0.5,-0.155,0.855,-242.615,-220.032,77.881, , , , , , ,32.058,19.292,-107.968
 12:19:40.777,eb:33:2e:f9:57:b5, 2015-01-01 00:05:57.845,0.48,-0.119,0.958,-249.756,-223.633,70.618, , , , , , ,30.729,18.149,-108.248
 12:19:40.777,eb:33:2e:f9:57:b5, 2015-01-01 00:05:57.845,0.444,-0.078,1.044,-255.92,-226.562,62.988, , , , , , ,29.372,17.007,-108.539
 12:19:40.777,eb:33:2e:f9:57:b5, 2015-01-01 00:05:57.845,0.399,-0.037,1.113,-261.292,-229.614,55.298, , , , , , ,27.993,15.864,-108.847
 12:19:40.777,eb:33:2e:f9:57:b5, 2015-01-01 00:05:57.845,0.354,-0.006,1.18,-265.808,-232.91,48.035, , , , , , ,26.57,14.705,-109.171
 12:19:40.777,eb:33:2e:f9:57:b5, 2015-01-01 00:05:57.845,0.304,0.012,1.258,-269.592,-235.779,41.321, , , , , , ,25.148,13.552,-109.495
 12:19:40.777,eb:33:2e:f9:57:b5, 2015-01-01 00:05:57.845,0.258,0.015,1.34,-272.766,-238.037,36.011, , , , , , ,23.719,12.393,-109.819
 12:19:40.777,eb:33:2e:f9:57:b5, 2015-01-01 00:05:57.845,0.212,0.006,1.431,-275.513,-238.892,31.921, , , , , , ,22.28,11.228,-110.138
 12:19:40.777,eb:33:2e:f9:57:b5, 2015-01-01 00:05:57.845,0.177,-0.019,1.524,-277.771,-237.976,29.663, , , , , , ,20.825,10.047,-110.446
 12:19:40.824,eb:33:2e:f9:57:b5, 2015-01-01 00:05:57.845,0.129,-0.049,1.626,-278.748,-235.229,28.748, , , , , , ,19.385,8.888,-110.72
 12:19:40.824,eb:33:2e:f9:57:b5, 2015-01-01 00:05:57.845,0.112,0.047,1.729,-280.396,-225.83,31.372, , , , , , ,17.952,7.756,-110.94
 12:19:40.824,eb:33:2e:f9:57:b5, 2015-01-01 00:05:57.845,0.024,-0.032,1.765,-280.212,-223.206,32.654, , , , , , ,16.529,6.636,-111.121
 12:19:40.824,eb:33:2e:f9:57:b5, 2015-01-01 00:05:57.845,-0.044,-0.02,1.729,-279.602,-222.778,34.668, , , , , , ,15.095,5.499,-111.264
 12:19:40.824,eb:33:2e:f9:57:b5, 2015-01-01 00:05:57.845,-0.059,-0.012,1.715,-277.466,-225.769,38.025, , , , , , ,13.694,4.367,-111.363
 12:19:40.824,eb:33:2e:f9:57:b5, 2015-01-01 00:05:57.845,-0.084,-0.003,1.757,-275.085,-229.797,41.809, , , , , , ,12.31,3.208,-111.423
 12:19:40.824,eb:33:2e:f9:57:b5, 2015-01-01 00:05:57.845,-0.127,0.003,1.819,-272.339,-234.375,45.898, , , , , , ,10.942,2.027,-111.44
 12:19:40.824,eb:33:2e:f9:57:b5, 2015-01-01 00:05:57.845,-0.163,-0.008,1.887,-270.02,-237.976,51.208, , , , , , ,9.569,0.802,-111.418
 12:19:40.867,eb:33:2e:f9:57:b5, 2015-01-01 00:05:58.155,-0.191,-0.032,1.97,-268.494,-239.441,57.922, , , , , , ,8.223,-0.417,-111.33
 12:19:40.867,eb:33:2e:f9:57:b5, 2015-01-01 00:05:58.155,-0.229,-0.062,2.07,-268.127,-237.793,65.613, , , , , , ,6.883,-1.642,-111.176
 12:19:40.867,eb:33:2e:f9:57:b5, 2015-01-01 00:05:58.155,-0.275,-0.097,2.18,-268.433,-232.788,74.463, , , , , , ,5.532,-2.851,-110.951
 12:19:40.867,eb:33:2e:f9:57:b5, 2015-01-01 00:05:58.155,-0.3,-0.129,2.288,-269.409,-224.121,83.618, , , , , , ,4.147,-4.037,-110.649
 12:19:40.867,eb:33:2e:f9:57:b5, 2015-01-01 00:05:58.155,-0.312,-0.134,2.398,-270.935,-211.731,92.407, , , , , , ,2.769,-5.147,-110.27
 12:19:40.867,eb:33:2e:f9:57:b5, 2015-01-01 00:05:58.155,-0.311,-0.093,2.483,-272.949,-196.533,99.915, , , , , , ,1.362,-6.18,-109.819
 12:19:40.867,eb:33:2e:f9:57:b5, 2015-01-01 00:05:58.155,-0.307,-0.011,2.517,-275.024,-180.786,105.286, , , , , , ,-0.066,-7.119,-109.308
 12:19:40.867,eb:33:2e:f9:57:b5, 2015-01-01 00:05:58.155,-0.306,0.095,2.492,-276.611,-166.931,107.788, , , , , , ,-1.538,-7.987,-108.759
 12:19:40.934,eb:33:2e:f9:57:b5, 2015-01-01 00:05:58.155,-0.299,0.208,2.415,-277.161,-156.921,107.3, , , , , , ,-3.005,-8.767,-108.182
 12:19:40.934,eb:33:2e:f9:57:b5, 2015-01-01 00:05:58.155,-0.313,0.322,2.327,-276.917,-150.818,104.248, , , , , , ,-4.488,-9.498,-107.6
 12:19:40.934,eb:33:2e:f9:57:b5, 2015-01-01 00:05:58.155,-0.344,0.431,2.24,-275.818,-148.254,99.548, , , , , , ,-5.966,-10.195,-107.018
 12:19:40.934,eb:33:2e:f9:57:b5, 2015-01-01 00:05:58.155,-0.368,0.528,2.177,-273.804,-148.01,93.75, , , , , , ,-7.465,-10.887,-106.441
 12:19:40.934,eb:33:2e:f9:57:b5, 2015-01-01 00:05:58.155,-0.385,0.627,2.168,-270.752,-148.01,87.769, , , , , , ,-8.937,-11.558,-105.881
 12:19:40.934,eb:33:2e:f9:57:b5, 2015-01-01 00:05:58.155,-0.408,0.734,2.208,-266.602,-146.851,81.787, , , , , , ,-10.393,-12.211,-105.331
 12:19:40.935,eb:33:2e:f9:57:b5, 2015-01-01 00:05:58.155,-0.437,0.854,2.267,-261.108,-143.921,76.05, , , , , , ,-11.827,-12.849,-104.793
 12:19:40.935,eb:33:2e:f9:57:b5, 2015-01-01 00:05:58.155,-0.475,0.984,2.332,-254.089,-139.038,70.862, , , , , , ,-13.25,-13.469,-104.266
 12:19:40.935,eb:33:2e:f9:57:b5, 2015-01-01 00:05:58.155,-0.507,1.126,2.381,-245.3,-132.324,66.345, , , , , , ,-14.612,-14.046,-103.76
 12:19:40.935,eb:33:2e:f9:57:b5, 2015-01-01 00:05:58.155,-0.572,1.28,2.422,-234.924,-123.108,63.354, , , , , , ,-15.93,-14.573,-103.266
 12:19:40.935,eb:33:2e:f9:57:b5, 2015-01-01 00:05:58.155,-0.633,1.449,2.411,-222.046,-113.953,61.157, , , , , , ,-17.194,-15.046,-102.788
 12:19:40.935,eb:33:2e:f9:57:b5, 2015-01-01 00:05:58.155,-0.717,1.604,2.354,-206.543,-105.347,60.059, , , , , , ,-18.397,-15.48,-102.316
 12:19:40.935,eb:33:2e:f9:57:b5, 2015-01-01 00:05:58.155,-0.823,1.721,2.236,-188.171,-98.633,60.669, , , , , , ,-19.501,-15.864,-101.849
 12:19:40.935,eb:33:2e:f9:57:b5, 2015-01-01 00:05:58.155,-0.944,1.81,2.087,-167.297,-94.604,63.477, , , , , , ,-20.511,-16.21,-101.371
 12:19:40.935,eb:33:2e:f9:57:b5, 2015-01-01 00:05:58.155,-1.077,1.863,1.945,-144.165,-92.773,68.726, , , , , , ,-21.423,-16.523,-100.876
 12:19:40.935,eb:33:2e:f9:57:b5, 2015-01-01 00:05:58.155,-1.169,1.881,1.812,-119.812,-92.346,76.05, , , , , , ,-22.236,-16.826,-100.338
 12:19:41.001,eb:33:2e:f9:57:b5, 2015-01-01 00:05:58.155,-1.281,1.904,1.723,-95.52,-90.515,84.778, , , , , , ,-22.928,-17.089,-99.767
 12:19:41.001,eb:33:2e:f9:57:b5, 2015-01-01 00:05:58.155,-1.351,1.939,1.639,-72.754,-87.769,93.933, , , , , , ,-23.522,-17.325,-99.146
 12:19:41.001,eb:33:2e:f9:57:b5, 2015-01-01 00:05:58.155,-1.4,2.023,1.657,-52.734,-81.604,103.271, , , , , , ,-24.022,-17.507,-98.492
 12:19:41.001,eb:33:2e:f9:57:b5, 2015-01-01 00:05:58.155,-1.39,2.098,1.709,-35.889,-69.885,112.61, , , , , , ,-24.445,-17.633,-97.806
 12:19:41.002,eb:33:2e:f9:57:b5, 2015-01-01 00:05:58.155,-1.345,2.167,1.768,-21.729,-50.72,120.239, , , , , , ,-24.791,-17.655,-97.119
 12:19:41.002,eb:33:2e:f9:57:b5, 2015-01-01 00:05:58.155,-1.293,2.253,1.809,-5.737,-22.4,126.648, , , , , , ,-25.054,-17.551,-96.454
 12:19:41.002,eb:33:2e:f9:57:b5, 2015-01-01 00:05:58.155,-1.224,2.316,1.789,8.911,0.61,128.357, , , , , , ,-25.23,-17.314,-95.828
 12:19:41.003,eb:33:2e:f9:57:b5, 2015-01-01 00:05:58.155,-1.146,2.371,1.69,24.963,18.921,126.099, , , , , , ,-25.312,-16.99,-95.251
 12:19:41.025,eb:33:2e:f9:57:b5, 2015-01-01 00:05:58.155,-1.06,2.398,1.534,41.687,30.701,120.056, , , , , , ,-25.285,-16.611,-94.73
 12:19:41.025,eb:33:2e:f9:57:b5, 2015-01-01 00:05:58.155,1.417,2.392,1.396,62.073,33.447,107.971, , , , , , ,-25.153,-16.21,-94.268
 12:19:41.025,eb:33:2e:f9:57:b5, 2015-01-01 00:05:58.155,-1.059,2.646,8.602,209.045,130.676,52.063, , , , , , ,-24.335,-15.82,-94.241
 12:19:41.025,eb:33:2e:f9:57:b5, 2015-01-01 00:05:58.155,0.646,3.628,2.823,239.075,180.725,14.832, , , , , , ,-23.154,-15.123,-94.422
 12:19:41.025,eb:33:2e:f9:57:b5, 2015-01-01 00:05:58.155,0.065,0.868,1.226,263.123,240.967,-22.095, , , , , , ,-21.769,-14.106,-94.911
 12:19:41.025,eb:33:2e:f9:57:b5, 2015-01-01 00:05:58.155,0.048,-1.128,0.478,286.377,236.755,-7.324, , , , , , ,-20.264,-12.986,-95.405
 12:19:41.025,eb:33:2e:f9:57:b5, 2015-01-01 00:05:58.155,0.196,-0.254,1.177,287.598,219.36,-7.996, , , , , , ,-18.737,-11.92,-95.85
 12:19:41.025,eb:33:2e:f9:57:b5, 2015-01-01 00:05:58.155,0.045,-1.303,0.641,306.335,183.777,-5.31, , , , , , ,-17.172,-10.992,-96.191
 12:19:41.069,eb:33:2e:f9:57:b5, 2015-01-01 00:05:58.155,-0.202,-0.5,1.126,307.068,160.767,-4.456, , , , , , ,-15.579,-10.19,-96.454
 12:19:41.069,eb:33:2e:f9:57:b5, 2015-01-01 00:05:58.155,-0.428,0.066,1.292,291.504,148.376,-5.92, , , , , , ,-14.052,-9.459,-96.68
 12:19:41.069,eb:33:2e:f9:57:b5, 2015-01-01 00:05:58.155,-0.423,0.144,1.119,275.635,133.789,-8.24, , , , , , ,-12.612,-8.784,-96.877
 12:19:41.069,eb:33:2e:f9:57:b5, 2015-01-01 00:05:58.155,-0.332,-0.006,1.021,263,121.582,-13.123, , , , , , ,-11.245,-8.179,-97.064
 12:19:41.069,eb:33:2e:f9:57:b5, 2015-01-01 00:05:58.155,-0.271,-0.071,1.111,247.559,110.168,-17.029, , , , , , ,-9.943,-7.625,-97.245
 12:19:41.069,eb:33:2e:f9:57:b5, 2015-01-01 00:05:58.155,-0.177,0.226,1.292,221.313,94.91,-18.738, , , , , , ,-8.756,-7.141,-97.427
 12:19:41.069,eb:33:2e:f9:57:b5, 2015-01-01 00:05:58.155,-0.085,0.38,1.303,190.979,81.482,-15.564, , , , , , ,-7.723,-6.724,-97.57
 12:19:41.069,eb:33:2e:f9:57:b5, 2015-01-01 00:05:58.155,-0.071,0.338,1.278,164.429,75.928,-12.024, , , , , , ,-6.839,-6.35,-97.69
 12:19:41.115,eb:33:2e:f9:57:b5, 2015-01-01 00:05:58.155,-0.016,0.116,1.051,149.719,70.679,-10.132, , , , , , ,-6.053,-5.993,-97.784
 12:19:41.115,eb:33:2e:f9:57:b5, 2015-01-01 00:05:58.155,0.071,0.089,1.086,135.864,65.002,-4.272, , , , , , ,-5.339,-5.663,-97.855
 12:19:41.115,eb:33:2e:f9:57:b5, 2015-01-01 00:05:58.155,0.162,0.087,1.115,119.507,59.204,3.662, , , , , , ,-4.702,-5.356,-97.883
 12:19:41.115,eb:33:2e:f9:57:b5, 2015-01-01 00:05:58.155,0.107,0.078,1.134,105.042,56.946,11.23, , , , , , ,-4.153,-5.065,-97.861
 12:19:41.115,eb:33:2e:f9:57:b5, 2015-01-01 00:05:58.155,0.07,0.212,1.159,84.961,55.603,20.081, , , , , , ,-3.691,-4.779,-97.8
 12:19:41.115,eb:33:2e:f9:57:b5, 2015-01-01 00:05:58.155,0.025,0.146,1.076,71.533,54.932,23.865, , , , , , ,-3.318,-4.499,-97.701
 12:19:41.115,eb:33:2e:f9:57:b5, 2015-01-01 00:05:58.155,-0.012,0.129,1.015,61.646,54.749,25.146, , , , , , ,-2.999,-4.219,-97.592
 12:19:41.115,eb:33:2e:f9:57:b5, 2015-01-01 00:05:58.155,-0.042,0.117,0.983,53.711,50.11,24.719, , , , , , ,-2.719,-3.95,-97.482
 12:19:41.159,eb:33:2e:f9:57:b5, 2015-01-01 00:05:58.445,-0.015,0.174,0.987,43.03,45.593,25.146, , , , , , ,-2.488,-3.702,-97.366
 12:19:41.159,eb:33:2e:f9:57:b5, 2015-01-01 00:05:58.445,-0.035,0.17,0.986,33.691,40.588,24.963, , , , , , ,-2.313,-3.488,-97.251
 12:19:41.159,eb:33:2e:f9:57:b5, 2015-01-01 00:05:58.445,-0.095,0.116,0.961,27.222,37.17,23.254, , , , , , ,-2.17,-3.29,-97.141
 12:19:41.159,eb:33:2e:f9:57:b5, 2015-01-01 00:05:58.445,-0.044,0.063,0.93,22.766,31.677,21.729, , , , , , ,-2.049,-3.115,-97.031
 12:19:41.159,eb:33:2e:f9:57:b5, 2015-01-01 00:05:58.445,-0.016,0.045,0.958,19.897,27.893,19.714, , , , , , ,-1.95,-2.966,-96.938
 12:19:41.159,eb:33:2e:f9:57:b5, 2015-01-01 00:05:58.445,-0.027,0.059,0.971,16.296,24.597,18.127, , , , , , ,-1.862,-2.829,-96.844
 12:19:41.159,eb:33:2e:f9:57:b5, 2015-01-01 00:05:58.445,-0.056,0.093,0.953,11.597,20.386,16.357, , , , , , ,-1.802,-2.719,-96.762
 12:19:41.159,eb:33:2e:f9:57:b5, 2015-01-01 00:05:58.445,-0.032,0.081,0.938,7.751,16.235,13.306, , , , , , ,-1.758,-2.626,-96.691
 12:19:41.181,eb:33:2e:f9:57:b5, 2015-01-01 00:05:58.445,0.042,0.006,0.965,6.409,12.695,10.559, , , , , , ,-1.725,-2.554,-96.636
 12:19:41.181,eb:33:2e:f9:57:b5, 2015-01-01 00:05:58.445,0.01,-0.01,1.006,5.798,13,9.399, , , , , , ,-1.697,-2.488,-96.592
 12:19:41.181,eb:33:2e:f9:57:b5, 2015-01-01 00:05:58.445,-0.026,0.025,0.98,4.395,10.681,7.935, , , , , , ,-1.675,-2.428,-96.548
 12:19:41.181,eb:33:2e:f9:57:b5, 2015-01-01 00:05:58.445,0.017,0.012,0.958,3.296,8.24,7.08, , , , , , ,-1.653,-2.384,-96.515
 12:19:41.181,eb:33:2e:f9:57:b5, 2015-01-01 00:05:58.445,0.055,-0.012,0.996,3.418,7.751,4.944, , , , , , ,-1.637,-2.34,-96.487
 12:19:41.181,eb:33:2e:f9:57:b5, 2015-01-01 00:05:58.445,0.034,-0.02,1.02,3.54,8.667,3.845, , , , , , ,-1.62,-2.302,-96.465
 12:19:41.181,eb:33:2e:f9:57:b5, 2015-01-01 00:05:58.445,0.013,-0.024,1.01,3.784,9.216,3.113, , , , , , ,-1.604,-2.252,-96.449
 12:19:41.181,eb:33:2e:f9:57:b5, 2015-01-01 00:05:58.445,0.006,-0.033,1.002,4.272,8.728,2.075, , , , , , ,-1.582,-2.208,-96.438
 12:19:41.227,eb:33:2e:f9:57:b5, 2015-01-01 00:05:58.445,0.012,-0.029,0.994,4.7,7.874,0.916, , , , , , ,-1.56,-2.164,-96.432
 12:19:41.227,eb:33:2e:f9:57:b5, 2015-01-01 00:05:58.445,0.012,-0.026,0.996,4.944,7.263,0, , , , , , ,-1.533,-2.126,-96.432
 12:19:41.227,eb:33:2e:f9:57:b5, 2015-01-01 00:05:58.445,0.012,-0.028,0.992,5.066,6.653,-0.488, , , , , , ,-1.505,-2.093,-96.438
 12:19:41.227,eb:33:2e:f9:57:b5, 2015-01-01 00:05:58.445,0.008,-0.025,0.993,5.188,6.165,-1.343, , , , , , ,-1.478,-2.06,-96.443
 12:19:41.227,eb:33:2e:f9:57:b5, 2015-01-01 00:05:58.445,0.008,-0.027,0.992,5.432,5.432,-1.709, , , , , , ,-1.45,-2.032,-96.449
 12:19:41.227,eb:33:2e:f9:57:b5, 2015-01-01 00:05:58.445,0.015,-0.031,0.991,5.676,4.7,-2.319, , , , , , ,-1.423,-2.01,-96.46
 12:19:41.227,eb:33:2e:f9:57:b5, 2015-01-01 00:05:58.445,0.019,-0.025,0.992,5.859,4.089,-2.625, , , , , , ,-1.395,-1.989,-96.476
 12:19:41.227,eb:33:2e:f9:57:b5, 2015-01-01 00:05:58.445,0.018,-0.018,0.993,5.798,3.54,-3.052, , , , , , ,-1.362,-1.967,-96.493
 12:19:41.273,eb:33:2e:f9:57:b5, 2015-01-01 00:05:58.445,0.021,-0.021,0.992,5.981,2.808,-3.479, , , , , , ,-1.329,-1.95,-96.509
 12:19:41.273,eb:33:2e:f9:57:b5, 2015-01-01 00:05:58.445,0.025,-0.021,0.993,5.981,2.38,-3.723, , , , , , ,-1.302,-1.939,-96.526
 12:19:41.273,eb:33:2e:f9:57:b5, 2015-01-01 00:05:58.445,0.031,-0.019,0.996,5.92,2.197,-3.662, , , , , , ,-1.269,-1.928,-96.548
 12:19:41.273,eb:33:2e:f9:57:b5, 2015-01-01 00:05:58.445,0.034,-0.019,1,5.92,2.258,-3.54, , , , , , ,-1.236,-1.917,-96.564
 12:19:41.273,eb:33:2e:f9:57:b5, 2015-01-01 00:05:58.445,0.029,-0.018,0.999,5.92,2.38,-3.418, , , , , , ,-1.208,-1.906,-96.581
 12:19:41.273,eb:33:2e:f9:57:b5, 2015-01-01 00:05:58.445,0.061,-0.013,1.007,5.981,2.258,-3.418, , , , , , ,-1.176,-1.895,-96.603
 12:19:41.273,eb:33:2e:f9:57:b5, 2015-01-01 00:05:58.445,0.035,-0.04,1.017,5.432,3.906,-3.113, , , , , , ,-1.148,-1.879,-96.619
 12:19:41.273,eb:33:2e:f9:57:b5, 2015-01-01 00:05:58.445,0.043,-0.014,1.002,5.188,4.578,-2.93, , , , , , ,-1.121,-1.857,-96.63
 12:19:41.341,eb:33:2e:f9:57:b5, 2015-01-01 00:05:58.445,0.04,-0.011,1.003,4.883,5.432,-3.052, , , , , , ,-1.093,-1.829,-96.647
 12:19:41.341,eb:33:2e:f9:57:b5, 2015-01-01 00:05:58.445,0.041,-0.011,1.001,4.639,6.165,-2.869, , , , , , ,-1.066,-1.802,-96.663
 12:19:41.341,eb:33:2e:f9:57:b5, 2015-01-01 00:05:58.445,0.042,-0.013,1.005,4.639,6.836,-2.747, , , , , , ,-1.044,-1.769,-96.68
 12:19:41.341,eb:33:2e:f9:57:b5, 2015-01-01 00:05:58.445,0.033,-0.013,1.003,4.517,7.69,-2.686, , , , , , ,-1.016,-1.73,-96.696
 12:19:41.341,eb:33:2e:f9:57:b5, 2015-01-01 00:05:58.445,0.03,-0.012,0.998,4.456,8.24,-2.625, , , , , , ,-0.994,-1.692,-96.707
 12:19:41.341,eb:33:2e:f9:57:b5, 2015-01-01 00:05:58.445,0.012,-0.014,0.996,4.211,8.545,-2.258, , , , , , ,-0.972,-1.648,-96.724
 12:19:41.341,eb:33:2e:f9:57:b5, 2015-01-01 00:05:58.445,0.014,-0.013,0.987,3.906,7.996,-1.892, , , , , , ,-0.956,-1.609,-96.735
 12:19:41.341,eb:33:2e:f9:57:b5, 2015-01-01 00:05:58.445,0.017,-0.008,0.986,3.601,7.874,-1.831, , , , , , ,-0.934,-1.566,-96.74
