Time,Device name,Chip Time(),Acceleration X(g),Acceleration Y(g),Acceleration Z(g),Angular velocity X(°/s),Angular velocity Y(°/s),Angular velocity Z(°/s),ShiftX(mm),ShiftY(mm),ShiftZ(mm),SpeedX(mm/s),SpeedY(mm/s),SpeedZ(mm/s),Angle X(°),Angle Y(°),Angle Z(°)
 12:25:40.179,eb:33:2e:f9:57:b5, 2015-01-01 00:11:53.755,0.016,0.019,0.996,0,-0.549,0.366, , , , , , ,1.384,-0.571,-111.786
 12:25:40.180,eb:33:2e:f9:57:b5, 2015-01-01 00:11:53.755,0.016,0.018,0.996,0,-0.427,0.366, , , , , , ,1.384,-0.571,-111.808
 12:25:40.180,eb:33:2e:f9:57:b5, 2015-01-01 00:11:53.755,0.015,0.018,0.996,-0.061,-0.427,0.366, , , , , , ,1.384,-0.571,-111.808
 12:25:40.181,eb:33:2e:f9:57:b5, 2015-01-01 00:11:53.755,0.015,0.019,0.995,-0.061,-0.488,0.427, , , , , , ,1.384,-0.577,-111.808
 12:25:40.181,eb:33:2e:f9:57:b5, 2015-01-01 00:11:53.755,0.015,0.019,0.994,-0.061,-0.488,0.366, , , , , , ,1.384,-0.577,-111.808
 12:25:40.181,eb:33:2e:f9:57:b5, 2015-01-01 00:11:53.755,0.015,0.018,0.995,-0.061,-0.549,0.366, , , , , , ,1.384,-0.571,-111.83
 12:25:40.181,eb:33:2e:f9:57:b5, 2015-01-01 00:11:53.755,0.016,0.018,0.996,-0.061,-0.549,0.366, , , , , , ,1.384,-0.571,-111.83
 12:25:40.181,eb:33:2e:f9:57:b5, 2015-01-01 00:11:53.755,0.016,0.019,0.996,-0.061,-0.549,0.366, , , , , , ,1.384,-0.577,-111.835
 12:25:40.181,eb:33:2e:f9:57:b5, 2015-01-01 00:11:53.755,0.014,0.018,0.995,0,-0.549,0.366, , , , , , ,1.384,-0.577,-111.835
 12:25:40.181,eb:33:2e:f9:57:b5, 2015-01-01 00:11:53.755,0.013,0.019,0.987,-0.732,-0.793,0.305, , , , , , ,1.384,-0.582,-111.951
 12:25:40.181,eb:33:2e:f9:57:b5, 2015-01-01 00:11:53.755,0.009,0.02,0.985,-0.916,-0.977,0.488, , , , , , ,1.384,-0.582,-111.951
 12:25:40.181,eb:33:2e:f9:57:b5, 2015-01-01 00:11:53.755,0.01,0.017,0.984,-1.038,-1.343,0.793, , , , , , ,1.384,-0.582,-111.951
 12:25:40.181,eb:33:2e:f9:57:b5, 2015-01-01 00:11:53.755,0.013,0.018,0.987,-1.099,-1.77,0.854, , , , , , ,1.384,-0.582,-111.951
 12:25:40.182,eb:33:2e:f9:57:b5, 2015-01-01 00:11:53.755,0.015,0.018,0.99,-1.221,-2.014,0.977, , , , , , ,1.384,-0.582,-111.951
 12:25:40.182,eb:33:2e:f9:57:b5, 2015-01-01 00:11:53.755,0.015,0.018,0.991,-1.282,-2.136,1.038, , , , , , ,1.384,-0.582,-111.951
 12:25:40.182,eb:33:2e:f9:57:b5, 2015-01-01 00:11:53.755,0.014,0.017,0.992,-1.404,-2.319,1.16, , , , , , ,1.384,-0.582,-111.951
 12:25:40.184,eb:33:2e:f9:57:b5, 2015-01-01 00:11:53.755,0.022,0.016,0.994,-1.465,-2.563,1.282, , , , , , ,1.373,-0.593,-111.945
 12:25:40.184,eb:33:2e:f9:57:b5, 2015-01-01 00:11:53.755,0.022,0.013,1.001,-0.122,1.404,-0.916, , , , , , ,1.187,-0.681,-111.89
 12:25:40.184,eb:33:2e:f9:57:b5, 2015-01-01 00:11:53.755,0.021,0.013,1.002,-0.061,1.526,-1.038, , , , , , ,1.187,-0.676,-111.896
 12:25:40.184,eb:33:2e:f9:57:b5, 2015-01-01 00:11:53.755,0.022,0.013,1.003,0,1.587,-1.16, , , , , , ,1.187,-0.67,-111.901
 12:25:40.184,eb:33:2e:f9:57:b5, 2015-01-01 00:11:53.755,0.024,0.013,1.002,0.061,1.77,-1.282, , , , , , ,1.187,-0.659,-111.907
 12:25:40.184,eb:33:2e:f9:57:b5, 2015-01-01 00:11:53.755,0.022,0.014,1.002,0.122,1.892,-1.404, , , , , , ,1.187,-0.648,-111.912
 12:25:40.184,eb:33:2e:f9:57:b5, 2015-01-01 00:11:53.755,0.02,0.013,1.001,0.183,2.075,-1.465, , , , , , ,1.192,-0.637,-111.918
 12:25:40.184,eb:33:2e:f9:57:b5, 2015-01-01 00:11:53.755,0.018,0.012,1,0.305,2.014,-1.648, , , , , , ,1.192,-0.632,-111.929
 12:25:40.184,eb:33:2e:f9:57:b5, 2015-01-01 00:11:53.755,0.017,0.011,1,0.366,1.953,-1.77, , , , , , ,1.192,-0.621,-111.94
 12:25:40.184,eb:33:2e:f9:57:b5, 2015-01-01 00:11:53.755,0.016,0.011,1,0.488,1.892,-1.892, , , , , , ,1.198,-0.61,-111.945
 12:25:40.184,eb:33:2e:f9:57:b5, 2015-01-01 00:11:53.755,0.016,0.011,0.998,0.671,1.77,-2.014, , , , , , ,1.203,-0.599,-111.956
 12:25:40.184,eb:33:2e:f9:57:b5, 2015-01-01 00:11:53.755,0.017,0.012,0.998,0.732,1.648,-2.136, , , , , , ,1.203,-0.593,-111.967
 12:25:40.184,eb:33:2e:f9:57:b5, 2015-01-01 00:11:53.755,0.017,0.012,0.998,0.854,1.465,-2.136, , , , , , ,1.208,-0.582,-111.978
 12:25:40.184,eb:33:2e:f9:57:b5, 2015-01-01 00:11:53.755,0.017,0.012,0.998,1.038,1.343,-2.197, , , , , , ,1.214,-0.577,-111.989
 12:25:40.185,eb:33:2e:f9:57:b5, 2015-01-01 00:11:53.755,0.018,0.012,0.997,1.099,1.221,-2.197, , , , , , ,1.219,-0.571,-112
 12:25:40.185,eb:33:2e:f9:57:b5, 2015-01-01 00:11:53.755,0.019,0.013,0.997,1.16,1.16,-2.258, , , , , , ,1.23,-0.56,-112.011
 12:25:40.316,eb:33:2e:f9:57:b5, 2015-01-01 00:11:53.755,0.021,0.014,0.998,1.282,1.099,-2.258, , , , , , ,1.236,-0.555,-112.022
 12:25:40.316,eb:33:2e:f9:57:b5, 2015-01-01 00:11:53.755,0.021,0.014,0.999,1.282,1.16,-2.197, , , , , , ,1.241,-0.549,-112.033
 12:25:40.316,eb:33:2e:f9:57:b5, 2015-01-01 00:11:53.755,0.019,0.014,1,1.404,1.221,-2.197, , , , , , ,1.247,-0.544,-112.044
 12:25:40.316,eb:33:2e:f9:57:b5, 2015-01-01 00:11:53.755,0.019,0.013,1,1.465,1.282,-2.075, , , , , , ,1.258,-0.538,-112.055
 12:25:40.316,eb:33:2e:f9:57:b5, 2015-01-01 00:11:53.755,0.017,0.012,1,1.526,1.282,-2.136, , , , , , ,1.263,-0.533,-112.066
 12:25:40.316,eb:33:2e:f9:57:b5, 2015-01-01 00:11:53.755,0.013,0.012,0.999,1.648,1.282,-2.014, , , , , , ,1.274,-0.522,-112.077
 12:25:40.316,eb:33:2e:f9:57:b5, 2015-01-01 00:11:53.755,0.016,0.011,0.997,1.77,1.221,-1.709, , , , , , ,1.285,-0.516,-112.088
 12:25:40.316,eb:33:2e:f9:57:b5, 2015-01-01 00:11:53.755,0.011,0.009,1.001,1.831,1.282,-1.465, , , , , , ,1.291,-0.511,-112.099
 12:25:40.317,eb:33:2e:f9:57:b5, 2015-01-01 00:11:53.755,0.014,0.013,0.993,1.953,1.099,-1.221, , , , , , ,1.302,-0.505,-112.104
 12:25:40.317,eb:33:2e:f9:57:b5, 2015-01-01 00:11:53.755,0.016,0.015,0.992,1.953,1.038,-0.977, , , , , , ,1.313,-0.5,-112.11
 12:25:40.317,eb:33:2e:f9:57:b5, 2015-01-01 00:11:53.755,0.015,0.016,0.992,1.77,1.099,-0.61, , , , , , ,1.324,-0.494,-112.115
 12:25:40.317,eb:33:2e:f9:57:b5, 2015-01-01 00:11:53.755,0.017,0.017,0.99,1.526,1.038,-0.366, , , , , , ,1.335,-0.489,-112.115
 12:25:40.317,eb:33:2e:f9:57:b5, 2015-01-01 00:11:53.755,0.016,0.017,0.993,1.282,1.221,-0.122, , , , , , ,1.34,-0.483,-112.115
 12:25:40.317,eb:33:2e:f9:57:b5, 2015-01-01 00:11:53.755,0.011,0.017,0.991,1.038,1.343,0.061, , , , , , ,1.346,-0.478,-112.115
 12:25:40.317,eb:33:2e:f9:57:b5, 2015-01-01 00:11:53.755,0.013,0.017,0.988,0.793,1.282,0.366, , , , , , ,1.351,-0.467,-112.115
 12:25:40.317,eb:33:2e:f9:57:b5, 2015-01-01 00:11:53.755,0.017,0.019,0.991,0.366,1.221,0.732, , , , , , ,1.357,-0.461,-112.115
 12:25:40.319,eb:33:2e:f9:57:b5, 2015-01-01 00:11:53.755,0.02,0.022,0.994,0.061,1.282,0.732, , , , , , ,1.357,-0.456,-112.11
 12:25:40.319,eb:33:2e:f9:57:b5, 2015-01-01 00:11:53.755,0.02,0.019,0.997,-0.183,1.465,0.61, , , , , , ,1.357,-0.45,-112.104
 12:25:40.319,eb:33:2e:f9:57:b5, 2015-01-01 00:11:53.755,0.021,0.019,1,-0.244,1.465,0.549, , , , , , ,1.357,-0.439,-112.104
 12:25:40.319,eb:33:2e:f9:57:b5, 2015-01-01 00:11:53.755,0.021,0.017,1.002,-0.366,1.709,0.61, , , , , , ,1.351,-0.434,-112.099
 12:25:40.319,eb:33:2e:f9:57:b5, 2015-01-01 00:11:53.755,0.023,0.016,1.003,-0.366,1.892,0.671, , , , , , ,1.351,-0.423,-112.099
 12:25:40.319,eb:33:2e:f9:57:b5, 2015-01-01 00:11:53.755,0.025,0.018,1.004,-0.366,2.136,0.671, , , , , , ,1.351,-0.412,-112.094
 12:25:40.319,eb:33:2e:f9:57:b5, 2015-01-01 00:11:53.755,0.026,0.023,1.006,-0.366,2.38,0.61, , , , , , ,1.351,-0.401,-112.088
 12:25:40.319,eb:33:2e:f9:57:b5, 2015-01-01 00:11:53.755,0.032,0.024,1.006,-0.549,2.441,0.488, , , , , , ,1.346,-0.39,-112.088
 12:25:40.336,eb:33:2e:f9:57:b5, 2015-01-01 00:11:53.755,0.041,0.039,0.999,-1.221,2.258,0.122, , , , , , ,1.34,-0.379,-112.088
 12:25:40.336,eb:33:2e:f9:57:b5, 2015-01-01 00:11:53.755,0.033,0.048,1.01,-2.502,2.502,-0.854, , , , , , ,1.335,-0.368,-112.088
 12:25:40.336,eb:33:2e:f9:57:b5, 2015-01-01 00:11:53.755,-0.001,0.062,0.991,-3.845,2.075,-1.709, , , , , , ,1.318,-0.357,-112.094
 12:25:40.336,eb:33:2e:f9:57:b5, 2015-01-01 00:11:53.755,0.006,0.072,0.982,-6.47,1.282,-1.953, , , , , , ,1.291,-0.346,-112.104
 12:25:40.336,eb:33:2e:f9:57:b5, 2015-01-01 00:11:53.755,0.106,0.146,0.987,-8.728,0.427,-4.7, , , , , , ,1.252,-0.341,-112.121
 12:25:40.336,eb:33:2e:f9:57:b5, 2015-01-01 00:11:53.755,0.07,0.182,1.018,-12.329,0.549,-9.949, , , , , , ,1.198,-0.341,-112.159
 12:25:40.336,eb:33:2e:f9:57:b5, 2015-01-01 00:11:53.755,0.032,0.258,1.019,-16.541,0.854,-15.93, , , , , , ,1.126,-0.335,-112.231
 12:25:40.336,eb:33:2e:f9:57:b5, 2015-01-01 00:11:53.755,0.014,0.296,0.973,-22.034,-0.549,-22.766, , , , , , ,1.027,-0.335,-112.33
 12:25:40.404,eb:33:2e:f9:57:b5, 2015-01-01 00:11:53.755,0.035,0.311,0.954,-27.344,-3.418,-29.602, , , , , , ,0.901,-0.341,-112.462
 12:25:40.404,eb:33:2e:f9:57:b5, 2015-01-01 00:11:53.755,0.066,0.348,0.98,-31.067,-6.409,-37.659, , , , , , ,0.753,-0.363,-112.637
 12:25:40.404,eb:33:2e:f9:57:b5, 2015-01-01 00:11:53.755,0.139,0.382,0.985,-31.494,-12.268,-46.448, , , , , , ,0.599,-0.412,-112.852
 12:25:40.404,eb:33:2e:f9:57:b5, 2015-01-01 00:11:53.755,0.144,0.529,0.941,-26.855,-22.644,-57.19, , , , , , ,0.456,-0.5,-113.115
 12:25:40.404,eb:33:2e:f9:57:b5, 2015-01-01 00:11:53.755,0.168,0.577,0.91,-18.005,-36.438,-69.458, , , , , , ,0.352,-0.654,-113.439
 12:25:40.404,eb:33:2e:f9:57:b5, 2015-01-01 00:11:53.755,0.107,0.509,0.975,-9.338,-45.349,-81.055, , , , , , ,0.291,-0.857,-113.824
 12:25:40.404,eb:33:2e:f9:57:b5, 2015-01-01 00:11:53.755,0.052,0.415,0.999,-3.54,-51.697,-86.914, , , , , , ,0.269,-1.104,-114.252
 12:25:40.404,eb:33:2e:f9:57:b5, 2015-01-01 00:11:53.755,-0.029,0.331,1.098,-3.418,-48.401,-89.417, , , , , , ,0.269,-1.357,-114.697
 12:25:40.449,eb:33:2e:f9:57:b5, 2015-01-01 00:11:53.755,-0.087,0.219,1.179,-7.324,-40.344,-86.487, , , , , , ,0.253,-1.571,-115.142
 12:25:40.449,eb:33:2e:f9:57:b5, 2015-01-01 00:11:53.755,-0.134,0.126,1.246,-14.587,-27.405,-80.261, , , , , , ,0.203,-1.736,-115.554
 12:25:40.449,eb:33:2e:f9:57:b5, 2015-01-01 00:11:53.755,-0.155,0.063,1.265,-23.071,-13.306,-71.594, , , , , , ,0.121,-1.829,-115.933
 12:25:40.449,eb:33:2e:f9:57:b5, 2015-01-01 00:11:53.755,-0.146,0.045,1.24,-30.518,-0.305,-62.561, , , , , , ,0,-1.857,-116.263
 12:25:40.449,eb:33:2e:f9:57:b5, 2015-01-01 00:11:53.755,-0.122,0.057,1.189,-34.973,9.644,-54.626, , , , , , ,-0.159,-1.829,-116.554
 12:25:40.449,eb:33:2e:f9:57:b5, 2015-01-01 00:11:53.755,-0.091,0.086,1.126,-35.339,15.564,-48.218, , , , , , ,-0.33,-1.758,-116.807
 12:25:40.449,eb:33:2e:f9:57:b5, 2015-01-01 00:11:53.755,-0.064,0.122,1.07,-31.86,17.944,-43.579, , , , , , ,-0.489,-1.675,-117.037
 12:25:40.449,eb:33:2e:f9:57:b5, 2015-01-01 00:11:53.755,-0.042,0.158,1.022,-25.635,17.334,-40.527, , , , , , ,-0.626,-1.588,-117.246
 12:25:40.449,eb:33:2e:f9:57:b5, 2015-01-01 00:11:53.755,-0.03,0.185,0.988,-18.311,14.954,-38.33, , , , , , ,-0.725,-1.511,-117.444
 12:25:40.449,eb:33:2e:f9:57:b5, 2015-01-01 00:11:53.755,-0.026,0.193,0.957,-11.414,11.597,-36.255, , , , , , ,-0.791,-1.45,-117.631
 12:25:40.449,eb:33:2e:f9:57:b5, 2015-01-01 00:11:53.755,-0.03,0.187,0.931,-6.226,7.935,-33.813, , , , , , ,-0.824,-1.401,-117.801
 12:25:40.449,eb:33:2e:f9:57:b5, 2015-01-01 00:11:53.755,-0.039,0.167,0.909,-3.418,4.333,-30.823, , , , , , ,-0.846,-1.379,-117.966
 12:25:40.451,eb:33:2e:f9:57:b5, 2015-01-01 00:11:53.755,-0.043,0.141,0.903,-2.93,1.282,-26.917, , , , , , ,-0.857,-1.368,-118.109
 12:25:40.451,eb:33:2e:f9:57:b5, 2015-01-01 00:11:53.755,-0.045,0.11,0.922,-4.028,-0.183,-22.278, , , , , , ,-0.868,-1.368,-118.229
 12:25:40.451,eb:33:2e:f9:57:b5, 2015-01-01 00:11:53.755,-0.049,0.081,0.964,-5.676,0.549,-16.968, , , , , , ,-0.89,-1.368,-118.328
 12:25:40.451,eb:33:2e:f9:57:b5, 2015-01-01 00:11:53.755,-0.046,0.057,0.999,-6.653,2.747,-11.719, , , , , , ,-0.923,-1.362,-118.394
 12:25:40.563,eb:33:2e:f9:57:b5, 2015-01-01 00:11:53.755,-0.046,0.045,1.025,-6.226,6.042,-6.47, , , , , , ,-0.95,-1.335,-118.438
 12:25:40.563,eb:33:2e:f9:57:b5, 2015-01-01 00:11:53.755,-0.044,0.043,1.029,-4.272,9.216,-1.892, , , , , , ,-0.978,-1.296,-118.46
 12:25:40.563,eb:33:2e:f9:57:b5, 2015-01-01 00:11:53.755,-0.041,0.043,1.019,-1.099,11.475,2.136, , , , , , ,-0.989,-1.241,-118.455
 12:25:40.563,eb:33:2e:f9:57:b5, 2015-01-01 00:11:53.755,-0.04,0.052,0.982,3.174,11.902,6.287, , , , , , ,-0.983,-1.181,-118.433
 12:25:40.563,eb:33:2e:f9:57:b5, 2015-01-01 00:11:53.755,-0.036,0.061,0.945,6.409,10.986,8.972, , , , , , ,-0.956,-1.126,-118.394
 12:25:40.563,eb:33:2e:f9:57:b5, 2015-01-01 00:11:53.755,-0.03,0.073,0.923,9.033,9.155,11.23, , , , , , ,-0.917,-1.077,-118.345
 12:25:40.564,eb:33:2e:f9:57:b5, 2015-01-01 00:11:53.755,-0.026,0.071,0.912,11.23,6.714,13.55, , , , , , ,-0.862,-1.038,-118.284
 12:25:40.564,eb:33:2e:f9:57:b5, 2015-01-01 00:11:53.755,-0.018,0.071,0.917,12.756,4.578,15.442, , , , , , ,-0.802,-1.005,-118.207
 12:25:40.787,eb:33:2e:f9:57:b5, 2015-01-01 00:11:53.755,-0.017,0.062,0.928,13.611,3.174,17.334, , , , , , ,-0.736,-0.989,-118.125
 12:25:40.787,eb:33:2e:f9:57:b5, 2015-01-01 00:11:53.755,-0.01,0.059,0.933,14.038,2.258,19.043, , , , , , ,-0.67,-0.972,-118.037
 12:25:40.787,eb:33:2e:f9:57:b5, 2015-01-01 00:11:53.755,-0.015,0.046,0.94,14.343,1.831,20.325, , , , , , ,-0.599,-0.961,-117.938
 12:25:40.787,eb:33:2e:f9:57:b5, 2015-01-01 00:11:53.755,-0.011,0.05,0.952,14.954,1.953,21.667, , , , , , ,-0.527,-0.95,-117.828
 12:25:40.787,eb:33:2e:f9:57:b5, 2015-01-01 00:11:53.755,-0.012,0.043,0.965,16.296,2.502,22.461, , , , , , ,-0.45,-0.939,-117.719
 12:25:40.787,eb:33:2e:f9:57:b5, 2015-01-01 00:11:53.755,-0.008,0.05,0.973,18.188,3.113,22.949, , , , , , ,-0.363,-0.923,-117.609
 12:25:40.789,eb:33:2e:f9:57:b5, 2015-01-01 00:11:53.755,-0.006,0.049,0.983,20.508,4.395,23.01, , , , , , ,-0.269,-0.906,-117.493
 12:25:40.789,eb:33:2e:f9:57:b5, 2015-01-01 00:11:53.755,0,0.048,0.979,23.01,5.371,22.949, , , , , , ,-0.159,-0.879,-117.378
 12:25:40.789,eb:33:2e:f9:57:b5, 2015-01-01 00:11:53.755,0.012,0.056,0.977,25.085,6.714,21.851, , , , , , ,-0.038,-0.846,-117.268
 12:25:40.789,eb:33:2e:f9:57:b5, 2015-01-01 00:11:53.755,0.018,0.05,0.977,27.1,7.996,21.118, , , , , , ,0.088,-0.807,-117.158
 12:25:40.789,eb:33:2e:f9:57:b5, 2015-01-01 00:11:53.755,0.023,0.055,0.971,28.564,9.277,20.02, , , , , , ,0.225,-0.764,-117.054
 12:25:40.789,eb:33:2e:f9:57:b5, 2015-01-01 00:11:53.755,0.04,0.065,0.932,29.724,8.057,18.127, , , , , , ,0.374,-0.725,-116.96
 12:25:40.789,eb:33:2e:f9:57:b5, 2015-01-01 00:11:53.755,0.052,0.072,0.894,30.212,5.554,15.32, , , , , , ,0.522,-0.687,-116.878
 12:25:40.790,eb:33:2e:f9:57:b5, 2015-01-01 00:11:53.755,0.059,0.073,0.877,30.579,2.258,12.39, , , , , , ,0.676,-0.67,-116.812
 12:25:40.790,eb:33:2e:f9:57:b5, 2015-01-01 00:11:53.755,0.064,0.07,0.882,31.128,-1.038,9.094, , , , , , ,0.829,-0.67,-116.757
 12:25:40.790,eb:33:2e:f9:57:b5, 2015-01-01 00:11:53.755,0.076,0.066,0.896,31.799,-3.906,5.676, , , , , , ,0.989,-0.687,-116.724
 12:25:40.792,eb:33:2e:f9:57:b5, 2015-01-01 00:11:53.755,0.068,0.06,0.921,32.715,-5.188,2.441, , , , , , ,1.148,-0.709,-116.708
 12:25:40.792,eb:33:2e:f9:57:b5, 2015-01-01 00:11:53.755,0.064,0.042,0.93,33.997,-6.104,-0.61, , , , , , ,1.318,-0.736,-116.702
 12:25:40.792,eb:33:2e:f9:57:b5, 2015-01-01 00:11:53.755,0.063,0.029,0.944,35.4,-5.676,-3.235, , , , , , ,1.494,-0.769,-116.713
 12:25:40.792,eb:33:2e:f9:57:b5, 2015-01-01 00:11:53.755,0.062,0.016,0.964,36.987,-4.272,-5.981, , , , , , ,1.675,-0.791,-116.741
 12:25:40.792,eb:33:2e:f9:57:b5, 2015-01-01 00:11:53.755,0.061,0.003,0.979,38.94,-2.258,-8.606, , , , , , ,1.868,-0.807,-116.779
 12:25:40.792,eb:33:2e:f9:57:b5, 2015-01-01 00:11:53.755,0.068,-0.012,0.981,40.771,0.305,-11.108, , , , , , ,2.071,-0.807,-116.834
 12:25:40.792,eb:33:2e:f9:57:b5, 2015-01-01 00:11:53.755,0.202,-0.065,0.983,37.292,3.723,-13.184, , , , , , ,2.274,-0.797,-116.895
 12:25:40.792,eb:33:2e:f9:57:b5, 2015-01-01 00:11:53.755,0.103,-0.892,1.144,-10.986,26.367,-7.019, , , , , , ,2.335,-0.714,-116.944
 12:25:40.854,eb:33:2e:f9:57:b5, 2015-01-01 00:11:53.755,0.148,-1.056,0.77,-56.274,46.448,7.446, , , , , , ,2.12,-0.511,-116.927
 12:25:40.854,eb:33:2e:f9:57:b5, 2015-01-01 00:11:53.755,0.547,-0.482,0.771,-46.143,33.264,-0.244, , , , , , ,1.851,-0.308,-116.895
 12:25:40.854,eb:33:2e:f9:57:b5, 2015-01-01 00:11:53.755,0.755,-0.429,0.308,-20.203,-12.573,-27.222, , , , , , ,1.703,-0.264,-116.971
 12:25:40.854,eb:33:2e:f9:57:b5, 2015-01-01 00:11:53.755,0.739,-0.498,-0.026,-14.893,-58.411,-52.795, , , , , , ,1.631,-0.478,-117.197
 12:25:40.854,eb:33:2e:f9:57:b5, 2015-01-01 00:11:53.755,0.649,-0.873,0.424,-33.997,-62.744,-63.721, , , , , , ,1.511,-0.786,-117.51
 12:25:40.854,eb:33:2e:f9:57:b5, 2015-01-01 00:11:53.755,-0.468,-1.526,2.765,-57.678,11.841,-48.34, , , , , , ,1.263,-0.934,-117.801
 12:25:40.854,eb:33:2e:f9:57:b5, 2015-01-01 00:11:53.755,-0.068,-1.492,2.089,-31.494,42.419,-16.052, , , , , , ,1.049,-0.725,-117.938
 12:25:40.854,eb:33:2e:f9:57:b5, 2015-01-01 00:11:53.755,0.161,-0.449,1.361,-15.686,39.062,-3.967, , , , , , ,0.95,-0.533,-117.977
 12:25:40.929,eb:33:2e:f9:57:b5, 2015-01-01 00:11:53.755,0.013,0.044,1.011,-20.02,45.532,1.099, , , , , , ,0.862,-0.319,-117.977
 12:25:40.929,eb:33:2e:f9:57:b5, 2015-01-01 00:11:53.755,0.015,0.012,1,-1.038,0.305,-0.549, , , , , , ,0.879,0.209,-118.273
 12:25:40.929,eb:33:2e:f9:57:b5, 2015-01-01 00:11:53.755,0.017,0.01,1.003,-1.16,0.671,-0.244, , , , , , ,0.873,0.209,-118.279
 12:25:40.929,eb:33:2e:f9:57:b5, 2015-01-01 00:11:53.755,0.017,0.014,1.004,-1.221,1.343,-0.183, , , , , , ,0.868,0.214,-118.279
 12:25:40.929,eb:33:2e:f9:57:b5, 2015-01-01 00:11:53.755,0.013,0.01,1.003,-1.221,1.892,0, , , , , , ,0.862,0.225,-118.279
 12:25:40.929,eb:33:2e:f9:57:b5, 2015-01-01 00:11:53.755,0.016,0.007,1.002,-1.282,2.197,0.244, , , , , , ,0.857,0.236,-118.279
 12:25:40.929,eb:33:2e:f9:57:b5, 2015-01-01 00:11:53.755,0.011,0.009,1.003,-1.221,2.502,0.183, , , , , , ,0.851,0.247,-118.279
 12:25:40.929,eb:33:2e:f9:57:b5, 2015-01-01 00:11:53.755,0.01,0.007,1.001,-1.16,2.991,0.305, , , , , , ,0.846,0.258,-118.279
 12:25:41.016,eb:33:2e:f9:57:b5, 2015-01-01 00:11:53.755,0.005,0.006,1.001,-1.099,3.174,0.549, , , , , , ,0.84,0.275,-118.273
 12:25:41.016,eb:33:2e:f9:57:b5, 2015-01-01 00:11:53.755,0,0.006,0.999,-0.977,3.174,0.61, , , , , , ,0.835,0.291,-118.273
 12:25:41.016,eb:33:2e:f9:57:b5, 2015-01-01 00:11:53.755,-0.003,0.006,0.995,-0.916,2.869,0.793, , , , , , ,0.829,0.308,-118.268
 12:25:41.016,eb:33:2e:f9:57:b5, 2015-01-01 00:11:53.755,-0.007,0.007,0.993,-0.854,2.502,0.61, , , , , , ,0.824,0.319,-118.262
 12:25:41.016,eb:33:2e:f9:57:b5, 2015-01-01 00:11:53.755,-0.003,0.005,0.992,-0.977,2.014,0.61, , , , , , ,0.824,0.33,-118.262
 12:25:41.016,eb:33:2e:f9:57:b5, 2015-01-01 00:11:53.755,0,0.003,0.996,-0.793,1.648,0.671, , , , , , ,0.818,0.341,-118.257
 12:25:41.016,eb:33:2e:f9:57:b5, 2015-01-01 00:11:53.755,0.001,0,1,-0.488,1.587,0.732, , , , , , ,0.813,0.346,-118.251
 12:25:41.016,eb:33:2e:f9:57:b5, 2015-01-01 00:11:53.755,0.001,-0.001,1.001,-0.061,1.465,0.916, , , , , , ,0.813,0.357,-118.251
 12:25:41.036,eb:33:2e:f9:57:b5, 2015-01-01 00:11:53.755,-0.002,0,1.001,0.122,1.404,1.038, , , , , , ,0.813,0.363,-118.246
 12:25:41.037,eb:33:2e:f9:57:b5, 2015-01-01 00:11:53.755,-0.003,0.003,0.997,0.305,1.099,1.038, , , , , , ,0.818,0.368,-118.24
 12:25:41.037,eb:33:2e:f9:57:b5, 2015-01-01 00:11:53.755,-0.004,0.007,0.996,0.305,0.916,0.977, , , , , , ,0.818,0.374,-118.235
 12:25:41.037,eb:33:2e:f9:57:b5, 2015-01-01 00:11:53.755,0,0.008,0.994,0.305,0.61,1.038, , , , , , ,0.824,0.379,-118.229
 12:25:41.037,eb:33:2e:f9:57:b5, 2015-01-01 00:11:53.755,0.001,0.008,0.995,0.366,0.366,0.977, , , , , , ,0.824,0.379,-118.224
 12:25:41.037,eb:33:2e:f9:57:b5, 2015-01-01 00:11:53.755,0.001,0.008,0.997,0.366,0.305,0.854, , , , , , ,0.824,0.385,-118.218
 12:25:41.037,eb:33:2e:f9:57:b5, 2015-01-01 00:11:53.755,0.001,0.009,0.996,0.244,0.183,0.854, , , , , , ,0.829,0.385,-118.218
 12:25:41.037,eb:33:2e:f9:57:b5, 2015-01-01 00:11:53.755,0.003,0.009,0.997,0.183,0.183,0.793, , , , , , ,0.829,0.385,-118.213
 12:25:41.123,eb:33:2e:f9:57:b5, 2015-01-01 00:11:53.755,0.005,0.009,0.997,0.183,0.061,0.793, , , , , , ,0.829,0.385,-118.207
 12:25:41.123,eb:33:2e:f9:57:b5, 2015-01-01 00:11:53.755,0.004,0.008,0.997,0.244,0.122,0.732, , , , , , ,0.835,0.385,-118.207
 12:25:41.123,eb:33:2e:f9:57:b5, 2015-01-01 00:11:53.755,0.005,0.009,0.998,0.244,0.183,0.732, , , , , , ,0.835,0.385,-118.202
 12:25:41.123,eb:33:2e:f9:57:b5, 2015-01-01 00:11:53.755,0.005,0.009,0.998,0.244,0.305,0.61, , , , , , ,0.835,0.39,-118.196
 12:25:41.123,eb:33:2e:f9:57:b5, 2015-01-01 00:11:53.755,0.005,0.009,0.997,0.244,0.366,0.671, , , , , , ,0.84,0.39,-118.196
 12:25:41.123,eb:33:2e:f9:57:b5, 2015-01-01 00:11:53.755,0.003,0.009,0.997,0.122,0.488,0.671, , , , , , ,0.84,0.39,-118.191
 12:25:41.123,eb:33:2e:f9:57:b5, 2015-01-01 00:11:53.755,0.001,0.009,0.996,0,0.488,0.61, , , , , , ,0.84,0.396,-118.191
 12:25:41.123,eb:33:2e:f9:57:b5, 2015-01-01 00:11:53.755,0.002,0.009,0.994,0,0.488,0.488, , , , , , ,0.84,0.396,-118.185
 12:25:41.126,eb:33:2e:f9:57:b5, 2015-01-01 00:11:53.755,0.002,0.01,0.996,0,0.488,0.427, , , , , , ,0.84,0.401,-118.185
 12:25:41.126,eb:33:2e:f9:57:b5, 2015-01-01 00:11:53.755,0.003,0.008,0.997,0,0.427,0.427, , , , , , ,0.84,0.401,-118.18
 12:25:41.126,eb:33:2e:f9:57:b5, 2015-01-01 00:11:53.755,0,0.006,0.999,0,0.488,0.366, , , , , , ,0.84,0.406,-118.18
 12:25:41.126,eb:33:2e:f9:57:b5, 2015-01-01 00:11:53.755,0.002,0.006,0.996,0.061,0.366,0.244, , , , , , ,0.846,0.406,-118.18
 12:25:41.126,eb:33:2e:f9:57:b5, 2015-01-01 00:11:53.755,0.001,0.005,0.997,0.183,0.366,0.244, , , , , , ,0.846,0.406,-118.18
 12:25:41.126,eb:33:2e:f9:57:b5, 2015-01-01 00:11:53.755,0.002,0.006,0.997,0.244,0.305,0.305, , , , , , ,0.846,0.412,-118.174
 12:25:41.126,eb:33:2e:f9:57:b5, 2015-01-01 00:11:53.755,0.005,0.005,0.997,0.305,0.183,0.305, , , , , , ,0.846,0.412,-118.174
 12:25:41.126,eb:33:2e:f9:57:b5, 2015-01-01 00:11:53.755,0.004,0.006,0.999,0.427,0.305,0.366, , , , , , ,0.851,0.412,-118.174
 12:25:41.126,eb:33:2e:f9:57:b5, 2015-01-01 00:11:53.755,0.001,0.007,0.998,0.488,0.305,0.366, , , , , , ,0.851,0.412,-118.174
 12:25:41.126,eb:33:2e:f9:57:b5, 2015-01-01 00:11:53.755,0.001,0.011,0.995,0.061,0.305,0.244, , , , , , ,0.879,0.434,-118.163
 12:25:41.126,eb:33:2e:f9:57:b5, 2015-01-01 00:11:53.755,0.001,0.01,0.995,0.061,0.244,0.244, , , , , , ,0.879,0.434,-118.163
 12:25:41.126,eb:33:2e:f9:57:b5, 2015-01-01 00:11:53.755,0.003,0.009,0.996,0,0.244,0.183, , , , , , ,0.879,0.434,-118.158
 12:25:41.126,eb:33:2e:f9:57:b5, 2015-01-01 00:11:53.755,0.003,0.009,0.997,0,0.305,0.244, , , , , , ,0.879,0.439,-118.158
 12:25:41.126,eb:33:2e:f9:57:b5, 2015-01-01 00:11:53.755,0.004,0.008,0.997,0,0.366,0.244, , , , , , ,0.879,0.439,-118.158
 12:25:41.126,eb:33:2e:f9:57:b5, 2015-01-01 00:11:53.755,0.001,0.009,0.997,0,0.427,0.244, , , , , , ,0.879,0.439,-118.158
 12:25:41.126,eb:33:2e:f9:57:b5, 2015-01-01 00:11:53.755,0,0.009,0.995,-0.122,0.427,0.244, , , , , , ,0.879,0.445,-118.158
 12:25:41.146,eb:33:2e:f9:57:b5, 2015-01-01 00:11:53.755,0.002,0.008,0.995,-0.183,0.366,0.244, , , , , , ,0.879,0.445,-118.152
 12:25:41.146,eb:33:2e:f9:57:b5, 2015-01-01 00:11:53.755,0.002,0.008,0.996,-0.183,0.366,0.183, , , , , , ,0.879,0.445,-118.152
 12:25:41.146,eb:33:2e:f9:57:b5, 2015-01-01 00:11:53.755,0.002,0.008,0.997,-0.122,0.366,0.244, , , , , , ,0.879,0.45,-118.152
 12:25:41.146,eb:33:2e:f9:57:b5, 2015-01-01 00:11:53.755,0.003,0.008,0.998,-0.183,0.427,0.244, , , , , , ,0.879,0.45,-118.152
 12:25:41.146,eb:33:2e:f9:57:b5, 2015-01-01 00:11:53.755,0.003,0.008,0.998,-0.122,0.366,0.244, , , , , , ,0.879,0.45,-118.152
 12:25:41.146,eb:33:2e:f9:57:b5, 2015-01-01 00:11:53.755,0.002,0.008,0.997,-0.122,0.366,0.244, , , , , , ,0.879,0.456,-118.147
 12:25:41.146,eb:33:2e:f9:57:b5, 2015-01-01 00:11:53.755,0.001,0.008,0.996,-0.061,0.427,0.183, , , , , , ,0.879,0.456,-118.147
 12:25:41.146,eb:33:2e:f9:57:b5, 2015-01-01 00:11:53.755,0.002,0.007,0.997,0,0.366,0.183, , , , , , ,0.879,0.456,-118.147
 12:25:41.150,eb:33:2e:f9:57:b5, 2015-01-01 00:11:53.755,0.003,0.007,0.998,0,0.366,0.122, , , , , , ,0.879,0.461,-118.147
 12:25:41.150,eb:33:2e:f9:57:b5, 2015-01-01 00:11:53.755,0.002,0.005,0.999,0.061,0.427,0.061, , , , , , ,0.879,0.461,-118.147
 12:25:41.150,eb:33:2e:f9:57:b5, 2015-01-01 00:11:53.755,0.002,0.006,0.998,0.183,0.427,0.122, , , , , , ,0.879,0.467,-118.147
 12:25:41.150,eb:33:2e:f9:57:b5, 2015-01-01 00:11:53.755,0.003,0.007,0.998,0.244,0.427,0.122, , , , , , ,0.884,0.467,-118.147
 12:25:41.150,eb:33:2e:f9:57:b5, 2015-01-01 00:11:53.755,0.003,0.006,0.998,0.366,0.427,0.061, , , , , , ,0.884,0.467,-118.147
 12:25:41.150,eb:33:2e:f9:57:b5, 2015-01-01 00:11:53.755,0.002,0.007,0.998,0.427,0.549,0.122, , , , , , ,0.89,0.472,-118.147
 12:25:41.151,eb:33:2e:f9:57:b5, 2015-01-01 00:11:53.755,0.002,0.008,0.998,0.488,0.549,0.061, , , , , , ,0.89,0.472,-118.141
 12:25:41.151,eb:33:2e:f9:57:b5, 2015-01-01 00:11:53.755,0.001,0.009,0.998,0.427,0.61,0, , , , , , ,0.895,0.478,-118.147
 12:25:41.238,eb:33:2e:f9:57:b5, 2015-01-01 00:11:53.755,0.002,0.008,0.996,0.488,0.427,0, , , , , , ,0.895,0.478,-118.147
 12:25:41.238,eb:33:2e:f9:57:b5, 2015-01-01 00:11:53.755,0,0.009,0.997,0.488,0.549,0, , , , , , ,0.901,0.483,-118.147
 12:25:41.238,eb:33:2e:f9:57:b5, 2015-01-01 00:11:53.755,0.001,0.009,0.996,0.549,0.427,0, , , , , , ,0.901,0.483,-118.147
 12:25:41.238,eb:33:2e:f9:57:b5, 2015-01-01 00:11:53.755,0.001,0.008,0.997,0.549,0.488,-0.061, , , , , , ,0.906,0.489,-118.147
 12:25:41.238,eb:33:2e:f9:57:b5, 2015-01-01 00:11:53.755,0.001,0.008,0.997,0.488,0.427,0, , , , , , ,0.906,0.489,-118.147
 12:25:41.238,eb:33:2e:f9:57:b5, 2015-01-01 00:11:53.755,0.003,0.008,0.997,0.488,0.427,0, , , , , , ,0.912,0.494,-118.147
 12:25:41.238,eb:33:2e:f9:57:b5, 2015-01-01 00:11:53.755,0.002,0.008,0.997,0.488,0.488,0, , , , , , ,0.912,0.494,-118.147
 12:25:41.238,eb:33:2e:f9:57:b5, 2015-01-01 00:11:53.755,0.001,0.009,0.996,0.488,0.549,0, , , , , , ,0.917,0.494,-118.147
 12:25:41.238,eb:33:2e:f9:57:b5, 2015-01-01 00:11:53.755,0.003,0.009,0.996,0.427,0.549,0, , , , , , ,0.917,0.5,-118.147
 12:25:41.238,eb:33:2e:f9:57:b5, 2015-01-01 00:11:53.755,0.003,0.008,0.999,0.549,0.732,0, , , , , , ,0.923,0.5,-118.147
 12:25:41.238,eb:33:2e:f9:57:b5, 2015-01-01 00:11:53.755,0.001,0.007,0.999,0.61,0.732,0.061, , , , , , ,0.928,0.505,-118.147
 12:25:41.238,eb:33:2e:f9:57:b5, 2015-01-01 00:11:53.755,0,0.009,0.997,0.671,0.732,0.061, , , , , , ,0.928,0.511,-118.147
 12:25:41.238,eb:33:2e:f9:57:b5, 2015-01-01 00:11:53.755,0.001,0.009,0.996,0.61,0.732,0.061, , , , , , ,0.934,0.511,-118.147
 12:25:41.239,eb:33:2e:f9:57:b5, 2015-01-01 00:11:53.755,0.002,0.01,0.997,0.671,0.732,0.122, , , , , , ,0.939,0.516,-118.147
 12:25:41.239,eb:33:2e:f9:57:b5, 2015-01-01 00:11:53.755,0.002,0.009,0.998,0.671,0.854,0.061, , , , , , ,0.939,0.522,-118.147
 12:25:41.239,eb:33:2e:f9:57:b5, 2015-01-01 00:11:53.755,0.002,0.007,0.999,0.732,0.854,0.122, , , , , , ,0.945,0.527,-118.147
 12:25:41.283,eb:33:2e:f9:57:b5, 2015-01-01 00:11:55.945,0,0.009,0.998,0.793,0.977,0.061, , , , , , ,0.95,0.527,-118.147
 12:25:41.283,eb:33:2e:f9:57:b5, 2015-01-01 00:11:55.945,0,0.01,0.995,0.732,0.854,0.061, , , , , , ,0.956,0.533,-118.147
 12:25:41.283,eb:33:2e:f9:57:b5, 2015-01-01 00:11:55.945,0,0.011,0.995,0.732,0.854,0, , , , , , ,0.961,0.538,-118.147
 12:25:41.283,eb:33:2e:f9:57:b5, 2015-01-01 00:11:55.945,0,0.011,0.993,0.61,0.793,0, , , , , , ,0.961,0.544,-118.147
 12:25:41.283,eb:33:2e:f9:57:b5, 2015-01-01 00:11:55.945,0,0.011,0.994,0.549,0.732,0, , , , , , ,0.967,0.549,-118.147
 12:25:41.283,eb:33:2e:f9:57:b5, 2015-01-01 00:11:55.945,0,0.01,0.993,0.488,0.61,-0.061, , , , , , ,0.967,0.549,-118.147
 12:25:41.284,eb:33:2e:f9:57:b5, 2015-01-01 00:11:55.945,0,0.01,0.994,0.488,0.549,0, , , , , , ,0.972,0.555,-118.147
 12:25:41.284,eb:33:2e:f9:57:b5, 2015-01-01 00:11:55.945,0,0.011,0.995,0.366,0.61,-0.061, , , , , , ,0.972,0.555,-118.147
 12:25:41.306,eb:33:2e:f9:57:b5, 2015-01-01 00:11:55.945,0.001,0.01,0.996,0.366,0.61,-0.061, , , , , , ,0.978,0.56,-118.147
 12:25:41.306,eb:33:2e:f9:57:b5, 2015-01-01 00:11:55.945,0.001,0.009,0.997,0.366,0.61,-0.061, , , , , , ,0.978,0.56,-118.147
 12:25:41.306,eb:33:2e:f9:57:b5, 2015-01-01 00:11:55.945,0.001,0.009,0.998,0.366,0.671,-0.122, , , , , , ,0.983,0.566,-118.147
 12:25:41.306,eb:33:2e:f9:57:b5, 2015-01-01 00:11:55.945,0.001,0.01,0.997,0.305,0.732,-0.061, , , , , , ,0.983,0.571,-118.152
 12:25:41.306,eb:33:2e:f9:57:b5, 2015-01-01 00:11:55.945,0,0.01,0.998,0.366,0.732,-0.061, , , , , , ,0.989,0.571,-118.152
 12:25:41.306,eb:33:2e:f9:57:b5, 2015-01-01 00:11:55.945,0,0.01,0.997,0.366,0.793,-0.122, , , , , , ,0.989,0.577,-118.152
 12:25:41.306,eb:33:2e:f9:57:b5, 2015-01-01 00:11:55.945,0,0.01,0.997,0.305,0.793,-0.183, , , , , , ,0.989,0.582,-118.152
 12:25:41.306,eb:33:2e:f9:57:b5, 2015-01-01 00:11:55.945,0,0.009,0.997,0.305,0.732,-0.183, , , , , , ,0.994,0.582,-118.152
 12:25:41.373,eb:33:2e:f9:57:b5, 2015-01-01 00:11:55.945,0.001,0.01,0.998,0.366,0.732,-0.122, , , , , , ,0.994,0.588,-118.152
 12:25:41.373,eb:33:2e:f9:57:b5, 2015-01-01 00:11:55.945,0.001,0.009,0.999,0.427,0.793,-0.122, , , , , , ,1,0.593,-118.158
 12:25:41.373,eb:33:2e:f9:57:b5, 2015-01-01 00:11:55.945,0.002,0.009,0.999,0.488,0.793,-0.183, , , , , , ,1,0.599,-118.158
 12:25:41.373,eb:33:2e:f9:57:b5, 2015-01-01 00:11:55.945,0.002,0.008,0.999,0.671,0.916,-0.122, , , , , , ,1.005,0.599,-118.158
 12:25:41.373,eb:33:2e:f9:57:b5, 2015-01-01 00:11:55.945,0.001,0.007,1,0.732,0.977,-0.061, , , , , , ,1.005,0.604,-118.158
 12:25:41.373,eb:33:2e:f9:57:b5, 2015-01-01 00:11:55.945,0.001,0.007,1,0.854,1.038,0, , , , , , ,1.011,0.61,-118.158
 12:25:41.373,eb:33:2e:f9:57:b5, 2015-01-01 00:11:55.945,0.001,0.008,1,0.916,1.099,0, , , , , , ,1.016,0.615,-118.158
 12:25:41.373,eb:33:2e:f9:57:b5, 2015-01-01 00:11:55.945,0.001,0.008,0.999,0.977,1.099,0, , , , , , ,1.022,0.621,-118.158
 12:25:41.373,eb:33:2e:f9:57:b5, 2015-01-01 00:11:55.945,0,0.009,0.998,1.038,1.16,0.061, , , , , , ,1.027,0.626,-118.158
 12:25:41.373,eb:33:2e:f9:57:b5, 2015-01-01 00:11:55.945,-0.001,0.01,0.997,1.038,1.16,0.061, , , , , , ,1.033,0.632,-118.158
 12:25:41.374,eb:33:2e:f9:57:b5, 2015-01-01 00:11:55.945,-0.002,0.011,0.997,1.038,1.099,0.061, , , , , , ,1.038,0.637,-118.158
 12:25:41.374,eb:33:2e:f9:57:b5, 2015-01-01 00:11:55.945,-0.003,0.01,0.996,1.099,0.977,0.061, , , , , , ,1.044,0.643,-118.158
 12:25:41.374,eb:33:2e:f9:57:b5, 2015-01-01 00:11:55.945,-0.002,0.01,0.996,1.038,0.916,0, , , , , , ,1.049,0.648,-118.158
 12:25:41.374,eb:33:2e:f9:57:b5, 2015-01-01 00:11:55.945,-0.002,0.01,0.996,1.038,0.854,0.061, , , , , , ,1.055,0.654,-118.158
 12:25:41.374,eb:33:2e:f9:57:b5, 2015-01-01 00:11:55.945,-0.001,0.01,0.996,1.038,0.854,0.061, , , , , , ,1.06,0.659,-118.158
 12:25:41.374,eb:33:2e:f9:57:b5, 2015-01-01 00:11:55.945,-0.002,0.012,0.995,1.038,0.854,0.061, , , , , , ,1.066,0.659,-118.158
 12:25:41.417,eb:33:2e:f9:57:b5, 2015-01-01 00:11:55.945,-0.002,0.011,0.995,0.854,0.732,0, , , , , , ,1.071,0.665,-118.158
 12:25:41.417,eb:33:2e:f9:57:b5, 2015-01-01 00:11:55.945,0,0.011,0.995,0.916,0.671,0.061, , , , , , ,1.077,0.67,-118.158
 12:25:41.417,eb:33:2e:f9:57:b5, 2015-01-01 00:11:55.945,-0.001,0.012,0.995,0.793,0.793,0.122, , , , , , ,1.082,0.67,-118.158
 12:25:41.417,eb:33:2e:f9:57:b5, 2015-01-01 00:11:55.945,0,0.013,0.995,0.793,0.732,0.061, , , , , , ,1.088,0.676,-118.158
 12:25:41.417,eb:33:2e:f9:57:b5, 2015-01-01 00:11:55.945,0,0.012,0.995,0.732,0.732,0.122, , , , , , ,1.093,0.681,-118.158
 12:25:41.417,eb:33:2e:f9:57:b5, 2015-01-01 00:11:55.945,0,0.012,0.995,0.61,0.854,0.183, , , , , , ,1.093,0.687,-118.158
 12:25:41.417,eb:33:2e:f9:57:b5, 2015-01-01 00:11:55.945,0,0.012,0.995,0.488,0.977,0.305, , , , , , ,1.099,0.687,-118.158
 12:25:41.418,eb:33:2e:f9:57:b5, 2015-01-01 00:11:55.945,0.001,0.013,0.996,0.244,1.282,0.366, , , , , , ,1.099,0.692,-118.152
 12:25:41.484,eb:33:2e:f9:57:b5, 2015-01-01 00:11:55.945,-0.001,0.013,0.997,0.061,1.648,0.61, , , , , , ,1.104,0.703,-118.152
 12:25:41.484,eb:33:2e:f9:57:b5, 2015-01-01 00:11:55.945,-0.005,0.014,0.994,-0.122,2.075,0.854, , , , , , ,1.104,0.714,-118.147
 12:25:41.484,eb:33:2e:f9:57:b5, 2015-01-01 00:11:55.945,-0.007,0.016,0.992,-0.61,2.502,1.099, , , , , , ,1.099,0.725,-118.141
 12:25:41.484,eb:33:2e:f9:57:b5, 2015-01-01 00:11:55.945,-0.006,0.016,0.991,-1.16,2.869,1.587, , , , , , ,1.099,0.736,-118.136
 12:25:41.484,eb:33:2e:f9:57:b5, 2015-01-01 00:11:55.945,-0.005,0.017,0.99,-1.587,2.991,1.892, , , , , , ,1.088,0.753,-118.125
 12:25:41.484,eb:33:2e:f9:57:b5, 2015-01-01 00:11:55.945,-0.008,0.016,0.989,-1.77,2.747,1.892, , , , , , ,1.082,0.764,-118.12
 12:25:41.484,eb:33:2e:f9:57:b5, 2015-01-01 00:11:55.945,-0.009,0.016,0.988,-1.892,2.197,1.709, , , , , , ,1.071,0.78,-118.109
 12:25:41.484,eb:33:2e:f9:57:b5, 2015-01-01 00:11:55.945,-0.006,0.013,0.989,-1.892,1.709,1.526, , , , , , ,1.066,0.786,-118.103
 12:25:41.666,eb:33:2e:f9:57:b5, 2015-01-01 00:11:55.945,-0.006,0.011,0.991,-2.075,1.587,1.77, , , , , , ,1.055,0.797,-118.092
 12:25:41.666,eb:33:2e:f9:57:b5, 2015-01-01 00:11:55.945,-0.004,0.01,0.992,-2.319,1.526,2.136, , , , , , ,1.044,0.802,-118.081
 12:25:41.666,eb:33:2e:f9:57:b5, 2015-01-01 00:11:55.945,-0.015,0.014,0.993,-2.625,1.648,2.258, , , , , , ,1.033,0.813,-118.07
 12:25:41.666,eb:33:2e:f9:57:b5, 2015-01-01 00:11:55.945,-0.013,0.012,0.985,-2.869,1.16,2.441, , , , , , ,1.016,0.818,-118.059
 12:25:41.666,eb:33:2e:f9:57:b5, 2015-01-01 00:11:55.945,-0.009,0.014,0.987,-3.052,0.549,2.258, , , , , , ,1.005,0.818,-118.048
 12:25:41.666,eb:33:2e:f9:57:b5, 2015-01-01 00:11:55.945,-0.011,0.014,0.988,-3.235,0,1.953, , , , , , ,0.989,0.824,-118.037
 12:25:41.666,eb:33:2e:f9:57:b5, 2015-01-01 00:11:55.945,-0.012,0.014,0.988,-3.357,-0.549,1.587, , , , , , ,0.972,0.818,-118.032
 12:25:41.666,eb:33:2e:f9:57:b5, 2015-01-01 00:11:55.945,-0.011,0.013,0.987,-3.418,-1.282,1.282, , , , , , ,0.956,0.813,-118.021
 12:25:41.666,eb:33:2e:f9:57:b5, 2015-01-01 00:11:55.945,-0.011,0.012,0.988,-3.601,-1.831,1.038, , , , , , ,0.939,0.807,-118.015
 12:25:41.666,eb:33:2e:f9:57:b5, 2015-01-01 00:11:55.945,-0.011,0.013,0.988,-3.784,-2.319,0.793, , , , , , ,0.917,0.797,-118.015
 12:25:41.666,eb:33:2e:f9:57:b5, 2015-01-01 00:11:55.945,-0.013,0.015,0.988,-4.272,-2.686,0.854, , , , , , ,0.901,0.78,-118.01
 12:25:41.667,eb:33:2e:f9:57:b5, 2015-01-01 00:11:55.945,-0.01,0.017,0.986,-4.822,-3.052,0.977, , , , , , ,0.873,0.769,-118.004
 12:25:41.667,eb:33:2e:f9:57:b5, 2015-01-01 00:11:55.945,-0.006,0.017,0.988,-5.371,-3.54,0.854, , , , , , ,0.851,0.753,-117.999
 12:25:41.667,eb:33:2e:f9:57:b5, 2015-01-01 00:11:55.945,-0.002,0.014,0.992,-5.676,-3.906,0.671, , , , , , ,0.824,0.731,-117.999
 12:25:41.667,eb:33:2e:f9:57:b5, 2015-01-01 00:11:55.945,0.001,0.008,0.998,-5.676,-4.15,0.427, , , , , , ,0.797,0.709,-117.993
 12:25:41.667,eb:33:2e:f9:57:b5, 2015-01-01 00:11:55.945,0.005,0.004,1.003,-5.493,-4.211,0.305, , , , , , ,0.769,0.687,-117.993
 12:25:41.709,eb:33:2e:f9:57:b5, 2015-01-01 00:11:55.945,0.005,0.001,1.004,-5.188,-4.211,0.244, , , , , , ,0.742,0.67,-117.993
 12:25:41.709,eb:33:2e:f9:57:b5, 2015-01-01 00:11:55.945,0.004,-0.001,1.005,-4.761,-4.15,0.244, , , , , , ,0.714,0.648,-117.993
 12:25:41.709,eb:33:2e:f9:57:b5, 2015-01-01 00:11:55.945,0.005,-0.001,1.005,-4.456,-4.089,0.183, , , , , , ,0.692,0.626,-117.993
 12:25:41.709,eb:33:2e:f9:57:b5, 2015-01-01 00:11:55.945,0.006,-0.002,1.003,-4.089,-4.15,0.122, , , , , , ,0.67,0.604,-117.993
 12:25:41.709,eb:33:2e:f9:57:b5, 2015-01-01 00:11:55.945,0.013,-0.004,1.007,-3.723,-3.967,0.244, , , , , , ,0.654,0.582,-117.993
 12:25:41.709,eb:33:2e:f9:57:b5, 2015-01-01 00:11:55.945,0.013,-0.007,1.011,-3.235,-3.357,0.488, , , , , , ,0.637,0.566,-117.988
 12:25:41.709,eb:33:2e:f9:57:b5, 2015-01-01 00:11:55.945,0.009,-0.004,1.007,-2.869,-2.808,0.732, , , , , , ,0.621,0.549,-117.988
 12:25:41.709,eb:33:2e:f9:57:b5, 2015-01-01 00:11:55.945,0.007,-0.003,1.005,-2.563,-2.441,0.793, , , , , , ,0.61,0.538,-117.982
 12:25:41.711,eb:33:2e:f9:57:b5, 2015-01-01 00:11:55.945,0.004,-0.002,1.004,-2.258,-2.136,0.854, , , , , , ,0.599,0.527,-117.977
 12:25:41.711,eb:33:2e:f9:57:b5, 2015-01-01 00:11:55.945,0.001,0,1.002,-2.075,-1.892,0.732, , , , , , ,0.588,0.516,-117.977
 12:25:41.711,eb:33:2e:f9:57:b5, 2015-01-01 00:11:55.945,0,0,1,-1.953,-1.77,0.732, , , , , , ,0.577,0.505,-117.971
 12:25:41.711,eb:33:2e:f9:57:b5, 2015-01-01 00:11:55.945,0.003,0.001,0.999,-1.831,-1.77,0.732, , , , , , ,0.566,0.494,-117.971
 12:25:41.711,eb:33:2e:f9:57:b5, 2015-01-01 00:11:55.945,0.004,0.001,1,-1.709,-1.587,0.61, , , , , , ,0.56,0.489,-117.966
 12:25:41.711,eb:33:2e:f9:57:b5, 2015-01-01 00:11:55.945,0.005,-0.001,1.002,-1.526,-1.465,0.549, , , , , , ,0.549,0.478,-117.96
 12:25:41.711,eb:33:2e:f9:57:b5, 2015-01-01 00:11:55.945,0.005,-0.002,1.002,-1.343,-1.221,0.427, , , , , , ,0.544,0.472,-117.96
 12:25:41.711,eb:33:2e:f9:57:b5, 2015-01-01 00:11:55.945,0.004,-0.001,1.002,-1.099,-1.038,0.305, , , , , , ,0.538,0.467,-117.96
 12:25:41.713,eb:33:2e:f9:57:b5, 2015-01-01 00:11:55.945,0.01,0,1.002,-0.854,-0.793,0.122, , , , , , ,0.533,0.461,-117.96
 12:25:41.713,eb:33:2e:f9:57:b5, 2015-01-01 00:11:55.945,0.01,-0.007,1.007,1.16,1.709,-0.61, , , , , , ,0.544,0.478,-117.971
 12:25:41.713,eb:33:2e:f9:57:b5, 2015-01-01 00:11:55.945,0.02,-0.017,1.007,1.77,1.892,-0.122, , , , , , ,0.549,0.489,-117.977
 12:25:41.713,eb:33:2e:f9:57:b5, 2015-01-01 00:11:55.945,0.031,-0.021,1.011,2.441,2.38,0.549, , , , , , ,0.56,0.5,-117.977
 12:25:41.713,eb:33:2e:f9:57:b5, 2015-01-01 00:11:55.945,0.022,-0.015,1.016,3.113,3.54,1.282, , , , , , ,0.577,0.511,-117.971
 12:25:41.713,eb:33:2e:f9:57:b5, 2015-01-01 00:11:55.945,0.007,-0.006,1.012,3.662,4.395,1.404, , , , , , ,0.593,0.533,-117.96
 12:25:41.713,eb:33:2e:f9:57:b5, 2015-01-01 00:11:55.945,0,0,1.006,4.028,4.761,1.221, , , , , , ,0.615,0.555,-117.955
 12:25:41.714,eb:33:2e:f9:57:b5, 2015-01-01 00:11:55.945,0.003,0.001,1.002,4.333,4.883,0.916, , , , , , ,0.632,0.582,-117.949
 12:25:41.800,eb:33:2e:f9:57:b5, 2015-01-01 00:11:55.945,0.003,-0.002,1.006,4.761,5.066,0.854, , , , , , ,0.659,0.604,-117.944
 12:25:41.800,eb:33:2e:f9:57:b5, 2015-01-01 00:11:55.945,0.005,-0.004,1.006,5.188,5.31,0.854, , , , , , ,0.681,0.632,-117.944
 12:25:41.800,eb:33:2e:f9:57:b5, 2015-01-01 00:11:55.945,0.004,-0.004,1.006,5.554,5.493,0.977, , , , , , ,0.709,0.659,-117.938
 12:25:41.800,eb:33:2e:f9:57:b5, 2015-01-01 00:11:55.945,0.006,-0.005,1.008,5.981,5.737,1.16, , , , , , ,0.742,0.687,-117.933
 12:25:41.800,eb:33:2e:f9:57:b5, 2015-01-01 00:11:55.945,0,-0.003,1.011,6.592,6.104,1.221, , , , , , ,0.775,0.714,-117.927
 12:25:41.800,eb:33:2e:f9:57:b5, 2015-01-01 00:11:55.945,-0.002,-0.005,1.009,7.263,5.859,1.282, , , , , , ,0.807,0.747,-117.916
 12:25:41.800,eb:33:2e:f9:57:b5, 2015-01-01 00:11:55.945,-0.004,-0.013,1.016,7.935,5.737,1.587, , , , , , ,0.846,0.775,-117.911
 12:25:41.800,eb:33:2e:f9:57:b5, 2015-01-01 00:11:55.945,-0.009,-0.018,1.021,9.033,5.676,1.587, , , , , , ,0.89,0.802,-117.905
 12:25:42.091,eb:33:2e:f9:57:b5, 2015-01-01 00:11:56.505,0.001,-0.007,1.014,9.583,4.944,1.282, , , , , , ,0.939,0.829,-117.894
 12:25:42.091,eb:33:2e:f9:57:b5, 2015-01-01 00:11:56.505,0.011,-0.002,0.996,9.521,3.601,0, , , , , , ,0.989,0.851,-117.894
 12:25:42.091,eb:33:2e:f9:57:b5, 2015-01-01 00:11:56.505,-0.045,-0.031,1.045,12.207,0.671,-0.793, , , , , , ,1.038,0.862,-117.894
 12:25:42.091,eb:33:2e:f9:57:b5, 2015-01-01 00:11:56.505,0.011,-0.073,1.064,18.555,-6.592,-0.977, , , , , , ,1.121,0.84,-117.9
 12:25:42.091,eb:33:2e:f9:57:b5, 2015-01-01 00:11:56.505,0.088,-0.021,1.103,25.208,-12.817,-2.502, , , , , , ,1.236,0.791,-117.911
 12:25:42.091,eb:33:2e:f9:57:b5, 2015-01-01 00:11:56.505,0.161,0.067,1.216,31.677,-14.648,-7.202, , , , , , ,1.379,0.72,-117.938
 12:25:42.091,eb:33:2e:f9:57:b5, 2015-01-01 00:11:56.505,0.149,0.062,1.357,36.743,-10.559,-11.963, , , , , , ,1.555,0.654,-117.993
 12:25:42.091,eb:33:2e:f9:57:b5, 2015-01-01 00:11:56.505,0.056,-0.046,1.509,38.757,2.686,-13.306, , , , , , ,1.741,0.637,-118.059
 12:25:42.116,eb:33:2e:f9:57:b5, 2015-01-01 00:11:56.505,0.099,-0.126,1.439,42.053,13.367,-11.047, , , , , , ,1.945,0.692,-118.12
 12:25:42.116,eb:33:2e:f9:57:b5, 2015-01-01 00:11:56.505,0.152,-0.032,1.302,46.326,17.334,-11.719, , , , , , ,2.17,0.775,-118.169
 12:25:42.116,eb:33:2e:f9:57:b5, 2015-01-01 00:11:56.505,0.157,0.029,1.27,50.842,19.409,-14.709, , , , , , ,2.411,0.868,-118.235
 12:25:42.116,eb:33:2e:f9:57:b5, 2015-01-01 00:11:56.505,0.147,0.022,1.3,55.359,21.973,-17.517, , , , , , ,2.681,0.978,-118.312
 12:25:42.116,eb:33:2e:f9:57:b5, 2015-01-01 00:11:56.505,0.147,0.002,1.314,59.387,24.963,-19.104, , , , , , ,2.966,1.099,-118.4
 12:25:42.116,eb:33:2e:f9:57:b5, 2015-01-01 00:11:56.505,0.156,-0.003,1.338,61.707,30.945,-19.653, , , , , , ,3.274,1.247,-118.493
 12:25:42.116,eb:33:2e:f9:57:b5, 2015-01-01 00:11:56.505,0.171,0.003,1.362,64.514,37.964,-20.142, , , , , , ,3.587,1.428,-118.581
 12:25:42.116,eb:33:2e:f9:57:b5, 2015-01-01 00:11:56.505,0.234,0.017,1.269,67.932,39.856,-21.729, , , , , , ,3.917,1.631,-118.674
 12:25:42.116,eb:33:2e:f9:57:b5, 2015-01-01 00:11:56.505,0.231,0.063,1.189,70.618,40.283,-24.902, , , , , , ,4.263,1.84,-118.773
 12:25:42.116,eb:33:2e:f9:57:b5, 2015-01-01 00:11:56.505,0.117,0.134,1.199,73.364,41.077,-29.114, , , , , , ,4.62,2.054,-118.894
 12:25:42.116,eb:33:2e:f9:57:b5, 2015-01-01 00:11:56.505,0.109,0.106,1.306,79.895,40.344,-33.813, , , , , , ,4.999,2.269,-119.037
 12:25:42.116,eb:33:2e:f9:57:b5, 2015-01-01 00:11:56.505,0.082,0.095,1.369,86.548,40.527,-36.255, , , , , , ,5.411,2.488,-119.196
 12:25:42.116,eb:33:2e:f9:57:b5, 2015-01-01 00:11:56.505,0.106,0.144,1.321,92.102,38.391,-37.964, , , , , , ,5.856,2.703,-119.366
 12:25:42.117,eb:33:2e:f9:57:b5, 2015-01-01 00:11:56.505,0.11,0.144,1.292,96.619,37.231,-39.307, , , , , , ,6.323,2.906,-119.537
 12:25:42.117,eb:33:2e:f9:57:b5, 2015-01-01 00:11:56.505,0.19,0.223,1.259,103.638,33.63,-40.894, , , , , , ,6.817,3.109,-119.718
 12:25:42.117,eb:33:2e:f9:57:b5, 2015-01-01 00:11:56.505,0.257,0.359,1.188,111.633,25.33,-48.035, , , , , , ,7.344,3.279,-119.921
 12:25:42.138,eb:33:2e:f9:57:b5, 2015-01-01 00:11:56.505,0.254,0.354,1.095,116.272,18.005,-56.519, , , , , , ,7.905,3.417,-120.174
 12:25:42.138,eb:33:2e:f9:57:b5, 2015-01-01 00:11:56.505,0.176,0.211,1.213,112,22.705,-59.57, , , , , , ,8.465,3.554,-120.454
 12:25:42.138,eb:33:2e:f9:57:b5, 2015-01-01 00:11:56.505,0.122,0.049,1.524,106.567,39.978,-57.19, , , , , , ,8.987,3.757,-120.718
 12:25:42.138,eb:33:2e:f9:57:b5, 2015-01-01 00:11:56.505,0.136,-0.038,1.59,104.004,58.472,-51.941, , , , , , ,9.498,4.048,-120.938
 12:25:42.138,eb:33:2e:f9:57:b5, 2015-01-01 00:11:56.505,0.146,0,1.428,99.243,72.205,-48.889, , , , , , ,9.992,4.422,-121.13
 12:25:42.138,eb:33:2e:f9:57:b5, 2015-01-01 00:11:56.505,0.144,0.084,1.386,92.346,83.679,-46.326, , , , , , ,10.453,4.856,-121.295
 12:25:42.138,eb:33:2e:f9:57:b5, 2015-01-01 00:11:56.505,0.108,0.1,1.453,89.417,96.619,-45.471, , , , , , ,10.893,5.345,-121.432
 12:25:42.138,eb:33:2e:f9:57:b5, 2015-01-01 00:11:56.505,0.107,0.087,1.381,89.905,105.164,-44.434, , , , , , ,11.332,5.889,-121.553
 12:25:42.498,eb:33:2e:f9:57:b5, 2015-01-01 00:11:56.505,0.107,0.077,1.202,90.332,107.361,-43.701, , , , , , ,11.772,6.454,-121.663
 12:25:42.498,eb:33:2e:f9:57:b5, 2015-01-01 00:11:56.505,0.115,0.055,1.099,85.876,107.91,-42.297, , , , , , ,12.2,7.026,-121.761
 12:25:42.498,eb:33:2e:f9:57:b5, 2015-01-01 00:11:56.505,0.129,-0.046,1.226,74.768,117.981,-35.461, , , , , , ,12.59,7.619,-121.827
 12:25:42.498,eb:33:2e:f9:57:b5, 2015-01-01 00:11:56.505,0.272,-0.242,1.376,61.401,137.085,-26.001, , , , , , ,12.925,8.278,-121.833
 12:25:42.498,eb:33:2e:f9:57:b5, 2015-01-01 00:11:56.505,0.334,-0.512,1.151,47.607,150.757,-14.648, , , , , , ,13.2,9.009,-121.761
 12:25:42.498,eb:33:2e:f9:57:b5, 2015-01-01 00:11:56.505,0.319,-0.555,0.775,35.339,150.879,-4.089, , , , , , ,13.425,9.761,-121.619
 12:25:42.498,eb:33:2e:f9:57:b5, 2015-01-01 00:11:56.505,0.366,-0.449,0.369,25.757,126.831,3.357, , , , , , ,13.601,10.437,-121.454
 12:25:42.498,eb:33:2e:f9:57:b5, 2015-01-01 00:11:56.505,0.463,-0.417,0.12,21.545,84.656,8.301, , , , , , ,13.744,10.926,-121.3
 12:25:42.498,eb:33:2e:f9:57:b5, 2015-01-01 00:11:56.505,0.477,-0.353,-0.018,19.226,35.706,8.789, , , , , , ,13.865,11.179,-121.19
 12:25:42.499,eb:33:2e:f9:57:b5, 2015-01-01 00:11:56.505,0.452,-0.969,1.056,-102.539,-90.149,-25.269, , , , , , ,11.525,4.312,-121.448
 12:25:42.499,eb:33:2e:f9:57:b5, 2015-01-01 00:11:56.505,0.431,-0.952,1.075,-108.093,-90.759,-25.33, , , , , , ,10.975,3.895,-121.663
 12:25:42.499,eb:33:2e:f9:57:b5, 2015-01-01 00:11:56.505,0.414,-0.921,1.087,-112.671,-92.041,-25.208, , , , , , ,10.399,3.461,-121.871
 12:25:42.499,eb:33:2e:f9:57:b5, 2015-01-01 00:11:56.505,0.4,-0.881,1.096,-116.089,-93.933,-25.024, , , , , , ,9.816,3.021,-122.08
 12:25:42.499,eb:33:2e:f9:57:b5, 2015-01-01 00:11:56.505,0.388,-0.837,1.111,-118.713,-96.069,-24.78, , , , , , ,9.218,2.576,-122.283
 12:25:42.499,eb:33:2e:f9:57:b5, 2015-01-01 00:11:56.505,0.372,-0.795,1.132,-120.728,-97.839,-24.475, , , , , , ,8.608,2.115,-122.476
 12:25:42.499,eb:33:2e:f9:57:b5, 2015-01-01 00:11:56.505,0.357,-0.754,1.151,-122.742,-99.182,-23.987, , , , , , ,7.982,1.631,-122.673
 12:25:42.587,eb:33:2e:f9:57:b5, 2015-01-01 00:11:56.505,0.346,-0.712,1.168,-124.634,-99.976,-23.132, , , , , , ,7.361,1.154,-122.855
 12:25:42.587,eb:33:2e:f9:57:b5, 2015-01-01 00:11:56.505,0.333,-0.666,1.18,-126.648,-100.22,-22.278, , , , , , ,6.729,0.67,-123.03
 12:25:42.587,eb:33:2e:f9:57:b5, 2015-01-01 00:11:56.505,0.317,-0.614,1.185,-128.357,-100.586,-21.484, , , , , , ,6.092,0.187,-123.195
 12:25:42.587,eb:33:2e:f9:57:b5, 2015-01-01 00:11:56.505,0.303,-0.567,1.186,-129.7,-101.257,-20.813, , , , , , ,5.433,-0.313,-123.349
 12:25:42.587,eb:33:2e:f9:57:b5, 2015-01-01 00:11:56.505,0.288,-0.522,1.193,-130.676,-101.807,-20.02, , , , , , ,4.785,-0.807,-123.497
 12:25:42.587,eb:33:2e:f9:57:b5, 2015-01-01 00:11:56.505,0.268,-0.487,1.207,-131.042,-102.051,-19.226, , , , , , ,4.131,-1.307,-123.635
 12:25:42.587,eb:33:2e:f9:57:b5, 2015-01-01 00:11:56.505,0.245,-0.459,1.222,-130.92,-102.112,-17.944, , , , , , ,3.483,-1.813,-123.761
 12:25:42.587,eb:33:2e:f9:57:b5, 2015-01-01 00:11:56.505,0.211,-0.433,1.226,-130.676,-102.173,-16.357, , , , , , ,2.818,-2.324,-123.876
 12:25:42.591,eb:33:2e:f9:57:b5, 2015-01-01 00:11:56.505,0.177,-0.405,1.208,-130.188,-103.516,-14.465, , , , , , ,2.17,-2.834,-123.975
 12:25:42.591,eb:33:2e:f9:57:b5, 2015-01-01 00:11:56.505,0.142,-0.371,1.196,-129.822,-105.835,-12.573, , , , , , ,1.527,-3.362,-124.058
 12:25:42.591,eb:33:2e:f9:57:b5, 2015-01-01 00:11:56.505,0.109,-0.33,1.2,-129.578,-108.337,-10.62, , , , , , ,0.884,-3.895,-124.129
 12:25:42.591,eb:33:2e:f9:57:b5, 2015-01-01 00:11:56.505,0.075,-0.285,1.23,-128.967,-109.558,-8.423, , , , , , ,0.231,-4.449,-124.184
 12:25:42.591,eb:33:2e:f9:57:b5, 2015-01-01 00:11:56.505,0.035,-0.24,1.273,-127.991,-108.765,-5.981, , , , , , ,-0.401,-4.999,-124.217
 12:25:42.591,eb:33:2e:f9:57:b5, 2015-01-01 00:11:56.505,-0.012,-0.196,1.307,-126.648,-106.14,-3.235, , , , , , ,-1.038,-5.532,-124.228
 12:25:42.591,eb:33:2e:f9:57:b5, 2015-01-01 00:11:56.505,-0.047,-0.143,1.315,-125,-101.379,0.671, , , , , , ,-1.664,-6.053,-124.222
 12:25:42.591,eb:33:2e:f9:57:b5, 2015-01-01 00:11:56.505,-0.077,-0.094,1.304,-123.596,-97.107,4.517, , , , , , ,-2.302,-6.553,-124.189
 12:25:42.591,eb:33:2e:f9:57:b5, 2015-01-01 00:11:56.505,0.046,-0.047,1.281,-121.765,-93.262,8.789, , , , , , ,-2.922,-7.026,-124.135
 12:25:42.591,eb:33:2e:f9:57:b5, 2015-01-01 00:11:56.505,-0.046,-0.059,1.206,36.56,29.785,3.235, , , , , , ,-0.412,2.17,-123.525
 12:25:42.591,eb:33:2e:f9:57:b5, 2015-01-01 00:11:56.505,-0.159,-0.063,1.134,39.734,31.128,3.174, , , , , , ,-0.22,2.324,-123.508
 12:25:42.591,eb:33:2e:f9:57:b5, 2015-01-01 00:11:56.505,-0.137,-0.108,1.118,46.692,21.973,2.563, , , , , , ,0,2.461,-123.492
 12:25:42.591,eb:33:2e:f9:57:b5, 2015-01-01 00:11:56.505,-0.161,-0.109,1.239,57.678,10.925,-3.479, , , , , , ,0.258,2.532,-123.497
 12:25:42.591,eb:33:2e:f9:57:b5, 2015-01-01 00:11:56.505,-0.061,-0.194,1.277,68.604,4.761,-4.333, , , , , , ,0.582,2.571,-123.514
 12:25:42.592,eb:33:2e:f9:57:b5, 2015-01-01 00:11:56.505,-0.06,-0.065,1.217,76.355,-1.892,-6.348, , , , , , ,0.95,2.571,-123.541
 12:25:42.592,eb:33:2e:f9:57:b5, 2015-01-01 00:11:56.505,-0.036,-0.099,1.351,83.801,-3.296,-7.385, , , , , , ,1.351,2.554,-123.58
 12:25:42.677,eb:33:2e:f9:57:b5, 2015-01-01 00:11:56.505,0.081,-0.09,1.336,90.149,-3.296,-8.545, , , , , , ,1.791,2.538,-123.618
 12:25:42.677,eb:33:2e:f9:57:b5, 2015-01-01 00:11:56.505,0.123,-0.018,1.305,95.398,-1.892,-11.169, , , , , , ,2.252,2.527,-123.668
 12:25:42.677,eb:33:2e:f9:57:b5, 2015-01-01 00:11:56.505,0.101,-0.005,1.309,96.252,7.263,-12.878, , , , , , ,2.73,2.543,-123.734
 12:25:42.677,eb:33:2e:f9:57:b5, 2015-01-01 00:11:56.505,0.094,0.041,1.229,97.229,13.55,-14.465, , , , , , ,3.214,2.604,-123.799
 12:25:42.677,eb:33:2e:f9:57:b5, 2015-01-01 00:11:56.505,0.074,0.102,1.156,96.619,17.395,-16.479, , , , , , ,3.697,2.686,-123.871
 12:25:42.677,eb:33:2e:f9:57:b5, 2015-01-01 00:11:56.505,0.025,0.09,1.105,94.666,22.583,-18.555, , , , , , ,4.169,2.796,-123.953
 12:25:42.677,eb:33:2e:f9:57:b5, 2015-01-01 00:11:56.505,0.021,0.084,1.052,91.37,28.32,-19.348, , , , , , ,4.631,2.933,-124.036
 12:25:42.677,eb:33:2e:f9:57:b5, 2015-01-01 00:11:56.505,0.001,0.118,0.935,88.196,31.006,-21.301, , , , , , ,5.076,3.093,-124.129
 12:25:42.681,eb:33:2e:f9:57:b5, 2015-01-01 00:11:56.505,-0.177,0.13,0.915,84.473,33.691,-22.461, , , , , , ,5.499,3.263,-124.222
 12:25:42.681,eb:33:2e:f9:57:b5, 2015-01-01 00:11:56.505,-0.184,0.132,0.819,48.523,35.156,-21.118, , , , , , ,8.35,5.136,-125.123
 12:25:42.681,eb:33:2e:f9:57:b5, 2015-01-01 00:11:56.505,-0.192,0.127,0.811,46.326,31.86,-18.799, , , , , , ,8.58,5.317,-125.195
 12:25:42.681,eb:33:2e:f9:57:b5, 2015-01-01 00:11:56.505,-0.2,0.129,0.806,43.823,28.687,-16.296, , , , , , ,8.8,5.477,-125.261
 12:25:42.681,eb:33:2e:f9:57:b5, 2015-01-01 00:11:56.505,-0.193,0.143,0.77,40.466,25.452,-13.489, , , , , , ,9.003,5.62,-125.31
 12:25:42.681,eb:33:2e:f9:57:b5, 2015-01-01 00:11:56.505,-0.162,0.164,0.769,36.621,21.912,-11.108, , , , , , ,9.19,5.746,-125.349
 12:25:42.681,eb:33:2e:f9:57:b5, 2015-01-01 00:11:56.505,-0.134,0.171,0.849,34.424,19.47,-10.01, , , , , , ,9.366,5.856,-125.387
 12:25:42.681,eb:33:2e:f9:57:b5, 2015-01-01 00:11:56.505,-0.147,0.184,0.948,33.203,17.456,-8.85, , , , , , ,9.531,5.949,-125.42
 12:25:42.681,eb:33:2e:f9:57:b5, 2015-01-01 00:11:56.505,-0.127,0.136,1.031,33.752,15.198,-7.69, , , , , , ,9.695,6.037,-125.447
 12:25:42.681,eb:33:2e:f9:57:b5, 2015-01-01 00:11:56.505,-0.102,0.092,1.225,37.72,13.611,-6.897, , , , , , ,9.871,6.114,-125.464
 12:25:42.681,eb:33:2e:f9:57:b5, 2015-01-01 00:11:56.505,-0.104,0.042,1.4,45.044,13.184,-5.554, , , , , , ,10.08,6.185,-125.486
 12:25:42.681,eb:33:2e:f9:57:b5, 2015-01-01 00:11:56.505,-0.114,0.01,1.539,55.237,12.39,-4.272, , , , , , ,10.333,6.251,-125.497
 12:25:42.682,eb:33:2e:f9:57:b5, 2015-01-01 00:11:56.505,-0.131,-0.03,1.627,67.871,10.681,-2.747, , , , , , ,10.646,6.312,-125.508
 12:25:42.682,eb:33:2e:f9:57:b5, 2015-01-01 00:11:56.505,-0.106,-0.08,1.681,81.36,9.155,-0.061, , , , , , ,11.025,6.361,-125.497
 12:25:42.682,eb:33:2e:f9:57:b5, 2015-01-01 00:11:56.505,-0.026,-0.132,1.89,98.816,8.728,1.648, , , , , , ,11.486,6.4,-125.486
 12:25:42.682,eb:33:2e:f9:57:b5, 2015-01-01 00:11:56.505,0.026,-0.16,2.109,120.85,9.338,2.563, , , , , , ,12.047,6.443,-125.464
 12:25:42.768,eb:33:2e:f9:57:b5, 2015-01-01 00:11:56.505,0.091,-0.194,2.272,145.142,12.39,2.136, , , , , , ,12.728,6.493,-125.442
 12:25:42.768,eb:33:2e:f9:57:b5, 2015-01-01 00:11:56.505,0.169,-0.227,2.408,169.189,20.203,2.319, , , , , , ,13.53,6.57,-125.409
 12:25:42.768,eb:33:2e:f9:57:b5, 2015-01-01 00:11:56.505,0.276,-0.25,2.458,193.359,31.128,2.136, , , , , , ,14.453,6.696,-125.365
 12:25:42.768,eb:33:2e:f9:57:b5, 2015-01-01 00:11:56.505,0.362,-0.164,2.568,220.825,39.795,-1.892, , , , , , ,15.507,6.872,-125.321
 12:25:42.768,eb:33:2e:f9:57:b5, 2015-01-01 00:11:56.505,0.429,-0.171,2.592,251.282,55.969,-8.911, , , , , , ,16.705,7.114,-125.283
 12:25:42.768,eb:33:2e:f9:57:b5, 2015-01-01 00:11:56.505,0.561,-0.192,2.669,273.926,75.256,-11.963, , , , , , ,18.034,7.454,-125.228
 12:25:42.768,eb:33:2e:f9:57:b5, 2015-01-01 00:11:56.505,0.64,-0.046,2.413,298.218,83.069,-23.499, , , , , , ,19.484,7.861,-125.189
 12:25:42.768,eb:33:2e:f9:57:b5, 2015-01-01 00:11:56.505,0.667,-0.085,2.63,320.068,99.609,-32.471, , , , , , ,21.044,8.339,-125.167
 12:25:42.768,eb:33:2e:f9:57:b5, 2015-01-01 00:11:56.505,0.704,-0.104,2.777,340.027,126.099,-40.955, , , , , , ,22.714,8.948,-125.118
 12:25:42.768,eb:33:2e:f9:57:b5, 2015-01-01 00:11:56.505,0.503,-0.221,2.631,359.497,145.264,-50.11, , , , , , ,24.483,9.673,-125.052
 12:25:42.768,eb:33:2e:f9:57:b5, 2015-01-01 00:11:56.505,0.5,-0.109,2.557,383.179,156.921,-58.594, , , , , , ,26.362,10.481,-124.975
 12:25:42.768,eb:33:2e:f9:57:b5, 2015-01-01 00:11:56.505,0.347,-0.162,2.466,405.64,157.043,-67.505, , , , , , ,28.361,11.327,-124.898
 12:25:42.769,eb:33:2e:f9:57:b5, 2015-01-01 00:11:56.505,0.089,-0.165,2.547,423.584,149.048,-75.012, , , , , , ,30.454,12.167,-124.838
 12:25:42.769,eb:33:2e:f9:57:b5, 2015-01-01 00:11:56.505,0.069,-0.331,2.768,439.087,147.217,-74.951, , , , , , ,32.635,12.997,-124.766
 12:25:42.769,eb:33:2e:f9:57:b5, 2015-01-01 00:11:56.505,-0.051,-0.316,2.431,454.834,137.512,-75.195, , , , , , ,34.898,13.793,-124.684
 12:25:42.769,eb:33:2e:f9:57:b5, 2015-01-01 00:11:56.505,-0.17,-0.384,2.523,460.144,133.057,-66.345, , , , , , ,37.216,14.54,-124.574
 12:25:42.858,eb:33:2e:f9:57:b5, 2015-01-01 00:11:56.505,-0.111,-0.215,2.462,465.637,114.38,-59.631, , , , , , ,39.567,15.216,-124.42
 12:25:42.858,eb:33:2e:f9:57:b5, 2015-01-01 00:11:56.505,-0.265,0.057,2.551,462.952,87.341,-56.946, , , , , , ,41.918,15.776,-124.321
 12:25:42.858,eb:33:2e:f9:57:b5, 2015-01-01 00:11:56.505,-0.289,0.162,2.723,440.613,70.557,-52.795, , , , , , ,44.198,16.243,-124.255
 12:25:42.858,eb:33:2e:f9:57:b5, 2015-01-01 00:11:56.505,-0.158,0.44,2.575,403.625,52.551,-51.331, , , , , , ,46.291,16.633,-124.228
 12:25:42.858,eb:33:2e:f9:57:b5, 2015-01-01 00:11:56.505,-0.062,0.368,2.519,359.375,54.321,-48.584, , , , , , ,48.186,16.99,-124.211
 12:25:42.858,eb:33:2e:f9:57:b5, 2015-01-01 00:11:56.505,-0.245,-0.127,2.62,326.05,85.632,-36.743, , , , , , ,49.911,17.386,-124.063
 12:25:42.858,eb:33:2e:f9:57:b5, 2015-01-01 00:11:56.505,0.128,-0.182,2.782,322.327,129.883,-20.813, , , , , , ,51.625,17.842,-123.706
 12:25:42.858,eb:33:2e:f9:57:b5, 2015-01-01 00:11:56.505,-0.703,-1.162,2.909,358.032,209.656,11.292, , , , , , ,53.542,18.391,-122.992
 12:25:42.858,eb:33:2e:f9:57:b5, 2015-01-01 00:11:56.505,-1.244,0.194,-0.051,339.966,213.257,51.208, , , , , , ,55.684,18.891,-121.943
 12:25:42.859,eb:33:2e:f9:57:b5, 2015-01-01 00:11:56.505,-0.786,1.334,-1.889,206.116,160.95,106.018, , , , , , ,57.332,19.045,-120.883
 12:25:42.859,eb:33:2e:f9:57:b5, 2015-01-01 00:11:56.505,-0.285,0.282,-0.863,100.586,126.282,149.17, , , , , , ,58.354,18.847,-119.894
 12:25:42.859,eb:33:2e:f9:57:b5, 2015-01-01 00:11:56.505,-0.052,-0.32,0.077,33.752,132.629,187.439, , , , , , ,58.958,18.435,-118.85
 12:25:42.859,eb:33:2e:f9:57:b5, 2015-01-01 00:11:56.505,0.154,-0.429,1.288,24.78,156.982,207.886, , , , , , ,59.453,17.946,-117.642
 12:25:42.859,eb:33:2e:f9:57:b5, 2015-01-01 00:11:56.505,0.267,-0.009,2.339,57.739,178.833,208.74, , , , , , ,60.068,17.474,-116.301
 12:25:42.859,eb:33:2e:f9:57:b5, 2015-01-01 00:11:56.505,0.314,0.519,3.019,114.075,180.237,191.284, , , , , , ,60.919,17.051,-114.961
 12:25:42.859,eb:33:2e:f9:57:b5, 2015-01-01 00:11:56.505,0.276,0.868,3.082,172.607,155.09,160.645, , , , , , ,62.007,16.683,-113.763
 12:25:42.900,eb:33:2e:f9:57:b5, 2015-01-01 00:11:57.575,0.216,0.881,2.546,215.149,113.953,125.305, , , , , , ,63.27,16.37,-112.819
 12:25:42.900,eb:33:2e:f9:57:b5, 2015-01-01 00:11:57.575,0.196,0.632,1.952,234.985,72.632,91.614, , , , , , ,64.6,16.095,-112.159
 12:25:42.900,eb:33:2e:f9:57:b5, 2015-01-01 00:11:57.575,0.224,0.313,1.753,236.084,41.504,61.34, , , , , , ,65.896,15.87,-111.747
 12:25:42.900,eb:33:2e:f9:57:b5, 2015-01-01 00:11:57.575,0.254,0.052,2.017,226.074,26.55,34.424, , , , , , ,67.099,15.727,-111.511
 12:25:42.900,eb:33:2e:f9:57:b5, 2015-01-01 00:11:57.575,0.341,-0.147,2.587,212.646,27.039,10.559, , , , , , ,68.236,15.683,-111.346
 12:25:42.900,eb:33:2e:f9:57:b5, 2015-01-01 00:11:57.575,0.542,-0.317,3.261,200.989,41.87,-11.658, , , , , , ,69.307,15.76,-111.176
 12:25:42.900,eb:33:2e:f9:57:b5, 2015-01-01 00:11:57.575,0.732,-0.481,3.784,190.979,71.838,-38.33, , , , , , ,70.345,15.985,-110.94
 12:25:42.900,eb:33:2e:f9:57:b5, 2015-01-01 00:11:57.575,0.923,-0.608,3.793,184.631,96.924,-60.913, , , , , , ,71.356,16.37,-110.605
 12:25:42.924,eb:33:2e:f9:57:b5, 2015-01-01 00:11:57.575,1.096,-0.708,3.52,177.917,116.821,-84.778, , , , , , ,72.378,16.897,-110.182
 12:25:42.924,eb:33:2e:f9:57:b5, 2015-01-01 00:11:57.575,1.255,-0.77,3.138,170.166,128.113,-109.863, , , , , , ,73.383,17.562,-109.704
 12:25:42.924,eb:33:2e:f9:57:b5, 2015-01-01 00:11:57.575,1.374,-0.779,2.771,160.339,130.005,-136.169, , , , , , ,74.355,18.342,-109.232
 12:25:42.924,eb:33:2e:f9:57:b5, 2015-01-01 00:11:57.575,1.428,-0.747,2.465,148.987,122.253,-163.147, , , , , , ,75.234,19.243,-108.809
 12:25:42.924,eb:33:2e:f9:57:b5, 2015-01-01 00:11:57.575,1.443,-0.719,2.265,138.123,105.652,-189.819, , , , , , ,76.064,20.248,-108.463
 12:25:42.924,eb:33:2e:f9:57:b5, 2015-01-01 00:11:57.575,1.403,-0.732,2.224,130.188,82.52,-215.271, , , , , , ,76.811,21.357,-108.232
 12:25:42.924,eb:33:2e:f9:57:b5, 2015-01-01 00:11:57.575,1.278,-0.816,2.283,125.549,56.396,-237.244, , , , , , ,77.476,22.544,-108.155
 12:25:42.924,eb:33:2e:f9:57:b5, 2015-01-01 00:11:57.575,1.137,-0.966,2.324,121.338,30.457,-253.113, , , , , , ,78.03,23.791,-108.237
 12:25:42.991,eb:33:2e:f9:57:b5, 2015-01-01 00:11:57.575,0.968,-1.164,2.365,114.014,8.85,-260.925, , , , , , ,78.541,25.076,-108.43
 12:25:42.991,eb:33:2e:f9:57:b5, 2015-01-01 00:11:57.575,0.781,-1.382,2.339,100.464,-4.883,-259.399, , , , , , ,78.948,26.356,-108.704
 12:25:42.991,eb:33:2e:f9:57:b5, 2015-01-01 00:11:57.575,0.639,-1.601,2.186,79.468,-9.399,-247.925, , , , , , ,79.25,27.592,-109.023
 12:25:42.991,eb:33:2e:f9:57:b5, 2015-01-01 00:11:57.575,0.545,-1.809,1.97,53.345,-4.456,-227.295, , , , , , ,79.398,28.74,-109.325
 12:25:42.991,eb:33:2e:f9:57:b5, 2015-01-01 00:11:57.575,0.478,-1.976,1.759,25.757,8.667,-199.036, , , , , , ,79.481,29.778,-109.534
 12:25:42.991,eb:33:2e:f9:57:b5, 2015-01-01 00:11:57.575,0.439,-2.099,1.585,0.854,26.062,-166.138, , , , , , ,79.492,30.679,-109.605
 12:25:42.991,eb:33:2e:f9:57:b5, 2015-01-01 00:11:57.575,0.407,-2.166,1.437,-20.02,43.274,-130.493, , , , , , ,79.464,31.426,-109.545
 12:25:42.991,eb:33:2e:f9:57:b5, 2015-01-01 00:11:57.575,0.403,-2.181,1.244,-38.086,54.26,-94.299, , , , , , ,79.36,32.003,-109.396
 12:25:42.993,eb:33:2e:f9:57:b5, 2015-01-01 00:11:57.575,0.417,-2.152,1.006,-55.908,55.054,-59.143, , , , , , ,79.25,32.415,-109.155
 12:25:42.993,eb:33:2e:f9:57:b5, 2015-01-01 00:11:57.575,0.451,-2.081,0.707,-76.66,44.373,-25.818, , , , , , ,79.041,32.651,-108.896
 12:25:42.993,eb:33:2e:f9:57:b5, 2015-01-01 00:11:57.575,0.542,-1.98,0.361,-102.051,24.597,4.7, , , , , , ,78.684,32.717,-108.715
 12:25:42.993,eb:33:2e:f9:57:b5, 2015-01-01 00:11:57.575,0.636,-1.85,0.072,-131.897,1.099,31.982, , , , , , ,78.091,32.618,-108.655
 12:25:42.993,eb:33:2e:f9:57:b5, 2015-01-01 00:11:57.575,0.723,-1.661,-0.176,-165.039,-23.132,55.42, , , , , , ,77.322,32.382,-108.671
 12:25:42.993,eb:33:2e:f9:57:b5, 2015-01-01 00:11:57.575,0.802,-1.452,-0.308,-198.73,-46.997,74.158, , , , , , ,76.328,32.009,-108.787
 12:25:42.993,eb:33:2e:f9:57:b5, 2015-01-01 00:11:57.575,0.845,-1.271,-0.256,-230.103,-70.007,87.769, , , , , , ,75.119,31.536,-109.017
 12:25:42.993,eb:33:2e:f9:57:b5, 2015-01-01 00:11:57.575,0.865,-1.139,-0.128,-257.874,-92.407,96.497, , , , , , ,73.674,30.97,-109.369
 12:25:43.127,eb:33:2e:f9:57:b5, 2015-01-01 00:11:57.575,0.883,-1.052,-0.033,-283.569,-113.159,101.929, , , , , , ,72.098,30.333,-109.781
 12:25:43.127,eb:33:2e:f9:57:b5, 2015-01-01 00:11:57.575,0.89,-0.977,0.028,-309.998,-131.042,105.225, , , , , , ,70.356,29.647,-110.259
 12:25:43.127,eb:33:2e:f9:57:b5, 2015-01-01 00:11:57.575,0.888,-0.88,0.087,-338.501,-146.973,106.628, , , , , , ,68.461,28.9,-110.797
 12:25:43.127,eb:33:2e:f9:57:b5, 2015-01-01 00:11:57.575,0.912,-0.773,0.185,-367.92,-161.926,105.652, , , , , , ,66.357,28.103,-111.412
 12:25:43.127,eb:33:2e:f9:57:b5, 2015-01-01 00:11:57.575,0.951,-0.656,0.374,-396.24,-175.049,101.624, , , , , , ,64.144,27.274,-112.039
 12:25:43.127,eb:33:2e:f9:57:b5, 2015-01-01 00:11:57.575,0.986,-0.518,0.629,-422.058,-185.486,93.994, , , , , , ,61.782,26.433,-112.692
 12:25:43.127,eb:33:2e:f9:57:b5, 2015-01-01 00:11:57.575,0.997,-0.37,0.868,-445.496,-194.275,83.069, , , , , , ,59.304,25.582,-113.373
 12:25:43.127,eb:33:2e:f9:57:b5, 2015-01-01 00:11:57.575,0.982,-0.225,1.046,-468.323,-204.041,69.214, , , , , , ,56.662,24.725,-114.115
 12:25:43.149,eb:33:2e:f9:57:b5, 2015-01-01 00:11:57.575,0.978,-0.1,1.21,-497.742,-216.675,50.903, , , , , , ,53.921,23.879,-114.89
 12:25:43.149,eb:33:2e:f9:57:b5, 2015-01-01 00:11:57.575,0.967,-0.061,1.362,-523.499,-223.938,35.339, , , , , , ,51.026,23.038,-115.703
 12:25:43.149,eb:33:2e:f9:57:b5, 2015-01-01 00:11:57.575,0.951,-0.056,1.53,-547.546,-227.783,20.386, , , , , , ,48.01,22.203,-116.543
 12:25:43.149,eb:33:2e:f9:57:b5, 2015-01-01 00:11:57.575,0.908,-0.036,1.724,-565.918,-228.149,5.31, , , , , , ,44.863,21.363,-117.411
 12:25:43.149,eb:33:2e:f9:57:b5, 2015-01-01 00:11:57.575,0.846,0.029,1.892,-575.745,-227.905,-10.559, , , , , , ,41.693,20.55,-118.268
 12:25:43.149,eb:33:2e:f9:57:b5, 2015-01-01 00:11:57.575,0.782,0.115,2.019,-576.477,-230.835,-26.794, , , , , , ,38.513,19.737,-119.13
 12:25:43.149,eb:33:2e:f9:57:b5, 2015-01-01 00:11:57.575,0.698,0.172,2.077,-571.045,-238.159,-42.114, , , , , , ,35.343,18.907,-120.031
 12:25:43.149,eb:33:2e:f9:57:b5, 2015-01-01 00:11:57.575,0.556,0.193,2.014,-565.552,-247.253,-54.871, , , , , , ,32.173,18.012,-120.987
 12:25:43.284,eb:33:2e:f9:57:b5, 2015-01-01 00:11:57.575,0.413,0.199,1.8,-563.965,-256.714,-62.683, , , , , , ,29.064,17.078,-121.932
 12:25:43.284,eb:33:2e:f9:57:b5, 2015-01-01 00:11:57.575,0.285,0.158,1.605,-564.209,-266.724,-64.88, , , , , , ,25.977,16.062,-122.86
 12:25:43.284,eb:33:2e:f9:57:b5, 2015-01-01 00:11:57.575,0.132,0.098,1.569,-561.523,-275.085,-62.927, , , , , , ,22.928,14.958,-123.745
 12:25:43.284,eb:33:2e:f9:57:b5, 2015-01-01 00:11:57.575,-0.016,0.056,1.651,-551.453,-283.081,-56.824, , , , , , ,19.907,13.744,-124.579
 12:25:43.284,eb:33:2e:f9:57:b5, 2015-01-01 00:11:57.575,-0.135,0.033,1.832,-533.813,-289.49,-46.814, , , , , , ,17.034,12.464,-125.294
 12:25:43.284,eb:33:2e:f9:57:b5, 2015-01-01 00:11:57.575,-0.283,0.058,2.085,-511.963,-290.771,-32.654, , , , , , ,14.31,11.118,-125.881
 12:25:43.284,eb:33:2e:f9:57:b5, 2015-01-01 00:11:57.575,-0.449,0.162,2.27,-490.173,-288.086,-14.404, , , , , , ,11.739,9.734,-126.321
 12:25:43.284,eb:33:2e:f9:57:b5, 2015-01-01 00:11:57.575,-0.564,0.316,2.34,-470.825,-285.889,6.836, , , , , , ,9.267,8.3,-126.606
 12:25:43.287,eb:33:2e:f9:57:b5, 2015-01-01 00:11:57.575,-0.676,0.537,2.343,-454.712,-286.133,28.259, , , , , , ,6.949,6.877,-126.711
 12:25:43.287,eb:33:2e:f9:57:b5, 2015-01-01 00:11:57.575,-0.731,0.869,2.285,-440.491,-291.809,48.096, , , , , , ,4.724,5.416,-126.656
 12:25:43.287,eb:33:2e:f9:57:b5, 2015-01-01 00:11:57.575,-0.732,1.263,2.283,-426.453,-298.645,64.514, , , , , , ,2.576,3.922,-126.458
 12:25:43.287,eb:33:2e:f9:57:b5, 2015-01-01 00:11:57.575,-0.723,1.654,2.377,-409.912,-303.65,77.026, , , , , , ,0.478,2.379,-126.145
 12:25:43.287,eb:33:2e:f9:57:b5, 2015-01-01 00:11:57.575,-0.686,2.011,2.488,-390.198,-305.664,84.351, , , , , , ,-1.5,0.857,-125.722
 12:25:43.287,eb:33:2e:f9:57:b5, 2015-01-01 00:11:57.575,-0.709,2.349,2.59,-369.202,-303.894,86.975, , , , , , ,-3.384,-0.643,-125.228
 12:25:43.287,eb:33:2e:f9:57:b5, 2015-01-01 00:11:57.575,-0.775,2.684,2.627,-348.267,-301.086,84.717, , , , , , ,-5.18,-2.115,-124.684
 12:25:43.287,eb:33:2e:f9:57:b5, 2015-01-01 00:11:57.575,-0.848,3.042,2.684,-327.942,-299.805,77.454, , , , , , ,-6.921,-3.587,-124.129
 12:25:43.287,eb:33:2e:f9:57:b5, 2015-01-01 00:11:57.575,-0.969,3.36,2.815,-308.105,-297.729,65.674, , , , , , ,-8.542,-5.021,-123.574
 12:25:43.287,eb:33:2e:f9:57:b5, 2015-01-01 00:11:57.575,-1.126,3.618,2.953,-287.964,-294.189,48.828, , , , , , ,-10.074,-6.432,-123.052
 12:25:43.287,eb:33:2e:f9:57:b5, 2015-01-01 00:11:57.575,-1.355,3.874,3.069,-267.7,-287.72,28.564, , , , , , ,-11.508,-7.828,-122.596
 12:25:43.287,eb:33:2e:f9:57:b5, 2015-01-01 00:11:57.575,-1.605,4.149,3.19,-245.911,-278.137,4.822, , , , , , ,-12.865,-9.207,-122.223
 12:25:43.287,eb:33:2e:f9:57:b5, 2015-01-01 00:11:57.575,-1.824,4.438,3.391,-218.384,-262.878,-22.461, , , , , , ,-14.062,-10.53,-121.959
 12:25:43.287,eb:33:2e:f9:57:b5, 2015-01-01 00:11:57.575,-2.017,4.748,3.686,-181.946,-239.319,-53.04, , , , , , ,-15.073,-11.788,-121.844
 12:25:43.287,eb:33:2e:f9:57:b5, 2015-01-01 00:11:57.575,-2.171,5.041,3.982,-137.573,-206.726,-85.388, , , , , , ,-15.837,-12.947,-121.899
 12:25:43.287,eb:33:2e:f9:57:b5, 2015-01-01 00:11:57.575,-2.339,5.197,4.178,-93.018,-167.114,-116.272, , , , , , ,-16.348,-13.986,-122.151
 12:25:43.290,eb:33:2e:f9:57:b5, 2015-01-01 00:11:57.575,-2.562,5.16,4.102,-57.556,-126.099,-141.968, , , , , , ,-16.589,-14.859,-122.602
 12:25:43.290,eb:33:2e:f9:57:b5, 2015-01-01 00:11:57.575,-2.713,4.937,3.689,-29.297,-84.778,-162.72, , , , , , ,-16.628,-15.562,-123.223
 12:25:43.290,eb:33:2e:f9:57:b5, 2015-01-01 00:11:57.575,-2.82,4.688,3.385,-10.254,-58.35,-171.448, , , , , , ,-16.518,-16.133,-123.959
 12:25:43.290,eb:33:2e:f9:57:b5, 2015-01-01 00:11:57.575,-2.886,4.424,3.193,11.536,-34.424,-172.729, , , , , , ,-16.287,-16.6,-124.761
 12:25:43.290,eb:33:2e:f9:57:b5, 2015-01-01 00:11:57.575,-2.85,4.121,2.98,38.269,-9.705,-167.175, , , , , , ,-15.914,-16.93,-125.585
 12:25:43.290,eb:33:2e:f9:57:b5, 2015-01-01 00:11:57.575,-2.694,3.741,2.7,67.444,16.663,-155.823, , , , , , ,-15.397,-17.117,-126.403
 12:25:43.290,eb:33:2e:f9:57:b5, 2015-01-01 00:11:57.575,-2.45,3.294,2.364,95.398,44.128,-139.771, , , , , , ,-14.744,-17.15,-127.189
 12:25:43.290,eb:33:2e:f9:57:b5, 2015-01-01 00:11:57.575,-2.191,2.855,1.974,119.385,68.42,-120.728, , , , , , ,-13.98,-17.029,-127.914
 12:25:43.293,eb:33:2e:f9:57:b5, 2015-01-01 00:11:57.575,-1.96,2.458,1.537,139.709,83.801,-100.464, , , , , , ,-13.134,-16.771,-128.562
 12:25:43.293,eb:33:2e:f9:57:b5, 2015-01-01 00:11:57.575,-0.307,2.093,1.09,157.959,86.487,-80.017, , , , , , ,-12.222,-16.447,-129.111
 12:25:43.293,eb:33:2e:f9:57:b5, 2015-01-01 00:11:57.575,-6.542,2.493,3.098,369.324,201.843,-269.226, , , , , , ,-10.789,-16.122,-129.952
 12:25:43.293,eb:33:2e:f9:57:b5, 2015-01-01 00:11:57.575,3.648,5.348,-0.512,493.774,350.037,-247.192, , , , , , ,-8.157,-14.606,-131.435
 12:25:43.293,eb:33:2e:f9:57:b5, 2015-01-01 00:11:57.575,1.588,0.926,1.034,452.942,613.586,-179.138, , , , , , ,-5.488,-12.189,-132.77
 12:25:43.293,eb:33:2e:f9:57:b5, 2015-01-01 00:11:57.575,-1.247,2.156,3.256,368.53,714.417,-89.417, , , , , , ,-3.285,-8.828,-133.643
 12:25:43.293,eb:33:2e:f9:57:b5, 2015-01-01 00:11:57.575,-1.908,0.292,2.181,278.687,590.332,29.236, , , , , , ,-1.681,-5.587,-133.83
 12:25:43.293,eb:33:2e:f9:57:b5, 2015-01-01 00:11:57.575,-2.28,-0.117,1.877,243.958,423.035,70.496, , , , , , ,-0.439,-3.153,-133.583
 12:25:43.308,eb:33:2e:f9:57:b5, 2015-01-01 00:11:57.575,-2.38,0.726,1.148,186.768,223.145,73.792, , , , , , ,0.665,-1.566,-133.193
 12:25:43.308,eb:33:2e:f9:57:b5, 2015-01-01 00:11:57.575,-0.066,3.129,0.696,105.713,28.992,32.837, , , , , , ,1.313,-1.088,-132.803
 12:25:43.308,eb:33:2e:f9:57:b5, 2015-01-01 00:11:57.575,-1.437,0.621,1.992,84.412,104.248,28.992, , , , , , ,1.807,-0.758,-132.649
 12:25:43.308,eb:33:2e:f9:57:b5, 2015-01-01 00:11:57.575,-0.353,0.343,0.381,74.707,16.846,-7.568, , , , , , ,2.208,-0.533,-132.621
 12:25:43.308,eb:33:2e:f9:57:b5, 2015-01-01 00:11:57.575,-0.346,-0.189,0.899,61.462,23.376,15.137, , , , , , ,2.543,-0.439,-132.583
 12:25:43.308,eb:33:2e:f9:57:b5, 2015-01-01 00:11:57.575,-0.323,0.519,0.687,44.739,18.066,-1.831, , , , , , ,2.796,-0.319,-132.539
 12:25:43.308,eb:33:2e:f9:57:b5, 2015-01-01 00:11:57.575,0.175,0.225,0.638,36.133,1.587,-9.338, , , , , , ,2.999,-0.286,-132.572
 12:25:43.308,eb:33:2e:f9:57:b5, 2015-01-01 00:11:57.575,0.278,0.335,0.938,26.978,6.592,-9.46, , , , , , ,3.153,-0.269,-132.621
 12:25:43.352,eb:33:2e:f9:57:b5, 2015-01-01 00:11:57.575,0.033,0.203,1.031,21.851,15.076,-7.446, , , , , , ,3.274,-0.203,-132.66
 12:25:43.352,eb:33:2e:f9:57:b5, 2015-01-01 00:11:57.575,0.143,0.14,1.013,19.226,18.311,-8.301, , , , , , ,3.373,-0.115,-132.687
 12:25:43.352,eb:33:2e:f9:57:b5, 2015-01-01 00:11:57.575,0.325,0.153,1.045,16.846,23.621,-9.583, , , , , , ,3.461,-0.005,-132.726
 12:25:43.352,eb:33:2e:f9:57:b5, 2015-01-01 00:11:57.575,0.128,0.137,1.129,16.541,37.72,-8.972, , , , , , ,3.549,0.148,-132.77
 12:25:43.352,eb:33:2e:f9:57:b5, 2015-01-01 00:11:57.575,0,0.156,1.051,14.832,47.485,-8.179, , , , , , ,3.631,0.374,-132.797
 12:25:43.352,eb:33:2e:f9:57:b5, 2015-01-01 00:11:57.575,-0.101,0.125,0.995,13.184,51.086,-8.118, , , , , , ,3.697,0.621,-132.819
 12:25:43.352,eb:33:2e:f9:57:b5, 2015-01-01 00:11:57.575,-0.242,0.051,0.947,12.146,50.293,-6.47, , , , , , ,3.763,0.879,-132.836
 12:25:43.352,eb:33:2e:f9:57:b5, 2015-01-01 00:11:57.575,-0.164,0.044,0.879,9.827,42.48,-4.761, , , , , , ,3.818,1.11,-132.852
 12:25:43.441,eb:33:2e:f9:57:b5, 2015-01-01 00:11:58.110,-0.039,0.095,0.931,6.775,37.537,-4.272, , , , , , ,3.862,1.307,-132.858
 12:25:43.441,eb:33:2e:f9:57:b5, 2015-01-01 00:11:58.110,0.139,0.128,0.992,3.906,37.292,-4.578, , , , , , ,3.884,1.494,-132.869
 12:25:43.441,eb:33:2e:f9:57:b5, 2015-01-01 00:11:58.110,0.127,0.142,1.136,0.366,48.157,-5.249, , , , , , ,3.895,1.708,-132.88
 12:25:43.441,eb:33:2e:f9:57:b5, 2015-01-01 00:11:58.110,-0.085,0.146,1.149,-2.563,59.265,-6.409, , , , , , ,3.889,1.989,-132.891
 12:25:43.442,eb:33:2e:f9:57:b5, 2015-01-01 00:11:58.110,-0.141,0.092,1.029,-5.92,59.875,-4.639, , , , , , ,3.867,2.291,-132.896
 12:25:43.442,eb:33:2e:f9:57:b5, 2015-01-01 00:11:58.110,-0.126,0.078,0.997,-8.667,55.359,-0.732, , , , , , ,3.829,2.576,-132.885
 12:25:43.442,eb:33:2e:f9:57:b5, 2015-01-01 00:11:58.110,-0.064,0.107,1.072,-8.667,46.692,1.77, , , , , , ,3.785,2.829,-132.863
 12:25:43.442,eb:33:2e:f9:57:b5, 2015-01-01 00:11:58.110,-0.149,0.149,1.19,4.272,26.184,-0.61, , , , , , ,3.779,3.005,-132.847
 12:25:43.444,eb:33:2e:f9:57:b5, 2015-01-01 00:11:58.110,0.221,-0.005,1.848,49.255,-17.883,-21.118, , , , , , ,3.922,3.016,-132.902
 12:25:43.444,eb:33:2e:f9:57:b5, 2015-01-01 00:11:58.110,0.082,-0.414,3.296,91.248,-21.24,-31.799, , , , , , ,4.296,2.906,-133.055
 12:25:43.444,eb:33:2e:f9:57:b5, 2015-01-01 00:11:58.110,0.208,-0.82,4.013,132.141,10.803,-30.762, , , , , , ,4.856,2.911,-133.209
 12:25:43.444,eb:33:2e:f9:57:b5, 2015-01-01 00:11:58.110,0.276,-0.677,3.519,181.091,18.86,-35.217, , , , , , ,5.663,3.016,-133.369
 12:25:43.445,eb:33:2e:f9:57:b5, 2015-01-01 00:11:58.110,0.321,-0.757,3.426,227.173,30.64,-34.424, , , , , , ,6.696,3.159,-133.533
 12:25:43.445,eb:33:2e:f9:57:b5, 2015-01-01 00:11:58.110,0.427,-0.819,3.517,272.949,45.837,-31.86, , , , , , ,7.96,3.378,-133.665
 12:25:43.445,eb:33:2e:f9:57:b5, 2015-01-01 00:11:58.110,0.632,-0.913,3.806,320.374,65.063,-31.677, , , , , , ,9.459,3.686,-133.786
 12:25:43.445,eb:33:2e:f9:57:b5, 2015-01-01 00:11:58.110,0.686,-0.967,3.734,365.112,86.609,-32.043, , , , , , ,11.195,4.092,-133.874
 12:25:43.487,eb:33:2e:f9:57:b5, 2015-01-01 00:11:58.110,0.92,-1.011,3.957,404.419,120.85,-29.175, , , , , , ,13.134,4.642,-133.918
 12:25:43.487,eb:33:2e:f9:57:b5, 2015-01-01 00:11:58.110,1.233,-0.873,3.679,443.176,145.203,-33.63, , , , , , ,15.276,5.35,-133.89
 12:25:43.487,eb:33:2e:f9:57:b5, 2015-01-01 00:11:58.110,1.265,-0.701,3.552,476.868,167.358,-47.241, , , , , , ,17.6,6.158,-133.868
 12:25:43.487,eb:33:2e:f9:57:b5, 2015-01-01 00:11:58.110,1.295,-0.83,3.641,500,211.67,-58.777, , , , , , ,20.061,7.152,-133.819
 12:25:43.487,eb:33:2e:f9:57:b5, 2015-01-01 00:11:58.110,1.187,-0.906,3.469,522.461,247.009,-61.646, , , , , , ,22.648,8.361,-133.665
 12:25:43.488,eb:33:2e:f9:57:b5, 2015-01-01 00:11:58.110,1.174,-0.497,3.476,550.354,252.869,-76.538, , , , , , ,25.373,9.657,-133.467
 12:25:43.488,eb:33:2e:f9:57:b5, 2015-01-01 00:11:58.110,1.146,-0.754,4.048,582.825,255.92,-82.947, , , , , , ,28.257,10.975,-133.248
 12:25:43.488,eb:33:2e:f9:57:b5, 2015-01-01 00:11:58.110,1.048,-0.702,4.547,610.046,241.699,-93.567, , , , , , ,31.306,12.272,-133.022
 12:25:43.509,eb:33:2e:f9:57:b5, 2015-01-01 00:11:58.110,1.189,-0.357,5.345,625.793,237.427,-100.952, , , , , , ,34.453,13.519,-132.781
 12:25:43.509,eb:33:2e:f9:57:b5, 2015-01-01 00:11:58.110,0.796,-0.751,5.558,622.009,251.343,-85.083, , , , , , ,37.683,14.799,-132.402
 12:25:43.509,eb:33:2e:f9:57:b5, 2015-01-01 00:11:58.110,1.125,0.66,4.57,586.182,204.529,-93.506, , , , , , ,40.798,15.947,-132.028
 12:25:43.509,eb:33:2e:f9:57:b5, 2015-01-01 00:11:58.110,0.607,0.59,4.512,518.738,190.796,-97.534, , , , , , ,43.61,16.985,-131.726
 12:25:43.509,eb:33:2e:f9:57:b5, 2015-01-01 00:11:58.110,0.573,0.354,4.411,449.951,230.652,-88.745, , , , , , ,46.115,18.051,-131.309
 12:25:43.509,eb:33:2e:f9:57:b5, 2015-01-01 00:11:58.110,0.524,-0.915,3.912,446.167,311.462,-57.068, , , , , , ,48.593,19.243,-130.446
 12:25:43.509,eb:33:2e:f9:57:b5, 2015-01-01 00:11:58.110,-0.716,-1.362,1.858,515.93,341.553,-18.311, , , , , , ,51.471,20.468,-129.188
 12:25:43.509,eb:33:2e:f9:57:b5, 2015-01-01 00:11:58.110,-1.045,1.852,-2.796,378.845,267.639,45.288, , , , , , ,54.19,21.308,-127.815
 12:25:43.622,eb:33:2e:f9:57:b5, 2015-01-01 00:11:58.110,-0.11,1.31,-2.646,222.839,160.217,101.257, , , , , , ,56.003,21.544,-126.694
 12:25:43.622,eb:33:2e:f9:57:b5, 2015-01-01 00:11:58.110,0.718,0.525,-0.771,112.732,128.967,145.874, , , , , , ,57.123,21.379,-125.706
 12:25:43.622,eb:33:2e:f9:57:b5, 2015-01-01 00:11:58.110,0.937,-0.077,1.901,78.979,185.547,182.861, , , , , , ,57.986,21.083,-124.497
 12:25:43.622,eb:33:2e:f9:57:b5, 2015-01-01 00:11:58.110,0.938,0.171,3.6,119.812,252.441,193.237, , , , , , ,59.03,20.858,-122.932
 12:25:43.622,eb:33:2e:f9:57:b5, 2015-01-01 00:11:58.110,0.688,0.722,4.51,210.51,278.625,180.603, , , , , , ,60.513,20.737,-121.157
 12:25:43.622,eb:33:2e:f9:57:b5, 2015-01-01 00:11:58.110,0.397,1.133,4.207,327.271,221.863,133.85, , , , , , ,62.479,20.654,-119.57
 12:25:43.622,eb:33:2e:f9:57:b5, 2015-01-01 00:11:58.110,0.237,1.216,3.045,382.568,136.536,87.463, , , , , , ,64.677,20.566,-118.499
 12:25:43.623,eb:33:2e:f9:57:b5, 2015-01-01 00:11:58.110,0.334,0.896,2.305,393.372,59.021,40.771, , , , , , ,66.813,20.468,-117.944
 12:25:43.623,eb:33:2e:f9:57:b5, 2015-01-01 00:11:58.110,0.427,0.311,2.516,375.854,15.808,-3.357, , , , , , ,68.802,20.462,-117.768
 12:25:43.623,eb:33:2e:f9:57:b5, 2015-01-01 00:11:58.110,0.498,-0.178,3.15,343.75,11.902,-41.931, , , , , , ,70.587,20.605,-117.757
 12:25:43.623,eb:33:2e:f9:57:b5, 2015-01-01 00:11:58.110,0.683,-0.431,3.872,306.152,39.001,-74.707, , , , , , ,72.202,20.94,-117.729
 12:25:43.623,eb:33:2e:f9:57:b5, 2015-01-01 00:11:58.110,0.877,-0.501,4.527,271.667,81.055,-104.37, , , , , , ,73.669,21.467,-117.548
 12:25:43.623,eb:33:2e:f9:57:b5, 2015-01-01 00:11:58.110,1.079,-0.614,4.77,247.803,116.028,-134.277, , , , , , ,75.086,22.192,-117.191
 12:25:43.623,eb:33:2e:f9:57:b5, 2015-01-01 00:11:58.110,1.335,-0.838,4.583,233.826,135.315,-165.161, , , , , , ,76.459,23.093,-116.708
 12:25:43.623,eb:33:2e:f9:57:b5, 2015-01-01 00:11:58.110,1.486,-1.048,4.198,223.572,141.357,-195.251, , , , , , ,77.811,24.142,-116.186
 12:25:43.623,eb:33:2e:f9:57:b5, 2015-01-01 00:11:58.110,1.547,-1.231,3.699,211.243,135.62,-220.337, , , , , , ,79.074,25.307,-115.686
 12:25:43.644,eb:33:2e:f9:57:b5, 2015-01-01 00:11:58.110,1.599,-1.353,3.259,196.411,120.117,-242.249, , , , , , ,80.288,26.57,-115.225
 12:25:43.644,eb:33:2e:f9:57:b5, 2015-01-01 00:11:58.110,1.595,-1.433,3.043,179.321,98.145,-260.315, , , , , , ,81.392,27.905,-114.84
 12:25:43.644,eb:33:2e:f9:57:b5, 2015-01-01 00:11:58.110,1.508,-1.52,3.072,161.865,75.256,-272.095, , , , , , ,82.359,29.295,-114.576
 12:25:43.644,eb:33:2e:f9:57:b5, 2015-01-01 00:11:58.110,1.434,-1.673,3.2,146.423,55.176,-277.405, , , , , , ,83.161,30.69,-114.439
 12:25:43.644,eb:33:2e:f9:57:b5, 2015-01-01 00:11:58.110,1.348,-1.849,3.333,131.958,42.48,-275.33, , , , , , ,83.897,32.091,-114.351
 12:25:43.644,eb:33:2e:f9:57:b5, 2015-01-01 00:11:58.110,1.22,-2.021,3.394,116.638,39.368,-265.503, , , , , , ,84.551,33.453,-114.263
 12:25:43.645,eb:33:2e:f9:57:b5, 2015-01-01 00:11:58.110,1.034,-2.196,3.363,99.915,42.603,-247.864, , , , , , ,85.144,34.75,-114.153
 12:25:43.645,eb:33:2e:f9:57:b5, 2015-01-01 00:11:58.110,0.897,-2.43,3.234,81.97,47.119,-223.267, , , , , , ,85.633,35.92,-114.027
 12:25:43.735,eb:33:2e:f9:57:b5, 2015-01-01 00:11:58.110,0.82,-2.696,3.017,61.768,52.795,-193.176, , , , , , ,86.116,36.964,-113.807
 12:25:43.735,eb:33:2e:f9:57:b5, 2015-01-01 00:11:58.110,0.746,-2.941,2.661,38.635,58.044,-158.081, , , , , , ,86.534,37.842,-113.511
 12:25:43.735,eb:33:2e:f9:57:b5, 2015-01-01 00:11:58.110,0.771,-3.128,2.219,11.902,61.707,-119.568, , , , , , ,86.852,38.535,-113.176
 12:25:43.736,eb:33:2e:f9:57:b5, 2015-01-01 00:11:58.110,0.864,-3.212,1.813,-19.165,66.589,-79.59, , , , , , ,87.001,39.023,-112.835
 12:25:43.736,eb:33:2e:f9:57:b5, 2015-01-01 00:11:58.110,0.951,-3.231,1.409,-54.871,75.745,-40.039, , , , , , ,87.078,39.32,-112.39
 12:25:43.736,eb:33:2e:f9:57:b5, 2015-01-01 00:11:58.110,1.044,-3.196,0.924,-93.689,84.656,-1.709, , , , , , ,87.023,39.424,-111.857
 12:25:43.736,eb:33:2e:f9:57:b5, 2015-01-01 00:11:58.110,1.128,-3.092,0.402,-134.521,88.928,32.837, , , , , , ,86.792,39.353,-111.286
 12:25:43.736,eb:33:2e:f9:57:b5, 2015-01-01 00:11:58.110,1.258,-2.935,-0.162,-176.392,84.961,62.5, , , , , , ,86.303,39.117,-110.748
 12:25:43.756,eb:33:2e:f9:57:b5, 2015-01-01 00:11:58.110,1.414,-2.723,-0.6,-217.102,70.923,84.717, , , , , , ,85.633,38.76,-110.215
 12:25:43.756,eb:33:2e:f9:57:b5, 2015-01-01 00:11:58.110,1.557,-2.414,-0.895,-255.188,45.105,97.29, , , , , , ,84.688,38.32,-109.797
 12:25:43.756,eb:33:2e:f9:57:b5, 2015-01-01 00:11:58.110,1.649,-1.997,-1.014,-290.283,7.996,99.792, , , , , , ,83.436,37.837,-109.583
 12:25:43.756,eb:33:2e:f9:57:b5, 2015-01-01 00:11:58.110,1.735,-1.567,-1.018,-323.12,-38.086,93.75, , , , , , ,81.804,37.343,-109.666
 12:25:43.756,eb:33:2e:f9:57:b5, 2015-01-01 00:11:58.110,1.834,-1.252,-0.916,-355.225,-85.999,81.97, , , , , , ,79.893,36.859,-109.995
 12:25:43.756,eb:33:2e:f9:57:b5, 2015-01-01 00:11:58.110,1.916,-1.105,-0.688,-387.451,-125.793,68.176, , , , , , ,77.668,36.392,-110.572
 12:25:43.756,eb:33:2e:f9:57:b5, 2015-01-01 00:11:58.110,1.931,-1.09,-0.386,-420.044,-153.015,55.054, , , , , , ,75.179,35.931,-111.346
 12:25:43.756,eb:33:2e:f9:57:b5, 2015-01-01 00:11:58.110,1.899,-1.108,-0.02,-457.642,-173.889,41.565, , , , , , ,72.383,35.464,-112.291
 12:25:43.760,eb:33:2e:f9:57:b5, 2015-01-01 00:11:58.110,1.834,-1.111,0.287,-486.389,-187.256,32.104, , , , , , ,69.445,34.997,-113.275
 12:25:43.760,eb:33:2e:f9:57:b5, 2015-01-01 00:11:58.110,1.742,-1.089,0.58,-513.306,-201.721,24.841, , , , , , ,66.335,34.503,-114.307
 12:25:43.760,eb:33:2e:f9:57:b5, 2015-01-01 00:11:58.110,1.634,-1.048,0.8,-540.771,-219.849,20.02, , , , , , ,63.067,33.953,-115.411
 12:25:43.760,eb:33:2e:f9:57:b5, 2015-01-01 00:11:58.110,1.568,-1.025,0.935,-569.519,-240.417,17.883, , , , , , ,59.573,33.3,-116.625
 12:25:43.760,eb:33:2e:f9:57:b5, 2015-01-01 00:11:58.110,1.551,-1.016,1.106,-598.511,-259.949,18.25, , , , , , ,55.981,32.552,-117.839
 12:25:43.760,eb:33:2e:f9:57:b5, 2015-01-01 00:11:58.110,1.536,-0.986,1.411,-623.779,-274.536,19.836, , , , , , ,52.256,31.685,-119.053
 12:25:43.760,eb:33:2e:f9:57:b5, 2015-01-01 00:11:58.110,1.508,-0.914,1.797,-641.541,-284.851,20.935, , , , , , ,48.466,30.712,-120.24
 12:25:43.760,eb:33:2e:f9:57:b5, 2015-01-01 00:11:58.110,1.495,-0.795,2.148,-650.085,-293.091,19.287, , , , , , ,44.604,29.625,-121.415
 12:25:43.869,eb:33:2e:f9:57:b5, 2015-01-01 00:11:58.110,1.534,-0.636,2.403,-650.696,-300.293,13.916, , , , , , ,40.825,28.477,-122.503
 12:25:43.869,eb:33:2e:f9:57:b5, 2015-01-01 00:11:58.110,1.526,-0.434,2.56,-646.606,-306.885,4.578, , , , , , ,37.09,27.263,-123.541
 12:25:43.869,eb:33:2e:f9:57:b5, 2015-01-01 00:11:58.110,1.458,-0.25,2.573,-639.893,-316.467,-7.08, , , , , , ,33.42,25.994,-124.557
 12:25:43.869,eb:33:2e:f9:57:b5, 2015-01-01 00:11:58.110,1.347,-0.18,2.491,-631.653,-330.444,-18.005, , , , , , ,29.762,24.626,-125.601
 12:25:43.869,eb:33:2e:f9:57:b5, 2015-01-01 00:11:58.110,1.178,-0.276,2.416,-624.329,-344.91,-24.231, , , , , , ,26.23,23.181,-126.579
 12:25:43.869,eb:33:2e:f9:57:b5, 2015-01-01 00:11:58.110,0.892,-0.421,2.352,-619.08,-356.262,-23.071, , , , , , ,22.78,21.627,-127.485
 12:25:43.869,eb:33:2e:f9:57:b5, 2015-01-01 00:11:58.110,0.688,-0.566,2.267,-611.45,-370.178,-13.367, , , , , , ,19.424,19.962,-128.271
 12:25:43.869,eb:33:2e:f9:57:b5, 2015-01-01 00:11:58.110,0.627,-0.696,2.427,-596.68,-384.216,2.075, , , , , , ,16.15,18.133,-128.941
 12:25:43.871,eb:33:2e:f9:57:b5, 2015-01-01 00:11:58.535,0.488,-0.699,2.782,-579.163,-388.733,23.071, , , , , , ,13.085,16.238,-129.38
 12:25:43.871,eb:33:2e:f9:57:b5, 2015-01-01 00:11:58.535,0.413,-0.557,2.963,-562.683,-387.39,47.791, , , , , , ,10.184,14.304,-129.589
 12:25:43.872,eb:33:2e:f9:57:b5, 2015-01-01 00:11:58.535,0.363,-0.289,2.992,-550.842,-384.888,72.388, , , , , , ,7.41,12.349,-129.573
 12:25:43.872,eb:33:2e:f9:57:b5, 2015-01-01 00:11:58.535,0.284,0.132,2.958,-543.823,-387.085,93.018, , , , , , ,4.675,10.355,-129.37
 12:25:43.872,eb:33:2e:f9:57:b5, 2015-01-01 00:11:58.535,0.175,0.694,2.937,-538.818,-398.132,107.178, , , , , , ,2.032,8.361,-128.969
 12:25:43.872,eb:33:2e:f9:57:b5, 2015-01-01 00:11:58.535,0.059,1.355,3.004,-532.104,-415.039,114.38, , , , , , ,-0.566,6.317,-128.43
 12:25:43.872,eb:33:2e:f9:57:b5, 2015-01-01 00:11:58.535,-0.096,2.016,3.172,-519.836,-432.556,115.479, , , , , , ,-3.137,4.208,-127.782
 12:25:43.872,eb:33:2e:f9:57:b5, 2015-01-01 00:11:58.535,-0.304,2.614,3.417,-499.329,-447.876,112.061, , , , , , ,-5.685,2.016,-127.057
 12:25:44.139,eb:33:2e:f9:57:b5, 2015-01-01 00:11:58.535,-0.598,3.133,3.761,-472.107,-456.36,106.323, , , , , , ,-8.086,-0.165,-126.244
 12:25:44.139,eb:33:2e:f9:57:b5, 2015-01-01 00:11:58.535,-0.91,3.583,4.183,-441.65,-455.017,100.403, , , , , , ,-10.377,-2.34,-125.37
 12:25:44.139,eb:33:2e:f9:57:b5, 2015-01-01 00:11:58.535,-1.263,4.036,4.712,-410.4,-442.261,95.825, , , , , , ,-12.546,-4.438,-124.442
 12:25:44.139,eb:33:2e:f9:57:b5, 2015-01-01 00:11:58.535,-1.647,4.584,5.273,-376.343,-419.067,90.454, , , , , , ,-14.634,-6.443,-123.492
 12:25:44.139,eb:33:2e:f9:57:b5, 2015-01-01 00:11:58.535,-2.075,5.288,5.781,-333.557,-388.977,80.505, , , , , , ,-16.512,-8.262,-122.536
 12:25:44.139,eb:33:2e:f9:57:b5, 2015-01-01 00:11:58.535,-2.458,6.087,6.107,-276.367,-361.389,64.392, , , , , , ,-18.16,-9.932,-121.63
 12:25:44.139,eb:33:2e:f9:57:b5, 2015-01-01 00:11:58.535,-2.677,6.916,6.247,-208.008,-335.388,39.368, , , , , , ,-19.49,-11.486,-120.817
 12:25:44.139,eb:33:2e:f9:57:b5, 2015-01-01 00:11:58.535,-2.832,7.657,6.173,-140.503,-306.396,7.812, , , , , , ,-20.495,-12.964,-120.163
 12:25:44.142,eb:33:2e:f9:57:b5, 2015-01-01 00:11:58.535,-3.098,8.059,5.951,-82.703,-273.254,-26.367, , , , , , ,-21.127,-14.332,-119.696
 12:25:44.142,eb:33:2e:f9:57:b5, 2015-01-01 00:11:58.535,-3.275,7.924,5.665,-25.94,-226.44,-65.979, , , , , , ,-21.429,-15.568,-119.476
 12:25:44.142,eb:33:2e:f9:57:b5, 2015-01-01 00:11:58.535,-3.39,7.54,5.345,10.254,-177.185,-93.201, , , , , , ,-21.434,-16.644,-119.504
 12:25:44.142,eb:33:2e:f9:57:b5, 2015-01-01 00:11:58.535,-3.486,7.215,4.845,36.804,-120.911,-112.671, , , , , , ,-21.248,-17.518,-119.745
 12:25:44.142,eb:33:2e:f9:57:b5, 2015-01-01 00:11:58.535,-3.481,6.857,4.243,60.913,-67.566,-125.854, , , , , , ,-20.863,-18.149,-120.168
 12:25:44.142,eb:33:2e:f9:57:b5, 2015-01-01 00:11:58.535,-3.379,6.289,3.692,89.111,-22.156,-134.277, , , , , , ,-20.292,-18.561,-120.745
 12:25:44.142,eb:33:2e:f9:57:b5, 2015-01-01 00:11:58.535,-3.155,5.609,3.187,120.361,14.221,-138.123, , , , , , ,-19.534,-18.798,-121.426
 12:25:44.142,eb:33:2e:f9:57:b5, 2015-01-01 00:11:58.535,-2.833,4.979,2.763,150.085,42.969,-137.695, , , , , , ,-18.605,-18.88,-122.179
 12:25:44.142,eb:33:2e:f9:57:b5, 2015-01-01 00:11:58.535,-2.515,4.401,2.447,175.598,65.857,-133.728, , , , , , ,-17.529,-18.82,-122.953
 12:25:44.142,eb:33:2e:f9:57:b5, 2015-01-01 00:11:58.535,-2.308,3.773,2.122,197.937,81.97,-127.197, , , , , , ,-16.331,-18.644,-123.728
 12:25:44.142,eb:33:2e:f9:57:b5, 2015-01-01 00:11:58.535,-2.276,3.047,1.704,219.91,85.876,-116.577, , , , , , ,-15.04,-18.397,-124.464
 12:25:44.142,eb:33:2e:f9:57:b5, 2015-01-01 00:11:58.535,-2.346,2.176,1.309,244.385,77.332,-99.487, , , , , , ,-13.661,-18.138,-125.123
 12:25:44.142,eb:33:2e:f9:57:b5, 2015-01-01 00:11:58.535,-2.375,1.149,1.059,272.278,66.04,-72.876, , , , , , ,-12.2,-17.891,-125.64
 12:25:44.142,eb:33:2e:f9:57:b5, 2015-01-01 00:11:58.535,0.518,0.063,0.937,299.5,61.89,-35.645, , , , , , ,-10.651,-17.633,-125.969
 12:25:44.142,eb:33:2e:f9:57:b5, 2015-01-01 00:11:58.535,-0.595,1.669,5.308,547.913,239.197,-234.68, , , , , , ,-8.366,-17.49,-126.628
 12:25:44.142,eb:33:2e:f9:57:b5, 2015-01-01 00:11:58.535,8.877,3.909,3.165,444.946,489.258,-161.865, , , , , , ,-5.4,-15.727,-127.711
 12:25:44.144,eb:33:2e:f9:57:b5, 2015-01-01 00:11:58.535,5.244,8.954,5.053,45.715,810.913,-19.409, , , , , , ,-4.323,-12.228,-128.584
 12:25:44.144,eb:33:2e:f9:57:b5, 2015-01-01 00:11:58.535,-4.852,3.005,5.14,-45.227,863.403,202.576, , , , , , ,-4.521,-7.806,-128.342
 12:25:44.144,eb:33:2e:f9:57:b5, 2015-01-01 00:11:58.535,-5.288,-0.423,0.044,14.282,582.642,145.325, , , , , , ,-4.625,-4.186,-127.65
 12:25:44.144,eb:33:2e:f9:57:b5, 2015-01-01 00:11:58.535,-0.942,-0.792,-1.503,60.303,232.239,-5.554, , , , , , ,-4.389,-2.571,-127.557
 12:25:44.144,eb:33:2e:f9:57:b5, 2015-01-01 00:11:58.535,-1.194,-1.01,1.23,88.745,203.735,-49.255, , , , , , ,-3.972,-1.642,-127.908
 12:25:44.144,eb:33:2e:f9:57:b5, 2015-01-01 00:11:58.535,-0.504,-0.789,0.202,50.415,155.396,66.467, , , , , , ,-3.625,-0.764,-127.826
 12:25:44.144,eb:33:2e:f9:57:b5, 2015-01-01 00:11:58.535,-2.727,0.153,1.002,43.945,161.743,41.87, , , , , , ,-3.4,0.055,-127.551
 12:25:44.144,eb:33:2e:f9:57:b5, 2015-01-01 00:11:58.535,-0.173,-0.211,-0.979,43.701,29.053,9.094, , , , , , ,-3.175,0.489,-127.546
 12:25:44.148,eb:33:2e:f9:57:b5, 2015-01-01 00:11:58.535,0.598,0.339,0.667,48.523,-4.761,-7.446, , , , , , ,-2.944,0.461,-127.513
 12:25:44.148,eb:33:2e:f9:57:b5, 2015-01-01 00:11:58.535,-0.024,0.072,1.511,58.533,18.188,-17.456, , , , , , ,-2.664,0.516,-127.601
 12:25:44.148,eb:33:2e:f9:57:b5, 2015-01-01 00:11:58.535,1.197,-0.011,0.964,58.228,13.55,-7.69, , , , , , ,-2.373,0.582,-127.656
 12:25:44.148,eb:33:2e:f9:57:b5, 2015-01-01 00:11:58.535,0.646,0.456,1.664,47.791,67.383,-11.78, , , , , , ,-2.098,0.791,-127.716
 12:25:44.148,eb:33:2e:f9:57:b5, 2015-01-01 00:11:58.535,0.021,0.251,1.346,37.354,109.985,-9.521, , , , , , ,-1.895,1.269,-127.787
 12:25:44.148,eb:33:2e:f9:57:b5, 2015-01-01 00:11:58.535,-0.265,0.083,0.974,31.067,117.92,-8.24, , , , , , ,-1.73,1.851,-127.853
 12:25:44.148,eb:33:2e:f9:57:b5, 2015-01-01 00:11:58.535,-0.332,-0.043,0.804,29.175,108.459,-5.31, , , , , , ,-1.582,2.417,-127.897
 12:25:44.148,eb:33:2e:f9:57:b5, 2015-01-01 00:11:58.535,-0.368,0.007,0.744,31.433,87.158,-3.906, , , , , , ,-1.423,2.895,-127.936
 12:25:44.162,eb:33:2e:f9:57:b5, 2015-01-01 00:11:58.535,1.885,-0.217,1.081,42.053,64.636,2.686, , , , , , ,-1.236,3.268,-127.947
 12:25:44.162,eb:33:2e:f9:57:b5, 2015-01-01 00:11:58.535,1.948,-1.672,5.385,604.919,352.539,-66.04, , , , , , ,25.054,8.789,-128.617
 12:25:44.162,eb:33:2e:f9:57:b5, 2015-01-01 00:11:58.535,1.789,-1.237,5.328,643.372,375.183,-83.679, , , , , , ,28.268,10.607,-128.134
 12:25:44.163,eb:33:2e:f9:57:b5, 2015-01-01 00:11:58.535,1.781,-0.949,6.688,704.529,406.86,-97.656, , , , , , ,31.778,12.524,-127.535
 12:25:44.163,eb:33:2e:f9:57:b5, 2015-01-01 00:11:58.535,1.397,-1.471,7.243,752.014,425.293,-84.045, , , , , , ,35.651,14.551,-126.711
 12:25:44.163,eb:33:2e:f9:57:b5, 2015-01-01 00:11:58.535,0.726,-0.078,6.147,709.961,375.366,-77.637, , , , , , ,39.562,16.353,-125.804
 12:25:44.163,eb:33:2e:f9:57:b5, 2015-01-01 00:11:58.535,-0.186,-0.04,7.544,627.93,419.128,-53.345, , , , , , ,43.204,18.045,-124.695
 12:25:44.163,eb:33:2e:f9:57:b5, 2015-01-01 00:11:58.535,0.654,0.072,4.61,567.993,398.926,-17.029, , , , , , ,46.604,19.611,-123.228
 12:25:44.208,eb:33:2e:f9:57:b5, 2015-01-01 00:11:58.535,1.691,-0.352,2.942,553.589,347.473,6.897, , , , , , ,49.878,20.825,-121.822
 12:25:44.208,eb:33:2e:f9:57:b5, 2015-01-01 00:11:58.535,-0.61,-1.116,2.014,643.433,358.276,41.321, , , , , , ,53.503,21.846,-120.163
 12:25:44.208,eb:33:2e:f9:57:b5, 2015-01-01 00:11:58.535,-0.643,3.093,-3.39,501.648,216.797,76.355, , , , , , ,56.942,22.401,-118.729
 12:25:44.208,eb:33:2e:f9:57:b5, 2015-01-01 00:11:58.535,0.274,2.097,-1.833,317.871,100.281,113.281, , , , , , ,59.2,22.324,-117.817
 12:25:44.208,eb:33:2e:f9:57:b5, 2015-01-01 00:11:58.535,0.744,0.954,0.909,193.42,92.773,142.517, , , , , , ,60.677,21.978,-117.054
 12:25:44.208,eb:33:2e:f9:57:b5, 2015-01-01 00:11:58.535,0.78,0.33,3.568,166.565,158.386,161.377, , , , , , ,61.897,21.605,-116.032
 12:25:44.208,eb:33:2e:f9:57:b5, 2015-01-01 00:11:58.535,0.879,0.563,5.895,239.441,222.046,143.921, , , , , , ,63.402,21.379,-114.697
 12:25:44.208,eb:33:2e:f9:57:b5, 2015-01-01 00:11:58.535,0.417,1.417,7.64,364.685,240.234,90.271, , , , , , ,65.462,21.363,-113.291
 12:25:44.388,eb:33:2e:f9:57:b5, 2015-01-01 00:11:58.535,0.091,2.036,6.822,467.407,201.05,26.367, , , , , , ,68.055,21.566,-112.088
 12:25:44.388,eb:33:2e:f9:57:b5, 2015-01-01 00:11:58.535,0.24,1.667,5.286,512.207,141.907,-35.4, , , , , , ,70.851,21.907,-111.264
 12:25:44.388,eb:33:2e:f9:57:b5, 2015-01-01 00:11:58.535,0.421,1.028,4.575,500.366,104.309,-89.722, , , , , , ,73.581,22.412,-110.775
 12:25:44.388,eb:33:2e:f9:57:b5, 2015-01-01 00:11:58.535,1.014,0.58,4.742,459.229,100.769,-139.771, , , , , , ,76.069,23.11,-110.435
 12:25:44.388,eb:33:2e:f9:57:b5, 2015-01-01 00:11:58.535,1.445,0.073,6.016,405.823,144.653,-198.364, , , , , , ,78.382,24.093,-109.99
 12:25:44.388,eb:33:2e:f9:57:b5, 2015-01-01 00:11:58.535,1.62,-0.324,6.697,375,190.308,-245.544, , , , , , ,80.612,25.367,-109.265
 12:25:44.388,eb:33:2e:f9:57:b5, 2015-01-01 00:11:58.535,1.9,-0.599,6.334,354.614,212.341,-290.405, , , , , , ,82.826,26.867,-108.347
 12:25:44.388,eb:33:2e:f9:57:b5, 2015-01-01 00:11:58.535,2.105,-0.821,5.576,335.144,211.304,-330.017, , , , , , ,84.968,28.531,-107.358
 12:25:44.389,eb:33:2e:f9:57:b5, 2015-01-01 00:11:58.535,2.079,-1.091,4.732,312.195,193.42,-361.328, , , , , , ,87.078,30.344,-106.342
 12:25:44.389,eb:33:2e:f9:57:b5, 2015-01-01 00:11:58.535,1.967,-1.38,3.975,286.804,163.025,-382.568, , , , , , ,89.061,32.25,-105.37
 12:25:44.389,eb:33:2e:f9:57:b5, 2015-01-01 00:11:58.535,1.805,-1.669,3.527,259.521,128.296,-390.32, , , , , , ,90.879,34.189,-104.518
 12:25:44.389,eb:33:2e:f9:57:b5, 2015-01-01 00:11:58.535,1.622,-1.94,3.454,232.483,96.985,-385.01, , , , , , ,92.461,36.101,-103.815
 12:25:44.389,eb:33:2e:f9:57:b5, 2015-01-01 00:11:59.005,1.422,-2.181,3.62,207.275,75.256,-367.31, , , , , , ,93.939,37.952,-103.167
 12:25:44.389,eb:33:2e:f9:57:b5, 2015-01-01 00:11:59.005,1.327,-2.406,3.836,185.364,66.833,-339.172, , , , , , ,95.301,39.672,-102.53
 12:25:44.389,eb:33:2e:f9:57:b5, 2015-01-01 00:11:59.005,1.355,-2.633,3.969,165.894,73.547,-302.673, , , , , , ,96.603,41.221,-101.86
 12:25:44.389,eb:33:2e:f9:57:b5, 2015-01-01 00:11:59.005,1.396,-2.833,3.893,146.729,94.91,-259.888, , , , , , ,97.844,42.534,-101.102
 12:25:44.389,eb:33:2e:f9:57:b5, 2015-01-01 00:11:59.005,1.436,-2.967,3.543,127.747,120.911,-212.646, , , , , , ,99.19,43.594,-100.118
 12:25:44.389,eb:33:2e:f9:57:b5, 2015-01-01 00:11:59.005,1.388,-3.064,3.082,109.863,141.846,-165.039, , , , , , ,100.569,44.385,-98.965
 12:25:44.389,eb:33:2e:f9:57:b5, 2015-01-01 00:11:59.005,1.362,-3.211,2.539,95.825,145.142,-118.896, , , , , , ,101.909,44.918,-97.773
 12:25:44.389,eb:33:2e:f9:57:b5, 2015-01-01 00:11:59.005,1.399,-3.398,1.95,84.717,132.996,-76.111, , , , , , ,103.052,45.22,-96.735
 12:25:44.389,eb:33:2e:f9:57:b5, 2015-01-01 00:11:59.005,1.336,-3.579,1.21,70.679,110.046,-34.302, , , , , , ,104.084,45.324,-95.823
 12:25:44.389,eb:33:2e:f9:57:b5, 2015-01-01 00:11:59.005,1.288,-3.683,0.19,46.692,79.59,7.08, , , , , , ,104.837,45.258,-95.158
 12:25:44.390,eb:33:2e:f9:57:b5, 2015-01-01 00:11:59.005,1.27,-3.744,-0.864,9.277,46.509,48.34, , , , , , ,105.216,45.027,-94.807
 12:25:44.390,eb:33:2e:f9:57:b5, 2015-01-01 00:11:59.005,1.369,-3.755,-2.083,-49.438,11.902,88.257, , , , , , ,105.046,44.643,-94.828
 12:25:44.394,eb:33:2e:f9:57:b5, 2015-01-01 00:11:59.005,1.664,-3.803,-2.76,-121.216,-22.583,124.512, , , , , , ,104.403,44.121,-95.087
 12:25:44.394,eb:33:2e:f9:57:b5, 2015-01-01 00:11:59.005,1.874,-3.74,-2.459,-189.026,-52.612,152.039, , , , , , ,103.239,43.484,-95.581
 12:25:44.394,eb:33:2e:f9:57:b5, 2015-01-01 00:11:59.005,2.016,-3.537,-1.849,-243.347,-82.825,167.664, , , , , , ,101.64,42.764,-96.295
 12:25:44.394,eb:33:2e:f9:57:b5, 2015-01-01 00:11:59.005,2.15,-3.284,-1.547,-289.612,-114.746,173.889, , , , , , ,99.613,42.017,-97.245
 12:25:44.394,eb:33:2e:f9:57:b5, 2015-01-01 00:11:59.005,2.326,-2.896,-1.489,-335.815,-148.071,172.974, , , , , , ,97.317,41.254,-98.311
 12:25:44.394,eb:33:2e:f9:57:b5, 2015-01-01 00:11:59.005,2.47,-2.363,-1.337,-384.46,-178.711,164.673, , , , , , ,94.702,40.501,-99.509
 12:25:44.394,eb:33:2e:f9:57:b5, 2015-01-01 00:11:59.005,2.491,-1.983,-1.057,-430.542,-207.031,150.024, , , , , , ,91.774,39.781,-100.849
 12:25:44.394,eb:33:2e:f9:57:b5, 2015-01-01 00:11:59.005,2.457,-1.916,-0.768,-470.093,-234.985,132.935, , , , , , ,88.517,39.078,-102.354
 12:25:44.396,eb:33:2e:f9:57:b5, 2015-01-01 00:11:59.005,2.388,-1.969,-0.524,-504.7,-260.62,116.577, , , , , , ,85.089,38.397,-103.914
 12:25:44.396,eb:33:2e:f9:57:b5, 2015-01-01 00:11:59.005,2.257,-1.958,-0.334,-535.583,-287.354,101.44, , , , , , ,81.442,37.7,-105.568
 12:25:44.396,eb:33:2e:f9:57:b5, 2015-01-01 00:11:59.005,2.132,-1.89,-0.148,-562.683,-317.505,88.135, , , , , , ,77.602,36.964,-107.347
 12:25:44.396,eb:33:2e:f9:57:b5, 2015-01-01 00:11:59.005,1.989,-1.828,0.176,-584.9,-347.351,77.454, , , , , , ,73.531,36.14,-109.292
 12:25:44.396,eb:33:2e:f9:57:b5, 2015-01-01 00:11:59.005,1.833,-1.817,0.609,-600.952,-374.573,70.435, , , , , , ,69.401,35.217,-111.275
 12:25:44.396,eb:33:2e:f9:57:b5, 2015-01-01 00:11:59.005,1.703,-1.821,1.112,-611.023,-396.667,67.627, , , , , , ,65.215,34.151,-113.286
 12:25:44.396,eb:33:2e:f9:57:b5, 2015-01-01 00:11:59.005,1.59,-1.786,1.667,-616.699,-411.743,68.054, , , , , , ,61.04,32.932,-115.274
 12:25:44.396,eb:33:2e:f9:57:b5, 2015-01-01 00:11:59.005,1.542,-1.63,2.317,-620.3,-419.434,68.848, , , , , , ,56.876,31.542,-117.224
 12:25:44.476,eb:33:2e:f9:57:b5, 2015-01-01 00:11:59.005,1.505,-1.386,2.756,-621.277,-418.701,67.017, , , , , , ,52.866,30.059,-118.993
 12:25:44.476,eb:33:2e:f9:57:b5, 2015-01-01 00:11:59.005,1.488,-1.104,3.043,-620.239,-415.222,61.462, , , , , , ,48.966,28.499,-120.608
 12:25:44.476,eb:33:2e:f9:57:b5, 2015-01-01 00:11:59.005,1.432,-0.853,3.228,-617.798,-410.034,52.124, , , , , , ,45.181,26.889,-122.097
 12:25:44.476,eb:33:2e:f9:57:b5, 2015-01-01 00:11:59.005,1.294,-0.702,3.329,-614.38,-404.175,41.992, , , , , , ,41.446,25.225,-123.508
 12:25:44.476,eb:33:2e:f9:57:b5, 2015-01-01 00:11:59.005,1.149,-0.65,3.337,-610.474,-398.438,32.654, , , , , , ,37.87,23.566,-124.755
 12:25:44.476,eb:33:2e:f9:57:b5, 2015-01-01 00:11:59.005,1.052,-0.596,3.264,-606.384,-392.944,24.353, , , , , , ,34.387,21.89,-125.892
 12:25:44.476,eb:33:2e:f9:57:b5, 2015-01-01 00:11:59.005,0.978,-0.511,3.109,-601.013,-390.259,15.564, , , , , , ,30.992,20.193,-126.936
 12:25:44.476,eb:33:2e:f9:57:b5, 2015-01-01 00:11:59.005,0.836,-0.401,2.882,-592.468,-395.813,4.883, , , , , , ,27.636,18.424,-127.947
 12:25:44.478,eb:33:2e:f9:57:b5, 2015-01-01 00:11:59.005,0.724,-0.274,2.64,-580.017,-413.818,-7.874, , , , , , ,24.423,16.606,-128.892
 12:25:44.478,eb:33:2e:f9:57:b5, 2015-01-01 00:11:59.005,0.597,-0.17,2.546,-566.162,-437.988,-20.874, , , , , , ,21.313,14.661,-129.825
 12:25:44.478,eb:33:2e:f9:57:b5, 2015-01-01 00:11:59.005,0.428,-0.14,2.55,-554.504,-460.815,-31.128, , , , , , ,18.303,12.585,-130.748
 12:25:44.478,eb:33:2e:f9:57:b5, 2015-01-01 00:11:59.005,0.223,-0.199,2.618,-547.852,-476.379,-35.156, , , , , , ,15.326,10.338,-131.638
 12:25:44.478,eb:33:2e:f9:57:b5, 2015-01-01 00:11:59.005,-0.006,-0.329,2.792,-546.692,-478.882,-29.541, , , , , , ,12.475,8.053,-132.38
 12:25:44.478,eb:33:2e:f9:57:b5, 2015-01-01 00:11:59.005,-0.217,-0.492,3.066,-549.622,-464.905,-12.512, , , , , , ,9.668,5.757,-132.935
 12:25:44.478,eb:33:2e:f9:57:b5, 2015-01-01 00:11:59.005,-0.292,-0.641,3.393,-554.443,-434.57,17.029, , , , , , ,6.877,3.538,-133.237
 12:25:44.478,eb:33:2e:f9:57:b5, 2015-01-01 00:11:59.005,-0.211,-0.75,3.778,-557.678,-386.414,50.171, , , , , , ,4.043,1.45,-133.264
 12:25:44.544,eb:33:2e:f9:57:b5, 2015-01-01 00:11:59.005,-0.231,-0.57,3.824,-559.204,-339.294,80.566, , , , , , ,1.252,-0.335,-133
 12:25:44.544,eb:33:2e:f9:57:b5, 2015-01-01 00:11:59.005,-0.21,-0.067,3.404,-554.321,-330.505,99.976, , , , , , ,-1.538,-1.989,-132.528
 12:25:44.544,eb:33:2e:f9:57:b5, 2015-01-01 00:11:59.005,-0.086,0.549,3.118,-541.138,-362.671,106.934, , , , , , ,-4.301,-3.691,-131.913
 12:25:44.544,eb:33:2e:f9:57:b5, 2015-01-01 00:11:59.005,0.079,1.095,3.279,-521.179,-416.687,106.812, , , , , , ,-7.064,-5.641,-131.193
 12:25:44.544,eb:33:2e:f9:57:b5, 2015-01-01 00:11:59.005,0.119,1.51,3.946,-497.803,-471.924,105.469, , , , , , ,-9.701,-7.795,-130.331
 12:25:44.544,eb:33:2e:f9:57:b5, 2015-01-01 00:11:59.005,-0.057,1.841,4.969,-475.769,-509.338,106.323, , , , , , ,-12.277,-10.129,-129.326
 12:25:44.544,eb:33:2e:f9:57:b5, 2015-01-01 00:11:59.005,-0.458,2.232,6.08,-457.581,-516.968,111.938, , , , , , ,-14.832,-12.508,-128.167
 12:25:44.544,eb:33:2e:f9:57:b5, 2015-01-01 00:11:59.005,-1.02,2.898,7.038,-439.331,-494.751,119.751, , , , , , ,-17.424,-14.81,-126.87
 12:25:44.611,eb:33:2e:f9:57:b5, 2015-01-01 00:11:59.005,-1.657,3.867,7.71,-408.142,-453.979,124.329, , , , , , ,-19.913,-16.848,-125.48
 12:25:44.611,eb:33:2e:f9:57:b5, 2015-01-01 00:11:59.005,-2.204,4.968,7.863,-357.117,-406.921,121.582, , , , , , ,-22.236,-18.611,-124.074
 12:25:44.611,eb:33:2e:f9:57:b5, 2015-01-01 00:11:59.005,-2.557,5.947,7.607,-289.368,-361.877,109.741, , , , , , ,-24.274,-20.127,-122.717
 12:25:44.611,eb:33:2e:f9:57:b5, 2015-01-01 00:11:59.005,-2.691,6.777,7.366,-213.928,-318.054,86.182, , , , , , ,-25.972,-21.467,-121.481
 12:25:44.611,eb:33:2e:f9:57:b5, 2015-01-01 00:11:59.005,-2.674,7.454,7.127,-140.686,-267.7,51.758, , , , , , ,-27.202,-22.61,-120.465
 12:25:44.611,eb:33:2e:f9:57:b5, 2015-01-01 00:11:59.005,-2.691,7.838,6.539,-83.13,-204.59,13.245, , , , , , ,-28.004,-23.566,-119.745
 12:25:44.611,eb:33:2e:f9:57:b5, 2015-01-01 00:11:59.005,-2.836,7.992,5.631,-44.312,-137.085,-23.499, , , , , , ,-28.455,-24.307,-119.366
 12:25:44.611,eb:33:2e:f9:57:b5, 2015-01-01 00:11:59.005,-3.038,7.872,4.719,-13.184,-81.909,-56.213, , , , , , ,-28.625,-24.879,-119.306
 12:25:44.613,eb:33:2e:f9:57:b5, 2015-01-01 00:11:59.005,-3.209,7.35,3.975,21.362,-46.936,-82.275, , , , , , ,-28.51,-25.312,-119.504
 12:25:44.613,eb:33:2e:f9:57:b5, 2015-01-01 00:11:59.005,-3.02,6.343,3.367,72.083,-22.034,-101.929, , , , , , ,-28.092,-25.681,-119.883
 12:25:44.613,eb:33:2e:f9:57:b5, 2015-01-01 00:11:59.005,-2.749,5.415,3.062,109.192,4.761,-102.722, , , , , , ,-27.4,-25.95,-120.377
 12:25:44.613,eb:33:2e:f9:57:b5, 2015-01-01 00:11:59.005,-2.582,4.675,2.879,133.545,39.368,-91.919, , , , , , ,-26.548,-26.071,-120.927
 12:25:44.613,eb:33:2e:f9:57:b5, 2015-01-01 00:11:59.005,-2.439,4.35,2.699,150.757,67.566,-76.965, , , , , , ,-25.582,-25.994,-121.481
 12:25:44.613,eb:33:2e:f9:57:b5, 2015-01-01 00:11:59.005,-2.338,4.073,2.316,170.532,79.651,-62.561, , , , , , ,-24.543,-25.796,-122.009
 12:25:44.613,eb:33:2e:f9:57:b5, 2015-01-01 00:11:59.005,-0.121,3.545,1.851,201.477,75.745,-49.072, , , , , , ,-23.406,-25.549,-122.459
 12:25:44.613,eb:33:2e:f9:57:b5, 2015-01-01 00:11:59.005,-4.266,4.342,4.128,536.987,71.594,-331.055, , , , , , ,-21.379,-25.659,-123.3
 12:25:44.679,eb:33:2e:f9:57:b5, 2015-01-01 00:11:59.005,8.074,6.846,0.666,855.225,524.597,-468.262, , , , , , ,-16.436,-23.884,-126.019
 12:25:44.679,eb:33:2e:f9:57:b5, 2015-01-01 00:11:59.005,4.216,3.784,2.596,611.816,1059.937,-234.314, , , , , , ,-11.783,-20.061,-128.903
 12:25:44.679,eb:33:2e:f9:57:b5, 2015-01-01 00:11:59.005,-3.054,4.161,6.229,396.118,1148.621,-42.48, , , , , , ,-8.921,-14.513,-130.737
 12:25:44.679,eb:33:2e:f9:57:b5, 2015-01-01 00:11:59.005,-2.908,-0.252,4.289,335.571,920.227,51.392, , , , , , ,-7.009,-9.41,-131.396
 12:25:44.679,eb:33:2e:f9:57:b5, 2015-01-01 00:11:59.005,-2.917,-0.636,1.004,305.603,667.419,142.151, , , , , , ,-5.416,-5.57,-131.265
 12:25:44.679,eb:33:2e:f9:57:b5, 2015-01-01 00:11:59.005,-5.92,2.742,-0.484,147.278,462.891,175.476, , , , , , ,-4.351,-2.769,-130.6
 12:25:44.679,eb:33:2e:f9:57:b5, 2015-01-01 00:11:59.005,-3.347,1.829,-0.637,87.28,199.89,45.044, , , , , , ,-3.867,-1.296,-130.32
 12:25:44.680,eb:33:2e:f9:57:b5, 2015-01-01 00:11:59.005,-0.663,-2.025,-0.537,130.432,65.125,27.954, , , , , , ,-3.29,-0.72,-130.248
 12:25:44.723,eb:33:2e:f9:57:b5, 2015-01-01 00:11:59.005,0.076,-0.15,0.577,105.774,22.278,54.81, , , , , , ,-2.703,-0.56,-130.012
 12:25:44.723,eb:33:2e:f9:57:b5, 2015-01-01 00:11:59.005,-0.958,0.598,0.829,77.82,37.17,53.894, , , , , , ,-2.263,-0.352,-129.721
 12:25:44.723,eb:33:2e:f9:57:b5, 2015-01-01 00:11:59.005,0.291,-0.238,0.239,88.44,-24.048,32.166, , , , , , ,-1.857,-0.357,-129.54
 12:25:44.723,eb:33:2e:f9:57:b5, 2015-01-01 00:11:59.005,1.45,0.422,1.233,82.214,-13.55,4.089, , , , , , ,-1.406,-0.472,-129.468
 12:25:44.723,eb:33:2e:f9:57:b5, 2015-01-01 00:11:59.005,0.793,0.397,1.847,64.27,48.096,-10.132, , , , , , ,-1.049,-0.368,-129.496
 12:25:44.723,eb:33:2e:f9:57:b5, 2015-01-01 00:11:59.005,0.269,0.197,1.226,55.908,76.355,-12.39, , , , , , ,-0.758,-0.022,-129.556
 12:25:44.723,eb:33:2e:f9:57:b5, 2015-01-01 00:11:59.005,-0.368,0.542,1.476,61.035,88.928,-33.142, , , , , , ,-0.472,0.406,-129.688
 12:25:44.723,eb:33:2e:f9:57:b5, 2015-01-01 00:11:59.005,-0.691,0.116,0.746,63.416,72.998,-29.968, , , , , , ,-0.137,0.802,-129.858
 12:25:44.769,eb:33:2e:f9:57:b5, 2015-01-01 00:11:59.005,-0.357,0.034,0.321,56.519,48.95,-16.968, , , , , , ,0.148,1.093,-129.968
 12:25:44.769,eb:33:2e:f9:57:b5, 2015-01-01 00:11:59.005,0.118,-0.058,0.661,53.833,33.875,-7.263, , , , , , ,0.423,1.291,-130.018
 12:25:44.769,eb:33:2e:f9:57:b5, 2015-01-01 00:11:59.005,0.107,0.079,1.178,53.223,37.048,-3.052, , , , , , ,0.687,1.461,-130.04
 12:25:44.769,eb:33:2e:f9:57:b5, 2015-01-01 00:11:59.005,-0.421,0.159,1.252,56.519,38.025,-0.916, , , , , , ,0.978,1.659,-130.056
 12:25:44.769,eb:33:2e:f9:57:b5, 2015-01-01 00:11:59.005,0.017,-0.196,1.296,65.552,24.292,10.315, , , , , , ,1.285,1.807,-130.023
 12:25:44.769,eb:33:2e:f9:57:b5, 2015-01-01 00:11:59.005,0.075,-0.093,1.561,77.026,20.813,10.193, , , , , , ,1.653,1.912,-129.957
 12:25:44.769,eb:33:2e:f9:57:b5, 2015-01-01 00:11:59.005,0.343,0.06,1.365,84.778,13.062,5.493, , , , , , ,2.06,1.994,-129.919
 12:25:44.769,eb:33:2e:f9:57:b5, 2015-01-01 00:11:59.005,0.211,0.205,1.956,94.543,18.921,-6.897, , , , , , ,2.527,2.071,-129.93
 12:25:44.793,eb:33:2e:f9:57:b5, 2015-01-01 00:11:59.005,0.425,0.143,1.778,109.741,13.428,-17.822, , , , , , ,3.043,2.159,-129.99
 12:25:44.793,eb:33:2e:f9:57:b5, 2015-01-01 00:11:59.005,0.053,0.096,2.643,120.239,34.119,-28.687, , , , , , ,3.615,2.28,-130.106
 12:25:44.794,eb:33:2e:f9:57:b5, 2015-01-01 00:11:59.005,0.086,-0.444,2.764,147.217,47.363,-31.25, , , , , , ,4.285,2.516,-130.243
 12:25:44.794,eb:33:2e:f9:57:b5, 2015-01-01 00:11:59.005,0.087,-0.637,3.033,190.796,51.88,-36.926, , , , , , ,5.153,2.774,-130.402
 12:25:44.794,eb:33:2e:f9:57:b5, 2015-01-01 00:11:59.005,0.105,-0.899,3.372,235.107,63.782,-36.804, , , , , , ,6.229,3.087,-130.556
 12:25:44.794,eb:33:2e:f9:57:b5, 2015-01-01 00:11:59.005,0.092,-0.984,3.195,285.156,69.031,-34.058, , , , , , ,7.542,3.444,-130.688
 12:25:44.794,eb:33:2e:f9:57:b5, 2015-01-01 00:11:59.005,0.303,-0.83,2.826,334.961,57.739,-31.738, , , , , , ,9.113,3.779,-130.798
 12:25:44.794,eb:33:2e:f9:57:b5, 2015-01-01 00:11:59.005,0.397,-0.987,3.28,378.113,59.448,-25.879, , , , , , ,10.926,4.087,-130.897
 12:25:44.814,eb:33:2e:f9:57:b5, 2015-01-01 00:11:59.500,0.725,-1.17,3.958,424.744,79.59,-22.705, , , , , , ,12.953,4.455,-130.941
 12:25:44.814,eb:33:2e:f9:57:b5, 2015-01-01 00:11:59.500,1.127,-1.307,4.512,474.548,114.441,-23.682, , , , , , ,15.227,4.96,-130.919
 12:25:44.814,eb:33:2e:f9:57:b5, 2015-01-01 00:11:59.500,1.407,-1.119,4.607,522.156,152.161,-32.715, , , , , , ,17.748,5.658,-130.864
 12:25:44.814,eb:33:2e:f9:57:b5, 2015-01-01 00:11:59.500,1.474,-1.026,4.583,559.509,196.594,-45.959, , , , , , ,20.49,6.57,-130.765
 12:25:44.814,eb:33:2e:f9:57:b5, 2015-01-01 00:11:59.500,1.337,-1.162,4.829,596.497,241.943,-62.195, , , , , , ,23.417,7.718,-130.6
 12:25:44.814,eb:33:2e:f9:57:b5, 2015-01-01 00:11:59.500,0.907,-0.812,5.45,631.836,270.691,-69.702, , , , , , ,26.543,9.036,-130.325
 12:25:44.814,eb:33:2e:f9:57:b5, 2015-01-01 00:11:59.500,0.116,-1,5.945,652.588,285.461,-77.271, , , , , , ,29.833,10.448,-129.99
 12:25:44.814,eb:33:2e:f9:57:b5, 2015-01-01 00:11:59.500,-0.28,-1.047,5.24,657.349,267.334,-67.932, , , , , , ,33.201,11.821,-129.567
 12:25:44.859,eb:33:2e:f9:57:b5, 2015-01-01 00:11:59.500,0.16,-0.101,4.459,645.508,200.989,-64.758, , , , , , ,36.541,12.942,-129.172
 12:25:44.859,eb:33:2e:f9:57:b5, 2015-01-01 00:11:59.500,0.544,0.656,4.464,604.004,140.93,-69.336, , , , , , ,39.732,13.793,-128.914
 12:25:44.859,eb:33:2e:f9:57:b5, 2015-01-01 00:11:59.500,0.461,1.064,5.066,513.611,176.636,-67.139, , , , , , ,42.534,14.584,-128.655
 12:25:44.859,eb:33:2e:f9:57:b5, 2015-01-01 00:11:59.500,1.102,0.331,4.106,473.267,251.282,-77.881, , , , , , ,45.104,15.628,-128.123
 12:25:44.859,eb:33:2e:f9:57:b5, 2015-01-01 00:11:59.500,-0.813,1.023,2.982,475.769,333.374,-91.37, , , , , , ,47.686,17.023,-127.282
 12:25:44.859,eb:33:2e:f9:57:b5, 2015-01-01 00:11:59.500,-0.91,4.566,-2.339,312.439,271.118,-87.341, , , , , , ,49.927,18.38,-126.343
 12:25:44.859,eb:33:2e:f9:57:b5, 2015-01-01 00:11:59.500,0.504,3.656,-1.646,163.879,171.021,-87.28, , , , , , ,51.185,19.358,-125.799
 12:25:44.859,eb:33:2e:f9:57:b5, 2015-01-01 00:11:59.500,1.007,2.617,0.712,80.505,145.325,-77.393, , , , , , ,51.833,20.143,-125.453
 12:25:44.927,eb:33:2e:f9:57:b5, 2015-01-01 00:11:59.500,0.558,1.861,3.156,97.839,182.861,-61.523, , , , , , ,52.416,20.912,-124.969
 12:25:44.927,eb:33:2e:f9:57:b5, 2015-01-01 00:11:59.500,0.696,1.817,4.641,198.181,199.341,-66.528, , , , , , ,53.416,21.753,-124.332
 12:25:44.927,eb:33:2e:f9:57:b5, 2015-01-01 00:11:59.500,0.701,2.118,5.299,313.049,189.209,-82.336, , , , , , ,54.992,22.637,-123.712
 12:25:44.927,eb:33:2e:f9:57:b5, 2015-01-01 00:11:59.500,0.579,1.931,4.439,387.512,157.166,-98.022, , , , , , ,56.986,23.483,-123.223
 12:25:44.927,eb:33:2e:f9:57:b5, 2015-01-01 00:11:59.500,0.568,1.417,3.223,407.715,120.728,-107.3, , , , , , ,59.134,24.28,-122.899
 12:25:44.927,eb:33:2e:f9:57:b5, 2015-01-01 00:11:59.500,0.706,0.84,2.943,393.311,98.633,-112.549, , , , , , ,61.227,25.027,-122.684
 12:25:44.927,eb:33:2e:f9:57:b5, 2015-01-01 00:11:59.500,0.77,0.394,3.678,367.432,106.14,-117.004, , , , , , ,63.199,25.768,-122.492
 12:25:44.927,eb:33:2e:f9:57:b5, 2015-01-01 00:11:59.500,0.804,0.243,4.734,346.68,133.728,-123.718, , , , , , ,65.094,26.559,-122.173
 12:25:44.949,eb:33:2e:f9:57:b5, 2015-01-01 00:11:59.500,0.954,0.309,5.559,337.83,165.527,-136.963, , , , , , ,67.017,27.471,-121.685
 12:25:44.951,eb:33:2e:f9:57:b5, 2015-01-01 00:11:59.500,1.171,0.407,5.928,339.539,191.711,-158.569, , , , , , ,69.011,28.504,-121.031
 12:25:44.951,eb:33:2e:f9:57:b5, 2015-01-01 00:11:59.500,1.398,0.261,5.853,347.412,203.918,-186.096, , , , , , ,71.087,29.669,-120.3
 12:25:44.951,eb:33:2e:f9:57:b5, 2015-01-01 00:11:59.500,1.539,-0.036,5.461,352.844,206.299,-215.82, , , , , , ,73.207,30.932,-119.537
 12:25:44.951,eb:33:2e:f9:57:b5, 2015-01-01 00:11:59.500,1.559,-0.4,4.876,349.426,199.341,-250.916, , , , , , ,75.372,32.349,-118.768
 12:25:44.951,eb:33:2e:f9:57:b5, 2015-01-01 00:11:59.500,1.558,-0.685,4.475,337.463,189.087,-274.902, , , , , , ,77.492,33.865,-118.004
 12:25:44.951,eb:33:2e:f9:57:b5, 2015-01-01 00:11:59.500,1.56,-0.946,4.291,321.106,180.42,-292.297, , , , , , ,79.557,35.447,-117.252
 12:25:44.951,eb:33:2e:f9:57:b5, 2015-01-01 00:11:59.500,1.495,-1.151,4.262,301.941,180.176,-302.734, , , , , , ,81.535,37.051,-116.483
 12:25:44.973,eb:33:2e:f9:57:b5, 2015-01-01 00:11:59.500,1.404,-1.306,4.241,282.837,185.425,-301.941, , , , , , ,83.54,38.672,-115.582
 12:25:44.973,eb:33:2e:f9:57:b5, 2015-01-01 00:11:59.500,1.282,-1.505,4.236,266.418,195.923,-292.786, , , , , , ,85.573,40.243,-114.51
 12:25:44.973,eb:33:2e:f9:57:b5, 2015-01-01 00:11:59.500,1.168,-1.703,4.241,255.005,208.557,-274.78, , , , , , ,87.682,41.715,-113.28
 12:25:44.973,eb:33:2e:f9:57:b5, 2015-01-01 00:11:59.500,1.064,-1.861,4.229,247.314,221.313,-249.756, , , , , , ,89.835,43.022,-111.89
 12:25:44.973,eb:33:2e:f9:57:b5, 2015-01-01 00:11:59.500,0.998,-1.958,4.109,241.577,230.469,-219.971, , , , , , ,92.153,44.16,-110.297
 12:25:44.973,eb:33:2e:f9:57:b5, 2015-01-01 00:11:59.500,0.977,-2.017,3.891,235.779,234.619,-187.5, , , , , , ,94.554,45.093,-108.561
 12:25:44.973,eb:33:2e:f9:57:b5, 2015-01-01 00:11:59.500,0.973,-2.081,3.648,228.943,235.352,-153.442, , , , , , ,96.987,45.807,-106.771
 12:25:44.973,eb:33:2e:f9:57:b5, 2015-01-01 00:11:59.500,1.015,-2.156,3.411,221.191,234.009,-119.019, , , , , , ,99.338,46.291,-105.018
 12:25:45.017,eb:33:2e:f9:57:b5, 2015-01-01 00:11:59.500,1.108,-2.244,3.231,213.196,232.117,-85.144, , , , , , ,101.717,46.56,-103.233
 12:25:45.017,eb:33:2e:f9:57:b5, 2015-01-01 00:11:59.500,1.177,-2.347,3.094,205.383,230.652,-52.49, , , , , , ,104.03,46.62,-101.47
 12:25:45.017,eb:33:2e:f9:57:b5, 2015-01-01 00:11:59.500,1.268,-2.431,2.918,197.693,228.699,-21.484, , , , , , ,106.249,46.483,-99.794
 12:25:45.017,eb:33:2e:f9:57:b5, 2015-01-01 00:11:59.500,1.383,-2.492,2.731,188.843,225.647,7.629, , , , , , ,108.27,46.165,-98.284
 12:25:45.017,eb:33:2e:f9:57:b5, 2015-01-01 00:11:59.500,1.453,-2.508,2.492,177.002,219.666,33.997, , , , , , ,110.226,45.687,-96.833
 12:25:45.017,eb:33:2e:f9:57:b5, 2015-01-01 00:11:59.500,1.455,-2.538,2.172,162.354,207.336,57.922, , , , , , ,111.984,45.077,-95.526
 12:25:45.017,eb:33:2e:f9:57:b5, 2015-01-01 00:11:59.500,1.465,-2.657,1.723,145.264,186.157,79.346, , , , , , ,113.505,44.374,-94.449
 12:25:45.017,eb:33:2e:f9:57:b5, 2015-01-01 00:11:59.500,1.545,-2.863,1.152,123.169,161.682,99.121, , , , , , ,114.659,43.61,-93.691
 12:25:45.061,eb:33:2e:f9:57:b5, 2015-01-01 00:11:59.500,1.601,-3.133,0.403,89.722,141.113,121.46, , , , , , ,115.593,42.786,-93.093
 12:25:45.061,eb:33:2e:f9:57:b5, 2015-01-01 00:11:59.500,1.495,-3.37,-0.622,40.161,123.474,146.118, , , , , , ,116.164,41.891,-92.681
 12:25:45.061,eb:33:2e:f9:57:b5, 2015-01-01 00:11:59.500,1.601,-3.561,-1.691,-19.104,94.788,169.617, , , , , , ,116.301,40.935,-92.51
 12:25:45.061,eb:33:2e:f9:57:b5, 2015-01-01 00:11:59.500,1.895,-3.69,-2.001,-77.881,58.594,186.584, , , , , , ,115.895,39.968,-92.664
 12:25:45.061,eb:33:2e:f9:57:b5, 2015-01-01 00:11:59.500,2.093,-3.769,-1.747,-129.944,25.635,195.251, , , , , , ,115.153,39.018,-92.977
 12:25:45.061,eb:33:2e:f9:57:b5, 2015-01-01 00:11:59.500,2.308,-3.893,-1.696,-181.702,-1.709,199.768, , , , , , ,114.049,38.101,-93.439
 12:25:45.061,eb:33:2e:f9:57:b5, 2015-01-01 00:11:59.500,2.539,-3.877,-1.799,-241.76,-21.362,200.928, , , , , , ,112.61,37.205,-94.021
 12:25:45.061,eb:33:2e:f9:57:b5, 2015-01-01 00:11:59.500,2.691,-3.468,-1.829,-311.646,-36.621,196.167, , , , , , ,110.753,36.348,-94.713
 12:25:45.130,eb:33:2e:f9:57:b5, 2015-01-01 00:11:59.500,2.808,-2.905,-1.693,-382.629,-53.711,183.655, , , , , , ,108.589,35.535,-95.378
 12:25:45.130,eb:33:2e:f9:57:b5, 2015-01-01 00:11:59.500,2.945,-2.492,-1.497,-446.106,-73.669,163.086, , , , , , ,106.078,34.816,-96.059
 12:25:45.130,eb:33:2e:f9:57:b5, 2015-01-01 00:11:59.500,3.037,-2.281,-1.357,-499.023,-96.924,136.963, , , , , , ,103.266,34.211,-96.801
 12:25:45.130,eb:33:2e:f9:57:b5, 2015-01-01 00:11:59.500,2.999,-2.203,-1.267,-542.664,-125.244,106.75, , , , , , ,100.129,33.745,-97.668
 12:25:45.130,eb:33:2e:f9:57:b5, 2015-01-01 00:11:59.500,2.836,-2.119,-1.137,-578.674,-161.316,75.623, , , , , , ,96.784,33.415,-98.613
 12:25:45.130,eb:33:2e:f9:57:b5, 2015-01-01 00:11:59.500,2.575,-1.98,-0.857,-608.337,-205.75,45.227, , , , , , ,93.17,33.212,-99.745
 12:25:45.130,eb:33:2e:f9:57:b5, 2015-01-01 00:11:59.500,2.334,-1.778,-0.29,-637.024,-264.587,13.428, , , , , , ,89.253,33.107,-101.184
 12:25:45.130,eb:33:2e:f9:57:b5, 2015-01-01 00:11:59.500,2.123,-1.685,0.311,-656.433,-310.73,-6.531, , , , , , ,85.007,33.025,-102.975
 12:25:45.130,eb:33:2e:f9:57:b5, 2015-01-01 00:11:59.500,1.948,-1.723,0.996,-671.509,-348.45,-19.409, , , , , , ,80.596,32.888,-104.963
 12:25:45.130,eb:33:2e:f9:57:b5, 2015-01-01 00:11:59.500,1.817,-1.828,1.718,-682.922,-373.657,-25.879, , , , , , ,76.042,32.635,-107.106
 12:25:45.130,eb:33:2e:f9:57:b5, 2015-01-01 00:11:59.500,1.699,-1.884,2.44,-691.956,-384.583,-27.1, , , , , , ,71.411,32.234,-109.319
 12:25:45.130,eb:33:2e:f9:57:b5, 2015-01-01 00:11:59.500,1.596,-1.779,3.119,-698.12,-383.301,-26.367, , , , , , ,66.731,31.657,-111.539
 12:25:45.130,eb:33:2e:f9:57:b5, 2015-01-01 00:11:59.500,1.528,-1.496,3.637,-698.303,-376.77,-28.259, , , , , , ,62.155,30.959,-113.615
 12:25:45.131,eb:33:2e:f9:57:b5, 2015-01-01 00:11:59.500,1.485,-1.194,3.946,-689.758,-373.108,-34.668, , , , , , ,57.684,30.163,-115.576
 12:25:45.131,eb:33:2e:f9:57:b5, 2015-01-01 00:11:59.500,1.421,-0.992,4.068,-674.133,-374.573,-46.204, , , , , , ,53.333,29.273,-117.482
 12:25:45.131,eb:33:2e:f9:57:b5, 2015-01-01 00:11:59.500,1.298,-0.868,3.984,-656.86,-380.554,-59.448, , , , , , ,49.059,28.279,-119.41
 12:25:45.197,eb:33:2e:f9:57:b5, 2015-01-01 00:11:59.500,1.165,-0.799,3.794,-642.639,-390.259,-70.251, , , , , , ,44.956,27.202,-121.262
 12:25:45.197,eb:33:2e:f9:57:b5, 2015-01-01 00:11:59.500,1.061,-0.832,3.723,-632.446,-399.109,-76.477, , , , , , ,40.963,26.01,-123.069
 12:25:45.197,eb:33:2e:f9:57:b5, 2015-01-01 00:11:59.500,0.908,-0.948,3.815,-626.465,-401.367,-76.355, , , , , , ,37.079,24.692,-124.794
 12:25:45.197,eb:33:2e:f9:57:b5, 2015-01-01 00:11:59.500,0.771,-1.053,3.889,-624.817,-397.827,-69.214, , , , , , ,33.25,23.236,-126.425
 12:25:45.197,eb:33:2e:f9:57:b5, 2015-01-01 00:11:59.500,0.698,-1.059,3.872,-625.671,-392.273,-56.885, , , , , , ,29.592,21.714,-127.826
 12:25:45.197,eb:33:2e:f9:57:b5, 2015-01-01 00:11:59.500,0.584,-1.007,3.789,-628.174,-386.719,-40.161, , , , , , ,26.027,20.105,-129.012
 12:25:45.197,eb:33:2e:f9:57:b5, 2015-01-01 00:11:59.500,0.542,-0.928,3.631,-628.235,-386.963,-21.973, , , , , , ,22.56,18.408,-129.996
 12:25:45.197,eb:33:2e:f9:57:b5, 2015-01-01 00:11:59.500,0.538,-0.844,3.542,-623.596,-394.043,-3.784, , , , , , ,19.138,16.562,-130.82
 12:25:45.264,eb:33:2e:f9:57:b5, 2015-01-01 00:11:59.920,0.548,-0.739,3.475,-614.441,-406.311,12.939, , , , , , ,15.886,14.639,-131.413
 12:25:45.264,eb:33:2e:f9:57:b5, 2015-01-01 00:11:59.920,0.545,-0.592,3.371,-603.455,-423.645,26.917, , , , , , ,12.744,12.596,-131.83
 12:25:45.264,eb:33:2e:f9:57:b5, 2015-01-01 00:11:59.920,0.483,-0.403,3.253,-593.018,-446.96,38.635, , , , , , ,9.706,10.421,-132.094
 12:25:45.264,eb:33:2e:f9:57:b5, 2015-01-01 00:11:59.920,0.369,-0.208,3.234,-583.13,-474.731,49.133, , , , , , ,6.696,8.047,-132.237
 12:25:45.264,eb:33:2e:f9:57:b5, 2015-01-01 00:11:59.920,0.233,-0.015,3.421,-572.754,-501.648,59.814, , , , , , ,3.818,5.576,-132.182
 12:25:45.264,eb:33:2e:f9:57:b5, 2015-01-01 00:11:59.920,0.062,0.234,3.804,-562.927,-521.606,73.12, , , , , , ,1,2.994,-131.951
 12:25:45.264,eb:33:2e:f9:57:b5, 2015-01-01 00:11:59.920,-0.075,0.525,4.326,-552.795,-531.433,89.111, , , , , , ,-1.763,0.357,-131.517
 12:25:45.264,eb:33:2e:f9:57:b5, 2015-01-01 00:11:59.920,-0.17,0.834,4.972,-542.053,-526.428,105.469, , , , , , ,-4.565,-2.302,-130.897
 12:25:45.286,eb:33:2e:f9:57:b5, 2015-01-01 00:11:59.920,-0.285,1.224,5.61,-531.189,-508.301,121.033, , , , , , ,-7.295,-4.812,-130.056
 12:25:45.286,eb:33:2e:f9:57:b5, 2015-01-01 00:11:59.920,-0.464,1.757,6.152,-520.63,-482.3,133.179, , , , , , ,-10.025,-7.152,-129.04
 12:25:45.286,eb:33:2e:f9:57:b5, 2015-01-01 00:11:59.920,-0.693,2.393,6.604,-507.874,-453.857,139.587, , , , , , ,-12.755,-9.294,-127.892
 12:25:45.286,eb:33:2e:f9:57:b5, 2015-01-01 00:11:59.920,-0.968,3.084,6.929,-488.831,-425.903,139.038, , , , , , ,-15.518,-11.283,-126.667
 12:25:45.286,eb:33:2e:f9:57:b5, 2015-01-01 00:11:59.920,-1.365,3.847,7.061,-458.435,-400.574,130.432, , , , , , ,-18.138,-13.052,-125.403
 12:25:45.286,eb:33:2e:f9:57:b5, 2015-01-01 00:11:59.920,-1.811,4.727,7.045,-410.767,-382.69,114.197, , , , , , ,-20.599,-14.683,-124.146
 12:25:45.286,eb:33:2e:f9:57:b5, 2015-01-01 00:11:59.920,-2.204,5.645,7.043,-344.238,-370.667,90.332, , , , , , ,-22.78,-16.243,-122.943
 12:25:45.287,eb:33:2e:f9:57:b5, 2015-01-01 00:11:59.920,-2.581,6.42,7.011,-268.25,-356.812,61.401, , , , , , ,-24.642,-17.787,-121.827
 12:25:45.335,eb:33:2e:f9:57:b5, 2015-01-01 00:11:59.920,-2.667,6.889,6.761,-181.03,-326.538,22.766, , , , , , ,-26.032,-19.243,-120.872
 12:25:45.336,eb:33:2e:f9:57:b5, 2015-01-01 00:11:59.920,-2.65,6.993,6.501,-124.329,-278.992,-9.644, , , , , , ,-27.004,-20.577,-120.146
 12:25:45.336,eb:33:2e:f9:57:b5, 2015-01-01 00:11:59.920,-2.673,7.022,6.091,-88.135,-209.473,-40.405, , , , , , ,-27.669,-21.703,-119.696
 12:25:45.336,eb:33:2e:f9:57:b5, 2015-01-01 00:11:59.920,-2.723,7.022,5.369,-67.2,-131.958,-67.81, , , , , , ,-28.125,-22.577,-119.559
 12:25:45.336,eb:33:2e:f9:57:b5, 2015-01-01 00:11:59.920,-2.818,6.855,4.449,-49.744,-63.721,-91.675, , , , , , ,-28.345,-23.165,-119.724
 12:25:45.336,eb:33:2e:f9:57:b5, 2015-01-01 00:11:59.920,-2.839,6.425,3.526,-23.865,-19.165,-111.816, , , , , , ,-28.356,-23.566,-120.141
 12:25:45.336,eb:33:2e:f9:57:b5, 2015-01-01 00:11:59.920,-2.727,5.817,2.826,12.939,2.808,-127.075, , , , , , ,-28.136,-23.873,-120.712
 12:25:45.336,eb:33:2e:f9:57:b5, 2015-01-01 00:11:59.920,-2.581,5.2,2.425,54.138,13.733,-135.681, , , , , , ,-27.686,-24.153,-121.393
 12:25:45.336,eb:33:2e:f9:57:b5, 2015-01-01 00:11:59.920,-2.492,4.744,2.249,91.553,20.691,-135.742, , , , , , ,-27.004,-24.39,-122.102
 12:25:45.336,eb:33:2e:f9:57:b5, 2015-01-01 00:11:59.920,2.119,4.327,2.191,121.643,28.015,-126.465, , , , , , ,-26.164,-24.571,-122.811
