Time,Device name,Chip Time(),Acceleration X(g),Acceleration Y(g),Acceleration Z(g),Angular velocity X(°/s),Angular velocity Y(°/s),Angular velocity Z(°/s),Angle X(°),Angle Y(°),Angle Z(°)
 14:33:30.970,eb:33:2e:f9:57:b5, 2085-97-12 01:26:255:3082,0.154,-0.16,1.425,-255.31,-153.687,4.395,14.7,10.058,-79.931
 14:33:30.971,eb:33:2e:f9:57:b5, 2085-97-14 01:40:255:3298,0.124,-0.115,1.552,-241.821,-148.926,2.93,12.151,8.575,-80.272
 14:33:30.971,eb:33:2e:f9:57:b5, 2085-97-242 00:164:255:3501,0.12,-0.082,1.674,-224.243,-143.738,5.615,9.794,7.141,-80.53
 14:33:30.971,eb:33:2e:f9:57:b5, 2085-97-245 00:26:00:3560,0.122,-0.007,1.723,-211.548,-146.484,8.911,7.592,5.691,-80.689
 14:33:30.999,eb:33:2e:f9:57:b5, 2085-97-253 00:22:00:3668,0.125,0.015,1.758,-211.06,-154.602,12.451,5.482,4.18,-80.771
 14:33:30.999,eb:33:2e:f9:57:b5, 2085-97-253 00:50:00:3769,0.122,0.012,1.82,-217.957,-163.086,16.663,3.323,2.571,-80.766
 14:33:30.999,eb:33:2e:f9:57:b5, 2085-97-243 00:174:00:3885,0.121,0.049,1.869,-224.854,-177.368,21.423,1.104,0.862,-80.662
 14:33:30.999,eb:33:2e:f9:57:b5, 2085-97-252 00:111:01:3986,0.123,0.132,1.93,-231.873,-192.2,26.672,-1.192,-1.011,-80.436
 14:33:31.029,eb:33:2e:f9:57:b5, 2085-97-04 01:50:02:4118,0.136,0.225,1.968,-240.662,-205.261,35.034,-3.576,-2.994,-80.063
 14:33:31.029,eb:33:2e:f9:57:b5, 2085-97-34 01:62:03:4318,0.143,0.329,2.064,-247.375,-212.708,44.25,-6.075,-5.07,-79.503
 14:33:31.029,eb:33:2e:f9:57:b5, 2085-97-54 01:212:04:4497,0.144,0.501,2.155,-253.113,-213.562,53.345,-8.668,-7.136,-78.761
 14:33:31.029,eb:33:2e:f9:57:b5, 2085-97-245 00:97:06:4462,0.155,0.712,2.198,-256.653,-208.008,61.096,-11.371,-9.13,-77.833
 14:33:31.089,eb:33:2e:f9:57:b5, 2085-97-10 00:39:08:4183,-0.311,0.924,2.218,-253.235,-203.369,64.087,-14.106,-11.008,-76.767
 14:33:31.089,eb:33:2e:f9:57:b5, 2085-97-191 251:82:07:3074,-0.692,0.917,1.732,-235.352,-225.403,62.866,-16.837,-12.892,-75.575
 14:33:31.089,eb:33:2e:f9:57:b5, 2085-97-161 249:93:09:3750,-0.85,1.049,1.5,-202.393,-287.659,57.739,-19.347,-15.183,-74.185
 14:33:31.089,eb:33:2e:f9:57:b5, 2085-97-234 248:185:10:5609,-0.924,1.238,2.314,-179.199,-284.363,61.157,-21.709,-17.776,-72.554
 14:33:31.119,eb:33:2e:f9:57:b5, 2085-97-191 247:133:15:5165,-1.126,1.555,2.855,-165.039,-161.682,76.782,-23.923,-19.589,-70.988
 14:33:31.120,eb:33:2e:f9:57:b5, 2085-97-123 246:94:22:3409,-1.166,2.41,2.038,-156.311,-50.476,87.341,-25.961,-20.105,-69.758
 14:33:31.120,eb:33:2e:f9:57:b5, 2085-97-106 247:105:26:3035,-0.958,3.097,1.5,-121.765,-10.559,69.153,-27.669,-19.973,-68.873
 14:33:31.120,eb:33:2e:f9:57:b5, 2085-97-57 249:98:26:3215,-0.738,3.372,1.521,-50.293,-4.333,27.161,-28.691,-19.803,-68.401
 14:33:31.180,eb:33:2e:f9:57:b5, 2085-97-152 250:28:21:3508,-0.654,2.999,1.647,38.818,-0.732,-20.63,-28.707,-19.847,-68.379
 14:33:31.180,eb:33:2e:f9:57:b5, 2085-97-17 251:249:15:3368,-0.589,2.299,1.694,110.352,33.447,-50.476,-27.751,-19.874,-68.829
 14:33:31.180,eb:33:2e:f9:57:b5, 2085-97-111 02:100:236:11735,-0.421,1.674,1.637,151.672,69.336,-60.181,-26.125,-19.649,-69.626
 14:33:31.180,eb:33:2e:f9:57:b5, 2085-97-15 07:52:237:103,2.055,-2.69,-0.103,94.177,182.922,-37.415,-24.521,-19.16,-70.928
 14:33:31.180,eb:33:2e:f9:57:b5, 2085-97-38 12:191:246:2442,0.314,-2.91,-0.292,204.468,150.085,18.25,-22.917,-17.726,-71.433
 14:33:31.208,eb:33:2e:f9:57:b5, 2085-113-58 00:95:221:2775,-0.339,0.026,0.97,259.888,285.034,-15.808,-20.193,-15.392,-72.296
 14:33:31.208,eb:33:2e:f9:57:b5, 2085-97-177 251:92:254:898,-0.671,0.236,0.77,253.54,257.874,-31.433,-18.759,-14.15,-72.883
 14:33:31.208,eb:33:2e:f9:57:b5, 2085-97-46 252:96:253:872,-0.055,-0.381,0.311,252.441,153.687,2.38,-16.057,-12.239,-73.647
 14:33:31.208,eb:33:2e:f9:57:b5, 2085-97-130 01:232:00:2436,0.295,-0.169,0.773,240.234,58.105,37.415,-13.585,-11.288,-73.652
 14:33:31.240,eb:33:2e:f9:57:b5, 2085-97-190 01:35:02:2707,0.044,0.263,1.376,206.482,71.106,33.752,-11.404,-10.635,-73.389
 14:33:31.240,eb:33:2e:f9:57:b5, 2085-97-181 254:121:01:2226,-0.208,0.244,1.258,174.011,100.464,22.217,-9.542,-9.712,-73.273
 14:33:31.240,eb:33:2e:f9:57:b5, 2085-97-142 254:175:01:2265,-0.104,0.161,1.044,152.466,89.661,10.254,-7.932,-8.729,-73.257
 14:33:31.240,eb:33:2e:f9:57:b5, 2085-97-200 255:31:01:2282,-0.159,0.199,1.113,130.737,75.317,-3.479,-6.515,-7.905,-73.328
 14:33:31.299,eb:33:2e:f9:57:b5, 2085-97-21 255:42:02:2308,-0.114,0.283,1.13,109.863,74.524,-12.329,-5.29,-7.141,-73.466
 14:33:31.299,eb:33:2e:f9:57:b5, 2085-97-34 255:109:01:2119,-0.099,0.238,1.083,85.693,71.472,-22.278,-4.301,-6.427,-73.707
 14:33:31.299,eb:33:2e:f9:57:b5, 2085-97-215 255:153:00:2057,0.006,0.133,0.999,69.58,61.829,-25.452,-3.505,-5.779,-73.987
 14:33:31.299,eb:33:2e:f9:57:b5, 2085-97-158 00:31:255:2035,0.244,0.028,0.993,58.35,54.932,-26.428,-2.829,-5.208,-74.279
 14:33:31.329,eb:33:2e:f9:57:b5, 2085-97-139 01:161:00:2249,-0.076,0.089,1.09,33.447,52.185,-3.662,-2.368,-4.686,-74.432
 14:33:31.329,eb:33:2e:f9:57:b5, 2085-97-215 255:101:00:1898,0.052,0.043,0.925,22.156,50.903,4.211,-2.115,-4.12,-74.427
 14:33:31.329,eb:33:2e:f9:57:b5, 2085-97-138 00:13:00:2050,0.078,0.029,0.977,15.93,34.424,5.432,-1.928,-3.719,-74.388
 14:33:31.329,eb:33:2e:f9:57:b5, 2085-97-148 00:22:00:2066,0.064,0.011,1.013,12.146,34.058,7.385,-1.791,-3.384,-74.328
 14:33:31.358,eb:33:2e:f9:57:b5, 2085-97-122 00:09:00:2056,0.049,0.008,1.004,8.606,33.569,8.789,-1.692,-3.038,-74.257
 14:33:31.358,eb:33:2e:f9:57:b5, 2085-97-85 00:08:00:2034,0.032,0.005,0.998,6.226,32.227,9.827,-1.626,-2.708,-74.169
 14:33:31.358,eb:33:2e:f9:57:b5, 2085-97-42 00:06:00:2008,0.012,0.004,0.988,4.395,28.503,10.01,-1.571,-2.401,-74.07
 14:33:31.358,eb:33:2e:f9:57:b5, 2085-97-22 00:15:00:1999,0.015,0.005,0.974,3.235,21.606,9.521,-1.538,-2.148,-73.976
 14:33:31.419,eb:33:2e:f9:57:b5, 2085-97-54 00:02:00:2031,0.025,0.007,0.981,1.953,14.099,8.301,-1.516,-1.978,-73.889
 14:33:31.419,eb:33:2e:f9:57:b5, 2085-97-40 00:254:255:2025,0.014,-0.001,0.992,1.221,10.925,7.507,-1.5,-1.851,-73.812
 14:33:31.419,eb:33:2e:f9:57:b5, 2085-97-25 00:249:255:2013,0.014,-0.003,0.984,0.977,6.531,6.409,-1.489,-1.763,-73.746
 14:33:31.419,eb:33:2e:f9:57:b5, 2085-97-29 00:243:255:2022,0.018,-0.005,0.987,1.16,2.014,5.432,-1.483,-1.725,-73.685
 14:33:31.450,eb:33:2e:f9:57:b5, 2085-97-46 00:244:255:2038,0.03,-0.006,0.99,1.221,-1.16,4.7,-1.467,-1.719,-73.636
 14:33:31.450,eb:33:2e:f9:57:b5, 2085-97-78 00:247:255:2063,0.04,-0.005,1,1.221,-2.197,3.845,-1.456,-1.741,-73.592
 14:33:31.450,eb:33:2e:f9:57:b5, 2085-97-78 00:247:255:2063,0.033,-0.002,1.007,0.977,-0.366,2.93,-1.445,-1.752,-73.559
 14:33:31.451,eb:33:2e:f9:57:b5, 2085-97-69 00:247:255:2054,0.038,-0.005,1.002,0.854,0.793,2.075,-1.434,-1.747,-73.531
 14:33:31.480,eb:33:2e:f9:57:b5, 2085-97-89 00:246:255:2075,0.043,-0.004,1.007,0.854,2.197,1.282,-1.423,-1.73,-73.515
 14:33:31.480,eb:33:2e:f9:57:b5, 2085-97-80 00:247:255:2066,0.033,-0.004,1.012,0.793,4.944,0.427,-1.417,-1.697,-73.51
 14:33:31.480,eb:33:2e:f9:57:b5, 2085-97-67 00:242:255:2056,0.033,-0.005,1.004,0.793,6.348,-0.244,-1.406,-1.637,-73.51
 14:33:31.480,eb:33:2e:f9:57:b5, 2085-97-64 00:243:255:2057,0.027,-0.006,1.004,0.854,7.507,-0.916,-1.395,-1.566,-73.521
 14:33:31.539,eb:33:2e:f9:57:b5, 2085-97-52 00:242:255:2053,0.026,-0.006,1.003,0.793,8.606,-1.099,-1.384,-1.483,-73.531
 14:33:31.539,eb:33:2e:f9:57:b5, 2085-97-53 00:241:255:2054,0.025,-0.008,1.003,0.793,9.399,-0.977,-1.373,-1.395,-73.542
 14:33:31.539,eb:33:2e:f9:57:b5, 2085-97-42 00:242:255:2052,0.019,-0.007,1.003,0.977,10.681,-1.038,-1.362,-1.291,-73.553
 14:33:31.539,eb:33:2e:f9:57:b5, 2085-97-40 00:245:255:2055,0.015,-0.007,1.002,1.099,12.024,-1.343,-1.351,-1.176,-73.57
 14:33:31.568,eb:33:2e:f9:57:b5, 2085-97-31 00:242:255:2049,0.012,-0.006,0.998,1.282,13,-1.892,-1.335,-1.049,-73.586
 14:33:31.568,eb:33:2e:f9:57:b5, 2085-97-19 00:243:255:2043,0.007,-0.007,0.997,1.343,12.451,-1.526,-1.324,-0.923,-73.608
 14:33:31.568,eb:33:2e:f9:57:b5, 2085-97-19 00:249:255:2044,0.008,-0.004,0.997,1.465,11.475,-1.587,-1.302,-0.802,-73.625
 14:33:31.568,eb:33:2e:f9:57:b5, 2085-97-06 00:252:255:2034,0.004,-0.006,0.999,1.648,10.62,-1.831,-1.291,-0.692,-73.641
 14:33:31.600,eb:33:2e:f9:57:b5, 2085-97-09 00:243:255:2035,0.013,-0.005,0.995,1.77,9.155,-1.953,-1.269,-0.593,-73.663
 14:33:31.600,eb:33:2e:f9:57:b5, 2085-97-41 00:241:255:2073,0.013,0,1.007,1.953,8.423,-1.953,-1.247,-0.505,-73.685
 14:33:31.600,eb:33:2e:f9:57:b5, 2085-97-25 00:252:255:2059,0.034,0.003,1.005,2.197,8.667,-1.953,-1.225,-0.423,-73.702
 14:33:31.600,eb:33:2e:f9:57:b5, 2085-97-46 00:10:00:2109,0.04,0,1.021,2.747,8.057,-2.136,-1.198,-0.341,-73.724
 14:33:31.658,eb:33:2e:f9:57:b5, 2085-97-82 00:01:00:2174,0.033,-0.001,1.063,2.747,10.254,-3.052,-1.165,-0.253,-73.751
 14:33:31.658,eb:33:2e:f9:57:b5, 2085-97-37 00:00:00:2100,0.003,0,1.046,2.625,14.099,-3.357,-1.137,-0.126,-73.784
 14:33:31.658,eb:33:2e:f9:57:b5, 2085-97-238 255:244:255:2028,-0.006,-0.001,1.005,3.052,13.794,-3.174,-1.11,0.016,-73.817
 14:33:31.658,eb:33:2e:f9:57:b5, 2085-97-77 00:32:00:1885,0.037,-0.004,0.972,5.798,6.897,-2.319,-1.066,0.126,-73.85
 14:33:31.689,eb:33:2e:f9:57:b5, 2085-97-45 255:153:255:2223,-0.079,0.006,0.984,14.648,-11.536,-1.648,-0.945,0.071,-73.872
 14:33:31.689,eb:33:2e:f9:57:b5, 2085-97-100 255:122:255:2339,-0.054,-0.055,1.087,13,-5.005,-1.648,-0.818,0.005,-73.883
 14:33:31.689,eb:33:2e:f9:57:b5, 2085-97-196 255:191:255:2190,-0.017,-0.062,1.104,16.663,-4.944,-1.831,-0.665,-0.044,-73.905
 14:33:31.689,eb:33:2e:f9:57:b5, 2085-97-240 255:181:255:2264,0.011,-0.027,1.075,18.86,-6.104,-1.526,-0.489,-0.099,-73.922
 14:33:31.720,eb:33:2e:f9:57:b5, 2085-97-18 00:226:255:2191,0.014,-0.021,1.103,22.034,-5.127,-1.221,-0.28,-0.154,-73.938
 14:33:31.720,eb:33:2e:f9:57:b5, 2085-97-47 00:218:255:2276,0.03,-0.015,1.108,24.841,-5.127,-1.526,-0.044,-0.209,-73.954
 14:33:31.720,eb:33:2e:f9:57:b5, 2085-97-52 00:221:255:2295,0.031,-0.013,1.117,27.771,-3.296,-1.404,0.22,-0.253,-73.971
 14:33:31.720,eb:33:2e:f9:57:b5, 2085-97-59 00:222:255:2321,0.022,-0.015,1.13,31.067,-1.404,-1.343,0.516,-0.275,-73.982
 14:33:31.778,eb:33:2e:f9:57:b5, 2085-97-47 00:218:255:2334,0.018,-0.018,1.135,34.851,-0.183,-0.732,0.851,-0.28,-73.993
 14:33:31.778,eb:33:2e:f9:57:b5, 2085-97-45 00:217:255:2336,0.022,-0.019,1.139,38.818,0.61,0.183,1.219,-0.275,-73.998
 14:33:31.778,eb:33:2e:f9:57:b5, 2085-97-37 00:216:255:2339,0.016,-0.017,1.147,43.091,1.099,1.526,1.637,-0.264,-73.987
 14:33:31.778,eb:33:2e:f9:57:b5, 2085-97-33 00:211:255:2352,0.017,-0.015,1.141,47.485,1.16,3.479,2.093,-0.258,-73.96
 14:33:31.809,eb:33:2e:f9:57:b5, 2085-97-52 00:225:255:2371,0.028,-0.021,1.155,52.307,2.136,6.165,2.593,-0.242,-73.911
 14:33:31.809,eb:33:2e:f9:57:b5, 2085-97-75 00:225:255:2414,0.041,-0.012,1.158,57.19,4.456,8.789,3.142,-0.214,-73.834
 14:33:31.811,eb:33:2e:f9:57:b5, 2085-97-100 00:225:255:2451,0.05,-0.014,1.183,62.805,8.606,11.719,3.746,-0.154,-73.724
 14:33:31.811,eb:33:2e:f9:57:b5, 2085-97-94 00:212:255:2513,0.049,-0.018,1.221,69.763,13.367,14.038,4.411,-0.055,-73.586
 14:33:31.868,eb:33:2e:f9:57:b5, 2085-97-111 00:204:255:2561,0.018,-0.019,1.241,77.82,18.555,15.93,5.153,0.093,-73.422
 14:33:31.868,eb:33:2e:f9:57:b5, 2085-97-13 00:137:255:2650,0.049,-0.035,1.257,87.952,21.362,17.334,5.988,0.28,-73.229
 14:33:31.868,eb:33:2e:f9:57:b5, 2085-97-43 01:24:00:2716,0.195,-0.05,1.338,99.854,26.794,17.883,6.932,0.489,-73.026
 14:33:31.868,eb:33:2e:f9:57:b5, 2085-97-42 01:117:00:2487,0.045,0.07,1.253,110.352,37.109,13.062,7.993,0.797,-72.823
 14:33:31.900,eb:33:2e:f9:57:b5, 2085-97-226 255:156:255:2485,-0.044,0.006,1.209,121.338,36.133,9.216,9.163,1.148,-72.658
 14:33:31.900,eb:33:2e:f9:57:b5, 2085-97-70 00:235:255:2485,0.09,-0.023,1.193,134.766,33.508,9.827,10.443,1.472,-72.493
 14:33:31.900,eb:33:2e:f9:57:b5, 2085-97-245 00:35:00:2591,0.138,0.003,1.244,147.827,34.363,7.568,11.871,1.78,-72.339
 14:33:31.900,eb:33:2e:f9:57:b5, 2085-97-41 01:27:00:2676,0.142,0.015,1.294,162.659,38.757,2.502,13.431,2.12,-72.213
 14:33:31.930,eb:33:2e:f9:57:b5, 2085-97-77 01:65:00:2729,0.188,0.031,1.31,179.26,45.41,-3.357,15.15,2.532,-72.103
 14:33:31.930,eb:33:2e:f9:57:b5, 2085-97-146 01:58:00:2801,0.188,0.037,1.364,197.388,53.65,-12.146,17.045,3.032,-72.043
 14:33:31.930,eb:33:2e:f9:57:b5, 2085-97-66 01:53:00:2832,0.147,0.02,1.368,217.163,60.913,-20.996,19.127,3.636,-72.015
 14:33:31.930,eb:33:2e:f9:57:b5, 2085-97-52 01:247:255:3043,0.15,-0.004,1.434,240.601,69.275,-31.738,21.429,4.345,-72.037
 14:33:31.959,eb:33:2e:f9:57:b5, 2085-97-17 01:194:00:3142,0.067,0.041,1.524,265.991,81.665,-40.771,23.967,5.191,-72.07
 14:33:31.959,eb:33:2e:f9:57:b5, 2085-97-09 00:154:01:3396,0.015,0.161,1.572,288.94,87.708,-49.744,26.752,6.158,-72.109
 14:33:31.959,eb:33:2e:f9:57:b5, 2085-97-55 00:189:02:3564,0.082,0.264,1.69,308.044,87.036,-54.932,29.74,7.191,-72.153
 14:33:31.959,eb:33:2e:f9:57:b5, 2085-97-252 00:250:04:3707,0.078,0.462,1.754,335.388,60.059,-66.406,32.948,8.135,-72.285
 14:33:32.018,eb:33:2e:f9:57:b5, 2085-97-10 01:209:04:3743,0.092,0.695,1.887,352.905,40.039,-80.566,36.37,8.954,-72.614
 14:33:32.018,eb:33:2e:f9:57:b5, 2085-97-91 01:126:04:3206,0.11,0.69,1.645,364.502,4.272,-94.727,39.869,9.679,-73.158
 14:33:32.018,eb:33:2e:f9:57:b5, 2085-97-101 01:229:05:4336,0.202,0.662,1.783,370.483,-42.358,-110.229,43.401,10.184,-74.086
 14:33:32.018,eb:33:2e:f9:57:b5, 2085-97-181 01:233:05:5381,0.265,0.751,2.403,357.91,-50.72,-126.831,46.851,10.684,-75.311
 14:33:32.078,eb:33:2e:f9:57:b5, 2085-97-222 01:119:01:4952,0.267,0.497,2.614,317.139,5.615,-138,50.01,11.558,-76.388
 14:33:32.078,eb:33:2e:f9:57:b5, 2085-97-151 02:213:251:4265,0.398,-0.177,2.228,266.174,67.871,-129.395,52.795,12.865,-76.91
 14:33:32.078,eb:33:2e:f9:57:b5, 2085-97-142 03:177:247:2015,0.317,-0.889,1.888,227.6,140.93,-110.046,55.256,14.442,-76.74
 14:33:32.078,eb:33:2e:f9:57:b5, 2085-97-251 01:205:251:-123,0.193,-0.446,0.132,164.001,139.221,-94.36,57.475,16.068,-76.014
 14:33:32.082,eb:33:2e:f9:57:b5, 2085-97-58 02:198:251:529,0.369,-0.667,0.098,61.646,127.502,-70.19,58.738,17.463,-75.223
 14:33:32.082,eb:33:2e:f9:57:b5, 2085-97-220 02:59:253:991,0.31,-0.367,0.385,-10.864,70.251,-67.81,59.095,18.534,-74.713
 14:33:32.082,eb:33:2e:f9:57:b5, 2085-113-58 00:210:226:-2310,0.292,-0.433,0.539,-53.711,31.799,-68.481,58.733,19.358,-74.663
 14:33:32.082,eb:33:2e:f9:57:b5, 2085-97-70 02:21:252:1045,0.271,-0.499,0.544,-66.467,23.682,-66.406,58.403,19.715,-74.724
 14:33:32.139,eb:33:2e:f9:57:b5, 2085-97-16 02:120:252:879,0.237,-0.458,0.472,-84.106,12.39,-61.89,57.568,20.347,-74.927
 14:33:32.139,eb:33:2e:f9:57:b5, 2085-97-190 01:86:252:680,0.183,-0.444,0.373,-94.849,0.549,-57.922,56.552,20.885,-75.212
 14:33:32.139,eb:33:2e:f9:57:b5, 2085-97-49 01:46:252:533,0.122,-0.468,0.29,-103.333,-15.869,-51.575,55.415,21.292,-75.613
 14:33:32.139,eb:33:2e:f9:57:b5, 2085-97-204 00:245:251:525,0.08,-0.492,0.25,-113.464,-32.227,-43.03,54.13,21.533,-76.124
 14:33:32.168,eb:33:2e:f9:57:b5, 2085-97-126 00:185:251:579,0.043,-0.521,0.267,-128.174,-43.762,-31.799,52.707,21.605,-76.701
 14:33:32.168,eb:33:2e:f9:57:b5, 2085-97-60 00:120:251:637,0.029,-0.549,0.293,-148.071,-51.941,-18.799,51.097,21.5,-77.283
 14:33:32.168,eb:33:2e:f9:57:b5, 2085-97-69 00:69:251:678,0.042,-0.579,0.324,-171.814,-58.655,-5.432,49.29,21.237,-77.827
 14:33:32.168,eb:33:2e:f9:57:b5, 2085-97-100 00:77:251:726,0.052,-0.596,0.347,-196.899,-68.542,6.348,47.241,20.803,-78.338
 14:33:32.199,eb:33:2e:f9:57:b5, 2085-97-110 00:123:251:754,0.055,-0.574,0.36,-222.656,-84.717,14.465,44.951,20.193,-78.86
 14:33:32.199,eb:33:2e:f9:57:b5, 2085-97-107 00:128:251:880,0.049,-0.564,0.387,-247.375,-105.469,19.287,42.374,19.38,-79.442
 14:33:32.199,eb:33:2e:f9:57:b5, 2085-97-95 00:131:251:1208,0.039,-0.561,0.5,-267.7,-125.244,22.217,39.573,18.364,-80.101
 14:33:32.199,eb:33:2e:f9:57:b5, 2085-97-66 00:149:251:1554,0.027,-0.559,0.678,-280.518,-141.174,22.4,36.595,17.166,-80.799
 14:33:32.260,eb:33:2e:f9:57:b5, 2085-97-52 00:197:251:1894,0.018,-0.542,0.848,-288.391,-150.696,20.569,33.541,15.848,-81.519
 14:33:32.260,eb:33:2e:f9:57:b5, 2085-97-26 00:42:252:2095,0.012,-0.508,0.985,-292.358,-152.466,16.785,30.438,14.458,-82.205
 14:33:32.260,eb:33:2e:f9:57:b5, 2085-97-16 00:150:252:2191,0.001,-0.452,1.048,-296.631,-155.029,8.972,27.339,13.057,-82.875
 14:33:32.260,eb:33:2e:f9:57:b5, 2085-97-246 255:191:252:2333,-0.019,-0.409,1.097,-303.284,-162.231,-1.709,24.17,11.613,-83.568
 14:33:32.289,eb:33:2e:f9:57:b5, 2085-97-183 255:146:252:2635,-0.057,-0.408,1.202,-311.89,-171.082,-12.329,20.956,10.107,-84.315
 14:33:32.289,eb:33:2e:f9:57:b5, 2085-97-94 255:04:252:3041,-0.099,-0.463,1.376,-320.74,-176.086,-18.311,17.644,8.514,-85.073
 14:33:32.289,eb:33:2e:f9:57:b5, 2085-97-01 255:193:251:3521,-0.146,-0.526,1.601,-327.576,-175.11,-17.395,14.31,6.883,-85.765
 14:33:32.289,eb:33:2e:f9:57:b5, 2085-97-167 254:220:251:3974,-0.192,-0.525,1.839,-331.665,-168.335,-11.047,10.931,5.235,-86.303
 14:33:32.319,eb:33:2e:f9:57:b5, 2085-97-73 254:53:252:4401,-0.229,-0.502,2.039,-330.444,-163.086,-0.488,7.586,3.615,-86.644
 14:33:32.319,eb:33:2e:f9:57:b5, 2085-97-243 253:114:253:4838,-0.283,-0.422,2.276,-317.566,-158.02,14.221,4.318,2.005,-86.754
 14:33:32.319,eb:33:2e:f9:57:b5, 2085-97-187 253:205:255:4886,-0.303,-0.169,2.381,-300.354,-157.471,30.151,1.241,0.428,-86.616
 14:33:32.319,eb:33:2e:f9:57:b5, 2085-97-73 253:92:01:5073,-0.355,0.085,2.421,-298.584,-164.856,44.006,-1.752,-1.198,-86.248
 14:33:32.379,eb:33:2e:f9:57:b5, 2085-97-232 252:81:02:5338,-0.415,0.217,2.557,-310.303,-163.391,57.678,-4.823,-2.818,-85.66
 14:33:32.379,eb:33:2e:f9:57:b5, 2085-97-128 252:223:03:5437,-0.451,0.378,2.633,-322.937,-161.621,72.815,-8.069,-4.373,-84.836
 14:33:32.379,eb:33:2e:f9:57:b5, 2085-97-80 252:200:05:5449,-0.462,0.59,2.662,-333.374,-157.227,89.905,-11.459,-5.823,-83.771
 14:33:32.379,eb:33:2e:f9:57:b5, 2085-97-82 252:90:08:5460,-0.456,0.871,2.656,-338.074,-147.278,107.239,-14.996,-7.092,-82.458
 14:33:32.410,eb:33:2e:f9:57:b5, 2085-97-105 252:230:11:5503,-0.41,1.252,2.687,-330.811,-131.104,121.216,-18.556,-8.113,-80.947
 14:33:32.410,eb:33:2e:f9:57:b5, 2085-97-228 252:50:17:5076,-0.351,1.764,2.64,-309.204,-105.408,126.465,-22.011,-8.8,-79.354
 14:33:32.410,eb:33:2e:f9:57:b5, 2085-97-208 253:173:22:4069,-0.314,2.466,2.251,-270.691,-74.28,112.305,-25.131,-9.135,-77.888
 14:33:32.410,eb:33:2e:f9:57:b5, 2085-97-214 251:199:30:2086,-0.692,3.296,1.551,-221.191,-66.467,75.745,-27.773,-9.322,-76.74
 14:33:32.439,eb:33:2e:f9:57:b5, 2085-97-08 249:77:34:2065,-0.993,4.245,0.807,-156.128,-134.705,22.827,-29.8,-9.976,-75.833
 14:33:32.439,eb:33:2e:f9:57:b5, 2085-97-117 247:87:29:4125,-1.203,4.052,1.49,-68.542,-166.382,-32.043,-31.036,-11.426,-75.092
 14:33:32.439,eb:33:2e:f9:57:b5, 2085-97-245 246:11:22:5195,-1.151,3.287,2.335,29.175,-89.661,-55.664,-31.24,-12.794,-74.822
 14:33:32.440,eb:33:2e:f9:57:b5, 2085-97-76 248:166:16:4779,-0.773,2.504,2.486,110.84,31.738,-64.148,-30.377,-13.293,-75.223
 14:33:32.499,eb:33:2e:f9:57:b5, 2085-97-185 254:218:09:4907,2.572,1.848,2.094,160.767,129.028,-50.781,-28.751,-12.799,-76.174
 14:33:32.499,eb:33:2e:f9:57:b5, 2085-97-70 08:239:239:1050,1.603,-1.195,3.729,132.996,118.652,-153.625,-26.774,-12.431,-77.849
 14:33:32.499,eb:33:2e:f9:57:b5, 2085-97-73 16:233:235:740,0.954,-2.757,-0.991,218.933,40.039,-97.595,-24.846,-12.008,-79.244
 14:33:32.499,eb:33:2e:f9:57:b5, 2085-97-143 00:160:01:2386,-0.282,-0.626,1.11,319.275,159.119,-81.848,-21.78,-11.343,-80.316
 14:33:32.529,eb:33:2e:f9:57:b5, 2085-97-114 252:118:253:1083,-0.518,0.145,0.904,310.608,170.776,-107.483,-18.276,-10.042,-81.942
 14:33:32.529,eb:33:2e:f9:57:b5, 2085-97-220 252:74:253:691,-0.068,-0.457,0.305,290.771,68.115,-33.813,-15.112,-9.042,-82.941
 14:33:32.529,eb:33:2e:f9:57:b5, 2085-97-164 01:220:00:2564,0.44,-0.154,0.791,272.034,-55.359,5.615,-12.283,-9.179,-83.035
 14:33:32.529,eb:33:2e:f9:57:b5, 2085-97-128 04:176:02:3517,0.571,0.343,1.655,240.417,-29.602,9.888,-9.756,-9.679,-82.82
 14:33:32.588,eb:33:2e:f9:57:b5, 2085-97-66 02:67:03:3059,0.021,0.357,1.636,208.374,58.105,-1.77,-7.537,-9.476,-82.798
 14:33:32.588,eb:33:2e:f9:57:b5, 2085-97-241 253:242:06:2905,-0.181,0.279,1.257,174.561,87.891,-26.367,-5.598,-8.679,-83.046
 14:33:32.588,eb:33:2e:f9:57:b5, 2085-97-199 253:232:02:2157,-0.19,0.498,1.242,120.972,105.408,-57.434,-4.07,-7.751,-83.606
 14:33:32.588,eb:33:2e:f9:57:b5, 2085-97-132 255:129:01:2045,0.129,0.157,0.959,94.482,85.327,-51.941,-2.939,-6.806,-84.221
 14:33:32.650,eb:33:2e:f9:57:b5, 2085-97-89 03:60:01:2399,0.162,-0.137,1.002,59.875,55.969,-11.719,-2.12,-6.125,-84.606
 14:33:32.650,eb:33:2e:f9:57:b5, 2085-97-230 254:196:00:1795,-0.08,0.164,1.081,26.978,61.279,8.118,-1.73,-5.543,-84.589
 14:33:32.650,eb:33:2e:f9:57:b5, 2085-97-18 00:126:00:1906,0.011,0.09,0.856,20.386,27.527,4.395,-1.505,-5.098,-84.529
 14:33:32.650,eb:33:2e:f9:57:b5, 2085-97-104 00:77:00:1989,0.079,0.024,0.942,16.479,11.108,3.296,-1.324,-4.927,-84.496
 14:33:32.678,eb:33:2e:f9:57:b5, 2085-97-166 00:95:00:2042,0.079,0.058,0.993,12.024,9.155,2.441,-1.181,-4.834,-84.468
 14:33:32.678,eb:33:2e:f9:57:b5, 2085-97-143 00:45:00:2032,0.064,0.027,1,7.629,10.559,3.296,-1.088,-4.73,-84.441
 14:33:32.678,eb:33:2e:f9:57:b5, 2085-97-133 00:40:00:2027,0.065,0.024,0.988,5.31,8.911,3.54,-1.027,-4.631,-84.402
 14:33:32.678,eb:33:2e:f9:57:b5, 2085-113-58 00:116:215:1050,0.068,0.018,0.991,3.723,6.042,3.235,-0.978,-4.554,-84.37
 14:33:32.678,eb:33:2e:f9:57:b5, 2085-97-152 00:28:00:2050,0.084,0.017,0.996,2.991,5.127,3.052,-0.961,-4.526,-84.359
 14:33:32.709,eb:33:2e:f9:57:b5, 2085-97-187 00:12:00:2087,0.094,0.01,1.011,1.892,6.348,3.296,-0.934,-4.471,-84.326
 14:33:32.709,eb:33:2e:f9:57:b5, 2085-97-191 00:11:00:2089,0.087,0.005,1.021,0.854,11.169,4.211,-0.923,-4.378,-84.287
 14:33:32.709,eb:33:2e:f9:57:b5, 2085-97-183 00:09:00:2086,0.086,0.005,1.016,0,15.625,5.249,-0.917,-4.241,-84.243
 14:33:32.709,eb:33:2e:f9:57:b5, 2085-97-167 00:12:00:2071,0.072,0.005,1.015,-0.793,19.836,6.226,-0.928,-4.059,-84.183
 14:33:32.739,eb:33:2e:f9:57:b5, 2085-97-131 00:14:00:2049,0.058,0.007,1.005,-1.343,21.912,6.409,-0.939,-3.845,-84.117
 14:33:32.739,eb:33:2e:f9:57:b5, 2085-97-101 00:14:00:2031,0.042,0.008,0.997,-1.404,20.935,5.554,-0.956,-3.625,-84.062
 14:33:32.739,eb:33:2e:f9:57:b5, 2085-97-76 00:08:00:2021,0.033,0.006,0.987,-1.099,17.456,4.272,-0.967,-3.433,-84.012
 14:33:32.739,eb:33:2e:f9:57:b5, 2085-97-65 00:08:00:2015,0.031,0.003,0.985,-0.61,13.062,3.418,-0.978,-3.279,-83.974
 14:33:32.768,eb:33:2e:f9:57:b5, 2085-97-69 00:07:00:2027,0.035,0.004,0.985,-0.122,8.423,2.686,-0.978,-3.17,-83.947
 14:33:32.768,eb:33:2e:f9:57:b5, 2085-97-84 00:04:00:2043,0.044,0.003,0.991,0.122,5.859,2.319,-0.983,-3.104,-83.919
 14:33:32.768,eb:33:2e:f9:57:b5, 2085-97-96 00:00:00:2053,0.05,0.001,1,0.427,5.615,2.258,-0.972,-3.043,-83.897
 14:33:32.768,eb:33:2e:f9:57:b5, 2085-97-116 00:02:00:2072,0.055,0.001,1.006,0.732,6.348,2.136,-0.967,-2.983,-83.875
 14:33:32.829,eb:33:2e:f9:57:b5, 2085-97-108 00:02:00:2066,0.05,0,1.01,1.16,8.85,2.136,-0.956,-2.906,-83.853
 14:33:32.829,eb:33:2e:f9:57:b5, 2085-97-98 00:05:00:2061,0.042,0.002,1.007,1.404,11.169,2.136,-0.939,-2.802,-83.831
 14:33:32.829,eb:33:2e:f9:57:b5, 2085-97-83 00:06:00:2053,0.039,0.004,1.001,1.709,12.573,1.831,-0.923,-2.681,-83.815
 14:33:32.829,eb:33:2e:f9:57:b5, 2085-97-80 00:09:00:2055,0.033,0.004,1.001,1.953,13.55,1.587,-0.901,-2.549,-83.798
 14:33:32.859,eb:33:2e:f9:57:b5, 2085-97-55 00:12:00:2037,0.023,0.005,0.999,2.075,14.343,1.404,-0.879,-2.401,-83.782
 14:33:32.859,eb:33:2e:f9:57:b5, 2085-97-44 00:16:00:2033,0.017,0.006,0.991,2.441,13.489,0.671,-0.857,-2.263,-83.771
 14:33:32.859,eb:33:2e:f9:57:b5, 2085-97-38 00:14:00:2029,0.019,0.007,0.989,2.625,11.536,0.183,-0.824,-2.137,-83.771
 14:33:32.859,eb:33:2e:f9:57:b5, 2085-97-50 00:13:00:2048,0.008,0.009,0.991,2.808,9.644,-0.488,-0.797,-2.032,-83.771
 14:33:32.888,eb:33:2e:f9:57:b5, 2085-97-113 00:28:00:2109,0.014,0.016,0.967,3.052,6.775,-1.099,-0.764,-1.934,-83.782
 14:33:32.888,eb:33:2e:f9:57:b5, 2085-97-55 00:28:00:2056,0.022,0.007,0.98,3.174,8.057,-1.404,-0.731,-1.846,-83.793
 14:33:32.888,eb:33:2e:f9:57:b5, 2085-97-49 00:22:00:2052,0.02,0.005,1.002,3.296,8.606,-1.831,-0.692,-1.752,-83.809
 14:33:32.888,eb:33:2e:f9:57:b5, 2085-97-51 00:25:00:2057,0.015,0.01,1,3.662,7.874,-2.319,-0.659,-1.67,-83.831
 14:33:32.949,eb:33:2e:f9:57:b5, 2085-97-50 00:22:00:2063,0.027,0.011,0.999,3.784,7.324,-2.869,-0.621,-1.593,-83.859
 14:33:32.949,eb:33:2e:f9:57:b5, 2085-97-53 00:32:00:2076,0.048,0.011,1.01,4.089,6.897,-3.052,-0.577,-1.522,-83.886
 14:33:32.949,eb:33:2e:f9:57:b5, 2085-97-122 00:27:00:2175,0.051,0.018,1.037,4.578,7.69,-3.784,-0.527,-1.45,-83.925
 14:33:32.949,eb:33:2e:f9:57:b5, 2085-97-110 00:25:00:2176,0.045,0.01,1.069,4.333,13.245,-4.578,-0.483,-1.346,-83.963
 14:33:32.979,eb:33:2e:f9:57:b5, 2085-97-70 00:28:00:2116,0.029,0.014,1.046,3.967,18.066,-5.249,-0.434,-1.181,-84.012
 14:33:32.980,eb:33:2e:f9:57:b5, 2085-97-29 00:27:00:2075,0.003,0.012,1.031,4.089,20.569,-5.676,-0.39,-0.983,-84.067
 14:33:32.980,eb:33:2e:f9:57:b5, 2085-97-247 255:26:00:2040,-0.003,0.012,1.003,3.967,20.691,-5.31,-0.346,-0.775,-84.122
 14:33:32.980,eb:33:2e:f9:57:b5, 2085-97-249 255:16:00:2060,-0.002,0.01,1.002,4.272,18.738,-4.639,-0.302,-0.577,-84.172
 14:33:33.010,eb:33:2e:f9:57:b5, 2085-97-233 255:07:00:2060,-0.016,0.006,1.011,4.944,17.151,-3.662,-0.253,-0.396,-84.216
 14:33:33.010,eb:33:2e:f9:57:b5, 2085-97-201 255:47:255:2326,-0.063,-0.025,1.037,8.789,11.23,-1.099,-0.187,-0.247,-84.238
 14:33:33.010,eb:33:2e:f9:57:b5, 2085-97-92 255:171:255:2176,-0.113,-0.093,1.125,18.433,5.554,6.653,-0.027,-0.181,-84.205
 14:33:33.010,eb:33:2e:f9:57:b5, 2085-97-183 255:04:00:2130,-0.081,-0.004,1.045,17.883,3.174,5.92,0.154,-0.126,-84.128
 14:33:33.069,eb:33:2e:f9:57:b5, 2085-97-150 255:154:255:2287,-0.033,-0.052,1.116,23.376,-7.507,3.54,0.368,-0.17,-84.095
 14:33:33.069,eb:33:2e:f9:57:b5, 2085-97-185 255:185:255:2280,-0.042,-0.027,1.099,28.015,-13.123,5.92,0.626,-0.275,-84.045
 14:33:33.069,eb:33:2e:f9:57:b5, 2085-97-183 255:150:255:2347,-0.021,-0.051,1.133,33.264,-18.921,8.179,0.939,-0.434,-83.979
 14:33:33.069,eb:33:2e:f9:57:b5, 2085-97-239 255:139:255:2451,-0.001,-0.053,1.169,39.612,-24.719,10.986,1.307,-0.665,-83.886
 14:33:33.099,eb:33:2e:f9:57:b5, 2085-97-03 00:147:255:2476,0.016,-0.057,1.208,46.936,-28.442,14.099,1.747,-0.934,-83.771
 14:33:33.099,eb:33:2e:f9:57:b5, 2085-97-61 00:144:255:2562,0.055,-0.051,1.221,54.504,-31.311,16.541,2.252,-1.241,-83.628
 14:33:33.099,eb:33:2e:f9:57:b5, 2085-97-175 00:170:255:2668,0.105,-0.048,1.28,63.965,-30.701,18.188,2.845,-1.566,-83.474
 14:33:33.099,eb:33:2e:f9:57:b5, 2085-97-17 01:194:255:2755,0.159,-0.038,1.33,73.12,-23.071,17.761,3.532,-1.846,-83.309
 14:33:33.129,eb:33:2e:f9:57:b5, 2085-97-95 01:211:255:2759,0.187,-0.028,1.353,82.581,-10.01,16.968,4.312,-2.021,-83.15
 14:33:33.129,eb:33:2e:f9:57:b5, 2085-97-47 01:186:255:2759,0.125,-0.036,1.333,91.675,5.615,17.761,5.18,-2.049,-82.98
 14:33:33.129,eb:33:2e:f9:57:b5, 2085-97-247 00:90:255:2888,0.158,-0.061,1.365,103.333,18.066,17.822,6.158,-1.939,-82.787
 14:33:33.129,eb:33:2e:f9:57:b5, 2085-97-177 01:145:255:2896,0.219,-0.08,1.429,116.821,32.288,17.883,7.256,-1.708,-82.579
 14:33:33.247,eb:33:2e:f9:57:b5, 2085-97-236 01:177:255:2930,0.26,-0.014,1.407,131.042,46.326,14.465,8.498,-1.335,-82.348
 14:33:33.247,eb:33:2e:f9:57:b5, 2085-97-69 02:02:00:2827,0.27,-0.01,1.404,146.851,56.274,7.141,9.888,-0.835,-82.156
 14:33:33.247,eb:33:2e:f9:57:b5, 2085-97-14 02:178:255:2824,0.242,-0.001,1.354,163.513,60.242,-2.075,11.448,-0.264,-82.018
 14:33:33.247,eb:33:2e:f9:57:b5, 2085-97-228 01:92:255:2854,0.259,-0.076,1.39,182.129,67.81,-8.362,13.184,0.368,-81.936
 14:33:33.279,eb:33:2e:f9:57:b5, 2085-97-40 02:100:255:2985,0.262,-0.078,1.418,204.163,75.867,-16.724,15.128,1.104,-81.876
 14:33:33.279,eb:33:2e:f9:57:b5, 2085-97-01 02:16:255:3046,0.249,-0.09,1.472,227.661,86.548,-25.879,17.298,1.945,-81.848
 14:33:33.279,eb:33:2e:f9:57:b5, 2085-97-240 01:207:254:3171,0.242,-0.148,1.5,255.371,98.877,-36.072,19.726,2.933,-81.843
 14:33:33.279,eb:33:2e:f9:57:b5, 2085-97-31 02:141:00:3307,0.329,-0.099,1.598,285.278,119.568,-45.715,22.445,4.103,-81.821
 14:33:33.281,eb:33:2e:f9:57:b5, 2085-97-158 02:86:01:3524,0.29,0.177,1.657,307.556,130.432,-63.599,25.433,5.482,-81.793
 14:33:33.281,eb:33:2e:f9:57:b5, 2085-97-255 01:189:02:3566,0.178,0.179,1.763,328.918,143.127,-77.026,28.625,7.042,-81.788
 14:33:33.281,eb:33:2e:f9:57:b5, 2085-97-178 00:51:04:3682,-0.006,0.447,1.879,345.764,136.353,-92.651,32.009,8.679,-81.815
 14:33:33.281,eb:33:2e:f9:57:b5, 2085-97-58 255:211:03:3558,-0.087,0.512,1.661,363.464,100.769,-100.952,35.541,10.217,-81.964
 14:33:33.310,eb:33:2e:f9:57:b5, 2085-97-77 00:118:05:4594,0.165,0.503,1.98,366.394,64.636,-102.112,39.139,11.442,-82.304
 14:33:33.310,eb:33:2e:f9:57:b5, 2085-97-170 01:222:04:5528,0.259,0.701,2.577,350.037,66.101,-108.765,42.66,12.596,-82.716
 14:33:33.310,eb:33:2e:f9:57:b5, 2085-97-95 02:144:01:4890,0.351,0.422,2.621,310.242,124.268,-104.492,45.928,14.052,-82.782
 14:33:33.310,eb:33:2e:f9:57:b5, 2085-97-83 03:225:252:4195,0.467,-0.084,2.219,269.897,154.907,-95.398,48.917,15.738,-82.381
 14:33:33.341,eb:33:2e:f9:57:b5, 2085-97-106 04:189:245:3124,0.423,-0.701,1.854,234.619,188.66,-79.651,51.63,17.496,-81.562
 14:33:33.341,eb:33:2e:f9:57:b5, 2085-97-51 02:37:251:-364,0.194,-1.087,0.448,207.031,179.138,-43.518,54.278,19.127,-80.277
 14:33:33.341,eb:33:2e:f9:57:b5, 2085-97-189 01:215:249:158,0.296,-0.686,-0.177,95.032,154.724,-12.39,56.162,20.275,-79.014
 14:33:33.341,eb:33:2e:f9:57:b5, 2085-113-81 00:199:78:15354,0.34,-0.639,0.303,8.972,108.032,7.324,57.019,20.973,-77.844
 14:33:33.368,eb:33:2e:f9:57:b5, 2085-97-131 02:13:252:1427,0.276,-0.513,0.521,-20.386,85.266,12.024,57.134,21.182,-77.393
 14:33:33.368,eb:33:2e:f9:57:b5, 2085-97-70 02:201:251:1611,0.289,-0.531,0.791,-50.842,65.369,19.714,56.997,21.423,-76.652
 14:33:33.369,eb:33:2e:f9:57:b5, 2085-97-70 02:133:252:1253,0.279,-0.478,0.715,-62.134,61.279,26.184,56.673,21.561,-75.948
 14:33:33.369,eb:33:2e:f9:57:b5, 2085-97-58 02:228:252:798,0.266,-0.402,0.498,-70.251,51.636,28.625,56.245,21.632,-75.278
 14:33:33.429,eb:33:2e:f9:57:b5, 2085-97-255 01:227:252:489,0.24,-0.388,0.302,-81.97,33.386,29.48,55.679,21.621,-74.74
 14:33:33.429,eb:33:2e:f9:57:b5, 2085-97-222 01:220:252:330,0.222,-0.391,0.192,-97.961,14.648,29.846,54.904,21.5,-74.361
 14:33:33.429,eb:33:2e:f9:57:b5, 2085-97-172 01:181:252:326,0.191,-0.402,0.15,-117.188,-4.7,30.334,53.899,21.275,-74.147
 14:33:33.429,eb:33:2e:f9:57:b5, 2085-97-109 01:138:252:427,0.168,-0.423,0.181,-138.55,-21.729,31.555,52.619,20.934,-74.081
 14:33:33.459,eb:33:2e:f9:57:b5, 2085-97-73 01:115:252:526,0.155,-0.441,0.23,-161.56,-34.79,33.081,51.097,20.495,-74.125
 14:33:33.459,eb:33:2e:f9:57:b5, 2085-97-61 01:108:252:631,0.154,-0.444,0.286,-188.049,-46.509,34.424,49.29,19.973,-74.24
 14:33:33.459,eb:33:2e:f9:57:b5, 2085-97-62 01:127:252:738,0.158,-0.445,0.333,-211.06,-56.213,35.156,47.225,19.369,-74.416
 14:33:33.459,eb:33:2e:f9:57:b5, 2085-97-83 01:160:252:861,0.175,-0.429,0.39,-231.018,-67.2,34.302,44.912,18.682,-74.647
 14:33:33.579,eb:33:2e:f9:57:b5, 2085-97-116 01:212:252:1036,0.188,-0.41,0.461,-247.253,-80.566,31.372,42.418,17.919,-74.954
 14:33:33.579,eb:33:2e:f9:57:b5, 2085-97-132 01:249:252:1269,0.195,-0.387,0.562,-260.132,-93.567,26.672,39.738,17.067,-75.344
 14:33:33.579,eb:33:2e:f9:57:b5, 2085-97-148 01:29:253:1476,0.2,-0.371,0.673,-270.447,-104.309,20.996,36.947,16.139,-75.811
 14:33:33.579,eb:33:2e:f9:57:b5, 2085-97-160 01:58:253:1656,0.207,-0.353,0.763,-281.067,-112.732,15.381,34.03,15.15,-76.333
 14:33:33.581,eb:33:2e:f9:57:b5, 2085-97-177 01:77:253:1859,0.218,-0.342,0.857,-293.823,-119.507,9.888,31.014,14.106,-76.893
 14:33:33.581,eb:33:2e:f9:57:b5, 2085-97-208 01:102:253:2121,0.206,-0.33,0.971,-307.617,-125.549,5.066,27.85,12.997,-77.465
 14:33:33.581,eb:33:2e:f9:57:b5, 2085-97-19 01:241:253:2363,0.258,-0.312,1.112,-320.435,-129.211,1.77,24.582,11.838,-78.036
 14:33:33.581,eb:33:2e:f9:57:b5, 2085-97-206 01:193:253:2824,0.205,-0.306,1.262,-330.017,-143.799,-1.16,21.193,10.574,-78.596
 14:33:33.583,eb:33:2e:f9:57:b5, 2085-97-122 01:235:253:3176,0.223,-0.273,1.433,-337.891,-145.935,-1.709,17.754,9.223,-79.124
 14:33:33.583,eb:33:2e:f9:57:b5, 2085-97-247 01:127:254:3460,0.239,-0.21,1.597,-339.844,-149.231,0.549,14.277,7.811,-79.547
 14:33:33.583,eb:33:2e:f9:57:b5, 2085-97-225 01:37:255:3958,0.214,-0.151,1.805,-331.787,-156.921,1.77,10.871,6.306,-79.893
 14:33:33.583,eb:33:2e:f9:57:b5, 2085-97-126 01:170:255:4520,0.157,-0.072,2.066,-313.66,-159.912,5.798,7.603,4.73,-80.134
 14:33:33.638,eb:33:2e:f9:57:b5, 2085-97-230 00:190:00:4883,0.077,0.007,2.33,-286.011,-156.311,14.648,4.609,3.142,-80.217
 14:33:33.638,eb:33:2e:f9:57:b5, 2085-97-95 00:20:02:4920,0.021,0.19,2.399,-265.686,-158.447,26.367,1.857,1.56,-80.112
 14:33:33.638,eb:33:2e:f9:57:b5, 2085-97-253 255:227:02:4945,-0.027,0.303,2.407,-265.808,-160.645,40.039,-0.775,-0.049,-79.81
 14:33:33.638,eb:33:2e:f9:57:b5, 2085-97-222 255:205:03:4853,-0.005,0.413,2.391,-282.715,-157.166,58.533,-3.554,-1.62,-79.261
 14:33:33.669,eb:33:2e:f9:57:b5, 2085-97-59 00:222:04:4779,0.08,0.537,2.362,-302.429,-161.926,74.524,-6.526,-3.164,-78.47
 14:33:33.669,eb:33:2e:f9:57:b5, 2085-97-02 01:94:06:4827,0.174,0.693,2.34,-317.444,-167.725,88.562,-9.728,-4.702,-77.426
 14:33:33.669,eb:33:2e:f9:57:b5, 2085-97-146 01:124:08:4847,0.234,0.922,2.372,-321.228,-170.837,97.351,-13.057,-6.191,-76.179
 14:33:33.669,eb:33:2e:f9:57:b5, 2085-97-139 00:175:10:4469,-0.287,1.211,2.414,-309.387,-175.293,97.656,-16.403,-7.646,-74.795
 14:33:33.758,eb:33:2e:f9:57:b5, 2085-97-175 251:184:10:3306,-0.778,1.278,1.852,-274.597,-217.407,94.055,-19.561,-9.201,-73.273
 14:33:33.758,eb:33:2e:f9:57:b5, 2085-97-38 249:166:13:4389,-1.044,1.508,1.691,-234.924,-285.828,96.008,-22.418,-11.294,-71.455
 14:33:33.758,eb:33:2e:f9:57:b5, 2085-97-58 245:139:20:4793,-1.464,1.992,2.42,-220.276,-245.544,102.539,-25.104,-13.42,-69.423
 14:33:33.758,eb:33:2e:f9:57:b5, 2085-97-198 243:18:30:3970,-1.433,3.198,2.112,-215.393,-148.01,104.675,-27.751,-14.683,-67.599
 14:33:33.758,eb:33:2e:f9:57:b5, 2085-97-04 246:89:34:4191,-0.996,4.152,1.951,-165.405,-88.074,73.853,-30.048,-15.249,-66.209
 14:33:33.758,eb:33:2e:f9:57:b5, 2085-97-13 249:253:29:4845,-0.734,4.145,2.216,-53.528,-36.194,8.484,-31.311,-15.573,-65.533
 14:33:33.758,eb:33:2e:f9:57:b5, 2085-97-206 252:01:23:4577,-0.74,3.347,2.249,71.289,36.56,-45.227,-31.08,-15.65,-65.748
 14:33:33.758,eb:33:2e:f9:57:b5, 2085-97-213 05:151:252:3536,1.063,2.008,6.464,233.948,129.333,-157.471,-29.092,-15.859,-66.747
 14:33:33.788,eb:33:2e:f9:57:b5, 2085-97-66 07:79:246:774,1.345,-1.354,0.094,248.169,121.094,-82.703,-26.268,-15.287,-68.5
 14:33:33.788,eb:33:2e:f9:57:b5, 2085-97-173 05:24:252:2127,0.094,-1.326,0.786,313.965,187.622,-94.482,-23.016,-14.332,-70.005
 14:33:33.788,eb:33:2e:f9:57:b5, 2085-97-15 255:161:255:1525,-0.18,-0.052,0.85,318.665,212.708,-98.755,-19.38,-12.623,-71.741
 14:33:33.788,eb:33:2e:f9:57:b5, 2085-97-59 254:129:00:2057,-0.014,-0.019,0.803,288.757,129.944,-69.58,-16.073,-11.266,-73.059
 14:33:33.849,eb:33:2e:f9:57:b5, 2085-97-155 01:128:01:2929,0.018,0.3,1.323,244.446,87.097,-46.692,-13.277,-10.437,-73.817
 14:33:33.849,eb:33:2e:f9:57:b5, 2085-97-42 255:156:00:2341,-0.063,0.118,1.264,205.627,106.201,-28.198,-10.953,-9.525,-74.383
 14:33:33.849,eb:33:2e:f9:57:b5, 2085-97-52 255:29:01:2323,-0.193,0.086,1.163,177.734,90.515,-15.686,-8.992,-8.597,-74.745
 14:33:33.849,eb:33:2e:f9:57:b5, 2085-97-62 254:206:03:2563,-0.208,0.302,1.208,148.499,82.703,-21.24,-7.317,-7.767,-75.026
 14:33:34.089,eb:33:2e:f9:57:b5, 2085-97-36 254:246:01:2092,-0.187,0.293,1.104,114.929,78.918,-36.865,-5.977,-6.993,-75.427
 14:33:34.089,eb:33:2e:f9:57:b5, 2085-97-99 255:243:00:2104,-0.025,0.214,1.02,92.407,59.509,-43.213,-4.894,-6.339,-75.899
 14:33:34.089,eb:33:2e:f9:57:b5, 2085-97-64 00:186:255:2069,0.064,0.057,1.018,77.576,49.866,-37.476,-4.01,-5.834,-76.344
 14:33:34.089,eb:33:2e:f9:57:b5, 2085-97-210 00:173:02:2214,0.229,-0.086,1.01,74.219,44.006,-25.94,-3.219,-5.383,-76.679
 14:33:34.118,eb:33:2e:f9:57:b5, 2085-97-43 02:136:01:2389,-0.037,0.061,1.117,44.861,41.748,-1.465,-2.615,-4.988,-76.844
 14:33:34.118,eb:33:2e:f9:57:b5, 2085-97-123 255:130:00:1851,0.012,0.15,0.936,23.865,47.119,4.089,-2.296,-4.471,-76.822
 14:33:34.118,eb:33:2e:f9:57:b5, 2085-97-111 00:24:00:2045,0.061,0.02,0.96,20.02,28.015,1.16,-2.076,-4.12,-76.811
 14:33:34.118,eb:33:2e:f9:57:b5, 2085-97-94 00:67:00:2038,0.035,0.026,1.005,15.869,27.222,3.784,-1.89,-3.845,-76.794
 14:33:34.120,eb:33:2e:f9:57:b5, 2085-97-49 00:87:00:1999,0.014,0.045,0.981,10.986,24.414,4.272,-1.763,-3.582,-76.756
 14:33:34.120,eb:33:2e:f9:57:b5, 2085-97-43 00:36:00:2004,0.023,0.027,0.973,6.592,14.954,4.15,-1.675,-3.378,-76.718
 14:33:34.120,eb:33:2e:f9:57:b5, 2085-97-54 00:17:00:2020,0.032,0.011,0.982,4.578,6.47,3.784,-1.62,-3.279,-76.679
 14:33:34.120,eb:33:2e:f9:57:b5, 2085-97-80 00:23:00:2041,0.041,0.011,0.992,3.723,1.892,2.808,-1.577,-3.235,-76.646
 14:33:34.124,eb:33:2e:f9:57:b5, 2085-97-79 00:19:00:2042,0.038,0.01,0.998,2.686,0.366,1.77,-1.544,-3.23,-76.624
 14:33:34.124,eb:33:2e:f9:57:b5, 2085-97-75 00:08:00:2041,0.039,0.007,0.997,1.892,-1.038,0.854,-1.516,-3.224,-76.613
 14:33:34.124,eb:33:2e:f9:57:b5, 2085-97-88 00:253:255:2053,0.043,0,1,1.587,-2.197,0.488,-1.5,-3.246,-76.608
 14:33:34.124,eb:33:2e:f9:57:b5, 2085-97-91 00:247:255:2057,0.054,-0.004,1.004,1.526,-2.075,0.61,-1.472,-3.263,-76.602
 14:33:34.128,eb:33:2e:f9:57:b5, 2085-97-106 00:244:255:2070,0.049,-0.004,1.013,1.526,-0.793,1.282,-1.456,-3.279,-76.591
 14:33:34.128,eb:33:2e:f9:57:b5, 2085-97-93 00:239:255:2060,0.046,-0.006,1.008,1.709,1.343,1.953,-1.434,-3.274,-76.575
 14:33:34.128,eb:33:2e:f9:57:b5, 2085-97-106 00:239:255:2071,0.055,-0.007,1.006,2.136,2.747,2.625,-1.417,-3.252,-76.553
 14:33:34.128,eb:33:2e:f9:57:b5, 2085-97-107 00:242:255:2075,0.05,-0.007,1.016,2.747,6.104,3.174,-1.384,-3.203,-76.525
 14:33:34.210,eb:33:2e:f9:57:b5, 2085-97-103 00:252:255:2071,0.051,-0.005,1.012,3.235,9.705,3.479,-1.357,-3.12,-76.492
 14:33:34.210,eb:33:2e:f9:57:b5, 2085-97-16 00:49:00:2042,0.016,0,1.012,3.235,13.733,3.601,-1.318,-2.994,-76.459
 14:33:34.210,eb:33:2e:f9:57:b5, 2085-97-06 00:10:00:2048,0.01,0.01,1.015,0.854,26.55,3.357,-1.093,-1.033,-76.218
 14:33:34.210,eb:33:2e:f9:57:b5, 2085-97-05 00:18:00:2049,-0.006,0.016,1.005,0.854,28.503,2.808,-1.077,-0.753,-76.185
 14:33:34.210,eb:33:2e:f9:57:b5, 2085-97-219 255:14:00:2029,-0.019,0.007,0.998,1.038,28.931,2.441,-1.066,-0.461,-76.163
 14:33:34.210,eb:33:2e:f9:57:b5, 2085-97-200 255:08:00:2018,-0.03,0.004,0.99,1.465,25.757,2.014,-1.049,-0.181,-76.141
 14:33:34.210,eb:33:2e:f9:57:b5, 2085-97-188 255:05:00:2018,-0.037,0.002,0.984,1.953,20.325,1.953,-1.027,0.044,-76.124
 14:33:34.210,eb:33:2e:f9:57:b5, 2085-97-192 255:00:00:2031,-0.03,0.003,0.984,2.502,15.32,1.77,-1,0.22,-76.108
 14:33:34.214,eb:33:2e:f9:57:b5, 2085-97-206 255:08:00:2044,-0.028,0.002,0.994,2.991,11.841,1.77,-0.972,0.352,-76.091
 14:33:34.214,eb:33:2e:f9:57:b5, 2085-97-203 255:13:00:2045,-0.027,0.006,0.998,3.418,9.399,1.648,-0.934,0.461,-76.075
 14:33:34.214,eb:33:2e:f9:57:b5, 2085-97-207 255:21:00:2050,-0.021,0.01,0.998,3.967,7.629,1.038,-0.895,0.544,-76.058
 14:33:34.215,eb:33:2e:f9:57:b5, 2085-97-239 255:26:00:2069,-0.006,0.011,1.003,4.7,5.615,0.183,-0.846,0.615,-76.053
 14:33:34.359,eb:33:2e:f9:57:b5, 2085-97-03 00:34:00:2066,0.027,0.016,1.011,6.042,3.967,-0.732,-0.791,0.659,-76.058
 14:33:34.359,eb:33:2e:f9:57:b5, 2085-97-220 00:85:00:1987,0.007,0.019,0.991,10.925,-4.639,-1.587,-0.703,0.676,-76.069
 14:33:34.359,eb:33:2e:f9:57:b5, 2085-97-54 00:79:00:1987,-0.102,0.026,0.967,19.348,-18.799,-1.892,-0.538,0.527,-76.086
 14:33:34.359,eb:33:2e:f9:57:b5, 2085-97-115 255:231:255:2151,-0.113,-0.008,1.018,19.348,-18.982,-2.38,-0.33,0.33,-76.108
 14:33:34.359,eb:33:2e:f9:57:b5, 2085-113-81 00:191:100:115,-0.107,-0.087,1.336,22.827,-20.752,-8.301,-0.115,0.11,-76.163
 14:33:34.361,eb:33:2e:f9:57:b5, 2085-97-160 255:90:255:2550,-0.018,-0.195,1.493,26.001,-13.794,-6.531,0.016,0.033,-76.196
 14:33:34.361,eb:33:2e:f9:57:b5, 2085-97-140 255:147:255:2365,-0.044,-0.02,1.124,32.471,-14.282,-6.042,0.319,-0.099,-76.262
 14:33:34.361,eb:33:2e:f9:57:b5, 2085-97-179 255:156:255:2361,-0.033,-0.059,1.184,37.537,-15.137,-4.272,0.676,-0.242,-76.317
 14:33:34.361,eb:33:2e:f9:57:b5, 2085-97-212 255:161:255:2426,-0.015,-0.054,1.194,44.556,-19.043,-2.258,1.088,-0.417,-76.355
 14:33:34.363,eb:33:2e:f9:57:b5, 2085-97-228 255:137:255:2477,-0.031,-0.05,1.206,51.025,-20.569,0.305,1.577,-0.61,-76.371
 14:33:34.363,eb:33:2e:f9:57:b5, 2085-97-211 255:136:255:2461,-0.017,-0.064,1.197,58.167,-23.438,4.639,2.126,-0.829,-76.355
 14:33:34.363,eb:33:2e:f9:57:b5, 2085-97-245 255:137:255:2518,0.013,-0.055,1.207,65.796,-26.428,9.399,2.752,-1.082,-76.295
 14:33:34.363,eb:33:2e:f9:57:b5, 2085-97-88 00:122:255:2681,0.077,-0.058,1.263,74.341,-26.245,13.916,3.455,-1.357,-76.19
 14:33:34.388,eb:33:2e:f9:57:b5, 2085-97-198 00:155:255:2753,0.119,-0.059,1.338,84.473,-19.348,18.127,4.257,-1.593,-76.047
 14:33:34.388,eb:33:2e:f9:57:b5, 2085-97-239 00:184:255:2804,0.137,-0.041,1.354,95.581,-8.728,19.897,5.158,-1.747,-75.866
 14:33:34.388,eb:33:2e:f9:57:b5, 2085-97-226 00:121:255:2919,0.141,-0.062,1.398,107.91,0.671,20.142,6.18,-1.807,-75.674
 14:33:34.388,eb:33:2e:f9:57:b5, 2085-97-186 01:130:255:3046,0.285,-0.077,1.458,123.535,10.193,18.311,7.333,-1.78,-75.476
 14:33:34.449,eb:33:2e:f9:57:b5, 2085-97-59 02:195:255:2878,0.203,-0.033,1.454,138.489,30.762,14.954,8.652,-1.588,-75.284
 14:33:34.449,eb:33:2e:f9:57:b5, 2085-97-18 01:26:255:2868,0.088,-0.058,1.38,154.968,42.542,11.108,10.124,-1.23,-75.086
 14:33:34.449,eb:33:2e:f9:57:b5, 2085-97-08 01:34:255:2935,0.175,-0.102,1.39,175.049,43.884,8.24,11.777,-0.818,-74.899
 14:33:34.449,eb:33:2e:f9:57:b5, 2085-97-49 02:86:255:3040,0.335,-0.09,1.454,197.327,45.288,1.343,13.645,-0.401,-74.751
 14:33:34.479,eb:33:2e:f9:57:b5, 2085-97-245 02:128:255:3159,0.347,-0.051,1.505,222.412,55.42,-10.071,15.76,0.099,-74.658
 14:33:34.479,eb:33:2e:f9:57:b5, 2085-97-153 02:29:255:3344,0.268,-0.086,1.598,251.343,66.956,-26.855,18.138,0.731,-74.652
 14:33:34.479,eb:33:2e:f9:57:b5, 2085-97-218 01:149:254:3695,0.17,-0.138,1.709,282.288,88.074,-39.734,20.825,1.582,-74.702
 14:33:34.479,eb:33:2e:f9:57:b5, 2085-97-64 01:56:255:3910,0.265,-0.204,1.921,314.819,122.009,-44.434,23.829,2.725,-74.696
 14:33:34.510,eb:33:2e:f9:57:b5, 2085-97-136 02:15:02:3891,0.229,0.099,1.877,346.436,135.132,-47.668,27.158,4.12,-74.509
 14:33:34.510,eb:33:2e:f9:57:b5, 2085-97-44 01:126:02:4395,0.197,0.293,2.114,365.784,132.935,-60.486,30.751,5.537,-74.339
 14:33:34.510,eb:33:2e:f9:57:b5, 2085-97-63 01:118:06:3358,0.121,0.563,1.834,386.353,112.122,-69.763,34.541,6.971,-74.169
 14:33:34.510,eb:33:2e:f9:57:b5, 2085-97-107 00:05:03:4364,0.02,0.539,1.982,394.897,53.711,-89.355,38.414,8.08,-74.394
 14:33:34.540,eb:33:2e:f9:57:b5, 2085-97-155 01:253:03:6097,0.299,0.547,2.464,393.311,37.72,-94.238,42.325,8.987,-74.828
 14:33:34.540,eb:33:2e:f9:57:b5, 2085-97-187 02:209:02:5686,0.389,0.468,3.019,367.004,97.717,-90.637,46.11,10.102,-75.004
 14:33:34.540,eb:33:2e:f9:57:b5, 2085-97-149 03:139:253:4993,0.553,0.043,2.614,316.895,154.114,-85.388,49.576,11.635,-74.608
 14:33:34.540,eb:33:2e:f9:57:b5, 2085-97-75 05:254:246:3889,0.764,-0.682,2.224,273.865,193.115,-73.669,52.696,13.343,-73.702
 14:33:34.599,eb:33:2e:f9:57:b5, 2085-97-239 03:16:248:102,0.446,-1.637,1.448,253.723,235.107,-46.692,55.64,15.106,-72.208
 14:33:34.599,eb:33:2e:f9:57:b5, 2085-97-30 03:61:250:-854,0.425,-0.535,-0.528,159.668,174.316,-33.997,58.184,16.512,-70.719
 14:33:34.599,eb:33:2e:f9:57:b5, 2085-97-25 04:244:250:112,0.489,-0.797,-0.174,42.908,106.14,-20.874,59.425,17.441,-69.56
 14:33:34.599,eb:33:2e:f9:57:b5, 2085-97-30 03:50:251:1287,0.32,-0.557,0.361,-32.715,30.64,-24.109,59.529,17.935,-69.126
 14:33:34.720,eb:33:2e:f9:57:b5, 2085-97-91 02:193:250:1697,0.252,-0.66,0.768,-62.317,3.723,-23.743,58.997,18.21,-69.148
 14:33:34.720,eb:33:2e:f9:57:b5, 2085-97-201 01:112:251:1513,0.194,-0.614,0.821,-72.021,8.728,-18.494,58.293,18.413,-69.219
 14:33:34.720,eb:33:2e:f9:57:b5, 2085-97-70 01:151:251:1026,0.131,-0.554,0.619,-79.102,11.353,-14.221,57.524,18.611,-69.214
 14:33:34.720,eb:33:2e:f9:57:b5, 2085-97-202 00:148:251:692,0.079,-0.55,0.412,-92.041,4.028,-9.705,56.673,18.748,-69.219
 14:33:34.722,eb:33:2e:f9:57:b5, 2085-97-157 00:138:251:494,0.066,-0.55,0.274,-114.075,-4.028,-4.822,55.607,18.803,-69.269
 14:33:34.722,eb:33:2e:f9:57:b5, 2085-97-123 00:135:251:469,0.061,-0.559,0.225,-142.395,-12.207,0.488,54.289,18.765,-69.362
 14:33:34.722,eb:33:2e:f9:57:b5, 2085-97-143 00:133:251:515,0.082,-0.559,0.238,-174.988,-20.081,5.432,52.625,18.638,-69.489
 14:33:34.722,eb:33:2e:f9:57:b5, 2085-97-190 00:172:251:582,0.105,-0.557,0.267,-200.806,-28.076,7.812,50.68,18.435,-69.653
 14:33:34.725,eb:33:2e:f9:57:b5, 2085-97-240 00:04:252:644,0.128,-0.521,0.297,-221.924,-38.696,7.263,48.466,18.155,-69.879
 14:33:34.725,eb:33:2e:f9:57:b5, 2085-97-15 01:81:252:706,0.134,-0.479,0.33,-238.831,-52.429,4.089,46.055,17.803,-70.203
 14:33:34.725,eb:33:2e:f9:57:b5, 2085-97-10 01:129:252:836,0.125,-0.446,0.373,-254.089,-70.496,-1.16,43.429,17.353,-70.659
 14:33:34.725,eb:33:2e:f9:57:b5, 2085-97-239 00:119:252:1064,0.116,-0.438,0.456,-270.02,-87.891,-6.226,40.627,16.787,-71.268
 14:33:34.749,eb:33:2e:f9:57:b5, 2085-97-240 00:75:252:1410,0.122,-0.452,0.602,-285.828,-99.304,-9.46,37.628,16.111,-71.971
 14:33:34.749,eb:33:2e:f9:57:b5, 2085-97-07 01:73:252:1735,0.138,-0.472,0.773,-299.316,-104.553,-11.047,34.497,15.348,-72.702
 14:33:34.749,eb:33:2e:f9:57:b5, 2085-97-56 01:137:252:1931,0.163,-0.448,0.9,-311.035,-106.079,-11.047,31.24,14.529,-73.405
 14:33:34.749,eb:33:2e:f9:57:b5, 2085-97-41 01:247:252:2073,0.18,-0.414,0.978,-322.51,-109.009,-10.376,27.911,13.656,-74.064
 14:33:34.809,eb:33:2e:f9:57:b5, 2085-97-177 01:16:253:2325,0.193,-0.376,1.069,-333.374,-114.197,-10.071,24.467,12.706,-74.674
 14:33:34.809,eb:33:2e:f9:57:b5, 2085-97-237 01:40:253:2569,0.242,-0.348,1.171,-342.285,-128.479,-8.118,20.962,11.624,-75.256
 14:33:34.809,eb:33:2e:f9:57:b5, 2085-97-254 01:129:253:2867,0.254,-0.336,1.32,-350.891,-138.977,-4.089,17.375,10.377,-75.778
 14:33:34.809,eb:33:2e:f9:57:b5, 2085-97-87 02:160:253:3408,0.302,-0.301,1.521,-357.422,-150.33,1.587,13.755,8.987,-76.201
 14:33:34.840,eb:33:2e:f9:57:b5, 2085-97-139 02:67:254:3972,0.315,-0.26,1.801,-357.117,-159.058,7.141,10.118,7.449,-76.498
 14:33:34.840,eb:33:2e:f9:57:b5, 2085-97-128 02:56:255:4554,0.316,-0.161,2.083,-347.839,-164.673,12.39,6.57,5.828,-76.652
 14:33:34.840,eb:33:2e:f9:57:b5, 2085-97-57 02:221:00:5085,0.246,-0.02,2.356,-328.613,-169.8,17.944,3.17,4.142,-76.663
 14:33:34.840,eb:33:2e:f9:57:b5, 2085-97-184 01:136:02:5249,0.188,0.224,2.553,-307.739,-179.626,25.208,0.022,2.39,-76.503
 14:33:34.871,eb:33:2e:f9:57:b5, 2085-97-73 01:75:03:5199,0.142,0.374,2.547,-307.617,-192.139,31.738,-3.049,0.516,-76.19
 14:33:34.871,eb:33:2e:f9:57:b5, 2085-97-11 01:225:03:5306,0.125,0.445,2.552,-323.181,-201.111,42.603,-6.207,-1.417,-75.679
 14:33:34.871,eb:33:2e:f9:57:b5, 2085-97-03 01:225:04:5502,0.146,0.542,2.64,-338.745,-210.815,55.542,-9.586,-3.411,-74.927
 14:33:34.871,eb:33:2e:f9:57:b5, 2085-97-38 01:224:06:5724,0.143,0.72,2.732,-346.436,-215.881,69.885,-13.107,-5.4,-73.9
 14:33:34.959,eb:33:2e:f9:57:b5, 2085-97-83 01:65:09:5818,-0.075,0.999,2.805,-340.332,-214.783,80.2,-16.71,-7.3,-72.625
 14:33:34.959,eb:33:2e:f9:57:b5, 2085-97-221 251:192:09:4168,-0.779,1.298,2.511,-319.763,-224.67,86.243,-20.237,-9.091,-71.147
 14:33:34.959,eb:33:2e:f9:57:b5, 2085-97-72 248:05:13:3636,-0.976,1.343,1.739,-277.466,-295.898,92.285,-23.533,-11.217,-69.34
 14:33:34.959,eb:33:2e:f9:57:b5, 2085-97-196 245:82:19:5118,-1.569,1.936,2.259,-250.793,-323.059,101.746,-26.636,-13.749,-67.061
 14:33:34.961,eb:33:2e:f9:57:b5, 2085-97-06 243:100:32:5045,-1.617,3.224,2.522,-244.873,-240.662,106.384,-29.729,-15.782,-64.726
 14:33:34.961,eb:33:2e:f9:57:b5, 2085-113-58 00:67:219:3195,-1.474,4.744,2.385,-200.989,-146.973,80.994,-32.525,-16.897,-62.869
 14:33:34.961,eb:33:2e:f9:57:b5, 2085-97-47 246:125:41:5245,-1.119,5.152,2.442,-149.353,-108.398,47.791,-33.563,-17.254,-62.249
 14:33:34.961,eb:33:2e:f9:57:b5, 2085-97-57 249:07:34:5774,-0.827,4.952,2.861,0.793,-20.752,-33.081,-34.393,-17.715,-61.842
 14:33:35.080,eb:33:2e:f9:57:b5, 2085-97-164 250:06:25:4866,0.715,3.767,2.441,138.062,69.763,-102.417,-33.322,-17.847,-62.677
 14:33:35.080,eb:33:2e:f9:57:b5, 2085-97-235 249:215:248:2849,0.931,-0.699,6.387,180.664,74.768,-219.727,-30.959,-18.051,-64.44
 14:33:35.080,eb:33:2e:f9:57:b5, 2085-97-130 16:52:232:-1821,1.801,-2.62,-0.32,204.224,217.346,-99.792,-28.367,-16.688,-67.061
 14:33:35.080,eb:33:2e:f9:57:b5, 2085-97-199 04:92:251:1743,-0.098,-1.783,0.688,326.111,228.699,-48.096,-25.159,-15.359,-68.56
 14:33:35.169,eb:33:2e:f9:57:b5, 2085-97-131 252:221:255:1063,-0.576,0.11,0.771,349.121,247.803,-77.576,-21.281,-13.233,-70.175
 14:33:35.169,eb:33:2e:f9:57:b5, 2085-97-59 251:203:254:1018,-0.331,-0.214,0.484,320.251,136.475,-36.865,-17.666,-11.656,-71.406
 14:33:35.169,eb:33:2e:f9:57:b5, 2085-97-11 255:44:02:2521,0.07,0.047,0.875,291.077,46.082,-4.456,-14.54,-10.931,-71.785
 14:33:35.169,eb:33:2e:f9:57:b5, 2085-97-119 01:128:03:3160,-0.05,0.498,1.545,246.094,44.25,-13.55,-11.827,-10.563,-71.933
 14:33:35.171,eb:33:2e:f9:57:b5, 2085-97-77 254:149:01:2265,-0.238,0.279,1.292,207.275,76.843,-26.367,-9.536,-9.937,-72.263
 14:33:35.171,eb:33:2e:f9:57:b5, 2085-97-246 253:170:06:2836,-0.067,0.272,1.167,178.101,53.284,-41.199,-7.537,-9.344,-72.68
 14:33:35.171,eb:33:2e:f9:57:b5, 2085-97-95 255:135:02:2336,0.023,0.555,1.3,127.625,59.448,-73.608,-5.933,-8.871,-73.411
 14:33:35.171,eb:33:2e:f9:57:b5, 2085-97-205 255:164:00:2137,0.078,0.121,1.087,95.459,54.26,-59.631,-4.73,-8.361,-74.152
 14:33:35.171,eb:33:2e:f9:57:b5, 2085-97-164 00:06:255:2111,0.307,-0.031,1.037,75.989,52.551,-30.396,-3.823,-7.85,-74.641
 14:33:35.171,eb:33:2e:f9:57:b5, 2085-97-00 02:10:01:2269,0.064,0.074,1.182,44.495,55.908,3.845,-3.224,-7.366,-74.8
 14:33:35.171,eb:33:2e:f9:57:b5, 2085-97-233 255:154:00:1874,0.032,0.112,0.974,25.757,55.969,8.179,-2.911,-6.757,-74.74
 14:33:35.172,eb:33:2e:f9:57:b5, 2085-97-164 00:63:00:2018,0.089,0.044,0.949,20.02,36.499,3.601,-2.681,-6.306,-74.707
 14:33:35.174,eb:33:2e:f9:57:b5, 2085-97-158 00:77:00:2032,0.078,0.025,1,14.587,32.227,4.944,-2.51,-5.971,-74.674
 14:33:35.174,eb:33:2e:f9:57:b5, 2085-97-143 00:31:00:2032,0.072,0.035,0.994,9.216,29.236,4.395,-2.39,-5.658,-74.641
 14:33:35.174,eb:33:2e:f9:57:b5, 2085-97-120 00:04:00:2024,0.044,0.007,0.995,6.165,25.818,5.249,-2.318,-5.383,-74.597
 14:33:35.174,eb:33:2e:f9:57:b5, 2085-97-83 00:06:00:2006,0.04,0.001,0.979,4.517,19.836,5.493,-2.263,-5.147,-74.553
 14:33:35.228,eb:33:2e:f9:57:b5, 2085-97-98 00:250:255:2022,0.056,0.001,0.979,3.296,12.817,5.31,-2.23,-4.982,-74.504
 14:33:35.228,eb:33:2e:f9:57:b5, 2085-97-122 00:246:255:2046,0.067,-0.004,0.995,2.38,9.644,5.737,-2.197,-4.872,-74.449
 14:33:35.228,eb:33:2e:f9:57:b5, 2085-97-145 00:246:255:2066,0.07,-0.003,1.005,1.587,10.071,6.165,-2.181,-4.774,-74.394
 14:33:35.228,eb:33:2e:f9:57:b5, 2085-97-155 00:244:255:2075,0.08,-0.005,1.009,0.977,13,6.531,-2.164,-4.653,-74.333
 14:33:35.232,eb:33:2e:f9:57:b5, 2085-97-173 00:240:255:2098,0.087,-0.007,1.019,0.427,17.761,6.836,-2.164,-4.499,-74.273
 14:33:35.232,eb:33:2e:f9:57:b5, 2085-97-172 00:241:255:2103,0.07,-0.006,1.027,0.183,24.78,6.836,-2.159,-4.274,-74.207
 14:33:35.232,eb:33:2e:f9:57:b5, 2085-97-118 00:241:255:2060,0.044,-0.006,1.016,-0.122,30.762,6.592,-2.164,-3.988,-74.147
 14:33:35.233,eb:33:2e:f9:57:b5, 2085-97-68 00:236:255:2031,0.021,-0.007,0.997,-0.183,31.494,6.165,-2.159,-3.664,-74.092
 14:33:35.321,eb:33:2e:f9:57:b5, 2085-97-42 00:234:255:2021,0.021,-0.011,0.986,0,28.503,5.676,-2.164,-3.362,-74.042
 14:33:35.321,eb:33:2e:f9:57:b5, 2085-97-56 00:228:255:2043,0.033,-0.013,0.989,0.427,24.963,5.249,-2.153,-3.093,-73.998
 14:33:35.321,eb:33:2e:f9:57:b5, 2085-97-69 00:223:255:2066,0.03,-0.016,1.006,0.977,24.78,5.249,-2.148,-2.845,-73.954
 14:33:35.321,eb:33:2e:f9:57:b5, 2085-97-65 00:219:255:2073,0.026,-0.018,1.009,1.709,26.611,5.371,-2.131,-2.582,-73.905
 14:33:35.351,eb:33:2e:f9:57:b5, 2085-97-41 00:231:255:2059,0.02,-0.016,1.01,2.258,29.358,5.981,-2.109,-2.296,-73.856
 14:33:35.352,eb:33:2e:f9:57:b5, 2085-97-31 00:243:255:2054,0.01,-0.008,1.005,2.625,30.701,5.31,-2.076,-1.989,-73.806
 14:33:35.352,eb:33:2e:f9:57:b5, 2085-97-15 00:250:255:2053,-0.001,-0.007,1.001,2.747,30.64,4.456,-2.054,-1.681,-73.768
 14:33:35.352,eb:33:2e:f9:57:b5, 2085-97-228 255:250:255:2018,-0.012,-0.003,0.997,2.93,30.029,3.479,-2.016,-1.368,-73.735
 14:33:35.410,eb:33:2e:f9:57:b5, 2085-97-218 255:246:255:2024,-0.022,-0.003,0.989,3.296,25.757,2.258,-1.983,-1.088,-73.713
 14:33:35.410,eb:33:2e:f9:57:b5, 2085-97-230 255:249:255:2038,-0.016,-0.005,0.988,3.723,20.63,1.282,-1.939,-0.851,-73.702
 14:33:35.410,eb:33:2e:f9:57:b5, 2085-97-197 255:233:255:2018,0.012,-0.004,0.992,4.211,16.663,0.366,-1.901,-0.67,-73.696
 14:33:35.410,eb:33:2e:f9:57:b5, 2085-97-205 255:03:00:2031,0.006,0.004,1.014,4.517,13.855,0.061,-1.846,-0.516,-73.696
 14:33:35.412,eb:33:2e:f9:57:b5, 2085-97-238 255:11:00:2064,0.003,-0.002,1.022,4.761,11.78,-0.732,-1.796,-0.39,-73.713
 14:33:35.412,eb:33:2e:f9:57:b5, 2085-97-95 00:36:00:2189,0.042,0.004,1.02,5.676,10.681,-2.93,-1.736,-0.275,-73.735
 14:33:35.412,eb:33:2e:f9:57:b5, 2085-97-86 00:253:255:2265,0.014,0.003,1.11,6.287,16.479,-6.042,-1.675,-0.143,-73.784
 14:33:35.412,eb:33:2e:f9:57:b5, 2085-97-227 255:249:255:2106,-0.027,-0.005,1.068,6.348,23.193,-7.263,-1.604,0.071,-73.861
 14:33:35.412,eb:33:2e:f9:57:b5, 2085-97-187 255:02:00:2049,-0.04,-0.001,1.01,6.409,23.132,-7.874,-1.538,0.297,-73.938
 14:33:35.440,eb:33:2e:f9:57:b5, 2085-113-58 00:117:214:630,-0.043,0,0.994,6.409,21.851,-7.996,-1.467,0.527,-74.026
 14:33:35.440,eb:33:2e:f9:57:b5, 2085-97-167 255:255:255:2035,-0.043,0,0.991,6.348,20.996,-7.69,-1.434,0.632,-74.064
 14:33:35.440,eb:33:2e:f9:57:b5, 2085-97-179 255:00:00:2070,-0.045,0,0.997,6.897,19.165,-7.202,-1.357,0.835,-74.141
 14:33:35.440,eb:33:2e:f9:57:b5, 2085-97-158 255:219:255:2095,-0.051,-0.006,1.009,8.24,16.907,-6.287,-1.285,1.016,-74.213
 14:33:35.469,eb:33:2e:f9:57:b5, 2085-97-131 255:116:255:2209,-0.087,-0.052,1.049,14.893,8.24,-3.418,-1.165,1.154,-74.268
 14:33:35.469,eb:33:2e:f9:57:b5, 2085-97-54 255:140:255:2251,-0.1,-0.074,1.107,21.301,5.615,0.732,-0.972,1.203,-74.279
 14:33:35.469,eb:33:2e:f9:57:b5, 2085-97-144 255:17:00:2136,-0.081,0.039,1.002,20.386,5.737,-1.526,-0.753,1.274,-74.273
 14:33:35.469,eb:33:2e:f9:57:b5, 2085-97-107 255:179:255:2248,-0.067,-0.043,1.108,22.705,2.808,-2.563,-0.544,1.307,-74.301
 14:33:35.560,eb:33:2e:f9:57:b5, 2085-97-107 255:165:255:2293,-0.07,-0.033,1.098,26.428,-0.732,-1.221,-0.286,1.324,-74.317
 14:33:35.560,eb:33:2e:f9:57:b5, 2085-97-112 255:159:255:2353,-0.065,-0.048,1.14,31.311,-4.272,0.305,0.005,1.296,-74.323
 14:33:35.560,eb:33:2e:f9:57:b5, 2085-97-141 255:158:255:2399,-0.05,-0.049,1.163,36.926,-6.897,1.77,0.357,1.241,-74.317
 14:33:35.560,eb:33:2e:f9:57:b5, 2085-97-119 255:167:255:2363,-0.07,-0.047,1.176,42.969,-8.606,4.028,0.764,1.159,-74.29
 14:33:35.618,eb:33:2e:f9:57:b5, 2085-97-102 255:157:255:2371,-0.062,-0.046,1.156,48.889,-12.573,7.446,1.236,1.055,-74.235
 14:33:35.618,eb:33:2e:f9:57:b5, 2085-97-140 255:155:255:2434,-0.04,-0.052,1.175,54.81,-16.479,10.925,1.758,0.901,-74.152
 14:33:35.618,eb:33:2e:f9:57:b5, 2085-97-183 255:137:255:2533,-0.018,-0.056,1.215,61.523,-18.311,14.954,2.351,0.725,-74.026
 14:33:35.619,eb:33:2e:f9:57:b5, 2085-97-14 00:139:255:2641,0.045,-0.06,1.255,69.58,-16.479,19.287,3.01,0.538,-73.867
 14:33:35.679,eb:33:2e:f9:57:b5, 2085-97-163 00:154:255:2775,0.113,-0.055,1.329,78.613,-8.423,23.254,3.763,0.396,-73.663
 14:33:35.679,eb:33:2e:f9:57:b5, 2085-97-06 01:186:255:2854,0.119,-0.039,1.382,88.623,7.141,25.757,4.603,0.374,-73.416
 14:33:35.679,eb:33:2e:f9:57:b5, 2085-97-177 00:137:255:2924,0.083,-0.04,1.414,99.243,24.719,27.222,5.559,0.522,-73.136
 14:33:35.679,eb:33:2e:f9:57:b5, 2085-97-145 00:85:255:2974,0.092,-0.08,1.438,113.159,38.757,28.259,6.63,0.818,-72.817
 14:33:35.681,eb:33:2e:f9:57:b5, 2085-97-133 01:97:255:3237,0.32,-0.102,1.525,130.127,46.448,26.001,7.861,1.208,-72.488
 14:33:35.681,eb:33:2e:f9:57:b5, 2085-97-244 02:109:00:2986,0.289,0.004,1.532,147.278,65.43,18.86,9.267,1.73,-72.175
 14:33:35.681,eb:33:2e:f9:57:b5, 2085-97-59 01:23:255:3024,0.104,-0.011,1.445,164.856,73.12,7.629,10.849,2.406,-71.922
 14:33:35.681,eb:33:2e:f9:57:b5, 2085-97-245 00:239:254:2991,0.223,-0.172,1.499,186.646,79.956,4.333,12.623,3.142,-71.713
 14:33:35.683,eb:33:2e:f9:57:b5, 2085-97-109 02:46:255:3089,0.298,-0.112,1.475,213.379,81.116,-4.883,14.65,3.928,-71.521
 14:33:35.683,eb:33:2e:f9:57:b5, 2085-97-75 02:200:254:3243,0.259,-0.103,1.523,243.225,83.069,-17.029,16.957,4.746,-71.395
 14:33:35.683,eb:33:2e:f9:57:b5, 2085-97-243 01:68:254:3453,0.245,-0.205,1.634,277.405,88.928,-31.128,19.578,5.636,-71.351
 14:33:35.683,eb:33:2e:f9:57:b5, 2085-97-243 01:35:255:3617,0.259,-0.19,1.743,313.904,105.957,-46.753,22.555,6.691,-71.362
 14:33:35.710,eb:33:2e:f9:57:b5, 2085-97-237 01:90:01:3383,0.147,-0.012,1.738,346.375,120.361,-62.012,25.878,7.976,-71.373
 14:33:35.710,eb:33:2e:f9:57:b5, 2085-97-205 255:92:04:3876,-0.067,0.289,1.783,372.192,103.577,-84.106,29.471,9.305,-71.51
 14:33:35.710,eb:33:2e:f9:57:b5, 2085-97-138 254:178:03:4360,-0.257,0.561,2.092,380.493,96.558,-95.337,33.206,10.635,-71.763
 14:33:35.711,eb:33:2e:f9:57:b5, 2085-97-117 254:186:02:4460,-0.021,0.349,2.065,392.09,88.257,-98.145,37.035,11.97,-72.004
 14:33:35.769,eb:33:2e:f9:57:b5, 2085-97-99 00:07:04:4801,0.146,0.341,2.274,400.879,76.233,-96.191,40.952,13.217,-72.263
 14:33:35.769,eb:33:2e:f9:57:b5, 2085-97-254 01:242:03:5199,0.36,0.6,2.508,377.93,81.116,-103.271,44.813,14.464,-72.46
 14:33:35.769,eb:33:2e:f9:57:b5, 2085-97-142 03:94:255:4541,0.497,0.181,2.373,339.478,88.013,-108.704,48.362,15.826,-72.57
 14:33:35.769,eb:33:2e:f9:57:b5, 2085-97-165 04:137:250:3680,0.646,-0.357,2.015,295.288,105.774,-103.394,51.548,17.265,-72.488
 14:33:35.798,eb:33:2e:f9:57:b5, 2085-97-23 03:181:246:1201,0.161,-1.287,1.572,263.245,125.427,-82.52,54.404,18.737,-72.098
 14:33:35.798,eb:33:2e:f9:57:b5, 2085-97-222 00:07:250:-140,0.14,-0.692,-0.058,185.181,87.158,-48.523,56.893,19.819,-71.581
 14:33:35.798,eb:33:2e:f9:57:b5, 2085-97-142 01:42:249:776,0.243,-0.928,0.173,63.721,87.891,-3.296,58.277,20.49,-70.895
 14:33:35.798,eb:33:2e:f9:57:b5, 2085-97-16 02:09:251:1569,0.259,-0.707,0.587,-15.686,66.345,23.804,58.705,20.764,-70.137
 14:33:35.829,eb:33:2e:f9:57:b5, 2085-97-102 02:106:251:1714,0.353,-0.604,0.853,-49.683,62.622,38.513,58.585,20.803,-69.384
 14:33:35.829,eb:33:2e:f9:57:b5, 2085-97-249 02:217:252:1100,0.39,-0.479,0.719,-58.35,63.721,44.495,58.326,20.764,-68.566
 14:33:35.829,eb:33:2e:f9:57:b5, 2085-97-75 03:234:253:304,0.405,-0.309,0.332,-64.941,43.457,40.894,57.958,20.676,-67.835
 14:33:35.829,eb:33:2e:f9:57:b5, 2085-97-44 03:00:254:-114,0.372,-0.242,0.011,-78.247,7.141,31.311,57.387,20.495,-67.418
 14:33:35.922,eb:33:2e:f9:57:b5, 2085-97-176 02:179:253:-060,0.298,-0.265,-0.064,-97.534,-33.386,20.63,56.492,20.198,-67.418
 14:33:35.922,eb:33:2e:f9:57:b5, 2085-97-01 02:11:253:242,0.218,-0.322,0.027,-120.605,-64.819,12.39,55.267,19.781,-67.791
 14:33:35.922,eb:33:2e:f9:57:b5, 2085-97-124 01:120:252:539,0.159,-0.409,0.198,-147.705,-83.74,8.606,53.696,19.254,-68.406
 14:33:35.922,eb:33:2e:f9:57:b5, 2085-97-29 01:22:252:750,0.13,-0.467,0.325,-172.363,-88.135,9.827,51.861,18.666,-69.099
 14:33:35.922,eb:33:2e:f9:57:b5, 2085-97-00 01:249:251:846,0.123,-0.502,0.39,-195.374,-87.646,12.939,49.796,18.023,-69.747
 14:33:35.922,eb:33:2e:f9:57:b5, 2085-97-250 00:28:252:897,0.124,-0.497,0.425,-215.393,-88.623,16.052,47.549,17.336,-70.356
 14:33:35.922,eb:33:2e:f9:57:b5, 2085-97-07 01:70:252:932,0.129,-0.475,0.441,-231.14,-96.252,17.212,45.121,16.584,-70.939
 14:33:35.922,eb:33:2e:f9:57:b5, 2085-97-03 01:98:252:1052,0.124,-0.457,0.479,-243.835,-109.497,16.846,42.567,15.727,-71.576
 14:33:35.949,eb:33:2e:f9:57:b5, 2085-97-245 00:89:252:1228,0.116,-0.454,0.552,-256.714,-123.535,15.625,39.864,14.738,-72.263
 14:33:35.949,eb:33:2e:f9:57:b5, 2085-97-239 00:69:252:1417,0.118,-0.46,0.645,-272.278,-134.277,14.709,37.04,13.634,-72.993
 14:33:35.949,eb:33:2e:f9:57:b5, 2085-97-247 00:43:252:1638,0.125,-0.474,0.744,-289.734,-141.907,13.428,34.041,12.431,-73.718
 14:33:35.949,eb:33:2e:f9:57:b5, 2085-97-19 01:40:252:1905,0.139,-0.482,0.861,-305.359,-148.621,11.719,30.916,11.14,-74.432
 14:33:36.010,eb:33:2e:f9:57:b5, 2085-97-28 01:80:252:2176,0.128,-0.474,0.997,-316.833,-155.945,8.972,27.653,9.761,-75.114
 14:33:36.010,eb:33:2e:f9:57:b5, 2085-97-245 00:120:252:2491,0.124,-0.447,1.124,-325.195,-164.856,5.31,24.335,8.295,-75.784
 14:33:36.010,eb:33:2e:f9:57:b5, 2085-97-23 01:51:252:2883,0.074,-0.471,1.308,-332.52,-172.546,2.869,20.945,6.718,-76.421
 14:33:36.010,eb:33:2e:f9:57:b5, 2085-97-174 00:163:252:3293,0.109,-0.457,1.536,-340.454,-174.377,5.31,17.518,5.059,-76.987
 14:33:36.038,eb:33:2e:f9:57:b5, 2085-97-244 00:03:253:3746,0.111,-0.407,1.714,-347.9,-175.171,7.751,14.024,3.356,-77.421
 14:33:36.038,eb:33:2e:f9:57:b5, 2085-97-187 00:202:253:4210,0.07,-0.323,1.937,-350.891,-174.133,10.071,10.508,1.637,-77.723
 14:33:36.038,eb:33:2e:f9:57:b5, 2085-97-107 00:167:254:4905,0.025,-0.234,2.212,-342.224,-171.265,13.367,7.009,-0.093,-77.888
 14:33:36.039,eb:33:2e:f9:57:b5, 2085-97-226 255:176:00:5386,-0.066,-0.067,2.546,-320.496,-164.368,18.127,3.702,-1.774,-77.904
 14:33:36.129,eb:33:2e:f9:57:b5, 2085-97-08 255:241:01:5304,-0.184,0.194,2.619,-307.007,-169.8,23.254,0.571,-3.45,-77.778
 14:33:36.129,eb:33:2e:f9:57:b5, 2085-97-12 254:74:02:5260,-0.311,0.268,2.567,-319.519,-178.406,32.104,-2.571,-5.197,-77.487
 14:33:36.129,eb:33:2e:f9:57:b5, 2085-97-17 253:193:02:5486,-0.41,0.313,2.605,-341.919,-182.495,48.767,-5.966,-6.982,-76.965
 14:33:36.129,eb:33:2e:f9:57:b5, 2085-97-133 252:230:03:5827,-0.444,0.398,2.765,-358.154,-179.749,72.205,-9.602,-8.712,-76.124
 14:33:36.131,eb:33:2e:f9:57:b5, 2085-97-128 252:105:06:5931,-0.419,0.618,2.89,-359.924,-159.546,98.755,-13.42,-10.223,-74.932
 14:33:36.131,eb:33:2e:f9:57:b5, 2085-97-193 252:58:10:5873,-0.387,1.018,2.906,-345.581,-134.155,120.667,-17.238,-11.349,-73.455
 14:33:36.131,eb:33:2e:f9:57:b5, 2085-97-236 252:230:14:5434,-0.402,1.558,2.782,-316.589,-111.572,130.432,-20.891,-12.096,-71.829
 14:33:36.131,eb:33:2e:f9:57:b5, 2085-97-188 252:205:19:4645,-0.5,2.159,2.473,-277.344,-97.717,126.16,-24.203,-12.574,-70.203
 14:33:36.159,eb:33:2e:f9:57:b5, 2085-97-237 248:164:27:2737,-1.193,2.844,1.908,-232.117,-90.637,106.14,-27.065,-12.914,-68.73
 14:33:36.159,eb:33:2e:f9:57:b5, 2085-97-116 244:249:35:2428,-1.516,4.093,1.058,-180.786,-137.939,71.655,-29.427,-13.513,-67.379
 14:33:36.159,eb:33:2e:f9:57:b5, 2085-97-88 244:129:34:4862,-1.452,4.561,1.715,-97.534,-152.283,21.667,-31.102,-14.628,-66.187
 14:33:36.159,eb:33:2e:f9:57:b5, 2085-97-199 244:95:26:5824,1.502,3.852,2.707,15.259,-50.72,-10.986,-31.613,-15.502,-65.627
 14:33:36.280,eb:33:2e:f9:57:b5, 2085-97-90 243:176:26:6863,0.822,1.683,6.555,241.638,-38.086,-38.208,-30.465,-15.908,-65.682
 14:33:36.280,eb:33:2e:f9:57:b5, 2085-97-92 10:137:248:1861,1.474,-0.705,0.874,263.367,71.472,-111.633,-27.488,-16.194,-67.094
 14:33:36.280,eb:33:2e:f9:57:b5, 2085-97-178 10:186:249:2533,0.723,-1.205,1.035,308.044,145.996,-123.352,-24.197,-15.771,-68.599
 14:33:36.280,eb:33:2e:f9:57:b5, 2085-97-151 02:253:00:2213,0.065,-0.017,1.292,314.941,252.319,-148.315,-20.435,-14.26,-70.741
 14:33:36.280,eb:33:2e:f9:57:b5, 2085-97-58 254:76:255:1716,-0.425,0.013,0.916,275.757,219.91,-132.324,-16.996,-12.415,-72.9
 14:33:36.280,eb:33:2e:f9:57:b5, 2085-97-207 252:90:254:1668,-0.289,-0.138,0.798,248.962,151.794,-92.041,-14.057,-10.92,-74.504
 14:33:36.280,eb:33:2e:f9:57:b5, 2085-97-157 254:04:255:2008,-0.313,-0.091,0.935,231.384,91.492,-46.875,-11.486,-9.915,-75.41
 14:33:36.280,eb:33:2e:f9:57:b5, 2085-97-243 251:77:05:2932,-0.14,-0.059,0.988,212.769,56.03,-12.024,-9.201,-9.24,-75.8
 14:33:36.282,eb:33:2e:f9:57:b5, 2085-97-62 01:123:04:3146,-0.038,0.708,1.638,154.358,56.519,-35.706,-7.306,-8.762,-76.097
 14:33:36.282,eb:33:2e:f9:57:b5, 2085-97-72 255:174:01:2175,-0.007,0.355,1.222,109.802,85.754,-42.725,-5.966,-8.015,-76.591
 14:33:36.282,eb:33:2e:f9:57:b5, 2085-97-145 00:06:255:2074,0.142,0.021,1.007,91.064,58.96,-44.434,-4.916,-7.328,-77.108
 14:33:36.282,eb:33:2e:f9:57:b5, 2085-97-189 01:45:02:2264,0.164,-0.202,1.039,96.497,39.307,-33.691,-3.933,-6.899,-77.531
 14:33:36.550,eb:33:2e:f9:57:b5, 2085-97-197 02:147:01:2438,0.044,-0.041,1.085,72.205,35.889,0.977,-3.054,-6.553,-77.723
 14:33:36.550,eb:33:2e:f9:57:b5, 2085-97-192 255:130:02:1864,-0.135,0.292,1.017,40.161,52.246,12.268,-2.516,-6.053,-77.64
 14:33:36.550,eb:33:2e:f9:57:b5, 2085-97-114 255:115:00:1836,0.026,0.142,0.858,20.264,22.339,3.967,-2.241,-5.68,-77.585
 14:33:36.550,eb:33:2e:f9:57:b5, 2085-97-89 00:47:00:2013,0.042,0.023,0.961,14.526,3.479,6.287,-2.082,-5.587,-77.536
 14:33:36.580,eb:33:2e:f9:57:b5, 2085-97-93 00:103:00:2005,0.058,0.043,0.978,11.597,2.258,5.371,-1.945,-5.548,-77.476
 14:33:36.580,eb:33:2e:f9:57:b5, 2085-97-109 00:62:00:2019,0.043,0.046,0.986,6.958,0.244,4.028,-1.857,-5.537,-77.432
 14:33:36.580,eb:33:2e:f9:57:b5, 2085-97-85 00:33:00:1997,0.051,0.02,0.98,4.395,-4.456,3.296,-1.796,-5.548,-77.393
 14:33:36.580,eb:33:2e:f9:57:b5, 2085-97-146 00:25:00:2046,0.076,0.012,0.982,3.174,-10.498,2.502,-1.763,-5.625,-77.36
 14:33:36.580,eb:33:2e:f9:57:b5, 2085-113-58 00:185:221:2115,0.078,0.008,1.003,2.075,-12.329,1.526,-1.73,-5.735,-77.344
 14:33:36.580,eb:33:2e:f9:57:b5, 2085-97-169 00:10:00:2061,0.085,0.005,1.004,1.77,-12.207,1.343,-1.719,-5.795,-77.333
 14:33:36.580,eb:33:2e:f9:57:b5, 2085-97-183 00:06:00:2068,0.092,0.004,1.008,1.343,-10.742,0.793,-1.708,-5.911,-77.322
 14:33:36.580,eb:33:2e:f9:57:b5, 2085-97-193 00:06:00:2077,0.099,0.002,1.012,0.854,-8.24,0.549,-1.686,-5.999,-77.316
 14:33:36.582,eb:33:2e:f9:57:b5, 2085-97-212 00:00:00:2093,0.106,0.003,1.017,0.366,-4.089,0.183,-1.681,-6.064,-77.311
 14:33:36.582,eb:33:2e:f9:57:b5, 2085-97-201 00:04:00:2084,0.094,0,1.021,0,2.197,0.427,-1.67,-6.059,-77.305
 14:33:36.582,eb:33:2e:f9:57:b5, 2085-97-177 00:253:255:2066,0.083,0,1.015,-0.061,7.568,0,-1.67,-6.01,-77.305
 14:33:36.582,eb:33:2e:f9:57:b5, 2085-97-167 00:250:255:2061,0.08,-0.002,1.007,0.061,10.437,0,-1.659,-5.905,-77.311
 14:33:36.669,eb:33:2e:f9:57:b5, 2085-97-165 00:253:255:2061,0.079,-0.002,1.006,0.244,12.878,0.244,-1.653,-5.79,-77.311
 14:33:36.669,eb:33:2e:f9:57:b5, 2085-97-230 255:00:00:2050,-0.002,-0.003,1.007,0.183,15.137,0.61,-1.642,-5.641,-77.311
 14:33:36.669,eb:33:2e:f9:57:b5, 2085-97-00 00:254:255:2064,-0.008,0.012,0.991,2.93,12.39,1.953,-1.505,-1.664,-76.761
 14:33:36.669,eb:33:2e:f9:57:b5, 2085-97-01 00:09:00:2063,-0.002,0,0.999,3.113,13.55,2.869,-1.467,-1.522,-76.74
 14:33:36.849,eb:33:2e:f9:57:b5, 2085-97-00 00:06:00:2060,-0.006,0.002,1.005,3.235,14.099,2.625,-1.434,-1.379,-76.712
 14:33:36.849,eb:33:2e:f9:57:b5, 2085-97-242 255:14:00:2050,-0.014,0.007,1.002,3.357,13.672,2.197,-1.39,-1.236,-76.69
 14:33:36.849,eb:33:2e:f9:57:b5, 2085-97-235 255:14:00:2053,-0.016,0.007,0.997,3.601,12.512,1.282,-1.357,-1.104,-76.674
 14:33:36.849,eb:33:2e:f9:57:b5, 2085-97-230 255:21:00:2045,-0.008,0.008,0.997,3.967,10.742,0.183,-1.307,-0.978,-76.668
 14:33:36.851,eb:33:2e:f9:57:b5, 2085-97-249 255:21:00:2070,-0.004,0.012,1.002,4.639,9.033,-1.221,-1.263,-0.884,-76.674
 14:33:36.851,eb:33:2e:f9:57:b5, 2085-97-243 255:15:00:2080,-0.004,0.009,1.013,5.615,8.789,-2.38,-1.203,-0.786,-76.696
 14:33:36.851,eb:33:2e:f9:57:b5, 2085-97-249 255:17:00:2110,-0.001,0.008,1.024,6.165,9.155,-3.479,-1.143,-0.698,-76.729
 14:33:36.851,eb:33:2e:f9:57:b5, 2085-97-240 255:19:00:2098,-0.005,0.008,1.033,6.348,10.803,-4.395,-1.071,-0.593,-76.767
 14:33:36.851,eb:33:2e:f9:57:b5, 2085-97-235 255:17:00:2096,-0.006,0.008,1.026,6.653,11.475,-5.31,-1.005,-0.478,-76.816
 14:33:36.851,eb:33:2e:f9:57:b5, 2085-97-232 255:20:00:2095,-0.007,0.009,1.03,6.958,11.902,-5.676,-0.923,-0.357,-76.877
 14:33:36.851,eb:33:2e:f9:57:b5, 2085-97-22 00:01:00:2111,0.045,0.007,1.027,8.057,10.803,-5.92,-0.851,-0.242,-76.932
 14:33:36.852,eb:33:2e:f9:57:b5, 2085-97-245 255:161:255:2256,-0.058,-0.027,1.011,21.24,-10.559,-3.906,-0.709,-0.209,-76.987
 14:33:36.856,eb:33:2e:f9:57:b5, 2085-97-22 255:109:255:2586,-0.066,-0.056,1.146,27.344,-11.108,-0.916,-0.45,-0.346,-77.009
 14:33:36.856,eb:33:2e:f9:57:b5, 2085-97-199 255:140:255:2501,-0.045,-0.043,1.259,29.114,-2.319,-5.92,-0.17,-0.385,-77.036
 14:33:36.856,eb:33:2e:f9:57:b5, 2085-97-152 255:172:255:2374,-0.061,-0.053,1.193,35.522,-1.465,-6.042,0.165,-0.401,-77.102
 14:33:36.856,eb:33:2e:f9:57:b5, 2085-97-99 255:149:255:2298,-0.084,-0.046,1.143,40.344,-4.7,-4.211,0.555,-0.423,-77.151
 14:33:36.908,eb:33:2e:f9:57:b5, 2085-97-104 255:151:255:2306,-0.071,-0.049,1.114,45.105,-11.169,-0.61,0.983,-0.505,-77.179
 14:33:36.908,eb:33:2e:f9:57:b5, 2085-97-124 255:132:255:2386,-0.059,-0.058,1.154,50.415,-17.7,4.211,1.472,-0.643,-77.168
 14:33:36.908,eb:33:2e:f9:57:b5, 2085-97-165 255:133:255:2468,-0.017,-0.06,1.167,56.824,-23.804,10.132,2.01,-0.857,-77.097
 14:33:36.908,eb:33:2e:f9:57:b5, 2085-97-52 00:143:255:2632,0.066,-0.062,1.244,64.331,-26.672,15.503,2.626,-1.115,-76.981
 14:33:36.911,eb:33:2e:f9:57:b5, 2085-97-225 00:146:255:2826,0.132,-0.05,1.331,73.486,-22.095,19.043,3.312,-1.379,-76.822
 14:33:36.911,eb:33:2e:f9:57:b5, 2085-97-50 01:95:255:2922,0.163,-0.05,1.406,84.045,-8.24,21.057,4.109,-1.538,-76.63
 14:33:36.911,eb:33:2e:f9:57:b5, 2085-97-210 01:182:255:2957,0.339,-0.086,1.437,158.936,71.533,13.123,10.031,0.214,-75.366
 14:33:36.911,eb:33:2e:f9:57:b5, 2085-97-22 03:216:255:3117,0.415,-0.012,1.47,180.359,76.965,0.793,11.744,0.934,-75.157
 14:33:36.913,eb:33:2e:f9:57:b5, 2085-97-51 03:65:255:3255,0.314,-0.066,1.582,203.247,96.985,-11.841,13.678,1.796,-75.02
 14:33:36.913,eb:33:2e:f9:57:b5, 2085-97-74 02:189:254:3263,0.258,-0.117,1.603,231.262,111.084,-23.376,15.87,2.873,-74.905
 14:33:36.913,eb:33:2e:f9:57:b5, 2085-97-29 02:115:254:3235,0.333,-0.175,1.557,264.16,114.807,-35.645,18.358,4.048,-74.85
 14:33:36.913,eb:33:2e:f9:57:b5, 2085-97-217 02:86:255:3387,0.315,-0.178,1.61,305.359,118.835,-52.795,21.237,5.301,-74.872
 14:33:36.999,eb:33:2e:f9:57:b5, 2085-97-135 02:49:00:3738,0.274,-0.002,1.762,337.769,126.099,-70.801,24.472,6.674,-74.954
 14:33:36.999,eb:33:2e:f9:57:b5, 2085-97-130 01:12:02:4059,0.146,0.16,1.876,365.356,135.132,-84.717,27.993,8.207,-75.059
 14:33:36.999,eb:33:2e:f9:57:b5, 2085-97-95 00:222:04:3700,-0.111,0.443,1.944,387.024,130.066,-99.426,31.761,9.838,-75.179
 14:33:36.999,eb:33:2e:f9:57:b5, 2085-97-104 254:155:04:4344,-0.097,0.581,1.904,398.743,87.708,-111.084,35.645,11.343,-75.465
 14:33:37.001,eb:33:2e:f9:57:b5, 2085-97-44 01:99:04:5027,0.218,0.657,2.323,400.452,45.837,-118.225,39.545,12.563,-75.987
 14:33:37.001,eb:33:2e:f9:57:b5, 2085-97-211 02:196:04:5386,0.411,0.714,2.547,380.859,47.729,-121.765,43.336,13.661,-76.586
 14:33:37.001,eb:33:2e:f9:57:b5, 2085-97-172 03:76:00:4802,0.506,0.31,2.502,339.905,82.214,-128.723,46.829,15.018,-77.02
 14:33:37.001,eb:33:2e:f9:57:b5, 2085-97-142 04:253:251:3902,0.625,-0.229,2.148,295.532,109.802,-125.854,49.955,16.633,-77.108
 14:33:37.060,eb:33:2e:f9:57:b5, 2085-97-110 04:51:245:2047,0.216,-0.982,1.678,264.465,128.357,-117.126,52.773,18.342,-76.932
 14:33:37.060,eb:33:2e:f9:57:b5, 2085-97-06 01:105:251:-235,0.08,-0.755,0.126,221.863,92.041,-84.351,55.404,19.781,-76.531
 14:33:37.060,eb:33:2e:f9:57:b5, 2085-97-206 00:48:249:665,0.141,-0.763,0.088,105.835,86.67,-44.922,57.129,20.792,-76.135
 14:33:37.060,eb:33:2e:f9:57:b5, 2085-97-43 01:171:250:1409,0.139,-0.757,0.519,15.564,67.871,-8.911,57.859,21.401,-75.564
 14:33:37.060,eb:33:2e:f9:57:b5, 2085-97-16 01:140:250:1687,0.175,-0.651,0.792,-35.95,56.58,13.855,57.909,21.682,-75.004
 14:33:37.090,eb:33:2e:f9:57:b5, 2085-113-58 00:209:227:-1995,0.195,-0.655,0.791,-57.861,66.772,35.889,57.667,21.775,-74.301
 14:33:37.090,eb:33:2e:f9:57:b5, 2085-97-226 01:22:252:1299,0.239,-0.59,0.721,-62.195,69.397,41.016,57.519,21.791,-73.883
 14:33:37.090,eb:33:2e:f9:57:b5, 2085-97-255 01:196:252:638,0.264,-0.442,0.459,-71.777,63.843,46.387,57.156,21.775,-73.01
 14:33:37.090,eb:33:2e:f9:57:b5, 2085-97-35 02:46:253:144,0.263,-0.369,0.162,-86.365,39.917,45.959,56.646,21.66,-72.274
 14:33:37.150,eb:33:2e:f9:57:b5, 2085-97-244 01:43:253:041,0.225,-0.348,0.031,-104.614,8.667,41.87,55.844,21.418,-71.812
 14:33:37.150,eb:33:2e:f9:57:b5, 2085-97-168 01:241:252:198,0.186,-0.365,0.046,-126.16,-21.545,37.048,54.734,21.044,-71.658
 14:33:37.150,eb:33:2e:f9:57:b5, 2085-97-103 01:167:252:455,0.165,-0.4,0.155,-149.048,-43.457,33.875,53.311,20.555,-71.746
 14:33:37.150,eb:33:2e:f9:57:b5, 2085-97-62 01:114:252:695,0.149,-0.435,0.287,-171.204,-56.458,32.349,51.619,19.984,-71.982
 14:33:37.208,eb:33:2e:f9:57:b5, 2085-97-46 01:88:252:794,0.146,-0.457,0.374,-192.566,-63.66,31.677,49.68,19.352,-72.279
 14:33:37.208,eb:33:2e:f9:57:b5, 2085-97-42 01:120:252:878,0.149,-0.451,0.408,-212.952,-69.763,30.945,47.532,18.677,-72.609
 14:33:37.208,eb:33:2e:f9:57:b5, 2085-97-51 01:151:252:949,0.152,-0.433,0.452,-232.422,-78.125,29.358,45.176,17.952,-72.966
 14:33:37.208,eb:33:2e:f9:57:b5, 2085-97-62 01:182:252:997,0.158,-0.417,0.475,-252.197,-91.125,25.635,42.616,17.15,-73.389
 14:33:37.210,eb:33:2e:f9:57:b5, 2085-97-79 01:190:252:1148,0.172,-0.404,0.51,-273.376,-104.858,21.118,39.82,16.26,-73.905
 14:33:37.210,eb:33:2e:f9:57:b5, 2085-97-118 01:180:252:1424,0.191,-0.409,0.626,-291.748,-116.516,15.93,36.826,15.276,-74.487
 14:33:37.210,eb:33:2e:f9:57:b5, 2085-97-151 01:211:252:1698,0.208,-0.409,0.766,-304.626,-126.953,9.827,33.657,14.205,-75.13
 14:33:37.210,eb:33:2e:f9:57:b5, 2085-97-186 01:248:252:1924,0.221,-0.387,0.884,-313.721,-136.23,3.296,30.399,13.063,-75.817
 14:33:37.269,eb:33:2e:f9:57:b5, 2085-97-207 01:23:253:2151,0.228,-0.37,0.995,-321.045,-145.02,-3.601,27.054,11.832,-76.531
 14:33:37.269,eb:33:2e:f9:57:b5, 2085-97-201 01:40:253:2418,0.208,-0.356,1.111,-328.491,-155.762,-10.498,23.659,10.508,-77.278
 14:33:37.269,eb:33:2e:f9:57:b5, 2085-97-70 01:34:253:2807,0.179,-0.366,1.256,-336.182,-165.405,-13.855,20.187,9.058,-78.036
 14:33:37.269,eb:33:2e:f9:57:b5, 2085-97-48 01:62:253:3231,0.144,-0.355,1.479,-345.276,-170.41,-15.259,16.677,7.515,-78.739
 14:33:37.329,eb:33:2e:f9:57:b5, 2085-97-73 01:148:253:3771,0.152,-0.336,1.683,-352.417,-171.387,-12.756,13.096,5.905,-79.338
 14:33:37.329,eb:33:2e:f9:57:b5, 2085-97-09 01:148:254:4187,0.093,-0.236,1.943,-353.699,-170.41,-10.132,9.514,4.257,-79.81
 14:33:37.329,eb:33:2e:f9:57:b5, 2085-97-120 00:132:255:4660,0.02,-0.123,2.154,-344.116,-170.593,-6.104,5.982,2.576,-80.14
 14:33:37.329,eb:33:2e:f9:57:b5, 2085-97-216 255:12:01:5289,-0.062,0.026,2.427,-321.106,-169.739,3.54,2.653,0.879,-80.299
 14:33:37.331,eb:33:2e:f9:57:b5, 2085-97-50 255:197:02:5363,-0.138,0.245,2.648,-297.424,-163.757,15.869,-0.434,-0.786,-80.25
 14:33:37.331,eb:33:2e:f9:57:b5, 2085-97-171 254:205:03:4999,-0.182,0.417,2.527,-298.462,-163.086,31.433,-3.395,-2.411,-79.975
 14:33:37.333,eb:33:2e:f9:57:b5, 2085-97-151 254:152:04:5026,-0.141,0.526,2.408,-320.679,-163.818,55.298,-6.542,-4.01,-79.409
 14:33:37.333,eb:33:2e:f9:57:b5, 2085-97-100 255:25:06:5384,0.014,0.646,2.551,-341.919,-159.424,83.923,-9.954,-5.526,-78.486
 14:33:37.541,eb:33:2e:f9:57:b5, 2085-97-03 01:217:08:5443,0.244,0.918,2.665,-347.29,-143.799,109.741,-13.579,-6.828,-77.217
 14:33:37.541,eb:33:2e:f9:57:b5, 2085-97-203 02:46:12:5135,0.431,1.311,2.603,-330.811,-132.751,122.681,-17.177,-7.844,-75.712
 14:33:37.541,eb:33:2e:f9:57:b5, 2085-97-199 03:01:15:4510,0.471,1.717,2.374,-293.762,-144.958,116.638,-20.539,-8.773,-74.114
 14:33:37.543,eb:33:2e:f9:57:b5, 2085-97-113 03:126:16:3875,0.065,1.982,2.02,-244.995,-183.411,94.055,-23.478,-9.915,-72.51
 14:33:37.569,eb:33:2e:f9:57:b5, 2085-97-254 251:36:15:2089,-0.906,2.055,1.479,-195.618,-241.76,65.918,-25.972,-11.525,-70.895
 14:33:37.569,eb:33:2e:f9:57:b5, 2085-97-45 247:172:16:2895,-1.526,1.952,0.924,-143.86,-342.041,54.443,-28.054,-13.925,-69.005
 14:33:37.569,eb:33:2e:f9:57:b5, 2085-97-188 241:216:20:4908,-1.847,2.347,1.878,-120.483,-360.779,61.096,-29.96,-16.853,-66.687
 14:33:37.569,eb:33:2e:f9:57:b5, 2085-97-223 241:201:23:5672,-1.551,2.791,2.696,-102.173,-224.06,80.322,-31.767,-19.056,-64.479
 14:33:37.572,eb:33:2e:f9:57:b5, 2085-97-07 246:90:25:5246,-1.117,3.13,2.738,-52.917,-43.274,84.961,-33.047,-19.644,-63.007
 14:33:37.572,eb:33:2e:f9:57:b5, 2085-97-79 250:241:23:4076,-0.57,3.201,2.401,29.48,74.158,53.04,-33.316,-18.995,-62.496
 14:33:37.572,eb:33:2e:f9:57:b5, 2085-97-180 252:97:20:3567,-0.267,2.816,1.771,117.859,125.916,8.85,-32.382,-17.908,-62.831
 14:33:37.572,eb:33:2e:f9:57:b5, 2085-97-143 09:66:228:10747,0.22,2.252,1.749,185.181,23.193,-95.52,-30.602,-16.974,-63.71
 14:33:37.572,eb:33:2e:f9:57:b5, 2085-97-115 11:210:227:-3713,1.895,-1.824,-0.261,118.042,238.281,-38.025,-28.779,-15.617,-65.638
 14:33:37.572,eb:33:2e:f9:57:b5, 2085-97-176 05:206:247:1620,-0.313,-2.688,0.035,278.564,184.937,2.014,-26.466,-14.139,-66.555
 14:33:37.572,eb:33:2e:f9:57:b5, 2085-97-163 250:178:01:1109,-0.771,0.277,0.849,336.365,262.268,-65.918,-22.945,-11.948,-67.846
 14:33:37.572,eb:33:2e:f9:57:b5, 2085-97-243 247:10:253:115,-0.747,-0.24,0.316,318.176,165.771,-53.345,-19.385,-10.206,-69.302
 14:33:37.957,eb:33:2e:f9:57:b5, 2085-97-92 253:251:255:1529,0.01,-0.297,0.203,298.767,8.911,-8.362,-16.205,-9.52,-69.818
 14:33:37.957,eb:33:2e:f9:57:b5, 2085-97-227 254:75:02:2263,-0.028,0.486,1.334,121.765,51.331,-92.102,-5.142,-9.146,-71.988
 14:33:37.957,eb:33:2e:f9:57:b5, 2085-97-34 01:160:255:2186,0.248,0.078,1.027,92.651,33.63,-63.232,-3.961,-8.756,-72.801
 14:33:37.957,eb:33:2e:f9:57:b5, 2085-97-81 02:102:255:2482,0.429,0.289,1.211,67.749,34.302,-32.471,-3.071,-8.448,-73.284
 14:33:37.962,eb:33:2e:f9:57:b5, 2085-97-242 00:202:00:2164,-0.007,0.03,1.232,41.931,66.223,7.019,-2.516,-7.938,-73.378
 14:33:37.962,eb:33:2e:f9:57:b5, 2085-97-67 00:213:00:2011,0.095,0.119,0.974,30.029,66.345,10.437,-2.186,-7.245,-73.284
 14:33:37.962,eb:33:2e:f9:57:b5, 2085-97-110 00:77:00:2001,0.044,0.087,0.98,21.912,57.8,6.531,-1.928,-6.614,-73.218
 14:33:37.962,eb:33:2e:f9:57:b5, 2085-97-123 00:151:00:1995,0.013,0.041,0.975,17.029,50.11,7.629,-1.736,-6.075,-73.163
 14:33:37.964,eb:33:2e:f9:57:b5, 2085-97-246 255:86:00:1926,0.038,0.064,0.949,9.827,36.133,7.019,-1.604,-5.63,-73.098
 14:33:37.964,eb:33:2e:f9:57:b5, 2085-97-92 00:38:00:2019,0.048,0.029,0.979,6.226,22.339,6.47,-1.533,-5.356,-73.037
 14:33:37.964,eb:33:2e:f9:57:b5, 2085-97-109 00:37:00:2037,0.056,0.017,0.99,4.272,16.479,5.92,-1.478,-5.158,-72.977
 14:33:37.964,eb:33:2e:f9:57:b5, 2085-97-113 00:21:00:2046,0.047,0.014,0.998,2.93,14.404,5.249,-1.45,-5.01,-72.927
 14:33:38.019,eb:33:2e:f9:57:b5, 2085-97-84 00:23:00:2027,0.041,0.01,0.995,1.953,13.611,5.371,-1.417,-4.856,-72.872
 14:33:38.019,eb:33:2e:f9:57:b5, 2085-97-84 00:18:00:2029,0.043,0.011,0.99,1.221,11.23,5.188,-1.406,-4.735,-72.823
 14:33:38.019,eb:33:2e:f9:57:b5, 2085-97-89 00:14:00:2035,0.046,0.009,0.994,0.488,9.216,5.005,-1.395,-4.625,-72.773
 14:33:38.019,eb:33:2e:f9:57:b5, 2085-97-102 00:08:00:2050,0.056,0.004,0.996,0.244,7.751,4.456,-1.395,-4.537,-72.729
 14:33:38.021,eb:33:2e:f9:57:b5, 2085-97-118 00:05:00:2063,0.04,0.002,1.005,0.305,8.24,3.906,-1.384,-4.455,-72.691
 14:33:38.021,eb:33:2e:f9:57:b5, 2085-97-171 00:17:00:2049,-0.069,0.01,1.027,10.01,4.517,-3.601,-0.439,-1.121,-72.801
 14:33:38.021,eb:33:2e:f9:57:b5, 2085-97-75 255:114:254:2961,-0.031,-0.038,1.288,20.386,-7.08,-9.216,-0.247,-1.187,-72.856
 14:33:38.021,eb:33:2e:f9:57:b5, 2085-97-211 255:236:255:2249,-0.041,-0.071,1.203,29.175,-0.244,-7.324,0.005,-1.192,-72.938
 14:33:38.169,eb:33:2e:f9:57:b5, 2085-97-174 255:178:255:2306,-0.022,-0.038,1.124,33.081,-2.136,-7.446,0.335,-1.203,-73.015
 14:33:38.169,eb:33:2e:f9:57:b5, 2085-97-203 255:174:255:2356,-0.025,-0.032,1.136,38.208,-4.578,-6.47,0.692,-1.236,-73.087
 14:33:38.169,eb:33:2e:f9:57:b5, 2085-97-194 255:127:255:2414,-0.001,-0.05,1.171,43.884,-6.592,-4.333,1.115,-1.285,-73.141
 14:33:38.169,eb:33:2e:f9:57:b5, 2085-97-218 255:169:255:2369,-0.027,-0.045,1.2,50.293,-6.958,-1.465,1.593,-1.357,-73.174
 14:33:38.169,eb:33:2e:f9:57:b5, 2085-97-208 255:153:255:2416,-0.016,-0.047,1.179,57.007,-10.803,1.526,2.142,-1.439,-73.18
 14:33:38.169,eb:33:2e:f9:57:b5, 2085-97-00 00:170:255:2477,0.02,-0.045,1.182,63.538,-13.428,5.859,2.747,-1.566,-73.147
 14:33:38.169,eb:33:2e:f9:57:b5, 2085-97-87 00:179:255:2593,0.074,-0.041,1.229,71.228,-12.878,9.949,3.428,-1.697,-73.076
 14:33:38.169,eb:33:2e:f9:57:b5, 2085-97-189 00:217:255:2687,0.103,-0.03,1.297,80.017,-6.531,12.939,4.186,-1.807,-72.966
 14:33:38.172,eb:33:2e:f9:57:b5, 2085-97-212 00:228:255:2707,0.102,-0.019,1.312,89.6,3.723,13.916,5.043,-1.824,-72.834
 14:33:38.172,eb:33:2e:f9:57:b5, 2085-97-191 00:169:255:2689,0.051,-0.015,1.326,99.792,14.893,13.855,5.988,-1.736,-72.686
 14:33:38.172,eb:33:2e:f9:57:b5, 2085-97-117 00:109:255:2788,0.107,-0.057,1.335,111.633,20.508,15.015,7.053,-1.571,-72.521
 14:33:38.172,eb:33:2e:f9:57:b5, 2085-97-86 01:187:255:2876,0.218,-0.062,1.386,127.197,28.625,15.808,8.251,-1.351,-72.334
 14:33:38.174,eb:33:2e:f9:57:b5, 2085-97-175 01:01:00:2797,0.162,-0.016,1.408,142.09,42.664,13.184,9.608,-1.011,-72.131
 14:33:38.174,eb:33:2e:f9:57:b5, 2085-97-129 00:209:255:2604,0.03,-0.016,1.312,157.471,49.377,10.071,11.107,-0.566,-71.933
 14:33:38.174,eb:33:2e:f9:57:b5, 2085-97-94 00:96:255:2659,0.067,-0.062,1.285,175.415,44.922,5.371,12.788,-0.11,-71.763
 14:33:38.174,eb:33:2e:f9:57:b5, 2085-97-237 00:218:255:2698,0.169,-0.042,1.292,194.153,41.931,2.136,14.645,0.291,-71.614
 14:33:38.229,eb:33:2e:f9:57:b5, 2085-97-149 01:08:00:2796,0.201,-0.016,1.35,214.478,43.03,-5.92,16.699,0.703,-71.521
 14:33:38.229,eb:33:2e:f9:57:b5, 2085-97-82 01:209:255:2963,0.154,-0.002,1.403,237.732,48.584,-18.433,18.973,1.181,-71.499
 14:33:38.229,eb:33:2e:f9:57:b5, 2085-113-58 00:170:221:060,0.087,-0.066,1.477,263.672,57.983,-29.358,21.495,1.769,-71.548
 14:33:38.229,eb:33:2e:f9:57:b5, 2085-97-34 00:74:255:3378,0.007,-0.071,1.539,277.283,65.674,-32.532,22.852,2.12,-71.57
 14:33:38.259,eb:33:2e:f9:57:b5, 2085-97-77 00:198:255:3459,0.061,-0.085,1.71,304.016,89.172,-34.912,25.774,2.972,-71.559
 14:33:38.259,eb:33:2e:f9:57:b5, 2085-97-75 00:66:01:3555,0.032,0.096,1.654,329.956,97.839,-36.011,28.971,3.988,-71.411
 14:33:38.259,eb:33:2e:f9:57:b5, 2085-97-68 255:170:03:3883,-0.061,0.23,1.839,352.417,94.788,-38.94,32.41,5.01,-71.241
 14:33:38.259,eb:33:2e:f9:57:b5, 2085-97-251 00:194:04:3177,0.116,0.543,1.938,367.065,77.087,-47.852,36.03,5.988,-71.109
 14:33:38.289,eb:33:2e:f9:57:b5, 2085-97-202 00:40:05:3592,0.014,0.762,1.422,381.042,14.465,-63.721,39.771,6.674,-71.263
 14:33:38.289,eb:33:2e:f9:57:b5, 2085-97-170 01:191:03:4714,0.138,0.635,2.119,383.24,-8.24,-77.393,43.522,7.147,-71.829
 14:33:38.289,eb:33:2e:f9:57:b5, 2085-97-10 02:21:05:5643,0.311,0.68,2.506,366.943,14.099,-76.843,47.247,7.674,-72.367
 14:33:38.289,eb:33:2e:f9:57:b5, 2085-113-81 00:87:90:12711,0.342,0.492,2.602,335.999,73.486,-81.177,50.729,8.591,-72.499
 14:33:38.289,eb:33:2e:f9:57:b5, 2085-97-18 03:98:00:4317,0.438,0.297,2.292,319.031,90.21,-82.153,52.372,9.174,-72.427
 14:33:38.349,eb:33:2e:f9:57:b5, 2085-97-34 04:34:251:3521,0.544,-0.241,1.901,276.978,110.535,-82.153,55.41,10.432,-72.065
 14:33:38.349,eb:33:2e:f9:57:b5, 2085-97-177 03:186:249:987,0.371,-1.052,1.363,238.831,143.127,-73.486,58.079,11.777,-71.395
 14:33:38.349,eb:33:2e:f9:57:b5, 2085-97-61 02:59:252:016,0.264,-0.334,-0.007,160.889,114.075,-78.125,60.282,13.063,-70.664
 14:33:38.349,eb:33:2e:f9:57:b5, 2085-97-141 02:45:252:881,0.334,-0.589,0.249,53.345,92.957,-65.613,61.414,14.194,-70.06
 14:33:38.379,eb:33:2e:f9:57:b5, 2085-97-102 02:200:252:1392,0.258,-0.386,0.58,-20.02,46.936,-64.941,61.584,15.079,-69.758
 14:33:38.379,eb:33:2e:f9:57:b5, 2085-97-252 01:173:251:1602,0.247,-0.493,0.745,-60.12,28.687,-62.622,61.133,15.804,-69.769
 14:33:38.379,eb:33:2e:f9:57:b5, 2085-97-241 01:100:252:1465,0.233,-0.503,0.765,-77.148,35.034,-55.237,60.419,16.474,-69.774
 14:33:38.379,eb:33:2e:f9:57:b5, 2085-97-183 01:173:252:1054,0.202,-0.421,0.628,-86.06,36.865,-51.208,59.617,17.111,-69.719
 14:33:38.410,eb:33:2e:f9:57:b5, 2085-97-129 01:155:252:615,0.177,-0.42,0.403,-96.313,28.564,-46.814,58.705,17.704,-69.681
 14:33:38.410,eb:33:2e:f9:57:b5, 2085-97-81 01:139:252:338,0.155,-0.428,0.223,-112.976,14.16,-41.87,57.64,18.188,-69.741
 14:33:38.410,eb:33:2e:f9:57:b5, 2085-97-38 01:97:252:304,0.134,-0.442,0.146,-134.888,-2.075,-35.767,56.327,18.545,-69.917
 14:33:38.410,eb:33:2e:f9:57:b5, 2085-97-05 01:44:252:414,0.122,-0.467,0.17,-158.752,-16.724,-28.992,54.761,18.754,-70.203
 14:33:38.470,eb:33:2e:f9:57:b5, 2085-97-247 00:24:252:514,0.128,-0.484,0.228,-181.946,-27.039,-21.484,52.921,18.825,-70.554
 14:33:38.470,eb:33:2e:f9:57:b5, 2085-97-12 01:36:252:571,0.132,-0.489,0.266,-203.613,-35.706,-14.404,50.861,18.77,-70.944
 14:33:38.470,eb:33:2e:f9:57:b5, 2085-97-34 01:83:252:627,0.147,-0.472,0.295,-223.572,-45.715,-8.301,48.571,18.594,-71.356
 14:33:38.470,eb:33:2e:f9:57:b5, 2085-97-65 01:115:252:693,0.165,-0.45,0.321,-242.188,-59.143,-3.723,46.088,18.281,-71.818
 14:33:38.500,eb:33:2e:f9:57:b5, 2085-97-93 01:140:252:848,0.174,-0.436,0.365,-259.827,-75.989,-0.549,43.396,17.814,-72.345
 14:33:38.500,eb:33:2e:f9:57:b5, 2085-97-106 01:141:252:1114,0.181,-0.429,0.471,-278.137,-94.91,2.441,40.512,17.166,-72.96
 14:33:38.500,eb:33:2e:f9:57:b5, 2085-97-116 01:133:252:1436,0.187,-0.432,0.623,-292.847,-108.032,5.249,37.447,16.348,-73.614
 14:33:38.500,eb:33:2e:f9:57:b5, 2085-97-133 01:149:252:1742,0.195,-0.434,0.779,-306.03,-116.699,8.057,34.266,15.397,-74.262
 14:33:38.529,eb:33:2e:f9:57:b5, 2085-97-165 01:190:252:1973,0.215,-0.419,0.907,-319.397,-121.704,10.62,30.97,14.343,-74.861
 14:33:38.529,eb:33:2e:f9:57:b5, 2085-97-216 01:240:252:2203,0.24,-0.395,1.014,-333.191,-126.404,12.085,27.57,13.211,-75.399
 14:33:38.529,eb:33:2e:f9:57:b5, 2085-97-232 01:57:253:2494,0.249,-0.363,1.143,-345.032,-132.812,12.085,24.055,11.992,-75.883
 14:33:38.529,eb:33:2e:f9:57:b5, 2085-97-232 01:134:253:2837,0.241,-0.333,1.307,-352.966,-141.174,11.414,20.468,10.679,-76.328
 14:33:38.679,eb:33:2e:f9:57:b5, 2085-97-12 02:02:254:3299,0.278,-0.294,1.51,-356.323,-151.123,10.803,16.831,9.256,-76.718
 14:33:38.679,eb:33:2e:f9:57:b5, 2085-97-37 02:118:254:3823,0.241,-0.228,1.753,-353.394,-156.433,11.047,13.233,7.734,-77.036
 14:33:38.679,eb:33:2e:f9:57:b5, 2085-97-224 01:41:255:4334,0.205,-0.151,1.978,-341.064,-159.973,12.817,9.712,6.158,-77.256
 14:33:38.679,eb:33:2e:f9:57:b5, 2085-97-98 01:254:255:4776,0.15,-0.053,2.224,-317.688,-162.292,15.747,6.411,4.543,-77.36
 14:33:38.800,eb:33:2e:f9:57:b5, 2085-97-227 00:16:01:5012,0.078,0.059,2.408,-289.062,-164.856,20.569,3.378,2.889,-77.338
 14:33:38.800,eb:33:2e:f9:57:b5, 2085-97-101 00:141:01:5020,0.019,0.176,2.454,-276.794,-175.171,25.146,0.582,1.187,-77.184
 14:33:38.800,eb:33:2e:f9:57:b5, 2085-97-226 255:43:01:5126,-0.042,0.179,2.464,-289.185,-184.448,34.18,-2.252,-0.626,-76.882
 14:33:38.800,eb:33:2e:f9:57:b5, 2085-97-154 255:153:01:5406,-0.032,0.152,2.572,-309.387,-185.791,52.551,-5.273,-2.455,-76.344
 14:33:38.801,eb:33:2e:f9:57:b5, 2085-97-20 00:52:03:5681,0.062,0.286,2.701,-325.989,-182.373,73.364,-8.531,-4.224,-75.504
 14:33:38.801,eb:33:2e:f9:57:b5, 2085-97-18 01:191:05:5840,0.211,0.546,2.835,-336.792,-166.138,91.431,-11.959,-5.801,-74.383
 14:33:38.801,eb:33:2e:f9:57:b5, 2085-97-105 02:108:09:5546,0.355,0.915,2.806,-338.135,-143.738,101.013,-15.507,-7.081,-73.076
 14:33:38.801,eb:33:2e:f9:57:b5, 2085-97-62 03:149:12:4963,0.439,1.385,2.573,-320.984,-136.169,95.276,-18.995,-8.108,-71.713
 14:33:38.805,eb:33:2e:f9:57:b5, 2085-97-158 02:70:15:4000,-0.022,1.748,2.25,-289.185,-154.236,74.158,-22.247,-9.185,-70.406
 14:33:38.805,eb:33:2e:f9:57:b5, 2085-97-44 253:116:16:2014,-1.01,1.95,1.505,-242.798,-210.571,43.274,-25.126,-10.618,-69.131
 14:33:38.805,eb:33:2e:f9:57:b5, 2085-97-141 244:50:25:1343,-1.626,2.563,0.518,-201.904,-321.35,27.832,-27.625,-12.87,-67.626
 14:33:38.805,eb:33:2e:f9:57:b5, 2085-97-202 241:166:29:4612,-1.703,3.497,1.408,-176.514,-388.611,15.625,-30.015,-16.046,-65.621
 14:33:38.805,eb:33:2e:f9:57:b5, 2085-97-139 243:143:28:6694,-1.375,3.677,2.958,-117.859,-262.573,3.113,-32.058,-18.885,-63.781
 14:33:38.805,eb:33:2e:f9:57:b5, 2085-97-65 247:130:22:6096,-1.14,3.386,3.217,-22.4,-70.129,-8.484,-33.014,-20.215,-62.93
 14:33:38.805,eb:33:2e:f9:57:b5, 2085-97-182 248:97:19:4574,-0.749,2.746,2.645,78.369,75.562,-27.466,-32.569,-20.154,-63.199
 14:33:38.806,eb:33:2e:f9:57:b5, 2085-97-03 252:64:15:3912,-0.251,2.134,2.028,144.348,175.354,-45.532,-31.014,-19.166,-64.314
 14:33:38.808,eb:33:2e:f9:57:b5, 2085-97-134 04:153:239:12213,0.25,1.665,1.787,179.016,224.243,-57.19,-28.861,-17.65,-65.847
 14:33:38.808,eb:33:2e:f9:57:b5, 2085-97-102 05:183:238:-597,1.509,-1.599,0.993,129.15,324.646,-112.488,-26.614,-16.282,-68.126
 14:33:38.808,eb:33:2e:f9:57:b5, 2085-97-185 08:103:243:937,0.266,-2.598,-0.634,211.792,178.711,-14.038,-24.56,-14.216,-69.62
 14:33:38.808,eb:33:2e:f9:57:b5, 2085-97-72 254:242:253:1259,-0.443,-0.896,0.452,293.396,215.21,-9.705,-21.791,-12.404,-70.395
 14:33:39.039,eb:33:2e:f9:57:b5, 2085-97-67 250:107:253:555,-0.691,-0.243,0.462,310.791,181.458,-25.452,-18.517,-10.552,-71.345
 14:33:39.039,eb:33:2e:f9:57:b5, 2085-97-120 251:248:254:948,0.148,-0.382,0.235,298.401,66.162,21.79,-15.392,-9.377,-71.719
 14:33:39.039,eb:33:2e:f9:57:b5, 2085-97-159 04:208:04:4046,0.208,0.7,1.674,259.094,-15.503,19.714,-12.618,-9.261,-71.428
 14:33:39.039,eb:33:2e:f9:57:b5, 2085-97-109 253:112:02:2396,-0.31,0.574,1.75,211.853,86.853,-22.705,-10.278,-8.828,-71.532
 14:33:39.042,eb:33:2e:f9:57:b5, 2085-97-94 253:109:02:2404,-0.27,0.138,1.001,181.58,73.669,-42.908,-8.267,-8.02,-72.037
 14:33:39.042,eb:33:2e:f9:57:b5, 2085-97-125 255:154:01:2299,-0.177,0.529,1.245,144.348,68.665,-65.796,-6.542,-7.405,-72.68
 14:33:39.042,eb:33:2e:f9:57:b5, 2085-97-25 255:58:01:2159,-0.031,0.211,1.035,113.281,65.43,-52.002,-5.191,-6.768,-73.301
 14:33:39.042,eb:33:2e:f9:57:b5, 2085-97-54 00:02:00:2115,0.047,0.092,1.042,91.37,59.692,-38.818,-4.136,-6.18,-73.79
 14:33:39.044,eb:33:2e:f9:57:b5, 2085-97-157 00:130:01:2188,0.196,-0.106,1.023,86.67,56.03,-28.259,-3.214,-5.609,-74.152
 14:33:39.044,eb:33:2e:f9:57:b5, 2085-97-75 02:212:01:2470,0.003,-0.044,1.134,64.697,50.781,2.136,-2.422,-5.131,-74.333
 14:33:39.044,eb:33:2e:f9:57:b5, 2085-97-115 255:86:01:1933,-0.008,0.243,1.017,36.743,72.998,12.268,-1.945,-4.444,-74.246
 14:33:39.045,eb:33:2e:f9:57:b5, 2085-97-247 255:231:00:1932,-0.045,0.132,0.941,24.353,57.068,6.348,-1.648,-3.779,-74.169
 14:33:39.047,eb:33:2e:f9:57:b5, 2085-97-02 00:126:00:1994,0.019,0.071,0.936,14.465,35.217,5.92,-1.456,-3.323,-74.119
 14:33:39.047,eb:33:2e:f9:57:b5, 2085-97-251 255:68:00:2007,0.004,0.045,0.994,7.935,27.527,6.958,-1.357,-3.027,-74.053
 14:33:39.047,eb:33:2e:f9:57:b5, 2085-97-23 00:45:00:2042,0.003,0.028,0.989,4.883,22.217,6.653,-1.291,-2.769,-73.993
 14:33:39.047,eb:33:2e:f9:57:b5, 2085-97-249 255:22:00:2022,-0.005,0.013,0.992,2.686,17.883,7.141,-1.258,-2.571,-73.922
 14:33:39.159,eb:33:2e:f9:57:b5, 2085-97-251 255:17:00:2029,-0.004,0.01,0.989,1.892,12.634,6.653,-1.225,-2.411,-73.856
 14:33:39.159,eb:33:2e:f9:57:b5, 2085-97-245 255:23:00:2027,-0.007,0.01,0.99,1.526,9.094,5.859,-1.214,-2.302,-73.795
 14:33:39.160,eb:33:2e:f9:57:b5, 2085-97-239 255:14:00:2024,-0.008,0.008,0.991,1.038,5.432,5.31,-1.192,-2.225,-73.74
 14:33:39.160,eb:33:2e:f9:57:b5, 2085-97-250 255:15:00:2034,0,0.006,0.989,1.16,1.648,4.089,-1.181,-2.192,-73.696
 14:33:39.162,eb:33:2e:f9:57:b5, 2085-97-11 00:11:00:2050,0.004,0.007,0.997,1.099,-0.061,3.235,-1.159,-2.175,-73.658
 14:33:39.162,eb:33:2e:f9:57:b5, 2085-97-08 00:00:00:2056,0.01,-0.001,1.001,2.319,1.343,1.16,-1.066,-2.109,-73.575
 14:33:39.162,eb:33:2e:f9:57:b5, 2085-97-32 00:00:00:2080,0.017,0,1.011,2.808,3.479,1.099,-1.027,-2.076,-73.564
 14:33:39.163,eb:33:2e:f9:57:b5, 2085-97-28 00:06:00:2073,0.014,0.004,1.014,2.991,7.935,1.16,-1,-2.016,-73.553
 14:33:39.165,eb:33:2e:f9:57:b5, 2085-97-30 00:10:00:2079,0.016,0.005,1.013,2.991,11.719,1.282,-0.961,-1.906,-73.542
 14:33:39.165,eb:33:2e:f9:57:b5, 2085-97-27 00:12:00:2079,0.01,0.006,1.016,2.808,16.541,1.404,-0.928,-1.763,-73.531
 14:33:39.165,eb:33:2e:f9:57:b5, 2085-97-16 00:14:00:2076,0.001,0.006,1.015,2.563,21.545,1.831,-0.895,-1.56,-73.515
 14:33:39.165,eb:33:2e:f9:57:b5, 2085-97-249 255:11:00:2062,-0.004,0.007,1.009,2.502,24.963,2.441,-0.868,-1.324,-73.493
 14:33:39.165,eb:33:2e:f9:57:b5, 2085-97-251 255:08:00:2074,-0.009,0.005,1.008,2.38,26.794,3.54,-0.835,-1.055,-73.466
 14:33:39.165,eb:33:2e:f9:57:b5, 2085-97-244 255:13:00:2068,-0.023,0.006,1.008,2.38,29.419,4.578,-0.807,-0.775,-73.427
 14:33:39.165,eb:33:2e:f9:57:b5, 2085-97-191 255:01:00:2023,-0.005,0.003,1,2.502,30.273,5.554,-0.775,-0.461,-73.378
 14:33:39.165,eb:33:2e:f9:57:b5, 2085-97-148 255:07:00:1999,-0.033,0.028,1.004,2.563,27.222,4.517,-0.747,-0.181,-73.323
 14:33:39.167,eb:33:2e:f9:57:b5, 2085-97-170 255:30:00:2025,-0.05,0.011,0.99,2.93,21.606,3.967,-0.709,0.071,-73.284
 14:33:39.167,eb:33:2e:f9:57:b5, 2085-97-156 255:26:00:2025,-0.051,0.003,0.984,3.418,16.235,2.808,-0.676,0.253,-73.251
 14:33:39.167,eb:33:2e:f9:57:b5, 2085-97-145 255:24:00:2021,-0.047,0.011,0.989,3.967,12.329,1.404,-0.637,0.406,-73.235
 14:33:39.167,eb:33:2e:f9:57:b5, 2085-97-161 255:33:00:2032,-0.048,0.013,0.993,4.272,8.301,0.427,-0.593,0.505,-73.224
 14:33:39.308,eb:33:2e:f9:57:b5, 2085-97-167 255:24:00:2046,-0.039,0.013,0.994,4.578,5.859,-0.549,-0.538,0.582,-73.229
 14:33:39.308,eb:33:2e:f9:57:b5, 2085-97-195 255:35:00:2066,-0.017,0.016,1.003,5.127,4.395,-1.099,-0.489,0.632,-73.235
 14:33:39.308,eb:33:2e:f9:57:b5, 2085-97-227 255:38:00:2088,-0.031,0.021,1.017,6.348,3.784,-2.197,-0.423,0.681,-73.251
 14:33:39.308,eb:33:2e:f9:57:b5, 2085-97-186 255:29:00:2109,-0.034,0.015,1.015,7.263,4.15,-2.869,-0.352,0.72,-73.279
 14:33:39.489,eb:33:2e:f9:57:b5, 2085-97-189 255:23:00:2128,-0.032,0.012,1.04,6.897,5.981,-3.906,-0.269,0.78,-73.317
 14:33:39.489,eb:33:2e:f9:57:b5, 2085-97-185 255:35:00:2088,-0.032,0.014,1.029,6.531,8.301,-4.456,-0.203,0.851,-73.361
 14:33:39.489,eb:33:2e:f9:57:b5, 2085-97-203 255:31:00:2078,0.005,0.017,1.019,7.263,7.751,-4.395,-0.126,0.939,-73.405
 14:33:39.489,eb:33:2e:f9:57:b5, 2085-97-95 00:254:255:2088,-0.068,0.009,1.002,14.221,-4.333,-3.784,-0.027,0.972,-73.449
 14:33:39.492,eb:33:2e:f9:57:b5, 2085-97-124 255:231:255:2223,-0.088,-0.004,1.083,20.813,-9.827,-1.953,0.187,0.862,-73.471
 14:33:39.492,eb:33:2e:f9:57:b5, 2085-97-174 254:159:255:2559,-0.056,-0.05,1.173,23.804,-8.423,-2.075,0.406,0.764,-73.493
 14:33:39.492,eb:33:2e:f9:57:b5, 2085-97-152 255:210:255:2385,-0.05,-0.047,1.196,26.489,-2.563,-5.676,0.659,0.736,-73.542
 14:33:39.492,eb:33:2e:f9:57:b5, 2085-97-165 255:206:255:2365,-0.055,-0.019,1.15,29.907,-1.465,-5.615,0.945,0.72,-73.603
 14:33:39.549,eb:33:2e:f9:57:b5, 2085-97-147 255:210:255:2320,-0.057,-0.026,1.143,33.813,-1.038,-4.028,1.274,0.72,-73.652
 14:33:39.549,eb:33:2e:f9:57:b5, 2085-97-120 255:219:255:2267,-0.077,-0.016,1.113,37.415,-1.953,-1.709,1.631,0.709,-73.68
 14:33:39.549,eb:33:2e:f9:57:b5, 2085-97-90 255:198:255:2294,-0.08,-0.021,1.105,41.199,-5.249,1.404,2.032,0.681,-73.685
 14:33:39.549,eb:33:2e:f9:57:b5, 2085-97-104 255:182:255:2348,-0.06,-0.034,1.133,45.959,-9.216,5.493,2.472,0.604,-73.652
 14:33:39.552,eb:33:2e:f9:57:b5, 2085-97-178 255:180:255:2455,-0.013,-0.034,1.162,52.124,-12.207,10.803,2.977,0.494,-73.575
 14:33:39.552,eb:33:2e:f9:57:b5, 2085-97-46 00:167:255:2654,0.057,-0.037,1.245,58.96,-10.498,15.198,3.532,0.368,-73.449
 14:33:39.552,eb:33:2e:f9:57:b5, 2085-97-172 00:169:255:2879,0.104,-0.045,1.35,67.688,-1.038,19.287,4.18,0.302,-73.279
 14:33:39.552,eb:33:2e:f9:57:b5, 2085-97-205 00:149:255:2937,0.072,-0.035,1.432,78.003,15.381,21.667,4.911,0.357,-73.065
 14:33:39.610,eb:33:2e:f9:57:b5, 2085-97-207 00:98:255:3068,0.158,-0.075,1.46,90.332,31.128,23.865,5.768,0.582,-72.812
 14:33:39.610,eb:33:2e:f9:57:b5, 2085-97-99 01:247:255:2891,0.121,-0.048,1.491,102.722,54.871,25.513,6.746,0.983,-72.51
 14:33:39.610,eb:33:2e:f9:57:b5, 2085-97-56 00:157:255:2730,-0.026,-0.009,1.36,115.906,68.726,21.606,7.855,1.593,-72.191
 14:33:39.610,eb:33:2e:f9:57:b5, 2085-97-227 255:134:255:2707,0.054,-0.076,1.33,131.47,67.322,20.508,9.108,2.236,-71.878
 14:33:39.612,eb:33:2e:f9:57:b5, 2085-97-225 00:192:255:2781,0.077,-0.026,1.318,148.804,60.181,16.724,10.541,2.834,-71.576
 14:33:39.612,eb:33:2e:f9:57:b5, 2085-113-58 00:141:220:-390,0.022,0.694,1.773,399.353,60.547,-108.826,34.612,10.97,-71.576
 14:33:39.612,eb:33:2e:f9:57:b5, 2085-97-184 00:96:06:3790,-0.038,0.983,1.708,407.104,30.457,-122.925,36.562,11.486,-71.922
 14:33:39.612,eb:33:2e:f9:57:b5, 2085-97-240 255:33:09:4128,0.155,0.869,1.888,420.166,-23.56,-130.554,40.512,12.288,-72.933
 14:33:39.614,eb:33:2e:f9:57:b5, 2085-97-246 01:229:04:5739,0.303,0.973,2.414,391.541,-57.678,-154.724,44.297,12.892,-74.399
 14:33:39.614,eb:33:2e:f9:57:b5, 2085-97-102 03:28:03:5156,0.514,0.533,2.75,336.426,18.799,-157.959,47.615,13.92,-75.624
 14:33:39.614,eb:33:2e:f9:57:b5, 2085-97-98 04:204:253:4219,0.558,0.083,2.309,288.391,71.472,-161.804,50.548,15.458,-76.328
 14:33:39.615,eb:33:2e:f9:57:b5, 2085-97-198 04:172:247:3151,0.43,-0.585,1.849,242.859,119.751,-153.687,53.113,17.309,-76.52
 14:33:39.615,eb:33:2e:f9:57:b5, 2085-97-55 02:109:251:186,0.232,-1.002,0.735,216.736,120.605,-129.7,55.497,19.204,-76.251
 14:33:39.615,eb:33:2e:f9:57:b5, 2085-97-140 01:37:251:074,0.191,-0.496,-0.072,125.671,87.769,-113.342,57.261,20.77,-76.08
 14:33:39.615,eb:33:2e:f9:57:b5, 2085-97-172 01:98:251:698,0.164,-0.619,0.198,31.128,52.063,-89.844,58.002,21.995,-75.998
 14:33:39.615,eb:33:2e:f9:57:b5, 2085-97-248 00:193:250:1080,0.065,-0.586,0.438,-31.067,10.071,-72.632,57.865,22.819,-76.201
 14:33:39.669,eb:33:2e:f9:57:b5, 2085-97-109 00:83:250:1334,0.053,-0.701,0.604,-63.965,-3.418,-51.819,57.217,23.34,-76.553
 14:33:39.669,eb:33:2e:f9:57:b5, 2085-97-108 00:217:250:1184,0.049,-0.685,0.629,-79.651,4.639,-28.809,56.387,23.676,-76.783
 14:33:39.669,eb:33:2e:f9:57:b5, 2085-97-86 00:110:251:869,0.041,-0.601,0.505,-89.539,11.719,-10.193,55.519,23.873,-76.816
 14:33:39.669,eb:33:2e:f9:57:b5, 2085-97-87 00:182:251:587,0.051,-0.553,0.345,-99.426,9.583,4.456,54.602,23.956,-76.729
 14:33:39.669,eb:33:2e:f9:57:b5, 2085-113-81 00:08:80:15189,0.063,-0.518,0.241,-113.22,0.488,16.907,53.58,23.89,-76.624
 14:33:39.698,eb:33:2e:f9:57:b5, 2085-97-146 00:23:252:390,0.076,-0.504,0.212,-121.399,-5.432,22.522,52.998,23.802,-76.575
 14:33:39.698,eb:33:2e:f9:57:b5, 2085-97-167 00:70:252:377,0.092,-0.478,0.179,-139.16,-21.118,31.25,51.713,23.494,-76.52
 14:33:39.698,eb:33:2e:f9:57:b5, 2085-97-203 00:118:252:482,0.104,-0.454,0.207,-158.508,-43.091,37.964,50.191,23.022,-76.564
 14:33:39.698,eb:33:2e:f9:57:b5, 2085-97-227 00:130:252:681,0.12,-0.439,0.281,-175.11,-62.927,41.809,48.45,22.363,-76.745
 14:33:39.760,eb:33:2e:f9:57:b5, 2085-97-06 01:130:252:881,0.134,-0.436,0.381,-190.247,-78.918,44.556,46.505,21.555,-77.014
 14:33:39.760,eb:33:2e:f9:57:b5, 2085-97-26 01:141:252:1046,0.138,-0.434,0.472,-204.407,-91.37,46.753,44.407,20.627,-77.344
 14:33:39.760,eb:33:2e:f9:57:b5, 2085-97-35 01:162:252:1177,0.147,-0.426,0.544,-219.482,-101.013,48.035,42.149,19.6,-77.701
 14:33:39.760,eb:33:2e:f9:57:b5, 2085-97-53 01:204:252:1337,0.156,-0.413,0.614,-235.901,-108.582,48.401,39.749,18.49,-78.069
 14:33:40.059,eb:33:2e:f9:57:b5, 2085-97-79 01:05:253:1473,0.173,-0.392,0.683,-253.418,-115.356,47.119,37.172,17.314,-78.426
 14:33:40.059,eb:33:2e:f9:57:b5, 2085-97-121 01:44:253:1646,0.204,-0.362,0.763,-271.423,-122.192,44.25,34.431,16.084,-78.788
 14:33:40.059,eb:33:2e:f9:57:b5, 2085-97-189 01:85:253:1844,0.23,-0.345,0.853,-287.72,-129.822,39.429,31.514,14.799,-79.156
 14:33:40.059,eb:33:2e:f9:57:b5, 2085-97-236 01:145:253:2042,0.247,-0.321,0.95,-300.537,-139.587,32.715,28.471,13.458,-79.557
 14:33:40.061,eb:33:2e:f9:57:b5, 2085-97-252 01:211:253:2262,0.245,-0.287,1.049,-309.631,-153.137,24.475,25.302,12.019,-79.997
 14:33:40.063,eb:33:2e:f9:57:b5, 2085-97-230 01:232:253:2560,0.178,-0.262,1.171,-315.857,-167.847,16.602,22.072,10.464,-80.491
 14:33:40.063,eb:33:2e:f9:57:b5, 2085-97-65 01:245:253:2981,0.167,-0.257,1.345,-320.679,-177.185,12.451,18.787,8.789,-80.997
 14:33:40.063,eb:33:2e:f9:57:b5, 2085-97-67 01:171:253:3395,0.149,-0.285,1.562,-324.158,-182.068,12.634,15.502,7.031,-81.436
 14:33:40.063,eb:33:2e:f9:57:b5, 2085-97-12 01:255:253:3835,0.129,-0.278,1.758,-324.28,-182.8,16.418,12.2,5.219,-81.76
 14:33:40.063,eb:33:2e:f9:57:b5, 2085-97-252 00:150:254:4256,0.102,-0.22,1.972,-317.566,-179.443,22.4,8.976,3.406,-81.925
 14:33:40.063,eb:33:2e:f9:57:b5, 2085-97-187 00:111:255:4728,0.064,-0.125,2.186,-304.016,-175.537,29.419,5.85,1.609,-81.914
 14:33:40.063,eb:33:2e:f9:57:b5, 2085-97-57 00:213:00:5114,-0.003,0,2.414,-288.33,-171.021,37.231,2.9,-0.132,-81.733
 14:33:40.065,eb:33:2e:f9:57:b5, 2085-97-206 255:55:02:5249,-0.038,0.193,2.541,-283.203,-167.664,45.288,0.038,-1.846,-81.376
 14:33:40.065,eb:33:2e:f9:57:b5, 2085-97-170 255:108:03:5338,-0.052,0.353,2.582,-291.321,-161.072,55.054,-2.856,-3.483,-80.848
 14:33:40.065,eb:33:2e:f9:57:b5, 2085-97-152 255:224:04:5430,-0.034,0.515,2.635,-303.955,-156.921,66.345,-5.911,-5.026,-80.129
 14:33:40.065,eb:33:2e:f9:57:b5, 2085-97-00 00:201:06:5404,0.045,0.722,2.649,-315.186,-154.419,78.979,-9.108,-6.482,-79.211
 14:33:40.090,eb:33:2e:f9:57:b5, 2085-97-186 00:30:09:5203,0.132,0.988,2.599,-322.937,-151.672,90.759,-12.464,-7.839,-78.091
 14:33:40.090,eb:33:2e:f9:57:b5, 2085-97-78 01:134:11:4883,0.155,1.294,2.468,-322.998,-153.992,96.985,-15.897,-9.097,-76.794
 14:33:40.090,eb:33:2e:f9:57:b5, 2085-97-65 254:132:12:3660,-0.521,1.598,2.259,-309.509,-168.213,96.741,-19.319,-10.344,-75.377
 14:33:40.090,eb:33:2e:f9:57:b5, 2085-97-111 250:56:14:2713,-0.862,1.571,1.468,-267.822,-238.22,94.238,-22.511,-11.937,-73.746
 14:33:40.478,eb:33:2e:f9:57:b5, 2085-97-211 245:153:21:3092,0.785,2.134,1.481,-234.436,-284.973,100.342,-25.455,-14.035,-71.719
 14:33:40.478,eb:33:2e:f9:57:b5, 2085-97-236 04:139:04:3934,-0.074,0.727,2.146,238.953,-14.099,17.639,-9.926,-10.031,-74.564
 14:33:40.478,eb:33:2e:f9:57:b5, 2085-97-24 253:231:02:2339,-0.215,0.564,1.555,197.815,82.458,-23.743,-7.734,-9.509,-74.691
 14:33:40.478,eb:33:2e:f9:57:b5, 2085-97-170 255:49:02:2459,0.094,0.384,1.247,165.405,62.073,-45.41,-5.861,-8.833,-75.125
 14:33:40.480,eb:33:2e:f9:57:b5, 2085-97-96 00:215:00:2257,-0.156,0.125,1.151,139.771,55.359,-49.866,-4.274,-8.289,-75.69
 14:33:40.480,eb:33:2e:f9:57:b5, 2085-97-199 254:50:04:2134,-0.097,0.31,1.075,120.605,51.025,-51.697,-2.895,-7.784,-76.207
 14:33:40.480,eb:33:2e:f9:57:b5, 2085-97-122 02:235:01:2447,0.252,0.216,1.046,75.928,39.734,-29.785,-1.84,-7.355,-76.701
 14:33:40.480,eb:33:2e:f9:57:b5, 2085-97-234 255:73:01:1971,-0.097,0.261,1.156,30.273,56.03,7.69,-1.346,-6.883,-76.756
 14:33:40.482,eb:33:2e:f9:57:b5, 2085-97-228 255:151:00:1895,0.05,0.094,0.88,18.982,33.203,4.395,-1.115,-6.405,-76.696
 14:33:40.482,eb:33:2e:f9:57:b5, 2085-97-154 00:57:00:2049,0.076,0.042,0.976,13.245,18.433,5.798,-0.967,-6.18,-76.646
 14:33:40.482,eb:33:2e:f9:57:b5, 2085-97-158 00:101:00:2044,0.077,0.045,0.993,11.719,20.996,3.357,-0.835,-5.971,-76.602
 14:33:40.482,eb:33:2e:f9:57:b5, 2085-97-126 00:73:00:2028,0.053,0.046,1.001,7.324,21.973,3.784,-0.747,-5.751,-76.569
 14:33:40.485,eb:33:2e:f9:57:b5, 2085-97-111 00:55:00:2026,0.059,0.031,0.984,4.883,18.005,3.723,-0.681,-5.543,-76.531
 14:33:40.485,eb:33:2e:f9:57:b5, 2085-97-118 00:54:00:2032,0.057,0.027,0.993,3.601,13.428,2.93,-0.648,-5.389,-76.498
 14:33:40.485,eb:33:2e:f9:57:b5, 2085-97-122 00:41:00:2048,0.062,0.023,0.997,2.197,10.376,2.38,-0.61,-5.262,-76.476
 14:33:40.485,eb:33:2e:f9:57:b5, 2085-97-124 00:35:00:2056,0.06,0.019,1.002,1.221,10.315,2.38,-0.599,-5.158,-76.454
 14:33:40.487,eb:33:2e:f9:57:b5, 2085-97-123 00:30:00:2058,0.064,0.017,1.004,0.427,11.597,2.625,-0.582,-5.037,-76.426
 14:33:40.487,eb:33:2e:f9:57:b5, 2085-97-126 00:27:00:2062,0.059,0.014,1.009,-0.244,13.428,3.174,-0.582,-4.916,-76.399
 14:33:40.487,eb:33:2e:f9:57:b5, 2085-97-121 00:24:00:2062,0.059,0.012,1.006,-0.671,15.564,4.028,-0.582,-4.757,-76.36
 14:33:40.487,eb:33:2e:f9:57:b5, 2085-97-119 00:18:00:2063,0.057,0.011,1.006,-0.977,17.273,4.7,-0.593,-4.592,-76.317
 14:33:40.538,eb:33:2e:f9:57:b5, 2085-97-110 00:25:00:2054,0,0.009,1.007,-1.16,19.043,5.493,-0.599,-4.4,-76.267
 14:33:40.538,eb:33:2e:f9:57:b5, 2085-97-10 00:35:00:2055,0.001,0.017,1,3.662,3.54,-1.343,-0.308,-1.818,-75.938
 14:33:40.538,eb:33:2e:f9:57:b5, 2085-97-05 00:38:00:2054,0.001,0.018,1.003,3.967,3.052,-2.136,-0.258,-1.78,-75.954
 14:33:40.538,eb:33:2e:f9:57:b5, 2085-97-15 00:43:00:2060,0.011,0.02,1.001,4.395,2.136,-3.052,-0.22,-1.752,-75.981
 14:33:40.540,eb:33:2e:f9:57:b5, 2085-97-38 00:42:00:2107,0.029,0.019,1.012,5.066,2.014,-3.479,-0.159,-1.719,-76.02
 14:33:40.540,eb:33:2e:f9:57:b5, 2085-97-57 00:36:00:2160,0.02,0.018,1.054,5.127,4.333,-4.211,-0.104,-1.692,-76.058
 14:33:40.540,eb:33:2e:f9:57:b5, 2085-97-21 00:36:00:2108,0.006,0.018,1.039,4.517,7.874,-4.456,-0.049,-1.615,-76.102
 14:33:40.540,eb:33:2e:f9:57:b5, 2085-97-12 00:35:00:2095,0.002,0.017,1.022,3.845,9.521,-3.845,-0.005,-1.527,-76.146
 14:33:40.599,eb:33:2e:f9:57:b5, 2085-97-27 00:35:00:2120,0.009,0.017,1.018,3.479,9.827,-2.991,0.044,-1.417,-76.179
 14:33:40.599,eb:33:2e:f9:57:b5, 2085-97-34 00:18:00:2148,-0.001,0.017,1.034,3.296,10.742,-1.526,0.077,-1.313,-76.196
 14:33:40.599,eb:33:2e:f9:57:b5, 2085-97-169 255:38:254:2937,-0.115,-0.024,1.091,7.08,7.751,0.305,0.132,-1.203,-76.201
 14:33:40.599,eb:33:2e:f9:57:b5, 2085-97-126 00:16:00:2345,0.019,-0.188,1.442,23.56,7.874,6.226,0.302,-1.143,-76.152
 14:33:40.689,eb:33:2e:f9:57:b5, 2085-97-208 255:100:255:2534,-0.029,0.011,1.141,31.067,0.732,0.854,0.599,-1.099,-76.119
 14:33:40.689,eb:33:2e:f9:57:b5, 2085-97-153 255:94:255:2451,-0.064,-0.078,1.206,38.452,-1.831,4.211,0.945,-1.099,-76.097
 14:33:40.689,eb:33:2e:f9:57:b5, 2085-97-101 255:60:255:2540,-0.053,-0.092,1.217,46.814,-8.606,8.484,1.384,-1.154,-76.036
 14:33:40.689,eb:33:2e:f9:57:b5, 2085-97-196 255:79:255:2597,0,-0.102,1.264,56.519,-12.817,12.573,1.901,-1.269,-75.932
 14:33:40.720,eb:33:2e:f9:57:b5, 2085-97-49 00:125:255:2658,0.057,-0.074,1.278,66.101,-14.954,15.564,2.527,-1.406,-75.8
 14:33:40.720,eb:33:2e:f9:57:b5, 2085-97-154 00:155:255:2720,0.082,-0.055,1.316,75.439,-11.353,17.029,3.23,-1.549,-75.646
 14:33:40.720,eb:33:2e:f9:57:b5, 2085-97-193 00:134:255:2805,0.115,-0.052,1.341,85.022,-2.197,18.555,4.043,-1.626,-75.471
 14:33:40.720,eb:33:2e:f9:57:b5, 2085-97-227 00:116:255:2858,0.115,-0.064,1.382,95.337,11.841,21.118,4.944,-1.593,-75.273
 14:33:40.748,eb:33:2e:f9:57:b5, 2085-97-63 01:97:255:3034,0.205,-0.094,1.458,107.117,27.344,24.353,5.96,-1.406,-75.026
 14:33:40.748,eb:33:2e:f9:57:b5, 2085-97-243 01:245:255:2853,0.206,-0.032,1.44,119.873,49.561,22.278,7.097,-1.044,-74.74
 14:33:40.748,eb:33:2e:f9:57:b5, 2085-97-47 01:169:255:2761,0.115,-0.011,1.361,132.874,63.171,16.785,8.366,-0.489,-74.46
 14:33:40.748,eb:33:2e:f9:57:b5, 2085-97-15 01:186:255:2724,0.184,-0.036,1.342,148.254,65.369,13.062,9.778,0.126,-74.207
 14:33:40.752,eb:33:2e:f9:57:b5, 2085-97-170 01:168:255:2877,0.25,-0.046,1.371,165.1,65.063,6.348,11.36,0.742,-73.993
 14:33:40.752,eb:33:2e:f9:57:b5, 2085-97-55 02:151:255:3000,0.267,-0.051,1.448,184.143,75.806,-2.258,13.118,1.428,-73.823
 14:33:40.752,eb:33:2e:f9:57:b5, 2085-97-02 02:16:255:3079,0.212,-0.066,1.472,208.557,88.074,-12.207,15.101,2.258,-73.685
 14:33:40.752,eb:33:2e:f9:57:b5, 2085-97-162 01:153:254:3198,0.19,-0.136,1.509,235.718,95.947,-21.118,17.336,3.192,-73.581
 14:33:40.810,eb:33:2e:f9:57:b5, 2085-97-121 01:184:254:3368,0.188,-0.184,1.607,267.761,107.117,-30.64,19.88,4.241,-73.499
 14:33:40.810,eb:33:2e:f9:57:b5, 2085-97-47 02:150:00:3171,0.335,-0.043,1.614,302.063,116.76,-42.236,22.753,5.444,-73.411
 14:33:40.811,eb:33:2e:f9:57:b5, 2085-97-22 02:103:01:3332,0.197,0.147,1.594,331.787,100.159,-62.805,25.944,6.652,-73.433
 14:33:40.811,eb:33:2e:f9:57:b5, 2085-97-154 01:156:02:3574,0.187,0.27,1.761,353.943,93.079,-84.595,29.361,7.839,-73.658
 14:33:40.840,eb:33:2e:f9:57:b5, 2085-97-209 00:24:05:3235,-0.087,0.591,1.549,371.338,67.2,-104.065,32.943,9.053,-74.015
 14:33:40.840,eb:33:2e:f9:57:b5, 2085-97-226 254:235:01:4277,-0.104,0.411,1.844,388.367,38.452,-115.051,36.667,10.091,-74.674
 14:33:40.840,eb:33:2e:f9:57:b5, 2085-97-67 00:36:06:5247,0.174,0.502,2.302,391.235,49.561,-109.68,40.479,11.151,-75.24
 14:33:40.840,eb:33:2e:f9:57:b5, 2085-97-234 01:97:05:5082,0.294,0.87,2.583,364.99,66.406,-120.789,44.182,12.36,-75.712
 14:33:40.869,eb:33:2e:f9:57:b5, 2085-97-00 03:250:00:4440,0.468,0.391,2.316,322.876,98.755,-121.155,47.543,13.826,-75.948
 14:33:40.869,eb:33:2e:f9:57:b5, 2085-97-93 04:123:253:3623,0.629,-0.094,1.996,278.259,125.061,-116.394,50.559,15.469,-75.85
 14:33:40.869,eb:33:2e:f9:57:b5, 2085-97-128 05:250:244:2256,0.399,-0.727,1.506,241.821,141.357,-106.384,53.24,17.177,-75.449
 14:33:40.869,eb:33:2e:f9:57:b5, 2085-97-231 01:57:250:-759,0.174,-1.051,0.082,205.017,104.797,-70.862,55.701,18.627,-74.85
 14:33:40.900,eb:33:2e:f9:57:b5, 2085-97-170 01:128:249:-015,0.244,-0.789,-0.283,88.318,78.857,-32.288,57.272,19.539,-74.361
 14:33:40.900,eb:33:2e:f9:57:b5, 2085-97-232 01:83:251:936,0.223,-0.683,0.229,-0.366,34.607,-6.47,57.772,19.968,-73.96
 14:33:40.900,eb:33:2e:f9:57:b5, 2085-97-147 01:51:251:1591,0.185,-0.577,0.677,-48.218,4.822,9.338,57.513,20.028,-73.806
 14:33:40.900,eb:33:2e:f9:57:b5, 2085-97-114 01:204:251:1563,0.162,-0.58,0.812,-63.416,2.625,22.949,56.97,19.896,-73.702
 14:33:40.959,eb:33:2e:f9:57:b5, 2085-97-61 01:128:252:1102,0.141,-0.46,0.652,-67.871,5.005,29.48,56.371,19.698,-73.51
 14:33:40.960,eb:33:2e:f9:57:b5, 2085-97-01 01:164:252:701,0.109,-0.423,0.427,-74.097,-1.526,31.677,55.728,19.451,-73.317
 14:33:40.960,eb:33:2e:f9:57:b5, 2085-97-194 00:196:252:530,0.08,-0.412,0.293,-84.839,-16.296,31.372,54.954,19.138,-73.213
 14:33:40.960,eb:33:2e:f9:57:b5, 2085-97-129 00:191:252:497,0.049,-0.402,0.24,-101.135,-33.325,28.687,54.009,18.743,-73.268
 14:33:41.019,eb:33:2e:f9:57:b5, 2085-97-72 00:146:252:578,0.025,-0.416,0.259,-122.131,-47.729,25.391,52.817,18.281,-73.46
 14:33:41.021,eb:33:2e:f9:57:b5, 2085-97-38 00:90:252:705,0.016,-0.444,0.315,-146.118,-56.213,22.949,51.372,17.77,-73.757
 14:33:41.021,eb:33:2e:f9:57:b5, 2085-97-35 00:66:252:832,0.023,-0.463,0.379,-170.654,-60.181,21.301,49.664,17.232,-74.097
 14:33:41.021,eb:33:2e:f9:57:b5, 2085-97-64 00:70:252:892,0.04,-0.468,0.425,-194.092,-64.697,19.287,47.725,16.672,-74.46
 14:33:41.620,eb:33:2e:f9:57:b5, 2085-97-98 00:89:252:946,0.057,-0.462,0.446,-216.675,-72.327,16.663,45.538,16.073,-74.866
 14:33:41.620,eb:33:2e:f9:57:b5, 2085-97-135 00:102:252:1082,0.073,-0.453,0.487,-237.915,-82.825,13.855,43.127,15.414,-75.333
 14:33:41.620,eb:33:2e:f9:57:b5, 2085-97-161 00:110:252:1282,0.088,-0.449,0.577,-257.751,-94.604,10.498,40.49,14.678,-75.872
 14:33:41.620,eb:33:2e:f9:57:b5, 2085-97-193 00:108:252:1508,0.102,-0.447,0.683,-276.855,-104.614,6.897,37.656,13.848,-76.47
 14:33:41.620,eb:33:2e:f9:57:b5, 2085-97-230 00:116:252:1729,0.125,-0.447,0.791,-294.006,-111.511,3.54,34.634,12.947,-77.102
 14:33:41.620,eb:33:2e:f9:57:b5, 2085-97-28 01:131:252:1957,0.149,-0.438,0.899,-307.312,-116.943,0.183,31.481,11.986,-77.745
 14:33:41.620,eb:33:2e:f9:57:b5, 2085-97-75 01:201:252:2189,0.174,-0.423,1.013,-315.613,-123.291,-3.662,28.218,10.959,-78.387
 14:33:41.620,eb:33:2e:f9:57:b5, 2085-97-125 01:20:253:2428,0.191,-0.38,1.124,-320.618,-130.859,-8.057,24.917,9.855,-79.041
 14:33:41.623,eb:33:2e:f9:57:b5, 2085-97-46 01:158:253:2762,0.168,-0.341,1.261,-325.195,-140.381,-12.939,21.566,8.652,-79.695
 14:33:41.623,eb:33:2e:f9:57:b5, 2085-97-93 01:101:253:3081,0.184,-0.319,1.423,-330.261,-148.804,-15.625,18.199,7.35,-80.349
 14:33:41.623,eb:33:2e:f9:57:b5, 2085-97-109 01:164:253:3404,0.169,-0.322,1.573,-335.388,-156.677,-16.968,14.777,5.927,-80.969
 14:33:41.623,eb:33:2e:f9:57:b5, 2085-97-95 01:244:253:3866,0.158,-0.274,1.762,-335.938,-161.316,-15.93,11.365,4.417,-81.508
 14:33:41.741,eb:33:2e:f9:57:b5, 2085-97-50 01:126:254:4355,0.121,-0.235,1.984,-327.087,-166.992,-15.32,7.998,2.834,-81.958
 14:33:41.741,eb:33:2e:f9:57:b5, 2085-97-177 00:103:255:4918,0.043,-0.134,2.271,-307.007,-173.279,-13.245,4.818,1.159,-82.31
 14:33:41.741,eb:33:2e:f9:57:b5, 2085-97-244 255:117:00:5255,-0.07,-0.014,2.524,-286.987,-178.589,-6.409,1.846,-0.588,-82.529
 14:33:41.741,eb:33:2e:f9:57:b5, 2085-97-14 255:209:00:5128,-0.167,0.088,2.534,-287.109,-185.608,4.089,-0.994,-2.417,-82.579
 14:33:41.802,eb:33:2e:f9:57:b5, 2085-97-87 254:19:01:5082,-0.236,0.107,2.489,-306.702,-187.5,21.912,-3.999,-4.285,-82.381
 14:33:41.802,eb:33:2e:f9:57:b5, 2085-97-05 254:215:01:5233,-0.24,0.176,2.499,-326.111,-192.261,46.143,-7.229,-6.141,-81.865
 14:33:41.802,eb:33:2e:f9:57:b5, 2085-97-82 254:103:03:5548,-0.187,0.308,2.627,-335.938,-190.979,72.815,-10.684,-7.965,-80.975
 14:33:41.802,eb:33:2e:f9:57:b5, 2085-97-230 253:175:05:5365,-0.335,0.58,2.744,-335.388,-169.922,99.365,-14.244,-9.553,-79.733
 14:33:41.805,eb:33:2e:f9:57:b5, 2085-97-215 252:187:08:4814,-0.001,0.856,2.461,-314.819,-166.26,117.859,-17.787,-10.849,-78.206
 14:33:41.805,eb:33:2e:f9:57:b5, 2085-97-251 255:03:00:2051,-0.005,0,1.002,2.502,6.287,0.305,-0.928,-1.588,-73.894
 14:33:41.805,eb:33:2e:f9:57:b5, 2085-97-250 255:03:00:2053,-0.004,0.001,1.002,2.625,6.775,-0.183,-0.895,-1.511,-73.894
 14:33:41.805,eb:33:2e:f9:57:b5, 2085-97-248 255:06:00:2055,-0.002,0,1.003,2.869,6.897,-0.549,-0.868,-1.445,-73.9
 14:33:41.805,eb:33:2e:f9:57:b5, 2085-97-243 255:03:00:2046,-0.021,0.003,1.002,2.991,7.141,-1.221,-0.824,-1.362,-73.911
 14:33:41.805,eb:33:2e:f9:57:b5, 2085-97-66 00:59:00:2052,-0.017,-0.008,1.001,4.578,7.385,-1.77,-0.791,-1.291,-73.927
 14:33:41.805,eb:33:2e:f9:57:b5, 2085-97-52 00:19:00:2102,0.011,0.015,0.991,3.723,6.714,-2.808,-0.747,-1.208,-73.949
 14:33:41.805,eb:33:2e:f9:57:b5, 2085-97-79 00:35:00:2176,0.048,0.01,1.021,4.15,7.629,-3.235,-0.709,-1.132,-73.971
 14:33:41.808,eb:33:2e:f9:57:b5, 2085-97-95 00:09:00:2247,-0.069,0.006,1.091,5.066,11.78,-5.493,-0.654,-1.027,-74.02
 14:33:41.808,eb:33:2e:f9:57:b5, 2085-97-138 255:189:255:2184,-0.094,-0.018,1.041,24.658,0.61,-4.089,0.428,0.06,-74.465
 14:33:41.808,eb:33:2e:f9:57:b5, 2085-97-77 255:220:255:2096,-0.076,-0.024,1.033,27.466,-5.005,-2.075,0.703,0.049,-74.498
 14:33:41.808,eb:33:2e:f9:57:b5, 2085-97-120 255:219:255:2170,-0.061,-0.015,1.039,29.48,-10.864,0.183,0.989,-0.033,-74.509
 14:33:41.979,eb:33:2e:f9:57:b5, 2085-97-163 255:209:255:2226,-0.058,-0.017,1.065,32.043,-14.465,2.686,1.302,-0.154,-74.498
 14:33:41.979,eb:33:2e:f9:57:b5, 2085-97-174 255:225:255:2260,-0.019,-0.011,1.08,35.4,-18.372,4.639,1.642,-0.319,-74.465
 14:33:41.979,eb:33:2e:f9:57:b5, 2085-97-22 00:201:255:2432,0.009,-0.018,1.137,39.001,-19.531,6.653,2.021,-0.5,-74.416
 14:33:41.979,eb:33:2e:f9:57:b5, 2085-97-61 00:220:255:2481,0.031,-0.017,1.193,44.617,-17.639,7.568,2.444,-0.692,-74.355
 14:33:41.982,eb:33:2e:f9:57:b5, 2085-97-54 00:232:255:2478,0.033,-0.01,1.209,49.927,-12.817,9.277,2.928,-0.835,-74.273
 14:33:41.982,eb:33:2e:f9:57:b5, 2085-97-45 00:215:255:2477,0.02,-0.018,1.223,55.603,-8.24,11.23,3.455,-0.95,-74.185
 14:33:41.982,eb:33:2e:f9:57:b5, 2085-97-53 00:199:255:2511,0.033,-0.022,1.215,62.256,-4.15,13.977,4.054,-1.005,-74.064
 14:33:41.982,eb:33:2e:f9:57:b5, 2085-97-66 00:221:255:2517,0.057,-0.03,1.236,69.275,1.526,17.639,4.713,-1.033,-73.905
 14:33:41.982,eb:33:2e:f9:57:b5, 2085-97-142 00:207:255:2620,0.099,-0.027,1.267,77.087,7.263,20.447,5.449,-1,-73.713
 14:33:41.982,eb:33:2e:f9:57:b5, 2085-97-195 00:234:255:2693,0.124,-0.028,1.298,86.121,16.418,23.132,6.268,-0.906,-73.488
 14:33:41.982,eb:33:2e:f9:57:b5, 2085-97-249 00:12:00:2722,0.108,-0.007,1.333,96.252,28.503,22.644,7.185,-0.703,-73.229
 14:33:41.982,eb:33:2e:f9:57:b5, 2085-97-198 00:234:255:2775,0.101,-0.002,1.332,107.544,38.818,20.386,8.207,-0.39,-72.971
 14:33:41.984,eb:33:2e:f9:57:b5, 2085-97-191 00:217:255:2765,0.115,-0.012,1.35,120.239,45.593,18.188,9.355,0.011,-72.708
 14:33:41.984,eb:33:2e:f9:57:b5, 2085-97-144 01:207:255:2939,0.261,-0.032,1.403,135.01,49.5,14.343,10.64,0.439,-72.466
 14:33:41.984,eb:33:2e:f9:57:b5, 2085-97-118 02:116:00:2751,0.244,0.038,1.387,150.208,63.965,6.897,12.085,0.983,-72.235
 14:33:41.984,eb:33:2e:f9:57:b5, 2085-97-92 01:185:255:2741,0.131,0.019,1.33,168.335,71.899,-4.028,13.689,1.653,-72.076
 14:33:41.989,eb:33:2e:f9:57:b5, 2085-97-40 01:133:255:2801,0.179,-0.058,1.35,187.988,75.806,-10.071,15.491,2.395,-71.949
 14:33:41.989,eb:33:2e:f9:57:b5, 2085-97-139 01:186:255:2829,0.197,-0.034,1.36,210.815,78.674,-17.822,17.496,3.181,-71.862
 14:33:41.989,eb:33:2e:f9:57:b5, 2085-97-160 01:48:255:2984,0.197,-0.068,1.419,236.511,81.299,-28.259,19.753,4.016,-71.818
 14:33:41.989,eb:33:2e:f9:57:b5, 2085-97-151 01:57:255:3204,0.203,-0.111,1.499,267.09,89.172,-40.833,22.28,4.938,-71.834
 14:33:42.041,eb:33:2e:f9:57:b5, 2085-97-151 01:66:00:3348,0.22,-0.047,1.635,298.645,104.797,-54.871,25.126,6.031,-71.873
 14:33:42.041,eb:33:2e:f9:57:b5, 2085-97-79 01:178:01:3328,0.026,0.132,1.583,327.454,108.765,-71.167,28.268,7.289,-71.944
 14:33:42.041,eb:33:2e:f9:57:b5, 2085-97-09 00:113:03:3697,0.003,0.257,1.682,352.661,102.661,-86.06,31.657,8.619,-72.092
 14:33:42.041,eb:33:2e:f9:57:b5, 2085-113-81 00:241:95:9688,-0.039,0.688,1.855,372.009,76.355,-96.985,35.266,9.877,-72.361
 14:33:42.070,eb:33:2e:f9:57:b5, 2085-97-182 255:145:06:4008,-0.089,0.916,1.879,377.258,56.458,-106.812,37.101,10.443,-72.581
 14:33:42.070,eb:33:2e:f9:57:b5, 2085-97-104 255:134:02:4009,0.006,0.475,2.001,380.371,33.569,-112.061,40.776,11.486,-73.196
 14:33:42.070,eb:33:2e:f9:57:b5, 2085-97-203 00:146:05:4502,0.183,0.561,2.013,391.113,11.047,-119.385,44.511,12.437,-73.861
 14:33:42.070,eb:33:2e:f9:57:b5, 2085-97-154 01:19:04:5341,0.286,0.59,2.502,371.338,8.545,-133.118,48.153,13.398,-74.745
 14:33:42.130,eb:33:2e:f9:57:b5, 2085-97-214 02:201:00:4670,0.438,0.38,2.476,325.928,51.636,-137.024,51.465,14.656,-75.383
 14:33:42.130,eb:33:2e:f9:57:b5, 2085-97-221 03:108:251:3799,0.544,-0.273,2.055,273.438,90.332,-129.761,54.382,16.161,-75.602
 14:33:42.130,eb:33:2e:f9:57:b5, 2085-97-105 03:125:248:1634,0.28,-1.013,1.655,234.253,144.47,-107.422,56.964,17.831,-75.256
 14:33:42.130,eb:33:2e:f9:57:b5, 2085-97-210 01:41:251:-068,0.197,-0.534,0.081,158.875,116.394,-88.989,59.194,19.325,-74.592
 14:33:42.161,eb:33:2e:f9:57:b5, 2085-97-12 02:80:251:886,0.276,-0.698,0.221,37.842,102.234,-55.542,60.348,20.495,-73.943
 14:33:42.161,eb:33:2e:f9:57:b5, 2085-97-33 02:12:252:1350,0.252,-0.484,0.571,-35.889,63.782,-40.71,60.469,21.292,-73.416
 14:33:42.161,eb:33:2e:f9:57:b5, 2085-97-216 01:76:251:1394,0.255,-0.572,0.702,-75.439,49.377,-27.954,59.985,21.852,-73.109
 14:33:42.161,eb:33:2e:f9:57:b5, 2085-97-09 02:62:252:1037,0.252,-0.531,0.605,-93.872,45.471,-18.127,59.233,22.28,-72.79
 14:33:42.189,eb:33:2e:f9:57:b5, 2085-97-05 02:187:252:670,0.252,-0.424,0.415,-107.666,35.4,-11.536,58.332,22.61,-72.499
