Time,Device name,Chip Time(),Acceleration X(g),Acceleration Y(g),Acceleration Z(g),Angular velocity X(°/s),Angular velocity Y(°/s),Angular velocity Z(°/s),Angle X(°),Angle Y(°),Angle Z(°)
 14:42:07.323,eb:33:2e:f9:57:b5, 2085-97-21 14:97:249:8551,1.596,-1.126,4.354,482.971,206.299,-150.879,23.912,5.18,-74.559
 14:42:07.323,eb:33:2e:f9:57:b5, 2085-97-240 08:100:09:5196,0.763,-0.393,3.479,589.478,276.123,-186.829,29.344,8.245,-74.954
 14:42:07.323,eb:33:2e:f9:57:b5, 2085-97-126 05:233:27:5312,0.038,2.574,2.584,605.103,140.015,-249.451,35.294,11.195,-75.624
 14:42:07.323,eb:33:2e:f9:57:b5, 2085-97-229 03:40:16:6269,-0.151,4.597,2.442,473.45,-100.891,-382.507,40.177,13.184,-78.129
 14:42:07.354,eb:33:2e:f9:57:b5, 2085-97-202 01:114:253:9345,0.538,1.338,3.707,323.792,15.625,-336.548,43.308,15.018,-81.271
 14:42:07.354,eb:33:2e:f9:57:b5, 2085-97-226 253:186:251:2038,-0.172,-1.962,4.027,356.079,271.606,-128.662,46.505,17.935,-81.733
 14:42:07.355,eb:33:2e:f9:57:b5, 2085-97-226 254:225:254:4441,0.15,-0.285,0.897,244.08,202.82,31.433,50.026,19.786,-80.107
 14:42:07.355,eb:33:2e:f9:57:b5, 2085-97-171 03:57:00:11525,0.578,-0.169,4.124,229.919,154.236,113.098,52.883,20.105,-78.261
 14:42:07.413,eb:33:2e:f9:57:b5, 2085-97-125 06:99:07:11433,1.048,0.629,5.888,312.134,243.774,140.686,56.492,20.154,-75.707
 14:42:07.413,eb:33:2e:f9:57:b5, 2085-97-63 11:60:03:10121,1.628,0.786,5.135,381.104,254.089,105.896,61.057,20.369,-72.636
 14:42:07.413,eb:33:2e:f9:57:b5, 2085-97-159 13:23:251:8730,1.776,-0.199,4.672,386.658,197.632,27.954,65.83,20.759,-70.197
 14:42:07.413,eb:33:2e:f9:57:b5, 2085-97-58 14:88:245:7701,1.714,-1.01,3.959,338.562,124.878,-55.603,69.944,21.478,-68.708
 14:42:07.444,eb:33:2e:f9:57:b5, 2085-97-218 12:223:241:7126,1.491,-1.577,3.621,265.259,91.797,-135.315,73.218,22.753,-68.033
 14:42:07.444,eb:33:2e:f9:57:b5, 2085-97-161 10:121:239:6422,1.185,-1.926,3.322,181.58,89.172,-192.139,75.542,24.593,-67.56
 14:42:07.444,eb:33:2e:f9:57:b5, 2085-97-189 08:95:237:5520,0.945,-2.186,2.938,96.436,92.224,-212.097,77.091,26.807,-67.148
 14:42:07.444,eb:33:2e:f9:57:b5, 2085-97-170 06:87:234:4570,0.686,-2.514,2.466,17.456,100.281,-193.359,77.827,28.982,-66.555
 14:42:07.474,eb:33:2e:f9:57:b5, 2085-97-207 04:182:230:2969,0.714,-2.926,1.87,-65.369,107.361,-140.747,77.959,30.822,-65.797
 14:42:07.474,eb:33:2e:f9:57:b5, 2085-97-09 06:107:228:1324,0.722,-3.358,1.094,-164.429,121.338,-69.885,77.234,32.042,-64.764
 14:42:07.474,eb:33:2e:f9:57:b5, 2085-97-01 06:212:229:-765,0.918,-3.398,0.17,-281.25,150.208,22.4,75.773,32.536,-63.276
 14:42:07.474,eb:33:2e:f9:57:b5, 2085-113-58 00:176:230:-3000,1.116,-3.12,-0.689,-395.081,158.081,108.276,73.306,32.228,-61.276
 14:42:07.474,eb:33:2e:f9:57:b5, 2085-97-226 10:135:235:-2121,1.607,-2.869,-0.914,-442.383,143.311,139.343,71.752,31.833,-60.266
 14:42:07.534,eb:33:2e:f9:57:b5, 2085-97-127 14:135:240:-2326,1.945,-2.224,-1.114,-508.118,74.341,166.748,67.786,30.701,-58.464
 14:42:07.534,eb:33:2e:f9:57:b5, 2085-97-52 16:246:244:-1557,2.055,-1.625,-1.056,-541.138,-18.677,161.926,63.023,29.268,-57.475
 14:42:07.534,eb:33:2e:f9:57:b5, 2085-97-203 16:143:247:221,2.141,-1.186,-0.355,-554.199,-98.999,129.944,57.524,27.647,-57.332
 14:42:07.534,eb:33:2e:f9:57:b5, 2085-97-146 17:244:248:1323,2.216,-0.954,0.449,-566.65,-117.615,80.383,51.746,26.142,-57.777
 14:42:07.564,eb:33:2e:f9:57:b5, 2085-97-144 17:41:249:1187,2.107,-0.855,0.652,-583.13,-114.319,22.034,45.643,25.01,-58.398
 14:42:07.564,eb:33:2e:f9:57:b5, 2085-97-55 15:123:248:1278,1.641,-0.9,0.573,-602.661,-144.775,-33.936,39.282,24.131,-59.485
 14:42:07.564,eb:33:2e:f9:57:b5, 2085-97-61 10:25:248:1796,0.88,-0.986,0.752,-625.732,-200.562,-72.021,32.388,23.044,-61.133
 14:42:07.564,eb:33:2e:f9:57:b5, 2085-97-151 03:140:250:2401,0.166,-0.9,1.024,-636.658,-245.361,-63.599,25.345,21.423,-63.04
 14:42:07.593,eb:33:2e:f9:57:b5, 2085-97-204 255:55:00:2252,-0.153,-0.386,1.167,-610.779,-272.4,-5.005,18.528,19.105,-64.429
 14:42:07.593,eb:33:2e:f9:57:b5, 2085-97-56 254:62:11:2616,-0.256,0.628,1.125,-572.449,-295.532,58.411,12.475,16.298,-64.957
 14:42:07.593,eb:33:2e:f9:57:b5, 2085-97-146 253:65:25:2740,-0.398,2.276,1.352,-529.114,-323.181,87.708,6.954,13.074,-64.731
 14:42:07.593,eb:33:2e:f9:57:b5, 2085-97-98 251:252:36:3211,-0.894,3.97,1.362,-471.985,-348.999,73.486,2.065,9.646,-64.199
 14:42:07.654,eb:33:2e:f9:57:b5, 2085-97-27 245:105:42:4896,-1.893,5.059,1.937,-400.513,-361.328,28.809,-2.258,6.015,-63.715
 14:42:07.654,eb:33:2e:f9:57:b5, 2085-97-67 237:10:44:6277,-2.639,5.409,2.774,-326.721,-318.054,0.244,-5.834,2.615,-63.419
 14:42:07.654,eb:33:2e:f9:57:b5, 2085-97-84 234:35:47:6099,-2.646,5.668,3.075,-252.38,-244.263,-1.221,-8.74,-0.154,-63.094
 14:42:07.654,eb:33:2e:f9:57:b5, 2085-97-52 236:151:49:5785,-2.354,6.1,2.869,-164.673,-192.505,-10.437,-10.805,-2.269,-62.798
 14:42:07.684,eb:33:2e:f9:57:b5, 2085-97-116 237:250:45:5584,-2.271,6.1,2.772,-71.594,-143.494,-44.006,-11.964,-3.977,-62.748
 14:42:07.684,eb:33:2e:f9:57:b5, 2085-97-144 237:13:39:4045,-2.177,5.381,2.414,-3.967,-84.9,-74.89,-12.239,-5.169,-63.138
 14:42:07.684,eb:33:2e:f9:57:b5, 2085-97-103 239:185:31:2576,-0.606,4.427,1.571,46.753,-56.152,-94.177,-11.942,-5.993,-63.864
 14:42:07.684,eb:33:2e:f9:57:b5, 2085-97-248 14:182:34:7414,0.329,3.604,6.48,769.592,635.315,1.709,-8.932,-5.087,-65.154
 14:42:07.714,eb:33:2e:f9:57:b5, 2085-97-63 253:137:18:-5003,0.1,-0.08,0.999,200.378,856.079,-107.544,-3.268,0.258,-69.56
 14:42:07.714,eb:33:2e:f9:57:b5, 2085-97-44 01:121:251:596,0.992,-0.827,2.451,61.768,207.825,-44.983,-2.895,0.912,-70.664
 14:42:07.714,eb:33:2e:f9:57:b5, 2085-97-197 250:206:01:129,-0.212,-0.115,2.061,72.327,161.926,20.386,-2.098,2.714,-70.73
 14:42:07.714,eb:33:2e:f9:57:b5, 2085-97-47 05:195:02:2989,1.374,0.137,0.688,76.904,13.611,-2.014,-1.373,3.334,-70.67
 14:42:07.774,eb:33:2e:f9:57:b5, 2085-97-43 255:38:00:2050,0.235,0.208,1.619,105.408,-5.432,0.244,-0.505,3.373,-70.752
 14:42:07.774,eb:33:2e:f9:57:b5, 2085-97-121 01:204:254:4385,-0.463,0.028,1.789,96.436,10.681,3.113,0.538,3.257,-70.735
 14:42:07.774,eb:33:2e:f9:57:b5, 2085-97-168 252:225:255:1897,-0.417,0.083,1.157,64.453,80.017,27.71,1.329,3.961,-70.483
 14:42:07.774,eb:33:2e:f9:57:b5, 2085-97-07 254:197:254:2924,-0.208,-0.219,1.391,66.833,42.053,37.109,2.005,4.504,-70.153
 14:42:07.803,eb:33:2e:f9:57:b5, 2085-97-176 255:09:255:3462,0.111,-0.037,1.316,72.021,23.621,44.8,2.73,4.818,-69.681
 14:42:07.803,eb:33:2e:f9:57:b5, 2085-97-89 01:213:253:4400,0.102,-0.185,1.955,90.454,26.855,39.856,3.582,5.026,-69.269
 14:42:07.803,eb:33:2e:f9:57:b5, 2085-97-226 00:152:252:4800,0.164,-0.372,2.227,119.873,38.757,39.429,4.675,5.301,-68.824
 14:42:07.803,eb:33:2e:f9:57:b5, 2085-97-03 02:232:250:5618,0.374,-0.532,2.572,163.269,44.373,25.146,6.136,5.691,-68.483
 14:42:07.834,eb:33:2e:f9:57:b5, 2085-97-237 03:106:248:6253,0.625,-0.773,2.869,219.788,60.242,14.221,8.091,6.169,-68.22
 14:42:07.835,eb:33:2e:f9:57:b5, 2085-97-69 06:246:246:6754,0.941,-1.015,3.138,294.983,93.567,4.456,10.712,6.921,-68
 14:42:07.835,eb:33:2e:f9:57:b5, 2085-97-212 08:219:242:6905,1.226,-1.422,3.335,390.869,122.375,-22.949,14.189,7.993,-67.846
 14:42:07.835,eb:33:2e:f9:57:b5, 2085-97-69 07:140:244:8591,0.346,-1.689,3.505,517.883,151.855,-64.514,18.759,9.448,-67.879
 14:42:07.924,eb:33:2e:f9:57:b5, 2085-97-105 03:50:255:7990,0.83,-1.107,4.776,666.382,256.653,-109.131,24.752,11.646,-67.989
 14:42:07.924,eb:33:2e:f9:57:b5, 2085-97-162 08:21:20:8091,1.22,1.432,2.951,722.9,168.701,-112.305,31.915,14.194,-67.687
 14:42:07.924,eb:33:2e:f9:57:b5, 2085-97-35 02:231:17:7895,0.113,1.891,4.443,632.324,49.133,-192.383,38.584,15.908,-68.538
 14:42:07.924,eb:33:2e:f9:57:b5, 2085-97-94 00:246:04:11233,0.508,2.178,4.447,487,16.602,-256.653,43.445,17.65,-70.307
 14:42:07.926,eb:33:2e:f9:57:b5, 2085-97-140 248:232:02:2560,-0.643,-1.615,4.204,510.071,179.626,-93.811,48.274,19.819,-70.812
 14:42:07.926,eb:33:2e:f9:57:b5, 2085-97-217 252:91:253:6218,0.098,-0.516,1.525,309.021,192.139,48.95,52.712,21.176,-69.401
 14:42:07.926,eb:33:2e:f9:57:b5, 2085-97-83 04:190:253:13757,0.715,-0.657,5.149,282.349,217.529,151.489,56.277,21.396,-67.028
 14:42:07.926,eb:33:2e:f9:57:b5, 2085-97-254 07:182:03:11820,1.266,0.232,6.478,423.096,267.273,189.575,61.111,21.176,-63.682
 14:42:07.954,eb:33:2e:f9:57:b5, 2085-97-87 12:249:255:11097,1.732,0.275,5.297,481.201,195.435,148.438,66.764,20.599,-60.688
 14:42:07.954,eb:33:2e:f9:57:b5, 2085-97-09 15:54:250:11077,2.051,-0.303,5.605,480.225,159.607,61.462,72.318,20.204,-58.634
 14:42:07.954,eb:33:2e:f9:57:b5, 2085-97-66 17:88:248:9870,2.249,-0.836,5.105,460.449,127.625,-59.387,77.492,20.55,-57.145
 14:42:07.954,eb:33:2e:f9:57:b5, 2085-97-69 17:95:245:8081,2.047,-1.122,4.466,398.193,94.604,-206.116,82.117,22.126,-56.288
 14:42:08.013,eb:33:2e:f9:57:b5, 2085-97-01 15:115:241:6855,1.602,-1.547,3.504,310.425,33.63,-331.36,85.71,24.928,-55.865
 14:42:08.013,eb:33:2e:f9:57:b5, 2085-97-80 10:17:236:7212,1.012,-2.137,3.393,224.976,-45.166,-404.724,88.215,28.691,-56.201
 14:42:08.013,eb:33:2e:f9:57:b5, 2085-97-117 05:173:229:7464,0.404,-2.901,3.657,137.695,-104.553,-415.283,89.385,32.822,-57.211
 14:42:08.013,eb:33:2e:f9:57:b5, 2085-97-101 01:137:223:6666,0.016,-3.667,3.597,32.715,-83.496,-349.243,89.506,36.678,-58.497
 14:42:08.044,eb:33:2e:f9:57:b5, 2085-97-242 255:155:219:3862,0.152,-4.378,2.616,-92.407,38.513,-206.36,88.89,39.413,-58.782
 14:42:08.044,eb:33:2e:f9:57:b5, 2085-97-227 02:57:222:1590,0.629,-4.513,1.28,-233.093,182.495,-27.405,88.187,40.507,-57.31
 14:42:08.044,eb:33:2e:f9:57:b5, 2085-97-54 07:115:229:-372,1.255,-3.779,0.334,-362.793,250.244,104.98,86.951,40.04,-54.311
 14:42:08.044,eb:33:2e:f9:57:b5, 2085-97-73 13:131:236:-2918,1.967,-2.882,-0.756,-450.867,200.073,162.109,84.76,38.754,-51.284
 14:42:08.104,eb:33:2e:f9:57:b5, 2085-97-35 18:174:242:-4302,2.377,-2.013,-1.956,-514.038,63.843,167.175,80.936,37.2,-49.433
 14:42:08.104,eb:33:2e:f9:57:b5, 2085-97-97 19:228:245:-2703,2.383,-1.369,-1.925,-559.265,-109.131,130.249,75.52,35.656,-49.521
 14:42:08.104,eb:33:2e:f9:57:b5, 2085-97-151 18:02:245:459,2.269,-1.296,-0.537,-592.468,-220.154,79.468,68.659,34.135,-51.279
 14:42:08.104,eb:33:2e:f9:57:b5, 2085-97-125 17:99:244:2333,2.127,-1.423,0.792,-632.812,-214.661,34.241,61.326,32.712,-53.514
 14:42:08.134,eb:33:2e:f9:57:b5, 2085-97-154 16:77:243:2480,2.006,-1.492,1.188,-679.077,-201.172,-19.531,53.575,31.597,-55.53
 14:42:08.135,eb:33:2e:f9:57:b5, 2085-97-69 15:16:241:3616,1.811,-1.717,1.423,-709.717,-244.751,-69.031,45.39,30.52,-57.936
 14:42:08.135,eb:33:2e:f9:57:b5, 2085-97-89 13:06:239:5097,1.562,-2.007,2.187,-720.581,-281.677,-99.304,36.722,29.075,-60.765
 14:42:08.135,eb:33:2e:f9:57:b5, 2085-97-60 11:63:240:5371,1.188,-2.09,2.693,-723.633,-287.048,-100.647,28.213,27.235,-63.545
 14:42:08.163,eb:33:2e:f9:57:b5, 2085-97-148 07:254:242:4951,0.688,-1.797,2.496,-722.473,-323.486,-72.449,19.869,24.818,-65.836
 14:42:08.163,eb:33:2e:f9:57:b5, 2085-97-200 03:39:247:5413,0.324,-1.435,2.472,-704.956,-399.841,-16.602,12.101,21.445,-67.434
 14:42:08.163,eb:33:2e:f9:57:b5, 2085-97-219 01:194:02:6264,0.115,-0.524,2.878,-675.11,-444.702,50.049,4.938,17.139,-67.934
 14:42:08.163,eb:33:2e:f9:57:b5, 2085-97-246 255:33:20:6322,-0.181,1.397,3.111,-631.165,-459.351,87.402,-1.45,12.59,-67.363
 14:42:08.193,eb:33:2e:f9:57:b5, 2085-97-05 252:173:34:6910,-1.002,3.53,3.141,-548.828,-487.427,80.811,-7.234,7.877,-66.154
 14:42:08.193,eb:33:2e:f9:57:b5, 2085-97-219 241:101:41:9071,-2.558,4.822,3.769,-435.669,-507.69,53.955,-11.97,3.016,-64.72
 14:42:08.193,eb:33:2e:f9:57:b5, 2085-97-33 231:84:47:11997,-3.353,5.52,5.241,-347.778,-441.04,59.937,-15.886,-1.566,-63.062
 14:42:08.193,eb:33:2e:f9:57:b5, 2085-97-93 229:147:57:12143,-3.056,6.459,6.054,-255.737,-312.439,81.848,-19.001,-4.883,-61.293
 14:42:08.253,eb:33:2e:f9:57:b5, 2085-97-116 233:83:66:11402,-2.839,7.874,5.747,-135.986,-244.568,47.485,-21.116,-7.229,-59.705
 14:42:08.253,eb:33:2e:f9:57:b5, 2085-97-104 231:36:64:10246,-3.205,8.322,5.353,-63.11,-171.57,-29.846,-22.143,-9.163,-58.898
 14:42:08.253,eb:33:2e:f9:57:b5, 2085-97-188 229:187:55:7964,-3.155,7.518,4.533,-10.315,-58.777,-84.534,-22.495,-10.426,-59.073
 14:42:08.253,eb:33:2e:f9:57:b5, 2085-97-117 232:15:46:4784,-2.685,6.398,3.114,60.974,18.433,-112.427,-22.028,-10.909,-59.996
 14:42:08.314,eb:33:2e:f9:57:b5, 2085-97-63 236:190:33:2131,-4.521,5.03,1.657,112.549,43.945,-125.854,-20.88,-11.008,-61.276
 14:42:08.314,eb:33:2e:f9:57:b5, 2085-97-232 70:84:249:10701,-1.033,5.062,6.355,736.816,236.938,-506.409,-17.144,-10.525,-63.111
 14:42:08.314,eb:33:2e:f9:57:b5, 2085-97-151 240:195:241:3101,-3.859,1.465,3.798,558.594,1073.547,-523.071,-8.86,-6.795,-70.164
 14:42:08.314,eb:33:2e:f9:57:b5, 2085-97-159 238:17:01:1162,-0.672,3.063,-4.629,40.405,214.844,-5.92,-6.235,2.137,-72.131
 14:42:08.316,eb:33:2e:f9:57:b5, 2085-97-191 252:133:04:-005,-0.023,-0.995,0.841,82.886,222.839,-4.944,-5.702,3.966,-72.576
 14:42:08.316,eb:33:2e:f9:57:b5, 2085-97-241 247:149:01:329,-0.35,0.268,1.111,41.443,63.232,16.479,-5.114,5.015,-72.482
 14:42:08.316,eb:33:2e:f9:57:b5, 2085-97-142 06:210:255:3486,1.07,-0.028,0.766,50.232,-64.27,-26.733,-4.664,4.823,-72.625
 14:42:08.316,eb:33:2e:f9:57:b5, 2085-97-214 00:44:01:1964,0.312,0.279,1.586,57.739,4.578,-10.925,-4.164,4.576,-72.746
 14:42:08.403,eb:33:2e:f9:57:b5, 2085-97-54 01:211:255:2805,-0.105,0.202,1.27,57.129,-0.183,-33.875,-3.587,4.548,-72.982
 14:42:08.403,eb:33:2e:f9:57:b5, 2085-97-141 03:238:252:3252,0.024,-0.114,1.322,38.391,7.446,-9.033,-3.159,4.68,-73.207
 14:42:08.403,eb:33:2e:f9:57:b5, 2085-97-214 253:27:254:5458,0.228,-0.853,3.069,79.773,19.47,60.669,-2.433,4.488,-72.944
 14:42:08.403,eb:33:2e:f9:57:b5, 2085-97-135 02:49:249:7154,0.188,-0.291,2.818,95.947,37.659,54.443,-1.566,4.867,-72.4
 14:42:08.405,eb:33:2e:f9:57:b5, 2085-97-247 02:192:248:7084,0.452,-0.836,3.209,155.212,65.552,63.721,-0.253,5.46,-71.768
 14:42:08.405,eb:33:2e:f9:57:b5, 2085-97-34 04:137:245:7224,0.677,-1.056,3.479,231.445,89.905,50.659,1.763,6.185,-71.191
 14:42:08.405,eb:33:2e:f9:57:b5, 2085-97-94 05:06:242:8128,1.117,-1.603,3.77,332.642,128.784,30.212,4.664,7.245,-70.73
 14:42:08.405,eb:33:2e:f9:57:b5, 2085-97-43 13:236:236:8578,1.948,-2.068,4.033,459.045,171.082,4.7,8.729,8.751,-70.384
 14:42:08.434,eb:33:2e:f9:57:b5, 2085-97-246 15:231:236:10285,1.634,-2.528,4.438,619.202,206.909,-40.955,14.189,10.662,-70.126
 14:42:08.434,eb:33:2e:f9:57:b5, 2085-97-208 14:25:255:10038,1.652,-1.506,5.479,763.855,302.49,-107.361,21.27,13.326,-70.131
 14:42:08.434,eb:33:2e:f9:57:b5, 2085-97-251 08:07:27:8618,0.396,2.444,4.193,775.33,185.608,-196.594,29.086,16.37,-70.225
 14:42:08.434,eb:33:2e:f9:57:b5, 2085-97-35 01:00:17:11043,0.942,2.59,4.608,583.679,38.574,-291.626,35.145,18.528,-72.169
 14:42:08.525,eb:33:2e:f9:57:b5, 2085-97-159 248:104:07:3766,-0.602,-1.137,5.656,593.994,157.593,-171.448,40.386,20.907,-73.702
 14:42:08.525,eb:33:2e:f9:57:b5, 2085-113-81 00:191:86:13587,-0.589,-0.252,2.516,386.963,151.062,-48.706,45.33,22.692,-73.482
 14:42:08.525,eb:33:2e:f9:57:b5, 2085-97-200 255:236:250:12215,0.335,-0.109,3.651,322.266,143.005,-7.629,47.241,23.275,-72.993
 14:42:08.525,eb:33:2e:f9:57:b5, 2085-97-234 06:118:253:16384,1.253,-0.599,7.802,376.16,259.705,78.064,51.345,24.142,-71.043
 14:42:08.525,eb:33:2e:f9:57:b5, 2085-97-121 14:84:249:13553,2.206,-0.397,7.302,491.577,297.241,93.75,57.134,25.076,-67.846
 14:42:08.525,eb:33:2e:f9:57:b5, 2085-97-168 20:162:242:11658,2.814,-1.319,6.1,507.08,257.751,62.927,63.49,25.703,-64.731
 14:42:08.525,eb:33:2e:f9:57:b5, 2085-97-72 22:157:238:9472,2.838,-1.919,5.271,464.111,195.923,4.333,69.417,26.279,-62.336
 14:42:08.525,eb:33:2e:f9:57:b5, 2085-97-67 21:194:238:7875,2.437,-2.285,4.254,417.969,114.197,-76.538,74.394,27.076,-60.864
 14:42:08.553,eb:33:2e:f9:57:b5, 2085-97-233 16:211:239:7371,1.82,-2.025,3.673,346.191,30.09,-182.861,78.393,28.537,-60.513
 14:42:08.553,eb:33:2e:f9:57:b5, 2085-97-102 12:247:236:7298,1.281,-2.167,3.505,255.859,-35.95,-267.578,81.013,30.795,-61.051
 14:42:08.553,eb:33:2e:f9:57:b5, 2085-97-85 08:149:233:7660,0.892,-2.599,3.684,171.936,-61.584,-292.969,82.518,33.569,-62.194
 14:42:08.553,eb:33:2e:f9:57:b5, 2085-97-162 05:116:229:7072,0.508,-3.042,3.716,95.398,-28.137,-262.268,83.172,36.26,-63.171
 14:42:08.644,eb:33:2e:f9:57:b5, 2085-97-39 03:109:224:5050,0.419,-3.63,3.003,9.888,24.963,-182.8,83.507,38.469,-63.495
 14:42:08.644,eb:33:2e:f9:57:b5, 2085-97-235 03:251:221:3026,0.566,-4.186,1.9,-96.741,88.196,-74.585,83.287,39.743,-62.946
 14:42:08.644,eb:33:2e:f9:57:b5, 2085-97-156 05:47:224:1584,0.94,-4.175,1.141,-220.032,166.931,47.668,82.727,39.957,-61.304
 14:42:08.644,eb:33:2e:f9:57:b5, 2085-97-137 09:200:229:-520,1.53,-3.671,0.34,-331.421,206.909,136.78,81.464,39.177,-58.694
 14:42:08.646,eb:33:2e:f9:57:b5, 2085-97-54 14:118:237:-3621,2.024,-2.778,-1.093,-436.523,161.804,170.532,79.288,37.886,-56.008
 14:42:08.646,eb:33:2e:f9:57:b5, 2085-97-125 17:78:242:-4505,2.257,-1.952,-2.158,-516.479,35.461,150.33,75.317,36.475,-54.448
 14:42:08.646,eb:33:2e:f9:57:b5, 2085-97-18 18:67:244:-2835,2.244,-1.558,-1.907,-575.317,-97.961,102.295,69.791,35.145,-54.542
 14:42:08.646,eb:33:2e:f9:57:b5, 2085-97-147 17:21:245:-150,2.166,-1.396,-0.705,-616.394,-173.767,50.781,62.968,33.876,-55.871
 14:42:08.734,eb:33:2e:f9:57:b5, 2085-97-97 17:00:245:1754,2.202,-1.374,0.466,-658.508,-175.964,2.808,55.635,32.767,-57.645
 14:42:08.734,eb:33:2e:f9:57:b5, 2085-97-182 17:174:244:2297,2.209,-1.389,1.042,-702.332,-168.457,-39.429,47.774,31.877,-59.425
 14:42:08.734,eb:33:2e:f9:57:b5, 2085-97-149 17:210:243:3222,2.159,-1.461,1.262,-741.516,-217.529,-82.886,39.446,30.948,-61.556
 14:42:08.734,eb:33:2e:f9:57:b5, 2085-97-69 16:103:242:5025,1.84,-1.602,2.022,-767.151,-287.048,-122.375,30.399,29.427,-64.319
 14:42:08.916,eb:33:2e:f9:57:b5, 2085-97-110 11:60:242:6075,0.896,-1.728,2.856,-770.264,-315.857,-133.24,21.324,27.268,-67.242
 14:42:08.916,eb:33:2e:f9:57:b5, 2085-97-72 03:204:242:6470,0.028,-1.711,3.044,-747.131,-355.164,-97.168,12.59,24.384,-69.631
 14:42:08.916,eb:33:2e:f9:57:b5, 2085-97-36 254:36:248:6705,-0.304,-1.454,3.317,-703.979,-380.249,-9.827,4.867,20.803,-70.862
 14:42:08.916,eb:33:2e:f9:57:b5, 2085-97-93 253:26:06:5900,-0.345,-0.224,3.081,-643.86,-392.334,88.989,-1.846,16.891,-70.532
 14:42:08.918,eb:33:2e:f9:57:b5, 2085-97-98 252:208:22:5096,-0.691,1.802,2.653,-578.857,-424.011,139.343,-7.542,12.903,-68.983
 14:42:08.918,eb:33:2e:f9:57:b5, 2085-97-189 247:08:36:5715,-1.524,3.786,2.56,-500.732,-457.275,139.465,-12.618,8.718,-66.797
 14:42:08.918,eb:33:2e:f9:57:b5, 2085-97-113 238:115:41:7086,-2.836,4.942,3.092,-403.809,-437.195,121.948,-16.826,4.631,-64.424
 14:42:08.918,eb:33:2e:f9:57:b5, 2085-97-234 229:107:48:9257,-3.403,5.509,4.021,-337.83,-340.515,143.25,-20.435,1.296,-61.974
 14:42:08.921,eb:33:2e:f9:57:b5, 2085-97-209 228:215:60:9910,-3.119,6.788,4.729,-288.086,-255.066,180.237,-23.56,-0.769,-59.392
 14:42:08.921,eb:33:2e:f9:57:b5, 2085-97-218 235:212:71:10678,-2.144,8.324,5.098,-167.664,-220.337,169.312,-25.994,-2.225,-56.761
 14:42:08.921,eb:33:2e:f9:57:b5, 2085-97-18 240:152:68:9074,-1.952,8.969,5.033,-27.954,-119.568,91.003,-26.922,-3.17,-54.849
 14:42:08.921,eb:33:2e:f9:57:b5, 2085-97-99 241:32:58:5955,-1.557,7.977,3.637,32.349,-39.917,13.55,-26.922,-3.609,-54.119
 14:42:08.923,eb:33:2e:f9:57:b5, 2085-97-26 246:197:45:4010,-0.969,6.462,2.357,76.538,-22.888,-40.283,-26.356,-3.928,-54.152
 14:42:08.923,eb:33:2e:f9:57:b5, 2085-97-126 10:231:10:7194,2.417,5.044,1.592,115.112,-34.912,-83.557,-25.356,-4.449,-54.63
 14:42:08.923,eb:33:2e:f9:57:b5, 2085-97-179 17:103:43:-2269,-1.873,1.463,-1.261,1061.462,305.115,-597.9,-18.748,-4.373,-57.052
 14:42:08.923,eb:33:2e:f9:57:b5, 2085-97-230 239:54:11:2100,-2.414,3.82,4.517,614.075,1025.33,-314.209,-9.382,-0.846,-63.199
 14:42:08.974,eb:33:2e:f9:57:b5, 2085-97-87 251:201:254:2496,-0.364,3.107,-2.53,53.65,-65.186,-52.795,-6.883,5.268,-64.567
 14:42:08.974,eb:33:2e:f9:57:b5, 2085-97-137 01:51:248:6446,0.236,-0.575,0.902,92.224,114.38,-17.029,-6.213,6.229,-64.957
 14:42:08.974,eb:33:2e:f9:57:b5, 2085-97-17 02:54:246:6576,0.581,-1.076,3.063,271.912,75.012,48.279,4.521,9.63,-65.726
 14:42:08.974,eb:33:2e:f9:57:b5, 2085-97-221 07:173:241:7804,1.102,-1.49,3.624,385.254,81.238,21.79,7.872,10.349,-65.292
 14:42:08.974,eb:33:2e:f9:57:b5, 2085-113-81 00:237:105:4840,1.036,-2.022,3.917,532.654,83.679,-14.465,12.524,11.173,-65.083
 14:42:09.005,eb:33:2e:f9:57:b5, 2085-97-219 06:01:235:10455,0.364,-2.461,4.416,621.643,85.083,-38.33,15.436,11.596,-65.132
 14:42:09.005,eb:33:2e:f9:57:b5, 2085-97-32 255:205:249:14013,-0.087,-2.093,5.537,777.588,139.771,-28.32,22.615,12.805,-65.116
 14:42:09.005,eb:33:2e:f9:57:b5, 2085-97-210 02:156:26:13452,0.661,1.023,7.914,837.28,173.462,-65.369,30.866,14.403,-64.764
 14:42:09.005,eb:33:2e:f9:57:b5, 2085-97-191 03:124:39:8178,1.059,4.177,4.634,662.537,80.933,-169.983,38.26,16.188,-65.121
 14:42:09.065,eb:33:2e:f9:57:b5, 2085-97-133 04:70:21:5057,-0.422,3.169,5.15,650.085,24.902,-252.441,44.138,17.941,-66.632
 14:42:09.065,eb:33:2e:f9:57:b5, 2085-97-190 249:01:05:10657,-0.7,1.764,3.167,481.384,-41.382,-198.792,49.318,19.341,-68.472
 14:42:09.065,eb:33:2e:f9:57:b5, 2085-97-99 250:241:250:21494,-0.498,0.059,7.999,439.209,-4.761,-128.418,53.212,20.341,-69.884
 14:42:09.065,eb:33:2e:f9:57:b5, 2085-97-99 255:81:248:18241,0.536,-0.878,10.379,563.599,244.69,-34.119,58.579,21.742,-69.099
 14:42:09.094,eb:33:2e:f9:57:b5, 2085-97-147 09:193:249:16075,1.861,-0.945,7.934,592.346,304.016,16.602,65.473,23.033,-66.346
 14:42:09.094,eb:33:2e:f9:57:b5, 2085-97-255 19:32:249:15912,2.893,-0.763,7.982,560.364,299.622,-26.123,72.449,24.082,-63.298
 14:42:09.094,eb:33:2e:f9:57:b5, 2085-97-82 25:37:248:12932,3.192,-0.923,7.093,536.621,262.329,-131.042,79.014,25.499,-60.474
 14:42:09.094,eb:33:2e:f9:57:b5, 2085-97-39 24:10:248:10142,2.709,-0.913,5.546,492.493,171.875,-261.963,85.111,27.779,-58.387
 14:42:09.126,eb:33:2e:f9:57:b5, 2085-97-07 18:33:243:9849,1.791,-1.267,4.735,422.974,56.091,-385.864,90.104,31.113,-57.299
 14:42:09.126,eb:33:2e:f9:57:b5, 2085-97-241 10:159:235:10299,1.012,-2.043,4.972,333.374,11.23,-446.411,94.142,35.365,-56.821
 14:42:09.126,eb:33:2e:f9:57:b5, 2085-97-07 06:104:228:9446,0.559,-3.04,4.899,235.046,56.824,-410.828,97.41,39.611,-55.865
 14:42:09.126,eb:33:2e:f9:57:b5, 2085-97-171 02:236:222:7211,0.232,-3.799,4.152,141.357,141.907,-299.377,100.668,42.924,-53.751
 14:42:09.184,eb:33:2e:f9:57:b5, 2085-97-28 02:30:220:4384,0.352,-4.358,2.777,43.03,165.283,-140.686,103.359,44.676,-51.015
 14:42:09.184,eb:33:2e:f9:57:b5, 2085-97-130 06:18:220:2134,0.903,-4.477,1.428,-66.284,177.612,-2.625,105.007,44.824,-48.505
 14:42:09.184,eb:33:2e:f9:57:b5, 2085-97-138 08:106:225:-1615,1.469,-4.235,0.212,-192.261,190.796,108.398,105.145,43.715,-46.219
 14:42:09.184,eb:33:2e:f9:57:b5, 2085-97-241 14:136:230:-5845,2.174,-3.491,-1.861,-342.59,162.842,179.016,103.645,41.803,-44.489
 14:42:09.214,eb:33:2e:f9:57:b5, 2085-97-205 20:05:233:-6545,3.019,-2.947,-3.297,-508.911,73.364,174.561,99.805,39.738,-43.544
 14:42:09.214,eb:33:2e:f9:57:b5, 2085-97-101 25:107:234:-5901,3.311,-2.821,-2.968,-612.61,-50.537,109.375,93.972,38.326,-43.781
 14:42:09.214,eb:33:2e:f9:57:b5, 2085-97-172 27:88:231:-3754,3.492,-2.816,-2.597,-669.189,-171.143,30.457,86.462,37.678,-45.363
 14:42:09.214,eb:33:2e:f9:57:b5, 2085-97-181 27:196:228:-934,3.396,-3.268,-1.12,-721.436,-214.661,-43.152,77.948,37.535,-47.966
 14:42:09.334,eb:33:2e:f9:57:b5, 2085-97-107 26:142:227:1835,3.129,-3.504,0.245,-781.25,-223.633,-112.61,68.494,37.705,-50.993
 14:42:09.334,eb:33:2e:f9:57:b5, 2085-97-207 23:184:225:4138,2.837,-3.658,1.456,-836.853,-258.484,-180.176,58.189,38.002,-54.602
 14:42:09.334,eb:33:2e:f9:57:b5, 2085-97-152 22:148:225:6576,2.775,-3.872,2.585,-883.789,-310.73,-229.37,46.664,37.925,-59.178
 14:42:09.334,eb:33:2e:f9:57:b5, 2085-97-235 20:201:229:8128,2.354,-3.574,3.702,-913.025,-336.06,-261.169,34.568,37.101,-64.286
 14:42:09.335,eb:33:2e:f9:57:b5, 2085-97-126 14:59:234:7762,1.238,-2.97,4.034,-911.926,-358.337,-263.916,22.357,35.332,-69.329
 14:42:09.335,eb:33:2e:f9:57:b5, 2085-97-226 05:93:239:7527,0.284,-2.444,3.64,-879.578,-430.786,-206.726,11.091,32.272,-73.482
 14:42:09.335,eb:33:2e:f9:57:b5, 2085-97-104 255:216:251:7267,-0.283,-1.446,3.701,-812.073,-500,-90.637,1.34,27.74,-75.844
 14:42:09.335,eb:33:2e:f9:57:b5, 2085-97-201 251:97:17:6854,-0.932,0.7,3.397,-705.139,-570.129,35.278,-6.229,22.346,-75.861
 14:42:09.337,eb:33:2e:f9:57:b5, 2085-97-116 242:251:37:7277,-2.386,3.564,3.427,-566.406,-636.475,110.413,-12.085,16.414,-74.081
 14:42:09.337,eb:33:2e:f9:57:b5, 2085-97-230 230:47:47:10164,-3.908,5.396,4.043,-367.92,-662.964,162.964,-15.947,10.327,-71.093
 14:42:09.337,eb:33:2e:f9:57:b5, 2085-97-155 221:224:56:13162,-4.06,6.507,5.971,-245.422,-600.037,209.595,-18.545,4.713,-67.412
 14:42:09.337,eb:33:2e:f9:57:b5, 2085-97-171 229:132:66:13182,-2.608,7.643,6.665,-132.385,-428.772,204.834,-20.231,0.538,-63.726
 14:42:09.427,eb:33:2e:f9:57:b5, 2085-97-97 236:08:72:10405,-2.606,8.942,5.857,-79.285,-213.074,117.615,-21.302,-1.802,-61.128
 14:42:09.427,eb:33:2e:f9:57:b5, 2085-97-105 232:54:63:7379,-3.24,8.631,4.195,-70.068,-91.797,-30.579,-22.066,-2.928,-60.32
 14:42:09.427,eb:33:2e:f9:57:b5, 2085-97-241 229:228:47:6831,-3.203,6.968,3.49,-31.616,-42.542,-108.215,-22.626,-3.862,-60.837
 14:42:09.427,eb:33:2e:f9:57:b5, 2085-97-48 232:73:37:4657,-2.778,5.251,2.811,43.579,24.353,-106.995,-22.451,-4.296,-61.853
 14:42:09.427,eb:33:2e:f9:57:b5, 2085-97-159 247:226:30:5753,-0.601,4.157,1.825,104.675,39.795,-91.37,-21.61,-4.312,-62.919
 14:42:09.427,eb:33:2e:f9:57:b5, 2085-97-108 22:38:18:-489,2.774,6.342,1.618,929.81,91.858,-952.026,-15.43,-3.543,-65.352
 14:42:09.427,eb:33:2e:f9:57:b5, 2085-97-163 02:26:252:-2940,-4.218,2.32,-4.461,62.744,9.46,-186.768,-8.811,-4.279,-69.67
 14:42:09.427,eb:33:2e:f9:57:b5, 2085-97-210 238:100:08:-2588,0.962,-1.364,-3.537,74.768,149.17,16.724,-8.976,0.077,-69.697
 14:42:09.453,eb:33:2e:f9:57:b5, 2085-97-16 249:175:03:526,-1.332,-0.345,1.619,64.148,6.958,-8.118,-8.234,0.159,-70.131
 14:42:09.453,eb:33:2e:f9:57:b5, 2085-97-225 00:66:01:2104,1.488,-0.095,0.181,55.847,-55.969,-45.593,-7.668,0.132,-70.356
 14:42:09.453,eb:33:2e:f9:57:b5, 2085-97-162 08:113:01:4701,0.626,0.112,2.173,69.336,-47.058,-49.866,-7.031,-0.709,-70.829
 14:42:09.453,eb:33:2e:f9:57:b5, 2085-97-39 06:33:250:9052,0.228,1.041,0.473,60.791,-28.259,-95.642,-6.443,-0.818,-71.461
 14:42:09.544,eb:33:2e:f9:57:b5, 2085-97-72 02:250:253:4596,0.115,-0.735,3.077,82.642,149.902,-39.001,-5.663,-0.17,-72.378
 14:42:09.545,eb:33:2e:f9:57:b5, 2085-97-54 254:62:247:6152,-0.04,-0.747,2.771,112.976,137.817,16.724,-4.68,1.219,-72.62
 14:42:09.545,eb:33:2e:f9:57:b5, 2085-97-163 03:64:248:7066,0.533,-0.969,3.066,169.434,125.427,79.407,-3.268,2.593,-72.12
 14:42:09.545,eb:33:2e:f9:57:b5, 2085-97-09 07:254:244:8317,0.944,-1.237,3.652,256.042,150.146,80.322,-1.06,3.977,-71.329
 14:42:09.545,eb:33:2e:f9:57:b5, 2085-97-00 10:11:242:8394,1.596,-1.363,4.032,365.906,192.932,49.133,2.098,5.768,-70.604
 14:42:09.545,eb:33:2e:f9:57:b5, 2085-97-105 14:184:235:7751,1.764,-2.255,4.074,513.123,185.181,-13.306,6.575,7.668,-70.318
 14:42:09.546,eb:33:2e:f9:57:b5, 2085-97-213 10:195:235:10823,0.849,-2.792,4.043,713.257,135.681,-90.454,12.7,9.305,-70.543
 14:42:09.546,eb:33:2e:f9:57:b5, 2085-97-198 01:218:10:12822,-0.021,-1.393,5.934,879.761,182.434,-131.226,20.737,11.272,-71.29
 14:42:09.574,eb:33:2e:f9:57:b5, 2085-97-164 254:135:33:15268,0.116,3.578,7.581,821.472,67.322,-231.445,29.169,13.057,-72.433
 14:42:09.574,eb:33:2e:f9:57:b5, 2085-97-20 04:34:23:13670,1.365,4.6,6.611,653.992,177.49,-323.853,35.909,15.688,-74.147
 14:42:09.574,eb:33:2e:f9:57:b5, 2085-97-63 255:26:16:5769,-0.198,0.208,4.412,645.813,263.611,-169.861,42.286,19.418,-74.537
 14:42:09.574,eb:33:2e:f9:57:b5, 2085-97-223 253:32:05:13288,0.136,0.559,4.433,455.872,132.874,-76.599,47.686,21.616,-74.163
 14:42:09.634,eb:33:2e:f9:57:b5, 2085-97-43 03:138:255:22597,0.949,0.137,9.766,467.529,169.189,6.042,52.333,22.555,-73.466
 14:42:09.634,eb:33:2e:f9:57:b5, 2085-97-63 11:45:249:18462,1.932,-0.444,10.083,587.036,357.971,59.021,58.832,23.851,-70.637
 14:42:09.634,eb:33:2e:f9:57:b5, 2085-97-215 19:243:246:15163,2.867,-1.089,8.105,606.995,371.033,61.646,66.478,24.922,-66.61
 14:42:09.634,eb:33:2e:f9:57:b5, 2085-97-87 25:35:247:12696,3.186,-1.093,6.693,551.453,262.695,-14.893,73.718,25.735,-63.259
 14:42:09.665,eb:33:2e:f9:57:b5, 2085-97-89 25:50:247:10935,2.991,-1.062,5.686,480.225,158.264,-146.606,79.618,26.966,-61.254
 14:42:09.665,eb:33:2e:f9:57:b5, 2085-97-170 21:67:247:9923,2.354,-1.036,5.022,413.879,70.679,-295.532,84.496,29.372,-60.37
 14:42:09.665,eb:33:2e:f9:57:b5, 2085-97-200 15:213:240:9956,1.66,-1.422,4.849,334.717,-5.127,-417.725,88.11,33.019,-60.337
 14:42:09.665,eb:33:2e:f9:57:b5, 2085-97-223 10:63:233:9496,1.06,-2.396,4.797,243.958,-7.385,-456.36,90.895,37.491,-60.513
 14:42:09.693,eb:33:2e:f9:57:b5, 2085-113-81 00:81:54:23315,0.935,-3.293,4.279,132.568,48.34,-398.987,92.917,41.776,-60.079
 14:42:09.693,eb:33:2e:f9:57:b5, 2085-97-71 05:121:224:6733,0.544,-3.585,3.905,77.881,85.205,-345.032,93.862,43.583,-59.425
 14:42:09.693,eb:33:2e:f9:57:b5, 2085-97-100 04:168:219:4631,0.551,-4.251,2.702,-23.682,120.911,-215.637,95.394,46.225,-57.601
 14:42:09.693,eb:33:2e:f9:57:b5, 2085-97-81 05:16:219:2638,0.77,-4.666,1.894,-122.314,153.625,-79.773,96.053,47.422,-55.459
 14:42:09.725,eb:33:2e:f9:57:b5, 2085-97-44 08:14:221:-2812,1.511,-4.509,0.103,-235.229,162.17,48.767,95.988,47.324,-53.13
 14:42:09.725,eb:33:2e:f9:57:b5, 2085-97-207 16:255:225:-6297,2.665,-4.058,-2.567,-404.602,167.908,167.297,94.175,45.961,-50.999
 14:42:09.725,eb:33:2e:f9:57:b5, 2085-97-251 25:58:231:-8052,3.65,-3.443,-3.493,-534.363,61.157,195.618,90.439,43.995,-49.499
 14:42:09.725,eb:33:2e:f9:57:b5, 2085-97-194 30:33:234:-7348,3.87,-2.819,-4.045,-597.412,-121.521,174.744,84.26,42.105,-50.026
 14:42:09.783,eb:33:2e:f9:57:b5, 2085-97-144 30:196:231:-2981,3.711,-2.857,-2.613,-634.094,-277.954,140.503,76.437,40.215,-52.603
 14:42:09.783,eb:33:2e:f9:57:b5, 2085-97-237 28:102:230:458,3.633,-3.189,-0.529,-688.66,-297.119,113.22,67.659,38.128,-55.887
 14:42:09.783,eb:33:2e:f9:57:b5, 2085-97-13 29:179:232:3184,3.525,-3.096,0.921,-749.695,-282.898,67.993,58.782,36.041,-58.7
 14:42:09.783,eb:33:2e:f9:57:b5, 2085-97-135 27:89:235:5656,3.37,-2.757,2.13,-812.683,-291.443,-6.226,49.279,34.129,-61.436
 14:42:09.813,eb:33:2e:f9:57:b5, 2085-97-37 26:252:237:7655,3.126,-2.41,3.316,-854.98,-317.627,-92.407,39.227,32.333,-64.523
 14:42:09.813,eb:33:2e:f9:57:b5, 2085-97-55 22:190:240:8213,2.543,-2.054,4.028,-852.173,-342.346,-167.48,28.707,30.322,-68.121
 14:42:09.813,eb:33:2e:f9:57:b5, 2085-97-225 15:37:241:7253,1.267,-1.85,3.936,-828.003,-376.038,-214.844,18.49,27.839,-71.911
 14:42:09.813,eb:33:2e:f9:57:b5, 2085-97-114 05:119:242:6920,0.2,-1.832,3.372,-802.002,-442.871,-187.744,8.745,24.28,-75.311
 14:42:09.844,eb:33:2e:f9:57:b5, 2085-97-47 255:41:250:5945,-0.311,-1.323,3.301,-763.367,-482.361,-95.886,0.181,19.764,-77.278
 14:42:09.844,eb:33:2e:f9:57:b5, 2085-97-176 251:32:08:4861,-0.903,0.074,2.449,-711.609,-541.565,18.677,-7.328,14.573,-77.377
 14:42:09.844,eb:33:2e:f9:57:b5, 2085-97-205 245:57:24:6441,-1.796,2.213,2.69,-614.319,-637.634,106.201,-13.667,8.882,-75.63
 14:42:09.844,eb:33:2e:f9:57:b5, 2085-97-134 236:04:33:9914,-2.993,3.671,3.911,-457.336,-680.664,172.119,-18.809,2.747,-72.449
 14:42:09.904,eb:33:2e:f9:57:b5, 2085-97-135 227:201:39:12463,-3.886,4.443,5.708,-329.346,-585.938,235.779,-22.582,-2.554,-68.318
 14:42:09.904,eb:33:2e:f9:57:b5, 2085-97-244 224:02:52:13258,-3.525,5.692,6.224,-300.537,-485.657,294.617,-26.208,-6.29,-63.71
 14:42:09.904,eb:33:2e:f9:57:b5, 2085-97-49 233:55:67:14417,-2.252,7.464,6.784,-196.838,-396.057,285.583,-29.377,-8.877,-58.98
 14:42:09.905,eb:33:2e:f9:57:b5, 2085-97-22 240:79:74:12476,-2.188,9.063,6.932,-65.857,-219.299,167.358,-31.278,-10.393,-55.443
 14:42:10.053,eb:33:2e:f9:57:b5, 2085-97-113 235:93:69:9472,-2.895,9.166,5.106,-12.634,-102.417,29.297,-31.882,-11.179,-53.915
 14:42:10.053,eb:33:2e:f9:57:b5, 2085-97-125 233:215:55:8653,-2.46,7.848,4.51,47.18,-41.931,-46.753,-31.833,-11.887,-53.701
 14:42:10.053,eb:33:2e:f9:57:b5, 2085-97-177 238:42:45:5519,-3.176,6.27,3.578,115.723,38.33,-76.172,-30.833,-12.184,-54.289
 14:42:10.053,eb:33:2e:f9:57:b5, 2085-97-110 79:31:249:11684,-3.621,6.003,8.371,979.126,310.242,-441.528,-25.911,-11.596,-55.739
 14:42:10.058,eb:33:2e:f9:57:b5, 2085-97-06 233:178:52:-8468,-0.758,4.291,3.852,789.978,418.213,-797.241,-14.332,-12.09,-64.468
 14:42:10.058,eb:33:2e:f9:57:b5, 2085-97-33 214:22:253:-9220,-1.626,2.726,1.525,-13.306,461.853,153.259,-11.827,-6.29,-65.687
 14:42:10.058,eb:33:2e:f9:57:b5, 2085-97-204 254:38:00:1396,1.09,0.043,0.517,63.965,70.068,-38.33,-11.288,-4.46,-66.116
 14:42:10.058,eb:33:2e:f9:57:b5, 2085-97-36 245:66:02:-350,-0.885,0.167,1.816,58.228,23.987,-0.793,-10.673,-4.642,-66.401
 14:42:10.058,eb:33:2e:f9:57:b5, 2085-97-123 05:44:01:3052,1.326,-0.258,0.627,60.608,-84.229,-35.4,-10.113,-5.18,-66.555
 14:42:10.058,eb:33:2e:f9:57:b5, 2085-97-214 05:137:01:3716,1.308,0.085,2.251,83.679,-54.504,-42.297,-9.316,-6.086,-66.868
 14:42:10.058,eb:33:2e:f9:57:b5, 2085-97-122 05:93:251:10455,-0.182,0.881,0.236,127.38,-99.426,-108.276,-8.311,-6.658,-67.451
 14:42:10.058,eb:33:2e:f9:57:b5, 2085-97-26 02:11:252:5250,-0.125,-1.248,3.834,115.417,182.739,-23.987,-7.07,-6.064,-68.483
 14:42:10.060,eb:33:2e:f9:57:b5, 2085-97-237 253:77:247:5879,0.078,-0.857,2.82,148.193,167.175,58.228,-5.768,-4.285,-68.417
 14:42:10.060,eb:33:2e:f9:57:b5, 2085-97-32 01:18:247:6825,0.146,-0.964,3.204,209.778,131.104,85.876,-4.026,-2.796,-67.813
 14:42:10.060,eb:33:2e:f9:57:b5, 2085-97-253 03:51:243:8167,0.8,-1.424,3.364,303.833,126.099,72.144,-1.472,-1.472,-67.033
 14:42:10.060,eb:33:2e:f9:57:b5, 2085-97-35 10:57:238:8633,1.558,-1.752,4.244,432.19,139.099,37.109,2.208,-0.137,-66.506
 14:42:10.083,eb:33:2e:f9:57:b5, 2085-97-18 14:112:233:8775,0.864,-2.49,4.114,598.755,136.047,-19.287,7.399,1.241,-66.313
 14:42:10.083,eb:33:2e:f9:57:b5, 2085-97-218 253:71:241:11773,-0.068,-2.429,4.784,792.786,126.282,-45.288,14.392,2.565,-66.412
 14:42:10.083,eb:33:2e:f9:57:b5, 2085-97-41 00:10:17:14809,0.688,-0.63,6.117,906.799,84.778,-72.083,23.06,3.878,-66.731
 14:42:10.083,eb:33:2e:f9:57:b5, 2085-97-251 00:231:37:11680,-0.116,3.674,7.133,814.331,16.174,-174.744,31.772,4.867,-67.648
 14:42:10.175,eb:33:2e:f9:57:b5, 2085-97-209 03:120:05:13538,-1.116,4.297,5.316,654.419,-11.047,-263.245,38.639,6.191,-69.637
 14:42:10.175,eb:33:2e:f9:57:b5, 2085-97-09 247:158:04:6527,-1.433,1.959,2.528,587.524,91.736,-93.14,45.016,7.85,-70.4
 14:42:10.175,eb:33:2e:f9:57:b5, 2085-97-48 250:32:255:16879,-0.281,0.306,5.392,414.856,146.912,88.013,49.889,8.481,-69.445
 14:42:10.175,eb:33:2e:f9:57:b5, 2085-97-11 02:109:254:19886,0.831,-0.397,10.308,489.99,385.681,233.459,54.657,8.69,-66.27
 14:42:10.204,eb:33:2e:f9:57:b5, 2085-97-175 12:60:01:16014,2.093,-0.026,8.346,640.198,395.508,275.696,61.194,8.591,-61.348
 14:42:10.204,eb:33:2e:f9:57:b5, 2085-97-81 20:17:07:15455,2.861,0.515,7.564,683.96,309.204,199.036,68.428,7.839,-57.09
 14:42:10.204,eb:33:2e:f9:57:b5, 2085-97-251 23:145:05:14094,3.103,0.918,7.325,664.795,171.692,-8.667,75.536,7.685,-54.597
 14:42:10.204,eb:33:2e:f9:57:b5, 2085-97-56 25:143:00:13049,3.066,0.298,6.523,602.661,59.998,-248.169,81.876,9.278,-53.806
 14:42:10.235,eb:33:2e:f9:57:b5, 2085-97-202 22:231:249:11589,2.513,-0.181,6.098,515.503,-5.188,-465.82,87.418,13.002,-53.921
 14:42:10.235,eb:33:2e:f9:57:b5, 2085-97-92 17:227:240:11158,1.812,-1.34,5.458,411.316,-77.942,-612.793,91.736,18.567,-54.388
 14:42:10.235,eb:33:2e:f9:57:b5, 2085-97-33 11:206:232:11014,0.89,-2.37,5.413,313.721,-112.305,-644.287,95.103,25.021,-55.036
 14:42:10.235,eb:33:2e:f9:57:b5, 2085-97-255 03:54:223:10262,0.11,-3.491,5.227,209.229,-94.543,-569.519,97.35,31.179,-55.437
 14:42:10.265,eb:33:2e:f9:57:b5, 2085-97-45 254:110:214:8185,-0.38,-4.752,4.581,99.854,-12.634,-401.55,98.987,36.041,-55.234
 14:42:10.265,eb:33:2e:f9:57:b5, 2085-97-204 252:126:211:5012,0.108,-5.435,3.296,-9.888,121.765,-164.062,100.02,38.595,-53.981
 14:42:10.265,eb:33:2e:f9:57:b5, 2085-97-242 06:255:211:3087,1.627,-5.627,1.908,-128.723,241.76,48.889,100.811,38.65,-51.564
 14:42:10.265,eb:33:2e:f9:57:b5, 2085-97-128 15:145:215:-3831,2.973,-5.409,0.53,-254.883,359.924,211.243,100.827,36.634,-48.12
 14:42:10.265,eb:33:2e:f9:57:b5, 2085-113-58 00:246:235:-3090,3.385,-4.85,-3.912,-445.74,362.488,326.904,99.432,33.234,-44.473
 14:42:10.415,eb:33:2e:f9:57:b5, 2085-97-65 31:88:222:-10560,4.529,-4.578,-5.346,-544.067,249.695,317.688,97.515,31.404,-43.11
 14:42:10.415,eb:33:2e:f9:57:b5, 2085-97-189 37:43:228:-7968,4.378,-3.768,-4.542,-659.973,-61.035,203.247,91.648,28.746,-42.599
 14:42:10.415,eb:33:2e:f9:57:b5, 2085-97-191 32:131:225:-2615,3.685,-3.601,-2.749,-718.079,-261.719,90.576,83.622,27.318,-44.764
 14:42:10.415,eb:33:2e:f9:57:b5, 2085-97-185 26:113:224:2204,3.074,-3.944,-0.081,-768.982,-306.885,16.296,74.762,26.345,-47.928
 14:42:10.417,eb:33:2e:f9:57:b5, 2085-97-165 20:78:227:5526,2.563,-3.878,2.186,-831.299,-277.588,-35.889,65.209,25.466,-51.262
 14:42:10.417,eb:33:2e:f9:57:b5, 2085-97-196 19:35:233:8192,2.491,-3.313,3.475,-903.076,-244.507,-77.454,55.283,24.664,-54.174
 14:42:10.417,eb:33:2e:f9:57:b5, 2085-97-01 18:53:240:9168,2.018,-2.372,4.487,-940.613,-213.867,-140.808,44.753,24.088,-56.953
 14:42:10.417,eb:33:2e:f9:57:b5, 2085-97-134 13:146:240:8921,1.349,-1.826,4.438,-914.612,-284.363,-205.383,34.151,23.335,-60.233
 14:42:10.417,eb:33:2e:f9:57:b5, 2085-97-06 08:74:238:9156,0.784,-2.118,4.348,-870.789,-366.333,-210.083,23.665,21.462,-64.089
 14:42:10.417,eb:33:2e:f9:57:b5, 2085-97-157 04:243:238:9473,0.536,-2.277,4.616,-835.449,-393.005,-156.921,14.057,18.446,-67.324
 14:42:10.417,eb:33:2e:f9:57:b5, 2085-97-194 04:55:247:8031,0.521,-1.702,4.347,-809.448,-375.854,-62.927,5.197,14.826,-69.153
 14:42:10.417,eb:33:2e:f9:57:b5, 2085-97-222 03:88:03:6446,0.37,-0.312,3.387,-793.701,-432.556,8.667,-2.889,10.876,-69.483
 14:42:10.419,eb:33:2e:f9:57:b5, 2085-97-04 02:55:12:7748,0.143,1.005,3.345,-759.216,-534.485,52.185,-10.695,5.966,-68.621
 14:42:10.419,eb:33:2e:f9:57:b5, 2085-97-214 255:255:19:9845,-0.317,2.003,4.291,-687.744,-565.308,80.2,-17.82,0.714,-66.632
 14:42:10.419,eb:33:2e:f9:57:b5, 2085-97-30 250:95:27:12339,-1.195,2.985,5.398,-605.53,-551.086,92.712,-24.478,-4.252,-63.842
 14:42:10.419,eb:33:2e:f9:57:b5, 2085-97-49 243:38:35:14533,-2.035,3.885,6.569,-561.523,-523.376,97.961,-30.63,-8.597,-60.535
 14:42:10.474,eb:33:2e:f9:57:b5, 2085-97-122 236:255:44:16026,-2.78,4.957,7.458,-529.907,-505.981,96.68,-36.92,-12.387,-56.843
 14:42:10.476,eb:33:2e:f9:57:b5, 2085-97-193 232:71:60:16671,-2.321,6.404,8.177,-394.897,-463.684,79.651,-42.572,-15.639,-52.905
 14:42:10.476,eb:33:2e:f9:57:b5, 2085-97-32 240:85:71:16954,-2.168,8.536,8.212,-176.758,-304.749,0.183,-46.285,-18.051,-49.839
 14:42:10.476,eb:33:2e:f9:57:b5, 2085-97-233 231:56:68:12138,-3.65,8.801,7.364,-42.358,-121.399,-123.718,-47.549,-19.968,-48.801
 14:42:10.504,eb:33:2e:f9:57:b5, 2085-97-32 227:29:58:11053,-3.088,7.791,5.179,7.202,-73.608,-196.777,-47.543,-21.841,-49.356
 14:42:10.504,eb:33:2e:f9:57:b5, 2085-97-147 236:177:56:9515,-1.961,7.104,5.32,75.684,85.266,-214.783,-46.511,-23.269,-50.993
 14:42:10.504,eb:33:2e:f9:57:b5, 2085-97-41 242:76:48:5337,1.486,6.869,3.513,176.392,163.391,-251.709,-44.055,-23.873,-53.948
 14:42:10.504,eb:33:2e:f9:57:b5, 2085-97-148 24:12:250:-6999,6.605,3.28,5.364,703.613,568.359,55.847,-39.551,-24.247,-57.167
 14:42:10.534,eb:33:2e:f9:57:b5, 2085-97-157 213:36:38:8989,-6.25,3.255,-0.721,1149.78,734.192,-655.029,-26.581,-23.796,-63.364
 14:42:10.534,eb:33:2e:f9:57:b5, 2085-97-23 216:233:31:-13300,-0.152,0.401,1.698,553.284,1223.511,-135.681,-14.837,-15.266,-72.614
 14:42:10.534,eb:33:2e:f9:57:b5, 2085-97-241 242:12:248:-1084,-0.172,0.284,2.729,20.203,343.933,19.104,-13.206,-10.3,-73.444
 14:42:10.534,eb:33:2e:f9:57:b5, 2085-97-79 247:106:05:-603,-0.476,-0.128,0.806,62.195,68.848,20.874,-12.7,-9.031,-73.521
 14:42:10.625,eb:33:2e:f9:57:b5, 2085-97-103 255:187:255:2234,0.448,0.385,0.558,25.513,-56.274,-19.104,-12.376,-9.207,-73.488
 14:42:10.625,eb:33:2e:f9:57:b5, 2085-97-13 01:147:00:2187,0.331,-0.266,1.514,35.889,-49.133,-7.08,-12.036,-9.871,-73.542
 14:42:10.625,eb:33:2e:f9:57:b5, 2085-97-118 254:43:01:1431,-0.167,0.194,1.186,30.579,-52.49,-1.77,-11.711,-10.377,-73.531
 14:42:10.625,eb:33:2e:f9:57:b5, 2085-97-139 02:23:254:3206,0.204,-0.072,0.882,23.987,-140.686,18.616,-11.486,-11.387,-73.301
 14:42:10.627,eb:33:2e:f9:57:b5, 2085-97-62 07:93:244:12611,1.153,-0.674,3.649,86.914,-164.062,12.512,-11.074,-12.892,-72.735
 14:42:10.627,eb:33:2e:f9:57:b5, 2085-97-16 14:227:245:11333,1.833,-1.234,5.605,167.664,1.831,20.996,-9.855,-13.552,-72.482
 14:42:10.627,eb:33:2e:f9:57:b5, 2085-97-102 16:136:241:10930,2.27,-1.423,5.713,282.898,148.071,13,-7.603,-12.711,-72.444
 14:42:10.627,eb:33:2e:f9:57:b5, 2085-97-70 19:221:234:10290,2.448,-2.047,5.057,430.786,292.664,-21.24,-3.911,-10.382,-72.74
 14:42:10.654,eb:33:2e:f9:57:b5, 2085-97-182 14:156:236:9812,1.644,-2.763,4.774,608.643,240.295,-32.654,1.335,-7.526,-73.065
 14:42:10.654,eb:33:2e:f9:57:b5, 2085-97-03 10:236:22:9947,0.336,-0.735,4.842,869.568,160.95,-170.898,8.948,-5.614,-74.004
 14:42:10.654,eb:33:2e:f9:57:b5, 2085-97-08 252:96:54:9275,-0.777,5.029,4.903,1006.531,18.921,-303.345,18.721,-4.037,-76.278
 14:42:10.654,eb:33:2e:f9:57:b5, 2085-97-104 248:58:41:14071,-0.032,6.268,4.987,949.28,-206.177,-407.654,28.828,-3.702,-80.288
 14:42:10.775,eb:33:2e:f9:57:b5, 2085-97-06 239:185:18:13618,-1.203,0.71,9.596,960.876,84.9,-326.233,38.491,-2.126,-84.265
 14:42:10.775,eb:33:2e:f9:57:b5, 2085-97-48 245:209:251:18210,-0.245,-0.451,7.787,738.22,398.621,-87.891,46.901,1.203,-84.166
 14:42:10.775,eb:33:2e:f9:57:b5, 2085-97-51 05:77:254:21487,1.528,-0.611,9.991,593.079,707.336,160.4,53.564,4.433,-79.387
 14:42:10.775,eb:33:2e:f9:57:b5, 2085-97-238 16:43:14:19850,2.429,0.778,10.138,613.159,743.164,254.395,60.244,6.575,-71.757
 14:42:10.775,eb:33:2e:f9:57:b5, 2085-97-101 25:197:26:18218,3.217,3.131,8.237,712.708,455.322,116.089,67.577,7.427,-65.182
 14:42:10.775,eb:33:2e:f9:57:b5, 2085-97-112 24:249:23:18509,2.782,3.404,9.005,777.222,248.169,-120.361,75.526,8.542,-61.968
 14:42:10.775,eb:33:2e:f9:57:b5, 2085-97-37 19:50:10:18698,1.982,2.124,9.097,777.832,116.394,-361.45,83.485,11.409,-60.776
 14:42:10.775,eb:33:2e:f9:57:b5, 2085-97-48 13:242:253:17015,1.364,0.525,8.816,690.369,101.562,-499.634,91.071,15.914,-59.919
 14:42:10.777,eb:33:2e:f9:57:b5, 2085-97-182 07:45:244:14945,0.602,-0.978,7.746,539.673,138.367,-518.738,97.608,20.995,-58.217
 14:42:10.777,eb:33:2e:f9:57:b5, 2085-97-19 03:202:237:14104,0.319,-1.895,7.039,387.207,185.303,-435.547,103.244,25.378,-55.525
 14:42:10.777,eb:33:2e:f9:57:b5, 2085-97-107 02:100:232:12996,0.342,-2.641,6.675,262.512,261.719,-294.006,107.847,28.235,-52.064
 14:42:10.777,eb:33:2e:f9:57:b5, 2085-97-218 03:193:229:11469,0.696,-3.156,5.941,168.457,343.323,-131.104,111.901,29.059,-48.01
 14:42:10.864,eb:33:2e:f9:57:b5, 2085-97-218 06:230:230:9469,1.254,-3.097,5.085,103.088,375.366,-1.099,114.972,28.087,-44.05
 14:42:10.864,eb:33:2e:f9:57:b5, 2085-97-196 12:128:231:7886,1.875,-3.038,4.351,57.556,339.6,73.914,117.263,26.076,-40.776
 14:42:10.864,eb:33:2e:f9:57:b5, 2085-97-105 18:50:224:3951,2.687,-3.399,3.018,33.691,262.573,80.627,118.575,23.978,-38.392
 14:42:10.864,eb:33:2e:f9:57:b5, 2085-97-21 23:109:217:1338,3.637,-4.531,1.475,8.301,160.339,59.937,119.427,22.462,-36.92
 14:42:10.866,eb:33:2e:f9:57:b5, 2085-97-107 45:92:206:-13265,5.536,-5.09,-1.832,-111.084,138.245,106.384,119.152,21.171,-36.266
 14:42:10.866,eb:33:2e:f9:57:b5, 2085-97-135 37:190:189:-15535,4.471,-7.714,-8.207,-457.581,227.905,88.135,116.664,19.1,-34.827
 14:42:10.866,eb:33:2e:f9:57:b5, 2085-97-72 38:15:187:-11643,4.878,-8.487,-7.396,-664.001,-137.268,16.724,110.841,18.704,-34.799
 14:42:10.866,eb:33:2e:f9:57:b5, 2085-97-188 33:109:194:-2964,4.182,-8.361,-3.001,-828.43,-282.959,5.676,102.464,19.396,-37.365
 14:42:10.894,eb:33:2e:f9:57:b5, 2085-97-140 31:161:206:2572,3.887,-6.936,0.385,-936.768,-320.496,-2.93,92.362,19.852,-40.798
 14:42:10.894,eb:33:2e:f9:57:b5, 2085-97-30 27:161:215:7645,3.054,-5.523,2.586,-1021.851,-375.977,-59.814,81.233,19.968,-44.659
 14:42:10.894,eb:33:2e:f9:57:b5, 2085-97-21 24:16:219:13279,2.984,-4.898,4.9,-1112.183,-400.33,-113.098,68.956,19.946,-49.026
 14:42:10.894,eb:33:2e:f9:57:b5, 2085-97-142 22:198:225:18377,2.892,-4.239,8.141,-1138.184,-400.757,-188.904,56.074,19.446,-53.624
 14:42:11.015,eb:33:2e:f9:57:b5, 2085-97-17 23:189:235:16046,2.646,-3.14,8.807,-1071.289,-373.901,-321.167,43.303,18.94,-58.705
 14:42:11.015,eb:33:2e:f9:57:b5, 2085-97-98 18:104:239:12926,1.532,-2.182,6.799,-1037.292,-350.708,-420.898,31.069,18.452,-64.204
 14:42:11.015,eb:33:2e:f9:57:b5, 2085-97-104 04:22:237:10749,-0.535,-2.175,5.683,-1012.085,-396.423,-465.027,18.858,17.045,-70.247
 14:42:11.015,eb:33:2e:f9:57:b5, 2085-97-08 246:96:236:10490,-1.687,-2.432,5.114,-956.421,-482.544,-394.409,7.548,13.738,-75.712
 14:42:11.015,eb:33:2e:f9:57:b5, 2085-97-216 239:191:244:8050,-1.911,-2.196,4.794,-865.601,-439.087,-212.219,-2.346,9.174,-79.14
 14:42:11.015,eb:33:2e:f9:57:b5, 2085-97-108 243:65:07:5262,-1.277,-0.292,3.181,-757.202,-434.57,-0.061,-10.503,4.883,-79.607
 14:42:11.015,eb:33:2e:f9:57:b5, 2085-97-174 246:168:21:4737,-1.371,1.927,2.108,-608.948,-562.256,134.277,-17.364,0.214,-77.717
 14:42:11.016,eb:33:2e:f9:57:b5, 2085-97-189 241:72:31:10015,-2,3.356,3.341,-457.764,-729.309,215.393,-22.797,-5.367,-73.768
 14:42:11.193,eb:33:2e:f9:57:b5, 2085-97-186 238:87:32:14546,-2.278,3.981,6.582,-335.205,-701.904,232.422,-27.565,-11.266,-68.566
 14:42:11.193,eb:33:2e:f9:57:b5, 2085-97-17 236:255:42:12673,-2.437,4.613,6.639,-341.675,-408.569,261.353,-31.97,-14.777,-63.638
 14:42:11.193,eb:33:2e:f9:57:b5, 2085-97-182 237:52:55:13396,-2.085,6.028,6.376,-351.501,-353.882,209.167,-36.799,-16.469,-59.513
 14:42:11.193,eb:33:2e:f9:57:b5, 2085-97-231 241:74:68:15978,-1.341,7.887,7.142,-220.215,-342.285,121.765,-40.792,-18.243,-55.816
 14:42:11.224,eb:33:2e:f9:57:b5, 2085-97-239 245:90:66:13765,-1.979,8.556,7.692,-81.726,-156.067,-23.254,-42.929,-19.847,-53.789
 14:42:11.224,eb:33:2e:f9:57:b5, 2085-113-58 00:89:227:2835,-2.661,8.139,5.438,-11.047,-80.505,-113.098,-43.358,-21.039,-53.729
 14:42:11.224,eb:33:2e:f9:57:b5, 2085-97-103 233:89:55:10963,-2.823,7.54,4.717,45.41,-134.216,-133.118,-43.22,-21.879,-53.833
 14:42:11.224,eb:33:2e:f9:57:b5, 2085-97-24 237:11:49:10815,-1.961,6.621,5.467,144.104,-77.454,-142.639,-42.204,-23.522,-54.108
 14:42:11.226,eb:33:2e:f9:57:b5, 2085-97-155 245:165:43:7311,0.37,5.898,4.225,228.577,103.882,-119.141,-39.716,-24.066,-55.366
 14:42:11.226,eb:33:2e:f9:57:b5, 2085-97-24 85:94:242:8239,3.653,5.853,1.925,858.093,-38.94,-526.55,-33.536,-24.939,-57.805
 14:42:11.226,eb:33:2e:f9:57:b5, 2085-97-171 255:123:28:687,-6.733,1.399,5.955,820.374,533.081,-756.47,-20.583,-22.242,-67.264
 14:42:11.226,eb:33:2e:f9:57:b5, 2085-97-28 221:73:255:-3958,-2.627,4.761,-6.034,24.414,497.864,74.097,-16.902,-13.387,-70.746
 14:42:11.228,eb:33:2e:f9:57:b5, 2085-97-90 04:213:252:3339,-0.195,0.358,-1.089,56.213,31.86,-54.871,-16.194,-11.459,-71.526
 14:42:11.228,eb:33:2e:f9:57:b5, 2085-97-188 246:06:05:-233,-0.395,0.008,0.631,38.879,20.508,46.57,-15.645,-11.129,-71.697
 14:42:11.228,eb:33:2e:f9:57:b5, 2085-97-147 02:21:00:2666,0.718,-0.05,0.989,35.461,-50.72,-22.644,-15.375,-11.536,-71.576
 14:42:11.228,eb:33:2e:f9:57:b5, 2085-97-58 04:238:01:2699,0.493,0.012,1.399,43.579,-43.762,-4.7,-14.963,-11.986,-71.724
 14:42:11.254,eb:33:2e:f9:57:b5, 2085-97-122 04:62:255:3999,0.417,0.353,1.517,51.941,-37.659,-51.086,-14.442,-12.431,-71.856
 14:42:11.254,eb:33:2e:f9:57:b5, 2085-97-148 10:94:231:10216,1.996,-0.207,1.461,80.75,-59.204,-23.254,-13.815,-12.59,-72.345
 14:42:11.254,eb:33:2e:f9:57:b5, 2085-97-01 15:41:232:8989,1.301,-3.553,4.868,683.716,144.592,-29.724,1.11,-5.587,-72.598
 14:42:11.254,eb:33:2e:f9:57:b5, 2085-97-185 09:226:253:9958,0.771,-1.626,4.756,898.254,96.863,-118.286,9.179,-4.351,-73.202
 14:42:11.256,eb:33:2e:f9:57:b5, 2085-97-161 04:220:26:12255,0.039,2.553,5.406,997.009,-3.906,-245.3,18.853,-3.351,-74.888
 14:42:11.256,eb:33:2e:f9:57:b5, 2085-97-228 254:152:25:14436,0.087,3.499,6.357,975.098,-110.229,-302.856,28.96,-2.686,-77.717
 14:42:11.256,eb:33:2e:f9:57:b5, 2085-97-255 244:27:03:14542,-0.979,-0.268,9.4,986.938,-36.56,-278.198,38.721,-1.824,-81.129
 14:42:11.256,eb:33:2e:f9:57:b5, 2085-97-75 247:171:249:13612,-0.695,-0.263,6.366,786.682,233.154,-110.962,47.747,0.258,-81.98
 14:42:11.344,eb:33:2e:f9:57:b5, 2085-97-180 00:161:00:16496,0.716,-0.35,6.949,541.504,467.712,66.345,54.283,2.554,-79.036
 14:42:11.344,eb:33:2e:f9:57:b5, 2085-97-183 09:38:14:18025,1.808,0.941,8.582,446.289,625.427,148.315,59.288,4.625,-73.603
 14:42:11.344,eb:33:2e:f9:57:b5, 2085-97-246 18:133:14:16618,2.691,2.054,8.8,542.297,491.699,63.232,64.671,6.257,-68.044
 14:42:11.344,eb:33:2e:f9:57:b5, 2085-97-16 22:87:10:13521,2.66,1.432,7.256,654.175,289.062,-101.196,71.131,7.927,-64.682
 14:42:11.346,eb:33:2e:f9:57:b5, 2085-97-20 20:197:03:12137,2.202,1.007,6.244,626.709,141.113,-288.818,77.866,10.426,-63.276
 14:42:11.346,eb:33:2e:f9:57:b5, 2085-97-136 14:106:249:10726,1.397,-0.196,5.475,491.882,62.683,-429.016,83.425,14.288,-62.935
 14:42:11.346,eb:33:2e:f9:57:b5, 2085-97-169 07:119:241:11107,0.603,-1.34,5.244,361.816,18.372,-472.717,87.599,18.924,-62.946
 14:42:11.346,eb:33:2e:f9:57:b5, 2085-97-101 02:117:233:11309,0.074,-2.325,5.611,274.231,31.677,-430.786,90.665,23.505,-62.842
 14:42:11.375,eb:33:2e:f9:57:b5, 2085-97-155 255:229:226:9381,0.006,-3.256,5.153,191.956,122.925,-312.378,93.417,27.169,-61.848
 14:42:11.375,eb:33:2e:f9:57:b5, 2085-97-117 01:238:223:7160,0.454,-3.904,3.986,101.257,210.693,-157.166,95.74,29.306,-59.755
 14:42:11.375,eb:33:2e:f9:57:b5, 2085-97-69 05:249:223:4804,1.228,-3.95,3.025,7.324,269.287,-19.226,97.668,29.756,-56.904
 14:42:11.375,eb:33:2e:f9:57:b5, 2085-97-33 12:202:223:1939,1.657,-3.925,1.783,-73.608,274.719,54.138,98.613,29.13,-54.025
 14:42:11.463,eb:33:2e:f9:57:b5, 2085-97-31 17:201:225:-1133,2.84,-3.809,0.062,-167.297,197.266,104.004,98.613,27.839,-51.465
 14:42:11.463,eb:33:2e:f9:57:b5, 2085-97-175 28:08:225:-7774,3.717,-3.675,-1.652,-299.255,117.981,109.497,96.762,26.62,-50.229
 14:42:11.463,eb:33:2e:f9:57:b5, 2085-97-140 28:138:221:-8526,3.509,-4.149,-4.711,-535.217,57.373,47.546,92.884,25.692,-49.318
 14:42:11.463,eb:33:2e:f9:57:b5, 2085-97-107 27:102:222:-6053,3.202,-4.235,-3.498,-681.702,-137.146,-48.218,86.276,25.834,-50.004
 14:42:11.465,eb:33:2e:f9:57:b5, 2085-97-67 24:168:222:-1756,2.92,-4.208,-2.093,-773.01,-258.606,-82.153,77.877,26.246,-52.476
 14:42:11.465,eb:33:2e:f9:57:b5, 2085-97-98 22:63:227:2506,2.561,-3.917,0.288,-815.674,-299.866,-99.243,68.269,26.356,-55.997
 14:42:11.465,eb:33:2e:f9:57:b5, 2085-97-126 18:221:231:5272,2.228,-3.277,1.956,-835.51,-307.556,-106.995,58.447,25.961,-59.606
 14:42:11.465,eb:33:2e:f9:57:b5, 2085-97-138 17:220:236:8128,2.225,-2.781,3.304,-858.398,-324.646,-123.535,48.29,25.043,-63.375
 14:42:11.584,eb:33:2e:f9:57:b5, 2085-97-134 17:179:242:9926,2.188,-2.01,4.539,-876.953,-325.195,-165.833,38.106,23.692,-67.039
 14:42:11.584,eb:33:2e:f9:57:b5, 2085-97-93 16:36:247:9598,1.855,-1.346,4.981,-866.821,-335.51,-235.596,27.746,22.05,-71.01
 14:42:11.584,eb:33:2e:f9:57:b5, 2085-97-04 12:16:247:7857,0.972,-1.024,4.272,-838.684,-357.544,-286.987,17.765,19.918,-75.135
 14:42:11.584,eb:33:2e:f9:57:b5, 2085-97-01 02:113:246:6662,-0.37,-1.19,3.557,-806.58,-398.804,-269.348,8.19,16.848,-79.096
 14:42:11.586,eb:33:2e:f9:57:b5, 2085-97-231 249:62:248:5994,-1.012,-1.112,3.066,-765.442,-433.105,-184.204,-0.346,12.849,-81.793
 14:42:11.586,eb:33:2e:f9:57:b5, 2085-97-190 246:145:00:4469,-1.136,-0.617,2.615,-721.924,-420.471,-42.969,-8.064,8.459,-82.716
 14:42:11.586,eb:33:2e:f9:57:b5, 2085-97-97 248:45:14:3247,-0.659,0.907,1.823,-682.19,-422.18,91.248,-14.958,4.438,-81.579
 14:42:11.586,eb:33:2e:f9:57:b5, 2085-97-02 252:226:25:4134,-0.495,2.538,1.656,-613.403,-462.891,169.128,-21.484,0.593,-78.975
 14:42:11.588,eb:33:2e:f9:57:b5, 2085-97-191 249:251:35:7572,-1.178,3.856,2.794,-486.816,-501.465,207.458,-27.059,-3.071,-75.24
 14:42:11.588,eb:33:2e:f9:57:b5, 2085-97-230 243:173:41:10118,-1.934,4.979,4.461,-353.699,-484.375,188.904,-31.641,-6.531,-71.098
 14:42:11.588,eb:33:2e:f9:57:b5, 2085-97-131 237:216:46:9745,-2.499,5.494,4.971,-331.909,-345.032,171.387,-35.48,-9.009,-67.33
 14:42:11.588,eb:33:2e:f9:57:b5, 2085-97-00 236:204:52:9171,-2.318,6.204,4.48,-330.994,-331.299,132.202,-39.523,-10.684,-64.188
 14:42:11.735,eb:33:2e:f9:57:b5, 2085-97-65 240:10:63:11365,-1.458,7.282,4.945,-201.965,-365.906,81.909,-42.874,-12.744,-60.947
 14:42:11.735,eb:33:2e:f9:57:b5, 2085-97-185 246:131:63:10465,-1.742,8.091,5.744,-51.941,-250.244,-35.156,-44.67,-14.865,-58.645
 14:42:11.735,eb:33:2e:f9:57:b5, 2085-97-35 235:142:58:6942,-2.948,7.74,4.091,26.794,-184.692,-135.803,-44.907,-16.935,-57.865
 14:42:11.735,eb:33:2e:f9:57:b5, 2085-97-171 231:95:46:8647,-2.874,6.436,3.698,89.233,-232.056,-184.814,-44.456,-19.666,-57.634
 14:42:11.735,eb:33:2e:f9:57:b5, 2085-97-180 234:74:39:7327,1.452,5.278,4.178,164.062,-111.45,-208.801,-43.033,-22.319,-57.903
 14:42:11.735,eb:33:2e:f9:57:b5, 2085-97-14 41:121:243:-3994,6.379,4.318,7.321,798.401,570.19,103.027,-39.023,-23.406,-59.656
 14:42:11.736,eb:33:2e:f9:57:b5, 2085-97-239 223:210:226:5478,-4.202,5.164,0.529,905.029,1212.891,-919.8,-25.867,-22.126,-68.077
 14:42:11.736,eb:33:2e:f9:57:b5, 2085-97-252 226:49:16:-3906,-4.959,6.58,-4.995,51.636,692.81,154.053,-18.869,-13.98,-74.751
 14:42:11.738,eb:33:2e:f9:57:b5, 2085-97-167 249:16:251:1668,1.116,-0.203,-2.746,42.847,14.893,-43.884,-18.353,-11.091,-75.498
 14:42:11.738,eb:33:2e:f9:57:b5, 2085-97-250 253:228:05:957,-1.121,-0.71,1.946,63.416,28.931,34.241,-17.715,-11.343,-75.883
 14:42:11.738,eb:33:2e:f9:57:b5, 2085-97-130 251:79:255:1753,0.907,0.392,0.039,20.874,-56.213,-2.686,-17.441,-11.393,-75.613
 14:42:11.738,eb:33:2e:f9:57:b5, 2085-97-163 04:179:00:2746,0.51,-0.118,1.896,33.813,-30.701,-8.362,-17.117,-11.959,-75.745
 14:42:11.738,eb:33:2e:f9:57:b5, 2085-97-41 03:184:01:3208,0.6,0.159,1.371,54.443,-43.213,-17.944,-16.666,-12.338,-75.723
 14:42:11.738,eb:33:2e:f9:57:b5, 2085-97-14 251:139:244:10346,0.249,0.825,0.103,65.796,-90.515,-70.129,-16.024,-12.865,-76.157
 14:42:11.738,eb:33:2e:f9:57:b5, 2085-97-251 07:134:250:7807,0.547,-1.403,5.271,134.827,10.559,-29.968,-14.859,-13.508,-76.663
 14:42:11.739,eb:33:2e:f9:57:b5, 2085-97-206 07:173:245:9838,0.935,-1.007,3.84,195.74,68.542,24.963,-13.2,-12.969,-76.86
 14:42:11.794,eb:33:2e:f9:57:b5, 2085-97-109 06:162:244:7440,0.698,-1.159,4.103,278.809,163.879,59.814,-10.871,-11.596,-76.602
 14:42:11.794,eb:33:2e:f9:57:b5, 2085-97-11 07:74:237:8214,1.324,-1.887,4,426.941,176.208,7.263,-7.355,-9.827,-76.674
 14:42:11.794,eb:33:2e:f9:57:b5, 2085-97-214 09:199:234:7113,0.81,-2.49,3.603,586.06,157.227,-13.611,-2.192,-8.174,-76.882
 14:42:11.794,eb:33:2e:f9:57:b5, 2085-97-110 251:241:240:9236,-0.656,-2.63,3.792,747.742,131.531,-34.119,4.603,-6.795,-77.239
 14:42:11.794,eb:33:2e:f9:57:b5, 2085-113-81 00:120:99:2008,-0.312,-0.857,5.25,842.041,135.315,-44.067,12.717,-5.279,-77.503
 14:42:11.824,eb:33:2e:f9:57:b5, 2085-97-194 00:116:21:11161,0.671,0.331,5.732,851.196,58.716,-52.063,16.974,-4.724,-77.739
 14:42:11.824,eb:33:2e:f9:57:b5, 2085-97-240 254:45:32:10810,-0.344,3.392,5.265,746.948,-74.463,-161.011,25.142,-4.57,-78.948
 14:42:11.824,eb:33:2e:f9:57:b5, 2085-97-156 254:128:04:11210,-1.105,2.65,6.102,701.416,14.587,-191.711,32.322,-4.065,-81.063
 14:42:11.824,eb:33:2e:f9:57:b5, 2085-97-199 247:166:03:6985,-1.044,1.835,2.894,592.041,194.214,-77.209,39.117,-2.318,-81.365
 14:42:11.883,eb:33:2e:f9:57:b5, 2085-97-223 251:88:02:11613,-0.132,0.353,4.305,418.213,303.04,65.796,43.94,-0.396,-79.585
 14:42:11.883,eb:33:2e:f9:57:b5, 2085-97-245 02:36:07:14814,0.907,0.343,6.85,396.973,404.724,154.785,47.873,1.176,-76.207
 14:42:11.883,eb:33:2e:f9:57:b5, 2085-97-110 10:252:17:14362,1.698,1.569,7.179,490.417,383.789,129.639,52.416,2.637,-72.213
 14:42:11.883,eb:33:2e:f9:57:b5, 2085-97-162 15:139:22:14632,2.122,2.702,6.998,591.614,261.047,-21.912,58.046,3.983,-69.302
 14:42:11.913,eb:33:2e:f9:57:b5, 2085-97-144 17:111:17:15529,2.179,2.631,7.389,651.245,150.269,-258.789,64.38,6.29,-68.351
 14:42:11.913,eb:33:2e:f9:57:b5, 2085-97-22 17:99:05:15195,2.021,1.479,7.612,627.869,105.53,-481.445,70.79,10.333,-68.719
 14:42:11.913,eb:33:2e:f9:57:b5, 2085-97-249 14:227:249:13581,1.662,-0.113,7.051,529.724,112.976,-609.314,76.382,16.046,-69.28
 14:42:11.913,eb:33:2e:f9:57:b5, 2085-97-127 10:86:242:12421,0.92,-1.288,6.292,414.856,125.977,-621.521,81.057,22.412,-69.291
 14:42:12.004,eb:33:2e:f9:57:b5, 2085-97-188 04:11:236:12254,0.388,-2.092,6,325.989,125.488,-547.058,84.864,28.4,-68.736
 14:42:12.004,eb:33:2e:f9:57:b5, 2085-97-176 02:77:230:11053,0.363,-2.893,5.801,257.019,184.937,-412.659,88.506,33.228,-67.308
 14:42:12.004,eb:33:2e:f9:57:b5, 2085-97-74 04:112:228:8126,0.666,-3.386,4.573,176.086,303.772,-207.886,92.28,36.26,-64.363
 14:42:12.004,eb:33:2e:f9:57:b5, 2085-97-152 07:204:227:5844,1.2,-3.475,3.269,99.365,336.121,-31.189,96.13,37.057,-60.205
 14:42:12.006,eb:33:2e:f9:57:b5, 2085-97-74 12:67:227:3329,1.94,-3.481,2.213,35.339,291.748,86.853,98.888,36.271,-56.541
 14:42:12.006,eb:33:2e:f9:57:b5, 2085-97-49 18:142:226:1440,2.477,-3.628,1.09,-26.428,206.177,151.978,100.475,34.574,-53.915
 14:42:12.006,eb:33:2e:f9:57:b5, 2085-97-136 23:241:225:-734,3.766,-3.705,0.298,-112.305,109.009,183.472,100.399,32.646,-52.668
 14:42:12.006,eb:33:2e:f9:57:b5, 2085-97-223 39:87:223:-10164,4.472,-3.713,-2.212,-274.231,101.99,199.341,98.844,30.569,-52.07
 14:42:12.035,eb:33:2e:f9:57:b5, 2085-97-81 33:19:221:-10875,4.456,-4.523,-6.32,-522.705,53.894,142.517,95.065,28.641,-51.251
 14:42:12.035,eb:33:2e:f9:57:b5, 2085-97-17 34:65:220:-5850,3.937,-4.261,-3.94,-652.222,-235.229,27.954,88.418,27.944,-52.646
 14:42:12.035,eb:33:2e:f9:57:b5, 2085-97-30 30:148:218:-503,3.4,-4.727,-1.737,-736.45,-338.379,-22.888,79.744,27.746,-56.173
 14:42:12.035,eb:33:2e:f9:57:b5, 2085-97-223 23:60:223:3463,2.75,-4.344,0.875,-794.556,-348.694,-55.42,70.258,27.29,-60.145
 14:42:12.064,eb:33:2e:f9:57:b5, 2085-97-181 20:227:226:6454,2.345,-3.923,2.413,-840.82,-375.671,-90.515,60.123,26.505,-64.358
 14:42:12.064,eb:33:2e:f9:57:b5, 2085-97-38 17:129:233:8575,2.001,-3.231,3.655,-892.151,-365.479,-128.296,49.653,25.334,-68.527
 14:42:12.064,eb:33:2e:f9:57:b5, 2085-97-242 14:46:239:11073,1.767,-2.403,4.865,-921.326,-374.146,-163.33,38.743,23.752,-72.691
 14:42:12.064,eb:33:2e:f9:57:b5, 2085-97-83 13:139:242:10787,1.434,-1.864,5.569,-887.512,-386.902,-222.168,28.103,21.66,-76.827
 14:42:12.334,eb:33:2e:f9:57:b5, 2085-97-188 08:247:243:9310,0.596,-1.572,4.744,-851.929,-376.526,-242.188,17.924,19.094,-80.931
 14:42:12.334,eb:33:2e:f9:57:b5, 2085-97-28 00:50:245:8638,-0.345,-1.436,4.38,-834.778,-373.352,-205.078,8.525,16.013,-84.194
 14:42:12.334,eb:33:2e:f9:57:b5, 2085-97-241 251:26:248:8079,-0.631,-1.232,4.159,-810.486,-373.474,-121.826,-0.341,12.365,-86.303
 14:42:12.334,eb:33:2e:f9:57:b5, 2085-97-189 250:193:02:5895,-0.537,-0.381,3.357,-783.264,-361.328,10.254,-8.355,8.718,-86.611
 14:42:12.365,eb:33:2e:f9:57:b5, 2085-97-89 253:160:14:5187,-0.136,1.111,2.604,-749.756,-404.968,104.797,-16.013,5.07,-85.276
 14:42:12.365,eb:33:2e:f9:57:b5, 2085-97-171 255:200:23:6502,-0.071,2.424,2.766,-680.176,-470.825,162.048,-23.022,1.351,-82.507
 14:42:12.365,eb:33:2e:f9:57:b5, 2085-97-129 254:24:33:10065,-0.427,3.553,3.88,-571.35,-519.165,184.387,-29.438,-2.406,-78.832
 14:42:12.365,eb:33:2e:f9:57:b5, 2085-97-151 250:71:40:12900,-0.958,4.685,5.84,-445.435,-504.272,166.565,-34.788,-5.894,-74.564
 14:42:12.365,eb:33:2e:f9:57:b5, 2085-97-58 245:81:44:12159,-1.879,5.308,6.212,-383.118,-363.22,133.362,-39.408,-8.542,-70.84
 14:42:12.365,eb:33:2e:f9:57:b5, 2085-97-177 240:170:50:11469,-2.079,5.992,5.583,-350.952,-317.627,74.524,-43.583,-10.195,-67.923
 14:42:12.365,eb:33:2e:f9:57:b5, 2085-97-206 238:194:56:10649,-2.047,6.625,5.302,-230.957,-359.985,16.907,-47.137,-12.36,-65.22
 14:42:12.365,eb:33:2e:f9:57:b5, 2085-97-00 242:148:56:11797,-1.945,7.236,5.562,-78.674,-337.646,-75.317,-49.191,-14.969,-62.699
 14:42:12.367,eb:33:2e:f9:57:b5, 2085-97-133 235:66:53:9178,-3.077,6.914,5.153,23.376,-253.357,-156.982,-49.763,-17.781,-61.425
 14:42:12.367,eb:33:2e:f9:57:b5, 2085-97-85 231:96:47:8920,-2.875,6.302,4.109,62.378,-222.107,-199.707,-49.515,-20.715,-60.804
 14:42:12.367,eb:33:2e:f9:57:b5, 2085-97-203 234:194:42:7515,-2.165,5.56,4.396,134.033,-89.05,-196.167,-48.466,-23.225,-61.111
 14:42:12.367,eb:33:2e:f9:57:b5, 2085-97-252 205:76:49:14720,8.613,4.965,2.855,394.653,-116.577,-344.055,-45.906,-25.032,-62.43
 14:42:12.369,eb:33:2e:f9:57:b5, 2085-97-93 10:246:13:12679,-3.801,-0.783,4.427,964.172,718.994,-521.545,-34.481,-24.038,-68.005
 14:42:12.369,eb:33:2e:f9:57:b5, 2085-97-205 231:56:16:-9260,-4.417,-1.673,1.135,337.83,1371.704,-2.319,-22.978,-15.293,-79.777
 14:42:12.369,eb:33:2e:f9:57:b5, 2085-97-103 227:129:252:-2747,0.34,0.405,-1.855,33.936,333.069,23.071,-21.912,-8.987,-81.634
 14:42:12.369,eb:33:2e:f9:57:b5, 2085-97-99 00:171:01:1551,-1.154,-0.721,1.78,65.308,50.049,5.859,-21.352,-8.234,-81.947
 14:42:12.372,eb:33:2e:f9:57:b5, 2085-97-75 253:242:255:2069,0.229,0.852,-0.335,20.447,-61.096,10.193,-20.929,-7.982,-81.859
 14:42:12.372,eb:33:2e:f9:57:b5, 2085-97-90 07:182:248:9290,1.132,-1.284,4.881,125.916,-41.626,12.878,-18.517,-11.305,-81.815
 14:42:12.372,eb:33:2e:f9:57:b5, 2085-97-109 08:48:246:9521,1.129,-1.081,4.628,199.28,49.133,44.556,-16.902,-11.085,-81.7
 14:42:12.372,eb:33:2e:f9:57:b5, 2085-97-18 08:47:243:8504,0.854,-1.373,4.178,305.176,135.498,32.043,-14.392,-9.97,-81.524
 14:42:12.394,eb:33:2e:f9:57:b5, 2085-97-91 10:111:235:8570,1.736,-2.275,4.413,450.256,186.096,-16.174,-10.486,-8.328,-81.996
 14:42:12.394,eb:33:2e:f9:57:b5, 2085-97-51 14:181:235:6823,0.333,-2.558,3.572,615.967,192.688,-34.851,-5.021,-6.389,-82.491
 14:42:12.394,eb:33:2e:f9:57:b5, 2085-97-159 252:20:244:8791,-0.347,-2.083,3.612,765.686,131.287,-74.158,2.038,-4.807,-83.188
 14:42:12.394,eb:33:2e:f9:57:b5, 2085-97-24 252:140:24:10987,-0.267,0.271,5.222,847.778,60.364,-97.412,10.371,-3.719,-83.958
 14:42:12.423,eb:33:2e:f9:57:b5, 2085-97-128 247:229:37:9136,-1.031,3.798,4.802,719.36,-36.56,-215.271,18.325,-3.296,-85.842
 14:42:12.423,eb:33:2e:f9:57:b5, 2085-97-132 254:190:12:10312,-1.264,4.062,5.031,633.362,104.736,-279.175,25.06,-2.197,-88.127
 14:42:12.423,eb:33:2e:f9:57:b5, 2085-97-111 247:180:08:7132,-1.008,2.443,2.812,540.039,244.69,-200.012,31.185,0.742,-89.28
 14:42:12.423,eb:33:2e:f9:57:b5, 2085-97-54 251:107:02:12495,-0.421,0.733,4.391,392.883,267.944,-91.675,35.64,3.752,-88.929
 14:42:12.484,eb:33:2e:f9:57:b5, 2085-97-241 255:15:01:15228,0.372,0.021,7.242,431.58,322.205,12.695,39.776,6.328,-87.457
 14:42:12.484,eb:33:2e:f9:57:b5, 2085-97-52 05:34:04:13385,1.005,0.237,7.093,527.954,327.515,46.692,44.984,8.465,-84.985
 14:42:12.484,eb:33:2e:f9:57:b5, 2085-97-218 09:100:12:13208,1.378,1.028,6.394,557.922,323.914,3.296,50.9,10.459,-82.408
 14:42:12.484,eb:33:2e:f9:57:b5, 2085-97-166 11:249:15:14125,1.503,1.93,6.642,562.622,257.202,-128.662,56.898,12.673,-80.398
 14:42:12.517,eb:33:2e:f9:57:b5, 2085-97-149 11:192:09:14662,1.369,1.717,7.098,564.392,202.393,-294.189,62.721,15.743,-79.64
 14:42:12.517,eb:33:2e:f9:57:b5, 2085-97-34 10:14:01:13856,1.182,0.674,7.031,534.424,225.83,-411.072,68.379,19.935,-79.2
 14:42:12.517,eb:33:2e:f9:57:b5, 2085-97-164 08:01:251:12800,0.95,-0.326,6.473,479.004,265.015,-450.012,73.779,24.911,-78.245
 14:42:12.517,eb:33:2e:f9:57:b5, 2085-97-172 06:117:247:12161,0.683,-0.851,6.074,415.344,291.382,-423.157,79.124,29.822,-76.322
 14:42:12.544,eb:33:2e:f9:57:b5, 2085-97-33 04:15:244:11958,0.43,-1.265,5.836,361.206,300.781,-352.966,84.38,34.091,-73.586
 14:42:12.544,eb:33:2e:f9:57:b5, 2085-97-81 03:134:238:11265,0.363,-1.809,5.777,323.303,319.58,-255.127,89.901,37.216,-69.999
 14:42:12.544,eb:33:2e:f9:57:b5, 2085-97-126 04:237:234:9943,0.748,-2.373,5.117,293.396,350.281,-140.015,95.559,38.963,-65.742
 14:42:12.544,eb:33:2e:f9:57:b5, 2085-97-210 06:242:231:7977,1.198,-2.818,4.468,265.442,368.835,-16.724,101.332,39.095,-61.04
 14:42:12.635,eb:33:2e:f9:57:b5, 2085-97-238 11:51:230:5386,1.874,-3.103,3.405,227.478,338.745,68.176,106.298,37.969,-56.986
 14:42:12.636,eb:33:2e:f9:57:b5, 2085-97-186 17:65:228:3356,2.417,-3.381,2.039,161.438,277.039,111.267,110.176,36.079,-53.822
 14:42:12.636,eb:33:2e:f9:57:b5, 2085-97-86 22:82:225:1440,3.402,-3.577,1.201,70.618,209.045,139.771,112.407,34.047,-51.839
 14:42:12.636,eb:33:2e:f9:57:b5, 2085-97-64 35:210:219:-5930,4.915,-4.179,-0.558,-47.119,155.701,140.198,113.187,32.069,-50.702
 14:42:12.636,eb:33:2e:f9:57:b5, 2085-113-81 00:137:50:25868,4.676,-5.352,-5.695,-302.246,135.62,103.455,111.934,30.344,-49.757
 14:42:12.637,eb:33:2e:f9:57:b5, 2085-97-118 39:117:211:-10210,4.903,-5.62,-5.946,-386.78,31.555,55.359,110.27,29.861,-49.521
 14:42:12.637,eb:33:2e:f9:57:b5, 2085-97-179 37:154:208:-5942,4.43,-5.698,-4.107,-534.729,-210.754,-32.959,104.919,30.201,-50.845
 14:42:12.637,eb:33:2e:f9:57:b5, 2085-97-123 32:237:211:013,3.623,-5.823,-1.518,-648.682,-316.772,-86.548,97.333,31.454,-54.014
 14:42:12.665,eb:33:2e:f9:57:b5, 2085-97-229 25:230:218:3226,2.927,-5.127,0.849,-749.939,-358.459,-122.131,88.176,32.717,-58.019
 14:42:12.665,eb:33:2e:f9:57:b5, 2085-97-65 21:248:225:5744,2.484,-4.183,2.21,-833.74,-387.207,-149.17,77.607,33.723,-62.864
 14:42:12.665,eb:33:2e:f9:57:b5, 2085-97-148 18:31:232:8515,1.965,-3.392,3.417,-899.17,-425.232,-174.438,65.962,34.058,-68.176
 14:42:12.665,eb:33:2e:f9:57:b5, 2085-97-185 12:187:236:11790,1.442,-2.64,4.921,-936.218,-472.229,-184.753,53.438,33.459,-74.163
 14:42:12.845,eb:33:2e:f9:57:b5, 2085-97-199 10:96:237:13328,1.223,-2.402,6.391,-905.579,-515.381,-206.543,40.99,31.525,-80.206
 14:42:12.845,eb:33:2e:f9:57:b5, 2085-97-116 08:254:240:12663,0.752,-2.078,6.346,-868.469,-451.172,-205.75,29.405,28.834,-85.655
 14:42:12.845,eb:33:2e:f9:57:b5, 2085-97-156 03:144:243:12022,0.103,-1.727,5.969,-844.177,-394.47,-183.533,19.039,25.873,-89.659
 14:42:12.845,eb:33:2e:f9:57:b5, 2085-97-75 254:06:247:11038,-0.312,-1.373,5.666,-826.355,-362.61,-138.489,9.421,22.654,-92.62
 14:42:12.875,eb:33:2e:f9:57:b5, 2085-97-86 253:78:251:9601,-0.41,-0.877,5.111,-810.242,-356.262,-65.735,0.725,19.199,-94.081
 14:42:12.875,eb:33:2e:f9:57:b5, 2085-97-26 252:230:02:7292,-0.44,-0.165,4.115,-801.208,-363.953,20.264,-7.476,15.595,-94.252
 14:42:12.875,eb:33:2e:f9:57:b5, 2085-97-74 253:246:10:6381,-0.275,0.874,3.237,-785.4,-407.654,94.482,-15.101,11.915,-92.873
 14:42:12.875,eb:33:2e:f9:57:b5, 2085-97-134 254:135:18:7104,-0.106,1.856,3.176,-742.371,-451.965,156.86,-22.445,8.19,-90.379
 14:42:12.877,eb:33:2e:f9:57:b5, 2085-97-07 255:90:27:9857,-0.24,2.813,4.013,-659.729,-483.398,196.045,-29.048,4.691,-86.699
 14:42:12.877,eb:33:2e:f9:57:b5, 2085-97-165 252:151:36:13182,-0.584,4.035,5.752,-543.823,-471.985,200.256,-34.948,1.599,-82.573
 14:42:12.877,eb:33:2e:f9:57:b5, 2085-97-49 246:01:43:11952,-1.327,5.033,6.448,-415.833,-366.211,181.824,-39.65,-0.632,-78.519
 14:42:12.879,eb:33:2e:f9:57:b5, 2085-97-208 242:82:48:11535,-1.896,5.769,5.426,-340.576,-318.237,159.485,-43.522,-1.912,-75.256
 14:42:12.879,eb:33:2e:f9:57:b5, 2085-97-150 241:151:54:10583,-1.479,6.357,5.578,-253.174,-296.509,134.644,-46.637,-3.038,-72.054
 14:42:12.879,eb:33:2e:f9:57:b5, 2085-97-220 247:163:59:10899,-0.929,7.277,5.094,-146.79,-264.465,59.509,-48.84,-4.191,-69.406
 14:42:12.879,eb:33:2e:f9:57:b5, 2085-97-106 245:55:62:7725,-1.722,7.659,4.69,-35.156,-188.171,-50.842,-49.834,-5.63,-67.753
 14:42:12.879,eb:33:2e:f9:57:b5, 2085-97-167 240:29:56:6257,-1.92,7.52,3.191,65.063,-205.811,-156.738,-49.73,-7.718,-67.143
 14:42:12.963,eb:33:2e:f9:57:b5, 2085-97-126 07:247:241:16542,0.491,6.352,3.026,180.481,-193.237,-228.21,-48.494,-10.58,-66.918
 14:42:12.963,eb:33:2e:f9:57:b5, 2085-97-206 48:55:66:14960,-0.83,5.896,-3.889,1326.721,-424.316,-555.847,-39.628,-12.673,-67.379
 14:42:12.963,eb:33:2e:f9:57:b5, 2085-97-214 10:08:06:-8621,-1.502,0.582,4.253,867.004,1160.156,-258.911,-26.724,-10.904,-75.196
 14:42:12.963,eb:33:2e:f9:57:b5, 2085-97-40 223:194:249:-5726,-1.98,1.227,-2.086,-5.676,664.307,88.745,-24.412,-3.823,-77.426
 14:42:12.963,eb:33:2e:f9:57:b5, 2085-113-58 00:40:216:2325,-0.378,-0.419,-0.766,45.715,-44.189,-8.911,-24.241,-2.296,-77.783
 14:42:12.965,eb:33:2e:f9:57:b5, 2085-97-255 04:36:02:2575,-1.43,-0.246,0.984,69.031,-52.002,-17.456,-23.857,-2.571,-77.948
 14:42:12.965,eb:33:2e:f9:57:b5, 2085-97-74 00:123:00:2789,0.55,0.225,-0.17,41.687,-114.075,-9.644,-23.428,-3.054,-77.64
 14:42:12.965,eb:33:2e:f9:57:b5, 2085-97-18 253:62:01:1311,-0.002,0.038,1.439,44.8,-46.204,-20.874,-22.939,-3.878,-77.712
 14:42:12.967,eb:33:2e:f9:57:b5, 2085-97-90 04:207:00:2856,0.124,0.182,0.919,28.259,-97.778,-13.977,-22.582,-4.686,-77.536
 14:42:12.971,eb:33:2e:f9:57:b5, 2085-97-64 00:15:253:4112,-0.011,0.25,1.051,28.87,-119.202,-18.982,-22.28,-5.499,-77.476
 14:42:12.971,eb:33:2e:f9:57:b5, 2085-97-123 06:96:251:7924,0.759,-1.078,4.684,101.318,-119.873,-45.715,-21.594,-7.114,-77.239
 14:42:12.971,eb:33:2e:f9:57:b5, 2085-97-230 08:111:249:8309,1.185,-0.371,2.969,152.832,-50.72,-53.589,-20.215,-7.921,-77.602
 14:42:12.971,eb:33:2e:f9:57:b5, 2085-97-32 08:75:248:7429,1.06,-1.07,4.45,221.069,65.369,-31.494,-18.248,-8.015,-78.063
 14:42:12.993,eb:33:2e:f9:57:b5, 2085-97-150 06:25:244:6947,0.877,-1.064,3.319,312.012,149.353,-26.245,-15.425,-6.916,-78.805
 14:42:12.993,eb:33:2e:f9:57:b5, 2085-97-233 07:63:240:6366,0.671,-1.785,3.481,435.242,171.509,-30.151,-11.574,-5.4,-79.459
 14:42:12.993,eb:33:2e:f9:57:b5, 2085-97-231 02:51:238:6821,-0.221,-2.149,2.932,586.365,165.405,-25.574,-6.339,-3.73,-80.107
 14:42:12.993,eb:33:2e:f9:57:b5, 2085-97-34 242:238:245:8730,-1.58,-1.871,3.659,686.279,167.236,-9.277,0.143,-2.016,-80.425
 14:42:13.055,eb:33:2e:f9:57:b5, 2085-97-38 249:61:12:7420,-0.118,-0.077,4.331,732.666,47.485,-36.56,7.394,-0.786,-80.684
 14:42:13.055,eb:33:2e:f9:57:b5, 2085-97-209 253:219:13:6039,-0.274,1.792,2.964,619.08,-83.252,-72.266,14.145,-1.033,-81.392
 14:42:13.055,eb:33:2e:f9:57:b5, 2085-113-81 00:251:94:4081,-0.095,1.252,3.909,524.719,-25.818,-65.063,19.742,-1.384,-82.386
 14:42:13.055,eb:33:2e:f9:57:b5, 2085-97-232 03:187:254:8097,0.164,0.899,4.536,549.377,52.979,-79.529,22.429,-1.154,-82.683
 14:42:13.084,eb:33:2e:f9:57:b5, 2085-97-38 01:239:245:5431,0.15,0.104,2.502,481.262,127.625,-75.623,27.817,0.093,-82.991
 14:42:13.084,eb:33:2e:f9:57:b5, 2085-97-239 03:253:236:6497,0.668,-1.967,2.889,368.103,195.557,-0.305,31.976,1.796,-82.507
 14:42:13.084,eb:33:2e:f9:57:b5, 2085-97-63 06:85:232:7637,0.893,-2.754,3.662,342.346,143.86,45.471,35.497,3.021,-81.354
 14:42:13.084,eb:33:2e:f9:57:b5, 2085-97-128 07:07:233:5446,0.928,-2.965,3.254,335.815,110.779,48.828,38.99,3.741,-80.332
 14:42:13.114,eb:33:2e:f9:57:b5, 2085-97-224 07:249:239:4105,0.87,-2.537,2.212,286.377,73.914,10.986,42.171,4.219,-79.536
 14:42:13.114,eb:33:2e:f9:57:b5, 2085-97-124 08:100:248:3769,1.182,-1.451,1.929,196.289,35.583,-74.097,44.561,4.867,-79.525
 14:42:13.114,eb:33:2e:f9:57:b5, 2085-97-31 10:42:252:3985,1.363,-0.635,1.91,114.38,0.427,-178.162,45.967,5.916,-80.365
 14:42:13.114,eb:33:2e:f9:57:b5, 2085-97-106 11:195:252:4501,1.464,-0.416,2.074,83.008,-43.884,-285.034,46.675,7.515,-82.315
 14:42:13.174,eb:33:2e:f9:57:b5, 2085-97-142 11:161:252:4843,1.397,-0.408,2.313,84.595,-82.458,-385.986,47.087,9.586,-85.182
 14:42:13.174,eb:33:2e:f9:57:b5, 2085-97-221 10:213:250:5113,1.266,-0.506,2.435,80.627,-103.21,-467.957,47.208,12.173,-89.006
 14:42:13.174,eb:33:2e:f9:57:b5, 2085-97-124 09:146:248:5216,1.141,-0.786,2.523,56.702,-91.858,-516.296,46.917,15.189,-93.252
 14:42:13.174,eb:33:2e:f9:57:b5, 2085-97-165 08:92:246:5436,0.979,-1.07,2.614,18.677,-41.443,-520.203,46.022,18.561,-97.625
 14:42:13.203,eb:33:2e:f9:57:b5, 2085-97-53 07:10:244:5229,0.947,-1.352,2.621,-24.902,38.025,-484.863,44.698,22.203,-101.376
 14:42:13.203,eb:33:2e:f9:57:b5, 2085-97-27 06:06:241:5086,0.525,-1.662,2.63,-62.195,95.703,-427.917,42.957,25.873,-104.568
 14:42:13.203,eb:33:2e:f9:57:b5, 2085-97-36 03:23:238:4172,0.432,-2.067,2.321,-99.06,117.798,-344.299,41.072,29.306,-106.886
 14:42:13.203,eb:33:2e:f9:57:b5, 2085-97-240 03:44:237:2923,0.615,-2.329,1.74,-147.705,124.023,-237.549,38.919,32.064,-108.704
 14:42:13.234,eb:33:2e:f9:57:b5, 2085-97-131 06:251:236:1899,0.999,-2.338,1.136,-209.717,147.278,-117.798,36.788,34.211,-109.303
 14:42:13.234,eb:33:2e:f9:57:b5, 2085-97-242 08:25:238:-137,1.41,-2.41,0.575,-244.568,118.347,-10.803,34.629,35.662,-109.045
 14:42:13.234,eb:33:2e:f9:57:b5, 2085-97-254 13:63:243:-2540,1.828,-1.938,-0.701,-265.808,-8.057,91.125,32.563,35.843,-108.232
 14:42:13.235,eb:33:2e:f9:57:b5, 2085-97-121 15:54:245:-2992,1.926,-1.389,-1.655,-308.472,-153.931,171.204,30.097,34.354,-107.545
 14:42:13.473,eb:33:2e:f9:57:b5, 2085-97-85 15:64:245:-300,1.874,-1.354,-0.914,-350.22,-288.635,208.618,27.131,31.399,-106.875
 14:42:13.473,eb:33:2e:f9:57:b5, 2085-97-183 14:111:245:1901,1.804,-1.337,0.442,-369.873,-368.408,230.713,23.698,27.372,-106.501
 14:42:13.473,eb:33:2e:f9:57:b5, 2085-113-58 00:81:220:-2085,1.739,-1.263,1.323,-393.799,-377.014,238.403,20.215,22.972,-105.716
 14:42:13.473,eb:33:2e:f9:57:b5, 2085-97-114 13:176:247:3790,1.618,-1.156,1.616,-410.461,-368.225,233.215,18.287,20.792,-105.397
 14:42:13.473,eb:33:2e:f9:57:b5, 2085-97-137 12:26:249:4525,1.535,-0.934,2.041,-449.951,-355.347,203.186,14.321,16.705,-104.315
 14:42:13.475,eb:33:2e:f9:57:b5, 2085-97-242 11:210:249:5205,1.463,-0.809,2.384,-493.652,-348.755,156.25,9.728,12.849,-103.486
 14:42:13.475,eb:33:2e:f9:57:b5, 2085-97-90 11:199:249:5984,1.359,-0.76,2.719,-531.982,-349.365,99.792,4.719,9.218,-102.706
 14:42:13.475,eb:33:2e:f9:57:b5, 2085-97-109 09:88:249:6762,1.008,-0.829,3.134,-554.932,-351.562,41.138,-0.775,5.641,-102.332
 14:42:13.475,eb:33:2e:f9:57:b5, 2085-97-134 06:142:249:7763,0.56,-0.829,3.528,-565.369,-356.567,-7.507,-6.367,2.104,-102.008
 14:42:13.478,eb:33:2e:f9:57:b5, 2085-97-29 02:122:251:8562,-0.174,-0.714,4.004,-566.04,-353.271,-36.072,-12.145,-1.478,-101.832
 14:42:13.478,eb:33:2e:f9:57:b5, 2085-97-136 251:230:254:9176,-0.957,-0.326,4.336,-561.829,-366.882,-42.236,-17.809,-5.054,-101.316
 14:42:13.478,eb:33:2e:f9:57:b5, 2085-97-117 245:136:02:9348,-1.595,0.061,4.579,-564.88,-363.831,-17.395,-23.665,-8.663,-100.432
 14:42:13.478,eb:33:2e:f9:57:b5, 2085-97-234 241:45:09:9135,-1.853,0.677,4.481,-559.326,-336.121,41.26,-29.608,-11.728,-98.734
 14:42:13.624,eb:33:2e:f9:57:b5, 2085-97-196 240:59:19:10120,-2.061,1.721,4.629,-507.507,-340.149,109.436,-35.634,-14.167,-96.301
 14:42:13.624,eb:33:2e:f9:57:b5, 2085-97-47 238:228:30:10942,-2.493,3.233,5.163,-413.33,-345.52,150.696,-41.078,-16.035,-92.955
 14:42:13.624,eb:33:2e:f9:57:b5, 2085-97-105 234:85:39:9988,-2.897,4.473,5.231,-335.999,-300.598,166.931,-45.835,-17.32,-89.511
 14:42:13.624,eb:33:2e:f9:57:b5, 2085-97-240 230:143:45:8216,-3.283,5.323,4.434,-297.363,-231.445,174.561,-49.971,-17.825,-86.248
 14:42:13.626,eb:33:2e:f9:57:b5, 2085-97-252 227:00:50:6498,-3.477,5.995,3.632,-202.271,-191.956,180.359,-53.416,-17.748,-83.485
 14:42:13.626,eb:33:2e:f9:57:b5, 2085-97-176 229:12:49:5215,-2.994,6.297,2.803,-41.687,-115.967,179.138,-55.311,-17.194,-81.013
 14:42:13.626,eb:33:2e:f9:57:b5, 2085-97-91 235:28:46:3358,1.934,5.939,2.176,90.027,-2.38,167.542,-55.382,-16.062,-79.678
 14:42:13.626,eb:33:2e:f9:57:b5, 2085-97-102 232:31:71:-6368,4.622,1.34,5.677,669.556,-49.377,319.763,-53.135,-14.881,-78.393
 14:42:13.629,eb:33:2e:f9:57:b5, 2085-97-10 255:197:32:11592,1.121,6.535,4.047,1503.174,156.128,-296.631,-42.067,-16.013,-78.761
 14:42:13.629,eb:33:2e:f9:57:b5, 2085-97-113 252:144:01:1229,-0.191,-0.141,2.03,37.537,-17.273,6.47,-20.275,-5.186,-85.776
 14:42:13.629,eb:33:2e:f9:57:b5, 2085-97-68 04:61:00:3982,-0.276,0.34,0.973,33.081,-69.885,-49.622,-19.858,-5.9,-85.869
 14:42:13.629,eb:33:2e:f9:57:b5, 2085-97-215 251:00:08:-161,-0.208,0.338,0.827,8.606,-54.199,-75.623,-19.578,-6.345,-86.265
 14:42:13.631,eb:33:2e:f9:57:b5, 2085-97-68 02:189:247:7750,0.669,-0.698,3.229,52.429,-143.25,-66.345,-19.709,-7.306,-86.759
 14:42:13.631,eb:33:2e:f9:57:b5, 2085-97-132 10:193:255:6574,1.171,-0.149,2.871,119.263,-82.031,-53.04,-18.644,-8.575,-86.929
 14:42:13.631,eb:33:2e:f9:57:b5, 2085-97-110 05:193:249:6410,0.383,-0.401,3.536,169.617,-11.597,-69.946,-17.056,-9.163,-87.578
 14:42:13.631,eb:33:2e:f9:57:b5, 2085-97-80 02:18:249:4988,0.244,-0.907,2.625,227.295,41.809,-40.71,-14.963,-9.075,-88.16
 14:42:13.635,eb:33:2e:f9:57:b5, 2085-97-196 03:14:249:4995,0.764,-0.857,2.393,296.57,58.105,-34.18,-12.189,-8.608,-88.742
 14:42:13.635,eb:33:2e:f9:57:b5, 2085-97-37 07:216:247:4753,0.888,-0.936,2.43,369.385,82.336,-41.077,-8.745,-7.976,-89.236
 14:42:13.635,eb:33:2e:f9:57:b5, 2085-97-116 07:87:246:4641,0.919,-1.149,2.205,443.176,132.202,-49.255,-4.51,-6.916,-89.945
 14:42:13.635,eb:33:2e:f9:57:b5, 2085-97-157 05:84:246:4376,0.194,-1.181,2.339,508.789,204.468,-62.073,0.346,-5.208,-90.527
 14:42:13.637,eb:33:2e:f9:57:b5, 2085-97-22 251:175:248:3086,-1.434,-1.182,1.688,560.608,252.808,-76.233,5.823,-2.769,-91.225
 14:42:13.639,eb:33:2e:f9:57:b5, 2085-97-103 241:236:253:2001,-2.16,-0.722,1.321,570.19,236.267,-57.678,11.536,-0.17,-91.505
 14:42:13.639,eb:33:2e:f9:57:b5, 2085-97-50 238:32:255:2360,-1.909,-0.223,0.952,524.963,171.692,11.902,17.067,1.873,-91.379
 14:42:13.639,eb:33:2e:f9:57:b5, 2085-97-81 243:76:255:3303,-1.304,-0.136,1.538,482.788,116.516,73.669,22.11,2.999,-90.478
 14:42:13.685,eb:33:2e:f9:57:b5, 2085-97-226 247:67:01:4714,-0.811,0.034,1.903,438.965,88.135,115.54,26.818,3.505,-89.291
 14:42:13.685,eb:33:2e:f9:57:b5, 2085-97-37 251:188:254:5577,-0.218,-0.042,2.533,373.352,132.812,136.597,30.981,3.812,-87.687
 14:42:13.685,eb:33:2e:f9:57:b5, 2085-97-54 01:17:242:6322,0.526,-0.835,3.129,279.419,272.583,172.913,34.393,4.691,-85.446
 14:42:13.685,eb:33:2e:f9:57:b5, 2085-97-94 12:145:241:-2440,2.477,-2.796,2.395,196.35,452.82,234.68,37.106,6.465,-81.502
 14:42:13.714,eb:33:2e:f9:57:b5, 2085-97-112 22:88:02:-843,2.788,-0.264,-2.047,-19.165,296.143,44.617,38.43,8.756,-78.014
 14:42:13.714,eb:33:2e:f9:57:b5, 2085-97-191 20:90:08:811,2.492,0.885,0.135,-156.372,123.962,-204.102,37.441,11.008,-77.41
 14:42:13.714,eb:33:2e:f9:57:b5, 2085-97-102 18:199:01:3473,2.08,0.647,1.176,-171.448,-84.534,-412.537,35.206,12.958,-80.222
 14:42:13.714,eb:33:2e:f9:57:b5, 2085-97-195 14:150:253:4312,1.669,-0.064,1.914,-150.879,-161.926,-544.8,32.426,14.656,-85.204
 14:42:13.774,eb:33:2e:f9:57:b5, 2085-97-77 12:107:249:5457,1.149,-0.561,2.347,-137.39,-203.064,-609.863,29.394,16.161,-91.505
 14:42:13.774,eb:33:2e:f9:57:b5, 2085-97-248 07:22:246:6807,1.015,-1.074,2.925,-134.583,-210.327,-610.107,26.12,17.249,-98.229
 14:42:13.774,eb:33:2e:f9:57:b5, 2085-97-34 07:170:244:7011,0.853,-1.302,3.483,-140.198,-116.455,-570.068,22.813,18.287,-104.733
 14:42:13.774,eb:33:2e:f9:57:b5, 2085-97-01 07:21:243:6292,0.826,-1.521,3.354,-129.639,3.235,-504.395,19.704,19.825,-110.187
 14:42:13.804,eb:33:2e:f9:57:b5, 2085-97-125 06:122:242:5240,0.869,-1.662,2.758,-113.647,95.276,-422.363,16.902,21.857,-114.774
 14:42:13.804,eb:33:2e:f9:57:b5, 2085-97-89 06:53:242:5010,0.735,-1.716,2.525,-90.759,145.569,-331.421,14.535,24.137,-118.268
 14:42:13.804,eb:33:2e:f9:57:b5, 2085-97-168 06:248:242:3979,0.868,-1.634,2.252,-63.721,80.994,-249.573,12.612,25.988,-121.113
 14:42:13.804,eb:33:2e:f9:57:b5, 2085-97-02 07:180:242:2473,0.983,-1.653,1.517,-67.749,8.484,-158.02,11.063,26.807,-123.206
 14:42:13.864,eb:33:2e:f9:57:b5, 2085-97-234 08:05:243:2267,1.245,-1.651,1.116,-99.548,-39.001,-56.702,9.657,26.807,-124.514
 14:42:13.864,eb:33:2e:f9:57:b5, 2085-97-238 10:05:245:1962,1.47,-1.557,1.082,-121.948,-80.933,30.029,8.432,26.213,-124.7
 14:42:13.864,eb:33:2e:f9:57:b5, 2085-97-74 12:238:248:1008,1.58,-1.122,0.746,-130.188,-143.25,96.008,7.361,24.983,-124.288
 14:42:13.864,eb:33:2e:f9:57:b5, 2085-97-178 12:62:251:414,1.579,-0.702,0.301,-142.7,-218.201,141.235,6.427,22.994,-123.212
 14:42:13.895,eb:33:2e:f9:57:b5, 2085-97-204 12:61:252:742,1.582,-0.51,0.196,-163.147,-286.621,164.307,5.339,20.248,-122.009
 14:42:13.895,eb:33:2e:f9:57:b5, 2085-113-58 00:204:217:-1560,1.574,-0.437,0.551,-186.34,-341.003,174.133,4.059,16.935,-120.509
 14:42:13.895,eb:33:2e:f9:57:b5, 2085-97-160 12:80:252:1833,1.568,-0.44,0.742,-198.181,-357.849,172.058,3.301,15.117,-119.745
 14:42:13.895,eb:33:2e:f9:57:b5, 2085-97-48 12:201:252:2025,1.416,-0.444,0.948,-227.905,-376.77,154.602,1.445,11.321,-118.411
 14:42:14.166,eb:33:2e:f9:57:b5, 2085-97-185 06:160:245:2776,-6.522,-0.371,1.068,-262.207,-391.785,126.526,-0.797,7.443,-117.048
 14:42:14.166,eb:33:2e:f9:57:b5, 2085-97-241 223:35:04:16078,10.944,-10.447,8.454,-222.351,-376.038,1042.48,-2.95,4.741,-113.791
 14:42:14.166,eb:33:2e:f9:57:b5, 2085-97-21 38:171:45:-22384,6.06,-2.018,4.155,-462.524,647.766,660.156,-6.855,3.153,-107.38
 14:42:14.166,eb:33:2e:f9:57:b5, 2085-97-200 57:187:40:268,4.744,6.625,-8.187,-256.47,-547.363,380.371,-10.278,6.229,-101.481
 14:42:14.225,eb:33:2e:f9:57:b5, 2085-97-55 29:20:22:3353,3.653,4.065,0.457,-138.977,-905.64,20.02,-11.788,-0.764,-98.366
 14:42:14.225,eb:33:2e:f9:57:b5, 2085-97-140 30:231:03:10973,0.246,0.862,2.809,-149.17,-986.328,-211.06,-13.376,-10.58,-97.701
 14:42:14.225,eb:33:2e:f9:57:b5, 2085-97-233 253:207:04:12662,-0.197,0.862,4.677,-285.095,-810.303,-167.908,-15.645,-19.578,-97.454
 14:42:14.225,eb:33:2e:f9:57:b5, 2085-97-92 250:10:07:8223,-0.841,0.696,5.534,-338.501,-256.836,-93.933,-18.836,-24.851,-97.476
 14:42:14.228,eb:33:2e:f9:57:b5, 2085-97-03 248:168:16:5739,-0.688,1.473,3.266,-371.704,19.165,-28.442,-22.324,-25.829,-97.723
 14:42:14.228,eb:33:2e:f9:57:b5, 2085-97-232 249:14:16:6046,-1.042,2.12,2.883,-327.148,105.225,-7.263,-25.681,-25.291,-98.339
 14:42:14.228,eb:33:2e:f9:57:b5, 2085-97-44 248:18:20:3027,-0.661,2.232,2.253,-199.707,99.915,18.555,-28.059,-24.208,-98.828
 14:42:14.228,eb:33:2e:f9:57:b5, 2085-97-217 252:03:26:020,-0.487,2.949,0.633,-93.445,-90.881,33.508,-29.531,-24.066,-98.657
 14:42:14.345,eb:33:2e:f9:57:b5, 2085-97-237 250:241:29:579,-0.681,3.512,-0.073,-70.19,-301.025,41.26,-30.948,-25.724,-97.059
 14:42:14.345,eb:33:2e:f9:57:b5, 2085-97-179 250:203:36:3283,-0.804,4.084,0.978,-47.058,-359.68,3.967,-32.596,-28.597,-94.927
 14:42:14.345,eb:33:2e:f9:57:b5, 2085-97-173 247:18:41:2839,-1.51,5.001,1.725,42.297,-331.299,-85.083,-33.492,-31.712,-93.153
 14:42:14.345,eb:33:2e:f9:57:b5, 2085-97-27 240:48:36:392,-2.445,4.896,0.72,118.103,-329.163,-190.002,-32.921,-35.266,-92.626
 14:42:14.345,eb:33:2e:f9:57:b5, 2085-97-196 233:98:26:391,-2.966,3.931,-0.056,95.825,-314.087,-234.192,-31.696,-39.21,-92.791
 14:42:14.345,eb:33:2e:f9:57:b5, 2085-97-171 231:108:19:2085,-3.118,2.812,0.688,82.886,-177.795,-216.248,-30.174,-42.517,-93.906
 14:42:14.345,eb:33:2e:f9:57:b5, 2085-97-224 230:05:11:2321,-3.179,2.023,1.158,133.423,-38.391,-160.767,-27.966,-44.253,-95.521
 14:42:14.345,eb:33:2e:f9:57:b5, 2085-97-142 230:235:254:2382,-3.558,0.641,1.144,196.777,50.415,-52.246,-25.208,-44.643,-97.119
 14:42:14.347,eb:33:2e:f9:57:b5, 2085-97-85 252:56:57:18748,-0.978,0.918,1.722,207.764,68.848,18.25,-22.945,-43.676,-97.202
 14:42:14.347,eb:33:2e:f9:57:b5, 2085-97-124 255:240:255:1943,-0.015,4.723,11.046,107.727,410.645,-176.025,-19.951,-41.968,-99.058
 14:42:14.347,eb:33:2e:f9:57:b5, 2085-97-45 00:215:255:1994,0.113,-0.022,0.982,13.855,-68.298,-21.729,-23.582,-20.638,-107.254
 14:42:14.347,eb:33:2e:f9:57:b5, 2085-97-134 01:28:00:2346,0.221,-0.006,1.046,13.794,-81.238,-17.273,-23.39,-21.412,-107.287
 14:42:14.349,eb:33:2e:f9:57:b5, 2085-97-12 01:24:00:2615,0.005,0.059,1.265,10.254,-39.001,-7.812,-23.329,-22.017,-107.111
 14:42:14.349,eb:33:2e:f9:57:b5, 2085-97-113 00:25:253:4189,0.331,-0.215,1.87,14.282,5.798,-7.874,-23.11,-22.17,-107.276
 14:42:14.349,eb:33:2e:f9:57:b5, 2085-97-244 03:213:00:3033,0.413,0.097,1.301,13.855,43.884,-3.967,-22.901,-21.824,-107.419
 14:42:14.349,eb:33:2e:f9:57:b5, 2085-97-55 04:159:253:5161,0.651,-0.208,2.282,44.006,51.331,-18.433,-22.396,-21.495,-107.88
 14:42:14.351,eb:33:2e:f9:57:b5, 2085-97-104 05:184:254:4409,0.628,-0.17,2.257,72.327,108.643,-22.705,-21.61,-20.77,-108.369
 14:42:14.351,eb:33:2e:f9:57:b5, 2085-97-192 04:56:254:4142,0.597,-0.225,2.136,99.304,168.396,-32.288,-20.352,-19.517,-109.325
 14:42:14.351,eb:33:2e:f9:57:b5, 2085-97-91 05:94:255:3816,0.752,-0.199,1.946,125.977,223.633,-41.321,-18.869,-17.748,-110.347
 14:42:14.351,eb:33:2e:f9:57:b5, 2085-97-225 05:137:00:3414,0.726,0.01,1.74,148.376,253.479,-57.007,-17.034,-15.546,-111.731
 14:42:14.374,eb:33:2e:f9:57:b5, 2085-97-52 06:199:01:2909,0.822,0.115,1.596,166.382,264.404,-73.669,-15.09,-13.211,-113.082
 14:42:14.374,eb:33:2e:f9:57:b5, 2085-97-248 10:92:04:5016,1.365,0.34,1.167,183.35,237.915,-95.947,-12.942,-10.887,-114.637
 14:42:14.374,eb:33:2e:f9:57:b5, 2085-97-164 11:155:00:5204,1.499,0.392,2.669,238.159,49.744,-349.548,0.758,-7.487,-126.508
 14:42:14.374,eb:33:2e:f9:57:b5, 2085-97-35 15:164:08:2901,2.45,0.151,2.201,211.792,102.234,-384.827,3.549,-6.454,-130.243
 14:42:14.405,eb:33:2e:f9:57:b5, 2085-97-182 21:61:00:2312,1.918,0.943,1.237,158.447,127.563,-541.016,5.828,-4.894,-134.742
 14:42:14.405,eb:33:2e:f9:57:b5, 2085-97-243 16:36:254:930,2.088,0.323,0.278,150.33,107.849,-663.025,7.888,-2.554,-140.625
 14:42:14.405,eb:33:2e:f9:57:b5, 2085-97-158 15:117:247:1670,1.656,-0.656,0.516,133.362,15.93,-738.22,9.492,-0.846,-147.535
 14:42:14.405,eb:33:2e:f9:57:b5, 2085-97-21 10:121:243:2142,0.855,-1.37,0.969,114.319,8.057,-715.942,10.827,0.681,-154.803
 14:42:14.464,eb:33:2e:f9:57:b5, 2085-97-250 04:192:241:2072,0.513,-1.699,1.041,72.51,8.057,-618.774,11.624,2.12,-161.285
 14:42:14.464,eb:33:2e:f9:57:b5, 2085-97-162 03:158:242:1632,0.433,-1.803,0.927,22.339,40.344,-467.407,11.865,3.587,-166.602
 14:42:14.464,eb:33:2e:f9:57:b5, 2085-97-01 04:195:246:1040,0.636,-1.417,0.631,-4.639,42.847,-305.786,11.667,4.861,-170.151
 14:42:14.464,eb:33:2e:f9:57:b5, 2085-97-121 06:245:250:830,0.97,-0.888,0.423,-7.019,-4.7,-167.297,11.426,5.587,-172.452
 14:42:14.495,eb:33:2e:f9:57:b5, 2085-97-226 08:60:255:771,1.26,-0.371,0.404,-0.061,-61.951,-63.171,11.288,5.46,-173.524
 14:42:14.495,eb:33:2e:f9:57:b5, 2085-97-71 11:143:03:855,1.545,0.172,0.372,1.404,-109.924,-2.38,11.283,4.691,-174.078
 14:42:14.495,eb:33:2e:f9:57:b5, 2085-97-63 13:156:06:1415,1.739,0.666,0.531,4.639,-150.208,17.944,11.299,3.389,-174.183
 14:42:14.495,eb:33:2e:f9:57:b5, 2085-97-76 14:233:07:1905,1.826,0.927,0.832,17.395,-193.848,3.113,11.42,1.708,-174.545
 14:42:14.584,eb:33:2e:f9:57:b5, 2085-97-179 14:251:07:2284,1.783,1.008,1.018,34.363,-227.966,-30.518,11.684,-0.341,-175.084
 14:42:14.584,eb:33:2e:f9:57:b5, 2085-97-153 13:186:06:2752,1.605,0.938,1.22,52.368,-257.141,-71.594,12.184,-2.56,-176.248
 14:42:14.584,eb:33:2e:f9:57:b5, 2085-97-19 12:138:04:3210,1.392,0.717,1.453,73.12,-284.851,-112.244,12.925,-4.999,-177.742
 14:42:14.585,eb:33:2e:f9:57:b5, 2085-97-44 10:37:02:3503,1.142,0.419,1.649,91.736,-305.115,-142.822,14.013,-7.515,-179.863
 14:42:14.587,eb:33:2e:f9:57:b5, 2085-97-47 08:162:255:3632,0.886,0.109,1.744,101.501,-323.425,-162.415,15.364,-10.146,177.841
 14:42:14.587,eb:33:2e:f9:57:b5, 2085-97-68 06:58:253:3638,0.683,-0.211,1.765,100.403,-339.417,-170.044,16.93,-12.805,175.1
 14:42:14.588,eb:33:2e:f9:57:b5, 2085-113-58 00:197:224:-3120,0.607,-0.463,1.772,95.52,-357.544,-162.964,18.594,-15.59,172.381
 14:42:14.588,eb:33:2e:f9:57:b5, 2085-97-245 03:155:250:3663,0.431,-0.575,1.793,93.75,-365.967,-154.175,19.479,-16.996,170.843
 14:42:14.588,eb:33:2e:f9:57:b5, 2085-97-32 03:215:249:3767,0.366,-0.742,1.81,95.032,-382.751,-125.671,21.308,-20.001,168.113
 14:42:14.614,eb:33:2e:f9:57:b5, 2085-97-226 02:123:250:3842,0.355,-0.744,1.862,103.21,-396.79,-93.201,23.307,-23.148,165.284
 14:42:14.614,eb:33:2e:f9:57:b5, 2085-97-188 02:217:251:3939,0.326,-0.61,1.895,113.037,-410.034,-65.674,25.51,-26.477,162.691
 14:42:14.614,eb:33:2e:f9:57:b5, 2085-97-87 02:33:253:3978,0.245,-0.441,1.944,126.831,-423.645,-51.27,28.015,-29.888,159.818
 14:42:14.614,eb:33:2e:f9:57:b5, 2085-97-78 01:131:254:3998,0.058,-0.273,1.953,151.367,-442.505,-51.819,31.025,-33.387,156.813
 14:42:14.674,eb:33:2e:f9:57:b5, 2085-97-82 255:210:255:4044,-0.214,-0.1,1.967,195.801,-475.647,-66.772,34.898,-36.854,152.99
 14:42:14.674,eb:33:2e:f9:57:b5, 2085-97-175 252:145:00:4387,-0.671,0.042,2.066,250.305,-517.212,-89.05,40.128,-40.298,148.315
 14:42:14.674,eb:33:2e:f9:57:b5, 2085-97-191 247:155:00:5197,-1.425,0.075,2.259,290.71,-556.702,-101.624,46.851,-43.434,142.245
 14:42:14.674,eb:33:2e:f9:57:b5, 2085-97-113 241:39:255:7485,-2.225,0.042,3.141,303.345,-549.377,-104.675,54.91,-46.165,135.148
 14:42:14.704,eb:33:2e:f9:57:b5, 2085-97-139 235:84:254:7030,-2.771,-0.213,3.656,289.429,-376.221,-104.248,62.682,-47.565,128.469
 14:42:14.704,eb:33:2e:f9:57:b5, 2085-97-156 232:55:00:5268,-2.908,-0.132,2.987,245.361,-174.194,-99.487,68.412,-47.697,124.409
 14:42:14.704,eb:33:2e:f9:57:b5, 2085-97-245 232:168:01:4757,-2.858,0.182,2.433,185.303,-77.209,-123.84,72.021,-47,122.245
 14:42:14.704,eb:33:2e:f9:57:b5, 2085-97-180 233:87:255:4213,-2.647,0.097,2.224,127.808,-14.404,-175.964,74.399,-45.665,121.135
 14:42:14.734,eb:33:2e:f9:57:b5, 2085-97-15 236:73:252:3635,-2.079,-0.235,1.875,89.233,29.053,-237.671,75.729,-43.555,120.569
 14:42:14.734,eb:33:2e:f9:57:b5, 2085-97-250 221:133:196:1845,-5.186,-4.454,0.272,-24.475,31.372,-216.98,76.569,-41.034,120.251
 14:42:14.734,eb:33:2e:f9:57:b5, 2085-97-128 233:56:230:5640,-0.277,-6.583,0.425,-372.62,370.789,205.017,72.477,-40.435,122.981
 14:42:14.734,eb:33:2e:f9:57:b5, 2085-97-00 07:96:254:9004,0.984,-2.145,4.559,-330.017,535.461,335.083,63.671,-41.462,130.638
 14:42:14.765,eb:33:2e:f9:57:b5, 2085-97-222 15:126:18:7695,2.737,0.537,5.128,-219.055,714.172,337.769,54.866,-41.353,139.927
 14:42:14.765,eb:33:2e:f9:57:b5, 2085-97-25 24:223:12:-1367,1.707,3.658,0.675,-457.581,574.524,119.202,45.681,-38.694,149.024
 14:42:14.765,eb:33:2e:f9:57:b5, 2085-97-82 18:234:248:10144,2.132,-0.325,1.736,-427.002,304.26,-10.681,38.496,-35.986,152.913
 14:42:14.765,eb:33:2e:f9:57:b5, 2085-97-104 06:52:255:5383,-0.434,-0.235,3.688,-331.299,404.48,-67.688,33.651,-32.833,155.05
 14:42:14.853,eb:33:2e:f9:57:b5, 2085-97-229 247:254:251:1463,-1.444,-0.409,1.953,-272.4,405.457,-78.369,29.63,-28.784,156.868
 14:42:14.853,eb:33:2e:f9:57:b5, 2085-97-214 244:27:251:1783,-1.21,-0.474,0.492,-228.455,310.242,-43.579,26.537,-25.345,158.324
 14:42:14.853,eb:33:2e:f9:57:b5, 2085-97-174 247:16:254:-027,-0.951,-0.506,0.646,-202.148,245.789,-5.615,23.895,-22.676,159.362
 14:42:14.853,eb:33:2e:f9:57:b5, 2085-97-248 248:68:254:231,-0.555,-0.108,-0.33,-190.247,163.269,13.489,21.605,-20.863,160.351
 14:42:14.855,eb:33:2e:f9:57:b5, 2085-97-45 254:127:255:1675,-2.38,-0.218,0.551,-179.81,123.108,25.574,19.44,-19.55,161.032
 14:42:14.855,eb:33:2e:f9:57:b5, 2085-97-18 13:253:247:8274,0.654,-0.932,4.387,-98.938,-73.608,-72.388,17.672,-18.644,161.526
 14:42:14.855,eb:33:2e:f9:57:b5, 2085-97-102 02:235:254:3513,0.185,-0.06,2.163,-20.447,42.542,-52.49,17.435,-18.589,160.746
 14:42:14.856,eb:33:2e:f9:57:b5, 2085-97-253 254:163:253:2702,-0.485,-0.227,1.736,-6.165,114.929,-32.41,17.353,-17.584,160.697
 14:42:15.034,eb:33:2e:f9:57:b5, 2085-97-89 251:91:255:917,-0.562,-0.196,0.699,5.066,75.684,-13,17.254,-16.436,160.779
 14:42:15.034,eb:33:2e:f9:57:b5, 2085-97-18 252:190:255:1099,-0.376,-0.032,0.432,4.517,15.442,-6.775,17.298,-16.018,160.889
 14:42:15.034,eb:33:2e:f9:57:b5, 2085-97-77 254:231:255:1853,-0.089,-0.031,0.695,4.333,-22.095,-1.221,17.287,-15.958,160.785
 14:42:15.034,eb:33:2e:f9:57:b5, 2085-97-213 255:86:00:2309,-0.012,0.017,1.055,4.578,-26.367,1.587,17.353,-16.216,160.779
 14:42:15.038,eb:33:2e:f9:57:b5, 2085-97-142 255:125:00:2146,-0.1,0.055,1.115,4.333,-19.043,-1.526,17.353,-16.304,160.664
 14:42:15.038,eb:33:2e:f9:57:b5, 2085-97-228 254:97:00:1931,-0.161,0.057,0.99,2.869,-20.874,-5.188,17.419,-16.479,160.631
 14:42:15.038,eb:33:2e:f9:57:b5, 2085-97-162 254:53:00:1861,-0.178,0.032,0.917,1.16,-30.029,-6.165,17.408,-16.578,160.455
 14:42:15.038,eb:33:2e:f9:57:b5, 2085-97-200 254:53:00:1902,-0.167,0.025,0.898,-0.916,-41.382,-4.639,17.457,-16.902,160.351
 14:42:15.038,eb:33:2e:f9:57:b5, 2085-97-214 254:59:00:1919,-0.127,0.031,0.919,-2.93,-50.232,-2.747,17.43,-17.216,160.12
 14:42:15.038,eb:33:2e:f9:57:b5, 2085-97-75 255:48:00:2033,-0.071,0.024,0.966,-5.981,-53.833,0,17.435,-17.715,159.999
 14:42:15.038,eb:33:2e:f9:57:b5, 2085-97-95 255:60:00:2062,-0.022,0.001,1.03,-7.812,-52.368,3.479,17.347,-18.116,159.796
 14:42:15.038,eb:33:2e:f9:57:b5, 2085-97-230 255:40:00:2220,0.009,0.024,1.074,-9.583,-48.767,5.737,17.298,-18.622,159.741
 14:42:15.042,eb:33:2e:f9:57:b5, 2085-97-254 255:27:00:2193,-0.02,0.011,1.099,-10.315,-39.734,8.484,17.144,-18.94,159.642
 14:42:15.042,eb:33:2e:f9:57:b5, 2085-97-195 255:62:00:2097,-0.011,0.022,1.041,-10.437,-35.156,9.705,17.051,-19.319,159.686
 14:42:15.042,eb:33:2e:f9:57:b5, 2085-97-234 255:71:00:2109,-0.013,0.03,1.038,-11.475,-31.189,9.827,16.87,-19.55,159.648
 14:42:15.042,eb:33:2e:f9:57:b5, 2085-97-01 00:107:00:2103,0.015,0.043,1.026,-12.024,-30.884,8.118,16.749,-19.869,159.708
 14:42:15.042,eb:33:2e:f9:57:b5, 2085-97-30 00:178:00:2160,0.038,0.058,1.042,-13.306,-31.372,3.784,16.562,-20.067,159.642
 14:42:15.042,eb:33:2e:f9:57:b5, 2085-97-96 00:104:01:2318,0.04,0.12,1.099,-16.846,-24.048,-2.441,16.441,-20.336,159.62
 14:42:15.042,eb:33:2e:f9:57:b5, 2085-97-13 00:113:02:2381,0.089,0.191,1.138,-24.231,-5.798,-9.033,16.194,-20.341,159.494
 14:42:15.042,eb:33:2e:f9:57:b5, 2085-97-249 255:75:01:2196,0.025,0.169,1.196,-30.396,18.066,-19.653,15.963,-20.242,159.423
 14:42:15.124,eb:33:2e:f9:57:b5, 2085-97-205 255:230:01:2180,0.107,0.057,1.125,-31.128,29.541,-28.503,15.639,-19.819,159.214
 14:42:15.124,eb:33:2e:f9:57:b5, 2085-97-222 00:245:01:2578,0.081,0.234,1.251,-36.133,38.818,-40.405,15.397,-19.413,159.005
 14:42:15.124,eb:33:2e:f9:57:b5, 2085-97-237 255:11:02:2336,0,0.188,1.2,-48.096,51.636,-53.04,15.018,-18.715,158.632
 14:42:15.124,eb:33:2e:f9:57:b5, 2085-97-00 00:86:02:2468,-0.018,0.248,1.215,-68.42,59.631,-62.012,14.562,-18.034,158.258
 14:42:15.274,eb:33:2e:f9:57:b5, 2085-97-31 00:167:02:2677,0.121,0.341,1.218,-84.106,75.317,-76.416,13.87,-17.084,157.725
 14:42:15.274,eb:33:2e:f9:57:b5, 2085-97-246 00:214:02:2962,0.156,0.33,1.396,-100.037,103.149,-93.872,13.129,-16.002,157.137
 14:42:15.274,eb:33:2e:f9:57:b5, 2085-97-74 01:85:03:3083,0.209,0.373,1.488,-123.23,134.888,-111.389,12.134,-14.48,156.357
 14:42:15.274,eb:33:2e:f9:57:b5, 2085-97-175 01:105:03:2977,0.193,0.445,1.52,-150.818,169.861,-129.944,10.959,-12.722,155.544
 14:42:15.276,eb:33:2e:f9:57:b5, 2085-97-51 01:145:02:2688,0.086,0.374,1.408,-175.232,201.965,-148.987,9.448,-10.497,154.468
 14:42:15.276,eb:33:2e:f9:57:b5, 2085-97-203 255:43:02:2068,-0.1,0.295,1.205,-195.19,224.548,-164.124,7.784,-8.113,153.32
 14:42:15.276,eb:33:2e:f9:57:b5, 2085-97-37 255:51:01:1479,0.121,0.208,0.836,-205.566,221.069,-182.556,5.861,-5.554,151.842
 14:42:15.276,eb:33:2e:f9:57:b5, 2085-97-73 06:250:14:-1283,1.171,0.583,-0.017,-176.575,156.433,-189.575,3.999,-3.34,150.249
 14:42:15.278,eb:33:2e:f9:57:b5, 2085-97-66 18:106:21:-2917,2.81,1.7,-0.465,-77.698,-11.414,-245.178,2.785,-2.51,147.98
 14:42:15.278,eb:33:2e:f9:57:b5, 2085-97-251 16:176:13:1284,1.69,1.973,0.451,23.743,-208.923,-378.906,2.807,-4.092,144.706
 14:42:15.278,eb:33:2e:f9:57:b5, 2085-97-45 10:24:08:3020,0.876,1.39,1.055,98.938,-274.78,-430.42,3.796,-6.185,140.35
 14:42:15.278,eb:33:2e:f9:57:b5, 2085-97-89 03:243:02:3346,-0.011,0.636,1.663,129.7,-281.555,-434.998,5.603,-8.597,135.78
 14:42:15.280,eb:33:2e:f9:57:b5, 2085-97-109 252:114:255:3150,-0.833,0.153,1.589,118.591,-265.137,-399.719,7.559,-10.717,131.182
 14:42:15.280,eb:33:2e:f9:57:b5, 2085-97-53 247:122:252:3499,-1.272,-0.271,1.559,85.205,-241.333,-336.914,9.41,-12.634,127.156
 14:42:15.280,eb:33:2e:f9:57:b5, 2085-97-93 245:199:250:4557,-1.272,-0.567,1.963,53.589,-172.058,-254.944,10.767,-14.09,123.766
 14:42:15.280,eb:33:2e:f9:57:b5, 2085-97-233 246:78:251:4704,-0.944,-0.676,2.399,37.17,-18.127,-163.33,11.766,-14.579,121.591
 14:42:15.304,eb:33:2e:f9:57:b5, 2085-97-208 249:110:254:3475,-0.599,-0.361,1.937,42.297,113.098,-79.041,12.294,-13.672,120.542
 14:42:15.304,eb:33:2e:f9:57:b5, 2085-97-173 252:47:00:2718,-0.254,-0.072,1.49,66.223,141.357,-36.438,12.887,-12.244,120.421
 14:42:15.304,eb:33:2e:f9:57:b5, 2085-97-19 255:32:01:2337,0.028,0.083,1.213,94.543,126.892,-18.005,13.585,-10.816,120.487
 14:42:15.304,eb:33:2e:f9:57:b5, 2085-97-60 01:178:01:2291,0.239,0.186,1.113,115.051,108.093,-17.029,14.628,-9.662,120.718
 14:42:15.393,eb:33:2e:f9:57:b5, 2085-97-82 02:155:01:2277,0.318,0.212,1.125,120.239,106.689,-20.508,15.694,-8.531,120.806
 14:42:15.393,eb:33:2e:f9:57:b5, 2085-97-191 02:95:01:2162,0.349,0.194,1.081,115.784,105.957,-28.748,16.864,-7.432,120.976
 14:42:15.393,eb:33:2e:f9:57:b5, 2085-97-198 02:16:01:1996,0.36,0.149,1.018,107.605,96.497,-40.527,17.875,-6.306,120.927
 14:42:15.393,eb:33:2e:f9:57:b5, 2085-113-58 00:229:222:-990,0.348,0.114,0.955,100.342,79.102,-56.641,18.929,-5.317,120.839
 14:42:15.395,eb:33:2e:f9:57:b5, 2085-97-153 02:132:00:1910,0.305,0.094,0.932,97.595,69.824,-65.247,19.44,-4.867,120.674
 14:42:15.395,eb:33:2e:f9:57:b5, 2085-97-42 02:237:255:2064,0.231,0.031,0.962,97.656,51.331,-82.092,20.347,-3.999,120.146
 14:42:15.395,eb:33:2e:f9:57:b5, 2085-97-98 01:27:255:2292,0.134,-0.054,1.062,103.882,37.781,-95.886,21.396,-3.263,119.559
 14:42:15.395,eb:33:2e:f9:57:b5, 2085-97-192 00:90:254:2496,0.059,-0.157,1.176,111.633,33.264,-103.821,22.418,-2.51,118.718
 14:42:15.456,eb:33:2e:f9:57:b5, 2085-97-42 00:191:253:2634,0,-0.248,1.255,117.737,37.354,-105.957,23.604,-1.769,117.988
 14:42:15.456,eb:33:2e:f9:57:b5, 2085-97-234 255:125:253:2682,-0.014,-0.306,1.303,119.812,46.509,-104.248,24.708,-0.901,117.169
 14:42:15.456,eb:33:2e:f9:57:b5, 2085-97-01 00:122:253:2673,0.018,-0.316,1.312,117.493,57.617,-101.746,25.906,0.022,116.57
 14:42:15.456,eb:33:2e:f9:57:b5, 2085-97-76 00:167:253:2611,0.057,-0.308,1.286,113.281,67.505,-99.67,26.944,1.077,115.922
 14:42:15.456,eb:33:2e:f9:57:b5, 2085-97-153 00:223:253:2530,0.089,-0.28,1.259,108.154,72.571,-99.731,28.037,2.17,115.477
 14:42:15.456,eb:33:2e:f9:57:b5, 2085-97-210 00:239:253:2455,0.115,-0.259,1.215,100.525,73.12,-101.868,28.938,3.34,114.911
 14:42:15.456,eb:33:2e:f9:57:b5, 2085-97-250 00:225:253:2416,0.126,-0.258,1.185,91.37,71.106,-105.53,29.861,4.482,114.467
 14:42:15.456,eb:33:2e:f9:57:b5, 2085-97-03 01:154:253:2425,0.123,-0.279,1.179,85.632,67.322,-108.521,30.575,5.663,113.857
 14:42:15.484,eb:33:2e:f9:57:b5, 2085-97-238 00:35:253:2459,0.106,-0.326,1.191,84.473,63.782,-109.741,31.36,6.79,113.357
 14:42:15.484,eb:33:2e:f9:57:b5, 2085-97-193 00:151:252:2457,0.083,-0.391,1.203,87.463,61.523,-107.727,32.025,7.932,112.72
 14:42:15.484,eb:33:2e:f9:57:b5, 2085-97-152 00:19:252:2416,0.069,-0.46,1.191,91.675,60.364,-102.356,32.844,9.014,112.258
 14:42:15.484,eb:33:2e:f9:57:b5, 2085-97-136 00:158:251:2366,0.067,-0.52,1.168,94.666,60.791,-93.75,33.574,10.085,111.725
 14:42:15.545,eb:33:2e:f9:57:b5, 2085-97-143 00:60:251:2282,0.077,-0.574,1.141,95.642,61.34,-82.336,34.464,11.085,111.445
 14:42:15.545,eb:33:2e:f9:57:b5, 2085-97-180 00:228:250:2123,0.105,-0.617,1.08,91.98,59.082,-70.557,35.222,12.041,111.121
 14:42:15.545,eb:33:2e:f9:57:b5, 2085-97-255 00:154:250:1946,0.148,-0.658,0.993,83.008,53.955,-58.96,36.057,12.876,111.028
 14:42:15.545,eb:33:2e:f9:57:b5, 2085-97-94 01:122:250:1773,0.188,-0.687,0.911,73.12,45.837,-48.34,36.672,13.612,110.847
 14:42:15.574,eb:33:2e:f9:57:b5, 2085-97-163 01:137:250:1567,0.225,-0.687,0.812,64.697,31.494,-40.588,37.332,14.183,110.825
 14:42:15.574,eb:33:2e:f9:57:b5, 2085-97-239 01:104:250:1493,0.256,-0.688,0.74,55.603,12.024,-37.048,37.755,14.606,110.588
 14:42:15.574,eb:33:2e:f9:57:b5, 2085-97-37 02:63:250:1526,0.277,-0.709,0.733,46.631,-3.784,-35.828,38.188,14.854,110.314
 14:42:15.574,eb:33:2e:f9:57:b5, 2085-97-63 02:56:250:1525,0.286,-0.726,0.75,39.551,-14.526,-36.255,38.392,15.018,109.896
 14:42:15.694,eb:33:2e:f9:57:b5, 2085-97-81 02:94:250:1489,0.293,-0.714,0.737,32.043,-23.01,-39.001,38.639,15.106,109.468
 14:42:15.694,eb:33:2e:f9:57:b5, 2085-97-99 02:159:250:1454,0.304,-0.691,0.72,22.461,-29.785,-44.373,38.633,15.178,108.896
 14:42:15.694,eb:33:2e:f9:57:b5, 2085-97-118 02:03:251:1417,0.309,-0.649,0.7,11.719,-36.133,-52.429,38.644,15.227,108.292
 14:42:15.694,eb:33:2e:f9:57:b5, 2085-97-120 02:110:251:1391,0.308,-0.595,0.684,-1.709,-43.518,-64.392,38.359,15.293,107.496
 14:42:15.697,eb:33:2e:f9:57:b5, 2085-97-117 02:199:251:1392,0.305,-0.548,0.679,-14.709,-49.988,-77.271,38.04,15.375,106.611
 14:42:15.697,eb:33:2e:f9:57:b5, 2085-97-104 02:09:252:1415,0.294,-0.511,0.686,-26.184,-55.542,-90.942,37.414,15.491,105.518
 14:42:15.697,eb:33:2e:f9:57:b5, 2085-97-77 02:79:252:1421,0.275,-0.477,0.692,-34.973,-61.035,-104.37,36.788,15.628,104.343
 14:42:15.697,eb:33:2e:f9:57:b5, 2085-97-16 02:126:252:1459,0.24,-0.449,0.701,-43.03,-66.65,-116.943,35.892,15.782,102.953
 14:42:15.725,eb:33:2e:f9:57:b5, 2085-97-196 01:170:252:1528,0.202,-0.43,0.728,-52.49,-70.496,-127.747,35.019,15.952,101.497
 14:42:15.725,eb:33:2e:f9:57:b5, 2085-97-121 01:16:253:1661,0.173,-0.396,0.768,-62.439,-72.632,-136.353,33.865,16.117,99.877
 14:42:15.725,eb:33:2e:f9:57:b5, 2085-97-81 01:196:253:1946,0.152,-0.331,0.877,-64.392,-72.876,-143.311,32.767,16.293,98.24
 14:42:15.726,eb:33:2e:f9:57:b5, 2085-97-23 01:244:254:2051,0.107,-0.21,0.997,-54.932,-68.665,-147.644,31.553,16.469,96.504
 14:42:15.728,eb:33:2e:f9:57:b5, 2085-97-132 00:55:00:1928,0.007,-0.052,0.973,-46.265,-68.237,-151.794,30.58,16.677,94.801
 14:42:15.728,eb:33:2e:f9:57:b5, 2085-97-126 255:121:01:1926,-0.134,0.106,0.923,-48.584,-75.317,-156.677,29.46,16.82,92.972
 14:42:15.728,eb:33:2e:f9:57:b5, 2085-97-102 254:203:02:2257,-0.261,0.258,1.009,-54.077,-80.933,-158.386,28.411,16.913,91.126
 14:42:15.728,eb:33:2e:f9:57:b5, 2085-97-96 253:235:04:2588,-0.407,0.467,1.193,-47.729,-77.148,-155.273,27.219,16.924,89.231
 14:42:15.785,eb:33:2e:f9:57:b5, 2085-97-31 252:205:07:2734,-0.571,0.788,1.305,-28.198,-67.993,-150.94,26.334,16.985,87.468
 14:42:15.785,eb:33:2e:f9:57:b5, 2085-97-163 250:18:11:2825,-0.768,1.179,1.357,-0.244,-58.289,-147.644,25.571,17.045,85.726
 14:42:15.785,eb:33:2e:f9:57:b5, 2085-97-28 249:228:13:2958,-0.941,1.575,1.41,34.729,-51.392,-145.386,25.28,17.199,84.1
 14:42:15.785,eb:33:2e:f9:57:b5, 2085-97-242 247:163:15:3036,-1.357,1.862,1.473,76.965,-44.128,-142.09,25.263,17.347,82.474
 14:42:15.814,eb:33:2e:f9:57:b5, 2085-97-243 254:05:15:-069,-0.553,2.201,0.528,114.868,-119.751,-148.376,25.84,17.452,80.826
 14:42:15.814,eb:33:2e:f9:57:b5, 2085-97-144 248:159:08:4019,-0.68,1.515,0.527,17.517,-212.341,-131.348,25.593,16.425,78.558
 14:42:15.814,eb:33:2e:f9:57:b5, 2085-97-159 245:194:250:5380,-1.007,-0.238,2.708,12.817,-135.498,-92.529,25.34,15.194,76.531
 14:42:15.814,eb:33:2e:f9:57:b5, 2085-97-150 253:09:245:3540,0.249,-1.125,2.614,8.362,61.462,-12.756,25.126,15.079,75.8
 14:42:15.875,eb:33:2e:f9:57:b5, 2085-97-231 01:159:245:-829,0.113,-1.418,0.452,-12.329,93.445,33.264,25.28,15.936,76.355
 14:42:15.875,eb:33:2e:f9:57:b5, 2085-97-182 00:145:252:3647,-0.04,-0.863,0.435,0.488,1.282,-19.714,25.093,16.128,76.542
 14:42:15.875,eb:33:2e:f9:57:b5, 2085-97-156 01:144:00:3502,0.373,-0.182,1.944,5.188,63.11,8.667,25.186,16.458,76.531
 14:42:15.875,eb:33:2e:f9:57:b5, 2085-97-106 01:63:01:2820,-0.006,0.224,1.392,20.02,73.12,-2.136,25.291,17.034,76.866
 14:42:15.906,eb:33:2e:f9:57:b5, 2085-97-117 255:152:255:3117,-0.038,0.004,1.512,34.912,72.693,-5.554,25.659,17.704,77.053
 14:42:15.906,eb:33:2e:f9:57:b5, 2085-97-40 00:137:00:2823,-0.003,0.004,1.443,49.438,79.59,-1.282,26.071,18.347,77.349
 14:42:15.906,eb:33:2e:f9:57:b5, 2085-97-99 255:05:01:2247,-0.173,0.119,1.261,60.181,77.148,-1.343,26.741,19.061,77.64
 14:42:15.906,eb:33:2e:f9:57:b5, 2085-97-225 252:254:255:2091,-0.461,0.061,1.089,71.411,61.584,-2.563,27.383,19.622,77.893
 14:42:15.935,eb:33:2e:f9:57:b5, 2085-97-94 252:178:255:2066,-0.433,-0.065,1.001,79.59,42.664,4.211,28.229,20.072,78.08
 14:42:15.935,eb:33:2e:f9:57:b5, 2085-97-63 253:29:01:1508,-0.344,0.068,0.794,81.787,30.823,13.611,29.015,20.286,78.333
 14:42:15.935,eb:33:2e:f9:57:b5, 2085-97-183 252:157:01:1292,-0.312,0.132,0.739,76.904,21.301,20.813,29.91,20.413,78.536
 14:42:15.935,eb:33:2e:f9:57:b5, 2085-97-106 254:139:02:1336,-0.114,0.251,0.606,68.726,11.536,27.771,30.619,20.363,78.81
 14:42:16.023,eb:33:2e:f9:57:b5, 2085-97-233 254:208:02:1462,-0.116,0.337,0.797,56.702,12.695,30.457,31.349,20.308,79.052
 14:42:16.023,eb:33:2e:f9:57:b5, 2085-97-252 254:248:01:1911,-0.215,0.343,0.851,50.659,10.193,24.536,31.86,20.204,79.31
 14:42:16.023,eb:33:2e:f9:57:b5, 2085-97-167 254:67:02:1917,-0.181,0.268,0.919,47.485,15.259,24.109,32.443,20.182,79.525
 14:42:16.023,eb:33:2e:f9:57:b5, 2085-97-93 254:178:01:2202,-0.218,0.237,0.973,46.57,13.855,22.766,32.893,20.121,79.772
 14:42:16.023,eb:33:2e:f9:57:b5, 2085-97-73 254:66:02:1874,-0.246,0.241,0.893,47.241,17.761,25.208,33.464,20.132,80.019
 14:42:16.084,eb:33:2e:f9:57:b5, 2085-113-58 00:14:227:1500,-0.224,0.232,0.947,46.021,14.465,24.841,33.915,20.072,80.288
 14:42:16.084,eb:33:2e:f9:57:b5, 2085-97-195 253:200:01:1959,-0.255,0.191,1.025,45.227,15.503,28.931,34.195,20.061,80.37
 14:42:16.084,eb:33:2e:f9:57:b5, 2085-97-14 254:136:01:2257,-0.196,0.23,1.016,47.729,13.611,28.198,34.651,19.968,80.667
 14:42:16.084,eb:33:2e:f9:57:b5, 2085-97-59 254:125:01:2482,-0.187,0.162,1.166,50.964,15.198,30.09,35.255,19.907,80.997
 14:42:16.114,eb:33:2e:f9:57:b5, 2085-97-162 254:252:00:2832,-0.132,0.16,1.266,61.462,15.076,27.649,35.81,19.808,81.299
 14:42:16.115,eb:33:2e:f9:57:b5, 2085-97-165 254:120:00:3102,-0.122,0.076,1.467,75.195,16.785,27.405,36.601,19.764,81.628
 14:42:16.115,eb:33:2e:f9:57:b5, 2085-97-133 255:46:00:3403,-0.026,0.056,1.57,96.863,18.433,23.071,37.452,19.704,81.92
 14:42:16.115,eb:33:2e:f9:57:b5, 2085-97-65 00:245:255:3718,0.133,0.011,1.762,124.695,21.79,18.799,38.672,19.726,82.216
 14:42:16.115,eb:33:2e:f9:57:b5, 2085-97-168 01:190:255:3994,0.3,-0.022,1.871,161.377,23.254,6.958,40.073,19.77,82.441
 14:42:16.115,eb:33:2e:f9:57:b5, 2085-97-16 03:208:255:3933,0.366,-0.046,1.936,207.214,26.917,-12.39,41.984,19.984,82.606
 14:42:16.115,eb:33:2e:f9:57:b5, 2085-97-165 02:51:255:3840,0.155,-0.05,1.933,256.287,33.875,-35.339,44.203,20.319,82.595
 14:42:16.116,eb:33:2e:f9:57:b5, 2085-97-161 254:236:00:3931,-0.525,-0.018,1.854,301.941,48.401,-52.551,47.021,20.929,82.584
 14:42:16.145,eb:33:2e:f9:57:b5, 2085-97-215 249:138:02:2313,-0.987,0.072,1.696,325.806,54.077,-57.617,50.07,21.676,82.59
 14:42:16.145,eb:33:2e:f9:57:b5, 2085-113-81 00:128:164:-7280,-1.223,0.525,1.073,325.439,5.493,-44.067,53.306,22.247,82.502
 14:42:16.145,eb:33:2e:f9:57:b5, 2085-97-29 244:248:03:3783,-1.407,0.625,1.529,318.97,0.916,-44.312,54.86,22.423,82.359
 14:42:16.145,eb:33:2e:f9:57:b5, 2085-97-58 247:163:06:3481,-1.062,0.637,1.798,313.66,15.991,-20.203,57.832,22.703,82.26
 14:42:16.175,eb:33:2e:f9:57:b5, 2085-97-228 248:150:05:3871,-0.667,0.695,1.748,279.48,31.128,2.563,60.881,22.885,82.414
 14:42:16.175,eb:33:2e:f9:57:b5, 2085-97-214 250:151:09:4997,-0.474,0.871,2.066,273.926,61.707,24.963,63.638,22.912,82.881
 14:42:16.175,eb:33:2e:f9:57:b5, 2085-97-212 252:88:11:3942,-0.323,1.176,2.315,321.35,165.161,44.678,67.137,23.093,84.199
 14:42:16.175,eb:33:2e:f9:57:b5, 2085-97-141 252:10:06:3585,-0.183,1.099,1.743,359.924,184.998,79.224,71.252,23.132,86.276
 14:42:16.235,eb:33:2e:f9:57:b5, 2085-97-233 253:159:255:2155,-0.213,-0.104,2.148,407.654,219.421,154.236,76.014,22.56,88.704
 14:42:16.235,eb:33:2e:f9:57:b5, 2085-97-21 255:206:01:2552,-0.004,0.324,0.663,353.21,193.237,218.14,80.7,21.011,91.159
 14:42:16.235,eb:33:2e:f9:57:b5, 2085-97-29 02:88:03:5022,0.527,0.333,1.932,261.475,233.154,246.338,84.567,18.875,93.708
 14:42:16.235,eb:33:2e:f9:57:b5, 2085-97-189 06:226:04:5558,1.094,0.453,2.71,208.496,297.729,238.342,87.589,16.567,96.663
 14:42:16.265,eb:33:2e:f9:57:b5, 2085-97-153 09:17:10:5254,1.351,0.901,2.628,196.411,289.551,191.223,90.423,14.42,99.827
 14:42:16.265,eb:33:2e:f9:57:b5, 2085-97-01 12:206:12:4675,1.515,1.538,2.406,210.449,176.208,87.158,92.834,12.953,102.156
 14:42:16.265,eb:33:2e:f9:57:b5, 2085-97-09 11:163:12:5517,1.208,1.613,2.359,226.013,48.035,-33.081,95.262,12.651,103.233
 14:42:16.266,eb:33:2e:f9:57:b5, 2085-97-150 08:55:07:7890,1.013,1.362,3.287,229.797,-76.477,-158.936,97.361,13.7,103.112
 14:42:16.294,eb:33:2e:f9:57:b5, 2085-97-53 08:105:254:8445,1.011,0.312,4.138,209.961,-90.515,-254.333,99.421,15.98,102.491
 14:42:16.294,eb:33:2e:f9:57:b5, 2085-97-22 08:63:249:7090,0.968,-0.58,3.837,157.776,1.099,-293.762,101.107,18.803,102.596
 14:42:16.294,eb:33:2e:f9:57:b5, 2085-97-97 07:241:246:5448,0.876,-1.007,3.047,93.811,86.365,-296.57,102.766,21.583,103.848
 14:42:16.294,eb:33:2e:f9:57:b5, 2085-97-131 06:199:244:4181,0.774,-1.255,2.33,32.898,93.14,-286.255,103.854,24.175,105.606
 14:42:16.354,eb:33:2e:f9:57:b5, 2085-97-233 05:59:242:3164,0.711,-1.556,1.813,-30.273,58.716,-262.39,104.518,26.631,107.194
 14:42:16.354,eb:33:2e:f9:57:b5, 2085-97-82 05:19:240:2155,0.654,-1.86,1.306,-112.976,28.87,-212.402,104.057,28.812,108.281
 14:42:16.354,eb:33:2e:f9:57:b5, 2085-97-112 05:139:238:1367,0.723,-2.109,0.853,-192.261,18.066,-148.743,102.859,30.487,109.028
 14:42:16.354,eb:33:2e:f9:57:b5, 2085-97-11 06:87:238:899,0.813,-2.22,0.559,-266.113,15.991,-81.299,100.547,31.547,109.44
 14:42:16.354,eb:33:2e:f9:57:b5, 2085-97-14 07:190:239:402,0.968,-2.14,0.35,-324.402,-11.841,-23.193,97.619,32.014,109.567
 14:42:16.385,eb:33:2e:f9:57:b5, 2085-113-58 00:59:242:405,1.069,-1.937,0.074,-370.056,-68.298,21.24,93.642,32.042,109.023
 14:42:16.385,eb:33:2e:f9:57:b5, 2085-97-28 09:83:242:010,1.247,-1.836,0.041,-389.465,-102.966,37.476,91.456,31.91,108.484
 14:42:16.385,eb:33:2e:f9:57:b5, 2085-97-186 10:250:243:523,1.304,-1.588,0.04,-421.997,-180.969,56.152,86.27,31.41,106.705
 14:42:16.385,eb:33:2e:f9:57:b5, 2085-97-70 10:149:244:1653,1.244,-1.452,0.519,-440.613,-255.859,60.669,80.667,30.575,104.238
 14:42:16.416,eb:33:2e:f9:57:b5, 2085-97-218 09:208:243:3736,1.009,-1.423,1.075,-447.51,-320.374,47.119,74.416,29.449,100.964
 14:42:16.416,eb:33:2e:f9:57:b5, 2085-97-131 06:185:245:2973,1.05,-1.419,1.572,-459.106,-321.228,43.335,68.34,28.032,97.806
 14:42:16.416,eb:33:2e:f9:57:b5, 2085-97-176 07:219:244:4142,0.886,-1.446,1.985,-466.431,-338.806,27.527,61.979,26.307,94.318
 14:42:16.416,eb:33:2e:f9:57:b5, 2085-97-234 06:64:245:4258,0.875,-1.358,2.024,-482.422,-336.853,12.695,55.909,24.434,91.241
 14:42:16.593,eb:33:2e:f9:57:b5, 2085-97-183 06:222:245:4336,0.734,-1.328,2.125,-497.375,-346.436,-13.123,49.614,22.346,88.193
 14:42:16.593,eb:33:2e:f9:57:b5, 2085-97-182 04:226:246:4526,0.36,-1.186,2.13,-508.301,-367.493,-41.565,43.484,20.132,85.182
 14:42:16.593,eb:33:2e:f9:57:b5, 2085-97-183 00:186:247:4814,-0.192,-1.095,2.269,-508.667,-394.653,-59.631,37.403,17.6,82.106
 14:42:16.593,eb:33:2e:f9:57:b5, 2085-97-21 252:108:249:5215,-0.774,-0.96,2.456,-503.967,-411.56,-51.941,31.536,14.617,79.189
 14:42:16.598,eb:33:2e:f9:57:b5, 2085-97-136 247:133:253:4970,-1.241,-0.614,2.557,-500.122,-408.325,-19.409,25.994,11.217,76.805
 14:42:16.598,eb:33:2e:f9:57:b5, 2085-97-225 244:125:04:4836,-1.551,0.046,2.321,-502.136,-415.955,18.677,20.709,7.46,75.064
 14:42:16.598,eb:33:2e:f9:57:b5, 2085-97-174 242:180:14:5430,-1.782,1.142,2.513,-491.577,-419.312,49.805,15.623,3.362,74.081
 14:42:16.598,eb:33:2e:f9:57:b5, 2085-97-167 240:155:25:5547,-2.233,2.563,2.664,-443.359,-388.672,39.124,10.931,-0.676,73.499
 14:42:16.598,eb:33:2e:f9:57:b5, 2085-97-48 235:195:33:5330,-3.008,3.781,2.672,-372.559,-327.087,-1.343,6.894,-4.235,73.098
 14:42:16.598,eb:33:2e:f9:57:b5, 2085-97-106 228:12:36:4896,-3.936,4.438,2.462,-293.945,-255.859,-42.48,3.669,-7.048,72.477
 14:42:16.598,eb:33:2e:f9:57:b5, 2085-97-114 223:175:35:5056,-4.062,4.532,2.355,-232.483,-185.181,-63.904,1.005,-9.305,71.884
 14:42:16.598,eb:33:2e:f9:57:b5, 2085-97-31 224:182:37:4859,-3.966,4.549,2.45,-172.668,-81.848,-70.312,-0.851,-10.591,71.098
 14:42:16.624,eb:33:2e:f9:57:b5, 2085-97-111 248:83:47:9287,2.907,4.853,2.168,-111.328,-5.554,-69.397,-2.263,-11.008,70.45
 14:42:16.624,eb:33:2e:f9:57:b5, 2085-97-101 55:04:74:2521,-7.246,7.572,-2.589,815.613,-353.333,-852.417,3.724,-12.079,67.577
 14:42:16.624,eb:33:2e:f9:57:b5, 2085-97-04 238:231:19:-6194,-4.145,-4.263,3.127,487.305,1141.846,-492.31,10.195,-2.966,62.287
 14:42:16.624,eb:33:2e:f9:57:b5, 2085-97-89 228:235:03:-2859,-0.891,0.309,-2.399,10.681,321.777,145.63,11.245,3.642,63.463
 14:42:16.628,eb:33:2e:f9:57:b5, 2085-97-231 02:51:251:2708,0.104,-0.112,0.625,73.364,172.241,-20.691,11.613,5.273,64.314
 14:42:16.628,eb:33:2e:f9:57:b5, 2085-97-162 253:131:03:1425,-0.773,0.171,0.908,47.974,126.648,83.801,12.349,6.91,65.099
 14:42:16.628,eb:33:2e:f9:57:b5, 2085-97-51 253:30:01:1520,0.241,0.52,0.334,37.109,21.851,10.498,12.706,7.504,65.808
 14:42:16.628,eb:33:2e:f9:57:b5, 2085-97-147 254:95:01:1609,-0.33,0.122,1.26,30.151,-2.197,7.751,13.063,7.438,65.748
 14:42:16.776,eb:33:2e:f9:57:b5, 2085-97-213 00:191:00:2370,0.172,0.295,0.694,20.691,-30.823,-10.925,13.195,7.213,65.709
 14:42:16.776,eb:33:2e:f9:57:b5, 2085-97-61 255:83:00:1911,-0.306,0.084,1.193,14.099,-5.005,-3.662,13.354,7.081,65.528
 14:42:16.776,eb:33:2e:f9:57:b5, 2085-97-192 254:159:00:1918,-0.045,0,0.799,16.663,-35.461,-5.432,13.381,6.844,65.424
 14:42:16.776,eb:33:2e:f9:57:b5, 2085-97-193 255:115:00:2118,0.126,0.032,1.009,12.817,-57.8,0.488,13.508,6.378,65.209
 14:42:16.776,eb:33:2e:f9:57:b5, 2085-97-178 00:200:255:2354,-0.082,0.013,1.164,14.343,-68.909,13.062,13.524,5.658,65.094
 14:42:16.776,eb:33:2e:f9:57:b5, 2085-97-211 253:120:250:5559,0.04,-0.214,1.369,42.236,-121.033,27.039,13.749,4.752,65.028
 14:42:16.777,eb:33:2e:f9:57:b5, 2085-97-71 00:127:254:4178,-0.027,-0.105,1.982,65.308,-93.018,18.738,14.249,3.549,64.979
 14:42:16.777,eb:33:2e:f9:57:b5, 2085-97-226 00:49:252:5244,0.283,-0.514,2.629,100.281,-81.909,9.949,15.079,2.631,64.792
 14:42:16.779,eb:33:2e:f9:57:b5, 2085-113-81 00:230:148:-3792,0.387,-0.429,2.405,141.663,-58.96,10.193,16.188,1.884,64.693
 14:42:16.779,eb:33:2e:f9:57:b5, 2085-97-59 04:224:252:4952,0.587,-0.407,2.447,162.537,-44.678,7.812,16.957,1.626,64.66
 14:42:16.779,eb:33:2e:f9:57:b5, 2085-97-144 04:187:252:5115,0.738,-0.408,2.394,207.581,-14.832,-0.977,18.82,1.346,64.55
 14:42:16.779,eb:33:2e:f9:57:b5, 2085-97-181 06:171:251:4594,0.966,-0.532,2.445,257.446,38.879,-20.569,21.055,1.461,64.479
 14:42:16.781,eb:33:2e:f9:57:b5, 2085-97-216 07:124:252:3884,0.761,-0.449,2.014,306.213,92.834,-40.771,23.906,2.23,64.407
 14:42:16.781,eb:33:2e:f9:57:b5, 2085-97-223 03:152:250:3899,0.287,-0.513,1.903,339.05,160.156,-47.424,27.054,3.51,64.556
 14:42:16.781,eb:33:2e:f9:57:b5, 2085-97-171 254:151:252:3923,-0.125,-0.676,1.879,365.601,194.336,-33.508,30.635,5.334,65.056
 14:42:16.781,eb:33:2e:f9:57:b5, 2085-97-188 253:27:255:4978,-0.153,-0.535,2.22,394.714,193.787,-38.025,34.415,7.086,65.797
 14:42:16.864,eb:33:2e:f9:57:b5, 2085-97-156 04:57:06:3283,0.508,0.734,2.187,402.71,148.376,-57.922,38.54,8.822,66.561
 14:42:16.864,eb:33:2e:f9:57:b5, 2085-97-100 03:132:05:2897,0.207,0.777,1.307,376.77,31.921,-86.243,42.325,9.794,66.451
 14:42:16.864,eb:33:2e:f9:57:b5, 2085-97-168 255:147:07:4144,-0.038,0.612,1.712,343.75,36.255,-92.102,45.813,10.624,65.907
 14:42:16.864,eb:33:2e:f9:57:b5, 2085-97-111 00:38:08:4229,-0.286,1.278,2.239,353.027,127.075,-98.206,49.12,11.794,65.852
 14:42:16.893,eb:33:2e:f9:57:b5, 2085-97-51 252:139:06:-1003,-0.667,0.979,0.32,367.371,161.865,-79.407,53.009,13.513,66.599
 14:42:16.893,eb:33:2e:f9:57:b5, 2085-97-155 250:98:02:1376,-0.635,0.458,-0.144,260.01,125.488,-29.419,56.173,14.672,67.484
 14:42:16.893,eb:33:2e:f9:57:b5, 2085-97-232 251:202:255:4732,-0.292,0.132,1.647,195.984,155.884,21.912,58.656,15.392,68.571
 14:42:16.893,eb:33:2e:f9:57:b5, 2085-97-172 255:48:254:5836,0.196,-0.143,2.678,193.237,247.742,77.454,61.002,15.886,70.692
 14:42:16.895,eb:33:2e:f9:57:b5, 2085-97-147 03:96:253:5941,0.625,-0.284,2.896,224.976,304.016,116.15,63.94,16.271,73.729
 14:42:16.895,eb:33:2e:f9:57:b5, 2085-97-12 06:42:254:5278,0.91,-0.329,2.769,262.329,318.237,133.179,67.242,16.326,77.256
 14:42:16.895,eb:33:2e:f9:57:b5, 2085-97-225 07:35:02:4765,1.179,-0.029,2.45,286.926,283.142,118.774,70.961,16.177,80.601
 14:42:16.895,eb:33:2e:f9:57:b5, 2085-97-89 10:186:06:5114,1.404,0.551,2.41,293.091,216.736,60.974,74.471,15.98,83.315
 14:42:16.984,eb:33:2e:f9:57:b5, 2085-97-184 11:198:09:5396,1.509,1.087,2.585,285.95,143.066,-39.185,77.871,16.304,85.128
 14:42:16.984,eb:33:2e:f9:57:b5, 2085-97-97 12:162:08:5977,1.534,1.214,2.713,271.179,73.608,-153.564,80.739,17.463,85.995
 14:42:16.984,eb:33:2e:f9:57:b5, 2085-97-210 11:226:04:7177,1.442,0.86,3.221,259.216,30.212,-257.874,83.447,19.627,86.21
 14:42:16.984,eb:33:2e:f9:57:b5, 2085-97-61 11:05:00:7584,1.391,0.332,3.677,244.995,31.006,-340.332,85.798,22.659,86.21
 14:42:17.044,eb:33:2e:f9:57:b5, 2085-97-34 11:180:251:7310,1.359,-0.301,3.669,217.041,65.125,-386.78,88.264,26.362,86.572
 14:42:17.044,eb:33:2e:f9:57:b5, 2085-97-53 10:61:249:6677,1.18,-0.728,3.435,171.692,115.845,-399.78,90.5,30.284,87.589
 14:42:17.044,eb:33:2e:f9:57:b5, 2085-97-118 08:37:247:5594,0.948,-0.967,2.994,112.793,158.203,-385.01,92.884,34.178,89.374
 14:42:17.044,eb:33:2e:f9:57:b5, 2085-97-184 06:209:244:4447,0.715,-1.26,2.459,46.021,188.721,-334.534,95.125,37.623,91.895
 14:42:17.046,eb:33:2e:f9:57:b5, 2085-97-191 04:10:243:3240,0.49,-1.511,1.879,-19.592,205.627,-252.869,97.086,40.298,94.812
 14:42:17.046,eb:33:2e:f9:57:b5, 2085-97-126 03:95:240:1756,0.45,-1.765,1.235,-80.933,196.655,-153.625,98.553,41.968,97.866
 14:42:17.046,eb:33:2e:f9:57:b5, 2085-97-34 05:208:237:045,0.738,-2.159,0.309,-144.897,160.645,-29.297,99.152,42.545,100.464
 14:42:17.046,eb:33:2e:f9:57:b5, 2085-97-156 06:245:237:-1230,0.992,-2.304,-0.283,-199.036,127.869,91.858,98.641,41.935,102.31
 14:42:17.074,eb:33:2e:f9:57:b5, 2085-97-252 09:242:240:-1958,1.49,-2.134,-0.811,-237.732,52.673,201.965,96.982,40.309,103.107
 14:42:17.074,eb:33:2e:f9:57:b5, 2085-97-236 13:19:247:-2460,1.905,-1.514,-1.132,-282.288,-25.269,286.377,94.224,37.793,102.865
 14:42:17.075,eb:33:2e:f9:57:b5, 2085-97-82 16:105:251:-1897,2.144,-0.805,-1.157,-340.027,-93.872,316.04,90.505,34.766,101.827
 14:42:17.075,eb:33:2e:f9:57:b5, 2085-97-162 17:139:254:-701,2.204,-0.365,-0.623,-386.658,-170.959,290.771,85.984,31.679,100.261
 14:42:17.106,eb:33:2e:f9:57:b5, 2085-97-95 17:234:255:295,2.135,-0.068,-0.092,-420.227,-231.262,240.234,80.892,28.839,98.196
 14:42:17.106,eb:33:2e:f9:57:b5, 2085-97-09 17:160:00:1133,2.069,0.021,0.344,-447.998,-271.057,174.5,75.443,26.329,95.823
 14:42:17.106,eb:33:2e:f9:57:b5, 2085-97-220 15:04:02:1606,1.895,0.166,0.675,-476.868,-282.043,101.685,69.741,24.23,93.318
