Time,Device name,Chip Time(),Acceleration X(g),Acceleration Y(g),Acceleration Z(g),Angular velocity X(°/s),Angular velocity Y(°/s),Angular velocity Z(°/s),Angle X(°),Angle Y(°),Angle Z(°)
 14:36:56.238,eb:33:2e:f9:57:b5, 2085-97-18 00:11:00:2045,0.009,0.005,0.999,0,0.061,-0.122,-0.582,-0.5,-119.537
 14:36:56.238,eb:33:2e:f9:57:b5, 2085-97-19 00:10:00:2043,0.009,0.005,0.998,0,0.061,-0.122,-0.582,-0.5,-119.537
 14:36:56.238,eb:33:2e:f9:57:b5, 2085-97-20 00:10:00:2044,0.009,0.005,0.998,0,0,-0.244,-0.582,-0.5,-119.482
 14:36:56.238,eb:33:2e:f9:57:b5, 2085-97-19 00:13:00:2045,0.009,0.005,0.999,0,0,-0.183,-0.582,-0.5,-119.482
 14:36:56.268,eb:33:2e:f9:57:b5, 2085-97-18 00:11:00:2042,0.009,0.005,0.998,0,0,-0.183,-0.582,-0.5,-119.427
 14:36:56.268,eb:33:2e:f9:57:b5, 2085-97-18 00:10:00:2044,0.009,0.005,0.998,0,0,-0.244,-0.577,-0.5,-119.427
 14:36:56.268,eb:33:2e:f9:57:b5, 2085-97-20 00:09:00:2044,0.008,0.004,0.998,0,0,-0.244,-0.577,-0.5,-119.377
 14:36:56.268,eb:33:2e:f9:57:b5, 2085-97-16 00:10:00:2041,0.008,0.004,0.997,-0.061,-0.061,-0.244,-0.577,-0.494,-119.377
 14:36:56.299,eb:33:2e:f9:57:b5, 2085-97-15 00:11:00:2041,0.007,0.005,0.997,0,-0.244,-0.366,-0.577,-0.494,-119.323
 14:36:56.299,eb:33:2e:f9:57:b5, 2085-97-17 00:12:00:2044,0.009,0.005,0.997,-0.061,-0.366,-0.427,-0.577,-0.494,-119.323
 14:36:56.299,eb:33:2e:f9:57:b5, 2085-97-18 00:10:00:2043,0.009,0.004,0.997,-0.061,-0.488,-0.488,-0.577,-0.494,-119.268
 14:36:56.299,eb:33:2e:f9:57:b5, 2085-97-19 00:11:00:2043,0.01,0.005,0.998,-0.061,-0.671,-0.549,-0.571,-0.494,-119.268
 14:36:56.361,eb:33:2e:f9:57:b5, 2085-97-20 00:11:00:2044,0.011,0.004,0.998,-0.061,-0.732,-0.549,-0.571,-0.494,-119.213
 14:36:56.361,eb:33:2e:f9:57:b5, 2085-97-23 00:10:00:2044,0.01,0.005,0.998,-0.183,-0.793,-0.549,-0.571,-0.494,-119.213
 14:36:56.361,eb:33:2e:f9:57:b5, 2085-113-81 00:206:64:-145,0.01,0.004,0.998,-0.122,-0.732,-0.549,-0.571,-0.494,-119.163
 14:36:56.361,eb:33:2e:f9:57:b5, 2085-97-22 00:09:00:2046,0.009,0.005,0.998,-0.061,-0.732,-0.61,-0.571,-0.494,-119.163
 14:36:56.361,eb:33:2e:f9:57:b5, 2085-97-19 00:12:00:2045,0.01,0.005,0.999,0,-0.61,-0.488,-0.571,-0.494,-119.108
 14:36:56.388,eb:33:2e:f9:57:b5, 2085-97-19 00:11:00:2043,0.01,0.005,0.999,0,-0.732,-0.549,-0.566,-0.494,-119.108
 14:36:56.388,eb:33:2e:f9:57:b5, 2085-97-20 00:10:00:2041,0.01,0.005,0.998,-0.061,-0.732,-0.549,-0.566,-0.494,-119.053
 14:36:56.388,eb:33:2e:f9:57:b5, 2085-97-22 00:09:00:2045,0.012,0.004,0.998,-0.122,-0.916,-0.488,-0.566,-0.494,-119.053
 14:36:56.388,eb:33:2e:f9:57:b5, 2085-97-25 00:12:00:2047,0.011,0.004,0.999,-0.122,-0.854,-0.488,-0.566,-0.494,-119.004
 14:36:56.418,eb:33:2e:f9:57:b5, 2085-97-23 00:09:00:2045,0.012,0.004,0.999,-0.061,-0.732,-0.427,-0.566,-0.494,-119.004
 14:36:56.418,eb:33:2e:f9:57:b5, 2085-97-23 00:10:00:2043,0.01,0.005,0.999,-0.061,-0.732,-0.366,-0.566,-0.494,-118.949
 14:36:56.418,eb:33:2e:f9:57:b5, 2085-97-22 00:09:00:2042,0.01,0.005,0.997,0,-0.854,-0.366,-0.566,-0.494,-118.949
 14:36:56.418,eb:33:2e:f9:57:b5, 2085-97-22 00:09:00:2043,0.011,0.004,0.998,0,-0.916,-0.305,-0.56,-0.494,-118.9
 14:36:56.478,eb:33:2e:f9:57:b5, 2085-97-25 00:09:00:2045,0.012,0.004,0.998,0,-0.916,-0.305,-0.56,-0.494,-118.9
 14:36:56.478,eb:33:2e:f9:57:b5, 2085-97-27 00:10:00:2046,0.012,0.005,0.999,0,-0.793,-0.305,-0.56,-0.494,-118.85
 14:36:56.478,eb:33:2e:f9:57:b5, 2085-97-26 00:11:00:2045,0.013,0.005,0.999,-0.061,-0.732,-0.244,-0.56,-0.494,-118.85
 14:36:56.478,eb:33:2e:f9:57:b5, 2085-97-26 00:09:00:2045,0.013,0.006,0.999,-0.061,-0.671,-0.244,-0.56,-0.494,-118.795
 14:36:56.509,eb:33:2e:f9:57:b5, 2085-97-27 00:11:00:2044,0.013,0.005,0.999,-0.061,-0.61,-0.183,-0.56,-0.494,-118.795
 14:36:56.509,eb:33:2e:f9:57:b5, 2085-97-26 00:10:00:2044,0.012,0.005,0.998,-0.061,-0.549,-0.244,-0.56,-0.494,-118.746
 14:36:56.509,eb:33:2e:f9:57:b5, 2085-97-26 00:10:00:2046,0.013,0.005,0.999,0,-0.427,-0.244,-0.555,-0.494,-118.746
 14:36:56.509,eb:33:2e:f9:57:b5, 2085-97-26 00:10:00:2045,0.012,0.005,0.999,0,-0.366,-0.244,-0.555,-0.494,-118.696
 14:36:56.539,eb:33:2e:f9:57:b5, 2085-97-23 00:11:00:2043,0.012,0.005,0.999,-0.061,-0.305,-0.244,-0.555,-0.494,-118.696
 14:36:56.539,eb:33:2e:f9:57:b5, 2085-97-24 00:10:00:2041,0.011,0.005,0.997,-0.061,-0.427,-0.305,-0.555,-0.494,-118.641
 14:36:56.539,eb:33:2e:f9:57:b5, 2085-97-23 00:11:00:2041,0.011,0.005,0.997,-0.061,-0.61,-0.366,-0.555,-0.494,-118.641
 14:36:56.539,eb:33:2e:f9:57:b5, 2085-97-24 00:11:00:2042,0.013,0.005,0.997,0,-0.854,-0.305,-0.555,-0.494,-118.592
 14:36:56.599,eb:33:2e:f9:57:b5, 2085-97-26 00:09:00:2041,0.012,0.005,0.997,0,-0.916,-0.366,-0.555,-0.494,-118.592
 14:36:56.599,eb:33:2e:f9:57:b5, 2085-97-26 00:09:00:2044,0.013,0.004,0.998,0,-0.977,-0.366,-0.555,-0.494,-118.542
 14:36:56.599,eb:33:2e:f9:57:b5, 2085-97-28 00:10:00:2044,0.013,0.005,0.998,-0.061,-1.038,-0.305,-0.549,-0.494,-118.542
 14:36:56.599,eb:33:2e:f9:57:b5, 2085-97-28 00:09:00:2046,0.014,0.005,0.998,-0.061,-0.977,-0.366,-0.549,-0.494,-118.493
 14:36:56.629,eb:33:2e:f9:57:b5, 2085-97-29 00:10:00:2043,0.014,0.005,0.999,-0.061,-0.854,-0.366,-0.549,-0.494,-118.493
 14:36:56.629,eb:33:2e:f9:57:b5, 2085-97-28 00:09:00:2043,0.014,0.005,0.998,-0.061,-0.854,-0.244,-0.549,-0.494,-118.444
 14:36:56.629,eb:33:2e:f9:57:b5, 2085-97-28 00:10:00:2044,0.014,0.005,0.997,-0.061,-0.854,-0.427,-0.549,-0.494,-118.444
 14:36:56.629,eb:33:2e:f9:57:b5, 2085-97-30 00:10:00:2043,0.015,0.005,0.998,0,-0.854,-0.366,-0.549,-0.494,-118.394
 14:36:56.658,eb:33:2e:f9:57:b5, 2085-97-30 00:10:00:2044,0.014,0.004,0.999,0,-0.916,-0.305,-0.544,-0.494,-118.394
 14:36:56.658,eb:33:2e:f9:57:b5, 2085-97-28 00:09:00:2043,0.015,0.005,0.998,0,-0.793,-0.305,-0.544,-0.494,-118.345
 14:36:56.658,eb:33:2e:f9:57:b5, 2085-97-31 00:10:00:2044,0.014,0.004,0.999,0,-0.732,-0.305,-0.544,-0.494,-118.345
 14:36:56.658,eb:33:2e:f9:57:b5, 2085-97-28 00:11:00:2042,0.014,0.004,0.998,0,-0.671,-0.244,-0.544,-0.494,-118.295
 14:36:56.720,eb:33:2e:f9:57:b5, 2085-97-28 00:09:00:2043,0.015,0.005,0.997,-0.061,-0.854,-0.366,-0.544,-0.494,-118.295
 14:36:56.720,eb:33:2e:f9:57:b5, 2085-97-29 00:10:00:2044,0.015,0.005,0.999,-0.061,-0.916,-0.366,-0.544,-0.494,-118.246
 14:36:56.720,eb:33:2e:f9:57:b5, 2085-97-30 00:09:00:2043,0.016,0.004,0.999,-0.061,-0.916,-0.366,-0.544,-0.5,-118.246
 14:36:56.720,eb:33:2e:f9:57:b5, 2085-97-32 00:10:00:2044,0.015,0.005,0.998,0,-0.977,-0.366,-0.544,-0.5,-118.202
 14:36:56.748,eb:33:2e:f9:57:b5, 2085-97-33 00:08:00:2045,0.016,0.004,0.999,0,-0.916,-0.305,-0.538,-0.5,-118.202
 14:36:56.748,eb:33:2e:f9:57:b5, 2085-97-32 00:08:00:2044,0.015,0.005,0.999,-0.061,-0.732,-0.244,-0.538,-0.5,-118.152
 14:36:56.748,eb:33:2e:f9:57:b5, 2085-97-32 00:10:00:2044,0.016,0.004,0.998,-0.061,-0.671,-0.244,-0.538,-0.5,-118.152
 14:36:56.748,eb:33:2e:f9:57:b5, 2085-97-34 00:09:00:2044,0.016,0.005,0.998,-0.061,-0.732,-0.183,-0.538,-0.5,-118.103
 14:36:56.779,eb:33:2e:f9:57:b5, 2085-97-31 00:10:00:2045,0.017,0.005,0.999,-0.122,-0.61,-0.183,-0.538,-0.5,-118.103
 14:36:56.779,eb:33:2e:f9:57:b5, 2085-97-34 00:09:00:2045,0.017,0.005,0.998,-0.061,-0.61,-0.244,-0.538,-0.5,-118.059
 14:36:56.781,eb:33:2e:f9:57:b5, 2085-97-35 00:09:00:2044,0.017,0.004,0.998,-0.061,-0.488,-0.183,-0.538,-0.505,-118.059
 14:36:56.781,eb:33:2e:f9:57:b5, 2085-97-35 00:09:00:2047,0.017,0.005,0.999,-0.122,-0.488,-0.244,-0.538,-0.5,-118.01
 14:36:56.838,eb:33:2e:f9:57:b5, 2085-97-35 00:11:00:2046,0.017,0.004,1,-0.122,-0.183,-0.122,-0.538,-0.505,-118.01
 14:36:56.838,eb:33:2e:f9:57:b5, 2085-97-34 00:09:00:2047,0.016,0.004,0.999,-0.061,-0.122,-0.061,-0.533,-0.505,-117.96
 14:36:56.838,eb:33:2e:f9:57:b5, 2085-97-34 00:10:00:2043,0.017,0.004,0.998,-0.122,-0.061,-0.061,-0.533,-0.505,-117.96
 14:36:56.838,eb:33:2e:f9:57:b5, 2085-97-34 00:09:00:2044,0.017,0.004,0.998,-0.122,-0.061,-0.061,-0.533,-0.505,-117.916
 14:36:56.869,eb:33:2e:f9:57:b5, 2085-97-34 00:09:00:2044,0.016,0.004,0.998,-0.122,0,-0.061,-0.533,-0.505,-117.916
 14:36:56.869,eb:33:2e:f9:57:b5, 2085-97-34 00:09:00:2043,0.016,0.005,0.998,-0.061,0,0,-0.533,-0.505,-117.867
 14:36:56.869,eb:33:2e:f9:57:b5, 2085-97-33 00:10:00:2042,0.017,0.005,0.998,-0.122,0,0,-0.533,-0.511,-117.867
 14:36:56.869,eb:33:2e:f9:57:b5, 2085-97-33 00:10:00:2046,0.016,0.004,0.997,-0.122,0,-0.061,-0.533,-0.511,-117.823
 14:36:56.899,eb:33:2e:f9:57:b5, 2085-97-34 00:09:00:2044,0.016,0.004,0.998,-0.061,0,-0.061,-0.533,-0.511,-117.823
 14:36:56.899,eb:33:2e:f9:57:b5, 2085-97-32 00:11:00:2044,0.016,0.005,0.998,-0.061,0.061,0,-0.527,-0.511,-117.773
 14:36:56.899,eb:33:2e:f9:57:b5, 2085-97-33 00:08:00:2045,0.017,0.004,0.998,-0.122,0,0,-0.527,-0.511,-117.773
 14:36:56.899,eb:33:2e:f9:57:b5, 2085-97-34 00:08:00:2045,0.016,0.004,0.999,-0.061,0.061,0,-0.527,-0.511,-117.729
 14:36:56.959,eb:33:2e:f9:57:b5, 2085-97-33 00:09:00:2044,0.016,0.005,0.998,-0.061,0.122,0,-0.527,-0.511,-117.729
 14:36:56.959,eb:33:2e:f9:57:b5, 2085-97-31 00:10:00:2042,0.015,0.004,0.998,-0.061,0.122,0,-0.527,-0.511,-117.686
 14:36:56.959,eb:33:2e:f9:57:b5, 2085-97-32 00:11:00:2044,0.015,0.006,0.998,0,0.061,0,-0.527,-0.516,-117.686
 14:36:56.959,eb:33:2e:f9:57:b5, 2085-97-31 00:10:00:2042,0.016,0.005,0.998,-0.061,0,0,-0.527,-0.516,-117.636
 14:36:56.988,eb:33:2e:f9:57:b5, 2085-97-32 00:09:00:2043,0.016,0.004,0.998,-0.061,0,0,-0.527,-0.516,-117.636
 14:36:56.988,eb:33:2e:f9:57:b5, 2085-97-33 00:10:00:2043,0.016,0.005,0.998,-0.061,0,0,-0.527,-0.516,-117.592
 14:36:56.988,eb:33:2e:f9:57:b5, 2085-97-32 00:08:00:2043,0.016,0.004,0.997,0,-0.061,-0.183,-0.522,-0.516,-117.592
 14:36:56.988,eb:33:2e:f9:57:b5, 2085-97-32 00:09:00:2044,0.016,0.004,0.997,0,-0.183,-0.122,-0.522,-0.516,-117.548
 14:36:57.019,eb:33:2e:f9:57:b5, 2085-97-34 00:08:00:2045,0.017,0.004,0.998,0,-0.183,-0.061,-0.522,-0.516,-117.548
 14:36:57.019,eb:33:2e:f9:57:b5, 2085-97-34 00:08:00:2044,0.016,0.003,0.999,0,-0.183,-0.061,-0.522,-0.516,-117.504
 14:36:57.019,eb:33:2e:f9:57:b5, 2085-97-32 00:10:00:2043,0.016,0.004,0.997,0,-0.122,-0.061,-0.522,-0.522,-117.504
 14:36:57.019,eb:33:2e:f9:57:b5, 2085-97-33 00:09:00:2044,0.016,0.004,0.998,0,-0.122,-0.122,-0.522,-0.522,-117.455
 14:36:57.079,eb:33:2e:f9:57:b5, 2085-97-33 00:10:00:2043,0.017,0.005,0.998,0,-0.061,-0.122,-0.522,-0.522,-117.455
 14:36:57.079,eb:33:2e:f9:57:b5, 2085-97-34 00:09:00:2043,0.016,0.004,0.998,0,-0.061,-0.122,-0.522,-0.522,-117.411
 14:36:57.079,eb:33:2e:f9:57:b5, 2085-97-33 00:09:00:2044,0.016,0.005,0.998,0,-0.061,-0.122,-0.522,-0.522,-117.411
 14:36:57.079,eb:33:2e:f9:57:b5, 2085-97-33 00:09:00:2043,0.016,0.005,0.998,0,-0.122,-0.122,-0.516,-0.522,-117.367
 14:36:57.109,eb:33:2e:f9:57:b5, 2085-97-32 00:10:00:2042,0.016,0.004,0.998,0,-0.122,-0.183,-0.516,-0.522,-117.367
 14:36:57.109,eb:33:2e:f9:57:b5, 2085-97-33 00:09:00:2043,0.017,0.004,0.998,0,-0.183,-0.061,-0.516,-0.522,-117.323
 14:36:57.109,eb:33:2e:f9:57:b5, 2085-97-35 00:11:00:2042,0.016,0.005,0.998,0,-0.244,-0.122,-0.516,-0.527,-117.323
 14:36:57.109,eb:33:2e:f9:57:b5, 2085-97-34 00:08:00:2046,0.016,0.005,0.998,0,-0.183,-0.061,-0.516,-0.527,-117.279
 14:36:57.139,eb:33:2e:f9:57:b5, 2085-97-33 00:08:00:2045,0.016,0.004,0.998,0,-0.244,-0.122,-0.516,-0.527,-117.279
 14:36:57.139,eb:33:2e:f9:57:b5, 2085-97-32 00:09:00:2042,0.017,0.005,0.998,0,-0.122,-0.061,-0.516,-0.527,-117.235
 14:36:57.139,eb:33:2e:f9:57:b5, 2085-97-36 00:08:00:2044,0.017,0.004,0.998,0,-0.122,-0.061,-0.516,-0.527,-117.235
 14:36:57.140,eb:33:2e:f9:57:b5, 2085-97-31 00:10:00:2044,0.016,0.005,0.998,0,-0.122,-0.122,-0.516,-0.527,-117.191
 14:36:57.199,eb:33:2e:f9:57:b5, 2085-97-35 00:09:00:2043,0.018,0.004,0.998,0,-0.122,-0.061,-0.516,-0.527,-117.191
 14:36:57.199,eb:33:2e:f9:57:b5, 2085-113-58 00:247:219:-1230,0.017,0.004,0.999,0,-0.122,0,-0.511,-0.527,-117.147
 14:36:57.199,eb:33:2e:f9:57:b5, 2085-97-33 00:10:00:2042,0.017,0.004,0.999,0,-0.061,-0.061,-0.511,-0.527,-117.147
 14:36:57.199,eb:33:2e:f9:57:b5, 2085-97-33 00:08:00:2045,0.016,0.004,0.998,0,-0.061,-0.061,-0.511,-0.533,-117.147
 14:36:57.229,eb:33:2e:f9:57:b5, 2085-97-34 00:10:00:2045,0.017,0.004,0.999,0,-0.061,0,-0.511,-0.533,-117.109
 14:36:57.229,eb:33:2e:f9:57:b5, 2085-97-35 00:10:00:2043,0.016,0.005,0.999,0,-0.061,0,-0.511,-0.533,-117.109
 14:36:57.229,eb:33:2e:f9:57:b5, 2085-97-35 00:08:00:2045,0.018,0.005,0.998,0,-0.122,-0.061,-0.511,-0.533,-117.065
 14:36:57.229,eb:33:2e:f9:57:b5, 2085-97-35 00:08:00:2044,0.016,0.004,0.999,0,0,0,-0.511,-0.533,-117.065
 14:36:57.258,eb:33:2e:f9:57:b5, 2085-97-34 00:10:00:2044,0.017,0.005,0.998,0,0,0,-0.511,-0.533,-117.021
 14:36:57.258,eb:33:2e:f9:57:b5, 2085-97-35 00:07:00:2044,0.017,0.004,0.998,0,0,0,-0.511,-0.538,-117.021
 14:36:57.258,eb:33:2e:f9:57:b5, 2085-97-33 00:09:00:2043,0.017,0.003,0.999,0,0.061,0,-0.511,-0.538,-116.977
 14:36:57.258,eb:33:2e:f9:57:b5, 2085-97-33 00:10:00:2044,0.017,0.006,0.999,0,0.122,0,-0.511,-0.538,-116.977
 14:36:57.348,eb:33:2e:f9:57:b5, 2085-97-35 00:10:00:2045,0.016,0.005,0.999,0,0.183,0.061,-0.505,-0.538,-116.933
 14:36:57.348,eb:33:2e:f9:57:b5, 2085-97-33 00:08:00:2044,0.015,0.004,0.998,0.061,0.183,0.061,-0.505,-0.538,-116.933
 14:36:57.348,eb:33:2e:f9:57:b5, 2085-97-32 00:08:00:2044,0.016,0.004,0.999,0.061,0.183,0,-0.505,-0.538,-116.895
 14:36:57.348,eb:33:2e:f9:57:b5, 2085-97-33 00:08:00:2043,0.016,0.004,0.998,0,0.122,0.061,-0.505,-0.538,-116.895
 14:36:57.350,eb:33:2e:f9:57:b5, 2085-97-33 00:09:00:2044,0.016,0.004,0.998,0,0,0.122,-0.505,-0.538,-116.851
 14:36:57.350,eb:33:2e:f9:57:b5, 2085-97-33 00:10:00:2043,0.016,0.005,0.997,0,0,0.061,-0.505,-0.544,-116.851
 14:36:57.350,eb:33:2e:f9:57:b5, 2085-97-33 00:10:00:2043,0.017,0.004,0.997,0,0,0,-0.505,-0.544,-116.812
 14:36:57.350,eb:33:2e:f9:57:b5, 2085-97-32 00:09:00:2043,0.016,0.005,0.998,0,0,0.061,-0.505,-0.544,-116.812
 14:36:57.378,eb:33:2e:f9:57:b5, 2085-97-32 00:09:00:2041,0.015,0.004,0.998,0.061,0.061,0,-0.505,-0.544,-116.768
 14:36:57.378,eb:33:2e:f9:57:b5, 2085-97-30 00:10:00:2042,0.015,0.005,0.997,0,0,0,-0.505,-0.544,-116.768
 14:36:57.378,eb:33:2e:f9:57:b5, 2085-97-32 00:11:00:2042,0.015,0.004,0.997,0,-0.061,0,-0.5,-0.544,-116.724
 14:36:57.378,eb:33:2e:f9:57:b5, 2085-97-31 00:09:00:2042,0.016,0.005,0.997,-0.061,-0.122,0,-0.5,-0.544,-116.724
 14:36:57.438,eb:33:2e:f9:57:b5, 2085-97-32 00:10:00:2043,0.014,0.005,0.998,0,-0.183,-0.061,-0.5,-0.544,-116.686
 14:36:57.438,eb:33:2e:f9:57:b5, 2085-97-28 00:10:00:2042,0.016,0.004,0.997,-0.122,-0.183,-0.122,-0.5,-0.544,-116.686
 14:36:57.438,eb:33:2e:f9:57:b5, 2085-97-32 00:10:00:2045,0.015,0.005,0.997,-0.183,-0.305,-0.122,-0.5,-0.544,-116.642
 14:36:57.438,eb:33:2e:f9:57:b5, 2085-97-29 00:11:00:2040,0.015,0.005,0.998,-0.061,-0.427,-0.183,-0.5,-0.549,-116.642
 14:36:57.469,eb:33:2e:f9:57:b5, 2085-97-33 00:09:00:2041,0.017,0.005,0.997,-0.122,-0.732,-0.305,-0.5,-0.549,-116.603
 14:36:57.469,eb:33:2e:f9:57:b5, 2085-97-34 00:08:00:2042,0.016,0.004,0.998,-0.122,-0.793,-0.305,-0.5,-0.549,-116.603
 14:36:57.469,eb:33:2e:f9:57:b5, 2085-97-34 00:10:00:2042,0.017,0.004,0.997,-0.061,-0.854,-0.305,-0.5,-0.549,-116.565
 14:36:57.469,eb:33:2e:f9:57:b5, 2085-97-36 00:09:00:2044,0.017,0.004,0.998,-0.061,-0.916,-0.305,-0.5,-0.549,-116.565
 14:36:57.498,eb:33:2e:f9:57:b5, 2085-97-33 00:10:00:2042,0.016,0.005,0.997,-0.122,-0.916,-0.305,-0.494,-0.549,-116.521
 14:36:57.498,eb:33:2e:f9:57:b5, 2085-97-37 00:10:00:2044,0.016,0.005,0.997,-0.122,-1.038,-0.366,-0.494,-0.549,-116.521
 14:36:57.498,eb:33:2e:f9:57:b5, 2085-97-36 00:14:00:2044,0.017,0.004,0.997,-0.122,-1.099,-0.427,-0.494,-0.549,-116.483
 14:36:57.498,eb:33:2e:f9:57:b5, 2085-97-36 00:08:00:2042,0.019,0.001,0.999,-0.122,-1.343,-0.427,-0.494,-0.555,-116.483
 14:36:57.558,eb:33:2e:f9:57:b5, 2085-97-39 00:08:00:2045,0.019,0.004,0.999,-0.061,-0.977,-0.427,-0.494,-0.549,-116.444
 14:36:57.558,eb:33:2e:f9:57:b5, 2085-97-39 00:07:00:2046,0.019,0.003,0.999,-0.061,-0.916,-0.366,-0.494,-0.555,-116.444
 14:36:57.558,eb:33:2e:f9:57:b5, 2085-97-37 00:09:00:2045,0.018,0.004,0.999,-0.061,-0.916,-0.305,-0.494,-0.555,-116.4
 14:36:57.558,eb:33:2e:f9:57:b5, 2085-97-36 00:09:00:2045,0.018,0.005,0.998,-0.061,-0.793,-0.305,-0.494,-0.555,-116.4
 14:36:57.589,eb:33:2e:f9:57:b5, 2085-97-37 00:09:00:2043,0.019,0.004,0.998,-0.061,-0.854,-0.305,-0.494,-0.555,-116.362
 14:36:57.589,eb:33:2e:f9:57:b5, 2085-97-39 00:08:00:2044,0.02,0.004,0.998,0,-0.732,-0.305,-0.494,-0.555,-116.362
 14:36:57.589,eb:33:2e:f9:57:b5, 2085-97-38 00:10:00:2044,0.019,0.004,0.999,-0.061,-0.732,-0.305,-0.494,-0.555,-116.323
 14:36:57.589,eb:33:2e:f9:57:b5, 2085-97-39 00:08:00:2046,0.02,0.004,0.998,0,-0.671,-0.305,-0.489,-0.56,-116.323
 14:36:57.648,eb:33:2e:f9:57:b5, 2085-97-40 00:11:00:2045,0.021,0.005,0.999,0,-0.549,-0.244,-0.489,-0.56,-116.285
 14:36:57.648,eb:33:2e:f9:57:b5, 2085-97-42 00:08:00:2046,0.02,0.004,0.999,-0.061,-0.427,-0.244,-0.489,-0.56,-116.285
 14:36:57.648,eb:33:2e:f9:57:b5, 2085-97-39 00:10:00:2045,0.02,0.004,0.999,-0.061,-0.244,-0.122,-0.489,-0.56,-116.241
 14:36:57.648,eb:33:2e:f9:57:b5, 2085-97-40 00:08:00:2044,0.02,0.004,0.998,-0.061,-0.122,-0.122,-0.489,-0.566,-116.241
 14:36:57.681,eb:33:2e:f9:57:b5, 2085-97-39 00:06:00:2044,0.019,0.003,0.997,-0.061,0,-0.061,-0.489,-0.566,-116.202
 14:36:57.681,eb:33:2e:f9:57:b5, 2085-97-38 00:09:00:2044,0.019,0.004,0.998,-0.061,-0.122,0,-0.489,-0.566,-116.202
 14:36:57.681,eb:33:2e:f9:57:b5, 2085-97-38 00:09:00:2044,0.019,0.004,0.997,0,-0.122,-0.061,-0.489,-0.566,-116.164
 14:36:57.681,eb:33:2e:f9:57:b5, 2085-97-41 00:07:00:2045,0.02,0.004,0.998,0,-0.061,-0.061,-0.489,-0.566,-116.164
 14:36:57.709,eb:33:2e:f9:57:b5, 2085-97-41 00:08:00:2044,0.021,0.003,1,0,0,0,-0.489,-0.566,-116.125
 14:36:57.709,eb:33:2e:f9:57:b5, 2085-97-42 00:08:00:2045,0.02,0.004,0.999,0,0.183,0.061,-0.489,-0.571,-116.125
 14:36:57.709,eb:33:2e:f9:57:b5, 2085-97-40 00:09:00:2045,0.02,0.003,0.999,0,0.366,0.122,-0.489,-0.571,-116.087
 14:36:57.709,eb:33:2e:f9:57:b5, 2085-97-40 00:08:00:2045,0.019,0.003,0.998,0,0.549,0.244,-0.489,-0.571,-116.087
 14:36:57.770,eb:33:2e:f9:57:b5, 2085-97-40 00:07:00:2044,0.021,0.004,0.999,0,0.732,0.244,-0.483,-0.571,-116.049
 14:36:57.770,eb:33:2e:f9:57:b5, 2085-97-40 00:08:00:2046,0.02,0.004,1,0.061,0.793,0.366,-0.483,-0.577,-116.049
 14:36:57.770,eb:33:2e:f9:57:b5, 2085-97-40 00:09:00:2045,0.018,0.004,1,0.061,1.038,0.427,-0.483,-0.577,-116.01
 14:36:57.770,eb:33:2e:f9:57:b5, 2085-97-37 00:09:00:2043,0.017,0.004,0.998,0,1.038,0.427,-0.483,-0.577,-116.01
 14:36:57.770,eb:33:2e:f9:57:b5, 2085-97-34 00:09:00:2040,0.016,0.005,0.998,0.061,0.916,0.488,-0.483,-0.577,-115.972
 14:36:57.798,eb:33:2e:f9:57:b5, 2085-113-58 00:171:220:-1410,0.017,0.003,0.997,0,0.671,0.366,-0.483,-0.577,-115.972
 14:36:57.798,eb:33:2e:f9:57:b5, 2085-97-35 00:09:00:2042,0.017,0.004,0.997,0.061,0.61,0.305,-0.483,-0.577,-115.933
 14:36:57.798,eb:33:2e:f9:57:b5, 2085-97-35 00:10:00:2044,0.018,0.004,0.997,0.122,0.427,0.244,-0.483,-0.582,-115.933
 14:36:57.798,eb:33:2e:f9:57:b5, 2085-97-35 00:09:00:2041,0.017,0.004,0.998,0.061,0.488,0.244,-0.483,-0.582,-115.895
 14:36:57.829,eb:33:2e:f9:57:b5, 2085-97-36 00:09:00:2043,0.018,0.004,0.998,0,0.427,0.244,-0.483,-0.582,-115.895
 14:36:57.829,eb:33:2e:f9:57:b5, 2085-97-36 00:10:00:2043,0.018,0.004,0.998,0.061,0.488,0.183,-0.483,-0.582,-115.862
 14:36:57.829,eb:33:2e:f9:57:b5, 2085-97-34 00:10:00:2042,0.017,0.005,0.997,0.061,0.366,0.183,-0.483,-0.582,-115.862
 14:36:57.829,eb:33:2e:f9:57:b5, 2085-97-34 00:11:00:2043,0.016,0.005,0.998,0.061,0.305,0.122,-0.483,-0.582,-115.823
 14:36:57.888,eb:33:2e:f9:57:b5, 2085-97-35 00:09:00:2043,0.017,0.004,0.998,0.061,0.183,0.061,-0.478,-0.588,-115.823
 14:36:57.888,eb:33:2e:f9:57:b5, 2085-97-35 00:09:00:2044,0.017,0.004,0.998,0.061,0.244,0.061,-0.478,-0.588,-115.785
 14:36:57.888,eb:33:2e:f9:57:b5, 2085-97-36 00:10:00:2045,0.017,0.004,0.998,0.061,0.244,0.061,-0.478,-0.588,-115.785
 14:36:57.888,eb:33:2e:f9:57:b5, 2085-97-33 00:10:00:2041,0.017,0.005,0.998,0,0.244,0.061,-0.478,-0.588,-115.746
 14:36:57.918,eb:33:2e:f9:57:b5, 2085-97-34 00:09:00:2044,0.017,0.005,0.998,0.061,0.244,0,-0.478,-0.588,-115.746
 14:36:57.918,eb:33:2e:f9:57:b5, 2085-97-33 00:10:00:2042,0.017,0.004,0.998,0.061,0.183,0,-0.478,-0.588,-115.708
 14:36:57.918,eb:33:2e:f9:57:b5, 2085-97-35 00:08:00:2044,0.017,0.004,0.998,0.061,0.122,0,-0.478,-0.588,-115.708
 14:36:57.918,eb:33:2e:f9:57:b5, 2085-97-34 00:10:00:2044,0.017,0.005,0.997,0.061,0.183,-0.061,-0.478,-0.588,-115.675
 14:36:57.950,eb:33:2e:f9:57:b5, 2085-97-35 00:10:00:2043,0.017,0.005,0.998,0.061,0.122,0,-0.478,-0.593,-115.675
 14:36:57.950,eb:33:2e:f9:57:b5, 2085-97-35 00:10:00:2043,0.017,0.004,0.998,0.061,0.122,-0.061,-0.478,-0.588,-115.637
 14:36:57.950,eb:33:2e:f9:57:b5, 2085-97-34 00:09:00:2042,0.017,0.004,0.997,0.061,0.122,-0.061,-0.478,-0.593,-115.637
 14:36:57.950,eb:33:2e:f9:57:b5, 2085-97-36 00:10:00:2042,0.016,0.004,0.998,0.061,0.061,-0.061,-0.478,-0.593,-115.598
 14:36:58.008,eb:33:2e:f9:57:b5, 2085-97-35 00:11:00:2044,0.017,0.005,0.998,0.061,0.061,-0.122,-0.472,-0.593,-115.598
 14:36:58.008,eb:33:2e:f9:57:b5, 2085-97-35 00:09:00:2044,0.017,0.005,0.999,0,0.122,-0.122,-0.472,-0.593,-115.565
 14:36:58.008,eb:33:2e:f9:57:b5, 2085-97-32 00:10:00:2043,0.017,0.004,0.997,0,0.122,-0.122,-0.472,-0.593,-115.565
 14:36:58.008,eb:33:2e:f9:57:b5, 2085-97-32 00:11:00:2042,0.015,0.006,0.998,0.061,0.061,-0.061,-0.472,-0.593,-115.527
 14:36:58.039,eb:33:2e:f9:57:b5, 2085-97-33 00:12:00:2043,0.015,0.005,0.997,0,0.061,-0.183,-0.472,-0.593,-115.527
 14:36:58.039,eb:33:2e:f9:57:b5, 2085-97-29 00:10:00:2039,0.016,0.006,0.996,0,-0.122,-0.244,-0.472,-0.593,-115.494
 14:36:58.039,eb:33:2e:f9:57:b5, 2085-97-32 00:10:00:2041,0.017,0.005,0.997,0,-0.366,-0.366,-0.472,-0.599,-115.494
 14:36:58.039,eb:33:2e:f9:57:b5, 2085-97-35 00:10:00:2043,0.017,0.004,0.998,0,-0.427,-0.366,-0.472,-0.599,-115.455
 14:36:58.070,eb:33:2e:f9:57:b5, 2085-97-34 00:10:00:2043,0.018,0.005,0.997,0,-0.488,-0.427,-0.472,-0.599,-115.455
 14:36:58.070,eb:33:2e:f9:57:b5, 2085-97-38 00:10:00:2045,0.017,0.005,0.998,0.061,-0.488,-0.427,-0.472,-0.599,-115.422
 14:36:58.070,eb:33:2e:f9:57:b5, 2085-97-35 00:11:00:2043,0.017,0.005,0.998,0.061,-0.427,-0.488,-0.472,-0.599,-115.422
 14:36:58.070,eb:33:2e:f9:57:b5, 2085-97-33 00:11:00:2040,0.016,0.005,0.997,0.061,-0.549,-0.488,-0.467,-0.599,-115.384
 14:36:58.128,eb:33:2e:f9:57:b5, 2085-97-33 00:12:00:2042,0.018,0.005,0.997,0,-0.671,-0.549,-0.467,-0.599,-115.384
 14:36:58.128,eb:33:2e:f9:57:b5, 2085-97-37 00:09:00:2042,0.017,0.004,0.997,0,-0.916,-0.61,-0.467,-0.599,-115.351
 14:36:58.128,eb:33:2e:f9:57:b5, 2085-97-36 00:10:00:2043,0.018,0.005,0.998,0,-1.038,-0.61,-0.467,-0.599,-115.351
 14:36:58.128,eb:33:2e:f9:57:b5, 2085-97-37 00:08:00:2043,0.018,0.004,0.998,0.061,-0.977,-0.549,-0.467,-0.599,-115.312
 14:36:58.188,eb:33:2e:f9:57:b5, 2085-97-39 00:10:00:2045,0.018,0.004,0.998,0.061,-0.977,-0.488,-0.467,-0.604,-115.312
 14:36:58.188,eb:33:2e:f9:57:b5, 2085-97-36 00:13:00:2040,0.018,0.005,0.997,0,-1.038,-0.61,-0.467,-0.604,-115.28
 14:36:58.188,eb:33:2e:f9:57:b5, 2085-97-36 00:09:00:2042,0.019,0.005,0.997,0,-1.404,-0.671,-0.467,-0.604,-115.28
 14:36:58.188,eb:33:2e:f9:57:b5, 2085-97-37 00:11:00:2043,0.02,0.004,0.999,0,-1.404,-0.671,-0.467,-0.604,-115.241
 14:36:58.219,eb:33:2e:f9:57:b5, 2085-97-39 00:11:00:2043,0.02,0.005,0.999,0,-1.526,-0.61,-0.467,-0.604,-115.241
 14:36:58.219,eb:33:2e:f9:57:b5, 2085-97-42 00:10:00:2048,0.02,0.005,1,-0.061,-1.465,-0.549,-0.467,-0.604,-115.241
 14:36:58.219,eb:33:2e:f9:57:b5, 2085-97-40 00:10:00:2043,0.02,0.005,0.999,-0.061,-1.16,-0.488,-0.467,-0.604,-115.241
 14:36:58.219,eb:33:2e:f9:57:b5, 2085-97-38 00:12:00:2039,0.021,0.005,0.997,0,-1.221,-0.549,-0.467,-0.604,-115.241
 14:36:58.278,eb:33:2e:f9:57:b5, 2085-97-41 00:09:00:2043,0.02,0.004,0.998,0,-1.343,-0.488,-0.467,-0.604,-115.241
 14:36:58.278,eb:33:2e:f9:57:b5, 2085-97-40 00:11:00:2043,0.021,0.004,0.998,0,-1.282,-0.549,-0.467,-0.604,-115.241
 14:36:58.278,eb:33:2e:f9:57:b5, 2085-97-44 00:07:00:2044,0.021,0.005,0.997,0,-1.404,-0.549,-0.467,-0.604,-115.241
 14:36:58.278,eb:33:2e:f9:57:b5, 2085-97-42 00:09:00:2043,0.021,0.004,0.998,0.061,-1.282,-0.549,-0.467,-0.604,-115.241
 14:36:58.280,eb:33:2e:f9:57:b5, 2085-97-43 00:13:00:2043,0.021,0.005,0.998,0,-1.221,-0.488,-0.467,-0.604,-115.241
 14:36:58.280,eb:33:2e:f9:57:b5, 2085-97-44 00:11:00:2043,0.023,0.005,0.998,0,-1.465,-0.549,-0.467,-0.604,-115.241
 14:36:58.280,eb:33:2e:f9:57:b5, 2085-97-46 00:10:00:2044,0.022,0.004,0.998,0,-1.221,-0.488,-0.467,-0.604,-115.241
 14:36:58.280,eb:33:2e:f9:57:b5, 2085-97-45 00:12:00:2044,0.022,0.005,0.998,0.061,-1.038,-0.366,-0.467,-0.604,-115.241
 14:36:58.309,eb:33:2e:f9:57:b5, 2085-97-47 00:11:00:2045,0.023,0.005,0.999,0,-0.916,-0.366,-0.467,-0.604,-115.241
 14:36:58.309,eb:33:2e:f9:57:b5, 2085-97-47 00:12:00:2044,0.021,0.006,0.999,0,-0.732,-0.305,-0.467,-0.604,-115.241
 14:36:58.309,eb:33:2e:f9:57:b5, 2085-97-45 00:11:00:2044,0.022,0.005,0.998,0,-0.488,-0.305,-0.467,-0.604,-115.241
 14:36:58.309,eb:33:2e:f9:57:b5, 2085-97-44 00:12:00:2041,0.021,0.006,0.998,0,-0.488,-0.244,-0.467,-0.604,-115.241
 14:36:58.369,eb:33:2e:f9:57:b5, 2085-97-45 00:11:00:2043,0.021,0.006,0.997,0,-0.732,-0.366,-0.467,-0.61,-115.241
 14:36:58.369,eb:33:2e:f9:57:b5, 2085-97-43 00:09:00:2042,0.022,0.003,0.998,0,-0.793,-0.366,-0.467,-0.61,-115.241
 14:36:58.369,eb:33:2e:f9:57:b5, 2085-97-46 00:10:00:2044,0.021,0.004,0.998,0,-0.854,-0.366,-0.467,-0.61,-115.241
 14:36:58.369,eb:33:2e:f9:57:b5, 2085-97-45 00:10:00:2041,0.023,0.005,0.997,0,-0.916,-0.366,-0.467,-0.61,-115.241
 14:36:58.398,eb:33:2e:f9:57:b5, 2085-97-46 00:11:00:2044,0.023,0.005,0.998,0,-0.916,-0.427,-0.461,-0.61,-115.241
 14:36:58.398,eb:33:2e:f9:57:b5, 2085-97-48 00:10:00:2042,0.023,0.005,0.998,0,-0.916,-0.488,-0.461,-0.61,-115.241
 14:36:58.398,eb:33:2e:f9:57:b5, 2085-97-47 00:11:00:2044,0.023,0.005,0.998,0,-0.854,-0.366,-0.461,-0.61,-115.241
 14:36:58.398,eb:33:2e:f9:57:b5, 2085-97-50 00:10:00:2046,0.024,0.006,0.998,0.061,-0.977,-0.427,-0.461,-0.61,-115.241
 14:36:58.429,eb:33:2e:f9:57:b5, 2085-97-50 00:10:00:2046,0.024,0.004,0.999,0,-0.61,-0.244,-0.461,-0.61,-115.241
 14:36:58.429,eb:33:2e:f9:57:b5, 2085-97-49 00:10:00:2045,0.024,0.004,0.998,0,-0.183,-0.183,-0.461,-0.61,-115.241
 14:36:58.429,eb:33:2e:f9:57:b5, 2085-113-81 00:138:68:-153,0.024,0.005,0.998,0,-0.061,-0.061,-0.461,-0.61,-115.241
 14:36:58.429,eb:33:2e:f9:57:b5, 2085-97-49 00:09:00:2043,0.024,0.005,0.997,0,0,-0.122,-0.461,-0.61,-115.241
 14:36:58.488,eb:33:2e:f9:57:b5, 2085-97-49 00:09:00:2044,0.025,0.004,0.998,0,0.122,-0.061,-0.461,-0.61,-115.241
 14:36:58.488,eb:33:2e:f9:57:b5, 2085-97-51 00:09:00:2045,0.024,0.004,0.999,0,0.244,0,-0.461,-0.61,-115.241
 14:36:58.488,eb:33:2e:f9:57:b5, 2085-97-51 00:11:00:2045,0.025,0.004,0.999,-0.061,0.732,0.122,-0.461,-0.61,-115.241
 14:36:58.488,eb:33:2e:f9:57:b5, 2085-97-51 00:10:00:2047,0.024,0.005,1,0,1.038,0.244,-0.461,-0.615,-115.241
 14:36:58.519,eb:33:2e:f9:57:b5, 2085-97-47 00:10:00:2043,0.022,0.004,0.999,0,1.343,0.366,-0.461,-0.615,-115.241
 14:36:58.519,eb:33:2e:f9:57:b5, 2085-97-46 00:09:00:2043,0.022,0.005,0.998,0,1.282,0.305,-0.461,-0.615,-115.241
 14:36:58.519,eb:33:2e:f9:57:b5, 2085-97-45 00:11:00:2041,0.022,0.005,0.998,0,1.099,0.305,-0.461,-0.615,-115.241
 14:36:58.519,eb:33:2e:f9:57:b5, 2085-97-44 00:11:00:2043,0.022,0.006,0.997,0,0.977,0.305,-0.461,-0.615,-115.241
 14:36:58.549,eb:33:2e:f9:57:b5, 2085-97-47 00:11:00:2045,0.023,0.005,0.998,0,0.977,0.366,-0.461,-0.615,-115.241
 14:36:58.549,eb:33:2e:f9:57:b5, 2085-97-45 00:10:00:2043,0.021,0.004,0.999,0,1.099,0.427,-0.461,-0.621,-115.241
 14:36:58.549,eb:33:2e:f9:57:b5, 2085-97-45 00:11:00:2043,0.021,0.006,0.998,0,1.282,0.427,-0.461,-0.621,-115.241
 14:36:58.550,eb:33:2e:f9:57:b5, 2085-97-44 00:13:00:2044,0.021,0.005,0.998,0,1.282,0.427,-0.461,-0.621,-115.241
 14:36:58.608,eb:33:2e:f9:57:b5, 2085-97-44 00:10:00:2043,0.021,0.006,0.998,0,1.282,0.366,-0.461,-0.621,-115.241
 14:36:58.608,eb:33:2e:f9:57:b5, 2085-97-43 00:11:00:2041,0.021,0.006,0.997,0,1.282,0.366,-0.461,-0.621,-115.241
 14:36:58.608,eb:33:2e:f9:57:b5, 2085-97-43 00:11:00:2044,0.021,0.005,0.997,0,1.282,0.427,-0.461,-0.621,-115.241
 14:36:58.608,eb:33:2e:f9:57:b5, 2085-97-42 00:10:00:2042,0.021,0.005,0.998,0,1.282,0.427,-0.461,-0.626,-115.241
 14:36:58.640,eb:33:2e:f9:57:b5, 2085-97-44 00:11:00:2044,0.021,0.005,0.999,-0.061,1.282,0.427,-0.461,-0.626,-115.241
 14:36:58.640,eb:33:2e:f9:57:b5, 2085-97-43 00:11:00:2047,0.021,0.005,0.999,-0.061,1.465,0.488,-0.461,-0.626,-115.241
 14:36:58.640,eb:33:2e:f9:57:b5, 2085-97-45 00:11:00:2046,0.021,0.005,0.999,0,1.648,0.61,-0.461,-0.626,-115.241
 14:36:58.640,eb:33:2e:f9:57:b5, 2085-97-44 00:08:00:2048,0.021,0.004,0.999,0,1.953,0.732,-0.461,-0.626,-115.241
 14:36:58.670,eb:33:2e:f9:57:b5, 2085-97-42 00:09:00:2049,0.02,0.004,1,0,2.258,0.854,-0.461,-0.626,-115.241
 14:36:58.670,eb:33:2e:f9:57:b5, 2085-97-39 00:11:00:2045,0.02,0.004,1,0,2.563,0.977,-0.461,-0.632,-115.241
 14:36:58.670,eb:33:2e:f9:57:b5, 2085-97-40 00:11:00:2043,0.019,0.005,0.998,0,2.625,1.038,-0.461,-0.632,-115.241
 14:36:58.670,eb:33:2e:f9:57:b5, 2085-97-39 00:06:00:2048,0.019,0.004,0.999,0,2.808,1.16,-0.461,-0.621,-115.241
 14:36:58.730,eb:33:2e:f9:57:b5, 2085-97-39 00:08:00:2049,0.018,0.004,0.999,0,3.113,1.404,-0.461,-0.593,-115.225
 14:36:58.730,eb:33:2e:f9:57:b5, 2085-97-37 00:11:00:2046,0.018,0.005,0.999,0,3.235,1.526,-0.461,-0.56,-115.208
 14:36:58.730,eb:33:2e:f9:57:b5, 2085-97-37 00:09:00:2050,0.017,0.004,1,0,3.54,1.77,-0.461,-0.522,-115.192
 14:36:58.730,eb:33:2e:f9:57:b5, 2085-97-34 00:09:00:2047,0.016,0.004,1.001,0,3.845,1.953,-0.456,-0.483,-115.175
 14:36:58.758,eb:33:2e:f9:57:b5, 2085-97-32 00:09:00:2047,0.015,0.004,1,0,4.028,2.014,-0.456,-0.445,-115.153
 14:36:58.758,eb:33:2e:f9:57:b5, 2085-97-27 00:11:00:2043,0.012,0.004,0.998,0.061,4.028,2.014,-0.456,-0.401,-115.131
 14:36:58.758,eb:33:2e:f9:57:b5, 2085-97-26 00:12:00:2041,0.01,0.006,0.997,0.061,3.784,2.014,-0.456,-0.363,-115.109
 14:36:58.758,eb:33:2e:f9:57:b5, 2085-97-22 00:13:00:2040,0.011,0.006,0.996,0,3.418,1.953,-0.456,-0.324,-115.087
 14:36:58.789,eb:33:2e:f9:57:b5, 2085-97-21 00:11:00:2042,0.011,0.005,0.996,0.061,3.113,1.892,-0.456,-0.291,-115.071
 14:36:58.789,eb:33:2e:f9:57:b5, 2085-97-21 00:11:00:2041,0.01,0.005,0.998,0,3.052,1.77,-0.45,-0.258,-115.049
 14:36:58.789,eb:33:2e:f9:57:b5, 2085-97-18 00:12:00:2042,0.009,0.004,0.997,0,2.869,1.526,-0.45,-0.225,-115.032
 14:36:58.789,eb:33:2e:f9:57:b5, 2085-97-19 00:12:00:2044,0.008,0.005,0.998,0,2.686,1.404,-0.45,-0.198,-115.016
 14:36:58.848,eb:33:2e:f9:57:b5, 2085-97-15 00:12:00:2041,0.007,0.005,0.997,0.061,2.502,1.282,-0.45,-0.17,-115.005
 14:36:58.848,eb:33:2e:f9:57:b5, 2085-97-16 00:12:00:2040,0.007,0.006,0.997,0.061,2.258,1.038,-0.45,-0.148,-114.988
 14:36:58.848,eb:33:2e:f9:57:b5, 2085-97-14 00:13:00:2040,0.006,0.006,0.997,0.061,2.014,0.854,-0.45,-0.121,-114.977
 14:36:58.848,eb:33:2e:f9:57:b5, 2085-97-13 00:13:00:2041,0.006,0.006,0.997,0.061,1.77,0.732,-0.445,-0.104,-114.972
 14:36:58.908,eb:33:2e:f9:57:b5, 2085-97-14 00:11:00:2040,0.006,0.005,0.996,0,1.587,0.549,-0.445,-0.082,-114.966
 14:36:58.908,eb:33:2e:f9:57:b5, 2085-97-13 00:11:00:2042,0.006,0.006,0.998,0,1.465,0.427,-0.445,-0.066,-114.961
 14:36:58.908,eb:33:2e:f9:57:b5, 2085-97-13 00:12:00:2041,0.007,0.005,0.997,0,1.282,0.305,-0.445,-0.055,-114.955
 14:36:58.908,eb:33:2e:f9:57:b5, 2085-97-13 00:10:00:2042,0.006,0.006,0.997,0,1.099,0.244,-0.445,-0.038,-114.95
 14:36:58.940,eb:33:2e:f9:57:b5, 2085-97-13 00:11:00:2044,0.007,0.005,0.998,0.061,0.916,0.183,-0.445,-0.027,-114.944
 14:36:58.940,eb:33:2e:f9:57:b5, 2085-97-12 00:11:00:2044,0.006,0.005,0.998,0,0.854,0.183,-0.445,-0.016,-114.944
 14:36:58.940,eb:33:2e:f9:57:b5, 2085-97-13 00:11:00:2042,0.007,0.005,0.998,0,0.671,0.061,-0.445,-0.011,-114.944
 14:36:58.940,eb:33:2e:f9:57:b5, 2085-97-12 00:11:00:2043,0.005,0.005,0.997,0,0.549,0.061,-0.439,0,-114.939
 14:36:58.970,eb:33:2e:f9:57:b5, 2085-97-10 00:10:00:2042,0.005,0.006,0.997,0,0.366,0,-0.439,0.005,-114.939
 14:36:58.970,eb:33:2e:f9:57:b5, 2085-97-11 00:11:00:2044,0.005,0.006,0.997,0,0.061,0,-0.439,0.005,-114.939
 14:36:58.970,eb:33:2e:f9:57:b5, 2085-97-14 00:11:00:2043,0.006,0.006,0.998,0,0,0,-0.439,0.011,-114.939
 14:36:58.970,eb:33:2e:f9:57:b5, 2085-97-14 00:10:00:2042,0.007,0.005,0.998,0,-0.122,-0.122,-0.439,0.011,-114.939
 14:36:58.999,eb:33:2e:f9:57:b5, 2085-97-13 00:10:00:2044,0.006,0.005,0.998,0,-0.122,-0.122,-0.439,0.011,-114.944
 14:36:58.999,eb:33:2e:f9:57:b5, 2085-97-15 00:11:00:2044,0.007,0.005,0.999,0,-0.122,-0.061,-0.439,0.011,-114.944
 14:36:58.999,eb:33:2e:f9:57:b5, 2085-97-13 00:12:00:2044,0.007,0.005,0.998,0,-0.122,-0.183,-0.439,0.005,-114.944
 14:36:58.999,eb:33:2e:f9:57:b5, 2085-97-13 00:13:00:2044,0.006,0.006,0.999,0,-0.183,-0.061,-0.439,0.005,-114.944
 14:36:59.059,eb:33:2e:f9:57:b5, 2085-97-14 00:11:00:2046,0.006,0.005,0.998,0,-0.305,-0.122,-0.439,0.005,-114.944
 14:36:59.059,eb:33:2e:f9:57:b5, 2085-97-13 00:12:00:2044,0.006,0.005,0.998,0,-0.244,-0.183,-0.439,0.005,-114.95
 14:36:59.059,eb:33:2e:f9:57:b5, 2085-97-16 00:11:00:2044,0.008,0.006,0.998,0,-0.305,-0.183,-0.439,0,-114.95
 14:36:59.059,eb:33:2e:f9:57:b5, 2085-97-15 00:10:00:2044,0.007,0.005,0.999,0,-0.244,-0.183,-0.439,0,-114.95
 14:36:59.088,eb:33:2e:f9:57:b5, 2085-97-15 00:09:00:2044,0.008,0.005,0.999,0,-0.244,-0.183,-0.439,0,-114.95
 14:36:59.088,eb:33:2e:f9:57:b5, 2085-97-17 00:11:00:2044,0.008,0.005,0.998,0,-0.244,-0.122,-0.439,-0.005,-114.955
 14:36:59.088,eb:33:2e:f9:57:b5, 2085-97-16 00:11:00:2042,0.008,0.005,0.998,-0.061,-0.183,-0.183,-0.439,-0.005,-114.955
 14:36:59.088,eb:33:2e:f9:57:b5, 2085-97-16 00:10:00:2044,0.007,0.005,0.998,0,-0.183,-0.122,-0.439,-0.005,-114.955
 14:36:59.119,eb:33:2e:f9:57:b5, 2085-97-16 00:09:00:2042,0.008,0.005,0.998,0,-0.122,-0.183,-0.439,-0.005,-114.961
 14:36:59.119,eb:33:2e:f9:57:b5, 2085-97-17 00:09:00:2045,0.008,0.005,0.998,0,-0.183,-0.122,-0.439,-0.005,-114.961
 14:36:59.119,eb:33:2e:f9:57:b5, 2085-97-16 00:12:00:2046,0.007,0.006,0.999,-0.061,-0.183,-0.183,-0.439,-0.005,-114.961
 14:36:59.119,eb:33:2e:f9:57:b5, 2085-97-15 00:12:00:2046,0.007,0.006,0.999,-0.061,-0.061,-0.061,-0.439,-0.005,-114.961
 14:36:59.178,eb:33:2e:f9:57:b5, 2085-97-16 00:11:00:2044,0.007,0.006,0.998,-0.061,-0.061,-0.061,-0.439,-0.005,-114.961
 14:36:59.178,eb:33:2e:f9:57:b5, 2085-97-17 00:11:00:2047,0.008,0.005,0.999,-0.061,-0.061,-0.122,-0.439,-0.005,-114.961
 14:36:59.178,eb:33:2e:f9:57:b5, 2085-97-17 00:11:00:2044,0.009,0.006,0.999,-0.061,-0.183,-0.122,-0.439,-0.005,-114.966
 14:36:59.179,eb:33:2e:f9:57:b5, 2085-97-16 00:10:00:2044,0.007,0.006,0.998,-0.061,-0.122,-0.122,-0.439,-0.011,-114.966
 14:36:59.210,eb:33:2e:f9:57:b5, 2085-97-15 00:10:00:2045,0.007,0.005,0.998,-0.122,-0.122,-0.183,-0.439,-0.011,-114.966
 14:36:59.210,eb:33:2e:f9:57:b5, 2085-97-15 00:10:00:2045,0.008,0.005,0.999,-0.122,-0.122,-0.122,-0.439,-0.011,-114.966
 14:36:59.210,eb:33:2e:f9:57:b5, 2085-97-16 00:10:00:2044,0.007,0.004,0.999,-0.061,-0.061,-0.183,-0.445,-0.011,-114.972
 14:36:59.210,eb:33:2e:f9:57:b5, 2085-97-15 00:09:00:2043,0.007,0.004,0.998,-0.061,-0.122,-0.122,-0.445,-0.011,-114.972
 14:36:59.240,eb:33:2e:f9:57:b5, 2085-97-15 00:09:00:2045,0.008,0.004,0.998,-0.061,-0.122,-0.183,-0.445,-0.011,-114.972
 14:36:59.240,eb:33:2e:f9:57:b5, 2085-97-16 00:10:00:2044,0.008,0.005,0.998,-0.122,-0.183,-0.183,-0.445,-0.011,-114.972
 14:36:59.240,eb:33:2e:f9:57:b5, 2085-97-17 00:11:00:2043,0.008,0.006,0.998,-0.061,-0.122,-0.244,-0.445,-0.011,-114.977
 14:36:59.240,eb:33:2e:f9:57:b5, 2085-97-17 00:11:00:2046,0.008,0.005,0.998,-0.061,-0.122,-0.244,-0.445,-0.011,-114.977
 14:36:59.298,eb:33:2e:f9:57:b5, 2085-97-15 00:11:00:2043,0.008,0.005,0.998,-0.061,-0.122,-0.244,-0.445,-0.011,-114.983
 14:36:59.298,eb:33:2e:f9:57:b5, 2085-97-14 00:09:00:2043,0.008,0.005,0.999,-0.061,-0.122,-0.122,-0.445,-0.011,-114.983
 14:36:59.298,eb:33:2e:f9:57:b5, 2085-113-58 00:81:220:-1560,0.007,0.004,0.998,-0.061,-0.183,-0.122,-0.445,-0.011,-114.983
 14:36:59.298,eb:33:2e:f9:57:b5, 2085-97-17 00:09:00:2045,0.007,0.005,0.998,0,-0.183,-0.183,-0.445,-0.011,-114.983
 14:36:59.298,eb:33:2e:f9:57:b5, 2085-97-14 00:09:00:2047,0.007,0.004,0.999,-0.061,-0.183,-0.122,-0.445,-0.011,-114.983
 14:36:59.329,eb:33:2e:f9:57:b5, 2085-97-18 00:09:00:2044,0.008,0.005,0.999,0,-0.122,-0.122,-0.445,-0.016,-114.988
 14:36:59.329,eb:33:2e:f9:57:b5, 2085-97-15 00:11:00:2045,0.007,0.004,0.998,0,-0.183,-0.061,-0.445,-0.016,-114.988
 14:36:59.329,eb:33:2e:f9:57:b5, 2085-97-17 00:09:00:2044,0.009,0.005,0.999,0,-0.183,-0.122,-0.445,-0.016,-114.988
 14:36:59.329,eb:33:2e:f9:57:b5, 2085-97-18 00:10:00:2045,0.008,0.005,0.998,0,-0.122,-0.061,-0.445,-0.016,-114.988
 14:36:59.361,eb:33:2e:f9:57:b5, 2085-97-17 00:10:00:2044,0.008,0.005,0.999,0,-0.061,-0.061,-0.445,-0.016,-114.988
 14:36:59.361,eb:33:2e:f9:57:b5, 2085-97-17 00:11:00:2044,0.008,0.004,0.999,0,-0.061,-0.061,-0.445,-0.016,-114.988
 14:36:59.361,eb:33:2e:f9:57:b5, 2085-97-18 00:10:00:2046,0.008,0.005,0.999,0,0,-0.061,-0.445,-0.016,-114.988
 14:36:59.361,eb:33:2e:f9:57:b5, 2085-97-15 00:10:00:2045,0.007,0.005,0.999,0,-0.061,0,-0.445,-0.016,-114.988
 14:36:59.419,eb:33:2e:f9:57:b5, 2085-97-16 00:09:00:2043,0.007,0.005,0.997,0,-0.061,0,-0.445,-0.016,-114.988
 14:36:59.419,eb:33:2e:f9:57:b5, 2085-97-14 00:11:00:2044,0.007,0.005,0.997,0,-0.122,0,-0.445,-0.016,-114.988
 14:36:59.419,eb:33:2e:f9:57:b5, 2085-97-16 00:11:00:2044,0.008,0.005,0.998,0,-0.122,0,-0.445,-0.016,-114.988
 14:36:59.419,eb:33:2e:f9:57:b5, 2085-97-17 00:10:00:2045,0.008,0.004,0.998,0,-0.183,-0.061,-0.445,-0.016,-114.988
 14:36:59.449,eb:33:2e:f9:57:b5, 2085-97-16 00:10:00:2045,0.008,0.005,0.999,0,-0.183,0,-0.445,-0.016,-114.988
 14:36:59.449,eb:33:2e:f9:57:b5, 2085-97-16 00:11:00:2044,0.008,0.005,0.998,0,-0.183,0,-0.439,-0.016,-114.994
 14:36:59.449,eb:33:2e:f9:57:b5, 2085-97-16 00:10:00:2044,0.008,0.005,0.998,0,-0.061,0,-0.439,-0.016,-114.988
 14:36:59.449,eb:33:2e:f9:57:b5, 2085-97-18 00:11:00:2045,0.008,0.005,0.998,0,-0.122,-0.061,-0.439,-0.016,-114.988
 14:36:59.479,eb:33:2e:f9:57:b5, 2085-97-16 00:10:00:2044,0.008,0.005,0.999,0,-0.122,0,-0.439,-0.016,-114.988
 14:36:59.479,eb:33:2e:f9:57:b5, 2085-97-16 00:11:00:2044,0.008,0.005,0.998,0,-0.122,0,-0.439,-0.016,-114.988
 14:36:59.479,eb:33:2e:f9:57:b5, 2085-97-17 00:10:00:2043,0.008,0.005,0.999,0,-0.122,0,-0.439,-0.022,-114.988
 14:36:59.479,eb:33:2e:f9:57:b5, 2085-97-18 00:10:00:2043,0.008,0.005,0.998,0,-0.122,0,-0.439,-0.022,-114.994
 14:36:59.539,eb:33:2e:f9:57:b5, 2085-97-17 00:11:00:2044,0.008,0.005,0.998,0,-0.122,0,-0.439,-0.022,-114.988
 14:36:59.539,eb:33:2e:f9:57:b5, 2085-97-17 00:11:00:2044,0.008,0.005,0.998,0,-0.183,-0.061,-0.439,-0.022,-114.994
 14:36:59.539,eb:33:2e:f9:57:b5, 2085-97-16 00:10:00:2044,0.009,0.005,0.999,0,-0.183,0,-0.439,-0.022,-114.994
 14:36:59.539,eb:33:2e:f9:57:b5, 2085-97-19 00:11:00:2043,0.009,0.004,0.999,0,-0.183,-0.061,-0.434,-0.022,-114.994
 14:36:59.600,eb:33:2e:f9:57:b5, 2085-97-19 00:11:00:2044,0.009,0.005,0.998,0,-0.244,0,-0.434,-0.027,-114.994
 14:36:59.600,eb:33:2e:f9:57:b5, 2085-97-16 00:11:00:2044,0.008,0.006,0.999,0,-0.244,-0.061,-0.434,-0.027,-114.994
 14:36:59.600,eb:33:2e:f9:57:b5, 2085-97-18 00:10:00:2044,0.008,0.005,0.998,0.061,-0.244,-0.122,-0.434,-0.027,-114.994
 14:36:59.600,eb:33:2e:f9:57:b5, 2085-97-17 00:11:00:2043,0.008,0.005,0.998,0,-0.305,-0.061,-0.434,-0.027,-114.994
 14:36:59.600,eb:33:2e:f9:57:b5, 2085-97-18 00:12:00:2043,0.009,0.005,0.997,0,-0.244,-0.061,-0.434,-0.033,-114.994
 14:36:59.600,eb:33:2e:f9:57:b5, 2085-97-19 00:10:00:2044,0.009,0.005,0.998,0,-0.244,-0.061,-0.434,-0.033,-114.994
 14:36:59.600,eb:33:2e:f9:57:b5, 2085-97-18 00:11:00:2042,0.007,0.005,0.998,0,-0.183,-0.061,-0.434,-0.033,-114.994
 14:36:59.601,eb:33:2e:f9:57:b5, 2085-97-16 00:12:00:2045,0.009,0.006,0.997,0,-0.305,-0.061,-0.428,-0.038,-114.999
 14:36:59.659,eb:33:2e:f9:57:b5, 2085-97-20 00:12:00:2045,0.01,0.005,0.998,0,-0.305,-0.061,-0.428,-0.038,-114.999
 14:36:59.659,eb:33:2e:f9:57:b5, 2085-97-18 00:11:00:2045,0.008,0.005,0.999,0.061,-0.305,0,-0.428,-0.038,-114.999
 14:36:59.659,eb:33:2e:f9:57:b5, 2085-97-18 00:12:00:2043,0.009,0.005,0.998,0.122,-0.305,-0.061,-0.428,-0.044,-114.999
 14:36:59.659,eb:33:2e:f9:57:b5, 2085-97-19 00:12:00:2045,0.009,0.006,0.998,0,-0.244,-0.061,-0.428,-0.044,-114.999
 14:36:59.689,eb:33:2e:f9:57:b5, 2085-97-18 00:10:00:2044,0.009,0.005,0.998,0,-0.183,-0.061,-0.428,-0.044,-114.999
 14:36:59.689,eb:33:2e:f9:57:b5, 2085-97-19 00:10:00:2044,0.009,0.005,0.998,0.061,-0.183,-0.183,-0.423,-0.049,-114.999
 14:36:59.689,eb:33:2e:f9:57:b5, 2085-97-18 00:09:00:2044,0.009,0.004,0.999,0,-0.183,-0.122,-0.423,-0.049,-114.999
 14:36:59.689,eb:33:2e:f9:57:b5, 2085-97-18 00:10:00:2043,0.008,0.004,0.998,0,-0.183,-0.061,-0.423,-0.049,-115.005
 14:36:59.719,eb:33:2e:f9:57:b5, 2085-97-18 00:12:00:2044,0.009,0.005,0.999,0,-0.061,-0.061,-0.423,-0.049,-115.005
 14:36:59.719,eb:33:2e:f9:57:b5, 2085-97-19 00:11:00:2045,0.009,0.005,0.999,0,-0.061,-0.061,-0.423,-0.049,-115.005
 14:36:59.719,eb:33:2e:f9:57:b5, 2085-97-18 00:11:00:2043,0.009,0.005,0.999,0,-0.122,-0.061,-0.423,-0.049,-115.005
 14:36:59.719,eb:33:2e:f9:57:b5, 2085-97-18 00:11:00:2044,0.01,0.005,0.998,0,-0.122,0,-0.423,-0.049,-115.005
 14:36:59.781,eb:33:2e:f9:57:b5, 2085-97-19 00:12:00:2045,0.009,0.006,0.998,0,-0.061,0,-0.412,-0.071,-115.005
 14:36:59.781,eb:33:2e:f9:57:b5, 2085-97-19 00:11:00:2044,0.01,0.005,0.998,0,-0.061,0,-0.412,-0.071,-115.005
 14:36:59.781,eb:33:2e:f9:57:b5, 2085-97-19 00:10:00:2045,0.009,0.005,0.998,0,-0.061,0,-0.412,-0.082,-115.005
 14:36:59.781,eb:33:2e:f9:57:b5, 2085-97-19 00:12:00:2044,0.01,0.005,0.998,0,0,-0.061,-0.412,-0.082,-115.005
 14:36:59.808,eb:33:2e:f9:57:b5, 2085-97-19 00:10:00:2043,0.009,0.006,0.998,0,-0.061,-0.061,-0.406,-0.093,-115.005
 14:36:59.808,eb:33:2e:f9:57:b5, 2085-97-20 00:12:00:2044,0.009,0.006,0.998,0,0,-0.061,-0.406,-0.093,-115.005
 14:36:59.808,eb:33:2e:f9:57:b5, 2085-97-20 00:10:00:2045,0.01,0.005,0.999,0,0,-0.061,-0.406,-0.099,-115.005
 14:36:59.808,eb:33:2e:f9:57:b5, 2085-97-19 00:11:00:2045,0.01,0.005,0.999,0.061,0,0,-0.406,-0.099,-115.005
 14:36:59.844,eb:33:2e:f9:57:b5, 2085-97-20 00:11:00:2045,0.009,0.005,0.999,0,0,0,-0.406,-0.11,-115.005
 14:36:59.844,eb:33:2e:f9:57:b5, 2085-97-20 00:11:00:2044,0.01,0.005,0.999,0.061,0.122,0,-0.406,-0.11,-115.005
 14:36:59.844,eb:33:2e:f9:57:b5, 2085-97-18 00:11:00:2044,0.009,0.005,0.998,0,0.061,0,-0.401,-0.115,-115.005
 14:36:59.844,eb:33:2e:f9:57:b5, 2085-97-20 00:13:00:2044,0.008,0.006,0.999,0.061,0.061,0,-0.401,-0.115,-115.005
 14:36:59.928,eb:33:2e:f9:57:b5, 2085-97-18 00:11:00:2043,0.009,0.005,0.998,0,0.061,0,-0.401,-0.115,-115.005
 14:36:59.928,eb:33:2e:f9:57:b5, 2085-113-58 00:126:220:-1455,0.009,0.006,0.998,0,0.061,-0.061,-0.401,-0.115,-115.005
 14:36:59.928,eb:33:2e:f9:57:b5, 2085-97-18 00:11:00:2043,0.009,0.006,0.998,0.061,0.061,-0.122,-0.401,-0.115,-115.005
 14:36:59.928,eb:33:2e:f9:57:b5, 2085-97-18 00:12:00:2043,0.009,0.005,0.998,0,0.061,-0.061,-0.401,-0.121,-115.005
 14:36:59.928,eb:33:2e:f9:57:b5, 2085-97-20 00:12:00:2044,0.009,0.005,0.998,0,0,-0.061,-0.401,-0.121,-114.966
 14:36:59.928,eb:33:2e:f9:57:b5, 2085-97-17 00:12:00:2044,0.009,0.006,0.999,0,0.122,-0.061,-0.39,-0.159,-114.966
 14:36:59.928,eb:33:2e:f9:57:b5, 2085-97-19 00:13:00:2045,0.009,0.006,0.999,0,0.061,-0.061,-0.39,-0.159,-114.928
 14:36:59.928,eb:33:2e:f9:57:b5, 2085-97-17 00:11:00:2043,0.008,0.005,1,0,0.061,-0.122,-0.39,-0.159,-114.928
 14:36:59.959,eb:33:2e:f9:57:b5, 2085-97-17 00:09:00:2044,0.009,0.005,0.999,0,0.061,-0.061,-0.39,-0.159,-114.884
 14:36:59.959,eb:33:2e:f9:57:b5, 2085-97-18 00:11:00:2044,0.008,0.005,0.997,0,0,-0.122,-0.39,-0.165,-114.884
 14:36:59.959,eb:33:2e:f9:57:b5, 2085-97-17 00:11:00:2045,0.009,0.006,0.998,0,0,-0.122,-0.39,-0.165,-114.846
 14:36:59.959,eb:33:2e:f9:57:b5, 2085-97-16 00:11:00:2045,0.008,0.006,0.998,0,0,-0.122,-0.385,-0.165,-114.846
 14:37:00.020,eb:33:2e:f9:57:b5, 2085-97-18 00:11:00:2043,0.009,0.005,0.998,0.061,0.061,-0.122,-0.385,-0.165,-114.807
 14:37:00.020,eb:33:2e:f9:57:b5, 2085-97-18 00:12:00:2045,0.009,0.005,0.998,0,0.061,-0.061,-0.385,-0.165,-114.807
 14:37:00.020,eb:33:2e:f9:57:b5, 2085-97-18 00:13:00:2044,0.009,0.006,0.998,0,0.061,-0.061,-0.385,-0.165,-114.769
 14:37:00.020,eb:33:2e:f9:57:b5, 2085-97-18 00:10:00:2043,0.008,0.006,0.999,0,0.122,-0.122,-0.385,-0.165,-114.769
 14:37:00.079,eb:33:2e:f9:57:b5, 2085-97-17 00:11:00:2044,0.009,0.006,0.999,0,0.122,-0.122,-0.385,-0.165,-114.73
 14:37:00.079,eb:33:2e:f9:57:b5, 2085-97-17 00:11:00:2043,0.009,0.006,0.998,0,0.122,-0.122,-0.385,-0.165,-114.73
 14:37:00.079,eb:33:2e:f9:57:b5, 2085-97-18 00:12:00:2045,0.008,0.006,0.999,0,0.183,-0.061,-0.385,-0.165,-114.692
 14:37:00.079,eb:33:2e:f9:57:b5, 2085-97-16 00:13:00:2044,0.008,0.006,0.999,0,0.122,-0.122,-0.385,-0.17,-114.692
 14:37:00.079,eb:33:2e:f9:57:b5, 2085-97-16 00:12:00:2045,0.008,0.005,0.999,0,0.122,-0.061,-0.385,-0.17,-114.653
 14:37:00.079,eb:33:2e:f9:57:b5, 2085-97-16 00:12:00:2042,0.009,0.006,0.998,0,0.183,-0.122,-0.385,-0.17,-114.653
 14:37:00.079,eb:33:2e:f9:57:b5, 2085-97-18 00:11:00:2044,0.008,0.005,0.998,0,0.244,-0.183,-0.385,-0.17,-114.615
 14:37:00.079,eb:33:2e:f9:57:b5, 2085-97-15 00:11:00:2043,0.008,0.005,0.998,0,0.244,-0.122,-0.385,-0.17,-114.615
 14:37:00.169,eb:33:2e:f9:57:b5, 2085-97-17 00:11:00:2043,0.008,0.006,0.999,0,0.183,-0.122,-0.385,-0.17,-114.576
 14:37:00.169,eb:33:2e:f9:57:b5, 2085-97-16 00:12:00:2044,0.008,0.006,0.999,0,0.183,-0.183,-0.385,-0.17,-114.576
 14:37:00.169,eb:33:2e:f9:57:b5, 2085-97-17 00:13:00:2043,0.008,0.006,0.998,0,0.183,-0.183,-0.385,-0.17,-114.538
 14:37:00.169,eb:33:2e:f9:57:b5, 2085-97-17 00:12:00:2045,0.008,0.006,0.998,0,0.183,-0.183,-0.385,-0.17,-114.538
 14:37:00.171,eb:33:2e:f9:57:b5, 2085-97-16 00:12:00:2043,0.008,0.006,0.998,0,0.122,-0.183,-0.385,-0.17,-114.5
 14:37:00.171,eb:33:2e:f9:57:b5, 2085-97-18 00:11:00:2045,0.008,0.006,0.999,0,0.122,-0.244,-0.379,-0.17,-114.5
 14:37:00.171,eb:33:2e:f9:57:b5, 2085-97-17 00:12:00:2043,0.008,0.006,0.998,0,0.061,-0.183,-0.379,-0.17,-114.461
 14:37:00.171,eb:33:2e:f9:57:b5, 2085-97-16 00:12:00:2044,0.007,0.006,0.997,0,0.061,-0.244,-0.379,-0.176,-114.461
 14:37:00.199,eb:33:2e:f9:57:b5, 2085-97-16 00:11:00:2043,0.008,0.006,0.998,0,0.061,-0.183,-0.379,-0.17,-114.423
 14:37:00.199,eb:33:2e:f9:57:b5, 2085-97-16 00:12:00:2044,0.008,0.005,0.999,0,0.061,-0.244,-0.379,-0.176,-114.423
 14:37:00.199,eb:33:2e:f9:57:b5, 2085-97-17 00:14:00:2044,0.007,0.006,0.998,0,0.061,-0.244,-0.379,-0.176,-114.384
 14:37:00.199,eb:33:2e:f9:57:b5, 2085-97-16 00:11:00:2044,0.008,0.006,0.998,0,0,-0.244,-0.379,-0.176,-114.384
 14:37:00.259,eb:33:2e:f9:57:b5, 2085-97-16 00:12:00:2042,0.007,0.006,0.997,0,0,-0.305,-0.379,-0.176,-114.351
 14:37:00.259,eb:33:2e:f9:57:b5, 2085-97-15 00:13:00:2042,0.007,0.006,0.998,0,-0.061,-0.305,-0.379,-0.176,-114.351
 14:37:00.259,eb:33:2e:f9:57:b5, 2085-97-15 00:13:00:2042,0.007,0.005,0.997,0,-0.183,-0.305,-0.379,-0.176,-114.313
 14:37:00.259,eb:33:2e:f9:57:b5, 2085-97-15 00:11:00:2041,0.007,0.007,0.998,0,-0.244,-0.488,-0.379,-0.176,-114.313
 14:37:00.290,eb:33:2e:f9:57:b5, 2085-97-16 00:14:00:2044,0.009,0.006,0.998,0,-0.427,-0.305,-0.379,-0.176,-114.274
 14:37:00.290,eb:33:2e:f9:57:b5, 2085-97-18 00:13:00:2046,0.009,0.006,0.998,0,-0.427,-0.366,-0.379,-0.176,-114.274
 14:37:00.290,eb:33:2e:f9:57:b5, 2085-97-18 00:12:00:2044,0.008,0.006,0.999,0,-0.366,-0.366,-0.379,-0.176,-114.236
 14:37:00.290,eb:33:2e:f9:57:b5, 2085-97-17 00:12:00:2043,0.008,0.005,0.998,0,-0.427,-0.366,-0.379,-0.176,-114.236
 14:37:00.319,eb:33:2e:f9:57:b5, 2085-97-15 00:12:00:2042,0.008,0.006,0.998,0.061,-0.488,-0.427,-0.379,-0.176,-114.203
 14:37:00.319,eb:33:2e:f9:57:b5, 2085-97-16 00:13:00:2043,0.007,0.006,0.997,0,-0.549,-0.488,-0.374,-0.176,-114.203
 14:37:00.319,eb:33:2e:f9:57:b5, 2085-97-16 00:14:00:2042,0.009,0.006,0.997,0,-0.793,-0.488,-0.374,-0.176,-114.164
 14:37:00.319,eb:33:2e:f9:57:b5, 2085-97-20 00:13:00:2044,0.009,0.006,0.999,0,-0.793,-0.549,-0.374,-0.181,-114.164
 14:37:00.408,eb:33:2e:f9:57:b5, 2085-97-16 00:13:00:2043,0.008,0.006,0.998,0,-0.854,-0.61,-0.374,-0.181,-114.131
 14:37:00.408,eb:33:2e:f9:57:b5, 2085-97-19 00:12:00:2042,0.008,0.006,0.997,0.061,-0.916,-0.61,-0.374,-0.181,-114.131
 14:37:00.408,eb:33:2e:f9:57:b5, 2085-97-15 00:13:00:2041,0.007,0.007,0.998,0,-1.038,-0.671,-0.374,-0.181,-114.093
 14:37:00.408,eb:33:2e:f9:57:b5, 2085-97-10 00:14:00:2037,0.005,0.007,0.996,0,-1.343,-0.793,-0.374,-0.181,-114.093
 14:37:00.410,eb:33:2e:f9:57:b5, 2085-97-13 00:12:00:2037,0.006,0.006,0.994,0,-1.77,-0.977,-0.374,-0.181,-114.055
 14:37:00.410,eb:33:2e:f9:57:b5, 2085-97-14 00:14:00:2039,0.007,0.006,0.994,0.061,-2.38,-1.038,-0.374,-0.198,-114.066
 14:37:00.410,eb:33:2e:f9:57:b5, 2085-97-14 00:13:00:2037,0.008,0.006,0.995,0.061,-2.869,-1.16,-0.374,-0.225,-114.077
 14:37:00.410,eb:33:2e:f9:57:b5, 2085-97-11 00:12:00:2033,0.007,0.007,0.995,0.061,-3.418,-1.282,-0.368,-0.253,-114.088
 14:37:00.469,eb:33:2e:f9:57:b5, 2085-97-19 00:14:00:2037,0.009,0.006,0.994,0.061,-4.089,-1.343,-0.368,-0.291,-114.104
 14:37:00.469,eb:33:2e:f9:57:b5, 2085-97-18 00:16:00:2034,0.012,0.006,0.994,0.122,-4.761,-1.343,-0.368,-0.335,-114.115
 14:37:00.469,eb:33:2e:f9:57:b5, 2085-97-25 00:17:00:2040,0.016,0.007,0.996,0.061,-5.31,-1.343,-0.363,-0.385,-114.131
 14:37:00.469,eb:33:2e:f9:57:b5, 2085-97-39 00:11:00:2049,0.018,0.006,0.999,0.061,-5.371,-1.465,-0.363,-0.439,-114.142
 14:37:00.499,eb:33:2e:f9:57:b5, 2085-97-34 00:14:00:2044,0.017,0.006,0.999,0.122,-4.883,-1.343,-0.363,-0.489,-114.159
 14:37:00.499,eb:33:2e:f9:57:b5, 2085-97-36 00:13:00:2044,0.018,0.006,0.998,0.061,-4.944,-1.343,-0.363,-0.538,-114.17
 14:37:00.499,eb:33:2e:f9:57:b5, 2085-97-35 00:13:00:2041,0.018,0.007,0.998,0.122,-4.822,-1.343,-0.357,-0.582,-114.186
 14:37:00.499,eb:33:2e:f9:57:b5, 2085-97-34 00:14:00:2040,0.017,0.005,0.998,0.122,-4.822,-1.404,-0.357,-0.632,-114.197
 14:37:00.529,eb:33:2e:f9:57:b5, 2085-97-36 00:15:00:2040,0.018,0.007,0.996,0.122,-5.371,-1.526,-0.352,-0.681,-114.214
 14:37:00.529,eb:33:2e:f9:57:b5, 2085-97-41 00:15:00:2039,0.021,0.007,0.995,0.122,-5.798,-1.587,-0.352,-0.736,-114.23
 14:37:00.529,eb:33:2e:f9:57:b5, 2085-97-43 00:14:00:2042,0.021,0.007,0.998,0.122,-5.92,-1.526,-0.352,-0.797,-114.247
 14:37:00.529,eb:33:2e:f9:57:b5, 2085-113-58 00:187:219:-1545,0.021,0.007,0.996,0.122,-6.165,-1.465,-0.346,-0.857,-114.263
 14:37:00.529,eb:33:2e:f9:57:b5, 2085-97-44 00:12:00:2039,0.022,0.007,0.997,0.122,-6.287,-1.465,-0.346,-0.884,-114.269
 14:37:00.590,eb:33:2e:f9:57:b5, 2085-97-46 00:12:00:2040,0.025,0.005,0.996,0.122,-6.47,-1.526,-0.346,-0.95,-114.285
 14:37:00.590,eb:33:2e:f9:57:b5, 2085-97-56 00:12:00:2045,0.028,0.006,0.998,0.305,-6.531,-1.526,-0.341,-1.011,-114.302
 14:37:00.590,eb:33:2e:f9:57:b5, 2085-97-54 00:12:00:2042,0.026,0.006,0.997,0.244,-6.226,-1.404,-0.335,-1.077,-114.313
 14:37:00.590,eb:33:2e:f9:57:b5, 2085-97-55 00:12:00:2041,0.027,0.006,0.997,0.366,-6.226,-1.404,-0.335,-1.137,-114.329
 14:37:00.618,eb:33:2e:f9:57:b5, 2085-97-55 00:15:00:2038,0.027,0.007,0.995,0.305,-6.47,-1.404,-0.33,-1.198,-114.34
 14:37:00.618,eb:33:2e:f9:57:b5, 2085-97-57 00:13:00:2039,0.029,0.007,0.995,0.366,-6.836,-1.404,-0.324,-1.263,-114.357
 14:37:00.618,eb:33:2e:f9:57:b5, 2085-97-58 00:15:00:2038,0.03,0.007,0.996,0.427,-7.263,-1.343,-0.319,-1.335,-114.373
 14:37:00.618,eb:33:2e:f9:57:b5, 2085-97-69 00:15:00:2044,0.034,0.008,0.996,0.488,-7.69,-1.282,-0.313,-1.406,-114.384
 14:37:00.649,eb:33:2e:f9:57:b5, 2085-97-74 00:14:00:2047,0.036,0.007,0.998,0.427,-7.446,-1.343,-0.308,-1.483,-114.395
 14:37:00.649,eb:33:2e:f9:57:b5, 2085-97-72 00:16:00:2043,0.037,0.007,0.999,0.366,-7.202,-1.16,-0.302,-1.555,-114.412
 14:37:00.649,eb:33:2e:f9:57:b5, 2085-97-81 00:14:00:2049,0.041,0.008,0.999,0.305,-6.958,-1.099,-0.297,-1.626,-114.423
 14:37:00.649,eb:33:2e:f9:57:b5, 2085-97-83 00:15:00:2049,0.04,0.008,1,0.244,-6.226,-1.038,-0.297,-1.692,-114.434
 14:37:00.708,eb:33:2e:f9:57:b5, 2085-97-81 00:15:00:2044,0.041,0.007,1,0.244,-5.554,-0.916,-0.291,-1.747,-114.439
 14:37:00.708,eb:33:2e:f9:57:b5, 2085-97-85 00:14:00:2047,0.042,0.007,0.999,0.183,-5.371,-0.793,-0.286,-1.802,-114.45
 14:37:00.709,eb:33:2e:f9:57:b5, 2085-97-88 00:15:00:2048,0.044,0.007,1,0.122,-5.005,-0.671,-0.286,-1.851,-114.456
 14:37:00.709,eb:33:2e:f9:57:b5, 2085-97-91 00:15:00:2048,0.046,0.007,1,0.061,-4.517,-0.427,-0.28,-1.901,-114.461
 14:37:00.739,eb:33:2e:f9:57:b5, 2085-97-96 00:15:00:2050,0.045,0.007,1.001,0.061,-3.723,-0.305,-0.28,-1.939,-114.467
 14:37:00.739,eb:33:2e:f9:57:b5, 2085-97-92 00:15:00:2049,0.046,0.007,1,0.061,-2.808,-0.244,-0.28,-1.972,-114.472
 14:37:00.739,eb:33:2e:f9:57:b5, 2085-97-93 00:15:00:2047,0.044,0.006,1,0.122,-2.136,-0.061,-0.28,-1.994,-114.472
 14:37:00.739,eb:33:2e:f9:57:b5, 2085-97-92 00:16:00:2044,0.045,0.008,0.998,0.183,-1.526,-0.122,-0.275,-2.01,-114.472
 14:37:00.769,eb:33:2e:f9:57:b5, 2085-97-90 00:16:00:2043,0.044,0.008,0.999,0.122,-1.038,-0.122,-0.275,-2.021,-114.472
 14:37:00.769,eb:33:2e:f9:57:b5, 2085-97-90 00:14:00:2042,0.044,0.008,0.998,0.122,-0.916,0,-0.269,-2.032,-114.472
 14:37:00.769,eb:33:2e:f9:57:b5, 2085-97-93 00:15:00:2045,0.044,0.008,0.998,0.061,-0.793,0.061,-0.269,-2.038,-114.472
 14:37:00.769,eb:33:2e:f9:57:b5, 2085-97-91 00:15:00:2044,0.045,0.008,0.998,0.061,-0.61,0.061,-0.269,-2.043,-114.472
 14:37:00.828,eb:33:2e:f9:57:b5, 2085-97-90 00:15:00:2044,0.044,0.008,0.998,0.061,-0.366,0.061,-0.269,-2.049,-114.472
 14:37:00.828,eb:33:2e:f9:57:b5, 2085-97-89 00:17:00:2043,0.043,0.008,0.998,0.061,-0.183,0.061,-0.269,-2.049,-114.467
 14:37:00.828,eb:33:2e:f9:57:b5, 2085-97-89 00:15:00:2041,0.043,0.008,0.997,0.061,0,0,-0.264,-2.049,-114.467
 14:37:00.828,eb:33:2e:f9:57:b5, 2085-97-88 00:15:00:2038,0.044,0.008,0.997,0.061,0,0,-0.264,-2.049,-114.467
 14:37:00.859,eb:33:2e:f9:57:b5, 2085-97-90 00:17:00:2042,0.044,0.008,0.997,0.061,0.061,0,-0.264,-2.049,-114.467
 14:37:00.859,eb:33:2e:f9:57:b5, 2085-97-91 00:16:00:2043,0.044,0.008,0.997,0.061,0.183,0.122,-0.264,-2.043,-114.467
 14:37:00.859,eb:33:2e:f9:57:b5, 2085-97-92 00:15:00:2045,0.044,0.008,0.998,0.061,0.305,0.122,-0.264,-2.038,-114.461
 14:37:00.859,eb:33:2e:f9:57:b5, 2085-97-92 00:17:00:2043,0.044,0.008,0.998,0,0.549,0.183,-0.258,-2.032,-114.461
 14:37:00.921,eb:33:2e:f9:57:b5, 2085-97-89 00:15:00:2042,0.043,0.008,0.999,0,0.854,0.244,-0.258,-2.027,-114.456
 14:37:00.921,eb:33:2e:f9:57:b5, 2085-97-87 00:18:00:2040,0.042,0.008,0.997,0.061,0.977,0.183,-0.258,-2.016,-114.456
 14:37:00.921,eb:33:2e:f9:57:b5, 2085-97-85 00:16:00:2038,0.042,0.008,0.996,0,0.916,0.183,-0.258,-2.005,-114.45
 14:37:00.921,eb:33:2e:f9:57:b5, 2085-97-85 00:15:00:2039,0.042,0.007,0.996,0,0.671,0.183,-0.258,-1.994,-114.45
 14:37:00.951,eb:33:2e:f9:57:b5, 2085-97-83 00:18:00:2037,0.04,0.008,0.996,0,0.549,0.122,-0.258,-1.989,-114.45
 14:37:00.951,eb:33:2e:f9:57:b5, 2085-97-82 00:17:00:2039,0.041,0.008,0.995,0.061,0.183,0.122,-0.253,-1.983,-114.445
 14:37:00.951,eb:33:2e:f9:57:b5, 2085-97-84 00:15:00:2039,0.043,0.008,0.996,0,-0.122,0.183,-0.253,-1.983,-114.445
 14:37:00.951,eb:33:2e:f9:57:b5, 2085-97-87 00:17:00:2042,0.043,0.008,0.997,0.061,-0.244,0.183,-0.253,-1.983,-114.439
 14:37:00.978,eb:33:2e:f9:57:b5, 2085-97-87 00:14:00:2043,0.044,0.007,0.998,0,-0.122,0.305,-0.253,-1.983,-114.439
 14:37:00.978,eb:33:2e:f9:57:b5, 2085-97-91 00:16:00:2048,0.043,0.007,0.997,0,-0.183,0.366,-0.253,-1.983,-114.434
 14:37:00.978,eb:33:2e:f9:57:b5, 2085-97-93 00:15:00:2047,0.045,0.006,0.998,0,0.183,0.488,-0.253,-1.983,-114.428
 14:37:00.978,eb:33:2e:f9:57:b5, 2085-97-87 00:17:00:2044,0.043,0.008,0.999,0,0.977,0.488,-0.253,-1.972,-114.423
 14:37:01.009,eb:33:2e:f9:57:b5, 2085-97-85 00:15:00:2041,0.042,0.009,0.998,0,1.221,0.549,-0.253,-1.961,-114.417
 14:37:01.009,eb:33:2e:f9:57:b5, 2085-97-86 00:15:00:2044,0.042,0.007,0.997,0,1.221,0.61,-0.253,-1.945,-114.412
 14:37:01.009,eb:33:2e:f9:57:b5, 2085-97-87 00:16:00:2044,0.041,0.008,0.998,0.061,1.343,0.732,-0.253,-1.934,-114.401
 14:37:01.009,eb:33:2e:f9:57:b5, 2085-97-82 00:16:00:2041,0.04,0.007,0.996,0,1.465,0.916,-0.253,-1.917,-114.395
 14:37:01.069,eb:33:2e:f9:57:b5, 2085-97-86 00:15:00:2043,0.043,0.007,0.996,0,1.099,0.977,-0.253,-1.901,-114.384
 14:37:01.069,eb:33:2e:f9:57:b5, 2085-97-90 00:16:00:2047,0.044,0.008,0.999,0,1.16,1.038,-0.253,-1.89,-114.373
 14:37:01.069,eb:33:2e:f9:57:b5, 2085-97-88 00:15:00:2045,0.043,0.007,1,-0.061,1.587,1.099,-0.253,-1.873,-114.362
 14:37:01.069,eb:33:2e:f9:57:b5, 2085-97-90 00:16:00:2046,0.042,0.008,0.999,-0.122,2.014,1.099,-0.253,-1.857,-114.351
 14:37:01.098,eb:33:2e:f9:57:b5, 2085-97-89 00:16:00:2048,0.042,0.008,0.998,-0.122,2.441,1.038,-0.258,-1.829,-114.34
 14:37:01.098,eb:33:2e:f9:57:b5, 2085-97-85 00:17:00:2047,0.042,0.008,0.999,-0.244,2.93,1.099,-0.258,-1.802,-114.324
 14:37:01.098,eb:33:2e:f9:57:b5, 2085-97-86 00:16:00:2046,0.041,0.008,0.999,-0.244,3.235,0.977,-0.264,-1.774,-114.313
 14:37:01.098,eb:33:2e:f9:57:b5, 2085-97-86 00:15:00:2047,0.042,0.008,0.999,-0.305,3.723,1.038,-0.264,-1.736,-114.302
 14:37:01.130,eb:33:2e:f9:57:b5, 2085-97-84 00:17:00:2044,0.04,0.008,0.999,-0.305,4.333,0.916,-0.269,-1.692,-114.291
 14:37:01.130,eb:33:2e:f9:57:b5, 2085-97-78 00:15:00:2045,0.039,0.008,0.999,-0.305,4.822,0.977,-0.269,-1.648,-114.285
 14:37:01.130,eb:33:2e:f9:57:b5, 2085-97-80 00:15:00:2047,0.038,0.007,0.999,-0.366,5.127,0.977,-0.275,-1.593,-114.274
 14:37:01.130,eb:33:2e:f9:57:b5, 2085-97-76 00:15:00:2043,0.036,0.008,0.999,-0.305,5.554,1.099,-0.28,-1.538,-114.263
 14:37:01.189,eb:33:2e:f9:57:b5, 2085-97-72 00:14:00:2044,0.035,0.007,0.999,-0.305,5.859,1.099,-0.28,-1.483,-114.247
 14:37:01.189,eb:33:2e:f9:57:b5, 2085-97-68 00:14:00:2042,0.031,0.007,0.998,-0.305,5.981,1.099,-0.286,-1.417,-114.236
 14:37:01.189,eb:33:2e:f9:57:b5, 2085-97-59 00:14:00:2037,0.028,0.007,0.995,-0.244,5.676,1.099,-0.286,-1.362,-114.225
 14:37:01.189,eb:33:2e:f9:57:b5, 2085-97-55 00:16:00:2035,0.027,0.008,0.993,-0.183,5.127,1.038,-0.291,-1.302,-114.214
 14:37:01.219,eb:33:2e:f9:57:b5, 2085-97-56 00:15:00:2038,0.028,0.007,0.996,-0.183,4.395,1.038,-0.291,-1.258,-114.203
 14:37:01.219,eb:33:2e:f9:57:b5, 2085-97-56 00:16:00:2039,0.027,0.007,0.996,-0.122,3.845,1.099,-0.291,-1.214,-114.192
 14:37:01.219,eb:33:2e:f9:57:b5, 2085-97-57 00:15:00:2041,0.028,0.008,0.996,-0.122,3.54,1.038,-0.297,-1.176,-114.181
 14:37:01.219,eb:33:2e:f9:57:b5, 2085-97-56 00:14:00:2042,0.027,0.006,0.997,-0.122,3.479,1.099,-0.297,-1.143,-114.17
 14:37:01.249,eb:33:2e:f9:57:b5, 2085-97-56 00:14:00:2042,0.027,0.007,0.997,-0.061,3.357,1.099,-0.297,-1.104,-114.153
 14:37:01.249,eb:33:2e:f9:57:b5, 2085-97-53 00:16:00:2042,0.026,0.007,0.998,-0.061,3.418,1.099,-0.297,-1.071,-114.142
 14:37:01.249,eb:33:2e:f9:57:b5, 2085-97-52 00:16:00:2040,0.025,0.007,0.997,0,3.418,1.038,-0.297,-1.033,-114.131
 14:37:01.249,eb:33:2e:f9:57:b5, 2085-97-52 00:16:00:2042,0.023,0.007,0.998,0,3.418,0.977,-0.297,-1,-114.12
 14:37:01.308,eb:33:2e:f9:57:b5, 2085-97-49 00:15:00:2038,0.023,0.007,0.996,0,3.357,0.977,-0.297,-0.961,-114.109
 14:37:01.308,eb:33:2e:f9:57:b5, 2085-97-45 00:15:00:2040,0.023,0.008,0.996,0,2.991,0.854,-0.297,-0.928,-114.099
 14:37:01.308,eb:33:2e:f9:57:b5, 2085-97-47 00:15:00:2041,0.023,0.008,0.997,0,2.808,0.793,-0.297,-0.901,-114.093
 14:37:01.308,eb:33:2e:f9:57:b5, 2085-97-46 00:16:00:2039,0.021,0.008,0.996,0,2.747,0.732,-0.297,-0.868,-114.082
 14:37:01.338,eb:33:2e:f9:57:b5, 2085-97-45 00:14:00:2040,0.021,0.007,0.996,0,2.502,0.671,-0.297,-0.84,-114.077
 14:37:01.338,eb:33:2e:f9:57:b5, 2085-97-44 00:16:00:2038,0.021,0.008,0.996,0,2.319,0.549,-0.297,-0.818,-114.066
 14:37:01.338,eb:33:2e:f9:57:b5, 2085-97-42 00:16:00:2037,0.02,0.007,0.995,0,2.258,0.427,-0.297,-0.791,-114.06
 14:37:01.338,eb:33:2e:f9:57:b5, 2085-97-41 00:17:00:2039,0.02,0.007,0.995,0,1.953,0.305,-0.297,-0.769,-114.055
 14:37:01.369,eb:33:2e:f9:57:b5, 2085-97-41 00:16:00:2040,0.02,0.008,0.996,0,1.77,0.305,-0.297,-0.753,-114.055
 14:37:01.369,eb:33:2e:f9:57:b5, 2085-97-43 00:15:00:2043,0.021,0.007,0.997,0,1.587,0.244,-0.297,-0.736,-114.049
 14:37:01.369,eb:33:2e:f9:57:b5, 2085-97-42 00:14:00:2043,0.021,0.007,0.997,0,1.526,0.183,-0.297,-0.72,-114.049
 14:37:01.369,eb:33:2e:f9:57:b5, 2085-97-43 00:15:00:2045,0.02,0.007,0.998,0,1.587,0.183,-0.297,-0.698,-114.044
 14:37:01.458,eb:33:2e:f9:57:b5, 2085-97-40 00:16:00:2042,0.018,0.007,0.998,0,1.587,0.183,-0.291,-0.681,-114.044
 14:37:01.458,eb:33:2e:f9:57:b5, 2085-113-58 00:111:220:-1470,0.019,0.008,0.996,0,1.526,0.122,-0.291,-0.665,-114.038
 14:37:01.458,eb:33:2e:f9:57:b5, 2085-97-37 00:16:00:2041,0.018,0.008,0.997,0,1.526,0.122,-0.291,-0.654,-114.038
 14:37:01.458,eb:33:2e:f9:57:b5, 2085-97-37 00:15:00:2041,0.018,0.007,0.997,0.061,1.404,0.122,-0.291,-0.643,-114.038
 14:37:01.489,eb:33:2e:f9:57:b5, 2085-97-36 00:16:00:2040,0.017,0.007,0.997,0.061,1.221,0.061,-0.291,-0.626,-114.033
 14:37:01.489,eb:33:2e:f9:57:b5, 2085-97-35 00:15:00:2039,0.017,0.007,0.996,0.122,1.16,0,-0.291,-0.615,-114.033
 14:37:01.489,eb:33:2e:f9:57:b5, 2085-97-35 00:15:00:2040,0.017,0.007,0.996,0.061,0.916,0,-0.286,-0.599,-114.033
 14:37:01.489,eb:33:2e:f9:57:b5, 2085-97-33 00:15:00:2041,0.017,0.007,0.996,0.061,0.732,-0.061,-0.286,-0.593,-114.033
 14:37:01.491,eb:33:2e:f9:57:b5, 2085-97-36 00:15:00:2042,0.018,0.008,0.997,0,0.61,-0.122,-0.286,-0.582,-114.033
 14:37:01.491,eb:33:2e:f9:57:b5, 2085-97-35 00:14:00:2041,0.018,0.007,0.998,0,0.671,-0.183,-0.286,-0.577,-114.033
 14:37:01.491,eb:33:2e:f9:57:b5, 2085-97-34 00:17:00:2040,0.016,0.007,0.997,0,0.671,-0.183,-0.286,-0.566,-114.033
 14:37:01.491,eb:33:2e:f9:57:b5, 2085-97-30 00:17:00:2036,0.015,0.009,0.995,0,0.427,-0.244,-0.28,-0.582,-114.038
 14:37:01.550,eb:33:2e:f9:57:b5, 2085-97-33 00:16:00:2041,0.017,0.007,0.995,0,-0.061,-0.305,-0.28,-0.582,-114.038
 14:37:01.550,eb:33:2e:f9:57:b5, 2085-97-35 00:16:00:2040,0.019,0.007,0.997,0,-0.427,-0.366,-0.28,-0.588,-114.033
 14:37:01.550,eb:33:2e:f9:57:b5, 2085-97-41 00:15:00:2044,0.02,0.007,0.997,0,-0.488,-0.427,-0.28,-0.588,-114.033
 14:37:01.550,eb:33:2e:f9:57:b5, 2085-97-40 00:14:00:2046,0.02,0.007,0.999,-0.061,-0.305,-0.427,-0.275,-0.599,-114.033
 14:37:01.579,eb:33:2e:f9:57:b5, 2085-97-38 00:14:00:2043,0.019,0.007,0.999,-0.061,-0.122,-0.427,-0.275,-0.599,-114.033
 14:37:01.579,eb:33:2e:f9:57:b5, 2085-97-36 00:14:00:2042,0.017,0.007,0.998,-0.061,0,-0.427,-0.275,-0.604,-114.033
 14:37:01.579,eb:33:2e:f9:57:b5, 2085-97-34 00:16:00:2039,0.017,0.008,0.997,-0.061,-0.122,-0.427,-0.275,-0.604,-114.033
 14:37:01.579,eb:33:2e:f9:57:b5, 2085-97-36 00:15:00:2044,0.018,0.007,0.997,0,-0.427,-0.427,-0.275,-0.61,-114.033
 14:37:01.608,eb:33:2e:f9:57:b5, 2085-97-37 00:15:00:2043,0.019,0.008,0.998,0,-0.488,-0.488,-0.275,-0.61,-114.033
 14:37:01.608,eb:33:2e:f9:57:b5, 2085-97-41 00:14:00:2046,0.02,0.007,0.999,0,-0.427,-0.549,-0.275,-0.615,-114.033
 14:37:01.608,eb:33:2e:f9:57:b5, 2085-97-39 00:16:00:2043,0.019,0.008,0.998,-0.061,-0.305,-0.488,-0.275,-0.615,-114.033
 14:37:01.608,eb:33:2e:f9:57:b5, 2085-97-39 00:16:00:2041,0.017,0.008,0.998,0,-0.366,-0.427,-0.275,-0.615,-114.033
 14:37:01.669,eb:33:2e:f9:57:b5, 2085-97-33 00:16:00:2039,0.019,0.007,0.996,-0.061,-0.61,-0.488,-0.275,-0.615,-114.033
 14:37:01.669,eb:33:2e:f9:57:b5, 2085-97-42 00:14:00:2044,0.019,0.007,0.997,0,-0.793,-0.549,-0.269,-0.621,-114.033
 14:37:01.669,eb:33:2e:f9:57:b5, 2085-97-40 00:16:00:2046,0.02,0.008,0.998,0,-0.854,-0.549,-0.269,-0.621,-114.033
 14:37:01.669,eb:33:2e:f9:57:b5, 2085-97-45 00:16:00:2049,0.021,0.008,0.999,0,-0.732,-0.61,-0.269,-0.626,-114.033
 14:37:01.729,eb:33:2e:f9:57:b5, 2085-97-43 00:15:00:2047,0.021,0.007,1,0,-0.427,-0.61,-0.269,-0.626,-114.033
 14:37:01.729,eb:33:2e:f9:57:b5, 2085-97-45 00:16:00:2047,0.021,0.008,1,-0.183,-0.122,-0.549,-0.269,-0.626,-114.033
 14:37:01.729,eb:33:2e:f9:57:b5, 2085-97-43 00:14:00:2045,0.021,0.008,0.999,-0.122,0.122,-0.488,-0.269,-0.626,-114.033
 14:37:01.729,eb:33:2e:f9:57:b5, 2085-97-40 00:14:00:2043,0.019,0.007,0.998,-0.244,0.305,-0.427,-0.269,-0.632,-114.033
 14:37:01.731,eb:33:2e:f9:57:b5, 2085-97-40 00:16:00:2045,0.02,0.008,0.998,-0.183,0.366,-0.427,-0.269,-0.632,-114.033
 14:37:01.731,eb:33:2e:f9:57:b5, 2085-97-41 00:14:00:2045,0.02,0.007,0.999,-0.183,0.488,-0.305,-0.269,-0.632,-114.033
 14:37:01.731,eb:33:2e:f9:57:b5, 2085-97-41 00:15:00:2045,0.02,0.007,0.998,-0.244,0.61,-0.366,-0.269,-0.632,-114.033
 14:37:01.731,eb:33:2e:f9:57:b5, 2085-97-40 00:16:00:2046,0.019,0.008,0.998,-0.305,0.671,-0.366,-0.269,-0.637,-114.033
 14:37:01.788,eb:33:2e:f9:57:b5, 2085-97-40 00:14:00:2044,0.02,0.007,0.999,-0.244,0.732,-0.305,-0.269,-0.637,-114.033
 14:37:01.788,eb:33:2e:f9:57:b5, 2085-97-38 00:15:00:2044,0.019,0.007,0.998,-0.305,0.793,-0.183,-0.269,-0.637,-114.033
 14:37:01.788,eb:33:2e:f9:57:b5, 2085-97-39 00:15:00:2044,0.02,0.008,0.998,-0.305,0.854,-0.244,-0.269,-0.637,-114.033
 14:37:01.788,eb:33:2e:f9:57:b5, 2085-97-41 00:12:00:2048,0.021,0.006,0.998,-0.305,1.038,-0.061,-0.269,-0.643,-114.033
 14:37:01.820,eb:33:2e:f9:57:b5, 2085-97-40 00:14:00:2047,0.02,0.006,1,-0.366,1.282,0,-0.269,-0.643,-114.033
 14:37:01.820,eb:33:2e:f9:57:b5, 2085-97-38 00:14:00:2045,0.018,0.007,0.999,-0.244,1.465,0,-0.269,-0.643,-114.033
 14:37:01.820,eb:33:2e:f9:57:b5, 2085-97-36 00:14:00:2044,0.016,0.007,0.999,-0.305,1.587,0.061,-0.269,-0.643,-114.033
 14:37:01.820,eb:33:2e:f9:57:b5, 2085-97-36 00:15:00:2045,0.017,0.006,0.997,-0.244,1.587,0,-0.269,-0.643,-114.033
 14:37:01.880,eb:33:2e:f9:57:b5, 2085-97-35 00:16:00:2043,0.016,0.007,0.997,-0.183,1.587,0.061,-0.269,-0.643,-114.033
 14:37:01.880,eb:33:2e:f9:57:b5, 2085-97-30 00:15:00:2043,0.016,0.007,0.998,-0.122,1.465,0.061,-0.269,-0.648,-114.033
 14:37:01.880,eb:33:2e:f9:57:b5, 2085-97-33 00:14:00:2042,0.016,0.006,0.996,-0.183,1.221,0,-0.269,-0.648,-114.033
 14:37:01.880,eb:33:2e:f9:57:b5, 2085-97-36 00:13:00:2044,0.018,0.007,0.997,-0.122,1.099,0,-0.269,-0.648,-114.033
 14:37:01.909,eb:33:2e:f9:57:b5, 2085-97-31 00:15:00:2043,0.016,0.006,0.999,-0.122,1.038,0,-0.269,-0.648,-114.033
 14:37:01.909,eb:33:2e:f9:57:b5, 2085-97-33 00:13:00:2045,0.016,0.007,0.997,-0.061,0.854,0,-0.264,-0.648,-114.033
 14:37:01.909,eb:33:2e:f9:57:b5, 2085-97-33 00:13:00:2044,0.017,0.007,0.998,0,0.916,0,-0.264,-0.648,-114.033
 14:37:01.909,eb:33:2e:f9:57:b5, 2085-97-32 00:14:00:2044,0.015,0.006,0.999,0,1.099,0,-0.264,-0.654,-114.033
 14:37:01.938,eb:33:2e:f9:57:b5, 2085-97-31 00:13:00:2043,0.015,0.007,0.998,0,1.038,0,-0.264,-0.654,-114.033
 14:37:01.938,eb:33:2e:f9:57:b5, 2085-97-29 00:14:00:2043,0.014,0.006,0.999,0.061,1.038,0,-0.264,-0.654,-114.033
 14:37:01.938,eb:33:2e:f9:57:b5, 2085-97-26 00:14:00:2040,0.013,0.007,0.997,0.061,0.916,-0.061,-0.264,-0.654,-114.033
 14:37:01.938,eb:33:2e:f9:57:b5, 2085-97-29 00:15:00:2043,0.013,0.007,0.996,0.122,0.732,-0.061,-0.264,-0.654,-114.033
 14:37:02.000,eb:33:2e:f9:57:b5, 2085-97-28 00:15:00:2039,0.015,0.006,0.997,0.122,0.549,-0.122,-0.264,-0.654,-114.033
 14:37:02.000,eb:33:2e:f9:57:b5, 2085-97-29 00:13:00:2041,0.014,0.007,0.997,0.122,0.366,-0.183,-0.264,-0.654,-114.033
 14:37:02.000,eb:33:2e:f9:57:b5, 2085-97-28 00:15:00:2041,0.014,0.007,0.997,0.061,0.366,-0.183,-0.264,-0.654,-114.033
 14:37:02.000,eb:33:2e:f9:57:b5, 2085-97-30 00:15:00:2042,0.014,0.007,0.997,0,0.122,-0.244,-0.264,-0.659,-114.033
 14:37:02.030,eb:33:2e:f9:57:b5, 2085-97-27 00:15:00:2043,0.015,0.007,0.998,0,0.061,-0.366,-0.264,-0.659,-114.033
 14:37:02.030,eb:33:2e:f9:57:b5, 2085-97-28 00:16:00:2042,0.014,0.007,0.997,0,0,-0.366,-0.264,-0.659,-114.033
 14:37:02.030,eb:33:2e:f9:57:b5, 2085-97-29 00:16:00:2040,0.014,0.007,0.997,0,-0.183,-0.366,-0.264,-0.659,-114.033
 14:37:02.030,eb:33:2e:f9:57:b5, 2085-97-30 00:14:00:2042,0.014,0.007,0.997,-0.122,-0.366,-0.488,-0.264,-0.659,-114.033
 14:37:02.058,eb:33:2e:f9:57:b5, 2085-97-26 00:13:00:2041,0.013,0.007,0.997,-0.061,-0.366,-0.488,-0.264,-0.659,-114.033
 14:37:02.058,eb:33:2e:f9:57:b5, 2085-97-27 00:14:00:2042,0.014,0.007,0.997,-0.122,-0.671,-0.549,-0.264,-0.659,-114.033
 14:37:02.058,eb:33:2e:f9:57:b5, 2085-97-29 00:14:00:2042,0.014,0.007,0.997,-0.061,-0.977,-0.671,-0.264,-0.659,-114.033
 14:37:02.058,eb:33:2e:f9:57:b5, 2085-97-31 00:13:00:2045,0.016,0.007,0.998,-0.061,-1.16,-0.732,-0.264,-0.665,-114.033
 14:37:02.119,eb:33:2e:f9:57:b5, 2085-97-29 00:13:00:2042,0.015,0.007,0.998,-0.122,-1.16,-0.671,-0.264,-0.665,-114.033
 14:37:02.119,eb:33:2e:f9:57:b5, 2085-97-29 00:14:00:2042,0.014,0.006,0.997,-0.122,-1.343,-0.61,-0.264,-0.665,-114.033
 14:37:02.119,eb:33:2e:f9:57:b5, 2085-113-58 00:171:220:-1605,0.015,0.007,0.997,-0.061,-1.587,-0.732,-0.264,-0.665,-114.033
 14:37:02.119,eb:33:2e:f9:57:b5, 2085-97-30 00:16:00:2042,0.015,0.007,0.997,-0.061,-1.77,-0.854,-0.264,-0.665,-114.033
 14:37:02.119,eb:33:2e:f9:57:b5, 2085-97-31 00:12:00:2041,0.017,0.008,0.997,0,-2.258,-1.099,-0.264,-0.665,-114.033
 14:37:02.149,eb:33:2e:f9:57:b5, 2085-97-33 00:11:00:2041,0.016,0.006,0.999,0,-2.258,-0.977,-0.264,-0.665,-114.033
 14:37:02.149,eb:33:2e:f9:57:b5, 2085-97-34 00:13:00:2042,0.017,0.007,0.997,0,-2.502,-0.977,-0.264,-0.665,-114.033
 14:37:02.149,eb:33:2e:f9:57:b5, 2085-97-36 00:15:00:2044,0.019,0.007,0.998,0,-2.686,-0.977,-0.264,-0.665,-114.033
 14:37:02.149,eb:33:2e:f9:57:b5, 2085-97-40 00:11:00:2045,0.02,0.006,0.999,0,-2.563,-0.854,-0.264,-0.665,-114.033
 14:37:02.210,eb:33:2e:f9:57:b5, 2085-97-40 00:13:00:2043,0.019,0.006,0.999,0,-2.258,-0.671,-0.264,-0.665,-114.033
 14:37:02.210,eb:33:2e:f9:57:b5, 2085-97-42 00:13:00:2045,0.021,0.006,0.998,-0.122,-2.075,-0.427,-0.264,-0.665,-114.033
 14:37:02.210,eb:33:2e:f9:57:b5, 2085-97-42 00:12:00:2045,0.019,0.007,1,-0.183,-1.831,-0.183,-0.264,-0.67,-114.033
 14:37:02.210,eb:33:2e:f9:57:b5, 2085-97-37 00:13:00:2039,0.018,0.007,0.997,-0.122,-1.709,-0.305,-0.264,-0.67,-114.033
 14:37:02.239,eb:33:2e:f9:57:b5, 2085-97-38 00:12:00:2042,0.018,0.007,0.996,-0.122,-2.136,-0.305,-0.264,-0.67,-114.033
 14:37:02.239,eb:33:2e:f9:57:b5, 2085-97-34 00:15:00:2037,0.018,0.007,0.997,-0.122,-2.319,-0.305,-0.264,-0.67,-114.033
 14:37:02.241,eb:33:2e:f9:57:b5, 2085-97-39 00:14:00:2041,0.021,0.007,0.995,-0.061,-2.93,-0.488,-0.264,-0.67,-114.033
 14:37:02.241,eb:33:2e:f9:57:b5, 2085-97-41 00:16:00:2039,0.021,0.008,0.997,-0.061,-3.235,-0.671,-0.264,-0.703,-114.044
 14:37:02.268,eb:33:2e:f9:57:b5, 2085-97-46 00:15:00:2044,0.022,0.007,0.997,-0.061,-3.54,-0.732,-0.264,-0.736,-114.049
 14:37:02.268,eb:33:2e:f9:57:b5, 2085-97-48 00:14:00:2044,0.022,0.006,0.999,-0.061,-3.54,-0.732,-0.264,-0.769,-114.055
 14:37:02.268,eb:33:2e:f9:57:b5, 2085-97-47 00:13:00:2042,0.023,0.006,0.997,-0.061,-3.54,-0.61,-0.264,-0.802,-114.066
 14:37:02.268,eb:33:2e:f9:57:b5, 2085-97-51 00:13:00:2043,0.024,0.007,0.997,-0.061,-3.54,-0.549,-0.264,-0.84,-114.071
 14:37:02.299,eb:33:2e:f9:57:b5, 2085-97-51 00:14:00:2043,0.025,0.008,0.998,-0.183,-3.479,-0.549,-0.264,-0.873,-114.077
 14:37:02.299,eb:33:2e:f9:57:b5, 2085-97-50 00:13:00:2043,0.025,0.006,0.998,-0.122,-3.418,-0.488,-0.269,-0.906,-114.082
 14:37:02.299,eb:33:2e:f9:57:b5, 2085-97-56 00:11:00:2046,0.027,0.005,0.998,-0.183,-3.357,-0.366,-0.269,-0.939,-114.082
 14:37:02.299,eb:33:2e:f9:57:b5, 2085-97-57 00:13:00:2045,0.027,0.005,0.999,-0.122,-3.052,-0.244,-0.269,-0.972,-114.088
 14:37:02.359,eb:33:2e:f9:57:b5, 2085-97-56 00:13:00:2042,0.026,0.006,0.998,-0.122,-2.808,-0.183,-0.269,-1,-114.088
 14:37:02.359,eb:33:2e:f9:57:b5, 2085-97-54 00:14:00:2040,0.024,0.006,0.996,-0.122,-2.808,-0.183,-0.275,-1.027,-114.093
 14:37:02.359,eb:33:2e:f9:57:b5, 2085-97-50 00:13:00:2034,0.023,0.006,0.994,-0.122,-3.296,-0.305,-0.275,-1.055,-114.093
 14:37:02.359,eb:33:2e:f9:57:b5, 2085-97-51 00:15:00:2036,0.025,0.008,0.993,-0.183,-4.333,-0.427,-0.275,-1.093,-114.099
 14:37:02.389,eb:33:2e:f9:57:b5, 2085-97-54 00:13:00:2037,0.028,0.006,0.994,-0.061,-5.127,-0.549,-0.275,-1.137,-114.104
 14:37:02.389,eb:33:2e:f9:57:b5, 2085-97-59 00:12:00:2041,0.031,0.006,0.995,0,-5.615,-0.61,-0.275,-1.192,-114.109
 14:37:02.389,eb:33:2e:f9:57:b5, 2085-97-66 00:13:00:2045,0.033,0.006,0.998,0,-5.676,-0.61,-0.275,-1.247,-114.115
 14:37:02.389,eb:33:2e:f9:57:b5, 2085-97-71 00:12:00:2048,0.035,0.006,0.999,0,-5.432,-0.488,-0.275,-1.302,-114.12
 14:37:02.421,eb:33:2e:f9:57:b5, 2085-97-73 00:13:00:2045,0.036,0.006,0.999,0,-4.822,-0.244,-0.275,-1.351,-114.12
 14:37:02.421,eb:33:2e:f9:57:b5, 2085-97-71 00:14:00:2043,0.034,0.006,0.998,-0.061,-4.272,-0.244,-0.275,-1.395,-114.12
 14:37:02.421,eb:33:2e:f9:57:b5, 2085-97-73 00:10:00:2044,0.036,0.006,0.997,0,-4.15,-0.244,-0.275,-1.439,-114.126
 14:37:02.421,eb:33:2e:f9:57:b5, 2085-97-76 00:11:00:2045,0.038,0.005,0.998,-0.061,-3.845,-0.122,-0.275,-1.478,-114.126
 14:37:02.479,eb:33:2e:f9:57:b5, 2085-97-76 00:12:00:2045,0.038,0.005,0.999,0,-3.479,0,-0.275,-1.511,-114.126
 14:37:02.479,eb:33:2e:f9:57:b5, 2085-97-77 00:12:00:2044,0.039,0.006,0.999,0,-3.052,0.061,-0.275,-1.544,-114.126
 14:37:02.479,eb:33:2e:f9:57:b5, 2085-97-78 00:12:00:2045,0.039,0.007,0.999,0,-2.686,0.183,-0.275,-1.571,-114.12
 14:37:02.479,eb:33:2e:f9:57:b5, 2085-97-79 00:13:00:2043,0.039,0.005,0.999,0,-2.38,0.183,-0.275,-1.599,-114.12
 14:37:02.508,eb:33:2e:f9:57:b5, 2085-97-80 00:14:00:2044,0.039,0.006,0.999,-0.061,-2.075,0.244,-0.275,-1.62,-114.115
 14:37:02.508,eb:33:2e:f9:57:b5, 2085-97-78 00:13:00:2042,0.039,0.007,0.998,-0.122,-1.77,0.305,-0.28,-1.637,-114.109
 14:37:02.508,eb:33:2e:f9:57:b5, 2085-97-80 00:12:00:2042,0.04,0.006,0.997,-0.122,-1.831,0.366,-0.28,-1.653,-114.109
 14:37:02.508,eb:33:2e:f9:57:b5, 2085-97-79 00:12:00:2041,0.04,0.007,0.998,-0.061,-1.648,0.366,-0.28,-1.67,-114.104
 14:37:02.539,eb:33:2e:f9:57:b5, 2085-97-84 00:13:00:2043,0.04,0.006,0.997,-0.122,-1.465,0.366,-0.28,-1.686,-114.099
 14:37:02.539,eb:33:2e:f9:57:b5, 2085-97-81 00:13:00:2043,0.04,0.006,0.999,-0.061,-1.16,0.366,-0.28,-1.697,-114.093
 14:37:02.539,eb:33:2e:f9:57:b5, 2085-97-82 00:12:00:2043,0.042,0.006,0.998,-0.122,-0.977,0.366,-0.286,-1.708,-114.088
 14:37:02.539,eb:33:2e:f9:57:b5, 2085-97-85 00:12:00:2043,0.041,0.006,0.998,-0.122,-0.671,0.366,-0.286,-1.714,-114.082
 14:37:02.600,eb:33:2e:f9:57:b5, 2085-97-81 00:13:00:2040,0.039,0.006,0.997,-0.122,-0.305,0.305,-0.286,-1.719,-114.077
 14:37:02.600,eb:33:2e:f9:57:b5, 2085-97-81 00:12:00:2043,0.04,0.006,0.997,0,-0.427,0.305,-0.286,-1.719,-114.071
 14:37:02.600,eb:33:2e:f9:57:b5, 2085-97-82 00:13:00:2043,0.04,0.006,0.998,0,-0.366,0.183,-0.286,-1.725,-114.071
 14:37:02.600,eb:33:2e:f9:57:b5, 2085-97-85 00:13:00:2042,0.041,0.006,0.997,0,-0.305,0.183,-0.286,-1.725,-114.066
 14:37:02.630,eb:33:2e:f9:57:b5, 2085-97-84 00:13:00:2044,0.041,0.006,0.998,0,0,0.061,-0.286,-1.725,-114.066
 14:37:02.630,eb:33:2e:f9:57:b5, 2085-97-86 00:08:00:2048,0.043,0.005,0.998,0,0.183,0.244,-0.286,-1.725,-114.06
 14:37:02.630,eb:33:2e:f9:57:b5, 2085-97-86 00:11:00:2044,0.042,0.005,1,0,0.793,0.427,-0.286,-1.719,-114.055
 14:37:02.630,eb:33:2e:f9:57:b5, 2085-97-84 00:14:00:2043,0.04,0.007,0.999,0,1.221,0.427,-0.286,-1.703,-114.049
 14:37:02.660,eb:33:2e:f9:57:b5, 2085-97-80 00:13:00:2041,0.038,0.007,0.997,0,1.526,0.427,-0.286,-1.692,-114.044
 14:37:02.660,eb:33:2e:f9:57:b5, 2085-97-78 00:14:00:2041,0.039,0.006,0.997,-0.061,1.526,0.366,-0.286,-1.675,-114.038
 14:37:02.660,eb:33:2e:f9:57:b5, 2085-97-78 00:14:00:2041,0.039,0.006,0.998,-0.061,1.465,0.305,-0.286,-1.681,-114.038
 14:37:02.660,eb:33:2e:f9:57:b5, 2085-97-79 00:14:00:2040,0.038,0.006,0.997,-0.122,1.465,0.244,-0.286,-1.681,-114.038
 14:37:02.719,eb:33:2e:f9:57:b5, 2085-97-77 00:13:00:2040,0.037,0.006,0.997,-0.122,1.404,0.183,-0.286,-1.686,-114.038
 14:37:02.719,eb:33:2e:f9:57:b5, 2085-113-58 00:37:219:-1485,0.037,0.006,0.995,-0.122,1.282,0.183,-0.286,-1.686,-114.033
 14:37:02.719,eb:33:2e:f9:57:b5, 2085-97-78 00:13:00:2041,0.038,0.007,0.997,-0.183,1.221,0.183,-0.286,-1.686,-114.033
 14:37:02.719,eb:33:2e:f9:57:b5, 2085-97-75 00:12:00:2041,0.037,0.006,0.997,-0.183,1.282,0.305,-0.286,-1.692,-114.033
 14:37:02.779,eb:33:2e:f9:57:b5, 2085-97-75 00:11:00:2039,0.038,0.006,0.997,-0.183,1.099,0.305,-0.286,-1.692,-114.033
 14:37:02.779,eb:33:2e:f9:57:b5, 2085-97-74 00:12:00:2042,0.036,0.005,0.996,-0.122,1.038,0.244,-0.286,-1.697,-114.033
 14:37:02.779,eb:33:2e:f9:57:b5, 2085-97-75 00:13:00:2040,0.038,0.007,0.997,-0.122,0.916,0.183,-0.286,-1.697,-114.033
 14:37:02.779,eb:33:2e:f9:57:b5, 2085-97-74 00:12:00:2040,0.036,0.006,0.997,-0.061,0.854,0.183,-0.286,-1.697,-114.033
 14:37:02.781,eb:33:2e:f9:57:b5, 2085-97-75 00:12:00:2042,0.036,0.006,0.997,-0.061,0.793,0.183,-0.286,-1.697,-114.033
 14:37:02.781,eb:33:2e:f9:57:b5, 2085-97-74 00:12:00:2042,0.037,0.006,0.997,-0.061,0.854,0.183,-0.286,-1.703,-114.033
 14:37:02.781,eb:33:2e:f9:57:b5, 2085-97-76 00:11:00:2042,0.037,0.005,0.997,0,0.793,0.244,-0.286,-1.703,-114.027
 14:37:02.781,eb:33:2e:f9:57:b5, 2085-97-74 00:12:00:2042,0.036,0.005,0.998,-0.061,0.916,0.244,-0.286,-1.708,-114.027
 14:37:02.838,eb:33:2e:f9:57:b5, 2085-97-74 00:11:00:2043,0.037,0.006,0.997,0,1.038,0.305,-0.286,-1.708,-114.027
 14:37:02.838,eb:33:2e:f9:57:b5, 2085-97-72 00:12:00:2041,0.035,0.006,0.998,0,1.038,0.244,-0.286,-1.708,-114.027
 14:37:02.838,eb:33:2e:f9:57:b5, 2085-97-72 00:12:00:2043,0.035,0.006,0.997,0,0.977,0.366,-0.286,-1.708,-114.027
 14:37:02.838,eb:33:2e:f9:57:b5, 2085-97-72 00:12:00:2042,0.035,0.006,0.997,0,0.916,0.305,-0.286,-1.714,-114.027
 14:37:02.868,eb:33:2e:f9:57:b5, 2085-97-68 00:14:00:2040,0.034,0.006,0.997,0,0.916,0.244,-0.286,-1.714,-114.027
 14:37:02.868,eb:33:2e:f9:57:b5, 2085-97-69 00:12:00:2040,0.034,0.006,0.996,0,0.854,0.244,-0.286,-1.714,-114.027
 14:37:02.868,eb:33:2e:f9:57:b5, 2085-97-72 00:13:00:2040,0.035,0.005,0.996,0.061,0.671,0.122,-0.286,-1.714,-114.022
 14:37:02.869,eb:33:2e:f9:57:b5, 2085-97-71 00:12:00:2041,0.035,0.006,0.997,0,0.61,0.183,-0.286,-1.719,-114.022
 14:37:02.898,eb:33:2e:f9:57:b5, 2085-97-71 00:14:00:2043,0.034,0.007,0.997,0,0.61,0.061,-0.286,-1.719,-114.022
 14:37:02.898,eb:33:2e:f9:57:b5, 2085-97-74 00:13:00:2046,0.035,0.006,0.998,0.061,0.671,0.061,-0.286,-1.719,-114.022
 14:37:02.898,eb:33:2e:f9:57:b5, 2085-97-71 00:12:00:2043,0.034,0.006,0.998,0.061,0.793,-0.061,-0.286,-1.719,-114.022
 14:37:02.899,eb:33:2e:f9:57:b5, 2085-97-71 00:15:00:2043,0.035,0.005,0.998,0.061,0.793,0,-0.286,-1.719,-114.022
 14:37:02.959,eb:33:2e:f9:57:b5, 2085-97-70 00:14:00:2042,0.034,0.006,0.998,0.061,0.977,-0.122,-0.286,-1.719,-114.022
 14:37:02.959,eb:33:2e:f9:57:b5, 2085-97-68 00:13:00:2041,0.033,0.007,0.997,0.061,1.099,-0.122,-0.286,-1.725,-114.022
 14:37:02.959,eb:33:2e:f9:57:b5, 2085-97-68 00:13:00:2041,0.033,0.006,0.997,0.061,1.038,-0.122,-0.286,-1.725,-114.016
 14:37:02.959,eb:33:2e:f9:57:b5, 2085-97-70 00:12:00:2042,0.033,0.006,0.997,0,1.038,-0.122,-0.286,-1.725,-114.016
 14:37:02.989,eb:33:2e:f9:57:b5, 2085-97-68 00:12:00:2040,0.032,0.007,0.997,0.061,1.16,-0.122,-0.286,-1.725,-114.016
 14:37:02.989,eb:33:2e:f9:57:b5, 2085-97-65 00:11:00:2040,0.033,0.006,0.996,0.122,1.16,-0.183,-0.286,-1.725,-114.016
 14:37:02.989,eb:33:2e:f9:57:b5, 2085-97-67 00:11:00:2041,0.033,0.006,0.997,0.122,1.038,-0.183,-0.286,-1.725,-114.016
 14:37:02.989,eb:33:2e:f9:57:b5, 2085-97-68 00:12:00:2041,0.033,0.005,0.997,0.183,0.977,-0.183,-0.286,-1.725,-114.016
 14:37:03.018,eb:33:2e:f9:57:b5, 2085-97-68 00:12:00:2043,0.033,0.006,0.997,0.122,1.038,-0.244,-0.286,-1.725,-114.016
 14:37:03.018,eb:33:2e:f9:57:b5, 2085-97-67 00:13:00:2041,0.032,0.006,0.998,0.122,1.038,-0.305,-0.286,-1.73,-114.016
 14:37:03.018,eb:33:2e:f9:57:b5, 2085-97-69 00:12:00:2043,0.033,0.006,0.997,0.061,1.038,-0.305,-0.286,-1.73,-114.011
 14:37:03.018,eb:33:2e:f9:57:b5, 2085-97-66 00:12:00:2042,0.032,0.006,0.998,0.122,1.221,-0.366,-0.286,-1.73,-114.011
 14:37:03.079,eb:33:2e:f9:57:b5, 2085-97-61 00:13:00:2039,0.03,0.006,0.997,0.122,1.221,-0.427,-0.286,-1.73,-114.011
 14:37:03.079,eb:33:2e:f9:57:b5, 2085-97-63 00:11:00:2041,0.032,0.006,0.996,0.244,1.099,-0.488,-0.286,-1.73,-114.011
 14:37:03.079,eb:33:2e:f9:57:b5, 2085-97-64 00:13:00:2043,0.031,0.006,0.998,0.183,1.099,-0.427,-0.286,-1.73,-114.011
 14:37:03.079,eb:33:2e:f9:57:b5, 2085-97-63 00:13:00:2043,0.032,0.007,0.998,0.244,1.038,-0.427,-0.286,-1.73,-114.011
 14:37:03.108,eb:33:2e:f9:57:b5, 2085-97-65 00:14:00:2046,0.032,0.006,0.998,0.183,1.099,-0.366,-0.286,-1.73,-114.011
 14:37:03.108,eb:33:2e:f9:57:b5, 2085-97-63 00:12:00:2044,0.03,0.006,0.999,0.244,1.282,-0.305,-0.286,-1.73,-114.011
 14:37:03.108,eb:33:2e:f9:57:b5, 2085-97-63 00:13:00:2046,0.031,0.006,0.999,0.183,1.221,-0.305,-0.286,-1.73,-114.011
 14:37:03.108,eb:33:2e:f9:57:b5, 2085-97-60 00:13:00:2042,0.029,0.007,0.998,0.183,1.404,-0.305,-0.286,-1.736,-114.011
 14:37:03.139,eb:33:2e:f9:57:b5, 2085-97-60 00:14:00:2041,0.029,0.008,0.997,0.183,1.343,-0.305,-0.286,-1.736,-114.005
 14:37:03.139,eb:33:2e:f9:57:b5, 2085-97-58 00:13:00:2040,0.029,0.006,0.996,0.122,1.16,-0.366,-0.286,-1.736,-114.005
 14:37:03.139,eb:33:2e:f9:57:b5, 2085-97-58 00:13:00:2041,0.029,0.007,0.997,0.183,1.038,-0.305,-0.286,-1.736,-114.005
 14:37:03.139,eb:33:2e:f9:57:b5, 2085-97-59 00:13:00:2044,0.03,0.007,0.996,0.183,0.916,-0.305,-0.286,-1.736,-114.005
 14:37:03.200,eb:33:2e:f9:57:b5, 2085-97-60 00:15:00:2044,0.029,0.006,0.999,0.244,0.977,-0.244,-0.286,-1.736,-114.005
 14:37:03.200,eb:33:2e:f9:57:b5, 2085-97-60 00:15:00:2044,0.028,0.008,0.998,0.183,1.099,-0.183,-0.286,-1.736,-114.005
 14:37:03.200,eb:33:2e:f9:57:b5, 2085-97-59 00:14:00:2044,0.029,0.007,0.998,0.122,1.221,-0.183,-0.286,-1.736,-114.005
 14:37:03.200,eb:33:2e:f9:57:b5, 2085-97-58 00:15:00:2043,0.028,0.007,0.998,0.122,1.221,-0.122,-0.286,-1.736,-114.005
 14:37:03.230,eb:33:2e:f9:57:b5, 2085-97-58 00:13:00:2042,0.028,0.007,0.998,0.122,1.343,-0.122,-0.286,-1.736,-114
 14:37:03.230,eb:33:2e:f9:57:b5, 2085-97-56 00:14:00:2044,0.029,0.007,0.997,0.061,1.282,-0.061,-0.286,-1.736,-114
 14:37:03.230,eb:33:2e:f9:57:b5, 2085-97-56 00:14:00:2040,0.027,0.007,0.998,0.061,1.526,0,-0.286,-1.736,-114
 14:37:03.230,eb:33:2e:f9:57:b5, 2085-97-57 00:14:00:2042,0.028,0.007,0.997,0.122,1.343,0,-0.286,-1.736,-114
 14:37:03.319,eb:33:2e:f9:57:b5, 2085-97-57 00:14:00:2045,0.028,0.006,0.998,0.122,1.404,0,-0.286,-1.736,-114
 14:37:03.319,eb:33:2e:f9:57:b5, 2085-97-59 00:14:00:2044,0.028,0.006,0.998,0.122,1.526,0,-0.286,-1.736,-114
 14:37:03.319,eb:33:2e:f9:57:b5, 2085-97-56 00:15:00:2045,0.027,0.007,0.999,0.183,1.709,0,-0.286,-1.736,-114
 14:37:03.319,eb:33:2e:f9:57:b5, 2085-97-52 00:13:00:2042,0.025,0.006,0.998,0.183,1.892,0.061,-0.286,-1.736,-114
 14:37:03.349,eb:33:2e:f9:57:b5, 2085-97-51 00:15:00:2041,0.024,0.007,0.997,0.183,1.709,0.122,-0.286,-1.736,-113.994
 14:37:03.349,eb:33:2e:f9:57:b5, 2085-97-50 00:16:00:2039,0.024,0.008,0.996,0.122,1.343,0.122,-0.286,-1.736,-113.994
 14:37:03.349,eb:33:2e:f9:57:b5, 2085-97-50 00:14:00:2041,0.025,0.007,0.996,0.122,1.038,0.122,-0.286,-1.736,-113.994
 14:37:03.349,eb:33:2e:f9:57:b5, 2085-97-47 00:14:00:2040,0.024,0.007,0.996,0.122,0.671,0.244,-0.286,-1.736,-113.994
 14:37:03.351,eb:33:2e:f9:57:b5, 2085-97-51 00:16:00:2040,0.025,0.007,0.996,0.061,0.427,0.183,-0.286,-1.736,-113.994
 14:37:03.351,eb:33:2e:f9:57:b5, 2085-97-50 00:15:00:2041,0.024,0.007,0.997,0.122,0.427,0.122,-0.286,-1.736,-113.994
 14:37:03.351,eb:33:2e:f9:57:b5, 2085-97-50 00:15:00:2042,0.025,0.007,0.997,0.122,0.244,0.061,-0.286,-1.736,-113.994
 14:37:03.351,eb:33:2e:f9:57:b5, 2085-97-53 00:16:00:2043,0.025,0.008,0.997,0.122,0.183,0.061,-0.286,-1.736,-113.994
 14:37:03.410,eb:33:2e:f9:57:b5, 2085-97-49 00:17:00:2041,0.026,0.007,0.998,0.122,0.244,0.061,-0.286,-1.736,-113.989
 14:37:03.410,eb:33:2e:f9:57:b5, 2085-97-52 00:15:00:2042,0.025,0.008,0.998,0.122,0.366,0,-0.286,-1.736,-113.989
 14:37:03.410,eb:33:2e:f9:57:b5, 2085-97-51 00:14:00:2043,0.025,0.008,0.998,0.061,0.427,0.061,-0.286,-1.736,-113.989
 14:37:03.410,eb:33:2e:f9:57:b5, 2085-97-51 00:16:00:2043,0.025,0.008,0.998,0.183,0.488,0.122,-0.286,-1.736,-113.989
 14:37:03.410,eb:33:2e:f9:57:b5, 2085-97-50 00:15:00:2043,0.024,0.007,0.998,0.061,0.488,0.122,-0.286,-1.736,-113.989
 14:37:03.439,eb:33:2e:f9:57:b5, 2085-113-81 00:183:69:-393,0.024,0.008,0.998,0.061,0.427,0.305,-0.286,-1.736,-113.989
 14:37:03.439,eb:33:2e:f9:57:b5, 2085-97-48 00:15:00:2042,0.024,0.007,0.997,0,0.366,0.244,-0.286,-1.736,-113.989
 14:37:03.439,eb:33:2e:f9:57:b5, 2085-97-48 00:16:00:2041,0.024,0.007,0.996,0,0.183,0.244,-0.286,-1.736,-113.989
 14:37:03.439,eb:33:2e:f9:57:b5, 2085-97-51 00:16:00:2042,0.025,0.008,0.996,0.061,-0.061,0.244,-0.286,-1.736,-113.989
 14:37:03.471,eb:33:2e:f9:57:b5, 2085-97-50 00:16:00:2042,0.023,0.008,0.998,0.061,0,0.122,-0.286,-1.73,-113.983
 14:37:03.471,eb:33:2e:f9:57:b5, 2085-97-49 00:16:00:2040,0.025,0.008,0.996,0,-0.305,0.244,-0.286,-1.73,-113.983
 14:37:03.471,eb:33:2e:f9:57:b5, 2085-97-50 00:16:00:2042,0.024,0.008,0.997,0,-0.427,0.244,-0.286,-1.73,-113.983
 14:37:03.471,eb:33:2e:f9:57:b5, 2085-97-50 00:17:00:2043,0.025,0.007,0.998,0,-0.488,0.244,-0.286,-1.73,-113.983
 14:37:03.530,eb:33:2e:f9:57:b5, 2085-97-52 00:15:00:2043,0.025,0.008,0.997,0,-0.488,0.183,-0.286,-1.73,-113.983
 14:37:03.530,eb:33:2e:f9:57:b5, 2085-97-51 00:16:00:2043,0.025,0.008,0.998,-0.061,-0.305,0.183,-0.286,-1.73,-113.983
 14:37:03.530,eb:33:2e:f9:57:b5, 2085-97-53 00:15:00:2043,0.025,0.008,0.998,-0.061,-0.244,0.244,-0.286,-1.73,-113.983
 14:37:03.530,eb:33:2e:f9:57:b5, 2085-97-50 00:15:00:2042,0.024,0.007,0.997,0,-0.244,0.183,-0.286,-1.73,-113.983
 14:37:03.559,eb:33:2e:f9:57:b5, 2085-97-52 00:15:00:2044,0.025,0.008,0.998,0,-0.244,0.244,-0.286,-1.73,-113.983
 14:37:03.559,eb:33:2e:f9:57:b5, 2085-97-49 00:17:00:2042,0.024,0.008,0.997,-0.122,-0.366,0.244,-0.286,-1.73,-113.978
 14:37:03.559,eb:33:2e:f9:57:b5, 2085-97-49 00:15:00:2040,0.024,0.008,0.997,-0.061,-0.488,0.183,-0.286,-1.73,-113.978
 14:37:03.559,eb:33:2e:f9:57:b5, 2085-97-49 00:14:00:2040,0.024,0.008,0.996,-0.061,-0.793,0.183,-0.286,-1.73,-113.978
 14:37:03.590,eb:33:2e:f9:57:b5, 2085-97-50 00:15:00:2041,0.025,0.008,0.997,0,-0.916,0.122,-0.28,-1.725,-113.978
 14:37:03.590,eb:33:2e:f9:57:b5, 2085-97-50 00:14:00:2041,0.025,0.007,0.997,0,-0.977,0.122,-0.28,-1.725,-113.978
 14:37:03.590,eb:33:2e:f9:57:b5, 2085-97-51 00:15:00:2040,0.026,0.007,0.997,0,-1.038,0.061,-0.28,-1.725,-113.978
 14:37:03.590,eb:33:2e:f9:57:b5, 2085-97-54 00:13:00:2043,0.027,0.007,0.997,0,-1.099,0.061,-0.28,-1.725,-113.978
 14:37:03.649,eb:33:2e:f9:57:b5, 2085-97-56 00:15:00:2043,0.027,0.008,0.998,0,-0.977,0.122,-0.28,-1.725,-113.978
 14:37:03.649,eb:33:2e:f9:57:b5, 2085-97-54 00:14:00:2042,0.027,0.007,0.998,0,-0.854,0.061,-0.28,-1.725,-113.972
 14:37:03.649,eb:33:2e:f9:57:b5, 2085-97-56 00:17:00:2043,0.027,0.007,0.998,0,-0.732,0.122,-0.28,-1.725,-113.972
 14:37:03.649,eb:33:2e:f9:57:b5, 2085-97-55 00:16:00:2044,0.027,0.007,0.998,0,-0.549,0.122,-0.28,-1.725,-113.972
 14:37:03.678,eb:33:2e:f9:57:b5, 2085-97-56 00:15:00:2043,0.027,0.007,0.998,0,-0.488,0.122,-0.28,-1.719,-113.972
 14:37:03.678,eb:33:2e:f9:57:b5, 2085-97-58 00:16:00:2044,0.027,0.007,0.997,0,-0.366,0.061,-0.28,-1.719,-113.972
 14:37:03.678,eb:33:2e:f9:57:b5, 2085-97-53 00:14:00:2044,0.027,0.007,0.998,0.122,0,0.061,-0.28,-1.719,-113.972
 14:37:03.678,eb:33:2e:f9:57:b5, 2085-97-56 00:15:00:2045,0.027,0.007,0.999,0.122,0,0.122,-0.28,-1.719,-113.972
 14:37:03.708,eb:33:2e:f9:57:b5, 2085-97-56 00:16:00:2044,0.028,0.007,0.998,0.122,0.183,0.183,-0.28,-1.719,-113.972
 14:37:03.708,eb:33:2e:f9:57:b5, 2085-97-54 00:17:00:2042,0.027,0.007,0.998,0.122,0.244,0.183,-0.28,-1.719,-113.967
 14:37:03.708,eb:33:2e:f9:57:b5, 2085-97-54 00:15:00:2043,0.026,0.008,0.998,0.122,0.122,0.122,-0.28,-1.719,-113.967
 14:37:03.708,eb:33:2e:f9:57:b5, 2085-97-54 00:14:00:2043,0.026,0.007,0.998,0.183,0.183,0.183,-0.28,-1.719,-113.967
 14:37:03.769,eb:33:2e:f9:57:b5, 2085-97-54 00:15:00:2042,0.026,0.007,0.998,0.244,0.183,0.183,-0.28,-1.714,-113.967
 14:37:03.769,eb:33:2e:f9:57:b5, 2085-97-54 00:15:00:2041,0.026,0.008,0.998,0.183,0.305,0.183,-0.28,-1.714,-113.967
 14:37:03.769,eb:33:2e:f9:57:b5, 2085-97-56 00:15:00:2044,0.027,0.007,0.998,0.244,0.305,0.122,-0.28,-1.714,-113.967
 14:37:03.769,eb:33:2e:f9:57:b5, 2085-97-52 00:15:00:2041,0.025,0.008,0.998,0.244,0.427,0.183,-0.28,-1.714,-113.967
 14:37:03.798,eb:33:2e:f9:57:b5, 2085-97-52 00:16:00:2042,0.026,0.007,0.997,0.305,0.244,0.122,-0.28,-1.714,-113.967
 14:37:03.798,eb:33:2e:f9:57:b5, 2085-97-52 00:15:00:2041,0.026,0.008,0.997,0.305,0.061,0.122,-0.28,-1.714,-113.961
 14:37:03.798,eb:33:2e:f9:57:b5, 2085-97-53 00:17:00:2040,0.026,0.008,0.997,0.305,0,0,-0.28,-1.714,-113.961
 14:37:03.798,eb:33:2e:f9:57:b5, 2085-97-54 00:18:00:2042,0.026,0.008,0.997,0.305,-0.183,0.061,-0.28,-1.714,-113.961
 14:37:03.829,eb:33:2e:f9:57:b5, 2085-97-52 00:15:00:2039,0.025,0.007,0.997,0.305,-0.122,0.061,-0.28,-1.708,-113.961
 14:37:03.829,eb:33:2e:f9:57:b5, 2085-97-52 00:16:00:2041,0.026,0.008,0.996,0.366,-0.427,0,-0.28,-1.708,-113.961
 14:37:03.829,eb:33:2e:f9:57:b5, 2085-97-53 00:16:00:2041,0.026,0.008,0.996,0.305,-0.549,0.061,-0.28,-1.708,-113.961
 14:37:03.829,eb:33:2e:f9:57:b5, 2085-97-55 00:16:00:2043,0.027,0.008,0.997,0.244,-0.732,0.122,-0.28,-1.708,-113.961
 14:37:03.889,eb:33:2e:f9:57:b5, 2085-97-55 00:18:00:2042,0.027,0.008,0.997,0.305,-0.793,0.183,-0.28,-1.708,-113.961
 14:37:03.889,eb:33:2e:f9:57:b5, 2085-97-54 00:17:00:2042,0.026,0.008,0.999,0.183,-0.732,0.244,-0.28,-1.708,-113.956
 14:37:03.889,eb:33:2e:f9:57:b5, 2085-97-54 00:20:00:2044,0.026,0.009,0.998,0.183,-0.732,0.183,-0.28,-1.703,-113.956
 14:37:03.889,eb:33:2e:f9:57:b5, 2085-97-53 00:19:00:2042,0.025,0.009,0.997,0.183,-0.854,0.183,-0.28,-1.703,-113.956
 14:37:03.918,eb:33:2e:f9:57:b5, 2085-97-54 00:17:00:2042,0.026,0.009,0.997,0.122,-1.038,0.122,-0.28,-1.703,-113.956
 14:37:03.918,eb:33:2e:f9:57:b5, 2085-97-54 00:19:00:2041,0.028,0.009,0.997,0.061,-1.221,0.183,-0.28,-1.703,-113.956
 14:37:03.918,eb:33:2e:f9:57:b5, 2085-97-57 00:18:00:2041,0.028,0.009,0.997,0,-1.16,0.244,-0.28,-1.703,-113.956
 14:37:03.918,eb:33:2e:f9:57:b5, 2085-97-57 00:18:00:2040,0.028,0.009,0.997,0,-1.099,0.183,-0.28,-1.703,-113.956
 14:37:03.949,eb:33:2e:f9:57:b5, 2085-97-56 00:17:00:2041,0.027,0.009,0.997,0.061,-1.038,0.122,-0.28,-1.703,-113.956
 14:37:03.949,eb:33:2e:f9:57:b5, 2085-97-57 00:18:00:2044,0.028,0.009,0.997,0,-1.221,0.061,-0.28,-1.703,-113.956
 14:37:03.949,eb:33:2e:f9:57:b5, 2085-97-57 00:15:00:2041,0.029,0.009,0.997,0.061,-1.221,0.122,-0.275,-1.697,-113.956
 14:37:03.949,eb:33:2e:f9:57:b5, 2085-97-59 00:18:00:2044,0.03,0.008,0.998,0,-1.343,0.061,-0.275,-1.697,-113.95
 14:37:04.009,eb:33:2e:f9:57:b5, 2085-97-60 00:18:00:2043,0.03,0.009,0.998,0,-1.099,0.122,-0.275,-1.697,-113.95
 14:37:04.009,eb:33:2e:f9:57:b5, 2085-97-60 00:19:00:2044,0.03,0.009,0.999,0,-0.854,0.061,-0.275,-1.697,-113.95
 14:37:04.009,eb:33:2e:f9:57:b5, 2085-97-62 00:19:00:2044,0.03,0.009,0.998,0,-0.61,0,-0.275,-1.697,-113.95
 14:37:04.009,eb:33:2e:f9:57:b5, 2085-97-60 00:18:00:2043,0.028,0.009,0.998,0,-0.244,-0.122,-0.275,-1.697,-113.95
 14:37:04.039,eb:33:2e:f9:57:b5, 2085-97-56 00:19:00:2041,0.028,0.01,0.996,0,-0.183,-0.183,-0.275,-1.697,-113.95
 14:37:04.039,eb:33:2e:f9:57:b5, 2085-97-60 00:20:00:2041,0.029,0.009,0.996,0,-0.305,-0.244,-0.275,-1.697,-113.95
 14:37:04.039,eb:33:2e:f9:57:b5, 2085-97-59 00:18:00:2042,0.029,0.009,0.997,0,-0.305,-0.366,-0.275,-1.692,-113.95
 14:37:04.039,eb:33:2e:f9:57:b5, 2085-97-60 00:18:00:2042,0.029,0.009,0.997,0,-0.305,-0.366,-0.275,-1.692,-113.945
 14:37:04.069,eb:33:2e:f9:57:b5, 2085-97-59 00:17:00:2044,0.029,0.009,0.998,0,-0.244,-0.366,-0.275,-1.692,-113.945
 14:37:04.069,eb:33:2e:f9:57:b5, 2085-97-61 00:18:00:2043,0.029,0.008,0.997,0,-0.244,-0.427,-0.275,-1.692,-113.945
 14:37:04.069,eb:33:2e:f9:57:b5, 2085-97-61 00:17:00:2044,0.03,0.008,0.998,0,-0.183,-0.427,-0.275,-1.692,-113.945
 14:37:04.069,eb:33:2e:f9:57:b5, 2085-97-60 00:20:00:2040,0.028,0.009,0.997,0.061,-0.061,-0.488,-0.275,-1.692,-113.945
 14:37:04.130,eb:33:2e:f9:57:b5, 2085-97-58 00:18:00:2039,0.028,0.009,0.996,0.061,-0.183,-0.549,-0.275,-1.692,-113.945
 14:37:04.130,eb:33:2e:f9:57:b5, 2085-113-81 00:194:69:-380,0.028,0.009,0.997,0.061,-0.427,-0.549,-0.275,-1.692,-113.945
 14:37:04.130,eb:33:2e:f9:57:b5, 2085-97-59 00:19:00:2040,0.029,0.009,0.997,0.061,-0.549,-0.488,-0.275,-1.692,-113.945
 14:37:04.130,eb:33:2e:f9:57:b5, 2085-97-60 00:19:00:2040,0.029,0.009,0.996,0.061,-0.732,-0.488,-0.275,-1.686,-113.945
 14:37:04.158,eb:33:2e:f9:57:b5, 2085-97-62 00:19:00:2043,0.03,0.009,0.997,0.061,-0.854,-0.549,-0.275,-1.686,-113.939
 14:37:04.158,eb:33:2e:f9:57:b5, 2085-97-60 00:19:00:2040,0.029,0.01,0.997,0.061,-0.732,-0.671,-0.275,-1.686,-113.939
 14:37:04.158,eb:33:2e:f9:57:b5, 2085-97-60 00:18:00:2040,0.029,0.009,0.996,0.061,-0.977,-0.793,-0.275,-1.686,-113.939
 14:37:04.158,eb:33:2e:f9:57:b5, 2085-97-60 00:18:00:2039,0.03,0.008,0.996,0.122,-1.221,-0.732,-0.275,-1.686,-113.939
 14:37:04.189,eb:33:2e:f9:57:b5, 2085-97-62 00:18:00:2041,0.029,0.009,0.996,0.183,-1.587,-0.793,-0.275,-1.686,-113.939
 14:37:04.189,eb:33:2e:f9:57:b5, 2085-97-62 00:18:00:2040,0.032,0.008,0.996,0.061,-1.77,-0.793,-0.275,-1.686,-113.939
 14:37:04.189,eb:33:2e:f9:57:b5, 2085-97-66 00:20:00:2043,0.031,0.009,0.997,0.122,-1.709,-0.732,-0.275,-1.686,-113.939
 14:37:04.189,eb:33:2e:f9:57:b5, 2085-97-65 00:17:00:2041,0.031,0.01,0.997,0.122,-1.709,-0.854,-0.269,-1.686,-113.939
 14:37:04.248,eb:33:2e:f9:57:b5, 2085-97-62 00:21:00:2040,0.031,0.009,0.996,0.061,-1.587,-0.854,-0.269,-1.686,-113.934
 14:37:04.248,eb:33:2e:f9:57:b5, 2085-97-64 00:20:00:2040,0.032,0.009,0.998,0.122,-1.709,-0.916,-0.269,-1.681,-113.934
 14:37:04.248,eb:33:2e:f9:57:b5, 2085-97-67 00:18:00:2042,0.033,0.009,0.997,0.061,-1.831,-0.977,-0.269,-1.681,-113.934
 14:37:04.248,eb:33:2e:f9:57:b5, 2085-97-66 00:20:00:2040,0.033,0.01,0.997,0.061,-1.831,-0.977,-0.269,-1.681,-113.934
 14:37:04.280,eb:33:2e:f9:57:b5, 2085-97-70 00:20:00:2045,0.032,0.01,0.997,0.061,-1.831,-1.038,-0.269,-1.681,-113.934
 14:37:04.280,eb:33:2e:f9:57:b5, 2085-97-65 00:21:00:2041,0.034,0.01,0.997,0.061,-1.77,-1.038,-0.269,-1.681,-113.934
 14:37:04.280,eb:33:2e:f9:57:b5, 2085-97-68 00:21:00:2041,0.033,0.01,0.997,0.061,-2.014,-1.038,-0.269,-1.681,-113.934
 14:37:04.280,eb:33:2e:f9:57:b5, 2085-97-69 00:20:00:2040,0.034,0.01,0.997,0.061,-2.197,-1.099,-0.269,-1.681,-113.934
 14:37:04.309,eb:33:2e:f9:57:b5, 2085-97-72 00:20:00:2041,0.036,0.01,0.996,0.122,-2.441,-1.099,-0.269,-1.681,-113.934
 14:37:04.309,eb:33:2e:f9:57:b5, 2085-97-72 00:18:00:2042,0.035,0.01,0.996,0.061,-2.502,-1.16,-0.269,-1.681,-113.934
 14:37:04.309,eb:33:2e:f9:57:b5, 2085-97-73 00:18:00:2041,0.036,0.009,0.998,0.061,-2.441,-1.099,-0.269,-1.681,-113.928
 14:37:04.309,eb:33:2e:f9:57:b5, 2085-97-73 00:19:00:2041,0.036,0.009,0.998,0.061,-2.197,-1.099,-0.269,-1.681,-113.928
 14:37:04.370,eb:33:2e:f9:57:b5, 2085-97-77 00:20:00:2043,0.037,0.01,0.997,0.061,-2.136,-1.16,-0.269,-1.681,-113.928
 14:37:04.370,eb:33:2e:f9:57:b5, 2085-97-74 00:21:00:2040,0.035,0.01,0.997,0.061,-2.075,-1.221,-0.269,-1.675,-113.928
 14:37:04.370,eb:33:2e:f9:57:b5, 2085-97-73 00:22:00:2037,0.036,0.01,0.995,0.122,-2.38,-1.282,-0.269,-1.675,-113.928
 14:37:04.370,eb:33:2e:f9:57:b5, 2085-97-75 00:22:00:2038,0.038,0.011,0.995,0.122,-2.747,-1.343,-0.264,-1.686,-113.934
 14:37:04.400,eb:33:2e:f9:57:b5, 2085-97-77 00:19:00:2039,0.038,0.01,0.997,0.122,-3.113,-1.343,-0.264,-1.714,-113.945
 14:37:04.400,eb:33:2e:f9:57:b5, 2085-97-77 00:21:00:2039,0.038,0.01,0.996,0.122,-3.296,-1.343,-0.258,-1.747,-113.961
 14:37:04.400,eb:33:2e:f9:57:b5, 2085-97-80 00:20:00:2039,0.04,0.01,0.995,0.122,-3.54,-1.343,-0.258,-1.78,-113.972
 14:37:04.400,eb:33:2e:f9:57:b5, 2085-97-81 00:21:00:2039,0.04,0.01,0.996,0.122,-3.662,-1.343,-0.258,-1.818,-113.983
 14:37:04.459,eb:33:2e:f9:57:b5, 2085-97-84 00:18:00:2042,0.042,0.01,0.996,0.061,-3.845,-1.343,-0.253,-1.851,-113.994
 14:37:04.459,eb:33:2e:f9:57:b5, 2085-97-86 00:21:00:2042,0.042,0.01,0.997,0,-3.784,-1.282,-0.253,-1.89,-114.011
 14:37:04.459,eb:33:2e:f9:57:b5, 2085-97-87 00:18:00:2043,0.042,0.01,0.996,0,-3.845,-1.404,-0.253,-1.928,-114.022
 14:37:04.459,eb:33:2e:f9:57:b5, 2085-97-86 00:20:00:2039,0.042,0.01,0.997,0,-3.723,-1.282,-0.247,-1.967,-114.033
 14:37:04.488,eb:33:2e:f9:57:b5, 2085-97-87 00:20:00:2041,0.044,0.01,0.997,0.061,-3.723,-1.343,-0.247,-2,-114.049
 14:37:04.488,eb:33:2e:f9:57:b5, 2085-97-91 00:20:00:2042,0.044,0.01,0.997,0,-3.723,-1.282,-0.247,-2.038,-114.06
 14:37:04.488,eb:33:2e:f9:57:b5, 2085-97-93 00:20:00:2038,0.045,0.01,0.996,0,-3.662,-1.343,-0.247,-2.076,-114.071
 14:37:04.488,eb:33:2e:f9:57:b5, 2085-97-92 00:20:00:2039,0.045,0.009,0.996,0,-3.784,-1.404,-0.247,-2.109,-114.088
 14:37:04.549,eb:33:2e:f9:57:b5, 2085-97-92 00:20:00:2038,0.045,0.01,0.996,0,-3.845,-1.465,-0.242,-2.148,-114.099
 14:37:04.549,eb:33:2e:f9:57:b5, 2085-97-94 00:20:00:2040,0.047,0.009,0.996,0.061,-4.15,-1.526,-0.242,-2.186,-114.115
 14:37:04.549,eb:33:2e:f9:57:b5, 2085-97-96 00:19:00:2040,0.048,0.01,0.996,0.061,-4.333,-1.465,-0.242,-2.23,-114.131
 14:37:04.549,eb:33:2e:f9:57:b5, 2085-97-100 00:21:00:2041,0.049,0.01,0.997,0.061,-4.333,-1.404,-0.236,-2.269,-114.142
 14:37:04.551,eb:33:2e:f9:57:b5, 2085-97-101 00:20:00:2042,0.05,0.01,0.997,0.061,-4.15,-1.282,-0.236,-2.313,-114.153
 14:37:04.551,eb:33:2e:f9:57:b5, 2085-97-101 00:20:00:2041,0.05,0.01,0.997,0,-4.028,-1.221,-0.236,-2.351,-114.17
 14:37:04.551,eb:33:2e:f9:57:b5, 2085-97-105 00:21:00:2042,0.052,0.01,0.997,0,-3.845,-1.099,-0.231,-2.39,-114.181
 14:37:04.551,eb:33:2e:f9:57:b5, 2085-97-107 00:22:00:2040,0.051,0.01,0.998,0,-3.54,-0.977,-0.231,-2.428,-114.192
 14:37:04.611,eb:33:2e:f9:57:b5, 2085-97-104 00:22:00:2039,0.051,0.01,0.994,0,-3.418,-0.977,-0.231,-2.461,-114.197
 14:37:04.611,eb:33:2e:f9:57:b5, 2085-97-107 00:21:00:2039,0.052,0.01,0.996,0,-3.54,-0.977,-0.231,-2.494,-114.208
 14:37:04.611,eb:33:2e:f9:57:b5, 2085-97-108 00:21:00:2039,0.054,0.011,0.995,0,-3.54,-0.977,-0.231,-2.527,-114.219
 14:37:04.611,eb:33:2e:f9:57:b5, 2085-97-112 00:20:00:2040,0.055,0.01,0.996,0,-3.479,-0.916,-0.225,-2.56,-114.225
 14:37:04.639,eb:33:2e:f9:57:b5, 2085-97-114 00:20:00:2045,0.057,0.01,0.998,-0.061,-3.113,-0.732,-0.225,-2.593,-114.236
 14:37:04.639,eb:33:2e:f9:57:b5, 2085-97-118 00:21:00:2046,0.059,0.01,0.999,-0.122,-2.319,-0.488,-0.225,-2.62,-114.241
 14:37:04.639,eb:33:2e:f9:57:b5, 2085-97-116 00:21:00:2043,0.056,0.011,1,-0.122,-1.038,-0.366,-0.231,-2.637,-114.241
 14:37:04.639,eb:33:2e:f9:57:b5, 2085-97-115 00:21:00:2041,0.055,0.01,0.997,-0.122,-0.427,-0.244,-0.231,-2.642,-114.247
 14:37:04.699,eb:33:2e:f9:57:b5, 2085-97-110 00:21:00:2038,0.055,0.01,0.996,-0.183,-0.244,-0.183,-0.231,-2.642,-114.247
 14:37:04.699,eb:33:2e:f9:57:b5, 2085-97-111 00:19:00:2038,0.054,0.009,0.996,-0.122,-0.305,-0.183,-0.231,-2.642,-114.247
 14:37:04.699,eb:33:2e:f9:57:b5, 2085-97-110 00:20:00:2036,0.054,0.01,0.995,-0.061,-0.488,-0.061,-0.231,-2.648,-114.247
 14:37:04.699,eb:33:2e:f9:57:b5, 2085-97-110 00:19:00:2038,0.055,0.01,0.995,-0.122,-0.732,0,-0.236,-2.653,-114.247
 14:37:04.730,eb:33:2e:f9:57:b5, 2085-97-114 00:22:00:2040,0.056,0.01,0.996,-0.122,-0.916,0,-0.236,-2.659,-114.247
 14:37:04.730,eb:33:2e:f9:57:b5, 2085-97-115 00:21:00:2043,0.057,0.01,0.997,-0.183,-0.61,0.183,-0.236,-2.67,-114.247
 14:37:04.730,eb:33:2e:f9:57:b5, 2085-97-114 00:20:00:2040,0.056,0.01,0.997,-0.183,-0.122,0.122,-0.236,-2.67,-114.241
 14:37:04.730,eb:33:2e:f9:57:b5, 2085-97-116 00:20:00:2040,0.055,0.009,0.996,-0.183,0.061,0.061,-0.242,-2.67,-114.241
 14:37:04.759,eb:33:2e:f9:57:b5, 2085-97-111 00:20:00:2039,0.055,0.01,0.997,-0.122,0.244,0.122,-0.242,-2.664,-114.236
 14:37:04.759,eb:33:2e:f9:57:b5, 2085-97-113 00:19:00:2039,0.056,0.01,0.996,-0.122,0.122,0.122,-0.242,-2.664,-114.236
 14:37:04.759,eb:33:2e:f9:57:b5, 2085-97-115 00:20:00:2039,0.055,0.01,0.997,-0.183,0.183,0.061,-0.242,-2.659,-114.23
 14:37:04.759,eb:33:2e:f9:57:b5, 2085-113-81 00:123:69:-609,0.055,0.01,0.995,-0.122,0.183,0.122,-0.247,-2.659,-114.23
 14:37:04.759,eb:33:2e:f9:57:b5, 2085-97-113 00:20:00:2040,0.055,0.01,0.996,-0.122,0.183,0.122,-0.247,-2.653,-114.225
 14:37:04.819,eb:33:2e:f9:57:b5, 2085-97-112 00:20:00:2038,0.053,0.01,0.996,-0.061,0.366,0.122,-0.247,-2.653,-114.225
 14:37:04.819,eb:33:2e:f9:57:b5, 2085-97-109 00:20:00:2034,0.054,0.01,0.993,-0.061,0.122,0,-0.247,-2.648,-114.225
 14:37:04.819,eb:33:2e:f9:57:b5, 2085-97-109 00:20:00:2036,0.054,0.01,0.993,0,-0.305,-0.061,-0.247,-2.648,-114.225
 14:37:04.819,eb:33:2e:f9:57:b5, 2085-97-112 00:21:00:2036,0.055,0.01,0.994,0.061,-0.671,-0.061,-0.247,-2.653,-114.219
 14:37:04.849,eb:33:2e:f9:57:b5, 2085-97-114 00:18:00:2040,0.057,0.01,0.994,0,-0.854,-0.122,-0.242,-2.659,-114.225
 14:37:04.849,eb:33:2e:f9:57:b5, 2085-97-118 00:18:00:2043,0.057,0.009,0.997,0,-0.671,0,-0.242,-2.659,-114.219
 14:37:04.849,eb:33:2e:f9:57:b5, 2085-97-113 00:21:00:2040,0.055,0.01,0.997,0,-0.183,0,-0.236,-2.664,-114.219
 14:37:04.849,eb:33:2e:f9:57:b5, 2085-97-114 00:19:00:2038,0.056,0.01,0.995,0,-0.183,0,-0.236,-2.664,-114.219
 14:37:04.878,eb:33:2e:f9:57:b5, 2085-97-116 00:20:00:2042,0.056,0.009,0.997,0.061,0,0.061,-0.236,-2.664,-114.219
 14:37:04.878,eb:33:2e:f9:57:b5, 2085-97-113 00:20:00:2037,0.056,0.01,0.995,0.122,0.183,0.061,-0.236,-2.664,-114.219
 14:37:04.878,eb:33:2e:f9:57:b5, 2085-97-113 00:20:00:2039,0.056,0.01,0.996,0.122,0.122,0.122,-0.236,-2.67,-114.219
 14:37:04.878,eb:33:2e:f9:57:b5, 2085-97-114 00:21:00:2038,0.055,0.01,0.995,0.183,0.183,0.061,-0.236,-2.67,-114.219
 14:37:04.939,eb:33:2e:f9:57:b5, 2085-97-113 00:19:00:2038,0.055,0.01,0.995,0.122,0.122,0.061,-0.231,-2.67,-114.219
 14:37:04.940,eb:33:2e:f9:57:b5, 2085-97-111 00:20:00:2036,0.054,0.01,0.995,0.183,0,0.061,-0.231,-2.67,-114.214
 14:37:04.940,eb:33:2e:f9:57:b5, 2085-97-111 00:21:00:2037,0.056,0.01,0.995,0.183,-0.244,0.061,-0.231,-2.67,-114.214
 14:37:04.940,eb:33:2e:f9:57:b5, 2085-97-114 00:20:00:2039,0.056,0.01,0.996,0.183,-0.244,0.061,-0.231,-2.67,-114.214
 14:37:04.970,eb:33:2e:f9:57:b5, 2085-97-115 00:21:00:2039,0.056,0.01,0.996,0.183,-0.183,0.122,-0.231,-2.675,-114.214
 14:37:04.970,eb:33:2e:f9:57:b5, 2085-97-114 00:21:00:2039,0.056,0.01,0.997,0.061,-0.061,0.183,-0.231,-2.675,-114.214
 14:37:04.970,eb:33:2e:f9:57:b5, 2085-97-115 00:22:00:2038,0.057,0.01,0.996,0.122,0,0.244,-0.225,-2.675,-114.214
 14:37:04.970,eb:33:2e:f9:57:b5, 2085-97-117 00:20:00:2041,0.058,0.01,0.996,0.061,0.122,0.244,-0.225,-2.675,-114.214
 14:37:04.999,eb:33:2e:f9:57:b5, 2085-97-116 00:21:00:2040,0.056,0.01,0.997,0.061,0.427,0.244,-0.225,-2.681,-114.214
 14:37:04.999,eb:33:2e:f9:57:b5, 2085-97-113 00:21:00:2037,0.055,0.01,0.995,0.122,0.549,0.244,-0.225,-2.681,-114.208
 14:37:04.999,eb:33:2e:f9:57:b5, 2085-97-112 00:20:00:2038,0.054,0.01,0.995,0.122,0.427,0.244,-0.225,-2.681,-114.208
 14:37:04.999,eb:33:2e:f9:57:b5, 2085-97-111 00:22:00:2037,0.054,0.011,0.995,0.122,0.305,0.183,-0.225,-2.681,-114.208
 14:37:05.060,eb:33:2e:f9:57:b5, 2085-97-112 00:20:00:2040,0.055,0.01,0.996,0.122,0.061,0.183,-0.225,-2.681,-114.208
 14:37:05.060,eb:33:2e:f9:57:b5, 2085-97-113 00:20:00:2039,0.055,0.01,0.995,0.122,0.061,0.183,-0.225,-2.681,-114.208
 14:37:05.060,eb:33:2e:f9:57:b5, 2085-97-113 00:22:00:2037,0.055,0.01,0.995,0.122,0,0.183,-0.22,-2.686,-114.208
 14:37:05.060,eb:33:2e:f9:57:b5, 2085-97-112 00:22:00:2039,0.055,0.011,0.996,0.122,0,0.183,-0.22,-2.686,-114.208
 14:37:05.089,eb:33:2e:f9:57:b5, 2085-97-113 00:24:00:2038,0.055,0.01,0.995,0.061,0,0.122,-0.22,-2.686,-114.208
 14:37:05.089,eb:33:2e:f9:57:b5, 2085-97-112 00:21:00:2039,0.055,0.011,0.995,0.061,-0.061,0.061,-0.22,-2.686,-114.203
 14:37:05.089,eb:33:2e:f9:57:b5, 2085-97-113 00:22:00:2040,0.055,0.011,0.996,0.122,0,0.122,-0.22,-2.686,-114.203
 14:37:05.089,eb:33:2e:f9:57:b5, 2085-97-113 00:21:00:2039,0.055,0.011,0.995,0.061,0,0.122,-0.22,-2.686,-114.203
 14:37:05.119,eb:33:2e:f9:57:b5, 2085-97-113 00:22:00:2039,0.056,0.011,0.996,0,0,0.061,-0.22,-2.686,-114.203
 14:37:05.119,eb:33:2e:f9:57:b5, 2085-97-113 00:22:00:2039,0.055,0.011,0.996,0.061,0.122,0,-0.22,-2.686,-114.203
 14:37:05.119,eb:33:2e:f9:57:b5, 2085-97-113 00:23:00:2039,0.056,0.011,0.996,0.061,0.183,0.122,-0.22,-2.692,-114.203
 14:37:05.119,eb:33:2e:f9:57:b5, 2085-97-114 00:22:00:2040,0.056,0.011,0.995,0,0.366,0.122,-0.22,-2.692,-114.203
 14:37:05.180,eb:33:2e:f9:57:b5, 2085-97-113 00:22:00:2038,0.054,0.011,0.996,0,0.61,0.122,-0.22,-2.692,-114.203
 14:37:05.180,eb:33:2e:f9:57:b5, 2085-97-110 00:22:00:2038,0.053,0.011,0.994,0,0.61,0.061,-0.22,-2.692,-114.197
 14:37:05.180,eb:33:2e:f9:57:b5, 2085-97-111 00:23:00:2039,0.055,0.011,0.995,0,0.427,0.122,-0.214,-2.692,-114.197
 14:37:05.180,eb:33:2e:f9:57:b5, 2085-97-111 00:23:00:2038,0.054,0.011,0.995,0.061,0.305,0.061,-0.214,-2.692,-114.197
 14:37:05.208,eb:33:2e:f9:57:b5, 2085-97-110 00:23:00:2038,0.054,0.011,0.995,0.061,0.244,0.061,-0.214,-2.697,-114.197
 14:37:05.208,eb:33:2e:f9:57:b5, 2085-97-110 00:22:00:2039,0.055,0.01,0.995,0.061,0.244,0.061,-0.214,-2.697,-114.197
 14:37:05.208,eb:33:2e:f9:57:b5, 2085-97-111 00:23:00:2038,0.055,0.011,0.996,0,0.183,0.061,-0.214,-2.697,-114.197
 14:37:05.208,eb:33:2e:f9:57:b5, 2085-97-113 00:22:00:2040,0.055,0.011,0.996,0,0.305,0,-0.214,-2.697,-114.197
 14:37:05.240,eb:33:2e:f9:57:b5, 2085-97-112 00:22:00:2041,0.055,0.01,0.997,-0.061,0.549,0,-0.214,-2.697,-114.197
 14:37:05.240,eb:33:2e:f9:57:b5, 2085-97-111 00:23:00:2038,0.054,0.011,0.995,0,0.732,0,-0.214,-2.697,-114.192
 14:37:05.240,eb:33:2e:f9:57:b5, 2085-97-111 00:22:00:2038,0.053,0.01,0.995,0,0.671,0,-0.214,-2.697,-114.192
 14:37:05.240,eb:33:2e:f9:57:b5, 2085-97-108 00:23:00:2037,0.052,0.011,0.995,0,0.61,0,-0.214,-2.697,-114.192
 14:37:05.298,eb:33:2e:f9:57:b5, 2085-97-106 00:22:00:2036,0.052,0.011,0.994,0,0.366,-0.061,-0.209,-2.703,-114.192
 14:37:05.298,eb:33:2e:f9:57:b5, 2085-97-108 00:24:00:2036,0.053,0.012,0.994,0,0.122,-0.122,-0.209,-2.703,-114.192
 14:37:05.298,eb:33:2e:f9:57:b5, 2085-97-107 00:21:00:2036,0.053,0.011,0.995,0,0,-0.061,-0.209,-2.703,-114.192
 14:37:05.298,eb:33:2e:f9:57:b5, 2085-97-109 00:21:00:2038,0.054,0.01,0.995,0,0,-0.061,-0.209,-2.703,-114.186
 14:37:05.330,eb:33:2e:f9:57:b5, 2085-97-110 00:21:00:2037,0.053,0.011,0.996,0,0,-0.061,-0.209,-2.703,-114.186
 14:37:05.330,eb:33:2e:f9:57:b5, 2085-97-107 00:24:00:2037,0.054,0.01,0.995,0,-0.122,-0.122,-0.209,-2.703,-114.186
 14:37:05.330,eb:33:2e:f9:57:b5, 2085-97-109 00:22:00:2037,0.053,0.011,0.995,0.061,-0.244,-0.122,-0.209,-2.703,-114.186
 14:37:05.330,eb:33:2e:f9:57:b5, 2085-97-108 00:23:00:2037,0.052,0.011,0.995,0.061,-0.366,-0.122,-0.209,-2.703,-114.186
 14:37:05.360,eb:33:2e:f9:57:b5, 2085-97-109 00:22:00:2037,0.053,0.011,0.995,0.122,-0.427,-0.183,-0.209,-2.708,-114.186
 14:37:05.360,eb:33:2e:f9:57:b5, 2085-97-109 00:22:00:2035,0.053,0.011,0.994,0.061,-0.671,-0.244,-0.209,-2.708,-114.186
 14:37:05.360,eb:33:2e:f9:57:b5, 2085-97-110 00:22:00:2038,0.054,0.011,0.995,0.122,-0.854,-0.244,-0.209,-2.708,-114.186
 14:37:05.360,eb:33:2e:f9:57:b5, 2085-97-112 00:24:00:2038,0.054,0.011,0.995,0.122,-0.977,-0.244,-0.209,-2.708,-114.181
 14:37:05.419,eb:33:2e:f9:57:b5, 2085-97-111 00:24:00:2037,0.055,0.012,0.994,0.061,-1.038,-0.244,-0.203,-2.708,-114.181
 14:37:05.419,eb:33:2e:f9:57:b5, 2085-97-110 00:23:00:2036,0.054,0.012,0.995,0.122,-1.099,-0.244,-0.203,-2.708,-114.181
 14:37:05.419,eb:33:2e:f9:57:b5, 2085-97-111 00:23:00:2037,0.054,0.011,0.994,0.061,-1.282,-0.183,-0.203,-2.708,-114.181
 14:37:05.419,eb:33:2e:f9:57:b5, 2085-97-110 00:23:00:2036,0.055,0.011,0.995,0.122,-1.526,-0.244,-0.203,-2.708,-114.181
 14:37:05.449,eb:33:2e:f9:57:b5, 2085-97-112 00:24:00:2037,0.055,0.012,0.995,0.061,-1.648,-0.183,-0.203,-2.714,-114.181
 14:37:05.449,eb:33:2e:f9:57:b5, 2085-97-112 00:25:00:2036,0.055,0.011,0.994,0.061,-1.953,-0.244,-0.203,-2.714,-114.181
 14:37:05.449,eb:33:2e:f9:57:b5, 2085-97-114 00:25:00:2037,0.055,0.012,0.995,0.061,-2.075,-0.305,-0.203,-2.714,-114.181
 14:37:05.449,eb:33:2e:f9:57:b5, 2085-97-113 00:23:00:2035,0.056,0.011,0.994,0.122,-2.136,-0.244,-0.203,-2.714,-114.175
 14:37:05.479,eb:33:2e:f9:57:b5, 2085-97-116 00:25:00:2036,0.057,0.012,0.995,0.061,-2.38,-0.305,-0.203,-2.714,-114.175
 14:37:05.479,eb:33:2e:f9:57:b5, 2085-97-118 00:25:00:2038,0.058,0.011,0.995,0.061,-2.441,-0.305,-0.203,-2.714,-114.175
 14:37:05.479,eb:33:2e:f9:57:b5, 2085-97-119 00:22:00:2039,0.057,0.011,0.997,0,-2.319,-0.366,-0.203,-2.714,-114.175
 14:37:05.479,eb:33:2e:f9:57:b5, 2085-97-116 00:24:00:2036,0.059,0.011,0.994,0,-2.319,-0.366,-0.203,-2.714,-114.175
 14:37:05.540,eb:33:2e:f9:57:b5, 2085-97-123 00:23:00:2040,0.059,0.012,0.995,-0.061,-2.502,-0.366,-0.198,-2.719,-114.175
 14:37:05.540,eb:33:2e:f9:57:b5, 2085-97-120 00:23:00:2038,0.059,0.01,0.995,0,-2.258,-0.305,-0.198,-2.719,-114.175
 14:37:05.540,eb:33:2e:f9:57:b5, 2085-97-121 00:23:00:2036,0.06,0.011,0.994,0,-2.258,-0.305,-0.198,-2.719,-114.175
 14:37:05.540,eb:33:2e:f9:57:b5, 2085-97-123 00:25:00:2037,0.06,0.012,0.995,-0.061,-2.258,-0.305,-0.198,-2.719,-114.17
 14:37:05.569,eb:33:2e:f9:57:b5, 2085-97-122 00:22:00:2037,0.061,0.012,0.994,-0.061,-2.258,-0.366,-0.198,-2.719,-114.17
 14:37:05.569,eb:33:2e:f9:57:b5, 2085-97-126 00:24:00:2038,0.062,0.012,0.995,-0.122,-2.197,-0.366,-0.198,-2.719,-114.17
 14:37:05.569,eb:33:2e:f9:57:b5, 2085-97-126 00:23:00:2037,0.063,0.012,0.995,-0.122,-2.136,-0.427,-0.198,-2.719,-114.17
 14:37:05.569,eb:33:2e:f9:57:b5, 2085-113-58 00:246:220:-1410,0.063,0.012,0.997,-0.061,-2.014,-0.366,-0.198,-2.719,-114.17
 14:37:05.599,eb:33:2e:f9:57:b5, 2085-97-131 00:22:00:2042,0.063,0.01,0.998,-0.122,-1.77,-0.366,-0.198,-2.719,-114.17
 14:37:05.599,eb:33:2e:f9:57:b5, 2085-97-128 00:22:00:2037,0.062,0.012,0.996,-0.122,-1.221,-0.366,-0.198,-2.725,-114.17
 14:37:05.599,eb:33:2e:f9:57:b5, 2085-97-126 00:24:00:2037,0.062,0.011,0.995,-0.183,-1.038,-0.305,-0.198,-2.725,-114.17
 14:37:05.599,eb:33:2e:f9:57:b5, 2085-97-126 00:22:00:2038,0.062,0.011,0.995,-0.183,-0.977,-0.305,-0.198,-2.725,-114.17
 14:37:05.660,eb:33:2e:f9:57:b5, 2085-97-127 00:20:00:2035,0.062,0.011,0.994,-0.122,-1.099,-0.244,-0.198,-2.725,-114.164
 14:37:05.660,eb:33:2e:f9:57:b5, 2085-97-127 00:22:00:2038,0.062,0.011,0.995,-0.183,-1.16,-0.244,-0.192,-2.725,-114.164
 14:37:05.660,eb:33:2e:f9:57:b5, 2085-97-127 00:21:00:2037,0.062,0.011,0.995,-0.122,-1.038,-0.305,-0.192,-2.725,-114.164
 14:37:05.660,eb:33:2e:f9:57:b5, 2085-97-128 00:22:00:2037,0.062,0.011,0.994,-0.183,-1.099,-0.305,-0.192,-2.73,-114.164
 14:37:05.690,eb:33:2e:f9:57:b5, 2085-97-131 00:20:00:2039,0.063,0.01,0.995,-0.122,-1.221,-0.366,-0.192,-2.73,-114.164
 14:37:05.690,eb:33:2e:f9:57:b5, 2085-97-129 00:22:00:2039,0.063,0.01,0.996,-0.122,-0.977,-0.244,-0.192,-2.73,-114.164
 14:37:05.690,eb:33:2e:f9:57:b5, 2085-97-130 00:23:00:2037,0.063,0.011,0.995,-0.183,-0.916,-0.305,-0.192,-2.73,-114.159
 14:37:05.690,eb:33:2e:f9:57:b5, 2085-97-132 00:23:00:2037,0.065,0.011,0.995,-0.183,-0.732,-0.305,-0.192,-2.736,-114.159
 14:37:05.719,eb:33:2e:f9:57:b5, 2085-97-132 00:21:00:2038,0.065,0.011,0.996,-0.183,-0.61,-0.244,-0.192,-2.736,-114.159
 14:37:05.719,eb:33:2e:f9:57:b5, 2085-97-133 00:21:00:2039,0.064,0.01,0.996,-0.122,-0.366,-0.183,-0.192,-2.736,-114.159
 14:37:05.719,eb:33:2e:f9:57:b5, 2085-97-131 00:21:00:2037,0.064,0.01,0.995,-0.183,-0.122,-0.122,-0.192,-2.736,-114.159
 14:37:05.719,eb:33:2e:f9:57:b5, 2085-97-131 00:24:00:2036,0.064,0.011,0.994,-0.183,-0.122,-0.122,-0.192,-2.736,-114.159
 14:37:05.779,eb:33:2e:f9:57:b5, 2085-97-131 00:22:00:2037,0.064,0.012,0.995,-0.244,0,-0.061,-0.192,-2.736,-114.159
 14:37:05.779,eb:33:2e:f9:57:b5, 2085-97-130 00:22:00:2038,0.063,0.01,0.995,-0.183,0,-0.061,-0.187,-2.741,-114.159
 14:37:05.779,eb:33:2e:f9:57:b5, 2085-97-128 00:21:00:2035,0.063,0.011,0.994,-0.244,-0.061,0,-0.187,-2.741,-114.153
 14:37:05.779,eb:33:2e:f9:57:b5, 2085-97-130 00:21:00:2037,0.064,0.011,0.994,-0.183,-0.183,0,-0.187,-2.741,-114.153
 14:37:05.810,eb:33:2e:f9:57:b5, 2085-97-131 00:21:00:2037,0.063,0.01,0.995,-0.244,-0.183,-0.061,-0.187,-2.741,-114.153
 14:37:05.810,eb:33:2e:f9:57:b5, 2085-97-128 00:22:00:2036,0.064,0.01,0.994,-0.183,-0.305,-0.061,-0.187,-2.747,-114.153
 14:37:05.810,eb:33:2e:f9:57:b5, 2085-97-130 00:20:00:2036,0.063,0.01,0.994,-0.244,-0.366,0,-0.187,-2.747,-114.153
 14:37:05.810,eb:33:2e:f9:57:b5, 2085-97-131 00:20:00:2036,0.064,0.009,0.995,-0.244,-0.366,0,-0.187,-2.747,-114.153
 14:37:05.840,eb:33:2e:f9:57:b5, 2085-97-132 00:20:00:2037,0.064,0.011,0.995,-0.183,-0.305,0,-0.187,-2.747,-114.153
 14:37:05.840,eb:33:2e:f9:57:b5, 2085-97-131 00:20:00:2038,0.064,0.011,0.995,-0.183,-0.183,0,-0.187,-2.752,-114.153
 14:37:05.840,eb:33:2e:f9:57:b5, 2085-97-131 00:22:00:2037,0.064,0.01,0.995,-0.183,-0.122,0,-0.187,-2.752,-114.148
 14:37:05.840,eb:33:2e:f9:57:b5, 2085-97-132 00:20:00:2036,0.065,0.012,0.995,-0.183,-0.183,0,-0.187,-2.752,-114.148
 14:37:05.899,eb:33:2e:f9:57:b5, 2085-97-133 00:22:00:2039,0.064,0.01,0.995,-0.183,0,0,-0.187,-2.752,-114.148
 14:37:05.899,eb:33:2e:f9:57:b5, 2085-97-131 00:21:00:2039,0.064,0.01,0.995,-0.244,0.183,0.061,-0.181,-2.758,-114.148
 14:37:05.899,eb:33:2e:f9:57:b5, 2085-97-132 00:21:00:2036,0.063,0.01,0.995,-0.244,0.427,0.061,-0.181,-2.758,-114.148
 14:37:05.899,eb:33:2e:f9:57:b5, 2085-97-129 00:20:00:2037,0.063,0.01,0.994,-0.305,0.427,0.061,-0.181,-2.758,-114.148
 14:37:05.929,eb:33:2e:f9:57:b5, 2085-97-125 00:21:00:2034,0.062,0.009,0.994,-0.244,0.305,0.061,-0.181,-2.758,-114.148
 14:37:05.929,eb:33:2e:f9:57:b5, 2085-97-130 00:22:00:2037,0.063,0.01,0.994,-0.122,-0.061,0,-0.181,-2.763,-114.148
 14:37:05.929,eb:33:2e:f9:57:b5, 2085-97-131 00:22:00:2037,0.063,0.011,0.994,-0.244,-0.183,0,-0.181,-2.763,-114.142
 14:37:05.929,eb:33:2e:f9:57:b5, 2085-97-131 00:20:00:2035,0.064,0.01,0.994,-0.183,-0.183,0,-0.181,-2.763,-114.142
 14:37:05.959,eb:33:2e:f9:57:b5, 2085-97-130 00:21:00:2037,0.063,0.01,0.994,-0.122,-0.244,0,-0.181,-2.763,-114.142
 14:37:05.960,eb:33:2e:f9:57:b5, 2085-97-129 00:21:00:2034,0.062,0.01,0.994,-0.122,-0.244,-0.061,-0.181,-2.769,-114.142
 14:37:05.960,eb:33:2e:f9:57:b5, 2085-97-129 00:20:00:2035,0.063,0.009,0.993,-0.122,-0.61,-0.061,-0.181,-2.769,-114.142
 14:37:05.960,eb:33:2e:f9:57:b5, 2085-97-129 00:19:00:2034,0.065,0.01,0.994,-0.122,-0.671,-0.061,-0.181,-2.774,-114.142
 14:37:06.019,eb:33:2e:f9:57:b5, 2085-97-133 00:19:00:2037,0.064,0.01,0.993,-0.122,-0.671,-0.122,-0.181,-2.774,-114.142
 14:37:06.019,eb:33:2e:f9:57:b5, 2085-97-132 00:19:00:2036,0.063,0.009,0.994,-0.061,-0.61,-0.122,-0.181,-2.774,-114.142
 14:37:06.019,eb:33:2e:f9:57:b5, 2085-97-131 00:19:00:2035,0.064,0.009,0.994,-0.122,-0.671,-0.122,-0.181,-2.774,-114.137
 14:37:06.019,eb:33:2e:f9:57:b5, 2085-97-132 00:20:00:2037,0.064,0.009,0.995,-0.061,-0.671,-0.122,-0.176,-2.78,-114.137
 14:37:06.050,eb:33:2e:f9:57:b5, 2085-97-132 00:19:00:2038,0.064,0.009,0.994,-0.122,-0.671,-0.061,-0.176,-2.78,-114.137
 14:37:06.050,eb:33:2e:f9:57:b5, 2085-97-132 00:20:00:2036,0.064,0.009,0.995,-0.122,-0.671,-0.183,-0.176,-2.78,-114.137
 14:37:06.050,eb:33:2e:f9:57:b5, 2085-97-132 00:19:00:2034,0.064,0.01,0.993,-0.122,-0.854,-0.122,-0.176,-2.78,-114.137
 14:37:06.050,eb:33:2e:f9:57:b5, 2085-97-134 00:20:00:2037,0.066,0.009,0.994,-0.183,-0.854,-0.061,-0.176,-2.785,-114.137
 14:37:06.110,eb:33:2e:f9:57:b5, 2085-97-135 00:18:00:2039,0.067,0.009,0.995,-0.183,-0.671,-0.061,-0.176,-2.785,-114.131
 14:37:06.110,eb:33:2e:f9:57:b5, 2085-97-136 00:20:00:2037,0.066,0.009,0.995,-0.183,-0.488,0,-0.176,-2.791,-114.131
 14:37:06.110,eb:33:2e:f9:57:b5, 2085-97-136 00:20:00:2039,0.066,0.01,0.995,-0.244,-0.244,0,-0.176,-2.791,-114.131
 14:37:06.110,eb:33:2e:f9:57:b5, 2085-97-135 00:20:00:2036,0.065,0.009,0.996,-0.305,0,0,-0.176,-2.791,-114.131
 14:37:06.140,eb:33:2e:f9:57:b5, 2085-97-134 00:20:00:2037,0.065,0.01,0.994,-0.305,0.122,0.061,-0.176,-2.791,-114.131
 14:37:06.140,eb:33:2e:f9:57:b5, 2085-97-134 00:22:00:2036,0.066,0.009,0.994,-0.305,0.122,0.061,-0.176,-2.796,-114.131
 14:37:06.140,eb:33:2e:f9:57:b5, 2085-97-133 00:20:00:2035,0.064,0.01,0.994,-0.427,0.122,0,-0.176,-2.796,-114.131
 14:37:06.140,eb:33:2e:f9:57:b5, 2085-97-134 00:19:00:2037,0.065,0.01,0.994,-0.305,0.061,0.061,-0.176,-2.796,-114.131
 14:37:06.169,eb:33:2e:f9:57:b5, 2085-97-136 00:18:00:2038,0.065,0.009,0.995,-0.366,0.244,0,-0.176,-2.796,-114.126
 14:37:06.169,eb:33:2e:f9:57:b5, 2085-97-134 00:20:00:2038,0.065,0.009,0.995,-0.305,0.549,0.061,-0.176,-2.802,-114.126
 14:37:06.169,eb:33:2e:f9:57:b5, 2085-97-133 00:18:00:2038,0.066,0.01,0.994,-0.305,0.671,0,-0.176,-2.802,-114.126
 14:37:06.169,eb:33:2e:f9:57:b5, 2085-113-58 00:157:219:-1305,0.066,0.009,0.996,-0.244,0.977,0,-0.17,-2.807,-114.126
 14:37:06.169,eb:33:2e:f9:57:b5, 2085-97-135 00:17:00:2038,0.065,0.01,0.996,-0.244,1.16,0,-0.17,-2.807,-114.126
 14:37:06.230,eb:33:2e:f9:57:b5, 2085-97-131 00:18:00:2035,0.064,0.009,0.994,-0.244,1.221,0,-0.17,-2.807,-114.126
 14:37:06.230,eb:33:2e:f9:57:b5, 2085-97-131 00:17:00:2038,0.065,0.008,0.995,-0.244,1.282,0.061,-0.17,-2.807,-114.126
 14:37:06.237,eb:33:2e:f9:57:b5, 2085-97-135 00:18:00:2040,0.065,0.008,0.997,-0.244,1.587,0.183,-0.17,-2.812,-114.126
 14:37:06.237,eb:33:2e:f9:57:b5, 2085-97-133 00:19:00:2039,0.063,0.008,0.997,-0.305,2.258,0.244,-0.17,-2.812,-114.12
 14:37:06.260,eb:33:2e:f9:57:b5, 2085-97-130 00:19:00:2037,0.063,0.009,0.996,-0.244,2.502,0.366,-0.17,-2.818,-114.12
 14:37:06.260,eb:33:2e:f9:57:b5, 2085-97-129 00:17:00:2038,0.063,0.008,0.995,-0.305,2.808,0.427,-0.17,-2.818,-114.12
 14:37:06.260,eb:33:2e:f9:57:b5, 2085-97-126 00:17:00:2035,0.061,0.009,0.995,-0.305,2.93,0.427,-0.176,-2.796,-114.115
 14:37:06.260,eb:33:2e:f9:57:b5, 2085-97-124 00:19:00:2036,0.061,0.008,0.994,-0.244,2.625,0.427,-0.176,-2.763,-114.109
 14:37:06.290,eb:33:2e:f9:57:b5, 2085-97-126 00:17:00:2038,0.062,0.008,0.995,-0.305,2.38,0.366,-0.181,-2.741,-114.104
 14:37:06.290,eb:33:2e:f9:57:b5, 2085-97-124 00:18:00:2038,0.061,0.008,0.996,-0.244,2.38,0.366,-0.181,-2.714,-114.099
 14:37:06.290,eb:33:2e:f9:57:b5, 2085-97-126 00:17:00:2039,0.061,0.008,0.995,-0.244,2.502,0.305,-0.181,-2.686,-114.093
 14:37:06.290,eb:33:2e:f9:57:b5, 2085-97-124 00:16:00:2038,0.06,0.008,0.996,-0.244,2.625,0.305,-0.187,-2.664,-114.088
 14:37:06.349,eb:33:2e:f9:57:b5, 2085-97-123 00:16:00:2038,0.059,0.008,0.995,-0.305,2.747,0.427,-0.187,-2.631,-114.088
 14:37:06.349,eb:33:2e:f9:57:b5, 2085-97-120 00:17:00:2039,0.06,0.008,0.995,-0.244,2.869,0.366,-0.192,-2.604,-114.082
 14:37:06.349,eb:33:2e:f9:57:b5, 2085-97-118 00:16:00:2038,0.058,0.008,0.996,-0.183,3.052,0.305,-0.192,-2.571,-114.077
 14:37:06.350,eb:33:2e:f9:57:b5, 2085-97-119 00:15:00:2041,0.058,0.007,0.996,-0.122,3.296,0.366,-0.198,-2.538,-114.071
 14:37:06.380,eb:33:2e:f9:57:b5, 2085-97-120 00:17:00:2039,0.058,0.007,0.996,-0.122,3.479,0.427,-0.198,-2.505,-114.066
 14:37:06.380,eb:33:2e:f9:57:b5, 2085-97-117 00:16:00:2039,0.056,0.008,0.996,-0.122,3.723,0.488,-0.198,-2.466,-114.055
 14:37:06.380,eb:33:2e:f9:57:b5, 2085-97-113 00:16:00:2035,0.054,0.007,0.994,-0.061,3.662,0.488,-0.198,-2.428,-114.049
 14:37:06.380,eb:33:2e:f9:57:b5, 2085-97-109 00:18:00:2034,0.053,0.008,0.994,0,3.296,0.366,-0.198,-2.39,-114.044
 14:37:06.409,eb:33:2e:f9:57:b5, 2085-97-109 00:17:00:2033,0.052,0.008,0.993,0.061,2.808,0.244,-0.198,-2.362,-114.038
 14:37:06.409,eb:33:2e:f9:57:b5, 2085-97-106 00:18:00:2035,0.052,0.009,0.993,0.122,2.38,0.122,-0.198,-2.335,-114.038
 14:37:06.409,eb:33:2e:f9:57:b5, 2085-97-109 00:17:00:2037,0.053,0.008,0.994,0.061,1.953,0.061,-0.198,-2.313,-114.033
 14:37:06.409,eb:33:2e:f9:57:b5, 2085-97-109 00:17:00:2039,0.053,0.008,0.996,0.061,1.77,0.061,-0.198,-2.291,-114.033
 14:37:06.499,eb:33:2e:f9:57:b5, 2085-97-109 00:17:00:2039,0.054,0.008,0.996,0,1.709,0,-0.192,-2.269,-114.033
 14:37:06.499,eb:33:2e:f9:57:b5, 2085-97-109 00:18:00:2039,0.053,0.008,0.995,0,1.77,0.061,-0.192,-2.252,-114.027
 14:37:06.499,eb:33:2e:f9:57:b5, 2085-97-110 00:16:00:2039,0.053,0.009,0.996,0,1.953,0.183,-0.192,-2.23,-114.027
 14:37:06.499,eb:33:2e:f9:57:b5, 2085-97-108 00:17:00:2040,0.053,0.009,0.996,0,2.197,0.122,-0.192,-2.208,-114.022
