Time,Device name,Chip Time(),Acceleration X(g),Acceleration Y(g),Acceleration Z(g),Angular velocity X(°/s),Angular velocity Y(°/s),Angular velocity Z(°/s),Angle X(°),Angle Y(°),Angle Z(°)
 14:35:28.304,eb:33:2e:f9:57:b5, 2085-97-32 255:15:253:986,-0.462,-1.083,0.412,273.01,136.658,118.774,-19.924,-9.393,-88.748
 14:35:28.304,eb:33:2e:f9:57:b5, 2085-97-66 252:221:252:444,-0.242,-0.374,0.296,310.669,111.267,110.962,-17.029,-7.8,-88.127
 14:35:28.304,eb:33:2e:f9:57:b5, 2085-97-195 255:204:255:1470,0.118,-0.217,0.423,312.073,15.93,156.616,-14.046,-6.866,-86.946
 14:35:28.304,eb:33:2e:f9:57:b5, 2085-97-206 01:150:04:3120,0.251,0.376,1.203,287.231,-25.574,170.166,-11.245,-6.674,-85.237
 14:35:28.364,eb:33:2e:f9:57:b5, 2085-97-00 00:26:06:3423,-0.083,0.793,1.81,244.446,40.222,122.131,-8.767,-6.4,-83.771
 14:35:28.364,eb:33:2e:f9:57:b5, 2085-97-195 246:253:06:2397,-1.023,0.515,1.512,204.651,124.146,53.894,-6.636,-5.427,-83.073
 14:35:28.364,eb:33:2e:f9:57:b5, 2085-97-148 253:58:04:2295,-0.142,1.268,1.188,151.672,114.319,-33.264,-4.839,-4.158,-83.128
 14:35:28.364,eb:33:2e:f9:57:b5, 2085-97-182 01:140:01:2376,0.288,0.266,1.054,120.178,96.741,-60.181,-3.499,-3.115,-83.705
 14:35:28.394,eb:33:2e:f9:57:b5, 2085-97-93 02:181:02:2519,-0.098,0.156,1.159,60.303,67.932,2.625,-2.576,-2.357,-84.045
 14:35:28.394,eb:33:2e:f9:57:b5, 2085-97-249 254:194:00:1824,-0.052,0.219,0.967,24.353,63.721,16.296,-2.23,-1.659,-83.903
 14:35:28.394,eb:33:2e:f9:57:b5, 2085-97-118 255:22:00:1890,-0.026,0.061,0.904,16.541,32.654,7.812,-2.038,-1.181,-83.804
 14:35:28.394,eb:33:2e:f9:57:b5, 2085-97-41 00:21:00:2048,0.004,0.013,0.958,14.709,16.602,5.615,-1.879,-0.956,-83.749
 14:35:28.455,eb:33:2e:f9:57:b5, 2085-97-230 255:73:00:1992,-0.008,0.027,0.987,10.62,13.916,6.409,-1.758,-0.802,-83.688
 14:35:28.455,eb:33:2e:f9:57:b5, 2085-97-247 255:35:00:2018,-0.007,0.03,0.979,6.531,5.737,4.456,-1.67,-0.709,-83.633
 14:35:28.455,eb:33:2e:f9:57:b5, 2085-97-246 255:09:00:2020,-0.001,0.005,0.983,4.333,0.061,2.991,-1.62,-0.681,-83.595
 14:35:28.455,eb:33:2e:f9:57:b5, 2085-97-253 255:04:00:2024,0.001,0.005,0.988,2.869,-4.15,1.77,-1.582,-0.703,-83.573
 14:35:28.485,eb:33:2e:f9:57:b5, 2085-97-20 00:242:255:2048,0.02,0.001,0.989,1.892,-8.423,0.244,-1.56,-0.769,-83.562
 14:35:28.485,eb:33:2e:f9:57:b5, 2085-97-48 00:235:255:2072,0.025,-0.01,1.009,1.16,-7.812,0.671,-1.544,-0.851,-83.557
 14:35:28.485,eb:33:2e:f9:57:b5, 2085-97-52 00:231:255:2072,0.025,-0.014,1.012,0.61,-5.249,1.343,-1.533,-0.917,-83.546
 14:35:28.485,eb:33:2e:f9:57:b5, 2085-97-56 00:226:255:2073,0.029,-0.013,1.011,0.244,-3.174,1.953,-1.533,-0.956,-83.524
 14:35:28.543,eb:33:2e:f9:57:b5, 2085-97-71 00:232:255:2086,0.031,-0.013,1.014,0.122,-0.61,2.319,-1.527,-0.972,-83.502
 14:35:28.543,eb:33:2e:f9:57:b5, 2085-97-46 00:230:255:2063,0.021,-0.013,1.015,0.061,2.808,2.136,-1.527,-0.961,-83.48
 14:35:28.543,eb:33:2e:f9:57:b5, 2085-97-28 00:228:255:2050,0.007,-0.013,1.004,0.305,4.211,1.831,-1.527,-0.923,-83.458
 14:35:28.543,eb:33:2e:f9:57:b5, 2085-97-03 00:223:255:2032,0.001,-0.015,0.998,0.671,3.784,1.404,-1.522,-0.879,-83.441
 14:35:28.575,eb:33:2e:f9:57:b5, 2085-97-10 00:223:255:2038,0.014,-0.017,0.993,1.404,1.221,1.343,-1.511,-0.851,-83.425
 14:35:28.575,eb:33:2e:f9:57:b5, 2085-97-43 00:229:255:2067,0.024,-0.015,1.003,1.953,0.61,1.16,-1.489,-0.846,-83.414
 14:35:28.575,eb:33:2e:f9:57:b5, 2085-97-53 00:233:255:2073,0.031,-0.012,1.011,2.136,3.174,0.977,-1.472,-0.824,-83.403
 14:35:28.575,eb:33:2e:f9:57:b5, 2085-97-76 00:230:255:2095,0.041,-0.012,1.017,2.258,6.836,0.427,-1.445,-0.775,-83.397
 14:35:28.604,eb:33:2e:f9:57:b5, 2085-97-81 00:237:255:2102,0.035,-0.012,1.027,2.197,13.123,0.427,-1.423,-0.67,-83.392
 14:35:28.604,eb:33:2e:f9:57:b5, 2085-97-54 00:237:255:2078,0.012,-0.009,1.021,2.075,19.409,0.549,-1.401,-0.505,-83.386
 14:35:28.604,eb:33:2e:f9:57:b5, 2085-97-01 00:236:255:2044,-0.004,-0.008,1.003,2.075,22.522,0.854,-1.379,-0.286,-83.381
 14:35:28.604,eb:33:2e:f9:57:b5, 2085-97-241 255:237:255:2031,-0.008,-0.011,0.995,2.197,21.301,0.671,-1.357,-0.066,-83.375
 14:35:28.665,eb:33:2e:f9:57:b5, 2085-97-229 255:237:255:2031,-0.007,-0.007,0.992,2.502,18.433,0.61,-1.335,0.132,-83.37
 14:35:28.665,eb:33:2e:f9:57:b5, 2085-97-239 255:238:255:2043,-0.009,-0.008,0.998,2.747,15.564,0.366,-1.302,0.291,-83.37
 14:35:28.665,eb:33:2e:f9:57:b5, 2085-97-235 255:240:255:2048,-0.002,-0.008,0.999,3.174,13.733,-0.061,-1.274,0.434,-83.364
 14:35:28.665,eb:33:2e:f9:57:b5, 2085-97-239 255:253:255:2039,-0.003,-0.004,1.003,3.662,12.39,-0.854,-1.236,0.566,-83.37
 14:35:28.667,eb:33:2e:f9:57:b5, 2085-97-241 255:248:255:2061,-0.013,-0.007,1.009,4.028,11.414,-1.648,-1.198,0.687,-83.386
 14:35:28.667,eb:33:2e:f9:57:b5, 2085-97-00 00:254:255:2078,0.018,-0.001,1.001,4.517,10.254,-3.174,-1.154,0.791,-83.414
 14:35:28.667,eb:33:2e:f9:57:b5, 2085-113-58 00:143:218:1455,0.047,0.01,1.027,5.249,10.315,-4.7,-1.11,0.895,-83.452
 14:35:28.667,eb:33:2e:f9:57:b5, 2085-97-88 00:03:00:2309,0.049,0.006,1.069,5.798,13.489,-5.005,-1.077,0.956,-83.474
 14:35:28.667,eb:33:2e:f9:57:b5, 2085-97-55 00:251:255:2194,0.005,0,1.107,4.761,22.644,-7.751,-1.027,1.137,-83.54
 14:35:28.726,eb:33:2e:f9:57:b5, 2085-97-240 255:00:00:2106,-0.011,0,1.042,4.639,26.855,-8.179,-0.978,1.39,-83.622
 14:35:28.726,eb:33:2e:f9:57:b5, 2085-97-226 255:253:255:2095,-0.019,0,1.027,4.578,28.442,-8.85,-0.934,1.67,-83.71
 14:35:28.726,eb:33:2e:f9:57:b5, 2085-97-207 255:250:255:2087,-0.022,-0.003,1.02,4.883,29.48,-8.972,-0.89,1.961,-83.804
 14:35:28.726,eb:33:2e:f9:57:b5, 2085-97-212 255:02:00:2106,-0.021,0,1.025,5.127,29.968,-8.911,-0.84,2.258,-83.892
 14:35:28.755,eb:33:2e:f9:57:b5, 2085-97-205 255:03:00:2111,-0.028,0,1.032,5.188,31.372,-8.606,-0.791,2.565,-83.979
 14:35:28.755,eb:33:2e:f9:57:b5, 2085-97-189 255:251:255:2097,-0.027,0,1.028,5.005,33.325,-7.69,-0.747,2.889,-84.062
 14:35:28.755,eb:33:2e:f9:57:b5, 2085-97-232 255:174:255:2162,-0.024,-0.013,1.031,7.446,31.189,-5.859,-0.687,3.219,-84.133
 14:35:28.755,eb:33:2e:f9:57:b5, 2085-97-60 255:239:254:2468,-0.19,-0.1,1.141,20.63,19.226,1.587,-0.555,3.466,-84.155
 14:35:28.816,eb:33:2e:f9:57:b5, 2085-97-140 254:124:255:2320,-0.085,-0.127,1.187,24.231,24.963,8.667,-0.313,3.686,-84.089
 14:35:28.816,eb:33:2e:f9:57:b5, 2085-97-03 255:105:255:2417,-0.114,-0.014,1.081,28.625,15.32,3.54,-0.049,3.895,-84.029
 14:35:28.816,eb:33:2e:f9:57:b5, 2085-97-15 255:73:255:2444,-0.135,-0.105,1.228,34.851,12.085,6.165,0.275,4.021,-83.985
 14:35:28.816,eb:33:2e:f9:57:b5, 2085-97-192 254:20:255:2419,-0.18,-0.103,1.19,42.786,4.944,10.254,0.676,4.103,-83.897
 14:35:28.844,eb:33:2e:f9:57:b5, 2085-97-134 254:239:254:2462,-0.181,-0.119,1.169,49.988,-4.822,17.334,1.154,4.103,-83.754
 14:35:28.844,eb:33:2e:f9:57:b5, 2085-97-178 254:208:254:2577,-0.13,-0.146,1.222,59.204,-16.052,24.658,1.714,3.983,-83.546
 14:35:28.844,eb:33:2e:f9:57:b5, 2085-97-64 255:227:254:2730,-0.047,-0.147,1.291,70.19,-23.438,32.349,2.384,3.763,-83.265
 14:35:28.844,eb:33:2e:f9:57:b5, 2085-97-16 00:01:255:2925,0.067,-0.133,1.372,82.397,-22.644,38.025,3.175,3.505,-82.919
 14:35:28.904,eb:33:2e:f9:57:b5, 2085-97-231 00:57:255:3110,0.131,-0.098,1.475,95.459,-9.521,40.161,4.092,3.312,-82.535
 14:35:28.904,eb:33:2e:f9:57:b5, 2085-97-14 01:221:254:3294,0.155,-0.105,1.552,110.229,12.146,38.94,5.153,3.296,-82.139
 14:35:28.904,eb:33:2e:f9:57:b5, 2085-97-141 01:75:255:3209,0.224,-0.127,1.611,128.479,37.781,36.743,6.378,3.516,-81.727
 14:35:28.904,eb:33:2e:f9:57:b5, 2085-97-213 01:78:255:3208,0.237,-0.082,1.578,147.156,57.251,28.137,7.789,3.961,-81.337
 14:35:28.934,eb:33:2e:f9:57:b5, 2085-97-239 01:35:255:3157,0.218,-0.09,1.548,167.603,68.97,18.86,9.399,4.559,-81.008
 14:35:28.934,eb:33:2e:f9:57:b5, 2085-97-144 01:148:254:3160,0.193,-0.125,1.522,190.063,73.303,8.118,11.217,5.24,-80.739
 14:35:28.934,eb:33:2e:f9:57:b5, 2085-97-197 01:94:254:3215,0.283,-0.201,1.564,216.309,79.285,-0.427,13.277,5.977,-80.535
 14:35:28.934,eb:33:2e:f9:57:b5, 2085-97-193 02:93:254:3209,0.36,-0.206,1.562,247.314,85.327,-11.841,15.623,6.79,-80.381
 14:35:28.966,eb:33:2e:f9:57:b5, 2085-97-196 02:55:254:3324,0.356,-0.228,1.607,282.715,90.332,-25.085,18.298,7.69,-80.299
 14:35:28.966,eb:33:2e:f9:57:b5, 2085-97-204 02:126:254:3573,0.354,-0.227,1.655,323.669,93.994,-45.044,21.341,8.679,-80.31
 14:35:28.966,eb:33:2e:f9:57:b5, 2085-97-110 02:146:255:3880,0.177,-0.156,1.82,364.197,109.985,-71.838,24.785,9.844,-80.453
 14:35:28.966,eb:33:2e:f9:57:b5, 2085-97-174 00:97:03:3496,0.076,0.198,1.797,393.066,120.3,-90.271,28.564,11.294,-80.64
 14:35:29.025,eb:33:2e:f9:57:b5, 2085-97-170 00:133:05:3861,-0.021,0.598,1.841,411.316,82.153,-113.098,32.52,12.673,-81.013
 14:35:29.025,eb:33:2e:f9:57:b5, 2085-97-147 254:167:02:4069,-0.226,0.61,1.925,425.598,51.88,-129.089,36.557,13.909,-81.683
 14:35:29.025,eb:33:2e:f9:57:b5, 2085-97-242 254:35:04:5042,0.045,0.357,2.082,429.016,32.227,-130.615,40.655,15.029,-82.458
 14:35:29.025,eb:33:2e:f9:57:b5, 2085-97-51 01:26:04:5859,0.268,0.567,2.81,406.921,45.776,-139.893,44.632,16.232,-83.227
 14:35:29.114,eb:33:2e:f9:57:b5, 2085-97-206 02:252:00:5194,0.434,0.407,2.714,359.68,77.637,-142.212,48.301,17.693,-83.749
 14:35:29.114,eb:33:2e:f9:57:b5, 2085-97-131 04:64:250:4171,0.651,-0.255,2.354,300.659,113.098,-129.944,51.542,19.358,-83.881
 14:35:29.114,eb:33:2e:f9:57:b5, 2085-97-04 05:13:245:2274,0.285,-1.091,1.926,250.366,160.583,-105.713,54.355,21.132,-83.419
 14:35:29.114,eb:33:2e:f9:57:b5, 2085-97-171 01:175:249:-236,0.233,-0.762,0.045,175.598,116.272,-68.115,56.898,22.599,-82.645
 14:35:29.117,eb:33:2e:f9:57:b5, 2085-97-67 02:08:250:867,0.325,-0.87,0.16,55.786,105.164,-25.757,58.26,23.56,-81.87
 14:35:29.117,eb:33:2e:f9:57:b5, 2085-97-178 02:145:251:1685,0.318,-0.602,0.657,-19.409,71.899,-4.944,58.667,24.115,-81.129
 14:35:29.117,eb:33:2e:f9:57:b5, 2085-97-174 02:88:251:1656,0.339,-0.581,0.872,-53.467,59.204,6.042,58.486,24.417,-80.535
 14:35:29.117,eb:33:2e:f9:57:b5, 2085-97-00 03:134:252:1098,0.406,-0.512,0.681,-65.125,55.542,12.695,58.134,24.626,-79.931
 14:35:29.119,eb:33:2e:f9:57:b5, 2085-97-245 02:253:252:589,0.345,-0.417,0.404,-72.998,42.542,13.184,57.645,24.763,-79.393
 14:35:29.119,eb:33:2e:f9:57:b5, 2085-97-153 02:42:253:107,0.302,-0.353,0.142,-82.153,12.024,10.071,57.003,24.807,-79.085
 14:35:29.119,eb:33:2e:f9:57:b5, 2085-97-53 02:215:252:000,0.246,-0.37,0.003,-97.229,-19.104,9.216,56.091,24.686,-79.08
 14:35:29.119,eb:33:2e:f9:57:b5, 2085-97-182 01:119:252:176,0.186,-0.418,0.028,-116.089,-44.373,9.033,54.915,24.428,-79.338
 14:35:29.175,eb:33:2e:f9:57:b5, 2085-97-82 01:32:252:446,0.15,-0.465,0.159,-135.803,-61.523,11.292,53.459,24.022,-79.766
 14:35:29.175,eb:33:2e:f9:57:b5, 2085-97-32 01:236:251:609,0.137,-0.5,0.264,-156.067,-68.97,15.747,51.795,23.516,-80.266
 14:35:29.175,eb:33:2e:f9:57:b5, 2085-97-29 01:248:251:694,0.146,-0.513,0.325,-176.331,-71.96,20.752,49.922,22.923,-80.744
 14:35:29.175,eb:33:2e:f9:57:b5, 2085-97-58 01:59:252:707,0.159,-0.487,0.344,-196.777,-78.003,23.987,47.867,22.264,-81.205
 14:35:29.204,eb:33:2e:f9:57:b5, 2085-97-85 01:96:252:748,0.174,-0.458,0.349,-218.628,-90.942,24.109,45.588,21.506,-81.7
 14:35:29.204,eb:33:2e:f9:57:b5, 2085-97-107 01:95:252:919,0.181,-0.45,0.4,-242.065,-105.469,23.071,43.066,20.638,-82.277
 14:35:29.204,eb:33:2e:f9:57:b5, 2085-97-127 01:77:252:1179,0.19,-0.458,0.508,-264.099,-119.324,20.813,40.287,19.644,-82.914
 14:35:29.204,eb:33:2e:f9:57:b5, 2085-97-149 01:65:252:1435,0.202,-0.468,0.638,-283.264,-130.737,17.7,37.315,18.55,-83.611
 14:35:29.234,eb:33:2e:f9:57:b5, 2085-97-171 01:85:252:1693,0.222,-0.465,0.756,-298.889,-138.611,14.709,34.162,17.358,-84.315
 14:35:29.235,eb:33:2e:f9:57:b5, 2085-97-224 01:141:252:1905,0.248,-0.448,0.879,-311.218,-146.179,10.498,30.894,16.095,-85.029
 14:35:29.235,eb:33:2e:f9:57:b5, 2085-97-25 02:219:252:2142,0.276,-0.413,0.986,-318.359,-153.748,5.493,27.537,14.738,-85.732
 14:35:29.235,eb:33:2e:f9:57:b5, 2085-97-71 02:41:253:2381,0.29,-0.373,1.104,-322.266,-162.048,-0.244,24.159,13.315,-86.44
 14:35:29.294,eb:33:2e:f9:57:b5, 2085-97-44 02:48:253:2648,0.239,-0.345,1.22,-325.073,-171.631,-5.981,20.753,11.777,-87.149
 14:35:29.294,eb:33:2e:f9:57:b5, 2085-97-225 01:83:253:3034,0.275,-0.344,1.42,-329.773,-179.626,-9.277,17.347,10.14,-87.836
 14:35:29.294,eb:33:2e:f9:57:b5, 2085-97-99 02:184:253:3294,0.292,-0.305,1.514,-335.693,-187.134,-11.292,13.898,8.405,-88.451
 14:35:29.294,eb:33:2e:f9:57:b5, 2085-97-70 02:33:254:3771,0.266,-0.26,1.721,-337.097,-195.068,-13.733,10.459,6.564,-89.006
 14:35:29.325,eb:33:2e:f9:57:b5, 2085-97-223 01:131:254:4423,0.199,-0.212,1.983,-328.918,-204.285,-13.855,7.059,4.603,-89.467
 14:35:29.325,eb:33:2e:f9:57:b5, 2085-97-66 01:148:255:5159,0.105,-0.139,2.353,-305.298,-209.351,-7.751,3.867,2.549,-89.797
 14:35:29.325,eb:33:2e:f9:57:b5, 2085-97-98 00:45:01:5395,-0.001,0.045,2.62,-280.09,-213.379,0.854,0.939,0.434,-89.934
 14:35:29.325,eb:33:2e:f9:57:b5, 2085-113-58 00:69:217:1680,-0.042,0.225,2.592,-276.489,-224.06,10.071,-1.818,-1.752,-89.885
 14:35:29.354,eb:33:2e:f9:57:b5, 2085-97-95 255:125:02:5212,-0.133,0.272,2.551,-282.104,-228.149,17.578,-3.219,-2.884,-89.775
 14:35:29.354,eb:33:2e:f9:57:b5, 2085-97-91 254:43:03:5282,-0.307,0.359,2.565,-297.058,-237.366,39.062,-6.174,-5.197,-89.319
 14:35:29.354,eb:33:2e:f9:57:b5, 2085-97-218 252:101:03:5091,-0.486,0.406,2.535,-306.885,-247.864,65.552,-9.305,-7.542,-88.478
 14:35:29.354,eb:33:2e:f9:57:b5, 2085-97-41 251:75:05:5201,-0.722,0.522,2.474,-306.824,-257.629,95.276,-12.596,-9.888,-87.198
 14:35:29.415,eb:33:2e:f9:57:b5, 2085-97-112 249:251:07:5749,-0.9,0.814,2.667,-298.401,-264.16,118.591,-15.958,-12.189,-85.485
 14:35:29.415,eb:33:2e:f9:57:b5, 2085-97-134 248:194:11:6229,-0.919,1.216,2.94,-282.104,-239.563,138.733,-19.352,-14.244,-83.441
 14:35:29.415,eb:33:2e:f9:57:b5, 2085-97-59 249:213:17:6101,-0.701,1.836,3.067,-257.446,-158.813,154.724,-22.615,-15.623,-81.271
 14:35:29.415,eb:33:2e:f9:57:b5, 2085-97-85 251:118:26:4958,-0.701,2.677,2.773,-230.103,-53.04,148.865,-25.582,-15.947,-79.382
 14:35:29.445,eb:33:2e:f9:57:b5, 2085-97-162 249:74:38:2354,-0.863,4.082,1.693,-187.012,-0.793,109.985,-28.021,-15.48,-78.102
 14:35:29.445,eb:33:2e:f9:57:b5, 2085-97-03 249:235:39:2172,-0.806,5.141,0.872,-96.802,-80.017,26.917,-29.663,-15.502,-77.289
 14:35:29.445,eb:33:2e:f9:57:b5, 2085-97-06 248:93:31:4248,-1.04,4.446,1.716,23.01,-106.934,-45.288,-30.086,-16.551,-76.899
 14:35:29.445,eb:33:2e:f9:57:b5, 2085-97-53 230:191:15:11292,0.121,3.549,2.857,137.634,-177.429,-207.947,-29.114,-17.847,-77.173
 14:35:29.475,eb:33:2e:f9:57:b5, 2085-97-178 14:141:252:1569,3.208,0.22,0.54,228.76,187.561,-35.828,-26.373,-16.282,-78.415
 14:35:29.475,eb:33:2e:f9:57:b5, 2085-97-11 18:20:242:2868,-2.915,-1.531,1.748,257.935,351.746,-57.373,-23.577,-14.31,-79.975
 14:35:29.475,eb:33:2e:f9:57:b5, 2085-97-115 244:162:242:-1501,-0.812,-2.177,-0.528,348.083,419.25,3.296,-20.176,-10.206,-81.832
 14:35:29.475,eb:33:2e:f9:57:b5, 2085-97-58 252:04:03:1368,-0.301,-0.634,-0.149,380.31,124.573,86.548,-16.397,-7.877,-81.991
 14:35:29.535,eb:33:2e:f9:57:b5, 2085-97-65 253:160:06:1944,-0.316,0.845,1.032,330.2,118.225,63.843,-12.892,-6.625,-81.491
 14:35:29.535,eb:33:2e:f9:57:b5, 2085-97-63 253:173:04:1913,-0.333,0.614,0.853,269.958,85.083,25.879,-9.959,-5.499,-81.277
 14:35:29.535,eb:33:2e:f9:57:b5, 2085-97-133 254:89:03:2075,-0.166,0.572,0.991,222.351,55.725,-7.446,-7.526,-4.834,-81.299
 14:35:29.535,eb:33:2e:f9:57:b5, 2085-97-96 255:99:01:2058,-0.136,0.371,1.062,189.148,38.818,-27.405,-5.471,-4.4,-81.535
 14:35:29.594,eb:33:2e:f9:57:b5, 2085-97-111 255:145:03:2313,-0.057,0.105,0.939,170.776,21.912,-30.212,-3.675,-4.114,-81.854
 14:35:29.594,eb:33:2e:f9:57:b5, 2085-97-207 01:33:04:2546,0.394,0.621,1.363,117.126,57.19,-28.137,-2.17,-3.807,-82.227
 14:35:29.594,eb:33:2e:f9:57:b5, 2085-97-78 00:126:02:2085,-0.151,0.423,1.314,48.767,101.44,16.418,-1.395,-3.021,-82.249
 14:35:29.594,eb:33:2e:f9:57:b5, 2085-97-246 254:212:00:1721,-0.116,0.192,0.865,25.024,80.139,11.658,-1.066,-2.054,-82.106
 14:35:29.596,eb:33:2e:f9:57:b5, 2085-97-213 255:121:00:1940,0.012,0.085,0.854,15.137,32.288,7.385,-0.884,-1.538,-82.018
 14:35:29.596,eb:33:2e:f9:57:b5, 2085-97-74 00:69:00:2061,0.038,0.037,0.983,11.047,20.63,5.615,-0.758,-1.296,-81.953
 14:35:29.596,eb:33:2e:f9:57:b5, 2085-97-58 00:70:00:2042,0.024,0.041,1.003,7.385,20.081,6.226,-0.665,-1.088,-81.892
 14:35:29.596,eb:33:2e:f9:57:b5, 2085-97-24 00:66:00:2030,0.008,0.02,1,4.761,18.921,6.897,-0.61,-0.895,-81.826
 14:35:29.656,eb:33:2e:f9:57:b5, 2085-97-13 00:48:00:2026,0.008,0.032,0.99,2.258,13.794,5.737,-0.582,-0.731,-81.766
 14:35:29.656,eb:33:2e:f9:57:b5, 2085-97-08 00:18:00:2035,0,0.013,0.994,1.343,8.789,4.517,-0.56,-0.621,-81.711
 14:35:29.656,eb:33:2e:f9:57:b5, 2085-97-07 00:28:00:2028,0.008,0.011,0.99,1.038,4.517,4.211,-0.549,-0.555,-81.667
 14:35:29.656,eb:33:2e:f9:57:b5, 2085-97-20 00:18:00:2040,0.013,0.011,0.994,0.61,1.16,3.296,-0.538,-0.533,-81.628
 14:35:29.686,eb:33:2e:f9:57:b5, 2085-97-21 00:10:00:2044,0.005,0.005,1,0.732,-0.183,2.869,-0.533,-0.527,-81.595
 14:35:29.686,eb:33:2e:f9:57:b5, 2085-97-28 00:24:00:2048,0.029,0.008,0.994,0.977,-1.343,2.319,-0.522,-0.533,-81.568
 14:35:29.686,eb:33:2e:f9:57:b5, 2085-97-79 00:02:00:2098,0.039,0.006,1.015,0.916,0.122,2.258,-0.511,-0.544,-81.546
 14:35:29.686,eb:33:2e:f9:57:b5, 2085-97-53 00:02:00:2077,0.007,0,1.026,0.916,6.165,3.052,-0.5,-0.511,-81.519
 14:35:29.716,eb:33:2e:f9:57:b5, 2085-97-01 00:02:00:2031,0.007,0.002,0.997,1.16,7.446,3.967,-0.489,-0.434,-81.486
 14:35:29.716,eb:33:2e:f9:57:b5, 2085-97-38 00:254:255:2067,0.026,-0.003,0.999,1.587,5.249,5.005,-0.472,-0.374,-81.436
 14:35:29.716,eb:33:2e:f9:57:b5, 2085-97-58 00:16:00:2085,0.023,0.004,1.016,2.136,7.935,5.066,-0.456,-0.308,-81.381
 14:35:29.716,eb:33:2e:f9:57:b5, 2085-97-29 00:11:00:2060,0.01,0.008,1.014,2.014,12.024,5.066,-0.434,-0.203,-81.332
 14:35:29.774,eb:33:2e:f9:57:b5, 2085-97-22 00:07:00:2061,0.018,0.005,1.003,2.014,12.939,5.371,-0.412,-0.077,-81.277
 14:35:29.774,eb:33:2e:f9:57:b5, 2085-97-32 00:12:00:2075,0.012,0.006,1.015,2.075,15.076,5.615,-0.39,0.06,-81.222
 14:35:29.774,eb:33:2e:f9:57:b5, 2085-97-06 00:15:00:2057,0.004,0.006,1.01,2.441,17.578,5.615,-0.363,0.22,-81.161
 14:35:29.774,eb:33:2e:f9:57:b5, 2085-97-255 255:24:00:2049,0.002,0.009,1.006,2.686,18.311,5.31,-0.335,0.401,-81.107
 14:35:29.864,eb:33:2e:f9:57:b5, 2085-97-01 00:26:00:2056,-0.008,0.011,1.005,2.747,18.677,4.883,-0.308,0.588,-81.052
 14:35:29.864,eb:33:2e:f9:57:b5, 2085-97-233 255:19:00:2039,-0.006,0.011,0.997,2.93,18.433,4.395,-0.275,0.775,-81.008
 14:35:29.864,eb:33:2e:f9:57:b5, 2085-97-246 255:31:00:2054,0,0.012,1,3.296,17.029,3.845,-0.242,0.95,-80.964
 14:35:29.864,eb:33:2e:f9:57:b5, 2085-97-246 255:17:00:2051,0.006,0.012,1.008,3.723,16.479,3.296,-0.209,1.121,-80.925
 14:35:29.866,eb:33:2e:f9:57:b5, 2085-97-71 00:96:00:2090,0.016,0.022,1.007,4.456,14.832,2.808,-0.165,1.274,-80.892
 14:35:29.866,eb:33:2e:f9:57:b5, 2085-97-06 00:63:00:2123,0.083,0.035,1.019,6.592,12.573,-1.465,-0.104,1.417,-80.881
 14:35:29.866,eb:33:2e:f9:57:b5, 2085-97-170 00:69:00:2272,0.094,-0.001,1.16,7.996,11.902,-2.38,-0.027,1.538,-80.903
 14:35:29.866,eb:33:2e:f9:57:b5, 2085-97-165 00:112:00:2055,0.001,0.062,0.985,12.512,7.324,-4.761,0.066,1.67,-80.942
 14:35:29.895,eb:33:2e:f9:57:b5, 2085-97-138 254:01:255:2778,-0.117,0.075,1,14.832,4.333,-9.46,0.22,1.703,-81.008
 14:35:29.895,eb:33:2e:f9:57:b5, 2085-97-128 255:14:00:2045,-0.091,-0.095,1.197,17.334,12.817,-11.108,0.368,1.818,-81.112
 14:35:29.895,eb:33:2e:f9:57:b5, 2085-97-72 255:242:255:2057,-0.083,-0.002,1.002,19.165,6.775,-11.169,0.555,1.912,-81.222
 14:35:29.895,eb:33:2e:f9:57:b5, 2085-97-54 255:03:00:1972,-0.105,0.004,0.984,20.508,1.587,-10.437,0.753,1.956,-81.332
 14:35:29.955,eb:33:2e:f9:57:b5, 2085-97-51 255:244:255:2004,-0.073,-0.012,0.981,21.912,-5.371,-8.728,0.967,1.934,-81.425
 14:35:29.955,eb:33:2e:f9:57:b5, 2085-97-150 255:19:00:2106,-0.032,0.01,0.994,23.56,-11.108,-7.751,1.192,1.851,-81.508
 14:35:29.955,eb:33:2e:f9:57:b5, 2085-97-210 255:34:00:2160,-0.017,0.017,1.042,25.391,-11.902,-7.507,1.439,1.736,-81.59
 14:35:29.955,eb:33:2e:f9:57:b5, 2085-97-24 00:65:00:2215,-0.007,0.008,1.092,28.137,-11.963,-8.362,1.703,1.615,-81.672
 14:35:29.957,eb:33:2e:f9:57:b5, 2085-97-243 255:77:00:2159,-0.013,0.031,1.046,30.518,-10.681,-8.85,2,1.516,-81.76
 14:35:29.957,eb:33:2e:f9:57:b5, 2085-97-229 255:83:00:2132,-0.01,0.036,1.037,31.799,-10.01,-9.155,2.313,1.417,-81.859
 14:35:29.957,eb:33:2e:f9:57:b5, 2085-97-224 255:92:00:2103,-0.024,0.041,1.037,32.715,-9.521,-8.789,2.631,1.324,-81.953
 14:35:29.957,eb:33:2e:f9:57:b5, 2085-97-210 255:80:00:2139,-0.018,0.041,1.034,33.508,-10.132,-7.69,2.961,1.236,-82.04
 14:35:30.106,eb:33:2e:f9:57:b5, 2085-97-247 255:119:00:2103,-0.001,0.044,1.034,34.546,-10.01,-5.615,3.301,1.137,-82.112
 14:35:30.106,eb:33:2e:f9:57:b5, 2085-97-254 255:129:00:2117,0.014,0.067,1.021,33.936,-7.202,-3.723,3.647,1.055,-82.161
 14:35:30.106,eb:33:2e:f9:57:b5, 2085-97-58 00:120:00:2238,0.047,0.063,1.067,33.752,-3.784,-1.77,3.983,1,-82.194
 14:35:30.106,eb:33:2e:f9:57:b5, 2085-97-118 00:131:00:2335,0.049,0.064,1.125,35.095,2.441,-0.61,4.329,0.994,-82.205
 14:35:30.109,eb:33:2e:f9:57:b5, 2085-97-72 00:129:00:2282,0,0.064,1.132,37.537,9.644,0.244,4.697,1.06,-82.2
 14:35:30.109,eb:33:2e:f9:57:b5, 2085-97-197 255:89:00:2181,-0.044,0.057,1.083,40.222,13.184,1.953,5.087,1.181,-82.178
 14:35:30.109,eb:33:2e:f9:57:b5, 2085-97-170 255:71:00:2236,-0.024,0.038,1.07,43.213,12.207,5.249,5.51,1.307,-82.123
 14:35:30.109,eb:33:2e:f9:57:b5, 2085-97-24 00:59:00:2445,0.042,0.033,1.123,47.852,10.498,7.996,5.966,1.412,-82.046
 14:35:30.109,eb:33:2e:f9:57:b5, 2085-97-181 00:73:00:2673,0.126,0.032,1.243,54.81,14.709,8.911,6.482,1.522,-81.942
 14:35:30.109,eb:33:2e:f9:57:b5, 2085-97-08 01:90:00:2745,0.118,0.042,1.332,63.599,25.513,8.057,7.086,1.714,-81.832
 14:35:30.109,eb:33:2e:f9:57:b5, 2085-97-221 00:52:00:2762,0.104,0.034,1.344,73.73,36.072,6.287,7.778,2.021,-81.716
 14:35:30.110,eb:33:2e:f9:57:b5, 2085-97-210 00:72:00:2751,0.111,0.026,1.346,85.083,44.189,5.005,8.586,2.411,-81.595
 14:35:30.164,eb:33:2e:f9:57:b5, 2085-97-233 00:85:00:2753,0.1,0.049,1.34,99.121,50.049,1.404,9.52,2.884,-81.48
 14:35:30.164,eb:33:2e:f9:57:b5, 2085-97-171 00:24:00:2756,0.062,0.022,1.351,113.159,54.077,-2.075,10.591,3.395,-81.392
 14:35:30.164,eb:33:2e:f9:57:b5, 2085-97-57 00:226:255:2695,-0.006,0.006,1.323,128.479,55.298,-4.089,11.816,3.944,-81.31
 14:35:30.164,eb:33:2e:f9:57:b5, 2085-97-221 255:125:255:2720,-0.004,-0.045,1.319,144.714,54.749,-4.456,13.195,4.488,-81.227
 14:35:30.167,eb:33:2e:f9:57:b5, 2085-97-69 00:197:255:2677,0.067,-0.053,1.316,162.537,54.626,-3.845,14.744,5.032,-81.129
 14:35:30.167,eb:33:2e:f9:57:b5, 2085-97-206 00:234:255:2779,0.125,-0.005,1.321,183.472,52.307,-7.69,16.49,5.559,-81.03
 14:35:30.167,eb:33:2e:f9:57:b5, 2085-97-67 01:185:255:2909,0.209,-0.019,1.391,207.092,54.626,-15.076,18.463,6.097,-80.975
 14:35:30.167,eb:33:2e:f9:57:b5, 2085-97-243 01:217:255:3072,0.283,-0.031,1.453,234.619,61.707,-24.78,20.682,6.718,-80.958
 14:35:30.225,eb:33:2e:f9:57:b5, 2085-97-47 02:180:255:3133,0.272,-0.027,1.562,267.517,67.139,-39.734,23.198,7.438,-81.019
 14:35:30.225,eb:33:2e:f9:57:b5, 2085-97-13 02:103:00:3197,0.195,-0.036,1.534,305.603,74.158,-54.016,26.06,8.273,-81.151
 14:35:30.225,eb:33:2e:f9:57:b5, 2085-97-203 01:180:01:2987,0.262,0.129,1.576,339.05,80.933,-68.726,29.284,9.261,-81.326
 14:35:30.225,eb:33:2e:f9:57:b5, 2085-97-229 02:81:06:2436,0.373,0.545,1.273,373.779,51.27,-83.557,32.816,10.25,-81.606
 14:35:30.225,eb:33:2e:f9:57:b5, 2085-97-237 02:140:10:3231,0.113,1.132,1.276,395.02,-29.846,-114.624,36.535,10.904,-82.381
 14:35:30.255,eb:33:2e:f9:57:b5, 2085-113-81 00:237:85:10457,0.057,1.133,1.989,390.381,-86.548,-146.79,40.226,11.234,-83.848
 14:35:30.255,eb:33:2e:f9:57:b5, 2085-97-86 00:53:07:4707,-0.03,1.059,2.174,383.118,-91.675,-152.039,41.99,11.398,-84.732
 14:35:30.255,eb:33:2e:f9:57:b5, 2085-97-143 255:02:07:4802,-0.121,1.025,2.251,359.985,-77.454,-163.94,45.341,11.887,-86.484
 14:35:30.255,eb:33:2e:f9:57:b5, 2085-97-54 255:235:03:4695,0.003,0.677,2.391,322.083,-34.485,-172.058,48.395,12.755,-88.088
 14:35:30.285,eb:33:2e:f9:57:b5, 2085-97-63 01:217:255:4303,0.24,0.322,2.196,274.414,10.315,-172.974,51.081,14.024,-89.286
 14:35:30.285,eb:33:2e:f9:57:b5, 2085-97-169 03:134:251:3504,0.606,-0.311,1.918,227.966,50.415,-167.847,53.355,15.584,-90.066
 14:35:30.285,eb:33:2e:f9:57:b5, 2085-97-213 05:130:253:690,0.597,-0.479,1.136,202.454,63.843,-190.857,55.333,17.375,-90.555
 14:35:30.285,eb:33:2e:f9:57:b5, 2085-97-99 03:149:254:-057,0.294,-0.07,-0.128,130.005,-3.418,-236.267,56.711,19.319,-91.593
 14:35:30.344,eb:33:2e:f9:57:b5, 2085-97-64 01:36:253:1010,0.006,-0.3,0.248,24.414,-40.1,-245.239,56.86,21.248,-93.197
 14:35:30.344,eb:33:2e:f9:57:b5, 2085-97-187 254:219:251:1774,-0.28,-0.418,0.696,-54.504,-80.688,-233.276,55.898,22.917,-95.191
 14:35:30.344,eb:33:2e:f9:57:b5, 2085-97-96 252:09:250:2185,-0.547,-0.66,1.146,-98.694,-68.054,-190.552,54.261,24.225,-97.229
 14:35:30.344,eb:33:2e:f9:57:b5, 2085-97-32 251:19:250:2232,-0.638,-0.778,1.125,-109.314,-31.25,-128.296,52.575,25.203,-98.718
 14:35:30.375,eb:33:2e:f9:57:b5, 2085-97-217 250:99:251:2018,-0.62,-0.673,1.038,-96.924,11.963,-62.317,51.24,25.895,-99.388
 14:35:30.375,eb:33:2e:f9:57:b5, 2085-97-138 251:55:253:1456,-0.481,-0.467,0.868,-75.195,41.138,-4.578,50.416,26.312,-99.327
 14:35:30.375,eb:33:2e:f9:57:b5, 2085-97-212 252:17:255:725,-0.332,-0.218,0.522,-58.716,39.185,38.635,49.977,26.417,-98.817
 14:35:30.376,eb:33:2e:f9:57:b5, 2085-97-208 253:55:00:273,-0.237,-0.029,0.219,-54.016,16.357,66.65,49.702,26.164,-98.19
 14:35:30.406,eb:33:2e:f9:57:b5, 2085-97-56 254:179:00:251,-0.233,0.072,0.096,-57.8,-18.555,78.857,49.356,25.565,-97.685
 14:35:30.406,eb:33:2e:f9:57:b5, 2085-97-254 253:245:00:433,-0.276,0.107,0.162,-64.697,-49.011,80.566,48.856,24.714,-97.416
 14:35:30.406,eb:33:2e:f9:57:b5, 2085-97-159 253:53:01:571,-0.338,0.138,0.223,-72.205,-68.176,71.777,48.175,23.741,-97.366
 14:35:30.406,eb:33:2e:f9:57:b5, 2085-97-235 252:121:01:599,-0.418,0.167,0.282,-78.125,-77.698,58.472,47.368,22.764,-97.509
 14:35:30.464,eb:33:2e:f9:57:b5, 2085-97-91 252:94:01:633,-0.481,0.18,0.305,-83.923,-85.876,40.71,46.428,21.835,-97.817
 14:35:30.464,eb:33:2e:f9:57:b5, 2085-97-248 251:247:00:727,-0.513,0.151,0.331,-92.285,-87.952,21.484,45.374,21.011,-98.284
 14:35:30.464,eb:33:2e:f9:57:b5, 2085-97-221 251:64:00:726,-0.507,0.074,0.378,-104.431,-79.712,2.502,44.176,20.347,-98.844
 14:35:30.464,eb:33:2e:f9:57:b5, 2085-97-09 252:129:255:653,-0.478,-0.017,0.343,-117.371,-73.547,-12.939,42.852,19.841,-99.465
 14:35:30.494,eb:33:2e:f9:57:b5, 2085-97-66 252:09:255:596,-0.438,-0.097,0.327,-130.493,-68.298,-24.414,41.369,19.446,-100.135
 14:35:30.494,eb:33:2e:f9:57:b5, 2085-97-189 252:209:254:540,-0.361,-0.138,0.28,-145.569,-73.12,-35.95,39.743,19.116,-100.876
 14:35:30.494,eb:33:2e:f9:57:b5, 2085-97-124 253:170:254:548,-0.26,-0.163,0.269,-164.49,-78.674,-45.715,37.897,18.781,-101.733
 14:35:30.494,eb:33:2e:f9:57:b5, 2085-97-95 254:185:254:574,-0.152,-0.169,0.277,-186.768,-87.708,-58.167,35.826,18.435,-102.711
 14:35:30.525,eb:33:2e:f9:57:b5, 2085-97-64 255:202:254:654,-0.055,-0.145,0.286,-209.351,-99.243,-74.707,33.459,18.056,-103.854
 14:35:30.525,eb:33:2e:f9:57:b5, 2085-97-246 255:193:254:866,0.022,-0.148,0.353,-227.051,-109.68,-93.445,30.855,17.628,-105.2
 14:35:30.525,eb:33:2e:f9:57:b5, 2085-97-118 00:210:254:1090,0.077,-0.143,0.436,-237.305,-124.573,-114.502,28.048,17.144,-106.754
 14:35:30.525,eb:33:2e:f9:57:b5, 2085-97-146 00:213:254:1330,0.025,-0.144,0.587,-241.455,-130.005,-134.399,25.137,16.578,-108.534
 14:35:30.585,eb:33:2e:f9:57:b5, 2085-97-180 255:205:254:1597,-0.11,-0.151,0.703,-243.225,-136.78,-150.452,22.159,15.947,-110.468
 14:35:30.585,eb:33:2e:f9:57:b5, 2085-97-73 254:192:254:1902,-0.347,-0.157,0.858,-240.54,-138.977,-156.799,19.199,15.222,-112.495
 14:35:30.586,eb:33:2e:f9:57:b5, 2085-97-46 252:227:254:2161,-0.57,-0.147,0.993,-229.553,-138,-145.752,16.342,14.387,-114.439
 14:35:30.586,eb:33:2e:f9:57:b5, 2085-97-230 250:81:255:2430,-0.688,-0.127,1.125,-211.243,-132.019,-118.469,13.733,13.436,-116.125
 14:35:30.614,eb:33:2e:f9:57:b5, 2085-97-64 250:227:00:2373,-0.743,0,1.202,-180.847,-118.103,-76.599,11.486,12.442,-117.378
 14:35:30.614,eb:33:2e:f9:57:b5, 2085-97-209 249:215:02:2090,-0.804,0.237,1.074,-143.188,-121.704,-32.532,9.728,11.387,-118.13
 14:35:30.614,eb:33:2e:f9:57:b5, 2085-97-73 249:70:04:2147,-0.875,0.45,1.023,-113.22,-138.855,7.202,8.399,10.107,-118.46
 14:35:30.614,eb:33:2e:f9:57:b5, 2085-97-192 248:89:05:2328,-0.947,0.619,1.092,-97.29,-154.175,44.556,7.372,8.613,-118.4
 14:35:30.644,eb:33:2e:f9:57:b5, 2085-97-34 248:202:05:2713,-0.999,0.702,1.21,-88.684,-164.368,75.012,6.482,6.932,-117.999
 14:35:30.644,eb:33:2e:f9:57:b5, 2085-97-220 247:115:06:3186,-1.042,0.747,1.463,-66.528,-161.682,106.445,5.779,5.191,-117.268
 14:35:30.644,eb:33:2e:f9:57:b5, 2085-97-124 247:148:08:3127,-1.058,0.932,1.551,-31.677,-152.588,132.874,5.361,3.505,-116.219
 14:35:30.644,eb:33:2e:f9:57:b5, 2085-97-83 247:23:11:3199,-1.106,1.23,1.525,-4.456,-136.536,157.043,5.273,1.928,-114.911
 14:35:30.706,eb:33:2e:f9:57:b5, 2085-97-253 246:03:13:3595,-1.125,1.522,1.663,-13.062,-107.422,171.631,5.235,0.527,-113.384
 14:35:30.706,eb:33:2e:f9:57:b5, 2085-97-110 247:242:14:3629,-0.987,1.73,1.799,-54.504,-32.715,175.659,4.889,-0.335,-111.709
 14:35:30.706,eb:33:2e:f9:57:b5, 2085-97-202 248:33:18:3111,-0.806,2.062,1.645,-86.853,42.358,159.18,4.114,-0.363,-110.012
 14:35:30.706,eb:33:2e:f9:57:b5, 2085-97-253 249:79:21:2606,-0.706,2.484,1.386,-79.834,63.354,115.54,3.241,0.115,-108.594
 14:35:30.765,eb:33:2e:f9:57:b5, 2085-97-115 250:253:21:2392,-0.706,2.754,1.222,-42.236,50.781,56.274,2.637,0.632,-107.726
 14:35:30.765,eb:33:2e:f9:57:b5, 2085-97-17 250:59:20:2306,-0.753,2.655,1.144,-4.639,48.706,1.77,2.433,1.093,-107.441
 14:35:30.765,eb:33:2e:f9:57:b5, 2085-97-216 249:178:17:2214,-0.768,2.374,1.097,20.569,63.538,-35.767,2.532,1.67,-107.617
 14:35:30.765,eb:33:2e:f9:57:b5, 2085-113-58 00:115:216:270,-0.75,2.049,1.061,44.006,82.825,-53.955,2.851,2.444,-108.045
 14:35:30.767,eb:33:2e:f9:57:b5, 2085-97-83 250:241:13:1933,-0.664,1.896,1.014,57.983,89.844,-56.702,3.104,2.895,-108.298
 14:35:30.767,eb:33:2e:f9:57:b5, 2085-97-05 251:126:11:1575,-0.577,1.589,0.852,87.402,94.055,-48.34,3.823,3.867,-108.765
 14:35:30.767,eb:33:2e:f9:57:b5, 2085-97-200 251:231:08:1408,-0.466,1.277,0.719,112.305,87.952,-25.33,4.818,4.807,-109.05
 14:35:30.767,eb:33:2e:f9:57:b5, 2085-97-229 252:189:06:1320,0.696,0.963,0.67,131.165,85.449,5.859,6.059,5.674,-109.045
 14:35:30.826,eb:33:2e:f9:57:b5, 2085-97-243 09:40:01:-4713,0.65,-0.552,-2.043,70.068,-59.631,47.485,7.333,6.004,-108.666
 14:35:30.826,eb:33:2e:f9:57:b5, 2085-97-223 04:157:238:6256,0.326,-1.336,0.372,-127.014,-298.889,32.166,6.564,3.521,-108.759
 14:35:30.826,eb:33:2e:f9:57:b5, 2085-97-163 02:231:254:5352,0.812,-1.084,3.806,-84.167,-67.688,48.035,5.57,1.741,-108.572
 14:35:30.827,eb:33:2e:f9:57:b5, 2085-97-213 07:158:06:1651,0.972,0.534,1.407,-80.444,-48.401,41.931,4.779,1.263,-108.155
 14:35:30.914,eb:33:2e:f9:57:b5, 2085-97-88 05:28:01:3385,0.364,0.586,1.088,-86.548,-26.733,7.385,3.928,0.824,-107.952
 14:35:30.914,eb:33:2e:f9:57:b5, 2085-97-228 02:84:255:3656,0.388,-0.127,1.967,-70.557,40.039,-12.268,3.153,0.895,-108.012
 14:35:30.914,eb:33:2e:f9:57:b5, 2085-97-253 02:214:01:2486,0.255,0.131,1.378,-63.599,99.609,-16.846,2.494,1.686,-108.089
 14:35:30.914,eb:33:2e:f9:57:b5, 2085-97-59 00:79:00:2466,-0.254,0.147,1.231,-57.678,109.131,-33.813,1.884,2.78,-108.309
 14:35:30.916,eb:33:2e:f9:57:b5, 2085-97-217 251:11:254:2092,-0.575,-0.115,1.049,-46.082,84.473,-31.311,1.346,3.774,-108.611
 14:35:30.916,eb:33:2e:f9:57:b5, 2085-97-87 252:107:254:1998,-0.381,-0.286,1.024,-33.447,49.866,-17.212,0.945,4.438,-108.825
 14:35:30.916,eb:33:2e:f9:57:b5, 2085-97-229 252:194:254:1901,-0.372,-0.133,0.919,-23.071,10.498,-6.226,0.665,4.724,-108.929
 14:35:30.916,eb:33:2e:f9:57:b5, 2085-97-234 253:08:255:2161,-0.114,-0.173,0.998,-15.137,-21.79,6.775,0.478,4.642,-108.918
 14:35:30.944,eb:33:2e:f9:57:b5, 2085-97-247 255:10:00:2411,0.046,-0.036,1.11,-8.057,-34.058,11.475,0.379,4.334,-108.82
 14:35:30.944,eb:33:2e:f9:57:b5, 2085-97-192 00:06:00:2745,0.126,0.01,1.263,-4.944,-25.818,11.108,0.33,4.026,-108.71
 14:35:30.944,eb:33:2e:f9:57:b5, 2085-97-232 00:217:255:2904,0.063,0.001,1.406,0.366,-7.629,7.935,0.313,3.867,-108.611
 14:35:30.944,eb:33:2e:f9:57:b5, 2085-97-33 00:125:255:2815,-0.023,-0.051,1.409,9.705,4.211,4.028,0.374,3.867,-108.55
 14:35:31.004,eb:33:2e:f9:57:b5, 2085-97-144 255:67:255:2711,-0.076,-0.074,1.339,20.02,5.493,3.174,0.533,3.922,-108.512
 14:35:31.004,eb:33:2e:f9:57:b5, 2085-97-61 255:84:255:2596,-0.093,-0.098,1.291,30.212,2.258,6.531,0.797,3.961,-108.468
 14:35:31.004,eb:33:2e:f9:57:b5, 2085-97-119 255:137:255:2540,-0.036,-0.087,1.269,40.161,-2.747,8.423,1.159,3.955,-108.391
 14:35:31.004,eb:33:2e:f9:57:b5, 2085-97-211 255:216:255:2483,-0.018,-0.035,1.225,46.875,0.549,10.559,1.609,3.939,-108.292
 14:35:31.007,eb:33:2e:f9:57:b5, 2085-97-211 255:08:00:2380,-0.038,-0.006,1.195,51.514,9.644,12.024,2.115,3.988,-108.171
 14:35:31.007,eb:33:2e:f9:57:b5, 2085-97-153 255:46:00:2219,-0.081,0.015,1.117,54.626,17.517,13.489,2.659,4.125,-108.034
 14:35:31.007,eb:33:2e:f9:57:b5, 2085-97-91 255:146:00:1987,-0.065,0.049,1.019,56.091,20.569,14.16,3.224,4.312,-107.88
 14:35:31.007,eb:33:2e:f9:57:b5, 2085-97-69 255:224:00:1923,-0.087,0.071,0.961,55.115,20.935,13.55,3.801,4.51,-107.726
 14:35:31.064,eb:33:2e:f9:57:b5, 2085-97-72 255:07:01:1806,-0.113,0.124,0.868,53.162,20.508,12.634,4.356,4.713,-107.573
 14:35:31.064,eb:33:2e:f9:57:b5, 2085-97-228 254:22:01:1676,-0.14,0.124,0.903,49.255,19.592,12.39,4.878,4.9,-107.43
 14:35:31.064,eb:33:2e:f9:57:b5, 2085-97-246 254:233:00:1902,-0.163,0.141,0.846,46.753,12.634,10.62,5.372,5.048,-107.298
 14:35:31.064,eb:33:2e:f9:57:b5, 2085-97-248 254:60:01:1759,-0.11,0.148,0.835,43.884,8.911,10.681,5.834,5.153,-107.172
 14:35:31.154,eb:33:2e:f9:57:b5, 2085-97-250 254:72:01:1849,-0.094,0.125,0.903,41.077,5.737,10.254,6.273,5.202,-107.062
 14:35:31.154,eb:33:2e:f9:57:b5, 2085-97-72 255:79:01:1918,-0.074,0.165,0.901,39.734,3.174,8.85,6.685,5.235,-106.957
 14:35:31.154,eb:33:2e:f9:57:b5, 2085-97-55 255:58:01:2002,-0.075,0.139,1.029,38.635,4.578,8.545,7.086,5.257,-106.87
 14:35:31.154,eb:33:2e:f9:57:b5, 2085-97-142 255:219:00:2262,-0.081,0.141,1.022,40.527,2.991,5.31,7.493,5.284,-106.804
 14:35:31.157,eb:33:2e:f9:57:b5, 2085-97-166 255:15:01:2225,-0.04,0.139,1.071,43.823,5.493,3.174,7.916,5.328,-106.743
 14:35:31.157,eb:33:2e:f9:57:b5, 2085-97-138 255:06:01:2308,-0.059,0.102,1.13,48.584,8.057,0.977,8.388,5.383,-106.716
 14:35:31.157,eb:33:2e:f9:57:b5, 2085-97-113 255:190:00:2314,-0.077,0.112,1.114,55.054,8.301,-0.916,8.91,5.471,-106.699
 14:35:31.157,eb:33:2e:f9:57:b5, 2085-97-79 255:189:00:2319,-0.083,0.096,1.15,62.012,8.606,-0.916,9.503,5.559,-106.694
 14:35:31.184,eb:33:2e:f9:57:b5, 2085-97-120 255:203:00:2375,-0.057,0.083,1.141,71.167,6.531,-1.587,10.173,5.63,-106.694
 14:35:31.184,eb:33:2e:f9:57:b5, 2085-97-187 255:246:00:2366,-0.008,0.114,1.145,79.59,6.653,-1.953,10.937,5.702,-106.694
 14:35:31.184,eb:33:2e:f9:57:b5, 2085-97-232 255:74:01:2319,0,0.134,1.173,87.341,10.742,-2.686,11.777,5.795,-106.699
 14:35:31.184,eb:33:2e:f9:57:b5, 2085-97-04 00:82:01:2338,0.002,0.156,1.14,94.604,14.099,-5.798,12.695,5.922,-106.721
 14:35:31.245,eb:33:2e:f9:57:b5, 2085-97-252 255:146:01:2256,-0.004,0.184,1.109,101.135,20.02,-7.996,13.672,6.108,-106.743
 14:35:31.245,eb:33:2e:f9:57:b5, 2085-97-239 255:185:01:2184,-0.016,0.202,1.088,106.628,26.428,-11.108,14.716,6.361,-106.776
 14:35:31.245,eb:33:2e:f9:57:b5, 2085-97-186 255:247:01:2107,-0.041,0.229,1.056,111.023,33.142,-14.099,15.804,6.691,-106.815
 14:35:31.245,eb:33:2e:f9:57:b5, 2085-97-172 255:34:02:2042,-0.045,0.252,1.014,114.075,37.964,-16.907,16.93,7.081,-106.859
 14:35:31.247,eb:33:2e:f9:57:b5, 2085-97-151 255:132:02:1952,-0.057,0.293,0.972,115.906,40.283,-19.653,18.078,7.515,-106.913
 14:35:31.247,eb:33:2e:f9:57:b5, 2085-97-106 255:197:02:1887,-0.097,0.33,0.938,116.15,41.138,-22.949,19.232,7.971,-106.979
 14:35:31.247,eb:33:2e:f9:57:b5, 2085-97-239 254:169:02:1937,-0.18,0.34,0.938,115.54,41.931,-25.757,20.38,8.443,-107.067
 14:35:31.247,eb:33:2e:f9:57:b5, 2085-97-96 254:177:02:1769,-0.23,0.342,0.912,114.441,44.8,-25.818,21.517,8.948,-107.15
 14:35:31.335,eb:33:2e:f9:57:b5, 2085-97-214 253:131:02:1666,-0.33,0.335,0.823,113.831,38.208,-23.499,22.648,9.432,-107.216
 14:35:31.335,eb:33:2e:f9:57:b5, 2085-97-226 252:251:01:1754,-0.436,0.277,0.834,114.197,29.114,-18.127,23.78,9.822,-107.271
 14:35:31.335,eb:33:2e:f9:57:b5, 2085-97-76 252:246:01:1736,-0.463,0.24,0.855,115.234,22.217,-7.385,24.928,10.107,-107.281
 14:35:31.335,eb:33:2e:f9:57:b5, 2085-97-103 252:255:01:1916,-0.418,0.247,0.883,116.455,12.939,4.639,26.104,10.261,-107.21
 14:35:31.394,eb:33:2e:f9:57:b5, 2085-97-12 253:15:02:2190,-0.327,0.252,0.985,120.239,10.254,14.16,27.307,10.311,-107.067
 14:35:31.394,eb:33:2e:f9:57:b5, 2085-97-166 253:80:02:2405,-0.277,0.271,1.139,127.808,14.282,21.851,28.597,10.327,-106.842
 14:35:31.394,eb:33:2e:f9:57:b5, 2085-97-217 253:77:02:2605,-0.282,0.283,1.226,138,23.01,26.672,29.982,10.371,-106.529
 14:35:31.394,eb:33:2e:f9:57:b5, 2085-97-135 253:235:01:3290,-0.333,0.271,1.384,153.503,29.663,31.067,31.514,10.448,-106.133
 14:35:31.396,eb:33:2e:f9:57:b5, 2085-97-90 253:68:02:4169,-0.317,0.248,1.833,176.575,42.725,35.095,33.261,10.569,-105.656
 14:35:31.396,eb:33:2e:f9:57:b5, 2085-97-115 253:68:03:4653,-0.285,0.382,2.165,198.425,75.317,38.879,35.272,10.844,-104.991
 14:35:31.396,eb:33:2e:f9:57:b5, 2085-97-115 254:50:03:4759,-0.08,0.403,2.312,215.942,117.798,43.457,37.529,11.382,-104.052
 14:35:31.396,eb:33:2e:f9:57:b5, 2085-97-52 00:100:04:4654,0.045,0.489,2.259,237.793,145.02,43.579,40.051,12.145,-102.821
 14:35:31.426,eb:33:2e:f9:57:b5, 2085-97-105 00:56:04:4728,0.152,0.49,2.346,260.986,159.363,35.522,42.852,13.013,-101.481
 14:35:31.426,eb:33:2e:f9:57:b5, 2085-97-199 01:76:05:4673,0.33,0.631,2.25,285.217,142.883,27.222,45.901,13.892,-100.129
 14:35:31.426,eb:33:2e:f9:57:b5, 2085-97-78 03:76:06:5084,0.474,0.792,2.362,291.443,104.492,14.343,49.065,14.551,-99.047
 14:35:31.426,eb:33:2e:f9:57:b5, 2085-97-10 04:75:02:5340,0.553,0.583,2.584,278.015,89.905,-1.282,52.114,15.095,-98.273
 14:35:31.455,eb:33:2e:f9:57:b5, 2085-97-100 04:171:253:5353,0.699,-0.117,2.571,246.46,124.084,-1.16,54.959,15.727,-97.416
 14:35:31.455,eb:33:2e:f9:57:b5, 2085-97-233 04:01:01:2237,0.485,-0.484,2.533,246.826,211.182,3.662,57.783,16.65,-95.889
 14:35:31.455,eb:33:2e:f9:57:b5, 2085-97-226 02:64:00:1239,0.373,0.426,0.435,170.471,166.687,-16.724,60.425,17.661,-94.257
 14:35:31.455,eb:33:2e:f9:57:b5, 2085-113-58 00:209:227:-2205,0.357,0.059,0.753,71.228,106.934,-20.874,61.919,18.468,-93.076
 14:35:31.455,eb:33:2e:f9:57:b5, 2085-97-63 02:252:00:2508,0.28,0.22,0.99,30.64,79.285,-28.87,62.26,18.787,-92.725
 14:35:31.516,eb:33:2e:f9:57:b5, 2085-97-44 02:216:254:2957,0.286,-0.068,1.391,-17.334,68.542,-38.574,62.408,19.413,-92.263
 14:35:31.516,eb:33:2e:f9:57:b5, 2085-97-232 01:237:254:2583,0.267,-0.142,1.398,-36.743,98.999,-35.645,62.32,20.127,-91.659
 14:35:31.516,eb:33:2e:f9:57:b5, 2085-97-76 02:42:255:1870,0.288,-0.098,1.112,-50.903,114.136,-36.56,62.155,20.934,-90.807
 14:35:31.516,eb:33:2e:f9:57:b5, 2085-97-86 02:114:255:1183,0.295,-0.091,0.725,-71.045,118.835,-31.921,61.891,21.775,-89.846
 14:35:31.545,eb:33:2e:f9:57:b5, 2085-97-81 02:141:255:770,0.3,-0.061,0.461,-98.877,110.291,-29.785,61.37,22.577,-88.912
 14:35:31.545,eb:33:2e:f9:57:b5, 2085-97-87 02:87:255:610,0.279,-0.065,0.326,-128.479,96.13,-28.748,60.54,23.324,-88.083
 14:35:31.545,eb:33:2e:f9:57:b5, 2085-97-71 02:244:254:445,0.301,-0.106,0.259,-156.616,84.961,-25.635,59.365,23.994,-87.38
 14:35:31.545,eb:33:2e:f9:57:b5, 2085-97-111 02:137:254:278,0.311,-0.163,0.186,-181.458,73.242,-22.827,57.903,24.604,-86.786
 14:35:31.604,eb:33:2e:f9:57:b5, 2085-97-145 02:40:254:010,0.338,-0.206,0.065,-202.515,58.533,-20.203,56.157,25.137,-86.303
 14:35:31.604,eb:33:2e:f9:57:b5, 2085-97-224 02:06:254:-295,0.373,-0.242,-0.065,-221.191,36.499,-17.517,54.163,25.554,-85.995
 14:35:31.604,eb:33:2e:f9:57:b5, 2085-97-18 03:199:253:-528,0.392,-0.255,-0.209,-242.188,6.165,-15.442,51.85,25.807,-85.924
 14:35:31.604,eb:33:2e:f9:57:b5, 2085-97-51 03:80:253:-484,0.396,-0.311,-0.267,-265.808,-27.161,-11.475,49.213,25.834,-86.127
 14:35:31.664,eb:33:2e:f9:57:b5, 2085-97-47 03:209:252:-195,0.396,-0.363,-0.186,-288.147,-56.458,-5.798,46.23,25.604,-86.556
 14:35:31.664,eb:33:2e:f9:57:b5, 2085-97-61 03:127:252:193,0.416,-0.421,-0.008,-304.443,-75.989,2.441,43.022,25.131,-87.105
 14:35:31.664,eb:33:2e:f9:57:b5, 2085-97-123 03:141:252:448,0.454,-0.443,0.167,-313.354,-86.914,11.658,39.677,24.467,-87.654
 14:35:31.664,eb:33:2e:f9:57:b5, 2085-97-216 03:31:253:493,0.511,-0.397,0.238,-318.726,-96.985,18.188,36.31,23.648,-88.154
 14:35:31.694,eb:33:2e:f9:57:b5, 2085-97-78 04:188:253:562,0.561,-0.32,0.261,-324.646,-112.549,18.799,32.882,22.67,-88.649
 14:35:31.694,eb:33:2e:f9:57:b5, 2085-97-147 04:18:254:831,0.569,-0.255,0.329,-331.482,-133.606,12.756,29.388,21.533,-89.209
 14:35:31.694,eb:33:2e:f9:57:b5, 2085-97-98 04:46:254:1242,0.53,-0.233,0.506,-335.388,-153.931,2.625,25.796,20.209,-89.879
 14:35:31.694,eb:33:2e:f9:57:b5, 2085-97-14 04:77:254:1597,0.445,-0.222,0.721,-336.914,-169.739,-8.362,22.187,18.743,-90.626
 14:35:31.697,eb:33:2e:f9:57:b5, 2085-97-255 02:65:254:1926,0.339,-0.209,0.839,-338.989,-182.312,-15.747,18.545,17.139,-91.417
 14:35:31.697,eb:33:2e:f9:57:b5, 2085-97-78 02:86:254:2148,0.229,-0.21,0.987,-341.797,-194.946,-17.639,14.93,15.392,-92.175
 14:35:31.697,eb:33:2e:f9:57:b5, 2085-97-87 01:04:254:2559,0.098,-0.227,1.148,-342.468,-208.069,-12.024,11.327,13.447,-92.829
 14:35:31.697,eb:33:2e:f9:57:b5, 2085-97-162 00:172:253:3074,0.062,-0.268,1.36,-342.712,-214.722,3.418,7.806,11.371,-93.257
 14:35:31.785,eb:33:2e:f9:57:b5, 2085-97-162 00:21:254:3547,0.124,-0.284,1.631,-342.651,-210.938,24.963,4.345,9.223,-93.356
 14:35:31.785,eb:33:2e:f9:57:b5, 2085-97-104 01:100:255:3800,0.229,-0.167,1.802,-341.125,-207.825,42.908,0.956,7.125,-93.12
 14:35:31.785,eb:33:2e:f9:57:b5, 2085-97-32 02:219:00:4149,0.288,0.02,1.921,-339.294,-219.299,51.208,-2.411,4.988,-92.626
 14:35:31.785,eb:33:2e:f9:57:b5, 2085-97-90 02:250:01:4873,0.273,0.184,2.182,-337.83,-238.403,51.025,-5.751,2.725,-91.967
 14:35:31.787,eb:33:2e:f9:57:b5, 2085-97-184 01:50:03:5799,0.131,0.316,2.605,-335.205,-252.441,49.133,-9.119,0.319,-91.176
 14:35:31.787,eb:33:2e:f9:57:b5, 2085-97-67 00:194:04:6652,-0.101,0.489,3.059,-330.566,-257.019,49.927,-12.464,-2.109,-90.236
 14:35:31.787,eb:33:2e:f9:57:b5, 2085-97-215 253:197:06:6988,-0.475,0.71,3.356,-317.81,-252.258,56.946,-15.798,-4.466,-89.121
 14:35:31.787,eb:33:2e:f9:57:b5, 2085-97-48 250:120:09:6868,-0.991,0.993,3.404,-289.368,-255.432,69.763,-18.968,-6.702,-87.775
 14:35:31.814,eb:33:2e:f9:57:b5, 2085-97-87 246:49:13:6933,-1.401,1.413,3.322,-248.047,-271.79,88.135,-21.885,-8.926,-86.111
 14:35:31.814,eb:33:2e:f9:57:b5, 2085-97-204 243:94:17:7317,-1.562,1.895,3.475,-202.087,-252.686,114.746,-24.467,-11.003,-84.106
 14:35:31.814,eb:33:2e:f9:57:b5, 2085-97-229 243:100:23:6842,-1.38,2.498,3.576,-160.034,-150.513,146.667,-26.691,-12.288,-82.002
 14:35:31.815,eb:33:2e:f9:57:b5, 2085-97-93 243:105:33:4037,-1.664,3.417,2.818,-125.854,-18.616,162.17,-28.482,-12.239,-80.228
 14:35:31.874,eb:33:2e:f9:57:b5, 2085-97-23 244:58:44:2517,-1.139,5.131,1.263,-64.819,-20.63,127.747,-29.767,-11.541,-78.854
 14:35:31.874,eb:33:2e:f9:57:b5, 2085-97-183 250:219:35:6019,-0.091,5.331,1.603,45.349,-73.73,47.791,-30.048,-11.618,-77.811
 14:35:31.874,eb:33:2e:f9:57:b5, 2085-97-225 05:198:240:1093,2.068,1.644,5.067,81.055,-32.41,-174.438,-29.152,-12.881,-77.915
 14:35:31.874,eb:33:2e:f9:57:b5, 2085-97-203 21:108:233:1019,1.121,-2.826,-0.636,173.645,-37.476,-132.08,-27.746,-13.782,-79.014
 14:35:31.905,eb:33:2e:f9:57:b5, 2085-97-71 01:153:04:3023,-0.213,-0.628,1.352,271.484,162.781,-146.667,-25.016,-13.7,-80.442
 14:35:31.905,eb:33:2e:f9:57:b5, 2085-97-122 254:204:254:1433,0.039,0.312,1.124,262.512,217.651,-230.408,-21.687,-12.596,-83.188
 14:35:31.905,eb:33:2e:f9:57:b5, 2085-97-95 01:167:250:1199,0.375,-0.65,0.54,264.099,163.208,-216.309,-18.452,-11.563,-86.067
 14:35:31.905,eb:33:2e:f9:57:b5, 2085-97-78 03:06:254:2152,0.27,-0.505,0.814,266.235,101.868,-177.673,-15.331,-10.909,-88.33
 14:35:31.964,eb:33:2e:f9:57:b5, 2085-97-217 01:167:01:2801,0.101,0.152,1.308,240.112,96.985,-158.447,-12.437,-10.338,-90.176
 14:35:31.964,eb:33:2e:f9:57:b5, 2085-97-32 01:230:255:2271,0.312,0.108,1.232,205.322,113.831,-135.498,-9.943,-9.547,-91.851
 14:35:31.964,eb:33:2e:f9:57:b5, 2085-97-254 02:76:255:2395,0.083,-0.068,1.119,183.96,100.708,-97.168,-7.795,-8.652,-93.159
 14:35:31.964,eb:33:2e:f9:57:b5, 2085-97-188 253:08:02:2540,-0.55,0.448,1.385,157.776,103.455,-82.886,-5.938,-7.729,-94.103
 14:35:31.994,eb:33:2e:f9:57:b5, 2085-97-154 252:95:02:2069,-0.17,0.292,1,126.404,99.609,-64.331,-4.422,-6.729,-94.911
 14:35:31.994,eb:33:2e:f9:57:b5, 2085-97-41 00:55:01:2421,0.294,0.179,1.053,102.6,93.201,-58.167,-3.23,-5.823,-95.565
 14:35:31.994,eb:33:2e:f9:57:b5, 2085-97-91 03:133:01:2558,-0.087,0.07,1.128,55.908,86.67,-15.503,-2.411,-4.949,-95.988
 14:35:31.994,eb:33:2e:f9:57:b5, 2085-97-234 254:144:00:1782,0.04,0.133,0.919,28.87,87.097,1.831,-2.038,-3.999,-96.021
 14:35:32.024,eb:33:2e:f9:57:b5, 2085-97-120 00:66:00:2035,0.002,0.049,0.969,19.714,60.608,4.7,-1.785,-3.296,-96.021
 14:35:32.024,eb:33:2e:f9:57:b5, 2085-97-204 255:87:00:1918,-0.027,0.02,0.956,13.245,47.302,9.216,-1.637,-2.752,-95.944
 14:35:32.024,eb:33:2e:f9:57:b5, 2085-97-243 255:56:00:1969,0.02,0.043,0.934,8.85,24.414,6.958,-1.522,-2.401,-95.872
 14:35:32.024,eb:33:2e:f9:57:b5, 2085-97-78 00:21:00:2054,0.045,0.019,0.989,5.737,14.221,7.141,-1.456,-2.225,-95.801
 14:35:32.115,eb:33:2e:f9:57:b5, 2085-97-87 00:22:00:2057,0.034,0.009,1.007,4.089,13.855,6.775,-1.401,-2.082,-95.735
 14:35:32.115,eb:33:2e:f9:57:b5, 2085-97-57 00:12:00:2047,0.032,0.006,1.001,2.808,12.878,6.165,-1.368,-1.945,-95.669
 14:35:32.115,eb:33:2e:f9:57:b5, 2085-97-71 00:09:00:2061,0.036,0.006,1.003,1.953,10.62,5.432,-1.34,-1.829,-95.614
 14:35:32.115,eb:33:2e:f9:57:b5, 2085-97-86 00:252:255:2077,0.044,0.001,1.008,1.221,10.498,4.883,-1.329,-1.725,-95.559
 14:35:32.117,eb:33:2e:f9:57:b5, 2085-97-80 00:245:255:2077,0.028,-0.004,1.018,0.977,13.184,4.944,-1.313,-1.604,-95.51
 14:35:32.117,eb:33:2e:f9:57:b5, 2085-97-52 00:246:255:2059,0.023,-0.005,1.006,1.099,14.648,5.066,-1.302,-1.456,-95.46
 14:35:32.117,eb:33:2e:f9:57:b5, 2085-97-42 00:240:255:2060,0.019,-0.006,1.005,1.343,14.893,5.31,-1.285,-1.307,-95.411
 14:35:32.117,eb:33:2e:f9:57:b5, 2085-97-32 00:246:255:2053,0.017,-0.007,1.004,1.77,14.771,5.249,-1.269,-1.154,-95.356
 14:35:32.175,eb:33:2e:f9:57:b5, 2085-97-40 00:248:255:2063,0.022,-0.005,1.004,2.197,14.832,4.944,-1.241,-1.005,-95.306
 14:35:32.175,eb:33:2e:f9:57:b5, 2085-97-45 00:248:255:2069,0.019,-0.003,1.01,2.38,16.541,4.395,-1.219,-0.846,-95.262
 14:35:32.175,eb:33:2e:f9:57:b5, 2085-97-40 00:251:255:2073,0.017,-0.003,1.01,2.502,18.921,4.15,-1.187,-0.665,-95.219
 14:35:32.175,eb:33:2e:f9:57:b5, 2085-97-24 00:250:255:2067,0.008,-0.002,1.012,2.808,21.179,3.54,-1.159,-0.461,-95.18
 14:35:32.234,eb:33:2e:f9:57:b5, 2085-97-03 00:00:00:2052,-0.006,-0.002,1.007,3.235,22.583,2.869,-1.126,-0.236,-95.153
 14:35:32.234,eb:33:2e:f9:57:b5, 2085-97-245 255:00:00:2043,-0.01,0,0.998,3.54,22.522,2.258,-1.088,-0.011,-95.125
 14:35:32.234,eb:33:2e:f9:57:b5, 2085-113-81 00:98:86:-061,-0.008,0,0.997,3.845,21.484,2.197,-1.044,0.209,-95.103
 14:35:32.234,eb:33:2e:f9:57:b5, 2085-97-239 255:06:00:2046,-0.007,0.001,0.999,4.089,21.24,1.953,-1.027,0.319,-95.092
 14:35:32.239,eb:33:2e:f9:57:b5, 2085-97-240 255:11:00:2048,-0.007,0.001,1,4.395,21.24,1.953,-0.983,0.533,-95.076
 14:35:32.239,eb:33:2e:f9:57:b5, 2085-97-242 255:15:00:2052,-0.001,0.009,0.998,4.822,20.203,1.404,-0.928,0.742,-95.059
 14:35:32.239,eb:33:2e:f9:57:b5, 2085-97-14 00:25:00:2080,0.026,0.01,1.01,5.432,19.836,0.671,-0.879,0.939,-95.048
 14:35:32.239,eb:33:2e:f9:57:b5, 2085-97-72 00:31:00:2116,-0.005,0.02,1.022,7.141,18.311,-1.099,-0.807,1.137,-95.048
 14:35:32.294,eb:33:2e:f9:57:b5, 2085-97-227 255:16:00:2093,-0.022,0.008,1.013,9.094,17.7,-2.502,-0.725,1.318,-95.065
 14:35:32.294,eb:33:2e:f9:57:b5, 2085-97-242 255:03:00:2200,-0.012,0.007,1.044,8.85,16.663,-4.211,-0.632,1.494,-95.103
 14:35:32.294,eb:33:2e:f9:57:b5, 2085-97-229 255:19:00:2058,0.022,0.007,1.035,8.301,17.639,-5.188,-0.549,1.67,-95.147
 14:35:32.294,eb:33:2e:f9:57:b5, 2085-97-99 00:92:00:1868,0,0.029,0.932,13.672,4.517,-4.7,-0.439,1.802,-95.197
 14:35:32.324,eb:33:2e:f9:57:b5, 2085-97-33 255:227:255:2308,-0.167,0.038,0.949,20.569,-11.292,-4.456,-0.253,1.736,-95.24
 14:35:32.324,eb:33:2e:f9:57:b5, 2085-97-35 255:193:254:2765,-0.07,-0.086,1.281,17.639,0.183,-8.667,-0.066,1.692,-95.306
 14:35:32.324,eb:33:2e:f9:57:b5, 2085-97-138 255:224:255:2223,-0.05,-0.076,1.183,25.818,3.479,-6.348,0.154,1.725,-95.378
 14:35:32.324,eb:33:2e:f9:57:b5, 2085-97-148 255:234:255:2200,-0.056,-0.012,1.08,28.076,2.502,-6.042,0.434,1.752,-95.438
 14:35:32.385,eb:33:2e:f9:57:b5, 2085-97-133 255:249:255:2151,-0.061,-0.006,1.057,30.09,1.648,-5.127,0.725,1.78,-95.493
 14:35:32.385,eb:33:2e:f9:57:b5, 2085-97-151 255:27:00:2109,-0.049,0.002,1.035,31.555,0,-3.662,1.038,1.791,-95.537
 14:35:32.385,eb:33:2e:f9:57:b5, 2085-97-157 255:25:00:2126,-0.046,0.015,1.031,32.349,-1.587,-2.319,1.362,1.78,-95.565
 14:35:32.385,eb:33:2e:f9:57:b5, 2085-97-150 255:26:00:2144,-0.057,0.011,1.051,33.691,-2.625,-0.488,1.697,1.763,-95.576
 14:35:32.414,eb:33:2e:f9:57:b5, 2085-97-115 255:00:00:2170,-0.059,0.011,1.041,35.034,-4.761,1.831,2.043,1.725,-95.57
 14:35:32.414,eb:33:2e:f9:57:b5, 2085-97-188 255:249:255:2320,-0.008,-0.005,1.099,37.964,-8.606,5.31,2.417,1.653,-95.537
 14:35:32.414,eb:33:2e:f9:57:b5, 2085-97-18 00:247:255:2448,0.015,-0.002,1.172,42.114,-8.24,7.629,2.818,1.566,-95.471
 14:35:32.414,eb:33:2e:f9:57:b5, 2085-97-08 00:243:255:2461,-0.014,-0.005,1.206,47.485,-4.761,9.705,3.279,1.494,-95.389
 14:35:32.416,eb:33:2e:f9:57:b5, 2085-97-185 255:217:255:2410,-0.042,-0.013,1.191,53.345,-3.357,12.634,3.785,1.45,-95.279
 14:35:32.416,eb:33:2e:f9:57:b5, 2085-97-175 255:211:255:2459,-0.035,-0.021,1.184,59.692,-4.761,16.479,4.362,1.401,-95.136
 14:35:32.416,eb:33:2e:f9:57:b5, 2085-97-186 255:199:255:2474,-0.029,-0.023,1.211,67.139,-5.554,20.386,5.004,1.329,-94.949
 14:35:32.416,eb:33:2e:f9:57:b5, 2085-97-217 255:173:255:2591,0.008,-0.042,1.242,75.5,-4.333,24.963,5.735,1.252,-94.73
 14:35:32.476,eb:33:2e:f9:57:b5, 2085-97-66 00:166:255:2794,0.089,-0.044,1.31,86.243,-1.099,27.71,6.548,1.192,-94.466
 14:35:32.476,eb:33:2e:f9:57:b5, 2085-97-104 01:219:255:3012,0.268,-0.042,1.43,99.731,8.057,26.55,7.493,1.187,-94.191
 14:35:32.476,eb:33:2e:f9:57:b5, 2085-97-66 02:124:00:2786,0.201,0.03,1.433,111.633,35.339,22.461,8.564,1.368,-93.917
 14:35:32.476,eb:33:2e:f9:57:b5, 2085-97-212 00:236:255:2747,0.057,0.038,1.326,123.169,51.392,17.273,9.756,1.791,-93.642
 14:35:32.536,eb:33:2e:f9:57:b5, 2085-97-188 00:149:255:2853,0.196,-0.048,1.371,139.16,53.894,13.611,11.08,2.28,-93.389
 14:35:32.536,eb:33:2e:f9:57:b5, 2085-97-24 02:78:00:2888,0.336,-0.023,1.412,158.203,59.265,8.85,12.59,2.807,-93.159
 14:35:32.536,eb:33:2e:f9:57:b5, 2085-97-182 02:34:00:3059,0.301,0.04,1.454,178.345,67.383,-5.005,14.293,3.411,-92.999
 14:35:32.536,eb:33:2e:f9:57:b5, 2085-97-212 01:143:255:3162,0.209,-0.013,1.503,200.806,79.773,-16.663,16.205,4.164,-92.906
 14:35:32.538,eb:33:2e:f9:57:b5, 2085-97-172 01:248:254:3099,0.147,-0.095,1.539,228.027,89.355,-28.748,18.364,5.048,-92.867
 14:35:32.538,eb:33:2e:f9:57:b5, 2085-97-195 00:61:254:3272,0.145,-0.164,1.492,260.62,88.745,-36.987,20.819,6.015,-92.862
 14:35:32.538,eb:33:2e:f9:57:b5, 2085-97-110 01:110:255:3737,0.203,-0.226,1.761,302.979,95.886,-46.631,23.643,7.004,-92.906
 14:35:32.538,eb:33:2e:f9:57:b5, 2085-97-206 01:60:01:4102,0.159,0.059,1.896,331.787,113.464,-58.472,26.84,8.185,-92.922
 14:35:32.595,eb:33:2e:f9:57:b5, 2085-97-92 00:47:03:3908,-0.101,0.225,1.989,355.408,133.728,-72.266,30.295,9.602,-92.884
 14:35:32.595,eb:33:2e:f9:57:b5, 2085-97-49 254:94:05:4078,-0.257,0.529,1.899,368.225,130.127,-84.717,33.937,11.168,-92.834
 14:35:32.595,eb:33:2e:f9:57:b5, 2085-97-235 255:106:05:4702,0.079,0.787,2.151,369.873,102.783,-89.111,37.65,12.607,-92.856
 14:35:32.595,eb:33:2e:f9:57:b5, 2085-97-89 02:98:06:5273,0.396,0.857,2.469,352.173,102.844,-88.562,41.259,13.92,-92.889
 14:35:32.625,eb:33:2e:f9:57:b5, 2085-97-108 03:206:03:4520,0.47,0.669,2.412,323.425,125.305,-92.224,44.665,15.381,-92.758
 14:35:32.625,eb:33:2e:f9:57:b5, 2085-97-245 03:23:00:3845,0.548,0.255,2.038,285.522,132.751,-89.478,47.785,16.941,-92.401
 14:35:32.625,eb:33:2e:f9:57:b5, 2085-97-184 04:183:248:3174,0.505,-0.312,1.747,245.239,131.042,-86.487,50.554,18.463,-91.95
 14:35:32.625,eb:33:2e:f9:57:b5, 2085-97-24 02:234:250:547,0.203,-1.15,0.913,214.783,119.873,-59.753,53.036,19.836,-91.329
 14:35:32.655,eb:33:2e:f9:57:b5, 2085-97-108 01:243:250:616,0.181,-0.521,0.106,120.789,91.37,-45.41,54.893,20.852,-90.813
 14:35:32.655,eb:33:2e:f9:57:b5, 2085-97-137 01:71:251:1478,0.189,-0.661,0.547,26.184,85.815,-16.174,55.767,21.588,-90.187
 14:35:32.655,eb:33:2e:f9:57:b5, 2085-97-103 01:175:251:1733,0.194,-0.538,0.833,-33.081,75.745,0.183,55.926,22.072,-89.522
 14:35:32.655,eb:33:2e:f9:57:b5, 2085-97-105 01:153:251:1599,0.181,-0.558,0.864,-62.317,84.351,12.329,55.684,22.445,-88.781
 14:35:32.745,eb:33:2e:f9:57:b5, 2085-97-169 01:110:252:1236,0.221,-0.497,0.702,-77.209,89.783,20.874,55.316,22.786,-87.896
 14:35:32.745,eb:33:2e:f9:57:b5, 2085-97-201 01:218:252:806,0.225,-0.407,0.499,-89.172,89.6,24.353,54.833,23.099,-86.946
 14:35:32.745,eb:33:2e:f9:57:b5, 2085-97-206 01:230:252:466,0.224,-0.389,0.305,-100.098,77.332,24.78,54.234,23.368,-86.05
 14:35:32.745,eb:33:2e:f9:57:b5, 2085-97-191 01:214:252:272,0.21,-0.387,0.165,-114.014,56.519,24.597,53.448,23.549,-85.303
 14:35:32.747,eb:33:2e:f9:57:b5, 2085-97-177 01:172:252:213,0.205,-0.403,0.107,-130.249,35.889,25.208,52.443,23.615,-84.754
 14:35:32.747,eb:33:2e:f9:57:b5, 2085-97-168 01:108:252:263,0.206,-0.429,0.115,-150.208,17.578,27.893,51.18,23.56,-84.359
 14:35:32.747,eb:33:2e:f9:57:b5, 2085-97-164 01:58:252:350,0.204,-0.461,0.146,-172.546,2.502,32.471,49.664,23.379,-84.084
 14:35:32.747,eb:33:2e:f9:57:b5, 2085-97-174 01:39:252:423,0.219,-0.477,0.188,-196.106,-10.559,38.33,47.884,23.071,-83.87
 14:35:32.806,eb:33:2e:f9:57:b5, 2085-97-192 01:37:252:533,0.225,-0.485,0.232,-220.398,-25.024,44.373,45.846,22.637,-83.721
 14:35:32.806,eb:33:2e:f9:57:b5, 2085-97-224 01:76:252:665,0.25,-0.47,0.286,-244.873,-38.94,50.598,43.539,22.061,-83.611
 14:35:32.806,eb:33:2e:f9:57:b5, 2085-97-21 02:121:252:878,0.273,-0.45,0.377,-267.639,-51.575,56.702,40.995,21.357,-83.529
 14:35:32.806,eb:33:2e:f9:57:b5, 2085-97-93 02:180:252:1108,0.312,-0.429,0.485,-286.926,-62.073,62.012,38.221,20.528,-83.441
 14:35:32.806,eb:33:2e:f9:57:b5, 2085-97-176 02:10:253:1310,0.362,-0.392,0.589,-301.819,-70.19,66.406,35.305,19.605,-83.331
 14:35:32.835,eb:33:2e:f9:57:b5, 2085-113-81 00:192:86:10199,0.383,-0.339,0.684,-312.5,-76.782,69.458,32.261,18.605,-83.183
 14:35:32.835,eb:33:2e:f9:57:b5, 2085-97-65 03:197:253:1587,0.431,-0.307,0.725,-316.467,-80.627,70.251,30.712,18.083,-83.095
 14:35:32.835,eb:33:2e:f9:57:b5, 2085-97-118 03:81:254:1803,0.485,-0.241,0.824,-322.144,-89.172,70.801,27.559,16.985,-82.903
 14:35:32.835,eb:33:2e:f9:57:b5, 2085-97-220 03:203:254:2086,0.511,-0.191,0.957,-325.928,-99.487,70.312,24.373,15.82,-82.689
 14:35:32.894,eb:33:2e:f9:57:b5, 2085-97-28 04:146:255:2317,0.546,-0.104,1.086,-328.979,-109.924,68.848,21.138,14.573,-82.463
 14:35:32.894,eb:33:2e:f9:57:b5, 2085-97-131 04:229:255:2677,0.595,-0.053,1.234,-329.834,-124.146,67.81,17.897,13.233,-82.222
 14:35:32.894,eb:33:2e:f9:57:b5, 2085-97-236 04:112:00:3030,0.637,0.022,1.385,-329.041,-135.742,66.833,14.639,11.783,-81.953
 14:35:32.894,eb:33:2e:f9:57:b5, 2085-97-49 05:122:01:3468,0.641,0.104,1.583,-326.294,-148.743,64.453,11.426,10.234,-81.65
 14:35:32.926,eb:33:2e:f9:57:b5, 2085-97-148 05:92:02:3835,0.644,0.335,1.765,-327.698,-169.189,58.044,8.196,8.558,-81.332
 14:35:32.926,eb:33:2e:f9:57:b5, 2085-97-222 04:23:04:4370,0.597,0.408,2.027,-333.191,-181.274,52.185,4.933,6.751,-81.008
 14:35:32.926,eb:33:2e:f9:57:b5, 2085-97-136 04:215:04:4812,0.532,0.562,2.271,-336.609,-194.336,46.387,1.599,4.818,-80.64
 14:35:32.926,eb:33:2e:f9:57:b5, 2085-97-29 04:235:05:5188,0.484,0.682,2.453,-334.656,-203.613,43.03,-1.725,2.818,-80.211
 14:35:32.954,eb:33:2e:f9:57:b5, 2085-97-163 03:233:06:5428,0.422,0.8,2.601,-328.003,-209.839,41.87,-5.043,0.758,-79.689
 14:35:32.954,eb:33:2e:f9:57:b5, 2085-97-01 03:07:08:5517,0.323,0.935,2.686,-317.505,-218.75,41.87,-8.273,-1.324,-79.047
 14:35:32.954,eb:33:2e:f9:57:b5, 2085-97-34 02:43:09:5548,0.207,1.073,2.707,-304.199,-231.079,43.152,-11.431,-3.494,-78.261
 14:35:32.954,eb:33:2e:f9:57:b5, 2085-97-35 01:58:10:5431,0.096,1.211,2.697,-286.56,-238.831,45.532,-14.458,-5.702,-77.316
 14:35:32.987,eb:33:2e:f9:57:b5, 2085-97-41 255:144:11:4799,-0.617,1.354,2.618,-263.428,-236.145,46.387,-17.342,-7.894,-76.229
 14:35:32.987,eb:33:2e:f9:57:b5, 2085-97-166 248:82:10:2992,-1.074,1.283,1.795,-226.318,-268.311,45.837,-20.001,-10.096,-74.998
 14:35:32.987,eb:33:2e:f9:57:b5, 2085-97-126 247:04:14:3868,-1.059,1.52,1.418,-177.612,-339.05,53.528,-22.313,-12.799,-73.422
 14:35:32.987,eb:33:2e:f9:57:b5, 2085-97-113 245:27:18:5266,-1.448,1.913,2.478,-148.743,-313.538,60.242,-24.384,-15.716,-71.526
 14:35:33.045,eb:33:2e:f9:57:b5, 2085-97-31 244:45:26:4173,-1.407,2.795,2.327,-135.315,-185.791,67.932,-26.296,-17.666,-69.846
 14:35:33.045,eb:33:2e:f9:57:b5, 2085-97-47 246:10:30:4093,-0.946,3.606,1.929,-98.45,-95.52,47.485,-27.85,-18.589,-68.648
 14:35:33.045,eb:33:2e:f9:57:b5, 2085-113-58 00:170:221:3285,-0.667,3.653,2.173,-20.508,-15.808,0.854,-28.581,-18.979,-68.198
 14:35:33.045,eb:33:2e:f9:57:b5, 2085-97-251 235:80:26:14910,-0.196,3.317,2.632,93.872,-146.057,-89.722,-28.438,-19.232,-68.253
 14:35:33.076,eb:33:2e:f9:57:b5, 2085-97-242 04:26:248:080,0.519,0.475,1.685,191.833,221.68,-76.782,-26.158,-17.985,-69.62
 14:35:33.076,eb:33:2e:f9:57:b5, 2085-97-185 09:74:244:1014,0.843,-0.813,0.612,233.826,194.885,-73.425,-23.648,-16.458,-70.944
 14:35:33.076,eb:33:2e:f9:57:b5, 2085-97-127 02:41:254:1772,-0.094,-0.73,0.945,281.494,276.367,-77.209,-20.594,-14.557,-72.554
 14:35:33.076,eb:33:2e:f9:57:b5, 2085-97-47 252:245:253:992,-0.619,-0.135,0.646,275.94,242.737,-77.515,-17.386,-12.25,-74.229
 14:35:33.135,eb:33:2e:f9:57:b5, 2085-97-30 252:54:255:1377,-0.211,-0.164,0.5,264.343,131.409,-53.711,-14.469,-10.657,-75.322
 14:35:33.135,eb:33:2e:f9:57:b5, 2085-97-173 255:56:00:2170,0,-0.063,0.907,249.695,76.355,-35.461,-11.777,-9.838,-75.981
 14:35:33.135,eb:33:2e:f9:57:b5, 2085-97-76 00:206:02:2760,0.113,0.206,1.238,224.304,69.397,-28.259,-9.333,-9.179,-76.393
 14:35:33.135,eb:33:2e:f9:57:b5, 2085-113-81 00:113:99:-3006,-0.211,0.716,1.645,176.147,84.595,-56.152,-7.245,-8.509,-76.899
 14:35:33.135,eb:33:2e:f9:57:b5, 2085-97-104 253:201:03:2479,-0.161,0.466,1.412,153.015,95.093,-63.232,-6.383,-8.08,-77.25
 14:35:33.195,eb:33:2e:f9:57:b5, 2085-97-85 255:83:01:2228,0.01,0.273,1.104,112.732,78.247,-63.171,-4.982,-7.278,-77.986
 14:35:33.195,eb:33:2e:f9:57:b5, 2085-97-92 00:16:00:2148,0.042,0.061,1.073,89.661,69.641,-47.18,-3.922,-6.581,-78.591
 14:35:33.195,eb:33:2e:f9:57:b5, 2085-97-28 00:208:00:2144,0.233,0,1.018,77.515,64.087,-31.921,-3.043,-5.933,-79.008
 14:35:33.195,eb:33:2e:f9:57:b5, 2085-97-41 02:139:00:2337,-0.037,0.05,1.128,42.175,57.312,0.793,-2.455,-5.378,-79.195
 14:35:33.195,eb:33:2e:f9:57:b5, 2085-97-150 255:192:00:1826,-0.008,0.082,0.973,27.71,64.453,11.536,-2.131,-4.719,-79.124
 14:35:33.195,eb:33:2e:f9:57:b5, 2085-97-228 255:75:00:1916,0.033,0.115,0.913,18.372,34.912,4.028,-1.906,-4.241,-79.058
 14:35:33.195,eb:33:2e:f9:57:b5, 2085-97-166 00:234:255:2079,0.074,-0.001,0.978,14.404,23.01,6.042,-1.741,-3.972,-79.014
 14:35:33.195,eb:33:2e:f9:57:b5, 2085-97-119 00:27:00:2044,0.05,-0.005,1.009,13.245,27.771,7.263,-1.609,-3.719,-78.948
 14:35:33.255,eb:33:2e:f9:57:b5, 2085-97-83 00:100:00:2015,0.031,0.041,0.992,10.498,30.579,6.348,-1.489,-3.417,-78.887
 14:35:33.255,eb:33:2e:f9:57:b5, 2085-97-56 00:20:00:2012,0.023,0.024,0.982,6.409,27.588,5.554,-1.412,-3.126,-78.832
 14:35:33.255,eb:33:2e:f9:57:b5, 2085-97-26 00:19:00:1996,0.014,0.007,0.979,5.005,22.034,5.31,-1.351,-2.873,-78.783
 14:35:33.255,eb:33:2e:f9:57:b5, 2085-97-50 00:14:00:2027,0.034,0.008,0.979,3.784,13.916,4.333,-1.307,-2.697,-78.734
 14:35:33.284,eb:33:2e:f9:57:b5, 2085-97-66 00:15:00:2036,0.026,0.009,0.997,2.563,11.169,3.784,-1.269,-2.576,-78.695
 14:35:33.284,eb:33:2e:f9:57:b5, 2085-97-53 00:04:00:2034,0.029,0.005,0.99,1.709,9.094,3.174,-1.252,-2.472,-78.662
 14:35:33.284,eb:33:2e:f9:57:b5, 2085-97-66 00:00:00:2046,0.031,0.002,0.996,1.343,7.08,2.686,-1.23,-2.39,-78.635
 14:35:33.284,eb:33:2e:f9:57:b5, 2085-97-71 00:251:255:2049,0.033,0,0.998,1.038,5.981,2.502,-1.219,-2.324,-78.607
 14:35:33.315,eb:33:2e:f9:57:b5, 2085-97-61 00:248:255:2051,0.031,-0.004,1.002,0.854,5.92,2.563,-1.203,-2.263,-78.585
 14:35:33.315,eb:33:2e:f9:57:b5, 2085-97-63 00:250:255:2050,0.035,-0.004,1.002,0.732,5.737,3.113,-1.192,-2.208,-78.558
 14:35:33.315,eb:33:2e:f9:57:b5, 2085-97-68 00:242:255:2057,0.035,-0.005,1.005,0.61,6.409,3.54,-1.181,-2.142,-78.525
 14:35:33.315,eb:33:2e:f9:57:b5, 2085-97-82 00:237:255:2075,0.043,-0.008,1.008,0.671,7.629,4.578,-1.176,-2.071,-78.486
 14:35:33.346,eb:33:2e:f9:57:b5, 2085-97-96 00:242:255:2087,0.051,-0.009,1.016,0.549,10.925,5.92,-1.165,-1.978,-78.431
 14:35:33.346,eb:33:2e:f9:57:b5, 2085-97-96 00:238:255:2092,0.039,-0.005,1.023,0.427,16.602,6.592,-1.159,-1.84,-78.371
 14:35:33.346,eb:33:2e:f9:57:b5, 2085-97-63 00:240:255:2069,0.024,-0.009,1.017,0.793,21.79,7.324,-1.148,-1.637,-78.3
 14:35:33.346,eb:33:2e:f9:57:b5, 2085-97-36 00:244:255:2053,0.012,-0.007,1.007,1.343,24.353,7.202,-1.137,-1.406,-78.228
 14:35:33.435,eb:33:2e:f9:57:b5, 2085-97-14 00:250:255:2039,0.004,-0.004,0.999,1.953,24.902,6.47,-1.115,-1.154,-78.162
 14:35:33.435,eb:33:2e:f9:57:b5, 2085-97-07 00:254:255:2037,0.004,-0.002,0.993,2.441,23.926,5.798,-1.093,-0.906,-78.102
 14:35:33.435,eb:33:2e:f9:57:b5, 2085-97-08 00:254:255:2050,0,0,0.999,2.747,23.499,5.005,-1.06,-0.67,-78.052
 14:35:33.435,eb:33:2e:f9:57:b5, 2085-97-254 255:04:00:2041,-0.007,0.001,0.999,3.113,24.292,4.211,-1.033,-0.428,-78.008
 14:35:33.437,eb:33:2e:f9:57:b5, 2085-97-229 255:20:00:2026,-0.018,0.006,0.993,2.991,23.56,3.235,-0.989,-0.187,-77.97
 14:35:33.437,eb:33:2e:f9:57:b5, 2085-97-214 255:13:00:2020,-0.018,0.011,0.985,2.563,20.752,2.319,-0.961,0.038,-77.948
 14:35:33.437,eb:33:2e:f9:57:b5, 2085-97-220 255:00:00:2037,-0.019,0,0.993,2.441,18.066,2.136,-0.928,0.225,-77.926
 14:35:33.437,eb:33:2e:f9:57:b5, 2085-97-200 255:251:255:2023,-0.019,0,0.995,2.441,16.479,2.502,-0.906,0.396,-77.904
 14:35:33.495,eb:33:2e:f9:57:b5, 2085-97-209 255:09:00:2042,-0.033,-0.003,1,2.93,13.794,3.052,-0.868,0.549,-77.877
 14:35:33.495,eb:33:2e:f9:57:b5, 2085-97-201 255:251:255:2050,-0.026,0.001,0.988,3.174,10.803,2.808,-0.84,0.67,-77.849
 14:35:33.495,eb:33:2e:f9:57:b5, 2085-97-135 255:24:00:1994,0.03,0.011,0.989,4.272,8.118,1.709,-0.797,0.769,-77.822
 14:35:33.495,eb:33:2e:f9:57:b5, 2085-97-173 255:231:255:2018,-0.063,0,1.016,3.052,5.92,3.296,-0.753,0.829,-77.811
 14:35:33.557,eb:33:2e:f9:57:b5, 2085-97-34 00:34:00:2087,-0.022,0.013,0.972,3.357,3.113,1.831,-0.709,0.89,-77.789
 14:35:33.557,eb:33:2e:f9:57:b5, 2085-97-175 255:10:00:2006,-0.04,0.01,1.002,3.235,4.333,0.61,-0.676,0.923,-77.778
 14:35:33.557,eb:33:2e:f9:57:b5, 2085-97-202 255:13:00:2044,-0.026,0.009,0.99,3.418,0.793,-0.305,-0.643,0.945,-77.772
 14:35:33.557,eb:33:2e:f9:57:b5, 2085-97-191 255:16:00:2034,-0.029,0.008,0.999,3.418,-0.061,-0.671,-0.604,0.945,-77.778
 14:35:33.557,eb:33:2e:f9:57:b5, 2085-97-208 255:17:00:2050,-0.017,0.006,0.997,3.479,-1.282,-1.038,-0.566,0.939,-77.789
 14:35:33.557,eb:33:2e:f9:57:b5, 2085-97-227 255:18:00:2064,-0.016,0.009,1.007,3.784,-1.526,-1.343,-0.527,0.923,-77.805
 14:35:33.557,eb:33:2e:f9:57:b5, 2085-97-220 255:18:00:2061,-0.017,0.008,1.008,4.15,-0.916,-1.709,-0.483,0.917,-77.816
 14:35:33.557,eb:33:2e:f9:57:b5, 2085-97-222 255:20:00:2064,-0.019,0.01,1.007,4.395,-0.732,-1.953,-0.439,0.906,-77.838
 14:35:33.585,eb:33:2e:f9:57:b5, 2085-97-202 255:21:00:2047,-0.022,0.011,1.004,4.639,-0.916,-2.319,-0.385,0.901,-77.86
 14:35:33.586,eb:33:2e:f9:57:b5, 2085-97-218 255:20:00:2080,-0.017,0.008,1.013,4.272,-0.916,-2.625,-0.341,0.89,-77.882
 14:35:33.586,eb:33:2e:f9:57:b5, 2085-97-212 255:21:00:2065,-0.027,0.009,1.016,3.723,-0.183,-2.808,-0.291,0.89,-77.91
 14:35:33.586,eb:33:2e:f9:57:b5, 2085-97-196 255:18:00:2046,-0.032,0.009,1.003,3.479,-0.122,-2.686,-0.258,0.89,-77.943
 14:35:33.705,eb:33:2e:f9:57:b5, 2085-97-189 255:14:00:2045,-0.032,0.007,0.998,3.357,-1.099,-2.319,-0.214,0.884,-77.964
 14:35:33.705,eb:33:2e:f9:57:b5, 2085-97-190 255:14:00:2046,-0.036,0.008,0.997,3.418,-2.625,-1.709,-0.181,0.868,-77.986
 14:35:33.705,eb:33:2e:f9:57:b5, 2085-97-186 255:04:00:2043,-0.026,0.004,0.995,3.845,-4.761,-0.916,-0.137,0.829,-78.003
 14:35:33.705,eb:33:2e:f9:57:b5, 2085-97-255 255:212:255:2109,0.008,0,1.006,5.798,-9.644,0.549,-0.088,0.758,-78.003
 14:35:33.705,eb:33:2e:f9:57:b5, 2085-113-58 00:145:216:1275,-0.052,-0.055,1.091,16.907,-24.048,4.028,0.033,0.582,-77.986
 14:35:33.705,eb:33:2e:f9:57:b5, 2085-97-65 255:193:255:2431,0.004,-0.051,1.143,18.005,-20.447,4.883,0.126,0.467,-77.959
 14:35:33.705,eb:33:2e:f9:57:b5, 2085-97-09 00:219:255:2380,0.002,0.005,1.131,18.433,-13.611,-0.122,0.297,0.319,-77.943
 14:35:33.705,eb:33:2e:f9:57:b5, 2085-97-01 00:210:255:2343,-0.011,-0.036,1.174,22.522,-9.583,-1.465,0.511,0.209,-77.953
 14:35:33.707,eb:33:2e:f9:57:b5, 2085-97-223 255:179:255:2372,-0.02,-0.028,1.145,27.405,-10.132,-1.831,0.764,0.121,-77.975
 14:35:33.707,eb:33:2e:f9:57:b5, 2085-97-238 255:195:255:2367,-0.003,-0.04,1.158,32.898,-11.169,-1.221,1.071,0.016,-77.992
 14:35:33.707,eb:33:2e:f9:57:b5, 2085-97-249 255:200:255:2374,-0.004,-0.022,1.157,38.391,-13.428,-0.549,1.434,-0.11,-78.008
 14:35:33.707,eb:33:2e:f9:57:b5, 2085-97-255 255:205:255:2379,0.018,-0.029,1.16,44.006,-15.137,0.488,1.857,-0.253,-78.014
 14:35:33.795,eb:33:2e:f9:57:b5, 2085-97-62 00:240:255:2398,0.041,-0.017,1.167,49.072,-15.076,1.587,2.324,-0.406,-78.008
 14:35:33.795,eb:33:2e:f9:57:b5, 2085-97-65 00:242:255:2421,0.03,-0.007,1.174,53.772,-13.184,2.075,2.845,-0.549,-77.997
 14:35:33.795,eb:33:2e:f9:57:b5, 2085-97-99 00:230:255:2502,0.093,-0.011,1.201,58.716,-11.23,2.93,3.411,-0.67,-77.981
 14:35:33.795,eb:33:2e:f9:57:b5, 2085-97-25 01:28:00:2610,0.156,0.002,1.253,65.063,-3.174,3.54,4.037,-0.753,-77.953
 14:35:33.797,eb:33:2e:f9:57:b5, 2085-97-26 01:59:00:2510,0.095,0.028,1.259,70.496,13.123,3.235,4.719,-0.698,-77.915
 14:35:33.797,eb:33:2e:f9:57:b5, 2085-97-83 00:250:255:2400,0.013,0.009,1.197,75.989,25.269,4.822,5.455,-0.5,-77.86
 14:35:33.797,eb:33:2e:f9:57:b5, 2085-97-36 00:07:00:2393,0.033,-0.004,1.167,82.214,31.433,8.423,6.251,-0.22,-77.761
 14:35:33.797,eb:33:2e:f9:57:b5, 2085-97-111 00:64:00:2388,0.058,0.021,1.169,88.562,36.682,10.62,7.114,0.11,-77.618
 14:35:33.826,eb:33:2e:f9:57:b5, 2085-97-101 00:79:00:2389,0.042,0.04,1.163,95.52,40.833,11.597,8.036,0.472,-77.454
 14:35:33.826,eb:33:2e:f9:57:b5, 2085-97-88 00:91:00:2379,0.053,0.037,1.17,103.149,44.678,11.353,9.042,0.879,-77.267
 14:35:33.826,eb:33:2e:f9:57:b5, 2085-97-108 00:151:00:2335,0.057,0.057,1.153,110.535,47.668,10.925,10.118,1.318,-77.08
 14:35:33.826,eb:33:2e:f9:57:b5, 2085-97-118 00:194:00:2322,0.06,0.081,1.14,118.103,49.133,8.728,11.272,1.774,-76.888
 14:35:33.884,eb:33:2e:f9:57:b5, 2085-97-126 00:188:00:2395,0.074,0.089,1.142,126.099,49.438,6.165,12.502,2.241,-76.712
 14:35:33.884,eb:33:2e:f9:57:b5, 2085-97-179 00:194:00:2449,0.102,0.091,1.188,135.315,52.673,2.869,13.826,2.725,-76.547
 14:35:33.884,eb:33:2e:f9:57:b5, 2085-97-190 00:176:00:2467,0.051,0.094,1.207,145.935,57.739,-0.61,15.244,3.257,-76.393
 14:35:33.884,eb:33:2e:f9:57:b5, 2085-97-92 00:38:00:2708,0.108,0.054,1.214,159.668,57.861,-2.991,16.787,3.823,-76.245
 14:35:33.975,eb:33:2e:f9:57:b5, 2085-97-166 01:111:00:2946,0.282,0.017,1.421,178.101,65.918,-7.385,18.49,4.417,-76.108
 14:35:33.975,eb:33:2e:f9:57:b5, 2085-97-123 02:197:00:3016,0.294,0.088,1.447,198.12,83.374,-16.907,20.396,5.169,-75.959
 14:35:33.975,eb:33:2e:f9:57:b5, 2085-97-57 02:242:00:3014,0.257,0.086,1.492,221.252,102.295,-29.724,22.516,6.13,-75.828
 14:35:33.975,eb:33:2e:f9:57:b5, 2085-97-177 01:192:01:3066,0.135,0.175,1.451,247.62,105.896,-45.349,24.89,7.251,-75.734
 14:35:33.977,eb:33:2e:f9:57:b5, 2085-97-104 00:125:02:3372,0.015,0.254,1.601,268.677,105.408,-60.425,27.482,8.432,-75.751
 14:35:33.977,eb:33:2e:f9:57:b5, 2085-97-168 255:159:03:3300,-0.073,0.363,1.643,291.138,102.478,-71.106,30.295,9.684,-75.811
 14:35:33.977,eb:33:2e:f9:57:b5, 2085-97-94 255:192:06:3494,-0.136,0.692,1.602,304.016,76.904,-82.214,33.261,10.86,-75.981
 14:35:33.977,eb:33:2e:f9:57:b5, 2085-97-240 254:140:04:3832,-0.099,0.763,1.854,303.04,60.547,-89.294,36.238,11.893,-76.322
 14:35:34.006,eb:33:2e:f9:57:b5, 2085-97-237 255:151:04:3375,0.014,0.524,1.775,298.096,58.838,-87.524,39.166,12.92,-76.641
 14:35:34.006,eb:33:2e:f9:57:b5, 2085-97-49 00:125:04:3275,0.027,0.663,1.589,294.556,29.724,-95.154,42.05,13.843,-77.047
 14:35:34.006,eb:33:2e:f9:57:b5, 2085-97-136 00:85:03:3650,0.123,0.488,1.682,273.926,9.216,-98.999,44.736,14.645,-77.662
 14:35:34.006,eb:33:2e:f9:57:b5, 2085-97-49 01:36:00:3853,0.207,0.244,1.882,252.441,8.118,-105.103,47.192,15.425,-78.338
 14:35:34.035,eb:33:2e:f9:57:b5, 2085-97-187 02:25:249:2870,0.352,-0.285,1.79,225.952,36.255,-108.276,49.422,16.375,-78.909
 14:35:34.035,eb:33:2e:f9:57:b5, 2085-97-149 01:101:252:276,0.179,-0.939,0.679,186.401,55.847,-106.384,51.389,17.534,-79.2
 14:35:34.035,eb:33:2e:f9:57:b5, 2085-97-200 01:211:251:779,0.267,-0.418,0.12,91.431,65.369,-103.027,52.707,18.737,-79.376
 14:35:34.035,eb:33:2e:f9:57:b5, 2085-97-64 02:134:252:1344,0.233,-0.481,0.528,11.169,44.983,-102.6,53.097,19.896,-79.519
 14:35:34.065,eb:33:2e:f9:57:b5, 2085-97-136 01:29:252:1724,0.189,-0.436,0.78,-34.058,19.043,-104.065,52.789,20.901,-79.937
 14:35:34.065,eb:33:2e:f9:57:b5, 2085-97-149 01:189:251:1588,0.192,-0.524,0.833,-53.955,18.311,-97.168,52.136,21.808,-80.442
 14:35:34.065,eb:33:2e:f9:57:b5, 2085-97-70 01:220:251:1211,0.144,-0.509,0.705,-65.613,19.287,-85.632,51.372,22.648,-80.881
 14:35:34.066,eb:33:2e:f9:57:b5, 2085-97-32 01:177:251:853,0.135,-0.523,0.503,-77.82,12.451,-72.205,50.488,23.357,-81.277
 14:35:34.124,eb:33:2e:f9:57:b5, 2085-97-06 01:97:251:622,0.12,-0.562,0.35,-93.018,3.54,-54.749,49.477,23.89,-81.656
 14:35:34.124,eb:33:2e:f9:57:b5, 2085-97-230 00:59:251:497,0.113,-0.588,0.267,-109.741,-7.874,-34.973,48.312,24.203,-81.991
 14:35:34.124,eb:33:2e:f9:57:b5, 2085-97-230 00:43:251:471,0.119,-0.603,0.236,-130.676,-24.658,-12.878,46.983,24.269,-82.304
 14:35:34.124,eb:33:2e:f9:57:b5, 2085-97-09 01:31:251:498,0.142,-0.608,0.233,-152.344,-40.527,6.897,45.434,24.049,-82.59
 14:35:34.155,eb:33:2e:f9:57:b5, 2085-97-73 01:47:251:597,0.177,-0.608,0.26,-176.27,-56.519,25.024,43.682,23.577,-82.848
 14:35:34.155,eb:33:2e:f9:57:b5, 2085-97-132 01:94:251:779,0.207,-0.593,0.334,-199.89,-70.251,39.917,41.693,22.874,-83.062
 14:35:34.155,eb:33:2e:f9:57:b5, 2085-97-183 01:169:251:979,0.225,-0.566,0.442,-219.666,-83.801,50.781,39.512,21.984,-83.254
 14:35:34.155,eb:33:2e:f9:57:b5, 2085-97-236 01:234:251:1170,0.252,-0.527,0.522,-235.352,-99.304,56.946,37.15,20.912,-83.425
 14:35:34.215,eb:33:2e:f9:57:b5, 2085-97-23 02:50:252:1348,0.277,-0.492,0.614,-248.474,-111.694,60.608,34.667,19.704,-83.595
 14:35:34.215,eb:33:2e:f9:57:b5, 2085-97-91 02:149:252:1541,0.31,-0.451,0.708,-261.169,-121.826,60.974,32.047,18.386,-83.76
 14:35:34.215,eb:33:2e:f9:57:b5, 2085-97-155 02:01:253:1718,0.344,-0.402,0.794,-275.818,-130.676,58.105,29.312,16.99,-83.919
 14:35:34.215,eb:33:2e:f9:57:b5, 2085-97-230 02:104:253:1915,0.381,-0.346,0.884,-293.701,-139.343,51.086,26.395,15.529,-84.095
 14:35:34.248,eb:33:2e:f9:57:b5, 2085-97-42 03:196:253:2130,0.41,-0.304,0.988,-312.805,-147.4,40.283,23.297,14.035,-84.315
 14:35:34.248,eb:33:2e:f9:57:b5, 2085-97-86 03:15:254:2382,0.419,-0.258,1.094,-329.346,-158.081,26.245,19.995,12.491,-84.6
 14:35:34.248,eb:33:2e:f9:57:b5, 2085-97-97 03:18:254:2781,0.368,-0.239,1.256,-338.013,-169.25,11.23,16.567,10.876,-84.974
 14:35:34.248,eb:33:2e:f9:57:b5, 2085-97-201 02:99:254:3332,0.339,-0.249,1.479,-334.717,-174.133,0.61,13.112,9.19,-85.391
 14:35:34.274,eb:33:2e:f9:57:b5, 2085-97-132 02:131:254:3849,0.272,-0.189,1.761,-320.068,-174.011,-5.798,9.778,7.487,-85.798
 14:35:34.274,eb:33:2e:f9:57:b5, 2085-97-04 02:240:254:4085,0.23,-0.146,1.951,-298.035,-169.189,-7.996,6.636,5.795,-86.133
 14:35:34.274,eb:33:2e:f9:57:b5, 2085-97-178 01:207:254:4170,0.192,-0.146,2.025,-275.33,-168.518,-5.371,3.768,4.125,-86.375
 14:35:34.274,eb:33:2e:f9:57:b5, 2085-113-58 00:249:217:1995,0.17,-0.146,2.032,-264.404,-181.274,2.319,1.066,2.384,-86.484
 14:35:34.274,eb:33:2e:f9:57:b5, 2085-97-46 01:87:254:4308,0.125,-0.171,2.047,-268.188,-191.711,7.751,-0.264,1.445,-86.468
 14:35:34.336,eb:33:2e:f9:57:b5, 2085-97-223 00:137:253:4722,0.111,-0.259,2.197,-289.307,-207.825,25.452,-3.065,-0.571,-86.265
 14:35:34.336,eb:33:2e:f9:57:b5, 2085-97-241 00:71:253:5099,0.134,-0.341,2.404,-315.002,-212.402,50.598,-6.119,-2.648,-85.732
 14:35:34.336,eb:33:2e:f9:57:b5, 2085-97-96 01:227:253:5418,0.219,-0.324,2.566,-336.853,-212.463,75.806,-9.47,-4.686,-84.814
 14:35:34.336,eb:33:2e:f9:57:b5, 2085-97-66 02:251:255:5643,0.34,-0.15,2.716,-348.267,-203.186,97.29,-13.041,-6.564,-83.557
 14:35:34.365,eb:33:2e:f9:57:b5, 2085-97-232 02:34:03:5505,0.51,0.195,2.754,-346.252,-192.078,107.849,-16.738,-8.229,-82.046
 14:35:34.365,eb:33:2e:f9:57:b5, 2085-97-221 02:100:07:4964,0.202,0.683,2.735,-331.909,-185.059,105.042,-20.374,-9.695,-80.425
 14:35:34.366,eb:33:2e:f9:57:b5, 2085-97-149 00:216:09:3735,-0.124,1.012,2.119,-301.819,-214.111,85.266,-23.862,-11.184,-78.777
 14:35:34.366,eb:33:2e:f9:57:b5, 2085-97-198 253:190:11:4224,-0.379,1.398,1.798,-265.137,-275.269,61.157,-27.054,-13.134,-77.031
 14:35:34.425,eb:33:2e:f9:57:b5, 2085-97-247 251:102:13:5568,-0.851,1.52,2.461,-226.44,-271.606,39.368,-29.954,-15.403,-75.218
 14:35:34.425,eb:33:2e:f9:57:b5, 2085-97-165 246:28:20:4372,-1.465,2.05,2.482,-192.261,-197.449,25.391,-32.448,-17.227,-73.713
 14:35:34.425,eb:33:2e:f9:57:b5, 2085-97-169 242:255:25:3925,-1.739,2.934,1.921,-154.846,-157.104,8.789,-34.536,-18.594,-72.57
 14:35:34.425,eb:33:2e:f9:57:b5, 2085-97-229 242:195:26:4826,-1.494,3.403,2.087,-90.454,-112.244,-12.756,-36.024,-19.715,-71.779
 14:35:34.454,eb:33:2e:f9:57:b5, 2085-97-198 247:95:20:5058,-1.072,3.122,2.505,0.732,-28.442,-33.447,-36.513,-20.424,-71.559
 14:35:34.454,eb:33:2e:f9:57:b5, 2085-97-141 247:203:16:4035,-0.884,2.402,2.172,83.13,77.332,-44.922,-35.848,-20.424,-72.059
 14:35:34.454,eb:33:2e:f9:57:b5, 2085-97-233 250:226:11:3056,-0.481,1.745,1.65,126.404,118.835,-50.232,-34.382,-19.836,-73.109
 14:35:34.454,eb:33:2e:f9:57:b5, 2085-97-63 253:97:09:2779,-0.2,1.366,1.41,146.24,125.977,-49.988,-32.607,-19.05,-74.257
 14:35:34.485,eb:33:2e:f9:57:b5, 2085-97-59 255:213:07:2795,0.205,1.069,1.328,156.799,121.765,-49.072,-30.712,-18.226,-75.399
 14:35:34.485,eb:33:2e:f9:57:b5, 2085-97-107 15:93:217:6955,1.188,0.585,1.747,149.658,-84.9,-180.42,-28.762,-17.781,-76.47
 14:35:34.485,eb:33:2e:f9:57:b5, 2085-97-58 20:62:222:-2579,1.473,-4.085,-0.768,98.206,136.902,0.488,-27.592,-16.99,-77.882
 14:35:34.485,eb:33:2e:f9:57:b5, 2085-97-137 02:117:253:1505,-0.39,-2.058,0.603,279.724,200.439,20.02,-25.439,-15.699,-78.217
 14:35:34.543,eb:33:2e:f9:57:b5, 2085-97-86 251:193:255:1349,-0.819,0.202,0.703,318.298,225.647,-54.382,-22.028,-13.667,-79.387
 14:35:34.543,eb:33:2e:f9:57:b5, 2085-97-01 249:02:00:675,-0.385,-0.029,0.394,296.753,160.4,-29.663,-18.721,-11.926,-80.458
 14:35:34.543,eb:33:2e:f9:57:b5, 2085-97-190 00:159:00:2236,0.352,-0.075,0.632,273.743,33.203,-26.855,-15.765,-11.201,-80.991
 14:35:34.543,eb:33:2e:f9:57:b5, 2085-97-12 03:245:01:3019,0.278,0.178,1.375,248.474,38.513,-42.725,-13.09,-11.019,-81.387
 14:35:34.575,eb:33:2e:f9:57:b5, 2085-97-06 00:19:01:2334,-0.063,0.171,1.374,221.497,87.952,-59.326,-10.618,-10.464,-82.057
 14:35:34.575,eb:33:2e:f9:57:b5, 2085-97-73 00:255:00:2350,0.026,0.08,1.058,200.439,76.843,-64.27,-8.388,-9.723,-82.831
 14:35:34.575,eb:33:2e:f9:57:b5, 2085-97-202 254:84:04:2881,-0.11,0.24,1.314,174.866,77.576,-67.261,-6.383,-9.069,-83.573
 14:35:34.575,eb:33:2e:f9:57:b5, 2085-97-161 254:241:02:2367,-0.099,0.359,1.274,132.385,96.313,-69.214,-4.741,-8.262,-84.375
 14:35:34.605,eb:33:2e:f9:57:b5, 2085-97-227 255:64:01:2118,0.061,0.249,1.069,93.445,88.501,-50.11,-3.538,-7.355,-85.034
 14:35:34.605,eb:33:2e:f9:57:b5, 2085-97-184 00:95:00:2098,0.093,0.08,1.033,70.435,71.167,-35.095,-2.692,-6.586,-85.479
 14:35:34.605,eb:33:2e:f9:57:b5, 2085-97-45 01:151:254:2124,0.262,0.021,1.016,58.533,58.228,-29.541,-2,-5.944,-85.825
 14:35:34.605,eb:33:2e:f9:57:b5, 2085-97-164 01:232:00:2267,0.018,0.034,1.098,36.133,60.12,0.61,-1.522,-5.361,-85.968
 14:35:34.636,eb:33:2e:f9:57:b5, 2085-97-44 00:165:00:1935,0.031,0.1,0.976,22.339,65.186,7.751,-1.252,-4.691,-85.908
 14:35:34.636,eb:33:2e:f9:57:b5, 2085-97-35 00:96:00:1976,0.044,0.065,0.956,17.273,49.377,0.366,-1.06,-4.12,-85.875
 14:35:34.636,eb:33:2e:f9:57:b5, 2085-97-134 00:71:00:2057,0.031,0.048,0.979,10.742,37.659,2.258,-0.912,-3.691,-85.869
 14:35:34.636,eb:33:2e:f9:57:b5, 2085-97-14 00:39:00:1984,0.005,0.015,0.985,7.507,34.18,3.418,-0.829,-3.329,-85.836
 14:35:34.695,eb:33:2e:f9:57:b5, 2085-97-23 00:39:00:2004,0.016,0.022,0.97,6.104,25.513,3.174,-0.753,-3.032,-85.803
 14:35:34.695,eb:33:2e:f9:57:b5, 2085-97-36 00:36:00:2024,0.016,0.016,0.983,5.188,19.714,2.869,-0.698,-2.807,-85.77
 14:35:34.695,eb:33:2e:f9:57:b5, 2085-97-23 00:40:00:2019,0.007,0.019,0.988,4.456,16.357,1.953,-0.648,-2.626,-85.748
 14:35:34.695,eb:33:2e:f9:57:b5, 2085-97-23 00:35:00:2019,0.009,0.019,0.983,3.723,12.512,1.038,-0.61,-2.483,-85.732
 14:35:34.724,eb:33:2e:f9:57:b5, 2085-97-13 00:44:00:2015,0.008,0.02,0.985,3.296,8.484,-0.122,-0.566,-2.379,-85.726
 14:35:34.724,eb:33:2e:f9:57:b5, 2085-97-24 00:31:00:2028,0.015,0.02,0.985,2.625,4.517,-1.099,-0.538,-2.313,-85.732
 14:35:34.724,eb:33:2e:f9:57:b5, 2085-97-44 00:23:00:2043,0.025,0.013,0.992,2.136,1.648,-1.282,-0.505,-2.28,-85.743
 14:35:34.724,eb:33:2e:f9:57:b5, 2085-97-61 00:14:00:2063,0.032,0.008,1.002,1.892,0.854,-0.854,-0.483,-2.269,-85.754
 14:35:34.754,eb:33:2e:f9:57:b5, 2085-97-65 00:18:00:2063,0.029,0.007,1.008,1.648,2.136,0.244,-0.461,-2.247,-85.754
 14:35:34.754,eb:33:2e:f9:57:b5, 2085-97-56 00:17:00:2055,0.024,0.01,1.005,1.282,3.357,1.221,-0.445,-2.219,-85.748
 14:35:34.754,eb:33:2e:f9:57:b5, 2085-97-40 00:23:00:2041,0.017,0.009,1,1.099,3.784,2.014,-0.428,-2.175,-85.726
 14:35:34.754,eb:33:2e:f9:57:b5, 2085-97-35 00:27:00:2037,0.015,0.012,0.995,1.16,3.052,1.831,-0.417,-2.142,-85.704
 14:35:34.816,eb:33:2e:f9:57:b5, 2085-97-25 00:26:00:2028,0.012,0.013,0.992,1.16,1.648,1.343,-0.401,-2.115,-85.693
 14:35:34.816,eb:33:2e:f9:57:b5, 2085-97-33 00:25:00:2038,0.021,0.014,0.99,1.221,-0.305,0.854,-0.385,-2.109,-85.677
 14:35:34.816,eb:33:2e:f9:57:b5, 2085-97-50 00:25:00:2052,0.026,0.012,0.999,1.282,-0.671,0.732,-0.368,-2.109,-85.671
 14:35:34.816,eb:33:2e:f9:57:b5, 2085-97-47 00:25:00:2048,0.023,0.014,1.002,1.343,0.427,0.427,-0.352,-2.109,-85.66
 14:35:34.875,eb:33:2e:f9:57:b5, 2085-97-46 00:24:00:2050,0.022,0.012,1.001,1.465,1.404,0.488,-0.33,-2.098,-85.655
 14:35:34.875,eb:33:2e:f9:57:b5, 2085-97-46 00:26:00:2051,0.022,0.012,1.002,1.526,2.502,0.61,-0.319,-2.076,-85.649
 14:35:34.875,eb:33:2e:f9:57:b5, 2085-97-42 00:17:00:2052,0.021,0.011,1.002,1.709,3.662,0.977,-0.297,-2.038,-85.644
 14:35:34.875,eb:33:2e:f9:57:b5, 2085-97-55 00:21:00:2060,0.03,0.008,1.002,1.953,4.578,1.648,-0.275,-1.994,-85.627
 14:35:34.877,eb:33:2e:f9:57:b5, 2085-97-66 00:23:00:2076,0.028,0.01,1.011,2.319,7.446,2.014,-0.247,-1.934,-85.605
 14:35:34.877,eb:33:2e:f9:57:b5, 2085-97-24 00:32:00:2026,0.015,0.011,1.008,2.625,10.437,2.502,-0.22,-1.84,-85.583
 14:35:34.877,eb:33:2e:f9:57:b5, 2085-97-47 00:40:00:2063,0.019,0.018,0.994,3.174,10.498,2.502,-0.187,-1.73,-85.551
 14:35:34.877,eb:33:2e:f9:57:b5, 2085-97-33 00:24:00:2058,0.014,0.007,1.008,3.296,12.512,3.113,-0.154,-1.615,-85.523
 14:35:34.935,eb:33:2e:f9:57:b5, 2085-97-17 00:28:00:2046,0.008,0.011,1.004,3.418,12.695,3.174,-0.115,-1.483,-85.49
 14:35:34.935,eb:33:2e:f9:57:b5, 2085-97-03 00:37:00:2036,0.002,0.017,0.996,3.418,11.963,3.296,-0.082,-1.357,-85.452
 14:35:34.935,eb:33:2e:f9:57:b5, 2085-97-02 00:35:00:2039,0.004,0.016,0.995,3.479,10.803,3.052,-0.038,-1.241,-85.419
 14:35:34.935,eb:33:2e:f9:57:b5, 2085-97-10 00:33:00:2049,0.01,0.017,0.999,3.54,10.193,2.93,-0.005,-1.137,-85.386
 14:35:34.965,eb:33:2e:f9:57:b5, 2085-113-81 00:23:94:-082,0.007,0.019,1.005,3.784,10.071,2.686,0.038,-1.033,-85.358
 14:35:34.965,eb:33:2e:f9:57:b5, 2085-97-03 00:39:00:2045,0.002,0.02,1,3.845,10.193,2.686,0.055,-0.983,-85.347
 14:35:34.965,eb:33:2e:f9:57:b5, 2085-97-253 255:39:00:2040,0.003,0.021,1,4.089,9.766,2.258,0.099,-0.884,-85.314
 14:35:34.965,eb:33:2e:f9:57:b5, 2085-97-06 00:45:00:2057,0.008,0.021,1.002,4.395,9.338,2.136,0.143,-0.786,-85.292
 14:35:35.026,eb:33:2e:f9:57:b5, 2085-97-21 00:44:00:2075,0.015,0.022,1.006,4.761,9.033,2.014,0.192,-0.692,-85.27
 14:35:35.026,eb:33:2e:f9:57:b5, 2085-97-61 00:51:00:2104,0.031,0.022,1.018,5.615,8.85,1.77,0.247,-0.599,-85.248
 14:35:35.026,eb:33:2e:f9:57:b5, 2085-97-80 00:45:00:2114,0.004,0.027,1.026,7.568,8.545,1.343,0.313,-0.511,-85.226
 14:35:35.026,eb:33:2e:f9:57:b5, 2085-97-04 00:41:00:2087,0.004,0.017,1.018,9.766,7.935,1.221,0.412,-0.423,-85.215
 14:35:35.087,eb:33:2e:f9:57:b5, 2085-97-91 00:66:00:2015,0.176,0.021,1.017,11.536,2.991,0.854,0.522,-0.368,-85.204
 14:35:35.088,eb:33:2e:f9:57:b5, 2085-97-16 00:110:00:2112,-0.269,0.067,0.856,27.039,-29.602,1.465,0.709,-0.483,-85.199
 14:35:35.088,eb:33:2e:f9:57:b5, 2085-97-209 254:79:254:2981,-0.02,-0.152,1.556,22.766,-10.437,-5.615,0.967,-0.709,-85.221
 14:35:35.088,eb:33:2e:f9:57:b5, 2085-97-224 255:219:255:2411,0,-0.06,1.222,37.354,-17.395,-6.409,1.291,-0.84,-85.281
 14:35:35.088,eb:33:2e:f9:57:b5, 2085-97-04 00:08:00:2330,-0.016,0,1.158,40.588,-16.113,-7.202,1.681,-1.005,-85.353
 14:35:35.088,eb:33:2e:f9:57:b5, 2085-97-235 255:205:255:2425,0.017,-0.017,1.159,45.349,-18.738,-8.362,2.126,-1.17,-85.446
 14:35:35.088,eb:33:2e:f9:57:b5, 2085-97-54 00:198:255:2525,0.021,-0.021,1.217,51.147,-19.897,-8.179,2.609,-1.362,-85.534
 14:35:35.089,eb:33:2e:f9:57:b5, 2085-97-31 00:194:255:2466,-0.011,-0.041,1.25,57.678,-18.677,-7.08,3.164,-1.544,-85.627
 14:35:35.146,eb:33:2e:f9:57:b5, 2085-97-210 255:194:255:2393,-0.003,-0.028,1.167,63.11,-20.874,-3.418,3.774,-1.736,-85.688
 14:35:35.146,eb:33:2e:f9:57:b5, 2085-97-60 00:226:255:2434,0.062,-0.023,1.158,68.054,-25.33,2.014,4.438,-1.961,-85.715
 14:35:35.146,eb:33:2e:f9:57:b5, 2085-97-218 00:220:255:2660,0.152,-0.013,1.24,74.707,-24.414,5.92,5.153,-2.225,-85.693
 14:35:35.146,eb:33:2e:f9:57:b5, 2085-97-162 01:30:00:2789,0.238,0,1.335,82.947,-11.108,7.751,5.949,-2.406,-85.638
 14:35:35.175,eb:33:2e:f9:57:b5, 2085-97-247 01:57:00:2776,0.198,0.035,1.368,92.407,10.193,6.104,6.828,-2.411,-85.567
 14:35:35.175,eb:33:2e:f9:57:b5, 2085-97-51 01:108:255:2934,0.201,-0.005,1.357,103.882,26.917,5.31,7.811,-2.214,-85.485
 14:35:35.175,eb:33:2e:f9:57:b5, 2085-97-123 02:204:255:3158,0.393,-0.078,1.521,121.155,42.603,6.775,8.943,-1.884,-85.364
 14:35:35.175,eb:33:2e:f9:57:b5, 2085-97-227 02:97:00:2836,0.228,0.035,1.479,136.475,72.754,0.244,10.245,-1.307,-85.221
 14:35:35.204,eb:33:2e:f9:57:b5, 2085-97-205 00:126:255:2666,0.035,0.002,1.321,151.794,85.938,-3.845,11.684,-0.494,-85.084
 14:35:35.204,eb:33:2e:f9:57:b5, 2085-97-67 00:118:255:2492,0.033,-0.086,1.266,169.25,83.313,-0.732,13.304,0.335,-84.913
 14:35:35.204,eb:33:2e:f9:57:b5, 2085-97-200 00:25:00:2646,0.169,0,1.223,187.195,73.303,-1.404,15.095,1.093,-84.716
 14:35:35.204,eb:33:2e:f9:57:b5, 2085-97-132 01:07:00:2946,0.257,-0.002,1.372,206.238,69.336,-7.874,17.078,1.774,-84.562
 14:35:35.235,eb:33:2e:f9:57:b5, 2085-97-48 02:25:00:2967,0.247,-0.012,1.473,226.99,83.862,-17.517,19.259,2.543,-84.446
 14:35:35.235,eb:33:2e:f9:57:b5, 2085-97-38 01:47:00:3035,0.056,0.033,1.448,247.986,96.558,-27.222,21.649,3.483,-84.326
 14:35:35.235,eb:33:2e:f9:57:b5, 2085-97-71 00:08:01:3128,-0.013,0.016,1.512,269.653,104.126,-31.921,24.258,4.532,-84.205
 14:35:35.235,eb:33:2e:f9:57:b5, 2085-97-13 255:232:00:3867,-0.211,0.202,1.716,285.828,102.6,-39.001,27.065,5.609,-84.067
 14:35:35.296,eb:33:2e:f9:57:b5, 2085-97-22 254:139:01:3748,-0.081,0.128,1.963,300.354,122.925,-36.072,30.026,6.79,-83.848
 14:35:35.296,eb:33:2e:f9:57:b5, 2085-97-81 00:207:05:3206,0.015,0.626,1.511,317.993,86.975,-33.264,33.179,7.91,-83.507
 14:35:35.296,eb:33:2e:f9:57:b5, 2085-97-243 255:77:02:3584,-0.068,0.487,1.783,325.623,46.875,-45.776,36.398,8.624,-83.496
 14:35:35.296,eb:33:2e:f9:57:b5, 2085-97-83 255:37:01:3521,-0.119,0.245,1.717,336.121,38.513,-52.429,39.694,9.267,-83.611
 14:35:35.326,eb:33:2e:f9:57:b5, 2085-97-135 255:26:03:3566,0.036,0.187,1.666,347.534,26.367,-53.223,43.094,9.866,-83.787
 14:35:35.326,eb:33:2e:f9:57:b5, 2085-97-235 00:18:05:4133,0.185,0.546,1.857,343.933,-3.113,-62.866,46.516,10.36,-84.117
 14:35:35.326,eb:33:2e:f9:57:b5, 2085-97-186 01:93:01:4725,0.206,0.485,2.212,314.636,-20.081,-77.515,49.697,10.783,-84.732
 14:35:35.326,eb:33:2e:f9:57:b5, 2085-97-188 01:125:249:4362,0.316,-0.342,2.251,275.085,25.085,-82.581,52.531,11.42,-85.254
 14:35:35.354,eb:33:2e:f9:57:b5, 2085-97-02 01:164:244:211,-0.033,-1.824,1.657,244.873,100.342,-65.247,55.157,12.42,-85.133
 14:35:35.354,eb:33:2e:f9:57:b5, 2085-97-193 255:212:245:535,0.079,-0.889,-0.239,111.755,98.267,-29.48,57.09,13.31,-84.639
 14:35:35.354,eb:33:2e:f9:57:b5, 2085-97-71 01:164:248:1515,0.176,-1.183,0.533,-25.269,101.624,0.244,57.623,13.958,-83.765
 14:35:35.354,eb:33:2e:f9:57:b5, 2085-97-174 01:212:249:2285,0.248,-0.817,0.951,-106.018,86.67,11.047,57.063,14.387,-82.914
 14:35:35.414,eb:33:2e:f9:57:b5, 2085-97-18 02:27:251:2190,0.272,-0.704,1.148,-130.127,83.435,11.108,56.036,14.744,-82.123
 14:35:35.414,eb:33:2e:f9:57:b5, 2085-97-72 02:41:252:1681,0.286,-0.53,0.95,-135.376,75.073,5.493,54.877,15.117,-81.398
 14:35:35.414,eb:33:2e:f9:57:b5, 2085-97-54 02:57:252:1161,0.259,-0.462,0.683,-142.7,60.364,-1.526,53.641,15.491,-80.821
 14:35:35.414,eb:33:2e:f9:57:b5, 2085-97-249 01:48:252:830,0.23,-0.479,0.48,-164.551,46.936,-7.385,52.207,15.842,-80.42
 14:35:35.445,eb:33:2e:f9:57:b5, 2085-97-194 01:16:252:611,0.221,-0.477,0.338,-204.285,41.504,-9.338,50.433,16.177,-80.123
 14:35:35.445,eb:33:2e:f9:57:b5, 2085-97-223 01:177:251:607,0.259,-0.518,0.285,-252.502,39.978,-9.46,48.186,16.512,-79.871
 14:35:35.445,eb:33:2e:f9:57:b5, 2085-97-94 02:138:251:758,0.324,-0.551,0.323,-296.143,36.133,-10.315,45.478,16.842,-79.651
 14:35:35.445,eb:33:2e:f9:57:b5, 2085-97-206 02:144:251:914,0.376,-0.558,0.409,-329.712,25.269,-13.733,42.347,17.144,-79.514
 14:35:35.475,eb:33:2e:f9:57:b5, 2085-97-51 03:204:251:988,0.417,-0.539,0.465,-353.149,9.46,-18.677,38.908,17.375,-79.536
 14:35:35.475,eb:33:2e:f9:57:b5, 2085-97-127 03:192:251:1140,0.452,-0.534,0.51,-367.31,-9.338,-23.132,35.222,17.501,-79.722
 14:35:35.475,eb:33:2e:f9:57:b5, 2085-97-163 03:63:252:1360,0.468,-0.513,0.613,-373.169,-26.001,-23.621,31.415,17.474,-80.046
 14:35:35.475,eb:33:2e:f9:57:b5, 2085-97-197 03:201:252:1526,0.494,-0.435,0.706,-377.319,-38.879,-20.996,27.532,17.298,-80.425
 14:35:35.536,eb:33:2e:f9:57:b5, 2085-97-48 04:72:253:1703,0.558,-0.38,0.787,-383.362,-49.5,-17.578,23.615,16.979,-80.815
 14:35:35.537,eb:33:2e:f9:57:b5, 2085-97-198 04:250:253:1931,0.627,-0.295,0.881,-390.564,-59.998,-16.113,19.611,16.523,-81.194
 14:35:35.537,eb:33:2e:f9:57:b5, 2085-97-68 05:01:255:2062,0.681,-0.194,1.001,-388.062,-69.946,-16.235,15.606,15.952,-81.573
 14:35:35.537,eb:33:2e:f9:57:b5, 2085-97-42 05:82:255:2019,0.671,-0.096,1,-376.404,-88.989,-16.296,11.667,15.222,-81.942
 14:35:35.564,eb:33:2e:f9:57:b5, 2085-97-49 05:255:254:2174,0.591,-0.08,1.02,-366.76,-118.835,-17.212,7.866,14.216,-82.315
 14:35:35.564,eb:33:2e:f9:57:b5, 2085-97-193 04:75:254:2619,0.584,-0.175,1.139,-360.352,-147.095,-13.184,4.142,12.892,-82.634
 14:35:35.564,eb:33:2e:f9:57:b5, 2085-97-161 04:07:254:3172,0.588,-0.242,1.422,-354.187,-165.1,-3.906,0.533,11.31,-82.804
 14:35:35.564,eb:33:2e:f9:57:b5, 2085-97-206 04:175:254:3641,0.623,-0.216,1.679,-343.506,-171.387,6.165,-2.961,9.613,-82.771
 14:35:35.626,eb:33:2e:f9:57:b5, 2085-97-27 05:222:255:3907,0.637,-0.095,1.854,-328.247,-178.406,13.977,-6.279,7.877,-82.54
 14:35:35.626,eb:33:2e:f9:57:b5, 2085-97-246 04:36:01:4150,0.592,0.064,1.958,-317.261,-191.772,17.273,-9.47,6.053,-82.139
 14:35:35.626,eb:33:2e:f9:57:b5, 2085-97-110 04:114:02:4538,0.511,0.225,2.121,-308.289,-207.764,17.334,-12.546,4.109,-81.601
 14:35:35.626,eb:33:2e:f9:57:b5, 2085-97-184 03:222:03:4852,0.414,0.392,2.299,-291.443,-216.431,20.142,-15.529,2.065,-80.925
 14:35:35.654,eb:33:2e:f9:57:b5, 2085-97-225 02:147:05:5056,0.304,0.586,2.422,-267.273,-222.046,24.536,-18.303,0.033,-80.09
 14:35:35.654,eb:33:2e:f9:57:b5, 2085-97-13 02:88:07:5246,0.209,0.81,2.517,-239.319,-228.76,29.297,-20.863,-2.027,-79.096
 14:35:35.654,eb:33:2e:f9:57:b5, 2085-97-86 01:36:09:5338,0.127,1.034,2.605,-210.51,-231.445,33.508,-23.159,-4.059,-77.953
 14:35:35.654,eb:33:2e:f9:57:b5, 2085-97-177 00:120:10:5116,0.02,1.241,2.555,-188.049,-234.07,27.954,-25.258,-6.075,-76.723
 14:35:35.685,eb:33:2e:f9:57:b5, 2085-97-33 255:204:10:4914,-0.225,1.345,2.442,-168.152,-236.877,12.695,-27.186,-8.113,-75.509
 14:35:35.685,eb:33:2e:f9:57:b5, 2085-97-51 249:158:09:3927,-1.492,1.308,2.445,-147.034,-234.985,-4.883,-28.938,-10.223,-74.372
 14:35:35.685,eb:33:2e:f9:57:b5, 2085-97-210 240:158:04:4262,-2.182,0.854,1.552,-113.953,-291.504,-4.089,-30.471,-12.535,-73.163
 14:35:35.685,eb:33:2e:f9:57:b5, 2085-97-21 239:190:01:7142,-1.948,0.33,2.947,-97.168,-241.638,28.87,-31.904,-14.925,-71.548
 14:35:35.745,eb:33:2e:f9:57:b5, 2085-97-233 242:75:11:5508,-1.176,0.653,3.228,-91.553,-32.166,77.82,-33.157,-15.677,-70.367
 14:35:35.745,eb:33:2e:f9:57:b5, 2085-97-210 249:239:22:3348,-0.54,2.183,2.21,-68.726,57.373,74.829,-34.124,-15.002,-69.813
 14:35:35.745,eb:33:2e:f9:57:b5, 2085-97-33 252:192:27:2084,-0.567,3.349,1.146,-9.705,20.691,23.376,-34.557,-14.343,-69.648
 14:35:35.745,eb:33:2e:f9:57:b5, 2085-97-146 249:125:21:3207,-1.079,3.177,1.28,58.411,-43.091,-41.382,-34.261,-14.59,-69.653
 14:35:35.745,eb:33:2e:f9:57:b5, 2085-97-232 245:111:11:4053,-2.089,2.073,1.794,94.543,-31.86,-71.106,-33.371,-15.282,-69.939
 14:35:35.775,eb:33:2e:f9:57:b5, 2085-113-58 00:107:224:4050,0.771,-1.958,7.006,145.142,163.33,-64.88,-31.954,-15.864,-70.499
 14:35:35.775,eb:33:2e:f9:57:b5, 2085-97-236 13:208:236:-394,1.648,-2.795,-0.45,180.908,55.969,-12.207,-30.981,-15.782,-71.027
 14:35:35.775,eb:33:2e:f9:57:b5, 2085-97-27 06:54:248:1664,0.004,-1.909,0.864,315.735,187.744,-21.545,-28.334,-14.782,-71.45
 14:35:35.775,eb:33:2e:f9:57:b5, 2085-97-58 247:37:04:1188,-1.262,-0.337,0.684,354.736,248.535,-45.532,-24.461,-12.772,-72.938
 14:35:35.805,eb:33:2e:f9:57:b5, 2085-97-71 249:190:01:1633,-0.278,0.499,0.633,298.096,119.08,-64.148,-20.94,-11.321,-74.202
 14:35:35.805,eb:33:2e:f9:57:b5, 2085-97-182 255:232:254:2010,-0.001,-0.051,0.986,265.625,55.542,-57.129,-18.007,-10.805,-75.031
 14:35:35.805,eb:33:2e:f9:57:b5, 2085-97-63 00:106:00:2162,0.148,-0.094,0.945,246.948,21.973,-46.875,-15.326,-10.569,-75.641
 14:35:35.805,eb:33:2e:f9:57:b5, 2085-97-156 01:125:01:2699,0.182,0.167,1.26,217.834,6.653,-48.584,-12.914,-10.596,-76.135
 14:35:35.866,eb:33:2e:f9:57:b5, 2085-97-186 01:153:00:2434,0.268,0.134,1.239,187.134,26.245,-45.41,-10.811,-10.503,-76.641
 14:35:35.866,eb:33:2e:f9:57:b5, 2085-97-38 02:101:00:2423,0.206,0.05,1.188,164.734,36.804,-38.818,-8.976,-10.256,-77.119
 14:35:35.866,eb:33:2e:f9:57:b5, 2085-97-142 01:33:00:2339,0.134,0.022,1.143,145.996,46.143,-27.527,-7.361,-9.871,-77.509
 14:35:35.866,eb:33:2e:f9:57:b5, 2085-97-234 255:56:01:2257,-0.003,0.063,1.136,126.465,52.063,-15.503,-5.966,-9.393,-77.761
 14:35:35.894,eb:33:2e:f9:57:b5, 2085-97-10 00:75:02:2376,-0.015,0.284,1.177,99.487,45.776,-16.052,-4.796,-8.926,-77.953
 14:35:35.894,eb:33:2e:f9:57:b5, 2085-97-41 00:101:01:2187,0.059,0.25,1.107,70.068,47.546,-15.503,-3.939,-8.465,-78.146
 14:35:35.894,eb:33:2e:f9:57:b5, 2085-97-178 00:150:00:2104,0.092,0.112,1.041,51.025,46.387,-10.498,-3.323,-7.998,-78.305
 14:35:35.894,eb:33:2e:f9:57:b5, 2085-97-169 00:102:00:2050,0.084,0.05,1.013,40.833,45.227,-8.179,-2.856,-7.542,-78.409
 14:35:36.014,eb:33:2e:f9:57:b5, 2085-97-168 00:70:00:2031,0.081,0.041,0.997,33.691,41.26,-8.545,-2.466,-7.108,-78.514
 14:35:36.014,eb:33:2e:f9:57:b5, 2085-97-155 00:45:00:2033,0.07,0.026,0.99,29.175,36.316,-10.742,-2.142,-6.724,-78.624
 14:35:36.014,eb:33:2e:f9:57:b5, 2085-97-132 00:41:00:2010,0.06,0.02,0.989,26.611,32.898,-13.367,-1.846,-6.378,-78.75
 14:35:36.014,eb:33:2e:f9:57:b5, 2085-97-124 00:14:00:2001,0.058,0.02,0.98,25.085,26.978,-16.724,-1.571,-6.086,-78.909
 14:35:36.018,eb:33:2e:f9:57:b5, 2085-97-127 00:00:00:2014,0.07,0.005,0.981,25.391,22.888,-19.775,-1.291,-5.834,-79.102
 14:35:36.018,eb:33:2e:f9:57:b5, 2085-97-247 00:50:255:2023,0.223,0.04,1.004,23.865,22.217,-21.79,-1.005,-5.614,-79.316
 14:35:36.018,eb:33:2e:f9:57:b5, 2085-97-228 00:28:00:2121,0.075,-0.006,1.084,17.578,25.757,-5.493,-0.78,-5.394,-79.437
 14:35:36.018,eb:33:2e:f9:57:b5, 2085-97-180 00:16:00:2052,0.1,0.013,1.013,14.648,33.142,-0.061,-0.632,-5.092,-79.448
 14:35:36.021,eb:33:2e:f9:57:b5, 2085-97-195 00:54:00:2063,0.083,0.008,1.027,14.587,37.17,-0.671,-0.478,-4.741,-79.459
 14:35:36.021,eb:33:2e:f9:57:b5, 2085-97-124 00:66:00:2037,0.051,0.041,0.995,11.047,33.447,-0.061,-0.346,-4.378,-79.459
 14:35:36.021,eb:33:2e:f9:57:b5, 2085-97-135 00:17:00:2062,0.068,0.016,0.996,8.972,30.212,1.038,-0.242,-4.059,-79.453
 14:35:36.021,eb:33:2e:f9:57:b5, 2085-97-126 00:41:00:2059,0.052,0.013,1.01,7.874,31.921,3.418,-0.159,-3.752,-79.42
 14:35:36.075,eb:33:2e:f9:57:b5, 2085-97-96 00:43:00:2050,0.04,0.021,1.002,5.981,31.311,5.737,-0.088,-3.428,-79.376
 14:35:36.075,eb:33:2e:f9:57:b5, 2085-97-73 00:42:00:2038,0.032,0.021,0.995,4.395,28.503,7.507,-0.038,-3.126,-79.299
 14:35:36.075,eb:33:2e:f9:57:b5, 2085-97-64 00:43:00:2040,0.027,0.02,0.993,3.357,25.208,8.545,0,-2.856,-79.217
 14:35:36.075,eb:33:2e:f9:57:b5, 2085-97-46 00:40:00:2033,0.023,0.021,0.993,2.991,23.071,8.606,0.027,-2.615,-79.124
 14:35:36.136,eb:33:2e:f9:57:b5, 2085-97-50 00:40:00:2045,0.025,0.019,0.997,3.174,21.24,7.69,0.06,-2.395,-79.041
 14:35:36.136,eb:33:2e:f9:57:b5, 2085-97-60 00:37:00:2062,0.028,0.019,1.001,3.479,19.958,6.775,0.093,-2.186,-78.97
 14:35:36.136,eb:33:2e:f9:57:b5, 2085-97-44 00:43:00:2051,0.019,0.02,1.006,3.784,20.325,5.92,0.137,-1.983,-78.904
 14:35:36.136,eb:33:2e:f9:57:b5, 2085-97-43 00:34:00:2057,0.021,0.02,1.001,3.906,20.203,5.371,0.17,-1.78,-78.843
 14:35:36.138,eb:33:2e:f9:57:b5, 2085-97-36 00:38:00:2059,0.014,0.014,1.007,4.272,20.935,5.188,0.22,-1.571,-78.783
 14:35:36.138,eb:33:2e:f9:57:b5, 2085-97-20 00:29:00:2064,0.03,0.017,1.003,4.639,20.752,5.066,0.264,-1.362,-78.728
 14:35:36.138,eb:33:2e:f9:57:b5, 2085-97-18 00:69:00:2047,0.004,0.037,1.003,5.066,18.799,4.395,0.319,-1.159,-78.679
 14:35:36.138,eb:33:2e:f9:57:b5, 2085-97-18 00:55:00:2054,0.011,0.02,0.994,5.249,17.639,3.967,0.368,-0.972,-78.635
 14:35:36.165,eb:33:2e:f9:57:b5, 2085-97-28 00:56:00:2065,0.021,0.024,1.006,5.371,16.174,3.357,0.428,-0.797,-78.596
 14:35:36.165,eb:33:2e:f9:57:b5, 2085-97-130 00:75:00:2134,0.077,0.034,1.012,5.859,15.259,1.892,0.483,-0.637,-78.563
 14:35:36.165,eb:33:2e:f9:57:b5, 2085-97-206 00:72:00:2480,0.116,0.042,1.083,8.484,15.259,-1.221,0.56,-0.489,-78.558
 14:35:36.165,eb:33:2e:f9:57:b5, 2085-97-153 00:21:00:2378,-0.028,0.027,1.198,7.812,26.55,-5.31,0.643,-0.28,-78.591
 14:35:36.225,eb:33:2e:f9:57:b5, 2085-97-107 254:205:253:3372,0.146,-0.17,1.438,22.766,19.897,-4.883,0.78,-0.022,-78.64
 14:35:36.225,eb:33:2e:f9:57:b5, 2085-97-254 255:09:00:2453,-0.068,0.104,1.101,38.086,9.46,-14.343,1.099,0.159,-78.712
 14:35:36.225,eb:33:2e:f9:57:b5, 2085-97-206 255:201:255:2389,-0.062,-0.081,1.258,42.542,9.033,-16.479,1.505,0.264,-78.876
 14:35:36.225,eb:33:2e:f9:57:b5, 2085-97-93 255:161:255:2365,-0.053,-0.026,1.134,49.927,-1.587,-17.517,1.978,0.302,-79.047
 14:35:36.286,eb:33:2e:f9:57:b5, 2085-97-185 255:179:255:2412,-0.043,-0.04,1.168,56.091,-9.46,-16.113,2.516,0.253,-79.217
 14:35:36.286,eb:33:2e:f9:57:b5, 2085-97-47 00:182:255:2595,0.03,-0.074,1.226,63.904,-14.099,-14.893,3.12,0.143,-79.376
 14:35:36.286,eb:33:2e:f9:57:b5, 2085-97-87 00:182:255:2594,0.055,-0.033,1.238,72.449,-13.062,-13.123,3.807,0.027,-79.525
 14:35:36.286,eb:33:2e:f9:57:b5, 2085-97-142 00:147:255:2670,0.074,-0.052,1.297,81.055,-5.554,-10.01,4.581,-0.06,-79.651
 14:35:36.286,eb:33:2e:f9:57:b5, 2085-97-129 00:104:255:2758,0.05,-0.062,1.332,92.529,4.333,-5.676,5.46,-0.049,-79.728
 14:35:36.286,eb:33:2e:f9:57:b5, 2085-97-89 00:94:255:2723,0.04,-0.079,1.342,105.469,16.052,-0.549,6.454,0.06,-79.744
 14:35:36.286,eb:33:2e:f9:57:b5, 2085-97-75 00:135:255:2666,0.038,-0.067,1.315,118.774,23.987,3.418,7.586,0.269,-79.695
 14:35:36.286,eb:33:2e:f9:57:b5, 2085-97-68 00:99:255:2668,0.028,-0.063,1.295,133.423,25.208,5.554,8.855,0.505,-79.612
 14:35:36.345,eb:33:2e:f9:57:b5, 2085-97-69 00:93:255:2689,0.051,-0.082,1.319,148.804,25.757,9.338,10.278,0.747,-79.492
 14:35:36.345,eb:33:2e:f9:57:b5, 2085-97-140 00:129:255:2701,0.077,-0.07,1.31,165.1,26.245,12.512,11.86,0.978,-79.332
 14:35:36.345,eb:33:2e:f9:57:b5, 2085-97-189 00:133:255:2761,0.117,-0.06,1.326,182.434,27.771,13.794,13.612,1.214,-79.135
 14:35:36.345,eb:33:2e:f9:57:b5, 2085-97-20 01:212:255:2827,0.165,-0.045,1.386,200.439,33.936,13.611,15.54,1.467,-78.92
 14:35:36.375,eb:33:2e:f9:57:b5, 2085-113-58 00:37:219:1065,0.137,-0.024,1.399,218.933,41.504,8.423,17.655,1.807,-78.712
 14:35:36.375,eb:33:2e:f9:57:b5, 2085-97-03 01:57:255:3191,0.164,-0.046,1.427,230.469,45.715,6.348,18.787,2.005,-78.602
 14:35:36.375,eb:33:2e:f9:57:b5, 2085-97-16 02:131:255:3832,0.393,-0.108,1.768,257.935,63.11,-0.061,21.248,2.483,-78.387
 14:35:36.375,eb:33:2e:f9:57:b5, 2085-97-219 02:192:00:3423,0.139,0.029,1.785,287.048,105.042,-15.808,23.994,3.307,-78.118
 14:35:36.405,eb:33:2e:f9:57:b5, 2085-97-153 255:12:00:4061,-0.188,0.063,1.732,314.392,108.398,-27.649,27.032,4.389,-77.849
 14:35:36.405,eb:33:2e:f9:57:b5, 2085-97-181 254:59:00:5026,-0.024,-0.02,2.322,342.224,117.981,-25.208,30.361,5.499,-77.536
 14:35:36.405,eb:33:2e:f9:57:b5, 2085-97-88 00:159:01:5105,0.15,0.095,2.527,372.253,124.939,-20.996,34.003,6.658,-77.058
 14:35:36.405,eb:33:2e:f9:57:b5, 2085-97-146 02:248:02:4241,0.426,0.279,2.354,402.466,97.9,-26.855,37.947,7.729,-76.564
 14:35:36.465,eb:33:2e:f9:57:b5, 2085-97-214 02:203:02:3716,0.185,0.538,1.884,427.49,37.659,-48.706,42.138,8.47,-76.421
 14:35:36.465,eb:33:2e:f9:57:b5, 2085-97-23 01:242:02:4643,0.265,0.224,1.967,445.74,-18.982,-69.275,46.456,8.948,-76.805
 14:35:36.465,eb:33:2e:f9:57:b5, 2085-97-217 03:49:04:6159,0.624,0.493,2.621,446.167,-79.346,-100.037,50.79,9.24,-77.811
 14:35:36.465,eb:33:2e:f9:57:b5, 2085-97-82 05:44:254:6233,0.667,0.245,3.111,406.067,-69.763,-130.798,54.838,9.717,-79.162
 14:35:36.496,eb:33:2e:f9:57:b5, 2085-97-148 05:225:239:5093,0.683,-0.989,2.837,338.318,4.517,-145.447,58.354,10.717,-80.239
 14:35:36.496,eb:33:2e:f9:57:b5, 2085-97-80 02:113:247:-785,0.219,-2.437,0.777,283.997,70.129,-126.282,61.436,12.233,-80.338
 14:35:36.496,eb:33:2e:f9:57:b5, 2085-97-116 02:66:242:268,0.5,-1.893,0.042,72.693,130.249,-59.387,63.204,13.502,-79.832
 14:35:36.496,eb:33:2e:f9:57:b5, 2085-97-135 04:142:245:1629,0.602,-1.366,0.411,-85.999,78.857,-36.194,63.171,14.354,-79.085
 14:35:36.525,eb:33:2e:f9:57:b5, 2085-97-02 05:50:246:2353,0.616,-1.303,1.096,-155.701,42.236,-36.926,61.946,14.914,-78.745
 14:35:36.525,eb:33:2e:f9:57:b5, 2085-97-180 04:213:247:1686,0.571,-1.105,1.058,-177.795,24.109,-46.021,60.26,15.425,-78.651
 14:35:36.525,eb:33:2e:f9:57:b5, 2085-97-105 04:143:248:665,0.524,-0.962,0.55,-198.792,-7.202,-62.073,58.321,15.941,-78.871
 14:35:36.525,eb:33:2e:f9:57:b5, 2085-97-206 03:204:248:113,0.411,-0.903,0.167,-238.708,-45.654,-79.407,55.937,16.392,-79.525
 14:35:36.585,eb:33:2e:f9:57:b5, 2085-97-245 02:78:248:240,0.34,-0.916,0.012,-297.424,-79.651,-94.666,52.927,16.738,-80.612
 14:35:36.585,eb:33:2e:f9:57:b5, 2085-97-140 02:137:247:807,0.298,-1.015,0.262,-363.342,-99.365,-103.088,49.147,16.946,-82.024
 14:35:36.585,eb:33:2e:f9:57:b5, 2085-97-75 02:253:246:1069,0.28,-1.092,0.476,-409.119,-105.652,-104.309,44.808,17.023,-83.562
 14:35:36.585,eb:33:2e:f9:57:b5, 2085-97-89 02:154:246:1102,0.3,-1.153,0.528,-440.796,-115.601,-103.149,40.056,16.919,-85.144
 14:35:36.615,eb:33:2e:f9:57:b5, 2085-97-188 02:92:246:1351,0.372,-1.19,0.57,-458.74,-133.423,-99.426,35.068,16.562,-86.786
 14:35:36.615,eb:33:2e:f9:57:b5, 2085-97-15 03:39:247:1744,0.38,-1.182,0.737,-459.717,-149.536,-92.834,29.982,15.892,-88.434
 14:35:36.615,eb:33:2e:f9:57:b5, 2085-97-11 03:159:248:2008,0.383,-1.003,0.928,-446.899,-161.865,-85.938,25.027,14.93,-90.016
 14:35:36.615,eb:33:2e:f9:57:b5, 2085-97-147 02:126:249:2186,0.374,-0.902,1.041,-428.162,-176.392,-76.721,20.281,13.694,-91.489
 14:35:36.645,eb:33:2e:f9:57:b5, 2085-97-11 03:49:249:2576,0.374,-0.861,1.165,-411.743,-184.57,-73.242,15.798,12.228,-92.802
 14:35:36.645,eb:33:2e:f9:57:b5, 2085-97-01 03:57:249:2858,0.357,-0.84,1.334,-402.527,-189.636,-64.453,11.492,10.574,-93.95
 14:35:36.645,eb:33:2e:f9:57:b5, 2085-97-32 03:219:248:3228,0.403,-0.881,1.452,-401.489,-196.594,-53.711,7.322,8.767,-94.878
 14:35:36.645,eb:33:2e:f9:57:b5, 2085-97-109 03:197:249:3486,0.457,-0.85,1.641,-406.616,-208.313,-42.908,3.164,6.79,-95.57
 14:35:36.735,eb:33:2e:f9:57:b5, 2085-97-193 03:236:250:4021,0.451,-0.703,1.808,-409.912,-231.384,-35.217,-0.967,4.603,-96.021
 14:35:36.736,eb:33:2e:f9:57:b5, 2085-97-69 03:199:251:4788,0.344,-0.576,2.15,-404.846,-253.906,-26.367,-5.081,2.137,-96.224
 14:35:36.736,eb:33:2e:f9:57:b5, 2085-97-90 02:04:253:5371,0.276,-0.472,2.532,-397.278,-265.076,-10.803,-9.086,-0.478,-96.114
 14:35:36.736,eb:33:2e:f9:57:b5, 2085-97-60 02:126:254:5687,0.309,-0.297,2.722,-395.386,-271.729,10.437,-13.09,-3.131,-95.614
 14:35:36.736,eb:33:2e:f9:57:b5, 2085-97-186 02:129:00:6194,0.364,-0.07,2.877,-396.24,-282.593,28.32,-17.122,-5.768,-94.713
 14:35:36.736,eb:33:2e:f9:57:b5, 2085-97-87 02:110:03:6912,0.246,0.179,3.197,-386.23,-293.579,39.429,-21.231,-8.405,-93.444
 14:35:36.736,eb:33:2e:f9:57:b5, 2085-97-136 255:236:05:6777,-0.413,0.611,3.482,-357.605,-304.138,45.776,-25.208,-10.997,-91.868
 14:35:36.736,eb:33:2e:f9:57:b5, 2085-97-92 249:93:06:6769,-1.403,0.703,3.159,-308.716,-341.431,52.185,-28.982,-13.683,-89.945
 14:35:36.765,eb:33:2e:f9:57:b5, 2085-97-07 242:132:08:8776,-1.869,0.994,3.668,-247.803,-363.037,76.05,-32.377,-16.463,-87.49
 14:35:36.765,eb:33:2e:f9:57:b5, 2085-97-170 240:239:12:9309,-1.733,1.217,4.669,-207.52,-239.685,117.31,-35.425,-18.523,-84.869
 14:35:36.765,eb:33:2e:f9:57:b5, 2085-97-07 245:177:22:7022,-0.919,2.164,4.042,-171.753,-78.552,161.072,-38.007,-18.847,-82.738
 14:35:36.765,eb:33:2e:f9:57:b5, 2085-97-251 248:70:35:3938,-0.899,3.563,2.752,-109.863,-23.926,159.18,-39.93,-18.127,-81.129
 14:35:36.854,eb:33:2e:f9:57:b5, 2085-97-121 247:253:38:4620,-1.359,4.94,1.814,-35.889,-109.131,99.67,-41.089,-17.803,-79.612
 14:35:36.854,eb:33:2e:f9:57:b5, 2085-97-34 242:112:30:6155,-2.039,4.404,2.728,36.865,-115.234,46.753,-41.479,-18.309,-78.25
 14:35:36.854,eb:33:2e:f9:57:b5, 2085-97-60 239:119:21:5693,-1.922,3.235,2.996,103.882,-24.719,32.898,-40.968,-18.534,-77.481
 14:35:36.854,eb:33:2e:f9:57:b5, 2085-97-32 243:77:16:5265,-1.219,2.273,2.662,142.639,38.574,53.467,-39.781,-18.188,-77.206
 14:35:36.856,eb:33:2e:f9:57:b5, 2085-97-117 249:203:13:4848,-0.426,1.867,2.451,169.373,85.022,63.232,-38.232,-17.281,-77.135
 14:35:36.856,eb:33:2e:f9:57:b5, 2085-97-110 255:187:09:4068,0.332,1.504,2.221,197.266,104.248,48.828,-36.337,-16.144,-77.272
 14:35:36.856,eb:33:2e:f9:57:b5, 2085-97-186 32:69:199:-5212,4.19,-5.91,5.047,17.456,-75.439,-150.452,-34.755,-16.271,-77.783
 14:35:36.856,eb:33:2e:f9:57:b5, 2085-97-119 18:124:230:820,0.517,-6.138,-0.488,240.723,65.308,44.739,-33.58,-16.529,-77.756
 14:35:36.916,eb:33:2e:f9:57:b5, 2085-97-232 248:247:02:855,-1.63,-0.574,0.498,420.837,266.235,-53.711,-29.603,-14.777,-78.975
 14:35:36.916,eb:33:2e:f9:57:b5, 2085-97-225 244:198:03:610,-0.455,0.447,0.118,370.178,140.076,-27.161,-25.225,-13.03,-80.447
 14:35:36.916,eb:33:2e:f9:57:b5, 2085-97-162 03:236:02:3545,0.459,0.462,0.997,290.833,-42.175,-14.099,-21.929,-12.892,-80.651
 14:35:36.916,eb:33:2e:f9:57:b5, 2085-97-31 02:82:01:2811,0.075,0.258,1.681,236.023,23.132,-30.212,-19.303,-13.101,-80.848
 14:35:36.946,eb:33:2e:f9:57:b5, 2085-97-149 00:02:01:2335,0.199,0.138,1.127,203.979,48.828,-41.626,-17.018,-12.783,-81.321
 14:35:36.946,eb:33:2e:f9:57:b5, 2085-97-71 01:161:00:2485,0.088,0.099,1.232,176.453,53.589,-59.998,-14.98,-12.442,-81.974
 14:35:36.946,eb:33:2e:f9:57:b5, 2085-97-121 00:172:255:2130,0.095,0.034,1.13,153.259,60.425,-63.721,-13.184,-12.014,-82.744
 14:35:36.946,eb:33:2e:f9:57:b5, 2085-97-252 00:214:254:2044,0.16,-0.127,0.99,139.587,49.5,-50.903,-11.585,-11.585,-83.436
 14:35:36.975,eb:33:2e:f9:57:b5, 2085-97-37 01:16:255:2087,0.088,-0.15,1.01,132.751,41.26,-36.316,-10.124,-11.228,-83.941
 14:35:36.975,eb:33:2e:f9:57:b5, 2085-97-187 00:179:255:2091,0.11,-0.065,1.021,126.465,37.598,-30.457,-8.745,-10.876,-84.331
 14:35:36.975,eb:33:2e:f9:57:b5, 2085-97-63 01:80:01:2350,0.124,0.051,1.074,114.868,32.654,-29.907,-7.471,-10.574,-84.672
 14:35:36.975,eb:33:2e:f9:57:b5, 2085-97-132 00:43:01:2197,0.063,0.222,1.151,90.271,40.039,-34.302,-6.378,-10.245,-85.045
 14:35:37.125,eb:33:2e:f9:57:b5, 2085-97-171 00:63:00:2085,0.103,0.076,1.03,70.251,35.645,-29.785,-5.526,-9.888,-85.402
 14:35:37.125,eb:33:2e:f9:57:b5, 2085-97-226 00:48:00:2071,0.119,0.026,1.017,58.716,31.189,-26.917,-4.828,-9.575,-85.71
 14:35:37.125,eb:33:2e:f9:57:b5, 2085-97-237 00:06:00:2070,0.114,0.021,1.014,51.88,30.64,-28.564,-4.235,-9.289,-86.012
 14:35:37.125,eb:33:2e:f9:57:b5, 2085-97-232 00:206:255:2032,0.113,-0.004,0.999,47.974,30.457,-29.236,-3.68,-8.992,-86.325
 14:35:37.156,eb:33:2e:f9:57:b5, 2085-97-220 00:200:255:2009,0.103,-0.023,0.982,46.082,27.039,-27.527,-3.164,-8.718,-86.627
 14:35:37.156,eb:33:2e:f9:57:b5, 2085-97-215 00:198:255:2020,0.122,-0.029,0.984,44.983,22.583,-25.146,-2.659,-8.47,-86.902
 14:35:37.156,eb:33:2e:f9:57:b5, 2085-97-140 01:248:254:2091,0.32,0.053,1.009,40.466,20.813,-21.606,-2.175,-8.267,-87.149
 14:35:37.156,eb:33:2e:f9:57:b5, 2085-97-48 01:51:00:2132,0.153,-0.01,1.147,29.907,38.208,4.089,-1.807,-7.987,-87.215
 14:35:37.156,eb:33:2e:f9:57:b5, 2085-97-125 01:43:00:2132,0.133,0.019,1.034,24.17,47.668,6.653,-1.555,-7.553,-87.144
 14:35:37.156,eb:33:2e:f9:57:b5, 2085-97-03 01:249:255:2112,0.15,-0.005,1.025,21.362,54.138,5.859,-1.329,-7.031,-87.1
 14:35:37.156,eb:33:2e:f9:57:b5, 2085-97-242 00:125:00:2033,0.065,0.023,1.026,18.372,59.509,8.24,-1.137,-6.449,-87.028
 14:35:37.156,eb:33:2e:f9:57:b5, 2085-97-107 00:19:00:1983,0.071,0.041,0.97,12.695,50.659,7.202,-0.989,-5.894,-86.957
 14:35:37.159,eb:33:2e:f9:57:b5, 2085-97-147 00:02:00:2028,0.064,-0.002,0.989,11.292,42.969,8.362,-0.879,-5.438,-86.88
 14:35:37.159,eb:33:2e:f9:57:b5, 2085-97-100 00:33:00:1998,0.024,0.005,0.989,10.803,39.368,8.728,-0.764,-5.015,-86.792
 14:35:37.159,eb:33:2e:f9:57:b5, 2085-97-31 00:47:00:1955,0.018,0.02,0.959,9.338,29.724,8.301,-0.67,-4.669,-86.71
 14:35:37.159,eb:33:2e:f9:57:b5, 2085-97-55 00:04:00:1998,0.031,0.013,0.964,8.423,17.517,7.751,-0.588,-4.438,-86.627
 14:35:37.186,eb:33:2e:f9:57:b5, 2085-97-63 00:14:00:2015,0.033,0.001,0.983,8.423,10.925,7.996,-0.511,-4.301,-86.55
 14:35:37.186,eb:33:2e:f9:57:b5, 2085-97-75 00:12:00:2032,0.078,0.011,0.986,7.812,6.348,8.118,-0.428,-4.208,-86.468
 14:35:37.186,eb:33:2e:f9:57:b5, 2085-97-81 00:33:00:2068,0.05,-0.011,1.016,6.958,5.92,9.705,-0.357,-4.158,-86.38
 14:35:37.186,eb:33:2e:f9:57:b5, 2085-97-18 00:37:00:2056,0.103,0.018,0.993,7.08,7.202,6.836,-0.286,-4.081,-86.303
 14:35:37.245,eb:33:2e:f9:57:b5, 2085-97-45 00:132:00:1945,0.064,-0.064,1.032,7.324,14.587,11.108,-0.22,-3.961,-86.232
 14:35:37.245,eb:33:2e:f9:57:b5, 2085-97-17 00:89:255:1987,0.121,-0.01,1.02,5.798,12.451,11.963,-0.137,-3.834,-86.16
 14:35:37.245,eb:33:2e:f9:57:b5, 2085-97-205 255:205:00:1985,-0.014,0.003,1.067,12.756,12.634,16.296,-0.027,-3.757,-86.012
 14:35:37.245,eb:33:2e:f9:57:b5, 2085-97-44 00:28:00:2071,0.058,-0.049,0.983,13.855,12.817,11.108,0.088,-3.582,-85.897
 14:35:37.274,eb:33:2e:f9:57:b5, 2085-97-139 01:222:255:2234,0.187,0.009,1.055,17.09,13.916,11.108,0.236,-3.455,-85.776
 14:35:37.274,eb:33:2e:f9:57:b5, 2085-97-191 00:104:00:1914,0.05,-0.021,1.04,46.021,-19.592,10.925,0.56,-3.499,-85.666
 14:35:37.274,eb:33:2e:f9:57:b5, 2085-97-239 255:27:00:2245,-0.014,0.037,1.002,51.575,-29.785,4.578,1.071,-3.779,-85.6
 14:35:37.274,eb:33:2e:f9:57:b5, 2085-97-79 00:125:254:3324,0.125,-0.124,1.804,45.654,-13.123,-7.019,1.56,-4.026,-85.616
 14:35:37.366,eb:33:2e:f9:57:b5, 2085-97-140 00:21:00:2402,0.013,-0.02,1.278,57.068,-9.216,-11.963,2.093,-4.114,-85.71
 14:35:37.366,eb:33:2e:f9:57:b5, 2085-97-228 00:10:00:2532,0.161,-0.032,1.193,60.181,-2.136,-15.808,2.697,-4.147,-85.858
 14:35:37.366,eb:33:2e:f9:57:b5, 2085-97-231 00:63:00:2475,0.125,0.044,1.208,65.063,-0.244,-20.996,3.345,-4.147,-86.045
 14:35:37.366,eb:33:2e:f9:57:b5, 2085-97-23 01:52:00:2458,0.153,0.02,1.214,68.726,5.066,-24.109,4.043,-4.103,-86.276
 14:35:37.368,eb:33:2e:f9:57:b5, 2085-97-45 01:106:00:2397,0.143,0.041,1.186,70.74,16.479,-24.048,4.757,-3.977,-86.506
 14:35:37.368,eb:33:2e:f9:57:b5, 2085-97-34 01:113:00:2344,0.111,0.054,1.171,72.266,28.015,-22.888,5.499,-3.719,-86.721
 14:35:37.368,eb:33:2e:f9:57:b5, 2085-97-202 00:96:00:2318,0.081,0.046,1.115,75.623,36.133,-19.47,6.246,-3.367,-86.891
 14:35:37.368,eb:33:2e:f9:57:b5, 2085-97-186 00:66:00:2487,0.07,0.039,1.17,82.458,39.062,-17.273,7.053,-2.955,-87.023
 14:35:37.424,eb:33:2e:f9:57:b5, 2085-97-35 00:09:00:2456,-0.014,0.019,1.208,90.942,40.222,-13.855,7.927,-2.538,-87.122
 14:35:37.424,eb:33:2e:f9:57:b5, 2085-97-171 255:194:255:2419,-0.061,-0.008,1.19,100.83,34.668,-8.85,8.899,-2.142,-87.177
 14:35:37.424,eb:33:2e:f9:57:b5, 2085-113-58 00:217:219:1110,-0.078,-0.039,1.171,111.572,27.283,-1.221,9.965,-1.829,-87.166
 14:35:37.425,eb:33:2e:f9:57:b5, 2085-97-63 255:172:255:2327,-0.095,-0.046,1.139,117.676,20.874,2.93,10.547,-1.708,-87.138
 14:35:37.425,eb:33:2e:f9:57:b5, 2085-97-131 255:121:255:2484,0,-0.058,1.169,131.287,7.141,11.047,11.794,-1.593,-87.039
 14:35:37.426,eb:33:2e:f9:57:b5, 2085-97-170 00:214:255:2748,0.156,-0.041,1.276,148.071,-0.366,16.785,13.195,-1.599,-86.891
 14:35:37.426,eb:33:2e:f9:57:b5, 2085-97-175 01:02:00:2974,0.247,-0.005,1.396,167.053,1.648,16.052,14.777,-1.637,-86.726
 14:35:37.426,eb:33:2e:f9:57:b5, 2085-97-202 01:190:255:2976,0.047,0.004,1.462,188.782,12.024,10.376,16.567,-1.593,-86.578
 14:35:37.426,eb:33:2e:f9:57:b5, 2085-97-165 255:153:253:3475,0.139,-0.153,1.462,221.985,5.371,7.202,18.627,-1.5,-86.462
 14:35:37.456,eb:33:2e:f9:57:b5, 2085-97-168 03:96:255:3605,0.585,-0.282,1.875,262.695,19.165,3.296,21.072,-1.45,-86.38
 14:35:37.456,eb:33:2e:f9:57:b5, 2085-97-196 02:242:255:3023,-0.029,0.071,1.514,298.401,48.462,-20.264,23.89,-1.06,-86.303
 14:35:37.456,eb:33:2e:f9:57:b5, 2085-97-45 253:191:253:3501,-0.538,-0.216,1.643,342.407,42.908,-36.743,27.114,-0.5,-86.385
 14:35:37.456,eb:33:2e:f9:57:b5, 2085-97-57 250:128:254:3947,-0.806,-0.264,1.735,383.606,23.193,-31.433,30.778,-0.038,-86.534
 14:35:37.515,eb:33:2e:f9:57:b5, 2085-97-55 250:107:02:4318,-0.487,-0.021,2.076,413.635,9.399,-10.864,34.788,0.209,-86.633
 14:35:37.515,eb:33:2e:f9:57:b5, 2085-97-27 254:29:05:5091,-0.099,0.616,2.253,427.551,-18.005,-1.953,39.018,0.176,-86.699
 14:35:37.515,eb:33:2e:f9:57:b5, 2085-97-80 00:160:04:5514,0.16,0.761,2.58,429.626,-16.174,-2.747,43.303,0.055,-86.83
 14:35:37.515,eb:33:2e:f9:57:b5, 2085-97-129 01:73:04:4390,0.3,0.383,2.518,436.035,-7.996,0.366,47.615,0.022,-86.907
 14:35:37.545,eb:33:2e:f9:57:b5, 2085-97-143 03:189:03:4950,0.497,0.56,2.299,434.509,-42.786,-13.062,51.976,-0.104,-87.16
 14:35:37.545,eb:33:2e:f9:57:b5, 2085-97-12 04:71:00:5510,0.47,0.393,2.454,406.311,-44.8,-32.104,56.212,-0.198,-87.687
 14:35:37.545,eb:33:2e:f9:57:b5, 2085-97-70 04:13:251:4965,0.678,-0.363,2.674,355.469,21.179,-37.17,59.991,0.055,-87.973
 14:35:37.545,eb:33:2e:f9:57:b5, 2085-97-189 05:110:253:2463,0.726,-0.656,2.021,301.636,101.379,-56.335,63.243,0.736,-87.594
 14:35:37.575,eb:33:2e:f9:57:b5, 2085-97-243 04:103:255:829,0.536,-0.078,0.667,232.239,98.511,-123.901,65.951,2.06,-87.017
 14:35:37.575,eb:33:2e:f9:57:b5, 2085-97-228 03:06:253:974,0.434,-0.276,0.41,94.482,80.994,-152.466,67.538,3.73,-86.737
 14:35:37.575,eb:33:2e:f9:57:b5, 2085-97-79 03:22:252:1627,0.359,-0.398,0.612,-19.592,30.029,-170.166,67.802,5.433,-86.83
 14:35:37.575,eb:33:2e:f9:57:b5, 2085-97-154 02:242:249:2278,0.326,-0.644,0.963,-91.37,15.198,-174.744,67.115,7.114,-87.336
 14:35:37.635,eb:33:2e:f9:57:b5, 2085-97-147 02:64:250:2122,0.3,-0.755,1.118,-130.554,43.274,-162.598,65.896,8.784,-87.72
 14:35:37.635,eb:33:2e:f9:57:b5, 2085-97-64 02:155:250:1510,0.273,-0.692,0.903,-154.846,71.411,-150.391,64.44,10.453,-87.825
 14:35:37.635,eb:33:2e:f9:57:b5, 2085-97-53 02:220:250:779,0.273,-0.661,0.556,-180.237,80.505,-139.282,62.754,12.09,-87.742
 14:35:37.635,eb:33:2e:f9:57:b5, 2085-97-50 02:03:251:282,0.271,-0.628,0.236,-211.365,69.641,-127.075,60.798,13.618,-87.693
 14:35:37.665,eb:33:2e:f9:57:b5, 2085-97-42 02:04:251:169,0.254,-0.624,0.088,-245.544,52.795,-112,58.458,14.952,-87.759
 14:35:37.665,eb:33:2e:f9:57:b5, 2085-97-01 02:18:251:263,0.258,-0.617,0.091,-278.32,41.077,-93.689,55.778,16.062,-87.929
 14:35:37.665,eb:33:2e:f9:57:b5, 2085-97-37 02:16:251:563,0.281,-0.616,0.201,-305.054,32.898,-75.134,52.773,16.952,-88.121
 14:35:37.665,eb:33:2e:f9:57:b5, 2085-97-101 02:38:251:772,0.316,-0.617,0.337,-322.571,24.292,-58.96,49.559,17.65,-88.319
 14:35:37.695,eb:33:2e:f9:57:b5, 2085-97-191 02:164:251:699,0.373,-0.58,0.37,-335.999,8.301,-45.898,46.17,18.144,-88.55
 14:35:37.695,eb:33:2e:f9:57:b5, 2085-97-33 03:04:252:609,0.407,-0.518,0.317,-353.271,-15.991,-37.109,42.616,18.397,-88.896
 14:35:37.695,eb:33:2e:f9:57:b5, 2085-97-89 03:251:251:729,0.433,-0.498,0.311,-373.413,-45.044,-31.25,38.798,18.38,-89.385
 14:35:37.695,eb:33:2e:f9:57:b5, 2085-97-131 03:223:251:1072,0.45,-0.511,0.438,-390.198,-70.435,-26.794,34.772,18.083,-90.011
 14:35:37.754,eb:33:2e:f9:57:b5, 2085-97-175 03:220:251:1436,0.471,-0.518,0.616,-398.071,-91.736,-23.315,30.586,17.529,-90.709
 14:35:37.754,eb:33:2e:f9:57:b5, 2085-97-221 03:60:252:1753,0.495,-0.501,0.783,-396.24,-108.582,-21.057,26.4,16.749,-91.434
 14:35:37.754,eb:33:2e:f9:57:b5, 2085-97-12 04:204:252:1993,0.519,-0.438,0.923,-387.634,-120.422,-19.104,22.264,15.782,-92.131
 14:35:37.754,eb:33:2e:f9:57:b5, 2085-97-61 04:87:253:2189,0.539,-0.365,1.024,-377.38,-131.714,-19.104,18.276,14.667,-92.785
 14:35:37.785,eb:33:2e:f9:57:b5, 2085-97-03 04:198:253:2427,0.547,-0.301,1.115,-370.544,-145.996,-21.667,14.376,13.392,-93.406
 14:35:37.785,eb:33:2e:f9:57:b5, 2085-97-98 04:230:253:2697,0.543,-0.279,1.259,-372.803,-160.645,-26.55,10.536,11.948,-94.005
 14:35:37.785,eb:33:2e:f9:57:b5, 2085-97-63 04:244:253:3013,0.515,-0.251,1.384,-379.578,-176.697,-34.607,6.636,10.322,-94.598
 14:35:37.785,eb:33:2e:f9:57:b5, 2085-97-224 03:123:253:3507,0.456,-0.28,1.581,-383.606,-193.665,-41.199,2.719,8.503,-95.158
 14:35:37.817,eb:33:2e:f9:57:b5, 2085-97-83 03:238:252:4089,0.397,-0.357,1.865,-380.554,-206.909,-40.833,-1.181,6.493,-95.63
 14:35:37.817,eb:33:2e:f9:57:b5, 2085-97-217 02:220:252:4588,0.328,-0.4,2.139,-375.305,-216.614,-34.485,-4.982,4.356,-95.916
 14:35:37.817,eb:33:2e:f9:57:b5, 2085-113-81 00:141:85:-1133,0.299,-0.368,2.349,-371.765,-229.858,-26.978,-8.745,2.093,-95.971
 14:35:37.817,eb:33:2e:f9:57:b5, 2085-97-28 02:184:253:5302,0.234,-0.333,2.468,-369.446,-236.267,-22.522,-10.596,0.917,-95.911
 14:35:37.875,eb:33:2e:f9:57:b5, 2085-97-159 01:174:254:5869,0.173,-0.234,2.728,-359.985,-245.117,-10.376,-14.249,-1.478,-95.57
 14:35:37.875,eb:33:2e:f9:57:b5, 2085-97-43 01:161:00:6343,0.127,-0.062,2.992,-346.497,-243.286,6.042,-17.831,-3.845,-94.933
 14:35:37.875,eb:33:2e:f9:57:b5, 2085-97-242 00:169:03:6632,0.108,0.252,3.174,-335.51,-236.328,21.301,-21.313,-6.064,-94.01
 14:35:37.875,eb:33:2e:f9:57:b5, 2085-97-166 00:98:07:6667,0.113,0.686,3.266,-326.66,-232.788,31.128,-24.791,-8.124,-92.851
 14:35:37.904,eb:33:2e:f9:57:b5, 2085-97-146 253:214:10:5845,-0.81,1.213,3.336,-311.035,-236.511,32.959,-28.191,-10.107,-91.505
 14:35:37.904,eb:33:2e:f9:57:b5, 2085-97-250 246:03:13:4842,-1.366,1.394,2.458,-261.78,-302.734,36.438,-31.393,-12.299,-89.868
 14:35:37.904,eb:33:2e:f9:57:b5, 2085-97-44 244:170:17:7643,-1.506,1.926,2.896,-206.482,-344.421,62.927,-34.244,-14.875,-87.567
 14:35:37.904,eb:33:2e:f9:57:b5, 2085-97-135 241:217:26:7310,-1.981,2.582,4.234,-158.752,-183.411,91.248,-36.678,-16.677,-85.287
 14:35:37.935,eb:33:2e:f9:57:b5, 2085-97-63 240:39:40:4837,-1.737,4.326,2.653,-111.267,-65.552,106.506,-38.463,-16.859,-83.782
 14:35:37.935,eb:33:2e:f9:57:b5, 2085-97-181 245:151:39:5983,-1.247,5.279,2.609,-17.822,-46.875,68.848,-39.435,-16.754,-82.678
 14:35:37.935,eb:33:2e:f9:57:b5, 2085-97-80 245:81:32:5291,-1.189,4.601,3.086,106.262,29.724,34.119,-39.062,-16.518,-82.183
 14:35:37.935,eb:33:2e:f9:57:b5, 2085-97-100 247:29:21:4337,-0.565,3.259,2.249,188.538,48.157,-17.09,-37.354,-16.155,-82.513
 14:35:37.996,eb:33:2e:f9:57:b5, 2085-97-237 252:84:223:-6312,3.255,-5.597,6.632,81.421,221.313,-128.784,-35.453,-16.397,-83.557
 14:35:37.996,eb:33:2e:f9:57:b5, 2085-97-52 19:62:229:1110,1.071,-5.158,-2.146,239.014,18.738,112.244,-33.788,-15.463,-84.133
 14:35:37.996,eb:33:2e:f9:57:b5, 2085-97-245 250:79:02:993,-1.349,-1.211,0.572,421.631,267.456,58.594,-30.185,-13.48,-84.298
 14:35:37.996,eb:33:2e:f9:57:b5, 2085-97-202 243:242:00:-057,-1.28,0.23,0,404.663,164.49,33.203,-25.785,-11.283,-85.144
 14:35:38.054,eb:33:2e:f9:57:b5, 2085-97-234 251:226:03:1883,0.094,0.305,0.187,342.651,-44.006,65.43,-22.165,-10.613,-84.776
 14:35:38.054,eb:33:2e:f9:57:b5, 2085-97-96 01:57:04:3378,0.003,0.567,1.53,291.26,-80.688,32.654,-19.166,-11.223,-84.007
 14:35:38.054,eb:33:2e:f9:57:b5, 2085-97-226 255:171:02:2550,0.006,0.475,1.429,246.399,-30.273,-6.104,-16.562,-11.646,-83.738
 14:35:38.054,eb:33:2e:f9:57:b5, 2085-97-65 01:161:01:2557,0.323,0.248,1.164,216.125,-23.254,-42.664,-14.227,-11.942,-83.936
 14:35:38.084,eb:33:2e:f9:57:b5, 2085-97-129 03:206:255:2506,0.409,0.108,1.283,193.237,0.916,-65.796,-12.085,-12.189,-84.479
 14:35:38.084,eb:33:2e:f9:57:b5, 2085-97-36 03:212:254:2127,0.365,-0.116,1.098,180.786,25.818,-57.861,-10.08,-12.123,-85.15
