Time,Device name,Chip Time(),Acceleration X(g),Acceleration Y(g),Acceleration Z(g),Angular velocity X(°/s),Angular velocity Y(°/s),Angular velocity Z(°/s),Angle X(°),Angle Y(°),Angle Z(°)
 14:40:33.959,eb:33:2e:f9:57:b5, 2085-97-40 03:244:249:3840,0.217,-0.681,1.762,-545.166,-317.505,-91.125,31.547,20.045,-28.987
 14:40:33.959,eb:33:2e:f9:57:b5, 2085-97-99 00:66:249:4429,-0.106,-0.805,2.002,-551.208,-333.496,-61.829,25.247,17.545,-31.382
 14:40:33.959,eb:33:2e:f9:57:b5, 2085-97-226 253:143:249:5000,-0.32,-0.856,2.345,-547.18,-341.431,-9.277,19.276,14.557,-33.096
 14:40:33.959,eb:33:2e:f9:57:b5, 2085-97-86 253:115:252:5261,-0.327,-0.678,2.518,-535.217,-332.764,52.307,13.651,11.239,-33.882
 14:40:34.021,eb:33:2e:f9:57:b5, 2085-97-102 253:17:02:5444,-0.321,-0.125,2.611,-518.799,-329.712,109.497,8.405,7.844,-33.728
 14:40:34.021,eb:33:2e:f9:57:b5, 2085-97-95 253:210:08:5771,-0.325,0.672,2.727,-496.216,-343.506,145.752,3.389,4.34,-32.8
 14:40:34.021,eb:33:2e:f9:57:b5, 2085-97-65 253:250:15:7005,-0.458,1.531,3.025,-464.294,-364.197,158.997,-1.346,0.747,-31.36
 14:40:34.021,eb:33:2e:f9:57:b5, 2085-97-244 250:251:21:8053,-0.796,2.377,3.718,-415.771,-370.667,151.978,-5.795,-2.884,-29.597
 14:40:34.051,eb:33:2e:f9:57:b5, 2085-97-118 248:228:27:8804,-1.109,3.108,4.082,-384.277,-345.764,130.066,-9.915,-6.279,-27.751
 14:40:34.051,eb:33:2e:f9:57:b5, 2085-97-228 244:45:34:9300,-1.763,3.867,4.507,-350.403,-287.415,99.548,-13.876,-9.168,-25.999
 14:40:34.051,eb:33:2e:f9:57:b5, 2085-97-00 239:14:40:8562,-2.196,4.695,4.416,-264.648,-229.736,64.941,-17.227,-11.426,-24.543
 14:40:34.051,eb:33:2e:f9:57:b5, 2085-97-20 235:71:40:8401,-2.957,4.935,4.025,-135.742,-156.067,45.959,-19.44,-13.173,-23.423
 14:40:34.110,eb:33:2e:f9:57:b5, 2085-97-19 233:101:38:7555,-2.832,5.083,3.923,-31.189,-64.697,19.714,-20.336,-14.084,-22.747
 14:40:34.110,eb:33:2e:f9:57:b5, 2085-97-245 234:166:36:5323,-2.337,4.751,3.125,7.324,11.353,5.493,-20.44,-14.26,-22.582
 14:40:34.110,eb:33:2e:f9:57:b5, 2085-113-81 00:59:122:-6208,-2.027,4.425,2.294,26.917,53.345,18.799,-20.281,-13.887,-22.588
 14:40:34.110,eb:33:2e:f9:57:b5, 2085-97-121 242:238:33:3683,-1.41,4.355,2.06,54.016,68.604,17.822,-20.078,-13.557,-22.604
 14:40:34.110,eb:33:2e:f9:57:b5, 2085-97-182 243:203:18:15966,5.861,4.083,1.5,167.297,-24.597,-39.062,-19.045,-12.98,-22.786
 14:40:34.139,eb:33:2e:f9:57:b5, 2085-97-25 46:117:253:9694,1.49,-4.266,-0.828,563.904,90.027,-103.577,-14.282,-13.304,-24.186
 14:40:34.139,eb:33:2e:f9:57:b5, 2085-97-177 211:34:22:1553,-4.6,-0.772,2.75,590.393,714.539,-202.881,-7.773,-8.163,-27.103
 14:40:34.139,eb:33:2e:f9:57:b5, 2085-97-01 241:04:10:1354,0.155,3.26,0.776,293.335,369.141,-77.942,-2.983,-2.933,-29.18
 14:40:34.139,eb:33:2e:f9:57:b5, 2085-97-135 08:114:249:4933,0.179,1.162,0.804,66.711,109.375,-0.916,-1.505,-0.494,-29.548
 14:40:34.169,eb:33:2e:f9:57:b5, 2085-97-18 251:234:07:741,-0.875,-0.444,0.798,91.919,282.715,83.496,-0.637,1.989,-29.163
 14:40:34.169,eb:33:2e:f9:57:b5, 2085-97-211 252:232:00:1493,-0.047,0.642,0.154,37.842,57.922,9.583,-0.077,3.373,-28.619
 14:40:34.169,eb:33:2e:f9:57:b5, 2085-97-105 255:72:00:1935,-0.334,0.126,0.971,31.25,16.846,-6.409,0.291,3.719,-28.663
 14:40:34.169,eb:33:2e:f9:57:b5, 2085-97-154 255:247:00:2016,0.208,0.072,0.729,23.926,-27.161,-8.911,0.549,3.68,-28.724
 14:40:34.289,eb:33:2e:f9:57:b5, 2085-97-145 02:50:00:2578,0.1,0.057,1.196,18.738,-17.639,-13.123,0.753,3.395,-28.872
 14:40:34.289,eb:33:2e:f9:57:b5, 2085-97-73 255:145:00:1944,-0.164,0.13,1.021,23.499,-14.221,-15.503,0.961,3.318,-28.987
 14:40:34.289,eb:33:2e:f9:57:b5, 2085-97-55 254:147:255:1834,0.127,-0.012,0.929,21.423,-25.208,-18.127,1.181,3.109,-29.191
 14:40:34.289,eb:33:2e:f9:57:b5, 2085-97-93 03:38:00:2901,0.558,0.01,1.179,20.081,-40.588,-6.958,1.373,2.747,-29.333
 14:40:34.291,eb:33:2e:f9:57:b5, 2085-97-255 253:53:252:5192,-0.118,-0.262,1.435,75.928,-111.938,3.906,1.796,2.087,-29.372
 14:40:34.291,eb:33:2e:f9:57:b5, 2085-97-178 00:125:253:4983,0.068,-0.348,2.551,72.693,-46.631,8.911,2.51,1.395,-29.317
 14:40:34.291,eb:33:2e:f9:57:b5, 2085-97-17 01:01:251:5527,0.26,-0.554,2.734,106.14,-29.602,15.869,3.4,1.033,-29.218
 14:40:34.291,eb:33:2e:f9:57:b5, 2085-97-156 02:31:251:5222,0.264,-0.614,2.622,152.466,-18.433,25.818,4.713,0.775,-29.026
 14:40:34.292,eb:33:2e:f9:57:b5, 2085-97-64 02:237:250:4762,0.311,-0.578,2.4,202.209,4.395,21.545,6.504,0.687,-28.768
 14:40:34.292,eb:33:2e:f9:57:b5, 2085-97-167 02:177:248:4756,0.482,-0.812,2.327,262.573,26.123,6.592,8.849,0.824,-28.636
 14:40:34.292,eb:33:2e:f9:57:b5, 2085-97-170 04:252:248:4166,0.631,-0.968,2.194,330.566,53.101,-0.977,11.849,1.225,-28.531
 14:40:34.292,eb:33:2e:f9:57:b5, 2085-97-220 03:230:248:3738,0.284,-0.857,1.918,405.64,63.904,-23.926,15.562,1.84,-28.521
 14:40:34.350,eb:33:2e:f9:57:b5, 2085-97-23 00:63:250:3221,-0.349,-0.854,1.744,470.398,87.097,-48.279,19.984,2.675,-28.625
 14:40:34.350,eb:33:2e:f9:57:b5, 2085-97-226 249:165:252:5276,-0.969,-0.66,1.814,502.014,124.268,-40.161,24.873,3.801,-28.691
 14:40:34.350,eb:33:2e:f9:57:b5, 2085-97-93 248:69:10:5840,-0.785,0.176,2.863,505.92,138.184,-32.959,29.976,5.229,-28.301
 14:40:34.350,eb:33:2e:f9:57:b5, 2085-97-255 250:181:11:4746,-0.319,1.4,2.916,417.419,78.674,-36.072,34.623,6.306,-28.109
 14:40:34.380,eb:33:2e:f9:57:b5, 2085-97-84 254:98:03:4098,0.083,1.093,2.125,307.617,89.966,-3.845,38.216,7.064,-27.762
 14:40:34.380,eb:33:2e:f9:57:b5, 2085-97-239 04:92:09:3463,0.741,0.742,2.318,256.592,180.237,5.188,40.963,8.02,-26.856
 14:40:34.380,eb:33:2e:f9:57:b5, 2085-97-105 03:138:10:452,0.286,1.585,0.414,245.789,134.399,-73.853,43.759,9.47,-26.043
 14:40:34.380,eb:33:2e:f9:57:b5, 2085-97-109 02:61:07:2625,0.116,1.16,0.497,181.946,70.801,-131.409,45.797,10.986,-26.01
 14:40:34.410,eb:33:2e:f9:57:b5, 2085-97-177 255:99:01:5774,-0.136,0.494,2.184,205.444,19.348,-164.246,47.51,12.332,-26.818
 14:40:34.412,eb:33:2e:f9:57:b5, 2085-97-48 254:143:252:6328,-0.268,-0.112,3.095,260.559,56.885,-163.879,49.691,13.826,-27.68
 14:40:34.412,eb:33:2e:f9:57:b5, 2085-97-129 253:230:249:5948,-0.297,-0.677,2.988,281.982,111.389,-138.367,52.372,15.551,-27.938
 14:40:34.412,eb:33:2e:f9:57:b5, 2085-97-144 254:137:251:6372,-0.05,-0.709,2.954,274.597,148.071,-109.131,55.272,17.303,-27.565
 14:40:34.470,eb:33:2e:f9:57:b5, 2085-97-28 01:203:254:6974,0.329,-0.346,3.247,267.639,173.523,-107.971,58.217,19.072,-26.702
 14:40:34.470,eb:33:2e:f9:57:b5, 2085-97-78 04:131:255:7429,0.738,-0.047,3.533,275.269,182.739,-144.165,61.265,21.044,-25.73
 14:40:34.470,eb:33:2e:f9:57:b5, 2085-97-95 07:180:253:7225,1.087,-0.159,3.636,288.086,201.172,-197.632,64.451,23.45,-24.708
 14:40:34.470,eb:33:2e:f9:57:b5, 2085-97-187 09:223:251:6422,1.29,-0.411,3.349,290.649,213.928,-252.686,67.835,26.373,-23.593
 14:40:34.500,eb:33:2e:f9:57:b5, 2085-97-199 10:83:250:5662,1.366,-0.619,2.917,277.954,205.2,-300.354,71.197,29.718,-22.429
 14:40:34.500,eb:33:2e:f9:57:b5, 2085-97-77 10:07:249:5567,1.156,-0.77,2.707,253.54,173.645,-335.205,74.405,33.333,-21.385
 14:40:34.500,eb:33:2e:f9:57:b5, 2085-97-216 07:108:245:5722,0.778,-1.058,2.767,216.37,122.742,-352.234,77.135,37.04,-20.66
 14:40:34.500,eb:33:2e:f9:57:b5, 2085-97-133 04:111:240:5413,0.43,-1.639,2.775,160.339,88.44,-330.688,79.261,40.611,-20.264
 14:40:34.559,eb:33:2e:f9:57:b5, 2085-97-144 02:37:237:4677,0.27,-2.2,2.503,87.891,94.177,-257.69,80.788,43.66,-19.759
 14:40:34.559,eb:33:2e:f9:57:b5, 2085-97-152 02:140:235:3525,0.462,-2.472,2.014,12.756,129.395,-140.32,82.079,45.753,-18.594
 14:40:34.559,eb:33:2e:f9:57:b5, 2085-97-144 05:75:236:1887,0.93,-2.586,1.354,-50.903,161.56,-6.775,83.249,46.593,-16.6
 14:40:34.559,eb:33:2e:f9:57:b5, 2085-97-174 10:201:238:313,1.386,-2.302,0.558,-110.657,149.963,123.962,84.128,46.044,-14.216
 14:40:34.591,eb:33:2e:f9:57:b5, 2085-97-63 13:67:243:-1096,1.96,-1.862,-0.203,-158.386,78.247,208.435,84.007,44.412,-12.409
 14:40:34.591,eb:33:2e:f9:57:b5, 2085-97-79 17:227:247:-2538,2.269,-1.304,-0.905,-211.426,-10.62,255.798,82.65,42.078,-11.695
 14:40:34.591,eb:33:2e:f9:57:b5, 2085-97-216 18:114:251:-2934,2.343,-0.771,-1.481,-280.334,-88.989,260.864,79.975,39.408,-11.937
 14:40:34.591,eb:33:2e:f9:57:b5, 2085-97-35 18:127:253:-1434,2.183,-0.416,-1.115,-344.666,-172.18,221.924,76.146,36.76,-13.035
 14:40:34.651,eb:33:2e:f9:57:b5, 2085-97-177 16:23:254:-109,1.976,-0.252,-0.339,-393.982,-235.413,165.71,71.301,34.349,-14.919
 14:40:34.653,eb:33:2e:f9:57:b5, 2085-97-242 14:58:254:942,1.769,-0.24,0.216,-438.904,-261.597,109.009,65.874,32.195,-17.194
 14:40:34.653,eb:33:2e:f9:57:b5, 2085-97-81 13:196:254:1788,1.567,-0.188,0.683,-476.013,-268.555,54.077,60.002,30.3,-19.594
 14:40:34.653,eb:33:2e:f9:57:b5, 2085-97-249 11:255:254:2404,1.411,-0.13,1.026,-500.671,-274.597,-0.732,53.877,28.641,-22.099
 14:40:34.679,eb:33:2e:f9:57:b5, 2085-97-65 10:227:254:2892,1.136,-0.122,1.316,-514.832,-282.776,-52.185,47.494,27.114,-24.791
 14:40:34.679,eb:33:2e:f9:57:b5, 2085-97-150 07:150:253:3373,0.745,-0.205,1.528,-524.292,-295.715,-92.529,41.017,25.598,-27.691
 14:40:34.679,eb:33:2e:f9:57:b5, 2085-97-166 04:150:251:3752,0.407,-0.414,1.743,-531.128,-307.922,-109.68,34.453,23.851,-30.674
 14:40:34.679,eb:33:2e:f9:57:b5, 2085-97-219 01:55:250:4090,0.059,-0.659,1.912,-532.288,-316.467,-95.947,28.065,21.747,-33.442
 14:40:34.709,eb:33:2e:f9:57:b5, 2085-97-65 255:27:250:4210,-0.205,-0.75,2.042,-526.978,-322.021,-58.96,21.951,19.182,-35.673
 14:40:34.709,eb:33:2e:f9:57:b5, 2085-97-161 253:113:251:4134,-0.362,-0.682,2.043,-517.822,-328.125,-6.836,16.282,16.227,-37.145
 14:40:34.710,eb:33:2e:f9:57:b5, 2085-97-176 252:99:254:4053,-0.429,-0.411,2,-509.521,-334.351,51.819,10.959,12.931,-37.744
 14:40:34.710,eb:33:2e:f9:57:b5, 2085-97-210 252:121:03:4183,-0.349,0.054,1.986,-500.977,-342.224,105.774,5.955,9.465,-37.469
 14:40:34.740,eb:33:2e:f9:57:b5, 2085-97-173 253:219:09:4852,-0.265,0.814,2.146,-480.957,-360.474,146.729,1.137,5.845,-36.409
 14:40:34.740,eb:33:2e:f9:57:b5, 2085-97-68 253:233:16:6285,-0.485,1.671,2.708,-447.754,-389.282,161.438,-3.389,2.104,-34.81
 14:40:34.740,eb:33:2e:f9:57:b5, 2085-97-204 250:219:22:7735,-0.804,2.505,3.426,-411.133,-423.096,149.536,-7.707,-1.851,-32.899
 14:40:34.740,eb:33:2e:f9:57:b5, 2085-97-58 248:130:27:8845,-1.179,3.166,4.098,-377.075,-412.842,132.263,-11.772,-5.812,-30.855
 14:40:34.769,eb:33:2e:f9:57:b5, 2085-97-195 244:202:32:8872,-1.679,3.746,4.366,-338.135,-342.285,123.352,-15.65,-9.207,-28.746
 14:40:34.769,eb:33:2e:f9:57:b5, 2085-97-199 240:198:38:8702,-2.148,4.458,4.28,-275.208,-281.494,111.328,-19.111,-11.81,-26.708
 14:40:34.769,eb:33:2e:f9:57:b5, 2085-97-22 237:110:43:8456,-2.409,5.249,4.148,-145.752,-195.557,84.351,-21.621,-13.766,-24.911
 14:40:34.769,eb:33:2e:f9:57:b5, 2085-97-248 236:177:39:7249,-2.28,5.222,4.03,-29.663,-89.111,67.2,-22.698,-14.837,-23.681
 14:40:34.860,eb:33:2e:f9:57:b5, 2085-97-108 239:105:37:4913,-1.769,4.787,2.978,12.695,24.658,71.045,-22.912,-14.793,-22.934
 14:40:34.860,eb:33:2e:f9:57:b5, 2085-97-202 243:93:37:3495,2.438,4.619,1.857,31.067,53.101,53.284,-22.813,-14.117,-22.516
 14:40:34.860,eb:33:2e:f9:57:b5, 2085-97-203 246:07:19:-8311,7.523,1.169,6.792,532.898,217.651,191.589,-21,-13.755,-22.148
 14:40:34.860,eb:33:2e:f9:57:b5, 2085-97-197 31:156:02:10479,-1.187,2.229,5.381,730.286,301.27,-194.275,-13.815,-13.365,-23.384
 14:40:34.862,eb:33:2e:f9:57:b5, 2085-97-255 220:104:29:4094,-3.422,2.805,3.823,555.359,607.544,-308.228,-6.454,-8.355,-26.999
 14:40:34.862,eb:33:2e:f9:57:b5, 2085-97-36 246:67:255:1371,1.04,1.715,0.402,212.28,343.079,-124.146,-2.532,-3.851,-29.608
 14:40:34.862,eb:33:2e:f9:57:b5, 2085-97-133 10:90:250:4985,-0.452,0.256,1.487,89.6,206.177,14.343,-1.214,-1.055,-29.927
 14:40:34.862,eb:33:2e:f9:57:b5, 2085-97-60 248:148:07:179,-0.855,0.479,0.017,72.205,251.831,76.416,-0.308,1.994,-29.366
 14:40:34.919,eb:33:2e:f9:57:b5, 2085-97-194 253:66:01:1549,0.079,0.457,0.304,34.607,45.959,-2.136,0.165,3.192,-28.987
 14:40:34.919,eb:33:2e:f9:57:b5, 2085-97-17 253:221:00:1377,-0.233,-0.042,1.105,26.672,-1.038,-0.977,0.472,3.323,-29.075
 14:40:34.919,eb:33:2e:f9:57:b5, 2085-97-66 00:184:00:2073,0.357,0.151,0.811,18.555,-41.26,-15.076,0.698,3.049,-29.163
 14:40:34.919,eb:33:2e:f9:57:b5, 2085-97-118 02:232:00:2454,0.244,-0.007,1.322,17.029,-18.555,-10.681,0.851,2.692,-29.333
 14:40:34.949,eb:33:2e:f9:57:b5, 2085-97-74 00:248:255:2103,-0.322,0.128,1.14,24.658,-16.357,-19.836,1.055,2.543,-29.482
 14:40:34.949,eb:33:2e:f9:57:b5, 2085-113-58 00:174:217:2565,0.038,-0.085,0.829,27.344,-34.546,-12.39,1.324,2.324,-29.674
 14:40:34.949,eb:33:2e:f9:57:b5, 2085-97-161 04:158:254:2700,-0.004,0.011,1.101,28.87,-48.096,-3.906,1.456,2.12,-29.718
 14:40:34.949,eb:33:2e:f9:57:b5, 2085-97-112 255:137:252:6547,0.176,-0.323,2.136,78.491,-81.116,9.46,2.126,1.165,-29.685
 14:40:34.980,eb:33:2e:f9:57:b5, 2085-97-112 02:195:251:6030,0.285,-0.457,3.064,92.041,-19.104,4.395,2.928,0.714,-29.724
 14:40:34.980,eb:33:2e:f9:57:b5, 2085-97-126 02:166:250:5888,0.378,-0.68,2.968,141.602,4.761,10.559,4.109,0.637,-29.658
 14:40:34.980,eb:33:2e:f9:57:b5, 2085-97-254 02:202:250:5127,0.391,-0.636,2.64,195.19,32.532,14.893,5.823,0.829,-29.498
 14:40:34.980,eb:33:2e:f9:57:b5, 2085-97-235 03:171:248:4915,0.505,-0.768,2.443,258.24,54.565,-3.296,8.113,1.258,-29.388
 14:40:35.010,eb:33:2e:f9:57:b5, 2085-97-237 03:45:248:4370,0.483,-0.955,2.274,329.773,85.632,-8.362,11.08,1.972,-29.333
 14:40:35.010,eb:33:2e:f9:57:b5, 2085-97-231 02:194:249:3197,0.239,-0.933,1.916,403.809,99.854,-19.47,14.788,2.939,-29.24
 14:40:35.010,eb:33:2e:f9:57:b5, 2085-97-226 253:111:251:2583,-0.574,-0.763,1.205,455.444,90.576,-41.26,19.133,3.922,-29.306
 14:40:35.010,eb:33:2e:f9:57:b5, 2085-97-16 247:152:253:5141,-0.955,-0.659,1.839,476.685,123.474,-28.931,23.824,5.01,-29.262
 14:40:35.070,eb:33:2e:f9:57:b5, 2085-97-179 247:244:12:4751,-0.517,0.396,2.555,470.581,102.051,-20.142,28.663,6.235,-28.922
 14:40:35.070,eb:33:2e:f9:57:b5, 2085-97-32 251:159:10:4447,-0.432,1.24,2.499,373.23,78.247,-14.404,32.877,7.004,-28.746
 14:40:35.070,eb:33:2e:f9:57:b5, 2085-97-84 254:212:07:4625,0.481,0.836,2.225,284.119,156.494,10.62,36.178,8.009,-28.087
 14:40:35.070,eb:33:2e:f9:57:b5, 2085-97-228 08:54:19:4183,1.332,1.766,2.328,291.565,199.829,-22.339,39.111,9.421,-26.895
 14:40:35.129,eb:33:2e:f9:57:b5, 2085-97-203 06:04:16:919,0.731,2.1,1.256,325.195,162.415,-151.184,42.38,11.508,-26.351
 14:40:35.129,eb:33:2e:f9:57:b5, 2085-97-93 04:105:09:2478,0.375,1.429,0.619,265.381,57.19,-249.512,45.093,13.733,-27.158
 14:40:35.129,eb:33:2e:f9:57:b5, 2085-97-03 01:74:02:7055,-0.036,0.76,2.44,258.85,-23.682,-296.143,47.164,15.771,-29.163
 14:40:35.129,eb:33:2e:f9:57:b5, 2085-97-208 254:38:253:8378,-0.193,-0.063,3.98,294.495,44.495,-283.875,49.362,18.012,-31.141
 14:40:35.131,eb:33:2e:f9:57:b5, 2085-97-154 254:221:251:7575,-0.179,-0.501,3.866,325.073,134.705,-231.812,52.213,20.638,-32.025
 14:40:35.131,eb:33:2e:f9:57:b5, 2085-97-213 254:89:252:7977,-0.059,-0.473,3.708,333.13,163.879,-178.223,55.541,23.159,-31.943
 14:40:35.131,eb:33:2e:f9:57:b5, 2085-97-115 00:103:251:8892,0.189,-0.487,4.144,338.135,183.838,-137.451,59.189,25.389,-31.24
 14:40:35.131,eb:33:2e:f9:57:b5, 2085-97-208 02:00:250:8800,0.529,-0.667,4.396,345.581,212.952,-112.61,63.177,27.4,-29.932
 14:40:35.189,eb:33:2e:f9:57:b5, 2085-97-140 05:96:249:8000,0.814,-0.797,4.119,342.59,235.107,-104.797,67.511,29.295,-28.092
 14:40:35.189,eb:33:2e:f9:57:b5, 2085-97-191 07:170:248:6981,1.056,-0.904,3.622,329.529,229.553,-116.516,71.9,31.108,-25.977
 14:40:35.189,eb:33:2e:f9:57:b5, 2085-97-206 08:192:248:6420,1.098,-0.882,3.228,306.641,197.266,-144.47,76.152,32.937,-23.967
 14:40:35.189,eb:33:2e:f9:57:b5, 2085-97-78 08:42:247:6083,0.98,-0.982,3.058,277.588,153.503,-180.298,79.942,34.882,-22.33
 14:40:35.220,eb:33:2e:f9:57:b5, 2085-97-202 06:243:243:5834,0.674,-1.282,2.933,239.563,119.446,-203.674,83.276,36.996,-21.044
 14:40:35.220,eb:33:2e:f9:57:b5, 2085-97-154 04:96:239:5102,0.517,-1.767,2.701,187.866,90.942,-201.477,86.028,39.111,-19.973
 14:40:35.220,eb:33:2e:f9:57:b5, 2085-97-232 03:02:235:3762,0.472,-2.411,2.177,120.483,92.163,-164.001,88.231,40.99,-18.929
 14:40:35.220,eb:33:2e:f9:57:b5, 2085-97-191 03:179:234:2660,0.542,-2.673,1.554,45.715,108.582,-87.891,89.857,42.231,-17.622
 14:40:35.250,eb:33:2e:f9:57:b5, 2085-97-228 05:234:234:1697,0.93,-2.663,1.09,-29.846,110.413,-3.54,90.917,42.621,-16.122
 14:40:35.250,eb:33:2e:f9:57:b5, 2085-97-145 08:104:237:245,1.201,-2.512,0.539,-112.793,103.088,78.735,91.049,42.149,-14.744
 14:40:35.250,eb:33:2e:f9:57:b5, 2085-97-143 11:20:241:-1409,1.7,-2.118,-0.32,-192.444,69.214,144.653,90.236,40.963,-13.623
 14:40:35.250,eb:33:2e:f9:57:b5, 2085-97-45 15:25:246:-2983,2.02,-1.536,-1.114,-277.832,18.311,177.49,88.154,39.298,-13.096
 14:40:35.338,eb:33:2e:f9:57:b5, 2085-97-123 16:112:249:-2809,2.039,-1.013,-1.551,-365.54,-55.481,167.175,84.792,37.535,-13.266
 14:40:35.338,eb:33:2e:f9:57:b5, 2085-97-214 15:159:251:-1331,1.895,-0.664,-1.02,-432.19,-141.907,122.925,80.057,35.969,-14.365
 14:40:35.338,eb:33:2e:f9:57:b5, 2085-97-62 14:27:252:094,1.676,-0.49,-0.286,-478.21,-206.238,73.303,74.372,34.656,-16.304
 14:40:35.338,eb:33:2e:f9:57:b5, 2085-97-146 12:37:252:1431,1.495,-0.495,0.386,-514.221,-232.727,32.471,68.005,33.481,-18.71
 14:40:35.340,eb:33:2e:f9:57:b5, 2085-97-108 11:47:253:2386,1.374,-0.427,0.965,-540.161,-233.459,-2.197,61.37,32.382,-21.198
 14:40:35.340,eb:33:2e:f9:57:b5, 2085-97-181 10:78:254:2840,1.314,-0.277,1.301,-555.908,-229.919,-37.231,54.536,31.349,-23.681
 14:40:35.340,eb:33:2e:f9:57:b5, 2085-97-81 10:216:254:3034,1.197,-0.168,1.428,-561.096,-236.023,-74.524,47.642,30.366,-26.235
 14:40:35.340,eb:33:2e:f9:57:b5, 2085-97-171 08:41:254:3316,0.929,-0.158,1.528,-559.265,-255.676,-105.286,40.627,29.257,-29.009
 14:40:35.369,eb:33:2e:f9:57:b5, 2085-97-49 06:81:252:3894,0.605,-0.339,1.761,-554.81,-279.541,-114.563,33.679,27.812,-31.915
 14:40:35.369,eb:33:2e:f9:57:b5, 2085-97-73 03:34:251:4336,0.239,-0.552,2.028,-551.147,-296.631,-94.788,26.9,25.856,-34.612
 14:40:35.369,eb:33:2e:f9:57:b5, 2085-97-234 00:141:251:4438,0.039,-0.613,2.152,-554.138,-308.105,-50.72,20.506,23.395,-36.727
 14:40:35.369,eb:33:2e:f9:57:b5, 2085-97-243 255:197:253:4397,-0.02,-0.457,2.172,-562.256,-316.956,7.874,14.403,20.462,-37.985
 14:40:35.430,eb:33:2e:f9:57:b5, 2085-97-219 255:243:01:4231,0.013,-0.037,2.09,-560.303,-335.083,67.566,8.674,17.194,-38.298
 14:40:35.430,eb:33:2e:f9:57:b5, 2085-97-86 00:181:07:4530,0.057,0.549,2.119,-541.687,-358.337,118.591,3.263,13.607,-37.727
 14:40:35.430,eb:33:2e:f9:57:b5, 2085-97-122 00:238:13:5215,0.034,1.344,2.349,-497.925,-389.526,152.71,-1.659,9.822,-36.392
 14:40:35.430,eb:33:2e:f9:57:b5, 2085-97-88 255:25:20:6538,-0.289,2.126,2.832,-444.153,-419.006,160.156,-6.152,5.828,-34.568
 14:40:35.458,eb:33:2e:f9:57:b5, 2085-97-252 251:133:25:7996,-0.711,2.876,3.565,-381.226,-442.932,146.179,-10.118,1.736,-32.476
 14:40:35.458,eb:33:2e:f9:57:b5, 2085-97-145 248:63:30:8774,-1.194,3.478,4.164,-317.566,-419.678,126.831,-13.64,-2.291,-30.3
 14:40:35.458,eb:33:2e:f9:57:b5, 2085-97-40 244:212:34:8276,-1.74,4.092,4.228,-256.836,-360.474,109.192,-16.633,-5.74,-28.196
 14:40:35.458,eb:33:2e:f9:57:b5, 2085-97-171 240:125:38:7770,-2.124,4.594,3.882,-199.585,-326.477,84.045,-19.166,-8.723,-26.241
 14:40:35.549,eb:33:2e:f9:57:b5, 2085-97-150 237:154:40:7771,-2.439,4.986,3.681,-136.658,-271.423,48.523,-21.121,-11.321,-24.615
 14:40:35.549,eb:33:2e:f9:57:b5, 2085-97-19 236:13:40:6969,-2.283,5.036,3.963,-60.913,-164.49,26.978,-22.324,-13.228,-23.527
 14:40:35.549,eb:33:2e:f9:57:b5, 2085-97-141 238:45:37:5349,-2.033,4.702,3.1,-5.371,-33.997,3.174,-22.709,-13.969,-23.104
 14:40:35.549,eb:33:2e:f9:57:b5, 2085-97-86 241:133:35:4058,-1.648,4.688,2.25,36.377,20.935,-18.921,-22.538,-13.942,-23.17
 14:40:35.551,eb:33:2e:f9:57:b5, 2085-97-202 228:02:26:14797,5.945,4.184,1.758,206.116,-79.346,-103.821,-21.66,-13.942,-23.56
 14:40:35.551,eb:33:2e:f9:57:b5, 2085-97-165 27:78:00:6453,-0.207,-4.088,0.707,742.676,307.007,-39.429,-15.375,-12.382,-24.895
 14:40:35.551,eb:33:2e:f9:57:b5, 2085-97-206 215:16:42:4542,-3.46,3.107,4.587,659.058,663.452,-354.675,-7.328,-7.174,-28.389
 14:40:35.551,eb:33:2e:f9:57:b5, 2085-97-83 250:48:02:405,0.526,3.045,0.369,240.051,480.469,-135.315,-2.818,-1.615,-31.586
 14:40:35.551,eb:33:2e:f9:57:b5, 2085-113-58 00:08:218:1560,0.67,0.716,1.137,54.016,167.908,18.494,-1.747,1.5,-31.783
 14:40:35.579,eb:33:2e:f9:57:b5, 2085-97-96 253:62:01:788,-0.796,-0.718,1.968,76.294,287.292,56.091,-1.395,2.785,-31.575
 14:40:35.579,eb:33:2e:f9:57:b5, 2085-97-131 246:198:03:-069,-0.416,0.665,0.306,50.72,125.793,41.199,-0.687,4.752,-31.08
 14:40:35.579,eb:33:2e:f9:57:b5, 2085-97-00 02:221:255:2602,-0.058,0.145,0.676,37.415,-2.93,-17.09,-0.297,5.153,-31.036
 14:40:35.579,eb:33:2e:f9:57:b5, 2085-97-211 253:48:01:1557,0.061,0.052,0.93,28.076,-20.813,-5.188,0.016,5.043,-31.13
 14:40:35.670,eb:33:2e:f9:57:b5, 2085-97-164 03:60:00:2846,0.314,0.136,1.043,21.118,-33.081,-17.517,0.247,4.686,-31.267
 14:40:35.670,eb:33:2e:f9:57:b5, 2085-97-240 255:216:00:1940,-0.116,0.104,1.232,26.001,-7.08,-15.076,0.472,4.576,-31.415
 14:40:35.670,eb:33:2e:f9:57:b5, 2085-97-202 254:112:255:1953,-0.007,-0.012,0.949,26.917,-26.489,-22.644,0.725,4.384,-31.641
 14:40:35.670,eb:33:2e:f9:57:b5, 2085-97-173 02:207:255:3276,0.699,-0.028,1.12,27.771,-47.668,-7.996,0.994,4.01,-31.811
 14:40:35.670,eb:33:2e:f9:57:b5, 2085-97-150 253:87:250:6753,0.174,-0.507,2.025,85.51,-98.572,13.184,1.461,3.351,-31.822
 14:40:35.670,eb:33:2e:f9:57:b5, 2085-97-235 01:134:252:6154,0.236,-0.38,2.953,92.896,-7.935,19.165,2.34,2.999,-31.646
 14:40:35.670,eb:33:2e:f9:57:b5, 2085-97-95 02:56:250:6208,0.382,-0.729,3.104,140.991,22.217,22.034,3.521,3.087,-31.443
 14:40:35.670,eb:33:2e:f9:57:b5, 2085-97-12 03:210:249:5585,0.455,-0.723,2.915,199.707,56.519,27.954,5.268,3.466,-31.157
 14:40:35.699,eb:33:2e:f9:57:b5, 2085-97-67 03:96:248:5071,0.393,-0.885,2.578,265.93,89.111,16.235,7.646,4.164,-30.85
 14:40:35.699,eb:33:2e:f9:57:b5, 2085-97-16 04:99:247:4430,0.494,-1.067,2.44,341.37,117.432,8.728,10.739,5.202,-30.564
 14:40:35.699,eb:33:2e:f9:57:b5, 2085-97-166 03:161:248:3534,0.264,-0.994,1.865,424.438,103.455,-15.32,14.634,6.312,-30.311
 14:40:35.699,eb:33:2e:f9:57:b5, 2085-97-233 255:221:248:2982,-0.452,-0.902,1.619,484.619,100.647,-41.321,19.232,7.339,-30.344
 14:40:35.759,eb:33:2e:f9:57:b5, 2085-97-174 251:140:254:5509,-0.75,-0.63,1.792,520.203,114.502,-39.673,24.28,8.492,-30.289
 14:40:35.759,eb:33:2e:f9:57:b5, 2085-97-219 250:61:06:6908,-0.559,0.486,3.452,519.775,100.281,-44.739,29.575,9.69,-30.097
 14:40:35.759,eb:33:2e:f9:57:b5, 2085-97-212 252:154:13:4285,-0.124,1.484,2.513,444.458,43.396,-41.26,34.431,10.525,-30.07
 14:40:35.760,eb:33:2e:f9:57:b5, 2085-97-209 254:84:04:4110,0.209,0.578,2.261,330.261,84.839,-20.386,38.227,11.162,-30.064
 14:40:35.790,eb:33:2e:f9:57:b5, 2085-97-207 04:96:04:4080,0.406,0.719,2.43,294.922,186.89,-23.499,41.309,12.244,-29.35
 14:40:35.790,eb:33:2e:f9:57:b5, 2085-97-163 02:197:09:1396,0.343,1.325,0.658,298.584,159.058,-62.805,44.681,13.903,-28.328
 14:40:35.790,eb:33:2e:f9:57:b5, 2085-97-184 03:222:04:3874,0.4,0.941,1.152,233.215,90.698,-113.464,47.329,15.403,-28.059
 14:40:35.790,eb:33:2e:f9:57:b5, 2085-97-12 03:144:00:5818,0.425,0.259,2.524,230.103,79.834,-128.662,49.521,16.859,-28.306
 14:40:35.820,eb:33:2e:f9:57:b5, 2085-97-129 03:48:00:6089,0.379,0.018,2.932,265.93,86.975,-128.296,51.96,18.391,-28.455
 14:40:35.820,eb:33:2e:f9:57:b5, 2085-97-24 03:160:00:6354,0.335,0.067,2.963,287.231,78.735,-130.615,54.723,19.918,-28.564
 14:40:35.820,eb:33:2e:f9:57:b5, 2085-97-129 02:177:255:7018,0.361,0.06,3.238,290.71,76.355,-137.756,57.568,21.456,-28.663
 14:40:35.820,eb:33:2e:f9:57:b5, 2085-97-104 03:14:252:8101,0.504,-0.249,3.708,298.523,92.285,-142.639,60.507,23.088,-28.691
 14:40:35.879,eb:33:2e:f9:57:b5, 2085-97-252 04:94:249:7967,0.766,-0.688,4.027,312.195,148.315,-143.25,63.732,24.895,-28.24
 14:40:35.879,eb:33:2e:f9:57:b5, 2085-97-56 07:10:249:6662,1,-0.89,3.605,316.65,205.566,-145.081,67.418,26.944,-27.048
 14:40:35.879,eb:33:2e:f9:57:b5, 2085-97-143 08:21:250:5132,1.107,-0.804,2.868,305.237,217.957,-160.706,71.307,29.103,-25.334
 14:40:35.879,eb:33:2e:f9:57:b5, 2085-97-35 09:199:250:4216,1.099,-0.703,2.226,282.532,180.42,-191.162,75.07,31.355,-23.703
 14:40:35.910,eb:33:2e:f9:57:b5, 2085-97-59 08:61:250:4322,0.851,-0.655,1.993,250.427,121.887,-224.792,78.311,33.723,-22.544
 14:40:35.910,eb:33:2e:f9:57:b5, 2085-97-84 05:212:247:4953,0.531,-0.842,2.271,216.309,68.298,-247.192,80.98,36.227,-21.94
 14:40:35.910,eb:33:2e:f9:57:b5, 2085-97-252 02:141:243:5003,0.259,-1.271,2.499,175.903,32.471,-245.422,82.98,38.749,-21.808
 14:40:35.910,eb:33:2e:f9:57:b5, 2085-97-92 01:13:240:4261,0.123,-1.817,2.31,123.596,50.842,-206.299,84.6,41.045,-21.616
 14:40:35.940,eb:33:2e:f9:57:b5, 2085-97-228 00:139:238:3360,0.192,-2.103,1.868,56.641,101.013,-127.869,85.995,42.742,-20.786
 14:40:35.940,eb:33:2e:f9:57:b5, 2085-97-161 02:23:238:1748,0.523,-2.245,1.239,-20.996,161.194,-25.879,87.38,43.55,-19.012
 14:40:35.941,eb:33:2e:f9:57:b5, 2085-97-172 05:254:239:181,0.821,-2.146,0.448,-85.876,174.866,58.777,88.38,43.369,-16.672
 14:40:35.941,eb:33:2e:f9:57:b5, 2085-97-30 08:203:241:-1567,1.273,-1.879,-0.376,-142.456,128.601,130.127,88.66,42.396,-14.551
 14:40:35.999,eb:33:2e:f9:57:b5, 2085-97-202 11:141:244:-3086,1.596,-1.621,-1.118,-194.214,42.358,181.763,87.643,40.798,-13.458
 14:40:35.999,eb:33:2e:f9:57:b5, 2085-97-59 13:08:248:-3826,1.643,-1.209,-1.816,-263,-35.95,204.163,85.413,38.826,-13.37
 14:40:35.999,eb:33:2e:f9:57:b5, 2085-97-224 12:52:250:-2240,1.596,-0.835,-1.561,-335.938,-121.948,192.749,81.832,36.744,-14.194
 14:40:35.999,eb:33:2e:f9:57:b5, 2085-97-131 12:80:251:-747,1.506,-0.642,-0.685,-387.329,-192.993,162.231,77.234,34.722,-15.837
 14:40:36.059,eb:33:2e:f9:57:b5, 2085-97-161 11:201:251:410,1.391,-0.558,-0.085,-428.101,-226.929,129.395,71.949,32.778,-17.908
 14:40:36.059,eb:33:2e:f9:57:b5, 2085-97-206 10:227:252:1220,1.333,-0.464,0.42,-464.111,-236.877,92.102,66.346,30.943,-20.067
 14:40:36.059,eb:33:2e:f9:57:b5, 2085-97-67 10:37:254:1732,1.229,-0.305,0.744,-494.934,-242.676,47.852,60.408,29.268,-22.242
 14:40:36.059,eb:33:2e:f9:57:b5, 2085-97-112 09:138:254:2157,1.11,-0.194,0.936,-518.555,-254.7,-2.441,54.24,27.773,-24.532
 14:40:36.061,eb:33:2e:f9:57:b5, 2085-97-61 08:251:253:2685,0.935,-0.203,1.184,-531.738,-273.621,-51.575,47.78,26.345,-27.103
 14:40:36.061,eb:33:2e:f9:57:b5, 2085-97-61 06:127:252:3282,0.595,-0.329,1.433,-535.278,-292.603,-89.111,41.226,24.862,-29.932
 14:40:36.061,eb:33:2e:f9:57:b5, 2085-97-65 03:102:250:4168,0.245,-0.569,1.816,-536.743,-302.612,-99.915,34.656,23.104,-32.822
 14:40:36.061,eb:33:2e:f9:57:b5, 2085-97-187 00:11:249:4743,-0.025,-0.815,2.203,-535.828,-293.335,-82.214,28.328,21.072,-35.403
 14:40:36.119,eb:33:2e:f9:57:b5, 2085-97-42 255:69:249:4768,-0.16,-0.878,2.362,-534.79,-277.893,-40.649,22.286,18.754,-37.321
 14:40:36.119,eb:33:2e:f9:57:b5, 2085-97-113 254:10:251:4541,-0.206,-0.752,2.271,-538.269,-275.879,14.16,16.589,16.21,-38.436
 14:40:36.119,eb:33:2e:f9:57:b5, 2085-97-76 254:189:254:4521,-0.207,-0.439,2.182,-541.382,-291.809,70.496,11.063,13.332,-38.721
 14:40:36.119,eb:33:2e:f9:57:b5, 2085-97-122 254:61:03:4811,-0.155,0.11,2.263,-534.302,-318.787,125.183,5.779,10.146,-38.188
 14:40:36.179,eb:33:2e:f9:57:b5, 2085-97-35 255:225:08:5435,-0.063,0.738,2.482,-511.23,-340.576,161.377,0.681,6.713,-36.947
 14:40:36.179,eb:33:2e:f9:57:b5, 2085-97-171 255:95:15:6432,-0.117,1.506,2.872,-471.802,-356.201,177.673,-4.07,3.252,-35.162
 14:40:36.179,eb:33:2e:f9:57:b5, 2085-97-65 254:239:21:7384,-0.361,2.362,3.378,-422.546,-369.568,167.725,-8.52,-0.209,-33.063
 14:40:36.179,eb:33:2e:f9:57:b5, 2085-97-208 251:16:27:8180,-0.71,3.077,3.798,-371.277,-374.023,139.893,-12.535,-3.636,-30.921
 14:40:36.239,eb:33:2e:f9:57:b5, 2085-97-97 248:167:31:8826,-1.253,3.68,4.194,-321.96,-343.811,111.572,-16.216,-6.855,-28.85
 14:40:36.239,eb:33:2e:f9:57:b5, 2085-97-192 243:132:36:8373,-1.748,4.229,4.241,-249.817,-299.194,84.656,-19.352,-9.63,-26.971
 14:40:36.239,eb:33:2e:f9:57:b5, 2085-97-83 240:169:39:7684,-2.236,4.838,3.856,-143.372,-231.75,55.908,-21.605,-11.898,-25.389
 14:40:36.239,eb:33:2e:f9:57:b5, 2085-97-109 238:16:39:6798,-2.144,5.026,3.463,-50.598,-140.076,29.297,-22.731,-13.414,-24.324
 14:40:36.242,eb:33:2e:f9:57:b5, 2085-97-73 239:32:37:4683,-1.879,4.741,2.826,-11.597,-43.701,28.992,-23.137,-14.101,-23.752
 14:40:36.242,eb:33:2e:f9:57:b5, 2085-97-239 241:149:35:3748,-1.566,4.489,2.075,13.55,14.587,16.113,-23.192,-14.057,-23.544
 14:40:36.242,eb:33:2e:f9:57:b5, 2085-97-208 232:177:38:15348,6.36,4.465,1.686,208.679,-84.9,-117.493,-22.599,-14.019,-23.67
 14:40:36.242,eb:33:2e:f9:57:b5, 2085-97-190 45:213:22:8481,0.933,-2.302,0.963,714.233,155.579,-154.724,-16.216,-14.041,-25.208
 14:40:36.300,eb:33:2e:f9:57:b5, 2085-97-71 220:108:16:063,-3.453,0.649,3.709,568.298,793.274,-351.257,-8.965,-8.531,-29.575
 14:40:36.300,eb:33:2e:f9:57:b5, 2085-97-242 236:84:05:712,-0.714,1.218,0.953,357.117,413.391,-164.612,-3.999,-3.06,-32.904
 14:40:36.300,eb:33:2e:f9:57:b5, 2085-97-65 11:147:03:4028,1.155,0.839,1.517,236.755,261.047,-23.56,-1.104,-0.093,-33.871
 14:40:36.300,eb:33:2e:f9:57:b5, 2085-97-31 249:193:09:026,-1.35,1.195,1.782,106.934,315.918,89.783,0.555,2.78,-33.316
 14:40:36.302,eb:33:2e:f9:57:b5, 2085-97-74 249:213:01:891,-0.199,0.781,-0.161,36.804,66.162,13.916,1.214,4.526,-32.728
 14:40:36.302,eb:33:2e:f9:57:b5, 2085-97-193 00:37:00:2228,-0.424,0.086,0.898,28.442,2.869,-8.423,1.516,4.768,-32.772
 14:40:36.302,eb:33:2e:f9:57:b5, 2085-97-214 254:10:02:1681,0.177,0.181,0.589,21.667,-35.339,-6.409,1.774,4.68,-32.8
 14:40:36.302,eb:33:2e:f9:57:b5, 2085-97-149 02:232:255:2645,0.27,0.12,1.122,13.916,-35.95,-17.334,1.928,4.257,-32.992
 14:40:36.418,eb:33:2e:f9:57:b5, 2085-97-238 255:50:01:1975,-0.125,0.077,1.244,17.029,-10.132,-9.583,2.087,4.065,-33.118
 14:40:36.418,eb:33:2e:f9:57:b5, 2085-97-128 254:01:00:1853,0.006,0.074,0.89,15.381,-24.963,-18.066,2.236,3.889,-33.289
 14:40:36.418,eb:33:2e:f9:57:b5, 2085-97-45 03:73:01:2610,0.271,0.108,1.034,13.428,-28.809,-14.587,2.373,3.615,-33.459
 14:40:36.418,eb:33:2e:f9:57:b5, 2085-97-00 02:233:254:2832,0.389,-0.062,1.318,22.949,-20.447,-4.639,2.532,3.422,-33.596
 14:40:36.420,eb:33:2e:f9:57:b5, 2085-97-44 253:128:251:7911,0.344,-0.393,2.345,81.055,-84.778,16.113,3.065,2.758,-33.558
 14:40:36.420,eb:33:2e:f9:57:b5, 2085-97-127 04:239:251:6241,0.603,-0.625,3.291,106.995,-8.545,9.949,3.933,2.444,-33.525
 14:40:36.420,eb:33:2e:f9:57:b5, 2085-97-247 04:145:250:6382,0.672,-0.622,3.247,164.124,29.907,6.287,5.317,2.521,-33.448
 14:40:36.420,eb:33:2e:f9:57:b5, 2085-97-231 04:10:249:5709,0.572,-0.755,2.941,235.535,74.036,-3.845,7.344,3.065,-33.371
 14:40:36.423,eb:33:2e:f9:57:b5, 2085-97-150 04:214:246:5038,0.691,-1.063,2.723,316.101,114.685,-13.489,10.146,4.021,-33.316
 14:40:36.423,eb:33:2e:f9:57:b5, 2085-97-14 05:46:249:3832,0.497,-1.058,2.232,404.175,141.174,-15.93,13.799,5.345,-33.173
 14:40:36.423,eb:33:2e:f9:57:b5, 2085-97-196 00:182:247:4248,-0.552,-0.81,1.695,468.384,134.583,-36.377,18.221,6.735,-33.058
 14:40:36.424,eb:33:2e:f9:57:b5, 2085-97-253 248:81:251:7202,-0.655,-1.094,2.899,523.071,183.044,-13.794,23.242,8.295,-32.734
 14:40:36.480,eb:33:2e:f9:57:b5, 2085-97-138 252:182:15:4172,-0.149,0.723,3.132,535.828,103.394,-36.377,28.707,9.767,-32.217
 14:40:36.480,eb:33:2e:f9:57:b5, 2085-97-202 01:25:12:3061,-0.257,2.572,1.166,418.823,-61.584,-77.759,33.415,10.14,-32.756
 14:40:36.480,eb:33:2e:f9:57:b5, 2085-97-68 255:214:11:6197,0.271,1.188,2.124,307.007,-15.625,-71.716,36.722,10.074,-33.717
 14:40:36.480,eb:33:2e:f9:57:b5, 2085-97-171 01:206:13:2804,-0.049,1.551,3.15,376.343,141.785,-81.177,40.095,11.135,-33.805
 14:40:36.509,eb:33:2e:f9:57:b5, 2085-97-80 254:79:07:1969,-0.122,1.336,0.647,313.843,97.29,-102.905,43.654,12.656,-33.695
 14:40:36.509,eb:33:2e:f9:57:b5, 2085-97-89 255:136:01:5921,-0.036,0.579,1.876,256.714,56.641,-102.478,46.357,13.892,-33.948
 14:40:36.509,eb:33:2e:f9:57:b5, 2085-97-103 00:140:254:7293,0.125,-0.044,3.49,281.982,106.812,-82.214,48.999,15.095,-33.97
 14:40:36.509,eb:33:2e:f9:57:b5, 2085-113-58 00:02:224:-1380,0.204,-0.257,3.352,327.332,139.832,-60.791,52.245,16.447,-33.387
 14:40:36.539,eb:33:2e:f9:57:b5, 2085-97-208 01:182:255:6056,0.37,-0.213,3.152,338.196,140.93,-56.885,54.042,17.095,-32.97
 14:40:36.539,eb:33:2e:f9:57:b5, 2085-97-158 03:107:02:6509,0.523,0.142,3.049,338.44,133.606,-70.007,57.678,18.353,-32.141
 14:40:36.539,eb:33:2e:f9:57:b5, 2085-97-145 04:106:03:7279,0.601,0.424,3.358,333.801,118.713,-114.746,61.249,19.786,-31.492
 14:40:36.539,eb:33:2e:f9:57:b5, 2085-97-51 05:185:00:7804,0.707,0.302,3.722,337.585,112.732,-172.363,64.72,21.588,-31.097
 14:40:36.600,eb:33:2e:f9:57:b5, 2085-97-41 06:195:252:7543,0.821,-0.166,3.791,338.257,133.24,-220.459,68.253,23.912,-30.745
 14:40:36.600,eb:33:2e:f9:57:b5, 2085-97-205 06:218:249:6841,0.889,-0.601,3.546,326.355,163.147,-250.244,71.851,26.636,-30.053
 14:40:36.600,eb:33:2e:f9:57:b5, 2085-97-75 07:241:248:5901,0.912,-0.854,3.11,304.382,179.504,-268.738,75.52,29.619,-28.971
 14:40:36.600,eb:33:2e:f9:57:b5, 2085-97-18 07:75:248:5373,0.819,-0.912,2.717,273.743,168.762,-280.151,79.047,32.662,-27.658
 14:40:36.628,eb:33:2e:f9:57:b5, 2085-97-238 05:227:246:5224,0.65,-1.039,2.565,240.234,143.921,-281.982,82.359,35.689,-26.329
 14:40:36.628,eb:33:2e:f9:57:b5, 2085-97-194 03:255:243:5159,0.296,-1.278,2.567,202.515,120.972,-266.602,85.292,38.54,-25.054
 14:40:36.628,eb:33:2e:f9:57:b5, 2085-97-205 01:120:239:4833,0.261,-1.769,2.464,158.02,89.478,-228.455,87.836,41.061,-23.89
 14:40:36.628,eb:33:2e:f9:57:b5, 2085-97-57 02:68:235:3541,0.308,-2.427,2.079,90.332,108.276,-149.78,89.841,42.979,-22.709
 14:40:36.659,eb:33:2e:f9:57:b5, 2085-97-52 03:233:234:2239,0.615,-2.643,1.377,15.747,163.635,-40.771,91.67,43.857,-20.792
 14:40:36.659,eb:33:2e:f9:57:b5, 2085-97-202 06:225:235:1355,1.015,-2.599,0.875,-55.542,195.068,60.303,93.109,43.583,-18.309
 14:40:36.659,eb:33:2e:f9:57:b5, 2085-97-107 09:55:238:-082,1.376,-2.369,0.354,-115.051,172.058,137.695,93.884,42.402,-15.881
 14:40:36.659,eb:33:2e:f9:57:b5, 2085-97-85 13:217:241:-1955,1.78,-2.03,-0.457,-170.837,99.731,199.036,93.433,40.567,-14.31
 14:40:36.718,eb:33:2e:f9:57:b5, 2085-97-158 15:253:245:-4121,2.013,-1.453,-1.657,-244.995,20.447,223.877,91.714,38.37,-13.744
 14:40:36.718,eb:33:2e:f9:57:b5, 2085-97-149 15:101:248:-3399,1.904,-1.097,-2.023,-336.304,-68.359,210.51,88.478,36.167,-14.15
 14:40:36.718,eb:33:2e:f9:57:b5, 2085-97-215 14:160:249:-1405,1.777,-0.858,-1.128,-403.992,-162.903,168.213,83.93,34.217,-15.546
 14:40:36.718,eb:33:2e:f9:57:b5, 2085-97-135 13:225:249:-087,1.608,-0.77,-0.359,-450.073,-213.623,127.197,78.448,32.498,-17.639
 14:40:36.750,eb:33:2e:f9:57:b5, 2085-97-55 12:236:250:1157,1.456,-0.73,0.277,-489.136,-223.267,90.088,72.565,30.932,-19.891
 14:40:36.750,eb:33:2e:f9:57:b5, 2085-97-38 11:07:253:1956,1.349,-0.507,0.783,-524.048,-215.271,49.805,66.363,29.537,-22.039
 14:40:36.750,eb:33:2e:f9:57:b5, 2085-97-145 10:129:254:2465,1.28,-0.265,1.101,-550.232,-213.562,4.272,59.974,28.367,-24.126
 14:40:36.750,eb:33:2e:f9:57:b5, 2085-97-13 10:78:255:2690,1.191,-0.132,1.257,-565.063,-221.68,-45.593,53.311,27.372,-26.351
 14:40:36.780,eb:33:2e:f9:57:b5, 2085-97-33 09:173:254:3052,1.003,-0.107,1.341,-569.092,-242.065,-93.994,46.489,26.461,-28.9
 14:40:36.780,eb:33:2e:f9:57:b5, 2085-97-187 06:64:253:3691,0.705,-0.247,1.634,-566.833,-262.085,-126.709,39.518,25.384,-31.783
 14:40:36.780,eb:33:2e:f9:57:b5, 2085-97-67 04:203:251:4252,0.362,-0.436,1.978,-562.439,-273.376,-137.451,32.64,24.033,-34.761
 14:40:36.780,eb:33:2e:f9:57:b5, 2085-97-154 01:80:251:4429,0.072,-0.572,2.145,-558.899,-278.809,-122.314,25.922,22.264,-37.513
 14:40:36.929,eb:33:2e:f9:57:b5, 2085-97-166 255:110:251:4462,-0.105,-0.587,2.164,-556.458,-287.292,-86.426,19.539,20.083,-39.754
 14:40:36.929,eb:33:2e:f9:57:b5, 2085-97-222 254:227:252:4552,-0.162,-0.509,2.211,-549.805,-301.086,-29.968,13.486,17.397,-41.248
 14:40:36.929,eb:33:2e:f9:57:b5, 2085-97-139 254:184:00:4527,-0.19,-0.191,2.211,-539.368,-313.11,24.841,7.872,14.387,-41.88
 14:40:36.929,eb:33:2e:f9:57:b5, 2085-97-105 254:91:06:4832,-0.173,0.415,2.259,-521.484,-333.923,70.618,2.554,11.08,-41.71
 14:40:36.931,eb:33:2e:f9:57:b5, 2085-97-237 254:10:12:5525,-0.153,1.164,2.504,-483.887,-359.802,96.802,-2.34,7.592,-40.88
 14:40:36.931,eb:33:2e:f9:57:b5, 2085-97-222 253:18:17:6343,-0.415,1.824,2.887,-430.725,-381.897,104.309,-6.812,3.922,-39.606
 14:40:36.931,eb:33:2e:f9:57:b5, 2085-97-49 251:15:21:7459,-0.773,2.392,3.361,-380.859,-397.522,100.525,-10.778,0.192,-38.035
 14:40:36.931,eb:33:2e:f9:57:b5, 2085-97-71 248:34:25:8439,-1.173,2.866,3.903,-356.567,-378.906,90.942,-14.529,-3.455,-36.293
 14:40:36.959,eb:33:2e:f9:57:b5, 2085-97-139 244:136:30:9005,-1.786,3.44,4.313,-329.468,-338.135,77.881,-18.138,-6.663,-34.514
 14:40:36.959,eb:33:2e:f9:57:b5, 2085-97-10 239:204:37:8048,-2.368,4.267,4.237,-248.901,-295.227,58.838,-21.319,-9.443,-32.822
 14:40:36.959,eb:33:2e:f9:57:b5, 2085-97-33 235:179:39:8010,-2.792,5.016,3.785,-124.207,-242.737,24.353,-23.384,-11.783,-31.421
 14:40:36.959,eb:33:2e:f9:57:b5, 2085-97-162 233:19:36:7687,-2.764,4.604,3.934,-29.602,-124.878,3.357,-24.263,-13.431,-30.591
 14:40:36.961,eb:33:2e:f9:57:b5, 2085-97-87 234:210:35:5330,-2.296,4.457,2.835,-17.883,-2.686,16.907,-24.5,-13.821,-30.333
 14:40:36.961,eb:33:2e:f9:57:b5, 2085-97-157 239:94:36:5394,-1.643,4.477,2.559,-2.38,56.641,21.118,-24.681,-13.442,-30.267
 14:40:36.961,eb:33:2e:f9:57:b5, 2085-97-188 245:00:35:3996,-1.102,4.573,2.291,85.999,83.435,-10.01,-24.197,-12.783,-30.602
 14:40:36.961,eb:33:2e:f9:57:b5, 2085-97-217 247:133:25:2471,1.415,3.932,1.581,183.533,76.965,-26.733,-22.67,-12.09,-31.113
 14:40:37.020,eb:33:2e:f9:57:b5, 2085-97-52 27:222:210:-10468,4.554,-2.338,7.549,422.485,333.313,149.902,-19.781,-11.816,-31.443
 14:40:37.020,eb:33:2e:f9:57:b5, 2085-97-125 47:188:01:17783,-6.078,1.634,6.155,760.254,342.529,-334.961,-12.881,-9.932,-32.377
 14:40:37.020,eb:33:2e:f9:57:b5, 2085-97-252 212:203:16:-3693,-1.901,4.108,1.688,415.466,887.268,-202.393,-6.224,-2.823,-36.535
 14:40:37.020,eb:33:2e:f9:57:b5, 2085-97-245 253:194:255:3039,0.112,2.426,-0.893,72.449,206.116,19.714,-4.197,2.598,-36.991
 14:40:37.022,eb:33:2e:f9:57:b5, 2085-97-174 251:252:01:893,-1.038,-0.131,0.917,55.481,195.068,29.541,-3.587,4.318,-37.013
 14:40:37.022,eb:33:2e:f9:57:b5, 2085-97-126 253:14:02:1525,0.136,0.505,0.061,24.658,42.175,17.517,-3.17,5.488,-36.667
 14:40:37.023,eb:33:2e:f9:57:b5, 2085-97-39 00:204:255:2032,-0.289,0.03,1.175,21.484,18.921,-4.822,-2.939,5.691,-36.749
 14:40:37.023,eb:33:2e:f9:57:b5, 2085-97-109 255:163:00:1995,0.255,0.023,0.773,18.86,-22.034,-3.723,-2.736,5.691,-36.749
 14:40:37.109,eb:33:2e:f9:57:b5, 2085-97-50 01:140:00:2280,-0.122,0.012,1.252,19.226,-9.888,-7.874,-2.554,5.466,-36.837
 14:40:37.109,eb:33:2e:f9:57:b5, 2085-97-176 254:81:00:1778,-0.109,0.093,0.868,16.968,-22.888,-12.756,-2.362,5.35,-36.925
 14:40:37.109,eb:33:2e:f9:57:b5, 2085-97-51 00:12:00:2192,0.295,-0.042,1.001,15.137,-33.691,-12.817,-2.219,5.026,-37.073
 14:40:37.109,eb:33:2e:f9:57:b5, 2085-97-71 02:143:255:2575,0.191,0.037,1.234,20.569,-43.274,-2.686,-2.043,4.631,-37.145
 14:40:37.139,eb:33:2e:f9:57:b5, 2085-97-169 255:170:250:6114,-0.04,-0.233,1.273,60.791,-100.952,21.118,-1.714,4.098,-37.046
 14:40:37.139,eb:33:2e:f9:57:b5, 2085-97-56 02:146:252:6331,0.399,-0.68,3.425,87.83,-49.316,19.653,-0.873,3.208,-36.826
 14:40:37.139,eb:33:2e:f9:57:b5, 2085-97-54 03:245:248:6760,0.451,-0.668,3.176,137.573,-20.02,15.198,0.253,2.895,-36.667
 14:40:37.139,eb:33:2e:f9:57:b5, 2085-97-255 03:73:250:5715,0.517,-0.836,3.121,202.026,24.475,23.315,2,2.928,-36.464
 14:40:37.169,eb:33:2e:f9:57:b5, 2085-97-04 04:153:247:5274,0.347,-0.871,2.631,275.391,48.706,1.892,4.422,3.307,-36.326
 14:40:37.169,eb:33:2e:f9:57:b5, 2085-97-95 04:10:246:4710,0.585,-1.161,2.438,358.398,80.627,-10.803,7.641,3.988,-36.293
 14:40:37.169,eb:33:2e:f9:57:b5, 2085-97-133 03:08:249:3441,0.181,-1.04,1.926,449.341,98.022,-22.339,11.717,4.927,-36.277
 14:40:37.169,eb:33:2e:f9:57:b5, 2085-97-38 253:88:249:4495,-0.86,-0.775,1.635,496.094,103.333,-45.044,16.474,5.96,-36.392
 14:40:37.200,eb:33:2e:f9:57:b5, 2085-97-59 249:196:01:6129,-0.976,-0.65,2.899,526.123,170.471,-25.33,21.638,7.443,-36.222
 14:40:37.200,eb:33:2e:f9:57:b5, 2085-97-31 249:114:12:4895,-0.427,1.409,2.594,469.482,91.98,-36.255,26.741,8.718,-35.958
 14:40:37.200,eb:33:2e:f9:57:b5, 2085-97-08 255:194:04:4049,0.027,1.079,1.882,348.145,77.332,-20.264,30.767,9.52,-35.909
 14:40:37.200,eb:33:2e:f9:57:b5, 2085-97-232 02:96:09:5368,0.874,0.636,2.198,288.208,155.334,1.77,33.948,10.519,-35.272
 14:40:37.231,eb:33:2e:f9:57:b5, 2085-97-11 06:227:12:1715,0.536,1.267,2.453,341.797,215.637,-46.814,37.293,12.261,-34.266
 14:40:37.231,eb:33:2e:f9:57:b5, 2085-97-168 03:164:08:1262,0.475,1.329,0.375,277.588,115.417,-116.272,40.507,14.052,-33.887
 14:40:37.231,eb:33:2e:f9:57:b5, 2085-97-98 02:111:02:5470,0.169,0.672,1.635,237.671,30.334,-165.344,42.819,15.48,-34.634
 14:40:37.231,eb:33:2e:f9:57:b5, 2085-113-58 00:92:224:-1140,0.106,0.055,3.338,266.907,64.087,-174.744,45.055,16.979,-35.607
 14:40:37.231,eb:33:2e:f9:57:b5, 2085-97-137 00:167:252:6778,0,-0.182,3.483,285.706,96.863,-167.236,46.357,17.886,-35.925
 14:40:37.349,eb:33:2e:f9:57:b5, 2085-97-245 255:168:251:5938,0.021,-0.546,3.022,299.316,136.292,-135.986,49.29,19.819,-36.013
 14:40:37.349,eb:33:2e:f9:57:b5, 2085-97-187 00:106:253:6280,0.195,-0.457,2.953,291.687,155.09,-105.347,52.399,21.654,-35.596
 14:40:37.349,eb:33:2e:f9:57:b5, 2085-97-125 02:90:255:6805,0.436,-0.177,3.203,292.786,162.354,-100.525,55.596,23.384,-34.81
 14:40:37.349,eb:33:2e:f9:57:b5, 2085-97-157 04:196:255:7027,0.725,-0.028,3.404,308.228,169.678,-122.742,58.969,25.203,-33.942
 14:40:37.352,eb:33:2e:f9:57:b5, 2085-97-217 06:13:255:6634,0.97,-0.073,3.383,323.059,186.34,-163.086,62.551,27.307,-32.964
 14:40:37.352,eb:33:2e:f9:57:b5, 2085-97-106 08:92:254:5781,1.084,-0.161,3.031,323.853,194.702,-211.426,66.313,29.833,-31.91
 14:40:37.352,eb:33:2e:f9:57:b5, 2085-97-158 08:16:253:5053,1.05,-0.27,2.627,309.753,181.396,-259.094,70.005,32.723,-30.861
 14:40:37.352,eb:33:2e:f9:57:b5, 2085-97-245 07:77:251:4838,0.914,-0.464,2.38,287.354,151.733,-296.57,73.482,35.903,-29.998
 14:40:37.352,eb:33:2e:f9:57:b5, 2085-97-61 06:101:248:5141,0.575,-0.773,2.454,257.874,123.962,-313.904,76.591,39.205,-29.317
 14:40:37.352,eb:33:2e:f9:57:b5, 2085-97-47 03:98:244:5058,0.223,-1.168,2.5,225.281,94.482,-301.392,79.398,42.457,-28.729
 14:40:37.352,eb:33:2e:f9:57:b5, 2085-97-29 01:78:239:4331,0.063,-1.774,2.326,176.086,78.552,-256.104,81.716,45.324,-28.218
 14:40:37.352,eb:33:2e:f9:57:b5, 2085-97-248 255:24:237:3104,-0.012,-2.258,1.804,108.704,101.746,-163.574,83.798,47.499,-27.312
 14:40:37.409,eb:33:2e:f9:57:b5, 2085-97-146 00:07:236:2211,0.254,-2.43,1.299,32.837,133.179,-40.649,85.638,48.549,-25.697
 14:40:37.409,eb:33:2e:f9:57:b5, 2085-97-51 04:102:236:1195,0.8,-2.517,0.852,-38.086,148.926,77.881,87.193,48.362,-23.549
 14:40:37.409,eb:33:2e:f9:57:b5, 2085-97-21 08:255:238:-212,1.35,-2.312,0.284,-98.694,143.555,174.561,88.077,47.065,-21.335
 14:40:37.409,eb:33:2e:f9:57:b5, 2085-97-73 11:57:244:-2133,1.751,-1.894,-0.397,-149.048,97.412,243.408,88.066,44.94,-19.622
 14:40:37.440,eb:33:2e:f9:57:b5, 2085-97-140 15:02:249:-3425,1.99,-1.161,-1.391,-209.717,6.348,265.808,86.649,42.374,-19.028
 14:40:37.440,eb:33:2e:f9:57:b5, 2085-97-186 15:27:252:-2930,1.913,-0.644,-1.723,-283.081,-61.89,242.065,84.045,39.787,-19.204
 14:40:37.440,eb:33:2e:f9:57:b5, 2085-97-208 14:61:253:-1422,1.786,-0.385,-1.026,-334.778,-140.808,186.218,80.228,37.54,-20.259
 14:40:37.440,eb:33:2e:f9:57:b5, 2085-97-126 13:46:253:-390,1.602,-0.341,-0.416,-374.207,-184.082,131.042,75.668,35.678,-21.962
 14:40:37.469,eb:33:2e:f9:57:b5, 2085-97-31 12:180:253:501,1.434,-0.335,0.041,-414.185,-192.2,79.895,70.593,34.151,-23.873
 14:40:37.469,eb:33:2e:f9:57:b5, 2085-97-233 10:149:254:978,1.305,-0.226,0.389,-452.148,-192.627,28.381,65.182,32.964,-25.818
 14:40:37.469,eb:33:2e:f9:57:b5, 2085-97-207 09:149:254:1314,1.163,-0.161,0.563,-484.07,-203.674,-21.24,59.321,32.042,-27.933
 14:40:37.469,eb:33:2e:f9:57:b5, 2085-97-196 08:227:253:1737,1.024,-0.218,0.738,-505.92,-224.243,-64.453,53.091,31.251,-30.361
 14:40:37.529,eb:33:2e:f9:57:b5, 2085-97-151 07:255:252:2364,0.87,-0.315,0.997,-516.907,-246.643,-95.703,46.522,30.355,-33.129
 14:40:37.529,eb:33:2e:f9:57:b5, 2085-97-206 05:08:252:3098,0.564,-0.436,1.322,-518.066,-264.221,-114.502,39.886,29.246,-36.085
 14:40:37.529,eb:33:2e:f9:57:b5, 2085-97-53 03:46:251:3746,0.245,-0.539,1.696,-515.625,-276.489,-113.77,33.289,27.757,-39.029
 14:40:37.529,eb:33:2e:f9:57:b5, 2085-97-109 00:120:250:4098,-0.112,-0.663,1.937,-512.573,-283.813,-89.05,26.982,25.867,-41.644
 14:40:37.561,eb:33:2e:f9:57:b5, 2085-97-47 254:237:249:4349,-0.29,-0.722,2.059,-510.498,-288.696,-40.039,21.011,23.505,-43.616
 14:40:37.561,eb:33:2e:f9:57:b5, 2085-97-191 253:69:250:4568,-0.197,-0.774,2.188,-507.69,-288.33,27.283,15.524,20.781,-44.681
 14:40:37.561,eb:33:2e:f9:57:b5, 2085-97-224 254:48:254:4064,-0.082,-0.536,2.158,-504.456,-278.503,94.971,10.41,17.858,-44.731
 14:40:37.561,eb:33:2e:f9:57:b5, 2085-97-190 255:159:03:3884,0.005,0.122,1.883,-500.488,-300.476,146.362,5.609,14.832,-43.907
 14:40:37.590,eb:33:2e:f9:57:b5, 2085-97-113 00:138:08:4653,0.094,0.75,2.036,-485.84,-336.304,175.903,0.956,11.486,-42.462
 14:40:37.590,eb:33:2e:f9:57:b5, 2085-97-111 00:178:13:5598,-0.039,1.39,2.531,-452.576,-354.431,186.218,-3.411,8.031,-40.578
 14:40:37.590,eb:33:2e:f9:57:b5, 2085-97-140 254:59:18:6425,-0.329,2.014,2.936,-411.621,-367.004,180.481,-7.52,4.554,-38.436
 14:40:37.590,eb:33:2e:f9:57:b5, 2085-97-61 252:134:21:7243,-0.581,2.494,3.352,-381.348,-360.291,166.26,-11.349,1.198,-36.172
 14:40:37.799,eb:33:2e:f9:57:b5, 2085-97-137 250:135:25:7841,-0.851,2.917,3.687,-359.314,-322.021,153.259,-15.095,-1.807,-33.887
 14:40:37.799,eb:33:2e:f9:57:b5, 2085-97-202 247:103:31:8044,-1.253,3.516,3.934,-319.458,-278.198,139.465,-18.627,-4.252,-31.652
 14:40:37.799,eb:33:2e:f9:57:b5, 2085-97-00 244:251:37:6994,-1.676,4.34,3.712,-234.436,-248.535,115.295,-21.621,-6.312,-29.575
 14:40:37.799,eb:33:2e:f9:57:b5, 2085-97-185 241:20:40:6758,-1.926,4.99,3.165,-102.356,-217.59,76.111,-23.478,-8.119,-27.806
 14:40:37.859,eb:33:2e:f9:57:b5, 2085-97-08 241:116:37:5931,-1.76,4.905,3.131,-11.047,-116.943,39.001,-24.131,-9.432,-26.636
 14:40:37.859,eb:33:2e:f9:57:b5, 2085-97-36 241:232:35:4137,-1.737,4.485,2.518,4.456,-12.39,21.118,-24.197,-9.888,-26.12
 14:40:37.859,eb:33:2e:f9:57:b5, 2085-97-166 243:143:34:3249,-1.339,4.456,1.75,16.479,0.549,-10.986,-24.131,-9.943,-26.065
 14:40:37.859,eb:33:2e:f9:57:b5, 2085-97-187 04:225:247:17070,1.916,4.356,1.628,98.022,-0.977,-78.979,-23.522,-10.08,-26.444
 14:40:37.861,eb:33:2e:f9:57:b5, 2085-97-194 49:28:10:7103,1.588,-0.539,-4.403,715.027,-161.072,-230.469,-17.974,-9.811,-27.971
 14:40:37.861,eb:33:2e:f9:57:b5, 2085-97-132 204:117:46:6599,-3.784,0.123,4.214,756.714,651.184,-348.694,-9.904,-5.784,-31.267
 14:40:37.861,eb:33:2e:f9:57:b5, 2085-97-42 248:219:29:311,0.912,3.195,1.681,333.557,574.951,-167.908,-4.23,-0.143,-35.211
 14:40:37.861,eb:33:2e:f9:57:b5, 2085-97-117 247:06:253:006,0.171,0.435,2.259,22.034,202.454,51.27,-3.164,2.609,-35.376
 14:40:37.864,eb:33:2e:f9:57:b5, 2085-97-66 254:46:255:1602,-0.947,0.01,1.131,56.458,143.555,21.484,-2.697,4.34,-35.052
 14:40:37.864,eb:33:2e:f9:57:b5, 2085-97-96 253:94:02:1488,0.045,0.642,0.141,32.776,33.386,21.301,-2.159,5.224,-34.733
 14:40:37.864,eb:33:2e:f9:57:b5, 2085-97-110 00:33:00:2153,-0.338,0.117,1.053,26.245,2.502,-10.071,-1.857,5.317,-34.81
 14:40:37.864,eb:33:2e:f9:57:b5, 2085-97-183 254:81:01:1783,0.14,0.044,0.706,21.606,-33.081,-8.728,-1.62,5.169,-34.904
 14:40:37.864,eb:33:2e:f9:57:b5, 2085-97-129 02:77:00:2589,0.112,0.091,1.117,15.503,-28.259,-16.296,-1.445,4.801,-35.046
 14:40:37.864,eb:33:2e:f9:57:b5, 2085-97-232 255:159:00:2047,-0.148,0.12,1.034,15.381,-21.484,-14.771,-1.296,4.636,-35.184
 14:40:37.864,eb:33:2e:f9:57:b5, 2085-97-27 255:244:255:2026,0.212,0.01,0.902,14.465,-29.297,-14.893,-1.143,4.384,-35.338
 14:40:37.864,eb:33:2e:f9:57:b5, 2085-97-06 02:96:00:2508,0.169,0.067,1.202,18.677,-31.555,-12.146,-0.994,4.065,-35.469
 14:40:37.866,eb:33:2e:f9:57:b5, 2085-97-57 02:124:253:3025,-0.528,-0.065,1.308,27.649,-36.682,-1.404,-0.753,3.741,-35.546
 14:40:37.866,eb:33:2e:f9:57:b5, 2085-97-99 00:33:251:6487,0.464,-0.571,3.644,74.402,-66.895,-10.254,-0.154,2.955,-35.579
 14:40:37.866,eb:33:2e:f9:57:b5, 2085-97-98 03:145:251:6114,0.493,-0.407,2.793,123.047,-36.743,-7.141,0.879,2.494,-35.629
 14:40:37.866,eb:33:2e:f9:57:b5, 2085-97-217 04:10:251:5779,0.597,-0.678,3.045,174.072,6.348,-2.441,2.384,2.324,-35.711
 14:40:37.889,eb:33:2e:f9:57:b5, 2085-97-165 04:160:249:5007,0.496,-0.608,2.582,233.276,57.739,-7.263,4.455,2.686,-35.706
 14:40:37.889,eb:33:2e:f9:57:b5, 2085-97-230 03:155:248:4310,0.483,-0.894,2.309,307.922,105.103,-12.512,7.202,3.543,-35.728
 14:40:37.889,eb:33:2e:f9:57:b5, 2085-97-28 03:121:250:3079,0.269,-0.832,1.842,375.916,132.751,-17.09,10.673,4.774,-35.656
 14:40:37.889,eb:33:2e:f9:57:b5, 2085-97-36 00:42:251:2346,-0.311,-0.575,1.115,420.044,116.882,-31.067,14.7,6.053,-35.629
 14:40:37.920,eb:33:2e:f9:57:b5, 2085-97-128 250:168:250:4788,-0.824,-0.796,1.696,451.721,130.859,-18.25,19.094,7.262,-35.508
 14:40:37.920,eb:33:2e:f9:57:b5, 2085-97-16 251:221:06:4539,-0.381,-0.052,2.5,477.783,95.276,-17.578,23.846,8.465,-35.173
 14:40:37.920,eb:33:2e:f9:57:b5, 2085-97-187 00:45:10:2869,0.069,1.262,2.058,434.814,-5.005,-45.105,28.422,8.959,-35.305
 14:40:37.920,eb:33:2e:f9:57:b5, 2085-97-117 00:32:08:3776,0.072,1.43,1.54,348.877,-31.86,-48.706,32.228,8.959,-35.854
 14:40:37.949,eb:33:2e:f9:57:b5, 2085-97-142 01:161:12:3683,0.5,1.074,1.798,283.447,34.79,-53.467,35.272,9.25,-36.271
 14:40:37.949,eb:33:2e:f9:57:b5, 2085-97-54 06:32:15:3285,0.491,2.165,1.847,295.654,95.093,-129.211,38.057,10.311,-36.584
 14:40:37.949,eb:33:2e:f9:57:b5, 2085-97-140 02:52:10:1308,0.136,1.79,0.738,283.813,80.75,-214.783,40.93,12.189,-37.332
 14:40:37.949,eb:33:2e:f9:57:b5, 2085-97-165 00:52:06:3068,-0.052,1,0.836,233.276,24.658,-251.831,43.138,14.222,-38.749
 14:40:38.010,eb:33:2e:f9:57:b5, 2085-97-75 255:55:01:6060,-0.086,0.424,2.346,226.44,5.066,-252.991,44.918,16.029,-40.605
 14:40:38.010,eb:33:2e:f9:57:b5, 2085-97-143 255:36:253:6966,-0.013,-0.085,3.289,253.174,72.144,-214.6,46.912,18.001,-42.017
 14:40:38.010,eb:33:2e:f9:57:b5, 2085-97-167 255:205:249:6335,-0.049,-0.624,3.326,285.339,134.277,-156.006,49.504,20.083,-42.424
 14:40:38.010,eb:33:2e:f9:57:b5, 2085-97-154 255:112:251:5649,0.101,-0.756,2.885,304.321,158.936,-98.083,52.635,21.984,-42.001
 14:40:38.041,eb:33:2e:f9:57:b5, 2085-113-58 00:223:228:-990,0.193,-0.354,2.849,305.908,164.307,-67.505,56.063,23.538,-41.05
 14:40:38.041,eb:33:2e:f9:57:b5, 2085-97-127 02:213:00:6402,0.433,-0.108,2.939,302.795,162.842,-67.2,57.81,24.258,-40.49
 14:40:38.041,eb:33:2e:f9:57:b5, 2085-97-58 04:24:02:6705,0.649,0.248,3.283,301.27,163.269,-92.163,61.298,25.741,-39.386
 14:40:38.041,eb:33:2e:f9:57:b5, 2085-97-04 06:178:00:6542,0.842,0.202,3.243,305.908,159.79,-131.531,64.797,27.46,-38.331
 14:40:38.071,eb:33:2e:f9:57:b5, 2085-97-83 07:159:254:6100,0.985,-0.044,3.109,306.58,161.682,-173.584,68.34,29.509,-37.359
 14:40:38.071,eb:33:2e:f9:57:b5, 2085-97-84 08:250:252:5461,1.098,-0.285,2.822,296.875,160.583,-211.853,71.867,31.866,-36.337
 14:40:38.071,eb:33:2e:f9:57:b5, 2085-97-154 08:252:251:5198,0.981,-0.444,2.582,276.184,149.719,-243.042,75.295,34.503,-35.321
 14:40:38.071,eb:33:2e:f9:57:b5, 2085-97-238 06:240:249:5269,0.734,-0.59,2.544,249.573,114.868,-266.052,78.42,37.271,-34.415
 14:40:38.160,eb:33:2e:f9:57:b5, 2085-97-199 04:131:245:4942,0.485,-1.016,2.527,213.562,73.364,-272.522,81.079,40.106,-33.882
 14:40:38.160,eb:33:2e:f9:57:b5, 2085-97-34 03:177:242:4219,0.292,-1.537,2.258,161.926,64.27,-245.178,83.194,42.753,-33.475
 14:40:38.160,eb:33:2e:f9:57:b5, 2085-97-158 01:28:241:3314,0.167,-1.748,1.855,90.515,88.745,-177.063,84.974,44.918,-32.717
 14:40:38.160,eb:33:2e:f9:57:b5, 2085-97-239 01:204:238:2347,0.327,-2.015,1.369,15.442,112.549,-87.646,86.375,46.252,-31.41
 14:40:38.160,eb:33:2e:f9:57:b5, 2085-97-182 03:232:238:976,0.616,-2.174,0.816,-54.321,132.019,9.949,87.424,46.642,-29.658
 14:40:38.160,eb:33:2e:f9:57:b5, 2085-97-218 05:198:239:-209,0.885,-2.073,0.194,-117.371,134.766,103.271,87.902,46.049,-27.724
 14:40:38.160,eb:33:2e:f9:57:b5, 2085-97-120 08:112:241:-1232,1.235,-1.959,-0.331,-163.269,88.745,183.044,87.649,44.588,-26.076
 14:40:38.160,eb:33:2e:f9:57:b5, 2085-97-112 11:71:245:-2611,1.554,-1.604,-0.956,-213.013,24.048,246.521,86.287,42.407,-25.274
 14:40:38.190,eb:33:2e:f9:57:b5, 2085-97-236 12:143:248:-2916,1.645,-1.113,-1.451,-283.691,-26.855,279.602,83.919,39.732,-25.093
 14:40:38.190,eb:33:2e:f9:57:b5, 2085-97-51 13:214:250:-1325,1.661,-0.78,-1.094,-353.821,-91.858,269.836,80.431,36.887,-25.472
 14:40:38.190,eb:33:2e:f9:57:b5, 2085-97-71 13:171:252:078,1.638,-0.519,-0.257,-404.724,-146.301,234.07,76.075,34.184,-26.4
 14:40:38.190,eb:33:2e:f9:57:b5, 2085-97-250 12:243:253:1110,1.595,-0.344,0.271,-446.35,-174.011,188.843,71.109,31.707,-27.631
 14:40:38.490,eb:33:2e:f9:57:b5, 2085-97-194 12:116:255:1772,1.594,-0.169,0.718,-488.098,-179.871,129.883,65.742,29.608,-28.954
 14:40:38.490,eb:33:2e:f9:57:b5, 2085-97-220 12:223:00:2187,1.568,0.021,0.972,-515.93,-185.059,67.932,60.007,27.916,-30.344
 14:40:38.490,eb:33:2e:f9:57:b5, 2085-97-67 12:190:01:2361,1.465,0.188,1.087,-531.25,-201.355,-0.793,54.003,26.62,-32.02
 14:40:38.490,eb:33:2e:f9:57:b5, 2085-97-200 10:236:00:2790,1.18,0.188,1.251,-536.255,-229.065,-67.261,47.681,25.549,-34.195
 14:40:38.492,eb:33:2e:f9:57:b5, 2085-97-178 07:114:255:3536,0.738,0.032,1.543,-538.879,-256.958,-114.319,41.182,24.489,-36.876
 14:40:38.492,eb:33:2e:f9:57:b5, 2085-97-227 03:178:253:4176,0.227,-0.191,1.89,-543.579,-277.344,-131.104,34.563,23.148,-39.809
 14:40:38.492,eb:33:2e:f9:57:b5, 2085-97-165 255:189:252:4584,-0.223,-0.347,2.168,-546.631,-293.274,-112.732,28.059,21.368,-42.599
 14:40:38.492,eb:33:2e:f9:57:b5, 2085-97-12 253:189:251:4784,-0.483,-0.491,2.31,-541.931,-307.678,-66.895,21.802,19.006,-44.868
 14:40:38.496,eb:33:2e:f9:57:b5, 2085-97-169 251:226:252:4697,-0.548,-0.503,2.319,-534.058,-307.8,0.916,16.002,16.205,-46.269
 14:40:38.496,eb:33:2e:f9:57:b5, 2085-97-196 251:01:01:4321,-0.514,-0.17,2.218,-523.315,-297.18,70.618,10.591,13.156,-46.631
 14:40:38.496,eb:33:2e:f9:57:b5, 2085-97-52 252:26:06:4291,-0.423,0.443,2.037,-506.165,-312.683,127.502,5.554,10.009,-46.071
 14:40:38.496,eb:33:2e:f9:57:b5, 2085-97-00 253:142:11:5095,-0.354,1.098,2.276,-476.44,-340.393,162.109,0.786,6.603,-44.802
 14:40:38.496,eb:33:2e:f9:57:b5, 2085-97-19 253:98:17:6149,-0.456,1.819,2.714,-435.364,-362.427,172.607,-3.615,3.098,-43.061
 14:40:38.497,eb:33:2e:f9:57:b5, 2085-97-108 251:248:21:7162,-0.693,2.485,3.271,-391.724,-371.338,160.156,-7.718,-0.456,-41.072
 14:40:38.497,eb:33:2e:f9:57:b5, 2085-97-127 249:244:25:7362,-0.947,2.991,3.607,-359.07,-342.285,131.836,-11.525,-3.779,-39.084
 14:40:38.497,eb:33:2e:f9:57:b5, 2085-97-223 246:48:31:7225,-1.418,3.558,3.533,-332.886,-291.199,96.191,-15.178,-6.608,-37.293
 14:40:38.580,eb:33:2e:f9:57:b5, 2085-97-88 241:60:36:6829,-2.188,4.218,3.493,-264.16,-273.071,47.485,-18.391,-9.097,-35.832
 14:40:38.580,eb:33:2e:f9:57:b5, 2085-97-43 252:162:255:1218,-0.24,4.698,3.214,-115.112,-224.915,-10.437,-20.468,-11.459,-34.843
 14:40:38.580,eb:33:2e:f9:57:b5, 2085-97-97 255:162:00:2016,0.587,-0.003,0.859,26.367,-67.505,-6.897,-3.527,8.207,-43.583
 14:40:38.580,eb:33:2e:f9:57:b5, 2085-97-116 02:243:00:2643,-0.134,0.144,1.535,28.687,-35.522,-11.108,-3.246,7.581,-43.649
 14:40:38.582,eb:33:2e:f9:57:b5, 2085-97-113 254:157:255:1954,-0.254,0.011,0.96,24.719,-41.565,-9.216,-2.983,7.278,-43.759
 14:40:38.582,eb:33:2e:f9:57:b5, 2085-97-84 01:32:254:2184,0.213,-0.123,0.972,29.724,-83.008,0.671,-2.714,6.658,-43.786
 14:40:38.582,eb:33:2e:f9:57:b5, 2085-113-81 00:183:118:175,-0.166,-0.215,1.964,78.308,-129.028,17.029,-2.038,5.246,-43.654
 14:40:38.582,eb:33:2e:f9:57:b5, 2085-97-10 01:186:253:4605,0.15,-0.226,2.473,69.641,-74.219,6.104,-1.648,4.785,-43.583
 14:40:38.582,eb:33:2e:f9:57:b5, 2085-97-95 02:124:252:5524,0.328,-0.382,2.615,95.276,-48.828,0.305,-0.813,4.142,-43.583
 14:40:38.609,eb:33:2e:f9:57:b5, 2085-97-226 01:103:251:5099,0.248,-0.454,2.581,136.414,-23.926,4.089,0.374,3.812,-43.561
 14:40:38.609,eb:33:2e:f9:57:b5, 2085-97-118 02:22:251:4644,0.351,-0.628,2.417,182.129,-6.958,13.794,1.994,3.664,-43.484
 14:40:38.609,eb:33:2e:f9:57:b5, 2085-97-35 03:68:251:4194,0.49,-0.594,2.124,230.347,10.864,12.268,4.103,3.669,-43.336
 14:40:38.609,eb:33:2e:f9:57:b5, 2085-97-24 04:84:250:3960,0.457,-0.659,2.003,283.936,30.212,-2.563,6.696,3.873,-43.297
 14:40:38.639,eb:33:2e:f9:57:b5, 2085-97-103 03:90:250:3399,0.392,-0.731,1.886,343.14,72.998,-11.169,9.877,4.384,-43.292
 14:40:38.639,eb:33:2e:f9:57:b5, 2085-97-04 02:129:252:2388,0.095,-0.631,1.424,395.813,100.098,-25.085,13.612,5.334,-43.27
 14:40:38.639,eb:33:2e:f9:57:b5, 2085-97-127 255:23:253:2922,-0.414,-0.357,1.125,423.34,96.924,-47.974,17.737,6.378,-43.363
 14:40:38.639,eb:33:2e:f9:57:b5, 2085-97-78 249:116:255:4238,-1.056,-0.349,1.719,435.669,134.705,-45.105,22.039,7.619,-43.429
 14:40:38.699,eb:33:2e:f9:57:b5, 2085-97-164 249:229:06:4159,-0.443,0.481,2.173,418.457,138.611,-27.71,26.406,9.069,-43.127
 14:40:38.699,eb:33:2e:f9:57:b5, 2085-97-196 253:201:07:4164,-0.303,1.163,1.88,366.699,75.317,-22.766,30.372,10.085,-42.874
 14:40:38.699,eb:33:2e:f9:57:b5, 2085-97-50 255:204:02:4631,0.12,0.896,2.159,298.584,105.042,-7.08,33.728,10.882,-42.523
 14:40:38.700,eb:33:2e:f9:57:b5, 2085-97-48 03:158:02:3118,0.657,0.21,1.821,241.333,168.396,19.287,36.568,12.008,-41.578
 14:40:38.729,eb:33:2e:f9:57:b5, 2085-97-74 07:44:10:2715,0.93,1.029,1.463,246.338,174.927,-6.287,39.199,13.282,-40.364
 14:40:38.729,eb:33:2e:f9:57:b5, 2085-97-156 05:214:10:-064,0.484,1.411,0.311,257.874,117.737,-89.783,41.99,14.804,-39.732
 14:40:38.729,eb:33:2e:f9:57:b5, 2085-97-60 03:96:06:1294,0.23,1.078,0.079,185.242,39.49,-164.612,44.039,16.271,-40.172
 14:40:38.729,eb:33:2e:f9:57:b5, 2085-97-156 00:81:01:4174,-0.001,0.397,1.532,160.95,0.793,-206.909,45.308,17.699,-41.539
 14:40:38.760,eb:33:2e:f9:57:b5, 2085-97-122 255:62:254:4721,-0.127,-0.013,2.271,185.974,32.166,-211.609,46.609,19.336,-42.946
 14:40:38.760,eb:33:2e:f9:57:b5, 2085-97-130 254:134:251:4219,-0.221,-0.415,2.204,208.496,72.021,-194.763,48.257,21.215,-43.984
 14:40:38.760,eb:33:2e:f9:57:b5, 2085-97-32 254:102:250:4071,-0.196,-0.661,1.994,210.266,98.572,-165.1,50.18,23.137,-44.511
 14:40:38.760,eb:33:2e:f9:57:b5, 2085-97-253 254:102:251:4197,-0.025,-0.678,2.001,198.669,130.188,-134.338,52.224,25.01,-44.539
 14:40:38.819,eb:33:2e:f9:57:b5, 2085-97-199 00:154:253:4528,0.228,-0.437,2.14,189.88,155.823,-118.835,54.371,26.856,-44.044
 14:40:38.819,eb:33:2e:f9:57:b5, 2085-97-228 02:149:255:4635,0.487,-0.167,2.249,190.735,164.185,-128.357,56.613,28.773,-43.319
 14:40:38.819,eb:33:2e:f9:57:b5, 2085-97-201 04:153:00:4551,0.694,0.028,2.252,195.801,162.048,-157.227,58.914,30.839,-42.578
 14:40:38.819,eb:33:2e:f9:57:b5, 2085-97-238 05:126:00:4663,0.775,0.083,2.223,198.608,150.757,-194.702,61.199,33.157,-42.017
 14:40:38.850,eb:33:2e:f9:57:b5, 2085-97-86 06:25:255:5367,0.756,0.007,2.426,195.374,129.272,-232.849,63.336,35.695,-41.715
 14:40:38.850,eb:33:2e:f9:57:b5, 2085-97-149 05:114:252:5792,0.682,-0.274,2.77,182.19,118.835,-260.132,65.27,38.474,-41.671
 14:40:38.851,eb:33:2e:f9:57:b5, 2085-97-122 05:188:249:5234,0.683,-0.621,2.755,155.762,124.512,-270.02,66.978,41.385,-41.627
 14:40:38.851,eb:33:2e:f9:57:b5, 2085-97-56 05:188:248:4302,0.616,-0.878,2.32,113.77,153.809,-250.427,68.632,44.335,-41.182
 14:40:38.881,eb:33:2e:f9:57:b5, 2085-97-155 04:37:248:3441,0.532,-0.935,1.894,68.481,171.143,-208.801,70.285,47.032,-40.095
 14:40:38.881,eb:33:2e:f9:57:b5, 2085-97-38 04:104:247:2603,0.508,-1.033,1.459,31.25,157.349,-152.649,71.884,49.252,-38.6
 14:40:38.881,eb:33:2e:f9:57:b5, 2085-97-27 04:63:247:1867,0.52,-1.088,1.089,-1.648,123.169,-85.327,73.163,50.751,-37.084
 14:40:38.881,eb:33:2e:f9:57:b5, 2085-97-85 04:229:246:1171,0.578,-1.105,0.735,-38.513,81.177,-10.925,73.993,51.454,-35.766
 14:40:38.940,eb:33:2e:f9:57:b5, 2085-97-54 05:61:246:526,0.73,-1.183,0.414,-78.308,40.588,64.331,74.147,51.301,-34.777
 14:40:38.940,eb:33:2e:f9:57:b5, 2085-97-130 06:35:246:194,0.884,-1.242,0.142,-121.338,-1.16,144.897,73.68,50.279,-34.08
 14:40:38.940,eb:33:2e:f9:57:b5, 2085-97-245 07:226:246:086,1.093,-1.201,0.067,-160.583,-39.917,206.604,72.537,48.472,-33.684
 14:40:38.940,eb:33:2e:f9:57:b5, 2085-97-127 09:184:248:067,1.254,-1.037,0.028,-204.834,-75.745,248.596,70.834,46.077,-33.519
 14:40:39.001,eb:33:2e:f9:57:b5, 2085-97-163 10:01:251:-007,1.399,-0.766,0.015,-256.958,-109.07,263.977,68.45,43.308,-33.58
 14:40:39.001,eb:33:2e:f9:57:b5, 2085-97-95 11:215:252:188,1.427,-0.498,0.034,-314.514,-147.4,252.625,65.374,40.408,-33.893
 14:40:39.001,eb:33:2e:f9:57:b5, 2085-97-78 11:124:253:767,1.383,-0.342,0.208,-370.056,-189.453,218.994,61.474,37.529,-34.574
 14:40:39.001,eb:33:2e:f9:57:b5, 2085-97-198 10:104:253:1633,1.318,-0.318,0.576,-415.039,-231.567,171.326,56.882,34.783,-35.678
 14:40:39.001,eb:33:2e:f9:57:b5, 2085-97-42 10:153:253:2349,1.211,-0.316,0.993,-447.693,-259.888,118.53,51.707,32.168,-37.172
 14:40:39.001,eb:33:2e:f9:57:b5, 2085-97-38 09:176:253:3045,1.055,-0.292,1.313,-467.957,-278.992,63.538,46.214,29.734,-38.936
 14:40:39.001,eb:33:2e:f9:57:b5, 2085-97-72 07:33:253:3734,0.728,-0.298,1.66,-476.685,-294.128,9.705,40.49,27.411,-40.968
 14:40:39.002,eb:33:2e:f9:57:b5, 2085-97-116 04:206:251:4616,0.391,-0.426,2.032,-484.375,-307.983,-29.541,34.711,25.115,-43.198
 14:40:39.060,eb:33:2e:f9:57:b5, 2085-97-182 01:147:250:5209,0.082,-0.616,2.437,-497.559,-300.659,-47.974,28.883,22.731,-45.401
 14:40:39.060,eb:33:2e:f9:57:b5, 2085-97-231 255:73:250:5568,-0.134,-0.712,2.635,-506.348,-292.603,-46.509,23.159,20.308,-47.313
 14:40:39.060,eb:33:2e:f9:57:b5, 2085-97-218 253:254:250:5527,-0.403,-0.676,2.727,-508.789,-295.044,-31.555,17.551,17.682,-48.829
 14:40:39.060,eb:33:2e:f9:57:b5, 2085-97-192 251:74:252:5486,-0.667,-0.557,2.677,-506.47,-303.406,-0.916,12.189,14.843,-49.839
 14:40:39.118,eb:33:2e:f9:57:b5, 2085-97-165 249:29:255:5463,-0.845,-0.32,2.681,-496.399,-308.411,45.898,7.059,11.761,-50.18
 14:40:39.118,eb:33:2e:f9:57:b5, 2085-97-100 249:33:04:5795,-0.783,0.163,2.708,-472.351,-309.387,99.304,2.285,8.608,-49.719
 14:40:39.118,eb:33:2e:f9:57:b5, 2085-97-04 250:227:12:6423,-0.72,1.076,3.033,-419.556,-299.255,154.907,-2.065,5.526,-48.461
 14:40:39.118,eb:33:2e:f9:57:b5, 2085-97-100 250:203:19:6126,-0.719,2.087,3.116,-367.92,-303.284,175.232,-5.839,2.631,-46.609
 14:40:39.121,eb:33:2e:f9:57:b5, 2085-97-212 249:209:25:6095,-0.827,2.878,2.924,-346.436,-320.496,173.95,-9.371,-0.275,-44.489
 14:40:39.121,eb:33:2e:f9:57:b5, 2085-97-195 248:144:30:7206,-1.201,3.539,3.178,-351.44,-326.721,152.893,-12.925,-3.186,-42.292
 14:40:39.121,eb:33:2e:f9:57:b5, 2085-97-161 244:04:39:7285,-1.697,4.269,3.692,-316.895,-292.114,117.981,-16.529,-5.9,-40.221
 14:40:39.121,eb:33:2e:f9:57:b5, 2085-97-30 241:225:45:6065,-2.005,5.5,3.177,-176.941,-232.239,62.5,-19.188,-8.102,-38.573
 14:40:39.211,eb:33:2e:f9:57:b5, 2085-97-37 239:162:43:5494,-2.146,5.707,2.917,-51.208,-138.55,0.61,-20.352,-9.778,-37.711
 14:40:39.211,eb:33:2e:f9:57:b5, 2085-97-23 239:35:39:3610,-2.019,5.179,2.29,-12.573,-27.344,-34.973,-20.594,-10.574,-37.661
 14:40:39.211,eb:33:2e:f9:57:b5, 2085-97-62 241:22:35:2387,-0.781,4.689,1.397,-0.793,18.188,-67.2,-20.583,-10.739,-38.167
 14:40:39.211,eb:33:2e:f9:57:b5, 2085-97-148 06:169:18:-3621,3.691,3.53,8.292,422.424,302.063,-130.92,-18.677,-10.712,-39.375
 14:40:39.211,eb:33:2e:f9:57:b5, 2085-97-158 35:174:51:12687,-0.237,10.013,2.742,584.961,156.738,-439.575,-12.008,-11.003,-42.539
 14:40:39.211,eb:33:2e:f9:57:b5, 2085-97-102 242:241:254:2077,-1.978,-0.941,4.255,361.694,1017.883,-370.544,-6.795,-5.389,-48.395
 14:40:39.211,eb:33:2e:f9:57:b5, 2085-97-192 239:124:255:-984,-0.688,1.441,-0.812,-12.146,415.344,83.74,-5.482,1.741,-49.378
 14:40:39.212,eb:33:2e:f9:57:b5, 2085-97-177 00:01:01:2234,-0.064,-0.432,0.49,65.796,176.392,10.925,-5.169,4.054,-49.153
 14:40:39.270,eb:33:2e:f9:57:b5, 2085-97-198 252:137:01:1188,-0.87,0.188,0.813,41.26,99.365,42.053,-4.609,5.581,-48.95
 14:40:39.270,eb:33:2e:f9:57:b5, 2085-97-179 254:136:00:1958,0.083,0.425,0.269,26.001,7.08,-2.136,-4.274,6.163,-48.708
 14:40:39.270,eb:33:2e:f9:57:b5, 2085-97-237 255:37:00:2076,-0.181,-0.01,1.101,25.146,-3.54,-6.409,-4.005,6.158,-48.79
 14:40:39.270,eb:33:2e:f9:57:b5, 2085-97-140 254:225:00:1694,0.161,0.131,0.81,19.958,-28.87,-8.24,-3.779,5.999,-48.845
 14:40:39.329,eb:33:2e:f9:57:b5, 2085-97-119 02:96:00:2627,0.172,0.06,1.17,14.526,-25.879,-14.771,-3.598,5.614,-48.966
 14:40:39.329,eb:33:2e:f9:57:b5, 2085-97-81 255:51:00:1908,-0.164,0.06,1.113,16.846,-6.104,-12.451,-3.466,5.532,-49.098
 14:40:39.329,eb:33:2e:f9:57:b5, 2085-97-183 254:249:255:1831,0.053,-0.005,0.892,16.357,-28.809,-11.108,-3.279,5.334,-49.213
 14:40:39.329,eb:33:2e:f9:57:b5, 2085-97-196 01:45:00:2646,0.201,0.016,1.1,15.015,-44.312,-6.531,-3.131,4.922,-49.29
 14:40:39.331,eb:33:2e:f9:57:b5, 2085-97-72 01:244:254:2843,0.106,-0.021,1.319,16.113,-29.663,-0.305,-2.961,4.559,-49.318
 14:40:39.331,eb:33:2e:f9:57:b5, 2085-97-217 251:119:254:4827,0.251,-0.64,2.158,74.951,-81.116,23.987,-2.521,3.977,-49.202
 14:40:39.331,eb:33:2e:f9:57:b5, 2085-97-180 01:87:252:5400,0.242,-0.292,2.489,83.496,-41.748,6.165,-1.741,3.466,-49.054
 14:40:39.332,eb:33:2e:f9:57:b5, 2085-97-65 02:26:252:4911,0.3,-0.513,2.568,121.765,-14.343,8.301,-0.703,3.208,-49.005
 14:40:39.389,eb:33:2e:f9:57:b5, 2085-97-94 02:71:252:4486,0.352,-0.462,2.303,162.415,4.7,13,0.764,3.153,-48.889
 14:40:39.389,eb:33:2e:f9:57:b5, 2085-97-213 02:220:251:4191,0.352,-0.524,2.088,203.979,29.053,10.437,2.62,3.323,-48.774
 14:40:39.389,eb:33:2e:f9:57:b5, 2085-97-19 03:164:251:3762,0.484,-0.611,2.004,248.657,60.181,6.165,4.938,3.774,-48.658
 14:40:39.389,eb:33:2e:f9:57:b5, 2085-97-70 04:222:251:3143,0.531,-0.536,1.697,294.189,82.825,-0.427,7.679,4.499,-48.554
 14:40:39.419,eb:33:2e:f9:57:b5, 2085-97-215 03:15:253:2722,0.383,-0.43,1.387,336.548,94.727,-10.559,10.893,5.389,-48.45
 14:40:39.419,eb:33:2e:f9:57:b5, 2085-97-114 02:222:252:3312,0.15,-0.302,1.425,369.08,105.896,-39.429,14.447,6.4,-48.51
 14:40:39.419,eb:33:2e:f9:57:b5, 2085-97-250 254:51:254:5053,-0.315,-0.324,2.005,394.165,152.1,-47.729,18.287,7.751,-48.56
 14:40:39.419,eb:33:2e:f9:57:b5, 2085-97-17 254:144:02:5108,-0.305,0.098,2.588,402.832,182.678,-45.654,22.33,9.553,-48.378
 14:40:39.450,eb:33:2e:f9:57:b5, 2085-97-228 00:104:08:3994,0.385,0.459,2.381,387.329,155.151,-39.246,26.356,11.255,-48.043
 14:40:39.450,eb:33:2e:f9:57:b5, 2085-97-05 02:152:04:4190,0.226,0.639,2.172,345.398,104.004,-48.767,30.037,12.508,-47.928
 14:40:39.450,eb:33:2e:f9:57:b5, 2085-97-177 00:133:254:3730,0.006,0.18,2.013,316.345,94.666,-46.082,33.333,13.612,-47.807
 14:40:39.450,eb:33:2e:f9:57:b5, 2085-97-249 255:165:252:4401,0.178,-0.353,1.751,275.635,94.36,-33.691,36.343,14.568,-47.62
 14:40:39.510,eb:33:2e:f9:57:b5, 2085-97-32 01:01:255:2634,0.243,-0.613,2.335,276.001,193.665,-6.653,39.271,15.842,-46.824
 14:40:39.510,eb:33:2e:f9:57:b5, 2085-97-19 02:47:254:2233,0.483,-0.164,1.028,199.585,211.487,19.836,42.061,17.336,-45.396
 14:40:39.510,eb:33:2e:f9:57:b5, 2085-113-58 00:44:227:-1440,0.615,-0.167,1.416,151.428,171.631,27.466,44.242,18.523,-43.808
 14:40:39.510,eb:33:2e:f9:57:b5, 2085-97-139 05:19:00:4366,0.809,-0.111,1.832,149.658,155.518,25.391,45.214,18.995,-43.099
 14:40:39.540,eb:33:2e:f9:57:b5, 2085-97-59 07:248:02:4806,0.955,0.195,2.295,179.443,123.291,-8.667,47.225,19.869,-41.99
 14:40:39.540,eb:33:2e:f9:57:b5, 2085-97-212 07:171:04:4673,0.969,0.5,2.326,217.957,86.792,-72.754,49.427,20.852,-41.446
 14:40:39.540,eb:33:2e:f9:57:b5, 2085-97-112 07:126:04:4665,0.873,0.61,2.257,242.432,44.312,-155.823,51.658,22.17,-41.732
 14:40:39.540,eb:33:2e:f9:57:b5, 2085-97-121 06:86:02:5036,0.737,0.446,2.351,250.061,12.512,-237.549,53.712,23.917,-42.819
 14:40:39.569,eb:33:2e:f9:57:b5, 2085-97-69 05:88:255:5347,0.58,0.104,2.565,243.286,9.827,-301.758,55.486,26.224,-44.5
 14:40:39.569,eb:33:2e:f9:57:b5, 2085-97-60 04:125:252:5137,0.486,-0.264,2.575,226.135,33.813,-338.318,57.003,29.037,-46.285
 14:40:39.569,eb:33:2e:f9:57:b5, 2085-97-173 03:80:250:4797,0.411,-0.583,2.423,204.468,66.04,-348.022,58.343,32.25,-47.906
 14:40:39.569,eb:33:2e:f9:57:b5, 2085-97-188 02:189:248:4429,0.283,-0.81,2.256,180.42,89.111,-338.745,59.546,35.596,-49.169
 14:40:39.600,eb:33:2e:f9:57:b5, 2085-97-209 01:128:246:3990,0.142,-1.029,2.057,153.32,94.36,-312.988,60.612,38.897,-50.18
 14:40:39.600,eb:33:2e:f9:57:b5, 2085-97-99 00:213:243:3379,-0.011,-1.367,1.817,119.019,99.182,-263.55,61.512,41.858,-50.861
 14:40:39.600,eb:33:2e:f9:57:b5, 2085-97-77 255:48:242:2228,-0.123,-1.644,1.433,75.439,117.31,-189.697,62.397,44.352,-50.999
 14:40:39.600,eb:33:2e:f9:57:b5, 2085-97-25 255:184:241:1240,-0.057,-1.757,0.829,17.7,129.089,-86.243,63.347,46.071,-50.251
 14:40:39.660,eb:33:2e:f9:57:b5, 2085-97-101 00:14:241:522,0.205,-1.827,0.423,-36.438,123.413,14.099,64.286,46.895,-48.812
 14:40:39.660,eb:33:2e:f9:57:b5, 2085-97-32 03:119:241:-090,0.589,-1.851,0.104,-88.379,116.394,111.816,65.05,46.747,-46.846
 14:40:39.660,eb:33:2e:f9:57:b5, 2085-97-237 05:224:242:-707,0.857,-1.758,-0.167,-131.104,95.52,196.899,65.632,45.72,-44.5
 14:40:39.660,eb:33:2e:f9:57:b5, 2085-97-02 08:183:245:-1721,1.133,-1.481,-0.602,-168.945,28.259,255.005,65.55,43.835,-42.446
 14:40:39.690,eb:33:2e:f9:57:b5, 2085-97-182 09:255:248:-2268,1.291,-1.062,-1.036,-222.717,-33.02,295.959,64.572,41.254,-41.006
 14:40:39.690,eb:33:2e:f9:57:b5, 2085-97-129 10:189:250:-1505,1.34,-0.751,-1,-283.203,-81.116,304.993,62.617,38.238,-40.029
 14:40:39.690,eb:33:2e:f9:57:b5, 2085-97-208 10:60:252:-279,1.335,-0.567,-0.397,-326.538,-125.244,284.729,59.859,35.123,-39.496
 14:40:39.690,eb:33:2e:f9:57:b5, 2085-97-96 10:116:253:309,1.26,-0.385,0.031,-354.675,-155.823,249.023,56.503,32.086,-39.348
 14:40:39.750,eb:33:2e:f9:57:b5, 2085-97-193 09:200:254:757,1.173,-0.24,0.262,-380.615,-171.387,202.82,52.762,29.295,-39.479
 14:40:39.750,eb:33:2e:f9:57:b5, 2085-97-22 09:225:255:1371,1.099,-0.075,0.512,-406.128,-179.443,148.865,48.631,26.818,-39.831
 14:40:39.750,eb:33:2e:f9:57:b5, 2085-97-83 08:110:00:1815,0.994,0.016,0.802,-424.438,-184.204,87.769,44.198,24.725,-40.468
 14:40:39.750,eb:33:2e:f9:57:b5, 2085-97-103 07:71:00:2165,0.772,0.082,0.928,-436.157,-194.763,22.827,39.463,22.961,-41.468
 14:40:39.809,eb:33:2e:f9:57:b5, 2085-97-243 04:14:255:2618,0.472,-0.045,1.142,-445.557,-207.886,-31.128,34.525,21.407,-42.902
 14:40:39.809,eb:33:2e:f9:57:b5, 2085-97-96 02:216:253:3000,0.143,-0.193,1.417,-457.336,-212.28,-65.125,29.388,19.874,-44.604
 14:40:39.809,eb:33:2e:f9:57:b5, 2085-97-181 255:96:253:3158,-0.223,-0.311,1.505,-467.285,-218.811,-72.327,24.197,18.298,-46.346
 14:40:39.809,eb:33:2e:f9:57:b5, 2085-97-242 252:61:253:3426,-0.544,-0.347,1.613,-478.394,-231.262,-54.504,18.984,16.425,-47.884
 14:40:39.809,eb:33:2e:f9:57:b5, 2085-113-58 00:245:221:-315,-0.648,-0.306,1.69,-489.624,-240.295,-12.207,13.854,14.277,-48.955
 14:40:39.811,eb:33:2e:f9:57:b5, 2085-97-41 250:118:254:3775,-0.781,-0.268,1.729,-491.699,-244.873,13.977,11.31,13.057,-49.246
 14:40:39.811,eb:33:2e:f9:57:b5, 2085-97-75 249:86:01:4462,-0.901,-0.063,2.017,-482.239,-245.605,73.975,6.432,10.558,-49.208
 14:40:39.811,eb:33:2e:f9:57:b5, 2085-97-187 248:103:07:5104,-0.824,0.514,2.301,-456.238,-244.08,133.911,1.846,8.009,-48.34
 14:40:39.811,eb:33:2e:f9:57:b5, 2085-97-23 250:47:15:6862,-0.692,1.379,2.881,-402.893,-237.061,177.246,-2.274,5.576,-46.763
 14:40:39.901,eb:33:2e:f9:57:b5, 2085-97-181 250:179:23:7620,-0.655,2.449,3.699,-299.072,-193.665,189.575,-5.641,3.505,-44.775
 14:40:39.901,eb:33:2e:f9:57:b5, 2085-97-97 250:154:31:5662,-0.778,3.469,3.343,-190.857,-137.817,176.331,-7.916,2.109,-42.786
 14:40:39.901,eb:33:2e:f9:57:b5, 2085-97-139 248:207:36:3537,-1.083,4.376,2.156,-141.418,-152.283,148.804,-9.47,0.945,-40.995
 14:40:39.901,eb:33:2e:f9:57:b5, 2085-97-42 246:27:38:3588,-1.599,4.715,1.58,-132.751,-229.065,109.741,-10.816,-0.753,-39.43
 14:40:39.931,eb:33:2e:f9:57:b5, 2085-97-104 240:136:36:4553,-2.208,4.71,2.023,-121.155,-250.793,86.609,-12.167,-3.01,-38.013
 14:40:39.931,eb:33:2e:f9:57:b5, 2085-97-184 237:104:33:4471,-2.265,4.462,2.16,-63.538,-203.003,85.327,-13.2,-5.098,-36.711
 14:40:39.931,eb:33:2e:f9:57:b5, 2085-97-35 239:227:30:4524,-1.793,3.988,2.233,17.273,-87.219,99.487,-13.519,-6.306,-35.475
 14:40:39.932,eb:33:2e:f9:57:b5, 2085-97-95 244:107:30:3416,-1.106,3.884,1.986,87.952,44.8,92.896,-13.052,-6.196,-34.481
 14:40:39.991,eb:33:2e:f9:57:b5, 2085-97-20 01:34:35:3801,-4.278,3.725,1.186,145.508,124.512,49.438,-11.887,-5.136,-33.981
 14:40:39.991,eb:33:2e:f9:57:b5, 2085-97-03 60:233:23:1677,7.789,7.098,4.591,451.416,-108.459,-332.825,-8.652,-5.817,-34.991
 14:40:39.991,eb:33:2e:f9:57:b5, 2085-97-09 04:46:12:4834,-1.567,0.931,6.528,200.012,612.549,-203.674,-4.444,-5.658,-38.82
 14:40:39.991,eb:33:2e:f9:57:b5, 2085-97-163 229:116:255:-5128,-1.449,0.06,-0.578,-35.767,603.271,111.389,-4.499,2.307,-38.798
 14:40:40.051,eb:33:2e:f9:57:b5, 2085-97-214 00:21:255:2442,0.174,-0.195,0.068,42.358,156.921,12.695,-4.312,5.383,-38.546
 14:40:40.051,eb:33:2e:f9:57:b5, 2085-97-44 251:146:02:1071,-0.895,-0.052,0.993,47.119,73.73,35.522,-3.834,6.306,-38.419
 14:40:40.051,eb:33:2e:f9:57:b5, 2085-97-234 253:42:01:1759,0.015,0.299,0.348,23.743,13.123,-0.061,-3.466,6.795,-38.221
 14:40:40.051,eb:33:2e:f9:57:b5, 2085-97-221 255:174:00:2035,-0.191,0.042,1.049,29.907,-13.672,-25.391,-3.219,6.735,-38.419
 14:40:40.110,eb:33:2e:f9:57:b5, 2085-97-104 255:85:00:2031,0.113,0.03,0.859,19.104,-25.94,-15.625,-2.972,6.515,-38.617
 14:40:40.111,eb:33:2e:f9:57:b5, 2085-97-244 02:173:00:2645,0.064,0.053,1.103,20.325,-24.109,-20.142,-2.812,6.284,-38.771
 14:40:40.111,eb:33:2e:f9:57:b5, 2085-97-49 00:119:00:2199,0.039,0.035,1.045,26.428,-20.874,-21.606,-2.549,6.07,-38.996
 14:40:40.111,eb:33:2e:f9:57:b5, 2085-97-210 00:00:00:2574,0.219,0.047,1.185,20.996,-11.23,-24.902,-2.346,5.911,-39.227
 14:40:40.169,eb:33:2e:f9:57:b5, 2085-97-37 02:00:00:2857,0.39,0.031,1.373,20.63,5.127,-24.597,-2.137,5.883,-39.474
 14:40:40.169,eb:33:2e:f9:57:b5, 2085-97-50 255:24:254:4062,-0.432,-0.154,1.115,63.11,-47.363,-2.991,-1.807,5.817,-39.628
 14:40:40.169,eb:33:2e:f9:57:b5, 2085-97-204 254:72:252:4688,-0.012,-0.33,2.299,59.448,3.906,-1.77,-1.165,5.647,-39.606
 14:40:40.169,eb:33:2e:f9:57:b5, 2085-97-90 01:87:253:4568,0.167,-0.361,2.217,85.266,14.526,4.7,-0.434,5.751,-39.589
 14:40:40.171,eb:33:2e:f9:57:b5, 2085-97-236 00:141:252:4317,0.082,-0.355,2.167,116.089,26.428,7.629,0.621,5.955,-39.523
 14:40:40.171,eb:33:2e:f9:57:b5, 2085-97-116 00:213:251:3844,0.078,-0.479,2.016,149.963,41.016,17.456,1.978,6.301,-39.391
 14:40:40.171,eb:33:2e:f9:57:b5, 2085-97-252 00:222:251:3678,0.163,-0.535,1.827,188.416,47.607,26.489,3.735,6.724,-39.139
 14:40:40.171,eb:33:2e:f9:57:b5, 2085-97-192 01:41:253:3229,0.252,-0.442,1.681,230.591,52.734,25.94,5.883,7.218,-38.82
 14:40:40.173,eb:33:2e:f9:57:b5, 2085-97-15 02:28:253:2978,0.24,-0.33,1.487,273.254,34.058,4.517,8.476,7.619,-38.611
 14:40:40.173,eb:33:2e:f9:57:b5, 2085-97-104 01:34:253:3097,0.077,-0.383,1.488,312.073,30.212,-12.573,11.426,7.916,-38.633
 14:40:40.173,eb:33:2e:f9:57:b5, 2085-97-37 255:220:253:3385,-0.332,-0.374,1.554,342.163,46.204,-19.348,14.722,8.311,-38.705
 14:40:40.173,eb:33:2e:f9:57:b5, 2085-97-117 251:84:254:4295,-0.61,-0.379,2.023,363.342,81.421,-19.226,18.259,8.965,-38.76
 14:40:40.177,eb:33:2e:f9:57:b5, 2085-97-233 249:39:00:4062,-0.75,0.012,2.034,365.662,86.06,-10.742,21.978,9.833,-38.584
 14:40:40.177,eb:33:2e:f9:57:b5, 2085-97-203 251:57:01:3496,-0.561,0.271,1.845,354.858,66.467,0.244,25.637,10.569,-38.298
 14:40:40.177,eb:33:2e:f9:57:b5, 2085-97-226 251:252:00:3869,-0.575,0.296,1.668,333.679,42.542,8.728,29.152,10.97,-38.002
 14:40:40.177,eb:33:2e:f9:57:b5, 2085-97-200 250:200:253:3592,-0.653,-0.211,1.879,310.73,67.017,26.672,32.443,11.343,-37.601
 14:40:40.231,eb:33:2e:f9:57:b5, 2085-97-231 250:239:248:3310,-0.619,-0.598,1.701,284.302,94.788,56.03,35.568,11.766,-36.777
 14:40:40.231,eb:33:2e:f9:57:b5, 2085-97-124 251:87:245:3468,-0.472,-1.104,1.648,278.076,137.756,94.421,38.628,12.211,-35.458
 14:40:40.231,eb:33:2e:f9:57:b5, 2085-97-143 252:189:250:1577,-0.46,-1.127,1.175,281.982,172.852,101.624,41.885,12.766,-33.53
 14:40:40.231,eb:33:2e:f9:57:b5, 2085-97-245 252:238:249:2428,-0.27,-0.791,0.958,207.703,182.129,84.595,44.736,13.392,-31.624
 14:40:40.260,eb:33:2e:f9:57:b5, 2085-97-141 254:140:250:3093,-0.056,-0.71,1.33,148.743,165.039,44.312,46.879,14.134,-29.861
 14:40:40.260,eb:33:2e:f9:57:b5, 2085-97-147 00:248:251:3419,0.185,-0.609,1.613,123.108,144.104,-7.996,48.521,15.024,-28.597
 14:40:40.260,eb:33:2e:f9:57:b5, 2085-97-79 02:18:254:3470,0.395,-0.375,1.693,114.075,131.226,-69.092,49.911,16.21,-27.784
 14:40:40.260,eb:33:2e:f9:57:b5, 2085-97-128 03:192:255:3215,0.627,-0.142,1.699,110.229,120.85,-139.771,51.114,17.831,-27.515
 14:40:40.289,eb:33:2e:f9:57:b5, 2085-97-21 06:150:255:3442,0.896,-0.045,1.651,111.572,93.811,-226.196,52.103,19.946,-27.878
 14:40:40.289,eb:33:2e:f9:57:b5, 2085-97-84 08:05:255:3823,1.154,-0.067,1.74,111.877,73.792,-312.866,52.844,22.632,-28.96
 14:40:40.289,eb:33:2e:f9:57:b5, 2085-97-150 09:237:253:4500,1.232,-0.188,2.052,104.431,64.697,-392.334,53.218,25.906,-30.685
 14:40:40.289,eb:33:2e:f9:57:b5, 2085-97-41 10:75:251:4690,1.275,-0.366,2.289,83.557,56.58,-453.979,53.086,29.718,-33.025
 14:40:40.351,eb:33:2e:f9:57:b5, 2085-97-197 09:48:248:4044,1.121,-0.806,2.19,42.908,69.946,-485.046,52.245,33.887,-35.777
 14:40:40.351,eb:33:2e:f9:57:b5, 2085-97-244 07:212:245:3335,0.847,-1.112,1.766,-12.085,67.871,-469.482,50.669,38.117,-38.743
 14:40:40.351,eb:33:2e:f9:57:b5, 2085-97-138 05:146:243:2867,0.593,-1.433,1.515,-87.646,62.744,-411.194,48.17,41.891,-41.808
 14:40:40.351,eb:33:2e:f9:57:b5, 2085-97-229 03:200:242:2562,0.411,-1.627,1.335,-168.396,77.087,-307.19,45.038,44.984,-44.473
 14:40:40.379,eb:33:2e:f9:57:b5, 2085-97-139 03:17:243:2394,0.561,-1.635,1.178,-236.145,88.135,-171.387,41.814,47.192,-46.055
 14:40:40.379,eb:33:2e:f9:57:b5, 2085-97-183 05:160:244:2228,0.896,-1.551,1.155,-277.283,85.815,-35.278,39.056,48.494,-46.291
 14:40:40.379,eb:33:2e:f9:57:b5, 2085-97-235 08:70:247:1673,1.332,-1.255,0.971,-292.725,47.974,84.29,36.92,48.807,-45.286
 14:40:40.379,eb:33:2e:f9:57:b5, 2085-97-57 12:28:250:937,1.695,-0.915,0.641,-289.734,-26.733,176.331,35.305,48.054,-43.566
 14:40:40.410,eb:33:2e:f9:57:b5, 2085-97-127 14:231:252:578,1.879,-0.547,0.329,-283.997,-115.662,235.718,33.799,46.192,-41.699
 14:40:40.410,eb:33:2e:f9:57:b5, 2085-97-176 14:207:254:861,1.81,-0.252,0.299,-286.499,-192.078,258.545,32.146,43.473,-40.034
 14:40:40.410,eb:33:2e:f9:57:b5, 2085-97-231 13:131:255:1915,1.639,-0.099,0.674,-300.537,-253.113,251.465,30.053,40.161,-38.749
 14:40:40.410,eb:33:2e:f9:57:b5, 2085-97-80 12:34:255:2841,1.464,-0.062,1.173,-325.684,-290.894,224.609,27.477,36.584,-37.87
 14:40:40.651,eb:33:2e:f9:57:b5, 2085-97-102 11:68:254:3773,1.375,-0.164,1.615,-357.727,-299.927,190.613,24.362,32.959,-37.288
 14:40:40.651,eb:33:2e:f9:57:b5, 2085-97-204 10:163:254:4211,1.301,-0.217,1.964,-388.916,-281.86,152.527,20.852,29.614,-36.826
 14:40:40.651,eb:33:2e:f9:57:b5, 2085-97-06 10:51:00:4562,1.206,-0.086,2.14,-412.842,-272.888,106.445,16.941,26.554,-36.535
 14:40:40.651,eb:33:2e:f9:57:b5, 2085-97-03 09:23:02:4801,0.999,0.136,2.301,-431.091,-280.518,50.049,12.706,23.692,-36.557
 14:40:40.741,eb:33:2e:f9:57:b5, 2085-97-40 06:178:03:4897,0.294,0.379,2.375,-446.899,-305.054,-4.639,8.119,20.742,-36.985
 14:40:40.741,eb:33:2e:f9:57:b5, 2085-97-127 00:110:03:5149,-0.26,0.438,2.321,-464.966,-343.994,-31.555,3.34,17.529,-37.623
 14:40:40.741,eb:33:2e:f9:57:b5, 2085-97-88 251:224:04:5986,-0.856,0.481,2.695,-467.957,-347.778,-10.376,-1.461,14.024,-37.98
 14:40:40.741,eb:33:2e:f9:57:b5, 2085-97-38 247:151:09:6895,-1.292,0.848,3.147,-443.237,-333.618,36.865,-5.966,10.624,-37.656
 14:40:40.798,eb:33:2e:f9:57:b5, 2085-97-145 244:64:18:7878,-1.596,1.666,3.642,-376.709,-306.702,88.989,-9.943,7.498,-36.59
 14:40:40.798,eb:33:2e:f9:57:b5, 2085-97-213 241:204:28:7408,-1.969,2.962,3.816,-269.47,-265.991,119.324,-12.969,4.916,-34.991
 14:40:40.798,eb:33:2e:f9:57:b5, 2085-97-131 238:115:36:6141,-2.319,4.148,3.328,-157.715,-238.892,124.023,-14.958,2.741,-33.217
 14:40:40.798,eb:33:2e:f9:57:b5, 2085-97-144 235:163:40:5243,-2.794,4.815,2.857,-56.946,-218.079,122.803,-15.914,0.84,-31.454
 14:40:40.829,eb:33:2e:f9:57:b5, 2085-97-70 232:98:42:3952,-2.981,5.173,2.319,22.888,-188.721,129.089,-16.035,-0.818,-29.724
 14:40:40.829,eb:33:2e:f9:57:b5, 2085-97-127 232:143:40:3326,-2.875,5.216,1.706,70.312,-152.588,131.531,-15.562,-2.126,-28.054
 14:40:40.829,eb:33:2e:f9:57:b5, 2085-97-47 234:111:37:3209,-2.448,4.889,1.605,82.031,-72.632,140.137,-14.848,-2.889,-26.433
 14:40:40.829,eb:33:2e:f9:57:b5, 2085-97-155 238:83:34:2909,-1.851,4.493,1.491,90.271,36.926,140.93,-14.073,-2.659,-25.032
 14:40:40.831,eb:33:2e:f9:57:b5, 2085-97-138 243:140:29:2345,-1.321,4.002,1.296,124.146,120.972,123.962,-13.041,-1.538,-23.961
 14:40:40.831,eb:33:2e:f9:57:b5, 2085-97-104 247:10:23:1399,-0.896,3.338,0.932,182.678,149.841,97.107,-11.503,0.071,-23.17
 14:40:40.831,eb:33:2e:f9:57:b5, 2085-97-52 04:86:13:2855,1.748,2.352,0.466,241.394,132.935,70.374,-9.316,1.609,-22.621
 14:40:40.831,eb:33:2e:f9:57:b5, 2085-97-132 253:22:09:6368,4.217,3.341,4.762,400.391,-166.748,-172.974,-5.823,0.879,-23.099
 14:40:40.831,eb:33:2e:f9:57:b5, 2085-97-117 31:69:12:9406,0,2.474,3.391,153.809,-54.688,-49.927,-2.664,-0.687,-23.994
 14:40:40.831,eb:33:2e:f9:57:b5, 2085-97-58 255:13:00:1842,-0.249,0.112,0.944,19.043,-27.283,-7.446,-1.588,3.17,-23.28
 14:40:40.831,eb:33:2e:f9:57:b5, 2085-97-226 00:226:255:2286,0.433,-0.063,0.817,14.16,-71.289,9.888,-1.401,2.675,-23.253
 14:40:40.832,eb:33:2e:f9:57:b5, 2085-97-170 02:171:252:3581,0.152,-0.07,1.573,38.94,-64.148,7.568,-1.176,1.95,-23.181
 14:40:40.836,eb:33:2e:f9:57:b5, 2085-97-245 255:144:254:3240,0.281,-0.073,1.396,58.105,-40.161,21.912,-0.538,1.39,-23.011
 14:40:40.836,eb:33:2e:f9:57:b5, 2085-97-230 01:38:253:3969,0.174,-0.266,1.906,113.22,30.334,17.639,2.807,2.076,-21.66
 14:40:40.836,eb:33:2e:f9:57:b5, 2085-97-89 01:169:252:3789,0.203,-0.43,1.943,144.836,36.072,16.968,4.142,2.379,-21.462
 14:40:40.837,eb:33:2e:f9:57:b5, 2085-97-04 02:153:252:3579,0.267,-0.428,1.773,181.396,36.377,7.935,5.79,2.73,-21.319
 14:40:40.837,eb:33:2e:f9:57:b5, 2085-97-113 02:22:252:3594,0.403,-0.444,1.796,221.68,50.842,-4.761,7.85,3.131,-21.253
 14:40:40.837,eb:33:2e:f9:57:b5, 2085-97-221 03:37:253:3058,0.539,-0.418,1.588,260.742,65.918,-15.32,10.283,3.752,-21.264
 14:40:40.837,eb:33:2e:f9:57:b5, 2085-97-25 04:113:254:2607,0.379,-0.336,1.442,295.715,78.369,-31.189,13.101,4.482,-21.341
 14:40:40.837,eb:33:2e:f9:57:b5, 2085-97-110 00:90:255:2395,-0.212,-0.161,1.2,320.618,93.506,-51.147,16.188,5.433,-21.539
 14:40:40.859,eb:33:2e:f9:57:b5, 2085-97-61 252:96:255:2988,-0.587,-0.19,1.411,334.839,117.676,-60.974,19.473,6.592,-21.78
 14:40:40.859,eb:33:2e:f9:57:b5, 2085-97-94 250:159:00:3968,-0.914,0.08,1.494,339.539,98.877,-59.082,22.841,7.872,-21.94
 14:40:40.859,eb:33:2e:f9:57:b5, 2085-97-187 249:220:00:4374,-0.54,-0.002,2.198,335.999,110.413,-37.537,26.23,8.97,-21.956
 14:40:40.859,eb:33:2e:f9:57:b5, 2085-97-26 252:209:03:3559,-0.44,0.286,1.922,325.562,97.961,-13.855,29.597,10.02,-21.682
 14:40:40.890,eb:33:2e:f9:57:b5, 2085-97-86 252:88:00:3431,-0.461,0.285,1.805,299.438,109.07,-3.418,32.805,10.887,-21.231
 14:40:40.890,eb:33:2e:f9:57:b5, 2085-97-129 252:128:254:2753,-0.373,-0.123,1.425,268.616,124.634,26.306,35.793,11.816,-20.44
 14:40:40.890,eb:33:2e:f9:57:b5, 2085-97-161 253:73:250:2829,-0.228,-0.501,1.391,247.131,131.714,53.406,38.584,12.535,-19.33
 14:40:40.890,eb:33:2e:f9:57:b5, 2085-97-234 255:118:00:2796,0.299,-0.646,1.409,249.817,170.654,75.745,41.385,13.244,-17.809
 14:40:40.950,eb:33:2e:f9:57:b5, 2085-97-40 01:02:02:1157,-0.007,0.188,0.919,261.536,149.414,2.38,44.363,14.183,-16.293
 14:40:40.950,eb:33:2e:f9:57:b5, 2085-97-108 00:68:255:2097,0.1,0.048,0.651,203.369,102.539,-72.449,46.818,15.331,-15.694
 14:40:40.950,eb:33:2e:f9:57:b5, 2085-97-11 01:245:252:3478,0.199,-0.262,1.376,152.405,76.233,-129.944,48.538,16.677,-15.76
 14:40:40.950,eb:33:2e:f9:57:b5, 2085-97-130 02:135:253:4078,0.441,-0.371,1.883,127.441,86.426,-172.607,49.785,18.375,-16.194
 14:40:40.979,eb:33:2e:f9:57:b5, 2085-97-57 04:201:254:4205,0.623,-0.229,2.079,120.056,106.995,-213.44,50.85,20.484,-16.688
 14:40:40.979,eb:33:2e:f9:57:b5, 2085-97-200 05:214:255:3935,0.814,-0.078,1.991,125.061,113.098,-262.329,51.833,23.06,-17.353
 14:40:40.979,eb:33:2e:f9:57:b5, 2085-97-100 07:16:00:4232,1.02,0.017,1.925,131.287,89.6,-317.566,52.69,25.988,-18.397
 14:40:40.979,eb:33:2e:f9:57:b5, 2085-97-175 08:162:254:5174,1.108,-0.03,2.284,124.695,65.491,-370.361,53.218,29.229,-20.072
 14:40:41.009,eb:33:2e:f9:57:b5, 2085-97-205 08:00:252:5542,1.131,-0.351,2.699,102.783,82.947,-400.757,53.328,32.772,-22.072
 14:40:41.009,eb:33:2e:f9:57:b5, 2085-97-30 09:98:250:4677,1.092,-0.627,2.532,67.81,129.7,-402.1,53.135,36.667,-23.95
 14:40:41.009,eb:33:2e:f9:57:b5, 2085-97-75 08:196:249:3832,1,-0.739,2.048,23.376,154.175,-375.671,52.663,40.633,-25.411
 14:40:41.009,eb:33:2e:f9:57:b5, 2085-97-100 07:103:249:3254,0.823,-0.811,1.73,-31.982,169.373,-323.181,51.85,44.396,-26.554
 14:40:41.070,eb:33:2e:f9:57:b5, 2085-97-13 06:15:249:2596,0.721,-0.84,1.434,-91.248,177.612,-245.728,50.828,47.67,-27.065
 14:40:41.070,eb:33:2e:f9:57:b5, 2085-113-58 00:245:221:-2055,0.728,-0.913,1.066,-144.165,160.95,-154.907,49.708,50.268,-26.977
 14:40:41.070,eb:33:2e:f9:57:b5, 2085-97-243 05:04:248:1388,0.818,-0.964,0.878,-168.152,143.86,-104.065,49.131,51.229,-26.691
 14:40:41.070,eb:33:2e:f9:57:b5, 2085-97-34 07:67:247:923,1.008,-1.044,0.563,-205.322,98.511,1.465,47.977,52.333,-25.735
 14:40:41.100,eb:33:2e:f9:57:b5, 2085-97-247 08:187:247:478,1.246,-1.096,0.342,-226.929,46.814,102.844,46.972,52.366,-24.28
 14:40:41.100,eb:33:2e:f9:57:b5, 2085-97-207 10:250:249:166,1.438,-0.913,0.145,-237.366,-21.179,186.523,46.016,51.306,-22.516
 14:40:41.100,eb:33:2e:f9:57:b5, 2085-97-13 12:90:252:054,1.559,-0.595,0.025,-252.563,-93.75,240.417,44.857,49.296,-20.869
 14:40:41.100,eb:33:2e:f9:57:b5, 2085-97-123 12:47:254:307,1.571,-0.327,0.068,-280.823,-149.048,264.526,43.182,46.571,-19.512
 14:40:41.159,eb:33:2e:f9:57:b5, 2085-97-126 12:230:254:952,1.528,-0.168,0.294,-316.467,-197.144,262.817,40.935,43.478,-18.474
 14:40:41.159,eb:33:2e:f9:57:b5, 2085-97-225 11:134:254:1746,1.46,-0.144,0.651,-353.821,-239.99,242.126,37.98,40.122,-17.836
 14:40:41.159,eb:33:2e:f9:57:b5, 2085-97-110 11:201:253:2618,1.401,-0.237,1.086,-389.771,-262.878,213.562,34.459,36.716,-17.507
 14:40:41.159,eb:33:2e:f9:57:b5, 2085-97-250 10:78:254:3091,1.322,-0.264,1.42,-421.021,-261.902,178.955,30.487,33.409,-17.303
 14:40:41.219,eb:33:2e:f9:57:b5, 2085-97-07 10:77:255:3464,1.196,-0.137,1.586,-442.261,-264.099,138.062,26.208,30.355,-17.216
 14:40:41.219,eb:33:2e:f9:57:b5, 2085-97-29 09:98:255:4093,1.07,-0.068,1.837,-452.209,-276.55,94.116,21.643,27.378,-17.342
 14:40:41.219,eb:33:2e:f9:57:b5, 2085-97-216 07:155:255:4610,0.734,-0.078,2.139,-456.848,-282.898,54.626,16.952,24.494,-17.682
 14:40:41.219,eb:33:2e:f9:57:b5, 2085-97-227 03:201:255:4645,0.352,-0.032,2.27,-460.815,-297.974,25.513,12.162,21.566,-18.127
 14:40:41.222,eb:33:2e:f9:57:b5, 2085-97-15 01:218:255:5271,-0.069,-0.034,2.41,-458.313,-312.195,21.973,7.432,18.506,-18.528
 14:40:41.222,eb:33:2e:f9:57:b5, 2085-97-236 253:194:00:6269,-0.452,0.015,2.821,-441.833,-316.406,43.03,2.889,15.293,-18.539
 14:40:41.222,eb:33:2e:f9:57:b5, 2085-97-17 251:251:03:6654,-0.729,0.244,3.19,-408.142,-298.645,82.275,-1.225,12.2,-17.985
 14:40:41.222,eb:33:2e:f9:57:b5, 2085-97-139 249:113:10:6694,-0.889,0.854,3.273,-353.882,-273.926,129.761,-4.834,9.355,-16.771
 14:40:41.429,eb:33:2e:f9:57:b5, 2085-97-74 248:224:18:6291,-1.035,1.829,3.198,-283.63,-258.85,165.71,-7.745,6.877,-15.002
 14:40:41.429,eb:33:2e:f9:57:b5, 2085-97-105 246:98:26:5652,-1.331,2.869,2.915,-215.759,-261.841,179.26,-10.031,4.526,-12.898
 14:40:41.429,eb:33:2e:f9:57:b5, 2085-97-53 244:220:31:5330,-1.639,3.65,2.658,-152.283,-276.611,180.725,-11.706,2.192,-10.657
 14:40:41.430,eb:33:2e:f9:57:b5, 2085-97-165 241:204:36:5121,-1.884,4.295,2.537,-95.947,-274.109,180.603,-12.903,-0.192,-8.322
 14:40:41.548,eb:33:2e:f9:57:b5, 2085-97-192 239:61:40:4993,-2.1,4.835,2.566,-33.203,-214.844,179.504,-13.59,-2.247,-6.053
 14:40:41.548,eb:33:2e:f9:57:b5, 2085-97-53 239:58:43:3363,-1.896,5.247,2.044,44.983,-121.338,156.921,-13.612,-3.499,-4.059
 14:40:41.548,eb:33:2e:f9:57:b5, 2085-97-80 242:188:41:3041,-1.578,5.289,1.609,117.31,-38.94,112.793,-12.854,-3.917,-2.582
 14:40:41.548,eb:33:2e:f9:57:b5, 2085-97-25 245:246:37:1589,-1.319,5.039,1.109,166.809,20.081,39.001,-11.442,-3.818,-1.862
 14:40:41.550,eb:33:2e:f9:57:b5, 2085-97-88 20:66:29:10945,-3.667,4.433,0.473,199.036,42.664,-52.429,-9.591,-3.499,-2.032
 14:40:41.550,eb:33:2e:f9:57:b5, 2085-97-249 255:66:15:3164,-2.142,5.408,1.371,498.535,126.709,-318.237,-5.488,-2.823,-3.137
 14:40:41.550,eb:33:2e:f9:57:b5, 2085-97-100 33:164:27:12313,1.157,0.852,5.383,307.617,310.242,-130.676,-0.906,-1.714,-6.163
 14:40:41.550,eb:33:2e:f9:57:b5, 2085-97-117 241:27:252:-2248,-1.236,-0.129,2.48,-61.584,440.491,95.764,-0.538,1.752,-6.262
 14:40:41.554,eb:33:2e:f9:57:b5, 2085-97-199 00:26:00:2217,0.247,0.333,-0.131,30.884,76.355,11.841,-0.555,4.109,-5.652
 14:40:41.554,eb:33:2e:f9:57:b5, 2085-97-04 255:94:00:1956,-0.479,-0.057,1.23,32.227,47.18,16.418,-0.203,4.598,-5.592
 14:40:41.554,eb:33:2e:f9:57:b5, 2085-97-44 255:221:00:1888,-0.089,0.275,0.672,16.541,25.146,14.587,0.027,4.955,-5.361
 14:40:41.554,eb:33:2e:f9:57:b5, 2085-97-177 254:17:00:1921,-0.129,0.114,0.92,31.921,-20.63,-28.32,0.286,4.911,-5.455
 14:40:41.554,eb:33:2e:f9:57:b5, 2085-97-122 00:82:00:2137,0.2,0.057,0.906,23.987,-29.053,-20.874,0.549,4.669,-5.74
 14:40:41.554,eb:33:2e:f9:57:b5, 2085-113-58 00:85:216:3705,0.405,0.102,1.158,23.987,-21.057,-19.043,0.786,4.389,-5.922
 14:40:41.554,eb:33:2e:f9:57:b5, 2085-97-237 01:125:00:2765,0.163,0.156,1.338,27.954,-4.944,-29.907,0.906,4.334,-6.07
 14:40:41.554,eb:33:2e:f9:57:b5, 2085-97-157 00:12:00:2417,-0.016,-0.002,1.323,17.578,28.015,-22.217,1.137,4.449,-6.356
 14:40:41.554,eb:33:2e:f9:57:b5, 2085-97-165 00:28:00:2442,0.23,0.002,1.064,11.536,30.029,-9.277,1.263,4.79,-6.515
 14:40:41.556,eb:33:2e:f9:57:b5, 2085-97-35 02:205:255:3091,0.201,0.013,1.394,11.78,37.781,-0.549,1.395,5.076,-6.548
 14:40:41.556,eb:33:2e:f9:57:b5, 2085-97-214 254:45:248:5731,-0.36,-0.488,2.116,41.077,52.246,27.344,1.609,5.554,-6.449
 14:40:41.557,eb:33:2e:f9:57:b5, 2085-97-178 00:03:02:2355,-0.157,-0.285,1.919,47.791,123.413,73.975,2.208,6.52,-5.735
 14:40:41.557,eb:33:2e:f9:57:b5, 2085-97-206 255:183:250:5189,0.089,-0.337,2.168,85.938,51.147,28.992,2.95,7.163,-5.29
 14:40:41.579,eb:33:2e:f9:57:b5, 2085-97-198 00:124:252:4278,-0.566,-0.44,2.144,122.803,72.327,47.546,4.087,7.784,-4.818
 14:40:41.579,eb:33:2e:f9:57:b5, 2085-97-122 252:04:02:4000,-0.497,0.488,1.893,339.05,8.667,-65.186,29.778,14.738,-3.724
 14:40:41.579,eb:33:2e:f9:57:b5, 2085-97-181 251:10:01:4177,-0.476,0.131,2.03,314.88,37.109,-48.462,32.959,15.178,-4.098
 14:40:41.579,eb:33:2e:f9:57:b5, 2085-97-156 251:18:253:3599,-0.58,-0.152,1.951,283.936,77.881,-29.236,35.931,15.908,-4.12
 14:40:41.671,eb:33:2e:f9:57:b5, 2085-97-158 251:69:254:4660,-0.299,-0.378,1.894,251.831,146.545,5.31,38.738,16.815,-3.499
 14:40:41.672,eb:33:2e:f9:57:b5, 2085-97-210 251:152:254:1798,-0.553,-0.584,2.142,287.659,234.131,37.231,41.896,18.21,-1.95
 14:40:41.672,eb:33:2e:f9:57:b5, 2085-97-53 251:241:252:1360,-0.396,-0.294,0.616,239.441,232.666,58.472,45.225,19.506,0.121
 14:40:41.672,eb:33:2e:f9:57:b5, 2085-97-159 253:121:251:2531,-0.192,-0.46,0.916,179.016,203.247,67.139,48.01,20.522,2.247
 14:40:41.673,eb:33:2e:f9:57:b5, 2085-97-152 255:10:251:3466,0.026,-0.63,1.524,150.33,189.026,66.223,50.328,21.22,4.285
 14:40:41.673,eb:33:2e:f9:57:b5, 2085-97-103 01:206:252:3789,0.308,-0.531,1.744,147.644,191.04,53.589,52.542,21.918,6.268
 14:40:41.673,eb:33:2e:f9:57:b5, 2085-97-112 03:64:255:3985,0.543,-0.249,1.931,154.48,192.2,21.301,54.767,22.709,8.185
 14:40:41.673,eb:33:2e:f9:57:b5, 2085-97-66 05:180:01:3917,0.776,0.064,1.932,162.476,184.814,-31.799,57.014,23.802,9.827
 14:40:41.700,eb:33:2e:f9:57:b5, 2085-97-29 07:93:04:3604,1.021,0.373,1.846,172.058,155.579,-108.948,59.167,25.285,11.03
 14:40:41.700,eb:33:2e:f9:57:b5, 2085-97-250 08:176:05:4043,1.145,0.662,1.766,177.429,93.384,-211.853,61.057,27.323,11.294
 14:40:41.700,eb:33:2e:f9:57:b5, 2085-97-34 09:229:02:5862,1.158,0.661,2.339,163.879,34.241,-318.481,62.353,29.976,10.443
 14:40:41.700,eb:33:2e:f9:57:b5, 2085-97-36 09:196:253:6610,1.111,-0.005,3.155,124.573,60.852,-395.142,62.99,33.442,8.899
 14:40:41.760,eb:33:2e:f9:57:b5, 2085-97-68 09:255:250:6261,1.225,-0.458,3.146,77.515,116.455,-420.898,63.259,37.513,7.685
 14:40:41.760,eb:33:2e:f9:57:b5, 2085-97-213 09:213:248:5510,1.202,-0.783,2.921,27.222,169.006,-418.152,63.32,41.946,6.949
 14:40:41.760,eb:33:2e:f9:57:b5, 2085-97-105 09:24:248:4742,1.104,-0.939,2.495,-35.217,195.618,-384.644,63.133,46.335,6.79
 14:40:41.760,eb:33:2e:f9:57:b5, 2085-97-02 08:71:247:3717,0.929,-1.034,2.076,-110.474,213.074,-319.885,62.688,50.405,7.174
 14:40:41.789,eb:33:2e:f9:57:b5, 2085-97-34 07:252:245:2982,0.855,-1.17,1.606,-180.42,204.712,-224.854,61.979,53.729,8.212
 14:40:41.789,eb:33:2e:f9:57:b5, 2085-97-196 06:56:245:2185,0.896,-1.313,1.283,-231.689,170.532,-114.075,61.144,56.063,9.723
 14:40:41.789,eb:33:2e:f9:57:b5, 2085-97-92 08:218:244:1350,1.132,-1.378,0.831,-266.174,125.977,7.874,60.156,57.145,11.585
 14:40:41.789,eb:33:2e:f9:57:b5, 2085-97-23 10:225:245:728,1.452,-1.345,0.462,-289.429,74.036,132.507,59.266,56.964,13.826
 14:40:41.850,eb:33:2e:f9:57:b5, 2085-97-65 13:52:249:525,1.81,-1.103,0.334,-301.636,5.188,230.591,58.134,55.486,16.062
 14:40:41.850,eb:33:2e:f9:57:b5, 2085-97-96 15:143:252:438,2.003,-0.615,0.208,-323.547,-56.091,293.396,56.624,53.047,18.018
 14:40:41.850,eb:33:2e:f9:57:b5, 2085-97-142 16:14:255:762,2.14,-0.268,0.29,-359.314,-104.309,314.819,54.41,49.982,19.589
 14:40:41.850,eb:33:2e:f9:57:b5, 2085-97-58 17:207:00:1299,2.104,0.008,0.493,-397.461,-146.973,297.852,51.482,46.741,20.737
 14:40:42.030,eb:33:2e:f9:57:b5, 2085-97-110 16:56:01:2052,1.964,0.138,0.791,-430.969,-190.125,257.874,47.714,43.484,21.335
 14:40:42.030,eb:33:2e:f9:57:b5, 2085-97-67 14:255:01:2903,1.843,0.182,1.199,-460.51,-217.468,206.482,43.308,40.38,21.407
 14:40:42.030,eb:33:2e:f9:57:b5, 2085-97-199 13:79:02:3710,1.583,0.214,1.646,-484.192,-226.013,150.879,38.37,37.513,21.154
 14:40:42.030,eb:33:2e:f9:57:b5, 2085-97-104 11:02:02:4465,1.334,0.279,2.021,-498.779,-229.37,102.173,33.168,34.937,20.654
 14:40:42.271,eb:33:2e:f9:57:b5, 2085-97-227 09:150:01:4946,1.13,0.212,2.33,-508.057,-223.022,64.087,27.746,32.547,20.05
 14:40:42.271,eb:33:2e:f9:57:b5, 2085-97-89 08:236:01:5134,0.932,0.204,2.473,-507.08,-226.135,44.373,22.357,30.311,19.435
 14:40:42.271,eb:33:2e:f9:57:b5, 2085-97-115 06:183:02:5110,0.691,0.297,2.496,-496.46,-246.338,39.795,17.034,27.911,18.907
 14:40:42.271,eb:33:2e:f9:57:b5, 2085-113-58 00:26:215:5220,0.613,0.371,2.533,-477.966,-277.466,54.321,12.041,25.252,18.605
 14:40:42.271,eb:33:2e:f9:57:b5, 2085-97-112 04:47:04:5689,0.44,0.426,2.629,-464.478,-290.1,71.228,9.701,23.791,18.638
 14:40:42.271,eb:33:2e:f9:57:b5, 2085-97-131 01:86:06:5625,0.145,0.672,2.867,-429.443,-307.922,125.183,5.405,20.638,19.215
 14:40:42.271,eb:33:2e:f9:57:b5, 2085-97-175 00:228:10:5773,0.048,0.942,2.801,-378.296,-326.416,195.679,1.857,17.325,20.654
 14:40:42.272,eb:33:2e:f9:57:b5, 2085-97-114 00:164:18:6168,-0.086,1.846,2.895,-320.068,-348.999,243.53,-1.066,13.865,22.928
 14:40:42.274,eb:33:2e:f9:57:b5, 2085-97-248 253:100:27:6382,-0.499,2.872,3.104,-246.887,-361.633,251.648,-3.329,10.371,25.571
 14:40:42.274,eb:33:2e:f9:57:b5, 2085-97-207 249:248:34:5755,-1.057,3.948,2.995,-159.851,-378.967,227.234,-4.982,6.784,28.224
 14:40:42.274,eb:33:2e:f9:57:b5, 2085-97-11 245:139:40:5461,-1.709,4.739,2.689,-73.303,-395.325,190.796,-5.9,3.071,30.602
 14:40:42.274,eb:33:2e:f9:57:b5, 2085-97-130 239:110:42:5385,-2.242,5.278,2.642,-11.108,-337.83,158.081,-6.257,-0.538,32.679
 14:40:42.274,eb:33:2e:f9:57:b5, 2085-97-253 236:57:40:4708,-2.255,5.102,2.572,8.24,-172.485,139.343,-6.29,-2.939,34.365
 14:40:42.275,eb:33:2e:f9:57:b5, 2085-97-62 39:110:68:9679,6.062,4.812,1.998,12.695,37.842,121.826,-6.301,-3.417,35.706
 14:40:42.275,eb:33:2e:f9:57:b5, 2085-97-249 08:195:244:1929,-1.042,-2.085,5.457,-31.006,92.407,46.326,4.268,-1.747,34.975
 14:40:42.275,eb:33:2e:f9:57:b5, 2085-97-228 02:42:01:2598,-0.271,1.39,-0.256,32.593,85.388,6.836,4.603,-0.269,35.629
 14:40:42.276,eb:33:2e:f9:57:b5, 2085-97-10 247:237:00:430,-0.441,0.022,0.838,21.484,62.561,17.151,4.85,0.385,35.684
 14:40:42.276,eb:33:2e:f9:57:b5, 2085-97-166 04:143:00:2945,0.146,0.263,0.672,18.311,-50.842,-0.977,5.021,0.209,35.848
 14:40:42.276,eb:33:2e:f9:57:b5, 2085-97-52 255:156:00:2024,0.066,0.034,1.118,21.24,-12.512,1.038,5.219,0.06,35.771
 14:40:42.276,eb:33:2e:f9:57:b5, 2085-97-33 00:210:01:2112,0.198,0.143,1.027,25.757,-42.419,-3.235,5.455,-0.335,35.739
 14:40:42.299,eb:33:2e:f9:57:b5, 2085-97-196 01:235:00:2417,0.278,0.157,1.114,17.761,-26.733,-20.447,5.68,-0.698,35.497
 14:40:42.299,eb:33:2e:f9:57:b5, 2085-97-23 252:157:250:4341,0.045,0.117,1.279,10.01,3.967,-20.325,5.812,-0.802,35.294
 14:40:42.299,eb:33:2e:f9:57:b5, 2085-97-134 03:86:00:2611,0.229,0.01,2.364,210.999,407.349,161.194,41.616,16.078,45.242
 14:40:42.299,eb:33:2e:f9:57:b5, 2085-97-244 00:176:04:-775,0.248,0.681,-0.047,196.716,332.397,136.353,44.874,17.765,49.125
 14:40:42.359,eb:33:2e:f9:57:b5, 2085-97-117 02:214:02:1194,0.204,0.518,-0.059,148.438,179.443,88.379,47.39,18.649,51.79
 14:40:42.359,eb:33:2e:f9:57:b5, 2085-97-111 01:55:00:3758,0.186,0.16,1.28,148.743,96.497,35.828,49.252,18.995,53.19
 14:40:42.359,eb:33:2e:f9:57:b5, 2085-97-148 01:10:255:4372,0.23,-0.07,2.087,178.467,111.389,-10.193,51.191,19.556,54.036
 14:40:42.359,eb:33:2e:f9:57:b5, 2085-97-83 02:30:255:4214,0.376,-0.143,2.084,197.937,134.399,-56.458,53.355,20.577,54.882
 14:40:42.389,eb:33:2e:f9:57:b5, 2085-97-206 03:95:00:4349,0.596,-0.053,2.077,198.12,142.151,-109.436,55.596,22.072,55.541
 14:40:42.389,eb:33:2e:f9:57:b5, 2085-97-195 05:94:02:4522,0.842,0.165,2.177,190.918,138.184,-176.758,57.678,24.038,55.986
 14:40:42.389,eb:33:2e:f9:57:b5, 2085-97-152 07:136:04:4485,1.07,0.442,2.194,184.753,113.159,-265.808,59.524,26.62,55.882
 14:40:42.389,eb:33:2e:f9:57:b5, 2085-97-83 09:14:04:5034,1.239,0.593,2.282,169.067,65.552,-365.173,60.826,29.822,54.965
 14:40:42.419,eb:33:2e:f9:57:b5, 2085-97-118 10:142:255:6159,1.37,0.275,2.715,135.803,54.626,-442.444,61.436,33.701,53.196
 14:40:42.419,eb:33:2e:f9:57:b5, 2085-97-169 11:169:252:6596,1.532,-0.268,3.148,96.13,112.183,-480.835,61.479,38.199,51.405
 14:40:42.419,eb:33:2e:f9:57:b5, 2085-97-180 11:163:250:6252,1.301,-0.545,3.224,65.186,179.932,-483.643,61.469,43.187,50.131
 14:40:42.419,eb:33:2e:f9:57:b5, 2085-97-127 09:81:248:5037,1.074,-0.821,2.73,32.288,192.993,-463.44,61.37,48.257,49.378
 14:40:42.480,eb:33:2e:f9:57:b5, 2085-97-152 07:133:246:4050,0.814,-1.081,2.218,-26.062,172.913,-404.846,60.831,52.949,48.598
 14:40:42.480,eb:33:2e:f9:57:b5, 2085-97-09 06:114:244:3314,0.648,-1.308,1.762,-110.718,181.091,-301.697,59.771,56.827,48.235
 14:40:42.480,eb:33:2e:f9:57:b5, 2085-97-27 05:67:243:2397,0.707,-1.524,1.362,-188.049,211.243,-165.161,59.15,59.804,49.285
 14:40:42.480,eb:33:2e:f9:57:b5, 2085-97-113 06:213:243:1793,0.975,-1.583,1.027,-240.356,216.919,-19.409,59.453,61.595,52.191
 14:40:42.569,eb:33:2e:f9:57:b5, 2085-97-14 09:63:245:912,1.304,-1.448,0.704,-261.78,166.931,115.662,60.546,62.067,56.283
 14:40:42.569,eb:33:2e:f9:57:b5, 2085-97-32 12:148:247:-241,1.732,-1.221,0.137,-271.057,79.712,240.051,61.315,60.98,60.238
 14:40:42.569,eb:33:2e:f9:57:b5, 2085-97-69 15:51:251:-903,2.099,-0.83,-0.292,-292.908,5.249,337.28,61.408,58.535,63.572
 14:40:42.569,eb:33:2e:f9:57:b5, 2085-97-211 17:81:254:-462,2.324,-0.389,-0.4,-328.613,-57.8,382.751,60.441,55.14,66.193
 14:40:42.600,eb:33:2e:f9:57:b5, 2085-97-24 19:198:00:470,2.395,-0.039,-0.001,-363.708,-112.915,374.695,58.453,51.389,68.027
 14:40:42.600,eb:33:2e:f9:57:b5, 2085-97-184 18:157:02:978,2.261,0.239,0.374,-392.944,-155.884,330.139,55.404,47.659,69.071
 14:40:42.600,eb:33:2e:f9:57:b5, 2085-97-98 17:100:02:1793,2.074,0.321,0.657,-423.34,-188.965,271.912,51.63,44.203,69.478
 14:40:42.600,eb:33:2e:f9:57:b5, 2085-97-187 15:127:02:2534,1.852,0.305,1.07,-453.857,-192.993,209.351,47.175,41.122,69.478
 14:40:42.603,eb:33:2e:f9:57:b5, 2085-97-230 13:86:02:3138,1.613,0.309,1.396,-474.06,-193.298,147.644,42.385,38.524,69.236
 14:40:42.603,eb:33:2e:f9:57:b5, 2085-97-187 11:180:01:3561,1.291,0.271,1.646,-484.314,-196.594,91.064,37.211,36.26,68.703
 14:40:42.603,eb:33:2e:f9:57:b5, 2085-97-162 09:111:00:4012,1.106,0.125,1.867,-492.676,-204.041,46.265,31.888,34.244,67.906
 14:40:42.603,eb:33:2e:f9:57:b5, 2085-97-12 08:13:00:4091,0.913,0.011,1.972,-500.732,-211.731,26.123,26.356,32.25,66.989
 14:40:42.899,eb:33:2e:f9:57:b5, 2085-97-81 06:27:00:4318,0.663,0.005,2.033,-506.531,-238.098,22.522,20.874,30.108,66.11
 14:40:42.899,eb:33:2e:f9:57:b5, 2085-97-230 03:104:00:4751,0.296,0.035,2.232,-503.479,-276.917,41.931,15.447,27.521,65.468
 14:40:42.899,eb:33:2e:f9:57:b5, 2085-97-48 01:240:00:5266,-0.003,0.063,2.413,-488.647,-318.237,92.285,10.453,24.45,65.369
 14:40:42.899,eb:33:2e:f9:57:b5, 2085-97-121 255:196:03:6184,-0.008,0.247,2.758,-463.806,-337.646,174.927,5.96,20.934,66.259
 14:40:42.903,eb:33:2e:f9:57:b5, 2085-97-200 00:245:09:7190,0.198,0.789,3.317,-414.795,-317.383,264.343,2.241,17.468,68.297
 14:40:42.903,eb:33:2e:f9:57:b5, 2085-97-107 02:82:19:7382,0.393,1.815,3.58,-340.393,-279.602,333.13,-0.747,14.403,71.384
 14:40:42.903,eb:33:2e:f9:57:b5, 2085-97-81 03:105:29:6968,0.33,3.037,3.578,-247.253,-242.31,360.718,-2.829,11.882,75.004
 14:40:42.903,eb:33:2e:f9:57:b5, 2085-97-155 01:96:38:5550,0.087,4.292,3.087,-161.987,-218.628,351.257,-4.18,9.772,78.766
 14:40:42.903,eb:33:2e:f9:57:b5, 2085-97-138 255:65:45:4081,-0.251,5.225,2.396,-95.215,-230.835,310.974,-4.894,7.778,82.227
 14:40:42.903,eb:33:2e:f9:57:b5, 2085-97-69 251:59:51:2886,-0.812,6.08,1.602,-33.63,-284.058,243.042,-5.235,5.411,85.199
 14:40:42.903,eb:33:2e:f9:57:b5, 2085-97-218 245:63:50:3313,-1.414,6.371,1.607,34.851,-328.613,155.823,-5.043,2.411,87.325
 14:40:42.903,eb:33:2e:f9:57:b5, 2085-97-187 242:83:43:4411,-1.755,5.838,1.917,76.05,-274.414,63.965,-4.46,-0.654,88.555
 14:40:42.907,eb:33:2e:f9:57:b5, 2085-97-13 241:20:38:3678,-1.801,4.983,2.179,87.83,-69.641,2.441,-3.631,-2.313,88.896
 14:40:42.907,eb:33:2e:f9:57:b5, 2085-97-67 243:125:33:1571,-1.454,4.479,1.182,100.098,92.102,-83.069,-2.708,-2.06,88.418
 14:40:42.907,eb:33:2e:f9:57:b5, 2085-97-05 237:185:46:15519,-5.145,3.775,0.416,242.798,63.171,-199.402,-1.39,-0.884,86.995
 14:40:42.907,eb:33:2e:f9:57:b5, 2085-97-149 24:144:26:6488,7.826,-0.985,-5.882,258.484,-256.531,211.914,3.186,-1.769,86.314
 14:40:43.050,eb:33:2e:f9:57:b5, 2085-97-110 13:22:238:2777,-0.375,-2.692,6.585,-44.434,33.081,67.749,3.444,-5.521,86.226
 14:40:43.050,eb:33:2e:f9:57:b5, 2085-97-154 03:167:00:2588,-0.183,1.164,0.297,37.048,83.618,10.254,3.669,-4.197,86.918
 14:40:43.050,eb:33:2e:f9:57:b5, 2085-113-81 00:165:92:1699,-1.004,0.051,0.999,32.776,52.185,12.512,4.005,-3.571,86.94
 14:40:43.050,eb:33:2e:f9:57:b5, 2085-97-59 252:107:02:1296,0.059,0.256,0.266,18.188,-0.305,23.56,4.092,-3.472,87.072
 14:40:43.050,eb:33:2e:f9:57:b5, 2085-97-82 254:140:00:1659,0.198,0.103,1.04,20.081,-20.813,-6.226,4.274,-3.669,87.017
 14:40:43.050,eb:33:2e:f9:57:b5, 2085-97-141 03:21:01:2975,0.169,0.015,1.254,16.907,-52.673,5.676,4.438,-4.164,86.984
 14:40:43.050,eb:33:2e:f9:57:b5, 2085-97-124 01:68:251:4259,0.212,-0.537,2.128,170.837,100.037,21.851,9.053,0.269,88.407
 14:40:43.051,eb:33:2e:f9:57:b5, 2085-97-249 01:211:251:4010,0.378,-0.526,2,214.722,108.093,21.912,10.975,1.241,88.83
 14:40:43.051,eb:33:2e:f9:57:b5, 2085-97-183 03:70:252:3529,0.566,-0.499,1.829,260.071,106.873,3.845,13.387,2.269,89.138
 14:40:43.053,eb:33:2e:f9:57:b5, 2085-97-10 05:36:252:3000,0.607,-0.532,1.646,305.42,114.441,-17.151,16.221,3.323,89.352
 14:40:43.053,eb:33:2e:f9:57:b5, 2085-97-169 03:10:253:2203,0.055,-0.438,1.256,339.783,136.719,-26.794,19.479,4.598,89.539
 14:40:43.053,eb:33:2e:f9:57:b5, 2085-97-73 253:184:254:2989,-0.677,-0.09,1.139,362.915,156.738,-40.222,23.011,6.075,89.813
 14:40:43.053,eb:33:2e:f9:57:b5, 2085-97-146 248:52:00:3661,-1.078,-0.088,1.55,375.977,159.973,-41.199,26.757,7.751,90.154
 14:40:43.055,eb:33:2e:f9:57:b5, 2085-97-237 248:01:03:4357,-0.823,0.186,2.003,386.841,103.577,-49.744,30.575,9.091,90.374
 14:40:43.055,eb:33:2e:f9:57:b5, 2085-97-21 252:07:07:4881,-0.422,0.859,2.12,390.137,59.57,-48.767,34.486,9.981,90.412
 14:40:43.055,eb:33:2e:f9:57:b5, 2085-97-107 253:115:16:4153,-0.146,1.55,2.254,370.605,45.959,-68.848,38.287,10.723,90.352
 14:40:43.055,eb:33:2e:f9:57:b5, 2085-97-79 250:91:02:4708,-0.444,0.458,2.28,303.04,84.717,-84.229,41.561,11.717,89.962
 14:40:43.109,eb:33:2e:f9:57:b5, 2085-97-161 255:255:252:4736,-0.294,-0.068,2.441,278.381,223.45,-46.753,44.478,13.282,90.599
 14:40:43.109,eb:33:2e:f9:57:b5, 2085-97-33 253:63:00:577,-0.482,0.056,0.723,275.757,247.742,-30.701,47.78,15.304,92.28
 14:40:43.109,eb:33:2e:f9:57:b5, 2085-97-244 253:196:255:2484,-0.182,-0.022,0.643,204.956,191.772,-12.573,50.543,16.853,93.911
 14:40:43.109,eb:33:2e:f9:57:b5, 2085-97-48 255:08:253:4846,0.023,-0.181,1.848,170.349,157.532,-1.831,52.751,17.924,95.251
 14:40:43.111,eb:33:2e:f9:57:b5, 2085-97-01 01:20:253:5337,0.224,-0.423,2.567,183.167,191.711,5.554,54.943,18.913,96.773
 14:40:43.111,eb:33:2e:f9:57:b5, 2085-97-251 02:154:255:5348,0.507,-0.21,2.589,208.008,209.839,-2.808,57.513,20.001,98.597
 14:40:43.111,eb:33:2e:f9:57:b5, 2085-97-220 04:156:01:5343,0.735,0.093,2.637,225.708,222.839,-28.564,60.326,21.226,100.514
 14:40:43.111,eb:33:2e:f9:57:b5, 2085-97-39 07:249:02:5327,1.065,0.296,2.577,240.967,205.078,-77.454,63.342,22.703,102.327
 14:40:43.113,eb:33:2e:f9:57:b5, 2085-97-166 09:73:03:5971,1.296,0.414,2.734,246.216,156.25,-148.499,66.237,24.489,103.574
 14:40:43.113,eb:33:2e:f9:57:b5, 2085-97-76 11:79:01:6608,1.521,0.352,3.096,231.079,122.131,-226.501,68.895,26.768,104.178
 14:40:43.113,eb:33:2e:f9:57:b5, 2085-97-236 12:33:254:6225,1.649,-0.052,3.189,189.453,136.902,-296.143,71.093,29.707,104.524
 14:40:43.113,eb:33:2e:f9:57:b5, 2085-97-87 13:188:252:5425,1.673,-0.33,2.833,137.085,158.813,-338.562,73.01,33.217,105.106
 14:40:43.289,eb:33:2e:f9:57:b5, 2085-97-39 13:248:250:4759,1.546,-0.519,2.501,80.75,150.696,-366.333,74.383,37.046,105.76
 14:40:43.289,eb:33:2e:f9:57:b5, 2085-97-96 11:16:249:4206,1.313,-0.739,2.146,19.043,121.277,-368.469,75.168,40.968,106.26
 14:40:43.289,eb:33:2e:f9:57:b5, 2085-97-85 09:95:246:3910,1.007,-1.015,1.999,-48.218,98.999,-337.769,75.059,44.654,106.452
 14:40:43.289,eb:33:2e:f9:57:b5, 2085-97-54 07:247:243:3356,0.841,-1.366,1.809,-115.479,102.966,-266.846,74.41,47.818,106.743
 14:40:43.294,eb:33:2e:f9:57:b5, 2085-97-145 06:208:242:2239,0.851,-1.581,1.392,-179.382,132.263,-166.87,73.466,50.18,107.567
 14:40:43.294,eb:33:2e:f9:57:b5, 2085-97-124 07:186:242:1009,0.915,-1.685,0.769,-235.352,159.546,-50.964,72.751,51.592,109.369
 14:40:43.294,eb:33:2e:f9:57:b5, 2085-97-239 07:222:243:-479,1.147,-1.586,0.099,-273.987,137.085,64.758,71.993,51.905,111.78
 14:40:43.294,eb:33:2e:f9:57:b5, 2085-97-155 10:53:246:-1204,1.432,-1.39,-0.45,-297.18,40.588,170.837,70.626,50.999,113.654
 14:40:43.294,eb:33:2e:f9:57:b5, 2085-97-58 12:249:248:-1061,1.627,-1.038,-0.629,-330.688,-44.434,254.089,68.17,48.895,114.626
 14:40:43.294,eb:33:2e:f9:57:b5, 2085-97-156 13:143:251:030,1.77,-0.714,-0.285,-376.465,-100.342,299.072,65.028,45.994,115.186
 14:40:43.295,eb:33:2e:f9:57:b5, 2085-97-159 14:254:253:1167,1.864,-0.397,0.321,-420.044,-137.817,306.091,61.166,42.704,115.483
 14:40:43.295,eb:33:2e:f9:57:b5, 2085-97-225 14:165:255:1930,1.852,-0.136,0.776,-457.825,-160.034,284.058,56.92,39.386,115.735
 14:40:43.295,eb:33:2e:f9:57:b5, 2085-97-157 14:191:00:2609,1.791,0.025,1.11,-490.356,-178.772,239.136,52.136,36.26,115.79
 14:40:43.295,eb:33:2e:f9:57:b5, 2085-97-235 13:253:01:3084,1.637,0.143,1.413,-518.433,-186.34,182.129,47.016,33.481,115.692
 14:40:43.295,eb:33:2e:f9:57:b5, 2085-97-236 11:156:02:3690,1.368,0.324,1.622,-540.588,-202.82,122.192,41.418,31.036,115.28
 14:40:43.295,eb:33:2e:f9:57:b5, 2085-97-255 09:30:02:4368,1.099,0.295,1.961,-555.786,-223.022,65.552,35.535,28.806,114.505
 14:40:43.381,eb:33:2e:f9:57:b5, 2085-97-114 07:08:02:4863,0.732,0.249,2.275,-563.049,-231.812,33.508,29.399,26.62,113.505
 14:40:43.381,eb:33:2e:f9:57:b5, 2085-97-82 04:124:02:5017,0.364,0.269,2.417,-566.101,-240.173,22.278,23.351,24.401,112.571
 14:40:43.381,eb:33:2e:f9:57:b5, 2085-97-127 01:168:03:5059,0.02,0.374,2.469,-563.049,-247.986,35.034,17.353,22,111.879
 14:40:43.381,eb:33:2e:f9:57:b5, 2085-97-210 254:04:06:4989,-0.294,0.575,2.458,-544.006,-259.583,68.298,11.744,19.418,111.703
 14:40:43.711,eb:33:2e:f9:57:b5, 2085-97-180 252:79:10:5210,-0.498,0.991,2.45,-508.057,-279.602,119.446,6.564,16.573,112.203
 14:40:43.711,eb:33:2e:f9:57:b5, 2085-97-131 251:114:16:6142,-0.607,1.643,2.729,-455.505,-303.162,177.612,2.087,13.53,113.505
 14:40:43.711,eb:33:2e:f9:57:b5, 2085-97-221 250:188:23:7362,-0.659,2.505,3.312,-375.977,-314.148,224.731,-1.703,10.371,115.56
 14:40:43.711,eb:33:2e:f9:57:b5, 2085-97-107 250:175:31:7513,-0.744,3.458,3.738,-276.855,-280.945,251.526,-4.532,7.476,118.13
 14:40:43.711,eb:33:2e:f9:57:b5, 2085-97-101 249:19:39:6203,-0.958,4.432,3.417,-189.148,-224.304,258.484,-6.564,5.202,120.932
 14:40:43.711,eb:33:2e:f9:57:b5, 2085-97-53 247:202:45:4570,-1.311,5.325,2.628,-121.521,-198.242,236.694,-7.877,3.444,123.651
 14:40:43.711,eb:33:2e:f9:57:b5, 2085-97-27 244:18:49:4122,-1.606,6.042,1.986,-68.604,-216.187,178.955,-8.745,1.675,126.013
 14:40:43.712,eb:33:2e:f9:57:b5, 2085-97-97 242:61:48:4051,-1.661,6.211,1.99,-13,-201.965,97.107,-9.113,-0.253,127.639
 14:40:43.712,eb:33:2e:f9:57:b5, 2085-97-87 243:11:43:3932,-1.438,5.734,2.013,46.204,-98.694,19.653,-8.954,-1.664,128.397
 14:40:43.712,eb:33:2e:f9:57:b5, 2085-97-141 245:204:37:2207,-1.123,5.093,1.644,84.961,31.372,-58.838,-8.245,-1.923,128.221
 14:40:43.712,eb:33:2e:f9:57:b5, 2085-97-133 248:47:30:714,-0.784,4.263,0.641,107.971,66.589,-128.052,-7.256,-1.511,127.139
 14:40:43.712,eb:33:2e:f9:57:b5, 2085-97-232 241:175:04:14096,-2.419,3.168,0.203,149.597,53.04,-171.448,-5.933,-1.055,125.557
 14:40:43.714,eb:33:2e:f9:57:b5, 2085-97-230 229:111:42:-6431,6.263,5.108,1.754,431.58,-132.263,-45.471,-1.472,-1.697,124.113
 14:40:43.715,eb:33:2e:f9:57:b5, 2085-97-163 31:174:236:9232,0.412,2.857,6.909,-54.871,-143.616,-43.274,-0.192,-4.801,123.338
 14:40:43.715,eb:33:2e:f9:57:b5, 2085-97-203 251:191:06:800,0.044,-0.848,1.374,48.767,171.082,60.547,-0.176,-3.752,123.777
 14:40:43.715,eb:33:2e:f9:57:b5, 2085-97-56 249:241:00:808,-1.094,0.05,0.946,29.663,56.824,5.981,0.148,-2.873,123.953
 14:40:43.717,eb:33:2e:f9:57:b5, 2085-97-05 02:110:01:2259,0.325,0.222,0.173,22.705,-64.209,6.287,0.368,-2.878,124.096
 14:40:43.717,eb:33:2e:f9:57:b5, 2085-97-196 255:67:00:2003,0.144,0.066,1.206,21.667,-37.048,-8.179,0.61,-3.406,124.019
 14:40:43.717,eb:33:2e:f9:57:b5, 2085-97-175 01:31:01:2376,0.195,0.011,1.127,21.667,-44.067,-2.319,0.807,-3.873,123.97
 14:40:43.717,eb:33:2e:f9:57:b5, 2085-97-129 255:89:00:1938,0.044,0.089,1.152,22.278,-30.029,-8.972,1.044,-4.224,123.871
 14:40:43.770,eb:33:2e:f9:57:b5, 2085-97-45 01:150:00:2403,0.372,0.052,1.07,16.968,-32.288,-2.625,1.236,-4.554,123.805
 14:40:43.770,eb:33:2e:f9:57:b5, 2085-113-81 00:13:52:1957,0.477,-0.32,2.532,205.322,146.179,8.301,48.301,14.442,133.094
 14:40:43.770,eb:33:2e:f9:57:b5, 2085-97-118 04:238:255:5081,0.711,-0.186,2.549,217.773,158.142,-8.484,49.521,14.947,133.698
 14:40:43.770,eb:33:2e:f9:57:b5, 2085-97-73 06:77:02:4913,0.893,0.15,2.483,228.455,169.25,-62.195,52.037,16.26,134.813
 14:40:43.890,eb:33:2e:f9:57:b5, 2085-97-230 07:104:04:4726,1.079,0.421,2.339,231.934,150.513,-143.555,54.553,18.056,135.588
 14:40:43.890,eb:33:2e:f9:57:b5, 2085-97-27 09:66:05:4900,1.154,0.662,2.314,230.347,101.807,-250.488,56.81,20.424,135.522
 14:40:43.890,eb:33:2e:f9:57:b5, 2085-97-31 09:238:01:5480,1.124,0.507,2.532,213.501,65.674,-354.858,58.656,23.478,134.539
 14:40:43.890,eb:33:2e:f9:57:b5, 2085-97-221 08:71:253:5677,1.102,-0.053,2.761,181.824,85.754,-421.997,59.952,27.257,133.055
 14:40:43.890,eb:33:2e:f9:57:b5, 2085-97-134 08:226:250:5388,1.029,-0.519,2.726,143.982,133.728,-448.181,60.93,31.663,131.814
 14:40:43.890,eb:33:2e:f9:57:b5, 2085-97-13 08:87:249:4851,0.956,-0.73,2.514,109.741,148.499,-445.923,61.573,36.282,130.803
 14:40:43.890,eb:33:2e:f9:57:b5, 2085-97-248 06:234:247:3986,0.744,-0.926,2.163,71.289,149.902,-420.532,61.935,40.831,129.946
 14:40:43.890,eb:33:2e:f9:57:b5, 2085-97-201 04:31:246:3360,0.436,-1.113,1.775,23.01,134.827,-367.676,61.826,44.967,129.183
 14:40:43.894,eb:33:2e:f9:57:b5, 2085-97-84 02:196:243:2978,0.227,-1.387,1.522,-32.654,120.483,-282.349,61.337,48.417,128.611
 14:40:43.894,eb:33:2e:f9:57:b5, 2085-97-198 01:221:241:2557,0.285,-1.666,1.384,-90.576,143.494,-166.443,60.732,50.955,128.721
 14:40:43.894,eb:33:2e:f9:57:b5, 2085-97-91 03:128:241:1530,0.661,-1.819,1.021,-148.865,203.369,-31.921,60.897,52.625,130.446
 14:40:43.894,eb:33:2e:f9:57:b5, 2085-97-161 06:183:243:529,0.973,-1.716,0.542,-196.35,226.929,94.055,61.88,53.3,133.951
 14:40:43.979,eb:33:2e:f9:57:b5, 2085-97-160 09:198:247:-832,1.454,-1.295,-0.108,-231.628,159.79,190.063,62.957,52.877,137.955
 14:40:43.987,eb:33:2e:f9:57:b5, 2085-97-154 13:129:252:-1758,1.848,-0.712,-0.682,-276.855,67.383,264.16,62.875,51.257,141.141
 14:40:43.987,eb:33:2e:f9:57:b5, 2085-97-159 15:113:255:-1605,2.028,-0.227,-0.925,-331.543,-3.296,297.241,61.655,48.823,143.558
 14:40:43.987,eb:33:2e:f9:57:b5, 2085-97-120 16:120:01:-300,2.056,0.053,-0.452,-367.859,-72.937,283.508,59.167,46.055,145.052
 14:40:43.987,eb:33:2e:f9:57:b5, 2085-97-00 16:106:02:435,1.934,0.275,0.066,-384.705,-122.62,246.521,55.904,43.27,145.783
 14:40:43.988,eb:33:2e:f9:57:b5, 2085-97-178 14:109:02:1071,1.735,0.295,0.378,-398.071,-151.184,202.942,52.042,40.633,145.931
 14:40:43.988,eb:33:2e:f9:57:b5, 2085-97-251 12:88:02:1570,1.515,0.312,0.643,-417.114,-162.292,158.875,47.884,38.243,145.86
 14:40:43.988,eb:33:2e:f9:57:b5, 2085-97-125 11:168:01:2043,1.367,0.249,0.903,-439.148,-164.551,118.469,43.347,36.118,145.514
 14:40:44.010,eb:33:2e:f9:57:b5, 2085-97-26 10:235:00:2348,1.172,0.167,1.081,-457.336,-168.274,81.97,38.584,34.222,145.107
 14:40:44.010,eb:33:2e:f9:57:b5, 2085-97-89 08:240:255:2689,0.917,0.06,1.217,-470.703,-182.312,52.307,33.519,32.421,144.432
 14:40:44.010,eb:33:2e:f9:57:b5, 2085-97-75 06:222:254:3128,0.674,-0.066,1.418,-479.492,-201.721,39.917,28.372,30.547,143.734
 14:40:44.010,eb:33:2e:f9:57:b5, 2085-97-222 04:08:254:3629,0.524,-0.212,1.639,-484.375,-219.666,46.204,23.17,28.449,143.058
 14:40:44.041,eb:33:2e:f9:57:b5, 2085-97-120 03:83:254:4095,0.346,-0.244,1.889,-485.962,-231.689,68.359,18.16,26.131,142.784
 14:40:44.041,eb:33:2e:f9:57:b5, 2085-97-94 02:204:255:4530,0.254,-0.141,2.103,-481.689,-239.99,102.173,13.332,23.599,142.932
 14:40:44.041,eb:33:2e:f9:57:b5, 2085-97-196 01:247:02:4669,0.179,0.133,2.279,-471.985,-241.394,142.944,8.855,20.995,143.767
 14:40:44.041,eb:33:2e:f9:57:b5, 2085-97-55 01:81:08:4740,0.179,0.676,2.258,-456.787,-255.92,186.89,4.625,18.303,145.168
 14:40:44.190,eb:33:2e:f9:57:b5, 2085-97-59 02:14:15:5866,0.373,1.446,2.519,-420.715,-277.893,230.164,0.807,15.502,147.255
 14:40:44.190,eb:33:2e:f9:57:b5, 2085-97-33 03:64:24:6977,0.354,2.402,3.233,-333.252,-273.132,259.399,-2.401,12.711,149.81
 14:40:44.190,eb:33:2e:f9:57:b5, 2085-113-81 00:184:29:-3055,0.281,3.664,3.284,-215.454,-255.371,265.076,-4.532,10.223,152.677
 14:40:44.190,eb:33:2e:f9:57:b5, 2085-97-45 01:90:38:5026,0.012,4.268,2.913,-167.114,-257.69,260.925,-5.273,9.031,154.1
 14:40:44.190,eb:33:2e:f9:57:b5, 2085-97-255 254:117:44:3576,-0.268,5.244,2.061,-102.234,-307.434,234.924,-6.191,6.46,156.89
 14:40:44.192,eb:33:2e:f9:57:b5, 2085-97-245 252:163:48:3605,-0.592,5.861,1.625,-53.711,-400.818,188.66,-6.779,3.115,159.368
 14:40:44.192,eb:33:2e:f9:57:b5, 2085-97-38 249:154:49:4258,-1.166,6.232,1.932,8.972,-455.017,127.258,-6.949,-1.049,161.45
 14:40:44.192,eb:33:2e:f9:57:b5, 2085-97-63 244:138:44:4347,-1.771,5.988,2.089,69.58,-421.936,59.326,-6.608,-5.394,162.806
 14:40:44.192,eb:33:2e:f9:57:b5, 2085-97-73 240:87:37:4306,-2.021,5.151,2.12,98.572,-271.362,17.761,-5.812,-8.811,163.537
 14:40:44.197,eb:33:2e:f9:57:b5, 2085-97-35 240:90:30:3520,-1.792,4.194,2.036,108.459,-77.698,-18.311,-4.796,-10.464,163.641
 14:40:44.197,eb:33:2e:f9:57:b5, 2085-97-178 243:96:24:1336,-0.11,3.498,1.256,121.887,66.589,-55.359,-3.576,-10.371,163.306
 14:40:44.197,eb:33:2e:f9:57:b5, 2085-97-38 241:18:18:14915,-3.491,8.402,3.751,142.883,-3.784,-228.455,-1.923,-9.893,161.955
 14:40:44.197,eb:33:2e:f9:57:b5, 2085-97-21 20:234:50:7945,1.483,2.023,-0.389,-61.34,205.811,121.582,-1.011,-9.717,161.323
 14:40:44.250,eb:33:2e:f9:57:b5, 2085-97-163 12:48:248:4679,0.644,-0.104,2.598,-62.683,289.551,69.641,-2.538,-7.02,162.026
 14:40:44.250,eb:33:2e:f9:57:b5, 2085-97-96 254:210:254:1506,-0.422,-0.144,1.435,12.268,233.459,47.913,-2.598,-4.153,162.532
 14:40:44.250,eb:33:2e:f9:57:b5, 2085-97-69 250:237:00:1155,-0.43,0.054,0.795,29.968,70.007,13.245,-2.373,-2.823,162.746
 14:40:44.250,eb:33:2e:f9:57:b5, 2085-97-234 254:156:00:1806,0.077,0.078,0.67,23.743,-13.062,-2.563,-2.115,-2.653,162.823
 14:40:44.250,eb:33:2e:f9:57:b5, 2085-97-33 01:75:00:2370,0.171,0.069,1.097,22.339,-23.01,-7.507,-1.873,-2.867,162.751
 14:40:44.250,eb:33:2e:f9:57:b5, 2085-97-207 01:181:00:2445,0.136,0.073,1.157,22.217,-13.794,-13.672,-1.648,-3.065,162.697
 14:40:44.250,eb:33:2e:f9:57:b5, 2085-97-111 00:41:00:2100,0.119,0.036,1.11,18.616,1.648,-13.855,-1.434,-3.104,162.537
 14:40:44.250,eb:33:2e:f9:57:b5, 2085-97-193 00:107:00:2227,0.108,0.053,1.093,17.334,8.423,-10.864,-1.247,-3.065,162.46
 14:40:44.280,eb:33:2e:f9:57:b5, 2085-97-232 00:56:253:3723,0.083,-0.034,1.311,22.522,13.184,-8.972,-1.055,-2.955,162.339
 14:40:44.280,eb:33:2e:f9:57:b5, 2085-97-43 00:24:255:2736,-0.104,-0.171,1.435,38.574,47.974,18.188,-0.714,-2.609,162.444
 14:40:44.280,eb:33:2e:f9:57:b5, 2085-97-146 254:30:00:2286,0.124,-0.278,1.524,38.757,59.204,44.189,-0.335,-2.071,162.751
 14:40:44.280,eb:33:2e:f9:57:b5, 2085-97-172 00:99:254:4080,0.246,0.063,1.205,50.415,13.916,25.635,0.077,-1.714,163.152
 14:40:44.339,eb:33:2e:f9:57:b5, 2085-97-255 02:122:254:4221,0.373,-0.198,1.988,69.885,32.776,22.4,0.676,-1.478,163.372
