Time,Device name,Chip Time(),Acceleration X(g),Acceleration Y(g),Acceleration Z(g),Angular velocity X(°/s),Angular velocity Y(°/s),Angular velocity Z(°/s),Angle X(°),Angle Y(°),Angle Z(°)
 14:37:57.711,eb:33:2e:f9:57:b5, 2085-97-250 255:31:00:2047,-0.003,0.014,1,0.977,0.977,-0.61,-0.022,0.439,-100.822
 14:37:57.711,eb:33:2e:f9:57:b5, 2085-97-248 255:31:00:2045,-0.004,0.015,1,1.038,1.16,-0.732,-0.011,0.45,-100.827
 14:37:57.711,eb:33:2e:f9:57:b5, 2085-97-246 255:31:00:2046,-0.006,0.015,1,1.099,1.221,-0.793,0,0.461,-100.838
 14:37:57.711,eb:33:2e:f9:57:b5, 2085-97-247 255:31:00:2048,-0.004,0.014,1,1.099,1.221,-0.854,0.011,0.478,-100.844
 14:37:57.741,eb:33:2e:f9:57:b5, 2085-97-243 255:31:00:2045,-0.004,0.015,1,1.099,1.526,-0.977,0.022,0.489,-100.854
 14:37:57.741,eb:33:2e:f9:57:b5, 2085-97-251 255:33:00:2053,0,0.016,1.001,1.038,1.648,-1.099,0.033,0.505,-100.865
 14:37:57.741,eb:33:2e:f9:57:b5, 2085-97-255 255:36:00:2057,-0.001,0.018,1.005,0.977,2.258,-1.343,0.044,0.527,-100.876
 14:37:57.741,eb:33:2e:f9:57:b5, 2085-97-250 255:36:00:2053,-0.006,0.018,1.004,0.977,2.93,-1.648,0.055,0.555,-100.893
 14:37:57.773,eb:33:2e:f9:57:b5, 2085-97-239 255:37:00:2040,-0.01,0.017,1,0.916,2.991,-1.892,0.06,0.588,-100.909
 14:37:57.773,eb:33:2e:f9:57:b5, 2085-97-235 255:37:00:2038,-0.011,0.019,0.996,0.732,2.563,-2.258,0.071,0.615,-100.926
 14:37:57.773,eb:33:2e:f9:57:b5, 2085-97-231 255:31:00:2036,-0.01,0.016,0.995,0.671,1.892,-2.258,0.077,0.637,-100.953
 14:37:57.773,eb:33:2e:f9:57:b5, 2085-97-237 255:30:00:2044,-0.008,0.014,0.998,0.793,1.404,-1.892,0.088,0.654,-100.97
 14:37:57.832,eb:33:2e:f9:57:b5, 2085-97-244 255:26:00:2053,-0.005,0.014,1,0.977,1.099,-1.709,0.093,0.67,-100.992
 14:37:57.832,eb:33:2e:f9:57:b5, 2085-97-247 255:31:00:2056,-0.003,0.014,1.003,1.16,1.221,-1.404,0.104,0.681,-101.003
 14:37:57.832,eb:33:2e:f9:57:b5, 2085-97-249 255:27:00:2064,-0.004,0.015,1.005,1.404,1.526,-1.221,0.121,0.698,-101.019
 14:37:57.832,eb:33:2e:f9:57:b5, 2085-97-244 255:31:00:2055,-0.006,0.016,1.005,1.648,2.075,-1.16,0.137,0.714,-101.03
 14:37:57.863,eb:33:2e:f9:57:b5, 2085-97-243 255:36:00:2052,-0.007,0.017,1.002,1.77,2.38,-1.221,0.154,0.742,-101.041
 14:37:57.863,eb:33:2e:f9:57:b5, 2085-97-238 255:36:00:2043,-0.009,0.019,1,2.014,2.563,-1.221,0.17,0.764,-101.052
 14:37:57.863,eb:33:2e:f9:57:b5, 2085-97-242 255:37:00:2030,-0.013,0.017,0.996,2.625,1.709,-1.221,0.198,0.791,-101.063
 14:37:57.863,eb:33:2e:f9:57:b5, 2085-97-231 255:39:00:2028,-0.016,0.017,0.995,3.479,0,-0.977,0.225,0.797,-101.074
 14:37:57.891,eb:33:2e:f9:57:b5, 2085-97-228 255:43:00:2030,-0.014,0.02,0.992,3.723,-0.977,-0.793,0.264,0.791,-101.085
 14:37:57.891,eb:33:2e:f9:57:b5, 2085-97-224 255:42:00:2035,-0.019,0.021,0.992,3.723,-1.709,-0.671,0.302,0.78,-101.091
 14:37:57.891,eb:33:2e:f9:57:b5, 2085-113-81 00:81:81:317,-0.018,0.021,0.99,3.296,-1.953,-0.671,0.341,0.758,-101.096
 14:37:57.891,eb:33:2e:f9:57:b5, 2085-97-230 255:45:00:2030,-0.013,0.021,0.992,3.235,-2.136,-0.671,0.357,0.747,-101.102
 14:37:57.952,eb:33:2e:f9:57:b5, 2085-97-226 255:45:00:2039,-0.012,0.023,0.994,3.052,-2.38,-0.671,0.385,0.725,-101.107
 14:37:57.952,eb:33:2e:f9:57:b5, 2085-97-230 255:51:00:2028,-0.012,0.025,0.991,2.747,-2.075,-0.793,0.417,0.703,-101.118
 14:37:57.952,eb:33:2e:f9:57:b5, 2085-97-231 255:50:00:2025,-0.015,0.025,0.99,2.441,-2.075,-0.916,0.439,0.687,-101.124
 14:37:57.952,eb:33:2e:f9:57:b5, 2085-97-228 255:50:00:2022,-0.015,0.024,0.988,2.136,-2.38,-0.977,0.467,0.665,-101.135
 14:37:57.983,eb:33:2e:f9:57:b5, 2085-97-224 255:45:00:2029,-0.013,0.022,0.991,1.77,-2.625,-0.854,0.483,0.637,-101.146
 14:37:57.983,eb:33:2e:f9:57:b5, 2085-97-231 255:50:00:2033,-0.011,0.025,0.989,1.587,-2.93,-0.793,0.5,0.61,-101.157
 14:37:57.983,eb:33:2e:f9:57:b5, 2085-97-234 255:51:00:2034,-0.01,0.025,0.993,1.282,-2.869,-0.854,0.516,0.582,-101.162
 14:37:57.983,eb:33:2e:f9:57:b5, 2085-97-238 255:53:00:2034,-0.008,0.025,0.993,0.977,-2.808,-0.793,0.527,0.555,-101.173
 14:37:58.012,eb:33:2e:f9:57:b5, 2085-97-239 255:51:00:2038,-0.009,0.024,0.995,0.793,-2.441,-0.854,0.538,0.527,-101.179
 14:37:58.012,eb:33:2e:f9:57:b5, 2085-97-236 255:49:00:2036,-0.008,0.024,0.995,0.671,-2.38,-0.916,0.544,0.505,-101.19
 14:37:58.012,eb:33:2e:f9:57:b5, 2085-97-243 255:52:00:2039,-0.005,0.024,0.995,0.61,-2.441,-0.854,0.549,0.483,-101.201
 14:37:58.012,eb:33:2e:f9:57:b5, 2085-97-242 255:52:00:2036,-0.01,0.026,0.997,0.61,-2.197,-0.977,0.555,0.461,-101.206
 14:37:58.071,eb:33:2e:f9:57:b5, 2085-97-239 255:51:00:2038,-0.008,0.025,0.992,0.549,-2.502,-0.916,0.566,0.434,-101.217
 14:37:58.071,eb:33:2e:f9:57:b5, 2085-97-245 255:54:00:2038,-0.005,0.024,0.994,0.488,-2.625,-0.916,0.566,0.412,-101.228
 14:37:58.071,eb:33:2e:f9:57:b5, 2085-97-242 255:55:00:2031,-0.009,0.027,0.994,0.366,-2.319,-1.038,0.571,0.385,-101.239
 14:37:58.071,eb:33:2e:f9:57:b5, 2085-97-240 255:55:00:2039,-0.003,0.027,0.988,0.244,-2.502,-1.038,0.577,0.363,-101.25
 14:37:58.102,eb:33:2e:f9:57:b5, 2085-97-07 00:54:00:2069,0.001,0.028,1.001,-0.122,-2.197,-1.343,0.577,0.341,-101.261
 14:37:58.102,eb:33:2e:f9:57:b5, 2085-97-09 00:58:00:2068,0.003,0.028,1.009,-0.488,-1.404,-1.709,0.571,0.324,-101.277
 14:37:58.102,eb:33:2e:f9:57:b5, 2085-97-250 255:57:00:2040,-0.005,0.027,1.004,-0.732,-0.671,-1.892,0.566,0.313,-101.294
 14:37:58.102,eb:33:2e:f9:57:b5, 2085-97-246 255:53:00:2039,-0.002,0.026,0.996,-0.977,-0.916,-1.953,0.555,0.308,-101.316
 14:37:58.131,eb:33:2e:f9:57:b5, 2085-97-00 00:54:00:2045,0.001,0.026,0.998,-1.099,-1.221,-1.892,0.544,0.297,-101.338
 14:37:58.131,eb:33:2e:f9:57:b5, 2085-97-00 00:52:00:2048,0.001,0.026,1,-1.221,-0.977,-1.831,0.533,0.286,-101.354
 14:37:58.131,eb:33:2e:f9:57:b5, 2085-97-01 00:49:00:2047,0,0.024,1,-1.282,-0.793,-1.831,0.522,0.28,-101.376
 14:37:58.131,eb:33:2e:f9:57:b5, 2085-97-01 00:45:00:2048,0.001,0.023,0.998,-1.221,-0.671,-1.831,0.511,0.275,-101.393
 14:37:58.191,eb:33:2e:f9:57:b5, 2085-97-255 255:45:00:2048,0.002,0.021,1.001,-1.099,-0.549,-1.465,0.494,0.269,-101.409
 14:37:58.191,eb:33:2e:f9:57:b5, 2085-97-04 00:44:00:2051,0.002,0.022,1.001,-0.916,-0.488,-1.282,0.489,0.264,-101.42
 14:37:58.191,eb:33:2e:f9:57:b5, 2085-97-01 00:43:00:2050,0.001,0.021,1.001,-0.854,-0.305,-1.099,0.478,0.258,-101.437
 14:37:58.191,eb:33:2e:f9:57:b5, 2085-97-03 00:45:00:2052,0,0.021,1.001,-0.732,-0.183,-0.854,0.472,0.258,-101.442
 14:37:58.221,eb:33:2e:f9:57:b5, 2085-97-00 00:44:00:2047,0,0.021,1.001,-0.671,-0.183,-0.671,0.467,0.258,-101.448
 14:37:58.221,eb:33:2e:f9:57:b5, 2085-97-00 00:41:00:2047,-0.001,0.021,1,-0.61,-0.427,-0.488,0.494,0.258,-101.448
 14:37:58.221,eb:33:2e:f9:57:b5, 2085-97-254 255:43:00:2045,0.002,0.021,0.998,-0.61,-0.732,-0.122,0.494,0.258,-101.448
 14:37:58.221,eb:33:2e:f9:57:b5, 2085-97-07 00:43:00:2053,0.002,0.021,1.001,-0.549,-0.549,-0.061,0.505,0.258,-101.448
 14:37:58.252,eb:33:2e:f9:57:b5, 2085-97-04 00:46:00:2050,0,0.021,1.001,-0.549,-0.244,0.122,0.505,0.258,-101.448
 14:37:58.252,eb:33:2e:f9:57:b5, 2085-97-255 255:45:00:2045,0,0.022,0.998,-0.427,-0.061,0.122,0.511,0.258,-101.448
 14:37:58.252,eb:33:2e:f9:57:b5, 2085-97-00 00:47:00:2046,-0.001,0.022,1,-0.427,-0.122,0.061,0.511,0.258,-101.448
 14:37:58.252,eb:33:2e:f9:57:b5, 2085-97-253 255:45:00:2043,-0.002,0.022,0.998,-0.305,-0.183,0,0.516,0.258,-101.448
 14:37:58.312,eb:33:2e:f9:57:b5, 2085-97-255 255:45:00:2044,0,0.021,0.998,-0.244,-0.549,0.061,0.516,0.258,-101.448
 14:37:58.312,eb:33:2e:f9:57:b5, 2085-97-255 255:45:00:2044,-0.002,0.021,1,-0.183,-0.61,0.061,0.522,0.258,-101.448
 14:37:58.312,eb:33:2e:f9:57:b5, 2085-97-252 255:46:00:2042,-0.001,0.022,0.997,-0.122,-0.793,0,0.522,0.258,-101.448
 14:37:58.313,eb:33:2e:f9:57:b5, 2085-97-254 255:46:00:2042,-0.001,0.022,0.997,-0.183,-1.16,0,0.527,0.258,-101.448
 14:37:58.341,eb:33:2e:f9:57:b5, 2085-97-251 255:47:00:2040,-0.002,0.023,0.997,-0.061,-1.282,0,0.527,0.258,-101.448
 14:37:58.341,eb:33:2e:f9:57:b5, 2085-97-250 255:47:00:2038,-0.002,0.023,0.996,-0.061,-1.587,-0.061,0.527,0.258,-101.448
 14:37:58.341,eb:33:2e:f9:57:b5, 2085-97-253 255:45:00:2038,-0.001,0.022,0.996,-0.122,-2.197,0,0.527,0.258,-101.448
 14:37:58.341,eb:33:2e:f9:57:b5, 2085-97-252 255:46:00:2038,-0.002,0.022,0.995,-0.122,-2.625,0.061,0.527,0.258,-101.448
 14:37:58.372,eb:33:2e:f9:57:b5, 2085-97-00 00:46:00:2040,0,0.022,0.996,-0.122,-3.052,0.061,0.527,0.253,-101.448
 14:37:58.372,eb:33:2e:f9:57:b5, 2085-97-00 00:47:00:2041,0.001,0.021,0.996,-0.061,-3.296,0,0.527,0.22,-101.448
 14:37:58.372,eb:33:2e:f9:57:b5, 2085-97-01 00:48:00:2041,0.001,0.022,0.997,-0.122,-3.296,0,0.527,0.187,-101.448
 14:37:58.372,eb:33:2e:f9:57:b5, 2085-97-04 00:48:00:2043,0.004,0.023,0.997,-0.122,-3.479,-0.061,0.522,0.154,-101.448
 14:37:58.433,eb:33:2e:f9:57:b5, 2085-97-11 00:47:00:2045,0.003,0.024,0.999,-0.305,-3.235,-0.183,0.522,0.126,-101.448
 14:37:58.433,eb:33:2e:f9:57:b5, 2085-97-07 00:47:00:2042,0.005,0.023,0.997,-0.305,-3.113,-0.244,0.516,0.093,-101.453
 14:37:58.433,eb:33:2e:f9:57:b5, 2085-97-13 00:47:00:2045,0.006,0.023,0.998,-0.305,-3.113,-0.305,0.516,0.066,-101.453
 14:37:58.433,eb:33:2e:f9:57:b5, 2085-97-09 00:45:00:2042,0.004,0.023,0.998,-0.305,-2.869,-0.427,0.511,0.033,-101.459
 14:37:58.462,eb:33:2e:f9:57:b5, 2085-97-12 00:45:00:2044,0.007,0.022,0.997,-0.244,-3.052,-0.488,0.511,0.005,-101.464
 14:37:58.462,eb:33:2e:f9:57:b5, 2085-97-14 00:46:00:2044,0.008,0.022,0.999,-0.183,-3.052,-0.549,0.505,-0.027,-101.47
 14:37:58.462,eb:33:2e:f9:57:b5, 2085-97-15 00:44:00:2045,0.008,0.022,0.999,-0.183,-3.052,-0.488,0.505,-0.055,-101.475
 14:37:58.462,eb:33:2e:f9:57:b5, 2085-97-17 00:43:00:2045,0.008,0.021,0.999,-0.122,-3.113,-0.366,0.505,-0.088,-101.481
 14:37:58.522,eb:33:2e:f9:57:b5, 2085-97-17 00:44:00:2044,0.009,0.022,0.998,0,-3.174,-0.488,0.5,-0.115,-101.486
 14:37:58.522,eb:33:2e:f9:57:b5, 2085-97-20 00:43:00:2047,0.01,0.022,0.999,0,-3.052,-0.366,0.5,-0.148,-101.492
 14:37:58.522,eb:33:2e:f9:57:b5, 2085-113-81 00:251:80:137,0.011,0.021,1,0.061,-2.869,-0.366,0.5,-0.176,-101.497
 14:37:58.522,eb:33:2e:f9:57:b5, 2085-97-23 00:45:00:2047,0.011,0.021,1,0.061,-2.747,-0.366,0.5,-0.192,-101.497
 14:37:58.522,eb:33:2e:f9:57:b5, 2085-97-20 00:43:00:2044,0.009,0.021,0.999,0.122,-2.502,-0.488,0.505,-0.214,-101.503
 14:37:58.553,eb:33:2e:f9:57:b5, 2085-97-19 00:45:00:2042,0.008,0.022,0.998,0.244,-2.625,-0.61,0.505,-0.242,-101.508
 14:37:58.553,eb:33:2e:f9:57:b5, 2085-97-19 00:47:00:2040,0.01,0.021,0.997,0.305,-2.686,-0.488,0.511,-0.269,-101.514
 14:37:58.553,eb:33:2e:f9:57:b5, 2085-97-22 00:45:00:2044,0.013,0.022,0.997,0.244,-2.747,-0.488,0.511,-0.297,-101.519
 14:37:58.553,eb:33:2e:f9:57:b5, 2085-97-25 00:44:00:2045,0.015,0.022,0.999,0.122,-2.441,-0.488,0.516,-0.319,-101.525
 14:37:58.583,eb:33:2e:f9:57:b5, 2085-97-35 00:47:00:2051,0.017,0.023,1,0.122,-1.953,-0.488,0.516,-0.341,-101.53
 14:37:58.583,eb:33:2e:f9:57:b5, 2085-97-34 00:47:00:2049,0.014,0.022,1.001,0.122,-1.16,-0.549,0.516,-0.357,-101.536
 14:37:58.583,eb:33:2e:f9:57:b5, 2085-97-35 00:49:00:2048,0.019,0.022,0.998,0.183,-0.732,-0.427,0.522,-0.363,-101.541
 14:37:58.583,eb:33:2e:f9:57:b5, 2085-97-32 00:48:00:2043,0.013,0.024,1.002,0.122,-0.366,-0.549,0.522,-0.368,-101.547
 14:37:58.641,eb:33:2e:f9:57:b5, 2085-97-23 00:44:00:2041,0.012,0.023,0.998,0,0.061,-0.549,0.522,-0.368,-101.552
 14:37:58.641,eb:33:2e:f9:57:b5, 2085-97-27 00:49:00:2045,0.013,0.024,0.997,0,0.122,-0.427,0.522,-0.368,-101.558
 14:37:58.641,eb:33:2e:f9:57:b5, 2085-97-28 00:47:00:2044,0.013,0.022,0.998,-0.061,0.366,-0.488,0.522,-0.363,-101.563
 14:37:58.641,eb:33:2e:f9:57:b5, 2085-97-21 00:46:00:2040,0.007,0.023,0.998,-0.061,0.427,-0.427,0.522,-0.357,-101.569
 14:37:58.673,eb:33:2e:f9:57:b5, 2085-97-16 00:40:00:2036,0.008,0.021,0.994,-0.061,-0.061,-0.366,0.522,-0.357,-101.569
 14:37:58.673,eb:33:2e:f9:57:b5, 2085-97-22 00:42:00:2040,0.012,0.019,0.996,-0.061,-0.916,0,0.516,-0.363,-101.574
 14:37:58.673,eb:33:2e:f9:57:b5, 2085-97-31 00:42:00:2047,0.016,0.02,0.999,-0.061,-1.221,0.366,0.516,-0.374,-101.569
 14:37:58.673,eb:33:2e:f9:57:b5, 2085-97-29 00:44:00:2045,0.012,0.021,1,-0.061,-0.854,0.549,0.516,-0.385,-101.563
 14:37:58.703,eb:33:2e:f9:57:b5, 2085-97-24 00:44:00:2042,0.013,0.021,0.998,-0.061,-0.854,0.671,0.516,-0.39,-101.558
 14:37:58.703,eb:33:2e:f9:57:b5, 2085-97-24 00:45:00:2042,0.011,0.021,0.998,0,-1.099,0.793,0.516,-0.401,-101.552
 14:37:58.703,eb:33:2e:f9:57:b5, 2085-97-22 00:47:00:2038,0.01,0.021,0.997,-0.061,-1.404,0.793,0.516,-0.412,-101.541
 14:37:58.703,eb:33:2e:f9:57:b5, 2085-97-21 00:47:00:2038,0.012,0.022,0.994,-0.061,-2.136,0.854,0.511,-0.428,-101.536
 14:37:58.761,eb:33:2e:f9:57:b5, 2085-97-27 00:45:00:2039,0.014,0.023,0.995,-0.061,-2.502,0.854,0.511,-0.456,-101.525
 14:37:58.761,eb:33:2e:f9:57:b5, 2085-97-31 00:44:00:2043,0.017,0.022,0.997,-0.122,-2.747,0.977,0.511,-0.478,-101.514
 14:37:58.761,eb:33:2e:f9:57:b5, 2085-97-36 00:47:00:2047,0.019,0.022,0.999,-0.183,-2.502,0.977,0.505,-0.505,-101.508
 14:37:58.761,eb:33:2e:f9:57:b5, 2085-97-36 00:46:00:2048,0.017,0.022,1,-0.244,-1.892,0.977,0.505,-0.527,-101.497
 14:37:58.791,eb:33:2e:f9:57:b5, 2085-97-35 00:46:00:2046,0.018,0.022,1,-0.305,-1.465,0.977,0.5,-0.544,-101.486
 14:37:58.791,eb:33:2e:f9:57:b5, 2085-97-36 00:46:00:2046,0.017,0.022,1,-0.427,-0.977,1.038,0.5,-0.555,-101.475
 14:37:58.791,eb:33:2e:f9:57:b5, 2085-97-33 00:46:00:2044,0.017,0.022,0.999,-0.488,-0.61,1.038,0.494,-0.566,-101.464
 14:37:58.791,eb:33:2e:f9:57:b5, 2085-97-33 00:46:00:2043,0.016,0.023,0.998,-0.488,-0.366,0.977,0.489,-0.566,-101.453
 14:37:58.821,eb:33:2e:f9:57:b5, 2085-97-34 00:46:00:2044,0.018,0.023,0.998,-0.61,-0.183,0.977,0.478,-0.571,-101.442
 14:37:58.821,eb:33:2e:f9:57:b5, 2085-97-36 00:44:00:2046,0.017,0.022,0.999,-0.732,0.122,0.977,0.472,-0.571,-101.431
 14:37:58.822,eb:33:2e:f9:57:b5, 2085-97-35 00:42:00:2044,0.016,0.021,0.999,-0.793,0.488,1.038,0.467,-0.566,-101.42
 14:37:58.822,eb:33:2e:f9:57:b5, 2085-97-32 00:46:00:2044,0.015,0.024,0.999,-0.793,0.854,0.854,0.456,-0.56,-101.415
 14:37:58.881,eb:33:2e:f9:57:b5, 2085-97-30 00:44:00:2044,0.015,0.021,0.997,-0.916,1.16,0.854,0.45,-0.549,-101.404
 14:37:58.881,eb:33:2e:f9:57:b5, 2085-97-33 00:46:00:2044,0.015,0.021,0.998,-0.977,1.343,0.793,0.439,-0.533,-101.393
 14:37:58.881,eb:33:2e:f9:57:b5, 2085-97-30 00:43:00:2042,0.015,0.022,0.997,-0.977,1.526,0.732,0.428,-0.516,-101.387
 14:37:58.881,eb:33:2e:f9:57:b5, 2085-97-27 00:42:00:2042,0.014,0.021,0.998,-1.099,1.587,0.732,0.417,-0.5,-101.376
 14:37:58.912,eb:33:2e:f9:57:b5, 2085-97-27 00:42:00:2041,0.013,0.021,0.997,-1.038,1.526,0.732,0.406,-0.483,-101.371
 14:37:58.912,eb:33:2e:f9:57:b5, 2085-97-26 00:41:00:2043,0.012,0.02,0.997,-1.038,1.526,0.732,0.396,-0.467,-101.36
 14:37:58.912,eb:33:2e:f9:57:b5, 2085-97-25 00:41:00:2040,0.013,0.02,0.997,-1.16,1.343,0.732,0.385,-0.456,-101.354
 14:37:58.912,eb:33:2e:f9:57:b5, 2085-97-25 00:40:00:2041,0.013,0.019,0.997,-1.099,1.099,0.793,0.374,-0.439,-101.343
 14:37:58.972,eb:33:2e:f9:57:b5, 2085-97-27 00:38:00:2044,0.014,0.02,0.996,-1.16,0.854,0.793,0.363,-0.434,-101.338
 14:37:58.972,eb:33:2e:f9:57:b5, 2085-97-28 00:40:00:2045,0.013,0.022,0.999,-1.16,0.977,0.732,0.352,-0.423,-101.327
 14:37:58.972,eb:33:2e:f9:57:b5, 2085-97-27 00:40:00:2044,0.012,0.02,0.998,-1.099,1.221,0.671,0.341,-0.412,-101.321
 14:37:58.972,eb:33:2e:f9:57:b5, 2085-97-23 00:41:00:2038,0.011,0.02,0.997,-1.16,1.221,0.61,0.33,-0.396,-101.316
 14:37:59.002,eb:33:2e:f9:57:b5, 2085-97-24 00:39:00:2045,0.012,0.019,0.996,-1.221,0.916,0.61,0.313,-0.385,-101.305
 14:37:59.002,eb:33:2e:f9:57:b5, 2085-97-24 00:38:00:2042,0.013,0.019,0.997,-1.221,0.793,0.732,0.302,-0.379,-101.299
 14:37:59.002,eb:33:2e:f9:57:b5, 2085-97-25 00:39:00:2041,0.012,0.018,0.997,-1.221,0.549,0.671,0.291,-0.368,-101.294
 14:37:59.002,eb:33:2e:f9:57:b5, 2085-97-24 00:37:00:2040,0.013,0.019,0.996,-1.221,0.305,0.793,0.275,-0.363,-101.283
 14:37:59.032,eb:33:2e:f9:57:b5, 2085-97-25 00:37:00:2043,0.011,0.018,0.998,-1.221,0.122,0.916,0.264,-0.363,-101.277
 14:37:59.032,eb:33:2e:f9:57:b5, 2085-97-23 00:36:00:2042,0.011,0.019,0.996,-1.221,-0.061,0.854,0.253,-0.357,-101.266
 14:37:59.032,eb:33:2e:f9:57:b5, 2085-97-21 00:36:00:2040,0.01,0.018,0.997,-1.16,-0.305,0.854,0.242,-0.363,-101.255
 14:37:59.032,eb:33:2e:f9:57:b5, 2085-97-22 00:34:00:2040,0.01,0.017,0.996,-1.16,-0.732,0.854,0.225,-0.368,-101.25
 14:37:59.062,eb:33:2e:f9:57:b5, 2085-97-24 00:36:00:2041,0.012,0.016,0.996,-1.038,-1.282,0.854,0.214,-0.379,-101.239
 14:37:59.062,eb:33:2e:f9:57:b5, 2085-97-27 00:35:00:2043,0.013,0.017,0.996,-0.977,-1.709,0.916,0.209,-0.39,-101.228
 14:37:59.062,eb:33:2e:f9:57:b5, 2085-97-24 00:32:00:2041,0.013,0.016,0.998,-0.916,-1.892,1.038,0.198,-0.412,-101.223
 14:37:59.062,eb:33:2e:f9:57:b5, 2085-97-29 00:33:00:2045,0.013,0.016,0.997,-0.854,-2.319,1.038,0.187,-0.428,-101.212
 14:37:59.123,eb:33:2e:f9:57:b5, 2085-97-26 00:31:00:2042,0.013,0.016,0.998,-0.793,-2.258,0.977,0.181,-0.456,-101.201
 14:37:59.123,eb:33:2e:f9:57:b5, 2085-97-28 00:33:00:2041,0.013,0.016,0.998,-0.732,-2.502,1.038,0.17,-0.478,-101.19
 14:37:59.123,eb:33:2e:f9:57:b5, 2085-97-27 00:32:00:2042,0.013,0.016,0.997,-0.671,-2.747,0.977,0.165,-0.505,-101.179
 14:37:59.123,eb:33:2e:f9:57:b5, 2085-97-30 00:34:00:2041,0.015,0.017,0.997,-0.671,-2.869,0.916,0.154,-0.533,-101.168
 14:37:59.152,eb:33:2e:f9:57:b5, 2085-97-32 00:32:00:2042,0.016,0.016,0.996,-0.671,-2.93,0.854,0.148,-0.56,-101.162
 14:37:59.152,eb:33:2e:f9:57:b5, 2085-97-34 00:34:00:2043,0.017,0.016,0.997,-0.61,-3.052,0.854,0.143,-0.588,-101.151
 14:37:59.152,eb:33:2e:f9:57:b5, 2085-97-37 00:31:00:2043,0.018,0.017,0.997,-0.732,-3.052,0.854,0.132,-0.621,-101.14
 14:37:59.152,eb:33:2e:f9:57:b5, 2085-97-38 00:34:00:2043,0.017,0.016,0.997,-0.671,-3.052,0.732,0.126,-0.648,-101.135
 14:37:59.181,eb:33:2e:f9:57:b5, 2085-97-35 00:33:00:2041,0.017,0.017,0.997,-0.671,-2.991,0.61,0.121,-0.681,-101.129
 14:37:59.181,eb:33:2e:f9:57:b5, 2085-97-37 00:33:00:2043,0.018,0.016,0.996,-0.732,-3.113,0.61,0.115,-0.709,-101.118
 14:37:59.181,eb:33:2e:f9:57:b5, 2085-97-38 00:33:00:2041,0.018,0.015,0.997,-0.671,-3.296,0.488,0.104,-0.742,-101.113
 14:37:59.181,eb:33:2e:f9:57:b5, 2085-97-37 00:32:00:2040,0.02,0.015,0.996,-0.671,-3.54,0.366,0.099,-0.775,-101.113
 14:37:59.242,eb:33:2e:f9:57:b5, 2085-97-42 00:30:00:2041,0.019,0.015,0.998,-0.854,-3.601,0.122,0.088,-0.813,-101.107
 14:37:59.242,eb:33:2e:f9:57:b5, 2085-97-41 00:32:00:2040,0.021,0.015,0.996,-0.671,-3.662,0,0.082,-0.846,-101.107
 14:37:59.242,eb:33:2e:f9:57:b5, 2085-97-43 00:32:00:2039,0.022,0.016,0.996,-0.732,-3.845,-0.183,0.077,-0.884,-101.107
 14:37:59.242,eb:33:2e:f9:57:b5, 2085-97-47 00:31:00:2043,0.022,0.015,0.996,-0.793,-4.089,-0.366,0.066,-0.923,-101.113
 14:37:59.301,eb:33:2e:f9:57:b5, 2085-97-47 00:31:00:2042,0.023,0.014,0.997,-0.793,-4.089,-0.488,0.06,-0.967,-101.118
 14:37:59.301,eb:33:2e:f9:57:b5, 2085-97-51 00:29:00:2043,0.025,0.015,0.998,-0.732,-4.272,-0.549,0.049,-1.005,-101.124
 14:37:59.301,eb:33:2e:f9:57:b5, 2085-97-56 00:27:00:2046,0.03,0.014,0.998,-0.732,-4.639,-0.488,0.044,-1.049,-101.129
 14:37:59.301,eb:33:2e:f9:57:b5, 2085-97-63 00:26:00:2051,0.031,0.013,1,-0.671,-4.7,-0.183,0.038,-1.099,-101.129
 14:37:59.305,eb:33:2e:f9:57:b5, 2085-97-66 00:26:00:2053,0.032,0.013,1.001,-0.671,-4.333,0,0.027,-1.143,-101.135
 14:37:59.305,eb:33:2e:f9:57:b5, 2085-97-63 00:25:00:2049,0.031,0.013,1.001,-0.732,-3.662,0.305,0.022,-1.181,-101.129
 14:37:59.305,eb:33:2e:f9:57:b5, 2085-97-65 00:26:00:2049,0.031,0.012,1,-0.671,-3.174,0.549,0.011,-1.214,-101.129
 14:37:59.305,eb:33:2e:f9:57:b5, 2085-97-62 00:26:00:2045,0.029,0.014,1,-0.61,-2.319,0.61,0.005,-1.241,-101.118
 14:37:59.362,eb:33:2e:f9:57:b5, 2085-97-59 00:24:00:2042,0.029,0.013,0.999,-0.488,-2.136,0.732,0,-1.263,-101.113
 14:37:59.362,eb:33:2e:f9:57:b5, 2085-97-58 00:27:00:2041,0.029,0.013,0.997,-0.549,-2.075,0.732,-0.005,-1.285,-101.107
 14:37:59.363,eb:33:2e:f9:57:b5, 2085-97-60 00:25:00:2042,0.029,0.012,0.996,-0.488,-2.075,0.793,-0.011,-1.307,-101.096
 14:37:59.363,eb:33:2e:f9:57:b5, 2085-97-61 00:26:00:2041,0.031,0.012,0.996,-0.427,-2.197,0.793,-0.016,-1.329,-101.091
 14:37:59.392,eb:33:2e:f9:57:b5, 2085-97-62 00:26:00:2043,0.03,0.013,0.998,-0.366,-2.258,0.916,-0.022,-1.351,-101.08
 14:37:59.392,eb:33:2e:f9:57:b5, 2085-97-59 00:26:00:2041,0.029,0.013,0.998,-0.305,-2.136,0.916,-0.027,-1.373,-101.074
 14:37:59.392,eb:33:2e:f9:57:b5, 2085-97-60 00:26:00:2040,0.03,0.013,0.997,-0.366,-2.075,0.916,-0.027,-1.39,-101.063
 14:37:59.392,eb:33:2e:f9:57:b5, 2085-97-62 00:24:00:2043,0.03,0.013,0.997,-0.244,-2.014,0.854,-0.033,-1.412,-101.052
 14:37:59.423,eb:33:2e:f9:57:b5, 2085-97-61 00:28:00:2040,0.031,0.013,0.997,-0.244,-1.831,0.793,-0.038,-1.434,-101.047
 14:37:59.423,eb:33:2e:f9:57:b5, 2085-97-64 00:28:00:2042,0.031,0.014,0.998,-0.244,-1.587,0.793,-0.038,-1.45,-101.036
 14:37:59.423,eb:33:2e:f9:57:b5, 2085-113-81 00:99:81:-243,0.032,0.014,0.997,-0.244,-1.526,0.732,-0.044,-1.461,-101.03
 14:37:59.423,eb:33:2e:f9:57:b5, 2085-97-67 00:27:00:2042,0.033,0.014,0.997,-0.244,-1.404,0.671,-0.044,-1.472,-101.025
 14:37:59.483,eb:33:2e:f9:57:b5, 2085-97-66 00:27:00:2041,0.033,0.013,0.997,-0.305,-1.282,0.671,-0.049,-1.483,-101.019
 14:37:59.483,eb:33:2e:f9:57:b5, 2085-97-69 00:26:00:2042,0.033,0.014,0.997,-0.366,-1.16,0.671,-0.049,-1.494,-101.008
 14:37:59.484,eb:33:2e:f9:57:b5, 2085-97-67 00:28:00:2041,0.033,0.014,0.996,-0.305,-1.16,0.61,-0.055,-1.505,-101.003
 14:37:59.484,eb:33:2e:f9:57:b5, 2085-97-67 00:26:00:2042,0.033,0.013,0.997,-0.305,-1.099,0.488,-0.06,-1.516,-100.997
 14:37:59.511,eb:33:2e:f9:57:b5, 2085-97-69 00:26:00:2043,0.033,0.012,0.998,-0.366,-1.099,0.61,-0.06,-1.527,-100.992
 14:37:59.511,eb:33:2e:f9:57:b5, 2085-97-67 00:25:00:2040,0.033,0.012,0.997,-0.366,-1.099,0.671,-0.066,-1.538,-100.986
 14:37:59.511,eb:33:2e:f9:57:b5, 2085-97-70 00:25:00:2043,0.033,0.012,0.997,-0.305,-1.16,0.549,-0.071,-1.549,-100.981
 14:37:59.511,eb:33:2e:f9:57:b5, 2085-97-68 00:25:00:2039,0.033,0.012,0.997,-0.244,-1.099,0.488,-0.071,-1.56,-100.97
 14:37:59.542,eb:33:2e:f9:57:b5, 2085-97-70 00:25:00:2042,0.035,0.011,0.997,-0.244,-1.038,0.549,-0.077,-1.571,-100.964
 14:37:59.542,eb:33:2e:f9:57:b5, 2085-97-70 00:24:00:2042,0.035,0.012,0.998,-0.244,-0.977,0.549,-0.077,-1.582,-100.959
 14:37:59.542,eb:33:2e:f9:57:b5, 2085-97-69 00:24:00:2043,0.034,0.011,0.999,-0.183,-0.854,0.488,-0.082,-1.593,-100.953
 14:37:59.542,eb:33:2e:f9:57:b5, 2085-97-71 00:24:00:2042,0.034,0.012,0.997,-0.183,-1.038,0.366,-0.082,-1.599,-100.953
 14:37:59.602,eb:33:2e:f9:57:b5, 2085-97-69 00:25:00:2041,0.034,0.012,0.997,-0.122,-0.916,0.427,-0.088,-1.609,-100.948
 14:37:59.602,eb:33:2e:f9:57:b5, 2085-97-68 00:26:00:2038,0.033,0.013,0.996,-0.183,-0.916,0.305,-0.088,-1.62,-100.942
 14:37:59.602,eb:33:2e:f9:57:b5, 2085-97-70 00:26:00:2039,0.034,0.012,0.996,-0.183,-0.977,0.366,-0.088,-1.626,-100.937
 14:37:59.602,eb:33:2e:f9:57:b5, 2085-97-67 00:22:00:2037,0.034,0.012,0.996,-0.122,-1.038,0.366,-0.093,-1.637,-100.931
 14:37:59.633,eb:33:2e:f9:57:b5, 2085-97-71 00:25:00:2041,0.036,0.012,0.996,-0.122,-1.221,0.366,-0.093,-1.648,-100.931
 14:37:59.633,eb:33:2e:f9:57:b5, 2085-97-76 00:25:00:2043,0.037,0.012,0.997,-0.061,-1.099,0.427,-0.093,-1.659,-100.926
 14:37:59.633,eb:33:2e:f9:57:b5, 2085-97-76 00:24:00:2043,0.037,0.012,0.998,-0.061,-0.977,0.366,-0.093,-1.67,-100.92
 14:37:59.633,eb:33:2e:f9:57:b5, 2085-97-77 00:25:00:2046,0.037,0.012,0.998,-0.183,-0.793,0.244,-0.099,-1.681,-100.92
 14:37:59.662,eb:33:2e:f9:57:b5, 2085-97-80 00:24:00:2045,0.037,0.012,0.997,-0.122,-0.61,0.183,-0.099,-1.686,-100.915
 14:37:59.662,eb:33:2e:f9:57:b5, 2085-97-76 00:25:00:2041,0.038,0.011,0.997,-0.122,-0.366,0.122,-0.099,-1.692,-100.915
 14:37:59.662,eb:33:2e:f9:57:b5, 2085-97-74 00:24:00:2042,0.037,0.011,0.998,-0.122,-0.244,0.061,-0.104,-1.692,-100.909
 14:37:59.662,eb:33:2e:f9:57:b5, 2085-97-75 00:24:00:2041,0.038,0.012,0.997,-0.183,-0.183,0.061,-0.104,-1.697,-100.909
 14:37:59.722,eb:33:2e:f9:57:b5, 2085-97-77 00:24:00:2043,0.036,0.013,0.998,-0.183,-0.061,0,-0.104,-1.697,-100.909
 14:37:59.722,eb:33:2e:f9:57:b5, 2085-97-76 00:24:00:2042,0.036,0.012,0.997,-0.183,0,0.061,-0.093,-1.708,-100.909
 14:37:59.722,eb:33:2e:f9:57:b5, 2085-97-74 00:23:00:2041,0.036,0.011,0.996,-0.183,0.061,0,-0.093,-1.708,-100.909
 14:37:59.722,eb:33:2e:f9:57:b5, 2085-97-74 00:22:00:2040,0.037,0.011,0.997,-0.183,0.183,-0.122,-0.088,-1.719,-100.909
 14:37:59.752,eb:33:2e:f9:57:b5, 2085-97-75 00:23:00:2041,0.035,0.011,0.997,-0.183,0.183,-0.122,-0.088,-1.719,-100.909
 14:37:59.752,eb:33:2e:f9:57:b5, 2085-97-75 00:23:00:2042,0.037,0.011,0.997,-0.244,0.122,-0.061,-0.082,-1.725,-100.909
 14:37:59.752,eb:33:2e:f9:57:b5, 2085-97-76 00:24:00:2044,0.037,0.011,0.997,-0.244,0.061,-0.122,-0.082,-1.725,-100.909
 14:37:59.752,eb:33:2e:f9:57:b5, 2085-97-79 00:23:00:2044,0.038,0.012,0.999,-0.244,0.122,-0.305,-0.082,-1.73,-100.909
 14:37:59.782,eb:33:2e:f9:57:b5, 2085-97-77 00:24:00:2044,0.036,0.011,0.997,-0.305,0.305,-0.244,-0.082,-1.73,-100.909
 14:37:59.782,eb:33:2e:f9:57:b5, 2085-97-74 00:24:00:2044,0.037,0.011,0.997,-0.244,0.305,-0.244,-0.077,-1.73,-100.909
 14:37:59.782,eb:33:2e:f9:57:b5, 2085-97-76 00:23:00:2043,0.038,0.011,0.998,-0.244,0.366,-0.305,-0.077,-1.73,-100.909
 14:37:59.782,eb:33:2e:f9:57:b5, 2085-97-76 00:22:00:2042,0.037,0.012,0.998,-0.305,0.488,-0.305,-0.077,-1.736,-100.909
 14:37:59.841,eb:33:2e:f9:57:b5, 2085-97-76 00:22:00:2041,0.037,0.011,0.998,-0.183,0.549,-0.366,-0.077,-1.736,-100.909
 14:37:59.841,eb:33:2e:f9:57:b5, 2085-97-76 00:22:00:2044,0.038,0.011,0.998,-0.244,0.549,-0.366,-0.071,-1.736,-100.909
 14:37:59.841,eb:33:2e:f9:57:b5, 2085-97-75 00:22:00:2045,0.037,0.01,0.998,-0.183,0.793,-0.244,-0.071,-1.736,-100.909
 14:37:59.841,eb:33:2e:f9:57:b5, 2085-97-79 00:18:00:2050,0.038,0.011,0.998,-0.122,0.977,-0.305,-0.071,-1.741,-100.909
 14:37:59.872,eb:33:2e:f9:57:b5, 2085-97-77 00:24:00:2047,0.037,0.01,0.999,-0.122,1.587,0,-0.071,-1.741,-100.909
 14:37:59.872,eb:33:2e:f9:57:b5, 2085-97-73 00:23:00:2043,0.035,0.012,0.997,-0.122,1.831,-0.061,-0.071,-1.741,-100.909
 14:37:59.872,eb:33:2e:f9:57:b5, 2085-97-69 00:22:00:2041,0.033,0.011,0.997,-0.122,2.014,-0.061,-0.071,-1.741,-100.909
 14:37:59.872,eb:33:2e:f9:57:b5, 2085-97-67 00:22:00:2040,0.033,0.011,0.996,-0.122,2.075,-0.122,-0.071,-1.741,-100.909
 14:37:59.962,eb:33:2e:f9:57:b5, 2085-97-69 00:21:00:2044,0.034,0.01,0.997,-0.122,2.136,-0.122,-0.071,-1.741,-100.909
 14:37:59.962,eb:33:2e:f9:57:b5, 2085-97-71 00:21:00:2044,0.034,0.01,0.998,-0.122,2.441,-0.061,-0.071,-1.747,-100.909
 14:37:59.962,eb:33:2e:f9:57:b5, 2085-97-69 00:24:00:2044,0.035,0.01,0.997,-0.061,2.808,0,-0.071,-1.747,-100.909
 14:37:59.962,eb:33:2e:f9:57:b5, 2085-97-73 00:20:00:2050,0.034,0.009,1,-0.061,3.052,0,-0.071,-1.725,-100.909
 14:37:59.962,eb:33:2e:f9:57:b5, 2085-97-70 00:22:00:2048,0.034,0.01,1,-0.061,3.662,0.183,-0.071,-1.686,-100.909
 14:37:59.964,eb:33:2e:f9:57:b5, 2085-113-58 00:81:220:-1620,0.033,0.01,1,0,4.211,0.183,-0.071,-1.648,-100.904
 14:37:59.964,eb:33:2e:f9:57:b5, 2085-97-62 00:21:00:2044,0.029,0.01,0.999,0,4.456,0.244,-0.071,-1.626,-100.904
 14:37:59.964,eb:33:2e:f9:57:b5, 2085-97-56 00:23:00:2037,0.027,0.012,0.996,0,4.456,0.183,-0.071,-1.577,-100.898
 14:37:59.964,eb:33:2e:f9:57:b5, 2085-97-54 00:23:00:2039,0.026,0.012,0.995,-0.061,4.089,0.061,-0.071,-1.533,-100.898
 14:37:59.991,eb:33:2e:f9:57:b5, 2085-97-52 00:22:00:2038,0.026,0.012,0.995,-0.122,3.784,0,-0.071,-1.494,-100.898
 14:37:59.991,eb:33:2e:f9:57:b5, 2085-97-55 00:23:00:2040,0.026,0.011,0.996,-0.122,3.479,0,-0.077,-1.461,-100.898
 14:37:59.991,eb:33:2e:f9:57:b5, 2085-97-54 00:22:00:2042,0.025,0.011,0.996,-0.122,3.296,-0.061,-0.077,-1.423,-100.898
 14:37:59.991,eb:33:2e:f9:57:b5, 2085-97-53 00:23:00:2042,0.024,0.011,0.997,-0.122,3.174,-0.122,-0.077,-1.39,-100.898
 14:38:00.052,eb:33:2e:f9:57:b5, 2085-97-49 00:24:00:2038,0.024,0.011,0.997,-0.244,3.113,-0.061,-0.082,-1.357,-100.898
 14:38:00.052,eb:33:2e:f9:57:b5, 2085-97-49 00:22:00:2039,0.023,0.012,0.996,-0.183,2.869,-0.183,-0.082,-1.329,-100.898
 14:38:00.052,eb:33:2e:f9:57:b5, 2085-97-48 00:22:00:2040,0.023,0.011,0.997,-0.305,2.808,-0.183,-0.088,-1.296,-100.898
 14:38:00.052,eb:33:2e:f9:57:b5, 2085-97-47 00:22:00:2041,0.023,0.01,0.997,-0.244,2.686,-0.183,-0.088,-1.269,-100.904
 14:38:00.083,eb:33:2e:f9:57:b5, 2085-97-49 00:24:00:2044,0.023,0.011,0.997,-0.244,2.686,-0.183,-0.093,-1.241,-100.904
 14:38:00.083,eb:33:2e:f9:57:b5, 2085-97-47 00:22:00:2043,0.024,0.011,0.997,-0.244,2.808,-0.183,-0.093,-1.214,-100.904
 14:38:00.083,eb:33:2e:f9:57:b5, 2085-97-49 00:20:00:2045,0.023,0.01,0.998,-0.305,3.052,-0.061,-0.099,-1.187,-100.904
 14:38:00.083,eb:33:2e:f9:57:b5, 2085-97-44 00:23:00:2041,0.02,0.01,0.998,-0.366,3.296,-0.122,-0.099,-1.154,-100.904
 14:38:00.111,eb:33:2e:f9:57:b5, 2085-97-40 00:23:00:2038,0.02,0.011,0.996,-0.366,3.113,-0.122,-0.104,-1.121,-100.909
 14:38:00.111,eb:33:2e:f9:57:b5, 2085-97-41 00:23:00:2040,0.018,0.011,0.995,-0.427,2.991,-0.183,-0.11,-1.088,-100.909
 14:38:00.111,eb:33:2e:f9:57:b5, 2085-97-40 00:21:00:2042,0.02,0.011,0.995,-0.488,2.747,-0.305,-0.115,-1.055,-100.909
 14:38:00.111,eb:33:2e:f9:57:b5, 2085-97-40 00:21:00:2042,0.019,0.011,0.997,-0.549,2.747,-0.305,-0.121,-1.027,-100.915
 14:38:00.173,eb:33:2e:f9:57:b5, 2085-97-35 00:20:00:2038,0.016,0.011,0.996,-0.549,2.625,-0.244,-0.126,-1,-100.915
 14:38:00.173,eb:33:2e:f9:57:b5, 2085-97-33 00:21:00:2036,0.015,0.011,0.995,-0.61,2.441,-0.244,-0.132,-0.972,-100.92
 14:38:00.173,eb:33:2e:f9:57:b5, 2085-97-32 00:22:00:2037,0.017,0.011,0.994,-0.671,2.014,-0.305,-0.137,-0.95,-100.92
 14:38:00.173,eb:33:2e:f9:57:b5, 2085-97-32 00:20:00:2037,0.015,0.01,0.995,-0.671,1.77,-0.366,-0.143,-0.934,-100.926
 14:38:00.201,eb:33:2e:f9:57:b5, 2085-97-31 00:20:00:2038,0.015,0.01,0.995,-0.61,1.526,-0.366,-0.148,-0.912,-100.931
 14:38:00.201,eb:33:2e:f9:57:b5, 2085-97-31 00:18:00:2037,0.015,0.01,0.995,-0.61,1.282,-0.305,-0.159,-0.901,-100.931
 14:38:00.201,eb:33:2e:f9:57:b5, 2085-97-32 00:17:00:2041,0.016,0.008,0.996,-0.549,1.099,-0.366,-0.165,-0.884,-100.937
 14:38:00.201,eb:33:2e:f9:57:b5, 2085-97-32 00:18:00:2039,0.016,0.009,0.996,-0.488,0.916,-0.366,-0.17,-0.873,-100.937
 14:38:00.231,eb:33:2e:f9:57:b5, 2085-97-30 00:18:00:2037,0.015,0.009,0.995,-0.427,0.671,-0.305,-0.176,-0.868,-100.942
 14:38:00.231,eb:33:2e:f9:57:b5, 2085-97-31 00:18:00:2039,0.015,0.009,0.995,-0.427,0.305,-0.305,-0.176,-0.862,-100.948
 14:38:00.231,eb:33:2e:f9:57:b5, 2085-97-34 00:17:00:2043,0.018,0.009,0.996,-0.244,0.122,-0.183,-0.181,-0.857,-100.948
 14:38:00.231,eb:33:2e:f9:57:b5, 2085-97-39 00:16:00:2045,0.017,0.008,0.998,-0.244,0.244,-0.061,-0.187,-0.857,-100.948
 14:38:00.293,eb:33:2e:f9:57:b5, 2085-97-32 00:20:00:2040,0.017,0.008,0.997,-0.183,0.366,0,-0.187,-0.851,-100.948
 14:38:00.293,eb:33:2e:f9:57:b5, 2085-97-36 00:20:00:2043,0.017,0.009,0.997,-0.122,0.061,0,-0.187,-0.846,-100.948
 14:38:00.293,eb:33:2e:f9:57:b5, 2085-97-32 00:18:00:2039,0.017,0.009,0.997,0,0,0,-0.187,-0.846,-100.948
 14:38:00.293,eb:33:2e:f9:57:b5, 2085-97-36 00:18:00:2043,0.017,0.009,0.997,0.061,-0.122,0,-0.187,-0.846,-100.948
 14:38:00.321,eb:33:2e:f9:57:b5, 2085-97-33 00:20:00:2041,0.016,0.009,0.997,0.061,-0.244,-0.122,-0.187,-0.846,-100.948
 14:38:00.321,eb:33:2e:f9:57:b5, 2085-97-35 00:19:00:2042,0.019,0.01,0.997,0.122,-0.549,-0.183,-0.187,-0.851,-100.948
 14:38:00.321,eb:33:2e:f9:57:b5, 2085-97-38 00:17:00:2044,0.018,0.008,0.998,0.183,-0.366,-0.122,-0.187,-0.851,-100.948
 14:38:00.321,eb:33:2e:f9:57:b5, 2085-97-36 00:19:00:2043,0.017,0.009,0.998,0.183,-0.122,-0.061,-0.187,-0.851,-100.948
 14:38:00.352,eb:33:2e:f9:57:b5, 2085-97-37 00:19:00:2044,0.017,0.008,0.998,0.244,-0.061,-0.122,-0.181,-0.857,-100.948
 14:38:00.352,eb:33:2e:f9:57:b5, 2085-97-37 00:16:00:2044,0.017,0.008,0.997,0.305,-0.061,0,-0.181,-0.857,-100.948
 14:38:00.352,eb:33:2e:f9:57:b5, 2085-97-36 00:18:00:2043,0.018,0.009,0.998,0.305,0,0.122,-0.181,-0.857,-100.948
 14:38:00.352,eb:33:2e:f9:57:b5, 2085-97-34 00:18:00:2042,0.018,0.008,0.998,0.427,0,0.183,-0.181,-0.857,-100.948
 14:38:00.412,eb:33:2e:f9:57:b5, 2085-97-34 00:20:00:2041,0.018,0.008,0.997,0.305,0,0.366,-0.181,-0.857,-100.948
 14:38:00.412,eb:33:2e:f9:57:b5, 2085-97-35 00:20:00:2043,0.017,0.009,0.997,0.244,0,0.488,-0.181,-0.857,-100.948
 14:38:00.412,eb:33:2e:f9:57:b5, 2085-97-31 00:20:00:2040,0.014,0.01,0.997,0.305,0,0.549,-0.181,-0.857,-100.948
 14:38:00.412,eb:33:2e:f9:57:b5, 2085-97-29 00:21:00:2039,0.013,0.01,0.996,0.244,-0.244,0.549,-0.181,-0.857,-100.948
 14:38:00.441,eb:33:2e:f9:57:b5, 2085-97-27 00:21:00:2036,0.014,0.01,0.994,0.244,-0.488,0.488,-0.176,-0.857,-100.948
 14:38:00.441,eb:33:2e:f9:57:b5, 2085-97-26 00:23:00:2033,0.013,0.011,0.994,0.183,-0.977,0.366,-0.176,-0.857,-100.948
 14:38:00.441,eb:33:2e:f9:57:b5, 2085-97-28 00:22:00:2036,0.014,0.011,0.994,0.183,-1.526,0.244,-0.176,-0.857,-100.948
 14:38:00.441,eb:33:2e:f9:57:b5, 2085-97-31 00:21:00:2037,0.016,0.011,0.994,0.061,-1.953,0.305,-0.176,-0.857,-100.948
 14:38:00.471,eb:33:2e:f9:57:b5, 2085-97-31 00:21:00:2038,0.015,0.01,0.995,0,-2.075,0.244,-0.176,-0.857,-100.948
 14:38:00.471,eb:33:2e:f9:57:b5, 2085-97-32 00:21:00:2036,0.016,0.01,0.994,0,-2.38,0.183,-0.176,-0.857,-100.948
 14:38:00.471,eb:33:2e:f9:57:b5, 2085-97-32 00:21:00:2037,0.016,0.01,0.994,0,-2.93,0.183,-0.176,-0.857,-100.948
 14:38:00.471,eb:33:2e:f9:57:b5, 2085-97-33 00:20:00:2034,0.016,0.01,0.994,0,-3.296,0.061,-0.176,-0.884,-100.948
 14:38:00.533,eb:33:2e:f9:57:b5, 2085-97-35 00:23:00:2036,0.018,0.011,0.994,0,-3.784,-0.061,-0.176,-0.923,-100.948
 14:38:00.533,eb:33:2e:f9:57:b5, 2085-97-40 00:22:00:2037,0.02,0.011,0.993,0,-4.272,-0.122,-0.176,-0.961,-100.948
 14:38:00.533,eb:33:2e:f9:57:b5, 2085-97-41 00:23:00:2038,0.021,0.011,0.995,-0.061,-4.578,-0.244,-0.176,-1.005,-100.953
 14:38:00.533,eb:33:2e:f9:57:b5, 2085-97-43 00:22:00:2039,0.021,0.012,0.996,0,-4.761,-0.488,-0.176,-1.049,-100.953
 14:38:00.562,eb:33:2e:f9:57:b5, 2085-97-43 00:29:00:2032,0.021,0.011,0.996,-0.061,-4.883,-0.732,-0.176,-1.099,-100.964
 14:38:00.562,eb:33:2e:f9:57:b5, 2085-97-48 00:26:00:2038,0.026,0.012,0.993,0,-5.249,-0.977,-0.176,-1.148,-100.97
 14:38:00.562,eb:33:2e:f9:57:b5, 2085-97-52 00:22:00:2040,0.026,0.009,0.998,0,-5.31,-1.282,-0.176,-1.203,-100.986
 14:38:00.562,eb:33:2e:f9:57:b5, 2085-97-55 00:21:00:2041,0.026,0.01,0.997,0.061,-5.432,-1.587,-0.176,-1.258,-100.997
 14:38:00.592,eb:33:2e:f9:57:b5, 2085-97-56 00:21:00:2042,0.029,0.011,0.996,0.122,-5.493,-1.831,-0.176,-1.307,-101.019
 14:38:00.592,eb:33:2e:f9:57:b5, 2085-97-62 00:20:00:2046,0.03,0.01,0.997,0.244,-5.554,-2.014,-0.17,-1.362,-101.036
 14:38:00.592,eb:33:2e:f9:57:b5, 2085-97-63 00:21:00:2042,0.033,0.011,0.998,0.305,-5.31,-2.258,-0.17,-1.417,-101.058
 14:38:00.592,eb:33:2e:f9:57:b5, 2085-97-69 00:21:00:2045,0.033,0.01,0.998,0.305,-5.127,-2.38,-0.165,-1.472,-101.08
 14:38:00.654,eb:33:2e:f9:57:b5, 2085-97-67 00:21:00:2042,0.034,0.01,0.999,0.366,-4.822,-2.441,-0.159,-1.516,-101.107
 14:38:00.654,eb:33:2e:f9:57:b5, 2085-97-71 00:21:00:2044,0.034,0.01,0.999,0.366,-4.639,-2.502,-0.154,-1.566,-101.135
 14:38:00.654,eb:33:2e:f9:57:b5, 2085-97-69 00:19:00:2042,0.035,0.01,0.998,0.427,-4.639,-2.441,-0.148,-1.609,-101.157
 14:38:00.654,eb:33:2e:f9:57:b5, 2085-97-75 00:22:00:2046,0.038,0.01,0.998,0.427,-4.639,-2.38,-0.143,-1.659,-101.184
 14:38:00.682,eb:33:2e:f9:57:b5, 2085-97-76 00:23:00:2046,0.038,0.011,0.999,0.488,-4.456,-2.38,-0.137,-1.703,-101.206
 14:38:00.682,eb:33:2e:f9:57:b5, 2085-97-78 00:22:00:2044,0.038,0.012,0.999,0.427,-4.211,-2.38,-0.132,-1.741,-101.234
 14:38:00.682,eb:33:2e:f9:57:b5, 2085-97-80 00:22:00:2045,0.039,0.011,0.999,0.366,-3.784,-2.319,-0.126,-1.785,-101.255
 14:38:00.682,eb:33:2e:f9:57:b5, 2085-97-78 00:23:00:2044,0.038,0.01,0.999,0.305,-3.479,-2.38,-0.126,-1.818,-101.277
 14:38:00.741,eb:33:2e:f9:57:b5, 2085-97-79 00:23:00:2045,0.039,0.011,0.999,0.305,-3.235,-2.38,-0.121,-1.851,-101.305
 14:38:00.741,eb:33:2e:f9:57:b5, 2085-97-79 00:25:00:2044,0.04,0.012,0.998,0.244,-3.174,-2.441,-0.115,-1.884,-101.327
 14:38:00.741,eb:33:2e:f9:57:b5, 2085-97-82 00:24:00:2044,0.039,0.013,0.998,0.244,-2.991,-2.38,-0.11,-1.912,-101.354
 14:38:00.741,eb:33:2e:f9:57:b5, 2085-97-82 00:23:00:2042,0.041,0.012,0.998,0.183,-2.869,-2.319,-0.11,-1.939,-101.376
 14:38:00.771,eb:33:2e:f9:57:b5, 2085-97-82 00:22:00:2044,0.04,0.011,0.998,0.122,-2.686,-2.258,-0.104,-1.967,-101.398
 14:38:00.771,eb:33:2e:f9:57:b5, 2085-97-82 00:24:00:2040,0.041,0.012,0.998,0.061,-2.625,-2.197,-0.104,-1.994,-101.42
 14:38:00.771,eb:33:2e:f9:57:b5, 2085-97-83 00:24:00:2041,0.04,0.011,0.997,0.061,-2.563,-2.136,-0.104,-2.021,-101.442
 14:38:00.771,eb:33:2e:f9:57:b5, 2085-97-84 00:24:00:2042,0.042,0.011,0.997,0.061,-2.441,-2.075,-0.099,-2.043,-101.464
 14:38:00.803,eb:33:2e:f9:57:b5, 2085-97-86 00:24:00:2041,0.043,0.011,0.997,0,-2.258,-1.953,-0.099,-2.065,-101.486
 14:38:00.803,eb:33:2e:f9:57:b5, 2085-97-89 00:22:00:2043,0.043,0.012,0.997,0,-2.197,-2.075,-0.099,-2.087,-101.503
 14:38:00.803,eb:33:2e:f9:57:b5, 2085-97-89 00:22:00:2045,0.043,0.012,0.999,0,-1.953,-1.953,-0.099,-2.109,-101.525
 14:38:00.803,eb:33:2e:f9:57:b5, 2085-97-90 00:24:00:2044,0.045,0.011,0.997,0,-1.831,-1.831,-0.099,-2.126,-101.547
 14:38:00.833,eb:33:2e:f9:57:b5, 2085-97-91 00:22:00:2044,0.044,0.011,0.998,0,-1.404,-1.77,-0.093,-2.142,-101.563
 14:38:00.833,eb:33:2e:f9:57:b5, 2085-97-89 00:22:00:2043,0.043,0.011,0.998,0,-1.099,-1.648,-0.093,-2.153,-101.58
 14:38:00.833,eb:33:2e:f9:57:b5, 2085-97-91 00:22:00:2045,0.042,0.011,0.997,0,-0.916,-1.526,-0.093,-2.164,-101.596
 14:38:00.833,eb:33:2e:f9:57:b5, 2085-97-91 00:24:00:2043,0.044,0.011,0.997,0,-0.732,-1.404,-0.093,-2.17,-101.613
 14:38:00.892,eb:33:2e:f9:57:b5, 2085-97-91 00:25:00:2042,0.043,0.011,0.998,0,-0.61,-1.282,-0.093,-2.175,-101.624
 14:38:00.892,eb:33:2e:f9:57:b5, 2085-113-58 00:22:219:-1230,0.043,0.011,0.997,0,-0.305,-1.343,-0.093,-2.181,-101.64
 14:38:00.892,eb:33:2e:f9:57:b5, 2085-97-89 00:23:00:2041,0.043,0.012,0.997,0,-0.366,-1.282,-0.093,-2.181,-101.646
 14:38:00.892,eb:33:2e:f9:57:b5, 2085-97-88 00:23:00:2040,0.042,0.012,0.997,-0.061,-0.244,-1.221,-0.093,-2.186,-101.656
 14:38:00.922,eb:33:2e:f9:57:b5, 2085-97-86 00:24:00:2040,0.042,0.012,0.996,-0.061,-0.366,-1.16,-0.093,-2.186,-101.667
 14:38:00.922,eb:33:2e:f9:57:b5, 2085-97-88 00:22:00:2040,0.043,0.012,0.996,-0.061,-0.366,-1.16,-0.093,-2.192,-101.678
 14:38:00.922,eb:33:2e:f9:57:b5, 2085-97-88 00:22:00:2040,0.043,0.011,0.996,0,-0.305,-1.099,-0.093,-2.192,-101.689
 14:38:00.922,eb:33:2e:f9:57:b5, 2085-97-89 00:25:00:2040,0.043,0.012,0.996,0,-0.244,-1.038,-0.093,-2.197,-101.7
 14:38:00.952,eb:33:2e:f9:57:b5, 2085-97-87 00:23:00:2041,0.043,0.012,0.996,0,-0.061,-1.038,-0.093,-2.197,-101.711
 14:38:00.952,eb:33:2e:f9:57:b5, 2085-97-87 00:25:00:2039,0.043,0.012,0.996,0,0.061,-0.977,-0.093,-2.197,-101.722
 14:38:00.952,eb:33:2e:f9:57:b5, 2085-97-89 00:24:00:2040,0.042,0.012,0.997,0,0.061,-0.916,-0.093,-2.197,-101.733
 14:38:00.952,eb:33:2e:f9:57:b5, 2085-97-85 00:23:00:2036,0.04,0.012,0.995,0.061,0.061,-0.916,-0.088,-2.192,-101.739
 14:38:01.012,eb:33:2e:f9:57:b5, 2085-97-84 00:23:00:2038,0.044,0.011,0.994,0.122,-0.366,-0.732,-0.088,-2.192,-101.75
 14:38:01.012,eb:33:2e:f9:57:b5, 2085-97-90 00:24:00:2042,0.042,0.012,0.996,0.244,-0.427,-0.61,-0.088,-2.197,-101.755
 14:38:01.012,eb:33:2e:f9:57:b5, 2085-97-86 00:22:00:2038,0.042,0.012,0.996,0.305,-0.305,-0.549,-0.082,-2.203,-101.761
 14:38:01.012,eb:33:2e:f9:57:b5, 2085-97-88 00:25:00:2040,0.046,0.011,0.995,0.427,-0.61,-0.427,-0.077,-2.203,-101.766
 14:38:01.042,eb:33:2e:f9:57:b5, 2085-97-96 00:27:00:2046,0.046,0.013,0.998,0.366,-0.244,-0.305,-0.077,-2.208,-101.766
 14:38:01.043,eb:33:2e:f9:57:b5, 2085-97-98 00:28:00:2045,0.047,0.014,0.999,0.244,0.549,-0.305,-0.071,-2.208,-101.772
 14:38:01.043,eb:33:2e:f9:57:b5, 2085-97-98 00:28:00:2049,0.049,0.014,0.999,0.122,1.343,-0.366,-0.071,-2.197,-101.777
 14:38:01.043,eb:33:2e:f9:57:b5, 2085-97-97 00:26:00:2048,0.046,0.014,1,0,2.563,-0.488,-0.066,-2.175,-101.777
 14:38:01.071,eb:33:2e:f9:57:b5, 2085-97-89 00:26:00:2043,0.043,0.013,0.999,0,3.418,-0.61,-0.066,-2.142,-101.783
 14:38:01.071,eb:33:2e:f9:57:b5, 2085-97-86 00:26:00:2041,0.042,0.011,0.997,0,3.967,-0.549,-0.066,-2.104,-101.788
 14:38:01.071,eb:33:2e:f9:57:b5, 2085-97-89 00:24:00:2046,0.041,0.012,0.997,-0.183,4.028,-0.427,-0.071,-2.06,-101.794
 14:38:01.071,eb:33:2e:f9:57:b5, 2085-97-81 00:26:00:2042,0.04,0.012,0.999,-0.122,4.517,-0.366,-0.071,-2.016,-101.799
 14:38:01.133,eb:33:2e:f9:57:b5, 2085-97-80 00:23:00:2042,0.039,0.012,0.997,-0.061,4.395,-0.244,-0.071,-1.972,-101.799
 14:38:01.133,eb:33:2e:f9:57:b5, 2085-97-81 00:25:00:2045,0.041,0.012,0.997,-0.183,4.211,0,-0.071,-1.928,-101.799
 14:38:01.133,eb:33:2e:f9:57:b5, 2085-97-85 00:25:00:2049,0.042,0.012,0.999,-0.244,4.15,0.061,-0.077,-1.884,-101.799
 14:38:01.133,eb:33:2e:f9:57:b5, 2085-97-85 00:27:00:2047,0.04,0.013,1,-0.244,4.822,0.183,-0.077,-1.84,-101.799
 14:38:01.162,eb:33:2e:f9:57:b5, 2085-97-78 00:24:00:2045,0.037,0.012,0.999,-0.183,5.493,0.183,-0.082,-1.785,-101.794
 14:38:01.162,eb:33:2e:f9:57:b5, 2085-97-75 00:22:00:2044,0.036,0.011,0.999,-0.183,5.676,0.305,-0.082,-1.73,-101.794
 14:38:01.162,eb:33:2e:f9:57:b5, 2085-97-69 00:22:00:2041,0.031,0.012,0.998,-0.122,5.798,0.366,-0.088,-1.67,-101.788
 14:38:01.162,eb:33:2e:f9:57:b5, 2085-97-63 00:23:00:2037,0.032,0.011,0.994,-0.061,5.554,0.488,-0.088,-1.615,-101.783
 14:38:01.192,eb:33:2e:f9:57:b5, 2085-97-63 00:24:00:2039,0.029,0.012,0.996,-0.061,5.31,0.549,-0.088,-1.56,-101.777
 14:38:01.192,eb:33:2e:f9:57:b5, 2085-97-54 00:26:00:2033,0.026,0.011,0.994,0,4.883,0.366,-0.088,-1.505,-101.772
 14:38:01.192,eb:33:2e:f9:57:b5, 2085-97-54 00:24:00:2037,0.026,0.012,0.993,0,4.028,0.488,-0.088,-1.461,-101.766
 14:38:01.192,eb:33:2e:f9:57:b5, 2085-97-53 00:24:00:2036,0.025,0.012,0.994,0,3.357,0.488,-0.088,-1.423,-101.755
 14:38:01.283,eb:33:2e:f9:57:b5, 2085-97-55 00:24:00:2039,0.026,0.011,0.994,0,2.686,0.427,-0.088,-1.395,-101.75
 14:38:01.283,eb:33:2e:f9:57:b5, 2085-97-48 00:24:00:2033,0.023,0.012,0.995,0,2.258,0.366,-0.088,-1.368,-101.75
 14:38:01.283,eb:33:2e:f9:57:b5, 2085-97-48 00:25:00:2034,0.022,0.012,0.992,0.183,1.526,0.305,-0.088,-1.351,-101.744
 14:38:01.283,eb:33:2e:f9:57:b5, 2085-97-49 00:26:00:2034,0.023,0.013,0.993,0.183,0.793,0.305,-0.088,-1.335,-101.739
 14:38:01.283,eb:33:2e:f9:57:b5, 2085-97-50 00:26:00:2035,0.025,0.013,0.992,0.183,0.183,0.244,-0.082,-1.329,-101.733
 14:38:01.283,eb:33:2e:f9:57:b5, 2085-97-52 00:25:00:2036,0.026,0.013,0.994,0.183,-0.122,0.244,-0.082,-1.329,-101.733
 14:38:01.283,eb:33:2e:f9:57:b5, 2085-97-58 00:26:00:2041,0.029,0.013,0.995,0.244,-0.427,0.183,-0.077,-1.335,-101.728
 14:38:01.284,eb:33:2e:f9:57:b5, 2085-97-59 00:25:00:2041,0.029,0.012,0.998,0.183,-0.366,0.244,-0.077,-1.34,-101.728
 14:38:01.342,eb:33:2e:f9:57:b5, 2085-97-59 00:28:00:2043,0.028,0.013,0.997,0.183,-0.122,0.183,-0.077,-1.34,-101.722
 14:38:01.342,eb:33:2e:f9:57:b5, 2085-97-55 00:28:00:2040,0.027,0.013,0.997,0.183,0.183,0,-0.071,-1.34,-101.722
 14:38:01.342,eb:33:2e:f9:57:b5, 2085-97-58 00:27:00:2040,0.029,0.013,0.996,0.122,0.061,-0.061,-0.071,-1.335,-101.722
 14:38:01.342,eb:33:2e:f9:57:b5, 2085-97-60 00:28:00:2039,0.027,0.014,0.997,0.122,0.244,-0.183,-0.071,-1.335,-101.728
 14:38:01.403,eb:33:2e:f9:57:b5, 2085-97-57 00:26:00:2041,0.028,0.013,0.996,0.122,0.305,-0.244,-0.066,-1.329,-101.728
 14:38:01.403,eb:33:2e:f9:57:b5, 2085-97-60 00:27:00:2043,0.029,0.013,0.996,0.061,0.183,-0.366,-0.066,-1.324,-101.728
 14:38:01.403,eb:33:2e:f9:57:b5, 2085-97-61 00:27:00:2043,0.029,0.013,0.997,0,0.366,-0.549,-0.066,-1.324,-101.733
 14:38:01.403,eb:33:2e:f9:57:b5, 2085-97-62 00:27:00:2045,0.029,0.013,0.999,0,0.549,-0.671,-0.066,-1.318,-101.739
 14:38:01.403,eb:33:2e:f9:57:b5, 2085-97-52 00:27:00:2041,0.032,0.013,0.999,0,0.671,-0.671,-0.066,-1.307,-101.75
 14:38:01.403,eb:33:2e:f9:57:b5, 2085-97-54 00:25:00:2040,0.025,0.009,1,0,0.732,-0.61,-0.066,-1.302,-101.755
 14:38:01.403,eb:33:2e:f9:57:b5, 2085-97-34 00:132:254:1491,-0.583,0.016,0.996,0.427,0.305,-0.549,-0.06,-1.291,-101.761
 14:38:01.403,eb:33:2e:f9:57:b5, 2085-97-213 00:56:00:2232,0.314,-0.017,0.554,11.292,-54.993,-0.977,0.016,-1.467,-101.777
 14:38:01.461,eb:33:2e:f9:57:b5, 2085-97-81 03:168:00:2751,0.157,0.017,1.222,5.371,-37.17,-2.93,0.099,-2.043,-101.81
 14:38:01.461,eb:33:2e:f9:57:b5, 2085-97-20 00:08:00:1977,-0.015,0.043,1.08,-3.601,20.02,-0.977,0.088,-2.005,-101.827
 14:38:01.461,eb:33:2e:f9:57:b5, 2085-97-37 00:22:00:2014,0.011,0.016,0.951,-2.38,10.559,0.549,0.06,-1.851,-101.821
 14:38:01.461,eb:33:2e:f9:57:b5, 2085-97-247 255:250:255:1969,0.029,0.004,0.976,-0.183,5.737,-0.61,0.049,-1.769,-101.827
 14:38:01.492,eb:33:2e:f9:57:b5, 2085-97-96 00:22:00:2061,0.029,0.007,0.992,0.977,-1.587,-0.122,0.055,-1.763,-101.827
 14:38:01.492,eb:33:2e:f9:57:b5, 2085-97-83 00:38:00:2050,0.049,0.017,0.996,0.366,-1.16,0.61,0.06,-1.774,-101.827
 14:38:01.492,eb:33:2e:f9:57:b5, 2085-97-111 00:28:00:2073,0.052,0.012,1.009,0.122,-0.671,0.671,0.066,-1.785,-101.816
 14:38:01.492,eb:33:2e:f9:57:b5, 2085-97-96 00:29:00:2058,0.038,0.013,1.008,0,1.709,0.732,0.066,-1.78,-101.81
 14:38:01.492,eb:33:2e:f9:57:b5, 2085-113-58 00:36:220:-1410,0.038,0.016,0.999,-0.122,2.502,0.549,0.06,-1.752,-101.805
 14:38:01.523,eb:33:2e:f9:57:b5, 2085-97-85 00:27:00:2053,0.044,0.016,1,-0.244,2.686,0.427,0.06,-1.741,-101.799
 14:38:01.523,eb:33:2e:f9:57:b5, 2085-97-92 00:26:00:2060,0.043,0.012,1.004,-0.183,3.479,0.671,0.06,-1.708,-101.794
 14:38:01.523,eb:33:2e:f9:57:b5, 2085-97-93 00:26:00:2062,0.041,0.014,1.005,-0.061,4.944,0.854,0.055,-1.664,-101.783
 14:38:01.523,eb:33:2e:f9:57:b5, 2085-97-69 00:26:00:2046,0.022,0.012,1.004,0.061,6.592,0.977,0.055,-1.604,-101.772
 14:38:01.582,eb:33:2e:f9:57:b5, 2085-97-30 00:26:00:2015,0.012,0.013,0.989,0.244,6.042,1.221,0.06,-1.538,-101.761
 14:38:01.582,eb:33:2e:f9:57:b5, 2085-97-22 00:29:00:2007,0.011,0.014,0.981,0.488,2.991,1.343,0.06,-1.494,-101.75
 14:38:01.582,eb:33:2e:f9:57:b5, 2085-97-18 00:31:00:2003,0.009,0.015,0.98,0.61,-0.366,1.404,0.066,-1.483,-101.733
 14:38:01.582,eb:33:2e:f9:57:b5, 2085-97-19 00:33:00:2003,0.013,0.016,0.978,0.732,-4.456,1.465,0.071,-1.511,-101.717
 14:38:01.641,eb:33:2e:f9:57:b5, 2085-97-38 00:35:00:2016,0.024,0.017,0.979,0.854,-7.568,1.221,0.082,-1.571,-101.706
 14:38:01.641,eb:33:2e:f9:57:b5, 2085-97-59 00:39:00:2028,0.035,0.018,0.987,0.916,-8.911,0.916,0.093,-1.659,-101.695
 14:38:01.641,eb:33:2e:f9:57:b5, 2085-97-80 00:40:00:2042,0.043,0.02,0.995,0.793,-8.423,0.488,0.099,-1.747,-101.689
 14:38:01.641,eb:33:2e:f9:57:b5, 2085-97-97 00:41:00:2053,0.048,0.02,1,0.61,-6.47,0.122,0.11,-1.818,-101.684
 14:38:01.643,eb:33:2e:f9:57:b5, 2085-97-94 00:40:00:2048,0.043,0.02,1.003,0.366,-3.54,-0.183,0.11,-1.868,-101.689
 14:38:01.643,eb:33:2e:f9:57:b5, 2085-97-93 00:41:00:2048,0.048,0.02,0.999,0.183,-1.465,-0.427,0.115,-1.89,-101.689
 14:38:01.643,eb:33:2e:f9:57:b5, 2085-97-86 00:43:00:2044,0.037,0.02,1.003,0,0.916,-0.732,0.115,-1.895,-101.695
 14:38:01.643,eb:33:2e:f9:57:b5, 2085-97-68 00:39:00:2031,0.031,0.021,0.994,-0.305,1.953,-0.916,0.115,-1.879,-101.706
 14:38:01.703,eb:33:2e:f9:57:b5, 2085-97-59 00:37:00:2023,0.028,0.019,0.99,-0.549,1.221,-1.038,0.11,-1.857,-101.717
 14:38:01.703,eb:33:2e:f9:57:b5, 2085-97-57 00:34:00:2023,0.029,0.018,0.989,-0.793,-0.183,-0.977,0.104,-1.851,-101.722
 14:38:01.703,eb:33:2e:f9:57:b5, 2085-97-62 00:31:00:2030,0.031,0.016,0.99,-0.854,-1.892,-0.854,0.093,-1.862,-101.733
 14:38:01.703,eb:33:2e:f9:57:b5, 2085-97-62 00:27:00:2030,0.03,0.014,0.991,-0.916,-3.54,-0.61,0.088,-1.89,-101.739
 14:38:01.733,eb:33:2e:f9:57:b5, 2085-97-68 00:23:00:2035,0.032,0.012,0.991,-0.916,-5.493,-0.305,0.077,-1.939,-101.744
 14:38:01.733,eb:33:2e:f9:57:b5, 2085-97-85 00:20:00:2047,0.044,0.012,0.992,-0.854,-7.507,0.122,0.066,-2.005,-101.744
 14:38:01.733,eb:33:2e:f9:57:b5, 2085-97-97 00:20:00:2049,0.05,0.01,1,-0.549,-7.996,0.427,0.06,-2.082,-101.744
 14:38:01.733,eb:33:2e:f9:57:b5, 2085-97-114 00:22:00:2062,0.058,0.011,1.002,-0.244,-7.996,0.671,0.055,-2.164,-101.739
 14:38:01.763,eb:33:2e:f9:57:b5, 2085-97-112 00:25:00:2058,0.051,0.011,1.009,0.183,-6.104,0.488,0.055,-2.23,-101.733
 14:38:01.763,eb:33:2e:f9:57:b5, 2085-97-110 00:27:00:2056,0.054,0.013,1.002,0.488,-4.761,0.366,0.06,-2.285,-101.728
 14:38:01.763,eb:33:2e:f9:57:b5, 2085-97-110 00:31:00:2050,0.05,0.015,1.002,0.671,-3.052,0.183,0.066,-2.324,-101.722
 14:38:01.763,eb:33:2e:f9:57:b5, 2085-97-101 00:32:00:2043,0.046,0.016,0.998,0.671,-1.465,0,0.071,-2.346,-101.722
 14:38:01.824,eb:33:2e:f9:57:b5, 2085-97-95 00:36:00:2038,0.047,0.017,0.996,0.61,-0.671,-0.122,0.082,-2.351,-101.722
 14:38:01.824,eb:33:2e:f9:57:b5, 2085-97-97 00:36:00:2039,0.048,0.018,0.996,0.427,-0.183,-0.244,0.088,-2.357,-101.728
 14:38:01.824,eb:33:2e:f9:57:b5, 2085-97-98 00:37:00:2040,0.046,0.019,0.996,0.366,0.488,-0.366,0.088,-2.357,-101.728
 14:38:01.824,eb:33:2e:f9:57:b5, 2085-97-89 00:38:00:2034,0.042,0.019,0.995,0.122,1.221,-0.671,0.093,-2.346,-101.733
 14:38:01.852,eb:33:2e:f9:57:b5, 2085-97-84 00:38:00:2028,0.04,0.019,0.992,0,1.099,-0.793,0.093,-2.329,-101.744
 14:38:01.852,eb:33:2e:f9:57:b5, 2085-97-82 00:38:00:2027,0.04,0.018,0.99,-0.244,0.305,-0.977,0.093,-2.324,-101.75
 14:38:01.852,eb:33:2e:f9:57:b5, 2085-97-86 00:35:00:2032,0.043,0.018,0.99,-0.427,-0.549,-1.038,0.088,-2.324,-101.761
 14:38:01.852,eb:33:2e:f9:57:b5, 2085-97-84 00:37:00:2029,0.042,0.017,0.993,-0.61,-1.099,-1.16,0.082,-2.335,-101.772
 14:38:01.912,eb:33:2e:f9:57:b5, 2085-97-88 00:34:00:2035,0.043,0.016,0.992,-0.732,-2.136,-1.16,0.077,-2.346,-101.783
 14:38:01.912,eb:33:2e:f9:57:b5, 2085-97-89 00:31:00:2033,0.044,0.016,0.993,-0.793,-2.563,-1.221,0.071,-2.373,-101.799
 14:38:01.912,eb:33:2e:f9:57:b5, 2085-97-96 00:30:00:2038,0.048,0.014,0.993,-0.793,-3.052,-1.099,0.06,-2.401,-101.81
 14:38:01.913,eb:33:2e:f9:57:b5, 2085-97-106 00:28:00:2047,0.053,0.014,0.996,-0.671,-2.869,-1.16,0.055,-2.428,-101.821
 14:38:01.943,eb:33:2e:f9:57:b5, 2085-97-107 00:28:00:2046,0.053,0.013,1,-0.549,-1.831,-1.16,0.049,-2.45,-101.832
 14:38:01.943,eb:33:2e:f9:57:b5, 2085-97-108 00:29:00:2045,0.053,0.014,1,-0.549,-0.977,-0.977,0.044,-2.466,-101.843
 14:38:01.943,eb:33:2e:f9:57:b5, 2085-97-107 00:29:00:2044,0.05,0.014,0.999,-0.488,0,-0.916,0.038,-2.466,-101.854
 14:38:01.943,eb:33:2e:f9:57:b5, 2085-97-103 00:28:00:2043,0.05,0.014,0.998,-0.488,0.427,-0.854,0.038,-2.466,-101.86
 14:38:01.972,eb:33:2e:f9:57:b5, 2085-97-101 00:28:00:2041,0.048,0.014,0.997,-0.427,0.488,-0.61,0.033,-2.461,-101.871
 14:38:01.972,eb:33:2e:f9:57:b5, 2085-97-100 00:28:00:2040,0.049,0.013,0.997,-0.366,0.305,-0.427,0.027,-2.455,-101.871
 14:38:01.972,eb:33:2e:f9:57:b5, 2085-97-100 00:28:00:2039,0.047,0.014,0.996,-0.427,0.244,-0.305,0.022,-2.45,-101.876
 14:38:01.972,eb:33:2e:f9:57:b5, 2085-97-92 00:28:00:2035,0.044,0.013,0.995,-0.244,0.061,-0.244,0.022,-2.45,-101.882
 14:38:02.002,eb:33:2e:f9:57:b5, 2085-97-90 00:27:00:2033,0.042,0.013,0.994,-0.183,-0.366,-0.183,0.016,-2.45,-101.882
 14:38:02.002,eb:33:2e:f9:57:b5, 2085-97-90 00:25:00:2034,0.046,0.012,0.991,-0.061,-1.465,0.122,0.016,-2.455,-101.882
 14:38:02.002,eb:33:2e:f9:57:b5, 2085-97-97 00:26:00:2038,0.048,0.012,0.995,0,-2.136,0.244,0.016,-2.477,-101.882
 14:38:02.002,eb:33:2e:f9:57:b5, 2085-97-101 00:27:00:2039,0.051,0.013,0.996,0.061,-2.563,0.427,0.016,-2.499,-101.876
 14:38:02.062,eb:33:2e:f9:57:b5, 2085-97-105 00:28:00:2042,0.052,0.013,0.996,0,-2.625,0.488,0.016,-2.527,-101.871
 14:38:02.062,eb:33:2e:f9:57:b5, 2085-97-110 00:28:00:2043,0.052,0.013,0.997,0.061,-2.197,0.488,0.016,-2.549,-101.865
 14:38:02.062,eb:33:2e:f9:57:b5, 2085-97-111 00:29:00:2044,0.054,0.014,0.998,0,-1.526,0.427,0.016,-2.571,-101.86
 14:38:02.062,eb:33:2e:f9:57:b5, 2085-97-110 00:32:00:2044,0.054,0.015,0.998,0,-0.916,0.366,0.016,-2.582,-101.854
 14:38:02.092,eb:33:2e:f9:57:b5, 2085-97-111 00:30:00:2044,0.055,0.015,0.998,0,-0.427,0.427,0.016,-2.587,-101.849
 14:38:02.092,eb:33:2e:f9:57:b5, 2085-97-108 00:30:00:2042,0.052,0.015,0.998,-0.122,0,0.366,0.016,-2.587,-101.843
 14:38:02.092,eb:33:2e:f9:57:b5, 2085-97-106 00:29:00:2040,0.051,0.015,0.997,-0.122,0.244,0.366,0.016,-2.582,-101.843
 14:38:02.092,eb:33:2e:f9:57:b5, 2085-97-100 00:30:00:2037,0.05,0.014,0.996,-0.122,0.305,0.366,0.011,-2.582,-101.838
 14:38:02.123,eb:33:2e:f9:57:b5, 2085-97-101 00:30:00:2036,0.049,0.015,0.995,-0.183,0.061,0.366,0.011,-2.576,-101.832
 14:38:02.123,eb:33:2e:f9:57:b5, 2085-97-102 00:30:00:2038,0.05,0.015,0.995,-0.122,-0.061,0.366,0.011,-2.576,-101.827
 14:38:02.123,eb:33:2e:f9:57:b5, 2085-113-58 00:23:218:-1515,0.049,0.014,0.996,-0.183,-0.183,0.244,0.005,-2.576,-101.827
 14:38:02.123,eb:33:2e:f9:57:b5, 2085-97-104 00:29:00:2038,0.051,0.014,0.995,-0.183,-0.366,0.244,0.005,-2.582,-101.821
 14:38:02.213,eb:33:2e:f9:57:b5, 2085-97-105 00:27:00:2039,0.051,0.014,0.995,-0.122,-0.488,0.305,0.005,-2.582,-101.821
 14:38:02.213,eb:33:2e:f9:57:b5, 2085-97-108 00:28:00:2041,0.053,0.013,0.996,-0.061,-0.488,0.183,0,-2.587,-101.816
 14:38:02.213,eb:33:2e:f9:57:b5, 2085-97-106 00:27:00:2039,0.052,0.014,0.997,-0.061,-0.183,0.244,0,-2.593,-101.81
 14:38:02.213,eb:33:2e:f9:57:b5, 2085-97-106 00:29:00:2039,0.051,0.014,0.996,0,0,0.183,0,-2.593,-101.81
 14:38:02.240,eb:33:2e:f9:57:b5, 2085-97-107 00:30:00:2040,0.053,0.015,0.996,0,0.061,0.183,0,-2.593,-101.805
 14:38:02.240,eb:33:2e:f9:57:b5, 2085-97-105 00:29:00:2040,0.05,0.015,0.997,0.061,0.549,0.061,0,-2.587,-101.805
 14:38:02.240,eb:33:2e:f9:57:b5, 2085-97-103 00:27:00:2038,0.05,0.014,0.996,0,0.61,0.061,0,-2.582,-101.805
 14:38:02.240,eb:33:2e:f9:57:b5, 2085-97-102 00:29:00:2040,0.05,0.014,0.996,0,0.488,0.122,0,-2.571,-101.805
 14:38:02.242,eb:33:2e:f9:57:b5, 2085-97-99 00:29:00:2037,0.048,0.014,0.996,0.061,0.366,0.122,0,-2.565,-101.799
 14:38:02.242,eb:33:2e:f9:57:b5, 2085-97-99 00:30:00:2036,0.048,0.014,0.995,0,0.305,0.183,0.005,-2.565,-101.799
 14:38:02.242,eb:33:2e:f9:57:b5, 2085-97-98 00:29:00:2036,0.049,0.015,0.994,0.061,0,0.122,0.005,-2.56,-101.794
 14:38:02.242,eb:33:2e:f9:57:b5, 2085-97-100 00:30:00:2036,0.05,0.015,0.994,0.061,-0.183,0.061,0.005,-2.56,-101.794
 14:38:02.333,eb:33:2e:f9:57:b5, 2085-97-102 00:28:00:2037,0.05,0.014,0.994,0.122,-0.427,0.183,0.005,-2.565,-101.794
 14:38:02.333,eb:33:2e:f9:57:b5, 2085-97-106 00:27:00:2038,0.052,0.014,0.995,0.122,-0.61,0.183,0.005,-2.571,-101.788
 14:38:02.333,eb:33:2e:f9:57:b5, 2085-97-107 00:31:00:2042,0.052,0.014,0.996,0.122,-0.549,0.244,0.011,-2.576,-101.788
 14:38:02.333,eb:33:2e:f9:57:b5, 2085-97-106 00:29:00:2040,0.052,0.014,0.996,0.061,-0.244,0.305,0.011,-2.582,-101.783
 14:38:02.333,eb:33:2e:f9:57:b5, 2085-97-103 00:30:00:2038,0.051,0.015,0.996,0.061,0,0.244,0.011,-2.582,-101.783
 14:38:02.333,eb:33:2e:f9:57:b5, 2085-97-103 00:30:00:2036,0.049,0.015,0.996,0.061,0.122,0.122,0.011,-2.582,-101.777
 14:38:02.333,eb:33:2e:f9:57:b5, 2085-97-101 00:30:00:2038,0.05,0.015,0.995,0,0.061,0.061,0.011,-2.576,-101.777
 14:38:02.333,eb:33:2e:f9:57:b5, 2085-97-103 00:30:00:2038,0.052,0.015,0.995,0.061,0,0.061,0.011,-2.576,-101.777
 14:38:02.362,eb:33:2e:f9:57:b5, 2085-97-106 00:29:00:2040,0.052,0.014,0.996,0.061,0,0.061,0.016,-2.576,-101.772
 14:38:02.362,eb:33:2e:f9:57:b5, 2085-97-106 00:30:00:2041,0.051,0.016,0.996,0.061,0.122,0.122,0.016,-2.576,-101.772
 14:38:02.362,eb:33:2e:f9:57:b5, 2085-97-103 00:28:00:2038,0.049,0.014,0.996,0,0.244,0.183,0.016,-2.571,-101.772
 14:38:02.362,eb:33:2e:f9:57:b5, 2085-97-101 00:31:00:2039,0.049,0.014,0.995,0,0.061,0.183,0.016,-2.571,-101.766
 14:38:02.422,eb:33:2e:f9:57:b5, 2085-97-102 00:28:00:2038,0.05,0.014,0.995,0.061,-0.183,0.244,0.016,-2.571,-101.766
 14:38:02.422,eb:33:2e:f9:57:b5, 2085-97-102 00:29:00:2039,0.05,0.014,0.995,0.122,-0.305,0.244,0.016,-2.571,-101.761
 14:38:02.422,eb:33:2e:f9:57:b5, 2085-97-104 00:29:00:2040,0.052,0.015,0.996,0.122,-0.305,0.244,0.016,-2.576,-101.761
 14:38:02.422,eb:33:2e:f9:57:b5, 2085-97-107 00:29:00:2041,0.051,0.014,0.997,0.061,-0.183,0.244,0.022,-2.576,-101.755
 14:38:02.453,eb:33:2e:f9:57:b5, 2085-97-105 00:30:00:2041,0.05,0.015,0.997,0.061,0,0.183,0.022,-2.576,-101.75
 14:38:02.453,eb:33:2e:f9:57:b5, 2085-97-104 00:30:00:2040,0.051,0.015,0.996,0.061,0.122,0.183,0.022,-2.576,-101.75
 14:38:02.453,eb:33:2e:f9:57:b5, 2085-97-101 00:29:00:2038,0.049,0.014,0.995,0.061,0.244,0.122,0.022,-2.571,-101.75
 14:38:02.453,eb:33:2e:f9:57:b5, 2085-97-101 00:31:00:2038,0.05,0.015,0.995,0.061,0.122,0.122,0.022,-2.571,-101.744
 14:38:02.482,eb:33:2e:f9:57:b5, 2085-97-104 00:30:00:2039,0.05,0.014,0.995,0.122,0.061,0,0.022,-2.571,-101.744
 14:38:02.482,eb:33:2e:f9:57:b5, 2085-97-104 00:30:00:2039,0.051,0.014,0.996,0.061,0.122,0,0.027,-2.565,-101.744
 14:38:02.482,eb:33:2e:f9:57:b5, 2085-97-103 00:30:00:2039,0.05,0.015,0.995,0.122,0.183,0,0.027,-2.565,-101.744
 14:38:02.482,eb:33:2e:f9:57:b5, 2085-97-101 00:30:00:2038,0.049,0.015,0.996,0.061,0.244,-0.061,0.027,-2.56,-101.744
 14:38:02.601,eb:33:2e:f9:57:b5, 2085-97-101 00:32:00:2036,0.05,0.015,0.995,0,0.366,-0.122,0.027,-2.56,-101.744
 14:38:02.601,eb:33:2e:f9:57:b5, 2085-97-102 00:30:00:2038,0.049,0.015,0.996,0.061,0.305,-0.183,0.027,-2.554,-101.744
 14:38:02.601,eb:33:2e:f9:57:b5, 2085-97-103 00:31:00:2040,0.051,0.015,0.996,0.122,0.305,-0.244,0.033,-2.549,-101.75
 14:38:02.601,eb:33:2e:f9:57:b5, 2085-97-103 00:31:00:2040,0.05,0.015,0.996,0.061,0.305,-0.183,0.033,-2.543,-101.75
 14:38:02.603,eb:33:2e:f9:57:b5, 2085-97-102 00:31:00:2037,0.049,0.015,0.996,0,0.427,-0.244,0.033,-2.543,-101.755
 14:38:02.603,eb:33:2e:f9:57:b5, 2085-97-101 00:31:00:2037,0.049,0.015,0.996,0,0.549,-0.244,0.049,-2.56,-101.755
 14:38:02.603,eb:33:2e:f9:57:b5, 2085-97-101 00:32:00:2037,0.049,0.015,0.995,0.061,0.61,-0.305,0.049,-2.56,-101.755
 14:38:02.603,eb:33:2e:f9:57:b5, 2085-97-100 00:31:00:2037,0.049,0.016,0.995,0.061,0.549,-0.427,0.06,-2.571,-101.75
 14:38:02.605,eb:33:2e:f9:57:b5, 2085-97-102 00:31:00:2039,0.051,0.015,0.995,0,0.549,-0.366,0.06,-2.571,-101.75
 14:38:02.605,eb:33:2e:f9:57:b5, 2085-97-103 00:30:00:2039,0.05,0.015,0.996,0,0.488,-0.427,0.066,-2.576,-101.75
 14:38:02.605,eb:33:2e:f9:57:b5, 2085-97-101 00:29:00:2040,0.05,0.014,0.996,0,0.427,-0.366,0.066,-2.576,-101.75
 14:38:02.605,eb:33:2e:f9:57:b5, 2085-97-100 00:29:00:2038,0.049,0.014,0.997,0,0.488,-0.305,0.071,-2.582,-101.75
 14:38:02.663,eb:33:2e:f9:57:b5, 2085-97-96 00:31:00:2037,0.048,0.014,0.995,0,0.427,-0.244,0.071,-2.582,-101.75
 14:38:02.663,eb:33:2e:f9:57:b5, 2085-97-97 00:31:00:2036,0.048,0.015,0.995,0,0.305,-0.305,0.071,-2.582,-101.75
 14:38:02.663,eb:33:2e:f9:57:b5, 2085-97-99 00:32:00:2038,0.048,0.016,0.994,0,0.183,-0.244,0.071,-2.582,-101.75
 14:38:02.663,eb:33:2e:f9:57:b5, 2085-97-100 00:30:00:2036,0.049,0.015,0.995,0.061,0,-0.305,0.077,-2.587,-101.75
 14:38:02.724,eb:33:2e:f9:57:b5, 2085-97-102 00:29:00:2041,0.05,0.015,0.996,0,0,-0.244,0.077,-2.587,-101.75
 14:38:02.724,eb:33:2e:f9:57:b5, 2085-97-101 00:31:00:2041,0.048,0.015,0.996,0,0,-0.244,0.077,-2.587,-101.75
 14:38:02.724,eb:33:2e:f9:57:b5, 2085-97-99 00:31:00:2038,0.049,0.015,0.995,0,0.061,-0.305,0.077,-2.587,-101.75
 14:38:02.724,eb:33:2e:f9:57:b5, 2085-97-101 00:32:00:2040,0.05,0.016,0.995,0,0.122,-0.305,0.082,-2.587,-101.75
 14:38:02.753,eb:33:2e:f9:57:b5, 2085-97-100 00:32:00:2037,0.049,0.015,0.995,0.061,0.122,-0.366,0.082,-2.587,-101.75
 14:38:02.753,eb:33:2e:f9:57:b5, 2085-97-99 00:31:00:2039,0.05,0.015,0.996,0,0,-0.305,0.082,-2.593,-101.75
 14:38:02.753,eb:33:2e:f9:57:b5, 2085-97-101 00:31:00:2040,0.049,0.015,0.996,0,0.061,-0.305,0.082,-2.593,-101.75
 14:38:02.753,eb:33:2e:f9:57:b5, 2085-97-99 00:30:00:2039,0.048,0.015,0.995,0,0.183,-0.366,0.082,-2.593,-101.75
 14:38:02.784,eb:33:2e:f9:57:b5, 2085-97-98 00:31:00:2036,0.048,0.015,0.995,0,0.183,-0.427,0.082,-2.593,-101.75
 14:38:02.784,eb:33:2e:f9:57:b5, 2085-97-100 00:31:00:2038,0.049,0.016,0.994,0,0,-0.488,0.082,-2.593,-101.75
 14:38:02.784,eb:33:2e:f9:57:b5, 2085-97-100 00:31:00:2038,0.049,0.015,0.994,0,0.183,-0.671,0.082,-2.593,-101.75
 14:38:02.784,eb:33:2e:f9:57:b5, 2085-97-100 00:30:00:2037,0.048,0.015,0.995,0,0,-0.671,0.082,-2.593,-101.75
 14:38:02.784,eb:33:2e:f9:57:b5, 2085-113-81 00:193:80:-474,0.047,0.015,0.996,0,0,-0.61,0.082,-2.593,-101.75
 14:38:02.812,eb:33:2e:f9:57:b5, 2085-97-100 00:29:00:2039,0.053,0.016,0.994,0,-0.305,-0.549,0.088,-2.593,-101.75
 14:38:02.812,eb:33:2e:f9:57:b5, 2085-97-101 00:30:00:2041,0.049,0.015,0.999,0,0,-0.488,0.088,-2.593,-101.75
 14:38:02.812,eb:33:2e:f9:57:b5, 2085-97-99 00:31:00:2037,0.048,0.015,0.995,0,0,-0.488,0.088,-2.598,-101.744
 14:38:02.812,eb:33:2e:f9:57:b5, 2085-97-98 00:29:00:2037,0.048,0.015,0.995,0,-0.122,-0.427,0.088,-2.598,-101.744
 14:38:02.872,eb:33:2e:f9:57:b5, 2085-97-101 00:32:00:2040,0.049,0.015,0.995,0,-0.305,-0.366,0.088,-2.598,-101.744
 14:38:02.872,eb:33:2e:f9:57:b5, 2085-97-100 00:30:00:2037,0.048,0.015,0.996,0,-0.305,-0.305,0.088,-2.598,-101.744
 14:38:02.872,eb:33:2e:f9:57:b5, 2085-97-100 00:31:00:2038,0.049,0.014,0.996,0,-0.427,-0.366,0.088,-2.598,-101.744
 14:38:02.872,eb:33:2e:f9:57:b5, 2085-97-99 00:31:00:2038,0.05,0.015,0.996,0,-0.427,-0.244,0.088,-2.598,-101.744
 14:38:02.962,eb:33:2e:f9:57:b5, 2085-97-101 00:31:00:2040,0.049,0.015,0.996,0,-0.366,-0.244,0.088,-2.598,-101.744
 14:38:02.962,eb:33:2e:f9:57:b5, 2085-97-100 00:31:00:2039,0.05,0.015,0.996,0,-0.183,-0.305,0.088,-2.598,-101.744
 14:38:02.962,eb:33:2e:f9:57:b5, 2085-97-101 00:30:00:2039,0.049,0.014,0.995,0,-0.061,-0.366,0.088,-2.598,-101.744
 14:38:02.963,eb:33:2e:f9:57:b5, 2085-97-101 00:30:00:2039,0.049,0.015,0.996,0,-0.061,-0.366,0.088,-2.598,-101.744
 14:38:02.963,eb:33:2e:f9:57:b5, 2085-97-100 00:30:00:2039,0.05,0.015,0.996,-0.061,0,-0.366,0.088,-2.598,-101.744
 14:38:02.963,eb:33:2e:f9:57:b5, 2085-97-101 00:29:00:2038,0.049,0.015,0.996,-0.061,0.061,-0.366,0.088,-2.598,-101.744
 14:38:02.963,eb:33:2e:f9:57:b5, 2085-97-99 00:32:00:2040,0.049,0.016,0.996,0,0.061,-0.366,0.093,-2.598,-101.744
 14:38:02.963,eb:33:2e:f9:57:b5, 2085-97-100 00:32:00:2038,0.048,0.016,0.996,0,0,-0.366,0.093,-2.598,-101.744
 14:38:02.967,eb:33:2e:f9:57:b5, 2085-97-100 00:31:00:2038,0.049,0.016,0.996,0,-0.061,-0.427,0.093,-2.598,-101.744
 14:38:02.967,eb:33:2e:f9:57:b5, 2085-97-100 00:31:00:2038,0.049,0.015,0.996,0,-0.305,-0.366,0.093,-2.598,-101.744
 14:38:02.967,eb:33:2e:f9:57:b5, 2085-97-101 00:33:00:2039,0.05,0.016,0.996,0,-0.305,-0.366,0.093,-2.598,-101.744
 14:38:02.967,eb:33:2e:f9:57:b5, 2085-97-101 00:31:00:2039,0.05,0.016,0.995,-0.061,-0.183,-0.366,0.093,-2.598,-101.744
 14:38:03.022,eb:33:2e:f9:57:b5, 2085-97-104 00:31:00:2038,0.05,0.015,0.996,-0.061,-0.183,-0.366,0.093,-2.604,-101.744
 14:38:03.022,eb:33:2e:f9:57:b5, 2085-97-99 00:30:00:2039,0.049,0.015,0.995,-0.122,-0.183,-0.244,0.093,-2.604,-101.744
 14:38:03.022,eb:33:2e:f9:57:b5, 2085-97-101 00:31:00:2039,0.049,0.015,0.996,0,-0.183,-0.244,0.093,-2.604,-101.744
 14:38:03.022,eb:33:2e:f9:57:b5, 2085-97-100 00:29:00:2038,0.05,0.014,0.996,-0.061,-0.183,-0.183,0.093,-2.604,-101.744
 14:38:03.052,eb:33:2e:f9:57:b5, 2085-97-103 00:29:00:2039,0.049,0.014,0.996,-0.061,-0.183,-0.183,0.093,-2.604,-101.744
 14:38:03.052,eb:33:2e:f9:57:b5, 2085-97-102 00:32:00:2038,0.049,0.015,0.996,-0.061,-0.122,-0.122,0.093,-2.604,-101.744
 14:38:03.052,eb:33:2e:f9:57:b5, 2085-97-102 00:31:00:2040,0.049,0.015,0.995,-0.061,-0.061,-0.061,0.093,-2.604,-101.744
 14:38:03.052,eb:33:2e:f9:57:b5, 2085-97-101 00:29:00:2041,0.05,0.014,0.997,-0.061,0,-0.061,0.093,-2.604,-101.744
 14:38:03.172,eb:33:2e:f9:57:b5, 2085-97-102 00:31:00:2041,0.049,0.015,0.997,-0.061,0,-0.122,0.093,-2.604,-101.744
 14:38:03.172,eb:33:2e:f9:57:b5, 2085-97-100 00:31:00:2037,0.049,0.016,0.996,-0.061,0,-0.061,0.093,-2.604,-101.744
 14:38:03.172,eb:33:2e:f9:57:b5, 2085-97-102 00:30:00:2040,0.049,0.015,0.995,-0.061,-0.122,-0.122,0.093,-2.604,-101.744
 14:38:03.172,eb:33:2e:f9:57:b5, 2085-97-101 00:31:00:2038,0.049,0.015,0.996,-0.122,0,-0.061,0.093,-2.604,-101.733
 14:38:03.172,eb:33:2e:f9:57:b5, 2085-97-100 00:30:00:2039,0.049,0.015,0.996,-0.061,-0.061,-0.061,0.104,-2.609,-101.733
 14:38:03.172,eb:33:2e:f9:57:b5, 2085-97-100 00:30:00:2040,0.049,0.015,0.996,-0.061,-0.061,-0.122,0.104,-2.609,-101.722
 14:38:03.172,eb:33:2e:f9:57:b5, 2085-97-101 00:31:00:2040,0.05,0.015,0.997,-0.061,0,-0.122,0.104,-2.615,-101.722
 14:38:03.172,eb:33:2e:f9:57:b5, 2085-97-102 00:30:00:2039,0.05,0.015,0.996,-0.061,-0.061,-0.061,0.104,-2.615,-101.711
 14:38:03.202,eb:33:2e:f9:57:b5, 2085-97-103 00:31:00:2039,0.05,0.015,0.996,-0.122,0,-0.061,0.104,-2.615,-101.711
 14:38:03.202,eb:33:2e:f9:57:b5, 2085-97-103 00:31:00:2040,0.05,0.015,0.996,-0.122,0.061,0,0.104,-2.615,-101.7
 14:38:03.202,eb:33:2e:f9:57:b5, 2085-97-101 00:30:00:2039,0.049,0.015,0.996,-0.183,0.122,0,0.104,-2.615,-101.7
 14:38:03.202,eb:33:2e:f9:57:b5, 2085-97-100 00:29:00:2038,0.049,0.015,0.995,-0.122,0.122,-0.061,0.104,-2.615,-101.695
 14:38:03.233,eb:33:2e:f9:57:b5, 2085-97-101 00:29:00:2038,0.049,0.014,0.996,-0.122,0.122,0,0.11,-2.615,-101.695
 14:38:03.233,eb:33:2e:f9:57:b5, 2085-97-100 00:30:00:2038,0.05,0.015,0.996,-0.122,0.183,-0.122,0.11,-2.615,-101.684
 14:38:03.233,eb:33:2e:f9:57:b5, 2085-97-102 00:30:00:2038,0.049,0.015,0.997,-0.122,0.183,-0.183,0.11,-2.615,-101.684
 14:38:03.233,eb:33:2e:f9:57:b5, 2085-97-102 00:30:00:2041,0.049,0.014,0.995,-0.122,0.061,-0.061,0.11,-2.615,-101.673
 14:38:03.262,eb:33:2e:f9:57:b5, 2085-97-100 00:30:00:2040,0.049,0.015,0.996,-0.122,0.183,-0.061,0.11,-2.615,-101.673
 14:38:03.262,eb:33:2e:f9:57:b5, 2085-97-99 00:30:00:2037,0.049,0.014,0.996,-0.122,0.244,-0.061,0.11,-2.615,-101.662
 14:38:03.262,eb:33:2e:f9:57:b5, 2085-97-100 00:32:00:2039,0.047,0.015,0.995,-0.061,0.183,-0.122,0.11,-2.615,-101.662
 14:38:03.262,eb:33:2e:f9:57:b5, 2085-97-99 00:32:00:2037,0.049,0.015,0.994,-0.061,0,-0.183,0.11,-2.615,-101.656
 14:38:03.293,eb:33:2e:f9:57:b5, 2085-97-97 00:32:00:2037,0.048,0.015,0.996,-0.122,0,-0.244,0.11,-2.615,-101.656
 14:38:03.293,eb:33:2e:f9:57:b5, 2085-97-104 00:31:00:2041,0.049,0.015,0.995,-0.122,-0.305,-0.366,0.11,-2.615,-101.646
 14:38:03.293,eb:33:2e:f9:57:b5, 2085-97-100 00:31:00:2039,0.05,0.015,0.995,-0.122,-0.122,-0.427,0.11,-2.615,-101.646
 14:38:03.293,eb:33:2e:f9:57:b5, 2085-97-99 00:30:00:2037,0.051,0.014,0.996,-0.122,0,-0.488,0.11,-2.615,-101.635
 14:38:03.352,eb:33:2e:f9:57:b5, 2085-97-101 00:30:00:2039,0.047,0.015,0.997,-0.122,0,-0.488,0.11,-2.615,-101.635
 14:38:03.352,eb:33:2e:f9:57:b5, 2085-97-102 00:30:00:2040,0.049,0.015,0.995,-0.122,-0.061,-0.549,0.11,-2.615,-101.629
 14:38:03.352,eb:33:2e:f9:57:b5, 2085-97-97 00:31:00:2035,0.049,0.014,0.995,-0.183,0,-0.549,0.11,-2.615,-101.629
 14:38:03.352,eb:33:2e:f9:57:b5, 2085-97-99 00:29:00:2039,0.05,0.015,0.996,-0.122,-0.061,-0.488,0.11,-2.615,-101.618
 14:38:03.382,eb:33:2e:f9:57:b5, 2085-97-101 00:30:00:2041,0.049,0.015,0.997,-0.183,-0.122,-0.549,0.11,-2.615,-101.618
 14:38:03.382,eb:33:2e:f9:57:b5, 2085-97-99 00:29:00:2038,0.049,0.014,0.997,-0.122,0,-0.61,0.11,-2.615,-101.607
 14:38:03.382,eb:33:2e:f9:57:b5, 2085-97-102 00:32:00:2038,0.049,0.015,0.995,-0.183,0,-0.488,0.115,-2.615,-101.607
 14:38:03.382,eb:33:2e:f9:57:b5, 2085-97-102 00:29:00:2037,0.05,0.015,0.996,-0.122,-0.061,-0.488,0.115,-2.615,-101.602
 14:38:03.412,eb:33:2e:f9:57:b5, 2085-97-102 00:29:00:2038,0.049,0.014,0.996,-0.183,-0.061,-0.549,0.115,-2.615,-101.602
 14:38:03.412,eb:33:2e:f9:57:b5, 2085-97-101 00:31:00:2036,0.049,0.014,0.995,-0.183,-0.122,-0.488,0.115,-2.615,-101.591
 14:38:03.412,eb:33:2e:f9:57:b5, 2085-97-99 00:30:00:2039,0.049,0.015,0.996,-0.122,-0.244,-0.488,0.115,-2.62,-101.591
 14:38:03.412,eb:33:2e:f9:57:b5, 2085-97-102 00:30:00:2041,0.049,0.015,0.996,-0.183,-0.183,-0.427,0.115,-2.62,-101.58
 14:38:03.472,eb:33:2e:f9:57:b5, 2085-97-102 00:29:00:2039,0.048,0.015,0.995,-0.183,-0.183,-0.488,0.115,-2.62,-101.58
 14:38:03.472,eb:33:2e:f9:57:b5, 2085-97-102 00:27:00:2039,0.049,0.014,0.994,-0.183,-0.244,-0.488,0.115,-2.62,-101.574
 14:38:03.472,eb:33:2e:f9:57:b5, 2085-97-104 00:30:00:2040,0.049,0.014,0.995,-0.122,-0.305,-0.427,0.115,-2.62,-101.574
 14:38:03.472,eb:33:2e:f9:57:b5, 2085-97-103 00:27:00:2039,0.05,0.013,0.995,-0.122,-0.305,-0.305,0.115,-2.62,-101.563
 14:38:03.503,eb:33:2e:f9:57:b5, 2085-97-103 00:29:00:2040,0.051,0.013,0.996,-0.122,-0.305,-0.305,0.115,-2.62,-101.563
 14:38:03.503,eb:33:2e:f9:57:b5, 2085-97-102 00:29:00:2039,0.051,0.014,0.997,-0.122,-0.244,-0.305,0.115,-2.62,-101.552
 14:38:03.503,eb:33:2e:f9:57:b5, 2085-97-104 00:28:00:2041,0.05,0.014,0.997,-0.122,-0.122,-0.244,0.115,-2.62,-101.552
 14:38:03.503,eb:33:2e:f9:57:b5, 2085-113-58 00:202:219:-1590,0.05,0.013,0.996,-0.183,0,-0.183,0.115,-2.62,-101.547
 14:38:03.533,eb:33:2e:f9:57:b5, 2085-97-104 00:28:00:2043,0.05,0.014,0.996,-0.183,-0.061,-0.183,0.115,-2.62,-101.547
 14:38:03.533,eb:33:2e:f9:57:b5, 2085-97-101 00:29:00:2039,0.05,0.014,0.996,-0.122,0.061,-0.122,0.115,-2.62,-101.547
 14:38:03.533,eb:33:2e:f9:57:b5, 2085-97-102 00:28:00:2040,0.05,0.014,0.996,-0.183,0,-0.122,0.115,-2.62,-101.536
 14:38:03.533,eb:33:2e:f9:57:b5, 2085-97-103 00:28:00:2038,0.05,0.015,0.996,-0.122,0.061,-0.244,0.115,-2.62,-101.536
 14:38:03.622,eb:33:2e:f9:57:b5, 2085-97-100 00:27:00:2038,0.049,0.013,0.996,-0.122,0.061,-0.183,0.115,-2.62,-101.53
 14:38:03.622,eb:33:2e:f9:57:b5, 2085-97-104 00:27:00:2041,0.05,0.013,0.996,-0.061,0,-0.183,0.115,-2.62,-101.53
 14:38:03.622,eb:33:2e:f9:57:b5, 2085-97-104 00:31:00:2038,0.049,0.014,0.996,-0.122,0.061,-0.183,0.115,-2.62,-101.519
 14:38:03.622,eb:33:2e:f9:57:b5, 2085-97-102 00:27:00:2041,0.05,0.015,0.994,-0.061,0.061,-0.244,0.115,-2.62,-101.519
 14:38:03.624,eb:33:2e:f9:57:b5, 2085-97-97 00:28:00:2036,0.05,0.013,0.997,-0.061,0.183,-0.244,0.115,-2.62,-101.508
 14:38:03.624,eb:33:2e:f9:57:b5, 2085-97-101 00:28:00:2040,0.049,0.014,0.996,-0.061,0,-0.244,0.115,-2.62,-101.508
 14:38:03.624,eb:33:2e:f9:57:b5, 2085-97-100 00:29:00:2037,0.05,0.014,0.995,0,0,-0.183,0.115,-2.62,-101.503
 14:38:03.624,eb:33:2e:f9:57:b5, 2085-97-101 00:29:00:2038,0.049,0.014,0.996,0,-0.122,-0.244,0.115,-2.626,-101.503
 14:38:03.651,eb:33:2e:f9:57:b5, 2085-97-100 00:29:00:2038,0.047,0.014,0.995,0,-0.183,-0.244,0.115,-2.626,-101.492
 14:38:03.651,eb:33:2e:f9:57:b5, 2085-97-106 00:28:00:2042,0.051,0.015,0.994,0,-0.671,-0.183,0.115,-2.626,-101.492
 14:38:03.651,eb:33:2e:f9:57:b5, 2085-97-103 00:28:00:2039,0.05,0.013,0.997,0,-0.305,-0.183,0.115,-2.626,-101.486
 14:38:03.651,eb:33:2e:f9:57:b5, 2085-97-103 00:28:00:2040,0.05,0.014,0.996,0,-0.244,-0.122,0.115,-2.626,-101.486
 14:38:03.741,eb:33:2e:f9:57:b5, 2085-97-103 00:26:00:2040,0.05,0.014,0.997,0,-0.061,-0.122,0.115,-2.626,-101.475
 14:38:03.741,eb:33:2e:f9:57:b5, 2085-97-102 00:29:00:2040,0.05,0.014,0.995,0,0,-0.122,0.115,-2.626,-101.475
 14:38:03.741,eb:33:2e:f9:57:b5, 2085-97-102 00:28:00:2039,0.05,0.014,0.995,0,-0.122,-0.122,0.115,-2.626,-101.47
 14:38:03.741,eb:33:2e:f9:57:b5, 2085-97-100 00:26:00:2039,0.05,0.016,0.996,-0.061,-0.244,-0.244,0.115,-2.626,-101.47
 14:38:03.744,eb:33:2e:f9:57:b5, 2085-97-103 00:29:00:2038,0.05,0.013,0.997,0,-0.244,-0.061,0.115,-2.626,-101.459
 14:38:03.744,eb:33:2e:f9:57:b5, 2085-97-104 00:29:00:2040,0.051,0.014,0.997,0,-0.122,0,0.121,-2.626,-101.459
 14:38:03.744,eb:33:2e:f9:57:b5, 2085-97-104 00:28:00:2039,0.05,0.014,0.997,-0.061,0,0,0.121,-2.626,-101.453
 14:38:03.744,eb:33:2e:f9:57:b5, 2085-97-102 00:28:00:2039,0.05,0.013,0.996,0,0.061,0.061,0.121,-2.626,-101.453
 14:38:03.832,eb:33:2e:f9:57:b5, 2085-97-100 00:31:00:2037,0.049,0.014,0.996,0,0.061,0,0.121,-2.626,-101.442
 14:38:03.832,eb:33:2e:f9:57:b5, 2085-97-99 00:28:00:2037,0.049,0.014,0.995,0,0,0,0.121,-2.626,-101.442
 14:38:03.832,eb:33:2e:f9:57:b5, 2085-97-100 00:29:00:2037,0.049,0.014,0.995,0,-0.122,0,0.121,-2.626,-101.437
 14:38:03.832,eb:33:2e:f9:57:b5, 2085-97-102 00:28:00:2041,0.05,0.014,0.995,-0.061,-0.244,0,0.121,-2.626,-101.437
 14:38:03.834,eb:33:2e:f9:57:b5, 2085-97-105 00:26:00:2041,0.051,0.013,0.996,0,-0.061,0.061,0.121,-2.626,-101.426
 14:38:03.834,eb:33:2e:f9:57:b5, 2085-97-104 00:29:00:2040,0.052,0.014,0.997,-0.061,0,0.183,0.121,-2.626,-101.426
 14:38:03.834,eb:33:2e:f9:57:b5, 2085-97-106 00:29:00:2041,0.049,0.014,0.997,0,0.244,0.183,0.121,-2.626,-101.42
 14:38:03.834,eb:33:2e:f9:57:b5, 2085-97-103 00:30:00:2038,0.051,0.015,0.996,-0.061,0.549,0.183,0.121,-2.631,-101.42
 14:38:03.863,eb:33:2e:f9:57:b5, 2085-97-100 00:29:00:2038,0.048,0.014,0.995,0,0.549,0.122,0.121,-2.631,-101.409
 14:38:03.863,eb:33:2e:f9:57:b5, 2085-97-102 00:27:00:2039,0.05,0.014,0.995,0,0.305,0.122,0.121,-2.631,-101.409
 14:38:03.863,eb:33:2e:f9:57:b5, 2085-97-100 00:27:00:2039,0.048,0.014,0.996,0,0.366,0.122,0.121,-2.631,-101.404
 14:38:03.863,eb:33:2e:f9:57:b5, 2085-97-105 00:29:00:2042,0.049,0.014,0.995,0,0.122,0.122,0.121,-2.631,-101.404
 14:38:03.893,eb:33:2e:f9:57:b5, 2085-97-101 00:29:00:2038,0.05,0.014,0.996,0,0.244,0.183,0.121,-2.631,-101.393
 14:38:03.893,eb:33:2e:f9:57:b5, 2085-97-98 00:30:00:2035,0.049,0.013,0.996,0,0.244,0.244,0.121,-2.631,-101.393
 14:38:03.893,eb:33:2e:f9:57:b5, 2085-97-96 00:29:00:2035,0.049,0.014,0.995,0.061,0.183,0.122,0.121,-2.631,-101.387
 14:38:03.893,eb:33:2e:f9:57:b5, 2085-97-97 00:25:00:2035,0.049,0.014,0.995,0,0,0.122,0.121,-2.631,-101.387
 14:38:03.952,eb:33:2e:f9:57:b5, 2085-97-100 00:28:00:2038,0.049,0.013,0.996,0.061,-0.061,0.122,0.121,-2.631,-101.376
 14:38:03.952,eb:33:2e:f9:57:b5, 2085-97-103 00:30:00:2040,0.05,0.014,0.996,0.061,-0.061,0.061,0.121,-2.631,-101.376
 14:38:03.954,eb:33:2e:f9:57:b5, 2085-97-101 00:28:00:2039,0.05,0.014,0.997,0.061,0,0.122,0.121,-2.631,-101.371
 14:38:03.954,eb:33:2e:f9:57:b5, 2085-97-103 00:28:00:2041,0.05,0.013,0.995,0,0.061,0.122,0.121,-2.631,-101.371
 14:38:03.983,eb:33:2e:f9:57:b5, 2085-97-102 00:29:00:2039,0.05,0.014,0.997,0,0.183,0.183,0.121,-2.631,-101.36
 14:38:03.983,eb:33:2e:f9:57:b5, 2085-97-102 00:28:00:2039,0.049,0.014,0.996,0,0.183,0.183,0.121,-2.631,-101.36
 14:38:03.983,eb:33:2e:f9:57:b5, 2085-97-102 00:29:00:2039,0.049,0.014,0.996,0.061,0.305,0.183,0.121,-2.631,-101.354
 14:38:03.983,eb:33:2e:f9:57:b5, 2085-97-100 00:30:00:2039,0.05,0.014,0.995,0,0.244,0.244,0.121,-2.631,-101.354
 14:38:04.012,eb:33:2e:f9:57:b5, 2085-97-101 00:28:00:2040,0.048,0.014,0.996,0,0.366,0.244,0.121,-2.631,-101.343
 14:38:04.012,eb:33:2e:f9:57:b5, 2085-97-100 00:27:00:2038,0.049,0.013,0.996,0.061,0.366,0.244,0.121,-2.631,-101.343
 14:38:04.012,eb:33:2e:f9:57:b5, 2085-97-101 00:28:00:2039,0.048,0.013,0.996,0.061,0.427,0.244,0.121,-2.631,-101.338
 14:38:04.012,eb:33:2e:f9:57:b5, 2085-97-99 00:28:00:2037,0.049,0.014,0.995,0.061,0.366,0.122,0.121,-2.631,-101.338
 14:38:04.073,eb:33:2e:f9:57:b5, 2085-97-100 00:30:00:2040,0.05,0.014,0.996,0.061,0.427,0.183,0.121,-2.631,-101.332
 14:38:04.073,eb:33:2e:f9:57:b5, 2085-97-99 00:29:00:2040,0.049,0.015,0.996,0.061,0.427,0.122,0.121,-2.631,-101.332
 14:38:04.073,eb:33:2e:f9:57:b5, 2085-97-101 00:29:00:2040,0.049,0.014,0.997,0.061,0.488,0.061,0.121,-2.631,-101.321
 14:38:04.073,eb:33:2e:f9:57:b5, 2085-97-101 00:29:00:2041,0.049,0.014,0.996,0,0.671,0.122,0.121,-2.631,-101.321
 14:38:04.101,eb:33:2e:f9:57:b5, 2085-97-101 00:28:00:2040,0.049,0.014,0.997,0.061,0.793,0.061,0.121,-2.631,-101.316
 14:38:04.101,eb:33:2e:f9:57:b5, 2085-97-99 00:29:00:2040,0.047,0.014,0.996,0.061,0.916,0.122,0.121,-2.637,-101.316
 14:38:04.101,eb:33:2e:f9:57:b5, 2085-97-97 00:30:00:2039,0.047,0.014,0.995,0.061,0.793,0.061,0.121,-2.637,-101.305
 14:38:04.101,eb:33:2e:f9:57:b5, 2085-97-95 00:29:00:2037,0.047,0.014,0.995,0,0.793,0,0.121,-2.637,-101.305
 14:38:04.163,eb:33:2e:f9:57:b5, 2085-97-97 00:30:00:2040,0.048,0.015,0.995,0.061,0.671,0.061,0.121,-2.637,-101.299
 14:38:04.163,eb:33:2e:f9:57:b5, 2085-97-96 00:29:00:2038,0.047,0.014,0.996,0.061,0.671,0.061,0.121,-2.637,-101.299
 14:38:04.163,eb:33:2e:f9:57:b5, 2085-97-99 00:29:00:2040,0.047,0.014,0.996,0.061,0.61,0.061,0.121,-2.637,-101.294
 14:38:04.163,eb:33:2e:f9:57:b5, 2085-97-97 00:30:00:2038,0.046,0.014,0.996,0,0.671,0,0.121,-2.637,-101.294
 14:38:04.163,eb:33:2e:f9:57:b5, 2085-97-95 00:29:00:2038,0.046,0.014,0.995,0,0.671,0,0.121,-2.637,-101.283
 14:38:04.192,eb:33:2e:f9:57:b5, 2085-113-58 00:156:220:-1365,0.046,0.015,0.995,0,0.61,0.061,0.126,-2.631,-101.283
 14:38:04.192,eb:33:2e:f9:57:b5, 2085-97-95 00:29:00:2039,0.047,0.014,0.995,0.061,0.549,0,0.126,-2.631,-101.277
 14:38:04.192,eb:33:2e:f9:57:b5, 2085-97-94 00:29:00:2038,0.047,0.015,0.996,0.061,0.427,0.122,0.126,-2.631,-101.277
 14:38:04.192,eb:33:2e:f9:57:b5, 2085-97-94 00:29:00:2039,0.048,0.014,0.996,0.061,0.366,0.061,0.126,-2.631,-101.266
 14:38:04.223,eb:33:2e:f9:57:b5, 2085-97-96 00:30:00:2039,0.046,0.013,0.995,0.061,0.244,0.122,0.126,-2.631,-101.266
 14:38:04.223,eb:33:2e:f9:57:b5, 2085-97-95 00:29:00:2039,0.046,0.015,0.995,0.061,0.244,0.122,0.126,-2.631,-101.261
 14:38:04.223,eb:33:2e:f9:57:b5, 2085-97-93 00:27:00:2038,0.047,0.014,0.995,0,0.122,0.244,0.126,-2.631,-101.261
 14:38:04.223,eb:33:2e:f9:57:b5, 2085-97-96 00:31:00:2040,0.047,0.014,0.996,0,0,0.244,0.126,-2.631,-101.255
 14:38:04.282,eb:33:2e:f9:57:b5, 2085-97-97 00:29:00:2039,0.047,0.015,0.996,0,0.122,0.244,0.126,-2.631,-101.255
 14:38:04.282,eb:33:2e:f9:57:b5, 2085-97-97 00:31:00:2041,0.047,0.014,0.996,0,0.061,0.244,0.126,-2.631,-101.245
 14:38:04.282,eb:33:2e:f9:57:b5, 2085-97-97 00:29:00:2041,0.047,0.014,0.996,0,0.122,0.305,0.126,-2.631,-101.245
 14:38:04.282,eb:33:2e:f9:57:b5, 2085-97-96 00:27:00:2039,0.046,0.014,0.997,0,0.122,0.366,0.126,-2.631,-101.239
 14:38:04.313,eb:33:2e:f9:57:b5, 2085-97-93 00:30:00:2038,0.046,0.014,0.996,0.061,0,0.427,0.126,-2.631,-101.239
 14:38:04.313,eb:33:2e:f9:57:b5, 2085-97-93 00:29:00:2038,0.046,0.014,0.995,0,-0.183,0.549,0.126,-2.631,-101.234
 14:38:04.313,eb:33:2e:f9:57:b5, 2085-97-96 00:29:00:2040,0.047,0.015,0.995,0.061,-0.244,0.488,0.126,-2.631,-101.234
 14:38:04.313,eb:33:2e:f9:57:b5, 2085-97-97 00:28:00:2040,0.047,0.014,0.996,0.061,-0.244,0.61,0.126,-2.631,-101.223
 14:38:04.342,eb:33:2e:f9:57:b5, 2085-97-97 00:28:00:2040,0.046,0.014,0.996,0.122,-0.244,0.61,0.126,-2.631,-101.223
 14:38:04.342,eb:33:2e:f9:57:b5, 2085-97-95 00:28:00:2039,0.046,0.014,0.996,0.122,-0.244,0.61,0.126,-2.631,-101.217
 14:38:04.342,eb:33:2e:f9:57:b5, 2085-97-95 00:30:00:2037,0.046,0.014,0.995,0.183,-0.427,0.61,0.126,-2.631,-101.217
 14:38:04.342,eb:33:2e:f9:57:b5, 2085-97-99 00:30:00:2042,0.047,0.014,0.997,0.183,-0.488,0.671,0.126,-2.631,-101.212
 14:38:04.401,eb:33:2e:f9:57:b5, 2085-97-95 00:29:00:2038,0.046,0.014,0.996,0.244,-0.427,0.549,0.126,-2.631,-101.212
 14:38:04.401,eb:33:2e:f9:57:b5, 2085-97-95 00:29:00:2039,0.047,0.015,0.996,0.183,-0.427,0.488,0.126,-2.631,-101.201
 14:38:04.401,eb:33:2e:f9:57:b5, 2085-97-97 00:31:00:2037,0.048,0.016,0.995,0.183,-0.488,0.488,0.126,-2.631,-101.201
 14:38:04.401,eb:33:2e:f9:57:b5, 2085-97-98 00:30:00:2039,0.047,0.015,0.995,0.183,-0.549,0.366,0.126,-2.631,-101.195
 14:38:04.432,eb:33:2e:f9:57:b5, 2085-97-98 00:31:00:2039,0.048,0.015,0.996,0.183,-0.427,0.366,0.126,-2.626,-101.195
 14:38:04.432,eb:33:2e:f9:57:b5, 2085-97-100 00:31:00:2041,0.049,0.014,0.997,0.122,-0.305,0.305,0.126,-2.626,-101.19
 14:38:04.432,eb:33:2e:f9:57:b5, 2085-97-100 00:32:00:2041,0.049,0.016,0.996,0.122,-0.061,0.305,0.126,-2.626,-101.19
 14:38:04.432,eb:33:2e:f9:57:b5, 2085-97-100 00:33:00:2041,0.049,0.016,0.997,0.061,0.061,0.244,0.126,-2.626,-101.179
 14:38:04.462,eb:33:2e:f9:57:b5, 2085-97-102 00:32:00:2041,0.049,0.016,0.996,0,0.305,0.122,0.126,-2.626,-101.179
 14:38:04.462,eb:33:2e:f9:57:b5, 2085-97-100 00:32:00:2041,0.047,0.015,0.996,-0.061,0.549,0.061,0.126,-2.626,-101.173
 14:38:04.462,eb:33:2e:f9:57:b5, 2085-97-95 00:32:00:2039,0.046,0.015,0.996,-0.061,0.793,0,0.132,-2.626,-101.173
 14:38:04.462,eb:33:2e:f9:57:b5, 2085-97-95 00:31:00:2039,0.046,0.016,0.995,-0.122,0.732,0,0.132,-2.626,-101.168
 14:38:04.523,eb:33:2e:f9:57:b5, 2085-97-94 00:31:00:2040,0.046,0.015,0.995,-0.122,0.732,0,0.132,-2.626,-101.168
 14:38:04.523,eb:33:2e:f9:57:b5, 2085-97-95 00:30:00:2038,0.046,0.015,0.996,-0.183,0.671,-0.061,0.132,-2.626,-101.162
 14:38:04.523,eb:33:2e:f9:57:b5, 2085-97-95 00:30:00:2038,0.045,0.015,0.995,-0.122,0.61,0,0.132,-2.626,-101.162
 14:38:04.523,eb:33:2e:f9:57:b5, 2085-97-93 00:30:00:2037,0.045,0.015,0.995,-0.244,0.61,-0.061,0.132,-2.626,-101.151
 14:38:04.552,eb:33:2e:f9:57:b5, 2085-97-92 00:29:00:2037,0.045,0.014,0.994,-0.183,0.427,-0.061,0.132,-2.626,-101.151
 14:38:04.552,eb:33:2e:f9:57:b5, 2085-97-93 00:30:00:2037,0.046,0.015,0.994,-0.122,0.183,-0.061,0.132,-2.626,-101.146
 14:38:04.552,eb:33:2e:f9:57:b5, 2085-97-96 00:29:00:2040,0.048,0.015,0.996,-0.122,0.122,-0.061,0.132,-2.626,-101.146
 14:38:04.552,eb:33:2e:f9:57:b5, 2085-97-98 00:30:00:2040,0.048,0.015,0.997,-0.183,0.061,0,0.132,-2.626,-101.14
 14:38:04.581,eb:33:2e:f9:57:b5, 2085-97-98 00:28:00:2041,0.047,0.015,0.997,-0.122,0.183,0,0.132,-2.626,-101.14
 14:38:04.581,eb:33:2e:f9:57:b5, 2085-97-97 00:29:00:2042,0.047,0.014,0.996,0,0.305,0,0.132,-2.626,-101.135
 14:38:04.581,eb:33:2e:f9:57:b5, 2085-97-97 00:28:00:2041,0.047,0.015,0.997,-0.061,0.427,0,0.132,-2.626,-101.135
 14:38:04.581,eb:33:2e:f9:57:b5, 2085-97-94 00:30:00:2040,0.045,0.014,0.997,-0.061,0.366,0,0.132,-2.626,-101.124
 14:38:04.641,eb:33:2e:f9:57:b5, 2085-97-94 00:30:00:2039,0.045,0.014,0.996,-0.061,0.366,0,0.132,-2.626,-101.124
 14:38:04.641,eb:33:2e:f9:57:b5, 2085-97-92 00:30:00:2039,0.045,0.015,0.995,-0.061,0.305,-0.061,0.132,-2.626,-101.118
 14:38:04.641,eb:33:2e:f9:57:b5, 2085-97-92 00:31:00:2039,0.045,0.015,0.996,-0.061,0.366,-0.061,0.132,-2.626,-101.118
 14:38:04.641,eb:33:2e:f9:57:b5, 2085-97-94 00:30:00:2040,0.046,0.016,0.996,-0.061,0.366,-0.061,0.132,-2.626,-101.113
 14:38:04.701,eb:33:2e:f9:57:b5, 2085-97-96 00:29:00:2041,0.047,0.014,0.996,-0.061,0.488,-0.061,0.132,-2.626,-101.113
 14:38:04.701,eb:33:2e:f9:57:b5, 2085-97-96 00:28:00:2041,0.047,0.014,0.997,-0.061,0.61,-0.061,0.132,-2.626,-101.107
 14:38:04.701,eb:33:2e:f9:57:b5, 2085-97-94 00:29:00:2040,0.046,0.014,0.997,0,0.671,0,0.132,-2.626,-101.107
 14:38:04.701,eb:33:2e:f9:57:b5, 2085-97-94 00:29:00:2040,0.045,0.014,0.996,0,0.732,0,0.132,-2.626,-101.096
 14:38:04.705,eb:33:2e:f9:57:b5, 2085-97-93 00:28:00:2039,0.044,0.014,0.996,0,0.61,0,0.132,-2.62,-101.096
 14:38:04.705,eb:33:2e:f9:57:b5, 2085-97-91 00:29:00:2037,0.044,0.014,0.996,0,0.549,0.061,0.132,-2.62,-101.091
 14:38:04.705,eb:33:2e:f9:57:b5, 2085-97-87 00:29:00:2034,0.045,0.015,0.994,0,0.488,0.061,0.132,-2.62,-101.091
 14:38:04.705,eb:33:2e:f9:57:b5, 2085-97-92 00:27:00:2039,0.046,0.015,0.997,0,0.305,0.061,0.132,-2.62,-101.085
 14:38:04.763,eb:33:2e:f9:57:b5, 2085-97-94 00:29:00:2042,0.044,0.014,0.997,0,0.366,0.122,0.132,-2.62,-101.085
 14:38:04.763,eb:33:2e:f9:57:b5, 2085-97-91 00:28:00:2040,0.044,0.015,0.996,0,0.366,0.122,0.132,-2.62,-101.08
 14:38:04.763,eb:33:2e:f9:57:b5, 2085-97-93 00:28:00:2042,0.046,0.014,0.996,0,0.366,0.122,0.132,-2.62,-101.08
 14:38:04.763,eb:33:2e:f9:57:b5, 2085-97-93 00:31:00:2040,0.044,0.014,0.997,0,0.549,0.061,0.137,-2.62,-101.074
 14:38:04.792,eb:33:2e:f9:57:b5, 2085-97-95 00:29:00:2043,0.045,0.015,0.996,0,0.61,0,0.137,-2.62,-101.069
 14:38:04.792,eb:33:2e:f9:57:b5, 2085-97-92 00:28:00:2043,0.044,0.014,0.997,0,0.793,0.061,0.137,-2.62,-101.063
 14:38:04.792,eb:33:2e:f9:57:b5, 2085-97-90 00:29:00:2039,0.043,0.014,0.996,-0.061,0.854,0.061,0.137,-2.62,-101.063
 14:38:04.792,eb:33:2e:f9:57:b5, 2085-97-87 00:30:00:2037,0.042,0.015,0.995,-0.122,0.793,0,0.137,-2.62,-101.058
 14:38:04.853,eb:33:2e:f9:57:b5, 2085-97-85 00:29:00:2038,0.042,0.014,0.994,-0.122,0.61,0,0.137,-2.615,-101.058
 14:38:04.853,eb:33:2e:f9:57:b5, 2085-97-86 00:29:00:2037,0.043,0.014,0.994,-0.061,0.366,0,0.137,-2.615,-101.052
 14:38:04.853,eb:33:2e:f9:57:b5, 2085-97-91 00:30:00:2041,0.043,0.014,0.996,-0.061,0.305,-0.061,0.137,-2.615,-101.052
 14:38:04.853,eb:33:2e:f9:57:b5, 2085-97-88 00:28:00:2038,0.043,0.015,0.996,-0.122,0.183,0,0.137,-2.615,-101.047
 14:38:04.883,eb:33:2e:f9:57:b5, 2085-97-90 00:28:00:2039,0.043,0.014,0.996,-0.122,0.061,0,0.137,-2.615,-101.047
 14:38:04.883,eb:33:2e:f9:57:b5, 2085-97-89 00:28:00:2040,0.044,0.014,0.996,-0.122,-0.061,0,0.137,-2.615,-101.041
 14:38:04.883,eb:33:2e:f9:57:b5, 2085-97-91 00:28:00:2041,0.044,0.014,0.997,-0.061,-0.122,0.061,0.137,-2.615,-101.041
 14:38:04.883,eb:33:2e:f9:57:b5, 2085-97-91 00:27:00:2041,0.044,0.014,0.997,0,-0.061,0.061,0.137,-2.615,-101.03
 14:38:04.942,eb:33:2e:f9:57:b5, 2085-97-73 00:31:00:2025,0.045,0.014,0.996,0,0.061,0.061,0.137,-2.609,-101.03
 14:38:04.942,eb:33:2e:f9:57:b5, 2085-97-97 00:28:00:2045,0.045,0.016,0.996,0,-0.61,0.061,0.137,-2.609,-101.025
 14:38:04.942,eb:33:2e:f9:57:b5, 2085-97-88 00:32:00:2039,0.044,0.015,0.997,0,0,0.122,0.137,-2.609,-101.025
 14:38:04.942,eb:33:2e:f9:57:b5, 2085-113-100 00:149:01:000,0.045,0.014,0.996,0,0.183,0.061,0.137,-2.609,-101.019
 14:38:04.944,eb:33:2e:f9:57:b5, 2085-97-93 00:28:00:2044,0.045,0.014,0.998,0,0.427,0,0.137,-2.609,-101.019
 14:38:04.944,eb:33:2e:f9:57:b5, 2085-97-91 00:29:00:2042,0.044,0.015,0.997,0,0.793,0,0.137,-2.609,-101.019
 14:38:04.944,eb:33:2e:f9:57:b5, 2085-97-92 00:30:00:2042,0.045,0.015,0.998,-0.061,1.038,0,0.137,-2.609,-101.014
 14:38:04.944,eb:33:2e:f9:57:b5, 2085-97-89 00:30:00:2042,0.043,0.014,0.997,-0.122,1.221,0,0.137,-2.609,-101.014
 14:38:05.002,eb:33:2e:f9:57:b5, 2085-97-90 00:30:00:2043,0.044,0.014,0.997,-0.122,1.221,0,0.137,-2.609,-101.008
 14:38:05.002,eb:33:2e:f9:57:b5, 2085-97-90 00:29:00:2042,0.045,0.015,0.998,-0.122,1.343,-0.061,0.137,-2.604,-101.008
 14:38:05.002,eb:33:2e:f9:57:b5, 2085-97-93 00:28:00:2042,0.044,0.014,0.997,-0.122,1.465,0,0.137,-2.604,-101.003
 14:38:05.002,eb:33:2e:f9:57:b5, 2085-97-88 00:30:00:2041,0.042,0.014,0.996,-0.183,1.709,0,0.137,-2.604,-101.003
 14:38:05.032,eb:33:2e:f9:57:b5, 2085-97-85 00:31:00:2038,0.04,0.016,0.996,-0.244,1.709,0,0.137,-2.604,-100.992
 14:38:05.032,eb:33:2e:f9:57:b5, 2085-97-79 00:30:00:2034,0.038,0.015,0.994,-0.244,1.77,-0.061,0.137,-2.604,-100.992
 14:38:05.032,eb:33:2e:f9:57:b5, 2085-97-76 00:29:00:2035,0.038,0.015,0.993,-0.305,1.404,-0.061,0.137,-2.604,-100.986
 14:38:05.032,eb:33:2e:f9:57:b5, 2085-97-80 00:29:00:2036,0.04,0.014,0.994,-0.305,1.038,0,0.137,-2.604,-100.986
 14:38:05.063,eb:33:2e:f9:57:b5, 2085-97-83 00:30:00:2039,0.042,0.015,0.994,-0.366,0.671,0,0.137,-2.604,-100.981
 14:38:05.063,eb:33:2e:f9:57:b5, 2085-97-91 00:27:00:2046,0.04,0.013,0.997,-0.305,0.671,-0.122,0.137,-2.598,-100.981
 14:38:05.063,eb:33:2e:f9:57:b5, 2085-97-81 00:27:00:2038,0.04,0.013,0.996,-0.305,0.916,-0.061,0.137,-2.598,-100.975
 14:38:05.063,eb:33:2e:f9:57:b5, 2085-97-83 00:25:00:2039,0.04,0.013,0.995,-0.305,0.671,0,0.137,-2.598,-100.975
 14:38:05.122,eb:33:2e:f9:57:b5, 2085-97-82 00:28:00:2038,0.041,0.013,0.996,-0.244,0.549,0,0.137,-2.598,-100.97
 14:38:05.122,eb:33:2e:f9:57:b5, 2085-97-82 00:28:00:2040,0.04,0.014,0.997,-0.183,0.427,0,0.137,-2.593,-100.97
 14:38:05.122,eb:33:2e:f9:57:b5, 2085-97-81 00:27:00:2039,0.041,0.014,0.997,-0.183,0.549,0,0.137,-2.593,-100.964
 14:38:05.122,eb:33:2e:f9:57:b5, 2085-97-82 00:28:00:2041,0.04,0.014,0.996,-0.122,0.488,-0.061,0.137,-2.593,-100.964
 14:38:05.152,eb:33:2e:f9:57:b5, 2085-97-82 00:26:00:2042,0.041,0.013,0.997,-0.122,0.671,0,0.137,-2.593,-100.959
 14:38:05.152,eb:33:2e:f9:57:b5, 2085-97-83 00:26:00:2042,0.041,0.012,0.997,-0.061,0.671,0,0.137,-2.593,-100.959
 14:38:05.152,eb:33:2e:f9:57:b5, 2085-97-82 00:26:00:2041,0.041,0.013,0.998,-0.061,0.732,0,0.137,-2.593,-100.953
 14:38:05.152,eb:33:2e:f9:57:b5, 2085-97-83 00:27:00:2040,0.041,0.013,0.996,-0.061,0.732,0,0.137,-2.587,-100.953
 14:38:05.183,eb:33:2e:f9:57:b5, 2085-97-83 00:26:00:2042,0.04,0.013,0.997,-0.122,0.732,-0.061,0.137,-2.587,-100.942
 14:38:05.183,eb:33:2e:f9:57:b5, 2085-97-80 00:25:00:2039,0.04,0.013,0.996,-0.061,0.671,-0.061,0.137,-2.587,-100.942
 14:38:05.183,eb:33:2e:f9:57:b5, 2085-97-82 00:25:00:2042,0.041,0.013,0.997,-0.061,0.61,0,0.137,-2.587,-100.937
 14:38:05.183,eb:33:2e:f9:57:b5, 2085-97-83 00:26:00:2043,0.039,0.013,0.998,-0.122,0.549,0,0.137,-2.582,-100.937
 14:38:05.242,eb:33:2e:f9:57:b5, 2085-97-78 00:27:00:2038,0.038,0.013,0.997,-0.122,0.427,0,0.137,-2.582,-100.931
 14:38:05.242,eb:33:2e:f9:57:b5, 2085-97-75 00:26:00:2036,0.036,0.013,0.995,-0.061,0.244,0,0.137,-2.582,-100.931
 14:38:05.242,eb:33:2e:f9:57:b5, 2085-97-76 00:28:00:2037,0.044,0.013,0.994,-0.061,0.061,0,0.137,-2.582,-100.926
 14:38:05.242,eb:33:2e:f9:57:b5, 2085-97-67 00:26:00:2029,0.034,0.013,1,-0.061,0.61,-0.122,0.137,-2.576,-100.926
 14:38:05.273,eb:33:2e:f9:57:b5, 2085-97-78 00:27:00:2040,0.039,0.013,0.993,0,0,0,0.137,-2.576,-100.92
 14:38:05.273,eb:33:2e:f9:57:b5, 2085-97-77 00:26:00:2040,0.038,0.013,0.997,0,-0.061,0,0.137,-2.576,-100.92
 14:38:05.273,eb:33:2e:f9:57:b5, 2085-97-80 00:26:00:2041,0.039,0.013,0.997,0,-0.183,0,0.137,-2.576,-100.915
 14:38:05.273,eb:33:2e:f9:57:b5, 2085-97-80 00:25:00:2042,0.039,0.013,0.997,0,-0.183,0.183,0.137,-2.571,-100.915
 14:38:05.302,eb:33:2e:f9:57:b5, 2085-97-82 00:27:00:2042,0.041,0.013,0.997,0.061,-0.183,0.183,0.137,-2.571,-100.909
 14:38:05.302,eb:33:2e:f9:57:b5, 2085-97-82 00:26:00:2042,0.04,0.013,0.997,0.061,-0.244,0.122,0.137,-2.571,-100.909
 14:38:05.302,eb:33:2e:f9:57:b5, 2085-97-81 00:26:00:2043,0.038,0.013,0.997,0.122,0,0.122,0.137,-2.571,-100.904
 14:38:05.302,eb:33:2e:f9:57:b5, 2085-97-76 00:28:00:2039,0.038,0.013,0.996,0.183,0,0.061,0.137,-2.565,-100.904
 14:38:05.361,eb:33:2e:f9:57:b5, 2085-97-80 00:27:00:2040,0.039,0.013,0.996,0.305,-0.183,0,0.137,-2.565,-100.898
 14:38:05.361,eb:33:2e:f9:57:b5, 2085-97-75 00:28:00:2037,0.039,0.014,0.996,0.305,-0.305,0,0.137,-2.565,-100.898
 14:38:05.361,eb:33:2e:f9:57:b5, 2085-97-82 00:26:00:2042,0.041,0.013,0.997,0.244,-0.427,0,0.137,-2.565,-100.893
 14:38:05.361,eb:33:2e:f9:57:b5, 2085-97-80 00:27:00:2041,0.04,0.013,0.997,0.183,-0.427,0,0.137,-2.56,-100.893
 14:38:05.393,eb:33:2e:f9:57:b5, 2085-97-81 00:27:00:2040,0.038,0.014,0.997,0.122,-0.427,0,0.137,-2.56,-100.887
 14:38:05.393,eb:33:2e:f9:57:b5, 2085-97-79 00:28:00:2040,0.039,0.014,0.996,0.183,-0.549,0,0.137,-2.56,-100.887
 14:38:05.393,eb:33:2e:f9:57:b5, 2085-97-80 00:31:00:2041,0.04,0.014,0.996,0.061,-0.732,-0.061,0.137,-2.56,-100.876
 14:38:05.394,eb:33:2e:f9:57:b5, 2085-97-82 00:27:00:2043,0.041,0.013,0.997,0.122,-0.671,-0.305,0.137,-2.554,-100.876
 14:38:05.421,eb:33:2e:f9:57:b5, 2085-97-82 00:27:00:2041,0.04,0.013,0.998,0.061,-0.732,-0.122,0.137,-2.554,-100.871
 14:38:05.421,eb:33:2e:f9:57:b5, 2085-97-82 00:28:00:2041,0.041,0.014,0.997,0,-0.671,-0.122,0.137,-2.554,-100.871
 14:38:05.421,eb:33:2e:f9:57:b5, 2085-97-85 00:27:00:2042,0.041,0.014,0.997,0,-0.854,-0.183,0.137,-2.554,-100.865
 14:38:05.421,eb:33:2e:f9:57:b5, 2085-97-85 00:28:00:2042,0.042,0.014,0.997,-0.061,-1.099,-0.244,0.137,-2.554,-100.865
 14:38:05.483,eb:33:2e:f9:57:b5, 2085-97-85 00:27:00:2043,0.043,0.014,0.997,0,-1.16,-0.366,0.137,-2.554,-100.865
 14:38:05.483,eb:33:2e:f9:57:b5, 2085-97-86 00:26:00:2043,0.041,0.013,0.998,-0.061,-0.793,-0.305,0.137,-2.554,-100.865
 14:38:05.483,eb:33:2e:f9:57:b5, 2085-97-82 00:26:00:2040,0.041,0.014,0.996,-0.061,-0.793,-0.244,0.137,-2.554,-100.865
 14:38:05.483,eb:33:2e:f9:57:b5, 2085-97-85 00:27:00:2042,0.043,0.013,0.996,-0.061,-0.916,-0.183,0.137,-2.554,-100.865
 14:38:05.512,eb:33:2e:f9:57:b5, 2085-97-84 00:25:00:2042,0.042,0.014,0.998,0,-0.732,-0.061,0.137,-2.554,-100.865
 14:38:05.512,eb:33:2e:f9:57:b5, 2085-97-90 00:29:00:2044,0.044,0.016,0.997,-0.061,-0.61,-0.122,0.137,-2.549,-100.865
 14:38:05.512,eb:33:2e:f9:57:b5, 2085-97-88 00:28:00:2044,0.043,0.013,0.999,0,-0.244,-0.183,0.137,-2.549,-100.865
 14:38:05.512,eb:33:2e:f9:57:b5, 2085-97-88 00:26:00:2043,0.043,0.013,0.998,0,0,-0.183,0.137,-2.549,-100.865
 14:38:05.573,eb:33:2e:f9:57:b5, 2085-97-88 00:25:00:2044,0.042,0.012,0.998,0,0,-0.122,0.137,-2.549,-100.865
 14:38:05.573,eb:33:2e:f9:57:b5, 2085-97-89 00:25:00:2045,0.042,0.014,0.997,0,0.122,-0.305,0.137,-2.549,-100.865
 14:38:05.573,eb:33:2e:f9:57:b5, 2085-97-87 00:29:00:2044,0.042,0.014,0.997,0.122,0.488,-0.183,0.137,-2.549,-100.865
 14:38:05.573,eb:33:2e:f9:57:b5, 2085-97-85 00:30:00:2040,0.04,0.014,0.998,0.122,0.916,-0.122,0.137,-2.549,-100.865
 14:38:05.573,eb:33:2e:f9:57:b5, 2085-97-77 00:28:00:2036,0.035,0.014,0.995,0.183,1.099,-0.122,0.137,-2.549,-100.865
 14:38:05.602,eb:33:2e:f9:57:b5, 2085-113-81 00:132:81:-450,0.038,0.014,0.99,0.244,0.305,0,0.137,-2.549,-100.865
 14:38:05.602,eb:33:2e:f9:57:b5, 2085-97-77 00:25:00:2037,0.04,0.014,0.994,0.244,0.183,0,0.137,-2.549,-100.865
 14:38:05.602,eb:33:2e:f9:57:b5, 2085-97-84 00:28:00:2042,0.043,0.014,0.994,0.305,-0.244,0,0.137,-2.549,-100.865
 14:38:05.602,eb:33:2e:f9:57:b5, 2085-97-90 00:28:00:2044,0.043,0.014,0.999,0.305,-0.122,0,0.137,-2.549,-100.865
 14:38:05.633,eb:33:2e:f9:57:b5, 2085-97-87 00:27:00:2045,0.041,0.014,0.999,0.366,0.244,0.061,0.137,-2.549,-100.865
 14:38:05.634,eb:33:2e:f9:57:b5, 2085-97-83 00:30:00:2040,0.041,0.014,0.998,0.366,0.671,0.061,0.137,-2.549,-100.865
 14:38:05.634,eb:33:2e:f9:57:b5, 2085-97-83 00:29:00:2040,0.04,0.015,0.996,0.305,0.854,0.122,0.137,-2.549,-100.865
 14:38:05.634,eb:33:2e:f9:57:b5, 2085-97-79 00:29:00:2038,0.038,0.014,0.996,0.366,0.977,0.122,0.137,-2.549,-100.865
 14:38:05.692,eb:33:2e:f9:57:b5, 2085-97-79 00:31:00:2039,0.039,0.015,0.995,0.305,0.854,0.122,0.137,-2.549,-100.865
 14:38:05.692,eb:33:2e:f9:57:b5, 2085-97-81 00:29:00:2041,0.039,0.015,0.996,0.244,0.854,0.061,0.137,-2.549,-100.865
 14:38:05.692,eb:33:2e:f9:57:b5, 2085-97-81 00:29:00:2041,0.041,0.015,0.996,0.305,0.793,0.061,0.137,-2.549,-100.865
 14:38:05.692,eb:33:2e:f9:57:b5, 2085-97-83 00:31:00:2042,0.04,0.015,0.997,0.183,1.099,0.061,0.137,-2.549,-100.865
 14:38:05.723,eb:33:2e:f9:57:b5, 2085-97-81 00:30:00:2042,0.04,0.015,0.998,0.061,1.343,0.122,0.137,-2.549,-100.865
 14:38:05.723,eb:33:2e:f9:57:b5, 2085-97-84 00:31:00:2044,0.04,0.015,0.998,0.061,1.709,0.061,0.137,-2.549,-100.865
 14:38:05.723,eb:33:2e:f9:57:b5, 2085-97-79 00:31:00:2042,0.037,0.015,0.999,0,2.197,0,0.137,-2.549,-100.865
 14:38:05.723,eb:33:2e:f9:57:b5, 2085-97-72 00:32:00:2038,0.033,0.016,0.995,-0.183,2.441,0,0.137,-2.549,-100.865
 14:38:05.782,eb:33:2e:f9:57:b5, 2085-97-66 00:32:00:2029,0.033,0.016,0.992,-0.244,2.258,0.061,0.137,-2.543,-100.865
 14:38:05.782,eb:33:2e:f9:57:b5, 2085-97-68 00:33:00:2031,0.039,0.016,0.992,-0.427,1.77,0.122,0.137,-2.543,-100.865
 14:38:05.782,eb:33:2e:f9:57:b5, 2085-97-71 00:26:00:2036,0.034,0.015,0.998,-0.549,1.953,0,0.137,-2.543,-100.865
 14:38:05.782,eb:33:2e:f9:57:b5, 2085-97-70 00:27:00:2034,0.035,0.014,0.993,-0.488,1.77,0,0.137,-2.543,-100.865
 14:38:05.784,eb:33:2e:f9:57:b5, 2085-97-71 00:27:00:2038,0.035,0.014,0.995,-0.427,1.465,0.061,0.137,-2.543,-100.865
 14:38:05.784,eb:33:2e:f9:57:b5, 2085-97-72 00:25:00:2039,0.036,0.014,0.995,-0.427,1.038,0,0.137,-2.543,-100.865
 14:38:05.784,eb:33:2e:f9:57:b5, 2085-97-74 00:27:00:2040,0.036,0.013,0.997,-0.366,0.732,0.061,0.137,-2.543,-100.865
 14:38:05.784,eb:33:2e:f9:57:b5, 2085-97-74 00:28:00:2039,0.036,0.014,0.996,-0.244,0.488,0.122,0.137,-2.543,-100.865
 14:38:05.843,eb:33:2e:f9:57:b5, 2085-97-74 00:26:00:2041,0.037,0.013,0.996,-0.244,0.305,0.183,0.137,-2.538,-100.865
 14:38:05.843,eb:33:2e:f9:57:b5, 2085-97-75 00:26:00:2042,0.035,0.012,0.997,-0.122,0.122,0.183,0.137,-2.538,-100.865
 14:38:05.843,eb:33:2e:f9:57:b5, 2085-97-70 00:27:00:2039,0.034,0.013,0.997,-0.061,0.183,0.244,0.137,-2.538,-100.865
 14:38:05.843,eb:33:2e:f9:57:b5, 2085-97-67 00:28:00:2035,0.031,0.014,0.995,0,0,0.183,0.137,-2.538,-100.865
 14:38:05.872,eb:33:2e:f9:57:b5, 2085-97-72 00:28:00:2040,0.037,0.014,0.993,0,-0.488,0.244,0.137,-2.538,-100.865
 14:38:05.872,eb:33:2e:f9:57:b5, 2085-97-77 00:28:00:2043,0.037,0.014,0.998,0,-0.427,0.183,0.137,-2.538,-100.865
 14:38:05.872,eb:33:2e:f9:57:b5, 2085-97-77 00:26:00:2043,0.037,0.013,0.997,0,-0.305,0.183,0.137,-2.538,-100.865
 14:38:05.872,eb:33:2e:f9:57:b5, 2085-97-74 00:27:00:2039,0.037,0.014,0.996,0,0,0.244,0.137,-2.538,-100.865
 14:38:05.934,eb:33:2e:f9:57:b5, 2085-97-75 00:30:00:2042,0.036,0.014,0.996,0,0.122,0.183,0.137,-2.532,-100.865
 14:38:05.934,eb:33:2e:f9:57:b5, 2085-97-72 00:30:00:2041,0.035,0.015,0.996,0,0.244,0.122,0.137,-2.532,-100.865
 14:38:05.934,eb:33:2e:f9:57:b5, 2085-97-74 00:30:00:2040,0.036,0.014,0.997,-0.122,0.427,0.061,0.137,-2.532,-100.865
 14:38:05.934,eb:33:2e:f9:57:b5, 2085-97-73 00:29:00:2039,0.035,0.014,0.996,-0.122,0.732,0.061,0.137,-2.532,-100.865
 14:38:05.991,eb:33:2e:f9:57:b5, 2085-97-71 00:29:00:2042,0.036,0.014,0.996,-0.244,0.977,0.061,0.137,-2.527,-100.865
 14:38:05.991,eb:33:2e:f9:57:b5, 2085-97-67 00:28:00:2039,0.033,0.014,0.997,-0.366,1.282,0,0.137,-2.527,-100.865
 14:38:05.991,eb:33:2e:f9:57:b5, 2085-97-66 00:29:00:2036,0.031,0.014,0.995,-0.488,1.16,0.061,0.137,-2.527,-100.865
 14:38:05.991,eb:33:2e:f9:57:b5, 2085-97-70 00:30:00:2040,0.034,0.014,0.993,-0.549,0.488,0.122,0.137,-2.527,-100.865
 14:38:05.993,eb:33:2e:f9:57:b5, 2085-97-75 00:28:00:2046,0.037,0.015,0.996,-0.61,0.305,0.061,0.137,-2.527,-100.865
 14:38:05.993,eb:33:2e:f9:57:b5, 2085-97-70 00:28:00:2040,0.033,0.012,0.998,-0.671,0.916,0.061,0.137,-2.527,-100.865
 14:38:05.993,eb:33:2e:f9:57:b5, 2085-97-69 00:27:00:2039,0.033,0.014,0.995,-0.671,0.854,0.061,0.137,-2.521,-100.865
 14:38:05.993,eb:33:2e:f9:57:b5, 2085-97-67 00:26:00:2038,0.033,0.013,0.996,-0.671,0.793,0.061,0.137,-2.521,-100.865
 14:38:06.052,eb:33:2e:f9:57:b5, 2085-97-68 00:26:00:2039,0.034,0.014,0.995,-0.732,0.549,0.122,0.137,-2.521,-100.865
 14:38:06.052,eb:33:2e:f9:57:b5, 2085-97-70 00:27:00:2041,0.034,0.013,0.996,-0.61,0.427,0.183,0.137,-2.521,-100.865
 14:38:06.052,eb:33:2e:f9:57:b5, 2085-97-70 00:26:00:2041,0.035,0.013,0.996,-0.61,0.366,0.122,0.137,-2.516,-100.865
 14:38:06.052,eb:33:2e:f9:57:b5, 2085-97-73 00:25:00:2045,0.036,0.012,0.998,-0.549,0.427,0.122,0.137,-2.516,-100.865
 14:38:06.082,eb:33:2e:f9:57:b5, 2085-97-73 00:27:00:2044,0.035,0.013,0.998,-0.61,0.732,0,0.137,-2.516,-100.865
 14:38:06.082,eb:33:2e:f9:57:b5, 2085-97-70 00:26:00:2042,0.033,0.013,0.999,-0.671,1.221,0,0.137,-2.516,-100.865
 14:38:06.082,eb:33:2e:f9:57:b5, 2085-97-69 00:27:00:2041,0.033,0.013,0.997,-0.61,1.404,0,0.137,-2.51,-100.865
 14:38:06.082,eb:33:2e:f9:57:b5, 2085-97-69 00:26:00:2041,0.032,0.013,0.997,-0.671,1.587,-0.061,0.137,-2.51,-100.865
 14:38:06.113,eb:33:2e:f9:57:b5, 2085-97-68 00:23:00:2042,0.033,0.011,0.997,-0.671,1.648,-0.061,0.137,-2.51,-100.865
 14:38:06.113,eb:33:2e:f9:57:b5, 2085-97-68 00:23:00:2042,0.033,0.011,0.997,-0.61,1.77,0,0.137,-2.51,-100.865
 14:38:06.113,eb:33:2e:f9:57:b5, 2085-97-66 00:23:00:2041,0.031,0.011,0.998,-0.732,2.075,0,0.137,-2.505,-100.865
 14:38:06.114,eb:33:2e:f9:57:b5, 2085-97-63 00:24:00:2040,0.03,0.012,0.997,-0.793,2.319,-0.061,0.137,-2.505,-100.865
 14:38:06.172,eb:33:2e:f9:57:b5, 2085-97-61 00:26:00:2038,0.029,0.012,0.996,-0.916,2.625,0,0.137,-2.505,-100.865
 14:38:06.172,eb:33:2e:f9:57:b5, 2085-97-59 00:24:00:2040,0.028,0.012,0.996,-0.916,2.563,0.061,0.137,-2.505,-100.865
 14:38:06.172,eb:33:2e:f9:57:b5, 2085-97-59 00:26:00:2039,0.032,0.012,0.996,-0.916,2.38,0,0.137,-2.499,-100.865
 14:38:06.172,eb:33:2e:f9:57:b5, 2085-97-66 00:25:00:2044,0.03,0.011,0.999,-0.854,2.136,-0.183,0.137,-2.499,-100.865
 14:38:06.202,eb:33:2e:f9:57:b5, 2085-97-59 00:21:00:2043,0.025,0.01,0.998,-0.916,2.075,-0.305,0.137,-2.499,-100.865
 14:38:06.202,eb:33:2e:f9:57:b5, 2085-97-53 00:21:00:2033,0.024,0.01,0.993,-0.793,1.404,-0.549,0.137,-2.499,-100.865
 14:38:06.202,eb:33:2e:f9:57:b5, 2085-97-51 00:23:00:2034,0.025,0.011,0.993,-0.793,0.244,-0.793,0.137,-2.494,-100.865
 14:38:06.202,eb:33:2e:f9:57:b5, 2085-97-50 00:23:00:2031,0.026,0.011,0.993,-0.732,-0.671,-0.854,0.137,-2.494,-100.865
 14:38:06.234,eb:33:2e:f9:57:b5, 2085-97-55 00:25:00:2036,0.028,0.012,0.993,-0.793,-1.77,-1.038,0.137,-2.488,-100.865
 14:38:06.234,eb:33:2e:f9:57:b5, 2085-97-60 00:21:00:2038,0.03,0.012,0.995,-0.977,-2.502,-1.099,0.137,-2.488,-100.865
 14:38:06.234,eb:33:2e:f9:57:b5, 2085-97-65 00:22:00:2043,0.034,0.012,0.996,-1.038,-2.686,-0.977,0.126,-2.516,-100.876
 14:38:06.234,eb:33:2e:f9:57:b5, 2085-97-72 00:18:00:2050,0.036,0.01,0.999,-1.16,-2.258,-0.732,0.115,-2.543,-100.887
 14:38:06.293,eb:33:2e:f9:57:b5, 2085-97-74 00:18:00:2048,0.037,0.008,1.001,-1.099,-1.343,-0.427,0.104,-2.56,-100.893
 14:38:06.293,eb:33:2e:f9:57:b5, 2085-97-73 00:17:00:2047,0.035,0.009,1,-1.038,-0.488,-0.244,0.093,-2.571,-100.898
 14:38:06.293,eb:33:2e:f9:57:b5, 2085-97-71 00:16:00:2047,0.034,0.008,1,-0.977,0.061,0,0.082,-2.571,-100.898
 14:38:06.293,eb:33:2e:f9:57:b5, 2085-97-66 00:16:00:2044,0.032,0.008,0.999,-0.916,0.488,0,0.077,-2.571,-100.898
 14:38:06.323,eb:33:2e:f9:57:b5, 2085-97-67 00:10:00:2046,0.03,0.009,0.998,-0.793,0.61,0,0.066,-2.565,-100.898
 14:38:06.323,eb:33:2e:f9:57:b5, 2085-97-58 00:16:00:2037,0.029,0.007,0.996,-0.61,0.61,0.061,0.06,-2.554,-100.898
 14:38:06.323,eb:33:2e:f9:57:b5, 2085-97-62 00:14:00:2043,0.03,0.007,0.997,-0.61,0.122,0,0.055,-2.554,-100.898
 14:38:06.323,eb:33:2e:f9:57:b5, 2085-113-58 00:36:220:-1410,0.031,0.007,0.997,-0.427,-0.122,0,0.049,-2.554,-100.898
 14:38:06.354,eb:33:2e:f9:57:b5, 2085-97-61 00:15:00:2041,0.031,0.007,0.996,-0.366,-0.244,0,0.049,-2.554,-100.898
 14:38:06.354,eb:33:2e:f9:57:b5, 2085-97-62 00:15:00:2042,0.03,0.007,0.996,-0.366,-0.488,0.061,0.044,-2.56,-100.893
 14:38:06.354,eb:33:2e:f9:57:b5, 2085-97-62 00:17:00:2042,0.03,0.007,0.997,-0.183,-0.671,0,0.038,-2.571,-100.893
 14:38:06.354,eb:33:2e:f9:57:b5, 2085-97-64 00:15:00:2043,0.032,0.008,0.997,-0.122,-0.916,0.061,0.038,-2.576,-100.893
 14:38:06.412,eb:33:2e:f9:57:b5, 2085-97-66 00:15:00:2046,0.033,0.007,0.998,-0.061,-1.038,0.061,0.038,-2.587,-100.893
 14:38:06.412,eb:33:2e:f9:57:b5, 2085-97-64 00:16:00:2042,0.033,0.007,0.999,-0.061,-0.854,0.122,0.038,-2.598,-100.893
 14:38:06.413,eb:33:2e:f9:57:b5, 2085-97-69 00:17:00:2045,0.035,0.008,0.998,-0.061,-0.916,0.183,0.038,-2.609,-100.887
 14:38:06.413,eb:33:2e:f9:57:b5, 2085-97-73 00:14:00:2049,0.036,0.007,1,0,-0.488,0.244,0.033,-2.62,-100.887
 14:38:06.442,eb:33:2e:f9:57:b5, 2085-97-72 00:15:00:2048,0.035,0.006,1,0,0,0.366,0.033,-2.62,-100.882
 14:38:06.442,eb:33:2e:f9:57:b5, 2085-97-72 00:18:00:2048,0.037,0.008,1,0,0.61,0.488,0.033,-2.62,-100.882
 14:38:06.442,eb:33:2e:f9:57:b5, 2085-97-76 00:17:00:2050,0.038,0.007,1.001,0.061,1.282,0.549,0.033,-2.609,-100.876
 14:38:06.442,eb:33:2e:f9:57:b5, 2085-97-79 00:17:00:2055,0.036,0.008,1.003,-0.061,2.075,0.671,0.033,-2.598,-100.871
 14:38:06.471,eb:33:2e:f9:57:b5, 2085-97-67 00:17:00:2046,0.031,0.008,1.002,-0.183,3.174,0.793,0.033,-2.587,-100.865
 14:38:06.471,eb:33:2e:f9:57:b5, 2085-97-61 00:17:00:2042,0.029,0.009,0.997,-0.183,3.662,0.854,0.033,-2.554,-100.854
 14:38:06.471,eb:33:2e:f9:57:b5, 2085-97-59 00:19:00:2042,0.03,0.008,0.997,-0.183,3.723,0.977,0.027,-2.516,-100.849
 14:38:06.471,eb:33:2e:f9:57:b5, 2085-97-63 00:13:00:2048,0.029,0.009,0.998,-0.305,3.601,0.916,0.027,-2.477,-100.838
 14:38:06.532,eb:33:2e:f9:57:b5, 2085-97-57 00:18:00:2043,0.028,0.009,0.997,-0.366,3.784,1.099,0.022,-2.439,-100.827
 14:38:06.532,eb:33:2e:f9:57:b5, 2085-97-53 00:19:00:2038,0.025,0.008,0.997,-0.427,3.662,1.038,0.016,-2.406,-100.816
 14:38:06.532,eb:33:2e:f9:57:b5, 2085-97-53 00:17:00:2040,0.024,0.01,0.995,-0.427,3.235,0.977,0.011,-2.373,-100.805
 14:38:06.532,eb:33:2e:f9:57:b5, 2085-97-50 00:19:00:2038,0.024,0.009,0.996,-0.366,3.052,0.793,0.011,-2.34,-100.794
 14:38:06.562,eb:33:2e:f9:57:b5, 2085-97-51 00:18:00:2041,0.025,0.008,0.995,-0.366,2.808,0.549,0.005,-2.313,-100.789
 14:38:06.562,eb:33:2e:f9:57:b5, 2085-97-52 00:16:00:2042,0.025,0.009,0.997,-0.366,2.808,0.488,0,-2.285,-100.783
 14:38:06.562,eb:33:2e:f9:57:b5, 2085-97-48 00:19:00:2040,0.025,0.008,0.997,-0.366,2.93,0.366,-0.005,-2.258,-100.778
 14:38:06.562,eb:33:2e:f9:57:b5, 2085-97-51 00:17:00:2043,0.023,0.009,0.999,-0.427,3.052,0.305,-0.005,-2.225,-100.772
 14:38:06.592,eb:33:2e:f9:57:b5, 2085-97-43 00:17:00:2037,0.02,0.008,0.997,-0.427,3.113,0.305,-0.011,-2.197,-100.767
 14:38:06.592,eb:33:2e:f9:57:b5, 2085-97-37 00:17:00:2034,0.018,0.008,0.994,-0.488,2.686,0.183,-0.016,-2.17,-100.767
 14:38:06.592,eb:33:2e:f9:57:b5, 2085-97-36 00:15:00:2035,0.018,0.008,0.993,-0.488,2.014,0.061,-0.022,-2.148,-100.767
 14:38:06.593,eb:33:2e:f9:57:b5, 2085-97-40 00:14:00:2035,0.02,0.008,0.994,-0.366,1.282,0,-0.027,-2.131,-100.761
 14:38:06.654,eb:33:2e:f9:57:b5, 2085-97-39 00:15:00:2036,0.02,0.008,0.994,-0.366,0.61,-0.122,-0.033,-2.12,-100.767
 14:38:06.654,eb:33:2e:f9:57:b5, 2085-97-43 00:14:00:2040,0.021,0.007,0.995,-0.305,0.183,-0.244,-0.033,-2.12,-100.767
 14:38:06.654,eb:33:2e:f9:57:b5, 2085-97-45 00:16:00:2040,0.023,0.007,0.996,-0.366,0.061,-0.305,-0.038,-2.12,-100.772
 14:38:06.654,eb:33:2e:f9:57:b5, 2085-97-69 00:06:00:2062,0.021,0.007,0.998,-0.366,0.122,-0.366,-0.038,-2.12,-100.772
 14:38:06.682,eb:33:2e:f9:57:b5, 2085-97-42 00:20:00:2037,0.023,0.008,0.997,-0.427,0.061,-0.366,-0.044,-2.115,-100.778
 14:38:06.682,eb:33:2e:f9:57:b5, 2085-97-44 00:16:00:2039,0.022,0.006,0.999,-0.366,0.427,-0.671,-0.049,-2.115,-100.783
 14:38:06.682,eb:33:2e:f9:57:b5, 2085-97-44 00:16:00:2042,0.022,0.007,0.998,-0.366,0.366,-0.732,-0.049,-2.109,-100.789
 14:38:06.682,eb:33:2e:f9:57:b5, 2085-97-47 00:15:00:2044,0.022,0.007,0.997,-0.427,0.244,-0.916,-0.055,-2.109,-100.8
 14:38:06.712,eb:33:2e:f9:57:b5, 2085-97-42 00:13:00:2041,0.023,0.007,0.998,-0.549,0.366,-0.916,-0.06,-2.104,-100.811
 14:38:06.712,eb:33:2e:f9:57:b5, 2085-97-39 00:14:00:2036,0.021,0.009,1,-0.488,0.305,-0.977,-0.066,-2.098,-100.816
 14:38:06.712,eb:33:2e:f9:57:b5, 2085-97-43 00:12:00:2040,0.021,0.007,0.997,-0.549,0,-1.099,-0.071,-2.104,-100.827
 14:38:06.712,eb:33:2e:f9:57:b5, 2085-97-41 00:13:00:2038,0.021,0.007,0.996,-0.549,-0.427,-1.038,-0.077,-2.104,-100.838
 14:38:06.771,eb:33:2e:f9:57:b5, 2085-97-40 00:13:00:2038,0.019,0.006,0.996,-0.549,-0.732,-1.038,-0.082,-2.109,-100.849
 14:38:06.771,eb:33:2e:f9:57:b5, 2085-97-45 00:12:00:2042,0.022,0.006,0.995,-0.549,-1.16,-1.038,-0.088,-2.12,-100.86
 14:38:06.771,eb:33:2e:f9:57:b5, 2085-97-47 00:10:00:2042,0.026,0.005,0.998,-0.427,-1.099,-0.916,-0.088,-2.131,-100.871
 14:38:06.771,eb:33:2e:f9:57:b5, 2085-97-43 00:09:00:2040,0.022,0.006,1,-0.366,-0.977,-0.732,-0.093,-2.148,-100.882
 14:38:06.803,eb:33:2e:f9:57:b5, 2085-97-51 00:08:00:2049,0.025,0.006,0.998,-0.244,-1.16,-0.732,-0.099,-2.159,-100.887
 14:38:06.803,eb:33:2e:f9:57:b5, 2085-97-53 00:10:00:2044,0.025,0.005,0.999,-0.305,-0.671,-0.488,-0.099,-2.137,-100.893
 14:38:06.803,eb:33:2e:f9:57:b5, 2085-97-50 00:11:00:2042,0.024,0.005,1,-0.366,-0.122,-0.244,-0.099,-2.137,-100.893
 14:38:06.803,eb:33:2e:f9:57:b5, 2085-97-50 00:11:00:2044,0.024,0.006,0.998,-0.366,0.061,-0.122,-0.104,-2.12,-100.887
 14:38:06.832,eb:33:2e:f9:57:b5, 2085-97-48 00:12:00:2043,0.021,0.005,0.999,-0.366,0.305,-0.244,-0.104,-2.12,-100.887
 14:38:06.832,eb:33:2e:f9:57:b5, 2085-97-47 00:11:00:2042,0.021,0.005,0.996,-0.305,0.183,-0.305,-0.11,-2.104,-100.887
 14:38:06.832,eb:33:2e:f9:57:b5, 2085-97-44 00:13:00:2041,0.017,0.006,0.997,-0.305,0,-0.305,-0.11,-2.104,-100.887
 14:38:06.832,eb:33:2e:f9:57:b5, 2085-97-40 00:12:00:2036,0.023,0.011,0.993,-0.366,-0.244,-0.366,-0.11,-2.093,-100.887
 14:38:06.892,eb:33:2e:f9:57:b5, 2085-97-45 00:13:00:2041,0.023,0.006,0.998,-0.427,-0.793,-0.549,-0.11,-2.093,-100.887
 14:38:06.892,eb:33:2e:f9:57:b5, 2085-97-49 00:10:00:2045,0.023,0.005,0.998,-0.488,-0.977,-0.488,-0.11,-2.076,-100.887
 14:38:06.892,eb:33:2e:f9:57:b5, 2085-97-48 00:09:00:2045,0.021,0.005,0.998,-0.549,-0.793,-0.366,-0.11,-2.076,-100.887
 14:38:06.892,eb:33:2e:f9:57:b5, 2085-97-46 00:10:00:2042,0.022,0.005,0.996,-0.549,-0.977,-0.366,-0.115,-2.065,-100.887
 14:38:06.922,eb:33:2e:f9:57:b5, 2085-97-45 00:10:00:2040,0.024,0.005,0.997,-0.488,-1.099,-0.305,-0.115,-2.065,-100.887
 14:38:06.922,eb:33:2e:f9:57:b5, 2085-97-49 00:08:00:2043,0.024,0.005,0.997,-0.427,-1.221,-0.183,-0.115,-2.06,-100.887
 14:38:06.922,eb:33:2e:f9:57:b5, 2085-97-55 00:07:00:2047,0.028,0.003,0.998,-0.305,-1.099,-0.122,-0.115,-2.06,-100.887
 14:38:06.923,eb:33:2e:f9:57:b5, 2085-97-56 00:07:00:2048,0.028,0.003,1,-0.244,-0.549,0,-0.115,-2.049,-100.887
 14:38:06.983,eb:33:2e:f9:57:b5, 2085-97-56 00:07:00:2048,0.026,0.003,1.001,-0.061,0,0.122,-0.115,-2.049,-100.887
 14:38:06.983,eb:33:2e:f9:57:b5, 2085-97-53 00:07:00:2045,0.026,0.003,0.999,0.183,0.549,0.061,-0.121,-2.043,-100.887
 14:38:06.984,eb:33:2e:f9:57:b5, 2085-97-49 00:08:00:2043,0.024,0.004,0.999,0.244,1.038,0.061,-0.121,-2.043,-100.887
 14:38:06.984,eb:33:2e:f9:57:b5, 2085-97-49 00:09:00:2042,0.023,0.004,0.998,0.427,1.16,0,-0.121,-2.032,-100.887
 14:38:06.984,eb:33:2e:f9:57:b5, 2085-97-47 00:10:00:2041,0.022,0.004,0.998,0.427,1.221,0,-0.121,-2.032,-100.887
 14:38:07.012,eb:33:2e:f9:57:b5, 2085-113-81 00:128:81:-382,0.023,0.005,0.996,0.61,1.099,-0.061,-0.121,-2.027,-100.887
 14:38:07.012,eb:33:2e:f9:57:b5, 2085-97-48 00:09:00:2044,0.022,0.004,0.998,0.549,1.038,-0.122,-0.121,-2.027,-100.887
 14:38:07.012,eb:33:2e:f9:57:b5, 2085-97-46 00:10:00:2042,0.023,0.005,0.997,0.671,0.916,-0.183,-0.126,-2.021,-100.887
 14:38:07.012,eb:33:2e:f9:57:b5, 2085-97-49 00:13:00:2044,0.021,0.005,0.998,0.671,0.977,-0.122,-0.126,-2.021,-100.887
 14:38:07.042,eb:33:2e:f9:57:b5, 2085-97-46 00:14:00:2041,0.021,0.006,0.995,0.61,0.793,-0.183,-0.126,-2.016,-100.887
 14:38:07.042,eb:33:2e:f9:57:b5, 2085-97-42 00:11:00:2038,0.02,0.005,0.995,0.61,0.854,-0.488,-0.126,-2.016,-100.887
 14:38:07.042,eb:33:2e:f9:57:b5, 2085-97-42 00:09:00:2040,0.022,0.005,0.995,0.671,0.366,-0.671,-0.126,-2.01,-100.887
 14:38:07.042,eb:33:2e:f9:57:b5, 2085-97-46 00:10:00:2040,0.022,0.005,0.996,0.732,0,-0.549,-0.126,-2.01,-100.887
 14:38:07.102,eb:33:2e:f9:57:b5, 2085-97-48 00:10:00:2044,0.022,0.005,0.998,0.732,-0.183,-0.549,-0.126,-2.005,-100.887
 14:38:07.102,eb:33:2e:f9:57:b5, 2085-97-45 00:12:00:2040,0.023,0.005,0.998,0.916,-0.244,-0.61,-0.126,-2.005,-100.887
 14:38:07.102,eb:33:2e:f9:57:b5, 2085-97-45 00:11:00:2040,0.021,0.006,0.998,0.916,-0.427,-0.61,-0.126,-2,-100.887
 14:38:07.102,eb:33:2e:f9:57:b5, 2085-97-43 00:14:00:2039,0.021,0.006,0.996,0.977,-0.732,-0.671,-0.126,-2,-100.887
 14:38:07.134,eb:33:2e:f9:57:b5, 2085-97-41 00:14:00:2036,0.02,0.009,0.994,0.977,-1.16,-1.038,-0.132,-1.994,-100.887
 14:38:07.134,eb:33:2e:f9:57:b5, 2085-97-39 00:17:00:2034,0.021,0.008,0.994,1.099,-1.709,-1.099,-0.132,-1.994,-100.887
 14:38:07.134,eb:33:2e:f9:57:b5, 2085-97-43 00:16:00:2038,0.022,0.008,0.994,1.16,-2.319,-1.343,-0.132,-1.989,-100.887
 14:38:07.134,eb:33:2e:f9:57:b5, 2085-97-49 00:15:00:2040,0.024,0.008,0.995,1.16,-2.808,-1.465,-0.121,-2.01,-100.898
 14:38:07.165,eb:33:2e:f9:57:b5, 2085-97-48 00:18:00:2039,0.024,0.007,0.997,1.099,-2.869,-1.465,-0.11,-2.043,-100.915
 14:38:07.165,eb:33:2e:f9:57:b5, 2085-97-59 00:15:00:2050,0.031,0.008,0.997,1.16,-3.052,-1.465,-0.093,-2.071,-100.931
 14:38:07.165,eb:33:2e:f9:57:b5, 2085-97-58 00:17:00:2046,0.026,0.007,1.001,1.038,-2.197,-1.282,-0.082,-2.098,-100.948
 14:38:07.165,eb:33:2e:f9:57:b5, 2085-97-52 00:17:00:2044,0.025,0.008,0.998,1.038,-1.831,-1.16,-0.071,-2.12,-100.959
 14:38:07.224,eb:33:2e:f9:57:b5, 2085-97-53 00:17:00:2041,0.024,0.008,0.997,1.099,-1.831,-1.038,-0.06,-2.137,-100.97
 14:38:07.224,eb:33:2e:f9:57:b5, 2085-97-49 00:19:00:2037,0.025,0.01,0.996,1.16,-1.953,-1.221,-0.049,-2.159,-100.981
 14:38:07.224,eb:33:2e:f9:57:b5, 2085-97-48 00:21:00:2034,0.024,0.009,0.995,1.221,-2.136,-1.343,-0.033,-2.181,-100.992
 14:38:07.224,eb:33:2e:f9:57:b5, 2085-97-50 00:21:00:2035,0.026,0.01,0.994,1.221,-2.869,-1.587,-0.022,-2.203,-101.008
 14:38:07.253,eb:33:2e:f9:57:b5, 2085-97-55 00:24:00:2038,0.026,0.011,0.995,1.282,-3.174,-1.709,-0.005,-2.236,-101.025
 14:38:07.253,eb:33:2e:f9:57:b5, 2085-97-54 00:24:00:2037,0.026,0.011,0.994,1.221,-3.296,-1.953,0.005,-2.269,-101.047
 14:38:07.253,eb:33:2e:f9:57:b5, 2085-97-61 00:25:00:2040,0.031,0.012,0.994,1.221,-3.723,-2.197,0.022,-2.307,-101.069
 14:38:07.253,eb:33:2e:f9:57:b5, 2085-97-67 00:24:00:2045,0.033,0.013,0.997,1.16,-3.418,-2.563,0.033,-2.346,-101.091
 14:38:07.283,eb:33:2e:f9:57:b5, 2085-97-69 00:25:00:2044,0.032,0.012,0.999,1.221,-2.625,-2.93,0.049,-2.373,-101.124
 14:38:07.284,eb:33:2e:f9:57:b5, 2085-97-68 00:24:00:2045,0.037,0.013,0.997,1.221,-2.014,-3.357,0.06,-2.395,-101.151
 14:38:07.284,eb:33:2e:f9:57:b5, 2085-97-81 00:23:00:2060,0.039,0.011,1.001,1.038,-1.343,-3.174,0.077,-2.417,-101.184
 14:38:07.284,eb:33:2e:f9:57:b5, 2085-97-73 00:21:00:2050,0.033,0.011,1.003,0.793,0.305,-2.747,0.088,-2.422,-101.217
 14:38:07.344,eb:33:2e:f9:57:b5, 2085-97-67 00:21:00:2045,0.033,0.012,0.999,0.732,0.916,-2.319,0.093,-2.411,-101.245
 14:38:07.344,eb:33:2e:f9:57:b5, 2085-97-63 00:24:00:2041,0.03,0.01,0.999,0.732,1.221,-2.136,0.104,-2.401,-101.266
 14:38:07.344,eb:33:2e:f9:57:b5, 2085-97-58 00:23:00:2041,0.028,0.01,0.998,0.549,0.916,-1.77,0.11,-2.39,-101.283
 14:38:07.344,eb:33:2e:f9:57:b5, 2085-97-53 00:24:00:2033,0.025,0.01,0.996,0.549,0.488,-1.587,0.115,-2.384,-101.299
 14:38:07.372,eb:33:2e:f9:57:b5, 2085-97-54 00:22:00:2036,0.026,0.011,0.993,0.671,-0.793,-1.709,0.126,-2.39,-101.316
 14:38:07.372,eb:33:2e:f9:57:b5, 2085-97-53 00:24:00:2032,0.026,0.012,0.993,0.793,-2.075,-1.77,0.132,-2.401,-101.338
 14:38:07.372,eb:33:2e:f9:57:b5, 2085-97-53 00:25:00:2034,0.03,0.011,0.993,0.916,-3.601,-1.953,0.143,-2.433,-101.354
 14:38:07.372,eb:33:2e:f9:57:b5, 2085-97-67 00:21:00:2044,0.034,0.011,0.996,1.099,-4.456,-1.953,0.154,-2.477,-101.376
 14:38:07.402,eb:33:2e:f9:57:b5, 2085-97-71 00:21:00:2047,0.037,0.011,0.999,1.16,-4.395,-1.77,0.17,-2.521,-101.398
 14:38:07.402,eb:33:2e:f9:57:b5, 2085-97-71 00:21:00:2046,0.034,0.01,1.001,1.16,-3.784,-1.343,0.181,-2.565,-101.415
 14:38:07.402,eb:33:2e:f9:57:b5, 2085-97-76 00:22:00:2052,0.041,0.011,0.998,1.221,-3.662,-0.854,0.192,-2.598,-101.426
 14:38:07.402,eb:33:2e:f9:57:b5, 2085-97-80 00:21:00:2054,0.038,0.009,1.004,1.099,-2.625,-0.305,0.203,-2.631,-101.431
 14:38:07.463,eb:33:2e:f9:57:b5, 2085-97-75 00:23:00:2047,0.034,0.011,1.001,1.16,-1.587,0.122,0.22,-2.653,-101.431
 14:38:07.463,eb:33:2e:f9:57:b5, 2085-97-70 00:27:00:2040,0.035,0.012,0.997,1.099,-1.465,0.488,0.231,-2.67,-101.431
 14:38:07.463,eb:33:2e:f9:57:b5, 2085-97-71 00:27:00:2042,0.035,0.013,0.997,0.977,-1.648,0.732,0.242,-2.686,-101.42
 14:38:07.463,eb:33:2e:f9:57:b5, 2085-97-75 00:29:00:2043,0.037,0.014,0.998,0.854,-1.648,0.977,0.247,-2.703,-101.415
 14:38:07.495,eb:33:2e:f9:57:b5, 2085-97-73 00:29:00:2042,0.037,0.014,0.997,0.732,-1.404,1.282,0.258,-2.719,-101.404
 14:38:07.495,eb:33:2e:f9:57:b5, 2085-97-75 00:30:00:2041,0.037,0.015,0.997,0.61,-1.221,1.404,0.264,-2.736,-101.387
 14:38:07.495,eb:33:2e:f9:57:b5, 2085-97-75 00:31:00:2039,0.037,0.016,0.996,0.427,-1.099,1.587,0.269,-2.747,-101.376
 14:38:07.495,eb:33:2e:f9:57:b5, 2085-97-74 00:33:00:2039,0.036,0.016,0.995,0.305,-1.099,1.526,0.269,-2.758,-101.36
 14:38:07.522,eb:33:2e:f9:57:b5, 2085-97-70 00:34:00:2035,0.034,0.017,0.994,0.183,-1.099,1.343,0.275,-2.774,-101.343
 14:38:07.522,eb:33:2e:f9:57:b5, 2085-97-68 00:35:00:2032,0.033,0.018,0.993,0.122,-1.587,1.038,0.275,-2.785,-101.332
 14:38:07.522,eb:33:2e:f9:57:b5, 2085-97-66 00:35:00:2029,0.033,0.017,0.992,0,-2.258,0.793,0.275,-2.807,-101.321
 14:38:07.522,eb:33:2e:f9:57:b5, 2085-97-72 00:31:00:2034,0.037,0.017,0.991,-0.061,-3.296,0.549,0.275,-2.834,-101.316
 14:38:07.583,eb:33:2e:f9:57:b5, 2085-97-76 00:30:00:2036,0.037,0.016,0.996,-0.183,-3.662,0.366,0.275,-2.873,-101.31
 14:38:07.585,eb:33:2e:f9:57:b5, 2085-97-76 00:31:00:2035,0.038,0.015,0.994,-0.244,-4.211,0.427,0.269,-2.911,-101.305
 14:38:07.585,eb:33:2e:f9:57:b5, 2085-97-80 00:30:00:2038,0.041,0.015,0.995,-0.366,-4.7,0.366,0.269,-2.961,-101.305
 14:38:07.585,eb:33:2e:f9:57:b5, 2085-97-86 00:31:00:2041,0.042,0.015,0.996,-0.427,-4.822,0.427,0.264,-3.01,-101.299
 14:38:07.642,eb:33:2e:f9:57:b5, 2085-97-89 00:30:00:2044,0.043,0.015,0.998,-0.549,-4.517,0.549,0.258,-3.054,-101.294
 14:38:07.642,eb:33:2e:f9:57:b5, 2085-97-87 00:31:00:2041,0.043,0.015,0.997,-0.549,-4.028,0.671,0.253,-3.098,-101.288
 14:38:07.642,eb:33:2e:f9:57:b5, 2085-97-91 00:26:00:2044,0.046,0.014,0.998,-0.61,-3.662,0.427,0.242,-3.137,-101.283
 14:38:07.642,eb:33:2e:f9:57:b5, 2085-97-94 00:26:00:2045,0.046,0.014,0.999,-0.61,-3.174,0.427,0.236,-3.175,-101.283
 14:38:07.644,eb:33:2e:f9:57:b5, 2085-97-96 00:25:00:2047,0.048,0.014,0.999,-0.549,-2.625,0.366,0.231,-3.203,-101.277
 14:38:07.644,eb:33:2e:f9:57:b5, 2085-97-101 00:25:00:2049,0.048,0.012,1,-0.488,-1.77,0.366,0.225,-3.224,-101.272
 14:38:07.644,eb:33:2e:f9:57:b5, 2085-97-97 00:26:00:2045,0.045,0.012,1,-0.427,-0.916,0.366,0.22,-3.241,-101.272
 14:38:07.644,eb:33:2e:f9:57:b5, 2085-97-93 00:27:00:2042,0.048,0.013,0.997,-0.366,-0.793,0.488,0.22,-3.252,-101.266
 14:38:07.703,eb:33:2e:f9:57:b5, 2085-97-97 00:24:00:2047,0.047,0.012,1,-0.427,-0.671,0.671,0.214,-3.257,-101.261
 14:38:07.703,eb:33:2e:f9:57:b5, 2085-97-94 00:27:00:2041,0.044,0.013,0.998,-0.305,-0.061,0.793,0.209,-3.263,-101.25
 14:38:07.703,eb:33:2e:f9:57:b5, 2085-97-92 00:26:00:2042,0.046,0.013,0.998,-0.244,0.061,0.854,0.203,-3.263,-101.245
 14:38:07.712,eb:33:2e:f9:57:b5, 2085-97-92 00:29:00:2042,0.045,0.012,0.998,-0.183,0.305,1.038,0.203,-3.263,-101.234
 14:38:07.762,eb:33:2e:f9:57:b5, 2085-97-94 00:25:00:2044,0.046,0.013,0.997,-0.244,0.427,0.977,0.198,-3.257,-101.223
 14:38:07.762,eb:33:2e:f9:57:b5, 2085-97-95 00:25:00:2042,0.046,0.013,0.997,-0.183,0.61,1.038,0.198,-3.252,-101.212
 14:38:07.764,eb:33:2e:f9:57:b5, 2085-97-93 00:26:00:2041,0.044,0.013,0.997,-0.244,0.854,1.16,0.192,-3.246,-101.201
 14:38:07.764,eb:33:2e:f9:57:b5, 2085-97-89 00:28:00:2038,0.044,0.013,0.996,-0.244,0.977,1.221,0.192,-3.235,-101.19
 14:38:07.766,eb:33:2e:f9:57:b5, 2085-97-92 00:28:00:2039,0.045,0.014,0.995,-0.305,0.916,1.16,0.187,-3.23,-101.179
 14:38:07.766,eb:33:2e:f9:57:b5, 2085-97-93 00:28:00:2041,0.045,0.014,0.997,-0.366,1.343,1.16,0.181,-3.219,-101.162
 14:38:07.766,eb:33:2e:f9:57:b5, 2085-97-90 00:26:00:2041,0.044,0.014,0.997,-0.366,1.709,1.099,0.176,-3.203,-101.151
 14:38:07.766,eb:33:2e:f9:57:b5, 2085-97-92 00:28:00:2043,0.045,0.012,0.996,-0.488,1.709,1.038,0.176,-3.186,-101.14
 14:38:07.823,eb:33:2e:f9:57:b5, 2085-97-88 00:29:00:2040,0.042,0.013,0.998,-0.671,1.77,1.099,0.165,-3.17,-101.129
 14:38:07.823,eb:33:2e:f9:57:b5, 2085-97-87 00:27:00:2041,0.043,0.013,0.995,-0.793,1.404,0.916,0.159,-3.153,-101.118
 14:38:07.823,eb:33:2e:f9:57:b5, 2085-97-84 00:27:00:2038,0.042,0.013,0.997,-0.732,1.465,0.732,0.154,-3.142,-101.113
 14:38:07.823,eb:33:2e:f9:57:b5, 2085-97-85 00:27:00:2038,0.042,0.013,0.995,-0.793,1.343,0.732,0.143,-3.126,-101.102
 14:38:07.853,eb:33:2e:f9:57:b5, 2085-97-84 00:25:00:2037,0.042,0.013,0.996,-0.854,1.343,0.671,0.132,-3.115,-101.096
 14:38:07.853,eb:33:2e:f9:57:b5, 2085-97-89 00:25:00:2043,0.043,0.013,0.996,-0.793,1.343,0.671,0.126,-3.104,-101.085
 14:38:07.853,eb:33:2e:f9:57:b5, 2085-97-89 00:23:00:2042,0.042,0.011,0.998,-0.916,1.526,0.671,0.115,-3.087,-101.08
 14:38:07.853,eb:33:2e:f9:57:b5, 2085-97-85 00:24:00:2039,0.041,0.011,0.997,-0.916,1.709,0.732,0.104,-3.071,-101.074
 14:38:07.882,eb:33:2e:f9:57:b5, 2085-97-86 00:22:00:2040,0.041,0.011,0.996,-0.854,1.587,0.549,0.099,-3.054,-101.063
 14:38:07.882,eb:33:2e:f9:57:b5, 2085-97-88 00:21:00:2044,0.044,0.009,0.996,-0.671,1.465,0.488,0.088,-3.043,-101.058
 14:38:07.882,eb:33:2e:f9:57:b5, 2085-113-81 00:89:81:-566,0.045,0.008,1,-0.549,1.587,0.549,0.082,-3.027,-101.052
 14:38:07.882,eb:33:2e:f9:57:b5, 2085-97-89 00:18:00:2045,0.042,0.008,1.001,-0.488,1.953,0.61,0.077,-3.016,-101.052
 14:38:07.942,eb:33:2e:f9:57:b5, 2085-97-85 00:20:00:2041,0.041,0.009,0.998,-0.366,2.319,0.732,0.071,-2.999,-101.041
 14:38:07.942,eb:33:2e:f9:57:b5, 2085-97-81 00:19:00:2041,0.041,0.01,0.997,-0.305,2.441,0.732,0.071,-2.972,-101.036
 14:38:07.942,eb:33:2e:f9:57:b5, 2085-97-79 00:19:00:2040,0.037,0.009,0.997,-0.183,2.441,0.671,0.066,-2.95,-101.03
