Acceleration X(g)_mean,Acceleration X(g)_std,Acceleration X(g)_var,Acceleration X(g)_rms,Acceleration X(g)_sma,Acceleration X(g)_freq_dom,Acceleration X(g)_spec_entropy,Acceleration Y(g)_mean,Acceleration Y(g)_std,Acceleration Y(g)_var,Acceleration Y(g)_rms,Acceleration Y(g)_sma,Acceleration Y(g)_freq_dom,Acceleration Y(g)_spec_entropy,Acceleration Z(g)_mean,Acceleration Z(g)_std,Acceleration Z(g)_var,Acceleration Z(g)_rms,Acceleration Z(g)_sma,Acceleration Z(g)_freq_dom,Acceleration Z(g)_spec_entropy,Angular velocity X(°/s)_mean,Angular velocity X(°/s)_std,Angular velocity X(°/s)_var,Angular velocity X(°/s)_rms,Angular velocity X(°/s)_sma,Angular velocity X(°/s)_freq_dom,Angular velocity X(°/s)_spec_entropy,Angular velocity Y(°/s)_mean,Angular velocity Y(°/s)_std,Angular velocity Y(°/s)_var,Angular velocity Y(°/s)_rms,Angular velocity Y(°/s)_sma,Angular velocity Y(°/s)_freq_dom,Angular velocity Y(°/s)_spec_entropy,Angular velocity Z(°/s)_mean,Angular velocity Z(°/s)_std,Angular velocity Z(°/s)_var,Angular velocity Z(°/s)_rms,Angular velocity Z(°/s)_sma,Angular velocity Z(°/s)_freq_dom,Angular velocity Z(°/s)_spec_entropy,Clase,Sujeto
0.0012408234997523,0.0007736924801453,5.986000538335074e-07,0.0014622732341704,0.0012479261335123,5.078125,2.962972707276416,0.0229336819454588,0.0010556017101424,1.114294970455634e-06,0.0229579629441708,0.0229336819454588,0.390625,2.555741943744147,0.9966171109039754,0.001109598055821,1.2312078454817633e-06,0.9966177285972954,0.9966171109039754,5.46875,2.76180321108116,-0.04667550853225,0.2687333225491549,0.0722175986483081,0.2727566713117247,0.2108251524767428,1.171875,2.260126419830674,-0.0534986503464288,0.0932417895798801,0.0086940313240586,0.1074994740124252,0.0868182432132964,5.078125,2.5626357985857573,0.1556657096925844,0.1192902799629208,0.014230170893632,0.1961172712122214,0.1625242345531493,1.171875,2.4304423004799784,Quieto,S01
0.0014673537258665,0.0008363030503537,6.994027920309741e-07,0.0016889433823682,0.0014674255159515,5.078125,2.721696985736181,0.0224735002767043,0.0010188679679074,1.0380919360279286e-06,0.0224965843323616,0.0224735002767043,0.390625,2.4765845876934245,0.9966743606128468,0.0010087857641456,1.0176487179429414e-06,0.9966748711348876,0.9966743606128468,4.6875,2.565482525317177,-0.1670097890005319,0.2425562137250735,0.0588335168166435,0.2944924216998558,0.2181064643962036,1.171875,2.3346149041209654,-0.0689073614056376,0.1092025336148823,0.0119251933479095,0.1291255892679552,0.1048579738416265,4.6875,2.620261321928592,0.1090261670929102,0.1140156344723509,0.0129995649041327,0.1577538272597654,0.127907712507159,0.390625,2.5463031969927914,Quieto,S01
0.001819004535487,0.0009138962600481,8.352063741299739e-07,0.0020356777432227,0.0018214809899172,5.46875,2.119347515607617,0.0209367647340295,0.0012903395365108,1.664976119483131e-06,0.0209764890686594,0.0209367647340295,0.390625,1.7188396259281176,0.9968775459279802,0.0010247508834182,1.0501143730664718e-06,0.9968780726296296,0.9968775459279802,5.46875,2.666009605258358,-0.1598135281596302,0.2879632879142888,0.0829228551864076,0.3293375456416054,0.2354250268353089,0.78125,1.9377756191875937,-0.0679184744925459,0.129175810419072,0.016686389997424,0.1459428284460002,0.1217572393561845,5.46875,2.330637849045261,0.1081065429205754,0.1336051621386046,0.0178503393500828,0.1718643766820834,0.1421984172194336,0.78125,2.0915725448145697,Quieto,S01
0.0017988468292701,0.0008810561288686,7.762599022169586e-07,0.00200302516644,0.0018013232837003,5.078125,2.1235350444485754,0.0205719429265894,0.0011229234868231,1.260957157259073e-06,0.0206025676295968,0.0205719429265894,0.390625,2.0017623498656074,0.996958410052926,0.0009656383762242,9.32457473637014e-07,0.996958877703956,0.996958410052926,4.6875,2.7329263508133383,-0.056845110340643,0.2893243956323594,0.08370860590803,0.294855850336516,0.2082732781243461,0.390625,2.0984750888699137,-0.032049540886322,0.128992940345226,0.016639178658907,0.1329148288564187,0.1086501757432099,5.078125,2.138045036199063,0.1353101133100503,0.1341929369192877,0.0180077443190239,0.1905690716853146,0.1576488994143901,5.078125,2.383914339734467,Quieto,S01
0.0015945808545927,0.0006827588396651,4.661596331408398e-07,0.0017346030482431,0.0015945808545927,4.296875,2.503628647947226,0.02105912934142,0.0007529237477924,5.668941699898088e-07,0.0210725846252577,0.02105912934142,0.390625,2.572445560127208,0.9969192133655616,0.0007379127055125,5.445151609568503e-07,0.9969194864644644,0.9969192133655616,4.6875,2.819898009855266,-0.0576761756543188,0.1953335870587379,0.0381552102332335,0.2036706936977959,0.1565201697788394,0.390625,2.333876080528461,-0.0164887606188691,0.1035177404812638,0.0107159225943462,0.1048227161501392,0.0840044585429071,4.296875,2.512017217490468,0.1282884848739467,0.0952511533933174,0.0090727822227572,0.1597833457341852,0.1295697471370289,4.6875,2.465280531005139,Quieto,S01
0.0014344584599632,0.0006926911228447,4.798209916679412e-07,0.0015929507415573,0.0014344584599632,3.90625,2.769936573647969,0.0209722634143762,0.0006455160987882,4.166910337948119e-07,0.0209821953988561,0.0209722634143762,4.6875,2.6995523265372268,0.9969017106991632,0.0009170583183069,8.409959591758984e-07,0.9969021325039272,0.9969017106991632,4.6875,2.6709023297492838,-0.0661194583695279,0.1546597377844099,0.0239196344915424,0.1682005269510835,0.1312062567074371,0.390625,2.200734654455388,-0.033138997549941,0.0966659168363556,0.0093442994778132,0.1021885151884898,0.0801594688813767,3.90625,2.556343423246184,0.1326580695898198,0.0830173511357377,0.0068918805895943,0.1564929519719397,0.1336693994937364,0.390625,2.1815788844461608,Quieto,S01
0.0013124753050299,0.0008387157043645,7.034440327476738e-07,0.001557573580625,0.0013204681154929,4.6875,2.410506516655727,0.020926172053345,0.0006973214977559,4.86257271232644e-07,0.0209377872297297,0.020926172053345,5.078125,2.2249002349560176,0.9968988392992576,0.0008931972943358,7.97801406608912e-07,0.9968992394407838,0.9968988392992576,5.078125,2.1352567818847743,-0.0556438857021169,0.1413593098615361,0.0199824544845297,0.1519167420021902,0.1202811665729087,5.078125,2.0143276310154823,-0.0436653989491208,0.1278885459459064,0.0163554801841582,0.1351375123699711,0.10234849579701,4.6875,2.3675166992835157,0.1402291058952187,0.0933710254119826,0.0087181483864851,0.168470622147179,0.1407115977283942,5.078125,2.2860733484971365,Quieto,S01
0.0013551566782057,0.0007801245281169,6.085942793696739e-07,0.0015636636153135,0.0013631494886687,4.6875,2.0995803927278622,0.0206459971259508,0.0006733249684121,4.533665130872309e-07,0.0206569737337746,0.0206459971259508,5.078125,1.867321481595081,0.9969028058715708,0.0006695213418196,4.482588271520073e-07,0.996903030697288,0.9969028058715708,4.6875,3.022907370703521,-0.1057528647046215,0.106054087090867,0.0112474693886772,0.149770283373943,0.1186225103029794,5.078125,2.2425135520083868,-0.0406130207674749,0.1181126682949992,0.0139506024117645,0.1249000395020908,0.0933803531041636,5.078125,1.9760172012283597,0.1089717787326706,0.0826503231173757,0.0068310759114066,0.1367696036097522,0.1097201704404416,5.078125,2.086533358795384,Quieto,S01
0.0013765762150941,0.0005292789108388,2.8013616545873545e-07,0.0014748214269604,0.0013765762150941,4.296875,3.03265220094814,0.0200090390143728,0.0008058754918149,6.494353083080061e-07,0.0200252609867388,0.0200090390143728,5.078125,2.1630799829689136,0.996882173481264,0.000825151258005,6.808745985872815e-07,0.996882514983249,0.996882173481264,5.078125,2.751093167388561,-0.1059959827415706,0.1186472633093482,0.0140771730907978,0.1590984646316524,0.1227880551098853,5.078125,2.375914588692725,-0.035860539968373,0.0683720587198319,0.0046747384135881,0.0772056781617222,0.0607112224803576,5.078125,2.6745499913268453,0.0948354576548643,0.0708211923409136,0.0050156412845886,0.1183613336913548,0.0963555696623587,5.078125,2.6613874421753896,Quieto,S01
0.0014985402652256,0.0006770017414974,4.583313579905463e-07,0.0016443704827359,0.0014989967097613,7.8125,3.2152486511728577,0.0199161397791514,0.000789047731132,6.225963220045823e-07,0.0199317640971566,0.0199161397791514,0.390625,2.349866987886061,0.9969510691765356,0.0008364861526986,6.997090836565201e-07,0.99695142010096,0.9969510691765356,4.6875,2.879986850723665,-0.0411096890004413,0.1690087110441297,0.0285639444087981,0.1739366290880422,0.1304422677007273,0.390625,2.1523447450809647,-0.0562471766261263,0.0790917878438012,0.0062555109043288,0.0970528504616918,0.0740833215220963,3.125,2.873237392223662,0.144647120742596,0.1060657971312492,0.0112499533210873,0.1793676193191247,0.1459013328754949,0.390625,2.18129869740768,Quieto,S01
0.0016459839135751,0.0008191080361334,6.709379748584709e-07,0.0018385323001259,0.0016464403581107,5.859375,2.4985651130555504,0.0198379456353417,0.0010945626551191,1.198067405981388e-06,0.0198681190462699,0.0198379456353417,0.390625,1.6164843375248517,0.9969712955648636,0.000883581965473,7.807170897091505e-07,0.996971687109204,0.9969712955648636,5.859375,2.74994635516237,-0.1328027348002386,0.2660806191499691,0.0707988958872309,0.2973810052065421,0.2200803880664799,0.390625,1.6750487510687304,-0.0770416928277131,0.116662932996267,0.0136102399352914,0.1398058023440057,0.1059010001043876,5.859375,2.3851224258589485,0.1244971564245546,0.1163658271728012,0.0135410057336102,0.1704128741950275,0.131464945716329,0.390625,1.9824017263087077,Quieto,S01
0.0018381163595081,0.0007564139875772,5.721621206024484e-07,0.0019876704635562,0.0018381163595081,4.296875,3.020161977598383,0.0187378445239845,0.0013772430909215,1.8967985314910757e-06,0.0187883904562501,0.0187378445239845,0.390625,1.7088205603343471,0.99693900141973,0.0008665090408644,7.508379178998544e-07,0.9969393779913032,0.99693900141973,3.515625,2.756355103112094,-0.1284381209269616,0.2633260269677593,0.0693405964786251,0.2929794316771639,0.2135504993247705,0.390625,1.5679940304218047,-0.0311114766109513,0.1298617156977747,0.0168640652039696,0.1335364713510262,0.1000724845276168,0.390625,2.592533485852391,0.1140585591798774,0.1103780926264723,0.0121833233318581,0.1587220156564542,0.1210263484716518,0.390625,2.423193164265516,Quieto,S01
0.0017164550089659,0.0007209743576308,5.198040243612179e-07,0.0018617254959218,0.0017170959916126,4.296875,2.583439059323599,0.0187629542870645,0.0011923954349815,1.421806873364897e-06,0.0188008047820256,0.0187629542870645,0.390625,2.082990022663053,0.9968298361020028,0.0008777868997006,7.705098412860147e-07,0.996830222582054,0.9968298361020028,4.6875,2.757493306926499,-0.0398242163140604,0.1813636759302491,0.0328927829469324,0.1856845474237464,0.141655215992004,0.390625,1.9365027232670424,-0.0215504923590923,0.1020360767498162,0.0104113609584944,0.1042870302550307,0.0848338907075175,4.296875,2.514798881007652,0.1539758376949032,0.1079990322393304,0.0116637909646319,0.1880753826487643,0.1566775010846055,0.390625,2.172327003631112,Quieto,S01
0.0015290248984094,0.0006930229884453,4.802808625137101e-07,0.0016787489396779,0.0015320529595907,6.25,2.896375457817878,0.0186051357975337,0.0012053636784018,1.452901597210397e-06,0.0186441406249224,0.0186051357975337,0.390625,2.10133375979021,0.9968268049097596,0.001029959836421,1.0608172646405213e-06,0.9968273370066978,0.9968268049097596,4.6875,2.34013503982446,-0.1510171086315866,0.14709857594611,0.0216379910453734,0.2108178316576136,0.17396393887036,4.6875,2.239160547569906,-0.05113560222284,0.0848994786145398,0.0072079214690207,0.0991098949838674,0.0765364740632812,1.5625,2.72955731047508,0.0980471213532921,0.0910303258316752,0.0082865202210209,0.1337899780502566,0.1020622642837538,0.390625,2.511613917148466,Quieto,S01
0.0017070294909283,0.0007430558804269,5.521320414371218e-07,0.001861741583662,0.0017094165694629,5.078125,2.651947749452364,0.0176912803256054,0.0006901764254409,4.7634349823442645e-07,0.0177047378703382,0.0176912803256054,0.390625,2.675444363198715,0.996859371980152,0.0009665671936797,9.342521398980068e-07,0.9968598405778032,0.996859371980152,4.6875,2.651744652093305,-0.0869385174393607,0.134156421361306,0.0179979453924722,0.1598632265626661,0.1189755260716421,0.390625,2.1768012686694957,-0.0504583504518733,0.0754255030348859,0.0056890065080655,0.0907471852918296,0.0660116784140713,5.078125,2.647300289692576,0.1193834439812066,0.078763071993896,0.0062036215099156,0.1430245720382675,0.120696923521966,0.78125,2.24666501598484,Quieto,S01
0.0017085151779364,0.0008362934428644,6.993867225780468e-07,0.0019022120901248,0.0017565707566665,4.6875,2.8391520189524764,0.0176858755971081,0.0007042005309671,4.958983878143554e-07,0.0176998896613566,0.0176858755971081,4.6875,2.571962456300891,0.9969824283551608,0.0009408750355861,8.852458325891694e-07,0.9969828723176672,0.9969824283551608,5.078125,2.6354188672395704,0.0082700681027839,0.1433716619863707,0.0205554334607341,0.1436099839396928,0.1093952294246051,0.390625,2.2740389828681398,0.0082448102950381,0.135876860521302,0.0184625212251253,0.1361267722453101,0.0903295726825684,0.390625,2.1399980982758446,0.1195910081389601,0.0861645249792601,0.0074243253649015,0.1473985569556038,0.1252816429312217,1.5625,2.4449314521247523,Quieto,S01
0.0014961061091721,0.0010832190451065,1.1733634996815592e-06,0.0018470779598012,0.0016342279246812,5.46875,2.490606729422629,0.0199280394133295,0.0026795674868657,7.180081916668031e-06,0.0201073826435934,0.0199280394133295,0.390625,1.5021049804676536,0.9969638275749536,0.0011305590890989,1.2781638539442464e-06,0.9969644686029464,0.9969638275749536,5.078125,2.6763125728654185,0.2164609124690245,0.3104590968924235,0.0963848508432592,0.3784708409774548,0.2877365610409018,0.390625,2.048785282022428,-0.0293929270567575,0.228094022545246,0.0520268831208712,0.2299800584438465,0.1644668029344963,0.78125,2.0501271751487247,0.2577752303927108,0.2539583914872658,0.0644948646067993,0.3618603791669025,0.2634658651849723,0.390625,1.6134332773945503,Quieto,S01
0.0012740712638078,0.0011895207101221,1.4149595198095456e-06,0.0017430482222446,0.0014076672529413,4.6875,2.618985936684227,0.0233944942638346,0.0019630920135309,3.853730253589063e-06,0.0234767138269856,0.0233944942638346,0.390625,1.832338147274728,0.9967247472624422,0.0012486120047979,1.5590319385256706e-06,0.996725529339606,0.9967247472624422,4.6875,2.5309501758992567,0.1810025555244283,0.3507243782845488,0.1230075895230833,0.394676468299615,0.3140281821445649,0.390625,2.247498018095871,-0.0824756136396749,0.2134543717962033,0.0455627688389117,0.2288339915400523,0.173037603692656,0.390625,2.5589402911316403,0.2741381450116711,0.241002489216397,0.0580821998084995,0.365012222204873,0.2781621767609747,0.390625,1.841658877377412,Quieto,S01
0.0016394755448107,0.0011736620350705,1.377482572565877e-06,0.0020162744442655,0.0016830052971652,4.296875,2.739038382980944,0.0237364566586393,0.0013328453253159,1.776476661216568e-06,0.0237738480555563,0.0237364566586393,0.390625,2.1523025600183803,0.9967812039740376,0.0012765133048376,1.6294862174276416e-06,0.9967820213477716,0.9967812039740376,5.078125,2.561854928526276,-0.0960759902589031,0.2377231550761753,0.0565122984593713,0.2564037721321591,0.2153149646643217,0.390625,2.237748007183497,-0.0876986433325611,0.1787606509542564,0.0319553703295895,0.1991140938556617,0.1520148321606125,4.296875,2.624438594091271,0.1282731075322651,0.0932056800084547,0.0086872987858384,0.1585600482524602,0.135995253262389,1.171875,2.412980078621283,Quieto,S01
0.0024742917129948,0.0011344749641057,1.2870334441827375e-06,0.0027219759229606,0.0024851668323444,3.90625,3.065464993766293,0.022284192032912,0.0013520896172784,1.8281463331521853e-06,0.0223251732556066,0.022284192032912,4.6875,2.931527021170268,0.9968389348530496,0.0012423995898925,1.5435567409652255e-06,0.9968397090784974,0.9968389348530496,5.46875,2.081649501114196,-0.234713220527667,0.2461328072961221,0.0605813588274699,0.3401053582611412,0.2851865366680793,0.390625,2.116378074999909,-0.0911439505760311,0.2355275979462733,0.0554732493943413,0.2525479541016862,0.1944597254960183,1.5625,2.721065100526568,0.1103392629972516,0.1495644184567834,0.0223695152683158,0.1858608840694902,0.1604556836666091,0.390625,2.634140208999027,Quieto,S01
0.0019240324085814,0.0015195481593963,2.309026608724829e-06,0.0024517192575815,0.0020586681838385,0.390625,2.7053401193063373,0.0197887083227195,0.002435355326377,5.930955565713195e-06,0.0199380022230759,0.0197887083227195,0.390625,1.7256203049463896,0.9968475757520816,0.0015628265359043,2.4424267813269265e-06,0.9968488008266768,0.9968475757520816,5.46875,2.4332018068075687,-0.3189524785054705,0.267082741673618,0.0713331908998965,0.4160094643691164,0.3371172235415761,4.6875,2.4607923486456844,0.0035210708662607,0.2312812995284764,0.0534910395115808,0.2313081007047225,0.1757601336555741,1.5625,2.655078969149692,0.0264366835315369,0.2059404022546019,0.0424114492807872,0.2076303145422987,0.1657604184839117,1.171875,2.239812022696137,Quieto,S01
0.000903893218004,0.0011249734463194,1.2655652549238908e-06,0.0014431175296827,0.0010894204497318,6.25,3.0142773490094155,0.0177918750770782,0.0013020179602744,1.6952507688771444e-06,0.0178394526128812,0.0177918750770782,0.390625,2.64875596885032,0.9970001797058432,0.0015562509155553,2.4219169121668875e-06,0.9970013943071472,0.9970001797058432,4.296875,2.7389069292066104,-0.1118971876184398,0.3077574698924323,0.0947146602745913,0.3274685341700905,0.223266892194326,0.390625,1.7871309966449522,0.03643120798289,0.2092145068409352,0.0437707098726957,0.2123627622437331,0.1642140683905801,0.390625,2.28297138566279,0.1077818823395009,0.2290154419740841,0.0524480726625851,0.2531106612200109,0.2010199556588492,0.390625,2.098697012741232,Quieto,S01
-0.0340522825733844,0.0012652519894171,1.6008625967239797e-06,0.0340757804173924,0.0340522825733844,5.078125,2.850733643961883,0.022591301033882,0.000986528947836,9.732393649185656e-07,0.0226128309100916,0.022591301033882,0.390625,2.333650239559602,0.9971136221794974,0.0019508692882412,3.805890979802752e-06,0.9971155306316803,0.9971136221794974,5.078125,2.57393276999826,0.0589658578813635,0.2773052933232101,0.0768982257050716,0.2835051994245551,0.2383518803559137,0.390625,2.017498353683909,0.0424611589117354,0.2567391767654619,0.065915004886207,0.2602267374854757,0.212058919797984,0.390625,2.371882516326173,0.105560926967562,0.081483980508343,0.006639639079484,0.1333519717954518,0.1067514034631605,0.390625,2.1797367564652013,Quieto,S01
-0.0349053544944131,0.0012603874439106,1.588576508767574e-06,0.0349281025664065,0.0349053544944131,5.078125,2.6756597037622862,0.0230974818834758,0.0009893773548183,9.788675502274104e-07,0.0231186620916462,0.0230974818834758,4.6875,2.5224568941291685,0.9972151813524563,0.0017467702301497,3.0512062369373723e-06,0.9972167112147938,0.9972151813524563,5.078125,2.3028454791422512,0.0899669670288869,0.1981058680956484,0.0392459349739304,0.2175775496927642,0.1599939064740614,0.390625,2.1727379338003128,0.0233850306876729,0.1988814933058254,0.0395538483795551,0.2002516118282659,0.154788717405506,1.171875,2.2842014841093583,0.1201025203170164,0.0672231469991831,0.0045189514924737,0.1376356308481678,0.1214124396281626,0.78125,2.70872933869399,Quieto,S01
-0.0354482563431635,0.0009959915051082,9.919990782478774e-07,0.0354622457953368,0.0354482563431635,7.03125,2.7965601511919584,0.0235108221225995,0.0008981621323186,8.066952159311064e-07,0.0235279716953342,0.0235108221225995,5.46875,2.360722415321102,0.9973184179596644,0.0018998480498957,3.609422612692741e-06,0.9973202275218228,0.9973184179596644,5.46875,1.9328507403612651,-0.0017668084330753,0.1591545340441358,0.025330165706806,0.1591643406006672,0.1210470024796233,0.78125,2.170110851110161,-0.0819797300009978,0.1708088924339283,0.0291756777345053,0.1894633311898157,0.1452192689553909,5.46875,2.50191413723052,0.0960060213874834,0.0811418145167042,0.0065839940630632,0.1257026260891839,0.1017746818132351,4.6875,2.6870579854212324,Quieto,S01
-0.0349775428025668,0.0010810582291951,1.1686868949104713e-06,0.0349942450611569,0.0349775428025668,7.421875,2.939765073708409,0.0231305563469911,0.0009398115883854,8.832458216636462e-07,0.0231496410931789,0.0231305563469911,5.46875,2.153283036255888,0.9972507477409271,0.0016325858176189,2.665336451890618e-06,0.9972520840821996,0.9972507477409271,5.078125,2.039759095658046,-0.0262272807112112,0.1504407505878532,0.0226324194374366,0.1527098218548542,0.1158832564162104,5.078125,2.250797714464837,-0.1362059283618578,0.1393533484215528,0.0194193557162987,0.1948625429301749,0.1598589241862706,5.078125,2.356165263810852,0.0909083888073453,0.0764849401281535,0.0058499460664072,0.1188035404436866,0.0955228212316252,0.78125,2.387521147003937,Quieto,S01
-0.0339762008250679,0.0009158976133963,8.388684382251619e-07,0.0339885435248933,0.0339762008250679,0.390625,2.768665087037152,0.0221784743294515,0.0007303905731947,5.334703894117975e-07,0.022190497830638,0.0221784743294515,0.390625,2.371703261916502,0.9972658284481808,0.0010683112218402,1.141288866709889e-06,0.9972664006569676,0.9972658284481808,4.6875,2.864948422653544,-0.0544586905259776,0.087430363335059,0.0076440684329004,0.1030039679172829,0.0828191903392026,5.46875,2.6591141421373634,-0.1244179350145961,0.0950179531740503,0.009028411425386,0.1565510586955012,0.1329924123711334,0.390625,2.5218627422688606,0.0837297022986437,0.0511467539471212,0.0026159904393273,0.0981155109365836,0.0838785962271863,5.078125,2.815075910526388,Quieto,S01
-0.0331508345757182,0.0008907937888566,7.935135742655805e-07,0.0331628006453149,0.0331508345757182,4.6875,2.968126032037333,0.0213486858940346,0.0005510515553821,3.03657816689053e-07,0.0213557965718641,0.0213486858940346,0.390625,2.575790734543788,0.9973224992378592,0.0013512939891507,1.8259954451150536e-06,0.9973234146862766,0.9973224992378592,4.6875,2.6328089090856706,-0.0477930600059619,0.1051357789795345,0.0110535320216335,0.1154889977719394,0.0939878793438024,0.78125,2.448959536219148,-0.1094172187616488,0.1263262050726721,0.0159583100880628,0.167124019367646,0.1322399683618096,4.6875,2.675215631174125,0.0673916669438386,0.0577582920317997,0.0033360202984306,0.0887561663880315,0.071378196099669,0.78125,2.6351467953659085,Quieto,S01
-0.0321366443877226,0.0011910656955964,1.4186374912266482e-06,0.0321587087737391,0.0321366443877226,0.390625,2.544290187192365,0.0203644517933857,0.0008795341285908,7.735802833561236e-07,0.0203834363424936,0.0203644517933857,0.390625,1.9760840613132484,0.997376900775548,0.0015793899574135,2.494472637578888e-06,0.9973781512913118,0.997376900775548,5.46875,1.929741401604771,-0.0651252196335391,0.1344293321754435,0.0180712453491357,0.1493738249542149,0.1165158873791782,5.46875,2.1423212170174377,-0.1437211084357993,0.1673107411856429,0.0279928841160891,0.2205643695751967,0.1653810149274901,5.46875,2.389982780804237,0.0902172971330814,0.0741165355635449,0.0054932608439422,0.1167579613814018,0.0940698211769572,5.46875,2.776879819417768,Quieto,S01
-0.0313730244805597,0.0008349523623419,6.9714544738041e-07,0.0313841331010621,0.0313730244805597,6.640625,2.816825906499201,0.0195334060086334,0.0007292792359358,5.318482039672373e-07,0.0195470150790877,0.0195334060086334,5.46875,2.397642989163532,0.9973761295440756,0.0012233519820479,1.4965900719805917e-06,0.9973768798074242,0.9973761295440756,5.46875,2.4869774238884004,-0.056820303858456,0.1211139654258496,0.0146685926211738,0.1337801911784445,0.0991759519729984,0.390625,2.201738104805696,-0.1152446814091299,0.1448215853096032,0.0209732915715866,0.18508005879802,0.1275115049154117,0.390625,2.1807655350760937,0.0937280988459142,0.0718419366390729,0.0051612638600525,0.118094116590633,0.0961513194583233,0.390625,2.489406474254626,Quieto,S01
-0.0310881994327162,0.0008382540590694,7.026698675463595e-07,0.0310994986106832,0.0310881994327162,5.078125,2.183755242821796,0.0189661622776003,0.0007825696325124,6.124152297306669e-07,0.0189823003550676,0.0189661622776003,5.46875,2.61628843080832,0.9973978581174752,0.0010042041453579,1.00842596555416e-06,0.9973983636457866,0.9973978581174752,4.6875,2.3574048172428625,-0.0329363702309126,0.0788378560408069,0.0062154075451109,0.0854412782506134,0.0682620986574394,4.6875,2.5881817944929004,-0.1043722669079508,0.1006687931699077,0.0101342059182856,0.145009572159186,0.1126294606014587,5.078125,2.466977223443205,0.0781048074397179,0.0683258277071788,0.004668418731871,0.1037727308933638,0.0826619519398639,5.46875,2.5383808751535435,Quieto,S01
-0.030474981909219,0.0009592136437003,9.200908142608222e-07,0.0304900740107577,0.030474981909219,4.6875,2.450938156831999,0.0184140694306139,0.0007222405639091,5.216314321558687e-07,0.018428227924237,0.0184140694306139,5.078125,1.943689449750296,0.9974860889369472,0.0012230172076084,1.4957710901063752e-06,0.9974868387070668,0.9974860889369472,5.078125,1.8768932794811977,-0.0079852378249849,0.1010472127429118,0.0102105392031112,0.1013622376737651,0.0776759397074942,5.078125,2.101504995350433,-0.1104634513678351,0.1149610232794829,0.0132160368734658,0.1594308971359061,0.1236815721255921,4.6875,2.183151443140956,0.0977544208499695,0.0746148747076501,0.0055673795276383,0.1229768527949519,0.1035731160674656,5.078125,1.943891299210189,Quieto,S01
-0.0297607226641484,0.001188171202959,1.4117508075411077e-06,0.0297844315759072,0.0297607226641484,6.25,2.9043431152173267,0.0178034432521947,0.0009708011435985,9.424548604121728e-07,0.0178298919372645,0.0178034432521947,5.078125,2.830247738051543,0.9976243179423674,0.0015018029100458,2.255411980622158e-06,0.997625448333168,0.9976243179423674,6.25,2.7559334984244903,-0.0139273247596635,0.15394284961884,0.0236984009487688,0.1545715734659188,0.1102141201049863,0.78125,2.652304613874621,-0.1009167644028896,0.1778936532296679,0.0316461518593973,0.2045246811437331,0.1422789884064014,0.78125,2.6976352722341845,0.0613113166196276,0.0930803908837598,0.0086639591670735,0.1114586771530406,0.0879813514865399,0.78125,2.390434458248126,Quieto,S01
-0.0295884184442196,0.0013701169823386,1.8772205452928384e-06,0.0296201236758986,0.0295884184442196,6.640625,2.5372332107445907,0.0178051436615069,0.0009715720609977,9.43952269711406e-07,0.0178316318119405,0.0178051436615069,0.390625,2.8042172104010987,0.997679802316856,0.0014017651514593,1.964945539845788e-06,0.9976807870739722,0.997679802316856,6.640625,2.6974169176042597,0.0229565382579786,0.1658622385768794,0.0275102821857336,0.1674433779954397,0.1216733068459519,0.390625,2.319212197805348,-0.0721497483145903,0.2047706040378755,0.0419310002780364,0.2171096185338069,0.1617577633102493,4.296875,2.815940675755086,0.0492613591319715,0.0801380870144019,0.0064221129903278,0.0940680312000678,0.0725661577907394,0.78125,2.6543950279931607,Quieto,S01
-0.0301037496256542,0.0014400162869682,2.073646906733907e-06,0.0301381716172499,0.0301037496256542,5.46875,2.400836444189781,0.0186520078009852,0.0009139048931382,8.352221537020112e-07,0.0186743839834602,0.0186520078009852,0.390625,2.9447556964580466,0.9975187015323354,0.0014925356305688,2.227662608517585e-06,0.9975198181336374,0.9975187015323354,5.46875,2.477459934950462,0.0260812487101072,0.2123871119307928,0.0451082853143031,0.213982515287071,0.1518492953232965,0.78125,2.2596255929457083,-0.052552652362135,0.2326734528879526,0.0541369356788023,0.238534519407774,0.1788409677335037,5.46875,2.4625158798666527,0.0920707038892183,0.0909935070340356,0.008279818322353,0.1294481859162546,0.1074027518661465,0.390625,2.485432225832368,Quieto,S01
-0.0304223431849209,0.0012845521578202,1.650074246160604e-06,0.0304494505550964,0.0304223431849209,0.78125,2.9175864988065,0.0186125912075532,0.0011341657469786,1.2863319416197029e-06,0.0186471146132882,0.0186125912075532,0.390625,2.540493570698084,0.9974056435658524,0.0015563305564667,2.4221648009921903e-06,0.997406857797666,0.9974056435658524,5.078125,2.523257033553292,0.0076831521252493,0.2291854958668416,0.05252599151573,0.229314243653354,0.1730459886250365,0.78125,2.3419726348067846,-0.0456189514400071,0.2237117049241594,0.0500469269200741,0.228315605359248,0.1670315038779212,0.78125,2.7657840442380013,0.1034226653353961,0.1088273917713382,0.0118434011997523,0.1501321048437998,0.1264706332226279,0.78125,2.4730899136768407,Quieto,S01
-0.0309672200651785,0.00149271270283,2.2281912131902837e-06,0.0310031758014947,0.0309672200651785,5.078125,2.592139712969053,0.0188136419442789,0.0012592539865029,1.5857206025235954e-06,0.0188557376893627,0.0188136419442789,5.078125,2.1787527821832744,0.9975326910310578,0.00162720124189,2.647783881608421e-06,0.9975340181966454,0.9975326910310578,5.078125,2.744004402958432,0.0707294775789754,0.1766660533474716,0.0312108944053717,0.1902985901260608,0.1561893293713433,5.078125,2.5863678039207403,0.0095237071671862,0.1940172535746075,0.0376426946846335,0.1942508576115942,0.1474215857442362,5.078125,2.646047399250273,0.1208170300419775,0.1146831516536801,0.0131522252732209,0.1665802509944834,0.133332059527373,5.078125,2.621092627345049,Quieto,S01
-0.0316045014145579,0.0015137805449997,2.291531538419749e-06,0.0316407338916342,0.0316045014145579,4.6875,2.5315136379887004,0.0191947567735564,0.0013528490757744,1.8302006218237009e-06,0.0192423722086912,0.0191947567735564,4.296875,2.731268027871068,0.9973907732108728,0.0019852711081549,3.941301372874663e-06,0.997392749014928,0.9973907732108728,6.25,2.7287728658443378,-0.0528149562990201,0.2701413685908084,0.072976359024115,0.2752558421414201,0.222274806397931,1.171875,2.604142267746219,-0.1481982451730194,0.3745538049775134,0.1402905528231331,0.4028067436072731,0.2916320472363921,4.6875,2.693063529132171,0.0608577678109403,0.1459616527927945,0.0213048040860043,0.1581406715204366,0.1161642270884203,0.390625,2.8689552960216367,Quieto,S01
-0.0300923915171123,0.0019856093831979,3.942644622643706e-06,0.0301578293622372,0.0300923915171123,0.390625,2.020914555244264,0.0173881009490093,0.0020415727653119,4.168019356063464e-06,0.01750754334477,0.0173881009490093,0.390625,2.1694748558843284,0.9973363679703144,0.001656949249495,2.745480815402281e-06,0.997337744376013,0.9973363679703144,0.78125,2.871705732185042,-0.0857405835253582,0.287874897862006,0.0828719568190603,0.300372110027428,0.2371611623565107,0.390625,2.527051430011928,-0.219778025866973,0.3432905983426079,0.1178484349104257,0.4076160148527161,0.2933047217423558,0.390625,2.759909614033005,0.0339757891537332,0.1278275362012678,0.0163398790112864,0.1322657675285082,0.0953526911197215,0.390625,2.6425133391265176,Quieto,S01
-0.0285771318578827,0.0010072768173353,1.0146065867412467e-06,0.0285948784192127,0.0285771318578827,4.6875,2.463611145620992,0.0160979643843706,0.0012269503966809,1.5054072759156342e-06,0.0161446543659621,0.0160979643843706,5.078125,2.3349015382364366,0.9975355406957712,0.0015771925144931,2.48753622777332e-06,0.9975367875358944,0.9975355406957712,4.6875,2.369838669361112,-0.0347198448668888,0.2623707292617257,0.0688383995733297,0.2646580193398843,0.2061671562325975,0.390625,2.505963539207799,-0.1218932645109472,0.1830616210459351,0.0335115570999655,0.2199307278056008,0.1686914138429514,4.6875,2.5608050219216856,0.0644914317589694,0.1105310085889894,0.0122171038596992,0.1279697176289026,0.0969130127187563,5.078125,2.3962943776469348,Quieto,S01
-0.0280656222874637,0.0009185305361853,8.436983459050181e-07,0.0280806490795438,0.0280656222874637,0.390625,2.7768236823779437,0.0155303456816355,0.0013842832936608,1.916240237108559e-06,0.0155919170478874,0.0155303456816355,0.390625,2.4436477270498758,0.9976085378065912,0.001552697392305,2.410869192070962e-06,0.9976097461301172,0.9976085378065912,4.6875,2.6748153703290938,-0.0565345889974016,0.2087806396948465,0.0435893555113893,0.216299596080285,0.1691121162661002,0.390625,2.49040021664136,-0.1106798869065912,0.1322704117160061,0.0174954618155217,0.1724688353911442,0.1343448463516713,0.390625,2.5810676570898314,0.0651233377523314,0.0952759492411421,0.0090775065038006,0.115406046738483,0.0883023964841992,0.78125,2.578182528955677,Quieto,S01
-0.0277691985962284,0.0007436571592475,5.530259705002052e-07,0.0277791543544305,0.0277691985962284,6.640625,2.898163665616835,0.0147164490892961,0.0010094968454093,1.0190838808914165e-06,0.0147510324275535,0.0147164490892961,5.078125,1.9836229071559155,0.9976877407840076,0.0012365956126409,1.529168709202848e-06,0.9976885071400824,0.9976877407840076,5.078125,2.130572473069145,0.0240489703729053,0.1810471041571257,0.0327780539236811,0.1826373644676193,0.1349286982060921,5.078125,2.2921646749829865,-0.0662840453220576,0.1314173451336609,0.0172705186019797,0.147187272772602,0.1100983557002974,0.390625,2.7245563348336703,0.1004436543820545,0.117130779770859,0.0137196195697294,0.1543001855972672,0.1029620729288844,5.078125,2.6138221108246205,Quieto,S01
-0.0280705990064931,0.0008961501923809,8.030851673044572e-07,0.0280849001022014,0.0280705990064931,5.46875,2.809149059016405,0.0147914063851617,0.0010939756661951,1.1967827582270616e-06,0.0148318065524477,0.0147914063851617,5.078125,2.625770571201709,0.9976919683666532,0.0012405486667563,1.538960994590892e-06,0.9976927396269462,0.9976919683666532,5.078125,2.46158333332163,0.0074742570754879,0.1799768653969474,0.0323916720781109,0.1801319977042985,0.1307050806896492,0.390625,2.382716599566756,-0.0545257795793417,0.1295104947020991,0.0167729682379824,0.1405205638926823,0.1064170847077371,5.46875,2.6947111469305884,0.0834557438599982,0.1282636410981338,0.0164515616277508,0.1530242556295456,0.1043169422916572,2.734375,2.4204396464591067,Quieto,S01
-0.0276433992777865,0.0010916820294394,1.1917696534010376e-06,0.0276649470139476,0.0276433992777865,5.46875,2.4626890243722257,0.0141012183741754,0.0011251555731104,1.265975063701441e-06,0.014146036006595,0.0141012183741754,0.390625,2.1383974385767943,0.9977796986789632,0.0010438427852402,1.0896077602981536e-06,0.9977802446950148,0.9977796986789632,4.6875,2.447203758767532,-0.0422259472501893,0.1361101113634009,0.0185259624153573,0.1425096243645781,0.1171675479090355,0.390625,2.3552893775097448,-0.0982461465358747,0.1342785056896382,0.0180307170902422,0.1663821576954415,0.1234940974564019,0.78125,2.482348552190765,0.0654761148586949,0.0956519202183829,0.0091492898414638,0.1159155358804543,0.086298072969522,4.6875,2.7948066994340346,Quieto,S01
0.0282213757390563,0.0032950056562776,1.08570622749018e-05,0.028413079925976,0.0282213757390563,0.390625,0.7784827129555332,-0.030261418183241,0.00106085339484,1.1254099253435872e-06,0.0302800072719003,0.030261418183241,0.390625,1.9729891890081184,0.9939871056264492,0.0008473139487323,7.179409277164825e-07,0.9939874667683558,0.9939871056264492,5.078125,2.865455927568038,0.0252595377616281,0.1865871499954507,0.0348147645434248,0.1882891627028914,0.1533389657962291,0.390625,1.5674122872970495,0.315257758236429,0.2191852723276429,0.048042183605343,0.3839656725979573,0.3490929656272968,0.390625,1.8052676267248209,0.0960818963589501,0.0504205942503277,0.0025422363245561,0.1085079127644072,0.0960972594853758,0.78125,2.0171394583026543,Quieto,S02
0.0252507377628787,0.0011645195838162,1.3561058610916297e-06,0.0252775762966064,0.0252507377628787,0.390625,2.673259081471558,-0.0300755200602039,0.0008323928510352,6.928778584545184e-07,0.0300870368223623,0.0300755200602039,0.390625,2.116278907586313,0.994139969189155,0.0007969711416293,6.35163000590059e-07,0.9941402886426112,0.994139969189155,4.296875,2.708940432299058,0.0004219231632823,0.150013965153396,0.0225041897410443,0.1500145584941676,0.1164633720025375,0.390625,1.7194530215560382,0.0749222730630515,0.2694519340747185,0.0726043447766064,0.2796742601269214,0.2046047423154396,0.390625,1.8621965057292051,0.0501367966514377,0.0753195344963177,0.0056730322767419,0.0904805540169246,0.0694779562304962,0.390625,2.00309669747347,Quieto,S02
0.0245816715299818,0.000805591776756,6.489781107769287e-07,0.0245948684346693,0.0245816715299818,0.390625,2.110146345076918,-0.0297527543292423,0.0009018810410623,8.133894122277495e-07,0.0297664203354799,0.0297527543292423,0.390625,1.990170046696046,0.9942427968426756,0.0008024469318377,6.439210784157872e-07,0.9942431206674875,0.9942427968426756,3.90625,2.6545888681442644,0.0410377083679454,0.1157937076579225,0.0134081827331684,0.1228506257259643,0.0995146097662991,0.390625,2.2302023651898994,-0.0323069579578731,0.1559963063198357,0.024334847585432,0.1593065821550503,0.11191238837027,0.390625,1.9820577708191176,0.0016899663319384,0.0339744391392802,0.0011542625148286,0.0340164445677637,0.0217130702913719,0.390625,2.0756680264637657,Quieto,S02
0.0242877404223629,0.0005889252329997,3.468329300638528e-07,0.0242948794554356,0.0242877404223629,0.390625,2.7296726409639174,-0.0295527868979919,0.0007056835085021,4.979892141719629e-07,0.0295612111161281,0.0295527868979919,0.390625,2.0677985903342213,0.9942751180011338,0.0006453017322627,4.164143256612969e-07,0.9942753274070992,0.9942751180011338,3.125,3.2515567840916044,-0.0076971745757901,0.1096664796135031,0.0120267367508189,0.1099362690255999,0.0848901583120247,0.390625,1.588712032745954,-0.0249143213487713,0.1225494548619124,0.0150183688869519,0.1250563564766771,0.1047669182553633,0.390625,1.815804653605701,0.0162267232712724,0.0206328913364262,0.0004257162049007,0.0262492429038101,0.0172327929037439,0.390625,2.552860771781755,Quieto,S02
0.0238345676473854,0.0009458674159791,8.946651686109999e-07,0.0238533284911435,0.0238345676473854,0.390625,2.0462109423259403,-0.0295053457767309,0.0007865824640247,6.187119727112681e-07,0.0295158286581482,0.0295053457767309,0.390625,2.387434858274484,0.9943901530107648,0.0005450884812218,2.971214523607438e-07,0.9943903024095844,0.9943901530107648,3.125,3.176446659570128,0.0394707772231202,0.086247067539673,0.0074385566591929,0.0948498756656544,0.0755635027985764,0.390625,2.042386378024226,0.0198121114356334,0.1128714083131873,0.0127399548146022,0.1145970094467574,0.1013077685085512,0.390625,1.904076709087434,0.0248504441335269,0.0244709364795245,0.0005988267321849,0.0348765151042713,0.0255157770698536,3.90625,2.7028081644398267,Quieto,S02
0.0226410430991544,0.0008156778345566,6.653303297870942e-07,0.0226557313487681,0.0226410430991544,0.390625,1.8584554770498485,-0.0287396456923016,0.0005964802161384,3.55788648244534e-07,0.0287458348838101,0.0287396456923016,0.390625,2.428926021704829,0.9943313749776672,0.0005837371933101,3.407491108536451e-07,0.9943315463235032,0.9943313749776672,4.296875,2.234674047613152,0.0223884604890584,0.0842433964562642,0.0070969498464873,0.0871676144537491,0.0692185742089486,0.390625,2.058465691194594,-0.0090566035113087,0.1386007828263335,0.0192101770000724,0.1388963608854945,0.1144110186194862,0.390625,1.411469602207379,0.0178383018462733,0.028461526289894,0.0008100584787503,0.0335896336912013,0.0252258664106662,0.390625,2.534640350397568,Quieto,S02
0.0233830006161934,0.0015488862863854,2.3990487281530444e-06,0.0234342434600534,0.0233830006161934,0.390625,1.7324778463349622,-0.0285758834357405,0.0005959566088043,3.551642795776136e-07,0.0285820971661039,0.0285758834357405,0.390625,2.760038140293554,0.9942605352930596,0.0006773523789175,4.588062452251997e-07,0.9942607660204072,0.9942605352930596,4.296875,2.8717808827194395,0.0280178957272331,0.0960224481176269,0.0092203105425023,0.100026561589832,0.0750732175740832,0.390625,2.184032942900393,-0.2379258489949606,0.1699627753909293,0.0288873450185874,0.2923970838407256,0.2395192734915545,0.390625,2.508550803716738,-0.0322053498510389,0.0743934807992962,0.0055343899854352,0.0810652486856302,0.0492565422485294,0.390625,2.002912072539787,Quieto,S02
0.0263624773377278,0.0020616134160925,4.250249877412823e-06,0.0264429661963182,0.0263624773377278,0.390625,1.820863079100044,-0.0278788709032681,0.000915532552517,8.381998547184377e-07,0.0278938997398321,0.0278788709032681,0.390625,1.6168995765418044,0.9942277225863292,0.0007927622167583,6.284719323196677e-07,0.9942280386466332,0.9942277225863292,4.296875,2.9499941184120995,0.0355434659567497,0.129876443881036,0.0168678906751839,0.1346522508070419,0.1050230881171814,0.390625,1.6808926774922175,-0.2879589067263453,0.1812903134735713,0.0328661777593457,0.3402741684618123,0.2891432760921444,0.390625,2.0440266389985204,-0.0545370346400147,0.0791765253424337,0.006268922165301,0.0961416159247763,0.0669548183174146,0.390625,1.5835094909368692,Quieto,S02
0.0289240277088816,0.0011317457259016,1.280848388096751e-06,0.028946160838568,0.0289240277088816,0.390625,2.3294354226761484,-0.0281276535798561,0.0011340579849244,1.2860875131709232e-06,0.0281505059176841,0.0281276535798561,0.390625,1.6057462855736644,0.994188763767158,0.0007092948378044,5.030991669360661e-07,0.994189016787068,0.994188763767158,4.6875,2.879403011828224,-0.0926704159475032,0.1271203202828065,0.0161595758288033,0.1573130058853577,0.1323036917756026,0.390625,1.9366090632219173,-0.2010874196790313,0.1434012232556929,0.020563910831229,0.2469819045687355,0.2022717890448304,0.78125,2.09121274518971,-0.0107397677143514,0.0577019175996632,0.0033295112946783,0.0586928778067369,0.0371663691546831,0.390625,1.927022223459825,Quieto,S02
0.0306084635907897,0.0010441055430834,1.0901563850976686e-06,0.0306262665007309,0.0306084635907897,0.390625,1.8777182291033487,-0.0297095095625914,0.0008577120801523,7.356700124393309e-07,0.0297218880366331,0.0297095095625914,0.390625,2.4148879971811987,0.9940658643505432,0.000735107970291,5.40383727985402e-07,0.9940661361552966,0.9940658643505432,4.296875,2.2121188658719784,-0.0953138314326404,0.0941776200294033,0.0088694241144026,0.1339930989893601,0.1099637614401138,4.296875,2.200978223771372,-0.1815209514945391,0.061508865485851,0.0037833405333565,0.1916590628299098,0.1815209514945391,4.296875,2.3633809346023136,0.0090255143114306,0.0225040110692906,0.0005064305142067,0.0242464517567538,0.0156892974677742,4.6875,2.8243589086994736,Quieto,S02
0.0314927290864551,0.0008783656681118,7.715262469175831e-07,0.0315049759809427,0.0314927290864551,0.390625,1.6915130574554718,-0.0306082264062266,0.0006730410015819,4.529841898104416e-07,0.030615625225114,0.0306082264062266,4.296875,2.5381146171002613,0.993950856469938,0.0009025204281709,8.145431232658916e-07,0.9939512662200528,0.993950856469938,4.296875,2.568688623360044,-0.0599573089508695,0.0996743205641158,0.0099349701799181,0.1163178794362592,0.0780327788732635,4.296875,2.532391604266411,-0.0424306424993582,0.1786479423506717,0.0319150873061289,0.1836176645343178,0.1537498000540433,0.390625,1.295534323037156,0.0526575052928997,0.0857857321705471,0.0073591918440368,0.1006578596420001,0.0586444215408733,0.390625,1.3726826082945602,Quieto,S02
0.0304383841769042,0.0014705510715772,2.162520454116927e-06,0.0304738863907269,0.0304383841769042,0.390625,2.270872874974901,-0.0312327530696827,0.0006531808537987,4.266452277692887e-07,0.0312395824162158,0.0312327530696827,0.390625,2.6469565045029717,0.9940021144987712,0.0008370151592592,7.005943768297771e-07,0.9940024669096172,0.9940021144987712,4.296875,2.5902859926057125,-0.0408365105609772,0.1000446883085253,0.0100089396587499,0.1080581336760301,0.0657945167541332,0.78125,2.1710762258094305,0.1192135997270218,0.1394732531767359,0.0194527883517018,0.1834793468256753,0.1421322360777781,0.78125,2.235558545828689,0.0757616285428849,0.0776857322805803,0.00603507299997,0.1085121991272874,0.0770288346522316,0.78125,1.7193084457904702,Quieto,S02
0.0276464526400272,0.0019353320814372,3.7455102654402846e-06,0.0277141092918879,0.0276464526400272,0.390625,1.2341917676543852,-0.0312620927983426,0.00063053251373,3.975712508707947e-07,0.0312684508311981,0.0312620927983426,3.515625,2.773899439573733,0.9941533676167584,0.0006969546666454,4.857458073588382e-07,0.9941536119179716,0.9941533676167584,3.515625,2.674307815586996,0.0491736774819436,0.0830553614309268,0.0068981930624218,0.096520690111085,0.0667544392678661,0.390625,2.28039009078972,0.1509152391134092,0.1264349765427735,0.0159858032933716,0.1968786750514874,0.1602837297542017,0.390625,2.032797897405842,0.0455784061844369,0.0361915299680582,0.0013098268414288,0.0581998105816709,0.0468802517543431,0.390625,2.08675827305185,Quieto,S02
0.0250533836948096,0.0011093101120341,1.2305689246612069e-06,0.025077930606093,0.0250533836948096,0.390625,2.065645831077952,-0.0305663120942222,0.000715597194212,5.120793443641882e-07,0.0305746874781372,0.0305663120942222,0.390625,2.9285511750719664,0.9942432485916446,0.0006534927108172,4.270527230912435e-07,0.9942434633543183,0.9942432485916446,5.078125,2.817059811031932,0.0488048502561423,0.0847335687180139,0.0071797776676903,0.0977838998824186,0.0676830890955194,0.390625,2.2222284956127782,0.0789269827784656,0.1254586510729542,0.0157398731290452,0.1482205847362555,0.103313645342614,0.390625,2.276172382975471,0.0269828443564703,0.0336276263375327,0.0011308172530967,0.0431148598822056,0.0300161570853697,3.515625,2.982614773254935,Quieto,S02
0.0243167220175411,0.0004816223879873,2.3196012461060678e-07,0.0243214911097774,0.0243167220175411,3.90625,2.8467372225143937,-0.0301651324432884,0.0004268398478263,1.8219225569243413e-07,0.0301681522068691,0.0301651324432884,3.90625,2.507168900428337,0.9942184027992274,0.0005750021571164,3.306274806885816e-07,0.9942185690742892,0.9942184027992274,3.90625,2.184079292067976,0.0059644966264981,0.0426331080500811,0.0018175819020098,0.0430483114885752,0.030260360787901,3.90625,2.6241931293963563,-0.0598906988446789,0.0807336049990752,0.0065179149761467,0.1005226879080077,0.0809590363482626,0.390625,2.360484005444632,0.0054177885590855,0.0151033600462869,0.0002281114846877,0.016045682209203,0.0084993951998095,3.515625,2.8714561173836466,Quieto,S02
0.025648166108681,0.001751198732323,3.06669700009002e-06,0.0257078805376597,0.025648166108681,0.390625,1.655143770720546,-0.0303036051141861,0.0004601586807803,2.1174601149752334e-07,0.0303070986557279,0.0303036051141861,0.390625,2.7250182827665888,0.9941648334370048,0.0006366496639999,4.053227946712506e-07,0.9941650372878852,0.9941648334370048,4.296875,2.7156729501536643,0.0088296434686554,0.0742194359254797,0.0055085246690963,0.074742807499317,0.0531704731693705,0.78125,2.4199452026792323,-0.2428443287102436,0.2108126986800337,0.0444419939247586,0.321582589565243,0.2428443287102436,0.390625,1.779585168859863,-0.0257885756661783,0.0616558008178661,0.0038014377744923,0.0668317919061175,0.0305814346110853,0.390625,2.151945969576798,Quieto,S02
0.028118021426651,0.0018203401552158,3.3136382806913816e-06,0.0281768835613575,0.028118021426651,0.390625,1.801948548790992,-0.0302973514913143,0.0005307118149399,2.816550305168405e-07,0.0303019993138862,0.0302973514913143,0.390625,2.773641672705801,0.9940936462901852,0.0006469694847747,4.185695142297625e-07,0.994093856818374,0.9940936462901852,3.90625,2.766671350197773,-0.0144956980760767,0.0823005402610092,0.006773378927254,0.0835673631866339,0.0642538254608501,0.390625,2.182377159156871,-0.2284471870558716,0.2273826443718758,0.0517028669615469,0.322321243847326,0.2390765586005492,0.390625,1.7078477276358512,-0.0217762792404995,0.0662543301323087,0.0043896362612809,0.0697412546405724,0.0398926539291829,0.390625,2.145729867367604,Quieto,S02
0.0290776471927714,0.0006555909311553,4.297994690131125e-07,0.0290850368013571,0.0290776471927714,0.390625,2.572570620087917,-0.0304510949243786,0.0006140134202876,3.770124802932898e-07,0.0304572847537959,0.0304510949243786,4.6875,2.655681892418858,0.9939019028682852,0.000719201323296,5.172505434307274e-07,0.9939021630803212,0.9939019028682852,3.90625,3.1718679758097577,-0.0351643150807001,0.0482008541923618,0.0023233223448733,0.0596644902766132,0.0437086990431392,3.125,2.356353455012293,-0.0416463612676749,0.1143686749150255,0.0130801938018187,0.1217152957054144,0.0978040617494029,0.390625,1.6629407468225328,0.0189349479870765,0.0268598266720856,0.0007214502888544,0.0328630878665985,0.0251478422995215,0.390625,2.577826741211608,Quieto,S02
0.0290545568572623,0.0007805488451795,6.092564997112023e-07,0.0290650396640294,0.0290545568572623,0.390625,2.812258920018842,-0.0312676115261329,0.0008250973187553,6.807855854173369e-07,0.031278496065741,0.0312676115261329,4.296875,2.228172040222503,0.9938601508988067,0.0008150184265008,6.642550355358976e-07,0.993860485078079,0.9938601508988067,4.296875,2.552056525893605,-0.0675939635157689,0.0680457341289794,0.0046302219331517,0.0959122819920517,0.0744140924622905,4.296875,2.5670038933560027,-0.0758255094405274,0.1251166337503246,0.0156541720410128,0.1462999655602433,0.1224265509275468,0.390625,2.554978334242657,0.0282388286143481,0.0242513864720835,0.0005881297458183,0.0372231270493074,0.0292943683702361,0.78125,2.73422038151322,Quieto,S02
0.0291417042963019,0.0010743614498847,1.1542525249984268e-06,0.0291615017071841,0.0291417042963019,0.390625,2.110112626727656,-0.0326575839215268,0.0011691458077527,1.366901919785816e-06,0.0326785050072881,0.0326575839215268,0.390625,2.111538272316179,0.9939422791900878,0.0008489203243604,7.206657171122029e-07,0.9939426417189796,0.9939422791900878,4.296875,2.158880387523847,-0.0866142097735996,0.1007357552697856,0.0101476923897741,0.1328522251393603,0.1054784139094778,4.6875,2.451944079090647,-0.0135036848544852,0.1622933952009626,0.0263391461258558,0.1628542158818895,0.1441254108971169,0.390625,1.4747648413809176,0.0498070545059289,0.0439159752719318,0.0019286128840849,0.0664029785675425,0.0504848626527628,0.78125,2.393043387059981,Quieto,S02
0.0272640491104797,0.0021075518018656,4.441774597547335e-06,0.0273453862378317,0.0272640491104797,0.390625,2.202145784979676,-0.0330697933933746,0.0011357005325443,1.2898156996214327e-06,0.0330892890642895,0.0330697933933746,0.390625,2.2858900331338647,0.994069439729127,0.0010374118826545,1.0762234142727732e-06,0.9940699810510296,0.994069439729127,4.296875,3.038532462880153,0.0812856720559783,0.2096989832179796,0.0439736635626545,0.2249022544223302,0.1700325524172089,0.390625,2.0374822078377,0.1898302990796661,0.1266123506023334,0.0160306873250482,0.2281802571953228,0.1903501745646872,7.421875,3.045416930834156,-0.007104519223849,0.1008440603310893,0.0101695245040603,0.1010940092065916,0.080790567627488,0.390625,1.6944912254277216,Quieto,S02
0.0234642648458361,0.0024736110474007,6.118751613822988e-06,0.0235942890625966,0.0234642648458361,0.390625,1.8772531876614744,-0.0314300771244122,0.0016840796468294,2.836124256865098e-06,0.0314751627843823,0.0314300771244122,0.390625,1.9057092258158808,0.9942448658540964,0.0014903208548055,2.221056250268422e-06,0.9942459828098276,0.9942448658540964,3.90625,2.92267669623844,0.0939616947980184,0.261351849990445,0.068304789493428,0.2777293459156666,0.2267832869321882,0.390625,1.7292846784876867,0.2299034999134697,0.1820715193660501,0.0331500381642619,0.2932672116632283,0.246590179135654,0.390625,2.5467574881365285,-0.0515355484416985,0.1700206916391895,0.0289070355854683,0.1776596418398254,0.137039013478317,0.390625,1.4064177797464974,Quieto,S02
-0.0064686808879536,0.0020043592999076,4.017456203126247e-06,0.0067720963248689,0.0064686808879536,0.390625,1.4592173959453207,0.000935257993627,0.0024456530121928,5.98121865604787e-06,0.0026183823576191,0.0023265546235418,0.390625,1.3553829683718182,0.9948097625696772,0.00104695692325,1.0961187991412166e-06,0.9948103134883236,0.9948097625696772,4.296875,2.7314096372700547,0.3182024370626424,0.2931689131484938,0.0859480116366691,0.4326670805472425,0.3291438947345709,0.78125,1.727306441430141,0.2151569470808325,0.2356816210292352,0.055545826490968,0.3191211969896582,0.2285258848950978,0.390625,1.8103705096676277,-0.0042622247656993,0.0403648646194869,0.0016293222957495,0.0405892702041173,0.0281118513869402,0.78125,1.9907021046270132,Quieto,S02
-0.0083690210646234,0.000665295841998,4.4261855737993306e-07,0.0083954232851888,0.0083690210646234,0.390625,2.915706591780173,0.0034589313849626,0.0007714384788934,5.951173267173888e-07,0.0035439136068189,0.0034589313849626,0.390625,2.644648529256626,0.994792053779551,0.0007978601692718,6.365808497105595e-07,0.994792373736242,0.994792053779551,4.296875,3.019365526612793,0.0956862267962661,0.1870596270917059,0.034991304087688,0.2101122511568389,0.1323189812267204,0.390625,1.9189204150474624,0.0905560139172626,0.1868702204132061,0.0349204792772802,0.2076556547119863,0.1392515993222735,0.390625,2.1355984028032595,-0.004104622772502,0.0370181500320537,0.0013703434317956,0.0372450179205244,0.0254025338380575,0.390625,2.471583051753008,Quieto,S02
-0.0075936503145072,0.0010686094590004,1.1419261758651902e-06,0.0076684712475748,0.0075936503145072,0.390625,2.0006405024874194,0.0033831805782707,0.0005967305765689,3.560873810123663e-07,0.0034354036453087,0.0033831805782707,0.390625,2.636450604734879,0.9949318990964164,0.0006161107919843,3.795925079995709e-07,0.9949320898594584,0.9949318990964164,5.46875,2.823001344830362,-0.0286223064240992,0.0555250067511028,0.00308302637471,0.0624680942541474,0.0415750663379716,0.78125,2.3689198028043634,-0.0301959998828404,0.0927804729723269,0.0086082161649686,0.0975705620250964,0.0659000650783585,0.78125,2.3866837866849644,-0.0061243641391681,0.02761282274409,0.0007624679798965,0.0282838437275711,0.0184020205730337,0.390625,2.4311923895389675,Quieto,S02
-0.0062913932321074,0.000905266607852,8.195076312919569e-07,0.0063561888291883,0.0062913932321074,4.6875,2.978918747786884,0.0029916405768058,0.0005260507610906,2.7672940324402137e-07,0.0030375389288098,0.0029916405768058,3.90625,2.494907114204913,0.994866141218112,0.0006442054743799,4.150006932210363e-07,0.9948663497892112,0.994866141218112,3.515625,2.4239713758069072,0.008269884180871,0.1000550721931014,0.0100110174715667,0.1003962571808918,0.0714043252152679,3.515625,2.3580667726944067,-0.0849090875809836,0.142408949428549,0.020280308877343,0.1658006695739742,0.1109104320784642,0.390625,1.464055423330674,-0.0271872456796489,0.0611233667639138,0.0037360659645559,0.0668970275288933,0.0416955160674935,0.390625,1.5400005845206288,Quieto,S02
-0.0034011459425994,0.002718638839713,7.390997140796514e-06,0.0043541693655227,0.0034930023151676,0.390625,1.1159398879774298,0.0019276992768064,0.0015953068831053,2.545004051283225e-06,0.0025022047384423,0.002100327558092,0.390625,1.7092739310008072,0.9947266413609518,0.0010276240305951,1.0560111482566708e-06,0.994727172165508,0.9947266413609518,0.78125,2.905288815348209,-0.1431756689054587,0.2973120798155567,0.0883944728042519,0.3299905225469021,0.2179439702648353,0.78125,1.5401367196195663,-0.2394159864043389,0.2999140972240541,0.0899484657137193,0.3837557559955055,0.2644770576424219,0.390625,1.892645789404952,-0.0365490527695134,0.0726803238441243,0.0052824294740867,0.0813527057474763,0.059470662454225,0.390625,1.8524495967802177,Quieto,S02
0.0014375432157497,0.003089884270934,9.547384807765724e-06,0.0034079194980095,0.0025117056646434,0.390625,1.492350971223298,0.0001097491010927,0.0014471056322547,2.0941147109035235e-06,0.001451261374148,0.0010184845727403,4.296875,2.6626787976353903,0.9947879527087268,0.0014307278622642,2.0469822158591964e-06,0.994788981561736,0.9947879527087268,4.296875,2.6290074359140343,-0.1814393192416073,0.3076630799287609,0.0946565707512511,0.3571789429937171,0.2586098980440373,1.171875,2.1914970623519463,-0.3289212002381095,0.4326823538910992,0.1872140193687424,0.5435100508130655,0.4303093644872915,0.78125,1.9916099068955029,-0.0259640230880844,0.0712735045623089,0.0050799124525934,0.0758554081625829,0.057304184263066,0.78125,2.0213824894532584,Quieto,S02
0.0028550978990598,0.0021034426793158,4.424471105167378e-06,0.0035462734128072,0.0028744607831138,0.390625,1.6209942319846302,-0.0008982816566114,0.0010419348331679,1.085628196568682e-06,0.0013756955081606,0.001041123646306,4.6875,2.599856242902226,0.9946550727171286,0.0013918521430214,1.937252388033316e-06,0.9946560465479032,0.9946550727171286,3.90625,2.9678205782025397,-0.0797589769888049,0.2091573599312373,0.0437468012134051,0.2238488231456799,0.1774390846762832,0.78125,1.8597294171986296,0.036748429358714,0.5328229339126758,0.2839002789033116,0.534088687357862,0.437163261229242,0.390625,1.3128376528697667,0.044764027893068,0.1101257944856187,0.0121276906110887,0.1188760228317725,0.0916440798593207,0.390625,1.6468652209190604,Quieto,S02
0.0002581314667711,0.0019510580842864,3.8066276482596745e-06,0.0019680598320165,0.0016452745681906,0.390625,1.4887492905485569,-0.0019115299847094,0.0012414245278585,1.541134858368829e-06,0.0022792721954194,0.0019278351594981,4.296875,2.061853663749602,0.9945642236896628,0.001218741386466,1.4853305670851874e-06,0.9945649704136924,0.9945642236896628,4.296875,1.9604604488905333,-0.0629667459845208,0.1792428164113878,0.0321279872350864,0.1899810473046342,0.1471231060930767,4.296875,2.1199373142615805,0.3650185435699455,0.2429800212846654,0.0590392907434964,0.4384949576602001,0.3651670383012189,0.78125,1.8269064714296697,0.0963825023273527,0.0777575606435354,0.006046238237233,0.1238378980446423,0.0971619659776196,1.171875,2.08635894703001,Quieto,S02
-0.0027673542887052,0.0019518054992344,3.809544706841754e-06,0.0033864132154917,0.0027985941493183,0.390625,2.0911551122347647,-0.0017110435426511,0.001479452677504,2.1887802249740463e-06,0.0022619571679901,0.0019159099839959,0.390625,2.0714121612730234,0.994772219815659,0.0010835586835904,1.174099420784308e-06,0.9947728099502896,0.994772219815659,3.90625,2.383760433276869,0.1813507745927139,0.2306226500922543,0.0531868067355743,0.2933852589700984,0.238014925682032,0.390625,1.6537707909954953,0.3912583667741858,0.1945382393475448,0.0378451265684426,0.4369533569378383,0.3913220816304316,0.390625,1.8369818542671523,0.0563793500889125,0.0502589165594937,0.0025259586937341,0.0755287349965714,0.057053767343887,3.90625,2.2283008634702064,Quieto,S02
-0.006688757186069,0.0028614268248604,8.187763474031167e-06,0.0072751107323684,0.006688757186069,0.390625,0.8893565286568957,0.0006438727271036,0.0017686361306229,3.128073762544871e-06,0.0018821917679271,0.0016347592220986,0.390625,1.251965745386458,0.9948384697775904,0.0007972282778932,6.355729270726382e-07,0.9948387892127774,0.9948384697775904,4.296875,2.667607108716418,0.2355735450113582,0.1931894846758925,0.0373221769893369,0.3046589439004792,0.2566236442470597,0.390625,1.8516548845776708,0.3737210022430894,0.1804932511947062,0.0325778137268353,0.4150243381350237,0.3738619407522245,0.390625,1.8115597088429032,0.0341956367921925,0.0281411522957325,0.0007919244525316,0.0442861832647064,0.0346005328226675,0.390625,2.669022650938334,Quieto,S02
-0.0098142337994387,0.0011248041494377,1.265184374592306e-06,0.0098784801181475,0.0098142337994387,0.390625,3.069192149397096,0.0019782108753575,0.0007154835899136,5.119167674356954e-07,0.0021036242617964,0.0019782108753575,4.296875,2.4144584673377327,0.9949042231524072,0.0009720167225066,9.448165088325332e-07,0.994904697980165,0.9949042231524072,4.296875,2.4750489230099504,0.043431929399769,0.1521263476543183,0.0231424256506425,0.1582047981005287,0.1190764423107569,0.390625,2.305825430127346,0.2020571295539397,0.1727395733046574,0.0298389601854751,0.2658308556000464,0.2066147569220286,1.171875,2.2090358740072595,0.0264683577321874,0.0272384230782145,0.0007419316917878,0.0379803324475557,0.0280168332552189,0.390625,2.784496132274088,Quieto,S02
-0.01036336277481,0.0007874522792665,6.200810921220831e-07,0.0103932366996254,0.01036336277481,0.390625,2.819818467678641,0.0015154281458982,0.0008827129783506,7.791822021487198e-07,0.0017537687041138,0.0015241445412482,4.296875,2.320571493198977,0.9947965872963016,0.0011592159655565,1.3437816548012452e-06,0.994797262701312,0.9947965872963016,4.296875,2.304337311081964,-0.0465819311804313,0.1351718595813856,0.0182714316226898,0.1429731021387879,0.1043471638090186,4.296875,2.427939507571222,0.0486925288831303,0.1302317889511765,0.0169603188534237,0.1390369778960196,0.0964406918073352,0.390625,2.524899151495513,0.0201742546361903,0.0285829724882307,0.0008169863162629,0.0349855236689234,0.026500754218762,4.296875,2.4620230726470145,Quieto,S02
-0.0101046480694343,0.0006838776421895,4.676886294867004e-07,0.0101277638813614,0.0101046480694343,4.296875,2.8326948810964763,0.0009998467796207,0.0007222527313738,5.216490079769215e-07,0.0012334271728378,0.0010339310073472,4.296875,2.1064635644905967,0.994789907432002,0.0010765558079169,1.158972407559816e-06,0.9947904899530244,0.994789907432002,4.296875,2.403863744986857,-0.0114640974296612,0.1453441877504262,0.0211249329128311,0.1457956050184913,0.1097464327390835,4.296875,2.200155790286216,0.0115226410409205,0.1025905508320523,0.0105248211200239,0.1032356158337898,0.0668263778553595,4.296875,2.739445960842753,0.0090609336258991,0.0233460279043755,0.0005450370189118,0.0250427142515509,0.0169519154968122,4.296875,2.539281311434508,Quieto,S02
-0.0095698886167745,0.000745731096078,5.561148676578099e-07,0.009598900093507,0.0095698886167745,3.125,3.100287507393231,0.0009842360595346,0.0005705249622895,3.254987325954963e-07,0.00113763761958,0.0010113177608291,3.90625,2.8834038648075757,0.994915960885862,0.0009429640197076,8.891811424632882e-07,0.9949164077481988,0.994915960885862,4.6875,2.776668426267635,0.0037019626135641,0.1017889324305384,0.0103609867653487,0.1018562285407277,0.0816920126123141,0.390625,2.456001158461312,-0.0099074870792491,0.0744435919216326,0.0055418483781945,0.0750999778856163,0.0560477151951588,0.390625,2.6812118061075383,-0.001674502941688,0.020434696864303,0.0004175768359359,0.0205031898990786,0.0130381239037592,3.90625,2.8699554718743183,Quieto,S02
-0.0083238293067912,0.0011597121893144,1.3449323620445284e-06,0.008404229095559,0.0083238293067912,0.390625,2.3616553251257213,0.0007270039955412,0.0006832040838063,4.667678201296333e-07,0.0009976485501731,0.0007619287598656,4.296875,2.57774387960878,0.9949935562388336,0.0010104557910162,1.0210209055982263e-06,0.9949940693178562,0.9949935562388336,4.296875,2.2838481178662544,-0.0233936841721357,0.0975386876783815,0.0095137955940208,0.1003048356419892,0.0803417288244828,4.296875,2.6494469328271246,-0.0506812615806209,0.0696792902811368,0.0048552034940829,0.0861614401544348,0.0649123273523763,4.296875,2.780426371477204,-0.004526643161615,0.0175095432645076,0.0003065841053316,0.0180852039978614,0.0107522054801622,0.78125,2.769281000103618,Quieto,S02
-0.0064404631062594,0.0014336516187354,2.055356963902918e-06,0.0065980998770094,0.0064404631062594,0.390625,2.465662522324842,0.0008488553432991,0.0008599338580321,7.39486240190069e-07,0.0012083218255239,0.0008828382083362,0.390625,2.2929743995523344,0.9949304777524728,0.0010244225387408,1.0494415378803149e-06,0.9949310051467398,0.9949304777524728,4.296875,2.7423340099455187,0.0381657895403085,0.1670967870255408,0.0279213362342589,0.1714000108678353,0.1279094207981039,0.78125,1.9828980308176347,-0.1088512616600297,0.168928210050465,0.028536740150854,0.2009610343221648,0.1333260869370983,0.390625,1.8413253853002904,-0.0262327733291506,0.0586024774174536,0.0034342503594631,0.0642059869171229,0.0322263011850282,0.390625,1.7308937543104903,Quieto,S02
-0.0041154540259041,0.0019336732819112,3.7390923611775856e-06,0.0045470929395063,0.0041221586372665,0.390625,2.5286126341272843,0.0011760872642162,0.0007836439133835,6.14097782983143e-07,0.0014132512289167,0.0012021629370901,0.78125,2.777265205954373,0.9946772733679132,0.0009983928526716,9.96788288265776e-07,0.9946777744289428,0.9946772733679132,4.296875,2.5670619584296848,-0.0017915677251082,0.2119850095630192,0.0449376442794333,0.2119925800454983,0.1585027887548268,0.78125,2.216106748744693,-0.203318769397697,0.2207874331026689,0.0487470906160655,0.3001426537589407,0.2294709501758504,0.78125,1.534321733139878,-0.0391159415450658,0.0605335504365306,0.003664310728452,0.0720719613401009,0.0446293710825577,0.390625,1.7839066034606936,Quieto,S02
-0.0021395924730117,0.0016307097418598,2.6592142621966084e-06,0.0026901803309007,0.0022250334494828,0.390625,1.644438569636232,8.695542294191115e-05,0.0012790715759827,1.6360240964868883e-06,0.0012820239241394,0.0010115354124453,0.390625,1.871715575548759,0.9944678027596772,0.0012036523539557,1.4487789891832906e-06,0.994468531178664,0.9944678027596772,4.296875,2.4764409853590554,-0.1475628004724477,0.1994115450579751,0.0397649643024088,0.248072054826174,0.1899202338501861,4.296875,2.117989334051777,0.0101032403984115,0.3813984160633945,0.1454647517756662,0.3815322099668837,0.2917775255199706,0.390625,1.1471033005402396,0.0441064350485455,0.1029772188799645,0.0106043076082521,0.1120253775755462,0.0747679395360031,0.390625,1.3744796068043532,Quieto,S02
-0.0020548378622992,0.0013227574190765,1.7496871897221798e-06,0.0024437769599659,0.0021335742274078,0.390625,2.6308804005866224,-0.0006247069772823,0.0012633153535783,1.595965682586784e-06,0.0014093347686238,0.0010275802751478,0.390625,2.2336288535114277,0.9947038654618354,0.0011872788462572,1.4096310587700485e-06,0.9947045740297848,0.9947038654618354,3.90625,2.640947118102316,0.0761239283605636,0.3427840133927629,0.1175008798376498,0.3511349203749095,0.2958239535513319,0.390625,1.5912131989260003,0.179080124113212,0.2758098593867891,0.0760710785349604,0.3288476385613311,0.2305602575804477,0.390625,1.6485477171903733,0.0450627936285844,0.1041177091659912,0.0108404973619739,0.1134511028222569,0.0779565129647806,0.390625,1.6871335592119583,Quieto,S02
-0.0038613655432189,0.0017302106700758,2.993628962844409e-06,0.0042312850082691,0.0038613655432189,0.390625,2.3033929629847893,0.0013127959645409,0.0021776182821877,4.742021382918507e-06,0.002542725826241,0.0020658069307109,0.390625,1.547679446149163,0.9948364564373527,0.0010519817643436,1.1066656325115458e-06,0.9948370126420014,0.9948364564373527,4.296875,2.230443492410755,0.3040543291085673,0.1793416176224941,0.0321634158114528,0.3530048878714201,0.3074696781088059,4.296875,2.2273964980546244,0.2129478604370963,0.2123887953999962,0.0451090004114614,0.3007586934341192,0.2357812742946032,0.390625,2.244506060741104,-0.0083475002811879,0.0389380724994278,0.0015161734899706,0.0398227855745317,0.024442976503258,0.390625,1.8520214025457795,Quieto,S02
-0.005150245735141,0.0013626616539166,1.856846783054766e-06,0.0053274644921757,0.005150245735141,0.390625,1.7288353833047805,0.0037636365501767,0.001134404708766,1.2868740432704994e-06,0.0039308821052146,0.0037636365501767,0.390625,1.973871988154367,0.994633467488854,0.0009532255140644,9.086388806634572e-07,0.9946339242594644,0.994633467488854,3.515625,2.702207685274398,0.1137876494203789,0.183522796061754,0.0336806166743241,0.2159357446902648,0.1597407539212583,0.390625,1.7877244346106886,0.0839578369512256,0.3013219821687325,0.0907949369380939,0.3128000244942806,0.2505259799269361,0.390625,1.173333210428095,-0.0157194989161471,0.0410746291789555,0.0016871251621887,0.043979856847919,0.0250431772074199,0.390625,1.7536298717862089,Quieto,S02
-0.0040111840920127,0.0015561508252499,2.4216053909259973e-06,0.0043024647832309,0.0040111840920127,0.390625,1.9831090802217413,0.0036525733156844,0.0010372107321301,1.0758061028459452e-06,0.0037969853738585,0.0036525733156844,0.390625,1.7814233440490324,0.9947071684687953,0.0008003670217282,6.405873694702126e-07,0.9947074904667088,0.9947071684687953,4.296875,2.2873863520493387,-0.0364079618737072,0.1711336191481317,0.0292867156027378,0.1749635827551983,0.1316985124672154,0.390625,1.8965574729751185,-0.1730690448112977,0.204995146449932,0.042023010068029,0.2682832539312211,0.1802880005180504,0.390625,2.2417552221518373,-0.0321319581881127,0.0580839097428519,0.0033737405710157,0.0663792385314745,0.0413321714196952,0.390625,1.8107009336949629,Quieto,S02
0.0097027453218774,0.0014628963440192,2.14006571334486e-06,0.0098124070693464,0.0097027453218774,0.390625,2.1819585491067564,-0.007618655575963,0.0010785529100425,1.163276379761225e-06,0.0076946207940946,0.007618655575963,0.390625,2.3149383150276632,0.9935284359406856,0.0008643015837217,7.470172276239305e-07,0.993528811882158,0.9935284359406856,3.125,2.612293113907478,0.0440651760177611,0.1876770210897747,0.0352226642451317,0.1927807147580068,0.1389180491063788,0.390625,2.191060371923942,-0.0611590573943495,0.2511769565619655,0.0630898635077315,0.2585155581567517,0.1929977694417152,1.171875,1.8016579640766277,0.0004773116976998,0.0753663087888825,0.0056800805004611,0.0753678202346196,0.05920838056829,1.5625,2.384322124897449,Quieto,S03
0.0101808017258025,0.0009026024321258,8.146911504794207e-07,0.0102207345592468,0.0101808017258025,1.953125,2.8271498734802285,-0.0081144992775283,0.0008341656770067,6.958323766962097e-07,0.0081572624637009,0.0081144992775283,2.734375,2.758746804443,0.993470972093411,0.0008884578337146,7.893573222889024e-07,0.9934713693657956,0.993470972093411,2.734375,2.5899929829896333,0.1549461306611751,0.1719223830244315,0.0295573057847993,0.2314424533046374,0.1810192111717316,0.78125,2.319535327597202,0.0939183626539674,0.1535584926308089,0.0235802106590461,0.18000241526893,0.1418110815614935,1.953125,2.57737075914717,0.0188439230456399,0.1067759731501204,0.0114011084421552,0.1084260202991203,0.0830929511650972,0.78125,1.978757064943208,Quieto,S03
0.0095297561007696,0.0007721150611865,5.961616677110456e-07,0.0095609838932961,0.0095297561007696,0.390625,2.98136600716076,-0.0066277223676767,0.001454949974545,2.1168794284285228e-06,0.0067855422194126,0.0066277223676767,0.390625,1.7679617195760824,0.9935737301654032,0.0008843692973057,7.821090540170302e-07,0.9935741237491278,0.9935737301654032,2.34375,2.937710560579057,0.2237680121423969,0.1568399692066094,0.0245987759407302,0.2732597650567864,0.2275660023013317,0.390625,1.91065420246574,0.0829215715177564,0.1055643727481818,0.011143836793717,0.1342379373228428,0.0970914745986379,1.171875,2.902112936731221,0.0428035706285602,0.1060202236172411,0.0112402878158498,0.1143347430766517,0.0839551173499514,1.171875,1.9510856639052616,Quieto,S03
0.0091663788862422,0.0005782929079521,3.344226873877336e-07,0.0091846025811427,0.0091663788862422,6.25,3.161101536585763,-0.0047400252778314,0.0009445250866367,8.92127639286181e-07,0.0048332150038838,0.0047400252778314,0.390625,2.6505226468396383,0.993595927239783,0.0009194568348483,8.454008711493681e-07,0.9935963526645794,0.993595927239783,6.640625,3.217296700543999,0.2007388424525805,0.1588165507772098,0.02522269680077,0.2559663643332304,0.208510402863497,0.78125,2.2444463480041725,0.0568308841519587,0.0893338117992366,0.0079805299305814,0.1058786065457738,0.0814277090328106,0.78125,2.6035389154556947,0.0207040080623281,0.0981701750769299,0.009637383274635,0.100329652767664,0.0743127830076522,0.78125,1.890088013290825,Quieto,S03
0.0090932672173716,0.0006225652796005,3.875875273641014e-07,0.0091145540874959,0.0090932672173716,1.5625,3.0588061414494674,-0.0049401165356394,0.0011432031652249,1.3069134769804551e-06,0.0050706671023326,0.0049401165356394,0.390625,1.7046541138120364,0.993485833787202,0.0008857900934886,7.846240897226632e-07,0.9934862286715108,0.993485833787202,5.078125,3.0032651361750315,0.0131450802988008,0.1638067794167862,0.0268326609828996,0.1643333627689812,0.1259001752343882,0.390625,1.646864347980132,0.0257322891951529,0.1185120419837259,0.0140451040951524,0.1212734711401277,0.0904792822374158,0.78125,2.415517103419002,0.0092637086507455,0.0744984754078494,0.0055500228380939,0.0750722261296402,0.0447292963235316,0.78125,2.281042848313212,Quieto,S03
0.0101086137143894,0.0013271807637249,1.7614087796015202e-06,0.0101953656141574,0.0101086137143894,0.390625,1.9627543720738891,-0.00693637566154,0.001433076632912,2.0537086357985983e-06,0.0070828677775181,0.00693637566154,0.390625,1.904451812429812,0.9935203445981212,0.0007494760670077,5.61714375017367e-07,0.9935206272869952,0.9935203445981212,3.90625,3.012130884322073,-0.044813268138175,0.1230641486802691,0.0151447846903993,0.1309695143597294,0.1087917941376533,1.171875,2.705457247573208,-0.0662465822833958,0.1452278074740272,0.0210911160637131,0.1596237003954734,0.1208843130696561,0.390625,2.180609257110658,-0.0095997279082916,0.0284599901918376,0.0008099710417194,0.0300354093967891,0.0199883112190722,0.78125,2.658121201391093,Quieto,S03
0.0117546012686297,0.000996783153233,9.93576654569252e-07,0.0117967888698171,0.0117546012686297,0.390625,2.6850113053213764,-0.0074870782253656,0.0011742412516106,1.3788425169841823e-06,0.0075786003239205,0.0074870782253656,0.390625,2.2068787097102462,0.9935671144075132,0.0006380891336651,4.07157742501481e-07,0.993567319304442,0.9935671144075132,3.90625,2.8389904973704643,0.1858237770310943,0.2103844922862077,0.0442616345945253,0.2806993243750815,0.2344453047822516,0.390625,1.3918055620824994,-0.039254788304999,0.1533146247540806,0.0235053741634845,0.1582602684452255,0.1195695567988409,0.390625,2.8635962733379188,-0.0048839541839221,0.0330238633604384,0.0010905755512489,0.0333830579743611,0.0229693989118817,0.390625,2.532314323601041,Quieto,S03
0.0114515788741785,0.0013495615931084,1.8213164935934324e-06,0.0115308271691638,0.0114515788741785,0.390625,2.109158069472682,-0.0059958916908488,0.0014039595972574,1.971102550731205e-06,0.0061580694798874,0.0059958916908488,0.390625,1.6721060297082666,0.993486519794218,0.0006884710708047,4.739924153350609e-07,0.993486758344188,0.993486519794218,3.90625,2.891788621538026,0.1776561731361063,0.2602065571791344,0.0677074523990181,0.3150701005369826,0.2739528117695718,0.390625,1.2644179149102537,0.1640493792236859,0.1676908888808228,0.0281202342136404,0.2345899252681521,0.1803942402555432,0.390625,2.0596362439445546,0.0304259619307922,0.0431026212474172,0.0018578359583983,0.0527595974000211,0.0364444405374958,0.390625,2.190067455893669,Quieto,S03
0.0092216205636361,0.0016836812250745,2.834782467668555e-06,0.0093740635952262,0.0092216205636361,0.390625,1.8343810982328024,-0.0050116678140911,0.0011023478245847,1.215170726366735e-06,0.0051314700627757,0.0050116678140911,0.390625,2.194214901394535,0.9935168459672584,0.0007261842879344,5.273436200428083e-07,0.9935171113596126,0.9935168459672584,7.8125,3.0297360746626665,0.1867154163152024,0.2631676702593347,0.0692572226697259,0.3226761059630621,0.283012054948668,0.390625,1.9257899120592952,0.2376220341347855,0.1278192955742926,0.0163377723211083,0.269818463837191,0.2376220341347855,1.171875,2.458735319227087,0.0551017775187845,0.0665217610194958,0.0044251446891349,0.0863791095975441,0.0630761088689237,1.171875,2.498617342540279,Quieto,S03
0.0075973225888497,0.0007329727302928,5.372490233528953e-07,0.0076325984790501,0.0075973225888497,0.78125,2.7644806776676734,-0.0041765673917209,0.0012829484991585,1.6459568514930575e-06,0.0043691729227715,0.0041765673917209,0.390625,1.8776948852380135,0.9935637231207444,0.0007134554165363,5.090186313851218e-07,0.9935639792787312,0.9935637231207444,5.078125,2.9258968972252632,0.1753059607725521,0.2285470334935027,0.0522337465186802,0.2880380641531043,0.2338071626509736,0.390625,1.3570434138286498,0.1175839145789136,0.116656352475947,0.0136087045729923,0.1656341798684488,0.1297429389823129,0.78125,2.0629139118226547,0.0270030031326063,0.0708235709645543,0.0050159782041712,0.0757967042974219,0.0489557723360153,0.78125,2.1693394045460432,Quieto,S03
0.0074551674710376,0.0006458711046459,4.171494838166266e-07,0.0074830923758185,0.0074551674710376,0.390625,3.0649351529184825,-0.0041879005746678,0.0011122126380289,1.237016952191268e-06,0.0043330737560644,0.0041879005746678,0.390625,2.1684045258981866,0.9935956273696904,0.0007274634030239,5.292030027392484e-07,0.9935958936766855,0.9935956273696904,4.6875,2.852695255061372,0.0588943621827618,0.1684064384118987,0.0283607284985806,0.1784076074484913,0.1476854595677028,0.390625,1.9920157947232335,0.009906074661172,0.0971582276598319,0.0094397212019997,0.0976619246031556,0.0729246006439223,1.171875,2.574889712597305,0.0097329881771299,0.0475872133112151,0.002264542870727,0.0485723576695968,0.0315209619437436,0.390625,2.382238186908784,Quieto,S03
0.0081929082097483,0.0008865190877339,7.859160929165824e-07,0.0082407318258925,0.0081929082097483,0.390625,2.774018842992796,-0.0046789547283964,0.0007236857685139,5.237210915496728e-07,0.0047345895748135,0.0046789547283964,0.390625,2.5169860369623573,0.9936022881125648,0.0006111430363049,3.734958108239812e-07,0.9936024760629047,0.9936022881125648,5.078125,3.095224190810937,0.0926359804571192,0.1400673613823643,0.0196188657246178,0.1679294214837579,0.1380329001974554,0.390625,1.8601666548619755,-0.0349508388987432,0.1155508637653689,0.0133520021169228,0.1207210141468699,0.0875051256613752,0.78125,2.478093605075625,0.016889221207499,0.0719696502247195,0.0051796305534684,0.0739248019710862,0.0531777351210453,0.390625,1.7128278537269486,Quieto,S03
0.0082103070764267,0.0010978612845429,1.2052994000981972e-06,0.0082833834686872,0.0082103070764267,0.390625,1.8838523794194864,-0.0048408435448202,0.0009578879554607,9.175493352168522e-07,0.0049347052151718,0.0048408435448202,3.515625,3.044737634984902,0.9935029319927456,0.0008876931777425,7.879991778106147e-07,0.9935033285688376,0.9935029319927456,3.515625,2.9789380503271663,-0.0139363633717632,0.1881003083116377,0.0353817259869331,0.1886158747586294,0.1287141102864335,0.78125,2.2587230017396185,0.0546495468631992,0.2903885911802811,0.0843255338876684,0.2954862211001073,0.2195096438873452,0.390625,1.3739749505957437,0.012665953601717,0.1224597225032197,0.0149963836355655,0.1231129969426722,0.0890483724189455,0.390625,1.8257120484727287,Quieto,S03
0.0078950128393855,0.0011085241960979,1.228825893334547e-06,0.0079724559344908,0.0078950128393855,0.78125,2.5484581133156974,-0.0058444876013492,0.0012939370090083,1.6742729832814237e-06,0.0059860093806814,0.0058444876013492,0.390625,2.3897816075630085,0.9935199245704976,0.0011062895768801,1.2238766279136558e-06,0.9935205404998908,0.9935199245704976,3.515625,2.782811906965317,0.0637271505873543,0.2599402897305721,0.0675689542252137,0.2676380091601286,0.2110637527664404,0.390625,1.973438444196276,0.0948008885744809,0.3101552260808275,0.0961962642652492,0.3243200159406761,0.271955604080029,0.78125,1.896277780446307,-0.0010996474315176,0.1433397614775589,0.0205462872204434,0.1433439794512386,0.1065817431792027,1.5625,2.069247212492455,Quieto,S03
0.0075432559447961,0.0012962773694055,1.6803350184330428e-06,0.0076538255315322,0.0075432559447961,0.78125,2.795626306518365,-0.0059657391153263,0.0011122709159077,1.2371465903742268e-06,0.0060685409929001,0.0059657391153263,3.515625,2.7237475499585155,0.9936236744914402,0.0010137880967104,1.0277663050317688e-06,0.9936241916721716,0.9936236744914402,3.515625,2.5326442880697595,0.1693639075622013,0.1880356293240558,0.0353573978952937,0.253064282505516,0.2122364831681842,1.5625,2.278976777423191,0.1344277825961959,0.2131873302605413,0.0454488377836171,0.2520310824429146,0.2186783389299906,0.78125,1.683986653129386,-0.0060846368993167,0.1177642017173666,0.0138684072061286,0.1179212873586662,0.0951267111517219,0.390625,2.072641076135794,Quieto,S03
0.005806874892091,0.001645856308775,2.708842989134592e-06,0.0060356142190776,0.005806874892091,0.390625,2.589242186182873,-0.0048114552636623,0.0010625986009283,1.1291157866949838e-06,0.0049273945996763,0.0048114552636623,0.390625,2.468714684157075,0.993787975296862,0.0009242504579249,8.542389089745196e-07,0.9937884050860856,0.993787975296862,2.34375,3.0614609145773795,0.2165002304150791,0.162046225383508,0.0262589791610427,0.2704280476038405,0.2395796532663558,1.953125,2.3672563741281416,0.2578160841951658,0.1159171648911524,0.0134367891164026,0.2826763562559334,0.2581755590667909,0.390625,2.7520863300275984,0.0106291628107338,0.0824364793109659,0.0067957731211873,0.0831189041268254,0.0693103412654021,0.78125,2.076637572503416,Quieto,S03
0.0028970368224602,0.0021613187456753,4.671298720407559e-06,0.0036144323304079,0.0030699236324917,0.390625,1.6774138339345308,-0.0026508465559683,0.0016854221088802,2.840647685102266e-06,0.0031412792216534,0.0026597113047967,0.390625,1.7895100603352987,0.9938669292744122,0.000939677657572,8.829941001400008e-07,0.9938673734958048,0.9938669292744122,3.125,2.948682517560629,0.2978689837250152,0.1180714433316334,0.0139408657304151,0.3204165994385879,0.2978689837250152,1.171875,2.468626671797407,0.3618886222625448,0.1833652910043149,0.033622829945097,0.4056922538922576,0.3618886222625448,0.78125,2.477488021905021,0.0754308152065203,0.0985882055568184,0.0097196342749134,0.1241347741675704,0.0948293119548647,0.390625,1.6101273036289308,Quieto,S03
-0.0010675537652681,0.0028210173092034,7.9581386588252e-06,0.0030162575653553,0.0024387777517888,0.390625,2.3016198217634467,-0.0011635912941893,0.0008060480192294,6.497134093037385e-07,0.0014155063084341,0.0011884310023522,0.390625,2.560769145777253,0.9936550176545068,0.00137730439059,1.8969673843386968e-06,0.9936559721942814,0.9936550176545068,6.640625,2.8367499396193034,0.1492645998509828,0.2206997273328054,0.0487083696447746,0.2664362783358315,0.2213485169783195,0.390625,2.263565748779296,0.3737287640310632,0.2291491355190506,0.0525093263091282,0.4383862627561616,0.3783201697569233,0.390625,2.4218949518912534,0.0926744616613097,0.1006412985675558,0.0101286709773639,0.1368109163099841,0.1031727337530599,0.78125,2.375116107653978,Quieto,S03
-0.0040635550725887,0.0017983695750408,3.234133128432623e-06,0.0044437161201402,0.0041404609233834,0.390625,2.6920126028728144,-0.0008369302854569,0.0008513890320738,7.248632839356427e-07,0.0011938658160156,0.0009695716454986,0.390625,2.6999115287168887,0.9936923479862616,0.0013734907937399,1.8864769604882731e-06,0.9936932972116748,0.9936923479862616,5.078125,3.0706298731913866,0.1624225809212727,0.2302010897758555,0.0529925417339915,0.2817332719561516,0.2345064980486094,0.390625,1.7746446477196096,0.1555801662104775,0.240918663833045,0.0580418025830997,0.2867873614739317,0.2170741206393152,0.390625,2.521213436004288,0.0283372251739888,0.0803009511547031,0.00644824275635,0.0851542194310497,0.0563874708292761,0.390625,2.3552617447154742,Quieto,S03
-0.0042421882049295,0.0011894849194109,1.41487437350616e-06,0.0044057956307062,0.0042421882049295,6.640625,3.183046532485541,0.0005479734752012,0.001424814307282,2.030095810235741e-06,0.0015265551872631,0.0012101923897012,0.390625,1.8662012938759456,0.9938258099688552,0.001097647270223,1.2048295298281612e-06,0.9938264161259656,0.9938258099688552,5.078125,2.8097140863538392,0.1925339221380035,0.3556200886256886,0.1264656474341426,0.4043945580840393,0.362340459798372,0.390625,1.823846003544424,-0.068684583872653,0.2212344178209157,0.0489446676285595,0.2316511163157195,0.182863402749825,0.78125,2.531654163332171,-0.002350969735194,0.0509639449968059,0.0025973236896374,0.0510181413649425,0.0368105926371507,0.390625,2.658377105735264,Quieto,S03
-0.0022303361339433,0.0016716095044659,2.794278335420888e-06,0.0027872347597204,0.0022323523509608,0.390625,1.4143579715879675,0.000390220849683,0.0015479278975765,2.3960807760957147e-06,0.0015963561907115,0.0012604845892479,0.390625,1.4747979926493262,0.9938856281989188,0.0011403191208259,1.3003276973211983e-06,0.993886282362352,0.9938856281989188,2.34375,2.9263374129963307,0.0449311372976188,0.3709430814787862,0.1375987696969774,0.3736543547127945,0.3075924228925095,0.390625,1.493411554596857,-0.0774302919931497,0.2262017370406152,0.0511672258401916,0.2390871722998456,0.1880814756777009,0.390625,1.5791999584358616,-0.0031203729853233,0.0397402740485794,0.0015792893814561,0.0398625903451309,0.0299964013915472,0.390625,2.356829974184356,Quieto,S03
-0.0016573092956182,0.001018805694449,1.037965043041808e-06,0.0019454149028894,0.0016593255126357,0.390625,1.8947132628629555,-0.0001757064906651,0.0010347988878824,1.0708087383627058e-06,0.0010496101701225,0.0008213693550136,0.390625,1.9720370086404813,0.993902187722995,0.0009135900467035,8.346467734357069e-07,0.9939026076066652,0.993902187722995,4.6875,2.868515112069752,0.091647630437996,0.3448476758451693,0.118919919535815,0.3568181717635952,0.2730612127903535,0.390625,1.3952477698062526,0.0731460426347847,0.1977791593926543,0.0391165958900649,0.2108718555028022,0.1577881390917302,0.390625,1.6899751255944775,0.0153826362096688,0.0540387271569755,0.002920184032746,0.0561854921621682,0.0350695562222913,0.78125,2.350467196530606,Quieto,S03
0.004844071829402,0.0020459039039482,4.185722784190611e-06,0.0052583984893308,0.004844071829402,0.390625,1.4600047903127424,-0.0058235107323432,0.0007604490993876,5.782828327595406e-07,0.005872951564799,0.0058235107323432,0.390625,2.559374565177678,0.9937723621236252,0.0007291429454222,5.316494348590709e-07,0.9937726296141408,0.9937723621236252,2.34375,2.7542773760429964,0.1564816598889373,0.1417465449266244,0.0200920829986355,0.2111364319112943,0.1715322327025678,0.390625,1.9973396555471032,-0.1619280009966964,0.1682779853283618,0.0283174803461723,0.2335340614406354,0.1679433203390689,0.390625,2.2401473255076034,-0.0146679747723021,0.0381725533402475,0.001457143828514,0.0408936830382754,0.0250031492267625,0.78125,2.407730245497492,Quieto,S03
0.0077579624555188,0.0015371802305107,2.36292306107305e-06,0.0079087865391798,0.0077579624555188,0.390625,2.0874875125803944,-0.0054116545651832,0.000850756232118,7.237861664876724e-07,0.0054781193213873,0.0054116545651832,0.390625,2.547470830231723,0.9937503462004316,0.0006432810869307,4.138105568028529e-07,0.9937505544069068,0.9937503462004316,0.78125,3.0468944754971226,0.1158107894289359,0.1618306207978376,0.0261891498278135,0.1990007255664332,0.1324387706468212,0.78125,2.204264661559214,-0.1251748368715576,0.20800943101516,0.0432679233912506,0.2427687442342438,0.1697530106268425,0.78125,2.1957178948998752,-0.0391810276249692,0.0876666145627087,0.0076854353088865,0.0960238940818124,0.0559095783110463,0.78125,1.8905844370889715,Quieto,S03
0.0082212500498611,0.0011785702611486,1.3890278604639826e-06,0.0083052983235285,0.0082212500498611,0.390625,2.1806157590475306,-0.0048939774910664,0.0005695028031506,3.243334427964854e-07,0.0049270020424048,0.0048939774910664,3.90625,2.9952720377855275,0.9936713544706366,0.0005800117228554,3.364135986497304e-07,0.9936715237487226,0.9936713544706366,3.90625,3.15824162601816,0.1454276579941533,0.1263844897413442,0.0159730392471799,0.1926713340298561,0.1476825504476752,0.0,2.4333963398148786,0.0815712956823024,0.2428392252042273,0.0589708892977894,0.25617331160189,0.1861050267969924,0.390625,1.8292551395840613,-0.014989236973167,0.1016369170721522,0.0103300629119315,0.102736264955318,0.068406426517408,0.390625,1.4561615998068025,Quieto,S03
0.0079755313040132,0.0014633623194315,2.141429277931943e-06,0.0081086699809048,0.0079755313040132,0.390625,2.0649917673250413,-0.0042150567508359,0.0010760399386245,1.157861949515151e-06,0.0043502373914859,0.0042150567508359,0.390625,2.4991913999488324,0.9937625385525636,0.0008415229592325,7.081608909154383e-07,0.9937628948553704,0.9937625385525636,4.296875,3.211191718129243,0.251877767537368,0.1725706286853396,0.0297806218848533,0.3053244694819951,0.2524563474840576,0.390625,1.938065084905822,0.0071996671197234,0.2988036295803508,0.0892836090503914,0.2988903549079934,0.2352016572385653,0.390625,1.7942713294754185,0.020904890912243,0.0776440183845031,0.006028593590893,0.0804090048125571,0.0626056773566811,0.78125,1.8598567852915664,Quieto,S03
0.0086530450641882,0.001531767955507,2.3463130695183157e-06,0.0087875765687925,0.0086530450641882,0.390625,2.0494829816477838,-0.0027504293099963,0.0011765111047507,1.3841783796019286e-06,0.0029914945710946,0.0027504293099963,0.390625,2.0302560850873155,0.9938069572382112,0.0010420360972803,1.0858392280351746e-06,0.9938075035409524,0.9938069572382112,4.6875,2.9224774966884266,0.1990625516622555,0.2129127106410613,0.0453318223525243,0.2914750792551783,0.2226688457693569,0.390625,1.6004930072291044,-0.0206759740536764,0.367960577300739,0.1353949864474931,0.3685410185455093,0.2937883508778243,0.390625,1.5264327889701794,0.0093593891376186,0.0867889974493879,0.0075323300782698,0.0872922003577595,0.0682855476320917,0.78125,2.1677194522681047,Quieto,S03
0.0089945175466628,0.0013444359716239,1.807508081796461e-06,0.0090944408282764,0.0089945175466628,0.390625,2.029062672233696,-0.0019314283863254,0.0006156086954093,3.789740658636268e-07,0.0020271629627061,0.0019314283863254,0.390625,2.934002726158403,0.9937651602710604,0.0009459526964883,8.948265039935038e-07,0.993765610491262,0.9937651602710604,2.734375,2.995626233289838,0.1231612675509051,0.1297390914950032,0.0168322318619488,0.1788880367344179,0.1471942938569546,0.78125,2.024239385614388,0.2039022387506663,0.3865924126376573,0.1494536935090047,0.4370695785301677,0.3624570884315726,0.390625,1.491204138470821,0.0127218481838092,0.0632469810808945,0.004000180615847,0.0645137662600698,0.0436991772803738,1.5625,2.4624917182032044,Quieto,S03
0.0087614578736689,0.0013262693038926,1.75899026644798e-06,0.0088612715982822,0.0087614578736689,0.390625,1.4177945542541293,-0.0013373368308962,0.0007840127897318,6.146760544631049e-07,0.0015502083259145,0.0013556212607056,0.390625,2.46376831262903,0.9937237875381372,0.0008323625201559,6.928273649603025e-07,0.9937241361396562,0.9937237875381372,5.859375,2.7500728714904623,0.2228415390271003,0.1258920394273466,0.0158488055911765,0.2559436600252939,0.2232682712260484,0.78125,2.208953095919559,0.0397443476738255,0.3608429557526323,0.1302076387162961,0.3630251394715166,0.2842033435252587,0.390625,1.2437395591219793,-0.0265268447846188,0.0717086694490543,0.0051421332741537,0.0764578757773258,0.0537126064387065,0.390625,1.700320356602286,Quieto,S03
0.0095686090320605,0.0018404721261825,3.3873376472548418e-06,0.0097440041284723,0.0095686090320605,0.390625,2.980680211615668,-0.0003016391005159,0.0007468479753628,5.577818983036356e-07,0.0008054613865752,0.0006102521609019,0.390625,2.415305781886623,0.9935519758781528,0.0007267232317998,5.281266556375816e-07,0.9935522416551822,0.9935519758781528,4.296875,2.744794337272997,0.2225811314889808,0.1764293663630507,0.0311273213152675,0.2840240859683955,0.2324438155007798,0.78125,1.2583514660330566,-0.2233337557883805,0.2332852101423212,0.0544219892711469,0.3229550367244501,0.2463327805670409,0.390625,1.6052702597732034,-0.0874354402698446,0.1232275096893156,0.0151850191442303,0.1510959144365325,0.1086328701574401,0.78125,1.6680099224875475,Quieto,S03
0.0121251890337516,0.001999705435596,3.998821829152201e-06,0.012288980060744,0.0121251890337516,0.390625,1.5646699916117015,0.0003947807786378,0.0005313453614322,2.823278931155672e-07,0.0006619514757876,0.000515845316444,0.390625,2.7468204607015645,0.9934893541506776,0.0007284652562793,5.306616296061234e-07,0.993489621220252,0.9934893541506776,4.6875,3.1601738773609656,0.1028261366389331,0.2018586885448089,0.0407469301410301,0.2265394988012438,0.1651741711385658,0.390625,1.8804172103198968,-0.0226626384983107,0.4189929040566115,0.1755550536497928,0.4196053489095414,0.3338714236886947,0.390625,1.3651189736458047,-0.0712764084509631,0.1387788647191327,0.0192595732927313,0.1560124985198297,0.107010633891535,0.390625,1.2759886425151965,Quieto,S03
0.0117934736868089,0.0021441989031552,4.597588936292203e-06,0.0119868098565776,0.0117934736868089,0.390625,1.7742059622505624,0.0001551801066362,0.0005764472065893,3.3229138198472053e-07,0.0005969692182016,0.0004715956546433,0.390625,2.2439031988245617,0.9935937572903294,0.0007915544593531,6.265584621219034e-07,0.993594072589393,0.9935937572903294,5.46875,3.0690692883929245,0.0409235524899401,0.1257129358006094,0.0158037422276081,0.1322062002177092,0.1042787203033327,0.390625,1.751940743388722,0.2702925506569794,0.303690238605396,0.0922277610242024,0.4065535929798901,0.3388781429657613,0.78125,1.7735697324119282,0.0266618689812481,0.1067712979827767,0.0114001100729269,0.1100498311243599,0.0791469449444298,0.390625,1.8541541534896693,Quieto,S03
0.0084418920641177,0.0019261818901866,3.7101766740828377e-06,0.0086588520195403,0.0084418920641177,0.390625,1.2685473860319874,0.0004610762264515,0.0011396090629641,1.298708816390133e-06,0.0012293494633296,0.000882758100165,0.390625,2.229627762511392,0.9936736875326108,0.0007037803821093,4.953068262419862e-07,0.9936739367627004,0.9936736875326108,2.734375,3.0935004055242032,0.2215793211800535,0.2169915001078085,0.047085311119037,0.3101333692037191,0.2324491385056124,0.390625,1.4708118628290656,0.2452309565002293,0.1555033709374532,0.0241812983729111,0.2903782367859694,0.2452443356446174,0.390625,1.8792773255083843,0.0543254324590112,0.063404706739583,0.0040201568367325,0.0834949666063237,0.0589647104747287,0.390625,2.5435298745226698,Quieto,S03
0.0062805007675495,0.0008676444160455,7.528068326950973e-07,0.006340149582138,0.0062805007675495,4.6875,2.9110903740248943,0.0013378949277989,0.0010817384040132,1.1701579747171706e-06,0.0017205001634836,0.0014641650561955,0.390625,2.040613875380064,0.993722025984394,0.0007474419202612,5.586694241638498e-07,0.9937223070838012,0.993722025984394,2.34375,2.809529745203168,0.2180088885005795,0.3023140270450451,0.0913937709481922,0.3727219424899081,0.3272559888589502,0.390625,1.7163533868411314,0.1881034627420053,0.1222590514500659,0.0149472756614698,0.2243439064405424,0.1940583191294011,0.390625,2.3190639403951643,0.0438382787652995,0.0696381570715322,0.0048494729203193,0.0822877123598871,0.0518315022858261,0.390625,1.8138119378423407,Quieto,S03
0.0051595233416507,0.0007994074153276,6.39052215680859e-07,0.0052210854550294,0.0051595233416507,0.390625,1.843930582679868,0.0015570476059776,0.0007174769514458,5.147731758559838e-07,0.001714400893355,0.0015587943515633,0.78125,2.240793464691982,0.9936419711614892,0.0006780506570569,4.59752693535427e-07,0.9936422025087216,0.9936419711614892,3.515625,2.723561705743686,0.0678086086690485,0.2299660594636616,0.0528843885052443,0.2397548663007208,0.1851297139843916,0.78125,1.4620805704291608,0.1412023497374764,0.129662681460647,0.0168124109635652,0.191704237133533,0.1481001132284601,0.390625,1.6426536343806757,0.0233251477599875,0.0737698498081268,0.0054419907407135,0.0773695887202384,0.0444291979788235,0.390625,1.6981826940108775,Quieto,S03
0.0042403619238711,0.0008321053447049,6.923993046865242e-07,0.0043212346094724,0.0042403619238711,1.171875,2.38363283768617,0.0011314180429566,0.0006583179058675,4.333824651858415e-07,0.001309003152446,0.0011533653073199,0.390625,2.4176548182077213,0.993700909367074,0.0006406241464191,4.103992969752955e-07,0.9937011158674658,0.993700909367074,5.46875,2.964297300368165,0.0327238359876286,0.1231507450631691,0.0151661060096136,0.1274243126383615,0.1016690838195404,0.78125,2.176275681980673,0.11125598740997,0.1746782224110224,0.0305124813846746,0.2070999182019202,0.1419192498768008,1.171875,1.6537018216237822,0.0514839548405701,0.0895102501053305,0.0080120848739188,0.1032602657363649,0.06891961969875,0.390625,1.913877808712084,Quieto,S03
0.0035385548817445,0.0008906668146307,7.932873746844455e-07,0.0036489255988308,0.0035385548817445,0.390625,2.84004065267468,0.0001980161837677,0.0005952213529558,3.542884590145628e-07,0.0006272948812548,0.0004752108359424,0.390625,2.1558466613365157,0.9938994531258616,0.0007042102699165,4.959121042559366e-07,0.9938997026038346,0.9938994531258616,1.171875,2.488256018829199,0.0343807078177353,0.148194848396242,0.0219617130911851,0.1521306877695412,0.1264007253946315,0.78125,1.761115265621031,0.0913170789073825,0.1759319178689317,0.0309520397250405,0.198219193382522,0.1380297764781691,1.171875,2.052868580543179,0.0571845609840207,0.0835718017056403,0.0069842460403268,0.1012636166412303,0.0641449938045338,0.390625,1.8426107038319903,Quieto,S03
0.0032553194785293,0.0005031277494657,2.531375322824951e-07,0.0032939706191122,0.0032553194785293,0.390625,2.809338946518056,7.727801587843956e-06,0.0005066066281261,2.566502756613952e-07,0.0005066655648243,0.0003431793257345,0.390625,2.9361637444790945,0.9939139048338644,0.0006479540612937,4.198444655470754e-07,0.9939141160415048,0.9939139048338644,3.125,2.908607707276456,0.1495126526408191,0.1784645703839769,0.0318496028823374,0.2328167437750809,0.1817753277261237,0.390625,1.7129521884534202,0.0539815659007774,0.0857597770297203,0.0073547393561873,0.101334835142153,0.075936909949493,0.390625,1.8942060384031203,-0.0146708013230481,0.0570090683672118,0.0032500338760974,0.058866512446023,0.0307348591357849,0.390625,2.153658886530335,Quieto,S03
0.0035934647325995,0.0006965997528241,4.852512156346193e-07,0.0036603606379797,0.0035934647325995,0.390625,2.6600008974710616,0.0004224596264311,0.0005707449672709,3.2574981766513706e-07,0.000710085877644,0.0005170002298424,0.78125,2.1196071130730285,0.9937758309521952,0.0006727355207637,4.5257308089731937e-07,0.9937760586559766,0.9937758309521952,5.078125,2.9408398790459422,0.1805129589831991,0.1780131115839426,0.0316886678957972,0.2535223782167313,0.202764402375024,0.78125,1.293336242340045,-0.0216299848162799,0.1111563903217042,0.012355743109351,0.1132413323504433,0.0876339239285303,0.390625,2.372086646118858,-0.0408337190570413,0.0753645903445708,0.0056798214778049,0.0857158916994647,0.0598218681305293,0.78125,1.959590844110846,Quieto,S03
0.0051736963913787,0.0015600514444889,2.4337605094521e-06,0.0054037852344091,0.0051736963913787,0.390625,1.4568365621732926,0.0009142519826338,0.0007593692376248,5.766416390508992e-07,0.00118848572848,0.0009357855027936,0.78125,2.906272782200165,0.993823601338954,0.0006492938862961,4.215825507815469e-07,0.9938238134402289,0.993823601338954,1.953125,2.9502413139707544,0.1915636489180827,0.1722622089232127,0.0296742686231046,0.2576255038033211,0.2133940163012861,0.78125,1.5923744927146073,-0.0930890945751283,0.1369892996584336,0.0187660682209081,0.1656250215086032,0.1319246357280177,0.390625,1.9281169512474683,-0.0519281541529279,0.0592622975758895,0.0035120199139732,0.0787943723098518,0.059172709240193,0.390625,1.9208401405983049,Quieto,S03
0.0070566839210558,0.0010556440979078,1.1143844614476016e-06,0.0071352065438314,0.0070566839210558,0.390625,2.530345708627912,0.002327497363679,0.001395403395938,1.9471506373954324e-06,0.0027137418107344,0.0023346944167629,0.390625,1.4954736587682051,0.9938362752766206,0.0007377959750106,5.443429007419543e-07,0.9938365491360274,0.9938362752766206,0.78125,3.1224383756355,0.2394888566798322,0.1361386365628939,0.0185337283652037,0.275478929936605,0.24442307915201,0.390625,1.8436398815487665,-0.0002590972832435,0.276057921171106,0.0762079758413126,0.2760580427604217,0.2199778845489665,0.78125,1.6974891758982489,-0.0131810038927945,0.098514099435839,0.0097050277876543,0.0993919848442329,0.0702449955846102,0.78125,2.255409746564521,Quieto,S03
0.0064263378289662,0.0014326682090911,2.052538197340537e-06,0.0065840987302244,0.0064263378289662,0.390625,1.5408914524334896,0.0037787160406896,0.0007816549484953,6.10984458507216e-07,0.0038587147309268,0.0037787160406896,3.90625,2.6812533631348185,0.9936909778233336,0.0007502610786621,5.628916861553517e-07,0.9936912610560582,0.9936909778233336,3.90625,2.6179160526884235,0.1914667824450606,0.1170714085624687,0.0137057147028004,0.2244220209397123,0.1965542294974244,0.78125,2.382430733931927,0.1149728191050442,0.2540921773774183,0.0645628346043974,0.2788934989155513,0.2171570241648676,0.390625,1.5621546403007966,0.0139253995595104,0.0919651532961118,0.0084575894207773,0.0930134730760515,0.0567233202671883,0.78125,1.902226454500249,Quieto,S03
0.0050933312328536,0.000614603380538,3.7773731536880476e-07,0.0051302787802351,0.0050933312328536,7.421875,3.030450427889069,0.0044708497948843,0.000609373733552,3.713363471431411e-07,0.004512187300585,0.0044708497948843,0.390625,2.416403902057378,0.9936705597643964,0.0005863814669094,3.43843224734906e-07,0.9936707327810926,0.9936705597643964,5.859375,2.9942504542681,0.1219144743709222,0.1021946875731935,0.0104437541681826,0.1590814044108264,0.1292258059556628,0.390625,2.494804894393606,0.1163751587128973,0.121262717239784,0.0147046465923758,0.1680708902749904,0.1253659827864722,0.390625,2.2829582708170544,0.0033299324767053,0.0317314974238266,0.0010068879287583,0.0319057421016615,0.0162354982657503,4.6875,2.9071275744240026,Quieto,S03
0.0050578821104838,0.0006368488048937,4.055764002945839e-07,0.0050978179492648,0.0050578821104838,0.390625,3.009745819292464,0.0041481222238173,0.0008941017179604,7.994178820598513e-07,0.0042433873103674,0.0041481222238173,0.390625,2.163661688366436,0.9936186292566752,0.0007079726474353,5.012252695165821e-07,0.9936188814788012,0.9936186292566752,4.296875,3.011460332709537,0.0360752441449187,0.0958226427493478,0.0091819788634691,0.1023884861866051,0.0740655309859433,0.390625,2.061537120087447,-0.0080948921945707,0.1511778916229899,0.0228547549155724,0.1513944589316735,0.1178855074534839,0.390625,2.1753260364323075,-0.0079927563886177,0.0510762722090689,0.0026087855827749,0.0516978697574928,0.0339480989918175,0.390625,2.2259856452442444,Quieto,S03
0.0002792293929613,0.0002564123871304,6.574731227391348e-08,0.0003790994146229,0.0002921373184188,8.59375,3.0984087819495527,-0.0016164497926018,0.0003400816621453,1.1565553692757354e-07,0.0016518369982931,0.0016164497926018,0.390625,2.7287896827960534,0.9964637251070202,0.0003370914506276,1.1363064608625943e-07,0.9964637821239692,0.9964637251070202,2.34375,3.001401530963528,0.0273976242350996,0.0383713622112115,0.0014723614379439,0.047148608162614,0.0336767376882297,0.78125,1.7773000036234907,0.0659905039526455,0.0598512801618063,0.003582175737007,0.0890894064910703,0.0729285097418493,0.390625,2.263288664123456,0.0216006295258691,0.0213553918314299,0.0004560527602739,0.0303749889907429,0.0219478121368707,1.171875,2.2853961330448755,Quieto,S04
0.0003719194494256,0.0002951704280074,8.712558157009855e-08,0.0004748153940545,0.0003788024943793,1.5625,3.0774362635912595,-0.001744621856771,0.0003823297036845,1.4617600231953752e-07,0.0017860239151373,0.001744621856771,0.390625,2.630181960266536,0.9964573498643772,0.0003748350585777,1.4050132113894826e-07,0.9964574203647936,0.9964573498643772,1.5625,2.7677643253553548,0.0209731803948183,0.0480404415050135,0.0023078840199966,0.0524190644314663,0.0397626000580139,1.953125,2.205270503891396,0.0576601616733842,0.0665265748307201,0.0044257851587074,0.0880368070917398,0.071228366954266,1.171875,2.091999754577248,0.0139624828258292,0.0300665211887461,0.0009039956963933,0.0331503638449851,0.0252917198760426,0.390625,2.5529126890532523,Quieto,S04
0.0006379457509095,0.0003725017750718,1.387575724317093e-07,0.0007387369988942,0.0006433492360354,0.390625,2.76968287520412,-0.0022950837958739,0.0006148909968692,3.780909380308165e-07,0.0023760262136841,0.0022950837958739,0.390625,2.0165365839454603,0.9964108972055524,0.0003526158036092,1.2433790495500006e-07,0.9964109595984374,0.9964108972055524,1.171875,3.002592658738323,-0.0096409958971644,0.0422954202063429,0.0017889025704311,0.0433803108831675,0.0284133001061097,0.390625,2.7652515089283463,0.0877244244872681,0.1201441641544702,0.0144346201803762,0.1487622090182809,0.09519679264319,0.390625,1.9113186762655792,0.0083395980097065,0.0281365577817248,0.0007916658838043,0.0293464610944461,0.0211449113105103,1.171875,2.210241913533406,Quieto,S04
-0.0002536651898489,0.0012250844011041,1.5008317898287928e-06,0.0012510706688152,0.0010372803548276,0.390625,1.9192770238217172,-0.0030646831288158,0.0005946728212271,3.536357643062133e-07,0.0031218453588149,0.0030646831288158,1.171875,2.781711280832246,0.9964758867189416,0.0005207874940176,2.7121961392513334e-07,0.9964760228083336,0.9964758867189416,3.515625,2.682371636266512,0.0344227780302396,0.0935945766294758,0.0087599447744508,0.0997239811768962,0.0704553553334779,1.171875,1.8209182945660132,0.2152272996271442,0.2317278333692533,0.0536977887580084,0.3162603030144645,0.2287352250250258,0.78125,2.0269262531940666,0.0035141965127401,0.0744793377031143,0.0055471717446945,0.074562197672981,0.0498146910540422,0.390625,2.2149740493643213,Quieto,S04
-0.0010442178410065,0.0008354841130944,6.980337032331728e-07,0.0013373199328169,0.0010771682558738,0.390625,2.838108110424816,-0.002976788764135,0.0007210991127176,5.19983930362163e-07,0.0030628834905433,0.002976788764135,0.78125,2.635035726947314,0.9964337012634198,0.0005600868764598,3.136973091825216e-07,0.996433858673433,0.9964337012634198,3.515625,2.924550907872776,0.1246816028172443,0.1289489559000429,0.0166278332277112,0.1793692708040825,0.1365938318524443,0.78125,1.6595646895343037,0.1270955454700944,0.2752652727582053,0.0757709703866491,0.303190118679666,0.213045414407477,1.171875,2.545885372498601,0.0301948124153887,0.0912398576155977,0.0083247116177145,0.0961063906018484,0.0769177731717158,1.171875,1.809300468678268,Quieto,S04
-0.0003517562978181,0.0007279973116963,5.299800858371069e-07,0.0008085249401792,0.000559042366359,0.390625,2.1908075079934486,-0.0018590804419929,0.0009505482835441,9.035420393487996e-07,0.0020879947627207,0.0018590804419929,0.390625,1.3825077590901893,0.99632619167345,0.0004098884610178,1.6800855047554162e-07,0.9963262759874753,0.99632619167345,5.078125,2.9552794754906397,0.0888060693141261,0.1455068690772086,0.0211722489486519,0.1704663218811191,0.1252791704590761,0.390625,1.6572152621703395,0.0217881919219135,0.1375364857351841,0.0189162849083845,0.1392516075871681,0.1010552100909507,0.390625,2.0728412593179937,0.0442847369287225,0.0523856958730267,0.0027442611321012,0.0685959113719426,0.0481179137288494,0.390625,1.8871316397838749,Quieto,S04
5.365769292661918e-05,0.0003466326444876,1.2015419022447152e-07,0.0003507610842648,0.0002551900727968,1.171875,3.187049378393808,-0.0013945976999182,0.0006643036658554,4.412993604689956e-07,0.0015447336680108,0.0013945976999182,0.390625,1.9335724814936497,0.996426286222085,0.0004771319485047,2.2765489628395726e-07,0.9964264004577724,0.996426286222085,0.390625,2.947268115318673,0.0554079421455901,0.1105096084864551,0.0122123735678295,0.1236220596036106,0.1055596456361789,0.390625,1.5663496494321425,0.0955456267062008,0.0958028087142195,0.0091781781575333,0.1353038984664301,0.1050163161949231,1.171875,2.040687592833131,0.0603156426381642,0.0601300498359306,0.0036156228932715,0.0851680670211919,0.0620400628482081,0.390625,1.2942699695395388,Quieto,S04
-0.0003824553105974,0.0006643591020917,4.413730165321713e-07,0.0007665801204938,0.0005181967770347,0.390625,2.763911349823872,-0.0011858213156665,0.0007885446773637,6.218027081986551e-07,0.0014240698370824,0.0011915448675993,8.203125,2.8933942963935806,0.9965228101093802,0.0005847489329627,3.419313146010641e-07,0.9965229816715772,0.9965228101093802,8.203125,2.8353018969185864,0.1042444523576228,0.0858999295656823,0.0073787978993891,0.1350766587783762,0.1185857450375914,0.78125,2.4667488233962294,0.138886827739159,0.0913187736098798,0.0083391184136124,0.1662187394160457,0.141866071256971,0.390625,2.365768665156616,0.0760232031113713,0.0531958967050673,0.0028298034262561,0.0927864798209794,0.0761730005908496,0.390625,1.5367740130330156,Quieto,S04
-0.000682899091264,0.0008069008598849,6.510889976830274e-07,0.0010570904249553,0.0008771275364915,3.90625,2.8134925089361924,-0.0004521727326007,0.0005483955918325,3.007377251413651e-07,0.0007107727521852,0.0004634008681422,0.390625,2.8712560373548803,0.9965798037297824,0.0006444351308625,4.152966378898789e-07,0.9965800120907152,0.9965798037297824,8.203125,2.922954274080945,0.0825129093827059,0.0607825315058166,0.0036945161362555,0.1024836394311513,0.0831187718998532,0.390625,2.4293375382722777,0.0741968468241577,0.2446021329807914,0.0598302034587527,0.2556078549994118,0.1863577364892023,0.390625,2.1768229579602494,0.0352347137134213,0.0995546296238442,0.0099111242795408,0.1056059152226217,0.0724376425655842,0.78125,1.9433312293739315,Quieto,S04
-0.0007354721417415,0.0007417720211287,5.502257313294085e-07,0.0010445788637567,0.0009311341523919,0.78125,2.575866495931092,-0.0001308624726923,0.0002221148308127,4.933499806697231e-08,0.0002577983413952,0.0001412711167903,2.34375,3.1570250143349683,0.9965908155281716,0.0005613646865525,3.151303113082702e-07,0.996590973632321,0.9965908155281716,4.6875,2.8380616800923746,0.0711672885849371,0.0443015427248018,0.0019626266877974,0.0838296466193742,0.0717731511020844,0.78125,2.2105661299842367,0.0508346086805334,0.2548803124957373,0.0649639736979247,0.2599002330465051,0.1704484214014718,0.78125,1.9315621417084208,0.033629975364495,0.1123657875506219,0.0126260702118715,0.1172904320688096,0.0848117624059897,0.78125,1.607766890651683,Quieto,S04
-0.0008609874158218,0.0004600494642634,2.1164550956909325e-07,0.0009761889365141,0.0008794335747217,0.78125,2.8657005124057093,-7.996841750179639e-07,0.0001422103742497,2.022379054426465e-08,0.0001422126226431,8.02218418997324e-05,1.171875,3.0065800293964244,0.9964302215748512,0.000465561770074,2.1674776175450414e-07,0.9964303303369828,0.9964302215748512,1.953125,2.7519409297428576,0.0574674277129541,0.0526543911900515,0.0027724849115949,0.0779422232139845,0.0594622537841387,0.390625,2.4346176234299475,0.1062727258600935,0.1541894668381042,0.0237743916838188,0.1872652769350299,0.1346395283416856,0.78125,2.095991454880489,0.0288750194033888,0.0630326637244566,0.0039731166962004,0.0693316914675137,0.0448576188913329,0.390625,1.6773992632135146,Quieto,S04
-0.0006028305886469,0.0004906402281429,2.40727833472168e-07,0.0007772596426424,0.0006245354519118,0.390625,2.376276896888688,-0.0002366532130424,0.0004177514719184,1.7451629229005248e-07,0.0004801260621267,0.000315243743369,0.390625,2.2656095073976075,0.9963959081846154,0.000402663251462,1.6213769407795672e-07,0.9963959895466956,0.9963959081846154,1.5625,2.9098267798994515,-0.0126096941831579,0.0555778487686939,0.0030888972737558,0.0569903646342834,0.0432964689219201,0.390625,1.742860002388592,0.0595003369475823,0.1164465315546232,0.0135597947111018,0.1307672925772254,0.0824433322937525,0.390625,1.9610044011508088,0.0070854273789723,0.0184192601634719,0.0003392691449696,0.0197350557666391,0.0126393127062925,4.296875,2.690267645562662,Quieto,S04
0.000140141622604,0.0007037156146305,4.952156662747847e-07,0.0007175342087042,0.0005723643615813,0.390625,2.5749717267338244,-0.0007922686177416,0.0004885655015321,2.386962492873296e-07,0.0009307984808462,0.0007963410508327,0.390625,2.6251288223800504,0.9964540339472724,0.0003586996890112,1.286654668967354e-07,0.9964540985089372,0.9964540339472724,0.78125,3.018634381288666,-0.0007696827444358,0.0818483636328465,0.0066991546293746,0.0818519825105156,0.0663219604044764,1.171875,2.0867816405540007,-0.0094264571691286,0.1075434914012364,0.0115656025427678,0.1079558272513774,0.067722048670492,0.390625,2.1062835877847315,0.0074377414748536,0.06134575381213,0.0037633015107784,0.0617949958251088,0.0417314114070815,0.78125,2.073842249105778,Quieto,S04
0.0005193550652457,0.0004632441681562,2.1459515933077867e-07,0.0006959345106597,0.0005852105386507,0.390625,2.8050319309648053,-0.0009493504495469,0.0004426210742417,1.9591341536292885e-07,0.0010474634558865,0.0009493504495469,0.390625,2.870554834190407,0.99640846661837,0.0003817394478437,1.457250060400648e-07,0.9964085397435016,0.99640846661837,2.734375,3.0405450012562776,0.0388735178628879,0.0782698286234831,0.0061261660727494,0.0873917413934846,0.067156171831041,0.390625,2.005903535163362,0.0393864868729092,0.1388900073870492,0.0192904341519745,0.1443666495426296,0.1143046811541175,0.390625,1.8857728585060909,0.0157327159502441,0.0660602867007521,0.0043639614789855,0.0679078775265185,0.0505069417061633,0.390625,1.6377874607954008,Quieto,S04
0.0003437364594014,0.0002883248243377,8.313120432939825e-08,0.0004486490363872,0.0003693178666619,2.734375,3.1733518709368846,-0.0011900894690675,0.0005593325162172,3.1285286369792255e-07,0.0013149774933752,0.0011900894690675,1.953125,2.693158139287944,0.9963873803759384,0.0003608541558783,1.302157218147021e-07,0.99638744571986,0.9963873803759384,2.34375,2.900680590202258,0.0090778356852963,0.0608553938991021,0.0037033789666148,0.0615287417988058,0.0417481545208674,0.78125,2.335555670002585,0.1068833141190004,0.0649819913393422,0.0042226591984263,0.1250867780202498,0.1068919834259112,0.390625,2.7544875016871218,0.0293869229207466,0.0350578689087325,0.0012290541724218,0.0457454414250402,0.033776182575245,0.390625,2.0785922599127296,Quieto,S04
7.951490057958623e-05,0.0003103998894885,9.634809139453264e-08,0.0003204227064499,0.0002370620398492,0.390625,2.608006375377064,-0.0017072038888113,0.000497475271526,2.474816457799168e-07,0.0017782088639281,0.0017072038888113,0.390625,2.902904145067993,0.996464204156048,0.0003567243578326,1.272522674711492e-07,0.996464268007947,0.996464204156048,2.734375,2.8117995864905616,0.0503293703055025,0.0798916496652968,0.0063826756862425,0.0944230967591665,0.0679307770468719,0.390625,1.6198481364046255,0.1137504087530636,0.0477358807820096,0.0022787143140342,0.1233607304028445,0.1137590780599745,1.953125,2.817313055921042,0.0228265471947926,0.034926741271871,0.0012198772558722,0.0417244354390604,0.0313865754324862,0.390625,1.9986481280445736,Quieto,S04
-0.0003861057728912,0.0003998708216108,1.5989667397570006e-07,0.0005558546049423,0.000401473437554,5.46875,2.5780783300747587,-0.0012286264843397,0.0007926101064557,6.282307808558053e-07,0.0014621059533689,0.0012305096358305,0.390625,1.6919485384851942,0.9964750163119416,0.0003399535442162,1.1556841222522077e-07,0.996475074300555,0.9964750163119416,0.390625,3.075308900679393,0.109985348581758,0.0632874215378593,0.0040052977249107,0.1268939503190027,0.1100187843406905,1.171875,2.3710066421828517,0.1286917716645874,0.0498744870861721,0.0024874644621087,0.1380182471859394,0.1286917716645874,1.171875,2.532501944583632,0.0240728613479914,0.0414047116821109,0.0017143501494787,0.0478941833937938,0.0325771460611796,0.390625,1.7075062587096637,Quieto,S04
-0.0009182732135414,0.0004797193505997,2.301306553398111e-07,0.0010360291260613,0.0009198583021193,0.390625,2.6989596704788203,-0.0003686780896083,0.0004046528196751,1.63743904471089e-07,0.0005474188873507,0.0003827038409656,1.171875,2.921949768289692,0.996427340043759,0.0003191439305653,1.0185284841673254e-07,0.996427391152777,0.996427340043759,0.78125,2.968075048520112,0.0966665597875395,0.0717045690413396,0.0051415452214042,0.1203576711413202,0.0973492098265966,0.78125,1.389939574956592,0.1031415745434988,0.0723347340112653,0.0052323137444805,0.1259781653453988,0.1062584708755796,1.953125,2.419087557033782,0.0233927210139644,0.0466561489151531,0.0021767962315929,0.0521921031194387,0.0343276013906312,1.5625,2.6670517412032755,Quieto,S04
-0.001000727947646,0.000712304550336,5.073777724294756e-07,0.0012283461228942,0.0010235579100332,1.171875,2.424200450730903,-0.0001569878090239,0.0003182549539633,1.0128621572223181e-07,0.0003548681274845,0.000201654514482,0.0,2.833763038724125,0.9964669583985124,0.0003666913932834,1.3446257790814034e-07,0.9964670258681724,0.9964669583985124,7.03125,3.02211694506789,0.0781556537276442,0.0909782075471763,0.008277034248497,0.1199389030218824,0.0856924940604418,0.78125,2.340887930181743,0.0246578169653345,0.1767158517208178,0.031228492249414,0.1784278570933082,0.1395137263126291,1.171875,1.7042650734514644,0.018564356952993,0.0941286932711291,0.0088602108969303,0.0959418899439053,0.0614395134941819,0.78125,1.651689650828453,Quieto,S04
-0.0005933332120406,0.0008462026975041,7.160590052633348e-07,0.0010334908348765,0.0007696592744395,1.5625,2.744901965197408,-0.0001174490992894,0.000567941508337,3.225575568921961e-07,0.000579958488011,0.0003450692600891,1.953125,2.357106536683354,0.9964376224269368,0.0005503007677128,3.028309349453391e-07,0.9964377743837202,0.9964376224269368,1.953125,2.563934540383054,0.0170067197164815,0.1845532966157672,0.0340599192917473,0.1853352308851782,0.1212957933144759,1.5625,1.9204189093092856,0.0431803573517046,0.2168746939674444,0.0470346328834726,0.2211315810654226,0.1799782037371856,1.5625,2.1682638624732773,0.0236001010196226,0.0921645100323491,0.0084942969095029,0.0951381189515505,0.0652119814949527,1.953125,2.252454989205943,Quieto,S04
-0.0004024035160425,0.0006010676385015,3.6128230605377793e-07,0.0007233331844849,0.0005677092337359,3.125,2.811674895237428,-0.000464943403355,0.0007420539813605,5.506441112530184e-07,0.0008756805807921,0.0006611095613428,3.125,2.924473995665798,0.9964145051694796,0.0005394305391711,2.909853065904774e-07,0.9964146511856626,0.9964145051694796,1.953125,3.0247843339341203,-0.028242458470764,0.1728835262113163,0.0298887136352589,0.1751751982894032,0.1134816231788315,0.78125,2.080536347904133,0.0969887021963063,0.1442244380494134,0.020800688530669,0.1738030404923714,0.1323153086030726,0.390625,2.3571906039938875,0.015272071694819,0.0469276677731539,0.0022022060026275,0.0493501993560228,0.0349428341916302,1.171875,1.9012390531910288,Quieto,S04
-0.0003492229568673,0.0003517950275868,1.2375974143485306e-07,0.0004956979070341,0.0003709287183544,1.171875,2.9359704021047355,-0.0012498614824369,0.0006204169656683,3.849172112891436e-07,0.0013953748372995,0.0012509315852165,0.390625,2.3278358241808945,0.9964784785482363,0.0003709413790421,1.3759750668567216e-07,0.99647854759012,0.9964784785482363,3.90625,3.056335892064412,0.0029642304810316,0.0696400985789055,0.0048497433300796,0.0697031562586971,0.0495183679271806,0.390625,1.8793797635855325,0.0522325442994399,0.0750848520438141,0.0056377350064414,0.0914656967963095,0.0671987269700012,1.171875,1.952508496277087,0.0260790380019698,0.0442317468470234,0.0019564474291391,0.0513474795121178,0.0373077640534355,1.171875,1.904237322182169,Quieto,S04
-0.0107561326162762,0.0003539739848818,1.252975819731519e-07,0.0107619555119362,0.0107561326162762,0.390625,3.020916609782763,-0.0242188809568685,0.0003527897995939,1.2446064269755732e-07,0.0242214503167268,0.0242188809568685,1.171875,2.8453396602916063,0.9966555245819886,0.0003121586369559,9.744301462621944e-08,0.9966555734669892,0.9966555245819886,3.125,3.159021245641197,0.010264774588984,0.0240142111527844,0.0005766823372905,0.026116047454643,0.0163715598557667,1.171875,2.39688062093647,0.0460102994307426,0.053840882163679,0.0028988405921631,0.070822229884901,0.0546811615964985,1.171875,2.1869045670992007,0.0279776902086332,0.0399060350185412,0.001592491630901,0.0487364625338287,0.0402371668395935,1.171875,2.0151486483166634,Quieto,S04
-0.0103670221314755,0.000478774989897,2.2922549095096547e-07,0.0103780717556516,0.0103670221314755,0.390625,2.806570523684114,-0.0246900321379864,0.0004877893061244,2.3793840716937966e-07,0.0246948501793789,0.0246900321379864,0.390625,2.8779601289170107,0.9966685444154662,0.0003116527719476,9.712745026267476e-08,0.9966685931415188,0.9966685444154662,1.5625,2.956534783374171,0.0025661327545971,0.0184147383070766,0.0003391025869181,0.0185926766290476,0.011513126287595,1.5625,2.5323962613464643,0.0350696105305727,0.0465178797234695,0.0021639131339671,0.0582562504520608,0.0403905091801286,1.171875,2.441997195913649,0.0183867316707165,0.039506766199487,0.0015607845755409,0.0435758703535782,0.033135772700588,0.78125,2.374425030031362,Quieto,S04
-0.0099681615181135,0.0003557947195299,1.2658988244541372e-07,0.0099745092076575,0.0099681615181135,0.390625,2.8499701678367275,-0.025179215694892,0.0004037681867195,1.6302874860677765e-07,0.0251824528542892,0.025179215694892,0.390625,2.98482306742556,0.9966113591096932,0.0002988057780303,8.928489298429532e-08,0.9966114039039304,0.9966113591096932,1.171875,2.7332471816482187,0.0211911556263159,0.0278961926056452,0.0007781975618912,0.0350323084975854,0.0259247514656699,0.390625,2.1279340199473262,0.0421198397161571,0.0407627347096888,0.0016616005410124,0.0586146862034357,0.0433738662954592,0.390625,2.586453431171947,0.0081112466326524,0.0191025678523754,0.0003649080985546,0.0207533231192096,0.0145577709885688,1.171875,2.2122727745238264,Quieto,S04
