Time,Device name,Chip Time(),Acceleration X(g),Acceleration Y(g),Acceleration Z(g),Angular velocity X(°/s),Angular velocity Y(°/s),Angular velocity Z(°/s),ShiftX(mm),ShiftY(mm),ShiftZ(mm),SpeedX(mm/s),SpeedY(mm/s),SpeedZ(mm/s),Angle X(°),Angle Y(°),Angle Z(°)
 09:36:57.134,eb:33:2e:f9:57:b5, 2015-01-01 00:25:34.090,0.003,-0.007,0.994,0.244,-0.061,0, , , , , , ,-0.439,-0.264,-108.358
 09:36:57.135,eb:33:2e:f9:57:b5, 2015-01-01 00:25:34.090,0.003,-0.008,0.995,0.244,-0.061,0, , , , , , ,-0.439,-0.264,-108.358
 09:36:57.135,eb:33:2e:f9:57:b5, 2015-01-01 00:25:34.090,0.004,-0.008,0.994,0.244,-0.061,0, , , , , , ,-0.439,-0.264,-108.358
 09:36:57.135,eb:33:2e:f9:57:b5, 2015-01-01 00:25:34.090,0.003,-0.007,0.994,0.244,0,0, , , , , , ,-0.439,-0.264,-108.358
 09:36:57.135,eb:33:2e:f9:57:b5, 2015-01-01 00:25:34.090,0.002,-0.007,0.995,0.305,0,0, , , , , , ,-0.439,-0.264,-108.358
 09:36:57.135,eb:33:2e:f9:57:b5, 2015-01-01 00:25:34.090,0.001,-0.008,0.994,0.305,0,0, , , , , , ,-0.439,-0.264,-108.358
 09:36:57.135,eb:33:2e:f9:57:b5, 2015-01-01 00:25:34.090,0.003,-0.007,0.994,0.366,-0.061,0, , , , , , ,-0.439,-0.264,-108.358
 09:36:57.135,eb:33:2e:f9:57:b5, 2015-01-01 00:25:34.090,0.002,-0.007,0.995,0.305,0,0, , , , , , ,-0.439,-0.264,-108.358
 09:36:57.181,eb:33:2e:f9:57:b5, 2015-01-01 00:25:34.090,0.002,-0.006,0.994,0.366,0,0.061, , , , , , ,-0.439,-0.264,-108.358
 09:36:57.181,eb:33:2e:f9:57:b5, 2015-01-01 00:25:34.090,0.002,-0.005,0.994,0.366,0,0, , , , , , ,-0.439,-0.264,-108.358
 09:36:57.181,eb:33:2e:f9:57:b5, 2015-01-01 00:25:34.090,0.002,-0.005,0.994,0.366,0,0, , , , , , ,-0.439,-0.264,-108.358
 09:36:57.181,eb:33:2e:f9:57:b5, 2015-01-01 00:25:34.090,0.003,-0.006,0.994,0.427,0,0, , , , , , ,-0.439,-0.264,-108.358
 09:36:57.181,eb:33:2e:f9:57:b5, 2015-01-01 00:25:34.090,0.003,-0.006,0.994,0.305,0,0, , , , , , ,-0.439,-0.264,-108.358
 09:36:57.181,eb:33:2e:f9:57:b5, 2015-01-01 00:25:34.090,0.003,-0.005,0.994,0.305,0,0, , , , , , ,-0.439,-0.264,-108.358
 09:36:57.181,eb:33:2e:f9:57:b5, 2015-01-01 00:25:34.090,0.003,-0.007,0.993,0.305,0,0, , , , , , ,-0.439,-0.264,-108.358
 09:36:57.181,eb:33:2e:f9:57:b5, 2015-01-01 00:25:34.090,0.003,-0.006,0.993,0.305,0,0, , , , , , ,-0.439,-0.264,-108.358
 09:36:57.202,eb:33:2e:f9:57:b5, 2015-01-01 00:25:34.090,0.001,-0.004,0.993,0.305,0,-0.061, , , , , , ,-0.434,-0.264,-108.358
 09:36:57.202,eb:33:2e:f9:57:b5, 2015-01-01 00:25:34.090,0.002,-0.005,0.992,0.244,-0.061,-0.061, , , , , , ,-0.434,-0.264,-108.358
 09:36:57.202,eb:33:2e:f9:57:b5, 2015-01-01 00:25:34.090,0.004,-0.006,0.992,0.183,-0.061,-0.122, , , , , , ,-0.434,-0.264,-108.358
 09:36:57.202,eb:33:2e:f9:57:b5, 2015-01-01 00:25:34.090,0.004,-0.006,0.994,0.183,0,-0.061, , , , , , ,-0.434,-0.264,-108.358
 09:36:57.202,eb:33:2e:f9:57:b5, 2015-01-01 00:25:34.090,0.003,-0.006,0.994,0.183,0,-0.061, , , , , , ,-0.434,-0.264,-108.358
 09:36:57.202,eb:33:2e:f9:57:b5, 2015-01-01 00:25:34.090,0.001,-0.005,0.993,0.183,0,-0.122, , , , , , ,-0.434,-0.264,-108.358
 09:36:57.204,eb:33:2e:f9:57:b5, 2015-01-01 00:25:34.090,0.002,-0.005,0.992,0.183,0,-0.061, , , , , , ,-0.434,-0.264,-108.358
 09:36:57.204,eb:33:2e:f9:57:b5, 2015-01-01 00:25:34.090,0.002,-0.006,0.993,0.122,0,-0.122, , , , , , ,-0.434,-0.264,-108.358
 09:36:57.270,eb:33:2e:f9:57:b5, 2015-01-01 00:25:34.090,0.005,-0.008,0.994,0.183,-0.061,-0.122, , , , , , ,-0.434,-0.258,-108.358
 09:36:57.270,eb:33:2e:f9:57:b5, 2015-01-01 00:25:34.090,0.004,-0.007,0.996,0.244,0,-0.061, , , , , , ,-0.434,-0.258,-108.358
 09:36:57.270,eb:33:2e:f9:57:b5, 2015-01-01 00:25:34.090,0.003,-0.006,0.995,0.244,0,-0.061, , , , , , ,-0.434,-0.258,-108.358
 09:36:57.270,eb:33:2e:f9:57:b5, 2015-01-01 00:25:34.090,0.002,-0.006,0.994,0.244,0,-0.061, , , , , , ,-0.434,-0.258,-108.358
 09:36:57.270,eb:33:2e:f9:57:b5, 2015-01-01 00:25:34.090,0.002,-0.006,0.994,0.244,0.061,0, , , , , , ,-0.434,-0.258,-108.358
 09:36:57.270,eb:33:2e:f9:57:b5, 2015-01-01 00:25:34.090,0.002,-0.007,0.994,0.244,0.061,0, , , , , , ,-0.434,-0.258,-108.358
 09:36:57.270,eb:33:2e:f9:57:b5, 2015-01-01 00:25:34.090,0.003,-0.007,0.994,0.244,0.061,-0.061, , , , , , ,-0.434,-0.258,-108.358
 09:36:57.270,eb:33:2e:f9:57:b5, 2015-01-01 00:25:34.090,0.002,-0.007,0.995,0.305,0.061,-0.061, , , , , , ,-0.434,-0.258,-108.358
 09:36:57.294,eb:33:2e:f9:57:b5, 2015-01-01 00:25:34.090,0.001,-0.007,0.993,0.305,0.061,0, , , , , , ,-0.434,-0.258,-108.358
 09:36:57.294,eb:33:2e:f9:57:b5, 2015-01-01 00:25:34.090,0.001,-0.007,0.993,0.244,0,0, , , , , , ,-0.434,-0.258,-108.358
 09:36:57.294,eb:33:2e:f9:57:b5, 2015-01-01 00:25:34.090,0.002,-0.007,0.992,0.305,-0.061,0, , , , , , ,-0.434,-0.258,-108.358
 09:36:57.294,eb:33:2e:f9:57:b5, 2015-01-01 00:25:34.090,0.001,-0.006,0.993,0.305,-0.122,0, , , , , , ,-0.434,-0.258,-108.358
 09:36:57.294,eb:33:2e:f9:57:b5, 2015-01-01 00:25:34.090,0.002,-0.006,0.992,0.305,-0.122,0, , , , , , ,-0.434,-0.258,-108.358
 09:36:57.294,eb:33:2e:f9:57:b5, 2015-01-01 00:25:34.090,0.002,-0.006,0.993,0.244,-0.122,0, , , , , , ,-0.434,-0.258,-108.358
 09:36:57.294,eb:33:2e:f9:57:b5, 2015-01-01 00:25:34.090,0.002,-0.006,0.992,0.244,-0.183,0, , , , , , ,-0.434,-0.258,-108.358
 09:36:57.294,eb:33:2e:f9:57:b5, 2015-01-01 00:25:34.090,0.004,-0.007,0.994,0.244,-0.122,0, , , , , , ,-0.434,-0.258,-108.358
 09:36:57.339,eb:33:2e:f9:57:b5, 2015-01-01 00:25:34.090,0.002,-0.007,0.995,0.244,-0.122,0, , , , , , ,-0.434,-0.258,-108.358
 09:36:57.339,eb:33:2e:f9:57:b5, 2015-01-01 00:25:34.090,0.002,-0.007,0.995,0.305,-0.122,0.061, , , , , , ,-0.434,-0.258,-108.358
 09:36:57.339,eb:33:2e:f9:57:b5, 2015-01-01 00:25:34.090,0.004,-0.008,0.995,0.305,-0.061,0.061, , , , , , ,-0.434,-0.258,-108.358
 09:36:57.339,eb:33:2e:f9:57:b5, 2015-01-01 00:25:34.090,0.003,-0.005,0.995,0.366,0,0.061, , , , , , ,-0.434,-0.258,-108.358
 09:36:57.339,eb:33:2e:f9:57:b5, 2015-01-01 00:25:34.090,0.003,-0.005,0.994,0.305,0,0.061, , , , , , ,-0.434,-0.258,-108.358
 09:36:57.339,eb:33:2e:f9:57:b5, 2015-01-01 00:25:34.090,0.001,-0.004,0.993,0.244,0,0, , , , , , ,-0.434,-0.258,-108.358
 09:36:57.339,eb:33:2e:f9:57:b5, 2015-01-01 00:25:34.090,0.002,-0.005,0.991,0.244,-0.061,0, , , , , , ,-0.434,-0.258,-108.358
 09:36:57.339,eb:33:2e:f9:57:b5, 2015-01-01 00:25:34.090,0.002,-0.005,0.991,0.244,-0.122,0, , , , , , ,-0.434,-0.258,-108.358
 09:36:57.383,eb:33:2e:f9:57:b5, 2015-01-01 00:25:34.090,0.004,-0.006,0.992,0.183,-0.183,0, , , , , , ,-0.434,-0.258,-108.358
 09:36:57.383,eb:33:2e:f9:57:b5, 2015-01-01 00:25:34.090,0.004,-0.006,0.994,0.183,-0.122,0, , , , , , ,-0.434,-0.258,-108.358
 09:36:57.383,eb:33:2e:f9:57:b5, 2015-01-01 00:25:34.090,0.002,-0.005,0.994,0.183,-0.061,0, , , , , , ,-0.434,-0.258,-108.358
 09:36:57.383,eb:33:2e:f9:57:b5, 2015-01-01 00:25:34.090,0.002,-0.005,0.993,0.244,-0.122,0, , , , , , ,-0.434,-0.258,-108.358
 09:36:57.383,eb:33:2e:f9:57:b5, 2015-01-01 00:25:34.090,0.002,-0.005,0.993,0.244,-0.122,0, , , , , , ,-0.434,-0.258,-108.358
 09:36:57.383,eb:33:2e:f9:57:b5, 2015-01-01 00:25:34.090,0.003,-0.006,0.994,0.244,-0.122,0, , , , , , ,-0.434,-0.258,-108.358
 09:36:57.383,eb:33:2e:f9:57:b5, 2015-01-01 00:25:34.090,0.003,-0.006,0.994,0.183,-0.183,0, , , , , , ,-0.434,-0.258,-108.358
 09:36:57.383,eb:33:2e:f9:57:b5, 2015-01-01 00:25:34.090,0.003,-0.006,0.994,0.244,-0.122,0, , , , , , ,-0.434,-0.258,-108.358
 09:36:57.404,eb:33:2e:f9:57:b5, 2015-01-01 00:25:34.405,0.003,-0.006,0.993,0.244,-0.122,0, , , , , , ,-0.434,-0.258,-108.358
 09:36:57.404,eb:33:2e:f9:57:b5, 2015-01-01 00:25:34.405,0.003,-0.005,0.993,0.183,-0.122,0, , , , , , ,-0.434,-0.258,-108.358
 09:36:57.404,eb:33:2e:f9:57:b5, 2015-01-01 00:25:34.405,0.002,-0.005,0.994,0.183,-0.122,0, , , , , , ,-0.434,-0.258,-108.358
 09:36:57.404,eb:33:2e:f9:57:b5, 2015-01-01 00:25:34.405,0.003,-0.006,0.994,0.183,-0.122,0, , , , , , ,-0.434,-0.258,-108.358
 09:36:57.404,eb:33:2e:f9:57:b5, 2015-01-01 00:25:34.405,0.003,-0.006,0.993,0.244,-0.183,0, , , , , , ,-0.434,-0.258,-108.358
 09:36:57.404,eb:33:2e:f9:57:b5, 2015-01-01 00:25:34.405,0.003,-0.006,0.994,0.183,-0.122,0, , , , , , ,-0.434,-0.258,-108.358
 09:36:57.404,eb:33:2e:f9:57:b5, 2015-01-01 00:25:34.405,0.004,-0.007,0.993,0.244,-0.061,0, , , , , , ,-0.434,-0.258,-108.358
 09:36:57.404,eb:33:2e:f9:57:b5, 2015-01-01 00:25:34.405,0.004,-0.006,0.994,0.244,-0.061,0, , , , , , ,-0.434,-0.258,-108.358
 09:36:57.450,eb:33:2e:f9:57:b5, 2015-01-01 00:25:34.405,0.003,-0.007,0.995,0.305,0,0, , , , , , ,-0.434,-0.258,-108.358
 09:36:57.450,eb:33:2e:f9:57:b5, 2015-01-01 00:25:34.405,0.002,-0.008,0.995,0.366,0,0, , , , , , ,-0.434,-0.258,-108.358
 09:36:57.450,eb:33:2e:f9:57:b5, 2015-01-01 00:25:34.405,0.004,-0.009,0.996,0.366,0,0, , , , , , ,-0.434,-0.258,-108.358
 09:36:57.450,eb:33:2e:f9:57:b5, 2015-01-01 00:25:34.405,0.004,-0.005,0.995,0.366,0.061,0, , , , , , ,-0.434,-0.258,-108.358
 09:36:57.451,eb:33:2e:f9:57:b5, 2015-01-01 00:25:34.405,0.001,-0.003,0.993,0.366,0.061,0, , , , , , ,-0.434,-0.253,-108.358
 09:36:57.451,eb:33:2e:f9:57:b5, 2015-01-01 00:25:34.405,0.001,-0.004,0.992,0.305,0,0, , , , , , ,-0.434,-0.253,-108.358
 09:36:57.451,eb:33:2e:f9:57:b5, 2015-01-01 00:25:34.405,0.002,-0.005,0.992,0.244,-0.061,0, , , , , , ,-0.434,-0.253,-108.358
 09:36:57.451,eb:33:2e:f9:57:b5, 2015-01-01 00:25:34.405,0.002,-0.005,0.993,0.305,-0.122,0, , , , , , ,-0.434,-0.253,-108.358
 09:36:57.494,eb:33:2e:f9:57:b5, 2015-01-01 00:25:34.405,0.004,-0.008,0.994,0.305,-0.122,0, , , , , , ,-0.428,-0.253,-108.358
 09:36:57.494,eb:33:2e:f9:57:b5, 2015-01-01 00:25:34.405,0.003,-0.005,0.994,0.305,-0.061,0, , , , , , ,-0.428,-0.253,-108.358
 09:36:57.494,eb:33:2e:f9:57:b5, 2015-01-01 00:25:34.405,0.002,-0.004,0.993,0.244,-0.122,0, , , , , , ,-0.428,-0.253,-108.358
 09:36:57.494,eb:33:2e:f9:57:b5, 2015-01-01 00:25:34.405,0.002,-0.004,0.993,0.183,-0.183,0, , , , , , ,-0.428,-0.253,-108.358
 09:36:57.494,eb:33:2e:f9:57:b5, 2015-01-01 00:25:34.405,0.004,-0.005,0.993,0.122,-0.183,-0.061, , , , , , ,-0.428,-0.253,-108.358
 09:36:57.494,eb:33:2e:f9:57:b5, 2015-01-01 00:25:34.405,0.005,-0.005,0.993,0.183,-0.183,-0.061, , , , , , ,-0.428,-0.253,-108.358
 09:36:57.494,eb:33:2e:f9:57:b5, 2015-01-01 00:25:34.405,0.004,-0.006,0.994,0.183,-0.061,0, , , , , , ,-0.428,-0.253,-108.358
 09:36:57.495,eb:33:2e:f9:57:b5, 2015-01-01 00:25:34.405,0.002,-0.006,0.994,0.183,-0.061,0, , , , , , ,-0.428,-0.253,-108.358
 09:36:57.540,eb:33:2e:f9:57:b5, 2015-01-01 00:25:34.405,0.001,-0.006,0.994,0.183,-0.122,0, , , , , , ,-0.428,-0.253,-108.358
 09:36:57.540,eb:33:2e:f9:57:b5, 2015-01-01 00:25:34.405,0.002,-0.006,0.994,0.183,-0.244,0, , , , , , ,-0.428,-0.253,-108.358
 09:36:57.540,eb:33:2e:f9:57:b5, 2015-01-01 00:25:34.405,0.004,-0.006,0.994,0.183,-0.244,0, , , , , , ,-0.428,-0.253,-108.358
 09:36:57.540,eb:33:2e:f9:57:b5, 2015-01-01 00:25:34.405,0.003,-0.006,0.995,0.244,-0.183,0, , , , , , ,-0.428,-0.253,-108.358
 09:36:57.540,eb:33:2e:f9:57:b5, 2015-01-01 00:25:34.405,0.001,-0.006,0.994,0.244,-0.183,0, , , , , , ,-0.428,-0.253,-108.358
 09:36:57.540,eb:33:2e:f9:57:b5, 2015-01-01 00:25:34.405,0.003,-0.005,0.992,0.244,-0.183,0, , , , , , ,-0.428,-0.253,-108.358
 09:36:57.540,eb:33:2e:f9:57:b5, 2015-01-01 00:25:34.405,0.003,-0.005,0.992,0.183,-0.244,0, , , , , , ,-0.428,-0.253,-108.358
 09:36:57.540,eb:33:2e:f9:57:b5, 2015-01-01 00:25:34.405,0.003,-0.005,0.993,0.183,-0.244,0, , , , , , ,-0.428,-0.253,-108.358
 09:36:57.586,eb:33:2e:f9:57:b5, 2015-01-01 00:25:34.405,0.004,-0.006,0.994,0.244,-0.244,0, , , , , , ,-0.428,-0.253,-108.358
 09:36:57.586,eb:33:2e:f9:57:b5, 2015-01-01 00:25:34.405,0.003,-0.006,0.995,0.244,-0.183,0, , , , , , ,-0.428,-0.253,-108.358
 09:36:57.586,eb:33:2e:f9:57:b5, 2015-01-01 00:25:34.405,0.004,-0.005,0.994,0.305,-0.183,0, , , , , , ,-0.428,-0.253,-108.358
 09:36:57.586,eb:33:2e:f9:57:b5, 2015-01-01 00:25:34.405,0.003,-0.005,0.994,0.305,-0.183,-0.061, , , , , , ,-0.428,-0.253,-108.358
 09:36:57.586,eb:33:2e:f9:57:b5, 2015-01-01 00:25:34.405,0.002,-0.004,0.994,0.305,-0.183,0, , , , , , ,-0.428,-0.253,-108.358
 09:36:57.586,eb:33:2e:f9:57:b5, 2015-01-01 00:25:34.405,0.003,-0.005,0.992,0.183,-0.305,0, , , , , , ,-0.428,-0.253,-108.358
 09:36:57.586,eb:33:2e:f9:57:b5, 2015-01-01 00:25:34.405,0.003,-0.004,0.993,0.244,-0.305,-0.122, , , , , , ,-0.428,-0.253,-108.358
 09:36:57.586,eb:33:2e:f9:57:b5, 2015-01-01 00:25:34.405,0.003,-0.005,0.993,0.244,-0.244,-0.061, , , , , , ,-0.428,-0.253,-108.358
 09:36:57.608,eb:33:2e:f9:57:b5, 2015-01-01 00:25:34.405,0.003,-0.005,0.993,0.244,-0.305,-0.061, , , , , , ,-0.428,-0.253,-108.358
 09:36:57.608,eb:33:2e:f9:57:b5, 2015-01-01 00:25:34.405,0.004,-0.005,0.993,0.244,-0.366,-0.061, , , , , , ,-0.428,-0.253,-108.358
 09:36:57.608,eb:33:2e:f9:57:b5, 2015-01-01 00:25:34.405,0.004,-0.003,0.992,0.183,-0.366,-0.061, , , , , , ,-0.428,-0.253,-108.358
 09:36:57.608,eb:33:2e:f9:57:b5, 2015-01-01 00:25:34.405,0.003,-0.004,0.992,0.122,-0.366,-0.061, , , , , , ,-0.428,-0.253,-108.358
 09:36:57.608,eb:33:2e:f9:57:b5, 2015-01-01 00:25:34.405,0.004,-0.005,0.993,0,-0.366,-0.061, , , , , , ,-0.428,-0.253,-108.358
 09:36:57.608,eb:33:2e:f9:57:b5, 2015-01-01 00:25:34.405,0.004,-0.005,0.994,0,-0.305,0, , , , , , ,-0.428,-0.253,-108.358
 09:36:57.608,eb:33:2e:f9:57:b5, 2015-01-01 00:25:34.405,0.005,-0.004,0.993,0,-0.366,0, , , , , , ,-0.428,-0.253,-108.358
 09:36:57.608,eb:33:2e:f9:57:b5, 2015-01-01 00:25:34.405,0.003,-0.005,0.994,0,-0.366,-0.061, , , , , , ,-0.428,-0.253,-108.358
 09:36:57.653,eb:33:2e:f9:57:b5, 2015-01-01 00:25:34.405,0.004,-0.006,0.993,0.061,-0.427,-0.122, , , , , , ,-0.428,-0.253,-108.358
 09:36:57.653,eb:33:2e:f9:57:b5, 2015-01-01 00:25:34.405,0.004,-0.005,0.993,0,-0.427,-0.122, , , , , , ,-0.428,-0.253,-108.358
 09:36:57.653,eb:33:2e:f9:57:b5, 2015-01-01 00:25:34.405,0.005,-0.005,0.994,0,-0.427,-0.061, , , , , , ,-0.428,-0.253,-108.364
 09:36:57.653,eb:33:2e:f9:57:b5, 2015-01-01 00:25:34.405,0.005,-0.005,0.996,0,-0.305,-0.061, , , , , , ,-0.428,-0.253,-108.364
 09:36:57.653,eb:33:2e:f9:57:b5, 2015-01-01 00:25:34.405,0.005,-0.007,0.996,0,-0.244,-0.061, , , , , , ,-0.423,-0.253,-108.358
 09:36:57.653,eb:33:2e:f9:57:b5, 2015-01-01 00:25:34.405,0.004,-0.007,0.996,0.122,-0.183,0, , , , , , ,-0.423,-0.253,-108.358
 09:36:57.653,eb:33:2e:f9:57:b5, 2015-01-01 00:25:34.405,0.003,-0.006,0.995,0.122,-0.244,-0.122, , , , , , ,-0.423,-0.253,-108.364
 09:36:57.653,eb:33:2e:f9:57:b5, 2015-01-01 00:25:34.405,0.002,-0.006,0.993,0.183,-0.305,-0.122, , , , , , ,-0.423,-0.253,-108.364
 09:36:57.724,eb:33:2e:f9:57:b5, 2015-01-01 00:25:34.405,0.005,-0.007,0.993,0.244,-0.366,-0.122, , , , , , ,-0.423,-0.253,-108.358
 09:36:57.724,eb:33:2e:f9:57:b5, 2015-01-01 00:25:34.405,0.004,-0.007,0.994,0.244,-0.366,-0.061, , , , , , ,-0.423,-0.253,-108.358
 09:36:57.724,eb:33:2e:f9:57:b5, 2015-01-01 00:25:34.405,0.002,-0.004,0.994,0.183,-0.366,-0.061, , , , , , ,-0.423,-0.253,-108.364
 09:36:57.724,eb:33:2e:f9:57:b5, 2015-01-01 00:25:34.405,0.004,-0.004,0.993,0.122,-0.427,-0.061, , , , , , ,-0.423,-0.253,-108.364
 09:36:57.724,eb:33:2e:f9:57:b5, 2015-01-01 00:25:34.405,0.006,-0.005,0.994,0.183,-0.427,-0.061, , , , , , ,-0.423,-0.253,-108.364
 09:36:57.724,eb:33:2e:f9:57:b5, 2015-01-01 00:25:34.405,0.008,-0.006,0.996,0.183,-0.366,0, , , , , , ,-0.423,-0.253,-108.364
 09:36:57.724,eb:33:2e:f9:57:b5, 2015-01-01 00:25:34.405,0.007,-0.006,0.997,0.305,-0.183,-0.061, , , , , , ,-0.423,-0.253,-108.364
 09:36:57.724,eb:33:2e:f9:57:b5, 2015-01-01 00:25:34.405,0.003,-0.004,0.995,0.244,-0.061,-0.061, , , , , , ,-0.423,-0.253,-108.364
 09:36:57.742,eb:33:2e:f9:57:b5, 2015-01-01 00:25:34.715,0.005,-0.004,0.993,0.183,-0.061,-0.061, , , , , , ,-0.423,-0.253,-108.364
 09:36:57.742,eb:33:2e:f9:57:b5, 2015-01-01 00:25:34.715,0.008,-0.004,0.994,0.122,-0.061,-0.061, , , , , , ,-0.423,-0.253,-108.364
 09:36:57.742,eb:33:2e:f9:57:b5, 2015-01-01 00:25:34.715,0.007,-0.004,0.996,0.183,0,-0.061, , , , , , ,-0.423,-0.253,-108.364
 09:36:57.742,eb:33:2e:f9:57:b5, 2015-01-01 00:25:34.715,0.006,-0.004,0.996,0.122,0.061,0, , , , , , ,-0.423,-0.253,-108.364
 09:36:57.742,eb:33:2e:f9:57:b5, 2015-01-01 00:25:34.715,0.005,-0.005,0.995,0.122,0.183,0, , , , , , ,-0.423,-0.253,-108.364
 09:36:57.742,eb:33:2e:f9:57:b5, 2015-01-01 00:25:34.715,0.003,-0.006,0.994,0.183,0.183,-0.061, , , , , , ,-0.423,-0.253,-108.364
 09:36:57.742,eb:33:2e:f9:57:b5, 2015-01-01 00:25:34.715,0.002,-0.006,0.993,0.122,0.061,0, , , , , , ,-0.423,-0.253,-108.364
 09:36:57.742,eb:33:2e:f9:57:b5, 2015-01-01 00:25:34.715,0.003,-0.005,0.992,0.122,0,0, , , , , , ,-0.423,-0.253,-108.364
 09:36:57.786,eb:33:2e:f9:57:b5, 2015-01-01 00:25:34.715,0.004,-0.006,0.993,0.122,-0.061,0, , , , , , ,-0.423,-0.253,-108.364
 09:36:57.786,eb:33:2e:f9:57:b5, 2015-01-01 00:25:34.715,0.003,-0.006,0.993,0.122,-0.061,-0.061, , , , , , ,-0.423,-0.253,-108.364
 09:36:57.786,eb:33:2e:f9:57:b5, 2015-01-01 00:25:34.715,0.003,-0.006,0.993,0.122,-0.183,0, , , , , , ,-0.423,-0.253,-108.364
 09:36:57.786,eb:33:2e:f9:57:b5, 2015-01-01 00:25:34.715,0.004,-0.006,0.993,0.122,-0.244,0, , , , , , ,-0.423,-0.253,-108.364
 09:36:57.786,eb:33:2e:f9:57:b5, 2015-01-01 00:25:34.715,0.005,-0.005,0.993,0.122,-0.244,-0.061, , , , , , ,-0.423,-0.253,-108.364
 09:36:57.786,eb:33:2e:f9:57:b5, 2015-01-01 00:25:34.715,0.003,-0.004,0.994,0.183,-0.244,0, , , , , , ,-0.423,-0.253,-108.364
 09:36:57.786,eb:33:2e:f9:57:b5, 2015-01-01 00:25:34.715,0.004,-0.005,0.993,0.122,-0.244,0, , , , , , ,-0.423,-0.253,-108.364
 09:36:57.786,eb:33:2e:f9:57:b5, 2015-01-01 00:25:34.715,0.004,-0.005,0.993,0.183,-0.366,0, , , , , , ,-0.423,-0.253,-108.364
 09:36:57.810,eb:33:2e:f9:57:b5, 2015-01-01 00:25:34.715,0.005,-0.005,0.993,0.122,-0.366,-0.061, , , , , , ,-0.423,-0.253,-108.364
 09:36:57.810,eb:33:2e:f9:57:b5, 2015-01-01 00:25:34.715,0.005,-0.005,0.993,0.122,-0.366,-0.061, , , , , , ,-0.423,-0.253,-108.364
 09:36:57.810,eb:33:2e:f9:57:b5, 2015-01-01 00:25:34.715,0.005,-0.005,0.993,0.061,-0.305,-0.061, , , , , , ,-0.423,-0.253,-108.364
 09:36:57.810,eb:33:2e:f9:57:b5, 2015-01-01 00:25:34.715,0.005,-0.004,0.992,0,-0.366,-0.061, , , , , , ,-0.423,-0.253,-108.364
 09:36:57.810,eb:33:2e:f9:57:b5, 2015-01-01 00:25:34.715,0.004,-0.005,0.992,0,-0.366,-0.061, , , , , , ,-0.423,-0.253,-108.364
 09:36:57.810,eb:33:2e:f9:57:b5, 2015-01-01 00:25:34.715,0.005,-0.005,0.992,0,-0.427,-0.061, , , , , , ,-0.423,-0.253,-108.364
 09:36:57.810,eb:33:2e:f9:57:b5, 2015-01-01 00:25:34.715,0.004,-0.005,0.994,0,-0.427,-0.061, , , , , , ,-0.423,-0.253,-108.364
 09:36:57.810,eb:33:2e:f9:57:b5, 2015-01-01 00:25:34.715,0.004,-0.004,0.992,-0.061,-0.488,-0.061, , , , , , ,-0.423,-0.253,-108.364
 09:36:57.854,eb:33:2e:f9:57:b5, 2015-01-01 00:25:34.715,0.005,-0.004,0.991,-0.061,-0.549,-0.061, , , , , , ,-0.417,-0.253,-108.364
 09:36:57.854,eb:33:2e:f9:57:b5, 2015-01-01 00:25:34.715,0.006,-0.005,0.992,-0.122,-0.61,0, , , , , , ,-0.417,-0.253,-108.364
 09:36:57.854,eb:33:2e:f9:57:b5, 2015-01-01 00:25:34.715,0.006,-0.005,0.993,-0.061,-0.549,0, , , , , , ,-0.417,-0.253,-108.364
 09:36:57.854,eb:33:2e:f9:57:b5, 2015-01-01 00:25:34.715,0.004,-0.006,0.994,-0.122,-0.488,0, , , , , , ,-0.417,-0.253,-108.364
 09:36:57.854,eb:33:2e:f9:57:b5, 2015-01-01 00:25:34.715,0.004,-0.006,0.993,-0.061,-0.61,0, , , , , , ,-0.417,-0.253,-108.364
 09:36:57.854,eb:33:2e:f9:57:b5, 2015-01-01 00:25:34.715,0.006,-0.005,0.993,-0.122,-0.61,0, , , , , , ,-0.417,-0.253,-108.364
 09:36:57.854,eb:33:2e:f9:57:b5, 2015-01-01 00:25:34.715,0.006,-0.005,0.993,-0.122,-0.61,0, , , , , , ,-0.417,-0.253,-108.364
 09:36:57.854,eb:33:2e:f9:57:b5, 2015-01-01 00:25:34.715,0.005,-0.006,0.994,-0.122,-0.549,0, , , , , , ,-0.417,-0.253,-108.364
 09:36:57.900,eb:33:2e:f9:57:b5, 2015-01-01 00:25:34.715,0.005,-0.007,0.994,-0.061,-0.549,0, , , , , , ,-0.417,-0.253,-108.364
 09:36:57.900,eb:33:2e:f9:57:b5, 2015-01-01 00:25:34.715,0.007,-0.006,0.993,-0.122,-0.61,0, , , , , , ,-0.417,-0.253,-108.364
 09:36:57.900,eb:33:2e:f9:57:b5, 2015-01-01 00:25:34.715,0.006,-0.006,0.995,-0.061,-0.549,0, , , , , , ,-0.417,-0.253,-108.364
 09:36:57.900,eb:33:2e:f9:57:b5, 2015-01-01 00:25:34.715,0.006,-0.006,0.995,0,-0.549,-0.061, , , , , , ,-0.417,-0.253,-108.364
 09:36:57.900,eb:33:2e:f9:57:b5, 2015-01-01 00:25:34.715,0.005,-0.006,0.994,-0.061,-0.488,0, , , , , , ,-0.417,-0.253,-108.364
 09:36:57.900,eb:33:2e:f9:57:b5, 2015-01-01 00:25:34.715,0.006,-0.005,0.994,0,-0.61,0, , , , , , ,-0.417,-0.253,-108.364
 09:36:57.902,eb:33:2e:f9:57:b5, 2015-01-01 00:25:34.715,0.006,-0.005,0.994,0,-0.549,0, , , , , , ,-0.417,-0.253,-108.364
 09:36:57.902,eb:33:2e:f9:57:b5, 2015-01-01 00:25:34.715,0.006,-0.005,0.994,0,-0.488,0, , , , , , ,-0.417,-0.253,-108.364
 09:36:57.944,eb:33:2e:f9:57:b5, 2015-01-01 00:25:34.715,0.007,-0.005,0.993,0,-0.427,0, , , , , , ,-0.417,-0.253,-108.364
 09:36:57.944,eb:33:2e:f9:57:b5, 2015-01-01 00:25:34.715,0.007,-0.005,0.994,-0.061,-0.366,0, , , , , , ,-0.417,-0.253,-108.364
 09:36:57.944,eb:33:2e:f9:57:b5, 2015-01-01 00:25:34.715,0.007,-0.005,0.993,-0.061,-0.366,0, , , , , , ,-0.417,-0.253,-108.364
 09:36:57.944,eb:33:2e:f9:57:b5, 2015-01-01 00:25:34.715,0.007,-0.004,0.994,0,-0.305,0, , , , , , ,-0.417,-0.253,-108.364
 09:36:57.944,eb:33:2e:f9:57:b5, 2015-01-01 00:25:34.715,0.006,-0.005,0.996,0,-0.183,0, , , , , , ,-0.417,-0.253,-108.364
 09:36:57.944,eb:33:2e:f9:57:b5, 2015-01-01 00:25:34.715,0.006,-0.007,0.995,0,-0.122,-0.061, , , , , , ,-0.417,-0.253,-108.364
 09:36:57.944,eb:33:2e:f9:57:b5, 2015-01-01 00:25:34.715,0.005,-0.007,0.995,0,-0.183,0, , , , , , ,-0.417,-0.253,-108.364
 09:36:57.944,eb:33:2e:f9:57:b5, 2015-01-01 00:25:34.715,0.006,-0.006,0.995,0,-0.244,0, , , , , , ,-0.417,-0.253,-108.364
 09:36:57.968,eb:33:2e:f9:57:b5, 2015-01-01 00:25:34.715,0.006,-0.007,0.995,0,-0.305,0, , , , , , ,-0.417,-0.253,-108.364
 09:36:57.968,eb:33:2e:f9:57:b5, 2015-01-01 00:25:34.715,0.006,-0.007,0.994,0,-0.244,0, , , , , , ,-0.417,-0.253,-108.364
 09:36:57.968,eb:33:2e:f9:57:b5, 2015-01-01 00:25:34.715,0.006,-0.006,0.993,0,-0.305,0, , , , , , ,-0.417,-0.253,-108.364
 09:36:57.968,eb:33:2e:f9:57:b5, 2015-01-01 00:25:34.715,0.006,-0.006,0.993,0,-0.366,0, , , , , , ,-0.417,-0.253,-108.364
 09:36:57.968,eb:33:2e:f9:57:b5, 2015-01-01 00:25:34.715,0.007,-0.006,0.993,0,-0.366,0, , , , , , ,-0.417,-0.258,-108.364
 09:36:57.968,eb:33:2e:f9:57:b5, 2015-01-01 00:25:34.715,0.007,-0.006,0.993,0,-0.366,0, , , , , , ,-0.417,-0.258,-108.364
 09:36:57.968,eb:33:2e:f9:57:b5, 2015-01-01 00:25:34.715,0.006,-0.007,0.994,0,-0.366,0, , , , , , ,-0.417,-0.258,-108.364
 09:36:57.968,eb:33:2e:f9:57:b5, 2015-01-01 00:25:34.715,0.006,-0.007,0.995,0.061,-0.366,0, , , , , , ,-0.417,-0.258,-108.364
 09:36:58.012,eb:33:2e:f9:57:b5, 2015-01-01 00:25:34.715,0.006,-0.007,0.994,0.061,-0.427,0, , , , , , ,-0.417,-0.258,-108.364
 09:36:58.012,eb:33:2e:f9:57:b5, 2015-01-01 00:25:34.715,0.006,-0.006,0.994,0,-0.427,-0.061, , , , , , ,-0.417,-0.258,-108.364
 09:36:58.012,eb:33:2e:f9:57:b5, 2015-01-01 00:25:34.715,0.007,-0.006,0.994,0.061,-0.488,0, , , , , , ,-0.417,-0.258,-108.364
 09:36:58.012,eb:33:2e:f9:57:b5, 2015-01-01 00:25:34.715,0.008,-0.007,0.993,0.061,-0.427,0, , , , , , ,-0.417,-0.258,-108.364
 09:36:58.013,eb:33:2e:f9:57:b5, 2015-01-01 00:25:34.715,0.007,-0.007,0.994,0.122,-0.366,0, , , , , , ,-0.417,-0.258,-108.364
 09:36:58.013,eb:33:2e:f9:57:b5, 2015-01-01 00:25:34.715,0.007,-0.006,0.993,0.061,-0.305,0, , , , , , ,-0.417,-0.258,-108.364
 09:36:58.013,eb:33:2e:f9:57:b5, 2015-01-01 00:25:34.715,0.008,-0.006,0.993,0,-0.366,0, , , , , , ,-0.417,-0.258,-108.364
 09:36:58.014,eb:33:2e:f9:57:b5, 2015-01-01 00:25:34.715,0.009,-0.005,0.994,0,-0.244,0, , , , , , ,-0.417,-0.258,-108.364
 09:36:58.058,eb:33:2e:f9:57:b5, 2015-01-01 00:25:34.715,0.006,-0.006,0.995,0,-0.122,0, , , , , , ,-0.417,-0.258,-108.364
 09:36:58.058,eb:33:2e:f9:57:b5, 2015-01-01 00:25:34.715,0.004,-0.006,0.993,0,-0.061,0, , , , , , ,-0.417,-0.258,-108.364
 09:36:58.058,eb:33:2e:f9:57:b5, 2015-01-01 00:25:34.715,0.006,-0.005,0.992,-0.061,-0.122,0, , , , , , ,-0.417,-0.258,-108.364
 09:36:58.058,eb:33:2e:f9:57:b5, 2015-01-01 00:25:34.715,0.006,-0.005,0.992,-0.122,-0.183,0, , , , , , ,-0.417,-0.258,-108.364
 09:36:58.058,eb:33:2e:f9:57:b5, 2015-01-01 00:25:34.715,0.008,-0.004,0.993,-0.122,-0.244,0, , , , , , ,-0.417,-0.258,-108.364
 09:36:58.058,eb:33:2e:f9:57:b5, 2015-01-01 00:25:34.715,0.008,-0.006,0.994,-0.122,-0.183,0, , , , , , ,-0.417,-0.258,-108.364
 09:36:58.058,eb:33:2e:f9:57:b5, 2015-01-01 00:25:34.715,0.007,-0.007,0.996,-0.061,-0.122,0, , , , , , ,-0.417,-0.258,-108.364
 09:36:58.058,eb:33:2e:f9:57:b5, 2015-01-01 00:25:34.715,0.006,-0.007,0.994,-0.061,-0.183,0, , , , , , ,-0.417,-0.258,-108.364
 09:36:58.104,eb:33:2e:f9:57:b5, 2015-01-01 00:25:34.715,0.006,-0.007,0.994,0,-0.244,0, , , , , , ,-0.417,-0.258,-108.364
 09:36:58.104,eb:33:2e:f9:57:b5, 2015-01-01 00:25:34.715,0.007,-0.006,0.994,0,-0.183,0, , , , , , ,-0.417,-0.258,-108.364
 09:36:58.104,eb:33:2e:f9:57:b5, 2015-01-01 00:25:34.715,0.007,-0.006,0.995,0,-0.183,0, , , , , , ,-0.417,-0.258,-108.364
 09:36:58.104,eb:33:2e:f9:57:b5, 2015-01-01 00:25:34.715,0.007,-0.006,0.995,0,-0.183,0, , , , , , ,-0.417,-0.258,-108.364
 09:36:58.104,eb:33:2e:f9:57:b5, 2015-01-01 00:25:34.715,0.008,-0.006,0.995,0,-0.122,-0.061, , , , , , ,-0.412,-0.258,-108.364
 09:36:58.104,eb:33:2e:f9:57:b5, 2015-01-01 00:25:34.715,0.007,-0.007,0.995,0.122,-0.122,0, , , , , , ,-0.412,-0.258,-108.364
 09:36:58.104,eb:33:2e:f9:57:b5, 2015-01-01 00:25:34.715,0.008,-0.007,0.995,0.122,-0.061,0, , , , , , ,-0.412,-0.258,-108.364
 09:36:58.104,eb:33:2e:f9:57:b5, 2015-01-01 00:25:34.715,0.005,-0.006,0.995,0.061,-0.061,0, , , , , , ,-0.412,-0.258,-108.364
 09:36:58.147,eb:33:2e:f9:57:b5, 2015-01-01 00:25:34.715,0.006,-0.007,0.994,0.061,-0.122,0, , , , , , ,-0.412,-0.264,-108.364
 09:36:58.147,eb:33:2e:f9:57:b5, 2015-01-01 00:25:34.715,0.008,-0.007,0.994,0.122,-0.122,0.061, , , , , , ,-0.412,-0.264,-108.364
 09:36:58.147,eb:33:2e:f9:57:b5, 2015-01-01 00:25:34.715,0.008,-0.007,0.994,0.183,-0.122,0, , , , , , ,-0.412,-0.264,-108.364
 09:36:58.147,eb:33:2e:f9:57:b5, 2015-01-01 00:25:34.715,0.01,-0.006,0.995,0.183,-0.061,0, , , , , , ,-0.412,-0.264,-108.364
 09:36:58.147,eb:33:2e:f9:57:b5, 2015-01-01 00:25:34.715,0.006,-0.006,0.995,0.244,0,0, , , , , , ,-0.412,-0.264,-108.364
 09:36:58.147,eb:33:2e:f9:57:b5, 2015-01-01 00:25:34.715,0.008,-0.006,0.993,0.183,-0.061,0.061, , , , , , ,-0.412,-0.264,-108.364
 09:36:58.147,eb:33:2e:f9:57:b5, 2015-01-01 00:25:34.715,0.007,-0.006,0.995,0.183,0,0.122, , , , , , ,-0.412,-0.264,-108.364
 09:36:58.147,eb:33:2e:f9:57:b5, 2015-01-01 00:25:34.715,0.007,-0.007,0.995,0.183,0,0.061, , , , , , ,-0.412,-0.264,-108.364
 09:36:58.170,eb:33:2e:f9:57:b5, 2015-01-01 00:25:35.165,0.007,-0.006,0.993,0.244,0,0.061, , , , , , ,-0.412,-0.264,-108.364
 09:36:58.170,eb:33:2e:f9:57:b5, 2015-01-01 00:25:35.165,0.008,-0.007,0.994,0.183,0,0, , , , , , ,-0.412,-0.264,-108.364
 09:36:58.170,eb:33:2e:f9:57:b5, 2015-01-01 00:25:35.165,0.007,-0.005,0.995,0.183,0,0, , , , , , ,-0.412,-0.264,-108.364
 09:36:58.170,eb:33:2e:f9:57:b5, 2015-01-01 00:25:35.165,0.006,-0.005,0.993,0.183,0,0, , , , , , ,-0.412,-0.264,-108.364
 09:36:58.170,eb:33:2e:f9:57:b5, 2015-01-01 00:25:35.165,0.006,-0.006,0.993,0.183,-0.061,0.061, , , , , , ,-0.412,-0.264,-108.364
 09:36:58.170,eb:33:2e:f9:57:b5, 2015-01-01 00:25:35.165,0.008,-0.005,0.993,0.183,-0.061,0.061, , , , , , ,-0.412,-0.264,-108.364
 09:36:58.170,eb:33:2e:f9:57:b5, 2015-01-01 00:25:35.165,0.008,-0.005,0.992,0.122,-0.122,0, , , , , , ,-0.412,-0.264,-108.364
 09:36:58.170,eb:33:2e:f9:57:b5, 2015-01-01 00:25:35.165,0.008,-0.006,0.994,0.122,-0.061,0.061, , , , , , ,-0.412,-0.264,-108.364
 09:36:58.214,eb:33:2e:f9:57:b5, 2015-01-01 00:25:35.165,0.008,-0.005,0.993,0.061,0,0.061, , , , , , ,-0.412,-0.264,-108.364
 09:36:58.214,eb:33:2e:f9:57:b5, 2015-01-01 00:25:35.165,0.009,-0.005,0.992,0.061,0,0.061, , , , , , ,-0.412,-0.264,-108.364
 09:36:58.214,eb:33:2e:f9:57:b5, 2015-01-01 00:25:35.165,0.008,-0.006,0.993,0.061,0,0.061, , , , , , ,-0.412,-0.264,-108.364
 09:36:58.214,eb:33:2e:f9:57:b5, 2015-01-01 00:25:35.165,0.008,-0.006,0.994,0.061,0,0.061, , , , , , ,-0.412,-0.264,-108.364
 09:36:58.214,eb:33:2e:f9:57:b5, 2015-01-01 00:25:35.165,0.008,-0.007,0.993,0.061,-0.061,0, , , , , , ,-0.412,-0.264,-108.364
 09:36:58.214,eb:33:2e:f9:57:b5, 2015-01-01 00:25:35.165,0.007,-0.006,0.994,0.122,0,0, , , , , , ,-0.412,-0.264,-108.364
 09:36:58.214,eb:33:2e:f9:57:b5, 2015-01-01 00:25:35.165,0.008,-0.006,0.994,0.061,0,0, , , , , , ,-0.412,-0.264,-108.364
 09:36:58.214,eb:33:2e:f9:57:b5, 2015-01-01 00:25:35.165,0.008,-0.005,0.995,0.061,0,0, , , , , , ,-0.412,-0.264,-108.364
 09:36:58.259,eb:33:2e:f9:57:b5, 2015-01-01 00:25:35.165,0.007,-0.006,0.995,0.122,0,0, , , , , , ,-0.412,-0.269,-108.364
 09:36:58.259,eb:33:2e:f9:57:b5, 2015-01-01 00:25:35.165,0.007,-0.006,0.995,0.183,0,0.061, , , , , , ,-0.412,-0.269,-108.364
 09:36:58.259,eb:33:2e:f9:57:b5, 2015-01-01 00:25:35.165,0.008,-0.007,0.995,0.122,0,0, , , , , , ,-0.412,-0.269,-108.364
 09:36:58.259,eb:33:2e:f9:57:b5, 2015-01-01 00:25:35.165,0.007,-0.007,0.995,0.122,0,0, , , , , , ,-0.412,-0.269,-108.364
 09:36:58.259,eb:33:2e:f9:57:b5, 2015-01-01 00:25:35.165,0.008,-0.006,0.995,0.122,0,0, , , , , , ,-0.412,-0.269,-108.364
 09:36:58.259,eb:33:2e:f9:57:b5, 2015-01-01 00:25:35.165,0.008,-0.006,0.994,0.183,0,0, , , , , , ,-0.412,-0.269,-108.364
 09:36:58.259,eb:33:2e:f9:57:b5, 2015-01-01 00:25:35.165,0.008,-0.006,0.994,0.183,0,0, , , , , , ,-0.412,-0.269,-108.364
 09:36:58.259,eb:33:2e:f9:57:b5, 2015-01-01 00:25:35.165,0.008,-0.006,0.995,0.122,0.061,0, , , , , , ,-0.412,-0.269,-108.364
 09:36:58.306,eb:33:2e:f9:57:b5, 2015-01-01 00:25:35.165,0.008,-0.006,0.994,0.122,0.061,0, , , , , , ,-0.412,-0.269,-108.364
 09:36:58.306,eb:33:2e:f9:57:b5, 2015-01-01 00:25:35.165,0.007,-0.007,0.994,0.122,0.061,0, , , , , , ,-0.412,-0.269,-108.364
 09:36:58.306,eb:33:2e:f9:57:b5, 2015-01-01 00:25:35.165,0.007,-0.006,0.994,0.122,0,0, , , , , , ,-0.412,-0.269,-108.364
 09:36:58.306,eb:33:2e:f9:57:b5, 2015-01-01 00:25:35.165,0.007,-0.005,0.994,0.061,0,0, , , , , , ,-0.412,-0.269,-108.364
 09:36:58.306,eb:33:2e:f9:57:b5, 2015-01-01 00:25:35.165,0.009,-0.006,0.994,0.122,0,0, , , , , , ,-0.412,-0.269,-108.364
 09:36:58.306,eb:33:2e:f9:57:b5, 2015-01-01 00:25:35.165,0.008,-0.006,0.994,0.122,0.061,0.061, , , , , , ,-0.412,-0.269,-108.364
 09:36:58.306,eb:33:2e:f9:57:b5, 2015-01-01 00:25:35.165,0.007,-0.006,0.995,0.122,0.061,0, , , , , , ,-0.412,-0.269,-108.364
 09:36:58.306,eb:33:2e:f9:57:b5, 2015-01-01 00:25:35.165,0.007,-0.006,0.994,0.061,0,0, , , , , , ,-0.412,-0.269,-108.364
 09:36:58.350,eb:33:2e:f9:57:b5, 2015-01-01 00:25:35.165,0.007,-0.006,0.994,0.122,0,0, , , , , , ,-0.412,-0.269,-108.364
 09:36:58.350,eb:33:2e:f9:57:b5, 2015-01-01 00:25:35.165,0.007,-0.006,0.993,0.061,0,0, , , , , , ,-0.412,-0.269,-108.364
 09:36:58.350,eb:33:2e:f9:57:b5, 2015-01-01 00:25:35.165,0.008,-0.006,0.994,0.122,0,0, , , , , , ,-0.412,-0.269,-108.364
 09:36:58.350,eb:33:2e:f9:57:b5, 2015-01-01 00:25:35.165,0.008,-0.006,0.995,0.122,0,0, , , , , , ,-0.412,-0.269,-108.364
 09:36:58.350,eb:33:2e:f9:57:b5, 2015-01-01 00:25:35.165,0.008,-0.006,0.995,0.122,0,0, , , , , , ,-0.412,-0.269,-108.364
 09:36:58.350,eb:33:2e:f9:57:b5, 2015-01-01 00:25:35.165,0.009,-0.007,0.995,0.183,0,0, , , , , , ,-0.412,-0.269,-108.364
 09:36:58.350,eb:33:2e:f9:57:b5, 2015-01-01 00:25:35.165,0.008,-0.007,0.994,0.183,0,0, , , , , , ,-0.412,-0.269,-108.364
 09:36:58.350,eb:33:2e:f9:57:b5, 2015-01-01 00:25:35.165,0.008,-0.008,0.994,0.244,0,0, , , , , , ,-0.412,-0.269,-108.364
 09:36:58.373,eb:33:2e:f9:57:b5, 2015-01-01 00:25:35.165,0.008,-0.007,0.994,0.244,0.061,0, , , , , , ,-0.412,-0.275,-108.364
 09:36:58.373,eb:33:2e:f9:57:b5, 2015-01-01 00:25:35.165,0.006,-0.006,0.994,0.366,0.061,0, , , , , , ,-0.412,-0.275,-108.364
 09:36:58.373,eb:33:2e:f9:57:b5, 2015-01-01 00:25:35.165,0.004,-0.007,0.993,0.427,0,-0.061, , , , , , ,-0.412,-0.275,-108.364
 09:36:58.373,eb:33:2e:f9:57:b5, 2015-01-01 00:25:35.165,0.007,-0.008,0.993,0.61,-0.183,-0.061, , , , , , ,-0.412,-0.275,-108.364
 09:36:58.373,eb:33:2e:f9:57:b5, 2015-01-01 00:25:35.165,0.008,-0.009,0.997,0.732,-0.122,-0.122, , , , , , ,-0.412,-0.275,-108.364
 09:36:58.373,eb:33:2e:f9:57:b5, 2015-01-01 00:25:35.165,0.008,-0.008,0.997,0.793,-0.061,-0.061, , , , , , ,-0.412,-0.275,-108.364
 09:36:58.373,eb:33:2e:f9:57:b5, 2015-01-01 00:25:35.165,0.004,-0.001,0.991,0.671,-0.183,-0.244, , , , , , ,-0.412,-0.275,-108.364
 09:36:58.373,eb:33:2e:f9:57:b5, 2015-01-01 00:25:35.165,0.007,-0.005,0.991,0.671,-0.244,-0.244, , , , , , ,-0.412,-0.275,-108.364
 09:36:58.418,eb:33:2e:f9:57:b5, 2015-01-01 00:25:35.165,0.012,-0.006,0.994,0.671,-0.366,-0.305, , , , , , ,-0.412,-0.275,-108.364
 09:36:58.418,eb:33:2e:f9:57:b5, 2015-01-01 00:25:35.165,0.009,-0.003,0.995,0.671,-0.183,-0.305, , , , , , ,-0.412,-0.275,-108.364
 09:36:58.418,eb:33:2e:f9:57:b5, 2015-01-01 00:25:35.165,0.008,-0.004,0.993,0.549,-0.122,-0.244, , , , , , ,-0.412,-0.275,-108.364
 09:36:58.418,eb:33:2e:f9:57:b5, 2015-01-01 00:25:35.165,0.008,-0.004,0.991,0.427,-0.122,-0.122, , , , , , ,-0.412,-0.275,-108.364
 09:36:58.418,eb:33:2e:f9:57:b5, 2015-01-01 00:25:35.165,0.008,-0.004,0.992,0.427,-0.122,-0.183, , , , , , ,-0.412,-0.275,-108.364
 09:36:58.419,eb:33:2e:f9:57:b5, 2015-01-01 00:25:35.165,0.009,-0.004,0.993,0.427,-0.122,-0.183, , , , , , ,-0.412,-0.275,-108.364
 09:36:58.420,eb:33:2e:f9:57:b5, 2015-01-01 00:25:35.165,0.009,-0.006,0.994,0.366,-0.183,-0.183, , , , , , ,-0.412,-0.275,-108.364
 09:36:58.420,eb:33:2e:f9:57:b5, 2015-01-01 00:25:35.165,0.007,-0.006,0.995,0.427,-0.061,-0.061, , , , , , ,-0.412,-0.275,-108.364
 09:36:58.462,eb:33:2e:f9:57:b5, 2015-01-01 00:25:35.165,0.007,-0.006,0.993,0.427,-0.122,-0.122, , , , , , ,-0.412,-0.275,-108.364
 09:36:58.462,eb:33:2e:f9:57:b5, 2015-01-01 00:25:35.165,0.009,-0.005,0.993,0.427,-0.122,-0.122, , , , , , ,-0.412,-0.275,-108.364
 09:36:58.463,eb:33:2e:f9:57:b5, 2015-01-01 00:25:35.165,0.009,-0.005,0.994,0.427,-0.122,-0.122, , , , , , ,-0.412,-0.275,-108.364
 09:36:58.463,eb:33:2e:f9:57:b5, 2015-01-01 00:25:35.165,0.009,-0.004,0.995,0.427,-0.183,-0.183, , , , , , ,-0.412,-0.275,-108.364
 09:36:58.463,eb:33:2e:f9:57:b5, 2015-01-01 00:25:35.165,0.008,-0.005,0.995,0.366,-0.061,-0.183, , , , , , ,-0.406,-0.28,-108.364
 09:36:58.463,eb:33:2e:f9:57:b5, 2015-01-01 00:25:35.165,0.008,-0.005,0.993,0.366,-0.061,-0.122, , , , , , ,-0.406,-0.28,-108.364
 09:36:58.463,eb:33:2e:f9:57:b5, 2015-01-01 00:25:35.165,0.008,-0.005,0.993,0.305,-0.061,-0.183, , , , , , ,-0.406,-0.28,-108.364
 09:36:58.463,eb:33:2e:f9:57:b5, 2015-01-01 00:25:35.165,0.008,-0.005,0.993,0.305,-0.061,-0.183, , , , , , ,-0.406,-0.28,-108.364
 09:36:58.507,eb:33:2e:f9:57:b5, 2015-01-01 00:25:35.475,0.009,-0.005,0.992,0.244,-0.061,-0.122, , , , , , ,-0.406,-0.28,-108.364
 09:36:58.507,eb:33:2e:f9:57:b5, 2015-01-01 00:25:35.475,0.008,-0.004,0.993,0.305,-0.061,-0.244, , , , , , ,-0.406,-0.28,-108.364
 09:36:58.507,eb:33:2e:f9:57:b5, 2015-01-01 00:25:35.475,0.006,-0.005,0.994,0.366,-0.061,-0.244, , , , , , ,-0.406,-0.28,-108.364
 09:36:58.507,eb:33:2e:f9:57:b5, 2015-01-01 00:25:35.475,0.003,-0.004,0.993,0.305,-0.122,-0.305, , , , , , ,-0.406,-0.28,-108.364
 09:36:58.507,eb:33:2e:f9:57:b5, 2015-01-01 00:25:35.475,0.008,-0.006,0.991,0.366,-0.366,-0.305, , , , , , ,-0.406,-0.28,-108.364
 09:36:58.507,eb:33:2e:f9:57:b5, 2015-01-01 00:25:35.475,0.008,-0.005,0.994,0.366,-0.305,-0.366, , , , , , ,-0.406,-0.28,-108.364
 09:36:58.507,eb:33:2e:f9:57:b5, 2015-01-01 00:25:35.475,0.006,-0.005,0.992,0.427,-0.427,-0.366, , , , , , ,-0.406,-0.28,-108.369
 09:36:58.507,eb:33:2e:f9:57:b5, 2015-01-01 00:25:35.475,0.007,-0.007,0.994,0.488,-0.488,-0.244, , , , , , ,-0.406,-0.28,-108.369
 09:36:58.554,eb:33:2e:f9:57:b5, 2015-01-01 00:25:35.475,0.009,-0.005,0.995,0.488,-0.549,-0.244, , , , , , ,-0.406,-0.28,-108.369
 09:36:58.554,eb:33:2e:f9:57:b5, 2015-01-01 00:25:35.475,0.008,-0.004,0.995,0.366,-0.488,-0.305, , , , , , ,-0.406,-0.28,-108.369
 09:36:58.554,eb:33:2e:f9:57:b5, 2015-01-01 00:25:35.475,0.007,-0.006,0.992,0.366,-0.61,-0.244, , , , , , ,-0.406,-0.28,-108.369
 09:36:58.554,eb:33:2e:f9:57:b5, 2015-01-01 00:25:35.475,0.009,-0.005,0.992,0.366,-0.671,-0.244, , , , , , ,-0.406,-0.28,-108.369
 09:36:58.554,eb:33:2e:f9:57:b5, 2015-01-01 00:25:35.475,0.01,-0.003,0.993,0.427,-0.671,-0.244, , , , , , ,-0.406,-0.28,-108.369
 09:36:58.555,eb:33:2e:f9:57:b5, 2015-01-01 00:25:35.475,0.011,-0.005,0.996,0.366,-0.61,-0.244, , , , , , ,-0.406,-0.28,-108.369
 09:36:58.555,eb:33:2e:f9:57:b5, 2015-01-01 00:25:35.475,0.01,-0.002,0.995,0.366,-0.427,-0.183, , , , , , ,-0.406,-0.28,-108.369
 09:36:58.555,eb:33:2e:f9:57:b5, 2015-01-01 00:25:35.475,0.009,-0.002,0.993,0.244,-0.366,-0.183, , , , , , ,-0.406,-0.28,-108.369
 09:36:58.598,eb:33:2e:f9:57:b5, 2015-01-01 00:25:35.475,0.009,-0.003,0.992,0.244,-0.366,-0.244, , , , , , ,-0.406,-0.286,-108.369
 09:36:58.598,eb:33:2e:f9:57:b5, 2015-01-01 00:25:35.475,0.009,-0.004,0.994,0.183,-0.305,-0.244, , , , , , ,-0.406,-0.286,-108.369
 09:36:58.598,eb:33:2e:f9:57:b5, 2015-01-01 00:25:35.475,0.008,-0.004,0.993,0.122,-0.244,-0.305, , , , , , ,-0.406,-0.286,-108.369
 09:36:58.598,eb:33:2e:f9:57:b5, 2015-01-01 00:25:35.475,0.009,-0.004,0.992,0.061,-0.244,-0.244, , , , , , ,-0.406,-0.286,-108.369
 09:36:58.598,eb:33:2e:f9:57:b5, 2015-01-01 00:25:35.475,0.01,-0.004,0.993,0,-0.183,-0.183, , , , , , ,-0.406,-0.286,-108.369
 09:36:58.598,eb:33:2e:f9:57:b5, 2015-01-01 00:25:35.475,0.01,-0.004,0.993,0.061,-0.183,-0.244, , , , , , ,-0.406,-0.286,-108.369
 09:36:58.599,eb:33:2e:f9:57:b5, 2015-01-01 00:25:35.475,0.009,-0.006,0.994,0.061,-0.183,-0.244, , , , , , ,-0.406,-0.286,-108.369
 09:36:58.599,eb:33:2e:f9:57:b5, 2015-01-01 00:25:35.475,0.008,-0.006,0.995,0.061,-0.122,-0.183, , , , , , ,-0.406,-0.286,-108.369
 09:36:58.621,eb:33:2e:f9:57:b5, 2015-01-01 00:25:35.475,0.006,-0.004,0.994,0.061,-0.061,-0.183, , , , , , ,-0.406,-0.286,-108.369
 09:36:58.621,eb:33:2e:f9:57:b5, 2015-01-01 00:25:35.475,0.008,-0.004,0.993,0.061,-0.122,-0.122, , , , , , ,-0.406,-0.286,-108.369
 09:36:58.621,eb:33:2e:f9:57:b5, 2015-01-01 00:25:35.475,0.011,-0.004,0.994,0,-0.183,-0.122, , , , , , ,-0.406,-0.286,-108.369
 09:36:58.621,eb:33:2e:f9:57:b5, 2015-01-01 00:25:35.475,0.012,-0.005,0.996,0,-0.122,-0.183, , , , , , ,-0.406,-0.286,-108.369
 09:36:58.621,eb:33:2e:f9:57:b5, 2015-01-01 00:25:35.475,0.006,-0.007,0.995,0.061,0.122,-0.122, , , , , , ,-0.401,-0.286,-108.369
 09:36:58.621,eb:33:2e:f9:57:b5, 2015-01-01 00:25:35.475,0.004,-0.005,0.991,0,0,-0.061, , , , , , ,-0.401,-0.286,-108.369
 09:36:58.621,eb:33:2e:f9:57:b5, 2015-01-01 00:25:35.475,0.007,-0.004,0.991,0,-0.305,-0.061, , , , , , ,-0.401,-0.286,-108.369
 09:36:58.621,eb:33:2e:f9:57:b5, 2015-01-01 00:25:35.475,0.011,-0.004,0.993,0,-0.305,0, , , , , , ,-0.401,-0.286,-108.369
 09:36:58.666,eb:33:2e:f9:57:b5, 2015-01-01 00:25:35.475,0.011,-0.006,0.994,0,-0.183,0, , , , , , ,-0.401,-0.286,-108.369
 09:36:58.666,eb:33:2e:f9:57:b5, 2015-01-01 00:25:35.475,0.01,-0.005,0.996,0.061,-0.061,0, , , , , , ,-0.401,-0.286,-108.369
 09:36:58.666,eb:33:2e:f9:57:b5, 2015-01-01 00:25:35.475,0.009,-0.006,0.995,0.061,-0.061,-0.122, , , , , , ,-0.401,-0.286,-108.369
 09:36:58.666,eb:33:2e:f9:57:b5, 2015-01-01 00:25:35.475,0.007,-0.005,0.994,0.122,-0.061,0, , , , , , ,-0.401,-0.286,-108.369
 09:36:58.666,eb:33:2e:f9:57:b5, 2015-01-01 00:25:35.475,0.008,-0.005,0.993,0.122,-0.183,0, , , , , , ,-0.401,-0.291,-108.369
 09:36:58.666,eb:33:2e:f9:57:b5, 2015-01-01 00:25:35.475,0.011,-0.004,0.993,0.061,-0.183,0, , , , , , ,-0.401,-0.291,-108.369
 09:36:58.666,eb:33:2e:f9:57:b5, 2015-01-01 00:25:35.475,0.01,-0.003,0.994,0.061,-0.122,-0.061, , , , , , ,-0.401,-0.291,-108.369
 09:36:58.667,eb:33:2e:f9:57:b5, 2015-01-01 00:25:35.475,0.009,-0.004,0.994,0,0,-0.061, , , , , , ,-0.401,-0.291,-108.369
 09:36:58.710,eb:33:2e:f9:57:b5, 2015-01-01 00:25:35.475,0.01,-0.004,0.994,0,-0.061,-0.061, , , , , , ,-0.401,-0.291,-108.369
 09:36:58.710,eb:33:2e:f9:57:b5, 2015-01-01 00:25:35.475,0.009,-0.004,0.993,0,-0.061,-0.061, , , , , , ,-0.401,-0.291,-108.369
 09:36:58.710,eb:33:2e:f9:57:b5, 2015-01-01 00:25:35.475,0.008,-0.005,0.993,0,0,-0.061, , , , , , ,-0.401,-0.291,-108.369
 09:36:58.710,eb:33:2e:f9:57:b5, 2015-01-01 00:25:35.475,0.01,-0.005,0.993,0,-0.061,0, , , , , , ,-0.401,-0.291,-108.369
 09:36:58.710,eb:33:2e:f9:57:b5, 2015-01-01 00:25:35.475,0.01,-0.005,0.994,0,-0.061,0, , , , , , ,-0.401,-0.291,-108.369
 09:36:58.710,eb:33:2e:f9:57:b5, 2015-01-01 00:25:35.475,0.009,-0.005,0.994,0,-0.061,0, , , , , , ,-0.401,-0.291,-108.369
 09:36:58.710,eb:33:2e:f9:57:b5, 2015-01-01 00:25:35.475,0.01,-0.005,0.994,0,-0.061,0, , , , , , ,-0.401,-0.291,-108.369
 09:36:58.710,eb:33:2e:f9:57:b5, 2015-01-01 00:25:35.475,0.01,-0.005,0.993,0,0,0, , , , , , ,-0.401,-0.291,-108.369
 09:36:58.755,eb:33:2e:f9:57:b5, 2015-01-01 00:25:35.475,0.01,-0.004,0.992,-0.061,0,0, , , , , , ,-0.401,-0.291,-108.369
 09:36:58.755,eb:33:2e:f9:57:b5, 2015-01-01 00:25:35.475,0.009,-0.004,0.994,-0.061,0,0, , , , , , ,-0.401,-0.291,-108.369
 09:36:58.755,eb:33:2e:f9:57:b5, 2015-01-01 00:25:35.475,0.008,-0.006,0.994,-0.061,0,0, , , , , , ,-0.401,-0.291,-108.369
 09:36:58.755,eb:33:2e:f9:57:b5, 2015-01-01 00:25:35.475,0.01,-0.005,0.994,0,0,0, , , , , , ,-0.401,-0.291,-108.369
 09:36:58.755,eb:33:2e:f9:57:b5, 2015-01-01 00:25:35.475,0.009,-0.005,0.994,0,0,0, , , , , , ,-0.401,-0.297,-108.369
 09:36:58.755,eb:33:2e:f9:57:b5, 2015-01-01 00:25:35.475,0.008,-0.005,0.993,0,0,-0.061, , , , , , ,-0.401,-0.297,-108.369
 09:36:58.755,eb:33:2e:f9:57:b5, 2015-01-01 00:25:35.475,0.008,-0.005,0.994,0,0,0, , , , , , ,-0.401,-0.297,-108.369
 09:36:58.755,eb:33:2e:f9:57:b5, 2015-01-01 00:25:35.475,0.01,-0.006,0.994,0,0,-0.061, , , , , , ,-0.401,-0.297,-108.369
 09:36:58.778,eb:33:2e:f9:57:b5, 2015-01-01 00:25:35.765,0.009,-0.005,0.995,0.061,0,-0.061, , , , , , ,-0.401,-0.297,-108.369
 09:36:58.778,eb:33:2e:f9:57:b5, 2015-01-01 00:25:35.765,0.009,-0.005,0.995,0.061,0,0, , , , , , ,-0.401,-0.297,-108.369
 09:36:58.778,eb:33:2e:f9:57:b5, 2015-01-01 00:25:35.765,0.009,-0.005,0.995,0.122,0,-0.061, , , , , , ,-0.401,-0.297,-108.369
 09:36:58.778,eb:33:2e:f9:57:b5, 2015-01-01 00:25:35.765,0.009,-0.006,0.994,0.122,0,-0.061, , , , , , ,-0.401,-0.297,-108.369
 09:36:58.778,eb:33:2e:f9:57:b5, 2015-01-01 00:25:35.765,0.01,-0.005,0.993,0.122,0,-0.061, , , , , , ,-0.401,-0.297,-108.369
 09:36:58.778,eb:33:2e:f9:57:b5, 2015-01-01 00:25:35.765,0.009,-0.005,0.993,0.122,0,0, , , , , , ,-0.401,-0.297,-108.369
 09:36:58.778,eb:33:2e:f9:57:b5, 2015-01-01 00:25:35.765,0.01,-0.006,0.993,0.122,0,0, , , , , , ,-0.401,-0.297,-108.369
 09:36:58.778,eb:33:2e:f9:57:b5, 2015-01-01 00:25:35.765,0.01,-0.006,0.995,0.122,0,0, , , , , , ,-0.401,-0.297,-108.369
 09:36:58.845,eb:33:2e:f9:57:b5, 2015-01-01 00:25:35.765,0.008,-0.005,0.995,0.122,0,-0.061, , , , , , ,-0.396,-0.302,-108.369
 09:36:58.845,eb:33:2e:f9:57:b5, 2015-01-01 00:25:35.765,0.009,-0.004,0.994,0.122,0,0, , , , , , ,-0.396,-0.302,-108.369
 09:36:58.845,eb:33:2e:f9:57:b5, 2015-01-01 00:25:35.765,0.009,-0.004,0.994,0.061,0,0, , , , , , ,-0.396,-0.297,-108.369
 09:36:58.845,eb:33:2e:f9:57:b5, 2015-01-01 00:25:35.765,0.009,-0.005,0.994,0.061,0,0, , , , , , ,-0.396,-0.297,-108.369
 09:36:58.845,eb:33:2e:f9:57:b5, 2015-01-01 00:25:35.765,0.009,-0.004,0.994,0.122,0,0, , , , , , ,-0.396,-0.302,-108.369
 09:36:58.845,eb:33:2e:f9:57:b5, 2015-01-01 00:25:35.765,0.009,-0.004,0.992,0.061,0,0, , , , , , ,-0.396,-0.302,-108.369
 09:36:58.846,eb:33:2e:f9:57:b5, 2015-01-01 00:25:35.765,0.009,-0.004,0.992,0.061,0,0, , , , , , ,-0.396,-0.302,-108.369
 09:36:58.846,eb:33:2e:f9:57:b5, 2015-01-01 00:25:35.765,0.009,-0.004,0.992,0,0,0, , , , , , ,-0.396,-0.302,-108.369
 09:36:58.868,eb:33:2e:f9:57:b5, 2015-01-01 00:25:35.765,0.009,-0.004,0.992,0,0,0, , , , , , ,-0.396,-0.302,-108.369
 09:36:58.868,eb:33:2e:f9:57:b5, 2015-01-01 00:25:35.765,0.009,-0.006,0.993,0,0,0, , , , , , ,-0.396,-0.302,-108.369
 09:36:58.868,eb:33:2e:f9:57:b5, 2015-01-01 00:25:35.765,0.01,-0.006,0.994,0,0,-0.061, , , , , , ,-0.396,-0.302,-108.369
 09:36:58.868,eb:33:2e:f9:57:b5, 2015-01-01 00:25:35.765,0.01,-0.006,0.994,0.061,0,0, , , , , , ,-0.396,-0.302,-108.369
 09:36:58.868,eb:33:2e:f9:57:b5, 2015-01-01 00:25:35.765,0.01,-0.005,0.995,0,0,0, , , , , , ,-0.396,-0.302,-108.369
 09:36:58.868,eb:33:2e:f9:57:b5, 2015-01-01 00:25:35.765,0.009,-0.005,0.995,0,0,0, , , , , , ,-0.396,-0.302,-108.369
 09:36:58.868,eb:33:2e:f9:57:b5, 2015-01-01 00:25:35.765,0.01,-0.006,0.995,0.061,0,0, , , , , , ,-0.396,-0.302,-108.369
 09:36:58.868,eb:33:2e:f9:57:b5, 2015-01-01 00:25:35.765,0.01,-0.005,0.994,0.061,0,0, , , , , , ,-0.396,-0.302,-108.369
 09:36:58.913,eb:33:2e:f9:57:b5, 2015-01-01 00:25:35.765,0.01,-0.005,0.995,0.061,0,0, , , , , , ,-0.396,-0.308,-108.369
 09:36:58.913,eb:33:2e:f9:57:b5, 2015-01-01 00:25:35.765,0.011,-0.005,0.994,0.061,0,0, , , , , , ,-0.396,-0.308,-108.369
 09:36:58.913,eb:33:2e:f9:57:b5, 2015-01-01 00:25:35.765,0.011,-0.005,0.994,0,0.061,0, , , , , , ,-0.396,-0.308,-108.369
 09:36:58.913,eb:33:2e:f9:57:b5, 2015-01-01 00:25:35.765,0.01,-0.005,0.994,0.061,0.122,0, , , , , , ,-0.396,-0.308,-108.369
 09:36:58.913,eb:33:2e:f9:57:b5, 2015-01-01 00:25:35.765,0.009,-0.006,0.993,0.061,0.183,0, , , , , , ,-0.396,-0.308,-108.369
 09:36:58.913,eb:33:2e:f9:57:b5, 2015-01-01 00:25:35.765,0.008,-0.006,0.994,0.061,0.183,0.061, , , , , , ,-0.396,-0.308,-108.369
 09:36:58.913,eb:33:2e:f9:57:b5, 2015-01-01 00:25:35.765,0.009,-0.005,0.993,0.122,0.183,0.061, , , , , , ,-0.396,-0.308,-108.369
 09:36:58.913,eb:33:2e:f9:57:b5, 2015-01-01 00:25:35.765,0.009,-0.004,0.994,0.061,0.122,0.061, , , , , , ,-0.396,-0.308,-108.369
 09:36:58.935,eb:33:2e:f9:57:b5, 2015-01-01 00:25:35.765,0.009,-0.004,0.994,0.061,0.122,0.061, , , , , , ,-0.396,-0.308,-108.369
 09:36:58.935,eb:33:2e:f9:57:b5, 2015-01-01 00:25:35.765,0.009,-0.004,0.994,0.061,0.183,0.061, , , , , , ,-0.396,-0.308,-108.369
 09:36:58.935,eb:33:2e:f9:57:b5, 2015-01-01 00:25:35.765,0.009,-0.005,0.994,0.122,0.122,0.061, , , , , , ,-0.396,-0.308,-108.369
 09:36:58.935,eb:33:2e:f9:57:b5, 2015-01-01 00:25:35.765,0.01,-0.005,0.994,0.061,0.061,0.061, , , , , , ,-0.396,-0.308,-108.369
 09:36:58.935,eb:33:2e:f9:57:b5, 2015-01-01 00:25:35.765,0.009,-0.005,0.994,0.061,0.122,0.061, , , , , , ,-0.396,-0.308,-108.369
 09:36:58.935,eb:33:2e:f9:57:b5, 2015-01-01 00:25:35.765,0.01,-0.005,0.994,0.061,0.183,0.061, , , , , , ,-0.396,-0.308,-108.369
 09:36:58.935,eb:33:2e:f9:57:b5, 2015-01-01 00:25:35.765,0.01,-0.005,0.994,0.122,0.183,0.122, , , , , , ,-0.396,-0.308,-108.369
 09:36:58.935,eb:33:2e:f9:57:b5, 2015-01-01 00:25:35.765,0.011,-0.005,0.994,0.061,0.183,0.061, , , , , , ,-0.396,-0.308,-108.369
 09:36:58.979,eb:33:2e:f9:57:b5, 2015-01-01 00:25:35.765,0.01,-0.005,0.993,0.122,0.183,0.061, , , , , , ,-0.396,-0.313,-108.369
 09:36:58.979,eb:33:2e:f9:57:b5, 2015-01-01 00:25:35.765,0.009,-0.005,0.992,0,0.244,0, , , , , , ,-0.396,-0.313,-108.369
 09:36:58.979,eb:33:2e:f9:57:b5, 2015-01-01 00:25:35.765,0.01,-0.005,0.993,0,0.183,0.061, , , , , , ,-0.396,-0.313,-108.369
 09:36:58.979,eb:33:2e:f9:57:b5, 2015-01-01 00:25:35.765,0.01,-0.005,0.994,0,0.244,0.061, , , , , , ,-0.396,-0.313,-108.369
 09:36:58.979,eb:33:2e:f9:57:b5, 2015-01-01 00:25:35.765,0.01,-0.006,0.994,0,0.305,0, , , , , , ,-0.396,-0.313,-108.369
 09:36:58.979,eb:33:2e:f9:57:b5, 2015-01-01 00:25:35.765,0.009,-0.006,0.996,0,0.305,0, , , , , , ,-0.396,-0.313,-108.369
 09:36:58.979,eb:33:2e:f9:57:b5, 2015-01-01 00:25:35.765,0.009,-0.005,0.996,0.061,0.305,0.061, , , , , , ,-0.396,-0.313,-108.369
 09:36:58.979,eb:33:2e:f9:57:b5, 2015-01-01 00:25:35.765,0.009,-0.004,0.994,0.061,0.366,0, , , , , , ,-0.396,-0.313,-108.369
 09:36:59.025,eb:33:2e:f9:57:b5, 2015-01-01 00:25:35.765,0.008,-0.004,0.993,0.061,0.427,0.061, , , , , , ,-0.39,-0.313,-108.369
 09:36:59.025,eb:33:2e:f9:57:b5, 2015-01-01 00:25:35.765,0.006,-0.006,0.992,0.061,0.305,0, , , , , , ,-0.39,-0.313,-108.369
 09:36:59.025,eb:33:2e:f9:57:b5, 2015-01-01 00:25:35.765,0.006,-0.008,0.992,0.061,0.183,0, , , , , , ,-0.39,-0.313,-108.369
 09:36:59.025,eb:33:2e:f9:57:b5, 2015-01-01 00:25:35.765,0.009,-0.007,0.994,0.122,0.061,0, , , , , , ,-0.39,-0.313,-108.369
 09:36:59.025,eb:33:2e:f9:57:b5, 2015-01-01 00:25:35.765,0.008,-0.006,0.995,0.244,0,0, , , , , , ,-0.39,-0.313,-108.369
 09:36:59.025,eb:33:2e:f9:57:b5, 2015-01-01 00:25:35.765,0.008,-0.006,0.995,0.183,0.061,0, , , , , , ,-0.39,-0.313,-108.369
 09:36:59.025,eb:33:2e:f9:57:b5, 2015-01-01 00:25:35.765,0.008,-0.006,0.994,0.244,0.061,0.061, , , , , , ,-0.39,-0.313,-108.369
 09:36:59.025,eb:33:2e:f9:57:b5, 2015-01-01 00:25:35.765,0.009,-0.006,0.993,0.244,0.061,0.061, , , , , , ,-0.39,-0.313,-108.369
 09:36:59.071,eb:33:2e:f9:57:b5, 2015-01-01 00:25:35.765,0.01,-0.006,0.993,0.244,0,0.061, , , , , , ,-0.39,-0.313,-108.369
 09:36:59.071,eb:33:2e:f9:57:b5, 2015-01-01 00:25:35.765,0.01,-0.005,0.993,0.244,0.061,0.061, , , , , , ,-0.39,-0.313,-108.369
 09:36:59.071,eb:33:2e:f9:57:b5, 2015-01-01 00:25:35.765,0.01,-0.005,0.994,0.183,0.183,0.061, , , , , , ,-0.39,-0.313,-108.369
 09:36:59.071,eb:33:2e:f9:57:b5, 2015-01-01 00:25:35.765,0.011,-0.004,0.994,0.183,0.183,0, , , , , , ,-0.39,-0.313,-108.369
 09:36:59.071,eb:33:2e:f9:57:b5, 2015-01-01 00:25:35.765,0.01,-0.004,0.994,0.183,0.244,0.061, , , , , , ,-0.39,-0.319,-108.369
 09:36:59.071,eb:33:2e:f9:57:b5, 2015-01-01 00:25:35.765,0.01,-0.005,0.993,0.122,0.244,0.061, , , , , , ,-0.39,-0.319,-108.369
 09:36:59.071,eb:33:2e:f9:57:b5, 2015-01-01 00:25:35.765,0.01,-0.005,0.993,0.122,0.244,0.061, , , , , , ,-0.39,-0.319,-108.369
 09:36:59.071,eb:33:2e:f9:57:b5, 2015-01-01 00:25:35.765,0.009,-0.004,0.995,0.183,0.305,0.061, , , , , , ,-0.39,-0.319,-108.369
 09:36:59.115,eb:33:2e:f9:57:b5, 2015-01-01 00:25:36.080,0.009,-0.004,0.994,0.122,0.305,0.061, , , , , , ,-0.39,-0.319,-108.369
 09:36:59.115,eb:33:2e:f9:57:b5, 2015-01-01 00:25:36.080,0.009,-0.004,0.993,0.122,0.305,0.061, , , , , , ,-0.39,-0.319,-108.369
 09:36:59.115,eb:33:2e:f9:57:b5, 2015-01-01 00:25:36.080,0.009,-0.005,0.992,0.061,0.305,0.061, , , , , , ,-0.39,-0.319,-108.369
 09:36:59.115,eb:33:2e:f9:57:b5, 2015-01-01 00:25:36.080,0.009,-0.005,0.993,0,0.305,0.061, , , , , , ,-0.39,-0.319,-108.369
 09:36:59.115,eb:33:2e:f9:57:b5, 2015-01-01 00:25:36.080,0.009,-0.004,0.993,0,0.305,0.061, , , , , , ,-0.39,-0.319,-108.369
 09:36:59.115,eb:33:2e:f9:57:b5, 2015-01-01 00:25:36.080,0.009,-0.005,0.993,0,0.305,0.061, , , , , , ,-0.39,-0.319,-108.369
 09:36:59.115,eb:33:2e:f9:57:b5, 2015-01-01 00:25:36.080,0.009,-0.005,0.993,0.061,0.305,0.061, , , , , , ,-0.39,-0.319,-108.369
 09:36:59.115,eb:33:2e:f9:57:b5, 2015-01-01 00:25:36.080,0.009,-0.005,0.994,0,0.305,0.061, , , , , , ,-0.39,-0.319,-108.369
 09:36:59.137,eb:33:2e:f9:57:b5, 2015-01-01 00:25:36.080,0.009,-0.005,0.994,0,0.366,0.061, , , , , , ,-0.39,-0.319,-108.369
 09:36:59.137,eb:33:2e:f9:57:b5, 2015-01-01 00:25:36.080,0.011,-0.005,0.995,0.061,0.366,0, , , , , , ,-0.39,-0.319,-108.369
 09:36:59.137,eb:33:2e:f9:57:b5, 2015-01-01 00:25:36.080,0.01,-0.006,0.995,0.122,0.488,0.061, , , , , , ,-0.39,-0.319,-108.369
 09:36:59.137,eb:33:2e:f9:57:b5, 2015-01-01 00:25:36.080,0.009,-0.006,0.996,0.122,0.488,0.061, , , , , , ,-0.39,-0.319,-108.369
 09:36:59.137,eb:33:2e:f9:57:b5, 2015-01-01 00:25:36.080,0.009,-0.005,0.995,0.183,0.61,0.061, , , , , , ,-0.39,-0.324,-108.369
 09:36:59.137,eb:33:2e:f9:57:b5, 2015-01-01 00:25:36.080,0.009,-0.005,0.993,0.122,0.61,0.061, , , , , , ,-0.39,-0.324,-108.369
 09:36:59.137,eb:33:2e:f9:57:b5, 2015-01-01 00:25:36.080,0.009,-0.005,0.994,0.122,0.61,0.061, , , , , , ,-0.39,-0.324,-108.369
 09:36:59.137,eb:33:2e:f9:57:b5, 2015-01-01 00:25:36.080,0.009,-0.005,0.996,0.122,0.671,0.061, , , , , , ,-0.39,-0.324,-108.369
 09:36:59.182,eb:33:2e:f9:57:b5, 2015-01-01 00:25:36.080,0.008,-0.006,0.995,0.183,0.671,0.061, , , , , , ,-0.39,-0.324,-108.369
 09:36:59.182,eb:33:2e:f9:57:b5, 2015-01-01 00:25:36.080,0.007,-0.005,0.994,0.183,0.671,0.061, , , , , , ,-0.39,-0.324,-108.369
 09:36:59.182,eb:33:2e:f9:57:b5, 2015-01-01 00:25:36.080,0.007,-0.005,0.994,0.183,0.549,0.122, , , , , , ,-0.39,-0.324,-108.369
 09:36:59.182,eb:33:2e:f9:57:b5, 2015-01-01 00:25:36.080,0.01,-0.006,0.995,0.244,0.549,0.061, , , , , , ,-0.39,-0.324,-108.369
 09:36:59.182,eb:33:2e:f9:57:b5, 2015-01-01 00:25:36.080,0.011,-0.007,0.996,0.244,0.671,0.183, , , , , , ,-0.39,-0.324,-108.369
 09:36:59.182,eb:33:2e:f9:57:b5, 2015-01-01 00:25:36.080,0.006,-0.003,0.994,0.244,0.732,0.183, , , , , , ,-0.39,-0.324,-108.369
 09:36:59.182,eb:33:2e:f9:57:b5, 2015-01-01 00:25:36.080,0.005,-0.004,0.991,0.183,0.671,0.122, , , , , , ,-0.39,-0.324,-108.369
 09:36:59.183,eb:33:2e:f9:57:b5, 2015-01-01 00:25:36.080,0.008,-0.003,0.99,0.122,0.488,0.183, , , , , , ,-0.39,-0.324,-108.369
 09:36:59.227,eb:33:2e:f9:57:b5, 2015-01-01 00:25:36.080,0.008,-0.005,0.993,0.122,0.488,0.061, , , , , , ,-0.39,-0.324,-108.369
 09:36:59.227,eb:33:2e:f9:57:b5, 2015-01-01 00:25:36.080,0.009,-0.005,0.993,0.122,0.427,0.122, , , , , , ,-0.39,-0.324,-108.369
 09:36:59.227,eb:33:2e:f9:57:b5, 2015-01-01 00:25:36.080,0.008,-0.005,0.994,0.122,0.549,0.183, , , , , , ,-0.39,-0.324,-108.369
 09:36:59.227,eb:33:2e:f9:57:b5, 2015-01-01 00:25:36.080,0.007,-0.005,0.993,0.061,0.488,0.122, , , , , , ,-0.39,-0.324,-108.369
 09:36:59.227,eb:33:2e:f9:57:b5, 2015-01-01 00:25:36.080,0.007,-0.005,0.993,0.061,0.549,0.122, , , , , , ,-0.39,-0.324,-108.369
 09:36:59.227,eb:33:2e:f9:57:b5, 2015-01-01 00:25:36.080,0.006,-0.005,0.992,0.122,0.488,0.122, , , , , , ,-0.39,-0.324,-108.369
 09:36:59.227,eb:33:2e:f9:57:b5, 2015-01-01 00:25:36.080,0.007,-0.006,0.994,0.122,0.488,0.122, , , , , , ,-0.39,-0.324,-108.369
 09:36:59.227,eb:33:2e:f9:57:b5, 2015-01-01 00:25:36.080,0.007,-0.006,0.995,0.183,0.488,0.183, , , , , , ,-0.39,-0.324,-108.369
 09:36:59.274,eb:33:2e:f9:57:b5, 2015-01-01 00:25:36.080,0.007,-0.006,0.995,0.183,0.366,0.122, , , , , , ,-0.385,-0.33,-108.369
 09:36:59.274,eb:33:2e:f9:57:b5, 2015-01-01 00:25:36.080,0.008,-0.006,0.993,0.244,0.427,0.122, , , , , , ,-0.385,-0.33,-108.369
 09:36:59.274,eb:33:2e:f9:57:b5, 2015-01-01 00:25:36.080,0.007,-0.004,0.993,0.183,0.366,0.122, , , , , , ,-0.385,-0.33,-108.369
 09:36:59.274,eb:33:2e:f9:57:b5, 2015-01-01 00:25:36.080,0.008,-0.005,0.992,0.183,0.366,0.122, , , , , , ,-0.385,-0.33,-108.369
 09:36:59.274,eb:33:2e:f9:57:b5, 2015-01-01 00:25:36.080,0.008,-0.004,0.992,0.122,0.305,0.122, , , , , , ,-0.385,-0.33,-108.369
 09:36:59.274,eb:33:2e:f9:57:b5, 2015-01-01 00:25:36.080,0.008,-0.004,0.993,0.122,0.366,0.061, , , , , , ,-0.385,-0.33,-108.369
 09:36:59.274,eb:33:2e:f9:57:b5, 2015-01-01 00:25:36.080,0.007,-0.004,0.995,0.122,0.366,0.061, , , , , , ,-0.385,-0.33,-108.369
 09:36:59.274,eb:33:2e:f9:57:b5, 2015-01-01 00:25:36.080,0.008,-0.005,0.995,0.061,0.366,0.061, , , , , , ,-0.385,-0.33,-108.369
 09:36:59.318,eb:33:2e:f9:57:b5, 2015-01-01 00:25:36.080,0.007,-0.005,0.995,0.122,0.427,0.122, , , , , , ,-0.385,-0.33,-108.369
 09:36:59.318,eb:33:2e:f9:57:b5, 2015-01-01 00:25:36.080,0.006,-0.004,0.994,0.122,0.366,0.061, , , , , , ,-0.385,-0.33,-108.369
 09:36:59.318,eb:33:2e:f9:57:b5, 2015-01-01 00:25:36.080,0.005,-0.006,0.994,0.122,0.427,0.122, , , , , , ,-0.385,-0.33,-108.369
 09:36:59.318,eb:33:2e:f9:57:b5, 2015-01-01 00:25:36.080,0.006,-0.004,0.992,0.061,0.305,0.061, , , , , , ,-0.385,-0.33,-108.369
 09:36:59.318,eb:33:2e:f9:57:b5, 2015-01-01 00:25:36.080,0.006,-0.004,0.992,0.061,0.244,0.061, , , , , , ,-0.385,-0.33,-108.369
 09:36:59.318,eb:33:2e:f9:57:b5, 2015-01-01 00:25:36.080,0.007,-0.004,0.991,0.061,0.061,0.122, , , , , , ,-0.385,-0.33,-108.369
 09:36:59.318,eb:33:2e:f9:57:b5, 2015-01-01 00:25:36.080,0.008,-0.004,0.994,0,0.122,0.122, , , , , , ,-0.385,-0.33,-108.369
 09:36:59.318,eb:33:2e:f9:57:b5, 2015-01-01 00:25:36.080,0.007,-0.004,0.993,0.061,0.061,0.122, , , , , , ,-0.385,-0.33,-108.369
 09:36:59.341,eb:33:2e:f9:57:b5, 2015-01-01 00:25:36.080,0.007,-0.005,0.993,0,0.061,0.122, , , , , , ,-0.385,-0.33,-108.369
 09:36:59.341,eb:33:2e:f9:57:b5, 2015-01-01 00:25:36.080,0.008,-0.005,0.993,0,0,0.061, , , , , , ,-0.385,-0.33,-108.369
 09:36:59.341,eb:33:2e:f9:57:b5, 2015-01-01 00:25:36.080,0.008,-0.005,0.994,0,0,0.122, , , , , , ,-0.385,-0.33,-108.369
 09:36:59.341,eb:33:2e:f9:57:b5, 2015-01-01 00:25:36.080,0.008,-0.005,0.994,-0.061,0.061,0.061, , , , , , ,-0.385,-0.33,-108.369
 09:36:59.341,eb:33:2e:f9:57:b5, 2015-01-01 00:25:36.080,0.007,-0.004,0.993,0,0,0.061, , , , , , ,-0.385,-0.33,-108.369
 09:36:59.341,eb:33:2e:f9:57:b5, 2015-01-01 00:25:36.080,0.008,-0.005,0.993,0,0.061,0.061, , , , , , ,-0.385,-0.33,-108.369
 09:36:59.341,eb:33:2e:f9:57:b5, 2015-01-01 00:25:36.080,0.008,-0.005,0.993,0,0.061,0.061, , , , , , ,-0.385,-0.33,-108.369
 09:36:59.341,eb:33:2e:f9:57:b5, 2015-01-01 00:25:36.080,0.009,-0.004,0.993,0,0.122,0, , , , , , ,-0.385,-0.33,-108.369
 09:36:59.385,eb:33:2e:f9:57:b5, 2015-01-01 00:25:36.080,0.008,-0.005,0.994,0,0.244,0, , , , , , ,-0.385,-0.33,-108.369
 09:36:59.385,eb:33:2e:f9:57:b5, 2015-01-01 00:25:36.080,0.007,-0.005,0.994,0,0.244,0, , , , , , ,-0.385,-0.33,-108.369
 09:36:59.385,eb:33:2e:f9:57:b5, 2015-01-01 00:25:36.080,0.007,-0.006,0.995,0,0.244,0, , , , , , ,-0.385,-0.33,-108.369
 09:36:59.385,eb:33:2e:f9:57:b5, 2015-01-01 00:25:36.080,0.008,-0.006,0.995,0.061,0.183,0, , , , , , ,-0.385,-0.33,-108.369
 09:36:59.385,eb:33:2e:f9:57:b5, 2015-01-01 00:25:36.080,0.006,-0.007,0.997,0.122,0.305,0, , , , , , ,-0.385,-0.33,-108.369
 09:36:59.385,eb:33:2e:f9:57:b5, 2015-01-01 00:25:36.080,0.006,-0.006,0.994,0.122,0.305,0, , , , , , ,-0.385,-0.33,-108.369
 09:36:59.385,eb:33:2e:f9:57:b5, 2015-01-01 00:25:36.080,0.007,-0.005,0.993,0.183,0.244,0, , , , , , ,-0.385,-0.33,-108.369
 09:36:59.386,eb:33:2e:f9:57:b5, 2015-01-01 00:25:36.080,0.006,-0.005,0.994,0.122,0.305,0, , , , , , ,-0.385,-0.33,-108.369
 09:36:59.430,eb:33:2e:f9:57:b5, 2015-01-01 00:25:36.370,0.006,-0.006,0.994,0.122,0.183,0, , , , , , ,-0.385,-0.33,-108.369
 09:36:59.430,eb:33:2e:f9:57:b5, 2015-01-01 00:25:36.370,0.006,-0.005,0.994,0.122,0.122,0, , , , , , ,-0.385,-0.33,-108.369
 09:36:59.430,eb:33:2e:f9:57:b5, 2015-01-01 00:25:36.370,0.006,-0.005,0.994,0.183,0.122,0, , , , , , ,-0.385,-0.33,-108.375
 09:36:59.430,eb:33:2e:f9:57:b5, 2015-01-01 00:25:36.370,0.006,-0.005,0.993,0.183,0.122,0, , , , , , ,-0.385,-0.33,-108.375
 09:36:59.430,eb:33:2e:f9:57:b5, 2015-01-01 00:25:36.370,0.006,-0.005,0.993,0.244,0.061,0, , , , , , ,-0.385,-0.33,-108.369
 09:36:59.430,eb:33:2e:f9:57:b5, 2015-01-01 00:25:36.370,0.006,-0.005,0.993,0.244,0,0, , , , , , ,-0.385,-0.33,-108.369
 09:36:59.430,eb:33:2e:f9:57:b5, 2015-01-01 00:25:36.370,0.008,-0.005,0.992,0.183,0,0, , , , , , ,-0.385,-0.33,-108.375
 09:36:59.430,eb:33:2e:f9:57:b5, 2015-01-01 00:25:36.370,0.008,-0.006,0.994,0.183,0,0, , , , , , ,-0.385,-0.33,-108.375
 09:36:59.474,eb:33:2e:f9:57:b5, 2015-01-01 00:25:36.370,0.008,-0.006,0.994,0.183,0,0, , , , , , ,-0.385,-0.335,-108.375
 09:36:59.474,eb:33:2e:f9:57:b5, 2015-01-01 00:25:36.370,0.007,-0.005,0.994,0.183,0.061,0, , , , , , ,-0.385,-0.335,-108.375
 09:36:59.474,eb:33:2e:f9:57:b5, 2015-01-01 00:25:36.370,0.008,-0.006,0.994,0.183,0.061,0, , , , , , ,-0.385,-0.335,-108.375
 09:36:59.474,eb:33:2e:f9:57:b5, 2015-01-01 00:25:36.370,0.008,-0.006,0.995,0.244,0.061,0, , , , , , ,-0.385,-0.335,-108.375
 09:36:59.474,eb:33:2e:f9:57:b5, 2015-01-01 00:25:36.370,0.007,-0.005,0.995,0.244,0.122,0, , , , , , ,-0.385,-0.335,-108.375
 09:36:59.474,eb:33:2e:f9:57:b5, 2015-01-01 00:25:36.370,0.007,-0.005,0.994,0.244,0.183,0, , , , , , ,-0.385,-0.335,-108.375
 09:36:59.475,eb:33:2e:f9:57:b5, 2015-01-01 00:25:36.370,0.008,-0.005,0.994,0.244,0.183,0, , , , , , ,-0.385,-0.335,-108.375
 09:36:59.475,eb:33:2e:f9:57:b5, 2015-01-01 00:25:36.370,0.007,-0.005,0.994,0.183,0.244,-0.061, , , , , , ,-0.385,-0.335,-108.375
 09:36:59.521,eb:33:2e:f9:57:b5, 2015-01-01 00:25:36.370,0.007,-0.005,0.993,0.183,0.183,-0.061, , , , , , ,-0.379,-0.335,-108.375
 09:36:59.521,eb:33:2e:f9:57:b5, 2015-01-01 00:25:36.370,0.008,-0.004,0.993,0.183,0.244,0, , , , , , ,-0.379,-0.335,-108.375
 09:36:59.521,eb:33:2e:f9:57:b5, 2015-01-01 00:25:36.370,0.007,-0.004,0.993,0.183,0.244,0, , , , , , ,-0.379,-0.335,-108.375
 09:36:59.521,eb:33:2e:f9:57:b5, 2015-01-01 00:25:36.370,0.008,-0.005,0.993,0.183,0.244,0, , , , , , ,-0.379,-0.335,-108.375
 09:36:59.521,eb:33:2e:f9:57:b5, 2015-01-01 00:25:36.370,0.008,-0.004,0.994,0.122,0.183,0, , , , , , ,-0.379,-0.335,-108.375
 09:36:59.521,eb:33:2e:f9:57:b5, 2015-01-01 00:25:36.370,0.008,-0.004,0.994,0.183,0.183,0, , , , , , ,-0.379,-0.335,-108.375
 09:36:59.521,eb:33:2e:f9:57:b5, 2015-01-01 00:25:36.370,0.007,-0.004,0.994,0.122,0.244,0, , , , , , ,-0.379,-0.335,-108.375
 09:36:59.521,eb:33:2e:f9:57:b5, 2015-01-01 00:25:36.370,0.005,-0.004,0.993,0.183,0.305,0, , , , , , ,-0.379,-0.335,-108.375
 09:36:59.542,eb:33:2e:f9:57:b5, 2015-01-01 00:25:36.370,0.006,-0.005,0.993,0.122,0.244,0, , , , , , ,-0.379,-0.335,-108.375
 09:36:59.542,eb:33:2e:f9:57:b5, 2015-01-01 00:25:36.370,0.006,-0.006,0.994,0.183,0.183,0, , , , , , ,-0.379,-0.335,-108.375
 09:36:59.542,eb:33:2e:f9:57:b5, 2015-01-01 00:25:36.370,0.006,-0.005,0.993,0.183,0.122,0, , , , , , ,-0.379,-0.335,-108.375
 09:36:59.542,eb:33:2e:f9:57:b5, 2015-01-01 00:25:36.370,0.006,-0.005,0.994,0.183,0.061,0, , , , , , ,-0.379,-0.335,-108.375
 09:36:59.542,eb:33:2e:f9:57:b5, 2015-01-01 00:25:36.370,0.007,-0.005,0.994,0.244,0.122,0, , , , , , ,-0.379,-0.335,-108.375
 09:36:59.542,eb:33:2e:f9:57:b5, 2015-01-01 00:25:36.370,0.006,-0.006,0.994,0.244,0.122,0, , , , , , ,-0.379,-0.335,-108.375
 09:36:59.543,eb:33:2e:f9:57:b5, 2015-01-01 00:25:36.370,0.005,-0.005,0.994,0.244,0.122,0, , , , , , ,-0.379,-0.335,-108.375
 09:36:59.543,eb:33:2e:f9:57:b5, 2015-01-01 00:25:36.370,0.007,-0.005,0.993,0.244,0,0, , , , , , ,-0.379,-0.335,-108.375
 09:36:59.590,eb:33:2e:f9:57:b5, 2015-01-01 00:25:36.370,0.007,-0.005,0.993,0.244,0,0, , , , , , ,-0.379,-0.335,-108.375
 09:36:59.590,eb:33:2e:f9:57:b5, 2015-01-01 00:25:36.370,0.006,-0.005,0.993,0.183,0.061,0, , , , , , ,-0.379,-0.335,-108.375
 09:36:59.590,eb:33:2e:f9:57:b5, 2015-01-01 00:25:36.370,0.007,-0.004,0.993,0.183,0,0, , , , , , ,-0.379,-0.335,-108.375
 09:36:59.590,eb:33:2e:f9:57:b5, 2015-01-01 00:25:36.370,0.007,-0.005,0.994,0.183,0,0, , , , , , ,-0.379,-0.335,-108.375
 09:36:59.590,eb:33:2e:f9:57:b5, 2015-01-01 00:25:36.370,0.006,-0.005,0.995,0.183,0,-0.061, , , , , , ,-0.379,-0.335,-108.375
 09:36:59.590,eb:33:2e:f9:57:b5, 2015-01-01 00:25:36.370,0.006,-0.005,0.995,0.183,0.061,0, , , , , , ,-0.379,-0.335,-108.375
 09:36:59.590,eb:33:2e:f9:57:b5, 2015-01-01 00:25:36.370,0.006,-0.006,0.994,0.244,0,0, , , , , , ,-0.379,-0.335,-108.375
 09:36:59.590,eb:33:2e:f9:57:b5, 2015-01-01 00:25:36.370,0.007,-0.006,0.994,0.244,0,0, , , , , , ,-0.379,-0.335,-108.375
 09:36:59.633,eb:33:2e:f9:57:b5, 2015-01-01 00:25:36.370,0.007,-0.005,0.994,0.244,0,0, , , , , , ,-0.379,-0.335,-108.375
 09:36:59.634,eb:33:2e:f9:57:b5, 2015-01-01 00:25:36.370,0.006,-0.005,0.994,0.244,0,0, , , , , , ,-0.379,-0.335,-108.375
 09:36:59.634,eb:33:2e:f9:57:b5, 2015-01-01 00:25:36.370,0.007,-0.004,0.994,0.183,0,0.061, , , , , , ,-0.379,-0.335,-108.375
 09:36:59.634,eb:33:2e:f9:57:b5, 2015-01-01 00:25:36.370,0.007,-0.005,0.993,0.183,-0.061,0.061, , , , , , ,-0.379,-0.335,-108.375
 09:36:59.634,eb:33:2e:f9:57:b5, 2015-01-01 00:25:36.370,0.008,-0.005,0.994,0.244,-0.061,0, , , , , , ,-0.379,-0.335,-108.375
 09:36:59.634,eb:33:2e:f9:57:b5, 2015-01-01 00:25:36.370,0.007,-0.005,0.994,0.244,-0.061,0, , , , , , ,-0.379,-0.335,-108.375
 09:36:59.634,eb:33:2e:f9:57:b5, 2015-01-01 00:25:36.370,0.007,-0.004,0.993,0.244,0,0, , , , , , ,-0.379,-0.335,-108.375
 09:36:59.634,eb:33:2e:f9:57:b5, 2015-01-01 00:25:36.370,0.007,-0.004,0.993,0.183,0,0, , , , , , ,-0.379,-0.335,-108.375
 09:36:59.678,eb:33:2e:f9:57:b5, 2015-01-01 00:25:36.370,0.007,-0.004,0.993,0.183,-0.061,0, , , , , , ,-0.379,-0.335,-108.375
 09:36:59.678,eb:33:2e:f9:57:b5, 2015-01-01 00:25:36.370,0.005,-0.005,0.993,0.244,-0.122,0, , , , , , ,-0.379,-0.335,-108.375
 09:36:59.678,eb:33:2e:f9:57:b5, 2015-01-01 00:25:36.370,0.007,-0.005,0.993,0.244,-0.122,0, , , , , , ,-0.379,-0.335,-108.375
 09:36:59.678,eb:33:2e:f9:57:b5, 2015-01-01 00:25:36.370,0.007,-0.005,0.994,0.244,-0.122,0, , , , , , ,-0.379,-0.335,-108.375
 09:36:59.678,eb:33:2e:f9:57:b5, 2015-01-01 00:25:36.370,0.007,-0.005,0.994,0.244,-0.122,0, , , , , , ,-0.379,-0.335,-108.375
 09:36:59.678,eb:33:2e:f9:57:b5, 2015-01-01 00:25:36.370,0.007,-0.004,0.994,0.183,-0.183,0, , , , , , ,-0.379,-0.335,-108.375
 09:36:59.678,eb:33:2e:f9:57:b5, 2015-01-01 00:25:36.370,0.007,-0.005,0.994,0.244,-0.122,0, , , , , , ,-0.379,-0.335,-108.375
 09:36:59.678,eb:33:2e:f9:57:b5, 2015-01-01 00:25:36.370,0.007,-0.003,0.992,0.183,-0.122,-0.061, , , , , , ,-0.379,-0.335,-108.375
 09:36:59.700,eb:33:2e:f9:57:b5, 2015-01-01 00:25:36.685,0.007,-0.003,0.992,0.183,-0.183,-0.061, , , , , , ,-0.379,-0.335,-108.375
 09:36:59.700,eb:33:2e:f9:57:b5, 2015-01-01 00:25:36.685,0.008,-0.003,0.992,0.061,-0.122,0, , , , , , ,-0.379,-0.335,-108.375
 09:36:59.700,eb:33:2e:f9:57:b5, 2015-01-01 00:25:36.685,0.008,-0.003,0.993,0.122,-0.122,-0.061, , , , , , ,-0.379,-0.335,-108.375
 09:36:59.702,eb:33:2e:f9:57:b5, 2015-01-01 00:25:36.685,0.008,-0.005,0.995,0.122,-0.061,-0.122, , , , , , ,-0.379,-0.335,-108.375
 09:36:59.702,eb:33:2e:f9:57:b5, 2015-01-01 00:25:36.685,0.006,-0.005,0.995,0.183,-0.061,-0.061, , , , , , ,-0.379,-0.335,-108.375
 09:36:59.702,eb:33:2e:f9:57:b5, 2015-01-01 00:25:36.685,0.007,-0.006,0.994,0.183,-0.122,-0.061, , , , , , ,-0.379,-0.335,-108.375
 09:36:59.702,eb:33:2e:f9:57:b5, 2015-01-01 00:25:36.685,0.006,-0.005,0.994,0.183,-0.122,0, , , , , , ,-0.379,-0.335,-108.375
 09:36:59.702,eb:33:2e:f9:57:b5, 2015-01-01 00:25:36.685,0.006,-0.005,0.993,0.244,-0.122,-0.061, , , , , , ,-0.379,-0.335,-108.375
 09:36:59.746,eb:33:2e:f9:57:b5, 2015-01-01 00:25:36.685,0.006,-0.004,0.993,0.183,-0.122,-0.122, , , , , , ,-0.374,-0.341,-108.375
 09:36:59.746,eb:33:2e:f9:57:b5, 2015-01-01 00:25:36.685,0.008,-0.004,0.993,0.183,-0.244,-0.122, , , , , , ,-0.374,-0.341,-108.375
 09:36:59.746,eb:33:2e:f9:57:b5, 2015-01-01 00:25:36.685,0.009,-0.004,0.994,0.183,-0.183,-0.061, , , , , , ,-0.374,-0.341,-108.375
 09:36:59.746,eb:33:2e:f9:57:b5, 2015-01-01 00:25:36.685,0.008,-0.004,0.994,0.183,-0.061,-0.061, , , , , , ,-0.374,-0.341,-108.375
 09:36:59.746,eb:33:2e:f9:57:b5, 2015-01-01 00:25:36.685,0.007,-0.004,0.994,0.183,-0.122,-0.061, , , , , , ,-0.374,-0.341,-108.375
 09:36:59.746,eb:33:2e:f9:57:b5, 2015-01-01 00:25:36.685,0.007,-0.005,0.994,0.183,-0.061,-0.061, , , , , , ,-0.374,-0.341,-108.375
 09:36:59.746,eb:33:2e:f9:57:b5, 2015-01-01 00:25:36.685,0.008,-0.004,0.994,0.122,-0.122,-0.061, , , , , , ,-0.374,-0.341,-108.375
 09:36:59.746,eb:33:2e:f9:57:b5, 2015-01-01 00:25:36.685,0.006,-0.005,0.995,0.244,-0.061,-0.061, , , , , , ,-0.374,-0.341,-108.375
 09:36:59.789,eb:33:2e:f9:57:b5, 2015-01-01 00:25:36.685,0.006,-0.005,0.995,0.244,0,-0.061, , , , , , ,-0.374,-0.341,-108.375
 09:36:59.789,eb:33:2e:f9:57:b5, 2015-01-01 00:25:36.685,0.007,-0.004,0.994,0.183,0,-0.061, , , , , , ,-0.374,-0.341,-108.375
 09:36:59.789,eb:33:2e:f9:57:b5, 2015-01-01 00:25:36.685,0.006,-0.004,0.994,0.244,-0.061,-0.061, , , , , , ,-0.374,-0.341,-108.375
 09:36:59.789,eb:33:2e:f9:57:b5, 2015-01-01 00:25:36.685,0.008,-0.005,0.994,0.244,-0.061,0, , , , , , ,-0.374,-0.341,-108.375
 09:36:59.789,eb:33:2e:f9:57:b5, 2015-01-01 00:25:36.685,0.009,-0.005,0.994,0.244,-0.061,0, , , , , , ,-0.374,-0.341,-108.375
 09:36:59.789,eb:33:2e:f9:57:b5, 2015-01-01 00:25:36.685,0.009,-0.005,0.995,0.244,-0.061,-0.122, , , , , , ,-0.374,-0.341,-108.375
 09:36:59.789,eb:33:2e:f9:57:b5, 2015-01-01 00:25:36.685,0.008,-0.005,0.995,0.244,0,-0.061, , , , , , ,-0.374,-0.341,-108.375
 09:36:59.789,eb:33:2e:f9:57:b5, 2015-01-01 00:25:36.685,0.008,-0.004,0.994,0.305,0,-0.061, , , , , , ,-0.374,-0.341,-108.375
 09:36:59.834,eb:33:2e:f9:57:b5, 2015-01-01 00:25:36.685,0.008,-0.005,0.994,0.305,0,-0.061, , , , , , ,-0.374,-0.341,-108.375
 09:36:59.834,eb:33:2e:f9:57:b5, 2015-01-01 00:25:36.685,0.009,-0.004,0.995,0.305,0,0, , , , , , ,-0.374,-0.341,-108.375
 09:36:59.834,eb:33:2e:f9:57:b5, 2015-01-01 00:25:36.685,0.008,-0.003,0.994,0.305,0.122,0, , , , , , ,-0.374,-0.341,-108.375
 09:36:59.834,eb:33:2e:f9:57:b5, 2015-01-01 00:25:36.685,0.008,-0.003,0.993,0.305,0.122,0, , , , , , ,-0.374,-0.341,-108.375
 09:36:59.834,eb:33:2e:f9:57:b5, 2015-01-01 00:25:36.685,0.008,-0.004,0.993,0.244,0.183,0, , , , , , ,-0.374,-0.341,-108.375
 09:36:59.834,eb:33:2e:f9:57:b5, 2015-01-01 00:25:36.685,0.008,-0.004,0.995,0.244,0.122,0, , , , , , ,-0.374,-0.341,-108.375
 09:36:59.834,eb:33:2e:f9:57:b5, 2015-01-01 00:25:36.685,0.008,-0.005,0.994,0.183,0.244,-0.061, , , , , , ,-0.374,-0.341,-108.375
 09:36:59.834,eb:33:2e:f9:57:b5, 2015-01-01 00:25:36.685,0.008,-0.004,0.994,0.244,0.183,0, , , , , , ,-0.374,-0.341,-108.375
 09:36:59.880,eb:33:2e:f9:57:b5, 2015-01-01 00:25:36.685,0.007,-0.005,0.995,0.183,0.305,-0.061, , , , , , ,-0.374,-0.341,-108.375
 09:36:59.880,eb:33:2e:f9:57:b5, 2015-01-01 00:25:36.685,0.006,-0.005,0.995,0.244,0.305,-0.061, , , , , , ,-0.374,-0.341,-108.375
 09:36:59.880,eb:33:2e:f9:57:b5, 2015-01-01 00:25:36.685,0.005,-0.005,0.993,0.244,0.244,-0.061, , , , , , ,-0.374,-0.341,-108.375
 09:36:59.880,eb:33:2e:f9:57:b5, 2015-01-01 00:25:36.685,0.006,-0.005,0.993,0.244,0.122,0, , , , , , ,-0.374,-0.341,-108.375
 09:36:59.880,eb:33:2e:f9:57:b5, 2015-01-01 00:25:36.685,0.008,-0.005,0.993,0.244,0.061,0, , , , , , ,-0.374,-0.341,-108.375
 09:36:59.880,eb:33:2e:f9:57:b5, 2015-01-01 00:25:36.685,0.007,-0.004,0.995,0.244,0.061,0, , , , , , ,-0.374,-0.341,-108.375
 09:36:59.880,eb:33:2e:f9:57:b5, 2015-01-01 00:25:36.685,0.007,-0.004,0.995,0.244,0.122,0, , , , , , ,-0.374,-0.341,-108.375
 09:36:59.880,eb:33:2e:f9:57:b5, 2015-01-01 00:25:36.685,0.006,-0.004,0.993,0.244,0.122,0, , , , , , ,-0.374,-0.341,-108.375
 09:36:59.902,eb:33:2e:f9:57:b5, 2015-01-01 00:25:36.685,0.005,-0.003,0.992,0.244,0,0, , , , , , ,-0.374,-0.341,-108.375
 09:36:59.902,eb:33:2e:f9:57:b5, 2015-01-01 00:25:36.685,0.007,-0.004,0.992,0.244,0,0, , , , , , ,-0.374,-0.341,-108.375
 09:36:59.902,eb:33:2e:f9:57:b5, 2015-01-01 00:25:36.685,0.007,-0.005,0.994,0.244,0,0, , , , , , ,-0.374,-0.341,-108.375
 09:36:59.902,eb:33:2e:f9:57:b5, 2015-01-01 00:25:36.685,0.007,-0.005,0.994,0.305,0,0.061, , , , , , ,-0.374,-0.341,-108.375
 09:36:59.902,eb:33:2e:f9:57:b5, 2015-01-01 00:25:36.685,0.007,-0.005,0.994,0.244,0,0, , , , , , ,-0.368,-0.341,-108.375
 09:36:59.902,eb:33:2e:f9:57:b5, 2015-01-01 00:25:36.685,0.007,-0.003,0.994,0.244,-0.061,0.122, , , , , , ,-0.368,-0.341,-108.375
 09:36:59.902,eb:33:2e:f9:57:b5, 2015-01-01 00:25:36.685,0.008,-0.004,0.993,0.244,-0.122,0.061, , , , , , ,-0.368,-0.341,-108.375
 09:36:59.902,eb:33:2e:f9:57:b5, 2015-01-01 00:25:36.685,0.008,-0.005,0.994,0.183,-0.122,0.061, , , , , , ,-0.368,-0.341,-108.375
 09:36:59.948,eb:33:2e:f9:57:b5, 2015-01-01 00:25:36.685,0.008,-0.004,0.994,0.244,-0.061,0.122, , , , , , ,-0.368,-0.346,-108.375
 09:36:59.948,eb:33:2e:f9:57:b5, 2015-01-01 00:25:36.685,0.007,-0.004,0.995,0.305,-0.122,0.122, , , , , , ,-0.368,-0.346,-108.375
 09:36:59.948,eb:33:2e:f9:57:b5, 2015-01-01 00:25:36.685,0.006,-0.004,0.995,0.305,-0.122,0.122, , , , , , ,-0.368,-0.346,-108.375
 09:36:59.948,eb:33:2e:f9:57:b5, 2015-01-01 00:25:36.685,0.006,-0.004,0.994,0.305,-0.183,0.122, , , , , , ,-0.368,-0.346,-108.375
 09:36:59.948,eb:33:2e:f9:57:b5, 2015-01-01 00:25:36.685,0.007,-0.004,0.993,0.305,-0.183,0.122, , , , , , ,-0.368,-0.346,-108.375
 09:36:59.948,eb:33:2e:f9:57:b5, 2015-01-01 00:25:36.685,0.007,-0.004,0.994,0.305,-0.183,0.122, , , , , , ,-0.368,-0.346,-108.375
 09:36:59.948,eb:33:2e:f9:57:b5, 2015-01-01 00:25:36.685,0.007,-0.004,0.994,0.305,-0.183,0.122, , , , , , ,-0.368,-0.346,-108.375
 09:36:59.948,eb:33:2e:f9:57:b5, 2015-01-01 00:25:36.685,0.007,-0.004,0.993,0.305,-0.183,0.122, , , , , , ,-0.368,-0.346,-108.375
 09:36:59.993,eb:33:2e:f9:57:b5, 2015-01-01 00:25:36.685,0.007,-0.004,0.993,0.244,-0.305,0.183, , , , , , ,-0.368,-0.346,-108.375
 09:36:59.993,eb:33:2e:f9:57:b5, 2015-01-01 00:25:36.685,0.007,-0.004,0.993,0.244,-0.366,0.183, , , , , , ,-0.368,-0.346,-108.375
 09:36:59.993,eb:33:2e:f9:57:b5, 2015-01-01 00:25:36.685,0.007,-0.004,0.994,0.244,-0.366,0.183, , , , , , ,-0.368,-0.346,-108.375
 09:36:59.993,eb:33:2e:f9:57:b5, 2015-01-01 00:25:36.685,0.008,-0.004,0.993,0.244,-0.366,0.122, , , , , , ,-0.368,-0.346,-108.375
 09:36:59.993,eb:33:2e:f9:57:b5, 2015-01-01 00:25:36.685,0.007,-0.003,0.993,0.244,-0.427,0.183, , , , , , ,-0.368,-0.346,-108.375
 09:36:59.993,eb:33:2e:f9:57:b5, 2015-01-01 00:25:36.685,0.008,-0.003,0.991,0.305,-0.427,0.183, , , , , , ,-0.368,-0.346,-108.375
 09:36:59.993,eb:33:2e:f9:57:b5, 2015-01-01 00:25:36.685,0.008,-0.003,0.992,0.244,-0.488,0.183, , , , , , ,-0.368,-0.346,-108.375
 09:36:59.993,eb:33:2e:f9:57:b5, 2015-01-01 00:25:36.685,0.007,-0.003,0.992,0.183,-0.488,0.244, , , , , , ,-0.368,-0.346,-108.375
 09:37:00.038,eb:33:2e:f9:57:b5, 2015-01-01 00:25:36.995,0.007,-0.003,0.992,0.122,-0.549,0.244, , , , , , ,-0.368,-0.346,-108.375
 09:37:00.038,eb:33:2e:f9:57:b5, 2015-01-01 00:25:36.995,0.008,-0.003,0.993,0.061,-0.61,0.183, , , , , , ,-0.368,-0.346,-108.375
 09:37:00.038,eb:33:2e:f9:57:b5, 2015-01-01 00:25:36.995,0.009,-0.004,0.993,0.122,-0.61,0.183, , , , , , ,-0.368,-0.346,-108.375
 09:37:00.038,eb:33:2e:f9:57:b5, 2015-01-01 00:25:36.995,0.01,-0.003,0.994,0.183,-0.549,0.183, , , , , , ,-0.368,-0.346,-108.375
 09:37:00.038,eb:33:2e:f9:57:b5, 2015-01-01 00:25:36.995,0.01,-0.003,0.994,0.183,-0.488,0.183, , , , , , ,-0.368,-0.346,-108.375
 09:37:00.038,eb:33:2e:f9:57:b5, 2015-01-01 00:25:36.995,0.008,-0.002,0.994,0.183,-0.366,0.183, , , , , , ,-0.368,-0.346,-108.375
 09:37:00.038,eb:33:2e:f9:57:b5, 2015-01-01 00:25:36.995,0.009,-0.002,0.994,0.183,-0.366,0.183, , , , , , ,-0.368,-0.346,-108.375
 09:37:00.038,eb:33:2e:f9:57:b5, 2015-01-01 00:25:36.995,0.01,-0.004,0.994,0.244,-0.366,0.061, , , , , , ,-0.368,-0.346,-108.375
 09:37:00.085,eb:33:2e:f9:57:b5, 2015-01-01 00:25:36.995,0.009,-0.004,0.995,0.244,-0.366,0.061, , , , , , ,-0.368,-0.346,-108.375
 09:37:00.085,eb:33:2e:f9:57:b5, 2015-01-01 00:25:36.995,0.01,-0.005,0.996,0.244,-0.244,0.061, , , , , , ,-0.368,-0.346,-108.375
 09:37:00.085,eb:33:2e:f9:57:b5, 2015-01-01 00:25:36.995,0.01,-0.005,0.996,0.366,-0.183,0.061, , , , , , ,-0.368,-0.346,-108.375
 09:37:00.085,eb:33:2e:f9:57:b5, 2015-01-01 00:25:36.995,0.007,-0.005,0.998,0.488,-0.061,0, , , , , , ,-0.368,-0.346,-108.375
 09:37:00.085,eb:33:2e:f9:57:b5, 2015-01-01 00:25:36.995,0.009,-0.005,0.995,0.427,-0.183,0.061, , , , , , ,-0.363,-0.346,-108.375
 09:37:00.085,eb:33:2e:f9:57:b5, 2015-01-01 00:25:36.995,0.009,-0.004,0.995,0.427,-0.122,0.122, , , , , , ,-0.363,-0.346,-108.375
 09:37:00.085,eb:33:2e:f9:57:b5, 2015-01-01 00:25:36.995,0.006,-0.004,0.996,0.427,-0.061,0.122, , , , , , ,-0.363,-0.346,-108.375
 09:37:00.085,eb:33:2e:f9:57:b5, 2015-01-01 00:25:36.995,0.006,-0.005,0.992,0.488,-0.122,0.122, , , , , , ,-0.363,-0.346,-108.375
 09:37:00.106,eb:33:2e:f9:57:b5, 2015-01-01 00:25:36.995,0.006,-0.005,0.993,0.549,-0.305,0.061, , , , , , ,-0.363,-0.346,-108.375
 09:37:00.106,eb:33:2e:f9:57:b5, 2015-01-01 00:25:36.995,0.007,-0.003,0.992,0.549,-0.427,0.061, , , , , , ,-0.363,-0.346,-108.375
 09:37:00.106,eb:33:2e:f9:57:b5, 2015-01-01 00:25:36.995,0.009,-0.003,0.993,0.549,-0.549,0.061, , , , , , ,-0.363,-0.346,-108.375
 09:37:00.106,eb:33:2e:f9:57:b5, 2015-01-01 00:25:36.995,0.009,-0.003,0.993,0.549,-0.488,0.061, , , , , , ,-0.363,-0.346,-108.375
 09:37:00.106,eb:33:2e:f9:57:b5, 2015-01-01 00:25:36.995,0.012,-0.002,0.991,0.549,-0.549,0.061, , , , , , ,-0.363,-0.352,-108.375
 09:37:00.106,eb:33:2e:f9:57:b5, 2015-01-01 00:25:36.995,0.014,-0.002,0.994,0.488,-0.427,0, , , , , , ,-0.363,-0.352,-108.375
 09:37:00.106,eb:33:2e:f9:57:b5, 2015-01-01 00:25:36.995,0.011,-0.003,0.996,0.488,-0.122,-0.122, , , , , , ,-0.363,-0.352,-108.375
 09:37:00.106,eb:33:2e:f9:57:b5, 2015-01-01 00:25:36.995,0.011,-0.004,0.995,0.549,-0.061,-0.183, , , , , , ,-0.363,-0.352,-108.375
 09:37:00.149,eb:33:2e:f9:57:b5, 2015-01-01 00:25:36.995,0.001,-0.003,0.994,0.61,0,-0.183, , , , , , ,-0.363,-0.352,-108.375
 09:37:00.149,eb:33:2e:f9:57:b5, 2015-01-01 00:25:36.995,0,-0.003,0.987,0.488,-0.366,-0.122, , , , , , ,-0.363,-0.352,-108.375
 09:37:00.149,eb:33:2e:f9:57:b5, 2015-01-01 00:25:36.995,0.002,-0.003,0.986,0.366,-0.854,-0.061, , , , , , ,-0.363,-0.352,-108.375
 09:37:00.149,eb:33:2e:f9:57:b5, 2015-01-01 00:25:36.995,0.015,-0.003,0.988,0.427,-1.16,-0.061, , , , , , ,-0.363,-0.352,-108.375
 09:37:00.149,eb:33:2e:f9:57:b5, 2015-01-01 00:25:36.995,0.015,-0.004,0.996,0.427,-0.916,-0.061, , , , , , ,-0.363,-0.352,-108.375
 09:37:00.149,eb:33:2e:f9:57:b5, 2015-01-01 00:25:36.995,0.012,-0.003,0.997,0.488,-0.732,0, , , , , , ,-0.363,-0.352,-108.375
 09:37:00.149,eb:33:2e:f9:57:b5, 2015-01-01 00:25:36.995,0.01,-0.005,0.997,0.549,-0.488,-0.061, , , , , , ,-0.363,-0.352,-108.375
 09:37:00.149,eb:33:2e:f9:57:b5, 2015-01-01 00:25:36.995,0.01,-0.005,0.995,0.671,-0.488,-0.061, , , , , , ,-0.363,-0.352,-108.375
 09:37:00.195,eb:33:2e:f9:57:b5, 2015-01-01 00:25:36.995,0.01,-0.004,0.995,0.671,-0.427,0, , , , , , ,-0.363,-0.352,-108.375
 09:37:00.195,eb:33:2e:f9:57:b5, 2015-01-01 00:25:36.995,0.01,-0.003,0.995,0.732,-0.305,-0.061, , , , , , ,-0.363,-0.352,-108.375
 09:37:00.195,eb:33:2e:f9:57:b5, 2015-01-01 00:25:36.995,0.01,-0.003,0.994,0.732,-0.244,-0.122, , , , , , ,-0.363,-0.352,-108.375
 09:37:00.195,eb:33:2e:f9:57:b5, 2015-01-01 00:25:36.995,0.009,-0.002,0.993,0.732,-0.183,-0.122, , , , , , ,-0.363,-0.352,-108.375
 09:37:00.195,eb:33:2e:f9:57:b5, 2015-01-01 00:25:36.995,0.008,-0.002,0.992,0.732,-0.305,-0.061, , , , , , ,-0.363,-0.352,-108.375
 09:37:00.195,eb:33:2e:f9:57:b5, 2015-01-01 00:25:36.995,0.008,-0.003,0.993,0.671,-0.427,0, , , , , , ,-0.363,-0.352,-108.375
 09:37:00.195,eb:33:2e:f9:57:b5, 2015-01-01 00:25:36.995,0.008,-0.002,0.992,0.61,-0.427,0, , , , , , ,-0.363,-0.352,-108.375
 09:37:00.195,eb:33:2e:f9:57:b5, 2015-01-01 00:25:36.995,0.009,-0.002,0.992,0.671,-0.488,-0.061, , , , , , ,-0.363,-0.352,-108.375
 09:37:00.241,eb:33:2e:f9:57:b5, 2015-01-01 00:25:36.995,0.011,-0.004,0.994,0.671,-0.549,-0.061, , , , , , ,-0.357,-0.352,-108.375
 09:37:00.241,eb:33:2e:f9:57:b5, 2015-01-01 00:25:36.995,0.02,-0.003,0.996,0.732,-0.427,-0.061, , , , , , ,-0.357,-0.352,-108.375
 09:37:00.241,eb:33:2e:f9:57:b5, 2015-01-01 00:25:36.995,0.011,-0.001,1.001,0.793,-0.061,-0.244, , , , , , ,-0.357,-0.352,-108.375
 09:37:00.241,eb:33:2e:f9:57:b5, 2015-01-01 00:25:36.995,-0.001,-0.005,0.995,0.793,0.122,-0.183, , , , , , ,-0.357,-0.352,-108.375
 09:37:00.241,eb:33:2e:f9:57:b5, 2015-01-01 00:25:36.995,0.004,-0.003,0.984,0.732,-0.488,-0.061, , , , , , ,-0.357,-0.357,-108.375
 09:37:00.241,eb:33:2e:f9:57:b5, 2015-01-01 00:25:36.995,0.01,0,0.986,0.671,-0.854,-0.122, , , , , , ,-0.357,-0.357,-108.375
 09:37:00.241,eb:33:2e:f9:57:b5, 2015-01-01 00:25:36.995,0.013,-0.002,0.994,0.671,-0.854,-0.122, , , , , , ,-0.357,-0.357,-108.375
 09:37:00.241,eb:33:2e:f9:57:b5, 2015-01-01 00:25:36.995,0.015,-0.003,0.998,0.61,-0.671,-0.061, , , , , , ,-0.357,-0.357,-108.375
 09:37:00.287,eb:33:2e:f9:57:b5, 2015-01-01 00:25:36.995,0.011,-0.002,0.998,0.549,-0.427,-0.122, , , , , , ,-0.357,-0.357,-108.375
 09:37:00.287,eb:33:2e:f9:57:b5, 2015-01-01 00:25:36.995,0.012,-0.001,0.996,0.61,-0.366,-0.061, , , , , , ,-0.357,-0.357,-108.375
 09:37:00.287,eb:33:2e:f9:57:b5, 2015-01-01 00:25:36.995,0.013,-0.001,0.996,0.61,-0.305,-0.122, , , , , , ,-0.357,-0.357,-108.375
 09:37:00.287,eb:33:2e:f9:57:b5, 2015-01-01 00:25:36.995,0.013,-0.001,0.996,0.61,-0.122,-0.122, , , , , , ,-0.357,-0.357,-108.375
 09:37:00.287,eb:33:2e:f9:57:b5, 2015-01-01 00:25:36.995,0.011,-0.002,0.996,0.549,0,-0.061, , , , , , ,-0.357,-0.357,-108.375
 09:37:00.287,eb:33:2e:f9:57:b5, 2015-01-01 00:25:36.995,0.012,-0.002,0.994,0.488,0.061,0, , , , , , ,-0.357,-0.357,-108.375
 09:37:00.287,eb:33:2e:f9:57:b5, 2015-01-01 00:25:36.995,0.01,-0.001,0.993,0.427,0.122,-0.061, , , , , , ,-0.357,-0.357,-108.375
 09:37:00.287,eb:33:2e:f9:57:b5, 2015-01-01 00:25:36.995,0.01,-0.001,0.992,0.427,0.122,-0.122, , , , , , ,-0.357,-0.357,-108.375
 09:37:00.306,eb:33:2e:f9:57:b5, 2015-01-01 00:25:37.285,0.008,-0.001,0.992,0.366,0.061,-0.061, , , , , , ,-0.357,-0.357,-108.375
 09:37:00.306,eb:33:2e:f9:57:b5, 2015-01-01 00:25:37.285,0.008,-0.002,0.992,0.366,0,-0.061, , , , , , ,-0.357,-0.357,-108.375
 09:37:00.306,eb:33:2e:f9:57:b5, 2015-01-01 00:25:37.285,0.01,-0.002,0.992,0.305,-0.061,-0.061, , , , , , ,-0.357,-0.357,-108.375
 09:37:00.306,eb:33:2e:f9:57:b5, 2015-01-01 00:25:37.285,0.01,-0.002,0.994,0.305,-0.122,-0.061, , , , , , ,-0.357,-0.357,-108.375
 09:37:00.306,eb:33:2e:f9:57:b5, 2015-01-01 00:25:37.285,0.01,-0.002,0.995,0.244,-0.183,-0.061, , , , , , ,-0.352,-0.363,-108.375
 09:37:00.306,eb:33:2e:f9:57:b5, 2015-01-01 00:25:37.285,0.01,-0.001,0.994,0.244,-0.122,-0.122, , , , , , ,-0.352,-0.363,-108.375
 09:37:00.306,eb:33:2e:f9:57:b5, 2015-01-01 00:25:37.285,0.009,-0.001,0.993,0.305,-0.122,-0.061, , , , , , ,-0.352,-0.363,-108.375
 09:37:00.306,eb:33:2e:f9:57:b5, 2015-01-01 00:25:37.285,0.011,-0.002,0.993,0.244,-0.305,-0.061, , , , , , ,-0.352,-0.363,-108.375
 09:37:00.352,eb:33:2e:f9:57:b5, 2015-01-01 00:25:37.285,0.011,-0.002,0.994,0.244,-0.244,-0.122, , , , , , ,-0.352,-0.363,-108.375
 09:37:00.352,eb:33:2e:f9:57:b5, 2015-01-01 00:25:37.285,0.011,-0.001,0.993,0.244,-0.244,-0.061, , , , , , ,-0.352,-0.363,-108.375
 09:37:00.352,eb:33:2e:f9:57:b5, 2015-01-01 00:25:37.285,0.01,0,0.994,0.183,-0.122,-0.061, , , , , , ,-0.352,-0.363,-108.375
 09:37:00.352,eb:33:2e:f9:57:b5, 2015-01-01 00:25:37.285,0.011,0,0.993,0.183,-0.183,-0.061, , , , , , ,-0.352,-0.363,-108.375
 09:37:00.352,eb:33:2e:f9:57:b5, 2015-01-01 00:25:37.285,0.011,0,0.993,0.183,-0.183,-0.061, , , , , , ,-0.352,-0.363,-108.375
 09:37:00.352,eb:33:2e:f9:57:b5, 2015-01-01 00:25:37.285,0.012,-0.001,0.994,0.122,-0.122,-0.061, , , , , , ,-0.352,-0.363,-108.375
 09:37:00.352,eb:33:2e:f9:57:b5, 2015-01-01 00:25:37.285,0.011,-0.002,0.995,0.122,0,-0.061, , , , , , ,-0.352,-0.363,-108.375
 09:37:00.352,eb:33:2e:f9:57:b5, 2015-01-01 00:25:37.285,0.011,-0.002,0.995,0.061,0,-0.061, , , , , , ,-0.352,-0.363,-108.375
 09:37:00.397,eb:33:2e:f9:57:b5, 2015-01-01 00:25:37.285,0.011,-0.002,0.995,0.061,0,0, , , , , , ,-0.352,-0.363,-108.375
 09:37:00.397,eb:33:2e:f9:57:b5, 2015-01-01 00:25:37.285,0.011,-0.001,0.995,0.122,0,-0.061, , , , , , ,-0.352,-0.363,-108.375
 09:37:00.397,eb:33:2e:f9:57:b5, 2015-01-01 00:25:37.285,0.012,-0.001,0.995,0.183,0,-0.061, , , , , , ,-0.352,-0.363,-108.375
 09:37:00.397,eb:33:2e:f9:57:b5, 2015-01-01 00:25:37.285,0.011,-0.001,0.995,0.122,0.122,0, , , , , , ,-0.352,-0.363,-108.375
 09:37:00.397,eb:33:2e:f9:57:b5, 2015-01-01 00:25:37.285,0.011,-0.001,0.995,0.122,0.183,-0.061, , , , , , ,-0.346,-0.368,-108.375
 09:37:00.397,eb:33:2e:f9:57:b5, 2015-01-01 00:25:37.285,0.01,-0.001,0.994,0.122,0.183,0, , , , , , ,-0.346,-0.368,-108.375
 09:37:00.397,eb:33:2e:f9:57:b5, 2015-01-01 00:25:37.285,0.011,0,0.994,0.122,0.244,-0.061, , , , , , ,-0.346,-0.368,-108.375
 09:37:00.397,eb:33:2e:f9:57:b5, 2015-01-01 00:25:37.285,0.011,-0.001,0.994,0.061,0.244,-0.061, , , , , , ,-0.346,-0.368,-108.375
 09:37:00.443,eb:33:2e:f9:57:b5, 2015-01-01 00:25:37.285,0.012,-0.002,0.994,0.061,0.366,-0.061, , , , , , ,-0.346,-0.368,-108.375
 09:37:00.443,eb:33:2e:f9:57:b5, 2015-01-01 00:25:37.285,0.009,0,0.993,0,0.366,-0.061, , , , , , ,-0.346,-0.368,-108.375
 09:37:00.443,eb:33:2e:f9:57:b5, 2015-01-01 00:25:37.285,0.01,0,0.991,0,0.244,-0.122, , , , , , ,-0.346,-0.368,-108.375
 09:37:00.443,eb:33:2e:f9:57:b5, 2015-01-01 00:25:37.285,0.011,0,0.992,0,0.244,-0.122, , , , , , ,-0.346,-0.368,-108.375
 09:37:00.443,eb:33:2e:f9:57:b5, 2015-01-01 00:25:37.285,0.012,-0.001,0.993,-0.061,0.305,-0.061, , , , , , ,-0.346,-0.368,-108.375
 09:37:00.443,eb:33:2e:f9:57:b5, 2015-01-01 00:25:37.285,0.01,-0.002,0.993,-0.061,0.366,-0.122, , , , , , ,-0.346,-0.368,-108.375
 09:37:00.443,eb:33:2e:f9:57:b5, 2015-01-01 00:25:37.285,0.01,-0.002,0.993,-0.122,0.366,-0.183, , , , , , ,-0.346,-0.368,-108.375
 09:37:00.443,eb:33:2e:f9:57:b5, 2015-01-01 00:25:37.285,0.01,-0.001,0.992,-0.122,0.305,-0.122, , , , , , ,-0.346,-0.368,-108.375
 09:37:00.488,eb:33:2e:f9:57:b5, 2015-01-01 00:25:37.285,0.01,-0.002,0.995,-0.061,0.305,-0.122, , , , , , ,-0.346,-0.368,-108.375
 09:37:00.488,eb:33:2e:f9:57:b5, 2015-01-01 00:25:37.285,0.01,-0.003,0.995,-0.061,0.305,-0.061, , , , , , ,-0.346,-0.368,-108.375
 09:37:00.488,eb:33:2e:f9:57:b5, 2015-01-01 00:25:37.285,0.011,-0.004,0.995,-0.061,0.305,-0.122, , , , , , ,-0.341,-0.368,-108.375
 09:37:00.488,eb:33:2e:f9:57:b5, 2015-01-01 00:25:37.285,0.011,-0.003,0.997,0,0.366,-0.061, , , , , , ,-0.341,-0.368,-108.375
 09:37:00.488,eb:33:2e:f9:57:b5, 2015-01-01 00:25:37.285,0.012,-0.002,0.997,0,0.427,0, , , , , , ,-0.341,-0.374,-108.375
 09:37:00.488,eb:33:2e:f9:57:b5, 2015-01-01 00:25:37.285,0.011,-0.002,0.996,0,0.549,0, , , , , , ,-0.341,-0.374,-108.375
 09:37:00.488,eb:33:2e:f9:57:b5, 2015-01-01 00:25:37.285,0.01,-0.002,0.995,0.061,0.61,0, , , , , , ,-0.341,-0.374,-108.375
 09:37:00.488,eb:33:2e:f9:57:b5, 2015-01-01 00:25:37.285,0.01,-0.003,0.995,0,0.671,0, , , , , , ,-0.341,-0.374,-108.375
 09:37:00.510,eb:33:2e:f9:57:b5, 2015-01-01 00:25:37.285,0.011,-0.002,0.995,0.122,0.732,0, , , , , , ,-0.341,-0.374,-108.375
 09:37:00.510,eb:33:2e:f9:57:b5, 2015-01-01 00:25:37.285,0.01,-0.001,0.995,0.061,0.732,0, , , , , , ,-0.341,-0.374,-108.375
 09:37:00.510,eb:33:2e:f9:57:b5, 2015-01-01 00:25:37.285,0.009,-0.003,0.994,0.122,0.732,0, , , , , , ,-0.341,-0.374,-108.375
 09:37:00.510,eb:33:2e:f9:57:b5, 2015-01-01 00:25:37.285,0.01,-0.002,0.995,0.122,0.854,0, , , , , , ,-0.341,-0.374,-108.375
 09:37:00.510,eb:33:2e:f9:57:b5, 2015-01-01 00:25:37.285,0.009,-0.002,0.995,0.122,0.854,0.061, , , , , , ,-0.341,-0.374,-108.375
 09:37:00.510,eb:33:2e:f9:57:b5, 2015-01-01 00:25:37.285,0.008,-0.002,0.995,0.183,0.854,0.061, , , , , , ,-0.341,-0.374,-108.375
 09:37:00.510,eb:33:2e:f9:57:b5, 2015-01-01 00:25:37.285,0.009,-0.001,0.995,0.061,0.854,0.061, , , , , , ,-0.341,-0.374,-108.375
 09:37:00.510,eb:33:2e:f9:57:b5, 2015-01-01 00:25:37.285,0.01,-0.003,0.993,0.122,0.854,0.122, , , , , , ,-0.341,-0.374,-108.375
 09:37:00.557,eb:33:2e:f9:57:b5, 2015-01-01 00:25:37.285,0.008,-0.003,0.993,0.061,0.854,0.183, , , , , , ,-0.341,-0.374,-108.375
 09:37:00.557,eb:33:2e:f9:57:b5, 2015-01-01 00:25:37.285,0.008,-0.002,0.993,0,0.793,0.183, , , , , , ,-0.341,-0.374,-108.375
 09:37:00.557,eb:33:2e:f9:57:b5, 2015-01-01 00:25:37.285,0.009,-0.002,0.992,0,0.732,0.244, , , , , , ,-0.341,-0.374,-108.375
 09:37:00.557,eb:33:2e:f9:57:b5, 2015-01-01 00:25:37.285,0.008,-0.002,0.993,0,0.793,0.183, , , , , , ,-0.341,-0.374,-108.375
 09:37:00.557,eb:33:2e:f9:57:b5, 2015-01-01 00:25:37.285,0.008,-0.002,0.993,0.061,0.732,0.244, , , , , , ,-0.335,-0.379,-108.375
 09:37:00.557,eb:33:2e:f9:57:b5, 2015-01-01 00:25:37.285,0.009,-0.002,0.994,0.061,0.732,0.183, , , , , , ,-0.335,-0.379,-108.375
 09:37:00.557,eb:33:2e:f9:57:b5, 2015-01-01 00:25:37.285,0.008,-0.001,0.995,0,0.732,0.183, , , , , , ,-0.335,-0.379,-108.375
 09:37:00.557,eb:33:2e:f9:57:b5, 2015-01-01 00:25:37.285,0.007,-0.001,0.996,0.061,0.732,0.183, , , , , , ,-0.335,-0.379,-108.375
 09:37:00.601,eb:33:2e:f9:57:b5, 2015-01-01 00:25:37.285,0.008,-0.001,0.995,0.061,0.732,0.183, , , , , , ,-0.335,-0.379,-108.375
 09:37:00.601,eb:33:2e:f9:57:b5, 2015-01-01 00:25:37.285,0.009,-0.002,0.996,0.183,0.732,0.122, , , , , , ,-0.335,-0.379,-108.375
 09:37:00.601,eb:33:2e:f9:57:b5, 2015-01-01 00:25:37.285,0.009,-0.003,0.997,0.244,0.732,0.183, , , , , , ,-0.335,-0.379,-108.375
 09:37:00.601,eb:33:2e:f9:57:b5, 2015-01-01 00:25:37.285,0.015,-0.006,1.002,0.427,0.916,0.305, , , , , , ,-0.335,-0.379,-108.375
 09:37:00.601,eb:33:2e:f9:57:b5, 2015-01-01 00:25:37.285,0.005,0.004,0.994,0.244,1.099,0.122, , , , , , ,-0.335,-0.379,-108.375
 09:37:00.601,eb:33:2e:f9:57:b5, 2015-01-01 00:25:37.285,0.002,0,0.989,0.183,0.854,0.122, , , , , , ,-0.335,-0.379,-108.375
 09:37:00.601,eb:33:2e:f9:57:b5, 2015-01-01 00:25:37.285,0.007,0,0.986,0,0.488,0.122, , , , , , ,-0.335,-0.379,-108.375
 09:37:00.601,eb:33:2e:f9:57:b5, 2015-01-01 00:25:37.285,0.01,-0.002,0.991,0.061,0.366,0.061, , , , , , ,-0.335,-0.379,-108.375
 09:37:00.644,eb:33:2e:f9:57:b5, 2015-01-01 00:25:37.600,0.01,-0.002,0.993,0.122,0.488,0, , , , , , ,-0.335,-0.379,-108.375
 09:37:00.644,eb:33:2e:f9:57:b5, 2015-01-01 00:25:37.600,0.008,-0.002,0.994,0.061,0.549,0, , , , , , ,-0.335,-0.379,-108.375
 09:37:00.644,eb:33:2e:f9:57:b5, 2015-01-01 00:25:37.600,0.006,-0.001,0.991,0.061,0.61,-0.061, , , , , , ,-0.335,-0.379,-108.375
 09:37:00.644,eb:33:2e:f9:57:b5, 2015-01-01 00:25:37.600,0.007,-0.002,0.991,0,0.488,-0.061, , , , , , ,-0.335,-0.379,-108.375
 09:37:00.644,eb:33:2e:f9:57:b5, 2015-01-01 00:25:37.600,0.006,-0.001,0.992,0,0.366,-0.061, , , , , , ,-0.335,-0.379,-108.375
 09:37:00.644,eb:33:2e:f9:57:b5, 2015-01-01 00:25:37.600,0.008,-0.001,0.991,-0.061,0.366,-0.061, , , , , , ,-0.335,-0.379,-108.375
 09:37:00.644,eb:33:2e:f9:57:b5, 2015-01-01 00:25:37.600,0.007,-0.002,0.991,-0.122,0.305,0, , , , , , ,-0.335,-0.379,-108.375
 09:37:00.644,eb:33:2e:f9:57:b5, 2015-01-01 00:25:37.600,0.008,-0.002,0.992,-0.122,0.305,-0.061, , , , , , ,-0.335,-0.379,-108.375
 09:37:00.669,eb:33:2e:f9:57:b5, 2015-01-01 00:25:37.600,0.009,-0.001,0.994,-0.122,0.244,-0.061, , , , , , ,-0.33,-0.379,-108.375
 09:37:00.669,eb:33:2e:f9:57:b5, 2015-01-01 00:25:37.600,0.009,-0.003,0.994,-0.061,0.305,0, , , , , , ,-0.33,-0.379,-108.375
 09:37:00.669,eb:33:2e:f9:57:b5, 2015-01-01 00:25:37.600,0.009,-0.003,0.995,-0.061,0.366,0, , , , , , ,-0.33,-0.379,-108.375
 09:37:00.669,eb:33:2e:f9:57:b5, 2015-01-01 00:25:37.600,0.009,-0.003,0.996,0,0.366,0, , , , , , ,-0.33,-0.379,-108.375
 09:37:00.669,eb:33:2e:f9:57:b5, 2015-01-01 00:25:37.600,0.008,-0.001,0.995,-0.061,0.427,0, , , , , , ,-0.33,-0.379,-108.375
 09:37:00.669,eb:33:2e:f9:57:b5, 2015-01-01 00:25:37.600,0.008,-0.002,0.993,-0.122,0.488,0.061, , , , , , ,-0.33,-0.379,-108.375
 09:37:00.669,eb:33:2e:f9:57:b5, 2015-01-01 00:25:37.600,0.008,-0.003,0.993,-0.061,0.366,0, , , , , , ,-0.33,-0.379,-108.375
 09:37:00.669,eb:33:2e:f9:57:b5, 2015-01-01 00:25:37.600,0.006,-0.004,0.994,0,0.427,0, , , , , , ,-0.33,-0.379,-108.375
 09:37:00.713,eb:33:2e:f9:57:b5, 2015-01-01 00:25:37.600,0.005,-0.003,0.993,0,0.366,0, , , , , , ,-0.33,-0.379,-108.375
 09:37:00.713,eb:33:2e:f9:57:b5, 2015-01-01 00:25:37.600,0.006,-0.001,0.992,0,0.244,0, , , , , , ,-0.33,-0.379,-108.375
 09:37:00.713,eb:33:2e:f9:57:b5, 2015-01-01 00:25:37.600,0.006,-0.001,0.993,0,0.122,0, , , , , , ,-0.33,-0.379,-108.375
 09:37:00.713,eb:33:2e:f9:57:b5, 2015-01-01 00:25:37.600,0.005,-0.003,0.992,0,0.061,0.061, , , , , , ,-0.33,-0.379,-108.375
 09:37:00.714,eb:33:2e:f9:57:b5, 2015-01-01 00:25:37.600,0.006,-0.002,0.992,0,0,0, , , , , , ,-0.33,-0.385,-108.375
 09:37:00.714,eb:33:2e:f9:57:b5, 2015-01-01 00:25:37.600,0.006,0,0.992,-0.061,0,0, , , , , , ,-0.33,-0.385,-108.375
 09:37:00.714,eb:33:2e:f9:57:b5, 2015-01-01 00:25:37.600,0.007,-0.001,0.992,-0.061,0,0, , , , , , ,-0.33,-0.385,-108.375
 09:37:00.714,eb:33:2e:f9:57:b5, 2015-01-01 00:25:37.600,0.008,-0.002,0.992,-0.122,-0.061,0, , , , , , ,-0.33,-0.385,-108.375
 09:37:00.758,eb:33:2e:f9:57:b5, 2015-01-01 00:25:37.600,0.007,-0.002,0.992,-0.122,0,0, , , , , , ,-0.324,-0.385,-108.375
 09:37:00.758,eb:33:2e:f9:57:b5, 2015-01-01 00:25:37.600,0.007,-0.002,0.992,-0.122,-0.061,0, , , , , , ,-0.324,-0.385,-108.375
 09:37:00.758,eb:33:2e:f9:57:b5, 2015-01-01 00:25:37.600,0.008,-0.002,0.992,-0.183,-0.061,0, , , , , , ,-0.324,-0.385,-108.375
 09:37:00.758,eb:33:2e:f9:57:b5, 2015-01-01 00:25:37.600,0.006,-0.002,0.993,-0.122,-0.122,0, , , , , , ,-0.324,-0.385,-108.375
 09:37:00.758,eb:33:2e:f9:57:b5, 2015-01-01 00:25:37.600,0.007,-0.002,0.994,-0.122,-0.183,0, , , , , , ,-0.324,-0.385,-108.375
 09:37:00.758,eb:33:2e:f9:57:b5, 2015-01-01 00:25:37.600,0.008,-0.003,0.994,-0.183,-0.244,0.061, , , , , , ,-0.324,-0.385,-108.375
 09:37:00.758,eb:33:2e:f9:57:b5, 2015-01-01 00:25:37.600,0.006,-0.003,0.993,-0.122,-0.244,0, , , , , , ,-0.324,-0.385,-108.375
 09:37:00.758,eb:33:2e:f9:57:b5, 2015-01-01 00:25:37.600,0.007,-0.003,0.993,-0.122,-0.366,0, , , , , , ,-0.324,-0.385,-108.375
 09:37:00.803,eb:33:2e:f9:57:b5, 2015-01-01 00:25:37.600,0.008,-0.004,0.994,-0.122,-0.427,0, , , , , , ,-0.324,-0.385,-108.375
 09:37:00.803,eb:33:2e:f9:57:b5, 2015-01-01 00:25:37.600,0.009,-0.004,0.994,-0.061,-0.427,0.061, , , , , , ,-0.324,-0.385,-108.375
 09:37:00.803,eb:33:2e:f9:57:b5, 2015-01-01 00:25:37.600,0.008,-0.003,0.995,-0.061,-0.427,0, , , , , , ,-0.324,-0.385,-108.375
 09:37:00.803,eb:33:2e:f9:57:b5, 2015-01-01 00:25:37.600,0.008,-0.003,0.995,-0.061,-0.427,0, , , , , , ,-0.324,-0.385,-108.375
 09:37:00.803,eb:33:2e:f9:57:b5, 2015-01-01 00:25:37.600,0.008,-0.003,0.995,0,-0.427,0, , , , , , ,-0.324,-0.385,-108.375
 09:37:00.803,eb:33:2e:f9:57:b5, 2015-01-01 00:25:37.600,0.009,-0.003,0.994,0,-0.427,0, , , , , , ,-0.324,-0.385,-108.375
 09:37:00.803,eb:33:2e:f9:57:b5, 2015-01-01 00:25:37.600,0.009,-0.002,0.995,0,-0.366,0, , , , , , ,-0.324,-0.385,-108.375
 09:37:00.803,eb:33:2e:f9:57:b5, 2015-01-01 00:25:37.600,0.008,-0.003,0.995,0,-0.366,0, , , , , , ,-0.324,-0.385,-108.375
 09:37:00.849,eb:33:2e:f9:57:b5, 2015-01-01 00:25:37.600,0.008,-0.003,0.993,0.061,-0.427,0, , , , , , ,-0.324,-0.385,-108.375
 09:37:00.849,eb:33:2e:f9:57:b5, 2015-01-01 00:25:37.600,0.009,-0.002,0.993,0.061,-0.366,0.061, , , , , , ,-0.324,-0.385,-108.375
 09:37:00.849,eb:33:2e:f9:57:b5, 2015-01-01 00:25:37.600,0.01,-0.002,0.995,0.061,-0.366,0.061, , , , , , ,-0.324,-0.385,-108.375
 09:37:00.849,eb:33:2e:f9:57:b5, 2015-01-01 00:25:37.600,0.009,-0.003,0.995,0.122,-0.244,0, , , , , , ,-0.324,-0.385,-108.375
 09:37:00.849,eb:33:2e:f9:57:b5, 2015-01-01 00:25:37.600,0.008,-0.002,0.995,0.122,-0.244,0, , , , , , ,-0.324,-0.385,-108.375
 09:37:00.849,eb:33:2e:f9:57:b5, 2015-01-01 00:25:37.600,0.008,-0.002,0.994,0.122,-0.244,0.061, , , , , , ,-0.324,-0.385,-108.375
 09:37:00.849,eb:33:2e:f9:57:b5, 2015-01-01 00:25:37.600,0.008,-0.002,0.993,0.183,-0.305,0.061, , , , , , ,-0.324,-0.385,-108.375
 09:37:00.849,eb:33:2e:f9:57:b5, 2015-01-01 00:25:37.600,0.009,-0.002,0.993,0.183,-0.305,0.061, , , , , , ,-0.324,-0.385,-108.375
 09:37:00.871,eb:33:2e:f9:57:b5, 2015-01-01 00:25:37.600,0.009,-0.002,0.993,0.183,-0.244,0.061, , , , , , ,-0.319,-0.385,-108.375
 09:37:00.871,eb:33:2e:f9:57:b5, 2015-01-01 00:25:37.600,0.008,-0.002,0.993,0.122,-0.244,0.061, , , , , , ,-0.319,-0.385,-108.375
 09:37:00.871,eb:33:2e:f9:57:b5, 2015-01-01 00:25:37.600,0.009,-0.001,0.993,0.061,-0.183,0.122, , , , , , ,-0.319,-0.385,-108.375
 09:37:00.871,eb:33:2e:f9:57:b5, 2015-01-01 00:25:37.600,0.009,-0.001,0.994,0.061,-0.183,0.122, , , , , , ,-0.319,-0.385,-108.375
 09:37:00.871,eb:33:2e:f9:57:b5, 2015-01-01 00:25:37.600,0.008,-0.002,0.994,0.061,-0.122,0.122, , , , , , ,-0.319,-0.385,-108.369
 09:37:00.871,eb:33:2e:f9:57:b5, 2015-01-01 00:25:37.600,0.009,-0.002,0.993,0,-0.122,0.122, , , , , , ,-0.319,-0.385,-108.369
 09:37:00.871,eb:33:2e:f9:57:b5, 2015-01-01 00:25:37.600,0.01,-0.002,0.993,0.061,-0.122,0.122, , , , , , ,-0.319,-0.385,-108.375
 09:37:00.871,eb:33:2e:f9:57:b5, 2015-01-01 00:25:37.600,0.01,-0.002,0.993,0.061,-0.122,0.061, , , , , , ,-0.319,-0.385,-108.375
 09:37:00.915,eb:33:2e:f9:57:b5, 2015-01-01 00:25:37.600,0.008,-0.003,0.994,0.061,-0.183,0.061, , , , , , ,-0.319,-0.385,-108.369
 09:37:00.915,eb:33:2e:f9:57:b5, 2015-01-01 00:25:37.600,0.008,-0.002,0.993,0.061,-0.122,0.061, , , , , , ,-0.319,-0.385,-108.369
 09:37:00.915,eb:33:2e:f9:57:b5, 2015-01-01 00:25:37.600,0.009,-0.003,0.993,0.061,-0.244,0.061, , , , , , ,-0.319,-0.385,-108.369
 09:37:00.915,eb:33:2e:f9:57:b5, 2015-01-01 00:25:37.600,0.008,-0.002,0.993,0.061,-0.305,0.122, , , , , , ,-0.319,-0.385,-108.369
 09:37:00.915,eb:33:2e:f9:57:b5, 2015-01-01 00:25:37.600,0.008,-0.002,0.993,0.122,-0.244,0.061, , , , , , ,-0.319,-0.385,-108.369
 09:37:00.915,eb:33:2e:f9:57:b5, 2015-01-01 00:25:37.600,0.009,-0.002,0.992,0.122,-0.366,0.061, , , , , , ,-0.319,-0.385,-108.369
 09:37:00.915,eb:33:2e:f9:57:b5, 2015-01-01 00:25:37.600,0.01,-0.002,0.994,0.122,-0.366,0, , , , , , ,-0.319,-0.385,-108.369
 09:37:00.915,eb:33:2e:f9:57:b5, 2015-01-01 00:25:37.600,0.01,-0.002,0.995,0.122,-0.244,0, , , , , , ,-0.319,-0.385,-108.369
 09:37:00.959,eb:33:2e:f9:57:b5, 2015-01-01 00:25:37.890,0.01,-0.002,0.995,0.122,-0.183,0, , , , , , ,-0.319,-0.385,-108.369
 09:37:00.959,eb:33:2e:f9:57:b5, 2015-01-01 00:25:37.890,0.01,-0.003,0.994,0.183,-0.183,0, , , , , , ,-0.319,-0.385,-108.369
 09:37:00.959,eb:33:2e:f9:57:b5, 2015-01-01 00:25:37.890,0.01,-0.002,0.994,0.122,-0.061,0, , , , , , ,-0.319,-0.385,-108.369
 09:37:00.959,eb:33:2e:f9:57:b5, 2015-01-01 00:25:37.890,0.01,-0.003,0.995,0.183,0,0, , , , , , ,-0.319,-0.385,-108.369
 09:37:00.959,eb:33:2e:f9:57:b5, 2015-01-01 00:25:37.890,0.009,-0.003,0.995,0.122,0,0, , , , , , ,-0.319,-0.39,-108.369
 09:37:00.959,eb:33:2e:f9:57:b5, 2015-01-01 00:25:37.890,0.008,-0.004,0.993,0.122,0,0, , , , , , ,-0.319,-0.39,-108.369
 09:37:00.959,eb:33:2e:f9:57:b5, 2015-01-01 00:25:37.890,0.009,-0.003,0.993,0.183,0,0, , , , , , ,-0.319,-0.39,-108.369
 09:37:00.959,eb:33:2e:f9:57:b5, 2015-01-01 00:25:37.890,0.009,-0.002,0.993,0.244,-0.122,0, , , , , , ,-0.319,-0.39,-108.369
 09:37:01.004,eb:33:2e:f9:57:b5, 2015-01-01 00:25:37.890,0.008,-0.002,0.993,0.244,-0.061,-0.061, , , , , , ,-0.313,-0.39,-108.369
 09:37:01.004,eb:33:2e:f9:57:b5, 2015-01-01 00:25:37.890,0.008,-0.001,0.993,0.183,-0.122,-0.061, , , , , , ,-0.313,-0.39,-108.369
 09:37:01.004,eb:33:2e:f9:57:b5, 2015-01-01 00:25:37.890,0.008,-0.002,0.993,0.244,-0.122,-0.061, , , , , , ,-0.313,-0.39,-108.369
 09:37:01.004,eb:33:2e:f9:57:b5, 2015-01-01 00:25:37.890,0.009,-0.001,0.993,0.183,-0.122,0, , , , , , ,-0.313,-0.39,-108.369
 09:37:01.004,eb:33:2e:f9:57:b5, 2015-01-01 00:25:37.890,0.009,-0.002,0.995,0.183,-0.122,0, , , , , , ,-0.313,-0.39,-108.369
 09:37:01.004,eb:33:2e:f9:57:b5, 2015-01-01 00:25:37.890,0.011,-0.003,0.995,0.244,-0.122,0, , , , , , ,-0.313,-0.39,-108.369
 09:37:01.005,eb:33:2e:f9:57:b5, 2015-01-01 00:25:37.890,0.01,-0.002,0.995,0.305,-0.122,-0.061, , , , , , ,-0.313,-0.39,-108.369
 09:37:01.005,eb:33:2e:f9:57:b5, 2015-01-01 00:25:37.890,0.009,-0.002,0.994,0.305,-0.061,-0.122, , , , , , ,-0.313,-0.39,-108.369
 09:37:01.050,eb:33:2e:f9:57:b5, 2015-01-01 00:25:37.890,0.009,-0.003,0.994,0.366,-0.122,-0.061, , , , , , ,-0.313,-0.39,-108.369
 09:37:01.050,eb:33:2e:f9:57:b5, 2015-01-01 00:25:37.890,0.009,-0.003,0.994,0.366,-0.122,0, , , , , , ,-0.313,-0.39,-108.369
 09:37:01.050,eb:33:2e:f9:57:b5, 2015-01-01 00:25:37.890,0.008,-0.002,0.993,0.366,-0.122,-0.061, , , , , , ,-0.313,-0.39,-108.369
 09:37:01.050,eb:33:2e:f9:57:b5, 2015-01-01 00:25:37.890,0.009,-0.003,0.993,0.366,-0.244,-0.122, , , , , , ,-0.313,-0.39,-108.369
 09:37:01.050,eb:33:2e:f9:57:b5, 2015-01-01 00:25:37.890,0.01,-0.003,0.994,0.427,-0.183,-0.061, , , , , , ,-0.313,-0.39,-108.369
 09:37:01.050,eb:33:2e:f9:57:b5, 2015-01-01 00:25:37.890,0.01,-0.003,0.995,0.427,-0.183,-0.122, , , , , , ,-0.313,-0.39,-108.369
 09:37:01.051,eb:33:2e:f9:57:b5, 2015-01-01 00:25:37.890,0.009,-0.002,0.995,0.427,-0.122,-0.061, , , , , , ,-0.313,-0.39,-108.369
 09:37:01.051,eb:33:2e:f9:57:b5, 2015-01-01 00:25:37.890,0.008,-0.003,0.994,0.427,-0.061,0, , , , , , ,-0.313,-0.39,-108.369
 09:37:01.072,eb:33:2e:f9:57:b5, 2015-01-01 00:25:37.890,0.009,-0.002,0.993,0.366,-0.122,0, , , , , , ,-0.313,-0.39,-108.369
 09:37:01.072,eb:33:2e:f9:57:b5, 2015-01-01 00:25:37.890,0.009,-0.002,0.993,0.305,-0.122,0, , , , , , ,-0.313,-0.39,-108.369
 09:37:01.072,eb:33:2e:f9:57:b5, 2015-01-01 00:25:37.890,0.01,-0.002,0.993,0.305,-0.122,0, , , , , , ,-0.313,-0.39,-108.369
 09:37:01.072,eb:33:2e:f9:57:b5, 2015-01-01 00:25:37.890,0.01,-0.002,0.994,0.244,-0.183,0, , , , , , ,-0.313,-0.39,-108.369
 09:37:01.072,eb:33:2e:f9:57:b5, 2015-01-01 00:25:37.890,0.009,-0.002,0.993,0.305,-0.122,0, , , , , , ,-0.313,-0.39,-108.369
 09:37:01.074,eb:33:2e:f9:57:b5, 2015-01-01 00:25:37.890,0.008,-0.001,0.993,0.183,-0.183,0, , , , , , ,-0.313,-0.39,-108.369
 09:37:01.074,eb:33:2e:f9:57:b5, 2015-01-01 00:25:37.890,0.009,-0.003,0.993,0.244,-0.244,0, , , , , , ,-0.313,-0.39,-108.369
 09:37:01.074,eb:33:2e:f9:57:b5, 2015-01-01 00:25:37.890,0.009,-0.003,0.993,0.244,-0.305,0, , , , , , ,-0.313,-0.39,-108.369
 09:37:01.118,eb:33:2e:f9:57:b5, 2015-01-01 00:25:37.890,0.01,-0.002,0.993,0.183,-0.305,0, , , , , , ,-0.308,-0.396,-108.369
 09:37:01.118,eb:33:2e:f9:57:b5, 2015-01-01 00:25:37.890,0.008,-0.001,0.991,0.122,-0.305,0, , , , , , ,-0.308,-0.396,-108.369
 09:37:01.118,eb:33:2e:f9:57:b5, 2015-01-01 00:25:37.890,0.009,-0.001,0.991,0.122,-0.305,0, , , , , , ,-0.308,-0.396,-108.369
 09:37:01.118,eb:33:2e:f9:57:b5, 2015-01-01 00:25:37.890,0.009,-0.002,0.991,0.061,-0.366,0, , , , , , ,-0.308,-0.396,-108.369
 09:37:01.118,eb:33:2e:f9:57:b5, 2015-01-01 00:25:37.890,0.011,-0.001,0.993,0.061,-0.366,0, , , , , , ,-0.308,-0.396,-108.369
 09:37:01.118,eb:33:2e:f9:57:b5, 2015-01-01 00:25:37.890,0.011,-0.002,0.994,0.061,-0.366,0, , , , , , ,-0.308,-0.396,-108.369
 09:37:01.118,eb:33:2e:f9:57:b5, 2015-01-01 00:25:37.890,0.011,0,0.994,0.061,-0.244,0, , , , , , ,-0.308,-0.396,-108.369
 09:37:01.118,eb:33:2e:f9:57:b5, 2015-01-01 00:25:37.890,0.011,-0.002,0.995,0.061,-0.305,0, , , , , , ,-0.308,-0.396,-108.369
 09:37:01.163,eb:33:2e:f9:57:b5, 2015-01-01 00:25:37.890,0.012,-0.002,0.994,0.122,-0.305,-0.061, , , , , , ,-0.308,-0.396,-108.369
 09:37:01.163,eb:33:2e:f9:57:b5, 2015-01-01 00:25:37.890,0.01,-0.002,0.995,0.122,-0.305,-0.061, , , , , , ,-0.308,-0.396,-108.369
 09:37:01.163,eb:33:2e:f9:57:b5, 2015-01-01 00:25:37.890,0.01,-0.002,0.994,0.122,-0.244,-0.061, , , , , , ,-0.308,-0.396,-108.369
 09:37:01.163,eb:33:2e:f9:57:b5, 2015-01-01 00:25:37.890,0.009,-0.002,0.994,0.183,-0.244,-0.122, , , , , , ,-0.308,-0.396,-108.369
 09:37:01.163,eb:33:2e:f9:57:b5, 2015-01-01 00:25:37.890,0.011,-0.002,0.993,0.183,-0.305,-0.122, , , , , , ,-0.308,-0.396,-108.369
 09:37:01.163,eb:33:2e:f9:57:b5, 2015-01-01 00:25:37.890,0.012,-0.002,0.994,0.122,-0.305,-0.061, , , , , , ,-0.308,-0.396,-108.369
 09:37:01.163,eb:33:2e:f9:57:b5, 2015-01-01 00:25:37.890,0.01,-0.002,0.995,0.122,-0.183,0, , , , , , ,-0.308,-0.396,-108.369
 09:37:01.163,eb:33:2e:f9:57:b5, 2015-01-01 00:25:37.890,0.011,-0.003,0.995,0.183,-0.061,0, , , , , , ,-0.308,-0.396,-108.369
 09:37:01.208,eb:33:2e:f9:57:b5, 2015-01-01 00:25:37.890,0.011,-0.002,0.995,0.122,-0.061,-0.061, , , , , , ,-0.308,-0.396,-108.369
 09:37:01.208,eb:33:2e:f9:57:b5, 2015-01-01 00:25:37.890,0.01,-0.002,0.995,0.122,0,0, , , , , , ,-0.308,-0.396,-108.369
 09:37:01.208,eb:33:2e:f9:57:b5, 2015-01-01 00:25:37.890,0.009,-0.002,0.993,0.122,0,0, , , , , , ,-0.308,-0.396,-108.369
 09:37:01.208,eb:33:2e:f9:57:b5, 2015-01-01 00:25:37.890,0.01,-0.002,0.993,0.122,0,0, , , , , , ,-0.308,-0.396,-108.369
 09:37:01.208,eb:33:2e:f9:57:b5, 2015-01-01 00:25:37.890,0.01,-0.002,0.994,0.061,0,0, , , , , , ,-0.308,-0.401,-108.369
 09:37:01.208,eb:33:2e:f9:57:b5, 2015-01-01 00:25:37.890,0.011,-0.002,0.993,0.122,0,0, , , , , , ,-0.308,-0.401,-108.369
 09:37:01.208,eb:33:2e:f9:57:b5, 2015-01-01 00:25:37.890,0.01,-0.002,0.994,0.122,0,0, , , , , , ,-0.308,-0.401,-108.369
 09:37:01.208,eb:33:2e:f9:57:b5, 2015-01-01 00:25:37.890,0.011,-0.002,0.995,0.122,0.061,0, , , , , , ,-0.308,-0.401,-108.369
 09:37:01.254,eb:33:2e:f9:57:b5, 2015-01-01 00:25:38.205,0.011,-0.003,0.994,0.122,0.061,0, , , , , , ,-0.302,-0.401,-108.369
 09:37:01.254,eb:33:2e:f9:57:b5, 2015-01-01 00:25:38.205,0.01,-0.002,0.994,0.122,0.122,0, , , , , , ,-0.302,-0.401,-108.369
 09:37:01.254,eb:33:2e:f9:57:b5, 2015-01-01 00:25:38.205,0.01,-0.002,0.993,0.122,0.122,0, , , , , , ,-0.302,-0.401,-108.369
 09:37:01.254,eb:33:2e:f9:57:b5, 2015-01-01 00:25:38.205,0.01,-0.002,0.993,0.122,0.122,0, , , , , , ,-0.302,-0.401,-108.369
 09:37:01.254,eb:33:2e:f9:57:b5, 2015-01-01 00:25:38.205,0.01,-0.001,0.993,0.122,0.122,0, , , , , , ,-0.302,-0.401,-108.369
 09:37:01.254,eb:33:2e:f9:57:b5, 2015-01-01 00:25:38.205,0.01,-0.001,0.994,0.061,0.183,0, , , , , , ,-0.302,-0.401,-108.369
 09:37:01.254,eb:33:2e:f9:57:b5, 2015-01-01 00:25:38.205,0.009,-0.001,0.994,0.061,0.183,0, , , , , , ,-0.302,-0.401,-108.369
 09:37:01.254,eb:33:2e:f9:57:b5, 2015-01-01 00:25:38.205,0.01,-0.002,0.994,0.122,0.122,0, , , , , , ,-0.302,-0.401,-108.369
 09:37:01.276,eb:33:2e:f9:57:b5, 2015-01-01 00:25:38.205,0.01,-0.002,0.994,0.122,0.122,0, , , , , , ,-0.302,-0.401,-108.369
 09:37:01.276,eb:33:2e:f9:57:b5, 2015-01-01 00:25:38.205,0.011,-0.002,0.994,0.122,0.122,0, , , , , , ,-0.302,-0.401,-108.369
 09:37:01.276,eb:33:2e:f9:57:b5, 2015-01-01 00:25:38.205,0.011,-0.002,0.994,0.061,0.061,0.061, , , , , , ,-0.302,-0.401,-108.369
 09:37:01.276,eb:33:2e:f9:57:b5, 2015-01-01 00:25:38.205,0.01,-0.001,0.995,0.122,0.122,0.061, , , , , , ,-0.302,-0.401,-108.369
 09:37:01.276,eb:33:2e:f9:57:b5, 2015-01-01 00:25:38.205,0.01,-0.002,0.994,0.061,0.183,0, , , , , , ,-0.302,-0.401,-108.369
 09:37:01.276,eb:33:2e:f9:57:b5, 2015-01-01 00:25:38.205,0.01,-0.001,0.994,0.061,0.183,0, , , , , , ,-0.302,-0.401,-108.369
 09:37:01.276,eb:33:2e:f9:57:b5, 2015-01-01 00:25:38.205,0.011,-0.002,0.993,0,0.244,0, , , , , , ,-0.302,-0.401,-108.369
 09:37:01.276,eb:33:2e:f9:57:b5, 2015-01-01 00:25:38.205,0.01,-0.001,0.993,0,0.305,0, , , , , , ,-0.302,-0.401,-108.369
 09:37:01.320,eb:33:2e:f9:57:b5, 2015-01-01 00:25:38.205,0.01,0,0.993,0,0.305,0, , , , , , ,-0.302,-0.406,-108.369
 09:37:01.320,eb:33:2e:f9:57:b5, 2015-01-01 00:25:38.205,0.01,-0.001,0.992,0,0.244,-0.061, , , , , , ,-0.302,-0.406,-108.369
 09:37:01.320,eb:33:2e:f9:57:b5, 2015-01-01 00:25:38.205,0.009,-0.002,0.992,-0.061,0.244,0, , , , , , ,-0.302,-0.406,-108.369
 09:37:01.320,eb:33:2e:f9:57:b5, 2015-01-01 00:25:38.205,0.011,-0.002,0.994,0,0.183,0, , , , , , ,-0.302,-0.406,-108.369
 09:37:01.320,eb:33:2e:f9:57:b5, 2015-01-01 00:25:38.205,0.011,-0.002,0.995,0,0.183,0, , , , , , ,-0.297,-0.406,-108.369
 09:37:01.320,eb:33:2e:f9:57:b5, 2015-01-01 00:25:38.205,0.01,-0.003,0.996,0.061,0.305,0, , , , , , ,-0.297,-0.406,-108.369
 09:37:01.320,eb:33:2e:f9:57:b5, 2015-01-01 00:25:38.205,0.01,-0.003,0.995,0.061,0.305,0, , , , , , ,-0.297,-0.406,-108.369
 09:37:01.320,eb:33:2e:f9:57:b5, 2015-01-01 00:25:38.205,0.01,-0.003,0.996,0.061,0.366,0, , , , , , ,-0.297,-0.406,-108.369
 09:37:01.364,eb:33:2e:f9:57:b5, 2015-01-01 00:25:38.205,0.01,-0.003,0.996,0.122,0.427,0, , , , , , ,-0.297,-0.406,-108.369
 09:37:01.364,eb:33:2e:f9:57:b5, 2015-01-01 00:25:38.205,0.01,-0.004,0.996,0.122,0.488,0, , , , , , ,-0.297,-0.406,-108.369
 09:37:01.364,eb:33:2e:f9:57:b5, 2015-01-01 00:25:38.205,0.011,-0.003,0.995,0.183,0.488,0.061, , , , , , ,-0.297,-0.406,-108.369
 09:37:01.364,eb:33:2e:f9:57:b5, 2015-01-01 00:25:38.205,0.01,-0.002,0.995,0.183,0.488,0, , , , , , ,-0.297,-0.406,-108.369
 09:37:01.364,eb:33:2e:f9:57:b5, 2015-01-01 00:25:38.205,0.01,-0.001,0.995,0.244,0.488,0, , , , , , ,-0.297,-0.406,-108.369
 09:37:01.364,eb:33:2e:f9:57:b5, 2015-01-01 00:25:38.205,0.009,-0.002,0.995,0.244,0.488,0, , , , , , ,-0.297,-0.406,-108.369
 09:37:01.364,eb:33:2e:f9:57:b5, 2015-01-01 00:25:38.205,0.01,-0.002,0.994,0.305,0.488,0.061, , , , , , ,-0.297,-0.406,-108.369
 09:37:01.364,eb:33:2e:f9:57:b5, 2015-01-01 00:25:38.205,0.009,-0.002,0.994,0.305,0.488,0.061, , , , , , ,-0.297,-0.406,-108.369
 09:37:01.411,eb:33:2e:f9:57:b5, 2015-01-01 00:25:38.205,0.01,-0.002,0.994,0.305,0.488,0.061, , , , , , ,-0.297,-0.406,-108.369
 09:37:01.411,eb:33:2e:f9:57:b5, 2015-01-01 00:25:38.205,0.01,-0.002,0.994,0.305,0.488,0.061, , , , , , ,-0.297,-0.406,-108.369
 09:37:01.411,eb:33:2e:f9:57:b5, 2015-01-01 00:25:38.205,0.009,-0.001,0.994,0.305,0.488,0, , , , , , ,-0.297,-0.406,-108.369
 09:37:01.411,eb:33:2e:f9:57:b5, 2015-01-01 00:25:38.205,0.009,-0.002,0.993,0.244,0.549,0, , , , , , ,-0.297,-0.406,-108.369
 09:37:01.411,eb:33:2e:f9:57:b5, 2015-01-01 00:25:38.205,0.01,-0.001,0.994,0.244,0.549,0.061, , , , , , ,-0.297,-0.412,-108.369
 09:37:01.411,eb:33:2e:f9:57:b5, 2015-01-01 00:25:38.205,0.009,-0.002,0.995,0.244,0.549,0.122, , , , , , ,-0.297,-0.412,-108.369
 09:37:01.411,eb:33:2e:f9:57:b5, 2015-01-01 00:25:38.205,0.009,-0.003,0.995,0.244,0.549,0.122, , , , , , ,-0.297,-0.412,-108.369
 09:37:01.411,eb:33:2e:f9:57:b5, 2015-01-01 00:25:38.205,0.011,-0.003,0.995,0.244,0.61,0.122, , , , , , ,-0.297,-0.412,-108.369
 09:37:01.433,eb:33:2e:f9:57:b5, 2015-01-01 00:25:38.205,0.008,-0.003,0.995,0.244,0.61,0.122, , , , , , ,-0.297,-0.412,-108.369
 09:37:01.433,eb:33:2e:f9:57:b5, 2015-01-01 00:25:38.205,0.01,-0.002,0.994,0.305,0.61,0.122, , , , , , ,-0.297,-0.412,-108.369
 09:37:01.433,eb:33:2e:f9:57:b5, 2015-01-01 00:25:38.205,0.009,-0.002,0.994,0.305,0.671,0.061, , , , , , ,-0.297,-0.412,-108.369
 09:37:01.433,eb:33:2e:f9:57:b5, 2015-01-01 00:25:38.205,0.009,-0.002,0.993,0.366,0.671,0.061, , , , , , ,-0.297,-0.412,-108.369
 09:37:01.433,eb:33:2e:f9:57:b5, 2015-01-01 00:25:38.205,0.01,-0.002,0.995,0.305,0.671,0.061, , , , , , ,-0.291,-0.412,-108.369
 09:37:01.433,eb:33:2e:f9:57:b5, 2015-01-01 00:25:38.205,0.009,-0.002,0.996,0.427,0.732,0.061, , , , , , ,-0.291,-0.412,-108.369
 09:37:01.433,eb:33:2e:f9:57:b5, 2015-01-01 00:25:38.205,0.008,-0.001,0.994,0.366,0.793,0.061, , , , , , ,-0.291,-0.412,-108.369
 09:37:01.433,eb:33:2e:f9:57:b5, 2015-01-01 00:25:38.205,0.008,-0.001,0.993,0.366,0.732,0.061, , , , , , ,-0.291,-0.412,-108.369
 09:37:01.478,eb:33:2e:f9:57:b5, 2015-01-01 00:25:38.205,0.009,-0.001,0.993,0.305,0.732,0.061, , , , , , ,-0.291,-0.412,-108.369
 09:37:01.478,eb:33:2e:f9:57:b5, 2015-01-01 00:25:38.205,0.009,-0.001,0.992,0.305,0.671,0.061, , , , , , ,-0.291,-0.412,-108.369
 09:37:01.478,eb:33:2e:f9:57:b5, 2015-01-01 00:25:38.205,0.008,-0.001,0.992,0.305,0.793,0.061, , , , , , ,-0.291,-0.412,-108.369
 09:37:01.478,eb:33:2e:f9:57:b5, 2015-01-01 00:25:38.205,0.009,-0.001,0.992,0.244,0.793,0.061, , , , , , ,-0.291,-0.412,-108.369
 09:37:01.478,eb:33:2e:f9:57:b5, 2015-01-01 00:25:38.205,0.007,-0.001,0.992,0.244,0.793,0, , , , , , ,-0.291,-0.412,-108.369
 09:37:01.478,eb:33:2e:f9:57:b5, 2015-01-01 00:25:38.205,0.007,-0.001,0.992,0.244,0.732,0, , , , , , ,-0.291,-0.412,-108.369
 09:37:01.478,eb:33:2e:f9:57:b5, 2015-01-01 00:25:38.205,0.008,-0.001,0.993,0.183,0.732,0, , , , , , ,-0.291,-0.412,-108.369
 09:37:01.478,eb:33:2e:f9:57:b5, 2015-01-01 00:25:38.205,0.008,-0.002,0.994,0.183,0.732,0, , , , , , ,-0.291,-0.412,-108.369
 09:37:01.524,eb:33:2e:f9:57:b5, 2015-01-01 00:25:38.205,0.008,-0.004,0.995,0.244,0.732,0, , , , , , ,-0.291,-0.412,-108.369
 09:37:01.524,eb:33:2e:f9:57:b5, 2015-01-01 00:25:38.205,0.008,-0.004,0.994,0.244,0.793,0.061, , , , , , ,-0.291,-0.412,-108.369
 09:37:01.524,eb:33:2e:f9:57:b5, 2015-01-01 00:25:38.205,0.006,0,0.993,0.244,0.793,0, , , , , , ,-0.291,-0.412,-108.369
 09:37:01.524,eb:33:2e:f9:57:b5, 2015-01-01 00:25:38.205,0.008,-0.003,0.994,0.305,0.793,0.061, , , , , , ,-0.291,-0.412,-108.369
 09:37:01.524,eb:33:2e:f9:57:b5, 2015-01-01 00:25:38.205,0.009,-0.004,0.996,0.366,0.793,0.061, , , , , , ,-0.291,-0.412,-108.369
 09:37:01.524,eb:33:2e:f9:57:b5, 2015-01-01 00:25:38.205,0.006,0,0.995,0.305,0.854,0.061, , , , , , ,-0.291,-0.412,-108.369
 09:37:01.524,eb:33:2e:f9:57:b5, 2015-01-01 00:25:38.205,0.006,0,0.992,0.305,0.732,0, , , , , , ,-0.291,-0.412,-108.369
 09:37:01.524,eb:33:2e:f9:57:b5, 2015-01-01 00:25:38.205,0.008,-0.002,0.993,0.305,0.61,0, , , , , , ,-0.291,-0.412,-108.369
 09:37:01.568,eb:33:2e:f9:57:b5, 2015-01-01 00:25:38.515,0.008,-0.002,0.994,0.305,0.61,0, , , , , , ,-0.291,-0.412,-108.369
 09:37:01.568,eb:33:2e:f9:57:b5, 2015-01-01 00:25:38.515,0.009,-0.003,0.994,0.366,0.671,0.061, , , , , , ,-0.291,-0.412,-108.369
 09:37:01.568,eb:33:2e:f9:57:b5, 2015-01-01 00:25:38.515,0.006,-0.001,0.994,0.305,0.671,0, , , , , , ,-0.291,-0.412,-108.369
 09:37:01.568,eb:33:2e:f9:57:b5, 2015-01-01 00:25:38.515,0.005,0,0.991,0.305,0.671,0, , , , , , ,-0.291,-0.412,-108.369
 09:37:01.568,eb:33:2e:f9:57:b5, 2015-01-01 00:25:38.515,0.008,0,0.991,0.183,0.549,0, , , , , , ,-0.286,-0.412,-108.369
 09:37:01.568,eb:33:2e:f9:57:b5, 2015-01-01 00:25:38.515,0.008,-0.001,0.994,0.183,0.549,0, , , , , , ,-0.286,-0.412,-108.369
 09:37:01.568,eb:33:2e:f9:57:b5, 2015-01-01 00:25:38.515,0.008,-0.002,0.994,0.122,0.61,0, , , , , , ,-0.286,-0.412,-108.369
 09:37:01.568,eb:33:2e:f9:57:b5, 2015-01-01 00:25:38.515,0.007,-0.002,0.994,0.183,0.61,0, , , , , , ,-0.286,-0.412,-108.369
 09:37:01.612,eb:33:2e:f9:57:b5, 2015-01-01 00:25:38.515,0.007,-0.001,0.993,0.183,0.671,0, , , , , , ,-0.286,-0.412,-108.369
 09:37:01.612,eb:33:2e:f9:57:b5, 2015-01-01 00:25:38.515,0.007,0,0.993,0.183,0.61,0, , , , , , ,-0.286,-0.412,-108.369
 09:37:01.612,eb:33:2e:f9:57:b5, 2015-01-01 00:25:38.515,0.006,-0.002,0.993,0.183,0.61,0, , , , , , ,-0.286,-0.412,-108.369
 09:37:01.612,eb:33:2e:f9:57:b5, 2015-01-01 00:25:38.515,0.006,-0.003,0.994,0.244,0.488,0.061, , , , , , ,-0.286,-0.412,-108.369
 09:37:01.612,eb:33:2e:f9:57:b5, 2015-01-01 00:25:38.515,0.005,-0.002,0.994,0.244,0.549,0.061, , , , , , ,-0.286,-0.412,-108.369
 09:37:01.612,eb:33:2e:f9:57:b5, 2015-01-01 00:25:38.515,0.006,-0.002,0.994,0.244,0.488,0.061, , , , , , ,-0.286,-0.412,-108.369
 09:37:01.613,eb:33:2e:f9:57:b5, 2015-01-01 00:25:38.515,0.008,-0.002,0.994,0.244,0.427,0.061, , , , , , ,-0.286,-0.412,-108.369
 09:37:01.613,eb:33:2e:f9:57:b5, 2015-01-01 00:25:38.515,0.007,-0.001,0.995,0.244,0.488,0, , , , , , ,-0.286,-0.412,-108.369
 09:37:01.635,eb:33:2e:f9:57:b5, 2015-01-01 00:25:38.515,0.005,-0.001,0.993,0.244,0.488,0, , , , , , ,-0.286,-0.412,-108.369
 09:37:01.635,eb:33:2e:f9:57:b5, 2015-01-01 00:25:38.515,0.004,0,0.99,0.183,0.366,0.061, , , , , , ,-0.286,-0.412,-108.369
 09:37:01.635,eb:33:2e:f9:57:b5, 2015-01-01 00:25:38.515,0.006,-0.001,0.99,0.183,0.122,0.061, , , , , , ,-0.286,-0.412,-108.369
 09:37:01.635,eb:33:2e:f9:57:b5, 2015-01-01 00:25:38.515,0.007,-0.002,0.992,0.183,0,0.061, , , , , , ,-0.286,-0.412,-108.369
 09:37:01.635,eb:33:2e:f9:57:b5, 2015-01-01 00:25:38.515,0.007,-0.002,0.994,0.183,0,0, , , , , , ,-0.286,-0.412,-108.369
 09:37:01.635,eb:33:2e:f9:57:b5, 2015-01-01 00:25:38.515,0.006,-0.001,0.993,0.183,0,0, , , , , , ,-0.286,-0.412,-108.369
 09:37:01.635,eb:33:2e:f9:57:b5, 2015-01-01 00:25:38.515,0.005,-0.001,0.993,0.183,0,0, , , , , , ,-0.286,-0.412,-108.369
 09:37:01.635,eb:33:2e:f9:57:b5, 2015-01-01 00:25:38.515,0.006,-0.002,0.993,0.183,0,0, , , , , , ,-0.286,-0.412,-108.369
 09:37:01.681,eb:33:2e:f9:57:b5, 2015-01-01 00:25:38.515,0.007,-0.002,0.993,0.183,-0.061,0, , , , , , ,-0.286,-0.412,-108.369
 09:37:01.681,eb:33:2e:f9:57:b5, 2015-01-01 00:25:38.515,0.007,-0.002,0.994,0.244,0,0, , , , , , ,-0.286,-0.412,-108.369
 09:37:01.681,eb:33:2e:f9:57:b5, 2015-01-01 00:25:38.515,0.006,-0.001,0.993,0.244,-0.061,0.061, , , , , , ,-0.286,-0.412,-108.369
 09:37:01.681,eb:33:2e:f9:57:b5, 2015-01-01 00:25:38.515,0.006,-0.001,0.993,0.122,-0.061,0.061, , , , , , ,-0.286,-0.412,-108.369
 09:37:01.681,eb:33:2e:f9:57:b5, 2015-01-01 00:25:38.515,0.007,-0.001,0.993,0.183,-0.061,0, , , , , , ,-0.28,-0.412,-108.369
 09:37:01.681,eb:33:2e:f9:57:b5, 2015-01-01 00:25:38.515,0.007,0,0.994,0.122,-0.122,0.061, , , , , , ,-0.28,-0.412,-108.369
 09:37:01.681,eb:33:2e:f9:57:b5, 2015-01-01 00:25:38.515,0.006,-0.002,0.995,0.122,-0.122,0.061, , , , , , ,-0.28,-0.412,-108.369
 09:37:01.681,eb:33:2e:f9:57:b5, 2015-01-01 00:25:38.515,0.005,-0.002,0.993,0.183,-0.122,0.061, , , , , , ,-0.28,-0.412,-108.369
 09:37:01.726,eb:33:2e:f9:57:b5, 2015-01-01 00:25:38.515,0.006,-0.001,0.993,0.183,-0.122,0.061, , , , , , ,-0.28,-0.412,-108.369
 09:37:01.726,eb:33:2e:f9:57:b5, 2015-01-01 00:25:38.515,0.006,-0.001,0.993,0.122,-0.183,0, , , , , , ,-0.28,-0.412,-108.369
 09:37:01.726,eb:33:2e:f9:57:b5, 2015-01-01 00:25:38.515,0.007,0,0.993,0.061,-0.183,0.061, , , , , , ,-0.28,-0.412,-108.369
 09:37:01.726,eb:33:2e:f9:57:b5, 2015-01-01 00:25:38.515,0.008,0,0.993,0.061,-0.244,0, , , , , , ,-0.28,-0.412,-108.369
 09:37:01.726,eb:33:2e:f9:57:b5, 2015-01-01 00:25:38.515,0.008,0,0.993,0,-0.244,0, , , , , , ,-0.28,-0.412,-108.369
 09:37:01.726,eb:33:2e:f9:57:b5, 2015-01-01 00:25:38.515,0.008,0,0.993,0,-0.183,0, , , , , , ,-0.28,-0.412,-108.369
 09:37:01.726,eb:33:2e:f9:57:b5, 2015-01-01 00:25:38.515,0.008,-0.001,0.994,0,-0.183,0, , , , , , ,-0.28,-0.412,-108.369
 09:37:01.726,eb:33:2e:f9:57:b5, 2015-01-01 00:25:38.515,0.008,-0.001,0.993,0.061,-0.183,0.061, , , , , , ,-0.28,-0.412,-108.369
 09:37:01.770,eb:33:2e:f9:57:b5, 2015-01-01 00:25:38.515,0.008,-0.001,0.994,0,-0.122,0, , , , , , ,-0.28,-0.412,-108.369
 09:37:01.770,eb:33:2e:f9:57:b5, 2015-01-01 00:25:38.515,0.007,-0.001,0.995,0.061,-0.061,0, , , , , , ,-0.28,-0.412,-108.369
 09:37:01.770,eb:33:2e:f9:57:b5, 2015-01-01 00:25:38.515,0.007,-0.001,0.995,0.061,-0.122,0.061, , , , , , ,-0.28,-0.412,-108.369
 09:37:01.770,eb:33:2e:f9:57:b5, 2015-01-01 00:25:38.515,0.007,-0.002,0.995,0.122,-0.122,0.061, , , , , , ,-0.28,-0.412,-108.369
 09:37:01.770,eb:33:2e:f9:57:b5, 2015-01-01 00:25:38.515,0.007,-0.002,0.994,0.183,-0.183,0.061, , , , , , ,-0.28,-0.412,-108.369
 09:37:01.770,eb:33:2e:f9:57:b5, 2015-01-01 00:25:38.515,0.006,-0.002,0.994,0.122,-0.183,0, , , , , , ,-0.28,-0.412,-108.369
 09:37:01.770,eb:33:2e:f9:57:b5, 2015-01-01 00:25:38.515,0.007,-0.001,0.994,0.183,-0.183,0, , , , , , ,-0.28,-0.412,-108.369
 09:37:01.770,eb:33:2e:f9:57:b5, 2015-01-01 00:25:38.515,0.008,-0.001,0.993,0.183,-0.244,0, , , , , , ,-0.28,-0.412,-108.369
 09:37:01.815,eb:33:2e:f9:57:b5, 2015-01-01 00:25:38.515,0.007,-0.001,0.994,0.183,-0.122,0.061, , , , , , ,-0.275,-0.412,-108.369
 09:37:01.815,eb:33:2e:f9:57:b5, 2015-01-01 00:25:38.515,0.008,-0.001,0.994,0.183,-0.244,0.061, , , , , , ,-0.275,-0.412,-108.369
 09:37:01.815,eb:33:2e:f9:57:b5, 2015-01-01 00:25:38.515,0.007,-0.001,0.994,0.183,-0.244,0, , , , , , ,-0.275,-0.412,-108.369
 09:37:01.815,eb:33:2e:f9:57:b5, 2015-01-01 00:25:38.515,0.007,-0.001,0.993,0.183,-0.244,0.061, , , , , , ,-0.275,-0.412,-108.369
 09:37:01.815,eb:33:2e:f9:57:b5, 2015-01-01 00:25:38.515,0.007,-0.001,0.992,0.122,-0.244,0.061, , , , , , ,-0.275,-0.412,-108.369
 09:37:01.815,eb:33:2e:f9:57:b5, 2015-01-01 00:25:38.515,0.007,0,0.993,0.122,-0.244,0, , , , , , ,-0.275,-0.412,-108.369
 09:37:01.815,eb:33:2e:f9:57:b5, 2015-01-01 00:25:38.515,0.007,-0.001,0.992,0.183,-0.183,0, , , , , , ,-0.275,-0.412,-108.369
 09:37:01.815,eb:33:2e:f9:57:b5, 2015-01-01 00:25:38.515,0.008,-0.001,0.993,0.122,-0.305,0.061, , , , , , ,-0.275,-0.412,-108.369
 09:37:01.838,eb:33:2e:f9:57:b5, 2015-01-01 00:25:38.805,0.008,-0.001,0.993,0.061,-0.305,0, , , , , , ,-0.275,-0.412,-108.369
 09:37:01.838,eb:33:2e:f9:57:b5, 2015-01-01 00:25:38.805,0.008,-0.001,0.992,0.122,-0.427,0, , , , , , ,-0.275,-0.412,-108.369
 09:37:01.838,eb:33:2e:f9:57:b5, 2015-01-01 00:25:38.805,0.008,-0.001,0.993,0.061,-0.366,0, , , , , , ,-0.275,-0.412,-108.369
 09:37:01.838,eb:33:2e:f9:57:b5, 2015-01-01 00:25:38.805,0.007,-0.001,0.993,0.122,-0.427,0, , , , , , ,-0.275,-0.412,-108.369
 09:37:01.838,eb:33:2e:f9:57:b5, 2015-01-01 00:25:38.805,0.009,-0.002,0.993,0.061,-0.488,0, , , , , , ,-0.275,-0.412,-108.369
