Time,Device name,Chip Time(),Acceleration X(g),Acceleration Y(g),Acceleration Z(g),Angular velocity X(°/s),Angular velocity Y(°/s),Angular velocity Z(°/s),ShiftX(mm),ShiftY(mm),ShiftZ(mm),SpeedX(mm/s),SpeedY(mm/s),SpeedZ(mm/s),Angle X(°),Angle Y(°),Angle Z(°)
 09:35:55.483,eb:33:2e:f9:57:b5, 2015-01-01 00:24:32.610,0.006,-0.006,0.993,0,-0.061,-0.061, , , , , , ,-0.368,-0.374,-107.902
 09:35:55.484,eb:33:2e:f9:57:b5, 2015-01-01 00:24:32.610,0.007,-0.006,0.993,0,-0.183,-0.061, , , , , , ,-0.368,-0.374,-107.902
 09:35:55.484,eb:33:2e:f9:57:b5, 2015-01-01 00:24:32.610,0.009,-0.006,0.993,0,-0.183,-0.061, , , , , , ,-0.368,-0.374,-107.902
 09:35:55.484,eb:33:2e:f9:57:b5, 2015-01-01 00:24:32.610,0.008,-0.006,0.994,0,-0.183,-0.061, , , , , , ,-0.368,-0.374,-107.902
 09:35:55.484,eb:33:2e:f9:57:b5, 2015-01-01 00:24:32.610,0.008,-0.006,0.994,0,-0.122,0, , , , , , ,-0.368,-0.374,-107.902
 09:35:55.484,eb:33:2e:f9:57:b5, 2015-01-01 00:24:32.610,0.008,-0.006,0.995,0,-0.122,-0.122, , , , , , ,-0.368,-0.374,-107.902
 09:35:55.484,eb:33:2e:f9:57:b5, 2015-01-01 00:24:32.610,0.009,-0.007,0.994,0,-0.122,-0.122, , , , , , ,-0.368,-0.374,-107.902
 09:35:55.484,eb:33:2e:f9:57:b5, 2015-01-01 00:24:32.610,0.01,-0.007,0.994,0,0,0, , , , , , ,-0.368,-0.374,-107.902
 09:35:55.506,eb:33:2e:f9:57:b5, 2015-01-01 00:24:32.610,0.008,-0.006,0.996,0.061,0,0, , , , , , ,-0.368,-0.374,-107.902
 09:35:55.506,eb:33:2e:f9:57:b5, 2015-01-01 00:24:32.610,0.008,-0.008,0.994,0.061,0.061,0, , , , , , ,-0.368,-0.374,-107.902
 09:35:55.506,eb:33:2e:f9:57:b5, 2015-01-01 00:24:32.610,0.008,-0.007,0.995,0.061,0.122,0, , , , , , ,-0.368,-0.374,-107.902
 09:35:55.506,eb:33:2e:f9:57:b5, 2015-01-01 00:24:32.610,0.006,-0.006,0.994,0.061,0.122,0, , , , , , ,-0.368,-0.374,-107.902
 09:35:55.506,eb:33:2e:f9:57:b5, 2015-01-01 00:24:32.610,0.006,-0.005,0.992,0,0.122,0, , , , , , ,-0.368,-0.374,-107.902
 09:35:55.506,eb:33:2e:f9:57:b5, 2015-01-01 00:24:32.610,0.007,-0.005,0.991,0,0,0, , , , , , ,-0.368,-0.374,-107.902
 09:35:55.506,eb:33:2e:f9:57:b5, 2015-01-01 00:24:32.610,0.007,-0.006,0.992,0,0,0, , , , , , ,-0.368,-0.374,-107.902
 09:35:55.506,eb:33:2e:f9:57:b5, 2015-01-01 00:24:32.610,0.008,-0.006,0.993,0,-0.061,0, , , , , , ,-0.368,-0.374,-107.902
 09:35:55.529,eb:33:2e:f9:57:b5, 2015-01-01 00:24:32.610,0.007,-0.006,0.994,0,-0.061,0, , , , , , ,-0.368,-0.374,-107.902
 09:35:55.529,eb:33:2e:f9:57:b5, 2015-01-01 00:24:32.610,0.007,-0.006,0.993,0,-0.061,0, , , , , , ,-0.368,-0.374,-107.902
 09:35:55.529,eb:33:2e:f9:57:b5, 2015-01-01 00:24:32.610,0.008,-0.006,0.993,0,-0.122,0, , , , , , ,-0.368,-0.374,-107.902
 09:35:55.529,eb:33:2e:f9:57:b5, 2015-01-01 00:24:32.610,0.008,-0.007,0.994,0,-0.183,0, , , , , , ,-0.368,-0.374,-107.902
 09:35:55.529,eb:33:2e:f9:57:b5, 2015-01-01 00:24:32.610,0.009,-0.007,0.995,0,-0.183,0, , , , , , ,-0.368,-0.374,-107.902
 09:35:55.529,eb:33:2e:f9:57:b5, 2015-01-01 00:24:32.610,0.009,-0.007,0.994,0,-0.122,0, , , , , , ,-0.368,-0.374,-107.902
 09:35:55.529,eb:33:2e:f9:57:b5, 2015-01-01 00:24:32.610,0.009,-0.006,0.994,0,-0.061,0, , , , , , ,-0.368,-0.374,-107.902
 09:35:55.529,eb:33:2e:f9:57:b5, 2015-01-01 00:24:32.610,0.008,-0.006,0.994,0,-0.061,-0.061, , , , , , ,-0.368,-0.374,-107.902
 09:35:55.596,eb:33:2e:f9:57:b5, 2015-01-01 00:24:32.990,0.007,-0.006,0.993,0,0,-0.061, , , , , , ,-0.368,-0.374,-107.902
 09:35:55.596,eb:33:2e:f9:57:b5, 2015-01-01 00:24:32.990,0.007,-0.007,0.994,0,0,0, , , , , , ,-0.368,-0.374,-107.902
 09:35:55.596,eb:33:2e:f9:57:b5, 2015-01-01 00:24:32.990,0.009,-0.007,0.995,0,0,0, , , , , , ,-0.368,-0.374,-107.897
 09:35:55.596,eb:33:2e:f9:57:b5, 2015-01-01 00:24:32.990,0.009,-0.007,0.996,0.061,0.061,0, , , , , , ,-0.368,-0.374,-107.897
 09:35:55.596,eb:33:2e:f9:57:b5, 2015-01-01 00:24:32.990,0.008,-0.008,0.995,0.061,0.061,0.061, , , , , , ,-0.368,-0.374,-107.897
 09:35:55.596,eb:33:2e:f9:57:b5, 2015-01-01 00:24:32.990,0.006,-0.007,0.994,0.061,0.122,0.061, , , , , , ,-0.368,-0.374,-107.897
 09:35:55.596,eb:33:2e:f9:57:b5, 2015-01-01 00:24:32.990,0.006,-0.006,0.993,0.061,0.061,0.122, , , , , , ,-0.368,-0.374,-107.897
 09:35:55.596,eb:33:2e:f9:57:b5, 2015-01-01 00:24:32.990,0.008,-0.008,0.993,0.061,0,0.061, , , , , , ,-0.368,-0.374,-107.897
 09:35:55.618,eb:33:2e:f9:57:b5, 2015-01-01 00:24:32.990,0.007,-0.008,0.994,0.061,0,0.183, , , , , , ,-0.368,-0.379,-107.897
 09:35:55.618,eb:33:2e:f9:57:b5, 2015-01-01 00:24:32.990,0.008,-0.007,0.994,0,0,0.183, , , , , , ,-0.368,-0.379,-107.897
 09:35:55.618,eb:33:2e:f9:57:b5, 2015-01-01 00:24:32.990,0.008,-0.006,0.994,0.061,0,0.183, , , , , , ,-0.368,-0.379,-107.897
 09:35:55.618,eb:33:2e:f9:57:b5, 2015-01-01 00:24:32.990,0.008,-0.006,0.993,0,0,0.183, , , , , , ,-0.368,-0.379,-107.897
 09:35:55.618,eb:33:2e:f9:57:b5, 2015-01-01 00:24:32.990,0.008,-0.006,0.993,0,0,0.244, , , , , , ,-0.368,-0.379,-107.897
 09:35:55.618,eb:33:2e:f9:57:b5, 2015-01-01 00:24:32.990,0.008,-0.006,0.994,0,0.061,0.183, , , , , , ,-0.368,-0.379,-107.897
 09:35:55.618,eb:33:2e:f9:57:b5, 2015-01-01 00:24:32.990,0.007,-0.006,0.992,0,0,0.244, , , , , , ,-0.368,-0.379,-107.897
 09:35:55.618,eb:33:2e:f9:57:b5, 2015-01-01 00:24:32.990,0.007,-0.005,0.991,0,0,0.244, , , , , , ,-0.368,-0.379,-107.897
 09:35:55.663,eb:33:2e:f9:57:b5, 2015-01-01 00:24:32.990,0.008,-0.006,0.991,0,-0.061,0.183, , , , , , ,-0.368,-0.379,-107.897
 09:35:55.663,eb:33:2e:f9:57:b5, 2015-01-01 00:24:32.990,0.009,-0.006,0.992,-0.061,-0.122,0.183, , , , , , ,-0.368,-0.379,-107.897
 09:35:55.663,eb:33:2e:f9:57:b5, 2015-01-01 00:24:32.990,0.008,-0.006,0.992,-0.061,-0.061,0.122, , , , , , ,-0.368,-0.379,-107.897
 09:35:55.663,eb:33:2e:f9:57:b5, 2015-01-01 00:24:32.990,0.008,-0.006,0.992,-0.122,-0.061,0.122, , , , , , ,-0.368,-0.379,-107.897
 09:35:55.663,eb:33:2e:f9:57:b5, 2015-01-01 00:24:32.990,0.008,-0.006,0.993,-0.122,-0.122,0.061, , , , , , ,-0.368,-0.379,-107.897
 09:35:55.663,eb:33:2e:f9:57:b5, 2015-01-01 00:24:32.990,0.009,-0.007,0.994,-0.183,-0.061,0, , , , , , ,-0.368,-0.379,-107.897
 09:35:55.663,eb:33:2e:f9:57:b5, 2015-01-01 00:24:32.990,0.008,-0.007,0.993,-0.122,0,0, , , , , , ,-0.368,-0.379,-107.897
 09:35:55.663,eb:33:2e:f9:57:b5, 2015-01-01 00:24:32.990,0.008,-0.006,0.993,-0.122,-0.061,0, , , , , , ,-0.368,-0.379,-107.897
 09:35:55.687,eb:33:2e:f9:57:b5, 2015-01-01 00:24:32.990,0.008,-0.005,0.992,-0.183,0,0, , , , , , ,-0.368,-0.379,-107.897
 09:35:55.687,eb:33:2e:f9:57:b5, 2015-01-01 00:24:32.990,0.009,-0.008,0.994,-0.183,0,0.061, , , , , , ,-0.368,-0.379,-107.897
 09:35:55.687,eb:33:2e:f9:57:b5, 2015-01-01 00:24:32.990,0.009,-0.009,0.996,0,0.061,0.122, , , , , , ,-0.368,-0.379,-107.897
 09:35:55.687,eb:33:2e:f9:57:b5, 2015-01-01 00:24:32.990,0.007,-0.008,0.995,0,0.122,0.061, , , , , , ,-0.368,-0.379,-107.897
 09:35:55.687,eb:33:2e:f9:57:b5, 2015-01-01 00:24:32.990,0.006,-0.007,0.993,0,0.061,0.122, , , , , , ,-0.368,-0.379,-107.897
 09:35:55.687,eb:33:2e:f9:57:b5, 2015-01-01 00:24:32.990,0.009,-0.007,0.992,0,0,0.061, , , , , , ,-0.368,-0.379,-107.897
 09:35:55.687,eb:33:2e:f9:57:b5, 2015-01-01 00:24:32.990,0.009,-0.007,0.994,0.061,0,0.061, , , , , , ,-0.368,-0.379,-107.897
 09:35:55.687,eb:33:2e:f9:57:b5, 2015-01-01 00:24:32.990,0.008,-0.008,0.996,0.183,0.061,0.061, , , , , , ,-0.368,-0.379,-107.897
 09:35:55.732,eb:33:2e:f9:57:b5, 2015-01-01 00:24:32.990,0.007,-0.008,0.994,0.183,0.061,0.122, , , , , , ,-0.368,-0.379,-107.897
 09:35:55.732,eb:33:2e:f9:57:b5, 2015-01-01 00:24:32.990,0.007,-0.006,0.993,0.183,-0.061,0.061, , , , , , ,-0.368,-0.379,-107.897
 09:35:55.732,eb:33:2e:f9:57:b5, 2015-01-01 00:24:32.990,0.008,-0.006,0.993,0.122,-0.122,0, , , , , , ,-0.368,-0.379,-107.897
 09:35:55.732,eb:33:2e:f9:57:b5, 2015-01-01 00:24:32.990,0.008,-0.006,0.993,0.122,-0.122,0, , , , , , ,-0.368,-0.379,-107.897
 09:35:55.732,eb:33:2e:f9:57:b5, 2015-01-01 00:24:32.990,0.008,-0.006,0.993,0.122,-0.183,0, , , , , , ,-0.368,-0.379,-107.897
 09:35:55.732,eb:33:2e:f9:57:b5, 2015-01-01 00:24:32.990,0.009,-0.007,0.994,0.122,-0.122,0, , , , , , ,-0.368,-0.379,-107.897
 09:35:55.732,eb:33:2e:f9:57:b5, 2015-01-01 00:24:32.990,0.008,-0.006,0.994,0.122,-0.183,0, , , , , , ,-0.368,-0.379,-107.897
 09:35:55.732,eb:33:2e:f9:57:b5, 2015-01-01 00:24:32.990,0.007,-0.007,0.993,0.061,-0.122,0, , , , , , ,-0.368,-0.379,-107.897
 09:35:55.776,eb:33:2e:f9:57:b5, 2015-01-01 00:24:32.990,0.008,-0.007,0.993,0.122,-0.183,-0.061, , , , , , ,-0.368,-0.379,-107.897
 09:35:55.776,eb:33:2e:f9:57:b5, 2015-01-01 00:24:32.990,0.008,-0.008,0.994,0.122,-0.244,0, , , , , , ,-0.368,-0.379,-107.897
 09:35:55.776,eb:33:2e:f9:57:b5, 2015-01-01 00:24:32.990,0.009,-0.008,0.994,0.183,-0.244,-0.061, , , , , , ,-0.368,-0.379,-107.897
 09:35:55.776,eb:33:2e:f9:57:b5, 2015-01-01 00:24:32.990,0.009,-0.007,0.994,0.183,-0.244,-0.061, , , , , , ,-0.368,-0.379,-107.897
 09:35:55.776,eb:33:2e:f9:57:b5, 2015-01-01 00:24:32.990,0.009,-0.007,0.993,0.183,-0.244,-0.061, , , , , , ,-0.368,-0.379,-107.897
 09:35:55.776,eb:33:2e:f9:57:b5, 2015-01-01 00:24:32.990,0.009,-0.007,0.993,0.183,-0.305,-0.122, , , , , , ,-0.368,-0.379,-107.897
 09:35:55.777,eb:33:2e:f9:57:b5, 2015-01-01 00:24:32.990,0.009,-0.007,0.994,0.183,-0.305,-0.061, , , , , , ,-0.368,-0.379,-107.897
 09:35:55.777,eb:33:2e:f9:57:b5, 2015-01-01 00:24:32.990,0.009,-0.006,0.992,0.122,-0.305,-0.061, , , , , , ,-0.368,-0.379,-107.897
 09:35:55.820,eb:33:2e:f9:57:b5, 2015-01-01 00:24:32.990,0.008,-0.007,0.992,0.061,-0.305,0, , , , , , ,-0.368,-0.385,-107.897
 09:35:55.820,eb:33:2e:f9:57:b5, 2015-01-01 00:24:32.990,0.009,-0.006,0.992,0.061,-0.244,0, , , , , , ,-0.368,-0.385,-107.897
 09:35:55.820,eb:33:2e:f9:57:b5, 2015-01-01 00:24:32.990,0.007,-0.006,0.992,0.061,-0.305,0, , , , , , ,-0.368,-0.385,-107.897
 09:35:55.820,eb:33:2e:f9:57:b5, 2015-01-01 00:24:32.990,0.008,-0.006,0.992,0,-0.366,0, , , , , , ,-0.368,-0.385,-107.897
 09:35:55.820,eb:33:2e:f9:57:b5, 2015-01-01 00:24:32.990,0.007,-0.006,0.992,0,-0.366,-0.061, , , , , , ,-0.368,-0.385,-107.897
 09:35:55.820,eb:33:2e:f9:57:b5, 2015-01-01 00:24:32.990,0.007,-0.006,0.992,-0.061,-0.427,-0.122, , , , , , ,-0.368,-0.385,-107.897
 09:35:55.820,eb:33:2e:f9:57:b5, 2015-01-01 00:24:32.990,0.006,-0.006,0.992,-0.061,-0.488,-0.061, , , , , , ,-0.368,-0.385,-107.897
 09:35:55.820,eb:33:2e:f9:57:b5, 2015-01-01 00:24:32.990,0.007,-0.007,0.994,-0.122,-0.61,0, , , , , , ,-0.368,-0.385,-107.897
 09:35:55.866,eb:33:2e:f9:57:b5, 2015-01-01 00:24:33.280,0.009,-0.007,0.993,-0.061,-0.671,-0.061, , , , , , ,-0.368,-0.385,-107.897
 09:35:55.866,eb:33:2e:f9:57:b5, 2015-01-01 00:24:33.280,0.009,-0.007,0.995,-0.122,-0.671,0, , , , , , ,-0.368,-0.385,-107.897
 09:35:55.866,eb:33:2e:f9:57:b5, 2015-01-01 00:24:33.280,0.009,-0.008,0.994,-0.122,-0.671,0, , , , , , ,-0.368,-0.385,-107.897
 09:35:55.866,eb:33:2e:f9:57:b5, 2015-01-01 00:24:33.280,0.009,-0.007,0.995,-0.061,-0.671,0, , , , , , ,-0.368,-0.385,-107.897
 09:35:55.866,eb:33:2e:f9:57:b5, 2015-01-01 00:24:33.280,0.009,-0.007,0.994,-0.061,-0.671,0, , , , , , ,-0.374,-0.385,-107.897
 09:35:55.866,eb:33:2e:f9:57:b5, 2015-01-01 00:24:33.280,0.01,-0.009,0.995,0,-0.671,0, , , , , , ,-0.374,-0.385,-107.897
 09:35:55.866,eb:33:2e:f9:57:b5, 2015-01-01 00:24:33.280,0.009,-0.008,0.995,0,-0.671,0.061, , , , , , ,-0.374,-0.385,-107.897
 09:35:55.866,eb:33:2e:f9:57:b5, 2015-01-01 00:24:33.280,0.008,-0.007,0.994,0,-0.671,0.061, , , , , , ,-0.374,-0.385,-107.897
 09:35:55.887,eb:33:2e:f9:57:b5, 2015-01-01 00:24:33.280,0.01,-0.007,0.993,0,-0.732,0.061, , , , , , ,-0.374,-0.385,-107.897
 09:35:55.887,eb:33:2e:f9:57:b5, 2015-01-01 00:24:33.280,0.011,-0.007,0.995,0,-0.732,0, , , , , , ,-0.374,-0.385,-107.897
 09:35:55.887,eb:33:2e:f9:57:b5, 2015-01-01 00:24:33.280,0.011,-0.007,0.996,0,-0.61,0.061, , , , , , ,-0.374,-0.385,-107.897
 09:35:55.887,eb:33:2e:f9:57:b5, 2015-01-01 00:24:33.280,0.011,-0.007,0.995,0,-0.488,0.061, , , , , , ,-0.374,-0.385,-107.897
 09:35:55.887,eb:33:2e:f9:57:b5, 2015-01-01 00:24:33.280,0.01,-0.007,0.994,0,-0.366,0.061, , , , , , ,-0.374,-0.385,-107.897
 09:35:55.887,eb:33:2e:f9:57:b5, 2015-01-01 00:24:33.280,0.01,-0.007,0.993,0,-0.366,0.061, , , , , , ,-0.374,-0.385,-107.897
 09:35:55.887,eb:33:2e:f9:57:b5, 2015-01-01 00:24:33.280,0.01,-0.007,0.993,0,-0.366,0.122, , , , , , ,-0.374,-0.385,-107.897
 09:35:55.887,eb:33:2e:f9:57:b5, 2015-01-01 00:24:33.280,0.01,-0.008,0.994,0,-0.366,0.061, , , , , , ,-0.374,-0.385,-107.897
 09:35:55.933,eb:33:2e:f9:57:b5, 2015-01-01 00:24:33.280,0.01,-0.008,0.994,0,-0.366,0.061, , , , , , ,-0.374,-0.385,-107.897
 09:35:55.933,eb:33:2e:f9:57:b5, 2015-01-01 00:24:33.280,0.009,-0.006,0.994,-0.122,-0.366,0.061, , , , , , ,-0.374,-0.385,-107.897
 09:35:55.933,eb:33:2e:f9:57:b5, 2015-01-01 00:24:33.280,0.01,-0.006,0.992,-0.122,-0.366,0.061, , , , , , ,-0.374,-0.385,-107.897
 09:35:55.933,eb:33:2e:f9:57:b5, 2015-01-01 00:24:33.280,0.01,-0.007,0.992,-0.122,-0.427,0.061, , , , , , ,-0.374,-0.385,-107.897
 09:35:55.934,eb:33:2e:f9:57:b5, 2015-01-01 00:24:33.280,0.01,-0.007,0.993,-0.183,-0.488,0.061, , , , , , ,-0.374,-0.385,-107.897
 09:35:55.934,eb:33:2e:f9:57:b5, 2015-01-01 00:24:33.280,0.01,-0.007,0.992,-0.183,-0.488,0.061, , , , , , ,-0.374,-0.385,-107.897
 09:35:55.934,eb:33:2e:f9:57:b5, 2015-01-01 00:24:33.280,0.009,-0.007,0.992,-0.244,-0.549,0, , , , , , ,-0.374,-0.39,-107.897
 09:35:55.934,eb:33:2e:f9:57:b5, 2015-01-01 00:24:33.280,0.009,-0.007,0.993,-0.244,-0.549,0.061, , , , , , ,-0.374,-0.39,-107.897
 09:35:55.979,eb:33:2e:f9:57:b5, 2015-01-01 00:24:33.280,0.01,-0.007,0.992,-0.244,-0.61,0, , , , , , ,-0.374,-0.39,-107.897
 09:35:55.979,eb:33:2e:f9:57:b5, 2015-01-01 00:24:33.280,0.013,-0.007,0.993,-0.305,-0.61,0, , , , , , ,-0.374,-0.39,-107.897
 09:35:55.979,eb:33:2e:f9:57:b5, 2015-01-01 00:24:33.280,0.012,-0.007,0.994,-0.305,-0.549,0, , , , , , ,-0.374,-0.39,-107.897
 09:35:55.979,eb:33:2e:f9:57:b5, 2015-01-01 00:24:33.280,0.012,-0.007,0.994,-0.366,-0.488,0, , , , , , ,-0.374,-0.39,-107.897
 09:35:55.979,eb:33:2e:f9:57:b5, 2015-01-01 00:24:33.280,0.012,-0.008,0.995,-0.244,-0.549,0, , , , , , ,-0.374,-0.39,-107.897
 09:35:55.979,eb:33:2e:f9:57:b5, 2015-01-01 00:24:33.280,0.011,-0.008,0.996,-0.244,-0.427,0, , , , , , ,-0.374,-0.39,-107.897
 09:35:55.979,eb:33:2e:f9:57:b5, 2015-01-01 00:24:33.280,0.011,-0.007,0.995,-0.244,-0.427,0, , , , , , ,-0.374,-0.39,-107.897
 09:35:55.979,eb:33:2e:f9:57:b5, 2015-01-01 00:24:33.280,0.011,-0.007,0.994,-0.244,-0.427,0, , , , , , ,-0.374,-0.39,-107.897
 09:35:56.045,eb:33:2e:f9:57:b5, 2015-01-01 00:24:33.280,0.012,-0.007,0.994,-0.305,-0.366,0, , , , , , ,-0.374,-0.39,-107.897
 09:35:56.045,eb:33:2e:f9:57:b5, 2015-01-01 00:24:33.280,0.013,-0.007,0.994,-0.366,-0.366,0, , , , , , ,-0.374,-0.39,-107.897
 09:35:56.045,eb:33:2e:f9:57:b5, 2015-01-01 00:24:33.280,0.01,-0.007,0.994,-0.366,-0.244,0, , , , , , ,-0.374,-0.39,-107.891
 09:35:56.045,eb:33:2e:f9:57:b5, 2015-01-01 00:24:33.280,0.011,-0.008,0.993,-0.488,-0.305,0, , , , , , ,-0.374,-0.39,-107.891
 09:35:56.045,eb:33:2e:f9:57:b5, 2015-01-01 00:24:33.280,0.011,-0.007,0.993,-0.427,-0.366,0, , , , , , ,-0.374,-0.39,-107.897
 09:35:56.045,eb:33:2e:f9:57:b5, 2015-01-01 00:24:33.280,0.012,-0.009,0.993,-0.427,-0.183,0, , , , , , ,-0.374,-0.39,-107.897
 09:35:56.045,eb:33:2e:f9:57:b5, 2015-01-01 00:24:33.280,0.012,-0.008,0.995,-0.366,-0.122,-0.061, , , , , , ,-0.374,-0.39,-107.891
 09:35:56.045,eb:33:2e:f9:57:b5, 2015-01-01 00:24:33.280,0.009,-0.007,0.995,-0.366,-0.061,0, , , , , , ,-0.374,-0.39,-107.891
 09:35:56.069,eb:33:2e:f9:57:b5, 2015-01-01 00:24:33.280,0.012,-0.01,0.994,-0.366,-0.061,0, , , , , , ,-0.374,-0.396,-107.891
 09:35:56.069,eb:33:2e:f9:57:b5, 2015-01-01 00:24:33.280,0.013,-0.01,0.997,-0.244,0,0, , , , , , ,-0.374,-0.396,-107.891
 09:35:56.069,eb:33:2e:f9:57:b5, 2015-01-01 00:24:33.280,0.012,-0.01,0.996,-0.122,0,0, , , , , , ,-0.374,-0.396,-107.891
 09:35:56.069,eb:33:2e:f9:57:b5, 2015-01-01 00:24:33.280,0.011,-0.009,0.996,-0.061,0.061,0, , , , , , ,-0.374,-0.396,-107.891
 09:35:56.069,eb:33:2e:f9:57:b5, 2015-01-01 00:24:33.280,0.011,-0.01,0.995,0,0.183,0.122, , , , , , ,-0.374,-0.396,-107.891
 09:35:56.069,eb:33:2e:f9:57:b5, 2015-01-01 00:24:33.280,0.012,-0.008,0.994,0,0.183,0.061, , , , , , ,-0.374,-0.396,-107.891
 09:35:56.069,eb:33:2e:f9:57:b5, 2015-01-01 00:24:33.280,0.011,-0.007,0.994,0,0.244,0.061, , , , , , ,-0.374,-0.396,-107.891
 09:35:56.069,eb:33:2e:f9:57:b5, 2015-01-01 00:24:33.280,0.012,-0.008,0.993,0,0.305,0, , , , , , ,-0.374,-0.396,-107.891
 09:35:56.091,eb:33:2e:f9:57:b5, 2015-01-01 00:24:33.280,0.011,-0.008,0.993,0,0.244,0, , , , , , ,-0.374,-0.396,-107.891
 09:35:56.091,eb:33:2e:f9:57:b5, 2015-01-01 00:24:33.280,0.012,-0.008,0.993,0,0.305,0, , , , , , ,-0.374,-0.396,-107.891
 09:35:56.091,eb:33:2e:f9:57:b5, 2015-01-01 00:24:33.280,0.012,-0.007,0.992,0,0.366,0, , , , , , ,-0.374,-0.396,-107.891
 09:35:56.091,eb:33:2e:f9:57:b5, 2015-01-01 00:24:33.280,0.01,-0.007,0.992,-0.061,0.305,0, , , , , , ,-0.374,-0.396,-107.891
 09:35:56.091,eb:33:2e:f9:57:b5, 2015-01-01 00:24:33.280,0.011,-0.006,0.991,-0.122,0.305,0, , , , , , ,-0.374,-0.396,-107.891
 09:35:56.091,eb:33:2e:f9:57:b5, 2015-01-01 00:24:33.280,0.011,-0.006,0.992,-0.183,0.305,0, , , , , , ,-0.374,-0.396,-107.891
 09:35:56.091,eb:33:2e:f9:57:b5, 2015-01-01 00:24:33.280,0.011,-0.008,0.992,-0.183,0.244,-0.061, , , , , , ,-0.374,-0.396,-107.891
 09:35:56.091,eb:33:2e:f9:57:b5, 2015-01-01 00:24:33.280,0.01,-0.007,0.993,-0.244,0.244,-0.061, , , , , , ,-0.374,-0.396,-107.891
 09:35:56.159,eb:33:2e:f9:57:b5, 2015-01-01 00:24:33.280,0.011,-0.008,0.992,-0.244,0.305,-0.061, , , , , , ,-0.379,-0.401,-107.891
 09:35:56.159,eb:33:2e:f9:57:b5, 2015-01-01 00:24:33.280,0.012,-0.007,0.993,-0.305,0.244,0, , , , , , ,-0.379,-0.401,-107.891
 09:35:56.159,eb:33:2e:f9:57:b5, 2015-01-01 00:24:33.280,0.01,-0.009,0.994,-0.244,0.305,-0.061, , , , , , ,-0.379,-0.401,-107.891
 09:35:56.159,eb:33:2e:f9:57:b5, 2015-01-01 00:24:33.280,0.009,-0.01,0.993,-0.244,0.366,-0.061, , , , , , ,-0.379,-0.401,-107.891
 09:35:56.159,eb:33:2e:f9:57:b5, 2015-01-01 00:24:33.280,0.01,-0.01,0.993,-0.183,0.305,0, , , , , , ,-0.379,-0.401,-107.891
 09:35:56.159,eb:33:2e:f9:57:b5, 2015-01-01 00:24:33.280,0.012,-0.01,0.994,-0.183,0.244,0, , , , , , ,-0.379,-0.401,-107.891
 09:35:56.159,eb:33:2e:f9:57:b5, 2015-01-01 00:24:33.280,0.011,-0.009,0.996,-0.061,0.305,-0.061, , , , , , ,-0.379,-0.401,-107.891
 09:35:56.159,eb:33:2e:f9:57:b5, 2015-01-01 00:24:33.280,0.01,-0.009,0.995,-0.122,0.366,0, , , , , , ,-0.379,-0.401,-107.891
 09:35:56.180,eb:33:2e:f9:57:b5, 2015-01-01 00:24:33.595,0.01,-0.009,0.992,-0.061,0.305,-0.061, , , , , , ,-0.379,-0.401,-107.891
 09:35:56.180,eb:33:2e:f9:57:b5, 2015-01-01 00:24:33.595,0.009,-0.009,0.993,-0.061,0.305,0, , , , , , ,-0.379,-0.401,-107.891
 09:35:56.180,eb:33:2e:f9:57:b5, 2015-01-01 00:24:33.595,0.01,-0.009,0.993,-0.122,0.183,-0.061, , , , , , ,-0.379,-0.401,-107.891
 09:35:56.180,eb:33:2e:f9:57:b5, 2015-01-01 00:24:33.595,0.01,-0.008,0.993,0,0.183,-0.061, , , , , , ,-0.379,-0.401,-107.891
 09:35:56.180,eb:33:2e:f9:57:b5, 2015-01-01 00:24:33.595,0.01,-0.009,0.993,0,0.183,-0.122, , , , , , ,-0.379,-0.401,-107.891
 09:35:56.180,eb:33:2e:f9:57:b5, 2015-01-01 00:24:33.595,0.011,-0.01,0.994,0,0.183,-0.122, , , , , , ,-0.379,-0.401,-107.891
 09:35:56.180,eb:33:2e:f9:57:b5, 2015-01-01 00:24:33.595,0.01,-0.01,0.995,0.061,0.122,-0.183, , , , , , ,-0.379,-0.401,-107.891
 09:35:56.180,eb:33:2e:f9:57:b5, 2015-01-01 00:24:33.595,0.009,-0.01,0.996,0.061,0.122,-0.122, , , , , , ,-0.379,-0.401,-107.891
 09:35:56.227,eb:33:2e:f9:57:b5, 2015-01-01 00:24:33.595,0.007,-0.009,0.994,0.183,0.122,-0.122, , , , , , ,-0.379,-0.406,-107.891
 09:35:56.227,eb:33:2e:f9:57:b5, 2015-01-01 00:24:33.595,0.01,-0.01,0.993,0.183,0,-0.183, , , , , , ,-0.379,-0.406,-107.891
 09:35:56.227,eb:33:2e:f9:57:b5, 2015-01-01 00:24:33.595,0.011,-0.01,0.994,0.183,0,-0.122, , , , , , ,-0.379,-0.406,-107.891
 09:35:56.227,eb:33:2e:f9:57:b5, 2015-01-01 00:24:33.595,0.011,-0.01,0.994,0.183,0,-0.122, , , , , , ,-0.379,-0.406,-107.891
 09:35:56.227,eb:33:2e:f9:57:b5, 2015-01-01 00:24:33.595,0.01,-0.008,0.994,0.183,0,-0.061, , , , , , ,-0.379,-0.406,-107.891
 09:35:56.227,eb:33:2e:f9:57:b5, 2015-01-01 00:24:33.595,0.01,-0.008,0.994,0.122,0,-0.061, , , , , , ,-0.379,-0.406,-107.891
 09:35:56.227,eb:33:2e:f9:57:b5, 2015-01-01 00:24:33.595,0.01,-0.009,0.995,0.122,0,-0.061, , , , , , ,-0.379,-0.406,-107.891
 09:35:56.227,eb:33:2e:f9:57:b5, 2015-01-01 00:24:33.595,0.01,-0.01,0.995,0.061,0,0, , , , , , ,-0.379,-0.406,-107.891
 09:35:56.270,eb:33:2e:f9:57:b5, 2015-01-01 00:24:33.595,0.01,-0.01,0.996,0.183,0.061,0, , , , , , ,-0.379,-0.406,-107.891
 09:35:56.270,eb:33:2e:f9:57:b5, 2015-01-01 00:24:33.595,0.008,-0.011,0.995,0.244,0.061,0.061, , , , , , ,-0.379,-0.406,-107.891
 09:35:56.270,eb:33:2e:f9:57:b5, 2015-01-01 00:24:33.595,0.008,-0.01,0.994,0.244,0,0.061, , , , , , ,-0.379,-0.406,-107.891
 09:35:56.270,eb:33:2e:f9:57:b5, 2015-01-01 00:24:33.595,0.009,-0.009,0.993,0.244,0,0.122, , , , , , ,-0.379,-0.406,-107.891
 09:35:56.270,eb:33:2e:f9:57:b5, 2015-01-01 00:24:33.595,0.009,-0.009,0.994,0.305,-0.061,0.122, , , , , , ,-0.385,-0.406,-107.891
 09:35:56.270,eb:33:2e:f9:57:b5, 2015-01-01 00:24:33.595,0.008,-0.009,0.993,0.305,-0.122,0.122, , , , , , ,-0.385,-0.406,-107.891
 09:35:56.270,eb:33:2e:f9:57:b5, 2015-01-01 00:24:33.595,0.009,-0.009,0.992,0.305,-0.183,0.122, , , , , , ,-0.385,-0.406,-107.891
 09:35:56.270,eb:33:2e:f9:57:b5, 2015-01-01 00:24:33.595,0.01,-0.009,0.992,0.305,-0.244,0.061, , , , , , ,-0.385,-0.406,-107.891
 09:35:56.294,eb:33:2e:f9:57:b5, 2015-01-01 00:24:33.595,0.01,-0.009,0.992,0.244,-0.183,0.061, , , , , , ,-0.385,-0.406,-107.891
 09:35:56.294,eb:33:2e:f9:57:b5, 2015-01-01 00:24:33.595,0.009,-0.008,0.993,0.305,-0.183,0.061, , , , , , ,-0.385,-0.406,-107.891
 09:35:56.294,eb:33:2e:f9:57:b5, 2015-01-01 00:24:33.595,0.009,-0.009,0.991,0.244,-0.244,0.061, , , , , , ,-0.385,-0.406,-107.891
 09:35:56.294,eb:33:2e:f9:57:b5, 2015-01-01 00:24:33.595,0.009,-0.009,0.991,0.244,-0.366,0.061, , , , , , ,-0.385,-0.406,-107.891
 09:35:56.294,eb:33:2e:f9:57:b5, 2015-01-01 00:24:33.595,0.01,-0.008,0.992,0.183,-0.427,0.061, , , , , , ,-0.385,-0.412,-107.891
 09:35:56.294,eb:33:2e:f9:57:b5, 2015-01-01 00:24:33.595,0.011,-0.008,0.992,0.183,-0.427,0.061, , , , , , ,-0.385,-0.412,-107.891
 09:35:56.294,eb:33:2e:f9:57:b5, 2015-01-01 00:24:33.595,0.012,-0.007,0.993,0.122,-0.366,0.122, , , , , , ,-0.385,-0.412,-107.891
 09:35:56.294,eb:33:2e:f9:57:b5, 2015-01-01 00:24:33.595,0.011,-0.007,0.993,0.061,-0.305,0.061, , , , , , ,-0.385,-0.412,-107.891
 09:35:56.338,eb:33:2e:f9:57:b5, 2015-01-01 00:24:33.595,0.012,-0.007,0.993,0.061,-0.244,0.122, , , , , , ,-0.385,-0.412,-107.891
 09:35:56.338,eb:33:2e:f9:57:b5, 2015-01-01 00:24:33.595,0.012,-0.007,0.993,0,-0.244,0.122, , , , , , ,-0.385,-0.412,-107.891
 09:35:56.338,eb:33:2e:f9:57:b5, 2015-01-01 00:24:33.595,0.012,-0.008,0.993,0,-0.244,0.122, , , , , , ,-0.385,-0.412,-107.891
 09:35:56.338,eb:33:2e:f9:57:b5, 2015-01-01 00:24:33.595,0.012,-0.009,0.993,0,-0.183,0.061, , , , , , ,-0.385,-0.412,-107.891
 09:35:56.338,eb:33:2e:f9:57:b5, 2015-01-01 00:24:33.595,0.011,-0.008,0.994,-0.061,-0.061,0.061, , , , , , ,-0.385,-0.412,-107.891
 09:35:56.338,eb:33:2e:f9:57:b5, 2015-01-01 00:24:33.595,0.011,-0.008,0.994,0,-0.061,0.061, , , , , , ,-0.385,-0.412,-107.891
 09:35:56.338,eb:33:2e:f9:57:b5, 2015-01-01 00:24:33.595,0.01,-0.009,0.993,-0.061,-0.061,0.061, , , , , , ,-0.385,-0.412,-107.891
 09:35:56.338,eb:33:2e:f9:57:b5, 2015-01-01 00:24:33.595,0.01,-0.009,0.993,0,-0.061,0.061, , , , , , ,-0.385,-0.412,-107.891
 09:35:56.383,eb:33:2e:f9:57:b5, 2015-01-01 00:24:33.595,0.01,-0.009,0.994,0,-0.122,0.061, , , , , , ,-0.385,-0.412,-107.891
 09:35:56.383,eb:33:2e:f9:57:b5, 2015-01-01 00:24:33.595,0.01,-0.009,0.994,0,-0.122,0.122, , , , , , ,-0.385,-0.412,-107.891
 09:35:56.383,eb:33:2e:f9:57:b5, 2015-01-01 00:24:33.595,0.011,-0.01,0.995,-0.061,-0.183,0.122, , , , , , ,-0.385,-0.412,-107.891
 09:35:56.383,eb:33:2e:f9:57:b5, 2015-01-01 00:24:33.595,0.012,-0.009,0.995,0,-0.122,0.122, , , , , , ,-0.385,-0.412,-107.891
 09:35:56.383,eb:33:2e:f9:57:b5, 2015-01-01 00:24:33.595,0.013,-0.011,0.996,0.061,-0.061,0.183, , , , , , ,-0.385,-0.412,-107.891
 09:35:56.383,eb:33:2e:f9:57:b5, 2015-01-01 00:24:33.595,0.013,-0.01,0.997,0.183,0,0.183, , , , , , ,-0.385,-0.412,-107.891
 09:35:56.383,eb:33:2e:f9:57:b5, 2015-01-01 00:24:33.595,0.013,-0.009,0.995,0.183,0.122,0.122, , , , , , ,-0.385,-0.412,-107.891
 09:35:56.383,eb:33:2e:f9:57:b5, 2015-01-01 00:24:33.595,0.011,-0.008,0.993,0.183,0.122,0.122, , , , , , ,-0.385,-0.412,-107.891
 09:35:56.428,eb:33:2e:f9:57:b5, 2015-01-01 00:24:33.595,0.011,-0.008,0.992,0.183,0.122,0.061, , , , , , ,-0.39,-0.417,-107.891
 09:35:56.428,eb:33:2e:f9:57:b5, 2015-01-01 00:24:33.595,0.012,-0.009,0.993,0.183,0.183,0.061, , , , , , ,-0.39,-0.417,-107.891
 09:35:56.428,eb:33:2e:f9:57:b5, 2015-01-01 00:24:33.595,0.011,-0.008,0.994,0.244,0.183,0, , , , , , ,-0.39,-0.417,-107.891
 09:35:56.428,eb:33:2e:f9:57:b5, 2015-01-01 00:24:33.595,0.011,-0.008,0.993,0.183,0.183,0, , , , , , ,-0.39,-0.417,-107.891
 09:35:56.428,eb:33:2e:f9:57:b5, 2015-01-01 00:24:33.595,0.011,-0.008,0.993,0.122,0.183,0, , , , , , ,-0.39,-0.417,-107.891
 09:35:56.428,eb:33:2e:f9:57:b5, 2015-01-01 00:24:33.595,0.01,-0.007,0.993,0.122,0.122,0, , , , , , ,-0.39,-0.417,-107.891
 09:35:56.428,eb:33:2e:f9:57:b5, 2015-01-01 00:24:33.595,0.011,-0.007,0.992,0.122,0.122,-0.061, , , , , , ,-0.39,-0.417,-107.891
 09:35:56.428,eb:33:2e:f9:57:b5, 2015-01-01 00:24:33.595,0.011,-0.007,0.993,0.122,0.122,0, , , , , , ,-0.39,-0.417,-107.891
 09:35:56.451,eb:33:2e:f9:57:b5, 2015-01-01 00:24:33.595,0.011,-0.007,0.991,0.061,0.061,-0.061, , , , , , ,-0.39,-0.417,-107.891
 09:35:56.451,eb:33:2e:f9:57:b5, 2015-01-01 00:24:33.595,0.012,-0.007,0.992,0.061,0.061,-0.122, , , , , , ,-0.39,-0.417,-107.891
 09:35:56.451,eb:33:2e:f9:57:b5, 2015-01-01 00:24:33.595,0.011,-0.008,0.993,0.061,0.122,-0.122, , , , , , ,-0.39,-0.417,-107.891
 09:35:56.451,eb:33:2e:f9:57:b5, 2015-01-01 00:24:33.595,0.011,-0.009,0.994,0.061,0.122,-0.122, , , , , , ,-0.39,-0.417,-107.891
 09:35:56.451,eb:33:2e:f9:57:b5, 2015-01-01 00:24:33.595,0.01,-0.008,0.994,0.061,0.244,-0.122, , , , , , ,-0.39,-0.417,-107.891
 09:35:56.451,eb:33:2e:f9:57:b5, 2015-01-01 00:24:33.595,0.011,-0.009,0.993,0.061,0.183,-0.122, , , , , , ,-0.39,-0.417,-107.891
 09:35:56.451,eb:33:2e:f9:57:b5, 2015-01-01 00:24:33.595,0.011,-0.009,0.994,0.061,0.244,-0.122, , , , , , ,-0.39,-0.417,-107.891
 09:35:56.452,eb:33:2e:f9:57:b5, 2015-01-01 00:24:33.595,0.008,-0.009,0.993,0.122,0.244,-0.122, , , , , , ,-0.39,-0.417,-107.891
 09:35:56.518,eb:33:2e:f9:57:b5, 2015-01-01 00:24:33.595,0.009,-0.009,0.993,0.122,0.183,-0.122, , , , , , ,-0.39,-0.423,-107.891
 09:35:56.518,eb:33:2e:f9:57:b5, 2015-01-01 00:24:33.595,0.011,-0.009,0.993,0.122,0.122,-0.061, , , , , , ,-0.39,-0.423,-107.891
 09:35:56.518,eb:33:2e:f9:57:b5, 2015-01-01 00:24:33.595,0.013,-0.009,0.994,0.183,0.122,-0.122, , , , , , ,-0.39,-0.423,-107.891
 09:35:56.518,eb:33:2e:f9:57:b5, 2015-01-01 00:24:33.595,0.01,-0.008,0.995,0.244,0.244,-0.122, , , , , , ,-0.39,-0.423,-107.891
 09:35:56.518,eb:33:2e:f9:57:b5, 2015-01-01 00:24:33.595,0.009,-0.011,0.995,0.366,0.244,-0.122, , , , , , ,-0.39,-0.423,-107.891
 09:35:56.518,eb:33:2e:f9:57:b5, 2015-01-01 00:24:33.595,0.008,-0.01,0.995,0.427,0.244,-0.122, , , , , , ,-0.39,-0.423,-107.891
 09:35:56.518,eb:33:2e:f9:57:b5, 2015-01-01 00:24:33.595,0.009,-0.008,0.994,0.488,0.122,-0.122, , , , , , ,-0.39,-0.423,-107.891
 09:35:56.518,eb:33:2e:f9:57:b5, 2015-01-01 00:24:33.595,0.009,-0.006,0.991,0.427,0.061,-0.183, , , , , , ,-0.39,-0.423,-107.891
 09:35:56.541,eb:33:2e:f9:57:b5, 2015-01-01 00:24:33.930,0.01,-0.008,0.993,0.427,0,-0.122, , , , , , ,-0.39,-0.423,-107.891
 09:35:56.541,eb:33:2e:f9:57:b5, 2015-01-01 00:24:33.930,0.012,-0.009,0.994,0.488,0,-0.061, , , , , , ,-0.39,-0.423,-107.891
 09:35:56.541,eb:33:2e:f9:57:b5, 2015-01-01 00:24:33.930,0.013,-0.01,0.995,0.549,0,-0.061, , , , , , ,-0.39,-0.423,-107.891
 09:35:56.541,eb:33:2e:f9:57:b5, 2015-01-01 00:24:33.930,0.012,-0.009,0.996,0.549,0.122,0, , , , , , ,-0.39,-0.423,-107.891
 09:35:56.541,eb:33:2e:f9:57:b5, 2015-01-01 00:24:33.930,0.009,-0.007,0.995,0.549,0.183,0, , , , , , ,-0.39,-0.423,-107.891
 09:35:56.541,eb:33:2e:f9:57:b5, 2015-01-01 00:24:33.930,0.009,-0.008,0.992,0.488,0.061,-0.061, , , , , , ,-0.39,-0.423,-107.891
 09:35:56.541,eb:33:2e:f9:57:b5, 2015-01-01 00:24:33.930,0.01,-0.008,0.993,0.549,0,-0.061, , , , , , ,-0.39,-0.423,-107.891
 09:35:56.541,eb:33:2e:f9:57:b5, 2015-01-01 00:24:33.930,0.013,-0.01,0.994,0.549,0,-0.061, , , , , , ,-0.39,-0.423,-107.891
 09:35:56.586,eb:33:2e:f9:57:b5, 2015-01-01 00:24:33.930,0.012,-0.006,0.994,0.549,0,-0.061, , , , , , ,-0.396,-0.423,-107.891
 09:35:56.586,eb:33:2e:f9:57:b5, 2015-01-01 00:24:33.930,0.011,-0.008,0.994,0.488,0.122,-0.061, , , , , , ,-0.396,-0.423,-107.891
 09:35:56.586,eb:33:2e:f9:57:b5, 2015-01-01 00:24:33.930,0.011,-0.008,0.993,0.488,0.122,-0.061, , , , , , ,-0.396,-0.423,-107.891
 09:35:56.586,eb:33:2e:f9:57:b5, 2015-01-01 00:24:33.930,0.011,-0.007,0.992,0.488,0.061,0, , , , , , ,-0.396,-0.423,-107.891
 09:35:56.586,eb:33:2e:f9:57:b5, 2015-01-01 00:24:33.930,0.01,-0.005,0.991,0.366,0.061,-0.122, , , , , , ,-0.396,-0.428,-107.891
 09:35:56.586,eb:33:2e:f9:57:b5, 2015-01-01 00:24:33.930,0.01,-0.006,0.991,0.305,0.061,-0.061, , , , , , ,-0.396,-0.428,-107.891
 09:35:56.586,eb:33:2e:f9:57:b5, 2015-01-01 00:24:33.930,0.011,-0.008,0.993,0.244,0.122,-0.061, , , , , , ,-0.396,-0.428,-107.891
 09:35:56.586,eb:33:2e:f9:57:b5, 2015-01-01 00:24:33.930,0.01,-0.008,0.992,0.183,0,-0.122, , , , , , ,-0.396,-0.428,-107.891
 09:35:56.630,eb:33:2e:f9:57:b5, 2015-01-01 00:24:33.930,0.01,-0.007,0.991,0.183,0,0, , , , , , ,-0.396,-0.428,-107.891
 09:35:56.630,eb:33:2e:f9:57:b5, 2015-01-01 00:24:33.930,0.01,-0.007,0.992,0.183,-0.061,-0.061, , , , , , ,-0.396,-0.428,-107.891
 09:35:56.630,eb:33:2e:f9:57:b5, 2015-01-01 00:24:33.930,0.013,-0.007,0.992,0.183,0,-0.061, , , , , , ,-0.396,-0.428,-107.891
 09:35:56.630,eb:33:2e:f9:57:b5, 2015-01-01 00:24:33.930,0.013,-0.008,0.994,0.061,0.122,-0.061, , , , , , ,-0.396,-0.428,-107.891
 09:35:56.630,eb:33:2e:f9:57:b5, 2015-01-01 00:24:33.930,0.01,-0.008,0.995,0.122,0.183,0, , , , , , ,-0.396,-0.428,-107.891
 09:35:56.630,eb:33:2e:f9:57:b5, 2015-01-01 00:24:33.930,0.011,-0.008,0.993,0.183,0.183,-0.061, , , , , , ,-0.396,-0.428,-107.891
 09:35:56.630,eb:33:2e:f9:57:b5, 2015-01-01 00:24:33.930,0.012,-0.008,0.993,0.183,0.122,-0.122, , , , , , ,-0.396,-0.428,-107.891
 09:35:56.630,eb:33:2e:f9:57:b5, 2015-01-01 00:24:33.930,0.011,-0.008,0.994,0.183,0.183,-0.122, , , , , , ,-0.396,-0.428,-107.891
 09:35:56.653,eb:33:2e:f9:57:b5, 2015-01-01 00:24:33.930,0.012,-0.008,0.994,0.183,0.244,-0.122, , , , , , ,-0.396,-0.428,-107.891
 09:35:56.653,eb:33:2e:f9:57:b5, 2015-01-01 00:24:33.930,0.012,-0.008,0.993,0.183,0.305,-0.122, , , , , , ,-0.396,-0.428,-107.891
 09:35:56.653,eb:33:2e:f9:57:b5, 2015-01-01 00:24:33.930,0.011,-0.008,0.994,0.183,0.366,-0.122, , , , , , ,-0.396,-0.428,-107.891
 09:35:56.653,eb:33:2e:f9:57:b5, 2015-01-01 00:24:33.930,0.01,-0.007,0.993,0.122,0.366,-0.183, , , , , , ,-0.396,-0.428,-107.891
 09:35:56.653,eb:33:2e:f9:57:b5, 2015-01-01 00:24:33.930,0.009,-0.008,0.992,0.122,0.305,-0.061, , , , , , ,-0.396,-0.428,-107.891
 09:35:56.653,eb:33:2e:f9:57:b5, 2015-01-01 00:24:33.930,0.01,-0.009,0.994,0.122,0.305,-0.061, , , , , , ,-0.396,-0.428,-107.891
 09:35:56.653,eb:33:2e:f9:57:b5, 2015-01-01 00:24:33.930,0.009,-0.009,0.995,0.122,0.244,0, , , , , , ,-0.396,-0.428,-107.891
 09:35:56.653,eb:33:2e:f9:57:b5, 2015-01-01 00:24:33.930,0.009,-0.008,0.994,0.122,0.122,0, , , , , , ,-0.396,-0.428,-107.891
 09:35:56.699,eb:33:2e:f9:57:b5, 2015-01-01 00:24:33.930,0.01,-0.008,0.994,0.061,0.061,0, , , , , , ,-0.396,-0.434,-107.891
 09:35:56.699,eb:33:2e:f9:57:b5, 2015-01-01 00:24:33.930,0.009,-0.008,0.994,0.061,0.061,-0.061, , , , , , ,-0.396,-0.434,-107.891
 09:35:56.699,eb:33:2e:f9:57:b5, 2015-01-01 00:24:33.930,0.01,-0.008,0.994,0.061,0,-0.061, , , , , , ,-0.396,-0.434,-107.891
 09:35:56.699,eb:33:2e:f9:57:b5, 2015-01-01 00:24:33.930,0.01,-0.008,0.994,0,0,0, , , , , , ,-0.396,-0.434,-107.891
 09:35:56.699,eb:33:2e:f9:57:b5, 2015-01-01 00:24:33.930,0.01,-0.008,0.994,0,0,-0.061, , , , , , ,-0.396,-0.434,-107.891
 09:35:56.699,eb:33:2e:f9:57:b5, 2015-01-01 00:24:33.930,0.011,-0.007,0.995,0,0,0, , , , , , ,-0.396,-0.434,-107.891
 09:35:56.699,eb:33:2e:f9:57:b5, 2015-01-01 00:24:33.930,0.011,-0.008,0.995,0,0,0, , , , , , ,-0.396,-0.434,-107.891
 09:35:56.699,eb:33:2e:f9:57:b5, 2015-01-01 00:24:33.930,0.011,-0.008,0.995,0,0,0, , , , , , ,-0.396,-0.434,-107.891
 09:35:56.744,eb:33:2e:f9:57:b5, 2015-01-01 00:24:33.930,0.012,-0.009,0.995,0,0.122,0, , , , , , ,-0.396,-0.434,-107.891
 09:35:56.744,eb:33:2e:f9:57:b5, 2015-01-01 00:24:33.930,0.011,-0.007,0.995,0,0.244,0, , , , , , ,-0.396,-0.434,-107.891
 09:35:56.744,eb:33:2e:f9:57:b5, 2015-01-01 00:24:33.930,0.011,-0.007,0.995,0,0.244,0.061, , , , , , ,-0.396,-0.434,-107.891
 09:35:56.744,eb:33:2e:f9:57:b5, 2015-01-01 00:24:33.930,0.011,-0.008,0.995,0,0.366,0.061, , , , , , ,-0.396,-0.434,-107.891
 09:35:56.744,eb:33:2e:f9:57:b5, 2015-01-01 00:24:33.930,0.011,-0.009,0.996,0.061,0.427,0, , , , , , ,-0.396,-0.434,-107.891
 09:35:56.744,eb:33:2e:f9:57:b5, 2015-01-01 00:24:33.930,0.01,-0.009,0.996,0.061,0.549,0, , , , , , ,-0.396,-0.434,-107.891
 09:35:56.744,eb:33:2e:f9:57:b5, 2015-01-01 00:24:33.930,0.01,-0.008,0.995,0.122,0.488,0.061, , , , , , ,-0.396,-0.434,-107.891
 09:35:56.744,eb:33:2e:f9:57:b5, 2015-01-01 00:24:33.930,0.009,-0.008,0.994,0.122,0.488,0.061, , , , , , ,-0.396,-0.434,-107.891
 09:35:56.789,eb:33:2e:f9:57:b5, 2015-01-01 00:24:33.930,0.008,-0.007,0.993,0.122,0.427,0.061, , , , , , ,-0.396,-0.434,-107.891
 09:35:56.789,eb:33:2e:f9:57:b5, 2015-01-01 00:24:33.930,0.008,-0.008,0.992,0.122,0.183,0.061, , , , , , ,-0.396,-0.434,-107.891
 09:35:56.789,eb:33:2e:f9:57:b5, 2015-01-01 00:24:33.930,0.009,-0.008,0.992,0.061,0.122,0.061, , , , , , ,-0.396,-0.434,-107.891
 09:35:56.789,eb:33:2e:f9:57:b5, 2015-01-01 00:24:33.930,0.009,-0.008,0.993,0.122,0.122,0.122, , , , , , ,-0.396,-0.434,-107.891
 09:35:56.789,eb:33:2e:f9:57:b5, 2015-01-01 00:24:33.930,0.009,-0.008,0.993,0.061,0,0.122, , , , , , ,-0.396,-0.439,-107.891
 09:35:56.789,eb:33:2e:f9:57:b5, 2015-01-01 00:24:33.930,0.009,-0.008,0.993,0.061,0,0.122, , , , , , ,-0.396,-0.439,-107.891
 09:35:56.789,eb:33:2e:f9:57:b5, 2015-01-01 00:24:33.930,0.009,-0.007,0.994,0.122,0,0.122, , , , , , ,-0.396,-0.439,-107.891
 09:35:56.789,eb:33:2e:f9:57:b5, 2015-01-01 00:24:33.930,0.01,-0.008,0.994,0.122,0,0.122, , , , , , ,-0.396,-0.439,-107.891
 09:35:56.833,eb:33:2e:f9:57:b5, 2015-01-01 00:24:33.930,0.01,-0.007,0.993,0.061,0,0.061, , , , , , ,-0.401,-0.439,-107.891
 09:35:56.833,eb:33:2e:f9:57:b5, 2015-01-01 00:24:33.930,0.011,-0.006,0.992,0,-0.061,0.061, , , , , , ,-0.401,-0.439,-107.891
 09:35:56.833,eb:33:2e:f9:57:b5, 2015-01-01 00:24:33.930,0.011,-0.007,0.991,0,0,0.061, , , , , , ,-0.401,-0.439,-107.891
 09:35:56.833,eb:33:2e:f9:57:b5, 2015-01-01 00:24:33.930,0.011,-0.007,0.992,0,-0.061,0.061, , , , , , ,-0.401,-0.439,-107.891
 09:35:56.833,eb:33:2e:f9:57:b5, 2015-01-01 00:24:33.930,0.01,-0.007,0.993,0,0,0.122, , , , , , ,-0.401,-0.439,-107.891
 09:35:56.833,eb:33:2e:f9:57:b5, 2015-01-01 00:24:33.930,0.009,-0.008,0.993,-0.061,0,0.122, , , , , , ,-0.401,-0.439,-107.891
 09:35:56.833,eb:33:2e:f9:57:b5, 2015-01-01 00:24:33.930,0.008,-0.007,0.992,-0.061,0,0.122, , , , , , ,-0.401,-0.439,-107.891
 09:35:56.833,eb:33:2e:f9:57:b5, 2015-01-01 00:24:33.930,0.009,-0.008,0.991,-0.122,-0.061,0.122, , , , , , ,-0.401,-0.439,-107.891
 09:35:56.855,eb:33:2e:f9:57:b5, 2015-01-01 00:24:34.285,0.01,-0.009,0.993,-0.061,-0.183,0.122, , , , , , ,-0.401,-0.439,-107.891
 09:35:56.855,eb:33:2e:f9:57:b5, 2015-01-01 00:24:34.285,0.011,-0.009,0.994,-0.061,-0.122,0.183, , , , , , ,-0.401,-0.439,-107.891
 09:35:56.855,eb:33:2e:f9:57:b5, 2015-01-01 00:24:34.285,0.01,-0.009,0.994,-0.061,-0.061,0.183, , , , , , ,-0.401,-0.439,-107.891
 09:35:56.855,eb:33:2e:f9:57:b5, 2015-01-01 00:24:34.285,0.01,-0.01,0.995,0,-0.122,0.183, , , , , , ,-0.401,-0.439,-107.891
 09:35:56.855,eb:33:2e:f9:57:b5, 2015-01-01 00:24:34.285,0.011,-0.009,0.995,0,-0.122,0.244, , , , , , ,-0.401,-0.439,-107.891
 09:35:56.855,eb:33:2e:f9:57:b5, 2015-01-01 00:24:34.285,0.011,-0.01,0.995,0.061,-0.122,0.305, , , , , , ,-0.401,-0.439,-107.891
 09:35:56.855,eb:33:2e:f9:57:b5, 2015-01-01 00:24:34.285,0.012,-0.01,0.996,0.122,-0.061,0.305, , , , , , ,-0.401,-0.439,-107.891
 09:35:56.855,eb:33:2e:f9:57:b5, 2015-01-01 00:24:34.285,0.01,-0.009,0.996,0.122,0,0.305, , , , , , ,-0.401,-0.439,-107.891
 09:35:56.902,eb:33:2e:f9:57:b5, 2015-01-01 00:24:34.285,0.009,-0.009,0.994,0.183,0,0.305, , , , , , ,-0.401,-0.439,-107.891
 09:35:56.902,eb:33:2e:f9:57:b5, 2015-01-01 00:24:34.285,0.01,-0.008,0.993,0.244,0,0.305, , , , , , ,-0.401,-0.439,-107.891
 09:35:56.902,eb:33:2e:f9:57:b5, 2015-01-01 00:24:34.285,0.012,-0.008,0.994,0.244,-0.122,0.244, , , , , , ,-0.401,-0.439,-107.891
 09:35:56.902,eb:33:2e:f9:57:b5, 2015-01-01 00:24:34.285,0.012,-0.008,0.994,0.244,-0.061,0.244, , , , , , ,-0.401,-0.439,-107.891
 09:35:56.903,eb:33:2e:f9:57:b5, 2015-01-01 00:24:34.285,0.012,-0.008,0.994,0.244,0,0.183, , , , , , ,-0.401,-0.439,-107.891
 09:35:56.903,eb:33:2e:f9:57:b5, 2015-01-01 00:24:34.285,0.012,-0.007,0.994,0.183,0.061,0.183, , , , , , ,-0.401,-0.439,-107.891
 09:35:56.903,eb:33:2e:f9:57:b5, 2015-01-01 00:24:34.285,0.013,-0.007,0.994,0.183,0.122,0.183, , , , , , ,-0.401,-0.439,-107.891
 09:35:56.903,eb:33:2e:f9:57:b5, 2015-01-01 00:24:34.285,0.013,-0.007,0.994,0.183,0.244,0.183, , , , , , ,-0.401,-0.439,-107.891
 09:35:56.946,eb:33:2e:f9:57:b5, 2015-01-01 00:24:34.285,0.011,-0.008,0.994,0.183,0.305,0.122, , , , , , ,-0.401,-0.445,-107.891
 09:35:56.946,eb:33:2e:f9:57:b5, 2015-01-01 00:24:34.285,0.012,-0.007,0.994,0.183,0.366,0.122, , , , , , ,-0.401,-0.445,-107.891
 09:35:56.946,eb:33:2e:f9:57:b5, 2015-01-01 00:24:34.285,0.011,-0.009,0.994,0.183,0.427,0.122, , , , , , ,-0.401,-0.445,-107.891
 09:35:56.946,eb:33:2e:f9:57:b5, 2015-01-01 00:24:34.285,0.011,-0.009,0.994,0.305,0.427,0.061, , , , , , ,-0.401,-0.445,-107.891
 09:35:56.946,eb:33:2e:f9:57:b5, 2015-01-01 00:24:34.285,0.01,-0.008,0.994,0.305,0.488,0.061, , , , , , ,-0.401,-0.445,-107.891
 09:35:56.946,eb:33:2e:f9:57:b5, 2015-01-01 00:24:34.285,0.009,-0.008,0.994,0.244,0.488,0.061, , , , , , ,-0.401,-0.445,-107.891
 09:35:56.946,eb:33:2e:f9:57:b5, 2015-01-01 00:24:34.285,0.009,-0.007,0.992,0.183,0.427,0, , , , , , ,-0.401,-0.445,-107.891
 09:35:56.946,eb:33:2e:f9:57:b5, 2015-01-01 00:24:34.285,0.009,-0.007,0.991,0.183,0.427,0, , , , , , ,-0.401,-0.445,-107.891
 09:35:56.990,eb:33:2e:f9:57:b5, 2015-01-01 00:24:34.285,0.01,-0.007,0.992,0.122,0.366,-0.061, , , , , , ,-0.401,-0.445,-107.891
 09:35:56.990,eb:33:2e:f9:57:b5, 2015-01-01 00:24:34.285,0.01,-0.007,0.993,0.061,0.366,0, , , , , , ,-0.401,-0.445,-107.891
 09:35:56.990,eb:33:2e:f9:57:b5, 2015-01-01 00:24:34.285,0.011,-0.008,0.993,0.122,0.244,-0.061, , , , , , ,-0.401,-0.445,-107.891
 09:35:56.990,eb:33:2e:f9:57:b5, 2015-01-01 00:24:34.285,0.011,-0.008,0.993,0.122,0.366,0, , , , , , ,-0.401,-0.445,-107.891
 09:35:56.990,eb:33:2e:f9:57:b5, 2015-01-01 00:24:34.285,0.009,-0.006,0.992,0,0.305,-0.061, , , , , , ,-0.401,-0.445,-107.891
 09:35:56.990,eb:33:2e:f9:57:b5, 2015-01-01 00:24:34.285,0.01,-0.007,0.991,0.061,0.305,-0.061, , , , , , ,-0.401,-0.445,-107.891
 09:35:56.990,eb:33:2e:f9:57:b5, 2015-01-01 00:24:34.285,0.011,-0.008,0.991,0,0.244,-0.122, , , , , , ,-0.401,-0.445,-107.891
 09:35:56.990,eb:33:2e:f9:57:b5, 2015-01-01 00:24:34.285,0.01,-0.008,0.994,0,0.244,-0.122, , , , , , ,-0.401,-0.445,-107.891
 09:35:57.037,eb:33:2e:f9:57:b5, 2015-01-01 00:24:34.285,0.011,-0.009,0.993,0,0.244,-0.122, , , , , , ,-0.401,-0.445,-107.891
 09:35:57.037,eb:33:2e:f9:57:b5, 2015-01-01 00:24:34.285,0.01,-0.009,0.993,0,0.244,-0.122, , , , , , ,-0.401,-0.445,-107.891
 09:35:57.037,eb:33:2e:f9:57:b5, 2015-01-01 00:24:34.285,0.009,-0.009,0.995,0,0.305,-0.122, , , , , , ,-0.401,-0.445,-107.886
 09:35:57.037,eb:33:2e:f9:57:b5, 2015-01-01 00:24:34.285,0.009,-0.008,0.994,0,0.244,-0.122, , , , , , ,-0.401,-0.445,-107.886
 09:35:57.037,eb:33:2e:f9:57:b5, 2015-01-01 00:24:34.285,0.008,-0.008,0.993,0,0.244,-0.183, , , , , , ,-0.401,-0.45,-107.886
 09:35:57.037,eb:33:2e:f9:57:b5, 2015-01-01 00:24:34.285,0.008,-0.008,0.993,0,0.061,-0.244, , , , , , ,-0.401,-0.45,-107.886
 09:35:57.037,eb:33:2e:f9:57:b5, 2015-01-01 00:24:34.285,0.009,-0.008,0.993,0,0.122,-0.183, , , , , , ,-0.401,-0.45,-107.886
 09:35:57.037,eb:33:2e:f9:57:b5, 2015-01-01 00:24:34.285,0.009,-0.008,0.994,0,0.183,-0.183, , , , , , ,-0.401,-0.45,-107.886
 09:35:57.058,eb:33:2e:f9:57:b5, 2015-01-01 00:24:34.285,0.009,-0.007,0.994,0,0.122,-0.122, , , , , , ,-0.401,-0.45,-107.886
 09:35:57.058,eb:33:2e:f9:57:b5, 2015-01-01 00:24:34.285,0.01,-0.009,0.994,0.061,0.061,-0.122, , , , , , ,-0.401,-0.45,-107.886
 09:35:57.058,eb:33:2e:f9:57:b5, 2015-01-01 00:24:34.285,0.01,-0.009,0.996,0.061,0.183,-0.061, , , , , , ,-0.401,-0.45,-107.886
 09:35:57.058,eb:33:2e:f9:57:b5, 2015-01-01 00:24:34.285,0.009,-0.01,0.995,0.122,0.183,-0.061, , , , , , ,-0.401,-0.45,-107.886
 09:35:57.058,eb:33:2e:f9:57:b5, 2015-01-01 00:24:34.285,0.009,-0.009,0.993,0.183,0.122,0, , , , , , ,-0.406,-0.45,-107.886
 09:35:57.058,eb:33:2e:f9:57:b5, 2015-01-01 00:24:34.285,0.009,-0.008,0.992,0.122,0.122,0, , , , , , ,-0.406,-0.45,-107.886
 09:35:57.058,eb:33:2e:f9:57:b5, 2015-01-01 00:24:34.285,0.01,-0.008,0.993,0.122,0.122,0, , , , , , ,-0.406,-0.45,-107.886
 09:35:57.058,eb:33:2e:f9:57:b5, 2015-01-01 00:24:34.285,0.011,-0.008,0.993,0.122,0.122,0.061, , , , , , ,-0.406,-0.45,-107.886
 09:35:57.127,eb:33:2e:f9:57:b5, 2015-01-01 00:24:34.285,0.009,-0.009,0.995,0.122,0.183,0, , , , , , ,-0.406,-0.45,-107.886
 09:35:57.127,eb:33:2e:f9:57:b5, 2015-01-01 00:24:34.285,0.008,-0.009,0.995,0.122,0.122,0.061, , , , , , ,-0.406,-0.45,-107.886
 09:35:57.127,eb:33:2e:f9:57:b5, 2015-01-01 00:24:34.285,0.008,-0.009,0.994,0.183,0.122,0, , , , , , ,-0.406,-0.45,-107.886
 09:35:57.127,eb:33:2e:f9:57:b5, 2015-01-01 00:24:34.285,0.01,-0.008,0.993,0.244,0.061,0.061, , , , , , ,-0.406,-0.45,-107.886
 09:35:57.127,eb:33:2e:f9:57:b5, 2015-01-01 00:24:34.285,0.011,-0.009,0.994,0.305,0,0.061, , , , , , ,-0.406,-0.45,-107.886
 09:35:57.127,eb:33:2e:f9:57:b5, 2015-01-01 00:24:34.285,0.009,-0.01,0.995,0.366,0.061,0.122, , , , , , ,-0.406,-0.45,-107.886
 09:35:57.128,eb:33:2e:f9:57:b5, 2015-01-01 00:24:34.285,0.008,-0.008,0.993,0.305,0,0.122, , , , , , ,-0.406,-0.45,-107.886
 09:35:57.128,eb:33:2e:f9:57:b5, 2015-01-01 00:24:34.285,0.008,-0.008,0.993,0.305,0,0.122, , , , , , ,-0.406,-0.45,-107.886
 09:35:57.149,eb:33:2e:f9:57:b5, 2015-01-01 00:24:34.285,0.01,-0.007,0.992,0.305,0,0.061, , , , , , ,-0.406,-0.45,-107.886
 09:35:57.149,eb:33:2e:f9:57:b5, 2015-01-01 00:24:34.285,0.01,-0.008,0.993,0.244,-0.061,0.061, , , , , , ,-0.406,-0.45,-107.886
 09:35:57.149,eb:33:2e:f9:57:b5, 2015-01-01 00:24:34.285,0.011,-0.008,0.994,0.244,0,0, , , , , , ,-0.406,-0.45,-107.886
 09:35:57.149,eb:33:2e:f9:57:b5, 2015-01-01 00:24:34.285,0.011,-0.007,0.993,0.244,0,0, , , , , , ,-0.406,-0.45,-107.886
 09:35:57.149,eb:33:2e:f9:57:b5, 2015-01-01 00:24:34.285,0.011,-0.007,0.992,0.244,0,0, , , , , , ,-0.406,-0.45,-107.886
 09:35:57.149,eb:33:2e:f9:57:b5, 2015-01-01 00:24:34.285,0.011,-0.007,0.993,0.244,0,0, , , , , , ,-0.406,-0.45,-107.886
 09:35:57.149,eb:33:2e:f9:57:b5, 2015-01-01 00:24:34.285,0.011,-0.006,0.992,0.122,0.122,0, , , , , , ,-0.406,-0.45,-107.886
 09:35:57.149,eb:33:2e:f9:57:b5, 2015-01-01 00:24:34.285,0.011,-0.007,0.992,0.061,0.122,0, , , , , , ,-0.406,-0.45,-107.886
 09:35:57.193,eb:33:2e:f9:57:b5, 2015-01-01 00:24:34.285,0.01,-0.007,0.993,0.061,0.183,-0.061, , , , , , ,-0.406,-0.45,-107.886
 09:35:57.193,eb:33:2e:f9:57:b5, 2015-01-01 00:24:34.285,0.009,-0.007,0.993,0.122,0.183,0, , , , , , ,-0.406,-0.45,-107.886
 09:35:57.193,eb:33:2e:f9:57:b5, 2015-01-01 00:24:34.285,0.01,-0.008,0.993,0.122,0.122,0, , , , , , ,-0.406,-0.45,-107.886
 09:35:57.193,eb:33:2e:f9:57:b5, 2015-01-01 00:24:34.285,0.011,-0.009,0.994,0.122,0.183,0, , , , , , ,-0.406,-0.45,-107.886
 09:35:57.193,eb:33:2e:f9:57:b5, 2015-01-01 00:24:34.285,0.009,-0.009,0.994,0.183,0.122,0, , , , , , ,-0.406,-0.456,-107.886
 09:35:57.193,eb:33:2e:f9:57:b5, 2015-01-01 00:24:34.285,0.008,-0.009,0.993,0.183,0.122,0, , , , , , ,-0.406,-0.456,-107.886
 09:35:57.193,eb:33:2e:f9:57:b5, 2015-01-01 00:24:34.285,0.009,-0.007,0.993,0.183,0.061,0, , , , , , ,-0.406,-0.456,-107.886
 09:35:57.193,eb:33:2e:f9:57:b5, 2015-01-01 00:24:34.285,0.009,-0.009,0.993,0.244,0,0, , , , , , ,-0.406,-0.456,-107.886
 09:35:57.238,eb:33:2e:f9:57:b5, 2015-01-01 00:24:34.620,0.01,-0.008,0.994,0.183,0,0, , , , , , ,-0.406,-0.456,-107.886
 09:35:57.238,eb:33:2e:f9:57:b5, 2015-01-01 00:24:34.620,0.01,-0.008,0.994,0.244,0,0, , , , , , ,-0.406,-0.456,-107.886
 09:35:57.238,eb:33:2e:f9:57:b5, 2015-01-01 00:24:34.620,0.01,-0.008,0.994,0.244,0.061,0, , , , , , ,-0.406,-0.456,-107.886
 09:35:57.238,eb:33:2e:f9:57:b5, 2015-01-01 00:24:34.620,0.01,-0.007,0.992,0.244,0,0, , , , , , ,-0.406,-0.456,-107.886
 09:35:57.238,eb:33:2e:f9:57:b5, 2015-01-01 00:24:34.620,0.01,-0.007,0.993,0.244,0,0, , , , , , ,-0.406,-0.456,-107.886
 09:35:57.238,eb:33:2e:f9:57:b5, 2015-01-01 00:24:34.620,0.011,-0.008,0.993,0.244,0.061,0, , , , , , ,-0.406,-0.456,-107.886
 09:35:57.238,eb:33:2e:f9:57:b5, 2015-01-01 00:24:34.620,0.011,-0.007,0.993,0.305,0,0, , , , , , ,-0.406,-0.456,-107.886
 09:35:57.238,eb:33:2e:f9:57:b5, 2015-01-01 00:24:34.620,0.01,-0.007,0.993,0.244,0.061,0, , , , , , ,-0.406,-0.456,-107.886
 09:35:57.261,eb:33:2e:f9:57:b5, 2015-01-01 00:24:34.620,0.009,-0.007,0.993,0.305,0.061,0, , , , , , ,-0.406,-0.456,-107.886
 09:35:57.261,eb:33:2e:f9:57:b5, 2015-01-01 00:24:34.620,0.01,-0.007,0.992,0.305,0,0, , , , , , ,-0.406,-0.456,-107.886
 09:35:57.261,eb:33:2e:f9:57:b5, 2015-01-01 00:24:34.620,0.009,-0.008,0.993,0.244,0.061,0, , , , , , ,-0.406,-0.456,-107.886
 09:35:57.261,eb:33:2e:f9:57:b5, 2015-01-01 00:24:34.620,0.009,-0.008,0.993,0.305,0.061,0, , , , , , ,-0.406,-0.456,-107.886
 09:35:57.261,eb:33:2e:f9:57:b5, 2015-01-01 00:24:34.620,0.009,-0.008,0.993,0.244,0,0, , , , , , ,-0.406,-0.456,-107.886
 09:35:57.261,eb:33:2e:f9:57:b5, 2015-01-01 00:24:34.620,0.009,-0.007,0.993,0.305,0,0, , , , , , ,-0.406,-0.456,-107.886
 09:35:57.261,eb:33:2e:f9:57:b5, 2015-01-01 00:24:34.620,0.009,-0.007,0.993,0.305,0,0, , , , , , ,-0.406,-0.456,-107.886
 09:35:57.261,eb:33:2e:f9:57:b5, 2015-01-01 00:24:34.620,0.01,-0.007,0.994,0.305,0.061,0, , , , , , ,-0.406,-0.456,-107.886
 09:35:57.306,eb:33:2e:f9:57:b5, 2015-01-01 00:24:34.620,0.01,-0.008,0.995,0.366,0.122,0.061, , , , , , ,-0.406,-0.456,-107.886
 09:35:57.306,eb:33:2e:f9:57:b5, 2015-01-01 00:24:34.620,0.009,-0.009,0.996,0.366,0.122,0.122, , , , , , ,-0.406,-0.456,-107.886
 09:35:57.306,eb:33:2e:f9:57:b5, 2015-01-01 00:24:34.620,0.01,-0.008,0.996,0.488,0.244,0.122, , , , , , ,-0.406,-0.456,-107.886
 09:35:57.306,eb:33:2e:f9:57:b5, 2015-01-01 00:24:34.620,0.009,-0.009,0.995,0.549,0.244,0.061, , , , , , ,-0.406,-0.456,-107.886
 09:35:57.306,eb:33:2e:f9:57:b5, 2015-01-01 00:24:34.620,0.008,-0.008,0.994,0.549,0.244,0.122, , , , , , ,-0.406,-0.456,-107.886
 09:35:57.306,eb:33:2e:f9:57:b5, 2015-01-01 00:24:34.620,0.009,-0.008,0.994,0.549,0.244,0.183, , , , , , ,-0.406,-0.456,-107.886
 09:35:57.306,eb:33:2e:f9:57:b5, 2015-01-01 00:24:34.620,0.009,-0.007,0.993,0.549,0.183,0.183, , , , , , ,-0.406,-0.456,-107.886
 09:35:57.306,eb:33:2e:f9:57:b5, 2015-01-01 00:24:34.620,0.008,-0.007,0.994,0.549,0.183,0.183, , , , , , ,-0.406,-0.456,-107.886
 09:35:57.352,eb:33:2e:f9:57:b5, 2015-01-01 00:24:34.620,0.008,-0.006,0.994,0.549,0.183,0.244, , , , , , ,-0.406,-0.456,-107.886
 09:35:57.352,eb:33:2e:f9:57:b5, 2015-01-01 00:24:34.620,0.009,-0.006,0.992,0.488,0.122,0.305, , , , , , ,-0.406,-0.456,-107.886
 09:35:57.352,eb:33:2e:f9:57:b5, 2015-01-01 00:24:34.620,0.01,-0.006,0.992,0.488,0.061,0.244, , , , , , ,-0.406,-0.456,-107.886
 09:35:57.352,eb:33:2e:f9:57:b5, 2015-01-01 00:24:34.620,0.011,-0.006,0.992,0.427,0,0.244, , , , , , ,-0.406,-0.456,-107.886
 09:35:57.352,eb:33:2e:f9:57:b5, 2015-01-01 00:24:34.620,0.011,-0.007,0.993,0.366,0.061,0.244, , , , , , ,-0.406,-0.456,-107.886
 09:35:57.352,eb:33:2e:f9:57:b5, 2015-01-01 00:24:34.620,0.009,-0.008,0.995,0.427,0.122,0.244, , , , , , ,-0.406,-0.456,-107.886
 09:35:57.352,eb:33:2e:f9:57:b5, 2015-01-01 00:24:34.620,0.008,-0.008,0.994,0.427,0.122,0.305, , , , , , ,-0.412,-0.456,-107.886
 09:35:57.352,eb:33:2e:f9:57:b5, 2015-01-01 00:24:34.620,0.011,-0.009,0.995,0.488,0.061,0.366, , , , , , ,-0.412,-0.456,-107.886
 09:35:57.396,eb:33:2e:f9:57:b5, 2015-01-01 00:24:34.620,0.009,-0.007,0.996,0.488,0.183,0.305, , , , , , ,-0.412,-0.461,-107.886
 09:35:57.396,eb:33:2e:f9:57:b5, 2015-01-01 00:24:34.620,0.01,-0.007,0.994,0.549,0.244,0.244, , , , , , ,-0.412,-0.461,-107.886
 09:35:57.396,eb:33:2e:f9:57:b5, 2015-01-01 00:24:34.620,0.008,-0.005,0.993,0.549,0.122,0.244, , , , , , ,-0.412,-0.461,-107.886
 09:35:57.396,eb:33:2e:f9:57:b5, 2015-01-01 00:24:34.620,0.01,-0.008,0.993,0.549,0.061,0.244, , , , , , ,-0.412,-0.461,-107.886
 09:35:57.396,eb:33:2e:f9:57:b5, 2015-01-01 00:24:34.620,0.011,-0.006,0.993,0.427,0.061,0.244, , , , , , ,-0.412,-0.461,-107.886
 09:35:57.396,eb:33:2e:f9:57:b5, 2015-01-01 00:24:34.620,0.009,-0.002,0.991,0.305,0.061,0.244, , , , , , ,-0.412,-0.461,-107.886
 09:35:57.396,eb:33:2e:f9:57:b5, 2015-01-01 00:24:34.620,0.008,-0.004,0.991,0.244,0.061,0.183, , , , , , ,-0.412,-0.461,-107.886
 09:35:57.396,eb:33:2e:f9:57:b5, 2015-01-01 00:24:34.620,0.011,-0.005,0.991,0.183,0,0.183, , , , , , ,-0.412,-0.461,-107.886
 09:35:57.419,eb:33:2e:f9:57:b5, 2015-01-01 00:24:34.620,0.012,-0.006,0.994,0.244,0,0.183, , , , , , ,-0.412,-0.461,-107.886
 09:35:57.419,eb:33:2e:f9:57:b5, 2015-01-01 00:24:34.620,0.015,-0.006,0.995,0.305,0.122,0.122, , , , , , ,-0.412,-0.461,-107.886
 09:35:57.419,eb:33:2e:f9:57:b5, 2015-01-01 00:24:34.620,0.011,-0.005,0.996,0.305,0.305,0, , , , , , ,-0.412,-0.461,-107.886
 09:35:57.419,eb:33:2e:f9:57:b5, 2015-01-01 00:24:34.620,0,-0.007,0.993,0.427,0.488,0, , , , , , ,-0.412,-0.461,-107.886
 09:35:57.419,eb:33:2e:f9:57:b5, 2015-01-01 00:24:34.620,0.015,-0.007,0.987,0.305,0,0.122, , , , , , ,-0.406,-0.461,-107.886
 09:35:57.419,eb:33:2e:f9:57:b5, 2015-01-01 00:24:34.620,0.012,-0.004,0.997,0.183,0.244,0.122, , , , , , ,-0.406,-0.461,-107.886
 09:35:57.419,eb:33:2e:f9:57:b5, 2015-01-01 00:24:34.620,0.005,-0.007,0.996,0.244,0.427,0, , , , , , ,-0.406,-0.461,-107.886
 09:35:57.419,eb:33:2e:f9:57:b5, 2015-01-01 00:24:34.620,0.007,-0.01,0.993,0.366,0.183,0.061, , , , , , ,-0.406,-0.461,-107.886
 09:35:57.464,eb:33:2e:f9:57:b5, 2015-01-01 00:24:34.620,0.01,-0.008,0.994,0.366,0.122,0.061, , , , , , ,-0.406,-0.461,-107.886
 09:35:57.464,eb:33:2e:f9:57:b5, 2015-01-01 00:24:34.620,0.009,-0.007,0.995,0.366,0.183,0.061, , , , , , ,-0.406,-0.461,-107.886
 09:35:57.464,eb:33:2e:f9:57:b5, 2015-01-01 00:24:34.620,0.007,-0.007,0.995,0.427,0.183,0.061, , , , , , ,-0.406,-0.461,-107.886
 09:35:57.464,eb:33:2e:f9:57:b5, 2015-01-01 00:24:34.620,0.007,-0.007,0.993,0.366,0.061,0.061, , , , , , ,-0.406,-0.461,-107.886
 09:35:57.464,eb:33:2e:f9:57:b5, 2015-01-01 00:24:34.620,0.009,-0.006,0.992,0.305,0,0.061, , , , , , ,-0.406,-0.461,-107.886
 09:35:57.464,eb:33:2e:f9:57:b5, 2015-01-01 00:24:34.620,0.01,-0.005,0.993,0.366,-0.061,0, , , , , , ,-0.406,-0.461,-107.886
 09:35:57.464,eb:33:2e:f9:57:b5, 2015-01-01 00:24:34.620,0.011,-0.006,0.994,0.366,0,0, , , , , , ,-0.406,-0.461,-107.886
 09:35:57.464,eb:33:2e:f9:57:b5, 2015-01-01 00:24:34.620,0.012,-0.007,0.994,0.366,0,0, , , , , , ,-0.406,-0.461,-107.886
 09:35:57.510,eb:33:2e:f9:57:b5, 2015-01-01 00:24:34.620,0.011,-0.006,0.995,0.366,0.061,0, , , , , , ,-0.406,-0.461,-107.886
 09:35:57.510,eb:33:2e:f9:57:b5, 2015-01-01 00:24:34.620,0.009,-0.006,0.995,0.366,0.061,0, , , , , , ,-0.406,-0.461,-107.886
 09:35:57.510,eb:33:2e:f9:57:b5, 2015-01-01 00:24:34.620,0.009,-0.006,0.994,0.366,0.122,0, , , , , , ,-0.406,-0.461,-107.886
 09:35:57.510,eb:33:2e:f9:57:b5, 2015-01-01 00:24:34.620,0.008,-0.006,0.994,0.427,0.122,0, , , , , , ,-0.406,-0.461,-107.886
 09:35:57.510,eb:33:2e:f9:57:b5, 2015-01-01 00:24:34.620,0.01,-0.007,0.995,0.427,0.122,0, , , , , , ,-0.406,-0.461,-107.886
 09:35:57.510,eb:33:2e:f9:57:b5, 2015-01-01 00:24:34.620,0.008,-0.007,0.996,0.488,0.122,0, , , , , , ,-0.406,-0.461,-107.886
 09:35:57.510,eb:33:2e:f9:57:b5, 2015-01-01 00:24:34.620,0.008,-0.006,0.994,0.488,0.183,0, , , , , , ,-0.406,-0.461,-107.886
 09:35:57.510,eb:33:2e:f9:57:b5, 2015-01-01 00:24:34.620,0.009,-0.005,0.993,0.488,0.061,-0.061, , , , , , ,-0.406,-0.461,-107.886
 09:35:57.553,eb:33:2e:f9:57:b5, 2015-01-01 00:24:34.955,0.01,-0.005,0.992,0.488,0,-0.061, , , , , , ,-0.406,-0.461,-107.886
 09:35:57.553,eb:33:2e:f9:57:b5, 2015-01-01 00:24:34.955,0.009,-0.005,0.993,0.488,0.061,-0.061, , , , , , ,-0.406,-0.461,-107.886
 09:35:57.553,eb:33:2e:f9:57:b5, 2015-01-01 00:24:34.955,0.009,-0.006,0.993,0.488,0.122,-0.122, , , , , , ,-0.406,-0.461,-107.886
 09:35:57.553,eb:33:2e:f9:57:b5, 2015-01-01 00:24:34.955,0.011,-0.006,0.992,0.488,0.122,-0.122, , , , , , ,-0.406,-0.461,-107.886
 09:35:57.553,eb:33:2e:f9:57:b5, 2015-01-01 00:24:34.955,0.009,-0.006,0.992,0.488,0.122,-0.183, , , , , , ,-0.406,-0.461,-107.886
 09:35:57.553,eb:33:2e:f9:57:b5, 2015-01-01 00:24:34.955,0.008,-0.005,0.994,0.427,0.122,-0.183, , , , , , ,-0.406,-0.461,-107.886
 09:35:57.553,eb:33:2e:f9:57:b5, 2015-01-01 00:24:34.955,0.007,-0.005,0.994,0.488,0.122,-0.122, , , , , , ,-0.406,-0.461,-107.886
 09:35:57.553,eb:33:2e:f9:57:b5, 2015-01-01 00:24:34.955,0.008,-0.007,0.993,0.488,0.061,-0.122, , , , , , ,-0.406,-0.461,-107.886
 09:35:57.600,eb:33:2e:f9:57:b5, 2015-01-01 00:24:34.955,0.009,-0.007,0.992,0.427,0.061,-0.122, , , , , , ,-0.406,-0.461,-107.886
 09:35:57.600,eb:33:2e:f9:57:b5, 2015-01-01 00:24:34.955,0.01,-0.006,0.993,0.488,0.122,-0.122, , , , , , ,-0.406,-0.461,-107.886
 09:35:57.600,eb:33:2e:f9:57:b5, 2015-01-01 00:24:34.955,0.009,-0.006,0.993,0.488,0.183,-0.122, , , , , , ,-0.406,-0.467,-107.886
 09:35:57.600,eb:33:2e:f9:57:b5, 2015-01-01 00:24:34.955,0.009,-0.006,0.993,0.488,0.244,-0.122, , , , , , ,-0.406,-0.467,-107.886
 09:35:57.600,eb:33:2e:f9:57:b5, 2015-01-01 00:24:34.955,0.008,-0.005,0.994,0.549,0.183,-0.122, , , , , , ,-0.406,-0.467,-107.886
 09:35:57.600,eb:33:2e:f9:57:b5, 2015-01-01 00:24:34.955,0.008,-0.005,0.992,0.488,0.061,-0.122, , , , , , ,-0.406,-0.467,-107.886
 09:35:57.600,eb:33:2e:f9:57:b5, 2015-01-01 00:24:34.955,0.009,-0.004,0.992,0.549,0,-0.122, , , , , , ,-0.406,-0.467,-107.886
 09:35:57.600,eb:33:2e:f9:57:b5, 2015-01-01 00:24:34.955,0.01,-0.005,0.994,0.488,0,-0.122, , , , , , ,-0.406,-0.467,-107.886
 09:35:57.620,eb:33:2e:f9:57:b5, 2015-01-01 00:24:34.955,0.009,-0.005,0.994,0.488,0.061,-0.061, , , , , , ,-0.406,-0.467,-107.886
 09:35:57.620,eb:33:2e:f9:57:b5, 2015-01-01 00:24:34.955,0.01,-0.005,0.994,0.488,0.122,-0.061, , , , , , ,-0.406,-0.467,-107.886
 09:35:57.620,eb:33:2e:f9:57:b5, 2015-01-01 00:24:34.955,0.009,-0.005,0.993,0.427,0.122,-0.061, , , , , , ,-0.406,-0.467,-107.886
 09:35:57.620,eb:33:2e:f9:57:b5, 2015-01-01 00:24:34.955,0.008,-0.005,0.992,0.366,0.122,-0.061, , , , , , ,-0.406,-0.467,-107.886
 09:35:57.620,eb:33:2e:f9:57:b5, 2015-01-01 00:24:34.955,0.007,-0.004,0.991,0.305,0,-0.061, , , , , , ,-0.406,-0.467,-107.886
 09:35:57.620,eb:33:2e:f9:57:b5, 2015-01-01 00:24:34.955,0.008,-0.005,0.991,0.305,-0.061,-0.122, , , , , , ,-0.406,-0.467,-107.886
 09:35:57.620,eb:33:2e:f9:57:b5, 2015-01-01 00:24:34.955,0.009,-0.005,0.992,0.305,-0.122,-0.122, , , , , , ,-0.406,-0.467,-107.88
 09:35:57.621,eb:33:2e:f9:57:b5, 2015-01-01 00:24:34.955,0.011,-0.006,0.993,0.305,-0.122,-0.122, , , , , , ,-0.406,-0.467,-107.88
 09:35:57.665,eb:33:2e:f9:57:b5, 2015-01-01 00:24:34.955,0.01,-0.005,0.994,0.305,0,-0.122, , , , , , ,-0.406,-0.467,-107.88
 09:35:57.665,eb:33:2e:f9:57:b5, 2015-01-01 00:24:34.955,0.009,-0.005,0.994,0.244,0,0, , , , , , ,-0.406,-0.467,-107.88
 09:35:57.665,eb:33:2e:f9:57:b5, 2015-01-01 00:24:34.955,0.008,-0.005,0.993,0.244,0,0, , , , , , ,-0.406,-0.467,-107.88
 09:35:57.665,eb:33:2e:f9:57:b5, 2015-01-01 00:24:34.955,0.009,-0.006,0.993,0.244,0,0, , , , , , ,-0.406,-0.467,-107.88
 09:35:57.665,eb:33:2e:f9:57:b5, 2015-01-01 00:24:34.955,0.01,-0.005,0.994,0.244,0,0.061, , , , , , ,-0.406,-0.467,-107.88
 09:35:57.665,eb:33:2e:f9:57:b5, 2015-01-01 00:24:34.955,0.01,-0.004,0.994,0.183,0.061,0, , , , , , ,-0.406,-0.467,-107.88
 09:35:57.665,eb:33:2e:f9:57:b5, 2015-01-01 00:24:34.955,0.009,-0.005,0.993,0.183,0.122,0, , , , , , ,-0.406,-0.467,-107.88
 09:35:57.665,eb:33:2e:f9:57:b5, 2015-01-01 00:24:34.955,0.009,-0.005,0.993,0.183,0.122,0, , , , , , ,-0.406,-0.467,-107.88
 09:35:57.711,eb:33:2e:f9:57:b5, 2015-01-01 00:24:34.955,0.009,-0.005,0.993,0.183,0.122,0, , , , , , ,-0.406,-0.467,-107.88
 09:35:57.711,eb:33:2e:f9:57:b5, 2015-01-01 00:24:34.955,0.009,-0.006,0.994,0.244,0.061,0, , , , , , ,-0.406,-0.467,-107.88
 09:35:57.711,eb:33:2e:f9:57:b5, 2015-01-01 00:24:34.955,0.009,-0.006,0.995,0.244,0,0, , , , , , ,-0.406,-0.467,-107.88
 09:35:57.711,eb:33:2e:f9:57:b5, 2015-01-01 00:24:34.955,0.009,-0.006,0.995,0.305,0.061,0.061, , , , , , ,-0.406,-0.467,-107.88
 09:35:57.711,eb:33:2e:f9:57:b5, 2015-01-01 00:24:34.955,0.009,-0.006,0.996,0.305,0,0.122, , , , , , ,-0.406,-0.467,-107.88
 09:35:57.711,eb:33:2e:f9:57:b5, 2015-01-01 00:24:34.955,0.008,-0.006,0.995,0.305,0,0.061, , , , , , ,-0.406,-0.467,-107.88
 09:35:57.711,eb:33:2e:f9:57:b5, 2015-01-01 00:24:34.955,0.009,-0.005,0.994,0.305,0,0.061, , , , , , ,-0.406,-0.467,-107.88
 09:35:57.711,eb:33:2e:f9:57:b5, 2015-01-01 00:24:34.955,0.009,-0.004,0.995,0.305,-0.061,0.061, , , , , , ,-0.406,-0.467,-107.88
 09:35:57.779,eb:33:2e:f9:57:b5, 2015-01-01 00:24:34.955,0.009,-0.005,0.995,0.305,0,0.122, , , , , , ,-0.406,-0.467,-107.88
 09:35:57.779,eb:33:2e:f9:57:b5, 2015-01-01 00:24:34.955,0.008,-0.006,0.995,0.244,0,0.122, , , , , , ,-0.406,-0.467,-107.88
 09:35:57.779,eb:33:2e:f9:57:b5, 2015-01-01 00:24:34.955,0.009,-0.005,0.995,0.183,0,0.122, , , , , , ,-0.406,-0.467,-107.88
 09:35:57.779,eb:33:2e:f9:57:b5, 2015-01-01 00:24:34.955,0.01,-0.005,0.996,0.305,0,0.061, , , , , , ,-0.406,-0.467,-107.88
 09:35:57.779,eb:33:2e:f9:57:b5, 2015-01-01 00:24:34.955,0.009,-0.004,0.995,0.244,0,0.122, , , , , , ,-0.406,-0.467,-107.88
 09:35:57.779,eb:33:2e:f9:57:b5, 2015-01-01 00:24:34.955,0.009,-0.005,0.993,0.305,0,0.061, , , , , , ,-0.406,-0.467,-107.88
 09:35:57.779,eb:33:2e:f9:57:b5, 2015-01-01 00:24:34.955,0.008,-0.005,0.992,0.244,0,0.061, , , , , , ,-0.406,-0.467,-107.88
 09:35:57.779,eb:33:2e:f9:57:b5, 2015-01-01 00:24:34.955,0.009,-0.005,0.993,0.244,0,0.061, , , , , , ,-0.406,-0.467,-107.88
 09:35:57.801,eb:33:2e:f9:57:b5, 2015-01-01 00:24:34.955,0.01,-0.005,0.993,0.183,0,0.061, , , , , , ,-0.406,-0.467,-107.88
 09:35:57.801,eb:33:2e:f9:57:b5, 2015-01-01 00:24:34.955,0.01,-0.005,0.993,0.183,-0.061,0.061, , , , , , ,-0.406,-0.467,-107.88
 09:35:57.801,eb:33:2e:f9:57:b5, 2015-01-01 00:24:34.955,0.009,-0.004,0.993,0.122,-0.061,0.061, , , , , , ,-0.406,-0.467,-107.88
 09:35:57.801,eb:33:2e:f9:57:b5, 2015-01-01 00:24:34.955,0.009,-0.005,0.992,0.122,0,0.122, , , , , , ,-0.406,-0.467,-107.88
 09:35:57.801,eb:33:2e:f9:57:b5, 2015-01-01 00:24:34.955,0.011,-0.005,0.993,0.061,-0.061,0, , , , , , ,-0.406,-0.467,-107.88
 09:35:57.801,eb:33:2e:f9:57:b5, 2015-01-01 00:24:34.955,0.011,-0.005,0.994,0.122,-0.061,0, , , , , , ,-0.406,-0.467,-107.88
 09:35:57.801,eb:33:2e:f9:57:b5, 2015-01-01 00:24:34.955,0.011,-0.006,0.994,0.122,0,0, , , , , , ,-0.406,-0.467,-107.88
 09:35:57.801,eb:33:2e:f9:57:b5, 2015-01-01 00:24:34.955,0.009,-0.005,0.994,0.122,0.061,0, , , , , , ,-0.406,-0.467,-107.88
 09:35:57.824,eb:33:2e:f9:57:b5, 2015-01-01 00:24:34.955,0.009,-0.005,0.993,0.122,0,0, , , , , , ,-0.401,-0.467,-107.88
 09:35:57.824,eb:33:2e:f9:57:b5, 2015-01-01 00:24:34.955,0.01,-0.004,0.992,0.061,0,0, , , , , , ,-0.401,-0.467,-107.88
 09:35:57.824,eb:33:2e:f9:57:b5, 2015-01-01 00:24:34.955,0.01,-0.005,0.994,0.061,0,0, , , , , , ,-0.401,-0.467,-107.88
 09:35:57.824,eb:33:2e:f9:57:b5, 2015-01-01 00:24:34.955,0.009,-0.005,0.994,0.122,0,0, , , , , , ,-0.401,-0.467,-107.88
 09:35:57.824,eb:33:2e:f9:57:b5, 2015-01-01 00:24:34.955,0.009,-0.005,0.993,0.122,0,0, , , , , , ,-0.401,-0.472,-107.88
 09:35:57.824,eb:33:2e:f9:57:b5, 2015-01-01 00:24:34.955,0.009,-0.005,0.994,0.122,0,0, , , , , , ,-0.401,-0.472,-107.88
 09:35:57.824,eb:33:2e:f9:57:b5, 2015-01-01 00:24:34.955,0.009,-0.005,0.993,0.122,0,0, , , , , , ,-0.401,-0.472,-107.88
 09:35:57.824,eb:33:2e:f9:57:b5, 2015-01-01 00:24:34.955,0.009,-0.005,0.992,0.061,0,0, , , , , , ,-0.401,-0.472,-107.88
 09:35:57.869,eb:33:2e:f9:57:b5, 2015-01-01 00:24:35.270,0.009,-0.004,0.993,0.061,0,0, , , , , , ,-0.401,-0.472,-107.88
 09:35:57.869,eb:33:2e:f9:57:b5, 2015-01-01 00:24:35.270,0.009,-0.004,0.994,0.061,0,0, , , , , , ,-0.401,-0.472,-107.88
 09:35:57.869,eb:33:2e:f9:57:b5, 2015-01-01 00:24:35.270,0.009,-0.004,0.994,0.061,0,0, , , , , , ,-0.401,-0.472,-107.88
 09:35:57.869,eb:33:2e:f9:57:b5, 2015-01-01 00:24:35.270,0.009,-0.004,0.993,0,0,-0.061, , , , , , ,-0.401,-0.472,-107.88
 09:35:57.869,eb:33:2e:f9:57:b5, 2015-01-01 00:24:35.270,0.01,-0.004,0.994,0.061,0,-0.122, , , , , , ,-0.401,-0.472,-107.88
 09:35:57.869,eb:33:2e:f9:57:b5, 2015-01-01 00:24:35.270,0.01,-0.004,0.994,0.061,0,0, , , , , , ,-0.401,-0.472,-107.88
 09:35:57.869,eb:33:2e:f9:57:b5, 2015-01-01 00:24:35.270,0.009,-0.005,0.995,0,0.122,0, , , , , , ,-0.401,-0.472,-107.88
 09:35:57.869,eb:33:2e:f9:57:b5, 2015-01-01 00:24:35.270,0.01,-0.005,0.995,0.061,0.122,0, , , , , , ,-0.401,-0.472,-107.88
 09:35:57.913,eb:33:2e:f9:57:b5, 2015-01-01 00:24:35.270,0.008,-0.005,0.994,0.061,0.183,0, , , , , , ,-0.401,-0.472,-107.88
 09:35:57.913,eb:33:2e:f9:57:b5, 2015-01-01 00:24:35.270,0.008,-0.005,0.993,0.122,0.122,0, , , , , , ,-0.401,-0.472,-107.88
 09:35:57.913,eb:33:2e:f9:57:b5, 2015-01-01 00:24:35.270,0.01,-0.006,0.994,0.122,0.122,0, , , , , , ,-0.401,-0.472,-107.88
 09:35:57.913,eb:33:2e:f9:57:b5, 2015-01-01 00:24:35.270,0.009,-0.006,0.995,0.061,0.061,0, , , , , , ,-0.401,-0.472,-107.88
 09:35:57.913,eb:33:2e:f9:57:b5, 2015-01-01 00:24:35.270,0.008,-0.006,0.994,0.122,0,0.061, , , , , , ,-0.401,-0.472,-107.88
 09:35:57.913,eb:33:2e:f9:57:b5, 2015-01-01 00:24:35.270,0.009,-0.005,0.994,0.183,0,0.061, , , , , , ,-0.401,-0.472,-107.88
 09:35:57.913,eb:33:2e:f9:57:b5, 2015-01-01 00:24:35.270,0.009,-0.005,0.995,0.122,0,0, , , , , , ,-0.401,-0.472,-107.88
 09:35:57.913,eb:33:2e:f9:57:b5, 2015-01-01 00:24:35.270,0.01,-0.006,0.996,0.183,0,0.061, , , , , , ,-0.401,-0.472,-107.88
 09:35:57.959,eb:33:2e:f9:57:b5, 2015-01-01 00:24:35.270,0.01,-0.005,0.997,0.183,0.122,0, , , , , , ,-0.401,-0.472,-107.88
 09:35:57.959,eb:33:2e:f9:57:b5, 2015-01-01 00:24:35.270,0.013,-0.005,0.995,0.244,0.183,0.061, , , , , , ,-0.401,-0.472,-107.88
 09:35:57.959,eb:33:2e:f9:57:b5, 2015-01-01 00:24:35.270,0.007,-0.005,0.996,0.244,0.305,0.061, , , , , , ,-0.401,-0.472,-107.88
 09:35:57.959,eb:33:2e:f9:57:b5, 2015-01-01 00:24:35.270,0.005,-0.006,0.992,0.244,0.183,0.122, , , , , , ,-0.401,-0.472,-107.88
 09:35:57.959,eb:33:2e:f9:57:b5, 2015-01-01 00:24:35.270,0.01,-0.005,0.99,0.244,0,0.122, , , , , , ,-0.401,-0.472,-107.88
 09:35:57.959,eb:33:2e:f9:57:b5, 2015-01-01 00:24:35.270,0.01,-0.003,0.992,0.183,0,0.122, , , , , , ,-0.401,-0.472,-107.88
 09:35:57.959,eb:33:2e:f9:57:b5, 2015-01-01 00:24:35.270,0.012,-0.005,0.993,0.122,0,0.061, , , , , , ,-0.401,-0.472,-107.88
 09:35:57.959,eb:33:2e:f9:57:b5, 2015-01-01 00:24:35.270,0.01,-0.005,0.996,0.183,0.061,0.122, , , , , , ,-0.401,-0.472,-107.88
 09:35:58.003,eb:33:2e:f9:57:b5, 2015-01-01 00:24:35.270,0.009,-0.005,0.995,0.183,0.061,0.122, , , , , , ,-0.401,-0.472,-107.88
 09:35:58.003,eb:33:2e:f9:57:b5, 2015-01-01 00:24:35.270,0.009,-0.005,0.993,0.244,0.061,0.122, , , , , , ,-0.401,-0.472,-107.88
 09:35:58.003,eb:33:2e:f9:57:b5, 2015-01-01 00:24:35.270,0.01,-0.004,0.993,0.122,0.061,0.122, , , , , , ,-0.401,-0.472,-107.88
 09:35:58.003,eb:33:2e:f9:57:b5, 2015-01-01 00:24:35.270,0.01,-0.004,0.993,0.122,0.061,0.122, , , , , , ,-0.401,-0.472,-107.88
 09:35:58.004,eb:33:2e:f9:57:b5, 2015-01-01 00:24:35.270,0.009,-0.004,0.993,0.122,0.061,0.122, , , , , , ,-0.401,-0.472,-107.88
 09:35:58.004,eb:33:2e:f9:57:b5, 2015-01-01 00:24:35.270,0.01,-0.005,0.993,0.061,0.122,0.183, , , , , , ,-0.401,-0.472,-107.88
 09:35:58.004,eb:33:2e:f9:57:b5, 2015-01-01 00:24:35.270,0.009,-0.005,0.994,0.061,0.061,0.122, , , , , , ,-0.401,-0.472,-107.88
 09:35:58.004,eb:33:2e:f9:57:b5, 2015-01-01 00:24:35.270,0.008,-0.004,0.993,0,0.061,0.122, , , , , , ,-0.401,-0.472,-107.88
 09:35:58.026,eb:33:2e:f9:57:b5, 2015-01-01 00:24:35.270,0.009,-0.004,0.993,0,0.061,0.183, , , , , , ,-0.396,-0.472,-107.88
 09:35:58.026,eb:33:2e:f9:57:b5, 2015-01-01 00:24:35.270,0.009,-0.004,0.993,0,0.061,0.183, , , , , , ,-0.396,-0.472,-107.88
 09:35:58.027,eb:33:2e:f9:57:b5, 2015-01-01 00:24:35.270,0.009,-0.005,0.993,0,0.061,0.183, , , , , , ,-0.396,-0.472,-107.875
 09:35:58.027,eb:33:2e:f9:57:b5, 2015-01-01 00:24:35.270,0.01,-0.005,0.995,0,0,0.122, , , , , , ,-0.396,-0.472,-107.875
 09:35:58.027,eb:33:2e:f9:57:b5, 2015-01-01 00:24:35.270,0.01,-0.004,0.994,0,0.061,0.122, , , , , , ,-0.396,-0.472,-107.875
 09:35:58.027,eb:33:2e:f9:57:b5, 2015-01-01 00:24:35.270,0.008,-0.004,0.993,0,0.122,0.183, , , , , , ,-0.396,-0.472,-107.875
 09:35:58.027,eb:33:2e:f9:57:b5, 2015-01-01 00:24:35.270,0.009,-0.004,0.993,0,0.061,0.183, , , , , , ,-0.396,-0.472,-107.875
 09:35:58.027,eb:33:2e:f9:57:b5, 2015-01-01 00:24:35.270,0.01,-0.005,0.993,0,0.061,0.122, , , , , , ,-0.396,-0.472,-107.875
 09:35:58.071,eb:33:2e:f9:57:b5, 2015-01-01 00:24:35.270,0.013,-0.005,0.994,0,0.122,0.122, , , , , , ,-0.396,-0.472,-107.875
 09:35:58.071,eb:33:2e:f9:57:b5, 2015-01-01 00:24:35.270,0.006,-0.006,0.997,0.122,0.305,0.061, , , , , , ,-0.396,-0.472,-107.875
 09:35:58.071,eb:33:2e:f9:57:b5, 2015-01-01 00:24:35.270,0.016,-0.005,0.993,0.183,0.061,0.061, , , , , , ,-0.396,-0.472,-107.875
 09:35:58.071,eb:33:2e:f9:57:b5, 2015-01-01 00:24:35.270,0.013,-0.008,1.002,0.366,0.61,0.122, , , , , , ,-0.396,-0.472,-107.875
 09:35:58.071,eb:33:2e:f9:57:b5, 2015-01-01 00:24:35.270,0,-0.005,0.996,0.305,0.793,0.122, , , , , , ,-0.396,-0.478,-107.875
 09:35:58.072,eb:33:2e:f9:57:b5, 2015-01-01 00:24:35.270,-0.002,-0.004,0.986,0.244,0.305,0.122, , , , , , ,-0.396,-0.478,-107.875
 09:35:58.072,eb:33:2e:f9:57:b5, 2015-01-01 00:24:35.270,0.009,-0.004,0.983,0.061,-0.244,0.183, , , , , , ,-0.396,-0.478,-107.875
 09:35:58.072,eb:33:2e:f9:57:b5, 2015-01-01 00:24:35.270,0.015,-0.003,0.993,0,-0.244,0.183, , , , , , ,-0.396,-0.478,-107.875
 09:35:58.116,eb:33:2e:f9:57:b5, 2015-01-01 00:24:35.270,0.011,-0.006,0.997,0.061,0,0.122, , , , , , ,-0.396,-0.478,-107.875
 09:35:58.116,eb:33:2e:f9:57:b5, 2015-01-01 00:24:35.270,0.009,-0.007,0.996,0.122,0.061,0.122, , , , , , ,-0.396,-0.478,-107.875
 09:35:58.117,eb:33:2e:f9:57:b5, 2015-01-01 00:24:35.270,0.008,-0.005,0.994,0.183,0.122,0.122, , , , , , ,-0.396,-0.478,-107.875
 09:35:58.117,eb:33:2e:f9:57:b5, 2015-01-01 00:24:35.270,0.009,-0.005,0.993,0.183,0.061,0.122, , , , , , ,-0.396,-0.478,-107.875
 09:35:58.117,eb:33:2e:f9:57:b5, 2015-01-01 00:24:35.270,0.011,-0.004,0.993,0.183,0.061,0.061, , , , , , ,-0.396,-0.478,-107.875
 09:35:58.117,eb:33:2e:f9:57:b5, 2015-01-01 00:24:35.270,0.011,-0.005,0.995,0.244,0.183,0.061, , , , , , ,-0.396,-0.478,-107.875
 09:35:58.117,eb:33:2e:f9:57:b5, 2015-01-01 00:24:35.270,0.011,-0.004,0.994,0.244,0.244,0.122, , , , , , ,-0.396,-0.478,-107.875
 09:35:58.117,eb:33:2e:f9:57:b5, 2015-01-01 00:24:35.270,0.01,-0.003,0.993,0.183,0.244,0, , , , , , ,-0.396,-0.478,-107.875
 09:35:58.160,eb:33:2e:f9:57:b5, 2015-01-01 00:24:35.560,0.009,-0.004,0.994,0.183,0.305,0, , , , , , ,-0.396,-0.478,-107.875
 09:35:58.160,eb:33:2e:f9:57:b5, 2015-01-01 00:24:35.560,0.008,-0.005,0.994,0.183,0.305,0.061, , , , , , ,-0.396,-0.478,-107.875
 09:35:58.160,eb:33:2e:f9:57:b5, 2015-01-01 00:24:35.560,0.008,-0.005,0.993,0.183,0.244,0.061, , , , , , ,-0.396,-0.478,-107.875
 09:35:58.160,eb:33:2e:f9:57:b5, 2015-01-01 00:24:35.560,0.007,-0.005,0.993,0.244,0.244,0, , , , , , ,-0.396,-0.478,-107.875
 09:35:58.160,eb:33:2e:f9:57:b5, 2015-01-01 00:24:35.560,0.008,-0.004,0.993,0.305,0.244,0, , , , , , ,-0.396,-0.478,-107.875
 09:35:58.161,eb:33:2e:f9:57:b5, 2015-01-01 00:24:35.560,0.008,-0.004,0.993,0.244,0.183,0, , , , , , ,-0.396,-0.478,-107.875
 09:35:58.161,eb:33:2e:f9:57:b5, 2015-01-01 00:24:35.560,0.008,-0.005,0.993,0.183,0.122,0, , , , , , ,-0.396,-0.478,-107.875
 09:35:58.161,eb:33:2e:f9:57:b5, 2015-01-01 00:24:35.560,0.007,-0.005,0.993,0.305,0.061,0, , , , , , ,-0.396,-0.478,-107.875
 09:35:58.183,eb:33:2e:f9:57:b5, 2015-01-01 00:24:35.560,0.007,-0.004,0.993,0.244,0.061,0, , , , , , ,-0.396,-0.478,-107.875
 09:35:58.183,eb:33:2e:f9:57:b5, 2015-01-01 00:24:35.560,0.008,-0.003,0.992,0.244,0,0, , , , , , ,-0.396,-0.478,-107.875
 09:35:58.183,eb:33:2e:f9:57:b5, 2015-01-01 00:24:35.560,0.01,-0.004,0.992,0.244,0,0, , , , , , ,-0.396,-0.478,-107.875
 09:35:58.183,eb:33:2e:f9:57:b5, 2015-01-01 00:24:35.560,0.012,-0.005,0.994,0.244,0,0, , , , , , ,-0.396,-0.478,-107.875
 09:35:58.184,eb:33:2e:f9:57:b5, 2015-01-01 00:24:35.560,0.011,-0.005,0.994,0.244,0.122,0, , , , , , ,-0.396,-0.478,-107.875
 09:35:58.184,eb:33:2e:f9:57:b5, 2015-01-01 00:24:35.560,0.009,-0.003,0.994,0.244,0.183,0, , , , , , ,-0.396,-0.478,-107.875
 09:35:58.184,eb:33:2e:f9:57:b5, 2015-01-01 00:24:35.560,0.007,-0.004,0.993,0.244,0.183,0, , , , , , ,-0.396,-0.478,-107.875
 09:35:58.184,eb:33:2e:f9:57:b5, 2015-01-01 00:24:35.560,0.009,-0.004,0.993,0.244,0.122,0, , , , , , ,-0.396,-0.478,-107.875
 09:35:58.228,eb:33:2e:f9:57:b5, 2015-01-01 00:24:35.560,0.01,-0.005,0.993,0.305,0.061,-0.061, , , , , , ,-0.39,-0.478,-107.875
 09:35:58.228,eb:33:2e:f9:57:b5, 2015-01-01 00:24:35.560,0.01,-0.006,0.994,0.366,0.244,0, , , , , , ,-0.39,-0.478,-107.875
 09:35:58.228,eb:33:2e:f9:57:b5, 2015-01-01 00:24:35.560,0.008,-0.004,0.993,0.366,0.305,-0.122, , , , , , ,-0.39,-0.478,-107.875
 09:35:58.228,eb:33:2e:f9:57:b5, 2015-01-01 00:24:35.560,0.006,-0.003,0.991,0.366,0.244,-0.183, , , , , , ,-0.39,-0.478,-107.875
 09:35:58.228,eb:33:2e:f9:57:b5, 2015-01-01 00:24:35.560,0.007,-0.003,0.989,0.366,0.061,-0.183, , , , , , ,-0.39,-0.478,-107.875
 09:35:58.228,eb:33:2e:f9:57:b5, 2015-01-01 00:24:35.560,0.009,-0.004,0.991,0.427,-0.061,-0.244, , , , , , ,-0.39,-0.478,-107.875
 09:35:58.228,eb:33:2e:f9:57:b5, 2015-01-01 00:24:35.560,0.011,-0.005,0.993,0.366,-0.061,-0.183, , , , , , ,-0.39,-0.478,-107.875
 09:35:58.228,eb:33:2e:f9:57:b5, 2015-01-01 00:24:35.560,0.011,-0.003,0.994,0.305,-0.061,-0.244, , , , , , ,-0.39,-0.478,-107.875
 09:35:58.272,eb:33:2e:f9:57:b5, 2015-01-01 00:24:35.560,0.008,-0.003,0.993,0.305,-0.061,-0.305, , , , , , ,-0.39,-0.478,-107.875
 09:35:58.272,eb:33:2e:f9:57:b5, 2015-01-01 00:24:35.560,0.007,-0.006,0.994,0.244,-0.061,-0.244, , , , , , ,-0.39,-0.478,-107.875
 09:35:58.272,eb:33:2e:f9:57:b5, 2015-01-01 00:24:35.560,0.008,-0.005,0.994,0.305,-0.122,-0.183, , , , , , ,-0.39,-0.478,-107.875
 09:35:58.272,eb:33:2e:f9:57:b5, 2015-01-01 00:24:35.560,0.009,-0.004,0.993,0.305,-0.183,-0.244, , , , , , ,-0.39,-0.478,-107.875
 09:35:58.272,eb:33:2e:f9:57:b5, 2015-01-01 00:24:35.560,0.009,-0.004,0.995,0.305,-0.122,-0.183, , , , , , ,-0.39,-0.478,-107.875
 09:35:58.272,eb:33:2e:f9:57:b5, 2015-01-01 00:24:35.560,0.011,-0.003,0.993,0.305,-0.183,-0.183, , , , , , ,-0.39,-0.478,-107.875
 09:35:58.272,eb:33:2e:f9:57:b5, 2015-01-01 00:24:35.560,0.008,-0.004,0.995,0.305,-0.122,-0.244, , , , , , ,-0.39,-0.478,-107.875
 09:35:58.272,eb:33:2e:f9:57:b5, 2015-01-01 00:24:35.560,0.009,-0.004,0.995,0.305,-0.122,-0.183, , , , , , ,-0.39,-0.478,-107.875
 09:35:58.319,eb:33:2e:f9:57:b5, 2015-01-01 00:24:35.560,0.01,-0.004,0.996,0.244,-0.061,-0.183, , , , , , ,-0.39,-0.478,-107.875
 09:35:58.319,eb:33:2e:f9:57:b5, 2015-01-01 00:24:35.560,0.01,-0.004,0.996,0.244,0,-0.183, , , , , , ,-0.39,-0.478,-107.875
 09:35:58.319,eb:33:2e:f9:57:b5, 2015-01-01 00:24:35.560,0.01,-0.004,0.995,0.244,0,-0.183, , , , , , ,-0.39,-0.478,-107.875
 09:35:58.319,eb:33:2e:f9:57:b5, 2015-01-01 00:24:35.560,0.008,-0.004,0.993,0.244,0,-0.061, , , , , , ,-0.39,-0.478,-107.875
 09:35:58.319,eb:33:2e:f9:57:b5, 2015-01-01 00:24:35.560,0.008,-0.005,0.993,0.305,0,-0.061, , , , , , ,-0.39,-0.478,-107.875
 09:35:58.319,eb:33:2e:f9:57:b5, 2015-01-01 00:24:35.560,0.007,-0.004,0.993,0.305,0,-0.061, , , , , , ,-0.39,-0.478,-107.875
 09:35:58.319,eb:33:2e:f9:57:b5, 2015-01-01 00:24:35.560,0.007,-0.004,0.993,0.305,-0.061,-0.061, , , , , , ,-0.39,-0.478,-107.875
 09:35:58.319,eb:33:2e:f9:57:b5, 2015-01-01 00:24:35.560,0.01,-0.004,0.992,0.244,-0.122,0, , , , , , ,-0.39,-0.478,-107.875
 09:35:58.363,eb:33:2e:f9:57:b5, 2015-01-01 00:24:35.560,0.01,-0.005,0.995,0.305,-0.183,0, , , , , , ,-0.39,-0.478,-107.875
 09:35:58.363,eb:33:2e:f9:57:b5, 2015-01-01 00:24:35.560,0.009,-0.005,0.995,0.244,-0.122,0, , , , , , ,-0.39,-0.478,-107.875
 09:35:58.363,eb:33:2e:f9:57:b5, 2015-01-01 00:24:35.560,0.009,-0.005,0.994,0.366,-0.061,0, , , , , , ,-0.39,-0.478,-107.875
 09:35:58.363,eb:33:2e:f9:57:b5, 2015-01-01 00:24:35.560,0.008,-0.005,0.995,0.366,0,0, , , , , , ,-0.39,-0.478,-107.875
 09:35:58.363,eb:33:2e:f9:57:b5, 2015-01-01 00:24:35.560,0.009,-0.004,0.994,0.366,-0.061,0, , , , , , ,-0.39,-0.478,-107.875
 09:35:58.363,eb:33:2e:f9:57:b5, 2015-01-01 00:24:35.560,0.009,-0.004,0.995,0.305,0,0, , , , , , ,-0.39,-0.478,-107.875
 09:35:58.363,eb:33:2e:f9:57:b5, 2015-01-01 00:24:35.560,0.008,-0.003,0.993,0.305,-0.061,0, , , , , , ,-0.39,-0.478,-107.869
 09:35:58.363,eb:33:2e:f9:57:b5, 2015-01-01 00:24:35.560,0.01,-0.002,0.993,0.244,-0.122,0, , , , , , ,-0.39,-0.478,-107.869
 09:35:58.386,eb:33:2e:f9:57:b5, 2015-01-01 00:24:35.560,0.01,-0.003,0.993,0.183,0,0, , , , , , ,-0.385,-0.478,-107.869
 09:35:58.386,eb:33:2e:f9:57:b5, 2015-01-01 00:24:35.560,0.008,-0.004,0.993,0.183,0,0, , , , , , ,-0.385,-0.478,-107.869
 09:35:58.386,eb:33:2e:f9:57:b5, 2015-01-01 00:24:35.560,0.01,-0.003,0.993,0.061,-0.061,0, , , , , , ,-0.39,-0.478,-107.869
 09:35:58.386,eb:33:2e:f9:57:b5, 2015-01-01 00:24:35.560,0.008,-0.003,0.994,0.061,0,0, , , , , , ,-0.39,-0.478,-107.869
 09:35:58.386,eb:33:2e:f9:57:b5, 2015-01-01 00:24:35.560,0.009,-0.003,0.994,0.061,-0.061,0, , , , , , ,-0.385,-0.478,-107.869
 09:35:58.386,eb:33:2e:f9:57:b5, 2015-01-01 00:24:35.560,0.008,-0.003,0.994,0.122,0,0, , , , , , ,-0.385,-0.478,-107.869
 09:35:58.386,eb:33:2e:f9:57:b5, 2015-01-01 00:24:35.560,0.008,-0.003,0.992,0.061,-0.061,0, , , , , , ,-0.385,-0.478,-107.869
 09:35:58.386,eb:33:2e:f9:57:b5, 2015-01-01 00:24:35.560,0.008,-0.003,0.992,0.061,-0.061,0, , , , , , ,-0.385,-0.478,-107.869
 09:35:58.431,eb:33:2e:f9:57:b5, 2015-01-01 00:24:35.560,0.009,-0.004,0.992,0,-0.122,0, , , , , , ,-0.385,-0.478,-107.869
 09:35:58.431,eb:33:2e:f9:57:b5, 2015-01-01 00:24:35.560,0.01,-0.004,0.993,0,-0.122,0, , , , , , ,-0.385,-0.478,-107.869
 09:35:58.431,eb:33:2e:f9:57:b5, 2015-01-01 00:24:35.560,0.011,-0.003,0.995,0,-0.061,0, , , , , , ,-0.385,-0.478,-107.869
 09:35:58.431,eb:33:2e:f9:57:b5, 2015-01-01 00:24:35.560,0.01,-0.005,0.996,0,0,0, , , , , , ,-0.385,-0.478,-107.869
 09:35:58.431,eb:33:2e:f9:57:b5, 2015-01-01 00:24:35.560,0.009,-0.005,0.995,0.061,0,0, , , , , , ,-0.385,-0.478,-107.869
 09:35:58.431,eb:33:2e:f9:57:b5, 2015-01-01 00:24:35.560,0.008,-0.005,0.995,0.061,0,0, , , , , , ,-0.385,-0.478,-107.869
 09:35:58.431,eb:33:2e:f9:57:b5, 2015-01-01 00:24:35.560,0.008,-0.005,0.995,0.122,0,0, , , , , , ,-0.385,-0.478,-107.869
 09:35:58.431,eb:33:2e:f9:57:b5, 2015-01-01 00:24:35.560,0.009,-0.004,0.994,0.061,0,0, , , , , , ,-0.385,-0.478,-107.869
 09:35:58.477,eb:33:2e:f9:57:b5, 2015-01-01 00:24:35.850,0.008,-0.003,0.993,0.061,0,0.122, , , , , , ,-0.385,-0.478,-107.869
 09:35:58.477,eb:33:2e:f9:57:b5, 2015-01-01 00:24:35.850,0.01,-0.004,0.993,0.061,0,0.061, , , , , , ,-0.385,-0.478,-107.869
 09:35:58.477,eb:33:2e:f9:57:b5, 2015-01-01 00:24:35.850,0.011,-0.003,0.993,0.061,0,0.122, , , , , , ,-0.385,-0.478,-107.869
 09:35:58.477,eb:33:2e:f9:57:b5, 2015-01-01 00:24:35.850,0.01,-0.003,0.995,0,0,0.061, , , , , , ,-0.385,-0.478,-107.869
 09:35:58.477,eb:33:2e:f9:57:b5, 2015-01-01 00:24:35.850,0.009,-0.003,0.993,0,0,0.061, , , , , , ,-0.385,-0.483,-107.869
 09:35:58.477,eb:33:2e:f9:57:b5, 2015-01-01 00:24:35.850,0.01,-0.003,0.992,0,-0.061,0.061, , , , , , ,-0.385,-0.483,-107.869
 09:35:58.477,eb:33:2e:f9:57:b5, 2015-01-01 00:24:35.850,0.011,-0.003,0.992,-0.061,-0.061,0, , , , , , ,-0.385,-0.483,-107.869
 09:35:58.477,eb:33:2e:f9:57:b5, 2015-01-01 00:24:35.850,0.009,-0.004,0.993,0,0,0, , , , , , ,-0.385,-0.483,-107.869
 09:35:58.520,eb:33:2e:f9:57:b5, 2015-01-01 00:24:35.850,0.01,-0.004,0.993,0,0,0.061, , , , , , ,-0.385,-0.483,-107.869
 09:35:58.520,eb:33:2e:f9:57:b5, 2015-01-01 00:24:35.850,0.009,-0.004,0.994,0,0,0, , , , , , ,-0.385,-0.483,-107.869
 09:35:58.520,eb:33:2e:f9:57:b5, 2015-01-01 00:24:35.850,0.009,-0.005,0.994,0,-0.061,0, , , , , , ,-0.385,-0.483,-107.869
 09:35:58.521,eb:33:2e:f9:57:b5, 2015-01-01 00:24:35.850,0.01,-0.003,0.995,0,0,0, , , , , , ,-0.385,-0.483,-107.869
 09:35:58.521,eb:33:2e:f9:57:b5, 2015-01-01 00:24:35.850,0.01,-0.003,0.995,0,0,0, , , , , , ,-0.379,-0.483,-107.869
 09:35:58.521,eb:33:2e:f9:57:b5, 2015-01-01 00:24:35.850,0.009,-0.004,0.995,0,0,0, , , , , , ,-0.379,-0.483,-107.869
 09:35:58.521,eb:33:2e:f9:57:b5, 2015-01-01 00:24:35.850,0.01,-0.004,0.995,0,0.061,0.061, , , , , , ,-0.379,-0.483,-107.869
 09:35:58.521,eb:33:2e:f9:57:b5, 2015-01-01 00:24:35.850,0.01,-0.005,0.995,0,0.061,0.061, , , , , , ,-0.379,-0.483,-107.869
 09:35:58.565,eb:33:2e:f9:57:b5, 2015-01-01 00:24:35.850,0.01,-0.005,0.995,0,0.183,0.061, , , , , , ,-0.379,-0.483,-107.869
 09:35:58.565,eb:33:2e:f9:57:b5, 2015-01-01 00:24:35.850,0.009,-0.004,0.995,0.061,0.305,0.061, , , , , , ,-0.379,-0.483,-107.869
 09:35:58.565,eb:33:2e:f9:57:b5, 2015-01-01 00:24:35.850,0.009,-0.004,0.994,0,0.244,0.122, , , , , , ,-0.379,-0.483,-107.869
 09:35:58.565,eb:33:2e:f9:57:b5, 2015-01-01 00:24:35.850,0.01,-0.004,0.993,0,0.183,0.183, , , , , , ,-0.379,-0.483,-107.869
 09:35:58.565,eb:33:2e:f9:57:b5, 2015-01-01 00:24:35.850,0.011,-0.004,0.995,0,0.305,0.183, , , , , , ,-0.379,-0.483,-107.869
 09:35:58.565,eb:33:2e:f9:57:b5, 2015-01-01 00:24:35.850,0.01,-0.004,0.996,0,0.366,0.122, , , , , , ,-0.379,-0.483,-107.869
 09:35:58.567,eb:33:2e:f9:57:b5, 2015-01-01 00:24:35.850,0.008,-0.004,0.995,0,0.366,0.183, , , , , , ,-0.379,-0.483,-107.869
 09:35:58.567,eb:33:2e:f9:57:b5, 2015-01-01 00:24:35.850,0.009,-0.003,0.993,0,0.305,0.183, , , , , , ,-0.379,-0.483,-107.869
 09:35:58.590,eb:33:2e:f9:57:b5, 2015-01-01 00:24:35.850,0.008,-0.003,0.992,0,0.305,0.122, , , , , , ,-0.379,-0.483,-107.869
 09:35:58.590,eb:33:2e:f9:57:b5, 2015-01-01 00:24:35.850,0.009,-0.003,0.991,0,0.183,0.122, , , , , , ,-0.379,-0.483,-107.869
 09:35:58.590,eb:33:2e:f9:57:b5, 2015-01-01 00:24:35.850,0.009,-0.004,0.991,0,0.122,0.061, , , , , , ,-0.379,-0.483,-107.869
 09:35:58.590,eb:33:2e:f9:57:b5, 2015-01-01 00:24:35.850,0.009,-0.004,0.992,0,0.061,0.061, , , , , , ,-0.379,-0.483,-107.869
 09:35:58.590,eb:33:2e:f9:57:b5, 2015-01-01 00:24:35.850,0.007,-0.004,0.993,0,0.061,0, , , , , , ,-0.379,-0.483,-107.869
 09:35:58.590,eb:33:2e:f9:57:b5, 2015-01-01 00:24:35.850,0.009,-0.004,0.992,0,0,0.061, , , , , , ,-0.379,-0.483,-107.869
 09:35:58.590,eb:33:2e:f9:57:b5, 2015-01-01 00:24:35.850,0.011,-0.004,0.993,0,0,0.122, , , , , , ,-0.379,-0.483,-107.869
 09:35:58.590,eb:33:2e:f9:57:b5, 2015-01-01 00:24:35.850,0.01,-0.004,0.994,0,0.061,0.061, , , , , , ,-0.379,-0.483,-107.869
 09:35:58.656,eb:33:2e:f9:57:b5, 2015-01-01 00:24:35.850,0.008,-0.005,0.994,-0.061,0.183,0.061, , , , , , ,-0.379,-0.483,-107.869
 09:35:58.656,eb:33:2e:f9:57:b5, 2015-01-01 00:24:35.850,0.009,-0.004,0.994,-0.061,0.122,0.061, , , , , , ,-0.379,-0.483,-107.869
 09:35:58.656,eb:33:2e:f9:57:b5, 2015-01-01 00:24:35.850,0.01,-0.002,0.994,-0.122,0.122,0.061, , , , , , ,-0.379,-0.483,-107.869
 09:35:58.656,eb:33:2e:f9:57:b5, 2015-01-01 00:24:35.850,0.01,-0.003,0.994,-0.122,0.122,0.061, , , , , , ,-0.379,-0.483,-107.869
 09:35:58.656,eb:33:2e:f9:57:b5, 2015-01-01 00:24:35.850,0.009,-0.004,0.994,-0.122,0.122,0.061, , , , , , ,-0.379,-0.483,-107.869
 09:35:58.656,eb:33:2e:f9:57:b5, 2015-01-01 00:24:35.850,0.008,-0.004,0.994,-0.122,0.183,0, , , , , , ,-0.379,-0.483,-107.869
 09:35:58.656,eb:33:2e:f9:57:b5, 2015-01-01 00:24:35.850,0.008,-0.004,0.993,-0.122,0.183,0, , , , , , ,-0.379,-0.483,-107.869
 09:35:58.656,eb:33:2e:f9:57:b5, 2015-01-01 00:24:35.850,0.01,-0.003,0.993,-0.122,0.183,0.061, , , , , , ,-0.379,-0.483,-107.869
 09:35:58.678,eb:33:2e:f9:57:b5, 2015-01-01 00:24:35.850,0.01,-0.004,0.994,-0.122,0.244,0.061, , , , , , ,-0.379,-0.483,-107.869
 09:35:58.678,eb:33:2e:f9:57:b5, 2015-01-01 00:24:35.850,0.009,-0.004,0.995,-0.183,0.244,0.061, , , , , , ,-0.379,-0.483,-107.869
 09:35:58.678,eb:33:2e:f9:57:b5, 2015-01-01 00:24:35.850,0.01,-0.005,0.994,-0.122,0.244,0.061, , , , , , ,-0.379,-0.483,-107.869
 09:35:58.678,eb:33:2e:f9:57:b5, 2015-01-01 00:24:35.850,0.01,-0.004,0.994,-0.122,0.305,0.061, , , , , , ,-0.379,-0.483,-107.869
 09:35:58.678,eb:33:2e:f9:57:b5, 2015-01-01 00:24:35.850,0.009,-0.004,0.993,-0.183,0.366,0, , , , , , ,-0.374,-0.483,-107.864
 09:35:58.678,eb:33:2e:f9:57:b5, 2015-01-01 00:24:35.850,0.009,-0.004,0.993,-0.183,0.366,0, , , , , , ,-0.374,-0.483,-107.864
 09:35:58.678,eb:33:2e:f9:57:b5, 2015-01-01 00:24:35.850,0.008,-0.004,0.993,-0.244,0.366,0, , , , , , ,-0.374,-0.483,-107.864
 09:35:58.678,eb:33:2e:f9:57:b5, 2015-01-01 00:24:35.850,0.007,-0.004,0.992,-0.305,0.244,0, , , , , , ,-0.374,-0.483,-107.864
 09:35:58.724,eb:33:2e:f9:57:b5, 2015-01-01 00:24:35.850,0.008,-0.004,0.992,-0.305,0.183,0.061, , , , , , ,-0.374,-0.483,-107.864
 09:35:58.724,eb:33:2e:f9:57:b5, 2015-01-01 00:24:35.850,0.008,-0.005,0.994,-0.244,0.122,0, , , , , , ,-0.374,-0.483,-107.864
 09:35:58.724,eb:33:2e:f9:57:b5, 2015-01-01 00:24:35.850,0.008,-0.005,0.994,-0.183,0.183,0, , , , , , ,-0.374,-0.483,-107.864
 09:35:58.724,eb:33:2e:f9:57:b5, 2015-01-01 00:24:35.850,0.008,-0.005,0.994,-0.183,0.122,0, , , , , , ,-0.374,-0.483,-107.864
 09:35:58.724,eb:33:2e:f9:57:b5, 2015-01-01 00:24:35.850,0.008,-0.004,0.993,-0.183,0.061,0, , , , , , ,-0.374,-0.483,-107.864
 09:35:58.724,eb:33:2e:f9:57:b5, 2015-01-01 00:24:35.850,0.009,-0.005,0.993,-0.183,0.061,0, , , , , , ,-0.374,-0.483,-107.864
 09:35:58.724,eb:33:2e:f9:57:b5, 2015-01-01 00:24:35.850,0.009,-0.004,0.994,-0.122,0.061,0, , , , , , ,-0.374,-0.483,-107.864
 09:35:58.725,eb:33:2e:f9:57:b5, 2015-01-01 00:24:35.850,0.009,-0.005,0.994,-0.183,0.061,-0.061, , , , , , ,-0.374,-0.483,-107.864
 09:35:58.770,eb:33:2e:f9:57:b5, 2015-01-01 00:24:35.850,0.008,-0.006,0.993,-0.061,0,0, , , , , , ,-0.374,-0.483,-107.864
 09:35:58.770,eb:33:2e:f9:57:b5, 2015-01-01 00:24:35.850,0.009,-0.005,0.992,-0.183,0,0, , , , , , ,-0.374,-0.483,-107.864
 09:35:58.770,eb:33:2e:f9:57:b5, 2015-01-01 00:24:35.850,0.01,-0.004,0.993,-0.183,0,0, , , , , , ,-0.374,-0.483,-107.864
 09:35:58.770,eb:33:2e:f9:57:b5, 2015-01-01 00:24:35.850,0.009,-0.004,0.994,-0.244,0,0, , , , , , ,-0.374,-0.483,-107.864
 09:35:58.770,eb:33:2e:f9:57:b5, 2015-01-01 00:24:35.850,0.008,-0.005,0.995,-0.244,0,0, , , , , , ,-0.374,-0.483,-107.864
 09:35:58.770,eb:33:2e:f9:57:b5, 2015-01-01 00:24:35.850,0.009,-0.005,0.996,-0.244,0.061,-0.061, , , , , , ,-0.374,-0.483,-107.864
 09:35:58.770,eb:33:2e:f9:57:b5, 2015-01-01 00:24:35.850,0.009,-0.005,0.995,-0.183,0.122,0, , , , , , ,-0.374,-0.483,-107.864
 09:35:58.770,eb:33:2e:f9:57:b5, 2015-01-01 00:24:35.850,0.01,-0.006,0.995,-0.122,0.061,0, , , , , , ,-0.374,-0.483,-107.864
 09:35:58.792,eb:33:2e:f9:57:b5, 2015-01-01 00:24:36.205,0.008,-0.005,0.994,-0.122,0.183,0, , , , , , ,-0.374,-0.483,-107.864
 09:35:58.792,eb:33:2e:f9:57:b5, 2015-01-01 00:24:36.205,0.008,-0.005,0.993,-0.061,0.061,0, , , , , , ,-0.374,-0.483,-107.864
 09:35:58.792,eb:33:2e:f9:57:b5, 2015-01-01 00:24:36.205,0.009,-0.005,0.993,-0.122,0,0, , , , , , ,-0.374,-0.483,-107.864
 09:35:58.792,eb:33:2e:f9:57:b5, 2015-01-01 00:24:36.205,0.009,-0.004,0.994,-0.122,0,0, , , , , , ,-0.374,-0.483,-107.864
 09:35:58.792,eb:33:2e:f9:57:b5, 2015-01-01 00:24:36.205,0.009,-0.005,0.993,-0.122,0.061,0, , , , , , ,-0.374,-0.489,-107.864
 09:35:58.792,eb:33:2e:f9:57:b5, 2015-01-01 00:24:36.205,0.009,-0.005,0.994,-0.122,0,0.061, , , , , , ,-0.374,-0.489,-107.864
 09:35:58.792,eb:33:2e:f9:57:b5, 2015-01-01 00:24:36.205,0.009,-0.006,0.994,-0.061,0.061,0.061, , , , , , ,-0.374,-0.489,-107.864
 09:35:58.792,eb:33:2e:f9:57:b5, 2015-01-01 00:24:36.205,0.01,-0.007,0.995,-0.061,0.061,0.061, , , , , , ,-0.374,-0.489,-107.864
 09:35:58.835,eb:33:2e:f9:57:b5, 2015-01-01 00:24:36.205,0.01,-0.006,0.995,0,0,0.061, , , , , , ,-0.374,-0.489,-107.864
 09:35:58.835,eb:33:2e:f9:57:b5, 2015-01-01 00:24:36.205,0.009,-0.005,0.994,0,0,0.061, , , , , , ,-0.374,-0.489,-107.864
 09:35:58.835,eb:33:2e:f9:57:b5, 2015-01-01 00:24:36.205,0.009,-0.005,0.994,0,0,0, , , , , , ,-0.374,-0.489,-107.864
 09:35:58.835,eb:33:2e:f9:57:b5, 2015-01-01 00:24:36.205,0.009,-0.005,0.993,0,0,0.061, , , , , , ,-0.374,-0.489,-107.864
 09:35:58.835,eb:33:2e:f9:57:b5, 2015-01-01 00:24:36.205,0.01,-0.005,0.993,0,0.061,0, , , , , , ,-0.374,-0.489,-107.864
 09:35:58.835,eb:33:2e:f9:57:b5, 2015-01-01 00:24:36.205,0.009,-0.005,0.993,0,0.061,0, , , , , , ,-0.374,-0.489,-107.864
 09:35:58.835,eb:33:2e:f9:57:b5, 2015-01-01 00:24:36.205,0.01,-0.005,0.993,-0.061,0.061,0, , , , , , ,-0.374,-0.489,-107.864
 09:35:58.835,eb:33:2e:f9:57:b5, 2015-01-01 00:24:36.205,0.009,-0.005,0.993,0,0.061,0, , , , , , ,-0.374,-0.489,-107.864
 09:35:58.880,eb:33:2e:f9:57:b5, 2015-01-01 00:24:36.205,0.009,-0.004,0.993,0,0.061,0, , , , , , ,-0.374,-0.489,-107.864
 09:35:58.880,eb:33:2e:f9:57:b5, 2015-01-01 00:24:36.205,0.009,-0.004,0.993,-0.061,0.122,0, , , , , , ,-0.374,-0.489,-107.864
 09:35:58.880,eb:33:2e:f9:57:b5, 2015-01-01 00:24:36.205,0.008,-0.004,0.992,-0.122,0.122,-0.061, , , , , , ,-0.374,-0.489,-107.864
 09:35:58.880,eb:33:2e:f9:57:b5, 2015-01-01 00:24:36.205,0.008,-0.005,0.991,-0.061,0.061,-0.061, , , , , , ,-0.374,-0.489,-107.864
 09:35:58.880,eb:33:2e:f9:57:b5, 2015-01-01 00:24:36.205,0.009,-0.005,0.992,-0.122,0,0, , , , , , ,-0.374,-0.489,-107.864
 09:35:58.880,eb:33:2e:f9:57:b5, 2015-01-01 00:24:36.205,0.009,-0.006,0.992,-0.122,0,0, , , , , , ,-0.374,-0.489,-107.864
 09:35:58.880,eb:33:2e:f9:57:b5, 2015-01-01 00:24:36.205,0.009,-0.005,0.993,-0.122,0,0, , , , , , ,-0.374,-0.489,-107.864
 09:35:58.880,eb:33:2e:f9:57:b5, 2015-01-01 00:24:36.205,0.009,-0.005,0.992,-0.122,-0.061,0, , , , , , ,-0.374,-0.489,-107.864
 09:35:58.925,eb:33:2e:f9:57:b5, 2015-01-01 00:24:36.205,0.009,-0.006,0.993,-0.244,0,0, , , , , , ,-0.374,-0.489,-107.864
 09:35:58.925,eb:33:2e:f9:57:b5, 2015-01-01 00:24:36.205,0.009,-0.006,0.993,-0.244,0,-0.061, , , , , , ,-0.374,-0.489,-107.864
 09:35:58.925,eb:33:2e:f9:57:b5, 2015-01-01 00:24:36.205,0.008,-0.005,0.992,-0.244,-0.122,-0.061, , , , , , ,-0.374,-0.489,-107.864
 09:35:58.925,eb:33:2e:f9:57:b5, 2015-01-01 00:24:36.205,0.009,-0.005,0.991,-0.244,-0.061,-0.061, , , , , , ,-0.374,-0.489,-107.864
 09:35:58.925,eb:33:2e:f9:57:b5, 2015-01-01 00:24:36.205,0.009,-0.006,0.993,-0.244,-0.061,0, , , , , , ,-0.374,-0.489,-107.864
 09:35:58.925,eb:33:2e:f9:57:b5, 2015-01-01 00:24:36.205,0.01,-0.007,0.994,-0.183,0,0, , , , , , ,-0.374,-0.489,-107.864
 09:35:58.925,eb:33:2e:f9:57:b5, 2015-01-01 00:24:36.205,0.01,-0.007,0.995,-0.122,0,0, , , , , , ,-0.374,-0.489,-107.864
 09:35:58.925,eb:33:2e:f9:57:b5, 2015-01-01 00:24:36.205,0.009,-0.007,0.996,-0.122,0,0, , , , , , ,-0.374,-0.489,-107.864
 09:35:58.948,eb:33:2e:f9:57:b5, 2015-01-01 00:24:36.205,0.008,-0.006,0.995,-0.061,0.061,0, , , , , , ,-0.374,-0.489,-107.864
 09:35:58.948,eb:33:2e:f9:57:b5, 2015-01-01 00:24:36.205,0.008,-0.006,0.994,-0.061,0,0, , , , , , ,-0.374,-0.489,-107.864
 09:35:58.948,eb:33:2e:f9:57:b5, 2015-01-01 00:24:36.205,0.01,-0.006,0.994,0,0,0, , , , , , ,-0.374,-0.489,-107.864
 09:35:58.948,eb:33:2e:f9:57:b5, 2015-01-01 00:24:36.205,0.011,-0.006,0.994,-0.061,0,0, , , , , , ,-0.374,-0.489,-107.864
 09:35:58.948,eb:33:2e:f9:57:b5, 2015-01-01 00:24:36.205,0.01,-0.006,0.995,0,0,0, , , , , , ,-0.374,-0.489,-107.864
 09:35:58.948,eb:33:2e:f9:57:b5, 2015-01-01 00:24:36.205,0.008,-0.006,0.995,0,0.122,0, , , , , , ,-0.374,-0.489,-107.864
 09:35:58.948,eb:33:2e:f9:57:b5, 2015-01-01 00:24:36.205,0.008,-0.005,0.994,-0.061,0.061,0, , , , , , ,-0.374,-0.489,-107.864
 09:35:58.948,eb:33:2e:f9:57:b5, 2015-01-01 00:24:36.205,0.008,-0.005,0.994,-0.061,0.061,0, , , , , , ,-0.374,-0.489,-107.864
 09:35:58.995,eb:33:2e:f9:57:b5, 2015-01-01 00:24:36.205,0.007,-0.005,0.993,-0.061,0,-0.061, , , , , , ,-0.374,-0.489,-107.864
 09:35:58.996,eb:33:2e:f9:57:b5, 2015-01-01 00:24:36.205,0.007,-0.005,0.992,-0.122,0,0, , , , , , ,-0.374,-0.489,-107.864
 09:35:58.996,eb:33:2e:f9:57:b5, 2015-01-01 00:24:36.205,0.008,-0.005,0.991,-0.122,-0.061,0, , , , , , ,-0.374,-0.489,-107.864
 09:35:58.996,eb:33:2e:f9:57:b5, 2015-01-01 00:24:36.205,0.008,-0.005,0.991,-0.183,-0.061,0, , , , , , ,-0.374,-0.489,-107.864
 09:35:58.996,eb:33:2e:f9:57:b5, 2015-01-01 00:24:36.205,0.008,-0.006,0.993,-0.244,-0.122,0, , , , , , ,-0.374,-0.489,-107.864
 09:35:58.996,eb:33:2e:f9:57:b5, 2015-01-01 00:24:36.205,0.009,-0.005,0.992,-0.183,-0.183,0, , , , , , ,-0.374,-0.489,-107.864
 09:35:58.996,eb:33:2e:f9:57:b5, 2015-01-01 00:24:36.205,0.009,-0.006,0.993,-0.305,-0.183,0, , , , , , ,-0.374,-0.489,-107.864
 09:35:58.996,eb:33:2e:f9:57:b5, 2015-01-01 00:24:36.205,0.01,-0.006,0.993,-0.244,-0.122,-0.061, , , , , , ,-0.374,-0.489,-107.864
 09:35:59.038,eb:33:2e:f9:57:b5, 2015-01-01 00:24:36.205,0.009,-0.006,0.994,-0.244,-0.122,0, , , , , , ,-0.374,-0.489,-107.864
 09:35:59.038,eb:33:2e:f9:57:b5, 2015-01-01 00:24:36.205,0.009,-0.006,0.995,-0.244,-0.061,0, , , , , , ,-0.374,-0.489,-107.864
 09:35:59.038,eb:33:2e:f9:57:b5, 2015-01-01 00:24:36.205,0.009,-0.006,0.995,-0.183,0,0, , , , , , ,-0.374,-0.489,-107.864
 09:35:59.038,eb:33:2e:f9:57:b5, 2015-01-01 00:24:36.205,0.009,-0.006,0.995,-0.183,0,0, , , , , , ,-0.374,-0.489,-107.864
 09:35:59.038,eb:33:2e:f9:57:b5, 2015-01-01 00:24:36.205,0.01,-0.007,0.995,-0.122,0,0, , , , , , ,-0.374,-0.489,-107.864
 09:35:59.038,eb:33:2e:f9:57:b5, 2015-01-01 00:24:36.205,0.009,-0.007,0.994,-0.122,0,0, , , , , , ,-0.374,-0.489,-107.864
 09:35:59.038,eb:33:2e:f9:57:b5, 2015-01-01 00:24:36.205,0.008,-0.006,0.993,-0.122,0,0, , , , , , ,-0.374,-0.489,-107.864
 09:35:59.038,eb:33:2e:f9:57:b5, 2015-01-01 00:24:36.205,0.008,-0.007,0.993,-0.122,-0.061,0, , , , , , ,-0.374,-0.489,-107.864
 09:35:59.084,eb:33:2e:f9:57:b5, 2015-01-01 00:24:36.205,0.009,-0.007,0.994,-0.061,-0.061,0, , , , , , ,-0.374,-0.489,-107.864
 09:35:59.084,eb:33:2e:f9:57:b5, 2015-01-01 00:24:36.205,0.007,-0.007,0.994,-0.061,-0.061,0, , , , , , ,-0.374,-0.489,-107.864
 09:35:59.084,eb:33:2e:f9:57:b5, 2015-01-01 00:24:36.205,0.008,-0.005,0.992,-0.061,-0.183,0, , , , , , ,-0.374,-0.489,-107.858
 09:35:59.084,eb:33:2e:f9:57:b5, 2015-01-01 00:24:36.205,0.008,-0.006,0.992,-0.122,-0.244,0, , , , , , ,-0.374,-0.489,-107.858
 09:35:59.084,eb:33:2e:f9:57:b5, 2015-01-01 00:24:36.205,0.008,-0.007,0.993,-0.183,-0.305,0, , , , , , ,-0.374,-0.489,-107.858
 09:35:59.084,eb:33:2e:f9:57:b5, 2015-01-01 00:24:36.205,0.011,-0.006,0.993,-0.183,-0.305,0, , , , , , ,-0.374,-0.489,-107.858
 09:35:59.084,eb:33:2e:f9:57:b5, 2015-01-01 00:24:36.205,0.011,-0.006,0.994,-0.122,-0.244,0, , , , , , ,-0.374,-0.489,-107.858
 09:35:59.084,eb:33:2e:f9:57:b5, 2015-01-01 00:24:36.205,0.011,-0.005,0.995,-0.122,-0.122,0, , , , , , ,-0.374,-0.489,-107.858
 09:35:59.129,eb:33:2e:f9:57:b5, 2015-01-01 00:24:36.520,0.01,-0.006,0.995,-0.122,-0.061,0, , , , , , ,-0.374,-0.489,-107.858
 09:35:59.129,eb:33:2e:f9:57:b5, 2015-01-01 00:24:36.520,0.009,-0.006,0.994,-0.183,0,0, , , , , , ,-0.374,-0.489,-107.858
 09:35:59.129,eb:33:2e:f9:57:b5, 2015-01-01 00:24:36.520,0.009,-0.007,0.994,-0.122,0,0, , , , , , ,-0.374,-0.489,-107.858
 09:35:59.129,eb:33:2e:f9:57:b5, 2015-01-01 00:24:36.520,0.009,-0.007,0.994,-0.122,-0.061,0, , , , , , ,-0.374,-0.489,-107.858
 09:35:59.129,eb:33:2e:f9:57:b5, 2015-01-01 00:24:36.520,0.01,-0.007,0.994,-0.183,0,0, , , , , , ,-0.374,-0.489,-107.858
 09:35:59.129,eb:33:2e:f9:57:b5, 2015-01-01 00:24:36.520,0.009,-0.007,0.994,-0.122,0,0, , , , , , ,-0.374,-0.489,-107.858
 09:35:59.129,eb:33:2e:f9:57:b5, 2015-01-01 00:24:36.520,0.009,-0.006,0.993,-0.061,0,0, , , , , , ,-0.374,-0.489,-107.858
 09:35:59.129,eb:33:2e:f9:57:b5, 2015-01-01 00:24:36.520,0.009,-0.006,0.993,-0.061,-0.061,0, , , , , , ,-0.374,-0.489,-107.858
 09:35:59.152,eb:33:2e:f9:57:b5, 2015-01-01 00:24:36.520,0.011,-0.008,0.993,-0.061,-0.061,0, , , , , , ,-0.374,-0.489,-107.858
 09:35:59.152,eb:33:2e:f9:57:b5, 2015-01-01 00:24:36.520,0.01,-0.008,0.996,0,0,0, , , , , , ,-0.374,-0.489,-107.858
 09:35:59.152,eb:33:2e:f9:57:b5, 2015-01-01 00:24:36.520,0.009,-0.007,0.996,0,0,0, , , , , , ,-0.374,-0.489,-107.858
 09:35:59.152,eb:33:2e:f9:57:b5, 2015-01-01 00:24:36.520,0.009,-0.007,0.992,0,0,0, , , , , , ,-0.374,-0.489,-107.858
 09:35:59.152,eb:33:2e:f9:57:b5, 2015-01-01 00:24:36.520,0.009,-0.006,0.993,0,0,0, , , , , , ,-0.374,-0.489,-107.858
 09:35:59.152,eb:33:2e:f9:57:b5, 2015-01-01 00:24:36.520,0.008,-0.006,0.992,-0.061,-0.122,0, , , , , , ,-0.374,-0.489,-107.858
 09:35:59.152,eb:33:2e:f9:57:b5, 2015-01-01 00:24:36.520,0.008,-0.007,0.993,-0.061,-0.244,-0.061, , , , , , ,-0.374,-0.489,-107.858
 09:35:59.152,eb:33:2e:f9:57:b5, 2015-01-01 00:24:36.520,0.009,-0.008,0.994,-0.061,-0.183,0, , , , , , ,-0.374,-0.489,-107.858
 09:35:59.196,eb:33:2e:f9:57:b5, 2015-01-01 00:24:36.520,0.009,-0.007,0.995,-0.061,-0.183,0, , , , , , ,-0.374,-0.489,-107.858
 09:35:59.196,eb:33:2e:f9:57:b5, 2015-01-01 00:24:36.520,0.009,-0.007,0.995,0,-0.122,0, , , , , , ,-0.374,-0.489,-107.858
 09:35:59.196,eb:33:2e:f9:57:b5, 2015-01-01 00:24:36.520,0.011,-0.006,0.994,0,-0.183,0, , , , , , ,-0.374,-0.489,-107.858
 09:35:59.196,eb:33:2e:f9:57:b5, 2015-01-01 00:24:36.520,0.011,-0.007,0.995,0,-0.122,0.061, , , , , , ,-0.374,-0.489,-107.858
 09:35:59.196,eb:33:2e:f9:57:b5, 2015-01-01 00:24:36.520,0.01,-0.007,0.995,0,0,0.061, , , , , , ,-0.374,-0.489,-107.858
 09:35:59.196,eb:33:2e:f9:57:b5, 2015-01-01 00:24:36.520,0.009,-0.008,0.994,0,0,0, , , , , , ,-0.374,-0.489,-107.858
 09:35:59.196,eb:33:2e:f9:57:b5, 2015-01-01 00:24:36.520,0.009,-0.007,0.993,0,0,0.061, , , , , , ,-0.374,-0.489,-107.858
 09:35:59.196,eb:33:2e:f9:57:b5, 2015-01-01 00:24:36.520,0.009,-0.007,0.992,0,0,0.061, , , , , , ,-0.374,-0.489,-107.858
 09:35:59.240,eb:33:2e:f9:57:b5, 2015-01-01 00:24:36.520,0.009,-0.006,0.992,0,0,0.061, , , , , , ,-0.374,-0.489,-107.858
 09:35:59.240,eb:33:2e:f9:57:b5, 2015-01-01 00:24:36.520,0.009,-0.007,0.993,0,0,0, , , , , , ,-0.374,-0.489,-107.858
 09:35:59.240,eb:33:2e:f9:57:b5, 2015-01-01 00:24:36.520,0.009,-0.007,0.993,0,0,0, , , , , , ,-0.374,-0.489,-107.858
 09:35:59.240,eb:33:2e:f9:57:b5, 2015-01-01 00:24:36.520,0.009,-0.007,0.993,-0.061,-0.061,0, , , , , , ,-0.374,-0.489,-107.858
 09:35:59.240,eb:33:2e:f9:57:b5, 2015-01-01 00:24:36.520,0.01,-0.007,0.993,0,-0.061,0, , , , , , ,-0.374,-0.494,-107.858
 09:35:59.240,eb:33:2e:f9:57:b5, 2015-01-01 00:24:36.520,0.01,-0.008,0.994,0,-0.122,0, , , , , , ,-0.374,-0.494,-107.858
 09:35:59.240,eb:33:2e:f9:57:b5, 2015-01-01 00:24:36.520,0.009,-0.007,0.993,0,-0.122,0, , , , , , ,-0.374,-0.494,-107.858
 09:35:59.240,eb:33:2e:f9:57:b5, 2015-01-01 00:24:36.520,0.01,-0.006,0.992,0,-0.122,0, , , , , , ,-0.374,-0.494,-107.858
 09:35:59.287,eb:33:2e:f9:57:b5, 2015-01-01 00:24:36.520,0.011,-0.006,0.991,0,-0.183,0, , , , , , ,-0.374,-0.494,-107.858
 09:35:59.287,eb:33:2e:f9:57:b5, 2015-01-01 00:24:36.520,0.011,-0.006,0.992,0,-0.122,0, , , , , , ,-0.374,-0.494,-107.858
 09:35:59.287,eb:33:2e:f9:57:b5, 2015-01-01 00:24:36.520,0.011,-0.007,0.994,0,-0.061,0, , , , , , ,-0.374,-0.494,-107.858
 09:35:59.287,eb:33:2e:f9:57:b5, 2015-01-01 00:24:36.520,0.009,-0.008,0.995,0,0,0, , , , , , ,-0.374,-0.494,-107.858
 09:35:59.287,eb:33:2e:f9:57:b5, 2015-01-01 00:24:36.520,0.009,-0.006,0.993,0,-0.061,0, , , , , , ,-0.374,-0.494,-107.858
 09:35:59.287,eb:33:2e:f9:57:b5, 2015-01-01 00:24:36.520,0.01,-0.006,0.991,-0.061,-0.122,0, , , , , , ,-0.374,-0.494,-107.858
 09:35:59.287,eb:33:2e:f9:57:b5, 2015-01-01 00:24:36.520,0.009,-0.006,0.991,-0.122,-0.183,0, , , , , , ,-0.374,-0.494,-107.858
 09:35:59.287,eb:33:2e:f9:57:b5, 2015-01-01 00:24:36.520,0.01,-0.006,0.992,-0.122,-0.183,0, , , , , , ,-0.374,-0.494,-107.858
 09:35:59.376,eb:33:2e:f9:57:b5, 2015-01-01 00:24:36.520,0.01,-0.007,0.992,-0.122,-0.305,-0.061, , , , , , ,-0.374,-0.494,-107.858
 09:35:59.376,eb:33:2e:f9:57:b5, 2015-01-01 00:24:36.520,0.011,-0.007,0.993,-0.122,-0.305,-0.061, , , , , , ,-0.374,-0.494,-107.858
 09:35:59.376,eb:33:2e:f9:57:b5, 2015-01-01 00:24:36.520,0.01,-0.007,0.995,-0.122,-0.244,-0.061, , , , , , ,-0.374,-0.494,-107.858
 09:35:59.376,eb:33:2e:f9:57:b5, 2015-01-01 00:24:36.520,0.011,-0.008,0.995,-0.122,-0.183,-0.061, , , , , , ,-0.374,-0.494,-107.858
 09:35:59.376,eb:33:2e:f9:57:b5, 2015-01-01 00:24:36.520,0.011,-0.009,0.994,-0.122,-0.122,0, , , , , , ,-0.374,-0.494,-107.858
 09:35:59.376,eb:33:2e:f9:57:b5, 2015-01-01 00:24:36.520,0.01,-0.008,0.995,-0.061,-0.122,0, , , , , , ,-0.374,-0.494,-107.858
 09:35:59.376,eb:33:2e:f9:57:b5, 2015-01-01 00:24:36.520,0.008,-0.007,0.995,-0.061,-0.061,0, , , , , , ,-0.374,-0.494,-107.858
 09:35:59.376,eb:33:2e:f9:57:b5, 2015-01-01 00:24:36.520,0.009,-0.008,0.993,-0.061,-0.122,-0.061, , , , , , ,-0.374,-0.494,-107.858
 09:35:59.379,eb:33:2e:f9:57:b5, 2015-01-01 00:24:36.520,0.009,-0.007,0.993,-0.061,-0.122,0, , , , , , ,-0.374,-0.494,-107.858
 09:35:59.379,eb:33:2e:f9:57:b5, 2015-01-01 00:24:36.520,0.011,-0.006,0.993,-0.122,-0.183,0, , , , , , ,-0.374,-0.494,-107.858
 09:35:59.379,eb:33:2e:f9:57:b5, 2015-01-01 00:24:36.520,0.01,-0.007,0.993,-0.122,-0.122,0, , , , , , ,-0.374,-0.494,-107.858
 09:35:59.379,eb:33:2e:f9:57:b5, 2015-01-01 00:24:36.520,0.01,-0.008,0.995,-0.122,-0.061,0, , , , , , ,-0.374,-0.494,-107.858
 09:35:59.379,eb:33:2e:f9:57:b5, 2015-01-01 00:24:36.520,0.01,-0.007,0.994,-0.183,-0.122,0, , , , , , ,-0.374,-0.494,-107.858
 09:35:59.379,eb:33:2e:f9:57:b5, 2015-01-01 00:24:36.520,0.01,-0.007,0.993,-0.122,-0.122,-0.061, , , , , , ,-0.374,-0.494,-107.858
 09:35:59.379,eb:33:2e:f9:57:b5, 2015-01-01 00:24:36.520,0.011,-0.007,0.992,-0.061,-0.183,-0.061, , , , , , ,-0.374,-0.494,-107.858
 09:35:59.379,eb:33:2e:f9:57:b5, 2015-01-01 00:24:36.520,0.011,-0.008,0.994,-0.122,-0.183,-0.061, , , , , , ,-0.374,-0.494,-107.858
 09:35:59.399,eb:33:2e:f9:57:b5, 2015-01-01 00:24:36.520,0.009,-0.007,0.994,-0.122,-0.061,-0.061, , , , , , ,-0.374,-0.494,-107.858
 09:35:59.399,eb:33:2e:f9:57:b5, 2015-01-01 00:24:36.520,0.01,-0.007,0.993,-0.061,-0.122,0, , , , , , ,-0.374,-0.494,-107.858
 09:35:59.399,eb:33:2e:f9:57:b5, 2015-01-01 00:24:36.520,0.009,-0.007,0.993,0,-0.122,-0.061, , , , , , ,-0.374,-0.494,-107.858
 09:35:59.399,eb:33:2e:f9:57:b5, 2015-01-01 00:24:36.520,0.009,-0.008,0.994,-0.061,-0.244,-0.061, , , , , , ,-0.374,-0.494,-107.858
 09:35:59.399,eb:33:2e:f9:57:b5, 2015-01-01 00:24:36.520,0.009,-0.008,0.994,-0.061,-0.244,-0.061, , , , , , ,-0.374,-0.494,-107.858
 09:35:59.399,eb:33:2e:f9:57:b5, 2015-01-01 00:24:36.520,0.011,-0.007,0.993,-0.122,-0.305,-0.122, , , , , , ,-0.374,-0.494,-107.858
 09:35:59.399,eb:33:2e:f9:57:b5, 2015-01-01 00:24:36.520,0.011,-0.007,0.993,-0.061,-0.305,-0.061, , , , , , ,-0.374,-0.494,-107.858
 09:35:59.399,eb:33:2e:f9:57:b5, 2015-01-01 00:24:36.520,0.009,-0.007,0.993,-0.122,-0.244,-0.122, , , , , , ,-0.374,-0.494,-107.858
 09:35:59.487,eb:33:2e:f9:57:b5, 2015-01-01 00:24:36.520,0.009,-0.008,0.992,-0.122,-0.305,-0.061, , , , , , ,-0.374,-0.494,-107.858
 09:35:59.487,eb:33:2e:f9:57:b5, 2015-01-01 00:24:36.520,0.01,-0.008,0.992,-0.183,-0.305,-0.122, , , , , , ,-0.374,-0.494,-107.858
 09:35:59.487,eb:33:2e:f9:57:b5, 2015-01-01 00:24:36.520,0.01,-0.007,0.993,-0.244,-0.305,-0.122, , , , , , ,-0.374,-0.494,-107.858
 09:35:59.487,eb:33:2e:f9:57:b5, 2015-01-01 00:24:36.520,0.01,-0.008,0.993,-0.244,-0.305,-0.122, , , , , , ,-0.374,-0.494,-107.858
 09:35:59.487,eb:33:2e:f9:57:b5, 2015-01-01 00:24:36.520,0.009,-0.008,0.992,-0.244,-0.305,-0.061, , , , , , ,-0.374,-0.494,-107.858
 09:35:59.487,eb:33:2e:f9:57:b5, 2015-01-01 00:24:36.520,0.011,-0.012,0.994,-0.183,-0.427,0, , , , , , ,-0.374,-0.494,-107.858
 09:35:59.487,eb:33:2e:f9:57:b5, 2015-01-01 00:24:36.520,0.012,-0.011,0.995,-0.122,-0.366,0, , , , , , ,-0.374,-0.494,-107.858
 09:35:59.487,eb:33:2e:f9:57:b5, 2015-01-01 00:24:36.520,0.01,-0.011,0.996,0,-0.244,0, , , , , , ,-0.374,-0.494,-107.858
 09:35:59.490,eb:33:2e:f9:57:b5, 2015-01-01 00:24:36.855,0.011,-0.009,0.995,0,-0.183,0, , , , , , ,-0.379,-0.5,-107.858
 09:35:59.490,eb:33:2e:f9:57:b5, 2015-01-01 00:24:36.855,0.009,-0.007,0.994,0,-0.244,0, , , , , , ,-0.379,-0.5,-107.858
 09:35:59.490,eb:33:2e:f9:57:b5, 2015-01-01 00:24:36.855,0.008,-0.008,0.992,0,-0.366,0, , , , , , ,-0.379,-0.5,-107.858
 09:35:59.490,eb:33:2e:f9:57:b5, 2015-01-01 00:24:36.855,0.011,-0.008,0.993,0,-0.488,0, , , , , , ,-0.379,-0.5,-107.858
 09:35:59.490,eb:33:2e:f9:57:b5, 2015-01-01 00:24:36.855,0.011,-0.007,0.993,0,-0.427,0, , , , , , ,-0.379,-0.5,-107.858
 09:35:59.490,eb:33:2e:f9:57:b5, 2015-01-01 00:24:36.855,0.011,-0.008,0.992,0,-0.427,0, , , , , , ,-0.379,-0.5,-107.858
 09:35:59.490,eb:33:2e:f9:57:b5, 2015-01-01 00:24:36.855,0.012,-0.008,0.993,0,-0.427,0, , , , , , ,-0.379,-0.5,-107.858
 09:35:59.490,eb:33:2e:f9:57:b5, 2015-01-01 00:24:36.855,0.013,-0.007,0.994,-0.061,-0.427,-0.061, , , , , , ,-0.379,-0.5,-107.858
 09:35:59.533,eb:33:2e:f9:57:b5, 2015-01-01 00:24:36.855,0.012,-0.007,0.993,-0.061,-0.366,0, , , , , , ,-0.379,-0.5,-107.858
 09:35:59.533,eb:33:2e:f9:57:b5, 2015-01-01 00:24:36.855,0.011,-0.006,0.993,-0.122,-0.305,0, , , , , , ,-0.379,-0.5,-107.858
 09:35:59.533,eb:33:2e:f9:57:b5, 2015-01-01 00:24:36.855,0.011,-0.007,0.993,-0.183,-0.305,-0.061, , , , , , ,-0.379,-0.5,-107.858
 09:35:59.533,eb:33:2e:f9:57:b5, 2015-01-01 00:24:36.855,0.011,-0.007,0.994,-0.183,-0.305,0, , , , , , ,-0.379,-0.5,-107.858
 09:35:59.533,eb:33:2e:f9:57:b5, 2015-01-01 00:24:36.855,0.012,-0.008,0.995,-0.122,-0.183,-0.061, , , , , , ,-0.379,-0.5,-107.858
 09:35:59.533,eb:33:2e:f9:57:b5, 2015-01-01 00:24:36.855,0.01,-0.007,0.995,-0.183,-0.122,-0.061, , , , , , ,-0.379,-0.5,-107.858
 09:35:59.533,eb:33:2e:f9:57:b5, 2015-01-01 00:24:36.855,0.01,-0.008,0.994,-0.122,-0.183,-0.061, , , , , , ,-0.379,-0.5,-107.858
 09:35:59.533,eb:33:2e:f9:57:b5, 2015-01-01 00:24:36.855,0.01,-0.008,0.993,-0.183,-0.244,-0.061, , , , , , ,-0.379,-0.5,-107.858
 09:35:59.555,eb:33:2e:f9:57:b5, 2015-01-01 00:24:36.855,0.011,-0.009,0.993,-0.183,-0.305,-0.061, , , , , , ,-0.379,-0.5,-107.858
 09:35:59.555,eb:33:2e:f9:57:b5, 2015-01-01 00:24:36.855,0.011,-0.008,0.993,-0.183,-0.244,-0.061, , , , , , ,-0.379,-0.5,-107.858
 09:35:59.555,eb:33:2e:f9:57:b5, 2015-01-01 00:24:36.855,0.01,-0.008,0.993,-0.183,-0.366,-0.122, , , , , , ,-0.379,-0.5,-107.858
 09:35:59.555,eb:33:2e:f9:57:b5, 2015-01-01 00:24:36.855,0.011,-0.008,0.993,-0.183,-0.305,0, , , , , , ,-0.379,-0.5,-107.858
 09:35:59.555,eb:33:2e:f9:57:b5, 2015-01-01 00:24:36.855,0.01,-0.008,0.994,-0.244,-0.366,-0.061, , , , , , ,-0.379,-0.5,-107.858
 09:35:59.555,eb:33:2e:f9:57:b5, 2015-01-01 00:24:36.855,0.013,-0.008,0.995,-0.183,-0.427,-0.061, , , , , , ,-0.379,-0.5,-107.858
 09:35:59.555,eb:33:2e:f9:57:b5, 2015-01-01 00:24:36.855,0.011,-0.011,0.997,-0.122,-0.244,-0.122, , , , , , ,-0.379,-0.5,-107.858
 09:35:59.555,eb:33:2e:f9:57:b5, 2015-01-01 00:24:36.855,0.014,-0.01,0.994,0,-0.183,0, , , , , , ,-0.379,-0.5,-107.858
 09:35:59.600,eb:33:2e:f9:57:b5, 2015-01-01 00:24:36.855,0.01,-0.009,0.997,0.061,-0.061,0, , , , , , ,-0.379,-0.5,-107.858
 09:35:59.600,eb:33:2e:f9:57:b5, 2015-01-01 00:24:36.855,0.01,-0.01,0.994,0.061,-0.122,0, , , , , , ,-0.379,-0.5,-107.858
 09:35:59.600,eb:33:2e:f9:57:b5, 2015-01-01 00:24:36.855,0.011,-0.009,0.995,0.122,-0.183,0, , , , , , ,-0.379,-0.5,-107.858
 09:35:59.600,eb:33:2e:f9:57:b5, 2015-01-01 00:24:36.855,0.011,-0.009,0.994,0.183,-0.061,0, , , , , , ,-0.379,-0.5,-107.858
 09:35:59.601,eb:33:2e:f9:57:b5, 2015-01-01 00:24:36.855,0.011,-0.008,0.994,0.183,-0.183,0, , , , , , ,-0.379,-0.5,-107.858
 09:35:59.601,eb:33:2e:f9:57:b5, 2015-01-01 00:24:36.855,0.01,-0.007,0.993,0.183,-0.183,0, , , , , , ,-0.379,-0.5,-107.858
 09:35:59.601,eb:33:2e:f9:57:b5, 2015-01-01 00:24:36.855,0.012,-0.006,0.992,0.122,-0.244,0, , , , , , ,-0.379,-0.5,-107.858
 09:35:59.601,eb:33:2e:f9:57:b5, 2015-01-01 00:24:36.855,0.013,-0.006,0.993,0.122,-0.244,0, , , , , , ,-0.379,-0.5,-107.858
 09:35:59.646,eb:33:2e:f9:57:b5, 2015-01-01 00:24:36.855,0.012,-0.007,0.993,0.122,-0.122,0, , , , , , ,-0.379,-0.505,-107.858
 09:35:59.646,eb:33:2e:f9:57:b5, 2015-01-01 00:24:36.855,0.011,-0.007,0.992,0.061,-0.061,0, , , , , , ,-0.379,-0.505,-107.858
 09:35:59.646,eb:33:2e:f9:57:b5, 2015-01-01 00:24:36.855,0.012,-0.008,0.992,0,-0.122,0, , , , , , ,-0.379,-0.505,-107.858
 09:35:59.646,eb:33:2e:f9:57:b5, 2015-01-01 00:24:36.855,0.012,-0.008,0.994,0,-0.061,-0.061, , , , , , ,-0.379,-0.505,-107.858
 09:35:59.646,eb:33:2e:f9:57:b5, 2015-01-01 00:24:36.855,0.01,-0.008,0.994,0,-0.061,0, , , , , , ,-0.379,-0.505,-107.858
 09:35:59.646,eb:33:2e:f9:57:b5, 2015-01-01 00:24:36.855,0.009,-0.008,0.993,0,-0.122,0, , , , , , ,-0.379,-0.505,-107.858
 09:35:59.646,eb:33:2e:f9:57:b5, 2015-01-01 00:24:36.855,0.011,-0.008,0.992,0,-0.183,0, , , , , , ,-0.379,-0.505,-107.858
 09:35:59.646,eb:33:2e:f9:57:b5, 2015-01-01 00:24:36.855,0.012,-0.008,0.993,0,-0.244,0, , , , , , ,-0.379,-0.505,-107.858
 09:35:59.691,eb:33:2e:f9:57:b5, 2015-01-01 00:24:36.855,0.012,-0.009,0.993,0,-0.183,0, , , , , , ,-0.379,-0.505,-107.858
 09:35:59.691,eb:33:2e:f9:57:b5, 2015-01-01 00:24:36.855,0.013,-0.009,0.994,0,-0.122,0, , , , , , ,-0.379,-0.505,-107.858
 09:35:59.691,eb:33:2e:f9:57:b5, 2015-01-01 00:24:36.855,0.012,-0.008,0.995,0,-0.122,0, , , , , , ,-0.379,-0.505,-107.858
 09:35:59.691,eb:33:2e:f9:57:b5, 2015-01-01 00:24:36.855,0.013,-0.008,0.994,0,-0.061,-0.061, , , , , , ,-0.379,-0.505,-107.858
 09:35:59.691,eb:33:2e:f9:57:b5, 2015-01-01 00:24:36.855,0.014,-0.009,0.995,0.061,0,-0.061, , , , , , ,-0.385,-0.505,-107.858
 09:35:59.691,eb:33:2e:f9:57:b5, 2015-01-01 00:24:36.855,0.013,-0.008,0.995,0.061,0.122,0, , , , , , ,-0.385,-0.505,-107.858
 09:35:59.691,eb:33:2e:f9:57:b5, 2015-01-01 00:24:36.855,0.012,-0.008,0.993,0,0.061,0, , , , , , ,-0.385,-0.505,-107.858
 09:35:59.691,eb:33:2e:f9:57:b5, 2015-01-01 00:24:36.855,0.012,-0.008,0.993,0,0.061,-0.061, , , , , , ,-0.385,-0.505,-107.858
 09:35:59.737,eb:33:2e:f9:57:b5, 2015-01-01 00:24:36.855,0.012,-0.008,0.993,0,0,-0.061, , , , , , ,-0.385,-0.505,-107.858
 09:35:59.737,eb:33:2e:f9:57:b5, 2015-01-01 00:24:36.855,0.013,-0.008,0.993,0,0,-0.061, , , , , , ,-0.385,-0.505,-107.858
 09:35:59.737,eb:33:2e:f9:57:b5, 2015-01-01 00:24:36.855,0.012,-0.009,0.995,0,0,-0.061, , , , , , ,-0.385,-0.505,-107.858
 09:35:59.737,eb:33:2e:f9:57:b5, 2015-01-01 00:24:36.855,0.011,-0.009,0.995,0.061,0,-0.061, , , , , , ,-0.385,-0.505,-107.858
 09:35:59.737,eb:33:2e:f9:57:b5, 2015-01-01 00:24:36.855,0.01,-0.009,0.994,0.122,0,-0.061, , , , , , ,-0.385,-0.511,-107.858
 09:35:59.737,eb:33:2e:f9:57:b5, 2015-01-01 00:24:36.855,0.011,-0.009,0.994,0.122,0,-0.061, , , , , , ,-0.385,-0.511,-107.858
 09:35:59.737,eb:33:2e:f9:57:b5, 2015-01-01 00:24:36.855,0.011,-0.01,0.994,0.122,0,0, , , , , , ,-0.385,-0.511,-107.858
 09:35:59.737,eb:33:2e:f9:57:b5, 2015-01-01 00:24:36.855,0.013,-0.01,0.994,0.122,0,0, , , , , , ,-0.385,-0.511,-107.858
 09:35:59.759,eb:33:2e:f9:57:b5, 2015-01-01 00:24:36.855,0.012,-0.01,0.995,0.122,0.061,0, , , , , , ,-0.385,-0.511,-107.858
 09:35:59.759,eb:33:2e:f9:57:b5, 2015-01-01 00:24:36.855,0.011,-0.009,0.995,0.122,0.183,0, , , , , , ,-0.385,-0.511,-107.858
 09:35:59.759,eb:33:2e:f9:57:b5, 2015-01-01 00:24:36.855,0.011,-0.009,0.993,0.183,0.183,0.061, , , , , , ,-0.385,-0.511,-107.858
 09:35:59.759,eb:33:2e:f9:57:b5, 2015-01-01 00:24:36.855,0.01,-0.009,0.993,0.183,0.122,0.061, , , , , , ,-0.385,-0.511,-107.858
 09:35:59.759,eb:33:2e:f9:57:b5, 2015-01-01 00:24:36.855,0.012,-0.009,0.993,0.183,0.122,0, , , , , , ,-0.385,-0.511,-107.858
 09:35:59.759,eb:33:2e:f9:57:b5, 2015-01-01 00:24:36.855,0.013,-0.009,0.994,0.183,0.122,0, , , , , , ,-0.385,-0.511,-107.858
 09:35:59.759,eb:33:2e:f9:57:b5, 2015-01-01 00:24:36.855,0.011,-0.008,0.994,0.183,0.122,0, , , , , , ,-0.385,-0.511,-107.858
 09:35:59.759,eb:33:2e:f9:57:b5, 2015-01-01 00:24:36.855,0.011,-0.008,0.994,0.183,0.122,0, , , , , , ,-0.385,-0.511,-107.858
 09:35:59.803,eb:33:2e:f9:57:b5, 2015-01-01 00:24:36.855,0.011,-0.008,0.992,0.183,0,0, , , , , , ,-0.385,-0.511,-107.858
 09:35:59.803,eb:33:2e:f9:57:b5, 2015-01-01 00:24:36.855,0.012,-0.007,0.992,0.122,0,0, , , , , , ,-0.385,-0.511,-107.858
 09:35:59.803,eb:33:2e:f9:57:b5, 2015-01-01 00:24:36.855,0.012,-0.007,0.992,0.061,0,0, , , , , , ,-0.385,-0.511,-107.858
 09:35:59.803,eb:33:2e:f9:57:b5, 2015-01-01 00:24:36.855,0.011,-0.008,0.993,0.061,0,0, , , , , , ,-0.385,-0.511,-107.858
 09:35:59.803,eb:33:2e:f9:57:b5, 2015-01-01 00:24:36.855,0.01,-0.009,0.993,0.122,0,0, , , , , , ,-0.385,-0.511,-107.858
 09:35:59.803,eb:33:2e:f9:57:b5, 2015-01-01 00:24:36.855,0.011,-0.009,0.993,0.061,-0.061,-0.061, , , , , , ,-0.385,-0.511,-107.858
 09:35:59.803,eb:33:2e:f9:57:b5, 2015-01-01 00:24:36.855,0.011,-0.009,0.993,0.122,-0.122,0, , , , , , ,-0.385,-0.511,-107.858
 09:35:59.803,eb:33:2e:f9:57:b5, 2015-01-01 00:24:36.855,0.013,-0.009,0.994,0.122,-0.122,0, , , , , , ,-0.385,-0.511,-107.858
 09:35:59.849,eb:33:2e:f9:57:b5, 2015-01-01 00:24:37.210,0.011,-0.008,0.994,0.183,-0.183,0, , , , , , ,-0.385,-0.511,-107.858
 09:35:59.849,eb:33:2e:f9:57:b5, 2015-01-01 00:24:37.210,0.012,-0.008,0.993,0.183,-0.122,0, , , , , , ,-0.385,-0.511,-107.858
 09:35:59.849,eb:33:2e:f9:57:b5, 2015-01-01 00:24:37.210,0.012,-0.006,0.993,0.061,-0.183,0, , , , , , ,-0.385,-0.511,-107.858
 09:35:59.849,eb:33:2e:f9:57:b5, 2015-01-01 00:24:37.210,0.013,-0.007,0.993,0,-0.183,0, , , , , , ,-0.385,-0.511,-107.858
 09:35:59.849,eb:33:2e:f9:57:b5, 2015-01-01 00:24:37.210,0.013,-0.008,0.994,0,-0.122,0, , , , , , ,-0.39,-0.516,-107.858
 09:35:59.849,eb:33:2e:f9:57:b5, 2015-01-01 00:24:37.210,0.013,-0.009,0.995,0,0,0, , , , , , ,-0.39,-0.516,-107.858
 09:35:59.849,eb:33:2e:f9:57:b5, 2015-01-01 00:24:37.210,0.013,-0.01,0.996,0.061,0.061,0, , , , , , ,-0.39,-0.516,-107.858
 09:35:59.849,eb:33:2e:f9:57:b5, 2015-01-01 00:24:37.210,0.013,-0.009,0.995,0.061,0.061,0, , , , , , ,-0.39,-0.516,-107.858
 09:35:59.894,eb:33:2e:f9:57:b5, 2015-01-01 00:24:37.210,0.013,-0.009,0.995,0.183,0.122,0, , , , , , ,-0.39,-0.516,-107.858
 09:35:59.894,eb:33:2e:f9:57:b5, 2015-01-01 00:24:37.210,0.012,-0.009,0.995,0.183,0.183,0, , , , , , ,-0.39,-0.516,-107.858
 09:35:59.894,eb:33:2e:f9:57:b5, 2015-01-01 00:24:37.210,0.011,-0.009,0.995,0.244,0.183,0, , , , , , ,-0.39,-0.516,-107.858
 09:35:59.894,eb:33:2e:f9:57:b5, 2015-01-01 00:24:37.210,0.01,-0.008,0.993,0.183,0.122,0.061, , , , , , ,-0.39,-0.516,-107.858
 09:35:59.894,eb:33:2e:f9:57:b5, 2015-01-01 00:24:37.210,0.011,-0.008,0.992,0.183,0.061,0, , , , , , ,-0.39,-0.516,-107.858
 09:35:59.894,eb:33:2e:f9:57:b5, 2015-01-01 00:24:37.210,0.011,-0.008,0.992,0.183,0,0, , , , , , ,-0.39,-0.516,-107.858
 09:35:59.894,eb:33:2e:f9:57:b5, 2015-01-01 00:24:37.210,0.012,-0.008,0.993,0.183,0,0, , , , , , ,-0.39,-0.516,-107.858
 09:35:59.894,eb:33:2e:f9:57:b5, 2015-01-01 00:24:37.210,0.013,-0.008,0.995,0.183,-0.061,0, , , , , , ,-0.39,-0.516,-107.858
 09:35:59.917,eb:33:2e:f9:57:b5, 2015-01-01 00:24:37.210,0.011,-0.009,0.994,0.183,-0.061,0, , , , , , ,-0.39,-0.516,-107.858
 09:35:59.917,eb:33:2e:f9:57:b5, 2015-01-01 00:24:37.210,0.013,-0.009,0.994,0.244,-0.061,0, , , , , , ,-0.39,-0.516,-107.858
 09:35:59.917,eb:33:2e:f9:57:b5, 2015-01-01 00:24:37.210,0.013,-0.008,0.994,0.244,-0.061,0, , , , , , ,-0.39,-0.516,-107.858
 09:35:59.917,eb:33:2e:f9:57:b5, 2015-01-01 00:24:37.210,0.013,-0.008,0.993,0.244,0,0, , , , , , ,-0.39,-0.516,-107.858
 09:35:59.917,eb:33:2e:f9:57:b5, 2015-01-01 00:24:37.210,0.012,-0.008,0.994,0.244,0,0.061, , , , , , ,-0.39,-0.516,-107.858
 09:35:59.917,eb:33:2e:f9:57:b5, 2015-01-01 00:24:37.210,0.013,-0.008,0.994,0.183,0,0, , , , , , ,-0.39,-0.516,-107.858
 09:35:59.917,eb:33:2e:f9:57:b5, 2015-01-01 00:24:37.210,0.011,-0.008,0.994,0.244,0,0, , , , , , ,-0.39,-0.516,-107.858
 09:35:59.917,eb:33:2e:f9:57:b5, 2015-01-01 00:24:37.210,0.012,-0.007,0.993,0.183,0.061,0, , , , , , ,-0.39,-0.516,-107.858
 09:35:59.960,eb:33:2e:f9:57:b5, 2015-01-01 00:24:37.210,0.012,-0.007,0.993,0.183,0.061,0, , , , , , ,-0.39,-0.516,-107.858
 09:35:59.960,eb:33:2e:f9:57:b5, 2015-01-01 00:24:37.210,0.011,-0.008,0.994,0.122,0,0, , , , , , ,-0.39,-0.516,-107.858
 09:35:59.960,eb:33:2e:f9:57:b5, 2015-01-01 00:24:37.210,0.011,-0.008,0.994,0.183,0,0, , , , , , ,-0.39,-0.516,-107.858
 09:35:59.960,eb:33:2e:f9:57:b5, 2015-01-01 00:24:37.210,0.01,-0.008,0.993,0.183,0,0, , , , , , ,-0.39,-0.516,-107.858
 09:35:59.960,eb:33:2e:f9:57:b5, 2015-01-01 00:24:37.210,0.012,-0.008,0.993,0.183,-0.061,0, , , , , , ,-0.39,-0.522,-107.858
 09:35:59.960,eb:33:2e:f9:57:b5, 2015-01-01 00:24:37.210,0.012,-0.008,0.993,0.183,-0.061,0, , , , , , ,-0.39,-0.522,-107.858
 09:35:59.960,eb:33:2e:f9:57:b5, 2015-01-01 00:24:37.210,0.012,-0.01,0.994,0.122,-0.122,0, , , , , , ,-0.39,-0.522,-107.858
 09:35:59.960,eb:33:2e:f9:57:b5, 2015-01-01 00:24:37.210,0.013,-0.009,0.995,0.183,-0.183,-0.061, , , , , , ,-0.39,-0.522,-107.858
 09:36:00.006,eb:33:2e:f9:57:b5, 2015-01-01 00:24:37.210,0.013,-0.009,0.994,0.183,-0.122,0, , , , , , ,-0.39,-0.522,-107.858
 09:36:00.006,eb:33:2e:f9:57:b5, 2015-01-01 00:24:37.210,0.013,-0.008,0.994,0.183,-0.061,0, , , , , , ,-0.39,-0.522,-107.858
 09:36:00.006,eb:33:2e:f9:57:b5, 2015-01-01 00:24:37.210,0.013,-0.008,0.994,0.183,-0.061,-0.061, , , , , , ,-0.39,-0.522,-107.858
 09:36:00.006,eb:33:2e:f9:57:b5, 2015-01-01 00:24:37.210,0.014,-0.008,0.995,0.183,-0.061,0, , , , , , ,-0.39,-0.522,-107.858
 09:36:00.006,eb:33:2e:f9:57:b5, 2015-01-01 00:24:37.210,0.014,-0.008,0.995,0.183,-0.061,0, , , , , , ,-0.39,-0.522,-107.858
 09:36:00.006,eb:33:2e:f9:57:b5, 2015-01-01 00:24:37.210,0.012,-0.009,0.997,0.244,0,0, , , , , , ,-0.39,-0.522,-107.858
 09:36:00.006,eb:33:2e:f9:57:b5, 2015-01-01 00:24:37.210,0.01,-0.009,0.995,0.305,0.061,0, , , , , , ,-0.39,-0.522,-107.858
 09:36:00.006,eb:33:2e:f9:57:b5, 2015-01-01 00:24:37.210,0.012,-0.009,0.992,0.366,0,0.061, , , , , , ,-0.39,-0.522,-107.858
 09:36:00.051,eb:33:2e:f9:57:b5, 2015-01-01 00:24:37.210,0.013,-0.009,0.993,0.305,0,0, , , , , , ,-0.396,-0.522,-107.858
 09:36:00.051,eb:33:2e:f9:57:b5, 2015-01-01 00:24:37.210,0.011,-0.009,0.994,0.366,0,0.061, , , , , , ,-0.396,-0.522,-107.858
 09:36:00.051,eb:33:2e:f9:57:b5, 2015-01-01 00:24:37.210,0.012,-0.008,0.992,0.366,0,0.061, , , , , , ,-0.396,-0.522,-107.858
 09:36:00.051,eb:33:2e:f9:57:b5, 2015-01-01 00:24:37.210,0.012,-0.007,0.994,0.305,-0.061,0.061, , , , , , ,-0.396,-0.522,-107.858
 09:36:00.051,eb:33:2e:f9:57:b5, 2015-01-01 00:24:37.210,0.013,-0.008,0.993,0.366,-0.061,0.061, , , , , , ,-0.396,-0.522,-107.858
 09:36:00.051,eb:33:2e:f9:57:b5, 2015-01-01 00:24:37.210,0.012,-0.007,0.994,0.366,0,0.122, , , , , , ,-0.396,-0.522,-107.858
 09:36:00.051,eb:33:2e:f9:57:b5, 2015-01-01 00:24:37.210,0.012,-0.008,0.993,0.305,0,0, , , , , , ,-0.396,-0.522,-107.858
 09:36:00.051,eb:33:2e:f9:57:b5, 2015-01-01 00:24:37.210,0.012,-0.006,0.993,0.305,-0.061,0.061, , , , , , ,-0.396,-0.522,-107.858
 09:36:00.095,eb:33:2e:f9:57:b5, 2015-01-01 00:24:37.210,0.011,-0.007,0.992,0.244,-0.061,0, , , , , , ,-0.396,-0.527,-107.858
 09:36:00.095,eb:33:2e:f9:57:b5, 2015-01-01 00:24:37.210,0.013,-0.008,0.992,0.122,-0.061,0, , , , , , ,-0.396,-0.527,-107.858
 09:36:00.095,eb:33:2e:f9:57:b5, 2015-01-01 00:24:37.210,0.013,-0.008,0.993,0.183,0,0, , , , , , ,-0.396,-0.527,-107.858
 09:36:00.095,eb:33:2e:f9:57:b5, 2015-01-01 00:24:37.210,0.012,-0.008,0.994,0.122,0,0, , , , , , ,-0.396,-0.527,-107.858
 09:36:00.095,eb:33:2e:f9:57:b5, 2015-01-01 00:24:37.210,0.011,-0.007,0.993,0.122,0,0, , , , , , ,-0.396,-0.527,-107.858
 09:36:00.095,eb:33:2e:f9:57:b5, 2015-01-01 00:24:37.210,0.011,-0.007,0.993,0.122,0,0, , , , , , ,-0.396,-0.527,-107.858
 09:36:00.095,eb:33:2e:f9:57:b5, 2015-01-01 00:24:37.210,0.012,-0.008,0.993,0.122,0,0, , , , , , ,-0.396,-0.527,-107.858
 09:36:00.095,eb:33:2e:f9:57:b5, 2015-01-01 00:24:37.210,0.013,-0.009,0.995,0.122,0,0, , , , , , ,-0.396,-0.527,-107.858
 09:36:00.117,eb:33:2e:f9:57:b5, 2015-01-01 00:24:37.525,0.012,-0.01,0.995,0.244,0.061,0.061, , , , , , ,-0.396,-0.527,-107.858
 09:36:00.117,eb:33:2e:f9:57:b5, 2015-01-01 00:24:37.525,0.013,-0.009,0.995,0.244,0.061,0, , , , , , ,-0.396,-0.527,-107.858
 09:36:00.117,eb:33:2e:f9:57:b5, 2015-01-01 00:24:37.525,0.011,-0.009,0.994,0.244,0.061,0, , , , , , ,-0.396,-0.527,-107.858
 09:36:00.117,eb:33:2e:f9:57:b5, 2015-01-01 00:24:37.525,0.01,-0.009,0.993,0.305,0,0, , , , , , ,-0.396,-0.527,-107.858
 09:36:00.117,eb:33:2e:f9:57:b5, 2015-01-01 00:24:37.525,0.012,-0.009,0.994,0.305,0,0, , , , , , ,-0.396,-0.527,-107.858
 09:36:00.117,eb:33:2e:f9:57:b5, 2015-01-01 00:24:37.525,0.012,-0.009,0.995,0.366,0,0.061, , , , , , ,-0.396,-0.527,-107.858
 09:36:00.117,eb:33:2e:f9:57:b5, 2015-01-01 00:24:37.525,0.012,-0.008,0.995,0.366,0,0.061, , , , , , ,-0.396,-0.527,-107.858
 09:36:00.117,eb:33:2e:f9:57:b5, 2015-01-01 00:24:37.525,0.012,-0.008,0.994,0.427,0,0, , , , , , ,-0.396,-0.527,-107.858
 09:36:00.163,eb:33:2e:f9:57:b5, 2015-01-01 00:24:37.525,0.012,-0.007,0.993,0.488,0,0.061, , , , , , ,-0.396,-0.527,-107.858
 09:36:00.163,eb:33:2e:f9:57:b5, 2015-01-01 00:24:37.525,0.013,-0.007,0.993,0.488,-0.061,0.061, , , , , , ,-0.396,-0.527,-107.858
 09:36:00.163,eb:33:2e:f9:57:b5, 2015-01-01 00:24:37.525,0.013,-0.008,0.993,0.427,0,0.122, , , , , , ,-0.396,-0.527,-107.858
 09:36:00.163,eb:33:2e:f9:57:b5, 2015-01-01 00:24:37.525,0.013,-0.008,0.993,0.366,0,0.122, , , , , , ,-0.396,-0.527,-107.858
 09:36:00.163,eb:33:2e:f9:57:b5, 2015-01-01 00:24:37.525,0.012,-0.007,0.993,0.427,0,0.122, , , , , , ,-0.396,-0.527,-107.858
 09:36:00.163,eb:33:2e:f9:57:b5, 2015-01-01 00:24:37.525,0.012,-0.006,0.993,0.366,0,0, , , , , , ,-0.396,-0.527,-107.858
 09:36:00.163,eb:33:2e:f9:57:b5, 2015-01-01 00:24:37.525,0.012,-0.007,0.993,0.305,-0.061,0, , , , , , ,-0.396,-0.527,-107.858
 09:36:00.165,eb:33:2e:f9:57:b5, 2015-01-01 00:24:37.525,0.012,-0.007,0.993,0.366,-0.061,0.061, , , , , , ,-0.396,-0.527,-107.858
 09:36:00.208,eb:33:2e:f9:57:b5, 2015-01-01 00:24:37.525,0.013,-0.007,0.994,0.305,-0.122,0.061, , , , , , ,-0.396,-0.533,-107.858
 09:36:00.208,eb:33:2e:f9:57:b5, 2015-01-01 00:24:37.525,0.013,-0.008,0.993,0.305,-0.061,0.061, , , , , , ,-0.396,-0.533,-107.858
 09:36:00.208,eb:33:2e:f9:57:b5, 2015-01-01 00:24:37.525,0.013,-0.007,0.994,0.305,0,0, , , , , , ,-0.396,-0.533,-107.858
