Time,Device name,Chip Time(),Acceleration X(g),Acceleration Y(g),Acceleration Z(g),Angular velocity X(°/s),Angular velocity Y(°/s),Angular velocity Z(°/s),ShiftX(mm),ShiftY(mm),ShiftZ(mm),SpeedX(mm/s),SpeedY(mm/s),SpeedZ(mm/s),Angle X(°),Angle Y(°),Angle Z(°)
 09:39:02.872,eb:33:2e:f9:57:b5, 2015-01-01 00:27:38.775,-0.084,-0.134,1.306,72.754,28.809,-7.812, , , , , , ,3.021,3.62,-107.051
 09:39:02.872,eb:33:2e:f9:57:b5, 2015-01-01 00:27:38.775,-0.038,0.036,1.138,77.148,22.4,-7.324, , , , , , ,3.4,3.746,-107.078
 09:39:02.872,eb:33:2e:f9:57:b5, 2015-01-01 00:27:38.775,-0.067,0.045,1.228,81.177,20.325,-8.484, , , , , , ,3.79,3.851,-107.117
 09:39:02.872,eb:33:2e:f9:57:b5, 2015-01-01 00:27:38.775,-0.037,-0.042,1.4,86.243,25.085,-7.324, , , , , , ,4.208,3.966,-107.15
 09:39:02.873,eb:33:2e:f9:57:b5, 2015-01-01 00:27:38.775,0.023,-0.021,1.396,92.407,27.405,-6.653, , , , , , ,4.658,4.103,-107.172
 09:39:02.873,eb:33:2e:f9:57:b5, 2015-01-01 00:27:38.775,-0.014,0.031,1.337,99.365,27.283,-8.118, , , , , , ,5.136,4.241,-107.194
 09:39:02.873,eb:33:2e:f9:57:b5, 2015-01-01 00:27:38.775,-0.04,0.034,1.313,105.469,26.245,-8.85, , , , , , ,5.647,4.378,-107.227
 09:39:02.873,eb:33:2e:f9:57:b5, 2015-01-01 00:27:38.775,-0.069,0.005,1.361,111.023,28.015,-9.46, , , , , , ,6.191,4.515,-107.26
 09:39:02.936,eb:33:2e:f9:57:b5, 2015-01-01 00:27:38.775,-0.097,-0.014,1.44,116.272,31.067,-9.766, , , , , , ,6.757,4.669,-107.287
 09:39:02.936,eb:33:2e:f9:57:b5, 2015-01-01 00:27:38.775,-0.099,-0.043,1.414,122.925,32.532,-9.399, , , , , , ,7.355,4.834,-107.314
 09:39:02.936,eb:33:2e:f9:57:b5, 2015-01-01 00:27:38.775,-0.131,-0.057,1.355,130.31,32.715,-8.606, , , , , , ,7.987,5.004,-107.342
 09:39:02.936,eb:33:2e:f9:57:b5, 2015-01-01 00:27:38.775,-0.152,-0.031,1.364,135.559,31.982,-7.751, , , , , , ,8.652,5.169,-107.358
 09:39:02.936,eb:33:2e:f9:57:b5, 2015-01-01 00:27:38.775,-0.14,-0.117,1.468,142.517,36.438,-5.676, , , , , , ,9.349,5.345,-107.364
 09:39:02.936,eb:33:2e:f9:57:b5, 2015-01-01 00:27:38.775,0.026,-0.051,1.479,151.917,37.659,-4.089, , , , , , ,10.091,5.526,-107.353
 09:39:02.936,eb:33:2e:f9:57:b5, 2015-01-01 00:27:38.775,0.024,0.061,1.415,159.668,36.621,-6.531, , , , , , ,10.871,5.713,-107.347
 09:39:02.936,eb:33:2e:f9:57:b5, 2015-01-01 00:27:38.775,0.053,0.059,1.374,170.166,34.058,-11.353, , , , , , ,11.7,5.894,-107.358
 09:39:03.026,eb:33:2e:f9:57:b5, 2015-01-01 00:27:38.775,0.054,0.063,1.422,179.199,34.607,-15.93, , , , , , ,12.574,6.075,-107.391
 09:39:03.026,eb:33:2e:f9:57:b5, 2015-01-01 00:27:38.775,0.078,0.081,1.495,187.805,35.95,-20.996, , , , , , ,13.491,6.268,-107.446
 09:39:03.026,eb:33:2e:f9:57:b5, 2015-01-01 00:27:38.775,0.008,0.039,1.495,197.449,37.659,-24.963, , , , , , ,14.447,6.476,-107.512
 09:39:03.026,eb:33:2e:f9:57:b5, 2015-01-01 00:27:38.775,0.004,0.049,1.57,205.627,36.255,-27.71, , , , , , ,15.447,6.691,-107.595
 09:39:03.027,eb:33:2e:f9:57:b5, 2015-01-01 00:27:38.775,0.025,0.01,1.758,216.553,38.208,-28.687, , , , , , ,16.496,6.905,-107.682
 09:39:03.027,eb:33:2e:f9:57:b5, 2015-01-01 00:27:38.775,0.058,-0.055,1.895,229.004,39.673,-29.541, , , , , , ,17.606,7.13,-107.77
 09:39:03.027,eb:33:2e:f9:57:b5, 2015-01-01 00:27:38.775,0.138,-0.041,2.063,241.394,44.189,-29.663, , , , , , ,18.776,7.377,-107.842
 09:39:03.027,eb:33:2e:f9:57:b5, 2015-01-01 00:27:38.775,0.237,-0.094,2.156,257.08,48.828,-29.724, , , , , , ,20.023,7.646,-107.902
 09:39:03.029,eb:33:2e:f9:57:b5, 2015-01-01 00:27:38.775,0.373,-0.05,2.249,271.667,52.856,-31.799, , , , , , ,21.341,7.943,-107.957
 09:39:03.029,eb:33:2e:f9:57:b5, 2015-01-01 00:27:38.775,0.379,-0.011,2.421,285.645,61.523,-36.499, , , , , , ,22.731,8.267,-108.012
 09:39:03.029,eb:33:2e:f9:57:b5, 2015-01-01 00:27:38.775,0.438,-0.071,2.591,301.27,71.777,-41.687, , , , , , ,24.197,8.657,-108.056
 09:39:03.029,eb:33:2e:f9:57:b5, 2015-01-01 00:27:38.775,0.502,-0.102,2.72,318.359,82.886,-46.082, , , , , , ,25.746,9.108,-108.094
 09:39:03.029,eb:33:2e:f9:57:b5, 2015-01-01 00:27:38.775,0.562,-0.097,2.743,335.754,92.224,-51.514, , , , , , ,27.389,9.619,-108.116
 09:39:03.029,eb:33:2e:f9:57:b5, 2015-01-01 00:27:38.775,0.544,-0.084,2.872,346.191,101.44,-59.082, , , , , , ,29.097,10.179,-108.133
 09:39:03.029,eb:33:2e:f9:57:b5, 2015-01-01 00:27:38.775,0.696,-0.199,3.207,355.164,112.427,-67.017, , , , , , ,30.85,10.8,-108.144
 09:39:03.030,eb:33:2e:f9:57:b5, 2015-01-01 00:27:38.775,0.696,-0.592,3.299,374.695,137.329,-69.58, , , , , , ,32.69,11.519,-108.105
 09:39:03.030,eb:33:2e:f9:57:b5, 2015-01-01 00:27:38.775,0.641,-0.629,3.162,394.897,156.128,-73.12, , , , , , ,34.645,12.338,-107.985
 09:39:03.030,eb:33:2e:f9:57:b5, 2015-01-01 00:27:38.775,0.423,-0.729,3.048,416.077,170.044,-78.674, , , , , , ,36.716,13.228,-107.809
 09:39:03.030,eb:33:2e:f9:57:b5, 2015-01-01 00:27:38.775,0.229,-0.818,3.074,436.34,181.396,-81.055, , , , , , ,38.914,14.172,-107.584
 09:39:03.030,eb:33:2e:f9:57:b5, 2015-01-01 00:27:38.775,0.309,-0.666,2.948,457.703,177.856,-79.59, , , , , , ,41.232,15.128,-107.292
 09:39:03.030,eb:33:2e:f9:57:b5, 2015-01-01 00:27:38.775,0.551,-0.582,2.743,485.046,153.625,-80.994, , , , , , ,43.66,16.007,-107.029
 09:39:03.030,eb:33:2e:f9:57:b5, 2015-01-01 00:27:38.775,0.546,-0.684,2.005,510.742,122.803,-92.712, , , , , , ,46.219,16.787,-106.859
 09:39:03.030,eb:33:2e:f9:57:b5, 2015-01-01 00:27:38.775,0.629,-0.186,2.159,493.225,103.027,-104.614, , , , , , ,48.752,17.523,-106.793
 09:39:03.032,eb:33:2e:f9:57:b5, 2015-01-01 00:27:38.775,0.557,-0.58,2.464,473.022,113.831,-113.037, , , , , , ,51.163,18.292,-106.732
 09:39:03.228,eb:33:2e:f9:57:b5, 2015-01-01 00:27:38.775,0.205,-0.928,2.732,466.37,152.405,-122.192, , , , , , ,53.553,19.16,-106.567
 09:39:03.228,eb:33:2e:f9:57:b5, 2015-01-01 00:27:38.775,-0.001,-1.556,2.986,464.05,205.811,-101.624, , , , , , ,56.047,20.154,-106.095
 09:39:03.229,eb:33:2e:f9:57:b5, 2015-01-01 00:27:38.775,0.195,-1.199,1.787,440.613,207.092,-82.642, , , , , , ,58.541,21.088,-105.408
 09:39:03.229,eb:33:2e:f9:57:b5, 2015-01-01 00:27:38.775,0.554,-0.816,1.12,398.438,188.904,-66.284, , , , , , ,60.886,21.901,-104.7
 09:39:03.229,eb:33:2e:f9:57:b5, 2015-01-01 00:27:38.775,0.33,-2.118,0.264,335.205,162.476,-44.983, , , , , , ,62.941,22.544,-104.013
 09:39:03.229,eb:33:2e:f9:57:b5, 2015-01-01 00:27:38.775,0.229,-1.449,-0.4,278.015,135.132,-38.208, , , , , , ,64.677,23.066,-103.387
 09:39:03.229,eb:33:2e:f9:57:b5, 2015-01-01 00:27:38.775,0.105,-0.141,-0.008,206.604,93.384,-25.94, , , , , , ,66.05,23.423,-102.936
 09:39:03.229,eb:33:2e:f9:57:b5, 2015-01-01 00:27:38.775,0.035,-0.013,0.256,112.671,72.632,-8.911, , , , , , ,66.945,23.659,-102.563
 09:39:03.273,eb:33:2e:f9:57:b5, 2015-01-01 00:27:38.775,0.246,-0.846,-0.038,36.133,45.288,7.935, , , , , , ,67.374,23.758,-102.283
 09:39:03.273,eb:33:2e:f9:57:b5, 2015-01-01 00:27:38.775,0.225,-1.329,-0.039,-41.443,32.715,26.611, , , , , , ,67.412,23.736,-102.063
 09:39:03.273,eb:33:2e:f9:57:b5, 2015-01-01 00:27:38.775,0.149,-1.174,0.351,-88.135,30.396,40.283, , , , , , ,67.148,23.637,-101.832
 09:39:03.273,eb:33:2e:f9:57:b5, 2015-01-01 00:27:38.775,0.203,-1.013,0.619,-113.77,19.775,51.331, , , , , , ,66.709,23.467,-101.607
 09:39:03.273,eb:33:2e:f9:57:b5, 2015-01-01 00:27:38.775,0.286,-1.012,0.632,-125,6.714,59.082, , , , , , ,66.16,23.231,-101.431
 09:39:03.273,eb:33:2e:f9:57:b5, 2015-01-01 00:27:38.775,0.339,-1.062,0.548,-127.625,-4.944,64.209, , , , , , ,65.577,22.945,-101.299
 09:39:03.273,eb:33:2e:f9:57:b5, 2015-01-01 00:27:38.775,0.355,-1.046,0.501,-124.695,-14.343,67.078, , , , , , ,64.984,22.621,-101.201
 09:39:03.273,eb:33:2e:f9:57:b5, 2015-01-01 00:27:38.775,0.358,-0.972,0.505,-118.652,-22.4,67.383, , , , , , ,64.396,22.275,-101.14
 09:39:03.275,eb:33:2e:f9:57:b5, 2015-01-01 00:27:38.775,0.329,-0.9,0.494,-112.61,-27.527,66.284, , , , , , ,63.825,21.918,-101.118
 09:39:03.275,eb:33:2e:f9:57:b5, 2015-01-01 00:27:38.775,0.3,-0.85,0.428,-109.741,-31.189,64.819, , , , , , ,63.27,21.555,-101.102
 09:39:03.275,eb:33:2e:f9:57:b5, 2015-01-01 00:27:38.775,0.266,-0.8,0.364,-111.511,-33.264,63.354, , , , , , ,62.721,21.198,-101.102
 09:39:03.275,eb:33:2e:f9:57:b5, 2015-01-01 00:27:38.775,0.241,-0.736,0.302,-118.53,-34.912,61.523, , , , , , ,62.139,20.841,-101.113
 09:39:03.275,eb:33:2e:f9:57:b5, 2015-01-01 00:27:38.775,0.225,-0.68,0.256,-130.249,-35.767,59.143, , , , , , ,61.49,20.49,-101.135
 09:39:03.275,eb:33:2e:f9:57:b5, 2015-01-01 00:27:38.775,0.216,-0.65,0.222,-145.813,-36.316,56.335, , , , , , ,60.787,20.149,-101.157
 09:39:03.275,eb:33:2e:f9:57:b5, 2015-01-01 00:27:38.775,0.21,-0.635,0.187,-164.124,-37.476,53.406, , , , , , ,59.991,19.819,-101.184
 09:39:03.275,eb:33:2e:f9:57:b5, 2015-01-01 00:27:38.775,0.208,-0.624,0.159,-184.021,-39.917,50.354, , , , , , ,59.095,19.501,-101.228
 09:39:03.277,eb:33:2e:f9:57:b5, 2015-01-01 00:27:38.775,0.21,-0.604,0.136,-204.773,-44.067,46.997, , , , , , ,58.079,19.182,-101.294
 09:39:03.277,eb:33:2e:f9:57:b5, 2015-01-01 00:27:38.775,0.213,-0.582,0.126,-225.525,-50.11,43.457, , , , , , ,56.964,18.864,-101.376
 09:39:03.277,eb:33:2e:f9:57:b5, 2015-01-01 00:27:38.775,0.21,-0.568,0.138,-245.544,-57.983,39.856, , , , , , ,55.739,18.539,-101.492
 09:39:03.277,eb:33:2e:f9:57:b5, 2015-01-01 00:27:38.775,0.206,-0.565,0.183,-263.916,-66.833,36.499, , , , , , ,54.404,18.199,-101.656
 09:39:03.277,eb:33:2e:f9:57:b5, 2015-01-01 00:27:38.775,0.199,-0.57,0.262,-280.396,-75.439,34.18, , , , , , ,52.954,17.842,-101.86
 09:39:03.277,eb:33:2e:f9:57:b5, 2015-01-01 00:27:38.775,0.194,-0.571,0.356,-295.166,-82.825,32.776, , , , , , ,51.438,17.468,-102.085
 09:39:03.277,eb:33:2e:f9:57:b5, 2015-01-01 00:27:38.775,0.194,-0.566,0.458,-308.777,-88.623,32.288, , , , , , ,49.85,17.067,-102.321
 09:39:03.277,eb:33:2e:f9:57:b5, 2015-01-01 00:27:38.775,0.194,-0.559,0.556,-321.838,-92.651,32.898, , , , , , ,48.192,16.644,-102.574
 09:39:03.279,eb:33:2e:f9:57:b5, 2015-01-01 00:27:38.775,0.193,-0.548,0.638,-334.778,-95.459,34.302, , , , , , ,46.461,16.194,-102.821
 09:39:03.279,eb:33:2e:f9:57:b5, 2015-01-01 00:27:38.775,0.198,-0.538,0.704,-347.534,-97.9,36.316, , , , , , ,44.681,15.727,-103.052
 09:39:03.279,eb:33:2e:f9:57:b5, 2015-01-01 00:27:38.775,0.206,-0.525,0.777,-359.68,-100.464,38.94, , , , , , ,42.847,15.238,-103.266
 09:39:03.279,eb:33:2e:f9:57:b5, 2015-01-01 00:27:38.775,0.208,-0.506,0.861,-370.483,-102.905,42.053, , , , , , ,40.968,14.722,-103.464
 09:39:03.279,eb:33:2e:f9:57:b5, 2015-01-01 00:27:38.775,0.219,-0.472,0.951,-379.395,-105.469,45.654, , , , , , ,39.023,14.178,-103.64
 09:39:03.279,eb:33:2e:f9:57:b5, 2015-01-01 00:27:38.775,0.237,-0.425,1.055,-386.047,-107.483,49.5, , , , , , ,37.073,13.607,-103.788
 09:39:03.279,eb:33:2e:f9:57:b5, 2015-01-01 00:27:38.775,0.265,-0.367,1.168,-390.015,-109.07,53.101, , , , , , ,35.101,13.013,-103.898
 09:39:03.279,eb:33:2e:f9:57:b5, 2015-01-01 00:27:38.775,0.299,-0.3,1.271,-391.235,-110.718,55.786, , , , , , ,33.124,12.404,-103.98
 09:39:03.282,eb:33:2e:f9:57:b5, 2015-01-01 00:27:38.775,0.338,-0.222,1.355,-389.893,-112.671,56.885, , , , , , ,31.141,11.777,-104.052
 09:39:03.282,eb:33:2e:f9:57:b5, 2015-01-01 00:27:38.775,0.385,-0.126,1.418,-386.597,-115.784,56.396, , , , , , ,29.191,11.14,-104.09
 09:39:03.282,eb:33:2e:f9:57:b5, 2015-01-01 00:27:38.775,0.433,0,1.48,-380.92,-120.789,52.856, , , , , , ,27.268,10.486,-104.134
 09:39:03.282,eb:33:2e:f9:57:b5, 2015-01-01 00:27:38.775,0.469,0.107,1.54,-375.549,-125.305,47.791, , , , , , ,25.367,9.822,-104.183
 09:39:03.282,eb:33:2e:f9:57:b5, 2015-01-01 00:27:38.775,0.487,0.214,1.589,-370.117,-130.554,40.771, , , , , , ,23.478,9.141,-104.255
 09:39:03.282,eb:33:2e:f9:57:b5, 2015-01-01 00:27:38.775,0.487,0.306,1.634,-364.868,-136.597,32.227, , , , , , ,21.627,8.448,-104.348
 09:39:03.283,eb:33:2e:f9:57:b5, 2015-01-01 00:27:38.775,0.472,0.367,1.698,-360.413,-142.029,23.254, , , , , , ,19.797,7.745,-104.474
 09:39:03.283,eb:33:2e:f9:57:b5, 2015-01-01 00:27:38.775,0.453,0.395,1.789,-356.506,-145.081,14.465, , , , , , ,17.985,7.037,-104.623
 09:39:03.386,eb:33:2e:f9:57:b5, 2015-01-01 00:27:38.775,0.426,0.399,1.891,-353.455,-144.836,6.409, , , , , , ,16.177,6.323,-104.799
 09:39:03.386,eb:33:2e:f9:57:b5, 2015-01-01 00:27:38.775,0.395,0.392,1.973,-351.257,-141.968,-0.61, , , , , , ,14.398,5.625,-104.98
 09:39:03.386,eb:33:2e:f9:57:b5, 2015-01-01 00:27:38.775,0.357,0.384,2.021,-349.792,-137.817,-6.714, , , , , , ,12.623,4.955,-105.161
 09:39:03.386,eb:33:2e:f9:57:b5, 2015-01-01 00:27:38.775,0.321,0.374,2.037,-348.755,-134.46,-11.475, , , , , , ,10.865,4.296,-105.348
 09:39:03.386,eb:33:2e:f9:57:b5, 2015-01-01 00:27:38.775,0.299,0.359,2.04,-346.863,-132.996,-15.137, , , , , , ,9.091,3.647,-105.535
 09:39:03.386,eb:33:2e:f9:57:b5, 2015-01-01 00:27:38.775,0.291,0.344,2.045,-343.567,-133.789,-17.7, , , , , , ,7.355,2.994,-105.716
 09:39:03.386,eb:33:2e:f9:57:b5, 2015-01-01 00:27:38.775,0.283,0.337,2.051,-338.684,-136.841,-19.592, , , , , , ,5.641,2.335,-105.886
 09:39:03.387,eb:33:2e:f9:57:b5, 2015-01-01 00:27:38.775,0.275,0.34,2.048,-332.458,-142.334,-21.118, , , , , , ,3.961,1.642,-106.046
 09:39:03.391,eb:33:2e:f9:57:b5, 2015-01-01 00:27:38.775,0.248,0.344,2.05,-325.378,-149.475,-22.4, , , , , , ,2.296,0.912,-106.199
 09:39:03.391,eb:33:2e:f9:57:b5, 2015-01-01 00:27:38.775,0.201,0.345,2.044,-317.749,-158.508,-23.743, , , , , , ,0.692,0.137,-106.337
 09:39:03.391,eb:33:2e:f9:57:b5, 2015-01-01 00:27:38.775,0.145,0.34,2.042,-310.059,-169.25,-25.085, , , , , , ,-0.868,-0.681,-106.458
 09:39:03.391,eb:33:2e:f9:57:b5, 2015-01-01 00:27:38.775,0.04,0.333,2.071,-302.551,-180.115,-26.55, , , , , , ,-2.395,-1.566,-106.562
 09:39:03.391,eb:33:2e:f9:57:b5, 2015-01-01 00:27:38.775,-0.06,0.319,2.089,-296.448,-190.552,-27.1, , , , , , ,-3.906,-2.51,-106.65
 09:39:03.391,eb:33:2e:f9:57:b5, 2015-01-01 00:27:38.775,-0.183,0.282,2.191,-291.809,-196.472,-26.794, , , , , , ,-5.372,-3.494,-106.705
 09:39:03.391,eb:33:2e:f9:57:b5, 2015-01-01 00:27:38.775,-0.295,0.299,2.312,-288.574,-198.181,-25.269, , , , , , ,-6.817,-4.488,-106.727
 09:39:03.391,eb:33:2e:f9:57:b5, 2015-01-01 00:27:38.775,-0.441,0.378,2.425,-287.842,-195.801,-22.278, , , , , , ,-8.262,-5.482,-106.716
 09:39:03.430,eb:33:2e:f9:57:b5, 2015-01-01 00:27:39.425,-0.59,0.44,2.517,-289.124,-189.88,-17.517, , , , , , ,-9.728,-6.454,-106.666
 09:39:03.430,eb:33:2e:f9:57:b5, 2015-01-01 00:27:39.425,-0.706,0.48,2.607,-291.565,-179.504,-10.437, , , , , , ,-11.195,-7.377,-106.562
 09:39:03.430,eb:33:2e:f9:57:b5, 2015-01-01 00:27:39.425,-0.8,0.537,2.706,-293.884,-163.818,-0.732, , , , , , ,-12.678,-8.212,-106.408
 09:39:03.430,eb:33:2e:f9:57:b5, 2015-01-01 00:27:39.425,-0.866,0.618,2.78,-294.922,-144.531,11.108, , , , , , ,-14.183,-8.948,-106.199
 09:39:03.430,eb:33:2e:f9:57:b5, 2015-01-01 00:27:39.425,-0.885,0.71,2.807,-293.518,-123.23,24.475, , , , , , ,-15.716,-9.569,-105.936
 09:39:03.430,eb:33:2e:f9:57:b5, 2015-01-01 00:27:39.425,-0.86,0.833,2.788,-289.368,-102.173,38.757, , , , , , ,-17.232,-10.052,-105.612
 09:39:03.430,eb:33:2e:f9:57:b5, 2015-01-01 00:27:39.425,-0.78,1.007,2.725,-282.532,-83.252,52.673, , , , , , ,-18.726,-10.41,-105.244
 09:39:03.431,eb:33:2e:f9:57:b5, 2015-01-01 00:27:39.425,-0.666,1.23,2.626,-273.743,-66.833,64.819, , , , , , ,-20.187,-10.657,-104.832
 09:39:03.499,eb:33:2e:f9:57:b5, 2015-01-01 00:27:39.425,-0.543,1.483,2.489,-263.123,-53.406,73.914, , , , , , ,-21.621,-10.811,-104.387
 09:39:03.499,eb:33:2e:f9:57:b5, 2015-01-01 00:27:39.425,-0.459,1.754,2.315,-249.207,-44.373,78.979, , , , , , ,-22.983,-10.882,-103.931
 09:39:03.499,eb:33:2e:f9:57:b5, 2015-01-01 00:27:39.425,-0.414,2.045,2.077,-230.591,-43.152,79.285, , , , , , ,-24.263,-10.92,-103.475
 09:39:03.499,eb:33:2e:f9:57:b5, 2015-01-01 00:27:39.425,-0.436,2.414,1.731,-201.599,-55.359,73.303, , , , , , ,-25.428,-10.986,-103.013
 09:39:03.499,eb:33:2e:f9:57:b5, 2015-01-01 00:27:39.425,-0.547,2.719,1.491,-173.34,-74.585,63.599, , , , , , ,-26.45,-11.14,-102.557
 09:39:03.499,eb:33:2e:f9:57:b5, 2015-01-01 00:27:39.425,-0.747,2.981,1.388,-142.944,-95.337,51.27, , , , , , ,-27.318,-11.404,-102.096
 09:39:03.499,eb:33:2e:f9:57:b5, 2015-01-01 00:27:39.425,-0.981,3.14,1.471,-112.183,-108.337,38.513, , , , , , ,-28.032,-11.761,-101.656
 09:39:03.499,eb:33:2e:f9:57:b5, 2015-01-01 00:27:39.425,-1.226,3.193,1.702,-82.397,-105.896,27.222, , , , , , ,-28.586,-12.162,-101.25
 09:39:03.499,eb:33:2e:f9:57:b5, 2015-01-01 00:27:39.425,-1.429,3.163,1.955,-54.81,-87.036,18.982, , , , , , ,-28.993,-12.535,-100.915
 09:39:03.499,eb:33:2e:f9:57:b5, 2015-01-01 00:27:39.425,-1.502,3.072,2.141,-29.541,-54.81,13.672, , , , , , ,-29.246,-12.794,-100.673
 09:39:03.499,eb:33:2e:f9:57:b5, 2015-01-01 00:27:39.425,-1.44,2.942,2.235,-6.409,-13.733,10.071, , , , , , ,-29.355,-12.903,-100.547
 09:39:03.499,eb:33:2e:f9:57:b5, 2015-01-01 00:27:39.425,-1.286,2.81,2.193,14.832,27.405,6.348, , , , , , ,-29.323,-12.832,-100.541
 09:39:03.499,eb:33:2e:f9:57:b5, 2015-01-01 00:27:39.425,-1.066,2.697,2.033,34.18,59.998,0.427, , , , , , ,-29.174,-12.618,-100.646
 09:39:03.500,eb:33:2e:f9:57:b5, 2015-01-01 00:27:39.425,-0.83,2.585,1.834,51.147,81.36,-8.057, , , , , , ,-28.905,-12.31,-100.849
 09:39:03.500,eb:33:2e:f9:57:b5, 2015-01-01 00:27:39.425,-0.31,2.465,1.628,65.369,92.041,-19.104, , , , , , ,-28.548,-11.953,-101.135
 09:39:03.500,eb:33:2e:f9:57:b5, 2015-01-01 00:27:39.425,0.631,2.018,2.41,188.782,-8.728,-66.467, , , , , , ,-27.949,-11.799,-101.437
 09:39:03.502,eb:33:2e:f9:57:b5, 2015-01-01 00:27:39.425,-0.079,2.854,4.711,276.001,231.934,-77.698, , , , , , ,-26.51,-11.201,-102.228
 09:39:03.502,eb:33:2e:f9:57:b5, 2015-01-01 00:27:39.425,0.903,1.212,1.123,281.616,145.569,-133.972, , , , , , ,-24.939,-10.723,-103.134
 09:39:03.502,eb:33:2e:f9:57:b5, 2015-01-01 00:27:39.425,0.104,-0.31,1.672,292.664,195.679,-128.967, , , , , , ,-23.329,-10.157,-104.134
 09:39:03.502,eb:33:2e:f9:57:b5, 2015-01-01 00:27:39.425,0.022,-1.021,1.096,311.096,174.683,-101.135, , , , , , ,-21.66,-9.536,-105.018
 09:39:03.502,eb:33:2e:f9:57:b5, 2015-01-01 00:27:39.425,0.023,-1.207,0.978,323.73,168.274,-64.636, , , , , , ,-19.951,-8.882,-105.71
 09:39:03.502,eb:33:2e:f9:57:b5, 2015-01-01 00:27:39.425,-0.062,-1.052,0.942,331.665,147.156,-41.26, , , , , , ,-18.243,-8.245,-106.205
 09:39:03.502,eb:33:2e:f9:57:b5, 2015-01-01 00:27:39.425,-0.351,-1.139,0.947,349.426,141.541,-21.729, , , , , , ,-16.485,-7.608,-106.562
 09:39:03.502,eb:33:2e:f9:57:b5, 2015-01-01 00:27:39.425,-0.659,-0.455,1.103,347.656,141.052,-1.343, , , , , , ,-14.7,-6.938,-106.798
 09:39:03.543,eb:33:2e:f9:57:b5, 2015-01-01 00:27:39.425,-0.411,0.169,1.128,323.425,126.404,10.254, , , , , , ,-13.013,-6.268,-106.93
 09:39:03.543,eb:33:2e:f9:57:b5, 2015-01-01 00:27:39.425,-0.55,0.607,1.261,285.278,114.38,11.414, , , , , , ,-11.508,-5.68,-107.001
 09:39:03.543,eb:33:2e:f9:57:b5, 2015-01-01 00:27:39.425,-0.306,0.709,1.127,249.39,95.459,7.935, , , , , , ,-10.184,-5.158,-107.051
 09:39:03.543,eb:33:2e:f9:57:b5, 2015-01-01 00:27:39.425,-0.188,0.726,1.298,209.9,75.439,-1.404, , , , , , ,-9.053,-4.752,-107.106
 09:39:03.543,eb:33:2e:f9:57:b5, 2015-01-01 00:27:39.425,-0.167,0.574,1.244,177.124,62.744,-13.794, , , , , , ,-8.097,-4.422,-107.205
 09:39:03.543,eb:33:2e:f9:57:b5, 2015-01-01 00:27:39.425,-0.115,0.448,1.227,151.184,48.584,-23.682, , , , , , ,-7.284,-4.169,-107.336
 09:39:03.543,eb:33:2e:f9:57:b5, 2015-01-01 00:27:39.425,-0.067,0.196,1.074,136.841,38.635,-31.25, , , , , , ,-6.564,-3.977,-107.507
 09:39:03.545,eb:33:2e:f9:57:b5, 2015-01-01 00:27:39.425,0.009,0.039,0.99,130.127,32.654,-33.63, , , , , , ,-5.889,-3.823,-107.688
 09:39:03.589,eb:33:2e:f9:57:b5, 2015-01-01 00:27:39.425,0.045,-0.105,0.971,128.174,31.067,-31.067, , , , , , ,-5.235,-3.686,-107.869
 09:39:03.589,eb:33:2e:f9:57:b5, 2015-01-01 00:27:39.425,0.165,0.008,1.077,120.3,32.288,-23.743, , , , , , ,-4.609,-3.538,-108.012
 09:39:03.589,eb:33:2e:f9:57:b5, 2015-01-01 00:27:39.425,0.15,-0.044,1.082,117.371,39.734,-17.639, , , , , , ,-4.01,-3.367,-108.127
 09:39:03.589,eb:33:2e:f9:57:b5, 2015-01-01 00:27:39.425,0.048,0.008,1.04,114.258,45.41,-13.245, , , , , , ,-3.428,-3.153,-108.215
 09:39:03.589,eb:33:2e:f9:57:b5, 2015-01-01 00:27:39.425,-0.011,0.245,1.049,101.379,48.157,-11.475, , , , , , ,-2.889,-2.917,-108.292
 09:39:03.589,eb:33:2e:f9:57:b5, 2015-01-01 00:27:39.425,-0.025,0.391,1.045,80.994,51.575,-11.658, , , , , , ,-2.439,-2.67,-108.358
 09:39:03.589,eb:33:2e:f9:57:b5, 2015-01-01 00:27:39.425,-0.042,0.317,0.999,66.162,49.133,-11.475, , , , , , ,-2.076,-2.422,-108.424
 09:39:03.589,eb:33:2e:f9:57:b5, 2015-01-01 00:27:39.425,-0.056,0.21,0.974,55.725,44.739,-10.62, , , , , , ,-1.774,-2.186,-108.49
 09:39:03.656,eb:33:2e:f9:57:b5, 2015-01-01 00:27:39.425,0.008,0.231,0.998,41.87,38.086,-7.141, , , , , , ,-1.533,-1.983,-108.539
 09:39:03.656,eb:33:2e:f9:57:b5, 2015-01-01 00:27:39.425,-0.007,0.119,1.027,33.203,34.729,-3.113, , , , , , ,-1.351,-1.807,-108.567
 09:39:03.656,eb:33:2e:f9:57:b5, 2015-01-01 00:27:39.425,-0.055,0.076,1.02,27.71,32.715,-0.183, , , , , , ,-1.203,-1.642,-108.578
 09:39:03.656,eb:33:2e:f9:57:b5, 2015-01-01 00:27:39.425,-0.048,0.037,0.996,24.231,30.64,1.953, , , , , , ,-1.077,-1.483,-108.572
 09:39:03.656,eb:33:2e:f9:57:b5, 2015-01-01 00:27:39.425,-0.059,0.043,0.973,21.912,27.222,1.282, , , , , , ,-0.961,-1.34,-108.567
 09:39:03.656,eb:33:2e:f9:57:b5, 2015-01-01 00:27:39.425,-0.056,0.054,0.957,19.287,22.766,-0.061, , , , , , ,-0.862,-1.214,-108.567
 09:39:03.656,eb:33:2e:f9:57:b5, 2015-01-01 00:27:39.425,-0.063,0.059,0.955,16.357,17.761,-1.221, , , , , , ,-0.775,-1.121,-108.572
 09:39:03.656,eb:33:2e:f9:57:b5, 2015-01-01 00:27:39.425,-0.053,0.049,0.961,13.611,13.245,-1.16, , , , , , ,-0.703,-1.044,-108.578
 09:39:03.679,eb:33:2e:f9:57:b5, 2015-01-01 00:27:39.425,-0.012,0.033,0.969,11.292,9.583,-0.244, , , , , , ,-0.643,-0.989,-108.583
 09:39:03.679,eb:33:2e:f9:57:b5, 2015-01-01 00:27:39.425,-0.011,0.032,0.99,9.521,7.751,0.061, , , , , , ,-0.593,-0.945,-108.583
 09:39:03.679,eb:33:2e:f9:57:b5, 2015-01-01 00:27:39.425,-0.033,0.04,0.983,8.057,5.615,-0.427, , , , , , ,-0.549,-0.917,-108.583
 09:39:03.679,eb:33:2e:f9:57:b5, 2015-01-01 00:27:39.425,-0.042,0.036,0.972,6.836,2.686,-1.404, , , , , , ,-0.511,-0.895,-108.589
 09:39:03.679,eb:33:2e:f9:57:b5, 2015-01-01 00:27:39.425,-0.029,0.026,0.968,5.981,-0.305,-2.075, , , , , , ,-0.478,-0.89,-108.594
 09:39:03.679,eb:33:2e:f9:57:b5, 2015-01-01 00:27:39.425,-0.006,0.016,0.985,5.371,-2.441,-2.319, , , , , , ,-0.456,-0.901,-108.611
 09:39:03.679,eb:33:2e:f9:57:b5, 2015-01-01 00:27:39.425,-0.001,0.006,1.005,5.188,-3.174,-2.502, , , , , , ,-0.428,-0.917,-108.622
 09:39:03.679,eb:33:2e:f9:57:b5, 2015-01-01 00:27:39.425,-0.008,0,1.011,5.31,-3.54,-2.441, , , , , , ,-0.401,-0.934,-108.633
 09:39:03.703,eb:33:2e:f9:57:b5, 2015-01-01 00:27:39.425,-0.016,-0.006,1.012,5.859,-4.089,-2.258, , , , , , ,-0.374,-0.95,-108.644
 09:39:03.703,eb:33:2e:f9:57:b5, 2015-01-01 00:27:39.425,-0.003,-0.021,1.016,7.019,-4.761,-1.892, , , , , , ,-0.341,-0.978,-108.655
 09:39:03.703,eb:33:2e:f9:57:b5, 2015-01-01 00:27:39.425,0.022,-0.024,1.023,8.362,-4.822,-1.465, , , , , , ,-0.302,-1,-108.66
 09:39:03.703,eb:33:2e:f9:57:b5, 2015-01-01 00:27:39.425,0.022,-0.018,1.032,9.46,-3.784,-1.282, , , , , , ,-0.258,-1.022,-108.671
 09:39:03.703,eb:33:2e:f9:57:b5, 2015-01-01 00:27:39.425,0.008,-0.015,1.03,10.437,-2.625,-0.977, , , , , , ,-0.209,-1.038,-108.671
 09:39:03.703,eb:33:2e:f9:57:b5, 2015-01-01 00:27:39.425,0.006,-0.011,1.018,11.169,-1.648,-0.427, , , , , , ,-0.154,-1.049,-108.677
 09:39:03.703,eb:33:2e:f9:57:b5, 2015-01-01 00:27:39.425,0.021,-0.002,1.007,11.597,-1.282,-0.366, , , , , , ,-0.099,-1.055,-108.677
 09:39:03.703,eb:33:2e:f9:57:b5, 2015-01-01 00:27:39.425,0.028,0.009,1.008,11.719,-0.488,-0.61, , , , , , ,-0.038,-1.06,-108.682
 09:39:03.815,eb:33:2e:f9:57:b5, 2015-01-01 00:27:39.825,0.043,0.01,1.011,11.658,1.221,-0.671, , , , , , ,0.011,-1.06,-108.682
 09:39:03.815,eb:33:2e:f9:57:b5, 2015-01-01 00:27:39.825,0.06,0.015,1.017,11.353,3.784,-0.305, , , , , , ,0.071,-1.044,-108.688
 09:39:03.815,eb:33:2e:f9:57:b5, 2015-01-01 00:27:39.825,0.061,0.015,1.026,10.742,7.629,0, , , , , , ,0.121,-1.016,-108.688
 09:39:03.815,eb:33:2e:f9:57:b5, 2015-01-01 00:27:39.825,0.047,0.021,1.025,10.071,11.169,0.061, , , , , , ,0.176,-0.967,-108.688
 09:39:03.815,eb:33:2e:f9:57:b5, 2015-01-01 00:27:39.825,0.033,0.019,1.014,9.827,14.038,0, , , , , , ,0.225,-0.901,-108.682
 09:39:03.815,eb:33:2e:f9:57:b5, 2015-01-01 00:27:39.825,0.023,0.012,1.007,9.827,15.686,-0.366, , , , , , ,0.275,-0.824,-108.688
 09:39:03.815,eb:33:2e:f9:57:b5, 2015-01-01 00:27:39.825,0.018,0.014,1.004,9.888,16.541,-1.038, , , , , , ,0.324,-0.747,-108.688
 09:39:03.815,eb:33:2e:f9:57:b5, 2015-01-01 00:27:39.825,0.019,0.022,0.997,9.705,16.418,-2.014, , , , , , ,0.368,-0.665,-108.699
 09:39:03.815,eb:33:2e:f9:57:b5, 2015-01-01 00:27:39.825,0.017,0.026,0.995,9.216,17.273,-2.441, , , , , , ,0.417,-0.577,-108.704
 09:39:03.815,eb:33:2e:f9:57:b5, 2015-01-01 00:27:39.825,0.028,0.03,0.992,8.423,18.494,-2.319, , , , , , ,0.461,-0.489,-108.721
 09:39:03.815,eb:33:2e:f9:57:b5, 2015-01-01 00:27:39.825,0.038,0.032,1.004,7.812,19.531,-2.319, , , , , , ,0.5,-0.396,-108.726
 09:39:03.815,eb:33:2e:f9:57:b5, 2015-01-01 00:27:39.825,0.037,0.029,1.01,7.446,21.118,-2.319, , , , , , ,0.538,-0.291,-108.737
 09:39:03.815,eb:33:2e:f9:57:b5, 2015-01-01 00:27:39.825,0.062,0.031,1.006,7.019,22.4,-2.014, , , , , , ,0.571,-0.181,-108.748
 09:39:03.815,eb:33:2e:f9:57:b5, 2015-01-01 00:27:39.825,0.044,0.033,1.016,6.714,25.269,-1.953, , , , , , ,0.61,-0.06,-108.759
 09:39:03.815,eb:33:2e:f9:57:b5, 2015-01-01 00:27:39.825,0.026,0.037,1,6.104,27.283,-1.465, , , , , , ,0.637,0.066,-108.765
 09:39:03.816,eb:33:2e:f9:57:b5, 2015-01-01 00:27:39.825,0.003,0.04,0.99,5.615,28.503,-1.038, , , , , , ,0.665,0.203,-108.77
 09:39:03.836,eb:33:2e:f9:57:b5, 2015-01-01 00:27:39.825,-0.003,0.037,0.984,5.249,28.748,-0.549, , , , , , ,0.692,0.352,-108.77
 09:39:03.836,eb:33:2e:f9:57:b5, 2015-01-01 00:27:39.825,0.004,0.022,0.995,5.493,29.114,-0.122, , , , , , ,0.72,0.494,-108.77
 09:39:03.836,eb:33:2e:f9:57:b5, 2015-01-01 00:27:39.825,-0.001,0.02,1.006,5.981,29.785,-0.244, , , , , , ,0.747,0.643,-108.77
 09:39:03.836,eb:33:2e:f9:57:b5, 2015-01-01 00:27:39.825,-0.01,0.012,1.018,6.836,30.762,-0.305, , , , , , ,0.78,0.791,-108.77
 09:39:03.836,eb:33:2e:f9:57:b5, 2015-01-01 00:27:39.825,-0.019,0.009,1.018,8.057,31.555,-0.366, , , , , , ,0.818,0.95,-108.765
 09:39:03.836,eb:33:2e:f9:57:b5, 2015-01-01 00:27:39.825,-0.051,0.009,1.014,9.338,32.043,-0.671, , , , , , ,0.862,1.11,-108.765
 09:39:03.836,eb:33:2e:f9:57:b5, 2015-01-01 00:27:39.825,-0.074,0.004,1,10.498,31.067,-0.977, , , , , , ,0.912,1.263,-108.77
 09:39:03.836,eb:33:2e:f9:57:b5, 2015-01-01 00:27:39.825,-0.075,0.007,0.99,11.658,28.748,-1.282, , , , , , ,0.967,1.412,-108.77
 09:39:03.881,eb:33:2e:f9:57:b5, 2015-01-01 00:27:39.825,-0.075,-0.006,1.008,13.306,27.222,-1.404, , , , , , ,1.027,1.555,-108.776
 09:39:03.881,eb:33:2e:f9:57:b5, 2015-01-01 00:27:39.825,-0.057,-0.006,1.014,14.954,25.757,-1.465, , , , , , ,1.099,1.686,-108.781
 09:39:03.881,eb:33:2e:f9:57:b5, 2015-01-01 00:27:39.825,-0.042,-0.007,1.028,16.846,25.635,-1.587, , , , , , ,1.181,1.813,-108.787
 09:39:03.881,eb:33:2e:f9:57:b5, 2015-01-01 00:27:39.825,-0.039,-0.002,1.03,18.738,26.123,-1.709, , , , , , ,1.269,1.945,-108.792
 09:39:03.881,eb:33:2e:f9:57:b5, 2015-01-01 00:27:39.825,-0.045,0.003,1.028,20.447,26.489,-1.77, , , , , , ,1.368,2.076,-108.798
 09:39:03.881,eb:33:2e:f9:57:b5, 2015-01-01 00:27:39.825,-0.032,0,1.034,22.278,26.428,-1.343, , , , , , ,1.472,2.208,-108.803
 09:39:03.881,eb:33:2e:f9:57:b5, 2015-01-01 00:27:39.825,-0.035,-0.005,1.032,24.109,24.414,0.488, , , , , , ,1.588,2.329,-108.798
 09:39:03.881,eb:33:2e:f9:57:b5, 2015-01-01 00:27:39.825,-0.004,0.014,1.054,26.184,24.963,-0.549, , , , , , ,1.714,2.45,-108.792
 09:39:03.927,eb:33:2e:f9:57:b5, 2015-01-01 00:27:39.825,-0.019,0.014,1.078,28.076,27.588,-1.221, , , , , , ,1.851,2.587,-108.792
 09:39:03.927,eb:33:2e:f9:57:b5, 2015-01-01 00:27:39.825,-0.038,0.031,1.048,29.419,29.236,-1.892, , , , , , ,1.994,2.73,-108.798
 09:39:03.927,eb:33:2e:f9:57:b5, 2015-01-01 00:27:39.825,-0.055,0.033,1.024,30.396,30.212,-1.709, , , , , , ,2.148,2.878,-108.798
 09:39:03.927,eb:33:2e:f9:57:b5, 2015-01-01 00:27:39.825,-0.073,0.029,1.027,31.677,30.701,-1.648, , , , , , ,2.302,3.027,-108.803
 09:39:03.927,eb:33:2e:f9:57:b5, 2015-01-01 00:27:39.825,-0.04,0.026,1.03,33.63,29.602,-1.648, , , , , , ,2.466,3.181,-108.803
 09:39:03.927,eb:33:2e:f9:57:b5, 2015-01-01 00:27:39.825,-0.035,0.059,1.028,34.607,29.602,-3.052, , , , , , ,2.637,3.329,-108.809
 09:39:03.927,eb:33:2e:f9:57:b5, 2015-01-01 00:27:39.825,-0.021,0.07,1.022,35.706,30.09,-4.089, , , , , , ,2.807,3.477,-108.82
 09:39:03.927,eb:33:2e:f9:57:b5, 2015-01-01 00:27:39.825,-0.038,0.052,1.083,37.354,31.86,-5.127, , , , , , ,2.988,3.636,-108.836
 09:39:03.950,eb:33:2e:f9:57:b5, 2015-01-01 00:27:39.825,-0.041,0.05,1.119,39.429,32.104,-5.92, , , , , , ,3.186,3.796,-108.853
 09:39:03.950,eb:33:2e:f9:57:b5, 2015-01-01 00:27:39.825,-0.048,0.01,1.156,42.664,33.569,-5.371, , , , , , ,3.389,3.961,-108.875
 09:39:03.950,eb:33:2e:f9:57:b5, 2015-01-01 00:27:39.825,-0.02,0.043,1.115,44.556,34.302,-4.883, , , , , , ,3.604,4.131,-108.885
 09:39:03.951,eb:33:2e:f9:57:b5, 2015-01-01 00:27:39.825,-0.023,0.067,1.237,45.837,35.645,-6.042, , , , , , ,3.829,4.307,-108.902
 09:39:03.951,eb:33:2e:f9:57:b5, 2015-01-01 00:27:39.825,0.008,0.025,1.304,50.842,36.743,-6.165, , , , , , ,4.07,4.493,-108.918
 09:39:03.951,eb:33:2e:f9:57:b5, 2015-01-01 00:27:39.825,-0.039,0.079,1.24,52.917,37.598,-7.69, , , , , , ,4.334,4.68,-108.94
 09:39:03.951,eb:33:2e:f9:57:b5, 2015-01-01 00:27:39.825,-0.263,0.116,1.201,62.012,26.306,-7.324, , , , , , ,4.614,4.839,-108.968
 09:39:03.951,eb:33:2e:f9:57:b5, 2015-01-01 00:27:39.825,-0.161,-0.173,1.734,78.247,19.775,-2.808, , , , , , ,4.971,4.944,-108.984
 09:39:03.994,eb:33:2e:f9:57:b5, 2015-01-01 00:27:39.825,-0.143,-0.155,1.644,90.088,28.32,1.892, , , , , , ,5.405,5.07,-108.968
 09:39:03.994,eb:33:2e:f9:57:b5, 2015-01-01 00:27:39.825,-0.083,0.028,1.333,96.985,23.01,1.526, , , , , , ,5.878,5.197,-108.946
 09:39:03.994,eb:33:2e:f9:57:b5, 2015-01-01 00:27:39.825,-0.135,0.051,1.292,104.126,15.869,-0.61, , , , , , ,6.383,5.29,-108.935
 09:39:03.994,eb:33:2e:f9:57:b5, 2015-01-01 00:27:39.825,-0.197,-0.011,1.338,110.84,13.245,-0.732, , , , , , ,6.921,5.361,-108.929
 09:39:03.994,eb:33:2e:f9:57:b5, 2015-01-01 00:27:39.825,-0.215,-0.069,1.373,118.958,11.23,0.854, , , , , , ,7.504,5.422,-108.924
 09:39:03.994,eb:33:2e:f9:57:b5, 2015-01-01 00:27:39.825,-0.231,-0.062,1.357,127.441,7.69,2.625, , , , , , ,8.124,5.466,-108.907
 09:39:03.994,eb:33:2e:f9:57:b5, 2015-01-01 00:27:39.825,-0.215,-0.044,1.331,134.399,2.991,4.089, , , , , , ,8.784,5.488,-108.885
 09:39:03.994,eb:33:2e:f9:57:b5, 2015-01-01 00:27:39.825,-0.193,-0.025,1.386,141.357,-0.244,5.188, , , , , , ,9.476,5.488,-108.858
 09:39:04.083,eb:33:2e:f9:57:b5, 2015-01-01 00:27:39.825,-0.174,-0.04,1.389,150.085,-3.784,5.737, , , , , , ,10.212,5.471,-108.831
 09:39:04.083,eb:33:2e:f9:57:b5, 2015-01-01 00:27:39.825,-0.13,-0.045,1.395,159.668,-6.531,6.165, , , , , , ,10.992,5.438,-108.809
 09:39:04.083,eb:33:2e:f9:57:b5, 2015-01-01 00:27:39.825,-0.094,-0.025,1.441,168.274,-7.568,5.676, , , , , , ,11.816,5.394,-108.787
 09:39:04.083,eb:33:2e:f9:57:b5, 2015-01-01 00:27:39.825,-0.023,-0.004,1.522,176.819,-6.775,4.333, , , , , , ,12.684,5.35,-108.77
 09:39:04.083,eb:33:2e:f9:57:b5, 2015-01-01 00:27:39.825,0.025,0.01,1.568,186.096,-4.211,2.502, , , , , , ,13.596,5.323,-108.759
 09:39:04.083,eb:33:2e:f9:57:b5, 2015-01-01 00:27:39.825,0.062,0.033,1.616,195.068,0.854,0.366, , , , , , ,14.551,5.312,-108.754
 09:39:04.083,eb:33:2e:f9:57:b5, 2015-01-01 00:27:39.825,0.163,0.009,1.687,205.383,7.08,-2.014, , , , , , ,15.557,5.334,-108.754
 09:39:04.083,eb:33:2e:f9:57:b5, 2015-01-01 00:27:39.825,0.195,0.023,1.708,217.468,15.991,-5.066, , , , , , ,16.617,5.4,-108.754
 09:39:04.086,eb:33:2e:f9:57:b5, 2015-01-01 00:27:40.160,0.146,0.049,1.686,225.403,21.362,-7.385, , , , , , ,17.732,5.504,-108.754
 09:39:04.086,eb:33:2e:f9:57:b5, 2015-01-01 00:27:40.160,0.163,0.06,1.747,235.962,24.597,-11.719, , , , , , ,18.885,5.63,-108.765
 09:39:04.086,eb:33:2e:f9:57:b5, 2015-01-01 00:27:40.160,0.162,0.003,1.884,249.817,29.297,-15.381, , , , , , ,20.105,5.779,-108.787
 09:39:04.086,eb:33:2e:f9:57:b5, 2015-01-01 00:27:40.160,0.143,-0.018,1.982,264.587,35.522,-17.517, , , , , , ,21.396,5.966,-108.809
 09:39:04.086,eb:33:2e:f9:57:b5, 2015-01-01 00:27:40.160,0.213,-0.028,2.137,278.809,40.649,-19.104, , , , , , ,22.758,6.174,-108.82
 09:39:04.086,eb:33:2e:f9:57:b5, 2015-01-01 00:27:40.160,0.302,-0.085,2.272,293.884,49.011,-20.447, , , , , , ,24.192,6.427,-108.82
 09:39:04.086,eb:33:2e:f9:57:b5, 2015-01-01 00:27:40.160,0.351,0.008,2.298,308.472,56.396,-23.682, , , , , , ,25.708,6.718,-108.803
 09:39:04.086,eb:33:2e:f9:57:b5, 2015-01-01 00:27:40.160,0.512,0.159,2.464,319.519,55.908,-29.907, , , , , , ,27.285,7.031,-108.803
 09:39:04.130,eb:33:2e:f9:57:b5, 2015-01-01 00:27:40.160,0.497,0.038,2.531,342.773,63.416,-38.818, , , , , , ,28.943,7.377,-108.814
 09:39:04.130,eb:33:2e:f9:57:b5, 2015-01-01 00:27:40.160,0.605,0.1,2.635,354.858,64.514,-46.814, , , , , , ,30.69,7.767,-108.847
 09:39:04.130,eb:33:2e:f9:57:b5, 2015-01-01 00:27:40.160,0.643,-0.012,2.851,375.488,75.256,-57.19, , , , , , ,32.514,8.201,-108.891
 09:39:04.130,eb:33:2e:f9:57:b5, 2015-01-01 00:27:40.160,0.699,-0.025,2.939,391.174,83.862,-66.04, , , , , , ,34.431,8.707,-108.929
 09:39:04.130,eb:33:2e:f9:57:b5, 2015-01-01 00:27:40.160,0.678,-0.081,3.036,404.236,97.656,-73.792, , , , , , ,36.42,9.283,-108.957
 09:39:04.131,eb:33:2e:f9:57:b5, 2015-01-01 00:27:40.160,0.69,-0.211,3.128,415.222,111.145,-78.979, , , , , , ,38.474,9.937,-108.94
 09:39:04.131,eb:33:2e:f9:57:b5, 2015-01-01 00:27:40.160,0.755,-0.262,3.106,429.565,118.591,-86.426, , , , , , ,40.6,10.651,-108.885
 09:39:04.131,eb:33:2e:f9:57:b5, 2015-01-01 00:27:40.160,0.715,-0.288,3.089,445.251,126.648,-95.764, , , , , , ,42.808,11.415,-108.82
 09:39:04.174,eb:33:2e:f9:57:b5, 2015-01-01 00:27:40.160,0.535,-0.313,3.09,455.688,137.817,-105.286, , , , , , ,45.082,12.239,-108.726
 09:39:04.174,eb:33:2e:f9:57:b5, 2015-01-01 00:27:40.160,0.297,-0.526,3.264,466.37,157.898,-106.628, , , , , , ,47.422,13.145,-108.55
 09:39:04.174,eb:33:2e:f9:57:b5, 2015-01-01 00:27:40.160,0.435,-0.153,3.224,480.896,165.405,-116.516, , , , , , ,49.861,14.106,-108.287
 09:39:04.174,eb:33:2e:f9:57:b5, 2015-01-01 00:27:40.160,0.419,-0.25,3.296,488.403,179.81,-124.634, , , , , , ,52.366,15.123,-107.996
 09:39:04.174,eb:33:2e:f9:57:b5, 2015-01-01 00:27:40.160,0.324,-0.509,3.478,489.441,216.431,-121.582, , , , , , ,54.926,16.21,-107.54
 09:39:04.174,eb:33:2e:f9:57:b5, 2015-01-01 00:27:40.160,0.314,-0.754,3.314,483.154,250.549,-105.957, , , , , , ,57.563,17.336,-106.837
 09:39:04.174,eb:33:2e:f9:57:b5, 2015-01-01 00:27:40.160,0.357,-0.716,2.464,442.627,268.555,-91.003, , , , , , ,60.156,18.43,-105.919
 09:39:04.174,eb:33:2e:f9:57:b5, 2015-01-01 00:27:40.160,0.256,-0.748,1.207,384.033,272.034,-78.735, , , , , , ,62.534,19.446,-104.865
 09:39:04.197,eb:33:2e:f9:57:b5, 2015-01-01 00:27:40.160,0.589,-0.578,0.565,340.027,259.949,-56.763, , , , , , ,64.677,20.319,-103.771
 09:39:04.197,eb:33:2e:f9:57:b5, 2015-01-01 00:27:40.160,0.823,-1.064,0.595,304.321,238.281,-44.495, , , , , , ,66.654,21.05,-102.673
 09:39:04.197,eb:33:2e:f9:57:b5, 2015-01-01 00:27:40.160,0.079,-2.495,-0.144,254.578,215.942,-27.71, , , , , , ,68.412,21.643,-101.624
 09:39:04.197,eb:33:2e:f9:57:b5, 2015-01-01 00:27:40.160,0.378,-1.143,-2.315,162.72,133.606,-30.884, , , , , , ,69.747,22.099,-100.789
 09:39:04.197,eb:33:2e:f9:57:b5, 2015-01-01 00:27:40.160,0.581,0.602,-1.532,28.809,37.842,-22.888, , , , , , ,70.258,22.324,-100.508
 09:39:04.197,eb:33:2e:f9:57:b5, 2015-01-01 00:27:40.160,0.49,0.352,0.036,-69.031,-2.319,-16.968, , , , , , ,70.098,22.445,-100.47
 09:39:04.197,eb:33:2e:f9:57:b5, 2015-01-01 00:27:40.160,0.315,-1.045,1.121,-107.483,-13.123,2.869, , , , , , ,69.587,22.44,-100.552
 09:39:04.197,eb:33:2e:f9:57:b5, 2015-01-01 00:27:40.160,0.375,-1.607,1.112,-130.371,1.16,12.817, , , , , , ,68.978,22.396,-100.541
 09:39:04.240,eb:33:2e:f9:57:b5, 2015-01-01 00:27:40.160,0.575,-1.62,1.08,-143.616,1.526,20.752, , , , , , ,68.28,22.308,-100.519
 09:39:04.240,eb:33:2e:f9:57:b5, 2015-01-01 00:27:40.160,0.52,-1.432,1.325,-141.296,18.921,25.208, , , , , , ,67.599,22.22,-100.415
 09:39:04.240,eb:33:2e:f9:57:b5, 2015-01-01 00:27:40.160,0.502,-1.226,1.336,-129.15,34.973,28.687, , , , , , ,67,22.154,-100.212
 09:39:04.240,eb:33:2e:f9:57:b5, 2015-01-01 00:27:40.160,0.531,-1.098,1.093,-114.319,39.795,30.945, , , , , , ,66.495,22.088,-99.954
 09:39:04.240,eb:33:2e:f9:57:b5, 2015-01-01 00:27:40.160,0.551,-1.027,0.662,-103.699,32.715,31.677, , , , , , ,66.033,22.017,-99.717
 09:39:04.240,eb:33:2e:f9:57:b5, 2015-01-01 00:27:40.160,0.554,-0.974,0.259,-101.257,17.212,31.067, , , , , , ,65.594,21.923,-99.531
 09:39:04.240,eb:33:2e:f9:57:b5, 2015-01-01 00:27:40.160,0.527,-0.905,0.026,-106.567,-2.747,29.724, , , , , , ,65.11,21.797,-99.432
 09:39:04.240,eb:33:2e:f9:57:b5, 2015-01-01 00:27:40.160,0.484,-0.822,-0.075,-117.92,-25.452,28.076, , , , , , ,64.539,21.627,-99.443
 09:39:04.331,eb:33:2e:f9:57:b5, 2015-01-01 00:27:40.160,0.429,-0.779,-0.085,-134.583,-46.387,26.672, , , , , , ,63.836,21.418,-99.575
 09:39:04.331,eb:33:2e:f9:57:b5, 2015-01-01 00:27:40.160,0.379,-0.802,-0.032,-155.457,-62.134,26.489, , , , , , ,63.023,21.176,-99.783
 09:39:04.331,eb:33:2e:f9:57:b5, 2015-01-01 00:27:40.160,0.332,-0.85,0.058,-179.565,-71.045,27.71, , , , , , ,62.084,20.896,-100.036
 09:39:04.331,eb:33:2e:f9:57:b5, 2015-01-01 00:27:40.160,0.292,-0.884,0.176,-210.754,-74.402,30.64, , , , , , ,60.996,20.594,-100.311
 09:39:04.331,eb:33:2e:f9:57:b5, 2015-01-01 00:27:40.160,0.265,-0.885,0.261,-236.267,-73.792,33.936, , , , , , ,59.755,20.264,-100.58
 09:39:04.331,eb:33:2e:f9:57:b5, 2015-01-01 00:27:40.160,0.256,-0.869,0.33,-259.705,-72.754,37.476, , , , , , ,58.42,19.924,-100.816
 09:39:04.331,eb:33:2e:f9:57:b5, 2015-01-01 00:27:40.160,0.255,-0.844,0.371,-280.518,-72.998,41.016, , , , , , ,56.981,19.561,-101.025
 09:39:04.331,eb:33:2e:f9:57:b5, 2015-01-01 00:27:40.160,0.254,-0.804,0.382,-298.706,-75.989,44.067, , , , , , ,55.453,19.171,-101.228
 09:39:04.335,eb:33:2e:f9:57:b5, 2015-01-01 00:27:40.160,0.255,-0.752,0.385,-314.514,-82.703,46.448, , , , , , ,53.828,18.754,-101.442
 09:39:04.335,eb:33:2e:f9:57:b5, 2015-01-01 00:27:40.160,0.262,-0.703,0.424,-327.942,-91.797,47.791, , , , , , ,52.141,18.298,-101.662
 09:39:04.335,eb:33:2e:f9:57:b5, 2015-01-01 00:27:40.160,0.263,-0.662,0.492,-339.294,-101.074,48.584, , , , , , ,50.389,17.803,-101.904
 09:39:04.335,eb:33:2e:f9:57:b5, 2015-01-01 00:27:40.160,0.268,-0.624,0.571,-348.938,-108.826,49.194, , , , , , ,48.587,17.276,-102.156
 09:39:04.335,eb:33:2e:f9:57:b5, 2015-01-01 00:27:40.160,0.271,-0.587,0.681,-356.262,-113.892,49.683, , , , , , ,46.719,16.71,-102.426
 09:39:04.336,eb:33:2e:f9:57:b5, 2015-01-01 00:27:40.160,0.272,-0.541,0.812,-360.84,-116.211,49.988, , , , , , ,44.852,16.128,-102.678
 09:39:04.336,eb:33:2e:f9:57:b5, 2015-01-01 00:27:40.160,0.269,-0.483,0.943,-362.305,-116.028,49.988, , , , , , ,42.979,15.535,-102.909
 09:39:04.336,eb:33:2e:f9:57:b5, 2015-01-01 00:27:40.160,0.265,-0.414,1.047,-361.389,-114.563,49.683, , , , , , ,41.111,14.936,-103.118
 09:39:04.377,eb:33:2e:f9:57:b5, 2015-01-01 00:27:40.160,0.266,-0.349,1.129,-358.704,-112.366,49.072, , , , , , ,39.243,14.337,-103.31
 09:39:04.377,eb:33:2e:f9:57:b5, 2015-01-01 00:27:40.160,0.263,-0.289,1.189,-354.858,-110.046,48.279, , , , , , ,37.419,13.755,-103.469
 09:39:04.377,eb:33:2e:f9:57:b5, 2015-01-01 00:27:40.160,0.261,-0.229,1.224,-350.83,-108.643,46.875, , , , , , ,35.623,13.173,-103.601
 09:39:04.377,eb:33:2e:f9:57:b5, 2015-01-01 00:27:40.160,0.266,-0.177,1.242,-347.29,-108.337,45.044, , , , , , ,33.854,12.596,-103.727
 09:39:04.377,eb:33:2e:f9:57:b5, 2015-01-01 00:27:40.160,0.275,-0.132,1.256,-344.604,-109.314,42.725, , , , , , ,32.075,12.014,-103.854
 09:39:04.377,eb:33:2e:f9:57:b5, 2015-01-01 00:27:40.160,0.29,-0.084,1.266,-343.262,-111.633,39.673, , , , , , ,30.333,11.431,-103.964
 09:39:04.377,eb:33:2e:f9:57:b5, 2015-01-01 00:27:40.160,0.31,-0.04,1.279,-343.445,-114.868,35.522, , , , , , ,28.592,10.849,-104.084
 09:39:04.377,eb:33:2e:f9:57:b5, 2015-01-01 00:27:40.160,0.306,0.007,1.293,-344.849,-119.202,30.64, , , , , , ,26.845,10.25,-104.216
 09:39:04.399,eb:33:2e:f9:57:b5, 2015-01-01 00:27:40.160,0.307,0.059,1.287,-347.351,-125.305,25.269, , , , , , ,25.065,9.63,-104.37
 09:39:04.399,eb:33:2e:f9:57:b5, 2015-01-01 00:27:40.160,0.312,0.094,1.332,-350.159,-130.92,19.592, , , , , , ,23.291,8.998,-104.535
 09:39:04.399,eb:33:2e:f9:57:b5, 2015-01-01 00:27:40.160,0.302,0.113,1.418,-352.295,-134.399,14.099, , , , , , ,21.506,8.35,-104.716
 09:39:04.399,eb:33:2e:f9:57:b5, 2015-01-01 00:27:40.160,0.286,0.123,1.511,-353.333,-136.108,9.033, , , , , , ,19.715,7.696,-104.908
 09:39:04.399,eb:33:2e:f9:57:b5, 2015-01-01 00:27:40.160,0.273,0.121,1.601,-353.149,-135.986,4.761, , , , , , ,17.897,7.031,-105.106
 09:39:04.399,eb:33:2e:f9:57:b5, 2015-01-01 00:27:40.160,0.26,0.108,1.676,-351.746,-134.827,1.221, , , , , , ,16.111,6.378,-105.293
 09:39:04.399,eb:33:2e:f9:57:b5, 2015-01-01 00:27:40.160,0.248,0.099,1.724,-349.487,-133.789,-1.587, , , , , , ,14.337,5.729,-105.469
 09:39:04.399,eb:33:2e:f9:57:b5, 2015-01-01 00:27:40.160,0.246,0.089,1.755,-346.497,-133.606,-3.845, , , , , , ,12.585,5.087,-105.639
 09:39:04.443,eb:33:2e:f9:57:b5, 2015-01-01 00:27:40.160,0.251,0.089,1.79,-342.468,-134.46,-5.981, , , , , , ,10.822,4.422,-105.809
 09:39:04.443,eb:33:2e:f9:57:b5, 2015-01-01 00:27:40.160,0.259,0.099,1.833,-337.341,-136.169,-7.751, , , , , , ,9.113,3.763,-105.963
 09:39:04.443,eb:33:2e:f9:57:b5, 2015-01-01 00:27:40.160,0.267,0.12,1.877,-331.238,-139.038,-9.338, , , , , , ,7.438,3.087,-106.106
 09:39:04.443,eb:33:2e:f9:57:b5, 2015-01-01 00:27:40.160,0.27,0.139,1.919,-324.646,-142.212,-11.047, , , , , , ,5.79,2.39,-106.238
 09:39:04.443,eb:33:2e:f9:57:b5, 2015-01-01 00:27:40.160,0.277,0.153,1.948,-317.932,-146.729,-12.756, , , , , , ,4.158,1.664,-106.364
 09:39:04.444,eb:33:2e:f9:57:b5, 2015-01-01 00:27:40.160,0.281,0.174,1.979,-310.974,-153.87,-14.587, , , , , , ,2.587,0.917,-106.479
 09:39:04.444,eb:33:2e:f9:57:b5, 2015-01-01 00:27:40.160,0.274,0.194,2.017,-307.19,-160.95,-15.686, , , , , , ,1.044,0.126,-106.578
 09:39:04.444,eb:33:2e:f9:57:b5, 2015-01-01 00:27:40.160,0.254,0.221,2.044,-306.702,-169.189,-16.907, , , , , , ,-0.489,-0.698,-106.666
 09:39:04.511,eb:33:2e:f9:57:b5, 2015-01-01 00:27:40.565,0.212,0.247,2.05,-311.035,-178.894,-17.7, , , , , , ,-2.054,-1.582,-106.738
 09:39:04.511,eb:33:2e:f9:57:b5, 2015-01-01 00:27:40.565,0.132,0.257,2.062,-319.458,-190.002,-17.822, , , , , , ,-3.631,-2.516,-106.782
 09:39:04.511,eb:33:2e:f9:57:b5, 2015-01-01 00:27:40.565,0.014,0.272,2.093,-330.078,-202.087,-17.151, , , , , , ,-5.262,-3.505,-106.793
 09:39:04.511,eb:33:2e:f9:57:b5, 2015-01-01 00:27:40.565,-0.09,0.291,2.141,-340.698,-214.905,-15.076, , , , , , ,-6.949,-4.559,-106.76
 09:39:04.511,eb:33:2e:f9:57:b5, 2015-01-01 00:27:40.565,-0.188,0.311,2.26,-349.121,-224.915,-12.146, , , , , , ,-8.712,-5.674,-106.677
 09:39:04.511,eb:33:2e:f9:57:b5, 2015-01-01 00:27:40.565,-0.271,0.375,2.408,-353.821,-231.323,-7.751, , , , , , ,-10.486,-6.812,-106.529
 09:39:04.511,eb:33:2e:f9:57:b5, 2015-01-01 00:27:40.565,-0.357,0.491,2.596,-354.492,-232.849,-1.709, , , , , , ,-12.288,-7.96,-106.32
 09:39:04.511,eb:33:2e:f9:57:b5, 2015-01-01 00:27:40.565,-0.449,0.608,2.83,-350.708,-227.722,5.615, , , , , , ,-14.095,-9.075,-106.04
 09:39:04.513,eb:33:2e:f9:57:b5, 2015-01-01 00:27:40.565,-0.544,0.735,3.051,-343.567,-215.088,14.465, , , , , , ,-15.908,-10.14,-105.699
 09:39:04.513,eb:33:2e:f9:57:b5, 2015-01-01 00:27:40.565,-0.62,0.882,3.224,-334.717,-195.618,25.024, , , , , , ,-17.677,-11.085,-105.298
 09:39:04.513,eb:33:2e:f9:57:b5, 2015-01-01 00:27:40.565,-0.671,1.046,3.339,-324.768,-169.861,36.56, , , , , , ,-19.413,-11.893,-104.854
 09:39:04.513,eb:33:2e:f9:57:b5, 2015-01-01 00:27:40.565,-0.689,1.235,3.374,-313.11,-140.991,48.523, , , , , , ,-21.105,-12.53,-104.37
 09:39:04.513,eb:33:2e:f9:57:b5, 2015-01-01 00:27:40.565,-0.659,1.479,3.313,-299.255,-112.732,59.021, , , , , , ,-22.758,-13.008,-103.87
 09:39:04.513,eb:33:2e:f9:57:b5, 2015-01-01 00:27:40.565,-0.579,1.797,3.143,-283.508,-88.562,66.833, , , , , , ,-24.324,-13.332,-103.37
 09:39:04.513,eb:33:2e:f9:57:b5, 2015-01-01 00:27:40.565,-0.467,2.186,2.889,-265.564,-70.923,69.824, , , , , , ,-25.807,-13.535,-102.881
 09:39:04.513,eb:33:2e:f9:57:b5, 2015-01-01 00:27:40.565,-0.417,2.612,2.59,-243.53,-61.646,66.223, , , , , , ,-27.18,-13.672,-102.415
 09:39:04.557,eb:33:2e:f9:57:b5, 2015-01-01 00:27:40.565,-0.479,3.048,2.22,-214.905,-65.125,55.481, , , , , , ,-28.433,-13.815,-101.992
 09:39:04.557,eb:33:2e:f9:57:b5, 2015-01-01 00:27:40.565,-0.661,3.49,1.791,-180.42,-84.961,38.94, , , , , , ,-29.498,-14.035,-101.591
 09:39:04.557,eb:33:2e:f9:57:b5, 2015-01-01 00:27:40.565,-0.994,3.865,1.468,-143.555,-114.807,19.348, , , , , , ,-30.388,-14.414,-101.206
 09:39:04.557,eb:33:2e:f9:57:b5, 2015-01-01 00:27:40.565,-1.385,4.098,1.356,-106.934,-143.372,0.671, , , , , , ,-31.091,-14.963,-100.822
 09:39:04.557,eb:33:2e:f9:57:b5, 2015-01-01 00:27:40.565,-1.737,4.185,1.538,-71.167,-156.86,-13.062, , , , , , ,-31.63,-15.639,-100.443
 09:39:04.557,eb:33:2e:f9:57:b5, 2015-01-01 00:27:40.565,-1.944,4.131,1.987,-35.767,-144.836,-20.264, , , , , , ,-31.976,-16.337,-100.102
 09:39:04.557,eb:33:2e:f9:57:b5, 2015-01-01 00:27:40.565,-1.932,3.939,2.526,-0.916,-103.821,-21.973, , , , , , ,-32.119,-16.913,-99.86
 09:39:04.557,eb:33:2e:f9:57:b5, 2015-01-01 00:27:40.565,-1.715,3.625,2.924,31.738,-39.551,-20.63, , , , , , ,-32.053,-17.254,-99.772
 09:39:04.669,eb:33:2e:f9:57:b5, 2015-01-01 00:27:40.565,-1.386,3.248,3,60.242,33.691,-19.348, , , , , , ,-31.778,-17.287,-99.871
 09:39:04.669,eb:33:2e:f9:57:b5, 2015-01-01 00:27:40.565,-1.035,2.91,2.72,82.703,95.825,-20.325, , , , , , ,-31.322,-17.029,-100.157
 09:39:04.669,eb:33:2e:f9:57:b5, 2015-01-01 00:27:40.565,-0.711,2.641,2.258,99.182,133.789,-25.574, , , , , , ,-30.734,-16.573,-100.585
 09:39:04.669,eb:33:2e:f9:57:b5, 2015-01-01 00:27:40.565,-0.464,2.367,1.817,111.267,148.438,-34.546, , , , , , ,-30.059,-16.029,-101.107
 09:39:04.669,eb:33:2e:f9:57:b5, 2015-01-01 00:27:40.565,-0.113,2.079,1.477,120.361,145.203,-45.776, , , , , , ,-29.317,-15.485,-101.673
 09:39:04.669,eb:33:2e:f9:57:b5, 2015-01-01 00:27:40.565,2.318,1.014,2.021,236.938,-39.185,-86.243, , , , , , ,-28.411,-15.26,-102.156
 09:39:04.669,eb:33:2e:f9:57:b5, 2015-01-01 00:27:40.565,1.155,-2.371,0.036,296.936,255.127,-95.642, , , , , , ,-26.735,-14.623,-103.134
 09:39:04.669,eb:33:2e:f9:57:b5, 2015-01-01 00:27:40.565,0.729,-1.148,-0.3,295.593,130.493,-129.517, , , , , , ,-25.043,-14.31,-104.013
 09:39:04.671,eb:33:2e:f9:57:b5, 2015-01-01 00:27:40.565,1.208,-1.554,1.685,311.707,155.029,-110.352, , , , , , ,-23.307,-13.854,-104.886
 09:39:04.671,eb:33:2e:f9:57:b5, 2015-01-01 00:27:40.565,-0.102,-1.786,1.524,335.327,180.603,-99.121, , , , , , ,-21.484,-13.315,-105.694
 09:39:04.671,eb:33:2e:f9:57:b5, 2015-01-01 00:27:40.565,-0.595,-1.521,1.159,375.305,229.065,-61.523, , , , , , ,-19.517,-12.448,-106.43
 09:39:04.671,eb:33:2e:f9:57:b5, 2015-01-01 00:27:40.565,-1.183,-1.46,0.982,413.086,248.291,-26.917, , , , , , ,-17.397,-11.354,-107.018
 09:39:04.671,eb:33:2e:f9:57:b5, 2015-01-01 00:27:40.565,-1.195,-0.312,0.44,420.41,210.449,-9.583, , , , , , ,-15.216,-10.261,-107.424
 09:39:04.671,eb:33:2e:f9:57:b5, 2015-01-01 00:27:40.565,-0.875,0.631,0.633,386.597,156.799,-1.16, , , , , , ,-13.162,-9.41,-107.666
 09:39:04.671,eb:33:2e:f9:57:b5, 2015-01-01 00:27:40.565,-0.399,1.153,1.073,327.759,115.54,3.052, , , , , , ,-11.382,-8.767,-107.803
 09:39:04.671,eb:33:2e:f9:57:b5, 2015-01-01 00:27:40.565,-0.196,1.072,1.391,272.644,94.727,1.892, , , , , , ,-9.899,-8.267,-107.88
 09:39:04.671,eb:33:2e:f9:57:b5, 2015-01-01 00:27:40.565,-0.169,0.916,1.637,221.497,89.111,-8.484, , , , , , ,-8.674,-7.817,-107.974
 09:39:04.671,eb:33:2e:f9:57:b5, 2015-01-01 00:27:40.565,-0.232,0.519,1.476,188.11,85.693,-18.311, , , , , , ,-7.663,-7.399,-108.111
 09:39:04.671,eb:33:2e:f9:57:b5, 2015-01-01 00:27:40.565,-0.265,0.289,1.222,169.373,79.651,-24.902, , , , , , ,-6.762,-7.004,-108.276
 09:39:04.671,eb:33:2e:f9:57:b5, 2015-01-01 00:27:40.565,-0.162,0.147,0.992,157.471,64.453,-26.978, , , , , , ,-5.933,-6.663,-108.446
 09:39:04.671,eb:33:2e:f9:57:b5, 2015-01-01 00:27:40.565,-0.111,-0.014,0.934,151.001,52.612,-22.583, , , , , , ,-5.147,-6.389,-108.6
 09:39:04.671,eb:33:2e:f9:57:b5, 2015-01-01 00:27:40.565,0.245,0.229,1.135,131.287,44.8,-13.672, , , , , , ,-4.427,-6.158,-108.704
 09:39:04.672,eb:33:2e:f9:57:b5, 2015-01-01 00:27:40.565,0.302,0.207,1.11,115.479,48.828,-7.568, , , , , , ,-3.818,-5.938,-108.77
 09:39:04.672,eb:33:2e:f9:57:b5, 2015-01-01 00:27:40.565,0.158,0.192,1.079,106.445,60.547,-3.479, , , , , , ,-3.263,-5.658,-108.814
 09:39:04.714,eb:33:2e:f9:57:b5, 2015-01-01 00:27:40.565,0.035,0.27,1.019,93.994,67.139,-2.502, , , , , , ,-2.763,-5.328,-108.847
 09:39:04.714,eb:33:2e:f9:57:b5, 2015-01-01 00:27:40.565,0.113,0.243,0.959,81.665,62.5,-0.549, , , , , , ,-2.324,-5.004,-108.869
 09:39:04.714,eb:33:2e:f9:57:b5, 2015-01-01 00:27:40.565,0.07,0.23,1.049,70.801,61.89,-1.953, , , , , , ,-1.95,-4.697,-108.885
 09:39:04.714,eb:33:2e:f9:57:b5, 2015-01-01 00:27:40.565,0.026,0.246,1.037,59.082,57.129,-3.174, , , , , , ,-1.631,-4.4,-108.907
 09:39:04.714,eb:33:2e:f9:57:b5, 2015-01-01 00:27:40.565,-0.026,0.229,1.018,47.302,50.903,-2.258, , , , , , ,-1.362,-4.131,-108.929
 09:39:04.714,eb:33:2e:f9:57:b5, 2015-01-01 00:27:40.565,-0.042,0.186,0.946,35.339,37.17,1.282, , , , , , ,-1.165,-3.917,-108.935
 09:39:04.714,eb:33:2e:f9:57:b5, 2015-01-01 00:27:40.565,-0.019,0.16,0.979,26.123,29.297,3.906, , , , , , ,-1.022,-3.757,-108.924
 09:39:04.714,eb:33:2e:f9:57:b5, 2015-01-01 00:27:40.565,-0.005,0.106,0.997,21.667,24.963,3.906, , , , , , ,-0.906,-3.625,-108.902
 09:39:04.758,eb:33:2e:f9:57:b5, 2015-01-01 00:27:40.565,-0.026,0.041,0.998,20.02,23.315,2.075, , , , , , ,-0.802,-3.499,-108.891
 09:39:04.758,eb:33:2e:f9:57:b5, 2015-01-01 00:27:40.565,-0.001,0.056,0.934,18.066,17.639,0.61, , , , , , ,-0.703,-3.4,-108.885
 09:39:04.758,eb:33:2e:f9:57:b5, 2015-01-01 00:27:40.565,0.004,0.091,0.951,14.771,12.512,-0.427, , , , , , ,-0.626,-3.329,-108.885
 09:39:04.758,eb:33:2e:f9:57:b5, 2015-01-01 00:27:40.565,0.033,0.073,0.979,12.085,9.583,-0.427, , , , , , ,-0.56,-3.279,-108.885
 09:39:04.758,eb:33:2e:f9:57:b5, 2015-01-01 00:27:40.565,0.051,0.03,1.021,11.108,8.972,-0.244, , , , , , ,-0.5,-3.23,-108.891
 09:39:04.758,eb:33:2e:f9:57:b5, 2015-01-01 00:27:40.565,0.03,0.01,1.046,11.475,9.583,-0.366, , , , , , ,-0.445,-3.186,-108.891
 09:39:04.758,eb:33:2e:f9:57:b5, 2015-01-01 00:27:40.565,0.006,0.01,1.022,12.207,9.46,-1.099, , , , , , ,-0.385,-3.137,-108.896
 09:39:04.758,eb:33:2e:f9:57:b5, 2015-01-01 00:27:40.565,-0.009,0.018,0.994,12.207,8.118,-1.526, , , , , , ,-0.324,-3.093,-108.902
 09:39:04.827,eb:33:2e:f9:57:b5, 2015-01-01 00:27:40.565,0.001,0.029,0.976,11.597,5.066,-1.892, , , , , , ,-0.264,-3.06,-108.907
 09:39:04.827,eb:33:2e:f9:57:b5, 2015-01-01 00:27:40.565,0.021,0.029,0.985,10.986,2.747,-2.136, , , , , , ,-0.203,-3.043,-108.918
 09:39:04.827,eb:33:2e:f9:57:b5, 2015-01-01 00:27:40.565,0.041,0.021,1.003,10.925,1.282,-2.502, , , , , , ,-0.154,-3.032,-108.929
 09:39:04.827,eb:33:2e:f9:57:b5, 2015-01-01 00:27:40.565,0.041,0.005,1.024,11.536,1.465,-2.93, , , , , , ,-0.093,-3.027,-108.946
 09:39:04.827,eb:33:2e:f9:57:b5, 2015-01-01 00:27:40.565,0.031,0.002,1.02,12.39,1.709,-3.601, , , , , , ,-0.033,-3.016,-108.962
 09:39:04.827,eb:33:2e:f9:57:b5, 2015-01-01 00:27:40.565,0.047,0.012,1.013,12.695,1.587,-3.662, , , , , , ,0.027,-3.01,-108.979
 09:39:04.827,eb:33:2e:f9:57:b5, 2015-01-01 00:27:40.565,0.056,0.017,1.021,12.939,2.258,-4.028, , , , , , ,0.093,-2.999,-109.001
 09:39:04.827,eb:33:2e:f9:57:b5, 2015-01-01 00:27:40.565,0.067,0.014,1.027,13.367,3.418,-4.395, , , , , , ,0.159,-2.983,-109.017
 09:39:04.848,eb:33:2e:f9:57:b5, 2015-01-01 00:27:40.920,0.066,0.011,1.031,14.038,5.493,-4.7, , , , , , ,0.231,-2.961,-109.045
 09:39:04.848,eb:33:2e:f9:57:b5, 2015-01-01 00:27:40.920,0.061,0.014,1.026,14.343,7.751,-5.005, , , , , , ,0.302,-2.922,-109.067
 09:39:04.848,eb:33:2e:f9:57:b5, 2015-01-01 00:27:40.920,0.072,0.026,1.013,14.099,9.705,-5.127, , , , , , ,0.374,-2.878,-109.089
 09:39:04.848,eb:33:2e:f9:57:b5, 2015-01-01 00:27:40.920,0.083,0.037,1.011,13.367,11.963,-5.31, , , , , , ,0.445,-2.823,-109.116
 09:39:04.848,eb:33:2e:f9:57:b5, 2015-01-01 00:27:40.920,0.098,0.042,1.018,12.756,14.648,-5.188, , , , , , ,0.511,-2.752,-109.144
 09:39:04.848,eb:33:2e:f9:57:b5, 2015-01-01 00:27:40.920,0.106,0.041,1.029,12.695,17.883,-5.371, , , , , , ,0.577,-2.67,-109.166
 09:39:04.849,eb:33:2e:f9:57:b5, 2015-01-01 00:27:40.920,0.096,0.037,1.036,12.878,21.301,-5.493, , , , , , ,0.643,-2.571,-109.193
 09:39:04.849,eb:33:2e:f9:57:b5, 2015-01-01 00:27:40.920,0.08,0.023,1.043,13.428,24.231,-5.127, , , , , , ,0.709,-2.455,-109.221
 09:39:04.872,eb:33:2e:f9:57:b5, 2015-01-01 00:27:40.920,0.064,0.028,1.021,13.428,27.1,-4.578, , , , , , ,0.78,-2.324,-109.243
 09:39:04.872,eb:33:2e:f9:57:b5, 2015-01-01 00:27:40.920,0.037,0.031,1.013,13.428,29.236,-3.845, , , , , , ,0.846,-2.181,-109.259
 09:39:04.872,eb:33:2e:f9:57:b5, 2015-01-01 00:27:40.920,0.02,0.038,0.99,13.062,29.968,-3.174, , , , , , ,0.912,-2.032,-109.276
 09:39:04.872,eb:33:2e:f9:57:b5, 2015-01-01 00:27:40.920,0,0.036,0.978,12.634,29.968,-2.502, , , , , , ,0.978,-1.884,-109.286
 09:39:04.872,eb:33:2e:f9:57:b5, 2015-01-01 00:27:40.920,-0.004,0.034,0.968,12.634,28.748,-1.709, , , , , , ,1.044,-1.736,-109.292
 09:39:04.872,eb:33:2e:f9:57:b5, 2015-01-01 00:27:40.920,-0.011,0.028,0.961,12.695,27.832,-1.282, , , , , , ,1.104,-1.593,-109.297
 09:39:04.872,eb:33:2e:f9:57:b5, 2015-01-01 00:27:40.920,-0.001,0.027,0.967,13.306,26.184,-1.038, , , , , , ,1.17,-1.461,-109.297
 09:39:04.872,eb:33:2e:f9:57:b5, 2015-01-01 00:27:40.920,0.01,0.05,0.975,13.611,24.292,-1.465, , , , , , ,1.236,-1.335,-109.303
 09:39:04.939,eb:33:2e:f9:57:b5, 2015-01-01 00:27:40.920,0.001,0.045,0.987,14.404,23.315,-2.075, , , , , , ,1.313,-1.214,-109.308
 09:39:04.939,eb:33:2e:f9:57:b5, 2015-01-01 00:27:40.920,0.006,0.035,0.99,15.381,21.973,-2.075, , , , , , ,1.384,-1.104,-109.314
 09:39:04.939,eb:33:2e:f9:57:b5, 2015-01-01 00:27:40.920,0.001,0.044,0.987,16.052,20.874,-2.014, , , , , , ,1.461,-0.994,-109.325
 09:39:04.939,eb:33:2e:f9:57:b5, 2015-01-01 00:27:40.920,0.015,0.044,0.988,16.663,19.409,-1.587, , , , , , ,1.544,-0.895,-109.33
 09:39:04.939,eb:33:2e:f9:57:b5, 2015-01-01 00:27:40.920,0.019,0.054,0.992,16.907,19.043,-1.587, , , , , , ,1.631,-0.797,-109.336
 09:39:04.939,eb:33:2e:f9:57:b5, 2015-01-01 00:27:40.920,0.014,0.06,0.994,16.785,19.714,-2.014, , , , , , ,1.714,-0.703,-109.341
 09:39:04.939,eb:33:2e:f9:57:b5, 2015-01-01 00:27:40.920,0.02,0.063,1,16.785,19.714,-2.686, , , , , , ,1.796,-0.604,-109.347
 09:39:04.939,eb:33:2e:f9:57:b5, 2015-01-01 00:27:40.920,0.041,0.062,1.011,17.09,20.02,-3.418, , , , , , ,1.884,-0.505,-109.363
 09:39:04.962,eb:33:2e:f9:57:b5, 2015-01-01 00:27:40.920,0.039,0.062,1.035,17.822,21.423,-4.639, , , , , , ,1.972,-0.396,-109.38
 09:39:04.962,eb:33:2e:f9:57:b5, 2015-01-01 00:27:40.920,0.052,0.056,1.044,19.165,23.376,-6.104, , , , , , ,2.065,-0.286,-109.402
 09:39:04.962,eb:33:2e:f9:57:b5, 2015-01-01 00:27:40.920,0.044,0.057,1.059,20.691,25.208,-7.446, , , , , , ,2.164,-0.159,-109.429
 09:39:04.962,eb:33:2e:f9:57:b5, 2015-01-01 00:27:40.920,0.061,0.062,1.063,21.79,27.344,-8.85, , , , , , ,2.274,-0.027,-109.468
 09:39:04.962,eb:33:2e:f9:57:b5, 2015-01-01 00:27:40.920,0.042,0.064,1.082,22.949,30.212,-10.559, , , , , , ,2.39,0.115,-109.512
 09:39:04.962,eb:33:2e:f9:57:b5, 2015-01-01 00:27:40.920,0.017,0.058,1.06,23.743,32.837,-11.475, , , , , , ,2.505,0.28,-109.561
 09:39:04.962,eb:33:2e:f9:57:b5, 2015-01-01 00:27:40.920,0.003,0.066,1.034,24.231,33.813,-12.146, , , , , , ,2.626,0.445,-109.611
 09:39:04.962,eb:33:2e:f9:57:b5, 2015-01-01 00:27:40.920,-0.009,0.039,1.062,24.902,35.889,-12.085, , , , , , ,2.747,0.626,-109.66
 09:39:05.007,eb:33:2e:f9:57:b5, 2015-01-01 00:27:40.920,-0.031,0.058,1.024,25.513,36.499,-12.39, , , , , , ,2.873,0.813,-109.715
 09:39:05.007,eb:33:2e:f9:57:b5, 2015-01-01 00:27:40.920,-0.011,0.059,1.006,26.062,35.767,-12.512, , , , , , ,3.005,0.994,-109.764
 09:39:05.007,eb:33:2e:f9:57:b5, 2015-01-01 00:27:40.920,-0.024,0.067,1.018,26.672,35.583,-13.245, , , , , , ,3.131,1.176,-109.819
 09:39:05.007,eb:33:2e:f9:57:b5, 2015-01-01 00:27:40.920,-0.009,0.037,1.063,28.687,34.79,-12.939, , , , , , ,3.268,1.357,-109.874
 09:39:05.007,eb:33:2e:f9:57:b5, 2015-01-01 00:27:40.920,-0.024,0.041,1.1,30.823,34.668,-12.878, , , , , , ,3.422,1.533,-109.929
 09:39:05.007,eb:33:2e:f9:57:b5, 2015-01-01 00:27:40.920,-0.152,0.005,1.176,35.645,34.18,-11.414, , , , , , ,3.587,1.708,-109.979
 09:39:05.007,eb:33:2e:f9:57:b5, 2015-01-01 00:27:40.920,-0.101,-0.05,1.187,41.687,29.297,-6.836, , , , , , ,3.779,1.868,-110.012
 09:39:05.007,eb:33:2e:f9:57:b5, 2015-01-01 00:27:40.920,-0.126,0.05,1.037,45.227,23.499,-4.211, , , , , , ,3.999,2,-110.028
 09:39:05.050,eb:33:2e:f9:57:b5, 2015-01-01 00:27:40.920,-0.234,0.089,1.019,50.781,9.949,-3.418, , , , , , ,4.241,2.082,-110.039
 09:39:05.050,eb:33:2e:f9:57:b5, 2015-01-01 00:27:40.920,-0.239,-0.076,1.315,61.34,0.305,0.366, , , , , , ,4.526,2.098,-110.045
 09:39:05.050,eb:33:2e:f9:57:b5, 2015-01-01 00:27:40.920,-0.208,-0.077,1.378,70.129,-2.441,4.028, , , , , , ,4.861,2.093,-110.034
 09:39:05.050,eb:33:2e:f9:57:b5, 2015-01-01 00:27:40.920,-0.192,-0.013,1.353,75.684,-6.042,4.883, , , , , , ,5.229,2.065,-110.012
 09:39:05.051,eb:33:2e:f9:57:b5, 2015-01-01 00:27:40.920,-0.203,-0.011,1.297,80.811,-8.118,6.287, , , , , , ,5.625,2.032,-109.984
 09:39:05.051,eb:33:2e:f9:57:b5, 2015-01-01 00:27:40.920,-0.173,-0.001,1.24,85.449,-11.536,8.301, , , , , , ,6.042,1.972,-109.951
 09:39:05.051,eb:33:2e:f9:57:b5, 2015-01-01 00:27:40.920,-0.185,0.007,1.289,90.332,-13.184,9.583, , , , , , ,6.487,1.906,-109.913
 09:39:05.051,eb:33:2e:f9:57:b5, 2015-01-01 00:27:40.920,-0.188,-0.013,1.301,96.008,-13.916,11.108, , , , , , ,6.954,1.829,-109.869
 09:39:05.074,eb:33:2e:f9:57:b5, 2015-01-01 00:27:40.920,-0.145,-0.004,1.288,101.746,-16.724,12.573, , , , , , ,7.46,1.752,-109.819
 09:39:05.074,eb:33:2e:f9:57:b5, 2015-01-01 00:27:40.920,-0.102,0.007,1.278,108.215,-20.752,13.367, , , , , , ,7.987,1.648,-109.764
 09:39:05.074,eb:33:2e:f9:57:b5, 2015-01-01 00:27:40.920,-0.054,0.019,1.299,115.234,-24.231,13.672, , , , , , ,8.547,1.522,-109.715
 09:39:05.074,eb:33:2e:f9:57:b5, 2015-01-01 00:27:40.920,0.005,0.04,1.362,122.62,-25.757,13, , , , , , ,9.146,1.384,-109.666
 09:39:05.074,eb:33:2e:f9:57:b5, 2015-01-01 00:27:40.920,0.072,0.039,1.411,131.165,-26.123,11.78, , , , , , ,9.789,1.252,-109.627
 09:39:05.074,eb:33:2e:f9:57:b5, 2015-01-01 00:27:40.920,0.088,0.056,1.429,139.954,-25.391,9.705, , , , , , ,10.47,1.115,-109.6
 09:39:05.074,eb:33:2e:f9:57:b5, 2015-01-01 00:27:40.920,0.12,0.07,1.439,148.438,-24.963,7.019, , , , , , ,11.195,0.978,-109.578
 09:39:05.074,eb:33:2e:f9:57:b5, 2015-01-01 00:27:40.920,0.128,0.055,1.498,157.776,-22.888,3.906, , , , , , ,11.964,0.857,-109.578
 09:39:05.119,eb:33:2e:f9:57:b5, 2015-01-01 00:27:40.920,0.183,0.063,1.52,167.542,-19.165,1.099, , , , , , ,12.783,0.758,-109.589
 09:39:05.120,eb:33:2e:f9:57:b5, 2015-01-01 00:27:40.920,0.22,0.095,1.562,177.124,-11.841,-2.441, , , , , , ,13.651,0.681,-109.611
 09:39:05.120,eb:33:2e:f9:57:b5, 2015-01-01 00:27:40.920,0.231,0.093,1.567,185.913,-5.737,-5.798, , , , , , ,14.557,0.648,-109.644
 09:39:05.120,eb:33:2e:f9:57:b5, 2015-01-01 00:27:40.920,0.214,0.077,1.548,195.618,0.488,-9.521, , , , , , ,15.518,0.648,-109.682
 09:39:05.120,eb:33:2e:f9:57:b5, 2015-01-01 00:27:40.920,0.205,0.07,1.553,205.566,6.165,-13.123, , , , , , ,16.529,0.687,-109.731
 09:39:05.120,eb:33:2e:f9:57:b5, 2015-01-01 00:27:40.920,0.208,0.087,1.571,213.745,13.611,-15.93, , , , , , ,17.578,0.758,-109.792
 09:39:05.122,eb:33:2e:f9:57:b5, 2015-01-01 00:27:40.920,0.214,0.08,1.607,220.825,22.217,-17.761, , , , , , ,18.666,0.873,-109.841
 09:39:05.122,eb:33:2e:f9:57:b5, 2015-01-01 00:27:40.920,0.225,0.061,1.645,229.431,30.945,-19.836, , , , , , ,19.792,1.033,-109.885
 09:39:05.164,eb:33:2e:f9:57:b5, 2015-01-01 00:27:40.920,0.225,0.046,1.634,240.112,37.476,-22.156, , , , , , ,20.973,1.236,-109.924
 09:39:05.164,eb:33:2e:f9:57:b5, 2015-01-01 00:27:40.920,0.229,0.052,1.617,250.732,42.603,-24.841, , , , , , ,22.203,1.467,-109.957
 09:39:05.164,eb:33:2e:f9:57:b5, 2015-01-01 00:27:40.920,0.199,0.048,1.628,261.169,49.255,-27.1, , , , , , ,23.489,1.736,-109.984
 09:39:05.164,eb:33:2e:f9:57:b5, 2015-01-01 00:27:40.920,0.206,0.078,1.667,270.996,53.711,-29.724, , , , , , ,24.824,2.027,-110.012
 09:39:05.164,eb:33:2e:f9:57:b5, 2015-01-01 00:27:40.920,0.237,0.071,1.752,281.677,57.678,-32.898, , , , , , ,26.208,2.357,-110.034
 09:39:05.164,eb:33:2e:f9:57:b5, 2015-01-01 00:27:40.920,0.239,0.038,1.745,295.105,60.608,-35.217, , , , , , ,27.653,2.697,-110.05
 09:39:05.164,eb:33:2e:f9:57:b5, 2015-01-01 00:27:40.920,0.207,0.173,1.812,305.908,56.763,-39.429, , , , , , ,29.158,3.043,-110.078
 09:39:05.164,eb:33:2e:f9:57:b5, 2015-01-01 00:27:40.920,0.182,0.138,1.883,318.115,51.697,-43.457, , , , , , ,30.718,3.384,-110.121
 09:39:05.209,eb:33:2e:f9:57:b5, 2015-01-01 00:27:41.280,0.242,0.137,2.093,330.811,49.561,-46.936, , , , , , ,32.344,3.719,-110.187
 09:39:05.209,eb:33:2e:f9:57:b5, 2015-01-01 00:27:41.280,0.359,0.125,2.348,346.191,49.072,-49.316, , , , , , ,34.036,4.054,-110.253
 09:39:05.209,eb:33:2e:f9:57:b5, 2015-01-01 00:27:41.280,0.559,0.164,2.427,364.746,46.021,-54.565, , , , , , ,35.815,4.406,-110.33
 09:39:05.209,eb:33:2e:f9:57:b5, 2015-01-01 00:27:41.280,0.75,0.298,2.527,382.69,37.354,-63.171, , , , , , ,37.683,4.746,-110.446
 09:39:05.209,eb:33:2e:f9:57:b5, 2015-01-01 00:27:41.280,0.765,0.212,2.554,399.475,33.447,-74.28, , , , , , ,39.628,5.098,-110.616
 09:39:05.209,eb:33:2e:f9:57:b5, 2015-01-01 00:27:41.280,0.748,0.247,2.885,411.072,42.358,-84.656, , , , , , ,41.644,5.499,-110.797
 09:39:05.209,eb:33:2e:f9:57:b5, 2015-01-01 00:27:41.280,0.752,0.093,3.343,416.443,67.505,-91.675, , , , , , ,43.704,6.01,-110.934
 09:39:05.209,eb:33:2e:f9:57:b5, 2015-01-01 00:27:41.280,0.702,-0.05,3.496,427.49,96.619,-96.13, , , , , , ,45.813,6.641,-110.967
 09:39:05.275,eb:33:2e:f9:57:b5, 2015-01-01 00:27:41.280,0.662,-0.038,3.542,440.247,122.009,-100.586, , , , , , ,47.988,7.383,-110.901
 09:39:05.275,eb:33:2e:f9:57:b5, 2015-01-01 00:27:41.280,0.599,-0.188,3.477,454.346,141.052,-102.844, , , , , , ,50.251,8.207,-110.726
 09:39:05.275,eb:33:2e:f9:57:b5, 2015-01-01 00:27:41.280,0.666,-0.066,3.216,461.426,143.433,-109.253, , , , , , ,52.586,9.075,-110.49
 09:39:05.275,eb:33:2e:f9:57:b5, 2015-01-01 00:27:41.280,0.731,-0.005,3.429,459.229,144.897,-118.713, , , , , , ,54.926,9.959,-110.248
 09:39:05.275,eb:33:2e:f9:57:b5, 2015-01-01 00:27:41.280,0.494,-0.326,3.779,466.919,177.246,-123.779, , , , , , ,57.288,10.92,-109.918
 09:39:05.275,eb:33:2e:f9:57:b5, 2015-01-01 00:27:41.280,0.507,-0.921,3.512,490.601,212.158,-121.948, , , , , , ,59.804,11.959,-109.369
 09:39:05.275,eb:33:2e:f9:57:b5, 2015-01-01 00:27:41.280,0.836,-0.924,2.797,487.854,225.83,-125.244, , , , , , ,62.408,13.035,-108.693
 09:39:05.275,eb:33:2e:f9:57:b5, 2015-01-01 00:27:41.280,0.644,-0.716,2.813,461.609,261.658,-110.535, , , , , , ,64.979,14.106,-107.82
 09:39:05.299,eb:33:2e:f9:57:b5, 2015-01-01 00:27:41.280,0.334,-0.718,2.097,424.133,282.227,-96.497, , , , , , ,67.434,15.128,-106.732
 09:39:05.299,eb:33:2e:f9:57:b5, 2015-01-01 00:27:41.280,0.362,-0.792,0.553,373.413,267.7,-78.979, , , , , , ,69.725,16.029,-105.562
 09:39:05.299,eb:33:2e:f9:57:b5, 2015-01-01 00:27:41.280,0.676,-1.18,-0.28,304.565,240.479,-52.49, , , , , , ,71.702,16.743,-104.431
 09:39:05.299,eb:33:2e:f9:57:b5, 2015-01-01 00:27:41.280,0.59,-1.648,-0.19,239.624,220.154,-34.607, , , , , , ,73.345,17.287,-103.359
 09:39:05.299,eb:33:2e:f9:57:b5, 2015-01-01 00:27:41.280,0.366,-0.927,-1.826,172.302,142.273,-55.847, , , , , , ,74.625,17.759,-102.464
 09:39:05.299,eb:33:2e:f9:57:b5, 2015-01-01 00:27:41.280,0.722,1.042,-1.586,14.099,42.725,-59.937, , , , , , ,75.108,18.138,-102.178
 09:39:05.299,eb:33:2e:f9:57:b5, 2015-01-01 00:27:41.280,0.512,0.618,-0.159,-107.727,4.15,-61.34, , , , , , ,74.789,18.468,-102.156
 09:39:05.299,eb:33:2e:f9:57:b5, 2015-01-01 00:27:41.280,0.716,-0.46,0.621,-169.189,-27.71,-51.392, , , , , , ,73.987,18.715,-102.327
 09:39:05.367,eb:33:2e:f9:57:b5, 2015-01-01 00:27:41.280,0.379,-1.646,1.705,-183.533,9.155,-36.804, , , , , , ,73.043,18.891,-102.453
 09:39:05.367,eb:33:2e:f9:57:b5, 2015-01-01 00:27:41.280,0.505,-1.655,1.392,-192.017,30.457,-28.259, , , , , , ,72.125,19.083,-102.365
 09:39:05.367,eb:33:2e:f9:57:b5, 2015-01-01 00:27:41.280,0.591,-1.389,1.491,-193.054,39.795,-23.193, , , , , , ,71.197,19.254,-102.228
 09:39:05.367,eb:33:2e:f9:57:b5, 2015-01-01 00:27:41.280,0.505,-1.148,1.518,-180.786,54.688,-20.752, , , , , , ,70.329,19.44,-102.025
 09:39:05.367,eb:33:2e:f9:57:b5, 2015-01-01 00:27:41.280,0.478,-1.019,1.306,-166.138,64.514,-17.883, , , , , , ,69.543,19.633,-101.761
 09:39:05.367,eb:33:2e:f9:57:b5, 2015-01-01 00:27:41.280,0.459,-1.028,0.991,-154.846,67.2,-13.794, , , , , , ,68.846,19.825,-101.459
 09:39:05.367,eb:33:2e:f9:57:b5, 2015-01-01 00:27:41.280,0.445,-1.062,0.573,-149.963,60.364,-8.179, , , , , , ,68.192,19.99,-101.162
 09:39:05.367,eb:33:2e:f9:57:b5, 2015-01-01 00:27:41.280,0.422,-1.041,0.212,-152.832,45.532,-1.709, , , , , , ,67.516,20.105,-100.915
 09:39:05.370,eb:33:2e:f9:57:b5, 2015-01-01 00:27:41.280,0.392,-0.965,-0.027,-163.696,24.658,4.761, , , , , , ,66.758,20.16,-100.756
 09:39:05.370,eb:33:2e:f9:57:b5, 2015-01-01 00:27:41.280,0.376,-0.887,-0.171,-181.58,-0.061,11.475, , , , , , ,65.912,20.138,-100.69
 09:39:05.370,eb:33:2e:f9:57:b5, 2015-01-01 00:27:41.280,0.357,-0.86,-0.215,-204.529,-24.475,18.738, , , , , , ,64.924,20.034,-100.723
 09:39:05.370,eb:33:2e:f9:57:b5, 2015-01-01 00:27:41.280,0.322,-0.891,-0.156,-229.858,-44.983,27.1, , , , , , ,63.781,19.847,-100.849
 09:39:05.370,eb:33:2e:f9:57:b5, 2015-01-01 00:27:41.280,0.299,-0.933,-0.027,-254.761,-60.181,36.316, , , , , , ,62.474,19.578,-101.041
 09:39:05.370,eb:33:2e:f9:57:b5, 2015-01-01 00:27:41.280,0.284,-0.949,0.152,-277.344,-69.397,46.021, , , , , , ,61.062,19.232,-101.245
 09:39:05.370,eb:33:2e:f9:57:b5, 2015-01-01 00:27:41.280,0.274,-0.928,0.33,-296.936,-73.73,55.664, , , , , , ,59.551,18.831,-101.437
 09:39:05.370,eb:33:2e:f9:57:b5, 2015-01-01 00:27:41.280,0.271,-0.883,0.468,-314.27,-74.646,65.063, , , , , , ,57.958,18.375,-101.607
 09:39:05.412,eb:33:2e:f9:57:b5, 2015-01-01 00:27:41.280,0.284,-0.827,0.571,-329.346,-74.158,73.486, , , , , , ,56.277,17.875,-101.744
 09:39:05.412,eb:33:2e:f9:57:b5, 2015-01-01 00:27:41.280,0.305,-0.761,0.66,-341.797,-73.914,80.383, , , , , , ,54.564,17.342,-101.832
 09:39:05.412,eb:33:2e:f9:57:b5, 2015-01-01 00:27:41.280,0.33,-0.678,0.708,-351.44,-75.5,85.022, , , , , , ,52.806,16.782,-101.887
 09:39:05.412,eb:33:2e:f9:57:b5, 2015-01-01 00:27:41.280,0.364,-0.581,0.72,-359.253,-79.651,87.646, , , , , , ,51.01,16.205,-101.926
 09:39:05.412,eb:33:2e:f9:57:b5, 2015-01-01 00:27:41.280,0.401,-0.485,0.743,-365.723,-85.449,88.318, , , , , , ,49.158,15.595,-101.975
 09:39:05.412,eb:33:2e:f9:57:b5, 2015-01-01 00:27:41.280,0.425,-0.408,0.787,-370.605,-92.346,87.097, , , , , , ,47.302,14.969,-102.019
 09:39:05.412,eb:33:2e:f9:57:b5, 2015-01-01 00:27:41.280,0.445,-0.34,0.841,-374.084,-99.976,84.351, , , , , , ,45.423,14.321,-102.074
 09:39:05.413,eb:33:2e:f9:57:b5, 2015-01-01 00:27:41.280,0.461,-0.285,0.917,-376.099,-107.239,80.383, , , , , , ,43.528,13.661,-102.151
 09:39:05.434,eb:33:2e:f9:57:b5, 2015-01-01 00:27:41.280,0.471,-0.233,1.014,-376.587,-113.159,75.5, , , , , , ,41.6,12.986,-102.25
 09:39:05.434,eb:33:2e:f9:57:b5, 2015-01-01 00:27:41.280,0.479,-0.175,1.115,-375.793,-117.432,69.946, , , , , , ,39.694,12.31,-102.36
 09:39:05.434,eb:33:2e:f9:57:b5, 2015-01-01 00:27:41.280,0.479,-0.109,1.204,-374.329,-120.728,63.599, , , , , , ,37.793,11.635,-102.475
 09:39:05.434,eb:33:2e:f9:57:b5, 2015-01-01 00:27:41.280,0.468,-0.042,1.266,-373.169,-123.962,56.641, , , , , , ,35.898,10.97,-102.607
 09:39:05.434,eb:33:2e:f9:57:b5, 2015-01-01 00:27:41.280,0.45,0.015,1.316,-373.413,-128.174,47.424, , , , , , ,33.975,10.294,-102.772
 09:39:05.434,eb:33:2e:f9:57:b5, 2015-01-01 00:27:41.280,0.425,0.045,1.354,-375.305,-131.409,39.49, , , , , , ,32.069,9.635,-102.947
 09:39:05.434,eb:33:2e:f9:57:b5, 2015-01-01 00:27:41.280,0.401,0.055,1.408,-378.174,-133.484,31.921, , , , , , ,30.152,8.976,-103.145
 09:39:05.434,eb:33:2e:f9:57:b5, 2015-01-01 00:27:41.280,0.384,0.061,1.471,-381.104,-134.216,24.78, , , , , , ,28.218,8.322,-103.354
 09:39:05.523,eb:33:2e:f9:57:b5, 2015-01-01 00:27:41.280,0.338,0.075,1.54,-383.423,-133.85,17.761, , , , , , ,26.252,7.668,-103.579
 09:39:05.523,eb:33:2e:f9:57:b5, 2015-01-01 00:27:41.280,0.301,0.078,1.618,-383.911,-132.263,12.329, , , , , , ,24.302,7.037,-103.799
 09:39:05.523,eb:33:2e:f9:57:b5, 2015-01-01 00:27:41.280,0.317,0.117,1.68,-382.935,-130.066,6.165, , , , , , ,22.357,6.416,-104.019
 09:39:05.523,eb:33:2e:f9:57:b5, 2015-01-01 00:27:41.280,0.305,0.148,1.658,-380.31,-132.751,0.183, , , , , , ,20.424,5.801,-104.249
 09:39:05.523,eb:33:2e:f9:57:b5, 2015-01-01 00:27:41.280,0.279,0.157,1.698,-375.732,-135.315,-5.432, , , , , , ,18.484,5.164,-104.496
 09:39:05.523,eb:33:2e:f9:57:b5, 2015-01-01 00:27:41.280,0.273,0.163,1.768,-369.934,-138.489,-10.193, , , , , , ,16.6,4.521,-104.744
 09:39:05.523,eb:33:2e:f9:57:b5, 2015-01-01 00:27:41.280,0.258,0.167,1.831,-364.807,-141.052,-14.221, , , , , , ,14.749,3.862,-104.991
 09:39:05.523,eb:33:2e:f9:57:b5, 2015-01-01 00:27:41.280,0.253,0.16,1.86,-361.145,-143.127,-17.7, , , , , , ,12.92,3.192,-105.244
 09:39:05.527,eb:33:2e:f9:57:b5, 2015-01-01 00:27:41.280,0.263,0.147,1.888,-358.337,-144.653,-20.752, , , , , , ,11.085,2.494,-105.496
 09:39:05.527,eb:33:2e:f9:57:b5, 2015-01-01 00:27:41.280,0.275,0.151,1.917,-355.896,-146.79,-24.048, , , , , , ,9.289,1.796,-105.732
 09:39:05.527,eb:33:2e:f9:57:b5, 2015-01-01 00:27:41.280,0.284,0.172,1.944,-352.966,-150.635,-27.954, , , , , , ,7.509,1.077,-105.974
 09:39:05.527,eb:33:2e:f9:57:b5, 2015-01-01 00:27:41.280,0.292,0.199,1.984,-348.511,-155.884,-32.166, , , , , , ,5.751,0.335,-106.216
 09:39:05.527,eb:33:2e:f9:57:b5, 2015-01-01 00:27:41.280,0.299,0.226,2.052,-342.407,-161.072,-36.194, , , , , , ,3.999,-0.45,-106.458
 09:39:05.527,eb:33:2e:f9:57:b5, 2015-01-01 00:27:41.280,0.281,0.248,2.139,-334.961,-164.978,-39.856, , , , , , ,2.313,-1.258,-106.694
 09:39:05.527,eb:33:2e:f9:57:b5, 2015-01-01 00:27:41.280,0.245,0.276,2.199,-327.637,-168.762,-43.091, , , , , , ,0.665,-2.087,-106.924
 09:39:05.527,eb:33:2e:f9:57:b5, 2015-01-01 00:27:41.280,0.195,0.296,2.212,-322.449,-173.035,-45.349, , , , , , ,-0.939,-2.944,-107.15
 09:39:05.570,eb:33:2e:f9:57:b5, 2015-01-01 00:27:41.280,0.126,0.295,2.203,-320.557,-178.162,-46.326, , , , , , ,-2.56,-3.845,-107.353
 09:39:05.570,eb:33:2e:f9:57:b5, 2015-01-01 00:27:41.280,0.034,0.29,2.192,-322.144,-184.082,-45.593, , , , , , ,-4.153,-4.768,-107.529
 09:39:05.570,eb:33:2e:f9:57:b5, 2015-01-01 00:27:41.280,-0.082,0.282,2.198,-326.843,-190.186,-42.725, , , , , , ,-5.768,-5.718,-107.666
 09:39:05.570,eb:33:2e:f9:57:b5, 2015-01-01 00:27:41.280,-0.19,0.266,2.231,-333.191,-195.251,-37.354, , , , , , ,-7.41,-6.707,-107.754
 09:39:05.570,eb:33:2e:f9:57:b5, 2015-01-01 00:27:41.280,-0.308,0.24,2.337,-339.111,-197.327,-29.541, , , , , , ,-9.119,-7.712,-107.776
 09:39:05.570,eb:33:2e:f9:57:b5, 2015-01-01 00:27:41.280,-0.398,0.271,2.444,-343.201,-197.998,-19.47, , , , , , ,-10.838,-8.707,-107.721
 09:39:05.570,eb:33:2e:f9:57:b5, 2015-01-01 00:27:41.280,-0.468,0.36,2.565,-344.727,-196.289,-7.263, , , , , , ,-12.585,-9.684,-107.578
 09:39:05.570,eb:33:2e:f9:57:b5, 2015-01-01 00:27:41.280,-0.529,0.461,2.721,-342.651,-191.589,5.798, , , , , , ,-14.343,-10.629,-107.347
 09:39:05.613,eb:33:2e:f9:57:b5, 2015-01-01 00:27:41.680,-0.567,0.589,2.844,-337.952,-183.594,19.47, , , , , , ,-16.128,-11.525,-107.029
 09:39:05.613,eb:33:2e:f9:57:b5, 2015-01-01 00:27:41.680,-0.584,0.747,2.922,-331.787,-172.729,33.63, , , , , , ,-17.886,-12.332,-106.622
 09:39:05.613,eb:33:2e:f9:57:b5, 2015-01-01 00:27:41.680,-0.583,0.93,2.975,-324.158,-159.973,47.424, , , , , , ,-19.627,-13.046,-106.15
 09:39:05.613,eb:33:2e:f9:57:b5, 2015-01-01 00:27:41.680,-0.563,1.155,2.999,-315.186,-146.729,59.998, , , , , , ,-21.352,-13.661,-105.612
 09:39:05.613,eb:33:2e:f9:57:b5, 2015-01-01 00:27:41.680,-0.527,1.414,2.99,-304.382,-133.667,70.618, , , , , , ,-23.055,-14.183,-105.018
 09:39:05.613,eb:33:2e:f9:57:b5, 2015-01-01 00:27:41.680,-0.487,1.722,2.919,-291.809,-121.216,78.613, , , , , , ,-24.697,-14.612,-104.398
 09:39:05.613,eb:33:2e:f9:57:b5, 2015-01-01 00:27:41.680,-0.459,2.081,2.787,-276.672,-110.413,83.191, , , , , , ,-26.274,-14.952,-103.766
 09:39:05.613,eb:33:2e:f9:57:b5, 2015-01-01 00:27:41.680,-0.455,2.545,2.583,-251.587,-102.6,83.008, , , , , , ,-27.757,-15.233,-103.129
 09:39:05.636,eb:33:2e:f9:57:b5, 2015-01-01 00:27:41.680,-0.529,2.921,2.393,-222.351,-101.624,76.843, , , , , , ,-29.108,-15.491,-102.513
 09:39:05.636,eb:33:2e:f9:57:b5, 2015-01-01 00:27:41.680,-0.706,3.3,2.114,-186.768,-109.863,65.613, , , , , , ,-30.278,-15.776,-101.92
 09:39:05.636,eb:33:2e:f9:57:b5, 2015-01-01 00:27:41.680,-0.99,3.64,1.822,-149.292,-125.671,51.453, , , , , , ,-31.256,-16.144,-101.349
 09:39:05.636,eb:33:2e:f9:57:b5, 2015-01-01 00:27:41.680,-1.328,3.867,1.679,-112.854,-140.503,37.292, , , , , , ,-32.053,-16.606,-100.789
 09:39:05.636,eb:33:2e:f9:57:b5, 2015-01-01 00:27:41.680,-1.608,3.997,1.74,-78.369,-145.386,25.452, , , , , , ,-32.679,-17.139,-100.25
 09:39:05.636,eb:33:2e:f9:57:b5, 2015-01-01 00:27:41.680,-1.776,4.035,2.003,-46.753,-132.996,17.273, , , , , , ,-33.118,-17.672,-99.767
 09:39:05.636,eb:33:2e:f9:57:b5, 2015-01-01 00:27:41.680,-1.795,3.955,2.378,-18.372,-98.511,12.146, , , , , , ,-33.387,-18.111,-99.377
 09:39:05.636,eb:33:2e:f9:57:b5, 2015-01-01 00:27:41.680,-1.655,3.737,2.733,8.179,-42.908,8.972, , , , , , ,-33.475,-18.358,-99.135
 09:39:05.682,eb:33:2e:f9:57:b5, 2015-01-01 00:27:41.680,-1.424,3.427,2.88,33.447,24.17,5.554, , , , , , ,-33.371,-18.353,-99.097
 09:39:05.682,eb:33:2e:f9:57:b5, 2015-01-01 00:27:41.680,-1.158,3.101,2.715,56.458,85.327,1.038, , , , , , ,-33.085,-18.083,-99.261
 09:39:05.682,eb:33:2e:f9:57:b5, 2015-01-01 00:27:41.680,-0.905,2.791,2.363,76.965,127.38,-5.432, , , , , , ,-32.64,-17.622,-99.597
 09:39:05.682,eb:33:2e:f9:57:b5, 2015-01-01 00:27:41.680,-0.71,2.492,1.938,94.177,145.752,-14.465, , , , , , ,-32.069,-17.056,-100.036
 09:39:05.682,eb:33:2e:f9:57:b5, 2015-01-01 00:27:41.680,-0.572,2.181,1.496,106.934,143.372,-25.208, , , , , , ,-31.41,-16.49,-100.53
 09:39:05.682,eb:33:2e:f9:57:b5, 2015-01-01 00:27:41.680,-0.478,1.841,1.148,116.333,127.441,-35.4, , , , , , ,-30.707,-15.996,-101.03
 09:39:05.682,eb:33:2e:f9:57:b5, 2015-01-01 00:27:41.680,0.272,1.51,0.973,124.451,105.103,-44.067, , , , , , ,-29.971,-15.606,-101.519
 09:39:05.682,eb:33:2e:f9:57:b5, 2015-01-01 00:27:41.680,3.369,0.407,2.466,210.266,-40.283,-110.046, , , , , , ,-29.086,-15.595,-101.926
 09:39:05.727,eb:33:2e:f9:57:b5, 2015-01-01 00:27:41.680,0.091,-3.316,4.811,284.546,207.825,-116.943, , , , , , ,-27.504,-15.304,-102.881
 09:39:05.727,eb:33:2e:f9:57:b5, 2015-01-01 00:27:41.680,1.646,-1.223,-0.292,295.593,28.687,-179.199, , , , , , ,-25.796,-15.403,-103.716
 09:39:05.727,eb:33:2e:f9:57:b5, 2015-01-01 00:27:41.680,1.61,-1.246,1.502,283.875,49.438,-173.645, , , , , , ,-24.12,-15.513,-104.656
 09:39:05.727,eb:33:2e:f9:57:b5, 2015-01-01 00:27:41.680,-0.229,-1.716,1.727,308.35,116.516,-172.18, , , , , , ,-22.352,-15.48,-105.634
 09:39:05.727,eb:33:2e:f9:57:b5, 2015-01-01 00:27:41.680,0.052,-2.367,1.725,371.521,173.95,-111.572, , , , , , ,-20.38,-15.018,-106.6
 09:39:05.727,eb:33:2e:f9:57:b5, 2015-01-01 00:27:41.680,-0.739,-1.018,1.324,407.104,193.787,-86.487, , , , , , ,-18.199,-14.282,-107.391
 09:39:05.727,eb:33:2e:f9:57:b5, 2015-01-01 00:27:41.680,-0.941,-0.714,1.23,423.218,190.308,-62.378, , , , , , ,-15.947,-13.469,-108.034
 09:39:05.727,eb:33:2e:f9:57:b5, 2015-01-01 00:27:41.680,-1.083,0.527,1.128,389.526,167.725,-39.001, , , , , , ,-13.804,-12.673,-108.517
 09:39:05.793,eb:33:2e:f9:57:b5, 2015-01-01 00:27:41.680,-0.683,1.236,1.247,320.312,127.38,-22.217, , , , , , ,-11.986,-11.992,-108.825
 09:39:05.793,eb:33:2e:f9:57:b5, 2015-01-01 00:27:41.680,-0.338,1.251,1.348,249.023,99.182,-16.724, , , , , , ,-10.563,-11.481,-109.023
 09:39:05.793,eb:33:2e:f9:57:b5, 2015-01-01 00:27:41.680,-0.176,0.876,1.496,196.838,90.881,-18.311, , , , , , ,-9.454,-11.03,-109.193
 09:39:05.793,eb:33:2e:f9:57:b5, 2015-01-01 00:27:41.680,-0.138,0.475,1.468,167.48,86.121,-21.973, , , , , , ,-8.531,-10.613,-109.369
 09:39:05.793,eb:33:2e:f9:57:b5, 2015-01-01 00:27:41.680,-0.097,0.367,1.367,141.357,81.909,-24.231, , , , , , ,-7.734,-10.212,-109.55
 09:39:05.793,eb:33:2e:f9:57:b5, 2015-01-01 00:27:41.680,-0.103,-0.063,1.164,132.08,73.486,-18.005, , , , , , ,-7.037,-9.844,-109.704
 09:39:05.793,eb:33:2e:f9:57:b5, 2015-01-01 00:27:41.680,-0.045,-0.183,0.894,131.226,61.279,-14.038, , , , , , ,-6.361,-9.525,-109.819
 09:39:05.793,eb:33:2e:f9:57:b5, 2015-01-01 00:27:41.680,0.264,-0.132,0.841,128.235,51.88,-11.902, , , , , , ,-5.696,-9.256,-109.913
 09:39:05.815,eb:33:2e:f9:57:b5, 2015-01-01 00:27:41.680,0.402,0.275,1,106.812,52.551,-12.573, , , , , , ,-5.092,-9.003,-110.001
 09:39:05.815,eb:33:2e:f9:57:b5, 2015-01-01 00:27:41.680,0.217,0.239,1.055,96.069,61.829,-14.526, , , , , , ,-4.581,-8.718,-110.094
 09:39:05.815,eb:33:2e:f9:57:b5, 2015-01-01 00:27:41.680,0.131,0.272,0.972,83.679,63.843,-15.442, , , , , , ,-4.12,-8.41,-110.193
 09:39:05.815,eb:33:2e:f9:57:b5, 2015-01-01 00:27:41.680,0.198,0.317,0.927,65.857,59.082,-11.169, , , , , , ,-3.746,-8.108,-110.281
 09:39:05.815,eb:33:2e:f9:57:b5, 2015-01-01 00:27:41.680,0.159,0.214,0.958,53.528,56.213,-5.981, , , , , , ,-3.439,-7.822,-110.341
 09:39:05.815,eb:33:2e:f9:57:b5, 2015-01-01 00:27:41.680,0.113,0.212,0.98,41.016,52.917,0.671, , , , , , ,-3.208,-7.553,-110.363
 09:39:05.815,eb:33:2e:f9:57:b5, 2015-01-01 00:27:41.680,0.012,0.136,0.982,32.959,48.096,4.272, , , , , , ,-3.027,-7.3,-110.363
 09:39:05.815,eb:33:2e:f9:57:b5, 2015-01-01 00:27:41.680,-0.023,0.063,0.96,28.32,40.466,5.371, , , , , , ,-2.884,-7.081,-110.347
 09:39:05.838,eb:33:2e:f9:57:b5, 2015-01-01 00:27:41.680,-0.044,0.002,0.987,27.771,31.189,3.296, , , , , , ,-2.736,-6.899,-110.336
 09:39:05.838,eb:33:2e:f9:57:b5, 2015-01-01 00:27:41.680,0,-0.033,0.984,28.687,22.339,0.244, , , , , , ,-2.598,-6.773,-110.336
 09:39:05.838,eb:33:2e:f9:57:b5, 2015-01-01 00:27:41.680,0.084,-0.033,0.988,29.419,15.015,-1.709, , , , , , ,-2.45,-6.685,-110.341
 09:39:05.838,eb:33:2e:f9:57:b5, 2015-01-01 00:27:41.680,0.097,-0.001,1.026,28.259,11.902,-1.404, , , , , , ,-2.307,-6.619,-110.352
 09:39:05.838,eb:33:2e:f9:57:b5, 2015-01-01 00:27:41.680,0.061,0.013,1.028,26.672,9.583,0.427, , , , , , ,-2.159,-6.564,-110.358
 09:39:05.838,eb:33:2e:f9:57:b5, 2015-01-01 00:27:41.680,0.034,0.004,1.018,25.757,6.836,1.587, , , , , , ,-2.032,-6.526,-110.352
 09:39:05.838,eb:33:2e:f9:57:b5, 2015-01-01 00:27:41.680,0.033,-0.006,0.993,25.757,3.54,1.038, , , , , , ,-1.906,-6.498,-110.347
 09:39:05.838,eb:33:2e:f9:57:b5, 2015-01-01 00:27:41.680,0.048,0.001,0.987,25.818,-0.244,0.122, , , , , , ,-1.774,-6.493,-110.341
 09:39:05.884,eb:33:2e:f9:57:b5, 2015-01-01 00:27:41.680,0.088,0.005,1.009,25.574,-2.991,-0.183, , , , , , ,-1.642,-6.498,-110.341
 09:39:05.884,eb:33:2e:f9:57:b5, 2015-01-01 00:27:41.680,0.102,0.003,1.032,25.33,-2.93,-0.977, , , , , , ,-1.516,-6.515,-110.347
 09:39:05.884,eb:33:2e:f9:57:b5, 2015-01-01 00:27:41.680,0.095,-0.002,1.042,25.391,-1.343,-1.648, , , , , , ,-1.39,-6.526,-110.352
 09:39:05.884,eb:33:2e:f9:57:b5, 2015-01-01 00:27:41.680,0.073,0.005,1.022,25.269,0,-2.563, , , , , , ,-1.258,-6.531,-110.363
 09:39:05.884,eb:33:2e:f9:57:b5, 2015-01-01 00:27:41.680,0.061,0.009,0.999,25.269,-0.427,-3.845, , , , , , ,-1.126,-6.526,-110.38
 09:39:05.884,eb:33:2e:f9:57:b5, 2015-01-01 00:27:41.680,0.096,0.004,0.994,25.574,-1.892,-5.066, , , , , , ,-0.994,-6.531,-110.402
 09:39:05.885,eb:33:2e:f9:57:b5, 2015-01-01 00:27:41.680,0.111,0.017,1.002,25.757,-2.686,-7.08, , , , , , ,-0.862,-6.548,-110.429
 09:39:05.885,eb:33:2e:f9:57:b5, 2015-01-01 00:27:41.680,0.132,0.021,1.009,25.269,-2.319,-8.118, , , , , , ,-0.731,-6.564,-110.473
 09:39:05.928,eb:33:2e:f9:57:b5, 2015-01-01 00:27:41.995,0.153,0.028,1.021,24.231,-0.427,-7.935, , , , , , ,-0.599,-6.564,-110.511
 09:39:05.928,eb:33:2e:f9:57:b5, 2015-01-01 00:27:41.995,0.134,0.039,1.019,22.827,3.357,-7.446, , , , , , ,-0.478,-6.553,-110.55
 09:39:05.928,eb:33:2e:f9:57:b5, 2015-01-01 00:27:41.995,0.069,0.014,1.025,22.766,6.836,-6.409, , , , , , ,-0.363,-6.531,-110.583
 09:39:05.928,eb:33:2e:f9:57:b5, 2015-01-01 00:27:41.995,0.068,-0.009,1.002,23.315,8.118,-3.906, , , , , , ,-0.242,-6.493,-110.61
 09:39:05.928,eb:33:2e:f9:57:b5, 2015-01-01 00:27:41.995,0.055,0.021,0.972,23.071,8.301,-3.174, , , , , , ,-0.115,-6.443,-110.627
 09:39:05.928,eb:33:2e:f9:57:b5, 2015-01-01 00:27:41.995,0.083,0.013,0.986,23.682,6.958,-2.014, , , , , , ,0,-6.411,-110.638
 09:39:05.928,eb:33:2e:f9:57:b5, 2015-01-01 00:27:41.995,0.113,0.025,0.976,23.56,7.141,-1.404, , , , , , ,0.115,-6.372,-110.643
 09:39:05.928,eb:33:2e:f9:57:b5, 2015-01-01 00:27:41.995,0.128,0.042,0.971,22.278,8.301,-1.465, , , , , , ,0.225,-6.334,-110.654
 09:39:05.975,eb:33:2e:f9:57:b5, 2015-01-01 00:27:41.995,0.123,0.04,0.983,21.545,9.338,-1.831, , , , , , ,0.346,-6.284,-110.66
 09:39:05.975,eb:33:2e:f9:57:b5, 2015-01-01 00:27:41.995,0.062,0.022,0.992,21.606,9.827,-1.892, , , , , , ,0.45,-6.235,-110.671
 09:39:05.975,eb:33:2e:f9:57:b5, 2015-01-01 00:27:41.995,0.052,-0.006,1.005,23.438,8.606,0.61, , , , , , ,0.566,-6.191,-110.671
 09:39:05.975,eb:33:2e:f9:57:b5, 2015-01-01 00:27:41.995,0.056,0.038,0.963,22.827,7.874,2.747, , , , , , ,0.681,-6.152,-110.66
 09:39:05.975,eb:33:2e:f9:57:b5, 2015-01-01 00:27:41.995,0.086,0.031,0.971,22.644,7.202,4.7, , , , , , ,0.797,-6.108,-110.643
 09:39:05.975,eb:33:2e:f9:57:b5, 2015-01-01 00:27:41.995,0.118,0.053,0.955,21.79,6.897,5.188, , , , , , ,0.906,-6.075,-110.616
 09:39:05.975,eb:33:2e:f9:57:b5, 2015-01-01 00:27:41.995,0.115,0.058,0.976,21.179,6.592,4.456, , , , , , ,1.011,-6.042,-110.588
 09:39:05.975,eb:33:2e:f9:57:b5, 2015-01-01 00:27:41.995,0.101,0.058,0.975,20.935,6.775,4.639, , , , , , ,1.11,-6.015,-110.566
 09:39:06.041,eb:33:2e:f9:57:b5, 2015-01-01 00:27:41.995,0.085,0.036,1.012,21.851,7.08,6.165, , , , , , ,1.219,-5.971,-110.539
 09:39:06.041,eb:33:2e:f9:57:b5, 2015-01-01 00:27:41.995,0.132,0.038,0.994,22.644,5.859,7.874, , , , , , ,1.329,-5.944,-110.5
 09:39:06.041,eb:33:2e:f9:57:b5, 2015-01-01 00:27:41.995,0.123,0.037,1.016,23.499,3.662,10.071, , , , , , ,1.439,-5.922,-110.451
 09:39:06.041,eb:33:2e:f9:57:b5, 2015-01-01 00:27:41.995,0.149,0.069,0.99,23.499,4.15,9.033, , , , , , ,1.549,-5.9,-110.402
 09:39:06.041,eb:33:2e:f9:57:b5, 2015-01-01 00:27:41.995,0.142,0.077,0.997,23.254,5.066,7.019, , , , , , ,1.67,-5.872,-110.363
 09:39:06.041,eb:33:2e:f9:57:b5, 2015-01-01 00:27:41.995,0.139,0.08,0.976,22.949,5.615,5.676, , , , , , ,1.78,-5.85,-110.33
 09:39:06.041,eb:33:2e:f9:57:b5, 2015-01-01 00:27:41.995,0.11,0.087,0.98,22.583,6.287,3.784, , , , , , ,1.895,-5.817,-110.308
 09:39:06.041,eb:33:2e:f9:57:b5, 2015-01-01 00:27:41.995,0.101,0.072,0.984,22.278,7.629,3.113, , , , , , ,2,-5.784,-110.292
 09:39:06.043,eb:33:2e:f9:57:b5, 2015-01-01 00:27:41.995,0.098,0.07,0.981,21.851,8.972,2.747, , , , , , ,2.12,-5.735,-110.27
 09:39:06.043,eb:33:2e:f9:57:b5, 2015-01-01 00:27:41.995,0.121,0.061,1,21.973,10.864,2.258, , , , , , ,2.225,-5.691,-110.259
 09:39:06.043,eb:33:2e:f9:57:b5, 2015-01-01 00:27:41.995,0.155,0.067,1.012,22.278,13.306,1.526, , , , , , ,2.335,-5.63,-110.248
 09:39:06.043,eb:33:2e:f9:57:b5, 2015-01-01 00:27:41.995,0.167,0.085,1.007,22.156,16.479,-0.122, , , , , , ,2.444,-5.554,-110.237
 09:39:06.043,eb:33:2e:f9:57:b5, 2015-01-01 00:27:41.995,0.162,0.076,1.03,22.583,20.264,-1.343, , , , , , ,2.565,-5.455,-110.237
 09:39:06.043,eb:33:2e:f9:57:b5, 2015-01-01 00:27:41.995,0.164,0.071,1.032,23.254,23.743,-2.258, , , , , , ,2.681,-5.345,-110.242
 09:39:06.043,eb:33:2e:f9:57:b5, 2015-01-01 00:27:41.995,0.165,0.079,1.031,23.804,27.71,-3.54, , , , , , ,2.796,-5.213,-110.253
 09:39:06.043,eb:33:2e:f9:57:b5, 2015-01-01 00:27:41.995,0.155,0.081,1.035,24.475,31.372,-4.761, , , , , , ,2.917,-5.065,-110.264
 09:39:06.086,eb:33:2e:f9:57:b5, 2015-01-01 00:27:41.995,0.141,0.08,1.029,25.391,34.302,-5.615, , , , , , ,3.054,-4.889,-110.286
 09:39:06.086,eb:33:2e:f9:57:b5, 2015-01-01 00:27:41.995,0.119,0.081,1.022,26.001,36.865,-6.348, , , , , , ,3.181,-4.713,-110.303
 09:39:06.086,eb:33:2e:f9:57:b5, 2015-01-01 00:27:41.995,0.097,0.087,1.005,26.489,38.269,-7.019, , , , , , ,3.312,-4.521,-110.325
 09:39:06.086,eb:33:2e:f9:57:b5, 2015-01-01 00:27:41.995,0.082,0.082,1.011,27.283,38.025,-7.751, , , , , , ,3.45,-4.329,-110.352
 09:39:06.086,eb:33:2e:f9:57:b5, 2015-01-01 00:27:41.995,0.074,0.073,1.021,29.053,36.255,-8.484, , , , , , ,3.604,-4.136,-110.38
 09:39:06.086,eb:33:2e:f9:57:b5, 2015-01-01 00:27:41.995,0.06,0.062,1.099,31.067,35.767,-9.399, , , , , , ,3.752,-3.955,-110.418
 09:39:06.086,eb:33:2e:f9:57:b5, 2015-01-01 00:27:41.995,0.037,0.039,1.143,34.18,36.926,-9.888, , , , , , ,3.917,-3.768,-110.451
 09:39:06.086,eb:33:2e:f9:57:b5, 2015-01-01 00:27:41.995,0.001,0.066,1.083,36.743,34.485,-10.559, , , , , , ,4.098,-3.587,-110.49
 09:39:06.132,eb:33:2e:f9:57:b5, 2015-01-01 00:27:41.995,-0.014,0.035,1.117,39.612,32.166,-10.254, , , , , , ,4.301,-3.417,-110.528
 09:39:06.132,eb:33:2e:f9:57:b5, 2015-01-01 00:27:41.995,0.042,0.02,1.185,42.603,30.579,-9.216, , , , , , ,4.51,-3.257,-110.566
 09:39:06.132,eb:33:2e:f9:57:b5, 2015-01-01 00:27:41.995,0.048,0.027,1.168,47.363,29.48,-8.972, , , , , , ,4.735,-3.104,-110.599
 09:39:06.132,eb:33:2e:f9:57:b5, 2015-01-01 00:27:41.995,-0.024,0.11,1.079,50.659,25.94,-11.047, , , , , , ,4.988,-2.966,-110.638
 09:39:06.132,eb:33:2e:f9:57:b5, 2015-01-01 00:27:41.995,-0.089,0.074,1.082,52.429,24.231,-10.62, , , , , , ,5.251,-2.829,-110.682
 09:39:06.132,eb:33:2e:f9:57:b5, 2015-01-01 00:27:41.995,-0.085,0.025,1.11,56.641,20.386,-8.301, , , , , , ,5.526,-2.719,-110.715
 09:39:06.132,eb:33:2e:f9:57:b5, 2015-01-01 00:27:41.995,-0.079,0.045,1.09,61.218,14.648,-6.775, , , , , , ,5.828,-2.626,-110.742
 09:39:06.132,eb:33:2e:f9:57:b5, 2015-01-01 00:27:41.995,-0.078,0.068,1.102,65.186,7.935,-6.348, , , , , , ,6.147,-2.571,-110.77
 09:39:06.175,eb:33:2e:f9:57:b5, 2015-01-01 00:27:41.995,-0.03,0.046,1.177,68.97,4.578,-4.639, , , , , , ,6.493,-2.538,-110.792
 09:39:06.175,eb:33:2e:f9:57:b5, 2015-01-01 00:27:41.995,-0.017,0.02,1.313,74.341,6.104,-2.869, , , , , , ,6.85,-2.51,-110.808
 09:39:06.175,eb:33:2e:f9:57:b5, 2015-01-01 00:27:41.995,-0.026,0.037,1.298,80.688,6.897,-1.648, , , , , , ,7.24,-2.477,-110.814
 09:39:06.175,eb:33:2e:f9:57:b5, 2015-01-01 00:27:41.995,-0.022,0.077,1.239,85.388,4.211,-2.258, , , , , , ,7.657,-2.444,-110.819
 09:39:06.175,eb:33:2e:f9:57:b5, 2015-01-01 00:27:41.995,-0.031,0.077,1.202,90.088,0.671,-2.747, , , , , , ,8.108,-2.428,-110.83
 09:39:06.175,eb:33:2e:f9:57:b5, 2015-01-01 00:27:41.995,0.004,0.077,1.235,94.421,-2.197,-2.38, , , , , , ,8.569,-2.433,-110.841
 09:39:06.175,eb:33:2e:f9:57:b5, 2015-01-01 00:27:41.995,0.045,0.057,1.283,100.586,-2.991,-1.953, , , , , , ,9.058,-2.444,-110.852
 09:39:06.175,eb:33:2e:f9:57:b5, 2015-01-01 00:27:41.995,0.128,0.098,1.265,107.361,-6.653,-2.625, , , , , , ,9.58,-2.472,-110.869
 09:39:06.199,eb:33:2e:f9:57:b5, 2015-01-01 00:27:42.285,0.16,0.146,1.306,113.098,-9.155,-4.761, , , , , , ,10.146,-2.505,-110.896
 09:39:06.199,eb:33:2e:f9:57:b5, 2015-01-01 00:27:42.285,0.13,0.146,1.37,118.347,-9.338,-7.019, , , , , , ,10.728,-2.549,-110.934
 09:39:06.199,eb:33:2e:f9:57:b5, 2015-01-01 00:27:42.285,0.053,0.037,1.481,124.695,-2.502,-7.629, , , , , , ,11.338,-2.565,-110.978
 09:39:06.199,eb:33:2e:f9:57:b5, 2015-01-01 00:27:42.285,0.091,-0.007,1.536,132.324,5.493,-5.188, , , , , , ,11.981,-2.549,-111.006
 09:39:06.199,eb:33:2e:f9:57:b5, 2015-01-01 00:27:42.285,0.146,0.05,1.436,141.357,6.897,-5.127, , , , , , ,12.678,-2.505,-111.022
 09:39:06.199,eb:33:2e:f9:57:b5, 2015-01-01 00:27:42.285,0.101,0.117,1.319,149.048,5.188,-7.019, , , , , , ,13.409,-2.466,-111.044
 09:39:06.199,eb:33:2e:f9:57:b5, 2015-01-01 00:27:42.285,0.097,0.127,1.297,155.212,2.197,-8.362, , , , , , ,14.172,-2.444,-111.077
 09:39:06.199,eb:33:2e:f9:57:b5, 2015-01-01 00:27:42.285,0.095,0.113,1.365,161.804,1.648,-9.094, , , , , , ,14.969,-2.422,-111.121
 09:39:06.288,eb:33:2e:f9:57:b5, 2015-01-01 00:27:42.285,0.107,0.118,1.401,169.128,1.953,-9.827, , , , , , ,15.809,-2.395,-111.16
 09:39:06.288,eb:33:2e:f9:57:b5, 2015-01-01 00:27:42.285,0.09,0.094,1.396,177.307,3.113,-10.437, , , , , , ,16.677,-2.373,-111.209
 09:39:06.288,eb:33:2e:f9:57:b5, 2015-01-01 00:27:42.285,0.094,0.097,1.38,185.181,3.418,-11.047, , , , , , ,17.589,-2.34,-111.253
 09:39:06.288,eb:33:2e:f9:57:b5, 2015-01-01 00:27:42.285,0.094,0.099,1.376,193.115,4.517,-11.353, , , , , , ,18.539,-2.307,-111.302
 09:39:06.288,eb:33:2e:f9:57:b5, 2015-01-01 00:27:42.285,0.168,0.146,1.44,199.768,5.31,-12.695, , , , , , ,19.534,-2.258,-111.346
 09:39:06.288,eb:33:2e:f9:57:b5, 2015-01-01 00:27:42.285,0.235,0.149,1.545,208.252,6.958,-14.282, , , , , , ,20.561,-2.203,-111.401
 09:39:06.288,eb:33:2e:f9:57:b5, 2015-01-01 00:27:42.285,0.271,0.152,1.525,218.567,7.446,-18.433, , , , , , ,21.632,-2.142,-111.467
 09:39:06.288,eb:33:2e:f9:57:b5, 2015-01-01 00:27:42.285,0.288,0.135,1.561,228.577,10.437,-22.217, , , , , , ,22.758,-2.06,-111.544
 09:39:06.288,eb:33:2e:f9:57:b5, 2015-01-01 00:27:42.285,0.273,0.14,1.722,236.694,17.944,-25.146, , , , , , ,23.928,-1.939,-111.627
 09:39:06.290,eb:33:2e:f9:57:b5, 2015-01-01 00:27:42.285,0.295,0.108,1.799,247.62,26.672,-28.259, , , , , , ,25.148,-1.78,-111.698
 09:39:06.290,eb:33:2e:f9:57:b5, 2015-01-01 00:27:42.285,0.299,0.117,1.816,261.047,31.555,-32.532, , , , , , ,26.428,-1.582,-111.775
 09:39:06.290,eb:33:2e:f9:57:b5, 2015-01-01 00:27:42.285,0.276,0.124,1.802,275.085,34.607,-36.194, , , , , , ,27.773,-1.351,-111.852
 09:39:06.290,eb:33:2e:f9:57:b5, 2015-01-01 00:27:42.285,0.282,0.12,1.876,289.551,34.119,-40.466, , , , , , ,29.196,-1.104,-111.94
 09:39:06.290,eb:33:2e:f9:57:b5, 2015-01-01 00:27:42.285,0.372,0.068,2.119,308.655,36.865,-44.739, , , , , , ,30.701,-0.84,-112.039
 09:39:06.290,eb:33:2e:f9:57:b5, 2015-01-01 00:27:42.285,0.487,0.016,2.338,325.317,46.082,-46.814, , , , , , ,32.294,-0.544,-112.121
 09:39:06.290,eb:33:2e:f9:57:b5, 2015-01-01 00:27:42.285,0.53,0.154,2.478,340.637,54.26,-51.025, , , , , , ,33.964,-0.198,-112.187
 09:39:06.356,eb:33:2e:f9:57:b5, 2015-01-01 00:27:42.285,0.67,0.344,2.65,356.873,57.007,-57.922, , , , , , ,35.717,0.192,-112.253
 09:39:06.356,eb:33:2e:f9:57:b5, 2015-01-01 00:27:42.285,0.747,0.222,2.688,375,59.143,-63.66, , , , , , ,37.551,0.604,-112.33
 09:39:06.356,eb:33:2e:f9:57:b5, 2015-01-01 00:27:42.285,0.76,0.146,2.632,390.381,57.007,-70.068, , , , , , ,39.474,1.044,-112.412
 09:39:06.356,eb:33:2e:f9:57:b5, 2015-01-01 00:27:42.285,0.787,0.091,2.825,403.625,60.669,-78.125, , , , , , ,41.462,1.511,-112.505
 09:39:06.356,eb:33:2e:f9:57:b5, 2015-01-01 00:27:42.285,0.795,0.143,3.179,413.269,74.341,-86.609, , , , , , ,43.506,2.049,-112.582
 09:39:06.356,eb:33:2e:f9:57:b5, 2015-01-01 00:27:42.285,0.831,-0.079,3.372,428.833,94.177,-91.431, , , , , , ,45.61,2.664,-112.599
 09:39:06.356,eb:33:2e:f9:57:b5, 2015-01-01 00:27:42.285,0.745,-0.301,3.096,450.317,112.244,-95.459, , , , , , ,47.823,3.373,-112.533
 09:39:06.356,eb:33:2e:f9:57:b5, 2015-01-01 00:27:42.285,0.751,-0.186,2.854,463.379,110.046,-104.614, , , , , , ,50.12,4.12,-112.44
 09:39:06.380,eb:33:2e:f9:57:b5, 2015-01-01 00:27:42.285,0.604,0.017,2.892,475.342,102.417,-121.399, , , , , , ,52.471,4.889,-112.39
 09:39:06.380,eb:33:2e:f9:57:b5, 2015-01-01 00:27:42.285,0.312,-0.279,3.266,491.272,114.319,-134.766, , , , , , ,54.899,5.735,-112.346
 09:39:06.380,eb:33:2e:f9:57:b5, 2015-01-01 00:27:42.285,0.228,-0.725,3.25,510.132,142.151,-131.47, , , , , , ,57.431,6.658,-112.159
 09:39:06.380,eb:33:2e:f9:57:b5, 2015-01-01 00:27:42.285,0.501,-0.222,3.415,517.822,154.541,-124.634, , , , , , ,60.046,7.592,-111.846
 09:39:06.380,eb:33:2e:f9:57:b5, 2015-01-01 00:27:42.285,0.685,-0.489,3.31,520.02,175.659,-110.168, , , , , , ,62.693,8.498,-111.396
 09:39:06.380,eb:33:2e:f9:57:b5, 2015-01-01 00:27:42.285,0.769,-0.422,3.039,514.099,207.275,-99.731, , , , , , ,65.385,9.393,-110.742
 09:39:06.380,eb:33:2e:f9:57:b5, 2015-01-01 00:27:42.285,0.676,-0.647,2.371,489.563,228.149,-88.44, , , , , , ,68.033,10.256,-109.902
 09:39:06.380,eb:33:2e:f9:57:b5, 2015-01-01 00:27:42.285,0.545,-0.366,1.323,446.35,250.061,-72.754, , , , , , ,70.543,11.058,-108.891
 09:39:06.401,eb:33:2e:f9:57:b5, 2015-01-01 00:27:42.285,0.407,-0.317,0.319,365.479,259.827,-60.852, , , , , , ,72.757,11.766,-107.765
 09:39:06.401,eb:33:2e:f9:57:b5, 2015-01-01 00:27:42.285,0.214,-1.455,-0.072,264.343,268.066,-37.964, , , , , , ,74.537,12.371,-106.534
 09:39:06.401,eb:33:2e:f9:57:b5, 2015-01-01 00:27:42.285,0.411,-2.157,-0.401,200.989,266.418,2.747, , , , , , ,75.927,12.788,-105.222
 09:39:06.401,eb:33:2e:f9:57:b5, 2015-01-01 00:27:42.285,0.101,-3.164,-0.562,171.448,215.332,36.316, , , , , , ,77.113,12.953,-103.953
 09:39:06.402,eb:33:2e:f9:57:b5, 2015-01-01 00:27:42.285,0.277,-0.234,-1.167,31.677,129.272,50.842, , , , , , ,77.789,12.881,-103.173
 09:39:06.402,eb:33:2e:f9:57:b5, 2015-01-01 00:27:42.285,0.354,0.569,-0.774,-123.84,102.417,64.941, , , , , , ,77.596,12.711,-102.513
 09:39:06.402,eb:33:2e:f9:57:b5, 2015-01-01 00:27:42.285,0.695,0.042,0.027,-207.947,65.796,67.078, , , , , , ,76.8,12.469,-102.041
 09:39:06.402,eb:33:2e:f9:57:b5, 2015-01-01 00:27:42.285,1.032,-0.628,0.762,-242.981,52.063,64.88, , , , , , ,75.718,12.211,-101.678
 09:39:06.445,eb:33:2e:f9:57:b5, 2015-01-01 00:27:42.285,0.918,-1.208,1.256,-259.766,73.303,58.105, , , , , , ,74.515,11.997,-101.299
 09:39:06.445,eb:33:2e:f9:57:b5, 2015-01-01 00:27:42.285,0.89,-1.358,1.12,-258.118,82.825,43.579, , , , , , ,73.306,11.871,-100.822
 09:39:06.445,eb:33:2e:f9:57:b5, 2015-01-01 00:27:42.285,1.001,-1.173,1.123,-241.028,68.787,26.917, , , , , , ,72.147,11.821,-100.404
 09:39:06.445,eb:33:2e:f9:57:b5, 2015-01-01 00:27:42.285,0.857,-0.911,1.208,-218.506,60.913,9.644, , , , , , ,71.076,11.843,-100.069
 09:39:06.445,eb:33:2e:f9:57:b5, 2015-01-01 00:27:42.285,0.708,-0.731,0.927,-201.843,53.711,-6.287, , , , , , ,70.076,11.937,-99.8
 09:39:06.445,eb:33:2e:f9:57:b5, 2015-01-01 00:27:42.285,0.693,-0.7,0.554,-190.735,38.94,-20.325, , , , , , ,69.142,12.085,-99.613
 09:39:06.445,eb:33:2e:f9:57:b5, 2015-01-01 00:27:42.285,0.662,-0.714,0.286,-185.913,19.104,-34.79, , , , , , ,68.22,12.272,-99.531
 09:39:06.446,eb:33:2e:f9:57:b5, 2015-01-01 00:27:42.285,0.583,-0.696,0.146,-192.2,3.967,-44.861, , , , , , ,67.269,12.48,-99.564
 09:39:06.491,eb:33:2e:f9:57:b5, 2015-01-01 00:27:42.285,0.487,-0.67,0.067,-206.97,-10.01,-52.185, , , , , , ,66.22,12.695,-99.695
 09:39:06.491,eb:33:2e:f9:57:b5, 2015-01-01 00:27:42.285,0.393,-0.675,0.065,-227.6,-21.79,-56.152, , , , , , ,65.083,12.909,-99.893
 09:39:06.491,eb:33:2e:f9:57:b5, 2015-01-01 00:27:42.285,0.302,-0.724,0.126,-251.709,-29.358,-56.702, , , , , , ,63.814,13.107,-100.135
 09:39:06.491,eb:33:2e:f9:57:b5, 2015-01-01 00:27:42.285,0.23,-0.798,0.219,-276.855,-31.982,-53.833, , , , , , ,62.413,13.282,-100.41
 09:39:06.491,eb:33:2e:f9:57:b5, 2015-01-01 00:27:42.285,0.189,-0.866,0.343,-299.988,-30.273,-47.791, , , , , , ,60.881,13.425,-100.679
 09:39:06.491,eb:33:2e:f9:57:b5, 2015-01-01 00:27:42.285,0.156,-0.897,0.485,-319.458,-25.208,-39.673, , , , , , ,59.266,13.546,-100.915
 09:39:06.491,eb:33:2e:f9:57:b5, 2015-01-01 00:27:42.285,0.133,-0.879,0.582,-335.083,-19.836,-31.006, , , , , , ,57.574,13.634,-101.102
 09:39:06.491,eb:33:2e:f9:57:b5, 2015-01-01 00:27:42.285,0.149,-0.816,0.607,-348.145,-17.151,-22.949, , , , , , ,55.822,13.694,-101.25
 09:39:06.536,eb:33:2e:f9:57:b5, 2015-01-01 00:27:42.595,0.176,-0.732,0.608,-359.619,-17.151,-15.747, , , , , , ,53.992,13.716,-101.387
 09:39:06.536,eb:33:2e:f9:57:b5, 2015-01-01 00:27:42.595,0.203,-0.633,0.593,-369.507,-20.813,-9.644, , , , , , ,52.136,13.711,-101.503
 09:39:06.536,eb:33:2e:f9:57:b5, 2015-01-01 00:27:42.595,0.234,-0.534,0.607,-376.953,-28.32,-5.188, , , , , , ,50.235,13.656,-101.624
 09:39:06.536,eb:33:2e:f9:57:b5, 2015-01-01 00:27:42.595,0.258,-0.459,0.646,-381.714,-38.208,-1.892, , , , , , ,48.301,13.557,-101.766
 09:39:06.536,eb:33:2e:f9:57:b5, 2015-01-01 00:27:42.595,0.277,-0.4,0.67,-384.644,-49.438,0.793, , , , , , ,46.318,13.403,-101.942
 09:39:06.536,eb:33:2e:f9:57:b5, 2015-01-01 00:27:42.595,0.293,-0.361,0.7,-386.23,-61.096,2.93, , , , , , ,44.346,13.195,-102.145
 09:39:06.536,eb:33:2e:f9:57:b5, 2015-01-01 00:27:42.595,0.296,-0.345,0.772,-385.681,-72.144,5.188, , , , , , ,42.363,12.931,-102.365
 09:39:06.536,eb:33:2e:f9:57:b5, 2015-01-01 00:27:42.595,0.298,-0.333,0.88,-382.385,-81.604,7.629, , , , , , ,40.386,12.618,-102.601
 09:39:06.582,eb:33:2e:f9:57:b5, 2015-01-01 00:27:42.595,0.292,-0.308,1.005,-376.648,-88.562,10.315, , , , , , ,38.414,12.25,-102.854
 09:39:06.582,eb:33:2e:f9:57:b5, 2015-01-01 00:27:42.595,0.282,-0.267,1.104,-369.751,-93.994,13.062, , , , , , ,36.502,11.849,-103.09
 09:39:06.582,eb:33:2e:f9:57:b5, 2015-01-01 00:27:42.595,0.274,-0.221,1.162,-363.464,-98.633,15.93, , , , , , ,34.623,11.409,-103.315
 09:39:06.582,eb:33:2e:f9:57:b5, 2015-01-01 00:27:42.595,0.269,-0.187,1.195,-358.765,-103.088,18.86, , , , , , ,32.783,10.937,-103.53
 09:39:06.582,eb:33:2e:f9:57:b5, 2015-01-01 00:27:42.595,0.278,-0.158,1.219,-355.286,-107.849,21.667, , , , , , ,30.938,10.432,-103.733
 09:39:06.582,eb:33:2e:f9:57:b5, 2015-01-01 00:27:42.595,0.279,-0.128,1.247,-352.966,-113.22,23.743, , , , , , ,29.136,9.888,-103.914
 09:39:06.582,eb:33:2e:f9:57:b5, 2015-01-01 00:27:42.595,0.263,-0.083,1.248,-352.112,-120.605,25.452, , , , , , ,27.345,9.311,-104.084
 09:39:06.582,eb:33:2e:f9:57:b5, 2015-01-01 00:27:42.595,0.253,-0.035,1.24,-352.539,-130.005,26.794, , , , , , ,25.554,8.69,-104.249
 09:39:06.603,eb:33:2e:f9:57:b5, 2015-01-01 00:27:42.595,0.256,-0.006,1.288,-353.943,-139.465,27.954, , , , , , ,23.741,8.009,-104.414
 09:39:06.603,eb:33:2e:f9:57:b5, 2015-01-01 00:27:42.595,0.257,0.006,1.393,-355.286,-146.545,29.236, , , , , , ,21.945,7.289,-104.562
 09:39:06.603,eb:33:2e:f9:57:b5, 2015-01-01 00:27:42.595,0.245,0.015,1.522,-356.079,-150.452,30.457, , , , , , ,20.149,6.537,-104.689
 09:39:06.603,eb:33:2e:f9:57:b5, 2015-01-01 00:27:42.595,0.231,0.019,1.631,-356.079,-152.039,31.86, , , , , , ,18.358,5.768,-104.793
 09:39:06.603,eb:33:2e:f9:57:b5, 2015-01-01 00:27:42.595,0.217,0.019,1.725,-355.347,-151.855,33.447, , , , , , ,16.545,4.988,-104.87
 09:39:06.603,eb:33:2e:f9:57:b5, 2015-01-01 00:27:42.595,0.195,0.02,1.793,-354.309,-151.245,35.034, , , , , , ,14.766,4.208,-104.908
 09:39:06.603,eb:33:2e:f9:57:b5, 2015-01-01 00:27:42.595,0.176,0.025,1.82,-353.21,-151.794,36.316, , , , , , ,12.997,3.433,-104.919
 09:39:06.603,eb:33:2e:f9:57:b5, 2015-01-01 00:27:42.595,0.169,0.029,1.838,-352.051,-154.053,37.354, , , , , , ,11.234,2.642,-104.897
 09:39:06.648,eb:33:2e:f9:57:b5, 2015-01-01 00:27:42.595,0.169,0.036,1.891,-350.22,-157.776,38.025, , , , , , ,9.454,1.835,-104.859
 09:39:06.648,eb:33:2e:f9:57:b5, 2015-01-01 00:27:42.595,0.179,0.047,1.963,-347.534,-160.4,38.147, , , , , , ,7.712,1.016,-104.788
 09:39:06.648,eb:33:2e:f9:57:b5, 2015-01-01 00:27:42.595,0.184,0.064,2.067,-343.933,-161.255,38.147, , , , , , ,5.982,0.192,-104.694
 09:39:06.648,eb:33:2e:f9:57:b5, 2015-01-01 00:27:42.595,0.18,0.088,2.188,-339.294,-159.79,38.513, , , , , , ,4.274,-0.621,-104.573
 09:39:06.648,eb:33:2e:f9:57:b5, 2015-01-01 00:27:42.595,0.174,0.122,2.31,-334.229,-156.128,38.94, , , , , , ,2.565,-1.428,-104.431
 09:39:06.648,eb:33:2e:f9:57:b5, 2015-01-01 00:27:42.595,0.171,0.167,2.411,-329.346,-151.184,39.551, , , , , , ,0.901,-2.203,-104.255
 09:39:06.648,eb:33:2e:f9:57:b5, 2015-01-01 00:27:42.595,0.15,0.221,2.49,-325.439,-145.935,40.344, , , , , , ,-0.736,-2.944,-104.057
 09:39:06.648,eb:33:2e:f9:57:b5, 2015-01-01 00:27:42.595,0.114,0.295,2.537,-323.364,-141.785,41.26, , , , , , ,-2.373,-3.653,-103.832
 09:39:06.694,eb:33:2e:f9:57:b5, 2015-01-01 00:27:42.595,0.082,0.381,2.565,-323.608,-138.855,42.542, , , , , , ,-4.032,-4.351,-103.585
 09:39:06.694,eb:33:2e:f9:57:b5, 2015-01-01 00:27:42.595,0.077,0.469,2.596,-326.111,-136.169,44.067, , , , , , ,-5.68,-5.015,-103.31
 09:39:06.694,eb:33:2e:f9:57:b5, 2015-01-01 00:27:42.595,0.08,0.58,2.651,-330.383,-132.141,44.983, , , , , , ,-7.35,-5.658,-103.008
 09:39:06.694,eb:33:2e:f9:57:b5, 2015-01-01 00:27:42.595,0.103,0.747,2.679,-336.121,-128.479,44.983, , , , , , ,-9.053,-6.268,-102.695
 09:39:06.694,eb:33:2e:f9:57:b5, 2015-01-01 00:27:42.595,0.128,0.949,2.708,-342.468,-125.061,43.64, , , , , , ,-10.816,-6.861,-102.365
 09:39:06.694,eb:33:2e:f9:57:b5, 2015-01-01 00:27:42.595,0.142,1.14,2.738,-347.473,-121.704,40.466, , , , , , ,-12.585,-7.421,-102.03
 09:39:06.694,eb:33:2e:f9:57:b5, 2015-01-01 00:27:42.595,0.165,1.322,2.736,-349.792,-119.08,36.072, , , , , , ,-14.376,-7.96,-101.706
 09:39:06.694,eb:33:2e:f9:57:b5, 2015-01-01 00:27:42.595,0.119,1.484,2.771,-347.717,-113.525,32.227, , , , , , ,-16.172,-8.481,-101.382
 09:39:06.762,eb:33:2e:f9:57:b5, 2015-01-01 00:27:42.595,0.103,1.635,2.779,-342.285,-111.755,28.625, , , , , , ,-17.963,-8.981,-101.069
 09:39:06.762,eb:33:2e:f9:57:b5, 2015-01-01 00:27:42.595,0.061,1.817,2.794,-331.97,-107.483,25.085, , , , , , ,-19.693,-9.459,-100.767
 09:39:06.762,eb:33:2e:f9:57:b5, 2015-01-01 00:27:42.595,0.026,2.046,2.75,-317.383,-104.004,20.447, , , , , , ,-21.363,-9.915,-100.47
 09:39:06.762,eb:33:2e:f9:57:b5, 2015-01-01 00:27:42.595,-0.02,2.327,2.625,-298.218,-102.295,13.672, , , , , , ,-22.945,-10.36,-100.195
 09:39:06.762,eb:33:2e:f9:57:b5, 2015-01-01 00:27:42.595,-0.144,2.659,2.41,-272.888,-104.797,2.991, , , , , , ,-24.423,-10.822,-99.948
 09:39:06.762,eb:33:2e:f9:57:b5, 2015-01-01 00:27:42.595,-0.365,3.047,2.064,-241.089,-117.676,-10.986, , , , , , ,-25.735,-11.338,-99.728
 09:39:06.762,eb:33:2e:f9:57:b5, 2015-01-01 00:27:42.595,-0.657,3.437,1.701,-204.956,-141.724,-26.672, , , , , , ,-26.878,-11.975,-99.531
 09:39:06.762,eb:33:2e:f9:57:b5, 2015-01-01 00:27:42.595,-0.977,3.729,1.517,-166.687,-168.03,-41.626, , , , , , ,-27.834,-12.755,-99.316
 09:39:06.783,eb:33:2e:f9:57:b5, 2015-01-01 00:27:42.595,-1.292,3.917,1.543,-127.563,-185.059,-53.528, , , , , , ,-28.608,-13.667,-99.102
 09:39:06.783,eb:33:2e:f9:57:b5, 2015-01-01 00:27:42.595,-1.522,4.067,1.718,-89.233,-185.974,-60.974, , , , , , ,-29.18,-14.628,-98.899
 09:39:06.783,eb:33:2e:f9:57:b5, 2015-01-01 00:27:42.595,-1.598,4.159,2.012,-53.162,-166.443,-64.636, , , , , , ,-29.559,-15.551,-98.74
 09:39:06.783,eb:33:2e:f9:57:b5, 2015-01-01 00:27:42.595,-1.489,4.124,2.362,-19.226,-124.756,-65.552, , , , , , ,-29.745,-16.337,-98.668
 09:39:06.783,eb:33:2e:f9:57:b5, 2015-01-01 00:27:42.595,-1.246,3.943,2.625,13.123,-65.002,-65.735, , , , , , ,-29.724,-16.891,-98.734
 09:39:06.783,eb:33:2e:f9:57:b5, 2015-01-01 00:27:42.595,0.607,3.644,2.658,63.171,-34.546,-77.454, , , , , , ,-29.482,-17.205,-98.959
 09:39:06.784,eb:33:2e:f9:57:b5, 2015-01-01 00:27:42.595,-2.237,2.46,9.931,228.943,263.184,-85.388, , , , , , ,-28.433,-17.084,-99.624
 09:39:06.784,eb:33:2e:f9:57:b5, 2015-01-01 00:27:42.595,0.143,3.848,3.154,286.194,346.924,-84.351, , , , , , ,-26.757,-15.634,-100.849
 09:39:06.829,eb:33:2e:f9:57:b5, 2015-01-01 00:27:42.595,0.14,3.436,2.73,313.477,361.145,-127.93, , , , , , ,-24.862,-14.299,-102.167
 09:39:06.829,eb:33:2e:f9:57:b5, 2015-01-01 00:27:42.595,-0.663,0.147,0.446,315.979,297.913,-145.386, , , , , , ,-22.983,-13.085,-103.519
 09:39:06.829,eb:33:2e:f9:57:b5, 2015-01-01 00:27:42.595,-0.922,-1.287,0.894,355.957,229.736,-99.792, , , , , , ,-21.039,-12.134,-104.606
 09:39:06.829,eb:33:2e:f9:57:b5, 2015-01-01 00:27:42.595,-0.831,-1.566,0.791,387.451,186.157,-24.475, , , , , , ,-19.039,-11.294,-105.216
 09:39:06.829,eb:33:2e:f9:57:b5, 2015-01-01 00:27:42.595,-0.493,-1.229,0.948,399.963,167.725,17.273, , , , , , ,-16.996,-10.464,-105.469
 09:39:06.829,eb:33:2e:f9:57:b5, 2015-01-01 00:27:42.595,-0.381,-0.818,1.344,405.273,169.373,30.64, , , , , , ,-14.969,-9.63,-105.573
 09:39:06.829,eb:33:2e:f9:57:b5, 2015-01-01 00:27:42.595,-0.709,-0.108,1.873,396.79,189.453,37.659, , , , , , ,-12.947,-8.712,-105.623
 09:39:06.829,eb:33:2e:f9:57:b5, 2015-01-01 00:27:42.595,-0.663,0.628,1.76,357.117,191.528,45.41, , , , , , ,-11.069,-7.723,-105.612
 09:39:06.874,eb:33:2e:f9:57:b5, 2015-01-01 00:27:42.910,-0.807,0.924,1.327,306.519,163.879,38.94, , , , , , ,-9.437,-6.817,-105.557
 09:39:06.874,eb:33:2e:f9:57:b5, 2015-01-01 00:27:42.910,-0.806,0.82,0.885,262.756,125.305,29.053, , , , , , ,-8.042,-6.092,-105.502
 09:39:06.874,eb:33:2e:f9:57:b5, 2015-01-01 00:27:42.910,-0.495,0.933,0.844,217.834,85.876,15.686, , , , , , ,-6.866,-5.576,-105.463
 09:39:06.874,eb:33:2e:f9:57:b5, 2015-01-01 00:27:42.910,-0.267,0.837,0.975,181.335,57.434,-2.014, , , , , , ,-5.894,-5.24,-105.469
 09:39:06.874,eb:33:2e:f9:57:b5, 2015-01-01 00:27:42.910,-0.013,0.541,1.101,160.034,42.358,-19.653, , , , , , ,-5.037,-4.999,-105.557
 09:39:06.874,eb:33:2e:f9:57:b5, 2015-01-01 00:27:42.910,0.024,0.266,1.098,146.423,32.471,-31.067, , , , , , ,-4.268,-4.834,-105.71
 09:39:06.874,eb:33:2e:f9:57:b5, 2015-01-01 00:27:42.910,0.074,-0.108,1.05,143.555,30.64,-31.372, , , , , , ,-3.538,-4.691,-105.881
 09:39:06.874,eb:33:2e:f9:57:b5, 2015-01-01 00:27:42.910,0.277,-0.18,1.073,140.991,35.889,-24.353, , , , , , ,-2.812,-4.532,-106.029
 09:39:06.919,eb:33:2e:f9:57:b5, 2015-01-01 00:27:42.910,0.415,0.028,1.078,134.033,56.702,-14.832, , , , , , ,-2.109,-4.296,-106.133
 09:39:06.919,eb:33:2e:f9:57:b5, 2015-01-01 00:27:42.910,0.588,0.427,1.098,111.145,83.679,-2.93, , , , , , ,-1.494,-3.933,-106.183
 09:39:06.919,eb:33:2e:f9:57:b5, 2015-01-01 00:27:42.910,0.707,0.798,1.095,76.233,113.098,11.169, , , , , , ,-1.049,-3.433,-106.166
 09:39:06.919,eb:33:2e:f9:57:b5, 2015-01-01 00:27:42.910,0.456,0.835,1.052,37.537,133.728,21.423, , , , , , ,-0.78,-2.807,-106.095
 09:39:06.919,eb:33:2e:f9:57:b5, 2015-01-01 00:27:42.910,0.317,0.622,1.045,20.203,128.54,24.902, , , , , , ,-0.643,-2.142,-105.969
 09:39:06.919,eb:33:2e:f9:57:b5, 2015-01-01 00:27:42.910,-0.067,0.25,1.148,14.282,138.977,22.217, , , , , , ,-0.566,-1.461,-105.859
 09:39:06.919,eb:33:2e:f9:57:b5, 2015-01-01 00:27:42.910,-0.301,0.062,0.998,15.625,123.169,18.127, , , , , , ,-0.494,-0.813,-105.765
 09:39:06.919,eb:33:2e:f9:57:b5, 2015-01-01 00:27:42.910,-0.585,0.05,0.911,15.137,106.689,12.573, , , , , , ,-0.417,-0.242,-105.694
 09:39:06.963,eb:33:2e:f9:57:b5, 2015-01-01 00:27:42.910,-0.562,0.118,0.708,9.644,73.914,11.78, , , , , , ,-0.346,0.198,-105.639
 09:39:06.964,eb:33:2e:f9:57:b5, 2015-01-01 00:27:42.910,-0.408,0.072,0.709,5.92,44.678,10.559, , , , , , ,-0.308,0.478,-105.584
 09:39:06.964,eb:33:2e:f9:57:b5, 2015-01-01 00:27:42.910,-0.223,0.026,0.777,5.432,21.667,7.446, , , , , , ,-0.28,0.626,-105.54
 09:39:06.964,eb:33:2e:f9:57:b5, 2015-01-01 00:27:42.910,-0.06,0.052,0.871,4.272,9.705,5.31, , , , , , ,-0.258,0.692,-105.507
 09:39:06.964,eb:33:2e:f9:57:b5, 2015-01-01 00:27:42.910,0.043,0.11,0.964,0.671,7.202,5.066, , , , , , ,-0.236,0.736,-105.48
 09:39:06.964,eb:33:2e:f9:57:b5, 2015-01-01 00:27:42.910,0.056,0.106,1.046,-2.319,11.047,5.127, , , , , , ,-0.242,0.78,-105.458
 09:39:06.964,eb:33:2e:f9:57:b5, 2015-01-01 00:27:42.910,0.001,0.06,1.078,-2.869,16.357,4.333, , , , , , ,-0.258,0.851,-105.43
 09:39:06.964,eb:33:2e:f9:57:b5, 2015-01-01 00:27:42.910,-0.031,0.026,1.057,-1.77,18.738,3.54, , , , , , ,-0.269,0.945,-105.414
 09:39:07.031,eb:33:2e:f9:57:b5, 2015-01-01 00:27:42.910,-0.026,0.008,1.056,-0.122,20.081,3.235, , , , , , ,-0.258,1.044,-105.397
 09:39:07.031,eb:33:2e:f9:57:b5, 2015-01-01 00:27:42.910,-0.044,0.009,1.058,1.16,21.973,3.357, , , , , , ,-0.258,1.154,-105.381
 09:39:07.031,eb:33:2e:f9:57:b5, 2015-01-01 00:27:42.910,-0.139,0.008,1.042,2.258,23.376,2.869, , , , , , ,-0.247,1.263,-105.364
 09:39:07.031,eb:33:2e:f9:57:b5, 2015-01-01 00:27:42.910,-0.182,-0.009,0.97,3.662,19.47,2.991, , , , , , ,-0.236,1.373,-105.348
 09:39:07.031,eb:33:2e:f9:57:b5, 2015-01-01 00:27:42.910,-0.157,-0.004,0.942,4.578,12.451,3.418, , , , , , ,-0.203,1.456,-105.331
 09:39:07.031,eb:33:2e:f9:57:b5, 2015-01-01 00:27:42.910,-0.119,-0.009,0.963,5.859,7.141,3.662, , , , , , ,-0.176,1.5,-105.315
 09:39:07.032,eb:33:2e:f9:57:b5, 2015-01-01 00:27:42.910,-0.092,-0.012,0.986,7.263,4.028,4.089, , , , , , ,-0.143,1.527,-105.293
 09:39:07.032,eb:33:2e:f9:57:b5, 2015-01-01 00:27:42.910,-0.07,-0.008,1.003,8.484,2.197,4.822, , , , , , ,-0.104,1.538,-105.271
 09:39:07.032,eb:33:2e:f9:57:b5, 2015-01-01 00:27:42.910,-0.054,0.011,1.008,9.277,1.221,5.005, , , , , , ,-0.044,1.555,-105.244
 09:39:07.032,eb:33:2e:f9:57:b5, 2015-01-01 00:27:42.910,-0.028,0.021,1.011,9.827,0.427,4.883, , , , , , ,0,1.555,-105.222
 09:39:07.033,eb:33:2e:f9:57:b5, 2015-01-01 00:27:42.910,-0.031,0.019,1.028,10.498,0.977,4.456, , , , , , ,0.049,1.56,-105.2
 09:39:07.033,eb:33:2e:f9:57:b5, 2015-01-01 00:27:42.910,-0.03,0.006,1.026,11.536,1.709,4.456, , , , , , ,0.104,1.566,-105.178
 09:39:07.033,eb:33:2e:f9:57:b5, 2015-01-01 00:27:42.910,0.002,0.016,1.018,12.634,1.892,3.845, , , , , , ,0.176,1.577,-105.15
 09:39:07.033,eb:33:2e:f9:57:b5, 2015-01-01 00:27:42.910,0.019,0.031,1.039,13.733,3.601,2.747, , , , , , ,0.242,1.593,-105.134
 09:39:07.033,eb:33:2e:f9:57:b5, 2015-01-01 00:27:42.910,0.03,0.034,1.038,14.221,6.775,2.38, , , , , , ,0.313,1.62,-105.123
 09:39:07.033,eb:33:2e:f9:57:b5, 2015-01-01 00:27:42.910,0.024,0.036,1.04,14.587,10.437,2.38, , , , , , ,0.385,1.664,-105.112
 09:39:07.076,eb:33:2e:f9:57:b5, 2015-01-01 00:27:42.910,0.035,0.033,1.042,15.137,13.489,2.258, , , , , , ,0.472,1.73,-105.095
 09:39:07.076,eb:33:2e:f9:57:b5, 2015-01-01 00:27:42.910,0.02,0.035,1.052,16.296,15.991,1.953, , , , , , ,0.549,1.802,-105.084
 09:39:07.076,eb:33:2e:f9:57:b5, 2015-01-01 00:27:42.910,-0.018,0.033,1.033,17.151,19.165,2.014, , , , , , ,0.632,1.895,-105.073
 09:39:07.076,eb:33:2e:f9:57:b5, 2015-01-01 00:27:42.910,-0.023,0.023,1.023,17.883,20.569,2.563, , , , , , ,0.72,1.994,-105.062
 09:39:07.076,eb:33:2e:f9:57:b5, 2015-01-01 00:27:42.910,-0.023,0.04,1.036,18.86,20.63,1.892, , , , , , ,0.824,2.104,-105.046
 09:39:07.076,eb:33:2e:f9:57:b5, 2015-01-01 00:27:42.910,-0.075,0.043,1.029,19.592,21.24,0.916, , , , , , ,0.923,2.208,-105.04
 09:39:07.076,eb:33:2e:f9:57:b5, 2015-01-01 00:27:42.910,-0.087,0.02,1.015,20.691,20.081,0.671, , , , , , ,1.022,2.307,-105.035
 09:39:07.076,eb:33:2e:f9:57:b5, 2015-01-01 00:27:42.910,-0.092,0.021,0.988,21.545,18.494,0.427, , , , , , ,1.126,2.406,-105.029
 09:39:07.122,eb:33:2e:f9:57:b5, 2015-01-01 00:27:42.910,-0.046,0.03,0.989,22.4,15.442,0.061, , , , , , ,1.252,2.494,-105.024
 09:39:07.122,eb:33:2e:f9:57:b5, 2015-01-01 00:27:42.910,-0.001,0.056,1.009,23.315,14.16,-1.221, , , , , , ,1.362,2.565,-105.024
 09:39:07.122,eb:33:2e:f9:57:b5, 2015-01-01 00:27:42.910,0.036,0.065,1.043,23.804,15.747,-2.991, , , , , , ,1.478,2.642,-105.035
 09:39:07.122,eb:33:2e:f9:57:b5, 2015-01-01 00:27:42.910,0.078,0.076,1.108,25.085,18.555,-5.005, , , , , , ,1.599,2.725,-105.051
 09:39:07.122,eb:33:2e:f9:57:b5, 2015-01-01 00:27:42.910,0.093,0.084,1.16,26.245,23.193,-8.057, , , , , , ,1.741,2.84,-105.084
 09:39:07.123,eb:33:2e:f9:57:b5, 2015-01-01 00:27:42.910,0.04,0.083,1.131,27.039,28.687,-10.986, , , , , , ,1.873,2.972,-105.128
 09:39:07.123,eb:33:2e:f9:57:b5, 2015-01-01 00:27:42.910,0.033,0.081,1.083,27.771,31.738,-12.695, , , , , , ,2.005,3.126,-105.183
 09:39:07.123,eb:33:2e:f9:57:b5, 2015-01-01 00:27:42.910,-0.005,0.1,1.056,27.954,34.119,-14.893, , , , , , ,2.137,3.296,-105.249
 09:39:07.166,eb:33:2e:f9:57:b5, 2015-01-01 00:27:42.910,0.026,0.081,1.079,28.32,35.156,-16.113, , , , , , ,2.285,3.477,-105.315
 09:39:07.166,eb:33:2e:f9:57:b5, 2015-01-01 00:27:42.910,0.042,0.111,1.077,28.137,36.255,-18.677, , , , , , ,2.422,3.658,-105.397
 09:39:07.166,eb:33:2e:f9:57:b5, 2015-01-01 00:27:42.910,0.034,0.096,1.12,28.931,38.757,-21.118, , , , , , ,2.56,3.851,-105.491
 09:39:07.166,eb:33:2e:f9:57:b5, 2015-01-01 00:27:42.910,0.031,0.089,1.082,29.724,40.283,-22.827, , , , , , ,2.697,4.054,-105.59
 09:39:07.166,eb:33:2e:f9:57:b5, 2015-01-01 00:27:42.910,0.018,0.119,1.002,29.907,40.466,-25.94, , , , , , ,2.851,4.268,-105.705
 09:39:07.166,eb:33:2e:f9:57:b5, 2015-01-01 00:27:42.910,0.004,0.122,0.994,30.701,38.269,-28.503, , , , , , ,2.988,4.471,-105.831
 09:39:07.166,eb:33:2e:f9:57:b5, 2015-01-01 00:27:42.910,0.008,0.139,0.963,32.227,33.752,-30.151, , , , , , ,3.137,4.653,-105.969
 09:39:07.167,eb:33:2e:f9:57:b5, 2015-01-01 00:27:42.910,-0.042,0.149,0.964,34.668,28.259,-31.311, , , , , , ,3.29,4.818,-106.117
 09:39:07.168,eb:33:2e:f9:57:b5, 2015-01-01 00:27:42.910,-0.092,0.13,1.045,38.696,22.522,-30.762, , , , , , ,3.477,4.949,-106.26
 09:39:07.168,eb:33:2e:f9:57:b5, 2015-01-01 00:27:42.910,-0.138,0.061,1.184,43.335,20.813,-28.564, , , , , , ,3.669,5.065,-106.403
 09:39:07.168,eb:33:2e:f9:57:b5, 2015-01-01 00:27:42.910,-0.273,0.041,1.232,46.936,24.414,-26.917, , , , , , ,3.884,5.186,-106.534
 09:39:07.168,eb:33:2e:f9:57:b5, 2015-01-01 00:27:42.910,-0.271,-0.038,1.29,50.537,26.611,-21.606, , , , , , ,4.12,5.323,-106.644
 09:39:07.168,eb:33:2e:f9:57:b5, 2015-01-01 00:27:42.910,-0.245,-0.024,1.215,53.406,29.297,-16.663, , , , , , ,4.384,5.477,-106.721
 09:39:07.168,eb:33:2e:f9:57:b5, 2015-01-01 00:27:42.910,-0.22,0.032,1.122,55.786,27.344,-14.099, , , , , , ,4.653,5.62,-106.787
 09:39:07.168,eb:33:2e:f9:57:b5, 2015-01-01 00:27:42.910,-0.204,0.035,1.108,58.716,24.17,-12.573, , , , , , ,4.933,5.751,-106.842
 09:39:07.168,eb:33:2e:f9:57:b5, 2015-01-01 00:27:42.910,-0.225,0.021,1.163,61.707,23.743,-11.108, , , , , , ,5.229,5.878,-106.891
 09:39:07.211,eb:33:2e:f9:57:b5, 2015-01-01 00:27:42.910,-0.251,0.021,1.165,64.758,22.827,-9.46, , , , , , ,5.554,6.004,-106.924
 09:39:07.211,eb:33:2e:f9:57:b5, 2015-01-01 00:27:42.910,-0.279,0.032,1.105,67.444,20.02,-7.751, , , , , , ,5.883,6.114,-106.957
 09:39:07.211,eb:33:2e:f9:57:b5, 2015-01-01 00:27:42.910,-0.302,0.035,1.083,70.007,16.235,-5.493, , , , , , ,6.224,6.202,-106.979
 09:39:07.211,eb:33:2e:f9:57:b5, 2015-01-01 00:27:42.910,-0.306,0.017,1.105,72.815,13,-2.747, , , , , , ,6.581,6.273,-106.99
 09:39:07.211,eb:33:2e:f9:57:b5, 2015-01-01 00:27:42.910,-0.258,0.015,1.106,75.806,10.254,0.122, , , , , , ,6.965,6.339,-106.99
 09:39:07.211,eb:33:2e:f9:57:b5, 2015-01-01 00:27:42.910,-0.208,0.044,1.089,79.163,6.958,2.197, , , , , , ,7.35,6.378,-106.974
 09:39:07.211,eb:33:2e:f9:57:b5, 2015-01-01 00:27:42.910,-0.185,0.075,1.093,82.703,3.906,3.235, , , , , , ,7.762,6.4,-106.957
 09:39:07.211,eb:33:2e:f9:57:b5, 2015-01-01 00:27:42.910,-0.16,0.073,1.138,86.548,2.136,4.089, , , , , , ,8.185,6.411,-106.935
 09:39:07.257,eb:33:2e:f9:57:b5, 2015-01-01 00:27:43.310,-0.126,0.063,1.21,91.064,1.77,5.005, , , , , , ,8.646,6.422,-106.908
 09:39:07.257,eb:33:2e:f9:57:b5, 2015-01-01 00:27:43.310,-0.082,0.058,1.28,96.741,2.686,5.676, , , , , , ,9.119,6.427,-106.88
 09:39:07.257,eb:33:2e:f9:57:b5, 2015-01-01 00:27:43.310,-0.057,0.077,1.324,102.905,4.089,5.493, , , , , , ,9.624,6.438,-106.848
 09:39:07.257,eb:33:2e:f9:57:b5, 2015-01-01 00:27:43.310,-0.072,0.093,1.332,109.436,5.066,4.7, , , , , , ,10.162,6.46,-106.82
 09:39:07.257,eb:33:2e:f9:57:b5, 2015-01-01 00:27:43.310,-0.07,0.093,1.348,115.967,5.31,4.089, , , , , , ,10.739,6.487,-106.787
 09:39:07.257,eb:33:2e:f9:57:b5, 2015-01-01 00:27:43.310,-0.062,0.085,1.398,122.681,6.47,3.54, , , , , , ,11.343,6.509,-106.765
 09:39:07.257,eb:33:2e:f9:57:b5, 2015-01-01 00:27:43.310,-0.066,0.077,1.437,130.066,7.996,3.235, , , , , , ,11.981,6.542,-106.738
 09:39:07.257,eb:33:2e:f9:57:b5, 2015-01-01 00:27:43.310,-0.06,0.084,1.393,137.573,8.667,3.113, , , , , , ,12.656,6.581,-106.716
 09:39:07.301,eb:33:2e:f9:57:b5, 2015-01-01 00:27:43.310,-0.095,0.103,1.373,144.104,9.705,2.502, , , , , , ,13.376,6.625,-106.688
 09:39:07.301,eb:33:2e:f9:57:b5, 2015-01-01 00:27:43.310,-0.127,0.078,1.357,150.574,10.193,2.502, , , , , , ,14.117,6.674,-106.666
 09:39:07.301,eb:33:2e:f9:57:b5, 2015-01-01 00:27:43.310,-0.133,0.05,1.365,157.593,11.353,3.418, , , , , , ,14.892,6.718,-106.633
 09:39:07.301,eb:33:2e:f9:57:b5, 2015-01-01 00:27:43.310,-0.103,0.044,1.378,164.917,12.451,4.089, , , , , , ,15.705,6.773,-106.6
 09:39:07.301,eb:33:2e:f9:57:b5, 2015-01-01 00:27:43.310,-0.114,0.048,1.407,171.997,15.137,4.333, , , , , , ,16.567,6.839,-106.556
 09:39:07.302,eb:33:2e:f9:57:b5, 2015-01-01 00:27:43.310,-0.02,0.047,1.397,179.443,17.517,4.578, , , , , , ,17.452,6.91,-106.512
 09:39:07.302,eb:33:2e:f9:57:b5, 2015-01-01 00:27:43.310,0.052,0.115,1.429,188.416,20.203,3.601, , , , , , ,18.38,6.993,-106.458
 09:39:07.302,eb:33:2e:f9:57:b5, 2015-01-01 00:27:43.310,0.094,0.163,1.443,194.946,22.827,0.977, , , , , , ,19.347,7.092,-106.414
 09:39:07.345,eb:33:2e:f9:57:b5, 2015-01-01 00:27:43.310,0.18,0.192,1.461,202.637,24.963,-2.625, , , , , , ,20.358,7.213,-106.375
 09:39:07.345,eb:33:2e:f9:57:b5, 2015-01-01 00:27:43.310,0.231,0.192,1.48,210.449,29.663,-7.141, , , , , , ,21.396,7.35,-106.353
 09:39:07.345,eb:33:2e:f9:57:b5, 2015-01-01 00:27:43.310,0.252,0.225,1.538,218.018,35.583,-12.573, , , , , , ,22.473,7.526,-106.337
 09:39:07.345,eb:33:2e:f9:57:b5, 2015-01-01 00:27:43.310,0.307,0.245,1.594,226.624,41.565,-18.921, , , , , , ,23.588,7.734,-106.337
 09:39:07.345,eb:33:2e:f9:57:b5, 2015-01-01 00:27:43.310,0.309,0.253,1.612,236.816,44.983,-25.574, , , , , , ,24.752,7.987,-106.348
 09:39:07.345,eb:33:2e:f9:57:b5, 2015-01-01 00:27:43.310,0.231,0.297,1.596,247.498,44.861,-32.776, , , , , , ,25.966,8.256,-106.386
 09:39:07.345,eb:33:2e:f9:57:b5, 2015-01-01 00:27:43.310,0.188,0.298,1.679,257.935,40.222,-39.185, , , , , , ,27.224,8.525,-106.458
 09:39:07.345,eb:33:2e:f9:57:b5, 2015-01-01 00:27:43.310,0.138,0.247,1.981,269.043,42.48,-44.312, , , , , , ,28.531,8.806,-106.551
 09:39:07.369,eb:33:2e:f9:57:b5, 2015-01-01 00:27:43.310,0.179,0.175,2.303,282.41,50.964,-47.363, , , , , , ,29.905,9.124,-106.639
 09:39:07.369,eb:33:2e:f9:57:b5, 2015-01-01 00:27:43.310,0.192,0.071,2.352,298.401,60.852,-48.706, , , , , , ,31.355,9.492,-106.699
 09:39:07.369,eb:33:2e:f9:57:b5, 2015-01-01 00:27:43.310,0.215,0.132,2.253,313.11,62.195,-51.88, , , , , , ,32.882,9.893,-106.749
 09:39:07.369,eb:33:2e:f9:57:b5, 2015-01-01 00:27:43.310,0.339,0.175,2.23,326.172,53.528,-59.387, , , , , , ,34.47,10.283,-106.826
 09:39:07.369,eb:33:2e:f9:57:b5, 2015-01-01 00:27:43.310,0.391,0.066,2.399,341.309,50.11,-65.491, , , , , , ,36.129,10.679,-106.935
