Time,Device name,Chip Time(),Acceleration X(g),Acceleration Y(g),Acceleration Z(g),Angular velocity X(°/s),Angular velocity Y(°/s),Angular velocity Z(°/s),ShiftX(mm),ShiftY(mm),ShiftZ(mm),SpeedX(mm/s),SpeedY(mm/s),SpeedZ(mm/s),Angle X(°),Angle Y(°),Angle Z(°)
 09:43:49.618,eb:33:2e:f9:57:b5, 2015-01-01 00:32:20.805,-0.042,0.072,0.985,1.282,1.343,0.122, , , , , , ,3.884,2.197,-105.112
 09:43:49.618,eb:33:2e:f9:57:b5, 2015-01-01 00:32:20.805,-0.04,0.068,0.989,1.221,1.282,0.183, , , , , , ,3.889,2.208,-105.112
 09:43:49.618,eb:33:2e:f9:57:b5, 2015-01-01 00:32:20.805,-0.039,0.067,0.992,1.221,1.282,0.244, , , , , , ,3.895,2.214,-105.112
 09:43:49.618,eb:33:2e:f9:57:b5, 2015-01-01 00:32:20.805,-0.04,0.068,0.991,1.16,1.282,0.244, , , , , , ,3.9,2.219,-105.106
 09:43:49.618,eb:33:2e:f9:57:b5, 2015-01-01 00:32:20.805,-0.04,0.071,0.989,1.038,1.343,0.183, , , , , , ,3.906,2.225,-105.106
 09:43:49.618,eb:33:2e:f9:57:b5, 2015-01-01 00:32:20.805,-0.045,0.073,0.988,0.854,1.404,0.244, , , , , , ,3.911,2.23,-105.106
 09:43:49.619,eb:33:2e:f9:57:b5, 2015-01-01 00:32:20.805,-0.048,0.074,0.983,0.671,1.221,0.183, , , , , , ,3.917,2.241,-105.101
 09:43:49.619,eb:33:2e:f9:57:b5, 2015-01-01 00:32:20.805,-0.047,0.073,0.981,0.366,0.854,0.244, , , , , , ,3.917,2.247,-105.101
 09:43:49.774,eb:33:2e:f9:57:b5, 2015-01-01 00:32:20.805,-0.044,0.072,0.984,0.305,0.549,0.122, , , , , , ,3.922,2.247,-105.101
 09:43:49.774,eb:33:2e:f9:57:b5, 2015-01-01 00:32:20.805,-0.041,0.071,0.986,0.122,0.366,0.122, , , , , , ,3.922,2.252,-105.101
 09:43:49.774,eb:33:2e:f9:57:b5, 2015-01-01 00:32:20.805,-0.038,0.071,0.99,0.061,0.366,0.122, , , , , , ,3.922,2.252,-105.095
 09:43:49.774,eb:33:2e:f9:57:b5, 2015-01-01 00:32:20.805,-0.039,0.067,0.996,0.183,0.427,0.061, , , , , , ,3.922,2.252,-105.095
 09:43:49.774,eb:33:2e:f9:57:b5, 2015-01-01 00:32:20.805,-0.039,0.065,0.997,0.366,0.488,0.183, , , , , , ,3.922,2.258,-105.095
 09:43:49.774,eb:33:2e:f9:57:b5, 2015-01-01 00:32:20.805,-0.042,0.066,0.997,0.427,0.61,0.183, , , , , , ,3.928,2.258,-105.095
 09:43:49.774,eb:33:2e:f9:57:b5, 2015-01-01 00:32:20.805,-0.043,0.068,0.993,0.488,0.61,0.122, , , , , , ,3.928,2.263,-105.095
 09:43:49.774,eb:33:2e:f9:57:b5, 2015-01-01 00:32:20.805,-0.042,0.07,0.99,0.488,0.61,0.122, , , , , , ,3.933,2.263,-105.09
 09:43:49.819,eb:33:2e:f9:57:b5, 2015-01-01 00:32:20.805,-0.043,0.069,0.991,0.488,0.549,0.122, , , , , , ,3.933,2.269,-105.09
 09:43:49.819,eb:33:2e:f9:57:b5, 2015-01-01 00:32:20.805,-0.043,0.069,0.99,0.427,0.549,0.122, , , , , , ,3.939,2.269,-105.09
 09:43:49.820,eb:33:2e:f9:57:b5, 2015-01-01 00:32:20.805,-0.043,0.072,0.988,0.305,0.366,0.061, , , , , , ,3.939,2.274,-105.09
 09:43:49.820,eb:33:2e:f9:57:b5, 2015-01-01 00:32:20.805,-0.042,0.072,0.988,0.244,0.244,0.061, , , , , , ,3.939,2.274,-105.09
 09:43:49.820,eb:33:2e:f9:57:b5, 2015-01-01 00:32:20.805,-0.043,0.072,0.988,0.122,0.244,0, , , , , , ,3.939,2.274,-105.09
 09:43:49.820,eb:33:2e:f9:57:b5, 2015-01-01 00:32:20.805,-0.047,0.072,0.986,0,0.061,0, , , , , , ,3.939,2.274,-105.09
 09:43:49.820,eb:33:2e:f9:57:b5, 2015-01-01 00:32:20.805,-0.045,0.071,0.984,-0.122,-0.122,0.061, , , , , , ,3.939,2.274,-105.09
 09:43:49.821,eb:33:2e:f9:57:b5, 2015-01-01 00:32:20.805,-0.043,0.072,0.985,-0.305,-0.366,0, , , , , , ,3.939,2.274,-105.09
 09:43:49.821,eb:33:2e:f9:57:b5, 2015-01-01 00:32:20.805,-0.038,0.072,0.986,-0.427,-0.427,0, , , , , , ,3.939,2.274,-105.09
 09:43:49.821,eb:33:2e:f9:57:b5, 2015-01-01 00:32:20.805,-0.04,0.072,0.99,-0.488,-0.427,-0.061, , , , , , ,3.933,2.269,-105.09
 09:43:49.821,eb:33:2e:f9:57:b5, 2015-01-01 00:32:20.805,-0.042,0.071,0.99,-0.61,-0.244,-0.122, , , , , , ,3.933,2.269,-105.09
 09:43:49.821,eb:33:2e:f9:57:b5, 2015-01-01 00:32:20.805,-0.039,0.069,0.991,-0.61,-0.305,0, , , , , , ,3.928,2.269,-105.09
 09:43:49.821,eb:33:2e:f9:57:b5, 2015-01-01 00:32:20.805,-0.036,0.065,0.998,-0.427,-0.305,0, , , , , , ,3.928,2.263,-105.09
 09:43:49.821,eb:33:2e:f9:57:b5, 2015-01-01 00:32:20.805,-0.033,0.064,1,-0.183,-0.061,0, , , , , , ,3.922,2.263,-105.09
 09:43:49.821,eb:33:2e:f9:57:b5, 2015-01-01 00:32:20.805,-0.037,0.068,0.999,-0.061,0.183,0, , , , , , ,3.922,2.263,-105.09
 09:43:49.821,eb:33:2e:f9:57:b5, 2015-01-01 00:32:20.805,-0.041,0.067,0.997,0,0.427,0, , , , , , ,3.922,2.269,-105.09
 09:43:49.826,eb:33:2e:f9:57:b5, 2015-01-01 00:32:20.805,-0.04,0.066,0.997,0.122,0.488,0, , , , , , ,3.922,2.269,-105.09
 09:43:49.826,eb:33:2e:f9:57:b5, 2015-01-01 00:32:20.805,-0.039,0.064,0.999,0.366,0.549,0, , , , , , ,3.928,2.274,-105.09
 09:43:49.826,eb:33:2e:f9:57:b5, 2015-01-01 00:32:20.805,-0.041,0.066,0.996,0.549,0.61,0, , , , , , ,3.928,2.274,-105.09
 09:43:49.826,eb:33:2e:f9:57:b5, 2015-01-01 00:32:20.805,-0.044,0.069,0.992,0.549,0.671,0, , , , , , ,3.933,2.28,-105.09
 09:43:49.826,eb:33:2e:f9:57:b5, 2015-01-01 00:32:20.805,-0.046,0.072,0.988,0.427,0.488,0, , , , , , ,3.933,2.28,-105.09
 09:43:49.826,eb:33:2e:f9:57:b5, 2015-01-01 00:32:20.805,-0.047,0.07,0.987,0.366,0.244,0, , , , , , ,3.933,2.28,-105.09
 09:43:49.826,eb:33:2e:f9:57:b5, 2015-01-01 00:32:20.805,-0.046,0.067,0.99,0.427,0.061,0.061, , , , , , ,3.933,2.28,-105.09
 09:43:49.826,eb:33:2e:f9:57:b5, 2015-01-01 00:32:20.805,-0.043,0.066,0.989,0.427,-0.122,0.122, , , , , , ,3.939,2.291,-105.068
 09:43:49.844,eb:33:2e:f9:57:b5, 2015-01-01 00:32:20.805,-0.055,0.068,0.992,0.427,-0.183,0.122, , , , , , ,3.939,2.291,-105.068
 09:43:49.844,eb:33:2e:f9:57:b5, 2015-01-01 00:32:20.805,-0.053,0.074,0.972,-1.282,-1.709,0.427, , , , , , ,3.983,2.346,-104.963
 09:43:49.844,eb:33:2e:f9:57:b5, 2015-01-01 00:32:20.805,-0.047,0.073,0.973,-1.709,-2.197,0.427, , , , , , ,3.983,2.346,-104.963
 09:43:49.844,eb:33:2e:f9:57:b5, 2015-01-01 00:32:20.805,-0.039,0.074,0.977,-2.014,-2.625,0.427, , , , , , ,3.972,2.335,-104.958
 09:43:49.844,eb:33:2e:f9:57:b5, 2015-01-01 00:32:20.805,-0.035,0.073,0.985,-2.258,-2.686,0.427, , , , , , ,3.961,2.324,-104.958
 09:43:49.844,eb:33:2e:f9:57:b5, 2015-01-01 00:32:20.805,-0.038,0.072,0.988,-2.441,-2.319,0.366, , , , , , ,3.95,2.313,-104.958
 09:43:49.844,eb:33:2e:f9:57:b5, 2015-01-01 00:32:20.805,-0.039,0.073,0.987,-2.686,-2.197,0.366, , , , , , ,3.939,2.302,-104.958
 09:43:49.844,eb:33:2e:f9:57:b5, 2015-01-01 00:32:20.805,-0.041,0.075,0.984,-3.113,-2.136,0.305, , , , , , ,3.922,2.291,-104.952
 09:43:50.383,eb:33:2e:f9:57:b5, 2015-01-01 00:32:20.805,-0.033,0.076,0.979,-3.601,-2.075,0.305, , , , , , ,3.906,2.28,-104.952
 09:43:50.383,eb:33:2e:f9:57:b5, 2015-01-01 00:32:20.805,-0.04,0.064,1.001,1.465,1.953,-0.061, , , , , , ,3.79,2.225,-104.963
 09:43:50.383,eb:33:2e:f9:57:b5, 2015-01-01 00:32:20.805,-0.029,0.056,1.009,2.075,1.831,0, , , , , , ,3.801,2.236,-104.958
 09:43:50.383,eb:33:2e:f9:57:b5, 2015-01-01 00:32:20.805,-0.03,0.052,1.017,2.686,2.075,0, , , , , , ,3.812,2.247,-104.958
 09:43:50.383,eb:33:2e:f9:57:b5, 2015-01-01 00:32:20.805,-0.031,0.054,1.017,3.418,2.319,0, , , , , , ,3.829,2.258,-104.958
 09:43:50.383,eb:33:2e:f9:57:b5, 2015-01-01 00:32:20.805,-0.028,0.059,1.017,3.967,2.319,0, , , , , , ,3.851,2.269,-104.958
 09:43:50.383,eb:33:2e:f9:57:b5, 2015-01-01 00:32:20.805,-0.024,0.057,1.018,4.395,2.747,0.122, , , , , , ,3.867,2.28,-104.958
 09:43:50.383,eb:33:2e:f9:57:b5, 2015-01-01 00:32:20.805,-0.018,0.061,1.015,4.639,3.235,0.366, , , , , , ,3.895,2.296,-104.952
 09:43:50.517,eb:33:2e:f9:57:b5, 2015-01-01 00:32:20.805,-0.031,0.058,1.019,5.188,4.395,0.549, , , , , , ,3.917,2.313,-104.952
 09:43:50.517,eb:33:2e:f9:57:b5, 2015-01-01 00:32:20.805,-0.034,0.064,1.004,5.493,4.883,0.671, , , , , , ,3.944,2.34,-104.947
 09:43:50.517,eb:33:2e:f9:57:b5, 2015-01-01 00:32:20.805,-0.035,0.068,1.002,5.676,5.127,0.61, , , , , , ,3.972,2.362,-104.941
 09:43:50.517,eb:33:2e:f9:57:b5, 2015-01-01 00:32:20.805,-0.044,0.07,0.997,5.737,5.554,0.549, , , , , , ,4.005,2.39,-104.936
 09:43:50.517,eb:33:2e:f9:57:b5, 2015-01-01 00:32:20.805,-0.043,0.071,0.989,5.554,5.554,0.61, , , , , , ,4.032,2.417,-104.93
 09:43:50.517,eb:33:2e:f9:57:b5, 2015-01-01 00:32:20.805,-0.043,0.074,0.987,5.554,5.493,0.549, , , , , , ,4.059,2.444,-104.925
 09:43:50.517,eb:33:2e:f9:57:b5, 2015-01-01 00:32:20.805,-0.048,0.076,0.983,5.31,5.554,0.305, , , , , , ,4.087,2.472,-104.919
 09:43:50.517,eb:33:2e:f9:57:b5, 2015-01-01 00:32:20.805,-0.051,0.078,0.979,4.944,5.554,0.305, , , , , , ,4.114,2.499,-104.919
 09:43:50.517,eb:33:2e:f9:57:b5, 2015-01-01 00:32:20.805,-0.051,0.079,0.972,4.456,5.249,0.305, , , , , , ,4.136,2.527,-104.914
 09:43:50.518,eb:33:2e:f9:57:b5, 2015-01-01 00:32:20.805,-0.05,0.08,0.968,3.906,4.944,0.305, , , , , , ,4.158,2.554,-104.908
 09:43:50.518,eb:33:2e:f9:57:b5, 2015-01-01 00:32:20.805,-0.052,0.083,0.965,3.174,5.127,0.488, , , , , , ,4.175,2.576,-104.908
 09:43:50.518,eb:33:2e:f9:57:b5, 2015-01-01 00:32:20.805,-0.06,0.085,0.959,2.258,5.615,0.854, , , , , , ,4.186,2.604,-104.903
 09:43:50.518,eb:33:2e:f9:57:b5, 2015-01-01 00:32:20.805,-0.081,0.088,0.946,1.16,5.493,0.916, , , , , , ,4.197,2.631,-104.892
 09:43:50.518,eb:33:2e:f9:57:b5, 2015-01-01 00:32:20.805,-0.087,0.093,0.923,-0.671,4.028,1.16, , , , , , ,4.197,2.659,-104.886
 09:43:50.518,eb:33:2e:f9:57:b5, 2015-01-01 00:32:20.805,-0.086,0.091,0.921,-2.319,2.441,1.709, , , , , , ,4.191,2.67,-104.881
 09:43:50.518,eb:33:2e:f9:57:b5, 2015-01-01 00:32:20.805,-0.07,0.084,0.929,-3.601,0.732,2.075, , , , , , ,4.175,2.675,-104.87
 09:43:50.521,eb:33:2e:f9:57:b5, 2015-01-01 00:32:20.805,-0.055,0.08,0.95,-4.517,-0.366,2.319, , , , , , ,4.153,2.675,-104.859
 09:43:50.521,eb:33:2e:f9:57:b5, 2015-01-01 00:32:20.805,-0.051,0.078,0.967,-4.944,-0.732,2.38, , , , , , ,4.131,2.675,-104.843
 09:43:50.521,eb:33:2e:f9:57:b5, 2015-01-01 00:32:20.805,-0.054,0.079,0.969,-5.615,-0.916,2.38, , , , , , ,4.103,2.67,-104.832
 09:43:50.521,eb:33:2e:f9:57:b5, 2015-01-01 00:32:20.805,-0.06,0.083,0.964,-6.409,-1.038,2.319, , , , , , ,4.076,2.664,-104.821
 09:43:50.521,eb:33:2e:f9:57:b5, 2015-01-01 00:32:20.805,-0.058,0.089,0.956,-7.629,-1.404,2.38, , , , , , ,4.037,2.653,-104.81
 09:43:50.521,eb:33:2e:f9:57:b5, 2015-01-01 00:32:20.805,-0.059,0.095,0.948,-9.399,-1.16,2.686, , , , , , ,3.994,2.648,-104.799
 09:43:50.521,eb:33:2e:f9:57:b5, 2015-01-01 00:32:20.805,-0.05,0.101,0.942,-11.414,-0.977,3.052, , , , , , ,3.944,2.642,-104.782
 09:43:50.521,eb:33:2e:f9:57:b5, 2015-01-01 00:32:20.805,-0.069,0.107,0.938,-13.489,-0.488,2.686, , , , , , ,3.878,2.637,-104.766
 09:43:51.035,eb:33:2e:f9:57:b5, 2015-01-01 00:32:20.805,-0.074,0.115,0.914,-15.93,-1.953,1.892, , , , , , ,3.807,2.631,-104.755
 09:43:51.035,eb:33:2e:f9:57:b5, 2015-01-01 00:32:20.805,-0.07,0.118,0.909,-18.799,-4.028,0.916, , , , , , ,3.719,2.615,-104.749
 09:43:51.035,eb:33:2e:f9:57:b5, 2015-01-01 00:32:20.805,-0.072,0.11,0.911,-21.362,-5.554,0.122, , , , , , ,3.615,2.587,-104.749
 09:43:51.035,eb:33:2e:f9:57:b5, 2015-01-01 00:32:20.805,-0.076,0.103,0.912,-23.804,-7.324,-0.061, , , , , , ,3.499,2.554,-104.755
 09:43:51.035,eb:33:2e:f9:57:b5, 2015-01-01 00:32:20.805,-0.059,0.085,0.935,-25.513,-9.583,0.061, , , , , , ,3.378,2.51,-104.755
 09:43:51.035,eb:33:2e:f9:57:b5, 2015-01-01 00:32:20.805,-0.034,0.068,0.978,-26.062,-11.597,0.305, , , , , , ,3.246,2.455,-104.755
 09:43:51.035,eb:33:2e:f9:57:b5, 2015-01-01 00:32:20.805,-0.036,0.071,1.003,-26.428,-11.597,-0.061, , , , , , ,3.115,2.395,-104.76
 09:43:51.035,eb:33:2e:f9:57:b5, 2015-01-01 00:32:20.805,-0.001,0.04,1.035,-25.208,-12.573,-0.366, , , , , , ,2.988,2.335,-104.766
 09:43:51.056,eb:33:2e:f9:57:b5, 2015-01-01 00:32:20.805,0.761,0.04,1.064,-23.438,-11.536,-1.282, , , , , , ,2.862,2.274,-104.771
 09:43:51.056,eb:33:2e:f9:57:b5, 2015-01-01 00:32:20.805,0.651,-1.69,0.384,-92.529,-17.822,-114.319, , , , , , ,16.919,11.47,-106.82
 09:43:51.056,eb:33:2e:f9:57:b5, 2015-01-01 00:32:20.805,0.563,-1.653,0.364,-105.042,-23.132,-113.892, , , , , , ,16.298,11.536,-107.413
 09:43:51.056,eb:33:2e:f9:57:b5, 2015-01-01 00:32:20.805,0.482,-1.588,0.366,-120.3,-33.997,-110.352, , , , , , ,15.573,11.519,-108.029
 09:43:51.056,eb:33:2e:f9:57:b5, 2015-01-01 00:32:20.805,0.41,-1.528,0.397,-132.263,-45.898,-104.919, , , , , , ,14.821,11.464,-108.611
 09:43:51.056,eb:33:2e:f9:57:b5, 2015-01-01 00:32:20.805,0.343,-1.452,0.467,-141.785,-59.204,-97.717, , , , , , ,14.013,11.327,-109.177
 09:43:51.056,eb:33:2e:f9:57:b5, 2015-01-01 00:32:20.805,0.273,-1.357,0.567,-148.071,-71.716,-88.684, , , , , , ,13.184,11.113,-109.715
 09:43:51.056,eb:33:2e:f9:57:b5, 2015-01-01 00:32:20.805,0.214,-1.254,0.689,-151.184,-82.886,-78.613, , , , , , ,12.294,10.789,-110.242
 09:43:51.058,eb:33:2e:f9:57:b5, 2015-01-01 00:32:20.805,-0.36,-1.152,0.808,-151.917,-92.529,-67.505, , , , , , ,11.453,10.426,-110.698
 09:43:51.058,eb:33:2e:f9:57:b5, 2015-01-01 00:32:20.805,-0.4,0.364,1.453,-124.512,-102.112,35.645, , , , , , ,-0.187,0.038,-111.226
 09:43:51.058,eb:33:2e:f9:57:b5, 2015-01-01 00:32:20.805,-0.451,0.434,1.461,-125.732,-95.642,36.56, , , , , , ,-0.813,-0.445,-111.039
 09:43:51.058,eb:33:2e:f9:57:b5, 2015-01-01 00:32:20.805,-0.481,0.515,1.461,-125.854,-89.722,38.33, , , , , , ,-1.494,-0.934,-110.869
 09:43:51.058,eb:33:2e:f9:57:b5, 2015-01-01 00:32:20.805,-0.505,0.585,1.475,-123.718,-83.801,40.588, , , , , , ,-2.126,-1.357,-110.66
 09:43:51.058,eb:33:2e:f9:57:b5, 2015-01-01 00:32:20.805,-0.531,0.642,1.468,-119.141,-78.003,43.64, , , , , , ,-2.736,-1.752,-110.429
 09:43:51.058,eb:33:2e:f9:57:b5, 2015-01-01 00:32:20.805,-0.546,0.685,1.465,-112.244,-71.96,47.424, , , , , , ,-3.323,-2.109,-110.182
 09:43:51.058,eb:33:2e:f9:57:b5, 2015-01-01 00:32:20.805,-0.536,0.728,1.464,-104.187,-65.063,51.819, , , , , , ,-3.917,-2.461,-109.935
 09:43:51.060,eb:33:2e:f9:57:b5, 2015-01-01 00:32:20.805,-0.528,0.777,1.457,-95.764,-57.312,56.396, , , , , , ,-4.427,-2.741,-109.638
 09:43:51.060,eb:33:2e:f9:57:b5, 2015-01-01 00:32:20.805,-0.525,0.833,1.423,-87.524,-50.354,61.035, , , , , , ,-4.9,-2.983,-109.319
 09:43:51.060,eb:33:2e:f9:57:b5, 2015-01-01 00:32:20.805,-0.555,0.891,1.365,-79.895,-44.983,65.552, , , , , , ,-5.328,-3.186,-108.984
 09:43:51.060,eb:33:2e:f9:57:b5, 2015-01-01 00:32:20.805,-0.591,0.945,1.28,-72.876,-43.091,70.496, , , , , , ,-5.773,-3.395,-108.644
 09:43:51.060,eb:33:2e:f9:57:b5, 2015-01-01 00:32:20.805,-0.627,1.004,1.231,-65.674,-42.908,75.989, , , , , , ,-6.141,-3.571,-108.254
 09:43:51.060,eb:33:2e:f9:57:b5, 2015-01-01 00:32:20.805,-0.643,1.103,1.23,-55.298,-43.274,82.703, , , , , , ,-6.471,-3.746,-107.831
 09:43:51.060,eb:33:2e:f9:57:b5, 2015-01-01 00:32:20.805,-0.657,1.21,1.251,-45.288,-42.297,87.83, , , , , , ,-6.746,-3.906,-107.38
 09:43:51.060,eb:33:2e:f9:57:b5, 2015-01-01 00:32:20.805,-0.668,1.333,1.262,-34.851,-40.161,91.98, , , , , , ,-7.015,-4.076,-106.919
 09:43:51.079,eb:33:2e:f9:57:b5, 2015-01-01 00:32:20.805,0.278,1.463,1.247,-24.963,-37.231,94.543, , , , , , ,-7.196,-4.208,-106.43
 09:43:51.079,eb:33:2e:f9:57:b5, 2015-01-01 00:32:20.805,0.488,-0.374,1.41,34.607,119.446,217.163, , , , , , ,56.459,11.92,-89.714
 09:43:51.079,eb:33:2e:f9:57:b5, 2015-01-01 00:32:20.805,0.589,-0.29,1.362,63.171,97.168,204.773, , , , , , ,56.926,11.332,-88.676
 09:43:51.079,eb:33:2e:f9:57:b5, 2015-01-01 00:32:20.805,0.601,-0.141,1.386,88.745,75.867,184.387, , , , , , ,57.442,10.75,-87.825
 09:43:51.079,eb:33:2e:f9:57:b5, 2015-01-01 00:32:20.805,0.622,-0.091,1.552,115.112,54.688,155.945, , , , , , ,58.096,10.206,-87.1
 09:43:51.079,eb:33:2e:f9:57:b5, 2015-01-01 00:32:20.805,0.639,-0.018,1.608,141.174,32.776,121.704, , , , , , ,58.843,9.739,-86.523
 09:43:51.079,eb:33:2e:f9:57:b5, 2015-01-01 00:32:20.805,0.634,0.025,1.65,159.851,10.132,83.252, , , , , , ,59.667,9.36,-86.188
 09:43:51.079,eb:33:2e:f9:57:b5, 2015-01-01 00:32:20.805,0.579,-0.092,1.754,168.884,-4.15,45.105, , , , , , ,60.463,9.097,-86.078
 09:43:51.125,eb:33:2e:f9:57:b5, 2015-01-01 00:32:20.805,0.588,-0.408,1.938,171.631,-7.996,9.155, , , , , , ,61.326,8.976,-86.05
 09:43:51.125,eb:33:2e:f9:57:b5, 2015-01-01 00:32:20.805,0.694,-0.808,2.206,170.227,0,-24.048, , , , , , ,62.172,9.014,-86.061
 09:43:51.125,eb:33:2e:f9:57:b5, 2015-01-01 00:32:20.805,0.783,-1.222,2.49,161.499,26.611,-61.584, , , , , , ,62.996,9.256,-86.105
 09:43:51.125,eb:33:2e:f9:57:b5, 2015-01-01 00:32:20.805,0.839,-1.471,2.488,146.79,57.312,-91.614, , , , , , ,63.693,9.701,-86.138
 09:43:51.125,eb:33:2e:f9:57:b5, 2015-01-01 00:32:20.805,0.94,-1.633,2.258,125.732,83.191,-121.094, , , , , , ,64.385,10.355,-86.045
 09:43:51.126,eb:33:2e:f9:57:b5, 2015-01-01 00:32:20.805,0.989,-1.669,1.966,99.731,99.731,-151.428, , , , , , ,64.962,11.19,-85.869
 09:43:51.126,eb:33:2e:f9:57:b5, 2015-01-01 00:32:20.805,0.924,-1.592,1.659,72.388,102.905,-182.617, , , , , , ,65.396,12.173,-85.759
 09:43:51.126,eb:33:2e:f9:57:b5, 2015-01-01 00:32:20.805,0.898,-1.44,1.414,47.424,90.393,-213.501, , , , , , ,65.605,13.282,-85.798
 09:43:51.148,eb:33:2e:f9:57:b5, 2015-01-01 00:32:20.805,0.95,-1.347,1.446,28.137,73.12,-241.577, , , , , , ,65.753,14.496,-85.913
 09:43:51.148,eb:33:2e:f9:57:b5, 2015-01-01 00:32:20.805,0.962,-1.414,1.737,15.503,64.636,-265.137, , , , , , ,65.797,15.804,-86.094
 09:43:51.148,eb:33:2e:f9:57:b5, 2015-01-01 00:32:20.805,0.875,-1.546,2.011,7.629,68.115,-282.593, , , , , , ,65.77,17.199,-86.369
 09:43:51.148,eb:33:2e:f9:57:b5, 2015-01-01 00:32:20.805,0.702,-1.617,2.153,2.258,76.965,-293.64, , , , , , ,65.61,18.649,-86.721
 09:43:51.148,eb:33:2e:f9:57:b5, 2015-01-01 00:32:20.805,0.479,-1.594,2.19,-1.831,82.642,-296.753, , , , , , ,65.522,20.165,-86.979
 09:43:51.148,eb:33:2e:f9:57:b5, 2015-01-01 00:32:20.805,0.199,-1.539,2.209,-5.981,83.679,-291.748, , , , , , ,65.413,21.682,-87.177
 09:43:51.148,eb:33:2e:f9:57:b5, 2015-01-01 00:32:20.805,-0.04,-1.503,2.254,-10.193,79.468,-277.222, , , , , , ,65.281,23.143,-87.418
 09:43:51.148,eb:33:2e:f9:57:b5, 2015-01-01 00:32:20.805,-0.194,-1.525,2.414,-13.245,75.623,-253.418, , , , , , ,65.017,24.478,-87.731
 09:43:51.192,eb:33:2e:f9:57:b5, 2015-01-01 00:32:20.805,-0.322,-1.62,2.631,-14.404,77.576,-222.046, , , , , , ,64.874,25.708,-87.896
 09:43:51.192,eb:33:2e:f9:57:b5, 2015-01-01 00:32:20.805,-0.455,-1.765,2.699,-15.137,82.703,-183.655, , , , , , ,64.77,26.779,-87.918
 09:43:51.192,eb:33:2e:f9:57:b5, 2015-01-01 00:32:20.805,-0.49,-1.905,2.565,-16.846,85.693,-139.465, , , , , , ,64.715,27.675,-87.863
 09:43:51.192,eb:33:2e:f9:57:b5, 2015-01-01 00:32:20.805,-0.425,-1.958,2.374,-20.264,84.656,-92.529, , , , , , ,64.567,28.345,-87.808
 09:43:51.192,eb:33:2e:f9:57:b5, 2015-01-01 00:32:20.805,-0.293,-1.915,2.139,-25.024,77.026,-47.119, , , , , , ,64.572,28.812,-87.55
 09:43:51.192,eb:33:2e:f9:57:b5, 2015-01-01 00:32:20.805,-0.122,-1.81,1.854,-31.006,60.547,-5.676, , , , , , ,64.578,29.053,-87.204
 09:43:51.192,eb:33:2e:f9:57:b5, 2015-01-01 00:32:20.805,0.051,-1.662,1.546,-39.49,37.048,29.053, , , , , , ,64.534,29.086,-86.924
 09:43:51.192,eb:33:2e:f9:57:b5, 2015-01-01 00:32:20.805,0.213,-1.436,1.251,-52.368,8.118,55.908, , , , , , ,64.254,28.911,-86.83
 09:43:51.259,eb:33:2e:f9:57:b5, 2015-01-01 00:32:20.805,0.345,-1.18,1.072,-69.824,-20.691,74.036, , , , , , ,64.001,28.586,-86.715
 09:43:51.259,eb:33:2e:f9:57:b5, 2015-01-01 00:32:20.805,0.493,-0.965,1.028,-90.454,-43.945,84.656, , , , , , ,63.6,28.141,-86.644
 09:43:51.259,eb:33:2e:f9:57:b5, 2015-01-01 00:32:20.805,0.614,-0.796,1.034,-113.586,-58.838,87.891, , , , , , ,63.056,27.636,-86.693
 09:43:51.259,eb:33:2e:f9:57:b5, 2015-01-01 00:32:20.805,0.789,-0.626,0.939,-139.648,-68.848,84.534, , , , , , ,62.216,27.087,-86.924
 09:43:51.259,eb:33:2e:f9:57:b5, 2015-01-01 00:32:20.805,0.921,-0.444,0.761,-168.274,-75.989,74.158, , , , , , ,61.359,26.57,-87.078
 09:43:51.259,eb:33:2e:f9:57:b5, 2015-01-01 00:32:20.805,1.026,-0.255,0.541,-197.449,-85.388,56.702, , , , , , ,60.331,26.087,-87.253
 09:43:51.259,eb:33:2e:f9:57:b5, 2015-01-01 00:32:20.805,1.11,-0.12,0.329,-224.731,-99.06,33.63, , , , , , ,59.123,25.67,-87.583
 09:43:51.259,eb:33:2e:f9:57:b5, 2015-01-01 00:32:20.805,1.149,-0.06,0.188,-250.488,-115.417,7.385, , , , , , ,57.568,25.285,-88.171
 09:43:51.597,eb:33:2e:f9:57:b5, 2015-01-01 00:32:20.805,1.172,-0.042,0.077,-276.855,-131.592,-19.897, , , , , , ,55.981,24.983,-88.775
 09:43:51.597,eb:33:2e:f9:57:b5, 2015-01-01 00:32:20.805,1.153,-0.061,0.098,-302.917,-144.714,-45.898, , , , , , ,54.201,24.73,-89.484
 09:43:51.597,eb:33:2e:f9:57:b5, 2015-01-01 00:32:20.805,1.084,-0.076,0.199,-327.209,-154.907,-69.153, , , , , , ,52.256,24.516,-90.346
 09:43:51.597,eb:33:2e:f9:57:b5, 2015-01-01 00:32:20.805,0.995,-0.114,0.31,-352.722,-167.725,-91.553, , , , , , ,49.988,24.296,-91.445
 09:43:51.597,eb:33:2e:f9:57:b5, 2015-01-01 00:32:20.805,0.908,-0.157,0.433,-370.056,-181.213,-105.103, , , , , , ,47.725,24.099,-92.532
 09:43:51.597,eb:33:2e:f9:57:b5, 2015-01-01 00:32:20.805,0.797,-0.201,0.579,-384.277,-196.106,-113.342, , , , , , ,45.357,23.846,-93.669
 09:43:51.597,eb:33:2e:f9:57:b5, 2015-01-01 00:32:20.805,0.734,-0.275,0.753,-394.958,-210.449,-115.601, , , , , , ,42.907,23.511,-94.9
 09:43:51.597,eb:33:2e:f9:57:b5, 2015-01-01 00:32:20.805,0.651,-0.351,0.964,-402.283,-220.642,-112.671, , , , , , ,40.265,23.033,-96.257
 09:43:51.597,eb:33:2e:f9:57:b5, 2015-01-01 00:32:20.805,0.596,-0.384,1.083,-407.043,-230.713,-105.103, , , , , , ,37.766,22.495,-97.487
 09:43:51.597,eb:33:2e:f9:57:b5, 2015-01-01 00:32:20.805,0.586,-0.384,1.163,-408.997,-241.882,-94.666, , , , , , ,35.272,21.835,-98.652
 09:43:51.597,eb:33:2e:f9:57:b5, 2015-01-01 00:32:20.805,0.569,-0.391,1.208,-408.142,-254.272,-82.52, , , , , , ,32.811,21.05,-99.789
 09:43:51.597,eb:33:2e:f9:57:b5, 2015-01-01 00:32:20.805,0.526,-0.402,1.209,-405.701,-267.944,-68.97, , , , , , ,30.256,20.067,-100.964
 09:43:51.597,eb:33:2e:f9:57:b5, 2015-01-01 00:32:20.805,0.472,-0.445,1.242,-402.039,-281.921,-53.101, , , , , , ,27.905,19.001,-101.953
 09:43:51.597,eb:33:2e:f9:57:b5, 2015-01-01 00:32:20.805,0.436,-0.511,1.345,-396.79,-293.64,-35.034, , , , , , ,25.631,17.809,-102.816
 09:43:51.597,eb:33:2e:f9:57:b5, 2015-01-01 00:32:20.805,0.402,-0.553,1.463,-389.526,-302.551,-15.381, , , , , , ,23.445,16.496,-103.574
 09:43:51.597,eb:33:2e:f9:57:b5, 2015-01-01 00:32:20.805,0.363,-0.535,1.546,-380.005,-311.768,4.578, , , , , , ,21.215,15.002,-104.293
 09:43:51.619,eb:33:2e:f9:57:b5, 2015-01-01 00:32:20.805,0.3,-0.449,1.58,-367.859,-322.815,22.644, , , , , , ,19.226,13.48,-104.782
 09:43:51.619,eb:33:2e:f9:57:b5, 2015-01-01 00:32:20.805,0.21,-0.315,1.622,-353.699,-335.754,37.842, , , , , , ,17.347,11.865,-105.139
 09:43:51.619,eb:33:2e:f9:57:b5, 2015-01-01 00:32:20.805,0.1,-0.174,1.731,-338.684,-347.717,50.903, , , , , , ,15.573,10.151,-105.408
 09:43:51.619,eb:33:2e:f9:57:b5, 2015-01-01 00:32:20.805,-0.036,-0.049,1.934,-322.876,-355.408,62.744, , , , , , ,13.76,8.295,-105.656
 09:43:51.619,eb:33:2e:f9:57:b5, 2015-01-01 00:32:20.805,-0.171,0.068,2.18,-306.702,-357.422,74.28, , , , , , ,12.189,6.476,-105.716
 09:43:51.619,eb:33:2e:f9:57:b5, 2015-01-01 00:32:20.805,-0.34,0.219,2.432,-292.236,-353.821,85.938, , , , , , ,10.701,4.653,-105.661
 09:43:51.619,eb:33:2e:f9:57:b5, 2015-01-01 00:32:20.805,-0.5,0.418,2.606,-281.616,-347.961,98.022, , , , , , ,9.283,2.845,-105.507
 09:43:51.619,eb:33:2e:f9:57:b5, 2015-01-01 00:32:20.805,-0.647,0.657,2.715,-277.649,-341.309,111.633, , , , , , ,7.767,0.989,-105.298
 09:43:51.664,eb:33:2e:f9:57:b5, 2015-01-01 00:32:20.805,-0.774,0.931,2.753,-284.302,-335.51,126.343, , , , , , ,6.361,-0.758,-104.908
 09:43:51.664,eb:33:2e:f9:57:b5, 2015-01-01 00:32:20.805,-0.833,1.231,2.717,-304.382,-331.299,140.625, , , , , , ,4.872,-2.477,-104.398
 09:43:51.664,eb:33:2e:f9:57:b5, 2015-01-01 00:32:20.805,-0.906,1.526,2.748,-333.801,-322.937,153.992, , , , , , ,3.224,-4.164,-103.766
 09:43:51.664,eb:33:2e:f9:57:b5, 2015-01-01 00:32:20.805,-1.026,1.827,2.802,-363.464,-313.049,164.551, , , , , , ,1.269,-5.845,-103.068
 09:43:51.664,eb:33:2e:f9:57:b5, 2015-01-01 00:32:20.805,-1.058,2.195,2.694,-389.526,-313.416,170.593, , , , , , ,-0.72,-7.41,-102.228
 09:43:51.664,eb:33:2e:f9:57:b5, 2015-01-01 00:32:20.805,-1,2.584,2.617,-407.471,-323.547,171.387, , , , , , ,-2.856,-8.981,-101.321
 09:43:51.664,eb:33:2e:f9:57:b5, 2015-01-01 00:32:20.805,-0.993,2.909,2.852,-405.945,-329.041,168.945, , , , , , ,-5.065,-10.552,-100.344
 09:43:51.666,eb:33:2e:f9:57:b5, 2015-01-01 00:32:20.805,-0.991,3.283,3.256,-382.263,-326.355,163.086, , , , , , ,-7.355,-12.151,-99.344
 09:43:51.666,eb:33:2e:f9:57:b5, 2015-01-01 00:32:20.805,0.171,3.652,3.713,-345.642,-312.927,154.175, , , , , , ,-9.388,-13.612,-98.306
 09:43:51.666,eb:33:2e:f9:57:b5, 2015-01-01 00:32:20.805,-0.212,0.067,1.716,54.321,30.029,-6.042, , , , , , ,3.889,3.439,-103.173
 09:43:51.666,eb:33:2e:f9:57:b5, 2015-01-01 00:32:20.805,-0.302,-0.334,1.752,65.186,29.236,6.042, , , , , , ,4.191,3.598,-103.162
 09:43:51.666,eb:33:2e:f9:57:b5, 2015-01-01 00:32:20.805,0.324,-0.051,1.359,70.068,5.737,15.381, , , , , , ,4.565,3.686,-103.074
 09:43:51.666,eb:33:2e:f9:57:b5, 2015-01-01 00:32:20.805,-0.254,0.418,1.388,75.989,-25.208,11.963, , , , , , ,4.933,3.609,-103.019
 09:43:51.666,eb:33:2e:f9:57:b5, 2015-01-01 00:32:20.805,-1.047,-0.478,2.77,105.469,-29.114,43.335, , , , , , ,5.394,3.455,-102.892
 09:43:51.666,eb:33:2e:f9:57:b5, 2015-01-01 00:32:20.805,-0.428,-0.955,3.233,162.048,-65.369,92.224, , , , , , ,6.103,3.17,-102.541
 09:43:51.666,eb:33:2e:f9:57:b5, 2015-01-01 00:32:20.805,-0.743,-0.485,4.05,207.458,-46.265,83.618, , , , , , ,7.103,2.84,-102.118
 09:43:51.776,eb:33:2e:f9:57:b5, 2015-01-01 00:32:20.805,-0.274,-1.145,4.615,264.771,-53.345,83.862, , , , , , ,8.317,2.549,-101.739
 09:43:51.776,eb:33:2e:f9:57:b5, 2015-01-01 00:32:20.805,0.5,-1.195,4.65,328.735,-51.086,87.708, , , , , , ,9.86,2.214,-101.349
 09:43:51.776,eb:33:2e:f9:57:b5, 2015-01-01 00:32:20.805,0.513,-1.093,4.251,379.883,-47.729,84.351, , , , , , ,11.656,1.884,-100.975
 09:43:51.776,eb:33:2e:f9:57:b5, 2015-01-01 00:32:20.805,0.471,-1.25,3.615,436.157,-44.556,76.843, , , , , , ,13.755,1.577,-100.624
 09:43:51.776,eb:33:2e:f9:57:b5, 2015-01-01 00:32:20.805,0.484,-1.516,3.795,486.816,-34.241,63.965, , , , , , ,16.084,1.302,-100.344
 09:43:51.776,eb:33:2e:f9:57:b5, 2015-01-01 00:32:20.805,0.814,-1.073,3.964,531.128,-41.87,43.152, , , , , , ,18.666,1.055,-100.129
 09:43:51.776,eb:33:2e:f9:57:b5, 2015-01-01 00:32:20.805,0.302,-0.907,3.807,570.007,-35.645,13.245, , , , , , ,21.451,0.835,-100.08
 09:43:51.776,eb:33:2e:f9:57:b5, 2015-01-01 00:32:20.805,-0.127,-1.035,3.964,604.004,-25.024,-10.681, , , , , , ,24.401,0.698,-100.157
 09:43:51.778,eb:33:2e:f9:57:b5, 2015-01-01 00:32:20.805,0.082,-0.822,4.317,627.808,-3.296,-23.193, , , , , , ,27.504,0.72,-100.272
 09:43:51.778,eb:33:2e:f9:57:b5, 2015-01-01 00:32:20.805,0.709,-0.8,3.495,630.92,-3.296,-44.556, , , , , , ,30.652,0.835,-100.382
 09:43:51.778,eb:33:2e:f9:57:b5, 2015-01-01 00:32:20.805,0.416,-0.916,2.75,643.738,-33.203,-66.04, , , , , , ,33.832,0.868,-100.701
 09:43:51.778,eb:33:2e:f9:57:b5, 2015-01-01 00:32:20.805,0.263,-1.092,3.093,661.682,-45.715,-75.195, , , , , , ,37.084,0.928,-101.14
 09:43:51.778,eb:33:2e:f9:57:b5, 2015-01-01 00:32:20.805,-0.235,-0.397,3.422,675.781,-34.668,-80.139, , , , , , ,40.435,1.033,-101.558
 09:43:51.778,eb:33:2e:f9:57:b5, 2015-01-01 00:32:20.805,-0.768,0.316,4.57,664.673,4.944,-71.106, , , , , , ,43.781,1.23,-101.865
 09:43:51.779,eb:33:2e:f9:57:b5, 2015-01-01 00:32:20.805,-1.361,-0.395,5.229,661.377,102.722,-27.588, , , , , , ,47.093,1.615,-101.805
 09:43:51.779,eb:33:2e:f9:57:b5, 2015-01-01 00:32:20.805,-1.578,-0.661,4.171,626.526,175.964,28.015, , , , , , ,50.295,2.093,-101.255
 09:43:51.779,eb:33:2e:f9:57:b5, 2015-01-01 00:32:20.805,-1.36,-0.769,1.825,556.152,180.054,95.459, , , , , , ,53.273,2.384,-100.322
 09:43:51.779,eb:33:2e:f9:57:b5, 2015-01-01 00:32:20.805,-0.493,-0.906,-0.618,440.063,174.011,165.649, , , , , , ,55.772,2.351,-99.163
 09:43:51.779,eb:33:2e:f9:57:b5, 2015-01-01 00:32:20.805,0.139,-1.636,-0.901,330.261,213.44,242.92, , , , , , ,57.656,2,-97.773
 09:43:51.779,eb:33:2e:f9:57:b5, 2015-01-01 00:32:20.805,-0.011,-1.552,-0.458,301.453,252.014,303.284, , , , , , ,59.227,1.456,-96.031
 09:43:51.779,eb:33:2e:f9:57:b5, 2015-01-01 00:32:20.805,0.353,0.413,-0.407,221.375,226.685,323.486, , , , , , ,60.557,0.67,-94.213
 09:43:51.779,eb:33:2e:f9:57:b5, 2015-01-01 00:32:20.805,0.584,0.87,0.718,155.029,206.604,325.134, , , , , , ,61.436,-0.225,-92.433
 09:43:51.779,eb:33:2e:f9:57:b5, 2015-01-01 00:32:20.805,0.639,0.548,1.783,154.602,195.251,312.744, , , , , , ,62.172,-1.165,-90.797
 09:43:51.779,eb:33:2e:f9:57:b5, 2015-01-01 00:32:20.805,0.919,0.544,2.011,191.467,154.297,271.729, , , , , , ,62.968,-2.032,-89.379
 09:43:51.799,eb:33:2e:f9:57:b5, 2015-01-01 00:32:25.785,1.093,0.866,1.991,244.812,86.853,212.28, , , , , , ,64.045,-2.84,-88.341
 09:43:51.799,eb:33:2e:f9:57:b5, 2015-01-01 00:32:25.785,0.892,1.112,1.993,288.635,26.001,147.217, , , , , , ,65.369,-3.516,-87.687
 09:43:51.799,eb:33:2e:f9:57:b5, 2015-01-01 00:32:25.785,0.738,0.845,2.155,313.66,-22.522,69.336, , , , , , ,66.885,-3.988,-87.506
 09:43:51.799,eb:33:2e:f9:57:b5, 2015-01-01 00:32:25.785,0.652,0.418,2.324,317.505,-45.105,6.714, , , , , , ,68.439,-4.191,-87.643
 09:43:51.799,eb:33:2e:f9:57:b5, 2015-01-01 00:32:25.785,0.536,0.052,2.423,308.289,-57.739,-49.622, , , , , , ,70.027,-4.153,-87.946
 09:43:51.799,eb:33:2e:f9:57:b5, 2015-01-01 00:32:25.785,0.375,-0.242,2.512,286.377,-55.054,-97.473, , , , , , ,71.532,-3.873,-88.281
 09:43:51.799,eb:33:2e:f9:57:b5, 2015-01-01 00:32:25.785,0.316,-0.507,2.586,254.822,-40.955,-136.841, , , , , , ,72.9,-3.367,-88.693
 09:43:51.799,eb:33:2e:f9:57:b5, 2015-01-01 00:32:25.785,0.363,-0.73,2.655,221.008,-20.325,-169.739, , , , , , ,74.037,-2.648,-89.088
 09:43:51.845,eb:33:2e:f9:57:b5, 2015-01-01 00:32:25.785,0.489,-0.92,2.704,190.613,0.793,-197.388, , , , , , ,75.064,-1.758,-89.374
 09:43:51.845,eb:33:2e:f9:57:b5, 2015-01-01 00:32:25.785,0.645,-1.118,2.743,166.016,21.606,-221.252, , , , , , ,75.943,-0.709,-89.506
 09:43:51.845,eb:33:2e:f9:57:b5, 2015-01-01 00:32:25.785,0.793,-1.333,2.738,147.644,40.771,-242.981, , , , , , ,76.718,0.461,-89.621
 09:43:51.845,eb:33:2e:f9:57:b5, 2015-01-01 00:32:25.785,0.917,-1.529,2.603,133.728,55.054,-263.55, , , , , , ,77.344,1.769,-89.703
 09:43:51.845,eb:33:2e:f9:57:b5, 2015-01-01 00:32:25.785,1,-1.677,2.351,120.85,60.791,-283.386, , , , , , ,77.975,3.181,-89.709
 09:43:51.845,eb:33:2e:f9:57:b5, 2015-01-01 00:32:25.785,1.035,-1.759,2.049,105.896,57.8,-303.345, , , , , , ,78.536,4.686,-89.648
 09:43:51.845,eb:33:2e:f9:57:b5, 2015-01-01 00:32:25.785,1.029,-1.82,1.775,88.196,47.668,-321.777, , , , , , ,79.008,6.279,-89.698
 09:43:51.845,eb:33:2e:f9:57:b5, 2015-01-01 00:32:25.785,0.948,-1.889,1.611,68.726,34.363,-337.891, , , , , , ,79.294,7.949,-89.868
 09:43:51.890,eb:33:2e:f9:57:b5, 2015-01-01 00:32:25.785,0.822,-1.935,1.53,47.119,21.545,-348.755, , , , , , ,79.547,9.668,-90.055
 09:43:51.890,eb:33:2e:f9:57:b5, 2015-01-01 00:32:25.785,0.697,-1.944,1.56,24.597,11.841,-353.638, , , , , , ,79.667,11.415,-90.231
 09:43:51.890,eb:33:2e:f9:57:b5, 2015-01-01 00:32:25.785,0.596,-1.936,1.74,2.808,10.559,-352.295, , , , , , ,79.667,13.162,-90.505
 09:43:51.890,eb:33:2e:f9:57:b5, 2015-01-01 00:32:25.785,0.542,-1.924,1.993,-17.09,19.104,-343.811, , , , , , ,79.47,14.881,-90.813
 09:43:51.890,eb:33:2e:f9:57:b5, 2015-01-01 00:32:25.785,0.508,-1.916,2.244,-34.912,38.086,-328.796, , , , , , ,79.283,16.556,-90.983
 09:43:51.890,eb:33:2e:f9:57:b5, 2015-01-01 00:32:25.785,0.494,-1.887,2.406,-50.781,62.988,-310.852, , , , , , ,79.052,18.171,-90.961
 09:43:51.890,eb:33:2e:f9:57:b5, 2015-01-01 00:32:25.785,0.401,-1.814,2.435,-66.833,90.942,-289.734, , , , , , ,78.788,19.715,-90.846
 09:43:51.890,eb:33:2e:f9:57:b5, 2015-01-01 00:32:25.785,0.259,-1.736,2.362,-83.069,113.708,-265.442, , , , , , ,78.387,21.165,-90.659
 09:43:51.911,eb:33:2e:f9:57:b5, 2015-01-01 00:32:25.785,0.121,-1.655,2.297,-98.206,128.235,-237.671, , , , , , ,78.063,22.511,-90.286
 09:43:51.911,eb:33:2e:f9:57:b5, 2015-01-01 00:32:25.785,-0.05,-1.545,2.262,-111.328,135.315,-207.703, , , , , , ,77.717,23.725,-89.764
 09:43:51.911,eb:33:2e:f9:57:b5, 2015-01-01 00:32:25.785,-0.162,-1.438,2.175,-122.314,131.531,-174.561, , , , , , ,77.327,24.785,-89.269
 09:43:51.911,eb:33:2e:f9:57:b5, 2015-01-01 00:32:25.785,-0.19,-1.394,2.053,-131.958,119.507,-138.794, , , , , , ,76.767,25.675,-88.879
 09:43:51.911,eb:33:2e:f9:57:b5, 2015-01-01 00:32:25.785,-0.143,-1.412,1.863,-142.822,103.027,-101.257, , , , , , ,76.273,26.367,-88.434
 09:43:51.911,eb:33:2e:f9:57:b5, 2015-01-01 00:32:25.785,-0.011,-1.448,1.559,-157.715,84.412,-63.416, , , , , , ,75.69,26.862,-87.984
 09:43:51.911,eb:33:2e:f9:57:b5, 2015-01-01 00:32:25.785,0.039,-1.394,1.266,-177.307,64.392,-28.32, , , , , , ,74.998,27.158,-87.649
 09:43:51.911,eb:33:2e:f9:57:b5, 2015-01-01 00:32:25.785,0.126,-1.214,0.995,-198.059,39.795,2.563, , , , , , ,74.031,27.274,-87.495
 09:43:51.958,eb:33:2e:f9:57:b5, 2015-01-01 00:32:25.785,0.317,-0.949,0.888,-217.468,13,26.794, , , , , , ,73.054,27.224,-87.341
 09:43:51.958,eb:33:2e:f9:57:b5, 2015-01-01 00:32:25.785,0.448,-0.616,0.838,-237.915,-15.747,46.021, , , , , , ,71.927,27.032,-87.242
 09:43:51.958,eb:33:2e:f9:57:b5, 2015-01-01 00:32:25.785,0.621,-0.436,0.76,-249.329,-33.691,53.101, , , , , , ,70.675,26.746,-87.297
 09:43:51.958,eb:33:2e:f9:57:b5, 2015-01-01 00:32:25.785,0.754,-0.28,0.625,-261.108,-54.749,55.664, , , , , , ,69.197,26.417,-87.545
 09:43:51.958,eb:33:2e:f9:57:b5, 2015-01-01 00:32:25.785,0.879,-0.159,0.394,-274.231,-80.078,52.124, , , , , , ,67.742,26.032,-87.792
 09:43:51.958,eb:33:2e:f9:57:b5, 2015-01-01 00:32:25.785,1.002,-0.081,0.234,-286.316,-99.426,42.358, , , , , , ,66.176,25.642,-88.116
 09:43:51.958,eb:33:2e:f9:57:b5, 2015-01-01 00:32:25.785,1.119,-0.018,0.104,-301.697,-116.394,28.198, , , , , , ,64.495,25.258,-88.588
 09:43:51.958,eb:33:2e:f9:57:b5, 2015-01-01 00:32:25.785,1.16,0.042,0.017,-322.144,-131.104,9.521, , , , , , ,62.545,24.901,-89.269
 09:43:52.339,eb:33:2e:f9:57:b5, 2015-01-01 00:32:25.785,1.144,0.07,-0.005,-347.412,-143.799,-8.545, , , , , , ,60.579,24.571,-89.951
 09:43:52.339,eb:33:2e:f9:57:b5, 2015-01-01 00:32:25.785,1.101,0.03,0.103,-375.916,-151.062,-25.635, , , , , , ,58.442,24.274,-90.67
 09:43:52.339,eb:33:2e:f9:57:b5, 2015-01-01 00:32:25.785,1.007,-0.08,0.27,-404.846,-150.818,-41.016, , , , , , ,56.146,24.016,-91.472
 09:43:52.339,eb:33:2e:f9:57:b5, 2015-01-01 00:32:25.785,0.938,-0.222,0.355,-431.274,-149.536,-53.528, , , , , , ,53.575,23.769,-92.395
 09:43:52.339,eb:33:2e:f9:57:b5, 2015-01-01 00:32:25.785,0.926,-0.335,0.456,-453.43,-150.574,-62.439, , , , , , ,51.01,23.549,-93.235
 09:43:52.339,eb:33:2e:f9:57:b5, 2015-01-01 00:32:25.785,0.918,-0.398,0.608,-470.276,-158.63,-68.054, , , , , , ,48.345,23.297,-94.087
 09:43:52.339,eb:33:2e:f9:57:b5, 2015-01-01 00:32:25.785,0.894,-0.427,0.736,-480.591,-174.744,-71.594, , , , , , ,45.593,22.983,-95.015
 09:43:52.339,eb:33:2e:f9:57:b5, 2015-01-01 00:32:25.785,0.943,-0.438,0.841,-484.985,-196.472,-73.975, , , , , , ,42.66,22.538,-96.097
 09:43:52.405,eb:33:2e:f9:57:b5, 2015-01-01 00:32:25.785,0.91,-0.429,0.997,-486.023,-219.421,-76.05, , , , , , ,39.831,21.995,-97.152
 09:43:52.405,eb:33:2e:f9:57:b5, 2015-01-01 00:32:25.785,0.918,-0.418,1.102,-486.572,-242.676,-76.782, , , , , , ,36.991,21.319,-98.24
 09:43:52.405,eb:33:2e:f9:57:b5, 2015-01-01 00:32:25.785,0.878,-0.445,1.383,-487.183,-257.812,-76.721, , , , , , ,34.156,20.511,-99.36
 09:43:52.407,eb:33:2e:f9:57:b5, 2015-01-01 00:32:25.785,0.802,-0.452,1.686,-487.732,-264.648,-74.768, , , , , , ,31.212,19.572,-100.547
 09:43:52.407,eb:33:2e:f9:57:b5, 2015-01-01 00:32:25.785,0.774,-0.411,1.888,-487.549,-267.822,-73.303, , , , , , ,28.433,18.6,-101.585
 09:43:52.407,eb:33:2e:f9:57:b5, 2015-01-01 00:32:25.785,0.707,-0.405,2.008,-483.582,-272.522,-71.472, , , , , , ,25.697,17.562,-102.563
 09:43:52.407,eb:33:2e:f9:57:b5, 2015-01-01 00:32:25.785,0.626,-0.217,2.109,-473.694,-281.067,-70.984, , , , , , ,23.033,16.447,-103.502
 09:43:52.407,eb:33:2e:f9:57:b5, 2015-01-01 00:32:25.785,0.443,-0.26,2.129,-461.121,-297.058,-70.984, , , , , , ,20.33,15.172,-104.485
 09:43:52.451,eb:33:2e:f9:57:b5, 2015-01-01 00:32:25.785,0.234,-0.198,2.161,-449.341,-312.744,-65.125, , , , , , ,17.847,13.832,-105.331
 09:43:52.451,eb:33:2e:f9:57:b5, 2015-01-01 00:32:25.785,0.072,-0.19,2.462,-437.378,-321.106,-54.016, , , , , , ,15.463,12.393,-106.084
 09:43:52.451,eb:33:2e:f9:57:b5, 2015-01-01 00:32:25.785,-0.054,-0.165,2.837,-419.922,-322.754,-38.818, , , , , , ,13.2,10.887,-106.716
 09:43:52.451,eb:33:2e:f9:57:b5, 2015-01-01 00:32:25.785,-0.246,-0.091,3.153,-399.658,-316.406,-18.677, , , , , , ,10.948,9.289,-107.26
 09:43:52.451,eb:33:2e:f9:57:b5, 2015-01-01 00:32:25.785,-0.419,0.019,3.237,-382.568,-309.021,5.615, , , , , , ,8.959,7.756,-107.556
 09:43:52.451,eb:33:2e:f9:57:b5, 2015-01-01 00:32:25.785,-0.511,0.149,3.176,-372.803,-305.298,32.227, , , , , , ,7.064,6.224,-107.661
 09:43:52.451,eb:33:2e:f9:57:b5, 2015-01-01 00:32:25.785,-0.593,0.321,3.125,-369.263,-304.26,60.059, , , , , , ,5.224,4.686,-107.578
 09:43:52.451,eb:33:2e:f9:57:b5, 2015-01-01 00:32:25.785,-0.71,0.55,3.098,-369.019,-307.129,88.257, , , , , , ,3.274,3.071,-107.358
 09:43:52.453,eb:33:2e:f9:57:b5, 2015-01-01 00:32:25.785,-0.792,0.849,3.06,-370.605,-317.993,114.99, , , , , , ,1.439,1.489,-106.902
 09:43:52.453,eb:33:2e:f9:57:b5, 2015-01-01 00:32:25.785,-0.805,1.198,3.011,-373.108,-336.487,138.611, , , , , , ,-0.406,-0.159,-106.271
 09:43:52.453,eb:33:2e:f9:57:b5, 2015-01-01 00:32:25.785,-0.803,1.566,2.973,-375.61,-359.314,158.936, , , , , , ,-2.296,-1.89,-105.474
 09:43:52.453,eb:33:2e:f9:57:b5, 2015-01-01 00:32:25.785,-0.81,1.949,2.959,-377.625,-383.85,175.781, , , , , , ,-4.345,-3.757,-104.557
 09:43:52.453,eb:33:2e:f9:57:b5, 2015-01-01 00:32:25.785,-0.776,2.322,3.05,-379.028,-403.992,188.599, , , , , , ,-6.328,-5.647,-103.453
 09:43:52.453,eb:33:2e:f9:57:b5, 2015-01-01 00:32:25.785,-0.78,2.642,3.341,-376.709,-409.119,197.632, , , , , , ,-8.361,-7.548,-102.233
 09:43:52.453,eb:33:2e:f9:57:b5, 2015-01-01 00:32:25.785,-0.829,3.003,3.794,-364.075,-391.541,202.332, , , , , , ,-10.41,-9.366,-100.898
 09:43:52.453,eb:33:2e:f9:57:b5, 2015-01-01 00:32:25.785,-0.846,3.303,4.109,-343.689,-361.572,200.989, , , , , , ,-12.519,-11.036,-99.531
 09:43:52.453,eb:33:2e:f9:57:b5, 2015-01-01 00:32:25.785,-0.856,3.579,4.321,-315.43,-319.824,195.435, , , , , , ,-14.442,-12.448,-98.146
 09:43:52.454,eb:33:2e:f9:57:b5, 2015-01-01 00:32:25.785,-0.862,3.848,4.41,-284.546,-269.897,186.523, , , , , , ,-16.227,-13.59,-96.839
 09:43:52.454,eb:33:2e:f9:57:b5, 2015-01-01 00:32:25.785,-0.822,4.108,4.345,-256.165,-213.44,173.218, , , , , , ,-17.864,-14.458,-95.598
 09:43:52.454,eb:33:2e:f9:57:b5, 2015-01-01 00:32:25.785,-0.714,4.341,4.158,-229.126,-152.832,155.823, , , , , , ,-19.424,-15.057,-94.51
 09:43:52.454,eb:33:2e:f9:57:b5, 2015-01-01 00:32:25.785,-0.591,4.603,3.862,-203.186,-92.59,133.057, , , , , , ,-20.726,-15.359,-93.609
 09:43:52.454,eb:33:2e:f9:57:b5, 2015-01-01 00:32:25.785,-0.452,4.835,3.432,-181.396,-40.161,105.53, , , , , , ,-21.857,-15.43,-92.966
 09:43:52.454,eb:33:2e:f9:57:b5, 2015-01-01 00:32:25.785,-0.344,4.948,2.926,-163.879,1.77,74.402, , , , , , ,-22.824,-15.326,-92.516
 09:43:52.454,eb:33:2e:f9:57:b5, 2015-01-01 00:32:25.785,-0.306,4.964,2.339,-149.109,29.663,41.748, , , , , , ,-23.714,-15.139,-92.302
 09:43:52.457,eb:33:2e:f9:57:b5, 2015-01-01 00:32:25.785,0.363,4.869,1.726,-134.155,40.344,10.742, , , , , , ,-24.423,-14.925,-92.269
 09:43:52.457,eb:33:2e:f9:57:b5, 2015-01-01 00:32:25.785,-0.403,0.064,1.411,70.007,109.558,-23.438, , , , , , ,4.422,0.324,-97.965
 09:43:52.457,eb:33:2e:f9:57:b5, 2015-01-01 00:32:25.785,-0.545,0.023,0.809,75.928,81.604,-16.113, , , , , , ,4.79,0.802,-98.02
 09:43:52.457,eb:33:2e:f9:57:b5, 2015-01-01 00:32:25.785,-0.253,0.119,0.889,76.66,47.18,-10.498, , , , , , ,5.224,1.121,-98.036
 09:43:52.457,eb:33:2e:f9:57:b5, 2015-01-01 00:32:25.785,0.004,0.161,1.175,75.745,28.564,-6.409, , , , , , ,5.603,1.296,-98.053
 09:43:52.457,eb:33:2e:f9:57:b5, 2015-01-01 00:32:25.785,-0.729,0.118,1.128,80.383,14.282,-9.033, , , , , , ,5.993,1.406,-98.097
 09:43:52.457,eb:33:2e:f9:57:b5, 2015-01-01 00:32:25.785,-0.841,-0.273,1.824,95.459,-13.367,10.254, , , , , , ,6.432,1.401,-98.097
 09:43:52.457,eb:33:2e:f9:57:b5, 2015-01-01 00:32:25.785,-0.395,-0.369,2.4,122.925,-48.035,38.147, , , , , , ,7.042,1.219,-97.954
 09:43:52.475,eb:33:2e:f9:57:b5, 2015-01-01 00:32:25.785,1.131,-0.4,2.644,160.461,-72.937,50.842, , , , , , ,7.767,0.873,-97.756
 09:43:52.475,eb:33:2e:f9:57:b5, 2015-01-01 00:32:25.785,1.145,-0.7,3.554,547.913,72.021,-38.574, , , , , , ,24.73,-1.879,-96.691
 09:43:52.475,eb:33:2e:f9:57:b5, 2015-01-01 00:32:25.785,0.763,-0.457,3.616,562.805,60.913,-63.232, , , , , , ,27.504,-1.478,-96.79
 09:43:52.475,eb:33:2e:f9:57:b5, 2015-01-01 00:32:25.785,1.007,-0.742,3.27,589.539,54.077,-79.285, , , , , , ,30.438,-1.038,-96.96
 09:43:52.475,eb:33:2e:f9:57:b5, 2015-01-01 00:32:25.785,0.483,-1.099,3.061,623.352,62.927,-91.187, , , , , , ,33.486,-0.599,-97.18
 09:43:52.475,eb:33:2e:f9:57:b5, 2015-01-01 00:32:25.785,0.822,-0.991,2.657,648.621,14.16,-109.741, , , , , , ,36.689,-0.192,-97.493
 09:43:52.475,eb:33:2e:f9:57:b5, 2015-01-01 00:32:25.785,0.526,-0.646,3.515,651.245,12.512,-121.948, , , , , , ,39.957,0.203,-97.938
 09:43:52.475,eb:33:2e:f9:57:b5, 2015-01-01 00:32:25.785,0.242,-0.98,4.176,647.278,55.237,-118.591, , , , , , ,43.204,0.747,-98.256
 09:43:52.476,eb:33:2e:f9:57:b5, 2015-01-01 00:32:25.785,0.159,-0.127,4.078,617.676,58.044,-124.451, , , , , , ,46.357,1.384,-98.492
 09:43:52.476,eb:33:2e:f9:57:b5, 2015-01-01 00:32:25.785,-0.444,0.043,4.793,599.182,117.981,-118.103, , , , , , ,49.367,2.137,-98.542
 09:43:52.476,eb:33:2e:f9:57:b5, 2015-01-01 00:32:25.785,-0.768,-0.313,4.207,609.375,194.397,-83.862, , , , , , ,52.405,3.032,-98.223
 09:43:52.476,eb:33:2e:f9:57:b5, 2015-01-01 00:32:25.785,0.253,-0.438,2.231,594.543,213.196,-32.043, , , , , , ,55.464,3.873,-97.542
 09:43:52.476,eb:33:2e:f9:57:b5, 2015-01-01 00:32:25.785,-0.292,-0.839,-0.859,524.536,192.688,2.563, , , , , , ,58.288,4.422,-96.735
 09:43:52.476,eb:33:2e:f9:57:b5, 2015-01-01 00:32:25.785,0.729,0.562,-2.096,386.536,149.902,53.345, , , , , , ,60.595,4.807,-95.861
 09:43:52.476,eb:33:2e:f9:57:b5, 2015-01-01 00:32:25.785,-0.56,-0.045,-0.051,315.125,212.646,96.497, , , , , , ,62.303,4.861,-94.889
 09:43:52.476,eb:33:2e:f9:57:b5, 2015-01-01 00:32:25.785,0.69,0.656,-1.308,291.382,141.235,129.395, , , , , , ,63.951,4.746,-93.812
 09:43:52.519,eb:33:2e:f9:57:b5, 2015-01-01 00:32:25.785,0.542,1.339,-0.444,198.242,137.085,144.165, , , , , , ,65.198,4.406,-92.911
 09:43:52.519,eb:33:2e:f9:57:b5, 2015-01-01 00:32:25.785,0.7,0.893,0.339,123.962,131.653,152.832, , , , , , ,66.017,3.999,-91.95
 09:43:52.519,eb:33:2e:f9:57:b5, 2015-01-01 00:32:25.785,0.859,0.405,1.258,100.22,134.949,148.743, , , , , , ,66.605,3.576,-91.027
 09:43:52.519,eb:33:2e:f9:57:b5, 2015-01-01 00:32:25.785,0.831,0.35,1.808,117.615,124.573,124.817, , , , , , ,67.192,3.203,-90.17
 09:43:52.519,eb:33:2e:f9:57:b5, 2015-01-01 00:32:25.785,0.806,0.6,1.761,146.912,86.914,89.722, , , , , , ,67.906,2.922,-89.489
 09:43:52.519,eb:33:2e:f9:57:b5, 2015-01-01 00:32:25.785,0.68,0.737,1.725,171.814,39.49,48.767, , , , , , ,68.736,2.725,-89.05
 09:43:52.519,eb:33:2e:f9:57:b5, 2015-01-01 00:32:25.785,0.553,0.621,1.793,192.017,-4.883,4.333, , , , , , ,69.659,2.642,-88.951
 09:43:52.520,eb:33:2e:f9:57:b5, 2015-01-01 00:32:25.785,0.463,0.393,1.985,206.055,-40.405,-38.513, , , , , , ,70.648,2.697,-89.127
 09:43:52.563,eb:33:2e:f9:57:b5, 2015-01-01 00:32:26.590,0.376,0.113,2.33,209.9,-56.641,-75.867, , , , , , ,71.675,2.9,-89.473
 09:43:52.563,eb:33:2e:f9:57:b5, 2015-01-01 00:32:26.590,0.376,-0.284,2.741,204.956,-52.063,-106.75, , , , , , ,72.691,3.268,-89.835
 09:43:52.564,eb:33:2e:f9:57:b5, 2015-01-01 00:32:26.590,0.501,-0.784,3.147,196.716,-31.311,-132.629, , , , , , ,73.669,3.796,-90.209
 09:43:52.564,eb:33:2e:f9:57:b5, 2015-01-01 00:32:26.590,0.653,-1.303,3.435,187.622,1.465,-155.029, , , , , , ,74.581,4.477,-90.478
 09:43:52.564,eb:33:2e:f9:57:b5, 2015-01-01 00:32:26.590,0.76,-1.745,3.404,174.683,39.185,-174.316, , , , , , ,75.476,5.312,-90.577
 09:43:52.564,eb:33:2e:f9:57:b5, 2015-01-01 00:32:26.590,0.814,-2.066,3.019,154.907,70.007,-190.613, , , , , , ,76.3,6.279,-90.461
 09:43:52.564,eb:33:2e:f9:57:b5, 2015-01-01 00:32:26.590,0.898,-2.298,2.446,128.235,83.496,-205.566, , , , , , ,77.014,7.344,-90.308
 09:43:52.564,eb:33:2e:f9:57:b5, 2015-01-01 00:32:26.590,0.949,-2.43,1.968,97.168,79.224,-220.581, , , , , , ,77.547,8.47,-90.159
 09:43:52.631,eb:33:2e:f9:57:b5, 2015-01-01 00:32:26.590,0.857,-2.423,1.618,63.477,61.157,-236.45, , , , , , ,77.943,9.668,-90.06
 09:43:52.631,eb:33:2e:f9:57:b5, 2015-01-01 00:32:26.590,0.772,-2.329,1.393,29.724,32.227,-252.136, , , , , , ,78.151,10.92,-90.049
 09:43:52.631,eb:33:2e:f9:57:b5, 2015-01-01 00:32:26.590,0.812,-2.23,1.464,-1.099,3.54,-265.015, , , , , , ,78.168,12.206,-90.247
 09:43:52.631,eb:33:2e:f9:57:b5, 2015-01-01 00:32:26.590,0.822,-2.2,1.932,-24.902,-10.864,-276.489, , , , , , ,77.964,13.519,-90.593
 09:43:52.631,eb:33:2e:f9:57:b5, 2015-01-01 00:32:26.590,0.703,-2.191,2.386,-41.321,-7.324,-286.011, , , , , , ,77.701,14.886,-90.95
 09:43:52.631,eb:33:2e:f9:57:b5, 2015-01-01 00:32:26.590,0.551,-2.128,2.61,-52.917,5.371,-290.833, , , , , , ,77.371,16.304,-91.219
 09:43:52.631,eb:33:2e:f9:57:b5, 2015-01-01 00:32:26.590,0.364,-1.993,2.714,-62.927,20.752,-289.001, , , , , , ,76.998,17.732,-91.478
 09:43:52.631,eb:33:2e:f9:57:b5, 2015-01-01 00:32:26.590,0.106,-1.799,2.751,-73.669,34.485,-280.09, , , , , , ,76.525,19.138,-91.708
 09:43:52.656,eb:33:2e:f9:57:b5, 2015-01-01 00:32:26.590,-0.149,-1.591,2.722,-87.158,42.175,-262.939, , , , , , ,76.075,20.5,-91.84
 09:43:52.656,eb:33:2e:f9:57:b5, 2015-01-01 00:32:26.590,-0.296,-1.405,2.763,-103.455,47.424,-238.22, , , , , , ,75.558,21.758,-91.879
 09:43:52.656,eb:33:2e:f9:57:b5, 2015-01-01 00:32:26.590,-0.376,-1.244,2.927,-121.094,58.35,-206.848, , , , , , ,74.976,22.89,-91.901
 09:43:52.656,eb:33:2e:f9:57:b5, 2015-01-01 00:32:26.590,-0.365,-1.094,3.1,-137.939,74.524,-172.852, , , , , , ,74.273,23.868,-91.868
 09:43:52.656,eb:33:2e:f9:57:b5, 2015-01-01 00:32:26.590,-0.299,-0.957,3.203,-155.579,96.68,-130.188, , , , , , ,73.63,24.697,-91.631
 09:43:52.656,eb:33:2e:f9:57:b5, 2015-01-01 00:32:26.590,-0.243,-0.96,3.23,-166.077,114.197,-94.727, , , , , , ,72.988,25.373,-91.181
 09:43:52.656,eb:33:2e:f9:57:b5, 2015-01-01 00:32:26.590,-0.31,-1.041,3.154,-169.861,120.483,-60.364, , , , , , ,72.361,25.906,-90.676
 09:43:52.656,eb:33:2e:f9:57:b5, 2015-01-01 00:32:26.590,-0.35,-1.141,2.913,-167.114,107.849,-26.855, , , , , , ,71.653,26.263,-90.203
 09:43:52.699,eb:33:2e:f9:57:b5, 2015-01-01 00:32:26.590,-0.326,-1.228,2.637,-162.354,82.825,6.104, , , , , , ,71.049,26.444,-89.725
 09:43:52.699,eb:33:2e:f9:57:b5, 2015-01-01 00:32:26.590,-0.142,-1.338,2.354,-160.034,55.664,38.452, , , , , , ,70.422,26.433,-89.28
 09:43:52.699,eb:33:2e:f9:57:b5, 2015-01-01 00:32:26.590,0.132,-1.388,2.098,-162.537,34.18,67.444, , , , , , ,69.763,26.241,-88.951
 09:43:52.699,eb:33:2e:f9:57:b5, 2015-01-01 00:32:26.590,0.321,-1.249,1.839,-172.729,14.709,89.844, , , , , , ,68.934,25.895,-88.753
 09:43:52.699,eb:33:2e:f9:57:b5, 2015-01-01 00:32:26.590,0.489,-0.944,1.471,-191.162,-11.414,103.21, , , , , , ,68.104,25.433,-88.555
 09:43:52.699,eb:33:2e:f9:57:b5, 2015-01-01 00:32:26.590,0.677,-0.623,1.185,-215.637,-40.405,108.032, , , , , , ,67.104,24.884,-88.434
 09:43:52.699,eb:33:2e:f9:57:b5, 2015-01-01 00:32:26.590,0.87,-0.376,0.999,-242.371,-65.43,103.455, , , , , , ,65.929,24.291,-88.484
 09:43:52.699,eb:33:2e:f9:57:b5, 2015-01-01 00:32:26.590,0.985,-0.174,0.836,-268.311,-86.731,90.271, , , , , , ,64.451,23.681,-88.742
 09:43:52.743,eb:33:2e:f9:57:b5, 2015-01-01 00:32:26.590,1.084,-0.01,0.641,-293.518,-107.239,69.458, , , , , , ,62.919,23.11,-89.033
 09:43:52.743,eb:33:2e:f9:57:b5, 2015-01-01 00:32:26.590,1.131,0.11,0.452,-318.604,-127.075,42.297, , , , , , ,61.205,22.593,-89.434
 09:43:52.743,eb:33:2e:f9:57:b5, 2015-01-01 00:32:26.590,1.196,0.117,0.317,-343.506,-143.188,12.024, , , , , , ,59.315,22.148,-90.016
 09:43:52.743,eb:33:2e:f9:57:b5, 2015-01-01 00:32:26.590,1.164,0.049,0.312,-365.662,-150.635,-18.494, , , , , , ,57.156,21.769,-90.791
 09:43:52.743,eb:33:2e:f9:57:b5, 2015-01-01 00:32:26.590,1.075,0.011,0.317,-387.573,-154.785,-47.058, , , , , , ,54.97,21.495,-91.582
 09:43:52.743,eb:33:2e:f9:57:b5, 2015-01-01 00:32:26.590,0.957,0.009,0.296,-408.936,-163.635,-73.059, , , , , , ,52.641,21.275,-92.444
 09:43:52.743,eb:33:2e:f9:57:b5, 2015-01-01 00:32:26.590,0.848,-0.008,0.299,-429.749,-174.988,-95.398, , , , , , ,50.175,21.083,-93.45
 09:43:52.743,eb:33:2e:f9:57:b5, 2015-01-01 00:32:26.590,0.79,-0.047,0.416,-449.646,-186.646,-115.234, , , , , , ,47.455,20.863,-94.636
 09:43:52.835,eb:33:2e:f9:57:b5, 2015-01-01 00:32:26.590,0.655,-0.091,0.621,-467.712,-197.266,-131.409, , , , , , ,44.72,20.643,-95.839
 09:43:52.835,eb:33:2e:f9:57:b5, 2015-01-01 00:32:26.590,0.508,-0.146,0.83,-482.483,-210.144,-141.418, , , , , , ,41.885,20.374,-97.103
 09:43:52.835,eb:33:2e:f9:57:b5, 2015-01-01 00:32:26.590,0.376,-0.242,1.123,-493.469,-220.337,-144.165, , , , , , ,38.979,20.012,-98.432
 09:43:52.835,eb:33:2e:f9:57:b5, 2015-01-01 00:32:26.590,0.323,-0.363,1.401,-500.183,-223.938,-140.32, , , , , , ,35.936,19.523,-99.822
 09:43:52.835,eb:33:2e:f9:57:b5, 2015-01-01 00:32:26.590,0.291,-0.447,1.587,-502.747,-224.182,-131.836, , , , , , ,33.008,18.984,-101.085
 09:43:52.835,eb:33:2e:f9:57:b5, 2015-01-01 00:32:26.590,0.235,-0.488,1.658,-501.587,-227.295,-119.446, , , , , , ,30.119,18.347,-102.25
 09:43:52.835,eb:33:2e:f9:57:b5, 2015-01-01 00:32:26.590,0.222,-0.51,1.616,-498.413,-236.938,-103.088, , , , , , ,27.279,17.595,-103.343
 09:43:52.835,eb:33:2e:f9:57:b5, 2015-01-01 00:32:26.590,0.261,-0.531,1.636,-493.347,-249.329,-85.693, , , , , , ,24.401,16.65,-104.403
 09:43:52.835,eb:33:2e:f9:57:b5, 2015-01-01 00:32:26.590,0.329,-0.554,1.653,-486.694,-263.245,-66.162, , , , , , ,21.709,15.606,-105.282
 09:43:52.835,eb:33:2e:f9:57:b5, 2015-01-01 00:32:26.590,0.359,-0.583,1.65,-478.027,-278.748,-46.753, , , , , , ,19.105,14.425,-106.029
 09:43:52.835,eb:33:2e:f9:57:b5, 2015-01-01 00:32:26.590,0.437,-0.583,1.636,-467.712,-296.875,-27.649, , , , , , ,16.595,13.101,-106.655
 09:43:52.836,eb:33:2e:f9:57:b5, 2015-01-01 00:32:26.590,0.46,-0.529,1.667,-452.82,-321.228,-7.69, , , , , , ,14.084,11.569,-107.21
 09:43:52.836,eb:33:2e:f9:57:b5, 2015-01-01 00:32:26.590,0.399,-0.464,1.714,-441.65,-337.585,3.174, , , , , , ,11.783,9.954,-107.589
 09:43:52.836,eb:33:2e:f9:57:b5, 2015-01-01 00:32:26.590,0.229,-0.375,1.809,-427.063,-356.567,14.343, , , , , , ,9.575,8.229,-107.869
 09:43:52.836,eb:33:2e:f9:57:b5, 2015-01-01 00:32:26.590,0.053,-0.254,1.991,-408.142,-377.625,26.672, , , , , , ,7.471,6.389,-108.034
 09:43:52.836,eb:33:2e:f9:57:b5, 2015-01-01 00:32:26.590,-0.155,-0.109,2.201,-390.808,-393.921,37.781, , , , , , ,5.372,4.384,-108.133
 09:43:52.838,eb:33:2e:f9:57:b5, 2015-01-01 00:32:26.590,-0.436,0.055,2.43,-372.681,-408.691,51.27, , , , , , ,3.477,2.362,-108.056
 09:43:52.838,eb:33:2e:f9:57:b5, 2015-01-01 00:32:26.590,-0.754,0.215,2.641,-356.934,-422.729,69.397, , , , , , ,1.67,0.264,-107.853
 09:43:52.838,eb:33:2e:f9:57:b5, 2015-01-01 00:32:26.590,-1.021,0.376,2.844,-348.511,-432.739,91.98, , , , , , ,-0.088,-1.884,-107.468
 09:43:52.838,eb:33:2e:f9:57:b5, 2015-01-01 00:32:26.590,-1.24,0.553,3.064,-350.281,-432.007,119.446, , , , , , ,-1.967,-4.098,-106.913
 09:43:52.838,eb:33:2e:f9:57:b5, 2015-01-01 00:32:26.590,-1.376,0.749,3.304,-360.657,-415.588,152.344, , , , , , ,-3.818,-6.174,-106.111
 09:43:52.838,eb:33:2e:f9:57:b5, 2015-01-01 00:32:26.590,-1.394,1.012,3.575,-375.549,-382.69,187.012, , , , , , ,-5.795,-8.08,-105.09
 09:43:52.839,eb:33:2e:f9:57:b5, 2015-01-01 00:32:26.590,-1.31,1.386,3.751,-392.578,-343.14,217.773, , , , , , ,-7.916,-9.739,-103.837
 09:43:52.839,eb:33:2e:f9:57:b5, 2015-01-01 00:32:26.590,-1.12,1.849,3.757,-409.912,-309.692,241.333, , , , , , ,-10.289,-11.184,-102.42
 09:43:52.903,eb:33:2e:f9:57:b5, 2015-01-01 00:32:26.590,-0.862,2.341,3.702,-423.218,-287.537,253.174, , , , , , ,-12.7,-12.382,-100.871
 09:43:52.903,eb:33:2e:f9:57:b5, 2015-01-01 00:32:26.590,-0.618,2.814,3.748,-426.147,-274.414,252.258, , , , , , ,-15.189,-13.431,-99.283
 09:43:52.903,eb:33:2e:f9:57:b5, 2015-01-01 00:32:26.590,-0.451,3.308,3.907,-416.748,-267.761,240.234, , , , , , ,-17.682,-14.381,-97.674
 09:43:52.904,eb:33:2e:f9:57:b5, 2015-01-01 00:32:26.590,-0.388,3.807,4.126,-397.095,-260.498,220.703, , , , , , ,-20.198,-15.276,-96.114
 09:43:52.904,eb:33:2e:f9:57:b5, 2015-01-01 00:32:26.590,-0.378,4.249,4.417,-369.629,-244.324,196.838, , , , , , ,-22.505,-16.073,-94.642
 09:43:52.904,eb:33:2e:f9:57:b5, 2015-01-01 00:32:26.590,-0.391,4.595,4.733,-336.731,-211.426,171.875, , , , , , ,-24.631,-16.743,-93.318
 09:43:52.904,eb:33:2e:f9:57:b5, 2015-01-01 00:32:26.590,-0.434,4.848,4.952,-301.086,-161.926,147.949, , , , , , ,-26.548,-17.232,-92.164
 09:43:52.904,eb:33:2e:f9:57:b5, 2015-01-01 00:32:26.590,-0.476,5.075,4.943,-265.259,-102.783,125.061, , , , , , ,-28.279,-17.496,-91.23
 09:43:52.924,eb:33:2e:f9:57:b5, 2015-01-01 00:32:26.950,-0.506,5.273,4.654,-229.126,-44.495,103.271, , , , , , ,-29.707,-17.518,-90.549
 09:43:52.924,eb:33:2e:f9:57:b5, 2015-01-01 00:32:26.950,-0.508,5.429,4.127,-189.514,0.793,80.933, , , , , , ,-30.866,-17.358,-90.126
 09:43:52.924,eb:33:2e:f9:57:b5, 2015-01-01 00:32:26.950,-0.544,5.484,3.476,-147.339,26.428,59.753, , , , , , ,-31.767,-17.106,-89.874
 09:43:52.924,eb:33:2e:f9:57:b5, 2015-01-01 00:32:26.950,-0.66,5.383,2.783,-107.483,34.485,41.87, , , , , , ,-32.443,-16.842,-89.742
 09:43:52.924,eb:33:2e:f9:57:b5, 2015-01-01 00:32:26.950,-0.818,5.171,2.111,-72.449,26.672,28.503, , , , , , ,-32.893,-16.622,-89.681
 09:43:52.924,eb:33:2e:f9:57:b5, 2015-01-01 00:32:26.950,-0.945,4.875,1.618,-41.87,8.362,21.667, , , , , , ,-33.179,-16.485,-89.648
 09:43:52.925,eb:33:2e:f9:57:b5, 2015-01-01 00:32:26.950,-1.062,4.524,1.449,-15.747,-5.005,21.545, , , , , , ,-33.333,-16.43,-89.555
 09:43:52.925,eb:33:2e:f9:57:b5, 2015-01-01 00:32:26.950,-1.194,4.265,1.508,6.409,-9.949,26.611, , , , , , ,-33.382,-16.403,-89.418
 09:43:53.014,eb:33:2e:f9:57:b5, 2015-01-01 00:32:26.950,-1.246,4.054,1.667,27.1,-8.606,33.997, , , , , , ,-33.338,-16.359,-89.253
 09:43:53.014,eb:33:2e:f9:57:b5, 2015-01-01 00:32:26.950,-1.222,3.803,1.861,49.438,3.296,41.992, , , , , , ,-33.184,-16.26,-89.094
 09:43:53.014,eb:33:2e:f9:57:b5, 2015-01-01 00:32:26.950,-1.184,3.528,1.939,73.73,20.935,48.584, , , , , , ,-32.91,-16.078,-88.929
 09:43:53.015,eb:33:2e:f9:57:b5, 2015-01-01 00:32:26.950,-1.128,3.256,1.852,98.022,35.583,51.758, , , , , , ,-32.492,-15.809,-88.786
 09:43:53.015,eb:33:2e:f9:57:b5, 2015-01-01 00:32:26.950,-1.016,2.97,1.694,122.009,44.434,51.697, , , , , , ,-31.959,-15.496,-88.671
 09:43:53.015,eb:33:2e:f9:57:b5, 2015-01-01 00:32:26.950,-0.757,2.656,1.593,145.081,49.866,48.584, , , , , , ,-31.306,-15.161,-88.588
 09:43:53.015,eb:33:2e:f9:57:b5, 2015-01-01 00:32:26.950,-0.485,2.279,1.599,164.062,58.96,42.114, , , , , , ,-30.531,-14.81,-88.533
 09:43:53.015,eb:33:2e:f9:57:b5, 2015-01-01 00:32:26.950,-0.292,1.706,1.28,174.255,71.594,31.006, , , , , , ,-29.647,-14.431,-88.539
 09:43:53.015,eb:33:2e:f9:57:b5, 2015-01-01 00:32:26.950,5.006,1.235,0.622,171.875,79.102,19.348, , , , , , ,-28.757,-14.035,-88.621
 09:43:53.016,eb:33:2e:f9:57:b5, 2015-01-01 00:32:26.950,1.27,0.981,6.108,576.355,-174.744,-276.55, , , , , , ,-26.834,-14.777,-89.039
 09:43:53.016,eb:33:2e:f9:57:b5, 2015-01-01 00:32:26.950,0.559,8.236,-3.299,803.589,108.521,-354.797, , , , , , ,-22.621,-14.48,-90.939
 09:43:53.016,eb:33:2e:f9:57:b5, 2015-01-01 00:32:26.950,1.344,0.773,1.867,832.886,140.808,-252.075, , , , , , ,-17.99,-14.601,-92.812
 09:43:53.016,eb:33:2e:f9:57:b5, 2015-01-01 00:32:26.950,-1.283,5.367,7.52,703.674,360.779,-171.326, , , , , , ,-13.804,-13.651,-94.18
 09:43:53.016,eb:33:2e:f9:57:b5, 2015-01-01 00:32:26.950,-0.906,5.902,6.106,377.502,481.079,-119.507, , , , , , ,-11.036,-11.541,-95.515
 09:43:53.016,eb:33:2e:f9:57:b5, 2015-01-01 00:32:26.950,-0.961,1.664,4.275,235.413,437.622,-0.977, , , , , , ,-9.487,-9.432,-96.042
 09:43:53.016,eb:33:2e:f9:57:b5, 2015-01-01 00:32:26.950,-1.229,1.405,1.768,142.029,272.705,11.353, , , , , , ,-8.465,-7.603,-96.306
 09:43:53.036,eb:33:2e:f9:57:b5, 2015-01-01 00:32:26.950,-0.438,-0.688,0.902,146.484,160.828,13, , , , , , ,-7.756,-6.636,-96.378
 09:43:53.036,eb:33:2e:f9:57:b5, 2015-01-01 00:32:26.950,0.225,-1.077,1.352,195.19,203.552,-5.493, , , , , , ,-6.861,-5.79,-96.471
 09:43:53.038,eb:33:2e:f9:57:b5, 2015-01-01 00:32:26.950,1.449,-1.06,0.667,243.408,197.571,-25.635, , , , , , ,-5.724,-4.774,-96.685
 09:43:53.038,eb:33:2e:f9:57:b5, 2015-01-01 00:32:26.950,-0.649,1.362,1.19,203.918,211.731,-50.598, , , , , , ,-4.471,-3.746,-96.965
 09:43:53.038,eb:33:2e:f9:57:b5, 2015-01-01 00:32:26.950,0.266,1.584,0.65,121.46,193.115,-26.733, , , , , , ,-3.724,-2.747,-97.267
 09:43:53.038,eb:33:2e:f9:57:b5, 2015-01-01 00:32:26.950,0.159,0.156,0.065,119.812,142.151,-36.072, , , , , , ,-3.12,-1.95,-97.449
 09:43:53.038,eb:33:2e:f9:57:b5, 2015-01-01 00:32:26.950,-1.146,0.504,0.721,99.304,155.762,-57.8, , , , , , ,-2.576,-1.203,-97.773
 09:43:53.038,eb:33:2e:f9:57:b5, 2015-01-01 00:32:26.950,-1.059,0.125,0.375,77.881,112.366,-35.217, , , , , , ,-2.087,-0.555,-97.993
 09:43:53.081,eb:33:2e:f9:57:b5, 2015-01-01 00:32:26.950,-0.893,-0.071,0.468,78.186,65.308,-31.555, , , , , , ,-1.692,-0.143,-98.168
 09:43:53.081,eb:33:2e:f9:57:b5, 2015-01-01 00:32:26.950,0.406,-0.067,0.753,72.998,28.32,-14.954, , , , , , ,-1.318,0.06,-98.3
 09:43:53.081,eb:33:2e:f9:57:b5, 2015-01-01 00:32:26.950,0.749,0.091,1.561,80.933,43.152,-21.24, , , , , , ,-0.934,0.225,-98.388
 09:43:53.081,eb:33:2e:f9:57:b5, 2015-01-01 00:32:26.950,0.58,0.345,1.461,85.022,71.228,-34.912, , , , , , ,-0.45,0.544,-98.514
 09:43:53.081,eb:33:2e:f9:57:b5, 2015-01-01 00:32:26.950,0.365,0.363,1.346,82.214,90.576,-45.593, , , , , , ,-0.038,0.961,-98.718
 09:43:53.081,eb:33:2e:f9:57:b5, 2015-01-01 00:32:26.950,0.099,0.149,1.512,83.618,101.379,-58.472, , , , , , ,0.368,1.456,-98.998
 09:43:53.081,eb:33:2e:f9:57:b5, 2015-01-01 00:32:26.950,0.329,0.32,0.915,75.684,88.745,-66.284, , , , , , ,0.758,1.934,-99.311
 09:43:53.081,eb:33:2e:f9:57:b5, 2015-01-01 00:32:26.950,-0.083,0.194,1.696,71.594,99.609,-82.031, , , , , , ,1.17,2.422,-99.651
 09:43:53.127,eb:33:2e:f9:57:b5, 2015-01-01 00:32:26.950,-0.057,-0.091,1.774,76.111,95.215,-72.815, , , , , , ,1.522,2.939,-100.036
 09:43:53.127,eb:33:2e:f9:57:b5, 2015-01-01 00:32:26.950,-2.298,-0.167,1.622,96.497,85.571,-55.847, , , , , , ,1.934,3.373,-100.36
 09:43:53.127,eb:33:2e:f9:57:b5, 2015-01-01 00:32:26.950,-1.46,-1.61,3.632,150.146,44.861,19.836, , , , , , ,2.56,3.719,-100.415
 09:43:53.127,eb:33:2e:f9:57:b5, 2015-01-01 00:32:26.950,-0.817,-0.904,2.362,191.284,-7.446,65.247, , , , , , ,3.527,3.785,-100.135
 09:43:53.127,eb:33:2e:f9:57:b5, 2015-01-01 00:32:26.950,-1.207,-0.307,1.499,220.52,-71.167,76.172, , , , , , ,4.587,3.532,-99.789
 09:43:53.127,eb:33:2e:f9:57:b5, 2015-01-01 00:32:26.950,-1.505,-0.619,2.404,259.399,-123.779,86.426, , , , , , ,5.817,2.988,-99.448
 09:43:53.127,eb:33:2e:f9:57:b5, 2015-01-01 00:32:26.950,-0.965,-0.75,3.46,297.729,-170.715,87.952, , , , , , ,7.251,2.175,-99.091
 09:43:53.127,eb:33:2e:f9:57:b5, 2015-01-01 00:32:26.950,-0.156,-1.365,4.483,348.816,-162.537,91.125, , , , , , ,8.943,1.307,-98.756
 09:43:53.173,eb:33:2e:f9:57:b5, 2015-01-01 00:32:26.950,1.118,-1.527,4.215,415.527,-155.762,90.088, , , , , , ,10.898,0.439,-98.443
 09:43:53.173,eb:33:2e:f9:57:b5, 2015-01-01 00:32:26.950,0.85,-1.075,3.809,474.182,-119.019,80.811, , , , , , ,13.151,-0.313,-98.185
 09:43:53.174,eb:33:2e:f9:57:b5, 2015-01-01 00:32:26.950,0.396,-0.968,3.609,510.864,-107.3,66.772, , , , , , ,15.628,-0.939,-97.971
 09:43:53.174,eb:33:2e:f9:57:b5, 2015-01-01 00:32:26.950,0.511,-1.368,4.111,560.059,-97.595,44.128, , , , , , ,18.369,-1.478,-97.85
 09:43:53.174,eb:33:2e:f9:57:b5, 2015-01-01 00:32:26.950,0.762,-1.387,4.814,598.816,-69.031,24.536, , , , , , ,21.292,-1.923,-97.839
 09:43:53.174,eb:33:2e:f9:57:b5, 2015-01-01 00:32:26.950,0.691,-1.147,5.055,629.333,-17.578,4.639, , , , , , ,24.384,-2.12,-97.872
 09:43:53.174,eb:33:2e:f9:57:b5, 2015-01-01 00:32:26.950,0.863,-1.236,4.705,645.935,16.663,-8.911, , , , , , ,27.581,-2.093,-97.877
 09:43:53.174,eb:33:2e:f9:57:b5, 2015-01-01 00:32:26.950,1.213,-0.918,4.176,648.071,28.687,-30.64, , , , , , ,30.855,-1.917,-97.91
 09:43:53.240,eb:33:2e:f9:57:b5, 2015-01-01 00:32:26.950,0.915,-0.885,4.103,638.428,65.369,-50.354, , , , , , ,34.069,-1.599,-97.965
 09:43:53.240,eb:33:2e:f9:57:b5, 2015-01-01 00:32:26.950,0.367,-0.813,4.528,615.967,122.131,-62.012, , , , , , ,37.205,-1.033,-97.921
 09:43:53.240,eb:33:2e:f9:57:b5, 2015-01-01 00:32:26.950,-0.249,-0.663,5.323,581.36,204.956,-46.814, , , , , , ,40.182,-0.192,-97.592
 09:43:53.240,eb:33:2e:f9:57:b5, 2015-01-01 00:32:26.950,-0.506,-1.01,5.093,536.804,274.109,-11.414, , , , , , ,42.979,0.829,-96.883
 09:43:53.240,eb:33:2e:f9:57:b5, 2015-01-01 00:32:26.950,0.434,-1.078,2.726,487.061,293.152,28.137, , , , , , ,45.544,1.824,-95.817
 09:43:53.240,eb:33:2e:f9:57:b5, 2015-01-01 00:32:26.950,1.011,-0.486,0.743,404.541,281.311,54.138, , , , , , ,47.774,2.637,-94.625
 09:43:53.240,eb:33:2e:f9:57:b5, 2015-01-01 00:32:26.950,1.001,-0.139,-1.079,351.562,235.901,69.397, , , , , , ,49.702,3.257,-93.439
 09:43:53.240,eb:33:2e:f9:57:b5, 2015-01-01 00:32:26.950,0.699,1.27,-2.104,286.804,150.208,72.327, , , , , , ,51.345,3.587,-92.494
 09:43:53.240,eb:33:2e:f9:57:b5, 2015-01-01 00:32:26.950,1.001,1.919,-1.076,201.355,59.814,59.814, , , , , , ,52.553,3.62,-91.906
 09:43:53.240,eb:33:2e:f9:57:b5, 2015-01-01 00:32:26.950,1.196,1.292,1.054,171.997,-4.15,42.786, , , , , , ,53.454,3.472,-91.692
 09:43:53.240,eb:33:2e:f9:57:b5, 2015-01-01 00:32:26.950,1.108,1.041,2.429,190.125,-19.043,16.968, , , , , , ,54.36,3.318,-91.659
 09:43:53.240,eb:33:2e:f9:57:b5, 2015-01-01 00:32:26.950,1.011,0.885,3.024,232.605,-29.358,-12.512, , , , , , ,55.437,3.252,-91.774
 09:43:53.241,eb:33:2e:f9:57:b5, 2015-01-01 00:32:26.950,0.652,0.605,3.322,278.992,-30.823,-41.199, , , , , , ,56.733,3.29,-91.978
 09:43:53.241,eb:33:2e:f9:57:b5, 2015-01-01 00:32:26.950,0.482,0.327,3.066,307.251,-41.443,-67.2, , , , , , ,58.2,3.433,-92.274
 09:43:53.241,eb:33:2e:f9:57:b5, 2015-01-01 00:32:26.950,0.397,-0.01,2.984,317.383,-53.345,-92.285, , , , , , ,59.749,3.658,-92.697
 09:43:53.241,eb:33:2e:f9:57:b5, 2015-01-01 00:32:26.950,0.2,-0.356,3.06,313.782,-56.152,-113.159, , , , , , ,61.298,3.983,-93.208
 09:43:53.285,eb:33:2e:f9:57:b5, 2015-01-01 00:32:27.285,0.048,-0.695,3.234,300.72,-49.316,-128.845, , , , , , ,62.792,4.406,-93.73
 09:43:53.285,eb:33:2e:f9:57:b5, 2015-01-01 00:32:27.285,0.08,-1.006,3.499,283.325,-30.396,-139.221, , , , , , ,64.204,4.922,-94.18
 09:43:53.285,eb:33:2e:f9:57:b5, 2015-01-01 00:32:27.285,0.306,-1.306,3.786,268.127,-0.061,-146.79, , , , , , ,65.544,5.543,-94.543
 09:43:53.285,eb:33:2e:f9:57:b5, 2015-01-01 00:32:27.285,0.584,-1.612,3.949,256.958,37.842,-155.396, , , , , , ,66.813,6.284,-94.763
 09:43:53.285,eb:33:2e:f9:57:b5, 2015-01-01 00:32:27.285,0.84,-1.878,3.834,247.559,74.951,-167.236, , , , , , ,68.066,7.152,-94.796
 09:43:53.285,eb:33:2e:f9:57:b5, 2015-01-01 00:32:27.285,1.029,-2.071,3.46,236.694,102.661,-182.8, , , , , , ,69.291,8.141,-94.647
 09:43:53.285,eb:33:2e:f9:57:b5, 2015-01-01 00:32:27.285,1.153,-2.188,2.986,223.267,115.112,-202.271, , , , , , ,70.461,9.245,-94.455
 09:43:53.285,eb:33:2e:f9:57:b5, 2015-01-01 00:32:27.285,1.196,-2.249,2.505,205.139,114.075,-223.633, , , , , , ,71.532,10.448,-94.274
 09:43:53.351,eb:33:2e:f9:57:b5, 2015-01-01 00:32:27.285,1.168,-2.319,2.095,181.946,103.76,-244.446, , , , , , ,72.521,11.739,-94.12
 09:43:53.351,eb:33:2e:f9:57:b5, 2015-01-01 00:32:27.285,1.101,-2.417,1.821,154.48,89.478,-262.573, , , , , , ,73.367,13.101,-93.994
 09:43:53.351,eb:33:2e:f9:57:b5, 2015-01-01 00:32:27.285,1,-2.532,1.757,124.756,77.82,-276.123, , , , , , ,74.053,14.518,-93.977
 09:43:53.351,eb:33:2e:f9:57:b5, 2015-01-01 00:32:27.285,0.873,-2.697,1.887,90.393,73.608,-284.912, , , , , , ,74.531,15.974,-94.026
 09:43:53.351,eb:33:2e:f9:57:b5, 2015-01-01 00:32:27.285,0.733,-2.839,1.988,64.697,77.515,-284.851, , , , , , ,74.899,17.446,-94.037
 09:43:53.351,eb:33:2e:f9:57:b5, 2015-01-01 00:32:27.285,0.604,-2.915,2.011,40.405,85.388,-277.893, , , , , , ,75.163,18.913,-93.961
 09:43:53.351,eb:33:2e:f9:57:b5, 2015-01-01 00:32:27.285,0.463,-2.955,1.982,17.09,94.971,-265.32, , , , , , ,75.328,20.336,-93.856
 09:43:53.352,eb:33:2e:f9:57:b5, 2015-01-01 00:32:27.285,0.273,-2.953,1.935,-4.7,106.201,-245.483, , , , , , ,75.361,21.687,-93.708
 09:43:53.374,eb:33:2e:f9:57:b5, 2015-01-01 00:32:27.285,0.13,-2.882,1.812,-26.001,114.319,-220.276, , , , , , ,75.372,22.945,-93.439
 09:43:53.374,eb:33:2e:f9:57:b5, 2015-01-01 00:32:27.285,0.092,-2.753,1.743,-47.607,120.361,-190.308, , , , , , ,75.317,24.077,-93.049
 09:43:53.374,eb:33:2e:f9:57:b5, 2015-01-01 00:32:27.285,0.117,-2.585,1.753,-67.688,127.563,-158.325, , , , , , ,75.19,25.06,-92.626
 09:43:53.374,eb:33:2e:f9:57:b5, 2015-01-01 00:32:27.285,0.151,-2.394,1.76,-84.351,132.812,-126.343, , , , , , ,74.954,25.906,-92.164
 09:43:53.374,eb:33:2e:f9:57:b5, 2015-01-01 00:32:27.285,0.21,-2.178,1.687,-97.473,131.958,-95.154, , , , , , ,74.74,26.598,-91.604
 09:43:53.374,eb:33:2e:f9:57:b5, 2015-01-01 00:32:27.285,0.313,-1.975,1.586,-106.812,123.291,-66.895, , , , , , ,74.482,27.142,-90.989
 09:43:53.374,eb:33:2e:f9:57:b5, 2015-01-01 00:32:27.285,0.387,-1.806,1.516,-113.342,108.826,-40.71, , , , , , ,74.18,27.543,-90.439
 09:43:53.374,eb:33:2e:f9:57:b5, 2015-01-01 00:32:27.285,0.389,-1.699,1.414,-119.019,89.233,-16.724, , , , , , ,73.746,27.812,-90.005
 09:43:53.419,eb:33:2e:f9:57:b5, 2015-01-01 00:32:27.285,0.4,-1.666,1.236,-127.747,65.369,6.836, , , , , , ,73.317,27.927,-89.604
 09:43:53.419,eb:33:2e:f9:57:b5, 2015-01-01 00:32:27.285,0.418,-1.686,1.059,-143.188,44.128,30.151, , , , , , ,72.784,27.905,-89.242
 09:43:53.419,eb:33:2e:f9:57:b5, 2015-01-01 00:32:27.285,0.517,-1.65,0.882,-167.786,27.222,52.429, , , , , , ,72.114,27.746,-88.984
 09:43:53.419,eb:33:2e:f9:57:b5, 2015-01-01 00:32:27.285,0.545,-1.479,0.783,-196.716,19.531,72.449, , , , , , ,71.213,27.477,-88.813
 09:43:53.419,eb:33:2e:f9:57:b5, 2015-01-01 00:32:27.285,0.886,-1.123,0.531,-236.694,-4.272,86.914, , , , , , ,70.197,27.092,-88.649
 09:43:53.419,eb:33:2e:f9:57:b5, 2015-01-01 00:32:27.285,0.974,-0.879,0.51,-272.705,-16.479,96.436, , , , , , ,68.961,26.631,-88.478
 09:43:53.419,eb:33:2e:f9:57:b5, 2015-01-01 00:32:27.285,1.227,-0.556,0.478,-306.335,-33.936,97.107, , , , , , ,67.522,26.131,-88.418
 09:43:53.419,eb:33:2e:f9:57:b5, 2015-01-01 00:32:27.285,1.409,-0.243,0.514,-334.656,-51.208,89.355, , , , , , ,65.814,25.62,-88.5
 09:43:53.442,eb:33:2e:f9:57:b5, 2015-01-01 00:32:27.285,1.539,0.045,0.493,-356.201,-71.533,74.951, , , , , , ,64.017,25.12,-88.627
 09:43:53.442,eb:33:2e:f9:57:b5, 2015-01-01 00:32:27.285,1.562,0.265,0.471,-371.826,-94.788,56.091, , , , , , ,62.078,24.637,-88.852
 09:43:53.442,eb:33:2e:f9:57:b5, 2015-01-01 00:32:27.285,1.493,0.384,0.522,-384.705,-116.943,36.377, , , , , , ,60.013,24.186,-89.253
 09:43:53.442,eb:33:2e:f9:57:b5, 2015-01-01 00:32:27.285,1.44,0.361,0.607,-397.4,-133.423,19.775, , , , , , ,57.761,23.741,-89.835
 09:43:53.442,eb:33:2e:f9:57:b5, 2015-01-01 00:32:27.285,1.393,0.253,0.751,-411.499,-140.198,6.714, , , , , , ,55.492,23.313,-90.428
 09:43:53.442,eb:33:2e:f9:57:b5, 2015-01-01 00:32:27.285,1.304,0.155,0.825,-427.551,-141.174,-2.441, , , , , , ,53.146,22.896,-91.016
 09:43:53.442,eb:33:2e:f9:57:b5, 2015-01-01 00:32:27.285,1.293,0.097,0.825,-444.336,-144.653,-9.583, , , , , , ,50.713,22.484,-91.648
 09:43:53.442,eb:33:2e:f9:57:b5, 2015-01-01 00:32:27.285,1.31,0.077,0.852,-459.717,-152.832,-16.541, , , , , , ,48.115,22.039,-92.362
 09:43:53.487,eb:33:2e:f9:57:b5, 2015-01-01 00:32:27.285,1.329,0.06,0.896,-471.863,-168.335,-23.56, , , , , , ,45.511,21.561,-93.071
 09:43:53.487,eb:33:2e:f9:57:b5, 2015-01-01 00:32:27.285,1.243,-0.005,0.976,-479.675,-188.599,-30.579, , , , , , ,42.847,21.011,-93.829
 09:43:53.487,eb:33:2e:f9:57:b5, 2015-01-01 00:32:27.285,1.286,-0.103,0.997,-483.948,-213.806,-35.4, , , , , , ,40.128,20.363,-94.68
 09:43:53.487,eb:33:2e:f9:57:b5, 2015-01-01 00:32:27.285,1.376,-0.181,1.202,-483.398,-236.45,-40.833, , , , , , ,37.315,19.572,-95.647
 09:43:53.487,eb:33:2e:f9:57:b5, 2015-01-01 00:32:27.285,1.346,-0.166,1.479,-479.98,-252.991,-47.546, , , , , , ,34.596,18.704,-96.608
 09:43:53.487,eb:33:2e:f9:57:b5, 2015-01-01 00:32:27.285,1.258,-0.038,1.659,-473.267,-270.691,-58.716, , , , , , ,31.899,17.754,-97.586
 09:43:53.487,eb:33:2e:f9:57:b5, 2015-01-01 00:32:27.285,1.154,0.042,1.749,-465.332,-289.368,-68.909, , , , , , ,29.251,16.705,-98.63
 09:43:53.487,eb:33:2e:f9:57:b5, 2015-01-01 00:32:27.285,1.039,0.024,1.871,-458.008,-306.885,-77.332, , , , , , ,26.57,15.518,-99.739
 09:43:53.531,eb:33:2e:f9:57:b5, 2015-01-01 00:32:27.285,0.944,-0.045,2.043,-452.576,-318.359,-84.656, , , , , , ,24.016,14.271,-100.822
 09:43:53.531,eb:33:2e:f9:57:b5, 2015-01-01 00:32:27.285,0.785,-0.133,2.2,-447.998,-325.317,-89.661, , , , , , ,21.522,12.953,-101.865
 09:43:53.531,eb:33:2e:f9:57:b5, 2015-01-01 00:32:27.285,0.557,-0.203,2.277,-444.824,-332.336,-90.149, , , , , , ,19.072,11.569,-102.887
 09:43:53.531,eb:33:2e:f9:57:b5, 2015-01-01 00:32:27.285,0.302,-0.26,2.391,-443.787,-339.172,-85.571, , , , , , ,16.6,10.058,-103.865
 09:43:53.531,eb:33:2e:f9:57:b5, 2015-01-01 00:32:27.285,0.008,-0.293,2.568,-444.58,-343.018,-72.937, , , , , , ,14.244,8.514,-104.711
 09:43:53.531,eb:33:2e:f9:57:b5, 2015-01-01 00:32:27.285,-0.281,-0.294,2.801,-447.388,-341.98,-50.354, , , , , , ,11.92,6.91,-105.392
 09:43:53.531,eb:33:2e:f9:57:b5, 2015-01-01 00:32:27.285,-0.51,-0.235,3.119,-450.378,-334.778,-19.592, , , , , , ,9.619,5.284,-105.87
 09:43:53.531,eb:33:2e:f9:57:b5, 2015-01-01 00:32:27.285,-0.69,-0.108,3.463,-450.317,-325.073,18.127, , , , , , ,7.273,3.609,-106.117
 09:43:53.576,eb:33:2e:f9:57:b5, 2015-01-01 00:32:27.595,-0.778,0.094,3.719,-444.702,-318.481,59.875, , , , , , ,5.037,1.994,-106.078
 09:43:53.576,eb:33:2e:f9:57:b5, 2015-01-01 00:32:27.595,-0.791,0.361,3.843,-434.082,-320.312,102.356, , , , , , ,2.851,0.374,-105.76
 09:43:53.576,eb:33:2e:f9:57:b5, 2015-01-01 00:32:27.595,-0.791,0.714,3.785,-422.607,-333.435,143.555, , , , , , ,0.709,-1.274,-105.172
 09:43:53.576,eb:33:2e:f9:57:b5, 2015-01-01 00:32:27.595,-0.715,1.126,3.643,-414.49,-354.919,181.03, , , , , , ,-1.478,-3.043,-104.343
 09:43:53.576,eb:33:2e:f9:57:b5, 2015-01-01 00:32:27.595,-0.624,1.508,3.637,-409.546,-374.878,213.44, , , , , , ,-3.609,-4.828,-103.25
 09:43:53.576,eb:33:2e:f9:57:b5, 2015-01-01 00:32:27.595,-0.53,1.909,3.692,-405.212,-390.686,239.258, , , , , , ,-5.779,-6.652,-101.953
 09:43:53.576,eb:33:2e:f9:57:b5, 2015-01-01 00:32:27.595,-0.44,2.396,3.76,-399.902,-404.724,257.812, , , , , , ,-7.987,-8.487,-100.453
 09:43:53.576,eb:33:2e:f9:57:b5, 2015-01-01 00:32:27.595,-0.399,2.966,3.864,-391.602,-415.833,267.395, , , , , , ,-10.3,-10.338,-98.806
 09:43:53.621,eb:33:2e:f9:57:b5, 2015-01-01 00:32:27.595,-0.437,3.579,4.039,-378.357,-422.974,268.738, , , , , , ,-12.568,-12.129,-97.037
 09:43:53.621,eb:33:2e:f9:57:b5, 2015-01-01 00:32:27.595,-0.504,4.154,4.303,-358.337,-422.424,261.719, , , , , , ,-14.815,-13.876,-95.229
 09:43:53.621,eb:33:2e:f9:57:b5, 2015-01-01 00:32:27.595,-0.608,4.626,4.624,-331.299,-405.762,247.925, , , , , , ,-16.996,-15.518,-93.378
 09:43:53.621,eb:33:2e:f9:57:b5, 2015-01-01 00:32:27.595,-0.701,5.012,4.888,-299.805,-367.92,229.187, , , , , , ,-19.111,-16.996,-91.582
 09:43:53.621,eb:33:2e:f9:57:b5, 2015-01-01 00:32:27.595,-0.736,5.358,4.962,-267.273,-310.303,206.238, , , , , , ,-21.017,-18.199,-89.918
 09:43:53.621,eb:33:2e:f9:57:b5, 2015-01-01 00:32:27.595,-0.657,5.678,4.845,-236.755,-239.929,178.284, , , , , , ,-22.725,-19.089,-88.5
 09:43:53.622,eb:33:2e:f9:57:b5, 2015-01-01 00:32:27.595,-0.498,5.947,4.595,-209.351,-161.804,143.311, , , , , , ,-24.219,-19.666,-87.325
 09:43:53.622,eb:33:2e:f9:57:b5, 2015-01-01 00:32:27.595,-0.318,6.151,4.188,-182.983,-83.374,101.501, , , , , , ,-25.488,-19.94,-86.49
 09:43:53.667,eb:33:2e:f9:57:b5, 2015-01-01 00:32:27.595,-0.204,6.307,3.612,-155.518,-14.954,53.65, , , , , , ,-26.477,-19.968,-86.045
 09:43:53.667,eb:33:2e:f9:57:b5, 2015-01-01 00:32:27.595,-0.234,6.328,2.895,-127.808,34.119,2.319, , , , , , ,-27.191,-19.836,-86.023
 09:43:53.667,eb:33:2e:f9:57:b5, 2015-01-01 00:32:27.595,-0.383,6.059,2.159,-101.685,59.814,-44.922, , , , , , ,-27.669,-19.671,-86.276
 09:43:53.667,eb:33:2e:f9:57:b5, 2015-01-01 00:32:27.595,-0.744,5.546,1.611,-78.552,68.237,-82.642, , , , , , ,-27.938,-19.545,-86.754
 09:43:53.667,eb:33:2e:f9:57:b5, 2015-01-01 00:32:27.595,-1.199,4.906,1.2,-57.495,60.303,-106.873, , , , , , ,-28.059,-19.49,-87.374
 09:43:53.667,eb:33:2e:f9:57:b5, 2015-01-01 00:32:27.595,-1.614,4.224,0.939,-36.133,41.992,-115.601, , , , , , ,-28.065,-19.539,-88.077
 09:43:53.667,eb:33:2e:f9:57:b5, 2015-01-01 00:32:27.595,-2.022,3.553,0.859,-12.939,21.973,-109.009, , , , , , ,-27.971,-19.671,-88.682
 09:43:53.667,eb:33:2e:f9:57:b5, 2015-01-01 00:32:27.595,-2.191,2.808,0.871,17.517,0.122,-83.862, , , , , , ,-27.768,-19.858,-89.149
 09:43:53.689,eb:33:2e:f9:57:b5, 2015-01-01 00:32:27.595,-2.232,2.241,0.927,45.654,-9.094,-54.382, , , , , , ,-27.493,-20.039,-89.445
 09:43:53.689,eb:33:2e:f9:57:b5, 2015-01-01 00:32:27.595,-2.162,1.791,0.917,75.195,-12.695,-22.583, , , , , , ,-27.131,-20.171,-89.626
 09:43:53.689,eb:33:2e:f9:57:b5, 2015-01-01 00:32:27.595,-2.005,1.408,0.817,104.919,-14.954,7.629, , , , , , ,-26.669,-20.242,-89.61
 09:43:53.689,eb:33:2e:f9:57:b5, 2015-01-01 00:32:27.595,4.536,1.06,0.607,132.263,-15.625,33.875, , , , , , ,-26.082,-20.253,-89.462
 09:43:53.689,eb:33:2e:f9:57:b5, 2015-01-01 00:32:27.595,-1.022,1.646,8.077,536.56,-40.771,-183.594, , , , , , ,-24.296,-21.204,-89.588
 09:43:53.689,eb:33:2e:f9:57:b5, 2015-01-01 00:32:27.595,4.708,8.029,-2.917,725.708,249.329,-280.09, , , , , , ,-20.402,-20.204,-91.208
 09:43:53.689,eb:33:2e:f9:57:b5, 2015-01-01 00:32:27.595,-3.099,10.974,2.429,697.815,320.251,-532.898, , , , , , ,-15.787,-19.693,-93.988
 09:43:53.689,eb:33:2e:f9:57:b5, 2015-01-01 00:32:27.595,-1.829,2.59,6.426,763.062,365.845,-302.185, , , , , , ,-11.151,-18.567,-96.63
 09:43:53.733,eb:33:2e:f9:57:b5, 2015-01-01 00:32:27.595,-2.05,8.927,6.369,474.67,514.587,-255.615, , , , , , ,-7.559,-16.458,-98.438
 09:43:53.733,eb:33:2e:f9:57:b5, 2015-01-01 00:32:27.595,1.511,2.396,4.544,272.644,577.942,-36.743, , , , , , ,-5.548,-13.711,-99.426
 09:43:53.733,eb:33:2e:f9:57:b5, 2015-01-01 00:32:27.595,0.698,0.239,4.481,198.181,582.458,104.797, , , , , , ,-4.455,-10.739,-99.322
 09:43:53.733,eb:33:2e:f9:57:b5, 2015-01-01 00:32:27.595,-3.355,1.555,0.205,96.252,380.31,55.359, , , , , , ,-3.812,-8.339,-99.146
 09:43:53.733,eb:33:2e:f9:57:b5, 2015-01-01 00:32:27.595,-1.325,-0.346,0.454,105.042,348.389,39.001, , , , , , ,-3.362,-6.575,-99.031
 09:43:53.733,eb:33:2e:f9:57:b5, 2015-01-01 00:32:27.595,-0.028,-0.941,-0.458,174.5,233.276,-1.526, , , , , , ,-2.62,-5.131,-99.025
 09:43:53.733,eb:33:2e:f9:57:b5, 2015-01-01 00:32:27.595,-1.051,0.954,0.695,143.982,193.298,-38.147, , , , , , ,-1.802,-4.12,-99.212
 09:43:53.733,eb:33:2e:f9:57:b5, 2015-01-01 00:32:27.595,-0.229,0.459,0.18,122.009,146.301,-4.089, , , , , , ,-1.066,-3.279,-99.283
 09:43:53.803,eb:33:2e:f9:57:b5, 2015-01-01 00:32:27.595,0.54,0.864,-0.025,86.243,111.389,-19.47, , , , , , ,-0.582,-2.631,-99.366
 09:43:53.803,eb:33:2e:f9:57:b5, 2015-01-01 00:32:27.595,0.385,0.392,0.735,84.412,96.008,-33.02, , , , , , ,-0.137,-2.175,-99.509
 09:43:53.803,eb:33:2e:f9:57:b5, 2015-01-01 00:32:27.595,-1.131,0.47,1.108,67.261,140.625,-35.461, , , , , , ,0.236,-1.533,-99.69
 09:43:53.803,eb:33:2e:f9:57:b5, 2015-01-01 00:32:27.595,-0.801,0.176,0.12,52.246,91.675,-19.897, , , , , , ,0.588,-0.928,-99.794
 09:43:53.804,eb:33:2e:f9:57:b5, 2015-01-01 00:32:27.595,-0.246,0.035,0.536,45.898,55.42,-13.794, , , , , , ,0.829,-0.599,-99.871
 09:43:53.804,eb:33:2e:f9:57:b5, 2015-01-01 00:32:27.595,0.439,-0.06,1.244,52.612,45.837,-12.085, , , , , , ,1.077,-0.357,-99.937
 09:43:53.804,eb:33:2e:f9:57:b5, 2015-01-01 00:32:27.595,0.518,0.199,1.734,56.641,65.125,-17.761, , , , , , ,1.351,-0.077,-100.003
 09:43:53.804,eb:33:2e:f9:57:b5, 2015-01-01 00:32:27.595,-0.249,0.099,1.731,61.584,98.816,-22.522, , , , , , ,1.719,0.374,-100.08
 09:43:53.804,eb:33:2e:f9:57:b5, 2015-01-01 00:32:27.595,-0.374,0.04,0.921,63.904,83.679,-16.602, , , , , , ,2.032,0.84,-100.157
 09:43:53.804,eb:33:2e:f9:57:b5, 2015-01-01 00:32:27.595,-0.641,0.101,0.829,62.927,60.059,-16.052, , , , , , ,2.346,1.181,-100.239
 09:43:53.804,eb:33:2e:f9:57:b5, 2015-01-01 00:32:27.595,0.062,0.002,1.146,60.242,32.41,0.977, , , , , , ,2.659,1.401,-100.256
 09:43:53.804,eb:33:2e:f9:57:b5, 2015-01-01 00:32:27.595,-0.01,0.191,1.546,60.181,19.958,-0.549, , , , , , ,3.021,1.538,-100.223
 09:43:53.804,eb:33:2e:f9:57:b5, 2015-01-01 00:32:27.595,-0.195,-0.244,2.09,79.834,3.723,9.888, , , , , , ,3.367,1.599,-100.201
 09:43:53.804,eb:33:2e:f9:57:b5, 2015-01-01 00:32:27.595,-1.079,-0.116,1.634,120.117,-62.073,38.452, , , , , , ,3.884,1.417,-100.08
 09:43:53.804,eb:33:2e:f9:57:b5, 2015-01-01 00:32:27.595,-1.292,-0.492,3.495,165.588,-101.257,59.326, , , , , , ,4.62,0.983,-99.866
 09:43:53.805,eb:33:2e:f9:57:b5, 2015-01-01 00:32:27.595,-0.167,-1.237,5.059,234.985,-128.723,79.834, , , , , , ,5.718,0.396,-99.536
 09:43:53.847,eb:33:2e:f9:57:b5, 2015-01-01 00:32:27.595,0.575,-1.49,6.13,302.856,-108.948,60.73, , , , , , ,7.081,-0.264,-99.278
 09:43:53.847,eb:33:2e:f9:57:b5, 2015-01-01 00:32:27.595,1.135,-1.688,5.436,401.672,-46.997,57.007, , , , , , ,8.877,-0.659,-99.036
 09:43:53.847,eb:33:2e:f9:57:b5, 2015-01-01 00:32:27.595,1.223,-1.028,4.707,462.646,-4.578,45.349, , , , , , ,11.08,-0.797,-98.8
 09:43:53.847,eb:33:2e:f9:57:b5, 2015-01-01 00:32:27.595,0.909,-1.217,4.235,524.963,9.399,18.616, , , , , , ,13.623,-0.78,-98.635
 09:43:53.847,eb:33:2e:f9:57:b5, 2015-01-01 00:32:27.595,0.955,-0.857,4.229,563.66,-16.296,-13.306, , , , , , ,16.364,-0.824,-98.646
 09:43:53.847,eb:33:2e:f9:57:b5, 2015-01-01 00:32:27.595,0.26,-1.362,3.89,602.661,-12.085,-41.077, , , , , , ,19.308,-0.818,-98.811
 09:43:53.847,eb:33:2e:f9:57:b5, 2015-01-01 00:32:27.595,0.191,-0.819,3.621,623.779,-32.715,-60.12, , , , , , ,22.39,-0.835,-99.102
 09:43:53.847,eb:33:2e:f9:57:b5, 2015-01-01 00:32:27.595,0.689,-1.107,3.748,649.353,-46.875,-77.332, , , , , , ,25.631,-0.879,-99.503
 09:43:53.892,eb:33:2e:f9:57:b5, 2015-01-01 00:32:27.910,0.747,-1.086,3.394,680.298,-72.449,-95.886, , , , , , ,28.987,-0.967,-100.042
 09:43:53.892,eb:33:2e:f9:57:b5, 2015-01-01 00:32:27.910,0.935,-0.496,3.335,674.866,-109.009,-131.042, , , , , , ,32.388,-1.06,-100.767
 09:43:53.892,eb:33:2e:f9:57:b5, 2015-01-01 00:32:27.910,0.438,-0.481,4.013,679.749,-87.463,-152.954, , , , , , ,35.788,-1.077,-101.651
 09:43:53.892,eb:33:2e:f9:57:b5, 2015-01-01 00:32:27.910,0.356,0.63,4.879,702.393,-52.551,-172.729, , , , , , ,39.293,-0.84,-102.513
 09:43:53.892,eb:33:2e:f9:57:b5, 2015-01-01 00:32:27.910,-0.352,1.018,5.008,709.045,25.635,-192.566, , , , , , ,42.847,-0.264,-103.25
 09:43:53.892,eb:33:2e:f9:57:b5, 2015-01-01 00:32:27.910,-0.53,2.08,3.618,678.955,80.811,-188.538, , , , , , ,46.329,0.61,-103.661
 09:43:53.892,eb:33:2e:f9:57:b5, 2015-01-01 00:32:27.910,-0.104,2.279,1.992,558.655,102.112,-192.139, , , , , , ,49.378,1.631,-103.969
 09:43:53.892,eb:33:2e:f9:57:b5, 2015-01-01 00:32:27.910,0.598,1.472,0.271,423.95,153.137,-189.209, , , , , , ,51.784,2.785,-104.073
 09:43:53.937,eb:33:2e:f9:57:b5, 2015-01-01 00:32:27.910,0.759,1.5,-1.042,329.407,193.726,-203.857, , , , , , ,53.586,4.147,-103.942
 09:43:53.937,eb:33:2e:f9:57:b5, 2015-01-01 00:32:27.910,0.275,2.197,-0.887,264.16,178.528,-213.196, , , , , , ,55.052,5.565,-103.744
 09:43:53.937,eb:33:2e:f9:57:b5, 2015-01-01 00:32:27.910,0.554,2.472,0.045,192.2,143.799,-220.764, , , , , , ,56.157,6.91,-103.705
 09:43:53.937,eb:33:2e:f9:57:b5, 2015-01-01 00:32:27.910,1.132,1.841,2.083,163.452,118.774,-216.858, , , , , , ,57.025,8.179,-103.788
 09:43:53.937,eb:33:2e:f9:57:b5, 2015-01-01 00:32:27.910,0.845,1.052,3.615,186.462,145.752,-218.323, , , , , , ,57.892,9.454,-103.799
 09:43:53.937,eb:33:2e:f9:57:b5, 2015-01-01 00:32:27.910,0.977,0.862,3.594,241.943,127.869,-224.915, , , , , , ,58.986,10.761,-103.749
 09:43:53.937,eb:33:2e:f9:57:b5, 2015-01-01 00:32:27.910,0.726,0.731,3.609,295.471,114.441,-227.844, , , , , , ,60.353,12.041,-103.815
 09:43:53.937,eb:33:2e:f9:57:b5, 2015-01-01 00:32:27.910,0.517,0.383,3.295,323.914,104.004,-223.083, , , , , , ,61.93,13.304,-103.881
 09:43:54.004,eb:33:2e:f9:57:b5, 2015-01-01 00:32:27.910,0.409,-0.027,3.186,334.412,100.342,-208.557, , , , , , ,63.578,14.491,-103.925
 09:43:54.004,eb:33:2e:f9:57:b5, 2015-01-01 00:32:27.910,0.257,-0.286,3.268,335.266,103.394,-187.5, , , , , , ,65.264,15.595,-103.843
 09:43:54.004,eb:33:2e:f9:57:b5, 2015-01-01 00:32:27.910,0.104,-0.44,3.42,325.378,114.929,-160.522, , , , , , ,66.962,16.6,-103.683
 09:43:54.004,eb:33:2e:f9:57:b5, 2015-01-01 00:32:27.910,0.035,-0.627,3.678,310.425,135.925,-127.502, , , , , , ,68.654,17.501,-103.348
 09:43:54.004,eb:33:2e:f9:57:b5, 2015-01-01 00:32:27.910,0.026,-0.826,4.027,300.171,163.208,-93.079, , , , , , ,70.34,18.27,-102.794
 09:43:54.004,eb:33:2e:f9:57:b5, 2015-01-01 00:32:27.910,0.068,-0.901,4.237,296.936,188.416,-60.059, , , , , , ,72.076,18.902,-101.97
 09:43:54.004,eb:33:2e:f9:57:b5, 2015-01-01 00:32:27.910,0.209,-0.907,4.32,299.194,205.933,-29.175, , , , , , ,73.872,19.391,-101.025
 09:43:54.004,eb:33:2e:f9:57:b5, 2015-01-01 00:32:27.910,0.474,-1.002,4.475,306.702,217.712,-4.456, , , , , , ,75.745,19.742,-99.965
 09:43:54.006,eb:33:2e:f9:57:b5, 2015-01-01 00:32:27.910,0.709,-1.163,4.606,317.81,229.614,13.123, , , , , , ,77.706,19.968,-98.795
 09:43:54.006,eb:33:2e:f9:57:b5, 2015-01-01 00:32:27.910,0.975,-1.373,4.542,330.322,238.831,23.499, , , , , , ,79.761,20.099,-97.487
 09:43:54.006,eb:33:2e:f9:57:b5, 2015-01-01 00:32:27.910,1.459,-1.587,4.354,342.59,241.333,23.743, , , , , , ,81.898,20.171,-96.202
 09:43:54.006,eb:33:2e:f9:57:b5, 2015-01-01 00:32:27.910,1.667,-1.683,4.105,352.356,235.413,10.559, , , , , , ,84.056,20.237,-94.949
 09:43:54.006,eb:33:2e:f9:57:b5, 2015-01-01 00:32:27.910,1.711,-1.626,3.654,353.76,216.125,-10.01, , , , , , ,86.237,20.341,-93.757
 09:43:54.006,eb:33:2e:f9:57:b5, 2015-01-01 00:32:27.910,1.72,-1.553,3.135,346.802,185.12,-35.339, , , , , , ,88.358,20.506,-92.642
 09:43:54.006,eb:33:2e:f9:57:b5, 2015-01-01 00:32:27.910,1.726,-1.531,2.759,330.566,150.879,-63.171, , , , , , ,90.357,20.775,-91.769
 09:43:54.006,eb:33:2e:f9:57:b5, 2015-01-01 00:32:27.910,1.619,-1.574,2.575,305.847,119.507,-92.163, , , , , , ,92.159,21.171,-91.082
 09:43:54.051,eb:33:2e:f9:57:b5, 2015-01-01 00:32:27.910,1.489,-1.684,2.48,274.353,93.323,-119.202, , , , , , ,93.807,21.687,-90.5
 09:43:54.051,eb:33:2e:f9:57:b5, 2015-01-01 00:32:27.910,1.351,-1.818,2.497,236.938,78.125,-143.005, , , , , , ,95.262,22.319,-89.929
 09:43:54.051,eb:33:2e:f9:57:b5, 2015-01-01 00:32:27.910,1.242,-1.951,2.57,196.045,74.341,-160.217, , , , , , ,96.515,23.044,-89.44
 09:43:54.051,eb:33:2e:f9:57:b5, 2015-01-01 00:32:27.910,1.157,-2.075,2.674,155.518,81.177,-170.471, , , , , , ,97.537,23.829,-88.94
 09:43:54.051,eb:33:2e:f9:57:b5, 2015-01-01 00:32:27.910,0.976,-2.199,2.789,118.469,96.741,-173.706, , , , , , ,98.454,24.626,-88.319
 09:43:54.051,eb:33:2e:f9:57:b5, 2015-01-01 00:32:27.910,0.724,-2.322,2.792,85.51,109.619,-169.922, , , , , , ,99.25,25.389,-87.534
 09:43:54.052,eb:33:2e:f9:57:b5, 2015-01-01 00:32:27.910,0.492,-2.446,2.695,55.725,115.479,-158.63, , , , , , ,99.926,26.104,-86.759
 09:43:54.052,eb:33:2e:f9:57:b5, 2015-01-01 00:32:27.910,0.28,-2.58,2.574,27.222,118.225,-140.442, , , , , , ,100.415,26.735,-86.012
 09:43:54.095,eb:33:2e:f9:57:b5, 2015-01-01 00:32:27.910,0.185,-2.701,2.392,-3.052,120.667,-115.234, , , , , , ,100.822,27.246,-85.221
 09:43:54.095,eb:33:2e:f9:57:b5, 2015-01-01 00:32:27.910,0.227,-2.792,2.154,-39.612,130.615,-83.801, , , , , , ,101.069,27.598,-84.359
 09:43:54.095,eb:33:2e:f9:57:b5, 2015-01-01 00:32:27.910,0.39,-2.853,1.86,-83.984,152.466,-48.34, , , , , , ,101.14,27.768,-83.496
 09:43:54.095,eb:33:2e:f9:57:b5, 2015-01-01 00:32:27.910,0.642,-2.849,1.533,-135.498,182.983,-12.939, , , , , , ,100.959,27.751,-82.568
 09:43:54.095,eb:33:2e:f9:57:b5, 2015-01-01 00:32:27.910,0.971,-2.733,1.214,-188.538,211.121,17.395, , , , , , ,100.635,27.532,-81.464
 09:43:54.095,eb:33:2e:f9:57:b5, 2015-01-01 00:32:27.910,1.282,-2.479,0.873,-237.793,226.99,39.368, , , , , , ,100.096,27.175,-80.206
 09:43:54.095,eb:33:2e:f9:57:b5, 2015-01-01 00:32:27.910,1.647,-2.132,0.441,-281.494,224.426,51.758, , , , , , ,99.322,26.752,-78.997
 09:43:54.095,eb:33:2e:f9:57:b5, 2015-01-01 00:32:27.910,1.971,-1.759,0.011,-318.542,203.796,53.467, , , , , , ,98.245,26.34,-77.91
 09:43:54.140,eb:33:2e:f9:57:b5, 2015-01-01 00:32:27.910,2.278,-1.442,-0.493,-347.168,161.926,46.631, , , , , , ,96.987,25.972,-76.954
 09:43:54.140,eb:33:2e:f9:57:b5, 2015-01-01 00:32:27.910,2.5,-1.102,-1.084,-372.009,100.525,31.86, , , , , , ,95.471,25.708,-76.223
 09:43:54.140,eb:33:2e:f9:57:b5, 2015-01-01 00:32:27.910,2.547,-0.819,-1.532,-397.339,29.785,11.902, , , , , , ,93.669,25.587,-75.91
 09:43:54.140,eb:33:2e:f9:57:b5, 2015-01-01 00:32:27.910,2.48,-0.655,-1.696,-421.936,-47.302,-8.789, , , , , , ,91.516,25.604,-76.042
 09:43:54.140,eb:33:2e:f9:57:b5, 2015-01-01 00:32:27.910,2.375,-0.616,-1.486,-443.115,-121.765,-26.428, , , , , , ,89.121,25.708,-76.558
 09:43:54.140,eb:33:2e:f9:57:b5, 2015-01-01 00:32:27.910,2.187,-0.713,-0.929,-461.243,-181.091,-39.185, , , , , , ,86.462,25.845,-77.393
 09:43:54.140,eb:33:2e:f9:57:b5, 2015-01-01 00:32:27.910,1.998,-0.872,-0.312,-479.431,-220.154,-45.044, , , , , , ,83.595,25.972,-78.558
 09:43:54.140,eb:33:2e:f9:57:b5, 2015-01-01 00:32:27.910,1.789,-0.989,0.251,-499.39,-240.112,-44.067, , , , , , ,80.508,26.043,-79.915
 09:43:54.183,eb:33:2e:f9:57:b5, 2015-01-01 00:32:28.200,1.601,-1.022,0.709,-521.24,-249.451,-38.574, , , , , , ,77.338,26.005,-81.304
 09:43:54.184,eb:33:2e:f9:57:b5, 2015-01-01 00:32:28.200,1.481,-0.957,1.061,-543.152,-254.883,-31.006, , , , , , ,74.048,25.862,-82.672
 09:43:54.184,eb:33:2e:f9:57:b5, 2015-01-01 00:32:28.200,1.405,-0.825,1.363,-562.622,-260.681,-23.071, , , , , , ,70.659,25.593,-84.084
 09:43:54.184,eb:33:2e:f9:57:b5, 2015-01-01 00:32:28.200,1.367,-0.686,1.625,-577.454,-270.447,-16.113, , , , , , ,67.143,25.197,-85.529
 09:43:54.184,eb:33:2e:f9:57:b5, 2015-01-01 00:32:28.200,1.281,-0.588,1.831,-587.097,-286.865,-9.888, , , , , , ,63.622,24.67,-86.962
 09:43:54.184,eb:33:2e:f9:57:b5, 2015-01-01 00:32:28.200,1.15,-0.567,2.085,-592.773,-304.81,-2.625, , , , , , ,60.068,23.994,-88.374
 09:43:54.184,eb:33:2e:f9:57:b5, 2015-01-01 00:32:28.200,1.101,-0.619,2.297,-593.262,-320.557,4.517, , , , , , ,56.519,23.159,-89.83
 09:43:54.184,eb:33:2e:f9:57:b5, 2015-01-01 00:32:28.200,1.121,-0.673,2.548,-592.651,-329.651,12.695, , , , , , ,52.949,22.165,-91.28
 09:43:54.206,eb:33:2e:f9:57:b5, 2015-01-01 00:32:28.200,1.107,-0.714,2.833,-591.064,-332.947,20.508, , , , , , ,49.499,21.055,-92.615
 09:43:54.206,eb:33:2e:f9:57:b5, 2015-01-01 00:32:28.200,1.17,-0.672,2.979,-588.318,-336.365,25.757, , , , , , ,46.121,19.847,-93.823
 09:43:54.206,eb:33:2e:f9:57:b5, 2015-01-01 00:32:28.200,1.26,-0.59,3.043,-583.557,-342.773,26.184, , , , , , ,42.808,18.539,-94.982
 09:43:54.206,eb:33:2e:f9:57:b5, 2015-01-01 00:32:28.200,1.275,-0.472,3.012,-577.393,-356.323,20.447, , , , , , ,39.507,17.117,-96.141
 09:43:54.206,eb:33:2e:f9:57:b5, 2015-01-01 00:32:28.200,1.286,-0.329,2.922,-570.312,-381.287,9.705, , , , , , ,36.321,15.612,-97.267
 09:43:54.206,eb:33:2e:f9:57:b5, 2015-01-01 00:32:28.200,1.34,-0.203,2.985,-560.486,-409.668,-6.287, , , , , , ,33.195,13.975,-98.421
 09:43:54.206,eb:33:2e:f9:57:b5, 2015-01-01 00:32:28.200,1.242,-0.127,3.197,-547.607,-435.73,-24.353, , , , , , ,30.157,12.211,-99.641
 09:43:54.206,eb:33:2e:f9:57:b5, 2015-01-01 00:32:28.200,0.96,-0.028,3.396,-535.645,-458.74,-40.771, , , , , , ,27.147,10.289,-100.92
 09:43:54.251,eb:33:2e:f9:57:b5, 2015-01-01 00:32:28.200,0.553,0.079,3.583,-527.954,-481.689,-50.476, , , , , , ,24.291,8.256,-102.178
 09:43:54.251,eb:33:2e:f9:57:b5, 2015-01-01 00:32:28.200,0.069,0.147,3.935,-525.146,-491.577,-49.5, , , , , , ,21.511,6.103,-103.359
 09:43:54.251,eb:33:2e:f9:57:b5, 2015-01-01 00:32:28.200,-0.431,0.208,4.423,-522.278,-482.117,-36.621, , , , , , ,18.798,3.889,-104.409
 09:43:54.251,eb:33:2e:f9:57:b5, 2015-01-01 00:32:28.200,-0.816,0.305,4.867,-515.625,-464.539,-11.414, , , , , , ,16.1,1.626,-105.238
 09:43:54.251,eb:33:2e:f9:57:b5, 2015-01-01 00:32:28.200,-1.012,0.475,5.147,-507.019,-434.509,23.071, , , , , , ,13.541,-0.544,-105.771
 09:43:54.251,eb:33:2e:f9:57:b5, 2015-01-01 00:32:28.200,-1.228,0.663,5.274,-498.352,-394.897,65.552, , , , , , ,11.036,-2.604,-105.969
 09:43:54.251,eb:33:2e:f9:57:b5, 2015-01-01 00:32:28.200,-1.379,0.883,5.104,-493.896,-359.436,112.305, , , , , , ,8.553,-4.521,-105.826
 09:43:54.251,eb:33:2e:f9:57:b5, 2015-01-01 00:32:28.200,-1.329,1.107,4.897,-495.178,-332.336,157.715, , , , , , ,5.971,-6.345,-105.353
 09:43:54.296,eb:33:2e:f9:57:b5, 2015-01-01 00:32:28.200,-1.195,1.396,4.815,-500.366,-311.096,197.571, , , , , , ,3.378,-8.009,-104.573
 09:43:54.296,eb:33:2e:f9:57:b5, 2015-01-01 00:32:28.200,-1.059,1.883,4.76,-506.531,-300.903,229.431, , , , , , ,0.698,-9.564,-103.53
 09:43:54.296,eb:33:2e:f9:57:b5, 2015-01-01 00:32:28.200,-0.907,2.559,4.696,-509.827,-306.641,250.305, , , , , , ,-2.065,-11.069,-102.277
 09:43:54.296,eb:33:2e:f9:57:b5, 2015-01-01 00:32:28.200,-0.851,3.338,4.644,-506.042,-325.745,259.949, , , , , , ,-4.955,-12.596,-100.871
 09:43:54.296,eb:33:2e:f9:57:b5, 2015-01-01 00:32:28.200,-0.832,4.029,4.659,-489.929,-353.271,261.108, , , , , , ,-7.8,-14.15,-99.338
 09:43:54.296,eb:33:2e:f9:57:b5, 2015-01-01 00:32:28.200,-0.843,4.558,4.837,-458.923,-372.437,255.554, , , , , , ,-10.58,-15.754,-97.74
 09:43:54.296,eb:33:2e:f9:57:b5, 2015-01-01 00:32:28.200,-0.943,4.976,5.105,-416.199,-369.69,246.46, , , , , , ,-13.228,-17.32,-96.064
 09:43:54.296,eb:33:2e:f9:57:b5, 2015-01-01 00:32:28.200,-1.091,5.371,5.293,-366.699,-342.285,234.436, , , , , , ,-15.727,-18.754,-94.373
 09:43:54.342,eb:33:2e:f9:57:b5, 2015-01-01 00:32:28.200,-1.068,5.746,5.296,-316.895,-291.077,220.032, , , , , , ,-17.952,-19.924,-92.741
 09:43:54.342,eb:33:2e:f9:57:b5, 2015-01-01 00:32:28.200,-0.834,6.063,5.236,-271.423,-208.618,201.66, , , , , , ,-19.913,-20.742,-91.302
 09:43:54.342,eb:33:2e:f9:57:b5, 2015-01-01 00:32:28.200,-0.541,6.421,4.923,-231.628,-103.088,174.988, , , , , , ,-21.577,-21.094,-90.093
 09:43:54.342,eb:33:2e:f9:57:b5, 2015-01-01 00:32:28.200,-0.319,6.73,4.141,-193.787,-6.531,137.817, , , , , , ,-22.945,-21.006,-89.242
 09:43:54.342,eb:33:2e:f9:57:b5, 2015-01-01 00:32:28.200,-0.292,6.886,3.124,-154.358,57.373,90.393, , , , , , ,-23.967,-20.627,-88.775
 09:43:54.342,eb:33:2e:f9:57:b5, 2015-01-01 00:32:28.200,-0.508,6.854,2.077,-115.051,78.979,38.147, , , , , , ,-24.659,-20.165,-88.693
 09:43:54.342,eb:33:2e:f9:57:b5, 2015-01-01 00:32:28.200,-0.987,6.599,1.202,-78.918,60.059,-10.376, , , , , , ,-25.087,-19.83,-88.808
 09:43:54.342,eb:33:2e:f9:57:b5, 2015-01-01 00:32:28.200,-1.531,5.952,0.653,-40.1,12.39,-51.941, , , , , , ,-25.269,-19.759,-89.061
 09:43:54.387,eb:33:2e:f9:57:b5, 2015-01-01 00:32:28.200,-2.027,5.214,0.54,-11.353,-26.245,-66.284, , , , , , ,-25.291,-19.946,-89.33
 09:43:54.387,eb:33:2e:f9:57:b5, 2015-01-01 00:32:28.200,-2.293,4.404,0.689,15.869,-52.795,-62.256, , , , , , ,-25.192,-20.281,-89.588
 09:43:54.387,eb:33:2e:f9:57:b5, 2015-01-01 00:32:28.200,-2.269,3.647,1.028,43.152,-59.998,-43.64, , , , , , ,-24.988,-20.654,-89.703
 09:43:54.387,eb:33:2e:f9:57:b5, 2015-01-01 00:32:28.200,-2.03,3.015,1.44,74.158,-46.448,-17.761, , , , , , ,-24.653,-20.956,-89.725
 09:43:54.387,eb:33:2e:f9:57:b5, 2015-01-01 00:32:28.200,0.101,2.504,1.666,111.389,-21.729,8.667, , , , , , ,-24.192,-21.105,-89.659
 09:43:54.387,eb:33:2e:f9:57:b5, 2015-01-01 00:32:28.200,1.583,2.656,3.801,341.125,-212.83,-120.544, , , , , , ,-23.203,-21.599,-89.648
 09:43:54.387,eb:33:2e:f9:57:b5, 2015-01-01 00:32:28.200,-0.739,3.901,3.805,591.064,424.561,-95.398, , , , , , ,-20.16,-20.901,-90.637
 09:43:54.387,eb:33:2e:f9:57:b5, 2015-01-01 00:32:28.200,1.603,6.814,-2.434,581.299,319.458,-279.236, , , , , , ,-16.573,-19.666,-92.28
 09:43:54.411,eb:33:2e:f9:57:b5, 2015-01-01 00:32:28.200,-0.57,5.744,4.445,673.95,391.357,-347.107, , , , , , ,-12.859,-18.309,-94.449
 09:43:54.411,eb:33:2e:f9:57:b5, 2015-01-01 00:32:28.200,-1.304,10.842,4.187,716.98,324.768,-278.931, , , , , , ,-8.69,-16.957,-96.427
 09:43:54.411,eb:33:2e:f9:57:b5, 2015-01-01 00:32:28.200,-1.92,11.451,5.833,455.933,607.971,-228.027, , , , , , ,-5.257,-14.793,-98.004
 09:43:54.411,eb:33:2e:f9:57:b5, 2015-01-01 00:32:28.200,4.81,2.533,4.959,204.529,676.88,142.395, , , , , , ,-3.669,-11.245,-98.289
 09:43:54.411,eb:33:2e:f9:57:b5, 2015-01-01 00:32:28.200,-0.967,2.936,3.674,126.404,605.408,132.324, , , , , , ,-2.977,-8.064,-97.449
 09:43:54.411,eb:33:2e:f9:57:b5, 2015-01-01 00:32:28.200,-5.436,1.928,1.975,28.87,498.84,-21.973, , , , , , ,-2.741,-5.328,-97.531
 09:43:54.411,eb:33:2e:f9:57:b5, 2015-01-01 00:32:28.200,-0.44,-2.636,-1.583,144.836,302.734,-0.671, , , , , , ,-2.258,-3.323,-97.564
 09:43:54.411,eb:33:2e:f9:57:b5, 2015-01-01 00:32:28.200,-1.863,-0.372,0.106,179.016,203.247,-70.251, , , , , , ,-1.263,-2.274,-97.811
 09:43:54.453,eb:33:2e:f9:57:b5, 2015-01-01 00:32:28.200,-0.666,0.463,-0.02,144.958,143.921,-19.775, , , , , , ,-0.472,-1.39,-98.026
 09:43:54.453,eb:33:2e:f9:57:b5, 2015-01-01 00:32:28.200,-0.723,0.702,0.122,113.831,146.423,-15.32, , , , , , ,0.159,-0.67,-98.113
 09:43:54.454,eb:33:2e:f9:57:b5, 2015-01-01 00:32:28.200,1.598,0.513,-0.167,98.45,63.721,-25.94, , , , , , ,0.676,-0.176,-98.212
 09:43:54.454,eb:33:2e:f9:57:b5, 2015-01-01 00:32:28.200,-0.196,0.664,1.531,91.248,116.943,-54.993, , , , , , ,1.208,0.269,-98.399
 09:43:54.454,eb:33:2e:f9:57:b5, 2015-01-01 00:32:28.200,-1.408,0.382,0.677,76.05,142.578,-47.363, , , , , , ,1.62,1.005,-98.657
 09:43:54.454,eb:33:2e:f9:57:b5, 2015-01-01 00:32:28.200,-0.379,0.194,-0.069,61.34,68.542,-19.592, , , , , , ,1.95,1.483,-98.8
 09:43:54.454,eb:33:2e:f9:57:b5, 2015-01-01 00:32:28.200,-0.399,-0.245,1.041,70.435,54.016,-16.113, , , , , , ,2.269,1.78,-98.871
 09:43:54.454,eb:33:2e:f9:57:b5, 2015-01-01 00:32:28.200,0.466,0.099,1.358,74.89,40.527,-9.277, , , , , , ,2.708,2.027,-98.904
 09:43:54.500,eb:33:2e:f9:57:b5, 2015-01-01 00:32:28.490,0.147,0.177,1.92,78.43,61.89,-14.16, , , , , , ,3.087,2.28,-98.948
 09:43:54.500,eb:33:2e:f9:57:b5, 2015-01-01 00:32:28.490,-0.416,-0.067,1.614,83.313,81.97,-10.315, , , , , , ,3.494,2.681,-99.003
 09:43:54.500,eb:33:2e:f9:57:b5, 2015-01-01 00:32:28.490,-0.621,-0.077,0.803,85.815,61.279,0.793, , , , , , ,3.917,3.032,-98.998
 09:43:54.500,eb:33:2e:f9:57:b5, 2015-01-01 00:32:28.490,0.065,0.006,1.197,90.332,29.541,9.766, , , , , , ,4.427,3.29,-98.937
 09:43:54.500,eb:33:2e:f9:57:b5, 2015-01-01 00:32:28.490,0.687,0.343,1.7,85.266,17.09,10.254, , , , , , ,4.867,3.378,-98.877
 09:43:54.500,eb:33:2e:f9:57:b5, 2015-01-01 00:32:28.490,-0.272,0.313,1.864,98.267,9.644,4.272, , , , , , ,5.328,3.444,-98.849
 09:43:54.500,eb:33:2e:f9:57:b5, 2015-01-01 00:32:28.490,-0.893,-0.426,2.741,132.507,-16.846,30.884, , , , , , ,5.916,3.411,-98.767
 09:43:54.500,eb:33:2e:f9:57:b5, 2015-01-01 00:32:28.490,-0.947,-0.205,3.103,175.72,-55.786,51.025, , , , , , ,6.79,3.203,-98.542
 09:43:54.543,eb:33:2e:f9:57:b5, 2015-01-01 00:32:28.490,-0.703,-0.521,4.714,206.421,-60.791,50.415, , , , , , ,7.767,2.851,-98.333
 09:43:54.543,eb:33:2e:f9:57:b5, 2015-01-01 00:32:28.490,-0.405,-1.569,5.292,293.091,-29.968,69.885, , , , , , ,9.047,2.615,-98.069
 09:43:54.543,eb:33:2e:f9:57:b5, 2015-01-01 00:32:28.490,0.761,-1.375,4.222,373.718,-57.129,72.51, , , , , , ,10.778,2.329,-97.74
 09:43:54.543,eb:33:2e:f9:57:b5, 2015-01-01 00:32:28.490,1.083,-0.935,3.979,427.429,-57.373,48.218, , , , , , ,12.87,1.989,-97.509
 09:43:54.543,eb:33:2e:f9:57:b5, 2015-01-01 00:32:28.490,0.646,-0.979,3.909,475.586,-44.983,32.349, , , , , , ,15.15,1.697,-97.383
 09:43:54.543,eb:33:2e:f9:57:b5, 2015-01-01 00:32:28.490,0.274,-1.196,3.865,518.921,-37.292,19.775, , , , , , ,17.666,1.467,-97.317
 09:43:54.543,eb:33:2e:f9:57:b5, 2015-01-01 00:32:28.490,0.017,-1.261,4.208,553.65,-20.081,3.662, , , , , , ,20.369,1.329,-97.311
 09:43:54.543,eb:33:2e:f9:57:b5, 2015-01-01 00:32:28.490,-0.062,-1.263,3.817,592.102,-19.592,-12.817, , , , , , ,23.302,1.274,-97.366
 09:43:54.589,eb:33:2e:f9:57:b5, 2015-01-01 00:32:28.490,-0.444,-0.78,3.406,609.009,-15.625,-30.09, , , , , , ,26.323,1.247,-97.515
 09:43:54.589,eb:33:2e:f9:57:b5, 2015-01-01 00:32:28.490,0.134,-0.715,3.644,612.732,-29.053,-34.546, , , , , , ,29.366,1.219,-97.701
 09:43:54.589,eb:33:2e:f9:57:b5, 2015-01-01 00:32:28.490,0.862,-1.284,3.315,632.202,-49.805,-46.204, , , , , , ,32.481,1.137,-97.993
 09:43:54.589,eb:33:2e:f9:57:b5, 2015-01-01 00:32:28.490,0.667,-1.255,2.881,653.809,-43.884,-60.12, , , , , , ,35.744,1.126,-98.333
 09:43:54.589,eb:33:2e:f9:57:b5, 2015-01-01 00:32:28.490,0.749,-0.393,3.675,651.184,-51.208,-86.853, , , , , , ,39.001,1.159,-98.784
 09:43:54.589,eb:33:2e:f9:57:b5, 2015-01-01 00:32:28.490,-0.224,0.378,4.976,622.314,19.165,-106.445, , , , , , ,42.182,1.412,-99.201
 09:43:54.589,eb:33:2e:f9:57:b5, 2015-01-01 00:32:28.490,-0.435,0.896,6.089,562.256,132.69,-96.558, , , , , , ,45.11,2.082,-99.272
 09:43:54.590,eb:33:2e:f9:57:b5, 2015-01-01 00:32:28.490,-0.799,0.093,5.17,533.752,263.733,-61.951, , , , , , ,47.873,3.109,-98.751
 09:43:54.611,eb:33:2e:f9:57:b5, 2015-01-01 00:32:28.490,0.649,-0.736,1.057,474.243,278.503,-24.475, , , , , , ,50.444,4.186,-97.833
 09:43:54.612,eb:33:2e:f9:57:b5, 2015-01-01 00:32:28.490,1.158,0.637,-1.843,350.769,275.635,-3.357, , , , , , ,52.553,5.081,-96.729
 09:43:54.612,eb:33:2e:f9:57:b5, 2015-01-01 00:32:28.490,1.307,1.659,-2.791,264.954,202.332,-8.118, , , , , , ,54.097,5.828,-95.779
 09:43:54.612,eb:33:2e:f9:57:b5, 2015-01-01 00:32:28.490,0.668,2.297,-1.07,218.506,110.779,-20.508, , , , , , ,55.377,6.312,-95.224
 09:43:54.612,eb:33:2e:f9:57:b5, 2015-01-01 00:32:28.490,0.82,2.468,0.289,182.251,41.565,-42.358, , , , , , ,56.371,6.658,-95.026
 09:43:54.612,eb:33:2e:f9:57:b5, 2015-01-01 00:32:28.490,0.759,1.713,2.227,178.955,6.958,-52.795, , , , , , ,57.25,6.899,-95.065
 09:43:54.612,eb:33:2e:f9:57:b5, 2015-01-01 00:32:28.490,0.681,1.076,3.228,206.36,7.446,-68.542, , , , , , ,58.195,7.185,-95.197
 09:43:54.612,eb:33:2e:f9:57:b5, 2015-01-01 00:32:28.490,0.506,0.781,3.69,254.578,10.681,-79.407, , , , , , ,59.376,7.537,-95.356
 09:43:54.658,eb:33:2e:f9:57:b5, 2015-01-01 00:32:28.490,0.172,0.544,3.77,295.349,21.667,-82.764, , , , , , ,60.765,7.938,-95.482
 09:43:54.658,eb:33:2e:f9:57:b5, 2015-01-01 00:32:28.490,0.021,0.213,3.54,314.331,27.649,-77.881, , , , , , ,62.292,8.35,-95.526
 09:43:54.658,eb:33:2e:f9:57:b5, 2015-01-01 00:32:28.490,-0.004,-0.2,3.452,320.557,31.677,-67.2, , , , , , ,63.88,8.74,-95.554
 09:43:54.658,eb:33:2e:f9:57:b5, 2015-01-01 00:32:28.490,-0.018,-0.538,3.515,320.923,33.203,-51.758, , , , , , ,65.506,9.08,-95.532
 09:43:54.658,eb:33:2e:f9:57:b5, 2015-01-01 00:32:28.490,-0.018,-0.84,3.77,318.787,38.635,-34.546, , , , , , ,67.121,9.344,-95.449
 09:43:54.659,eb:33:2e:f9:57:b5, 2015-01-01 00:32:28.490,-0.07,-1.159,4.053,314.575,57.007,-16.785, , , , , , ,68.73,9.547,-95.219
 09:43:54.659,eb:33:2e:f9:57:b5, 2015-01-01 00:32:28.490,0.139,-1.529,4.076,313.171,75.378,-1.587, , , , , , ,70.351,9.701,-94.905
 09:43:54.659,eb:33:2e:f9:57:b5, 2015-01-01 00:32:28.490,0.471,-1.782,4.061,313.599,89.355,7.507, , , , , , ,71.993,9.822,-94.504
 09:43:54.702,eb:33:2e:f9:57:b5, 2015-01-01 00:32:28.490,0.703,-1.825,3.956,310.791,100.342,6.836, , , , , , ,73.636,9.926,-94.021
 09:43:54.702,eb:33:2e:f9:57:b5, 2015-01-01 00:32:28.490,0.885,-1.802,3.695,303.772,105.408,-2.197, , , , , , ,75.256,10.052,-93.461
 09:43:54.702,eb:33:2e:f9:57:b5, 2015-01-01 00:32:28.490,1.07,-1.775,3.411,292.725,102.6,-18.86, , , , , , ,76.833,10.239,-92.961
 09:43:54.702,eb:33:2e:f9:57:b5, 2015-01-01 00:32:28.490,1.215,-1.772,3.094,275.024,90.515,-45.654, , , , , , ,78.316,10.514,-92.532
 09:43:54.702,eb:33:2e:f9:57:b5, 2015-01-01 00:32:28.490,1.312,-1.787,2.901,255.554,78.064,-72.205, , , , , , ,79.7,10.893,-92.175
 09:43:54.702,eb:33:2e:f9:57:b5, 2015-01-01 00:32:28.490,1.342,-1.825,2.764,232.117,67.383,-100.83, , , , , , ,80.964,11.393,-91.84
 09:43:54.702,eb:33:2e:f9:57:b5, 2015-01-01 00:32:28.490,1.313,-1.883,2.661,205.566,59.204,-129.456, , , , , , ,82.09,12.025,-91.615
 09:43:54.702,eb:33:2e:f9:57:b5, 2015-01-01 00:32:28.490,1.22,-1.978,2.607,177.246,54.749,-155.579, , , , , , ,83.057,12.783,-91.439
 09:43:54.747,eb:33:2e:f9:57:b5, 2015-01-01 00:32:28.490,1.096,-2.083,2.582,147.034,55.481,-175.72, , , , , , ,83.892,13.651,-91.258
 09:43:54.747,eb:33:2e:f9:57:b5, 2015-01-01 00:32:28.490,0.96,-2.177,2.57,115.906,61.035,-189.148, , , , , , ,84.584,14.595,-91
 09:43:54.747,eb:33:2e:f9:57:b5, 2015-01-01 00:32:28.490,0.84,-2.235,2.532,85.083,70.312,-194.885, , , , , , ,85.139,15.59,-90.742
 09:43:54.747,eb:33:2e:f9:57:b5, 2015-01-01 00:32:28.490,0.766,-2.258,2.456,54.749,81.665,-194.763, , , , , , ,85.529,16.595,-90.445
 09:43:54.747,eb:33:2e:f9:57:b5, 2015-01-01 00:32:28.490,0.708,-2.253,2.37,25.879,94.177,-189.636, , , , , , ,85.831,17.584,-90.055
 09:43:54.747,eb:33:2e:f9:57:b5, 2015-01-01 00:32:28.490,0.667,-2.218,2.242,-1.709,105.164,-181.03, , , , , , ,86.017,18.539,-89.539
 09:43:54.747,eb:33:2e:f9:57:b5, 2015-01-01 00:32:28.490,0.596,-2.162,2.112,-27.893,113.342,-169.861, , , , , , ,86.1,19.451,-89.022
 09:43:54.747,eb:33:2e:f9:57:b5, 2015-01-01 00:32:28.490,0.451,-2.104,1.997,-52.551,116.638,-156.372, , , , , , ,86.034,20.303,-88.489
 09:43:54.769,eb:33:2e:f9:57:b5, 2015-01-01 00:32:28.805,0.26,-2.057,1.852,-76.05,112.732,-139.16, , , , , , ,85.902,21.072,-87.929
 09:43:54.769,eb:33:2e:f9:57:b5, 2015-01-01 00:32:28.805,0.125,-2.067,1.67,-100.891,105.53,-116.272, , , , , , ,85.638,21.742,-87.347
 09:43:54.769,eb:33:2e:f9:57:b5, 2015-01-01 00:32:28.805,0.121,-2.161,1.471,-129.944,103.088,-89.111, , , , , , ,85.243,22.28,-86.83
 09:43:54.769,eb:33:2e:f9:57:b5, 2015-01-01 00:32:28.805,0.214,-2.304,1.224,-165.1,112.793,-57.922, , , , , , ,84.655,22.687,-86.314
 09:43:54.769,eb:33:2e:f9:57:b5, 2015-01-01 00:32:28.805,0.368,-2.375,0.958,-204.59,128.723,-26.245, , , , , , ,83.958,22.939,-85.671
 09:43:54.769,eb:33:2e:f9:57:b5, 2015-01-01 00:32:28.805,0.55,-2.245,0.66,-244.69,141.235,2.808, , , , , , ,83.101,23.055,-84.886
 09:43:54.769,eb:33:2e:f9:57:b5, 2015-01-01 00:32:28.805,0.836,-1.95,0.453,-280.273,141.113,24.658, , , , , , ,82.073,23.066,-84.111
 09:43:54.769,eb:33:2e:f9:57:b5, 2015-01-01 00:32:28.805,1.172,-1.564,0.225,-311.279,128.296,37.354, , , , , , ,80.821,23.011,-83.397
 09:43:54.814,eb:33:2e:f9:57:b5, 2015-01-01 00:32:28.805,1.517,-1.127,-0.144,-341.431,102.539,40.527, , , , , , ,79.426,22.906,-82.749
 09:43:54.814,eb:33:2e:f9:57:b5, 2015-01-01 00:32:28.805,1.703,-0.736,-0.553,-370.667,61.89,35.278, , , , , , ,77.811,22.797,-82.244
 09:43:54.814,eb:33:2e:f9:57:b5, 2015-01-01 00:32:28.805,1.767,-0.445,-0.833,-396.545,8.118,24.536, , , , , , ,75.954,22.692,-82.046
 09:43:54.814,eb:33:2e:f9:57:b5, 2015-01-01 00:32:28.805,1.772,-0.279,-0.817,-415.527,-50.354,10.315, , , , , , ,73.817,22.582,-82.194
 09:43:54.814,eb:33:2e:f9:57:b5, 2015-01-01 00:32:28.805,1.711,-0.222,-0.54,-426.147,-105.164,-3.967, , , , , , ,71.543,22.451,-82.628
 09:43:54.814,eb:33:2e:f9:57:b5, 2015-01-01 00:32:28.805,1.607,-0.265,-0.205,-432.19,-149.231,-15.015, , , , , , ,69.126,22.275,-83.287
 09:43:54.814,eb:33:2e:f9:57:b5, 2015-01-01 00:32:28.805,1.504,-0.378,0.168,-440.247,-176.453,-20.569, , , , , , ,66.616,22.05,-84.161
 09:43:54.815,eb:33:2e:f9:57:b5, 2015-01-01 00:32:28.805,1.405,-0.507,0.522,-453.369,-187.561,-21.057, , , , , , ,63.979,21.758,-85.139
 09:43:54.860,eb:33:2e:f9:57:b5, 2015-01-01 00:32:28.805,1.302,-0.57,0.731,-470.52,-191.711,-18.066, , , , , , ,61.309,21.407,-86.094
 09:43:54.860,eb:33:2e:f9:57:b5, 2015-01-01 00:32:28.805,1.261,-0.541,0.878,-489.807,-196.96,-14.526, , , , , , ,58.557,20.989,-87.012
 09:43:54.860,eb:33:2e:f9:57:b5, 2015-01-01 00:32:28.805,1.277,-0.456,1.008,-509.033,-205.811,-12.268, , , , , , ,55.712,20.5,-87.957
 09:43:54.860,eb:33:2e:f9:57:b5, 2015-01-01 00:32:28.805,1.334,-0.374,1.121,-524.78,-221.863,-13.733, , , , , , ,52.734,19.913,-88.951
 09:43:54.860,eb:33:2e:f9:57:b5, 2015-01-01 00:32:28.805,1.313,-0.326,1.238,-536.194,-242.798,-19.775, , , , , , ,49.735,19.248,-89.978
 09:43:54.860,eb:33:2e:f9:57:b5, 2015-01-01 00:32:28.805,1.329,-0.319,1.371,-543.823,-274.841,-30.579, , , , , , ,46.664,18.474,-91.077
 09:43:54.860,eb:33:2e:f9:57:b5, 2015-01-01 00:32:28.805,1.424,-0.305,1.548,-544.373,-301.147,-43.396, , , , , , ,43.561,17.578,-92.302
 09:43:54.860,eb:33:2e:f9:57:b5, 2015-01-01 00:32:28.805,1.53,-0.271,1.803,-539.917,-322.693,-61.035, , , , , , ,40.419,16.573,-93.636
 09:43:54.903,eb:33:2e:f9:57:b5, 2015-01-01 00:32:28.805,1.421,-0.192,2.078,-532.593,-340.271,-81.116, , , , , , ,37.359,15.502,-95.021
 09:43:54.903,eb:33:2e:f9:57:b5, 2015-01-01 00:32:28.805,1.296,-0.077,2.271,-526.55,-355.835,-100.769, , , , , , ,34.338,14.354,-96.454
 09:43:54.903,eb:33:2e:f9:57:b5, 2015-01-01 00:32:28.805,1.147,0.011,2.534,-520.264,-362.427,-121.521, , , , , , ,31.366,13.151,-97.954
 09:43:54.903,eb:33:2e:f9:57:b5, 2015-01-01 00:32:28.805,0.879,0.022,2.796,-511.902,-365.112,-136.841, , , , , , ,28.416,11.871,-99.487
 09:43:54.903,eb:33:2e:f9:57:b5, 2015-01-01 00:32:28.805,0.571,0.018,2.967,-504.761,-363.831,-146.912, , , , , , ,25.587,10.569,-100.981
 09:43:54.903,eb:33:2e:f9:57:b5, 2015-01-01 00:32:28.805,0.192,-0.033,3.129,-500.305,-356.14,-148.376, , , , , , ,22.83,9.234,-102.404
 09:43:54.903,eb:33:2e:f9:57:b5, 2015-01-01 00:32:28.805,-0.256,-0.105,3.289,-497.681,-345.642,-136.475, , , , , , ,20.138,7.866,-103.722
 09:43:54.903,eb:33:2e:f9:57:b5, 2015-01-01 00:32:28.805,-0.708,-0.112,3.445,-496.216,-333.618,-111.145, , , , , , ,17.463,6.427,-104.87
 09:43:54.949,eb:33:2e:f9:57:b5, 2015-01-01 00:32:28.805,-1.07,-0.057,3.634,-492.615,-322.693,-73.486, , , , , , ,14.903,4.982,-105.76
 09:43:54.949,eb:33:2e:f9:57:b5, 2015-01-01 00:32:28.805,-1.275,0.031,3.888,-484.131,-314.087,-24.597, , , , , , ,12.42,3.494,-106.348
 09:43:54.949,eb:33:2e:f9:57:b5, 2015-01-01 00:32:28.805,-1.274,0.135,4.189,-470.581,-303.101,31.006, , , , , , ,10.025,1.978,-106.606
 09:43:54.949,eb:33:2e:f9:57:b5, 2015-01-01 00:32:28.805,-1.226,0.277,4.433,-454.956,-286.316,88.867, , , , , , ,7.668,0.445,-106.512
 09:43:54.949,eb:33:2e:f9:57:b5, 2015-01-01 00:32:28.805,-1.234,0.539,4.39,-441.284,-273.071,145.386, , , , , , ,5.433,-0.994,-106.062
 09:43:54.949,eb:33:2e:f9:57:b5, 2015-01-01 00:32:28.805,-1.226,0.921,4.078,-430.725,-274.17,195.557, , , , , , ,3.235,-2.422,-105.287
 09:43:54.949,eb:33:2e:f9:57:b5, 2015-01-01 00:32:28.805,-1.177,1.366,3.713,-424.255,-291.626,237.427, , , , , , ,1.044,-3.878,-104.233
 09:43:54.949,eb:33:2e:f9:57:b5, 2015-01-01 00:32:28.805,-1.082,1.804,3.421,-421.509,-322.754,271.179, , , , , , ,-1.214,-5.449,-102.942
 09:43:54.972,eb:33:2e:f9:57:b5, 2015-01-01 00:32:28.805,-0.78,2.242,3.294,-420.349,-356.934,296.326, , , , , , ,-3.488,-7.108,-101.426
 09:43:54.972,eb:33:2e:f9:57:b5, 2015-01-01 00:32:28.805,-0.565,2.75,3.413,-418.335,-378.784,309.814, , , , , , ,-5.817,-8.833,-99.75
 09:43:54.972,eb:33:2e:f9:57:b5, 2015-01-01 00:32:28.805,-0.591,3.361,3.458,-412.231,-398.315,314.087, , , , , , ,-8.201,-10.574,-97.932
 09:43:54.972,eb:33:2e:f9:57:b5, 2015-01-01 00:32:28.805,-0.627,3.997,3.529,-398.926,-425.293,308.105, , , , , , ,-10.646,-12.382,-96.021
 09:43:54.972,eb:33:2e:f9:57:b5, 2015-01-01 00:32:28.805,-0.679,4.483,3.908,-376.038,-440.491,291.443, , , , , , ,-13.03,-14.211,-94.059
 09:43:54.972,eb:33:2e:f9:57:b5, 2015-01-01 00:32:28.805,-0.702,4.776,4.458,-344.971,-424.805,269.592, , , , , , ,-15.326,-15.974,-92.142
 09:43:54.972,eb:33:2e:f9:57:b5, 2015-01-01 00:32:28.805,-0.688,5.007,4.923,-310.608,-370.117,246.887, , , , , , ,-17.485,-17.507,-90.275
 09:43:54.972,eb:33:2e:f9:57:b5, 2015-01-01 00:32:28.805,-0.507,5.298,5.133,-276.306,-281.677,221.619, , , , , , ,-19.484,-18.66,-88.583
 09:43:55.016,eb:33:2e:f9:57:b5, 2015-01-01 00:32:28.805,-0.087,5.609,5.068,-240.295,-171.204,190.186, , , , , , ,-21.215,-19.319,-87.177
 09:43:55.016,eb:33:2e:f9:57:b5, 2015-01-01 00:32:28.805,0.439,5.981,4.675,-202.026,-56.335,145.996, , , , , , ,-22.637,-19.484,-86.204
 09:43:55.016,eb:33:2e:f9:57:b5, 2015-01-01 00:32:28.805,0.757,6.467,3.862,-162.476,36.743,84.167, , , , , , ,-23.708,-19.254,-85.671
 09:43:55.016,eb:33:2e:f9:57:b5, 2015-01-01 00:32:28.805,0.841,6.845,2.615,-123.657,78.979,7.629, , , , , , ,-24.417,-18.875,-85.627
 09:43:55.016,eb:33:2e:f9:57:b5, 2015-01-01 00:32:28.805,0.61,6.842,1.379,-89.722,69.702,-74.036, , , , , , ,-24.813,-18.611,-85.995
 09:43:55.017,eb:33:2e:f9:57:b5, 2015-01-01 00:32:28.805,-0.016,6.414,0.479,-63.843,25.391,-148.01, , , , , , ,-24.961,-18.655,-86.71
 09:43:55.017,eb:33:2e:f9:57:b5, 2015-01-01 00:32:28.805,-0.994,5.704,0.008,-45.959,-36.56,-204.529, , , , , , ,-24.95,-19.094,-87.567
 09:43:55.017,eb:33:2e:f9:57:b5, 2015-01-01 00:32:28.805,-1.778,4.672,0.086,-30.884,-101.99,-239.868, , , , , , ,-24.802,-19.924,-88.489
 09:43:55.061,eb:33:2e:f9:57:b5, 2015-01-01 00:32:28.805,-2.368,3.808,0.48,-18.372,-131.104,-241.882, , , , , , ,-24.604,-20.989,-89.39
 09:43:55.061,eb:33:2e:f9:57:b5, 2015-01-01 00:32:28.805,-2.697,3.055,0.996,-1.709,-130.615,-222.961, , , , , , ,-24.34,-22.072,-90.269
 09:43:55.061,eb:33:2e:f9:57:b5, 2015-01-01 00:32:28.805,-2.712,2.448,1.544,23.254,-101.013,-190.735, , , , , , ,-23.989,-23.016,-91.022
 09:43:55.061,eb:33:2e:f9:57:b5, 2015-01-01 00:32:28.805,0.581,2.03,1.979,55.115,-51.086,-154.602, , , , , , ,-23.472,-23.687,-91.714
 09:43:55.061,eb:33:2e:f9:57:b5, 2015-01-01 00:32:28.805,-0.377,2.242,7.486,314.392,-45.41,-267.517, , , , , , ,-22.269,-24.494,-92.538
 09:43:55.061,eb:33:2e:f9:57:b5, 2015-01-01 00:32:28.805,-0.313,4.988,5.625,547.119,543.457,-255.188, , , , , , ,-19.012,-23.082,-94.647
 09:43:55.061,eb:33:2e:f9:57:b5, 2015-01-01 00:32:28.805,1.516,8.981,-1.187,614.319,450.012,-476.44, , , , , , ,-15.073,-21.297,-97.328
 09:43:55.061,eb:33:2e:f9:57:b5, 2015-01-01 00:32:28.805,-3.016,6.502,3.559,718.14,385.925,-507.568, , , , , , ,-10.58,-19.748,-100.734
 09:43:55.108,eb:33:2e:f9:57:b5, 2015-01-01 00:32:28.805,-3.07,6.942,3.307,650.635,602.661,-224.06, , , , , , ,-6.345,-17.507,-102.524
 09:43:55.108,eb:33:2e:f9:57:b5, 2015-01-01 00:32:28.805,-0.861,3.894,3.476,300.232,760.559,-14.709, , , , , , ,-4.048,-13.953,-103.519
 09:43:55.108,eb:33:2e:f9:57:b5, 2015-01-01 00:32:28.805,2.369,-0.016,1.5,185.913,553.04,238.037, , , , , , ,-3.164,-10.69,-102.838
 09:43:55.108,eb:33:2e:f9:57:b5, 2015-01-01 00:32:28.805,-8.509,6.556,4.307,-18.86,578.674,-36.316, , , , , , ,-2.752,-8.02,-102.645
 09:43:55.108,eb:33:2e:f9:57:b5, 2015-01-01 00:32:28.805,-0.126,-1.95,-2.303,39.307,180.42,67.2, , , , , , ,-2.774,-6.147,-102.585
 09:43:55.108,eb:33:2e:f9:57:b5, 2015-01-01 00:32:28.805,0.197,-1.846,0.869,154.114,132.019,5.066, , , , , , ,-2.214,-5.499,-102.415
 09:43:55.108,eb:33:2e:f9:57:b5, 2015-01-01 00:32:28.805,-0.658,0.31,0.586,156.006,102.844,-51.514, , , , , , ,-1.362,-4.96,-102.623
 09:43:55.108,eb:33:2e:f9:57:b5, 2015-01-01 00:32:28.805,1.587,0.277,0.736,130.493,61.218,2.38, , , , , , ,-0.604,-4.537,-102.722
 09:43:55.151,eb:33:2e:f9:57:b5, 2015-01-01 00:32:28.805,0.205,0.946,1.615,110.046,152.893,-26.001, , , , , , ,-0.005,-3.988,-102.772
 09:43:55.151,eb:33:2e:f9:57:b5, 2015-01-01 00:32:28.805,0.781,0.583,0.338,94.727,122.07,-37.781, , , , , , ,0.505,-3.257,-102.969
 09:43:55.151,eb:33:2e:f9:57:b5, 2015-01-01 00:32:28.805,0.369,0.461,1.141,83.862,131.958,-41.87, , , , , , ,0.945,-2.681,-103.151
 09:43:55.151,eb:33:2e:f9:57:b5, 2015-01-01 00:32:28.805,-1.356,0.319,0.985,76.111,178.772,-49.622, , , , , , ,1.423,-1.796,-103.365
 09:43:55.151,eb:33:2e:f9:57:b5, 2015-01-01 00:32:28.805,-0.608,0.132,-0.155,61.279,104.797,-22.827, , , , , , ,1.758,-1.126,-103.513
 09:43:55.151,eb:33:2e:f9:57:b5, 2015-01-01 00:32:28.805,-0.429,-0.004,0.64,54.932,88.867,-15.686, , , , , , ,2.038,-0.654,-103.59
 09:43:55.151,eb:33:2e:f9:57:b5, 2015-01-01 00:32:28.805,-0.161,-0.022,0.983,61.707,67.932,-11.902, , , , , , ,2.34,-0.28,-103.64
 09:43:55.151,eb:33:2e:f9:57:b5, 2015-01-01 00:32:28.805,0.595,0.186,1.295,60.974,58.289,-7.996, , , , , , ,2.708,0.055,-103.661
 09:43:55.176,eb:33:2e:f9:57:b5, 2015-01-01 00:32:29.205,0.142,0.042,1.988,73.853,88.196,-18.921, , , , , , ,3.049,0.417,-103.705
 09:43:55.176,eb:33:2e:f9:57:b5, 2015-01-01 00:32:29.205,-0.343,0.069,1.376,76.05,94.055,-19.165, , , , , , ,3.428,0.901,-103.782
 09:43:55.176,eb:33:2e:f9:57:b5, 2015-01-01 00:32:29.205,-0.565,0.131,0.846,74.768,75.378,-15.503, , , , , , ,3.801,1.313,-103.837
 09:43:55.176,eb:33:2e:f9:57:b5, 2015-01-01 00:32:29.205,0.006,0.174,0.63,67.261,43.274,-11.902, , , , , , ,4.213,1.642,-103.876
 09:43:55.176,eb:33:2e:f9:57:b5, 2015-01-01 00:32:29.205,-0.435,0.587,0.574,60.73,11.23,-14.465, , , , , , ,4.526,1.741,-103.931
 09:43:55.176,eb:33:2e:f9:57:b5, 2015-01-01 00:32:29.205,-0.639,-0.351,2.167,69.946,19.165,2.38, , , , , , ,4.845,1.846,-103.958
 09:43:55.176,eb:33:2e:f9:57:b5, 2015-01-01 00:32:29.205,-0.658,-0.311,1.782,93.201,-21.423,22.4, , , , , , ,5.268,1.818,-103.881
 09:43:55.176,eb:33:2e:f9:57:b5, 2015-01-01 00:32:29.205,-1.259,-0.231,2.197,118.469,-50.659,37.659, , , , , , ,5.872,1.631,-103.738
 09:43:55.218,eb:33:2e:f9:57:b5, 2015-01-01 00:32:29.205,-1.242,-0.455,3.074,150.391,-77.332,62.805, , , , , , ,6.564,1.28,-103.513
 09:43:55.218,eb:33:2e:f9:57:b5, 2015-01-01 00:32:29.205,-1.089,-0.835,3.966,197.144,-99.06,86.853, , , , , , ,7.443,0.769,-103.184
 09:43:55.218,eb:33:2e:f9:57:b5, 2015-01-01 00:32:29.205,-0.422,-0.965,4.282,253.967,-130.737,94.299, , , , , , ,8.597,0.121,-102.805
 09:43:55.218,eb:33:2e:f9:57:b5, 2015-01-01 00:32:29.205,0.291,-0.991,4.299,316.345,-157.227,94.238, , , , , , ,10.118,-0.637,-102.453
 09:43:55.218,eb:33:2e:f9:57:b5, 2015-01-01 00:32:29.205,0.75,-1.397,4.01,387.634,-158.508,93.323, , , , , , ,11.909,-1.505,-102.145
 09:43:55.218,eb:33:2e:f9:57:b5, 2015-01-01 00:32:29.205,0.95,-1.279,4.039,450.745,-134.46,84.595, , , , , , ,14.024,-2.318,-101.876
 09:43:55.218,eb:33:2e:f9:57:b5, 2015-01-01 00:32:29.205,1.192,-1.074,4.592,500.061,-106.384,61.951, , , , , , ,16.419,-2.994,-101.684
 09:43:55.218,eb:33:2e:f9:57:b5, 2015-01-01 00:32:29.205,1.3,-1.338,5.148,548.035,-63.293,36.194, , , , , , ,19.1,-3.417,-101.585
 09:43:55.264,eb:33:2e:f9:57:b5, 2015-01-01 00:32:29.205,1.014,-1.241,4.767,590.454,-18.86,8.24, , , , , , ,21.973,-3.625,-101.552
 09:43:55.264,eb:33:2e:f9:57:b5, 2015-01-01 00:32:29.205,0.795,-1.079,4.369,623.901,17.09,-26.855, , , , , , ,25.032,-3.571,-101.602
 09:43:55.264,eb:33:2e:f9:57:b5, 2015-01-01 00:32:29.205,1.055,-1.248,4.292,656.799,53.772,-53.406, , , , , , ,28.262,-3.29,-101.7
 09:43:55.264,eb:33:2e:f9:57:b5, 2015-01-01 00:32:29.205,0.812,-1.415,4.024,678.284,70.557,-68.97, , , , , , ,31.652,-2.84,-101.816
 09:43:55.264,eb:33:2e:f9:57:b5, 2015-01-01 00:32:29.205,0.61,-1.3,3.732,689.575,67.566,-89.355, , , , , , ,35.096,-2.329,-101.97
 09:43:55.264,eb:33:2e:f9:57:b5, 2015-01-01 00:32:29.205,-0.163,-1.509,4.041,690.308,103.394,-90.027, , , , , , ,38.551,-1.714,-102.057
 09:43:55.264,eb:33:2e:f9:57:b5, 2015-01-01 00:32:29.205,-0.048,-1.144,4.54,683.838,128.967,-84.412, , , , , , ,41.979,-0.978,-102.008
 09:43:55.264,eb:33:2e:f9:57:b5, 2015-01-01 00:32:29.205,-0.683,-0.454,5.095,669.8,202.515,-71.96, , , , , , ,45.396,-0.055,-101.706
 09:43:55.309,eb:33:2e:f9:57:b5, 2015-01-01 00:32:29.205,-0.768,0.026,4.71,629.272,252.625,-42.969, , , , , , ,48.631,0.939,-101.03
 09:43:55.309,eb:33:2e:f9:57:b5, 2015-01-01 00:32:29.205,-0.533,0.024,3.247,564.026,273.621,-14.099, , , , , , ,51.641,1.895,-100.052
 09:43:55.309,eb:33:2e:f9:57:b5, 2015-01-01 00:32:29.205,-0.328,-0.721,1.092,439.941,328.552,34.973, , , , , , ,54.146,2.758,-98.8
 09:43:55.309,eb:33:2e:f9:57:b5, 2015-01-01 00:32:29.205,1.04,-0.234,-1.766,332.947,329.834,80.872, , , , , , ,56.129,3.472,-97.229
 09:43:55.309,eb:33:2e:f9:57:b5, 2015-01-01 00:32:29.205,1.41,1.173,-1.703,256.409,296.814,74.036, , , , , , ,57.623,3.994,-95.707
 09:43:55.309,eb:33:2e:f9:57:b5, 2015-01-01 00:32:29.205,0.582,1.963,-0.968,245.239,224.548,70.618, , , , , , ,58.975,4.356,-94.395
 09:43:55.309,eb:33:2e:f9:57:b5, 2015-01-01 00:32:29.205,0.982,2.9,-0.481,203.857,150.269,44.189, , , , , , ,60.15,4.581,-93.466
 09:43:55.309,eb:33:2e:f9:57:b5, 2015-01-01 00:32:29.205,0.997,2.148,1.402,187.622,103.149,26.306, , , , , , ,61.183,4.741,-92.878
 09:43:55.356,eb:33:2e:f9:57:b5, 2015-01-01 00:32:29.205,1.113,1.556,2.456,202.209,87.28,-2.014, , , , , , ,62.183,4.916,-92.439
 09:43:55.356,eb:33:2e:f9:57:b5, 2015-01-01 00:32:29.205,1.123,1.449,3.045,251.831,74.768,-33.936, , , , , , ,63.358,5.191,-92.104
 09:43:55.356,eb:33:2e:f9:57:b5, 2015-01-01 00:32:29.205,0.793,1.325,3.58,304.565,72.876,-62.744, , , , , , ,64.803,5.587,-91.879
 09:43:55.356,eb:33:2e:f9:57:b5, 2015-01-01 00:32:29.205,0.542,1.062,3.604,338.379,62.988,-83.374, , , , , , ,66.473,6.086,-91.73
 09:43:55.356,eb:33:2e:f9:57:b5, 2015-01-01 00:32:29.205,0.334,0.601,3.614,356.384,50.049,-96.436, , , , , , ,68.231,6.614,-91.648
 09:43:55.356,eb:33:2e:f9:57:b5, 2015-01-01 00:32:29.205,0.09,0.168,3.582,366.76,32.41,-106.018, , , , , , ,70.049,7.163,-91.609
 09:43:55.356,eb:33:2e:f9:57:b5, 2015-01-01 00:32:29.205,-0.177,-0.105,3.52,369.751,15.259,-113.037, , , , , , ,71.884,7.723,-91.681
 09:43:55.356,eb:33:2e:f9:57:b5, 2015-01-01 00:32:29.205,-0.104,-0.208,3.588,363.953,-3.052,-115.601, , , , , , ,73.707,8.289,-91.84
 09:43:55.377,eb:33:2e:f9:57:b5, 2015-01-01 00:32:29.205,0.14,-0.275,4.183,353.21,-1.892,-119.568, , , , , , ,75.465,8.849,-92.021
 09:43:55.377,eb:33:2e:f9:57:b5, 2015-01-01 00:32:29.205,0.488,-0.449,5.017,349.365,23.987,-129.028, , , , , , ,77.201,9.47,-92.065
 09:43:55.377,eb:33:2e:f9:57:b5, 2015-01-01 00:32:29.205,0.859,-0.77,5.736,355.103,78.857,-146.362, , , , , , ,78.986,10.206,-91.939
 09:43:55.377,eb:33:2e:f9:57:b5, 2015-01-01 00:32:29.205,1.162,-1.127,5.893,359.314,135.071,-164.185, , , , , , ,80.848,11.085,-91.533
 09:43:55.377,eb:33:2e:f9:57:b5, 2015-01-01 00:32:29.205,1.38,-1.506,5.518,357.422,182.739,-184.448, , , , , , ,82.782,12.074,-90.824
 09:43:55.377,eb:33:2e:f9:57:b5, 2015-01-01 00:32:29.205,1.532,-1.819,4.863,348.145,213.501,-204.773, , , , , , ,84.749,13.162,-89.852
 09:43:55.377,eb:33:2e:f9:57:b5, 2015-01-01 00:32:29.205,1.609,-1.982,4.037,328.43,224.304,-224.487, , , , , , ,86.682,14.326,-88.792
 09:43:55.377,eb:33:2e:f9:57:b5, 2015-01-01 00:32:29.205,1.684,-2.037,3.151,295.593,215.698,-242.126, , , , , , ,88.489,15.557,-87.726
