Time,Device name,Chip Time(),Acceleration X(g),Acceleration Y(g),Acceleration Z(g),Angular velocity X(°/s),Angular velocity Y(°/s),Angular velocity Z(°/s),ShiftX(mm),ShiftY(mm),ShiftZ(mm),SpeedX(mm/s),SpeedY(mm/s),SpeedZ(mm/s),Angle X(°),Angle Y(°),Angle Z(°)
 09:40:59.444,eb:33:2e:f9:57:b5, 2015-01-01 00:29:34.480,-0.077,0.053,1.136,86.304,-0.488,-1.099, , , , , , ,7.064,2.631,-26.071
 09:40:59.444,eb:33:2e:f9:57:b5, 2015-01-01 00:29:34.480,-0.071,0.061,1.155,89.233,-0.916,-0.488, , , , , , ,7.504,2.626,-26.093
 09:40:59.445,eb:33:2e:f9:57:b5, 2015-01-01 00:29:34.480,-0.062,0.053,1.194,92.773,-0.488,0.244, , , , , , ,7.96,2.626,-26.093
 09:40:59.445,eb:33:2e:f9:57:b5, 2015-01-01 00:29:34.480,-0.027,0.058,1.208,96.863,-0.305,0.61, , , , , , ,8.432,2.62,-26.087
 09:40:59.445,eb:33:2e:f9:57:b5, 2015-01-01 00:29:34.480,-0.022,0.077,1.221,101.257,-0.122,0.305, , , , , , ,8.932,2.62,-26.087
 09:40:59.445,eb:33:2e:f9:57:b5, 2015-01-01 00:29:34.480,-0.048,0.089,1.229,105.896,-0.488,0, , , , , , ,9.448,2.615,-26.104
 09:40:59.445,eb:33:2e:f9:57:b5, 2015-01-01 00:29:34.480,-0.029,0.077,1.246,110.962,-1.16,0, , , , , , ,9.992,2.609,-26.104
 09:40:59.445,eb:33:2e:f9:57:b5, 2015-01-01 00:29:34.480,-0.021,0.071,1.287,116.394,-0.488,0.061, , , , , , ,10.563,2.604,-26.104
 09:40:59.445,eb:33:2e:f9:57:b5, 2015-01-01 00:29:34.480,-0.029,0.079,1.303,121.887,0.122,0, , , , , , ,11.162,2.604,-26.104
 09:40:59.445,eb:33:2e:f9:57:b5, 2015-01-01 00:29:34.480,-0.045,0.073,1.286,127.93,0.305,0.061, , , , , , ,11.788,2.604,-26.12
 09:40:59.446,eb:33:2e:f9:57:b5, 2015-01-01 00:29:34.480,-0.09,0.069,1.291,133.972,0.366,0.488, , , , , , ,12.448,2.609,-26.115
 09:40:59.446,eb:33:2e:f9:57:b5, 2015-01-01 00:29:34.480,-0.119,0.061,1.28,140.137,-0.793,1.587, , , , , , ,13.134,2.604,-26.109
 09:40:59.446,eb:33:2e:f9:57:b5, 2015-01-01 00:29:34.480,-0.127,0.062,1.29,145.569,-1.831,3.052, , , , , , ,13.854,2.593,-26.104
 09:40:59.446,eb:33:2e:f9:57:b5, 2015-01-01 00:29:34.480,-0.096,0.074,1.328,151.123,-3.113,4.272, , , , , , ,14.595,2.576,-26.098
 09:40:59.446,eb:33:2e:f9:57:b5, 2015-01-01 00:29:34.480,-0.084,0.085,1.332,158.142,-4.333,5.249, , , , , , ,15.375,2.549,-26.082
 09:40:59.446,eb:33:2e:f9:57:b5, 2015-01-01 00:29:34.480,-0.024,0.111,1.333,165.039,-7.019,5.066, , , , , , ,16.188,2.516,-26.065
 09:40:59.534,eb:33:2e:f9:57:b5, 2015-01-01 00:29:34.480,0.076,0.128,1.366,171.936,-8.057,3.967, , , , , , ,17.034,2.472,-26.054
 09:40:59.534,eb:33:2e:f9:57:b5, 2015-01-01 00:29:34.480,0.131,0.136,1.409,180.359,-6.714,1.831, , , , , , ,17.919,2.428,-26.065
 09:40:59.534,eb:33:2e:f9:57:b5, 2015-01-01 00:29:34.480,0.153,0.136,1.444,186.218,-3.601,0.183, , , , , , ,18.836,2.406,-26.071
 09:40:59.534,eb:33:2e:f9:57:b5, 2015-01-01 00:29:34.480,0.169,0.174,1.51,194.824,0.549,-2.93, , , , , , ,19.792,2.401,-26.076
 09:40:59.534,eb:33:2e:f9:57:b5, 2015-01-01 00:29:34.480,0.175,0.183,1.553,204.041,3.235,-7.324, , , , , , ,20.786,2.417,-26.104
 09:40:59.534,eb:33:2e:f9:57:b5, 2015-01-01 00:29:34.480,0.205,0.144,1.584,214.355,7.385,-11.536, , , , , , ,21.841,2.461,-26.153
 09:40:59.534,eb:33:2e:f9:57:b5, 2015-01-01 00:29:34.480,0.235,0.116,1.604,223.877,13.489,-15.198, , , , , , ,22.934,2.538,-26.197
 09:40:59.534,eb:33:2e:f9:57:b5, 2015-01-01 00:29:34.480,0.263,0.161,1.576,233.276,17.761,-19.104, , , , , , ,24.082,2.648,-26.241
 09:40:59.534,eb:33:2e:f9:57:b5, 2015-01-01 00:29:34.480,0.329,0.202,1.596,242.554,18.494,-25.085, , , , , , ,25.269,2.78,-26.307
 09:40:59.534,eb:33:2e:f9:57:b5, 2015-01-01 00:29:34.480,0.323,0.214,1.686,252.258,22.705,-31.433, , , , , , ,26.51,2.933,-26.406
 09:40:59.534,eb:33:2e:f9:57:b5, 2015-01-01 00:29:34.480,0.386,0.211,1.784,261.963,29.663,-37.292, , , , , , ,27.79,3.131,-26.499
 09:40:59.534,eb:33:2e:f9:57:b5, 2015-01-01 00:29:34.480,0.398,0.168,1.789,273.926,37.659,-42.725, , , , , , ,29.13,3.378,-26.592
 09:40:59.534,eb:33:2e:f9:57:b5, 2015-01-01 00:29:34.480,0.342,0.208,1.753,285.034,40.466,-49.194, , , , , , ,30.526,3.664,-26.697
 09:40:59.535,eb:33:2e:f9:57:b5, 2015-01-01 00:29:34.480,0.391,0.215,1.808,296.692,38.452,-55.481, , , , , , ,31.976,3.972,-26.834
 09:40:59.535,eb:33:2e:f9:57:b5, 2015-01-01 00:29:34.480,0.454,0.199,1.968,309.387,38.879,-61.035, , , , , , ,33.486,4.29,-26.977
 09:40:59.535,eb:33:2e:f9:57:b5, 2015-01-01 00:29:34.480,0.484,0.206,2.094,320.557,41.016,-67.261, , , , , , ,35.052,4.636,-27.131
 09:40:59.579,eb:33:2e:f9:57:b5, 2015-01-01 00:29:34.790,0.502,0.228,2.34,331.238,49.5,-73.364, , , , , , ,36.672,5.026,-27.29
 09:40:59.579,eb:33:2e:f9:57:b5, 2015-01-01 00:29:34.790,0.601,0.089,2.605,341.98,65.43,-76.355, , , , , , ,38.353,5.488,-27.422
 09:40:59.579,eb:33:2e:f9:57:b5, 2015-01-01 00:29:34.790,0.732,0.044,2.587,353.76,78.186,-80.872, , , , , , ,40.089,6.026,-27.488
 09:40:59.579,eb:33:2e:f9:57:b5, 2015-01-01 00:29:34.790,0.825,0.099,2.637,366.211,82.642,-88.989, , , , , , ,41.885,6.614,-27.548
 09:40:59.579,eb:33:2e:f9:57:b5, 2015-01-01 00:29:34.790,0.805,0.134,2.677,378.235,90.637,-96.252, , , , , , ,43.753,7.245,-27.592
 09:40:59.579,eb:33:2e:f9:57:b5, 2015-01-01 00:29:34.790,0.765,0.173,3.03,379.272,104.37,-103.149, , , , , , ,45.637,7.949,-27.62
 09:40:59.579,eb:33:2e:f9:57:b5, 2015-01-01 00:29:34.790,0.794,-0.057,3.372,390.503,130.981,-107.178, , , , , , ,47.576,8.745,-27.548
 09:40:59.579,eb:33:2e:f9:57:b5, 2015-01-01 00:29:34.790,0.683,-0.265,3.386,406.738,155.64,-109.192, , , , , , ,49.598,9.63,-27.35
 09:40:59.669,eb:33:2e:f9:57:b5, 2015-01-01 00:29:34.790,0.556,-0.52,3.233,422.913,170.837,-106.995, , , , , , ,51.735,10.574,-27.048
 09:40:59.669,eb:33:2e:f9:57:b5, 2015-01-01 00:29:34.790,0.585,-0.354,3.187,441.162,177.673,-108.276, , , , , , ,53.976,11.53,-26.675
 09:40:59.669,eb:33:2e:f9:57:b5, 2015-01-01 00:29:34.790,0.575,-0.707,3.065,463.318,180.298,-106.567, , , , , , ,56.332,12.48,-26.241
 09:40:59.670,eb:33:2e:f9:57:b5, 2015-01-01 00:29:34.790,0.818,-0.708,2.177,492.004,154.785,-109.314, , , , , , ,58.821,13.381,-25.801
 09:40:59.671,eb:33:2e:f9:57:b5, 2015-01-01 00:29:34.790,1.094,-0.363,1.702,497.986,114.197,-129.639, , , , , , ,61.375,14.222,-25.543
 09:40:59.671,eb:33:2e:f9:57:b5, 2015-01-01 00:29:34.790,0.39,-0.038,2.4,486.572,128.296,-149.475, , , , , , ,63.88,15.123,-25.345
 09:40:59.671,eb:33:2e:f9:57:b5, 2015-01-01 00:29:34.790,-0.452,-0.931,2.644,482.178,167.419,-143.677, , , , , , ,66.418,16.117,-24.95
 09:40:59.671,eb:33:2e:f9:57:b5, 2015-01-01 00:29:34.790,-0.373,-0.744,1.374,434.448,179.016,-113.831, , , , , , ,68.862,17.034,-24.346
 09:40:59.671,eb:33:2e:f9:57:b5, 2015-01-01 00:29:34.790,0.349,-0.327,0.449,366.882,167.48,-80.383, , , , , , ,71.043,17.77,-23.659
 09:40:59.671,eb:33:2e:f9:57:b5, 2015-01-01 00:29:34.790,0.396,-0.27,0.316,293.762,159.607,-61.584, , , , , , ,72.867,18.336,-22.972
 09:40:59.671,eb:33:2e:f9:57:b5, 2015-01-01 00:29:34.790,0.267,-0.113,0.485,224.915,163.025,-49.133, , , , , , ,74.372,18.825,-22.231
 09:40:59.671,eb:33:2e:f9:57:b5, 2015-01-01 00:29:34.790,-0.124,-0.942,-0.754,186.035,116.577,-40.283, , , , , , ,75.597,19.226,-21.544
 09:40:59.671,eb:33:2e:f9:57:b5, 2015-01-01 00:29:34.790,0.073,0.674,-0.531,5.615,82.336,-0.916, , , , , , ,76.146,19.418,-21.132
 09:40:59.671,eb:33:2e:f9:57:b5, 2015-01-01 00:29:34.790,0.245,-0.026,0.317,-91.919,73.792,21.729, , , , , , ,75.998,19.451,-20.709
 09:40:59.671,eb:33:2e:f9:57:b5, 2015-01-01 00:29:34.790,0.299,-0.761,0.752,-135.925,56.213,37.17, , , , , , ,75.515,19.374,-20.352
 09:40:59.671,eb:33:2e:f9:57:b5, 2015-01-01 00:29:34.790,0.261,-0.954,0.939,-175.11,66.895,44.25, , , , , , ,74.822,19.248,-19.984
 09:40:59.692,eb:33:2e:f9:57:b5, 2015-01-01 00:29:34.790,0.401,-0.935,0.998,-204.468,78.796,49.011, , , , , , ,73.998,19.122,-19.534
 09:40:59.692,eb:33:2e:f9:57:b5, 2015-01-01 00:29:34.790,0.525,-0.833,1.094,-209.106,75.134,49.927, , , , , , ,73.103,18.99,-19.072
 09:40:59.692,eb:33:2e:f9:57:b5, 2015-01-01 00:29:34.790,0.504,-0.686,1.03,-198.73,58.777,46.143, , , , , , ,72.219,18.858,-18.666
 09:40:59.692,eb:33:2e:f9:57:b5, 2015-01-01 00:29:34.790,0.453,-0.625,0.74,-185.059,30.579,39.551, , , , , , ,71.345,18.726,-18.38
 09:40:59.692,eb:33:2e:f9:57:b5, 2015-01-01 00:29:34.790,0.434,-0.68,0.434,-172.302,-2.502,31.921, , , , , , ,70.494,18.572,-18.27
 09:40:59.692,eb:33:2e:f9:57:b5, 2015-01-01 00:29:34.790,0.408,-0.773,0.286,-163.94,-31.25,24.78, , , , , , ,69.642,18.408,-18.325
 09:40:59.692,eb:33:2e:f9:57:b5, 2015-01-01 00:29:34.790,0.334,-0.853,0.301,-160.95,-50.659,19.287, , , , , , ,68.774,18.232,-18.506
 09:40:59.692,eb:33:2e:f9:57:b5, 2015-01-01 00:29:34.790,0.241,-0.885,0.365,-163.391,-61.89,16.113, , , , , , ,67.874,18.045,-18.759
 09:40:59.759,eb:33:2e:f9:57:b5, 2015-01-01 00:29:34.790,0.18,-0.884,0.428,-171.448,-67.688,14.954, , , , , , ,66.945,17.847,-19.05
 09:40:59.759,eb:33:2e:f9:57:b5, 2015-01-01 00:29:34.790,0.144,-0.883,0.482,-185.12,-67.261,15.625, , , , , , ,65.956,17.639,-19.352
 09:40:59.759,eb:33:2e:f9:57:b5, 2015-01-01 00:29:34.790,0.109,-0.897,0.497,-203.979,-61.462,17.761, , , , , , ,64.896,17.43,-19.622
 09:40:59.759,eb:33:2e:f9:57:b5, 2015-01-01 00:29:34.790,0.084,-0.907,0.458,-226.807,-54.321,20.813, , , , , , ,63.726,17.216,-19.852
 09:40:59.759,eb:33:2e:f9:57:b5, 2015-01-01 00:29:34.790,0.07,-0.915,0.416,-251.465,-48.401,24.475, , , , , , ,62.463,16.996,-20.034
 09:40:59.759,eb:33:2e:f9:57:b5, 2015-01-01 00:29:34.790,0.078,-0.914,0.399,-275.269,-45.288,28.625, , , , , , ,61.089,16.771,-20.187
 09:40:59.759,eb:33:2e:f9:57:b5, 2015-01-01 00:29:34.790,0.098,-0.898,0.401,-296.753,-45.532,32.166, , , , , , ,59.612,16.523,-20.314
 09:40:59.759,eb:33:2e:f9:57:b5, 2015-01-01 00:29:34.790,0.13,-0.865,0.405,-315.186,-49.255,35.034, , , , , , ,58.019,16.249,-20.44
 09:40:59.782,eb:33:2e:f9:57:b5, 2015-01-01 00:29:34.790,0.164,-0.829,0.427,-330.505,-55.237,37.292, , , , , , ,56.36,15.952,-20.572
 09:40:59.782,eb:33:2e:f9:57:b5, 2015-01-01 00:29:34.790,0.19,-0.792,0.476,-342.285,-62.5,39.124, , , , , , ,54.63,15.628,-20.726
 09:40:59.782,eb:33:2e:f9:57:b5, 2015-01-01 00:29:34.790,0.213,-0.746,0.554,-350.464,-70.129,40.527, , , , , , ,52.85,15.266,-20.88
 09:40:59.782,eb:33:2e:f9:57:b5, 2015-01-01 00:29:34.790,0.232,-0.688,0.642,-355.957,-77.759,41.504, , , , , , ,51.021,14.87,-21.061
 09:40:59.782,eb:33:2e:f9:57:b5, 2015-01-01 00:29:34.790,0.247,-0.631,0.719,-360.535,-83.801,42.786, , , , , , ,49.18,14.447,-21.248
 09:40:59.782,eb:33:2e:f9:57:b5, 2015-01-01 00:29:34.790,0.256,-0.594,0.812,-364.563,-87.28,44.922, , , , , , ,47.318,13.997,-21.44
 09:40:59.782,eb:33:2e:f9:57:b5, 2015-01-01 00:29:34.790,0.261,-0.563,0.936,-367.615,-87.646,47.729, , , , , , ,45.445,13.524,-21.599
 09:40:59.782,eb:33:2e:f9:57:b5, 2015-01-01 00:29:34.790,0.26,-0.526,1.058,-369.568,-85.205,51.208, , , , , , ,43.555,13.035,-21.736
 09:40:59.826,eb:33:2e:f9:57:b5, 2015-01-01 00:29:34.790,0.266,-0.477,1.15,-370.972,-81.116,55.42, , , , , , ,41.682,12.552,-21.824
 09:40:59.826,eb:33:2e:f9:57:b5, 2015-01-01 00:29:34.790,0.289,-0.424,1.213,-372.192,-76.66,59.998, , , , , , ,39.814,12.063,-21.868
 09:40:59.826,eb:33:2e:f9:57:b5, 2015-01-01 00:29:34.790,0.312,-0.369,1.246,-373.657,-73.059,64.575, , , , , , ,37.952,11.574,-21.863
 09:40:59.826,eb:33:2e:f9:57:b5, 2015-01-01 00:29:34.790,0.339,-0.31,1.246,-375.732,-72.205,68.481, , , , , , ,36.068,11.08,-21.819
 09:40:59.826,eb:33:2e:f9:57:b5, 2015-01-01 00:29:34.790,0.384,-0.256,1.237,-378.113,-74.402,71.716, , , , , , ,34.195,10.574,-21.736
 09:40:59.826,eb:33:2e:f9:57:b5, 2015-01-01 00:29:34.790,0.452,-0.208,1.26,-379.761,-78.491,73.975, , , , , , ,32.316,10.052,-21.654
 09:40:59.826,eb:33:2e:f9:57:b5, 2015-01-01 00:29:34.790,0.487,-0.141,1.321,-379.822,-85.388,75.256, , , , , , ,30.432,9.503,-21.55
 09:40:59.826,eb:33:2e:f9:57:b5, 2015-01-01 00:29:34.790,0.527,-0.063,1.347,-379.028,-92.896,75.256, , , , , , ,28.537,8.926,-21.445
 09:40:59.852,eb:33:2e:f9:57:b5, 2015-01-01 00:29:34.790,0.568,0.007,1.398,-377.747,-100.281,74.463, , , , , , ,26.658,8.317,-21.341
 09:40:59.852,eb:33:2e:f9:57:b5, 2015-01-01 00:29:34.790,0.574,0.061,1.476,-376.038,-106.201,72.937, , , , , , ,24.791,7.69,-21.248
 09:40:59.852,eb:33:2e:f9:57:b5, 2015-01-01 00:29:34.790,0.627,0.09,1.606,-373.657,-108.337,71.045, , , , , , ,22.928,7.048,-21.138
 09:40:59.852,eb:33:2e:f9:57:b5, 2015-01-01 00:29:34.790,0.653,0.132,1.624,-371.033,-111.572,68.42, , , , , , ,21.061,6.405,-21.022
 09:40:59.852,eb:33:2e:f9:57:b5, 2015-01-01 00:29:34.790,0.649,0.176,1.665,-368.103,-114.075,65.002, , , , , , ,19.226,5.757,-20.907
 09:40:59.852,eb:33:2e:f9:57:b5, 2015-01-01 00:29:34.790,0.667,0.198,1.699,-364.807,-117.554,61.218, , , , , , ,17.408,5.103,-20.808
 09:40:59.852,eb:33:2e:f9:57:b5, 2015-01-01 00:29:34.790,0.685,0.215,1.736,-361.633,-121.338,56.824, , , , , , ,15.601,4.449,-20.698
 09:40:59.852,eb:33:2e:f9:57:b5, 2015-01-01 00:29:34.790,0.698,0.224,1.759,-359.009,-125.427,51.88, , , , , , ,13.788,3.774,-20.599
 09:40:59.917,eb:33:2e:f9:57:b5, 2015-01-01 00:29:34.790,0.707,0.231,1.762,-356.689,-130.615,45.776, , , , , , ,12.003,3.093,-20.506
 09:40:59.917,eb:33:2e:f9:57:b5, 2015-01-01 00:29:34.790,0.719,0.243,1.759,-355.347,-137.573,38.635, , , , , , ,10.228,2.39,-20.446
 09:40:59.917,eb:33:2e:f9:57:b5, 2015-01-01 00:29:34.790,0.725,0.257,1.787,-354.309,-145.142,30.334, , , , , , ,8.454,1.659,-20.396
 09:40:59.917,eb:33:2e:f9:57:b5, 2015-01-01 00:29:34.790,0.713,0.281,1.842,-353.088,-152.344,21.118, , , , , , ,6.669,0.895,-20.374
 09:40:59.917,eb:33:2e:f9:57:b5, 2015-01-01 00:29:34.790,0.687,0.306,1.907,-351.074,-158.691,11.23, , , , , , ,4.905,0.11,-20.374
 09:40:59.917,eb:33:2e:f9:57:b5, 2015-01-01 00:29:34.790,0.647,0.326,1.975,-347.961,-163.818,1.282, , , , , , ,3.164,-0.692,-20.424
 09:40:59.917,eb:33:2e:f9:57:b5, 2015-01-01 00:29:34.790,0.596,0.337,2.04,-343.445,-167.908,-8.362, , , , , , ,1.434,-1.527,-20.484
 09:40:59.917,eb:33:2e:f9:57:b5, 2015-01-01 00:29:34.790,0.52,0.344,2.104,-337.769,-171.509,-17.395, , , , , , ,-0.28,-2.384,-20.561
 09:40:59.985,eb:33:2e:f9:57:b5, 2015-01-01 00:29:35.170,0.428,0.348,2.159,-331.238,-175.476,-25.452, , , , , , ,-1.945,-3.257,-20.654
 09:40:59.985,eb:33:2e:f9:57:b5, 2015-01-01 00:29:35.170,0.293,0.352,2.208,-325.256,-179.81,-32.227, , , , , , ,-3.576,-4.153,-20.781
 09:40:59.985,eb:33:2e:f9:57:b5, 2015-01-01 00:29:35.170,0.204,0.327,2.223,-321.167,-184.875,-36.56, , , , , , ,-5.18,-5.081,-20.885
 09:40:59.985,eb:33:2e:f9:57:b5, 2015-01-01 00:29:35.170,0.11,0.303,2.319,-319.275,-185.486,-40.527, , , , , , ,-6.79,-6.031,-20.978
 09:40:59.985,eb:33:2e:f9:57:b5, 2015-01-01 00:29:35.170,0.019,0.349,2.374,-320.19,-186.523,-42.542, , , , , , ,-8.383,-6.982,-21.066
 09:40:59.985,eb:33:2e:f9:57:b5, 2015-01-01 00:29:35.170,-0.062,0.435,2.426,-323.914,-188.049,-43.762, , , , , , ,-9.981,-7.943,-21.149
 09:40:59.985,eb:33:2e:f9:57:b5, 2015-01-01 00:29:35.170,-0.155,0.491,2.502,-328.979,-187.5,-44.067, , , , , , ,-11.613,-8.904,-21.187
 09:40:59.985,eb:33:2e:f9:57:b5, 2015-01-01 00:29:35.170,-0.247,0.536,2.564,-334.29,-184.448,-42.786, , , , , , ,-13.293,-9.871,-21.198
 09:40:59.985,eb:33:2e:f9:57:b5, 2015-01-01 00:29:35.170,-0.329,0.584,2.638,-338.379,-177.673,-39.917, , , , , , ,-14.98,-10.794,-21.176
 09:40:59.985,eb:33:2e:f9:57:b5, 2015-01-01 00:29:35.170,-0.416,0.633,2.747,-338.745,-165.833,-35.156, , , , , , ,-16.683,-11.673,-21.138
 09:40:59.986,eb:33:2e:f9:57:b5, 2015-01-01 00:29:35.170,-0.495,0.711,2.837,-334.656,-150.085,-28.87, , , , , , ,-18.386,-12.464,-21.05
 09:40:59.986,eb:33:2e:f9:57:b5, 2015-01-01 00:29:35.170,-0.528,0.848,2.862,-326.904,-133.484,-21.851, , , , , , ,-20.083,-13.173,-20.929
 09:40:59.986,eb:33:2e:f9:57:b5, 2015-01-01 00:29:35.170,-0.519,1.04,2.843,-316.895,-117.676,-15.259, , , , , , ,-21.725,-13.788,-20.786
 09:40:59.986,eb:33:2e:f9:57:b5, 2015-01-01 00:29:35.170,-0.502,1.279,2.775,-305.603,-103.455,-10.132, , , , , , ,-23.313,-14.315,-20.649
 09:40:59.986,eb:33:2e:f9:57:b5, 2015-01-01 00:29:35.170,-0.468,1.571,2.645,-293.457,-92.896,-6.592, , , , , , ,-24.846,-14.771,-20.484
 09:40:59.986,eb:33:2e:f9:57:b5, 2015-01-01 00:29:35.170,-0.411,1.893,2.548,-279.053,-85.083,-5.92, , , , , , ,-26.334,-15.189,-20.308
 09:41:00.029,eb:33:2e:f9:57:b5, 2015-01-01 00:29:35.170,-0.375,2.27,2.45,-255.188,-79.346,-9.521, , , , , , ,-27.708,-15.568,-20.149
 09:41:00.029,eb:33:2e:f9:57:b5, 2015-01-01 00:29:35.170,-0.458,2.592,2.305,-228.76,-78.918,-16.296, , , , , , ,-28.938,-15.947,-20.039
 09:41:00.029,eb:33:2e:f9:57:b5, 2015-01-01 00:29:35.170,-0.65,2.898,2.043,-198.486,-87.28,-24.536, , , , , , ,-30.026,-16.359,-19.924
 09:41:00.029,eb:33:2e:f9:57:b5, 2015-01-01 00:29:35.170,-0.827,3.117,1.857,-166.26,-100.586,-32.898, , , , , , ,-30.97,-16.853,-19.797
 09:41:00.029,eb:33:2e:f9:57:b5, 2015-01-01 00:29:35.170,-1.067,3.25,1.881,-132.69,-107.666,-39.856, , , , , , ,-31.74,-17.402,-19.677
 09:41:00.029,eb:33:2e:f9:57:b5, 2015-01-01 00:29:35.170,-1.321,3.337,1.92,-98.389,-109.436,-43.457, , , , , , ,-32.333,-17.974,-19.583
 09:41:00.029,eb:33:2e:f9:57:b5, 2015-01-01 00:29:35.170,-1.518,3.354,1.986,-65.002,-104.248,-43.518, , , , , , ,-32.761,-18.545,-19.473
 09:41:00.029,eb:33:2e:f9:57:b5, 2015-01-01 00:29:35.170,-1.592,3.3,2.079,-34.119,-90.393,-40.283, , , , , , ,-33.03,-19.067,-19.38
 09:41:00.053,eb:33:2e:f9:57:b5, 2015-01-01 00:29:35.170,-1.539,3.199,2.196,-5.859,-67.017,-35.461, , , , , , ,-33.135,-19.495,-19.325
 09:41:00.053,eb:33:2e:f9:57:b5, 2015-01-01 00:29:35.170,-1.393,3.067,2.274,20.142,-36.987,-30.64, , , , , , ,-33.08,-19.792,-19.347
 09:41:00.053,eb:33:2e:f9:57:b5, 2015-01-01 00:29:35.170,-1.167,2.899,2.254,44.556,-5.432,-26.978, , , , , , ,-32.882,-19.94,-19.418
 09:41:00.053,eb:33:2e:f9:57:b5, 2015-01-01 00:29:35.170,-0.939,2.725,2.156,67.444,22.339,-24.78, , , , , , ,-32.542,-19.962,-19.572
 09:41:00.053,eb:33:2e:f9:57:b5, 2015-01-01 00:29:35.170,-0.745,2.541,2.034,88.318,42.48,-23.254, , , , , , ,-32.075,-19.88,-19.775
 09:41:00.053,eb:33:2e:f9:57:b5, 2015-01-01 00:29:35.170,-0.599,2.326,1.931,106.75,55.176,-21.362, , , , , , ,-31.492,-19.72,-20.039
 09:41:00.053,eb:33:2e:f9:57:b5, 2015-01-01 00:29:35.170,1.318,2.063,1.834,122.681,62.195,-17.09, , , , , , ,-30.828,-19.517,-20.292
 09:41:00.053,eb:33:2e:f9:57:b5, 2015-01-01 00:29:35.170,0.128,-1.368,7.042,280.762,113.159,-73.242, , , , , , ,-29.702,-19.567,-20.555
 09:41:00.097,eb:33:2e:f9:57:b5, 2015-01-01 00:29:35.170,1.45,0.324,0.086,292.297,308.289,-27.649, , , , , , ,-27.894,-18.215,-21.533
 09:41:00.097,eb:33:2e:f9:57:b5, 2015-01-01 00:29:35.170,0.566,-0.758,0.37,282.532,176.208,-65.857, , , , , , ,-26.246,-17.556,-22.286
 09:41:00.097,eb:33:2e:f9:57:b5, 2015-01-01 00:29:35.170,1.257,-0.9,1.201,271.362,177.368,-52.063, , , , , , ,-24.664,-16.826,-22.989
 09:41:00.097,eb:33:2e:f9:57:b5, 2015-01-01 00:29:35.170,0.491,-1.082,1.165,270.203,158.813,-35.339, , , , , , ,-23.165,-16.166,-23.538
 09:41:00.097,eb:33:2e:f9:57:b5, 2015-01-01 00:29:35.170,-0.478,-1.505,1.182,302.673,147.827,-8.301, , , , , , ,-21.621,-15.524,-23.917
 09:41:00.097,eb:33:2e:f9:57:b5, 2015-01-01 00:29:35.170,-0.878,-1.71,1.146,347.778,166.138,36.255, , , , , , ,-19.913,-14.749,-24.12
 09:41:00.097,eb:33:2e:f9:57:b5, 2015-01-01 00:29:35.170,-1.039,-1.207,1.337,375.488,188.232,64.636, , , , , , ,-18.073,-13.821,-24.159
 09:41:00.098,eb:33:2e:f9:57:b5, 2015-01-01 00:29:35.170,-1.435,-0.327,1.035,384.338,202.82,79.285, , , , , , ,-16.177,-12.761,-24.093
 09:41:00.163,eb:33:2e:f9:57:b5, 2015-01-01 00:29:35.170,-1.047,0.357,1.208,365.173,208.984,82.397, , , , , , ,-14.326,-11.646,-23.967
 09:41:00.163,eb:33:2e:f9:57:b5, 2015-01-01 00:29:35.170,-0.598,1.062,1.547,318.359,190.918,66.589, , , , , , ,-12.656,-10.596,-23.857
 09:41:00.163,eb:33:2e:f9:57:b5, 2015-01-01 00:29:35.170,-0.309,1.293,1.825,259.766,169.373,44.006, , , , , , ,-11.261,-9.679,-23.774
 09:41:00.163,eb:33:2e:f9:57:b5, 2015-01-01 00:29:35.170,-0.268,0.947,1.583,217.468,163.147,19.897, , , , , , ,-10.091,-8.839,-23.785
 09:41:00.163,eb:33:2e:f9:57:b5, 2015-01-01 00:29:35.170,-0.214,0.58,1.306,187.683,147.583,0.854, , , , , , ,-9.091,-8.069,-23.873
 09:41:00.163,eb:33:2e:f9:57:b5, 2015-01-01 00:29:35.170,-0.091,0.144,1.068,173.523,132.446,-8.789, , , , , , ,-8.179,-7.394,-24.027
 09:41:00.163,eb:33:2e:f9:57:b5, 2015-01-01 00:29:35.170,0.125,-0.01,0.927,168.579,118.469,-13.367, , , , , , ,-7.311,-6.79,-24.17
 09:41:00.163,eb:33:2e:f9:57:b5, 2015-01-01 00:29:35.170,0.139,-0.055,1.006,163.147,102.661,-12.39, , , , , , ,-6.46,-6.262,-24.307
 09:41:00.209,eb:33:2e:f9:57:b5, 2015-01-01 00:29:35.170,0.252,0.072,0.95,145.447,98.022,-2.563, , , , , , ,-5.691,-5.773,-24.39
 09:41:00.209,eb:33:2e:f9:57:b5, 2015-01-01 00:29:35.170,0.161,0.124,1.042,130.005,103.149,6.042, , , , , , ,-5.01,-5.273,-24.439
 09:41:00.209,eb:33:2e:f9:57:b5, 2015-01-01 00:29:35.170,0.04,0.272,1.073,116.028,109.314,5.798, , , , , , ,-4.395,-4.735,-24.45
 09:41:00.209,eb:33:2e:f9:57:b5, 2015-01-01 00:29:35.170,-0.061,0.325,0.996,99.06,103.882,2.319, , , , , , ,-3.867,-4.202,-24.472
 09:41:00.209,eb:33:2e:f9:57:b5, 2015-01-01 00:29:35.170,-0.068,0.354,0.98,82.397,95.581,-3.54, , , , , , ,-3.417,-3.713,-24.505
 09:41:00.209,eb:33:2e:f9:57:b5, 2015-01-01 00:29:35.170,0.014,0.399,0.998,64.514,85.144,-9.583, , , , , , ,-3.049,-3.263,-24.587
 09:41:00.209,eb:33:2e:f9:57:b5, 2015-01-01 00:29:35.170,-0.05,0.253,1.01,51.208,76.172,-10.193, , , , , , ,-2.769,-2.873,-24.659
 09:41:00.210,eb:33:2e:f9:57:b5, 2015-01-01 00:29:35.170,-0.11,0.208,0.938,39.062,63.416,-7.141, , , , , , ,-2.543,-2.521,-24.719
 09:41:00.212,eb:33:2e:f9:57:b5, 2015-01-01 00:29:35.170,-0.136,0.085,0.984,30.09,52.979,-1.465, , , , , , ,-2.379,-2.247,-24.752
 09:41:00.212,eb:33:2e:f9:57:b5, 2015-01-01 00:29:35.170,-0.037,0.018,0.974,25.391,44.556,3.479, , , , , , ,-2.241,-2.005,-24.769
 09:41:00.212,eb:33:2e:f9:57:b5, 2015-01-01 00:29:35.170,-0.028,0.02,0.992,22.583,39.246,3.113, , , , , , ,-2.126,-1.802,-24.758
 09:41:00.212,eb:33:2e:f9:57:b5, 2015-01-01 00:29:35.170,-0.074,0.047,0.97,19.409,33.142,-0.366, , , , , , ,-2.021,-1.62,-24.763
 09:41:00.212,eb:33:2e:f9:57:b5, 2015-01-01 00:29:35.170,-0.064,0.081,0.931,15.015,24.17,-2.197, , , , , , ,-1.934,-1.483,-24.78
 09:41:00.212,eb:33:2e:f9:57:b5, 2015-01-01 00:29:35.170,0.003,0.062,0.949,10.742,17.029,-0.366, , , , , , ,-1.873,-1.384,-24.807
 09:41:00.213,eb:33:2e:f9:57:b5, 2015-01-01 00:29:35.170,0.005,0.036,1.01,7.69,14.648,1.404, , , , , , ,-1.829,-1.307,-24.802
 09:41:00.213,eb:33:2e:f9:57:b5, 2015-01-01 00:29:35.170,-0.045,0.014,1.016,6.165,13.306,1.526, , , , , , ,-1.796,-1.236,-24.796
 09:41:00.277,eb:33:2e:f9:57:b5, 2015-01-01 00:29:35.170,-0.073,0.002,0.986,5.371,9.521,0.732, , , , , , ,-1.769,-1.181,-24.796
 09:41:00.277,eb:33:2e:f9:57:b5, 2015-01-01 00:29:35.170,-0.07,-0.005,0.968,5.066,4.333,-0.122, , , , , , ,-1.741,-1.148,-24.813
 09:41:00.277,eb:33:2e:f9:57:b5, 2015-01-01 00:29:35.170,-0.048,-0.011,0.975,4.761,-0.427,-0.488, , , , , , ,-1.719,-1.143,-24.813
 09:41:00.277,eb:33:2e:f9:57:b5, 2015-01-01 00:29:35.170,-0.001,-0.026,1.008,5.005,-2.93,0.427, , , , , , ,-1.692,-1.154,-24.818
 09:41:00.277,eb:33:2e:f9:57:b5, 2015-01-01 00:29:35.170,0.016,-0.047,1.038,6.409,-2.258,0.854, , , , , , ,-1.664,-1.17,-24.813
 09:41:00.277,eb:33:2e:f9:57:b5, 2015-01-01 00:29:35.170,0.014,-0.06,1.049,8.484,-0.183,0.916, , , , , , ,-1.626,-1.176,-24.824
 09:41:00.277,eb:33:2e:f9:57:b5, 2015-01-01 00:29:35.170,-0.001,-0.063,1.051,10.498,2.136,1.038, , , , , , ,-1.577,-1.17,-24.818
 09:41:00.277,eb:33:2e:f9:57:b5, 2015-01-01 00:29:35.170,0.002,-0.055,1.039,12.329,3.906,1.404, , , , , , ,-1.516,-1.148,-24.818
 09:41:00.322,eb:33:2e:f9:57:b5, 2015-01-01 00:29:35.550,-0.014,-0.038,1.027,13.611,5.493,1.038, , , , , , ,-1.45,-1.126,-24.813
 09:41:00.322,eb:33:2e:f9:57:b5, 2015-01-01 00:29:35.550,0.009,-0.037,1.015,14.648,6.042,1.099, , , , , , ,-1.379,-1.099,-24.824
 09:41:00.322,eb:33:2e:f9:57:b5, 2015-01-01 00:29:35.550,0.03,-0.036,1.03,16.174,7.141,0.427, , , , , , ,-1.302,-1.066,-24.818
 09:41:00.322,eb:33:2e:f9:57:b5, 2015-01-01 00:29:35.550,0.046,-0.036,1.032,17.639,9.46,-0.61, , , , , , ,-1.214,-1.022,-24.824
 09:41:00.322,eb:33:2e:f9:57:b5, 2015-01-01 00:29:35.550,0.03,-0.027,1.03,18.982,11.902,-1.892, , , , , , ,-1.126,-0.967,-24.829
 09:41:00.322,eb:33:2e:f9:57:b5, 2015-01-01 00:29:35.550,0.048,-0.02,1.016,19.958,13.306,-2.808, , , , , , ,-1.027,-0.906,-24.862
 09:41:00.322,eb:33:2e:f9:57:b5, 2015-01-01 00:29:35.550,0.02,-0.014,1.037,21.851,14.099,-4.395, , , , , , ,-0.923,-0.835,-24.884
 09:41:00.322,eb:33:2e:f9:57:b5, 2015-01-01 00:29:35.550,0.011,-0.008,1.017,23.071,14.221,-4.944, , , , , , ,-0.807,-0.764,-24.911
 09:41:00.344,eb:33:2e:f9:57:b5, 2015-01-01 00:29:35.550,0.013,-0.013,1.002,24.048,14.465,-5.371, , , , , , ,-0.687,-0.692,-24.939
 09:41:00.344,eb:33:2e:f9:57:b5, 2015-01-01 00:29:35.550,0.037,-0.005,0.987,24.658,14.099,-5.92, , , , , , ,-0.566,-0.626,-24.983
 09:41:00.344,eb:33:2e:f9:57:b5, 2015-01-01 00:29:35.550,0.014,0.002,0.994,25.452,14.404,-7.08, , , , , , ,-0.439,-0.555,-25.016
 09:41:00.344,eb:33:2e:f9:57:b5, 2015-01-01 00:29:35.550,0.019,-0.008,1,26.855,13.672,-7.507, , , , , , ,-0.308,-0.478,-25.054
 09:41:00.344,eb:33:2e:f9:57:b5, 2015-01-01 00:29:35.550,-0.01,0.012,0.984,27.588,12.024,-7.874, , , , , , ,-0.17,-0.417,-25.093
 09:41:00.344,eb:33:2e:f9:57:b5, 2015-01-01 00:29:35.550,0,0.024,0.966,27.161,10.986,-7.568, , , , , , ,-0.033,-0.363,-25.153
 09:41:00.344,eb:33:2e:f9:57:b5, 2015-01-01 00:29:35.550,0.008,0.036,0.964,25.818,11.169,-6.836, , , , , , ,0.093,-0.308,-25.186
 09:41:00.344,eb:33:2e:f9:57:b5, 2015-01-01 00:29:35.550,0.036,0.022,0.969,23.865,12.573,-5.554, , , , , , ,0.22,-0.247,-25.219
 09:41:00.390,eb:33:2e:f9:57:b5, 2015-01-01 00:29:35.550,0.052,0.046,0.989,23.132,14.221,-5.188, , , , , , ,0.335,-0.181,-25.247
 09:41:00.390,eb:33:2e:f9:57:b5, 2015-01-01 00:29:35.550,0.062,0.041,1.011,22.827,16.541,-4.517, , , , , , ,0.45,-0.099,-25.285
 09:41:00.390,eb:33:2e:f9:57:b5, 2015-01-01 00:29:35.550,0.091,0.035,1.018,22.644,18.25,-3.967, , , , , , ,0.56,-0.011,-25.307
 09:41:00.390,eb:33:2e:f9:57:b5, 2015-01-01 00:29:35.550,0.08,0.029,1.065,23.56,21.667,-4.395, , , , , , ,0.681,0.082,-25.329
 09:41:00.390,eb:33:2e:f9:57:b5, 2015-01-01 00:29:35.550,0.07,0.06,1.034,23.682,24.292,-4.761, , , , , , ,0.797,0.203,-25.351
 09:41:00.390,eb:33:2e:f9:57:b5, 2015-01-01 00:29:35.550,0.058,0.042,1.056,24.048,26.367,-4.7, , , , , , ,0.917,0.33,-25.389
 09:41:00.391,eb:33:2e:f9:57:b5, 2015-01-01 00:29:35.550,0.059,0.049,1.038,24.048,28.015,-4.517, , , , , , ,1.038,0.467,-25.411
 09:41:00.391,eb:33:2e:f9:57:b5, 2015-01-01 00:29:35.550,0.005,0.04,0.971,23.438,27.222,-2.136, , , , , , ,1.159,0.604,-25.422
 09:41:00.413,eb:33:2e:f9:57:b5, 2015-01-01 00:29:35.550,0,0.054,0.979,23.01,28.809,-3.174, , , , , , ,1.274,0.742,-25.433
 09:41:00.413,eb:33:2e:f9:57:b5, 2015-01-01 00:29:35.550,0.004,0.049,0.982,23.01,29.114,-3.723, , , , , , ,1.39,0.89,-25.466
 09:41:00.413,eb:33:2e:f9:57:b5, 2015-01-01 00:29:35.550,0.013,0.06,0.978,23.193,28.015,-4.883, , , , , , ,1.505,1.033,-25.483
 09:41:00.413,eb:33:2e:f9:57:b5, 2015-01-01 00:29:35.550,0.048,0.067,0.995,23.071,26.428,-6.409, , , , , , ,1.62,1.17,-25.51
 09:41:00.413,eb:33:2e:f9:57:b5, 2015-01-01 00:29:35.550,0.038,0.069,1.022,23.438,25.818,-8.423, , , , , , ,1.736,1.296,-25.543
 09:41:00.413,eb:33:2e:f9:57:b5, 2015-01-01 00:29:35.550,0.108,0.064,0.997,23.499,23.499,-9.705, , , , , , ,1.851,1.423,-25.604
 09:41:00.413,eb:33:2e:f9:57:b5, 2015-01-01 00:29:35.550,0.13,0.109,0.991,24.048,20.935,-13, , , , , , ,1.967,1.533,-25.659
 09:41:00.413,eb:33:2e:f9:57:b5, 2015-01-01 00:29:35.550,0.05,0.062,1.107,26.062,23.621,-14.893, , , , , , ,2.093,1.648,-25.73
 09:41:00.456,eb:33:2e:f9:57:b5, 2015-01-01 00:29:35.550,-0.034,0.024,1.132,29.053,27.283,-13.55, , , , , , ,2.23,1.78,-25.796
 09:41:00.456,eb:33:2e:f9:57:b5, 2015-01-01 00:29:35.550,-0.035,-0.025,1.218,33.997,29.602,-10.925, , , , , , ,2.39,1.923,-25.867
 09:41:00.456,eb:33:2e:f9:57:b5, 2015-01-01 00:29:35.550,-0.026,-0.014,1.249,39.673,29.663,-10.01, , , , , , ,2.576,2.076,-25.911
 09:41:00.456,eb:33:2e:f9:57:b5, 2015-01-01 00:29:35.550,-0.103,0.02,1.194,43.64,30.457,-10.315, , , , , , ,2.785,2.23,-25.955
 09:41:00.456,eb:33:2e:f9:57:b5, 2015-01-01 00:29:35.550,-0.055,0.008,1.134,47.241,27.405,-8.667, , , , , , ,3.01,2.373,-25.994
 09:41:00.456,eb:33:2e:f9:57:b5, 2015-01-01 00:29:35.550,-0.084,0.03,1.183,51.025,27.222,-8.789, , , , , , ,3.257,2.51,-26.049
 09:41:00.456,eb:33:2e:f9:57:b5, 2015-01-01 00:29:35.550,-0.087,-0.006,1.273,55.542,28.259,-8.85, , , , , , ,3.521,2.653,-26.087
 09:41:00.456,eb:33:2e:f9:57:b5, 2015-01-01 00:29:35.550,-0.128,0.004,1.24,60.486,28.503,-8.606, , , , , , ,3.818,2.802,-26.12
 09:41:00.501,eb:33:2e:f9:57:b5, 2015-01-01 00:29:35.550,-0.216,0.014,1.193,63.782,28.198,-7.69, , , , , , ,4.125,2.944,-26.153
 09:41:00.501,eb:33:2e:f9:57:b5, 2015-01-01 00:29:35.550,-0.265,-0.012,1.234,65.979,28.32,-5.493, , , , , , ,4.455,3.087,-26.191
 09:41:00.501,eb:33:2e:f9:57:b5, 2015-01-01 00:29:35.550,-0.258,-0.047,1.201,70.862,26.367,-0.916, , , , , , ,4.796,3.224,-26.191
 09:41:00.501,eb:33:2e:f9:57:b5, 2015-01-01 00:29:35.550,-0.24,-0.017,1.126,74.28,21.667,1.465, , , , , , ,5.164,3.345,-26.18
 09:41:00.501,eb:33:2e:f9:57:b5, 2015-01-01 00:29:35.550,-0.233,0.003,1.107,78.735,14.099,3.296, , , , , , ,5.548,3.428,-26.158
 09:41:00.501,eb:33:2e:f9:57:b5, 2015-01-01 00:29:35.550,-0.239,-0.028,1.195,85.693,6.836,5.798, , , , , , ,5.96,3.472,-26.147
 09:41:00.501,eb:33:2e:f9:57:b5, 2015-01-01 00:29:35.550,-0.258,-0.039,1.219,91.858,2.686,8.118, , , , , , ,6.411,3.488,-26.109
 09:41:00.501,eb:33:2e:f9:57:b5, 2015-01-01 00:29:35.550,-0.291,-0.025,1.208,97.046,-1.77,10.559, , , , , , ,6.888,3.483,-26.06
 09:41:00.569,eb:33:2e:f9:57:b5, 2015-01-01 00:29:35.550,-0.31,-0.03,1.189,101.929,-7.385,13.489, , , , , , ,7.394,3.45,-26.005
 09:41:00.569,eb:33:2e:f9:57:b5, 2015-01-01 00:29:35.550,-0.285,-0.032,1.18,106.812,-13.123,16.907, , , , , , ,7.921,3.384,-25.95
 09:41:00.569,eb:33:2e:f9:57:b5, 2015-01-01 00:29:35.550,-0.238,-0.019,1.21,111.755,-18.188,19.836, , , , , , ,8.476,3.29,-25.867
 09:41:00.569,eb:33:2e:f9:57:b5, 2015-01-01 00:29:35.550,-0.146,0.013,1.226,117.31,-23.438,22.034, , , , , , ,9.058,3.17,-25.779
 09:41:00.569,eb:33:2e:f9:57:b5, 2015-01-01 00:29:35.550,-0.072,0.034,1.261,123.596,-28.564,22.339, , , , , , ,9.668,3.021,-25.692
 09:41:00.569,eb:33:2e:f9:57:b5, 2015-01-01 00:29:35.550,0.026,0.047,1.328,130.127,-30.884,21.667, , , , , , ,10.311,2.851,-25.626
 09:41:00.569,eb:33:2e:f9:57:b5, 2015-01-01 00:29:35.550,0.145,0.067,1.445,137.878,-30.823,19.836, , , , , , ,10.986,2.681,-25.554
 09:41:00.569,eb:33:2e:f9:57:b5, 2015-01-01 00:29:35.550,0.201,0.094,1.549,146.667,-28.076,16.174, , , , , , ,11.7,2.521,-25.494
 09:41:00.592,eb:33:2e:f9:57:b5, 2015-01-01 00:29:35.550,0.233,0.093,1.553,156.433,-23.743,12.207, , , , , , ,12.469,2.379,-25.455
 09:41:00.592,eb:33:2e:f9:57:b5, 2015-01-01 00:29:35.550,0.235,0.098,1.573,165.833,-18.127,7.568, , , , , , ,13.277,2.269,-25.444
 09:41:00.592,eb:33:2e:f9:57:b5, 2015-01-01 00:29:35.550,0.233,0.108,1.631,175.049,-10.925,3.357, , , , , , ,14.134,2.197,-25.439
 09:41:00.592,eb:33:2e:f9:57:b5, 2015-01-01 00:29:35.550,0.225,0.088,1.587,185.059,-4.578,-0.488, , , , , , ,15.04,2.164,-25.439
 09:41:00.592,eb:33:2e:f9:57:b5, 2015-01-01 00:29:35.550,0.214,0.116,1.541,194.336,-1.099,-4.517, , , , , , ,15.991,2.153,-25.461
 09:41:00.592,eb:33:2e:f9:57:b5, 2015-01-01 00:29:35.550,0.142,0.102,1.515,202.881,2.686,-7.874, , , , , , ,16.99,2.17,-25.505
 09:41:00.592,eb:33:2e:f9:57:b5, 2015-01-01 00:29:35.550,0.101,0.075,1.51,212.097,5.066,-10.376, , , , , , ,18.029,2.203,-25.543
 09:41:00.592,eb:33:2e:f9:57:b5, 2015-01-01 00:29:35.550,0.068,0.054,1.555,221.68,8.362,-12.146, , , , , , ,19.116,2.252,-25.587
 09:41:00.636,eb:33:2e:f9:57:b5, 2015-01-01 00:29:35.550,0.069,0.012,1.573,231.445,12.634,-13.611, , , , , , ,20.253,2.324,-25.631
 09:41:00.636,eb:33:2e:f9:57:b5, 2015-01-01 00:29:35.550,0.079,0.035,1.613,240.112,16.968,-14.832, , , , , , ,21.434,2.422,-25.686
 09:41:00.636,eb:33:2e:f9:57:b5, 2015-01-01 00:29:35.550,0.119,0.039,1.587,250.427,20.203,-16.602, , , , , , ,22.665,2.538,-25.719
 09:41:00.636,eb:33:2e:f9:57:b5, 2015-01-01 00:29:35.550,0.132,0.07,1.623,260.498,22.034,-19.592, , , , , , ,23.939,2.675,-25.763
 09:41:00.636,eb:33:2e:f9:57:b5, 2015-01-01 00:29:35.550,0.159,0.051,1.642,271.79,23.315,-22.766, , , , , , ,25.274,2.823,-25.812
 09:41:00.636,eb:33:2e:f9:57:b5, 2015-01-01 00:29:35.550,0.195,0.105,1.735,281.799,25.33,-26.489, , , , , , ,26.664,2.988,-25.884
 09:41:00.636,eb:33:2e:f9:57:b5, 2015-01-01 00:29:35.550,0.196,0.106,1.826,295.105,27.71,-30.457, , , , , , ,28.103,3.17,-25.955
 09:41:00.636,eb:33:2e:f9:57:b5, 2015-01-01 00:29:35.550,0.232,0.07,1.817,309.753,27.1,-34.424, , , , , , ,29.619,3.373,-26.027
 09:41:00.658,eb:33:2e:f9:57:b5, 2015-01-01 00:29:35.910,0.234,0.061,1.875,324.646,24.109,-38.635, , , , , , ,31.207,3.576,-26.125
 09:41:00.658,eb:33:2e:f9:57:b5, 2015-01-01 00:29:35.910,0.335,0.126,2.063,341.248,18.433,-43.396, , , , , , ,32.871,3.774,-26.257
 09:41:00.658,eb:33:2e:f9:57:b5, 2015-01-01 00:29:35.910,0.506,0.173,2.375,357.056,14.526,-50.232, , , , , , ,34.612,3.972,-26.411
 09:41:00.658,eb:33:2e:f9:57:b5, 2015-01-01 00:29:35.910,0.664,0.08,2.633,376.16,18.433,-56.641, , , , , , ,36.442,4.197,-26.581
 09:41:00.658,eb:33:2e:f9:57:b5, 2015-01-01 00:29:35.910,0.777,0.104,2.786,396.912,24.414,-63.477, , , , , , ,38.37,4.466,-26.752
 09:41:00.658,eb:33:2e:f9:57:b5, 2015-01-01 00:29:35.910,0.861,0.173,2.871,413.818,25.391,-74.219, , , , , , ,40.391,4.785,-26.955
 09:41:00.658,eb:33:2e:f9:57:b5, 2015-01-01 00:29:35.910,0.864,0.115,2.96,430.237,30.457,-84.717, , , , , , ,42.49,5.153,-27.169
 09:41:00.659,eb:33:2e:f9:57:b5, 2015-01-01 00:29:35.910,0.921,0.196,3.241,443.176,37.72,-100.83, , , , , , ,44.654,5.603,-27.389
 09:41:00.705,eb:33:2e:f9:57:b5, 2015-01-01 00:29:35.910,0.811,-0.021,3.344,456.238,53.711,-110.291, , , , , , ,46.884,6.147,-27.592
 09:41:00.705,eb:33:2e:f9:57:b5, 2015-01-01 00:29:35.910,0.721,-0.169,3.272,475.464,67.322,-119.995, , , , , , ,49.202,6.784,-27.762
 09:41:00.705,eb:33:2e:f9:57:b5, 2015-01-01 00:29:35.910,0.545,-0.265,3.347,486.023,81.848,-127.991, , , , , , ,51.603,7.509,-27.867
 09:41:00.706,eb:33:2e:f9:57:b5, 2015-01-01 00:29:35.910,0.547,-0.02,3.559,493.042,93.506,-138.428, , , , , , ,54.036,8.306,-27.916
 09:41:00.706,eb:33:2e:f9:57:b5, 2015-01-01 00:29:35.910,0.25,-0.415,3.951,509.155,127.136,-146.545, , , , , , ,56.552,9.212,-27.867
 09:41:00.706,eb:33:2e:f9:57:b5, 2015-01-01 00:29:35.910,0.178,-0.787,3.578,528.015,158.691,-146.545, , , , , , ,59.194,10.228,-27.631
 09:41:00.706,eb:33:2e:f9:57:b5, 2015-01-01 00:29:35.910,0.344,-0.52,3.195,536.133,163.818,-150.208, , , , , , ,61.935,11.266,-27.29
 09:41:00.706,eb:33:2e:f9:57:b5, 2015-01-01 00:29:35.910,0.24,-0.818,3.279,535.828,188.782,-131.47, , , , , , ,64.698,12.294,-26.796
 09:41:00.750,eb:33:2e:f9:57:b5, 2015-01-01 00:29:35.910,-0.01,-1.018,2.516,523.254,207.092,-111.145, , , , , , ,67.5,13.239,-26.109
 09:41:00.750,eb:33:2e:f9:57:b5, 2015-01-01 00:29:35.910,-0.001,-0.663,1.283,480.469,194.885,-87.341, , , , , , ,70.192,14.062,-25.323
 09:41:00.750,eb:33:2e:f9:57:b5, 2015-01-01 00:29:35.910,0.115,-0.181,0.123,410.156,172.302,-59.57, , , , , , ,72.581,14.683,-24.554
 09:41:00.750,eb:33:2e:f9:57:b5, 2015-01-01 00:29:35.910,0.258,-0.769,-0.245,329.285,154.114,-34.912, , , , , , ,74.559,15.123,-23.818
 09:41:00.750,eb:33:2e:f9:57:b5, 2015-01-01 00:29:35.910,0.592,-1.517,-0.644,257.751,124.695,-9.888, , , , , , ,76.163,15.381,-23.159
 09:41:00.750,eb:33:2e:f9:57:b5, 2015-01-01 00:29:35.910,0.157,-2.147,-0.661,190.674,89.661,7.08, , , , , , ,77.393,15.513,-22.615
 09:41:00.750,eb:33:2e:f9:57:b5, 2015-01-01 00:29:35.910,-0.125,-0.297,-0.609,72.571,51.27,23.56, , , , , , ,78.118,15.485,-22.291
 09:41:00.750,eb:33:2e:f9:57:b5, 2015-01-01 00:29:35.910,0.215,0.756,-0.046,-71.472,39.551,41.26, , , , , , ,78.085,15.37,-22.028
 09:41:00.793,eb:33:2e:f9:57:b5, 2015-01-01 00:29:35.910,0.302,-0.036,1.199,-153.748,58.167,61.34, , , , , , ,77.531,15.15,-21.736
 09:41:00.793,eb:33:2e:f9:57:b5, 2015-01-01 00:29:35.910,0.399,-0.738,1.495,-187.561,98.633,64.026, , , , , , ,76.778,14.93,-21.242
 09:41:00.793,eb:33:2e:f9:57:b5, 2015-01-01 00:29:35.910,0.635,-0.959,1.321,-207.397,118.469,59.509, , , , , , ,75.938,14.76,-20.61
 09:41:00.793,eb:33:2e:f9:57:b5, 2015-01-01 00:29:35.910,0.71,-0.982,1.271,-216.187,130.554,49.622, , , , , , ,75.031,14.656,-19.907
 09:41:00.793,eb:33:2e:f9:57:b5, 2015-01-01 00:29:35.910,0.681,-0.894,1.097,-211.548,132.08,39.551, , , , , , ,74.141,14.623,-19.188
 09:41:00.793,eb:33:2e:f9:57:b5, 2015-01-01 00:29:35.910,0.664,-0.745,0.769,-197.632,115.906,29.907, , , , , , ,73.284,14.634,-18.534
 09:41:00.793,eb:33:2e:f9:57:b5, 2015-01-01 00:29:35.910,0.645,-0.624,0.424,-181.763,86.792,19.287, , , , , , ,72.477,14.667,-18.012
 09:41:00.795,eb:33:2e:f9:57:b5, 2015-01-01 00:29:35.910,0.649,-0.585,0.108,-169.739,50.903,7.507, , , , , , ,71.675,14.705,-17.672
 09:41:00.839,eb:33:2e:f9:57:b5, 2015-01-01 00:29:35.910,0.64,-0.618,-0.064,-164.124,16.724,-4.15, , , , , , ,70.884,14.755,-17.523
 09:41:00.839,eb:33:2e:f9:57:b5, 2015-01-01 00:29:35.910,0.583,-0.648,-0.095,-165.71,-10.254,-14.404, , , , , , ,70.054,14.799,-17.551
 09:41:00.839,eb:33:2e:f9:57:b5, 2015-01-01 00:29:35.910,0.505,-0.649,-0.043,-173.401,-30.579,-22.034, , , , , , ,69.164,14.848,-17.699
 09:41:00.839,eb:33:2e:f9:57:b5, 2015-01-01 00:29:35.910,0.43,-0.657,0.053,-185.791,-44.25,-26.917, , , , , , ,68.181,14.892,-17.946
 09:41:00.839,eb:33:2e:f9:57:b5, 2015-01-01 00:29:35.910,0.344,-0.691,0.146,-202.332,-50.354,-28.87, , , , , , ,67.132,14.93,-18.232
 09:41:00.839,eb:33:2e:f9:57:b5, 2015-01-01 00:29:35.910,0.295,-0.756,0.221,-227.478,-48.279,-27.71, , , , , , ,65.973,14.963,-18.539
 09:41:00.839,eb:33:2e:f9:57:b5, 2015-01-01 00:29:35.910,0.247,-0.798,0.251,-246.643,-43.091,-24.841, , , , , , ,64.704,14.985,-18.809
 09:41:00.839,eb:33:2e:f9:57:b5, 2015-01-01 00:29:35.910,0.221,-0.826,0.295,-271.179,-34.912,-19.714, , , , , , ,63.32,15.002,-19.045
 09:41:00.884,eb:33:2e:f9:57:b5, 2015-01-01 00:29:35.910,0.213,-0.822,0.365,-298.34,-25.146,-12.329, , , , , , ,61.837,15.002,-19.215
 09:41:00.884,eb:33:2e:f9:57:b5, 2015-01-01 00:29:35.910,0.22,-0.793,0.397,-317.2,-19.47,-6.47, , , , , , ,60.255,14.985,-19.347
 09:41:00.884,eb:33:2e:f9:57:b5, 2015-01-01 00:29:35.910,0.243,-0.751,0.393,-332.275,-18.311,-1.587, , , , , , ,58.596,14.952,-19.435
 09:41:00.884,eb:33:2e:f9:57:b5, 2015-01-01 00:29:35.910,0.251,-0.707,0.372,-343.811,-21.912,2.869, , , , , , ,56.854,14.892,-19.534
 09:41:00.884,eb:33:2e:f9:57:b5, 2015-01-01 00:29:35.910,0.272,-0.664,0.349,-352.112,-30.334,6.775, , , , , , ,55.085,14.793,-19.633
 09:41:00.884,eb:33:2e:f9:57:b5, 2015-01-01 00:29:35.910,0.292,-0.627,0.372,-357.544,-41.565,10.376, , , , , , ,53.273,14.65,-19.77
 09:41:00.884,eb:33:2e:f9:57:b5, 2015-01-01 00:29:35.910,0.309,-0.586,0.426,-361.023,-54.565,13.367, , , , , , ,51.432,14.453,-19.935
 09:41:00.884,eb:33:2e:f9:57:b5, 2015-01-01 00:29:35.910,0.32,-0.544,0.489,-363.953,-67.749,16.418, , , , , , ,49.548,14.189,-20.143
 09:41:00.953,eb:33:2e:f9:57:b5, 2015-01-01 00:29:35.910,0.323,-0.51,0.561,-367.493,-78.735,19.836, , , , , , ,47.659,13.87,-20.369
 09:41:00.953,eb:33:2e:f9:57:b5, 2015-01-01 00:29:35.910,0.323,-0.489,0.65,-371.643,-87.158,23.56, , , , , , ,45.753,13.502,-20.621
 09:41:00.953,eb:33:2e:f9:57:b5, 2015-01-01 00:29:35.910,0.32,-0.465,0.756,-375.793,-92.773,27.649, , , , , , ,43.83,13.09,-20.852
 09:41:00.953,eb:33:2e:f9:57:b5, 2015-01-01 00:29:35.910,0.325,-0.435,0.865,-379.578,-96.313,31.86, , , , , , ,41.869,12.634,-21.083
 09:41:00.953,eb:33:2e:f9:57:b5, 2015-01-01 00:29:35.910,0.325,-0.395,0.975,-382.141,-97.9,36.011, , , , , , ,39.919,12.151,-21.281
 09:41:00.953,eb:33:2e:f9:57:b5, 2015-01-01 00:29:35.910,0.324,-0.341,1.059,-383.423,-99.121,39.917, , , , , , ,37.969,11.646,-21.456
 09:41:00.953,eb:33:2e:f9:57:b5, 2015-01-01 00:29:35.910,0.335,-0.274,1.117,-383.911,-100.952,43.457, , , , , , ,36.019,11.118,-21.594
 09:41:00.953,eb:33:2e:f9:57:b5, 2015-01-01 00:29:35.910,0.361,-0.22,1.188,-383.972,-103.149,46.448, , , , , , ,34.058,10.563,-21.714
 09:41:00.975,eb:33:2e:f9:57:b5, 2015-01-01 00:29:35.910,0.398,-0.181,1.266,-383.362,-104.797,48.828, , , , , , ,32.124,9.998,-21.802
 09:41:00.975,eb:33:2e:f9:57:b5, 2015-01-01 00:29:35.910,0.415,-0.14,1.332,-382.019,-106.628,50.11, , , , , , ,30.196,9.415,-21.879
 09:41:00.975,eb:33:2e:f9:57:b5, 2015-01-01 00:29:35.910,0.427,-0.071,1.331,-380.92,-111.267,50.354, , , , , , ,28.284,8.811,-21.929
 09:41:00.975,eb:33:2e:f9:57:b5, 2015-01-01 00:29:35.910,0.452,-0.001,1.318,-380.432,-118.774,49.255, , , , , , ,26.351,8.179,-21.984
 09:41:00.976,eb:33:2e:f9:57:b5, 2015-01-01 00:29:35.910,0.475,0.048,1.342,-380.615,-127.502,47.424, , , , , , ,24.439,7.515,-22.033
 09:41:00.976,eb:33:2e:f9:57:b5, 2015-01-01 00:29:35.910,0.487,0.084,1.399,-380.798,-136.047,44.861, , , , , , ,22.527,6.812,-22.099
 09:41:00.976,eb:33:2e:f9:57:b5, 2015-01-01 00:29:35.910,0.491,0.107,1.478,-380.31,-143.982,41.565, , , , , , ,20.616,6.081,-22.159
 09:41:00.976,eb:33:2e:f9:57:b5, 2015-01-01 00:29:35.910,0.492,0.125,1.568,-378.54,-151.245,37.842, , , , , , ,18.688,5.306,-22.236
 09:41:00.976,eb:33:2e:f9:57:b5, 2015-01-01 00:29:35.910,0.479,0.143,1.659,-375.916,-157.898,33.813, , , , , , ,16.798,4.51,-22.302
 09:41:00.976,eb:33:2e:f9:57:b5, 2015-01-01 00:29:35.910,0.456,0.148,1.74,-372.375,-164.062,29.602, , , , , , ,14.925,3.691,-22.39
 09:41:00.976,eb:33:2e:f9:57:b5, 2015-01-01 00:29:35.910,0.423,0.14,1.815,-368.469,-169.678,25.513, , , , , , ,13.068,2.845,-22.462
 09:41:00.976,eb:33:2e:f9:57:b5, 2015-01-01 00:29:35.910,0.38,0.125,1.884,-364.502,-174.927,21.851, , , , , , ,11.212,1.967,-22.538
 09:41:00.976,eb:33:2e:f9:57:b5, 2015-01-01 00:29:35.910,0.328,0.098,1.96,-360.657,-179.932,18.921, , , , , , ,9.393,1.071,-22.599
 09:41:00.976,eb:33:2e:f9:57:b5, 2015-01-01 00:29:35.910,0.281,0.078,2.047,-357.3,-184.509,16.479, , , , , , ,7.603,0.154,-22.665
 09:41:00.976,eb:33:2e:f9:57:b5, 2015-01-01 00:29:35.910,0.233,0.065,2.155,-354.492,-187.317,14.771, , , , , , ,5.823,-0.775,-22.698
 09:41:00.976,eb:33:2e:f9:57:b5, 2015-01-01 00:29:35.910,0.184,0.066,2.274,-351.501,-188.11,13.672, , , , , , ,4.037,-1.73,-22.714
 09:41:01.019,eb:33:2e:f9:57:b5, 2015-01-01 00:29:35.910,0.134,0.094,2.399,-348.206,-186.768,12.939, , , , , , ,2.285,-2.67,-22.698
 09:41:01.019,eb:33:2e:f9:57:b5, 2015-01-01 00:29:35.910,0.038,0.144,2.525,-343.933,-183.289,12.39, , , , , , ,0.555,-3.593,-22.676
 09:41:01.019,eb:33:2e:f9:57:b5, 2015-01-01 00:29:35.910,-0.067,0.221,2.625,-337.524,-179.199,11.841, , , , , , ,-1.148,-4.499,-22.61
 09:41:01.019,eb:33:2e:f9:57:b5, 2015-01-01 00:29:35.910,-0.189,0.297,2.653,-332.458,-178.345,12.146, , , , , , ,-2.851,-5.4,-22.522
 09:41:01.019,eb:33:2e:f9:57:b5, 2015-01-01 00:29:35.910,-0.346,0.369,2.641,-329.956,-180.359,13.611, , , , , , ,-4.521,-6.29,-22.396
 09:41:01.019,eb:33:2e:f9:57:b5, 2015-01-01 00:29:35.910,-0.484,0.413,2.596,-332.153,-184.326,17.761, , , , , , ,-6.191,-7.191,-22.253
 09:41:01.019,eb:33:2e:f9:57:b5, 2015-01-01 00:29:35.910,-0.627,0.417,2.646,-339.05,-184.021,25.208, , , , , , ,-7.905,-8.097,-22.028
 09:41:01.019,eb:33:2e:f9:57:b5, 2015-01-01 00:29:35.910,-0.725,0.468,2.755,-349.976,-177.612,35.767, , , , , , ,-9.695,-8.97,-21.725
 09:41:01.110,eb:33:2e:f9:57:b5, 2015-01-01 00:29:35.910,-0.77,0.573,2.936,-363.037,-162.842,48.401, , , , , , ,-11.547,-9.767,-21.352
 09:41:01.110,eb:33:2e:f9:57:b5, 2015-01-01 00:29:35.910,-0.772,0.698,3.157,-373.84,-139.282,61.707, , , , , , ,-13.475,-10.437,-20.929
 09:41:01.110,eb:33:2e:f9:57:b5, 2015-01-01 00:29:35.910,-0.721,0.862,3.344,-379.517,-109.314,75.073, , , , , , ,-15.458,-10.937,-20.435
 09:41:01.110,eb:33:2e:f9:57:b5, 2015-01-01 00:29:35.910,-0.61,1.068,3.478,-378.601,-75.317,87.524, , , , , , ,-17.479,-11.255,-19.896
 09:41:01.110,eb:33:2e:f9:57:b5, 2015-01-01 00:29:35.910,-0.477,1.338,3.548,-370.361,-39.917,97.412, , , , , , ,-19.462,-11.36,-19.352
 09:41:01.110,eb:33:2e:f9:57:b5, 2015-01-01 00:29:35.910,-0.35,1.701,3.516,-354.98,-7.446,102.661, , , , , , ,-21.368,-11.277,-18.858
 09:41:01.110,eb:33:2e:f9:57:b5, 2015-01-01 00:29:35.910,-0.306,2.141,3.326,-333.557,16.663,102.539, , , , , , ,-23.176,-11.047,-18.386
 09:41:01.110,eb:33:2e:f9:57:b5, 2015-01-01 00:29:35.910,-0.358,2.646,2.921,-307.373,25.696,96.924, , , , , , ,-24.862,-10.739,-17.968
 09:41:01.110,eb:33:2e:f9:57:b5, 2015-01-01 00:29:35.910,-0.461,3.192,2.368,-276.367,14.832,85.754, , , , , , ,-26.378,-10.453,-17.6
 09:41:01.111,eb:33:2e:f9:57:b5, 2015-01-01 00:29:35.910,-0.636,3.717,1.827,-239.502,-14.526,70.068, , , , , , ,-27.713,-10.283,-17.271
 09:41:01.111,eb:33:2e:f9:57:b5, 2015-01-01 00:29:35.910,-0.964,4.149,1.399,-197.266,-56.213,52.49, , , , , , ,-28.85,-10.316,-16.908
 09:41:01.111,eb:33:2e:f9:57:b5, 2015-01-01 00:29:36.355,-1.379,4.411,1.179,-151.978,-100.098,35.706, , , , , , ,-29.784,-10.574,-16.512
 09:41:01.111,eb:33:2e:f9:57:b5, 2015-01-01 00:29:36.355,-1.768,4.464,1.307,-106.567,-130.31,22.339, , , , , , ,-30.493,-11.025,-16.084
 09:41:01.111,eb:33:2e:f9:57:b5, 2015-01-01 00:29:36.355,-2.058,4.342,1.775,-62.561,-132.019,15.198, , , , , , ,-30.976,-11.558,-15.683
 09:41:01.111,eb:33:2e:f9:57:b5, 2015-01-01 00:29:36.355,-2.177,4.121,2.387,-20.813,-98.999,14.404, , , , , , ,-31.234,-12.014,-15.32
 09:41:01.111,eb:33:2e:f9:57:b5, 2015-01-01 00:29:36.355,-2.044,3.858,2.848,17.273,-38.574,16.846, , , , , , ,-31.278,-12.244,-15.079
 09:41:01.155,eb:33:2e:f9:57:b5, 2015-01-01 00:29:36.355,-1.714,3.573,2.961,49.744,33.02,19.226, , , , , , ,-31.108,-12.178,-15.013
 09:41:01.155,eb:33:2e:f9:57:b5, 2015-01-01 00:29:36.355,-1.276,3.329,2.708,75.562,95.276,18.005, , , , , , ,-30.756,-11.821,-15.139
 09:41:01.155,eb:33:2e:f9:57:b5, 2015-01-01 00:29:36.355,-0.859,3.147,2.278,95.886,133.789,11.108, , , , , , ,-30.267,-11.266,-15.392
 09:41:01.155,eb:33:2e:f9:57:b5, 2015-01-01 00:29:36.355,-0.514,2.979,1.797,111.816,144.287,-1.892, , , , , , ,-29.674,-10.64,-15.738
 09:41:01.155,eb:33:2e:f9:57:b5, 2015-01-01 00:29:36.355,-0.237,2.764,1.375,123.474,132.812,-18.677, , , , , , ,-29.004,-10.063,-16.139
 09:41:01.155,eb:33:2e:f9:57:b5, 2015-01-01 00:29:36.355,1.346,2.492,1.137,131.348,111.45,-35.767, , , , , , ,-28.29,-9.602,-16.584
 09:41:01.155,eb:33:2e:f9:57:b5, 2015-01-01 00:29:36.355,2.83,1.359,3.898,271.362,-98.022,-168.579, , , , , , ,-27.263,-9.783,-17.001
 09:41:01.155,eb:33:2e:f9:57:b5, 2015-01-01 00:29:36.355,1.206,-1.898,2.009,330.505,20.996,-158.936, , , , , , ,-25.532,-10.091,-17.82
 09:41:01.176,eb:33:2e:f9:57:b5, 2015-01-01 00:29:36.355,1.831,-1.737,0.94,365.662,-60.913,-206.116, , , , , , ,-23.643,-10.822,-18.589
 09:41:01.176,eb:33:2e:f9:57:b5, 2015-01-01 00:29:36.355,1.845,-1.443,1.513,368.896,-40.771,-168.884, , , , , , ,-21.654,-11.354,-19.374
 09:41:01.176,eb:33:2e:f9:57:b5, 2015-01-01 00:29:36.355,1.114,-1.539,1.574,380.066,17.517,-147.4, , , , , , ,-19.633,-11.667,-20.116
 09:41:01.176,eb:33:2e:f9:57:b5, 2015-01-01 00:29:36.355,0.059,-1.531,1.966,409.302,101.562,-100.281, , , , , , ,-17.512,-11.536,-20.814
 09:41:01.176,eb:33:2e:f9:57:b5, 2015-01-01 00:29:36.355,-0.6,-0.775,1.238,430.786,129.211,-53.833, , , , , , ,-15.282,-11.041,-21.341
 09:41:01.176,eb:33:2e:f9:57:b5, 2015-01-01 00:29:36.355,-0.603,-0.167,1.167,418.274,108.887,-36.133, , , , , , ,-13.085,-10.508,-21.725
 09:41:01.176,eb:33:2e:f9:57:b5, 2015-01-01 00:29:36.355,-0.561,1.214,1.704,353.149,94.666,-24.536, , , , , , ,-11.135,-10.063,-21.973
 09:41:01.178,eb:33:2e:f9:57:b5, 2015-01-01 00:29:36.355,-0.322,1.537,1.3,277.039,74.463,-20.081, , , , , , ,-9.558,-9.673,-22.159
 09:41:01.222,eb:33:2e:f9:57:b5, 2015-01-01 00:29:36.355,-0.198,1.204,1.166,214.417,51.453,-20.264, , , , , , ,-8.35,-9.393,-22.302
 09:41:01.222,eb:33:2e:f9:57:b5, 2015-01-01 00:29:36.355,0.007,0.775,1.361,170.105,40.283,-23.56, , , , , , ,-7.388,-9.196,-22.462
 09:41:01.222,eb:33:2e:f9:57:b5, 2015-01-01 00:29:36.355,0.134,0.388,1.382,142.578,40.955,-26.367, , , , , , ,-6.608,-9.014,-22.615
 09:41:01.222,eb:33:2e:f9:57:b5, 2015-01-01 00:29:36.355,0.002,0.052,1.282,133.606,47.852,-27.893, , , , , , ,-5.894,-8.8,-22.78
 09:41:01.222,eb:33:2e:f9:57:b5, 2015-01-01 00:29:36.355,0.066,0.078,1.127,122.864,46.326,-25.33, , , , , , ,-5.229,-8.575,-22.939
 09:41:01.222,eb:33:2e:f9:57:b5, 2015-01-01 00:29:36.355,0.081,-0.032,0.96,116.882,41.016,-18.616, , , , , , ,-4.62,-8.366,-23.088
 09:41:01.222,eb:33:2e:f9:57:b5, 2015-01-01 00:29:36.355,0.148,0.118,1.022,108.459,43.701,-12.634, , , , , , ,-4.037,-8.163,-23.176
 09:41:01.222,eb:33:2e:f9:57:b5, 2015-01-01 00:29:36.355,0.236,0.354,1.019,88.135,43.579,-5.92, , , , , , ,-3.538,-7.943,-23.242
 09:41:01.267,eb:33:2e:f9:57:b5, 2015-01-01 00:29:36.355,0.158,0.328,1.018,70.19,42.542,-0.244, , , , , , ,-3.153,-7.734,-23.264
 09:41:01.267,eb:33:2e:f9:57:b5, 2015-01-01 00:29:36.355,0.004,0.317,0.98,55.42,38.94,0.793, , , , , , ,-2.845,-7.526,-23.291
 09:41:01.267,eb:33:2e:f9:57:b5, 2015-01-01 00:29:36.355,-0.021,0.256,0.908,43.579,26.184,1.221, , , , , , ,-2.604,-7.372,-23.291
 09:41:01.267,eb:33:2e:f9:57:b5, 2015-01-01 00:29:36.355,-0.009,0.175,0.905,35.828,13.916,0.183, , , , , , ,-2.406,-7.273,-23.297
 09:41:01.267,eb:33:2e:f9:57:b5, 2015-01-01 00:29:36.355,0,0.104,0.928,31.494,4.944,-1.77, , , , , , ,-2.241,-7.234,-23.302
 09:41:01.267,eb:33:2e:f9:57:b5, 2015-01-01 00:29:36.355,-0.008,0.053,0.963,30.334,-3.052,-4.822, , , , , , ,-2.087,-7.234,-23.34
 09:41:01.267,eb:33:2e:f9:57:b5, 2015-01-01 00:29:36.355,0.047,0.026,0.985,30.09,-11.658,-7.568, , , , , , ,-1.934,-7.278,-23.373
 09:41:01.267,eb:33:2e:f9:57:b5, 2015-01-01 00:29:36.355,0.094,0.009,1.021,30.457,-17.822,-10.559, , , , , , ,-1.769,-7.355,-23.417
 09:41:01.334,eb:33:2e:f9:57:b5, 2015-01-01 00:29:36.355,0.109,0,1.057,30.884,-21.545,-11.963, , , , , , ,-1.609,-7.46,-23.472
 09:41:01.334,eb:33:2e:f9:57:b5, 2015-01-01 00:29:36.355,0.129,-0.013,1.079,32.166,-22.827,-12.268, , , , , , ,-1.439,-7.57,-23.555
 09:41:01.334,eb:33:2e:f9:57:b5, 2015-01-01 00:29:36.355,0.144,-0.033,1.087,34.302,-21.606,-12.573, , , , , , ,-1.269,-7.685,-23.61
 09:41:01.334,eb:33:2e:f9:57:b5, 2015-01-01 00:29:36.355,0.166,-0.017,1.059,35.828,-19.287,-12.573, , , , , , ,-1.077,-7.784,-23.676
 09:41:01.334,eb:33:2e:f9:57:b5, 2015-01-01 00:29:36.355,0.183,0.026,1.035,35.461,-16.968,-12.268, , , , , , ,-0.89,-7.877,-23.736
 09:41:01.334,eb:33:2e:f9:57:b5, 2015-01-01 00:29:36.355,0.166,0.053,1.031,34.058,-15.015,-11.963, , , , , , ,-0.709,-7.954,-23.818
 09:41:01.334,eb:33:2e:f9:57:b5, 2015-01-01 00:29:36.355,0.135,0.033,1.031,33.142,-13.062,-10.986, , , , , , ,-0.533,-8.026,-23.873
 09:41:01.334,eb:33:2e:f9:57:b5, 2015-01-01 00:29:36.355,0.087,0.015,1.03,32.715,-10.62,-9.949, , , , , , ,-0.357,-8.08,-23.928
 09:41:01.357,eb:33:2e:f9:57:b5, 2015-01-01 00:29:36.355,0.082,0.018,1.002,31.738,-9.583,-8.545, , , , , , ,-0.187,-8.135,-23.978
 09:41:01.358,eb:33:2e:f9:57:b5, 2015-01-01 00:29:36.355,0.093,0.034,0.991,30.273,-9.644,-8.362, , , , , , ,-0.027,-8.179,-24.038
 09:41:01.358,eb:33:2e:f9:57:b5, 2015-01-01 00:29:36.355,0.118,0.039,0.985,28.687,-9.399,-8.545, , , , , , ,0.121,-8.229,-24.082
 09:41:01.358,eb:33:2e:f9:57:b5, 2015-01-01 00:29:36.355,0.148,0.052,0.987,26.611,-8.301,-8.24, , , , , , ,0.269,-8.273,-24.126
 09:41:01.358,eb:33:2e:f9:57:b5, 2015-01-01 00:29:36.355,0.184,0.067,0.994,24.109,-6.042,-7.446, , , , , , ,0.401,-8.306,-24.164
 09:41:01.358,eb:33:2e:f9:57:b5, 2015-01-01 00:29:36.355,0.185,0.062,1.004,21.729,-1.831,-5.737, , , , , , ,0.522,-8.328,-24.219
 09:41:01.358,eb:33:2e:f9:57:b5, 2015-01-01 00:29:36.355,0.169,0.054,1.005,20.508,1.709,-4.028, , , , , , ,0.626,-8.322,-24.241
 09:41:01.359,eb:33:2e:f9:57:b5, 2015-01-01 00:29:36.355,0.166,0.05,0.998,19.592,4.578,-2.38, , , , , , ,0.736,-8.306,-24.258
 09:41:01.401,eb:33:2e:f9:57:b5, 2015-01-01 00:29:36.355,0.148,0.059,0.991,18.311,7.446,-1.709, , , , , , ,0.829,-8.273,-24.269
 09:41:01.402,eb:33:2e:f9:57:b5, 2015-01-01 00:29:36.355,0.141,0.052,0.99,17.334,9.46,-1.282, , , , , , ,0.923,-8.229,-24.296
 09:41:01.402,eb:33:2e:f9:57:b5, 2015-01-01 00:29:36.355,0.132,0.042,0.995,16.907,11.658,-1.099, , , , , , ,1.005,-8.174,-24.302
 09:41:01.402,eb:33:2e:f9:57:b5, 2015-01-01 00:29:36.355,0.125,0.037,0.988,16.418,13.855,-0.549, , , , , , ,1.093,-8.108,-24.307
 09:41:01.402,eb:33:2e:f9:57:b5, 2015-01-01 00:29:36.355,0.125,0.042,0.988,16.235,15.015,-0.244, , , , , , ,1.176,-8.036,-24.307
 09:41:01.402,eb:33:2e:f9:57:b5, 2015-01-01 00:29:36.355,0.123,0.043,0.996,16.418,15.503,-0.427, , , , , , ,1.258,-7.96,-24.324
 09:41:01.402,eb:33:2e:f9:57:b5, 2015-01-01 00:29:36.355,0.129,0.052,0.979,16.174,15.93,-0.61, , , , , , ,1.34,-7.877,-24.329
 09:41:01.402,eb:33:2e:f9:57:b5, 2015-01-01 00:29:36.355,0.142,0.046,0.996,16.602,15.015,-0.61, , , , , , ,1.428,-7.8,-24.329
 09:41:01.424,eb:33:2e:f9:57:b5, 2015-01-01 00:29:36.355,0.125,0.039,1.019,18.127,14.099,-0.488, , , , , , ,1.516,-7.729,-24.335
 09:41:01.424,eb:33:2e:f9:57:b5, 2015-01-01 00:29:36.355,0.078,0.021,1.039,21.24,12.024,0.732, , , , , , ,1.615,-7.663,-24.351
 09:41:01.424,eb:33:2e:f9:57:b5, 2015-01-01 00:29:36.355,0.075,-0.009,1.039,25.269,9.46,3.235, , , , , , ,1.73,-7.614,-24.335
 09:41:01.424,eb:33:2e:f9:57:b5, 2015-01-01 00:29:36.355,0.066,0.032,0.988,26.55,7.751,4.333, , , , , , ,1.868,-7.564,-24.318
 09:41:01.424,eb:33:2e:f9:57:b5, 2015-01-01 00:29:36.355,0.061,0.049,0.975,26.978,5.981,5.31, , , , , , ,1.994,-7.537,-24.291
 09:41:01.424,eb:33:2e:f9:57:b5, 2015-01-01 00:29:36.355,0.062,0.049,0.965,27.222,4.517,6.348, , , , , , ,2.126,-7.509,-24.28
 09:41:01.424,eb:33:2e:f9:57:b5, 2015-01-01 00:29:36.355,0.044,0.051,0.966,27.466,3.296,8.118, , , , , , ,2.258,-7.493,-24.241
 09:41:01.424,eb:33:2e:f9:57:b5, 2015-01-01 00:29:36.355,0.068,0.057,0.949,27.466,1.77,10.254, , , , , , ,2.395,-7.482,-24.197
 09:41:01.469,eb:33:2e:f9:57:b5, 2015-01-01 00:29:36.355,0.077,0.061,0.958,27.344,0.977,11.108, , , , , , ,2.527,-7.476,-24.142
 09:41:01.469,eb:33:2e:f9:57:b5, 2015-01-01 00:29:36.355,0.102,0.073,0.952,27.039,-0.061,11.658, , , , , , ,2.653,-7.482,-24.104
 09:41:01.469,eb:33:2e:f9:57:b5, 2015-01-01 00:29:36.355,0.133,0.079,0.957,26.55,-0.183,11.841, , , , , , ,2.78,-7.482,-24.044
 09:41:01.469,eb:33:2e:f9:57:b5, 2015-01-01 00:29:36.355,0.144,0.079,0.97,26.245,0.061,11.719, , , , , , ,2.911,-7.482,-23.989
 09:41:01.469,eb:33:2e:f9:57:b5, 2015-01-01 00:29:36.355,0.153,0.071,0.98,26.367,0.305,12.085, , , , , , ,3.032,-7.487,-23.928
 09:41:01.469,eb:33:2e:f9:57:b5, 2015-01-01 00:29:36.355,0.167,0.066,0.988,26.917,0.854,12.573, , , , , , ,3.159,-7.487,-23.884
 09:41:01.469,eb:33:2e:f9:57:b5, 2015-01-01 00:29:36.355,0.181,0.078,0.993,27.344,3.052,11.78, , , , , , ,3.285,-7.482,-23.818
 09:41:01.469,eb:33:2e:f9:57:b5, 2015-01-01 00:29:36.355,0.188,0.083,1.003,27.588,5.798,10.986, , , , , , ,3.422,-7.46,-23.763
 09:41:01.514,eb:33:2e:f9:57:b5, 2015-01-01 00:29:36.735,0.207,0.088,1.006,27.832,8.789,10.01, , , , , , ,3.554,-7.427,-23.708
 09:41:01.514,eb:33:2e:f9:57:b5, 2015-01-01 00:29:36.735,0.203,0.088,1.031,28.687,11.902,8.301, , , , , , ,3.691,-7.372,-23.681
 09:41:01.514,eb:33:2e:f9:57:b5, 2015-01-01 00:29:36.735,0.186,0.087,1.027,29.663,14.099,6.775, , , , , , ,3.829,-7.311,-23.637
 09:41:01.514,eb:33:2e:f9:57:b5, 2015-01-01 00:29:36.735,0.183,0.08,1.036,31.372,15.625,5.31, , , , , , ,3.983,-7.234,-23.604
 09:41:01.514,eb:33:2e:f9:57:b5, 2015-01-01 00:29:36.735,0.181,0.083,1.033,33.386,17.212,4.028, , , , , , ,4.142,-7.152,-23.577
 09:41:01.514,eb:33:2e:f9:57:b5, 2015-01-01 00:29:36.735,0.167,0.103,1.042,34.851,18.188,2.075, , , , , , ,4.312,-7.064,-23.571
 09:41:01.514,eb:33:2e:f9:57:b5, 2015-01-01 00:29:36.735,0.152,0.1,1.013,36.377,18.86,0.366, , , , , , ,4.488,-6.976,-23.56
 09:41:01.514,eb:33:2e:f9:57:b5, 2015-01-01 00:29:36.735,0.141,0.093,1.016,38.086,19.714,-0.732, , , , , , ,4.68,-6.877,-23.56
 09:41:01.558,eb:33:2e:f9:57:b5, 2015-01-01 00:29:36.735,0.141,0.088,1.04,39.49,21.423,-1.099, , , , , , ,4.878,-6.773,-23.555
 09:41:01.558,eb:33:2e:f9:57:b5, 2015-01-01 00:29:36.735,0.16,0.079,1.086,41.199,24.17,-1.16, , , , , , ,5.081,-6.658,-23.571
 09:41:01.558,eb:33:2e:f9:57:b5, 2015-01-01 00:29:36.735,0.175,0.049,1.198,43.884,29.846,-1.343, , , , , , ,5.29,-6.52,-23.566
 09:41:01.558,eb:33:2e:f9:57:b5, 2015-01-01 00:29:36.735,0.222,0.068,1.113,46.753,34.18,-1.404, , , , , , ,5.526,-6.356,-23.56
 09:41:01.558,eb:33:2e:f9:57:b5, 2015-01-01 00:29:36.735,0.22,0.126,1.055,48.34,36.194,-3.418, , , , , , ,5.762,-6.18,-23.555
 09:41:01.558,eb:33:2e:f9:57:b5, 2015-01-01 00:29:36.735,0.154,0.156,1.019,49.683,36.133,-6.348, , , , , , ,6.01,-5.993,-23.577
 09:41:01.558,eb:33:2e:f9:57:b5, 2015-01-01 00:29:36.735,0.103,0.171,0.994,49.927,34.119,-8.911, , , , , , ,6.262,-5.817,-23.599
 09:41:01.558,eb:33:2e:f9:57:b5, 2015-01-01 00:29:36.735,0.088,0.147,1.062,49.316,34.912,-9.888, , , , , , ,6.52,-5.636,-23.632
 09:41:01.581,eb:33:2e:f9:57:b5, 2015-01-01 00:29:36.735,0.106,0.115,1.152,50.415,35.583,-10.62, , , , , , ,6.768,-5.455,-23.665
 09:41:01.581,eb:33:2e:f9:57:b5, 2015-01-01 00:29:36.735,0.111,0.127,1.08,53.406,33.081,-11.902, , , , , , ,7.031,-5.279,-23.719
 09:41:01.581,eb:33:2e:f9:57:b5, 2015-01-01 00:29:36.735,0.073,0.153,1.048,55.42,30.212,-13.489, , , , , , ,7.311,-5.114,-23.763
 09:41:01.581,eb:33:2e:f9:57:b5, 2015-01-01 00:29:36.735,-0.003,0.138,1.047,58.044,26.062,-14.221, , , , , , ,7.603,-4.966,-23.818
 09:41:01.581,eb:33:2e:f9:57:b5, 2015-01-01 00:29:36.735,-0.013,0.107,1.041,60.852,21.301,-13.794, , , , , , ,7.91,-4.839,-23.873
 09:41:01.581,eb:33:2e:f9:57:b5, 2015-01-01 00:29:36.735,0.001,0.123,1.103,62.378,17.09,-13.428, , , , , , ,8.223,-4.741,-23.945
 09:41:01.581,eb:33:2e:f9:57:b5, 2015-01-01 00:29:36.735,0.005,0.076,1.208,65.613,15.808,-12.512, , , , , , ,8.547,-4.653,-24
 09:41:01.581,eb:33:2e:f9:57:b5, 2015-01-01 00:29:36.735,0.029,0.054,1.277,70.923,16.479,-11.597, , , , , , ,8.899,-4.559,-24.044
 09:41:01.651,eb:33:2e:f9:57:b5, 2015-01-01 00:29:36.735,0.03,0.088,1.266,76.599,15.198,-12.146, , , , , , ,9.272,-4.471,-24.093
 09:41:01.651,eb:33:2e:f9:57:b5, 2015-01-01 00:29:36.735,0.08,0.106,1.231,82.458,10.437,-13, , , , , , ,9.679,-4.4,-24.164
 09:41:01.651,eb:33:2e:f9:57:b5, 2015-01-01 00:29:36.735,0.079,0.104,1.299,88.745,8.545,-13.55, , , , , , ,10.113,-4.345,-24.219
 09:41:01.651,eb:33:2e:f9:57:b5, 2015-01-01 00:29:36.735,0.082,0.077,1.324,95.886,7.751,-13.55, , , , , , ,10.591,-4.29,-24.28
 09:41:01.651,eb:33:2e:f9:57:b5, 2015-01-01 00:29:36.735,0.118,0.076,1.355,103.21,7.751,-13.55, , , , , , ,11.096,-4.241,-24.34
 09:41:01.651,eb:33:2e:f9:57:b5, 2015-01-01 00:29:36.735,0.18,0.098,1.347,110.901,6.958,-13.733, , , , , , ,11.64,-4.191,-24.417
 09:41:01.651,eb:33:2e:f9:57:b5, 2015-01-01 00:29:36.735,0.18,0.157,1.344,118.164,5.188,-15.625, , , , , , ,12.222,-4.147,-24.483
 09:41:01.651,eb:33:2e:f9:57:b5, 2015-01-01 00:29:36.735,0.142,0.146,1.375,123.779,6.409,-17.151, , , , , , ,12.838,-4.098,-24.56
 09:41:01.672,eb:33:2e:f9:57:b5, 2015-01-01 00:29:36.735,0.132,0.058,1.459,130.92,11.536,-16.785, , , , , , ,13.48,-4.037,-24.637
 09:41:01.672,eb:33:2e:f9:57:b5, 2015-01-01 00:29:36.735,0.206,0.035,1.479,139.771,17.456,-15.625, , , , , , ,14.167,-3.944,-24.714
 09:41:01.672,eb:33:2e:f9:57:b5, 2015-01-01 00:29:36.735,0.288,0.111,1.407,149.597,18.188,-17.395, , , , , , ,14.897,-3.834,-24.769
 09:41:01.672,eb:33:2e:f9:57:b5, 2015-01-01 00:29:36.735,0.255,0.191,1.372,157.776,17.334,-22.034, , , , , , ,15.683,-3.719,-24.846
 09:41:01.672,eb:33:2e:f9:57:b5, 2015-01-01 00:29:36.735,0.169,0.193,1.383,165.71,15.259,-26.062, , , , , , ,16.501,-3.609,-24.939
 09:41:01.672,eb:33:2e:f9:57:b5, 2015-01-01 00:29:36.735,0.17,0.133,1.462,173.767,16.174,-27.832, , , , , , ,17.358,-3.494,-25.065
 09:41:01.672,eb:33:2e:f9:57:b5, 2015-01-01 00:29:36.735,0.169,0.092,1.551,182.495,21.179,-28.32, , , , , , ,18.259,-3.362,-25.17
 09:41:01.672,eb:33:2e:f9:57:b5, 2015-01-01 00:29:36.735,0.189,0.1,1.566,192.261,24.17,-28.809, , , , , , ,19.215,-3.203,-25.269
 09:41:01.716,eb:33:2e:f9:57:b5, 2015-01-01 00:29:36.735,0.19,0.107,1.542,202.393,25.94,-30.518, , , , , , ,20.209,-3.038,-25.367
 09:41:01.716,eb:33:2e:f9:57:b5, 2015-01-01 00:29:36.735,0.142,0.102,1.587,213.806,27.588,-32.532, , , , , , ,21.259,-2.856,-25.488
 09:41:01.716,eb:33:2e:f9:57:b5, 2015-01-01 00:29:36.735,0.149,0.061,1.609,225.586,30.884,-33.142, , , , , , ,22.368,-2.659,-25.587
 09:41:01.716,eb:33:2e:f9:57:b5, 2015-01-01 00:29:36.735,0.311,0.121,1.646,237.244,31.616,-34.302, , , , , , ,23.538,-2.444,-25.675
 09:41:01.716,eb:33:2e:f9:57:b5, 2015-01-01 00:29:36.735,0.277,0.2,1.592,247.864,25.94,-38.94, , , , , , ,24.758,-2.247,-25.79
 09:41:01.716,eb:33:2e:f9:57:b5, 2015-01-01 00:29:36.735,0.222,0.151,1.567,258.179,23.499,-42.847, , , , , , ,26.038,-2.049,-25.939
 09:41:01.716,eb:33:2e:f9:57:b5, 2015-01-01 00:29:36.735,0.259,0.083,1.897,267.761,30.701,-44.739, , , , , , ,27.356,-1.829,-26.076
 09:41:01.716,eb:33:2e:f9:57:b5, 2015-01-01 00:29:36.735,0.296,0.016,2.056,283.203,42.603,-44.434, , , , , , ,28.746,-1.555,-26.18
 09:41:01.762,eb:33:2e:f9:57:b5, 2015-01-01 00:29:36.735,0.343,0.088,2.015,299.194,46.509,-47.18, , , , , , ,30.212,-1.241,-26.268
 09:41:01.762,eb:33:2e:f9:57:b5, 2015-01-01 00:29:36.735,0.329,0.149,2.09,314.514,45.288,-52.368, , , , , , ,31.756,-0.917,-26.384
 09:41:01.762,eb:33:2e:f9:57:b5, 2015-01-01 00:29:36.735,0.381,0.08,2.324,331.177,51.27,-55.969, , , , , , ,33.382,-0.566,-26.483
 09:41:01.762,eb:33:2e:f9:57:b5, 2015-01-01 00:29:36.735,0.515,0.058,2.702,347.961,64.27,-56.213, , , , , , ,35.085,-0.159,-26.548
 09:41:01.762,eb:33:2e:f9:57:b5, 2015-01-01 00:29:36.735,0.594,0.026,2.707,370.605,71.35,-58.533, , , , , , ,36.892,0.28,-26.576
 09:41:01.762,eb:33:2e:f9:57:b5, 2015-01-01 00:29:36.735,0.751,0.194,2.701,387.512,69.275,-64.636, , , , , , ,38.798,0.753,-26.614
 09:41:01.762,eb:33:2e:f9:57:b5, 2015-01-01 00:29:36.735,0.737,0.14,2.898,403.381,71.228,-72.937, , , , , , ,40.781,1.241,-26.664
 09:41:01.762,eb:33:2e:f9:57:b5, 2015-01-01 00:29:36.735,0.72,-0.029,3.142,419.495,85.144,-77.698, , , , , , ,42.847,1.791,-26.68
 09:41:01.852,eb:33:2e:f9:57:b5, 2015-01-01 00:29:36.735,0.862,-0.061,3.202,439.209,89.478,-82.153, , , , , , ,45,2.39,-26.653
 09:41:01.852,eb:33:2e:f9:57:b5, 2015-01-01 00:29:36.735,0.769,0.044,2.975,461.548,84.412,-92.834, , , , , , ,47.263,3.01,-26.658
 09:41:01.852,eb:33:2e:f9:57:b5, 2015-01-01 00:29:36.735,0.663,0.093,3.203,474.243,75.684,-103.149, , , , , , ,49.609,3.642,-26.702
 09:41:01.852,eb:33:2e:f9:57:b5, 2015-01-01 00:29:36.735,0.585,-0.308,3.025,497.07,76.294,-108.643, , , , , , ,52.037,4.29,-26.73
 09:41:01.852,eb:33:2e:f9:57:b5, 2015-01-01 00:29:36.735,0.47,0.003,3.15,504.883,68.726,-124.39, , , , , , ,54.542,4.971,-26.807
 09:41:01.852,eb:33:2e:f9:57:b5, 2015-01-01 00:29:36.735,0.053,-0.422,3.363,520.996,86.243,-132.263, , , , , , ,57.107,5.735,-26.851
 09:41:01.852,eb:33:2e:f9:57:b5, 2015-01-01 00:29:36.735,0.265,-0.71,3.226,542.358,85.449,-128.479, , , , , , ,59.777,6.515,-26.823
 09:41:01.852,eb:33:2e:f9:57:b5, 2015-01-01 00:29:36.735,0.376,-0.681,3.385,563.232,88.318,-120.178, , , , , , ,62.551,7.262,-26.735
 09:41:01.897,eb:33:2e:f9:57:b5, 2015-01-01 00:29:37.050,0.658,-0.38,3.325,568.909,104.675,-111.938, , , , , , ,65.418,7.993,-26.554
 09:41:01.897,eb:33:2e:f9:57:b5, 2015-01-01 00:29:37.050,0.431,-0.379,3.174,559.326,143.921,-101.257, , , , , , ,68.297,8.729,-26.175
 09:41:01.897,eb:33:2e:f9:57:b5, 2015-01-01 00:29:37.050,0.022,-0.277,1.723,509.399,172.791,-83.374, , , , , , ,71.06,9.437,-25.571
 09:41:01.897,eb:33:2e:f9:57:b5, 2015-01-01 00:29:37.050,-0.053,-0.152,0.072,418.396,189.331,-57.312, , , , , , ,73.46,10.042,-24.785
 09:41:01.897,eb:33:2e:f9:57:b5, 2015-01-01 00:29:37.050,0.113,-0.95,0.019,327.026,199.341,-35.278, , , , , , ,75.432,10.519,-23.884
 09:41:01.897,eb:33:2e:f9:57:b5, 2015-01-01 00:29:37.050,0.38,-1.298,0.203,264.893,211.304,-8.85, , , , , , ,77.053,10.854,-22.896
 09:41:01.897,eb:33:2e:f9:57:b5, 2015-01-01 00:29:37.050,0.233,-1.535,0.045,216.187,185.242,14.343, , , , , , ,78.442,11.036,-21.879
 09:41:01.897,eb:33:2e:f9:57:b5, 2015-01-01 00:29:37.050,0.286,-2.732,-1.21,110.901,94.604,53.955, , , , , , ,79.338,11.003,-21.176
 09:41:01.899,eb:33:2e:f9:57:b5, 2015-01-01 00:29:37.050,-0.167,-0.104,-1.105,-56.885,94.788,72.693, , , , , , ,79.497,10.756,-20.665
 09:41:01.899,eb:33:2e:f9:57:b5, 2015-01-01 00:29:37.050,0.275,0.272,-0.371,-189.331,60.181,93.811, , , , , , ,78.871,10.399,-20.215
 09:41:01.899,eb:33:2e:f9:57:b5, 2015-01-01 00:29:37.050,0.761,-0.237,0.891,-258.057,55.115,98.938, , , , , , ,77.756,9.976,-19.841
 09:41:01.899,eb:33:2e:f9:57:b5, 2015-01-01 00:29:37.050,1.146,-0.958,1.551,-281.494,65.918,87.769, , , , , , ,76.432,9.591,-19.44
 09:41:01.899,eb:33:2e:f9:57:b5, 2015-01-01 00:29:37.050,1.102,-1.436,1.795,-275.696,96.558,70.251, , , , , , ,75.119,9.316,-18.935
 09:41:01.899,eb:33:2e:f9:57:b5, 2015-01-01 00:29:37.050,1.062,-1.352,1.442,-255.127,99.854,47.791, , , , , , ,73.889,9.174,-18.364
 09:41:01.899,eb:33:2e:f9:57:b5, 2015-01-01 00:29:37.050,1.001,-1.04,1.19,-230.652,80.994,23.499, , , , , , ,72.762,9.146,-17.886
 09:41:01.899,eb:33:2e:f9:57:b5, 2015-01-01 00:29:37.050,0.822,-0.768,0.963,-209.534,63.904,-0.916, , , , , , ,71.713,9.207,-17.54
 09:41:01.920,eb:33:2e:f9:57:b5, 2015-01-01 00:29:37.050,0.696,-0.67,0.626,-198.181,45.654,-21.851, , , , , , ,70.741,9.36,-17.309
 09:41:01.920,eb:33:2e:f9:57:b5, 2015-01-01 00:29:37.050,0.617,-0.697,0.328,-196.594,24.841,-38.574, , , , , , ,69.774,9.564,-17.21
 09:41:01.920,eb:33:2e:f9:57:b5, 2015-01-01 00:29:37.050,0.53,-0.747,0.132,-205.627,4.578,-51.208, , , , , , ,68.763,9.805,-17.238
 09:41:01.920,eb:33:2e:f9:57:b5, 2015-01-01 00:29:37.050,0.423,-0.781,0.049,-225.647,-10.986,-59.692, , , , , , ,67.637,10.058,-17.375
 09:41:01.920,eb:33:2e:f9:57:b5, 2015-01-01 00:29:37.050,0.308,-0.828,0.067,-253.784,-20.996,-63.477, , , , , , ,66.39,10.311,-17.584
 09:41:01.920,eb:33:2e:f9:57:b5, 2015-01-01 00:29:37.050,0.21,-0.883,0.135,-286.072,-26.489,-63.599, , , , , , ,64.979,10.547,-17.842
 09:41:01.920,eb:33:2e:f9:57:b5, 2015-01-01 00:29:37.050,0.146,-0.939,0.226,-319.458,-27.039,-60.059, , , , , , ,63.402,10.767,-18.1
 09:41:01.920,eb:33:2e:f9:57:b5, 2015-01-01 00:29:37.050,0.127,-1,0.38,-350.525,-22.766,-53.528, , , , , , ,61.639,10.959,-18.358
 09:41:01.941,eb:33:2e:f9:57:b5, 2015-01-01 00:29:37.050,0.124,-1.033,0.561,-375.793,-14.221,-45.471, , , , , , ,59.771,11.129,-18.556
 09:41:01.941,eb:33:2e:f9:57:b5, 2015-01-01 00:29:37.050,0.143,-1.005,0.692,-394.104,-5.005,-37.537, , , , , , ,57.805,11.277,-18.715
 09:41:01.941,eb:33:2e:f9:57:b5, 2015-01-01 00:29:37.050,0.182,-0.924,0.772,-406.067,2.625,-30.884, , , , , , ,55.778,11.415,-18.809
 09:41:01.941,eb:33:2e:f9:57:b5, 2015-01-01 00:29:37.050,0.219,-0.807,0.807,-413.086,7.629,-25.757, , , , , , ,53.69,11.541,-18.88
 09:41:01.941,eb:33:2e:f9:57:b5, 2015-01-01 00:29:37.050,0.244,-0.673,0.81,-416.26,7.996,-22.217, , , , , , ,51.603,11.662,-18.918
 09:41:01.941,eb:33:2e:f9:57:b5, 2015-01-01 00:29:37.050,0.246,-0.556,0.802,-416.626,3.601,-20.142, , , , , , ,49.51,11.761,-18.973
 09:41:01.941,eb:33:2e:f9:57:b5, 2015-01-01 00:29:37.050,0.243,-0.463,0.762,-415.649,-5.798,-18.127, , , , , , ,47.417,11.827,-19.045
 09:41:01.941,eb:33:2e:f9:57:b5, 2015-01-01 00:29:37.050,0.247,-0.408,0.752,-413.757,-17.517,-15.503, , , , , , ,45.297,11.838,-19.166
 09:41:01.988,eb:33:2e:f9:57:b5, 2015-01-01 00:29:37.050,0.251,-0.393,0.821,-409.668,-28.503,-11.78, , , , , , ,43.209,11.794,-19.303
 09:41:01.988,eb:33:2e:f9:57:b5, 2015-01-01 00:29:37.050,0.249,-0.39,0.938,-402.893,-37.903,-7.141, , , , , , ,41.149,11.7,-19.468
 09:41:01.988,eb:33:2e:f9:57:b5, 2015-01-01 00:29:37.050,0.241,-0.374,1.039,-395.02,-46.082,-1.587, , , , , , ,39.128,11.547,-19.627
 09:41:01.988,eb:33:2e:f9:57:b5, 2015-01-01 00:29:37.050,0.239,-0.351,1.101,-388.123,-53.65,4.761, , , , , , ,37.117,11.338,-19.792
 09:41:01.988,eb:33:2e:f9:57:b5, 2015-01-01 00:29:37.050,0.24,-0.319,1.125,-383.85,-60.791,11.719, , , , , , ,35.162,11.074,-19.929
 09:41:01.988,eb:33:2e:f9:57:b5, 2015-01-01 00:29:37.050,0.25,-0.292,1.129,-382.019,-68.909,19.165, , , , , , ,33.228,10.756,-20.061
 09:41:01.989,eb:33:2e:f9:57:b5, 2015-01-01 00:29:37.050,0.269,-0.258,1.137,-382.08,-78.186,26.123, , , , , , ,31.3,10.382,-20.165
 09:41:01.989,eb:33:2e:f9:57:b5, 2015-01-01 00:29:37.050,0.272,-0.209,1.163,-383.118,-88.684,32.654, , , , , , ,29.344,9.937,-20.264
 09:41:02.032,eb:33:2e:f9:57:b5, 2015-01-01 00:29:37.050,0.298,-0.147,1.197,-383.789,-100.22,38.757, , , , , , ,27.416,9.426,-20.33
 09:41:02.032,eb:33:2e:f9:57:b5, 2015-01-01 00:29:37.050,0.306,-0.103,1.308,-382.324,-110.046,45.166, , , , , , ,25.494,8.855,-20.396
 09:41:02.032,eb:33:2e:f9:57:b5, 2015-01-01 00:29:37.050,0.31,-0.05,1.475,-379.761,-113.647,49.866, , , , , , ,23.588,8.245,-20.413
 09:41:02.032,eb:33:2e:f9:57:b5, 2015-01-01 00:29:37.050,0.379,-0.021,1.516,-376.282,-121.155,54.932, , , , , , ,21.671,7.592,-20.407
 09:41:02.032,eb:33:2e:f9:57:b5, 2015-01-01 00:29:37.050,0.401,0.043,1.553,-372.803,-127.441,58.716, , , , , , ,19.808,6.905,-20.358
 09:41:02.032,eb:33:2e:f9:57:b5, 2015-01-01 00:29:37.050,0.41,0.067,1.617,-369.629,-133.301,61.34, , , , , , ,17.963,6.185,-20.303
 09:41:02.032,eb:33:2e:f9:57:b5, 2015-01-01 00:29:37.050,0.427,0.087,1.688,-366.211,-137.939,63.477, , , , , , ,16.133,5.444,-20.204
 09:41:02.032,eb:33:2e:f9:57:b5, 2015-01-01 00:29:37.050,0.44,0.104,1.759,-362.732,-141.785,64.819, , , , , , ,14.293,4.675,-20.083
 09:41:02.076,eb:33:2e:f9:57:b5, 2015-01-01 00:29:37.050,0.449,0.125,1.812,-359.131,-144.836,65.43, , , , , , ,12.502,3.9,-19.935
 09:41:02.076,eb:33:2e:f9:57:b5, 2015-01-01 00:29:37.050,0.461,0.151,1.856,-355.53,-147.705,64.88, , , , , , ,10.728,3.115,-19.781
 09:41:02.076,eb:33:2e:f9:57:b5, 2015-01-01 00:29:37.050,0.477,0.184,1.903,-351.257,-150.391,62.744, , , , , , ,8.97,2.324,-19.594
 09:41:02.076,eb:33:2e:f9:57:b5, 2015-01-01 00:29:37.050,0.49,0.219,1.957,-346.069,-152.71,59.509, , , , , , ,7.207,1.522,-19.407
 09:41:02.076,eb:33:2e:f9:57:b5, 2015-01-01 00:29:37.050,0.497,0.259,2.018,-339.478,-154.419,55.176, , , , , , ,5.504,0.725,-19.21
 09:41:02.076,eb:33:2e:f9:57:b5, 2015-01-01 00:29:37.050,0.502,0.309,2.091,-331.909,-154.968,49.866, , , , , , ,3.829,-0.06,-19.034
 09:41:02.076,eb:33:2e:f9:57:b5, 2015-01-01 00:29:37.050,0.495,0.361,2.173,-323.975,-154.175,44.189, , , , , , ,2.192,-0.846,-18.842
 09:41:02.076,eb:33:2e:f9:57:b5, 2015-01-01 00:29:37.050,0.48,0.413,2.238,-316.528,-152.344,38.086, , , , , , ,0.56,-1.626,-18.666
 09:41:02.123,eb:33:2e:f9:57:b5, 2015-01-01 00:29:37.050,0.462,0.459,2.29,-310.242,-150.024,32.227, , , , , , ,-1,-2.384,-18.49
 09:41:02.123,eb:33:2e:f9:57:b5, 2015-01-01 00:29:37.050,0.421,0.513,2.31,-306.091,-148.987,26.123, , , , , , ,-2.549,-3.126,-18.342
 09:41:02.123,eb:33:2e:f9:57:b5, 2015-01-01 00:29:37.050,0.38,0.586,2.261,-305.603,-151.367,19.836, , , , , , ,-4.087,-3.867,-18.188
 09:41:02.123,eb:33:2e:f9:57:b5, 2015-01-01 00:29:37.050,0.375,0.622,2.228,-308.472,-156.616,13.794, , , , , , ,-5.658,-4.636,-18.04
 09:41:02.123,eb:33:2e:f9:57:b5, 2015-01-01 00:29:37.050,0.395,0.699,2.25,-314.087,-161.743,6.592, , , , , , ,-7.229,-5.427,-17.902
 09:41:02.123,eb:33:2e:f9:57:b5, 2015-01-01 00:29:37.050,0.393,0.863,2.265,-323.242,-166.992,-0.793, , , , , , ,-8.839,-6.24,-17.798
 09:41:02.123,eb:33:2e:f9:57:b5, 2015-01-01 00:29:37.050,0.392,1.028,2.319,-333.069,-171.875,-9.338, , , , , , ,-10.497,-7.086,-17.688
 09:41:02.123,eb:33:2e:f9:57:b5, 2015-01-01 00:29:37.050,0.386,1.16,2.423,-341.003,-173.645,-19.226, , , , , , ,-12.222,-7.96,-17.589
 09:41:02.167,eb:33:2e:f9:57:b5, 2015-01-01 00:29:37.050,0.381,1.29,2.528,-346.375,-171.326,-29.602, , , , , , ,-13.958,-8.828,-17.518
 09:41:02.167,eb:33:2e:f9:57:b5, 2015-01-01 00:29:37.050,0.351,1.395,2.649,-347.839,-164.062,-39.978, , , , , , ,-15.699,-9.684,-17.496
 09:41:02.167,eb:33:2e:f9:57:b5, 2015-01-01 00:29:37.050,0.256,1.462,2.729,-344.116,-153.137,-50.476, , , , , , ,-17.435,-10.508,-17.496
 09:41:02.167,eb:33:2e:f9:57:b5, 2015-01-01 00:29:37.050,0.083,1.525,2.705,-335.754,-143.555,-60.547, , , , , , ,-19.144,-11.305,-17.529
 09:41:02.167,eb:33:2e:f9:57:b5, 2015-01-01 00:29:37.050,-0.135,1.629,2.597,-324.036,-139.771,-69.031, , , , , , ,-20.775,-12.079,-17.6
 09:41:02.167,eb:33:2e:f9:57:b5, 2015-01-01 00:29:37.050,-0.341,1.768,2.483,-309.875,-141.296,-75.012, , , , , , ,-22.335,-12.865,-17.704
 09:41:02.167,eb:33:2e:f9:57:b5, 2015-01-01 00:29:37.050,-0.541,1.934,2.445,-293.152,-143.066,-78.735, , , , , , ,-23.818,-13.672,-17.787
 09:41:02.167,eb:33:2e:f9:57:b5, 2015-01-01 00:29:37.050,-0.723,2.153,2.448,-273.804,-142.517,-80.078, , , , , , ,-25.225,-14.496,-17.847
 09:41:02.212,eb:33:2e:f9:57:b5, 2015-01-01 00:29:37.050,-0.852,2.403,2.477,-251.892,-136.902,-78.979, , , , , , ,-26.521,-15.298,-17.902
 09:41:02.212,eb:33:2e:f9:57:b5, 2015-01-01 00:29:37.050,-0.965,2.667,2.517,-227.722,-123.535,-77.332, , , , , , ,-27.691,-16.057,-17.979
 09:41:02.212,eb:33:2e:f9:57:b5, 2015-01-01 00:29:37.050,-1.101,2.934,2.466,-201.782,-104.614,-75.256, , , , , , ,-28.735,-16.732,-18.056
 09:41:02.212,eb:33:2e:f9:57:b5, 2015-01-01 00:29:37.050,-1.203,3.181,2.327,-173.706,-84.717,-73.669, , , , , , ,-29.636,-17.32,-18.155
 09:41:02.212,eb:33:2e:f9:57:b5, 2015-01-01 00:29:37.050,-1.292,3.389,2.209,-142.029,-65.063,-72.754, , , , , , ,-30.372,-17.82,-18.298
 09:41:02.212,eb:33:2e:f9:57:b5, 2015-01-01 00:29:37.050,-1.386,3.548,2.098,-106.689,-47.485,-72.327, , , , , , ,-30.921,-18.237,-18.501
 09:41:02.212,eb:33:2e:f9:57:b5, 2015-01-01 00:29:37.050,-1.434,3.625,1.963,-62.5,-29.541,-71.411, , , , , , ,-31.256,-18.583,-18.726
 09:41:02.212,eb:33:2e:f9:57:b5, 2015-01-01 00:29:37.050,-1.442,3.548,1.901,-27.222,-14.282,-69.092, , , , , , ,-31.377,-18.858,-18.99
 09:41:02.235,eb:33:2e:f9:57:b5, 2015-01-01 00:29:37.450,-1.418,3.348,1.915,5.554,3.967,-64.575, , , , , , ,-31.322,-19.045,-19.281
 09:41:02.235,eb:33:2e:f9:57:b5, 2015-01-01 00:29:37.450,-1.356,3.062,1.935,35.339,24.902,-57.129, , , , , , ,-31.097,-19.133,-19.622
 09:41:02.235,eb:33:2e:f9:57:b5, 2015-01-01 00:29:37.450,-1.251,2.741,1.932,61.218,46.448,-47.546, , , , , , ,-30.734,-19.105,-19.957
 09:41:02.235,eb:33:2e:f9:57:b5, 2015-01-01 00:29:37.450,-1.118,2.422,1.875,82.825,65.247,-37.109, , , , , , ,-30.245,-18.957,-20.308
 09:41:02.235,eb:33:2e:f9:57:b5, 2015-01-01 00:29:37.450,-0.967,2.125,1.768,101.074,78.064,-27.161, , , , , , ,-29.663,-18.721,-20.649
 09:41:02.235,eb:33:2e:f9:57:b5, 2015-01-01 00:29:37.450,-0.821,1.849,1.65,116.76,84.045,-18.372, , , , , , ,-29.009,-18.413,-20.984
 09:41:02.235,eb:33:2e:f9:57:b5, 2015-01-01 00:29:37.450,0.824,1.589,1.539,134.155,74.646,-13.367, , , , , , ,-28.295,-18.083,-21.259
 09:41:02.235,eb:33:2e:f9:57:b5, 2015-01-01 00:29:37.450,-0.122,-2.675,9.169,290.039,221.741,-57.922, , , , , , ,-26.966,-17.93,-21.627
 09:41:02.279,eb:33:2e:f9:57:b5, 2015-01-01 00:29:37.450,1.484,-1.096,-0.124,300.415,185.913,-38.208, , , , , , ,-25.241,-16.721,-22.407
 09:41:02.279,eb:33:2e:f9:57:b5, 2015-01-01 00:29:37.450,1.078,-1.353,0.11,300.781,106.995,-57.678, , , , , , ,-23.577,-16.326,-22.945
 09:41:02.279,eb:33:2e:f9:57:b5, 2015-01-01 00:29:37.450,0.547,-0.494,1.47,272.034,116.882,-63.904, , , , , , ,-22.017,-15.914,-23.494
 09:41:02.279,eb:33:2e:f9:57:b5, 2015-01-01 00:29:37.450,-0.239,-2.405,1.497,318.787,140.686,-14.343, , , , , , ,-20.44,-15.414,-23.945
 09:41:02.279,eb:33:2e:f9:57:b5, 2015-01-01 00:29:37.450,-0.871,-1.487,1.478,372.437,203.064,13.489, , , , , , ,-18.6,-14.568,-24.225
 09:41:02.279,eb:33:2e:f9:57:b5, 2015-01-01 00:29:37.450,-1.039,-1.12,1.28,402.1,231.689,30.518, , , , , , ,-16.584,-13.48,-24.467
 09:41:02.280,eb:33:2e:f9:57:b5, 2015-01-01 00:29:37.450,-0.965,-0.221,1.527,396.973,229.614,50.293, , , , , , ,-14.557,-12.31,-24.576
 09:41:02.280,eb:33:2e:f9:57:b5, 2015-01-01 00:29:37.450,-0.848,0.587,1.374,361.511,207.886,57.556, , , , , , ,-12.662,-11.195,-24.56
 09:41:02.324,eb:33:2e:f9:57:b5, 2015-01-01 00:29:37.450,-0.55,1.1,1.305,310.791,182.739,49.683, , , , , , ,-11.025,-10.19,-24.494
 09:41:02.324,eb:33:2e:f9:57:b5, 2015-01-01 00:29:37.450,-0.471,1.069,1.311,261.23,156.982,28.076, , , , , , ,-9.613,-9.338,-24.483
 09:41:02.324,eb:33:2e:f9:57:b5, 2015-01-01 00:29:37.450,-0.294,1.02,1.228,213.135,135.01,4.333, , , , , , ,-8.448,-8.619,-24.527
 09:41:02.324,eb:33:2e:f9:57:b5, 2015-01-01 00:29:37.450,-0.108,0.666,1.229,177.429,117.371,-13.611, , , , , , ,-7.471,-8.004,-24.653
 09:41:02.324,eb:33:2e:f9:57:b5, 2015-01-01 00:29:37.450,0.049,0.338,1.22,154.236,103.271,-25.818, , , , , , ,-6.63,-7.482,-24.829
 09:41:02.324,eb:33:2e:f9:57:b5, 2015-01-01 00:29:37.450,0.081,0.072,1.119,141.663,93.628,-30.151, , , , , , ,-5.878,-7.009,-25.049
 09:41:02.324,eb:33:2e:f9:57:b5, 2015-01-01 00:29:37.450,0.18,-0.047,1.074,132.935,94.238,-24.475, , , , , , ,-5.175,-6.564,-25.23
 09:41:02.324,eb:33:2e:f9:57:b5, 2015-01-01 00:29:37.450,0.303,0.002,0.995,122.742,98.755,-14.954, , , , , , ,-4.515,-6.086,-25.373
 09:41:02.369,eb:33:2e:f9:57:b5, 2015-01-01 00:29:37.450,0.279,0.035,0.998,114.319,107.239,-6.042, , , , , , ,-3.917,-5.576,-25.455
 09:41:02.369,eb:33:2e:f9:57:b5, 2015-01-01 00:29:37.450,0.133,0.183,0.984,104.309,117.371,-1.587, , , , , , ,-3.367,-5.01,-25.527
 09:41:02.369,eb:33:2e:f9:57:b5, 2015-01-01 00:29:37.450,0.097,0.417,0.971,84.961,122.375,-0.061, , , , , , ,-2.9,-4.4,-25.565
 09:41:02.369,eb:33:2e:f9:57:b5, 2015-01-01 00:29:37.450,0.164,0.38,0.956,68.665,117.493,1.709, , , , , , ,-2.516,-3.801,-25.587
 09:41:02.369,eb:33:2e:f9:57:b5, 2015-01-01 00:29:37.450,0.082,0.301,1.038,58.716,117.859,-0.122, , , , , , ,-2.203,-3.214,-25.609
 09:41:02.369,eb:33:2e:f9:57:b5, 2015-01-01 00:29:37.450,-0.011,0.223,1.007,48.096,110.901,2.625, , , , , , ,-1.939,-2.642,-25.642
 09:41:02.369,eb:33:2e:f9:57:b5, 2015-01-01 00:29:37.450,-0.176,0.134,0.923,40.527,98.145,5.31, , , , , , ,-1.725,-2.12,-25.642
 09:41:02.369,eb:33:2e:f9:57:b5, 2015-01-01 00:29:37.450,-0.259,0.108,0.85,31.128,80.2,9.46, , , , , , ,-1.544,-1.675,-25.62
 09:41:02.392,eb:33:2e:f9:57:b5, 2015-01-01 00:29:37.450,-0.244,0.125,0.879,21.79,60.486,10.986, , , , , , ,-1.417,-1.329,-25.571
 09:41:02.392,eb:33:2e:f9:57:b5, 2015-01-01 00:29:37.450,-0.193,0.084,0.882,18.066,44.678,7.568, , , , , , ,-1.324,-1.077,-25.554
 09:41:02.392,eb:33:2e:f9:57:b5, 2015-01-01 00:29:37.450,-0.079,0.041,0.88,16.357,29.968,4.883, , , , , , ,-1.236,-0.895,-25.527
 09:41:02.392,eb:33:2e:f9:57:b5, 2015-01-01 00:29:37.450,0.023,0.053,0.942,14.587,23.071,3.601, , , , , , ,-1.154,-0.769,-25.516
 09:41:02.393,eb:33:2e:f9:57:b5, 2015-01-01 00:29:37.450,0.055,0.076,1.009,11.841,23.438,3.479, , , , , , ,-1.088,-0.654,-25.499
 09:41:02.393,eb:33:2e:f9:57:b5, 2015-01-01 00:29:37.450,-0.015,0.083,1.033,9.094,24.841,2.686, , , , , , ,-1.038,-0.533,-25.505
 09:41:02.393,eb:33:2e:f9:57:b5, 2015-01-01 00:29:37.450,-0.077,0.06,1.007,7.507,23.865,1.16, , , , , , ,-0.994,-0.406,-25.494
 09:41:02.393,eb:33:2e:f9:57:b5, 2015-01-01 00:29:37.450,-0.079,0.024,0.982,7.324,19.531,-0.122, , , , , , ,-0.95,-0.297,-25.499
 09:41:02.458,eb:33:2e:f9:57:b5, 2015-01-01 00:29:37.450,-0.072,0,0.987,8.057,15.808,-1.221, , , , , , ,-0.912,-0.209,-25.505
 09:41:02.458,eb:33:2e:f9:57:b5, 2015-01-01 00:29:37.450,-0.07,-0.003,0.989,8.606,12.573,-2.075, , , , , , ,-0.868,-0.143,-25.532
 09:41:02.458,eb:33:2e:f9:57:b5, 2015-01-01 00:29:37.450,-0.074,-0.005,0.987,9.033,9.827,-2.93, , , , , , ,-0.824,-0.088,-25.549
 09:41:02.458,eb:33:2e:f9:57:b5, 2015-01-01 00:29:37.450,-0.06,0,0.984,9.46,6.592,-3.54, , , , , , ,-0.769,-0.044,-25.571
 09:41:02.458,eb:33:2e:f9:57:b5, 2015-01-01 00:29:37.450,-0.044,-0.007,0.993,10.254,4.272,-4.15, , , , , , ,-0.72,-0.022,-25.587
 09:41:02.458,eb:33:2e:f9:57:b5, 2015-01-01 00:29:37.450,-0.003,-0.019,1.009,11.23,2.869,-3.967, , , , , , ,-0.665,-0.005,-25.631
 09:41:02.458,eb:33:2e:f9:57:b5, 2015-01-01 00:29:37.450,0.003,-0.009,1.03,11.963,3.418,-3.784, , , , , , ,-0.61,0.005,-25.648
 09:41:02.458,eb:33:2e:f9:57:b5, 2015-01-01 00:29:37.450,0.029,0,1.029,12.268,4.578,-3.235, , , , , , ,-0.538,0.027,-25.67
 09:41:02.529,eb:33:2e:f9:57:b5, 2015-01-01 00:29:37.450,0.037,0.004,1.047,13,6.348,-3.418, , , , , , ,-0.478,0.055,-25.686
 09:41:02.529,eb:33:2e:f9:57:b5, 2015-01-01 00:29:37.450,0.019,0.005,1.037,13.855,9.094,-3.784, , , , , , ,-0.406,0.099,-25.724
 09:41:02.529,eb:33:2e:f9:57:b5, 2015-01-01 00:29:37.450,0.001,0.008,1.008,14.343,10.681,-3.845, , , , , , ,-0.335,0.148,-25.741
 09:41:02.530,eb:33:2e:f9:57:b5, 2015-01-01 00:29:37.450,0.022,0.018,0.995,14.465,10.925,-3.601, , , , , , ,-0.253,0.203,-25.763
 09:41:02.530,eb:33:2e:f9:57:b5, 2015-01-01 00:29:37.450,0.017,0.025,1.008,14.587,12.146,-3.845, , , , , , ,-0.181,0.264,-25.785
 09:41:02.530,eb:33:2e:f9:57:b5, 2015-01-01 00:29:37.450,0.036,0.023,1.01,14.587,13.245,-3.662, , , , , , ,-0.11,0.324,-25.823
 09:41:02.530,eb:33:2e:f9:57:b5, 2015-01-01 00:29:37.450,0.054,0.027,1.016,14.771,15.381,-3.723, , , , , , ,-0.038,0.396,-25.84
 09:41:02.530,eb:33:2e:f9:57:b5, 2015-01-01 00:29:37.450,0.034,0.03,1.035,15.137,18.25,-4.15, , , , , , ,0.044,0.489,-25.862
 09:41:02.530,eb:33:2e:f9:57:b5, 2015-01-01 00:29:37.450,0.017,0.029,1.01,14.832,21.057,-3.662, , , , , , ,0.115,0.588,-25.884
 09:41:02.530,eb:33:2e:f9:57:b5, 2015-01-01 00:29:37.450,0.021,0.028,1.003,14.526,22.461,-2.869, , , , , , ,0.192,0.698,-25.917
 09:41:02.530,eb:33:2e:f9:57:b5, 2015-01-01 00:29:37.450,0,0.029,1.009,14.648,24.658,-2.747, , , , , , ,0.264,0.813,-25.933
 09:41:02.530,eb:33:2e:f9:57:b5, 2015-01-01 00:29:37.450,-0.007,0.026,1,14.893,25.391,-2.502, , , , , , ,0.346,0.945,-25.944
 09:41:02.530,eb:33:2e:f9:57:b5, 2015-01-01 00:29:37.450,-0.005,0.02,1.007,15.564,25.33,-2.38, , , , , , ,0.423,1.071,-25.955
 09:41:02.530,eb:33:2e:f9:57:b5, 2015-01-01 00:29:37.450,-0.019,0.021,1.024,16.479,25.269,-2.686, , , , , , ,0.5,1.198,-25.988
 09:41:02.530,eb:33:2e:f9:57:b5, 2015-01-01 00:29:37.450,-0.028,0.027,1.008,17.395,24.963,-2.869, , , , , , ,0.588,1.324,-25.999
 09:41:02.530,eb:33:2e:f9:57:b5, 2015-01-01 00:29:37.450,-0.035,0.025,1,18.25,23.987,-2.808, , , , , , ,0.687,1.45,-26.016
 09:41:02.550,eb:33:2e:f9:57:b5, 2015-01-01 00:29:37.450,-0.015,0.021,1.009,19.165,23.071,-2.686, , , , , , ,0.78,1.566,-26.027
 09:41:02.550,eb:33:2e:f9:57:b5, 2015-01-01 00:29:37.450,-0.006,0.04,1.007,19.47,23.132,-2.869, , , , , , ,0.873,1.681,-26.06
 09:41:02.550,eb:33:2e:f9:57:b5, 2015-01-01 00:29:37.450,0.006,0.042,1.023,20.142,23.621,-2.991, , , , , , ,0.972,1.796,-26.071
 09:41:02.550,eb:33:2e:f9:57:b5, 2015-01-01 00:29:37.450,-0.007,0.037,1.031,21.24,24.17,-2.93, , , , , , ,1.088,1.923,-26.087
 09:41:02.550,eb:33:2e:f9:57:b5, 2015-01-01 00:29:37.450,-0.028,0.04,1.021,21.973,25.391,-2.869, , , , , , ,1.192,2.043,-26.104
 09:41:02.550,eb:33:2e:f9:57:b5, 2015-01-01 00:29:37.450,-0.03,0.045,0.994,22.583,25.452,-2.93, , , , , , ,1.307,2.175,-26.131
 09:41:02.550,eb:33:2e:f9:57:b5, 2015-01-01 00:29:37.450,-0.027,0.062,1.014,22.888,26.123,-4.333, , , , , , ,1.417,2.302,-26.147
 09:41:02.550,eb:33:2e:f9:57:b5, 2015-01-01 00:29:37.450,-0.052,0.069,1.008,23.193,26.428,-5.737, , , , , , ,1.544,2.439,-26.175
 09:41:02.640,eb:33:2e:f9:57:b5, 2015-01-01 00:29:37.450,-0.029,0.058,1.005,23.682,25.757,-6.348, , , , , , ,1.659,2.571,-26.197
 09:41:02.640,eb:33:2e:f9:57:b5, 2015-01-01 00:29:37.450,-0.015,0.055,1.085,24.292,27.039,-8.057, , , , , , ,1.774,2.703,-26.252
 09:41:02.640,eb:33:2e:f9:57:b5, 2015-01-01 00:29:37.450,-0.029,0.042,1.065,26.001,28.809,-9.399, , , , , , ,1.901,2.845,-26.29
 09:41:02.640,eb:33:2e:f9:57:b5, 2015-01-01 00:29:37.450,-0.031,0.035,1.053,27.71,29.846,-10.254, , , , , , ,2.043,2.999,-26.34
 09:41:02.640,eb:33:2e:f9:57:b5, 2015-01-01 00:29:37.450,-0.042,0.041,1.048,29.297,31.189,-11.169, , , , , , ,2.181,3.153,-26.384
 09:41:02.640,eb:33:2e:f9:57:b5, 2015-01-01 00:29:37.450,-0.056,0.041,1.037,30.762,32.166,-11.902, , , , , , ,2.329,3.312,-26.455
 09:41:02.640,eb:33:2e:f9:57:b5, 2015-01-01 00:29:37.450,-0.066,0.04,1.024,32.166,32.471,-12.329, , , , , , ,2.483,3.477,-26.51
 09:41:02.640,eb:33:2e:f9:57:b5, 2015-01-01 00:29:37.450,-0.062,0.042,1.018,33.63,32.043,-12.634, , , , , , ,2.653,3.642,-26.57
 09:41:02.640,eb:33:2e:f9:57:b5, 2015-01-01 00:29:37.450,-0.042,0.041,1.027,35.339,31.616,-13.123, , , , , , ,2.823,3.807,-26.625
 09:41:02.640,eb:33:2e:f9:57:b5, 2015-01-01 00:29:37.450,-0.022,0.053,1.025,37.231,31.25,-13.977, , , , , , ,3.005,3.966,-26.702
 09:41:02.640,eb:33:2e:f9:57:b5, 2015-01-01 00:29:37.450,-0.017,0.071,1.037,38.757,31.189,-15.198, , , , , , ,3.186,4.125,-26.768
 09:41:02.640,eb:33:2e:f9:57:b5, 2015-01-01 00:29:37.450,-0.032,0.083,1.034,40.222,30.396,-15.381, , , , , , ,3.389,4.285,-26.84
 09:41:02.640,eb:33:2e:f9:57:b5, 2015-01-01 00:29:37.450,-0.056,0.085,1.048,42.969,26.245,-15.015, , , , , , ,3.593,4.427,-26.906
 09:41:02.641,eb:33:2e:f9:57:b5, 2015-01-01 00:29:37.450,-0.216,0.084,1.084,46.143,23.376,-13.428, , , , , , ,3.812,4.554,-26.988
 09:41:02.641,eb:33:2e:f9:57:b5, 2015-01-01 00:29:37.450,-0.207,-0.051,1.355,53.589,20.325,-8.423, , , , , , ,4.059,4.669,-27.037
 09:41:02.641,eb:33:2e:f9:57:b5, 2015-01-01 00:29:37.450,-0.179,-0.064,1.359,61.096,19.592,-3.601, , , , , , ,4.362,4.774,-27.059
 09:41:02.709,eb:33:2e:f9:57:b5, 2015-01-01 00:29:37.850,-0.159,0.029,1.184,65.552,16.113,-1.831, , , , , , ,4.675,4.861,-27.059
 09:41:02.709,eb:33:2e:f9:57:b5, 2015-01-01 00:29:37.850,-0.208,0.063,1.145,69.031,11.108,-1.587, , , , , , ,5.015,4.927,-27.081
 09:41:02.709,eb:33:2e:f9:57:b5, 2015-01-01 00:29:37.850,-0.268,0.03,1.195,72.754,8.545,-0.366, , , , , , ,5.372,4.971,-27.081
 09:41:02.709,eb:33:2e:f9:57:b5, 2015-01-01 00:29:37.850,-0.328,-0.006,1.208,77.515,5.066,2.319, , , , , , ,5.757,5.01,-27.076
 09:41:02.709,eb:33:2e:f9:57:b5, 2015-01-01 00:29:37.850,-0.365,-0.025,1.23,81.604,2.136,5.493, , , , , , ,6.158,5.021,-27.054
 09:41:02.709,eb:33:2e:f9:57:b5, 2015-01-01 00:29:37.850,-0.332,-0.044,1.234,85.999,-1.221,9.338, , , , , , ,6.586,5.021,-27.032
 09:41:02.709,eb:33:2e:f9:57:b5, 2015-01-01 00:29:37.850,-0.266,-0.032,1.238,90.637,-5.432,12.634, , , , , , ,7.031,4.993,-26.977
 09:41:02.709,eb:33:2e:f9:57:b5, 2015-01-01 00:29:37.850,-0.225,-0.012,1.249,96.558,-10.681,14.954, , , , , , ,7.515,4.944,-26.911
 09:41:02.709,eb:33:2e:f9:57:b5, 2015-01-01 00:29:37.850,-0.209,0.007,1.277,102.966,-16.418,16.418, , , , , , ,8.026,4.867,-26.84
 09:41:02.709,eb:33:2e:f9:57:b5, 2015-01-01 00:29:37.850,-0.139,0.013,1.299,109.802,-22.278,17.7, , , , , , ,8.564,4.752,-26.79
 09:41:02.709,eb:33:2e:f9:57:b5, 2015-01-01 00:29:37.850,-0.1,0.028,1.379,117.92,-25.818,18.005, , , , , , ,9.146,4.614,-26.719
 09:41:02.709,eb:33:2e:f9:57:b5, 2015-01-01 00:29:37.850,-0.079,0.034,1.397,128.967,-30.396,17.09, , , , , , ,9.778,4.466,-26.653
 09:41:02.709,eb:33:2e:f9:57:b5, 2015-01-01 00:29:37.850,-0.024,0.025,1.416,138.184,-32.654,16.724, , , , , , ,10.453,4.296,-26.598
 09:41:02.710,eb:33:2e:f9:57:b5, 2015-01-01 00:29:37.850,0.008,0.022,1.507,147.583,-31.555,15.259, , , , , , ,11.179,4.12,-26.57
 09:41:02.710,eb:33:2e:f9:57:b5, 2015-01-01 00:29:37.850,0.02,0.031,1.554,157.41,-28.87,13.611, , , , , , ,11.948,3.955,-26.532
 09:41:02.710,eb:33:2e:f9:57:b5, 2015-01-01 00:29:37.850,0.092,0.028,1.548,167.603,-26.672,11.78, , , , , , ,12.772,3.812,-26.499
 09:41:02.775,eb:33:2e:f9:57:b5, 2015-01-01 00:29:37.850,0.158,0.075,1.564,177.979,-23.132,8.972, , , , , , ,13.645,3.68,-26.477
 09:41:02.775,eb:33:2e:f9:57:b5, 2015-01-01 00:29:37.850,0.232,0.109,1.604,187.073,-19.714,4.517, , , , , , ,14.562,3.571,-26.488
 09:41:02.775,eb:33:2e:f9:57:b5, 2015-01-01 00:29:37.850,0.237,0.099,1.646,197.144,-13.306,0.061, , , , , , ,15.524,3.488,-26.499
 09:41:02.775,eb:33:2e:f9:57:b5, 2015-01-01 00:29:37.850,0.263,0.11,1.623,206.726,-7.812,-4.639, , , , , , ,16.545,3.45,-26.526
 09:41:02.775,eb:33:2e:f9:57:b5, 2015-01-01 00:29:37.850,0.257,0.107,1.64,216.125,0.61,-9.46, , , , , , ,17.606,3.444,-26.57
 09:41:02.775,eb:33:2e:f9:57:b5, 2015-01-01 00:29:37.850,0.213,0.105,1.679,223.633,11.353,-13.306, , , , , , ,18.704,3.499,-26.631
 09:41:02.775,eb:33:2e:f9:57:b5, 2015-01-01 00:29:37.850,0.213,0.08,1.696,232.056,20.325,-16.968, , , , , , ,19.847,3.598,-26.675
 09:41:02.775,eb:33:2e:f9:57:b5, 2015-01-01 00:29:37.850,0.232,0.083,1.787,239.868,30.151,-20.386, , , , , , ,21.028,3.757,-26.719
 09:41:02.796,eb:33:2e:f9:57:b5, 2015-01-01 00:29:37.850,0.288,0.04,1.765,252.075,38.818,-23.804, , , , , , ,22.264,3.966,-26.757
 09:41:02.796,eb:33:2e:f9:57:b5, 2015-01-01 00:29:37.850,0.341,0.077,1.722,264.16,44.983,-28.564, , , , , , ,23.555,4.213,-26.812
 09:41:02.796,eb:33:2e:f9:57:b5, 2015-01-01 00:29:37.850,0.331,0.1,1.71,276.611,48.95,-34.119, , , , , , ,24.911,4.493,-26.862
 09:41:02.796,eb:33:2e:f9:57:b5, 2015-01-01 00:29:37.850,0.282,0.099,1.716,291.077,50.049,-40.039, , , , , , ,26.334,4.801,-26.917
 09:41:02.796,eb:33:2e:f9:57:b5, 2015-01-01 00:29:37.850,0.212,0.102,1.755,307.068,42.969,-46.936, , , , , , ,27.828,5.109,-27.01
 09:41:02.796,eb:33:2e:f9:57:b5, 2015-01-01 00:29:37.850,0.134,0.133,1.818,324.768,32.715,-53.406, , , , , , ,29.405,5.394,-27.158
 09:41:02.796,eb:33:2e:f9:57:b5, 2015-01-01 00:29:37.850,0.121,0.174,2.054,341.064,19.409,-59.265, , , , , , ,31.058,5.641,-27.345
 09:41:02.796,eb:33:2e:f9:57:b5, 2015-01-01 00:29:37.850,0.273,0.125,2.429,358.887,8.24,-63.416, , , , , , ,32.8,5.867,-27.57
 09:41:02.842,eb:33:2e:f9:57:b5, 2015-01-01 00:29:37.850,0.292,0.02,2.646,379.822,2.808,-67.81, , , , , , ,34.629,6.064,-27.834
 09:41:02.842,eb:33:2e:f9:57:b5, 2015-01-01 00:29:37.850,0.399,-0.007,2.821,400.391,-2.441,-72.937, , , , , , ,36.557,6.268,-28.141
 09:41:02.842,eb:33:2e:f9:57:b5, 2015-01-01 00:29:37.850,0.357,-0.071,2.959,420.654,0.916,-78.186, , , , , , ,38.589,6.498,-28.449
 09:41:02.842,eb:33:2e:f9:57:b5, 2015-01-01 00:29:37.850,0.302,-0.018,3.186,433.044,7.324,-84.045, , , , , , ,40.693,6.773,-28.746
 09:41:02.842,eb:33:2e:f9:57:b5, 2015-01-01 00:29:37.850,0.3,-0.062,3.568,437.622,27.527,-87.769, , , , , , ,42.841,7.13,-29.009
 09:41:02.842,eb:33:2e:f9:57:b5, 2015-01-01 00:29:37.850,0.404,-0.342,3.8,447.998,59.082,-86.548, , , , , , ,45.038,7.603,-29.174
 09:41:02.842,eb:33:2e:f9:57:b5, 2015-01-01 00:29:37.850,0.452,-0.419,3.762,465.21,82.275,-89.844, , , , , , ,47.318,8.168,-29.218
 09:41:02.842,eb:33:2e:f9:57:b5, 2015-01-01 00:29:37.850,0.327,-0.528,3.81,487.183,113.77,-91.125, , , , , , ,49.719,8.844,-29.136
 09:41:02.888,eb:33:2e:f9:57:b5, 2015-01-01 00:29:37.850,0.446,-0.516,3.531,500.366,127.869,-91.492, , , , , , ,52.234,9.591,-28.927
 09:41:02.888,eb:33:2e:f9:57:b5, 2015-01-01 00:29:37.850,0.653,-0.268,3.327,511.536,127.441,-102.722, , , , , , ,54.805,10.366,-28.713
 09:41:02.888,eb:33:2e:f9:57:b5, 2015-01-01 00:29:37.850,0.656,-0.167,3.609,529.968,141.052,-119.202, , , , , , ,57.464,11.206,-28.466
 09:41:02.888,eb:33:2e:f9:57:b5, 2015-01-01 00:29:37.850,0.487,-0.707,4,536.011,185.791,-117.798, , , , , , ,60.211,12.145,-28.048
 09:41:02.888,eb:33:2e:f9:57:b5, 2015-01-01 00:29:37.850,0.524,-0.867,3.99,515.869,238.159,-107.727, , , , , , ,62.99,13.167,-27.35
 09:41:02.888,eb:33:2e:f9:57:b5, 2015-01-01 00:29:37.850,0.516,-1.127,2.985,468.201,317.505,-72.632, , , , , , ,65.704,14.172,-26.23
 09:41:02.888,eb:33:2e:f9:57:b5, 2015-01-01 00:29:37.850,0.601,-1.008,1.522,426.025,334.045,-47.302, , , , , , ,68.291,15.09,-24.763
 09:41:02.888,eb:33:2e:f9:57:b5, 2015-01-01 00:29:37.850,0.735,-1.488,-0.148,344.849,315.674,-28.87, , , , , , ,70.582,15.826,-23.253
 09:41:02.910,eb:33:2e:f9:57:b5, 2015-01-01 00:29:37.850,1.117,-1.614,-1.191,266.113,261.047,-6.714, , , , , , ,72.438,16.348,-21.863
 09:41:02.910,eb:33:2e:f9:57:b5, 2015-01-01 00:29:37.850,0.978,-1.655,-1.111,219.727,182.251,-1.282, , , , , , ,73.922,16.661,-20.814
 09:41:02.910,eb:33:2e:f9:57:b5, 2015-01-01 00:29:37.850,0.696,-0.426,-1.788,156.921,71.777,-32.837, , , , , , ,75.042,16.93,-20.226
 09:41:02.910,eb:33:2e:f9:57:b5, 2015-01-01 00:29:37.850,0.595,1.234,-1.239,6.653,2.258,-45.044, , , , , , ,75.383,17.155,-20.16
 09:41:02.910,eb:33:2e:f9:57:b5, 2015-01-01 00:29:37.850,0.81,0.575,0.007,-104.248,-37.476,-45.227, , , , , , ,75.004,17.353,-20.341
 09:41:02.910,eb:33:2e:f9:57:b5, 2015-01-01 00:29:37.850,0.627,-0.926,1.297,-147.766,-24.719,-36.499, , , , , , ,74.268,17.496,-20.577
 09:41:02.911,eb:33:2e:f9:57:b5, 2015-01-01 00:29:37.850,0.617,-1.568,1.406,-168.701,0,-32.349, , , , , , ,73.433,17.65,-20.671
 09:41:02.911,eb:33:2e:f9:57:b5, 2015-01-01 00:29:37.850,0.659,-1.636,1.479,-185.059,25.024,-26.733, , , , , , ,72.526,17.803,-20.649
 09:41:02.954,eb:33:2e:f9:57:b5, 2015-01-01 00:29:37.850,0.615,-1.394,1.507,-189.941,52.734,-22.644, , , , , , ,71.636,17.985,-20.473
 09:41:02.954,eb:33:2e:f9:57:b5, 2015-01-01 00:29:37.850,0.611,-1.146,1.372,-183.228,67.444,-20.386, , , , , , ,70.785,18.188,-20.209
 09:41:02.955,eb:33:2e:f9:57:b5, 2015-01-01 00:29:37.850,0.605,-1.013,1.122,-171.692,70.557,-19.531, , , , , , ,69.999,18.397,-19.896
 09:41:02.955,eb:33:2e:f9:57:b5, 2015-01-01 00:29:37.850,0.584,-0.976,0.696,-163.147,62.561,-18.86, , , , , , ,69.247,18.6,-19.611
 09:41:02.955,eb:33:2e:f9:57:b5, 2015-01-01 00:29:37.850,0.578,-0.99,0.249,-160.706,42.542,-17.456, , , , , , ,68.511,18.776,-19.391
 09:41:02.955,eb:33:2e:f9:57:b5, 2015-01-01 00:29:37.850,0.536,-0.989,-0.051,-164.856,16.602,-15.442, , , , , , ,67.725,18.902,-19.297
 09:41:02.955,eb:33:2e:f9:57:b5, 2015-01-01 00:29:37.850,0.475,-0.952,-0.218,-175.354,-12.634,-12.329, , , , , , ,66.863,18.962,-19.33
 09:41:02.955,eb:33:2e:f9:57:b5, 2015-01-01 00:29:37.850,0.412,-0.913,-0.27,-191.833,-41.931,-8.423, , , , , , ,65.863,18.946,-19.512
 09:41:03.023,eb:33:2e:f9:57:b5, 2015-01-01 00:29:38.210,0.36,-0.915,-0.227,-213.623,-66.589,-2.747, , , , , , ,64.748,18.847,-19.803
 09:41:03.023,eb:33:2e:f9:57:b5, 2015-01-01 00:29:38.210,0.316,-0.967,-0.086,-238.464,-82.581,4.761, , , , , , ,63.484,18.671,-20.171
 09:41:03.023,eb:33:2e:f9:57:b5, 2015-01-01 00:29:38.210,0.292,-1.026,0.108,-263.55,-89.294,13.916, , , , , , ,62.095,18.43,-20.555
 09:41:03.023,eb:33:2e:f9:57:b5, 2015-01-01 00:29:38.210,0.28,-1.044,0.299,-286.682,-88.806,23.621, , , , , , ,60.573,18.122,-20.934
 09:41:03.023,eb:33:2e:f9:57:b5, 2015-01-01 00:29:38.210,0.281,-1.009,0.413,-307.861,-85.51,32.715, , , , , , ,58.975,17.776,-21.253
 09:41:03.023,eb:33:2e:f9:57:b5, 2015-01-01 00:29:38.210,0.308,-0.955,0.478,-327.026,-83.008,40.588, , , , , , ,57.294,17.397,-21.533
 09:41:03.023,eb:33:2e:f9:57:b5, 2015-01-01 00:29:38.210,0.325,-0.905,0.551,-343.323,-80.811,46.875, , , , , , ,55.541,16.985,-21.764
 09:41:03.023,eb:33:2e:f9:57:b5, 2015-01-01 00:29:38.210,0.344,-0.837,0.597,-356.323,-81.177,51.331, , , , , , ,53.707,16.545,-21.973
 09:41:03.043,eb:33:2e:f9:57:b5, 2015-01-01 00:29:38.210,0.375,-0.75,0.629,-366.028,-84.961,53.894, , , , , , ,51.844,16.078,-22.154
 09:41:03.043,eb:33:2e:f9:57:b5, 2015-01-01 00:29:38.210,0.398,-0.665,0.671,-372.864,-91.858,54.077, , , , , , ,49.944,15.59,-22.346
 09:41:03.043,eb:33:2e:f9:57:b5, 2015-01-01 00:29:38.210,0.404,-0.591,0.688,-377.869,-100.952,52.917, , , , , , ,48.01,15.068,-22.544
 09:41:03.043,eb:33:2e:f9:57:b5, 2015-01-01 00:29:38.210,0.398,-0.538,0.703,-381.897,-110.84,51.331, , , , , , ,46.027,14.507,-22.786
 09:41:03.043,eb:33:2e:f9:57:b5, 2015-01-01 00:29:38.210,0.387,-0.51,0.77,-384.216,-120.056,49.438, , , , , , ,44.05,13.92,-23.027
 09:41:03.043,eb:33:2e:f9:57:b5, 2015-01-01 00:29:38.210,0.37,-0.495,0.888,-384.338,-127.319,47.852, , , , , , ,42.067,13.299,-23.297
 09:41:03.043,eb:33:2e:f9:57:b5, 2015-01-01 00:29:38.210,0.334,-0.474,1.021,-382.751,-131.714,46.936, , , , , , ,40.095,12.651,-23.555
 09:41:03.043,eb:33:2e:f9:57:b5, 2015-01-01 00:29:38.210,0.302,-0.438,1.16,-380.066,-133.789,46.753, , , , , , ,38.112,11.981,-23.818
 09:41:03.112,eb:33:2e:f9:57:b5, 2015-01-01 00:29:38.210,0.274,-0.404,1.254,-378.723,-133.667,47.119, , , , , , ,36.167,11.305,-24.038
 09:41:03.112,eb:33:2e:f9:57:b5, 2015-01-01 00:29:38.210,0.257,-0.37,1.323,-378.601,-132.812,47.729, , , , , , ,34.239,10.624,-24.247
 09:41:03.112,eb:33:2e:f9:57:b5, 2015-01-01 00:29:38.210,0.263,-0.335,1.378,-380.066,-131.897,48.157, , , , , , ,32.311,9.937,-24.412
 09:41:03.112,eb:33:2e:f9:57:b5, 2015-01-01 00:29:38.210,0.277,-0.292,1.436,-382.446,-131.531,47.791, , , , , , ,30.355,9.24,-24.571
 09:41:03.112,eb:33:2e:f9:57:b5, 2015-01-01 00:29:38.210,0.304,-0.233,1.474,-385.193,-132.263,46.265, , , , , , ,28.416,8.553,-24.692
 09:41:03.112,eb:33:2e:f9:57:b5, 2015-01-01 00:29:38.210,0.313,-0.169,1.51,-387.329,-134.827,42.969, , , , , , ,26.466,7.855,-24.818
 09:41:03.113,eb:33:2e:f9:57:b5, 2015-01-01 00:29:38.210,0.338,-0.11,1.601,-387.878,-137.817,38.33, , , , , , ,24.51,7.147,-24.933
 09:41:03.114,eb:33:2e:f9:57:b5, 2015-01-01 00:29:38.210,0.328,-0.042,1.637,-387.329,-143.188,31.555, , , , , , ,22.533,6.427,-25.071
 09:41:03.114,eb:33:2e:f9:57:b5, 2015-01-01 00:29:38.210,0.373,0.005,1.732,-386.292,-147.095,23.132, , , , , , ,20.583,5.696,-25.214
 09:41:03.114,eb:33:2e:f9:57:b5, 2015-01-01 00:29:38.210,0.392,0.121,1.721,-383.728,-159.546,14.587, , , , , , ,18.644,4.938,-25.411
 09:41:03.114,eb:33:2e:f9:57:b5, 2015-01-01 00:29:38.210,0.335,0.185,1.815,-381.165,-166.382,4.456, , , , , , ,16.716,4.142,-25.62
 09:41:03.114,eb:33:2e:f9:57:b5, 2015-01-01 00:29:38.210,0.31,0.196,1.908,-379.333,-171.692,-4.272, , , , , , ,14.771,3.318,-25.867
 09:41:03.114,eb:33:2e:f9:57:b5, 2015-01-01 00:29:38.210,0.265,0.182,2.027,-378.601,-172.18,-11.597, , , , , , ,12.865,2.488,-26.12
 09:41:03.114,eb:33:2e:f9:57:b5, 2015-01-01 00:29:38.210,0.23,0.16,2.116,-379.089,-168.396,-17.578, , , , , , ,10.964,1.67,-26.389
 09:41:03.114,eb:33:2e:f9:57:b5, 2015-01-01 00:29:38.210,0.227,0.146,2.196,-379.822,-161.56,-22.339, , , , , , ,9.058,0.879,-26.631
 09:41:03.114,eb:33:2e:f9:57:b5, 2015-01-01 00:29:38.210,0.251,0.154,2.261,-379.944,-153.442,-27.039, , , , , , ,7.13,0.11,-26.878
 09:41:03.158,eb:33:2e:f9:57:b5, 2015-01-01 00:29:38.210,0.284,0.191,2.291,-378.54,-146.973,-32.349, , , , , , ,5.235,-0.61,-27.109
 09:41:03.158,eb:33:2e:f9:57:b5, 2015-01-01 00:29:38.210,0.309,0.246,2.277,-375.549,-144.592,-38.696, , , , , , ,3.356,-1.324,-27.361
 09:41:03.158,eb:33:2e:f9:57:b5, 2015-01-01 00:29:38.210,0.312,0.306,2.231,-371.277,-147.949,-45.959, , , , , , ,1.494,-2.043,-27.609
 09:41:03.158,eb:33:2e:f9:57:b5, 2015-01-01 00:29:38.210,0.293,0.35,2.186,-366.333,-156.25,-53.528, , , , , , ,-0.357,-2.818,-27.872
 09:41:03.159,eb:33:2e:f9:57:b5, 2015-01-01 00:29:38.210,0.251,0.373,2.189,-361.206,-166.626,-60.486, , , , , , ,-2.159,-3.636,-28.147
 09:41:03.159,eb:33:2e:f9:57:b5, 2015-01-01 00:29:38.210,0.157,0.377,2.25,-356.018,-175.842,-65.674, , , , , , ,-3.928,-4.515,-28.438
 09:41:03.159,eb:33:2e:f9:57:b5, 2015-01-01 00:29:38.210,0.031,0.368,2.325,-350.83,-183.594,-67.932, , , , , , ,-5.669,-5.444,-28.696
 09:41:03.159,eb:33:2e:f9:57:b5, 2015-01-01 00:29:38.210,-0.116,0.357,2.404,-346.558,-189.575,-66.589, , , , , , ,-7.416,-6.422,-28.927
 09:41:03.202,eb:33:2e:f9:57:b5, 2015-01-01 00:29:38.210,-0.288,0.348,2.476,-344.177,-193.298,-60.974, , , , , , ,-9.119,-7.421,-29.108
 09:41:03.202,eb:33:2e:f9:57:b5, 2015-01-01 00:29:38.210,-0.444,0.338,2.528,-343.567,-194.702,-50.842, , , , , , ,-10.822,-8.427,-29.229
 09:41:03.202,eb:33:2e:f9:57:b5, 2015-01-01 00:29:38.210,-0.578,0.334,2.627,-343.567,-192.566,-36.499, , , , , , ,-12.541,-9.415,-29.246
 09:41:03.202,eb:33:2e:f9:57:b5, 2015-01-01 00:29:38.210,-0.685,0.4,2.738,-343.384,-187.561,-18.799, , , , , , ,-14.299,-10.382,-29.147
 09:41:03.202,eb:33:2e:f9:57:b5, 2015-01-01 00:29:38.210,-0.768,0.528,2.855,-341.919,-181.03,1.038, , , , , , ,-16.051,-11.277,-28.938
 09:41:03.202,eb:33:2e:f9:57:b5, 2015-01-01 00:29:38.210,-0.811,0.672,2.962,-338.318,-172.791,22.217, , , , , , ,-17.814,-12.101,-28.63
 09:41:03.202,eb:33:2e:f9:57:b5, 2015-01-01 00:29:38.210,-0.814,0.846,3.044,-332.397,-161.743,43.701, , , , , , ,-19.589,-12.832,-28.185
 09:41:03.202,eb:33:2e:f9:57:b5, 2015-01-01 00:29:38.210,-0.761,1.07,3.098,-323.242,-148.682,64.453, , , , , , ,-21.368,-13.464,-27.636
 09:41:03.247,eb:33:2e:f9:57:b5, 2015-01-01 00:29:38.210,-0.662,1.423,3.129,-306.03,-131.348,85.632, , , , , , ,-23.093,-13.958,-26.993
 09:41:03.247,eb:33:2e:f9:57:b5, 2015-01-01 00:29:38.210,-0.531,1.775,3.101,-285.278,-116.089,98.877, , , , , , ,-24.73,-14.326,-26.318
 09:41:03.247,eb:33:2e:f9:57:b5, 2015-01-01 00:29:38.210,-0.392,2.18,2.986,-258.545,-102.478,106.75, , , , , , ,-26.263,-14.59,-25.593
 09:41:03.247,eb:33:2e:f9:57:b5, 2015-01-01 00:29:38.210,-0.295,2.632,2.77,-226.501,-94.238,107.849, , , , , , ,-27.664,-14.782,-24.868
 09:41:03.247,eb:33:2e:f9:57:b5, 2015-01-01 00:29:38.210,-0.318,3.12,2.452,-190.002,-94.604,101.135, , , , , , ,-28.867,-14.947,-24.159
 09:41:03.247,eb:33:2e:f9:57:b5, 2015-01-01 00:29:38.210,-0.445,3.599,2.027,-149.597,-110.291,86.609, , , , , , ,-29.872,-15.167,-23.505
 09:41:03.247,eb:33:2e:f9:57:b5, 2015-01-01 00:29:38.210,-0.663,3.999,1.639,-108.948,-139.343,66.528, , , , , , ,-30.674,-15.529,-22.835
 09:41:03.247,eb:33:2e:f9:57:b5, 2015-01-01 00:29:38.210,-0.991,4.247,1.452,-72.449,-169.067,45.105, , , , , , ,-31.3,-16.068,-22.176
 09:41:03.291,eb:33:2e:f9:57:b5, 2015-01-01 00:29:38.520,-1.316,4.34,1.487,-41.504,-188.354,25.696, , , , , , ,-31.75,-16.76,-21.533
 09:41:03.291,eb:33:2e:f9:57:b5, 2015-01-01 00:29:38.520,-1.518,4.289,1.795,-14.404,-186.584,11.047, , , , , , ,-32.047,-17.518,-20.962
 09:41:03.291,eb:33:2e:f9:57:b5, 2015-01-01 00:29:38.520,-1.551,4.1,2.316,11.963,-155.396,1.77, , , , , , ,-32.195,-18.226,-20.462
 09:41:03.291,eb:33:2e:f9:57:b5, 2015-01-01 00:29:38.520,-1.43,3.825,2.81,38.086,-96.069,-3.418, , , , , , ,-32.162,-18.748,-20.132
 09:41:03.291,eb:33:2e:f9:57:b5, 2015-01-01 00:29:38.520,-1.21,3.511,3.027,62.134,-20.752,-7.812, , , , , , ,-31.937,-18.979,-20.017
 09:41:03.291,eb:33:2e:f9:57:b5, 2015-01-01 00:29:38.520,-0.967,3.189,2.875,82.397,51.025,-12.817, , , , , , ,-31.525,-18.907,-20.154
 09:41:03.291,eb:33:2e:f9:57:b5, 2015-01-01 00:29:38.520,1.235,2.885,2.478,104.187,90.454,-23.804, , , , , , ,-30.959,-18.605,-20.457
 09:41:03.291,eb:33:2e:f9:57:b5, 2015-01-01 00:29:38.520,-1.432,0.978,9.612,320.679,276.001,-92.407, , , , , , ,-29.526,-18.402,-21.083
 09:41:03.314,eb:33:2e:f9:57:b5, 2015-01-01 00:29:38.520,1.91,3.237,0.577,325.134,299.316,-105.164, , , , , , ,-27.482,-16.968,-22.368
 09:41:03.314,eb:33:2e:f9:57:b5, 2015-01-01 00:29:38.520,0.192,-0.563,0.663,309.204,235.352,-161.377, , , , , , ,-25.543,-16.254,-23.665
 09:41:03.314,eb:33:2e:f9:57:b5, 2015-01-01 00:29:38.520,0.29,-0.195,0.827,293.701,214.722,-155.579, , , , , , ,-23.698,-15.524,-24.911
 09:41:03.314,eb:33:2e:f9:57:b5, 2015-01-01 00:29:38.520,-0.254,-0.803,1.273,291.504,156.86,-137.634, , , , , , ,-21.956,-14.991,-25.999
 09:41:03.314,eb:33:2e:f9:57:b5, 2015-01-01 00:29:38.520,-0.615,-1.733,1.243,337.524,176.636,-76.904, , , , , , ,-20.16,-14.409,-26.779
 09:41:03.314,eb:33:2e:f9:57:b5, 2015-01-01 00:29:38.520,-0.377,-1.348,1.277,373.352,202.515,-40.039, , , , , , ,-18.221,-13.579,-27.378
 09:41:03.314,eb:33:2e:f9:57:b5, 2015-01-01 00:29:38.520,-0.729,-1.104,1.038,401.733,220.825,-15.442, , , , , , ,-16.155,-12.59,-27.828
 09:41:03.315,eb:33:2e:f9:57:b5, 2015-01-01 00:29:38.520,-0.942,-0.056,1.458,392.212,219.971,0.305, , , , , , ,-14.079,-11.519,-28.158
 09:41:03.382,eb:33:2e:f9:57:b5, 2015-01-01 00:29:38.520,-0.589,0.708,1.564,354.004,205.505,10.559, , , , , , ,-12.184,-10.47,-28.367
 09:41:03.382,eb:33:2e:f9:57:b5, 2015-01-01 00:29:38.520,-0.523,1.044,1.464,305.359,194.031,11.475, , , , , , ,-10.536,-9.481,-28.531
 09:41:03.382,eb:33:2e:f9:57:b5, 2015-01-01 00:29:38.520,-0.509,0.717,1.304,265.93,174.011,9.094, , , , , , ,-9.113,-8.569,-28.636
 09:41:03.382,eb:33:2e:f9:57:b5, 2015-01-01 00:29:38.520,-0.5,0.588,1.202,232.239,145.569,-2.319, , , , , , ,-7.855,-7.784,-28.751
 09:41:03.382,eb:33:2e:f9:57:b5, 2015-01-01 00:29:38.520,-0.194,0.492,1.103,192.505,122.498,-4.822, , , , , , ,-6.812,-7.136,-28.856
 09:41:03.382,eb:33:2e:f9:57:b5, 2015-01-01 00:29:38.520,-0.052,0.282,1.134,171.814,108.093,-9.888, , , , , , ,-5.905,-6.575,-28.976
 09:41:03.382,eb:33:2e:f9:57:b5, 2015-01-01 00:29:38.520,-0.053,0.313,1.139,154.907,100.403,-13.977, , , , , , ,-5.081,-6.07,-29.092
 09:41:03.382,eb:33:2e:f9:57:b5, 2015-01-01 00:29:38.520,0.027,0.122,0.938,142.822,91.736,-10.315, , , , , , ,-4.323,-5.592,-29.202
 09:41:03.404,eb:33:2e:f9:57:b5, 2015-01-01 00:29:38.520,0.09,0.132,0.914,129.761,86.487,-5.615, , , , , , ,-3.642,-5.153,-29.268
 09:41:03.404,eb:33:2e:f9:57:b5, 2015-01-01 00:29:38.520,0.203,0.271,0.941,113.159,82.581,-4.761, , , , , , ,-3.038,-4.735,-29.333
 09:41:03.404,eb:33:2e:f9:57:b5, 2015-01-01 00:29:38.520,0.118,0.297,1.005,94.543,85.938,-5.249, , , , , , ,-2.527,-4.318,-29.377
 09:41:03.404,eb:33:2e:f9:57:b5, 2015-01-01 00:29:38.520,0.174,0.424,1.014,76.172,85.022,-4.822, , , , , , ,-2.087,-3.884,-29.427
 09:41:03.404,eb:33:2e:f9:57:b5, 2015-01-01 00:29:38.520,0.128,0.447,1.016,54.749,83.923,0, , , , , , ,-1.774,-3.461,-29.454
 09:41:03.404,eb:33:2e:f9:57:b5, 2015-01-01 00:29:38.520,-0.068,0.363,0.958,38.818,77.454,2.991, , , , , , ,-1.544,-3.065,-29.471
 09:41:03.404,eb:33:2e:f9:57:b5, 2015-01-01 00:29:38.520,-0.117,0.186,0.901,27.71,66.589,8.545, , , , , , ,-1.39,-2.708,-29.449
 09:41:03.404,eb:33:2e:f9:57:b5, 2015-01-01 00:29:38.520,-0.167,0.104,0.941,22.644,58.472,9.338, , , , , , ,-1.258,-2.39,-29.416
 09:41:03.472,eb:33:2e:f9:57:b5, 2015-01-01 00:29:38.520,-0.252,0.096,0.919,19.043,44.067,5.371, , , , , , ,-1.159,-2.137,-29.383
 09:41:03.472,eb:33:2e:f9:57:b5, 2015-01-01 00:29:38.520,-0.208,0.07,0.839,15.808,26.123,2.014, , , , , , ,-1.071,-1.972,-29.388
 09:41:03.472,eb:33:2e:f9:57:b5, 2015-01-01 00:29:38.520,-0.126,0.098,0.838,12.207,9.094,-0.061, , , , , , ,-1.005,-1.895,-29.388
 09:41:03.472,eb:33:2e:f9:57:b5, 2015-01-01 00:29:38.520,-0.045,0.092,0.898,8.606,-1.526,-0.61, , , , , , ,-0.939,-1.879,-29.394
 09:41:03.472,eb:33:2e:f9:57:b5, 2015-01-01 00:29:38.520,0,0.06,0.978,6.653,-7.324,-0.061, , , , , , ,-0.906,-1.906,-29.399
 09:41:03.472,eb:33:2e:f9:57:b5, 2015-01-01 00:29:38.520,0.014,0.02,1.043,6.775,-9.216,0.122, , , , , , ,-0.873,-1.95,-29.416
 09:41:03.472,eb:33:2e:f9:57:b5, 2015-01-01 00:29:38.520,0.02,-0.004,1.064,8.484,-10.193,-0.671, , , , , , ,-0.835,-2,-29.416
 09:41:03.472,eb:33:2e:f9:57:b5, 2015-01-01 00:29:38.520,0.003,-0.012,1.06,10.559,-11.108,-2.38, , , , , , ,-0.775,-2.049,-29.427
 09:41:03.474,eb:33:2e:f9:57:b5, 2015-01-01 00:29:38.520,-0.025,-0.015,1.044,12.39,-12.085,-3.662, , , , , , ,-0.714,-2.109,-29.443
 09:41:03.474,eb:33:2e:f9:57:b5, 2015-01-01 00:29:38.520,-0.047,-0.011,1.02,13.855,-14.16,-3.662, , , , , , ,-0.648,-2.175,-29.482
 09:41:03.474,eb:33:2e:f9:57:b5, 2015-01-01 00:29:38.520,-0.033,-0.038,1.022,15.869,-15.991,-2.319, , , , , , ,-0.571,-2.252,-29.493
 09:41:03.474,eb:33:2e:f9:57:b5, 2015-01-01 00:29:38.520,-0.005,-0.045,1.023,18.188,-16.785,-1.587, , , , , , ,-0.472,-2.329,-29.509
 09:41:03.474,eb:33:2e:f9:57:b5, 2015-01-01 00:29:38.520,-0.004,-0.027,1.026,19.714,-16.235,-1.831, , , , , , ,-0.379,-2.411,-29.515
 09:41:03.474,eb:33:2e:f9:57:b5, 2015-01-01 00:29:38.520,0.023,-0.013,1.021,20.691,-16.235,-1.709, , , , , , ,-0.275,-2.494,-29.542
 09:41:03.474,eb:33:2e:f9:57:b5, 2015-01-01 00:29:38.520,0.043,0.005,1.018,21.179,-15.808,-1.892, , , , , , ,-0.17,-2.576,-29.553
 09:41:03.474,eb:33:2e:f9:57:b5, 2015-01-01 00:29:38.520,0.071,0.026,1.01,20.63,-14.526,-2.441, , , , , , ,-0.055,-2.648,-29.564
 09:41:03.539,eb:33:2e:f9:57:b5, 2015-01-01 00:29:38.520,0.103,0.033,1.015,20.569,-12.817,-3.601, , , , , , ,0.044,-2.714,-29.581
 09:41:03.539,eb:33:2e:f9:57:b5, 2015-01-01 00:29:38.520,0.131,0.015,1.055,21.912,-9.766,-4.7, , , , , , ,0.154,-2.769,-29.625
 09:41:03.539,eb:33:2e:f9:57:b5, 2015-01-01 00:29:38.520,0.137,0.017,1.06,23.132,-5.005,-5.676, , , , , , ,0.264,-2.807,-29.647
 09:41:03.539,eb:33:2e:f9:57:b5, 2015-01-01 00:29:38.520,0.129,-0.003,1.093,24.963,0,-5.676, , , , , , ,0.401,-2.812,-29.685
 09:41:03.539,eb:33:2e:f9:57:b5, 2015-01-01 00:29:38.520,0.085,0.047,1.029,24.536,5.005,-5.859, , , , , , ,0.527,-2.796,-29.713
 09:41:03.539,eb:33:2e:f9:57:b5, 2015-01-01 00:29:38.520,0.074,0.046,1.004,23.621,8.789,-5.188, , , , , , ,0.648,-2.758,-29.756
 09:41:03.539,eb:33:2e:f9:57:b5, 2015-01-01 00:29:38.520,0.096,0.051,0.989,22.705,11.169,-4.883, , , , , , ,0.764,-2.708,-29.784
 09:41:03.539,eb:33:2e:f9:57:b5, 2015-01-01 00:29:38.520,0.106,0.033,1.037,23.499,12.756,-5.432, , , , , , ,0.895,-2.642,-29.811
 09:41:03.561,eb:33:2e:f9:57:b5, 2015-01-01 00:29:38.520,0.069,0.07,0.988,22.766,15.747,-6.104, , , , , , ,1.011,-2.571,-29.839
 09:41:03.561,eb:33:2e:f9:57:b5, 2015-01-01 00:29:38.520,0.046,0.052,0.983,21.667,18.127,-5.615, , , , , , ,1.121,-2.483,-29.888
 09:41:03.562,eb:33:2e:f9:57:b5, 2015-01-01 00:29:38.520,0.02,0.062,0.966,20.752,18.616,-5.31, , , , , , ,1.23,-2.39,-29.91
 09:41:03.562,eb:33:2e:f9:57:b5, 2015-01-01 00:29:38.520,-0.004,0.054,0.965,20.447,17.212,-4.761, , , , , , ,1.346,-2.296,-29.938
 09:41:03.562,eb:33:2e:f9:57:b5, 2015-01-01 00:29:38.520,0.008,0.046,0.967,20.752,14.587,-3.845, , , , , , ,1.445,-2.214,-29.96
 09:41:03.562,eb:33:2e:f9:57:b5, 2015-01-01 00:29:38.520,0.026,0.056,0.969,20.691,12.512,-3.54, , , , , , ,1.549,-2.148,-29.993
 09:41:03.562,eb:33:2e:f9:57:b5, 2015-01-01 00:29:38.520,0.041,0.051,0.994,21.057,11.475,-3.296, , , , , , ,1.653,-2.093,-30.009
 09:41:03.562,eb:33:2e:f9:57:b5, 2015-01-01 00:29:38.520,0.049,0.066,0.984,21.24,11.353,-3.418, , , , , , ,1.774,-2.027,-30.026
 09:41:03.629,eb:33:2e:f9:57:b5, 2015-01-01 00:29:38.520,0.062,0.064,0.993,21.484,11.597,-3.418, , , , , , ,1.879,-1.972,-30.042
 09:41:03.629,eb:33:2e:f9:57:b5, 2015-01-01 00:29:38.520,0.075,0.062,1.018,21.973,12.817,-3.601, , , , , , ,1.989,-1.906,-30.075
 09:41:03.629,eb:33:2e:f9:57:b5, 2015-01-01 00:29:38.520,0.082,0.069,1.015,22.583,14.893,-3.906, , , , , , ,2.104,-1.84,-30.097
 09:41:03.629,eb:33:2e:f9:57:b5, 2015-01-01 00:29:38.520,0.089,0.065,1.03,23.376,17.639,-4.272, , , , , , ,2.23,-1.752,-30.119
 09:41:03.629,eb:33:2e:f9:57:b5, 2015-01-01 00:29:38.520,0.101,0.07,1.028,24.17,20.508,-4.7, , , , , , ,2.351,-1.653,-30.135
 09:41:03.629,eb:33:2e:f9:57:b5, 2015-01-01 00:29:38.520,0.099,0.075,1.03,24.78,23.376,-5.31, , , , , , ,2.472,-1.544,-30.174
 09:41:03.629,eb:33:2e:f9:57:b5, 2015-01-01 00:29:38.520,0.097,0.087,1.006,25.024,25.635,-5.798, , , , , , ,2.598,-1.417,-30.196
 09:41:03.629,eb:33:2e:f9:57:b5, 2015-01-01 00:29:38.520,0.088,0.095,1.009,25.024,27.527,-6.531, , , , , , ,2.736,-1.274,-30.223
 09:41:03.651,eb:33:2e:f9:57:b5, 2015-01-01 00:29:38.855,0.089,0.091,1.025,25.574,29.602,-7.507, , , , , , ,2.862,-1.132,-30.256
 09:41:03.651,eb:33:2e:f9:57:b5, 2015-01-01 00:29:38.855,0.088,0.103,1.016,25.94,30.457,-8.545, , , , , , ,2.994,-0.978,-30.306
 09:41:03.651,eb:33:2e:f9:57:b5, 2015-01-01 00:29:38.855,0.081,0.084,1.072,27.039,32.227,-9.583, , , , , , ,3.126,-0.818,-30.344
 09:41:03.651,eb:33:2e:f9:57:b5, 2015-01-01 00:29:38.855,0.041,0.079,1.094,28.748,33.875,-10.62, , , , , , ,3.274,-0.648,-30.388
 09:41:03.651,eb:33:2e:f9:57:b5, 2015-01-01 00:29:38.855,-0.015,0.053,1.138,30.334,37.354,-10.437, , , , , , ,3.422,-0.467,-30.432
 09:41:03.651,eb:33:2e:f9:57:b5, 2015-01-01 00:29:38.855,-0.033,0.057,1.053,31.677,38.086,-8.972, , , , , , ,3.582,-0.275,-30.487
 09:41:03.651,eb:33:2e:f9:57:b5, 2015-01-01 00:29:38.855,-0.045,0.072,1.016,32.593,36.926,-8.606, , , , , , ,3.741,-0.082,-30.515
 09:41:03.651,eb:33:2e:f9:57:b5, 2015-01-01 00:29:38.855,-0.063,0.084,1.009,33.325,33.875,-8.24, , , , , , ,3.917,0.093,-30.553
 09:41:03.675,eb:33:2e:f9:57:b5, 2015-01-01 00:29:38.855,-0.066,0.07,1.014,34.607,30.701,-7.08, , , , , , ,4.087,0.253,-30.58
 09:41:03.675,eb:33:2e:f9:57:b5, 2015-01-01 00:29:38.855,-0.063,0.076,1.017,36.377,27.161,-6.042, , , , , , ,4.268,0.401,-30.619
 09:41:03.675,eb:33:2e:f9:57:b5, 2015-01-01 00:29:38.855,-0.098,0.068,1.037,38.574,24.841,-4.883, , , , , , ,4.455,0.527,-30.635
 09:41:03.675,eb:33:2e:f9:57:b5, 2015-01-01 00:29:38.855,-0.116,0.052,1.077,41.382,22.339,-3.296, , , , , , ,4.664,0.654,-30.646
 09:41:03.675,eb:33:2e:f9:57:b5, 2015-01-01 00:29:38.855,-0.149,0.037,1.159,44.617,19.958,-2.319, , , , , , ,4.883,0.758,-30.652
 09:41:03.675,eb:33:2e:f9:57:b5, 2015-01-01 00:29:38.855,-0.102,0,1.208,49.072,17.639,-0.061, , , , , , ,5.12,0.851,-30.668
 09:41:03.675,eb:33:2e:f9:57:b5, 2015-01-01 00:29:38.855,-0.048,0.03,1.157,54.321,13.306,1.892, , , , , , ,5.378,0.923,-30.652
 09:41:03.675,eb:33:2e:f9:57:b5, 2015-01-01 00:29:38.855,-0.042,0.072,1.125,58.777,8.789,2.136, , , , , , ,5.674,0.983,-30.641
 09:41:03.742,eb:33:2e:f9:57:b5, 2015-01-01 00:29:38.855,-0.081,0.082,1.137,63.11,4.822,2.502, , , , , , ,5.982,1.011,-30.63
 09:41:03.742,eb:33:2e:f9:57:b5, 2015-01-01 00:29:38.855,-0.096,0.066,1.22,67.444,2.686,3.052, , , , , , ,6.312,1.027,-30.63
 09:41:03.742,eb:33:2e:f9:57:b5, 2015-01-01 00:29:38.855,-0.1,0.033,1.358,72.021,3.479,3.479, , , , , , ,6.663,1.038,-30.613
 09:41:03.742,eb:33:2e:f9:57:b5, 2015-01-01 00:29:38.855,-0.083,0.008,1.355,78.369,3.784,5.188, , , , , , ,7.053,1.06,-30.591
 09:41:03.742,eb:33:2e:f9:57:b5, 2015-01-01 00:29:38.855,-0.092,0.063,1.282,84.229,0.916,5.31, , , , , , ,7.46,1.071,-30.558
 09:41:03.742,eb:33:2e:f9:57:b5, 2015-01-01 00:29:38.855,-0.128,0.05,1.394,89.417,3.479,4.578, , , , , , ,7.894,1.071,-30.553
 09:41:03.742,eb:33:2e:f9:57:b5, 2015-01-01 00:29:38.855,-0.093,-0.007,1.39,96.191,4.333,6.653, , , , , , ,8.366,1.088,-30.52
 09:41:03.742,eb:33:2e:f9:57:b5, 2015-01-01 00:29:38.855,-0.071,0.023,1.356,102.356,4.517,7.69, , , , , , ,8.871,1.11,-30.487
 09:41:03.764,eb:33:2e:f9:57:b5, 2015-01-01 00:29:38.855,-0.074,0.04,1.283,109.497,1.587,7.812, , , , , , ,9.404,1.121,-30.443
 09:41:03.764,eb:33:2e:f9:57:b5, 2015-01-01 00:29:38.855,-0.062,0.062,1.258,116.699,-3.418,7.446, , , , , , ,9.976,1.104,-30.427
 09:41:03.764,eb:33:2e:f9:57:b5, 2015-01-01 00:29:38.855,-0.035,0.065,1.293,124.023,-7.935,7.446, , , , , , ,10.58,1.066,-30.394
 09:41:03.764,eb:33:2e:f9:57:b5, 2015-01-01 00:29:38.855,-0.01,0.066,1.33,132.019,-10.803,6.836, , , , , , ,11.239,1.016,-30.372
 09:41:03.764,eb:33:2e:f9:57:b5, 2015-01-01 00:29:38.855,0.015,0.07,1.351,140.015,-13.489,5.981, , , , , , ,11.92,0.95,-30.35
 09:41:03.764,eb:33:2e:f9:57:b5, 2015-01-01 00:29:38.855,0.079,0.073,1.419,147.156,-14.465,4.517, , , , , , ,12.64,0.873,-30.361
 09:41:03.764,eb:33:2e:f9:57:b5, 2015-01-01 00:29:38.855,0.133,0.064,1.529,155.273,-10.742,2.808, , , , , , ,13.403,0.807,-30.355
 09:41:03.765,eb:33:2e:f9:57:b5, 2015-01-01 00:29:38.855,0.171,0.061,1.546,165.649,-7.141,0.122, , , , , , ,14.216,0.769,-30.361
 09:41:03.809,eb:33:2e:f9:57:b5, 2015-01-01 00:29:38.855,0.226,0.099,1.53,176.147,-4.639,-4.15, , , , , , ,15.073,0.747,-30.377
 09:41:03.809,eb:33:2e:f9:57:b5, 2015-01-01 00:29:38.855,0.246,0.125,1.498,186.768,-2.991,-8.606, , , , , , ,15.991,0.736,-30.432
 09:41:03.809,eb:33:2e:f9:57:b5, 2015-01-01 00:29:38.855,0.2,0.129,1.459,196.777,-2.136,-14.038, , , , , , ,16.952,0.742,-30.493
 09:41:03.809,eb:33:2e:f9:57:b5, 2015-01-01 00:29:38.855,0.13,0.144,1.46,206.299,-1.587,-18.066, , , , , , ,17.974,0.764,-30.575
 09:41:03.809,eb:33:2e:f9:57:b5, 2015-01-01 00:29:38.855,0.132,0.136,1.531,213.684,-1.038,-20.935, , , , , , ,19.023,0.786,-30.668
 09:41:03.809,eb:33:2e:f9:57:b5, 2015-01-01 00:29:38.855,0.078,0.094,1.706,219.971,7.874,-22.034, , , , , , ,20.11,0.84,-30.784
 09:41:03.809,eb:33:2e:f9:57:b5, 2015-01-01 00:29:38.855,0.115,0.01,1.725,230.652,16.724,-22.156, , , , , , ,21.242,0.945,-30.861
 09:41:03.809,eb:33:2e:f9:57:b5, 2015-01-01 00:29:38.855,0.208,0.046,1.657,242.371,21.362,-23.071, , , , , , ,22.434,1.082,-30.932
 09:41:03.899,eb:33:2e:f9:57:b5, 2015-01-01 00:29:38.855,0.218,0.125,1.592,253.113,23.743,-25.635, , , , , , ,23.676,1.23,-30.998
 09:41:03.899,eb:33:2e:f9:57:b5, 2015-01-01 00:29:38.855,0.233,0.141,1.558,264.099,21.606,-30.64, , , , , , ,24.972,1.39,-31.097
 09:41:03.899,eb:33:2e:f9:57:b5, 2015-01-01 00:29:38.855,0.242,0.112,1.678,275.696,23.499,-34.79, , , , , , ,26.323,1.566,-31.196
 09:41:03.899,eb:33:2e:f9:57:b5, 2015-01-01 00:29:38.855,0.226,0.04,1.885,288.696,30.823,-37.964, , , , , , ,27.746,1.78,-31.3
 09:41:03.899,eb:33:2e:f9:57:b5, 2015-01-01 00:29:38.855,0.204,0.032,1.985,304.626,37.598,-40.222, , , , , , ,29.235,2.027,-31.388
 09:41:03.900,eb:33:2e:f9:57:b5, 2015-01-01 00:29:38.855,0.205,0.033,2.036,321.533,36.377,-44.006, , , , , , ,30.8,2.291,-31.492
 09:41:03.900,eb:33:2e:f9:57:b5, 2015-01-01 00:29:38.855,0.157,0.036,2.179,337.708,35.767,-46.021, , , , , , ,32.454,2.565,-31.591
 09:41:03.900,eb:33:2e:f9:57:b5, 2015-01-01 00:29:38.855,0.223,0.123,2.557,351.929,39.551,-47.058, , , , , , ,34.184,2.851,-31.679
 09:41:03.900,eb:33:2e:f9:57:b5, 2015-01-01 00:29:38.855,0.443,0.018,2.909,371.521,46.57,-48.523, , , , , , ,35.997,3.17,-31.75
 09:41:03.900,eb:33:2e:f9:57:b5, 2015-01-01 00:29:38.855,0.674,0.009,3.007,397.278,51.575,-50.293, , , , , , ,37.925,3.521,-31.811
 09:41:03.900,eb:33:2e:f9:57:b5, 2015-01-01 00:29:38.855,0.766,0.111,2.876,420.959,39.612,-59.021, , , , , , ,39.979,3.867,-31.882
 09:41:03.900,eb:33:2e:f9:57:b5, 2015-01-01 00:29:38.855,0.779,0.051,2.799,441.833,26.123,-70.374, , , , , , ,42.144,4.202,-32.02
 09:41:03.900,eb:33:2e:f9:57:b5, 2015-01-01 00:29:38.855,0.746,0.118,3.15,457.52,24.414,-82.153, , , , , , ,44.385,4.554,-32.228
 09:41:03.900,eb:33:2e:f9:57:b5, 2015-01-01 00:29:38.855,0.69,-0.074,3.634,471.68,44.189,-90.942, , , , , , ,46.697,4.988,-32.421
 09:41:03.901,eb:33:2e:f9:57:b5, 2015-01-01 00:29:38.855,0.683,-0.154,3.845,489.38,72.571,-97.29, , , , , , ,49.098,5.543,-32.509
 09:41:03.901,eb:33:2e:f9:57:b5, 2015-01-01 00:29:38.855,0.559,-0.265,3.608,507.385,99.915,-106.873, , , , , , ,51.603,6.229,-32.481
 09:41:03.923,eb:33:2e:f9:57:b5, 2015-01-01 00:29:38.855,0.519,-0.02,3.52,518.494,106.079,-121.399, , , , , , ,54.179,6.998,-32.415
 09:41:03.923,eb:33:2e:f9:57:b5, 2015-01-01 00:29:38.855,0.2,-0.584,3.673,532.776,128.052,-129.822, , , , , , ,56.827,7.855,-32.305
 09:41:03.923,eb:33:2e:f9:57:b5, 2015-01-01 00:29:38.855,0.366,-0.737,3.627,545.044,151.123,-120.728, , , , , , ,59.579,8.773,-32.009
 09:41:03.923,eb:33:2e:f9:57:b5, 2015-01-01 00:29:38.855,0.767,-0.485,3.73,554.871,163.879,-111.267, , , , , , ,62.386,9.651,-31.586
 09:41:03.923,eb:33:2e:f9:57:b5, 2015-01-01 00:29:38.855,0.829,-0.465,3.778,564.758,196.167,-108.032, , , , , , ,65.303,10.536,-31.02
 09:41:03.923,eb:33:2e:f9:57:b5, 2015-01-01 00:29:38.855,0.396,-0.752,2.97,529.236,246.094,-86.304, , , , , , ,68.203,11.426,-30.152
 09:41:03.923,eb:33:2e:f9:57:b5, 2015-01-01 00:29:38.855,0.123,-0.539,0.353,445.435,253.235,-60.486, , , , , , ,70.84,12.2,-29.064
 09:41:03.923,eb:33:2e:f9:57:b5, 2015-01-01 00:29:38.855,0.405,-0.581,-1.127,324.036,232.422,-38.269, , , , , , ,72.927,12.794,-27.966
 09:41:03.967,eb:33:2e:f9:57:b5, 2015-01-01 00:29:38.855,0.599,-1.56,-0.446,243.652,225.952,-16.479, , , , , , ,74.526,13.228,-26.884
 09:41:03.967,eb:33:2e:f9:57:b5, 2015-01-01 00:29:38.855,0.815,-1.37,0.664,245.178,220.703,11.963, , , , , , ,75.976,13.519,-25.768
