Time,Device name,Chip Time(),Acceleration X(g),Acceleration Y(g),Acceleration Z(g),Angular velocity X(°/s),Angular velocity Y(°/s),Angular velocity Z(°/s),ShiftX(mm),ShiftY(mm),ShiftZ(mm),SpeedX(mm/s),SpeedY(mm/s),SpeedZ(mm/s),Angle X(°),Angle Y(°),Angle Z(°)
 09:47:30.887,eb:33:2e:f9:57:b5, 2015-01-01 00:36:03.005,1.178,-1.296,0.352,38.818,16.785,-43.518, , , , , , ,10.657,8.152,-101.953
 09:47:30.889,eb:33:2e:f9:57:b5, 2015-01-01 00:36:03.005,1.124,-1.324,0.314,25.757,2.502,-60.791, , , , , , ,10.778,8.24,-102.211
 09:47:30.889,eb:33:2e:f9:57:b5, 2015-01-01 00:36:03.005,1.059,-1.366,0.372,12.268,-6.348,-77.148, , , , , , ,10.816,8.289,-102.568
 09:47:30.889,eb:33:2e:f9:57:b5, 2015-01-01 00:36:03.005,0.975,-1.405,0.428,-1.831,-9.094,-91.675, , , , , , ,10.767,8.322,-103.008
 09:47:30.889,eb:33:2e:f9:57:b5, 2015-01-01 00:36:03.005,0.881,-1.433,0.449,-16.113,-8.606,-104.004, , , , , , ,10.64,8.372,-103.508
 09:47:30.890,eb:33:2e:f9:57:b5, 2015-01-01 00:36:03.005,0.797,-1.447,0.436,-29.907,-7.996,-113.831, , , , , , ,10.437,8.432,-104.057
 09:47:30.890,eb:33:2e:f9:57:b5, 2015-01-01 00:36:03.005,0.722,-1.451,0.4,-42.603,-10.376,-121.094, , , , , , ,10.157,8.492,-104.656
 09:47:30.890,eb:33:2e:f9:57:b5, 2015-01-01 00:36:03.005,0.633,-1.447,0.372,-54.077,-15.686,-125.854, , , , , , ,9.811,8.525,-105.287
 09:47:30.890,eb:33:2e:f9:57:b5, 2015-01-01 00:36:03.005,0.532,-1.452,0.387,-64.453,-22.766,-127.502, , , , , , ,9.41,8.536,-105.941
 09:47:30.891,eb:33:2e:f9:57:b5, 2015-01-01 00:36:03.005,0.429,-1.46,0.432,-73.181,-29.785,-125.916, , , , , , ,8.965,8.503,-106.584
 09:47:30.891,eb:33:2e:f9:57:b5, 2015-01-01 00:36:03.005,0.336,-1.457,0.489,-80.139,-36.499,-121.46, , , , , , ,8.481,8.427,-107.227
 09:47:30.891,eb:33:2e:f9:57:b5, 2015-01-01 00:36:03.005,0.26,-1.429,0.553,-85.876,-43.762,-114.624, , , , , , ,7.965,8.306,-107.842
 09:47:30.891,eb:33:2e:f9:57:b5, 2015-01-01 00:36:03.005,0.188,-1.378,0.626,-90.637,-51.147,-106.201, , , , , , ,7.438,8.141,-108.424
 09:47:30.891,eb:33:2e:f9:57:b5, 2015-01-01 00:36:03.005,0.121,-1.31,0.692,-94.91,-58.96,-96.497, , , , , , ,6.894,7.921,-108.951
 09:47:30.891,eb:33:2e:f9:57:b5, 2015-01-01 00:36:03.005,0.06,-1.24,0.763,-98.938,-66.101,-85.876, , , , , , ,6.339,7.663,-109.44
 09:47:30.891,eb:33:2e:f9:57:b5, 2015-01-01 00:36:03.005,0.006,-1.166,0.845,-102.905,-72.144,-74.707, , , , , , ,5.768,7.35,-109.874
 09:47:30.911,eb:33:2e:f9:57:b5, 2015-01-01 00:36:03.340,-0.031,-1.088,0.921,-106.14,-76.66,-63.232, , , , , , ,5.197,7.004,-110.253
 09:47:30.911,eb:33:2e:f9:57:b5, 2015-01-01 00:36:03.340,-0.054,-1.005,0.989,-107.91,-80.627,-51.941, , , , , , ,4.62,6.636,-110.555
 09:47:30.911,eb:33:2e:f9:57:b5, 2015-01-01 00:36:03.340,-0.067,-0.913,1.043,-107.971,-84.473,-41.321, , , , , , ,4.048,6.24,-110.814
 09:47:30.911,eb:33:2e:f9:57:b5, 2015-01-01 00:36:03.340,-0.08,-0.812,1.084,-106.567,-88.684,-31.677, , , , , , ,3.483,5.806,-111.022
 09:47:30.911,eb:33:2e:f9:57:b5, 2015-01-01 00:36:03.340,-0.097,-0.706,1.119,-104.309,-93.262,-23.499, , , , , , ,2.939,5.361,-111.182
 09:47:30.911,eb:33:2e:f9:57:b5, 2015-01-01 00:36:03.340,-0.113,-0.611,1.158,-101.685,-97.961,-16.663, , , , , , ,2.411,4.883,-111.286
 09:47:30.911,eb:33:2e:f9:57:b5, 2015-01-01 00:36:03.340,-0.137,-0.536,1.216,-98.572,-101.257,-10.925, , , , , , ,1.906,4.384,-111.368
 09:47:30.912,eb:33:2e:f9:57:b5, 2015-01-01 00:36:03.340,-0.171,-0.47,1.269,-95.215,-103.394,-6.226, , , , , , ,1.406,3.867,-111.429
 09:47:30.978,eb:33:2e:f9:57:b5, 2015-01-01 00:36:03.340,-0.194,-0.412,1.296,-92.224,-105.225,-2.441, , , , , , ,0.939,3.34,-111.462
 09:47:30.978,eb:33:2e:f9:57:b5, 2015-01-01 00:36:03.340,-0.218,-0.354,1.321,-90.271,-106.201,0.366, , , , , , ,0.483,2.812,-111.451
 09:47:30.978,eb:33:2e:f9:57:b5, 2015-01-01 00:36:03.340,-0.238,-0.278,1.352,-89.111,-105.835,2.502, , , , , , ,0.033,2.28,-111.445
 09:47:30.978,eb:33:2e:f9:57:b5, 2015-01-01 00:36:03.340,-0.254,-0.217,1.384,-88.257,-103.943,3.174, , , , , , ,-0.412,1.747,-111.434
 09:47:30.978,eb:33:2e:f9:57:b5, 2015-01-01 00:36:03.340,-0.26,-0.162,1.413,-87.28,-100.769,2.686, , , , , , ,-0.851,1.236,-111.412
 09:47:30.978,eb:33:2e:f9:57:b5, 2015-01-01 00:36:03.340,-0.257,-0.114,1.433,-86.182,-96.13,1.282, , , , , , ,-1.285,0.747,-111.379
 09:47:30.978,eb:33:2e:f9:57:b5, 2015-01-01 00:36:03.340,-0.262,-0.072,1.442,-85.327,-90.027,-1.038, , , , , , ,-1.714,0.286,-111.368
 09:47:30.979,eb:33:2e:f9:57:b5, 2015-01-01 00:36:03.340,-0.278,-0.043,1.431,-84.839,-83.313,-4.089, , , , , , ,-2.153,-0.148,-111.374
 09:47:30.999,eb:33:2e:f9:57:b5, 2015-01-01 00:36:03.340,-0.295,-0.027,1.414,-84.473,-76.538,-7.141, , , , , , ,-2.576,-0.549,-111.385
 09:47:30.999,eb:33:2e:f9:57:b5, 2015-01-01 00:36:03.340,-0.317,-0.009,1.396,-84.106,-70.007,-10.071, , , , , , ,-2.999,-0.912,-111.401
 09:47:31.000,eb:33:2e:f9:57:b5, 2015-01-01 00:36:03.340,-0.333,0.007,1.374,-83.557,-64.026,-12.451, , , , , , ,-3.417,-1.247,-111.44
 09:47:31.000,eb:33:2e:f9:57:b5, 2015-01-01 00:36:03.340,-0.349,0.025,1.361,-82.825,-57.678,-14.038, , , , , , ,-3.84,-1.56,-111.489
 09:47:31.000,eb:33:2e:f9:57:b5, 2015-01-01 00:36:03.340,-0.363,0.045,1.349,-81.726,-51.086,-14.709, , , , , , ,-4.252,-1.835,-111.544
 09:47:31.000,eb:33:2e:f9:57:b5, 2015-01-01 00:36:03.340,-0.369,0.066,1.311,-80.811,-45.044,-14.526, , , , , , ,-4.658,-2.076,-111.588
 09:47:31.000,eb:33:2e:f9:57:b5, 2015-01-01 00:36:03.340,-0.366,0.087,1.261,-80.078,-39.978,-13.55, , , , , , ,-5.054,-2.291,-111.638
 09:47:31.000,eb:33:2e:f9:57:b5, 2015-01-01 00:36:03.340,-0.365,0.111,1.2,-79.346,-36.682,-11.719, , , , , , ,-5.466,-2.494,-111.687
 09:47:31.046,eb:33:2e:f9:57:b5, 2015-01-01 00:36:03.340,-0.363,0.136,1.152,-78.369,-34.851,-9.277, , , , , , ,-5.856,-2.675,-111.72
 09:47:31.046,eb:33:2e:f9:57:b5, 2015-01-01 00:36:03.340,-0.365,0.163,1.13,-76.66,-33.508,-6.165, , , , , , ,-6.246,-2.851,-111.725
 09:47:31.046,eb:33:2e:f9:57:b5, 2015-01-01 00:36:03.340,-0.37,0.191,1.116,-74.097,-32.104,-2.441, , , , , , ,-6.619,-3.016,-111.731
 09:47:31.046,eb:33:2e:f9:57:b5, 2015-01-01 00:36:03.340,-0.378,0.219,1.098,-70.801,-30.701,1.892, , , , , , ,-6.993,-3.181,-111.714
 09:47:31.046,eb:33:2e:f9:57:b5, 2015-01-01 00:36:03.340,-0.386,0.25,1.066,-67.139,-29.663,6.897, , , , , , ,-7.339,-3.323,-111.671
 09:47:31.046,eb:33:2e:f9:57:b5, 2015-01-01 00:36:03.340,-0.396,0.28,1.032,-63.599,-29.053,12.512, , , , , , ,-7.668,-3.466,-111.594
 09:47:31.046,eb:33:2e:f9:57:b5, 2015-01-01 00:36:03.340,-0.404,0.319,0.993,-60.364,-28.992,18.433, , , , , , ,-7.987,-3.598,-111.495
 09:47:31.046,eb:33:2e:f9:57:b5, 2015-01-01 00:36:03.340,-0.399,0.365,0.955,-57.007,-29.358,24.17, , , , , , ,-8.295,-3.73,-111.368
 09:47:31.069,eb:33:2e:f9:57:b5, 2015-01-01 00:36:03.340,-0.399,0.423,0.917,-53.345,-30.518,29.297, , , , , , ,-8.58,-3.862,-111.209
 09:47:31.069,eb:33:2e:f9:57:b5, 2015-01-01 00:36:03.340,-0.405,0.493,0.882,-49.316,-32.349,33.325, , , , , , ,-8.849,-3.994,-111.022
 09:47:31.069,eb:33:2e:f9:57:b5, 2015-01-01 00:36:03.340,-0.419,0.571,0.864,-45.349,-33.813,36.377, , , , , , ,-9.097,-4.131,-110.825
 09:47:31.069,eb:33:2e:f9:57:b5, 2015-01-01 00:36:03.340,-0.446,0.649,0.861,-41.565,-34.302,38.513, , , , , , ,-9.338,-4.274,-110.61
 09:47:31.069,eb:33:2e:f9:57:b5, 2015-01-01 00:36:03.340,-0.471,0.723,0.879,-37.231,-33.63,40.466, , , , , , ,-9.553,-4.411,-110.385
 09:47:31.069,eb:33:2e:f9:57:b5, 2015-01-01 00:36:03.340,-0.489,0.813,0.899,-32.288,-31.86,41.992, , , , , , ,-9.745,-4.537,-110.149
 09:47:31.069,eb:33:2e:f9:57:b5, 2015-01-01 00:36:03.340,-0.5,0.914,0.905,-26.855,-29.907,42.786, , , , , , ,-9.91,-4.653,-109.913
 09:47:31.070,eb:33:2e:f9:57:b5, 2015-01-01 00:36:03.340,-0.517,1.019,0.901,-21.057,-28.259,42.542, , , , , , ,-10.052,-4.763,-109.677
 09:47:31.114,eb:33:2e:f9:57:b5, 2015-01-01 00:36:03.340,-0.548,1.123,0.899,-15.625,-26.794,41.626, , , , , , ,-10.162,-4.861,-109.446
 09:47:31.114,eb:33:2e:f9:57:b5, 2015-01-01 00:36:03.340,-0.584,1.218,0.915,-10.742,-24.841,40.894, , , , , , ,-10.245,-4.955,-109.226
 09:47:31.114,eb:33:2e:f9:57:b5, 2015-01-01 00:36:03.340,-0.621,1.321,0.958,-6.042,-21.24,40.771, , , , , , ,-10.305,-5.026,-109.001
 09:47:31.114,eb:33:2e:f9:57:b5, 2015-01-01 00:36:03.340,-0.511,1.436,1.016,-1.099,-15.808,41.321, , , , , , ,-10.349,-5.087,-108.787
 09:47:31.114,eb:33:2e:f9:57:b5, 2015-01-01 00:36:03.340,-1.68,1.698,1.524,49.072,-41.321,18.066, , , , , , ,-10.294,-5.153,-108.589
 09:47:31.114,eb:33:2e:f9:57:b5, 2015-01-01 00:36:03.340,-3.535,2.131,7.982,216.614,158.936,59.082, , , , , , ,-9.492,-4.691,-108.512
 09:47:31.114,eb:33:2e:f9:57:b5, 2015-01-01 00:36:03.340,-1.261,4.325,0.963,246.216,67.505,121.094, , , , , , ,-8.311,-4.037,-108.083
 09:47:31.115,eb:33:2e:f9:57:b5, 2015-01-01 00:36:03.340,-1.787,3.548,2.206,274.353,64.087,151.428, , , , , , ,-7.042,-3.68,-107.424
 09:47:31.160,eb:33:2e:f9:57:b5, 2015-01-01 00:36:03.340,-1.838,3.782,1.736,261.475,110.352,164.551, , , , , , ,-5.729,-3.098,-106.688
 09:47:31.160,eb:33:2e:f9:57:b5, 2015-01-01 00:36:03.340,-0.458,3.671,0.785,203.125,67.078,135.254, , , , , , ,-4.625,-2.631,-105.974
 09:47:31.160,eb:33:2e:f9:57:b5, 2015-01-01 00:36:03.340,-0.904,3.268,0.98,135.742,112.122,88.867, , , , , , ,-3.818,-2.115,-105.474
 09:47:31.160,eb:33:2e:f9:57:b5, 2015-01-01 00:36:03.340,-0.495,3.047,0.342,40.894,67.078,42.664, , , , , , ,-3.433,-1.642,-105.2
 09:47:31.160,eb:33:2e:f9:57:b5, 2015-01-01 00:36:03.340,-0.372,2.098,0.549,-27.161,40.344,4.822, , , , , , ,-3.455,-1.406,-105.117
 09:47:31.160,eb:33:2e:f9:57:b5, 2015-01-01 00:36:03.340,-0.206,1.102,0.604,-56.274,23.987,-24.841, , , , , , ,-3.691,-1.241,-105.194
 09:47:31.161,eb:33:2e:f9:57:b5, 2015-01-01 00:36:03.340,0.271,-0.054,1.023,-37.598,-17.639,-54.016, , , , , , ,-3.928,-1.263,-105.403
 09:47:31.161,eb:33:2e:f9:57:b5, 2015-01-01 00:36:03.340,0.118,-0.975,1.107,-3.662,-20.203,-74.036, , , , , , ,-4.005,-1.395,-105.732
 09:47:31.204,eb:33:2e:f9:57:b5, 2015-01-01 00:36:03.340,0.553,-1.394,1.141,39.917,-21.179,-79.529, , , , , , ,-3.884,-1.522,-106.111
 09:47:31.204,eb:33:2e:f9:57:b5, 2015-01-01 00:36:03.340,0.772,-1.209,1.4,80.933,5.066,-75.806, , , , , , ,-3.543,-1.599,-106.501
 09:47:31.204,eb:33:2e:f9:57:b5, 2015-01-01 00:36:03.340,0.845,-0.915,1.578,97.534,52.612,-47.485, , , , , , ,-3.071,-1.45,-106.82
 09:47:31.204,eb:33:2e:f9:57:b5, 2015-01-01 00:36:03.340,0.816,0.024,1.713,66.467,107.239,5.066, , , , , , ,-2.648,-1.005,-106.924
 09:47:31.204,eb:33:2e:f9:57:b5, 2015-01-01 00:36:03.340,0.025,0.509,1.626,34.546,111.389,26.306, , , , , , ,-2.433,-0.445,-106.842
 09:47:31.204,eb:33:2e:f9:57:b5, 2015-01-01 00:36:03.340,-0.245,0.469,1.14,22.766,111.206,23.315, , , , , , ,-2.307,0.104,-106.749
 09:47:31.204,eb:33:2e:f9:57:b5, 2015-01-01 00:36:03.340,-0.677,0.121,0.707,23.865,104.248,10.803, , , , , , ,-2.192,0.654,-106.677
 09:47:31.205,eb:33:2e:f9:57:b5, 2015-01-01 00:36:03.340,-0.719,-0.128,0.364,30.457,67.444,-5.554, , , , , , ,-2.049,1.071,-106.699
 09:47:31.248,eb:33:2e:f9:57:b5, 2015-01-01 00:36:03.720,-0.543,-0.223,0.46,28.259,34.302,-2.197, , , , , , ,-1.901,1.307,-106.732
 09:47:31.248,eb:33:2e:f9:57:b5, 2015-01-01 00:36:03.720,-0.116,-0.104,0.708,21.851,6.47,8.24, , , , , , ,-1.78,1.384,-106.71
 09:47:31.248,eb:33:2e:f9:57:b5, 2015-01-01 00:36:03.720,0.042,-0.054,1.04,21.057,6.104,10.315, , , , , , ,-1.675,1.412,-106.661
 09:47:31.248,eb:33:2e:f9:57:b5, 2015-01-01 00:36:03.720,0.171,0,1.06,24.109,5.249,4.883, , , , , , ,-1.56,1.439,-106.622
 09:47:31.248,eb:33:2e:f9:57:b5, 2015-01-01 00:36:03.720,0.276,0.033,1.115,26.123,9.827,0, , , , , , ,-1.434,1.478,-106.617
 09:47:31.248,eb:33:2e:f9:57:b5, 2015-01-01 00:36:03.720,0.228,0.068,1.174,26.123,21.423,-2.563, , , , , , ,-1.302,1.56,-106.617
 09:47:31.248,eb:33:2e:f9:57:b5, 2015-01-01 00:36:03.720,0.051,0.076,1.16,26.733,31.555,-6.042, , , , , , ,-1.17,1.697,-106.644
 09:47:31.248,eb:33:2e:f9:57:b5, 2015-01-01 00:36:03.720,-0.133,0.018,1.06,28.748,34.668,-9.216, , , , , , ,-1.033,1.868,-106.688
 09:47:31.271,eb:33:2e:f9:57:b5, 2015-01-01 00:36:03.720,-0.183,-0.007,0.945,30.212,28.992,-11.658, , , , , , ,-0.884,2.021,-106.743
 09:47:31.271,eb:33:2e:f9:57:b5, 2015-01-01 00:36:03.720,-0.11,-0.015,0.931,30.945,20.264,-12.939, , , , , , ,-0.736,2.142,-106.804
 09:47:31.271,eb:33:2e:f9:57:b5, 2015-01-01 00:36:03.720,-0.107,-0.039,0.999,32.654,16.724,-13.794, , , , , , ,-0.577,2.23,-106.875
 09:47:31.271,eb:33:2e:f9:57:b5, 2015-01-01 00:36:03.720,-0.051,-0.056,1.015,35.522,13.306,-14.832, , , , , , ,-0.406,2.302,-106.946
 09:47:31.271,eb:33:2e:f9:57:b5, 2015-01-01 00:36:03.720,0.098,-0.009,1.035,37.903,10.62,-16.418, , , , , , ,-0.225,2.357,-107.023
 09:47:31.271,eb:33:2e:f9:57:b5, 2015-01-01 00:36:03.720,0.135,0.012,1.145,39.612,17.334,-17.029, , , , , , ,-0.033,2.428,-107.106
 09:47:31.271,eb:33:2e:f9:57:b5, 2015-01-01 00:36:03.720,0.081,0.011,1.152,41.443,26.855,-17.517, , , , , , ,0.159,2.543,-107.194
 09:47:31.271,eb:33:2e:f9:57:b5, 2015-01-01 00:36:03.720,0,0.029,1.104,41.992,31.616,-18.433, , , , , , ,0.368,2.692,-107.287
 09:47:31.338,eb:33:2e:f9:57:b5, 2015-01-01 00:36:03.720,-0.126,0.003,1.042,41.321,34.241,-17.639, , , , , , ,0.571,2.862,-107.375
 09:47:31.338,eb:33:2e:f9:57:b5, 2015-01-01 00:36:03.720,-0.151,-0.013,0.969,39.856,30.518,-16.113, , , , , , ,0.769,3.021,-107.446
 09:47:31.338,eb:33:2e:f9:57:b5, 2015-01-01 00:36:03.720,-0.123,0.025,0.941,37.415,26.672,-14.771, , , , , , ,0.956,3.164,-107.523
 09:47:31.338,eb:33:2e:f9:57:b5, 2015-01-01 00:36:03.720,-0.065,0.014,0.961,35.522,23.743,-13.062, , , , , , ,1.137,3.29,-107.589
 09:47:31.338,eb:33:2e:f9:57:b5, 2015-01-01 00:36:03.720,-0.061,0.051,0.974,33.997,23.621,-11.963, , , , , , ,1.307,3.411,-107.65
 09:47:31.338,eb:33:2e:f9:57:b5, 2015-01-01 00:36:03.720,0.006,0.013,1.037,33.325,23.56,-10.498, , , , , , ,1.472,3.527,-107.688
 09:47:31.338,eb:33:2e:f9:57:b5, 2015-01-01 00:36:03.720,0.03,0.046,1.096,32.532,25.574,-10.437, , , , , , ,1.631,3.653,-107.737
 09:47:31.338,eb:33:2e:f9:57:b5, 2015-01-01 00:36:03.720,0.022,0.032,1.137,32.715,28.992,-10.193, , , , , , ,1.791,3.79,-107.787
 09:47:31.361,eb:33:2e:f9:57:b5, 2015-01-01 00:36:03.720,0.021,0.029,1.182,34.302,30.762,-10.437, , , , , , ,1.956,3.944,-107.831
 09:47:31.361,eb:33:2e:f9:57:b5, 2015-01-01 00:36:03.720,-0.071,0.013,1.126,35.278,34.546,-10.62, , , , , , ,2.126,4.109,-107.869
 09:47:31.361,eb:33:2e:f9:57:b5, 2015-01-01 00:36:03.720,-0.077,0.026,1.083,36.194,31.25,-9.644, , , , , , ,2.302,4.274,-107.908
 09:47:31.361,eb:33:2e:f9:57:b5, 2015-01-01 00:36:03.720,-0.107,0.016,1.135,37.048,28.198,-8.362, , , , , , ,2.483,4.422,-107.946
 09:47:31.361,eb:33:2e:f9:57:b5, 2015-01-01 00:36:03.720,-0.095,-0.007,1.186,41.382,20.325,-5.859, , , , , , ,2.681,4.543,-107.979
 09:47:31.361,eb:33:2e:f9:57:b5, 2015-01-01 00:36:03.720,-0.143,-0.036,1.223,45.532,15.686,-3.174, , , , , , ,2.895,4.631,-107.985
 09:47:31.362,eb:33:2e:f9:57:b5, 2015-01-01 00:36:03.720,-0.201,-0.07,1.336,52.185,10.193,1.221, , , , , , ,3.142,4.691,-107.985
 09:47:31.362,eb:33:2e:f9:57:b5, 2015-01-01 00:36:03.720,-0.325,-0.201,1.642,66.223,7.69,8.789, , , , , , ,3.444,4.73,-107.957
 09:47:31.450,eb:33:2e:f9:57:b5, 2015-01-01 00:36:03.720,-0.368,-0.312,1.963,84.351,6.714,19.958, , , , , , ,3.834,4.757,-107.88
 09:47:31.450,eb:33:2e:f9:57:b5, 2015-01-01 00:36:03.720,-0.523,-0.379,2.352,102.844,21.179,30.823, , , , , , ,4.318,4.818,-107.726
 09:47:31.450,eb:33:2e:f9:57:b5, 2015-01-01 00:36:03.720,-0.557,-0.344,2.26,129.517,12.024,39.917, , , , , , ,4.927,4.911,-107.534
 09:47:31.450,eb:33:2e:f9:57:b5, 2015-01-01 00:36:03.720,-0.573,-0.457,2.492,158.447,-9.338,47.241, , , , , , ,5.68,4.878,-107.32
 09:47:31.451,eb:33:2e:f9:57:b5, 2015-01-01 00:36:03.720,-0.37,-0.677,3.272,190.308,-18.921,57.312, , , , , , ,6.586,4.768,-107.067
 09:47:31.451,eb:33:2e:f9:57:b5, 2015-01-01 00:36:03.720,-0.099,-0.855,3.568,230.53,-15.686,67.749, , , , , , ,7.685,4.642,-106.743
 09:47:31.451,eb:33:2e:f9:57:b5, 2015-01-01 00:36:03.720,0.369,-0.84,3.926,271.912,-15.686,69.031, , , , , , ,8.981,4.51,-106.414
 09:47:31.451,eb:33:2e:f9:57:b5, 2015-01-01 00:36:03.720,0.682,-0.896,4.09,317.139,8.911,65.43, , , , , , ,10.508,4.449,-106.084
 09:47:31.451,eb:33:2e:f9:57:b5, 2015-01-01 00:36:03.720,1.158,-0.909,4.253,359.314,29.297,54.321, , , , , , ,12.239,4.488,-105.771
 09:47:31.451,eb:33:2e:f9:57:b5, 2015-01-01 00:36:03.720,1.272,-0.988,3.952,402.649,65.125,40.405, , , , , , ,14.194,4.686,-105.469
 09:47:31.451,eb:33:2e:f9:57:b5, 2015-01-01 00:36:03.720,1.5,-0.657,3.701,429.016,75.195,13.306, , , , , , ,16.304,5.004,-105.26
 09:47:31.452,eb:33:2e:f9:57:b5, 2015-01-01 00:36:03.720,1.324,-1.06,3.417,468.018,113.342,-5.188, , , , , , ,18.578,5.46,-105.112
 09:47:31.452,eb:33:2e:f9:57:b5, 2015-01-01 00:36:03.720,1.135,-0.923,3.054,493.652,127.441,-27.039, , , , , , ,21.006,6.064,-104.991
 09:47:31.452,eb:33:2e:f9:57:b5, 2015-01-01 00:36:03.720,0.896,-0.861,2.975,519.653,145.203,-47.791, , , , , , ,23.566,6.779,-104.881
 09:47:31.454,eb:33:2e:f9:57:b5, 2015-01-01 00:36:03.720,0.72,-1.021,3.013,532.959,149.109,-58.289, , , , , , ,26.213,7.564,-104.826
 09:47:31.454,eb:33:2e:f9:57:b5, 2015-01-01 00:36:03.720,0.66,-0.904,2.547,545.105,155.579,-74.707, , , , , , ,28.916,8.421,-104.782
 09:47:31.473,eb:33:2e:f9:57:b5, 2015-01-01 00:36:03.720,0.571,-0.956,2.344,543.945,142.639,-82.52, , , , , , ,31.641,9.25,-104.76
 09:47:31.473,eb:33:2e:f9:57:b5, 2015-01-01 00:36:03.720,0.588,-0.914,1.914,548.096,129.028,-96.008, , , , , , ,34.371,10.063,-104.722
 09:47:31.473,eb:33:2e:f9:57:b5, 2015-01-01 00:36:03.720,0.498,-0.765,2.065,546.997,108.765,-108.521, , , , , , ,37.09,10.838,-104.81
 09:47:31.473,eb:33:2e:f9:57:b5, 2015-01-01 00:36:03.720,0.256,-0.804,2.405,541.87,111.267,-107.544, , , , , , ,39.781,11.607,-104.914
 09:47:31.473,eb:33:2e:f9:57:b5, 2015-01-01 00:36:03.720,0.051,-0.634,2.578,526.428,123.901,-102.478, , , , , , ,42.451,12.398,-104.914
 09:47:31.473,eb:33:2e:f9:57:b5, 2015-01-01 00:36:03.720,-0.121,-0.342,2.973,501.038,126.16,-88.135, , , , , , ,45.022,13.167,-104.777
 09:47:31.473,eb:33:2e:f9:57:b5, 2015-01-01 00:36:03.720,-0.123,0.6,3.375,464.111,133.24,-80.872, , , , , , ,47.477,13.958,-104.573
 09:47:31.473,eb:33:2e:f9:57:b5, 2015-01-01 00:36:03.720,0.186,-0.471,2.786,416.748,139.832,-52.063, , , , , , ,49.713,14.628,-104.304
 09:47:31.516,eb:33:2e:f9:57:b5, 2015-01-01 00:36:03.720,-0.632,-0.164,1.192,337.891,182.8,-34.119, , , , , , ,51.718,15.309,-103.766
 09:47:31.516,eb:33:2e:f9:57:b5, 2015-01-01 00:36:03.720,-0.621,-2.49,-1.646,194.336,162.415,33.569, , , , , , ,53.179,15.837,-103.002
 09:47:31.516,eb:33:2e:f9:57:b5, 2015-01-01 00:36:03.720,-0.852,-4.424,-2.2,88.44,177.368,178.589, , , , , , ,54.08,15.82,-101.937
 09:47:31.516,eb:33:2e:f9:57:b5, 2015-01-01 00:36:03.720,-0.369,-2.345,-0.951,60.303,109.497,270.691, , , , , , ,54.8,15.293,-100.58
 09:47:31.516,eb:33:2e:f9:57:b5, 2015-01-01 00:36:03.720,0.119,-0.393,0.758,-15.32,58.411,304.932, , , , , , ,55.162,14.288,-99.432
 09:47:31.516,eb:33:2e:f9:57:b5, 2015-01-01 00:36:03.720,0.311,-0.709,1.929,-48.401,72.205,327.637, , , , , , ,55.256,13.162,-98.152
 09:47:31.516,eb:33:2e:f9:57:b5, 2015-01-01 00:36:03.720,0.51,-1.197,2.493,-42.419,109.07,329.041, , , , , , ,55.311,12.068,-96.801
 09:47:31.516,eb:33:2e:f9:57:b5, 2015-01-01 00:36:03.720,0.907,-1.02,2.352,-10.803,128.235,310.181, , , , , , ,55.459,11.102,-95.372
 09:47:31.564,eb:33:2e:f9:57:b5, 2015-01-01 00:36:03.720,1.167,-0.473,2.232,25.269,129.456,274.292, , , , , , ,55.767,10.272,-93.994
 09:47:31.564,eb:33:2e:f9:57:b5, 2015-01-01 00:36:03.720,1.245,-0.085,2.044,61.096,114.868,222.046, , , , , , ,56.212,9.602,-92.736
 09:47:31.564,eb:33:2e:f9:57:b5, 2015-01-01 00:36:03.720,1.254,-0.014,1.648,95.642,81.421,159.79, , , , , , ,56.772,9.097,-91.807
 09:47:31.564,eb:33:2e:f9:57:b5, 2015-01-01 00:36:03.720,1.259,-0.123,1.296,122.131,31.738,93.018, , , , , , ,57.398,8.734,-91.28
 09:47:31.564,eb:33:2e:f9:57:b5, 2015-01-01 00:36:03.720,1.201,-0.325,1.232,134.583,-16.785,26.794, , , , , , ,58.074,8.514,-91.126
 09:47:31.564,eb:33:2e:f9:57:b5, 2015-01-01 00:36:03.720,1.087,-0.583,1.485,132.69,-50.537,-34.363, , , , , , ,58.716,8.459,-91.263
 09:47:31.564,eb:33:2e:f9:57:b5, 2015-01-01 00:36:03.720,0.857,-0.786,1.91,118.713,-61.279,-89.233, , , , , , ,59.282,8.597,-91.697
 09:47:31.564,eb:33:2e:f9:57:b5, 2015-01-01 00:36:03.720,0.678,-0.907,2.25,95.154,-51.636,-138.062, , , , , , ,59.7,8.965,-92.269
 09:47:31.610,eb:33:2e:f9:57:b5, 2015-01-01 00:36:03.720,0.748,-1.083,2.551,67.627,-21.24,-180.298, , , , , , ,60.002,9.58,-92.845
 09:47:31.610,eb:33:2e:f9:57:b5, 2015-01-01 00:36:03.720,0.977,-1.424,2.92,41.931,31.799,-216.431, , , , , , ,60.178,10.481,-93.252
 09:47:31.610,eb:33:2e:f9:57:b5, 2015-01-01 00:36:03.720,1.07,-1.875,3.092,21.606,97.473,-244.934, , , , , , ,60.271,11.678,-93.532
 09:47:31.610,eb:33:2e:f9:57:b5, 2015-01-01 00:36:03.720,1.013,-2.272,2.903,8.423,154.236,-265.808, , , , , , ,60.293,13.123,-93.615
 09:47:31.610,eb:33:2e:f9:57:b5, 2015-01-01 00:36:03.720,0.907,-2.46,2.349,-1.343,182.983,-280.457, , , , , , ,60.326,14.749,-93.538
 09:47:31.610,eb:33:2e:f9:57:b5, 2015-01-01 00:36:03.720,0.763,-2.389,1.651,-15.076,177.368,-290.283, , , , , , ,60.304,16.447,-93.395
 09:47:31.610,eb:33:2e:f9:57:b5, 2015-01-01 00:36:03.720,0.6,-2.182,1.173,-33.325,146.545,-295.227, , , , , , ,60.161,18.116,-93.428
 09:47:31.610,eb:33:2e:f9:57:b5, 2015-01-01 00:36:03.720,0.4,-1.976,1.153,-51.27,107.483,-294.189, , , , , , ,59.837,19.698,-93.669
 09:47:31.630,eb:33:2e:f9:57:b5, 2015-01-01 00:36:03.720,0.23,-1.799,1.452,-66.589,72.083,-285.889, , , , , , ,59.398,21.165,-94.059
 09:47:31.630,eb:33:2e:f9:57:b5, 2015-01-01 00:36:03.720,0.122,-1.729,1.903,-78.369,50.354,-268.555, , , , , , ,58.843,22.495,-94.493
 09:47:31.630,eb:33:2e:f9:57:b5, 2015-01-01 00:36:03.720,0.052,-1.82,2.353,-85.022,49.683,-242.493, , , , , , ,58.233,23.703,-94.988
 09:47:31.631,eb:33:2e:f9:57:b5, 2015-01-01 00:36:03.720,0.04,-2.039,2.66,-84.229,66.528,-200.806, , , , , , ,57.618,24.78,-95.378
 09:47:31.631,eb:33:2e:f9:57:b5, 2015-01-01 00:36:03.720,-0.078,-2.173,2.732,-77.82,87.891,-160.645, , , , , , ,57.145,25.735,-95.543
 09:47:31.631,eb:33:2e:f9:57:b5, 2015-01-01 00:36:03.720,-0.144,-2.127,2.434,-68.115,95.825,-120.483, , , , , , ,56.794,26.57,-95.444
 09:47:31.631,eb:33:2e:f9:57:b5, 2015-01-01 00:36:03.720,-0.103,-1.926,1.999,-55.664,77.332,-81.97, , , , , , ,56.541,27.213,-95.339
 09:47:31.631,eb:33:2e:f9:57:b5, 2015-01-01 00:36:03.720,-0.105,-1.739,1.703,-45.105,46.631,-46.326, , , , , , ,56.288,27.62,-95.284
 09:47:31.675,eb:33:2e:f9:57:b5, 2015-01-01 00:36:03.720,-0.041,-1.645,1.491,-41.077,8.728,-13.123, , , , , , ,56.096,27.795,-95.251
 09:47:31.675,eb:33:2e:f9:57:b5, 2015-01-01 00:36:03.720,-0.002,-1.607,1.41,-46.753,-25.574,17.212, , , , , , ,55.854,27.74,-95.229
 09:47:31.675,eb:33:2e:f9:57:b5, 2015-01-01 00:36:03.720,0.036,-1.552,1.367,-62.805,-51.086,44.556, , , , , , ,55.536,27.482,-95.317
 09:47:31.675,eb:33:2e:f9:57:b5, 2015-01-01 00:36:03.720,0.131,-1.445,1.375,-86.548,-64.575,67.81, , , , , , ,55.063,27.065,-95.449
 09:47:31.675,eb:33:2e:f9:57:b5, 2015-01-01 00:36:03.720,0.251,-1.271,1.371,-114.319,-68.176,84.351, , , , , , ,54.525,26.548,-95.504
 09:47:31.675,eb:33:2e:f9:57:b5, 2015-01-01 00:36:03.720,0.394,-1.026,1.197,-144.104,-71.96,93.079, , , , , , ,53.855,25.977,-95.466
 09:47:31.675,eb:33:2e:f9:57:b5, 2015-01-01 00:36:03.720,0.554,-0.71,0.852,-175.598,-82.275,91.919, , , , , , ,53.02,25.373,-95.504
 09:47:31.675,eb:33:2e:f9:57:b5, 2015-01-01 00:36:03.720,0.652,-0.404,0.531,-206.604,-98.877,80.933, , , , , , ,51.949,24.741,-95.663
 09:47:31.742,eb:33:2e:f9:57:b5, 2015-01-01 00:36:04.170,0.724,-0.137,0.348,-234.192,-119.202,60.425, , , , , , ,50.735,24.126,-95.905
 09:47:31.742,eb:33:2e:f9:57:b5, 2015-01-01 00:36:04.170,0.771,0.055,0.34,-257.202,-136.353,33.508, , , , , , ,49.334,23.538,-96.24
 09:47:31.742,eb:33:2e:f9:57:b5, 2015-01-01 00:36:04.170,0.8,0.15,0.403,-278.198,-144.287,1.709, , , , , , ,47.774,23.011,-96.768
 09:47:31.742,eb:33:2e:f9:57:b5, 2015-01-01 00:36:04.170,0.782,0.143,0.426,-300.964,-142.517,-31.555, , , , , , ,46.022,22.577,-97.454
 09:47:31.742,eb:33:2e:f9:57:b5, 2015-01-01 00:36:04.170,0.753,0.02,0.469,-323.853,-133.545,-61.34, , , , , , ,44.171,22.269,-98.174
 09:47:31.743,eb:33:2e:f9:57:b5, 2015-01-01 00:36:04.170,0.68,-0.099,0.544,-343.14,-120.789,-86.548, , , , , , ,42.204,22.072,-98.888
 09:47:31.743,eb:33:2e:f9:57:b5, 2015-01-01 00:36:04.170,0.629,-0.141,0.426,-360.352,-119.507,-107.849, , , , , , ,40.128,21.951,-99.717
 09:47:31.743,eb:33:2e:f9:57:b5, 2015-01-01 00:36:04.170,0.577,-0.171,0.268,-377.808,-131.042,-125.488, , , , , , ,37.875,21.824,-100.684
 09:47:31.766,eb:33:2e:f9:57:b5, 2015-01-01 00:36:04.170,0.466,-0.261,0.201,-395.569,-150.879,-138.123, , , , , , ,35.552,21.654,-101.722
 09:47:31.766,eb:33:2e:f9:57:b5, 2015-01-01 00:36:04.170,0.354,-0.394,0.303,-412.781,-172.791,-143.25, , , , , , ,33.107,21.374,-102.805
 09:47:31.766,eb:33:2e:f9:57:b5, 2015-01-01 00:36:04.170,0.28,-0.541,0.601,-426.758,-188.11,-141.052, , , , , , ,30.575,20.973,-103.969
 09:47:31.766,eb:33:2e:f9:57:b5, 2015-01-01 00:36:04.170,0.225,-0.662,0.916,-436.035,-195.801,-131.592, , , , , , ,27.96,20.446,-105.15
 09:47:31.766,eb:33:2e:f9:57:b5, 2015-01-01 00:36:04.170,0.168,-0.752,1.075,-441.528,-201.904,-115.784, , , , , , ,25.4,19.83,-106.21
 09:47:31.766,eb:33:2e:f9:57:b5, 2015-01-01 00:36:04.170,0.114,-0.825,1.116,-443.176,-212.158,-94.177, , , , , , ,22.868,19.094,-107.117
 09:47:31.766,eb:33:2e:f9:57:b5, 2015-01-01 00:36:04.170,0.079,-0.879,1.161,-440.735,-226.807,-68.176, , , , , , ,20.396,18.215,-107.935
 09:47:31.766,eb:33:2e:f9:57:b5, 2015-01-01 00:36:04.170,0.053,-0.915,1.224,-434.021,-244.568,-38.879, , , , , , ,17.957,17.155,-108.633
 09:47:31.811,eb:33:2e:f9:57:b5, 2015-01-01 00:36:04.170,0.031,-0.909,1.297,-424.194,-263.733,-6.836, , , , , , ,15.677,15.958,-109.116
 09:47:31.811,eb:33:2e:f9:57:b5, 2015-01-01 00:36:04.170,0.009,-0.847,1.412,-411.377,-281.921,26.367, , , , , , ,13.513,14.612,-109.385
 09:47:31.811,eb:33:2e:f9:57:b5, 2015-01-01 00:36:04.170,-0.004,-0.715,1.542,-395.569,-297.607,58.289, , , , , , ,11.481,13.14,-109.479
 09:47:31.811,eb:33:2e:f9:57:b5, 2015-01-01 00:36:04.170,0.007,-0.515,1.679,-378.296,-309.875,86.487, , , , , , ,9.525,11.547,-109.418
 09:47:31.811,eb:33:2e:f9:57:b5, 2015-01-01 00:36:04.170,0.017,-0.26,1.851,-361.023,-316.406,108.948, , , , , , ,7.734,9.915,-109.149
 09:47:31.811,eb:33:2e:f9:57:b5, 2015-01-01 00:36:04.170,-0.025,0.051,2.1,-341.125,-317.749,127.197, , , , , , ,6.053,8.267,-108.721
 09:47:31.811,eb:33:2e:f9:57:b5, 2015-01-01 00:36:04.170,-0.106,0.316,2.254,-327.942,-320.007,136.963, , , , , , ,4.455,6.619,-108.199
 09:47:31.811,eb:33:2e:f9:57:b5, 2015-01-01 00:36:04.170,-0.196,0.599,2.377,-320.557,-323.12,143.188, , , , , , ,2.856,4.944,-107.628
 09:47:31.832,eb:33:2e:f9:57:b5, 2015-01-01 00:36:04.170,-0.3,0.893,2.52,-320.068,-326.538,148.01, , , , , , ,1.307,3.296,-106.957
 09:47:31.832,eb:33:2e:f9:57:b5, 2015-01-01 00:36:04.170,-0.388,1.228,2.629,-328.308,-329.773,152.1, , , , , , ,-0.28,1.642,-106.216
 09:47:31.832,eb:33:2e:f9:57:b5, 2015-01-01 00:36:04.170,-0.492,1.589,2.736,-344.116,-330.566,156.921, , , , , , ,-1.956,0.005,-105.408
 09:47:31.832,eb:33:2e:f9:57:b5, 2015-01-01 00:36:04.170,-0.589,1.939,2.854,-362.183,-328.918,162.903, , , , , , ,-3.79,-1.615,-104.551
 09:47:31.832,eb:33:2e:f9:57:b5, 2015-01-01 00:36:04.170,-0.675,2.296,2.986,-376.892,-323.608,168.884, , , , , , ,-5.691,-3.17,-103.585
 09:47:31.832,eb:33:2e:f9:57:b5, 2015-01-01 00:36:04.170,-0.635,2.705,3.075,-386.108,-322.937,173.767, , , , , , ,-7.674,-4.675,-102.557
 09:47:31.832,eb:33:2e:f9:57:b5, 2015-01-01 00:36:04.170,-0.576,3.114,3.317,-384.094,-319.214,176.697, , , , , , ,-9.712,-6.13,-101.442
 09:47:31.833,eb:33:2e:f9:57:b5, 2015-01-01 00:36:04.170,-0.48,3.536,3.622,-365.967,-308.533,175.476, , , , , , ,-11.766,-7.52,-100.289
 09:47:31.944,eb:33:2e:f9:57:b5, 2015-01-01 00:36:04.170,-0.378,3.962,3.875,-336.426,-291.26,168.762, , , , , , ,-13.678,-8.789,-99.113
 09:47:31.944,eb:33:2e:f9:57:b5, 2015-01-01 00:36:04.170,-0.316,4.356,3.98,-303.101,-267.944,156.494, , , , , , ,-15.447,-9.926,-97.998
 09:47:31.944,eb:33:2e:f9:57:b5, 2015-01-01 00:36:04.170,-0.254,4.722,3.963,-268.555,-242.31,138.367, , , , , , ,-17.056,-10.937,-96.927
 09:47:31.944,eb:33:2e:f9:57:b5, 2015-01-01 00:36:04.170,-0.193,5.072,3.926,-232.178,-215.088,115.417, , , , , , ,-18.517,-11.832,-95.977
 09:47:31.944,eb:33:2e:f9:57:b5, 2015-01-01 00:36:04.170,-0.174,5.372,3.85,-195.557,-186.768,89.111, , , , , , ,-19.737,-12.607,-95.164
 09:47:31.944,eb:33:2e:f9:57:b5, 2015-01-01 00:36:04.170,-0.202,5.587,3.666,-162.048,-161.194,60.974, , , , , , ,-20.759,-13.282,-94.554
 09:47:31.944,eb:33:2e:f9:57:b5, 2015-01-01 00:36:04.170,-0.29,5.698,3.424,-130.798,-140.93,32.593, , , , , , ,-21.594,-13.898,-94.07
 09:47:31.945,eb:33:2e:f9:57:b5, 2015-01-01 00:36:04.170,-0.428,5.722,3.148,-100.586,-127.869,4.822, , , , , , ,-22.264,-14.491,-93.741
 09:47:31.948,eb:33:2e:f9:57:b5, 2015-01-01 00:36:04.170,-0.586,5.637,2.845,-70.984,-120.239,-20.996, , , , , , ,-22.725,-15.079,-93.554
 09:47:31.948,eb:33:2e:f9:57:b5, 2015-01-01 00:36:04.170,-0.759,5.427,2.547,-41.87,-113.892,-43.579, , , , , , ,-23.011,-15.683,-93.532
 09:47:31.948,eb:33:2e:f9:57:b5, 2015-01-01 00:36:04.170,-0.916,5.092,2.307,-13.794,-106.323,-61.401, , , , , , ,-23.126,-16.298,-93.571
 09:47:31.948,eb:33:2e:f9:57:b5, 2015-01-01 00:36:04.170,-1.049,4.686,2.177,12.634,-93.323,-74.707, , , , , , ,-23.093,-16.897,-93.702
 09:47:31.948,eb:33:2e:f9:57:b5, 2015-01-01 00:36:04.170,-1.147,4.235,2.132,37.17,-73.669,-83.618, , , , , , ,-22.89,-17.43,-93.922
 09:47:31.948,eb:33:2e:f9:57:b5, 2015-01-01 00:36:04.170,-1.213,3.775,2.078,58.594,-47.729,-88.257, , , , , , ,-22.549,-17.869,-94.274
 09:47:31.948,eb:33:2e:f9:57:b5, 2015-01-01 00:36:04.170,-1.283,3.322,1.974,76.965,-19.104,-88.867, , , , , , ,-22.083,-18.177,-94.647
 09:47:31.948,eb:33:2e:f9:57:b5, 2015-01-01 00:36:04.170,-1.374,2.868,1.765,93.872,6.165,-85.754, , , , , , ,-21.528,-18.364,-95.065
 09:47:31.968,eb:33:2e:f9:57:b5, 2015-01-01 00:36:04.170,-1.509,2.39,1.439,110.474,23.438,-78.125, , , , , , ,-20.869,-18.43,-95.499
 09:47:31.968,eb:33:2e:f9:57:b5, 2015-01-01 00:36:04.170,1.997,1.928,1.059,126.77,28.809,-65.063, , , , , , ,-20.138,-18.424,-95.938
 09:47:31.968,eb:33:2e:f9:57:b5, 2015-01-01 00:36:04.170,-0.895,1.375,7.076,460.388,-49.805,-188.293, , , , , , ,-18.495,-19.072,-96.509
 09:47:31.968,eb:33:2e:f9:57:b5, 2015-01-01 00:36:04.170,2.081,6.678,-1.321,574.829,376.404,-239.868, , , , , , ,-15.255,-17.748,-98.047
 09:47:31.969,eb:33:2e:f9:57:b5, 2015-01-01 00:36:04.170,-3.495,4.294,2.086,546.875,403.503,-365.601, , , , , , ,-11.816,-16.425,-100.217
 09:47:31.969,eb:33:2e:f9:57:b5, 2015-01-01 00:36:04.170,-0.402,-0.927,3.741,559.875,428.406,-86.426, , , , , , ,-8.58,-14.469,-101.827
 09:47:31.969,eb:33:2e:f9:57:b5, 2015-01-01 00:36:04.170,-1.567,4.452,4.736,349.67,389.465,-118.713, , , , , , ,-6.202,-12.667,-102.645
 09:47:31.969,eb:33:2e:f9:57:b5, 2015-01-01 00:36:04.170,0.284,1.935,3.481,207.764,357.788,-39.551, , , , , , ,-4.763,-10.838,-103.184
 09:47:32.013,eb:33:2e:f9:57:b5, 2015-01-01 00:36:04.170,-0.437,0.541,3.305,135.498,329.041,12.024, , , , , , ,-3.928,-9.19,-103.332
 09:47:32.013,eb:33:2e:f9:57:b5, 2015-01-01 00:36:04.170,-0.069,0.176,1.272,119.263,191.833,10.559, , , , , , ,-3.296,-7.927,-103.343
 09:47:32.013,eb:33:2e:f9:57:b5, 2015-01-01 00:36:04.170,0.087,-0.79,0.893,137.268,146.423,3.845, , , , , , ,-2.664,-7.152,-103.354
 09:47:32.013,eb:33:2e:f9:57:b5, 2015-01-01 00:36:04.170,0.217,-0.325,1,164.307,194.031,-12.878, , , , , , ,-1.879,-6.323,-103.403
 09:47:32.013,eb:33:2e:f9:57:b5, 2015-01-01 00:36:04.170,0.42,-0.221,1.102,186.279,226.746,-17.761, , , , , , ,-0.961,-5.197,-103.508
 09:47:32.013,eb:33:2e:f9:57:b5, 2015-01-01 00:36:04.170,-0.244,1.022,1.033,150.33,184.57,-26.611, , , , , , ,-0.104,-4.219,-103.629
 09:47:32.014,eb:33:2e:f9:57:b5, 2015-01-01 00:36:04.170,-0.277,1.147,0.324,99.915,166.87,-25.024, , , , , , ,0.483,-3.318,-103.771
 09:47:32.016,eb:33:2e:f9:57:b5, 2015-01-01 00:36:04.170,0.182,0.491,0.102,75.806,128.174,-24.902, , , , , , ,0.912,-2.615,-103.881
 09:47:32.058,eb:33:2e:f9:57:b5, 2015-01-01 00:36:04.170,-0.288,0.465,0.541,62.866,117.493,-32.654, , , , , , ,1.263,-2.016,-104.019
 09:47:32.058,eb:33:2e:f9:57:b5, 2015-01-01 00:36:04.170,-0.707,0.17,0.595,50.171,113.708,-25.757, , , , , , ,1.538,-1.417,-104.15
 09:47:32.058,eb:33:2e:f9:57:b5, 2015-01-01 00:36:04.170,-0.377,-0.015,0.681,48.035,78.369,-23.01, , , , , , ,1.78,-0.956,-104.255
 09:47:32.058,eb:33:2e:f9:57:b5, 2015-01-01 00:36:04.170,-0.044,-0.078,1.018,52.856,64.453,-25.635, , , , , , ,2.043,-0.61,-104.365
 09:47:32.058,eb:33:2e:f9:57:b5, 2015-01-01 00:36:04.170,0.078,-0.016,1.18,59.021,66.223,-30.823, , , , , , ,2.324,-0.28,-104.496
 09:47:32.058,eb:33:2e:f9:57:b5, 2015-01-01 00:36:04.170,-0.163,0.104,1.201,61.279,74.219,-35.217, , , , , , ,2.631,0.077,-104.65
 09:47:32.059,eb:33:2e:f9:57:b5, 2015-01-01 00:36:04.170,-0.311,0.096,0.957,58.96,73.975,-33.142, , , , , , ,2.928,0.461,-104.804
 09:47:32.059,eb:33:2e:f9:57:b5, 2015-01-01 00:36:04.170,-0.371,0.035,0.864,58.105,60.364,-28.687, , , , , , ,3.224,0.797,-104.936
 09:47:32.102,eb:33:2e:f9:57:b5, 2015-01-01 00:36:04.170,-0.33,0.045,0.849,55.847,47.058,-24.536, , , , , , ,3.505,1.066,-105.057
 09:47:32.102,eb:33:2e:f9:57:b5, 2015-01-01 00:36:04.170,-0.072,-0.039,0.994,56.58,31.677,-18.555, , , , , , ,3.779,1.258,-105.15
 09:47:32.102,eb:33:2e:f9:57:b5, 2015-01-01 00:36:04.170,0.051,0.025,1.326,57.312,32.898,-14.16, , , , , , ,4.065,1.417,-105.216
 09:47:32.102,eb:33:2e:f9:57:b5, 2015-01-01 00:36:04.170,-0.004,0.134,1.213,55.908,33.325,-14.16, , , , , , ,4.351,1.593,-105.271
 09:47:32.102,eb:33:2e:f9:57:b5, 2015-01-01 00:36:04.170,0.124,-0.023,1.465,56.946,36.011,-13.184, , , , , , ,4.631,1.774,-105.326
 09:47:32.102,eb:33:2e:f9:57:b5, 2015-01-01 00:36:04.170,0.123,0.163,1.417,59.509,28.137,-9.949, , , , , , ,4.922,1.934,-105.364
 09:47:32.102,eb:33:2e:f9:57:b5, 2015-01-01 00:36:04.170,-0.381,0.006,1.771,67.627,24.475,0.732, , , , , , ,5.24,2.06,-105.381
 09:47:32.102,eb:33:2e:f9:57:b5, 2015-01-01 00:36:04.170,-0.108,-0.459,2.06,82.52,8.057,30.334, , , , , , ,5.63,2.142,-105.276
 09:47:32.147,eb:33:2e:f9:57:b5, 2015-01-01 00:36:04.570,-0.426,-0.241,2.025,103.882,-7.202,47.058, , , , , , ,6.108,2.109,-105.068
 09:47:32.147,eb:33:2e:f9:57:b5, 2015-01-01 00:36:04.570,-0.841,-0.364,2.842,149.292,-25.879,52.673, , , , , , ,6.768,1.983,-104.815
 09:47:32.147,eb:33:2e:f9:57:b5, 2015-01-01 00:36:04.570,-1.066,-1.122,3.968,231.812,-62.5,67.383, , , , , , ,7.751,1.714,-104.551
 09:47:32.147,eb:33:2e:f9:57:b5, 2015-01-01 00:36:04.570,-0.506,-1.068,4.651,292.542,-79.163,75.012, , , , , , ,9.119,1.28,-104.249
 09:47:32.147,eb:33:2e:f9:57:b5, 2015-01-01 00:36:04.570,-0.096,-1.28,4.813,366.394,-49.866,91.675, , , , , , ,10.827,0.906,-103.876
 09:47:32.147,eb:33:2e:f9:57:b5, 2015-01-01 00:36:04.570,0.222,-1.907,5.198,418.64,-58.899,83.435, , , , , , ,12.744,0.489,-103.557
 09:47:32.147,eb:33:2e:f9:57:b5, 2015-01-01 00:36:04.570,0.803,-1.549,4.726,479.736,-68.542,75.195, , , , , , ,15.024,0.104,-103.244
 09:47:32.148,eb:33:2e:f9:57:b5, 2015-01-01 00:36:04.570,1.224,-1.422,4.991,530.09,-50.659,56.702, , , , , , ,17.573,-0.242,-103.024
 09:47:32.169,eb:33:2e:f9:57:b5, 2015-01-01 00:36:04.570,1.486,-1.608,5.1,588.745,-13.672,31.006, , , , , , ,20.391,-0.45,-102.887
 09:47:32.169,eb:33:2e:f9:57:b5, 2015-01-01 00:36:04.570,0.982,-1.465,4.676,642.7,15.686,2.197, , , , , , ,23.5,-0.45,-102.794
 09:47:32.170,eb:33:2e:f9:57:b5, 2015-01-01 00:36:04.570,1.405,-1.239,4.415,691.895,29.846,-38.391, , , , , , ,26.867,-0.236,-102.832
 09:47:32.170,eb:33:2e:f9:57:b5, 2015-01-01 00:36:04.570,1.063,-1.386,4.245,713.623,42.114,-63.843, , , , , , ,30.383,0.038,-103.002
 09:47:32.170,eb:33:2e:f9:57:b5, 2015-01-01 00:36:04.570,1.322,-1.151,4.008,711.121,41.687,-88.806, , , , , , ,33.948,0.45,-103.228
 09:47:32.170,eb:33:2e:f9:57:b5, 2015-01-01 00:36:04.570,0.97,-1.105,4.074,721.68,79.224,-110.657, , , , , , ,37.535,1,-103.414
 09:47:32.170,eb:33:2e:f9:57:b5, 2015-01-01 00:36:04.570,0.518,-0.792,4.503,719.482,101.562,-116.516, , , , , , ,41.127,1.703,-103.579
 09:47:32.170,eb:33:2e:f9:57:b5, 2015-01-01 00:36:04.570,0.178,-0.225,4.871,706.97,145.02,-112.915, , , , , , ,44.692,2.565,-103.563
 09:47:32.215,eb:33:2e:f9:57:b5, 2015-01-01 00:36:04.570,-0.237,1.272,5.337,684.265,203.247,-120.544, , , , , , ,48.186,3.576,-103.326
 09:47:32.215,eb:33:2e:f9:57:b5, 2015-01-01 00:36:04.570,-1.078,0.221,4.886,656.006,245.361,-74.707, , , , , , ,51.592,4.636,-102.706
 09:47:32.215,eb:33:2e:f9:57:b5, 2015-01-01 00:36:04.570,0.129,0.022,1.317,532.715,227.234,-23.499, , , , , , ,54.619,5.554,-101.843
 09:47:32.215,eb:33:2e:f9:57:b5, 2015-01-01 00:36:04.570,0.753,0.559,-1.479,372.986,195.496,9.766, , , , , , ,56.871,6.119,-101.036
 09:47:32.215,eb:33:2e:f9:57:b5, 2015-01-01 00:36:04.570,0.86,-0.656,-0.904,260.01,226.379,49.622, , , , , , ,58.453,6.531,-100.052
 09:47:32.215,eb:33:2e:f9:57:b5, 2015-01-01 00:36:04.570,0.551,0.068,-0.43,266.052,219.055,70.312, , , , , , ,59.897,6.872,-98.828
 09:47:32.215,eb:33:2e:f9:57:b5, 2015-01-01 00:36:04.570,0.624,2.301,0.537,204.285,170.349,57.983, , , , , , ,61.177,7.059,-97.828
 09:47:32.215,eb:33:2e:f9:57:b5, 2015-01-01 00:36:04.570,1.004,2.079,1.964,173.767,95.093,44.861, , , , , , ,62.144,7.13,-97.185
 09:47:32.238,eb:33:2e:f9:57:b5, 2015-01-01 00:36:04.570,0.705,1.053,3.832,187.683,94.91,26.855, , , , , , ,63.1,7.185,-96.696
 09:47:32.238,eb:33:2e:f9:57:b5, 2015-01-01 00:36:04.570,0.623,0.363,4.146,237.976,97.717,-1.16, , , , , , ,64.237,7.361,-96.163
 09:47:32.238,eb:33:2e:f9:57:b5, 2015-01-01 00:36:04.570,0.443,0.113,4.075,299.683,78.613,-28.32, , , , , , ,65.66,7.625,-95.801
 09:47:32.238,eb:33:2e:f9:57:b5, 2015-01-01 00:36:04.570,0.39,-0.173,4.002,348.328,48.95,-53.833, , , , , , ,67.319,7.943,-95.625
 09:47:32.238,eb:33:2e:f9:57:b5, 2015-01-01 00:36:04.570,0.382,-0.448,4.08,372.559,30.579,-78.857, , , , , , ,69.148,8.333,-95.587
 09:47:32.238,eb:33:2e:f9:57:b5, 2015-01-01 00:36:04.570,0.463,-0.776,4.144,378.418,19.775,-101.501, , , , , , ,71.027,8.811,-95.554
 09:47:32.238,eb:33:2e:f9:57:b5, 2015-01-01 00:36:04.570,0.68,-1.117,4.321,373.962,11.169,-122.742, , , , , , ,72.889,9.371,-95.669
 09:47:32.238,eb:33:2e:f9:57:b5, 2015-01-01 00:36:04.570,0.744,-1.525,4.718,361.938,29.48,-142.212, , , , , , ,74.68,10.047,-95.784
 09:47:32.283,eb:33:2e:f9:57:b5, 2015-01-01 00:36:04.570,0.85,-1.942,4.762,340.82,63.293,-159.546, , , , , , ,76.437,10.849,-95.735
 09:47:32.283,eb:33:2e:f9:57:b5, 2015-01-01 00:36:04.570,1.117,-2.37,4.501,312.012,101.135,-174.683, , , , , , ,78.107,11.761,-95.416
 09:47:32.283,eb:33:2e:f9:57:b5, 2015-01-01 00:36:04.570,1.482,-2.732,4.14,277.405,136.841,-190.491, , , , , , ,79.656,12.783,-94.982
 09:47:32.283,eb:33:2e:f9:57:b5, 2015-01-01 00:36:04.570,1.674,-2.963,3.726,238.647,170.898,-208.557, , , , , , ,81.035,13.903,-94.384
 09:47:32.283,eb:33:2e:f9:57:b5, 2015-01-01 00:36:04.570,1.689,-3.026,3.129,197.388,190.979,-225.891, , , , , , ,82.299,15.123,-93.604
 09:47:32.283,eb:33:2e:f9:57:b5, 2015-01-01 00:36:04.570,1.65,-2.984,2.591,158.264,189.453,-242.249, , , , , , ,83.392,16.408,-92.686
 09:47:32.283,eb:33:2e:f9:57:b5, 2015-01-01 00:36:04.570,1.543,-2.889,2.262,123.047,167.786,-257.751, , , , , , ,84.309,17.754,-91.901
 09:47:32.283,eb:33:2e:f9:57:b5, 2015-01-01 00:36:04.570,1.355,-2.802,2.048,90.149,134.399,-269.836, , , , , , ,84.979,19.144,-91.291
 09:47:32.330,eb:33:2e:f9:57:b5, 2015-01-01 00:36:04.570,1.182,-2.79,1.994,59.326,99.487,-275.146, , , , , , ,85.501,20.55,-90.813
 09:47:32.330,eb:33:2e:f9:57:b5, 2015-01-01 00:36:04.570,1.001,-2.816,2.126,29.846,75.195,-272.278, , , , , , ,85.831,21.951,-90.396
 09:47:32.330,eb:33:2e:f9:57:b5, 2015-01-01 00:36:04.570,0.75,-2.83,2.306,1.831,63.477,-260.986, , , , , , ,85.995,23.302,-90.137
 09:47:32.330,eb:33:2e:f9:57:b5, 2015-01-01 00:36:04.570,0.381,-2.803,2.399,-24.902,60.486,-241.272, , , , , , ,85.968,24.565,-89.934
 09:47:32.330,eb:33:2e:f9:57:b5, 2015-01-01 00:36:04.570,0.083,-2.751,2.404,-55.054,61.584,-205.811, , , , , , ,85.858,25.692,-89.687
 09:47:32.330,eb:33:2e:f9:57:b5, 2015-01-01 00:36:04.570,-0.084,-2.736,2.383,-78.796,65.186,-166.504, , , , , , ,85.633,26.625,-89.33
 09:47:32.330,eb:33:2e:f9:57:b5, 2015-01-01 00:36:04.570,-0.128,-2.742,2.419,-102.112,75.073,-122.559, , , , , , ,85.32,27.356,-89
 09:47:32.330,eb:33:2e:f9:57:b5, 2015-01-01 00:36:04.570,-0.057,-2.719,2.321,-126.526,89.111,-76.599, , , , , , ,84.875,27.867,-88.616
 09:47:32.373,eb:33:2e:f9:57:b5, 2015-01-01 00:36:04.570,0.136,-2.66,2.054,-152.893,100.037,-29.907, , , , , , ,84.402,28.152,-88.099
 09:47:32.373,eb:33:2e:f9:57:b5, 2015-01-01 00:36:04.570,0.324,-2.542,1.696,-179.932,103.271,12.573, , , , , , ,83.831,28.224,-87.446
 09:47:32.373,eb:33:2e:f9:57:b5, 2015-01-01 00:36:04.570,0.582,-2.314,1.258,-204.773,89.6,47.852, , , , , , ,83.123,28.109,-86.88
 09:47:32.373,eb:33:2e:f9:57:b5, 2015-01-01 00:36:04.570,0.807,-1.987,0.986,-223.511,62.378,72.083, , , , , , ,82.194,27.845,-86.468
 09:47:32.374,eb:33:2e:f9:57:b5, 2015-01-01 00:36:04.570,1.053,-1.616,0.689,-238.281,25.574,84.595, , , , , , ,81.167,27.477,-86.177
 09:47:32.374,eb:33:2e:f9:57:b5, 2015-01-01 00:36:04.570,1.253,-1.25,0.354,-253.113,-15.93,88.257, , , , , , ,79.969,27.043,-86.023
 09:47:32.374,eb:33:2e:f9:57:b5, 2015-01-01 00:36:04.570,1.372,-0.931,0.091,-270.203,-61.096,82.886, , , , , , ,78.591,26.581,-86.171
 09:47:32.374,eb:33:2e:f9:57:b5, 2015-01-01 00:36:04.570,1.414,-0.702,-0.061,-289.673,-106.689,72.876, , , , , , ,76.943,26.115,-86.622
 09:47:32.395,eb:33:2e:f9:57:b5, 2015-01-01 00:36:04.570,1.398,-0.541,-0.094,-312.195,-147.888,59.143, , , , , , ,75.152,25.642,-87.248
 09:47:32.395,eb:33:2e:f9:57:b5, 2015-01-01 00:36:04.570,1.375,-0.448,-0.048,-338.196,-182.983,43.213, , , , , , ,73.158,25.17,-88.017
 09:47:32.395,eb:33:2e:f9:57:b5, 2015-01-01 00:36:04.570,1.351,-0.418,0.086,-366.577,-208.191,26.672, , , , , , ,70.966,24.703,-89.006
 09:47:32.395,eb:33:2e:f9:57:b5, 2015-01-01 00:36:04.570,1.289,-0.43,0.265,-396.362,-219.971,10.315, , , , , , ,68.533,24.247,-90.148
 09:47:32.395,eb:33:2e:f9:57:b5, 2015-01-01 00:36:04.570,1.232,-0.45,0.425,-424.744,-225.159,-4.639, , , , , , ,66.006,23.813,-91.274
 09:47:32.395,eb:33:2e:f9:57:b5, 2015-01-01 00:36:04.570,1.204,-0.407,0.613,-451.843,-226.868,-18.372, , , , , , ,63.342,23.39,-92.373
 09:47:32.395,eb:33:2e:f9:57:b5, 2015-01-01 00:36:04.570,1.182,-0.325,0.87,-477.356,-225.83,-31.006, , , , , , ,60.546,22.972,-93.532
 09:47:32.395,eb:33:2e:f9:57:b5, 2015-01-01 00:36:04.570,1.139,-0.311,1.147,-498.291,-223.267,-41.626, , , , , , ,57.59,22.544,-94.735
 09:47:32.441,eb:33:2e:f9:57:b5, 2015-01-01 00:36:04.570,1.043,-0.372,1.323,-512.939,-222.351,-49.805, , , , , , ,54.619,22.121,-95.872
 09:47:32.442,eb:33:2e:f9:57:b5, 2015-01-01 00:36:04.570,0.961,-0.479,1.379,-521.362,-230.713,-54.443, , , , , , ,51.597,21.654,-96.987
 09:47:32.442,eb:33:2e:f9:57:b5, 2015-01-01 00:36:04.570,0.894,-0.572,1.421,-526.428,-246.826,-54.077, , , , , , ,48.543,21.094,-98.163
 09:47:32.442,eb:33:2e:f9:57:b5, 2015-01-01 00:36:04.570,0.921,-0.642,1.542,-528.87,-266.846,-50.598, , , , , , ,45.412,20.385,-99.415
 09:47:32.442,eb:33:2e:f9:57:b5, 2015-01-01 00:36:04.570,0.865,-0.679,1.795,-528.015,-284.058,-46.509, , , , , , ,42.358,19.55,-100.624
 09:47:32.442,eb:33:2e:f9:57:b5, 2015-01-01 00:36:04.570,0.836,-0.711,1.955,-526.367,-300.11,-39.856, , , , , , ,39.331,18.583,-101.788
 09:47:32.442,eb:33:2e:f9:57:b5, 2015-01-01 00:36:04.570,0.866,-0.744,2.092,-524.841,-311.096,-33.264, , , , , , ,36.354,17.479,-102.925
 09:47:32.443,eb:33:2e:f9:57:b5, 2015-01-01 00:36:04.570,0.923,-0.735,2.209,-523.254,-320.19,-28.015, , , , , , ,33.36,16.238,-104.052
 09:47:32.507,eb:33:2e:f9:57:b5, 2015-01-01 00:36:04.930,0.984,-0.679,2.287,-519.348,-329.285,-26.367, , , , , , ,30.482,14.93,-105.062
 09:47:32.507,eb:33:2e:f9:57:b5, 2015-01-01 00:36:04.930,1.034,-0.588,2.343,-512.268,-340.637,-30.029, , , , , , ,27.664,13.53,-106.007
 09:47:32.507,eb:33:2e:f9:57:b5, 2015-01-01 00:36:04.930,0.994,-0.443,2.34,-502.075,-356.506,-39.062, , , , , , ,24.917,12.041,-106.963
 09:47:32.507,eb:33:2e:f9:57:b5, 2015-01-01 00:36:04.930,0.781,-0.27,2.303,-490.112,-377.991,-50.781, , , , , , ,22.192,10.41,-107.979
 09:47:32.507,eb:33:2e:f9:57:b5, 2015-01-01 00:36:04.930,0.478,-0.109,2.306,-478.699,-404.48,-60.791, , , , , , ,19.616,8.674,-108.962
 09:47:32.507,eb:33:2e:f9:57:b5, 2015-01-01 00:36:04.930,0.045,-0.012,2.5,-471.008,-426.147,-64.087, , , , , , ,17.117,6.784,-109.913
 09:47:32.507,eb:33:2e:f9:57:b5, 2015-01-01 00:36:04.930,-0.319,0.001,2.967,-467.468,-432.739,-54.932, , , , , , ,14.683,4.79,-110.797
 09:47:32.507,eb:33:2e:f9:57:b5, 2015-01-01 00:36:04.930,-0.637,0.009,3.464,-468.75,-418.396,-33.325, , , , , , ,12.233,2.736,-111.533
 09:47:32.530,eb:33:2e:f9:57:b5, 2015-01-01 00:36:04.930,-0.9,0.071,3.958,-473.206,-387.695,-1.892, , , , , , ,9.86,0.78,-111.995
 09:47:32.530,eb:33:2e:f9:57:b5, 2015-01-01 00:36:04.930,-1.077,0.236,4.26,-481.995,-354.004,34.79, , , , , , ,7.471,-1.044,-112.165
 09:47:32.530,eb:33:2e:f9:57:b5, 2015-01-01 00:36:04.930,-1.102,0.484,4.262,-495.728,-328.186,72.815, , , , , , ,5.015,-2.752,-112.061
 09:47:32.530,eb:33:2e:f9:57:b5, 2015-01-01 00:36:04.930,-1.06,0.807,4.104,-510.925,-314.087,107.178, , , , , , ,2.406,-4.406,-111.714
 09:47:32.530,eb:33:2e:f9:57:b5, 2015-01-01 00:36:04.930,-1.012,1.27,3.854,-523.01,-318.542,133.85, , , , , , ,-0.236,-5.993,-111.121
 09:47:32.531,eb:33:2e:f9:57:b5, 2015-01-01 00:36:04.930,-0.928,1.869,3.625,-528.503,-347.778,151.184, , , , , , ,-2.961,-7.641,-110.341
 09:47:32.531,eb:33:2e:f9:57:b5, 2015-01-01 00:36:04.930,-0.897,2.516,3.58,-522.644,-392.883,160.889, , , , , , ,-5.729,-9.448,-109.402
 09:47:32.531,eb:33:2e:f9:57:b5, 2015-01-01 00:36:04.930,-0.989,3.146,3.812,-503.113,-436.584,164.795, , , , , , ,-8.547,-11.459,-108.325
 09:47:32.642,eb:33:2e:f9:57:b5, 2015-01-01 00:36:04.930,-1.126,3.72,4.243,-472.961,-474.426,165.527, , , , , , ,-11.25,-13.59,-107.084
 09:47:32.642,eb:33:2e:f9:57:b5, 2015-01-01 00:36:04.930,-1.301,4.208,4.833,-438.416,-486.328,166.443, , , , , , ,-13.859,-15.771,-105.716
 09:47:32.642,eb:33:2e:f9:57:b5, 2015-01-01 00:36:04.930,-1.567,4.618,5.468,-402.466,-461.731,168.64, , , , , , ,-16.375,-17.842,-104.227
 09:47:32.642,eb:33:2e:f9:57:b5, 2015-01-01 00:36:04.930,-1.776,4.994,5.958,-364.685,-406.982,172.18, , , , , , ,-18.831,-19.66,-102.678
 09:47:32.642,eb:33:2e:f9:57:b5, 2015-01-01 00:36:04.930,-1.881,5.364,6.167,-322.632,-324.158,173.34, , , , , , ,-21.061,-21.05,-101.157
 09:47:32.642,eb:33:2e:f9:57:b5, 2015-01-01 00:36:04.930,-1.882,5.771,5.998,-277.527,-237.183,168.701, , , , , , ,-23.049,-21.989,-99.783
 09:47:32.643,eb:33:2e:f9:57:b5, 2015-01-01 00:36:04.930,-1.786,6.179,5.528,-233.398,-163.879,154.724, , , , , , ,-24.769,-22.538,-98.564
 09:47:32.643,eb:33:2e:f9:57:b5, 2015-01-01 00:36:04.930,-1.598,6.499,4.939,-192.932,-107.178,131.531, , , , , , ,-26.235,-22.824,-97.564
 09:47:32.646,eb:33:2e:f9:57:b5, 2015-01-01 00:36:04.930,-1.426,6.684,4.386,-156.433,-61.035,102.6, , , , , , ,-27.378,-22.917,-96.817
 09:47:32.646,eb:33:2e:f9:57:b5, 2015-01-01 00:36:04.930,-1.387,6.717,3.864,-125.488,-18.86,71.35, , , , , , ,-28.257,-22.879,-96.356
 09:47:32.646,eb:33:2e:f9:57:b5, 2015-01-01 00:36:04.930,-1.4,6.518,3.267,-99.243,17.09,43.091, , , , , , ,-28.905,-22.736,-96.108
 09:47:32.646,eb:33:2e:f9:57:b5, 2015-01-01 00:36:04.930,-1.463,6.095,2.697,-72.571,44.861,22.156, , , , , , ,-29.366,-22.516,-96.053
 09:47:32.646,eb:33:2e:f9:57:b5, 2015-01-01 00:36:04.930,-1.616,5.569,2.159,-39.978,59.814,10.498, , , , , , ,-29.603,-22.242,-96.13
 09:47:32.646,eb:33:2e:f9:57:b5, 2015-01-01 00:36:04.930,-1.718,4.979,1.668,0.671,54.199,9.583, , , , , , ,-29.641,-21.967,-96.279
 09:47:32.646,eb:33:2e:f9:57:b5, 2015-01-01 00:36:04.930,-1.757,4.382,1.347,45.959,35.461,19.226, , , , , , ,-29.487,-21.742,-96.328
 09:47:32.646,eb:33:2e:f9:57:b5, 2015-01-01 00:36:04.930,-1.782,3.784,1.134,90.088,11.108,37.72, , , , , , ,-29.169,-21.583,-96.235
 09:47:32.649,eb:33:2e:f9:57:b5, 2015-01-01 00:36:04.930,0.943,3.161,0.943,130.188,-12.024,61.279, , , , , , ,-28.685,-21.467,-95.988
 09:47:32.649,eb:33:2e:f9:57:b5, 2015-01-01 00:36:04.930,2.31,2.727,4.444,408.447,-231.201,-33.447, , , , , , ,-27.543,-21.989,-95.669
 09:47:32.649,eb:33:2e:f9:57:b5, 2015-01-01 00:36:04.930,2.288,7.075,3.282,742.615,200.012,-208.679, , , , , , ,-24.208,-21.671,-96.482
 09:47:32.649,eb:33:2e:f9:57:b5, 2015-01-01 00:36:04.930,2.326,10.716,2.583,810.608,235.718,-374.39, , , , , , ,-19.391,-21.27,-98.492
 09:47:32.649,eb:33:2e:f9:57:b5, 2015-01-01 00:36:04.930,-0.479,3.348,5.198,784.79,267.944,-366.089, , , , , , ,-14.65,-20.577,-100.986
 09:47:32.650,eb:33:2e:f9:57:b5, 2015-01-01 00:36:04.930,-1.599,5.319,7.336,675.781,393.188,-186.829, , , , , , ,-10.404,-19.199,-102.579
 09:47:32.650,eb:33:2e:f9:57:b5, 2015-01-01 00:36:04.930,-0.273,2.747,6.461,526.489,499.695,-149.414, , , , , , ,-7.114,-17.095,-103.804
 09:47:32.650,eb:33:2e:f9:57:b5, 2015-01-01 00:36:04.930,1.882,0.503,6.216,400.391,621.033,-37.537, , , , , , ,-4.62,-14.222,-104.562
 09:47:32.690,eb:33:2e:f9:57:b5, 2015-01-01 00:36:04.930,0.317,-0.017,3.896,312.744,605.652,60.364, , , , , , ,-2.955,-11.135,-104.617
 09:47:32.690,eb:33:2e:f9:57:b5, 2015-01-01 00:36:04.930,-2.644,2.04,0.514,229.126,512.695,41.016, , , , , , ,-1.56,-8.339,-104.464
 09:47:32.690,eb:33:2e:f9:57:b5, 2015-01-01 00:36:04.930,-3.163,1.654,-1.324,150.146,346.252,17.822, , , , , , ,-0.698,-6.251,-104.359
 09:47:32.690,eb:33:2e:f9:57:b5, 2015-01-01 00:36:04.930,-0.837,0.172,-1.501,136.902,202.759,1.465, , , , , , ,-0.005,-4.933,-104.354
 09:47:32.690,eb:33:2e:f9:57:b5, 2015-01-01 00:36:04.930,1.185,0.141,-0.367,133.728,98.816,2.808, , , , , , ,0.687,-4.312,-104.321
 09:47:32.690,eb:33:2e:f9:57:b5, 2015-01-01 00:36:04.930,0.485,1.32,1.031,94.788,151.245,-13.855, , , , , , ,1.236,-3.653,-104.354
 09:47:32.691,eb:33:2e:f9:57:b5, 2015-01-01 00:36:04.930,0.565,0.651,0.837,69.458,156.982,-23.254, , , , , , ,1.626,-2.862,-104.442
 09:47:32.691,eb:33:2e:f9:57:b5, 2015-01-01 00:36:04.930,0.198,0.025,1.39,78.979,158.997,-35.339, , , , , , ,2.01,-2.087,-104.557
 09:47:32.733,eb:33:2e:f9:57:b5, 2015-01-01 00:36:04.930,-1.207,0.155,1.548,77.637,195.068,-39.124, , , , , , ,2.411,-1.165,-104.716
 09:47:32.733,eb:33:2e:f9:57:b5, 2015-01-01 00:36:04.930,-1.201,-0.071,0.399,72.388,150.94,-28.625, , , , , , ,2.785,-0.275,-104.848
 09:47:32.733,eb:33:2e:f9:57:b5, 2015-01-01 00:36:04.930,-0.205,0.097,0.159,66.162,87.158,-19.226, , , , , , ,3.131,0.269,-104.93
 09:47:32.733,eb:33:2e:f9:57:b5, 2015-01-01 00:36:04.930,0.426,0.103,1.022,63.293,78.003,-18.372, , , , , , ,3.455,0.67,-104.996
 09:47:32.733,eb:33:2e:f9:57:b5, 2015-01-01 00:36:04.930,0.472,0.173,1.445,70.251,91.736,-26.733, , , , , , ,3.79,1.099,-105.084
 09:47:32.733,eb:33:2e:f9:57:b5, 2015-01-01 00:36:04.930,-0.466,0.323,1.505,73.608,110.413,-36.377, , , , , , ,4.153,1.637,-105.216
 09:47:32.733,eb:33:2e:f9:57:b5, 2015-01-01 00:36:04.930,-0.546,-0.086,0.965,74.768,93.628,-21.79, , , , , , ,4.515,2.17,-105.32
 09:47:32.734,eb:33:2e:f9:57:b5, 2015-01-01 00:36:04.930,-0.478,-0.114,0.956,84.9,57.983,-15.442, , , , , , ,4.927,2.532,-105.375
 09:47:32.800,eb:33:2e:f9:57:b5, 2015-01-01 00:36:04.930,0.197,0.057,1.095,86.487,25.33,-3.418, , , , , , ,5.356,2.73,-105.397
 09:47:32.800,eb:33:2e:f9:57:b5, 2015-01-01 00:36:04.930,-0.191,0.155,1.757,94.971,24.353,3.723, , , , , , ,5.806,2.851,-105.386
 09:47:32.800,eb:33:2e:f9:57:b5, 2015-01-01 00:36:04.930,-0.411,-0.196,1.738,119.812,-19.165,29.419, , , , , , ,6.361,2.845,-105.293
 09:47:32.800,eb:33:2e:f9:57:b5, 2015-01-01 00:36:04.930,-1.076,-0.41,2.524,150.208,-34.729,40.894, , , , , , ,7.059,2.675,-105.128
 09:47:32.800,eb:33:2e:f9:57:b5, 2015-01-01 00:36:04.930,-0.956,-0.456,2.957,190.125,-90.698,63.721, , , , , , ,7.949,2.307,-104.886
 09:47:32.800,eb:33:2e:f9:57:b5, 2015-01-01 00:36:04.930,-1.029,-0.625,3.938,235.107,-118.042,66.345, , , , , , ,9.031,1.719,-104.656
 09:47:32.800,eb:33:2e:f9:57:b5, 2015-01-01 00:36:04.930,-0.581,-1.084,4.474,290.161,-137.146,64.087, , , , , , ,10.366,1.016,-104.436
 09:47:32.801,eb:33:2e:f9:57:b5, 2015-01-01 00:36:04.930,0.368,-1.53,4.484,365.845,-141.663,67.627, , , , , , ,12.047,0.253,-104.249
 09:47:32.803,eb:33:2e:f9:57:b5, 2015-01-01 00:36:05.285,0.827,-1.179,4.395,422.913,-120.361,57.068, , , , , , ,14.057,-0.461,-104.095
 09:47:32.803,eb:33:2e:f9:57:b5, 2015-01-01 00:36:05.285,0.556,-1.148,4.343,471.191,-84.534,48.523, , , , , , ,16.309,-1,-103.969
 09:47:32.803,eb:33:2e:f9:57:b5, 2015-01-01 00:36:05.285,0.522,-1.273,4.276,521.423,-70.19,31.799, , , , , , ,18.803,-1.434,-103.903
 09:47:32.803,eb:33:2e:f9:57:b5, 2015-01-01 00:36:05.285,0.684,-1.353,4.289,571.472,-61.34,10.132, , , , , , ,21.566,-1.774,-103.931
 09:47:32.803,eb:33:2e:f9:57:b5, 2015-01-01 00:36:05.285,0.712,-1.284,4.406,608.398,-38.025,-10.742, , , , , , ,24.538,-1.972,-104.03
 09:47:32.803,eb:33:2e:f9:57:b5, 2015-01-01 00:36:05.285,0.624,-1.096,4.149,646.057,-25.085,-27.71, , , , , , ,27.702,-2.054,-104.178
 09:47:32.805,eb:33:2e:f9:57:b5, 2015-01-01 00:36:05.285,0.728,-0.89,4.151,661.011,-19.348,-50.293, , , , , , ,30.998,-2.038,-104.409
 09:47:32.805,eb:33:2e:f9:57:b5, 2015-01-01 00:36:05.285,0.455,-1.248,4.329,688.904,3.723,-56.335, , , , , , ,34.371,-1.923,-104.678
 09:47:32.867,eb:33:2e:f9:57:b5, 2015-01-01 00:36:05.285,0.537,-1.107,4.086,700.012,8.118,-70.251, , , , , , ,37.87,-1.681,-104.908
 09:47:32.867,eb:33:2e:f9:57:b5, 2015-01-01 00:36:05.285,-0.08,-0.369,4.761,671.326,46.143,-76.111, , , , , , ,41.292,-1.34,-105.084
 09:47:32.867,eb:33:2e:f9:57:b5, 2015-01-01 00:36:05.285,-0.129,-0.057,5.825,673.706,112.549,-64.514, , , , , , ,44.643,-0.797,-105.057
 09:47:32.867,eb:33:2e:f9:57:b5, 2015-01-01 00:36:05.285,-0.18,0.456,5.938,669.678,200.989,-29.602, , , , , , ,48.021,-0.049,-104.623
 09:47:32.867,eb:33:2e:f9:57:b5, 2015-01-01 00:36:05.285,-0.09,0.006,4.396,625.427,263.062,11.902, , , , , , ,51.246,0.725,-103.722
 09:47:32.867,eb:33:2e:f9:57:b5, 2015-01-01 00:36:05.285,0.544,0.674,2.199,544.006,291.443,46.082, , , , , , ,54.19,1.445,-102.464
 09:47:32.867,eb:33:2e:f9:57:b5, 2015-01-01 00:36:05.285,1.414,-0.02,0.488,413.879,345.642,95.154, , , , , , ,56.569,2.054,-100.926
 09:47:32.868,eb:33:2e:f9:57:b5, 2015-01-01 00:36:05.285,1.47,0.08,-0.088,365.295,401.611,130.859, , , , , , ,58.497,2.587,-99.014
 09:47:32.891,eb:33:2e:f9:57:b5, 2015-01-01 00:36:05.285,1.41,1.34,-0.822,338.379,317.81,156.677, , , , , , ,60.386,2.873,-97.059
 09:47:32.891,eb:33:2e:f9:57:b5, 2015-01-01 00:36:05.285,1.766,3.114,-1.483,229.248,203.064,125.916, , , , , , ,61.82,2.867,-95.587
 09:47:32.891,eb:33:2e:f9:57:b5, 2015-01-01 00:36:05.285,2.095,2.35,-0.088,177.49,95.093,96.252, , , , , , ,62.825,2.692,-94.746
 09:47:32.891,eb:33:2e:f9:57:b5, 2015-01-01 00:36:05.285,2.049,1.709,1.495,173.218,31.372,50.842, , , , , , ,63.693,2.51,-94.351
 09:47:32.891,eb:33:2e:f9:57:b5, 2015-01-01 00:36:05.285,1.696,1.331,2.496,200.623,-6.836,-0.916, , , , , , ,64.633,2.433,-94.279
 09:47:32.891,eb:33:2e:f9:57:b5, 2015-01-01 00:36:05.285,1.414,1.354,2.95,244.934,-46.082,-53.04, , , , , , ,65.759,2.521,-94.438
 09:47:32.892,eb:33:2e:f9:57:b5, 2015-01-01 00:36:05.285,1.119,1.298,3.425,282.471,-79.102,-100.403, , , , , , ,67.077,2.763,-94.911
 09:47:32.892,eb:33:2e:f9:57:b5, 2015-01-01 00:36:05.285,0.895,0.936,3.812,307.8,-97.046,-139.343, , , , , , ,68.522,3.164,-95.581
 09:47:32.935,eb:33:2e:f9:57:b5, 2015-01-01 00:36:05.285,0.68,0.421,4.192,323.975,-96.863,-168.518, , , , , , ,70.065,3.73,-96.323
 09:47:32.935,eb:33:2e:f9:57:b5, 2015-01-01 00:36:05.285,0.478,-0.016,4.434,334.106,-84.656,-188.11, , , , , , ,71.664,4.433,-96.987
 09:47:32.935,eb:33:2e:f9:57:b5, 2015-01-01 00:36:05.285,0.347,-0.339,4.607,337.769,-63.477,-197.876, , , , , , ,73.295,5.251,-97.63
 09:47:32.935,eb:33:2e:f9:57:b5, 2015-01-01 00:36:05.285,0.454,-0.657,4.87,340.027,-37.598,-204.712, , , , , , ,74.916,6.152,-98.157
 09:47:32.935,eb:33:2e:f9:57:b5, 2015-01-01 00:36:05.285,0.617,-1.019,5.178,341.919,-0.305,-210.205, , , , , , ,76.586,7.141,-98.492
 09:47:32.936,eb:33:2e:f9:57:b5, 2015-01-01 00:36:05.285,0.783,-1.342,5.225,342.59,37.72,-216.187, , , , , , ,78.278,8.212,-98.553
 09:47:32.936,eb:33:2e:f9:57:b5, 2015-01-01 00:36:05.285,0.926,-1.585,5.017,340.149,69.946,-223.328, , , , , , ,79.997,9.344,-98.476
 09:47:32.936,eb:33:2e:f9:57:b5, 2015-01-01 00:36:05.285,1.044,-1.749,4.681,332.886,95.276,-232.788, , , , , , ,81.689,10.536,-98.256
 09:47:32.980,eb:33:2e:f9:57:b5, 2015-01-01 00:36:05.285,1.106,-1.89,4.3,321.045,114.075,-242.676, , , , , , ,83.392,11.788,-97.872
 09:47:32.980,eb:33:2e:f9:57:b5, 2015-01-01 00:36:05.285,1.125,-1.983,3.835,302.673,124.878,-251.221, , , , , , ,85.051,13.085,-97.311
 09:47:32.980,eb:33:2e:f9:57:b5, 2015-01-01 00:36:05.285,1.133,-2.069,3.393,276.978,127.869,-258.667, , , , , , ,86.622,14.409,-96.751
 09:47:32.980,eb:33:2e:f9:57:b5, 2015-01-01 00:36:05.285,1.032,-2.215,3.115,246.582,128.113,-264.282, , , , , , ,88.028,15.738,-96.185
 09:47:32.980,eb:33:2e:f9:57:b5, 2015-01-01 00:36:05.285,0.9,-2.382,2.877,213.806,122.131,-267.334, , , , , , ,89.341,17.089,-95.565
 09:47:32.980,eb:33:2e:f9:57:b5, 2015-01-01 00:36:05.285,0.796,-2.519,2.682,179.382,112.793,-265.137, , , , , , ,90.494,18.419,-94.878
 09:47:32.980,eb:33:2e:f9:57:b5, 2015-01-01 00:36:05.285,0.694,-2.622,2.614,145.264,106.14,-257.446, , , , , , ,91.483,19.715,-94.285
 09:47:32.980,eb:33:2e:f9:57:b5, 2015-01-01 00:36:05.285,0.57,-2.687,2.601,113.281,103.333,-244.263, , , , , , ,92.269,20.945,-93.719
 09:47:33.047,eb:33:2e:f9:57:b5, 2015-01-01 00:36:05.285,0.448,-2.719,2.579,84.106,102.783,-226.99, , , , , , ,92.966,22.088,-93.109
 09:47:33.047,eb:33:2e:f9:57:b5, 2015-01-01 00:36:05.285,0.356,-2.722,2.539,57.373,104.37,-205.322, , , , , , ,93.549,23.132,-92.406
 09:47:33.047,eb:33:2e:f9:57:b5, 2015-01-01 00:36:05.285,0.279,-2.708,2.502,33.569,108.582,-179.81, , , , , , ,94.021,24.044,-91.758
 09:47:33.047,eb:33:2e:f9:57:b5, 2015-01-01 00:36:05.285,0.249,-2.671,2.457,12.024,114.441,-151.367, , , , , , ,94.351,24.813,-91.115
 09:47:33.047,eb:33:2e:f9:57:b5, 2015-01-01 00:36:05.285,0.285,-2.611,2.395,-8.057,121.094,-121.704, , , , , , ,94.647,25.433,-90.406
 09:47:33.047,eb:33:2e:f9:57:b5, 2015-01-01 00:36:05.285,0.317,-2.541,2.284,-31.799,128.357,-85.388, , , , , , ,94.861,25.884,-89.594
 09:47:33.047,eb:33:2e:f9:57:b5, 2015-01-01 00:36:05.285,0.292,-2.513,2.14,-52.307,130.798,-55.908, , , , , , ,94.971,26.164,-88.841
 09:47:33.047,eb:33:2e:f9:57:b5, 2015-01-01 00:36:05.285,0.237,-2.545,1.858,-75.073,127.747,-26.978, , , , , , ,94.905,26.307,-88.149
 09:47:33.047,eb:33:2e:f9:57:b5, 2015-01-01 00:36:05.285,0.264,-2.605,1.431,-103.027,119.568,2.869, , , , , , ,94.752,26.301,-87.462
 09:47:33.048,eb:33:2e:f9:57:b5, 2015-01-01 00:36:05.285,0.369,-2.658,0.959,-139.038,110.596,32.776, , , , , , ,94.406,26.147,-86.765
 09:47:33.048,eb:33:2e:f9:57:b5, 2015-01-01 00:36:05.285,0.617,-2.635,0.48,-183.533,102.478,60.425, , , , , , ,93.829,25.862,-86.199
 09:47:33.048,eb:33:2e:f9:57:b5, 2015-01-01 00:36:05.285,0.95,-2.436,0.121,-234.009,94.543,81.909, , , , , , ,92.922,25.472,-85.732
 09:47:33.048,eb:33:2e:f9:57:b5, 2015-01-01 00:36:05.285,1.238,-2.108,-0.012,-282.593,81.97,90.027, , , , , , ,91.802,25.016,-85.265
 09:47:33.048,eb:33:2e:f9:57:b5, 2015-01-01 00:36:05.285,1.507,-1.723,-0.277,-328.796,58.472,86.67, , , , , , ,90.406,24.565,-84.831
 09:47:33.048,eb:33:2e:f9:57:b5, 2015-01-01 00:36:05.285,1.751,-1.339,-0.569,-373.474,27.893,75.439, , , , , , ,88.72,24.164,-84.606
 09:47:33.052,eb:33:2e:f9:57:b5, 2015-01-01 00:36:05.285,1.887,-0.969,-0.644,-413.391,-8.179,55.542, , , , , , ,86.688,23.851,-84.611
 09:47:33.093,eb:33:2e:f9:57:b5, 2015-01-01 00:36:05.285,1.946,-0.617,-0.586,-445.496,-50.476,30.701, , , , , , ,84.452,23.632,-84.776
 09:47:33.093,eb:33:2e:f9:57:b5, 2015-01-01 00:36:05.285,1.901,-0.368,-0.431,-468.384,-92.102,3.357, , , , , , ,81.991,23.516,-85.117
 09:47:33.093,eb:33:2e:f9:57:b5, 2015-01-01 00:36:05.285,1.785,-0.3,-0.279,-484.131,-130.615,-23.621, , , , , , ,79.349,23.489,-85.754
 09:47:33.093,eb:33:2e:f9:57:b5, 2015-01-01 00:36:05.285,1.631,-0.409,-0.201,-497.986,-163.025,-46.57, , , , , , ,76.487,23.516,-86.649
 09:47:33.093,eb:33:2e:f9:57:b5, 2015-01-01 00:36:05.285,1.513,-0.603,-0.047,-514.587,-188.904,-62.439, , , , , , ,73.537,23.56,-87.676
 09:47:33.094,eb:33:2e:f9:57:b5, 2015-01-01 00:36:05.285,1.333,-0.801,0.357,-533.142,-200.317,-70.679, , , , , , ,70.455,23.577,-88.764
 09:47:33.094,eb:33:2e:f9:57:b5, 2015-01-01 00:36:05.285,1.16,-0.95,0.804,-550.049,-202.271,-71.96, , , , , , ,67.269,23.549,-89.934
 09:47:33.094,eb:33:2e:f9:57:b5, 2015-01-01 00:36:05.285,1.076,-0.975,1.122,-565.857,-203.247,-68.787, , , , , , ,63.946,23.45,-91.148
 09:47:33.139,eb:33:2e:f9:57:b5, 2015-01-01 00:36:05.285,1.049,-0.931,1.375,-580.627,-206.116,-63.11, , , , , , ,60.612,23.264,-92.302
 09:47:33.139,eb:33:2e:f9:57:b5, 2015-01-01 00:36:05.285,0.998,-0.883,1.555,-593.201,-215.027,-56.824, , , , , , ,57.217,22.972,-93.411
 09:47:33.139,eb:33:2e:f9:57:b5, 2015-01-01 00:36:05.285,0.951,-0.854,1.61,-603.027,-236.572,-49.316, , , , , , ,53.767,22.544,-94.587
 09:47:33.139,eb:33:2e:f9:57:b5, 2015-01-01 00:36:05.285,0.971,-0.868,1.723,-610.168,-265.137,-40.222, , , , , , ,50.202,21.929,-95.861
 09:47:33.139,eb:33:2e:f9:57:b5, 2015-01-01 00:36:05.285,1.068,-0.927,1.991,-613.342,-291.26,-31.616, , , , , , ,46.675,21.127,-97.119
 09:47:33.139,eb:33:2e:f9:57:b5, 2015-01-01 00:36:05.285,1.16,-0.956,2.295,-612.488,-312.378,-25.024, , , , , , ,43.171,20.149,-98.344
 09:47:33.139,eb:33:2e:f9:57:b5, 2015-01-01 00:36:05.285,1.265,-0.916,2.497,-609.253,-329.895,-20.63, , , , , , ,39.705,19.006,-99.569
 09:47:33.140,eb:33:2e:f9:57:b5, 2015-01-01 00:36:05.285,1.257,-0.83,2.705,-605.286,-343.689,-19.592, , , , , , ,36.233,17.715,-100.794
 09:47:33.228,eb:33:2e:f9:57:b5, 2015-01-01 00:36:05.645,1.231,-0.714,2.834,-601.013,-357.056,-22.217, , , , , , ,32.888,16.326,-101.926
 09:47:33.228,eb:33:2e:f9:57:b5, 2015-01-01 00:36:05.645,1.227,-0.606,2.977,-594.788,-372.62,-27.466, , , , , , ,29.603,14.826,-103.013
 09:47:33.228,eb:33:2e:f9:57:b5, 2015-01-01 00:36:05.645,1.159,-0.534,3.128,-586.67,-387.939,-35.217, , , , , , ,26.395,13.217,-104.084
 09:47:33.228,eb:33:2e:f9:57:b5, 2015-01-01 00:36:05.645,0.979,-0.478,3.223,-577.454,-404.724,-43.884, , , , , , ,23.198,11.464,-105.167
 09:47:33.228,eb:33:2e:f9:57:b5, 2015-01-01 00:36:05.645,0.695,-0.415,3.278,-569.275,-426.025,-49.255, , , , , , ,20.154,9.613,-106.177
 09:47:33.228,eb:33:2e:f9:57:b5, 2015-01-01 00:36:05.645,0.351,-0.361,3.448,-563.904,-447.51,-46.387, , , , , , ,17.183,7.608,-107.117
 09:47:33.229,eb:33:2e:f9:57:b5, 2015-01-01 00:36:05.645,-0.042,-0.29,3.856,-561.768,-458.74,-33.691, , , , , , ,14.277,5.471,-107.93
 09:47:33.229,eb:33:2e:f9:57:b5, 2015-01-01 00:36:05.645,-0.458,-0.187,4.408,-560.608,-452.332,-9.46, , , , , , ,11.36,3.235,-108.561
 09:47:33.229,eb:33:2e:f9:57:b5, 2015-01-01 00:36:05.645,-0.743,0.018,5.101,-557.678,-420.776,31.738, , , , , , ,8.547,1.077,-108.875
 09:47:33.229,eb:33:2e:f9:57:b5, 2015-01-01 00:36:05.645,-0.93,0.242,5.484,-552.856,-381.104,72.021, , , , , , ,5.773,-0.917,-108.836
 09:47:33.229,eb:33:2e:f9:57:b5, 2015-01-01 00:36:05.645,-1.026,0.531,5.554,-549.011,-345.215,113.953, , , , , , ,3.01,-2.747,-108.49
 09:47:33.229,eb:33:2e:f9:57:b5, 2015-01-01 00:36:05.645,-0.952,0.838,5.381,-549.194,-319.58,153.809, , , , , , ,0.159,-4.438,-107.858
 09:47:33.229,eb:33:2e:f9:57:b5, 2015-01-01 00:36:05.645,-0.856,1.185,5.19,-550.293,-306.03,185.791, , , , , , ,-2.67,-5.971,-106.952
 09:47:33.230,eb:33:2e:f9:57:b5, 2015-01-01 00:36:05.645,-0.817,1.661,4.964,-547.546,-312.561,208.313, , , , , , ,-5.548,-7.438,-105.837
 09:47:33.230,eb:33:2e:f9:57:b5, 2015-01-01 00:36:05.645,-0.771,2.299,4.735,-539.062,-340.82,222.168, , , , , , ,-8.448,-8.932,-104.546
 09:47:33.230,eb:33:2e:f9:57:b5, 2015-01-01 00:36:05.645,-0.661,2.988,4.769,-523.926,-381.042,228.21, , , , , , ,-11.409,-10.558,-103.101
 09:47:33.250,eb:33:2e:f9:57:b5, 2015-01-01 00:36:05.645,-0.679,3.626,5.195,-500.061,-408.936,229.797, , , , , , ,-14.277,-12.25,-101.508
 09:47:33.250,eb:33:2e:f9:57:b5, 2015-01-01 00:36:05.645,-0.815,4.266,5.757,-468.14,-413.391,227.905, , , , , , ,-17.073,-13.931,-99.811
 09:47:33.250,eb:33:2e:f9:57:b5, 2015-01-01 00:36:05.645,-0.949,4.882,6.29,-429.443,-389.526,222.839, , , , , , ,-19.748,-15.48,-98.053
 09:47:33.250,eb:33:2e:f9:57:b5, 2015-01-01 00:36:05.645,-1.014,5.467,6.646,-385.498,-333.923,213.745, , , , , , ,-22.297,-16.776,-96.323
 09:47:33.250,eb:33:2e:f9:57:b5, 2015-01-01 00:36:05.645,-0.966,6.032,6.624,-337.463,-253.784,198.608, , , , , , ,-24.554,-17.688,-94.741
 09:47:33.250,eb:33:2e:f9:57:b5, 2015-01-01 00:36:05.645,-0.76,6.594,6.147,-288.208,-166.443,175.476, , , , , , ,-26.505,-18.199,-93.395
 09:47:33.250,eb:33:2e:f9:57:b5, 2015-01-01 00:36:05.645,-0.508,7.133,5.475,-240.54,-84.29,139.587, , , , , , ,-28.12,-18.358,-92.39
 09:47:33.250,eb:33:2e:f9:57:b5, 2015-01-01 00:36:05.645,-0.393,7.571,4.608,-192.81,-22.095,91.553, , , , , , ,-29.416,-18.292,-91.752
 09:47:33.317,eb:33:2e:f9:57:b5, 2015-01-01 00:36:05.645,-0.504,7.826,3.523,-144.958,6.47,35.156, , , , , , ,-30.317,-18.155,-91.483
 09:47:33.317,eb:33:2e:f9:57:b5, 2015-01-01 00:36:05.645,-0.816,7.743,2.483,-101.562,4.028,-21.301, , , , , , ,-30.91,-18.127,-91.494
 09:47:33.317,eb:33:2e:f9:57:b5, 2015-01-01 00:36:05.645,-1.306,7.249,1.856,-64.636,-10.62,-67.871, , , , , , ,-31.234,-18.276,-91.714
 09:47:33.317,eb:33:2e:f9:57:b5, 2015-01-01 00:36:05.645,-1.867,6.524,1.684,-32.715,-22.461,-97.107, , , , , , ,-31.371,-18.583,-92.049
 09:47:33.317,eb:33:2e:f9:57:b5, 2015-01-01 00:36:05.645,-2.262,5.785,1.817,-5.127,-26.306,-108.276, , , , , , ,-31.322,-18.968,-92.45
 09:47:33.317,eb:33:2e:f9:57:b5, 2015-01-01 00:36:05.645,-2.428,5.11,2.066,20.508,-14.465,-103.699, , , , , , ,-31.13,-19.33,-92.878
 09:47:33.317,eb:33:2e:f9:57:b5, 2015-01-01 00:36:05.645,-2.352,4.512,2.269,47.852,12.695,-88.501, , , , , , ,-30.806,-19.572,-93.312
 09:47:33.318,eb:33:2e:f9:57:b5, 2015-01-01 00:36:05.645,-2.089,4.023,2.377,78.186,47.607,-69.519, , , , , , ,-30.328,-19.627,-93.752
 09:47:33.341,eb:33:2e:f9:57:b5, 2015-01-01 00:36:05.645,-1.743,3.617,2.335,109.192,78.552,-52.063, , , , , , ,-29.696,-19.484,-94.202
 09:47:33.341,eb:33:2e:f9:57:b5, 2015-01-01 00:36:05.645,-1.415,3.224,2.171,138,99.243,-37.659, , , , , , ,-28.916,-19.188,-94.647
 09:47:33.341,eb:33:2e:f9:57:b5, 2015-01-01 00:36:05.645,-1.228,2.775,1.918,163.391,110.168,-24.719, , , , , , ,-28.015,-18.792,-95.054
 09:47:33.341,eb:33:2e:f9:57:b5, 2015-01-01 00:36:05.645,-1.089,2.206,1.585,184.509,112.122,-10.803, , , , , , ,-27.021,-18.331,-95.405
 09:47:33.341,eb:33:2e:f9:57:b5, 2015-01-01 00:36:05.645,5.094,1.579,1.133,201.111,113.831,5.798, , , , , , ,-25.961,-17.825,-95.674
 09:47:33.341,eb:33:2e:f9:57:b5, 2015-01-01 00:36:05.645,0.972,1.63,7.916,695.251,23.926,-251.587, , , , , , ,-23.379,-18.474,-96.317
 09:47:33.341,eb:33:2e:f9:57:b5, 2015-01-01 00:36:05.645,4.397,8.033,-3.917,823.181,223.022,-303.833, , , , , , ,-18.929,-17.331,-98.19
 09:47:33.341,eb:33:2e:f9:57:b5, 2015-01-01 00:36:05.645,0.885,3.392,1.37,806.335,211.609,-399.597, , , , , , ,-14.211,-17.062,-100.514
 09:47:33.363,eb:33:2e:f9:57:b5, 2015-01-01 00:36:05.645,-0.338,7.264,5.19,658.813,411.255,-162.476, , , , , , ,-10.047,-15.639,-101.821
 09:47:33.363,eb:33:2e:f9:57:b5, 2015-01-01 00:36:05.645,-0.692,3.919,6.113,503.296,552.917,-122.925, , , , , , ,-6.96,-13.211,-102.964
 09:47:33.363,eb:33:2e:f9:57:b5, 2015-01-01 00:36:05.645,1.307,0.917,4.148,310.913,512.634,28.748, , , , , , ,-4.949,-10.481,-103.458
 09:47:33.363,eb:33:2e:f9:57:b5, 2015-01-01 00:36:05.645,-1.023,0.845,3.351,225.22,532.349,83.191, , , , , , ,-3.669,-7.778,-103.315
 09:47:33.363,eb:33:2e:f9:57:b5, 2015-01-01 00:36:05.645,-2.517,1.496,-0.311,135.254,318.726,35.095, , , , , , ,-2.895,-5.718,-103.162
 09:47:33.363,eb:33:2e:f9:57:b5, 2015-01-01 00:36:05.645,-0.666,0.287,0.021,134.644,236.206,-7.751, , , , , , ,-2.252,-4.406,-103.178
 09:47:33.363,eb:33:2e:f9:57:b5, 2015-01-01 00:36:05.645,-0.19,-1.218,0.019,189.148,191.65,-17.334, , , , , , ,-1.384,-3.329,-103.315
 09:47:33.363,eb:33:2e:f9:57:b5, 2015-01-01 00:36:05.645,0.416,0.797,0.523,159.302,140.93,-1.831, , , , , , ,-0.461,-2.549,-103.354
 09:47:33.407,eb:33:2e:f9:57:b5, 2015-01-01 00:36:05.645,-0.395,1.689,0.692,96.191,180.115,-22.888, , , , , , ,0.132,-1.714,-103.425
 09:47:33.407,eb:33:2e:f9:57:b5, 2015-01-01 00:36:05.645,0.568,0.482,-0.128,80.444,105.713,-24.597, , , , , , ,0.549,-1.016,-103.535
 09:47:33.407,eb:33:2e:f9:57:b5, 2015-01-01 00:36:05.645,0.232,0.388,1.1,78.369,118.896,-30.823, , , , , , ,0.961,-0.5,-103.656
 09:47:33.407,eb:33:2e:f9:57:b5, 2015-01-01 00:36:05.645,-1.176,0.333,1.164,66.833,158.081,-40.039, , , , , , ,1.329,0.258,-103.826
 09:47:33.407,eb:33:2e:f9:57:b5, 2015-01-01 00:36:05.645,-0.708,-0.06,0.214,67.2,94.727,-26.611, , , , , , ,1.67,0.873,-103.975
 09:47:33.408,eb:33:2e:f9:57:b5, 2015-01-01 00:36:05.645,0.033,-0.013,0.805,64.453,66.711,-18.799, , , , , , ,1.989,1.241,-104.062
 09:47:33.410,eb:33:2e:f9:57:b5, 2015-01-01 00:36:05.645,0.512,-0.08,1.568,76.05,73.669,-19.348, , , , , , ,2.34,1.593,-104.139
 09:47:33.410,eb:33:2e:f9:57:b5, 2015-01-01 00:36:05.645,0.31,0.263,1.703,79.59,105.103,-28.687, , , , , , ,2.758,2.06,-104.238
 09:47:33.475,eb:33:2e:f9:57:b5, 2015-01-01 00:36:05.645,-0.04,0.21,1.364,77.82,127.197,-34.973, , , , , , ,3.142,2.675,-104.37
 09:47:33.475,eb:33:2e:f9:57:b5, 2015-01-01 00:36:05.645,-0.081,0.046,1.328,77.332,123.718,-35.583, , , , , , ,3.521,3.312,-104.496
 09:47:33.475,eb:33:2e:f9:57:b5, 2015-01-01 00:36:05.645,-0.555,0.143,1.068,79.712,112.915,-34.119, , , , , , ,3.911,3.911,-104.639
 09:47:33.475,eb:33:2e:f9:57:b5, 2015-01-01 00:36:05.645,-0.311,0.214,0.866,78.125,68.481,-22.827, , , , , , ,4.318,4.378,-104.738
 09:47:33.475,eb:33:2e:f9:57:b5, 2015-01-01 00:36:05.645,-1.005,0.116,1.434,86.426,31.128,-12.085, , , , , , ,4.719,4.57,-104.821
 09:47:33.476,eb:33:2e:f9:57:b5, 2015-01-01 00:36:05.645,-1.347,-0.859,2.675,126.099,0.671,28.687, , , , , , ,5.268,4.647,-104.738
 09:47:33.476,eb:33:2e:f9:57:b5, 2015-01-01 00:36:05.645,-1.316,-0.544,2.522,166.382,-59.021,58.716, , , , , , ,6.048,4.455,-104.513
 09:47:33.476,eb:33:2e:f9:57:b5, 2015-01-01 00:36:05.645,-0.696,-0.271,3.474,197.449,-103.394,64.819, , , , , , ,7.026,3.994,-104.238
 09:47:33.519,eb:33:2e:f9:57:b5, 2015-01-01 00:36:05.955,-0.918,-1.018,5.172,252.136,-91.125,71.106, , , , , , ,8.168,3.45,-103.969
 09:47:33.519,eb:33:2e:f9:57:b5, 2015-01-01 00:36:05.955,0.212,-1.415,5.132,326.599,-98.999,77.942, , , , , , ,9.679,2.933,-103.651
 09:47:33.519,eb:33:2e:f9:57:b5, 2015-01-01 00:36:05.955,1.202,-1.259,5.309,401.428,-85.144,80.2, , , , , , ,11.552,2.395,-103.343
 09:47:33.519,eb:33:2e:f9:57:b5, 2015-01-01 00:36:05.955,1.009,-1.279,4.866,464.111,-48.584,70.374, , , , , , ,13.782,2.01,-103.046
 09:47:33.519,eb:33:2e:f9:57:b5, 2015-01-01 00:36:05.955,1.136,-1.538,4.996,513.855,-21.301,58.105, , , , , , ,16.243,1.758,-102.788
 09:47:33.519,eb:33:2e:f9:57:b5, 2015-01-01 00:36:05.955,1.475,-1.611,5.372,570.74,32.227,43.03, , , , , , ,19.001,1.752,-102.519
 09:47:33.519,eb:33:2e:f9:57:b5, 2015-01-01 00:36:05.955,1.163,-1.659,5.015,619.812,74.036,19.653, , , , , , ,22.011,1.978,-102.277
 09:47:33.520,eb:33:2e:f9:57:b5, 2015-01-01 00:36:05.955,1.036,-1.291,4.31,656.677,80.444,-15.442, , , , , , ,25.241,2.368,-102.118
 09:47:33.543,eb:33:2e:f9:57:b5, 2015-01-01 00:36:05.955,0.687,-1.169,4.408,684.937,75.745,-45.105, , , , , , ,28.614,2.774,-102.107
 09:47:33.543,eb:33:2e:f9:57:b5, 2015-01-01 00:36:05.955,1.228,-1.41,4.678,707.275,72.449,-68.42, , , , , , ,32.097,3.252,-102.162
 09:47:33.544,eb:33:2e:f9:57:b5, 2015-01-01 00:36:05.955,1.02,-2.453,4.528,737.427,109.497,-70.984, , , , , , ,35.711,3.851,-102.189
 09:47:33.544,eb:33:2e:f9:57:b5, 2015-01-01 00:36:05.955,1.087,-1.11,3.89,745.3,87.83,-103.271, , , , , , ,39.446,4.537,-102.244
 09:47:33.544,eb:33:2e:f9:57:b5, 2015-01-01 00:36:05.955,0.32,-0.516,4.955,731.384,109.436,-115.173, , , , , , ,43.11,5.251,-102.343
 09:47:33.544,eb:33:2e:f9:57:b5, 2015-01-01 00:36:05.955,-0.255,0.255,5.872,711.548,151.428,-116.882, , , , , , ,46.719,6.147,-102.272
 09:47:33.544,eb:33:2e:f9:57:b5, 2015-01-01 00:36:05.955,-0.992,0.455,5.255,655.823,199.28,-90.515, , , , , , ,50.169,7.152,-101.909
 09:47:33.544,eb:33:2e:f9:57:b5, 2015-01-01 00:36:05.955,-0.452,0.002,2.081,561.829,200.928,-46.936, , , , , , ,53.262,8.064,-101.327
 09:47:33.610,eb:33:2e:f9:57:b5, 2015-01-01 00:36:05.955,0.021,0.191,-0.809,404.358,212.036,1.404, , , , , , ,55.734,8.745,-100.536
 09:47:33.610,eb:33:2e:f9:57:b5, 2015-01-01 00:36:05.955,0.608,-0.19,-1.041,288.391,253.601,48.218, , , , , , ,57.502,9.245,-99.437
 09:47:33.610,eb:33:2e:f9:57:b5, 2015-01-01 00:36:05.955,0.455,0.62,-0.309,285.889,244.629,93.445, , , , , , ,59.178,9.608,-98.119
 09:47:33.610,eb:33:2e:f9:57:b5, 2015-01-01 00:36:05.955,0.738,2.879,0.605,214.233,190.796,84.106, , , , , , ,60.579,9.761,-96.965
 09:47:33.610,eb:33:2e:f9:57:b5, 2015-01-01 00:36:05.955,1.085,2.233,2.342,200.5,120.972,83.069, , , , , , ,61.727,9.739,-96.114
 09:47:33.610,eb:33:2e:f9:57:b5, 2015-01-01 00:36:05.955,0.925,1.239,4.145,232.849,104.736,72.021, , , , , , ,62.919,9.657,-95.4
 09:47:33.610,eb:33:2e:f9:57:b5, 2015-01-01 00:36:05.955,1.144,0.808,4.396,305.115,78.125,49.316, , , , , , ,64.385,9.597,-94.856
 09:47:33.611,eb:33:2e:f9:57:b5, 2015-01-01 00:36:05.955,0.99,0.812,4.664,372.986,44.678,27.161, , , , , , ,66.165,9.553,-94.532
 09:47:33.611,eb:33:2e:f9:57:b5, 2015-01-01 00:36:05.955,0.593,0.589,4.716,415.771,18.127,6.653, , , , , , ,68.198,9.542,-94.367
 09:47:33.611,eb:33:2e:f9:57:b5, 2015-01-01 00:36:05.955,0.26,0.135,4.584,431.091,-1.831,-9.644, , , , , , ,70.329,9.564,-94.307
 09:47:33.611,eb:33:2e:f9:57:b5, 2015-01-01 00:36:05.955,0.375,-0.527,4.446,438.538,-17.578,-24.78, , , , , , ,72.499,9.641,-94.384
 09:47:33.611,eb:33:2e:f9:57:b5, 2015-01-01 00:36:05.955,0.686,-0.942,4.636,436.035,-33.936,-38.818, , , , , , ,74.636,9.756,-94.592
 09:47:33.611,eb:33:2e:f9:57:b5, 2015-01-01 00:36:05.955,0.833,-1.099,5.064,423.035,-27.649,-60.181, , , , , , ,76.74,9.965,-94.812
 09:47:33.611,eb:33:2e:f9:57:b5, 2015-01-01 00:36:05.955,0.973,-1.296,5.311,405.823,-4.028,-84.595, , , , , , ,78.777,10.311,-94.911
 09:47:33.611,eb:33:2e:f9:57:b5, 2015-01-01 00:36:05.955,1.131,-1.593,5.319,386.658,30.212,-111.023, , , , , , ,80.75,10.822,-94.922
 09:47:33.611,eb:33:2e:f9:57:b5, 2015-01-01 00:36:05.955,1.315,-1.996,5.128,363.953,65.857,-139.221, , , , , , ,82.617,11.486,-94.774
 09:47:33.678,eb:33:2e:f9:57:b5, 2015-01-01 00:36:05.955,1.471,-2.428,4.713,334.167,100.769,-166.809, , , , , , ,84.419,12.31,-94.422
 09:47:33.678,eb:33:2e:f9:57:b5, 2015-01-01 00:36:05.955,1.534,-2.747,4.018,294.434,128.601,-191.528, , , , , , ,86.094,13.26,-93.834
 09:47:33.678,eb:33:2e:f9:57:b5, 2015-01-01 00:36:05.955,1.473,-2.958,3.305,248.108,145.325,-211.975, , , , , , ,87.589,14.321,-93.175
 09:47:33.678,eb:33:2e:f9:57:b5, 2015-01-01 00:36:05.955,1.314,-3.014,2.799,201.172,145.447,-229.004, , , , , , ,88.824,15.452,-92.477
 09:47:33.678,eb:33:2e:f9:57:b5, 2015-01-01 00:36:05.955,1.146,-2.927,2.506,157.471,128.113,-242.249, , , , , , ,89.89,16.644,-91.78
 09:47:33.678,eb:33:2e:f9:57:b5, 2015-01-01 00:36:05.955,1.013,-2.827,2.438,118.713,101.624,-250.549, , , , , , ,90.736,17.88,-91.121
 09:47:33.678,eb:33:2e:f9:57:b5, 2015-01-01 00:36:05.955,0.882,-2.817,2.516,85.327,79.224,-252.319, , , , , , ,91.384,19.133,-90.637
 09:47:33.678,eb:33:2e:f9:57:b5, 2015-01-01 00:36:05.955,0.74,-2.885,2.588,55.542,65.43,-247.192, , , , , , ,91.807,20.369,-90.253
 09:47:33.724,eb:33:2e:f9:57:b5, 2015-01-01 00:36:05.955,0.596,-2.961,2.586,26.062,62.5,-235.535, , , , , , ,92.131,21.561,-89.874
 09:47:33.724,eb:33:2e:f9:57:b5, 2015-01-01 00:36:05.955,0.467,-3.008,2.496,-4.517,69.702,-216.797, , , , , , ,92.324,22.67,-89.407
 09:47:33.724,eb:33:2e:f9:57:b5, 2015-01-01 00:36:05.955,0.283,-3.027,2.392,-35.034,83.252,-192.749, , , , , , ,92.395,23.67,-88.934
 09:47:33.724,eb:33:2e:f9:57:b5, 2015-01-01 00:36:05.955,0.091,-3.013,2.223,-64.331,94.177,-162.598, , , , , , ,92.291,24.527,-88.434
 09:47:33.724,eb:33:2e:f9:57:b5, 2015-01-01 00:36:05.955,-0.033,-3.01,2.024,-93.018,99.548,-127.991, , , , , , ,92.12,25.219,-87.869
 09:47:33.724,eb:33:2e:f9:57:b5, 2015-01-01 00:36:05.955,0.009,-3.019,1.767,-124.268,104.004,-88.806, , , , , , ,91.818,25.724,-87.22
 09:47:33.725,eb:33:2e:f9:57:b5, 2015-01-01 00:36:05.955,0.188,-3.021,1.475,-161.194,113.892,-49.011, , , , , , ,91.357,26.032,-86.605
 09:47:33.725,eb:33:2e:f9:57:b5, 2015-01-01 00:36:05.955,0.496,-2.964,1.004,-213.501,125.305,-2.869, , , , , , ,90.632,26.136,-85.968
 09:47:33.745,eb:33:2e:f9:57:b5, 2015-01-01 00:36:05.955,0.748,-2.783,0.591,-260.925,131.165,30.579, , , , , , ,89.742,26.043,-85.243
 09:47:33.745,eb:33:2e:f9:57:b5, 2015-01-01 00:36:05.955,1.01,-2.455,0.173,-305.969,119.873,56.396, , , , , , ,88.605,25.818,-84.485
 09:47:33.745,eb:33:2e:f9:57:b5, 2015-01-01 00:36:05.955,1.339,-2.055,-0.112,-341.98,91.248,68.787, , , , , , ,87.22,25.51,-83.897
 09:47:33.745,eb:33:2e:f9:57:b5, 2015-01-01 00:36:05.955,1.629,-1.602,-0.486,-372.681,46.875,67.688, , , , , , ,85.523,25.197,-83.551
 09:47:33.745,eb:33:2e:f9:57:b5, 2015-01-01 00:36:05.955,1.789,-1.177,-0.913,-402.1,-10.864,58.167, , , , , , ,83.611,24.89,-83.447
 09:47:33.745,eb:33:2e:f9:57:b5, 2015-01-01 00:36:05.955,1.875,-0.853,-1.098,-429.26,-78.43,42.175, , , , , , ,81.42,24.615,-83.639
 09:47:33.745,eb:33:2e:f9:57:b5, 2015-01-01 00:36:05.955,1.861,-0.653,-0.902,-452.026,-141.113,22.034, , , , , , ,78.948,24.362,-84.249
 09:47:33.746,eb:33:2e:f9:57:b5, 2015-01-01 00:36:05.955,1.768,-0.533,-0.498,-471.008,-190.186,0.732, , , , , , ,76.201,24.137,-85.199
 09:47:33.768,eb:33:2e:f9:57:b5, 2015-01-01 00:36:05.955,1.597,-0.467,-0.048,-487.183,-226.135,-17.639, , , , , , ,73.328,23.906,-86.336
 09:47:33.768,eb:33:2e:f9:57:b5, 2015-01-01 00:36:05.955,1.427,-0.476,0.376,-503.174,-249.634,-30.64, , , , , , ,70.323,23.654,-87.594
 09:47:33.768,eb:33:2e:f9:57:b5, 2015-01-01 00:36:05.955,1.275,-0.576,0.823,-519.653,-257.324,-36.743, , , , , , ,67.209,23.357,-88.962
 09:47:33.768,eb:33:2e:f9:57:b5, 2015-01-01 00:36:05.955,1.134,-0.703,1.267,-535.645,-251.831,-37.476, , , , , , ,63.973,22.994,-90.346
 09:47:33.768,eb:33:2e:f9:57:b5, 2015-01-01 00:36:05.955,1.019,-0.759,1.552,-549.561,-242.065,-34.302, , , , , , ,60.76,22.588,-91.62
 09:47:33.768,eb:33:2e:f9:57:b5, 2015-01-01 00:36:05.955,0.954,-0.716,1.709,-561.34,-237.732,-28.87, , , , , , ,57.519,22.104,-92.774
 09:47:33.768,eb:33:2e:f9:57:b5, 2015-01-01 00:36:05.955,0.908,-0.641,1.808,-570.435,-242.676,-22.705, , , , , , ,54.261,21.539,-93.922
 09:47:33.769,eb:33:2e:f9:57:b5, 2015-01-01 00:36:05.955,0.91,-0.57,1.87,-576.416,-258.118,-17.944, , , , , , ,50.916,20.841,-95.092
 09:47:33.813,eb:33:2e:f9:57:b5, 2015-01-01 00:36:05.955,0.941,-0.545,1.963,-579.651,-278.442,-13.184, , , , , , ,47.626,20.017,-96.24
 09:47:33.813,eb:33:2e:f9:57:b5, 2015-01-01 00:36:05.955,0.971,-0.584,2.1,-580.811,-298.828,-9.521, , , , , , ,44.335,19.045,-97.361
 09:47:33.813,eb:33:2e:f9:57:b5, 2015-01-01 00:36:05.955,1.035,-0.64,2.229,-580.688,-319.031,-6.409, , , , , , ,41.067,17.924,-98.503
 09:47:33.813,eb:33:2e:f9:57:b5, 2015-01-01 00:36:05.955,1.122,-0.694,2.385,-579.529,-336.426,-5.432, , , , , , ,37.771,16.65,-99.657
 09:47:33.813,eb:33:2e:f9:57:b5, 2015-01-01 00:36:05.955,1.198,-0.729,2.573,-576.843,-351.135,-7.019, , , , , , ,34.585,15.276,-100.745
 09:47:33.813,eb:33:2e:f9:57:b5, 2015-01-01 00:36:05.955,1.3,-0.697,2.727,-573.669,-364.075,-13, , , , , , ,31.443,13.799,-101.777
 09:47:33.814,eb:33:2e:f9:57:b5, 2015-01-01 00:36:05.955,1.408,-0.581,2.863,-568.604,-377.38,-26.55, , , , , , ,28.35,12.239,-102.821
 09:47:33.814,eb:33:2e:f9:57:b5, 2015-01-01 00:36:05.955,1.375,-0.395,2.943,-559.57,-397.034,-45.593, , , , , , ,25.263,10.563,-103.92
 09:47:33.992,eb:33:2e:f9:57:b5, 2015-01-01 00:36:06.315,1.195,-0.152,2.977,-548.035,-426.88,-66.528, , , , , , ,22.308,8.784,-105.035
 09:47:33.992,eb:33:2e:f9:57:b5, 2015-01-01 00:36:06.315,0.903,0.071,3.089,-537.476,-462.769,-84.106, , , , , , ,19.44,6.828,-106.188
 09:47:33.992,eb:33:2e:f9:57:b5, 2015-01-01 00:36:06.315,0.51,0.196,3.397,-531.494,-493.774,-90.759, , , , , , ,16.655,4.675,-107.369
 09:47:33.992,eb:33:2e:f9:57:b5, 2015-01-01 00:36:06.315,-0.042,0.232,3.946,-529.724,-502.502,-82.581, , , , , , ,13.876,2.335,-108.468
 09:47:33.993,eb:33:2e:f9:57:b5, 2015-01-01 00:36:06.315,-0.646,0.253,4.584,-529.48,-487.915,-57.129, , , , , , ,11.206,0,-109.341
 09:47:33.993,eb:33:2e:f9:57:b5, 2015-01-01 00:36:06.315,-1.027,0.326,5.182,-526.245,-454.041,-16.724, , , , , , ,8.575,-2.285,-109.907
 09:47:33.993,eb:33:2e:f9:57:b5, 2015-01-01 00:36:06.315,-1.226,0.494,5.619,-517.822,-404.175,32.349, , , , , , ,5.982,-4.4,-110.116
 09:47:33.993,eb:33:2e:f9:57:b5, 2015-01-01 00:36:06.315,-1.376,0.781,5.678,-508.911,-350.952,87.219, , , , , , ,3.34,-6.312,-109.946
 09:47:33.993,eb:33:2e:f9:57:b5, 2015-01-01 00:36:06.315,-1.417,1.086,5.42,-500.977,-313.232,142.273, , , , , , ,0.753,-7.965,-109.396
 09:47:33.993,eb:33:2e:f9:57:b5, 2015-01-01 00:36:06.315,-1.328,1.496,5.027,-491.089,-294.739,199.524, , , , , , ,-1.862,-9.459,-108.49
 09:47:33.993,eb:33:2e:f9:57:b5, 2015-01-01 00:36:06.315,-1.115,1.974,4.704,-481.75,-301.514,235.352, , , , , , ,-4.504,-10.882,-107.281
 09:47:33.994,eb:33:2e:f9:57:b5, 2015-01-01 00:36:06.315,-0.818,2.586,4.485,-471.619,-323.303,258.057, , , , , , ,-7.229,-12.343,-105.842
 09:47:33.994,eb:33:2e:f9:57:b5, 2015-01-01 00:36:06.315,-0.708,3.285,4.366,-459.656,-351.746,268.372, , , , , , ,-9.921,-13.826,-104.238
 09:47:33.994,eb:33:2e:f9:57:b5, 2015-01-01 00:36:06.315,-0.737,4.002,4.255,-444.153,-390.686,270.081, , , , , , ,-12.612,-15.397,-102.508
 09:47:33.994,eb:33:2e:f9:57:b5, 2015-01-01 00:36:06.315,-0.76,4.58,4.4,-420.898,-427.429,264.465, , , , , , ,-15.293,-17.084,-100.635
 09:47:33.994,eb:33:2e:f9:57:b5, 2015-01-01 00:36:06.315,-0.852,4.959,4.916,-387.634,-435.425,255.432, , , , , , ,-17.957,-18.814,-98.668
 09:47:33.997,eb:33:2e:f9:57:b5, 2015-01-01 00:36:06.315,-1.061,5.245,5.472,-345.703,-401.489,244.995, , , , , , ,-20.44,-20.38,-96.691
 09:47:33.997,eb:33:2e:f9:57:b5, 2015-01-01 00:36:06.315,-1.182,5.538,5.672,-300.415,-333.618,234.375, , , , , , ,-22.714,-21.632,-94.818
 09:47:33.998,eb:33:2e:f9:57:b5, 2015-01-01 00:36:06.315,-0.997,5.837,5.573,-257.568,-239.685,220.032, , , , , , ,-24.73,-22.456,-93.093
 09:47:33.998,eb:33:2e:f9:57:b5, 2015-01-01 00:36:06.315,-0.703,6.202,5.216,-219.177,-127.747,195.74, , , , , , ,-26.488,-22.791,-91.67
 09:47:33.998,eb:33:2e:f9:57:b5, 2015-01-01 00:36:06.315,-0.468,6.598,4.393,-180.42,-31.616,157.898, , , , , , ,-27.856,-22.692,-90.665
 09:47:33.998,eb:33:2e:f9:57:b5, 2015-01-01 00:36:06.315,-0.353,6.905,3.251,-140.625,23.254,106.201, , , , , , ,-28.867,-22.368,-90.11
 09:47:33.998,eb:33:2e:f9:57:b5, 2015-01-01 00:36:06.315,-0.453,6.94,2.125,-103.943,37.476,47.668, , , , , , ,-29.553,-22.044,-89.863
 09:47:33.999,eb:33:2e:f9:57:b5, 2015-01-01 00:36:06.315,-0.804,6.68,1.254,-73.608,21.912,-7.874, , , , , , ,-29.993,-21.885,-89.874
 09:47:33.999,eb:33:2e:f9:57:b5, 2015-01-01 00:36:06.315,-1.35,6.154,0.834,-48.645,-8.057,-50.964, , , , , , ,-30.218,-21.951,-90.049
 09:47:33.999,eb:33:2e:f9:57:b5, 2015-01-01 00:36:06.315,-1.925,5.455,0.823,-26.55,-34.851,-75.134, , , , , , ,-30.3,-22.225,-90.335
 09:47:33.999,eb:33:2e:f9:57:b5, 2015-01-01 00:36:06.315,-2.378,4.707,1.024,-4.456,-50.659,-79.834, , , , , , ,-30.273,-22.626,-90.582
 09:47:33.999,eb:33:2e:f9:57:b5, 2015-01-01 00:36:06.315,-2.597,3.991,1.281,20.081,-53.345,-68.481, , , , , , ,-30.152,-23.044,-90.775
 09:47:33.999,eb:33:2e:f9:57:b5, 2015-01-01 00:36:06.315,-2.541,3.341,1.598,50.537,-39.307,-46.936, , , , , , ,-29.905,-23.384,-90.917
 09:47:33.999,eb:33:2e:f9:57:b5, 2015-01-01 00:36:06.315,-2.219,2.805,1.849,86.609,-13.672,-22.583, , , , , , ,-29.515,-23.571,-91.044
 09:47:34.000,eb:33:2e:f9:57:b5, 2015-01-01 00:36:06.315,5.053,2.41,1.883,125.183,13.855,-2.625, , , , , , ,-28.943,-23.577,-91.099
 09:47:34.000,eb:33:2e:f9:57:b5, 2015-01-01 00:36:06.315,-1.393,3.394,9.143,628.906,103.21,-280.518, , , , , , ,-26.625,-24.532,-91.703
 09:47:34.016,eb:33:2e:f9:57:b5, 2015-01-01 00:36:06.315,5.889,9.932,-3.683,740.784,350.708,-337.463, , , , , , ,-22.165,-23.159,-94.054
 09:47:34.016,eb:33:2e:f9:57:b5, 2015-01-01 00:36:06.315,-0.841,10.117,1.891,686.951,439.453,-617.126, , , , , , ,-17.238,-22.291,-97.531
 09:47:34.016,eb:33:2e:f9:57:b5, 2015-01-01 00:36:06.315,-4.668,5.759,5.168,758.911,452.332,-579.285, , , , , , ,-12.178,-20.912,-101.393
 09:47:34.016,eb:33:2e:f9:57:b5, 2015-01-01 00:36:06.315,-2.124,8.653,6.209,614.563,613.77,-404.907, , , , , , ,-7.603,-18.644,-104.211
 09:47:34.016,eb:33:2e:f9:57:b5, 2015-01-01 00:36:06.315,1.336,2.087,5.92,360.657,776.611,-117.371, , , , , , ,-4.905,-15.233,-106.018
 09:47:34.016,eb:33:2e:f9:57:b5, 2015-01-01 00:36:06.315,1.744,0.697,5.692,213.135,789.185,188.782, , , , , , ,-3.631,-11.179,-105.87
 09:47:34.016,eb:33:2e:f9:57:b5, 2015-01-01 00:36:06.315,-6.242,3.421,1.308,76.05,563.11,113.77, , , , , , ,-3.071,-7.839,-105.32
 09:47:34.017,eb:33:2e:f9:57:b5, 2015-01-01 00:36:06.315,-3.333,-0.379,-0.378,77.148,438.721,91.125, , , , , , ,-2.78,-5.4,-104.974
 09:47:34.106,eb:33:2e:f9:57:b5, 2015-01-01 00:36:06.315,0.048,-1.57,-1.18,177.856,209.412,35.95, , , , , , ,-2.126,-3.752,-104.716
 09:47:34.106,eb:33:2e:f9:57:b5, 2015-01-01 00:36:06.315,-1.06,0.142,0.661,186.401,162.415,-43.457, , , , , , ,-1.132,-3.027,-104.854
 09:47:34.106,eb:33:2e:f9:57:b5, 2015-01-01 00:36:06.315,0.923,0.459,0.876,160.95,123.718,29.48, , , , , , ,-0.258,-2.335,-104.837
 09:47:34.106,eb:33:2e:f9:57:b5, 2015-01-01 00:36:06.315,0.972,1.068,0.385,108.154,143.433,-25.757, , , , , , ,0.374,-1.56,-104.843
 09:47:34.106,eb:33:2e:f9:57:b5, 2015-01-01 00:36:06.315,0.877,0.533,0.84,106.812,132.751,-38.513, , , , , , ,0.928,-0.956,-104.996
 09:47:34.106,eb:33:2e:f9:57:b5, 2015-01-01 00:36:06.315,-1.682,0.621,1.466,91.614,200.378,-57.068, , , , , , ,1.412,-0.06,-105.227
 09:47:34.106,eb:33:2e:f9:57:b5, 2015-01-01 00:36:06.315,-1.4,-0.08,-0.434,78.552,132.385,-29.785, , , , , , ,1.829,0.807,-105.441
 09:47:34.106,eb:33:2e:f9:57:b5, 2015-01-01 00:36:06.315,-0.178,0.09,-0.077,60.913,69.946,-3.967, , , , , , ,2.197,1.247,-105.474
 09:47:34.150,eb:33:2e:f9:57:b5, 2015-01-01 00:36:06.315,0.428,-0.041,1.294,68.298,67.383,-9.033, , , , , , ,2.521,1.593,-105.496
 09:47:34.150,eb:33:2e:f9:57:b5, 2015-01-01 00:36:06.315,1.313,0.466,1.624,71.228,72.693,-9.888, , , , , , ,2.873,1.928,-105.518
 09:47:34.150,eb:33:2e:f9:57:b5, 2015-01-01 00:36:06.315,0.078,0.192,2.985,87.891,128.357,-36.804, , , , , , ,3.274,2.466,-105.628
 09:47:34.150,eb:33:2e:f9:57:b5, 2015-01-01 00:36:06.315,-0.116,-0.019,1.723,99.792,122.07,-29.236, , , , , , ,3.774,3.148,-105.754
 09:47:34.151,eb:33:2e:f9:57:b5, 2015-01-01 00:36:06.315,-0.248,0.002,1.342,109.68,95.215,-30.701, , , , , , ,4.296,3.686,-105.864
 09:47:34.151,eb:33:2e:f9:57:b5, 2015-01-01 00:36:06.315,-0.59,0.36,0.433,110.901,30.212,-21.423, , , , , , ,4.839,4.005,-105.969
 09:47:34.151,eb:33:2e:f9:57:b5, 2015-01-01 00:36:06.315,-1.25,0.03,1.709,107.117,20.325,-1.587, , , , , , ,5.361,4.092,-106.029
 09:47:34.151,eb:33:2e:f9:57:b5, 2015-01-01 00:36:06.315,-1.563,-0.75,3.008,151.611,-19.531,43.579, , , , , , ,6.059,4.098,-105.881
 09:47:34.151,eb:33:2e:f9:57:b5, 2015-01-01 00:36:06.315,-1.712,-0.724,4.208,182.983,-13.855,47.546, , , , , , ,6.938,3.983,-105.677
 09:47:34.151,eb:33:2e:f9:57:b5, 2015-01-01 00:36:06.315,-1.042,-1.308,4.626,235.229,-20.02,73.547, , , , , , ,8.015,3.895,-105.364
 09:47:34.151,eb:33:2e:f9:57:b5, 2015-01-01 00:36:06.315,0.04,-1.082,4.438,296.753,-66.956,80.505, , , , , , ,9.399,3.582,-105.013
 09:47:34.151,eb:33:2e:f9:57:b5, 2015-01-01 00:36:06.315,0.553,-1.174,4.297,365.356,-74.463,78.186, , , , , , ,11.129,3.175,-104.689
 09:47:34.151,eb:33:2e:f9:57:b5, 2015-01-01 00:36:06.315,1.057,-1.225,3.93,439.697,-87.219,77.942, , , , , , ,13.2,2.681,-104.398
 09:47:34.151,eb:33:2e:f9:57:b5, 2015-01-01 00:36:06.315,0.448,-1.042,4.438,484.375,-46.509,67.749, , , , , , ,15.551,2.252,-104.117
 09:47:34.153,eb:33:2e:f9:57:b5, 2015-01-01 00:36:06.315,0.471,-1.749,5.024,537.354,-10.864,56.213, , , , , , ,18.122,2.06,-103.859
 09:47:34.153,eb:33:2e:f9:57:b5, 2015-01-01 00:36:06.315,0.755,-1.634,5.017,577.942,21.179,43.213, , , , , , ,20.978,2.049,-103.623
 09:47:34.265,eb:33:2e:f9:57:b5, 2015-01-01 00:36:06.315,0.224,-1.219,3.855,610.718,39.307,22.034, , , , , , ,23.978,2.159,-103.403
 09:47:34.265,eb:33:2e:f9:57:b5, 2015-01-01 00:36:06.315,0.316,-0.817,2.888,634.094,-2.38,-12.756, , , , , , ,27.103,2.225,-103.348
 09:47:34.265,eb:33:2e:f9:57:b5, 2015-01-01 00:36:06.315,0.786,-0.865,3.688,659.18,-29.419,-36.804, , , , , , ,30.339,2.203,-103.524
 09:47:34.265,eb:33:2e:f9:57:b5, 2015-01-01 00:36:06.315,0.348,-1.488,3.763,699.341,-12.024,-59.998, , , , , , ,33.755,2.241,-103.793
 09:47:34.266,eb:33:2e:f9:57:b5, 2015-01-01 00:36:06.315,0.225,-1.551,4.392,697.083,-21.362,-78.125, , , , , , ,37.238,2.351,-104.178
 09:47:34.266,eb:33:2e:f9:57:b5, 2015-01-01 00:36:06.315,0.003,-1.584,5.096,698.303,47.241,-75.378, , , , , , ,40.715,2.703,-104.359
 09:47:34.266,eb:33:2e:f9:57:b5, 2015-01-01 00:36:06.315,0.079,-0.45,5.549,698.425,86.548,-82.52, , , , , , ,44.198,3.224,-104.42
 09:47:34.266,eb:33:2e:f9:57:b5, 2015-01-01 00:36:06.315,-0.421,0.734,6.085,683.105,154.663,-93.018, , , , , , ,47.67,3.999,-104.293
 09:47:34.268,eb:33:2e:f9:57:b5, 2015-01-01 00:36:06.315,-1.051,0.382,5.773,644.775,245.361,-64.941, , , , , , ,51.015,4.977,-103.76
 09:47:34.268,eb:33:2e:f9:57:b5, 2015-01-01 00:36:06.315,-0.86,0.054,3.123,575.745,296.448,-18.616, , , , , , ,54.146,5.993,-102.711
 09:47:34.268,eb:33:2e:f9:57:b5, 2015-01-01 00:36:06.315,0.588,0.73,-1.097,413.147,285.034,23.865, , , , , , ,56.711,6.779,-101.486
 09:47:34.271,eb:33:2e:f9:57:b5, 2015-01-01 00:36:06.315,1.143,0.905,-1.745,252.808,302.979,41.626, , , , , , ,58.403,7.416,-100.168
 09:47:34.271,eb:33:2e:f9:57:b5, 2015-01-01 00:36:06.315,0.38,1.178,-1.245,227.722,281.189,72.754, , , , , , ,59.793,7.932,-98.712
 09:47:34.271,eb:33:2e:f9:57:b5, 2015-01-01 00:36:06.315,0.833,2.848,-0.465,152.527,229.675,64.88, , , , , , ,60.886,8.245,-97.394
 09:47:34.271,eb:33:2e:f9:57:b5, 2015-01-01 00:36:06.315,1.232,2.317,2.041,128.601,149.475,58.96, , , , , , ,61.677,8.394,-96.471
 09:47:34.271,eb:33:2e:f9:57:b5, 2015-01-01 00:36:06.315,1.148,1.54,3.647,163.025,140.625,38.574, , , , , , ,62.518,8.531,-95.718
 09:47:34.271,eb:33:2e:f9:57:b5, 2015-01-01 00:36:06.315,1.412,1.439,3.636,238.342,98.755,6.653, , , , , , ,63.638,8.707,-95.147
 09:47:34.272,eb:33:2e:f9:57:b5, 2015-01-01 00:36:06.315,1.113,1.464,3.857,308.044,64.087,-23.865, , , , , , ,65.094,8.926,-94.779
 09:47:34.272,eb:33:2e:f9:57:b5, 2015-01-01 00:36:06.315,0.893,1.261,3.734,351.929,28.381,-51.697, , , , , , ,66.797,9.201,-94.664
 09:47:34.272,eb:33:2e:f9:57:b5, 2015-01-01 00:36:06.315,0.685,0.856,3.879,372.864,7.568,-73.853, , , , , , ,68.615,9.536,-94.735
 09:47:34.272,eb:33:2e:f9:57:b5, 2015-01-01 00:36:06.315,0.54,0.483,4.066,384.644,-8.484,-90.942, , , , , , ,70.488,9.932,-94.894
 09:47:34.272,eb:33:2e:f9:57:b5, 2015-01-01 00:36:06.315,0.393,0.192,4.371,387.756,-16.846,-100.098, , , , , , ,72.383,10.366,-95.07
 09:47:34.272,eb:33:2e:f9:57:b5, 2015-01-01 00:36:06.315,0.286,-0.053,4.871,385.681,-8.911,-104.065, , , , , , ,74.279,10.838,-95.284
 09:47:34.273,eb:33:2e:f9:57:b5, 2015-01-01 00:36:06.670,0.384,-0.38,5.441,386.841,13.245,-107.117, , , , , , ,76.168,11.36,-95.427
 09:47:34.376,eb:33:2e:f9:57:b5, 2015-01-01 00:36:06.670,0.877,-0.842,5.859,396.545,42.053,-113.159, , , , , , ,78.135,11.931,-95.4
 09:47:34.376,eb:33:2e:f9:57:b5, 2015-01-01 00:36:06.670,1.23,-1.182,6.112,404.907,75.806,-123.962, , , , , , ,80.184,12.574,-95.147
 09:47:34.376,eb:33:2e:f9:57:b5, 2015-01-01 00:36:06.670,1.434,-1.461,5.946,405.884,108.337,-139.893, , , , , , ,82.299,13.304,-94.763
 09:47:34.376,eb:33:2e:f9:57:b5, 2015-01-01 00:36:06.670,1.609,-1.742,5.542,399.048,136.963,-158.02, , , , , , ,84.413,14.123,-94.235
 09:47:34.376,eb:33:2e:f9:57:b5, 2015-01-01 00:36:06.670,1.715,-2.01,5.11,384.338,160.828,-176.575, , , , , , ,86.545,15.029,-93.521
 09:47:34.376,eb:33:2e:f9:57:b5, 2015-01-01 00:36:06.670,1.775,-2.233,4.575,361.267,176.758,-195.19, , , , , , ,88.632,16.002,-92.615
 09:47:34.376,eb:33:2e:f9:57:b5, 2015-01-01 00:36:06.670,1.735,-2.353,3.816,325.5,180.542,-212.524, , , , , , ,90.599,17.034,-91.681
 09:47:34.376,eb:33:2e:f9:57:b5, 2015-01-01 00:36:06.670,1.502,-2.477,3.056,279.48,171.875,-227.661, , , , , , ,92.34,18.122,-90.753
 09:47:34.377,eb:33:2e:f9:57:b5, 2015-01-01 00:36:06.670,1.3,-2.628,2.518,228.21,146.118,-239.197, , , , , , ,93.873,19.254,-89.852
 09:47:34.377,eb:33:2e:f9:57:b5, 2015-01-01 00:36:06.670,1.149,-2.704,2.364,177.917,116.577,-244.08, , , , , , ,95.125,20.407,-89.006
 09:47:34.377,eb:33:2e:f9:57:b5, 2015-01-01 00:36:06.670,1.031,-2.715,2.522,133.606,91.919,-241.821, , , , , , ,96.119,21.572,-88.341
 09:47:34.377,eb:33:2e:f9:57:b5, 2015-01-01 00:36:06.670,0.903,-2.739,2.727,95.337,81.055,-232.544, , , , , , ,96.844,22.698,-87.775
 09:47:34.377,eb:33:2e:f9:57:b5, 2015-01-01 00:36:06.670,0.839,-2.821,2.784,62.195,80.139,-217.285, , , , , , ,97.449,23.763,-87.193
 09:47:34.377,eb:33:2e:f9:57:b5, 2015-01-01 00:36:06.670,0.815,-2.924,2.736,32.166,88.501,-196.899, , , , , , ,97.921,24.719,-86.517
 09:47:34.377,eb:33:2e:f9:57:b5, 2015-01-01 00:36:06.670,0.793,-2.995,2.592,3.723,101.44,-173.035, , , , , , ,98.278,25.56,-85.847
 09:47:34.377,eb:33:2e:f9:57:b5, 2015-01-01 00:36:06.670,0.785,-3.011,2.387,-23.56,113.281,-146.912, , , , , , ,98.481,26.263,-85.155
 09:47:34.380,eb:33:2e:f9:57:b5, 2015-01-01 00:36:06.670,0.697,-2.995,2.211,-49.072,120.117,-118.591, , , , , , ,98.624,26.818,-84.391
 09:47:34.380,eb:33:2e:f9:57:b5, 2015-01-01 00:36:06.670,0.512,-2.978,1.946,-72.998,117.31,-87.891, , , , , , ,98.646,27.224,-83.578
 09:47:34.380,eb:33:2e:f9:57:b5, 2015-01-01 00:36:06.670,0.455,-2.978,1.498,-99.426,101.929,-53.467, , , , , , ,98.509,27.477,-82.919
 09:47:34.380,eb:33:2e:f9:57:b5, 2015-01-01 00:36:06.670,0.482,-3.041,1.036,-134.033,87.28,-15.869, , , , , , ,98.102,27.576,-82.408
 09:47:34.380,eb:33:2e:f9:57:b5, 2015-01-01 00:36:06.670,0.704,-3.085,0.476,-183.167,73.73,23.926, , , , , , ,97.493,27.482,-81.974
 09:47:34.380,eb:33:2e:f9:57:b5, 2015-01-01 00:36:06.670,0.932,-3.119,0.037,-243.408,70.129,63.416, , , , , , ,96.564,27.202,-81.552
 09:47:34.380,eb:33:2e:f9:57:b5, 2015-01-01 00:36:06.670,1.237,-2.952,-0.348,-306.763,62.744,98.267, , , , , , ,95.306,26.741,-81.227
 09:47:34.380,eb:33:2e:f9:57:b5, 2015-01-01 00:36:06.670,1.694,-2.615,-0.421,-361.694,44.312,121.094, , , , , , ,93.653,26.169,-81.019
 09:47:34.420,eb:33:2e:f9:57:b5, 2015-01-01 00:36:06.670,2.09,-2.042,-0.495,-413.391,7.202,128.113, , , , , , ,91.73,25.532,-80.92
 09:47:34.420,eb:33:2e:f9:57:b5, 2015-01-01 00:36:06.670,2.387,-1.445,-0.722,-451.416,-34.607,121.216, , , , , , ,89.506,24.906,-80.969
 09:47:34.420,eb:33:2e:f9:57:b5, 2015-01-01 00:36:06.670,2.484,-0.84,-0.767,-484.131,-84.961,102.661, , , , , , ,87.006,24.34,-81.304
 09:47:34.420,eb:33:2e:f9:57:b5, 2015-01-01 00:36:06.670,2.425,-0.38,-0.575,-508.606,-141.174,76.843, , , , , , ,84.21,23.868,-81.953
 09:47:34.420,eb:33:2e:f9:57:b5, 2015-01-01 00:36:06.670,2.278,-0.133,-0.21,-523.315,-194.641,49.622, , , , , , ,81.255,23.456,-82.853
 09:47:34.420,eb:33:2e:f9:57:b5, 2015-01-01 00:36:06.670,2.097,-0.111,0.229,-530.457,-237.61,25.024, , , , , , ,78.157,23.088,-83.958
 09:47:34.420,eb:33:2e:f9:57:b5, 2015-01-01 00:36:06.670,1.982,-0.216,0.657,-536.377,-265.93,5.798, , , , , , ,74.971,22.731,-85.292
 09:47:34.420,eb:33:2e:f9:57:b5, 2015-01-01 00:36:06.670,1.874,-0.365,1.109,-545.715,-274.963,-7.141, , , , , , ,71.664,22.346,-86.743
 09:47:34.466,eb:33:2e:f9:57:b5, 2015-01-01 00:36:06.670,1.659,-0.466,1.538,-558.838,-268.066,-14.16, , , , , , ,68.368,21.94,-88.143
 09:47:34.466,eb:33:2e:f9:57:b5, 2015-01-01 00:36:06.670,1.484,-0.478,1.803,-571.777,-262.329,-16.907, , , , , , ,65.039,21.489,-89.44
 09:47:34.466,eb:33:2e:f9:57:b5, 2015-01-01 00:36:06.670,1.325,-0.383,1.958,-583.069,-262.573,-17.639, , , , , , ,61.672,20.984,-90.742
 09:47:34.466,eb:33:2e:f9:57:b5, 2015-01-01 00:36:06.670,1.217,-0.283,2.052,-591.98,-271.973,-17.578, , , , , , ,58.222,20.38,-92.049
 09:47:34.466,eb:33:2e:f9:57:b5, 2015-01-01 00:36:06.670,1.103,-0.269,2.146,-598.389,-287.659,-15.442, , , , , , ,54.794,19.671,-93.345
 09:47:34.466,eb:33:2e:f9:57:b5, 2015-01-01 00:36:06.670,1.025,-0.374,2.26,-602.905,-307.129,-10.437, , , , , , ,51.356,18.825,-94.625
 09:47:34.466,eb:33:2e:f9:57:b5, 2015-01-01 00:36:06.670,0.991,-0.508,2.396,-605.835,-323.792,-4.333, , , , , , ,47.922,17.825,-95.922
 09:47:34.467,eb:33:2e:f9:57:b5, 2015-01-01 00:36:06.670,0.981,-0.635,2.546,-607.056,-337.769,3.296, , , , , , ,44.462,16.655,-97.202
 09:47:34.512,eb:33:2e:f9:57:b5, 2015-01-01 00:36:06.670,1.033,-0.725,2.666,-605.347,-350.769,9.583, , , , , , ,41.1,15.359,-98.394
 09:47:34.512,eb:33:2e:f9:57:b5, 2015-01-01 00:36:06.670,1.089,-0.745,2.776,-600.647,-364.563,13.306, , , , , , ,37.798,13.936,-99.503
 09:47:34.512,eb:33:2e:f9:57:b5, 2015-01-01 00:36:06.670,1.196,-0.688,2.864,-594.482,-382.69,13.123, , , , , , ,34.568,12.382,-100.585
 09:47:34.512,eb:33:2e:f9:57:b5, 2015-01-01 00:36:06.670,1.406,-0.57,3.013,-585.938,-401.123,4.15, , , , , , ,31.349,10.679,-101.662
 09:47:34.512,eb:33:2e:f9:57:b5, 2015-01-01 00:36:06.670,1.431,-0.387,3.145,-573.364,-419.312,-13.062, , , , , , ,28.273,8.904,-102.722
 09:47:34.512,eb:33:2e:f9:57:b5, 2015-01-01 00:36:06.670,1.101,-0.108,3.104,-559.814,-444.519,-32.959, , , , , , ,25.296,7.026,-103.81
 09:47:34.513,eb:33:2e:f9:57:b5, 2015-01-01 00:36:06.670,0.469,0.189,3.035,-551.575,-489.868,-45.349, , , , , , ,22.401,4.955,-104.958
 09:47:34.513,eb:33:2e:f9:57:b5, 2015-01-01 00:36:06.670,-0.161,0.389,3.24,-552.49,-534.546,-42.236, , , , , , ,19.512,2.582,-106.106
 09:47:34.692,eb:33:2e:f9:57:b5, 2015-01-01 00:36:06.670,-0.813,0.48,3.907,-555.298,-551.514,-24.109, , , , , , ,16.716,0.033,-107.117
 09:47:34.692,eb:33:2e:f9:57:b5, 2015-01-01 00:36:06.670,-1.278,0.509,4.686,-550.354,-540.771,10.559, , , , , , ,13.964,-2.593,-107.853
 09:47:34.692,eb:33:2e:f9:57:b5, 2015-01-01 00:36:06.670,-1.472,0.625,5.286,-537.842,-503.418,57.861, , , , , , ,11.272,-5.175,-108.237
 09:47:34.692,eb:33:2e:f9:57:b5, 2015-01-01 00:36:06.670,-1.656,0.867,5.581,-523.621,-447.51,113.708, , , , , , ,8.558,-7.603,-108.188
 09:47:34.693,eb:33:2e:f9:57:b5, 2015-01-01 00:36:06.670,-1.685,1.239,5.561,-513.306,-389.282,170.349, , , , , , ,5.9,-9.745,-107.71
 09:47:34.693,eb:33:2e:f9:57:b5, 2015-01-01 00:36:06.670,-1.579,1.67,5.528,-508.118,-328.552,221.008, , , , , , ,3.186,-11.585,-106.831
 09:47:34.693,eb:33:2e:f9:57:b5, 2015-01-01 00:36:06.670,-1.388,2.205,5.392,-504.578,-275.513,260.742, , , , , , ,0.396,-13.096,-105.623
 09:47:34.693,eb:33:2e:f9:57:b5, 2015-01-01 00:36:06.670,-1.17,2.997,5.107,-503.052,-246.094,283.325, , , , , , ,-2.516,-14.376,-104.167
 09:47:34.695,eb:33:2e:f9:57:b5, 2015-01-01 00:36:06.670,-1.044,3.992,4.84,-500.427,-242.615,288.818, , , , , , ,-5.433,-15.48,-102.596
 09:47:34.695,eb:33:2e:f9:57:b5, 2015-01-01 00:36:06.670,-0.94,4.854,4.535,-494.568,-263.55,280.823, , , , , , ,-8.366,-16.573,-100.981
 09:47:34.695,eb:33:2e:f9:57:b5, 2015-01-01 00:36:06.670,-0.881,5.453,4.523,-470.459,-292.908,262.207, , , , , , ,-11.261,-17.732,-99.333
 09:47:34.695,eb:33:2e:f9:57:b5, 2015-01-01 00:36:06.670,-0.916,5.782,4.731,-436.218,-297.729,244.751, , , , , , ,-14.079,-18.924,-97.685
 09:47:34.695,eb:33:2e:f9:57:b5, 2015-01-01 00:36:06.670,-0.956,6.044,4.966,-388.245,-279.907,225.647, , , , , , ,-16.655,-20.006,-96.086
 09:47:34.695,eb:33:2e:f9:57:b5, 2015-01-01 00:36:06.670,-0.982,6.233,5.135,-333.435,-238.037,204.956, , , , , , ,-18.957,-20.901,-94.614
 09:47:34.695,eb:33:2e:f9:57:b5, 2015-01-01 00:36:06.670,-0.85,6.395,5.062,-280.579,-174.377,181.885, , , , , , ,-20.951,-21.522,-93.279
 09:47:34.696,eb:33:2e:f9:57:b5, 2015-01-01 00:36:06.670,-0.564,6.489,4.755,-233.459,-94.116,156.006, , , , , , ,-22.637,-21.808,-92.181
 09:47:34.711,eb:33:2e:f9:57:b5, 2015-01-01 00:36:07.050,-0.255,6.563,4.179,-191.833,-11.963,123.901, , , , , , ,-23.967,-21.736,-91.406
 09:47:34.711,eb:33:2e:f9:57:b5, 2015-01-01 00:36:07.050,0,6.62,3.374,-152.466,53.284,85.388, , , , , , ,-24.966,-21.39,-91.016
 09:47:34.711,eb:33:2e:f9:57:b5, 2015-01-01 00:36:07.050,0.025,6.611,2.437,-113.281,87.036,38.818, , , , , , ,-25.648,-20.918,-90.912
 09:47:34.711,eb:33:2e:f9:57:b5, 2015-01-01 00:36:07.050,-0.238,6.414,1.453,-78.674,82.52,-8.85, , , , , , ,-26.065,-20.506,-91.06
 09:47:34.711,eb:33:2e:f9:57:b5, 2015-01-01 00:36:07.050,-0.723,5.953,0.64,-49.683,45.227,-49.622, , , , , , ,-26.257,-20.303,-91.368
 09:47:34.711,eb:33:2e:f9:57:b5, 2015-01-01 00:36:07.050,-1.268,5.276,0.246,-23.01,-8.301,-75.867, , , , , , ,-26.307,-20.391,-91.758
 09:47:34.711,eb:33:2e:f9:57:b5, 2015-01-01 00:36:07.050,-1.774,4.497,0.345,5.981,-57.556,-84.167, , , , , , ,-26.23,-20.748,-92.06
 09:47:34.713,eb:33:2e:f9:57:b5, 2015-01-01 00:36:07.050,-2.068,3.722,0.725,37.72,-89.722,-74.829, , , , , , ,-26.032,-21.281,-92.252
 09:47:34.735,eb:33:2e:f9:57:b5, 2015-01-01 00:36:07.050,2.832,3.015,1.254,73.547,-92.224,-52.307, , , , , , ,-25.708,-21.835,-92.329
 09:47:34.735,eb:33:2e:f9:57:b5, 2015-01-01 00:36:07.050,-0.918,3.477,6.783,416.443,-277.527,-206.665, , , , , , ,-24.45,-23.022,-92.571
 09:47:34.735,eb:33:2e:f9:57:b5, 2015-01-01 00:36:07.050,0.678,6.723,0.649,640.32,491.882,-194.702, , , , , , ,-20.792,-21.577,-94.329
 09:47:34.735,eb:33:2e:f9:57:b5, 2015-01-01 00:36:07.050,-1.901,10.767,1.625,721.375,399.353,-491.516, , , , , , ,-16.375,-20.314,-96.916
 09:47:34.735,eb:33:2e:f9:57:b5, 2015-01-01 00:36:07.050,-3.665,7.219,5.169,896.667,395.508,-345.215, , , , , , ,-11.349,-18.875,-99.855
 09:47:34.735,eb:33:2e:f9:57:b5, 2015-01-01 00:36:07.050,-4.273,11.089,7.227,722.839,744.446,-220.459, , , , , , ,-6.674,-16.199,-101.382
 09:47:34.735,eb:33:2e:f9:57:b5, 2015-01-01 00:36:07.050,0.483,4.156,3.885,330.078,871.094,41.382, , , , , , ,-4.142,-11.975,-102.343
 09:47:34.735,eb:33:2e:f9:57:b5, 2015-01-01 00:36:07.050,1.122,1.29,1.406,207.642,528.748,301.697, , , , , , ,-3.12,-8.525,-101.294
 09:47:34.803,eb:33:2e:f9:57:b5, 2015-01-01 00:36:07.050,-1.408,5.318,4.591,-38.33,609.741,-58.044, , , , , , ,-2.9,-5.823,-101.173
 09:47:34.803,eb:33:2e:f9:57:b5, 2015-01-01 00:36:07.050,-0.795,-0.139,-0.089,80.505,91.248,-20.508, , , , , , ,2.851,1.89,-102.222
 09:47:34.803,eb:33:2e:f9:57:b5, 2015-01-01 00:36:07.050,0.196,0.097,0.729,79.59,57.556,-9.644, , , , , , ,3.252,2.236,-102.266
 09:47:34.803,eb:33:2e:f9:57:b5, 2015-01-01 00:36:07.050,0.625,0.389,1.412,74.707,63.904,-12.268, , , , , , ,3.669,2.554,-102.294
 09:47:34.803,eb:33:2e:f9:57:b5, 2015-01-01 00:36:07.050,0.191,0.162,2.175,83.557,82.764,-27.222, , , , , , ,4.059,2.939,-102.371
 09:47:34.803,eb:33:2e:f9:57:b5, 2015-01-01 00:36:07.050,-0.263,0.272,1.336,91.309,60.852,-34.058, , , , , , ,4.499,3.307,-102.513
 09:47:34.803,eb:33:2e:f9:57:b5, 2015-01-01 00:36:07.050,-0.573,-0.074,2.069,100.159,51.697,-25.452, , , , , , ,4.971,3.593,-102.64
 09:47:34.803,eb:33:2e:f9:57:b5, 2015-01-01 00:36:07.050,-0.845,0.227,1.236,113.647,5.92,3.357, , , , , , ,5.554,3.735,-102.667
 09:47:34.804,eb:33:2e:f9:57:b5, 2015-01-01 00:36:07.050,-1.083,-0.059,1.806,123.291,-13.55,21.118, , , , , , ,6.152,3.675,-102.596
 09:47:34.804,eb:33:2e:f9:57:b5, 2015-01-01 00:36:07.050,-1.498,-0.458,2.843,147.034,-19.592,32.715, , , , , , ,6.844,3.582,-102.469
 09:47:34.804,eb:33:2e:f9:57:b5, 2015-01-01 00:36:07.050,-1.58,-0.804,3.555,185.303,-32.41,62.317, , , , , , ,7.707,3.422,-102.239
 09:47:34.804,eb:33:2e:f9:57:b5, 2015-01-01 00:36:07.050,-1.082,-0.789,3.763,220.703,-71.655,82.031, , , , , , ,8.789,3.104,-101.909
 09:47:34.804,eb:33:2e:f9:57:b5, 2015-01-01 00:36:07.050,-0.619,-1.091,3.833,271.057,-97.29,96.191, , , , , , ,10.063,2.609,-101.53
 09:47:34.804,eb:33:2e:f9:57:b5, 2015-01-01 00:36:07.050,0.104,-1.425,3.812,336.975,-136.597,102.173, , , , , , ,11.624,1.923,-101.151
 09:47:34.804,eb:33:2e:f9:57:b5, 2015-01-01 00:36:07.050,0.901,-1.147,3.843,405.09,-152.283,104.004, , , , , , ,13.535,1.082,-100.805
 09:47:34.804,eb:33:2e:f9:57:b5, 2015-01-01 00:36:07.050,0.599,-0.996,4.394,457.703,-132.08,88.44, , , , , , ,15.743,0.28,-100.525
 09:47:34.825,eb:33:2e:f9:57:b5, 2015-01-01 00:36:07.050,0.966,-1.205,4.828,519.348,-112.854,67.078, , , , , , ,18.221,-0.385,-100.333
 09:47:34.825,eb:33:2e:f9:57:b5, 2015-01-01 00:36:07.050,0.673,-1.506,5.033,573.303,-68.848,39.246, , , , , , ,20.989,-0.901,-100.245
 09:47:34.825,eb:33:2e:f9:57:b5, 2015-01-01 00:36:07.050,0.319,-1.085,4.599,612.305,-31.189,10.803, , , , , , ,23.978,-1.154,-100.217
 09:47:34.825,eb:33:2e:f9:57:b5, 2015-01-01 00:36:07.050,0.525,-1.21,4.079,642.151,-29.663,-20.142, , , , , , ,27.147,-1.258,-100.327
 09:47:34.825,eb:33:2e:f9:57:b5, 2015-01-01 00:36:07.050,0.745,-1.003,4.307,672.791,-17.456,-51.514, , , , , , ,30.46,-1.263,-100.547
 09:47:34.825,eb:33:2e:f9:57:b5, 2015-01-01 00:36:07.050,0.509,-2.171,4.598,705.017,1.77,-60.608, , , , , , ,33.915,-1.148,-100.811
 09:47:34.825,eb:33:2e:f9:57:b5, 2015-01-01 00:36:07.050,0.78,-1.652,4.392,727.356,28.015,-75.928, , , , , , ,37.524,-0.829,-101.019
 09:47:34.826,eb:33:2e:f9:57:b5, 2015-01-01 00:36:07.050,0.419,-1.887,4.657,743.164,58.655,-84.045, , , , , , ,41.215,-0.428,-101.217
 09:47:34.917,eb:33:2e:f9:57:b5, 2015-01-01 00:36:07.050,0.244,-1.172,5.302,731.384,92.957,-92.041, , , , , , ,44.912,0.176,-101.283
 09:47:34.917,eb:33:2e:f9:57:b5, 2015-01-01 00:36:07.050,-0.431,-0.449,5.664,700.012,162.903,-93.445, , , , , , ,48.488,1,-101.063
 09:47:34.917,eb:33:2e:f9:57:b5, 2015-01-01 00:36:07.050,-0.751,0.662,5.709,671.265,237,-60.73, , , , , , ,51.899,1.956,-100.519
 09:47:34.917,eb:33:2e:f9:57:b5, 2015-01-01 00:36:07.050,-0.751,0.097,3.974,626.709,265.137,-32.166, , , , , , ,55.184,2.906,-99.646
 09:47:34.917,eb:33:2e:f9:57:b5, 2015-01-01 00:36:07.050,0.31,0.301,0.159,480.103,279.907,12.756, , , , , , ,57.98,3.697,-98.487
 09:47:34.917,eb:33:2e:f9:57:b5, 2015-01-01 00:36:07.050,1.662,0.482,-2.049,331.421,294.739,37.598, , , , , , ,60.002,4.296,-97.141
 09:47:34.917,eb:33:2e:f9:57:b5, 2015-01-01 00:36:07.050,1.149,1.207,-1.798,285.156,283.875,32.959, , , , , , ,61.589,4.872,-95.74
 09:47:34.917,eb:33:2e:f9:57:b5, 2015-01-01 00:36:07.050,0.458,2.605,-1.406,223.511,187.378,26.184, , , , , , ,62.952,5.24,-94.697
 09:47:34.918,eb:33:2e:f9:57:b5, 2015-01-01 00:36:07.050,1.035,2.883,-0.195,160.522,105.53,0.549, , , , , , ,63.918,5.532,-94.037
 09:47:34.918,eb:33:2e:f9:57:b5, 2015-01-01 00:36:07.050,0.931,2,2.387,152.771,78.674,-14.343, , , , , , ,64.72,5.735,-93.642
 09:47:34.918,eb:33:2e:f9:57:b5, 2015-01-01 00:36:07.050,1.066,1.456,3.596,191.711,66.772,-42.358, , , , , , ,65.605,6.037,-93.367
 09:47:34.918,eb:33:2e:f9:57:b5, 2015-01-01 00:36:07.050,0.924,1.27,4.381,262.817,58.594,-69.092, , , , , , ,66.791,6.432,-93.224
 09:47:34.918,eb:33:2e:f9:57:b5, 2015-01-01 00:36:07.050,0.625,1.179,4.523,324.707,50.293,-90.881, , , , , , ,68.313,6.921,-93.126
 09:47:34.918,eb:33:2e:f9:57:b5, 2015-01-01 00:36:07.050,0.403,0.892,4.397,360.413,37.048,-104.187, , , , , , ,70.054,7.46,-93.06
 09:47:34.918,eb:33:2e:f9:57:b5, 2015-01-01 00:36:07.050,0.28,0.423,4.34,379.211,26.611,-111.572, , , , , , ,71.917,8.026,-93.087
 09:47:34.918,eb:33:2e:f9:57:b5, 2015-01-01 00:36:07.050,0.194,0.01,4.284,387.939,8.301,-114.441, , , , , , ,73.823,8.597,-93.197
 09:47:34.939,eb:33:2e:f9:57:b5, 2015-01-01 00:36:07.050,0.097,-0.202,4.409,384.949,1.16,-115.54, , , , , , ,75.734,9.157,-93.334
 09:47:34.939,eb:33:2e:f9:57:b5, 2015-01-01 00:36:07.050,0.536,-0.454,4.726,378.052,0,-119.446, , , , , , ,77.618,9.728,-93.417
 09:47:34.939,eb:33:2e:f9:57:b5, 2015-01-01 00:36:07.050,0.875,-0.689,5.355,371.155,24.658,-127.808, , , , , , ,79.475,10.349,-93.477
 09:47:34.940,eb:33:2e:f9:57:b5, 2015-01-01 00:36:07.050,1.154,-0.938,5.61,367.92,54.504,-144.165, , , , , , ,81.321,11.063,-93.395
 09:47:34.940,eb:33:2e:f9:57:b5, 2015-01-01 00:36:07.050,1.394,-1.182,5.524,363.281,80.261,-166.016, , , , , , ,83.194,11.893,-93.148
 09:47:34.940,eb:33:2e:f9:57:b5, 2015-01-01 00:36:07.050,1.507,-1.467,5.241,352.051,107.117,-187.988, , , , , , ,85.067,12.832,-92.692
 09:47:34.940,eb:33:2e:f9:57:b5, 2015-01-01 00:36:07.050,1.583,-1.776,4.84,334.29,128.296,-207.947, , , , , , ,86.902,13.87,-92.142
 09:47:34.940,eb:33:2e:f9:57:b5, 2015-01-01 00:36:07.050,1.686,-2.05,4.367,309.143,143.188,-225.22, , , , , , ,88.638,14.991,-91.5
 09:47:35.005,eb:33:2e:f9:57:b5, 2015-01-01 00:36:07.050,1.683,-2.261,3.834,274.841,155.151,-239.807, , , , , , ,90.291,16.172,-90.731
 09:47:35.005,eb:33:2e:f9:57:b5, 2015-01-01 00:36:07.050,1.565,-2.479,3.304,234.375,158.936,-252.136, , , , , , ,91.791,17.391,-89.813
 09:47:35.005,eb:33:2e:f9:57:b5, 2015-01-01 00:36:07.050,1.361,-2.652,2.805,190.063,149.658,-261.841, , , , , , ,93.098,18.649,-88.945
 09:47:35.005,eb:33:2e:f9:57:b5, 2015-01-01 00:36:07.050,1.131,-2.713,2.393,142.639,131.104,-264.282, , , , , , ,94.142,19.924,-88.143
 09:47:35.005,eb:33:2e:f9:57:b5, 2015-01-01 00:36:07.050,1.015,-2.71,2.23,96.558,108.215,-260.376, , , , , , ,94.971,21.182,-87.407
 09:47:35.005,eb:33:2e:f9:57:b5, 2015-01-01 00:36:07.050,0.897,-2.686,2.304,55.115,90.942,-250.427, , , , , , ,95.57,22.407,-86.699
 09:47:35.006,eb:33:2e:f9:57:b5, 2015-01-01 00:36:07.050,0.788,-2.679,2.354,18.494,81.543,-234.741, , , , , , ,95.96,23.566,-86.111
 09:47:35.006,eb:33:2e:f9:57:b5, 2015-01-01 00:36:07.050,0.711,-2.728,2.353,-13.123,78.247,-214.661, , , , , , ,96.136,24.637,-85.573
 09:47:35.028,eb:33:2e:f9:57:b5, 2015-01-01 00:36:07.050,0.715,-2.793,2.309,-41.077,79.407,-190.063, , , , , , ,96.218,25.593,-85.023
 09:47:35.028,eb:33:2e:f9:57:b5, 2015-01-01 00:36:07.050,0.63,-2.876,2.285,-64.819,87.463,-160.95, , , , , , ,96.191,26.406,-84.397
 09:47:35.028,eb:33:2e:f9:57:b5, 2015-01-01 00:36:07.050,0.395,-2.873,2.121,-86.426,92.041,-130.859, , , , , , ,96.07,27.065,-83.798
 09:47:35.028,eb:33:2e:f9:57:b5, 2015-01-01 00:36:07.050,0.294,-2.849,1.737,-109.009,81.604,-95.825, , , , , , ,95.768,27.576,-83.282
 09:47:35.028,eb:33:2e:f9:57:b5, 2015-01-01 00:36:07.050,0.29,-2.901,1.405,-137.817,74.829,-57.556, , , , , , ,95.361,27.905,-82.809
 09:47:35.028,eb:33:2e:f9:57:b5, 2015-01-01 00:36:07.050,0.446,-2.981,1.006,-177.246,73.547,-18.066, , , , , , ,94.763,28.037,-82.315
 09:47:35.028,eb:33:2e:f9:57:b5, 2015-01-01 00:36:07.050,0.733,-2.996,0.531,-226.501,76.233,21.057, , , , , , ,93.928,27.982,-81.898
 09:47:35.029,eb:33:2e:f9:57:b5, 2015-01-01 00:36:07.050,1.042,-2.808,0.117,-282.104,76.721,54.688, , , , , , ,92.769,27.762,-81.508
 09:47:35.140,eb:33:2e:f9:57:b5, 2015-01-01 00:36:07.050,1.332,-2.43,-0.152,-336.487,68.176,78.186, , , , , , ,91.373,27.4,-81.112
 09:47:35.140,eb:33:2e:f9:57:b5, 2015-01-01 00:36:07.050,1.664,-1.987,-0.25,-381.836,43.335,87.402, , , , , , ,89.692,26.977,-80.755
 09:47:35.141,eb:33:2e:f9:57:b5, 2015-01-01 00:36:07.050,1.991,-1.487,-0.52,-422.424,2.563,85.876, , , , , , ,87.715,26.543,-80.634
 09:47:35.141,eb:33:2e:f9:57:b5, 2015-01-01 00:36:07.050,2.215,-0.992,-0.8,-460.999,-45.654,75.317, , , , , , ,85.38,26.142,-80.782
 09:47:35.141,eb:33:2e:f9:57:b5, 2015-01-01 00:36:07.050,2.306,-0.593,-0.782,-492.92,-101.99,56.458, , , , , , ,82.804,25.779,-81.183
 09:47:35.141,eb:33:2e:f9:57:b5, 2015-01-01 00:36:07.050,2.271,-0.306,-0.498,-514.526,-161.255,32.837, , , , , , ,79.953,25.466,-81.859
 09:47:35.143,eb:33:2e:f9:57:b5, 2015-01-01 00:36:07.050,2.154,-0.164,-0.063,-525.33,-214.294,7.324, , , , , , ,76.904,25.186,-82.886
 09:47:35.143,eb:33:2e:f9:57:b5, 2015-01-01 00:36:07.050,1.97,-0.17,0.42,-528.564,-255.554,-15.259, , , , , , ,73.669,24.917,-84.21
 09:47:35.143,eb:33:2e:f9:57:b5, 2015-01-01 00:36:07.050,1.761,-0.284,0.867,-529.236,-281.189,-31.494, , , , , , ,70.406,24.62,-85.677
 09:47:35.143,eb:33:2e:f9:57:b5, 2015-01-01 00:36:07.050,1.527,-0.466,1.297,-532.043,-291.931,-40.833, , , , , , ,67.11,24.269,-87.193
 09:47:35.143,eb:33:2e:f9:57:b5, 2015-01-01 00:36:07.050,1.301,-0.633,1.706,-542.419,-288.513,-43.579, , , , , , ,63.792,23.862,-88.737
 09:47:35.143,eb:33:2e:f9:57:b5, 2015-01-01 00:36:07.050,1.131,-0.65,1.872,-555.298,-286.926,-39.368, , , , , , ,60.392,23.373,-90.253
 09:47:35.144,eb:33:2e:f9:57:b5, 2015-01-01 00:36:07.050,0.944,-0.593,1.993,-569.153,-287.903,-32.288, , , , , , ,57.014,22.775,-91.686
 09:47:35.144,eb:33:2e:f9:57:b5, 2015-01-01 00:36:07.050,0.872,-0.553,2.113,-580.627,-298.767,-22.888, , , , , , ,53.597,22.05,-93.049
 09:47:35.144,eb:33:2e:f9:57:b5, 2015-01-01 00:36:07.050,0.853,-0.546,2.29,-589.172,-310.669,-13.489, , , , , , ,50.169,21.176,-94.4
 09:47:35.144,eb:33:2e:f9:57:b5, 2015-01-01 00:36:07.050,0.901,-0.587,2.435,-594.727,-325.623,-4.333, , , , , , ,46.692,20.132,-95.724
 09:47:35.144,eb:33:2e:f9:57:b5, 2015-01-01 00:36:07.050,0.96,-0.665,2.568,-597.046,-339.478,3.113, , , , , , ,43.286,18.951,-96.982
 09:47:35.144,eb:33:2e:f9:57:b5, 2015-01-01 00:36:07.050,1.001,-0.715,2.673,-597.229,-353.21,9.033, , , , , , ,39.93,17.628,-98.146
 09:47:35.144,eb:33:2e:f9:57:b5, 2015-01-01 00:36:07.050,1.035,-0.708,2.744,-596.313,-370.667,11.597, , , , , , ,36.612,16.166,-99.278
 09:47:35.144,eb:33:2e:f9:57:b5, 2015-01-01 00:36:07.050,1.136,-0.642,2.833,-593.872,-392.395,10.315, , , , , , ,33.294,14.54,-100.388
 09:47:35.145,eb:33:2e:f9:57:b5, 2015-01-01 00:36:07.050,1.215,-0.521,3.001,-589.233,-413.33,3.723, , , , , , ,30.081,12.805,-101.453
 09:47:35.145,eb:33:2e:f9:57:b5, 2015-01-01 00:36:07.050,1.155,-0.354,3.16,-582.52,-435.791,-6.653, , , , , , ,26.938,10.931,-102.491
 09:47:35.145,eb:33:2e:f9:57:b5, 2015-01-01 00:36:07.050,0.958,-0.169,3.275,-575.012,-461.06,-18.494, , , , , , ,23.868,8.926,-103.535
 09:47:35.145,eb:33:2e:f9:57:b5, 2015-01-01 00:36:07.050,0.552,0.001,3.405,-569.946,-488.22,-24.963, , , , , , ,20.814,6.735,-104.573
 09:47:35.184,eb:33:2e:f9:57:b5, 2015-01-01 00:36:07.540,0.084,0.176,3.646,-572.205,-509.827,-20.325, , , , , , ,17.864,4.406,-105.518
 09:47:35.184,eb:33:2e:f9:57:b5, 2015-01-01 00:36:07.540,-0.433,0.292,4.149,-578.918,-511.414,-0.671, , , , , , ,14.941,1.956,-106.282
 09:47:35.184,eb:33:2e:f9:57:b5, 2015-01-01 00:36:07.540,-0.827,0.373,4.829,-582.642,-490.845,31.982, , , , , , ,12.025,-0.494,-106.776
 09:47:35.184,eb:33:2e:f9:57:b5, 2015-01-01 00:36:07.540,-0.993,0.506,5.485,-578.552,-451.05,73.425, , , , , , ,9.064,-2.878,-106.924
 09:47:35.184,eb:33:2e:f9:57:b5, 2015-01-01 00:36:07.540,-1.022,0.794,5.866,-568.176,-400.879,120.3, , , , , , ,6.185,-5.037,-106.705
 09:47:35.184,eb:33:2e:f9:57:b5, 2015-01-01 00:36:07.540,-0.999,1.194,5.924,-552.917,-351.379,167.847, , , , , , ,3.323,-6.943,-106.111
 09:47:35.184,eb:33:2e:f9:57:b5, 2015-01-01 00:36:07.540,-0.977,1.686,5.762,-534.241,-317.81,209.839, , , , , , ,0.489,-8.624,-105.194
 09:47:35.184,eb:33:2e:f9:57:b5, 2015-01-01 00:36:07.540,-0.93,2.284,5.475,-514.465,-306.213,244.263, , , , , , ,-2.373,-10.173,-103.991
 09:47:35.230,eb:33:2e:f9:57:b5, 2015-01-01 00:36:07.540,-0.791,3.029,5.164,-496.765,-314.087,269.592, , , , , , ,-5.158,-11.635,-102.563
 09:47:35.230,eb:33:2e:f9:57:b5, 2015-01-01 00:36:07.540,-0.587,3.889,4.961,-483.643,-332.153,283.386, , , , , , ,-7.949,-13.085,-100.97
 09:47:35.230,eb:33:2e:f9:57:b5, 2015-01-01 00:36:07.540,-0.533,4.754,4.852,-472.9,-350.83,286.682, , , , , , ,-10.75,-14.546,-99.229
 09:47:35.230,eb:33:2e:f9:57:b5, 2015-01-01 00:36:07.540,-0.543,5.536,4.677,-459.473,-375.061,280.945, , , , , , ,-13.612,-16.046,-97.377
 09:47:35.230,eb:33:2e:f9:57:b5, 2015-01-01 00:36:07.540,-0.538,6.153,4.678,-437.012,-396.667,266.357, , , , , , ,-16.397,-17.573,-95.477
 09:47:35.230,eb:33:2e:f9:57:b5, 2015-01-01 00:36:07.540,-0.621,6.573,4.96,-398.621,-393.86,245.239, , , , , , ,-19.072,-19.078,-93.598
 09:47:35.231,eb:33:2e:f9:57:b5, 2015-01-01 00:36:07.540,-0.735,6.916,5.158,-343.201,-363.464,218.628, , , , , , ,-21.528,-20.451,-91.758
 09:47:35.231,eb:33:2e:f9:57:b5, 2015-01-01 00:36:07.540,-0.684,7.243,5.052,-281.555,-312.256,186.829, , , , , , ,-23.692,-21.616,-90.06
 09:47:35.298,eb:33:2e:f9:57:b5, 2015-01-01 00:36:07.540,-0.497,7.458,4.844,-223.45,-236.511,148.56, , , , , , ,-25.455,-22.5,-88.654
 09:47:35.298,eb:33:2e:f9:57:b5, 2015-01-01 00:36:07.540,-0.426,7.561,4.451,-173.401,-141.235,103.455, , , , , , ,-26.812,-23.038,-87.676
 09:47:35.298,eb:33:2e:f9:57:b5, 2015-01-01 00:36:07.540,-0.397,7.529,3.664,-130.859,-56.03,51.941, , , , , , ,-27.779,-23.264,-87.1
 09:47:35.298,eb:33:2e:f9:57:b5, 2015-01-01 00:36:07.540,-0.485,7.359,2.824,-92.346,4.7,-3.418, , , , , , ,-28.378,-23.297,-86.957
 09:47:35.299,eb:33:2e:f9:57:b5, 2015-01-01 00:36:07.540,-0.85,7.015,1.944,-53.528,39.062,-67.749, , , , , , ,-28.614,-23.275,-87.231
 09:47:35.299,eb:33:2e:f9:57:b5, 2015-01-01 00:36:07.540,-1.375,6.48,1.379,-27.466,36.316,-110.718, , , , , , ,-28.581,-23.324,-87.83
 09:47:35.299,eb:33:2e:f9:57:b5, 2015-01-01 00:36:07.540,-1.926,5.712,1.064,-4.211,19.226,-137.39, , , , , , ,-28.378,-23.516,-88.511
 09:47:35.299,eb:33:2e:f9:57:b5, 2015-01-01 00:36:07.540,-2.402,4.846,0.908,19.348,-0.671,-145.752, , , , , , ,-28.032,-23.824,-89.214
 09:47:35.301,eb:33:2e:f9:57:b5, 2015-01-01 00:36:07.540,-2.633,3.988,0.871,43.762,-20.386,-138.245, , , , , , ,-27.592,-24.214,-89.874
 09:47:35.301,eb:33:2e:f9:57:b5, 2015-01-01 00:36:07.540,-2.633,3.174,1.068,69.153,-25.635,-117.676, , , , , , ,-27.07,-24.615,-90.467
 09:47:35.301,eb:33:2e:f9:57:b5, 2015-01-01 00:36:07.540,-2.451,2.462,1.362,94.543,-16.113,-89.905, , , , , , ,-26.461,-24.939,-90.917
 09:47:35.301,eb:33:2e:f9:57:b5, 2015-01-01 00:36:07.540,2.67,1.841,1.541,119.812,4.517,-59.143, , , , , , ,-25.746,-25.109,-91.263
 09:47:35.301,eb:33:2e:f9:57:b5, 2015-01-01 00:36:07.540,0.443,2.16,6.515,442.261,-229.065,-237.61, , , , , , ,-24.192,-25.988,-91.725
 09:47:35.301,eb:33:2e:f9:57:b5, 2015-01-01 00:36:07.540,2.656,6.309,0.738,689.392,498.535,-253.418, , , , , , ,-20.182,-24.532,-93.779
 09:47:35.301,eb:33:2e:f9:57:b5, 2015-01-01 00:36:07.540,0.954,11.652,-0.551,724.609,364.38,-565.43, , , , , , ,-15.298,-23.401,-96.751
 09:47:35.302,eb:33:2e:f9:57:b5, 2015-01-01 00:36:07.540,-0.249,2.535,5.283,829.224,378.784,-449.646, , , , , , ,-10.212,-22.099,-100.239
 09:47:35.345,eb:33:2e:f9:57:b5, 2015-01-01 00:36:07.540,-2.334,9.19,6.51,523.376,726.257,-320.984, , , , , , ,-5.982,-19.589,-102.299
 09:47:35.345,eb:33:2e:f9:57:b5, 2015-01-01 00:36:07.540,3.175,1.08,6.021,273.743,836.792,97.29, , , , , , ,-3.873,-15.469,-103.096
 09:47:35.345,eb:33:2e:f9:57:b5, 2015-01-01 00:36:07.540,-1.402,1.708,3.601,152.344,664.368,220.459, , , , , , ,-3.153,-11.816,-102.085
